Created as New Dataset,Sample 001 By Administrator Date Wednesday, November 24 2021
cm-1,A
7502.00,1.1315
7501.00,1.1303
7500.00,1.1292
7499.00,1.1281
7498.00,1.1270
7497.00,1.1259
7496.00,1.1248
7495.00,1.1237
7494.00,1.1226
7493.00,1.1223
7492.00,1.1240
7491.00,1.1276
7490.00,1.1314
7489.00,1.1340
7488.00,1.1345
7487.00,1.1331
7486.00,1.1295
7485.00,1.1232
7484.00,1.1147
7483.00,1.1052
7482.00,1.0963
7481.00,1.0887
7480.00,1.0828
7479.00,1.0782
7478.00,1.0745
7477.00,1.0710
7476.00,1.0677
7475.00,1.0649
7474.00,1.0631
7473.00,1.0619
7472.00,1.0602
7471.00,1.0567
7470.00,1.0510
7469.00,1.0435
7468.00,1.0357
7467.00,1.0285
7466.00,1.0215
7465.00,1.0139
7464.00,1.0057
7463.00,0.9974
7462.00,0.9898
7461.00,0.9826
7460.00,0.9752
7459.00,0.9674
7458.00,0.9596
7457.00,0.9523
7456.00,0.9459
7455.00,0.9405
7454.00,0.9358
7453.00,0.9312
7452.00,0.9258
7451.00,0.9192
7450.00,0.9121
7449.00,0.9051
7448.00,0.8986
7447.00,0.8923
7446.00,0.8854
7445.00,0.8777
7444.00,0.8698
7443.00,0.8620
7442.00,0.8544
7441.00,0.8471
7440.00,0.8397
7439.00,0.8323
7438.00,0.8253
7437.00,0.8187
7436.00,0.8126
7435.00,0.8068
7434.00,0.8012
7433.00,0.7957
7432.00,0.7905
7431.00,0.7859
7430.00,0.7821
7429.00,0.7790
7428.00,0.7766
7427.00,0.7748
7426.00,0.7736
7425.00,0.7726
7424.00,0.7716
7423.00,0.7711
7422.00,0.7712
7421.00,0.7721
7420.00,0.7737
7419.00,0.7753
7418.00,0.7770
7417.00,0.7790
7416.00,0.7816
7415.00,0.7848
7414.00,0.7883
7413.00,0.7921
7412.00,0.7964
7411.00,0.8017
7410.00,0.8079
7409.00,0.8146
7408.00,0.8214
7407.00,0.8284
7406.00,0.8359
7405.00,0.8436
7404.00,0.8512
7403.00,0.8586
7402.00,0.8662
7401.00,0.8741
7400.00,0.8823
7399.00,0.8907
7398.00,0.8993
7397.00,0.9081
7396.00,0.9171
7395.00,0.9262
7394.00,0.9353
7393.00,0.9442
7392.00,0.9529
7391.00,0.9618
7390.00,0.9709
7389.00,0.9800
7388.00,0.9890
7387.00,0.9980
7386.00,1.0074
7385.00,1.0172
7384.00,1.0266
7383.00,1.0353
7382.00,1.0434
7381.00,1.0514
7380.00,1.0596
7379.00,1.0679
7378.00,1.0758
7377.00,1.0833
7376.00,1.0909
7375.00,1.0989
7374.00,1.1070
7373.00,1.1144
7372.00,1.1206
7371.00,1.1260
7370.00,1.1309
7369.00,1.1353
7368.00,1.1393
7367.00,1.1436
7366.00,1.1487
7365.00,1.1544
7364.00,1.1597
7363.00,1.1641
7362.00,1.1680
7361.00,1.1719
7360.00,1.1757
7359.00,1.1788
7358.00,1.1806
7357.00,1.1812
7356.00,1.1812
7355.00,1.1814
7354.00,1.1820
7353.00,1.1827
7352.00,1.1832
7351.00,1.1835
7350.00,1.1841
7349.00,1.1848
7348.00,1.1847
7347.00,1.1828
7346.00,1.1790
7345.00,1.1747
7344.00,1.1708
7343.00,1.1676
7342.00,1.1646
7341.00,1.1614
7340.00,1.1578
7339.00,1.1539
7338.00,1.1494
7337.00,1.1437
7336.00,1.1367
7335.00,1.1288
7334.00,1.1210
7333.00,1.1138
7332.00,1.1067
7331.00,1.0992
7330.00,1.0912
7329.00,1.0828
7328.00,1.0743
7327.00,1.0655
7326.00,1.0563
7325.00,1.0471
7324.00,1.0381
7323.00,1.0289
7322.00,1.0195
7321.00,1.0098
7320.00,1.0002
7319.00,0.9905
7318.00,0.9804
7317.00,0.9699
7316.00,0.9594
7315.00,0.9491
7314.00,0.9392
7313.00,0.9292
7312.00,0.9191
7311.00,0.9091
7310.00,0.8996
7309.00,0.8904
7308.00,0.8814
7307.00,0.8725
7306.00,0.8639
7305.00,0.8558
7304.00,0.8483
7303.00,0.8411
7302.00,0.8340
7301.00,0.8272
7300.00,0.8207
7299.00,0.8147
7298.00,0.8094
7297.00,0.8049
7296.00,0.8009
7295.00,0.7972
7294.00,0.7939
7293.00,0.7912
7292.00,0.7893
7291.00,0.7880
7290.00,0.7870
7289.00,0.7863
7288.00,0.7863
7287.00,0.7871
7286.00,0.7886
7285.00,0.7905
7284.00,0.7927
7283.00,0.7954
7282.00,0.7988
7281.00,0.8028
7280.00,0.8075
7279.00,0.8126
7278.00,0.8182
7277.00,0.8243
7276.00,0.8307
7275.00,0.8372
7274.00,0.8438
7273.00,0.8506
7272.00,0.8577
7271.00,0.8649
7270.00,0.8723
7269.00,0.8798
7268.00,0.8876
7267.00,0.8958
7266.00,0.9044
7265.00,0.9133
7264.00,0.9223
7263.00,0.9312
7262.00,0.9400
7261.00,0.9489
7260.00,0.9578
7259.00,0.9670
7258.00,0.9761
7257.00,0.9848
7256.00,0.9932
7255.00,1.0012
7254.00,1.0090
7253.00,1.0166
7252.00,1.0240
7251.00,1.0313
7250.00,1.0385
7249.00,1.0461
7248.00,1.0540
7247.00,1.0616
7246.00,1.0685
7245.00,1.0746
7244.00,1.0804
7243.00,1.0866
7242.00,1.0933
7241.00,1.1003
7240.00,1.1070
7239.00,1.1133
7238.00,1.1193
7237.00,1.1247
7236.00,1.1290
7235.00,1.1323
7234.00,1.1352
7233.00,1.1383
7232.00,1.1415
7231.00,1.1441
7230.00,1.1464
7229.00,1.1488
7228.00,1.1519
7227.00,1.1550
7226.00,1.1574
7225.00,1.1589
7224.00,1.1598
7223.00,1.1609
7222.00,1.1624
7221.00,1.1634
7220.00,1.1633
7219.00,1.1622
7218.00,1.1607
7217.00,1.1594
7216.00,1.1579
7215.00,1.1557
7214.00,1.1524
7213.00,1.1486
7212.00,1.1450
7211.00,1.1415
7210.00,1.1379
7209.00,1.1340
7208.00,1.1296
7207.00,1.1252
7206.00,1.1205
7205.00,1.1156
7204.00,1.1103
7203.00,1.1049
7202.00,1.0993
7201.00,1.0935
7200.00,1.0871
7199.00,1.0802
7198.00,1.0731
7197.00,1.0658
7196.00,1.0583
7195.00,1.0504
7194.00,1.0421
7193.00,1.0335
7192.00,1.0245
7191.00,1.0153
7190.00,1.0058
7189.00,0.9962
7188.00,0.9864
7187.00,0.9765
7186.00,0.9668
7185.00,0.9573
7184.00,0.9480
7183.00,0.9388
7182.00,0.9296
7181.00,0.9203
7180.00,0.9108
7179.00,0.9010
7178.00,0.8914
7177.00,0.8823
7176.00,0.8736
7175.00,0.8650
7174.00,0.8566
7173.00,0.8485
7172.00,0.8406
7171.00,0.8331
7170.00,0.8259
7169.00,0.8190
7168.00,0.8127
7167.00,0.8070
7166.00,0.8021
7165.00,0.7979
7164.00,0.7943
7163.00,0.7910
7162.00,0.7876
7161.00,0.7846
7160.00,0.7820
7159.00,0.7803
7158.00,0.7796
7157.00,0.7798
7156.00,0.7806
7155.00,0.7820
7154.00,0.7837
7153.00,0.7859
7152.00,0.7885
7151.00,0.7914
7150.00,0.7947
7149.00,0.7986
7148.00,0.8032
7147.00,0.8085
7146.00,0.8144
7145.00,0.8208
7144.00,0.8275
7143.00,0.8344
7142.00,0.8415
7141.00,0.8488
7140.00,0.8563
7139.00,0.8641
7138.00,0.8720
7137.00,0.8799
7136.00,0.8880
7135.00,0.8965
7134.00,0.9056
7133.00,0.9147
7132.00,0.9236
7131.00,0.9323
7130.00,0.9412
7129.00,0.9504
7128.00,0.9593
7127.00,0.9682
7126.00,0.9773
7125.00,0.9869
7124.00,0.9968
7123.00,1.0066
7122.00,1.0160
7121.00,1.0251
7120.00,1.0338
7119.00,1.0424
7118.00,1.0514
7117.00,1.0605
7116.00,1.0690
7115.00,1.0766
7114.00,1.0839
7113.00,1.0916
7112.00,1.0995
7111.00,1.1069
7110.00,1.1138
7109.00,1.1207
7108.00,1.1280
7107.00,1.1353
7106.00,1.1420
7105.00,1.1482
7104.00,1.1539
7103.00,1.1594
7102.00,1.1647
7101.00,1.1700
7100.00,1.1752
7099.00,1.1798
7098.00,1.1840
7097.00,1.1878
7096.00,1.1913
7095.00,1.1945
7094.00,1.1974
7093.00,1.2000
7092.00,1.2021
7091.00,1.2035
7090.00,1.2039
7089.00,1.2038
7088.00,1.2036
7087.00,1.2034
7086.00,1.2030
7085.00,1.2022
7084.00,1.2010
7083.00,1.1994
7082.00,1.1971
7081.00,1.1941
7080.00,1.1906
7079.00,1.1868
7078.00,1.1832
7077.00,1.1799
7076.00,1.1767
7075.00,1.1731
7074.00,1.1684
7073.00,1.1626
7072.00,1.1562
7071.00,1.1496
7070.00,1.1430
7069.00,1.1362
7068.00,1.1290
7067.00,1.1216
7066.00,1.1139
7065.00,1.1060
7064.00,1.0974
7063.00,1.0882
7062.00,1.0784
7061.00,1.0686
7060.00,1.0590
7059.00,1.0494
7058.00,1.0397
7057.00,1.0297
7056.00,1.0193
7055.00,1.0085
7054.00,0.9977
7053.00,0.9870
7052.00,0.9763
7051.00,0.9656
7050.00,0.9547
7049.00,0.9438
7048.00,0.9331
7047.00,0.9226
7046.00,0.9123
7045.00,0.9021
7044.00,0.8920
7043.00,0.8823
7042.00,0.8732
7041.00,0.8647
7040.00,0.8566
7039.00,0.8487
7038.00,0.8411
7037.00,0.8337
7036.00,0.8267
7035.00,0.8200
7034.00,0.8139
7033.00,0.8085
7032.00,0.8040
7031.00,0.7999
7030.00,0.7962
7029.00,0.7931
7028.00,0.7908
7027.00,0.7892
7026.00,0.7879
7025.00,0.7871
7024.00,0.7869
7023.00,0.7873
7022.00,0.7882
7021.00,0.7896
7020.00,0.7917
7019.00,0.7944
7018.00,0.7978
7017.00,0.8019
7016.00,0.8065
7015.00,0.8116
7014.00,0.8170
7013.00,0.8226
7012.00,0.8284
7011.00,0.8346
7010.00,0.8415
7009.00,0.8489
7008.00,0.8568
7007.00,0.8647
7006.00,0.8726
7005.00,0.8806
7004.00,0.8891
7003.00,0.8977
7002.00,0.9064
7001.00,0.9153
7000.00,0.9246
6999.00,0.9342
6998.00,0.9439
6997.00,0.9532
6996.00,0.9621
6995.00,0.9708
6994.00,0.9796
6993.00,0.9883
6992.00,0.9969
6991.00,1.0058
6990.00,1.0151
6989.00,1.0245
6988.00,1.0336
6987.00,1.0422
6986.00,1.0508
6985.00,1.0595
6984.00,1.0681
6983.00,1.0763
6982.00,1.0843
6981.00,1.0924
6980.00,1.1007
6979.00,1.1087
6978.00,1.1159
6977.00,1.1226
6976.00,1.1290
6975.00,1.1354
6974.00,1.1419
6973.00,1.1483
6972.00,1.1544
6971.00,1.1602
6970.00,1.1655
6969.00,1.1702
6968.00,1.1742
6967.00,1.1779
6966.00,1.1815
6965.00,1.1850
6964.00,1.1882
6963.00,1.1908
6962.00,1.1928
6961.00,1.1939
6960.00,1.1944
6959.00,1.1946
6958.00,1.1950
6957.00,1.1953
6956.00,1.1953
6955.00,1.1948
6954.00,1.1941
6953.00,1.1934
6952.00,1.1924
6951.00,1.1906
6950.00,1.1881
6949.00,1.1853
6948.00,1.1822
6947.00,1.1790
6946.00,1.1757
6945.00,1.1719
6944.00,1.1676
6943.00,1.1625
6942.00,1.1570
6941.00,1.1512
6940.00,1.1452
6939.00,1.1390
6938.00,1.1329
6937.00,1.1268
6936.00,1.1203
6935.00,1.1132
6934.00,1.1054
6933.00,1.0973
6932.00,1.0890
6931.00,1.0800
6930.00,1.0703
6929.00,1.0606
6928.00,1.0509
6927.00,1.0412
6926.00,1.0310
6925.00,1.0204
6924.00,1.0099
6923.00,0.9996
6922.00,0.9893
6921.00,0.9789
6920.00,0.9684
6919.00,0.9578
6918.00,0.9471
6917.00,0.9365
6916.00,0.9261
6915.00,0.9158
6914.00,0.9059
6913.00,0.8961
6912.00,0.8867
6911.00,0.8773
6910.00,0.8681
6909.00,0.8590
6908.00,0.8502
6907.00,0.8418
6906.00,0.8339
6905.00,0.8266
6904.00,0.8198
6903.00,0.8135
6902.00,0.8074
6901.00,0.8018
6900.00,0.7968
6899.00,0.7924
6898.00,0.7884
6897.00,0.7850
6896.00,0.7823
6895.00,0.7803
6894.00,0.7790
6893.00,0.7784
6892.00,0.7783
6891.00,0.7787
6890.00,0.7798
6889.00,0.7814
6888.00,0.7836
6887.00,0.7865
6886.00,0.7899
6885.00,0.7938
6884.00,0.7982
6883.00,0.8028
6882.00,0.8079
6881.00,0.8136
6880.00,0.8197
6879.00,0.8263
6878.00,0.8334
6877.00,0.8413
6876.00,0.8497
6875.00,0.8582
6874.00,0.8666
6873.00,0.8748
6872.00,0.8832
6871.00,0.8918
6870.00,0.9007
6869.00,0.9098
6868.00,0.9191
6867.00,0.9283
6866.00,0.9377
6865.00,0.9472
6864.00,0.9567
6863.00,0.9661
6862.00,0.9756
6861.00,0.9854
6860.00,0.9956
6859.00,1.0058
6858.00,1.0159
6857.00,1.0255
6856.00,1.0347
6855.00,1.0436
6854.00,1.0528
6853.00,1.0625
6852.00,1.0724
6851.00,1.0820
6850.00,1.0912
6849.00,1.1001
6848.00,1.1086
6847.00,1.1165
6846.00,1.1237
6845.00,1.1304
6844.00,1.1371
6843.00,1.1438
6842.00,1.1502
6841.00,1.1565
6840.00,1.1629
6839.00,1.1692
6838.00,1.1751
6837.00,1.1807
6836.00,1.1860
6835.00,1.1911
6834.00,1.1957
6833.00,1.1999
6832.00,1.2034
6831.00,1.2063
6830.00,1.2087
6829.00,1.2109
6828.00,1.2130
6827.00,1.2145
6826.00,1.2154
6825.00,1.2158
6824.00,1.2166
6823.00,1.2177
6822.00,1.2185
6821.00,1.2186
6820.00,1.2179
6819.00,1.2166
6818.00,1.2149
6817.00,1.2123
6816.00,1.2091
6815.00,1.2056
6814.00,1.2020
6813.00,1.1981
6812.00,1.1939
6811.00,1.1892
6810.00,1.1839
6809.00,1.1778
6808.00,1.1713
6807.00,1.1646
6806.00,1.1581
6805.00,1.1518
6804.00,1.1453
6803.00,1.1384
6802.00,1.1311
6801.00,1.1232
6800.00,1.1146
6799.00,1.1051
6798.00,1.0950
6797.00,1.0848
6796.00,1.0747
6795.00,1.0644
6794.00,1.0540
6793.00,1.0434
6792.00,1.0329
6791.00,1.0223
6790.00,1.0114
6789.00,1.0002
6788.00,0.9890
6787.00,0.9778
6786.00,0.9666
6785.00,0.9554
6784.00,0.9443
6783.00,0.9333
6782.00,0.9223
6781.00,0.9114
6780.00,0.9009
6779.00,0.8908
6778.00,0.8808
6777.00,0.8710
6776.00,0.8615
6775.00,0.8525
6774.00,0.8441
6773.00,0.8361
6772.00,0.8285
6771.00,0.8212
6770.00,0.8146
6769.00,0.8085
6768.00,0.8029
6767.00,0.7979
6766.00,0.7935
6765.00,0.7898
6764.00,0.7869
6763.00,0.7844
6762.00,0.7824
6761.00,0.7810
6760.00,0.7801
6759.00,0.7799
6758.00,0.7804
6757.00,0.7815
6756.00,0.7834
6755.00,0.7861
6754.00,0.7896
6753.00,0.7937
6752.00,0.7982
6751.00,0.8030
6750.00,0.8081
6749.00,0.8137
6748.00,0.8197
6747.00,0.8261
6746.00,0.8330
6745.00,0.8405
6744.00,0.8485
6743.00,0.8568
6742.00,0.8655
6741.00,0.8741
6740.00,0.8828
6739.00,0.8916
6738.00,0.9006
6737.00,0.9099
6736.00,0.9194
6735.00,0.9292
6734.00,0.9393
6733.00,0.9494
6732.00,0.9593
6731.00,0.9690
6730.00,0.9784
6729.00,0.9876
6728.00,0.9968
6727.00,1.0060
6726.00,1.0153
6725.00,1.0248
6724.00,1.0345
6723.00,1.0444
6722.00,1.0542
6721.00,1.0637
6720.00,1.0728
6719.00,1.0818
6718.00,1.0905
6717.00,1.0990
6716.00,1.1069
6715.00,1.1144
6714.00,1.1217
6713.00,1.1290
6712.00,1.1361
6711.00,1.1431
6710.00,1.1499
6709.00,1.1565
6708.00,1.1629
6707.00,1.1688
6706.00,1.1743
6705.00,1.1793
6704.00,1.1839
6703.00,1.1883
6702.00,1.1923
6701.00,1.1960
6700.00,1.1992
6699.00,1.2018
6698.00,1.2036
6697.00,1.2047
6696.00,1.2054
6695.00,1.2059
6694.00,1.2067
6693.00,1.2075
6692.00,1.2083
6691.00,1.2089
6690.00,1.2093
6689.00,1.2090
6688.00,1.2078
6687.00,1.2058
6686.00,1.2032
6685.00,1.2003
6684.00,1.1972
6683.00,1.1938
6682.00,1.1903
6681.00,1.1867
6680.00,1.1826
6679.00,1.1776
6678.00,1.1718
6677.00,1.1657
6676.00,1.1596
6675.00,1.1533
6674.00,1.1466
6673.00,1.1395
6672.00,1.1322
6671.00,1.1247
6670.00,1.1168
6669.00,1.1088
6668.00,1.1006
6667.00,1.0921
6666.00,1.0834
6665.00,1.0744
6664.00,1.0651
6663.00,1.0554
6662.00,1.0453
6661.00,1.0348
6660.00,1.0241
6659.00,1.0131
6658.00,1.0023
6657.00,0.9914
6656.00,0.9805
6655.00,0.9694
6654.00,0.9585
6653.00,0.9477
6652.00,0.9371
6651.00,0.9267
6650.00,0.9163
6649.00,0.9059
6648.00,0.8956
6647.00,0.8855
6646.00,0.8756
6645.00,0.8657
6644.00,0.8561
6643.00,0.8468
6642.00,0.8381
6641.00,0.8300
6640.00,0.8223
6639.00,0.8150
6638.00,0.8081
6637.00,0.8018
6636.00,0.7960
6635.00,0.7908
6634.00,0.7861
6633.00,0.7821
6632.00,0.7787
6631.00,0.7760
6630.00,0.7739
6629.00,0.7725
6628.00,0.7717
6627.00,0.7718
6626.00,0.7725
6625.00,0.7740
6624.00,0.7761
6623.00,0.7785
6622.00,0.7814
6621.00,0.7849
6620.00,0.7891
6619.00,0.7940
6618.00,0.7996
6617.00,0.8059
6616.00,0.8127
6615.00,0.8197
6614.00,0.8269
6613.00,0.8344
6612.00,0.8422
6611.00,0.8503
6610.00,0.8588
6609.00,0.8678
6608.00,0.8770
6607.00,0.8866
6606.00,0.8965
6605.00,0.9067
6604.00,0.9169
6603.00,0.9271
6602.00,0.9373
6601.00,0.9475
6600.00,0.9575
6599.00,0.9674
6598.00,0.9771
6597.00,0.9870
6596.00,0.9971
6595.00,1.0074
6594.00,1.0177
6593.00,1.0279
6592.00,1.0380
6591.00,1.0479
6590.00,1.0578
6589.00,1.0675
6588.00,1.0770
6587.00,1.0862
6586.00,1.0951
6585.00,1.1039
6584.00,1.1127
6583.00,1.1215
6582.00,1.1302
6581.00,1.1386
6580.00,1.1466
6579.00,1.1542
6578.00,1.1614
6577.00,1.1685
6576.00,1.1753
6575.00,1.1821
6574.00,1.1888
6573.00,1.1953
6572.00,1.2014
6571.00,1.2070
6570.00,1.2120
6569.00,1.2161
6568.00,1.2195
6567.00,1.2224
6566.00,1.2253
6565.00,1.2283
6564.00,1.2311
6563.00,1.2332
6562.00,1.2348
6561.00,1.2362
6560.00,1.2372
6559.00,1.2377
6558.00,1.2375
6557.00,1.2367
6556.00,1.2358
6555.00,1.2350
6554.00,1.2340
6553.00,1.2326
6552.00,1.2306
6551.00,1.2282
6550.00,1.2252
6549.00,1.2215
6548.00,1.2170
6547.00,1.2120
6546.00,1.2067
6545.00,1.2011
6544.00,1.1954
6543.00,1.1894
6542.00,1.1831
6541.00,1.1764
6540.00,1.1692
6539.00,1.1617
6538.00,1.1540
6537.00,1.1459
6536.00,1.1373
6535.00,1.1282
6534.00,1.1189
6533.00,1.1094
6532.00,1.0995
6531.00,1.0891
6530.00,1.0783
6529.00,1.0673
6528.00,1.0563
6527.00,1.0449
6526.00,1.0333
6525.00,1.0215
6524.00,1.0094
6523.00,0.9973
6522.00,0.9855
6521.00,0.9738
6520.00,0.9624
6519.00,0.9509
6518.00,0.9394
6517.00,0.9280
6516.00,0.9165
6515.00,0.9051
6514.00,0.8938
6513.00,0.8829
6512.00,0.8723
6511.00,0.8623
6510.00,0.8528
6509.00,0.8438
6508.00,0.8352
6507.00,0.8270
6506.00,0.8193
6505.00,0.8121
6504.00,0.8054
6503.00,0.7993
6502.00,0.7941
6501.00,0.7896
6500.00,0.7856
6499.00,0.7821
6498.00,0.7794
6497.00,0.7775
6496.00,0.7762
6495.00,0.7756
6494.00,0.7757
6493.00,0.7766
6492.00,0.7783
6491.00,0.7805
6490.00,0.7832
6489.00,0.7867
6488.00,0.7909
6487.00,0.7957
6486.00,0.8010
6485.00,0.8068
6484.00,0.8132
6483.00,0.8202
6482.00,0.8277
6481.00,0.8355
6480.00,0.8437
6479.00,0.8520
6478.00,0.8608
6477.00,0.8698
6476.00,0.8789
6475.00,0.8880
6474.00,0.8973
6473.00,0.9071
6472.00,0.9173
6471.00,0.9277
6470.00,0.9381
6469.00,0.9486
6468.00,0.9590
6467.00,0.9692
6466.00,0.9791
6465.00,0.9890
6464.00,0.9989
6463.00,1.0088
6462.00,1.0189
6461.00,1.0293
6460.00,1.0400
6459.00,1.0505
6458.00,1.0607
6457.00,1.0705
6456.00,1.0801
6455.00,1.0894
6454.00,1.0983
6453.00,1.1070
6452.00,1.1156
6451.00,1.1243
6450.00,1.1329
6449.00,1.1412
6448.00,1.1488
6447.00,1.1560
6446.00,1.1628
6445.00,1.1694
6444.00,1.1755
6443.00,1.1813
6442.00,1.1868
6441.00,1.1924
6440.00,1.1978
6439.00,1.2029
6438.00,1.2075
6437.00,1.2118
6436.00,1.2156
6435.00,1.2189
6434.00,1.2217
6433.00,1.2240
6432.00,1.2258
6431.00,1.2271
6430.00,1.2281
6429.00,1.2290
6428.00,1.2298
6427.00,1.2302
6426.00,1.2301
6425.00,1.2297
6424.00,1.2287
6423.00,1.2271
6422.00,1.2250
6421.00,1.2226
6420.00,1.2201
6419.00,1.2172
6418.00,1.2138
6417.00,1.2099
6416.00,1.2056
6415.00,1.2010
6414.00,1.1962
6413.00,1.1914
6412.00,1.1863
6411.00,1.1807
6410.00,1.1746
6409.00,1.1678
6408.00,1.1605
6407.00,1.1526
6406.00,1.1442
6405.00,1.1358
6404.00,1.1275
6403.00,1.1192
6402.00,1.1105
6401.00,1.1015
6400.00,1.0920
6399.00,1.0822
6398.00,1.0720
6397.00,1.0613
6396.00,1.0502
6395.00,1.0389
6394.00,1.0274
6393.00,1.0158
6392.00,1.0043
6391.00,0.9928
6390.00,0.9815
6389.00,0.9702
6388.00,0.9587
6387.00,0.9472
6386.00,0.9357
6385.00,0.9242
6384.00,0.9126
6383.00,0.9012
6382.00,0.8903
6381.00,0.8798
6380.00,0.8697
6379.00,0.8597
6378.00,0.8498
6377.00,0.8403
6376.00,0.8312
6375.00,0.8226
6374.00,0.8146
6373.00,0.8073
6372.00,0.8008
6371.00,0.7949
6370.00,0.7896
6369.00,0.7848
6368.00,0.7804
6367.00,0.7766
6366.00,0.7737
6365.00,0.7715
6364.00,0.7702
6363.00,0.7697
6362.00,0.7698
6361.00,0.7707
6360.00,0.7723
6359.00,0.7744
6358.00,0.7772
6357.00,0.7807
6356.00,0.7849
6355.00,0.7896
6354.00,0.7949
6353.00,0.8008
6352.00,0.8072
6351.00,0.8143
6350.00,0.8218
6349.00,0.8300
6348.00,0.8385
6347.00,0.8474
6346.00,0.8565
6345.00,0.8657
6344.00,0.8749
6343.00,0.8843
6342.00,0.8940
6341.00,0.9042
6340.00,0.9147
6339.00,0.9253
6338.00,0.9362
6337.00,0.9471
6336.00,0.9581
6335.00,0.9691
6334.00,0.9801
6333.00,0.9912
6332.00,1.0025
6331.00,1.0139
6330.00,1.0251
6329.00,1.0362
6328.00,1.0470
6327.00,1.0577
6326.00,1.0681
6325.00,1.0782
6324.00,1.0882
6323.00,1.0980
6322.00,1.1079
6321.00,1.1176
6320.00,1.1270
6319.00,1.1361
6318.00,1.1450
6317.00,1.1537
6316.00,1.1622
6315.00,1.1703
6314.00,1.1781
6313.00,1.1857
6312.00,1.1930
6311.00,1.2000
6310.00,1.2066
6309.00,1.2126
6308.00,1.2182
6307.00,1.2236
6306.00,1.2292
6305.00,1.2346
6304.00,1.2394
6303.00,1.2437
6302.00,1.2479
6301.00,1.2517
6300.00,1.2550
6299.00,1.2574
6298.00,1.2591
6297.00,1.2603
6296.00,1.2611
6295.00,1.2614
6294.00,1.2613
6293.00,1.2610
6292.00,1.2602
6291.00,1.2592
6290.00,1.2579
6289.00,1.2563
6288.00,1.2542
6287.00,1.2514
6286.00,1.2483
6285.00,1.2451
6284.00,1.2418
6283.00,1.2381
6282.00,1.2338
6281.00,1.2289
6280.00,1.2234
6279.00,1.2173
6278.00,1.2107
6277.00,1.2035
6276.00,1.1961
6275.00,1.1886
6274.00,1.1808
6273.00,1.1726
6272.00,1.1637
6271.00,1.1540
6270.00,1.1437
6269.00,1.1332
6268.00,1.1226
6267.00,1.1120
6266.00,1.1015
6265.00,1.0908
6264.00,1.0797
6263.00,1.0679
6262.00,1.0556
6261.00,1.0431
6260.00,1.0307
6259.00,1.0182
6258.00,1.0058
6257.00,0.9936
6256.00,0.9813
6255.00,0.9689
6254.00,0.9563
6253.00,0.9436
6252.00,0.9310
6251.00,0.9187
6250.00,0.9068
6249.00,0.8953
6248.00,0.8840
6247.00,0.8731
6246.00,0.8625
6245.00,0.8524
6244.00,0.8427
6243.00,0.8333
6242.00,0.8243
6241.00,0.8159
6240.00,0.8081
6239.00,0.8010
6238.00,0.7947
6237.00,0.7891
6236.00,0.7843
6235.00,0.7803
6234.00,0.7771
6233.00,0.7746
6232.00,0.7728
6231.00,0.7716
6230.00,0.7711
6229.00,0.7713
6228.00,0.7722
6227.00,0.7740
6226.00,0.7767
6225.00,0.7802
6224.00,0.7843
6223.00,0.7891
6222.00,0.7945
6221.00,0.8005
6220.00,0.8068
6219.00,0.8137
6218.00,0.8211
6217.00,0.8290
6216.00,0.8373
6215.00,0.8459
6214.00,0.8549
6213.00,0.8642
6212.00,0.8738
6211.00,0.8836
6210.00,0.8937
6209.00,0.9041
6208.00,0.9148
6207.00,0.9257
6206.00,0.9367
6205.00,0.9477
6204.00,0.9586
6203.00,0.9694
6202.00,0.9801
6201.00,0.9909
6200.00,1.0019
6199.00,1.0130
6198.00,1.0243
6197.00,1.0354
6196.00,1.0461
6195.00,1.0562
6194.00,1.0660
6193.00,1.0758
6192.00,1.0859
6191.00,1.0963
6190.00,1.1068
6189.00,1.1170
6188.00,1.1266
6187.00,1.1354
6186.00,1.1436
6185.00,1.1514
6184.00,1.1590
6183.00,1.1664
6182.00,1.1740
6181.00,1.1815
6180.00,1.1887
6179.00,1.1953
6178.00,1.2015
6177.00,1.2075
6176.00,1.2132
6175.00,1.2185
6174.00,1.2233
6173.00,1.2277
6172.00,1.2315
6171.00,1.2349
6170.00,1.2377
6169.00,1.2403
6168.00,1.2425
6167.00,1.2443
6166.00,1.2458
6165.00,1.2472
6164.00,1.2484
6163.00,1.2493
6162.00,1.2497
6161.00,1.2497
6160.00,1.2495
6159.00,1.2489
6158.00,1.2479
6157.00,1.2465
6156.00,1.2446
6155.00,1.2422
6154.00,1.2395
6153.00,1.2363
6152.00,1.2328
6151.00,1.2291
6150.00,1.2252
6149.00,1.2212
6148.00,1.2168
6147.00,1.2116
6146.00,1.2056
6145.00,1.1993
6144.00,1.1928
6143.00,1.1860
6142.00,1.1786
6141.00,1.1706
6140.00,1.1622
6139.00,1.1533
6138.00,1.1438
6137.00,1.1338
6136.00,1.1236
6135.00,1.1133
6134.00,1.1029
6133.00,1.0921
6132.00,1.0809
6131.00,1.0695
6130.00,1.0579
6129.00,1.0460
6128.00,1.0339
6127.00,1.0217
6126.00,1.0094
6125.00,0.9971
6124.00,0.9846
6123.00,0.9720
6122.00,0.9593
6121.00,0.9467
6120.00,0.9340
6119.00,0.9216
6118.00,0.9093
6117.00,0.8975
6116.00,0.8860
6115.00,0.8748
6114.00,0.8638
6113.00,0.8532
6112.00,0.8430
6111.00,0.8331
6110.00,0.8238
6109.00,0.8151
6108.00,0.8071
6107.00,0.7999
6106.00,0.7933
6105.00,0.7875
6104.00,0.7824
6103.00,0.7781
6102.00,0.7745
6101.00,0.7717
6100.00,0.7696
6099.00,0.7683
6098.00,0.7679
6097.00,0.7683
6096.00,0.7695
6095.00,0.7713
6094.00,0.7739
6093.00,0.7772
6092.00,0.7812
6091.00,0.7858
6090.00,0.7910
6089.00,0.7969
6088.00,0.8036
6087.00,0.8109
6086.00,0.8188
6085.00,0.8273
6084.00,0.8362
6083.00,0.8454
6082.00,0.8549
6081.00,0.8647
6080.00,0.8747
6079.00,0.8851
6078.00,0.8959
6077.00,0.9070
6076.00,0.9181
6075.00,0.9292
6074.00,0.9404
6073.00,0.9518
6072.00,0.9632
6071.00,0.9746
6070.00,0.9862
6069.00,0.9981
6068.00,1.0100
6067.00,1.0219
6066.00,1.0336
6065.00,1.0454
6064.00,1.0570
6063.00,1.0683
6062.00,1.0795
6061.00,1.0906
6060.00,1.1017
6059.00,1.1124
6058.00,1.1227
6057.00,1.1328
6056.00,1.1428
6055.00,1.1526
6054.00,1.1621
6053.00,1.1713
6052.00,1.1805
6051.00,1.1896
6050.00,1.1983
6049.00,1.2063
6048.00,1.2138
6047.00,1.2211
6046.00,1.2281
6045.00,1.2348
6044.00,1.2409
6043.00,1.2468
6042.00,1.2525
6041.00,1.2577
6040.00,1.2623
6039.00,1.2662
6038.00,1.2697
6037.00,1.2729
6036.00,1.2757
6035.00,1.2782
6034.00,1.2803
6033.00,1.2820
6032.00,1.2832
6031.00,1.2841
6030.00,1.2848
6029.00,1.2854
6028.00,1.2855
6027.00,1.2850
6026.00,1.2840
6025.00,1.2824
6024.00,1.2802
6023.00,1.2772
6022.00,1.2739
6021.00,1.2704
6020.00,1.2668
6019.00,1.2627
6018.00,1.2579
6017.00,1.2525
6016.00,1.2469
6015.00,1.2409
6014.00,1.2344
6013.00,1.2274
6012.00,1.2201
6011.00,1.2124
6010.00,1.2044
6009.00,1.1960
6008.00,1.1871
6007.00,1.1780
6006.00,1.1686
6005.00,1.1587
6004.00,1.1482
6003.00,1.1369
6002.00,1.1252
6001.00,1.1132
6000.00,1.1009
5999.00,1.0884
5998.00,1.0760
5997.00,1.0636
5996.00,1.0509
5995.00,1.0378
5994.00,1.0244
5993.00,1.0108
5992.00,0.9971
5991.00,0.9833
5990.00,0.9698
5989.00,0.9566
5988.00,0.9437
5987.00,0.9309
5986.00,0.9182
5985.00,0.9056
5984.00,0.8932
5983.00,0.8809
5982.00,0.8690
5981.00,0.8577
5980.00,0.8470
5979.00,0.8369
5978.00,0.8274
5977.00,0.8184
5976.00,0.8100
5975.00,0.8022
5974.00,0.7950
5973.00,0.7885
5972.00,0.7829
5971.00,0.7779
5970.00,0.7739
5969.00,0.7707
5968.00,0.7685
5967.00,0.7673
5966.00,0.7670
5965.00,0.7676
5964.00,0.7690
5963.00,0.7710
5962.00,0.7737
5961.00,0.7772
5960.00,0.7814
5959.00,0.7863
5958.00,0.7919
5957.00,0.7984
5956.00,0.8055
5955.00,0.8132
5954.00,0.8214
5953.00,0.8301
5952.00,0.8393
5951.00,0.8489
5950.00,0.8589
5949.00,0.8691
5948.00,0.8796
5947.00,0.8903
5946.00,0.9011
5945.00,0.9122
5944.00,0.9236
5943.00,0.9354
5942.00,0.9475
5941.00,0.9597
5940.00,0.9720
5939.00,0.9844
5938.00,0.9968
5937.00,1.0091
5936.00,1.0212
5935.00,1.0332
5934.00,1.0452
5933.00,1.0572
5932.00,1.0691
5931.00,1.0809
5930.00,1.0926
5929.00,1.1043
5928.00,1.1159
5927.00,1.1271
5926.00,1.1378
5925.00,1.1483
5924.00,1.1586
5923.00,1.1689
5922.00,1.1788
5921.00,1.1882
5920.00,1.1975
5919.00,1.2068
5918.00,1.2159
5917.00,1.2247
5916.00,1.2330
5915.00,1.2410
5914.00,1.2489
5913.00,1.2563
5912.00,1.2632
5911.00,1.2695
5910.00,1.2754
5909.00,1.2808
5908.00,1.2856
5907.00,1.2899
5906.00,1.2936
5905.00,1.2971
5904.00,1.3002
5903.00,1.3029
5902.00,1.3051
5901.00,1.3068
5900.00,1.3083
5899.00,1.3097
5898.00,1.3108
5897.00,1.3114
5896.00,1.3113
5895.00,1.3108
5894.00,1.3098
5893.00,1.3084
5892.00,1.3062
5891.00,1.3036
5890.00,1.3006
5889.00,1.2970
5888.00,1.2926
5887.00,1.2877
5886.00,1.2827
5885.00,1.2777
5884.00,1.2726
5883.00,1.2673
5882.00,1.2616
5881.00,1.2554
5880.00,1.2485
5879.00,1.2410
5878.00,1.2327
5877.00,1.2238
5876.00,1.2145
5875.00,1.2050
5874.00,1.1953
5873.00,1.1853
5872.00,1.1748
5871.00,1.1638
5870.00,1.1524
5869.00,1.1408
5868.00,1.1291
5867.00,1.1170
5866.00,1.1046
5865.00,1.0918
5864.00,1.0788
5863.00,1.0656
5862.00,1.0524
5861.00,1.0392
5860.00,1.0259
5859.00,1.0127
5858.00,0.9994
5857.00,0.9861
5856.00,0.9726
5855.00,0.9591
5854.00,0.9457
5853.00,0.9327
5852.00,0.9200
5851.00,0.9076
5850.00,0.8956
5849.00,0.8842
5848.00,0.8732
5847.00,0.8627
5846.00,0.8526
5845.00,0.8432
5844.00,0.8342
5843.00,0.8258
5842.00,0.8181
5841.00,0.8112
5840.00,0.8051
5839.00,0.7998
5838.00,0.7954
5837.00,0.7918
5836.00,0.7891
5835.00,0.7873
5834.00,0.7862
5833.00,0.7860
5832.00,0.7865
5831.00,0.7878
5830.00,0.7899
5829.00,0.7928
5828.00,0.7965
5827.00,0.8009
5826.00,0.8062
5825.00,0.8122
5824.00,0.8189
5823.00,0.8260
5822.00,0.8336
5821.00,0.8419
5820.00,0.8507
5819.00,0.8599
5818.00,0.8696
5817.00,0.8797
5816.00,0.8902
5815.00,0.9009
5814.00,0.9117
5813.00,0.9227
5812.00,0.9340
5811.00,0.9455
5810.00,0.9573
5809.00,0.9691
5808.00,0.9810
5807.00,0.9930
5806.00,1.0052
5805.00,1.0173
5804.00,1.0294
5803.00,1.0414
5802.00,1.0535
5801.00,1.0655
5800.00,1.0773
5799.00,1.0889
5798.00,1.1005
5797.00,1.1120
5796.00,1.1234
5795.00,1.1347
5794.00,1.1457
5793.00,1.1567
5792.00,1.1674
5791.00,1.1779
5790.00,1.1880
5789.00,1.1978
5788.00,1.2072
5787.00,1.2164
5786.00,1.2254
5785.00,1.2342
5784.00,1.2426
5783.00,1.2506
5782.00,1.2582
5781.00,1.2654
5780.00,1.2722
5779.00,1.2785
5778.00,1.2846
5777.00,1.2904
5776.00,1.2959
5775.00,1.3009
5774.00,1.3055
5773.00,1.3097
5772.00,1.3136
5771.00,1.3170
5770.00,1.3201
5769.00,1.3228
5768.00,1.3250
5767.00,1.3265
5766.00,1.3274
5765.00,1.3278
5764.00,1.3279
5763.00,1.3276
5762.00,1.3269
5761.00,1.3256
5760.00,1.3237
5759.00,1.3212
5758.00,1.3184
5757.00,1.3155
5756.00,1.3124
5755.00,1.3089
5754.00,1.3049
5753.00,1.3003
5752.00,1.2951
5751.00,1.2893
5750.00,1.2830
5749.00,1.2765
5748.00,1.2696
5747.00,1.2622
5746.00,1.2541
5745.00,1.2454
5744.00,1.2364
5743.00,1.2273
5742.00,1.2182
5741.00,1.2089
5740.00,1.1992
5739.00,1.1889
5738.00,1.1778
5737.00,1.1660
5736.00,1.1536
5735.00,1.1409
5734.00,1.1281
5733.00,1.1153
5732.00,1.1025
5731.00,1.0894
5730.00,1.0758
5729.00,1.0619
5728.00,1.0477
5727.00,1.0333
5726.00,1.0191
5725.00,1.0051
5724.00,0.9913
5723.00,0.9777
5722.00,0.9641
5721.00,0.9506
5720.00,0.9371
5719.00,0.9236
5718.00,0.9103
5717.00,0.8973
5716.00,0.8847
5715.00,0.8726
5714.00,0.8611
5713.00,0.8503
5712.00,0.8402
5711.00,0.8307
5710.00,0.8220
5709.00,0.8140
5708.00,0.8066
5707.00,0.8000
5706.00,0.7943
5705.00,0.7895
5704.00,0.7856
5703.00,0.7827
5702.00,0.7807
5701.00,0.7796
5700.00,0.7794
5699.00,0.7800
5698.00,0.7815
5697.00,0.7839
5696.00,0.7870
5695.00,0.7909
5694.00,0.7956
5693.00,0.8011
5692.00,0.8072
5691.00,0.8142
5690.00,0.8218
5689.00,0.8301
5688.00,0.8388
5687.00,0.8480
5686.00,0.8576
5685.00,0.8677
5684.00,0.8782
5683.00,0.8890
5682.00,0.9002
5681.00,0.9118
5680.00,0.9237
5679.00,0.9359
5678.00,0.9484
5677.00,0.9611
5676.00,0.9738
5675.00,0.9864
5674.00,0.9991
5673.00,1.0119
5672.00,1.0247
5671.00,1.0376
5670.00,1.0506
5669.00,1.0635
5668.00,1.0762
5667.00,1.0886
5666.00,1.1010
5665.00,1.1134
5664.00,1.1255
5663.00,1.1375
5662.00,1.1492
5661.00,1.1606
5660.00,1.1716
5659.00,1.1823
5658.00,1.1929
5657.00,1.2033
5656.00,1.2133
5655.00,1.2228
5654.00,1.2322
5653.00,1.2414
5652.00,1.2505
5651.00,1.2591
5650.00,1.2673
5649.00,1.2754
5648.00,1.2831
5647.00,1.2903
5646.00,1.2969
5645.00,1.3032
5644.00,1.3091
5643.00,1.3145
5642.00,1.3191
5641.00,1.3232
5640.00,1.3269
5639.00,1.3300
5638.00,1.3328
5637.00,1.3352
5636.00,1.3371
5635.00,1.3386
5634.00,1.3395
5633.00,1.3401
5632.00,1.3402
5631.00,1.3398
5630.00,1.3392
5629.00,1.3385
5628.00,1.3376
5627.00,1.3363
5626.00,1.3343
5625.00,1.3318
5624.00,1.3285
5623.00,1.3247
5622.00,1.3205
5621.00,1.3158
5620.00,1.3106
5619.00,1.3047
5618.00,1.2984
5617.00,1.2917
5616.00,1.2846
5615.00,1.2773
5614.00,1.2694
5613.00,1.2611
5612.00,1.2523
5611.00,1.2430
5610.00,1.2333
5609.00,1.2233
5608.00,1.2130
5607.00,1.2022
5606.00,1.1906
5605.00,1.1785
5604.00,1.1658
5603.00,1.1528
5602.00,1.1397
5601.00,1.1266
5600.00,1.1132
5599.00,1.0993
5598.00,1.0849
5597.00,1.0701
5596.00,1.0552
5595.00,1.0404
5594.00,1.0256
5593.00,1.0109
5592.00,0.9962
5591.00,0.9815
5590.00,0.9666
5589.00,0.9518
5588.00,0.9370
5587.00,0.9225
5586.00,0.9085
5585.00,0.8950
5584.00,0.8820
5583.00,0.8695
5582.00,0.8575
5581.00,0.8460
5580.00,0.8350
5579.00,0.8246
5578.00,0.8150
5577.00,0.8063
5576.00,0.7984
5575.00,0.7912
5574.00,0.7850
5573.00,0.7797
5572.00,0.7753
5571.00,0.7718
5570.00,0.7694
5569.00,0.7679
5568.00,0.7675
5567.00,0.7681
5566.00,0.7696
5565.00,0.7721
5564.00,0.7755
5563.00,0.7797
5562.00,0.7848
5561.00,0.7907
5560.00,0.7974
5559.00,0.8048
5558.00,0.8128
5557.00,0.8214
5556.00,0.8306
5555.00,0.8402
5554.00,0.8504
5553.00,0.8610
5552.00,0.8721
5551.00,0.8835
5550.00,0.8952
5549.00,0.9072
5548.00,0.9194
5547.00,0.9318
5546.00,0.9445
5545.00,0.9573
5544.00,0.9701
5543.00,0.9829
5542.00,0.9956
5541.00,1.0083
5540.00,1.0210
5539.00,1.0338
5538.00,1.0467
5537.00,1.0596
5536.00,1.0723
5535.00,1.0847
5534.00,1.0968
5533.00,1.1087
5532.00,1.1203
5531.00,1.1319
5530.00,1.1435
5529.00,1.1550
5528.00,1.1663
5527.00,1.1771
5526.00,1.1876
5525.00,1.1977
5524.00,1.2075
5523.00,1.2169
5522.00,1.2263
5521.00,1.2355
5520.00,1.2443
5519.00,1.2527
5518.00,1.2606
5517.00,1.2681
5516.00,1.2753
5515.00,1.2823
5514.00,1.2890
5513.00,1.2955
5512.00,1.3016
5511.00,1.3070
5510.00,1.3118
5509.00,1.3162
5508.00,1.3204
5507.00,1.3246
5506.00,1.3286
5505.00,1.3324
5504.00,1.3356
5503.00,1.3381
5502.00,1.3398
5501.00,1.3409
5500.00,1.3415
5499.00,1.3419
5498.00,1.3421
5497.00,1.3422
5496.00,1.3420
5495.00,1.3410
5494.00,1.3394
5493.00,1.3373
5492.00,1.3347
5491.00,1.3314
5490.00,1.3275
5489.00,1.3232
5488.00,1.3185
5487.00,1.3134
5486.00,1.3079
5485.00,1.3020
5484.00,1.2958
5483.00,1.2892
5482.00,1.2820
5481.00,1.2741
5480.00,1.2656
5479.00,1.2568
5478.00,1.2475
5477.00,1.2378
5476.00,1.2276
5475.00,1.2171
5474.00,1.2060
5473.00,1.1945
5472.00,1.1825
5471.00,1.1699
5470.00,1.1568
5469.00,1.1431
5468.00,1.1291
5467.00,1.1148
5466.00,1.1004
5465.00,1.0858
5464.00,1.0709
5463.00,1.0555
5462.00,1.0398
5461.00,1.0239
5460.00,1.0080
5459.00,0.9924
5458.00,0.9770
5457.00,0.9619
5456.00,0.9468
5455.00,0.9318
5454.00,0.9170
5453.00,0.9026
5452.00,0.8887
5451.00,0.8753
5450.00,0.8625
5449.00,0.8501
5448.00,0.8385
5447.00,0.8275
5446.00,0.8172
5445.00,0.8079
5444.00,0.7993
5443.00,0.7917
5442.00,0.7848
5441.00,0.7789
5440.00,0.7739
5439.00,0.7701
5438.00,0.7673
5437.00,0.7657
5436.00,0.7652
5435.00,0.7656
5434.00,0.7670
5433.00,0.7693
5432.00,0.7727
5431.00,0.7771
5430.00,0.7824
5429.00,0.7887
5428.00,0.7958
5427.00,0.8036
5426.00,0.8121
5425.00,0.8212
5424.00,0.8310
5423.00,0.8413
5422.00,0.8522
5421.00,0.8636
5420.00,0.8754
5419.00,0.8875
5418.00,0.8999
5417.00,0.9124
5416.00,0.9253
5415.00,0.9386
5414.00,0.9524
5413.00,0.9665
5412.00,0.9807
5411.00,0.9950
5410.00,1.0092
5409.00,1.0233
5408.00,1.0373
5407.00,1.0513
5406.00,1.0652
5405.00,1.0791
5404.00,1.0929
5403.00,1.1064
5402.00,1.1198
5401.00,1.1331
5400.00,1.1463
5399.00,1.1593
5398.00,1.1720
5397.00,1.1844
5396.00,1.1966
5395.00,1.2087
5394.00,1.2207
5393.00,1.2325
5392.00,1.2439
5391.00,1.2547
5390.00,1.2648
5389.00,1.2743
5388.00,1.2833
5387.00,1.2920
5386.00,1.3005
5385.00,1.3086
5384.00,1.3164
5383.00,1.3236
5382.00,1.3306
5381.00,1.3372
5380.00,1.3435
5379.00,1.3494
5378.00,1.3549
5377.00,1.3600
5376.00,1.3644
5375.00,1.3682
5374.00,1.3713
5373.00,1.3738
5372.00,1.3758
5371.00,1.3773
5370.00,1.3784
5369.00,1.3793
5368.00,1.3800
5367.00,1.3803
5366.00,1.3803
5365.00,1.3796
5364.00,1.3783
5363.00,1.3763
5362.00,1.3740
5361.00,1.3713
5360.00,1.3682
5359.00,1.3648
5358.00,1.3610
5357.00,1.3566
5356.00,1.3517
5355.00,1.3460
5354.00,1.3399
5353.00,1.3333
5352.00,1.3261
5351.00,1.3183
5350.00,1.3101
5349.00,1.3015
5348.00,1.2925
5347.00,1.2831
5346.00,1.2731
5345.00,1.2627
5344.00,1.2517
5343.00,1.2401
5342.00,1.2282
5341.00,1.2159
5340.00,1.2033
5339.00,1.1901
5338.00,1.1765
5337.00,1.1624
5336.00,1.1481
5335.00,1.1335
5334.00,1.1184
5333.00,1.1030
5332.00,1.0872
5331.00,1.0712
5330.00,1.0551
5329.00,1.0389
5328.00,1.0225
5327.00,1.0061
5326.00,0.9897
5325.00,0.9735
5324.00,0.9575
5323.00,0.9417
5322.00,0.9261
5321.00,0.9108
5320.00,0.8959
5319.00,0.8815
5318.00,0.8677
5317.00,0.8545
5316.00,0.8420
5315.00,0.8301
5314.00,0.8191
5313.00,0.8090
5312.00,0.7999
5311.00,0.7917
5310.00,0.7845
5309.00,0.7781
5308.00,0.7728
5307.00,0.7684
5306.00,0.7652
5305.00,0.7633
5304.00,0.7626
5303.00,0.7631
5302.00,0.7646
5301.00,0.7670
5300.00,0.7704
5299.00,0.7747
5298.00,0.7799
5297.00,0.7860
5296.00,0.7932
5295.00,0.8011
5294.00,0.8099
5293.00,0.8193
5292.00,0.8294
5291.00,0.8401
5290.00,0.8513
5289.00,0.8631
5288.00,0.8753
5287.00,0.8877
5286.00,0.9004
5285.00,0.9134
5284.00,0.9266
5283.00,0.9402
5282.00,0.9540
5281.00,0.9680
5280.00,0.9822
5279.00,0.9966
5278.00,1.0109
5277.00,1.0254
5276.00,1.0397
5275.00,1.0540
5274.00,1.0683
5273.00,1.0826
5272.00,1.0968
5271.00,1.1109
5270.00,1.1249
5269.00,1.1387
5268.00,1.1522
5267.00,1.1653
5266.00,1.1782
5265.00,1.1908
5264.00,1.2034
5263.00,1.2159
5262.00,1.2283
5261.00,1.2405
5260.00,1.2524
5259.00,1.2637
5258.00,1.2744
5257.00,1.2845
5256.00,1.2942
5255.00,1.3036
5254.00,1.3128
5253.00,1.3218
5252.00,1.3305
5251.00,1.3386
5250.00,1.3460
5249.00,1.3527
5248.00,1.3590
5247.00,1.3647
5246.00,1.3700
5245.00,1.3749
5244.00,1.3796
5243.00,1.3839
5242.00,1.3877
5241.00,1.3910
5240.00,1.3938
5239.00,1.3962
5238.00,1.3980
5237.00,1.3994
5236.00,1.4001
5235.00,1.4004
5234.00,1.4002
5233.00,1.3996
5232.00,1.3988
5231.00,1.3975
5230.00,1.3958
5229.00,1.3936
5228.00,1.3907
5227.00,1.3872
5226.00,1.3833
5225.00,1.3793
5224.00,1.3751
5223.00,1.3704
5222.00,1.3649
5221.00,1.3586
5220.00,1.3516
5219.00,1.3440
5218.00,1.3360
5217.00,1.3276
5216.00,1.3191
5215.00,1.3102
5214.00,1.3008
5213.00,1.2908
5212.00,1.2803
5211.00,1.2692
5210.00,1.2577
5209.00,1.2457
5208.00,1.2331
5207.00,1.2200
5206.00,1.2063
5205.00,1.1921
5204.00,1.1773
5203.00,1.1622
5202.00,1.1469
5201.00,1.1313
5200.00,1.1154
5199.00,1.0992
5198.00,1.0828
5197.00,1.0662
5196.00,1.0496
5195.00,1.0330
5194.00,1.0163
5193.00,0.9995
5192.00,0.9828
5191.00,0.9661
5190.00,0.9495
5189.00,0.9333
5188.00,0.9176
5187.00,0.9025
5186.00,0.8879
5185.00,0.8738
5184.00,0.8603
5183.00,0.8476
5182.00,0.8357
5181.00,0.8246
5180.00,0.8145
5179.00,0.8053
5178.00,0.7971
5177.00,0.7901
5176.00,0.7841
5175.00,0.7793
5174.00,0.7756
5173.00,0.7730
5172.00,0.7715
5171.00,0.7711
5170.00,0.7720
5169.00,0.7740
5168.00,0.7773
5167.00,0.7817
5166.00,0.7871
5165.00,0.7935
5164.00,0.8008
5163.00,0.8089
5162.00,0.8177
5161.00,0.8273
5160.00,0.8376
5159.00,0.8486
5158.00,0.8601
5157.00,0.8723
5156.00,0.8851
5155.00,0.8982
5154.00,0.9118
5153.00,0.9258
5152.00,0.9401
5151.00,0.9546
5150.00,0.9692
5149.00,0.9841
5148.00,0.9991
5147.00,1.0142
5146.00,1.0294
5145.00,1.0446
5144.00,1.0598
5143.00,1.0750
5142.00,1.0901
5141.00,1.1052
5140.00,1.1202
5139.00,1.1350
5138.00,1.1497
5137.00,1.1641
5136.00,1.1783
5135.00,1.1923
5134.00,1.2061
5133.00,1.2197
5132.00,1.2330
5131.00,1.2458
5130.00,1.2583
5129.00,1.2704
5128.00,1.2823
5127.00,1.2937
5126.00,1.3048
5125.00,1.3152
5124.00,1.3251
5123.00,1.3346
5122.00,1.3438
5121.00,1.3529
5120.00,1.3613
5119.00,1.3691
5118.00,1.3762
5117.00,1.3829
5116.00,1.3893
5115.00,1.3954
5114.00,1.4012
5113.00,1.4064
5112.00,1.4108
5111.00,1.4146
5110.00,1.4179
5109.00,1.4211
5108.00,1.4240
5107.00,1.4264
5106.00,1.4282
5105.00,1.4293
5104.00,1.4297
5103.00,1.4296
5102.00,1.4291
5101.00,1.4284
5100.00,1.4274
5099.00,1.4260
5098.00,1.4241
5097.00,1.4217
5096.00,1.4187
5095.00,1.4151
5094.00,1.4108
5093.00,1.4061
5092.00,1.4011
5091.00,1.3956
5090.00,1.3897
5089.00,1.3833
5088.00,1.3766
5087.00,1.3694
5086.00,1.3617
5085.00,1.3535
5084.00,1.3448
5083.00,1.3355
5082.00,1.3257
5081.00,1.3155
5080.00,1.3048
5079.00,1.2934
5078.00,1.2813
5077.00,1.2685
5076.00,1.2552
5075.00,1.2415
5074.00,1.2273
5073.00,1.2128
5072.00,1.1978
5071.00,1.1823
5070.00,1.1665
5069.00,1.1504
5068.00,1.1340
5067.00,1.1172
5066.00,1.1000
5065.00,1.0825
5064.00,1.0647
5063.00,1.0468
5062.00,1.0289
5061.00,1.0110
5060.00,0.9932
5059.00,0.9755
5058.00,0.9580
5057.00,0.9408
5056.00,0.9239
5055.00,0.9075
5054.00,0.8915
5053.00,0.8762
5052.00,0.8616
5051.00,0.8478
5050.00,0.8348
5049.00,0.8227
5048.00,0.8115
5047.00,0.8012
5046.00,0.7921
5045.00,0.7841
5044.00,0.7772
5043.00,0.7715
5042.00,0.7671
5041.00,0.7639
5040.00,0.7620
5039.00,0.7613
5038.00,0.7618
5037.00,0.7636
5036.00,0.7666
5035.00,0.7708
5034.00,0.7761
5033.00,0.7826
5032.00,0.7900
5031.00,0.7983
5030.00,0.8075
5029.00,0.8177
5028.00,0.8285
5027.00,0.8401
5026.00,0.8523
5025.00,0.8651
5024.00,0.8784
5023.00,0.8922
5022.00,0.9064
5021.00,0.9209
5020.00,0.9357
5019.00,0.9508
5018.00,0.9661
5017.00,0.9817
5016.00,0.9976
5015.00,1.0136
5014.00,1.0296
5013.00,1.0456
5012.00,1.0614
5011.00,1.0773
5010.00,1.0931
5009.00,1.1090
5008.00,1.1248
5007.00,1.1405
5006.00,1.1561
5005.00,1.1714
5004.00,1.1865
5003.00,1.2012
5002.00,1.2156
5001.00,1.2297
5000.00,1.2435
4999.00,1.2570
4998.00,1.2702
4997.00,1.2831
4996.00,1.2955
4995.00,1.3074
4994.00,1.3189
4993.00,1.3300
4992.00,1.3409
4991.00,1.3515
4990.00,1.3615
4989.00,1.3708
4988.00,1.3793
4987.00,1.3871
4986.00,1.3945
4985.00,1.4018
4984.00,1.4089
4983.00,1.4157
4982.00,1.4218
4981.00,1.4273
4980.00,1.4321
4979.00,1.4364
4978.00,1.4404
4977.00,1.4440
4976.00,1.4473
4975.00,1.4501
4974.00,1.4523
4973.00,1.4538
4972.00,1.4548
4971.00,1.4553
4970.00,1.4553
4969.00,1.4548
4968.00,1.4538
4967.00,1.4522
4966.00,1.4500
4965.00,1.4472
4964.00,1.4440
4963.00,1.4406
4962.00,1.4369
4961.00,1.4328
4960.00,1.4282
4959.00,1.4230
4958.00,1.4171
4957.00,1.4106
4956.00,1.4037
4955.00,1.3963
4954.00,1.3885
4953.00,1.3803
4952.00,1.3717
4951.00,1.3625
4950.00,1.3527
4949.00,1.3421
4948.00,1.3309
4947.00,1.3191
4946.00,1.3068
4945.00,1.2940
4944.00,1.2807
4943.00,1.2668
4942.00,1.2524
4941.00,1.2373
4940.00,1.2218
4939.00,1.2057
4938.00,1.1892
4937.00,1.1723
4936.00,1.1550
4935.00,1.1374
4934.00,1.1195
4933.00,1.1014
4932.00,1.0831
4931.00,1.0646
4930.00,1.0460
4929.00,1.0273
4928.00,1.0086
4927.00,0.9900
4926.00,0.9717
4925.00,0.9537
4924.00,0.9361
4923.00,0.9190
4922.00,0.9023
4921.00,0.8862
4920.00,0.8707
4919.00,0.8560
4918.00,0.8422
4917.00,0.8294
4916.00,0.8175
4915.00,0.8067
4914.00,0.7970
4913.00,0.7885
4912.00,0.7813
4911.00,0.7754
4910.00,0.7709
4909.00,0.7677
4908.00,0.7659
4907.00,0.7654
4906.00,0.7662
4905.00,0.7683
4904.00,0.7718
4903.00,0.7765
4902.00,0.7824
4901.00,0.7894
4900.00,0.7976
4899.00,0.8068
4898.00,0.8169
4897.00,0.8278
4896.00,0.8396
4895.00,0.8521
4894.00,0.8653
4893.00,0.8791
4892.00,0.8935
4891.00,0.9083
4890.00,0.9235
4889.00,0.9391
4888.00,0.9551
4887.00,0.9712
4886.00,0.9876
4885.00,1.0041
4884.00,1.0207
4883.00,1.0374
4882.00,1.0543
4881.00,1.0713
4880.00,1.0884
4879.00,1.1052
4878.00,1.1219
4877.00,1.1384
4876.00,1.1547
4875.00,1.1709
4874.00,1.1869
4873.00,1.2026
4872.00,1.2181
4871.00,1.2333
4870.00,1.2484
4869.00,1.2632
4868.00,1.2775
4867.00,1.2913
4866.00,1.3046
4865.00,1.3176
4864.00,1.3302
4863.00,1.3424
4862.00,1.3542
4861.00,1.3655
4860.00,1.3762
4859.00,1.3864
4858.00,1.3961
4857.00,1.4053
4856.00,1.4139
4855.00,1.4219
4854.00,1.4293
4853.00,1.4363
4852.00,1.4427
4851.00,1.4487
4850.00,1.4543
4849.00,1.4596
4848.00,1.4647
4847.00,1.4693
4846.00,1.4735
4845.00,1.4769
4844.00,1.4797
4843.00,1.4817
4842.00,1.4834
4841.00,1.4848
4840.00,1.4861
4839.00,1.4871
4838.00,1.4875
4837.00,1.4870
4836.00,1.4857
4835.00,1.4834
4834.00,1.4805
4833.00,1.4772
4832.00,1.4738
4831.00,1.4701
4830.00,1.4662
4829.00,1.4618
4828.00,1.4567
4827.00,1.4511
4826.00,1.4449
4825.00,1.4384
4824.00,1.4315
4823.00,1.4239
4822.00,1.4158
4821.00,1.4072
4820.00,1.3979
4819.00,1.3881
4818.00,1.3775
4817.00,1.3664
4816.00,1.3547
4815.00,1.3425
4814.00,1.3299
4813.00,1.3171
4812.00,1.3037
4811.00,1.2895
4810.00,1.2747
4809.00,1.2593
4808.00,1.2433
4807.00,1.2267
4806.00,1.2097
4805.00,1.1922
4804.00,1.1743
4803.00,1.1560
4802.00,1.1373
4801.00,1.1183
4800.00,1.0989
4799.00,1.0792
4798.00,1.0593
4797.00,1.0393
4796.00,1.0194
4795.00,0.9997
4794.00,0.9801
4793.00,0.9609
4792.00,0.9421
4791.00,0.9238
4790.00,0.9060
4789.00,0.8888
4788.00,0.8723
4787.00,0.8566
4786.00,0.8417
4785.00,0.8279
4784.00,0.8152
4783.00,0.8036
4782.00,0.7934
4781.00,0.7845
4780.00,0.7770
4779.00,0.7709
4778.00,0.7662
4777.00,0.7630
4776.00,0.7612
4775.00,0.7610
4774.00,0.7623
4773.00,0.7650
4772.00,0.7690
4771.00,0.7744
4770.00,0.7811
4769.00,0.7889
4768.00,0.7979
4767.00,0.8079
4766.00,0.8188
4765.00,0.8308
4764.00,0.8436
4763.00,0.8571
4762.00,0.8713
4761.00,0.8861
4760.00,0.9015
4759.00,0.9173
4758.00,0.9335
4757.00,0.9500
4756.00,0.9669
4755.00,0.9839
4754.00,1.0013
4753.00,1.0188
4752.00,1.0364
4751.00,1.0541
4750.00,1.0717
4749.00,1.0893
4748.00,1.1070
4747.00,1.1247
4746.00,1.1424
4745.00,1.1600
4744.00,1.1774
4743.00,1.1944
4742.00,1.2112
4741.00,1.2277
4740.00,1.2439
4739.00,1.2598
4738.00,1.2753
4737.00,1.2906
4736.00,1.3055
4735.00,1.3201
4734.00,1.3342
4733.00,1.3478
4732.00,1.3607
4731.00,1.3731
4730.00,1.3849
4729.00,1.3963
4728.00,1.4073
4727.00,1.4179
4726.00,1.4280
4725.00,1.4377
4724.00,1.4468
4723.00,1.4554
4722.00,1.4633
4721.00,1.4707
4720.00,1.4773
4719.00,1.4834
4718.00,1.4892
4717.00,1.4949
4716.00,1.5002
4715.00,1.5050
4714.00,1.5091
4713.00,1.5124
4712.00,1.5151
4711.00,1.5172
4710.00,1.5188
4709.00,1.5200
4708.00,1.5207
4707.00,1.5208
4706.00,1.5204
4705.00,1.5195
4704.00,1.5180
4703.00,1.5160
4702.00,1.5137
4701.00,1.5114
4700.00,1.5089
4699.00,1.5059
4698.00,1.5020
4697.00,1.4973
4696.00,1.4921
4695.00,1.4865
4694.00,1.4808
4693.00,1.4747
4692.00,1.4681
4691.00,1.4606
4690.00,1.4524
4689.00,1.4435
4688.00,1.4342
4687.00,1.4243
4686.00,1.4139
4685.00,1.4030
4684.00,1.3915
4683.00,1.3795
4682.00,1.3670
4681.00,1.3540
4680.00,1.3405
4679.00,1.3265
4678.00,1.3119
4677.00,1.2968
4676.00,1.2811
4675.00,1.2649
4674.00,1.2482
4673.00,1.2311
4672.00,1.2134
4671.00,1.1953
4670.00,1.1767
4669.00,1.1577
4668.00,1.1384
4667.00,1.1187
4666.00,1.0988
4665.00,1.0788
4664.00,1.0587
4663.00,1.0385
4662.00,1.0184
4661.00,0.9984
4660.00,0.9787
4659.00,0.9594
4658.00,0.9405
4657.00,0.9223
4656.00,0.9046
4655.00,0.8877
4654.00,0.8717
4653.00,0.8567
4652.00,0.8428
4651.00,0.8301
4650.00,0.8187
4649.00,0.8087
4648.00,0.8000
4647.00,0.7928
4646.00,0.7872
4645.00,0.7832
4644.00,0.7808
4643.00,0.7800
4642.00,0.7808
4641.00,0.7832
4640.00,0.7870
4639.00,0.7922
4638.00,0.7988
4637.00,0.8068
4636.00,0.8160
4635.00,0.8264
4634.00,0.8380
4633.00,0.8505
4632.00,0.8638
4631.00,0.8780
4630.00,0.8928
4629.00,0.9083
4628.00,0.9243
4627.00,0.9408
4626.00,0.9577
4625.00,0.9750
4624.00,0.9926
4623.00,1.0105
4622.00,1.0287
4621.00,1.0471
4620.00,1.0656
4619.00,1.0841
4618.00,1.1026
4617.00,1.1210
4616.00,1.1393
4615.00,1.1574
4614.00,1.1755
4613.00,1.1935
4612.00,1.2113
4611.00,1.2289
4610.00,1.2463
4609.00,1.2633
4608.00,1.2800
4607.00,1.2962
4606.00,1.3120
4605.00,1.3272
4604.00,1.3419
4603.00,1.3562
4602.00,1.3702
4601.00,1.3839
4600.00,1.3971
4599.00,1.4098
4598.00,1.4219
4597.00,1.4335
4596.00,1.4445
4595.00,1.4550
4594.00,1.4647
4593.00,1.4740
4592.00,1.4828
4591.00,1.4913
4590.00,1.4994
4589.00,1.5070
4588.00,1.5138
4587.00,1.5200
4586.00,1.5254
4585.00,1.5302
4584.00,1.5347
4583.00,1.5389
4582.00,1.5429
4581.00,1.5466
4580.00,1.5497
4579.00,1.5523
4578.00,1.5542
4577.00,1.5554
4576.00,1.5559
4575.00,1.5558
4574.00,1.5554
4573.00,1.5545
4572.00,1.5533
4571.00,1.5515
4570.00,1.5491
4569.00,1.5460
4568.00,1.5423
4567.00,1.5384
4566.00,1.5342
4565.00,1.5297
4564.00,1.5248
4563.00,1.5191
4562.00,1.5126
4561.00,1.5053
4560.00,1.4974
4559.00,1.4891
4558.00,1.4806
4557.00,1.4716
4556.00,1.4621
4555.00,1.4518
4554.00,1.4408
4553.00,1.4292
4552.00,1.4172
4551.00,1.4048
4550.00,1.3917
4549.00,1.3779
4548.00,1.3633
4547.00,1.3481
4546.00,1.3323
4545.00,1.3160
4544.00,1.2991
4543.00,1.2814
4542.00,1.2631
4541.00,1.2443
4540.00,1.2250
4539.00,1.2052
4538.00,1.1851
4537.00,1.1645
4536.00,1.1434
4535.00,1.1220
4534.00,1.1003
4533.00,1.0784
4532.00,1.0565
4531.00,1.0347
4530.00,1.0130
4529.00,0.9917
4528.00,0.9707
4527.00,0.9502
4526.00,0.9304
4525.00,0.9112
4524.00,0.8929
4523.00,0.8756
4522.00,0.8592
4521.00,0.8440
4520.00,0.8300
4519.00,0.8174
4518.00,0.8063
4517.00,0.7968
4516.00,0.7887
4515.00,0.7823
4514.00,0.7775
4513.00,0.7745
4512.00,0.7733
4511.00,0.7737
4510.00,0.7758
4509.00,0.7795
4508.00,0.7849
4507.00,0.7918
4506.00,0.8001
4505.00,0.8098
4504.00,0.8207
4503.00,0.8328
4502.00,0.8460
4501.00,0.8601
4500.00,0.8751
4499.00,0.8907
4498.00,0.9071
4497.00,0.9240
4496.00,0.9415
4495.00,0.9594
4494.00,0.9778
4493.00,0.9965
4492.00,1.0155
4491.00,1.0348
4490.00,1.0542
4489.00,1.0738
4488.00,1.0934
4487.00,1.1129
4486.00,1.1323
4485.00,1.1516
4484.00,1.1709
4483.00,1.1901
4482.00,1.2091
4481.00,1.2281
4480.00,1.2468
4479.00,1.2652
4478.00,1.2833
4477.00,1.3010
4476.00,1.3183
4475.00,1.3352
4474.00,1.3515
4473.00,1.3675
4472.00,1.3831
4471.00,1.3982
4470.00,1.4127
4469.00,1.4266
4468.00,1.4397
4467.00,1.4522
4466.00,1.4641
4465.00,1.4757
4464.00,1.4871
4463.00,1.4980
4462.00,1.5083
4461.00,1.5179
4460.00,1.5268
4459.00,1.5348
4458.00,1.5422
4457.00,1.5490
4456.00,1.5555
4455.00,1.5618
4454.00,1.5677
4453.00,1.5731
4452.00,1.5780
4451.00,1.5821
4450.00,1.5856
4449.00,1.5886
4448.00,1.5912
4447.00,1.5933
4446.00,1.5949
4445.00,1.5960
4444.00,1.5967
4443.00,1.5967
4442.00,1.5961
4441.00,1.5948
4440.00,1.5928
4439.00,1.5903
4438.00,1.5874
4437.00,1.5841
4436.00,1.5805
4435.00,1.5767
4434.00,1.5724
4433.00,1.5675
4432.00,1.5620
4431.00,1.5560
4430.00,1.5494
4429.00,1.5423
4428.00,1.5345
4427.00,1.5260
4426.00,1.5168
4425.00,1.5073
4424.00,1.4972
4423.00,1.4866
4422.00,1.4754
4421.00,1.4635
4420.00,1.4512
4419.00,1.4383
4418.00,1.4248
4417.00,1.4105
4416.00,1.3954
4415.00,1.3797
4414.00,1.3634
4413.00,1.3465
4412.00,1.3290
4411.00,1.3109
4410.00,1.2923
4409.00,1.2733
4408.00,1.2538
4407.00,1.2340
4406.00,1.2137
4405.00,1.1931
4404.00,1.1723
4403.00,1.1513
4402.00,1.1303
4401.00,1.1094
4400.00,1.0886
4399.00,1.0681
4398.00,1.0480
4397.00,1.0284
4396.00,1.0094
4395.00,0.9911
4394.00,0.9736
4393.00,0.9571
4392.00,0.9417
4391.00,0.9273
4390.00,0.9141
4389.00,0.9022
4388.00,0.8918
4387.00,0.8827
4386.00,0.8751
4385.00,0.8691
4384.00,0.8645
4383.00,0.8616
4382.00,0.8603
4381.00,0.8605
4380.00,0.8623
4379.00,0.8656
4378.00,0.8703
4377.00,0.8762
4376.00,0.8834
4375.00,0.8918
4374.00,0.9012
4373.00,0.9116
4372.00,0.9229
4371.00,0.9350
4370.00,0.9478
4369.00,0.9612
4368.00,0.9753
4367.00,0.9898
4366.00,1.0047
4365.00,1.0200
4364.00,1.0357
4363.00,1.0518
4362.00,1.0682
4361.00,1.0848
4360.00,1.1016
4359.00,1.1187
4358.00,1.1360
4357.00,1.1537
4356.00,1.1715
4355.00,1.1893
4354.00,1.2069
4353.00,1.2245
4352.00,1.2420
4351.00,1.2596
4350.00,1.2772
4349.00,1.2946
4348.00,1.3116
4347.00,1.3283
4346.00,1.3447
4345.00,1.3609
4344.00,1.3770
4343.00,1.3928
4342.00,1.4083
4341.00,1.4233
4340.00,1.4376
4339.00,1.4515
4338.00,1.4648
4337.00,1.4777
4336.00,1.4903
4335.00,1.5026
4334.00,1.5146
4333.00,1.5262
4332.00,1.5372
4331.00,1.5474
4330.00,1.5569
4329.00,1.5658
4328.00,1.5744
4327.00,1.5826
4326.00,1.5903
4325.00,1.5973
4324.00,1.6036
4323.00,1.6093
4322.00,1.6147
4321.00,1.6201
4320.00,1.6252
4319.00,1.6299
4318.00,1.6338
4317.00,1.6368
4316.00,1.6392
4315.00,1.6410
4314.00,1.6424
4313.00,1.6434
4312.00,1.6438
4311.00,1.6435
4310.00,1.6427
4309.00,1.6415
4308.00,1.6398
4307.00,1.6379
4306.00,1.6356
4305.00,1.6330
4304.00,1.6297
4303.00,1.6257
4302.00,1.6210
4301.00,1.6158
4300.00,1.6103
4299.00,1.6043
4298.00,1.5979
4297.00,1.5908
4296.00,1.5830
4295.00,1.5747
4294.00,1.5660
4293.00,1.5569
4292.00,1.5472
4291.00,1.5369
4290.00,1.5261
4289.00,1.5148
4288.00,1.5032
4287.00,1.4912
4286.00,1.4787
4285.00,1.4655
4284.00,1.4517
4283.00,1.4370
4282.00,1.4217
4281.00,1.4058
4280.00,1.3893
4279.00,1.3723
4278.00,1.3547
4277.00,1.3365
4276.00,1.3178
4275.00,1.2985
4274.00,1.2787
4273.00,1.2584
4272.00,1.2376
4271.00,1.2164
4270.00,1.1949
4269.00,1.1733
4268.00,1.1516
4267.00,1.1300
4266.00,1.1083
4265.00,1.0867
4264.00,1.0652
4263.00,1.0439
4262.00,1.0231
4261.00,1.0029
4260.00,0.9834
4259.00,0.9646
4258.00,0.9465
4257.00,0.9295
4256.00,0.9137
4255.00,0.8992
4254.00,0.8862
4253.00,0.8747
4252.00,0.8649
4251.00,0.8569
4250.00,0.8507
4249.00,0.8464
4248.00,0.8440
4247.00,0.8436
4246.00,0.8450
4245.00,0.8482
4244.00,0.8533
4243.00,0.8602
4242.00,0.8687
4241.00,0.8787
4240.00,0.8902
4239.00,0.9031
4238.00,0.9172
4237.00,0.9324
4236.00,0.9486
4235.00,0.9655
4234.00,0.9832
4233.00,1.0015
4232.00,1.0204
4231.00,1.0397
4230.00,1.0595
4229.00,1.0797
4228.00,1.1002
4227.00,1.1208
4226.00,1.1414
4225.00,1.1620
4224.00,1.1825
4223.00,1.2030
4222.00,1.2236
4221.00,1.2442
4220.00,1.2647
4219.00,1.2849
4218.00,1.3047
4217.00,1.3240
4216.00,1.3428
4215.00,1.3614
4214.00,1.3796
4213.00,1.3973
4212.00,1.4145
4211.00,1.4311
4210.00,1.4475
4209.00,1.4636
4208.00,1.4794
4207.00,1.4946
4206.00,1.5089
4205.00,1.5224
4204.00,1.5353
4203.00,1.5478
4202.00,1.5601
4201.00,1.5719
4200.00,1.5832
4199.00,1.5936
4198.00,1.6035
4197.00,1.6129
4196.00,1.6219
4195.00,1.6304
4194.00,1.6384
4193.00,1.6459
4192.00,1.6527
4191.00,1.6590
4190.00,1.6645
4189.00,1.6693
4188.00,1.6733
4187.00,1.6768
4186.00,1.6799
4185.00,1.6829
4184.00,1.6858
4183.00,1.6883
4182.00,1.6903
4181.00,1.6915
4180.00,1.6918
4179.00,1.6914
4178.00,1.6907
4177.00,1.6896
4176.00,1.6882
4175.00,1.6862
4174.00,1.6836
4173.00,1.6805
4172.00,1.6771
4171.00,1.6734
4170.00,1.6694
4169.00,1.6648
4168.00,1.6593
4167.00,1.6529
4166.00,1.6458
4165.00,1.6383
4164.00,1.6307
4163.00,1.6228
4162.00,1.6146
4161.00,1.6058
4160.00,1.5962
4159.00,1.5860
4158.00,1.5752
4157.00,1.5639
4156.00,1.5520
4155.00,1.5394
4154.00,1.5262
4153.00,1.5124
4152.00,1.4979
4151.00,1.4825
4150.00,1.4661
4149.00,1.4490
4148.00,1.4314
4147.00,1.4133
4146.00,1.3945
4145.00,1.3749
4144.00,1.3546
4143.00,1.3338
4142.00,1.3126
4141.00,1.2909
4140.00,1.2685
4139.00,1.2456
4138.00,1.2221
4137.00,1.1983
4136.00,1.1744
4135.00,1.1505
4134.00,1.1267
4133.00,1.1031
4132.00,1.0799
4131.00,1.0571
4130.00,1.0349
4129.00,1.0134
4128.00,0.9928
4127.00,0.9732
4126.00,0.9548
4125.00,0.9376
4124.00,0.9217
4123.00,0.9074
4122.00,0.8946
4121.00,0.8836
4120.00,0.8744
4119.00,0.8671
4118.00,0.8618
4117.00,0.8585
4116.00,0.8574
4115.00,0.8582
4114.00,0.8610
4113.00,0.8657
4112.00,0.8722
4111.00,0.8804
4110.00,0.8903
4109.00,0.9018
4108.00,0.9146
4107.00,0.9287
4106.00,0.9439
4105.00,0.9601
4104.00,0.9772
4103.00,0.9950
4102.00,1.0136
4101.00,1.0329
4100.00,1.0528
4099.00,1.0731
4098.00,1.0938
4097.00,1.1147
4096.00,1.1358
4095.00,1.1572
4094.00,1.1787
4093.00,1.2004
4092.00,1.2221
4091.00,1.2438
4090.00,1.2653
4089.00,1.2867
4088.00,1.3078
4087.00,1.3285
4086.00,1.3489
4085.00,1.3690
4084.00,1.3887
4083.00,1.4080
4082.00,1.4270
4081.00,1.4455
4080.00,1.4637
4079.00,1.4813
4078.00,1.4984
4077.00,1.5149
4076.00,1.5307
4075.00,1.5460
4074.00,1.5605
4073.00,1.5744
4072.00,1.5877
4071.00,1.6003
4070.00,1.6124
4069.00,1.6239
4068.00,1.6348
4067.00,1.6452
4066.00,1.6550
4065.00,1.6643
4064.00,1.6728
4063.00,1.6806
4062.00,1.6875
4061.00,1.6937
4060.00,1.6994
4059.00,1.7048
4058.00,1.7102
4057.00,1.7155
4056.00,1.7204
4055.00,1.7246
4054.00,1.7279
4053.00,1.7307
4052.00,1.7329
4051.00,1.7346
4050.00,1.7357
4049.00,1.7362
4048.00,1.7362
4047.00,1.7358
4046.00,1.7348
4045.00,1.7334
4044.00,1.7315
4043.00,1.7293
4042.00,1.7267
4041.00,1.7237
4040.00,1.7200
4039.00,1.7156
4038.00,1.7104
4037.00,1.7046
4036.00,1.6981
4035.00,1.6911
4034.00,1.6837
4033.00,1.6759
4032.00,1.6676
4031.00,1.6585
4030.00,1.6487
4029.00,1.6383
4028.00,1.6274
4027.00,1.6159
4026.00,1.6038
4025.00,1.5910
4024.00,1.5777
4023.00,1.5637
4022.00,1.5491
4021.00,1.5338
4020.00,1.5179
4019.00,1.5014
4018.00,1.4843
4017.00,1.4665
4016.00,1.4481
4015.00,1.4291
4014.00,1.4095
4013.00,1.3893
4012.00,1.3683
4011.00,1.3465
4010.00,1.3240
4009.00,1.3009
4008.00,1.2773
4007.00,1.2533
4006.00,1.2289
4005.00,1.2041
4004.00,1.1790
4003.00,1.1537
4002.00,1.1283
4001.00,1.1030
4000.00,1.0781
3999.00,1.0538
3998.00,1.0301
3997.00,1.0073
3996.00,0.9855
3995.00,0.9648
3994.00,0.9455
3993.00,0.9277
3992.00,0.9117
3991.00,0.8976
3990.00,0.8856
3989.00,0.8756
3988.00,0.8679
3987.00,0.8625
3986.00,0.8594
3985.00,0.8587
3984.00,0.8602
3983.00,0.8639
3982.00,0.8698
3981.00,0.8778
3980.00,0.8876
3979.00,0.8993
3978.00,0.9125
3977.00,0.9271
3976.00,0.9431
3975.00,0.9603
3974.00,0.9785
3973.00,0.9976
3972.00,1.0174
3971.00,1.0379
3970.00,1.0590
3969.00,1.0807
3968.00,1.1028
3967.00,1.1252
3966.00,1.1479
3965.00,1.1707
3964.00,1.1938
3963.00,1.2170
3962.00,1.2404
3961.00,1.2637
3960.00,1.2868
3959.00,1.3097
3958.00,1.3323
3957.00,1.3545
3956.00,1.3764
3955.00,1.3977
3954.00,1.4185
3953.00,1.4387
3952.00,1.4583
3951.00,1.4773
3950.00,1.4958
3949.00,1.5141
3948.00,1.5321
3947.00,1.5497
3946.00,1.5666
3945.00,1.5827
3944.00,1.5980
3943.00,1.6126
3942.00,1.6266
3941.00,1.6399
3940.00,1.6526
3939.00,1.6651
3938.00,1.6770
3937.00,1.6882
3936.00,1.6984
3935.00,1.7077
3934.00,1.7165
3933.00,1.7251
3932.00,1.7335
3931.00,1.7418
3930.00,1.7495
3929.00,1.7565
3928.00,1.7626
3927.00,1.7678
3926.00,1.7722
3925.00,1.7761
3924.00,1.7798
3923.00,1.7830
3922.00,1.7856
3921.00,1.7875
3920.00,1.7890
3919.00,1.7904
3918.00,1.7917
3917.00,1.7926
3916.00,1.7928
3915.00,1.7924
3914.00,1.7911
3913.00,1.7892
3912.00,1.7867
3911.00,1.7837
3910.00,1.7802
3909.00,1.7764
3908.00,1.7722
3907.00,1.7676
3906.00,1.7623
3905.00,1.7562
3904.00,1.7496
3903.00,1.7427
3902.00,1.7353
3901.00,1.7271
3900.00,1.7183
3899.00,1.7087
3898.00,1.6984
3897.00,1.6874
3896.00,1.6757
3895.00,1.6635
3894.00,1.6505
3893.00,1.6366
3892.00,1.6218
3891.00,1.6062
3890.00,1.5901
3889.00,1.5738
3888.00,1.5571
3887.00,1.5395
3886.00,1.5205
3885.00,1.5001
3884.00,1.4790
3883.00,1.4574
3882.00,1.4350
3881.00,1.4117
3880.00,1.3870
3879.00,1.3615
3878.00,1.3356
3877.00,1.3098
3876.00,1.2836
3875.00,1.2567
3874.00,1.2289
3873.00,1.2009
3872.00,1.1728
3871.00,1.1443
3870.00,1.1151
3869.00,1.0863
3868.00,1.0588
3867.00,1.0329
3866.00,1.0083
3865.00,0.9850
3864.00,0.9626
3863.00,0.9412
3862.00,0.9213
3861.00,0.9038
3860.00,0.8890
3859.00,0.8771
3858.00,0.8681
3857.00,0.8621
3856.00,0.8593
3855.00,0.8593
3854.00,0.8616
3853.00,0.8654
3852.00,0.8705
3851.00,0.8767
3850.00,0.8841
3849.00,0.8938
3848.00,0.9057
3847.00,0.9191
3846.00,0.9341
3845.00,0.9511
3844.00,0.9704
3843.00,0.9912
3842.00,1.0128
3841.00,1.0347
3840.00,1.0571
3839.00,1.0808
3838.00,1.1066
3837.00,1.1339
3836.00,1.1616
3835.00,1.1885
3834.00,1.2143
3833.00,1.2395
3832.00,1.2647
3831.00,1.2899
3830.00,1.3149
3829.00,1.3394
3828.00,1.3634
3827.00,1.3871
3826.00,1.4106
3825.00,1.4332
3824.00,1.4546
3823.00,1.4752
3822.00,1.4966
3821.00,1.5195
3820.00,1.5429
3819.00,1.5645
3818.00,1.5836
3817.00,1.6017
3816.00,1.6204
3815.00,1.6392
3814.00,1.6568
3813.00,1.6728
3812.00,1.6872
3811.00,1.7007
3810.00,1.7131
3809.00,1.7243
3808.00,1.7352
3807.00,1.7464
3806.00,1.7576
3805.00,1.7679
3804.00,1.7765
3803.00,1.7843
3802.00,1.7923
3801.00,1.8001
3800.00,1.8068
3799.00,1.8120
3798.00,1.8165
3797.00,1.8213
3796.00,1.8262
3795.00,1.8301
3794.00,1.8331
3793.00,1.8355
3792.00,1.8376
3791.00,1.8392
3790.00,1.8400
3789.00,1.8399
3788.00,1.8393
3787.00,1.8386
3786.00,1.8378
3785.00,1.8364
3784.00,1.8340
3783.00,1.8305
3782.00,1.8262
3781.00,1.8215
3780.00,1.8168
3779.00,1.8120
3778.00,1.8069
3777.00,1.8010
3776.00,1.7941
3775.00,1.7868
3774.00,1.7795
3773.00,1.7721
3772.00,1.7641
3771.00,1.7556
3770.00,1.7468
3769.00,1.7375
3768.00,1.7272
3767.00,1.7161
3766.00,1.7045
3765.00,1.6926
3764.00,1.6803
3763.00,1.6675
3762.00,1.6537
3761.00,1.6387
3760.00,1.6223
3759.00,1.6048
3758.00,1.5864
3757.00,1.5675
3756.00,1.5482
3755.00,1.5285
3754.00,1.5081
3753.00,1.4863
3752.00,1.4625
3751.00,1.4363
3750.00,1.4078
3749.00,1.3785
3748.00,1.3501
3747.00,1.3230
3746.00,1.2956
3745.00,1.2655
3744.00,1.2323
3743.00,1.1986
3742.00,1.1670
3741.00,1.1376
3740.00,1.1097
3739.00,1.0822
3738.00,1.0545
3737.00,1.0270
3736.00,1.0008
3735.00,0.9767
3734.00,0.9553
3733.00,0.9360
3732.00,0.9188
3731.00,0.9040
3730.00,0.8919
3729.00,0.8827
3728.00,0.8770
3727.00,0.8746
3726.00,0.8754
3725.00,0.8787
3724.00,0.8847
3723.00,0.8934
3722.00,0.9046
3721.00,0.9179
3720.00,0.9330
3719.00,0.9498
3718.00,0.9686
3717.00,0.9890
3716.00,1.0105
3715.00,1.0326
3714.00,1.0559
3713.00,1.0813
3712.00,1.1094
3711.00,1.1397
3710.00,1.1708
3709.00,1.2015
3708.00,1.2315
3707.00,1.2609
3706.00,1.2899
3705.00,1.3182
3704.00,1.3460
3703.00,1.3742
3702.00,1.4035
3701.00,1.4340
3700.00,1.4646
3699.00,1.4938
3698.00,1.5204
3697.00,1.5448
3696.00,1.5675
3695.00,1.5890
3694.00,1.6094
3693.00,1.6291
3692.00,1.6484
3691.00,1.6675
3690.00,1.6865
3689.00,1.7058
3688.00,1.7252
3687.00,1.7441
3686.00,1.7616
3685.00,1.7774
3684.00,1.7920
3683.00,1.8053
3682.00,1.8173
3681.00,1.8285
3680.00,1.8390
3679.00,1.8488
3678.00,1.8577
3677.00,1.8662
3676.00,1.8754
3675.00,1.8858
3674.00,1.8961
3673.00,1.9047
3672.00,1.9116
3671.00,1.9178
3670.00,1.9234
3669.00,1.9281
3668.00,1.9316
3667.00,1.9345
3666.00,1.9374
3665.00,1.9404
3664.00,1.9427
3663.00,1.9439
3662.00,1.9439
3661.00,1.9433
3660.00,1.9425
3659.00,1.9417
3658.00,1.9407
3657.00,1.9394
3656.00,1.9379
3655.00,1.9358
3654.00,1.9327
3653.00,1.9287
3652.00,1.9240
3651.00,1.9190
3650.00,1.9138
3649.00,1.9082
3648.00,1.9020
3647.00,1.8951
3646.00,1.8877
3645.00,1.8806
3644.00,1.8736
3643.00,1.8660
3642.00,1.8574
3641.00,1.8479
3640.00,1.8381
3639.00,1.8279
3638.00,1.8173
3637.00,1.8061
3636.00,1.7943
3635.00,1.7823
3634.00,1.7705
3633.00,1.7592
3632.00,1.7480
3631.00,1.7367
3630.00,1.7246
3629.00,1.7116
3628.00,1.6976
3627.00,1.6832
3626.00,1.6686
3625.00,1.6543
3624.00,1.6402
3623.00,1.6259
3622.00,1.6113
3621.00,1.5966
3620.00,1.5820
3619.00,1.5675
3618.00,1.5532
3617.00,1.5391
3616.00,1.5254
3615.00,1.5123
3614.00,1.4998
3613.00,1.4878
3612.00,1.4765
3611.00,1.4663
3610.00,1.4572
3609.00,1.4489
3608.00,1.4413
3607.00,1.4343
3606.00,1.4281
3605.00,1.4230
3604.00,1.4190
3603.00,1.4160
3602.00,1.4139
3601.00,1.4130
3600.00,1.4133
3599.00,1.4147
3598.00,1.4169
3597.00,1.4195
3596.00,1.4228
3595.00,1.4268
3594.00,1.4318
3593.00,1.4376
3592.00,1.4442
3591.00,1.4514
3590.00,1.4596
3589.00,1.4690
3588.00,1.4799
3587.00,1.4920
3586.00,1.5049
3585.00,1.5178
3584.00,1.5305
3583.00,1.5433
3582.00,1.5561
3581.00,1.5691
3580.00,1.5825
3579.00,1.5967
3578.00,1.6115
3577.00,1.6268
3576.00,1.6425
3575.00,1.6582
3574.00,1.6740
3573.00,1.6897
3572.00,1.7052
3571.00,1.7203
3570.00,1.7353
3569.00,1.7506
3568.00,1.7665
3567.00,1.7829
3566.00,1.7994
3565.00,1.8154
3564.00,1.8306
3563.00,1.8449
3562.00,1.8585
3561.00,1.8713
3560.00,1.8837
3559.00,1.8958
3558.00,1.9079
3557.00,1.9197
3556.00,1.9311
3555.00,1.9423
3554.00,1.9532
3553.00,1.9641
3552.00,1.9747
3551.00,1.9849
3550.00,1.9944
3549.00,2.0034
3548.00,2.0118
3547.00,2.0197
3546.00,2.0273
3545.00,2.0347
3544.00,2.0420
3543.00,2.0489
3542.00,2.0554
3541.00,2.0617
3540.00,2.0675
3539.00,2.0726
3538.00,2.0769
3537.00,2.0809
3536.00,2.0847
3535.00,2.0885
3534.00,2.0923
3533.00,2.0956
3532.00,2.0983
3531.00,2.1002
3530.00,2.1015
3529.00,2.1026
3528.00,2.1037
3527.00,2.1047
3526.00,2.1056
3525.00,2.1062
3524.00,2.1063
3523.00,2.1059
3522.00,2.1053
3521.00,2.1045
3520.00,2.1038
3519.00,2.1027
3518.00,2.1014
3517.00,2.0997
3516.00,2.0977
3515.00,2.0950
3514.00,2.0915
3513.00,2.0872
3512.00,2.0824
3511.00,2.0771
3510.00,2.0718
3509.00,2.0664
3508.00,2.0610
3507.00,2.0557
3506.00,2.0502
3505.00,2.0443
3504.00,2.0378
3503.00,2.0305
3502.00,2.0228
3501.00,2.0148
3500.00,2.0065
3499.00,1.9980
3498.00,1.9893
3497.00,1.9803
3496.00,1.9708
3495.00,1.9608
3494.00,1.9501
3493.00,1.9391
3492.00,1.9281
3491.00,1.9170
3490.00,1.9058
3489.00,1.8941
3488.00,1.8818
3487.00,1.8691
3486.00,1.8563
3485.00,1.8435
3484.00,1.8307
3483.00,1.8177
3482.00,1.8045
3481.00,1.7912
3480.00,1.7778
3479.00,1.7643
3478.00,1.7508
3477.00,1.7374
3476.00,1.7241
3475.00,1.7109
3474.00,1.6980
3473.00,1.6853
3472.00,1.6730
3471.00,1.6611
3470.00,1.6498
3469.00,1.6393
3468.00,1.6295
3467.00,1.6203
3466.00,1.6117
3465.00,1.6036
3464.00,1.5964
3463.00,1.5902
3462.00,1.5850
3461.00,1.5808
3460.00,1.5776
3459.00,1.5753
3458.00,1.5740
3457.00,1.5738
3456.00,1.5745
3455.00,1.5760
3454.00,1.5785
3453.00,1.5821
3452.00,1.5868
3451.00,1.5924
3450.00,1.5990
3449.00,1.6065
3448.00,1.6149
3447.00,1.6241
3446.00,1.6340
3445.00,1.6445
3444.00,1.6558
3443.00,1.6677
3442.00,1.6800
3441.00,1.6926
3440.00,1.7053
3439.00,1.7183
3438.00,1.7317
3437.00,1.7456
3436.00,1.7601
3435.00,1.7749
3434.00,1.7899
3433.00,1.8047
3432.00,1.8194
3431.00,1.8340
3430.00,1.8484
3429.00,1.8627
3428.00,1.8769
3427.00,1.8910
3426.00,1.9050
3425.00,1.9190
3424.00,1.9330
3423.00,1.9471
3422.00,1.9608
3421.00,1.9739
3420.00,1.9862
3419.00,1.9976
3418.00,2.0086
3417.00,2.0197
3416.00,2.0311
3415.00,2.0422
3414.00,2.0524
3413.00,2.0613
3412.00,2.0693
3411.00,2.0768
3410.00,2.0839
3409.00,2.0907
3408.00,2.0973
3407.00,2.1039
3406.00,2.1107
3405.00,2.1169
3404.00,2.1221
3403.00,2.1259
3402.00,2.1288
3401.00,2.1311
3400.00,2.1331
3399.00,2.1348
3398.00,2.1362
3397.00,2.1373
3396.00,2.1382
3395.00,2.1391
3394.00,2.1401
3393.00,2.1412
3392.00,2.1424
3391.00,2.1432
3390.00,2.1434
3389.00,2.1430
3388.00,2.1420
3387.00,2.1407
3386.00,2.1388
3385.00,2.1364
3384.00,2.1332
3383.00,2.1294
3382.00,2.1253
3381.00,2.1210
3380.00,2.1169
3379.00,2.1130
3378.00,2.1088
3377.00,2.1039
3376.00,2.0978
3375.00,2.0910
3374.00,2.0842
3373.00,2.0777
3372.00,2.0713
3371.00,2.0644
3370.00,2.0564
3369.00,2.0473
3368.00,2.0369
3367.00,2.0258
3366.00,2.0145
3365.00,2.0033
3364.00,1.9918
3363.00,1.9797
3362.00,1.9669
3361.00,1.9537
3360.00,1.9403
3359.00,1.9266
3358.00,1.9124
3357.00,1.8974
3356.00,1.8817
3355.00,1.8654
3354.00,1.8484
3353.00,1.8309
3352.00,1.8130
3351.00,1.7949
3350.00,1.7765
3349.00,1.7578
3348.00,1.7389
3347.00,1.7198
3346.00,1.7005
3345.00,1.6812
3344.00,1.6618
3343.00,1.6424
3342.00,1.6231
3341.00,1.6041
3340.00,1.5857
3339.00,1.5677
3338.00,1.5504
3337.00,1.5338
3336.00,1.5179
3335.00,1.5030
3334.00,1.4892
3333.00,1.4767
3332.00,1.4659
3331.00,1.4566
3330.00,1.4490
3329.00,1.4428
3328.00,1.4383
3327.00,1.4355
3326.00,1.4345
3325.00,1.4350
3324.00,1.4371
3323.00,1.4407
3322.00,1.4459
3321.00,1.4527
3320.00,1.4611
3319.00,1.4710
3318.00,1.4822
3317.00,1.4946
3316.00,1.5081
3315.00,1.5226
3314.00,1.5379
3313.00,1.5539
3312.00,1.5706
3311.00,1.5879
3310.00,1.6057
3309.00,1.6240
3308.00,1.6426
3307.00,1.6615
3306.00,1.6807
3305.00,1.6999
3304.00,1.7192
3303.00,1.7383
3302.00,1.7571
3301.00,1.7756
3300.00,1.7940
3299.00,1.8123
3298.00,1.8307
3297.00,1.8490
3296.00,1.8666
3295.00,1.8834
3294.00,1.8996
3293.00,1.9156
3292.00,1.9316
3291.00,1.9472
3290.00,1.9620
3289.00,1.9758
3288.00,1.9886
3287.00,2.0007
3286.00,2.0125
3285.00,2.0245
3284.00,2.0366
3283.00,2.0483
3282.00,2.0592
3281.00,2.0691
3280.00,2.0783
3279.00,2.0869
3278.00,2.0950
3277.00,2.1026
3276.00,2.1101
3275.00,2.1173
3274.00,2.1245
3273.00,2.1314
3272.00,2.1379
3271.00,2.1435
3270.00,2.1481
3269.00,2.1518
3268.00,2.1550
3267.00,2.1583
3266.00,2.1615
3265.00,2.1643
3264.00,2.1667
3263.00,2.1684
3262.00,2.1699
3261.00,2.1710
3260.00,2.1715
3259.00,2.1713
3258.00,2.1701
3257.00,2.1682
3256.00,2.1658
3255.00,2.1631
3254.00,2.1604
3253.00,2.1574
3252.00,2.1540
3251.00,2.1499
3250.00,2.1452
3249.00,2.1404
3248.00,2.1353
3247.00,2.1298
3246.00,2.1239
3245.00,2.1176
3244.00,2.1109
3243.00,2.1038
3242.00,2.0962
3241.00,2.0878
3240.00,2.0787
3239.00,2.0691
3238.00,2.0592
3237.00,2.0489
3236.00,2.0380
3235.00,2.0263
3234.00,2.0139
3233.00,2.0011
3232.00,1.9882
3231.00,1.9753
3230.00,1.9621
3229.00,1.9482
3228.00,1.9334
3227.00,1.9180
3226.00,1.9023
3225.00,1.8865
3224.00,1.8704
3223.00,1.8538
3222.00,1.8367
3221.00,1.8193
3220.00,1.8016
3219.00,1.7838
3218.00,1.7659
3217.00,1.7481
3216.00,1.7306
3215.00,1.7134
3214.00,1.6965
3213.00,1.6798
3212.00,1.6634
3211.00,1.6475
3210.00,1.6322
3209.00,1.6176
3208.00,1.6040
3207.00,1.5912
3206.00,1.5795
3205.00,1.5690
3204.00,1.5598
3203.00,1.5519
3202.00,1.5454
3201.00,1.5403
3200.00,1.5367
3199.00,1.5346
3198.00,1.5340
3197.00,1.5348
3196.00,1.5371
3195.00,1.5409
3194.00,1.5462
3193.00,1.5531
3192.00,1.5613
3191.00,1.5709
3190.00,1.5817
3189.00,1.5935
3188.00,1.6064
3187.00,1.6202
3186.00,1.6349
3185.00,1.6504
3184.00,1.6664
3183.00,1.6829
3182.00,1.6997
3181.00,1.7168
3180.00,1.7343
3179.00,1.7522
3178.00,1.7703
3177.00,1.7886
3176.00,1.8068
3175.00,1.8249
3174.00,1.8429
3173.00,1.8608
3172.00,1.8784
3171.00,1.8959
3170.00,1.9133
3169.00,1.9306
3168.00,1.9473
3167.00,1.9632
3166.00,1.9780
3165.00,1.9920
3164.00,2.0057
3163.00,2.0194
3162.00,2.0331
3161.00,2.0467
3160.00,2.0600
3159.00,2.0728
3158.00,2.0849
3157.00,2.0962
3156.00,2.1068
3155.00,2.1169
3154.00,2.1267
3153.00,2.1359
3152.00,2.1443
3151.00,2.1516
3150.00,2.1580
3149.00,2.1638
3148.00,2.1695
3147.00,2.1753
3146.00,2.1810
3145.00,2.1864
3144.00,2.1912
3143.00,2.1958
3142.00,2.2008
3141.00,2.2061
3140.00,2.2114
3139.00,2.2160
3138.00,2.2195
3137.00,2.2217
3136.00,2.2230
3135.00,2.2235
3134.00,2.2238
3133.00,2.2244
3132.00,2.2254
3131.00,2.2262
3130.00,2.2263
3129.00,2.2251
3128.00,2.2227
3127.00,2.2198
3126.00,2.2170
3125.00,2.2144
3124.00,2.2117
3123.00,2.2081
3122.00,2.2031
3121.00,2.1969
3120.00,2.1901
3119.00,2.1834
3118.00,2.1766
3117.00,2.1693
3116.00,2.1608
3115.00,2.1511
3114.00,2.1409
3113.00,2.1304
3112.00,2.1196
3111.00,2.1082
3110.00,2.0964
3109.00,2.0845
3108.00,2.0723
3107.00,2.0595
3106.00,2.0456
3105.00,2.0306
3104.00,2.0147
3103.00,1.9980
3102.00,1.9810
3101.00,1.9637
3100.00,1.9463
3099.00,1.9286
3098.00,1.9105
3097.00,1.8916
3096.00,1.8720
3095.00,1.8518
3094.00,1.8315
3093.00,1.8115
3092.00,1.7917
3091.00,1.7720
3090.00,1.7523
3089.00,1.7328
3088.00,1.7137
3087.00,1.6954
3086.00,1.6779
3085.00,1.6616
3084.00,1.6465
3083.00,1.6327
3082.00,1.6203
3081.00,1.6095
3080.00,1.6004
3079.00,1.5932
3078.00,1.5881
3077.00,1.5852
3076.00,1.5845
3075.00,1.5860
3074.00,1.5896
3073.00,1.5952
3072.00,1.6025
3071.00,1.6117
3070.00,1.6226
3069.00,1.6352
3068.00,1.6496
3067.00,1.6655
3066.00,1.6829
3065.00,1.7015
3064.00,1.7211
3063.00,1.7414
3062.00,1.7621
3061.00,1.7830
3060.00,1.8041
3059.00,1.8253
3058.00,1.8463
3057.00,1.8674
3056.00,1.8886
3055.00,1.9099
3054.00,1.9313
3053.00,1.9525
3052.00,1.9732
3051.00,1.9933
3050.00,2.0129
3049.00,2.0321
3048.00,2.0511
3047.00,2.0693
3046.00,2.0865
3045.00,2.1028
3044.00,2.1189
3043.00,2.1351
3042.00,2.1511
3041.00,2.1665
3040.00,2.1808
3039.00,2.1941
3038.00,2.2067
3037.00,2.2191
3036.00,2.2313
3035.00,2.2429
3034.00,2.2538
3033.00,2.2635
3032.00,2.2719
3031.00,2.2791
3030.00,2.2854
3029.00,2.2909
3028.00,2.2960
3027.00,2.3006
3026.00,2.3046
3025.00,2.3079
3024.00,2.3102
3023.00,2.3115
3022.00,2.3116
3021.00,2.3110
3020.00,2.3100
3019.00,2.3086
3018.00,2.3066
3017.00,2.3037
3016.00,2.2994
3015.00,2.2937
3014.00,2.2864
3013.00,2.2776
3012.00,2.2675
3011.00,2.2566
3010.00,2.2450
3009.00,2.2328
3008.00,2.2197
3007.00,2.2054
3006.00,2.1898
3005.00,2.1731
3004.00,2.1554
3003.00,2.1364
3002.00,2.1161
3001.00,2.0949
3000.00,2.0733
2999.00,2.0520
2998.00,2.0315
2997.00,2.0125
2996.00,1.9955
2995.00,1.9810
2994.00,1.9697
2993.00,1.9623
2992.00,1.9596
2991.00,1.9623
2990.00,1.9710
2989.00,1.9860
2988.00,2.0075
2987.00,2.0350
2986.00,2.0680
2985.00,2.1063
2984.00,2.1494
2983.00,2.1968
2982.00,2.2474
2981.00,2.3001
2980.00,2.3545
2979.00,2.4110
2978.00,2.4697
2977.00,2.5307
2976.00,2.5936
2975.00,2.6580
2974.00,2.7233
2973.00,2.7887
2972.00,2.8551
2971.00,2.9249
2970.00,2.9997
2969.00,3.0782
2968.00,3.1555
2967.00,3.2265
2966.00,3.2906
2965.00,3.3542
2964.00,3.4274
2963.00,3.5113
2962.00,3.5874
2961.00,3.6317
2960.00,3.6468
2959.00,3.6549
2958.00,3.6653
2957.00,3.6691
2956.00,3.6622
2955.00,3.6548
2954.00,3.6598
2953.00,3.6810
2952.00,3.7105
2951.00,3.7382
2950.00,3.7616
2949.00,3.7874
2948.00,3.8257
2947.00,3.8849
2946.00,3.9689
2945.00,4.0745
2944.00,4.1888
2943.00,4.2670
2942.00,4.2556
2941.00,4.1889
2940.00,4.1337
2939.00,4.1199
2938.00,4.1441
2937.00,4.2046
2936.00,4.3005
2935.00,4.3967
2934.00,4.4242
2933.00,4.4100
2932.00,4.4567
2931.00,4.7059
2930.00,5.0983
2929.00,4.8020
2928.00,4.5520
2927.00,4.4474
2926.00,4.4699
2925.00,4.4154
2924.00,4.3040
2923.00,4.1855
2922.00,4.0701
2921.00,3.9775
2920.00,3.9012
2919.00,3.8386
2918.00,3.7746
2917.00,3.6926
2916.00,3.5971
2915.00,3.5078
2914.00,3.4368
2913.00,3.3812
2912.00,3.3311
2911.00,3.2814
2910.00,3.2353
2909.00,3.1981
2908.00,3.1706
2907.00,3.1481
2906.00,3.1252
2905.00,3.0998
2904.00,3.0731
2903.00,3.0459
2902.00,3.0173
2901.00,2.9861
2900.00,2.9542
2899.00,2.9244
2898.00,2.8981
2897.00,2.8740
2896.00,2.8512
2895.00,2.8300
2894.00,2.8108
2893.00,2.7930
2892.00,2.7760
2891.00,2.7607
2890.00,2.7490
2889.00,2.7418
2888.00,2.7385
2887.00,2.7387
2886.00,2.7425
2885.00,2.7499
2884.00,2.7614
2883.00,2.7775
2882.00,2.7987
2881.00,2.8242
2880.00,2.8525
2879.00,2.8831
2878.00,2.9176
2877.00,2.9576
2876.00,3.0041
2875.00,3.0578
2874.00,3.1192
2873.00,3.1866
2872.00,3.2550
2871.00,3.3193
2870.00,3.3792
2869.00,3.4398
2868.00,3.5060
2867.00,3.5785
2866.00,3.6524
2865.00,3.7176
2864.00,3.7653
2863.00,3.7938
2862.00,3.8018
2861.00,3.7789
2860.00,3.7218
2859.00,3.6473
2858.00,3.5702
2857.00,3.4864
2856.00,3.3869
2855.00,3.2761
2854.00,3.1659
2853.00,3.0617
2852.00,2.9609
2851.00,2.8602
2850.00,2.7605
2849.00,2.6652
2848.00,2.5772
2847.00,2.4977
2846.00,2.4269
2845.00,2.3645
2844.00,2.3110
2843.00,2.2670
2842.00,2.2330
2841.00,2.2085
2840.00,2.1926
2839.00,2.1845
2838.00,2.1835
2837.00,2.1885
2836.00,2.1981
2835.00,2.2106
2834.00,2.2249
2833.00,2.2403
2832.00,2.2564
2831.00,2.2726
2830.00,2.2878
2829.00,2.3016
2828.00,2.3141
2827.00,2.3259
2826.00,2.3369
2825.00,2.3466
2824.00,2.3546
2823.00,2.3614
2822.00,2.3680
2821.00,2.3750
2820.00,2.3819
2819.00,2.3881
2818.00,2.3934
2817.00,2.3979
2816.00,2.4017
2815.00,2.4047
2814.00,2.4075
2813.00,2.4100
2812.00,2.4125
2811.00,2.4150
2810.00,2.4173
2809.00,2.4190
2808.00,2.4191
2807.00,2.4173
2806.00,2.4140
2805.00,2.4095
2804.00,2.4041
2803.00,2.3982
2802.00,2.3922
2801.00,2.3862
2800.00,2.3795
2799.00,2.3715
2798.00,2.3627
2797.00,2.3534
2796.00,2.3439
2795.00,2.3338
2794.00,2.3228
2793.00,2.3104
2792.00,2.2961
2791.00,2.2799
2790.00,2.2621
2789.00,2.2430
2788.00,2.2226
2787.00,2.2009
2786.00,2.1782
2785.00,2.1546
2784.00,2.1301
2783.00,2.1046
2782.00,2.0779
2781.00,2.0496
2780.00,2.0197
2779.00,1.9884
2778.00,1.9561
2777.00,1.9229
2776.00,1.8887
2775.00,1.8534
2774.00,1.8172
2773.00,1.7803
2772.00,1.7430
2771.00,1.7057
2770.00,1.6690
2769.00,1.6332
2768.00,1.5990
2767.00,1.5669
2766.00,1.5374
2765.00,1.5109
2764.00,1.4875
2763.00,1.4675
2762.00,1.4508
2761.00,1.4376
2760.00,1.4278
2759.00,1.4215
2758.00,1.4190
2757.00,1.4205
2756.00,1.4263
2755.00,1.4362
2754.00,1.4501
2753.00,1.4681
2752.00,1.4898
2751.00,1.5146
2750.00,1.5421
2749.00,1.5717
2748.00,1.6029
2747.00,1.6353
2746.00,1.6685
2745.00,1.7025
2744.00,1.7369
2743.00,1.7714
2742.00,1.8057
2741.00,1.8396
2740.00,1.8731
2739.00,1.9061
2738.00,1.9385
2737.00,1.9701
2736.00,2.0003
2735.00,2.0291
2734.00,2.0564
2733.00,2.0826
2732.00,2.1079
2731.00,2.1321
2730.00,2.1549
2729.00,2.1765
2728.00,2.1973
2727.00,2.2170
2726.00,2.2358
2725.00,2.2534
2724.00,2.2700
2723.00,2.2858
2722.00,2.3011
2721.00,2.3161
2720.00,2.3304
2719.00,2.3431
2718.00,2.3544
2717.00,2.3651
2716.00,2.3760
2715.00,2.3869
2714.00,2.3968
2713.00,2.4051
2712.00,2.4115
2711.00,2.4163
2710.00,2.4207
2709.00,2.4255
2708.00,2.4307
2707.00,2.4354
2706.00,2.4389
2705.00,2.4415
2704.00,2.4439
2703.00,2.4461
2702.00,2.4479
2701.00,2.4493
2700.00,2.4504
2699.00,2.4506
2698.00,2.4492
2697.00,2.4464
2696.00,2.4426
2695.00,2.4389
2694.00,2.4360
2693.00,2.4335
2692.00,2.4304
2691.00,2.4255
2690.00,2.4187
2689.00,2.4108
2688.00,2.4027
2687.00,2.3946
2686.00,2.3864
2685.00,2.3784
2684.00,2.3704
2683.00,2.3621
2682.00,2.3529
2681.00,2.3428
2680.00,2.3324
2679.00,2.3222
2678.00,2.3120
2677.00,2.3016
2676.00,2.2908
2675.00,2.2793
2674.00,2.2670
2673.00,2.2542
2672.00,2.2411
2671.00,2.2276
2670.00,2.2138
2669.00,2.1992
2668.00,2.1832
2667.00,2.1653
2666.00,2.1450
2665.00,2.1221
2664.00,2.0969
2663.00,2.0697
2662.00,2.0409
2661.00,2.0106
2660.00,1.9792
2659.00,1.9469
2658.00,1.9140
2657.00,1.8810
2656.00,1.8482
2655.00,1.8156
2654.00,1.7832
2653.00,1.7511
2652.00,1.7196
2651.00,1.6885
2650.00,1.6580
2649.00,1.6281
2648.00,1.5988
2647.00,1.5703
2646.00,1.5431
2645.00,1.5175
2644.00,1.4938
2643.00,1.4725
2642.00,1.4541
2641.00,1.4394
2640.00,1.4288
2639.00,1.4227
2638.00,1.4215
2637.00,1.4252
2636.00,1.4335
2635.00,1.4462
2634.00,1.4629
2633.00,1.4833
2632.00,1.5070
2631.00,1.5336
2630.00,1.5624
2629.00,1.5932
2628.00,1.6255
2627.00,1.6590
2626.00,1.6933
2625.00,1.7280
2624.00,1.7628
2623.00,1.7974
2622.00,1.8315
2621.00,1.8651
2620.00,1.8981
2619.00,1.9302
2618.00,1.9612
2617.00,1.9912
2616.00,2.0202
2615.00,2.0483
2614.00,2.0754
2613.00,2.1013
2612.00,2.1261
2611.00,2.1497
2610.00,2.1723
2609.00,2.1940
2608.00,2.2152
2607.00,2.2359
2606.00,2.2555
2605.00,2.2741
2604.00,2.2917
2603.00,2.3085
2602.00,2.3244
2601.00,2.3392
2600.00,2.3532
2599.00,2.3666
2598.00,2.3798
2597.00,2.3930
2596.00,2.4060
2595.00,2.4186
2594.00,2.4304
2593.00,2.4412
2592.00,2.4510
2591.00,2.4603
2590.00,2.4691
2589.00,2.4774
2588.00,2.4848
2587.00,2.4912
2586.00,2.4968
2585.00,2.5023
2584.00,2.5080
2583.00,2.5138
2582.00,2.5188
2581.00,2.5224
2580.00,2.5244
2579.00,2.5256
2578.00,2.5266
2577.00,2.5277
2576.00,2.5288
2575.00,2.5297
2574.00,2.5303
2573.00,2.5304
2572.00,2.5299
2571.00,2.5288
2570.00,2.5271
2569.00,2.5250
2568.00,2.5224
2567.00,2.5192
2566.00,2.5150
2565.00,2.5095
2564.00,2.5030
2563.00,2.4962
2562.00,2.4895
2561.00,2.4829
2560.00,2.4755
2559.00,2.4669
2558.00,2.4573
2557.00,2.4472
2556.00,2.4371
2555.00,2.4271
2554.00,2.4167
2553.00,2.4053
2552.00,2.3920
2551.00,2.3771
2550.00,2.3614
2549.00,2.3459
2548.00,2.3305
2547.00,2.3145
2546.00,2.2972
2545.00,2.2783
2544.00,2.2581
2543.00,2.2368
2542.00,2.2144
2541.00,2.1910
2540.00,2.1667
2539.00,2.1417
2538.00,2.1158
2537.00,2.0888
2536.00,2.0606
2535.00,2.0309
2534.00,1.9997
2533.00,1.9671
2532.00,1.9332
2531.00,1.8978
2530.00,1.8612
2529.00,1.8233
2528.00,1.7844
2527.00,1.7448
2526.00,1.7050
2525.00,1.6652
2524.00,1.6257
2523.00,1.5866
2522.00,1.5486
2521.00,1.5121
2520.00,1.4777
2519.00,1.4459
2518.00,1.4172
2517.00,1.3924
2516.00,1.3722
2515.00,1.3571
2514.00,1.3474
2513.00,1.3431
2512.00,1.3444
2511.00,1.3511
2510.00,1.3630
2509.00,1.3798
2508.00,1.4008
2507.00,1.4255
2506.00,1.4534
2505.00,1.4838
2504.00,1.5166
2503.00,1.5513
2502.00,1.5875
2501.00,1.6249
2500.00,1.6632
2499.00,1.7020
2498.00,1.7412
2497.00,1.7803
2496.00,1.8191
2495.00,1.8574
2494.00,1.8951
2493.00,1.9321
2492.00,1.9683
2491.00,2.0037
2490.00,2.0380
2489.00,2.0712
2488.00,2.1031
2487.00,2.1337
2486.00,2.1631
2485.00,2.1914
2484.00,2.2187
2483.00,2.2448
2482.00,2.2696
2481.00,2.2929
2480.00,2.3146
2479.00,2.3350
2478.00,2.3544
2477.00,2.3729
2476.00,2.3908
2475.00,2.4081
2474.00,2.4244
2473.00,2.4397
2472.00,2.4539
2471.00,2.4670
2470.00,2.4794
2469.00,2.4915
2468.00,2.5032
2467.00,2.5145
2466.00,2.5249
2465.00,2.5345
2464.00,2.5436
2463.00,2.5524
2462.00,2.5606
2461.00,2.5680
2460.00,2.5743
2459.00,2.5799
2458.00,2.5851
2457.00,2.5901
2456.00,2.5951
2455.00,2.5996
2454.00,2.6035
2453.00,2.6064
2452.00,2.6082
2451.00,2.6089
2450.00,2.6087
2449.00,2.6083
2448.00,2.6087
2447.00,2.6097
2446.00,2.6104
2445.00,2.6094
2444.00,2.6065
2443.00,2.6027
2442.00,2.5994
2441.00,2.5972
2440.00,2.5954
2439.00,2.5928
2438.00,2.5885
2437.00,2.5827
2436.00,2.5763
2435.00,2.5697
2434.00,2.5625
2433.00,2.5545
2432.00,2.5458
2431.00,2.5371
2430.00,2.5280
2429.00,2.5184
2428.00,2.5081
2427.00,2.4974
2426.00,2.4860
2425.00,2.4736
2424.00,2.4602
2423.00,2.4462
2422.00,2.4322
2421.00,2.4177
2420.00,2.4019
2419.00,2.3843
2418.00,2.3648
2417.00,2.3439
2416.00,2.3220
2415.00,2.2997
2414.00,2.2770
2413.00,2.2533
2412.00,2.2280
2411.00,2.2010
2410.00,2.1722
2409.00,2.1417
2408.00,2.1096
2407.00,2.0757
2406.00,2.0399
2405.00,2.0020
2404.00,1.9620
2403.00,1.9200
2402.00,1.8762
2401.00,1.8307
2400.00,1.7840
2399.00,1.7363
2398.00,1.6881
2397.00,1.6400
2396.00,1.5925
2395.00,1.5465
2394.00,1.5030
2393.00,1.4627
2392.00,1.4263
2391.00,1.3946
2390.00,1.3682
2389.00,1.3477
2388.00,1.3334
2387.00,1.3257
2386.00,1.3245
2385.00,1.3297
2384.00,1.3407
2383.00,1.3572
2382.00,1.3784
2381.00,1.4038
2380.00,1.4327
2379.00,1.4643
2378.00,1.4979
2377.00,1.5331
2376.00,1.5691
2375.00,1.6051
2374.00,1.6403
2373.00,1.6740
2372.00,1.7058
2371.00,1.7352
2370.00,1.7618
2369.00,1.7860
2368.00,1.8083
2367.00,1.8298
2366.00,1.8513
2365.00,1.8735
2364.00,1.8963
2363.00,1.9198
2362.00,1.9446
2361.00,1.9708
2360.00,1.9976
2359.00,2.0233
2358.00,2.0468
2357.00,2.0685
2356.00,2.0892
2355.00,2.1087
2354.00,2.1278
2353.00,2.1439
2352.00,2.1634
2351.00,2.1736
2350.00,2.1999
2349.00,2.1906
2348.00,2.4218
2347.00,2.5252
2346.00,2.5053
2345.00,2.5417
2344.00,2.5477
2343.00,2.5699
2342.00,2.5810
2341.00,2.5947
2340.00,2.6046
2339.00,2.6130
2338.00,2.6202
2337.00,2.6266
2336.00,2.6315
2335.00,2.6355
2334.00,2.6407
2333.00,2.6495
2332.00,2.6612
2331.00,2.6724
2330.00,2.6800
2329.00,2.6837
2328.00,2.6855
2327.00,2.6858
2326.00,2.6892
2325.00,2.6884
2324.00,2.6986
2323.00,2.6905
2322.00,2.7207
2321.00,2.5438
2320.00,2.5103
2319.00,2.5236
2318.00,2.5199
2317.00,2.5241
2316.00,2.5211
2315.00,2.5184
2314.00,2.5140
2313.00,2.5105
2312.00,2.5077
2311.00,2.5057
2310.00,2.5040
2309.00,2.5036
2308.00,2.5041
2307.00,2.5056
2306.00,2.5048
2305.00,2.5012
2304.00,2.4947
2303.00,2.4889
2302.00,2.4848
2301.00,2.4825
2300.00,2.4798
2299.00,2.4765
2298.00,2.4725
2297.00,2.4681
2296.00,2.4625
2295.00,2.4552
2294.00,2.4457
2293.00,2.4346
2292.00,2.4224
2291.00,2.4102
2290.00,2.3978
2289.00,2.3843
2288.00,2.3681
2287.00,2.3493
2286.00,2.3289
2285.00,2.3077
2284.00,2.2852
2283.00,2.2605
2282.00,2.2337
2281.00,2.2053
2280.00,2.1755
2279.00,2.1442
2278.00,2.1109
2277.00,2.0751
2276.00,2.0368
2275.00,1.9961
2274.00,1.9532
2273.00,1.9082
2272.00,1.8611
2271.00,1.8122
2270.00,1.7620
2269.00,1.7111
2268.00,1.6602
2267.00,1.6103
2266.00,1.5624
2265.00,1.5176
2264.00,1.4770
2263.00,1.4416
2262.00,1.4123
2261.00,1.3900
2260.00,1.3752
2259.00,1.3684
2258.00,1.3695
2257.00,1.3783
2256.00,1.3945
2255.00,1.4171
2254.00,1.4449
2253.00,1.4765
2252.00,1.5101
2251.00,1.5448
2250.00,1.5803
2249.00,1.6169
2248.00,1.6552
2247.00,1.6953
2246.00,1.7370
2245.00,1.7799
2244.00,1.8234
2243.00,1.8671
2242.00,1.9109
2241.00,1.9545
2240.00,1.9975
2239.00,2.0394
2238.00,2.0801
2237.00,2.1196
2236.00,2.1578
2235.00,2.1945
2234.00,2.2297
2233.00,2.2636
2232.00,2.2964
2231.00,2.3277
2230.00,2.3573
2229.00,2.3854
2228.00,2.4123
2227.00,2.4379
2226.00,2.4617
2225.00,2.4837
2224.00,2.5040
2223.00,2.5227
2222.00,2.5399
2221.00,2.5563
2220.00,2.5729
2219.00,2.5898
2218.00,2.6062
2217.00,2.6218
2216.00,2.6372
2215.00,2.6524
2214.00,2.6660
2213.00,2.6760
2212.00,2.6829
2211.00,2.6897
2210.00,2.6992
2209.00,2.7112
2208.00,2.7236
2207.00,2.7342
2206.00,2.7431
2205.00,2.7509
2204.00,2.7576
2203.00,2.7624
2202.00,2.7647
2201.00,2.7652
2200.00,2.7658
2199.00,2.7687
2198.00,2.7744
2197.00,2.7817
2196.00,2.7887
2195.00,2.7932
2194.00,2.7942
2193.00,2.7913
2192.00,2.7862
2191.00,2.7819
2190.00,2.7805
2189.00,2.7816
2188.00,2.7830
2187.00,2.7825
2186.00,2.7795
2185.00,2.7747
2184.00,2.7691
2183.00,2.7639
2182.00,2.7602
2181.00,2.7579
2180.00,2.7558
2179.00,2.7523
2178.00,2.7475
2177.00,2.7421
2176.00,2.7362
2175.00,2.7292
2174.00,2.7210
2173.00,2.7120
2172.00,2.7022
2171.00,2.6912
2170.00,2.6783
2169.00,2.6635
2168.00,2.6475
2167.00,2.6312
2166.00,2.6149
2165.00,2.5987
2164.00,2.5822
2163.00,2.5655
2162.00,2.5484
2161.00,2.5305
2160.00,2.5109
2159.00,2.4887
2158.00,2.4639
2157.00,2.4374
2156.00,2.4098
2155.00,2.3810
2154.00,2.3508
2153.00,2.3194
2152.00,2.2870
2151.00,2.2534
2150.00,2.2179
2149.00,2.1799
2148.00,2.1395
2147.00,2.0968
2146.00,2.0519
2145.00,2.0050
2144.00,1.9562
2143.00,1.9060
2142.00,1.8550
2141.00,1.8037
2140.00,1.7531
2139.00,1.7044
2138.00,1.6584
2137.00,1.6159
2136.00,1.5775
2135.00,1.5438
2134.00,1.5155
2133.00,1.4930
2132.00,1.4768
2131.00,1.4671
2130.00,1.4641
2129.00,1.4679
2128.00,1.4783
2127.00,1.4951
2126.00,1.5179
2125.00,1.5461
2124.00,1.5794
2123.00,1.6168
2122.00,1.6575
2121.00,1.7007
2120.00,1.7457
2119.00,1.7919
2118.00,1.8387
2117.00,1.8859
2116.00,1.9330
2115.00,1.9798
2114.00,2.0261
2113.00,2.0719
2112.00,2.1168
2111.00,2.1601
2110.00,2.2016
2109.00,2.2415
2108.00,2.2802
2107.00,2.3180
2106.00,2.3545
2105.00,2.3885
2104.00,2.4190
2103.00,2.4462
2102.00,2.4716
2101.00,2.4967
2100.00,2.5223
2099.00,2.5477
2098.00,2.5716
2097.00,2.5933
2096.00,2.6128
2095.00,2.6308
2094.00,2.6479
2093.00,2.6647
2092.00,2.6812
2091.00,2.6970
2090.00,2.7114
2089.00,2.7246
2088.00,2.7372
2087.00,2.7498
2086.00,2.7630
2085.00,2.7764
2084.00,2.7888
2083.00,2.7986
2082.00,2.8056
2081.00,2.8111
2080.00,2.8176
2079.00,2.8265
2078.00,2.8371
2077.00,2.8474
2076.00,2.8557
2075.00,2.8618
2074.00,2.8664
2073.00,2.8702
2072.00,2.8735
2071.00,2.8764
2070.00,2.8786
2069.00,2.8800
2068.00,2.8820
2067.00,2.8859
2066.00,2.8912
2065.00,2.8949
2064.00,2.8952
2063.00,2.8936
2062.00,2.8927
2061.00,2.8925
2060.00,2.8910
2059.00,2.8870
2058.00,2.8818
2057.00,2.8768
2056.00,2.8718
2055.00,2.8663
2054.00,2.8602
2053.00,2.8538
2052.00,2.8468
2051.00,2.8394
2050.00,2.8321
2049.00,2.8252
2048.00,2.8181
2047.00,2.8101
2046.00,2.8011
2045.00,2.7906
2044.00,2.7785
2043.00,2.7648
2042.00,2.7501
2041.00,2.7348
2040.00,2.7192
2039.00,2.7043
2038.00,2.6906
2037.00,2.6770
2036.00,2.6609
2035.00,2.6406
2034.00,2.6173
2033.00,2.5932
2032.00,2.5695
2031.00,2.5458
2030.00,2.5210
2029.00,2.4941
2028.00,2.4651
2027.00,2.4342
2026.00,2.4021
2025.00,2.3689
2024.00,2.3342
2023.00,2.2974
2022.00,2.2581
2021.00,2.2165
2020.00,2.1726
2019.00,2.1260
2018.00,2.0765
2017.00,2.0246
2016.00,1.9716
2015.00,1.9184
2014.00,1.8656
2013.00,1.8137
2012.00,1.7632
2011.00,1.7148
2010.00,1.6696
2009.00,1.6287
2008.00,1.5933
2007.00,1.5643
2006.00,1.5426
2005.00,1.5289
2004.00,1.5239
2003.00,1.5277
2002.00,1.5400
2001.00,1.5601
2000.00,1.5871
1999.00,1.6203
1998.00,1.6586
1997.00,1.7012
1996.00,1.7473
1995.00,1.7952
1994.00,1.8440
1993.00,1.8932
1992.00,1.9430
1991.00,1.9939
1990.00,2.0456
1989.00,2.0976
1988.00,2.1491
1987.00,2.1991
1986.00,2.2471
1985.00,2.2930
1984.00,2.3366
1983.00,2.3775
1982.00,2.4153
1981.00,2.4500
1980.00,2.4818
1979.00,2.5113
1978.00,2.5391
1977.00,2.5663
1976.00,2.5936
1975.00,2.6201
1974.00,2.6439
1973.00,2.6647
1972.00,2.6842
1971.00,2.7038
1970.00,2.7234
1969.00,2.7416
1968.00,2.7581
1967.00,2.7738
1966.00,2.7895
1965.00,2.8056
1964.00,2.8219
1963.00,2.8376
1962.00,2.8526
1961.00,2.8669
1960.00,2.8804
1959.00,2.8922
1958.00,2.9013
1957.00,2.9079
1956.00,2.9132
1955.00,2.9179
1954.00,2.9222
1953.00,2.9263
1952.00,2.9309
1951.00,2.9365
1950.00,2.9434
1949.00,2.9517
1948.00,2.9607
1947.00,2.9689
1946.00,2.9743
1945.00,2.9759
1944.00,2.9737
1943.00,2.9692
1942.00,2.9647
1941.00,2.9627
1940.00,2.9644
1939.00,2.9683
1938.00,2.9712
1937.00,2.9711
1936.00,2.9687
1935.00,2.9656
1934.00,2.9625
1933.00,2.9594
1932.00,2.9562
1931.00,2.9527
1930.00,2.9492
1929.00,2.9455
1928.00,2.9407
1927.00,2.9333
1926.00,2.9222
1925.00,2.9079
1924.00,2.8915
1923.00,2.8747
1922.00,2.8593
1921.00,2.8464
1920.00,2.8362
1919.00,2.8264
1918.00,2.8149
1917.00,2.8014
1916.00,2.7870
1915.00,2.7721
1914.00,2.7559
1913.00,2.7377
1912.00,2.7173
1911.00,2.6944
1910.00,2.6688
1909.00,2.6411
1908.00,2.6124
1907.00,2.5833
1906.00,2.5536
1905.00,2.5233
1904.00,2.4916
1903.00,2.4569
1902.00,2.4184
1901.00,2.3762
1900.00,2.3314
1899.00,2.2840
1898.00,2.2335
1897.00,2.1792
1896.00,2.1212
1895.00,2.0601
1894.00,1.9979
1893.00,1.9368
1892.00,1.8778
1891.00,1.8208
1890.00,1.7671
1889.00,1.7198
1888.00,1.6826
1887.00,1.6572
1886.00,1.6434
1885.00,1.6406
1884.00,1.6480
1883.00,1.6650
1882.00,1.6904
1881.00,1.7232
1880.00,1.7621
1879.00,1.8056
1878.00,1.8523
1877.00,1.9016
1876.00,1.9527
1875.00,2.0044
1874.00,2.0560
1873.00,2.1064
1872.00,2.1541
1871.00,2.1979
1870.00,2.2387
1869.00,2.2791
1868.00,2.3201
1867.00,2.3615
1866.00,2.4030
1865.00,2.4446
1864.00,2.4863
1863.00,2.5275
1862.00,2.5671
1861.00,2.6044
1860.00,2.6393
1859.00,2.6724
1858.00,2.7040
1857.00,2.7337
1856.00,2.7617
1855.00,2.7875
1854.00,2.8111
1853.00,2.8321
1852.00,2.8512
1851.00,2.8702
1850.00,2.8897
1849.00,2.9090
1848.00,2.9261
1847.00,2.9387
1846.00,2.9470
1845.00,2.9543
1844.00,2.9650
1843.00,2.9804
1842.00,2.9976
1841.00,3.0115
1840.00,3.0204
1839.00,3.0266
1838.00,3.0329
1837.00,3.0405
1836.00,3.0483
1835.00,3.0549
1834.00,3.0584
1833.00,3.0586
1832.00,3.0586
1831.00,3.0621
1830.00,3.0686
1829.00,3.0733
1828.00,3.0723
1827.00,3.0664
1826.00,3.0579
1825.00,3.0498
1824.00,3.0454
1823.00,3.0460
1822.00,3.0477
1821.00,3.0443
1820.00,3.0340
1819.00,3.0209
1818.00,3.0101
1817.00,3.0022
1816.00,2.9950
1815.00,2.9875
1814.00,2.9795
1813.00,2.9697
1812.00,2.9569
1811.00,2.9411
1810.00,2.9246
1809.00,2.9085
1808.00,2.8934
1807.00,2.8792
1806.00,2.8648
1805.00,2.8473
1804.00,2.8239
1803.00,2.7939
1802.00,2.7585
1801.00,2.7199
1800.00,2.6801
1799.00,2.6396
1798.00,2.5970
1797.00,2.5507
1796.00,2.4995
1795.00,2.4432
1794.00,2.3815
1793.00,2.3159
1792.00,2.2516
1791.00,2.1946
1790.00,2.1497
1789.00,2.1190
1788.00,2.1022
1787.00,2.0984
1786.00,2.1075
1785.00,2.1299
1784.00,2.1663
1783.00,2.2153
1782.00,2.2738
1781.00,2.3391
1780.00,2.4101
1779.00,2.4841
1778.00,2.5586
1777.00,2.6317
1776.00,2.7006
1775.00,2.7620
1774.00,2.8154
1773.00,2.8659
1772.00,2.9186
1771.00,2.9703
1770.00,3.0149
1769.00,3.0507
1768.00,3.0810
1767.00,3.1087
1766.00,3.1344
1765.00,3.1577
1764.00,3.1794
1763.00,3.2021
1762.00,3.2277
1761.00,3.2559
1760.00,3.2834
1759.00,3.3042
1758.00,3.3147
1757.00,3.3184
1756.00,3.3252
1755.00,3.3400
1754.00,3.3579
1753.00,3.3699
1752.00,3.3732
1751.00,3.3728
1750.00,3.3761
1749.00,3.3875
1748.00,3.4088
1747.00,3.4418
1746.00,3.4835
1745.00,3.5276
1744.00,3.5734
1743.00,3.6308
1742.00,3.7115
1741.00,3.8093
1740.00,3.8889
1739.00,3.9164
1738.00,3.9064
1737.00,3.8880
1736.00,3.8723
1735.00,3.8712
1734.00,3.9019
1733.00,3.9671
1732.00,4.0456
1731.00,4.1142
1730.00,4.1642
1729.00,4.2018
1728.00,4.2447
1727.00,4.3085
1726.00,4.3860
1725.00,4.4542
1724.00,4.5267
1723.00,4.6059
1722.00,4.6453
1721.00,4.6542
1720.00,4.6977
1719.00,4.7660
1718.00,4.8892
1717.00,5.1947
1716.00,4.9335
1715.00,4.5488
1714.00,4.3901
1713.00,4.3445
1712.00,4.4038
1711.00,4.5693
1710.00,4.7806
1709.00,4.8227
1708.00,4.6370
1707.00,4.4713
1706.00,4.4066
1705.00,4.4251
1704.00,4.4601
1703.00,4.4491
1702.00,4.4326
1701.00,4.4657
1700.00,4.5518
1699.00,4.6628
1698.00,4.7348
1697.00,4.7136
1696.00,4.4555
1695.00,4.1978
1694.00,4.0814
1693.00,4.0374
1692.00,3.9937
1691.00,3.9284
1690.00,3.8490
1689.00,3.7672
1688.00,3.6899
1687.00,3.6217
1686.00,3.5607
1685.00,3.5047
1684.00,3.4598
1683.00,3.4372
1682.00,3.4376
1681.00,3.4463
1680.00,3.4485
1679.00,3.4439
1678.00,3.4378
1677.00,3.4300
1676.00,3.4169
1675.00,3.3980
1674.00,3.3738
1673.00,3.3407
1672.00,3.2946
1671.00,3.2377
1670.00,3.1792
1669.00,3.1260
1668.00,3.0798
1667.00,3.0373
1666.00,2.9914
1665.00,2.9372
1664.00,2.8754
1663.00,2.8119
1662.00,2.7529
1661.00,2.7022
1660.00,2.6621
1659.00,2.6333
1658.00,2.6167
1657.00,2.6103
1656.00,2.6090
1655.00,2.6094
1654.00,2.6175
1653.00,2.6438
1652.00,2.6916
1651.00,2.7495
1650.00,2.7942
1649.00,2.8195
1648.00,2.8399
1647.00,2.8653
1646.00,2.9006
1645.00,2.9468
1644.00,2.9966
1643.00,3.0391
1642.00,3.0713
1641.00,3.0959
1640.00,3.1151
1639.00,3.1302
1638.00,3.1427
1637.00,3.1526
1636.00,3.1591
1635.00,3.1640
1634.00,3.1737
1633.00,3.1884
1632.00,3.2012
1631.00,3.2126
1630.00,3.2256
1629.00,3.2369
1628.00,3.2420
1627.00,3.2420
1626.00,3.2420
1625.00,3.2423
1624.00,3.2401
1623.00,3.2368
1622.00,3.2376
1621.00,3.2439
1620.00,3.2492
1619.00,3.2463
1618.00,3.2336
1617.00,3.2145
1616.00,3.1972
1615.00,3.1907
1614.00,3.1965
1613.00,3.2086
1612.00,3.2203
1611.00,3.2264
1610.00,3.2230
1609.00,3.2105
1608.00,3.1953
1607.00,3.1837
1606.00,3.1747
1605.00,3.1615
1604.00,3.1420
1603.00,3.1219
1602.00,3.1075
1601.00,3.0970
1600.00,3.0830
1599.00,3.0620
1598.00,3.0370
1597.00,3.0115
1596.00,2.9855
1595.00,2.9584
1594.00,2.9303
1593.00,2.9009
1592.00,2.8695
1591.00,2.8361
1590.00,2.8007
1589.00,2.7627
1588.00,2.7222
1587.00,2.6795
1586.00,2.6341
1585.00,2.5842
1584.00,2.5297
1583.00,2.4711
1582.00,2.4083
1581.00,2.3418
1580.00,2.2734
1579.00,2.2041
1578.00,2.1329
1577.00,2.0603
1576.00,1.9927
1575.00,1.9421
1574.00,1.9139
1573.00,1.9016
1572.00,1.8986
1571.00,1.9056
1570.00,1.9257
1569.00,1.9593
1568.00,2.0037
1567.00,2.0553
1566.00,2.1113
1565.00,2.1714
1564.00,2.2344
1563.00,2.2947
1562.00,2.3465
1561.00,2.3904
1560.00,2.4331
1559.00,2.4819
1558.00,2.5367
1557.00,2.5994
1556.00,2.6634
1555.00,2.7144
1554.00,2.7583
1553.00,2.8007
1552.00,2.8379
1551.00,2.8668
1550.00,2.8946
1549.00,2.9295
1548.00,2.9694
1547.00,3.0039
1546.00,3.0260
1545.00,3.0385
1544.00,3.0472
1543.00,3.0545
1542.00,3.0624
1541.00,3.0718
1540.00,3.0820
1539.00,3.0977
1538.00,3.1271
1537.00,3.1628
1536.00,3.1893
1535.00,3.2048
1534.00,3.2152
1533.00,3.2256
1532.00,3.2378
1531.00,3.2515
1530.00,3.2671
1529.00,3.2844
1528.00,3.2993
1527.00,3.3045
1526.00,3.2974
1525.00,3.2860
1524.00,3.2799
1523.00,3.2822
1522.00,3.2908
1521.00,3.2984
1520.00,3.2976
1519.00,3.2894
1518.00,3.2786
1517.00,3.2691
1516.00,3.2616
1515.00,3.2562
1514.00,3.2551
1513.00,3.2611
1512.00,3.2722
1511.00,3.2799
1510.00,3.2734
1509.00,3.2468
1508.00,3.2029
1507.00,3.1547
1506.00,3.1261
1505.00,3.1376
1504.00,3.1739
1503.00,3.2001
1502.00,3.2075
1501.00,3.2013
1500.00,3.1846
1499.00,3.1610
1498.00,3.1346
1497.00,3.1085
1496.00,3.0827
1495.00,3.0566
1494.00,3.0297
1493.00,2.9999
1492.00,2.9646
1491.00,2.9223
1490.00,2.8735
1489.00,2.8228
1488.00,2.7771
1487.00,2.7401
1486.00,2.7079
1485.00,2.6737
1484.00,2.6333
1483.00,2.5856
1482.00,2.5330
1481.00,2.4815
1480.00,2.4369
1479.00,2.4025
1478.00,2.3798
1477.00,2.3702
1476.00,2.3744
1475.00,2.3930
1474.00,2.4275
1473.00,2.4819
1472.00,2.5575
1471.00,2.6495
1470.00,2.7496
1469.00,2.8505
1468.00,2.9476
1467.00,3.0367
1466.00,3.1153
1465.00,3.1854
1464.00,3.2461
1463.00,3.2884
1462.00,3.3100
1461.00,3.3219
1460.00,3.3349
1459.00,3.3519
1458.00,3.3776
1457.00,3.4270
1456.00,3.5150
1455.00,3.6390
1454.00,3.7817
1453.00,3.9314
1452.00,4.0506
1451.00,4.0731
1450.00,4.0133
1449.00,3.9330
1448.00,3.8698
1447.00,3.8150
1446.00,3.7372
1445.00,3.6364
1444.00,3.5334
1443.00,3.4411
1442.00,3.3688
1441.00,3.3242
1440.00,3.3074
1439.00,3.3119
1438.00,3.3323
1437.00,3.3676
1436.00,3.4163
1435.00,3.4706
1434.00,3.5201
1433.00,3.5647
1432.00,3.6120
1431.00,3.6630
1430.00,3.7088
1429.00,3.7403
1428.00,3.7501
1427.00,3.7312
1426.00,3.6896
1425.00,3.6486
1424.00,3.6303
1423.00,3.6413
1422.00,3.6702
1421.00,3.6931
1420.00,3.6872
1419.00,3.6470
1418.00,3.5850
1417.00,3.5188
1416.00,3.4607
1415.00,3.4166
1414.00,3.3860
1413.00,3.3598
1412.00,3.3277
1411.00,3.2931
1410.00,3.2693
1409.00,3.2643
1408.00,3.2752
1407.00,3.2949
1406.00,3.3186
1405.00,3.3433
1404.00,3.3640
1403.00,3.3755
1402.00,3.3798
1401.00,3.3826
1400.00,3.3881
1399.00,3.3976
1398.00,3.4111
1397.00,3.4282
1396.00,3.4460
1395.00,3.4615
1394.00,3.4743
1393.00,3.4860
1392.00,3.4963
1391.00,3.5043
1390.00,3.5110
1389.00,3.5162
1388.00,3.5153
1387.00,3.5054
1386.00,3.4919
1385.00,3.4835
1384.00,3.4837
1383.00,3.4931
1382.00,3.5133
1381.00,3.5409
1380.00,3.5625
1379.00,3.5643
1378.00,3.5483
1377.00,3.5273
1376.00,3.5070
1375.00,3.4854
1374.00,3.4648
1373.00,3.4524
1372.00,3.4506
1371.00,3.4519
1370.00,3.4494
1369.00,3.4439
1368.00,3.4373
1367.00,3.4274
1366.00,3.4105
1365.00,3.3844
1364.00,3.3476
1363.00,3.3017
1362.00,3.2538
1361.00,3.2134
1360.00,3.1845
1359.00,3.1646
1358.00,3.1505
1357.00,3.1409
1356.00,3.1366
1355.00,3.1404
1354.00,3.1577
1353.00,3.1953
1352.00,3.2570
1351.00,3.3400
1350.00,3.4341
1349.00,3.5210
1348.00,3.5767
1347.00,3.5871
1346.00,3.5653
1345.00,3.5407
1344.00,3.5336
1343.00,3.5471
1342.00,3.5767
1341.00,3.6199
1340.00,3.6723
1339.00,3.7103
1338.00,3.6958
1337.00,3.6246
1336.00,3.5328
1335.00,3.4473
1334.00,3.3732
1333.00,3.3062
1332.00,3.2412
1331.00,3.1793
1330.00,3.1278
1329.00,3.0944
1328.00,3.0832
1327.00,3.0935
1326.00,3.1215
1325.00,3.1627
1324.00,3.2140
1323.00,3.2738
1322.00,3.3417
1321.00,3.4181
1320.00,3.5027
1319.00,3.5952
1318.00,3.6951
1317.00,3.8095
1316.00,3.9593
1315.00,4.1760
1314.00,4.4299
1313.00,4.5017
1312.00,4.4277
1311.00,4.3333
1310.00,4.2398
1309.00,4.1692
1308.00,4.0900
1307.00,3.9582
1306.00,3.7862
1305.00,3.6183
1304.00,3.4740
1303.00,3.3532
1302.00,3.2522
1301.00,3.1693
1300.00,3.1044
1299.00,3.0571
1298.00,3.0267
1297.00,3.0123
1296.00,3.0134
1295.00,3.0290
1294.00,3.0567
1293.00,3.0919
1292.00,3.1303
1291.00,3.1700
1290.00,3.2114
1289.00,3.2541
1288.00,3.2947
1287.00,3.3297
1286.00,3.3602
1285.00,3.3909
1284.00,3.4241
1283.00,3.4573
1282.00,3.4855
1281.00,3.5059
1280.00,3.5225
1279.00,3.5417
1278.00,3.5644
1277.00,3.5880
1276.00,3.6109
1275.00,3.6305
1274.00,3.6439
1273.00,3.6522
1272.00,3.6620
1271.00,3.6819
1270.00,3.7120
1269.00,3.7343
1268.00,3.7351
1267.00,3.7269
1266.00,3.7202
1265.00,3.7135
1264.00,3.7166
1263.00,3.7509
1262.00,3.8223
1261.00,3.8941
1260.00,3.9037
1259.00,3.8491
1258.00,3.7861
1257.00,3.7431
1256.00,3.7191
1255.00,3.7176
1254.00,3.7432
1253.00,3.7768
1252.00,3.7928
1251.00,3.7964
1250.00,3.8031
1249.00,3.8109
1248.00,3.8111
1247.00,3.8068
1246.00,3.8108
1245.00,3.8236
1244.00,3.8253
1243.00,3.8018
1242.00,3.7660
1241.00,3.7297
1240.00,3.6917
1239.00,3.6635
1238.00,3.6657
1237.00,3.7073
1236.00,3.7764
1235.00,3.8397
1234.00,3.8639
1233.00,3.8456
1232.00,3.8206
1231.00,3.8280
1230.00,3.8866
1229.00,3.9924
1228.00,4.1134
1227.00,4.2310
1226.00,4.4103
1225.00,4.5895
1224.00,4.4391
1223.00,4.2915
1222.00,4.2291
1221.00,4.1694
1220.00,4.0593
1219.00,3.9517
1218.00,3.8848
1217.00,3.8486
1216.00,3.8358
1215.00,3.8610
1214.00,3.9400
1213.00,4.0335
1212.00,4.0166
1211.00,3.8836
1210.00,3.7611
1209.00,3.7010
1208.00,3.6906
1207.00,3.7012
1206.00,3.7136
1205.00,3.7094
1204.00,3.6719
1203.00,3.6247
1202.00,3.6093
1201.00,3.6373
1200.00,3.6730
1199.00,3.6590
1198.00,3.6021
1197.00,3.5519
1196.00,3.5214
1195.00,3.4966
1194.00,3.4704
1193.00,3.4489
1192.00,3.4343
1191.00,3.4194
1190.00,3.4017
1189.00,3.3882
1188.00,3.3812
1187.00,3.3715
1186.00,3.3512
1185.00,3.3274
1184.00,3.3120
1183.00,3.3057
1182.00,3.3017
1181.00,3.2977
1180.00,3.2997
1179.00,3.3159
1178.00,3.3438
1177.00,3.3666
1176.00,3.3656
1175.00,3.3407
1174.00,3.3117
1173.00,3.2948
1172.00,3.2913
1171.00,3.2964
1170.00,3.3089
1169.00,3.3319
1168.00,3.3664
1167.00,3.4066
1166.00,3.4439
1165.00,3.4702
1164.00,3.4783
1163.00,3.4675
1162.00,3.4508
1161.00,3.4446
1160.00,3.4557
1159.00,3.4800
1158.00,3.5098
1157.00,3.5396
1156.00,3.5644
1155.00,3.5780
1154.00,3.5796
1153.00,3.5779
1152.00,3.5830
1151.00,3.6023
1150.00,3.6447
1149.00,3.7213
1148.00,3.8376
1147.00,3.9803
1146.00,4.1089
1145.00,4.1617
1144.00,4.1175
1143.00,4.0387
1142.00,3.9770
1141.00,3.9351
1140.00,3.8985
1139.00,3.8708
1138.00,3.8623
1137.00,3.8536
1136.00,3.8130
1135.00,3.7725
1134.00,3.7913
1133.00,3.8909
1132.00,4.0495
1131.00,4.2051
1130.00,4.3178
1129.00,4.4061
1128.00,4.4374
1127.00,4.3704
1126.00,4.2925
1125.00,4.2861
1124.00,4.3248
1123.00,4.2785
1122.00,4.1317
1121.00,4.0037
1120.00,3.9505
1119.00,3.9636
1118.00,4.0020
1117.00,4.0692
1116.00,4.2367
1115.00,4.4637
1114.00,4.3403
1113.00,4.2076
1112.00,4.1748
1111.00,4.1650
1110.00,4.0615
1109.00,3.9195
1108.00,3.8370
1107.00,3.8222
1106.00,3.8494
1105.00,3.8712
1104.00,3.8561
1103.00,3.8337
1102.00,3.8466
1101.00,3.9091
1100.00,4.0116
1099.00,4.1301
1098.00,4.1918
1097.00,4.1350
1096.00,4.0456
1095.00,3.9653
1094.00,3.9176
1093.00,3.9322
1092.00,4.0026
1091.00,4.0231
1090.00,3.9234
1089.00,3.8026
1088.00,3.7151
1087.00,3.6830
1086.00,3.7107
1085.00,3.7781
1084.00,3.8552
1083.00,3.9346
1082.00,3.9952
1081.00,3.9780
1080.00,3.8728
1079.00,3.7471
1078.00,3.6664
1077.00,3.6489
1076.00,3.6717
1075.00,3.6941
1074.00,3.6975
1073.00,3.7026
1072.00,3.7272
1071.00,3.7480
1070.00,3.7484
1069.00,3.7470
1068.00,3.7278
1067.00,3.6839
1066.00,3.6489
1065.00,3.6414
1064.00,3.6528
1063.00,3.6623
1062.00,3.6626
1061.00,3.6631
1060.00,3.6658
1059.00,3.6645
1058.00,3.6642
1057.00,3.6768
1056.00,3.7032
1055.00,3.7326
1054.00,3.7531
1053.00,3.7714
1052.00,3.8009
1051.00,3.8278
1050.00,3.8349
1049.00,3.8257
1048.00,3.7879
1047.00,3.7052
1046.00,3.6012
1045.00,3.5100
1044.00,3.4414
1043.00,3.3879
1042.00,3.3473
1041.00,3.3278
1040.00,3.3351
1039.00,3.3594
1038.00,3.3807
1037.00,3.3897
1036.00,3.3974
1035.00,3.4188
1034.00,3.4578
1033.00,3.5039
1032.00,3.5380
1031.00,3.5484
1030.00,3.5469
1029.00,3.5595
1028.00,3.6037
1027.00,3.6776
1026.00,3.7518
1025.00,3.7809
1024.00,3.7600
1023.00,3.7342
1022.00,3.7386
1021.00,3.7831
1020.00,3.8641
1019.00,3.9627
1018.00,4.0161
1017.00,3.9680
1016.00,3.8865
1015.00,3.8464
1014.00,3.8652
1013.00,3.9014
1012.00,3.8996
1011.00,3.8892
1010.00,3.8988
1009.00,3.9352
1008.00,4.0124
1007.00,4.1251
1006.00,4.2895
1005.00,4.5612
1004.00,4.8492
1003.00,4.5633
1002.00,4.1816
1001.00,3.9779
1000.00,3.8746
999.00,3.8216
998.00,3.8014
997.00,3.8157
996.00,3.8594
995.00,3.9163
994.00,3.9803
993.00,4.0540
992.00,4.1526
991.00,4.3106
990.00,4.4261
989.00,4.3535
988.00,4.2956
987.00,4.2319
986.00,4.1456
985.00,4.0928
984.00,4.0672
983.00,4.0740
982.00,4.1186
981.00,4.1942
980.00,4.3431
979.00,4.3966
978.00,4.2694
977.00,4.2464
976.00,4.3183
975.00,4.4438
974.00,4.5608
973.00,4.5034
972.00,4.3766
971.00,4.2466
970.00,4.1598
969.00,4.1736
968.00,4.2825
967.00,4.4380
966.00,4.5934
965.00,4.7325
964.00,4.6014
963.00,4.3160
962.00,4.1744
961.00,4.1774
960.00,4.2731
959.00,4.4121
958.00,4.6447
957.00,4.5684
956.00,4.2631
955.00,4.0694
954.00,3.9414
953.00,3.8566
952.00,3.7929
951.00,3.7396
950.00,3.7148
949.00,3.7420
948.00,3.8251
947.00,3.9473
946.00,4.0875
945.00,4.2554
944.00,4.4531
943.00,4.5356
942.00,4.5322
941.00,4.5808
940.00,4.5965
939.00,4.3614
938.00,4.1693
937.00,4.1332
936.00,4.2750
935.00,4.7636
934.00,4.7930
933.00,4.3228
932.00,4.1755
931.00,4.0955
930.00,3.9949
929.00,3.9054
928.00,3.8573
927.00,3.8539
926.00,3.8846
925.00,3.9364
924.00,4.0032
923.00,4.0822
922.00,4.1679
921.00,4.2543
920.00,4.3028
919.00,4.2496
918.00,4.1414
917.00,4.0575
916.00,4.0230
915.00,4.0212
914.00,4.0018
913.00,3.9525
912.00,3.9085
911.00,3.8938
910.00,3.9303
909.00,3.9985
908.00,4.0341
907.00,4.0430
906.00,4.0126
905.00,3.9241
904.00,3.8418
903.00,3.8047
902.00,3.8137
901.00,3.8445
900.00,3.8649
899.00,3.8681
898.00,3.8854
897.00,3.9609
896.00,4.1241
895.00,4.3698
894.00,4.5215
893.00,4.2983
892.00,4.0083
891.00,3.8359
890.00,3.8011
889.00,3.8912
888.00,4.0334
887.00,4.0625
886.00,3.9850
885.00,3.9545
884.00,4.0154
883.00,4.1216
882.00,4.1619
881.00,4.1615
880.00,4.1527
879.00,4.0258
878.00,3.9402
877.00,3.9975
876.00,4.2345
875.00,4.5334
874.00,4.3515
873.00,4.2245
872.00,4.1731
871.00,4.1078
870.00,4.0522
869.00,4.0570
868.00,4.1187
867.00,4.1579
866.00,4.0971
865.00,4.0516
864.00,4.1026
863.00,4.1165
862.00,4.0286
861.00,3.9712
860.00,3.9654
859.00,4.0105
858.00,4.0977
857.00,4.1298
856.00,4.0710
855.00,3.9940
854.00,3.9416
853.00,3.9631
852.00,4.1174
851.00,4.5047
850.00,4.7665
849.00,4.4900
848.00,4.5732
847.00,4.6402
846.00,4.1975
845.00,4.0284
844.00,4.0222
843.00,4.0188
842.00,3.9283
841.00,3.8617
840.00,3.8805
839.00,3.9780
838.00,4.1324
837.00,4.3255
836.00,4.4249
835.00,4.3243
834.00,4.2188
833.00,4.1722
832.00,4.2092
831.00,4.4244
830.00,4.7128
829.00,4.3756
828.00,4.3353
827.00,4.3082
826.00,4.0899
825.00,4.0428
824.00,4.1094
823.00,4.1080
822.00,4.0170
821.00,3.9163
820.00,3.8513
819.00,3.8569
818.00,3.9729
817.00,4.3229
816.00,4.4660
815.00,4.0189
814.00,3.8761
813.00,3.8598
812.00,3.8607
811.00,3.8074
810.00,3.7395
809.00,3.7372
808.00,3.8183
807.00,3.9656
806.00,4.1193
805.00,4.2004
804.00,4.1188
803.00,3.9543
802.00,3.8588
801.00,3.8834
800.00,4.0197
799.00,4.0934
798.00,3.9651
797.00,3.9049
796.00,3.9906
795.00,4.2513
794.00,4.7259
793.00,4.5135
792.00,4.3851
791.00,4.3983
790.00,4.0816
789.00,3.8511
788.00,3.7937
787.00,3.9212
786.00,4.3471
785.00,4.4276
784.00,4.2072
783.00,4.3658
782.00,4.2729
781.00,4.0462
780.00,4.0046
779.00,4.0403
778.00,4.0509
777.00,3.9686
776.00,3.8601
775.00,3.7999
774.00,3.7919
773.00,3.8159
772.00,3.8275
771.00,3.7995
770.00,3.7534
769.00,3.6940
768.00,3.6392
767.00,3.6267
766.00,3.6565
765.00,3.7278
764.00,3.8506
763.00,4.1055
762.00,4.7110
761.00,4.5446
760.00,4.1428
759.00,3.9740
758.00,3.9502
757.00,4.0649
756.00,4.2856
755.00,4.3754
754.00,4.1296
753.00,3.9088
752.00,3.8120
751.00,3.8326
750.00,3.9425
749.00,4.0783
748.00,4.1719
747.00,4.1678
746.00,4.0627
745.00,3.9672
744.00,3.8860
743.00,3.8579
742.00,3.8929
741.00,4.0929
740.00,4.6445
739.00,4.1728
738.00,3.8697
737.00,3.7870
736.00,3.7853
735.00,3.8455
734.00,3.9519
733.00,4.1342
732.00,4.2510
731.00,4.2247
730.00,4.2452
729.00,4.2572
728.00,4.3681
727.00,4.7971
726.00,4.7051
725.00,4.3327
724.00,4.1143
723.00,3.9914
722.00,3.9659
721.00,4.0171
720.00,4.0947
719.00,4.0945
718.00,4.0116
717.00,3.9476
716.00,3.9292
715.00,3.9291
714.00,3.9354
713.00,3.9729
712.00,4.0368
711.00,4.0007
710.00,3.9131
709.00,3.9475
708.00,4.1055
707.00,4.1142
706.00,3.9733
705.00,3.8873
704.00,3.8367
703.00,3.8228
702.00,3.8893
701.00,4.0771
700.00,4.5143
