Created as New Dataset,Sample 054 By Administrator Date Wednesday, November 24 2021
cm-1,A
7502.00,1.1405
7501.00,1.1371
7500.00,1.1337
7499.00,1.1304
7498.00,1.1271
7497.00,1.1238
7496.00,1.1205
7495.00,1.1173
7494.00,1.1141
7493.00,1.1115
7492.00,1.1106
7491.00,1.1117
7490.00,1.1135
7489.00,1.1138
7488.00,1.1114
7487.00,1.1062
7486.00,1.0991
7485.00,1.0900
7484.00,1.0791
7483.00,1.0673
7482.00,1.0561
7481.00,1.0471
7480.00,1.0404
7479.00,1.0348
7478.00,1.0294
7477.00,1.0241
7476.00,1.0198
7475.00,1.0165
7474.00,1.0136
7473.00,1.0106
7472.00,1.0073
7471.00,1.0035
7470.00,0.9989
7469.00,0.9931
7468.00,0.9865
7467.00,0.9798
7466.00,0.9732
7465.00,0.9666
7464.00,0.9597
7463.00,0.9526
7462.00,0.9453
7461.00,0.9379
7460.00,0.9302
7459.00,0.9223
7458.00,0.9143
7457.00,0.9065
7456.00,0.8989
7455.00,0.8919
7454.00,0.8854
7453.00,0.8791
7452.00,0.8727
7451.00,0.8660
7450.00,0.8593
7449.00,0.8528
7448.00,0.8464
7447.00,0.8400
7446.00,0.8333
7445.00,0.8263
7444.00,0.8195
7443.00,0.8132
7442.00,0.8074
7441.00,0.8017
7440.00,0.7964
7439.00,0.7917
7438.00,0.7877
7437.00,0.7841
7436.00,0.7806
7435.00,0.7773
7434.00,0.7745
7433.00,0.7724
7432.00,0.7710
7431.00,0.7700
7430.00,0.7693
7429.00,0.7694
7428.00,0.7705
7427.00,0.7725
7426.00,0.7750
7425.00,0.7776
7424.00,0.7803
7423.00,0.7834
7422.00,0.7871
7421.00,0.7914
7420.00,0.7959
7419.00,0.8006
7418.00,0.8055
7417.00,0.8110
7416.00,0.8170
7415.00,0.8234
7414.00,0.8299
7413.00,0.8366
7412.00,0.8436
7411.00,0.8510
7410.00,0.8589
7409.00,0.8670
7408.00,0.8752
7407.00,0.8834
7406.00,0.8920
7405.00,0.9010
7404.00,0.9103
7403.00,0.9196
7402.00,0.9286
7401.00,0.9378
7400.00,0.9472
7399.00,0.9568
7398.00,0.9660
7397.00,0.9748
7396.00,0.9833
7395.00,0.9919
7394.00,1.0005
7393.00,1.0089
7392.00,1.0173
7391.00,1.0258
7390.00,1.0342
7389.00,1.0422
7388.00,1.0502
7387.00,1.0586
7386.00,1.0676
7385.00,1.0765
7384.00,1.0845
7383.00,1.0913
7382.00,1.0977
7381.00,1.1042
7380.00,1.1108
7379.00,1.1170
7378.00,1.1226
7377.00,1.1281
7376.00,1.1337
7375.00,1.1393
7374.00,1.1448
7373.00,1.1502
7372.00,1.1553
7371.00,1.1595
7370.00,1.1623
7369.00,1.1643
7368.00,1.1666
7367.00,1.1694
7366.00,1.1716
7365.00,1.1728
7364.00,1.1734
7363.00,1.1746
7362.00,1.1764
7361.00,1.1781
7360.00,1.1791
7359.00,1.1797
7358.00,1.1800
7357.00,1.1795
7356.00,1.1779
7355.00,1.1755
7354.00,1.1730
7353.00,1.1708
7352.00,1.1687
7351.00,1.1662
7350.00,1.1633
7349.00,1.1602
7348.00,1.1568
7347.00,1.1531
7346.00,1.1491
7345.00,1.1446
7344.00,1.1394
7343.00,1.1333
7342.00,1.1266
7341.00,1.1196
7340.00,1.1124
7339.00,1.1047
7338.00,1.0964
7337.00,1.0876
7336.00,1.0788
7335.00,1.0702
7334.00,1.0620
7333.00,1.0538
7332.00,1.0454
7331.00,1.0366
7330.00,1.0273
7329.00,1.0173
7328.00,1.0069
7327.00,0.9964
7326.00,0.9859
7325.00,0.9757
7324.00,0.9656
7323.00,0.9557
7322.00,0.9460
7321.00,0.9363
7320.00,0.9266
7319.00,0.9171
7318.00,0.9078
7317.00,0.8987
7316.00,0.8897
7315.00,0.8810
7314.00,0.8728
7313.00,0.8648
7312.00,0.8568
7311.00,0.8490
7310.00,0.8416
7309.00,0.8347
7308.00,0.8282
7307.00,0.8219
7306.00,0.8160
7305.00,0.8108
7304.00,0.8063
7303.00,0.8020
7302.00,0.7980
7301.00,0.7944
7300.00,0.7916
7299.00,0.7898
7298.00,0.7888
7297.00,0.7884
7296.00,0.7883
7295.00,0.7886
7294.00,0.7891
7293.00,0.7903
7292.00,0.7921
7291.00,0.7943
7290.00,0.7969
7289.00,0.7998
7288.00,0.8035
7287.00,0.8081
7286.00,0.8134
7285.00,0.8190
7284.00,0.8248
7283.00,0.8306
7282.00,0.8366
7281.00,0.8428
7280.00,0.8494
7279.00,0.8563
7278.00,0.8636
7277.00,0.8713
7276.00,0.8796
7275.00,0.8883
7274.00,0.8973
7273.00,0.9062
7272.00,0.9149
7271.00,0.9237
7270.00,0.9323
7269.00,0.9404
7268.00,0.9479
7267.00,0.9551
7266.00,0.9626
7265.00,0.9706
7264.00,0.9789
7263.00,0.9872
7262.00,0.9960
7261.00,1.0055
7260.00,1.0156
7259.00,1.0253
7258.00,1.0339
7257.00,1.0413
7256.00,1.0481
7255.00,1.0550
7254.00,1.0619
7253.00,1.0683
7252.00,1.0743
7251.00,1.0803
7250.00,1.0868
7249.00,1.0932
7248.00,1.0988
7247.00,1.1034
7246.00,1.1073
7245.00,1.1113
7244.00,1.1156
7243.00,1.1202
7242.00,1.1249
7241.00,1.1297
7240.00,1.1346
7239.00,1.1396
7238.00,1.1444
7237.00,1.1484
7236.00,1.1511
7235.00,1.1521
7234.00,1.1520
7233.00,1.1518
7232.00,1.1520
7231.00,1.1523
7230.00,1.1527
7229.00,1.1532
7228.00,1.1539
7227.00,1.1544
7226.00,1.1544
7225.00,1.1536
7224.00,1.1522
7223.00,1.1503
7222.00,1.1484
7221.00,1.1467
7220.00,1.1452
7219.00,1.1432
7218.00,1.1403
7217.00,1.1365
7216.00,1.1326
7215.00,1.1286
7214.00,1.1244
7213.00,1.1195
7212.00,1.1140
7211.00,1.1081
7210.00,1.1022
7209.00,1.0961
7208.00,1.0898
7207.00,1.0830
7206.00,1.0760
7205.00,1.0691
7204.00,1.0623
7203.00,1.0552
7202.00,1.0474
7201.00,1.0390
7200.00,1.0303
7199.00,1.0217
7198.00,1.0132
7197.00,1.0046
7196.00,0.9957
7195.00,0.9868
7194.00,0.9778
7193.00,0.9687
7192.00,0.9591
7191.00,0.9489
7190.00,0.9386
7189.00,0.9287
7188.00,0.9194
7187.00,0.9102
7186.00,0.9008
7185.00,0.8914
7184.00,0.8824
7183.00,0.8740
7182.00,0.8660
7181.00,0.8579
7180.00,0.8500
7179.00,0.8425
7178.00,0.8356
7177.00,0.8288
7176.00,0.8220
7175.00,0.8153
7174.00,0.8091
7173.00,0.8036
7172.00,0.7987
7171.00,0.7944
7170.00,0.7909
7169.00,0.7881
7168.00,0.7858
7167.00,0.7839
7166.00,0.7825
7165.00,0.7817
7164.00,0.7815
7163.00,0.7820
7162.00,0.7830
7161.00,0.7848
7160.00,0.7870
7159.00,0.7895
7158.00,0.7926
7157.00,0.7961
7156.00,0.8000
7155.00,0.8042
7154.00,0.8090
7153.00,0.8144
7152.00,0.8205
7151.00,0.8268
7150.00,0.8333
7149.00,0.8401
7148.00,0.8473
7147.00,0.8549
7146.00,0.8629
7145.00,0.8710
7144.00,0.8792
7143.00,0.8878
7142.00,0.8966
7141.00,0.9058
7140.00,0.9150
7139.00,0.9242
7138.00,0.9334
7137.00,0.9428
7136.00,0.9525
7135.00,0.9621
7134.00,0.9714
7133.00,0.9803
7132.00,0.9891
7131.00,0.9982
7130.00,1.0076
7129.00,1.0169
7128.00,1.0257
7127.00,1.0343
7126.00,1.0430
7125.00,1.0520
7124.00,1.0610
7123.00,1.0695
7122.00,1.0775
7121.00,1.0855
7120.00,1.0935
7119.00,1.1012
7118.00,1.1084
7117.00,1.1151
7116.00,1.1216
7115.00,1.1280
7114.00,1.1344
7113.00,1.1408
7112.00,1.1469
7111.00,1.1528
7110.00,1.1581
7109.00,1.1626
7108.00,1.1664
7107.00,1.1696
7106.00,1.1730
7105.00,1.1767
7104.00,1.1808
7103.00,1.1847
7102.00,1.1882
7101.00,1.1913
7100.00,1.1942
7099.00,1.1965
7098.00,1.1979
7097.00,1.1984
7096.00,1.1986
7095.00,1.1990
7094.00,1.1995
7093.00,1.1996
7092.00,1.1990
7091.00,1.1975
7090.00,1.1954
7089.00,1.1925
7088.00,1.1891
7087.00,1.1854
7086.00,1.1816
7085.00,1.1780
7084.00,1.1746
7083.00,1.1715
7082.00,1.1681
7081.00,1.1638
7080.00,1.1586
7079.00,1.1528
7078.00,1.1469
7077.00,1.1405
7076.00,1.1334
7075.00,1.1257
7074.00,1.1179
7073.00,1.1101
7072.00,1.1016
7071.00,1.0924
7070.00,1.0830
7069.00,1.0740
7068.00,1.0652
7067.00,1.0561
7066.00,1.0465
7065.00,1.0368
7064.00,1.0273
7063.00,1.0176
7062.00,1.0073
7061.00,0.9967
7060.00,0.9859
7059.00,0.9753
7058.00,0.9647
7057.00,0.9540
7056.00,0.9434
7055.00,0.9329
7054.00,0.9226
7053.00,0.9125
7052.00,0.9028
7051.00,0.8933
7050.00,0.8842
7049.00,0.8754
7048.00,0.8669
7047.00,0.8585
7046.00,0.8502
7045.00,0.8421
7044.00,0.8345
7043.00,0.8277
7042.00,0.8214
7041.00,0.8155
7040.00,0.8101
7039.00,0.8055
7038.00,0.8017
7037.00,0.7986
7036.00,0.7956
7035.00,0.7927
7034.00,0.7903
7033.00,0.7886
7032.00,0.7876
7031.00,0.7871
7030.00,0.7871
7029.00,0.7877
7028.00,0.7892
7027.00,0.7914
7026.00,0.7942
7025.00,0.7974
7024.00,0.8011
7023.00,0.8053
7022.00,0.8100
7021.00,0.8153
7020.00,0.8212
7019.00,0.8274
7018.00,0.8341
7017.00,0.8411
7016.00,0.8484
7015.00,0.8559
7014.00,0.8634
7013.00,0.8713
7012.00,0.8795
7011.00,0.8880
7010.00,0.8968
7009.00,0.9058
7008.00,0.9149
7007.00,0.9240
7006.00,0.9331
7005.00,0.9421
7004.00,0.9510
7003.00,0.9601
7002.00,0.9694
7001.00,0.9788
7000.00,0.9880
6999.00,0.9971
6998.00,1.0061
6997.00,1.0151
6996.00,1.0237
6995.00,1.0321
6994.00,1.0403
6993.00,1.0485
6992.00,1.0568
6991.00,1.0649
6990.00,1.0727
6989.00,1.0807
6988.00,1.0888
6987.00,1.0966
6986.00,1.1040
6985.00,1.1110
6984.00,1.1178
6983.00,1.1245
6982.00,1.1307
6981.00,1.1367
6980.00,1.1425
6979.00,1.1486
6978.00,1.1546
6977.00,1.1602
6976.00,1.1651
6975.00,1.1693
6974.00,1.1730
6973.00,1.1764
6972.00,1.1794
6971.00,1.1819
6970.00,1.1840
6969.00,1.1859
6968.00,1.1876
6967.00,1.1890
6966.00,1.1899
6965.00,1.1907
6964.00,1.1914
6963.00,1.1918
6962.00,1.1914
6961.00,1.1906
6960.00,1.1898
6959.00,1.1889
6958.00,1.1872
6957.00,1.1844
6956.00,1.1811
6955.00,1.1778
6954.00,1.1746
6953.00,1.1712
6952.00,1.1677
6951.00,1.1641
6950.00,1.1600
6949.00,1.1552
6948.00,1.1496
6947.00,1.1435
6946.00,1.1374
6945.00,1.1310
6944.00,1.1243
6943.00,1.1176
6942.00,1.1108
6941.00,1.1040
6940.00,1.0966
6939.00,1.0885
6938.00,1.0796
6937.00,1.0702
6936.00,1.0604
6935.00,1.0506
6934.00,1.0409
6933.00,1.0314
6932.00,1.0218
6931.00,1.0122
6930.00,1.0025
6929.00,0.9926
6928.00,0.9823
6927.00,0.9717
6926.00,0.9609
6925.00,0.9502
6924.00,0.9397
6923.00,0.9294
6922.00,0.9195
6921.00,0.9097
6920.00,0.8998
6919.00,0.8899
6918.00,0.8801
6917.00,0.8706
6916.00,0.8614
6915.00,0.8526
6914.00,0.8442
6913.00,0.8364
6912.00,0.8292
6911.00,0.8224
6910.00,0.8160
6909.00,0.8099
6908.00,0.8042
6907.00,0.7989
6906.00,0.7941
6905.00,0.7900
6904.00,0.7866
6903.00,0.7838
6902.00,0.7816
6901.00,0.7800
6900.00,0.7791
6899.00,0.7787
6898.00,0.7788
6897.00,0.7795
6896.00,0.7809
6895.00,0.7830
6894.00,0.7859
6893.00,0.7894
6892.00,0.7933
6891.00,0.7976
6890.00,0.8022
6889.00,0.8072
6888.00,0.8127
6887.00,0.8189
6886.00,0.8258
6885.00,0.8332
6884.00,0.8410
6883.00,0.8488
6882.00,0.8568
6881.00,0.8648
6880.00,0.8728
6879.00,0.8809
6878.00,0.8892
6877.00,0.8980
6876.00,0.9072
6875.00,0.9168
6874.00,0.9266
6873.00,0.9364
6872.00,0.9463
6871.00,0.9562
6870.00,0.9660
6869.00,0.9757
6868.00,0.9850
6867.00,0.9939
6866.00,1.0028
6865.00,1.0118
6864.00,1.0211
6863.00,1.0303
6862.00,1.0397
6861.00,1.0492
6860.00,1.0588
6859.00,1.0682
6858.00,1.0772
6857.00,1.0857
6856.00,1.0938
6855.00,1.1016
6854.00,1.1092
6853.00,1.1169
6852.00,1.1245
6851.00,1.1318
6850.00,1.1389
6849.00,1.1458
6848.00,1.1526
6847.00,1.1589
6846.00,1.1646
6845.00,1.1697
6844.00,1.1746
6843.00,1.1792
6842.00,1.1836
6841.00,1.1880
6840.00,1.1922
6839.00,1.1959
6838.00,1.1990
6837.00,1.2018
6836.00,1.2043
6835.00,1.2068
6834.00,1.2090
6833.00,1.2109
6832.00,1.2126
6831.00,1.2139
6830.00,1.2147
6829.00,1.2149
6828.00,1.2144
6827.00,1.2135
6826.00,1.2125
6825.00,1.2111
6824.00,1.2092
6823.00,1.2063
6822.00,1.2030
6821.00,1.1995
6820.00,1.1961
6819.00,1.1926
6818.00,1.1887
6817.00,1.1843
6816.00,1.1794
6815.00,1.1738
6814.00,1.1672
6813.00,1.1598
6812.00,1.1522
6811.00,1.1445
6810.00,1.1370
6809.00,1.1295
6808.00,1.1219
6807.00,1.1140
6806.00,1.1056
6805.00,1.0965
6804.00,1.0868
6803.00,1.0767
6802.00,1.0664
6801.00,1.0560
6800.00,1.0452
6799.00,1.0342
6798.00,1.0232
6797.00,1.0124
6796.00,1.0018
6795.00,0.9913
6794.00,0.9807
6793.00,0.9701
6792.00,0.9594
6791.00,0.9489
6790.00,0.9384
6789.00,0.9278
6788.00,0.9172
6787.00,0.9066
6786.00,0.8961
6785.00,0.8860
6784.00,0.8763
6783.00,0.8667
6782.00,0.8575
6781.00,0.8487
6780.00,0.8405
6779.00,0.8329
6778.00,0.8258
6777.00,0.8190
6776.00,0.8127
6775.00,0.8069
6774.00,0.8017
6773.00,0.7970
6772.00,0.7928
6771.00,0.7892
6770.00,0.7862
6769.00,0.7840
6768.00,0.7825
6767.00,0.7816
6766.00,0.7813
6765.00,0.7815
6764.00,0.7824
6763.00,0.7841
6762.00,0.7864
6761.00,0.7894
6760.00,0.7931
6759.00,0.7972
6758.00,0.8019
6757.00,0.8068
6756.00,0.8121
6755.00,0.8179
6754.00,0.8242
6753.00,0.8310
6752.00,0.8383
6751.00,0.8461
6750.00,0.8544
6749.00,0.8630
6748.00,0.8715
6747.00,0.8801
6746.00,0.8889
6745.00,0.8980
6744.00,0.9073
6743.00,0.9167
6742.00,0.9263
6741.00,0.9361
6740.00,0.9460
6739.00,0.9556
6738.00,0.9651
6737.00,0.9747
6736.00,0.9843
6735.00,0.9942
6734.00,1.0041
6733.00,1.0140
6732.00,1.0238
6731.00,1.0333
6730.00,1.0423
6729.00,1.0508
6728.00,1.0591
6727.00,1.0671
6726.00,1.0752
6725.00,1.0834
6724.00,1.0918
6723.00,1.1002
6722.00,1.1085
6721.00,1.1165
6720.00,1.1240
6719.00,1.1312
6718.00,1.1382
6717.00,1.1448
6716.00,1.1509
6715.00,1.1565
6714.00,1.1619
6713.00,1.1671
6712.00,1.1721
6711.00,1.1769
6710.00,1.1815
6709.00,1.1856
6708.00,1.1891
6707.00,1.1921
6706.00,1.1949
6705.00,1.1975
6704.00,1.1997
6703.00,1.2014
6702.00,1.2028
6701.00,1.2039
6700.00,1.2044
6699.00,1.2042
6698.00,1.2034
6697.00,1.2021
6696.00,1.2009
6695.00,1.1998
6694.00,1.1988
6693.00,1.1980
6692.00,1.1969
6691.00,1.1952
6690.00,1.1925
6689.00,1.1890
6688.00,1.1848
6687.00,1.1800
6686.00,1.1749
6685.00,1.1694
6684.00,1.1639
6683.00,1.1582
6682.00,1.1523
6681.00,1.1460
6680.00,1.1389
6679.00,1.1313
6678.00,1.1234
6677.00,1.1156
6676.00,1.1078
6675.00,1.1000
6674.00,1.0920
6673.00,1.0840
6672.00,1.0757
6671.00,1.0669
6670.00,1.0574
6669.00,1.0474
6668.00,1.0372
6667.00,1.0269
6666.00,1.0163
6665.00,1.0055
6664.00,0.9947
6663.00,0.9841
6662.00,0.9738
6661.00,0.9634
6660.00,0.9527
6659.00,0.9420
6658.00,0.9316
6657.00,0.9216
6656.00,0.9117
6655.00,0.9015
6654.00,0.8915
6653.00,0.8816
6652.00,0.8720
6651.00,0.8625
6650.00,0.8531
6649.00,0.8440
6648.00,0.8354
6647.00,0.8274
6646.00,0.8199
6645.00,0.8128
6644.00,0.8062
6643.00,0.8000
6642.00,0.7944
6641.00,0.7895
6640.00,0.7853
6639.00,0.7817
6638.00,0.7788
6637.00,0.7766
6636.00,0.7748
6635.00,0.7736
6634.00,0.7731
6633.00,0.7733
6632.00,0.7741
6631.00,0.7755
6630.00,0.7775
6629.00,0.7803
6628.00,0.7837
6627.00,0.7877
6626.00,0.7923
6625.00,0.7976
6624.00,0.8033
6623.00,0.8095
6622.00,0.8160
6621.00,0.8228
6620.00,0.8299
6619.00,0.8372
6618.00,0.8449
6617.00,0.8532
6616.00,0.8618
6615.00,0.8707
6614.00,0.8797
6613.00,0.8891
6612.00,0.8990
6611.00,0.9091
6610.00,0.9195
6609.00,0.9300
6608.00,0.9405
6607.00,0.9509
6606.00,0.9614
6605.00,0.9720
6604.00,0.9826
6603.00,0.9928
6602.00,1.0028
6601.00,1.0128
6600.00,1.0230
6599.00,1.0330
6598.00,1.0426
6597.00,1.0519
6596.00,1.0614
6595.00,1.0710
6594.00,1.0808
6593.00,1.0904
6592.00,1.0996
6591.00,1.1081
6590.00,1.1163
6589.00,1.1242
6588.00,1.1320
6587.00,1.1395
6586.00,1.1466
6585.00,1.1536
6584.00,1.1609
6583.00,1.1684
6582.00,1.1757
6581.00,1.1826
6580.00,1.1888
6579.00,1.1945
6578.00,1.1997
6577.00,1.2045
6576.00,1.2085
6575.00,1.2119
6574.00,1.2150
6573.00,1.2183
6572.00,1.2215
6571.00,1.2242
6570.00,1.2263
6569.00,1.2280
6568.00,1.2294
6567.00,1.2305
6566.00,1.2312
6565.00,1.2314
6564.00,1.2317
6563.00,1.2318
6562.00,1.2316
6561.00,1.2307
6560.00,1.2292
6559.00,1.2271
6558.00,1.2246
6557.00,1.2216
6556.00,1.2184
6555.00,1.2150
6554.00,1.2114
6553.00,1.2073
6552.00,1.2027
6551.00,1.1976
6550.00,1.1920
6549.00,1.1858
6548.00,1.1789
6547.00,1.1715
6546.00,1.1638
6545.00,1.1558
6544.00,1.1476
6543.00,1.1388
6542.00,1.1298
6541.00,1.1207
6540.00,1.1116
6539.00,1.1022
6538.00,1.0925
6537.00,1.0824
6536.00,1.0721
6535.00,1.0613
6534.00,1.0498
6533.00,1.0381
6532.00,1.0263
6531.00,1.0149
6530.00,1.0035
6529.00,0.9922
6528.00,0.9807
6527.00,0.9692
6526.00,0.9577
6525.00,0.9463
6524.00,0.9350
6523.00,0.9239
6522.00,0.9129
6521.00,0.9019
6520.00,0.8911
6519.00,0.8802
6518.00,0.8696
6517.00,0.8595
6516.00,0.8501
6515.00,0.8413
6514.00,0.8330
6513.00,0.8253
6512.00,0.8182
6511.00,0.8115
6510.00,0.8053
6509.00,0.7996
6508.00,0.7944
6507.00,0.7900
6506.00,0.7862
6505.00,0.7830
6504.00,0.7804
6503.00,0.7785
6502.00,0.7774
6501.00,0.7771
6500.00,0.7774
6499.00,0.7784
6498.00,0.7802
6497.00,0.7827
6496.00,0.7857
6495.00,0.7892
6494.00,0.7933
6493.00,0.7983
6492.00,0.8038
6491.00,0.8099
6490.00,0.8164
6489.00,0.8234
6488.00,0.8309
6487.00,0.8387
6486.00,0.8470
6485.00,0.8555
6484.00,0.8644
6483.00,0.8734
6482.00,0.8827
6481.00,0.8922
6480.00,0.9018
6479.00,0.9115
6478.00,0.9214
6477.00,0.9315
6476.00,0.9419
6475.00,0.9522
6474.00,0.9624
6473.00,0.9725
6472.00,0.9825
6471.00,0.9925
6470.00,1.0024
6469.00,1.0124
6468.00,1.0225
6467.00,1.0326
6466.00,1.0427
6465.00,1.0527
6464.00,1.0626
6463.00,1.0725
6462.00,1.0820
6461.00,1.0911
6460.00,1.0996
6459.00,1.1078
6458.00,1.1159
6457.00,1.1239
6456.00,1.1317
6455.00,1.1391
6454.00,1.1464
6453.00,1.1536
6452.00,1.1605
6451.00,1.1671
6450.00,1.1732
6449.00,1.1791
6448.00,1.1848
6447.00,1.1902
6446.00,1.1951
6445.00,1.1993
6444.00,1.2030
6443.00,1.2066
6442.00,1.2103
6441.00,1.2138
6440.00,1.2171
6439.00,1.2200
6438.00,1.2223
6437.00,1.2238
6436.00,1.2244
6435.00,1.2243
6434.00,1.2240
6433.00,1.2235
6432.00,1.2230
6431.00,1.2224
6430.00,1.2217
6429.00,1.2207
6428.00,1.2192
6427.00,1.2169
6426.00,1.2140
6425.00,1.2110
6424.00,1.2079
6423.00,1.2046
6422.00,1.2009
6421.00,1.1966
6420.00,1.1915
6419.00,1.1858
6418.00,1.1799
6417.00,1.1740
6416.00,1.1683
6415.00,1.1622
6414.00,1.1557
6413.00,1.1483
6412.00,1.1403
6411.00,1.1316
6410.00,1.1223
6409.00,1.1128
6408.00,1.1033
6407.00,1.0939
6406.00,1.0846
6405.00,1.0751
6404.00,1.0652
6403.00,1.0550
6402.00,1.0445
6401.00,1.0339
6400.00,1.0230
6399.00,1.0120
6398.00,1.0008
6397.00,0.9897
6396.00,0.9786
6395.00,0.9673
6394.00,0.9559
6393.00,0.9445
6392.00,0.9332
6391.00,0.9219
6390.00,0.9105
6389.00,0.8993
6388.00,0.8884
6387.00,0.8779
6386.00,0.8678
6385.00,0.8580
6384.00,0.8485
6383.00,0.8394
6382.00,0.8307
6381.00,0.8225
6380.00,0.8147
6379.00,0.8073
6378.00,0.8004
6377.00,0.7943
6376.00,0.7889
6375.00,0.7843
6374.00,0.7805
6373.00,0.7773
6372.00,0.7747
6371.00,0.7726
6370.00,0.7712
6369.00,0.7705
6368.00,0.7705
6367.00,0.7713
6366.00,0.7729
6365.00,0.7754
6364.00,0.7787
6363.00,0.7826
6362.00,0.7868
6361.00,0.7916
6360.00,0.7969
6359.00,0.8028
6358.00,0.8095
6357.00,0.8169
6356.00,0.8247
6355.00,0.8328
6354.00,0.8412
6353.00,0.8499
6352.00,0.8588
6351.00,0.8679
6350.00,0.8775
6349.00,0.8875
6348.00,0.8978
6347.00,0.9081
6346.00,0.9184
6345.00,0.9288
6344.00,0.9392
6343.00,0.9497
6342.00,0.9604
6341.00,0.9714
6340.00,0.9827
6339.00,0.9939
6338.00,1.0048
6337.00,1.0155
6336.00,1.0261
6335.00,1.0367
6334.00,1.0472
6333.00,1.0579
6332.00,1.0685
6331.00,1.0790
6330.00,1.0890
6329.00,1.0986
6328.00,1.1079
6327.00,1.1172
6326.00,1.1265
6325.00,1.1357
6324.00,1.1446
6323.00,1.1532
6322.00,1.1615
6321.00,1.1695
6320.00,1.1769
6319.00,1.1839
6318.00,1.1907
6317.00,1.1973
6316.00,1.2036
6315.00,1.2095
6314.00,1.2150
6313.00,1.2203
6312.00,1.2254
6311.00,1.2301
6310.00,1.2342
6309.00,1.2378
6308.00,1.2410
6307.00,1.2438
6306.00,1.2465
6305.00,1.2489
6304.00,1.2512
6303.00,1.2530
6302.00,1.2541
6301.00,1.2547
6300.00,1.2550
6299.00,1.2549
6298.00,1.2548
6297.00,1.2545
6296.00,1.2539
6295.00,1.2529
6294.00,1.2511
6293.00,1.2484
6292.00,1.2450
6291.00,1.2413
6290.00,1.2373
6289.00,1.2330
6288.00,1.2284
6287.00,1.2235
6286.00,1.2182
6285.00,1.2125
6284.00,1.2062
6283.00,1.1992
6282.00,1.1917
6281.00,1.1838
6280.00,1.1755
6279.00,1.1667
6278.00,1.1576
6277.00,1.1483
6276.00,1.1387
6275.00,1.1289
6274.00,1.1186
6273.00,1.1081
6272.00,1.0972
6271.00,1.0859
6270.00,1.0743
6269.00,1.0625
6268.00,1.0507
6267.00,1.0389
6266.00,1.0270
6265.00,1.0150
6264.00,1.0029
6263.00,0.9906
6262.00,0.9783
6261.00,0.9657
6260.00,0.9531
6259.00,0.9406
6258.00,0.9285
6257.00,0.9167
6256.00,0.9052
6255.00,0.8939
6254.00,0.8829
6253.00,0.8721
6252.00,0.8615
6251.00,0.8512
6250.00,0.8414
6249.00,0.8322
6248.00,0.8237
6247.00,0.8157
6246.00,0.8083
6245.00,0.8016
6244.00,0.7954
6243.00,0.7898
6242.00,0.7849
6241.00,0.7807
6240.00,0.7773
6239.00,0.7747
6238.00,0.7729
6237.00,0.7720
6236.00,0.7719
6235.00,0.7724
6234.00,0.7735
6233.00,0.7753
6232.00,0.7778
6231.00,0.7811
6230.00,0.7850
6229.00,0.7897
6228.00,0.7951
6227.00,0.8012
6226.00,0.8078
6225.00,0.8150
6224.00,0.8225
6223.00,0.8304
6222.00,0.8388
6221.00,0.8476
6220.00,0.8567
6219.00,0.8661
6218.00,0.8759
6217.00,0.8860
6216.00,0.8963
6215.00,0.9066
6214.00,0.9169
6213.00,0.9273
6212.00,0.9378
6211.00,0.9486
6210.00,0.9596
6209.00,0.9708
6208.00,0.9819
6207.00,0.9928
6206.00,1.0037
6205.00,1.0144
6204.00,1.0250
6203.00,1.0355
6202.00,1.0459
6201.00,1.0564
6200.00,1.0668
6199.00,1.0771
6198.00,1.0870
6197.00,1.0964
6196.00,1.1055
6195.00,1.1144
6194.00,1.1230
6193.00,1.1313
6192.00,1.1393
6191.00,1.1472
6190.00,1.1553
6189.00,1.1635
6188.00,1.1715
6187.00,1.1790
6186.00,1.1859
6185.00,1.1922
6184.00,1.1979
6183.00,1.2029
6182.00,1.2075
6181.00,1.2120
6180.00,1.2165
6179.00,1.2209
6178.00,1.2251
6177.00,1.2291
6176.00,1.2326
6175.00,1.2357
6174.00,1.2382
6173.00,1.2403
6172.00,1.2420
6171.00,1.2436
6170.00,1.2451
6169.00,1.2464
6168.00,1.2473
6167.00,1.2476
6166.00,1.2472
6165.00,1.2462
6164.00,1.2445
6163.00,1.2425
6162.00,1.2402
6161.00,1.2379
6160.00,1.2353
6159.00,1.2324
6158.00,1.2290
6157.00,1.2254
6156.00,1.2215
6155.00,1.2171
6154.00,1.2122
6153.00,1.2069
6152.00,1.2010
6151.00,1.1947
6150.00,1.1878
6149.00,1.1806
6148.00,1.1733
6147.00,1.1656
6146.00,1.1574
6145.00,1.1486
6144.00,1.1393
6143.00,1.1298
6142.00,1.1201
6141.00,1.1102
6140.00,1.1001
6139.00,1.0897
6138.00,1.0788
6137.00,1.0674
6136.00,1.0554
6135.00,1.0433
6134.00,1.0312
6133.00,1.0193
6132.00,1.0073
6131.00,0.9953
6130.00,0.9831
6129.00,0.9705
6128.00,0.9578
6127.00,0.9449
6126.00,0.9323
6125.00,0.9200
6124.00,0.9080
6123.00,0.8964
6122.00,0.8851
6121.00,0.8741
6120.00,0.8634
6119.00,0.8530
6118.00,0.8430
6117.00,0.8335
6116.00,0.8245
6115.00,0.8160
6114.00,0.8081
6113.00,0.8009
6112.00,0.7943
6111.00,0.7884
6110.00,0.7833
6109.00,0.7790
6108.00,0.7754
6107.00,0.7725
6106.00,0.7705
6105.00,0.7693
6104.00,0.7688
6103.00,0.7690
6102.00,0.7700
6101.00,0.7718
6100.00,0.7745
6099.00,0.7777
6098.00,0.7817
6097.00,0.7864
6096.00,0.7918
6095.00,0.7977
6094.00,0.8042
6093.00,0.8113
6092.00,0.8192
6091.00,0.8275
6090.00,0.8362
6089.00,0.8454
6088.00,0.8550
6087.00,0.8649
6086.00,0.8751
6085.00,0.8855
6084.00,0.8961
6083.00,0.9068
6082.00,0.9177
6081.00,0.9287
6080.00,0.9400
6079.00,0.9516
6078.00,0.9634
6077.00,0.9751
6076.00,0.9867
6075.00,0.9982
6074.00,1.0095
6073.00,1.0208
6072.00,1.0320
6071.00,1.0432
6070.00,1.0545
6069.00,1.0658
6068.00,1.0769
6067.00,1.0878
6066.00,1.0985
6065.00,1.1090
6064.00,1.1192
6063.00,1.1290
6062.00,1.1386
6061.00,1.1480
6060.00,1.1572
6059.00,1.1662
6058.00,1.1751
6057.00,1.1839
6056.00,1.1924
6055.00,1.2005
6054.00,1.2082
6053.00,1.2156
6052.00,1.2229
6051.00,1.2298
6050.00,1.2359
6049.00,1.2414
6048.00,1.2466
6047.00,1.2515
6046.00,1.2562
6045.00,1.2604
6044.00,1.2644
6043.00,1.2682
6042.00,1.2716
6041.00,1.2742
6040.00,1.2760
6039.00,1.2771
6038.00,1.2779
6037.00,1.2788
6036.00,1.2796
6035.00,1.2802
6034.00,1.2805
6033.00,1.2803
6032.00,1.2794
6031.00,1.2778
6030.00,1.2754
6029.00,1.2725
6028.00,1.2692
6027.00,1.2658
6026.00,1.2620
6025.00,1.2580
6024.00,1.2537
6023.00,1.2489
6022.00,1.2435
6021.00,1.2374
6020.00,1.2308
6019.00,1.2239
6018.00,1.2167
6017.00,1.2092
6016.00,1.2014
6015.00,1.1933
6014.00,1.1848
6013.00,1.1758
6012.00,1.1661
6011.00,1.1557
6010.00,1.1449
6009.00,1.1337
6008.00,1.1224
6007.00,1.1110
6006.00,1.0994
6005.00,1.0877
6004.00,1.0756
6003.00,1.0632
6002.00,1.0505
6001.00,1.0375
6000.00,1.0241
5999.00,1.0106
5998.00,0.9972
5997.00,0.9839
5996.00,0.9706
5995.00,0.9575
5994.00,0.9444
5993.00,0.9315
5992.00,0.9188
5991.00,0.9062
5990.00,0.8940
5989.00,0.8820
5988.00,0.8705
5987.00,0.8593
5986.00,0.8486
5985.00,0.8385
5984.00,0.8289
5983.00,0.8198
5982.00,0.8114
5981.00,0.8037
5980.00,0.7966
5979.00,0.7901
5978.00,0.7846
5977.00,0.7798
5976.00,0.7759
5975.00,0.7726
5974.00,0.7702
5973.00,0.7686
5972.00,0.7678
5971.00,0.7678
5970.00,0.7686
5969.00,0.7705
5968.00,0.7732
5967.00,0.7765
5966.00,0.7806
5965.00,0.7853
5964.00,0.7906
5963.00,0.7966
5962.00,0.8032
5961.00,0.8106
5960.00,0.8187
5959.00,0.8274
5958.00,0.8365
5957.00,0.8459
5956.00,0.8555
5955.00,0.8654
5954.00,0.8757
5953.00,0.8865
5952.00,0.8977
5951.00,0.9092
5950.00,0.9209
5949.00,0.9327
5948.00,0.9446
5947.00,0.9566
5946.00,0.9687
5945.00,0.9811
5944.00,0.9936
5943.00,1.0058
5942.00,1.0179
5941.00,1.0297
5940.00,1.0412
5939.00,1.0527
5938.00,1.0643
5937.00,1.0760
5936.00,1.0877
5935.00,1.0993
5934.00,1.1106
5933.00,1.1217
5932.00,1.1325
5931.00,1.1430
5930.00,1.1531
5929.00,1.1630
5928.00,1.1726
5927.00,1.1821
5926.00,1.1914
5925.00,1.2006
5924.00,1.2098
5923.00,1.2186
5922.00,1.2271
5921.00,1.2351
5920.00,1.2425
5919.00,1.2494
5918.00,1.2559
5917.00,1.2619
5916.00,1.2676
5915.00,1.2730
5914.00,1.2782
5913.00,1.2832
5912.00,1.2876
5911.00,1.2916
5910.00,1.2950
5909.00,1.2979
5908.00,1.3004
5907.00,1.3024
5906.00,1.3039
5905.00,1.3051
5904.00,1.3059
5903.00,1.3064
5902.00,1.3064
5901.00,1.3058
5900.00,1.3045
5899.00,1.3026
5898.00,1.3005
5897.00,1.2981
5896.00,1.2954
5895.00,1.2924
5894.00,1.2891
5893.00,1.2853
5892.00,1.2808
5891.00,1.2757
5890.00,1.2701
5889.00,1.2643
5888.00,1.2582
5887.00,1.2517
5886.00,1.2447
5885.00,1.2374
5884.00,1.2295
5883.00,1.2210
5882.00,1.2119
5881.00,1.2025
5880.00,1.1927
5879.00,1.1826
5878.00,1.1721
5877.00,1.1615
5876.00,1.1506
5875.00,1.1393
5874.00,1.1276
5873.00,1.1155
5872.00,1.1033
5871.00,1.0907
5870.00,1.0779
5869.00,1.0651
5868.00,1.0522
5867.00,1.0392
5866.00,1.0262
5865.00,1.0132
5864.00,1.0001
5863.00,0.9872
5862.00,0.9743
5861.00,0.9615
5860.00,0.9486
5859.00,0.9357
5858.00,0.9229
5857.00,0.9105
5856.00,0.8985
5855.00,0.8868
5854.00,0.8757
5853.00,0.8652
5852.00,0.8553
5851.00,0.8458
5850.00,0.8368
5849.00,0.8283
5848.00,0.8206
5847.00,0.8135
5846.00,0.8073
5845.00,0.8019
5844.00,0.7974
5843.00,0.7935
5842.00,0.7905
5841.00,0.7883
5840.00,0.7869
5839.00,0.7864
5838.00,0.7867
5837.00,0.7879
5836.00,0.7900
5835.00,0.7929
5834.00,0.7965
5833.00,0.8008
5832.00,0.8059
5831.00,0.8117
5830.00,0.8182
5829.00,0.8251
5828.00,0.8326
5827.00,0.8406
5826.00,0.8492
5825.00,0.8583
5824.00,0.8679
5823.00,0.8780
5822.00,0.8884
5821.00,0.8991
5820.00,0.9100
5819.00,0.9209
5818.00,0.9320
5817.00,0.9432
5816.00,0.9546
5815.00,0.9662
5814.00,0.9781
5813.00,0.9902
5812.00,1.0024
5811.00,1.0146
5810.00,1.0266
5809.00,1.0386
5808.00,1.0503
5807.00,1.0618
5806.00,1.0734
5805.00,1.0851
5804.00,1.0969
5803.00,1.1086
5802.00,1.1200
5801.00,1.1311
5800.00,1.1418
5799.00,1.1521
5798.00,1.1622
5797.00,1.1721
5796.00,1.1819
5795.00,1.1916
5794.00,1.2012
5793.00,1.2106
5792.00,1.2195
5791.00,1.2281
5790.00,1.2364
5789.00,1.2447
5788.00,1.2526
5787.00,1.2601
5786.00,1.2670
5785.00,1.2734
5784.00,1.2794
5783.00,1.2849
5782.00,1.2898
5781.00,1.2942
5780.00,1.2981
5779.00,1.3016
5778.00,1.3049
5777.00,1.3081
5776.00,1.3113
5775.00,1.3144
5774.00,1.3173
5773.00,1.3197
5772.00,1.3213
5771.00,1.3221
5770.00,1.3221
5769.00,1.3217
5768.00,1.3211
5767.00,1.3202
5766.00,1.3188
5765.00,1.3169
5764.00,1.3146
5763.00,1.3117
5762.00,1.3085
5761.00,1.3050
5760.00,1.3011
5759.00,1.2968
5758.00,1.2919
5757.00,1.2863
5756.00,1.2800
5755.00,1.2732
5754.00,1.2662
5753.00,1.2590
5752.00,1.2515
5751.00,1.2437
5750.00,1.2354
5749.00,1.2265
5748.00,1.2171
5747.00,1.2073
5746.00,1.1972
5745.00,1.1867
5744.00,1.1759
5743.00,1.1646
5742.00,1.1530
5741.00,1.1413
5740.00,1.1292
5739.00,1.1167
5738.00,1.1040
5737.00,1.0909
5736.00,1.0776
5735.00,1.0639
5734.00,1.0499
5733.00,1.0360
5732.00,1.0221
5731.00,1.0083
5730.00,0.9945
5729.00,0.9807
5728.00,0.9670
5727.00,0.9534
5726.00,0.9398
5725.00,0.9266
5724.00,0.9138
5723.00,0.9016
5722.00,0.8897
5721.00,0.8783
5720.00,0.8673
5719.00,0.8566
5718.00,0.8465
5717.00,0.8368
5716.00,0.8277
5715.00,0.8194
5714.00,0.8118
5713.00,0.8051
5712.00,0.7991
5711.00,0.7940
5710.00,0.7897
5709.00,0.7864
5708.00,0.7839
5707.00,0.7823
5706.00,0.7815
5705.00,0.7817
5704.00,0.7827
5703.00,0.7847
5702.00,0.7875
5701.00,0.7912
5700.00,0.7957
5699.00,0.8008
5698.00,0.8065
5697.00,0.8129
5696.00,0.8200
5695.00,0.8278
5694.00,0.8363
5693.00,0.8454
5692.00,0.8551
5691.00,0.8652
5690.00,0.8755
5689.00,0.8862
5688.00,0.8972
5687.00,0.9084
5686.00,0.9200
5685.00,0.9318
5684.00,0.9438
5683.00,0.9559
5682.00,0.9681
5681.00,0.9804
5680.00,0.9927
5679.00,1.0052
5678.00,1.0177
5677.00,1.0303
5676.00,1.0429
5675.00,1.0556
5674.00,1.0681
5673.00,1.0806
5672.00,1.0929
5671.00,1.1051
5670.00,1.1170
5669.00,1.1287
5668.00,1.1402
5667.00,1.1516
5666.00,1.1629
5665.00,1.1741
5664.00,1.1848
5663.00,1.1951
5662.00,1.2049
5661.00,1.2146
5660.00,1.2242
5659.00,1.2335
5658.00,1.2423
5657.00,1.2509
5656.00,1.2590
5655.00,1.2667
5654.00,1.2739
5653.00,1.2807
5652.00,1.2874
5651.00,1.2938
5650.00,1.2998
5649.00,1.3051
5648.00,1.3100
5647.00,1.3146
5646.00,1.3186
5645.00,1.3221
5644.00,1.3252
5643.00,1.3281
5642.00,1.3308
5641.00,1.3331
5640.00,1.3351
5639.00,1.3364
5638.00,1.3370
5637.00,1.3369
5636.00,1.3361
5635.00,1.3348
5634.00,1.3333
5633.00,1.3315
5632.00,1.3296
5631.00,1.3274
5630.00,1.3247
5629.00,1.3215
5628.00,1.3178
5627.00,1.3135
5626.00,1.3087
5625.00,1.3035
5624.00,1.2978
5623.00,1.2916
5622.00,1.2848
5621.00,1.2773
5620.00,1.2693
5619.00,1.2609
5618.00,1.2521
5617.00,1.2431
5616.00,1.2339
5615.00,1.2244
5614.00,1.2144
5613.00,1.2039
5612.00,1.1929
5611.00,1.1813
5610.00,1.1692
5609.00,1.1568
5608.00,1.1442
5607.00,1.1312
5606.00,1.1179
5605.00,1.1042
5604.00,1.0903
5603.00,1.0762
5602.00,1.0618
5601.00,1.0473
5600.00,1.0326
5599.00,1.0178
5598.00,1.0028
5597.00,0.9878
5596.00,0.9730
5595.00,0.9584
5594.00,0.9441
5593.00,0.9300
5592.00,0.9161
5591.00,0.9025
5590.00,0.8892
5589.00,0.8764
5588.00,0.8641
5587.00,0.8525
5586.00,0.8415
5585.00,0.8311
5584.00,0.8213
5583.00,0.8121
5582.00,0.8036
5581.00,0.7961
5580.00,0.7894
5579.00,0.7837
5578.00,0.7789
5577.00,0.7751
5576.00,0.7722
5575.00,0.7702
5574.00,0.7692
5573.00,0.7691
5572.00,0.7699
5571.00,0.7718
5570.00,0.7746
5569.00,0.7783
5568.00,0.7828
5567.00,0.7881
5566.00,0.7942
5565.00,0.8011
5564.00,0.8088
5563.00,0.8171
5562.00,0.8261
5561.00,0.8357
5560.00,0.8458
5559.00,0.8562
5558.00,0.8670
5557.00,0.8780
5556.00,0.8892
5555.00,0.9007
5554.00,0.9125
5553.00,0.9247
5552.00,0.9372
5551.00,0.9499
5550.00,0.9628
5549.00,0.9756
5548.00,0.9884
5547.00,1.0012
5546.00,1.0139
5545.00,1.0266
5544.00,1.0391
5543.00,1.0515
5542.00,1.0638
5541.00,1.0760
5540.00,1.0880
5539.00,1.0999
5538.00,1.1115
5537.00,1.1230
5536.00,1.1344
5535.00,1.1456
5534.00,1.1567
5533.00,1.1676
5532.00,1.1781
5531.00,1.1882
5530.00,1.1979
5529.00,1.2073
5528.00,1.2165
5527.00,1.2256
5526.00,1.2344
5525.00,1.2428
5524.00,1.2509
5523.00,1.2584
5522.00,1.2657
5521.00,1.2727
5520.00,1.2797
5519.00,1.2863
5518.00,1.2925
5517.00,1.2982
5516.00,1.3036
5515.00,1.3087
5514.00,1.3136
5513.00,1.3181
5512.00,1.3222
5511.00,1.3256
5510.00,1.3283
5509.00,1.3304
5508.00,1.3322
5507.00,1.3338
5506.00,1.3354
5505.00,1.3367
5504.00,1.3377
5503.00,1.3381
5502.00,1.3379
5501.00,1.3372
5500.00,1.3361
5499.00,1.3347
5498.00,1.3327
5497.00,1.3299
5496.00,1.3265
5495.00,1.3225
5494.00,1.3180
5493.00,1.3131
5492.00,1.3081
5491.00,1.3028
5490.00,1.2970
5489.00,1.2908
5488.00,1.2840
5487.00,1.2766
5486.00,1.2684
5485.00,1.2597
5484.00,1.2505
5483.00,1.2407
5482.00,1.2304
5481.00,1.2197
5480.00,1.2086
5479.00,1.1973
5478.00,1.1856
5477.00,1.1735
5476.00,1.1608
5475.00,1.1477
5474.00,1.1340
5473.00,1.1201
5472.00,1.1058
5471.00,1.0915
5470.00,1.0770
5469.00,1.0624
5468.00,1.0475
5467.00,1.0324
5466.00,1.0172
5465.00,1.0021
5464.00,0.9870
5463.00,0.9719
5462.00,0.9570
5461.00,0.9420
5460.00,0.9272
5459.00,0.9127
5458.00,0.8985
5457.00,0.8846
5456.00,0.8712
5455.00,0.8585
5454.00,0.8466
5453.00,0.8354
5452.00,0.8250
5451.00,0.8153
5450.00,0.8064
5449.00,0.7982
5448.00,0.7908
5447.00,0.7843
5446.00,0.7788
5445.00,0.7743
5444.00,0.7710
5443.00,0.7686
5442.00,0.7672
5441.00,0.7668
5440.00,0.7675
5439.00,0.7691
5438.00,0.7718
5437.00,0.7753
5436.00,0.7797
5435.00,0.7852
5434.00,0.7916
5433.00,0.7987
5432.00,0.8065
5431.00,0.8151
5430.00,0.8245
5429.00,0.8347
5428.00,0.8456
5427.00,0.8569
5426.00,0.8686
5425.00,0.8803
5424.00,0.8923
5423.00,0.9047
5422.00,0.9175
5421.00,0.9305
5420.00,0.9438
5419.00,0.9571
5418.00,0.9705
5417.00,0.9841
5416.00,0.9978
5415.00,1.0117
5414.00,1.0259
5413.00,1.0401
5412.00,1.0543
5411.00,1.0682
5410.00,1.0820
5409.00,1.0956
5408.00,1.1092
5407.00,1.1226
5406.00,1.1358
5405.00,1.1487
5404.00,1.1613
5403.00,1.1736
5402.00,1.1857
5401.00,1.1974
5400.00,1.2087
5399.00,1.2197
5398.00,1.2304
5397.00,1.2408
5396.00,1.2509
5395.00,1.2607
5394.00,1.2704
5393.00,1.2798
5392.00,1.2889
5391.00,1.2976
5390.00,1.3056
5389.00,1.3130
5388.00,1.3198
5387.00,1.3262
5386.00,1.3323
5385.00,1.3382
5384.00,1.3439
5383.00,1.3492
5382.00,1.3541
5381.00,1.3585
5380.00,1.3624
5379.00,1.3658
5378.00,1.3687
5377.00,1.3711
5376.00,1.3731
5375.00,1.3746
5374.00,1.3757
5373.00,1.3764
5372.00,1.3767
5371.00,1.3764
5370.00,1.3754
5369.00,1.3738
5368.00,1.3718
5367.00,1.3696
5366.00,1.3671
5365.00,1.3639
5364.00,1.3599
5363.00,1.3553
5362.00,1.3502
5361.00,1.3448
5360.00,1.3392
5359.00,1.3334
5358.00,1.3272
5357.00,1.3204
5356.00,1.3129
5355.00,1.3047
5354.00,1.2959
5353.00,1.2867
5352.00,1.2771
5351.00,1.2670
5350.00,1.2566
5349.00,1.2457
5348.00,1.2343
5347.00,1.2226
5346.00,1.2104
5345.00,1.1976
5344.00,1.1843
5343.00,1.1705
5342.00,1.1564
5341.00,1.1420
5340.00,1.1273
5339.00,1.1123
5338.00,1.0970
5337.00,1.0813
5336.00,1.0654
5335.00,1.0494
5334.00,1.0334
5333.00,1.0173
5332.00,1.0011
5331.00,0.9849
5330.00,0.9689
5329.00,0.9531
5328.00,0.9375
5327.00,0.9222
5326.00,0.9073
5325.00,0.8928
5324.00,0.8787
5323.00,0.8652
5322.00,0.8522
5321.00,0.8400
5320.00,0.8286
5319.00,0.8179
5318.00,0.8081
5317.00,0.7991
5316.00,0.7910
5315.00,0.7838
5314.00,0.7778
5313.00,0.7728
5312.00,0.7690
5311.00,0.7662
5310.00,0.7645
5309.00,0.7638
5308.00,0.7641
5307.00,0.7655
5306.00,0.7679
5305.00,0.7715
5304.00,0.7760
5303.00,0.7814
5302.00,0.7878
5301.00,0.7951
5300.00,0.8033
5299.00,0.8121
5298.00,0.8216
5297.00,0.8318
5296.00,0.8425
5295.00,0.8537
5294.00,0.8653
5293.00,0.8773
5292.00,0.8897
5291.00,0.9024
5290.00,0.9155
5289.00,0.9290
5288.00,0.9428
5287.00,0.9568
5286.00,0.9709
5285.00,0.9852
5284.00,0.9994
5283.00,1.0136
5282.00,1.0278
5281.00,1.0420
5280.00,1.0562
5279.00,1.0703
5278.00,1.0845
5277.00,1.0984
5276.00,1.1120
5275.00,1.1253
5274.00,1.1386
5273.00,1.1519
5272.00,1.1651
5271.00,1.1779
5270.00,1.1903
5269.00,1.2024
5268.00,1.2141
5267.00,1.2255
5266.00,1.2367
5265.00,1.2478
5264.00,1.2588
5263.00,1.2695
5262.00,1.2799
5261.00,1.2899
5260.00,1.2996
5259.00,1.3089
5258.00,1.3177
5257.00,1.3261
5256.00,1.3340
5255.00,1.3413
5254.00,1.3481
5253.00,1.3543
5252.00,1.3598
5251.00,1.3647
5250.00,1.3691
5249.00,1.3735
5248.00,1.3778
5247.00,1.3821
5246.00,1.3860
5245.00,1.3896
5244.00,1.3927
5243.00,1.3954
5242.00,1.3975
5241.00,1.3987
5240.00,1.3989
5239.00,1.3983
5238.00,1.3970
5237.00,1.3955
5236.00,1.3939
5235.00,1.3923
5234.00,1.3905
5233.00,1.3881
5232.00,1.3849
5231.00,1.3808
5230.00,1.3761
5229.00,1.3712
5228.00,1.3661
5227.00,1.3606
5226.00,1.3546
5225.00,1.3479
5224.00,1.3405
5223.00,1.3325
5222.00,1.3240
5221.00,1.3151
5220.00,1.3058
5219.00,1.2960
5218.00,1.2856
5217.00,1.2748
5216.00,1.2638
5215.00,1.2523
5214.00,1.2403
5213.00,1.2278
5212.00,1.2147
5211.00,1.2011
5210.00,1.1869
5209.00,1.1723
5208.00,1.1574
5207.00,1.1420
5206.00,1.1262
5205.00,1.1101
5204.00,1.0940
5203.00,1.0780
5202.00,1.0618
5201.00,1.0455
5200.00,1.0291
5199.00,1.0126
5198.00,0.9960
5197.00,0.9794
5196.00,0.9630
5195.00,0.9469
5194.00,0.9312
5193.00,0.9160
5192.00,0.9012
5191.00,0.8870
5190.00,0.8733
5189.00,0.8603
5188.00,0.8481
5187.00,0.8366
5186.00,0.8258
5185.00,0.8159
5184.00,0.8068
5183.00,0.7986
5182.00,0.7916
5181.00,0.7856
5180.00,0.7808
5179.00,0.7770
5178.00,0.7745
5177.00,0.7731
5176.00,0.7729
5175.00,0.7739
5174.00,0.7759
5173.00,0.7791
5172.00,0.7833
5171.00,0.7885
5170.00,0.7948
5169.00,0.8021
5168.00,0.8102
5167.00,0.8192
5166.00,0.8289
5165.00,0.8393
5164.00,0.8504
5163.00,0.8621
5162.00,0.8742
5161.00,0.8869
5160.00,0.8999
5159.00,0.9134
5158.00,0.9272
5157.00,0.9415
5156.00,0.9560
5155.00,0.9707
5154.00,0.9856
5153.00,1.0005
5152.00,1.0155
5151.00,1.0304
5150.00,1.0452
5149.00,1.0600
5148.00,1.0746
5147.00,1.0891
5146.00,1.1037
5145.00,1.1183
5144.00,1.1329
5143.00,1.1473
5142.00,1.1615
5141.00,1.1755
5140.00,1.1891
5139.00,1.2025
5138.00,1.2156
5137.00,1.2285
5136.00,1.2410
5135.00,1.2532
5134.00,1.2650
5133.00,1.2766
5132.00,1.2878
5131.00,1.2985
5130.00,1.3086
5129.00,1.3183
5128.00,1.3276
5127.00,1.3368
5126.00,1.3458
5125.00,1.3544
5124.00,1.3623
5123.00,1.3695
5122.00,1.3761
5121.00,1.3824
5120.00,1.3886
5119.00,1.3947
5118.00,1.4006
5117.00,1.4059
5116.00,1.4104
5115.00,1.4141
5114.00,1.4173
5113.00,1.4200
5112.00,1.4222
5111.00,1.4239
5110.00,1.4251
5109.00,1.4260
5108.00,1.4263
5107.00,1.4262
5106.00,1.4254
5105.00,1.4241
5104.00,1.4223
5103.00,1.4201
5102.00,1.4176
5101.00,1.4147
5100.00,1.4111
5099.00,1.4070
5098.00,1.4024
5097.00,1.3977
5096.00,1.3925
5095.00,1.3869
5094.00,1.3805
5093.00,1.3736
5092.00,1.3660
5091.00,1.3580
5090.00,1.3498
5089.00,1.3411
5088.00,1.3319
5087.00,1.3219
5086.00,1.3112
5085.00,1.3000
5084.00,1.2884
5083.00,1.2766
5082.00,1.2643
5081.00,1.2515
5080.00,1.2382
5079.00,1.2243
5078.00,1.2097
5077.00,1.1947
5076.00,1.1793
5075.00,1.1635
5074.00,1.1474
5073.00,1.1309
5072.00,1.1140
5071.00,1.0969
5070.00,1.0796
5069.00,1.0623
5068.00,1.0450
5067.00,1.0276
5066.00,1.0101
5065.00,0.9925
5064.00,0.9751
5063.00,0.9578
5062.00,0.9408
5061.00,0.9242
5060.00,0.9080
5059.00,0.8924
5058.00,0.8773
5057.00,0.8629
5056.00,0.8492
5055.00,0.8363
5054.00,0.8242
5053.00,0.8130
5052.00,0.8029
5051.00,0.7939
5050.00,0.7859
5049.00,0.7791
5048.00,0.7735
5047.00,0.7689
5046.00,0.7655
5045.00,0.7634
5044.00,0.7626
5043.00,0.7630
5042.00,0.7647
5041.00,0.7675
5040.00,0.7716
5039.00,0.7767
5038.00,0.7829
5037.00,0.7902
5036.00,0.7984
5035.00,0.8075
5034.00,0.8175
5033.00,0.8284
5032.00,0.8398
5031.00,0.8519
5030.00,0.8646
5029.00,0.8778
5028.00,0.8916
5027.00,0.9060
5026.00,0.9207
5025.00,0.9356
5024.00,0.9505
5023.00,0.9656
5022.00,0.9809
5021.00,0.9965
5020.00,1.0122
5019.00,1.0280
5018.00,1.0437
5017.00,1.0592
5016.00,1.0747
5015.00,1.0902
5014.00,1.1056
5013.00,1.1209
5012.00,1.1362
5011.00,1.1513
5010.00,1.1663
5009.00,1.1812
5008.00,1.1958
5007.00,1.2100
5006.00,1.2238
5005.00,1.2373
5004.00,1.2504
5003.00,1.2633
5002.00,1.2759
5001.00,1.2882
5000.00,1.3000
4999.00,1.3115
4998.00,1.3225
4997.00,1.3330
4996.00,1.3431
4995.00,1.3527
4994.00,1.3620
4993.00,1.3710
4992.00,1.3797
4991.00,1.3880
4990.00,1.3957
4989.00,1.4028
4988.00,1.4093
4987.00,1.4152
4986.00,1.4205
4985.00,1.4253
4984.00,1.4296
4983.00,1.4336
4982.00,1.4375
4981.00,1.4411
4980.00,1.4442
4979.00,1.4467
4978.00,1.4485
4977.00,1.4494
4976.00,1.4497
4975.00,1.4496
4974.00,1.4493
4973.00,1.4486
4972.00,1.4476
4971.00,1.4463
4970.00,1.4444
4969.00,1.4420
4968.00,1.4388
4967.00,1.4350
4966.00,1.4308
4965.00,1.4261
4964.00,1.4208
4963.00,1.4147
4962.00,1.4080
4961.00,1.4008
4960.00,1.3933
4959.00,1.3857
4958.00,1.3778
4957.00,1.3695
4956.00,1.3604
4955.00,1.3505
4954.00,1.3399
4953.00,1.3289
4952.00,1.3175
4951.00,1.3057
4950.00,1.2932
4949.00,1.2799
4948.00,1.2659
4947.00,1.2511
4946.00,1.2359
4945.00,1.2204
4944.00,1.2047
4943.00,1.1887
4942.00,1.1722
4941.00,1.1553
4940.00,1.1379
4939.00,1.1201
4938.00,1.1021
4937.00,1.0838
4936.00,1.0655
4935.00,1.0471
4934.00,1.0286
4933.00,1.0102
4932.00,0.9918
4931.00,0.9735
4930.00,0.9556
4929.00,0.9380
4928.00,0.9209
4927.00,0.9043
4926.00,0.8884
4925.00,0.8732
4924.00,0.8586
4923.00,0.8449
4922.00,0.8321
4921.00,0.8202
4920.00,0.8093
4919.00,0.7995
4918.00,0.7908
4917.00,0.7834
4916.00,0.7773
4915.00,0.7725
4914.00,0.7691
4913.00,0.7671
4912.00,0.7664
4911.00,0.7669
4910.00,0.7688
4909.00,0.7719
4908.00,0.7763
4907.00,0.7818
4906.00,0.7886
4905.00,0.7965
4904.00,0.8055
4903.00,0.8154
4902.00,0.8262
4901.00,0.8378
4900.00,0.8501
4899.00,0.8632
4898.00,0.8769
4897.00,0.8912
4896.00,0.9059
4895.00,0.9210
4894.00,0.9364
4893.00,0.9521
4892.00,0.9680
4891.00,0.9842
4890.00,1.0007
4889.00,1.0173
4888.00,1.0340
4887.00,1.0506
4886.00,1.0672
4885.00,1.0838
4884.00,1.1002
4883.00,1.1165
4882.00,1.1327
4881.00,1.1487
4880.00,1.1645
4879.00,1.1800
4878.00,1.1953
4877.00,1.2105
4876.00,1.2256
4875.00,1.2405
4874.00,1.2551
4873.00,1.2694
4872.00,1.2831
4871.00,1.2963
4870.00,1.3090
4869.00,1.3212
4868.00,1.3330
4867.00,1.3445
4866.00,1.3556
4865.00,1.3663
4864.00,1.3766
4863.00,1.3866
4862.00,1.3961
4861.00,1.4052
4860.00,1.4138
4859.00,1.4217
4858.00,1.4292
4857.00,1.4361
4856.00,1.4427
4855.00,1.4487
4854.00,1.4542
4853.00,1.4592
4852.00,1.4636
4851.00,1.4675
4850.00,1.4708
4849.00,1.4738
4848.00,1.4765
4847.00,1.4788
4846.00,1.4806
4845.00,1.4818
4844.00,1.4824
4843.00,1.4823
4842.00,1.4817
4841.00,1.4807
4840.00,1.4792
4839.00,1.4772
4838.00,1.4748
4837.00,1.4719
4836.00,1.4684
4835.00,1.4644
4834.00,1.4597
4833.00,1.4546
4832.00,1.4491
4831.00,1.4433
4830.00,1.4372
4829.00,1.4304
4828.00,1.4229
4827.00,1.4146
4826.00,1.4057
4825.00,1.3963
4824.00,1.3866
4823.00,1.3763
4822.00,1.3655
4821.00,1.3540
4820.00,1.3420
4819.00,1.3296
4818.00,1.3167
4817.00,1.3033
4816.00,1.2893
4815.00,1.2747
4814.00,1.2596
4813.00,1.2441
4812.00,1.2281
4811.00,1.2115
4810.00,1.1941
4809.00,1.1760
4808.00,1.1574
4807.00,1.1385
4806.00,1.1195
4805.00,1.1004
4804.00,1.0811
4803.00,1.0618
4802.00,1.0424
4801.00,1.0230
4800.00,1.0037
4799.00,0.9845
4798.00,0.9654
4797.00,0.9466
4796.00,0.9281
4795.00,0.9103
4794.00,0.8931
4793.00,0.8766
4792.00,0.8610
4791.00,0.8462
4790.00,0.8324
4789.00,0.8196
4788.00,0.8079
4787.00,0.7974
4786.00,0.7881
4785.00,0.7802
4784.00,0.7736
4783.00,0.7683
4782.00,0.7646
4781.00,0.7623
4780.00,0.7616
4779.00,0.7622
4778.00,0.7643
4777.00,0.7678
4776.00,0.7727
4775.00,0.7788
4774.00,0.7863
4773.00,0.7950
4772.00,0.8047
4771.00,0.8155
4770.00,0.8272
4769.00,0.8398
4768.00,0.8531
4767.00,0.8671
4766.00,0.8816
4765.00,0.8968
4764.00,0.9123
4763.00,0.9284
4762.00,0.9448
4761.00,0.9615
4760.00,0.9785
4759.00,0.9957
4758.00,1.0130
4757.00,1.0303
4756.00,1.0477
4755.00,1.0652
4754.00,1.0827
4753.00,1.1002
4752.00,1.1177
4751.00,1.1349
4750.00,1.1519
4749.00,1.1687
4748.00,1.1854
4747.00,1.2019
4746.00,1.2182
4745.00,1.2341
4744.00,1.2496
4743.00,1.2648
4742.00,1.2797
4741.00,1.2944
4740.00,1.3087
4739.00,1.3226
4738.00,1.3360
4737.00,1.3488
4736.00,1.3612
4735.00,1.3733
4734.00,1.3851
4733.00,1.3966
4732.00,1.4077
4731.00,1.4182
4730.00,1.4282
4729.00,1.4375
4728.00,1.4462
4727.00,1.4543
4726.00,1.4618
4725.00,1.4688
4724.00,1.4754
4723.00,1.4816
4722.00,1.4874
4721.00,1.4927
4720.00,1.4973
4719.00,1.5015
4718.00,1.5052
4717.00,1.5086
4716.00,1.5115
4715.00,1.5138
4714.00,1.5154
4713.00,1.5164
4712.00,1.5170
4711.00,1.5174
4710.00,1.5173
4709.00,1.5165
4708.00,1.5150
4707.00,1.5128
4706.00,1.5101
4705.00,1.5071
4704.00,1.5037
4703.00,1.5000
4702.00,1.4956
4701.00,1.4907
4700.00,1.4854
4699.00,1.4797
4698.00,1.4735
4697.00,1.4666
4696.00,1.4589
4695.00,1.4507
4694.00,1.4420
4693.00,1.4329
4692.00,1.4234
4691.00,1.4134
4690.00,1.4027
4689.00,1.3913
4688.00,1.3792
4687.00,1.3668
4686.00,1.3540
4685.00,1.3408
4684.00,1.3272
4683.00,1.3128
4682.00,1.2978
4681.00,1.2820
4680.00,1.2657
4679.00,1.2491
4678.00,1.2321
4677.00,1.2148
4676.00,1.1970
4675.00,1.1787
4674.00,1.1601
4673.00,1.1412
4672.00,1.1221
4671.00,1.1029
4670.00,1.0837
4669.00,1.0643
4668.00,1.0448
4667.00,1.0253
4666.00,1.0058
4665.00,0.9866
4664.00,0.9675
4663.00,0.9489
4662.00,0.9309
4661.00,0.9134
4660.00,0.8967
4659.00,0.8807
4658.00,0.8656
4657.00,0.8515
4656.00,0.8385
4655.00,0.8267
4654.00,0.8162
4653.00,0.8070
4652.00,0.7991
4651.00,0.7928
4650.00,0.7879
4649.00,0.7846
4648.00,0.7829
4647.00,0.7826
4646.00,0.7839
4645.00,0.7868
4644.00,0.7912
4643.00,0.7970
4642.00,0.8043
4641.00,0.8129
4640.00,0.8227
4639.00,0.8336
4638.00,0.8456
4637.00,0.8584
4636.00,0.8722
4635.00,0.8866
4634.00,0.9017
4633.00,0.9174
4632.00,0.9335
4631.00,0.9502
4630.00,0.9673
4629.00,0.9848
4628.00,1.0025
4627.00,1.0203
4626.00,1.0382
4625.00,1.0562
4624.00,1.0742
4623.00,1.0923
4622.00,1.1105
4621.00,1.1285
4620.00,1.1465
4619.00,1.1643
4618.00,1.1819
4617.00,1.1994
4616.00,1.2167
4615.00,1.2337
4614.00,1.2502
4613.00,1.2664
4612.00,1.2822
4611.00,1.2978
4610.00,1.3131
4609.00,1.3281
4608.00,1.3426
4607.00,1.3566
4606.00,1.3702
4605.00,1.3833
4604.00,1.3960
4603.00,1.4084
4602.00,1.4204
4601.00,1.4321
4600.00,1.4433
4599.00,1.4539
4598.00,1.4638
4597.00,1.4728
4596.00,1.4812
4595.00,1.4892
4594.00,1.4968
4593.00,1.5042
4592.00,1.5111
4591.00,1.5175
4590.00,1.5232
4589.00,1.5282
4588.00,1.5326
4587.00,1.5365
4586.00,1.5401
4585.00,1.5434
4584.00,1.5463
4583.00,1.5487
4582.00,1.5505
4581.00,1.5516
4580.00,1.5520
4579.00,1.5519
4578.00,1.5514
4577.00,1.5504
4576.00,1.5488
4575.00,1.5466
4574.00,1.5439
4573.00,1.5407
4572.00,1.5371
4571.00,1.5332
4570.00,1.5287
4569.00,1.5238
4568.00,1.5182
4567.00,1.5120
4566.00,1.5053
4565.00,1.4983
4564.00,1.4908
4563.00,1.4828
4562.00,1.4739
4561.00,1.4643
4560.00,1.4539
4559.00,1.4428
4558.00,1.4313
4557.00,1.4195
4556.00,1.4073
4555.00,1.3947
4554.00,1.3814
4553.00,1.3674
4552.00,1.3527
4551.00,1.3372
4550.00,1.3212
4549.00,1.3046
4548.00,1.2873
4547.00,1.2694
4546.00,1.2508
4545.00,1.2317
4544.00,1.2122
4543.00,1.1922
4542.00,1.1718
4541.00,1.1510
4540.00,1.1300
4539.00,1.1087
4538.00,1.0874
4537.00,1.0660
4536.00,1.0446
4535.00,1.0232
4534.00,1.0019
4533.00,0.9810
4532.00,0.9605
4531.00,0.9407
4530.00,0.9214
4529.00,0.9030
4528.00,0.8854
4527.00,0.8687
4526.00,0.8531
4525.00,0.8387
4524.00,0.8256
4523.00,0.8137
4522.00,0.8034
4521.00,0.7945
4520.00,0.7872
4519.00,0.7815
4518.00,0.7775
4517.00,0.7751
4516.00,0.7745
4515.00,0.7755
4514.00,0.7782
4513.00,0.7825
4512.00,0.7883
4511.00,0.7956
4510.00,0.8044
4509.00,0.8145
4508.00,0.8259
4507.00,0.8384
4506.00,0.8520
4505.00,0.8665
4504.00,0.8818
4503.00,0.8978
4502.00,0.9144
4501.00,0.9315
4500.00,0.9491
4499.00,0.9671
4498.00,0.9855
4497.00,1.0042
4496.00,1.0231
4495.00,1.0422
4494.00,1.0614
4493.00,1.0808
4492.00,1.1001
4491.00,1.1193
4490.00,1.1384
4489.00,1.1573
4488.00,1.1762
4487.00,1.1949
4486.00,1.2134
4485.00,1.2317
4484.00,1.2497
4483.00,1.2675
4482.00,1.2850
4481.00,1.3022
4480.00,1.3190
4479.00,1.3353
4478.00,1.3509
4477.00,1.3660
4476.00,1.3807
4475.00,1.3951
4474.00,1.4094
4473.00,1.4232
4472.00,1.4364
4471.00,1.4489
4470.00,1.4608
4469.00,1.4723
4468.00,1.4833
4467.00,1.4939
4466.00,1.5039
4465.00,1.5133
4464.00,1.5221
4463.00,1.5303
4462.00,1.5380
4461.00,1.5452
4460.00,1.5519
4459.00,1.5583
4458.00,1.5642
4457.00,1.5694
4456.00,1.5739
4455.00,1.5778
4454.00,1.5812
4453.00,1.5840
4452.00,1.5864
4451.00,1.5885
4450.00,1.5902
4449.00,1.5915
4448.00,1.5922
4447.00,1.5921
4446.00,1.5913
4445.00,1.5899
4444.00,1.5879
4443.00,1.5855
4442.00,1.5828
4441.00,1.5796
4440.00,1.5760
4439.00,1.5721
4438.00,1.5678
4437.00,1.5630
4436.00,1.5573
4435.00,1.5510
4434.00,1.5441
4433.00,1.5367
4432.00,1.5287
4431.00,1.5199
4430.00,1.5104
4429.00,1.5004
4428.00,1.4899
4427.00,1.4791
4426.00,1.4679
4425.00,1.4562
4424.00,1.4437
4423.00,1.4304
4422.00,1.4163
4421.00,1.4014
4420.00,1.3859
4419.00,1.3698
4418.00,1.3533
4417.00,1.3362
4416.00,1.3185
4415.00,1.3002
4414.00,1.2815
4413.00,1.2623
4412.00,1.2427
4411.00,1.2225
4410.00,1.2020
4409.00,1.1813
4408.00,1.1603
4407.00,1.1393
4406.00,1.1182
4405.00,1.0973
4404.00,1.0765
4403.00,1.0561
4402.00,1.0360
4401.00,1.0164
4400.00,0.9974
4399.00,0.9791
4398.00,0.9619
4397.00,0.9457
4396.00,0.9305
4395.00,0.9166
4394.00,0.9039
4393.00,0.8925
4392.00,0.8825
4391.00,0.8739
4390.00,0.8668
4389.00,0.8612
4388.00,0.8572
4387.00,0.8547
4386.00,0.8539
4385.00,0.8548
4384.00,0.8572
4383.00,0.8611
4382.00,0.8664
4381.00,0.8730
4380.00,0.8809
4379.00,0.8901
4378.00,0.9005
4377.00,0.9119
4376.00,0.9242
4375.00,0.9372
4374.00,0.9509
4373.00,0.9652
4372.00,0.9801
4371.00,0.9955
4370.00,1.0113
4369.00,1.0275
4368.00,1.0439
4367.00,1.0604
4366.00,1.0772
4365.00,1.0941
4364.00,1.1112
4363.00,1.1283
4362.00,1.1454
4361.00,1.1625
4360.00,1.1796
4359.00,1.1967
4358.00,1.2140
4357.00,1.2312
4356.00,1.2483
4355.00,1.2652
4354.00,1.2818
4353.00,1.2984
4352.00,1.3148
4351.00,1.3311
4350.00,1.3473
4349.00,1.3633
4348.00,1.3790
4347.00,1.3943
4346.00,1.4090
4345.00,1.4232
4344.00,1.4369
4343.00,1.4504
4342.00,1.4635
4341.00,1.4764
4340.00,1.4889
4339.00,1.5009
4338.00,1.5125
4337.00,1.5236
4336.00,1.5341
4335.00,1.5440
4334.00,1.5534
4333.00,1.5623
4332.00,1.5710
4331.00,1.5794
4330.00,1.5874
4329.00,1.5948
4328.00,1.6013
4327.00,1.6070
4326.00,1.6121
4325.00,1.6168
4324.00,1.6214
4323.00,1.6257
4322.00,1.6297
4321.00,1.6330
4320.00,1.6355
4319.00,1.6375
4318.00,1.6389
4317.00,1.6401
4316.00,1.6409
4315.00,1.6411
4314.00,1.6406
4313.00,1.6395
4312.00,1.6376
4311.00,1.6352
4310.00,1.6324
4309.00,1.6293
4308.00,1.6259
4307.00,1.6219
4306.00,1.6174
4305.00,1.6124
4304.00,1.6067
4303.00,1.6006
4302.00,1.5940
4301.00,1.5867
4300.00,1.5786
4299.00,1.5699
4298.00,1.5606
4297.00,1.5510
4296.00,1.5410
4295.00,1.5307
4294.00,1.5199
4293.00,1.5083
4292.00,1.4962
4291.00,1.4834
4290.00,1.4703
4289.00,1.4567
4288.00,1.4427
4287.00,1.4280
4286.00,1.4126
4285.00,1.3965
4284.00,1.3798
4283.00,1.3627
4282.00,1.3450
4281.00,1.3270
4280.00,1.3083
4279.00,1.2891
4278.00,1.2693
4277.00,1.2492
4276.00,1.2288
4275.00,1.2081
4274.00,1.1873
4273.00,1.1663
4272.00,1.1450
4271.00,1.1236
4270.00,1.1023
4269.00,1.0812
4268.00,1.0605
4267.00,1.0402
4266.00,1.0204
4265.00,1.0010
4264.00,0.9823
4263.00,0.9643
4262.00,0.9471
4261.00,0.9310
4260.00,0.9161
4259.00,0.9023
4258.00,0.8898
4257.00,0.8787
4256.00,0.8693
4255.00,0.8615
4254.00,0.8554
4253.00,0.8511
4252.00,0.8487
4251.00,0.8482
4250.00,0.8495
4249.00,0.8527
4248.00,0.8576
4247.00,0.8643
4246.00,0.8726
4245.00,0.8825
4244.00,0.8938
4243.00,0.9065
4242.00,0.9205
4241.00,0.9355
4240.00,0.9515
4239.00,0.9683
4238.00,0.9858
4237.00,1.0040
4236.00,1.0227
4235.00,1.0419
4234.00,1.0615
4233.00,1.0816
4232.00,1.1018
4231.00,1.1221
4230.00,1.1425
4229.00,1.1630
4228.00,1.1834
4227.00,1.2038
4226.00,1.2241
4225.00,1.2442
4224.00,1.2640
4223.00,1.2836
4222.00,1.3028
4221.00,1.3218
4220.00,1.3405
4219.00,1.3589
4218.00,1.3768
4217.00,1.3942
4216.00,1.4112
4215.00,1.4277
4214.00,1.4438
4213.00,1.4595
4212.00,1.4748
4211.00,1.4897
4210.00,1.5040
4209.00,1.5176
4208.00,1.5306
4207.00,1.5431
4206.00,1.5552
4205.00,1.5671
4204.00,1.5785
4203.00,1.5891
4202.00,1.5989
4201.00,1.6081
4200.00,1.6168
4199.00,1.6251
4198.00,1.6330
4197.00,1.6404
4196.00,1.6475
4195.00,1.6540
4194.00,1.6599
4193.00,1.6651
4192.00,1.6697
4191.00,1.6737
4190.00,1.6772
4189.00,1.6803
4188.00,1.6827
4187.00,1.6846
4186.00,1.6862
4185.00,1.6875
4184.00,1.6885
4183.00,1.6889
4182.00,1.6886
4181.00,1.6876
4180.00,1.6859
4179.00,1.6837
4178.00,1.6812
4177.00,1.6783
4176.00,1.6750
4175.00,1.6714
4174.00,1.6672
4173.00,1.6624
4172.00,1.6569
4171.00,1.6506
4170.00,1.6439
4169.00,1.6368
4168.00,1.6294
4167.00,1.6215
4166.00,1.6129
4165.00,1.6037
4164.00,1.5939
4163.00,1.5835
4162.00,1.5725
4161.00,1.5607
4160.00,1.5482
4159.00,1.5351
4158.00,1.5215
4157.00,1.5073
4156.00,1.4924
4155.00,1.4769
4154.00,1.4607
4153.00,1.4439
4152.00,1.4264
4151.00,1.4082
4150.00,1.3893
4149.00,1.3698
4148.00,1.3498
4147.00,1.3291
4146.00,1.3079
4145.00,1.2860
4144.00,1.2637
4143.00,1.2409
4142.00,1.2178
4141.00,1.1944
4140.00,1.1709
4139.00,1.1473
4138.00,1.1237
4137.00,1.1003
4136.00,1.0773
4135.00,1.0547
4134.00,1.0329
4133.00,1.0118
4132.00,0.9916
4131.00,0.9724
4130.00,0.9544
4129.00,0.9378
4128.00,0.9225
4127.00,0.9088
4126.00,0.8965
4125.00,0.8858
4124.00,0.8769
4123.00,0.8698
4122.00,0.8646
4121.00,0.8613
4120.00,0.8600
4119.00,0.8607
4118.00,0.8633
4117.00,0.8679
4116.00,0.8743
4115.00,0.8825
4114.00,0.8923
4113.00,0.9036
4112.00,0.9163
4111.00,0.9303
4110.00,0.9456
4109.00,0.9619
4108.00,0.9791
4107.00,0.9971
4106.00,1.0158
4105.00,1.0350
4104.00,1.0547
4103.00,1.0748
4102.00,1.0953
4101.00,1.1160
4100.00,1.1370
4099.00,1.1580
4098.00,1.1792
4097.00,1.2005
4096.00,1.2218
4095.00,1.2430
4094.00,1.2639
4093.00,1.2844
4092.00,1.3047
4091.00,1.3248
4090.00,1.3448
4089.00,1.3646
4088.00,1.3842
4087.00,1.4034
4086.00,1.4222
4085.00,1.4405
4084.00,1.4583
4083.00,1.4754
4082.00,1.4919
4081.00,1.5079
4080.00,1.5234
4079.00,1.5385
4078.00,1.5531
4077.00,1.5671
4076.00,1.5805
4075.00,1.5933
4074.00,1.6054
4073.00,1.6171
4072.00,1.6283
4071.00,1.6391
4070.00,1.6492
4069.00,1.6586
4068.00,1.6674
4067.00,1.6757
4066.00,1.6834
4065.00,1.6905
4064.00,1.6970
4063.00,1.7028
4062.00,1.7083
4061.00,1.7135
4060.00,1.7183
4059.00,1.7225
4058.00,1.7260
4057.00,1.7288
4056.00,1.7308
4055.00,1.7323
4054.00,1.7335
4053.00,1.7341
4052.00,1.7343
4051.00,1.7340
4050.00,1.7331
4049.00,1.7316
4048.00,1.7297
4047.00,1.7273
4046.00,1.7244
4045.00,1.7209
4044.00,1.7166
4043.00,1.7118
4042.00,1.7064
4041.00,1.7008
4040.00,1.6947
4039.00,1.6881
4038.00,1.6810
4037.00,1.6735
4036.00,1.6653
4035.00,1.6564
4034.00,1.6467
4033.00,1.6364
4032.00,1.6255
4031.00,1.6141
4030.00,1.6021
4029.00,1.5895
4028.00,1.5764
4027.00,1.5628
4026.00,1.5486
4025.00,1.5336
4024.00,1.5177
4023.00,1.5009
4022.00,1.4832
4021.00,1.4648
4020.00,1.4460
4019.00,1.4267
4018.00,1.4069
4017.00,1.3866
4016.00,1.3656
4015.00,1.3440
4014.00,1.3218
4013.00,1.2992
4012.00,1.2761
4011.00,1.2524
4010.00,1.2283
4009.00,1.2038
4008.00,1.1791
4007.00,1.1541
4006.00,1.1292
4005.00,1.1044
4004.00,1.0800
4003.00,1.0561
4002.00,1.0328
4001.00,1.0103
4000.00,0.9888
3999.00,0.9685
3998.00,0.9494
3997.00,0.9318
3996.00,0.9158
3995.00,0.9015
3994.00,0.8891
3993.00,0.8788
3992.00,0.8706
3991.00,0.8647
3990.00,0.8610
3989.00,0.8597
3988.00,0.8606
3987.00,0.8638
3986.00,0.8692
3985.00,0.8767
3984.00,0.8861
3983.00,0.8973
3982.00,0.9103
3981.00,0.9249
3980.00,0.9408
3979.00,0.9578
3978.00,0.9759
3977.00,0.9950
3976.00,1.0148
3975.00,1.0354
3974.00,1.0566
3973.00,1.0783
3972.00,1.1003
3971.00,1.1224
3970.00,1.1448
3969.00,1.1673
3968.00,1.1900
3967.00,1.2129
3966.00,1.2357
3965.00,1.2584
3964.00,1.2808
3963.00,1.3030
3962.00,1.3250
3961.00,1.3468
3960.00,1.3683
3959.00,1.3896
3958.00,1.4104
3957.00,1.4306
3956.00,1.4503
3955.00,1.4696
3954.00,1.4884
3953.00,1.5067
3952.00,1.5244
3951.00,1.5416
3950.00,1.5582
3949.00,1.5746
3948.00,1.5905
3947.00,1.6058
3946.00,1.6202
3945.00,1.6336
3944.00,1.6463
3943.00,1.6586
3942.00,1.6705
3941.00,1.6818
3940.00,1.6924
3939.00,1.7022
3938.00,1.7115
3937.00,1.7205
3936.00,1.7291
3935.00,1.7371
3934.00,1.7442
3933.00,1.7507
3932.00,1.7567
3931.00,1.7625
3930.00,1.7679
3929.00,1.7725
3928.00,1.7760
3927.00,1.7789
3926.00,1.7815
3925.00,1.7842
3924.00,1.7869
3923.00,1.7890
3922.00,1.7904
3921.00,1.7910
3920.00,1.7910
3919.00,1.7906
3918.00,1.7899
3917.00,1.7888
3916.00,1.7872
3915.00,1.7848
3914.00,1.7815
3913.00,1.7771
3912.00,1.7719
3911.00,1.7661
3910.00,1.7601
3909.00,1.7541
3908.00,1.7480
3907.00,1.7415
3906.00,1.7342
3905.00,1.7261
3904.00,1.7173
3903.00,1.7078
3902.00,1.6977
3901.00,1.6868
3900.00,1.6751
3899.00,1.6627
3898.00,1.6498
3897.00,1.6367
3896.00,1.6230
3895.00,1.6083
3894.00,1.5925
3893.00,1.5753
3892.00,1.5570
3891.00,1.5379
3890.00,1.5184
3889.00,1.4991
3888.00,1.4795
3887.00,1.4585
3886.00,1.4355
3885.00,1.4111
3884.00,1.3868
3883.00,1.3628
3882.00,1.3381
3881.00,1.3116
3880.00,1.2836
3879.00,1.2556
3878.00,1.2286
3877.00,1.2022
3876.00,1.1753
3875.00,1.1475
3874.00,1.1194
3873.00,1.0923
3872.00,1.0665
3871.00,1.0408
3870.00,1.0144
3869.00,0.9883
3868.00,0.9646
3867.00,0.9441
3866.00,0.9258
3865.00,0.9089
3864.00,0.8935
3863.00,0.8802
3862.00,0.8695
3861.00,0.8613
3860.00,0.8556
3859.00,0.8527
3858.00,0.8528
3857.00,0.8557
3856.00,0.8613
3855.00,0.8697
3854.00,0.8806
3853.00,0.8934
3852.00,0.9073
3851.00,0.9217
3850.00,0.9360
3849.00,0.9507
3848.00,0.9669
3847.00,0.9855
3846.00,1.0060
3845.00,1.0283
3844.00,1.0516
3843.00,1.0757
3842.00,1.1000
3841.00,1.1239
3840.00,1.1476
3839.00,1.1718
3838.00,1.1972
3837.00,1.2238
3836.00,1.2506
3835.00,1.2764
3834.00,1.3011
3833.00,1.3252
3832.00,1.3495
3831.00,1.3740
3830.00,1.3984
3829.00,1.4220
3828.00,1.4444
3827.00,1.4657
3826.00,1.4864
3825.00,1.5063
3824.00,1.5253
3823.00,1.5435
3822.00,1.5619
3821.00,1.5814
3820.00,1.6019
3819.00,1.6218
3818.00,1.6398
3817.00,1.6559
3816.00,1.6709
3815.00,1.6857
3814.00,1.7000
3813.00,1.7134
3812.00,1.7257
3811.00,1.7367
3810.00,1.7469
3809.00,1.7564
3808.00,1.7654
3807.00,1.7744
3806.00,1.7834
3805.00,1.7920
3804.00,1.7992
3803.00,1.8050
3802.00,1.8101
3801.00,1.8149
3800.00,1.8196
3799.00,1.8236
3798.00,1.8268
3797.00,1.8293
3796.00,1.8314
3795.00,1.8334
3794.00,1.8354
3793.00,1.8370
3792.00,1.8374
3791.00,1.8365
3790.00,1.8349
3789.00,1.8327
3788.00,1.8303
3787.00,1.8276
3786.00,1.8247
3785.00,1.8210
3784.00,1.8164
3783.00,1.8113
3782.00,1.8060
3781.00,1.8005
3780.00,1.7945
3779.00,1.7879
3778.00,1.7809
3777.00,1.7734
3776.00,1.7652
3775.00,1.7564
3774.00,1.7475
3773.00,1.7385
3772.00,1.7291
3771.00,1.7187
3770.00,1.7074
3769.00,1.6953
3768.00,1.6828
3767.00,1.6696
3766.00,1.6554
3765.00,1.6401
3764.00,1.6241
3763.00,1.6077
3762.00,1.5909
3761.00,1.5728
3760.00,1.5529
3759.00,1.5317
3758.00,1.5096
3757.00,1.4869
3756.00,1.4638
3755.00,1.4405
3754.00,1.4167
3753.00,1.3914
3752.00,1.3637
3751.00,1.3332
3750.00,1.3005
3749.00,1.2673
3748.00,1.2358
3747.00,1.2068
3746.00,1.1785
3745.00,1.1479
3744.00,1.1148
3743.00,1.0826
3742.00,1.0544
3741.00,1.0297
3740.00,1.0062
3739.00,0.9835
3738.00,0.9623
3737.00,0.9432
3736.00,0.9256
3735.00,0.9101
3734.00,0.8972
3733.00,0.8871
3732.00,0.8794
3731.00,0.8743
3730.00,0.8721
3729.00,0.8731
3728.00,0.8772
3727.00,0.8845
3726.00,0.8946
3725.00,0.9074
3724.00,0.9223
3723.00,0.9391
3722.00,0.9574
3721.00,0.9771
3720.00,0.9981
3719.00,1.0205
3718.00,1.0440
3717.00,1.0685
3716.00,1.0934
3715.00,1.1185
3714.00,1.1440
3713.00,1.1709
3712.00,1.2000
3711.00,1.2314
3710.00,1.2635
3709.00,1.2949
3708.00,1.3247
3707.00,1.3535
3706.00,1.3816
3705.00,1.4084
3704.00,1.4339
3703.00,1.4585
3702.00,1.4834
3701.00,1.5093
3700.00,1.5359
3699.00,1.5616
3698.00,1.5852
3697.00,1.6070
3696.00,1.6275
3695.00,1.6472
3694.00,1.6658
3693.00,1.6836
3692.00,1.7010
3691.00,1.7183
3690.00,1.7353
3689.00,1.7522
3688.00,1.7686
3687.00,1.7839
3686.00,1.7982
3685.00,1.8115
3684.00,1.8239
3683.00,1.8350
3682.00,1.8452
3681.00,1.8550
3680.00,1.8647
3679.00,1.8740
3678.00,1.8826
3677.00,1.8905
3676.00,1.8977
3675.00,1.9045
3674.00,1.9108
3673.00,1.9163
3672.00,1.9206
3671.00,1.9238
3670.00,1.9263
3669.00,1.9288
3668.00,1.9315
3667.00,1.9341
3666.00,1.9360
3665.00,1.9370
3664.00,1.9372
3663.00,1.9364
3662.00,1.9350
3661.00,1.9330
3660.00,1.9308
3659.00,1.9282
3658.00,1.9253
3657.00,1.9219
3656.00,1.9183
3655.00,1.9146
3654.00,1.9108
3653.00,1.9063
3652.00,1.9007
3651.00,1.8940
3650.00,1.8866
3649.00,1.8786
3648.00,1.8698
3647.00,1.8600
3646.00,1.8497
3645.00,1.8399
3644.00,1.8309
3643.00,1.8217
3642.00,1.8115
3641.00,1.8006
3640.00,1.7894
3639.00,1.7780
3638.00,1.7663
3637.00,1.7543
3636.00,1.7419
3635.00,1.7291
3634.00,1.7158
3633.00,1.7025
3632.00,1.6896
3631.00,1.6765
3630.00,1.6622
3629.00,1.6465
3628.00,1.6302
3627.00,1.6146
3626.00,1.6000
3625.00,1.5854
3624.00,1.5708
3623.00,1.5564
3622.00,1.5426
3621.00,1.5291
3620.00,1.5157
3619.00,1.5023
3618.00,1.4893
3617.00,1.4771
3616.00,1.4657
3615.00,1.4549
3614.00,1.4447
3613.00,1.4355
3612.00,1.4275
3611.00,1.4208
3610.00,1.4154
3609.00,1.4109
3608.00,1.4072
3607.00,1.4046
3606.00,1.4031
3605.00,1.4025
3604.00,1.4027
3603.00,1.4035
3602.00,1.4050
3601.00,1.4074
3600.00,1.4110
3599.00,1.4158
3598.00,1.4214
3597.00,1.4275
3596.00,1.4343
3595.00,1.4419
3594.00,1.4506
3593.00,1.4600
3592.00,1.4700
3591.00,1.4804
3590.00,1.4914
3589.00,1.5033
3588.00,1.5164
3587.00,1.5308
3586.00,1.5458
3585.00,1.5607
3584.00,1.5749
3583.00,1.5885
3582.00,1.6021
3581.00,1.6160
3580.00,1.6306
3579.00,1.6459
3578.00,1.6616
3577.00,1.6775
3576.00,1.6935
3575.00,1.7094
3574.00,1.7248
3573.00,1.7400
3572.00,1.7548
3571.00,1.7694
3570.00,1.7839
3569.00,1.7984
3568.00,1.8134
3567.00,1.8287
3566.00,1.8442
3565.00,1.8589
3564.00,1.8724
3563.00,1.8847
3562.00,1.8966
3561.00,1.9084
3560.00,1.9202
3559.00,1.9317
3558.00,1.9428
3557.00,1.9534
3556.00,1.9636
3555.00,1.9735
3554.00,1.9831
3553.00,1.9925
3552.00,2.0017
3551.00,2.0104
3550.00,2.0185
3549.00,2.0260
3548.00,2.0332
3547.00,2.0401
3546.00,2.0469
3545.00,2.0536
3544.00,2.0600
3543.00,2.0656
3542.00,2.0702
3541.00,2.0741
3540.00,2.0777
3539.00,2.0811
3538.00,2.0845
3537.00,2.0877
3536.00,2.0906
3535.00,2.0931
3534.00,2.0954
3533.00,2.0977
3532.00,2.0995
3531.00,2.1006
3530.00,2.1012
3529.00,2.1016
3528.00,2.1017
3527.00,2.1015
3526.00,2.1009
3525.00,2.1003
3524.00,2.0996
3523.00,2.0985
3522.00,2.0968
3521.00,2.0944
3520.00,2.0918
3519.00,2.0890
3518.00,2.0865
3517.00,2.0843
3516.00,2.0818
3515.00,2.0782
3514.00,2.0733
3513.00,2.0675
3512.00,2.0615
3511.00,2.0555
3510.00,2.0496
3509.00,2.0434
3508.00,2.0370
3507.00,2.0305
3506.00,2.0238
3505.00,2.0167
3504.00,2.0086
3503.00,1.9996
3502.00,1.9902
3501.00,1.9808
3500.00,1.9717
3499.00,1.9627
3498.00,1.9534
3497.00,1.9437
3496.00,1.9332
3495.00,1.9218
3494.00,1.9099
3493.00,1.8980
3492.00,1.8863
3491.00,1.8745
3490.00,1.8623
3489.00,1.8496
3488.00,1.8366
3487.00,1.8236
3486.00,1.8104
3485.00,1.7972
3484.00,1.7839
3483.00,1.7705
3482.00,1.7572
3481.00,1.7440
3480.00,1.7311
3479.00,1.7184
3478.00,1.7060
3477.00,1.6938
3476.00,1.6819
3475.00,1.6703
3474.00,1.6590
3473.00,1.6482
3472.00,1.6379
3471.00,1.6281
3470.00,1.6191
3469.00,1.6111
3468.00,1.6042
3467.00,1.5981
3466.00,1.5928
3465.00,1.5882
3464.00,1.5844
3463.00,1.5815
3462.00,1.5795
3461.00,1.5785
3460.00,1.5784
3459.00,1.5795
3458.00,1.5816
3457.00,1.5847
3456.00,1.5888
3455.00,1.5939
3454.00,1.5998
3453.00,1.6066
3452.00,1.6142
3451.00,1.6223
3450.00,1.6311
3449.00,1.6407
3448.00,1.6511
3447.00,1.6621
3446.00,1.6735
3445.00,1.6852
3444.00,1.6973
3443.00,1.7098
3442.00,1.7231
3441.00,1.7370
3440.00,1.7513
3439.00,1.7657
3438.00,1.7803
3437.00,1.7950
3436.00,1.8095
3435.00,1.8237
3434.00,1.8375
3433.00,1.8510
3432.00,1.8645
3431.00,1.8781
3430.00,1.8917
3429.00,1.9053
3428.00,1.9189
3427.00,1.9322
3426.00,1.9454
3425.00,1.9584
3424.00,1.9711
3423.00,1.9834
3422.00,1.9953
3421.00,2.0071
3420.00,2.0185
3419.00,2.0293
3418.00,2.0393
3417.00,2.0490
3416.00,2.0586
3415.00,2.0678
3414.00,2.0763
3413.00,2.0843
3412.00,2.0920
3411.00,2.0997
3410.00,2.1073
3409.00,2.1145
3408.00,2.1207
3407.00,2.1259
3406.00,2.1302
3405.00,2.1336
3404.00,2.1364
3403.00,2.1385
3402.00,2.1406
3401.00,2.1428
3400.00,2.1446
3399.00,2.1455
3398.00,2.1453
3397.00,2.1448
3396.00,2.1446
3395.00,2.1447
3394.00,2.1447
3393.00,2.1443
3392.00,2.1433
3391.00,2.1419
3390.00,2.1406
3389.00,2.1391
3388.00,2.1373
3387.00,2.1348
3386.00,2.1316
3385.00,2.1278
3384.00,2.1238
3383.00,2.1195
3382.00,2.1153
3381.00,2.1109
3380.00,2.1060
3379.00,2.1002
3378.00,2.0931
3377.00,2.0853
3376.00,2.0770
3375.00,2.0685
3374.00,2.0601
3373.00,2.0519
3372.00,2.0436
3371.00,2.0346
3370.00,2.0245
3369.00,2.0134
3368.00,2.0017
3367.00,1.9897
3366.00,1.9778
3365.00,1.9659
3364.00,1.9534
3363.00,1.9401
3362.00,1.9256
3361.00,1.9103
3360.00,1.8945
3359.00,1.8785
3358.00,1.8622
3357.00,1.8455
3356.00,1.8281
3355.00,1.8102
3354.00,1.7918
3353.00,1.7730
3352.00,1.7540
3351.00,1.7351
3350.00,1.7162
3349.00,1.6973
3348.00,1.6783
3347.00,1.6591
3346.00,1.6400
3345.00,1.6210
3344.00,1.6023
3343.00,1.5839
3342.00,1.5662
3341.00,1.5490
3340.00,1.5326
3339.00,1.5170
3338.00,1.5025
3337.00,1.4891
3336.00,1.4771
3335.00,1.4666
3334.00,1.4576
3333.00,1.4500
3332.00,1.4438
3331.00,1.4392
3330.00,1.4363
3329.00,1.4351
3328.00,1.4356
3327.00,1.4379
3326.00,1.4418
3325.00,1.4473
3324.00,1.4543
3323.00,1.4626
3322.00,1.4722
3321.00,1.4831
3320.00,1.4951
3319.00,1.5083
3318.00,1.5227
3317.00,1.5381
3316.00,1.5542
3315.00,1.5709
3314.00,1.5881
3313.00,1.6058
3312.00,1.6238
3311.00,1.6420
3310.00,1.6602
3309.00,1.6785
3308.00,1.6970
3307.00,1.7158
3306.00,1.7350
3305.00,1.7543
3304.00,1.7735
3303.00,1.7921
3302.00,1.8100
3301.00,1.8275
3300.00,1.8446
3299.00,1.8614
3298.00,1.8779
3297.00,1.8943
3296.00,1.9108
3295.00,1.9273
3294.00,1.9435
3293.00,1.9590
3292.00,1.9733
3291.00,1.9866
3290.00,1.9992
3289.00,2.0116
3288.00,2.0236
3287.00,2.0351
3286.00,2.0457
3285.00,2.0557
3284.00,2.0653
3283.00,2.0745
3282.00,2.0834
3281.00,2.0920
3280.00,2.1001
3279.00,2.1077
3278.00,2.1146
3277.00,2.1208
3276.00,2.1263
3275.00,2.1314
3274.00,2.1365
3273.00,2.1418
3272.00,2.1466
3271.00,2.1503
3270.00,2.1530
3269.00,2.1556
3268.00,2.1586
3267.00,2.1615
3266.00,2.1634
3265.00,2.1643
3264.00,2.1648
3263.00,2.1654
3262.00,2.1659
3261.00,2.1657
3260.00,2.1640
3259.00,2.1611
3258.00,2.1577
3257.00,2.1543
3256.00,2.1511
3255.00,2.1477
3254.00,2.1441
3253.00,2.1402
3252.00,2.1358
3251.00,2.1310
3250.00,2.1257
3249.00,2.1202
3248.00,2.1142
3247.00,2.1072
3246.00,2.0991
3245.00,2.0902
3244.00,2.0810
3243.00,2.0717
3242.00,2.0622
3241.00,2.0524
3240.00,2.0421
3239.00,2.0312
3238.00,2.0197
3237.00,2.0076
3236.00,1.9951
3235.00,1.9823
3234.00,1.9691
3233.00,1.9557
3232.00,1.9417
3231.00,1.9270
3230.00,1.9117
3229.00,1.8961
3228.00,1.8804
3227.00,1.8647
3226.00,1.8485
3225.00,1.8316
3224.00,1.8140
3223.00,1.7962
3222.00,1.7784
3221.00,1.7609
3220.00,1.7435
3219.00,1.7262
3218.00,1.7091
3217.00,1.6923
3216.00,1.6757
3215.00,1.6595
3214.00,1.6438
3213.00,1.6286
3212.00,1.6141
3211.00,1.6004
3210.00,1.5877
3209.00,1.5761
3208.00,1.5658
3207.00,1.5568
3206.00,1.5492
3205.00,1.5431
3204.00,1.5383
3203.00,1.5348
3202.00,1.5327
3201.00,1.5322
3200.00,1.5332
3199.00,1.5359
3198.00,1.5401
3197.00,1.5458
3196.00,1.5526
3195.00,1.5606
3194.00,1.5698
3193.00,1.5802
3192.00,1.5918
3191.00,1.6046
3190.00,1.6183
3189.00,1.6329
3188.00,1.6482
3187.00,1.6641
3186.00,1.6804
3185.00,1.6971
3184.00,1.7141
3183.00,1.7316
3182.00,1.7493
3181.00,1.7672
3180.00,1.7852
3179.00,1.8030
3178.00,1.8208
3177.00,1.8387
3176.00,1.8565
3175.00,1.8739
3174.00,1.8910
3173.00,1.9079
3172.00,1.9247
3171.00,1.9412
3170.00,1.9570
3169.00,1.9721
3168.00,1.9867
3167.00,2.0013
3166.00,2.0156
3165.00,2.0294
3164.00,2.0426
3163.00,2.0552
3162.00,2.0674
3161.00,2.0791
3160.00,2.0905
3159.00,2.1016
3158.00,2.1122
3157.00,2.1219
3156.00,2.1306
3155.00,2.1388
3154.00,2.1470
3153.00,2.1552
3152.00,2.1629
3151.00,2.1697
3150.00,2.1752
3149.00,2.1798
3148.00,2.1838
3147.00,2.1878
3146.00,2.1921
3145.00,2.1969
3144.00,2.2018
3143.00,2.2064
3142.00,2.2105
3141.00,2.2143
3140.00,2.2178
3139.00,2.2207
3138.00,2.2227
3137.00,2.2237
3136.00,2.2237
3135.00,2.2231
3134.00,2.2221
3133.00,2.2212
3132.00,2.2203
3131.00,2.2192
3130.00,2.2175
3129.00,2.2147
3128.00,2.2108
3127.00,2.2064
3126.00,2.2021
3125.00,2.1978
3124.00,2.1931
3123.00,2.1875
3122.00,2.1815
3121.00,2.1752
3120.00,2.1685
3119.00,2.1607
3118.00,2.1515
3117.00,2.1409
3116.00,2.1295
3115.00,2.1179
3114.00,2.1063
3113.00,2.0948
3112.00,2.0830
3111.00,2.0706
3110.00,2.0577
3109.00,2.0443
3108.00,2.0302
3107.00,2.0152
3106.00,1.9993
3105.00,1.9828
3104.00,1.9658
3103.00,1.9482
3102.00,1.9300
3101.00,1.9113
3100.00,1.8922
3099.00,1.8728
3098.00,1.8532
3097.00,1.8334
3096.00,1.8134
3095.00,1.7935
3094.00,1.7738
3093.00,1.7545
3092.00,1.7355
3091.00,1.7170
3090.00,1.6989
3089.00,1.6815
3088.00,1.6649
3087.00,1.6494
3086.00,1.6353
3085.00,1.6227
3084.00,1.6117
3083.00,1.6022
3082.00,1.5943
3081.00,1.5882
3080.00,1.5842
3079.00,1.5822
3078.00,1.5823
3077.00,1.5845
3076.00,1.5888
3075.00,1.5952
3074.00,1.6034
3073.00,1.6135
3072.00,1.6253
3071.00,1.6387
3070.00,1.6535
3069.00,1.6698
3068.00,1.6871
3067.00,1.7055
3066.00,1.7249
3065.00,1.7451
3064.00,1.7659
3063.00,1.7871
3062.00,1.8086
3061.00,1.8301
3060.00,1.8517
3059.00,1.8730
3058.00,1.8942
3057.00,1.9154
3056.00,1.9365
3055.00,1.9572
3054.00,1.9772
3053.00,1.9967
3052.00,2.0158
3051.00,2.0344
3050.00,2.0526
3049.00,2.0703
3048.00,2.0875
3047.00,2.1041
3046.00,2.1204
3045.00,2.1365
3044.00,2.1520
3043.00,2.1665
3042.00,2.1799
3041.00,2.1927
3040.00,2.2051
3039.00,2.2171
3038.00,2.2287
3037.00,2.2401
3036.00,2.2508
3035.00,2.2601
3034.00,2.2676
3033.00,2.2735
3032.00,2.2787
3031.00,2.2840
3030.00,2.2894
3029.00,2.2945
3028.00,2.2991
3027.00,2.3029
3026.00,2.3056
3025.00,2.3070
3024.00,2.3073
3023.00,2.3065
3022.00,2.3050
3021.00,2.3028
3020.00,2.2998
3019.00,2.2963
3018.00,2.2923
3017.00,2.2877
3016.00,2.2820
3015.00,2.2750
3014.00,2.2666
3013.00,2.2566
3012.00,2.2451
3011.00,2.2325
3010.00,2.2190
3009.00,2.2049
3008.00,2.1895
3007.00,2.1726
3006.00,2.1545
3005.00,2.1354
3004.00,2.1155
3003.00,2.0946
3002.00,2.0731
3001.00,2.0517
3000.00,2.0310
2999.00,2.0110
2998.00,1.9919
2997.00,1.9744
2996.00,1.9594
2995.00,1.9480
2994.00,1.9406
2993.00,1.9378
2992.00,1.9398
2991.00,1.9474
2990.00,1.9610
2989.00,1.9808
2988.00,2.0066
2987.00,2.0380
2986.00,2.0746
2985.00,2.1162
2984.00,2.1620
2983.00,2.2114
2982.00,2.2633
2981.00,2.3169
2980.00,2.3714
2979.00,2.4268
2978.00,2.4830
2977.00,2.5403
2976.00,2.5990
2975.00,2.6590
2974.00,2.7206
2973.00,2.7845
2972.00,2.8518
2971.00,2.9241
2970.00,3.0014
2969.00,3.0809
2968.00,3.1575
2967.00,3.2283
2966.00,3.2963
2965.00,3.3673
2964.00,3.4429
2963.00,3.5180
2962.00,3.5802
2961.00,3.6159
2960.00,3.6236
2959.00,3.6189
2958.00,3.6178
2957.00,3.6217
2956.00,3.6241
2955.00,3.6290
2954.00,3.6489
2953.00,3.6890
2952.00,3.7406
2951.00,3.7899
2950.00,3.8263
2949.00,3.8452
2948.00,3.8548
2947.00,3.8726
2946.00,3.9089
2945.00,3.9575
2944.00,4.0104
2943.00,4.0713
2942.00,4.1395
2941.00,4.1994
2940.00,4.2542
2939.00,4.3512
2938.00,4.5501
2937.00,4.7925
2936.00,4.7473
2935.00,4.5096
2934.00,4.3289
2933.00,4.2482
2932.00,4.2490
2931.00,4.3212
2930.00,4.4264
2929.00,4.5412
2928.00,4.6860
2927.00,4.7411
2926.00,4.6301
2925.00,4.5169
2924.00,4.4760
2923.00,4.3791
2922.00,4.1839
2921.00,4.0053
2920.00,3.8817
2919.00,3.7944
2918.00,3.7157
2917.00,3.6344
2916.00,3.5534
2915.00,3.4808
2914.00,3.4218
2913.00,3.3742
2912.00,3.3317
2911.00,3.2901
2910.00,3.2498
2909.00,3.2132
2908.00,3.1818
2907.00,3.1551
2906.00,3.1303
2905.00,3.1038
2904.00,3.0742
2903.00,3.0432
2902.00,3.0140
2901.00,2.9866
2900.00,2.9593
2899.00,2.9313
2898.00,2.9039
2897.00,2.8785
2896.00,2.8548
2895.00,2.8324
2894.00,2.8116
2893.00,2.7934
2892.00,2.7776
2891.00,2.7634
2890.00,2.7507
2889.00,2.7408
2888.00,2.7355
2887.00,2.7353
2886.00,2.7401
2885.00,2.7493
2884.00,2.7630
2883.00,2.7818
2882.00,2.8058
2881.00,2.8339
2880.00,2.8651
2879.00,2.8992
2878.00,2.9363
2877.00,2.9754
2876.00,3.0160
2875.00,3.0602
2874.00,3.1139
2873.00,3.1810
2872.00,3.2590
2871.00,3.3400
2870.00,3.4184
2869.00,3.4950
2868.00,3.5725
2867.00,3.6492
2866.00,3.7187
2865.00,3.7739
2864.00,3.8095
2863.00,3.8254
2862.00,3.8261
2861.00,3.8113
2860.00,3.7704
2859.00,3.6961
2858.00,3.5967
2857.00,3.4867
2856.00,3.3755
2855.00,3.2675
2854.00,3.1633
2853.00,3.0600
2852.00,2.9548
2851.00,2.8491
2850.00,2.7474
2849.00,2.6530
2848.00,2.5672
2847.00,2.4903
2846.00,2.4226
2845.00,2.3645
2844.00,2.3158
2843.00,2.2764
2842.00,2.2465
2841.00,2.2259
2840.00,2.2140
2839.00,2.2094
2838.00,2.2107
2837.00,2.2166
2836.00,2.2261
2835.00,2.2384
2834.00,2.2528
2833.00,2.2687
2832.00,2.2852
2831.00,2.3013
2830.00,2.3164
2829.00,2.3300
2828.00,2.3419
2827.00,2.3520
2826.00,2.3604
2825.00,2.3677
2824.00,2.3743
2823.00,2.3799
2822.00,2.3847
2821.00,2.3894
2820.00,2.3946
2819.00,2.3998
2818.00,2.4045
2817.00,2.4087
2816.00,2.4125
2815.00,2.4161
2814.00,2.4194
2813.00,2.4218
2812.00,2.4231
2811.00,2.4226
2810.00,2.4205
2809.00,2.4173
2808.00,2.4135
2807.00,2.4091
2806.00,2.4041
2805.00,2.3989
2804.00,2.3938
2803.00,2.3884
2802.00,2.3819
2801.00,2.3735
2800.00,2.3637
2799.00,2.3535
2798.00,2.3433
2797.00,2.3329
2796.00,2.3215
2795.00,2.3086
2794.00,2.2942
2793.00,2.2784
2792.00,2.2610
2791.00,2.2419
2790.00,2.2214
2789.00,2.2000
2788.00,2.1777
2787.00,2.1541
2786.00,2.1288
2785.00,2.1020
2784.00,2.0740
2783.00,2.0451
2782.00,2.0151
2781.00,1.9837
2780.00,1.9512
2779.00,1.9176
2778.00,1.8830
2777.00,1.8474
2776.00,1.8110
2775.00,1.7741
2774.00,1.7370
2773.00,1.7000
2772.00,1.6636
2771.00,1.6282
2770.00,1.5942
2769.00,1.5623
2768.00,1.5330
2767.00,1.5068
2766.00,1.4842
2765.00,1.4653
2764.00,1.4505
2763.00,1.4397
2762.00,1.4326
2761.00,1.4292
2760.00,1.4293
2759.00,1.4329
2758.00,1.4400
2757.00,1.4508
2756.00,1.4653
2755.00,1.4833
2754.00,1.5045
2753.00,1.5285
2752.00,1.5549
2751.00,1.5833
2750.00,1.6133
2749.00,1.6447
2748.00,1.6770
2747.00,1.7101
2746.00,1.7436
2745.00,1.7772
2744.00,1.8106
2743.00,1.8434
2742.00,1.8756
2741.00,1.9073
2740.00,1.9383
2739.00,1.9687
2738.00,1.9981
2737.00,2.0264
2736.00,2.0538
2735.00,2.0804
2734.00,2.1060
2733.00,2.1307
2732.00,2.1541
2731.00,2.1765
2730.00,2.1978
2729.00,2.2177
2728.00,2.2362
2727.00,2.2537
2726.00,2.2704
2725.00,2.2864
2724.00,2.3012
2723.00,2.3145
2722.00,2.3268
2721.00,2.3387
2720.00,2.3503
2719.00,2.3612
2718.00,2.3715
2717.00,2.3811
2716.00,2.3904
2715.00,2.3993
2714.00,2.4075
2713.00,2.4148
2712.00,2.4210
2711.00,2.4264
2710.00,2.4308
2709.00,2.4343
2708.00,2.4371
2707.00,2.4399
2706.00,2.4432
2705.00,2.4467
2704.00,2.4490
2703.00,2.4495
2702.00,2.4483
2701.00,2.4463
2700.00,2.4446
2699.00,2.4432
2698.00,2.4418
2697.00,2.4397
2696.00,2.4362
2695.00,2.4315
2694.00,2.4262
2693.00,2.4208
2692.00,2.4148
2691.00,2.4079
2690.00,2.4001
2689.00,2.3915
2688.00,2.3822
2687.00,2.3722
2686.00,2.3619
2685.00,2.3517
2684.00,2.3417
2683.00,2.3319
2682.00,2.3222
2681.00,2.3122
2680.00,2.3013
2679.00,2.2893
2678.00,2.2762
2677.00,2.2629
2676.00,2.2501
2675.00,2.2377
2674.00,2.2252
2673.00,2.2119
2672.00,2.1974
2671.00,2.1818
2670.00,2.1654
2669.00,2.1481
2668.00,2.1292
2667.00,2.1081
2666.00,2.0846
2665.00,2.0589
2664.00,2.0312
2663.00,2.0016
2662.00,1.9700
2661.00,1.9366
2660.00,1.9023
2659.00,1.8678
2658.00,1.8334
2657.00,1.7994
2656.00,1.7661
2655.00,1.7334
2654.00,1.7016
2653.00,1.6709
2652.00,1.6414
2651.00,1.6131
2650.00,1.5861
2649.00,1.5606
2648.00,1.5366
2647.00,1.5145
2646.00,1.4943
2645.00,1.4763
2644.00,1.4611
2643.00,1.4490
2642.00,1.4405
2641.00,1.4359
2640.00,1.4356
2639.00,1.4396
2638.00,1.4480
2637.00,1.4606
2636.00,1.4773
2635.00,1.4975
2634.00,1.5210
2633.00,1.5470
2632.00,1.5753
2631.00,1.6055
2630.00,1.6371
2629.00,1.6698
2628.00,1.7033
2627.00,1.7371
2626.00,1.7710
2625.00,1.8049
2624.00,1.8388
2623.00,1.8725
2622.00,1.9057
2621.00,1.9379
2620.00,1.9691
2619.00,1.9991
2618.00,2.0280
2617.00,2.0559
2616.00,2.0826
2615.00,2.1082
2614.00,2.1328
2613.00,2.1564
2612.00,2.1791
2611.00,2.2009
2610.00,2.2219
2609.00,2.2421
2608.00,2.2612
2607.00,2.2793
2606.00,2.2966
2605.00,2.3130
2604.00,2.3279
2603.00,2.3413
2602.00,2.3540
2601.00,2.3674
2600.00,2.3820
2599.00,2.3974
2598.00,2.4123
2597.00,2.4254
2596.00,2.4366
2595.00,2.4462
2594.00,2.4552
2593.00,2.4640
2592.00,2.4725
2591.00,2.4805
2590.00,2.4878
2589.00,2.4941
2588.00,2.4995
2587.00,2.5040
2586.00,2.5081
2585.00,2.5124
2584.00,2.5169
2583.00,2.5212
2582.00,2.5250
2581.00,2.5285
2580.00,2.5318
2579.00,2.5343
2578.00,2.5349
2577.00,2.5332
2576.00,2.5303
2575.00,2.5277
2574.00,2.5258
2573.00,2.5240
2572.00,2.5218
2571.00,2.5193
2570.00,2.5168
2569.00,2.5137
2568.00,2.5095
2567.00,2.5042
2566.00,2.4984
2565.00,2.4926
2564.00,2.4865
2563.00,2.4796
2562.00,2.4720
2561.00,2.4634
2560.00,2.4535
2559.00,2.4423
2558.00,2.4307
2557.00,2.4198
2556.00,2.4094
2555.00,2.3985
2554.00,2.3855
2553.00,2.3700
2552.00,2.3531
2551.00,2.3358
2550.00,2.3186
2549.00,2.3013
2548.00,2.2835
2547.00,2.2649
2546.00,2.2455
2545.00,2.2252
2544.00,2.2038
2543.00,2.1813
2542.00,2.1570
2541.00,2.1308
2540.00,2.1028
2539.00,2.0737
2538.00,2.0437
2537.00,2.0127
2536.00,1.9806
2535.00,1.9474
2534.00,1.9133
2533.00,1.8779
2532.00,1.8411
2531.00,1.8029
2530.00,1.7638
2529.00,1.7245
2528.00,1.6853
2527.00,1.6465
2526.00,1.6082
2525.00,1.5705
2524.00,1.5343
2523.00,1.5000
2522.00,1.4682
2521.00,1.4393
2520.00,1.4136
2519.00,1.3917
2518.00,1.3741
2517.00,1.3612
2516.00,1.3534
2515.00,1.3509
2514.00,1.3536
2513.00,1.3617
2512.00,1.3747
2511.00,1.3922
2510.00,1.4139
2509.00,1.4392
2508.00,1.4677
2507.00,1.4987
2506.00,1.5318
2505.00,1.5666
2504.00,1.6026
2503.00,1.6395
2502.00,1.6769
2501.00,1.7145
2500.00,1.7523
2499.00,1.7899
2498.00,1.8273
2497.00,1.8644
2496.00,1.9011
2495.00,1.9373
2494.00,1.9729
2493.00,2.0078
2492.00,2.0416
2491.00,2.0742
2490.00,2.1053
2489.00,2.1353
2488.00,2.1645
2487.00,2.1928
2486.00,2.2203
2485.00,2.2464
2484.00,2.2706
2483.00,2.2931
2482.00,2.3141
2481.00,2.3346
2480.00,2.3545
2479.00,2.3734
2478.00,2.3910
2477.00,2.4072
2476.00,2.4225
2475.00,2.4374
2474.00,2.4525
2473.00,2.4675
2472.00,2.4814
2471.00,2.4935
2470.00,2.5040
2469.00,2.5142
2468.00,2.5245
2467.00,2.5344
2466.00,2.5430
2465.00,2.5507
2464.00,2.5580
2463.00,2.5654
2462.00,2.5731
2461.00,2.5807
2460.00,2.5877
2459.00,2.5936
2458.00,2.5978
2457.00,2.6006
2456.00,2.6026
2455.00,2.6043
2454.00,2.6062
2453.00,2.6081
2452.00,2.6099
2451.00,2.6113
2450.00,2.6120
2449.00,2.6117
2448.00,2.6105
2447.00,2.6087
2446.00,2.6066
2445.00,2.6040
2444.00,2.6004
2443.00,2.5960
2442.00,2.5914
2441.00,2.5872
2440.00,2.5831
2439.00,2.5784
2438.00,2.5727
2437.00,2.5663
2436.00,2.5594
2435.00,2.5520
2434.00,2.5439
2433.00,2.5352
2432.00,2.5261
2431.00,2.5167
2430.00,2.5064
2429.00,2.4947
2428.00,2.4817
2427.00,2.4677
2426.00,2.4533
2425.00,2.4387
2424.00,2.4236
2423.00,2.4075
2422.00,2.3903
2421.00,2.3723
2420.00,2.3538
2419.00,2.3347
2418.00,2.3146
2417.00,2.2930
2416.00,2.2697
2415.00,2.2448
2414.00,2.2181
2413.00,2.1899
2412.00,2.1602
2411.00,2.1289
2410.00,2.0962
2409.00,2.0619
2408.00,2.0259
2407.00,1.9880
2406.00,1.9481
2405.00,1.9061
2404.00,1.8618
2403.00,1.8156
2402.00,1.7682
2401.00,1.7202
2400.00,1.6722
2399.00,1.6246
2398.00,1.5779
2397.00,1.5328
2396.00,1.4904
2395.00,1.4513
2394.00,1.4164
2393.00,1.3862
2392.00,1.3614
2391.00,1.3426
2390.00,1.3300
2389.00,1.3240
2388.00,1.3246
2387.00,1.3315
2386.00,1.3444
2385.00,1.3628
2384.00,1.3860
2383.00,1.4132
2382.00,1.4438
2381.00,1.4768
2380.00,1.5116
2379.00,1.5474
2378.00,1.5836
2377.00,1.6196
2376.00,1.6545
2375.00,1.6877
2374.00,1.7184
2373.00,1.7464
2372.00,1.7719
2371.00,1.7953
2370.00,1.8172
2369.00,1.8383
2368.00,1.8592
2367.00,1.8807
2366.00,1.9038
2365.00,1.9291
2364.00,1.9562
2363.00,1.9834
2362.00,2.0093
2361.00,2.0337
2360.00,2.0569
2359.00,2.0786
2358.00,2.0990
2357.00,2.1189
2356.00,2.1374
2355.00,2.1542
2354.00,2.1674
2353.00,2.1852
2352.00,2.1935
2351.00,2.2189
2350.00,2.2046
2349.00,2.4479
2348.00,2.5578
2347.00,2.5329
2346.00,2.5708
2345.00,2.5755
2344.00,2.5979
2343.00,2.6081
2342.00,2.6212
2341.00,2.6310
2340.00,2.6406
2339.00,2.6505
2338.00,2.6604
2337.00,2.6692
2336.00,2.6757
2335.00,2.6799
2334.00,2.6832
2333.00,2.6872
2332.00,2.6920
2331.00,2.6969
2330.00,2.6987
2329.00,2.7015
2328.00,2.6977
2327.00,2.7051
2326.00,2.6932
2325.00,2.7241
2324.00,2.5387
2323.00,2.5054
2322.00,2.5217
2321.00,2.5174
2320.00,2.5219
2319.00,2.5186
2318.00,2.5161
2317.00,2.5126
2316.00,2.5096
2315.00,2.5073
2314.00,2.5059
2313.00,2.5054
2312.00,2.5068
2311.00,2.5082
2310.00,2.5099
2309.00,2.5091
2308.00,2.5074
2307.00,2.5038
2306.00,2.5008
2305.00,2.4970
2304.00,2.4943
2303.00,2.4913
2302.00,2.4888
2301.00,2.4845
2300.00,2.4786
2299.00,2.4712
2298.00,2.4644
2297.00,2.4576
2296.00,2.4504
2295.00,2.4408
2294.00,2.4291
2293.00,2.4150
2292.00,2.3999
2291.00,2.3835
2290.00,2.3668
2289.00,2.3490
2288.00,2.3300
2287.00,2.3088
2286.00,2.2857
2285.00,2.2607
2284.00,2.2335
2283.00,2.2041
2282.00,2.1723
2281.00,2.1385
2280.00,2.1028
2279.00,2.0657
2278.00,2.0267
2277.00,1.9857
2276.00,1.9424
2275.00,1.8970
2274.00,1.8496
2273.00,1.8006
2272.00,1.7504
2271.00,1.7000
2270.00,1.6501
2269.00,1.6014
2268.00,1.5548
2267.00,1.5111
2266.00,1.4714
2265.00,1.4367
2264.00,1.4080
2263.00,1.3861
2262.00,1.3715
2261.00,1.3645
2260.00,1.3653
2259.00,1.3738
2258.00,1.3896
2257.00,1.4121
2256.00,1.4405
2255.00,1.4735
2254.00,1.5098
2253.00,1.5481
2252.00,1.5870
2251.00,1.6260
2250.00,1.6648
2249.00,1.7040
2248.00,1.7441
2247.00,1.7853
2246.00,1.8276
2245.00,1.8706
2244.00,1.9139
2243.00,1.9567
2242.00,1.9987
2241.00,2.0395
2240.00,2.0792
2239.00,2.1178
2238.00,2.1557
2237.00,2.1928
2236.00,2.2289
2235.00,2.2634
2234.00,2.2960
2233.00,2.3264
2232.00,2.3548
2231.00,2.3817
2230.00,2.4079
2229.00,2.4337
2228.00,2.4588
2227.00,2.4828
2226.00,2.5046
2225.00,2.5236
2224.00,2.5403
2223.00,2.5560
2222.00,2.5724
2221.00,2.5898
2220.00,2.6072
2219.00,2.6234
2218.00,2.6382
2217.00,2.6514
2216.00,2.6629
2215.00,2.6731
2214.00,2.6836
2213.00,2.6954
2212.00,2.7078
2211.00,2.7188
2210.00,2.7273
2209.00,2.7343
2208.00,2.7413
2207.00,2.7489
2206.00,2.7561
2205.00,2.7617
2204.00,2.7656
2203.00,2.7690
2202.00,2.7733
2201.00,2.7790
2200.00,2.7849
2199.00,2.7893
2198.00,2.7913
2197.00,2.7916
2196.00,2.7915
2195.00,2.7917
2194.00,2.7921
2193.00,2.7925
2192.00,2.7929
2191.00,2.7939
2190.00,2.7949
2189.00,2.7943
2188.00,2.7904
2187.00,2.7833
2186.00,2.7745
2185.00,2.7668
2184.00,2.7620
2183.00,2.7597
2182.00,2.7579
2181.00,2.7544
2180.00,2.7485
2179.00,2.7406
2178.00,2.7313
2177.00,2.7211
2176.00,2.7110
2175.00,2.7024
2174.00,2.6952
2173.00,2.6876
2172.00,2.6778
2171.00,2.6655
2170.00,2.6517
2169.00,2.6373
2168.00,2.6222
2167.00,2.6059
2166.00,2.5881
2165.00,2.5688
2164.00,2.5490
2163.00,2.5296
2162.00,2.5104
2161.00,2.4899
2160.00,2.4669
2159.00,2.4410
2158.00,2.4130
2157.00,2.3831
2156.00,2.3516
2155.00,2.3189
2154.00,2.2850
2153.00,2.2497
2152.00,2.2127
2151.00,2.1740
2150.00,2.1339
2149.00,2.0921
2148.00,2.0478
2147.00,2.0010
2146.00,1.9520
2145.00,1.9014
2144.00,1.8500
2143.00,1.7983
2142.00,1.7475
2141.00,1.6985
2140.00,1.6523
2139.00,1.6097
2138.00,1.5715
2137.00,1.5384
2136.00,1.5111
2135.00,1.4898
2134.00,1.4750
2133.00,1.4669
2132.00,1.4657
2131.00,1.4711
2130.00,1.4828
2129.00,1.5003
2128.00,1.5234
2127.00,1.5515
2126.00,1.5840
2125.00,1.6203
2124.00,1.6596
2123.00,1.7015
2122.00,1.7455
2121.00,1.7910
2120.00,1.8375
2119.00,1.8841
2118.00,1.9304
2117.00,1.9763
2116.00,2.0219
2115.00,2.0668
2114.00,2.1108
2113.00,2.1533
2112.00,2.1941
2111.00,2.2334
2110.00,2.2715
2109.00,2.3086
2108.00,2.3444
2107.00,2.3785
2106.00,2.4108
2105.00,2.4412
2104.00,2.4695
2103.00,2.4964
2102.00,2.5225
2101.00,2.5479
2100.00,2.5714
2099.00,2.5921
2098.00,2.6109
2097.00,2.6293
2096.00,2.6480
2095.00,2.6665
2094.00,2.6840
2093.00,2.6999
2092.00,2.7136
2091.00,2.7257
2090.00,2.7368
2089.00,2.7477
2088.00,2.7582
2087.00,2.7686
2086.00,2.7799
2085.00,2.7924
2084.00,2.8049
2083.00,2.8157
2082.00,2.8242
2081.00,2.8315
2080.00,2.8385
2079.00,2.8457
2078.00,2.8531
2077.00,2.8610
2076.00,2.8687
2075.00,2.8753
2074.00,2.8801
2073.00,2.8836
2072.00,2.8861
2071.00,2.8876
2070.00,2.8888
2069.00,2.8901
2068.00,2.8912
2067.00,2.8909
2066.00,2.8887
2065.00,2.8854
2064.00,2.8827
2063.00,2.8822
2062.00,2.8845
2061.00,2.8882
2060.00,2.8899
2059.00,2.8870
2058.00,2.8804
2057.00,2.8734
2056.00,2.8688
2055.00,2.8662
2054.00,2.8633
2053.00,2.8587
2052.00,2.8526
2051.00,2.8451
2050.00,2.8361
2049.00,2.8253
2048.00,2.8126
2047.00,2.7985
2046.00,2.7835
2045.00,2.7688
2044.00,2.7552
2043.00,2.7423
2042.00,2.7285
2041.00,2.7128
2040.00,2.6949
2039.00,2.6756
2038.00,2.6556
2037.00,2.6360
2036.00,2.6170
2035.00,2.5974
2034.00,2.5755
2033.00,2.5502
2032.00,2.5226
2031.00,2.4942
2030.00,2.4652
2029.00,2.4350
2028.00,2.4030
2027.00,2.3694
2026.00,2.3346
2025.00,2.2980
2024.00,2.2591
2023.00,2.2174
2022.00,2.1731
2021.00,2.1269
2020.00,2.0787
2019.00,2.0283
2018.00,1.9753
2017.00,1.9204
2016.00,1.8653
2015.00,1.8119
2014.00,1.7614
2013.00,1.7144
2012.00,1.6710
2011.00,1.6316
2010.00,1.5972
2009.00,1.5688
2008.00,1.5473
2007.00,1.5333
2006.00,1.5274
2005.00,1.5297
2004.00,1.5404
2003.00,1.5589
2002.00,1.5845
2001.00,1.6163
2000.00,1.6534
1999.00,1.6946
1998.00,1.7392
1997.00,1.7862
1996.00,1.8349
1995.00,1.8846
1994.00,1.9339
1993.00,1.9823
1992.00,2.0299
1991.00,2.0775
1990.00,2.1258
1989.00,2.1743
1988.00,2.2223
1987.00,2.2689
1986.00,2.3140
1985.00,2.3577
1984.00,2.3997
1983.00,2.4386
1982.00,2.4733
1981.00,2.5043
1980.00,2.5333
1979.00,2.5618
1978.00,2.5903
1977.00,2.6180
1976.00,2.6443
1975.00,2.6682
1974.00,2.6891
1973.00,2.7073
1972.00,2.7239
1971.00,2.7402
1970.00,2.7572
1969.00,2.7742
1968.00,2.7904
1967.00,2.8049
1966.00,2.8185
1965.00,2.8325
1964.00,2.8475
1963.00,2.8628
1962.00,2.8768
1961.00,2.8880
1960.00,2.8967
1959.00,2.9043
1958.00,2.9118
1957.00,2.9191
1956.00,2.9255
1955.00,2.9311
1954.00,2.9373
1953.00,2.9458
1952.00,2.9560
1951.00,2.9657
1950.00,2.9725
1949.00,2.9757
1948.00,2.9761
1947.00,2.9750
1946.00,2.9743
1945.00,2.9754
1944.00,2.9773
1943.00,2.9770
1942.00,2.9724
1941.00,2.9661
1940.00,2.9633
1939.00,2.9668
1938.00,2.9741
1937.00,2.9794
1936.00,2.9790
1935.00,2.9735
1934.00,2.9659
1933.00,2.9587
1932.00,2.9522
1931.00,2.9457
1930.00,2.9384
1929.00,2.9305
1928.00,2.9225
1927.00,2.9143
1926.00,2.9047
1925.00,2.8927
1924.00,2.8773
1923.00,2.8589
1922.00,2.8393
1921.00,2.8210
1920.00,2.8048
1919.00,2.7898
1918.00,2.7741
1917.00,2.7574
1916.00,2.7411
1915.00,2.7263
1914.00,2.7120
1913.00,2.6960
1912.00,2.6762
1911.00,2.6514
1910.00,2.6222
1909.00,2.5904
1908.00,2.5581
1907.00,2.5260
1906.00,2.4934
1905.00,2.4600
1904.00,2.4248
1903.00,2.3864
1902.00,2.3442
1901.00,2.2982
1900.00,2.2492
1899.00,2.1974
1898.00,2.1420
1897.00,2.0830
1896.00,2.0209
1895.00,1.9576
1894.00,1.8960
1893.00,1.8383
1892.00,1.7849
1891.00,1.7356
1890.00,1.6912
1889.00,1.6549
1888.00,1.6309
1887.00,1.6211
1886.00,1.6251
1885.00,1.6408
1884.00,1.6657
1883.00,1.6978
1882.00,1.7357
1881.00,1.7786
1880.00,1.8257
1879.00,1.8751
1878.00,1.9257
1877.00,1.9774
1876.00,2.0301
1875.00,2.0827
1874.00,2.1344
1873.00,2.1840
1872.00,2.2298
1871.00,2.2703
1870.00,2.3060
1869.00,2.3395
1868.00,2.3743
1867.00,2.4130
1866.00,2.4560
1865.00,2.5014
1864.00,2.5458
1863.00,2.5863
1862.00,2.6220
1861.00,2.6545
1860.00,2.6856
1859.00,2.7162
1858.00,2.7459
1857.00,2.7735
1856.00,2.7985
1855.00,2.8214
1854.00,2.8440
1853.00,2.8671
1852.00,2.8890
1851.00,2.9076
1850.00,2.9220
1849.00,2.9339
1848.00,2.9445
1847.00,2.9534
1846.00,2.9596
1845.00,2.9637
1844.00,2.9682
1843.00,2.9758
1842.00,2.9879
1841.00,3.0031
1840.00,3.0201
1839.00,3.0382
1838.00,3.0557
1837.00,3.0690
1836.00,3.0756
1835.00,3.0775
1834.00,3.0779
1833.00,3.0764
1832.00,3.0703
1831.00,3.0599
1830.00,3.0503
1829.00,3.0479
1828.00,3.0529
1827.00,3.0587
1826.00,3.0582
1825.00,3.0501
1824.00,3.0388
1823.00,3.0302
1822.00,3.0269
1821.00,3.0276
1820.00,3.0295
1819.00,3.0301
1818.00,3.0272
1817.00,3.0187
1816.00,3.0039
1815.00,2.9851
1814.00,2.9648
1813.00,2.9439
1812.00,2.9231
1811.00,2.9041
1810.00,2.8882
1809.00,2.8746
1808.00,2.8618
1807.00,2.8488
1806.00,2.8346
1805.00,2.8169
1804.00,2.7933
1803.00,2.7624
1802.00,2.7238
1801.00,2.6783
1800.00,2.6298
1799.00,2.5817
1798.00,2.5353
1797.00,2.4885
1796.00,2.4381
1795.00,2.3823
1794.00,2.3207
1793.00,2.2557
1792.00,2.1923
1791.00,2.1373
1790.00,2.0973
1789.00,2.0762
1788.00,2.0740
1787.00,2.0872
1786.00,2.1114
1785.00,2.1447
1784.00,2.1882
1783.00,2.2429
1782.00,2.3065
1781.00,2.3760
1780.00,2.4497
1779.00,2.5245
1778.00,2.5978
1777.00,2.6683
1776.00,2.7349
1775.00,2.7956
1774.00,2.8498
1773.00,2.9010
1772.00,2.9512
1771.00,2.9964
1770.00,3.0307
1769.00,3.0549
1768.00,3.0781
1767.00,3.1083
1766.00,3.1441
1765.00,3.1785
1764.00,3.2063
1763.00,3.2274
1762.00,3.2424
1761.00,3.2510
1760.00,3.2567
1759.00,3.2668
1758.00,3.2862
1757.00,3.3123
1756.00,3.3372
1755.00,3.3536
1754.00,3.3620
1753.00,3.3694
1752.00,3.3810
1751.00,3.3958
1750.00,3.4067
1749.00,3.4104
1748.00,3.4156
1747.00,3.4372
1746.00,3.4831
1745.00,3.5502
1744.00,3.6270
1743.00,3.6964
1742.00,3.7385
1741.00,3.7462
1740.00,3.7473
1739.00,3.7902
1738.00,3.9091
1737.00,4.1053
1736.00,4.3355
1735.00,4.4905
1734.00,4.4460
1733.00,4.3250
1732.00,4.2524
1731.00,4.2191
1730.00,4.2080
1729.00,4.2486
1728.00,4.3683
1727.00,4.6522
1726.00,5.1937
1725.00,4.9297
1724.00,4.6901
1723.00,4.7334
1722.00,5.0302
1721.00,5.1313
1720.00,4.7060
1719.00,4.6624
1718.00,5.0351
1717.00,4.9307
1716.00,4.5398
1715.00,4.4804
1714.00,4.5531
1713.00,4.6736
1712.00,4.7313
1711.00,4.6091
1710.00,4.4654
1709.00,4.3923
1708.00,4.3960
1707.00,4.3911
1706.00,4.3854
1705.00,4.4893
1704.00,4.7965
1703.00,5.3414
1702.00,5.1802
1701.00,4.7934
1700.00,4.5742
1699.00,4.5149
1698.00,4.6463
1697.00,4.6057
1696.00,4.3750
1695.00,4.3074
1694.00,4.3200
1693.00,4.2708
1692.00,4.1501
1691.00,4.0089
1690.00,3.8850
1689.00,3.7816
1688.00,3.6908
1687.00,3.6147
1686.00,3.5653
1685.00,3.5478
1684.00,3.5513
1683.00,3.5606
1682.00,3.5656
1681.00,3.5616
1680.00,3.5485
1679.00,3.5278
1678.00,3.5012
1677.00,3.4676
1676.00,3.4251
1675.00,3.3766
1674.00,3.3302
1673.00,3.2926
1672.00,3.2604
1671.00,3.2240
1670.00,3.1765
1669.00,3.1185
1668.00,3.0596
1667.00,3.0099
1666.00,2.9682
1665.00,2.9237
1664.00,2.8670
1663.00,2.7997
1662.00,2.7331
1661.00,2.6795
1660.00,2.6445
1659.00,2.6265
1658.00,2.6218
1657.00,2.6247
1656.00,2.6283
1655.00,2.6337
1654.00,2.6536
1653.00,2.6988
1652.00,2.7652
1651.00,2.8334
1650.00,2.8785
1649.00,2.8931
1648.00,2.8973
1647.00,2.9137
1646.00,2.9462
1645.00,2.9883
1644.00,3.0320
1643.00,3.0712
1642.00,3.1007
1641.00,3.1217
1640.00,3.1386
1639.00,3.1507
1638.00,3.1561
1637.00,3.1555
1636.00,3.1535
1635.00,3.1581
1634.00,3.1744
1633.00,3.1981
1632.00,3.2185
1631.00,3.2313
1630.00,3.2399
1629.00,3.2473
1628.00,3.2538
1627.00,3.2584
1626.00,3.2587
1625.00,3.2522
1624.00,3.2412
1623.00,3.2326
1622.00,3.2318
1621.00,3.2358
1620.00,3.2396
1619.00,3.2438
1618.00,3.2519
1617.00,3.2615
1616.00,3.2667
1615.00,3.2665
1614.00,3.2610
1613.00,3.2485
1612.00,3.2314
1611.00,3.2167
1610.00,3.2084
1609.00,3.2024
1608.00,3.1922
1607.00,3.1769
1606.00,3.1595
1605.00,3.1407
1604.00,3.1205
1603.00,3.1010
1602.00,3.0852
1601.00,3.0720
1600.00,3.0562
1599.00,3.0341
1598.00,3.0058
1597.00,2.9731
1596.00,2.9390
1595.00,2.9082
1594.00,2.8820
1593.00,2.8570
1592.00,2.8291
1591.00,2.7980
1590.00,2.7649
1589.00,2.7281
1588.00,2.6859
1587.00,2.6385
1586.00,2.5872
1585.00,2.5306
1584.00,2.4684
1583.00,2.4017
1582.00,2.3327
1581.00,2.2641
1580.00,2.1971
1579.00,2.1317
1578.00,2.0697
1577.00,2.0171
1576.00,1.9791
1575.00,1.9568
1574.00,1.9437
1573.00,1.9329
1572.00,1.9275
1571.00,1.9365
1570.00,1.9641
1569.00,2.0068
1568.00,2.0593
1567.00,2.1174
1566.00,2.1787
1565.00,2.2425
1564.00,2.3067
1563.00,2.3665
1562.00,2.4187
1561.00,2.4663
1560.00,2.5131
1559.00,2.5550
1558.00,2.5977
1557.00,2.6498
1556.00,2.7028
1555.00,2.7504
1554.00,2.7923
1553.00,2.8338
1552.00,2.8742
1551.00,2.9073
1550.00,2.9345
1549.00,2.9602
1548.00,2.9860
1547.00,3.0102
1546.00,3.0319
1545.00,3.0511
1544.00,3.0650
1543.00,3.0699
1542.00,3.0707
1541.00,3.0796
1540.00,3.1057
1539.00,3.1474
1538.00,3.1907
1537.00,3.2212
1536.00,3.2320
1535.00,3.2271
1534.00,3.2190
1533.00,3.2168
1532.00,3.2218
1531.00,3.2328
1530.00,3.2496
1529.00,3.2692
1528.00,3.2830
1527.00,3.2831
1526.00,3.2714
1525.00,3.2588
1524.00,3.2510
1523.00,3.2467
1522.00,3.2481
1521.00,3.2605
1520.00,3.2799
1519.00,3.2941
1518.00,3.2967
1517.00,3.2913
1516.00,3.2840
1515.00,3.2772
1514.00,3.2724
1513.00,3.2711
1512.00,3.2676
1511.00,3.2522
1510.00,3.2252
1509.00,3.1988
1508.00,3.1862
1507.00,3.1868
1506.00,3.1905
1505.00,3.1937
1504.00,3.2000
1503.00,3.2007
1502.00,3.1854
1501.00,3.1618
1500.00,3.1399
1499.00,3.1202
1498.00,3.1002
1497.00,3.0793
1496.00,3.0583
1495.00,3.0374
1494.00,3.0137
1493.00,2.9831
1492.00,2.9445
1491.00,2.8980
1490.00,2.8424
1489.00,2.7813
1488.00,2.7233
1487.00,2.6754
1486.00,2.6371
1485.00,2.6016
1484.00,2.5633
1483.00,2.5193
1482.00,2.4707
1481.00,2.4243
1480.00,2.3871
1479.00,2.3629
1478.00,2.3511
1477.00,2.3503
1476.00,2.3604
1475.00,2.3845
1474.00,2.4274
1473.00,2.4926
1472.00,2.5776
1471.00,2.6735
1470.00,2.7715
1469.00,2.8680
1468.00,2.9609
1467.00,3.0481
1466.00,3.1291
1465.00,3.2034
1464.00,3.2637
1463.00,3.2981
1462.00,3.3115
1461.00,3.3217
1460.00,3.3386
1459.00,3.3623
1458.00,3.3933
1457.00,3.4434
1456.00,3.5288
1455.00,3.6524
1454.00,3.8008
1453.00,3.9626
1452.00,4.1374
1451.00,4.3204
1450.00,4.4976
1449.00,4.5878
1448.00,4.4536
1447.00,4.1842
1446.00,3.9165
1445.00,3.7078
1444.00,3.5610
1443.00,3.4601
1442.00,3.3943
1441.00,3.3570
1440.00,3.3410
1439.00,3.3383
1438.00,3.3469
1437.00,3.3710
1436.00,3.4167
1435.00,3.4874
1434.00,3.5799
1433.00,3.6852
1432.00,3.7908
1431.00,3.8742
1430.00,3.9136
1429.00,3.9181
1428.00,3.9095
1427.00,3.8867
1426.00,3.8344
1425.00,3.7614
1424.00,3.7021
1423.00,3.6800
1422.00,3.6893
1421.00,3.6986
1420.00,3.6753
1419.00,3.6186
1418.00,3.5545
1417.00,3.4983
1416.00,3.4460
1415.00,3.3951
1414.00,3.3510
1413.00,3.3170
1412.00,3.2930
1411.00,3.2816
1410.00,3.2874
1409.00,3.3081
1408.00,3.3318
1407.00,3.3461
1406.00,3.3501
1405.00,3.3525
1404.00,3.3605
1403.00,3.3769
1402.00,3.4032
1401.00,3.4352
1400.00,3.4591
1399.00,3.4608
1398.00,3.4457
1397.00,3.4364
1396.00,3.4446
1395.00,3.4617
1394.00,3.4764
1393.00,3.4885
1392.00,3.5001
1391.00,3.5060
1390.00,3.5047
1389.00,3.5045
1388.00,3.5121
1387.00,3.5217
1386.00,3.5223
1385.00,3.5160
1384.00,3.5137
1383.00,3.5182
1382.00,3.5240
1381.00,3.5261
1380.00,3.5234
1379.00,3.5159
1378.00,3.5061
1377.00,3.4985
1376.00,3.4928
1375.00,3.4837
1374.00,3.4721
1373.00,3.4633
1372.00,3.4566
1371.00,3.4490
1370.00,3.4406
1369.00,3.4315
1368.00,3.4211
1367.00,3.4065
1366.00,3.3851
1365.00,3.3571
1364.00,3.3240
1363.00,3.2877
1362.00,3.2516
1361.00,3.2210
1360.00,3.1977
1359.00,3.1788
1358.00,3.1611
1357.00,3.1445
1356.00,3.1316
1355.00,3.1276
1354.00,3.1400
1353.00,3.1765
1352.00,3.2415
1351.00,3.3329
1350.00,3.4408
1349.00,3.5485
1348.00,3.6356
1347.00,3.6854
1346.00,3.6957
1345.00,3.6812
1344.00,3.6607
1343.00,3.6489
1342.00,3.6553
1341.00,3.6832
1340.00,3.7212
1339.00,3.7388
1338.00,3.7092
1337.00,3.6407
1336.00,3.5563
1335.00,3.4674
1334.00,3.3778
1333.00,3.2920
1332.00,3.2158
1331.00,3.1539
1330.00,3.1084
1329.00,3.0807
1328.00,3.0724
1327.00,3.0850
1326.00,3.1182
1325.00,3.1683
1324.00,3.2296
1323.00,3.2951
1322.00,3.3603
1321.00,3.4263
1320.00,3.4939
1319.00,3.5595
1318.00,3.6219
1317.00,3.6916
1316.00,3.7899
1315.00,3.9460
1314.00,4.1945
1313.00,4.5378
1312.00,4.6550
1311.00,4.3735
1310.00,4.1237
1309.00,3.9725
1308.00,3.8770
1307.00,3.7895
1306.00,3.6876
1305.00,3.5792
1304.00,3.4773
1303.00,3.3841
1302.00,3.2961
1301.00,3.2130
1300.00,3.1404
1299.00,3.0849
1298.00,3.0497
1297.00,3.0339
1296.00,3.0343
1295.00,3.0481
1294.00,3.0727
1293.00,3.1048
1292.00,3.1414
1291.00,3.1809
1290.00,3.2248
1289.00,3.2752
1288.00,3.3302
1287.00,3.3794
1286.00,3.4105
1285.00,3.4234
1284.00,3.4334
1283.00,3.4573
1282.00,3.4997
1281.00,3.5491
1280.00,3.5842
1279.00,3.5940
1278.00,3.5953
1277.00,3.6098
1276.00,3.6393
1275.00,3.6695
1274.00,3.6829
1273.00,3.6718
1272.00,3.6499
1271.00,3.6400
1270.00,3.6569
1269.00,3.7017
1268.00,3.7621
1267.00,3.8176
1266.00,3.8581
1265.00,3.8912
1264.00,3.9180
1263.00,3.9177
1262.00,3.8762
1261.00,3.8213
1260.00,3.7888
1259.00,3.7816
1258.00,3.7841
1257.00,3.7825
1256.00,3.7763
1255.00,3.7736
1254.00,3.7644
1253.00,3.7396
1252.00,3.7169
1251.00,3.7114
1250.00,3.7181
1249.00,3.7241
1248.00,3.7222
1247.00,3.7111
1246.00,3.6922
1245.00,3.6750
1244.00,3.6753
1243.00,3.7037
1242.00,3.7577
1241.00,3.8189
1240.00,3.8563
1239.00,3.8530
1238.00,3.8329
1237.00,3.8318
1236.00,3.8668
1235.00,3.9273
1234.00,3.9709
1233.00,3.9611
1232.00,3.9258
1231.00,3.9263
1230.00,4.0024
1229.00,4.1558
1228.00,4.3168
1227.00,4.3674
1226.00,4.3489
1225.00,4.3715
1224.00,4.4639
1223.00,4.5373
1222.00,4.4729
1221.00,4.3621
1220.00,4.2942
1219.00,4.2940
1218.00,4.3481
1217.00,4.3640
1216.00,4.2983
1215.00,4.2109
1214.00,4.0981
1213.00,3.9632
1212.00,3.8446
1211.00,3.7718
1210.00,3.7528
1209.00,3.7798
1208.00,3.8331
1207.00,3.8861
1206.00,3.9171
1205.00,3.9275
1204.00,3.9049
1203.00,3.8375
1202.00,3.7732
1201.00,3.7372
1200.00,3.7168
1199.00,3.7029
1198.00,3.6949
1197.00,3.6815
1196.00,3.6466
1195.00,3.5912
1194.00,3.5327
1193.00,3.4889
1192.00,3.4661
1191.00,3.4589
1190.00,3.4520
1189.00,3.4269
1188.00,3.3797
1187.00,3.3292
1186.00,3.2990
1185.00,3.2977
1184.00,3.3147
1183.00,3.3306
1182.00,3.3346
1181.00,3.3303
1180.00,3.3245
1179.00,3.3193
1178.00,3.3170
1177.00,3.3233
1176.00,3.3401
1175.00,3.3610
1174.00,3.3757
1173.00,3.3822
1172.00,3.3882
1171.00,3.3989
1170.00,3.4111
1169.00,3.4204
1168.00,3.4323
1167.00,3.4554
1166.00,3.4907
1165.00,3.5294
1164.00,3.5535
1163.00,3.5565
1162.00,3.5514
1161.00,3.5459
1160.00,3.5543
1159.00,3.6005
1158.00,3.6889
1157.00,3.7680
1156.00,3.7638
1155.00,3.7074
1154.00,3.6576
1153.00,3.6328
1152.00,3.6344
1151.00,3.6577
1150.00,3.6949
1149.00,3.7328
1148.00,3.7565
1147.00,3.7661
1146.00,3.7727
1145.00,3.7824
1144.00,3.7957
1143.00,3.8242
1142.00,3.8954
1141.00,4.0179
1140.00,4.1128
1139.00,4.0432
1138.00,3.9365
1137.00,3.9239
1136.00,4.0032
1135.00,4.0850
1134.00,4.0945
1133.00,4.0706
1132.00,4.0292
1131.00,3.9632
1130.00,3.8808
1129.00,3.8269
1128.00,3.8487
1127.00,3.9582
1126.00,4.0757
1125.00,4.0670
1124.00,4.0228
1123.00,4.0630
1122.00,4.2708
1121.00,4.3965
1120.00,4.1841
1119.00,4.1441
1118.00,4.1767
1117.00,4.1984
1116.00,4.2920
1115.00,4.5220
1114.00,4.3262
1113.00,4.0660
1112.00,3.9514
1111.00,3.9113
1110.00,3.8962
1109.00,3.8678
1108.00,3.8105
1107.00,3.7589
1106.00,3.7591
1105.00,3.8340
1104.00,3.9723
1103.00,4.1051
1102.00,4.1575
1101.00,4.1171
1100.00,4.0090
1099.00,3.9013
1098.00,3.8285
1097.00,3.7964
1096.00,3.7955
1095.00,3.8127
1094.00,3.8545
1093.00,3.9555
1092.00,4.1246
1091.00,4.2633
1090.00,4.2541
1089.00,4.0819
1088.00,3.9145
1087.00,3.8204
1086.00,3.7896
1085.00,3.8049
1084.00,3.8250
1083.00,3.8210
1082.00,3.8306
1081.00,3.8744
1080.00,3.9149
1079.00,3.9096
1078.00,3.8816
1077.00,3.8725
1076.00,3.8719
1075.00,3.8391
1074.00,3.7929
1073.00,3.7680
1072.00,3.7735
1071.00,3.8146
1070.00,3.8838
1069.00,3.9309
1068.00,3.8809
1067.00,3.7512
1066.00,3.6371
1065.00,3.5860
1064.00,3.5904
1063.00,3.6171
1062.00,3.6371
1061.00,3.6450
1060.00,3.6520
1059.00,3.6767
1058.00,3.7360
1057.00,3.8207
1056.00,3.8826
1055.00,3.9055
1054.00,3.9102
1053.00,3.8961
1052.00,3.8590
1051.00,3.8103
1050.00,3.7712
1049.00,3.7544
1048.00,3.7545
1047.00,3.7516
1046.00,3.7224
1045.00,3.6553
1044.00,3.5642
1043.00,3.4808
1042.00,3.4284
1041.00,3.4112
1040.00,3.4173
1039.00,3.4275
1038.00,3.4267
1037.00,3.4167
1036.00,3.4152
1035.00,3.4395
1034.00,3.4969
1033.00,3.5808
1032.00,3.6659
1031.00,3.7183
1030.00,3.7264
1029.00,3.7118
1028.00,3.7063
1027.00,3.7287
1026.00,3.7694
1025.00,3.8013
1024.00,3.8310
1023.00,3.9061
1022.00,4.0457
1021.00,4.1196
1020.00,4.0384
1019.00,3.9812
1018.00,3.9950
1017.00,4.0504
1016.00,4.0785
1015.00,4.0506
1014.00,4.0062
1013.00,3.9910
1012.00,3.9915
1011.00,4.0008
1010.00,4.0585
1009.00,4.1563
1008.00,4.2398
1007.00,4.2974
1006.00,4.2661
1005.00,4.1694
1004.00,4.1131
1003.00,4.0986
1002.00,4.0957
1001.00,4.0898
1000.00,4.0898
999.00,4.1120
998.00,4.1655
997.00,4.2351
996.00,4.2615
995.00,4.2068
994.00,4.1462
993.00,4.1563
992.00,4.2564
991.00,4.4104
990.00,4.4882
989.00,4.4412
988.00,4.3540
987.00,4.2810
986.00,4.2728
985.00,4.2909
984.00,4.1993
983.00,4.1088
982.00,4.1272
981.00,4.2729
980.00,4.5441
979.00,4.7132
978.00,4.5856
977.00,4.3843
976.00,4.2302
975.00,4.1631
974.00,4.1612
973.00,4.1648
972.00,4.1452
971.00,4.1535
970.00,4.2316
969.00,4.3836
968.00,4.6639
967.00,5.0095
966.00,4.4304
965.00,4.2303
964.00,4.2318
963.00,4.4565
962.00,5.1247
961.00,4.5305
960.00,4.3891
959.00,4.4430
958.00,4.5881
957.00,4.7786
956.00,5.2948
955.00,4.6502
954.00,4.2938
953.00,4.1307
952.00,4.0712
951.00,4.0932
950.00,4.1903
949.00,4.4265
948.00,4.9755
947.00,4.4921
946.00,4.3269
945.00,4.2909
944.00,4.2755
943.00,4.3540
942.00,4.6438
941.00,4.6464
940.00,4.2858
939.00,4.1489
938.00,4.1640
937.00,4.3208
936.00,4.5647
935.00,4.6630
934.00,4.6864
933.00,4.6325
932.00,4.4997
931.00,4.3916
930.00,4.3483
929.00,4.4016
928.00,4.5480
927.00,4.5927
926.00,4.4729
925.00,4.3209
924.00,4.1843
923.00,4.1230
922.00,4.1345
921.00,4.1533
920.00,4.1344
919.00,4.1202
918.00,4.1369
917.00,4.1705
916.00,4.1858
915.00,4.2325
914.00,4.3645
913.00,4.4982
912.00,4.6032
911.00,4.5451
910.00,4.2905
909.00,4.1236
908.00,4.0494
907.00,4.0408
906.00,4.0884
905.00,4.1937
904.00,4.2426
903.00,4.1398
902.00,4.0463
901.00,4.0036
900.00,4.0282
899.00,4.1437
898.00,4.2905
897.00,4.2875
896.00,4.1153
895.00,3.9708
894.00,3.9292
893.00,3.9567
892.00,4.0453
891.00,4.2317
890.00,4.2851
889.00,4.1582
888.00,4.1220
887.00,4.1246
886.00,4.1290
885.00,4.2673
884.00,4.6178
883.00,4.3845
882.00,4.1462
881.00,4.0401
880.00,4.0096
879.00,4.0723
878.00,4.2439
877.00,4.4973
876.00,4.5341
875.00,4.3905
874.00,4.3285
873.00,4.4146
872.00,4.7065
871.00,4.5399
870.00,4.1510
869.00,3.9421
868.00,3.8557
867.00,3.8817
866.00,3.9961
865.00,4.2426
864.00,4.7119
863.00,4.4118
862.00,4.3054
861.00,4.2529
860.00,4.1772
859.00,4.2491
858.00,4.6008
857.00,4.8088
856.00,4.2419
855.00,4.0337
854.00,3.9620
853.00,3.9910
852.00,4.1323
851.00,4.5146
850.00,4.6932
849.00,4.2869
848.00,4.2983
847.00,4.2957
846.00,4.1380
845.00,4.1740
844.00,4.2438
843.00,4.1307
842.00,4.0755
841.00,4.1059
840.00,4.1820
839.00,4.2397
838.00,4.4078
837.00,4.7659
836.00,4.2846
835.00,4.0819
834.00,4.0610
833.00,4.1668
832.00,4.3159
831.00,4.1852
830.00,3.9264
829.00,3.7468
828.00,3.6762
827.00,3.7135
826.00,3.8476
825.00,4.0546
824.00,4.4881
823.00,4.4562
822.00,4.0112
821.00,3.9755
820.00,4.1814
819.00,4.7316
818.00,4.4116
817.00,4.0625
816.00,3.9965
815.00,4.0733
814.00,4.2035
813.00,4.2244
812.00,4.1842
811.00,4.1483
810.00,4.0383
809.00,3.9713
808.00,4.0456
807.00,4.2162
806.00,4.4342
805.00,4.6915
804.00,4.8353
803.00,4.8027
802.00,4.4339
801.00,4.2476
800.00,4.2340
799.00,4.2884
798.00,4.2195
797.00,4.0473
796.00,3.9648
795.00,4.0309
794.00,4.2133
793.00,4.2615
792.00,4.1241
791.00,3.9682
790.00,3.8574
789.00,3.8204
788.00,3.8408
787.00,3.8820
786.00,3.9048
785.00,3.8843
784.00,3.8893
783.00,3.9806
782.00,4.2121
781.00,4.7239
780.00,4.6036
779.00,4.3443
778.00,4.2929
777.00,4.5186
776.00,4.9313
775.00,4.2741
774.00,4.1585
773.00,4.3139
772.00,4.5983
771.00,4.4998
770.00,4.3920
769.00,4.4149
768.00,4.3543
767.00,4.2915
766.00,4.1788
765.00,4.0751
764.00,4.1746
763.00,4.6299
762.00,4.8871
761.00,4.4880
760.00,4.1683
759.00,4.0105
758.00,4.0712
757.00,4.3035
756.00,4.2454
755.00,4.0969
754.00,4.0514
753.00,3.9749
752.00,3.9017
751.00,3.8973
750.00,4.0450
749.00,4.2607
748.00,4.0687
747.00,3.9145
746.00,3.9097
745.00,4.0190
744.00,4.2782
743.00,4.6335
742.00,4.6640
741.00,4.3066
740.00,4.0195
739.00,3.8639
738.00,3.7822
737.00,3.7425
736.00,3.7588
735.00,3.8349
734.00,3.9640
733.00,4.1163
732.00,4.3329
731.00,4.8140
730.00,4.6791
729.00,4.2911
728.00,4.1013
727.00,4.0249
726.00,4.0410
725.00,3.9925
724.00,3.8865
723.00,3.8932
722.00,4.0330
721.00,4.0742
720.00,3.9596
719.00,4.0193
718.00,4.1926
717.00,4.0983
716.00,4.0301
715.00,4.1830
714.00,4.4641
713.00,4.3311
712.00,4.2398
711.00,4.5122
710.00,4.8154
709.00,4.2975
708.00,4.0792
707.00,3.9843
706.00,3.9205
705.00,3.9198
704.00,3.9943
703.00,4.0597
702.00,3.9820
701.00,3.8569
700.00,3.7612
