Created as New Dataset,Sample 055 By Administrator Date Wednesday, November 24 2021
cm-1,A
7502.00,1.0507
7501.00,1.0569
7500.00,1.0627
7499.00,1.0687
7498.00,1.0748
7497.00,1.0804
7496.00,1.0852
7495.00,1.0889
7494.00,1.0922
7493.00,1.0958
7492.00,1.1002
7491.00,1.1051
7490.00,1.1099
7489.00,1.1140
7488.00,1.1174
7487.00,1.1203
7486.00,1.1220
7485.00,1.1215
7484.00,1.1186
7483.00,1.1143
7482.00,1.1100
7481.00,1.1068
7480.00,1.1050
7479.00,1.1044
7478.00,1.1046
7477.00,1.1051
7476.00,1.1054
7475.00,1.1054
7474.00,1.1051
7473.00,1.1046
7472.00,1.1038
7471.00,1.1023
7470.00,1.0992
7469.00,1.0945
7468.00,1.0889
7467.00,1.0832
7466.00,1.0778
7465.00,1.0719
7464.00,1.0648
7463.00,1.0568
7462.00,1.0485
7461.00,1.0405
7460.00,1.0324
7459.00,1.0238
7458.00,1.0151
7457.00,1.0071
7456.00,1.0007
7455.00,0.9959
7454.00,0.9922
7453.00,0.9889
7452.00,0.9854
7451.00,0.9812
7450.00,0.9761
7449.00,0.9703
7448.00,0.9642
7447.00,0.9580
7446.00,0.9516
7445.00,0.9452
7444.00,0.9389
7443.00,0.9328
7442.00,0.9267
7441.00,0.9205
7440.00,0.9141
7439.00,0.9079
7438.00,0.9016
7437.00,0.8946
7436.00,0.8868
7435.00,0.8786
7434.00,0.8708
7433.00,0.8633
7432.00,0.8558
7431.00,0.8481
7430.00,0.8405
7429.00,0.8336
7428.00,0.8276
7427.00,0.8224
7426.00,0.8174
7425.00,0.8121
7424.00,0.8064
7423.00,0.8008
7422.00,0.7959
7421.00,0.7915
7420.00,0.7872
7419.00,0.7830
7418.00,0.7791
7417.00,0.7761
7416.00,0.7741
7415.00,0.7726
7414.00,0.7710
7413.00,0.7695
7412.00,0.7687
7411.00,0.7687
7410.00,0.7694
7409.00,0.7706
7408.00,0.7723
7407.00,0.7750
7406.00,0.7787
7405.00,0.7834
7404.00,0.7885
7403.00,0.7937
7402.00,0.7988
7401.00,0.8042
7400.00,0.8101
7399.00,0.8162
7398.00,0.8222
7397.00,0.8283
7396.00,0.8347
7395.00,0.8417
7394.00,0.8493
7393.00,0.8572
7392.00,0.8654
7391.00,0.8739
7390.00,0.8828
7389.00,0.8917
7388.00,0.9006
7387.00,0.9097
7386.00,0.9189
7385.00,0.9279
7384.00,0.9367
7383.00,0.9453
7382.00,0.9540
7381.00,0.9630
7380.00,0.9720
7379.00,0.9811
7378.00,0.9902
7377.00,0.9995
7376.00,1.0086
7375.00,1.0172
7374.00,1.0252
7373.00,1.0332
7372.00,1.0415
7371.00,1.0500
7370.00,1.0580
7369.00,1.0654
7368.00,1.0727
7367.00,1.0803
7366.00,1.0883
7365.00,1.0960
7364.00,1.1028
7363.00,1.1088
7362.00,1.1146
7361.00,1.1208
7360.00,1.1272
7359.00,1.1330
7358.00,1.1378
7357.00,1.1420
7356.00,1.1463
7355.00,1.1509
7354.00,1.1552
7353.00,1.1587
7352.00,1.1616
7351.00,1.1644
7350.00,1.1672
7349.00,1.1696
7348.00,1.1714
7347.00,1.1726
7346.00,1.1736
7345.00,1.1750
7344.00,1.1772
7343.00,1.1798
7342.00,1.1818
7341.00,1.1824
7340.00,1.1819
7339.00,1.1810
7338.00,1.1799
7337.00,1.1779
7336.00,1.1750
7335.00,1.1714
7334.00,1.1680
7333.00,1.1648
7332.00,1.1617
7331.00,1.1580
7330.00,1.1535
7329.00,1.1481
7328.00,1.1425
7327.00,1.1372
7326.00,1.1321
7325.00,1.1266
7324.00,1.1205
7323.00,1.1141
7322.00,1.1076
7321.00,1.1005
7320.00,1.0924
7319.00,1.0836
7318.00,1.0751
7317.00,1.0671
7316.00,1.0591
7315.00,1.0504
7314.00,1.0410
7313.00,1.0312
7312.00,1.0208
7311.00,1.0101
7310.00,0.9992
7309.00,0.9883
7308.00,0.9777
7307.00,0.9675
7306.00,0.9578
7305.00,0.9484
7304.00,0.9391
7303.00,0.9295
7302.00,0.9197
7301.00,0.9096
7300.00,0.8998
7299.00,0.8905
7298.00,0.8817
7297.00,0.8731
7296.00,0.8645
7295.00,0.8561
7294.00,0.8481
7293.00,0.8406
7292.00,0.8334
7291.00,0.8265
7290.00,0.8200
7289.00,0.8141
7288.00,0.8088
7287.00,0.8039
7286.00,0.7996
7285.00,0.7959
7284.00,0.7928
7283.00,0.7904
7282.00,0.7886
7281.00,0.7872
7280.00,0.7864
7279.00,0.7861
7278.00,0.7865
7277.00,0.7876
7276.00,0.7892
7275.00,0.7913
7274.00,0.7940
7273.00,0.7973
7272.00,0.8012
7271.00,0.8054
7270.00,0.8100
7269.00,0.8151
7268.00,0.8207
7267.00,0.8264
7266.00,0.8322
7265.00,0.8385
7264.00,0.8455
7263.00,0.8527
7262.00,0.8600
7261.00,0.8673
7260.00,0.8752
7259.00,0.8835
7258.00,0.8918
7257.00,0.8998
7256.00,0.9075
7255.00,0.9150
7254.00,0.9227
7253.00,0.9309
7252.00,0.9396
7251.00,0.9483
7250.00,0.9567
7249.00,0.9647
7248.00,0.9728
7247.00,0.9814
7246.00,0.9901
7245.00,0.9983
7244.00,1.0060
7243.00,1.0138
7242.00,1.0222
7241.00,1.0309
7240.00,1.0391
7239.00,1.0467
7238.00,1.0538
7237.00,1.0607
7236.00,1.0677
7235.00,1.0748
7234.00,1.0820
7233.00,1.0887
7232.00,1.0946
7231.00,1.0999
7230.00,1.1050
7229.00,1.1100
7228.00,1.1147
7227.00,1.1192
7226.00,1.1236
7225.00,1.1281
7224.00,1.1324
7223.00,1.1364
7222.00,1.1398
7221.00,1.1429
7220.00,1.1457
7219.00,1.1483
7218.00,1.1508
7217.00,1.1532
7216.00,1.1555
7215.00,1.1573
7214.00,1.1582
7213.00,1.1582
7212.00,1.1576
7211.00,1.1568
7210.00,1.1557
7209.00,1.1544
7208.00,1.1529
7207.00,1.1514
7206.00,1.1498
7205.00,1.1480
7204.00,1.1460
7203.00,1.1441
7202.00,1.1424
7201.00,1.1405
7200.00,1.1380
7199.00,1.1350
7198.00,1.1312
7197.00,1.1267
7196.00,1.1216
7195.00,1.1163
7194.00,1.1110
7193.00,1.1059
7192.00,1.1006
7191.00,1.0947
7190.00,1.0882
7189.00,1.0815
7188.00,1.0742
7187.00,1.0664
7186.00,1.0580
7185.00,1.0494
7184.00,1.0406
7183.00,1.0316
7182.00,1.0225
7181.00,1.0135
7180.00,1.0048
7179.00,0.9961
7178.00,0.9869
7177.00,0.9772
7176.00,0.9672
7175.00,0.9574
7174.00,0.9476
7173.00,0.9379
7172.00,0.9283
7171.00,0.9187
7170.00,0.9090
7169.00,0.8992
7168.00,0.8897
7167.00,0.8806
7166.00,0.8721
7165.00,0.8640
7164.00,0.8559
7163.00,0.8480
7162.00,0.8402
7161.00,0.8327
7160.00,0.8256
7159.00,0.8191
7158.00,0.8132
7157.00,0.8077
7156.00,0.8025
7155.00,0.7978
7154.00,0.7939
7153.00,0.7906
7152.00,0.7878
7151.00,0.7853
7150.00,0.7834
7149.00,0.7823
7148.00,0.7819
7147.00,0.7816
7146.00,0.7814
7145.00,0.7817
7144.00,0.7827
7143.00,0.7847
7142.00,0.7875
7141.00,0.7910
7140.00,0.7951
7139.00,0.8000
7138.00,0.8054
7137.00,0.8110
7136.00,0.8166
7135.00,0.8223
7134.00,0.8284
7133.00,0.8353
7132.00,0.8427
7131.00,0.8504
7130.00,0.8584
7129.00,0.8665
7128.00,0.8748
7127.00,0.8832
7126.00,0.8915
7125.00,0.8998
7124.00,0.9081
7123.00,0.9167
7122.00,0.9258
7121.00,0.9353
7120.00,0.9449
7119.00,0.9544
7118.00,0.9637
7117.00,0.9728
7116.00,0.9817
7115.00,0.9906
7114.00,0.9997
7113.00,1.0089
7112.00,1.0184
7111.00,1.0278
7110.00,1.0371
7109.00,1.0461
7108.00,1.0549
7107.00,1.0630
7106.00,1.0705
7105.00,1.0776
7104.00,1.0846
7103.00,1.0915
7102.00,1.0983
7101.00,1.1048
7100.00,1.1115
7099.00,1.1186
7098.00,1.1261
7097.00,1.1335
7096.00,1.1405
7095.00,1.1474
7094.00,1.1545
7093.00,1.1614
7092.00,1.1675
7091.00,1.1722
7090.00,1.1759
7089.00,1.1790
7088.00,1.1820
7087.00,1.1849
7086.00,1.1875
7085.00,1.1897
7084.00,1.1914
7083.00,1.1931
7082.00,1.1948
7081.00,1.1963
7080.00,1.1970
7079.00,1.1973
7078.00,1.1977
7077.00,1.1982
7076.00,1.1984
7075.00,1.1977
7074.00,1.1962
7073.00,1.1941
7072.00,1.1916
7071.00,1.1885
7070.00,1.1852
7069.00,1.1818
7068.00,1.1787
7067.00,1.1756
7066.00,1.1722
7065.00,1.1680
7064.00,1.1630
7063.00,1.1574
7062.00,1.1514
7061.00,1.1450
7060.00,1.1382
7059.00,1.1314
7058.00,1.1247
7057.00,1.1180
7056.00,1.1107
7055.00,1.1030
7054.00,1.0949
7053.00,1.0864
7052.00,1.0771
7051.00,1.0669
7050.00,1.0564
7049.00,1.0461
7048.00,1.0361
7047.00,1.0260
7046.00,1.0158
7045.00,1.0059
7044.00,0.9960
7043.00,0.9858
7042.00,0.9749
7041.00,0.9637
7040.00,0.9525
7039.00,0.9414
7038.00,0.9306
7037.00,0.9202
7036.00,0.9102
7035.00,0.9005
7034.00,0.8911
7033.00,0.8818
7032.00,0.8726
7031.00,0.8635
7030.00,0.8549
7029.00,0.8468
7028.00,0.8394
7027.00,0.8324
7026.00,0.8257
7025.00,0.8193
7024.00,0.8133
7023.00,0.8076
7022.00,0.8023
7021.00,0.7975
7020.00,0.7936
7019.00,0.7906
7018.00,0.7885
7017.00,0.7871
7016.00,0.7863
7015.00,0.7860
7014.00,0.7863
7013.00,0.7871
7012.00,0.7883
7011.00,0.7899
7010.00,0.7923
7009.00,0.7956
7008.00,0.7996
7007.00,0.8041
7006.00,0.8088
7005.00,0.8140
7004.00,0.8197
7003.00,0.8257
7002.00,0.8319
7001.00,0.8383
7000.00,0.8451
6999.00,0.8523
6998.00,0.8601
6997.00,0.8681
6996.00,0.8764
6995.00,0.8848
6994.00,0.8935
6993.00,0.9026
6992.00,0.9119
6991.00,0.9211
6990.00,0.9300
6989.00,0.9388
6988.00,0.9477
6987.00,0.9568
6986.00,0.9661
6985.00,0.9755
6984.00,0.9848
6983.00,0.9943
6982.00,1.0038
6981.00,1.0131
6980.00,1.0220
6979.00,1.0304
6978.00,1.0384
6977.00,1.0460
6976.00,1.0536
6975.00,1.0615
6974.00,1.0696
6973.00,1.0776
6972.00,1.0853
6971.00,1.0930
6970.00,1.1009
6969.00,1.1088
6968.00,1.1163
6967.00,1.1231
6966.00,1.1294
6965.00,1.1355
6964.00,1.1414
6963.00,1.1470
6962.00,1.1522
6961.00,1.1572
6960.00,1.1621
6959.00,1.1668
6958.00,1.1713
6957.00,1.1753
6956.00,1.1788
6955.00,1.1817
6954.00,1.1840
6953.00,1.1858
6952.00,1.1875
6951.00,1.1890
6950.00,1.1903
6949.00,1.1913
6948.00,1.1921
6947.00,1.1928
6946.00,1.1935
6945.00,1.1936
6944.00,1.1929
6943.00,1.1916
6942.00,1.1900
6941.00,1.1881
6940.00,1.1857
6939.00,1.1829
6938.00,1.1797
6937.00,1.1761
6936.00,1.1719
6935.00,1.1673
6934.00,1.1626
6933.00,1.1580
6932.00,1.1531
6931.00,1.1476
6930.00,1.1418
6929.00,1.1360
6928.00,1.1300
6927.00,1.1235
6926.00,1.1165
6925.00,1.1089
6924.00,1.1010
6923.00,1.0927
6922.00,1.0844
6921.00,1.0759
6920.00,1.0670
6919.00,1.0575
6918.00,1.0475
6917.00,1.0374
6916.00,1.0272
6915.00,1.0169
6914.00,1.0064
6913.00,0.9958
6912.00,0.9854
6911.00,0.9754
6910.00,0.9655
6909.00,0.9556
6908.00,0.9457
6907.00,0.9357
6906.00,0.9259
6905.00,0.9158
6904.00,0.9054
6903.00,0.8947
6902.00,0.8843
6901.00,0.8743
6900.00,0.8651
6899.00,0.8563
6898.00,0.8478
6897.00,0.8397
6896.00,0.8320
6895.00,0.8247
6894.00,0.8178
6893.00,0.8113
6892.00,0.8052
6891.00,0.7996
6890.00,0.7948
6889.00,0.7907
6888.00,0.7873
6887.00,0.7842
6886.00,0.7817
6885.00,0.7798
6884.00,0.7785
6883.00,0.7780
6882.00,0.7781
6881.00,0.7789
6880.00,0.7803
6879.00,0.7822
6878.00,0.7848
6877.00,0.7879
6876.00,0.7917
6875.00,0.7959
6874.00,0.8006
6873.00,0.8059
6872.00,0.8117
6871.00,0.8179
6870.00,0.8247
6869.00,0.8319
6868.00,0.8394
6867.00,0.8472
6866.00,0.8551
6865.00,0.8631
6864.00,0.8712
6863.00,0.8795
6862.00,0.8884
6861.00,0.8977
6860.00,0.9074
6859.00,0.9170
6858.00,0.9268
6857.00,0.9367
6856.00,0.9465
6855.00,0.9560
6854.00,0.9654
6853.00,0.9748
6852.00,0.9843
6851.00,0.9939
6850.00,1.0035
6849.00,1.0131
6848.00,1.0225
6847.00,1.0317
6846.00,1.0406
6845.00,1.0496
6844.00,1.0587
6843.00,1.0679
6842.00,1.0770
6841.00,1.0860
6840.00,1.0950
6839.00,1.1037
6838.00,1.1122
6837.00,1.1202
6836.00,1.1276
6835.00,1.1342
6834.00,1.1404
6833.00,1.1465
6832.00,1.1526
6831.00,1.1587
6830.00,1.1646
6829.00,1.1702
6828.00,1.1756
6827.00,1.1805
6826.00,1.1849
6825.00,1.1888
6824.00,1.1921
6823.00,1.1951
6822.00,1.1980
6821.00,1.2013
6820.00,1.2047
6819.00,1.2079
6818.00,1.2106
6817.00,1.2127
6816.00,1.2142
6815.00,1.2152
6814.00,1.2157
6813.00,1.2156
6812.00,1.2148
6811.00,1.2135
6810.00,1.2120
6809.00,1.2104
6808.00,1.2083
6807.00,1.2056
6806.00,1.2026
6805.00,1.1995
6804.00,1.1964
6803.00,1.1926
6802.00,1.1879
6801.00,1.1828
6800.00,1.1775
6799.00,1.1721
6798.00,1.1663
6797.00,1.1601
6796.00,1.1534
6795.00,1.1461
6794.00,1.1383
6793.00,1.1302
6792.00,1.1219
6791.00,1.1135
6790.00,1.1051
6789.00,1.0966
6788.00,1.0878
6787.00,1.0785
6786.00,1.0687
6785.00,1.0585
6784.00,1.0479
6783.00,1.0370
6782.00,1.0259
6781.00,1.0149
6780.00,1.0039
6779.00,0.9930
6778.00,0.9822
6777.00,0.9715
6776.00,0.9608
6775.00,0.9499
6774.00,0.9391
6773.00,0.9282
6772.00,0.9174
6771.00,0.9065
6770.00,0.8959
6769.00,0.8857
6768.00,0.8760
6767.00,0.8666
6766.00,0.8575
6765.00,0.8487
6764.00,0.8405
6763.00,0.8326
6762.00,0.8251
6761.00,0.8181
6760.00,0.8118
6759.00,0.8062
6758.00,0.8013
6757.00,0.7967
6756.00,0.7924
6755.00,0.7888
6754.00,0.7858
6753.00,0.7836
6752.00,0.7820
6751.00,0.7810
6750.00,0.7807
6749.00,0.7813
6748.00,0.7825
6747.00,0.7843
6746.00,0.7868
6745.00,0.7899
6744.00,0.7934
6743.00,0.7976
6742.00,0.8023
6741.00,0.8076
6740.00,0.8133
6739.00,0.8193
6738.00,0.8257
6737.00,0.8327
6736.00,0.8401
6735.00,0.8478
6734.00,0.8559
6733.00,0.8643
6732.00,0.8730
6731.00,0.8818
6730.00,0.8908
6729.00,0.9002
6728.00,0.9099
6727.00,0.9197
6726.00,0.9293
6725.00,0.9389
6724.00,0.9486
6723.00,0.9584
6722.00,0.9682
6721.00,0.9778
6720.00,0.9873
6719.00,0.9971
6718.00,1.0070
6717.00,1.0169
6716.00,1.0264
6715.00,1.0355
6714.00,1.0444
6713.00,1.0535
6712.00,1.0625
6711.00,1.0712
6710.00,1.0796
6709.00,1.0880
6708.00,1.0964
6707.00,1.1046
6706.00,1.1124
6705.00,1.1198
6704.00,1.1269
6703.00,1.1339
6702.00,1.1407
6701.00,1.1473
6700.00,1.1534
6699.00,1.1589
6698.00,1.1642
6697.00,1.1693
6696.00,1.1742
6695.00,1.1786
6694.00,1.1826
6693.00,1.1864
6692.00,1.1904
6691.00,1.1942
6690.00,1.1972
6689.00,1.1994
6688.00,1.2011
6687.00,1.2024
6686.00,1.2035
6685.00,1.2042
6684.00,1.2049
6683.00,1.2054
6682.00,1.2057
6681.00,1.2052
6680.00,1.2039
6679.00,1.2022
6678.00,1.2002
6677.00,1.1980
6676.00,1.1955
6675.00,1.1929
6674.00,1.1904
6673.00,1.1879
6672.00,1.1847
6671.00,1.1804
6670.00,1.1754
6669.00,1.1701
6668.00,1.1647
6667.00,1.1589
6666.00,1.1530
6665.00,1.1469
6664.00,1.1406
6663.00,1.1337
6662.00,1.1264
6661.00,1.1190
6660.00,1.1114
6659.00,1.1036
6658.00,1.0953
6657.00,1.0867
6656.00,1.0776
6655.00,1.0679
6654.00,1.0575
6653.00,1.0469
6652.00,1.0362
6651.00,1.0258
6650.00,1.0157
6649.00,1.0057
6648.00,0.9955
6647.00,0.9849
6646.00,0.9737
6645.00,0.9625
6644.00,0.9512
6643.00,0.9400
6642.00,0.9291
6641.00,0.9184
6640.00,0.9080
6639.00,0.8977
6638.00,0.8876
6637.00,0.8777
6636.00,0.8680
6635.00,0.8583
6634.00,0.8490
6633.00,0.8402
6632.00,0.8320
6631.00,0.8243
6630.00,0.8169
6629.00,0.8099
6628.00,0.8034
6627.00,0.7976
6626.00,0.7922
6625.00,0.7874
6624.00,0.7833
6623.00,0.7798
6622.00,0.7771
6621.00,0.7750
6620.00,0.7734
6619.00,0.7724
6618.00,0.7722
6617.00,0.7728
6616.00,0.7740
6615.00,0.7760
6614.00,0.7788
6613.00,0.7822
6612.00,0.7860
6611.00,0.7901
6610.00,0.7947
6609.00,0.8000
6608.00,0.8060
6607.00,0.8124
6606.00,0.8191
6605.00,0.8264
6604.00,0.8342
6603.00,0.8424
6602.00,0.8510
6601.00,0.8599
6600.00,0.8691
6599.00,0.8785
6598.00,0.8881
6597.00,0.8978
6596.00,0.9076
6595.00,0.9174
6594.00,0.9272
6593.00,0.9373
6592.00,0.9474
6591.00,0.9576
6590.00,0.9678
6589.00,0.9781
6588.00,0.9884
6587.00,0.9983
6586.00,1.0081
6585.00,1.0181
6584.00,1.0282
6583.00,1.0381
6582.00,1.0477
6581.00,1.0571
6580.00,1.0666
6579.00,1.0765
6578.00,1.0862
6577.00,1.0956
6576.00,1.1046
6575.00,1.1135
6574.00,1.1221
6573.00,1.1300
6572.00,1.1373
6571.00,1.1444
6570.00,1.1515
6569.00,1.1589
6568.00,1.1662
6567.00,1.1729
6566.00,1.1792
6565.00,1.1852
6564.00,1.1911
6563.00,1.1965
6562.00,1.2014
6561.00,1.2060
6560.00,1.2105
6559.00,1.2145
6558.00,1.2177
6557.00,1.2204
6556.00,1.2230
6555.00,1.2257
6554.00,1.2283
6553.00,1.2306
6552.00,1.2325
6551.00,1.2341
6550.00,1.2351
6549.00,1.2354
6548.00,1.2352
6547.00,1.2347
6546.00,1.2340
6545.00,1.2331
6544.00,1.2318
6543.00,1.2298
6542.00,1.2271
6541.00,1.2238
6540.00,1.2202
6539.00,1.2161
6538.00,1.2116
6537.00,1.2067
6536.00,1.2017
6535.00,1.1966
6534.00,1.1910
6533.00,1.1848
6532.00,1.1781
6531.00,1.1711
6530.00,1.1636
6529.00,1.1554
6528.00,1.1468
6527.00,1.1380
6526.00,1.1290
6525.00,1.1195
6524.00,1.1096
6523.00,1.0995
6522.00,1.0893
6521.00,1.0790
6520.00,1.0684
6519.00,1.0574
6518.00,1.0464
6517.00,1.0353
6516.00,1.0240
6515.00,1.0123
6514.00,1.0002
6513.00,0.9878
6512.00,0.9755
6511.00,0.9633
6510.00,0.9512
6509.00,0.9394
6508.00,0.9279
6507.00,0.9167
6506.00,0.9059
6505.00,0.8953
6504.00,0.8847
6503.00,0.8742
6502.00,0.8641
6501.00,0.8544
6500.00,0.8451
6499.00,0.8363
6498.00,0.8280
6497.00,0.8204
6496.00,0.8133
6495.00,0.8067
6494.00,0.8007
6493.00,0.7953
6492.00,0.7907
6491.00,0.7866
6490.00,0.7832
6489.00,0.7806
6488.00,0.7785
6487.00,0.7772
6486.00,0.7767
6485.00,0.7769
6484.00,0.7778
6483.00,0.7794
6482.00,0.7818
6481.00,0.7848
6480.00,0.7885
6479.00,0.7925
6478.00,0.7972
6477.00,0.8026
6476.00,0.8086
6475.00,0.8151
6474.00,0.8222
6473.00,0.8298
6472.00,0.8379
6471.00,0.8462
6470.00,0.8546
6469.00,0.8634
6468.00,0.8723
6467.00,0.8816
6466.00,0.8911
6465.00,0.9007
6464.00,0.9105
6463.00,0.9203
6462.00,0.9302
6461.00,0.9403
6460.00,0.9506
6459.00,0.9611
6458.00,0.9717
6457.00,0.9822
6456.00,0.9926
6455.00,1.0031
6454.00,1.0135
6453.00,1.0237
6452.00,1.0336
6451.00,1.0433
6450.00,1.0530
6449.00,1.0628
6448.00,1.0725
6447.00,1.0819
6446.00,1.0910
6445.00,1.0998
6444.00,1.1083
6443.00,1.1166
6442.00,1.1245
6441.00,1.1323
6440.00,1.1398
6439.00,1.1472
6438.00,1.1545
6437.00,1.1618
6436.00,1.1687
6435.00,1.1750
6434.00,1.1806
6433.00,1.1860
6432.00,1.1912
6431.00,1.1962
6430.00,1.2008
6429.00,1.2049
6428.00,1.2084
6427.00,1.2118
6426.00,1.2152
6425.00,1.2185
6424.00,1.2212
6423.00,1.2232
6422.00,1.2246
6421.00,1.2257
6420.00,1.2263
6419.00,1.2265
6418.00,1.2264
6417.00,1.2261
6416.00,1.2258
6415.00,1.2251
6414.00,1.2239
6413.00,1.2219
6412.00,1.2192
6411.00,1.2161
6410.00,1.2131
6409.00,1.2100
6408.00,1.2065
6407.00,1.2025
6406.00,1.1980
6405.00,1.1933
6404.00,1.1882
6403.00,1.1828
6402.00,1.1771
6401.00,1.1710
6400.00,1.1647
6399.00,1.1578
6398.00,1.1504
6397.00,1.1425
6396.00,1.1343
6395.00,1.1258
6394.00,1.1174
6393.00,1.1089
6392.00,1.1000
6391.00,1.0902
6390.00,1.0799
6389.00,1.0694
6388.00,1.0588
6387.00,1.0481
6386.00,1.0373
6385.00,1.0265
6384.00,1.0155
6383.00,1.0041
6382.00,0.9925
6381.00,0.9808
6380.00,0.9692
6379.00,0.9576
6378.00,0.9461
6377.00,0.9349
6376.00,0.9238
6375.00,0.9126
6374.00,0.9015
6373.00,0.8905
6372.00,0.8797
6371.00,0.8691
6370.00,0.8587
6369.00,0.8485
6368.00,0.8389
6367.00,0.8298
6366.00,0.8214
6365.00,0.8137
6364.00,0.8067
6363.00,0.8003
6362.00,0.7944
6361.00,0.7890
6360.00,0.7842
6359.00,0.7799
6358.00,0.7763
6357.00,0.7733
6356.00,0.7712
6355.00,0.7699
6354.00,0.7694
6353.00,0.7697
6352.00,0.7709
6351.00,0.7729
6350.00,0.7755
6349.00,0.7789
6348.00,0.7830
6347.00,0.7876
6346.00,0.7929
6345.00,0.7986
6344.00,0.8048
6343.00,0.8114
6342.00,0.8184
6341.00,0.8257
6340.00,0.8335
6339.00,0.8417
6338.00,0.8504
6337.00,0.8596
6336.00,0.8691
6335.00,0.8789
6334.00,0.8891
6333.00,0.8995
6332.00,0.9101
6331.00,0.9207
6330.00,0.9314
6329.00,0.9420
6328.00,0.9526
6327.00,0.9633
6326.00,0.9742
6325.00,0.9852
6324.00,0.9963
6323.00,1.0073
6322.00,1.0183
6321.00,1.0291
6320.00,1.0398
6319.00,1.0504
6318.00,1.0609
6317.00,1.0715
6316.00,1.0819
6315.00,1.0921
6314.00,1.1019
6313.00,1.1112
6312.00,1.1203
6311.00,1.1294
6310.00,1.1382
6309.00,1.1467
6308.00,1.1549
6307.00,1.1629
6306.00,1.1709
6305.00,1.1785
6304.00,1.1854
6303.00,1.1919
6302.00,1.1983
6301.00,1.2046
6300.00,1.2106
6299.00,1.2162
6298.00,1.2217
6297.00,1.2274
6296.00,1.2330
6295.00,1.2381
6294.00,1.2425
6293.00,1.2460
6292.00,1.2489
6291.00,1.2514
6290.00,1.2535
6289.00,1.2554
6288.00,1.2571
6287.00,1.2586
6286.00,1.2598
6285.00,1.2604
6284.00,1.2603
6283.00,1.2597
6282.00,1.2588
6281.00,1.2577
6280.00,1.2558
6279.00,1.2532
6278.00,1.2498
6277.00,1.2460
6276.00,1.2418
6275.00,1.2373
6274.00,1.2330
6273.00,1.2289
6272.00,1.2246
6271.00,1.2195
6270.00,1.2134
6269.00,1.2066
6268.00,1.1994
6267.00,1.1919
6266.00,1.1839
6265.00,1.1758
6264.00,1.1675
6263.00,1.1589
6262.00,1.1498
6261.00,1.1401
6260.00,1.1300
6259.00,1.1197
6258.00,1.1092
6257.00,1.0984
6256.00,1.0871
6255.00,1.0753
6254.00,1.0634
6253.00,1.0514
6252.00,1.0393
6251.00,1.0270
6250.00,1.0146
6249.00,1.0020
6248.00,0.9893
6247.00,0.9763
6246.00,0.9634
6245.00,0.9508
6244.00,0.9386
6243.00,0.9265
6242.00,0.9145
6241.00,0.9029
6240.00,0.8915
6239.00,0.8801
6238.00,0.8690
6237.00,0.8583
6236.00,0.8482
6235.00,0.8386
6234.00,0.8293
6233.00,0.8207
6232.00,0.8127
6231.00,0.8055
6230.00,0.7988
6229.00,0.7928
6228.00,0.7875
6227.00,0.7831
6226.00,0.7794
6225.00,0.7765
6224.00,0.7743
6223.00,0.7727
6222.00,0.7719
6221.00,0.7719
6220.00,0.7726
6219.00,0.7741
6218.00,0.7763
6217.00,0.7792
6216.00,0.7830
6215.00,0.7874
6214.00,0.7924
6213.00,0.7980
6212.00,0.8041
6211.00,0.8109
6210.00,0.8183
6209.00,0.8262
6208.00,0.8345
6207.00,0.8431
6206.00,0.8521
6205.00,0.8614
6204.00,0.8711
6203.00,0.8810
6202.00,0.8911
6201.00,0.9013
6200.00,0.9117
6199.00,0.9221
6198.00,0.9327
6197.00,0.9434
6196.00,0.9541
6195.00,0.9650
6194.00,0.9761
6193.00,0.9872
6192.00,0.9982
6191.00,1.0088
6190.00,1.0192
6189.00,1.0295
6188.00,1.0399
6187.00,1.0501
6186.00,1.0603
6185.00,1.0707
6184.00,1.0810
6183.00,1.0909
6182.00,1.1002
6181.00,1.1092
6180.00,1.1182
6179.00,1.1273
6178.00,1.1364
6177.00,1.1452
6176.00,1.1537
6175.00,1.1615
6174.00,1.1686
6173.00,1.1750
6172.00,1.1811
6171.00,1.1872
6170.00,1.1935
6169.00,1.1997
6168.00,1.2054
6167.00,1.2106
6166.00,1.2154
6165.00,1.2200
6164.00,1.2244
6163.00,1.2286
6162.00,1.2325
6161.00,1.2359
6160.00,1.2390
6159.00,1.2416
6158.00,1.2436
6157.00,1.2451
6156.00,1.2460
6155.00,1.2468
6154.00,1.2474
6153.00,1.2477
6152.00,1.2477
6151.00,1.2474
6150.00,1.2470
6149.00,1.2463
6148.00,1.2450
6147.00,1.2430
6146.00,1.2405
6145.00,1.2377
6144.00,1.2346
6143.00,1.2311
6142.00,1.2272
6141.00,1.2228
6140.00,1.2180
6139.00,1.2128
6138.00,1.2073
6137.00,1.2013
6136.00,1.1949
6135.00,1.1883
6134.00,1.1814
6133.00,1.1740
6132.00,1.1660
6131.00,1.1575
6130.00,1.1488
6129.00,1.1397
6128.00,1.1301
6127.00,1.1200
6126.00,1.1095
6125.00,1.0987
6124.00,1.0876
6123.00,1.0760
6122.00,1.0642
6121.00,1.0523
6120.00,1.0403
6119.00,1.0282
6118.00,1.0160
6117.00,1.0036
6116.00,0.9910
6115.00,0.9782
6114.00,0.9654
6113.00,0.9526
6112.00,0.9399
6111.00,0.9274
6110.00,0.9150
6109.00,0.9029
6108.00,0.8910
6107.00,0.8793
6106.00,0.8681
6105.00,0.8573
6104.00,0.8471
6103.00,0.8374
6102.00,0.8282
6101.00,0.8196
6100.00,0.8114
6099.00,0.8038
6098.00,0.7968
6097.00,0.7905
6096.00,0.7849
6095.00,0.7800
6094.00,0.7760
6093.00,0.7727
6092.00,0.7702
6091.00,0.7686
6090.00,0.7678
6089.00,0.7680
6088.00,0.7691
6087.00,0.7709
6086.00,0.7736
6085.00,0.7770
6084.00,0.7810
6083.00,0.7855
6082.00,0.7907
6081.00,0.7965
6080.00,0.8030
6079.00,0.8100
6078.00,0.8177
6077.00,0.8260
6076.00,0.8347
6075.00,0.8439
6074.00,0.8534
6073.00,0.8633
6072.00,0.8735
6071.00,0.8840
6070.00,0.8946
6069.00,0.9054
6068.00,0.9163
6067.00,0.9273
6066.00,0.9385
6065.00,0.9498
6064.00,0.9612
6063.00,0.9726
6062.00,0.9841
6061.00,0.9957
6060.00,1.0073
6059.00,1.0188
6058.00,1.0302
6057.00,1.0416
6056.00,1.0529
6055.00,1.0640
6054.00,1.0750
6053.00,1.0858
6052.00,1.0967
6051.00,1.1073
6050.00,1.1177
6049.00,1.1278
6048.00,1.1376
6047.00,1.1473
6046.00,1.1570
6045.00,1.1665
6044.00,1.1757
6043.00,1.1844
6042.00,1.1928
6041.00,1.2010
6040.00,1.2088
6039.00,1.2162
6038.00,1.2231
6037.00,1.2298
6036.00,1.2361
6035.00,1.2419
6034.00,1.2471
6033.00,1.2521
6032.00,1.2568
6031.00,1.2614
6030.00,1.2657
6029.00,1.2697
6028.00,1.2732
6027.00,1.2760
6026.00,1.2780
6025.00,1.2795
6024.00,1.2808
6023.00,1.2819
6022.00,1.2827
6021.00,1.2832
6020.00,1.2834
6019.00,1.2832
6018.00,1.2823
6017.00,1.2807
6016.00,1.2785
6015.00,1.2758
6014.00,1.2730
6013.00,1.2700
6012.00,1.2667
6011.00,1.2629
6010.00,1.2583
6009.00,1.2530
6008.00,1.2473
6007.00,1.2413
6006.00,1.2348
6005.00,1.2279
6004.00,1.2208
6003.00,1.2135
6002.00,1.2059
6001.00,1.1977
6000.00,1.1888
5999.00,1.1795
5998.00,1.1698
5997.00,1.1597
5996.00,1.1492
5995.00,1.1383
5994.00,1.1272
5993.00,1.1158
5992.00,1.1039
5991.00,1.0915
5990.00,1.0789
5989.00,1.0663
5988.00,1.0537
5987.00,1.0409
5986.00,1.0280
5985.00,1.0149
5984.00,1.0016
5983.00,0.9881
5982.00,0.9747
5981.00,0.9614
5980.00,0.9483
5979.00,0.9354
5978.00,0.9227
5977.00,0.9102
5976.00,0.8979
5975.00,0.8857
5974.00,0.8739
5973.00,0.8626
5972.00,0.8518
5971.00,0.8415
5970.00,0.8317
5969.00,0.8225
5968.00,0.8140
5967.00,0.8061
5966.00,0.7989
5965.00,0.7924
5964.00,0.7866
5963.00,0.7815
5962.00,0.7773
5961.00,0.7740
5960.00,0.7716
5959.00,0.7699
5958.00,0.7692
5957.00,0.7694
5956.00,0.7705
5955.00,0.7723
5954.00,0.7749
5953.00,0.7783
5952.00,0.7825
5951.00,0.7875
5950.00,0.7931
5949.00,0.7994
5948.00,0.8062
5947.00,0.8137
5946.00,0.8220
5945.00,0.8307
5944.00,0.8400
5943.00,0.8497
5942.00,0.8598
5941.00,0.8701
5940.00,0.8807
5939.00,0.8915
5938.00,0.9026
5937.00,0.9138
5936.00,0.9253
5935.00,0.9370
5934.00,0.9487
5933.00,0.9606
5932.00,0.9725
5931.00,0.9846
5930.00,0.9968
5929.00,1.0090
5928.00,1.0213
5927.00,1.0335
5926.00,1.0455
5925.00,1.0575
5924.00,1.0692
5923.00,1.0808
5922.00,1.0923
5921.00,1.1038
5920.00,1.1151
5919.00,1.1262
5918.00,1.1371
5917.00,1.1477
5916.00,1.1578
5915.00,1.1675
5914.00,1.1769
5913.00,1.1862
5912.00,1.1955
5911.00,1.2045
5910.00,1.2132
5909.00,1.2218
5908.00,1.2300
5907.00,1.2377
5906.00,1.2447
5905.00,1.2512
5904.00,1.2574
5903.00,1.2633
5902.00,1.2690
5901.00,1.2744
5900.00,1.2794
5899.00,1.2841
5898.00,1.2884
5897.00,1.2922
5896.00,1.2955
5895.00,1.2984
5894.00,1.3009
5893.00,1.3032
5892.00,1.3053
5891.00,1.3070
5890.00,1.3083
5889.00,1.3091
5888.00,1.3092
5887.00,1.3087
5886.00,1.3074
5885.00,1.3058
5884.00,1.3041
5883.00,1.3024
5882.00,1.3004
5881.00,1.2978
5880.00,1.2944
5879.00,1.2905
5878.00,1.2861
5877.00,1.2812
5876.00,1.2757
5875.00,1.2697
5874.00,1.2632
5873.00,1.2562
5872.00,1.2487
5871.00,1.2407
5870.00,1.2326
5869.00,1.2243
5868.00,1.2158
5867.00,1.2068
5866.00,1.1974
5865.00,1.1874
5864.00,1.1770
5863.00,1.1662
5862.00,1.1551
5861.00,1.1439
5860.00,1.1325
5859.00,1.1207
5858.00,1.1085
5857.00,1.0958
5856.00,1.0824
5855.00,1.0688
5854.00,1.0551
5853.00,1.0416
5852.00,1.0282
5851.00,1.0148
5850.00,1.0014
5849.00,0.9881
5848.00,0.9747
5847.00,0.9614
5846.00,0.9481
5845.00,0.9351
5844.00,0.9224
5843.00,0.9100
5842.00,0.8979
5841.00,0.8862
5840.00,0.8750
5839.00,0.8644
5838.00,0.8544
5837.00,0.8450
5836.00,0.8360
5835.00,0.8276
5834.00,0.8199
5833.00,0.8129
5832.00,0.8067
5831.00,0.8012
5830.00,0.7966
5829.00,0.7929
5828.00,0.7901
5827.00,0.7880
5826.00,0.7868
5825.00,0.7864
5824.00,0.7869
5823.00,0.7883
5822.00,0.7906
5821.00,0.7937
5820.00,0.7975
5819.00,0.8021
5818.00,0.8074
5817.00,0.8133
5816.00,0.8198
5815.00,0.8270
5814.00,0.8348
5813.00,0.8432
5812.00,0.8519
5811.00,0.8610
5810.00,0.8706
5809.00,0.8806
5808.00,0.8909
5807.00,0.9015
5806.00,0.9123
5805.00,0.9235
5804.00,0.9349
5803.00,0.9465
5802.00,0.9583
5801.00,0.9702
5800.00,0.9820
5799.00,0.9938
5798.00,1.0056
5797.00,1.0175
5796.00,1.0293
5795.00,1.0411
5794.00,1.0528
5793.00,1.0644
5792.00,1.0758
5791.00,1.0872
5790.00,1.0986
5789.00,1.1101
5788.00,1.1216
5787.00,1.1330
5786.00,1.1441
5785.00,1.1548
5784.00,1.1652
5783.00,1.1752
5782.00,1.1850
5781.00,1.1945
5780.00,1.2036
5779.00,1.2125
5778.00,1.2213
5777.00,1.2301
5776.00,1.2387
5775.00,1.2469
5774.00,1.2546
5773.00,1.2617
5772.00,1.2684
5771.00,1.2747
5770.00,1.2809
5769.00,1.2868
5768.00,1.2924
5767.00,1.2976
5766.00,1.3024
5765.00,1.3066
5764.00,1.3103
5763.00,1.3135
5762.00,1.3162
5761.00,1.3185
5760.00,1.3201
5759.00,1.3211
5758.00,1.3219
5757.00,1.3227
5756.00,1.3236
5755.00,1.3243
5754.00,1.3246
5753.00,1.3241
5752.00,1.3230
5751.00,1.3212
5750.00,1.3188
5749.00,1.3159
5748.00,1.3125
5747.00,1.3087
5746.00,1.3045
5745.00,1.2998
5744.00,1.2948
5743.00,1.2895
5742.00,1.2840
5741.00,1.2781
5740.00,1.2715
5739.00,1.2639
5738.00,1.2556
5737.00,1.2470
5736.00,1.2381
5735.00,1.2289
5734.00,1.2193
5733.00,1.2093
5732.00,1.1988
5731.00,1.1879
5730.00,1.1765
5729.00,1.1649
5728.00,1.1531
5727.00,1.1411
5726.00,1.1287
5725.00,1.1158
5724.00,1.1025
5723.00,1.0888
5722.00,1.0749
5721.00,1.0608
5720.00,1.0466
5719.00,1.0324
5718.00,1.0183
5717.00,1.0043
5716.00,0.9902
5715.00,0.9760
5714.00,0.9619
5713.00,0.9479
5712.00,0.9342
5711.00,0.9207
5710.00,0.9076
5709.00,0.8948
5708.00,0.8825
5707.00,0.8706
5706.00,0.8593
5705.00,0.8485
5704.00,0.8383
5703.00,0.8286
5702.00,0.8197
5701.00,0.8116
5700.00,0.8042
5699.00,0.7977
5698.00,0.7923
5697.00,0.7879
5696.00,0.7842
5695.00,0.7813
5694.00,0.7793
5693.00,0.7781
5692.00,0.7778
5691.00,0.7785
5690.00,0.7801
5689.00,0.7827
5688.00,0.7861
5687.00,0.7903
5686.00,0.7954
5685.00,0.8012
5684.00,0.8078
5683.00,0.8150
5682.00,0.8229
5681.00,0.8314
5680.00,0.8405
5679.00,0.8500
5678.00,0.8600
5677.00,0.8705
5676.00,0.8812
5675.00,0.8923
5674.00,0.9037
5673.00,0.9155
5672.00,0.9276
5671.00,0.9399
5670.00,0.9523
5669.00,0.9647
5668.00,0.9772
5667.00,0.9898
5666.00,1.0026
5665.00,1.0156
5664.00,1.0285
5663.00,1.0414
5662.00,1.0539
5661.00,1.0663
5660.00,1.0786
5659.00,1.0907
5658.00,1.1028
5657.00,1.1148
5656.00,1.1265
5655.00,1.1379
5654.00,1.1491
5653.00,1.1601
5652.00,1.1711
5651.00,1.1819
5650.00,1.1923
5649.00,1.2025
5648.00,1.2125
5647.00,1.2222
5646.00,1.2316
5645.00,1.2408
5644.00,1.2497
5643.00,1.2584
5642.00,1.2664
5641.00,1.2735
5640.00,1.2800
5639.00,1.2861
5638.00,1.2921
5637.00,1.2980
5636.00,1.3037
5635.00,1.3092
5634.00,1.3144
5633.00,1.3189
5632.00,1.3230
5631.00,1.3269
5630.00,1.3307
5629.00,1.3338
5628.00,1.3359
5627.00,1.3370
5626.00,1.3376
5625.00,1.3377
5624.00,1.3375
5623.00,1.3371
5622.00,1.3368
5621.00,1.3363
5620.00,1.3350
5619.00,1.3330
5618.00,1.3307
5617.00,1.3282
5616.00,1.3256
5615.00,1.3226
5614.00,1.3188
5613.00,1.3143
5612.00,1.3092
5611.00,1.3035
5610.00,1.2973
5609.00,1.2904
5608.00,1.2830
5607.00,1.2750
5606.00,1.2665
5605.00,1.2576
5604.00,1.2483
5603.00,1.2389
5602.00,1.2292
5601.00,1.2193
5600.00,1.2089
5599.00,1.1980
5598.00,1.1865
5597.00,1.1747
5596.00,1.1623
5595.00,1.1496
5594.00,1.1367
5593.00,1.1234
5592.00,1.1098
5591.00,1.0957
5590.00,1.0813
5589.00,1.0666
5588.00,1.0518
5587.00,1.0369
5586.00,1.0219
5585.00,1.0071
5584.00,0.9921
5583.00,0.9771
5582.00,0.9622
5581.00,0.9474
5580.00,0.9330
5579.00,0.9187
5578.00,0.9049
5577.00,0.8915
5576.00,0.8785
5575.00,0.8659
5574.00,0.8538
5573.00,0.8423
5572.00,0.8315
5571.00,0.8214
5570.00,0.8121
5569.00,0.8036
5568.00,0.7960
5567.00,0.7892
5566.00,0.7833
5565.00,0.7783
5564.00,0.7742
5563.00,0.7710
5562.00,0.7689
5561.00,0.7680
5560.00,0.7680
5559.00,0.7691
5558.00,0.7710
5557.00,0.7739
5556.00,0.7775
5555.00,0.7820
5554.00,0.7873
5553.00,0.7935
5552.00,0.8005
5551.00,0.8082
5550.00,0.8167
5549.00,0.8257
5548.00,0.8353
5547.00,0.8453
5546.00,0.8558
5545.00,0.8667
5544.00,0.8779
5543.00,0.8893
5542.00,0.9010
5541.00,0.9131
5540.00,0.9254
5539.00,0.9379
5538.00,0.9505
5537.00,0.9633
5536.00,0.9761
5535.00,0.9889
5534.00,1.0016
5533.00,1.0143
5532.00,1.0269
5531.00,1.0393
5530.00,1.0516
5529.00,1.0639
5528.00,1.0761
5527.00,1.0882
5526.00,1.1002
5525.00,1.1121
5524.00,1.1236
5523.00,1.1348
5522.00,1.1459
5521.00,1.1568
5520.00,1.1674
5519.00,1.1777
5518.00,1.1878
5517.00,1.1976
5516.00,1.2073
5515.00,1.2168
5514.00,1.2259
5513.00,1.2347
5512.00,1.2431
5511.00,1.2510
5510.00,1.2585
5509.00,1.2659
5508.00,1.2733
5507.00,1.2803
5506.00,1.2870
5505.00,1.2932
5504.00,1.2990
5503.00,1.3045
5502.00,1.3097
5501.00,1.3147
5500.00,1.3193
5499.00,1.3234
5498.00,1.3269
5497.00,1.3298
5496.00,1.3322
5495.00,1.3341
5494.00,1.3357
5493.00,1.3373
5492.00,1.3389
5491.00,1.3401
5490.00,1.3406
5489.00,1.3406
5488.00,1.3399
5487.00,1.3388
5486.00,1.3373
5485.00,1.3354
5484.00,1.3330
5483.00,1.3299
5482.00,1.3258
5481.00,1.3210
5480.00,1.3156
5479.00,1.3101
5478.00,1.3044
5477.00,1.2984
5476.00,1.2919
5475.00,1.2849
5474.00,1.2775
5473.00,1.2697
5472.00,1.2614
5471.00,1.2525
5470.00,1.2430
5469.00,1.2330
5468.00,1.2225
5467.00,1.2113
5466.00,1.1996
5465.00,1.1874
5464.00,1.1748
5463.00,1.1618
5462.00,1.1485
5461.00,1.1350
5460.00,1.1213
5459.00,1.1073
5458.00,1.0930
5457.00,1.0781
5456.00,1.0628
5455.00,1.0472
5454.00,1.0315
5453.00,1.0158
5452.00,1.0002
5451.00,0.9846
5450.00,0.9691
5449.00,0.9538
5448.00,0.9386
5447.00,0.9235
5446.00,0.9087
5445.00,0.8944
5444.00,0.8807
5443.00,0.8675
5442.00,0.8546
5441.00,0.8424
5440.00,0.8309
5439.00,0.8203
5438.00,0.8106
5437.00,0.8018
5436.00,0.7937
5435.00,0.7863
5434.00,0.7801
5433.00,0.7750
5432.00,0.7711
5431.00,0.7681
5430.00,0.7660
5429.00,0.7650
5428.00,0.7651
5427.00,0.7663
5426.00,0.7683
5425.00,0.7713
5424.00,0.7753
5423.00,0.7802
5422.00,0.7862
5421.00,0.7930
5420.00,0.8006
5419.00,0.8090
5418.00,0.8179
5417.00,0.8274
5416.00,0.8375
5415.00,0.8481
5414.00,0.8594
5413.00,0.8713
5412.00,0.8834
5411.00,0.8959
5410.00,0.9086
5409.00,0.9217
5408.00,0.9351
5407.00,0.9488
5406.00,0.9626
5405.00,0.9764
5404.00,0.9902
5403.00,1.0039
5402.00,1.0176
5401.00,1.0312
5400.00,1.0449
5399.00,1.0586
5398.00,1.0723
5397.00,1.0859
5396.00,1.0993
5395.00,1.1125
5394.00,1.1256
5393.00,1.1386
5392.00,1.1515
5391.00,1.1641
5390.00,1.1764
5389.00,1.1884
5388.00,1.2001
5387.00,1.2113
5386.00,1.2224
5385.00,1.2333
5384.00,1.2440
5383.00,1.2542
5382.00,1.2639
5381.00,1.2732
5380.00,1.2821
5379.00,1.2907
5378.00,1.2990
5377.00,1.3071
5376.00,1.3148
5375.00,1.3222
5374.00,1.3290
5373.00,1.3354
5372.00,1.3415
5371.00,1.3471
5370.00,1.3522
5369.00,1.3567
5368.00,1.3609
5367.00,1.3648
5366.00,1.3682
5365.00,1.3711
5364.00,1.3733
5363.00,1.3750
5362.00,1.3762
5361.00,1.3769
5360.00,1.3772
5359.00,1.3772
5358.00,1.3766
5357.00,1.3754
5356.00,1.3736
5355.00,1.3712
5354.00,1.3684
5353.00,1.3656
5352.00,1.3625
5351.00,1.3590
5350.00,1.3547
5349.00,1.3498
5348.00,1.3444
5347.00,1.3386
5346.00,1.3321
5345.00,1.3249
5344.00,1.3172
5343.00,1.3095
5342.00,1.3017
5341.00,1.2936
5340.00,1.2850
5339.00,1.2755
5338.00,1.2653
5337.00,1.2545
5336.00,1.2434
5335.00,1.2319
5334.00,1.2200
5333.00,1.2075
5332.00,1.1946
5331.00,1.1812
5330.00,1.1674
5329.00,1.1531
5328.00,1.1384
5327.00,1.1233
5326.00,1.1078
5325.00,1.0921
5324.00,1.0762
5323.00,1.0601
5322.00,1.0439
5321.00,1.0277
5320.00,1.0114
5319.00,0.9952
5318.00,0.9790
5317.00,0.9630
5316.00,0.9470
5315.00,0.9312
5314.00,0.9157
5313.00,0.9006
5312.00,0.8861
5311.00,0.8723
5310.00,0.8591
5309.00,0.8466
5308.00,0.8347
5307.00,0.8234
5306.00,0.8129
5305.00,0.8033
5304.00,0.7947
5303.00,0.7870
5302.00,0.7805
5301.00,0.7750
5300.00,0.7706
5299.00,0.7673
5298.00,0.7651
5297.00,0.7640
5296.00,0.7640
5295.00,0.7651
5294.00,0.7674
5293.00,0.7706
5292.00,0.7748
5291.00,0.7799
5290.00,0.7860
5289.00,0.7932
5288.00,0.8013
5287.00,0.8100
5286.00,0.8194
5285.00,0.8293
5284.00,0.8398
5283.00,0.8508
5282.00,0.8624
5281.00,0.8744
5280.00,0.8869
5279.00,0.8999
5278.00,0.9131
5277.00,0.9265
5276.00,0.9399
5275.00,0.9534
5274.00,0.9671
5273.00,0.9811
5272.00,0.9952
5271.00,1.0094
5270.00,1.0234
5269.00,1.0373
5268.00,1.0511
5267.00,1.0649
5266.00,1.0786
5265.00,1.0925
5264.00,1.1063
5263.00,1.1202
5262.00,1.1339
5261.00,1.1474
5260.00,1.1605
5259.00,1.1734
5258.00,1.1859
5257.00,1.1982
5256.00,1.2101
5255.00,1.2218
5254.00,1.2335
5253.00,1.2449
5252.00,1.2559
5251.00,1.2663
5250.00,1.2762
5249.00,1.2859
5248.00,1.2955
5247.00,1.3050
5246.00,1.3142
5245.00,1.3229
5244.00,1.3310
5243.00,1.3386
5242.00,1.3458
5241.00,1.3525
5240.00,1.3589
5239.00,1.3648
5238.00,1.3703
5237.00,1.3755
5236.00,1.3802
5235.00,1.3844
5234.00,1.3880
5233.00,1.3908
5232.00,1.3929
5231.00,1.3945
5230.00,1.3960
5229.00,1.3973
5228.00,1.3982
5227.00,1.3986
5226.00,1.3986
5225.00,1.3980
5224.00,1.3970
5223.00,1.3954
5222.00,1.3934
5221.00,1.3911
5220.00,1.3883
5219.00,1.3848
5218.00,1.3804
5217.00,1.3754
5216.00,1.3698
5215.00,1.3639
5214.00,1.3575
5213.00,1.3507
5212.00,1.3434
5211.00,1.3358
5210.00,1.3278
5209.00,1.3193
5208.00,1.3104
5207.00,1.3010
5206.00,1.2912
5205.00,1.2810
5204.00,1.2702
5203.00,1.2587
5202.00,1.2467
5201.00,1.2343
5200.00,1.2214
5199.00,1.2081
5198.00,1.1943
5197.00,1.1800
5196.00,1.1651
5195.00,1.1498
5194.00,1.1341
5193.00,1.1181
5192.00,1.1021
5191.00,1.0858
5190.00,1.0693
5189.00,1.0526
5188.00,1.0357
5187.00,1.0187
5186.00,1.0017
5185.00,0.9847
5184.00,0.9679
5183.00,0.9515
5182.00,0.9354
5181.00,0.9198
5180.00,0.9046
5179.00,0.8898
5178.00,0.8756
5177.00,0.8620
5176.00,0.8491
5175.00,0.8370
5174.00,0.8258
5173.00,0.8157
5172.00,0.8065
5171.00,0.7983
5170.00,0.7910
5169.00,0.7848
5168.00,0.7797
5167.00,0.7758
5166.00,0.7732
5165.00,0.7717
5164.00,0.7715
5163.00,0.7723
5162.00,0.7743
5161.00,0.7774
5160.00,0.7816
5159.00,0.7869
5158.00,0.7933
5157.00,0.8007
5156.00,0.8090
5155.00,0.8181
5154.00,0.8280
5153.00,0.8387
5152.00,0.8499
5151.00,0.8617
5150.00,0.8740
5149.00,0.8867
5148.00,0.8998
5147.00,0.9132
5146.00,0.9269
5145.00,0.9410
5144.00,0.9554
5143.00,0.9700
5142.00,0.9848
5141.00,0.9998
5140.00,1.0148
5139.00,1.0298
5138.00,1.0449
5137.00,1.0599
5136.00,1.0749
5135.00,1.0898
5134.00,1.1046
5133.00,1.1191
5132.00,1.1334
5131.00,1.1477
5130.00,1.1618
5129.00,1.1758
5128.00,1.1895
5127.00,1.2027
5126.00,1.2156
5125.00,1.2282
5124.00,1.2408
5123.00,1.2533
5122.00,1.2655
5121.00,1.2773
5120.00,1.2885
5119.00,1.2993
5118.00,1.3097
5117.00,1.3196
5116.00,1.3292
5115.00,1.3384
5114.00,1.3473
5113.00,1.3557
5112.00,1.3637
5111.00,1.3712
5110.00,1.3783
5109.00,1.3848
5108.00,1.3909
5107.00,1.3969
5106.00,1.4028
5105.00,1.4086
5104.00,1.4138
5103.00,1.4183
5102.00,1.4220
5101.00,1.4252
5100.00,1.4281
5099.00,1.4306
5098.00,1.4329
5097.00,1.4348
5096.00,1.4361
5095.00,1.4368
5094.00,1.4371
5093.00,1.4371
5092.00,1.4367
5091.00,1.4355
5090.00,1.4332
5089.00,1.4297
5088.00,1.4252
5087.00,1.4202
5086.00,1.4151
5085.00,1.4097
5084.00,1.4037
5083.00,1.3965
5082.00,1.3880
5081.00,1.3785
5080.00,1.3688
5079.00,1.3597
5078.00,1.3518
5077.00,1.3446
5076.00,1.3374
5075.00,1.3295
5074.00,1.3204
5073.00,1.3104
5072.00,1.2995
5071.00,1.2878
5070.00,1.2756
5069.00,1.2628
5068.00,1.2493
5067.00,1.2353
5066.00,1.2205
5065.00,1.2053
5064.00,1.1894
5063.00,1.1730
5062.00,1.1562
5061.00,1.1390
5060.00,1.1215
5059.00,1.1037
5058.00,1.0858
5057.00,1.0678
5056.00,1.0498
5055.00,1.0317
5054.00,1.0135
5053.00,0.9953
5052.00,0.9772
5051.00,0.9592
5050.00,0.9416
5049.00,0.9243
5048.00,0.9076
5047.00,0.8914
5046.00,0.8758
5045.00,0.8610
5044.00,0.8470
5043.00,0.8339
5042.00,0.8217
5041.00,0.8106
5040.00,0.8005
5039.00,0.7914
5038.00,0.7835
5037.00,0.7768
5036.00,0.7713
5035.00,0.7670
5034.00,0.7641
5033.00,0.7624
5032.00,0.7619
5031.00,0.7626
5030.00,0.7645
5029.00,0.7677
5028.00,0.7721
5027.00,0.7777
5026.00,0.7844
5025.00,0.7922
5024.00,0.8009
5023.00,0.8106
5022.00,0.8210
5021.00,0.8321
5020.00,0.8438
5019.00,0.8561
5018.00,0.8690
5017.00,0.8825
5016.00,0.8964
5015.00,0.9107
5014.00,0.9254
5013.00,0.9404
5012.00,0.9556
5011.00,0.9710
5010.00,0.9866
5009.00,1.0023
5008.00,1.0182
5007.00,1.0340
5006.00,1.0497
5005.00,1.0653
5004.00,1.0808
5003.00,1.0962
5002.00,1.1117
5001.00,1.1272
5000.00,1.1427
4999.00,1.1578
4998.00,1.1725
4997.00,1.1868
4996.00,1.2007
4995.00,1.2143
4994.00,1.2277
4993.00,1.2408
4992.00,1.2536
4991.00,1.2661
4990.00,1.2785
4989.00,1.2906
4988.00,1.3025
4987.00,1.3141
4986.00,1.3253
4985.00,1.3364
4984.00,1.3475
4983.00,1.3587
4982.00,1.3702
4981.00,1.3818
4980.00,1.3932
4979.00,1.4044
4978.00,1.4152
4977.00,1.4255
4976.00,1.4352
4975.00,1.4443
4974.00,1.4524
4973.00,1.4595
4972.00,1.4658
4971.00,1.4711
4970.00,1.4760
4969.00,1.4789
4968.00,1.4826
4967.00,1.4816
4966.00,1.4860
4965.00,1.4732
4964.00,1.4517
4963.00,1.4563
4962.00,1.4531
4961.00,1.4529
4960.00,1.4503
4959.00,1.4487
4958.00,1.4459
4957.00,1.4443
4956.00,1.4399
4955.00,1.4404
4954.00,1.4468
4953.00,1.4449
4952.00,1.4428
4951.00,1.4382
4950.00,1.4329
4949.00,1.4262
4948.00,1.4185
4947.00,1.4102
4946.00,1.4015
4945.00,1.3923
4944.00,1.3825
4943.00,1.3719
4942.00,1.3605
4941.00,1.3483
4940.00,1.3355
4939.00,1.3221
4938.00,1.3082
4937.00,1.2937
4936.00,1.2786
4935.00,1.2628
4934.00,1.2466
4933.00,1.2299
4932.00,1.2128
4931.00,1.1954
4930.00,1.1776
4929.00,1.1594
4928.00,1.1409
4927.00,1.1221
4926.00,1.1031
4925.00,1.0839
4924.00,1.0645
4923.00,1.0453
4922.00,1.0261
4921.00,1.0071
4920.00,0.9883
4919.00,0.9696
4918.00,0.9512
4917.00,0.9332
4916.00,0.9158
4915.00,0.8989
4914.00,0.8827
4913.00,0.8672
4912.00,0.8523
4911.00,0.8385
4910.00,0.8257
4909.00,0.8142
4908.00,0.8039
4907.00,0.7948
4906.00,0.7868
4905.00,0.7801
4904.00,0.7747
4903.00,0.7706
4902.00,0.7679
4901.00,0.7665
4900.00,0.7665
4899.00,0.7678
4898.00,0.7704
4897.00,0.7745
4896.00,0.7798
4895.00,0.7863
4894.00,0.7939
4893.00,0.8026
4892.00,0.8122
4891.00,0.8228
4890.00,0.8343
4889.00,0.8466
4888.00,0.8596
4887.00,0.8731
4886.00,0.8871
4885.00,0.9016
4884.00,0.9165
4883.00,0.9318
4882.00,0.9475
4881.00,0.9635
4880.00,0.9797
4879.00,0.9959
4878.00,1.0123
4877.00,1.0288
4876.00,1.0454
4875.00,1.0620
4874.00,1.0785
4873.00,1.0949
4872.00,1.1113
4871.00,1.1275
4870.00,1.1437
4869.00,1.1596
4868.00,1.1752
4867.00,1.1905
4866.00,1.2056
4865.00,1.2205
4864.00,1.2352
4863.00,1.2499
4862.00,1.2644
4861.00,1.2786
4860.00,1.2924
4859.00,1.3059
4858.00,1.3191
4857.00,1.3320
4856.00,1.3445
4855.00,1.3564
4854.00,1.3678
4853.00,1.3787
4852.00,1.3892
4851.00,1.3993
4850.00,1.4089
4849.00,1.4181
4848.00,1.4267
4847.00,1.4347
4846.00,1.4421
4845.00,1.4489
4844.00,1.4552
4843.00,1.4606
4842.00,1.4653
4841.00,1.4695
4840.00,1.4731
4839.00,1.4764
4838.00,1.4790
4837.00,1.4807
4836.00,1.4814
4835.00,1.4816
4834.00,1.4820
4833.00,1.4832
4832.00,1.4847
4831.00,1.4861
4830.00,1.4866
4829.00,1.4862
4828.00,1.4852
4827.00,1.4837
4826.00,1.4816
4825.00,1.4787
4824.00,1.4751
4823.00,1.4708
4822.00,1.4658
4821.00,1.4604
4820.00,1.4546
4819.00,1.4482
4818.00,1.4412
4817.00,1.4337
4816.00,1.4256
4815.00,1.4170
4814.00,1.4079
4813.00,1.3982
4812.00,1.3879
4811.00,1.3768
4810.00,1.3650
4809.00,1.3526
4808.00,1.3397
4807.00,1.3265
4806.00,1.3130
4805.00,1.2992
4804.00,1.2847
4803.00,1.2698
4802.00,1.2542
4801.00,1.2378
4800.00,1.2208
4799.00,1.2032
4798.00,1.1852
4797.00,1.1669
4796.00,1.1483
4795.00,1.1293
4794.00,1.1100
4793.00,1.0904
4792.00,1.0707
4791.00,1.0509
4790.00,1.0311
4789.00,1.0114
4788.00,0.9916
4787.00,0.9721
4786.00,0.9529
4785.00,0.9342
4784.00,0.9161
4783.00,0.8985
4782.00,0.8816
4781.00,0.8655
4780.00,0.8501
4779.00,0.8357
4778.00,0.8224
4777.00,0.8102
4776.00,0.7993
4775.00,0.7897
4774.00,0.7815
4773.00,0.7748
4772.00,0.7695
4771.00,0.7656
4770.00,0.7632
4769.00,0.7623
4768.00,0.7629
4767.00,0.7650
4766.00,0.7685
4765.00,0.7734
4764.00,0.7796
4763.00,0.7870
4762.00,0.7957
4761.00,0.8054
4760.00,0.8163
4759.00,0.8280
4758.00,0.8406
4757.00,0.8539
4756.00,0.8680
4755.00,0.8827
4754.00,0.8980
4753.00,0.9137
4752.00,0.9298
4751.00,0.9461
4750.00,0.9628
4749.00,0.9797
4748.00,0.9970
4747.00,1.0145
4746.00,1.0321
4745.00,1.0495
4744.00,1.0669
4743.00,1.0841
4742.00,1.1012
4741.00,1.1183
4740.00,1.1353
4739.00,1.1523
4738.00,1.1691
4737.00,1.1856
4736.00,1.2020
4735.00,1.2181
4734.00,1.2341
4733.00,1.2499
4732.00,1.2653
4731.00,1.2804
4730.00,1.2951
4729.00,1.3093
4728.00,1.3231
4727.00,1.3365
4726.00,1.3495
4725.00,1.3621
4724.00,1.3743
4723.00,1.3860
4722.00,1.3972
4721.00,1.4080
4720.00,1.4183
4719.00,1.4284
4718.00,1.4381
4717.00,1.4474
4716.00,1.4561
4715.00,1.4640
4714.00,1.4711
4713.00,1.4775
4712.00,1.4834
4711.00,1.4890
4710.00,1.4944
4709.00,1.4996
4708.00,1.5045
4707.00,1.5087
4706.00,1.5121
4705.00,1.5146
4704.00,1.5164
4703.00,1.5178
4702.00,1.5187
4701.00,1.5193
4700.00,1.5196
4699.00,1.5195
4698.00,1.5190
4697.00,1.5180
4696.00,1.5164
4695.00,1.5141
4694.00,1.5111
4693.00,1.5075
4692.00,1.5036
4691.00,1.4996
4690.00,1.4951
4689.00,1.4902
4688.00,1.4846
4687.00,1.4784
4686.00,1.4715
4685.00,1.4642
4684.00,1.4565
4683.00,1.4485
4682.00,1.4400
4681.00,1.4310
4680.00,1.4214
4679.00,1.4111
4678.00,1.3999
4677.00,1.3881
4676.00,1.3757
4675.00,1.3629
4674.00,1.3496
4673.00,1.3358
4672.00,1.3215
4671.00,1.3066
4670.00,1.2911
4669.00,1.2750
4668.00,1.2582
4667.00,1.2408
4666.00,1.2228
4665.00,1.2043
4664.00,1.1854
4663.00,1.1662
4662.00,1.1467
4661.00,1.1269
4660.00,1.1068
4659.00,1.0864
4658.00,1.0659
4657.00,1.0454
4656.00,1.0249
4655.00,1.0045
4654.00,0.9842
4653.00,0.9642
4652.00,0.9447
4651.00,0.9259
4650.00,0.9080
4649.00,0.8909
4648.00,0.8747
4647.00,0.8595
4646.00,0.8454
4645.00,0.8324
4644.00,0.8206
4643.00,0.8102
4642.00,0.8012
4641.00,0.7938
4640.00,0.7879
4639.00,0.7836
4638.00,0.7809
4637.00,0.7798
4636.00,0.7804
4635.00,0.7825
4634.00,0.7861
4633.00,0.7913
4632.00,0.7979
4631.00,0.8058
4630.00,0.8151
4629.00,0.8256
4628.00,0.8371
4627.00,0.8496
4626.00,0.8630
4625.00,0.8772
4624.00,0.8920
4623.00,0.9075
4622.00,0.9236
4621.00,0.9401
4620.00,0.9569
4619.00,0.9740
4618.00,0.9914
4617.00,1.0091
4616.00,1.0270
4615.00,1.0451
4614.00,1.0634
4613.00,1.0816
4612.00,1.0997
4611.00,1.1177
4610.00,1.1356
4609.00,1.1534
4608.00,1.1711
4607.00,1.1885
4606.00,1.2057
4605.00,1.2225
4604.00,1.2390
4603.00,1.2552
4602.00,1.2712
4601.00,1.2870
4600.00,1.3025
4599.00,1.3177
4598.00,1.3325
4597.00,1.3469
4596.00,1.3607
4595.00,1.3740
4594.00,1.3869
4593.00,1.3994
4592.00,1.4115
4591.00,1.4235
4590.00,1.4351
4589.00,1.4462
4588.00,1.4568
4587.00,1.4667
4586.00,1.4760
4585.00,1.4849
4584.00,1.4933
4583.00,1.5012
4582.00,1.5083
4581.00,1.5147
4580.00,1.5203
4579.00,1.5255
4578.00,1.5303
4577.00,1.5349
4576.00,1.5392
4575.00,1.5430
4574.00,1.5464
4573.00,1.5493
4572.00,1.5515
4571.00,1.5530
4570.00,1.5538
4569.00,1.5540
4568.00,1.5538
4567.00,1.5534
4566.00,1.5526
4565.00,1.5514
4564.00,1.5494
4563.00,1.5469
4562.00,1.5438
4561.00,1.5402
4560.00,1.5360
4559.00,1.5313
4558.00,1.5260
4557.00,1.5203
4556.00,1.5140
4555.00,1.5073
4554.00,1.5000
4553.00,1.4922
4552.00,1.4838
4551.00,1.4750
4550.00,1.4656
4549.00,1.4558
4548.00,1.4453
4547.00,1.4341
4546.00,1.4221
4545.00,1.4094
4544.00,1.3961
4543.00,1.3823
4542.00,1.3680
4541.00,1.3529
4540.00,1.3370
4539.00,1.3204
4538.00,1.3031
4537.00,1.2853
4536.00,1.2671
4535.00,1.2484
4534.00,1.2294
4533.00,1.2098
4532.00,1.1897
4531.00,1.1691
4530.00,1.1480
4529.00,1.1266
4528.00,1.1050
4527.00,1.0830
4526.00,1.0611
4525.00,1.0391
4524.00,1.0173
4523.00,0.9957
4522.00,0.9745
4521.00,0.9537
4520.00,0.9336
4519.00,0.9143
4518.00,0.8958
4517.00,0.8783
4516.00,0.8619
4515.00,0.8465
4514.00,0.8325
4513.00,0.8199
4512.00,0.8086
4511.00,0.7989
4510.00,0.7908
4509.00,0.7843
4508.00,0.7795
4507.00,0.7764
4506.00,0.7751
4505.00,0.7755
4504.00,0.7775
4503.00,0.7812
4502.00,0.7865
4501.00,0.7934
4500.00,0.8017
4499.00,0.8114
4498.00,0.8224
4497.00,0.8345
4496.00,0.8477
4495.00,0.8619
4494.00,0.8770
4493.00,0.8928
4492.00,0.9094
4491.00,0.9264
4490.00,0.9440
4489.00,0.9620
4488.00,0.9803
4487.00,0.9990
4486.00,1.0179
4485.00,1.0371
4484.00,1.0563
4483.00,1.0756
4482.00,1.0949
4481.00,1.1141
4480.00,1.1331
4479.00,1.1521
4478.00,1.1709
4477.00,1.1896
4476.00,1.2082
4475.00,1.2266
4474.00,1.2447
4473.00,1.2624
4472.00,1.2796
4471.00,1.2963
4470.00,1.3126
4469.00,1.3287
4468.00,1.3447
4467.00,1.3606
4466.00,1.3763
4465.00,1.3913
4464.00,1.4056
4463.00,1.4193
4462.00,1.4324
4461.00,1.4452
4460.00,1.4575
4459.00,1.4694
4458.00,1.4809
4457.00,1.4920
4456.00,1.5025
4455.00,1.5125
4454.00,1.5220
4453.00,1.5310
4452.00,1.5395
4451.00,1.5474
4450.00,1.5544
4449.00,1.5606
4448.00,1.5659
4447.00,1.5707
4446.00,1.5750
4445.00,1.5791
4444.00,1.5829
4443.00,1.5865
4442.00,1.5897
4441.00,1.5923
4440.00,1.5942
4439.00,1.5953
4438.00,1.5956
4437.00,1.5953
4436.00,1.5945
4435.00,1.5935
4434.00,1.5924
4433.00,1.5909
4432.00,1.5890
4431.00,1.5863
4430.00,1.5828
4429.00,1.5785
4428.00,1.5735
4427.00,1.5681
4426.00,1.5622
4425.00,1.5559
4424.00,1.5493
4423.00,1.5424
4422.00,1.5353
4421.00,1.5278
4420.00,1.5196
4419.00,1.5105
4418.00,1.5005
4417.00,1.4896
4416.00,1.4781
4415.00,1.4661
4414.00,1.4536
4413.00,1.4406
4412.00,1.4270
4411.00,1.4128
4410.00,1.3978
4409.00,1.3821
4408.00,1.3658
4407.00,1.3489
4406.00,1.3315
4405.00,1.3136
4404.00,1.2953
4403.00,1.2766
4402.00,1.2575
4401.00,1.2379
4400.00,1.2179
4399.00,1.1976
4398.00,1.1772
4397.00,1.1568
4396.00,1.1363
4395.00,1.1159
4394.00,1.0956
4393.00,1.0755
4392.00,1.0558
4391.00,1.0365
4390.00,1.0179
4389.00,1.0001
4388.00,0.9831
4387.00,0.9670
4386.00,0.9519
4385.00,0.9380
4384.00,0.9252
4383.00,0.9136
4382.00,0.9034
4381.00,0.8945
4380.00,0.8870
4379.00,0.8810
4378.00,0.8765
4377.00,0.8735
4376.00,0.8720
4375.00,0.8719
4374.00,0.8731
4373.00,0.8757
4372.00,0.8796
4371.00,0.8846
4370.00,0.8909
4369.00,0.8983
4368.00,0.9068
4367.00,0.9161
4366.00,0.9264
4365.00,0.9375
4364.00,0.9494
4363.00,0.9621
4362.00,0.9754
4361.00,0.9894
4360.00,1.0038
4359.00,1.0187
4358.00,1.0341
4357.00,1.0499
4356.00,1.0662
4355.00,1.0828
4354.00,1.0997
4353.00,1.1169
4352.00,1.1341
4351.00,1.1515
4350.00,1.1690
4349.00,1.1866
4348.00,1.2042
4347.00,1.2218
4346.00,1.2392
4345.00,1.2565
4344.00,1.2735
4343.00,1.2903
4342.00,1.3068
4341.00,1.3231
4340.00,1.3393
4339.00,1.3554
4338.00,1.3712
4337.00,1.3868
4336.00,1.4019
4335.00,1.4165
4334.00,1.4308
4333.00,1.4448
4332.00,1.4586
4331.00,1.4721
4330.00,1.4852
4329.00,1.4978
4328.00,1.5098
4327.00,1.5214
4326.00,1.5328
4325.00,1.5440
4324.00,1.5546
4323.00,1.5644
4322.00,1.5734
4321.00,1.5817
4320.00,1.5896
4319.00,1.5970
4318.00,1.6040
4317.00,1.6103
4316.00,1.6159
4315.00,1.6210
4314.00,1.6257
4313.00,1.6300
4312.00,1.6338
4311.00,1.6370
4310.00,1.6396
4309.00,1.6415
4308.00,1.6429
4307.00,1.6439
4306.00,1.6445
4305.00,1.6447
4304.00,1.6444
4303.00,1.6434
4302.00,1.6417
4301.00,1.6394
4300.00,1.6368
4299.00,1.6339
4298.00,1.6307
4297.00,1.6271
4296.00,1.6229
4295.00,1.6178
4294.00,1.6121
4293.00,1.6058
4292.00,1.5991
4291.00,1.5922
4290.00,1.5849
4289.00,1.5771
4288.00,1.5687
4287.00,1.5596
4286.00,1.5499
4285.00,1.5397
4284.00,1.5290
4283.00,1.5179
4282.00,1.5063
4281.00,1.4940
4280.00,1.4810
4279.00,1.4673
4278.00,1.4530
4277.00,1.4382
4276.00,1.4227
4275.00,1.4067
4274.00,1.3900
4273.00,1.3726
4272.00,1.3548
4271.00,1.3363
4270.00,1.3173
4269.00,1.2977
4268.00,1.2774
4267.00,1.2566
4266.00,1.2354
4265.00,1.2139
4264.00,1.1921
4263.00,1.1702
4262.00,1.1480
4261.00,1.1256
4260.00,1.1032
4259.00,1.0809
4258.00,1.0589
4257.00,1.0372
4256.00,1.0160
4255.00,0.9955
4254.00,0.9756
4253.00,0.9566
4252.00,0.9386
4251.00,0.9218
4250.00,0.9063
4249.00,0.8923
4248.00,0.8799
4247.00,0.8691
4246.00,0.8601
4245.00,0.8529
4244.00,0.8477
4243.00,0.8444
4242.00,0.8431
4241.00,0.8437
4240.00,0.8463
4239.00,0.8507
4238.00,0.8569
4237.00,0.8649
4236.00,0.8745
4235.00,0.8856
4234.00,0.8981
4233.00,0.9118
4232.00,0.9266
4231.00,0.9425
4230.00,0.9591
4229.00,0.9766
4228.00,0.9947
4227.00,1.0134
4226.00,1.0326
4225.00,1.0522
4224.00,1.0720
4223.00,1.0920
4222.00,1.1121
4221.00,1.1322
4220.00,1.1523
4219.00,1.1723
4218.00,1.1921
4217.00,1.2117
4216.00,1.2311
4215.00,1.2505
4214.00,1.2697
4213.00,1.2888
4212.00,1.3075
4211.00,1.3258
4210.00,1.3438
4209.00,1.3614
4208.00,1.3789
4207.00,1.3960
4206.00,1.4130
4205.00,1.4296
4204.00,1.4458
4203.00,1.4615
4202.00,1.4767
4201.00,1.4913
4200.00,1.5057
4199.00,1.5197
4198.00,1.5332
4197.00,1.5462
4196.00,1.5585
4195.00,1.5702
4194.00,1.5814
4193.00,1.5922
4192.00,1.6025
4191.00,1.6122
4190.00,1.6214
4189.00,1.6299
4188.00,1.6378
4187.00,1.6452
4186.00,1.6522
4185.00,1.6588
4184.00,1.6650
4183.00,1.6705
4182.00,1.6753
4181.00,1.6793
4180.00,1.6825
4179.00,1.6852
4178.00,1.6874
4177.00,1.6892
4176.00,1.6904
4175.00,1.6912
4174.00,1.6916
4173.00,1.6918
4172.00,1.6917
4171.00,1.6912
4170.00,1.6900
4169.00,1.6880
4168.00,1.6854
4167.00,1.6824
4166.00,1.6792
4165.00,1.6754
4164.00,1.6708
4163.00,1.6655
4162.00,1.6595
4161.00,1.6533
4160.00,1.6469
4159.00,1.6400
4158.00,1.6326
4157.00,1.6247
4156.00,1.6161
4155.00,1.6068
4154.00,1.5969
4153.00,1.5864
4152.00,1.5754
4151.00,1.5637
4150.00,1.5515
4149.00,1.5385
4148.00,1.5248
4147.00,1.5105
4146.00,1.4956
4145.00,1.4800
4144.00,1.4635
4143.00,1.4462
4142.00,1.4281
4141.00,1.4094
4140.00,1.3902
4139.00,1.3703
4138.00,1.3499
4137.00,1.3288
4136.00,1.3069
4135.00,1.2845
4134.00,1.2616
4133.00,1.2384
4132.00,1.2150
4131.00,1.1913
4130.00,1.1674
4129.00,1.1433
4128.00,1.1194
4127.00,1.0957
4126.00,1.0724
4125.00,1.0496
4124.00,1.0275
4123.00,1.0062
4122.00,0.9858
4121.00,0.9664
4120.00,0.9482
4119.00,0.9313
4118.00,0.9160
4117.00,0.9023
4116.00,0.8904
4115.00,0.8803
4114.00,0.8721
4113.00,0.8658
4112.00,0.8615
4111.00,0.8592
4110.00,0.8591
4109.00,0.8609
4108.00,0.8646
4107.00,0.8703
4106.00,0.8778
4105.00,0.8870
4104.00,0.8978
4103.00,0.9100
4102.00,0.9236
4101.00,0.9383
4100.00,0.9541
4099.00,0.9709
4098.00,0.9886
4097.00,1.0071
4096.00,1.0262
4095.00,1.0459
4094.00,1.0661
4093.00,1.0867
4092.00,1.1075
4091.00,1.1285
4090.00,1.1496
4089.00,1.1707
4088.00,1.1918
4087.00,1.2130
4086.00,1.2340
4085.00,1.2550
4084.00,1.2757
4083.00,1.2961
4082.00,1.3163
4081.00,1.3364
4080.00,1.3561
4079.00,1.3756
4078.00,1.3945
4077.00,1.4129
4076.00,1.4309
4075.00,1.4484
4074.00,1.4656
4073.00,1.4823
4072.00,1.4988
4071.00,1.5149
4070.00,1.5307
4069.00,1.5461
4068.00,1.5608
4067.00,1.5750
4066.00,1.5885
4065.00,1.6013
4064.00,1.6133
4063.00,1.6246
4062.00,1.6353
4061.00,1.6456
4060.00,1.6556
4059.00,1.6653
4058.00,1.6745
4057.00,1.6830
4056.00,1.6908
4055.00,1.6977
4054.00,1.7039
4053.00,1.7097
4052.00,1.7150
4051.00,1.7199
4050.00,1.7242
4049.00,1.7279
4048.00,1.7310
4047.00,1.7335
4046.00,1.7351
4045.00,1.7362
4044.00,1.7367
4043.00,1.7370
4042.00,1.7371
4041.00,1.7368
4040.00,1.7361
4039.00,1.7346
4038.00,1.7325
4037.00,1.7299
4036.00,1.7268
4035.00,1.7233
4034.00,1.7191
4033.00,1.7144
4032.00,1.7090
4031.00,1.7029
4030.00,1.6963
4029.00,1.6890
4028.00,1.6812
4027.00,1.6729
4026.00,1.6643
4025.00,1.6551
4024.00,1.6454
4023.00,1.6351
4022.00,1.6241
4021.00,1.6123
4020.00,1.5998
4019.00,1.5866
4018.00,1.5729
4017.00,1.5586
4016.00,1.5438
4015.00,1.5283
4014.00,1.5121
4013.00,1.4954
4012.00,1.4780
4011.00,1.4599
4010.00,1.4410
4009.00,1.4213
4008.00,1.4010
4007.00,1.3801
4006.00,1.3585
4005.00,1.3363
4004.00,1.3134
4003.00,1.2899
4002.00,1.2658
4001.00,1.2411
4000.00,1.2160
3999.00,1.1905
3998.00,1.1650
3997.00,1.1394
3996.00,1.1139
3995.00,1.0886
3994.00,1.0638
3993.00,1.0396
3992.00,1.0163
3991.00,0.9940
3990.00,0.9729
3989.00,0.9532
3988.00,0.9351
3987.00,0.9188
3986.00,0.9045
3985.00,0.8922
3984.00,0.8820
3983.00,0.8740
3982.00,0.8682
3981.00,0.8646
3980.00,0.8635
3979.00,0.8647
3978.00,0.8682
3977.00,0.8737
3976.00,0.8812
3975.00,0.8905
3974.00,0.9015
3973.00,0.9142
3972.00,0.9284
3971.00,0.9439
3970.00,0.9606
3969.00,0.9784
3968.00,0.9973
3967.00,1.0171
3966.00,1.0378
3965.00,1.0591
3964.00,1.0808
3963.00,1.1027
3962.00,1.1249
3961.00,1.1473
3960.00,1.1699
3959.00,1.1926
3958.00,1.2151
3957.00,1.2375
3956.00,1.2597
3955.00,1.2818
3954.00,1.3037
3953.00,1.3253
3952.00,1.3465
3951.00,1.3673
3950.00,1.3877
3949.00,1.4076
3948.00,1.4272
3947.00,1.4465
3946.00,1.4655
3945.00,1.4838
3944.00,1.5014
3943.00,1.5186
3942.00,1.5357
3941.00,1.5527
3940.00,1.5694
3939.00,1.5854
3938.00,1.6008
3937.00,1.6154
3936.00,1.6293
3935.00,1.6423
3934.00,1.6547
3933.00,1.6665
3932.00,1.6779
3931.00,1.6890
3930.00,1.6997
3929.00,1.7099
3928.00,1.7197
3927.00,1.7289
3926.00,1.7372
3925.00,1.7446
3924.00,1.7511
3923.00,1.7570
3922.00,1.7623
3921.00,1.7669
3920.00,1.7711
3919.00,1.7749
3918.00,1.7785
3917.00,1.7818
3916.00,1.7849
3915.00,1.7878
3914.00,1.7902
3913.00,1.7918
3912.00,1.7926
3911.00,1.7926
3910.00,1.7919
3909.00,1.7902
3908.00,1.7875
3907.00,1.7837
3906.00,1.7791
3905.00,1.7742
3904.00,1.7692
3903.00,1.7643
3902.00,1.7596
3901.00,1.7548
3900.00,1.7499
3899.00,1.7447
3898.00,1.7390
3897.00,1.7325
3896.00,1.7249
3895.00,1.7163
3894.00,1.7067
3893.00,1.6962
3892.00,1.6848
3891.00,1.6728
3890.00,1.6601
3889.00,1.6469
3888.00,1.6334
3887.00,1.6193
3886.00,1.6044
3885.00,1.5885
3884.00,1.5719
3883.00,1.5545
3882.00,1.5361
3881.00,1.5168
3880.00,1.4970
3879.00,1.4767
3878.00,1.4559
3877.00,1.4343
3876.00,1.4118
3875.00,1.3881
3874.00,1.3631
3873.00,1.3373
3872.00,1.3106
3871.00,1.2824
3870.00,1.2527
3869.00,1.2224
3868.00,1.1931
3867.00,1.1649
3866.00,1.1372
3865.00,1.1093
3864.00,1.0816
3863.00,1.0548
3862.00,1.0293
3861.00,1.0049
3860.00,0.9817
3859.00,0.9596
3858.00,0.9384
3857.00,0.9182
3856.00,0.8997
3855.00,0.8840
3854.00,0.8711
3853.00,0.8597
3852.00,0.8502
3851.00,0.8436
3850.00,0.8407
3849.00,0.8415
3848.00,0.8453
3847.00,0.8513
3846.00,0.8592
3845.00,0.8688
3844.00,0.8804
3843.00,0.8938
3842.00,0.9088
3841.00,0.9249
3840.00,0.9420
3839.00,0.9605
3838.00,0.9812
3837.00,1.0041
3836.00,1.0281
3835.00,1.0524
3834.00,1.0769
3833.00,1.1021
3832.00,1.1286
3831.00,1.1557
3830.00,1.1825
3829.00,1.2084
3828.00,1.2332
3827.00,1.2571
3826.00,1.2800
3825.00,1.3014
3824.00,1.3212
3823.00,1.3409
3822.00,1.3628
3821.00,1.3878
3820.00,1.4148
3819.00,1.4407
3818.00,1.4641
3817.00,1.4860
3816.00,1.5083
3815.00,1.5317
3814.00,1.5548
3813.00,1.5759
3812.00,1.5942
3811.00,1.6102
3810.00,1.6244
3809.00,1.6377
3808.00,1.6512
3807.00,1.6657
3806.00,1.6809
3805.00,1.6957
3804.00,1.7089
3803.00,1.7210
3802.00,1.7329
3801.00,1.7451
3800.00,1.7568
3799.00,1.7669
3798.00,1.7759
3797.00,1.7846
3796.00,1.7935
3795.00,1.8023
3794.00,1.8101
3793.00,1.8166
3792.00,1.8221
3791.00,1.8270
3790.00,1.8314
3789.00,1.8351
3788.00,1.8378
3787.00,1.8395
3786.00,1.8406
3785.00,1.8411
3784.00,1.8408
3783.00,1.8395
3782.00,1.8376
3781.00,1.8355
3780.00,1.8335
3779.00,1.8318
3778.00,1.8302
3777.00,1.8280
3776.00,1.8244
3775.00,1.8192
3774.00,1.8128
3773.00,1.8057
3772.00,1.7981
3771.00,1.7907
3770.00,1.7836
3769.00,1.7768
3768.00,1.7697
3767.00,1.7620
3766.00,1.7538
3765.00,1.7449
3764.00,1.7352
3763.00,1.7250
3762.00,1.7142
3761.00,1.7028
3760.00,1.6907
3759.00,1.6779
3758.00,1.6643
3757.00,1.6497
3756.00,1.6343
3755.00,1.6176
3754.00,1.5994
3753.00,1.5794
3752.00,1.5577
3751.00,1.5345
3750.00,1.5103
3749.00,1.4852
3748.00,1.4600
3747.00,1.4349
3746.00,1.4095
3745.00,1.3827
3744.00,1.3537
3743.00,1.3235
3742.00,1.2929
3741.00,1.2636
3740.00,1.2325
3739.00,1.2032
3738.00,1.1673
3737.00,1.1525
3736.00,1.1249
3735.00,1.0897
3734.00,1.0595
3733.00,1.0316
3732.00,1.0064
3731.00,0.9845
3730.00,0.9630
3729.00,0.9647
3728.00,0.9833
3727.00,1.0116
3726.00,1.0548
3725.00,1.1121
3724.00,1.1841
3723.00,1.2687
3722.00,1.3583
3721.00,1.4766
3720.00,1.5559
3719.00,1.7500
3718.00,1.6890
3717.00,2.9878
3716.00,1.0343
3715.00,0.9157
3714.00,0.9802
3713.00,0.9730
3712.00,1.0107
3711.00,1.0276
3710.00,1.0603
3709.00,1.0875
3708.00,1.1175
3707.00,1.1461
3706.00,1.1734
3705.00,1.1997
3704.00,1.2260
3703.00,1.2533
3702.00,1.2823
3701.00,1.3128
3700.00,1.3436
3699.00,1.3734
3698.00,1.4017
3697.00,1.4285
3696.00,1.4540
3695.00,1.4781
3694.00,1.5008
3693.00,1.5226
3692.00,1.5442
3691.00,1.5660
3690.00,1.5884
3689.00,1.6123
3688.00,1.6376
3687.00,1.6632
3686.00,1.6873
3685.00,1.7086
3684.00,1.7287
3683.00,1.7426
3682.00,1.7631
3681.00,1.7654
3680.00,1.7972
3679.00,1.7636
3678.00,2.1104
3677.00,2.3423
3676.00,2.1977
3675.00,2.2181
3674.00,2.1643
3673.00,2.1515
3672.00,2.1186
3671.00,2.0975
3670.00,2.0751
3669.00,2.0583
3668.00,2.0434
3667.00,2.0308
3666.00,2.0188
3665.00,2.0083
3664.00,1.9987
3663.00,1.9901
3662.00,1.9822
3661.00,1.9747
3660.00,1.9683
3659.00,1.9627
3658.00,1.9585
3657.00,1.9551
3656.00,1.9522
3655.00,1.9483
3654.00,1.9436
3653.00,1.9383
3652.00,1.9337
3651.00,1.9296
3650.00,1.9256
3649.00,1.9219
3648.00,1.9193
3647.00,1.9180
3646.00,1.9171
3645.00,1.9153
3644.00,1.9123
3643.00,1.9081
3642.00,1.9032
3641.00,1.8979
3640.00,1.8919
3639.00,1.8853
3638.00,1.8776
3637.00,1.8689
3636.00,1.8593
3635.00,1.8485
3634.00,1.8372
3633.00,1.8246
3632.00,1.8142
3631.00,1.7986
3630.00,1.7847
3629.00,1.7736
3628.00,1.7622
3627.00,1.7518
3626.00,1.7413
3625.00,1.7305
3624.00,1.7190
3623.00,1.7067
3622.00,1.6939
3621.00,1.6807
3620.00,1.6671
3619.00,1.6531
3618.00,1.6389
3617.00,1.6250
3616.00,1.6112
3615.00,1.5975
3614.00,1.5839
3613.00,1.5704
3612.00,1.5575
3611.00,1.5451
3610.00,1.5332
3609.00,1.5214
3608.00,1.5099
3607.00,1.4992
3606.00,1.4893
3605.00,1.4802
3604.00,1.4718
3603.00,1.4640
3602.00,1.4568
3601.00,1.4503
3600.00,1.4444
3599.00,1.4394
3598.00,1.4353
3597.00,1.4324
3596.00,1.4304
3595.00,1.4294
3594.00,1.4293
3593.00,1.4300
3592.00,1.4317
3591.00,1.4346
3590.00,1.4389
3589.00,1.4442
3588.00,1.4503
3587.00,1.4575
3586.00,1.4660
3585.00,1.4756
3584.00,1.4860
3583.00,1.4970
3582.00,1.5083
3581.00,1.5201
3580.00,1.5323
3579.00,1.5450
3578.00,1.5581
3577.00,1.5716
3576.00,1.5855
3575.00,1.5997
3574.00,1.6141
3573.00,1.6286
3572.00,1.6432
3571.00,1.6579
3570.00,1.6729
3569.00,1.6882
3568.00,1.7037
3567.00,1.7183
3566.00,1.7345
3565.00,1.7482
3564.00,1.7674
3563.00,1.7750
3562.00,1.8283
3561.00,1.8629
3560.00,1.8646
3559.00,1.8791
3558.00,1.8865
3557.00,1.8983
3556.00,1.9079
3555.00,1.9186
3554.00,1.9288
3553.00,1.9393
3552.00,1.9498
3551.00,1.9601
3550.00,1.9696
3549.00,1.9784
3548.00,1.9864
3547.00,1.9942
3546.00,2.0018
3545.00,2.0095
3544.00,2.0169
3543.00,2.0239
3542.00,2.0307
3541.00,2.0378
3540.00,2.0451
3539.00,2.0519
3538.00,2.0577
3537.00,2.0625
3536.00,2.0671
3535.00,2.0718
3534.00,2.0768
3533.00,2.0820
3532.00,2.0871
3531.00,2.0922
3530.00,2.0968
3529.00,2.1008
3528.00,2.1043
3527.00,2.1074
3526.00,2.1101
3525.00,2.1123
3524.00,2.1139
3523.00,2.1147
3522.00,2.1147
3521.00,2.1142
3520.00,2.1135
3519.00,2.1128
3518.00,2.1120
3517.00,2.1108
3516.00,2.1091
3515.00,2.1071
3514.00,2.1053
3513.00,2.1042
3512.00,2.1030
3511.00,2.1009
3510.00,2.0977
3509.00,2.0938
3508.00,2.0899
3507.00,2.0865
3506.00,2.0832
3505.00,2.0795
3504.00,2.0751
3503.00,2.0701
3502.00,2.0647
3501.00,2.0590
3500.00,2.0528
3499.00,2.0459
3498.00,2.0383
3497.00,2.0301
3496.00,2.0216
3495.00,2.0128
3494.00,2.0039
3493.00,1.9946
3492.00,1.9846
3491.00,1.9740
3490.00,1.9631
3489.00,1.9523
3488.00,1.9415
3487.00,1.9302
3486.00,1.9182
3485.00,1.9059
3484.00,1.8936
3483.00,1.8812
3482.00,1.8685
3481.00,1.8554
3480.00,1.8417
3479.00,1.8279
3478.00,1.8139
3477.00,1.7999
3476.00,1.7861
3475.00,1.7727
3474.00,1.7595
3473.00,1.7465
3472.00,1.7331
3471.00,1.7193
3470.00,1.7054
3469.00,1.6919
3468.00,1.6791
3467.00,1.6670
3466.00,1.6554
3465.00,1.6441
3464.00,1.6333
3463.00,1.6231
3462.00,1.6138
3461.00,1.6053
3460.00,1.5976
3459.00,1.5909
3458.00,1.5851
3457.00,1.5802
3456.00,1.5762
3455.00,1.5730
3454.00,1.5708
3453.00,1.5697
3452.00,1.5699
3451.00,1.5713
3450.00,1.5740
3449.00,1.5776
3448.00,1.5819
3447.00,1.5869
3446.00,1.5928
3445.00,1.5999
3444.00,1.6079
3443.00,1.6168
3442.00,1.6265
3441.00,1.6369
3440.00,1.6478
3439.00,1.6592
3438.00,1.6711
3437.00,1.6837
3436.00,1.6967
3435.00,1.7102
3434.00,1.7239
3433.00,1.7378
3432.00,1.7521
3431.00,1.7669
3430.00,1.7822
3429.00,1.7977
3428.00,1.8130
3427.00,1.8280
3426.00,1.8429
3425.00,1.8581
3424.00,1.8735
3423.00,1.8888
3422.00,1.9036
3421.00,1.9178
3420.00,1.9316
3419.00,1.9448
3418.00,1.9577
3417.00,1.9704
3416.00,1.9832
3415.00,1.9959
3414.00,2.0084
3413.00,2.0202
3412.00,2.0309
3411.00,2.0404
3410.00,2.0492
3409.00,2.0576
3408.00,2.0657
3407.00,2.0733
3406.00,2.0800
3405.00,2.0860
3404.00,2.0913
3403.00,2.0958
3402.00,2.0996
3401.00,2.1031
3400.00,2.1069
3399.00,2.1111
3398.00,2.1156
3397.00,2.1199
3396.00,2.1237
3395.00,2.1264
3394.00,2.1280
3393.00,2.1288
3392.00,2.1293
3391.00,2.1301
3390.00,2.1315
3389.00,2.1333
3388.00,2.1349
3387.00,2.1358
3386.00,2.1361
3385.00,2.1361
3384.00,2.1359
3383.00,2.1353
3382.00,2.1342
3381.00,2.1326
3380.00,2.1306
3379.00,2.1284
3378.00,2.1260
3377.00,2.1232
3376.00,2.1198
3375.00,2.1154
3374.00,2.1102
3373.00,2.1046
3372.00,2.0988
3371.00,2.0929
3370.00,2.0863
3369.00,2.0792
3368.00,2.0715
3367.00,2.0636
3366.00,2.0552
3365.00,2.0465
3364.00,2.0375
3363.00,2.0284
3362.00,2.0190
3361.00,2.0088
3360.00,1.9975
3359.00,1.9851
3358.00,1.9718
3357.00,1.9582
3356.00,1.9446
3355.00,1.9309
3354.00,1.9169
3353.00,1.9021
3352.00,1.8864
3351.00,1.8699
3350.00,1.8529
3349.00,1.8356
3348.00,1.8181
3347.00,1.8001
3346.00,1.7817
3345.00,1.7630
3344.00,1.7440
3343.00,1.7248
3342.00,1.7054
3341.00,1.6859
3340.00,1.6665
3339.00,1.6471
3338.00,1.6278
3337.00,1.6086
3336.00,1.5897
3335.00,1.5713
3334.00,1.5535
3333.00,1.5365
3332.00,1.5204
3331.00,1.5054
3330.00,1.4917
3329.00,1.4793
3328.00,1.4682
3327.00,1.4585
3326.00,1.4504
3325.00,1.4439
3324.00,1.4392
3323.00,1.4362
3322.00,1.4348
3321.00,1.4349
3320.00,1.4368
3319.00,1.4402
3318.00,1.4453
3317.00,1.4521
3316.00,1.4604
3315.00,1.4703
3314.00,1.4814
3313.00,1.4937
3312.00,1.5070
3311.00,1.5213
3310.00,1.5363
3309.00,1.5521
3308.00,1.5687
3307.00,1.5859
3306.00,1.6036
3305.00,1.6217
3304.00,1.6401
3303.00,1.6587
3302.00,1.6774
3301.00,1.6962
3300.00,1.7152
3299.00,1.7341
3298.00,1.7526
3297.00,1.7709
3296.00,1.7892
3295.00,1.8076
3294.00,1.8260
3293.00,1.8441
3292.00,1.8615
3291.00,1.8784
3290.00,1.8950
3289.00,1.9111
3288.00,1.9266
3287.00,1.9416
3286.00,1.9560
3285.00,1.9700
3284.00,1.9837
3283.00,1.9971
3282.00,2.0104
3281.00,2.0233
3280.00,2.0357
3279.00,2.0472
3278.00,2.0578
3277.00,2.0677
3276.00,2.0771
3275.00,2.0863
3274.00,2.0955
3273.00,2.1046
3272.00,2.1133
3271.00,2.1210
3270.00,2.1276
3269.00,2.1334
3268.00,2.1384
3267.00,2.1431
3266.00,2.1475
3265.00,2.1518
3264.00,2.1557
3263.00,2.1589
3262.00,2.1613
3261.00,2.1631
3260.00,2.1649
3259.00,2.1667
3258.00,2.1685
3257.00,2.1697
3256.00,2.1703
3255.00,2.1702
3254.00,2.1696
3253.00,2.1686
3252.00,2.1672
3251.00,2.1656
3250.00,2.1636
3249.00,2.1609
3248.00,2.1572
3247.00,2.1526
3246.00,2.1475
3245.00,2.1423
3244.00,2.1374
3243.00,2.1327
3242.00,2.1280
3241.00,2.1229
3240.00,2.1167
3239.00,2.1093
3238.00,2.1009
3237.00,2.0920
3236.00,2.0828
3235.00,2.0733
3234.00,2.0634
3233.00,2.0532
3232.00,2.0426
3231.00,2.0315
3230.00,2.0196
3229.00,2.0070
3228.00,1.9942
3227.00,1.9811
3226.00,1.9677
3225.00,1.9535
3224.00,1.9387
3223.00,1.9235
3222.00,1.9080
3221.00,1.8923
3220.00,1.8763
3219.00,1.8599
3218.00,1.8431
3217.00,1.8260
3216.00,1.8086
3215.00,1.7909
3214.00,1.7730
3213.00,1.7551
3212.00,1.7372
3211.00,1.7195
3210.00,1.7020
3209.00,1.6850
3208.00,1.6685
3207.00,1.6523
3206.00,1.6367
3205.00,1.6218
3204.00,1.6078
3203.00,1.5949
3202.00,1.5834
3201.00,1.5730
3200.00,1.5637
3199.00,1.5554
3198.00,1.5484
3197.00,1.5428
3196.00,1.5388
3195.00,1.5363
3194.00,1.5354
3193.00,1.5361
3192.00,1.5384
3191.00,1.5424
3190.00,1.5478
3189.00,1.5547
3188.00,1.5631
3187.00,1.5727
3186.00,1.5834
3185.00,1.5950
3184.00,1.6077
3183.00,1.6214
3182.00,1.6361
3181.00,1.6513
3180.00,1.6669
3179.00,1.6829
3178.00,1.6994
3177.00,1.7165
3176.00,1.7341
3175.00,1.7517
3174.00,1.7692
3173.00,1.7868
3172.00,1.8046
3171.00,1.8225
3170.00,1.8403
3169.00,1.8579
3168.00,1.8752
3167.00,1.8922
3166.00,1.9089
3165.00,1.9254
3164.00,1.9416
3163.00,1.9575
3162.00,1.9731
3161.00,1.9883
3160.00,2.0034
3159.00,2.0182
3158.00,2.0324
3157.00,2.0458
3156.00,2.0585
3155.00,2.0708
3154.00,2.0828
3153.00,2.0942
3152.00,2.1044
3151.00,2.1136
3150.00,2.1219
3149.00,2.1298
3148.00,2.1374
3147.00,2.1448
3146.00,2.1522
3145.00,2.1598
3144.00,2.1674
3143.00,2.1748
3142.00,2.1822
3141.00,2.1893
3140.00,2.1961
3139.00,2.2021
3138.00,2.2068
3137.00,2.2101
3136.00,2.2127
3135.00,2.2152
3134.00,2.2182
3133.00,2.2215
3132.00,2.2246
3131.00,2.2268
3130.00,2.2281
3129.00,2.2287
3128.00,2.2289
3127.00,2.2287
3126.00,2.2284
3125.00,2.2276
3124.00,2.2261
3123.00,2.2238
3122.00,2.2208
3121.00,2.2173
3120.00,2.2130
3119.00,2.2078
3118.00,2.2023
3117.00,2.1969
3116.00,2.1914
3115.00,2.1856
3114.00,2.1790
3113.00,2.1715
3112.00,2.1632
3111.00,2.1540
3110.00,2.1439
3109.00,2.1332
3108.00,2.1220
3107.00,2.1100
3106.00,2.0973
3105.00,2.0841
3104.00,2.0708
3103.00,2.0572
3102.00,2.0431
3101.00,2.0282
3100.00,2.0126
3099.00,1.9961
3098.00,1.9789
3097.00,1.9611
3096.00,1.9430
3095.00,1.9248
3094.00,1.9063
3093.00,1.8872
3092.00,1.8675
3091.00,1.8472
3090.00,1.8267
3089.00,1.8061
3088.00,1.7857
3087.00,1.7657
3086.00,1.7462
3085.00,1.7271
3084.00,1.7086
3083.00,1.6907
3082.00,1.6735
3081.00,1.6574
3080.00,1.6425
3079.00,1.6291
3078.00,1.6175
3077.00,1.6075
3076.00,1.5995
3075.00,1.5935
3074.00,1.5897
3073.00,1.5881
3072.00,1.5886
3071.00,1.5913
3070.00,1.5961
3069.00,1.6029
3068.00,1.6117
3067.00,1.6225
3066.00,1.6351
3065.00,1.6493
3064.00,1.6650
3063.00,1.6819
3062.00,1.6997
3061.00,1.7183
3060.00,1.7375
3059.00,1.7572
3058.00,1.7773
3057.00,1.7978
3056.00,1.8186
3055.00,1.8398
3054.00,1.8611
3053.00,1.8824
3052.00,1.9034
3051.00,1.9242
3050.00,1.9450
3049.00,1.9654
3048.00,1.9855
3047.00,2.0051
3046.00,2.0242
3045.00,2.0429
3044.00,2.0611
3043.00,2.0790
3042.00,2.0967
3041.00,2.1142
3040.00,2.1313
3039.00,2.1478
3038.00,2.1636
3037.00,2.1787
3036.00,2.1932
3035.00,2.2071
3034.00,2.2201
3033.00,2.2319
3032.00,2.2427
3031.00,2.2530
3030.00,2.2628
3029.00,2.2722
3028.00,2.2806
3027.00,2.2877
3026.00,2.2934
3025.00,2.2979
3024.00,2.3015
3023.00,2.3049
3022.00,2.3081
3021.00,2.3107
3020.00,2.3123
3019.00,2.3128
3018.00,2.3125
3017.00,2.3114
3016.00,2.3094
3015.00,2.3060
3014.00,2.3014
3013.00,2.2958
3012.00,2.2895
3011.00,2.2824
3010.00,2.2742
3009.00,2.2646
3008.00,2.2536
3007.00,2.2414
3006.00,2.2281
3005.00,2.2135
3004.00,2.1979
3003.00,2.1814
3002.00,2.1642
3001.00,2.1460
3000.00,2.1268
2999.00,2.1069
2998.00,2.0867
2997.00,2.0670
2996.00,2.0482
2995.00,2.0306
2994.00,2.0152
2993.00,2.0027
2992.00,1.9944
2991.00,1.9911
2990.00,1.9933
2989.00,2.0015
2988.00,2.0159
2987.00,2.0364
2986.00,2.0631
2985.00,2.0958
2984.00,2.1342
2983.00,2.1778
2982.00,2.2259
2981.00,2.2777
2980.00,2.3325
2979.00,2.3896
2978.00,2.4485
2977.00,2.5090
2976.00,2.5714
2975.00,2.6363
2974.00,2.7042
2973.00,2.7751
2972.00,2.8485
2971.00,2.9244
2970.00,3.0028
2969.00,3.0832
2968.00,3.1638
2967.00,3.2426
2966.00,3.3190
2965.00,3.3940
2964.00,3.4676
2963.00,3.5377
2962.00,3.6010
2961.00,3.6543
2960.00,3.6916
2959.00,3.7107
2958.00,3.7175
2957.00,3.7204
2956.00,3.7256
2955.00,3.7393
2954.00,3.7645
2953.00,3.7921
2952.00,3.8015
2951.00,3.7872
2950.00,3.7709
2949.00,3.7773
2948.00,3.8119
2947.00,3.8631
2946.00,3.9193
2945.00,3.9848
2944.00,4.0692
2943.00,4.1654
2942.00,4.2454
2941.00,4.2800
2940.00,4.2608
2939.00,4.2102
2938.00,4.1685
2937.00,4.1710
2936.00,4.2292
2935.00,4.3305
2934.00,4.4407
2933.00,4.5784
2932.00,4.7189
2931.00,4.7701
2930.00,4.7073
2929.00,4.7547
2928.00,5.0457
2927.00,4.9000
2926.00,4.5299
2925.00,4.2789
2924.00,4.1617
2923.00,4.1039
2922.00,4.0629
2921.00,4.0250
2920.00,3.9503
2919.00,3.8510
2918.00,3.7506
2917.00,3.6603
2916.00,3.5795
2915.00,3.5046
2914.00,3.4340
2913.00,3.3695
2912.00,3.3147
2911.00,3.2720
2910.00,3.2394
2909.00,3.2118
2908.00,3.1836
2907.00,3.1538
2906.00,3.1244
2905.00,3.0978
2904.00,3.0738
2903.00,3.0501
2902.00,3.0244
2901.00,2.9960
2900.00,2.9664
2899.00,2.9372
2898.00,2.9093
2897.00,2.8833
2896.00,2.8595
2895.00,2.8386
2894.00,2.8209
2893.00,2.8056
2892.00,2.7905
2891.00,2.7746
2890.00,2.7589
2889.00,2.7460
2888.00,2.7379
2887.00,2.7348
2886.00,2.7355
2885.00,2.7393
2884.00,2.7475
2883.00,2.7629
2882.00,2.7873
2881.00,2.8205
2880.00,2.8595
2879.00,2.9003
2878.00,2.9402
2877.00,2.9794
2876.00,3.0207
2875.00,3.0668
2874.00,3.1185
2873.00,3.1754
2872.00,3.2385
2871.00,3.3105
2870.00,3.3926
2869.00,3.4786
2868.00,3.5564
2867.00,3.6173
2866.00,3.6648
2865.00,3.7098
2864.00,3.7615
2863.00,3.8171
2862.00,3.8527
2861.00,3.8362
2860.00,3.7674
2859.00,3.6755
2858.00,3.5799
2857.00,3.4825
2856.00,3.3817
2855.00,3.2793
2854.00,3.1774
2853.00,3.0752
2852.00,2.9722
2851.00,2.8702
2850.00,2.7719
2849.00,2.6791
2848.00,2.5924
2847.00,2.5121
2846.00,2.4386
2845.00,2.3725
2844.00,2.3140
2843.00,2.2639
2842.00,2.2233
2841.00,2.1926
2840.00,2.1716
2839.00,2.1591
2838.00,2.1538
2837.00,2.1542
2836.00,2.1589
2835.00,2.1672
2834.00,2.1785
2833.00,2.1923
2832.00,2.2080
2831.00,2.2244
2830.00,2.2406
2829.00,2.2557
2828.00,2.2692
2827.00,2.2810
2826.00,2.2913
2825.00,2.3009
2824.00,2.3102
2823.00,2.3196
2822.00,2.3292
2821.00,2.3387
2820.00,2.3477
2819.00,2.3563
2818.00,2.3644
2817.00,2.3722
2816.00,2.3794
2815.00,2.3858
2814.00,2.3914
2813.00,2.3967
2812.00,2.4018
2811.00,2.4065
2810.00,2.4103
2809.00,2.4131
2808.00,2.4148
2807.00,2.4153
2806.00,2.4145
2805.00,2.4127
2804.00,2.4104
2803.00,2.4082
2802.00,2.4062
2801.00,2.4037
2800.00,2.3998
2799.00,2.3941
2798.00,2.3871
2797.00,2.3796
2796.00,2.3717
2795.00,2.3636
2794.00,2.3545
2793.00,2.3441
2792.00,2.3317
2791.00,2.3174
2790.00,2.3017
2789.00,2.2853
2788.00,2.2686
2787.00,2.2518
2786.00,2.2344
2785.00,2.2157
2784.00,2.1953
2783.00,2.1728
2782.00,2.1488
2781.00,2.1237
2780.00,2.0976
2779.00,2.0706
2778.00,2.0427
2777.00,2.0139
2776.00,1.9839
2775.00,1.9525
2774.00,1.9195
2773.00,1.8853
2772.00,1.8500
2771.00,1.8139
2770.00,1.7773
2769.00,1.7404
2768.00,1.7036
2767.00,1.6674
2766.00,1.6323
2765.00,1.5986
2764.00,1.5667
2763.00,1.5369
2762.00,1.5096
2761.00,1.4848
2760.00,1.4628
2759.00,1.4437
2758.00,1.4280
2757.00,1.4161
2756.00,1.4085
2755.00,1.4055
2754.00,1.4073
2753.00,1.4141
2752.00,1.4255
2751.00,1.4412
2750.00,1.4607
2749.00,1.4836
2748.00,1.5093
2747.00,1.5374
2746.00,1.5672
2745.00,1.5983
2744.00,1.6305
2743.00,1.6634
2742.00,1.6968
2741.00,1.7302
2740.00,1.7636
2739.00,1.7970
2738.00,1.8303
2737.00,1.8633
2736.00,1.8957
2735.00,1.9269
2734.00,1.9566
2733.00,1.9853
2732.00,2.0131
2731.00,2.0406
2730.00,2.0677
2729.00,2.0941
2728.00,2.1196
2727.00,2.1435
2726.00,2.1658
2725.00,2.1866
2724.00,2.2065
2723.00,2.2259
2722.00,2.2450
2721.00,2.2634
2720.00,2.2806
2719.00,2.2965
2718.00,2.3108
2717.00,2.3238
2716.00,2.3357
2715.00,2.3473
2714.00,2.3589
2713.00,2.3704
2712.00,2.3811
2711.00,2.3907
2710.00,2.3996
2709.00,2.4083
2708.00,2.4169
2707.00,2.4248
2706.00,2.4313
2705.00,2.4363
2704.00,2.4399
2703.00,2.4426
2702.00,2.4446
2701.00,2.4462
2700.00,2.4477
2699.00,2.4492
2698.00,2.4507
2697.00,2.4520
2696.00,2.4526
2695.00,2.4515
2694.00,2.4486
2693.00,2.4448
2692.00,2.4410
2691.00,2.4380
2690.00,2.4354
2689.00,2.4320
2688.00,2.4273
2687.00,2.4216
2686.00,2.4162
2685.00,2.4118
2684.00,2.4076
2683.00,2.4023
2682.00,2.3950
2681.00,2.3864
2680.00,2.3776
2679.00,2.3693
2678.00,2.3613
2677.00,2.3532
2676.00,2.3447
2675.00,2.3354
2674.00,2.3253
2673.00,2.3143
2672.00,2.3029
2671.00,2.2911
2670.00,2.2784
2669.00,2.2646
2668.00,2.2493
2667.00,2.2328
2666.00,2.2148
2665.00,2.1951
2664.00,2.1736
2663.00,2.1503
2662.00,2.1254
2661.00,2.0992
2660.00,2.0720
2659.00,2.0439
2658.00,2.0149
2657.00,1.9851
2656.00,1.9547
2655.00,1.9241
2654.00,1.8932
2653.00,1.8621
2652.00,1.8306
2651.00,1.7988
2650.00,1.7668
2649.00,1.7345
2648.00,1.7021
2647.00,1.6694
2646.00,1.6367
2645.00,1.6041
2644.00,1.5722
2643.00,1.5415
2642.00,1.5125
2641.00,1.4860
2640.00,1.4627
2639.00,1.4433
2638.00,1.4282
2637.00,1.4179
2636.00,1.4125
2635.00,1.4121
2634.00,1.4165
2633.00,1.4258
2632.00,1.4397
2631.00,1.4576
2630.00,1.4790
2629.00,1.5035
2628.00,1.5304
2627.00,1.5595
2626.00,1.5903
2625.00,1.6222
2624.00,1.6550
2623.00,1.6882
2622.00,1.7218
2621.00,1.7554
2620.00,1.7887
2619.00,1.8217
2618.00,1.8541
2617.00,1.8860
2616.00,1.9171
2615.00,1.9473
2614.00,1.9764
2613.00,2.0047
2612.00,2.0319
2611.00,2.0581
2610.00,2.0831
2609.00,2.1069
2608.00,2.1298
2607.00,2.1521
2606.00,2.1740
2605.00,2.1956
2604.00,2.2167
2603.00,2.2375
2602.00,2.2580
2601.00,2.2780
2600.00,2.2969
2599.00,2.3143
2598.00,2.3303
2597.00,2.3453
2596.00,2.3598
2595.00,2.3738
2594.00,2.3870
2593.00,2.3992
2592.00,2.4106
2591.00,2.4215
2590.00,2.4327
2589.00,2.4445
2588.00,2.4568
2587.00,2.4686
2586.00,2.4792
2585.00,2.4881
2584.00,2.4954
2583.00,2.5016
2582.00,2.5070
2581.00,2.5116
2580.00,2.5155
2579.00,2.5190
2578.00,2.5226
2577.00,2.5263
2576.00,2.5298
2575.00,2.5323
2574.00,2.5335
2573.00,2.5339
2572.00,2.5342
2571.00,2.5346
2570.00,2.5344
2569.00,2.5331
2568.00,2.5307
2567.00,2.5284
2566.00,2.5268
2565.00,2.5252
2564.00,2.5229
2563.00,2.5194
2562.00,2.5148
2561.00,2.5092
2560.00,2.5027
2559.00,2.4957
2558.00,2.4884
2557.00,2.4809
2556.00,2.4727
2555.00,2.4632
2554.00,2.4530
2553.00,2.4425
2552.00,2.4321
2551.00,2.4218
2550.00,2.4111
2549.00,2.3995
2548.00,2.3865
2547.00,2.3720
2546.00,2.3565
2545.00,2.3403
2544.00,2.3238
2543.00,2.3068
2542.00,2.2888
2541.00,2.2695
2540.00,2.2489
2539.00,2.2272
2538.00,2.2045
2537.00,2.1808
2536.00,2.1561
2535.00,2.1303
2534.00,2.1033
2533.00,2.0750
2532.00,2.0452
2531.00,2.0137
2530.00,1.9807
2529.00,1.9466
2528.00,1.9114
2527.00,1.8751
2526.00,1.8375
2525.00,1.7987
2524.00,1.7590
2523.00,1.7186
2522.00,1.6777
2521.00,1.6366
2520.00,1.5957
2519.00,1.5555
2518.00,1.5168
2517.00,1.4804
2516.00,1.4470
2515.00,1.4172
2514.00,1.3914
2513.00,1.3702
2512.00,1.3541
2511.00,1.3435
2510.00,1.3386
2509.00,1.3395
2508.00,1.3460
2507.00,1.3577
2506.00,1.3742
2505.00,1.3949
2504.00,1.4195
2503.00,1.4474
2502.00,1.4781
2501.00,1.5110
2500.00,1.5455
2499.00,1.5812
2498.00,1.6178
2497.00,1.6552
2496.00,1.6932
2495.00,1.7314
2494.00,1.7694
2493.00,1.8071
2492.00,1.8444
2491.00,1.8814
2490.00,1.9180
2489.00,1.9537
2488.00,1.9885
2487.00,2.0223
2486.00,2.0554
2485.00,2.0880
2484.00,2.1197
2483.00,2.1501
2482.00,2.1789
2481.00,2.2060
2480.00,2.2317
2479.00,2.2562
2478.00,2.2805
2477.00,2.3047
2476.00,2.3284
2475.00,2.3504
2474.00,2.3701
2473.00,2.3879
2472.00,2.4043
2471.00,2.4204
2470.00,2.4362
2469.00,2.4516
2468.00,2.4661
2467.00,2.4795
2466.00,2.4921
2465.00,2.5043
2464.00,2.5161
2463.00,2.5271
2462.00,2.5365
2461.00,2.5443
2460.00,2.5511
2459.00,2.5578
2458.00,2.5653
2457.00,2.5732
2456.00,2.5808
2455.00,2.5873
2454.00,2.5926
2453.00,2.5968
2452.00,2.5996
2451.00,2.6015
2450.00,2.6035
2449.00,2.6061
2448.00,2.6087
2447.00,2.6102
2446.00,2.6108
2445.00,2.6114
2444.00,2.6125
2443.00,2.6136
2442.00,2.6139
2441.00,2.6129
2440.00,2.6107
2439.00,2.6078
2438.00,2.6045
2437.00,2.6009
2436.00,2.5964
2435.00,2.5907
2434.00,2.5845
2433.00,2.5788
2432.00,2.5743
2431.00,2.5702
2430.00,2.5650
2429.00,2.5572
2428.00,2.5469
2427.00,2.5353
2426.00,2.5239
2425.00,2.5131
2424.00,2.5023
2423.00,2.4912
2422.00,2.4800
2421.00,2.4688
2420.00,2.4567
2419.00,2.4423
2418.00,2.4257
2417.00,2.4078
2416.00,2.3893
2415.00,2.3703
2414.00,2.3504
2413.00,2.3293
2412.00,2.3075
2411.00,2.2847
2410.00,2.2609
2409.00,2.2356
2408.00,2.2087
2407.00,2.1799
2406.00,2.1491
2405.00,2.1163
2404.00,2.0820
2403.00,2.0462
2402.00,2.0089
2401.00,1.9695
2400.00,1.9280
2399.00,1.8843
2398.00,1.8390
2397.00,1.7922
2396.00,1.7431
2395.00,1.6949
2394.00,1.6464
2393.00,1.5986
2392.00,1.5527
2391.00,1.5093
2390.00,1.4692
2389.00,1.4329
2388.00,1.4013
2387.00,1.3749
2386.00,1.3542
2385.00,1.3396
2384.00,1.3313
2383.00,1.3293
2382.00,1.3335
2381.00,1.3436
2380.00,1.3591
2379.00,1.3796
2378.00,1.4046
2377.00,1.4337
2376.00,1.4663
2375.00,1.5018
2374.00,1.5395
2373.00,1.5787
2372.00,1.6193
2371.00,1.6609
2370.00,1.7033
2369.00,1.7459
2368.00,1.7882
2367.00,1.8299
2366.00,1.8708
2365.00,1.9112
2364.00,1.9510
2363.00,1.9900
2362.00,2.0278
2361.00,2.0645
2360.00,2.1002
2359.00,2.1350
2358.00,2.1688
2357.00,2.2010
2356.00,2.2312
2355.00,2.2596
2354.00,2.2873
2353.00,2.3143
2352.00,2.3401
2351.00,2.3639
2350.00,2.3864
2349.00,2.4081
2348.00,2.4296
2347.00,2.4505
2346.00,2.4706
2345.00,2.4896
2344.00,2.5074
2343.00,2.5236
2342.00,2.5387
2341.00,2.5538
2340.00,2.5692
2339.00,2.5835
2338.00,2.5950
2337.00,2.6033
2336.00,2.6096
2335.00,2.6159
2334.00,2.6237
2333.00,2.6333
2332.00,2.6438
2331.00,2.6536
2330.00,2.6609
2329.00,2.6657
2328.00,2.6692
2327.00,2.6730
2326.00,2.6777
2325.00,2.6829
2324.00,2.6880
2323.00,2.6932
2322.00,2.6988
2321.00,2.7051
2320.00,2.7107
2319.00,2.7137
2318.00,2.7132
2317.00,2.7102
2316.00,2.7071
2315.00,2.7059
2314.00,2.7061
2313.00,2.7060
2312.00,2.7037
2311.00,2.6995
2310.00,2.6948
2309.00,2.6911
2308.00,2.6886
2307.00,2.6857
2306.00,2.6806
2305.00,2.6729
2304.00,2.6642
2303.00,2.6563
2302.00,2.6496
2301.00,2.6426
2300.00,2.6339
2299.00,2.6232
2298.00,2.6116
2297.00,2.6000
2296.00,2.5889
2295.00,2.5779
2294.00,2.5666
2293.00,2.5544
2292.00,2.5410
2291.00,2.5262
2290.00,2.5100
2289.00,2.4926
2288.00,2.4741
2287.00,2.4549
2286.00,2.4348
2285.00,2.4138
2284.00,2.3916
2283.00,2.3682
2282.00,2.3433
2281.00,2.3168
2280.00,2.2886
2279.00,2.2590
2278.00,2.2276
2277.00,2.1954
2276.00,2.1601
2275.00,2.1258
2274.00,2.0854
2273.00,2.0374
2272.00,2.1023
2271.00,2.1621
2270.00,2.2025
2269.00,2.2241
2268.00,2.2277
2267.00,2.2197
2266.00,2.1975
2265.00,2.1674
2264.00,2.1312
2263.00,2.0910
2262.00,2.0481
2261.00,2.0038
2260.00,1.9607
2259.00,1.9213
2258.00,1.8844
2257.00,1.8523
2256.00,1.8252
2255.00,1.8030
2254.00,1.7882
2253.00,1.7749
2252.00,1.7677
2251.00,1.7615
2250.00,1.7596
2249.00,1.7615
2248.00,1.7671
2247.00,1.7785
2246.00,1.7921
2245.00,1.8116
2244.00,1.8320
2243.00,1.8571
2242.00,1.8828
2241.00,1.9115
2240.00,1.9410
2239.00,1.9724
2238.00,2.0046
2237.00,2.0380
2236.00,2.0719
2235.00,2.1057
2234.00,2.1392
2233.00,2.1721
2232.00,2.2050
2231.00,2.2371
2230.00,2.2685
2229.00,2.2984
2228.00,2.3272
2227.00,2.3549
2226.00,2.3820
2225.00,2.4085
2224.00,2.4335
2223.00,2.4566
2222.00,2.4781
2221.00,2.4994
2220.00,2.5209
2219.00,2.5421
2218.00,2.5613
2217.00,2.5784
2216.00,2.5936
2215.00,2.6080
2214.00,2.6217
2213.00,2.6352
2212.00,2.6489
2211.00,2.6633
2210.00,2.6779
2209.00,2.6916
2208.00,2.7035
2207.00,2.7135
2206.00,2.7226
2205.00,2.7317
2204.00,2.7417
2203.00,2.7520
2202.00,2.7608
2201.00,2.7666
2200.00,2.7704
2199.00,2.7747
2198.00,2.7804
2197.00,2.7857
2196.00,2.7882
2195.00,2.7883
2194.00,2.7885
2193.00,2.7905
2192.00,2.7933
2191.00,2.7952
2190.00,2.7960
2189.00,2.7961
2188.00,2.7956
2187.00,2.7949
2186.00,2.7949
2185.00,2.7954
2184.00,2.7955
2183.00,2.7943
2182.00,2.7924
2181.00,2.7908
2180.00,2.7888
2179.00,2.7846
2178.00,2.7778
2177.00,2.7697
2176.00,2.7614
2175.00,2.7529
2174.00,2.7445
2173.00,2.7366
2172.00,2.7294
2171.00,2.7222
2170.00,2.7142
2169.00,2.7048
2168.00,2.6935
2167.00,2.6796
2166.00,2.6640
2165.00,2.6486
2164.00,2.6342
2163.00,2.6199
2162.00,2.6038
2161.00,2.5853
2160.00,2.5656
2159.00,2.5454
2158.00,2.5245
2157.00,2.5026
2156.00,2.4800
2155.00,2.4571
2154.00,2.4337
2153.00,2.4089
2152.00,2.3820
2151.00,2.3528
2150.00,2.3214
2149.00,2.2875
2148.00,2.2512
2147.00,2.2128
2146.00,2.1728
2145.00,2.1316
2144.00,2.0891
2143.00,2.0447
2142.00,1.9982
2141.00,1.9494
2140.00,1.8990
2139.00,1.8480
2138.00,1.7976
2137.00,1.7485
2136.00,1.7013
2135.00,1.6565
2134.00,1.6148
2133.00,1.5769
2132.00,1.5433
2131.00,1.5148
2130.00,1.4919
2129.00,1.4754
2128.00,1.4658
2127.00,1.4633
2126.00,1.4682
2125.00,1.4806
2124.00,1.5000
2123.00,1.5258
2122.00,1.5570
2121.00,1.5927
2120.00,1.6319
2119.00,1.6736
2118.00,1.7174
2117.00,1.7625
2116.00,1.8087
2115.00,1.8553
2114.00,1.9017
2113.00,1.9476
2112.00,1.9930
2111.00,2.0379
2110.00,2.0823
2109.00,2.1259
2108.00,2.1686
2107.00,2.2101
2106.00,2.2500
2105.00,2.2882
2104.00,2.3241
2103.00,2.3577
2102.00,2.3891
2101.00,2.4186
2100.00,2.4469
2099.00,2.4745
2098.00,2.5014
2097.00,2.5273
2096.00,2.5520
2095.00,2.5753
2094.00,2.5972
2093.00,2.6175
2092.00,2.6359
2091.00,2.6527
2090.00,2.6693
2089.00,2.6870
2088.00,2.7061
2087.00,2.7249
2086.00,2.7416
2085.00,2.7555
2084.00,2.7670
2083.00,2.7768
2082.00,2.7857
2081.00,2.7942
2080.00,2.8030
2079.00,2.8120
2078.00,2.8210
2077.00,2.8295
2076.00,2.8381
2075.00,2.8477
2074.00,2.8570
2073.00,2.8662
2072.00,2.8783
2071.00,2.8958
2070.00,2.9140
2069.00,2.9230
2068.00,2.9180
2067.00,2.9057
2066.00,2.8968
2065.00,2.8954
2064.00,2.8975
2063.00,2.8984
2062.00,2.8975
2061.00,2.8967
2060.00,2.8964
2059.00,2.8960
2058.00,2.8950
2057.00,2.8935
2056.00,2.8920
2055.00,2.8912
2054.00,2.8905
2053.00,2.8883
2052.00,2.8839
2051.00,2.8779
2050.00,2.8715
2049.00,2.8650
2048.00,2.8579
2047.00,2.8494
2046.00,2.8393
2045.00,2.8281
2044.00,2.8167
2043.00,2.8051
2042.00,2.7933
2041.00,2.7813
2040.00,2.7691
2039.00,2.7566
2038.00,2.7431
2037.00,2.7283
2036.00,2.7123
2035.00,2.6956
2034.00,2.6781
2033.00,2.6594
2032.00,2.6390
2031.00,2.6170
2030.00,2.5934
2029.00,2.5685
2028.00,2.5424
2027.00,2.5154
2026.00,2.4873
2025.00,2.4580
2024.00,2.4272
2023.00,2.3944
2022.00,2.3591
2021.00,2.3215
2020.00,2.2817
2019.00,2.2400
2018.00,2.1961
2017.00,2.1501
2016.00,2.1029
2015.00,2.0550
2014.00,2.0058
2013.00,1.9548
2012.00,1.9018
2011.00,1.8479
2010.00,1.7945
2009.00,1.7432
2008.00,1.6949
2007.00,1.6507
2006.00,1.6116
2005.00,1.5785
2004.00,1.5525
2003.00,1.5344
2002.00,1.5251
2001.00,1.5249
2000.00,1.5337
1999.00,1.5512
1998.00,1.5761
1997.00,1.6072
1996.00,1.6428
1995.00,1.6823
1994.00,1.7249
1993.00,1.7702
1992.00,1.8181
1991.00,1.8685
1990.00,1.9208
1989.00,1.9741
1988.00,2.0271
1987.00,2.0789
1986.00,2.1293
1985.00,2.1787
1984.00,2.2266
1983.00,2.2725
1982.00,2.3157
1981.00,2.3563
1980.00,2.3947
1979.00,2.4316
1978.00,2.4664
1977.00,2.4983
1976.00,2.5272
1975.00,2.5542
1974.00,2.5805
1973.00,2.6065
1972.00,2.6321
1971.00,2.6573
1970.00,2.6812
1969.00,2.7021
1968.00,2.7187
1967.00,2.7330
1966.00,2.7480
1965.00,2.7651
1964.00,2.7829
1963.00,2.7996
1962.00,2.8153
1961.00,2.8312
1960.00,2.8478
1959.00,2.8649
1958.00,2.8820
1957.00,2.8978
1956.00,2.9102
1955.00,2.9184
1954.00,2.9242
1953.00,2.9301
1952.00,2.9365
1951.00,2.9420
1950.00,2.9467
1949.00,2.9519
1948.00,2.9577
1947.00,2.9623
1946.00,2.9651
1945.00,2.9683
1944.00,2.9732
1943.00,2.9787
1942.00,2.9829
1941.00,2.9849
1940.00,2.9852
1939.00,2.9845
1938.00,2.9834
1937.00,2.9834
1936.00,2.9846
1935.00,2.9851
1934.00,2.9826
1933.00,2.9784
1932.00,2.9751
1931.00,2.9730
1930.00,2.9705
1929.00,2.9666
1928.00,2.9626
1927.00,2.9589
1926.00,2.9540
1925.00,2.9462
1924.00,2.9346
1923.00,2.9201
1922.00,2.9054
1921.00,2.8939
1920.00,2.8866
1919.00,2.8798
1918.00,2.8688
1917.00,2.8536
1916.00,2.8378
1915.00,2.8234
1914.00,2.8084
1913.00,2.7908
1912.00,2.7705
1911.00,2.7481
1910.00,2.7242
1909.00,2.6990
1908.00,2.6741
1907.00,2.6500
1906.00,2.6259
1905.00,2.6006
1904.00,2.5729
1903.00,2.5420
1902.00,2.5076
1901.00,2.4700
1900.00,2.4298
1899.00,2.3873
1898.00,2.3416
1897.00,2.2926
1896.00,2.2402
1895.00,2.1844
1894.00,2.1263
1893.00,2.0675
1892.00,2.0091
1891.00,1.9496
1890.00,1.8885
1889.00,1.8293
1888.00,1.7775
1887.00,1.7359
1886.00,1.7042
1885.00,1.6811
1884.00,1.6665
1883.00,1.6615
1882.00,1.6664
1881.00,1.6805
1880.00,1.7029
1879.00,1.7331
1878.00,1.7698
1877.00,1.8118
1876.00,1.8577
1875.00,1.9050
1874.00,1.9515
1873.00,1.9971
1872.00,2.0430
1871.00,2.0880
1870.00,2.1293
1869.00,2.1677
1868.00,2.2081
1867.00,2.2542
1866.00,2.3044
1865.00,2.3551
1864.00,2.4036
1863.00,2.4490
1862.00,2.4918
1861.00,2.5322
1860.00,2.5700
1859.00,2.6058
1858.00,2.6397
1857.00,2.6713
1856.00,2.7009
1855.00,2.7303
1854.00,2.7610
1853.00,2.7917
1852.00,2.8191
1851.00,2.8411
1850.00,2.8565
1849.00,2.8669
1848.00,2.8785
1847.00,2.8988
1846.00,2.9280
1845.00,2.9551
1844.00,2.9690
1843.00,2.9726
1842.00,2.9789
1841.00,2.9939
1840.00,3.0135
1839.00,3.0318
1838.00,3.0472
1837.00,3.0608
1836.00,3.0711
1835.00,3.0754
1834.00,3.0754
1833.00,3.0750
1832.00,3.0754
1831.00,3.0735
1830.00,3.0671
1829.00,3.0609
1828.00,3.0621
1827.00,3.0713
1826.00,3.0814
1825.00,3.0838
1824.00,3.0786
1823.00,3.0719
1822.00,3.0681
1821.00,3.0657
1820.00,3.0616
1819.00,3.0545
1818.00,3.0453
1817.00,3.0356
1816.00,3.0262
1815.00,3.0169
1814.00,3.0060
1813.00,2.9926
1812.00,2.9785
1811.00,2.9660
1810.00,2.9557
1809.00,2.9465
1808.00,2.9371
1807.00,2.9272
1806.00,2.9147
1805.00,2.8963
1804.00,2.8705
1803.00,2.8400
1802.00,2.8078
1801.00,2.7748
1800.00,2.7402
1799.00,2.7021
1798.00,2.6593
1797.00,2.6123
1796.00,2.5633
1795.00,2.5146
1794.00,2.4627
1793.00,2.4005
1792.00,2.3295
1791.00,2.2620
1790.00,2.2087
1789.00,2.1709
1788.00,2.1447
1787.00,2.1273
1786.00,2.1190
1785.00,2.1229
1784.00,2.1415
1783.00,2.1764
1782.00,2.2253
1781.00,2.2830
1780.00,2.3475
1779.00,2.4182
1778.00,2.4924
1777.00,2.5647
1776.00,2.6315
1775.00,2.6951
1774.00,2.7582
1773.00,2.8183
1772.00,2.8740
1771.00,2.9280
1770.00,2.9800
1769.00,3.0272
1768.00,3.0668
1767.00,3.0991
1766.00,3.1298
1765.00,3.1631
1764.00,3.1958
1763.00,3.2201
1762.00,3.2330
1761.00,3.2426
1760.00,3.2598
1759.00,3.2866
1758.00,3.3164
1757.00,3.3381
1756.00,3.3473
1755.00,3.3499
1754.00,3.3531
1753.00,3.3580
1752.00,3.3632
1751.00,3.3717
1750.00,3.3923
1749.00,3.4267
1748.00,3.4642
1747.00,3.4977
1746.00,3.5296
1745.00,3.5608
1744.00,3.5892
1743.00,3.6198
1742.00,3.6717
1741.00,3.7615
1740.00,3.8809
1739.00,3.9944
1738.00,4.0722
1737.00,4.1349
1736.00,4.2151
1735.00,4.2981
1734.00,4.3533
1733.00,4.3942
1732.00,4.4205
1731.00,4.4042
1730.00,4.3759
1729.00,4.4098
1728.00,4.4982
1727.00,4.5026
1726.00,4.4894
1725.00,4.5996
1724.00,4.7890
1723.00,4.6931
1722.00,4.4656
1721.00,4.3394
1720.00,4.2493
1719.00,4.1692
1718.00,4.1449
1717.00,4.2633
1716.00,4.4528
1715.00,4.5415
1714.00,4.8822
1713.00,5.0185
1712.00,4.7220
1711.00,4.8970
1710.00,5.2990
1709.00,5.4332
1708.00,4.7446
1707.00,4.4646
1706.00,4.3660
1705.00,4.3385
1704.00,4.3486
1703.00,4.4146
1702.00,4.6024
1701.00,4.8534
1700.00,4.6463
1699.00,4.4327
1698.00,4.4416
1697.00,4.5459
1696.00,4.5293
1695.00,4.4419
1694.00,4.4264
1693.00,4.3789
1692.00,4.2486
1691.00,4.1188
1690.00,4.0104
1689.00,3.9145
1688.00,3.8268
1687.00,3.7510
1686.00,3.6924
1685.00,3.6382
1684.00,3.5765
1683.00,3.5287
1682.00,3.5171
1681.00,3.5336
1680.00,3.5538
1679.00,3.5637
1678.00,3.5641
1677.00,3.5559
1676.00,3.5270
1675.00,3.4698
1674.00,3.4035
1673.00,3.3542
1672.00,3.3257
1671.00,3.3015
1670.00,3.2652
1669.00,3.2139
1668.00,3.1549
1667.00,3.0966
1666.00,3.0420
1665.00,2.9884
1664.00,2.9281
1663.00,2.8563
1662.00,2.7823
1661.00,2.7196
1660.00,2.6740
1659.00,2.6418
1658.00,2.6174
1657.00,2.5980
1656.00,2.5884
1655.00,2.5927
1654.00,2.5997
1653.00,2.6003
1652.00,2.6110
1651.00,2.6535
1650.00,2.7196
1649.00,2.7812
1648.00,2.8247
1647.00,2.8556
1646.00,2.8850
1645.00,2.9191
1644.00,2.9591
1643.00,3.0008
1642.00,3.0379
1641.00,3.0664
1640.00,3.0868
1639.00,3.1019
1638.00,3.1160
1637.00,3.1300
1636.00,3.1434
1635.00,3.1571
1634.00,3.1730
1633.00,3.1922
1632.00,3.2078
1631.00,3.2153
1630.00,3.2171
1629.00,3.2169
1628.00,3.2182
1627.00,3.2258
1626.00,3.2411
1625.00,3.2575
1624.00,3.2641
1623.00,3.2587
1622.00,3.2513
1621.00,3.2496
1620.00,3.2513
1619.00,3.2506
1618.00,3.2459
1617.00,3.2402
1616.00,3.2385
1615.00,3.2415
1614.00,3.2429
1613.00,3.2397
1612.00,3.2356
1611.00,3.2366
1610.00,3.2429
1609.00,3.2469
1608.00,3.2417
1607.00,3.2301
1606.00,3.2182
1605.00,3.2059
1604.00,3.1902
1603.00,3.1695
1602.00,3.1450
1601.00,3.1195
1600.00,3.0976
1599.00,3.0823
1598.00,3.0721
1597.00,3.0605
1596.00,3.0425
1595.00,3.0191
1594.00,2.9940
1593.00,2.9682
1592.00,2.9400
1591.00,2.9087
1590.00,2.8757
1589.00,2.8426
1588.00,2.8093
1587.00,2.7730
1586.00,2.7301
1585.00,2.6792
1584.00,2.6231
1583.00,2.5658
1582.00,2.5058
1581.00,2.4392
1580.00,2.3659
1579.00,2.2896
1578.00,2.2106
1577.00,2.1268
1576.00,2.0427
1575.00,1.9746
1574.00,1.9348
1573.00,1.9186
1572.00,1.9144
1571.00,1.9123
1570.00,1.9097
1569.00,1.9137
1568.00,1.9343
1567.00,1.9741
1566.00,2.0266
1565.00,2.0809
1564.00,2.1299
1563.00,2.1763
1562.00,2.2260
1561.00,2.2852
1560.00,2.3324
1559.00,2.3678
1558.00,2.4218
1557.00,2.4904
1556.00,2.5611
1555.00,2.6260
1554.00,2.6796
1553.00,2.7250
1552.00,2.7668
1551.00,2.8051
1550.00,2.8400
1549.00,2.8756
1548.00,2.9133
1547.00,2.9499
1546.00,2.9784
1545.00,2.9948
1544.00,3.0047
1543.00,3.0154
1542.00,3.0271
1541.00,3.0378
1540.00,3.0518
1539.00,3.0691
1538.00,3.0924
1537.00,3.1299
1536.00,3.1738
1535.00,3.2105
1534.00,3.2343
1533.00,3.2508
1532.00,3.2663
1531.00,3.2746
1530.00,3.2741
1529.00,3.2712
1528.00,3.2721
1527.00,3.2798
1526.00,3.2919
1525.00,3.3012
1524.00,3.3011
1523.00,3.2894
1522.00,3.2713
1521.00,3.2587
1520.00,3.2606
1519.00,3.2732
1518.00,3.2831
1517.00,3.2842
1516.00,3.2849
1515.00,3.2944
1514.00,3.3097
1513.00,3.3182
1512.00,3.3077
1511.00,3.2796
1510.00,3.2460
1509.00,3.2186
1508.00,3.2017
1507.00,3.2044
1506.00,3.2161
1505.00,3.2159
1504.00,3.2164
1503.00,3.2253
1502.00,3.2344
1501.00,3.2359
1500.00,3.2234
1499.00,3.1963
1498.00,3.1602
1497.00,3.1256
1496.00,3.0986
1495.00,3.0812
1494.00,3.0744
1493.00,3.0719
1492.00,3.0585
1491.00,3.0190
1490.00,2.9581
1489.00,2.8991
1488.00,2.8547
1487.00,2.8191
1486.00,2.7840
1485.00,2.7455
1484.00,2.7024
1483.00,2.6546
1482.00,2.6013
1481.00,2.5465
1480.00,2.4969
1479.00,2.4572
1478.00,2.4263
1477.00,2.4026
1476.00,2.3888
1475.00,2.3921
1474.00,2.4175
1473.00,2.4663
1472.00,2.5382
1471.00,2.6276
1470.00,2.7249
1469.00,2.8230
1468.00,2.9187
1467.00,3.0101
1466.00,3.0946
1465.00,3.1670
1464.00,3.2239
1463.00,3.2646
1462.00,3.2917
1461.00,3.3094
1460.00,3.3212
1459.00,3.3347
1458.00,3.3659
1457.00,3.4358
1456.00,3.5535
1455.00,3.7160
1454.00,3.9184
1453.00,4.1381
1452.00,4.3085
1451.00,4.3930
1450.00,4.4783
1449.00,4.4982
1448.00,4.3093
1447.00,4.0811
1446.00,3.8892
1445.00,3.7341
1444.00,3.6063
1443.00,3.4967
1442.00,3.4082
1441.00,3.3468
1440.00,3.3158
1439.00,3.3153
1438.00,3.3462
1437.00,3.4111
1436.00,3.5095
1435.00,3.6204
1434.00,3.7113
1433.00,3.7783
1432.00,3.8311
1431.00,3.8619
1430.00,3.8608
1429.00,3.8434
1428.00,3.8406
1427.00,3.8699
1426.00,3.9201
1425.00,3.9589
1424.00,3.9653
1423.00,3.9397
1422.00,3.8926
1421.00,3.8345
1420.00,3.7680
1419.00,3.7012
1418.00,3.6483
1417.00,3.6037
1416.00,3.5491
1415.00,3.4827
1414.00,3.4176
1413.00,3.3654
1412.00,3.3289
1411.00,3.3046
1410.00,3.2897
1409.00,3.2870
1408.00,3.2975
1407.00,3.3148
1406.00,3.3296
1405.00,3.3386
1404.00,3.3489
1403.00,3.3693
1402.00,3.4022
1401.00,3.4399
1400.00,3.4678
1399.00,3.4777
1398.00,3.4777
1397.00,3.4810
1396.00,3.4888
1395.00,3.4953
1394.00,3.4993
1393.00,3.5047
1392.00,3.5136
1391.00,3.5256
1390.00,3.5415
1389.00,3.5602
1388.00,3.5706
1387.00,3.5591
1386.00,3.5336
1385.00,3.5164
1384.00,3.5157
1383.00,3.5220
1382.00,3.5259
1381.00,3.5295
1380.00,3.5359
1379.00,3.5391
1378.00,3.5299
1377.00,3.5101
1376.00,3.4900
1375.00,3.4788
1374.00,3.4801
1373.00,3.4884
1372.00,3.4920
1371.00,3.4826
1370.00,3.4619
1369.00,3.4403
1368.00,3.4285
1367.00,3.4268
1366.00,3.4235
1365.00,3.4068
1364.00,3.3764
1363.00,3.3445
1362.00,3.3229
1361.00,3.3094
1360.00,3.2922
1359.00,3.2654
1358.00,3.2336
1357.00,3.2049
1356.00,3.1844
1355.00,3.1753
1354.00,3.1828
1353.00,3.2152
1352.00,3.2799
1351.00,3.3798
1350.00,3.5106
1349.00,3.6524
1348.00,3.7638
1347.00,3.7995
1346.00,3.7597
1345.00,3.6905
1344.00,3.6346
1343.00,3.6118
1342.00,3.6216
1341.00,3.6543
1340.00,3.7031
1339.00,3.7534
1338.00,3.7730
1337.00,3.7384
1336.00,3.6600
1335.00,3.5656
1334.00,3.4733
1333.00,3.3872
1332.00,3.3065
1331.00,3.2322
1330.00,3.1687
1329.00,3.1212
1328.00,3.0930
1327.00,3.0856
1326.00,3.0991
1325.00,3.1327
1324.00,3.1858
1323.00,3.2589
1322.00,3.3527
1321.00,3.4640
1320.00,3.5805
1319.00,3.6868
1318.00,3.7800
1317.00,3.8809
1316.00,4.0261
1315.00,4.2694
1314.00,4.7959
1313.00,5.0635
1312.00,4.6851
1311.00,4.7428
1310.00,4.5346
1309.00,4.2288
1308.00,4.0692
1307.00,3.9726
1306.00,3.8836
1305.00,3.7680
1304.00,3.6304
1303.00,3.4900
1302.00,3.3651
1301.00,3.2621
1300.00,3.1787
1299.00,3.1111
1298.00,3.0586
1297.00,3.0230
1296.00,3.0060
1295.00,3.0068
1294.00,3.0226
1293.00,3.0508
1292.00,3.0888
1291.00,3.1319
1290.00,3.1756
1289.00,3.2189
1288.00,3.2648
1287.00,3.3152
1286.00,3.3670
1285.00,3.4125
1284.00,3.4468
1283.00,3.4735
1282.00,3.5014
1281.00,3.5354
1280.00,3.5710
1279.00,3.5970
1278.00,3.6075
1277.00,3.6078
1276.00,3.6102
1275.00,3.6259
1274.00,3.6574
1273.00,3.6944
1272.00,3.7189
1271.00,3.7250
1270.00,3.7267
1269.00,3.7399
1268.00,3.7633
1267.00,3.7820
1266.00,3.7865
1265.00,3.7827
1264.00,3.7811
1263.00,3.7812
1262.00,3.7755
1261.00,3.7634
1260.00,3.7538
1259.00,3.7589
1258.00,3.7845
1257.00,3.8220
1256.00,3.8453
1255.00,3.8351
1254.00,3.8060
1253.00,3.7857
1252.00,3.7871
1251.00,3.8021
1250.00,3.8137
1249.00,3.8163
1248.00,3.8179
1247.00,3.8271
1246.00,3.8450
1245.00,3.8616
1244.00,3.8576
1243.00,3.8180
1242.00,3.7574
1241.00,3.7125
1240.00,3.7017
1239.00,3.7162
1238.00,3.7450
1237.00,3.7960
1236.00,3.8850
1235.00,4.0117
1234.00,4.1379
1233.00,4.1956
1232.00,4.1807
1231.00,4.1634
1230.00,4.1698
1229.00,4.1586
1228.00,4.1163
1227.00,4.0734
1226.00,4.0442
1225.00,4.0375
1224.00,4.0547
1223.00,4.0879
1222.00,4.1359
1221.00,4.2064
1220.00,4.2866
1219.00,4.3212
1218.00,4.3111
1217.00,4.2667
1216.00,4.1690
1215.00,4.0754
1214.00,4.0317
1213.00,4.0437
1212.00,4.0777
1211.00,4.0723
1210.00,4.0237
1209.00,3.9471
1208.00,3.8603
1207.00,3.7971
1206.00,3.7698
1205.00,3.7704
1204.00,3.7773
1203.00,3.7692
1202.00,3.7504
1201.00,3.7406
1200.00,3.7391
1199.00,3.7193
1198.00,3.6747
1197.00,3.6369
1196.00,3.6309
1195.00,3.6504
1194.00,3.6654
1193.00,3.6496
1192.00,3.6085
1191.00,3.5624
1190.00,3.5220
1189.00,3.4885
1188.00,3.4590
1187.00,3.4298
1186.00,3.3983
1185.00,3.3653
1184.00,3.3347
1183.00,3.3117
1182.00,3.3031
1181.00,3.3140
1180.00,3.3433
1179.00,3.3797
1178.00,3.4028
1177.00,3.3988
1176.00,3.3748
1175.00,3.3514
1174.00,3.3448
1173.00,3.3580
1172.00,3.3820
1171.00,3.4025
1170.00,3.4168
1169.00,3.4386
1168.00,3.4768
1167.00,3.5218
1166.00,3.5570
1165.00,3.5735
1164.00,3.5725
1163.00,3.5554
1162.00,3.5318
1161.00,3.5238
1160.00,3.5455
1159.00,3.5899
1158.00,3.6359
1157.00,3.6707
1156.00,3.7035
1155.00,3.7486
1154.00,3.7998
1153.00,3.8277
1152.00,3.8221
1151.00,3.8080
1150.00,3.8053
1149.00,3.8191
1148.00,3.8517
1147.00,3.8974
1146.00,3.9422
1145.00,3.9825
1144.00,4.0356
1143.00,4.1053
1142.00,4.1343
1141.00,4.1071
1140.00,4.0769
1139.00,4.0272
1138.00,3.9506
1137.00,3.8844
1136.00,3.8459
1135.00,3.8379
1134.00,3.8569
1133.00,3.8919
1132.00,3.9271
1131.00,3.9536
1130.00,3.9786
1129.00,3.9944
1128.00,3.9685
1127.00,3.9119
1126.00,3.8891
1125.00,3.9479
1124.00,4.0811
1123.00,4.2636
1122.00,4.3170
1121.00,4.1818
1120.00,4.1536
1119.00,4.3029
1118.00,4.3749
1117.00,4.1910
1116.00,4.1093
1115.00,4.2081
1114.00,4.2586
1113.00,4.0812
1112.00,3.9750
1111.00,4.0014
1110.00,4.1076
1109.00,4.1775
1108.00,4.0709
1107.00,3.9031
1106.00,3.8057
1105.00,3.8248
1104.00,3.9793
1103.00,4.2645
1102.00,4.4952
1101.00,4.4132
1100.00,4.1950
1099.00,4.0459
1098.00,4.0101
1097.00,4.0695
1096.00,4.1702
1095.00,4.1606
1094.00,4.0440
1093.00,3.9589
1092.00,3.9390
1091.00,3.9820
1090.00,4.0575
1089.00,4.0827
1088.00,4.0433
1087.00,4.0094
1086.00,3.9935
1085.00,3.9835
1084.00,3.9968
1083.00,4.0392
1082.00,4.0729
1081.00,4.0526
1080.00,3.9930
1079.00,3.9406
1078.00,3.9044
1077.00,3.8712
1076.00,3.8388
1075.00,3.8155
1074.00,3.8111
1073.00,3.8300
1072.00,3.8466
1071.00,3.8303
1070.00,3.8192
1069.00,3.8616
1068.00,3.9356
1067.00,3.9636
1066.00,3.9290
1065.00,3.8908
1064.00,3.8947
1063.00,3.9701
1062.00,4.0964
1061.00,4.1768
1060.00,4.2284
1059.00,4.3408
1058.00,4.4090
1057.00,4.2654
1056.00,4.0540
1055.00,3.9223
1054.00,3.8795
1053.00,3.8644
1052.00,3.8184
1051.00,3.7644
1050.00,3.7553
1049.00,3.8002
1048.00,3.8399
1047.00,3.8061
1046.00,3.7189
1045.00,3.6264
1044.00,3.5586
1043.00,3.5276
1042.00,3.5254
1041.00,3.5255
1040.00,3.5090
1039.00,3.4932
1038.00,3.5067
1037.00,3.5583
1036.00,3.6322
1035.00,3.6922
1034.00,3.7101
1033.00,3.7050
1032.00,3.7163
1031.00,3.7567
1030.00,3.8025
1029.00,3.8239
1028.00,3.8367
1027.00,3.8742
1026.00,3.9350
1025.00,3.9760
1024.00,3.9760
1023.00,3.9748
1022.00,4.0053
1021.00,4.0625
1020.00,4.1077
1019.00,4.1044
1018.00,4.0656
1017.00,4.0323
1016.00,4.0254
1015.00,4.0325
1014.00,4.0339
1013.00,4.0359
1012.00,4.0637
1011.00,4.1345
1010.00,4.2393
1009.00,4.3296
1008.00,4.3183
1007.00,4.1788
1006.00,4.0604
1005.00,4.0650
1004.00,4.2381
1003.00,4.4660
1002.00,4.4416
1001.00,4.3849
1000.00,4.3500
999.00,4.2682
998.00,4.2160
997.00,4.2223
996.00,4.4057
995.00,4.8247
994.00,4.8546
993.00,4.6801
992.00,4.4018
991.00,4.1852
990.00,4.0998
989.00,4.0715
988.00,4.0692
987.00,4.0417
986.00,3.9564
985.00,3.8568
984.00,3.8143
983.00,3.8595
982.00,3.9744
981.00,4.1119
980.00,4.2373
979.00,4.2416
978.00,4.1484
977.00,4.0828
976.00,4.0410
975.00,4.0448
974.00,4.1187
973.00,4.2048
972.00,4.1959
971.00,4.1179
970.00,4.0767
969.00,4.0954
968.00,4.1470
967.00,4.2134
966.00,4.2605
965.00,4.2537
964.00,4.2401
963.00,4.2264
962.00,4.2014
961.00,4.2022
960.00,4.2421
959.00,4.2967
958.00,4.2879
957.00,4.1939
956.00,4.1039
955.00,4.0597
954.00,4.0880
953.00,4.2104
952.00,4.2675
951.00,4.1741
950.00,4.1194
949.00,4.1380
948.00,4.1937
947.00,4.3654
946.00,4.5266
945.00,4.3266
944.00,4.2611
943.00,4.3449
942.00,4.3568
941.00,4.2602
940.00,4.2476
939.00,4.4273
938.00,4.3669
937.00,4.0969
936.00,4.0540
935.00,4.1368
934.00,4.3836
933.00,4.9656
932.00,4.4919
931.00,4.2843
930.00,4.2935
929.00,4.3046
928.00,4.3094
927.00,4.2843
926.00,4.3217
925.00,4.3559
924.00,4.2752
923.00,4.1722
922.00,4.1950
921.00,4.3277
920.00,4.6623
919.00,5.0712
918.00,4.4763
917.00,4.2347
916.00,4.1704
915.00,4.1439
914.00,4.1567
913.00,4.2231
912.00,4.2648
911.00,4.2227
910.00,4.2458
909.00,4.3307
908.00,4.3703
907.00,4.5006
906.00,4.6876
905.00,4.7062
904.00,5.0028
903.00,4.8075
902.00,4.4441
901.00,4.3840
900.00,4.4026
899.00,4.3946
898.00,4.3452
897.00,4.2575
896.00,4.1521
895.00,4.0629
894.00,4.0165
893.00,4.0233
892.00,4.0824
891.00,4.1419
890.00,4.1635
889.00,4.1716
888.00,4.2430
887.00,4.5182
886.00,4.4697
885.00,4.1317
884.00,4.0356
883.00,4.1065
882.00,4.3954
881.00,4.4273
880.00,4.0343
879.00,3.8867
878.00,3.8791
877.00,3.9393
876.00,4.0318
875.00,4.1048
874.00,4.1438
873.00,4.1037
872.00,4.0557
871.00,4.0944
870.00,4.2226
869.00,4.3290
868.00,4.2932
867.00,4.2509
866.00,4.3359
865.00,4.5080
864.00,4.4658
863.00,4.2063
862.00,4.0212
861.00,3.9694
860.00,4.0301
859.00,4.1505
858.00,4.1908
857.00,4.0675
856.00,3.9400
855.00,3.8874
854.00,3.8761
853.00,3.8499
852.00,3.8154
851.00,3.8218
850.00,3.8933
849.00,4.0110
848.00,4.1167
847.00,4.1794
846.00,4.1566
845.00,4.1067
844.00,4.1253
843.00,4.2845
842.00,4.5258
841.00,4.3613
840.00,4.1484
839.00,4.0400
838.00,3.9635
837.00,3.9043
836.00,3.8702
835.00,3.8871
834.00,3.9683
833.00,4.0876
832.00,4.1540
831.00,4.1789
830.00,4.2198
829.00,4.2320
828.00,4.1429
827.00,3.9853
826.00,3.8549
825.00,3.7917
824.00,3.8061
823.00,3.9355
822.00,4.2349
821.00,4.3836
820.00,4.1957
819.00,4.0997
818.00,4.0748
817.00,4.1391
816.00,4.2902
815.00,4.3917
814.00,4.3307
813.00,4.2113
812.00,4.0962
811.00,4.0138
810.00,3.9505
809.00,3.9452
808.00,4.0071
807.00,4.2557
806.00,4.6808
805.00,4.2412
804.00,4.0611
803.00,4.1281
802.00,4.3466
801.00,4.7062
800.00,5.0393
799.00,5.7762
798.00,5.0598
797.00,4.3803
796.00,4.1053
795.00,3.9869
794.00,3.9235
793.00,3.8673
792.00,3.8364
791.00,3.8445
790.00,3.9592
789.00,4.3133
788.00,4.2135
787.00,3.8883
786.00,3.7995
785.00,3.8220
784.00,3.9159
783.00,4.0986
782.00,4.3718
781.00,4.5157
780.00,4.5101
779.00,4.7555
778.00,5.0501
777.00,4.7236
776.00,4.4830
775.00,4.2529
774.00,4.1419
773.00,4.2489
772.00,4.3884
771.00,4.1824
770.00,4.0440
769.00,4.0265
768.00,4.0884
767.00,4.1811
766.00,4.3932
765.00,4.5272
764.00,4.0714
763.00,3.8923
762.00,3.8973
761.00,4.0080
760.00,4.1820
759.00,4.2548
758.00,4.3114
757.00,4.3675
756.00,4.4065
755.00,4.4026
754.00,4.2371
753.00,4.1423
752.00,4.1789
751.00,4.1847
750.00,4.0911
749.00,3.9724
748.00,3.8671
747.00,3.8234
746.00,3.8570
745.00,3.9129
744.00,3.9137
743.00,3.8589
742.00,3.8092
741.00,3.8124
740.00,3.8952
739.00,4.0019
738.00,3.9988
737.00,3.9215
736.00,3.8243
735.00,3.7483
734.00,3.7455
733.00,3.8070
732.00,3.8589
731.00,3.8159
730.00,3.7136
729.00,3.6296
728.00,3.5924
727.00,3.6099
726.00,3.6871
725.00,3.8333
724.00,4.0365
723.00,4.1179
722.00,3.9762
721.00,3.8570
720.00,3.8667
719.00,4.0002
718.00,4.1678
717.00,4.2780
716.00,4.2750
715.00,4.1561
714.00,4.0511
713.00,4.1581
712.00,4.4218
711.00,4.1467
710.00,3.9231
709.00,3.8334
708.00,3.7453
707.00,3.6779
706.00,3.6647
705.00,3.6957
704.00,3.7382
703.00,3.7790
702.00,3.8243
701.00,3.8986
700.00,4.0251
