Created as New Dataset,Sample 056 By Administrator Date Wednesday, November 24 2021
cm-1,A
7502.00,0.9677
7501.00,0.9768
7500.00,0.9853
7499.00,0.9932
7498.00,1.0007
7497.00,1.0080
7496.00,1.0151
7495.00,1.0221
7494.00,1.0293
7493.00,1.0366
7492.00,1.0443
7491.00,1.0523
7490.00,1.0605
7489.00,1.0685
7488.00,1.0755
7487.00,1.0810
7486.00,1.0854
7485.00,1.0892
7484.00,1.0924
7483.00,1.0946
7482.00,1.0957
7481.00,1.0970
7480.00,1.0998
7479.00,1.1044
7478.00,1.1100
7477.00,1.1150
7476.00,1.1191
7475.00,1.1228
7474.00,1.1262
7473.00,1.1290
7472.00,1.1302
7471.00,1.1298
7470.00,1.1282
7469.00,1.1261
7468.00,1.1238
7467.00,1.1215
7466.00,1.1191
7465.00,1.1164
7464.00,1.1133
7463.00,1.1095
7462.00,1.1045
7461.00,1.0985
7460.00,1.0917
7459.00,1.0846
7458.00,1.0776
7457.00,1.0709
7456.00,1.0649
7455.00,1.0600
7454.00,1.0561
7453.00,1.0528
7452.00,1.0490
7451.00,1.0440
7450.00,1.0381
7449.00,1.0316
7448.00,1.0250
7447.00,1.0186
7446.00,1.0125
7445.00,1.0067
7444.00,1.0011
7443.00,0.9953
7442.00,0.9895
7441.00,0.9841
7440.00,0.9788
7439.00,0.9733
7438.00,0.9673
7437.00,0.9610
7436.00,0.9549
7435.00,0.9489
7434.00,0.9425
7433.00,0.9357
7432.00,0.9288
7431.00,0.9222
7430.00,0.9158
7429.00,0.9096
7428.00,0.9038
7427.00,0.8982
7426.00,0.8923
7425.00,0.8860
7424.00,0.8794
7423.00,0.8727
7422.00,0.8661
7421.00,0.8592
7420.00,0.8519
7419.00,0.8444
7418.00,0.8368
7417.00,0.8293
7416.00,0.8220
7415.00,0.8150
7414.00,0.8085
7413.00,0.8025
7412.00,0.7969
7411.00,0.7917
7410.00,0.7868
7409.00,0.7824
7408.00,0.7786
7407.00,0.7756
7406.00,0.7734
7405.00,0.7717
7404.00,0.7705
7403.00,0.7697
7402.00,0.7694
7401.00,0.7697
7400.00,0.7706
7399.00,0.7718
7398.00,0.7731
7397.00,0.7748
7396.00,0.7772
7395.00,0.7806
7394.00,0.7849
7393.00,0.7894
7392.00,0.7940
7391.00,0.7988
7390.00,0.8042
7389.00,0.8104
7388.00,0.8169
7387.00,0.8235
7386.00,0.8304
7385.00,0.8378
7384.00,0.8455
7383.00,0.8533
7382.00,0.8613
7381.00,0.8697
7380.00,0.8785
7379.00,0.8871
7378.00,0.8954
7377.00,0.9036
7376.00,0.9122
7375.00,0.9216
7374.00,0.9312
7373.00,0.9406
7372.00,0.9496
7371.00,0.9585
7370.00,0.9673
7369.00,0.9761
7368.00,0.9849
7367.00,0.9934
7366.00,1.0019
7365.00,1.0104
7364.00,1.0192
7363.00,1.0280
7362.00,1.0367
7361.00,1.0455
7360.00,1.0543
7359.00,1.0627
7358.00,1.0707
7357.00,1.0787
7356.00,1.0870
7355.00,1.0954
7354.00,1.1033
7353.00,1.1103
7352.00,1.1167
7351.00,1.1230
7350.00,1.1289
7349.00,1.1343
7348.00,1.1395
7347.00,1.1449
7346.00,1.1503
7345.00,1.1554
7344.00,1.1602
7343.00,1.1648
7342.00,1.1691
7341.00,1.1727
7340.00,1.1754
7339.00,1.1775
7338.00,1.1792
7337.00,1.1806
7336.00,1.1817
7335.00,1.1822
7334.00,1.1823
7333.00,1.1825
7332.00,1.1831
7331.00,1.1842
7330.00,1.1850
7329.00,1.1848
7328.00,1.1838
7327.00,1.1824
7326.00,1.1808
7325.00,1.1788
7324.00,1.1764
7323.00,1.1737
7322.00,1.1706
7321.00,1.1665
7320.00,1.1614
7319.00,1.1558
7318.00,1.1504
7317.00,1.1453
7316.00,1.1400
7315.00,1.1342
7314.00,1.1282
7313.00,1.1221
7312.00,1.1159
7311.00,1.1088
7310.00,1.1003
7309.00,1.0906
7308.00,1.0805
7307.00,1.0708
7306.00,1.0615
7305.00,1.0527
7304.00,1.0438
7303.00,1.0348
7302.00,1.0254
7301.00,1.0157
7300.00,1.0058
7299.00,0.9957
7298.00,0.9855
7297.00,0.9752
7296.00,0.9646
7295.00,0.9540
7294.00,0.9436
7293.00,0.9338
7292.00,0.9243
7291.00,0.9148
7290.00,0.9050
7289.00,0.8951
7288.00,0.8856
7287.00,0.8767
7286.00,0.8684
7285.00,0.8601
7284.00,0.8518
7283.00,0.8437
7282.00,0.8361
7281.00,0.8291
7280.00,0.8224
7279.00,0.8160
7278.00,0.8099
7277.00,0.8045
7276.00,0.8001
7275.00,0.7967
7274.00,0.7937
7273.00,0.7910
7272.00,0.7887
7271.00,0.7872
7270.00,0.7867
7269.00,0.7868
7268.00,0.7872
7267.00,0.7879
7266.00,0.7892
7265.00,0.7913
7264.00,0.7938
7263.00,0.7966
7262.00,0.7996
7261.00,0.8031
7260.00,0.8072
7259.00,0.8119
7258.00,0.8170
7257.00,0.8226
7256.00,0.8284
7255.00,0.8344
7254.00,0.8408
7253.00,0.8477
7252.00,0.8554
7251.00,0.8635
7250.00,0.8717
7249.00,0.8797
7248.00,0.8875
7247.00,0.8955
7246.00,0.9037
7245.00,0.9117
7244.00,0.9194
7243.00,0.9273
7242.00,0.9359
7241.00,0.9453
7240.00,0.9549
7239.00,0.9640
7238.00,0.9726
7237.00,0.9811
7236.00,0.9895
7235.00,0.9979
7234.00,1.0060
7233.00,1.0139
7232.00,1.0218
7231.00,1.0300
7230.00,1.0384
7229.00,1.0467
7228.00,1.0545
7227.00,1.0617
7226.00,1.0687
7225.00,1.0757
7224.00,1.0827
7223.00,1.0896
7222.00,1.0960
7221.00,1.1022
7220.00,1.1085
7219.00,1.1149
7218.00,1.1211
7217.00,1.1270
7216.00,1.1323
7215.00,1.1369
7214.00,1.1406
7213.00,1.1433
7212.00,1.1455
7211.00,1.1474
7210.00,1.1493
7209.00,1.1512
7208.00,1.1535
7207.00,1.1562
7206.00,1.1592
7205.00,1.1619
7204.00,1.1640
7203.00,1.1655
7202.00,1.1663
7201.00,1.1663
7200.00,1.1653
7199.00,1.1639
7198.00,1.1627
7197.00,1.1619
7196.00,1.1611
7195.00,1.1596
7194.00,1.1574
7193.00,1.1547
7192.00,1.1516
7191.00,1.1480
7190.00,1.1438
7189.00,1.1395
7188.00,1.1354
7187.00,1.1314
7186.00,1.1268
7185.00,1.1216
7184.00,1.1160
7183.00,1.1105
7182.00,1.1047
7181.00,1.0984
7180.00,1.0914
7179.00,1.0841
7178.00,1.0773
7177.00,1.0707
7176.00,1.0638
7175.00,1.0561
7174.00,1.0480
7173.00,1.0396
7172.00,1.0306
7171.00,1.0209
7170.00,1.0107
7169.00,1.0007
7168.00,0.9911
7167.00,0.9815
7166.00,0.9718
7165.00,0.9619
7164.00,0.9518
7163.00,0.9414
7162.00,0.9310
7161.00,0.9208
7160.00,0.9109
7159.00,0.9013
7158.00,0.8922
7157.00,0.8838
7156.00,0.8757
7155.00,0.8675
7154.00,0.8590
7153.00,0.8504
7152.00,0.8421
7151.00,0.8342
7150.00,0.8266
7149.00,0.8197
7148.00,0.8135
7147.00,0.8080
7146.00,0.8030
7145.00,0.7983
7144.00,0.7941
7143.00,0.7905
7142.00,0.7875
7141.00,0.7850
7140.00,0.7830
7139.00,0.7815
7138.00,0.7805
7137.00,0.7801
7136.00,0.7803
7135.00,0.7811
7134.00,0.7826
7133.00,0.7847
7132.00,0.7873
7131.00,0.7904
7130.00,0.7943
7129.00,0.7986
7128.00,0.8035
7127.00,0.8088
7126.00,0.8146
7125.00,0.8206
7124.00,0.8270
7123.00,0.8337
7122.00,0.8409
7121.00,0.8484
7120.00,0.8559
7119.00,0.8633
7118.00,0.8710
7117.00,0.8791
7116.00,0.8874
7115.00,0.8957
7114.00,0.9042
7113.00,0.9131
7112.00,0.9227
7111.00,0.9326
7110.00,0.9424
7109.00,0.9517
7108.00,0.9608
7107.00,0.9701
7106.00,0.9795
7105.00,0.9888
7104.00,0.9980
7103.00,1.0074
7102.00,1.0173
7101.00,1.0273
7100.00,1.0368
7099.00,1.0455
7098.00,1.0536
7097.00,1.0618
7096.00,1.0702
7095.00,1.0786
7094.00,1.0867
7093.00,1.0946
7092.00,1.1025
7091.00,1.1104
7090.00,1.1181
7089.00,1.1252
7088.00,1.1319
7087.00,1.1387
7086.00,1.1456
7085.00,1.1522
7084.00,1.1583
7083.00,1.1639
7082.00,1.1691
7081.00,1.1740
7080.00,1.1787
7079.00,1.1834
7078.00,1.1882
7077.00,1.1927
7076.00,1.1965
7075.00,1.1991
7074.00,1.2007
7073.00,1.2018
7072.00,1.2028
7071.00,1.2036
7070.00,1.2043
7069.00,1.2049
7068.00,1.2055
7067.00,1.2056
7066.00,1.2051
7065.00,1.2040
7064.00,1.2021
7063.00,1.1996
7062.00,1.1965
7061.00,1.1932
7060.00,1.1900
7059.00,1.1870
7058.00,1.1840
7057.00,1.1804
7056.00,1.1760
7055.00,1.1712
7054.00,1.1666
7053.00,1.1622
7052.00,1.1573
7051.00,1.1511
7050.00,1.1439
7049.00,1.1364
7048.00,1.1288
7047.00,1.1208
7046.00,1.1122
7045.00,1.1032
7044.00,1.0941
7043.00,1.0848
7042.00,1.0753
7041.00,1.0654
7040.00,1.0554
7039.00,1.0454
7038.00,1.0355
7037.00,1.0256
7036.00,1.0156
7035.00,1.0055
7034.00,0.9955
7033.00,0.9853
7032.00,0.9747
7031.00,0.9635
7030.00,0.9520
7029.00,0.9407
7028.00,0.9300
7027.00,0.9197
7026.00,0.9094
7025.00,0.8992
7024.00,0.8893
7023.00,0.8799
7022.00,0.8710
7021.00,0.8624
7020.00,0.8540
7019.00,0.8458
7018.00,0.8382
7017.00,0.8311
7016.00,0.8246
7015.00,0.8184
7014.00,0.8125
7013.00,0.8071
7012.00,0.8025
7011.00,0.7984
7010.00,0.7949
7009.00,0.7916
7008.00,0.7888
7007.00,0.7868
7006.00,0.7856
7005.00,0.7852
7004.00,0.7854
7003.00,0.7861
7002.00,0.7876
7001.00,0.7897
7000.00,0.7922
6999.00,0.7950
6998.00,0.7983
6997.00,0.8022
6996.00,0.8069
6995.00,0.8121
6994.00,0.8178
6993.00,0.8240
6992.00,0.8305
6991.00,0.8374
6990.00,0.8446
6989.00,0.8521
6988.00,0.8598
6987.00,0.8677
6986.00,0.8759
6985.00,0.8844
6984.00,0.8930
6983.00,0.9014
6982.00,0.9100
6981.00,0.9189
6980.00,0.9281
6979.00,0.9373
6978.00,0.9462
6977.00,0.9553
6976.00,0.9647
6975.00,0.9745
6974.00,0.9843
6973.00,0.9939
6972.00,1.0032
6971.00,1.0124
6970.00,1.0216
6969.00,1.0306
6968.00,1.0392
6967.00,1.0474
6966.00,1.0558
6965.00,1.0646
6964.00,1.0735
6963.00,1.0820
6962.00,1.0898
6961.00,1.0972
6960.00,1.1045
6959.00,1.1114
6958.00,1.1179
6957.00,1.1241
6956.00,1.1305
6955.00,1.1371
6954.00,1.1437
6953.00,1.1503
6952.00,1.1565
6951.00,1.1622
6950.00,1.1673
6949.00,1.1719
6948.00,1.1761
6947.00,1.1797
6946.00,1.1827
6945.00,1.1855
6944.00,1.1882
6943.00,1.1906
6942.00,1.1926
6941.00,1.1939
6940.00,1.1947
6939.00,1.1953
6938.00,1.1959
6937.00,1.1964
6936.00,1.1968
6935.00,1.1966
6934.00,1.1961
6933.00,1.1955
6932.00,1.1944
6931.00,1.1925
6930.00,1.1897
6929.00,1.1863
6928.00,1.1827
6927.00,1.1791
6926.00,1.1753
6925.00,1.1711
6924.00,1.1665
6923.00,1.1613
6922.00,1.1557
6921.00,1.1499
6920.00,1.1440
6919.00,1.1377
6918.00,1.1308
6917.00,1.1236
6916.00,1.1163
6915.00,1.1084
6914.00,1.0997
6913.00,1.0906
6912.00,1.0814
6911.00,1.0724
6910.00,1.0635
6909.00,1.0547
6908.00,1.0460
6907.00,1.0373
6906.00,1.0279
6905.00,1.0178
6904.00,1.0071
6903.00,0.9961
6902.00,0.9850
6901.00,0.9739
6900.00,0.9629
6899.00,0.9523
6898.00,0.9420
6897.00,0.9320
6896.00,0.9219
6895.00,0.9117
6894.00,0.9015
6893.00,0.8913
6892.00,0.8814
6891.00,0.8719
6890.00,0.8626
6889.00,0.8536
6888.00,0.8450
6887.00,0.8368
6886.00,0.8290
6885.00,0.8216
6884.00,0.8147
6883.00,0.8081
6882.00,0.8022
6881.00,0.7969
6880.00,0.7922
6879.00,0.7880
6878.00,0.7844
6877.00,0.7813
6876.00,0.7789
6875.00,0.7772
6874.00,0.7764
6873.00,0.7764
6872.00,0.7769
6871.00,0.7778
6870.00,0.7791
6869.00,0.7810
6868.00,0.7835
6867.00,0.7868
6866.00,0.7906
6865.00,0.7950
6864.00,0.8000
6863.00,0.8056
6862.00,0.8117
6861.00,0.8182
6860.00,0.8249
6859.00,0.8315
6858.00,0.8386
6857.00,0.8463
6856.00,0.8545
6855.00,0.8630
6854.00,0.8716
6853.00,0.8805
6852.00,0.8897
6851.00,0.8992
6850.00,0.9088
6849.00,0.9184
6848.00,0.9281
6847.00,0.9376
6846.00,0.9470
6845.00,0.9566
6844.00,0.9663
6843.00,0.9760
6842.00,0.9856
6841.00,0.9950
6840.00,1.0045
6839.00,1.0139
6838.00,1.0232
6837.00,1.0324
6836.00,1.0418
6835.00,1.0512
6834.00,1.0606
6833.00,1.0698
6832.00,1.0789
6831.00,1.0879
6830.00,1.0966
6829.00,1.1049
6828.00,1.1131
6827.00,1.1212
6826.00,1.1291
6825.00,1.1369
6824.00,1.1443
6823.00,1.1512
6822.00,1.1574
6821.00,1.1630
6820.00,1.1683
6819.00,1.1738
6818.00,1.1794
6817.00,1.1846
6816.00,1.1895
6815.00,1.1944
6814.00,1.1995
6813.00,1.2040
6812.00,1.2073
6811.00,1.2096
6810.00,1.2116
6809.00,1.2136
6808.00,1.2154
6807.00,1.2167
6806.00,1.2178
6805.00,1.2189
6804.00,1.2196
6803.00,1.2194
6802.00,1.2186
6801.00,1.2174
6800.00,1.2159
6799.00,1.2139
6798.00,1.2115
6797.00,1.2091
6796.00,1.2066
6795.00,1.2032
6794.00,1.1988
6793.00,1.1939
6792.00,1.1892
6791.00,1.1848
6790.00,1.1800
6789.00,1.1745
6788.00,1.1684
6787.00,1.1622
6786.00,1.1560
6785.00,1.1491
6784.00,1.1414
6783.00,1.1328
6782.00,1.1240
6781.00,1.1152
6780.00,1.1061
6779.00,1.0965
6778.00,1.0863
6777.00,1.0759
6776.00,1.0654
6775.00,1.0549
6774.00,1.0442
6773.00,1.0333
6772.00,1.0224
6771.00,1.0114
6770.00,1.0006
6769.00,0.9899
6768.00,0.9790
6767.00,0.9680
6766.00,0.9568
6765.00,0.9455
6764.00,0.9341
6763.00,0.9227
6762.00,0.9115
6761.00,0.9008
6760.00,0.8904
6759.00,0.8803
6758.00,0.8702
6757.00,0.8606
6756.00,0.8516
6755.00,0.8432
6754.00,0.8352
6753.00,0.8276
6752.00,0.8204
6751.00,0.8138
6750.00,0.8078
6749.00,0.8023
6748.00,0.7971
6747.00,0.7925
6746.00,0.7885
6745.00,0.7854
6744.00,0.7829
6743.00,0.7809
6742.00,0.7795
6741.00,0.7789
6740.00,0.7790
6739.00,0.7797
6738.00,0.7810
6737.00,0.7831
6736.00,0.7861
6735.00,0.7896
6734.00,0.7937
6733.00,0.7981
6732.00,0.8029
6731.00,0.8081
6730.00,0.8138
6729.00,0.8199
6728.00,0.8265
6727.00,0.8335
6726.00,0.8411
6725.00,0.8491
6724.00,0.8575
6723.00,0.8660
6722.00,0.8747
6721.00,0.8835
6720.00,0.8925
6719.00,0.9016
6718.00,0.9111
6717.00,0.9209
6716.00,0.9309
6715.00,0.9409
6714.00,0.9508
6713.00,0.9606
6712.00,0.9702
6711.00,0.9796
6710.00,0.9888
6709.00,0.9981
6708.00,1.0074
6707.00,1.0170
6706.00,1.0270
6705.00,1.0372
6704.00,1.0472
6703.00,1.0569
6702.00,1.0664
6701.00,1.0757
6700.00,1.0848
6699.00,1.0935
6698.00,1.1018
6697.00,1.1098
6696.00,1.1176
6695.00,1.1249
6694.00,1.1317
6693.00,1.1382
6692.00,1.1447
6691.00,1.1515
6690.00,1.1585
6689.00,1.1651
6688.00,1.1708
6687.00,1.1759
6686.00,1.1807
6685.00,1.1855
6684.00,1.1900
6683.00,1.1938
6682.00,1.1970
6681.00,1.2001
6680.00,1.2033
6679.00,1.2056
6678.00,1.2069
6677.00,1.2075
6676.00,1.2081
6675.00,1.2089
6674.00,1.2097
6673.00,1.2101
6672.00,1.2102
6671.00,1.2098
6670.00,1.2089
6669.00,1.2076
6668.00,1.2059
6667.00,1.2038
6666.00,1.2016
6665.00,1.1989
6664.00,1.1957
6663.00,1.1917
6662.00,1.1869
6661.00,1.1815
6660.00,1.1758
6659.00,1.1700
6658.00,1.1641
6657.00,1.1582
6656.00,1.1522
6655.00,1.1461
6654.00,1.1397
6653.00,1.1330
6652.00,1.1258
6651.00,1.1179
6650.00,1.1095
6649.00,1.1007
6648.00,1.0918
6647.00,1.0828
6646.00,1.0734
6645.00,1.0637
6644.00,1.0537
6643.00,1.0436
6642.00,1.0334
6641.00,1.0230
6640.00,1.0123
6639.00,1.0014
6638.00,0.9904
6637.00,0.9793
6636.00,0.9681
6635.00,0.9567
6634.00,0.9454
6633.00,0.9342
6632.00,0.9231
6631.00,0.9122
6630.00,0.9015
6629.00,0.8912
6628.00,0.8812
6627.00,0.8715
6626.00,0.8619
6625.00,0.8527
6624.00,0.8437
6623.00,0.8352
6622.00,0.8269
6621.00,0.8191
6620.00,0.8117
6619.00,0.8049
6618.00,0.7988
6617.00,0.7935
6616.00,0.7886
6615.00,0.7841
6614.00,0.7802
6613.00,0.7769
6612.00,0.7743
6611.00,0.7724
6610.00,0.7713
6609.00,0.7710
6608.00,0.7714
6607.00,0.7725
6606.00,0.7742
6605.00,0.7765
6604.00,0.7793
6603.00,0.7824
6602.00,0.7861
6601.00,0.7906
6600.00,0.7958
6599.00,0.8016
6598.00,0.8080
6597.00,0.8148
6596.00,0.8219
6595.00,0.8294
6594.00,0.8374
6593.00,0.8457
6592.00,0.8543
6591.00,0.8633
6590.00,0.8726
6589.00,0.8822
6588.00,0.8919
6587.00,0.9014
6586.00,0.9108
6585.00,0.9204
6584.00,0.9302
6583.00,0.9401
6582.00,0.9501
6581.00,0.9601
6580.00,0.9705
6579.00,0.9811
6578.00,0.9919
6577.00,1.0026
6576.00,1.0133
6575.00,1.0241
6574.00,1.0348
6573.00,1.0453
6572.00,1.0553
6571.00,1.0649
6570.00,1.0744
6569.00,1.0839
6568.00,1.0933
6567.00,1.1027
6566.00,1.1118
6565.00,1.1206
6564.00,1.1290
6563.00,1.1369
6562.00,1.1447
6561.00,1.1524
6560.00,1.1601
6559.00,1.1676
6558.00,1.1747
6557.00,1.1816
6556.00,1.1880
6555.00,1.1937
6554.00,1.1988
6553.00,1.2036
6552.00,1.2085
6551.00,1.2135
6550.00,1.2185
6549.00,1.2233
6548.00,1.2275
6547.00,1.2308
6546.00,1.2333
6545.00,1.2353
6544.00,1.2372
6543.00,1.2388
6542.00,1.2399
6541.00,1.2404
6540.00,1.2405
6539.00,1.2403
6538.00,1.2397
6537.00,1.2387
6536.00,1.2375
6535.00,1.2360
6534.00,1.2338
6533.00,1.2309
6532.00,1.2272
6531.00,1.2232
6530.00,1.2192
6529.00,1.2149
6528.00,1.2105
6527.00,1.2059
6526.00,1.2009
6525.00,1.1951
6524.00,1.1883
6523.00,1.1810
6522.00,1.1737
6521.00,1.1664
6520.00,1.1588
6519.00,1.1508
6518.00,1.1424
6517.00,1.1336
6516.00,1.1241
6515.00,1.1140
6514.00,1.1037
6513.00,1.0935
6512.00,1.0830
6511.00,1.0720
6510.00,1.0606
6509.00,1.0490
6508.00,1.0371
6507.00,1.0250
6506.00,1.0130
6505.00,1.0015
6504.00,0.9902
6503.00,0.9787
6502.00,0.9669
6501.00,0.9550
6500.00,0.9432
6499.00,0.9314
6498.00,0.9197
6497.00,0.9082
6496.00,0.8970
6495.00,0.8861
6494.00,0.8755
6493.00,0.8653
6492.00,0.8553
6491.00,0.8457
6490.00,0.8365
6489.00,0.8278
6488.00,0.8198
6487.00,0.8123
6486.00,0.8055
6485.00,0.7995
6484.00,0.7941
6483.00,0.7893
6482.00,0.7852
6481.00,0.7817
6480.00,0.7789
6479.00,0.7768
6478.00,0.7755
6477.00,0.7749
6476.00,0.7752
6475.00,0.7761
6474.00,0.7776
6473.00,0.7797
6472.00,0.7822
6471.00,0.7853
6470.00,0.7890
6469.00,0.7934
6468.00,0.7986
6467.00,0.8046
6466.00,0.8112
6465.00,0.8185
6464.00,0.8261
6463.00,0.8340
6462.00,0.8420
6461.00,0.8501
6460.00,0.8586
6459.00,0.8674
6458.00,0.8766
6457.00,0.8863
6456.00,0.8964
6455.00,0.9065
6454.00,0.9167
6453.00,0.9269
6452.00,0.9372
6451.00,0.9475
6450.00,0.9577
6449.00,0.9681
6448.00,0.9786
6447.00,0.9891
6446.00,0.9995
6445.00,1.0097
6444.00,1.0199
6443.00,1.0302
6442.00,1.0404
6441.00,1.0507
6440.00,1.0607
6439.00,1.0705
6438.00,1.0801
6437.00,1.0896
6436.00,1.0989
6435.00,1.1080
6434.00,1.1167
6433.00,1.1251
6432.00,1.1333
6431.00,1.1414
6430.00,1.1495
6429.00,1.1574
6428.00,1.1647
6427.00,1.1715
6426.00,1.1778
6425.00,1.1839
6424.00,1.1899
6423.00,1.1955
6422.00,1.2006
6421.00,1.2054
6420.00,1.2098
6419.00,1.2138
6418.00,1.2172
6417.00,1.2201
6416.00,1.2224
6415.00,1.2247
6414.00,1.2268
6413.00,1.2289
6412.00,1.2306
6411.00,1.2318
6410.00,1.2324
6409.00,1.2325
6408.00,1.2323
6407.00,1.2316
6406.00,1.2303
6405.00,1.2283
6404.00,1.2255
6403.00,1.2225
6402.00,1.2195
6401.00,1.2165
6400.00,1.2131
6399.00,1.2093
6398.00,1.2054
6397.00,1.2013
6396.00,1.1969
6395.00,1.1918
6394.00,1.1860
6393.00,1.1800
6392.00,1.1739
6391.00,1.1675
6390.00,1.1605
6389.00,1.1529
6388.00,1.1447
6387.00,1.1360
6386.00,1.1271
6385.00,1.1181
6384.00,1.1089
6383.00,1.0996
6382.00,1.0901
6381.00,1.0804
6380.00,1.0703
6379.00,1.0597
6378.00,1.0488
6377.00,1.0378
6376.00,1.0268
6375.00,1.0156
6374.00,1.0042
6373.00,0.9926
6372.00,0.9811
6371.00,0.9695
6370.00,0.9580
6369.00,0.9465
6368.00,0.9352
6367.00,0.9240
6366.00,0.9129
6365.00,0.9019
6364.00,0.8910
6363.00,0.8802
6362.00,0.8697
6361.00,0.8595
6360.00,0.8496
6359.00,0.8400
6358.00,0.8307
6357.00,0.8219
6356.00,0.8137
6355.00,0.8062
6354.00,0.7993
6353.00,0.7930
6352.00,0.7873
6351.00,0.7823
6350.00,0.7780
6349.00,0.7745
6348.00,0.7718
6347.00,0.7699
6346.00,0.7689
6345.00,0.7686
6344.00,0.7690
6343.00,0.7700
6342.00,0.7716
6341.00,0.7739
6340.00,0.7770
6339.00,0.7806
6338.00,0.7850
6337.00,0.7901
6336.00,0.7958
6335.00,0.8020
6334.00,0.8088
6333.00,0.8161
6332.00,0.8238
6331.00,0.8318
6330.00,0.8400
6329.00,0.8486
6328.00,0.8575
6327.00,0.8667
6326.00,0.8764
6325.00,0.8866
6324.00,0.8971
6323.00,0.9077
6322.00,0.9183
6321.00,0.9290
6320.00,0.9397
6319.00,0.9505
6318.00,0.9613
6317.00,0.9724
6316.00,0.9835
6315.00,0.9947
6314.00,1.0057
6313.00,1.0167
6312.00,1.0276
6311.00,1.0382
6310.00,1.0487
6309.00,1.0595
6308.00,1.0704
6307.00,1.0811
6306.00,1.0914
6305.00,1.1015
6304.00,1.1115
6303.00,1.1213
6302.00,1.1305
6301.00,1.1395
6300.00,1.1485
6299.00,1.1577
6298.00,1.1666
6297.00,1.1750
6296.00,1.1828
6295.00,1.1904
6294.00,1.1977
6293.00,1.2045
6292.00,1.2108
6291.00,1.2166
6290.00,1.2223
6289.00,1.2281
6288.00,1.2337
6287.00,1.2387
6286.00,1.2430
6285.00,1.2467
6284.00,1.2501
6283.00,1.2532
6282.00,1.2559
6281.00,1.2580
6280.00,1.2596
6279.00,1.2608
6278.00,1.2618
6277.00,1.2625
6276.00,1.2627
6275.00,1.2625
6274.00,1.2619
6273.00,1.2613
6272.00,1.2603
6271.00,1.2587
6270.00,1.2563
6269.00,1.2533
6268.00,1.2497
6267.00,1.2455
6266.00,1.2411
6265.00,1.2369
6264.00,1.2322
6263.00,1.2268
6262.00,1.2206
6261.00,1.2143
6260.00,1.2080
6259.00,1.2012
6258.00,1.1937
6257.00,1.1858
6256.00,1.1778
6255.00,1.1694
6254.00,1.1604
6253.00,1.1506
6252.00,1.1403
6251.00,1.1299
6250.00,1.1195
6249.00,1.1089
6248.00,1.0980
6247.00,1.0866
6246.00,1.0748
6245.00,1.0628
6244.00,1.0507
6243.00,1.0384
6242.00,1.0260
6241.00,1.0137
6240.00,1.0014
6239.00,0.9888
6238.00,0.9758
6237.00,0.9627
6236.00,0.9497
6235.00,0.9370
6234.00,0.9245
6233.00,0.9122
6232.00,0.9002
6231.00,0.8885
6230.00,0.8771
6229.00,0.8659
6228.00,0.8552
6227.00,0.8451
6226.00,0.8357
6225.00,0.8269
6224.00,0.8187
6223.00,0.8109
6222.00,0.8036
6221.00,0.7969
6220.00,0.7907
6219.00,0.7854
6218.00,0.7808
6217.00,0.7772
6216.00,0.7743
6215.00,0.7721
6214.00,0.7707
6213.00,0.7700
6212.00,0.7700
6211.00,0.7708
6210.00,0.7722
6209.00,0.7745
6208.00,0.7776
6207.00,0.7814
6206.00,0.7858
6205.00,0.7908
6204.00,0.7966
6203.00,0.8030
6202.00,0.8100
6201.00,0.8174
6200.00,0.8253
6199.00,0.8336
6198.00,0.8424
6197.00,0.8514
6196.00,0.8607
6195.00,0.8703
6194.00,0.8801
6193.00,0.8902
6192.00,0.9005
6191.00,0.9111
6190.00,0.9218
6189.00,0.9327
6188.00,0.9436
6187.00,0.9544
6186.00,0.9653
6185.00,0.9763
6184.00,0.9874
6183.00,0.9986
6182.00,1.0097
6181.00,1.0207
6180.00,1.0315
6179.00,1.0420
6178.00,1.0523
6177.00,1.0624
6176.00,1.0726
6175.00,1.0829
6174.00,1.0935
6173.00,1.1040
6172.00,1.1142
6171.00,1.1238
6170.00,1.1329
6169.00,1.1417
6168.00,1.1499
6167.00,1.1578
6166.00,1.1653
6165.00,1.1728
6164.00,1.1801
6163.00,1.1873
6162.00,1.1940
6161.00,1.2001
6160.00,1.2059
6159.00,1.2115
6158.00,1.2169
6157.00,1.2220
6156.00,1.2267
6155.00,1.2309
6154.00,1.2348
6153.00,1.2383
6152.00,1.2414
6151.00,1.2440
6150.00,1.2463
6149.00,1.2484
6148.00,1.2503
6147.00,1.2517
6146.00,1.2529
6145.00,1.2537
6144.00,1.2541
6143.00,1.2540
6142.00,1.2534
6141.00,1.2525
6140.00,1.2512
6139.00,1.2493
6138.00,1.2466
6137.00,1.2437
6136.00,1.2406
6135.00,1.2374
6134.00,1.2335
6133.00,1.2290
6132.00,1.2242
6131.00,1.2192
6130.00,1.2139
6129.00,1.2082
6128.00,1.2022
6127.00,1.1961
6126.00,1.1898
6125.00,1.1830
6124.00,1.1752
6123.00,1.1668
6122.00,1.1582
6121.00,1.1493
6120.00,1.1399
6119.00,1.1297
6118.00,1.1193
6117.00,1.1087
6116.00,1.0978
6115.00,1.0865
6114.00,1.0748
6113.00,1.0628
6112.00,1.0505
6111.00,1.0379
6110.00,1.0253
6109.00,1.0126
6108.00,0.9999
6107.00,0.9873
6106.00,0.9749
6105.00,0.9625
6104.00,0.9500
6103.00,0.9371
6102.00,0.9243
6101.00,0.9117
6100.00,0.8994
6099.00,0.8872
6098.00,0.8753
6097.00,0.8641
6096.00,0.8535
6095.00,0.8434
6094.00,0.8337
6093.00,0.8246
6092.00,0.8160
6091.00,0.8080
6090.00,0.8005
6089.00,0.7937
6088.00,0.7876
6087.00,0.7822
6086.00,0.7775
6085.00,0.7737
6084.00,0.7706
6083.00,0.7684
6082.00,0.7671
6081.00,0.7667
6080.00,0.7672
6079.00,0.7685
6078.00,0.7704
6077.00,0.7731
6076.00,0.7764
6075.00,0.7804
6074.00,0.7852
6073.00,0.7907
6072.00,0.7968
6071.00,0.8036
6070.00,0.8110
6069.00,0.8188
6068.00,0.8270
6067.00,0.8357
6066.00,0.8447
6065.00,0.8541
6064.00,0.8639
6063.00,0.8741
6062.00,0.8848
6061.00,0.8958
6060.00,0.9070
6059.00,0.9183
6058.00,0.9297
6057.00,0.9412
6056.00,0.9526
6055.00,0.9641
6054.00,0.9757
6053.00,0.9876
6052.00,0.9995
6051.00,1.0112
6050.00,1.0229
6049.00,1.0344
6048.00,1.0458
6047.00,1.0570
6046.00,1.0683
6045.00,1.0795
6044.00,1.0907
6043.00,1.1019
6042.00,1.1130
6041.00,1.1238
6040.00,1.1342
6039.00,1.1442
6038.00,1.1540
6037.00,1.1636
6036.00,1.1730
6035.00,1.1819
6034.00,1.1905
6033.00,1.1989
6032.00,1.2070
6031.00,1.2147
6030.00,1.2221
6029.00,1.2290
6028.00,1.2356
6027.00,1.2418
6026.00,1.2476
6025.00,1.2529
6024.00,1.2579
6023.00,1.2626
6022.00,1.2672
6021.00,1.2717
6020.00,1.2758
6019.00,1.2793
6018.00,1.2821
6017.00,1.2843
6016.00,1.2858
6015.00,1.2866
6014.00,1.2866
6013.00,1.2864
6012.00,1.2859
6011.00,1.2853
6010.00,1.2845
6009.00,1.2835
6008.00,1.2823
6007.00,1.2808
6006.00,1.2787
6005.00,1.2760
6004.00,1.2729
6003.00,1.2692
6002.00,1.2650
6001.00,1.2600
6000.00,1.2544
5999.00,1.2484
5998.00,1.2421
5997.00,1.2355
5996.00,1.2285
5995.00,1.2210
5994.00,1.2130
5993.00,1.2045
5992.00,1.1955
5991.00,1.1861
5990.00,1.1763
5989.00,1.1665
5988.00,1.1565
5987.00,1.1463
5986.00,1.1355
5985.00,1.1241
5984.00,1.1123
5983.00,1.1000
5982.00,1.0873
5981.00,1.0744
5980.00,1.0614
5979.00,1.0484
5978.00,1.0355
5977.00,1.0225
5976.00,1.0094
5975.00,0.9961
5974.00,0.9827
5973.00,0.9693
5972.00,0.9558
5971.00,0.9424
5970.00,0.9293
5969.00,0.9167
5968.00,0.9043
5967.00,0.8921
5966.00,0.8801
5965.00,0.8684
5964.00,0.8572
5963.00,0.8463
5962.00,0.8360
5961.00,0.8263
5960.00,0.8173
5959.00,0.8091
5958.00,0.8016
5957.00,0.7949
5956.00,0.7889
5955.00,0.7836
5954.00,0.7792
5953.00,0.7755
5952.00,0.7726
5951.00,0.7705
5950.00,0.7691
5949.00,0.7686
5948.00,0.7691
5947.00,0.7705
5946.00,0.7729
5945.00,0.7761
5944.00,0.7800
5943.00,0.7846
5942.00,0.7898
5941.00,0.7957
5940.00,0.8022
5939.00,0.8093
5938.00,0.8171
5937.00,0.8256
5936.00,0.8345
5935.00,0.8438
5934.00,0.8534
5933.00,0.8633
5932.00,0.8736
5931.00,0.8842
5930.00,0.8952
5929.00,0.9066
5928.00,0.9182
5927.00,0.9302
5926.00,0.9423
5925.00,0.9545
5924.00,0.9667
5923.00,0.9788
5922.00,0.9910
5921.00,1.0033
5920.00,1.0154
5919.00,1.0276
5918.00,1.0398
5917.00,1.0522
5916.00,1.0646
5915.00,1.0767
5914.00,1.0884
5913.00,1.1000
5912.00,1.1114
5911.00,1.1228
5910.00,1.1341
5909.00,1.1453
5908.00,1.1561
5907.00,1.1666
5906.00,1.1766
5905.00,1.1863
5904.00,1.1957
5903.00,1.2048
5902.00,1.2137
5901.00,1.2224
5900.00,1.2307
5899.00,1.2386
5898.00,1.2461
5897.00,1.2533
5896.00,1.2603
5895.00,1.2672
5894.00,1.2738
5893.00,1.2801
5892.00,1.2857
5891.00,1.2907
5890.00,1.2951
5889.00,1.2990
5888.00,1.3022
5887.00,1.3048
5886.00,1.3070
5885.00,1.3090
5884.00,1.3106
5883.00,1.3119
5882.00,1.3127
5881.00,1.3129
5880.00,1.3128
5879.00,1.3125
5878.00,1.3120
5877.00,1.3111
5876.00,1.3096
5875.00,1.3073
5874.00,1.3044
5873.00,1.3009
5872.00,1.2970
5871.00,1.2929
5870.00,1.2886
5869.00,1.2843
5868.00,1.2797
5867.00,1.2745
5866.00,1.2687
5865.00,1.2623
5864.00,1.2555
5863.00,1.2482
5862.00,1.2407
5861.00,1.2328
5860.00,1.2243
5859.00,1.2152
5858.00,1.2056
5857.00,1.1956
5856.00,1.1850
5855.00,1.1739
5854.00,1.1625
5853.00,1.1509
5852.00,1.1391
5851.00,1.1270
5850.00,1.1145
5849.00,1.1018
5848.00,1.0890
5847.00,1.0759
5846.00,1.0625
5845.00,1.0489
5844.00,1.0352
5843.00,1.0214
5842.00,1.0076
5841.00,0.9939
5840.00,0.9802
5839.00,0.9667
5838.00,0.9532
5837.00,0.9400
5836.00,0.9271
5835.00,0.9144
5834.00,0.9022
5833.00,0.8904
5832.00,0.8790
5831.00,0.8680
5830.00,0.8575
5829.00,0.8475
5828.00,0.8382
5827.00,0.8296
5826.00,0.8217
5825.00,0.8145
5824.00,0.8080
5823.00,0.8022
5822.00,0.7971
5821.00,0.7929
5820.00,0.7895
5819.00,0.7871
5818.00,0.7856
5817.00,0.7849
5816.00,0.7852
5815.00,0.7861
5814.00,0.7878
5813.00,0.7902
5812.00,0.7934
5811.00,0.7972
5810.00,0.8019
5809.00,0.8074
5808.00,0.8137
5807.00,0.8207
5806.00,0.8282
5805.00,0.8364
5804.00,0.8451
5803.00,0.8542
5802.00,0.8637
5801.00,0.8736
5800.00,0.8838
5799.00,0.8944
5798.00,0.9052
5797.00,0.9163
5796.00,0.9276
5795.00,0.9391
5794.00,0.9508
5793.00,0.9626
5792.00,0.9745
5791.00,0.9866
5790.00,0.9989
5789.00,1.0112
5788.00,1.0236
5787.00,1.0361
5786.00,1.0485
5785.00,1.0608
5784.00,1.0728
5783.00,1.0847
5782.00,1.0965
5781.00,1.1082
5780.00,1.1199
5779.00,1.1316
5778.00,1.1433
5777.00,1.1548
5776.00,1.1659
5775.00,1.1767
5774.00,1.1870
5773.00,1.1970
5772.00,1.2067
5771.00,1.2161
5770.00,1.2252
5769.00,1.2342
5768.00,1.2430
5767.00,1.2514
5766.00,1.2594
5765.00,1.2671
5764.00,1.2742
5763.00,1.2810
5762.00,1.2875
5761.00,1.2937
5760.00,1.2994
5759.00,1.3047
5758.00,1.3095
5757.00,1.3137
5756.00,1.3175
5755.00,1.3209
5754.00,1.3237
5753.00,1.3261
5752.00,1.3278
5751.00,1.3290
5750.00,1.3299
5749.00,1.3306
5748.00,1.3309
5747.00,1.3307
5746.00,1.3300
5745.00,1.3289
5744.00,1.3276
5743.00,1.3259
5742.00,1.3239
5741.00,1.3216
5740.00,1.3187
5739.00,1.3149
5738.00,1.3103
5737.00,1.3052
5736.00,1.2998
5735.00,1.2941
5734.00,1.2881
5733.00,1.2817
5732.00,1.2749
5731.00,1.2675
5730.00,1.2596
5729.00,1.2510
5728.00,1.2421
5727.00,1.2326
5726.00,1.2227
5725.00,1.2122
5724.00,1.2015
5723.00,1.1907
5722.00,1.1796
5721.00,1.1683
5720.00,1.1565
5719.00,1.1442
5718.00,1.1315
5717.00,1.1183
5716.00,1.1050
5715.00,1.0916
5714.00,1.0780
5713.00,1.0641
5712.00,1.0498
5711.00,1.0352
5710.00,1.0205
5709.00,1.0057
5708.00,0.9911
5707.00,0.9766
5706.00,0.9625
5705.00,0.9485
5704.00,0.9346
5703.00,0.9209
5702.00,0.9076
5701.00,0.8947
5700.00,0.8821
5699.00,0.8700
5698.00,0.8583
5697.00,0.8473
5696.00,0.8368
5695.00,0.8270
5694.00,0.8180
5693.00,0.8097
5692.00,0.8023
5691.00,0.7956
5690.00,0.7897
5689.00,0.7847
5688.00,0.7806
5687.00,0.7775
5686.00,0.7753
5685.00,0.7741
5684.00,0.7739
5683.00,0.7747
5682.00,0.7764
5681.00,0.7790
5680.00,0.7824
5679.00,0.7867
5678.00,0.7918
5677.00,0.7977
5676.00,0.8043
5675.00,0.8117
5674.00,0.8196
5673.00,0.8281
5672.00,0.8371
5671.00,0.8465
5670.00,0.8565
5669.00,0.8670
5668.00,0.8779
5667.00,0.8892
5666.00,0.9007
5665.00,0.9125
5664.00,0.9246
5663.00,0.9369
5662.00,0.9494
5661.00,0.9621
5660.00,0.9750
5659.00,0.9879
5658.00,1.0009
5657.00,1.0138
5656.00,1.0267
5655.00,1.0395
5654.00,1.0523
5653.00,1.0652
5652.00,1.0780
5651.00,1.0907
5650.00,1.1033
5649.00,1.1158
5648.00,1.1279
5647.00,1.1397
5646.00,1.1513
5645.00,1.1627
5644.00,1.1738
5643.00,1.1848
5642.00,1.1955
5641.00,1.2060
5640.00,1.2163
5639.00,1.2264
5638.00,1.2360
5637.00,1.2453
5636.00,1.2543
5635.00,1.2630
5634.00,1.2713
5633.00,1.2793
5632.00,1.2869
5631.00,1.2939
5630.00,1.3001
5629.00,1.3055
5628.00,1.3104
5627.00,1.3152
5626.00,1.3200
5625.00,1.3248
5624.00,1.3292
5623.00,1.3331
5622.00,1.3364
5621.00,1.3390
5620.00,1.3409
5619.00,1.3422
5618.00,1.3431
5617.00,1.3439
5616.00,1.3443
5615.00,1.3441
5614.00,1.3432
5613.00,1.3419
5612.00,1.3401
5611.00,1.3377
5610.00,1.3346
5609.00,1.3309
5608.00,1.3270
5607.00,1.3230
5606.00,1.3188
5605.00,1.3144
5604.00,1.3095
5603.00,1.3043
5602.00,1.2987
5601.00,1.2924
5600.00,1.2854
5599.00,1.2777
5598.00,1.2694
5597.00,1.2607
5596.00,1.2515
5595.00,1.2418
5594.00,1.2318
5593.00,1.2215
5592.00,1.2108
5591.00,1.1997
5590.00,1.1881
5589.00,1.1762
5588.00,1.1639
5587.00,1.1511
5586.00,1.1378
5585.00,1.1240
5584.00,1.1100
5583.00,1.0957
5582.00,1.0812
5581.00,1.0664
5580.00,1.0515
5579.00,1.0364
5578.00,1.0213
5577.00,1.0063
5576.00,0.9913
5575.00,0.9764
5574.00,0.9615
5573.00,0.9465
5572.00,0.9317
5571.00,0.9171
5570.00,0.9029
5569.00,0.8893
5568.00,0.8763
5567.00,0.8638
5566.00,0.8519
5565.00,0.8405
5564.00,0.8297
5563.00,0.8196
5562.00,0.8103
5561.00,0.8018
5560.00,0.7941
5559.00,0.7872
5558.00,0.7812
5557.00,0.7762
5556.00,0.7722
5555.00,0.7693
5554.00,0.7673
5553.00,0.7665
5552.00,0.7666
5551.00,0.7677
5550.00,0.7698
5549.00,0.7727
5548.00,0.7765
5547.00,0.7811
5546.00,0.7865
5545.00,0.7928
5544.00,0.7998
5543.00,0.8076
5542.00,0.8161
5541.00,0.8251
5540.00,0.8346
5539.00,0.8445
5538.00,0.8549
5537.00,0.8658
5536.00,0.8772
5535.00,0.8889
5534.00,0.9008
5533.00,0.9130
5532.00,0.9253
5531.00,0.9377
5530.00,0.9502
5529.00,0.9629
5528.00,0.9758
5527.00,0.9888
5526.00,1.0018
5525.00,1.0149
5524.00,1.0279
5523.00,1.0409
5522.00,1.0538
5521.00,1.0665
5520.00,1.0790
5519.00,1.0912
5518.00,1.1033
5517.00,1.1153
5516.00,1.1271
5515.00,1.1388
5514.00,1.1502
5513.00,1.1615
5512.00,1.1725
5511.00,1.1830
5510.00,1.1931
5509.00,1.2030
5508.00,1.2127
5507.00,1.2221
5506.00,1.2312
5505.00,1.2400
5504.00,1.2487
5503.00,1.2571
5502.00,1.2652
5501.00,1.2730
5500.00,1.2805
5499.00,1.2876
5498.00,1.2943
5497.00,1.3007
5496.00,1.3069
5495.00,1.3129
5494.00,1.3185
5493.00,1.3236
5492.00,1.3279
5491.00,1.3315
5490.00,1.3345
5489.00,1.3372
5488.00,1.3396
5487.00,1.3417
5486.00,1.3434
5485.00,1.3446
5484.00,1.3453
5483.00,1.3454
5482.00,1.3453
5481.00,1.3452
5480.00,1.3448
5479.00,1.3440
5478.00,1.3425
5477.00,1.3402
5476.00,1.3371
5475.00,1.3333
5474.00,1.3290
5473.00,1.3245
5472.00,1.3197
5471.00,1.3145
5470.00,1.3087
5469.00,1.3024
5468.00,1.2955
5467.00,1.2881
5466.00,1.2803
5465.00,1.2721
5464.00,1.2635
5463.00,1.2543
5462.00,1.2446
5461.00,1.2343
5460.00,1.2234
5459.00,1.2119
5458.00,1.1999
5457.00,1.1876
5456.00,1.1749
5455.00,1.1618
5454.00,1.1484
5453.00,1.1346
5452.00,1.1205
5451.00,1.1061
5450.00,1.0915
5449.00,1.0767
5448.00,1.0617
5447.00,1.0464
5446.00,1.0307
5445.00,1.0149
5444.00,0.9989
5443.00,0.9827
5442.00,0.9666
5441.00,0.9508
5440.00,0.9353
5439.00,0.9203
5438.00,0.9058
5437.00,0.8917
5436.00,0.8781
5435.00,0.8648
5434.00,0.8521
5433.00,0.8402
5432.00,0.8291
5431.00,0.8188
5430.00,0.8092
5429.00,0.8003
5428.00,0.7921
5427.00,0.7847
5426.00,0.7783
5425.00,0.7731
5424.00,0.7690
5423.00,0.7662
5422.00,0.7645
5421.00,0.7638
5420.00,0.7643
5419.00,0.7658
5418.00,0.7683
5417.00,0.7719
5416.00,0.7763
5415.00,0.7816
5414.00,0.7878
5413.00,0.7946
5412.00,0.8021
5411.00,0.8103
5410.00,0.8192
5409.00,0.8288
5408.00,0.8390
5407.00,0.8497
5406.00,0.8610
5405.00,0.8728
5404.00,0.8851
5403.00,0.8979
5402.00,0.9111
5401.00,0.9246
5400.00,0.9382
5399.00,0.9518
5398.00,0.9655
5397.00,0.9792
5396.00,0.9930
5395.00,1.0070
5394.00,1.0211
5393.00,1.0354
5392.00,1.0497
5391.00,1.0640
5390.00,1.0781
5389.00,1.0921
5388.00,1.1059
5387.00,1.1196
5386.00,1.1332
5385.00,1.1466
5384.00,1.1598
5383.00,1.1727
5382.00,1.1853
5381.00,1.1977
5380.00,1.2098
5379.00,1.2217
5378.00,1.2333
5377.00,1.2445
5376.00,1.2553
5375.00,1.2656
5374.00,1.2756
5373.00,1.2852
5372.00,1.2945
5371.00,1.3033
5370.00,1.3117
5369.00,1.3195
5368.00,1.3269
5367.00,1.3339
5366.00,1.3405
5365.00,1.3466
5364.00,1.3520
5363.00,1.3570
5362.00,1.3614
5361.00,1.3655
5360.00,1.3694
5359.00,1.3731
5358.00,1.3764
5357.00,1.3792
5356.00,1.3812
5355.00,1.3825
5354.00,1.3833
5353.00,1.3838
5352.00,1.3837
5351.00,1.3831
5350.00,1.3820
5349.00,1.3805
5348.00,1.3784
5347.00,1.3759
5346.00,1.3731
5345.00,1.3700
5344.00,1.3666
5343.00,1.3628
5342.00,1.3583
5341.00,1.3532
5340.00,1.3474
5339.00,1.3411
5338.00,1.3343
5337.00,1.3270
5336.00,1.3192
5335.00,1.3111
5334.00,1.3027
5333.00,1.2938
5332.00,1.2846
5331.00,1.2750
5330.00,1.2649
5329.00,1.2541
5328.00,1.2428
5327.00,1.2308
5326.00,1.2183
5325.00,1.2053
5324.00,1.1919
5323.00,1.1780
5322.00,1.1638
5321.00,1.1491
5320.00,1.1339
5319.00,1.1184
5318.00,1.1027
5317.00,1.0869
5316.00,1.0709
5315.00,1.0547
5314.00,1.0384
5313.00,1.0220
5312.00,1.0056
5311.00,0.9892
5310.00,0.9729
5309.00,0.9567
5308.00,0.9407
5307.00,0.9249
5306.00,0.9095
5305.00,0.8946
5304.00,0.8802
5303.00,0.8663
5302.00,0.8532
5301.00,0.8407
5300.00,0.8291
5299.00,0.8183
5298.00,0.8084
5297.00,0.7994
5296.00,0.7913
5295.00,0.7841
5294.00,0.7780
5293.00,0.7730
5292.00,0.7691
5291.00,0.7662
5290.00,0.7645
5289.00,0.7639
5288.00,0.7644
5287.00,0.7659
5286.00,0.7684
5285.00,0.7720
5284.00,0.7766
5283.00,0.7821
5282.00,0.7884
5281.00,0.7956
5280.00,0.8036
5279.00,0.8125
5278.00,0.8220
5277.00,0.8323
5276.00,0.8431
5275.00,0.8545
5274.00,0.8664
5273.00,0.8789
5272.00,0.8916
5271.00,0.9046
5270.00,0.9176
5269.00,0.9309
5268.00,0.9445
5267.00,0.9583
5266.00,0.9725
5265.00,0.9869
5264.00,1.0015
5263.00,1.0162
5262.00,1.0308
5261.00,1.0455
5260.00,1.0600
5259.00,1.0744
5258.00,1.0886
5257.00,1.1027
5256.00,1.1167
5255.00,1.1307
5254.00,1.1446
5253.00,1.1583
5252.00,1.1718
5251.00,1.1850
5250.00,1.1979
5249.00,1.2106
5248.00,1.2232
5247.00,1.2355
5246.00,1.2473
5245.00,1.2586
5244.00,1.2694
5243.00,1.2798
5242.00,1.2898
5241.00,1.2994
5240.00,1.3087
5239.00,1.3177
5238.00,1.3264
5237.00,1.3348
5236.00,1.3425
5235.00,1.3498
5234.00,1.3565
5233.00,1.3629
5232.00,1.3689
5231.00,1.3745
5230.00,1.3797
5229.00,1.3843
5228.00,1.3881
5227.00,1.3914
5226.00,1.3942
5225.00,1.3967
5224.00,1.3988
5223.00,1.4004
5222.00,1.4017
5221.00,1.4026
5220.00,1.4032
5219.00,1.4032
5218.00,1.4025
5217.00,1.4013
5216.00,1.3997
5215.00,1.3977
5214.00,1.3954
5213.00,1.3929
5212.00,1.3900
5211.00,1.3865
5210.00,1.3820
5209.00,1.3767
5208.00,1.3709
5207.00,1.3646
5206.00,1.3581
5205.00,1.3510
5204.00,1.3435
5203.00,1.3355
5202.00,1.3270
5201.00,1.3180
5200.00,1.3088
5199.00,1.2993
5198.00,1.2892
5197.00,1.2784
5196.00,1.2668
5195.00,1.2546
5194.00,1.2419
5193.00,1.2288
5192.00,1.2154
5191.00,1.2016
5190.00,1.1874
5189.00,1.1728
5188.00,1.1578
5187.00,1.1424
5186.00,1.1266
5185.00,1.1104
5184.00,1.0938
5183.00,1.0770
5182.00,1.0601
5181.00,1.0430
5180.00,1.0258
5179.00,1.0086
5178.00,0.9915
5177.00,0.9746
5176.00,0.9581
5175.00,0.9418
5174.00,0.9259
5173.00,0.9103
5172.00,0.8952
5171.00,0.8805
5170.00,0.8665
5169.00,0.8532
5168.00,0.8407
5167.00,0.8291
5166.00,0.8183
5165.00,0.8086
5164.00,0.7998
5163.00,0.7921
5162.00,0.7855
5161.00,0.7800
5160.00,0.7757
5159.00,0.7726
5158.00,0.7706
5157.00,0.7698
5156.00,0.7702
5155.00,0.7719
5154.00,0.7747
5153.00,0.7786
5152.00,0.7836
5151.00,0.7896
5150.00,0.7964
5149.00,0.8041
5148.00,0.8127
5147.00,0.8221
5146.00,0.8324
5145.00,0.8435
5144.00,0.8552
5143.00,0.8673
5142.00,0.8799
5141.00,0.8929
5140.00,0.9063
5139.00,0.9202
5138.00,0.9345
5137.00,0.9491
5136.00,0.9639
5135.00,0.9789
5134.00,0.9940
5133.00,1.0092
5132.00,1.0244
5131.00,1.0395
5130.00,1.0547
5129.00,1.0698
5128.00,1.0850
5127.00,1.1001
5126.00,1.1152
5125.00,1.1303
5124.00,1.1451
5123.00,1.1597
5122.00,1.1740
5121.00,1.1882
5120.00,1.2022
5119.00,1.2160
5118.00,1.2296
5117.00,1.2427
5116.00,1.2555
5115.00,1.2678
5114.00,1.2798
5113.00,1.2915
5112.00,1.3027
5111.00,1.3135
5110.00,1.3238
5109.00,1.3337
5108.00,1.3429
5107.00,1.3516
5106.00,1.3597
5105.00,1.3674
5104.00,1.3748
5103.00,1.3821
5102.00,1.3891
5101.00,1.3958
5100.00,1.4018
5099.00,1.4071
5098.00,1.4118
5097.00,1.4160
5096.00,1.4197
5095.00,1.4229
5094.00,1.4256
5093.00,1.4276
5092.00,1.4292
5091.00,1.4303
5090.00,1.4313
5089.00,1.4322
5088.00,1.4328
5087.00,1.4328
5086.00,1.4321
5085.00,1.4305
5084.00,1.4281
5083.00,1.4253
5082.00,1.4222
5081.00,1.4188
5080.00,1.4148
5079.00,1.4104
5078.00,1.4057
5077.00,1.4006
5076.00,1.3951
5075.00,1.3891
5074.00,1.3826
5073.00,1.3754
5072.00,1.3676
5071.00,1.3592
5070.00,1.3503
5069.00,1.3407
5068.00,1.3306
5067.00,1.3200
5066.00,1.3090
5065.00,1.2975
5064.00,1.2856
5063.00,1.2729
5062.00,1.2597
5061.00,1.2461
5060.00,1.2320
5059.00,1.2175
5058.00,1.2025
5057.00,1.1871
5056.00,1.1710
5055.00,1.1543
5054.00,1.1372
5053.00,1.1201
5052.00,1.1027
5051.00,1.0853
5050.00,1.0677
5049.00,1.0499
5048.00,1.0319
5047.00,1.0138
5046.00,0.9957
5045.00,0.9778
5044.00,0.9601
5043.00,0.9427
5042.00,0.9257
5041.00,0.9092
5040.00,0.8932
5039.00,0.8776
5038.00,0.8626
5037.00,0.8484
5036.00,0.8350
5035.00,0.8226
5034.00,0.8112
5033.00,0.8008
5032.00,0.7916
5031.00,0.7835
5030.00,0.7765
5029.00,0.7708
5028.00,0.7663
5027.00,0.7629
5026.00,0.7607
5025.00,0.7598
5024.00,0.7602
5023.00,0.7619
5022.00,0.7648
5021.00,0.7690
5020.00,0.7743
5019.00,0.7807
5018.00,0.7881
5017.00,0.7966
5016.00,0.8060
5015.00,0.8163
5014.00,0.8275
5013.00,0.8393
5012.00,0.8517
5011.00,0.8647
5010.00,0.8781
5009.00,0.8919
5008.00,0.9062
5007.00,0.9209
5006.00,0.9360
5005.00,0.9514
5004.00,0.9670
5003.00,0.9828
5002.00,0.9986
5001.00,1.0146
5000.00,1.0307
4999.00,1.0467
4998.00,1.0627
4997.00,1.0787
4996.00,1.0946
4995.00,1.1104
4994.00,1.1261
4993.00,1.1418
4992.00,1.1574
4991.00,1.1728
4990.00,1.1878
4989.00,1.2027
4988.00,1.2173
4987.00,1.2317
4986.00,1.2459
4985.00,1.2597
4984.00,1.2731
4983.00,1.2860
4982.00,1.2985
4981.00,1.3104
4980.00,1.3218
4979.00,1.3328
4978.00,1.3436
4977.00,1.3540
4976.00,1.3641
4975.00,1.3735
4974.00,1.3823
4973.00,1.3904
4972.00,1.3978
4971.00,1.4049
4970.00,1.4117
4969.00,1.4185
4968.00,1.4248
4967.00,1.4305
4966.00,1.4354
4965.00,1.4395
4964.00,1.4432
4963.00,1.4466
4962.00,1.4498
4961.00,1.4526
4960.00,1.4550
4959.00,1.4566
4958.00,1.4576
4957.00,1.4580
4956.00,1.4579
4955.00,1.4572
4954.00,1.4559
4953.00,1.4540
4952.00,1.4519
4951.00,1.4497
4950.00,1.4471
4949.00,1.4441
4948.00,1.4403
4947.00,1.4358
4946.00,1.4307
4945.00,1.4251
4944.00,1.4193
4943.00,1.4133
4942.00,1.4068
4941.00,1.3996
4940.00,1.3917
4939.00,1.3832
4938.00,1.3741
4937.00,1.3643
4936.00,1.3538
4935.00,1.3427
4934.00,1.3312
4933.00,1.3194
4932.00,1.3072
4931.00,1.2947
4930.00,1.2816
4929.00,1.2679
4928.00,1.2535
4927.00,1.2383
4926.00,1.2226
4925.00,1.2063
4924.00,1.1896
4923.00,1.1725
4922.00,1.1549
4921.00,1.1372
4920.00,1.1191
4919.00,1.1006
4918.00,1.0819
4917.00,1.0630
4916.00,1.0439
4915.00,1.0248
4914.00,1.0057
4913.00,0.9868
4912.00,0.9682
4911.00,0.9501
4910.00,0.9324
4909.00,0.9153
4908.00,0.8986
4907.00,0.8824
4906.00,0.8670
4905.00,0.8523
4904.00,0.8386
4903.00,0.8258
4902.00,0.8141
4901.00,0.8034
4900.00,0.7939
4899.00,0.7857
4898.00,0.7788
4897.00,0.7733
4896.00,0.7691
4895.00,0.7663
4894.00,0.7648
4893.00,0.7647
4892.00,0.7661
4891.00,0.7688
4890.00,0.7728
4889.00,0.7780
4888.00,0.7845
4887.00,0.7922
4886.00,0.8009
4885.00,0.8107
4884.00,0.8214
4883.00,0.8328
4882.00,0.8449
4881.00,0.8577
4880.00,0.8711
4879.00,0.8850
4878.00,0.8996
4877.00,0.9147
4876.00,0.9303
4875.00,0.9461
4874.00,0.9622
4873.00,0.9784
4872.00,0.9948
4871.00,1.0113
4870.00,1.0281
4869.00,1.0450
4868.00,1.0621
4867.00,1.0792
4866.00,1.0962
4865.00,1.1131
4864.00,1.1298
4863.00,1.1464
4862.00,1.1628
4861.00,1.1791
4860.00,1.1952
4859.00,1.2111
4858.00,1.2267
4857.00,1.2419
4856.00,1.2568
4855.00,1.2713
4854.00,1.2853
4853.00,1.2990
4852.00,1.3123
4851.00,1.3252
4850.00,1.3377
4849.00,1.3498
4848.00,1.3614
4847.00,1.3726
4846.00,1.3832
4845.00,1.3935
4844.00,1.4032
4843.00,1.4125
4842.00,1.4212
4841.00,1.4293
4840.00,1.4367
4839.00,1.4435
4838.00,1.4499
4837.00,1.4559
4836.00,1.4614
4835.00,1.4663
4834.00,1.4708
4833.00,1.4748
4832.00,1.4785
4831.00,1.4819
4830.00,1.4847
4829.00,1.4868
4828.00,1.4882
4827.00,1.4890
4826.00,1.4894
4825.00,1.4896
4824.00,1.4894
4823.00,1.4885
4822.00,1.4868
4821.00,1.4846
4820.00,1.4818
4819.00,1.4788
4818.00,1.4754
4817.00,1.4716
4816.00,1.4674
4815.00,1.4629
4814.00,1.4578
4813.00,1.4522
4812.00,1.4459
4811.00,1.4389
4810.00,1.4312
4809.00,1.4230
4808.00,1.4144
4807.00,1.4054
4806.00,1.3958
4805.00,1.3856
4804.00,1.3749
4803.00,1.3636
4802.00,1.3518
4801.00,1.3394
4800.00,1.3264
4799.00,1.3129
4798.00,1.2989
4797.00,1.2841
4796.00,1.2688
4795.00,1.2529
4794.00,1.2364
4793.00,1.2194
4792.00,1.2018
4791.00,1.1838
4790.00,1.1653
4789.00,1.1465
4788.00,1.1273
4787.00,1.1078
4786.00,1.0880
4785.00,1.0680
4784.00,1.0480
4783.00,1.0279
4782.00,1.0080
4781.00,0.9883
4780.00,0.9689
4779.00,0.9498
4778.00,0.9311
4777.00,0.9129
4776.00,0.8952
4775.00,0.8781
4774.00,0.8619
4773.00,0.8467
4772.00,0.8325
4771.00,0.8194
4770.00,0.8075
4769.00,0.7968
4768.00,0.7874
4767.00,0.7794
4766.00,0.7728
4765.00,0.7677
4764.00,0.7641
4763.00,0.7620
4762.00,0.7614
4761.00,0.7623
4760.00,0.7647
4759.00,0.7685
4758.00,0.7737
4757.00,0.7801
4756.00,0.7877
4755.00,0.7965
4754.00,0.8064
4753.00,0.8174
4752.00,0.8292
4751.00,0.8420
4750.00,0.8555
4749.00,0.8697
4748.00,0.8846
4747.00,0.9000
4746.00,0.9159
4745.00,0.9322
4744.00,0.9489
4743.00,0.9658
4742.00,0.9830
4741.00,1.0004
4740.00,1.0180
4739.00,1.0358
4738.00,1.0537
4737.00,1.0717
4736.00,1.0896
4735.00,1.1074
4734.00,1.1251
4733.00,1.1426
4732.00,1.1601
4731.00,1.1775
4730.00,1.1948
4729.00,1.2117
4728.00,1.2283
4727.00,1.2446
4726.00,1.2606
4725.00,1.2762
4724.00,1.2915
4723.00,1.3066
4722.00,1.3213
4721.00,1.3356
4720.00,1.3494
4719.00,1.3625
4718.00,1.3752
4717.00,1.3874
4716.00,1.3991
4715.00,1.4104
4714.00,1.4210
4713.00,1.4309
4712.00,1.4403
4711.00,1.4493
4710.00,1.4579
4709.00,1.4663
4708.00,1.4741
4707.00,1.4810
4706.00,1.4873
4705.00,1.4928
4704.00,1.4979
4703.00,1.5026
4702.00,1.5070
4701.00,1.5110
4700.00,1.5145
4699.00,1.5174
4698.00,1.5196
4697.00,1.5212
4696.00,1.5223
4695.00,1.5232
4694.00,1.5238
4693.00,1.5242
4692.00,1.5240
4691.00,1.5231
4690.00,1.5217
4689.00,1.5197
4688.00,1.5174
4687.00,1.5148
4686.00,1.5118
4685.00,1.5082
4684.00,1.5039
4683.00,1.4989
4682.00,1.4932
4681.00,1.4870
4680.00,1.4804
4679.00,1.4735
4678.00,1.4663
4677.00,1.4586
4676.00,1.4502
4675.00,1.4411
4674.00,1.4312
4673.00,1.4208
4672.00,1.4100
4671.00,1.3988
4670.00,1.3871
4669.00,1.3749
4668.00,1.3621
4667.00,1.3488
4666.00,1.3347
4665.00,1.3200
4664.00,1.3044
4663.00,1.2881
4662.00,1.2713
4661.00,1.2540
4660.00,1.2362
4659.00,1.2180
4658.00,1.1992
4657.00,1.1799
4656.00,1.1600
4655.00,1.1398
4654.00,1.1192
4653.00,1.0986
4652.00,1.0778
4651.00,1.0570
4650.00,1.0361
4649.00,1.0154
4648.00,0.9949
4647.00,0.9747
4646.00,0.9549
4645.00,0.9357
4644.00,0.9171
4643.00,0.8992
4642.00,0.8822
4641.00,0.8661
4640.00,0.8511
4639.00,0.8373
4638.00,0.8247
4637.00,0.8135
4636.00,0.8038
4635.00,0.7955
4634.00,0.7888
4633.00,0.7837
4632.00,0.7801
4631.00,0.7782
4630.00,0.7779
4629.00,0.7791
4628.00,0.7820
4627.00,0.7863
4626.00,0.7921
4625.00,0.7992
4624.00,0.8077
4623.00,0.8174
4622.00,0.8282
4621.00,0.8401
4620.00,0.8530
4619.00,0.8667
4618.00,0.8812
4617.00,0.8964
4616.00,0.9122
4615.00,0.9285
4614.00,0.9452
4613.00,0.9624
4612.00,0.9799
4611.00,0.9977
4610.00,1.0157
4609.00,1.0338
4608.00,1.0521
4607.00,1.0704
4606.00,1.0888
4605.00,1.1072
4604.00,1.1257
4603.00,1.1440
4602.00,1.1623
4601.00,1.1804
4600.00,1.1983
4599.00,1.2161
4598.00,1.2336
4597.00,1.2508
4596.00,1.2676
4595.00,1.2841
4594.00,1.3002
4593.00,1.3159
4592.00,1.3315
4591.00,1.3467
4590.00,1.3615
4589.00,1.3758
4588.00,1.3895
4587.00,1.4026
4586.00,1.4151
4585.00,1.4270
4584.00,1.4384
4583.00,1.4492
4582.00,1.4596
4581.00,1.4695
4580.00,1.4790
4579.00,1.4882
4578.00,1.4968
4577.00,1.5048
4576.00,1.5121
4575.00,1.5186
4574.00,1.5244
4573.00,1.5297
4572.00,1.5346
4571.00,1.5392
4570.00,1.5435
4569.00,1.5474
4568.00,1.5507
4567.00,1.5533
4566.00,1.5552
4565.00,1.5566
4564.00,1.5576
4563.00,1.5582
4562.00,1.5583
4561.00,1.5579
4560.00,1.5568
4559.00,1.5552
4558.00,1.5530
4557.00,1.5506
4556.00,1.5478
4555.00,1.5447
4554.00,1.5409
4553.00,1.5365
4552.00,1.5314
4551.00,1.5258
4550.00,1.5196
4549.00,1.5131
4548.00,1.5060
4547.00,1.4983
4546.00,1.4899
4545.00,1.4811
4544.00,1.4718
4543.00,1.4620
4542.00,1.4517
4541.00,1.4409
4540.00,1.4295
4539.00,1.4173
4538.00,1.4043
4537.00,1.3906
4536.00,1.3764
4535.00,1.3617
4534.00,1.3463
4533.00,1.3303
4532.00,1.3135
4531.00,1.2961
4530.00,1.2780
4529.00,1.2594
4528.00,1.2402
4527.00,1.2204
4526.00,1.2000
4525.00,1.1791
4524.00,1.1580
4523.00,1.1365
4522.00,1.1147
4521.00,1.0926
4520.00,1.0704
4519.00,1.0483
4518.00,1.0263
4517.00,1.0046
4516.00,0.9833
4515.00,0.9625
4514.00,0.9421
4513.00,0.9224
4512.00,0.9034
4511.00,0.8853
4510.00,0.8681
4509.00,0.8522
4508.00,0.8375
4507.00,0.8242
4506.00,0.8123
4505.00,0.8019
4504.00,0.7931
4503.00,0.7858
4502.00,0.7802
4501.00,0.7763
4500.00,0.7741
4499.00,0.7736
4498.00,0.7749
4497.00,0.7779
4496.00,0.7826
4495.00,0.7889
4494.00,0.7968
4493.00,0.8060
4492.00,0.8165
4491.00,0.8282
4490.00,0.8410
4489.00,0.8547
4488.00,0.8694
4487.00,0.8850
4486.00,0.9013
4485.00,0.9182
4484.00,0.9357
4483.00,0.9536
4482.00,0.9720
4481.00,0.9907
4480.00,1.0097
4479.00,1.0289
4478.00,1.0483
4477.00,1.0678
4476.00,1.0874
4475.00,1.1070
4474.00,1.1266
4473.00,1.1464
4472.00,1.1661
4471.00,1.1857
4470.00,1.2050
4469.00,1.2240
4468.00,1.2428
4467.00,1.2614
4466.00,1.2797
4465.00,1.2977
4464.00,1.3153
4463.00,1.3325
4462.00,1.3493
4461.00,1.3655
4460.00,1.3813
4459.00,1.3966
4458.00,1.4113
4457.00,1.4255
4456.00,1.4390
4455.00,1.4519
4454.00,1.4642
4453.00,1.4762
4452.00,1.4877
4451.00,1.4987
4450.00,1.5091
4449.00,1.5189
4448.00,1.5281
4447.00,1.5366
4446.00,1.5445
4445.00,1.5516
4444.00,1.5582
4443.00,1.5645
4442.00,1.5704
4441.00,1.5760
4440.00,1.5810
4439.00,1.5852
4438.00,1.5888
4437.00,1.5920
4436.00,1.5948
4435.00,1.5972
4434.00,1.5989
4433.00,1.6000
4432.00,1.6004
4431.00,1.6004
4430.00,1.5999
4429.00,1.5990
4428.00,1.5976
4427.00,1.5958
4426.00,1.5936
4425.00,1.5908
4424.00,1.5874
4423.00,1.5834
4422.00,1.5788
4421.00,1.5737
4420.00,1.5682
4419.00,1.5622
4418.00,1.5557
4417.00,1.5486
4416.00,1.5409
4415.00,1.5326
4414.00,1.5237
4413.00,1.5142
4412.00,1.5042
4411.00,1.4938
4410.00,1.4830
4409.00,1.4717
4408.00,1.4597
4407.00,1.4469
4406.00,1.4333
4405.00,1.4190
4404.00,1.4043
4403.00,1.3892
4402.00,1.3735
4401.00,1.3573
4400.00,1.3404
4399.00,1.3230
4398.00,1.3051
4397.00,1.2867
4396.00,1.2678
4395.00,1.2486
4394.00,1.2291
4393.00,1.2093
4392.00,1.1894
4391.00,1.1693
4390.00,1.1491
4389.00,1.1290
4388.00,1.1090
4387.00,1.0893
4386.00,1.0700
4385.00,1.0511
4384.00,1.0326
4383.00,1.0148
4382.00,0.9976
4381.00,0.9814
4380.00,0.9662
4379.00,0.9520
4378.00,0.9389
4377.00,0.9269
4376.00,0.9162
4375.00,0.9067
4374.00,0.8985
4373.00,0.8915
4372.00,0.8858
4371.00,0.8813
4370.00,0.8783
4369.00,0.8766
4368.00,0.8762
4367.00,0.8771
4366.00,0.8792
4365.00,0.8826
4364.00,0.8871
4363.00,0.8928
4362.00,0.8997
4361.00,0.9078
4360.00,0.9169
4359.00,0.9271
4358.00,0.9381
4357.00,0.9501
4356.00,0.9628
4355.00,0.9763
4354.00,0.9906
4353.00,1.0057
4352.00,1.0214
4351.00,1.0377
4350.00,1.0543
4349.00,1.0714
4348.00,1.0888
4347.00,1.1064
4346.00,1.1243
4345.00,1.1423
4344.00,1.1604
4343.00,1.1783
4342.00,1.1963
4341.00,1.2143
4340.00,1.2323
4339.00,1.2504
4338.00,1.2684
4337.00,1.2863
4336.00,1.3041
4335.00,1.3215
4334.00,1.3388
4333.00,1.3559
4332.00,1.3728
4331.00,1.3894
4330.00,1.4056
4329.00,1.4212
4328.00,1.4362
4327.00,1.4509
4326.00,1.4652
4325.00,1.4791
4324.00,1.4924
4323.00,1.5050
4322.00,1.5172
4321.00,1.5288
4320.00,1.5400
4319.00,1.5508
4318.00,1.5610
4317.00,1.5707
4316.00,1.5796
4315.00,1.5878
4314.00,1.5953
4313.00,1.6021
4312.00,1.6086
4311.00,1.6149
4310.00,1.6209
4309.00,1.6263
4308.00,1.6310
4307.00,1.6348
4306.00,1.6378
4305.00,1.6404
4304.00,1.6427
4303.00,1.6449
4302.00,1.6467
4301.00,1.6480
4300.00,1.6485
4299.00,1.6481
4298.00,1.6472
4297.00,1.6462
4296.00,1.6449
4295.00,1.6433
4294.00,1.6410
4293.00,1.6381
4292.00,1.6347
4291.00,1.6308
4290.00,1.6265
4289.00,1.6215
4288.00,1.6159
4287.00,1.6098
4286.00,1.6034
4285.00,1.5967
4284.00,1.5896
4283.00,1.5819
4282.00,1.5737
4281.00,1.5648
4280.00,1.5553
4279.00,1.5453
4278.00,1.5347
4277.00,1.5234
4276.00,1.5115
4275.00,1.4989
4274.00,1.4856
4273.00,1.4718
4272.00,1.4574
4271.00,1.4425
4270.00,1.4270
4269.00,1.4109
4268.00,1.3942
4267.00,1.3767
4266.00,1.3585
4265.00,1.3396
4264.00,1.3200
4263.00,1.2998
4262.00,1.2793
4261.00,1.2583
4260.00,1.2368
4259.00,1.2149
4258.00,1.1925
4257.00,1.1699
4256.00,1.1469
4255.00,1.1239
4254.00,1.1009
4253.00,1.0780
4252.00,1.0555
4251.00,1.0334
4250.00,1.0119
4249.00,0.9909
4248.00,0.9708
4247.00,0.9516
4246.00,0.9336
4245.00,0.9169
4244.00,0.9016
4243.00,0.8877
4242.00,0.8755
4241.00,0.8649
4240.00,0.8562
4239.00,0.8494
4238.00,0.8445
4237.00,0.8417
4236.00,0.8409
4235.00,0.8419
4234.00,0.8448
4233.00,0.8496
4232.00,0.8562
4231.00,0.8645
4230.00,0.8744
4229.00,0.8857
4228.00,0.8983
4227.00,0.9121
4226.00,0.9270
4225.00,0.9428
4224.00,0.9595
4223.00,0.9769
4222.00,0.9948
4221.00,1.0133
4220.00,1.0323
4219.00,1.0515
4218.00,1.0711
4217.00,1.0907
4216.00,1.1105
4215.00,1.1304
4214.00,1.1505
4213.00,1.1706
4212.00,1.1909
4211.00,1.2112
4210.00,1.2314
4209.00,1.2517
4208.00,1.2718
4207.00,1.2919
4206.00,1.3116
4205.00,1.3309
4204.00,1.3497
4203.00,1.3680
4202.00,1.3861
4201.00,1.4040
4200.00,1.4215
4199.00,1.4387
4198.00,1.4553
4197.00,1.4713
4196.00,1.4868
4195.00,1.5017
4194.00,1.5161
4193.00,1.5300
4192.00,1.5436
4191.00,1.5567
4190.00,1.5692
4189.00,1.5807
4188.00,1.5914
4187.00,1.6012
4186.00,1.6105
4185.00,1.6195
4184.00,1.6282
4183.00,1.6367
4182.00,1.6447
4181.00,1.6520
4180.00,1.6585
4179.00,1.6641
4178.00,1.6690
4177.00,1.6735
4176.00,1.6778
4175.00,1.6819
4174.00,1.6855
4173.00,1.6885
4172.00,1.6909
4171.00,1.6929
4170.00,1.6944
4169.00,1.6955
4168.00,1.6959
4167.00,1.6955
4166.00,1.6946
4165.00,1.6930
4164.00,1.6911
4163.00,1.6889
4162.00,1.6865
4161.00,1.6840
4160.00,1.6812
4159.00,1.6777
4158.00,1.6733
4157.00,1.6679
4156.00,1.6617
4155.00,1.6551
4154.00,1.6483
4153.00,1.6414
4152.00,1.6339
4151.00,1.6257
4150.00,1.6168
4149.00,1.6072
4148.00,1.5971
4147.00,1.5866
4146.00,1.5757
4145.00,1.5641
4144.00,1.5516
4143.00,1.5382
4142.00,1.5241
4141.00,1.5094
4140.00,1.4943
4139.00,1.4785
4138.00,1.4620
4137.00,1.4448
4136.00,1.4269
4135.00,1.4083
4134.00,1.3891
4133.00,1.3691
4132.00,1.3485
4131.00,1.3272
4130.00,1.3053
4129.00,1.2829
4128.00,1.2598
4127.00,1.2363
4126.00,1.2124
4125.00,1.1883
4124.00,1.1642
4123.00,1.1401
4122.00,1.1161
4121.00,1.0922
4120.00,1.0687
4119.00,1.0457
4118.00,1.0233
4117.00,1.0017
4116.00,0.9811
4115.00,0.9616
4114.00,0.9434
4113.00,0.9267
4112.00,0.9116
4111.00,0.8980
4110.00,0.8863
4109.00,0.8764
4108.00,0.8684
4107.00,0.8624
4106.00,0.8584
4105.00,0.8564
4104.00,0.8565
4103.00,0.8585
4102.00,0.8625
4101.00,0.8684
4100.00,0.8761
4099.00,0.8855
4098.00,0.8964
4097.00,0.9089
4096.00,0.9227
4095.00,0.9378
4094.00,0.9540
4093.00,0.9711
4092.00,0.9890
4091.00,1.0077
4090.00,1.0271
4089.00,1.0472
4088.00,1.0677
4087.00,1.0886
4086.00,1.1097
4085.00,1.1311
4084.00,1.1526
4083.00,1.1743
4082.00,1.1960
4081.00,1.2178
4080.00,1.2394
4079.00,1.2608
4078.00,1.2821
4077.00,1.3030
4076.00,1.3237
4075.00,1.3442
4074.00,1.3645
4073.00,1.3846
4072.00,1.4045
4071.00,1.4239
4070.00,1.4429
4069.00,1.4615
4068.00,1.4794
4067.00,1.4967
4066.00,1.5133
4065.00,1.5293
4064.00,1.5448
4063.00,1.5598
4062.00,1.5742
4061.00,1.5880
4060.00,1.6011
4059.00,1.6135
4058.00,1.6252
4057.00,1.6362
4056.00,1.6465
4055.00,1.6563
4054.00,1.6655
4053.00,1.6743
4052.00,1.6826
4051.00,1.6903
4050.00,1.6974
4049.00,1.7039
4048.00,1.7099
4047.00,1.7155
4046.00,1.7207
4045.00,1.7256
4044.00,1.7300
4043.00,1.7337
4042.00,1.7366
4041.00,1.7385
4040.00,1.7396
4039.00,1.7400
4038.00,1.7400
4037.00,1.7399
4036.00,1.7397
4035.00,1.7392
4034.00,1.7380
4033.00,1.7359
4032.00,1.7332
4031.00,1.7301
4030.00,1.7268
4029.00,1.7231
4028.00,1.7187
4027.00,1.7136
4026.00,1.7079
4025.00,1.7018
4024.00,1.6953
4023.00,1.6884
4022.00,1.6808
4021.00,1.6725
4020.00,1.6634
4019.00,1.6537
4018.00,1.6436
4017.00,1.6329
4016.00,1.6216
4015.00,1.6095
4014.00,1.5969
4013.00,1.5838
4012.00,1.5703
4011.00,1.5561
4010.00,1.5411
4009.00,1.5253
4008.00,1.5088
4007.00,1.4916
4006.00,1.4737
4005.00,1.4550
4004.00,1.4356
4003.00,1.4156
4002.00,1.3949
4001.00,1.3734
4000.00,1.3512
3999.00,1.3284
3998.00,1.3049
3997.00,1.2809
3996.00,1.2563
3995.00,1.2311
3994.00,1.2056
3993.00,1.1798
3992.00,1.1541
3991.00,1.1284
3990.00,1.1030
3989.00,1.0779
3988.00,1.0535
3987.00,1.0299
3986.00,1.0072
3985.00,0.9856
3984.00,0.9652
3983.00,0.9463
3982.00,0.9290
3981.00,0.9136
3980.00,0.9001
3979.00,0.8886
3978.00,0.8793
3977.00,0.8721
3976.00,0.8672
3975.00,0.8645
3974.00,0.8640
3973.00,0.8657
3972.00,0.8695
3971.00,0.8754
3970.00,0.8833
3969.00,0.8932
3968.00,0.9048
3967.00,0.9180
3966.00,0.9327
3965.00,0.9487
3964.00,0.9659
3963.00,0.9842
3962.00,1.0036
3961.00,1.0238
3960.00,1.0446
3959.00,1.0660
3958.00,1.0877
3957.00,1.1098
3956.00,1.1323
3955.00,1.1550
3954.00,1.1777
3953.00,1.2003
3952.00,1.2227
3951.00,1.2449
3950.00,1.2671
3949.00,1.2894
3948.00,1.3116
3947.00,1.3335
3946.00,1.3550
3945.00,1.3760
3944.00,1.3968
3943.00,1.4173
3942.00,1.4377
3941.00,1.4579
3940.00,1.4778
3939.00,1.4971
3938.00,1.5157
3937.00,1.5334
3936.00,1.5502
3935.00,1.5662
3934.00,1.5815
3933.00,1.5965
3932.00,1.6113
3931.00,1.6260
3930.00,1.6402
3929.00,1.6536
3928.00,1.6661
3927.00,1.6778
3926.00,1.6889
3925.00,1.6994
3924.00,1.7092
3923.00,1.7184
3922.00,1.7267
3921.00,1.7343
3920.00,1.7412
3919.00,1.7479
3918.00,1.7546
3917.00,1.7612
3916.00,1.7674
3915.00,1.7731
3914.00,1.7781
3913.00,1.7823
3912.00,1.7859
3911.00,1.7887
3910.00,1.7906
3909.00,1.7915
3908.00,1.7914
3907.00,1.7907
3906.00,1.7895
3905.00,1.7879
3904.00,1.7858
3903.00,1.7833
3902.00,1.7807
3901.00,1.7784
3900.00,1.7761
3899.00,1.7737
3898.00,1.7708
3897.00,1.7672
3896.00,1.7629
3895.00,1.7577
3894.00,1.7517
3893.00,1.7451
3892.00,1.7379
3891.00,1.7298
3890.00,1.7206
3889.00,1.7107
3888.00,1.7005
3887.00,1.6899
3886.00,1.6786
3885.00,1.6664
3884.00,1.6537
3883.00,1.6409
3882.00,1.6276
3881.00,1.6135
3880.00,1.5983
3879.00,1.5823
3878.00,1.5658
3877.00,1.5489
3876.00,1.5311
3875.00,1.5117
3874.00,1.4905
3873.00,1.4683
3872.00,1.4458
3871.00,1.4226
3870.00,1.3979
3869.00,1.3716
3868.00,1.3452
3867.00,1.3194
3866.00,1.2935
3865.00,1.2667
3864.00,1.2389
3863.00,1.2107
3862.00,1.1823
3861.00,1.1539
3860.00,1.1256
3859.00,1.0973
3858.00,1.0690
3857.00,1.0410
3856.00,1.0141
3855.00,0.9888
3854.00,0.9642
3853.00,0.9393
3852.00,0.9159
3851.00,0.8964
3850.00,0.8811
3849.00,0.8692
3848.00,0.8600
3847.00,0.8530
3846.00,0.8483
3845.00,0.8455
3844.00,0.8447
3843.00,0.8456
3842.00,0.8481
3841.00,0.8526
3840.00,0.8596
3839.00,0.8699
3838.00,0.8836
3837.00,0.8999
3836.00,0.9180
3835.00,0.9371
3834.00,0.9572
3833.00,0.9787
3832.00,1.0018
3831.00,1.0259
3830.00,1.0503
3829.00,1.0749
3828.00,1.0995
3827.00,1.1243
3826.00,1.1488
3825.00,1.1723
3824.00,1.1950
3823.00,1.2180
3822.00,1.2430
3821.00,1.2699
3820.00,1.2974
3819.00,1.3235
3818.00,1.3480
3817.00,1.3723
3816.00,1.3979
3815.00,1.4251
3814.00,1.4525
3813.00,1.4782
3812.00,1.5010
3811.00,1.5209
3810.00,1.5388
3809.00,1.5560
3808.00,1.5738
3807.00,1.5923
3806.00,1.6107
3805.00,1.6278
3804.00,1.6432
3803.00,1.6578
3802.00,1.6730
3801.00,1.6888
3800.00,1.7048
3799.00,1.7198
3798.00,1.7334
3797.00,1.7458
3796.00,1.7573
3795.00,1.7679
3794.00,1.7778
3793.00,1.7868
3792.00,1.7950
3791.00,1.8026
3790.00,1.8097
3789.00,1.8159
3788.00,1.8213
3787.00,1.8260
3786.00,1.8303
3785.00,1.8341
3784.00,1.8372
3783.00,1.8394
3782.00,1.8410
3781.00,1.8421
3780.00,1.8426
3779.00,1.8426
3778.00,1.8422
3777.00,1.8414
3776.00,1.8401
3775.00,1.8382
3774.00,1.8356
3773.00,1.8324
3772.00,1.8288
3771.00,1.8247
3770.00,1.8201
3769.00,1.8147
3768.00,1.8088
3767.00,1.8029
3766.00,1.7971
3765.00,1.7908
3764.00,1.7838
3763.00,1.7761
3762.00,1.7682
3761.00,1.7601
3760.00,1.7516
3759.00,1.7425
3758.00,1.7327
3757.00,1.7216
3756.00,1.7090
3755.00,1.6954
3754.00,1.6811
3753.00,1.6662
3752.00,1.6508
3751.00,1.6345
3750.00,1.6170
3749.00,1.5982
3748.00,1.5789
3747.00,1.5597
3746.00,1.5406
3745.00,1.5201
3744.00,1.4975
3743.00,1.4739
3742.00,1.4506
3741.00,1.4267
3740.00,1.4008
3739.00,1.3727
3738.00,1.3424
3737.00,1.3101
3736.00,1.2754
3735.00,1.2390
3734.00,1.2023
3733.00,1.1659
3732.00,1.1301
3731.00,1.0954
3730.00,1.0629
3729.00,1.0325
3728.00,1.0040
3727.00,0.9772
3726.00,0.9525
3725.00,0.9305
3724.00,0.9118
3723.00,0.8964
3722.00,0.8844
3721.00,0.8759
3720.00,0.8702
3719.00,0.8663
3718.00,0.8633
3717.00,0.8617
3716.00,0.8630
3715.00,0.8682
3714.00,0.8769
3713.00,0.8881
3712.00,0.9009
3711.00,0.9153
3710.00,0.9316
3709.00,0.9501
3708.00,0.9707
3707.00,0.9932
3706.00,1.0170
3705.00,1.0420
3704.00,1.0683
3703.00,1.0964
3702.00,1.1263
3701.00,1.1578
3700.00,1.1902
3699.00,1.2226
3698.00,1.2546
3697.00,1.2862
3696.00,1.3172
3695.00,1.3474
3694.00,1.3765
3693.00,1.4041
3692.00,1.4308
3691.00,1.4569
3690.00,1.4837
3689.00,1.5119
3688.00,1.5417
3687.00,1.5719
3686.00,1.6005
3685.00,1.6264
3684.00,1.6496
3683.00,1.6707
3682.00,1.6900
3681.00,1.7076
3680.00,1.7234
3679.00,1.7374
3678.00,1.7505
3677.00,1.7640
3676.00,1.7789
3675.00,1.7943
3674.00,1.8090
3673.00,1.8220
3672.00,1.8338
3671.00,1.8453
3670.00,1.8574
3669.00,1.8700
3668.00,1.8822
3667.00,1.8930
3666.00,1.9020
3665.00,1.9097
3664.00,1.9166
3663.00,1.9230
3662.00,1.9288
3661.00,1.9337
3660.00,1.9376
3659.00,1.9408
3658.00,1.9437
3657.00,1.9465
3656.00,1.9489
3655.00,1.9505
3654.00,1.9509
3653.00,1.9505
3652.00,1.9498
3651.00,1.9494
3650.00,1.9494
3649.00,1.9492
3648.00,1.9485
3647.00,1.9473
3646.00,1.9458
3645.00,1.9443
3644.00,1.9428
3643.00,1.9409
3642.00,1.9381
3641.00,1.9339
3640.00,1.9284
3639.00,1.9221
3638.00,1.9152
3637.00,1.9078
3636.00,1.8995
3635.00,1.8903
3634.00,1.8796
3633.00,1.8677
3632.00,1.8551
3631.00,1.8427
3630.00,1.8310
3629.00,1.8193
3628.00,1.8077
3627.00,1.7967
3626.00,1.7867
3625.00,1.7772
3624.00,1.7675
3623.00,1.7576
3622.00,1.7476
3621.00,1.7378
3620.00,1.7281
3619.00,1.7183
3618.00,1.7082
3617.00,1.6971
3616.00,1.6849
3615.00,1.6717
3614.00,1.6585
3613.00,1.6455
3612.00,1.6324
3611.00,1.6185
3610.00,1.6039
3609.00,1.5889
3608.00,1.5741
3607.00,1.5598
3606.00,1.5464
3605.00,1.5341
3604.00,1.5226
3603.00,1.5118
3602.00,1.5015
3601.00,1.4916
3600.00,1.4819
3599.00,1.4730
3598.00,1.4649
3597.00,1.4580
3596.00,1.4523
3595.00,1.4474
3594.00,1.4432
3593.00,1.4395
3592.00,1.4365
3591.00,1.4343
3590.00,1.4335
3589.00,1.4342
3588.00,1.4360
3587.00,1.4389
3586.00,1.4426
3585.00,1.4474
3584.00,1.4533
3583.00,1.4602
3582.00,1.4679
3581.00,1.4763
3580.00,1.4854
3579.00,1.4951
3578.00,1.5054
3577.00,1.5164
3576.00,1.5281
3575.00,1.5404
3574.00,1.5530
3573.00,1.5657
3572.00,1.5783
3571.00,1.5910
3570.00,1.6040
3569.00,1.6177
3568.00,1.6324
3567.00,1.6479
3566.00,1.6639
3565.00,1.6801
3564.00,1.6961
3563.00,1.7118
3562.00,1.7273
3561.00,1.7428
3560.00,1.7582
3559.00,1.7736
3558.00,1.7889
3557.00,1.8038
3556.00,1.8183
3555.00,1.8323
3554.00,1.8460
3553.00,1.8596
3552.00,1.8730
3551.00,1.8862
3550.00,1.8991
3549.00,1.9116
3548.00,1.9238
3547.00,1.9355
3546.00,1.9466
3545.00,1.9572
3544.00,1.9677
3543.00,1.9780
3542.00,1.9879
3541.00,1.9973
3540.00,2.0063
3539.00,2.0150
3538.00,2.0234
3537.00,2.0314
3536.00,2.0389
3535.00,2.0460
3534.00,2.0527
3533.00,2.0589
3532.00,2.0649
3531.00,2.0708
3530.00,2.0767
3529.00,2.0821
3528.00,2.0867
3527.00,2.0904
3526.00,2.0936
3525.00,2.0967
3524.00,2.0994
3523.00,2.1018
3522.00,2.1040
3521.00,2.1061
3520.00,2.1082
3519.00,2.1102
3518.00,2.1121
3517.00,2.1139
3516.00,2.1150
3515.00,2.1154
3514.00,2.1154
3513.00,2.1153
3512.00,2.1150
3511.00,2.1142
3510.00,2.1125
3509.00,2.1101
3508.00,2.1075
3507.00,2.1049
3506.00,2.1026
3505.00,2.1005
3504.00,2.0983
3503.00,2.0953
3502.00,2.0912
3501.00,2.0861
3500.00,2.0804
3499.00,2.0744
3498.00,2.0684
3497.00,2.0623
3496.00,2.0560
3495.00,2.0491
3494.00,2.0418
3493.00,2.0340
3492.00,2.0259
3491.00,2.0176
3490.00,2.0092
3489.00,2.0007
3488.00,1.9918
3487.00,1.9823
3486.00,1.9719
3485.00,1.9611
3484.00,1.9502
3483.00,1.9391
3482.00,1.9276
3481.00,1.9155
3480.00,1.9031
3479.00,1.8907
3478.00,1.8782
3477.00,1.8655
3476.00,1.8527
3475.00,1.8398
3474.00,1.8267
3473.00,1.8132
3472.00,1.7995
3471.00,1.7856
3470.00,1.7719
3469.00,1.7581
3468.00,1.7442
3467.00,1.7302
3466.00,1.7162
3465.00,1.7024
3464.00,1.6891
3463.00,1.6760
3462.00,1.6631
3461.00,1.6507
3460.00,1.6390
3459.00,1.6280
3458.00,1.6177
3457.00,1.6080
3456.00,1.5992
3455.00,1.5911
3454.00,1.5841
3453.00,1.5781
3452.00,1.5731
3451.00,1.5693
3450.00,1.5665
3449.00,1.5649
3448.00,1.5642
3447.00,1.5645
3446.00,1.5658
3445.00,1.5683
3444.00,1.5720
3443.00,1.5768
3442.00,1.5828
3441.00,1.5897
3440.00,1.5975
3439.00,1.6059
3438.00,1.6151
3437.00,1.6251
3436.00,1.6362
3435.00,1.6482
3434.00,1.6609
3433.00,1.6742
3432.00,1.6878
3431.00,1.7018
3430.00,1.7161
3429.00,1.7307
3428.00,1.7457
3427.00,1.7612
3426.00,1.7770
3425.00,1.7929
3424.00,1.8086
3423.00,1.8243
3422.00,1.8401
3421.00,1.8557
3420.00,1.8710
3419.00,1.8860
3418.00,1.9008
3417.00,1.9156
3416.00,1.9300
3415.00,1.9437
3414.00,1.9566
3413.00,1.9687
3412.00,1.9803
3411.00,1.9915
3410.00,2.0021
3409.00,2.0122
3408.00,2.0216
3407.00,2.0305
3406.00,2.0388
3405.00,2.0466
3404.00,2.0536
3403.00,2.0598
3402.00,2.0655
3401.00,2.0708
3400.00,2.0757
3399.00,2.0804
3398.00,2.0848
3397.00,2.0893
3396.00,2.0937
3395.00,2.0979
3394.00,2.1022
3393.00,2.1063
3392.00,2.1103
3391.00,2.1140
3390.00,2.1176
3389.00,2.1211
3388.00,2.1248
3387.00,2.1282
3386.00,2.1312
3385.00,2.1331
3384.00,2.1338
3383.00,2.1334
3382.00,2.1324
3381.00,2.1316
3380.00,2.1313
3379.00,2.1313
3378.00,2.1309
3377.00,2.1299
3376.00,2.1284
3375.00,2.1268
3374.00,2.1251
3373.00,2.1228
3372.00,2.1195
3371.00,2.1152
3370.00,2.1101
3369.00,2.1047
3368.00,2.0992
3367.00,2.0937
3366.00,2.0880
3365.00,2.0819
3364.00,2.0753
3363.00,2.0681
3362.00,2.0605
3361.00,2.0524
3360.00,2.0437
3359.00,2.0343
3358.00,2.0241
3357.00,2.0131
3356.00,2.0013
3355.00,1.9892
3354.00,1.9770
3353.00,1.9647
3352.00,1.9520
3351.00,1.9387
3350.00,1.9245
3349.00,1.9097
3348.00,1.8942
3347.00,1.8782
3346.00,1.8617
3345.00,1.8446
3344.00,1.8269
3343.00,1.8089
3342.00,1.7906
3341.00,1.7722
3340.00,1.7536
3339.00,1.7347
3338.00,1.7154
3337.00,1.6958
3336.00,1.6760
3335.00,1.6562
3334.00,1.6366
3333.00,1.6172
3332.00,1.5981
3331.00,1.5795
3330.00,1.5615
3329.00,1.5442
3328.00,1.5278
3327.00,1.5124
3326.00,1.4980
3325.00,1.4847
3324.00,1.4726
3323.00,1.4618
3322.00,1.4528
3321.00,1.4456
3320.00,1.4402
3319.00,1.4365
3318.00,1.4344
3317.00,1.4338
3316.00,1.4350
3315.00,1.4380
3314.00,1.4428
3313.00,1.4492
3312.00,1.4570
3311.00,1.4661
3310.00,1.4766
3309.00,1.4884
3308.00,1.5015
3307.00,1.5155
3306.00,1.5302
3305.00,1.5457
3304.00,1.5618
3303.00,1.5788
3302.00,1.5966
3301.00,1.6151
3300.00,1.6339
3299.00,1.6529
3298.00,1.6719
3297.00,1.6910
3296.00,1.7099
3295.00,1.7289
3294.00,1.7479
3293.00,1.7669
3292.00,1.7857
3291.00,1.8042
3290.00,1.8223
3289.00,1.8400
3288.00,1.8578
3287.00,1.8755
3286.00,1.8929
3285.00,1.9097
3284.00,1.9256
3283.00,1.9406
3282.00,1.9552
3281.00,1.9697
3280.00,1.9842
3279.00,1.9984
3278.00,2.0117
3277.00,2.0240
3276.00,2.0357
3275.00,2.0471
3274.00,2.0581
3273.00,2.0686
3272.00,2.0784
3271.00,2.0875
3270.00,2.0962
3269.00,2.1046
3268.00,2.1126
3267.00,2.1200
3266.00,2.1266
3265.00,2.1324
3264.00,2.1378
3263.00,2.1429
3262.00,2.1478
3261.00,2.1521
3260.00,2.1558
3259.00,2.1590
3258.00,2.1623
3257.00,2.1657
3256.00,2.1690
3255.00,2.1719
3254.00,2.1740
3253.00,2.1754
3252.00,2.1761
3251.00,2.1762
3250.00,2.1756
3249.00,2.1742
3248.00,2.1721
3247.00,2.1693
3246.00,2.1662
3245.00,2.1632
3244.00,2.1601
3243.00,2.1567
3242.00,2.1529
3241.00,2.1485
3240.00,2.1439
3239.00,2.1391
3238.00,2.1341
3237.00,2.1285
3236.00,2.1219
3235.00,2.1145
3234.00,2.1065
3233.00,2.0983
3232.00,2.0896
3231.00,2.0805
3230.00,2.0707
3229.00,2.0603
3228.00,2.0495
3227.00,2.0386
3226.00,2.0276
3225.00,2.0160
3224.00,2.0036
3223.00,1.9904
3222.00,1.9766
3221.00,1.9625
3220.00,1.9481
3219.00,1.9335
3218.00,1.9188
3217.00,1.9037
3216.00,1.8879
3215.00,1.8712
3214.00,1.8537
3213.00,1.8361
3212.00,1.8185
3211.00,1.8011
3210.00,1.7836
3209.00,1.7660
3208.00,1.7482
3207.00,1.7302
3206.00,1.7125
3205.00,1.6951
3204.00,1.6782
3203.00,1.6618
3202.00,1.6458
3201.00,1.6305
3200.00,1.6160
3199.00,1.6024
3198.00,1.5898
3197.00,1.5784
3196.00,1.5682
3195.00,1.5594
3194.00,1.5521
3193.00,1.5462
3192.00,1.5416
3191.00,1.5386
3190.00,1.5372
3189.00,1.5375
3188.00,1.5394
3187.00,1.5429
3186.00,1.5481
3185.00,1.5547
3184.00,1.5627
3183.00,1.5719
3182.00,1.5821
3181.00,1.5935
3180.00,1.6058
3179.00,1.6192
3178.00,1.6333
3177.00,1.6483
3176.00,1.6639
3175.00,1.6800
3174.00,1.6965
3173.00,1.7134
3172.00,1.7307
3171.00,1.7483
3170.00,1.7662
3169.00,1.7843
3168.00,1.8025
3167.00,1.8208
3166.00,1.8390
3165.00,1.8571
3164.00,1.8748
3163.00,1.8922
3162.00,1.9096
3161.00,1.9270
3160.00,1.9440
3159.00,1.9603
3158.00,1.9756
3157.00,1.9902
3156.00,2.0043
3155.00,2.0182
3154.00,2.0322
3153.00,2.0462
3152.00,2.0599
3151.00,2.0725
3150.00,2.0838
3149.00,2.0942
3148.00,2.1044
3147.00,2.1146
3146.00,2.1245
3145.00,2.1338
3144.00,2.1422
3143.00,2.1498
3142.00,2.1570
3141.00,2.1643
3140.00,2.1722
3139.00,2.1803
3138.00,2.1878
3137.00,2.1939
3136.00,2.1984
3135.00,2.2024
3134.00,2.2066
3133.00,2.2112
3132.00,2.2160
3131.00,2.2206
3130.00,2.2249
3129.00,2.2286
3128.00,2.2310
3127.00,2.2317
3126.00,2.2312
3125.00,2.2306
3124.00,2.2305
3123.00,2.2305
3122.00,2.2304
3121.00,2.2297
3120.00,2.2279
3119.00,2.2252
3118.00,2.2216
3117.00,2.2180
3116.00,2.2146
3115.00,2.2111
3114.00,2.2066
3113.00,2.2006
3112.00,2.1934
3111.00,2.1855
3110.00,2.1779
3109.00,2.1705
3108.00,2.1628
3107.00,2.1541
3106.00,2.1441
3105.00,2.1331
3104.00,2.1217
3103.00,2.1100
3102.00,2.0980
3101.00,2.0854
3100.00,2.0720
3099.00,2.0579
3098.00,2.0432
3097.00,2.0280
3096.00,2.0124
3095.00,1.9963
3094.00,1.9796
3093.00,1.9624
3092.00,1.9447
3091.00,1.9266
3090.00,1.9077
3089.00,1.8881
3088.00,1.8677
3087.00,1.8468
3086.00,1.8260
3085.00,1.8055
3084.00,1.7853
3083.00,1.7654
3082.00,1.7458
3081.00,1.7265
3080.00,1.7077
3079.00,1.6896
3078.00,1.6723
3077.00,1.6564
3076.00,1.6419
3075.00,1.6291
3074.00,1.6179
3073.00,1.6087
3072.00,1.6014
3071.00,1.5963
3070.00,1.5933
3069.00,1.5926
3068.00,1.5942
3067.00,1.5981
3066.00,1.6043
3065.00,1.6125
3064.00,1.6224
3063.00,1.6339
3062.00,1.6470
3061.00,1.6616
3060.00,1.6776
3059.00,1.6947
3058.00,1.7128
3057.00,1.7317
3056.00,1.7513
3055.00,1.7712
3054.00,1.7915
3053.00,1.8121
3052.00,1.8330
3051.00,1.8542
3050.00,1.8756
3049.00,1.8970
3048.00,1.9183
3047.00,1.9396
3046.00,1.9607
3045.00,1.9819
3044.00,2.0029
3043.00,2.0236
3042.00,2.0436
3041.00,2.0628
3040.00,2.0810
3039.00,2.0984
3038.00,2.1153
3037.00,2.1322
3036.00,2.1489
3035.00,2.1653
3034.00,2.1813
3033.00,2.1968
3032.00,2.2117
3031.00,2.2257
3030.00,2.2381
3029.00,2.2487
3028.00,2.2577
3027.00,2.2655
3026.00,2.2731
3025.00,2.2805
3024.00,2.2879
3023.00,2.2949
3022.00,2.3013
3021.00,2.3068
3020.00,2.3110
3019.00,2.3136
3018.00,2.3148
3017.00,2.3151
3016.00,2.3147
3015.00,2.3138
3014.00,2.3121
3013.00,2.3095
3012.00,2.3060
3011.00,2.3017
3010.00,2.2965
3009.00,2.2901
3008.00,2.2821
3007.00,2.2725
3006.00,2.2618
3005.00,2.2503
3004.00,2.2378
3003.00,2.2242
3002.00,2.2096
3001.00,2.1939
3000.00,2.1770
2999.00,2.1585
2998.00,2.1391
2997.00,2.1198
2996.00,2.1013
2995.00,2.0838
2994.00,2.0673
2993.00,2.0522
2992.00,2.0394
2991.00,2.0301
2990.00,2.0254
2989.00,2.0261
2988.00,2.0331
2987.00,2.0469
2986.00,2.0674
2985.00,2.0944
2984.00,2.1275
2983.00,2.1664
2982.00,2.2108
2981.00,2.2601
2980.00,2.3136
2979.00,2.3706
2978.00,2.4305
2977.00,2.4926
2976.00,2.5563
2975.00,2.6217
2974.00,2.6898
2973.00,2.7620
2972.00,2.8385
2971.00,2.9184
2970.00,2.9994
2969.00,3.0789
2968.00,3.1561
2967.00,3.2339
2966.00,3.3174
2965.00,3.4052
2964.00,3.4862
2963.00,3.5497
2962.00,3.5998
2961.00,3.6515
2960.00,3.7105
2959.00,3.7641
2958.00,3.7893
2957.00,3.7807
2956.00,3.7597
2955.00,3.7506
2954.00,3.7576
2953.00,3.7626
2952.00,3.7463
2951.00,3.7176
2950.00,3.7065
2949.00,3.7330
2948.00,3.7921
2947.00,3.8584
2946.00,3.9100
2945.00,3.9550
2944.00,4.0147
2943.00,4.0866
2942.00,4.1338
2941.00,4.1269
2940.00,4.0950
2939.00,4.0935
2938.00,4.1595
2937.00,4.3126
2936.00,4.5419
2935.00,4.7759
2934.00,4.8239
2933.00,4.6428
2932.00,4.4695
2931.00,4.3978
2930.00,4.4330
2929.00,4.4777
2928.00,4.4631
2927.00,4.4591
2926.00,4.4717
2925.00,4.3937
2924.00,4.2294
2923.00,4.0859
2922.00,3.9910
2921.00,3.9212
2920.00,3.8625
2919.00,3.8114
2918.00,3.7613
2917.00,3.6989
2916.00,3.6145
2915.00,3.5188
2914.00,3.4334
2913.00,3.3693
2912.00,3.3229
2911.00,3.2844
2910.00,3.2482
2909.00,3.2141
2908.00,3.1836
2907.00,3.1567
2906.00,3.1322
2905.00,3.1082
2904.00,3.0824
2903.00,3.0536
2902.00,3.0235
2901.00,2.9946
2900.00,2.9669
2899.00,2.9389
2898.00,2.9107
2897.00,2.8846
2896.00,2.8630
2895.00,2.8456
2894.00,2.8302
2893.00,2.8146
2892.00,2.7982
2891.00,2.7815
2890.00,2.7663
2889.00,2.7545
2888.00,2.7469
2887.00,2.7430
2886.00,2.7422
2885.00,2.7445
2884.00,2.7510
2883.00,2.7626
2882.00,2.7798
2881.00,2.8030
2880.00,2.8327
2879.00,2.8690
2878.00,2.9103
2877.00,2.9546
2876.00,3.0009
2875.00,3.0505
2874.00,3.1055
2873.00,3.1669
2872.00,3.2337
2871.00,3.3057
2870.00,3.3848
2869.00,3.4737
2868.00,3.5731
2867.00,3.6790
2866.00,3.7791
2865.00,3.8534
2864.00,3.8851
2863.00,3.8699
2862.00,3.8220
2861.00,3.7606
2860.00,3.6943
2859.00,3.6221
2858.00,3.5422
2857.00,3.4564
2856.00,3.3673
2855.00,3.2763
2854.00,3.1826
2853.00,3.0841
2852.00,2.9817
2851.00,2.8798
2850.00,2.7821
2849.00,2.6898
2848.00,2.6026
2847.00,2.5211
2846.00,2.4464
2845.00,2.3789
2844.00,2.3185
2843.00,2.2650
2842.00,2.2191
2841.00,2.1820
2840.00,2.1542
2839.00,2.1353
2838.00,2.1239
2837.00,2.1191
2836.00,2.1199
2835.00,2.1254
2834.00,2.1345
2833.00,2.1462
2832.00,2.1598
2831.00,2.1747
2830.00,2.1904
2829.00,2.2062
2828.00,2.2211
2827.00,2.2347
2826.00,2.2470
2825.00,2.2586
2824.00,2.2698
2823.00,2.2802
2822.00,2.2899
2821.00,2.2994
2820.00,2.3090
2819.00,2.3187
2818.00,2.3282
2817.00,2.3377
2816.00,2.3475
2815.00,2.3576
2814.00,2.3674
2813.00,2.3764
2812.00,2.3843
2811.00,2.3909
2810.00,2.3960
2809.00,2.3999
2808.00,2.4036
2807.00,2.4077
2806.00,2.4114
2805.00,2.4135
2804.00,2.4139
2803.00,2.4131
2802.00,2.4120
2801.00,2.4106
2800.00,2.4083
2799.00,2.4051
2798.00,2.4014
2797.00,2.3979
2796.00,2.3945
2795.00,2.3902
2794.00,2.3841
2793.00,2.3759
2792.00,2.3659
2791.00,2.3547
2790.00,2.3427
2789.00,2.3299
2788.00,2.3163
2787.00,2.3019
2786.00,2.2866
2785.00,2.2704
2784.00,2.2528
2783.00,2.2337
2782.00,2.2133
2781.00,2.1920
2780.00,2.1702
2779.00,2.1480
2778.00,2.1248
2777.00,2.1003
2776.00,2.0742
2775.00,2.0467
2774.00,2.0179
2773.00,1.9877
2772.00,1.9564
2771.00,1.9239
2770.00,1.8903
2769.00,1.8556
2768.00,1.8202
2767.00,1.7843
2766.00,1.7481
2765.00,1.7118
2764.00,1.6757
2763.00,1.6402
2762.00,1.6058
2761.00,1.5727
2760.00,1.5410
2759.00,1.5108
2758.00,1.4825
2757.00,1.4569
2756.00,1.4346
2755.00,1.4165
2754.00,1.4029
2753.00,1.3944
2752.00,1.3911
2751.00,1.3930
2750.00,1.4000
2749.00,1.4117
2748.00,1.4276
2747.00,1.4473
2746.00,1.4704
2745.00,1.4963
2744.00,1.5246
2743.00,1.5548
2742.00,1.5863
2741.00,1.6190
2740.00,1.6525
2739.00,1.6867
2738.00,1.7212
2737.00,1.7558
2736.00,1.7900
2735.00,1.8239
2734.00,1.8574
2733.00,1.8903
2732.00,1.9224
2731.00,1.9534
2730.00,1.9833
2729.00,2.0122
2728.00,2.0403
2727.00,2.0676
2726.00,2.0940
2725.00,2.1193
2724.00,2.1432
2723.00,2.1656
2722.00,2.1867
2721.00,2.2069
2720.00,2.2265
2719.00,2.2454
2718.00,2.2633
2717.00,2.2798
2716.00,2.2952
2715.00,2.3097
2714.00,2.3235
2713.00,2.3361
2712.00,2.3474
2711.00,2.3576
2710.00,2.3675
2709.00,2.3775
2708.00,2.3875
2707.00,2.3972
2706.00,2.4062
2705.00,2.4141
2704.00,2.4210
2703.00,2.4272
2702.00,2.4330
2701.00,2.4382
2700.00,2.4429
2699.00,2.4469
2698.00,2.4503
2697.00,2.4530
2696.00,2.4549
2695.00,2.4559
2694.00,2.4563
2693.00,2.4562
2692.00,2.4550
2691.00,2.4525
2690.00,2.4493
2689.00,2.4461
2688.00,2.4433
2687.00,2.4405
2686.00,2.4372
2685.00,2.4335
2684.00,2.4294
2683.00,2.4248
2682.00,2.4196
2681.00,2.4139
2680.00,2.4081
2679.00,2.4025
2678.00,2.3967
2677.00,2.3906
2676.00,2.3841
2675.00,2.3772
2674.00,2.3696
2673.00,2.3609
2672.00,2.3510
2671.00,2.3403
2670.00,2.3294
2669.00,2.3183
2668.00,2.3067
2667.00,2.2939
2666.00,2.2795
2665.00,2.2633
2664.00,2.2453
2663.00,2.2257
2662.00,2.2046
2661.00,2.1822
2660.00,2.1586
2659.00,2.1341
2658.00,2.1086
2657.00,2.0826
2656.00,2.0562
2655.00,2.0293
2654.00,2.0018
2653.00,1.9733
2652.00,1.9437
2651.00,1.9135
2650.00,1.8829
2649.00,1.8518
2648.00,1.8199
2647.00,1.7869
2646.00,1.7529
2645.00,1.7180
2644.00,1.6823
2643.00,1.6463
2642.00,1.6104
2641.00,1.5753
2640.00,1.5419
2639.00,1.5106
2638.00,1.4822
2637.00,1.4574
2636.00,1.4367
2635.00,1.4205
2634.00,1.4093
2633.00,1.4033
2632.00,1.4025
2631.00,1.4067
2630.00,1.4158
2629.00,1.4294
2628.00,1.4470
2627.00,1.4681
2626.00,1.4923
2625.00,1.5190
2624.00,1.5478
2623.00,1.5782
2622.00,1.6099
2621.00,1.6424
2620.00,1.6754
2619.00,1.7088
2618.00,1.7423
2617.00,1.7757
2616.00,1.8089
2615.00,1.8415
2614.00,1.8733
2613.00,1.9043
2612.00,1.9346
2611.00,1.9641
2610.00,1.9929
2609.00,2.0207
2608.00,2.0473
2607.00,2.0727
2606.00,2.0972
2605.00,2.1212
2604.00,2.1451
2603.00,2.1687
2602.00,2.1916
2601.00,2.2135
2600.00,2.2344
2599.00,2.2545
2598.00,2.2738
2597.00,2.2923
2596.00,2.3099
2595.00,2.3269
2594.00,2.3434
2593.00,2.3593
2592.00,2.3742
2591.00,2.3882
2590.00,2.4018
2589.00,2.4150
2588.00,2.4272
2587.00,2.4378
2586.00,2.4469
2585.00,2.4551
2584.00,2.4633
2583.00,2.4719
2582.00,2.4808
2581.00,2.4890
2580.00,2.4962
2579.00,2.5021
2578.00,2.5071
2577.00,2.5112
2576.00,2.5145
2575.00,2.5172
2574.00,2.5202
2573.00,2.5237
2572.00,2.5273
2571.00,2.5305
2570.00,2.5333
2569.00,2.5355
2568.00,2.5364
2567.00,2.5355
2566.00,2.5336
2565.00,2.5317
2564.00,2.5307
2563.00,2.5300
2562.00,2.5285
2561.00,2.5256
2560.00,2.5213
2559.00,2.5158
2558.00,2.5099
2557.00,2.5038
2556.00,2.4970
2555.00,2.4893
2554.00,2.4806
2553.00,2.4715
2552.00,2.4625
2551.00,2.4537
2550.00,2.4448
2549.00,2.4355
2548.00,2.4260
2547.00,2.4161
2546.00,2.4053
2545.00,2.3931
2544.00,2.3794
2543.00,2.3644
2542.00,2.3485
2541.00,2.3320
2540.00,2.3147
2539.00,2.2967
2538.00,2.2783
2537.00,2.2593
2536.00,2.2390
2535.00,2.2172
2534.00,2.1940
2533.00,2.1698
2532.00,2.1449
2531.00,2.1189
2530.00,2.0914
2529.00,2.0626
2528.00,2.0326
2527.00,2.0012
2526.00,1.9682
2525.00,1.9332
2524.00,1.8966
2523.00,1.8586
2522.00,1.8194
2521.00,1.7790
2520.00,1.7375
2519.00,1.6952
2518.00,1.6526
2517.00,1.6102
2516.00,1.5684
2515.00,1.5280
2514.00,1.4895
2513.00,1.4539
2512.00,1.4218
2511.00,1.3939
2510.00,1.3707
2509.00,1.3526
2508.00,1.3399
2507.00,1.3329
2506.00,1.3316
2505.00,1.3359
2504.00,1.3456
2503.00,1.3603
2502.00,1.3797
2501.00,1.4032
2500.00,1.4301
2499.00,1.4600
2498.00,1.4922
2497.00,1.5266
2496.00,1.5628
2495.00,1.6005
2494.00,1.6391
2493.00,1.6782
2492.00,1.7175
2491.00,1.7568
2490.00,1.7960
2489.00,1.8351
2488.00,1.8740
2487.00,1.9123
2486.00,1.9499
2485.00,1.9865
2484.00,2.0218
2483.00,2.0554
2482.00,2.0873
2481.00,2.1178
2480.00,2.1475
2479.00,2.1764
2478.00,2.2042
2477.00,2.2308
2476.00,2.2561
2475.00,2.2803
2474.00,2.3033
2473.00,2.3250
2472.00,2.3452
2471.00,2.3643
2470.00,2.3826
2469.00,2.4003
2468.00,2.4172
2467.00,2.4329
2466.00,2.4472
2465.00,2.4603
2464.00,2.4732
2463.00,2.4866
2462.00,2.5006
2461.00,2.5142
2460.00,2.5262
2459.00,2.5364
2458.00,2.5451
2457.00,2.5527
2456.00,2.5594
2455.00,2.5654
2454.00,2.5709
2453.00,2.5760
2452.00,2.5808
2451.00,2.5858
2450.00,2.5915
2449.00,2.5976
2448.00,2.6028
2447.00,2.6064
2446.00,2.6084
2445.00,2.6097
2444.00,2.6114
2443.00,2.6136
2442.00,2.6155
2441.00,2.6165
2440.00,2.6161
2439.00,2.6149
2438.00,2.6134
2437.00,2.6113
2436.00,2.6081
2435.00,2.6041
2434.00,2.6003
2433.00,2.5968
2432.00,2.5931
2431.00,2.5884
2430.00,2.5833
2429.00,2.5784
2428.00,2.5735
2427.00,2.5680
2426.00,2.5612
2425.00,2.5527
2424.00,2.5422
2423.00,2.5299
2422.00,2.5166
2421.00,2.5038
2420.00,2.4925
2419.00,2.4824
2418.00,2.4721
2417.00,2.4604
2416.00,2.4466
2415.00,2.4308
2414.00,2.4136
2413.00,2.3952
2412.00,2.3758
2411.00,2.3554
2410.00,2.3343
2409.00,2.3127
2408.00,2.2902
2407.00,2.2665
2406.00,2.2414
2405.00,2.2148
2404.00,2.1865
2403.00,2.1565
2402.00,2.1248
2401.00,2.0916
2400.00,2.0567
2399.00,2.0196
2398.00,1.9804
2397.00,1.9393
2396.00,1.8966
2395.00,1.8526
2394.00,1.8073
2393.00,1.7613
2392.00,1.7157
2391.00,1.6720
2390.00,1.6317
2389.00,1.5963
2388.00,1.5673
2387.00,1.5463
2386.00,1.5344
2385.00,1.5320
2384.00,1.5385
2383.00,1.5525
2382.00,1.5712
2381.00,1.5918
2380.00,1.6111
2379.00,1.6267
2378.00,1.6374
2377.00,1.6427
2376.00,1.6437
2375.00,1.6424
2374.00,1.6415
2373.00,1.6433
2372.00,1.6479
2371.00,1.6548
2370.00,1.6644
2369.00,1.6762
2368.00,1.6877
2367.00,1.6990
2366.00,1.7125
2365.00,1.7262
2364.00,1.7384
2363.00,1.7544
2362.00,1.7695
2361.00,1.7953
2360.00,1.8055
2359.00,1.8399
2358.00,1.8192
2357.00,1.9976
2356.00,2.2389
2355.00,2.1843
2354.00,2.2601
2353.00,2.2596
2352.00,2.3001
2351.00,2.3141
2350.00,2.3399
2349.00,2.3607
2348.00,2.3833
2347.00,2.4069
2346.00,2.4309
2345.00,2.4543
2344.00,2.4765
2343.00,2.4978
2342.00,2.5190
2341.00,2.5402
2340.00,2.5595
2339.00,2.5755
2338.00,2.5882
2337.00,2.5987
2336.00,2.6077
2335.00,2.6155
2334.00,2.6233
2333.00,2.6335
2332.00,2.6426
2331.00,2.6570
2330.00,2.6580
2329.00,2.6757
2328.00,2.6541
2327.00,2.7590
2326.00,2.9004
2325.00,2.9023
2324.00,2.9601
2323.00,2.9709
2322.00,2.9933
2321.00,3.0004
2320.00,3.0084
2319.00,3.0125
2318.00,3.0147
2317.00,3.0202
2316.00,3.0288
2315.00,3.0403
2314.00,3.0498
2313.00,3.0539
2312.00,3.0513
2311.00,3.0429
2310.00,3.0313
2309.00,3.0173
2308.00,3.0017
2307.00,2.9840
2306.00,2.9645
2305.00,2.9424
2304.00,2.9178
2303.00,2.8919
2302.00,2.8659
2301.00,2.8409
2300.00,2.8162
2299.00,2.7917
2298.00,2.7674
2297.00,2.7439
2296.00,2.7212
2295.00,2.6989
2294.00,2.6776
2293.00,2.6570
2292.00,2.6370
2291.00,2.6170
2290.00,2.5979
2289.00,2.5803
2288.00,2.5638
2287.00,2.5464
2286.00,2.5269
2285.00,2.5052
2284.00,2.4819
2283.00,2.4574
2282.00,2.4313
2281.00,2.4039
2280.00,2.3753
2279.00,2.3455
2278.00,2.3145
2277.00,2.2828
2276.00,2.2507
2275.00,2.2182
2274.00,2.1850
2273.00,2.1506
2272.00,2.1150
2271.00,2.0780
2270.00,2.0391
2269.00,1.9981
2268.00,1.9550
2267.00,1.9100
2266.00,1.8632
2265.00,1.8145
2264.00,1.7645
2263.00,1.7141
2262.00,1.6644
2261.00,1.6166
2260.00,1.5716
2259.00,1.5303
2258.00,1.4938
2257.00,1.4632
2256.00,1.4391
2255.00,1.4222
2254.00,1.4122
2253.00,1.4083
2252.00,1.4092
2251.00,1.4141
2250.00,1.4228
2249.00,1.4359
2248.00,1.4541
2247.00,1.4776
2246.00,1.5062
2245.00,1.5390
2244.00,1.5754
2243.00,1.6143
2242.00,1.6552
2241.00,1.6976
2240.00,1.7413
2239.00,1.7858
2238.00,1.8306
2237.00,1.8752
2236.00,1.9194
2235.00,1.9630
2234.00,2.0060
2233.00,2.0481
2232.00,2.0893
2231.00,2.1292
2230.00,2.1674
2229.00,2.2039
2228.00,2.2388
2227.00,2.2722
2226.00,2.3040
2225.00,2.3344
2224.00,2.3634
2223.00,2.3911
2222.00,2.4174
2221.00,2.4419
2220.00,2.4650
2219.00,2.4874
2218.00,2.5092
2217.00,2.5298
2216.00,2.5478
2215.00,2.5635
2214.00,2.5782
2213.00,2.5932
2212.00,2.6086
2211.00,2.6241
2210.00,2.6392
2209.00,2.6543
2208.00,2.6693
2207.00,2.6835
2206.00,2.6954
2205.00,2.7044
2204.00,2.7110
2203.00,2.7169
2202.00,2.7237
2201.00,2.7318
2200.00,2.7409
2199.00,2.7506
2198.00,2.7600
2197.00,2.7674
2196.00,2.7715
2195.00,2.7725
2194.00,2.7727
2193.00,2.7739
2192.00,2.7766
2191.00,2.7800
2190.00,2.7834
2189.00,2.7867
2188.00,2.7898
2187.00,2.7922
2186.00,2.7931
2185.00,2.7918
2184.00,2.7891
2183.00,2.7868
2182.00,2.7864
2181.00,2.7865
2180.00,2.7844
2179.00,2.7793
2178.00,2.7735
2177.00,2.7696
2176.00,2.7680
2175.00,2.7669
2174.00,2.7646
2173.00,2.7602
2172.00,2.7533
2171.00,2.7444
2170.00,2.7343
2169.00,2.7237
2168.00,2.7132
2167.00,2.7032
2166.00,2.6937
2165.00,2.6841
2164.00,2.6731
2163.00,2.6601
2162.00,2.6460
2161.00,2.6315
2160.00,2.6165
2159.00,2.6004
2158.00,2.5833
2157.00,2.5654
2156.00,2.5464
2155.00,2.5252
2154.00,2.5020
2153.00,2.4780
2152.00,2.4543
2151.00,2.4308
2150.00,2.4063
2149.00,2.3795
2148.00,2.3500
2147.00,2.3181
2146.00,2.2841
2145.00,2.2484
2144.00,2.2109
2143.00,2.1718
2142.00,2.1308
2141.00,2.0879
2140.00,2.0431
2139.00,1.9966
2138.00,1.9487
2137.00,1.9000
2136.00,1.8510
2135.00,1.8019
2134.00,1.7532
2133.00,1.7056
2132.00,1.6597
2131.00,1.6164
2130.00,1.5763
2129.00,1.5406
2128.00,1.5101
2127.00,1.4856
2126.00,1.4681
2125.00,1.4584
2124.00,1.4568
2123.00,1.4633
2122.00,1.4774
2121.00,1.4985
2120.00,1.5259
2119.00,1.5583
2118.00,1.5950
2117.00,1.6350
2116.00,1.6777
2115.00,1.7223
2114.00,1.7682
2113.00,1.8149
2112.00,1.8622
2111.00,1.9097
2110.00,1.9572
2109.00,2.0044
2108.00,2.0511
2107.00,2.0971
2106.00,2.1419
2105.00,2.1852
2104.00,2.2264
2103.00,2.2654
2102.00,2.3022
2101.00,2.3373
2100.00,2.3713
2099.00,2.4042
2098.00,2.4353
2097.00,2.4635
2096.00,2.4888
2095.00,2.5119
2094.00,2.5343
2093.00,2.5570
2092.00,2.5799
2091.00,2.6021
2090.00,2.6220
2089.00,2.6396
2088.00,2.6567
2087.00,2.6749
2086.00,2.6942
2085.00,2.7121
2084.00,2.7264
2083.00,2.7374
2082.00,2.7472
2081.00,2.7582
2080.00,2.7708
2079.00,2.7837
2078.00,2.7956
2077.00,2.8059
2076.00,2.8154
2075.00,2.8246
2074.00,2.8332
2073.00,2.8407
2072.00,2.8468
2071.00,2.8517
2070.00,2.8555
2069.00,2.8595
2068.00,2.8650
2067.00,2.8723
2066.00,2.8796
2065.00,2.8847
2064.00,2.8875
2063.00,2.8890
2062.00,2.8899
2061.00,2.8900
2060.00,2.8894
2059.00,2.8889
2058.00,2.8887
2057.00,2.8888
2056.00,2.8895
2055.00,2.8913
2054.00,2.8928
2053.00,2.8918
2052.00,2.8870
2051.00,2.8797
2050.00,2.8723
2049.00,2.8658
2048.00,2.8601
2047.00,2.8546
2046.00,2.8488
2045.00,2.8429
2044.00,2.8369
2043.00,2.8309
2042.00,2.8240
2041.00,2.8146
2040.00,2.8015
2039.00,2.7864
2038.00,2.7719
2037.00,2.7590
2036.00,2.7464
2035.00,2.7321
2034.00,2.7156
2033.00,2.6978
2032.00,2.6798
2031.00,2.6621
2030.00,2.6437
2029.00,2.6235
2028.00,2.6011
2027.00,2.5770
2026.00,2.5524
2025.00,2.5278
2024.00,2.5028
2023.00,2.4764
2022.00,2.4476
2021.00,2.4159
2020.00,2.3812
2019.00,2.3440
2018.00,2.3056
2017.00,2.2667
2016.00,2.2272
2015.00,2.1861
2014.00,2.1425
2013.00,2.0958
2012.00,2.0464
2011.00,1.9949
2010.00,1.9418
2009.00,1.8877
2008.00,1.8335
2007.00,1.7801
2006.00,1.7285
2005.00,1.6801
2004.00,1.6360
2003.00,1.5975
2002.00,1.5658
2001.00,1.5419
2000.00,1.5267
1999.00,1.5208
1998.00,1.5243
1997.00,1.5365
1996.00,1.5561
1995.00,1.5822
1994.00,1.6142
1993.00,1.6517
1992.00,1.6945
1991.00,1.7418
1990.00,1.7925
1989.00,1.8456
1988.00,1.9003
1987.00,1.9553
1986.00,2.0098
1985.00,2.0630
1984.00,2.1149
1983.00,2.1651
1982.00,2.2135
1981.00,2.2593
1980.00,2.3019
1979.00,2.3413
1978.00,2.3783
1977.00,2.4140
1976.00,2.4486
1975.00,2.4817
1974.00,2.5119
1973.00,2.5389
1972.00,2.5630
1971.00,2.5850
1970.00,2.6060
1969.00,2.6266
1968.00,2.6477
1967.00,2.6702
1966.00,2.6943
1965.00,2.7192
1964.00,2.7432
1963.00,2.7641
1962.00,2.7811
1961.00,2.7958
1960.00,2.8104
1959.00,2.8253
1958.00,2.8394
1957.00,2.8521
1956.00,2.8634
1955.00,2.8743
1954.00,2.8853
1953.00,2.8963
1952.00,2.9072
1951.00,2.9173
1950.00,2.9264
1949.00,2.9350
1948.00,2.9428
1947.00,2.9489
1946.00,2.9523
1945.00,2.9527
1944.00,2.9512
1943.00,2.9502
1942.00,2.9529
1941.00,2.9606
1940.00,2.9711
1939.00,2.9804
1938.00,2.9846
1937.00,2.9843
1936.00,2.9828
1935.00,2.9828
1934.00,2.9839
1933.00,2.9844
1932.00,2.9826
1931.00,2.9782
1930.00,2.9728
1929.00,2.9684
1928.00,2.9661
1927.00,2.9641
1926.00,2.9590
1925.00,2.9492
1924.00,2.9351
1923.00,2.9207
1922.00,2.9108
1921.00,2.9077
1920.00,2.9081
1919.00,2.9047
1918.00,2.8935
1917.00,2.8780
1916.00,2.8640
1915.00,2.8521
1914.00,2.8384
1913.00,2.8203
1912.00,2.7991
1911.00,2.7776
1910.00,2.7576
1909.00,2.7393
1908.00,2.7221
1907.00,2.7043
1906.00,2.6837
1905.00,2.6606
1904.00,2.6354
1903.00,2.6081
1902.00,2.5783
1901.00,2.5464
1900.00,2.5132
1899.00,2.4777
1898.00,2.4380
1897.00,2.3939
1896.00,2.3470
1895.00,2.2984
1894.00,2.2486
1893.00,2.1974
1892.00,2.1444
1891.00,2.0877
1890.00,2.0272
1889.00,1.9658
1888.00,1.9071
1887.00,1.8534
1886.00,1.8054
1885.00,1.7633
1884.00,1.7283
1883.00,1.7020
1882.00,1.6851
1881.00,1.6775
1880.00,1.6792
1879.00,1.6902
1878.00,1.7097
1877.00,1.7367
1876.00,1.7704
1875.00,1.8084
1874.00,1.8482
1873.00,1.8896
1872.00,1.9327
1871.00,1.9752
1870.00,2.0140
1869.00,2.0516
1868.00,2.0946
1867.00,2.1454
1866.00,2.2006
1865.00,2.2559
1864.00,2.3084
1863.00,2.3575
1862.00,2.4038
1861.00,2.4476
1860.00,2.4888
1859.00,2.5285
1858.00,2.5677
1857.00,2.6068
1856.00,2.6442
1855.00,2.6785
1854.00,2.7098
1853.00,2.7384
1852.00,2.7650
1851.00,2.7903
1850.00,2.8123
1849.00,2.8304
1848.00,2.8480
1847.00,2.8705
1846.00,2.8971
1845.00,2.9199
1844.00,2.9329
1843.00,2.9401
1842.00,2.9492
1841.00,2.9623
1840.00,2.9759
1839.00,2.9880
1838.00,3.0015
1837.00,3.0195
1836.00,3.0380
1835.00,3.0498
1834.00,3.0531
1833.00,3.0525
1832.00,3.0517
1831.00,3.0501
1830.00,3.0480
1829.00,3.0487
1828.00,3.0550
1827.00,3.0661
1826.00,3.0756
1825.00,3.0768
1824.00,3.0709
1823.00,3.0646
1822.00,3.0617
1821.00,3.0601
1820.00,3.0573
1819.00,3.0539
1818.00,3.0516
1817.00,3.0496
1816.00,3.0443
1815.00,3.0334
1814.00,3.0175
1813.00,2.9996
1812.00,2.9842
1811.00,2.9741
1810.00,2.9686
1809.00,2.9643
1808.00,2.9583
1807.00,2.9497
1806.00,2.9388
1805.00,2.9257
1804.00,2.9090
1803.00,2.8875
1802.00,2.8599
1801.00,2.8271
1800.00,2.7915
1799.00,2.7533
1798.00,2.7116
1797.00,2.6670
1796.00,2.6228
1795.00,2.5814
1794.00,2.5373
1793.00,2.4813
1792.00,2.4147
1791.00,2.3479
1790.00,2.2893
1789.00,2.2417
1788.00,2.2042
1787.00,2.1749
1786.00,2.1529
1785.00,2.1395
1784.00,2.1379
1783.00,2.1524
1782.00,2.1841
1781.00,2.2309
1780.00,2.2906
1779.00,2.3588
1778.00,2.4300
1777.00,2.4990
1776.00,2.5655
1775.00,2.6331
1774.00,2.7011
1773.00,2.7648
1772.00,2.8259
1771.00,2.8882
1770.00,2.9492
1769.00,3.0051
1768.00,3.0509
1767.00,3.0839
1766.00,3.1096
1765.00,3.1366
1764.00,3.1672
1763.00,3.1947
1762.00,3.2124
1761.00,3.2229
1760.00,3.2364
1759.00,3.2602
1758.00,3.2909
1757.00,3.3167
1756.00,3.3328
1755.00,3.3456
1754.00,3.3632
1753.00,3.3821
1752.00,3.3906
1751.00,3.3842
1750.00,3.3751
1749.00,3.3787
1748.00,3.3983
1747.00,3.4300
1746.00,3.4681
1745.00,3.5092
1744.00,3.5562
1743.00,3.6162
1742.00,3.6945
1741.00,3.7867
1740.00,3.8813
1739.00,3.9795
1738.00,4.1082
1737.00,4.2876
1736.00,4.4628
1735.00,4.4866
1734.00,4.3494
1733.00,4.2277
1732.00,4.2211
1731.00,4.3302
1730.00,4.5070
1729.00,4.6646
1728.00,4.7062
1727.00,4.6155
1726.00,4.4686
1725.00,4.3536
1724.00,4.3183
1723.00,4.3636
1722.00,4.4269
1721.00,4.3949
1720.00,4.2730
1719.00,4.1686
1718.00,4.1470
1717.00,4.2687
1716.00,4.5385
1715.00,4.6643
1714.00,4.6304
1713.00,4.7491
1712.00,4.8653
1711.00,4.8219
1710.00,4.8318
1709.00,4.9324
1708.00,4.9964
1707.00,4.8935
1706.00,4.7396
1705.00,4.6109
1704.00,4.4889
1703.00,4.3837
1702.00,4.3346
1701.00,4.3550
1700.00,4.4092
1699.00,4.3786
1698.00,4.2862
1697.00,4.2431
1696.00,4.2297
1695.00,4.2285
1694.00,4.2349
1693.00,4.2108
1692.00,4.1343
1691.00,4.0228
1690.00,3.9047
1689.00,3.8025
1688.00,3.7240
1687.00,3.6655
1686.00,3.6149
1685.00,3.5560
1684.00,3.5058
1683.00,3.4843
1682.00,3.4824
1681.00,3.4854
1680.00,3.4834
1679.00,3.4814
1678.00,3.4898
1677.00,3.5061
1676.00,3.5067
1675.00,3.4702
1674.00,3.4046
1673.00,3.3388
1672.00,3.2904
1671.00,3.2550
1670.00,3.2228
1669.00,3.1871
1668.00,3.1433
1667.00,3.0942
1666.00,3.0460
1665.00,2.9984
1664.00,2.9432
1663.00,2.8769
1662.00,2.8085
1661.00,2.7470
1660.00,2.6960
1659.00,2.6535
1658.00,2.6182
1657.00,2.5933
1656.00,2.5870
1655.00,2.5955
1654.00,2.6017
1653.00,2.6073
1652.00,2.6134
1651.00,2.6308
1650.00,2.6714
1649.00,2.7170
1648.00,2.7576
1647.00,2.8000
1646.00,2.8465
1645.00,2.8837
1644.00,2.9115
1643.00,2.9374
1642.00,2.9651
1641.00,2.9931
1640.00,3.0193
1639.00,3.0432
1638.00,3.0655
1637.00,3.0851
1636.00,3.1039
1635.00,3.1187
1634.00,3.1233
1633.00,3.1270
1632.00,3.1361
1631.00,3.1497
1630.00,3.1657
1629.00,3.1821
1628.00,3.1977
1627.00,3.2129
1626.00,3.2280
1625.00,3.2389
1624.00,3.2405
1623.00,3.2347
1622.00,3.2303
1621.00,3.2338
1620.00,3.2447
1619.00,3.2539
1618.00,3.2507
1617.00,3.2349
1616.00,3.2196
1615.00,3.2163
1614.00,3.2263
1613.00,3.2431
1612.00,3.2579
1611.00,3.2650
1610.00,3.2626
1609.00,3.2513
1608.00,3.2349
1607.00,3.2185
1606.00,3.2044
1605.00,3.1909
1604.00,3.1764
1603.00,3.1628
1602.00,3.1518
1601.00,3.1419
1600.00,3.1298
1599.00,3.1132
1598.00,3.0913
1597.00,3.0655
1596.00,3.0387
1595.00,3.0136
1594.00,2.9904
1593.00,2.9670
1592.00,2.9428
1591.00,2.9193
1590.00,2.8978
1589.00,2.8768
1588.00,2.8536
1587.00,2.8246
1586.00,2.7883
1585.00,2.7450
1584.00,2.6973
1583.00,2.6479
1582.00,2.5942
1581.00,2.5325
1580.00,2.4647
1579.00,2.3949
1578.00,2.3218
1577.00,2.2414
1576.00,2.1577
1575.00,2.0818
1574.00,2.0235
1573.00,1.9848
1572.00,1.9585
1571.00,1.9328
1570.00,1.9055
1569.00,1.8869
1568.00,1.8854
1567.00,1.9036
1566.00,1.9379
1565.00,1.9795
1564.00,2.0234
1563.00,2.0747
1562.00,2.1409
1561.00,2.2163
1560.00,2.2615
1559.00,2.3002
1558.00,2.3712
1557.00,2.4361
1556.00,2.4974
1555.00,2.5585
1554.00,2.6165
1553.00,2.6667
1552.00,2.7124
1551.00,2.7542
1550.00,2.7927
1549.00,2.8300
1548.00,2.8666
1547.00,2.9013
1546.00,2.9278
1545.00,2.9421
1544.00,2.9500
1543.00,2.9576
1542.00,2.9616
1541.00,2.9661
1540.00,2.9907
1539.00,3.0277
1538.00,3.0547
1537.00,3.0806
1536.00,3.1076
1535.00,3.1276
1534.00,3.1367
1533.00,3.1465
1532.00,3.1658
1531.00,3.1899
1530.00,3.2130
1529.00,3.2288
1528.00,3.2333
1527.00,3.2298
1526.00,3.2268
1525.00,3.2312
1524.00,3.2428
1523.00,3.2520
1522.00,3.2531
1521.00,3.2531
1520.00,3.2576
1519.00,3.2659
1518.00,3.2724
1517.00,3.2767
1516.00,3.2839
1515.00,3.2945
1514.00,3.3051
1513.00,3.3099
1512.00,3.3046
1511.00,3.2921
1510.00,3.2758
1509.00,3.2514
1508.00,3.2158
1507.00,3.2021
1506.00,3.2153
1505.00,3.2195
1504.00,3.2227
1503.00,3.2305
1502.00,3.2355
1501.00,3.2332
1500.00,3.2248
1499.00,3.2122
1498.00,3.1947
1497.00,3.1731
1496.00,3.1503
1495.00,3.1310
1494.00,3.1187
1493.00,3.1066
1492.00,3.0800
1491.00,3.0315
1490.00,2.9767
1489.00,2.9368
1488.00,2.9109
1487.00,2.8849
1486.00,2.8529
1485.00,2.8160
1484.00,2.7755
1483.00,2.7301
1482.00,2.6779
1481.00,2.6229
1480.00,2.5726
1479.00,2.5308
1478.00,2.4939
1477.00,2.4590
1476.00,2.4315
1475.00,2.4221
1474.00,2.4369
1473.00,2.4771
1472.00,2.5402
1471.00,2.6152
1470.00,2.6957
1469.00,2.7833
1468.00,2.8784
1467.00,2.9759
1466.00,3.0684
1465.00,3.1491
1464.00,3.2130
1463.00,3.2554
1462.00,3.2786
1461.00,3.2911
1460.00,3.3020
1459.00,3.3195
1458.00,3.3561
1457.00,3.4234
1456.00,3.5092
1455.00,3.6000
1454.00,3.6989
1453.00,3.7985
1452.00,3.8892
1451.00,3.9663
1450.00,4.0109
1449.00,3.9895
1448.00,3.9047
1447.00,3.7970
1446.00,3.7015
1445.00,3.6218
1444.00,3.5434
1443.00,3.4596
1442.00,3.3813
1441.00,3.3244
1440.00,3.2992
1439.00,3.3050
1438.00,3.3288
1437.00,3.3574
1436.00,3.3913
1435.00,3.4416
1434.00,3.5145
1433.00,3.6009
1432.00,3.6748
1431.00,3.7148
1430.00,3.7298
1429.00,3.7458
1428.00,3.7682
1427.00,3.7838
1426.00,3.7818
1425.00,3.7606
1424.00,3.7346
1423.00,3.7195
1422.00,3.7132
1421.00,3.6943
1420.00,3.6428
1419.00,3.5710
1418.00,3.5093
1417.00,3.4640
1416.00,3.4190
1415.00,3.3662
1414.00,3.3147
1413.00,3.2748
1412.00,3.2490
1411.00,3.2342
1410.00,3.2279
1409.00,3.2306
1408.00,3.2419
1407.00,3.2597
1406.00,3.2825
1405.00,3.3074
1404.00,3.3290
1403.00,3.3419
1402.00,3.3475
1401.00,3.3494
1400.00,3.3464
1399.00,3.3414
1398.00,3.3458
1397.00,3.3638
1396.00,3.3838
1395.00,3.3928
1394.00,3.3939
1393.00,3.4011
1392.00,3.4217
1391.00,3.4474
1390.00,3.4671
1389.00,3.4791
1388.00,3.4858
1387.00,3.4844
1386.00,3.4731
1385.00,3.4606
1384.00,3.4603
1383.00,3.4781
1382.00,3.5106
1381.00,3.5479
1380.00,3.5768
1379.00,3.5879
1378.00,3.5803
1377.00,3.5588
1376.00,3.5326
1375.00,3.5126
1374.00,3.5039
1373.00,3.4983
1372.00,3.4842
1371.00,3.4618
1370.00,3.4411
1369.00,3.4290
1368.00,3.4237
1367.00,3.4187
1366.00,3.4124
1365.00,3.4075
1364.00,3.4040
1363.00,3.3991
1362.00,3.3898
1361.00,3.3725
1360.00,3.3466
1359.00,3.3139
1358.00,3.2778
1357.00,3.2443
1356.00,3.2201
1355.00,3.2121
1354.00,3.2253
1353.00,3.2606
1352.00,3.3148
1351.00,3.3848
1350.00,3.4725
1349.00,3.5789
1348.00,3.6886
1347.00,3.7593
1346.00,3.7605
1345.00,3.7176
1344.00,3.6713
1343.00,3.6391
1342.00,3.6262
1341.00,3.6386
1340.00,3.6765
1339.00,3.7155
1338.00,3.7135
1337.00,3.6597
1336.00,3.5813
1335.00,3.5006
1334.00,3.4234
1333.00,3.3497
1332.00,3.2808
1331.00,3.2191
1330.00,3.1673
1329.00,3.1278
1328.00,3.1040
1327.00,3.0986
1326.00,3.1123
1325.00,3.1431
1324.00,3.1868
1323.00,3.2406
1322.00,3.3054
1321.00,3.3859
1320.00,3.4852
1319.00,3.5966
1318.00,3.7006
1317.00,3.7836
1316.00,3.8599
1315.00,3.9472
1314.00,4.0291
1313.00,4.0582
1312.00,4.0335
1311.00,4.0123
1310.00,4.0050
1309.00,3.9652
1308.00,3.8760
1307.00,3.7724
1306.00,3.6785
1305.00,3.5904
1304.00,3.4965
1303.00,3.3978
1302.00,3.3036
1301.00,3.2186
1300.00,3.1435
1299.00,3.0810
1298.00,3.0349
1297.00,3.0062
1296.00,2.9920
1295.00,2.9891
1294.00,2.9972
1293.00,3.0178
1292.00,3.0498
1291.00,3.0871
1290.00,3.1225
1289.00,3.1532
1288.00,3.1805
1287.00,3.2065
1286.00,3.2326
1285.00,3.2616
1284.00,3.2957
1283.00,3.3325
1282.00,3.3667
1281.00,3.3948
1280.00,3.4178
1279.00,3.4391
1278.00,3.4619
1277.00,3.4890
1276.00,3.5199
1275.00,3.5465
1274.00,3.5575
1273.00,3.5522
1272.00,3.5428
1271.00,3.5421
1270.00,3.5541
1269.00,3.5767
1268.00,3.6090
1267.00,3.6511
1266.00,3.6953
1265.00,3.7237
1264.00,3.7248
1263.00,3.7133
1262.00,3.7143
1261.00,3.7333
1260.00,3.7570
1259.00,3.7775
1258.00,3.7987
1257.00,3.8141
1256.00,3.8038
1255.00,3.7689
1254.00,3.7388
1253.00,3.7363
1252.00,3.7609
1251.00,3.7968
1250.00,3.8242
1249.00,3.8218
1248.00,3.7779
1247.00,3.7104
1246.00,3.6547
1245.00,3.6339
1244.00,3.6499
1243.00,3.6902
1242.00,3.7411
1241.00,3.7944
1240.00,3.8237
1239.00,3.7931
1238.00,3.7264
1237.00,3.6770
1236.00,3.6759
1235.00,3.7355
1234.00,3.8518
1233.00,3.9912
1232.00,4.0813
1231.00,4.0848
1230.00,4.0648
1229.00,4.0860
1228.00,4.1532
1227.00,4.2165
1226.00,4.2373
1225.00,4.3101
1224.00,4.6111
1223.00,4.8569
1222.00,4.5940
1221.00,4.5502
1220.00,4.5467
1219.00,4.4940
1218.00,4.4770
1217.00,4.4058
1216.00,4.1927
1215.00,3.9904
1214.00,3.8698
1213.00,3.8205
1212.00,3.8245
1211.00,3.8570
1210.00,3.8916
1209.00,3.9030
1208.00,3.8825
1207.00,3.8438
1206.00,3.8079
1205.00,3.7902
1204.00,3.7982
1203.00,3.8197
1202.00,3.8239
1201.00,3.7981
1200.00,3.7573
1199.00,3.7178
1198.00,3.6828
1197.00,3.6442
1196.00,3.5945
1195.00,3.5390
1194.00,3.4920
1193.00,3.4635
1192.00,3.4530
1191.00,3.4518
1190.00,3.4502
1189.00,3.4437
1188.00,3.4320
1187.00,3.4158
1186.00,3.3975
1185.00,3.3791
1184.00,3.3595
1183.00,3.3365
1182.00,3.3117
1181.00,3.2911
1180.00,3.2810
1179.00,3.2836
1178.00,3.2973
1177.00,3.3173
1176.00,3.3358
1175.00,3.3436
1174.00,3.3375
1173.00,3.3242
1172.00,3.3143
1171.00,3.3128
1170.00,3.3185
1169.00,3.3285
1168.00,3.3412
1167.00,3.3538
1166.00,3.3621
1165.00,3.3645
1164.00,3.3636
1163.00,3.3650
1162.00,3.3734
1161.00,3.3910
1160.00,3.4188
1159.00,3.4586
1158.00,3.5089
1157.00,3.5603
1156.00,3.5993
1155.00,3.6176
1154.00,3.6186
1153.00,3.6116
1152.00,3.6040
1151.00,3.6025
1150.00,3.6128
1149.00,3.6335
1148.00,3.6518
1147.00,3.6533
1146.00,3.6455
1145.00,3.6561
1144.00,3.7031
1143.00,3.7782
1142.00,3.8584
1141.00,3.9329
1140.00,4.0000
1139.00,4.0561
1138.00,4.0861
1137.00,4.0627
1136.00,4.0038
1135.00,3.9494
1134.00,3.9104
1133.00,3.8905
1132.00,3.8788
1131.00,3.8569
1130.00,3.8417
1129.00,3.8494
1128.00,3.8794
1127.00,3.9416
1126.00,4.0202
1125.00,4.0624
1124.00,4.0784
1123.00,4.1080
1122.00,4.1391
1121.00,4.1579
1120.00,4.1813
1119.00,4.2411
1118.00,4.3705
1117.00,4.5053
1116.00,4.3798
1115.00,4.4134
1114.00,4.8126
1113.00,4.4835
1112.00,4.2272
1111.00,4.1401
1110.00,4.0707
1109.00,3.9907
1108.00,3.9216
1107.00,3.9061
1106.00,3.9453
1105.00,4.0039
1104.00,4.0353
1103.00,4.0474
1102.00,4.0907
1101.00,4.2021
1100.00,4.2597
1099.00,4.1553
1098.00,4.0897
1097.00,4.1153
1096.00,4.1708
1095.00,4.1904
1094.00,4.1633
1093.00,4.0732
1092.00,3.9567
1091.00,3.8777
1090.00,3.8462
1089.00,3.8440
1088.00,3.8510
1087.00,3.8748
1086.00,3.9388
1085.00,4.0356
1084.00,4.0735
1083.00,3.9793
1082.00,3.8572
1081.00,3.7899
1080.00,3.7854
1079.00,3.8138
1078.00,3.8365
1077.00,3.8447
1076.00,3.8443
1075.00,3.8223
1074.00,3.7696
1073.00,3.7119
1072.00,3.6859
1071.00,3.7062
1070.00,3.7563
1069.00,3.7986
1068.00,3.8117
1067.00,3.8125
1066.00,3.8103
1065.00,3.7944
1064.00,3.7602
1063.00,3.7100
1062.00,3.6581
1061.00,3.6318
1060.00,3.6437
1059.00,3.6732
1058.00,3.6928
1057.00,3.7060
1056.00,3.7290
1055.00,3.7754
1054.00,3.8472
1053.00,3.9128
1052.00,3.9340
1051.00,3.9057
1050.00,3.8215
1049.00,3.7104
1048.00,3.6336
1047.00,3.6068
1046.00,3.5978
1045.00,3.5689
1044.00,3.5193
1043.00,3.4772
1042.00,3.4557
1041.00,3.4356
1040.00,3.3944
1039.00,3.3397
1038.00,3.2942
1037.00,3.2677
1036.00,3.2577
1035.00,3.2634
1034.00,3.2897
1033.00,3.3366
1032.00,3.3923
1031.00,3.4429
1030.00,3.4886
1029.00,3.5426
1028.00,3.6045
1027.00,3.6516
1026.00,3.6682
1025.00,3.6752
1024.00,3.7162
1023.00,3.8326
1022.00,4.0613
1021.00,4.3954
1020.00,4.5215
1019.00,4.2395
1018.00,3.9880
1017.00,3.8556
1016.00,3.8128
1015.00,3.8376
1014.00,3.9163
1013.00,4.0083
1012.00,4.0406
1011.00,4.0240
1010.00,4.0387
1009.00,4.1183
1008.00,4.2275
1007.00,4.2942
1006.00,4.2260
1005.00,4.0662
1004.00,3.9598
1003.00,3.9343
1002.00,3.9935
1001.00,4.1460
1000.00,4.4132
999.00,4.6262
998.00,4.3437
997.00,4.1269
996.00,4.0547
995.00,4.1400
994.00,4.5466
993.00,4.7419
992.00,4.2747
991.00,4.2544
990.00,4.3805
989.00,4.4545
988.00,4.4468
987.00,4.4067
986.00,4.4867
985.00,4.7514
984.00,4.6374
983.00,4.4056
982.00,4.3323
981.00,4.3077
980.00,4.2899
979.00,4.2900
978.00,4.3283
977.00,4.3986
976.00,4.4170
975.00,4.3740
974.00,4.3983
973.00,4.5058
972.00,4.6047
971.00,4.6589
970.00,4.7372
969.00,4.8712
968.00,4.9309
967.00,4.7009
966.00,4.5539
965.00,4.6970
964.00,4.6448
963.00,4.3006
962.00,4.2026
961.00,4.2467
960.00,4.3406
959.00,4.4017
958.00,4.4186
957.00,4.4059
956.00,4.5362
955.00,4.9126
954.00,4.3351
953.00,4.0580
952.00,3.9800
951.00,3.9922
950.00,4.0705
949.00,4.2279
948.00,4.4112
947.00,4.4216
946.00,4.4042
945.00,4.3521
944.00,4.3194
943.00,4.5235
942.00,4.6596
941.00,4.2332
940.00,4.0364
939.00,3.9806
938.00,4.0148
937.00,4.1938
936.00,4.4998
935.00,4.7146
934.00,5.0681
933.00,4.4072
932.00,4.1682
931.00,4.1674
930.00,4.2345
929.00,4.1803
928.00,4.0940
927.00,4.1171
926.00,4.2195
925.00,4.2504
924.00,4.2367
923.00,4.2717
922.00,4.2517
921.00,4.1848
920.00,4.1454
919.00,4.1390
918.00,4.1280
917.00,4.0972
916.00,4.0639
915.00,4.0304
914.00,4.0101
913.00,3.9863
912.00,3.9587
911.00,3.9807
910.00,4.1154
909.00,4.3368
908.00,4.2898
907.00,4.1368
906.00,4.0216
905.00,3.9203
904.00,3.8944
903.00,3.9786
902.00,4.1274
901.00,4.2063
900.00,4.1734
899.00,4.0709
898.00,4.0251
897.00,4.1073
896.00,4.2239
895.00,4.2439
894.00,4.2993
893.00,4.5304
892.00,4.7620
891.00,4.2780
890.00,4.0815
889.00,4.0780
888.00,4.2776
887.00,4.7019
886.00,4.3963
885.00,4.2053
884.00,4.1331
883.00,4.1265
882.00,4.2143
881.00,4.3345
880.00,4.3667
879.00,4.2467
878.00,4.0749
877.00,3.9235
876.00,3.8496
875.00,3.8878
874.00,4.0305
873.00,4.1946
872.00,4.2802
871.00,4.3315
870.00,4.4470
869.00,4.7135
868.00,5.1922
867.00,5.6810
866.00,4.8262
865.00,4.5227
864.00,4.3750
863.00,4.2479
862.00,4.2276
861.00,4.5399
860.00,4.4553
859.00,4.0093
858.00,3.8654
857.00,3.8448
856.00,3.9009
855.00,4.0388
854.00,4.2994
853.00,4.4822
852.00,4.1419
851.00,3.9884
850.00,4.0273
849.00,4.2358
848.00,4.3146
847.00,4.1076
846.00,4.0078
845.00,3.9837
844.00,3.9866
843.00,3.9910
842.00,3.9694
841.00,3.9349
840.00,3.9431
839.00,4.0281
838.00,4.2063
837.00,4.4482
836.00,4.4694
835.00,4.5109
834.00,4.6080
833.00,4.4247
832.00,4.3076
831.00,4.2638
830.00,4.2441
829.00,4.1902
828.00,4.1214
827.00,4.0684
826.00,4.0126
825.00,3.9831
824.00,4.0110
823.00,4.0734
822.00,4.0534
821.00,3.9142
820.00,3.8101
819.00,3.7866
818.00,3.8035
817.00,3.8080
816.00,3.7942
815.00,3.7961
814.00,3.8155
813.00,3.8244
812.00,3.8289
811.00,3.8554
810.00,3.9082
809.00,4.0032
808.00,4.1096
807.00,3.9963
806.00,3.8227
805.00,3.7596
804.00,3.7870
803.00,3.8458
802.00,3.8624
801.00,3.8245
800.00,3.7915
799.00,3.8021
798.00,3.8390
797.00,3.8385
796.00,3.7730
795.00,3.7130
794.00,3.7305
793.00,3.8461
792.00,3.9913
791.00,4.0491
790.00,4.0853
789.00,4.1575
788.00,4.1981
787.00,4.0999
786.00,3.9516
785.00,3.8761
784.00,3.8830
783.00,3.9363
782.00,4.0110
781.00,4.1084
780.00,4.2408
779.00,4.3619
778.00,4.3125
777.00,4.1593
776.00,4.0137
775.00,3.8985
774.00,3.8386
773.00,3.8594
772.00,3.9846
771.00,4.1210
770.00,4.0289
769.00,3.9261
768.00,3.9145
767.00,3.9752
766.00,4.0816
765.00,4.1948
764.00,4.2260
763.00,4.1910
762.00,4.2227
761.00,4.3152
760.00,4.5318
759.00,4.9330
758.00,4.6938
757.00,4.5399
756.00,4.3431
755.00,4.1564
754.00,4.0560
753.00,3.9920
752.00,3.9431
751.00,3.9644
750.00,4.1087
749.00,4.1408
748.00,3.9967
747.00,4.0031
746.00,4.2522
745.00,4.4804
744.00,4.1227
743.00,4.0474
742.00,4.1498
741.00,4.3039
740.00,4.2251
739.00,3.9525
738.00,3.7700
737.00,3.7030
736.00,3.7326
735.00,3.8228
734.00,3.8963
733.00,3.8901
732.00,3.8514
731.00,3.8305
730.00,3.8406
729.00,3.8769
728.00,3.9311
727.00,4.0102
726.00,4.1005
725.00,4.1036
724.00,4.0613
723.00,4.1105
722.00,4.3428
721.00,4.7327
720.00,4.3897
719.00,4.1705
718.00,4.0587
717.00,3.9454
716.00,3.8548
715.00,3.8268
714.00,3.8561
713.00,3.9040
712.00,3.9509
711.00,4.0245
710.00,4.1154
709.00,4.0926
708.00,3.9592
707.00,3.8594
706.00,3.8386
705.00,3.8931
704.00,4.0068
703.00,4.1542
702.00,4.3477
701.00,4.6150
700.00,4.3962
