Created as New Dataset,Sample 057 By Administrator Date Wednesday, November 24 2021
cm-1,A
7502.00,0.8982
7501.00,0.9061
7500.00,0.9140
7499.00,0.9217
7498.00,0.9291
7497.00,0.9365
7496.00,0.9439
7495.00,0.9514
7494.00,0.9589
7493.00,0.9668
7492.00,0.9754
7491.00,0.9849
7490.00,0.9946
7489.00,1.0034
7488.00,1.0110
7487.00,1.0178
7486.00,1.0247
7485.00,1.0317
7484.00,1.0382
7483.00,1.0438
7482.00,1.0490
7481.00,1.0546
7480.00,1.0607
7479.00,1.0667
7478.00,1.0719
7477.00,1.0764
7476.00,1.0804
7475.00,1.0845
7474.00,1.0891
7473.00,1.0941
7472.00,1.0992
7471.00,1.1038
7470.00,1.1075
7469.00,1.1105
7468.00,1.1131
7467.00,1.1154
7466.00,1.1172
7465.00,1.1183
7464.00,1.1183
7463.00,1.1171
7462.00,1.1147
7461.00,1.1114
7460.00,1.1077
7459.00,1.1039
7458.00,1.1003
7457.00,1.0970
7456.00,1.0942
7455.00,1.0918
7454.00,1.0897
7453.00,1.0878
7452.00,1.0857
7451.00,1.0829
7450.00,1.0789
7449.00,1.0739
7448.00,1.0683
7447.00,1.0627
7446.00,1.0572
7445.00,1.0516
7444.00,1.0457
7443.00,1.0395
7442.00,1.0334
7441.00,1.0274
7440.00,1.0214
7439.00,1.0152
7438.00,1.0090
7437.00,1.0030
7436.00,0.9973
7435.00,0.9917
7434.00,0.9861
7433.00,0.9809
7432.00,0.9762
7431.00,0.9721
7430.00,0.9681
7429.00,0.9641
7428.00,0.9603
7427.00,0.9569
7426.00,0.9539
7425.00,0.9506
7424.00,0.9462
7423.00,0.9405
7422.00,0.9338
7421.00,0.9268
7420.00,0.9195
7419.00,0.9117
7418.00,0.9029
7417.00,0.8937
7416.00,0.8847
7415.00,0.8762
7414.00,0.8679
7413.00,0.8595
7412.00,0.8511
7411.00,0.8431
7410.00,0.8359
7409.00,0.8294
7408.00,0.8233
7407.00,0.8178
7406.00,0.8126
7405.00,0.8077
7404.00,0.8029
7403.00,0.7980
7402.00,0.7933
7401.00,0.7888
7400.00,0.7848
7399.00,0.7810
7398.00,0.7773
7397.00,0.7742
7396.00,0.7719
7395.00,0.7708
7394.00,0.7704
7393.00,0.7705
7392.00,0.7710
7391.00,0.7721
7390.00,0.7738
7389.00,0.7761
7388.00,0.7788
7387.00,0.7817
7386.00,0.7850
7385.00,0.7889
7384.00,0.7936
7383.00,0.7991
7382.00,0.8051
7381.00,0.8112
7380.00,0.8176
7379.00,0.8242
7378.00,0.8310
7377.00,0.8378
7376.00,0.8450
7375.00,0.8523
7374.00,0.8599
7373.00,0.8673
7372.00,0.8749
7371.00,0.8827
7370.00,0.8908
7369.00,0.8992
7368.00,0.9075
7367.00,0.9161
7366.00,0.9250
7365.00,0.9343
7364.00,0.9437
7363.00,0.9529
7362.00,0.9617
7361.00,0.9706
7360.00,0.9798
7359.00,0.9893
7358.00,0.9989
7357.00,1.0082
7356.00,1.0172
7355.00,1.0261
7354.00,1.0353
7353.00,1.0446
7352.00,1.0532
7351.00,1.0608
7350.00,1.0674
7349.00,1.0738
7348.00,1.0804
7347.00,1.0871
7346.00,1.0934
7345.00,1.0995
7344.00,1.1058
7343.00,1.1126
7342.00,1.1195
7341.00,1.1263
7340.00,1.1323
7339.00,1.1377
7338.00,1.1423
7337.00,1.1465
7336.00,1.1504
7335.00,1.1544
7334.00,1.1590
7333.00,1.1641
7332.00,1.1691
7331.00,1.1732
7330.00,1.1762
7329.00,1.1785
7328.00,1.1807
7327.00,1.1823
7326.00,1.1826
7325.00,1.1816
7324.00,1.1803
7323.00,1.1795
7322.00,1.1791
7321.00,1.1786
7320.00,1.1774
7319.00,1.1756
7318.00,1.1738
7317.00,1.1721
7316.00,1.1706
7315.00,1.1690
7314.00,1.1667
7313.00,1.1635
7312.00,1.1597
7311.00,1.1557
7310.00,1.1512
7309.00,1.1457
7308.00,1.1392
7307.00,1.1322
7306.00,1.1252
7305.00,1.1183
7304.00,1.1115
7303.00,1.1047
7302.00,1.0982
7301.00,1.0917
7300.00,1.0847
7299.00,1.0768
7298.00,1.0683
7297.00,1.0596
7296.00,1.0506
7295.00,1.0410
7294.00,1.0309
7293.00,1.0207
7292.00,1.0106
7291.00,1.0007
7290.00,0.9907
7289.00,0.9804
7288.00,0.9698
7287.00,0.9592
7286.00,0.9487
7285.00,0.9384
7284.00,0.9284
7283.00,0.9186
7282.00,0.9092
7281.00,0.9001
7280.00,0.8914
7279.00,0.8829
7278.00,0.8746
7277.00,0.8665
7276.00,0.8585
7275.00,0.8507
7274.00,0.8430
7273.00,0.8354
7272.00,0.8284
7271.00,0.8220
7270.00,0.8161
7269.00,0.8106
7268.00,0.8057
7267.00,0.8015
7266.00,0.7982
7265.00,0.7955
7264.00,0.7929
7263.00,0.7908
7262.00,0.7894
7261.00,0.7888
7260.00,0.7890
7259.00,0.7897
7258.00,0.7908
7257.00,0.7924
7256.00,0.7946
7255.00,0.7974
7254.00,0.8006
7253.00,0.8041
7252.00,0.8078
7251.00,0.8122
7250.00,0.8172
7249.00,0.8230
7248.00,0.8291
7247.00,0.8352
7246.00,0.8416
7245.00,0.8483
7244.00,0.8554
7243.00,0.8626
7242.00,0.8699
7241.00,0.8774
7240.00,0.8855
7239.00,0.8940
7238.00,0.9026
7237.00,0.9110
7236.00,0.9190
7235.00,0.9270
7234.00,0.9350
7233.00,0.9431
7232.00,0.9514
7231.00,0.9599
7230.00,0.9686
7229.00,0.9773
7228.00,0.9857
7227.00,0.9939
7226.00,1.0017
7225.00,1.0095
7224.00,1.0174
7223.00,1.0255
7222.00,1.0337
7221.00,1.0417
7220.00,1.0495
7219.00,1.0567
7218.00,1.0636
7217.00,1.0702
7216.00,1.0767
7215.00,1.0831
7214.00,1.0892
7213.00,1.0954
7212.00,1.1019
7211.00,1.1086
7210.00,1.1149
7209.00,1.1204
7208.00,1.1251
7207.00,1.1295
7206.00,1.1338
7205.00,1.1380
7204.00,1.1415
7203.00,1.1442
7202.00,1.1462
7201.00,1.1480
7200.00,1.1497
7199.00,1.1516
7198.00,1.1534
7197.00,1.1551
7196.00,1.1567
7195.00,1.1584
7194.00,1.1601
7193.00,1.1613
7192.00,1.1616
7191.00,1.1612
7190.00,1.1604
7189.00,1.1592
7188.00,1.1574
7187.00,1.1552
7186.00,1.1531
7185.00,1.1507
7184.00,1.1476
7183.00,1.1438
7182.00,1.1398
7181.00,1.1359
7180.00,1.1320
7179.00,1.1278
7178.00,1.1234
7177.00,1.1192
7176.00,1.1153
7175.00,1.1112
7174.00,1.1064
7173.00,1.1008
7172.00,1.0945
7171.00,1.0875
7170.00,1.0798
7169.00,1.0715
7168.00,1.0631
7167.00,1.0549
7166.00,1.0471
7165.00,1.0393
7164.00,1.0313
7163.00,1.0228
7162.00,1.0139
7161.00,1.0047
7160.00,0.9951
7159.00,0.9848
7158.00,0.9743
7157.00,0.9639
7156.00,0.9539
7155.00,0.9444
7154.00,0.9350
7153.00,0.9258
7152.00,0.9165
7151.00,0.9073
7150.00,0.8982
7149.00,0.8892
7148.00,0.8802
7147.00,0.8712
7146.00,0.8624
7145.00,0.8540
7144.00,0.8461
7143.00,0.8388
7142.00,0.8319
7141.00,0.8254
7140.00,0.8193
7139.00,0.8133
7138.00,0.8077
7137.00,0.8024
7136.00,0.7976
7135.00,0.7936
7134.00,0.7902
7133.00,0.7876
7132.00,0.7856
7131.00,0.7842
7130.00,0.7833
7129.00,0.7828
7128.00,0.7828
7127.00,0.7833
7126.00,0.7843
7125.00,0.7860
7124.00,0.7884
7123.00,0.7915
7122.00,0.7951
7121.00,0.7991
7120.00,0.8034
7119.00,0.8082
7118.00,0.8137
7117.00,0.8198
7116.00,0.8263
7115.00,0.8330
7114.00,0.8401
7113.00,0.8477
7112.00,0.8557
7111.00,0.8639
7110.00,0.8718
7109.00,0.8796
7108.00,0.8876
7107.00,0.8960
7106.00,0.9047
7105.00,0.9135
7104.00,0.9224
7103.00,0.9315
7102.00,0.9409
7101.00,0.9506
7100.00,0.9604
7099.00,0.9700
7098.00,0.9794
7097.00,0.9885
7096.00,0.9977
7095.00,1.0071
7094.00,1.0163
7093.00,1.0249
7092.00,1.0330
7091.00,1.0408
7090.00,1.0489
7089.00,1.0573
7088.00,1.0659
7087.00,1.0746
7086.00,1.0833
7085.00,1.0919
7084.00,1.1000
7083.00,1.1073
7082.00,1.1139
7081.00,1.1199
7080.00,1.1258
7079.00,1.1320
7078.00,1.1384
7077.00,1.1449
7076.00,1.1509
7075.00,1.1564
7074.00,1.1614
7073.00,1.1660
7072.00,1.1703
7071.00,1.1742
7070.00,1.1778
7069.00,1.1809
7068.00,1.1839
7067.00,1.1870
7066.00,1.1902
7065.00,1.1930
7064.00,1.1952
7063.00,1.1968
7062.00,1.1983
7061.00,1.1998
7060.00,1.2009
7059.00,1.2011
7058.00,1.2007
7057.00,1.1999
7056.00,1.1987
7055.00,1.1969
7054.00,1.1945
7053.00,1.1915
7052.00,1.1883
7051.00,1.1851
7050.00,1.1818
7049.00,1.1781
7048.00,1.1740
7047.00,1.1697
7046.00,1.1651
7045.00,1.1602
7044.00,1.1550
7043.00,1.1491
7042.00,1.1427
7041.00,1.1355
7040.00,1.1277
7039.00,1.1196
7038.00,1.1113
7037.00,1.1029
7036.00,1.0941
7035.00,1.0851
7034.00,1.0761
7033.00,1.0670
7032.00,1.0576
7031.00,1.0478
7030.00,1.0379
7029.00,1.0282
7028.00,1.0184
7027.00,1.0083
7026.00,0.9977
7025.00,0.9872
7024.00,0.9768
7023.00,0.9665
7022.00,0.9562
7021.00,0.9458
7020.00,0.9353
7019.00,0.9250
7018.00,0.9147
7017.00,0.9043
7016.00,0.8941
7015.00,0.8840
7014.00,0.8743
7013.00,0.8651
7012.00,0.8566
7011.00,0.8486
7010.00,0.8412
7009.00,0.8342
7008.00,0.8274
7007.00,0.8209
7006.00,0.8148
7005.00,0.8094
7004.00,0.8044
7003.00,0.7999
7002.00,0.7959
7001.00,0.7926
7000.00,0.7900
6999.00,0.7881
6998.00,0.7869
6997.00,0.7864
6996.00,0.7865
6995.00,0.7871
6994.00,0.7882
6993.00,0.7901
6992.00,0.7926
6991.00,0.7958
6990.00,0.7994
6989.00,0.8034
6988.00,0.8079
6987.00,0.8129
6986.00,0.8183
6985.00,0.8242
6984.00,0.8304
6983.00,0.8371
6982.00,0.8443
6981.00,0.8518
6980.00,0.8596
6979.00,0.8676
6978.00,0.8758
6977.00,0.8843
6976.00,0.8928
6975.00,0.9014
6974.00,0.9103
6973.00,0.9195
6972.00,0.9287
6971.00,0.9378
6970.00,0.9470
6969.00,0.9563
6968.00,0.9658
6967.00,0.9753
6966.00,0.9848
6965.00,0.9945
6964.00,1.0041
6963.00,1.0135
6962.00,1.0225
6961.00,1.0312
6960.00,1.0397
6959.00,1.0477
6958.00,1.0553
6957.00,1.0628
6956.00,1.0704
6955.00,1.0781
6954.00,1.0858
6953.00,1.0935
6952.00,1.1011
6951.00,1.1086
6950.00,1.1157
6949.00,1.1227
6948.00,1.1295
6947.00,1.1359
6946.00,1.1417
6945.00,1.1471
6944.00,1.1524
6943.00,1.1572
6942.00,1.1614
6941.00,1.1654
6940.00,1.1693
6939.00,1.1731
6938.00,1.1764
6937.00,1.1793
6936.00,1.1819
6935.00,1.1844
6934.00,1.1868
6933.00,1.1888
6932.00,1.1903
6931.00,1.1912
6930.00,1.1915
6929.00,1.1914
6928.00,1.1910
6927.00,1.1903
6926.00,1.1892
6925.00,1.1880
6924.00,1.1867
6923.00,1.1852
6922.00,1.1831
6921.00,1.1805
6920.00,1.1775
6919.00,1.1740
6918.00,1.1700
6917.00,1.1657
6916.00,1.1612
6915.00,1.1566
6914.00,1.1519
6913.00,1.1468
6912.00,1.1412
6911.00,1.1353
6910.00,1.1290
6909.00,1.1222
6908.00,1.1150
6907.00,1.1071
6906.00,1.0988
6905.00,1.0900
6904.00,1.0811
6903.00,1.0722
6902.00,1.0633
6901.00,1.0544
6900.00,1.0454
6899.00,1.0363
6898.00,1.0269
6897.00,1.0174
6896.00,1.0074
6895.00,0.9969
6894.00,0.9860
6893.00,0.9752
6892.00,0.9646
6891.00,0.9541
6890.00,0.9436
6889.00,0.9329
6888.00,0.9222
6887.00,0.9119
6886.00,0.9020
6885.00,0.8923
6884.00,0.8827
6883.00,0.8733
6882.00,0.8641
6881.00,0.8551
6880.00,0.8465
6879.00,0.8383
6878.00,0.8306
6877.00,0.8234
6876.00,0.8166
6875.00,0.8103
6874.00,0.8045
6873.00,0.7993
6872.00,0.7947
6871.00,0.7905
6870.00,0.7871
6869.00,0.7843
6868.00,0.7822
6867.00,0.7807
6866.00,0.7796
6865.00,0.7788
6864.00,0.7786
6863.00,0.7789
6862.00,0.7802
6861.00,0.7823
6860.00,0.7851
6859.00,0.7883
6858.00,0.7922
6857.00,0.7967
6856.00,0.8017
6855.00,0.8071
6854.00,0.8129
6853.00,0.8194
6852.00,0.8264
6851.00,0.8337
6850.00,0.8411
6849.00,0.8487
6848.00,0.8566
6847.00,0.8649
6846.00,0.8739
6845.00,0.8832
6844.00,0.8926
6843.00,0.9020
6842.00,0.9116
6841.00,0.9213
6840.00,0.9308
6839.00,0.9400
6838.00,0.9490
6837.00,0.9582
6836.00,0.9677
6835.00,0.9774
6834.00,0.9871
6833.00,0.9967
6832.00,1.0063
6831.00,1.0159
6830.00,1.0256
6829.00,1.0352
6828.00,1.0445
6827.00,1.0534
6826.00,1.0621
6825.00,1.0708
6824.00,1.0793
6823.00,1.0877
6822.00,1.0959
6821.00,1.1041
6820.00,1.1122
6819.00,1.1201
6818.00,1.1278
6817.00,1.1352
6816.00,1.1423
6815.00,1.1490
6814.00,1.1554
6813.00,1.1613
6812.00,1.1669
6811.00,1.1720
6810.00,1.1770
6809.00,1.1817
6808.00,1.1861
6807.00,1.1903
6806.00,1.1946
6805.00,1.1989
6804.00,1.2029
6803.00,1.2060
6802.00,1.2084
6801.00,1.2102
6800.00,1.2116
6799.00,1.2125
6798.00,1.2129
6797.00,1.2130
6796.00,1.2129
6795.00,1.2128
6794.00,1.2124
6793.00,1.2115
6792.00,1.2099
6791.00,1.2078
6790.00,1.2057
6789.00,1.2037
6788.00,1.2014
6787.00,1.1983
6786.00,1.1948
6785.00,1.1912
6784.00,1.1873
6783.00,1.1826
6782.00,1.1771
6781.00,1.1712
6780.00,1.1650
6779.00,1.1582
6778.00,1.1508
6777.00,1.1431
6776.00,1.1353
6775.00,1.1275
6774.00,1.1193
6773.00,1.1109
6772.00,1.1024
6771.00,1.0935
6770.00,1.0840
6769.00,1.0739
6768.00,1.0636
6767.00,1.0532
6766.00,1.0428
6765.00,1.0321
6764.00,1.0212
6763.00,1.0101
6762.00,0.9989
6761.00,0.9876
6760.00,0.9764
6759.00,0.9653
6758.00,0.9545
6757.00,0.9440
6756.00,0.9334
6755.00,0.9229
6754.00,0.9126
6753.00,0.9024
6752.00,0.8922
6751.00,0.8821
6750.00,0.8722
6749.00,0.8626
6748.00,0.8534
6747.00,0.8446
6746.00,0.8362
6745.00,0.8283
6744.00,0.8211
6743.00,0.8145
6742.00,0.8085
6741.00,0.8031
6740.00,0.7984
6739.00,0.7940
6738.00,0.7901
6737.00,0.7866
6736.00,0.7838
6735.00,0.7818
6734.00,0.7808
6733.00,0.7806
6732.00,0.7811
6731.00,0.7821
6730.00,0.7836
6729.00,0.7856
6728.00,0.7882
6727.00,0.7914
6726.00,0.7954
6725.00,0.8000
6724.00,0.8053
6723.00,0.8111
6722.00,0.8172
6721.00,0.8236
6720.00,0.8302
6719.00,0.8371
6718.00,0.8445
6717.00,0.8524
6716.00,0.8609
6715.00,0.8698
6714.00,0.8788
6713.00,0.8876
6712.00,0.8965
6711.00,0.9059
6710.00,0.9155
6709.00,0.9252
6708.00,0.9347
6707.00,0.9441
6706.00,0.9538
6705.00,0.9638
6704.00,0.9738
6703.00,0.9836
6702.00,0.9931
6701.00,1.0027
6700.00,1.0122
6699.00,1.0216
6698.00,1.0308
6697.00,1.0398
6696.00,1.0487
6695.00,1.0575
6694.00,1.0665
6693.00,1.0756
6692.00,1.0845
6691.00,1.0930
6690.00,1.1010
6689.00,1.1089
6688.00,1.1169
6687.00,1.1248
6686.00,1.1321
6685.00,1.1387
6684.00,1.1448
6683.00,1.1508
6682.00,1.1566
6681.00,1.1623
6680.00,1.1678
6679.00,1.1731
6678.00,1.1779
6677.00,1.1820
6676.00,1.1857
6675.00,1.1889
6674.00,1.1917
6673.00,1.1941
6672.00,1.1964
6671.00,1.1988
6670.00,1.2014
6669.00,1.2036
6668.00,1.2050
6667.00,1.2056
6666.00,1.2058
6665.00,1.2059
6664.00,1.2058
6663.00,1.2053
6662.00,1.2042
6661.00,1.2026
6660.00,1.2007
6659.00,1.1983
6658.00,1.1952
6657.00,1.1917
6656.00,1.1881
6655.00,1.1845
6654.00,1.1807
6653.00,1.1765
6652.00,1.1716
6651.00,1.1662
6650.00,1.1606
6649.00,1.1548
6648.00,1.1485
6647.00,1.1418
6646.00,1.1348
6645.00,1.1274
6644.00,1.1197
6643.00,1.1115
6642.00,1.1031
6641.00,1.0947
6640.00,1.0864
6639.00,1.0778
6638.00,1.0689
6637.00,1.0596
6636.00,1.0501
6635.00,1.0404
6634.00,1.0303
6633.00,1.0198
6632.00,1.0090
6631.00,0.9982
6630.00,0.9874
6629.00,0.9765
6628.00,0.9655
6627.00,0.9545
6626.00,0.9435
6625.00,0.9328
6624.00,0.9221
6623.00,0.9112
6622.00,0.9003
6621.00,0.8897
6620.00,0.8796
6619.00,0.8700
6618.00,0.8605
6617.00,0.8513
6616.00,0.8426
6615.00,0.8344
6614.00,0.8266
6613.00,0.8190
6612.00,0.8118
6611.00,0.8050
6610.00,0.7987
6609.00,0.7931
6608.00,0.7881
6607.00,0.7838
6606.00,0.7803
6605.00,0.7775
6604.00,0.7754
6603.00,0.7739
6602.00,0.7732
6601.00,0.7730
6600.00,0.7733
6599.00,0.7740
6598.00,0.7756
6597.00,0.7779
6596.00,0.7810
6595.00,0.7846
6594.00,0.7888
6593.00,0.7938
6592.00,0.7994
6591.00,0.8056
6590.00,0.8122
6589.00,0.8191
6588.00,0.8264
6587.00,0.8342
6586.00,0.8424
6585.00,0.8508
6584.00,0.8594
6583.00,0.8683
6582.00,0.8775
6581.00,0.8870
6580.00,0.8966
6579.00,0.9061
6578.00,0.9158
6577.00,0.9257
6576.00,0.9358
6575.00,0.9461
6574.00,0.9565
6573.00,0.9670
6572.00,0.9776
6571.00,0.9881
6570.00,0.9987
6569.00,1.0091
6568.00,1.0191
6567.00,1.0289
6566.00,1.0387
6565.00,1.0484
6564.00,1.0579
6563.00,1.0672
6562.00,1.0762
6561.00,1.0852
6560.00,1.0940
6559.00,1.1028
6558.00,1.1118
6557.00,1.1209
6556.00,1.1298
6555.00,1.1381
6554.00,1.1461
6553.00,1.1536
6552.00,1.1607
6551.00,1.1674
6550.00,1.1737
6549.00,1.1797
6548.00,1.1855
6547.00,1.1910
6546.00,1.1960
6545.00,1.2008
6544.00,1.2053
6543.00,1.2095
6542.00,1.2135
6541.00,1.2171
6540.00,1.2202
6539.00,1.2227
6538.00,1.2247
6537.00,1.2267
6536.00,1.2288
6535.00,1.2307
6534.00,1.2324
6533.00,1.2337
6532.00,1.2346
6531.00,1.2350
6530.00,1.2345
6529.00,1.2331
6528.00,1.2313
6527.00,1.2295
6526.00,1.2280
6525.00,1.2264
6524.00,1.2241
6523.00,1.2211
6522.00,1.2175
6521.00,1.2135
6520.00,1.2088
6519.00,1.2031
6518.00,1.1966
6517.00,1.1902
6516.00,1.1841
6515.00,1.1778
6514.00,1.1709
6513.00,1.1632
6512.00,1.1551
6511.00,1.1465
6510.00,1.1373
6509.00,1.1275
6508.00,1.1174
6507.00,1.1072
6506.00,1.0970
6505.00,1.0868
6504.00,1.0765
6503.00,1.0659
6502.00,1.0549
6501.00,1.0436
6500.00,1.0321
6499.00,1.0204
6498.00,1.0086
6497.00,0.9965
6496.00,0.9844
6495.00,0.9725
6494.00,0.9607
6493.00,0.9491
6492.00,0.9376
6491.00,0.9261
6490.00,0.9148
6489.00,0.9037
6488.00,0.8929
6487.00,0.8823
6486.00,0.8720
6485.00,0.8621
6484.00,0.8526
6483.00,0.8435
6482.00,0.8348
6481.00,0.8267
6480.00,0.8192
6479.00,0.8123
6478.00,0.8058
6477.00,0.7999
6476.00,0.7946
6475.00,0.7899
6474.00,0.7858
6473.00,0.7825
6472.00,0.7799
6471.00,0.7781
6470.00,0.7771
6469.00,0.7767
6468.00,0.7770
6467.00,0.7781
6466.00,0.7800
6465.00,0.7827
6464.00,0.7860
6463.00,0.7900
6462.00,0.7945
6461.00,0.7996
6460.00,0.8051
6459.00,0.8109
6458.00,0.8172
6457.00,0.8240
6456.00,0.8314
6455.00,0.8394
6454.00,0.8478
6453.00,0.8565
6452.00,0.8654
6451.00,0.8744
6450.00,0.8835
6449.00,0.8928
6448.00,0.9024
6447.00,0.9124
6446.00,0.9226
6445.00,0.9333
6444.00,0.9441
6443.00,0.9549
6442.00,0.9654
6441.00,0.9755
6440.00,0.9854
6439.00,0.9952
6438.00,1.0052
6437.00,1.0153
6436.00,1.0254
6435.00,1.0356
6434.00,1.0459
6433.00,1.0561
6432.00,1.0659
6431.00,1.0752
6430.00,1.0843
6429.00,1.0934
6428.00,1.1024
6427.00,1.1109
6426.00,1.1191
6425.00,1.1270
6424.00,1.1348
6423.00,1.1425
6422.00,1.1499
6421.00,1.1570
6420.00,1.1637
6419.00,1.1700
6418.00,1.1759
6417.00,1.1816
6416.00,1.1869
6415.00,1.1919
6414.00,1.1967
6413.00,1.2014
6412.00,1.2059
6411.00,1.2101
6410.00,1.2136
6409.00,1.2164
6408.00,1.2187
6407.00,1.2207
6406.00,1.2227
6405.00,1.2245
6404.00,1.2263
6403.00,1.2276
6402.00,1.2284
6401.00,1.2283
6400.00,1.2272
6399.00,1.2255
6398.00,1.2233
6397.00,1.2210
6396.00,1.2190
6395.00,1.2174
6394.00,1.2158
6393.00,1.2136
6392.00,1.2105
6391.00,1.2063
6390.00,1.2014
6389.00,1.1960
6388.00,1.1904
6387.00,1.1848
6386.00,1.1793
6385.00,1.1736
6384.00,1.1675
6383.00,1.1609
6382.00,1.1542
6381.00,1.1471
6380.00,1.1395
6379.00,1.1313
6378.00,1.1227
6377.00,1.1138
6376.00,1.1044
6375.00,1.0946
6374.00,1.0845
6373.00,1.0743
6372.00,1.0639
6371.00,1.0533
6370.00,1.0425
6369.00,1.0317
6368.00,1.0207
6367.00,1.0097
6366.00,0.9985
6365.00,0.9872
6364.00,0.9757
6363.00,0.9642
6362.00,0.9526
6361.00,0.9412
6360.00,0.9298
6359.00,0.9185
6358.00,0.9073
6357.00,0.8963
6356.00,0.8854
6355.00,0.8747
6354.00,0.8641
6353.00,0.8539
6352.00,0.8441
6351.00,0.8348
6350.00,0.8259
6349.00,0.8176
6348.00,0.8099
6347.00,0.8029
6346.00,0.7967
6345.00,0.7911
6344.00,0.7862
6343.00,0.7818
6342.00,0.7781
6341.00,0.7752
6340.00,0.7730
6339.00,0.7715
6338.00,0.7707
6337.00,0.7707
6336.00,0.7713
6335.00,0.7726
6334.00,0.7746
6333.00,0.7774
6332.00,0.7808
6331.00,0.7850
6330.00,0.7899
6329.00,0.7955
6328.00,0.8017
6327.00,0.8084
6326.00,0.8156
6325.00,0.8231
6324.00,0.8310
6323.00,0.8392
6322.00,0.8480
6321.00,0.8572
6320.00,0.8667
6319.00,0.8766
6318.00,0.8866
6317.00,0.8969
6316.00,0.9073
6315.00,0.9177
6314.00,0.9283
6313.00,0.9391
6312.00,0.9500
6311.00,0.9607
6310.00,0.9714
6309.00,0.9821
6308.00,0.9928
6307.00,1.0036
6306.00,1.0144
6305.00,1.0251
6304.00,1.0357
6303.00,1.0461
6302.00,1.0563
6301.00,1.0664
6300.00,1.0764
6299.00,1.0864
6298.00,1.0965
6297.00,1.1065
6296.00,1.1160
6295.00,1.1249
6294.00,1.1334
6293.00,1.1420
6292.00,1.1507
6291.00,1.1592
6290.00,1.1675
6289.00,1.1754
6288.00,1.1830
6287.00,1.1904
6286.00,1.1973
6285.00,1.2036
6284.00,1.2092
6283.00,1.2146
6282.00,1.2201
6281.00,1.2255
6280.00,1.2307
6279.00,1.2354
6278.00,1.2398
6277.00,1.2440
6276.00,1.2478
6275.00,1.2507
6274.00,1.2528
6273.00,1.2544
6272.00,1.2559
6271.00,1.2574
6270.00,1.2586
6269.00,1.2592
6268.00,1.2593
6267.00,1.2590
6266.00,1.2583
6265.00,1.2569
6264.00,1.2550
6263.00,1.2527
6262.00,1.2500
6261.00,1.2467
6260.00,1.2431
6259.00,1.2391
6258.00,1.2351
6257.00,1.2309
6256.00,1.2264
6255.00,1.2215
6254.00,1.2162
6253.00,1.2102
6252.00,1.2035
6251.00,1.1961
6250.00,1.1880
6249.00,1.1794
6248.00,1.1705
6247.00,1.1612
6246.00,1.1516
6245.00,1.1418
6244.00,1.1316
6243.00,1.1210
6242.00,1.1104
6241.00,1.0998
6240.00,1.0889
6239.00,1.0775
6238.00,1.0658
6237.00,1.0537
6236.00,1.0414
6235.00,1.0287
6234.00,1.0160
6233.00,1.0034
6232.00,0.9910
6231.00,0.9786
6230.00,0.9662
6229.00,0.9539
6228.00,0.9416
6227.00,0.9293
6226.00,0.9170
6225.00,0.9050
6224.00,0.8934
6223.00,0.8823
6222.00,0.8717
6221.00,0.8614
6220.00,0.8512
6219.00,0.8413
6218.00,0.8318
6217.00,0.8227
6216.00,0.8142
6215.00,0.8064
6214.00,0.7994
6213.00,0.7934
6212.00,0.7882
6211.00,0.7837
6210.00,0.7798
6209.00,0.7766
6208.00,0.7741
6207.00,0.7723
6206.00,0.7715
6205.00,0.7714
6204.00,0.7720
6203.00,0.7734
6202.00,0.7756
6201.00,0.7785
6200.00,0.7822
6199.00,0.7865
6198.00,0.7915
6197.00,0.7971
6196.00,0.8034
6195.00,0.8102
6194.00,0.8175
6193.00,0.8254
6192.00,0.8338
6191.00,0.8426
6190.00,0.8517
6189.00,0.8610
6188.00,0.8705
6187.00,0.8803
6186.00,0.8903
6185.00,0.9005
6184.00,0.9108
6183.00,0.9214
6182.00,0.9323
6181.00,0.9433
6180.00,0.9541
6179.00,0.9648
6178.00,0.9756
6177.00,0.9865
6176.00,0.9974
6175.00,1.0080
6174.00,1.0186
6173.00,1.0293
6172.00,1.0400
6171.00,1.0507
6170.00,1.0611
6169.00,1.0712
6168.00,1.0811
6167.00,1.0908
6166.00,1.1004
6165.00,1.1096
6164.00,1.1186
6163.00,1.1275
6162.00,1.1362
6161.00,1.1446
6160.00,1.1528
6159.00,1.1606
6158.00,1.1682
6157.00,1.1755
6156.00,1.1822
6155.00,1.1884
6154.00,1.1944
6153.00,1.2002
6152.00,1.2059
6151.00,1.2111
6150.00,1.2159
6149.00,1.2204
6148.00,1.2247
6147.00,1.2285
6146.00,1.2319
6145.00,1.2350
6144.00,1.2381
6143.00,1.2413
6142.00,1.2442
6141.00,1.2467
6140.00,1.2484
6139.00,1.2496
6138.00,1.2502
6137.00,1.2502
6136.00,1.2495
6135.00,1.2485
6134.00,1.2474
6133.00,1.2465
6132.00,1.2455
6131.00,1.2441
6130.00,1.2424
6129.00,1.2401
6128.00,1.2374
6127.00,1.2341
6126.00,1.2303
6125.00,1.2257
6124.00,1.2205
6123.00,1.2147
6122.00,1.2086
6121.00,1.2022
6120.00,1.1956
6119.00,1.1889
6118.00,1.1819
6117.00,1.1744
6116.00,1.1661
6115.00,1.1573
6114.00,1.1480
6113.00,1.1383
6112.00,1.1284
6111.00,1.1182
6110.00,1.1081
6109.00,1.0978
6108.00,1.0870
6107.00,1.0757
6106.00,1.0642
6105.00,1.0524
6104.00,1.0402
6103.00,1.0277
6102.00,1.0150
6101.00,1.0024
6100.00,0.9896
6099.00,0.9769
6098.00,0.9642
6097.00,0.9517
6096.00,0.9392
6095.00,0.9267
6094.00,0.9143
6093.00,0.9021
6092.00,0.8903
6091.00,0.8786
6090.00,0.8673
6089.00,0.8564
6088.00,0.8459
6087.00,0.8360
6086.00,0.8267
6085.00,0.8179
6084.00,0.8099
6083.00,0.8025
6082.00,0.7959
6081.00,0.7900
6080.00,0.7848
6079.00,0.7802
6078.00,0.7762
6077.00,0.7731
6076.00,0.7707
6075.00,0.7690
6074.00,0.7682
6073.00,0.7684
6072.00,0.7696
6071.00,0.7716
6070.00,0.7743
6069.00,0.7778
6068.00,0.7821
6067.00,0.7870
6066.00,0.7925
6065.00,0.7987
6064.00,0.8054
6063.00,0.8125
6062.00,0.8203
6061.00,0.8286
6060.00,0.8373
6059.00,0.8465
6058.00,0.8560
6057.00,0.8660
6056.00,0.8763
6055.00,0.8868
6054.00,0.8976
6053.00,0.9085
6052.00,0.9196
6051.00,0.9309
6050.00,0.9421
6049.00,0.9535
6048.00,0.9650
6047.00,0.9766
6046.00,0.9883
6045.00,1.0000
6044.00,1.0116
6043.00,1.0232
6042.00,1.0348
6041.00,1.0463
6040.00,1.0577
6039.00,1.0690
6038.00,1.0802
6037.00,1.0912
6036.00,1.1019
6035.00,1.1124
6034.00,1.1227
6033.00,1.1329
6032.00,1.1427
6031.00,1.1521
6030.00,1.1611
6029.00,1.1698
6028.00,1.1781
6027.00,1.1862
6026.00,1.1940
6025.00,1.2019
6024.00,1.2098
6023.00,1.2174
6022.00,1.2246
6021.00,1.2312
6020.00,1.2374
6019.00,1.2432
6018.00,1.2487
6017.00,1.2539
6016.00,1.2586
6015.00,1.2627
6014.00,1.2662
6013.00,1.2691
6012.00,1.2716
6011.00,1.2739
6010.00,1.2762
6009.00,1.2786
6008.00,1.2808
6007.00,1.2822
6006.00,1.2828
6005.00,1.2827
6004.00,1.2820
6003.00,1.2811
6002.00,1.2802
6001.00,1.2790
6000.00,1.2772
5999.00,1.2747
5998.00,1.2716
5997.00,1.2678
5996.00,1.2637
5995.00,1.2593
5994.00,1.2548
5993.00,1.2500
5992.00,1.2446
5991.00,1.2383
5990.00,1.2314
5989.00,1.2242
5988.00,1.2169
5987.00,1.2094
5986.00,1.2017
5985.00,1.1938
5984.00,1.1853
5983.00,1.1762
5982.00,1.1663
5981.00,1.1560
5980.00,1.1453
5979.00,1.1344
5978.00,1.1231
5977.00,1.1116
5976.00,1.0998
5975.00,1.0876
5974.00,1.0750
5973.00,1.0622
5972.00,1.0491
5971.00,1.0361
5970.00,1.0230
5969.00,1.0097
5968.00,0.9963
5967.00,0.9830
5966.00,0.9699
5965.00,0.9568
5964.00,0.9439
5963.00,0.9310
5962.00,0.9183
5961.00,0.9058
5960.00,0.8934
5959.00,0.8811
5958.00,0.8694
5957.00,0.8583
5956.00,0.8478
5955.00,0.8378
5954.00,0.8285
5953.00,0.8199
5952.00,0.8118
5951.00,0.8042
5950.00,0.7973
5949.00,0.7912
5948.00,0.7858
5947.00,0.7813
5946.00,0.7776
5945.00,0.7748
5944.00,0.7730
5943.00,0.7719
5942.00,0.7716
5941.00,0.7722
5940.00,0.7736
5939.00,0.7758
5938.00,0.7788
5937.00,0.7827
5936.00,0.7873
5935.00,0.7927
5934.00,0.7988
5933.00,0.8055
5932.00,0.8129
5931.00,0.8208
5930.00,0.8293
5929.00,0.8384
5928.00,0.8479
5927.00,0.8578
5926.00,0.8680
5925.00,0.8786
5924.00,0.8895
5923.00,0.9006
5922.00,0.9118
5921.00,0.9233
5920.00,0.9349
5919.00,0.9468
5918.00,0.9588
5917.00,0.9709
5916.00,0.9832
5915.00,0.9955
5914.00,1.0076
5913.00,1.0195
5912.00,1.0312
5911.00,1.0428
5910.00,1.0544
5909.00,1.0660
5908.00,1.0777
5907.00,1.0894
5906.00,1.1011
5905.00,1.1125
5904.00,1.1235
5903.00,1.1342
5902.00,1.1446
5901.00,1.1549
5900.00,1.1650
5899.00,1.1749
5898.00,1.1844
5897.00,1.1935
5896.00,1.2023
5895.00,1.2110
5894.00,1.2195
5893.00,1.2276
5892.00,1.2355
5891.00,1.2432
5890.00,1.2505
5889.00,1.2573
5888.00,1.2634
5887.00,1.2690
5886.00,1.2744
5885.00,1.2795
5884.00,1.2844
5883.00,1.2888
5882.00,1.2928
5881.00,1.2966
5880.00,1.3000
5879.00,1.3029
5878.00,1.3053
5877.00,1.3071
5876.00,1.3083
5875.00,1.3091
5874.00,1.3095
5873.00,1.3095
5872.00,1.3092
5871.00,1.3086
5870.00,1.3075
5869.00,1.3058
5868.00,1.3036
5867.00,1.3009
5866.00,1.2979
5865.00,1.2946
5864.00,1.2909
5863.00,1.2868
5862.00,1.2824
5861.00,1.2775
5860.00,1.2721
5859.00,1.2662
5858.00,1.2597
5857.00,1.2529
5856.00,1.2456
5855.00,1.2378
5854.00,1.2294
5853.00,1.2206
5852.00,1.2114
5851.00,1.2017
5850.00,1.1916
5849.00,1.1811
5848.00,1.1702
5847.00,1.1589
5846.00,1.1474
5845.00,1.1357
5844.00,1.1239
5843.00,1.1119
5842.00,1.0997
5841.00,1.0871
5840.00,1.0741
5839.00,1.0607
5838.00,1.0470
5837.00,1.0331
5836.00,1.0193
5835.00,1.0055
5834.00,0.9920
5833.00,0.9786
5832.00,0.9653
5831.00,0.9521
5830.00,0.9391
5829.00,0.9263
5828.00,0.9137
5827.00,0.9013
5826.00,0.8893
5825.00,0.8778
5824.00,0.8668
5823.00,0.8565
5822.00,0.8467
5821.00,0.8376
5820.00,0.8291
5819.00,0.8212
5818.00,0.8140
5817.00,0.8077
5816.00,0.8020
5815.00,0.7971
5814.00,0.7931
5813.00,0.7899
5812.00,0.7876
5811.00,0.7861
5810.00,0.7855
5809.00,0.7857
5808.00,0.7868
5807.00,0.7885
5806.00,0.7911
5805.00,0.7945
5804.00,0.7988
5803.00,0.8040
5802.00,0.8100
5801.00,0.8166
5800.00,0.8238
5799.00,0.8314
5798.00,0.8395
5797.00,0.8480
5796.00,0.8569
5795.00,0.8663
5794.00,0.8761
5793.00,0.8865
5792.00,0.8973
5791.00,0.9083
5790.00,0.9198
5789.00,0.9315
5788.00,0.9433
5787.00,0.9552
5786.00,0.9671
5785.00,0.9792
5784.00,0.9915
5783.00,1.0036
5782.00,1.0157
5781.00,1.0276
5780.00,1.0395
5779.00,1.0513
5778.00,1.0631
5777.00,1.0749
5776.00,1.0868
5775.00,1.0988
5774.00,1.1106
5773.00,1.1223
5772.00,1.1337
5771.00,1.1448
5770.00,1.1557
5769.00,1.1664
5768.00,1.1769
5767.00,1.1871
5766.00,1.1969
5765.00,1.2064
5764.00,1.2155
5763.00,1.2243
5762.00,1.2327
5761.00,1.2408
5760.00,1.2487
5759.00,1.2563
5758.00,1.2635
5757.00,1.2704
5756.00,1.2770
5755.00,1.2832
5754.00,1.2892
5753.00,1.2948
5752.00,1.3001
5751.00,1.3048
5750.00,1.3090
5749.00,1.3127
5748.00,1.3160
5747.00,1.3189
5746.00,1.3213
5745.00,1.3233
5744.00,1.3248
5743.00,1.3260
5742.00,1.3268
5741.00,1.3274
5740.00,1.3276
5739.00,1.3272
5738.00,1.3262
5737.00,1.3246
5736.00,1.3222
5735.00,1.3193
5734.00,1.3161
5733.00,1.3128
5732.00,1.3092
5731.00,1.3054
5730.00,1.3011
5729.00,1.2963
5728.00,1.2908
5727.00,1.2846
5726.00,1.2778
5725.00,1.2705
5724.00,1.2627
5723.00,1.2542
5722.00,1.2454
5721.00,1.2362
5720.00,1.2267
5719.00,1.2169
5718.00,1.2067
5717.00,1.1964
5716.00,1.1858
5715.00,1.1749
5714.00,1.1635
5713.00,1.1515
5712.00,1.1392
5711.00,1.1264
5710.00,1.1132
5709.00,1.0996
5708.00,1.0858
5707.00,1.0718
5706.00,1.0576
5705.00,1.0433
5704.00,1.0287
5703.00,1.0141
5702.00,0.9997
5701.00,0.9854
5700.00,0.9712
5699.00,0.9569
5698.00,0.9429
5697.00,0.9291
5696.00,0.9155
5695.00,0.9023
5694.00,0.8894
5693.00,0.8771
5692.00,0.8653
5691.00,0.8539
5690.00,0.8430
5689.00,0.8328
5688.00,0.8233
5687.00,0.8146
5686.00,0.8066
5685.00,0.7995
5684.00,0.7932
5683.00,0.7877
5682.00,0.7832
5681.00,0.7797
5680.00,0.7771
5679.00,0.7754
5678.00,0.7746
5677.00,0.7748
5676.00,0.7759
5675.00,0.7778
5674.00,0.7806
5673.00,0.7844
5672.00,0.7891
5671.00,0.7947
5670.00,0.8011
5669.00,0.8082
5668.00,0.8160
5667.00,0.8244
5666.00,0.8334
5665.00,0.8429
5664.00,0.8528
5663.00,0.8631
5662.00,0.8739
5661.00,0.8851
5660.00,0.8964
5659.00,0.9081
5658.00,0.9200
5657.00,0.9321
5656.00,0.9442
5655.00,0.9565
5654.00,0.9690
5653.00,0.9817
5652.00,0.9946
5651.00,1.0076
5650.00,1.0205
5649.00,1.0334
5648.00,1.0460
5647.00,1.0583
5646.00,1.0705
5645.00,1.0829
5644.00,1.0954
5643.00,1.1078
5642.00,1.1199
5641.00,1.1317
5640.00,1.1432
5639.00,1.1543
5638.00,1.1650
5637.00,1.1755
5636.00,1.1859
5635.00,1.1962
5634.00,1.2061
5633.00,1.2158
5632.00,1.2251
5631.00,1.2343
5630.00,1.2432
5629.00,1.2516
5628.00,1.2597
5627.00,1.2675
5626.00,1.2751
5625.00,1.2822
5624.00,1.2888
5623.00,1.2948
5622.00,1.3005
5621.00,1.3058
5620.00,1.3108
5619.00,1.3156
5618.00,1.3200
5617.00,1.3240
5616.00,1.3276
5615.00,1.3307
5614.00,1.3334
5613.00,1.3357
5612.00,1.3372
5611.00,1.3382
5610.00,1.3386
5609.00,1.3386
5608.00,1.3383
5607.00,1.3377
5606.00,1.3368
5605.00,1.3354
5604.00,1.3332
5603.00,1.3302
5602.00,1.3268
5601.00,1.3230
5600.00,1.3190
5599.00,1.3146
5598.00,1.3099
5597.00,1.3047
5596.00,1.2990
5595.00,1.2927
5594.00,1.2860
5593.00,1.2790
5592.00,1.2717
5591.00,1.2638
5590.00,1.2553
5589.00,1.2462
5588.00,1.2367
5587.00,1.2266
5586.00,1.2159
5585.00,1.2048
5584.00,1.1933
5583.00,1.1813
5582.00,1.1689
5581.00,1.1561
5580.00,1.1429
5579.00,1.1294
5578.00,1.1159
5577.00,1.1021
5576.00,1.0880
5575.00,1.0734
5574.00,1.0587
5573.00,1.0438
5572.00,1.0288
5571.00,1.0137
5570.00,0.9986
5569.00,0.9836
5568.00,0.9687
5567.00,0.9538
5566.00,0.9389
5565.00,0.9245
5564.00,0.9105
5563.00,0.8969
5562.00,0.8838
5561.00,0.8710
5560.00,0.8589
5559.00,0.8472
5558.00,0.8360
5557.00,0.8255
5556.00,0.8157
5555.00,0.8068
5554.00,0.7987
5553.00,0.7916
5552.00,0.7853
5551.00,0.7800
5550.00,0.7757
5549.00,0.7723
5548.00,0.7699
5547.00,0.7684
5546.00,0.7680
5545.00,0.7686
5544.00,0.7701
5543.00,0.7725
5542.00,0.7758
5541.00,0.7802
5540.00,0.7855
5539.00,0.7916
5538.00,0.7985
5537.00,0.8061
5536.00,0.8143
5535.00,0.8231
5534.00,0.8324
5533.00,0.8422
5532.00,0.8525
5531.00,0.8632
5530.00,0.8744
5529.00,0.8859
5528.00,0.8976
5527.00,0.9096
5526.00,0.9219
5525.00,0.9343
5524.00,0.9467
5523.00,0.9592
5522.00,0.9717
5521.00,0.9844
5520.00,0.9971
5519.00,1.0098
5518.00,1.0225
5517.00,1.0350
5516.00,1.0474
5515.00,1.0596
5514.00,1.0715
5513.00,1.0833
5512.00,1.0950
5511.00,1.1067
5510.00,1.1182
5509.00,1.1296
5508.00,1.1407
5507.00,1.1516
5506.00,1.1623
5505.00,1.1729
5504.00,1.1833
5503.00,1.1934
5502.00,1.2034
5501.00,1.2129
5500.00,1.2220
5499.00,1.2307
5498.00,1.2391
5497.00,1.2475
5496.00,1.2560
5495.00,1.2643
5494.00,1.2721
5493.00,1.2793
5492.00,1.2859
5491.00,1.2921
5490.00,1.2979
5489.00,1.3034
5488.00,1.3090
5487.00,1.3144
5486.00,1.3193
5485.00,1.3235
5484.00,1.3271
5483.00,1.3301
5482.00,1.3326
5481.00,1.3349
5480.00,1.3370
5479.00,1.3388
5478.00,1.3404
5477.00,1.3414
5476.00,1.3420
5475.00,1.3421
5474.00,1.3417
5473.00,1.3408
5472.00,1.3391
5471.00,1.3367
5470.00,1.3337
5469.00,1.3304
5468.00,1.3268
5467.00,1.3228
5466.00,1.3185
5465.00,1.3138
5464.00,1.3087
5463.00,1.3029
5462.00,1.2965
5461.00,1.2895
5460.00,1.2820
5459.00,1.2739
5458.00,1.2653
5457.00,1.2562
5456.00,1.2466
5455.00,1.2364
5454.00,1.2256
5453.00,1.2143
5452.00,1.2025
5451.00,1.1905
5450.00,1.1782
5449.00,1.1657
5448.00,1.1528
5447.00,1.1393
5446.00,1.1252
5445.00,1.1107
5444.00,1.0959
5443.00,1.0807
5442.00,1.0653
5441.00,1.0497
5440.00,1.0341
5439.00,1.0185
5438.00,1.0032
5437.00,0.9879
5436.00,0.9726
5435.00,0.9572
5434.00,0.9419
5433.00,0.9270
5432.00,0.9125
5431.00,0.8984
5430.00,0.8847
5429.00,0.8712
5428.00,0.8580
5427.00,0.8453
5426.00,0.8333
5425.00,0.8223
5424.00,0.8124
5423.00,0.8034
5422.00,0.7953
5421.00,0.7882
5420.00,0.7821
5419.00,0.7771
5418.00,0.7733
5417.00,0.7706
5416.00,0.7691
5415.00,0.7685
5414.00,0.7687
5413.00,0.7697
5412.00,0.7713
5411.00,0.7738
5410.00,0.7773
5409.00,0.7818
5408.00,0.7874
5407.00,0.7939
5406.00,0.8013
5405.00,0.8095
5404.00,0.8185
5403.00,0.8283
5402.00,0.8387
5401.00,0.8496
5400.00,0.8611
5399.00,0.8730
5398.00,0.8852
5397.00,0.8978
5396.00,0.9106
5395.00,0.9237
5394.00,0.9370
5393.00,0.9504
5392.00,0.9639
5391.00,0.9775
5390.00,0.9913
5389.00,1.0052
5388.00,1.0190
5387.00,1.0328
5386.00,1.0467
5385.00,1.0606
5384.00,1.0744
5383.00,1.0880
5382.00,1.1017
5381.00,1.1151
5380.00,1.1282
5379.00,1.1411
5378.00,1.1538
5377.00,1.1665
5376.00,1.1788
5375.00,1.1908
5374.00,1.2025
5373.00,1.2138
5372.00,1.2246
5371.00,1.2350
5370.00,1.2452
5369.00,1.2553
5368.00,1.2653
5367.00,1.2750
5366.00,1.2841
5365.00,1.2927
5364.00,1.3010
5363.00,1.3091
5362.00,1.3169
5361.00,1.3245
5360.00,1.3316
5359.00,1.3383
5358.00,1.3443
5357.00,1.3494
5356.00,1.3540
5355.00,1.3581
5354.00,1.3622
5353.00,1.3662
5352.00,1.3697
5351.00,1.3727
5350.00,1.3749
5349.00,1.3766
5348.00,1.3778
5347.00,1.3786
5346.00,1.3790
5345.00,1.3789
5344.00,1.3784
5343.00,1.3775
5342.00,1.3762
5341.00,1.3745
5340.00,1.3722
5339.00,1.3690
5338.00,1.3651
5337.00,1.3605
5336.00,1.3555
5335.00,1.3502
5334.00,1.3447
5333.00,1.3390
5332.00,1.3330
5331.00,1.3268
5330.00,1.3203
5329.00,1.3131
5328.00,1.3050
5327.00,1.2960
5326.00,1.2862
5325.00,1.2758
5324.00,1.2650
5323.00,1.2541
5322.00,1.2429
5321.00,1.2314
5320.00,1.2194
5319.00,1.2068
5318.00,1.1936
5317.00,1.1800
5316.00,1.1658
5315.00,1.1512
5314.00,1.1363
5313.00,1.1211
5312.00,1.1057
5311.00,1.0902
5310.00,1.0746
5309.00,1.0588
5308.00,1.0426
5307.00,1.0261
5306.00,1.0093
5305.00,0.9927
5304.00,0.9761
5303.00,0.9599
5302.00,0.9439
5301.00,0.9282
5300.00,0.9129
5299.00,0.8980
5298.00,0.8836
5297.00,0.8697
5296.00,0.8566
5295.00,0.8444
5294.00,0.8331
5293.00,0.8226
5292.00,0.8129
5291.00,0.8038
5290.00,0.7956
5289.00,0.7882
5288.00,0.7819
5287.00,0.7767
5286.00,0.7726
5285.00,0.7696
5284.00,0.7677
5283.00,0.7668
5282.00,0.7670
5281.00,0.7683
5280.00,0.7707
5279.00,0.7742
5278.00,0.7787
5277.00,0.7842
5276.00,0.7906
5275.00,0.7978
5274.00,0.8059
5273.00,0.8147
5272.00,0.8242
5271.00,0.8343
5270.00,0.8451
5269.00,0.8563
5268.00,0.8681
5267.00,0.8802
5266.00,0.8927
5265.00,0.9055
5264.00,0.9187
5263.00,0.9321
5262.00,0.9458
5261.00,0.9597
5260.00,0.9736
5259.00,0.9876
5258.00,1.0017
5257.00,1.0159
5256.00,1.0301
5255.00,1.0443
5254.00,1.0585
5253.00,1.0727
5252.00,1.0869
5251.00,1.1009
5250.00,1.1146
5249.00,1.1282
5248.00,1.1416
5247.00,1.1549
5246.00,1.1680
5245.00,1.1807
5244.00,1.1932
5243.00,1.2054
5242.00,1.2174
5241.00,1.2291
5240.00,1.2406
5239.00,1.2518
5238.00,1.2627
5237.00,1.2732
5236.00,1.2833
5235.00,1.2931
5234.00,1.3026
5233.00,1.3117
5232.00,1.3204
5231.00,1.3287
5230.00,1.3365
5229.00,1.3438
5228.00,1.3506
5227.00,1.3568
5226.00,1.3625
5225.00,1.3680
5224.00,1.3732
5223.00,1.3780
5222.00,1.3824
5221.00,1.3862
5220.00,1.3896
5219.00,1.3925
5218.00,1.3949
5217.00,1.3967
5216.00,1.3982
5215.00,1.3993
5214.00,1.3999
5213.00,1.4000
5212.00,1.3996
5211.00,1.3987
5210.00,1.3975
5209.00,1.3958
5208.00,1.3937
5207.00,1.3911
5206.00,1.3880
5205.00,1.3840
5204.00,1.3793
5203.00,1.3741
5202.00,1.3685
5201.00,1.3627
5200.00,1.3565
5199.00,1.3498
5198.00,1.3427
5197.00,1.3352
5196.00,1.3271
5195.00,1.3184
5194.00,1.3089
5193.00,1.2989
5192.00,1.2884
5191.00,1.2775
5190.00,1.2663
5189.00,1.2548
5188.00,1.2427
5187.00,1.2300
5186.00,1.2166
5185.00,1.2025
5184.00,1.1880
5183.00,1.1731
5182.00,1.1578
5181.00,1.1423
5180.00,1.1264
5179.00,1.1101
5178.00,1.0935
5177.00,1.0767
5176.00,1.0597
5175.00,1.0427
5174.00,1.0258
5173.00,1.0088
5172.00,0.9919
5171.00,0.9751
5170.00,0.9584
5169.00,0.9420
5168.00,0.9260
5167.00,0.9105
5166.00,0.8956
5165.00,0.8811
5164.00,0.8672
5163.00,0.8540
5162.00,0.8417
5161.00,0.8301
5160.00,0.8195
5159.00,0.8097
5158.00,0.8010
5157.00,0.7933
5156.00,0.7867
5155.00,0.7812
5154.00,0.7770
5153.00,0.7739
5152.00,0.7721
5151.00,0.7714
5150.00,0.7720
5149.00,0.7737
5148.00,0.7765
5147.00,0.7805
5146.00,0.7855
5145.00,0.7917
5144.00,0.7988
5143.00,0.8069
5142.00,0.8157
5141.00,0.8254
5140.00,0.8357
5139.00,0.8468
5138.00,0.8584
5137.00,0.8706
5136.00,0.8833
5135.00,0.8965
5134.00,0.9100
5133.00,0.9239
5132.00,0.9382
5131.00,0.9527
5130.00,0.9674
5129.00,0.9822
5128.00,0.9971
5127.00,1.0120
5126.00,1.0268
5125.00,1.0417
5124.00,1.0566
5123.00,1.0714
5122.00,1.0862
5121.00,1.1010
5120.00,1.1157
5119.00,1.1303
5118.00,1.1447
5117.00,1.1587
5116.00,1.1725
5115.00,1.1859
5114.00,1.1993
5113.00,1.2125
5112.00,1.2255
5111.00,1.2383
5110.00,1.2506
5109.00,1.2624
5108.00,1.2739
5107.00,1.2851
5106.00,1.2960
5105.00,1.3067
5104.00,1.3169
5103.00,1.3266
5102.00,1.3358
5101.00,1.3446
5100.00,1.3531
5099.00,1.3613
5098.00,1.3693
5097.00,1.3769
5096.00,1.3840
5095.00,1.3905
5094.00,1.3964
5093.00,1.4019
5092.00,1.4069
5091.00,1.4115
5090.00,1.4155
5089.00,1.4190
5088.00,1.4221
5087.00,1.4248
5086.00,1.4269
5085.00,1.4284
5084.00,1.4293
5083.00,1.4297
5082.00,1.4297
5081.00,1.4294
5080.00,1.4287
5079.00,1.4275
5078.00,1.4259
5077.00,1.4237
5076.00,1.4209
5075.00,1.4174
5074.00,1.4133
5073.00,1.4087
5072.00,1.4036
5071.00,1.3981
5070.00,1.3922
5069.00,1.3859
5068.00,1.3792
5067.00,1.3720
5066.00,1.3644
5065.00,1.3562
5064.00,1.3476
5063.00,1.3384
5062.00,1.3285
5061.00,1.3182
5060.00,1.3072
5059.00,1.2956
5058.00,1.2834
5057.00,1.2706
5056.00,1.2572
5055.00,1.2434
5054.00,1.2290
5053.00,1.2144
5052.00,1.1994
5051.00,1.1841
5050.00,1.1683
5049.00,1.1519
5048.00,1.1351
5047.00,1.1179
5046.00,1.1005
5045.00,1.0829
5044.00,1.0652
5043.00,1.0473
5042.00,1.0293
5041.00,1.0112
5040.00,0.9932
5039.00,0.9753
5038.00,0.9577
5037.00,0.9403
5036.00,0.9232
5035.00,0.9066
5034.00,0.8906
5033.00,0.8753
5032.00,0.8607
5031.00,0.8469
5030.00,0.8340
5029.00,0.8220
5028.00,0.8109
5027.00,0.8008
5026.00,0.7917
5025.00,0.7837
5024.00,0.7769
5023.00,0.7712
5022.00,0.7668
5021.00,0.7638
5020.00,0.7620
5019.00,0.7616
5018.00,0.7624
5017.00,0.7645
5016.00,0.7678
5015.00,0.7723
5014.00,0.7779
5013.00,0.7847
5012.00,0.7926
5011.00,0.8015
5010.00,0.8112
5009.00,0.8217
5008.00,0.8328
5007.00,0.8446
5006.00,0.8571
5005.00,0.8703
5004.00,0.8841
5003.00,0.8982
5002.00,0.9127
5001.00,0.9275
5000.00,0.9423
4999.00,0.9573
4998.00,0.9726
4997.00,0.9881
4996.00,1.0038
4995.00,1.0196
4994.00,1.0355
4993.00,1.0514
4992.00,1.0673
4991.00,1.0832
4990.00,1.0989
4989.00,1.1144
4988.00,1.1296
4987.00,1.1446
4986.00,1.1595
4985.00,1.1743
4984.00,1.1889
4983.00,1.2034
4982.00,1.2175
4981.00,1.2312
4980.00,1.2446
4979.00,1.2577
4978.00,1.2704
4977.00,1.2828
4976.00,1.2947
4975.00,1.3063
4974.00,1.3174
4973.00,1.3282
4972.00,1.3387
4971.00,1.3487
4970.00,1.3584
4969.00,1.3677
4968.00,1.3766
4967.00,1.3852
4966.00,1.3933
4965.00,1.4009
4964.00,1.4077
4963.00,1.4139
4962.00,1.4198
4961.00,1.4256
4960.00,1.4311
4959.00,1.4363
4958.00,1.4408
4957.00,1.4447
4956.00,1.4479
4955.00,1.4505
4954.00,1.4525
4953.00,1.4539
4952.00,1.4547
4951.00,1.4548
4950.00,1.4545
4949.00,1.4540
4948.00,1.4534
4947.00,1.4524
4946.00,1.4509
4945.00,1.4485
4944.00,1.4455
4943.00,1.4418
4942.00,1.4377
4941.00,1.4331
4940.00,1.4282
4939.00,1.4228
4938.00,1.4169
4937.00,1.4105
4936.00,1.4034
4935.00,1.3959
4934.00,1.3877
4933.00,1.3790
4932.00,1.3697
4931.00,1.3601
4930.00,1.3499
4929.00,1.3391
4928.00,1.3276
4927.00,1.3155
4926.00,1.3027
4925.00,1.2894
4924.00,1.2756
4923.00,1.2615
4922.00,1.2470
4921.00,1.2321
4920.00,1.2166
4919.00,1.2005
4918.00,1.1838
4917.00,1.1666
4916.00,1.1489
4915.00,1.1311
4914.00,1.1130
4913.00,1.0947
4912.00,1.0761
4911.00,1.0573
4910.00,1.0384
4909.00,1.0195
4908.00,1.0007
4907.00,0.9821
4906.00,0.9637
4905.00,0.9456
4904.00,0.9278
4903.00,0.9106
4902.00,0.8940
4901.00,0.8782
4900.00,0.8631
4899.00,0.8488
4898.00,0.8355
4897.00,0.8233
4896.00,0.8120
4895.00,0.8019
4894.00,0.7930
4893.00,0.7853
4892.00,0.7789
4891.00,0.7739
4890.00,0.7704
4889.00,0.7681
4888.00,0.7672
4887.00,0.7677
4886.00,0.7695
4885.00,0.7726
4884.00,0.7771
4883.00,0.7828
4882.00,0.7897
4881.00,0.7978
4880.00,0.8070
4879.00,0.8171
4878.00,0.8281
4877.00,0.8398
4876.00,0.8523
4875.00,0.8654
4874.00,0.8791
4873.00,0.8934
4872.00,0.9081
4871.00,0.9233
4870.00,0.9389
4869.00,0.9548
4868.00,0.9708
4867.00,0.9870
4866.00,1.0034
4865.00,1.0199
4864.00,1.0366
4863.00,1.0534
4862.00,1.0701
4861.00,1.0866
4860.00,1.1030
4859.00,1.1193
4858.00,1.1355
4857.00,1.1516
4856.00,1.1674
4855.00,1.1831
4854.00,1.1984
4853.00,1.2135
4852.00,1.2282
4851.00,1.2425
4850.00,1.2567
4849.00,1.2706
4848.00,1.2841
4847.00,1.2974
4846.00,1.3103
4845.00,1.3229
4844.00,1.3349
4843.00,1.3464
4842.00,1.3575
4841.00,1.3683
4840.00,1.3788
4839.00,1.3889
4838.00,1.3986
4837.00,1.4078
4836.00,1.4164
4835.00,1.4245
4834.00,1.4322
4833.00,1.4394
4832.00,1.4462
4831.00,1.4524
4830.00,1.4581
4829.00,1.4632
4828.00,1.4677
4827.00,1.4718
4826.00,1.4753
4825.00,1.4784
4824.00,1.4810
4823.00,1.4833
4822.00,1.4852
4821.00,1.4864
4820.00,1.4869
4819.00,1.4869
4818.00,1.4864
4817.00,1.4853
4816.00,1.4836
4815.00,1.4815
4814.00,1.4789
4813.00,1.4759
4812.00,1.4724
4811.00,1.4684
4810.00,1.4641
4809.00,1.4594
4808.00,1.4544
4807.00,1.4488
4806.00,1.4427
4805.00,1.4358
4804.00,1.4281
4803.00,1.4196
4802.00,1.4105
4801.00,1.4008
4800.00,1.3908
4799.00,1.3802
4798.00,1.3691
4797.00,1.3575
4796.00,1.3453
4795.00,1.3325
4794.00,1.3192
4793.00,1.3053
4792.00,1.2908
4791.00,1.2758
4790.00,1.2602
4789.00,1.2442
4788.00,1.2277
4787.00,1.2106
4786.00,1.1931
4785.00,1.1750
4784.00,1.1565
4783.00,1.1376
4782.00,1.1184
4781.00,1.0989
4780.00,1.0790
4779.00,1.0589
4778.00,1.0387
4777.00,1.0186
4776.00,0.9987
4775.00,0.9790
4774.00,0.9597
4773.00,0.9408
4772.00,0.9225
4771.00,0.9047
4770.00,0.8876
4769.00,0.8712
4768.00,0.8557
4767.00,0.8411
4766.00,0.8275
4765.00,0.8151
4764.00,0.8038
4763.00,0.7939
4762.00,0.7853
4761.00,0.7782
4760.00,0.7725
4759.00,0.7683
4758.00,0.7655
4757.00,0.7642
4756.00,0.7644
4755.00,0.7661
4754.00,0.7693
4753.00,0.7740
4752.00,0.7799
4751.00,0.7872
4750.00,0.7955
4749.00,0.8051
4748.00,0.8157
4747.00,0.8273
4746.00,0.8398
4745.00,0.8531
4744.00,0.8671
4743.00,0.8816
4742.00,0.8967
4741.00,0.9124
4740.00,0.9285
4739.00,0.9450
4738.00,0.9618
4737.00,0.9788
4736.00,0.9959
4735.00,1.0132
4734.00,1.0306
4733.00,1.0481
4732.00,1.0657
4731.00,1.0832
4730.00,1.1006
4729.00,1.1180
4728.00,1.1352
4727.00,1.1522
4726.00,1.1690
4725.00,1.1856
4724.00,1.2019
4723.00,1.2179
4722.00,1.2337
4721.00,1.2492
4720.00,1.2645
4719.00,1.2794
4718.00,1.2939
4717.00,1.3081
4716.00,1.3218
4715.00,1.3351
4714.00,1.3480
4713.00,1.3605
4712.00,1.3727
4711.00,1.3846
4710.00,1.3962
4709.00,1.4074
4708.00,1.4182
4707.00,1.4286
4706.00,1.4384
4705.00,1.4476
4704.00,1.4561
4703.00,1.4641
4702.00,1.4714
4701.00,1.4782
4700.00,1.4844
4699.00,1.4903
4698.00,1.4958
4697.00,1.5008
4696.00,1.5054
4695.00,1.5097
4694.00,1.5135
4693.00,1.5167
4692.00,1.5193
4691.00,1.5213
4690.00,1.5227
4689.00,1.5236
4688.00,1.5241
4687.00,1.5242
4686.00,1.5237
4685.00,1.5225
4684.00,1.5206
4683.00,1.5183
4682.00,1.5156
4681.00,1.5124
4680.00,1.5089
4679.00,1.5049
4678.00,1.5004
4677.00,1.4954
4676.00,1.4900
4675.00,1.4840
4674.00,1.4774
4673.00,1.4700
4672.00,1.4620
4671.00,1.4533
4670.00,1.4443
4669.00,1.4347
4668.00,1.4248
4667.00,1.4143
4666.00,1.4034
4665.00,1.3920
4664.00,1.3800
4663.00,1.3674
4662.00,1.3541
4661.00,1.3401
4660.00,1.3253
4659.00,1.3097
4658.00,1.2936
4657.00,1.2770
4656.00,1.2599
4655.00,1.2423
4654.00,1.2240
4653.00,1.2053
4652.00,1.1859
4651.00,1.1662
4650.00,1.1461
4649.00,1.1257
4648.00,1.1051
4647.00,1.0841
4646.00,1.0631
4645.00,1.0422
4644.00,1.0214
4643.00,1.0009
4642.00,0.9808
4641.00,0.9611
4640.00,0.9419
4639.00,0.9232
4638.00,0.9052
4637.00,0.8880
4636.00,0.8718
4635.00,0.8567
4634.00,0.8427
4633.00,0.8301
4632.00,0.8187
4631.00,0.8087
4630.00,0.8001
4629.00,0.7931
4628.00,0.7876
4627.00,0.7837
4626.00,0.7813
4625.00,0.7806
4624.00,0.7814
4623.00,0.7838
4622.00,0.7877
4621.00,0.7932
4620.00,0.8000
4619.00,0.8082
4618.00,0.8177
4617.00,0.8284
4616.00,0.8401
4615.00,0.8528
4614.00,0.8662
4613.00,0.8805
4612.00,0.8954
4611.00,0.9110
4610.00,0.9271
4609.00,0.9436
4608.00,0.9605
4607.00,0.9777
4606.00,0.9952
4605.00,1.0130
4604.00,1.0309
4603.00,1.0490
4602.00,1.0671
4601.00,1.0851
4600.00,1.1030
4599.00,1.1208
4598.00,1.1385
4597.00,1.1561
4596.00,1.1735
4595.00,1.1909
4594.00,1.2080
4593.00,1.2249
4592.00,1.2415
4591.00,1.2577
4590.00,1.2736
4589.00,1.2893
4588.00,1.3047
4587.00,1.3197
4586.00,1.3345
4585.00,1.3487
4584.00,1.3626
4583.00,1.3760
4582.00,1.3891
4581.00,1.4018
4580.00,1.4142
4579.00,1.4262
4578.00,1.4378
4577.00,1.4488
4576.00,1.4591
4575.00,1.4688
4574.00,1.4781
4573.00,1.4870
4572.00,1.4955
4571.00,1.5035
4570.00,1.5109
4569.00,1.5176
4568.00,1.5236
4567.00,1.5289
4566.00,1.5336
4565.00,1.5378
4564.00,1.5416
4563.00,1.5450
4562.00,1.5481
4561.00,1.5509
4560.00,1.5531
4559.00,1.5546
4558.00,1.5554
4557.00,1.5557
4556.00,1.5557
4555.00,1.5553
4554.00,1.5546
4553.00,1.5532
4552.00,1.5512
4551.00,1.5484
4550.00,1.5450
4549.00,1.5410
4548.00,1.5364
4547.00,1.5312
4546.00,1.5256
4545.00,1.5195
4544.00,1.5133
4543.00,1.5068
4542.00,1.4999
4541.00,1.4924
4540.00,1.4841
4539.00,1.4749
4538.00,1.4649
4537.00,1.4542
4536.00,1.4429
4535.00,1.4309
4534.00,1.4185
4533.00,1.4057
4532.00,1.3924
4531.00,1.3786
4530.00,1.3640
4529.00,1.3486
4528.00,1.3324
4527.00,1.3156
4526.00,1.2982
4525.00,1.2803
4524.00,1.2620
4523.00,1.2432
4522.00,1.2237
4521.00,1.2037
4520.00,1.1830
4519.00,1.1619
4518.00,1.1405
4517.00,1.1189
4516.00,1.0970
4515.00,1.0751
4514.00,1.0531
4513.00,1.0312
4512.00,1.0095
4511.00,0.9881
4510.00,0.9671
4509.00,0.9466
4508.00,0.9269
4507.00,0.9079
4506.00,0.8899
4505.00,0.8728
4504.00,0.8568
4503.00,0.8420
4502.00,0.8284
4501.00,0.8163
4500.00,0.8057
4499.00,0.7966
4498.00,0.7892
4497.00,0.7835
4496.00,0.7794
4495.00,0.7771
4494.00,0.7765
4493.00,0.7777
4492.00,0.7805
4491.00,0.7851
4490.00,0.7912
4489.00,0.7988
4488.00,0.8079
4487.00,0.8183
4486.00,0.8300
4485.00,0.8429
4484.00,0.8568
4483.00,0.8715
4482.00,0.8871
4481.00,0.9033
4480.00,0.9201
4479.00,0.9376
4478.00,0.9555
4477.00,0.9738
4476.00,0.9924
4475.00,1.0113
4474.00,1.0303
4473.00,1.0494
4472.00,1.0687
4471.00,1.0880
4470.00,1.1074
4469.00,1.1267
4468.00,1.1459
4467.00,1.1649
4466.00,1.1837
4465.00,1.2021
4464.00,1.2203
4463.00,1.2383
4462.00,1.2560
4461.00,1.2735
4460.00,1.2907
4459.00,1.3076
4458.00,1.3242
4457.00,1.3404
4456.00,1.3563
4455.00,1.3718
4454.00,1.3869
4453.00,1.4016
4452.00,1.4159
4451.00,1.4297
4450.00,1.4429
4449.00,1.4555
4448.00,1.4674
4447.00,1.4786
4446.00,1.4894
4445.00,1.4998
4444.00,1.5098
4443.00,1.5195
4442.00,1.5287
4441.00,1.5374
4440.00,1.5454
4439.00,1.5526
4438.00,1.5591
4437.00,1.5652
4436.00,1.5709
4435.00,1.5764
4434.00,1.5814
4433.00,1.5858
4432.00,1.5893
4431.00,1.5921
4430.00,1.5942
4429.00,1.5961
4428.00,1.5977
4427.00,1.5990
4426.00,1.5999
4425.00,1.6001
4424.00,1.5994
4423.00,1.5980
4422.00,1.5960
4421.00,1.5935
4420.00,1.5905
4419.00,1.5873
4418.00,1.5837
4417.00,1.5798
4416.00,1.5751
4415.00,1.5697
4414.00,1.5635
4413.00,1.5567
4412.00,1.5495
4411.00,1.5419
4410.00,1.5339
4409.00,1.5253
4408.00,1.5161
4407.00,1.5062
4406.00,1.4959
4405.00,1.4851
4404.00,1.4738
4403.00,1.4620
4402.00,1.4493
4401.00,1.4359
4400.00,1.4218
4399.00,1.4073
4398.00,1.3924
4397.00,1.3770
4396.00,1.3611
4395.00,1.3445
4394.00,1.3273
4393.00,1.3096
4392.00,1.2913
4391.00,1.2728
4390.00,1.2541
4389.00,1.2352
4388.00,1.2161
4387.00,1.1967
4386.00,1.1771
4385.00,1.1574
4384.00,1.1376
4383.00,1.1180
4382.00,1.0987
4381.00,1.0798
4380.00,1.0612
4379.00,1.0432
4378.00,1.0257
4377.00,1.0089
4376.00,0.9929
4375.00,0.9778
4374.00,0.9635
4373.00,0.9502
4372.00,0.9380
4371.00,0.9267
4370.00,0.9166
4369.00,0.9076
4368.00,0.8997
4367.00,0.8930
4366.00,0.8875
4365.00,0.8832
4364.00,0.8803
4363.00,0.8787
4362.00,0.8785
4361.00,0.8797
4360.00,0.8823
4359.00,0.8862
4358.00,0.8913
4357.00,0.8979
4356.00,0.9056
4355.00,0.9147
4354.00,0.9248
4353.00,0.9360
4352.00,0.9481
4351.00,0.9611
4350.00,0.9749
4349.00,0.9895
4348.00,1.0047
4347.00,1.0205
4346.00,1.0367
4345.00,1.0532
4344.00,1.0701
4343.00,1.0873
4342.00,1.1046
4341.00,1.1221
4340.00,1.1398
4339.00,1.1574
4338.00,1.1751
4337.00,1.1929
4336.00,1.2108
4335.00,1.2286
4334.00,1.2464
4333.00,1.2642
4332.00,1.2818
4331.00,1.2993
4330.00,1.3167
4329.00,1.3339
4328.00,1.3507
4327.00,1.3671
4326.00,1.3832
4325.00,1.3990
4324.00,1.4144
4323.00,1.4294
4322.00,1.4441
4321.00,1.4586
4320.00,1.4728
4319.00,1.4867
4318.00,1.5000
4317.00,1.5126
4316.00,1.5245
4315.00,1.5355
4314.00,1.5458
4313.00,1.5556
4312.00,1.5649
4311.00,1.5737
4310.00,1.5822
4309.00,1.5902
4308.00,1.5978
4307.00,1.6048
4306.00,1.6113
4305.00,1.6172
4304.00,1.6226
4303.00,1.6276
4302.00,1.6321
4301.00,1.6361
4300.00,1.6396
4299.00,1.6425
4298.00,1.6447
4297.00,1.6463
4296.00,1.6476
4295.00,1.6486
4294.00,1.6490
4293.00,1.6488
4292.00,1.6477
4291.00,1.6459
4290.00,1.6436
4289.00,1.6411
4288.00,1.6385
4287.00,1.6356
4286.00,1.6322
4285.00,1.6280
4284.00,1.6231
4283.00,1.6177
4282.00,1.6118
4281.00,1.6056
4280.00,1.5987
4279.00,1.5913
4278.00,1.5832
4277.00,1.5746
4276.00,1.5657
4275.00,1.5563
4274.00,1.5463
4273.00,1.5357
4272.00,1.5244
4271.00,1.5122
4270.00,1.4993
4269.00,1.4858
4268.00,1.4720
4267.00,1.4576
4266.00,1.4427
4265.00,1.4271
4264.00,1.4106
4263.00,1.3934
4262.00,1.3755
4261.00,1.3571
4260.00,1.3380
4259.00,1.3182
4258.00,1.2977
4257.00,1.2766
4256.00,1.2550
4255.00,1.2329
4254.00,1.2105
4253.00,1.1878
4252.00,1.1647
4251.00,1.1416
4250.00,1.1186
4249.00,1.0957
4248.00,1.0731
4247.00,1.0507
4246.00,1.0289
4245.00,1.0075
4244.00,0.9869
4243.00,0.9672
4242.00,0.9486
4241.00,0.9312
4240.00,0.9151
4239.00,0.9004
4238.00,0.8873
4237.00,0.8757
4236.00,0.8659
4235.00,0.8580
4234.00,0.8520
4233.00,0.8479
4232.00,0.8457
4231.00,0.8455
4230.00,0.8472
4229.00,0.8508
4228.00,0.8563
4227.00,0.8634
4226.00,0.8722
4225.00,0.8824
4224.00,0.8941
4223.00,0.9070
4222.00,0.9210
4221.00,0.9359
4220.00,0.9517
4219.00,0.9682
4218.00,0.9853
4217.00,1.0030
4216.00,1.0211
4215.00,1.0396
4214.00,1.0585
4213.00,1.0777
4212.00,1.0971
4211.00,1.1166
4210.00,1.1361
4209.00,1.1556
4208.00,1.1752
4207.00,1.1948
4206.00,1.2145
4205.00,1.2342
4204.00,1.2538
4203.00,1.2732
4202.00,1.2923
4201.00,1.3112
4200.00,1.3298
4199.00,1.3481
4198.00,1.3660
4197.00,1.3835
4196.00,1.4007
4195.00,1.4176
4194.00,1.4341
4193.00,1.4502
4192.00,1.4659
4191.00,1.4813
4190.00,1.4963
4189.00,1.5108
4188.00,1.5248
4187.00,1.5382
4186.00,1.5510
4185.00,1.5632
4184.00,1.5749
4183.00,1.5860
4182.00,1.5967
4181.00,1.6071
4180.00,1.6170
4179.00,1.6262
4178.00,1.6347
4177.00,1.6426
4176.00,1.6500
4175.00,1.6571
4174.00,1.6635
4173.00,1.6691
4172.00,1.6739
4171.00,1.6781
4170.00,1.6818
4169.00,1.6852
4168.00,1.6881
4167.00,1.6905
4166.00,1.6922
4165.00,1.6935
4164.00,1.6945
4163.00,1.6953
4162.00,1.6957
4161.00,1.6954
4160.00,1.6943
4159.00,1.6923
4158.00,1.6898
4157.00,1.6869
4156.00,1.6839
4155.00,1.6807
4154.00,1.6770
4153.00,1.6728
4152.00,1.6679
4151.00,1.6622
4150.00,1.6560
4149.00,1.6491
4148.00,1.6418
4147.00,1.6340
4146.00,1.6257
4145.00,1.6168
4144.00,1.6071
4143.00,1.5967
4142.00,1.5856
4141.00,1.5742
4140.00,1.5624
4139.00,1.5500
4138.00,1.5367
4137.00,1.5225
4136.00,1.5075
4135.00,1.4919
4134.00,1.4758
4133.00,1.4589
4132.00,1.4414
4131.00,1.4231
4130.00,1.4041
4129.00,1.3845
4128.00,1.3643
4127.00,1.3436
4126.00,1.3222
4125.00,1.3003
4124.00,1.2778
4123.00,1.2547
4122.00,1.2311
4121.00,1.2071
4120.00,1.1828
4119.00,1.1586
4118.00,1.1343
4117.00,1.1102
4116.00,1.0864
4115.00,1.0631
4114.00,1.0403
4113.00,1.0182
4112.00,0.9970
4111.00,0.9769
4110.00,0.9581
4109.00,0.9405
4108.00,0.9245
4107.00,0.9099
4106.00,0.8969
4105.00,0.8856
4104.00,0.8762
4103.00,0.8688
4102.00,0.8635
4101.00,0.8602
4100.00,0.8589
4099.00,0.8596
4098.00,0.8623
4097.00,0.8669
4096.00,0.8736
4095.00,0.8820
4094.00,0.8922
4093.00,0.9039
4092.00,0.9171
4091.00,0.9316
4090.00,0.9473
4089.00,0.9640
4088.00,0.9815
4087.00,0.9998
4086.00,1.0188
4085.00,1.0382
4084.00,1.0582
4083.00,1.0785
4082.00,1.0990
4081.00,1.1198
4080.00,1.1407
4079.00,1.1617
4078.00,1.1827
4077.00,1.2038
4076.00,1.2249
4075.00,1.2460
4074.00,1.2668
4073.00,1.2873
4072.00,1.3074
4071.00,1.3273
4070.00,1.3470
4069.00,1.3665
4068.00,1.3858
4067.00,1.4048
4066.00,1.4234
4065.00,1.4415
4064.00,1.4590
4063.00,1.4762
4062.00,1.4930
4061.00,1.5096
4060.00,1.5258
4059.00,1.5416
4058.00,1.5568
4057.00,1.5715
4056.00,1.5856
4055.00,1.5990
4054.00,1.6116
4053.00,1.6236
4052.00,1.6350
4051.00,1.6460
4050.00,1.6566
4049.00,1.6666
4048.00,1.6757
4047.00,1.6838
4046.00,1.6911
4045.00,1.6978
4044.00,1.7043
4043.00,1.7105
4042.00,1.7162
4041.00,1.7212
4040.00,1.7253
4039.00,1.7289
4038.00,1.7320
4037.00,1.7350
4036.00,1.7376
4035.00,1.7398
4034.00,1.7411
4033.00,1.7416
4032.00,1.7414
4031.00,1.7406
4030.00,1.7394
4029.00,1.7380
4028.00,1.7364
4027.00,1.7344
4026.00,1.7316
4025.00,1.7279
4024.00,1.7234
4023.00,1.7184
4022.00,1.7130
4021.00,1.7073
4020.00,1.7012
4019.00,1.6947
4018.00,1.6876
4017.00,1.6799
4016.00,1.6715
4015.00,1.6624
4014.00,1.6526
4013.00,1.6421
4012.00,1.6310
4011.00,1.6193
4010.00,1.6069
4009.00,1.5937
4008.00,1.5799
4007.00,1.5654
4006.00,1.5504
4005.00,1.5349
4004.00,1.5188
4003.00,1.5021
4002.00,1.4847
4001.00,1.4665
4000.00,1.4476
3999.00,1.4280
3998.00,1.4076
3997.00,1.3864
3996.00,1.3644
3995.00,1.3417
3994.00,1.3183
3993.00,1.2943
3992.00,1.2699
3991.00,1.2450
3990.00,1.2198
3989.00,1.1944
3988.00,1.1689
3987.00,1.1434
3986.00,1.1180
3985.00,1.0930
3984.00,1.0685
3983.00,1.0447
3982.00,1.0218
3981.00,1.0000
3980.00,0.9794
3979.00,0.9603
3978.00,0.9428
3977.00,0.9269
3976.00,0.9127
3975.00,0.9004
3974.00,0.8900
3973.00,0.8816
3972.00,0.8754
3971.00,0.8714
3970.00,0.8696
3969.00,0.8701
3968.00,0.8729
3967.00,0.8778
3966.00,0.8850
3965.00,0.8941
3964.00,0.9052
3963.00,0.9180
3962.00,0.9324
3961.00,0.9481
3960.00,0.9650
3959.00,0.9829
3958.00,1.0017
3957.00,1.0212
3956.00,1.0414
3955.00,1.0621
3954.00,1.0832
3953.00,1.1045
3952.00,1.1259
3951.00,1.1474
3950.00,1.1689
3949.00,1.1906
3948.00,1.2124
3947.00,1.2342
3946.00,1.2557
3945.00,1.2770
3944.00,1.2981
3943.00,1.3193
3942.00,1.3404
3941.00,1.3614
3940.00,1.3820
3939.00,1.4019
3938.00,1.4215
3937.00,1.4406
3936.00,1.4593
3935.00,1.4775
3934.00,1.4953
3933.00,1.5130
3932.00,1.5309
3931.00,1.5486
3930.00,1.5658
3929.00,1.5824
3928.00,1.5983
3927.00,1.6136
3926.00,1.6279
3925.00,1.6413
3924.00,1.6536
3923.00,1.6652
3922.00,1.6762
3921.00,1.6866
3920.00,1.6969
3919.00,1.7069
3918.00,1.7168
3917.00,1.7263
3916.00,1.7354
3915.00,1.7441
3914.00,1.7522
3913.00,1.7596
3912.00,1.7663
3911.00,1.7721
3910.00,1.7768
3909.00,1.7803
3908.00,1.7827
3907.00,1.7842
3906.00,1.7852
3905.00,1.7858
3904.00,1.7862
3903.00,1.7862
3902.00,1.7860
3901.00,1.7858
3900.00,1.7860
3899.00,1.7866
3898.00,1.7871
3897.00,1.7867
3896.00,1.7850
3895.00,1.7820
3894.00,1.7780
3893.00,1.7735
3892.00,1.7686
3891.00,1.7631
3890.00,1.7566
3889.00,1.7494
3888.00,1.7419
3887.00,1.7342
3886.00,1.7260
3885.00,1.7168
3884.00,1.7068
3883.00,1.6962
3882.00,1.6853
3881.00,1.6742
3880.00,1.6626
3879.00,1.6504
3878.00,1.6374
3877.00,1.6238
3876.00,1.6095
3875.00,1.5940
3874.00,1.5771
3873.00,1.5588
3872.00,1.5398
3871.00,1.5196
3870.00,1.4981
3869.00,1.4757
3868.00,1.4533
3867.00,1.4311
3866.00,1.4086
3865.00,1.3849
3864.00,1.3597
3863.00,1.3336
3862.00,1.3069
3861.00,1.2800
3860.00,1.2524
3859.00,1.2238
3858.00,1.1944
3857.00,1.1647
3856.00,1.1361
3855.00,1.1083
3854.00,1.0797
3853.00,1.0494
3852.00,1.0196
3851.00,0.9927
3850.00,0.9691
3849.00,0.9485
3848.00,0.9302
3847.00,0.9137
3846.00,0.8988
3845.00,0.8854
3844.00,0.8736
3843.00,0.8634
3842.00,0.8553
3841.00,0.8494
3840.00,0.8463
3839.00,0.8461
3838.00,0.8490
3837.00,0.8546
3836.00,0.8626
3835.00,0.8729
3834.00,0.8857
3833.00,0.9014
3832.00,0.9198
3831.00,0.9401
3830.00,0.9614
3829.00,0.9830
3828.00,1.0050
3827.00,1.0275
3826.00,1.0500
3825.00,1.0718
3824.00,1.0930
3823.00,1.1151
3822.00,1.1394
3821.00,1.1662
3820.00,1.1939
3819.00,1.2200
3818.00,1.2439
3817.00,1.2674
3816.00,1.2930
3815.00,1.3211
3814.00,1.3496
3813.00,1.3759
3812.00,1.3992
3811.00,1.4197
3810.00,1.4386
3809.00,1.4573
3808.00,1.4771
3807.00,1.4984
3806.00,1.5203
3805.00,1.5412
3804.00,1.5601
3803.00,1.5780
3802.00,1.5962
3801.00,1.6155
3800.00,1.6351
3799.00,1.6534
3798.00,1.6702
3797.00,1.6859
3796.00,1.7010
3795.00,1.7154
3794.00,1.7286
3793.00,1.7408
3792.00,1.7523
3791.00,1.7632
3790.00,1.7735
3789.00,1.7831
3788.00,1.7917
3787.00,1.7995
3786.00,1.8066
3785.00,1.8130
3784.00,1.8187
3783.00,1.8239
3782.00,1.8288
3781.00,1.8332
3780.00,1.8368
3779.00,1.8396
3778.00,1.8420
3777.00,1.8441
3776.00,1.8455
3775.00,1.8461
3774.00,1.8457
3773.00,1.8443
3772.00,1.8422
3771.00,1.8397
3770.00,1.8369
3769.00,1.8337
3768.00,1.8302
3767.00,1.8264
3766.00,1.8225
3765.00,1.8184
3764.00,1.8140
3763.00,1.8090
3762.00,1.8036
3761.00,1.7975
3760.00,1.7907
3759.00,1.7833
3758.00,1.7753
3757.00,1.7666
3756.00,1.7570
3755.00,1.7469
3754.00,1.7363
3753.00,1.7253
3752.00,1.7134
3751.00,1.7007
3750.00,1.6871
3749.00,1.6723
3748.00,1.6565
3747.00,1.6405
3746.00,1.6250
3745.00,1.6098
3744.00,1.5939
3743.00,1.5766
3742.00,1.5578
3741.00,1.5373
3740.00,1.5147
3739.00,1.4901
3738.00,1.4638
3737.00,1.4351
3736.00,1.4035
3735.00,1.3698
3734.00,1.3355
3733.00,1.3013
3732.00,1.2676
3731.00,1.2344
3730.00,1.2020
3729.00,1.1707
3728.00,1.1402
3727.00,1.1105
3726.00,1.0816
3725.00,1.0540
3724.00,1.0282
3723.00,1.0045
3722.00,0.9830
3721.00,0.9635
3720.00,0.9456
3719.00,0.9291
3718.00,0.9142
3717.00,0.9013
3716.00,0.8909
3715.00,0.8832
3714.00,0.8784
3713.00,0.8766
3712.00,0.8774
3711.00,0.8812
3710.00,0.8882
3709.00,0.8990
3708.00,0.9131
3707.00,0.9302
3706.00,0.9494
3705.00,0.9705
3704.00,0.9936
3703.00,1.0188
3702.00,1.0463
3701.00,1.0756
3700.00,1.1058
3699.00,1.1361
3698.00,1.1663
3697.00,1.1964
3696.00,1.2263
3695.00,1.2557
3694.00,1.2842
3693.00,1.3118
3692.00,1.3387
3691.00,1.3653
3690.00,1.3923
3689.00,1.4212
3688.00,1.4525
3687.00,1.4841
3686.00,1.5137
3685.00,1.5401
3684.00,1.5639
3683.00,1.5863
3682.00,1.6076
3681.00,1.6276
3680.00,1.6458
3679.00,1.6624
3678.00,1.6780
3677.00,1.6941
3676.00,1.7115
3675.00,1.7304
3674.00,1.7494
3673.00,1.7665
3672.00,1.7820
3671.00,1.7966
3670.00,1.8114
3669.00,1.8264
3668.00,1.8411
3667.00,1.8547
3666.00,1.8670
3665.00,1.8784
3664.00,1.8889
3663.00,1.8984
3662.00,1.9067
3661.00,1.9135
3660.00,1.9190
3659.00,1.9235
3658.00,1.9279
3657.00,1.9327
3656.00,1.9376
3655.00,1.9417
3654.00,1.9445
3653.00,1.9464
3652.00,1.9485
3651.00,1.9511
3650.00,1.9534
3649.00,1.9552
3648.00,1.9571
3647.00,1.9592
3646.00,1.9611
3645.00,1.9626
3644.00,1.9634
3643.00,1.9634
3642.00,1.9625
3641.00,1.9607
3640.00,1.9578
3639.00,1.9538
3638.00,1.9487
3637.00,1.9429
3636.00,1.9366
3635.00,1.9295
3634.00,1.9210
3633.00,1.9111
3632.00,1.9007
3631.00,1.8906
3630.00,1.8808
3629.00,1.8710
3628.00,1.8615
3627.00,1.8526
3626.00,1.8445
3625.00,1.8369
3624.00,1.8294
3623.00,1.8219
3622.00,1.8143
3621.00,1.8066
3620.00,1.7984
3619.00,1.7895
3618.00,1.7795
3617.00,1.7686
3616.00,1.7569
3615.00,1.7449
3614.00,1.7323
3613.00,1.7190
3612.00,1.7051
3611.00,1.6909
3610.00,1.6769
3609.00,1.6630
3608.00,1.6493
3607.00,1.6358
3606.00,1.6227
3605.00,1.6102
3604.00,1.5982
3603.00,1.5866
3602.00,1.5752
3601.00,1.5639
3600.00,1.5526
3599.00,1.5414
3598.00,1.5305
3597.00,1.5201
3596.00,1.5103
3595.00,1.5012
3594.00,1.4926
3593.00,1.4845
3592.00,1.4768
3591.00,1.4701
3590.00,1.4647
3589.00,1.4606
3588.00,1.4573
3587.00,1.4548
3586.00,1.4533
3585.00,1.4531
3584.00,1.4541
3583.00,1.4564
3582.00,1.4598
3581.00,1.4643
3580.00,1.4695
3579.00,1.4754
3578.00,1.4819
3577.00,1.4893
3576.00,1.4975
3575.00,1.5065
3574.00,1.5161
3573.00,1.5261
3572.00,1.5364
3571.00,1.5472
3570.00,1.5588
3569.00,1.5714
3568.00,1.5850
3567.00,1.5990
3566.00,1.6134
3565.00,1.6280
3564.00,1.6427
3563.00,1.6576
3562.00,1.6728
3561.00,1.6883
3560.00,1.7040
3559.00,1.7194
3558.00,1.7347
3557.00,1.7498
3556.00,1.7646
3555.00,1.7789
3554.00,1.7929
3553.00,1.8068
3552.00,1.8208
3551.00,1.8349
3550.00,1.8486
3549.00,1.8617
3548.00,1.8743
3547.00,1.8867
3546.00,1.8993
3545.00,1.9119
3544.00,1.9243
3543.00,1.9362
3542.00,1.9472
3541.00,1.9578
3540.00,1.9682
3539.00,1.9784
3538.00,1.9881
3537.00,1.9969
3536.00,2.0053
3535.00,2.0138
3534.00,2.0227
3533.00,2.0321
3532.00,2.0411
3531.00,2.0490
3530.00,2.0553
3529.00,2.0604
3528.00,2.0653
3527.00,2.0705
3526.00,2.0761
3525.00,2.0816
3524.00,2.0867
3523.00,2.0911
3522.00,2.0952
3521.00,2.0990
3520.00,2.1025
3519.00,2.1058
3518.00,2.1088
3517.00,2.1115
3516.00,2.1136
3515.00,2.1151
3514.00,2.1163
3513.00,2.1173
3512.00,2.1182
3511.00,2.1191
3510.00,2.1196
3509.00,2.1198
3508.00,2.1194
3507.00,2.1183
3506.00,2.1164
3505.00,2.1137
3504.00,2.1106
3503.00,2.1075
3502.00,2.1047
3501.00,2.1021
3500.00,2.0991
3499.00,2.0953
3498.00,2.0910
3497.00,2.0865
3496.00,2.0820
3495.00,2.0772
3494.00,2.0719
3493.00,2.0659
3492.00,2.0593
3491.00,2.0522
3490.00,2.0446
3489.00,2.0366
3488.00,2.0284
3487.00,2.0200
3486.00,2.0114
3485.00,2.0026
3484.00,1.9933
3483.00,1.9833
3482.00,1.9727
3481.00,1.9618
3480.00,1.9509
3479.00,1.9400
3478.00,1.9289
3477.00,1.9174
3476.00,1.9052
3475.00,1.8922
3474.00,1.8788
3473.00,1.8654
3472.00,1.8523
3471.00,1.8393
3470.00,1.8260
3469.00,1.8122
3468.00,1.7981
3467.00,1.7838
3466.00,1.7694
3465.00,1.7553
3464.00,1.7412
3463.00,1.7272
3462.00,1.7133
3461.00,1.6996
3460.00,1.6860
3459.00,1.6728
3458.00,1.6600
3457.00,1.6477
3456.00,1.6361
3455.00,1.6252
3454.00,1.6151
3453.00,1.6058
3452.00,1.5973
3451.00,1.5896
3450.00,1.5828
3449.00,1.5769
3448.00,1.5719
3447.00,1.5678
3446.00,1.5647
3445.00,1.5630
3444.00,1.5626
3443.00,1.5634
3442.00,1.5653
3441.00,1.5683
3440.00,1.5725
3439.00,1.5776
3438.00,1.5837
3437.00,1.5908
3436.00,1.5990
3435.00,1.6081
3434.00,1.6182
3433.00,1.6289
3432.00,1.6404
3431.00,1.6526
3430.00,1.6655
3429.00,1.6789
3428.00,1.6929
3427.00,1.7072
3426.00,1.7220
3425.00,1.7373
3424.00,1.7530
3423.00,1.7691
3422.00,1.7851
3421.00,1.8009
3420.00,1.8164
3419.00,1.8318
3418.00,1.8471
3417.00,1.8622
3416.00,1.8769
3415.00,1.8913
3414.00,1.9053
3413.00,1.9190
3412.00,1.9320
3411.00,1.9441
3410.00,1.9554
3409.00,1.9658
3408.00,1.9758
3407.00,1.9855
3406.00,1.9952
3405.00,2.0046
3404.00,2.0132
3403.00,2.0210
3402.00,2.0279
3401.00,2.0343
3400.00,2.0404
3399.00,2.0466
3398.00,2.0530
3397.00,2.0596
3396.00,2.0659
3395.00,2.0714
3394.00,2.0762
3393.00,2.0805
3392.00,2.0851
3391.00,2.0901
3390.00,2.0953
3389.00,2.1003
3388.00,2.1046
3387.00,2.1083
3386.00,2.1116
3385.00,2.1149
3384.00,2.1180
3383.00,2.1208
3382.00,2.1230
3381.00,2.1246
3380.00,2.1257
3379.00,2.1265
3378.00,2.1269
3377.00,2.1273
3376.00,2.1276
3375.00,2.1279
3374.00,2.1277
3373.00,2.1268
3372.00,2.1251
3371.00,2.1229
3370.00,2.1205
3369.00,2.1179
3368.00,2.1149
3367.00,2.1111
3366.00,2.1066
3365.00,2.1015
3364.00,2.0961
3363.00,2.0907
3362.00,2.0852
3361.00,2.0795
3360.00,2.0732
3359.00,2.0661
3358.00,2.0581
3357.00,2.0492
3356.00,2.0396
3355.00,2.0293
3354.00,2.0186
3353.00,2.0077
3352.00,1.9965
3351.00,1.9850
3350.00,1.9732
3349.00,1.9607
3348.00,1.9473
3347.00,1.9329
3346.00,1.9177
3345.00,1.9021
3344.00,1.8863
3343.00,1.8704
3342.00,1.8542
3341.00,1.8377
3340.00,1.8206
3339.00,1.8028
3338.00,1.7841
3337.00,1.7649
3336.00,1.7455
3335.00,1.7261
3334.00,1.7067
3333.00,1.6872
3332.00,1.6675
3331.00,1.6477
3330.00,1.6281
3329.00,1.6089
3328.00,1.5902
3327.00,1.5722
3326.00,1.5547
3325.00,1.5379
3324.00,1.5218
3323.00,1.5067
3322.00,1.4928
3321.00,1.4803
3320.00,1.4691
3319.00,1.4595
3318.00,1.4515
3317.00,1.4451
3316.00,1.4405
3315.00,1.4374
3314.00,1.4360
3313.00,1.4364
3312.00,1.4386
3311.00,1.4425
3310.00,1.4480
3309.00,1.4550
3308.00,1.4634
3307.00,1.4732
3306.00,1.4842
3305.00,1.4965
3304.00,1.5100
3303.00,1.5245
3302.00,1.5398
3301.00,1.5558
3300.00,1.5722
3299.00,1.5890
3298.00,1.6063
3297.00,1.6242
3296.00,1.6426
3295.00,1.6611
3294.00,1.6799
3293.00,1.6988
3292.00,1.7178
3291.00,1.7368
3290.00,1.7555
3289.00,1.7739
3288.00,1.7920
3287.00,1.8100
3286.00,1.8278
3285.00,1.8454
3284.00,1.8627
3283.00,1.8794
3282.00,1.8955
3281.00,1.9113
3280.00,1.9269
3279.00,1.9426
3278.00,1.9582
3277.00,1.9735
3276.00,1.9880
3275.00,2.0014
3274.00,2.0138
3273.00,2.0257
3272.00,2.0373
3271.00,2.0486
3270.00,2.0594
3269.00,2.0696
3268.00,2.0789
3267.00,2.0874
3266.00,2.0956
3265.00,2.1035
3264.00,2.1114
3263.00,2.1189
3262.00,2.1259
3261.00,2.1325
3260.00,2.1386
3259.00,2.1441
3258.00,2.1490
3257.00,2.1536
3256.00,2.1580
3255.00,2.1621
3254.00,2.1659
3253.00,2.1694
3252.00,2.1723
3251.00,2.1740
3250.00,2.1744
3249.00,2.1739
3248.00,2.1733
3247.00,2.1730
3246.00,2.1730
3245.00,2.1728
3244.00,2.1721
3243.00,2.1705
3242.00,2.1682
3241.00,2.1654
3240.00,2.1622
3239.00,2.1587
3238.00,2.1550
3237.00,2.1508
3236.00,2.1461
3235.00,2.1406
3234.00,2.1344
3233.00,2.1277
3232.00,2.1207
3231.00,2.1136
3230.00,2.1061
3229.00,2.0980
3228.00,2.0890
3227.00,2.0790
3226.00,2.0683
3225.00,2.0575
3224.00,2.0467
3223.00,2.0358
3222.00,2.0246
3221.00,2.0129
3220.00,2.0006
3219.00,1.9875
3218.00,1.9738
3217.00,1.9597
3216.00,1.9454
3215.00,1.9307
3214.00,1.9153
3213.00,1.8992
3212.00,1.8827
3211.00,1.8658
3210.00,1.8484
3209.00,1.8306
3208.00,1.8125
3207.00,1.7946
3206.00,1.7770
3205.00,1.7594
3204.00,1.7415
3203.00,1.7234
3202.00,1.7055
3201.00,1.6882
3200.00,1.6717
3199.00,1.6559
3198.00,1.6406
3197.00,1.6258
3196.00,1.6116
3195.00,1.5983
3194.00,1.5861
3193.00,1.5752
3192.00,1.5658
3191.00,1.5578
3190.00,1.5514
3189.00,1.5465
3188.00,1.5430
3187.00,1.5409
3186.00,1.5403
3185.00,1.5412
3184.00,1.5438
3183.00,1.5480
3182.00,1.5538
3181.00,1.5608
3180.00,1.5692
3179.00,1.5788
3178.00,1.5898
3177.00,1.6019
3176.00,1.6149
3175.00,1.6286
3174.00,1.6430
3173.00,1.6581
3172.00,1.6737
3171.00,1.6900
3170.00,1.7067
3169.00,1.7239
3168.00,1.7412
3167.00,1.7587
3166.00,1.7760
3165.00,1.7933
3164.00,1.8107
3163.00,1.8284
3162.00,1.8463
3161.00,1.8641
3160.00,1.8817
3159.00,1.8990
3158.00,1.9160
3157.00,1.9325
3156.00,1.9483
3155.00,1.9636
3154.00,1.9788
3153.00,1.9941
3152.00,2.0093
3151.00,2.0238
3150.00,2.0373
3149.00,2.0500
3148.00,2.0622
3147.00,2.0740
3146.00,2.0852
3145.00,2.0961
3144.00,2.1068
3143.00,2.1172
3142.00,2.1274
3141.00,2.1374
3140.00,2.1470
3139.00,2.1558
3138.00,2.1637
3137.00,2.1705
3136.00,2.1768
3135.00,2.1828
3134.00,2.1884
3133.00,2.1939
3132.00,2.1995
3131.00,2.2053
3130.00,2.2112
3129.00,2.2163
3128.00,2.2201
3127.00,2.2227
3126.00,2.2247
3125.00,2.2263
3124.00,2.2275
3123.00,2.2280
3122.00,2.2283
3121.00,2.2289
3120.00,2.2296
3119.00,2.2301
3118.00,2.2301
3117.00,2.2296
3116.00,2.2287
3115.00,2.2269
3114.00,2.2234
3113.00,2.2184
3112.00,2.2123
3111.00,2.2061
3110.00,2.2002
3109.00,2.1944
3108.00,2.1882
3107.00,2.1810
3106.00,2.1728
3105.00,2.1640
3104.00,2.1553
3103.00,2.1467
3102.00,2.1374
3101.00,2.1270
3100.00,2.1151
3099.00,2.1023
3098.00,2.0893
3097.00,2.0764
3096.00,2.0632
3095.00,2.0493
3094.00,2.0344
3093.00,2.0185
3092.00,2.0018
3091.00,1.9843
3090.00,1.9663
3089.00,1.9477
3088.00,1.9285
3087.00,1.9090
3086.00,1.8893
3085.00,1.8695
3084.00,1.8497
3083.00,1.8298
3082.00,1.8095
3081.00,1.7890
3080.00,1.7684
3079.00,1.7483
3078.00,1.7287
3077.00,1.7098
3076.00,1.6916
3075.00,1.6745
3074.00,1.6586
3073.00,1.6443
3072.00,1.6318
3071.00,1.6212
3070.00,1.6124
3069.00,1.6056
3068.00,1.6010
3067.00,1.5986
3066.00,1.5985
3065.00,1.6006
3064.00,1.6049
3063.00,1.6111
3062.00,1.6193
3061.00,1.6293
3060.00,1.6409
3059.00,1.6540
3058.00,1.6683
3057.00,1.6837
3056.00,1.7000
3055.00,1.7172
3054.00,1.7357
3053.00,1.7552
3052.00,1.7756
3051.00,1.7964
3050.00,1.8172
3049.00,1.8379
3048.00,1.8586
3047.00,1.8793
3046.00,1.9000
3045.00,1.9207
3044.00,1.9415
3043.00,1.9624
3042.00,1.9834
3041.00,2.0044
3040.00,2.0252
3039.00,2.0455
3038.00,2.0652
3037.00,2.0843
3036.00,2.1028
3035.00,2.1208
3034.00,2.1384
3033.00,2.1557
3032.00,2.1723
3031.00,2.1878
3030.00,2.2021
3029.00,2.2153
3028.00,2.2275
3027.00,2.2389
3026.00,2.2496
3025.00,2.2598
3024.00,2.2694
3023.00,2.2780
3022.00,2.2854
3021.00,2.2919
3020.00,2.2979
3019.00,2.3034
3018.00,2.3082
3017.00,2.3122
3016.00,2.3152
3015.00,2.3173
3014.00,2.3184
3013.00,2.3183
3012.00,2.3171
3011.00,2.3148
3010.00,2.3113
3009.00,2.3068
3008.00,2.3012
3007.00,2.2944
3006.00,2.2862
3005.00,2.2765
3004.00,2.2656
3003.00,2.2542
3002.00,2.2423
3001.00,2.2296
3000.00,2.2155
2999.00,2.1997
2998.00,2.1823
2997.00,2.1637
2996.00,2.1445
2995.00,2.1253
2994.00,2.1071
2993.00,2.0906
2992.00,2.0763
2991.00,2.0648
2990.00,2.0570
2989.00,2.0540
2988.00,2.0564
2987.00,2.0647
2986.00,2.0795
2985.00,2.1011
2984.00,2.1295
2983.00,2.1643
2982.00,2.2052
2981.00,2.2517
2980.00,2.3035
2979.00,2.3596
2978.00,2.4188
2977.00,2.4808
2976.00,2.5458
2975.00,2.6137
2974.00,2.6836
2973.00,2.7543
2972.00,2.8262
2971.00,2.9012
2970.00,2.9819
2969.00,3.0693
2968.00,3.1620
2967.00,3.2568
2966.00,3.3509
2965.00,3.4416
2964.00,3.5239
2963.00,3.5915
2962.00,3.6426
2961.00,3.6841
2960.00,3.7266
2959.00,3.7772
2958.00,3.8374
2957.00,3.9026
2956.00,3.9595
2955.00,3.9878
2954.00,3.9796
2953.00,3.9525
2952.00,3.9299
2951.00,3.9168
2950.00,3.9055
2949.00,3.8961
2948.00,3.9041
2947.00,3.9433
2946.00,4.0038
2945.00,4.0463
2944.00,4.0378
2943.00,4.0011
2942.00,3.9836
2941.00,4.0064
2940.00,4.0559
2939.00,4.0906
2938.00,4.0872
2937.00,4.0796
2936.00,4.1222
2935.00,4.2536
2934.00,4.4614
2933.00,4.6299
2932.00,4.6041
2931.00,4.5121
2930.00,4.5086
2929.00,4.6404
2928.00,4.9517
2927.00,5.1499
2926.00,5.1662
2925.00,4.9177
2924.00,4.4925
2923.00,4.1957
2922.00,4.0246
2921.00,3.9516
2920.00,3.8943
2919.00,3.8199
2918.00,3.7389
2917.00,3.6565
2916.00,3.5752
2915.00,3.4943
2914.00,3.4218
2913.00,3.3646
2912.00,3.3217
2911.00,3.2873
2910.00,3.2581
2909.00,3.2333
2908.00,3.2103
2907.00,3.1843
2906.00,3.1526
2905.00,3.1171
2904.00,3.0814
2903.00,3.0478
2902.00,3.0179
2901.00,2.9931
2900.00,2.9730
2899.00,2.9546
2898.00,2.9344
2897.00,2.9114
2896.00,2.8879
2895.00,2.8660
2894.00,2.8465
2893.00,2.8281
2892.00,2.8098
2891.00,2.7917
2890.00,2.7748
2889.00,2.7602
2888.00,2.7484
2887.00,2.7401
2886.00,2.7361
2885.00,2.7376
2884.00,2.7451
2883.00,2.7588
2882.00,2.7786
2881.00,2.8046
2880.00,2.8365
2879.00,2.8729
2878.00,2.9118
2877.00,2.9523
2876.00,2.9957
2875.00,3.0451
2874.00,3.1049
2873.00,3.1771
2872.00,3.2568
2871.00,3.3315
2870.00,3.3917
2869.00,3.4450
2868.00,3.5098
2867.00,3.5943
2866.00,3.6791
2865.00,3.7301
2864.00,3.7448
2863.00,3.7505
2862.00,3.7553
2861.00,3.7381
2860.00,3.6856
2859.00,3.6106
2858.00,3.5279
2857.00,3.4414
2856.00,3.3512
2855.00,3.2601
2854.00,3.1712
2853.00,3.0830
2852.00,2.9918
2851.00,2.8965
2850.00,2.8003
2849.00,2.7072
2848.00,2.6197
2847.00,2.5382
2846.00,2.4624
2845.00,2.3923
2844.00,2.3286
2843.00,2.2719
2842.00,2.2227
2841.00,2.1813
2840.00,2.1482
2839.00,2.1233
2838.00,2.1065
2837.00,2.0969
2836.00,2.0936
2835.00,2.0954
2834.00,2.1014
2833.00,2.1107
2832.00,2.1220
2831.00,2.1345
2830.00,2.1477
2829.00,2.1613
2828.00,2.1752
2827.00,2.1889
2826.00,2.2019
2825.00,2.2142
2824.00,2.2259
2823.00,2.2373
2822.00,2.2488
2821.00,2.2602
2820.00,2.2712
2819.00,2.2816
2818.00,2.2918
2817.00,2.3023
2816.00,2.3133
2815.00,2.3246
2814.00,2.3357
2813.00,2.3460
2812.00,2.3559
2811.00,2.3656
2810.00,2.3752
2809.00,2.3837
2808.00,2.3904
2807.00,2.3951
2806.00,2.3988
2805.00,2.4024
2804.00,2.4065
2803.00,2.4101
2802.00,2.4121
2801.00,2.4125
2800.00,2.4118
2799.00,2.4109
2798.00,2.4099
2797.00,2.4081
2796.00,2.4050
2795.00,2.4006
2794.00,2.3953
2793.00,2.3894
2792.00,2.3827
2791.00,2.3751
2790.00,2.3665
2789.00,2.3570
2788.00,2.3461
2787.00,2.3334
2786.00,2.3191
2785.00,2.3038
2784.00,2.2883
2783.00,2.2729
2782.00,2.2571
2781.00,2.2403
2780.00,2.2222
2779.00,2.2025
2778.00,2.1811
2777.00,2.1583
2776.00,2.1346
2775.00,2.1102
2774.00,2.0847
2773.00,2.0578
2772.00,2.0295
2771.00,2.0002
2770.00,1.9700
2769.00,1.9388
2768.00,1.9064
2767.00,1.8728
2766.00,1.8383
2765.00,1.8032
2764.00,1.7677
2763.00,1.7319
2762.00,1.6961
2761.00,1.6602
2760.00,1.6245
2759.00,1.5893
2758.00,1.5548
2757.00,1.5218
2756.00,1.4908
2755.00,1.4626
2754.00,1.4381
2753.00,1.4178
2752.00,1.4023
2751.00,1.3918
2750.00,1.3866
2749.00,1.3867
2748.00,1.3919
2747.00,1.4020
2746.00,1.4164
2745.00,1.4347
2744.00,1.4564
2743.00,1.4808
2742.00,1.5075
2741.00,1.5361
2740.00,1.5663
2739.00,1.5979
2738.00,1.6303
2737.00,1.6633
2736.00,1.6966
2735.00,1.7298
2734.00,1.7628
2733.00,1.7956
2732.00,1.8282
2731.00,1.8604
2730.00,1.8920
2729.00,1.9229
2728.00,1.9530
2727.00,1.9823
2726.00,2.0106
2725.00,2.0380
2724.00,2.0645
2723.00,2.0904
2722.00,2.1158
2721.00,2.1405
2720.00,2.1641
2719.00,2.1863
2718.00,2.2072
2717.00,2.2268
2716.00,2.2452
2715.00,2.2627
2714.00,2.2791
2713.00,2.2946
2712.00,2.3092
2711.00,2.3230
2710.00,2.3361
2709.00,2.3485
2708.00,2.3599
2707.00,2.3704
2706.00,2.3800
2705.00,2.3891
2704.00,2.3981
2703.00,2.4072
2702.00,2.4159
2701.00,2.4239
2700.00,2.4309
2699.00,2.4369
2698.00,2.4417
2697.00,2.4450
2696.00,2.4469
2695.00,2.4484
2694.00,2.4497
2693.00,2.4510
2692.00,2.4522
2691.00,2.4534
2690.00,2.4546
2689.00,2.4556
2688.00,2.4557
2687.00,2.4550
2686.00,2.4534
2685.00,2.4509
2684.00,2.4474
2683.00,2.4429
2682.00,2.4381
2681.00,2.4334
2680.00,2.4291
2679.00,2.4251
2678.00,2.4210
2677.00,2.4161
2676.00,2.4102
2675.00,2.4039
2674.00,2.3976
2673.00,2.3912
2672.00,2.3837
2671.00,2.3750
2670.00,2.3658
2669.00,2.3569
2668.00,2.3477
2667.00,2.3370
2666.00,2.3240
2665.00,2.3092
2664.00,2.2930
2663.00,2.2757
2662.00,2.2571
2661.00,2.2374
2660.00,2.2166
2659.00,2.1951
2658.00,2.1732
2657.00,2.1509
2656.00,2.1280
2655.00,2.1044
2654.00,2.0797
2653.00,2.0539
2652.00,2.0272
2651.00,1.9998
2650.00,1.9718
2649.00,1.9430
2648.00,1.9130
2647.00,1.8817
2646.00,1.8489
2645.00,1.8147
2644.00,1.7792
2643.00,1.7426
2642.00,1.7052
2641.00,1.6675
2640.00,1.6299
2639.00,1.5932
2638.00,1.5581
2637.00,1.5254
2636.00,1.4956
2635.00,1.4691
2634.00,1.4465
2633.00,1.4283
2632.00,1.4149
2631.00,1.4066
2630.00,1.4034
2629.00,1.4054
2628.00,1.4122
2627.00,1.4235
2626.00,1.4390
2625.00,1.4581
2624.00,1.4807
2623.00,1.5060
2622.00,1.5334
2621.00,1.5626
2620.00,1.5929
2619.00,1.6240
2618.00,1.6553
2617.00,1.6866
2616.00,1.7179
2615.00,1.7492
2614.00,1.7802
2613.00,1.8108
2612.00,1.8408
2611.00,1.8703
2610.00,1.8992
2609.00,1.9276
2608.00,1.9555
2607.00,1.9829
2606.00,2.0097
2605.00,2.0361
2604.00,2.0623
2603.00,2.0883
2602.00,2.1141
2601.00,2.1393
2600.00,2.1640
2599.00,2.1877
2598.00,2.2104
2597.00,2.2320
2596.00,2.2527
2595.00,2.2726
2594.00,2.2916
2593.00,2.3097
2592.00,2.3270
2591.00,2.3441
2590.00,2.3608
2589.00,2.3762
2588.00,2.3897
2587.00,2.4016
2586.00,2.4126
2585.00,2.4235
2584.00,2.4343
2583.00,2.4448
2582.00,2.4548
2581.00,2.4639
2580.00,2.4727
2579.00,2.4815
2578.00,2.4905
2577.00,2.4987
2576.00,2.5052
2575.00,2.5100
2574.00,2.5137
2573.00,2.5176
2572.00,2.5220
2571.00,2.5260
2570.00,2.5287
2569.00,2.5300
2568.00,2.5309
2567.00,2.5326
2566.00,2.5351
2565.00,2.5368
2564.00,2.5368
2563.00,2.5356
2562.00,2.5342
2561.00,2.5328
2560.00,2.5307
2559.00,2.5280
2558.00,2.5251
2557.00,2.5220
2556.00,2.5179
2555.00,2.5121
2554.00,2.5053
2553.00,2.4982
2552.00,2.4912
2551.00,2.4842
2550.00,2.4769
2549.00,2.4689
2548.00,2.4598
2547.00,2.4499
2546.00,2.4397
2545.00,2.4295
2544.00,2.4187
2543.00,2.4067
2542.00,2.3937
2541.00,2.3798
2540.00,2.3651
2539.00,2.3495
2538.00,2.3327
2537.00,2.3149
2536.00,2.2965
2535.00,2.2777
2534.00,2.2585
2533.00,2.2384
2532.00,2.2166
2531.00,2.1929
2530.00,2.1677
2529.00,2.1417
2528.00,2.1150
2527.00,2.0874
2526.00,2.0586
2525.00,2.0284
2524.00,1.9964
2523.00,1.9623
2522.00,1.9263
2521.00,1.8888
2520.00,1.8500
2519.00,1.8100
2518.00,1.7685
2517.00,1.7257
2516.00,1.6823
2515.00,1.6389
2514.00,1.5961
2513.00,1.5545
2512.00,1.5145
2511.00,1.4769
2510.00,1.4424
2509.00,1.4117
2508.00,1.3854
2507.00,1.3639
2506.00,1.3476
2505.00,1.3369
2504.00,1.3318
2503.00,1.3324
2502.00,1.3387
2501.00,1.3503
2500.00,1.3669
2499.00,1.3881
2498.00,1.4132
2497.00,1.4416
2496.00,1.4728
2495.00,1.5059
2494.00,1.5407
2493.00,1.5766
2492.00,1.6136
2491.00,1.6514
2490.00,1.6897
2489.00,1.7281
2488.00,1.7661
2487.00,1.8035
2486.00,1.8404
2485.00,1.8771
2484.00,1.9134
2483.00,1.9493
2482.00,1.9845
2481.00,2.0189
2480.00,2.0525
2479.00,2.0851
2478.00,2.1166
2477.00,2.1471
2476.00,2.1764
2475.00,2.2045
2474.00,2.2313
2473.00,2.2567
2472.00,2.2809
2471.00,2.3042
2470.00,2.3267
2469.00,2.3480
2468.00,2.3677
2467.00,2.3858
2466.00,2.4029
2465.00,2.4196
2464.00,2.4362
2463.00,2.4524
2462.00,2.4673
2461.00,2.4803
2460.00,2.4914
2459.00,2.5013
2458.00,2.5106
2457.00,2.5196
2456.00,2.5289
2455.00,2.5392
2454.00,2.5508
2453.00,2.5626
2452.00,2.5729
2451.00,2.5804
2450.00,2.5855
2449.00,2.5895
2448.00,2.5938
2447.00,2.5987
2446.00,2.6033
2445.00,2.6065
2444.00,2.6084
2443.00,2.6100
2442.00,2.6127
2441.00,2.6163
2440.00,2.6199
2439.00,2.6221
2438.00,2.6217
2437.00,2.6187
2436.00,2.6149
2435.00,2.6120
2434.00,2.6110
2433.00,2.6107
2432.00,2.6097
2431.00,2.6071
2430.00,2.6027
2429.00,2.5964
2428.00,2.5893
2427.00,2.5831
2426.00,2.5785
2425.00,2.5741
2424.00,2.5681
2423.00,2.5603
2422.00,2.5516
2421.00,2.5423
2420.00,2.5318
2419.00,2.5203
2418.00,2.5088
2417.00,2.4975
2416.00,2.4858
2415.00,2.4725
2414.00,2.4575
2413.00,2.4412
2412.00,2.4243
2411.00,2.4073
2410.00,2.3903
2409.00,2.3727
2408.00,2.3537
2407.00,2.3329
2406.00,2.3106
2405.00,2.2872
2404.00,2.2627
2403.00,2.2368
2402.00,2.2093
2401.00,2.1802
2400.00,2.1492
2399.00,2.1162
2398.00,2.0811
2397.00,2.0445
2396.00,2.0066
2395.00,1.9674
2394.00,1.9273
2393.00,1.8865
2392.00,1.8459
2391.00,1.8068
2390.00,1.7706
2389.00,1.7390
2388.00,1.7136
2387.00,1.6961
2386.00,1.6874
2385.00,1.6879
2384.00,1.6969
2383.00,1.7124
2382.00,1.7319
2381.00,1.7523
2380.00,1.7709
2379.00,1.7861
2378.00,1.7970
2377.00,1.8037
2376.00,1.8076
2375.00,1.8105
2374.00,1.8142
2373.00,1.8194
2372.00,1.8261
2371.00,1.8346
2370.00,1.8451
2369.00,1.8567
2368.00,1.8687
2367.00,1.8819
2366.00,1.8961
2365.00,1.9104
2364.00,1.9269
2363.00,1.9466
2362.00,1.9689
2361.00,1.9921
2360.00,2.0122
2359.00,2.0308
2358.00,2.0487
2357.00,2.0661
2356.00,2.0856
2355.00,2.1113
2354.00,2.1454
2353.00,2.1766
2352.00,2.1977
2351.00,2.2156
2350.00,2.2409
2349.00,2.2755
2348.00,2.3059
2347.00,2.3262
2346.00,2.3405
2345.00,2.3595
2344.00,2.3905
2343.00,2.4277
2342.00,2.4671
2341.00,2.5048
2340.00,2.5428
2339.00,2.5830
2338.00,2.6263
2337.00,2.6720
2336.00,2.7198
2335.00,2.7705
2334.00,2.8240
2333.00,2.8757
2332.00,2.9197
2331.00,2.9552
2330.00,2.9809
2329.00,3.0059
2328.00,3.0328
2327.00,3.0665
2326.00,3.1011
2325.00,3.1307
2324.00,3.1522
2323.00,3.1647
2322.00,3.1714
2321.00,3.1724
2320.00,3.1704
2319.00,3.1675
2318.00,3.1674
2317.00,3.1711
2316.00,3.1766
2315.00,3.1809
2314.00,3.1802
2313.00,3.1738
2312.00,3.1607
2311.00,3.1430
2310.00,3.1213
2309.00,3.0973
2308.00,3.0711
2307.00,3.0436
2306.00,3.0156
2305.00,2.9887
2304.00,2.9631
2303.00,2.9382
2302.00,2.9124
2301.00,2.8848
2300.00,2.8558
2299.00,2.8274
2298.00,2.8012
2297.00,2.7780
2296.00,2.7568
2295.00,2.7368
2294.00,2.7168
2293.00,2.6967
2292.00,2.6765
2291.00,2.6568
2290.00,2.6381
2289.00,2.6203
2288.00,2.6027
2287.00,2.5849
2286.00,2.5671
2285.00,2.5488
2284.00,2.5292
2283.00,2.5078
2282.00,2.4846
2281.00,2.4601
2280.00,2.4348
2279.00,2.4089
2278.00,2.3826
2277.00,2.3555
2276.00,2.3276
2275.00,2.2989
2274.00,2.2697
2273.00,2.2400
2272.00,2.2095
2271.00,2.1777
2270.00,2.1442
2269.00,2.1088
2268.00,2.0712
2267.00,2.0313
2266.00,1.9888
2265.00,1.9439
2264.00,1.8968
2263.00,1.8480
2262.00,1.7983
2261.00,1.7484
2260.00,1.6991
2259.00,1.6513
2258.00,1.6061
2257.00,1.5647
2256.00,1.5282
2255.00,1.4974
2254.00,1.4724
2253.00,1.4525
2252.00,1.4366
2251.00,1.4244
2250.00,1.4160
2249.00,1.4128
2248.00,1.4159
2247.00,1.4259
2246.00,1.4425
2245.00,1.4651
2244.00,1.4928
2243.00,1.5248
2242.00,1.5603
2241.00,1.5983
2240.00,1.6384
2239.00,1.6801
2238.00,1.7228
2237.00,1.7664
2236.00,1.8102
2235.00,1.8537
2234.00,1.8965
2233.00,1.9386
2232.00,1.9801
2231.00,2.0210
2230.00,2.0613
2229.00,2.1008
2228.00,2.1392
2227.00,2.1762
2226.00,2.2119
2225.00,2.2465
2224.00,2.2799
2223.00,2.3118
2222.00,2.3422
2221.00,2.3711
2220.00,2.3986
2219.00,2.4248
2218.00,2.4499
2217.00,2.4743
2216.00,2.4977
2215.00,2.5194
2214.00,2.5391
2213.00,2.5574
2212.00,2.5749
2211.00,2.5913
2210.00,2.6066
2209.00,2.6208
2208.00,2.6341
2207.00,2.6462
2206.00,2.6571
2205.00,2.6679
2204.00,2.6798
2203.00,2.6929
2202.00,2.7059
2201.00,2.7171
2200.00,2.7264
2199.00,2.7353
2198.00,2.7445
2197.00,2.7534
2196.00,2.7607
2195.00,2.7657
2194.00,2.7696
2193.00,2.7732
2192.00,2.7765
2191.00,2.7792
2190.00,2.7819
2189.00,2.7857
2188.00,2.7908
2187.00,2.7964
2186.00,2.8010
2185.00,2.8035
2184.00,2.8039
2183.00,2.8028
2182.00,2.8016
2181.00,2.8008
2180.00,2.7998
2179.00,2.7975
2178.00,2.7934
2177.00,2.7884
2176.00,2.7834
2175.00,2.7794
2174.00,2.7772
2173.00,2.7765
2172.00,2.7756
2171.00,2.7721
2170.00,2.7654
2169.00,2.7566
2168.00,2.7474
2167.00,2.7381
2166.00,2.7287
2165.00,2.7191
2164.00,2.7088
2163.00,2.6971
2162.00,2.6837
2161.00,2.6694
2160.00,2.6554
2159.00,2.6414
2158.00,2.6260
2157.00,2.6086
2156.00,2.5898
2155.00,2.5706
2154.00,2.5513
2153.00,2.5314
2152.00,2.5106
2151.00,2.4885
2150.00,2.4650
2149.00,2.4400
2148.00,2.4133
2147.00,2.3852
2146.00,2.3561
2145.00,2.3262
2144.00,2.2952
2143.00,2.2621
2142.00,2.2262
2141.00,2.1877
2140.00,2.1470
2139.00,2.1048
2138.00,2.0611
2137.00,2.0161
2136.00,1.9697
2135.00,1.9220
2134.00,1.8732
2133.00,1.8237
2132.00,1.7743
2131.00,1.7254
2130.00,1.6778
2129.00,1.6323
2128.00,1.5900
2127.00,1.5518
2126.00,1.5189
2125.00,1.4924
2124.00,1.4731
2123.00,1.4616
2122.00,1.4582
2121.00,1.4632
2120.00,1.4761
2119.00,1.4961
2118.00,1.5222
2117.00,1.5534
2116.00,1.5891
2115.00,1.6282
2114.00,1.6700
2113.00,1.7137
2112.00,1.7587
2111.00,1.8047
2110.00,1.8513
2109.00,1.8980
2108.00,1.9442
2107.00,1.9892
2106.00,2.0332
2105.00,2.0765
2104.00,2.1195
2103.00,2.1618
2102.00,2.2030
2101.00,2.2427
2100.00,2.2810
2099.00,2.3177
2098.00,2.3526
2097.00,2.3853
2096.00,2.4158
2095.00,2.4442
2094.00,2.4708
2093.00,2.4964
2092.00,2.5219
2091.00,2.5477
2090.00,2.5732
2089.00,2.5968
2088.00,2.6173
2087.00,2.6349
2086.00,2.6509
2085.00,2.6672
2084.00,2.6842
2083.00,2.7010
2082.00,2.7170
2081.00,2.7322
2080.00,2.7468
2079.00,2.7607
2078.00,2.7733
2077.00,2.7852
2076.00,2.7973
2075.00,2.8098
2074.00,2.8222
2073.00,2.8334
2072.00,2.8431
2071.00,2.8503
2070.00,2.8546
2069.00,2.8572
2068.00,2.8609
2067.00,2.8677
2066.00,2.8763
2065.00,2.8841
2064.00,2.8895
2063.00,2.8926
2062.00,2.8934
2061.00,2.8915
2060.00,2.8878
2059.00,2.8847
2058.00,2.8849
2057.00,2.8894
2056.00,2.8961
2055.00,2.9011
2054.00,2.9008
2053.00,2.8955
2052.00,2.8895
2051.00,2.8871
2050.00,2.8883
2049.00,2.8886
2048.00,2.8840
2047.00,2.8749
2046.00,2.8652
2045.00,2.8577
2044.00,2.8526
2043.00,2.8476
2042.00,2.8402
2041.00,2.8299
2040.00,2.8188
2039.00,2.8091
2038.00,2.8016
2037.00,2.7945
2036.00,2.7856
2035.00,2.7741
2034.00,2.7600
2033.00,2.7434
2032.00,2.7249
2031.00,2.7054
2030.00,2.6856
2029.00,2.6656
2028.00,2.6454
2027.00,2.6251
2026.00,2.6049
2025.00,2.5845
2024.00,2.5628
2023.00,2.5387
2022.00,2.5119
2021.00,2.4828
2020.00,2.4522
2019.00,2.4204
2018.00,2.3874
2017.00,2.3533
2016.00,2.3179
2015.00,2.2811
2014.00,2.2424
2013.00,2.2010
2012.00,2.1565
2011.00,2.1090
2010.00,2.0589
2009.00,2.0066
2008.00,1.9526
2007.00,1.8975
2006.00,1.8421
2005.00,1.7873
2004.00,1.7346
2003.00,1.6852
2002.00,1.6405
2001.00,1.6015
2000.00,1.5696
1999.00,1.5458
1998.00,1.5309
1997.00,1.5251
1996.00,1.5279
1995.00,1.5385
1994.00,1.5566
1993.00,1.5828
1992.00,1.6172
1991.00,1.6585
1990.00,1.7043
1989.00,1.7528
1988.00,1.8032
1987.00,1.8549
1986.00,1.9068
1985.00,1.9581
1984.00,2.0084
1983.00,2.0578
1982.00,2.1062
1981.00,2.1535
1980.00,2.1994
1979.00,2.2432
1978.00,2.2848
1977.00,2.3243
1976.00,2.3623
1975.00,2.3991
1974.00,2.4344
1973.00,2.4680
1972.00,2.4996
1971.00,2.5289
1970.00,2.5556
1969.00,2.5804
1968.00,2.6048
1967.00,2.6299
1966.00,2.6552
1965.00,2.6801
1964.00,2.7039
1963.00,2.7260
1962.00,2.7458
1961.00,2.7633
1960.00,2.7793
1959.00,2.7938
1958.00,2.8070
1957.00,2.8193
1956.00,2.8324
1955.00,2.8470
1954.00,2.8624
1953.00,2.8772
1952.00,2.8902
1951.00,2.9005
1950.00,2.9076
1949.00,2.9122
1948.00,2.9170
1947.00,2.9241
1946.00,2.9321
1945.00,2.9378
1944.00,2.9413
1943.00,2.9463
1942.00,2.9553
1941.00,2.9660
1940.00,2.9748
1939.00,2.9806
1938.00,2.9849
1937.00,2.9885
1936.00,2.9909
1935.00,2.9912
1934.00,2.9894
1933.00,2.9864
1932.00,2.9836
1931.00,2.9822
1930.00,2.9830
1929.00,2.9846
1928.00,2.9843
1927.00,2.9790
1926.00,2.9678
1925.00,2.9530
1924.00,2.9393
1923.00,2.9311
1922.00,2.9291
1921.00,2.9300
1920.00,2.9292
1919.00,2.9238
1918.00,2.9141
1917.00,2.9021
1916.00,2.8897
1915.00,2.8775
1914.00,2.8652
1913.00,2.8521
1912.00,2.8375
1911.00,2.8206
1910.00,2.8012
1909.00,2.7809
1908.00,2.7621
1907.00,2.7455
1906.00,2.7295
1905.00,2.7119
1904.00,2.6921
1903.00,2.6695
1902.00,2.6436
1901.00,2.6140
1900.00,2.5813
1899.00,2.5466
1898.00,2.5099
1897.00,2.4712
1896.00,2.4309
1895.00,2.3893
1894.00,2.3461
1893.00,2.2995
1892.00,2.2480
1891.00,2.1918
1890.00,2.1332
1889.00,2.0754
1888.00,2.0192
1887.00,1.9643
1886.00,1.9106
1885.00,1.8595
1884.00,1.8132
1883.00,1.7731
1882.00,1.7402
1881.00,1.7155
1880.00,1.6998
1879.00,1.6936
1878.00,1.6969
1877.00,1.7093
1876.00,1.7297
1875.00,1.7567
1874.00,1.7885
1873.00,1.8237
1872.00,1.8606
1871.00,1.8968
1870.00,1.9327
1869.00,1.9720
1868.00,2.0173
1867.00,2.0675
1866.00,2.1194
1865.00,2.1707
1864.00,2.2203
1863.00,2.2682
1862.00,2.3152
1861.00,2.3618
1860.00,2.4078
1859.00,2.4524
1858.00,2.4956
1857.00,2.5379
1856.00,2.5791
1855.00,2.6181
1854.00,2.6537
1853.00,2.6860
1852.00,2.7153
1851.00,2.7426
1850.00,2.7689
1849.00,2.7959
1848.00,2.8246
1847.00,2.8531
1846.00,2.8780
1845.00,2.8972
1844.00,2.9127
1843.00,2.9266
1842.00,2.9400
1841.00,2.9539
1840.00,2.9684
1839.00,2.9825
1838.00,2.9962
1837.00,3.0102
1836.00,3.0251
1835.00,3.0404
1834.00,3.0521
1833.00,3.0558
1832.00,3.0512
1831.00,3.0456
1830.00,3.0474
1829.00,3.0570
1828.00,3.0673
1827.00,3.0730
1826.00,3.0751
1825.00,3.0780
1824.00,3.0847
1823.00,3.0951
1822.00,3.1065
1821.00,3.1141
1820.00,3.1140
1819.00,3.1057
1818.00,3.0931
1817.00,3.0803
1816.00,3.0686
1815.00,3.0568
1814.00,3.0436
1813.00,3.0293
1812.00,3.0158
1811.00,3.0062
1810.00,3.0009
1809.00,2.9980
1808.00,2.9951
1807.00,2.9905
1806.00,2.9820
1805.00,2.9670
1804.00,2.9453
1803.00,2.9199
1802.00,2.8932
1801.00,2.8654
1800.00,2.8357
1799.00,2.8040
1798.00,2.7706
1797.00,2.7358
1796.00,2.7000
1795.00,2.6605
1794.00,2.6119
1793.00,2.5515
1792.00,2.4853
1791.00,2.4219
1790.00,2.3655
1789.00,2.3146
1788.00,2.2668
1787.00,2.2220
1786.00,2.1840
1785.00,2.1583
1784.00,2.1486
1783.00,2.1549
1782.00,2.1762
1781.00,2.2130
1780.00,2.2656
1779.00,2.3298
1778.00,2.3994
1777.00,2.4716
1776.00,2.5472
1775.00,2.6242
1774.00,2.6956
1773.00,2.7581
1772.00,2.8151
1771.00,2.8701
1770.00,2.9237
1769.00,2.9752
1768.00,3.0214
1767.00,3.0585
1766.00,3.0879
1765.00,3.1162
1764.00,3.1453
1763.00,3.1715
1762.00,3.1926
1761.00,3.2118
1760.00,3.2345
1759.00,3.2617
1758.00,3.2895
1757.00,3.3157
1756.00,3.3429
1755.00,3.3730
1754.00,3.4013
1753.00,3.4177
1752.00,3.4169
1751.00,3.4098
1750.00,3.4153
1749.00,3.4423
1748.00,3.4832
1747.00,3.5218
1746.00,3.5496
1745.00,3.5755
1744.00,3.6148
1743.00,3.6757
1742.00,3.7547
1741.00,3.8437
1740.00,3.9363
1739.00,4.0250
1738.00,4.1056
1737.00,4.1812
1736.00,4.2447
1735.00,4.2943
1734.00,4.3547
1733.00,4.4531
1732.00,4.5891
1731.00,4.7766
1730.00,5.0847
1729.00,5.0073
1728.00,4.7391
1727.00,4.7137
1726.00,4.8309
1725.00,4.9085
1724.00,4.9383
1723.00,4.9551
1722.00,4.8192
1721.00,4.7275
1720.00,4.5708
1719.00,4.3716
1718.00,4.2609
1717.00,4.2579
1716.00,4.3737
1715.00,4.6129
1714.00,4.7180
1713.00,4.7289
1712.00,5.1000
1711.00,4.9339
1710.00,4.6436
1709.00,4.7079
1708.00,4.9432
1707.00,4.6824
1706.00,4.3481
1705.00,4.2411
1704.00,4.3403
1703.00,4.7967
1702.00,5.0296
1701.00,4.6586
1700.00,4.7730
1699.00,4.8434
1698.00,4.5983
1697.00,4.4878
1696.00,4.4457
1695.00,4.3450
1694.00,4.2240
1693.00,4.1336
1692.00,4.0423
1691.00,3.9307
1690.00,3.8188
1689.00,3.7355
1688.00,3.6972
1687.00,3.6948
1686.00,3.6909
1685.00,3.6547
1684.00,3.6033
1683.00,3.5690
1682.00,3.5584
1681.00,3.5578
1680.00,3.5540
1679.00,3.5471
1678.00,3.5408
1677.00,3.5291
1676.00,3.5019
1675.00,3.4600
1674.00,3.4149
1673.00,3.3759
1672.00,3.3417
1671.00,3.3044
1670.00,3.2622
1669.00,3.2207
1668.00,3.1831
1667.00,3.1472
1666.00,3.1079
1665.00,3.0586
1664.00,2.9960
1663.00,2.9250
1662.00,2.8549
1661.00,2.7917
1660.00,2.7374
1659.00,2.6917
1658.00,2.6578
1657.00,2.6428
1656.00,2.6488
1655.00,2.6616
1654.00,2.6689
1653.00,2.6786
1652.00,2.6888
1651.00,2.6979
1650.00,2.7156
1649.00,2.7429
1648.00,2.7737
1647.00,2.8078
1646.00,2.8438
1645.00,2.8757
1644.00,2.9018
1643.00,2.9263
1642.00,2.9523
1641.00,2.9805
1640.00,3.0113
1639.00,3.0445
1638.00,3.0750
1637.00,3.0966
1636.00,3.1108
1635.00,3.1208
1634.00,3.1256
1633.00,3.1266
1632.00,3.1282
1631.00,3.1327
1630.00,3.1400
1629.00,3.1497
1628.00,3.1629
1627.00,3.1802
1626.00,3.1989
1625.00,3.2129
1624.00,3.2192
1623.00,3.2240
1622.00,3.2355
1621.00,3.2554
1620.00,3.2778
1619.00,3.2926
1618.00,3.2919
1617.00,3.2791
1616.00,3.2667
1615.00,3.2618
1614.00,3.2606
1613.00,3.2557
1612.00,3.2447
1611.00,3.2327
1610.00,3.2257
1609.00,3.2234
1608.00,3.2221
1607.00,3.2207
1606.00,3.2203
1605.00,3.2189
1604.00,3.2142
1603.00,3.2072
1602.00,3.2003
1601.00,3.1933
1600.00,3.1833
1599.00,3.1679
1598.00,3.1462
1597.00,3.1192
1596.00,3.0903
1595.00,3.0637
1594.00,3.0411
1593.00,3.0215
1592.00,3.0028
1591.00,2.9838
1590.00,2.9625
1589.00,2.9366
1588.00,2.9066
1587.00,2.8749
1586.00,2.8416
1585.00,2.8042
1584.00,2.7616
1583.00,2.7154
1582.00,2.6662
1581.00,2.6148
1580.00,2.5659
1579.00,2.5210
1578.00,2.4716
1577.00,2.4043
1576.00,2.3185
1575.00,2.2289
1574.00,2.1524
1573.00,2.0938
1572.00,2.0446
1571.00,1.9951
1570.00,1.9483
1569.00,1.9149
1568.00,1.9000
1567.00,1.9026
1566.00,1.9198
1565.00,1.9505
1564.00,1.9960
1563.00,2.0572
1562.00,2.1265
1561.00,2.1848
1560.00,2.2208
1559.00,2.2661
1558.00,2.3336
1557.00,2.4001
1556.00,2.4577
1555.00,2.5115
1554.00,2.5635
1553.00,2.6121
1552.00,2.6543
1551.00,2.6924
1550.00,2.7346
1549.00,2.7852
1548.00,2.8377
1547.00,2.8819
1546.00,2.9153
1545.00,2.9460
1544.00,2.9821
1543.00,3.0208
1542.00,3.0536
1541.00,3.0787
1540.00,3.1020
1539.00,3.1222
1538.00,3.1361
1537.00,3.1502
1536.00,3.1672
1535.00,3.1809
1534.00,3.1896
1533.00,3.1998
1532.00,3.2131
1531.00,3.2276
1530.00,3.2436
1529.00,3.2607
1528.00,3.2736
1527.00,3.2768
1526.00,3.2731
1525.00,3.2711
1524.00,3.2752
1523.00,3.2820
1522.00,3.2899
1521.00,3.3005
1520.00,3.3081
1519.00,3.3056
1518.00,3.2965
1517.00,3.2922
1516.00,3.2991
1515.00,3.3122
1514.00,3.3211
1513.00,3.3177
1512.00,3.3027
1511.00,3.2881
1510.00,3.2878
1509.00,3.3028
1508.00,3.3214
1507.00,3.3346
1506.00,3.3326
1505.00,3.3123
1504.00,3.2889
1503.00,3.2761
1502.00,3.2741
1501.00,3.2755
1500.00,3.2715
1499.00,3.2567
1498.00,3.2315
1497.00,3.2015
1496.00,3.1739
1495.00,3.1538
1494.00,3.1418
1493.00,3.1296
1492.00,3.1047
1491.00,3.0633
1490.00,3.0177
1489.00,2.9813
1488.00,2.9548
1487.00,2.9319
1486.00,2.9071
1485.00,2.8776
1484.00,2.8416
1483.00,2.7979
1482.00,2.7473
1481.00,2.6936
1480.00,2.6407
1479.00,2.5904
1478.00,2.5434
1477.00,2.5042
1476.00,2.4788
1475.00,2.4699
1474.00,2.4766
1473.00,2.5024
1472.00,2.5516
1471.00,2.6195
1470.00,2.6972
1469.00,2.7810
1468.00,2.8698
1467.00,2.9612
1466.00,3.0512
1465.00,3.1345
1464.00,3.2021
1463.00,3.2466
1462.00,3.2745
1461.00,3.3001
1460.00,3.3320
1459.00,3.3724
1458.00,3.4276
1457.00,3.5082
1456.00,3.6044
1455.00,3.6921
1454.00,3.7730
1453.00,3.8707
1452.00,3.9982
1451.00,4.1235
1450.00,4.1845
1449.00,4.2524
1448.00,4.3067
1447.00,4.0847
1446.00,3.8253
1445.00,3.6555
1444.00,3.5362
1443.00,3.4409
1442.00,3.3662
1441.00,3.3198
1440.00,3.3053
1439.00,3.3171
1438.00,3.3479
1437.00,3.3993
1436.00,3.4725
1435.00,3.5502
1434.00,3.6113
1433.00,3.6532
1432.00,3.6851
1431.00,3.7143
1430.00,3.7438
1429.00,3.7739
1428.00,3.8005
1427.00,3.8186
1426.00,3.8302
1425.00,3.8463
1424.00,3.8659
1423.00,3.8718
1422.00,3.8624
1421.00,3.8359
1420.00,3.7708
1419.00,3.6764
1418.00,3.5908
1417.00,3.5258
1416.00,3.4647
1415.00,3.3955
1414.00,3.3267
1413.00,3.2737
1412.00,3.2422
1411.00,3.2265
1410.00,3.2177
1409.00,3.2127
1408.00,3.2140
1407.00,3.2244
1406.00,3.2435
1405.00,3.2686
1404.00,3.2971
1403.00,3.3268
1402.00,3.3538
1401.00,3.3711
1400.00,3.3774
1399.00,3.3840
1398.00,3.4029
1397.00,3.4299
1396.00,3.4475
1395.00,3.4477
1394.00,3.4449
1393.00,3.4549
1392.00,3.4759
1391.00,3.4925
1390.00,3.4943
1389.00,3.4846
1388.00,3.4739
1387.00,3.4740
1386.00,3.4904
1385.00,3.5159
1384.00,3.5333
1383.00,3.5318
1382.00,3.5197
1381.00,3.5113
1380.00,3.5091
1379.00,3.5058
1378.00,3.4975
1377.00,3.4892
1376.00,3.4854
1375.00,3.4847
1374.00,3.4827
1373.00,3.4760
1372.00,3.4642
1371.00,3.4512
1370.00,3.4430
1369.00,3.4411
1368.00,3.4395
1367.00,3.4323
1366.00,3.4195
1365.00,3.4035
1364.00,3.3832
1363.00,3.3574
1362.00,3.3293
1361.00,3.3042
1360.00,3.2842
1359.00,3.2687
1358.00,3.2564
1357.00,3.2474
1356.00,3.2440
1355.00,3.2500
1354.00,3.2682
1353.00,3.2992
1352.00,3.3436
1351.00,3.4064
1350.00,3.4941
1349.00,3.6022
1348.00,3.6956
1347.00,3.7292
1346.00,3.7142
1345.00,3.6863
1344.00,3.6549
1343.00,3.6233
1342.00,3.6046
1341.00,3.6144
1340.00,3.6551
1339.00,3.7072
1338.00,3.7378
1337.00,3.7239
1336.00,3.6643
1335.00,3.5756
1334.00,3.4805
1333.00,3.3938
1332.00,3.3181
1331.00,3.2517
1330.00,3.1961
1329.00,3.1546
1328.00,3.1301
1327.00,3.1238
1326.00,3.1360
1325.00,3.1651
1324.00,3.2056
1323.00,3.2506
1322.00,3.3007
1321.00,3.3650
1320.00,3.4506
1319.00,3.5550
1318.00,3.6714
1317.00,3.7980
1316.00,3.9334
1315.00,4.0644
1314.00,4.1721
1313.00,4.2357
1312.00,4.2079
1311.00,4.1217
1310.00,4.0611
1309.00,4.0077
1308.00,3.9202
1307.00,3.8223
1306.00,3.7337
1305.00,3.6456
1304.00,3.5497
1303.00,3.4472
1302.00,3.3458
1301.00,3.2555
1300.00,3.1820
1299.00,3.1239
1298.00,3.0761
1297.00,3.0352
1296.00,3.0030
1295.00,2.9841
1294.00,2.9806
1293.00,2.9912
1292.00,3.0130
1291.00,3.0444
1290.00,3.0835
1289.00,3.1253
1288.00,3.1633
1287.00,3.1958
1286.00,3.2283
1285.00,3.2672
1284.00,3.3130
1283.00,3.3594
1282.00,3.3990
1281.00,3.4290
1280.00,3.4523
1279.00,3.4734
1278.00,3.4923
1277.00,3.5054
1276.00,3.5113
1275.00,3.5140
1274.00,3.5210
1273.00,3.5404
1272.00,3.5777
1271.00,3.6318
1270.00,3.6913
1269.00,3.7385
1268.00,3.7609
1267.00,3.7667
1266.00,3.7814
1265.00,3.8158
1264.00,3.8498
1263.00,3.8550
1262.00,3.8274
1261.00,3.7861
1260.00,3.7486
1259.00,3.7231
1258.00,3.7160
1257.00,3.7297
1256.00,3.7542
1255.00,3.7717
1254.00,3.7758
1253.00,3.7761
1252.00,3.7802
1251.00,3.7855
1250.00,3.7880
1249.00,3.7923
1248.00,3.8045
1247.00,3.8143
1246.00,3.8065
1245.00,3.7997
1244.00,3.8113
1243.00,3.8251
1242.00,3.8354
1241.00,3.8516
1240.00,3.8620
1239.00,3.8561
1238.00,3.8493
1237.00,3.8614
1236.00,3.8885
1235.00,3.9077
1234.00,3.9114
1233.00,3.9148
1232.00,3.9236
1231.00,3.9391
1230.00,3.9911
1229.00,4.1157
1228.00,4.2299
1227.00,4.2169
1226.00,4.1852
1225.00,4.1542
1224.00,4.1229
1223.00,4.1297
1222.00,4.1473
1221.00,4.1427
1220.00,4.1113
1219.00,4.0449
1218.00,3.9643
1217.00,3.9183
1216.00,3.9286
1215.00,3.9803
1214.00,4.0148
1213.00,3.9780
1212.00,3.9006
1211.00,3.8362
1210.00,3.8012
1209.00,3.7929
1208.00,3.8057
1207.00,3.8302
1206.00,3.8528
1205.00,3.8603
1204.00,3.8489
1203.00,3.8257
1202.00,3.8073
1201.00,3.8092
1200.00,3.8229
1199.00,3.8239
1198.00,3.7947
1197.00,3.7403
1196.00,3.6827
1195.00,3.6354
1194.00,3.5988
1193.00,3.5676
1192.00,3.5378
1191.00,3.5110
1190.00,3.4896
1189.00,3.4713
1188.00,3.4531
1187.00,3.4366
1186.00,3.4265
1185.00,3.4229
1184.00,3.4207
1183.00,3.4148
1182.00,3.4046
1181.00,3.3894
1180.00,3.3647
1179.00,3.3306
1178.00,3.2988
1177.00,3.2828
1176.00,3.2889
1175.00,3.3138
1174.00,3.3458
1173.00,3.3700
1172.00,3.3779
1171.00,3.3742
1170.00,3.3747
1169.00,3.3933
1168.00,3.4286
1167.00,3.4659
1166.00,3.4905
1165.00,3.4990
1164.00,3.4970
1163.00,3.4889
1162.00,3.4758
1161.00,3.4601
1160.00,3.4469
1159.00,3.4434
1158.00,3.4551
1157.00,3.4810
1156.00,3.5120
1155.00,3.5398
1154.00,3.5697
1153.00,3.6121
1152.00,3.6609
1151.00,3.6965
1150.00,3.7193
1149.00,3.7548
1148.00,3.8231
1147.00,3.9145
1146.00,3.9645
1145.00,3.9065
1144.00,3.7958
1143.00,3.7092
1142.00,3.6751
1141.00,3.6993
1140.00,3.7780
1139.00,3.8824
1138.00,3.9478
1137.00,3.9525
1136.00,3.9003
1135.00,3.8051
1134.00,3.7397
1133.00,3.7451
1132.00,3.8215
1131.00,3.9454
1130.00,4.0524
1129.00,4.0723
1128.00,4.1066
1127.00,4.1788
1126.00,4.0633
1125.00,3.9150
1124.00,3.9020
1123.00,4.0332
1122.00,4.3283
1121.00,4.7188
1120.00,4.8219
1119.00,4.7170
1118.00,4.6304
1117.00,4.5082
1116.00,4.5203
1115.00,4.4804
1114.00,4.1529
1113.00,3.9414
1112.00,3.8607
1111.00,3.8602
1110.00,3.9169
1109.00,3.9928
1108.00,4.0576
1107.00,4.0697
1106.00,4.0228
1105.00,3.9742
1104.00,3.9681
1103.00,3.9739
1102.00,3.9421
1101.00,3.8851
1100.00,3.8506
1099.00,3.8703
1098.00,3.9467
1097.00,4.0420
1096.00,4.0995
1095.00,4.1196
1094.00,4.1329
1093.00,4.1164
1092.00,4.0229
1091.00,3.8860
1090.00,3.7802
1089.00,3.7379
1088.00,3.7522
1087.00,3.7935
1086.00,3.8297
1085.00,3.8452
1084.00,3.8414
1083.00,3.8368
1082.00,3.8515
1081.00,3.8762
1080.00,3.8813
1079.00,3.8725
1078.00,3.8940
1077.00,3.9615
1076.00,4.0095
1075.00,3.9675
1074.00,3.8757
1073.00,3.7853
1072.00,3.7237
1071.00,3.7042
1070.00,3.7209
1069.00,3.7462
1068.00,3.7512
1067.00,3.7464
1066.00,3.7459
1065.00,3.7358
1064.00,3.7108
1063.00,3.6902
1062.00,3.6956
1061.00,3.7347
1060.00,3.7951
1059.00,3.8544
1058.00,3.8776
1057.00,3.8545
1056.00,3.8283
1055.00,3.8655
1054.00,4.0036
1053.00,4.0137
1052.00,3.8478
1051.00,3.7716
1050.00,3.7695
1049.00,3.7661
1048.00,3.7173
1047.00,3.6372
1046.00,3.5724
1045.00,3.5321
1044.00,3.4971
1043.00,3.4496
1042.00,3.3993
1041.00,3.3627
1040.00,3.3445
1039.00,3.3460
1038.00,3.3643
1037.00,3.3854
1036.00,3.4021
1035.00,3.4206
1034.00,3.4436
1033.00,3.4654
1032.00,3.4760
1031.00,3.4769
1030.00,3.4904
1029.00,3.5388
1028.00,3.6229
1027.00,3.7182
1026.00,3.7966
1025.00,3.8623
1024.00,3.9258
1023.00,3.9721
1022.00,3.9892
1021.00,3.9866
1020.00,3.9812
1019.00,3.9789
1018.00,3.9965
1017.00,4.0502
1016.00,4.1186
1015.00,4.1652
1014.00,4.1420
1013.00,4.0442
1012.00,3.9470
1011.00,3.9087
1010.00,3.9407
1009.00,3.9967
1008.00,3.9981
1007.00,3.9518
1006.00,3.9413
1005.00,4.0165
1004.00,4.1712
1003.00,4.3203
1002.00,4.3097
1001.00,4.1618
1000.00,4.0252
999.00,3.9594
998.00,3.9590
997.00,3.9790
996.00,3.9596
995.00,3.9099
994.00,3.8957
993.00,3.9718
992.00,4.1712
991.00,4.4576
990.00,4.5261
989.00,4.3606
988.00,4.2231
987.00,4.0502
986.00,3.9059
985.00,3.8823
984.00,3.9847
983.00,4.1793
982.00,4.4467
981.00,4.6317
980.00,4.4981
979.00,4.3855
978.00,4.5869
977.00,4.7878
976.00,4.3258
975.00,4.1298
974.00,4.0878
973.00,4.1045
972.00,4.1356
971.00,4.1142
970.00,4.0927
969.00,4.0666
968.00,3.9936
967.00,3.9059
966.00,3.8719
965.00,3.9113
964.00,3.9834
963.00,4.1045
962.00,4.2597
961.00,4.2536
960.00,4.1901
959.00,4.3444
958.00,4.7356
957.00,4.4713
956.00,4.2021
955.00,4.0818
954.00,4.0107
953.00,4.0508
952.00,4.1900
951.00,4.5877
950.00,4.9451
949.00,4.3960
948.00,4.2871
947.00,4.4018
946.00,4.5559
945.00,4.3451
944.00,4.1035
943.00,4.0281
942.00,4.0567
941.00,4.1722
940.00,4.3669
939.00,4.6940
938.00,4.7483
937.00,4.4758
936.00,4.4796
935.00,4.7340
934.00,4.4805
933.00,4.2215
932.00,4.1784
931.00,4.3370
930.00,4.7406
929.00,4.6779
928.00,4.4628
927.00,4.3753
926.00,4.3140
925.00,4.3540
924.00,4.5069
923.00,4.5285
922.00,4.3351
921.00,4.2170
920.00,4.1694
919.00,4.1591
918.00,4.2040
917.00,4.3187
916.00,4.5902
915.00,4.9599
914.00,5.2969
913.00,5.3811
912.00,5.1784
911.00,5.4461
910.00,4.7686
909.00,4.4850
908.00,4.4005
907.00,4.4553
906.00,4.9064
905.00,4.6797
904.00,4.2091
903.00,4.0383
902.00,4.0179
901.00,4.1112
900.00,4.2719
899.00,4.3588
898.00,4.5001
897.00,4.9654
896.00,4.7739
895.00,4.5827
894.00,5.0055
893.00,4.8194
892.00,4.5390
891.00,4.7814
890.00,4.4027
889.00,4.0046
888.00,3.8679
887.00,3.9267
886.00,4.1952
885.00,4.6550
884.00,4.9447
883.00,4.3531
882.00,4.0411
881.00,3.9645
880.00,3.9918
879.00,4.0484
878.00,4.0937
877.00,4.1330
876.00,4.1601
875.00,4.1923
874.00,4.2435
873.00,4.2180
872.00,4.1238
871.00,4.0934
870.00,4.1657
869.00,4.2885
868.00,4.2844
867.00,4.1292
866.00,4.0133
865.00,3.9997
864.00,4.0177
863.00,3.9891
862.00,3.9949
861.00,4.0636
860.00,4.1652
859.00,4.3969
858.00,4.3099
857.00,3.9560
856.00,3.8071
855.00,3.7825
854.00,3.8342
853.00,3.9730
852.00,4.1364
851.00,4.2310
850.00,4.3099
849.00,4.4205
848.00,4.4960
847.00,4.6708
846.00,4.7257
845.00,4.2934
844.00,4.0733
843.00,4.0090
842.00,3.9527
841.00,3.8839
840.00,3.8687
839.00,3.9469
838.00,4.0843
837.00,4.1566
836.00,4.0893
835.00,4.0102
834.00,3.9742
833.00,4.0777
832.00,4.3700
831.00,4.3386
830.00,4.1355
829.00,3.9795
828.00,3.8302
827.00,3.7489
826.00,3.7193
825.00,3.7083
824.00,3.6813
823.00,3.6642
822.00,3.7335
821.00,3.9357
820.00,4.2223
819.00,4.3314
818.00,4.2142
817.00,4.0103
816.00,3.8388
815.00,3.7473
814.00,3.7622
813.00,3.8708
812.00,4.1488
811.00,4.6740
810.00,4.2715
809.00,4.0931
808.00,4.1527
807.00,4.4374
806.00,5.0341
805.00,4.5294
804.00,4.4602
803.00,4.4700
802.00,4.3236
801.00,4.2278
800.00,4.2079
799.00,4.2792
798.00,4.4520
797.00,4.8469
796.00,4.9091
795.00,4.5698
794.00,4.4686
793.00,4.5909
792.00,4.8079
791.00,4.6682
790.00,4.5066
789.00,4.3504
788.00,4.1772
787.00,4.0659
786.00,4.0186
785.00,4.0273
784.00,4.0760
783.00,4.1400
782.00,4.1964
781.00,4.2350
780.00,4.2222
779.00,4.1572
778.00,4.1094
777.00,4.0822
776.00,4.0141
775.00,3.9531
774.00,3.9740
773.00,4.0694
772.00,4.1714
771.00,4.2273
770.00,4.2549
769.00,4.2457
768.00,4.2222
767.00,4.2516
766.00,4.2998
765.00,4.2531
764.00,4.1287
763.00,4.0129
762.00,3.9273
761.00,3.8750
760.00,3.8700
759.00,3.9239
758.00,4.0350
757.00,4.1587
756.00,4.2933
755.00,4.6624
754.00,4.7139
753.00,4.2071
752.00,4.0231
751.00,4.0342
750.00,4.1566
749.00,4.2361
748.00,4.2464
747.00,4.2945
746.00,4.3642
745.00,4.4431
744.00,4.3704
743.00,4.1942
742.00,4.0597
741.00,3.9901
740.00,3.9917
739.00,4.0365
738.00,4.0622
737.00,4.0457
736.00,4.0195
735.00,4.0091
734.00,4.0353
733.00,4.1234
732.00,4.2659
731.00,4.3330
730.00,4.1711
729.00,4.0052
728.00,3.9580
727.00,4.1300
726.00,4.3008
725.00,3.9979
724.00,3.9381
723.00,4.1733
722.00,4.1932
721.00,3.9734
720.00,3.9525
719.00,4.0928
718.00,4.2247
717.00,4.1209
716.00,4.0032
715.00,4.0198
714.00,4.1587
713.00,4.2516
712.00,4.2010
711.00,4.2888
710.00,4.3258
709.00,4.1422
708.00,4.1142
707.00,4.3200
706.00,4.5343
705.00,4.4813
704.00,4.6395
703.00,4.5434
702.00,4.1227
701.00,3.9439
700.00,3.9076
