Created as New Dataset,Sample 058 By Administrator Date Wednesday, November 24 2021
cm-1,A
7502.00,0.8381
7501.00,0.8449
7500.00,0.8520
7499.00,0.8593
7498.00,0.8666
7497.00,0.8738
7496.00,0.8812
7495.00,0.8889
7494.00,0.8968
7493.00,0.9048
7492.00,0.9130
7491.00,0.9214
7490.00,0.9301
7489.00,0.9388
7488.00,0.9474
7487.00,0.9560
7486.00,0.9645
7485.00,0.9726
7484.00,0.9799
7483.00,0.9864
7482.00,0.9925
7481.00,0.9989
7480.00,1.0058
7479.00,1.0133
7478.00,1.0208
7477.00,1.0281
7476.00,1.0354
7475.00,1.0432
7474.00,1.0516
7473.00,1.0599
7472.00,1.0672
7471.00,1.0731
7470.00,1.0783
7469.00,1.0835
7468.00,1.0885
7467.00,1.0930
7466.00,1.0966
7465.00,1.0996
7464.00,1.1025
7463.00,1.1056
7462.00,1.1086
7461.00,1.1110
7460.00,1.1126
7459.00,1.1134
7458.00,1.1138
7457.00,1.1139
7456.00,1.1138
7455.00,1.1133
7454.00,1.1122
7453.00,1.1108
7452.00,1.1093
7451.00,1.1079
7450.00,1.1064
7449.00,1.1046
7448.00,1.1029
7447.00,1.1014
7446.00,1.0996
7445.00,1.0968
7444.00,1.0926
7443.00,1.0874
7442.00,1.0815
7441.00,1.0749
7440.00,1.0676
7439.00,1.0602
7438.00,1.0534
7437.00,1.0471
7436.00,1.0410
7435.00,1.0348
7434.00,1.0285
7433.00,1.0225
7432.00,1.0167
7431.00,1.0112
7430.00,1.0060
7429.00,1.0014
7428.00,0.9981
7427.00,0.9962
7426.00,0.9950
7425.00,0.9936
7424.00,0.9914
7423.00,0.9880
7422.00,0.9835
7421.00,0.9781
7420.00,0.9720
7419.00,0.9648
7418.00,0.9568
7417.00,0.9481
7416.00,0.9396
7415.00,0.9314
7414.00,0.9236
7413.00,0.9158
7412.00,0.9077
7411.00,0.8997
7410.00,0.8921
7409.00,0.8851
7408.00,0.8782
7407.00,0.8714
7406.00,0.8646
7405.00,0.8576
7404.00,0.8505
7403.00,0.8433
7402.00,0.8364
7401.00,0.8297
7400.00,0.8231
7399.00,0.8163
7398.00,0.8095
7397.00,0.8032
7396.00,0.7976
7395.00,0.7927
7394.00,0.7883
7393.00,0.7844
7392.00,0.7810
7391.00,0.7781
7390.00,0.7757
7389.00,0.7739
7388.00,0.7727
7387.00,0.7721
7386.00,0.7719
7385.00,0.7723
7384.00,0.7734
7383.00,0.7750
7382.00,0.7769
7381.00,0.7787
7380.00,0.7808
7379.00,0.7837
7378.00,0.7873
7377.00,0.7916
7376.00,0.7963
7375.00,0.8016
7374.00,0.8074
7373.00,0.8134
7372.00,0.8194
7371.00,0.8256
7370.00,0.8322
7369.00,0.8392
7368.00,0.8462
7367.00,0.8533
7366.00,0.8609
7365.00,0.8692
7364.00,0.8778
7363.00,0.8861
7362.00,0.8942
7361.00,0.9023
7360.00,0.9109
7359.00,0.9202
7358.00,0.9299
7357.00,0.9393
7356.00,0.9484
7355.00,0.9574
7354.00,0.9669
7353.00,0.9769
7352.00,0.9871
7351.00,0.9968
7350.00,1.0058
7349.00,1.0144
7348.00,1.0225
7347.00,1.0302
7346.00,1.0377
7345.00,1.0452
7344.00,1.0527
7343.00,1.0602
7342.00,1.0676
7341.00,1.0753
7340.00,1.0834
7339.00,1.0916
7338.00,1.0992
7337.00,1.1059
7336.00,1.1122
7335.00,1.1190
7334.00,1.1264
7333.00,1.1339
7332.00,1.1402
7331.00,1.1449
7330.00,1.1486
7329.00,1.1519
7328.00,1.1552
7327.00,1.1581
7326.00,1.1607
7325.00,1.1634
7324.00,1.1668
7323.00,1.1710
7322.00,1.1753
7321.00,1.1792
7320.00,1.1823
7319.00,1.1847
7318.00,1.1866
7317.00,1.1878
7316.00,1.1884
7315.00,1.1885
7314.00,1.1882
7313.00,1.1875
7312.00,1.1865
7311.00,1.1851
7310.00,1.1833
7309.00,1.1806
7308.00,1.1770
7307.00,1.1727
7306.00,1.1681
7305.00,1.1637
7304.00,1.1594
7303.00,1.1549
7302.00,1.1502
7301.00,1.1453
7300.00,1.1402
7299.00,1.1348
7298.00,1.1289
7297.00,1.1224
7296.00,1.1150
7295.00,1.1070
7294.00,1.0987
7293.00,1.0904
7292.00,1.0820
7291.00,1.0736
7290.00,1.0648
7289.00,1.0555
7288.00,1.0459
7287.00,1.0364
7286.00,1.0271
7285.00,1.0175
7284.00,1.0072
7283.00,0.9965
7282.00,0.9859
7281.00,0.9757
7280.00,0.9657
7279.00,0.9555
7278.00,0.9448
7277.00,0.9341
7276.00,0.9237
7275.00,0.9139
7274.00,0.9045
7273.00,0.8951
7272.00,0.8858
7271.00,0.8768
7270.00,0.8684
7269.00,0.8603
7268.00,0.8523
7267.00,0.8444
7266.00,0.8368
7265.00,0.8298
7264.00,0.8232
7263.00,0.8169
7262.00,0.8110
7261.00,0.8056
7260.00,0.8008
7259.00,0.7969
7258.00,0.7936
7257.00,0.7910
7256.00,0.7888
7255.00,0.7872
7254.00,0.7863
7253.00,0.7860
7252.00,0.7861
7251.00,0.7866
7250.00,0.7877
7249.00,0.7894
7248.00,0.7919
7247.00,0.7950
7246.00,0.7987
7245.00,0.8029
7244.00,0.8076
7243.00,0.8128
7242.00,0.8184
7241.00,0.8245
7240.00,0.8306
7239.00,0.8368
7238.00,0.8433
7237.00,0.8501
7236.00,0.8572
7235.00,0.8644
7234.00,0.8717
7233.00,0.8792
7232.00,0.8870
7231.00,0.8952
7230.00,0.9035
7229.00,0.9120
7228.00,0.9203
7227.00,0.9287
7226.00,0.9373
7225.00,0.9461
7224.00,0.9547
7223.00,0.9628
7222.00,0.9710
7221.00,0.9798
7220.00,0.9892
7219.00,0.9983
7218.00,1.0066
7217.00,1.0146
7216.00,1.0228
7215.00,1.0312
7214.00,1.0393
7213.00,1.0467
7212.00,1.0538
7211.00,1.0613
7210.00,1.0691
7209.00,1.0767
7208.00,1.0836
7207.00,1.0898
7206.00,1.0953
7205.00,1.1006
7204.00,1.1059
7203.00,1.1115
7202.00,1.1172
7201.00,1.1229
7200.00,1.1284
7199.00,1.1335
7198.00,1.1382
7197.00,1.1425
7196.00,1.1464
7195.00,1.1496
7194.00,1.1524
7193.00,1.1551
7192.00,1.1579
7191.00,1.1607
7190.00,1.1628
7189.00,1.1640
7188.00,1.1644
7187.00,1.1644
7186.00,1.1643
7185.00,1.1638
7184.00,1.1629
7183.00,1.1618
7182.00,1.1610
7181.00,1.1604
7180.00,1.1595
7179.00,1.1586
7178.00,1.1580
7177.00,1.1577
7176.00,1.1569
7175.00,1.1550
7174.00,1.1518
7173.00,1.1479
7172.00,1.1434
7171.00,1.1380
7170.00,1.1316
7169.00,1.1249
7168.00,1.1184
7167.00,1.1121
7166.00,1.1057
7165.00,1.0988
7164.00,1.0917
7163.00,1.0842
7162.00,1.0762
7161.00,1.0680
7160.00,1.0596
7159.00,1.0513
7158.00,1.0427
7157.00,1.0338
7156.00,1.0245
7155.00,1.0153
7154.00,1.0064
7153.00,0.9976
7152.00,0.9886
7151.00,0.9795
7150.00,0.9705
7149.00,0.9614
7148.00,0.9521
7147.00,0.9423
7146.00,0.9321
7145.00,0.9218
7144.00,0.9117
7143.00,0.9019
7142.00,0.8924
7141.00,0.8832
7140.00,0.8743
7139.00,0.8657
7138.00,0.8573
7137.00,0.8492
7136.00,0.8412
7135.00,0.8336
7134.00,0.8264
7133.00,0.8197
7132.00,0.8135
7131.00,0.8078
7130.00,0.8026
7129.00,0.7980
7128.00,0.7940
7127.00,0.7906
7126.00,0.7877
7125.00,0.7854
7124.00,0.7835
7123.00,0.7821
7122.00,0.7815
7121.00,0.7816
7120.00,0.7822
7119.00,0.7832
7118.00,0.7845
7117.00,0.7863
7116.00,0.7887
7115.00,0.7917
7114.00,0.7953
7113.00,0.7996
7112.00,0.8046
7111.00,0.8099
7110.00,0.8155
7109.00,0.8212
7108.00,0.8274
7107.00,0.8341
7106.00,0.8412
7105.00,0.8488
7104.00,0.8567
7103.00,0.8650
7102.00,0.8738
7101.00,0.8827
7100.00,0.8914
7099.00,0.8999
7098.00,0.9084
7097.00,0.9172
7096.00,0.9262
7095.00,0.9354
7094.00,0.9445
7093.00,0.9537
7092.00,0.9630
7091.00,0.9725
7090.00,0.9824
7089.00,0.9922
7088.00,1.0013
7087.00,1.0099
7086.00,1.0184
7085.00,1.0274
7084.00,1.0368
7083.00,1.0459
7082.00,1.0543
7081.00,1.0625
7080.00,1.0710
7079.00,1.0798
7078.00,1.0886
7077.00,1.0969
7076.00,1.1048
7075.00,1.1126
7074.00,1.1203
7073.00,1.1274
7072.00,1.1340
7071.00,1.1402
7070.00,1.1461
7069.00,1.1516
7068.00,1.1569
7067.00,1.1623
7066.00,1.1680
7065.00,1.1736
7064.00,1.1785
7063.00,1.1823
7062.00,1.1857
7061.00,1.1892
7060.00,1.1929
7059.00,1.1961
7058.00,1.1989
7057.00,1.2013
7056.00,1.2037
7055.00,1.2060
7054.00,1.2074
7053.00,1.2076
7052.00,1.2068
7051.00,1.2055
7050.00,1.2038
7049.00,1.2019
7048.00,1.1999
7047.00,1.1981
7046.00,1.1966
7045.00,1.1951
7044.00,1.1931
7043.00,1.1904
7042.00,1.1867
7041.00,1.1822
7040.00,1.1770
7039.00,1.1715
7038.00,1.1659
7037.00,1.1603
7036.00,1.1546
7035.00,1.1484
7034.00,1.1413
7033.00,1.1334
7032.00,1.1248
7031.00,1.1159
7030.00,1.1071
7029.00,1.0983
7028.00,1.0895
7027.00,1.0806
7026.00,1.0714
7025.00,1.0621
7024.00,1.0526
7023.00,1.0428
7022.00,1.0327
7021.00,1.0223
7020.00,1.0116
7019.00,1.0009
7018.00,0.9901
7017.00,0.9793
7016.00,0.9685
7015.00,0.9575
7014.00,0.9467
7013.00,0.9362
7012.00,0.9260
7011.00,0.9159
7010.00,0.9058
7009.00,0.8957
7008.00,0.8857
7007.00,0.8759
7006.00,0.8665
7005.00,0.8576
7004.00,0.8490
7003.00,0.8409
7002.00,0.8333
7001.00,0.8263
7000.00,0.8198
6999.00,0.8137
6998.00,0.8082
6997.00,0.8032
6996.00,0.7987
6995.00,0.7949
6994.00,0.7918
6993.00,0.7894
6992.00,0.7876
6991.00,0.7863
6990.00,0.7855
6989.00,0.7852
6988.00,0.7855
6987.00,0.7861
6986.00,0.7875
6985.00,0.7896
6984.00,0.7925
6983.00,0.7959
6982.00,0.7999
6981.00,0.8045
6980.00,0.8095
6979.00,0.8149
6978.00,0.8207
6977.00,0.8270
6976.00,0.8337
6975.00,0.8408
6974.00,0.8482
6973.00,0.8557
6972.00,0.8633
6971.00,0.8711
6970.00,0.8791
6969.00,0.8872
6968.00,0.8956
6967.00,0.9042
6966.00,0.9134
6965.00,0.9229
6964.00,0.9325
6963.00,0.9420
6962.00,0.9515
6961.00,0.9613
6960.00,0.9712
6959.00,0.9806
6958.00,0.9895
6957.00,0.9983
6956.00,1.0072
6955.00,1.0162
6954.00,1.0253
6953.00,1.0343
6952.00,1.0432
6951.00,1.0519
6950.00,1.0605
6949.00,1.0686
6948.00,1.0765
6947.00,1.0841
6946.00,1.0916
6945.00,1.0989
6944.00,1.1063
6943.00,1.1141
6942.00,1.1223
6941.00,1.1302
6940.00,1.1372
6939.00,1.1434
6938.00,1.1492
6937.00,1.1551
6936.00,1.1608
6935.00,1.1659
6934.00,1.1704
6933.00,1.1745
6932.00,1.1786
6931.00,1.1826
6930.00,1.1859
6929.00,1.1883
6928.00,1.1898
6927.00,1.1913
6926.00,1.1934
6925.00,1.1960
6924.00,1.1981
6923.00,1.1990
6922.00,1.1988
6921.00,1.1982
6920.00,1.1974
6919.00,1.1963
6918.00,1.1947
6917.00,1.1925
6916.00,1.1903
6915.00,1.1886
6914.00,1.1871
6913.00,1.1850
6912.00,1.1815
6911.00,1.1771
6910.00,1.1723
6909.00,1.1676
6908.00,1.1626
6907.00,1.1570
6906.00,1.1512
6905.00,1.1454
6904.00,1.1394
6903.00,1.1330
6902.00,1.1260
6901.00,1.1186
6900.00,1.1109
6899.00,1.1030
6898.00,1.0946
6897.00,1.0857
6896.00,1.0765
6895.00,1.0673
6894.00,1.0582
6893.00,1.0487
6892.00,1.0387
6891.00,1.0284
6890.00,1.0182
6889.00,1.0080
6888.00,0.9973
6887.00,0.9862
6886.00,0.9751
6885.00,0.9646
6884.00,0.9545
6883.00,0.9442
6882.00,0.9338
6881.00,0.9236
6880.00,0.9135
6879.00,0.9034
6878.00,0.8933
6877.00,0.8834
6876.00,0.8737
6875.00,0.8641
6874.00,0.8546
6873.00,0.8455
6872.00,0.8369
6871.00,0.8289
6870.00,0.8214
6869.00,0.8146
6868.00,0.8083
6867.00,0.8024
6866.00,0.7970
6865.00,0.7921
6864.00,0.7877
6863.00,0.7837
6862.00,0.7804
6861.00,0.7780
6860.00,0.7763
6859.00,0.7753
6858.00,0.7748
6857.00,0.7751
6856.00,0.7760
6855.00,0.7776
6854.00,0.7798
6853.00,0.7827
6852.00,0.7862
6851.00,0.7902
6850.00,0.7947
6849.00,0.7996
6848.00,0.8048
6847.00,0.8104
6846.00,0.8165
6845.00,0.8232
6844.00,0.8301
6843.00,0.8373
6842.00,0.8446
6841.00,0.8524
6840.00,0.8607
6839.00,0.8694
6838.00,0.8782
6837.00,0.8872
6836.00,0.8963
6835.00,0.9056
6834.00,0.9152
6833.00,0.9248
6832.00,0.9345
6831.00,0.9442
6830.00,0.9540
6829.00,0.9637
6828.00,0.9734
6827.00,0.9831
6826.00,0.9929
6825.00,1.0029
6824.00,1.0130
6823.00,1.0229
6822.00,1.0325
6821.00,1.0420
6820.00,1.0514
6819.00,1.0605
6818.00,1.0695
6817.00,1.0785
6816.00,1.0874
6815.00,1.0961
6814.00,1.1046
6813.00,1.1132
6812.00,1.1217
6811.00,1.1297
6810.00,1.1372
6809.00,1.1445
6808.00,1.1519
6807.00,1.1589
6806.00,1.1654
6805.00,1.1710
6804.00,1.1761
6803.00,1.1809
6802.00,1.1855
6801.00,1.1899
6800.00,1.1942
6799.00,1.1985
6798.00,1.2023
6797.00,1.2056
6796.00,1.2086
6795.00,1.2114
6794.00,1.2141
6793.00,1.2164
6792.00,1.2179
6791.00,1.2188
6790.00,1.2194
6789.00,1.2199
6788.00,1.2199
6787.00,1.2194
6786.00,1.2184
6785.00,1.2169
6784.00,1.2151
6783.00,1.2131
6782.00,1.2111
6781.00,1.2087
6780.00,1.2053
6779.00,1.2008
6778.00,1.1956
6777.00,1.1904
6776.00,1.1850
6775.00,1.1795
6774.00,1.1737
6773.00,1.1678
6772.00,1.1619
6771.00,1.1554
6770.00,1.1483
6769.00,1.1406
6768.00,1.1324
6767.00,1.1237
6766.00,1.1144
6765.00,1.1050
6764.00,1.0955
6763.00,1.0859
6762.00,1.0756
6761.00,1.0646
6760.00,1.0534
6759.00,1.0425
6758.00,1.0317
6757.00,1.0210
6756.00,1.0103
6755.00,0.9997
6754.00,0.9890
6753.00,0.9780
6752.00,0.9667
6751.00,0.9553
6750.00,0.9440
6749.00,0.9330
6748.00,0.9222
6747.00,0.9117
6746.00,0.9013
6745.00,0.8910
6744.00,0.8807
6743.00,0.8705
6742.00,0.8604
6741.00,0.8507
6740.00,0.8417
6739.00,0.8334
6738.00,0.8260
6737.00,0.8191
6736.00,0.8125
6735.00,0.8064
6734.00,0.8007
6733.00,0.7957
6732.00,0.7913
6731.00,0.7873
6730.00,0.7840
6729.00,0.7814
6728.00,0.7797
6727.00,0.7787
6726.00,0.7783
6725.00,0.7783
6724.00,0.7789
6723.00,0.7803
6722.00,0.7824
6721.00,0.7853
6720.00,0.7887
6719.00,0.7927
6718.00,0.7973
6717.00,0.8025
6716.00,0.8083
6715.00,0.8145
6714.00,0.8211
6713.00,0.8280
6712.00,0.8352
6711.00,0.8428
6710.00,0.8505
6709.00,0.8585
6708.00,0.8667
6707.00,0.8752
6706.00,0.8841
6705.00,0.8932
6704.00,0.9023
6703.00,0.9114
6702.00,0.9207
6701.00,0.9302
6700.00,0.9399
6699.00,0.9497
6698.00,0.9596
6697.00,0.9696
6696.00,0.9797
6695.00,0.9899
6694.00,1.0000
6693.00,1.0099
6692.00,1.0197
6691.00,1.0296
6690.00,1.0394
6689.00,1.0489
6688.00,1.0578
6687.00,1.0666
6686.00,1.0754
6685.00,1.0842
6684.00,1.0929
6683.00,1.1013
6682.00,1.1095
6681.00,1.1172
6680.00,1.1244
6679.00,1.1313
6678.00,1.1384
6677.00,1.1456
6676.00,1.1527
6675.00,1.1594
6674.00,1.1656
6673.00,1.1712
6672.00,1.1763
6671.00,1.1809
6670.00,1.1849
6669.00,1.1886
6668.00,1.1919
6667.00,1.1952
6666.00,1.1982
6665.00,1.2005
6664.00,1.2020
6663.00,1.2033
6662.00,1.2048
6661.00,1.2065
6660.00,1.2076
6659.00,1.2082
6658.00,1.2085
6657.00,1.2087
6656.00,1.2084
6655.00,1.2073
6654.00,1.2054
6653.00,1.2029
6652.00,1.2003
6651.00,1.1973
6650.00,1.1941
6649.00,1.1905
6648.00,1.1869
6647.00,1.1834
6646.00,1.1798
6645.00,1.1757
6644.00,1.1703
6643.00,1.1639
6642.00,1.1569
6641.00,1.1497
6640.00,1.1426
6639.00,1.1353
6638.00,1.1281
6637.00,1.1211
6636.00,1.1139
6635.00,1.1061
6634.00,1.0977
6633.00,1.0886
6632.00,1.0792
6631.00,1.0694
6630.00,1.0596
6629.00,1.0497
6628.00,1.0397
6627.00,1.0294
6626.00,1.0188
6625.00,1.0081
6624.00,0.9973
6623.00,0.9865
6622.00,0.9754
6621.00,0.9641
6620.00,0.9528
6619.00,0.9417
6618.00,0.9307
6617.00,0.9198
6616.00,0.9090
6615.00,0.8985
6614.00,0.8885
6613.00,0.8787
6612.00,0.8689
6611.00,0.8590
6610.00,0.8494
6609.00,0.8401
6608.00,0.8313
6607.00,0.8231
6606.00,0.8155
6605.00,0.8086
6604.00,0.8023
6603.00,0.7965
6602.00,0.7911
6601.00,0.7862
6600.00,0.7819
6599.00,0.7782
6598.00,0.7751
6597.00,0.7727
6596.00,0.7713
6595.00,0.7706
6594.00,0.7707
6593.00,0.7716
6592.00,0.7729
6591.00,0.7749
6590.00,0.7774
6589.00,0.7804
6588.00,0.7839
6587.00,0.7878
6586.00,0.7924
6585.00,0.7975
6584.00,0.8033
6583.00,0.8097
6582.00,0.8167
6581.00,0.8243
6580.00,0.8321
6579.00,0.8402
6578.00,0.8487
6577.00,0.8576
6576.00,0.8667
6575.00,0.8761
6574.00,0.8858
6573.00,0.8957
6572.00,0.9057
6571.00,0.9156
6570.00,0.9256
6569.00,0.9356
6568.00,0.9457
6567.00,0.9558
6566.00,0.9661
6565.00,0.9767
6564.00,0.9873
6563.00,0.9979
6562.00,1.0083
6561.00,1.0185
6560.00,1.0288
6559.00,1.0390
6558.00,1.0492
6557.00,1.0592
6556.00,1.0689
6555.00,1.0785
6554.00,1.0880
6553.00,1.0975
6552.00,1.1066
6551.00,1.1153
6550.00,1.1239
6549.00,1.1325
6548.00,1.1410
6547.00,1.1491
6546.00,1.1567
6545.00,1.1641
6544.00,1.1712
6543.00,1.1782
6542.00,1.1847
6541.00,1.1908
6540.00,1.1965
6539.00,1.2020
6538.00,1.2076
6537.00,1.2130
6536.00,1.2179
6535.00,1.2223
6534.00,1.2262
6533.00,1.2297
6532.00,1.2324
6531.00,1.2344
6530.00,1.2359
6529.00,1.2373
6528.00,1.2387
6527.00,1.2401
6526.00,1.2412
6525.00,1.2419
6524.00,1.2417
6523.00,1.2405
6522.00,1.2385
6521.00,1.2363
6520.00,1.2341
6519.00,1.2318
6518.00,1.2293
6517.00,1.2263
6516.00,1.2226
6515.00,1.2184
6514.00,1.2139
6513.00,1.2089
6512.00,1.2034
6511.00,1.1973
6510.00,1.1909
6509.00,1.1843
6508.00,1.1774
6507.00,1.1701
6506.00,1.1624
6505.00,1.1545
6504.00,1.1464
6503.00,1.1377
6502.00,1.1284
6501.00,1.1185
6500.00,1.1082
6499.00,1.0976
6498.00,1.0870
6497.00,1.0763
6496.00,1.0653
6495.00,1.0540
6494.00,1.0425
6493.00,1.0309
6492.00,1.0189
6491.00,1.0067
6490.00,0.9945
6489.00,0.9825
6488.00,0.9706
6487.00,0.9588
6486.00,0.9471
6485.00,0.9353
6484.00,0.9234
6483.00,0.9115
6482.00,0.9000
6481.00,0.8889
6480.00,0.8782
6479.00,0.8678
6478.00,0.8580
6477.00,0.8487
6476.00,0.8398
6475.00,0.8312
6474.00,0.8228
6473.00,0.8151
6472.00,0.8081
6471.00,0.8018
6470.00,0.7960
6469.00,0.7910
6468.00,0.7866
6467.00,0.7829
6466.00,0.7799
6465.00,0.7775
6464.00,0.7758
6463.00,0.7748
6462.00,0.7744
6461.00,0.7748
6460.00,0.7759
6459.00,0.7777
6458.00,0.7803
6457.00,0.7836
6456.00,0.7876
6455.00,0.7921
6454.00,0.7973
6453.00,0.8031
6452.00,0.8094
6451.00,0.8162
6450.00,0.8234
6449.00,0.8310
6448.00,0.8391
6447.00,0.8475
6446.00,0.8562
6445.00,0.8651
6444.00,0.8745
6443.00,0.8842
6442.00,0.8941
6441.00,0.9040
6440.00,0.9138
6439.00,0.9238
6438.00,0.9340
6437.00,0.9442
6436.00,0.9543
6435.00,0.9644
6434.00,0.9746
6433.00,0.9852
6432.00,0.9958
6431.00,1.0064
6430.00,1.0170
6429.00,1.0276
6428.00,1.0383
6427.00,1.0488
6426.00,1.0590
6425.00,1.0689
6424.00,1.0786
6423.00,1.0881
6422.00,1.0976
6421.00,1.1071
6420.00,1.1161
6419.00,1.1246
6418.00,1.1326
6417.00,1.1402
6416.00,1.1475
6415.00,1.1544
6414.00,1.1613
6413.00,1.1682
6412.00,1.1753
6411.00,1.1824
6410.00,1.1890
6409.00,1.1948
6408.00,1.1996
6407.00,1.2040
6406.00,1.2083
6405.00,1.2123
6404.00,1.2160
6403.00,1.2192
6402.00,1.2222
6401.00,1.2250
6400.00,1.2270
6399.00,1.2284
6398.00,1.2295
6397.00,1.2305
6396.00,1.2311
6395.00,1.2311
6394.00,1.2306
6393.00,1.2298
6392.00,1.2289
6391.00,1.2276
6390.00,1.2260
6389.00,1.2241
6388.00,1.2219
6387.00,1.2194
6386.00,1.2166
6385.00,1.2132
6384.00,1.2089
6383.00,1.2037
6382.00,1.1981
6381.00,1.1926
6380.00,1.1871
6379.00,1.1813
6378.00,1.1752
6377.00,1.1690
6376.00,1.1626
6375.00,1.1556
6374.00,1.1477
6373.00,1.1392
6372.00,1.1303
6371.00,1.1212
6370.00,1.1118
6369.00,1.1020
6368.00,1.0920
6367.00,1.0817
6366.00,1.0715
6365.00,1.0613
6364.00,1.0512
6363.00,1.0407
6362.00,1.0299
6361.00,1.0186
6360.00,1.0069
6359.00,0.9950
6358.00,0.9830
6357.00,0.9712
6356.00,0.9595
6355.00,0.9479
6354.00,0.9362
6353.00,0.9243
6352.00,0.9123
6351.00,0.9006
6350.00,0.8893
6349.00,0.8785
6348.00,0.8682
6347.00,0.8581
6346.00,0.8484
6345.00,0.8392
6344.00,0.8303
6343.00,0.8218
6342.00,0.8137
6341.00,0.8062
6340.00,0.7993
6339.00,0.7929
6338.00,0.7871
6337.00,0.7819
6336.00,0.7775
6335.00,0.7739
6334.00,0.7712
6333.00,0.7694
6332.00,0.7683
6331.00,0.7678
6330.00,0.7679
6329.00,0.7687
6328.00,0.7703
6327.00,0.7728
6326.00,0.7760
6325.00,0.7800
6324.00,0.7847
6323.00,0.7900
6322.00,0.7957
6321.00,0.8020
6320.00,0.8089
6319.00,0.8163
6318.00,0.8240
6317.00,0.8322
6316.00,0.8405
6315.00,0.8491
6314.00,0.8579
6313.00,0.8672
6312.00,0.8768
6311.00,0.8868
6310.00,0.8972
6309.00,0.9080
6308.00,0.9188
6307.00,0.9297
6306.00,0.9405
6305.00,0.9513
6304.00,0.9623
6303.00,0.9734
6302.00,0.9846
6301.00,0.9957
6300.00,1.0067
6299.00,1.0176
6298.00,1.0285
6297.00,1.0395
6296.00,1.0504
6295.00,1.0611
6294.00,1.0716
6293.00,1.0821
6292.00,1.0925
6291.00,1.1025
6290.00,1.1123
6289.00,1.1218
6288.00,1.1314
6287.00,1.1408
6286.00,1.1500
6285.00,1.1589
6284.00,1.1673
6283.00,1.1752
6282.00,1.1826
6281.00,1.1898
6280.00,1.1969
6279.00,1.2041
6278.00,1.2110
6277.00,1.2176
6276.00,1.2239
6275.00,1.2295
6274.00,1.2344
6273.00,1.2388
6272.00,1.2430
6271.00,1.2472
6270.00,1.2511
6269.00,1.2547
6268.00,1.2577
6267.00,1.2601
6266.00,1.2617
6265.00,1.2625
6264.00,1.2629
6263.00,1.2629
6262.00,1.2628
6261.00,1.2625
6260.00,1.2618
6259.00,1.2608
6258.00,1.2595
6257.00,1.2578
6256.00,1.2555
6255.00,1.2525
6254.00,1.2490
6253.00,1.2452
6252.00,1.2410
6251.00,1.2364
6250.00,1.2315
6249.00,1.2261
6248.00,1.2203
6247.00,1.2140
6246.00,1.2074
6245.00,1.2005
6244.00,1.1932
6243.00,1.1854
6242.00,1.1772
6241.00,1.1686
6240.00,1.1596
6239.00,1.1499
6238.00,1.1395
6237.00,1.1286
6236.00,1.1175
6235.00,1.1062
6234.00,1.0948
6233.00,1.0834
6232.00,1.0720
6231.00,1.0605
6230.00,1.0488
6229.00,1.0367
6228.00,1.0241
6227.00,1.0112
6226.00,0.9981
6225.00,0.9850
6224.00,0.9721
6223.00,0.9592
6222.00,0.9466
6221.00,0.9341
6220.00,0.9217
6219.00,0.9094
6218.00,0.8974
6217.00,0.8856
6216.00,0.8742
6215.00,0.8632
6214.00,0.8526
6213.00,0.8425
6212.00,0.8330
6211.00,0.8240
6210.00,0.8156
6209.00,0.8077
6208.00,0.8004
6207.00,0.7939
6206.00,0.7880
6205.00,0.7828
6204.00,0.7784
6203.00,0.7748
6202.00,0.7721
6201.00,0.7703
6200.00,0.7692
6199.00,0.7688
6198.00,0.7693
6197.00,0.7707
6196.00,0.7729
6195.00,0.7756
6194.00,0.7790
6193.00,0.7831
6192.00,0.7878
6191.00,0.7930
6190.00,0.7986
6189.00,0.8047
6188.00,0.8117
6187.00,0.8193
6186.00,0.8274
6185.00,0.8359
6184.00,0.8448
6183.00,0.8540
6182.00,0.8634
6181.00,0.8731
6180.00,0.8829
6179.00,0.8930
6178.00,0.9034
6177.00,0.9142
6176.00,0.9252
6175.00,0.9362
6174.00,0.9472
6173.00,0.9582
6172.00,0.9693
6171.00,0.9803
6170.00,0.9914
6169.00,1.0024
6168.00,1.0132
6167.00,1.0242
6166.00,1.0350
6165.00,1.0457
6164.00,1.0560
6163.00,1.0662
6162.00,1.0765
6161.00,1.0867
6160.00,1.0967
6159.00,1.1064
6158.00,1.1161
6157.00,1.1258
6156.00,1.1351
6155.00,1.1440
6154.00,1.1527
6153.00,1.1611
6152.00,1.1692
6151.00,1.1768
6150.00,1.1841
6149.00,1.1910
6148.00,1.1976
6147.00,1.2037
6146.00,1.2095
6145.00,1.2151
6144.00,1.2204
6143.00,1.2253
6142.00,1.2299
6141.00,1.2344
6140.00,1.2386
6139.00,1.2422
6138.00,1.2452
6137.00,1.2477
6136.00,1.2499
6135.00,1.2515
6134.00,1.2524
6133.00,1.2530
6132.00,1.2534
6131.00,1.2538
6130.00,1.2540
6129.00,1.2541
6128.00,1.2539
6127.00,1.2533
6126.00,1.2522
6125.00,1.2505
6124.00,1.2481
6123.00,1.2452
6122.00,1.2418
6121.00,1.2380
6120.00,1.2340
6119.00,1.2297
6118.00,1.2252
6117.00,1.2202
6116.00,1.2147
6115.00,1.2087
6114.00,1.2021
6113.00,1.1950
6112.00,1.1873
6111.00,1.1793
6110.00,1.1709
6109.00,1.1624
6108.00,1.1535
6107.00,1.1444
6106.00,1.1350
6105.00,1.1251
6104.00,1.1148
6103.00,1.1041
6102.00,1.0931
6101.00,1.0817
6100.00,1.0698
6099.00,1.0576
6098.00,1.0450
6097.00,1.0323
6096.00,1.0196
6095.00,1.0068
6094.00,0.9940
6093.00,0.9812
6092.00,0.9684
6091.00,0.9555
6090.00,0.9427
6089.00,0.9300
6088.00,0.9175
6087.00,0.9053
6086.00,0.8933
6085.00,0.8815
6084.00,0.8700
6083.00,0.8588
6082.00,0.8481
6081.00,0.8380
6080.00,0.8284
6079.00,0.8193
6078.00,0.8108
6077.00,0.8030
6076.00,0.7959
6075.00,0.7895
6074.00,0.7838
6073.00,0.7790
6072.00,0.7750
6071.00,0.7716
6070.00,0.7689
6069.00,0.7672
6068.00,0.7663
6067.00,0.7665
6066.00,0.7675
6065.00,0.7692
6064.00,0.7715
6063.00,0.7745
6062.00,0.7782
6061.00,0.7828
6060.00,0.7882
6059.00,0.7942
6058.00,0.8009
6057.00,0.8082
6056.00,0.8160
6055.00,0.8242
6054.00,0.8328
6053.00,0.8417
6052.00,0.8511
6051.00,0.8608
6050.00,0.8708
6049.00,0.8811
6048.00,0.8918
6047.00,0.9026
6046.00,0.9137
6045.00,0.9251
6044.00,0.9365
6043.00,0.9480
6042.00,0.9596
6041.00,0.9714
6040.00,0.9835
6039.00,0.9957
6038.00,1.0078
6037.00,1.0198
6036.00,1.0316
6035.00,1.0433
6034.00,1.0549
6033.00,1.0662
6032.00,1.0775
6031.00,1.0885
6030.00,1.0994
6029.00,1.1100
6028.00,1.1205
6027.00,1.1307
6026.00,1.1408
6025.00,1.1509
6024.00,1.1610
6023.00,1.1711
6022.00,1.1808
6021.00,1.1897
6020.00,1.1981
6019.00,1.2061
6018.00,1.2140
6017.00,1.2215
6016.00,1.2285
6015.00,1.2351
6014.00,1.2415
6013.00,1.2476
6012.00,1.2532
6011.00,1.2581
6010.00,1.2627
6009.00,1.2671
6008.00,1.2711
6007.00,1.2745
6006.00,1.2773
6005.00,1.2799
6004.00,1.2824
6003.00,1.2845
6002.00,1.2861
6001.00,1.2872
6000.00,1.2877
5999.00,1.2878
5998.00,1.2875
5997.00,1.2868
5996.00,1.2857
5995.00,1.2841
5994.00,1.2819
5993.00,1.2794
5992.00,1.2765
5991.00,1.2732
5990.00,1.2692
5989.00,1.2646
5988.00,1.2596
5987.00,1.2543
5986.00,1.2486
5985.00,1.2424
5984.00,1.2358
5983.00,1.2288
5982.00,1.2215
5981.00,1.2137
5980.00,1.2055
5979.00,1.1970
5978.00,1.1884
5977.00,1.1794
5976.00,1.1700
5975.00,1.1599
5974.00,1.1495
5973.00,1.1386
5972.00,1.1274
5971.00,1.1158
5970.00,1.1039
5969.00,1.0916
5968.00,1.0791
5967.00,1.0664
5966.00,1.0535
5965.00,1.0406
5964.00,1.0276
5963.00,1.0146
5962.00,1.0015
5961.00,0.9882
5960.00,0.9747
5959.00,0.9612
5958.00,0.9477
5957.00,0.9343
5956.00,0.9212
5955.00,0.9083
5954.00,0.8959
5953.00,0.8838
5952.00,0.8721
5951.00,0.8606
5950.00,0.8497
5949.00,0.8393
5948.00,0.8294
5947.00,0.8200
5946.00,0.8113
5945.00,0.8034
5944.00,0.7963
5943.00,0.7901
5942.00,0.7846
5941.00,0.7800
5940.00,0.7761
5939.00,0.7731
5938.00,0.7709
5937.00,0.7697
5936.00,0.7694
5935.00,0.7699
5934.00,0.7712
5933.00,0.7735
5932.00,0.7766
5931.00,0.7803
5930.00,0.7847
5929.00,0.7899
5928.00,0.7957
5927.00,0.8023
5926.00,0.8094
5925.00,0.8173
5924.00,0.8259
5923.00,0.8350
5922.00,0.8446
5921.00,0.8545
5920.00,0.8647
5919.00,0.8751
5918.00,0.8857
5917.00,0.8967
5916.00,0.9079
5915.00,0.9195
5914.00,0.9314
5913.00,0.9435
5912.00,0.9556
5911.00,0.9678
5910.00,0.9798
5909.00,0.9919
5908.00,1.0041
5907.00,1.0164
5906.00,1.0287
5905.00,1.0411
5904.00,1.0533
5903.00,1.0655
5902.00,1.0774
5901.00,1.0892
5900.00,1.1006
5899.00,1.1120
5898.00,1.1234
5897.00,1.1347
5896.00,1.1459
5895.00,1.1568
5894.00,1.1675
5893.00,1.1779
5892.00,1.1879
5891.00,1.1973
5890.00,1.2065
5889.00,1.2155
5888.00,1.2241
5887.00,1.2323
5886.00,1.2402
5885.00,1.2478
5884.00,1.2551
5883.00,1.2621
5882.00,1.2689
5881.00,1.2752
5880.00,1.2811
5879.00,1.2866
5878.00,1.2916
5877.00,1.2960
5876.00,1.2999
5875.00,1.3035
5874.00,1.3068
5873.00,1.3097
5872.00,1.3120
5871.00,1.3138
5870.00,1.3153
5869.00,1.3165
5868.00,1.3171
5867.00,1.3171
5866.00,1.3165
5865.00,1.3157
5864.00,1.3146
5863.00,1.3131
5862.00,1.3112
5861.00,1.3087
5860.00,1.3055
5859.00,1.3018
5858.00,1.2975
5857.00,1.2930
5856.00,1.2881
5855.00,1.2828
5854.00,1.2769
5853.00,1.2706
5852.00,1.2637
5851.00,1.2563
5850.00,1.2486
5849.00,1.2406
5848.00,1.2324
5847.00,1.2237
5846.00,1.2145
5845.00,1.2051
5844.00,1.1954
5843.00,1.1851
5842.00,1.1744
5841.00,1.1632
5840.00,1.1516
5839.00,1.1397
5838.00,1.1277
5837.00,1.1154
5836.00,1.1028
5835.00,1.0900
5834.00,1.0768
5833.00,1.0633
5832.00,1.0496
5831.00,1.0358
5830.00,1.0218
5829.00,1.0080
5828.00,0.9942
5827.00,0.9804
5826.00,0.9666
5825.00,0.9531
5824.00,0.9396
5823.00,0.9265
5822.00,0.9136
5821.00,0.9012
5820.00,0.8892
5819.00,0.8776
5818.00,0.8666
5817.00,0.8561
5816.00,0.8461
5815.00,0.8364
5814.00,0.8274
5813.00,0.8191
5812.00,0.8117
5811.00,0.8051
5810.00,0.7993
5809.00,0.7943
5808.00,0.7902
5807.00,0.7869
5806.00,0.7844
5805.00,0.7827
5804.00,0.7819
5803.00,0.7820
5802.00,0.7829
5801.00,0.7847
5800.00,0.7873
5799.00,0.7906
5798.00,0.7947
5797.00,0.7996
5796.00,0.8053
5795.00,0.8116
5794.00,0.8187
5793.00,0.8265
5792.00,0.8349
5791.00,0.8439
5790.00,0.8533
5789.00,0.8631
5788.00,0.8732
5787.00,0.8836
5786.00,0.8945
5785.00,0.9056
5784.00,0.9170
5783.00,0.9287
5782.00,0.9405
5781.00,0.9524
5780.00,0.9645
5779.00,0.9765
5778.00,0.9887
5777.00,1.0010
5776.00,1.0134
5775.00,1.0259
5774.00,1.0386
5773.00,1.0512
5772.00,1.0639
5771.00,1.0764
5770.00,1.0888
5769.00,1.1010
5768.00,1.1131
5767.00,1.1249
5766.00,1.1365
5765.00,1.1480
5764.00,1.1594
5763.00,1.1706
5762.00,1.1814
5761.00,1.1920
5760.00,1.2020
5759.00,1.2116
5758.00,1.2209
5757.00,1.2300
5756.00,1.2390
5755.00,1.2477
5754.00,1.2561
5753.00,1.2640
5752.00,1.2714
5751.00,1.2781
5750.00,1.2843
5749.00,1.2902
5748.00,1.2962
5747.00,1.3022
5746.00,1.3078
5745.00,1.3128
5744.00,1.3171
5743.00,1.3208
5742.00,1.3240
5741.00,1.3267
5740.00,1.3290
5739.00,1.3308
5738.00,1.3321
5737.00,1.3328
5736.00,1.3329
5735.00,1.3326
5734.00,1.3321
5733.00,1.3314
5732.00,1.3304
5731.00,1.3290
5730.00,1.3271
5729.00,1.3244
5728.00,1.3210
5727.00,1.3171
5726.00,1.3127
5725.00,1.3080
5724.00,1.3028
5723.00,1.2972
5722.00,1.2915
5721.00,1.2856
5720.00,1.2795
5719.00,1.2727
5718.00,1.2654
5717.00,1.2574
5716.00,1.2488
5715.00,1.2397
5714.00,1.2301
5713.00,1.2202
5712.00,1.2097
5711.00,1.1989
5710.00,1.1878
5709.00,1.1764
5708.00,1.1646
5707.00,1.1525
5706.00,1.1399
5705.00,1.1269
5704.00,1.1132
5703.00,1.0990
5702.00,1.0847
5701.00,1.0704
5700.00,1.0561
5699.00,1.0416
5698.00,1.0270
5697.00,1.0124
5696.00,0.9978
5695.00,0.9832
5694.00,0.9687
5693.00,0.9545
5692.00,0.9404
5691.00,0.9264
5690.00,0.9125
5689.00,0.8989
5688.00,0.8857
5687.00,0.8730
5686.00,0.8609
5685.00,0.8495
5684.00,0.8387
5683.00,0.8285
5682.00,0.8190
5681.00,0.8102
5680.00,0.8022
5679.00,0.7950
5678.00,0.7888
5677.00,0.7836
5676.00,0.7793
5675.00,0.7759
5674.00,0.7734
5673.00,0.7719
5672.00,0.7713
5671.00,0.7717
5670.00,0.7729
5669.00,0.7752
5668.00,0.7784
5667.00,0.7824
5666.00,0.7873
5665.00,0.7930
5664.00,0.7993
5663.00,0.8064
5662.00,0.8141
5661.00,0.8224
5660.00,0.8314
5659.00,0.8410
5658.00,0.8511
5657.00,0.8616
5656.00,0.8725
5655.00,0.8838
5654.00,0.8954
5653.00,0.9074
5652.00,0.9196
5651.00,0.9320
5650.00,0.9444
5649.00,0.9570
5648.00,0.9697
5647.00,0.9825
5646.00,0.9955
5645.00,1.0086
5644.00,1.0218
5643.00,1.0348
5642.00,1.0475
5641.00,1.0601
5640.00,1.0725
5639.00,1.0848
5638.00,1.0971
5637.00,1.1095
5636.00,1.1220
5635.00,1.1344
5634.00,1.1468
5633.00,1.1587
5632.00,1.1703
5631.00,1.1814
5630.00,1.1922
5629.00,1.2028
5628.00,1.2132
5627.00,1.2234
5626.00,1.2332
5625.00,1.2428
5624.00,1.2520
5623.00,1.2608
5622.00,1.2692
5621.00,1.2772
5620.00,1.2847
5619.00,1.2917
5618.00,1.2981
5617.00,1.3040
5616.00,1.3094
5615.00,1.3144
5614.00,1.3190
5613.00,1.3233
5612.00,1.3270
5611.00,1.3304
5610.00,1.3334
5609.00,1.3362
5608.00,1.3385
5607.00,1.3405
5606.00,1.3421
5605.00,1.3434
5604.00,1.3444
5603.00,1.3447
5602.00,1.3443
5601.00,1.3432
5600.00,1.3414
5599.00,1.3392
5598.00,1.3366
5597.00,1.3336
5596.00,1.3301
5595.00,1.3263
5594.00,1.3221
5593.00,1.3176
5592.00,1.3129
5591.00,1.3078
5590.00,1.3023
5589.00,1.2961
5588.00,1.2893
5587.00,1.2817
5586.00,1.2735
5585.00,1.2649
5584.00,1.2559
5583.00,1.2466
5582.00,1.2370
5581.00,1.2268
5580.00,1.2162
5579.00,1.2050
5578.00,1.1933
5577.00,1.1811
5576.00,1.1685
5575.00,1.1556
5574.00,1.1424
5573.00,1.1289
5572.00,1.1152
5571.00,1.1011
5570.00,1.0867
5569.00,1.0721
5568.00,1.0572
5567.00,1.0420
5566.00,1.0265
5565.00,1.0109
5564.00,0.9953
5563.00,0.9799
5562.00,0.9647
5561.00,0.9499
5560.00,0.9354
5559.00,0.9212
5558.00,0.9072
5557.00,0.8936
5556.00,0.8803
5555.00,0.8675
5554.00,0.8552
5553.00,0.8435
5552.00,0.8323
5551.00,0.8219
5550.00,0.8121
5549.00,0.8032
5548.00,0.7952
5547.00,0.7880
5546.00,0.7819
5545.00,0.7767
5544.00,0.7725
5543.00,0.7694
5542.00,0.7673
5541.00,0.7662
5540.00,0.7660
5539.00,0.7667
5538.00,0.7685
5537.00,0.7711
5536.00,0.7747
5535.00,0.7791
5534.00,0.7844
5533.00,0.7905
5532.00,0.7975
5531.00,0.8051
5530.00,0.8136
5529.00,0.8227
5528.00,0.8324
5527.00,0.8425
5526.00,0.8530
5525.00,0.8640
5524.00,0.8755
5523.00,0.8873
5522.00,0.8993
5521.00,0.9115
5520.00,0.9236
5519.00,0.9358
5518.00,0.9480
5517.00,0.9603
5516.00,0.9730
5515.00,0.9859
5514.00,0.9990
5513.00,1.0122
5512.00,1.0252
5511.00,1.0381
5510.00,1.0508
5509.00,1.0632
5508.00,1.0755
5507.00,1.0875
5506.00,1.0996
5505.00,1.1117
5504.00,1.1237
5503.00,1.1355
5502.00,1.1472
5501.00,1.1587
5500.00,1.1698
5499.00,1.1806
5498.00,1.1911
5497.00,1.2016
5496.00,1.2119
5495.00,1.2219
5494.00,1.2316
5493.00,1.2410
5492.00,1.2501
5491.00,1.2587
5490.00,1.2669
5489.00,1.2750
5488.00,1.2826
5487.00,1.2897
5486.00,1.2964
5485.00,1.3027
5484.00,1.3085
5483.00,1.3140
5482.00,1.3191
5481.00,1.3241
5480.00,1.3291
5479.00,1.3336
5478.00,1.3374
5477.00,1.3406
5476.00,1.3433
5475.00,1.3455
5474.00,1.3471
5473.00,1.3482
5472.00,1.3489
5471.00,1.3492
5470.00,1.3489
5469.00,1.3482
5468.00,1.3473
5467.00,1.3461
5466.00,1.3446
5465.00,1.3423
5464.00,1.3394
5463.00,1.3357
5462.00,1.3315
5461.00,1.3268
5460.00,1.3217
5459.00,1.3161
5458.00,1.3101
5457.00,1.3038
5456.00,1.2971
5455.00,1.2898
5454.00,1.2821
5453.00,1.2740
5452.00,1.2655
5451.00,1.2565
5450.00,1.2470
5449.00,1.2371
5448.00,1.2265
5447.00,1.2151
5446.00,1.2028
5445.00,1.1899
5444.00,1.1767
5443.00,1.1634
5442.00,1.1498
5441.00,1.1358
5440.00,1.1213
5439.00,1.1066
5438.00,1.0917
5437.00,1.0768
5436.00,1.0619
5435.00,1.0465
5434.00,1.0309
5433.00,1.0151
5432.00,0.9995
5431.00,0.9840
5430.00,0.9683
5429.00,0.9524
5428.00,0.9364
5427.00,0.9207
5426.00,0.9054
5425.00,0.8909
5424.00,0.8769
5423.00,0.8636
5422.00,0.8510
5421.00,0.8392
5420.00,0.8282
5419.00,0.8179
5418.00,0.8086
5417.00,0.8003
5416.00,0.7931
5415.00,0.7866
5414.00,0.7807
5413.00,0.7755
5412.00,0.7711
5411.00,0.7676
5410.00,0.7651
5409.00,0.7637
5408.00,0.7636
5407.00,0.7648
5406.00,0.7672
5405.00,0.7707
5404.00,0.7753
5403.00,0.7808
5402.00,0.7872
5401.00,0.7944
5400.00,0.8023
5399.00,0.8109
5398.00,0.8202
5397.00,0.8301
5396.00,0.8406
5395.00,0.8517
5394.00,0.8633
5393.00,0.8752
5392.00,0.8875
5391.00,0.9002
5390.00,0.9132
5389.00,0.9265
5388.00,0.9399
5387.00,0.9536
5386.00,0.9675
5385.00,0.9815
5384.00,0.9956
5383.00,1.0098
5382.00,1.0242
5381.00,1.0385
5380.00,1.0527
5379.00,1.0667
5378.00,1.0806
5377.00,1.0943
5376.00,1.1079
5375.00,1.1215
5374.00,1.1352
5373.00,1.1487
5372.00,1.1620
5371.00,1.1751
5370.00,1.1880
5369.00,1.2006
5368.00,1.2127
5367.00,1.2245
5366.00,1.2360
5365.00,1.2471
5364.00,1.2579
5363.00,1.2684
5362.00,1.2785
5361.00,1.2882
5360.00,1.2975
5359.00,1.3064
5358.00,1.3151
5357.00,1.3233
5356.00,1.3309
5355.00,1.3380
5354.00,1.3446
5353.00,1.3508
5352.00,1.3563
5351.00,1.3612
5350.00,1.3653
5349.00,1.3689
5348.00,1.3722
5347.00,1.3753
5346.00,1.3781
5345.00,1.3805
5344.00,1.3824
5343.00,1.3837
5342.00,1.3848
5341.00,1.3856
5340.00,1.3860
5339.00,1.3857
5338.00,1.3843
5337.00,1.3821
5336.00,1.3794
5335.00,1.3767
5334.00,1.3741
5333.00,1.3711
5332.00,1.3675
5331.00,1.3631
5330.00,1.3581
5329.00,1.3528
5328.00,1.3472
5327.00,1.3412
5326.00,1.3349
5325.00,1.3279
5324.00,1.3202
5323.00,1.3117
5322.00,1.3027
5321.00,1.2932
5320.00,1.2835
5319.00,1.2734
5318.00,1.2629
5317.00,1.2519
5316.00,1.2404
5315.00,1.2283
5314.00,1.2156
5313.00,1.2026
5312.00,1.1891
5311.00,1.1755
5310.00,1.1615
5309.00,1.1471
5308.00,1.1321
5307.00,1.1165
5306.00,1.1005
5305.00,1.0842
5304.00,1.0678
5303.00,1.0513
5302.00,1.0348
5301.00,1.0184
5300.00,1.0020
5299.00,0.9856
5298.00,0.9694
5297.00,0.9533
5296.00,0.9373
5295.00,0.9217
5294.00,0.9065
5293.00,0.8919
5292.00,0.8779
5291.00,0.8645
5290.00,0.8515
5289.00,0.8391
5288.00,0.8274
5287.00,0.8166
5286.00,0.8068
5285.00,0.7979
5284.00,0.7899
5283.00,0.7830
5282.00,0.7771
5281.00,0.7722
5280.00,0.7685
5279.00,0.7661
5278.00,0.7648
5277.00,0.7648
5276.00,0.7658
5275.00,0.7679
5274.00,0.7710
5273.00,0.7750
5272.00,0.7801
5271.00,0.7861
5270.00,0.7930
5269.00,0.8006
5268.00,0.8090
5267.00,0.8181
5266.00,0.8279
5265.00,0.8384
5264.00,0.8493
5263.00,0.8607
5262.00,0.8726
5261.00,0.8850
5260.00,0.8977
5259.00,0.9107
5258.00,0.9240
5257.00,0.9377
5256.00,0.9516
5255.00,0.9657
5254.00,0.9802
5253.00,0.9949
5252.00,1.0098
5251.00,1.0247
5250.00,1.0395
5249.00,1.0540
5248.00,1.0683
5247.00,1.0825
5246.00,1.0967
5245.00,1.1109
5244.00,1.1250
5243.00,1.1389
5242.00,1.1527
5241.00,1.1664
5240.00,1.1798
5239.00,1.1930
5238.00,1.2059
5237.00,1.2187
5236.00,1.2312
5235.00,1.2433
5234.00,1.2549
5233.00,1.2660
5232.00,1.2766
5231.00,1.2868
5230.00,1.2967
5229.00,1.3065
5228.00,1.3161
5227.00,1.3252
5226.00,1.3337
5225.00,1.3416
5224.00,1.3488
5223.00,1.3556
5222.00,1.3620
5221.00,1.3682
5220.00,1.3741
5219.00,1.3795
5218.00,1.3845
5217.00,1.3888
5216.00,1.3925
5215.00,1.3955
5214.00,1.3981
5213.00,1.4005
5212.00,1.4025
5211.00,1.4042
5210.00,1.4053
5209.00,1.4059
5208.00,1.4057
5207.00,1.4051
5206.00,1.4041
5205.00,1.4029
5204.00,1.4013
5203.00,1.3992
5202.00,1.3966
5201.00,1.3934
5200.00,1.3896
5199.00,1.3853
5198.00,1.3805
5197.00,1.3752
5196.00,1.3696
5195.00,1.3636
5194.00,1.3572
5193.00,1.3504
5192.00,1.3430
5191.00,1.3349
5190.00,1.3260
5189.00,1.3165
5188.00,1.3065
5187.00,1.2963
5186.00,1.2858
5185.00,1.2746
5184.00,1.2627
5183.00,1.2501
5182.00,1.2368
5181.00,1.2231
5180.00,1.2092
5179.00,1.1950
5178.00,1.1804
5177.00,1.1654
5176.00,1.1501
5175.00,1.1343
5174.00,1.1182
5173.00,1.1017
5172.00,1.0849
5171.00,1.0678
5170.00,1.0506
5169.00,1.0335
5168.00,1.0165
5167.00,0.9996
5166.00,0.9827
5165.00,0.9658
5164.00,0.9491
5163.00,0.9326
5162.00,0.9165
5161.00,0.9011
5160.00,0.8862
5159.00,0.8719
5158.00,0.8582
5157.00,0.8452
5156.00,0.8329
5155.00,0.8216
5154.00,0.8113
5153.00,0.8021
5152.00,0.7939
5151.00,0.7868
5150.00,0.7808
5149.00,0.7760
5148.00,0.7725
5147.00,0.7703
5146.00,0.7693
5145.00,0.7694
5144.00,0.7707
5143.00,0.7730
5142.00,0.7765
5141.00,0.7811
5140.00,0.7868
5139.00,0.7935
5138.00,0.8013
5137.00,0.8099
5136.00,0.8193
5135.00,0.8293
5134.00,0.8400
5133.00,0.8514
5132.00,0.8633
5131.00,0.8758
5130.00,0.8889
5129.00,0.9023
5128.00,0.9163
5127.00,0.9306
5126.00,0.9452
5125.00,0.9600
5124.00,0.9748
5123.00,0.9897
5122.00,1.0047
5121.00,1.0199
5120.00,1.0353
5119.00,1.0509
5118.00,1.0664
5117.00,1.0818
5116.00,1.0971
5115.00,1.1121
5114.00,1.1270
5113.00,1.1419
5112.00,1.1567
5111.00,1.1713
5110.00,1.1857
5109.00,1.1998
5108.00,1.2137
5107.00,1.2274
5106.00,1.2407
5105.00,1.2536
5104.00,1.2660
5103.00,1.2781
5102.00,1.2898
5101.00,1.3014
5100.00,1.3125
5099.00,1.3232
5098.00,1.3333
5097.00,1.3426
5096.00,1.3515
5095.00,1.3599
5094.00,1.3680
5093.00,1.3757
5092.00,1.3830
5091.00,1.3900
5090.00,1.3965
5089.00,1.4027
5088.00,1.4084
5087.00,1.4135
5086.00,1.4180
5085.00,1.4217
5084.00,1.4249
5083.00,1.4277
5082.00,1.4299
5081.00,1.4317
5080.00,1.4329
5079.00,1.4338
5078.00,1.4343
5077.00,1.4345
5076.00,1.4341
5075.00,1.4332
5074.00,1.4319
5073.00,1.4300
5072.00,1.4276
5071.00,1.4248
5070.00,1.4216
5069.00,1.4177
5068.00,1.4133
5067.00,1.4085
5066.00,1.4034
5065.00,1.3981
5064.00,1.3923
5063.00,1.3858
5062.00,1.3785
5061.00,1.3706
5060.00,1.3621
5059.00,1.3530
5058.00,1.3436
5057.00,1.3337
5056.00,1.3232
5055.00,1.3122
5054.00,1.3006
5053.00,1.2888
5052.00,1.2765
5051.00,1.2636
5050.00,1.2500
5049.00,1.2358
5048.00,1.2211
5047.00,1.2058
5046.00,1.1901
5045.00,1.1741
5044.00,1.1576
5043.00,1.1407
5042.00,1.1235
5041.00,1.1060
5040.00,1.0884
5039.00,1.0706
5038.00,1.0527
5037.00,1.0345
5036.00,1.0161
5035.00,0.9978
5034.00,0.9795
5033.00,0.9616
5032.00,0.9440
5031.00,0.9269
5030.00,0.9102
5029.00,0.8940
5028.00,0.8783
5027.00,0.8632
5026.00,0.8488
5025.00,0.8354
5024.00,0.8228
5023.00,0.8112
5022.00,0.8006
5021.00,0.7911
5020.00,0.7827
5019.00,0.7754
5018.00,0.7694
5017.00,0.7647
5016.00,0.7614
5015.00,0.7594
5014.00,0.7586
5013.00,0.7592
5012.00,0.7610
5011.00,0.7640
5010.00,0.7683
5009.00,0.7737
5008.00,0.7803
5007.00,0.7880
5006.00,0.7966
5005.00,0.8061
5004.00,0.8164
5003.00,0.8275
5002.00,0.8392
5001.00,0.8516
5000.00,0.8645
4999.00,0.8780
4998.00,0.8919
4997.00,0.9063
4996.00,0.9211
4995.00,0.9362
4994.00,0.9515
4993.00,0.9670
4992.00,0.9826
4991.00,0.9985
4990.00,1.0146
4989.00,1.0310
4988.00,1.0474
4987.00,1.0637
4986.00,1.0800
4985.00,1.0961
4984.00,1.1121
4983.00,1.1282
4982.00,1.1442
4981.00,1.1600
4980.00,1.1755
4979.00,1.1906
4978.00,1.2054
4977.00,1.2197
4976.00,1.2339
4975.00,1.2477
4974.00,1.2613
4973.00,1.2743
4972.00,1.2869
4971.00,1.2992
4970.00,1.3113
4969.00,1.3231
4968.00,1.3346
4967.00,1.3456
4966.00,1.3560
4965.00,1.3658
4964.00,1.3751
4963.00,1.3841
4962.00,1.3928
4961.00,1.4011
4960.00,1.4086
4959.00,1.4153
4958.00,1.4215
4957.00,1.4271
4956.00,1.4322
4955.00,1.4368
4954.00,1.4411
4953.00,1.4451
4952.00,1.4486
4951.00,1.4517
4950.00,1.4542
4949.00,1.4561
4948.00,1.4574
4947.00,1.4582
4946.00,1.4585
4945.00,1.4586
4944.00,1.4584
4943.00,1.4577
4942.00,1.4566
4941.00,1.4549
4940.00,1.4527
4939.00,1.4500
4938.00,1.4466
4937.00,1.4427
4936.00,1.4380
4935.00,1.4328
4934.00,1.4272
4933.00,1.4212
4932.00,1.4149
4931.00,1.4082
4930.00,1.4009
4929.00,1.3929
4928.00,1.3840
4927.00,1.3745
4926.00,1.3644
4925.00,1.3540
4924.00,1.3431
4923.00,1.3317
4922.00,1.3198
4921.00,1.3072
4920.00,1.2940
4919.00,1.2802
4918.00,1.2661
4917.00,1.2516
4916.00,1.2366
4915.00,1.2210
4914.00,1.2049
4913.00,1.1882
4912.00,1.1710
4911.00,1.1533
4910.00,1.1352
4909.00,1.1169
4908.00,1.0983
4907.00,1.0795
4906.00,1.0605
4905.00,1.0414
4904.00,1.0222
4903.00,1.0030
4902.00,0.9840
4901.00,0.9654
4900.00,0.9472
4899.00,0.9294
4898.00,0.9121
4897.00,0.8953
4896.00,0.8791
4895.00,0.8636
4894.00,0.8489
4893.00,0.8352
4892.00,0.8226
4891.00,0.8109
4890.00,0.8005
4889.00,0.7913
4888.00,0.7833
4887.00,0.7768
4886.00,0.7716
4885.00,0.7679
4884.00,0.7655
4883.00,0.7644
4882.00,0.7647
4881.00,0.7664
4880.00,0.7695
4879.00,0.7739
4878.00,0.7796
4877.00,0.7865
4876.00,0.7945
4875.00,0.8036
4874.00,0.8136
4873.00,0.8245
4872.00,0.8361
4871.00,0.8485
4870.00,0.8616
4869.00,0.8754
4868.00,0.8898
4867.00,0.9046
4866.00,0.9198
4865.00,0.9354
4864.00,0.9512
4863.00,0.9674
4862.00,0.9838
4861.00,1.0006
4860.00,1.0175
4859.00,1.0345
4858.00,1.0516
4857.00,1.0687
4856.00,1.0857
4855.00,1.1027
4854.00,1.1196
4853.00,1.1365
4852.00,1.1532
4851.00,1.1698
4850.00,1.1862
4849.00,1.2023
4848.00,1.2181
4847.00,1.2335
4846.00,1.2484
4845.00,1.2628
4844.00,1.2769
4843.00,1.2908
4842.00,1.3044
4841.00,1.3178
4840.00,1.3307
4839.00,1.3431
4838.00,1.3551
4837.00,1.3665
4836.00,1.3775
4835.00,1.3881
4834.00,1.3981
4833.00,1.4077
4832.00,1.4169
4831.00,1.4254
4830.00,1.4334
4829.00,1.4408
4828.00,1.4477
4827.00,1.4541
4826.00,1.4600
4825.00,1.4654
4824.00,1.4704
4823.00,1.4748
4822.00,1.4784
4821.00,1.4814
4820.00,1.4838
4819.00,1.4856
4818.00,1.4871
4817.00,1.4884
4816.00,1.4896
4815.00,1.4904
4814.00,1.4908
4813.00,1.4904
4812.00,1.4895
4811.00,1.4879
4810.00,1.4858
4809.00,1.4833
4808.00,1.4804
4807.00,1.4769
4806.00,1.4729
4805.00,1.4684
4804.00,1.4634
4803.00,1.4577
4802.00,1.4514
4801.00,1.4444
4800.00,1.4371
4799.00,1.4296
4798.00,1.4217
4797.00,1.4134
4796.00,1.4044
4795.00,1.3945
4794.00,1.3836
4793.00,1.3720
4792.00,1.3598
4791.00,1.3472
4790.00,1.3344
4789.00,1.3212
4788.00,1.3075
4787.00,1.2933
4786.00,1.2783
4785.00,1.2628
4784.00,1.2466
4783.00,1.2299
4782.00,1.2126
4781.00,1.1947
4780.00,1.1762
4779.00,1.1574
4778.00,1.1383
4777.00,1.1189
4776.00,1.0992
4775.00,1.0793
4774.00,1.0593
4773.00,1.0392
4772.00,1.0191
4771.00,0.9991
4770.00,0.9793
4769.00,0.9599
4768.00,0.9408
4767.00,0.9221
4766.00,0.9040
4765.00,0.8865
4764.00,0.8699
4763.00,0.8542
4762.00,0.8395
4761.00,0.8258
4760.00,0.8132
4759.00,0.8019
4758.00,0.7919
4757.00,0.7832
4756.00,0.7760
4755.00,0.7703
4754.00,0.7661
4753.00,0.7633
4752.00,0.7621
4751.00,0.7624
4750.00,0.7641
4749.00,0.7674
4748.00,0.7720
4747.00,0.7781
4746.00,0.7854
4745.00,0.7939
4744.00,0.8035
4743.00,0.8141
4742.00,0.8257
4741.00,0.8382
4740.00,0.8514
4739.00,0.8654
4738.00,0.8800
4737.00,0.8952
4736.00,0.9110
4735.00,0.9272
4734.00,0.9439
4733.00,0.9609
4732.00,0.9781
4731.00,0.9956
4730.00,1.0133
4729.00,1.0310
4728.00,1.0489
4727.00,1.0668
4726.00,1.0848
4725.00,1.1026
4724.00,1.1204
4723.00,1.1381
4722.00,1.1558
4721.00,1.1734
4720.00,1.1908
4719.00,1.2079
4718.00,1.2247
4717.00,1.2411
4716.00,1.2572
4715.00,1.2731
4714.00,1.2886
4713.00,1.3037
4712.00,1.3184
4711.00,1.3326
4710.00,1.3464
4709.00,1.3598
4708.00,1.3726
4707.00,1.3850
4706.00,1.3970
4705.00,1.4086
4704.00,1.4196
4703.00,1.4299
4702.00,1.4396
4701.00,1.4486
4700.00,1.4571
4699.00,1.4654
4698.00,1.4734
4697.00,1.4813
4696.00,1.4885
4695.00,1.4950
4694.00,1.5005
4693.00,1.5052
4692.00,1.5093
4691.00,1.5130
4690.00,1.5165
4689.00,1.5198
4688.00,1.5226
4687.00,1.5248
4686.00,1.5263
4685.00,1.5272
4684.00,1.5277
4683.00,1.5279
4682.00,1.5280
4681.00,1.5276
4680.00,1.5265
4679.00,1.5246
4678.00,1.5221
4677.00,1.5190
4676.00,1.5155
4675.00,1.5116
4674.00,1.5074
4673.00,1.5028
4672.00,1.4978
4671.00,1.4921
4670.00,1.4857
4669.00,1.4787
4668.00,1.4712
4667.00,1.4633
4666.00,1.4551
4665.00,1.4465
4664.00,1.4374
4663.00,1.4275
4662.00,1.4168
4661.00,1.4054
4660.00,1.3934
4659.00,1.3809
4658.00,1.3677
4657.00,1.3540
4656.00,1.3396
4655.00,1.3245
4654.00,1.3088
4653.00,1.2925
4652.00,1.2758
4651.00,1.2584
4650.00,1.2405
4649.00,1.2220
4648.00,1.2030
4647.00,1.1835
4646.00,1.1636
4645.00,1.1432
4644.00,1.1226
4643.00,1.1018
4642.00,1.0808
4641.00,1.0599
4640.00,1.0390
4639.00,1.0180
4638.00,0.9973
4637.00,0.9768
4636.00,0.9567
4635.00,0.9373
4634.00,0.9185
4633.00,0.9005
4632.00,0.8835
4631.00,0.8675
4630.00,0.8525
4629.00,0.8387
4628.00,0.8260
4627.00,0.8146
4626.00,0.8047
4625.00,0.7964
4624.00,0.7895
4623.00,0.7843
4622.00,0.7806
4621.00,0.7785
4620.00,0.7781
4619.00,0.7793
4618.00,0.7821
4617.00,0.7863
4616.00,0.7921
4615.00,0.7992
4614.00,0.8076
4613.00,0.8173
4612.00,0.8280
4611.00,0.8399
4610.00,0.8527
4609.00,0.8664
4608.00,0.8808
4607.00,0.8959
4606.00,0.9116
4605.00,0.9278
4604.00,0.9444
4603.00,0.9614
4602.00,0.9788
4601.00,0.9964
4600.00,1.0143
4599.00,1.0324
4598.00,1.0507
4597.00,1.0692
4596.00,1.0877
4595.00,1.1062
4594.00,1.1247
4593.00,1.1432
4592.00,1.1616
4591.00,1.1799
4590.00,1.1981
4589.00,1.2159
4588.00,1.2334
4587.00,1.2506
4586.00,1.2676
4585.00,1.2843
4584.00,1.3006
4583.00,1.3165
4582.00,1.3320
4581.00,1.3469
4580.00,1.3614
4579.00,1.3754
4578.00,1.3890
4577.00,1.4021
4576.00,1.4145
4575.00,1.4265
4574.00,1.4382
4573.00,1.4495
4572.00,1.4604
4571.00,1.4709
4570.00,1.4808
4569.00,1.4899
4568.00,1.4984
4567.00,1.5063
4566.00,1.5137
4565.00,1.5207
4564.00,1.5270
4563.00,1.5325
4562.00,1.5374
4561.00,1.5418
4560.00,1.5458
4559.00,1.5494
4558.00,1.5525
4557.00,1.5550
4556.00,1.5569
4555.00,1.5583
4554.00,1.5593
4553.00,1.5599
4552.00,1.5601
4551.00,1.5599
4550.00,1.5592
4549.00,1.5579
4548.00,1.5560
4547.00,1.5535
4546.00,1.5507
4545.00,1.5474
4544.00,1.5434
4543.00,1.5388
4542.00,1.5335
4541.00,1.5278
4540.00,1.5218
4539.00,1.5153
4538.00,1.5084
4537.00,1.5008
4536.00,1.4926
4535.00,1.4837
4534.00,1.4742
4533.00,1.4641
4532.00,1.4535
4531.00,1.4422
4530.00,1.4303
4529.00,1.4178
4528.00,1.4047
4527.00,1.3910
4526.00,1.3768
4525.00,1.3621
4524.00,1.3468
4523.00,1.3306
4522.00,1.3138
4521.00,1.2962
4520.00,1.2780
4519.00,1.2592
4518.00,1.2398
4517.00,1.2198
4516.00,1.1993
4515.00,1.1784
4514.00,1.1572
4513.00,1.1355
4512.00,1.1136
4511.00,1.0915
4510.00,1.0694
4509.00,1.0472
4508.00,1.0252
4507.00,1.0034
4506.00,0.9819
4505.00,0.9608
4504.00,0.9403
4503.00,0.9204
4502.00,0.9014
4501.00,0.8833
4500.00,0.8662
4499.00,0.8503
4498.00,0.8357
4497.00,0.8224
4496.00,0.8106
4495.00,0.8003
4494.00,0.7916
4493.00,0.7847
4492.00,0.7795
4491.00,0.7760
4490.00,0.7742
4489.00,0.7742
4488.00,0.7760
4487.00,0.7795
4486.00,0.7846
4485.00,0.7914
4484.00,0.7996
4483.00,0.8092
4482.00,0.8201
4481.00,0.8322
4480.00,0.8453
4479.00,0.8594
4478.00,0.8744
4477.00,0.8902
4476.00,0.9067
4475.00,0.9238
4474.00,0.9416
4473.00,0.9599
4472.00,0.9784
4471.00,0.9973
4470.00,1.0165
4469.00,1.0360
4468.00,1.0557
4467.00,1.0755
4466.00,1.0953
4465.00,1.1151
4464.00,1.1347
4463.00,1.1543
4462.00,1.1739
4461.00,1.1933
4460.00,1.2125
4459.00,1.2316
4458.00,1.2504
4457.00,1.2690
4456.00,1.2874
4455.00,1.3055
4454.00,1.3232
4453.00,1.3405
4452.00,1.3573
4451.00,1.3736
4450.00,1.3894
4449.00,1.4047
4448.00,1.4193
4447.00,1.4332
4446.00,1.4465
4445.00,1.4591
4444.00,1.4712
4443.00,1.4830
4442.00,1.4943
4441.00,1.5051
4440.00,1.5152
4439.00,1.5248
4438.00,1.5337
4437.00,1.5422
4436.00,1.5502
4435.00,1.5576
4434.00,1.5643
4433.00,1.5703
4432.00,1.5758
4431.00,1.5809
4430.00,1.5855
4429.00,1.5895
4428.00,1.5928
4427.00,1.5955
4426.00,1.5980
4425.00,1.6002
4424.00,1.6022
4423.00,1.6037
4422.00,1.6043
4421.00,1.6041
4420.00,1.6032
4419.00,1.6020
4418.00,1.6005
4417.00,1.5987
4416.00,1.5963
4415.00,1.5932
4414.00,1.5895
4413.00,1.5854
4412.00,1.5810
4411.00,1.5760
4410.00,1.5704
4409.00,1.5641
4408.00,1.5572
4407.00,1.5497
4406.00,1.5418
4405.00,1.5336
4404.00,1.5248
4403.00,1.5154
4402.00,1.5054
4401.00,1.4950
4400.00,1.4841
4399.00,1.4727
4398.00,1.4607
4397.00,1.4479
4396.00,1.4344
4395.00,1.4203
4394.00,1.4057
4393.00,1.3906
4392.00,1.3750
4391.00,1.3590
4390.00,1.3425
4389.00,1.3257
4388.00,1.3083
4387.00,1.2902
4386.00,1.2717
4385.00,1.2527
4384.00,1.2335
4383.00,1.2142
4382.00,1.1949
4381.00,1.1755
4380.00,1.1561
4379.00,1.1367
4378.00,1.1174
4377.00,1.0983
4376.00,1.0796
4375.00,1.0612
4374.00,1.0432
4373.00,1.0258
4372.00,1.0090
4371.00,0.9929
4370.00,0.9775
4369.00,0.9629
4368.00,0.9492
4367.00,0.9363
4366.00,0.9244
4365.00,0.9135
4364.00,0.9037
4363.00,0.8951
4362.00,0.8878
4361.00,0.8819
4360.00,0.8774
4359.00,0.8742
4358.00,0.8725
4357.00,0.8723
4356.00,0.8736
4355.00,0.8765
4354.00,0.8809
4353.00,0.8867
4352.00,0.8938
4351.00,0.9022
4350.00,0.9118
4349.00,0.9225
4348.00,0.9342
4347.00,0.9468
4346.00,0.9603
4345.00,0.9745
4344.00,0.9895
4343.00,1.0050
4342.00,1.0210
4341.00,1.0375
4340.00,1.0544
4339.00,1.0717
4338.00,1.0894
4337.00,1.1072
4336.00,1.1254
4335.00,1.1438
4334.00,1.1624
4333.00,1.1813
4332.00,1.2003
4331.00,1.2193
4330.00,1.2384
4329.00,1.2573
4328.00,1.2762
4327.00,1.2949
4326.00,1.3134
4325.00,1.3317
4324.00,1.3497
4323.00,1.3674
4322.00,1.3847
4321.00,1.4015
4320.00,1.4177
4319.00,1.4334
4318.00,1.4485
4317.00,1.4631
4316.00,1.4771
4315.00,1.4906
4314.00,1.5036
4313.00,1.5162
4312.00,1.5281
4311.00,1.5395
4310.00,1.5502
4309.00,1.5605
4308.00,1.5701
4307.00,1.5792
4306.00,1.5876
4305.00,1.5952
4304.00,1.6022
4303.00,1.6088
4302.00,1.6151
4301.00,1.6212
4300.00,1.6268
4299.00,1.6316
4298.00,1.6356
4297.00,1.6388
4296.00,1.6415
4295.00,1.6441
4294.00,1.6466
4293.00,1.6488
4292.00,1.6505
4291.00,1.6515
4290.00,1.6518
4289.00,1.6515
4288.00,1.6508
4287.00,1.6497
4286.00,1.6482
4285.00,1.6462
4284.00,1.6437
4283.00,1.6406
4282.00,1.6371
4281.00,1.6331
4280.00,1.6285
4279.00,1.6233
4278.00,1.6173
4277.00,1.6109
4276.00,1.6042
4275.00,1.5974
4274.00,1.5901
4273.00,1.5821
4272.00,1.5731
4271.00,1.5633
4270.00,1.5530
4269.00,1.5424
4268.00,1.5313
4267.00,1.5197
4266.00,1.5075
4265.00,1.4945
4264.00,1.4810
4263.00,1.4668
4262.00,1.4518
4261.00,1.4361
4260.00,1.4195
4259.00,1.4022
4258.00,1.3843
4257.00,1.3658
4256.00,1.3467
4255.00,1.3270
4254.00,1.3067
4253.00,1.2858
4252.00,1.2642
4251.00,1.2420
4250.00,1.2194
4249.00,1.1964
4248.00,1.1731
4247.00,1.1497
4246.00,1.1264
4245.00,1.1033
4244.00,1.0803
4243.00,1.0576
4242.00,1.0353
4241.00,1.0137
4240.00,0.9927
4239.00,0.9726
4238.00,0.9535
4237.00,0.9356
4236.00,0.9189
4235.00,0.9037
4234.00,0.8901
4233.00,0.8781
4232.00,0.8679
4231.00,0.8594
4230.00,0.8529
4229.00,0.8483
4228.00,0.8456
4227.00,0.8448
4226.00,0.8459
4225.00,0.8489
4224.00,0.8537
4223.00,0.8601
4222.00,0.8682
4221.00,0.8777
4220.00,0.8884
4219.00,0.9004
4218.00,0.9136
4217.00,0.9278
4216.00,0.9429
4215.00,0.9588
4214.00,0.9754
4213.00,0.9926
4212.00,1.0102
4211.00,1.0284
4210.00,1.0471
4209.00,1.0662
4208.00,1.0857
4207.00,1.1055
4206.00,1.1256
4205.00,1.1460
4204.00,1.1664
4203.00,1.1868
4202.00,1.2073
4201.00,1.2278
4200.00,1.2483
4199.00,1.2686
4198.00,1.2887
4197.00,1.3085
4196.00,1.3280
4195.00,1.3475
4194.00,1.3669
4193.00,1.3859
4192.00,1.4043
4191.00,1.4219
4190.00,1.4388
4189.00,1.4553
4188.00,1.4714
4187.00,1.4871
4186.00,1.5023
4185.00,1.5170
4184.00,1.5312
4183.00,1.5446
4182.00,1.5573
4181.00,1.5693
4180.00,1.5806
4179.00,1.5914
4178.00,1.6018
4177.00,1.6117
4176.00,1.6211
4175.00,1.6298
4174.00,1.6379
4173.00,1.6454
4172.00,1.6524
4171.00,1.6588
4170.00,1.6648
4169.00,1.6706
4168.00,1.6760
4167.00,1.6811
4166.00,1.6856
4165.00,1.6893
4164.00,1.6924
4163.00,1.6948
4162.00,1.6966
4161.00,1.6977
4160.00,1.6982
4159.00,1.6983
4158.00,1.6984
4157.00,1.6983
4156.00,1.6977
4155.00,1.6963
4154.00,1.6943
4153.00,1.6917
4152.00,1.6887
4151.00,1.6851
4150.00,1.6810
4149.00,1.6762
4148.00,1.6709
4147.00,1.6651
4146.00,1.6589
4145.00,1.6523
4144.00,1.6452
4143.00,1.6375
4142.00,1.6294
4141.00,1.6207
4140.00,1.6115
4139.00,1.6017
4138.00,1.5913
4137.00,1.5801
4136.00,1.5681
4135.00,1.5554
4134.00,1.5420
4133.00,1.5280
4132.00,1.5134
4131.00,1.4980
4130.00,1.4819
4129.00,1.4652
4128.00,1.4479
4127.00,1.4300
4126.00,1.4114
4125.00,1.3921
4124.00,1.3721
4123.00,1.3514
4122.00,1.3300
4121.00,1.3080
4120.00,1.2853
4119.00,1.2620
4118.00,1.2383
4117.00,1.2142
4116.00,1.1899
4115.00,1.1655
4114.00,1.1410
4113.00,1.1166
4112.00,1.0924
4111.00,1.0687
4110.00,1.0455
4109.00,1.0231
4108.00,1.0015
4107.00,0.9808
4106.00,0.9612
4105.00,0.9428
4104.00,0.9259
4103.00,0.9106
4102.00,0.8969
4101.00,0.8851
4100.00,0.8750
4099.00,0.8670
4098.00,0.8609
4097.00,0.8569
4096.00,0.8551
4095.00,0.8554
4094.00,0.8577
4093.00,0.8621
4092.00,0.8683
4091.00,0.8763
4090.00,0.8861
4089.00,0.8975
4088.00,0.9103
4087.00,0.9245
4086.00,0.9398
4085.00,0.9562
4084.00,0.9734
4083.00,0.9914
4082.00,1.0102
4081.00,1.0295
4080.00,1.0494
4079.00,1.0698
4078.00,1.0906
4077.00,1.1117
4076.00,1.1331
4075.00,1.1546
4074.00,1.1762
4073.00,1.1979
4072.00,1.2197
4071.00,1.2415
4070.00,1.2632
4069.00,1.2847
4068.00,1.3061
4067.00,1.3274
4066.00,1.3484
4065.00,1.3691
4064.00,1.3893
4063.00,1.4091
4062.00,1.4285
4061.00,1.4476
4060.00,1.4663
4059.00,1.4845
4058.00,1.5021
4057.00,1.5189
4056.00,1.5348
4055.00,1.5500
4054.00,1.5647
4053.00,1.5791
4052.00,1.5930
4051.00,1.6063
4050.00,1.6188
4049.00,1.6304
4048.00,1.6412
4047.00,1.6515
4046.00,1.6614
4045.00,1.6708
4044.00,1.6798
4043.00,1.6883
4042.00,1.6963
4041.00,1.7040
4040.00,1.7110
4039.00,1.7172
4038.00,1.7223
4037.00,1.7266
4036.00,1.7302
4035.00,1.7336
4034.00,1.7367
4033.00,1.7393
4032.00,1.7414
4031.00,1.7426
4030.00,1.7431
4029.00,1.7432
4028.00,1.7431
4027.00,1.7429
4026.00,1.7422
4025.00,1.7409
4024.00,1.7388
4023.00,1.7361
4022.00,1.7330
4021.00,1.7296
4020.00,1.7257
4019.00,1.7211
4018.00,1.7160
4017.00,1.7105
4016.00,1.7047
4015.00,1.6983
4014.00,1.6912
4013.00,1.6831
4012.00,1.6742
4011.00,1.6649
4010.00,1.6551
4009.00,1.6448
4008.00,1.6339
4007.00,1.6224
4006.00,1.6102
4005.00,1.5973
4004.00,1.5838
4003.00,1.5695
4002.00,1.5546
4001.00,1.5389
4000.00,1.5225
3999.00,1.5053
3998.00,1.4874
3997.00,1.4688
3996.00,1.4497
3995.00,1.4301
3994.00,1.4098
3993.00,1.3887
3992.00,1.3670
3991.00,1.3446
3990.00,1.3216
3989.00,1.2979
3988.00,1.2735
3987.00,1.2486
3986.00,1.2234
3985.00,1.1982
3984.00,1.1728
3983.00,1.1474
3982.00,1.1220
3981.00,1.0968
3980.00,1.0723
3979.00,1.0485
3978.00,1.0255
3977.00,1.0035
3976.00,0.9826
3975.00,0.9629
3974.00,0.9446
3973.00,0.9279
3972.00,0.9130
3971.00,0.9000
3970.00,0.8891
3969.00,0.8804
3968.00,0.8740
3967.00,0.8699
3966.00,0.8681
3965.00,0.8686
3964.00,0.8713
3963.00,0.8763
3962.00,0.8833
3961.00,0.8924
3960.00,0.9033
3959.00,0.9157
3958.00,0.9297
3957.00,0.9449
3956.00,0.9613
3955.00,0.9788
3954.00,0.9971
3953.00,1.0161
3952.00,1.0355
3951.00,1.0555
3950.00,1.0759
3949.00,1.0970
3948.00,1.1186
3947.00,1.1405
3946.00,1.1625
3945.00,1.1842
3944.00,1.2059
3943.00,1.2280
3942.00,1.2508
3941.00,1.2738
3940.00,1.2965
3939.00,1.3188
3938.00,1.3407
3937.00,1.3622
3936.00,1.3831
3935.00,1.4033
3934.00,1.4231
3933.00,1.4428
3932.00,1.4627
3931.00,1.4828
3930.00,1.5027
3929.00,1.5220
3928.00,1.5404
3927.00,1.5577
3926.00,1.5740
3925.00,1.5899
3924.00,1.6054
3923.00,1.6204
3922.00,1.6344
3921.00,1.6475
3920.00,1.6597
3919.00,1.6714
3918.00,1.6830
3917.00,1.6945
3916.00,1.7059
3915.00,1.7168
3914.00,1.7268
3913.00,1.7358
3912.00,1.7440
3911.00,1.7515
3910.00,1.7582
3909.00,1.7638
3908.00,1.7681
3907.00,1.7713
3906.00,1.7739
3905.00,1.7763
3904.00,1.7790
3903.00,1.7818
3902.00,1.7844
3901.00,1.7866
3900.00,1.7887
3899.00,1.7905
3898.00,1.7919
3897.00,1.7925
3896.00,1.7925
3895.00,1.7918
3894.00,1.7903
3893.00,1.7879
3892.00,1.7847
3891.00,1.7810
3890.00,1.7769
3889.00,1.7722
3888.00,1.7670
3887.00,1.7613
3886.00,1.7555
3885.00,1.7493
3884.00,1.7422
3883.00,1.7340
3882.00,1.7248
3881.00,1.7156
3880.00,1.7067
3879.00,1.6978
3878.00,1.6883
3877.00,1.6776
3876.00,1.6653
3875.00,1.6518
3874.00,1.6377
3873.00,1.6231
3872.00,1.6074
3871.00,1.5904
3870.00,1.5724
3869.00,1.5542
3868.00,1.5358
3867.00,1.5169
3866.00,1.4971
3865.00,1.4762
3864.00,1.4546
3863.00,1.4321
3862.00,1.4088
3861.00,1.3845
3860.00,1.3590
3859.00,1.3324
3858.00,1.3053
3857.00,1.2783
3856.00,1.2512
3855.00,1.2231
3854.00,1.1928
3853.00,1.1605
3852.00,1.1279
3851.00,1.0972
3850.00,1.0692
3849.00,1.0435
3848.00,1.0194
3847.00,0.9964
3846.00,0.9741
3845.00,0.9522
3844.00,0.9310
3843.00,0.9110
3842.00,0.8927
3841.00,0.8766
3840.00,0.8630
3839.00,0.8524
3838.00,0.8447
3837.00,0.8397
3836.00,0.8375
3835.00,0.8383
3834.00,0.8422
3833.00,0.8494
3832.00,0.8598
3831.00,0.8728
3830.00,0.8875
3829.00,0.9033
3828.00,0.9201
3827.00,0.9381
3826.00,0.9574
3825.00,0.9771
3824.00,0.9968
3823.00,1.0168
3822.00,1.0391
3821.00,1.0647
3820.00,1.0924
3819.00,1.1191
3818.00,1.1436
3817.00,1.1680
3816.00,1.1952
3815.00,1.2252
3814.00,1.2552
3813.00,1.2829
3812.00,1.3079
3811.00,1.3311
3810.00,1.3531
3809.00,1.3743
3808.00,1.3961
3807.00,1.4196
3806.00,1.4447
3805.00,1.4691
3804.00,1.4908
3803.00,1.5104
3802.00,1.5306
3801.00,1.5528
3800.00,1.5759
3799.00,1.5975
3798.00,1.6169
3797.00,1.6351
3796.00,1.6527
3795.00,1.6695
3794.00,1.6852
3793.00,1.6996
3792.00,1.7133
3791.00,1.7264
3790.00,1.7387
3789.00,1.7500
3788.00,1.7602
3787.00,1.7696
3786.00,1.7784
3785.00,1.7870
3784.00,1.7955
3783.00,1.8034
3782.00,1.8103
3781.00,1.8160
3780.00,1.8210
3779.00,1.8260
3778.00,1.8313
3777.00,1.8361
3776.00,1.8397
3775.00,1.8421
3774.00,1.8434
3773.00,1.8438
3772.00,1.8435
3771.00,1.8429
3770.00,1.8424
3769.00,1.8419
3768.00,1.8410
3767.00,1.8393
3766.00,1.8370
3765.00,1.8344
3764.00,1.8315
3763.00,1.8282
3762.00,1.8240
3761.00,1.8191
3760.00,1.8134
3759.00,1.8071
3758.00,1.8004
3757.00,1.7931
3756.00,1.7851
3755.00,1.7764
3754.00,1.7669
3753.00,1.7571
3752.00,1.7471
3751.00,1.7370
3750.00,1.7266
3749.00,1.7157
3748.00,1.7047
3747.00,1.6937
3746.00,1.6824
3745.00,1.6708
3744.00,1.6585
3743.00,1.6451
3742.00,1.6303
3741.00,1.6142
3740.00,1.5968
3739.00,1.5780
3738.00,1.5571
3737.00,1.5335
3736.00,1.5072
3735.00,1.4791
3734.00,1.4500
3733.00,1.4199
3732.00,1.3890
3731.00,1.3576
3730.00,1.3262
3729.00,1.2948
3728.00,1.2628
3727.00,1.2302
3726.00,1.1974
3725.00,1.1650
3724.00,1.1335
3723.00,1.1031
3722.00,1.0744
3721.00,1.0476
3720.00,1.0228
3719.00,1.0001
3718.00,0.9789
3717.00,0.9588
3716.00,0.9402
3715.00,0.9234
3714.00,0.9090
3713.00,0.8971
3712.00,0.8873
3711.00,0.8798
3710.00,0.8752
3709.00,0.8742
3708.00,0.8770
3707.00,0.8836
3706.00,0.8935
3705.00,0.9066
3704.00,0.9224
3703.00,0.9413
3702.00,0.9633
3701.00,0.9878
3700.00,1.0141
3699.00,1.0412
3698.00,1.0689
3697.00,1.0972
3696.00,1.1262
3695.00,1.1554
3694.00,1.1840
3693.00,1.2121
3692.00,1.2400
3691.00,1.2681
3690.00,1.2976
3689.00,1.3295
3688.00,1.3637
3687.00,1.3981
3686.00,1.4304
3685.00,1.4596
3684.00,1.4863
3683.00,1.5113
3682.00,1.5349
3681.00,1.5571
3680.00,1.5782
3679.00,1.5981
3678.00,1.6167
3677.00,1.6347
3676.00,1.6542
3675.00,1.6762
3674.00,1.6986
3673.00,1.7190
3672.00,1.7369
3671.00,1.7538
3670.00,1.7715
3669.00,1.7899
3668.00,1.8073
3667.00,1.8228
3666.00,1.8365
3665.00,1.8489
3664.00,1.8605
3663.00,1.8713
3662.00,1.8812
3661.00,1.8902
3660.00,1.8983
3659.00,1.9056
3658.00,1.9125
3657.00,1.9194
3656.00,1.9260
3655.00,1.9314
3654.00,1.9351
3653.00,1.9375
3652.00,1.9396
3651.00,1.9421
3650.00,1.9455
3649.00,1.9494
3648.00,1.9536
3647.00,1.9579
3646.00,1.9620
3645.00,1.9657
3644.00,1.9687
3643.00,1.9710
3642.00,1.9724
3641.00,1.9727
3640.00,1.9715
3639.00,1.9693
3638.00,1.9664
3637.00,1.9632
3636.00,1.9592
3635.00,1.9540
3634.00,1.9474
3633.00,1.9398
3632.00,1.9317
3631.00,1.9231
3630.00,1.9146
3629.00,1.9071
3628.00,1.9004
3627.00,1.8937
3626.00,1.8864
3625.00,1.8786
3624.00,1.8707
3623.00,1.8631
3622.00,1.8554
3621.00,1.8475
3620.00,1.8392
3619.00,1.8305
3618.00,1.8217
3617.00,1.8129
3616.00,1.8038
3615.00,1.7939
3614.00,1.7834
3613.00,1.7726
3612.00,1.7617
3611.00,1.7506
3610.00,1.7387
3609.00,1.7257
3608.00,1.7119
3607.00,1.6979
3606.00,1.6840
3605.00,1.6706
3604.00,1.6577
3603.00,1.6450
3602.00,1.6324
3601.00,1.6196
3600.00,1.6068
3599.00,1.5941
3598.00,1.5817
3597.00,1.5698
3596.00,1.5583
3595.00,1.5472
3594.00,1.5363
3593.00,1.5256
3592.00,1.5156
3591.00,1.5064
3590.00,1.4981
3589.00,1.4903
3588.00,1.4830
3587.00,1.4765
3586.00,1.4711
3585.00,1.4669
3584.00,1.4640
3583.00,1.4621
3582.00,1.4614
3581.00,1.4616
3580.00,1.4627
3579.00,1.4646
3578.00,1.4675
3577.00,1.4713
3576.00,1.4761
3575.00,1.4816
3574.00,1.4880
3573.00,1.4951
3572.00,1.5029
3571.00,1.5115
3570.00,1.5207
3569.00,1.5306
3568.00,1.5414
3567.00,1.5535
3566.00,1.5666
3565.00,1.5803
3564.00,1.5944
3563.00,1.6089
3562.00,1.6236
3561.00,1.6385
3560.00,1.6534
3559.00,1.6684
3558.00,1.6836
3557.00,1.6990
3556.00,1.7144
3555.00,1.7294
3554.00,1.7441
3553.00,1.7588
3552.00,1.7739
3551.00,1.7889
3550.00,1.8034
3549.00,1.8172
3548.00,1.8305
3547.00,1.8436
3546.00,1.8567
3545.00,1.8701
3544.00,1.8837
3543.00,1.8973
3542.00,1.9105
3541.00,1.9228
3540.00,1.9343
3539.00,1.9452
3538.00,1.9560
3537.00,1.9669
3536.00,1.9778
3535.00,1.9882
3534.00,1.9978
3533.00,2.0067
3532.00,2.0153
3531.00,2.0236
3530.00,2.0316
3529.00,2.0392
3528.00,2.0466
3527.00,2.0536
3526.00,2.0602
3525.00,2.0662
3524.00,2.0718
3523.00,2.0771
3522.00,2.0823
3521.00,2.0873
3520.00,2.0921
3519.00,2.0966
3518.00,2.1008
3517.00,2.1045
3516.00,2.1076
3515.00,2.1099
3514.00,2.1117
3513.00,2.1136
3512.00,2.1158
3511.00,2.1181
3510.00,2.1195
3509.00,2.1197
3508.00,2.1192
3507.00,2.1185
3506.00,2.1180
3505.00,2.1177
3504.00,2.1170
3503.00,2.1156
3502.00,2.1139
3501.00,2.1120
3500.00,2.1102
3499.00,2.1079
3498.00,2.1051
3497.00,2.1019
3496.00,2.0986
3495.00,2.0949
3494.00,2.0910
3493.00,2.0869
3492.00,2.0828
3491.00,2.0782
3490.00,2.0728
3489.00,2.0663
3488.00,2.0588
3487.00,2.0507
3486.00,2.0421
3485.00,2.0335
3484.00,2.0251
3483.00,2.0170
3482.00,2.0089
3481.00,2.0006
3480.00,1.9919
3479.00,1.9825
3478.00,1.9723
3477.00,1.9616
3476.00,1.9503
3475.00,1.9386
3474.00,1.9264
3473.00,1.9140
3472.00,1.9013
3471.00,1.8884
3470.00,1.8755
3469.00,1.8625
3468.00,1.8493
3467.00,1.8354
3466.00,1.8209
3465.00,1.8062
3464.00,1.7918
3463.00,1.7778
3462.00,1.7638
3461.00,1.7496
3460.00,1.7352
3459.00,1.7207
3458.00,1.7064
3457.00,1.6924
3456.00,1.6788
3455.00,1.6657
3454.00,1.6530
3453.00,1.6407
3452.00,1.6290
3451.00,1.6180
3450.00,1.6078
3449.00,1.5984
3448.00,1.5898
3447.00,1.5822
3446.00,1.5756
3445.00,1.5701
3444.00,1.5656
3443.00,1.5623
3442.00,1.5603
3441.00,1.5595
3440.00,1.5600
3439.00,1.5616
3438.00,1.5642
3437.00,1.5681
3436.00,1.5732
3435.00,1.5793
3434.00,1.5865
3433.00,1.5948
3432.00,1.6040
3431.00,1.6143
3430.00,1.6254
3429.00,1.6376
3428.00,1.6506
3427.00,1.6643
3426.00,1.6785
3425.00,1.6930
3424.00,1.7076
3423.00,1.7224
3422.00,1.7375
3421.00,1.7529
3420.00,1.7688
3419.00,1.7847
3418.00,1.8004
3417.00,1.8159
3416.00,1.8311
3415.00,1.8464
3414.00,1.8615
3413.00,1.8764
3412.00,1.8908
3411.00,1.9044
3410.00,1.9171
3409.00,1.9289
3408.00,1.9400
3407.00,1.9507
3406.00,1.9612
3405.00,1.9708
3404.00,1.9793
3403.00,1.9871
3402.00,1.9949
3401.00,2.0027
3400.00,2.0102
3399.00,2.0172
3398.00,2.0238
3397.00,2.0304
3396.00,2.0369
3395.00,2.0431
3394.00,2.0492
3393.00,2.0554
3392.00,2.0618
3391.00,2.0684
3390.00,2.0751
3389.00,2.0817
3388.00,2.0878
3387.00,2.0929
3386.00,2.0969
3385.00,2.1003
3384.00,2.1037
3383.00,2.1070
3382.00,2.1100
3381.00,2.1129
3380.00,2.1157
3379.00,2.1185
3378.00,2.1209
3377.00,2.1229
3376.00,2.1246
3375.00,2.1262
3374.00,2.1276
3373.00,2.1283
3372.00,2.1281
3371.00,2.1274
3370.00,2.1265
3369.00,2.1254
3368.00,2.1240
3367.00,2.1222
3366.00,2.1200
3365.00,2.1175
3364.00,2.1146
3363.00,2.1110
3362.00,2.1064
3361.00,2.1010
3360.00,2.0947
3359.00,2.0879
3358.00,2.0806
3357.00,2.0731
3356.00,2.0657
3355.00,2.0583
3354.00,2.0508
3353.00,2.0428
3352.00,2.0339
3351.00,2.0238
3350.00,2.0130
3349.00,2.0017
3348.00,1.9902
3347.00,1.9783
3346.00,1.9658
3345.00,1.9525
3344.00,1.9386
3343.00,1.9243
3342.00,1.9096
3341.00,1.8944
3340.00,1.8785
3339.00,1.8618
3338.00,1.8443
3337.00,1.8262
3336.00,1.8080
3335.00,1.7896
3334.00,1.7709
3333.00,1.7520
3332.00,1.7328
3331.00,1.7136
3330.00,1.6945
3329.00,1.6752
3328.00,1.6557
3327.00,1.6360
3326.00,1.6163
3325.00,1.5969
3324.00,1.5781
3323.00,1.5601
3322.00,1.5429
3321.00,1.5266
3320.00,1.5113
3319.00,1.4971
3318.00,1.4842
3317.00,1.4726
3316.00,1.4625
3315.00,1.4539
3314.00,1.4469
3313.00,1.4415
3312.00,1.4379
3311.00,1.4361
3310.00,1.4361
3309.00,1.4379
3308.00,1.4413
3307.00,1.4464
3306.00,1.4532
3305.00,1.4614
3304.00,1.4712
3303.00,1.4822
3302.00,1.4944
3301.00,1.5076
3300.00,1.5216
3299.00,1.5365
3298.00,1.5521
3297.00,1.5684
3296.00,1.5856
3295.00,1.6036
3294.00,1.6222
3293.00,1.6413
3292.00,1.6604
3291.00,1.6794
3290.00,1.6985
3289.00,1.7177
3288.00,1.7370
3287.00,1.7562
3286.00,1.7750
3285.00,1.7934
3284.00,1.8116
3283.00,1.8294
3282.00,1.8471
3281.00,1.8644
3280.00,1.8814
3279.00,1.8981
3278.00,1.9146
3277.00,1.9310
3276.00,1.9471
3275.00,1.9625
3274.00,1.9770
3273.00,1.9908
3272.00,2.0041
3271.00,2.0170
3270.00,2.0295
3269.00,2.0414
3268.00,2.0528
3267.00,2.0637
3266.00,2.0741
3265.00,2.0840
3264.00,2.0932
3263.00,2.1019
3262.00,2.1102
3261.00,2.1181
3260.00,2.1255
3259.00,2.1323
3258.00,2.1384
3257.00,2.1441
3256.00,2.1495
3255.00,2.1550
3254.00,2.1600
3253.00,2.1641
3252.00,2.1669
3251.00,2.1689
3250.00,2.1705
3249.00,2.1724
3248.00,2.1745
3247.00,2.1763
3246.00,2.1775
3245.00,2.1781
3244.00,2.1780
3243.00,2.1772
3242.00,2.1756
3241.00,2.1733
3240.00,2.1710
3239.00,2.1691
3238.00,2.1675
3237.00,2.1657
3236.00,2.1633
3235.00,2.1599
3234.00,2.1554
3233.00,2.1499
3232.00,2.1438
3231.00,2.1374
3230.00,2.1308
3229.00,2.1241
3228.00,2.1171
3227.00,2.1098
3226.00,2.1024
3225.00,2.0945
3224.00,2.0858
3223.00,2.0759
3222.00,2.0650
3221.00,2.0538
3220.00,2.0425
3219.00,2.0310
3218.00,2.0189
3217.00,2.0062
3216.00,1.9930
3215.00,1.9795
3214.00,1.9657
3213.00,1.9514
3212.00,1.9363
3211.00,1.9204
3210.00,1.9039
3209.00,1.8874
3208.00,1.8709
3207.00,1.8542
3206.00,1.8370
3205.00,1.8193
3204.00,1.8013
3203.00,1.7834
3202.00,1.7654
3201.00,1.7475
3200.00,1.7296
3199.00,1.7119
3198.00,1.6947
3197.00,1.6780
3196.00,1.6616
3195.00,1.6457
3194.00,1.6304
3193.00,1.6160
3192.00,1.6027
3191.00,1.5904
3190.00,1.5793
3189.00,1.5695
3188.00,1.5610
3187.00,1.5540
3186.00,1.5485
3185.00,1.5445
3184.00,1.5422
3183.00,1.5415
3182.00,1.5424
3181.00,1.5449
3180.00,1.5489
3179.00,1.5544
3178.00,1.5613
3177.00,1.5695
3176.00,1.5788
3175.00,1.5893
3174.00,1.6008
3173.00,1.6135
3172.00,1.6272
3171.00,1.6417
3170.00,1.6568
3169.00,1.6727
3168.00,1.6893
3167.00,1.7064
3166.00,1.7238
3165.00,1.7414
3164.00,1.7591
3163.00,1.7769
3162.00,1.7949
3161.00,1.8130
3160.00,1.8311
3159.00,1.8490
3158.00,1.8665
3157.00,1.8838
3156.00,1.9011
3155.00,1.9183
3154.00,1.9355
3153.00,1.9525
3152.00,1.9689
3151.00,1.9844
3150.00,1.9990
3149.00,2.0131
3148.00,2.0272
3147.00,2.0414
3146.00,2.0554
3145.00,2.0684
3144.00,2.0802
3143.00,2.0911
3142.00,2.1020
3141.00,2.1131
3140.00,2.1239
3139.00,2.1337
3138.00,2.1424
3137.00,2.1504
3136.00,2.1584
3135.00,2.1662
3134.00,2.1735
3133.00,2.1802
3132.00,2.1864
3131.00,2.1927
3130.00,2.1990
3129.00,2.2046
3128.00,2.2094
3127.00,2.2135
3126.00,2.2172
3125.00,2.2205
3124.00,2.2235
3123.00,2.2264
3122.00,2.2293
3121.00,2.2324
3120.00,2.2351
3119.00,2.2371
3118.00,2.2382
3117.00,2.2385
3116.00,2.2380
3115.00,2.2366
3114.00,2.2346
3113.00,2.2321
3112.00,2.2292
3111.00,2.2260
3110.00,2.2224
3109.00,2.2183
3108.00,2.2129
3107.00,2.2061
3106.00,2.1986
3105.00,2.1911
3104.00,2.1841
3103.00,2.1770
3102.00,2.1691
3101.00,2.1601
3100.00,2.1500
3099.00,2.1393
3098.00,2.1283
3097.00,2.1170
3096.00,2.1050
3095.00,2.0921
3094.00,2.0781
3093.00,2.0635
3092.00,2.0484
3091.00,2.0329
3090.00,2.0171
3089.00,2.0007
3088.00,1.9837
3087.00,1.9661
3086.00,1.9476
3085.00,1.9282
3084.00,1.9081
3083.00,1.8875
3082.00,1.8669
3081.00,1.8465
3080.00,1.8262
3079.00,1.8059
3078.00,1.7854
3077.00,1.7650
3076.00,1.7448
3075.00,1.7252
3074.00,1.7065
3073.00,1.6888
3072.00,1.6722
3071.00,1.6569
3070.00,1.6430
3069.00,1.6310
3068.00,1.6211
3067.00,1.6135
3066.00,1.6080
3065.00,1.6046
3064.00,1.6032
3063.00,1.6039
3062.00,1.6067
3061.00,1.6118
3060.00,1.6189
3059.00,1.6279
3058.00,1.6386
3057.00,1.6506
3056.00,1.6638
3055.00,1.6783
3054.00,1.6941
3053.00,1.7113
3052.00,1.7296
3051.00,1.7487
3050.00,1.7684
3049.00,1.7885
3048.00,1.8092
3047.00,1.8302
3046.00,1.8514
3045.00,1.8730
3044.00,1.8948
3043.00,1.9168
3042.00,1.9386
3041.00,1.9601
3040.00,1.9814
3039.00,2.0028
3038.00,2.0244
3037.00,2.0459
3036.00,2.0665
3035.00,2.0860
3034.00,2.1047
3033.00,2.1229
3032.00,2.1407
3031.00,2.1577
3030.00,2.1737
3029.00,2.1889
3028.00,2.2033
3027.00,2.2168
3026.00,2.2296
3025.00,2.2422
3024.00,2.2546
3023.00,2.2662
3022.00,2.2760
3021.00,2.2838
3020.00,2.2903
3019.00,2.2964
3018.00,2.3028
3017.00,2.3092
3016.00,2.3148
3015.00,2.3188
3014.00,2.3211
3013.00,2.3220
3012.00,2.3218
3011.00,2.3207
3010.00,2.3192
3009.00,2.3172
3008.00,2.3145
3007.00,2.3105
3006.00,2.3052
3005.00,2.2989
3004.00,2.2915
3003.00,2.2826
3002.00,2.2717
3001.00,2.2591
3000.00,2.2450
2999.00,2.2300
2998.00,2.2142
2997.00,2.1978
2996.00,2.1808
2995.00,2.1634
2994.00,2.1460
2993.00,2.1294
2992.00,2.1140
2991.00,2.1006
2990.00,2.0900
2989.00,2.0831
2988.00,2.0808
2987.00,2.0838
2986.00,2.0931
2985.00,2.1096
2984.00,2.1337
2983.00,2.1651
2982.00,2.2036
2981.00,2.2484
2980.00,2.2986
2979.00,2.3528
2978.00,2.4102
2977.00,2.4711
2976.00,2.5362
2975.00,2.6052
2974.00,2.6766
2973.00,2.7485
2972.00,2.8200
2971.00,2.8924
2970.00,2.9688
2969.00,3.0521
2968.00,3.1414
2967.00,3.2317
2966.00,3.3195
2965.00,3.4087
2964.00,3.5057
2963.00,3.6048
2962.00,3.6864
2961.00,3.7405
2960.00,3.7813
2959.00,3.8249
2958.00,3.8647
2957.00,3.8789
2956.00,3.8631
2955.00,3.8368
2954.00,3.8205
2953.00,3.8229
2952.00,3.8419
2951.00,3.8663
2950.00,3.8775
2949.00,3.8661
2948.00,3.8448
2947.00,3.8365
2946.00,3.8554
2945.00,3.8991
2944.00,3.9484
2943.00,3.9857
2942.00,4.0211
2941.00,4.0770
2940.00,4.1450
2939.00,4.1778
2938.00,4.1541
2937.00,4.1276
2936.00,4.1453
2935.00,4.2032
2934.00,4.2555
2933.00,4.2504
2932.00,4.2164
2931.00,4.2120
2930.00,4.2457
2929.00,4.2577
2928.00,4.1971
2927.00,4.1057
2926.00,4.0358
2925.00,3.9898
2924.00,3.9501
2923.00,3.9083
2922.00,3.8723
2921.00,3.8534
2920.00,3.8439
2919.00,3.8180
2918.00,3.7599
2917.00,3.6814
2916.00,3.6040
2915.00,3.5367
2914.00,3.4767
2913.00,3.4203
2912.00,3.3680
2911.00,3.3220
2910.00,3.2804
2909.00,3.2393
2908.00,3.1987
2907.00,3.1636
2906.00,3.1378
2905.00,3.1184
2904.00,3.0985
2903.00,3.0743
2902.00,3.0478
2901.00,3.0226
2900.00,2.9991
2899.00,2.9754
2898.00,2.9510
2897.00,2.9271
2896.00,2.9041
2895.00,2.8818
2894.00,2.8598
2893.00,2.8390
2892.00,2.8203
2891.00,2.8037
2890.00,2.7890
2889.00,2.7760
2888.00,2.7649
2887.00,2.7556
2886.00,2.7492
2885.00,2.7478
2884.00,2.7534
2883.00,2.7659
2882.00,2.7835
2881.00,2.8053
2880.00,2.8325
2879.00,2.8674
2878.00,2.9101
2877.00,2.9579
2876.00,3.0071
2875.00,3.0572
2874.00,3.1113
2873.00,3.1727
2872.00,3.2413
2871.00,3.3145
2870.00,3.3915
2869.00,3.4742
2868.00,3.5605
2867.00,3.6414
2866.00,3.7102
2865.00,3.7728
2864.00,3.8366
2863.00,3.8864
2862.00,3.8908
2861.00,3.8487
2860.00,3.7905
2859.00,3.7281
2858.00,3.6467
2857.00,3.5388
2856.00,3.4191
2855.00,3.3037
2854.00,3.1963
2853.00,3.0936
2852.00,2.9932
2851.00,2.8959
2850.00,2.8032
2849.00,2.7162
2848.00,2.6348
2847.00,2.5581
2846.00,2.4846
2845.00,2.4140
2844.00,2.3472
2843.00,2.2861
2842.00,2.2323
2841.00,2.1866
2840.00,2.1490
2839.00,2.1195
2838.00,2.0979
2837.00,2.0835
2836.00,2.0756
2835.00,2.0732
2834.00,2.0756
2833.00,2.0818
2832.00,2.0910
2831.00,2.1022
2830.00,2.1147
2829.00,2.1277
2828.00,2.1407
2827.00,2.1536
2826.00,2.1660
2825.00,2.1780
2824.00,2.1894
2823.00,2.2004
2822.00,2.2113
2821.00,2.2225
2820.00,2.2338
2819.00,2.2455
2818.00,2.2579
2817.00,2.2713
2816.00,2.2853
2815.00,2.2994
2814.00,2.3128
2813.00,2.3252
2812.00,2.3364
2811.00,2.3461
2810.00,2.3547
2809.00,2.3628
2808.00,2.3711
2807.00,2.3797
2806.00,2.3881
2805.00,2.3953
2804.00,2.4012
2803.00,2.4063
2802.00,2.4107
2801.00,2.4144
2800.00,2.4165
2799.00,2.4172
2798.00,2.4167
2797.00,2.4153
2796.00,2.4128
2795.00,2.4097
2794.00,2.4064
2793.00,2.4028
2792.00,2.3976
2791.00,2.3905
2790.00,2.3821
2789.00,2.3734
2788.00,2.3650
2787.00,2.3561
2786.00,2.3461
2785.00,2.3349
2784.00,2.3220
2783.00,2.3076
2782.00,2.2920
2781.00,2.2761
2780.00,2.2602
2779.00,2.2439
2778.00,2.2265
2777.00,2.2078
2776.00,2.1878
2775.00,2.1666
2774.00,2.1439
2773.00,2.1199
2772.00,2.0948
2771.00,2.0690
2770.00,2.0425
2769.00,2.0147
2768.00,1.9851
2767.00,1.9537
2766.00,1.9212
2765.00,1.8879
2764.00,1.8540
2763.00,1.8193
2762.00,1.7838
2761.00,1.7474
2760.00,1.7104
2759.00,1.6729
2758.00,1.6353
2757.00,1.5980
2756.00,1.5614
2755.00,1.5263
2754.00,1.4934
2753.00,1.4635
2752.00,1.4374
2751.00,1.4156
2750.00,1.3986
2749.00,1.3869
2748.00,1.3804
2747.00,1.3793
2746.00,1.3831
2745.00,1.3917
2744.00,1.4047
2743.00,1.4218
2742.00,1.4424
2741.00,1.4660
2740.00,1.4923
2739.00,1.5208
2738.00,1.5511
2737.00,1.5829
2736.00,1.6157
2735.00,1.6490
2734.00,1.6826
2733.00,1.7162
2732.00,1.7499
2731.00,1.7835
2730.00,1.8171
2729.00,1.8506
2728.00,1.8837
2727.00,1.9160
2726.00,1.9472
2725.00,1.9774
2724.00,2.0066
2723.00,2.0350
2722.00,2.0625
2721.00,2.0891
2720.00,2.1146
2719.00,2.1392
2718.00,2.1626
2717.00,2.1849
2716.00,2.2060
2715.00,2.2258
2714.00,2.2441
2713.00,2.2612
2712.00,2.2779
2711.00,2.2944
2710.00,2.3101
2709.00,2.3246
2708.00,2.3376
2707.00,2.3493
2706.00,2.3599
2705.00,2.3696
2704.00,2.3789
2703.00,2.3884
2702.00,2.3979
2701.00,2.4071
2700.00,2.4155
2699.00,2.4230
2698.00,2.4297
2697.00,2.4355
2696.00,2.4407
2695.00,2.4456
2694.00,2.4504
2693.00,2.4545
2692.00,2.4571
2691.00,2.4582
2690.00,2.4585
2689.00,2.4589
2688.00,2.4591
2687.00,2.4587
2686.00,2.4576
2685.00,2.4560
2684.00,2.4543
2683.00,2.4523
2682.00,2.4499
2681.00,2.4472
2680.00,2.4443
2679.00,2.4413
2678.00,2.4381
2677.00,2.4343
2676.00,2.4298
2675.00,2.4251
2674.00,2.4202
2673.00,2.4149
2672.00,2.4086
2671.00,2.4019
2670.00,2.3951
2669.00,2.3882
2668.00,2.3802
2667.00,2.3703
2666.00,2.3586
2665.00,2.3459
2664.00,2.3325
2663.00,2.3182
2662.00,2.3028
2661.00,2.2860
2660.00,2.2678
2659.00,2.2484
2658.00,2.2283
2657.00,2.2079
2656.00,2.1872
2655.00,2.1659
2654.00,2.1438
2653.00,2.1209
2652.00,2.0971
2651.00,2.0724
2650.00,2.0467
2649.00,2.0200
2648.00,1.9924
2647.00,1.9637
2646.00,1.9335
2645.00,1.9016
2644.00,1.8680
2643.00,1.8328
2642.00,1.7963
2641.00,1.7589
2640.00,1.7208
2639.00,1.6822
2638.00,1.6436
2637.00,1.6057
2636.00,1.5692
2635.00,1.5350
2634.00,1.5037
2633.00,1.4759
2632.00,1.4520
2631.00,1.4323
2630.00,1.4172
2629.00,1.4072
2628.00,1.4024
2627.00,1.4028
2626.00,1.4080
2625.00,1.4178
2624.00,1.4317
2623.00,1.4494
2622.00,1.4703
2621.00,1.4939
2620.00,1.5197
2619.00,1.5472
2618.00,1.5760
2617.00,1.6057
2616.00,1.6362
2615.00,1.6670
2614.00,1.6981
2613.00,1.7293
2612.00,1.7605
2611.00,1.7916
2610.00,1.8224
2609.00,1.8528
2608.00,1.8824
2607.00,1.9113
2606.00,1.9397
2605.00,1.9680
2604.00,1.9964
2603.00,2.0249
2602.00,2.0532
2601.00,2.0810
2600.00,2.1079
2599.00,2.1332
2598.00,2.1569
2597.00,2.1797
2596.00,2.2021
2595.00,2.2240
2594.00,2.2453
2593.00,2.2658
2592.00,2.2860
2591.00,2.3057
2590.00,2.3244
2589.00,2.3416
2588.00,2.3573
2587.00,2.3720
2586.00,2.3861
2585.00,2.4003
2584.00,2.4145
2583.00,2.4281
2582.00,2.4399
2581.00,2.4495
2580.00,2.4578
2579.00,2.4658
2578.00,2.4743
2577.00,2.4829
2576.00,2.4909
2575.00,2.4982
2574.00,2.5049
2573.00,2.5112
2572.00,2.5166
2571.00,2.5204
2570.00,2.5231
2569.00,2.5253
2568.00,2.5281
2567.00,2.5317
2566.00,2.5358
2565.00,2.5398
2564.00,2.5427
2563.00,2.5435
2562.00,2.5420
2561.00,2.5389
2560.00,2.5355
2559.00,2.5326
2558.00,2.5302
2557.00,2.5277
2556.00,2.5252
2555.00,2.5225
2554.00,2.5193
2553.00,2.5155
2552.00,2.5106
2551.00,2.5045
2550.00,2.4972
2549.00,2.4893
2548.00,2.4816
2547.00,2.4745
2546.00,2.4673
2545.00,2.4590
2544.00,2.4493
2543.00,2.4384
2542.00,2.4267
2541.00,2.4142
2540.00,2.4010
2539.00,2.3872
2538.00,2.3735
2537.00,2.3597
2536.00,2.3450
2535.00,2.3287
2534.00,2.3105
2533.00,2.2909
2532.00,2.2705
2531.00,2.2499
2530.00,2.2291
2529.00,2.2077
2528.00,2.1852
2527.00,2.1610
2526.00,2.1353
2525.00,2.1082
2524.00,2.0796
2523.00,2.0493
2522.00,2.0173
2521.00,1.9837
2520.00,1.9485
2519.00,1.9116
2518.00,1.8729
2517.00,1.8325
2516.00,1.7907
2515.00,1.7478
2514.00,1.7040
2513.00,1.6598
2512.00,1.6158
2511.00,1.5727
2510.00,1.5310
2509.00,1.4915
2508.00,1.4549
2507.00,1.4218
2506.00,1.3928
2505.00,1.3684
2504.00,1.3492
2503.00,1.3353
2502.00,1.3272
2501.00,1.3250
2500.00,1.3288
2499.00,1.3382
2498.00,1.3528
2497.00,1.3721
2496.00,1.3955
2495.00,1.4224
2494.00,1.4523
2493.00,1.4847
2492.00,1.5193
2491.00,1.5554
2490.00,1.5928
2489.00,1.6313
2488.00,1.6704
2487.00,1.7100
2486.00,1.7498
2485.00,1.7894
2484.00,1.8288
2483.00,1.8677
2482.00,1.9059
2481.00,1.9433
2480.00,1.9797
2479.00,2.0150
2478.00,2.0492
2477.00,2.0822
2476.00,2.1139
2475.00,2.1445
2474.00,2.1741
2473.00,2.2029
2472.00,2.2303
2471.00,2.2559
2470.00,2.2799
2469.00,2.3028
2468.00,2.3248
2467.00,2.3455
2466.00,2.3646
2465.00,2.3824
2464.00,2.3993
2463.00,2.4155
2462.00,2.4307
2461.00,2.4454
2460.00,2.4598
2459.00,2.4741
2458.00,2.4877
2457.00,2.5003
2456.00,2.5117
2455.00,2.5220
2454.00,2.5312
2453.00,2.5397
2452.00,2.5475
2451.00,2.5550
2450.00,2.5626
2449.00,2.5703
2448.00,2.5776
2447.00,2.5839
2446.00,2.5889
2445.00,2.5932
2444.00,2.5978
2443.00,2.6027
2442.00,2.6073
2441.00,2.6108
2440.00,2.6135
2439.00,2.6159
2438.00,2.6179
2437.00,2.6188
2436.00,2.6182
2435.00,2.6167
2434.00,2.6151
2433.00,2.6135
2432.00,2.6116
2431.00,2.6093
2430.00,2.6068
2429.00,2.6038
2428.00,2.6004
2427.00,2.5965
2426.00,2.5920
2425.00,2.5868
2424.00,2.5807
2423.00,2.5740
2422.00,2.5671
2421.00,2.5598
2420.00,2.5515
2419.00,2.5423
2418.00,2.5325
2417.00,2.5225
2416.00,2.5123
2415.00,2.5016
2414.00,2.4902
2413.00,2.4779
2412.00,2.4643
2411.00,2.4497
2410.00,2.4340
2409.00,2.4173
2408.00,2.3994
2407.00,2.3801
2406.00,2.3599
2405.00,2.3393
2404.00,2.3180
2403.00,2.2954
2402.00,2.2711
2401.00,2.2452
2400.00,2.2181
2399.00,2.1900
2398.00,2.1606
2397.00,2.1294
2396.00,2.0961
2395.00,2.0608
2394.00,2.0238
2393.00,1.9853
2392.00,1.9459
2391.00,1.9063
2390.00,1.8676
2389.00,1.8307
2388.00,1.7972
2387.00,1.7686
2386.00,1.7466
2385.00,1.7325
2384.00,1.7270
2383.00,1.7300
2382.00,1.7404
2381.00,1.7563
2380.00,1.7749
2379.00,1.7935
2378.00,1.8097
2377.00,1.8220
2376.00,1.8300
2375.00,1.8343
2374.00,1.8363
2373.00,1.8380
2372.00,1.8410
2371.00,1.8459
2370.00,1.8524
2369.00,1.8610
2368.00,1.8715
2367.00,1.8829
2366.00,1.8951
2365.00,1.9087
2364.00,1.9229
2363.00,1.9375
2362.00,1.9548
2361.00,1.9754
2360.00,1.9987
2359.00,2.0217
2358.00,2.0412
2357.00,2.0589
2356.00,2.0746
2355.00,2.0898
2354.00,2.1081
2353.00,2.1351
2352.00,2.1694
2351.00,2.1989
2350.00,2.2202
2349.00,2.2406
2348.00,2.2690
2347.00,2.3027
2346.00,2.3308
2345.00,2.3520
2344.00,2.3709
2343.00,2.3963
2342.00,2.4299
2341.00,2.4671
2340.00,2.5057
2339.00,2.5440
2338.00,2.5835
2337.00,2.6238
2336.00,2.6654
2335.00,2.7092
2334.00,2.7583
2333.00,2.8123
2332.00,2.8681
2331.00,2.9173
2330.00,2.9576
2329.00,2.9873
2328.00,3.0100
2327.00,3.0332
2326.00,3.0620
2325.00,3.0987
2324.00,3.1346
2323.00,3.1638
2322.00,3.1842
2321.00,3.1977
2320.00,3.2056
2319.00,3.2063
2318.00,3.2025
2317.00,3.1977
2316.00,3.1966
2315.00,3.1974
2314.00,3.1974
2313.00,3.1930
2312.00,3.1845
2311.00,3.1723
2310.00,3.1577
2309.00,3.1406
2308.00,3.1210
2307.00,3.0985
2306.00,3.0729
2305.00,3.0443
2304.00,3.0133
2303.00,2.9815
2302.00,2.9513
2301.00,2.9239
2300.00,2.8997
2299.00,2.8773
2298.00,2.8556
2297.00,2.8328
2296.00,2.8088
2295.00,2.7843
2294.00,2.7609
2293.00,2.7389
2292.00,2.7176
2291.00,2.6968
2290.00,2.6765
2289.00,2.6576
2288.00,2.6405
2287.00,2.6251
2286.00,2.6102
2285.00,2.5945
2284.00,2.5766
2283.00,2.5562
2282.00,2.5341
2281.00,2.5109
2280.00,2.4871
2279.00,2.4628
2278.00,2.4383
2277.00,2.4137
2276.00,2.3891
2275.00,2.3639
2274.00,2.3381
2273.00,2.3115
2272.00,2.2836
2271.00,2.2541
2270.00,2.2231
2269.00,2.1906
2268.00,2.1568
2267.00,2.1213
2266.00,2.0839
2265.00,2.0441
2264.00,2.0020
2263.00,1.9577
2262.00,1.9116
2261.00,1.8639
2260.00,1.8152
2259.00,1.7660
2258.00,1.7174
2257.00,1.6703
2256.00,1.6261
2255.00,1.5856
2254.00,1.5496
2253.00,1.5176
2252.00,1.4890
2251.00,1.4631
2250.00,1.4403
2249.00,1.4218
2248.00,1.4093
2247.00,1.4038
2246.00,1.4057
2245.00,1.4148
2244.00,1.4307
2243.00,1.4526
2242.00,1.4798
2241.00,1.5114
2240.00,1.5468
2239.00,1.5851
2238.00,1.6257
2237.00,1.6680
2236.00,1.7114
2235.00,1.7558
2234.00,1.8006
2233.00,1.8454
2232.00,1.8899
2231.00,1.9340
2230.00,1.9778
2229.00,2.0208
2228.00,2.0629
2227.00,2.1036
2226.00,2.1430
2225.00,2.1813
2224.00,2.2182
2223.00,2.2533
2222.00,2.2862
2221.00,2.3168
2220.00,2.3457
2219.00,2.3740
2218.00,2.4020
2217.00,2.4292
2216.00,2.4544
2215.00,2.4774
2214.00,2.4986
2213.00,2.5189
2212.00,2.5380
2211.00,2.5559
2210.00,2.5730
2209.00,2.5900
2208.00,2.6072
2207.00,2.6238
2206.00,2.6389
2205.00,2.6518
2204.00,2.6626
2203.00,2.6724
2202.00,2.6832
2201.00,2.6962
2200.00,2.7106
2199.00,2.7236
2198.00,2.7331
2197.00,2.7393
2196.00,2.7444
2195.00,2.7505
2194.00,2.7580
2193.00,2.7657
2192.00,2.7718
2191.00,2.7762
2190.00,2.7803
2189.00,2.7849
2188.00,2.7893
2187.00,2.7925
2186.00,2.7944
2185.00,2.7959
2184.00,2.7973
2183.00,2.7982
2182.00,2.7981
2181.00,2.7975
2180.00,2.7969
2179.00,2.7964
2178.00,2.7958
2177.00,2.7953
2176.00,2.7950
2175.00,2.7941
2174.00,2.7918
2173.00,2.7880
2172.00,2.7833
2171.00,2.7782
2170.00,2.7725
2169.00,2.7659
2168.00,2.7580
2167.00,2.7491
2166.00,2.7399
2165.00,2.7311
2164.00,2.7227
2163.00,2.7139
2162.00,2.7038
2161.00,2.6922
2160.00,2.6800
2159.00,2.6684
2158.00,2.6573
2157.00,2.6459
2156.00,2.6324
2155.00,2.6159
2154.00,2.5966
2153.00,2.5760
2152.00,2.5556
2151.00,2.5364
2150.00,2.5176
2149.00,2.4975
2148.00,2.4748
2147.00,2.4493
2146.00,2.4218
2145.00,2.3930
2144.00,2.3630
2143.00,2.3319
2142.00,2.2999
2141.00,2.2666
2140.00,2.2318
2139.00,2.1950
2138.00,2.1563
2137.00,2.1157
2136.00,2.0732
2135.00,2.0288
2134.00,1.9826
2133.00,1.9350
2132.00,1.8863
2131.00,1.8364
2130.00,1.7859
2129.00,1.7352
2128.00,1.6854
2127.00,1.6376
2126.00,1.5930
2125.00,1.5529
2124.00,1.5186
2123.00,1.4909
2122.00,1.4707
2121.00,1.4587
2120.00,1.4550
2119.00,1.4595
2118.00,1.4717
2117.00,1.4910
2116.00,1.5166
2115.00,1.5476
2114.00,1.5831
2113.00,1.6221
2112.00,1.6641
2111.00,1.7083
2110.00,1.7544
2109.00,1.8018
2108.00,1.8500
2107.00,1.8984
2106.00,1.9466
2105.00,1.9942
2104.00,2.0409
2103.00,2.0863
2102.00,2.1302
2101.00,2.1726
2100.00,2.2135
2099.00,2.2528
2098.00,2.2907
2097.00,2.3273
2096.00,2.3623
2095.00,2.3951
2094.00,2.4250
2093.00,2.4526
2092.00,2.4786
2091.00,2.5037
2090.00,2.5280
2089.00,2.5515
2088.00,2.5741
2087.00,2.5956
2086.00,2.6156
2085.00,2.6343
2084.00,2.6530
2083.00,2.6726
2082.00,2.6924
2081.00,2.7108
2080.00,2.7268
2079.00,2.7402
2078.00,2.7521
2077.00,2.7635
2076.00,2.7754
2075.00,2.7882
2074.00,2.8007
2073.00,2.8111
2072.00,2.8196
2071.00,2.8278
2070.00,2.8371
2069.00,2.8472
2068.00,2.8562
2067.00,2.8633
2066.00,2.8693
2065.00,2.8751
2064.00,2.8809
2063.00,2.8855
2062.00,2.8880
2061.00,2.8886
2060.00,2.8887
2059.00,2.8890
2058.00,2.8893
2057.00,2.8890
2056.00,2.8887
2055.00,2.8893
2054.00,2.8910
2053.00,2.8923
2052.00,2.8919
2051.00,2.8896
2050.00,2.8855
2049.00,2.8805
2048.00,2.8761
2047.00,2.8739
2046.00,2.8742
2045.00,2.8743
2044.00,2.8718
2043.00,2.8670
2042.00,2.8616
2041.00,2.8560
2040.00,2.8487
2039.00,2.8382
2038.00,2.8253
2037.00,2.8114
2036.00,2.7980
2035.00,2.7859
2034.00,2.7756
2033.00,2.7663
2032.00,2.7562
2031.00,2.7434
2030.00,2.7273
2029.00,2.7089
2028.00,2.6896
2027.00,2.6703
2026.00,2.6510
2025.00,2.6312
2024.00,2.6105
2023.00,2.5886
2022.00,2.5654
2021.00,2.5407
2020.00,2.5140
2019.00,2.4852
2018.00,2.4551
2017.00,2.4240
2016.00,2.3920
2015.00,2.3581
2014.00,2.3217
2013.00,2.2831
2012.00,2.2425
2011.00,2.2001
2010.00,2.1554
2009.00,2.1080
2008.00,2.0580
2007.00,2.0058
2006.00,1.9517
2005.00,1.8963
2004.00,1.8403
2003.00,1.7849
2002.00,1.7316
2001.00,1.6817
2000.00,1.6368
1999.00,1.5980
1998.00,1.5665
1997.00,1.5429
1996.00,1.5276
1995.00,1.5208
1994.00,1.5231
1993.00,1.5353
1992.00,1.5574
1991.00,1.5880
1990.00,1.6253
1989.00,1.6676
1988.00,1.7141
1987.00,1.7636
1986.00,1.8148
1985.00,1.8668
1984.00,1.9187
1983.00,1.9703
1982.00,2.0213
1981.00,2.0714
1980.00,2.1205
1979.00,2.1679
1978.00,2.2131
1977.00,2.2557
1976.00,2.2964
1975.00,2.3357
1974.00,2.3738
1973.00,2.4103
1972.00,2.4447
1971.00,2.4763
1970.00,2.5055
1969.00,2.5331
1968.00,2.5597
1967.00,2.5856
1966.00,2.6110
1965.00,2.6366
1964.00,2.6624
1963.00,2.6874
1962.00,2.7105
1961.00,2.7323
1960.00,2.7539
1959.00,2.7750
1958.00,2.7934
1957.00,2.8081
1956.00,2.8207
1955.00,2.8333
1954.00,2.8467
1953.00,2.8611
1952.00,2.8761
1951.00,2.8906
1950.00,2.9030
1949.00,2.9126
1948.00,2.9203
1947.00,2.9272
1946.00,2.9325
1945.00,2.9357
1944.00,2.9390
1943.00,2.9450
1942.00,2.9534
1941.00,2.9612
1940.00,2.9660
1939.00,2.9685
1938.00,2.9705
1937.00,2.9732
1936.00,2.9764
1935.00,2.9794
1934.00,2.9813
1933.00,2.9814
1932.00,2.9809
1931.00,2.9814
1930.00,2.9834
1929.00,2.9854
1928.00,2.9850
1927.00,2.9808
1926.00,2.9745
1925.00,2.9690
1924.00,2.9663
1923.00,2.9654
1922.00,2.9635
1921.00,2.9584
1920.00,2.9508
1919.00,2.9428
1918.00,2.9350
1917.00,2.9259
1916.00,2.9141
1915.00,2.9002
1914.00,2.8861
1913.00,2.8726
1912.00,2.8599
1911.00,2.8475
1910.00,2.8352
1909.00,2.8229
1908.00,2.8098
1907.00,2.7944
1906.00,2.7763
1905.00,2.7562
1904.00,2.7349
1903.00,2.7121
1902.00,2.6868
1901.00,2.6592
1900.00,2.6303
1899.00,2.6007
1898.00,2.5696
1897.00,2.5366
1896.00,2.5017
1895.00,2.4642
1894.00,2.4233
1893.00,2.3782
1892.00,2.3297
1891.00,2.2789
1890.00,2.2269
1889.00,2.1743
1888.00,2.1210
1887.00,2.0667
1886.00,2.0116
1885.00,1.9569
1884.00,1.9044
1883.00,1.8554
1882.00,1.8112
1881.00,1.7730
1880.00,1.7425
1879.00,1.7205
1878.00,1.7076
1877.00,1.7039
1876.00,1.7092
1875.00,1.7224
1874.00,1.7421
1873.00,1.7666
1872.00,1.7940
1871.00,1.8238
1870.00,1.8574
1869.00,1.8972
1868.00,1.9432
1867.00,1.9930
1866.00,2.0436
1865.00,2.0938
1864.00,2.1439
1863.00,2.1943
1862.00,2.2449
1861.00,2.2955
1860.00,2.3454
1859.00,2.3940
1858.00,2.4413
1857.00,2.4874
1856.00,2.5318
1855.00,2.5734
1854.00,2.6118
1853.00,2.6470
1852.00,2.6784
1851.00,2.7055
1850.00,2.7300
1849.00,2.7558
1848.00,2.7850
1847.00,2.8156
1846.00,2.8431
1845.00,2.8656
1844.00,2.8851
1843.00,2.9039
1842.00,2.9232
1841.00,2.9418
1840.00,2.9579
1839.00,2.9710
1838.00,2.9826
1837.00,2.9941
1836.00,3.0051
1835.00,3.0150
1834.00,3.0236
1833.00,3.0309
1832.00,3.0376
1831.00,3.0450
1830.00,3.0536
1829.00,3.0619
1828.00,3.0673
1827.00,3.0693
1826.00,3.0706
1825.00,3.0748
1824.00,3.0832
1823.00,3.0941
1822.00,3.1031
1821.00,3.1062
1820.00,3.1028
1819.00,3.0953
1818.00,3.0868
1817.00,3.0783
1816.00,3.0699
1815.00,3.0620
1814.00,3.0548
1813.00,3.0477
1812.00,3.0409
1811.00,3.0353
1810.00,3.0314
1809.00,3.0273
1808.00,3.0205
1807.00,3.0106
1806.00,2.9982
1805.00,2.9833
1804.00,2.9654
1803.00,2.9452
1802.00,2.9236
1801.00,2.9007
1800.00,2.8754
1799.00,2.8473
1798.00,2.8171
1797.00,2.7853
1796.00,2.7517
1795.00,2.7131
1794.00,2.6648
1793.00,2.6061
1792.00,2.5425
1791.00,2.4813
1790.00,2.4255
1789.00,2.3730
1788.00,2.3210
1787.00,2.2699
1786.00,2.2241
1785.00,2.1891
1784.00,2.1684
1783.00,2.1634
1782.00,2.1746
1781.00,2.2026
1780.00,2.2469
1779.00,2.3034
1778.00,2.3672
1777.00,2.4367
1776.00,2.5112
1775.00,2.5861
1774.00,2.6544
1773.00,2.7147
1772.00,2.7718
1771.00,2.8289
1770.00,2.8849
1769.00,2.9377
1768.00,2.9866
1767.00,3.0313
1766.00,3.0721
1765.00,3.1097
1764.00,3.1435
1763.00,3.1722
1762.00,3.1946
1761.00,3.2107
1760.00,3.2241
1759.00,3.2412
1758.00,3.2680
1757.00,3.3053
1756.00,3.3463
1755.00,3.3806
1754.00,3.4038
1753.00,3.4183
1752.00,3.4283
1751.00,3.4350
1750.00,3.4396
1749.00,3.4491
1748.00,3.4715
1747.00,3.5082
1746.00,3.5555
1745.00,3.6088
1744.00,3.6646
1743.00,3.7207
1742.00,3.7798
1741.00,3.8481
1740.00,3.9263
1739.00,4.0035
1738.00,4.0640
1737.00,4.1097
1736.00,4.1663
1735.00,4.2711
1734.00,4.4544
1733.00,4.6163
1732.00,4.5932
1731.00,4.5713
1730.00,4.6437
1729.00,4.8215
1728.00,5.0659
1727.00,5.0574
1726.00,5.0232
1725.00,5.2706
1724.00,5.1990
1723.00,4.7438
1722.00,4.5206
1721.00,4.4346
1720.00,4.4213
1719.00,4.3908
1718.00,4.3284
1717.00,4.3216
1716.00,4.4381
1715.00,4.6928
1714.00,5.0129
1713.00,5.0683
1712.00,4.7581
1711.00,4.5906
1710.00,4.5724
1709.00,4.6329
1708.00,4.7162
1707.00,4.7486
1706.00,4.6574
1705.00,4.5075
1704.00,4.4215
1703.00,4.4296
1702.00,4.5241
1701.00,4.7059
1700.00,4.7456
1699.00,4.5710
1698.00,4.4891
1697.00,4.4686
1696.00,4.4511
1695.00,4.4138
1694.00,4.3231
1693.00,4.1890
1692.00,4.0589
1691.00,3.9441
1690.00,3.8442
1689.00,3.7705
1688.00,3.7287
1687.00,3.7032
1686.00,3.6699
1685.00,3.6213
1684.00,3.5728
1683.00,3.5434
1682.00,3.5360
1681.00,3.5407
1680.00,3.5463
1679.00,3.5480
1678.00,3.5425
1677.00,3.5230
1676.00,3.4889
1675.00,3.4497
1674.00,3.4153
1673.00,3.3879
1672.00,3.3613
1671.00,3.3269
1670.00,3.2823
1669.00,3.2332
1668.00,3.1875
1667.00,3.1485
1666.00,3.1122
1665.00,3.0696
1664.00,3.0154
1663.00,2.9529
1662.00,2.8898
1661.00,2.8313
1660.00,2.7773
1659.00,2.7267
1658.00,2.6841
1657.00,2.6589
1656.00,2.6534
1655.00,2.6567
1654.00,2.6602
1653.00,2.6637
1652.00,2.6655
1651.00,2.6693
1650.00,2.6854
1649.00,2.7144
1648.00,2.7496
1647.00,2.7869
1646.00,2.8255
1645.00,2.8621
1644.00,2.8937
1643.00,2.9212
1642.00,2.9464
1641.00,2.9719
1640.00,3.0009
1639.00,3.0329
1638.00,3.0618
1637.00,3.0817
1636.00,3.0941
1635.00,3.1039
1634.00,3.1123
1633.00,3.1206
1632.00,3.1312
1631.00,3.1439
1630.00,3.1563
1629.00,3.1661
1628.00,3.1729
1627.00,3.1804
1626.00,3.1920
1625.00,3.2071
1624.00,3.2210
1623.00,3.2291
1622.00,3.2316
1621.00,3.2358
1620.00,3.2497
1619.00,3.2712
1618.00,3.2886
1617.00,3.2899
1616.00,3.2738
1615.00,3.2514
1614.00,3.2358
1613.00,3.2301
1612.00,3.2301
1611.00,3.2336
1610.00,3.2410
1609.00,3.2504
1608.00,3.2565
1607.00,3.2558
1606.00,3.2500
1605.00,3.2437
1604.00,3.2392
1603.00,3.2359
1602.00,3.2321
1601.00,3.2248
1600.00,3.2096
1599.00,3.1848
1598.00,3.1553
1597.00,3.1292
1596.00,3.1107
1595.00,3.0966
1594.00,3.0799
1593.00,3.0574
1592.00,3.0326
1591.00,3.0099
1590.00,2.9896
1589.00,2.9695
1588.00,2.9480
1587.00,2.9242
1586.00,2.8955
1585.00,2.8596
1584.00,2.8174
1583.00,2.7722
1582.00,2.7252
1581.00,2.6789
1580.00,2.6380
1579.00,2.6034
1578.00,2.5644
1577.00,2.5051
1576.00,2.4213
1575.00,2.3276
1574.00,2.2434
1573.00,2.1752
1572.00,2.1150
1571.00,2.0549
1570.00,1.9967
1569.00,1.9486
1568.00,1.9169
1567.00,1.9027
1566.00,1.9044
1565.00,1.9210
1564.00,1.9535
1563.00,2.0010
1562.00,2.0537
1561.00,2.0982
1560.00,2.1395
1559.00,2.1925
1558.00,2.2594
1557.00,2.3269
1556.00,2.3883
1555.00,2.4464
1554.00,2.5027
1553.00,2.5560
1552.00,2.6048
1551.00,2.6502
1550.00,2.6965
1549.00,2.7450
1548.00,2.7914
1547.00,2.8313
1546.00,2.8658
1545.00,2.9003
1544.00,2.9384
1543.00,2.9800
1542.00,3.0248
1541.00,3.0700
1540.00,3.1089
1539.00,3.1340
1538.00,3.1437
1537.00,3.1457
1536.00,3.1463
1535.00,3.1471
1534.00,3.1536
1533.00,3.1721
1532.00,3.1980
1531.00,3.2191
1530.00,3.2309
1529.00,3.2388
1528.00,3.2479
1527.00,3.2571
1526.00,3.2626
1525.00,3.2632
1524.00,3.2614
1523.00,3.2613
1522.00,3.2683
1521.00,3.2849
1520.00,3.3039
1519.00,3.3164
1518.00,3.3215
1517.00,3.3229
1516.00,3.3235
1515.00,3.3223
1514.00,3.3171
1513.00,3.3076
1512.00,3.2964
1511.00,3.2896
1510.00,3.2920
1509.00,3.3007
1508.00,3.3082
1507.00,3.3114
1506.00,3.3136
1505.00,3.3116
1504.00,3.3021
1503.00,3.2877
1502.00,3.2715
1501.00,3.2569
1500.00,3.2472
1499.00,3.2431
1498.00,3.2398
1497.00,3.2292
1496.00,3.2057
1495.00,3.1740
1494.00,3.1450
1493.00,3.1227
1492.00,3.1029
1491.00,3.0827
1490.00,3.0624
1489.00,3.0417
1488.00,3.0179
1487.00,2.9892
1486.00,2.9560
1485.00,2.9195
1484.00,2.8797
1483.00,2.8363
1482.00,2.7898
1481.00,2.7412
1480.00,2.6910
1479.00,2.6389
1478.00,2.5874
1477.00,2.5431
1476.00,2.5121
1475.00,2.4956
1474.00,2.4929
1473.00,2.5079
1472.00,2.5465
1471.00,2.6072
1470.00,2.6827
1469.00,2.7665
1468.00,2.8537
1467.00,2.9406
1466.00,3.0250
1465.00,3.1051
1464.00,3.1735
1463.00,3.2199
1462.00,3.2463
1461.00,3.2694
1460.00,3.3038
1459.00,3.3524
1458.00,3.4131
1457.00,3.4879
1456.00,3.5774
1455.00,3.6841
1454.00,3.8186
1453.00,3.9782
1452.00,4.1124
1451.00,4.1465
1450.00,4.1091
1449.00,4.0684
1448.00,4.0053
1447.00,3.8902
1446.00,3.7566
1445.00,3.6320
1444.00,3.5198
1443.00,3.4225
1442.00,3.3470
1441.00,3.2996
1440.00,3.2818
1439.00,3.2903
1438.00,3.3232
1437.00,3.3828
1436.00,3.4637
1435.00,3.5514
1434.00,3.6353
1433.00,3.7047
1432.00,3.7428
1431.00,3.7498
1430.00,3.7529
1429.00,3.7785
1428.00,3.8217
1427.00,3.8496
1426.00,3.8409
1425.00,3.8120
1424.00,3.7884
1423.00,3.7867
1422.00,3.8010
1421.00,3.7962
1420.00,3.7358
1419.00,3.6296
1418.00,3.5301
1417.00,3.4641
1416.00,3.4200
1415.00,3.3769
1414.00,3.3283
1413.00,3.2822
1412.00,3.2477
1411.00,3.2255
1410.00,3.2115
1409.00,3.2035
1408.00,3.2045
1407.00,3.2196
1406.00,3.2492
1405.00,3.2839
1404.00,3.3094
1403.00,3.3205
1402.00,3.3250
1401.00,3.3327
1400.00,3.3472
1399.00,3.3660
1398.00,3.3828
1397.00,3.3936
1396.00,3.4027
1395.00,3.4169
1394.00,3.4379
1393.00,3.4609
1392.00,3.4800
1391.00,3.4928
1390.00,3.5000
1389.00,3.5043
1388.00,3.5094
1387.00,3.5209
1386.00,3.5411
1385.00,3.5644
1384.00,3.5795
1383.00,3.5801
1382.00,3.5689
1381.00,3.5525
1380.00,3.5351
1379.00,3.5207
1378.00,3.5150
1377.00,3.5172
1376.00,3.5194
1375.00,3.5170
1374.00,3.5150
1373.00,3.5176
1372.00,3.5214
1371.00,3.5204
1370.00,3.5135
1369.00,3.5056
1368.00,3.5024
1367.00,3.5051
1366.00,3.5072
1365.00,3.4957
1364.00,3.4610
1363.00,3.4133
1362.00,3.3749
1361.00,3.3567
1360.00,3.3499
1359.00,3.3389
1358.00,3.3177
1357.00,3.2925
1356.00,3.2725
1355.00,3.2642
1354.00,3.2710
1353.00,3.2942
1352.00,3.3335
1351.00,3.3892
1350.00,3.4631
1349.00,3.5538
1348.00,3.6472
1347.00,3.7160
1346.00,3.7402
1345.00,3.7269
1344.00,3.6967
1343.00,3.6661
1342.00,3.6472
1341.00,3.6493
1340.00,3.6742
1339.00,3.7087
1338.00,3.7273
1337.00,3.7101
1336.00,3.6599
1335.00,3.5889
1334.00,3.5105
1333.00,3.4359
1332.00,3.3669
1331.00,3.2999
1330.00,3.2365
1329.00,3.1831
1328.00,3.1461
1327.00,3.1287
1326.00,3.1314
1325.00,3.1534
1324.00,3.1956
1323.00,3.2600
1322.00,3.3460
1321.00,3.4450
1320.00,3.5442
1319.00,3.6448
1318.00,3.7717
1317.00,3.9504
1316.00,4.1539
1315.00,4.2392
1314.00,4.1691
1313.00,4.1424
1312.00,4.2363
1311.00,4.4022
1310.00,4.4295
1309.00,4.2347
1308.00,4.0140
1307.00,3.8392
1306.00,3.7086
1305.00,3.6056
1304.00,3.5152
1303.00,3.4308
1302.00,3.3520
1301.00,3.2786
1300.00,3.2079
1299.00,3.1394
1298.00,3.0766
1297.00,3.0248
1296.00,2.9869
1295.00,2.9642
1294.00,2.9569
1293.00,2.9643
1292.00,2.9851
1291.00,3.0179
1290.00,3.0617
1289.00,3.1141
1288.00,3.1688
1287.00,3.2169
1286.00,3.2525
1285.00,3.2782
1284.00,3.3013
1283.00,3.3293
1282.00,3.3682
1281.00,3.4182
1280.00,3.4713
1279.00,3.5156
1278.00,3.5469
1277.00,3.5735
1276.00,3.6038
1275.00,3.6317
1274.00,3.6400
1273.00,3.6267
1272.00,3.6069
1271.00,3.5922
1270.00,3.5907
1269.00,3.6110
1268.00,3.6543
1267.00,3.7095
1266.00,3.7588
1265.00,3.7895
1264.00,3.8046
1263.00,3.8186
1262.00,3.8406
1261.00,3.8611
1260.00,3.8581
1259.00,3.8321
1258.00,3.8076
1257.00,3.7986
1256.00,3.8016
1255.00,3.8071
1254.00,3.8170
1253.00,3.8392
1252.00,3.8617
1251.00,3.8649
1250.00,3.8545
1249.00,3.8470
1248.00,3.8429
1247.00,3.8320
1246.00,3.8130
1245.00,3.7951
1244.00,3.7829
1243.00,3.7830
1242.00,3.8128
1241.00,3.8841
1240.00,3.9717
1239.00,4.0067
1238.00,3.9538
1237.00,3.8684
1236.00,3.8102
1235.00,3.7884
1234.00,3.7915
1233.00,3.8218
1232.00,3.8924
1231.00,3.9940
1230.00,4.0811
1229.00,4.1227
1228.00,4.1528
1227.00,4.2048
1226.00,4.2605
1225.00,4.3083
1224.00,4.3878
1223.00,4.4753
1222.00,4.5028
1221.00,4.5790
1220.00,4.7898
1219.00,5.0844
1218.00,4.9483
1217.00,4.5834
1216.00,4.3993
1215.00,4.2905
1214.00,4.1903
1213.00,4.1003
1212.00,4.0462
1211.00,4.0294
1210.00,4.0156
1209.00,3.9710
1208.00,3.9048
1207.00,3.8459
1206.00,3.8055
1205.00,3.7780
1204.00,3.7596
1203.00,3.7598
1202.00,3.7779
1201.00,3.7807
1200.00,3.7546
1199.00,3.7299
1198.00,3.7160
1197.00,3.7059
1196.00,3.6983
1195.00,3.6904
1194.00,3.6757
1193.00,3.6512
1192.00,3.6250
1191.00,3.6044
1190.00,3.5901
1189.00,3.5776
1188.00,3.5562
1187.00,3.5200
1186.00,3.4772
1185.00,3.4401
1184.00,3.4161
1183.00,3.4078
1182.00,3.4144
1181.00,3.4310
1180.00,3.4464
1179.00,3.4473
1178.00,3.4302
1177.00,3.4074
1176.00,3.3956
1175.00,3.4027
1174.00,3.4227
1173.00,3.4413
1172.00,3.4506
1171.00,3.4501
1170.00,3.4424
1169.00,3.4351
1168.00,3.4316
1167.00,3.4305
1166.00,3.4348
1165.00,3.4428
1164.00,3.4449
1163.00,3.4364
1162.00,3.4269
1161.00,3.4357
1160.00,3.4794
1159.00,3.5543
1158.00,3.6214
1157.00,3.6377
1156.00,3.6185
1155.00,3.6098
1154.00,3.6288
1153.00,3.6575
1152.00,3.6740
1151.00,3.6831
1150.00,3.6990
1149.00,3.7139
1148.00,3.7307
1147.00,3.7947
1146.00,3.9368
1145.00,4.1251
1144.00,4.2395
1143.00,4.1809
1142.00,4.0890
1141.00,4.0499
1140.00,4.0367
1139.00,4.0321
1138.00,4.0653
1137.00,4.1794
1136.00,4.4055
1135.00,4.6569
1134.00,4.5907
1133.00,4.3439
1132.00,4.1564
1131.00,4.0678
1130.00,4.0524
1129.00,4.0769
1128.00,4.1216
1127.00,4.1785
1126.00,4.2334
1125.00,4.2609
1124.00,4.2946
1123.00,4.3957
1122.00,4.6094
1121.00,4.8422
1120.00,5.0516
1119.00,4.9978
1118.00,4.4921
1117.00,4.3086
1116.00,4.2519
1115.00,4.2088
1114.00,4.1438
1113.00,4.0615
1112.00,4.0178
1111.00,4.0401
1110.00,4.0895
1109.00,4.0948
1108.00,4.1255
1107.00,4.2169
1106.00,4.1594
1105.00,4.0882
1104.00,4.1339
1103.00,4.0669
1102.00,3.9542
1101.00,3.9644
1100.00,4.0665
1099.00,4.1956
1098.00,4.2970
1097.00,4.3019
1096.00,4.2138
1095.00,4.1132
1094.00,4.0671
1093.00,4.0896
1092.00,4.1276
1091.00,4.1017
1090.00,4.0255
1089.00,3.9561
1088.00,3.8998
1087.00,3.8369
1086.00,3.7748
1085.00,3.7507
1084.00,3.7985
1083.00,3.9197
1082.00,4.0225
1081.00,4.0093
1080.00,3.9663
1079.00,3.9595
1078.00,3.9784
1077.00,3.9934
1076.00,4.0391
1075.00,4.1164
1074.00,4.1404
1073.00,4.1554
1072.00,4.2339
1071.00,4.3834
1070.00,4.5744
1069.00,4.5405
1068.00,4.3012
1067.00,4.0815
1066.00,3.9372
1065.00,3.8762
1064.00,3.8716
1063.00,3.8884
1062.00,3.9092
1061.00,3.9302
1060.00,3.9454
1059.00,3.9624
1058.00,4.0012
1057.00,4.0664
1056.00,4.1234
1055.00,4.1420
1054.00,4.1663
1053.00,4.2384
1052.00,4.3790
1051.00,4.5620
1050.00,4.8357
1049.00,4.7485
1048.00,4.2260
1047.00,3.9834
1046.00,3.9010
1045.00,3.8975
1044.00,3.8690
1043.00,3.7518
1042.00,3.6197
1041.00,3.5303
1040.00,3.4822
1039.00,3.4473
1038.00,3.4109
1037.00,3.3811
1036.00,3.3657
1035.00,3.3611
1034.00,3.3638
1033.00,3.3792
1032.00,3.4138
1031.00,3.4649
1030.00,3.5200
1029.00,3.5693
1028.00,3.6189
1027.00,3.6861
1026.00,3.7774
1025.00,3.8782
1024.00,3.9861
1023.00,4.1214
1022.00,4.2770
1021.00,4.3880
1020.00,4.5608
1019.00,4.7018
1018.00,4.3456
1017.00,4.1400
1016.00,4.1072
1015.00,4.1894
1014.00,4.3517
1013.00,4.4909
1012.00,4.4101
1011.00,4.1868
1010.00,4.0446
1009.00,3.9937
1008.00,4.0014
1007.00,4.0237
1006.00,4.0125
1005.00,3.9773
1004.00,3.9411
1003.00,3.9080
1002.00,3.8894
1001.00,3.8929
1000.00,3.9110
999.00,3.9211
998.00,3.9233
997.00,3.9617
996.00,4.0856
995.00,4.2644
994.00,4.2849
993.00,4.1498
992.00,4.0478
991.00,4.0257
990.00,4.0811
989.00,4.1763
988.00,4.2139
987.00,4.2222
986.00,4.3079
985.00,4.5497
984.00,4.9292
983.00,4.8210
982.00,4.6977
981.00,4.6934
980.00,4.6035
979.00,4.4782
978.00,4.3983
977.00,4.5020
976.00,4.6740
975.00,4.4198
974.00,4.3056
973.00,4.3131
972.00,4.2950
971.00,4.3748
970.00,4.4194
969.00,4.4372
968.00,4.7699
967.00,4.7561
966.00,4.3781
965.00,4.4168
964.00,4.8156
963.00,4.6660
962.00,4.4021
961.00,4.2390
960.00,4.1075
959.00,4.1016
958.00,4.2280
957.00,4.3686
956.00,4.3327
955.00,4.2583
954.00,4.2378
953.00,4.2360
952.00,4.2137
951.00,4.1980
950.00,4.2235
949.00,4.2596
948.00,4.2794
947.00,4.2965
946.00,4.3029
945.00,4.2369
944.00,4.1126
943.00,4.0326
942.00,4.0432
941.00,4.1267
940.00,4.2299
939.00,4.3260
938.00,4.4975
937.00,4.6944
936.00,4.5754
935.00,4.3963
934.00,4.2796
933.00,4.2041
932.00,4.1530
931.00,4.1111
930.00,4.1064
929.00,4.2040
928.00,4.5328
927.00,4.7322
926.00,4.4597
925.00,4.6128
924.00,4.8214
923.00,4.4346
922.00,4.2349
921.00,4.1126
920.00,4.0552
919.00,4.0939
918.00,4.1932
917.00,4.2701
916.00,4.2881
915.00,4.3337
914.00,4.4067
913.00,4.4715
912.00,4.4408
911.00,4.5012
910.00,4.8205
909.00,4.4931
908.00,4.1899
907.00,4.0701
906.00,3.9977
905.00,3.9905
904.00,4.0570
903.00,4.1713
902.00,4.2754
901.00,4.3336
900.00,4.4459
899.00,4.4523
898.00,4.1909
897.00,4.0324
896.00,3.9826
895.00,3.9471
894.00,3.8793
893.00,3.8200
892.00,3.8245
891.00,3.8895
890.00,3.9590
889.00,4.0201
888.00,4.1126
887.00,4.3555
886.00,4.6829
885.00,4.4105
884.00,4.2279
883.00,4.1442
882.00,4.0832
881.00,4.0707
880.00,4.0464
879.00,4.0101
878.00,4.0041
877.00,4.0642
876.00,4.1392
875.00,4.2371
874.00,4.6245
873.00,4.5625
872.00,4.1160
871.00,4.0215
870.00,4.1234
869.00,4.3436
868.00,4.6955
867.00,4.9476
866.00,4.4727
865.00,4.1581
864.00,4.0318
863.00,3.9948
862.00,3.9434
861.00,3.9093
860.00,3.9807
859.00,4.2077
858.00,4.4861
857.00,4.6569
856.00,4.9344
855.00,4.4700
854.00,4.1779
853.00,4.1181
852.00,4.2261
851.00,4.4453
850.00,4.4180
849.00,4.3422
848.00,4.2810
847.00,4.1553
846.00,4.0725
845.00,4.0765
844.00,4.1414
843.00,4.1867
842.00,4.1494
841.00,4.1022
840.00,4.1158
839.00,4.2841
838.00,4.4435
837.00,4.1516
836.00,3.9669
835.00,3.9269
834.00,4.0587
833.00,4.2604
832.00,4.0856
831.00,4.0184
830.00,4.2271
829.00,4.5940
828.00,4.5718
827.00,4.2690
826.00,4.0126
825.00,3.8904
824.00,3.8903
823.00,4.0070
822.00,4.0964
821.00,3.9641
820.00,3.8722
819.00,3.8464
818.00,3.8685
817.00,3.9890
816.00,4.3283
815.00,4.7121
814.00,4.3102
813.00,4.1016
812.00,4.0804
811.00,4.3531
810.00,4.3552
809.00,3.9151
808.00,3.7849
807.00,3.8219
806.00,3.9658
805.00,4.1653
804.00,4.2683
803.00,4.1705
802.00,3.9541
801.00,3.8354
800.00,3.8363
799.00,3.9156
798.00,4.0241
797.00,4.1072
796.00,4.1097
795.00,4.0196
794.00,3.9301
793.00,3.8834
792.00,3.8599
791.00,3.8642
790.00,3.8994
789.00,3.9235
788.00,3.9559
787.00,4.0443
786.00,4.3139
785.00,4.9076
784.00,4.9346
783.00,4.7787
782.00,4.5688
781.00,4.3975
780.00,4.2897
779.00,4.1795
778.00,4.0601
777.00,3.9360
776.00,3.8682
775.00,3.8500
774.00,3.8472
773.00,3.8335
772.00,3.8291
771.00,3.8490
770.00,3.8601
769.00,3.8515
768.00,3.8489
767.00,3.8647
766.00,3.9734
765.00,4.2066
764.00,4.3968
763.00,4.4022
762.00,4.1848
761.00,3.9297
760.00,3.8175
759.00,3.8506
758.00,4.1145
757.00,4.6229
756.00,4.5433
755.00,4.4501
754.00,4.2185
753.00,4.0005
752.00,3.9073
751.00,3.8610
750.00,3.8517
749.00,3.8658
748.00,3.9173
747.00,4.0028
746.00,4.1205
745.00,4.2567
744.00,4.3684
743.00,4.4665
742.00,4.5547
741.00,4.4813
740.00,4.3449
739.00,4.3261
738.00,4.3826
737.00,4.2270
736.00,4.1063
735.00,4.1416
734.00,4.4216
733.00,5.1462
732.00,4.4648
731.00,4.0725
730.00,3.8640
729.00,3.7629
728.00,3.7447
727.00,3.7386
726.00,3.7359
725.00,3.7536
724.00,3.8291
723.00,3.9733
722.00,4.1572
721.00,4.2283
720.00,4.0452
719.00,3.8519
718.00,3.7726
717.00,3.8073
716.00,3.9235
715.00,4.0453
714.00,4.1343
713.00,4.2289
712.00,4.3084
711.00,4.1877
710.00,3.9767
709.00,3.8689
708.00,3.8746
707.00,3.9547
706.00,4.0677
705.00,4.1693
704.00,4.1873
703.00,4.1028
702.00,4.0519
701.00,4.0529
700.00,4.2208
