Created as New Dataset,Sample 059 By Administrator Date Wednesday, November 24 2021
cm-1,A
7502.00,0.8024
7501.00,0.8059
7500.00,0.8097
7499.00,0.8139
7498.00,0.8184
7497.00,0.8232
7496.00,0.8283
7495.00,0.8335
7494.00,0.8392
7493.00,0.8456
7492.00,0.8528
7491.00,0.8604
7490.00,0.8680
7489.00,0.8752
7488.00,0.8824
7487.00,0.8898
7486.00,0.8973
7485.00,0.9048
7484.00,0.9120
7483.00,0.9194
7482.00,0.9271
7481.00,0.9350
7480.00,0.9427
7479.00,0.9501
7478.00,0.9574
7477.00,0.9648
7476.00,0.9728
7475.00,0.9813
7474.00,0.9900
7473.00,0.9987
7472.00,1.0071
7471.00,1.0153
7470.00,1.0230
7469.00,1.0301
7468.00,1.0367
7467.00,1.0431
7466.00,1.0494
7465.00,1.0557
7464.00,1.0617
7463.00,1.0672
7462.00,1.0721
7461.00,1.0764
7460.00,1.0799
7459.00,1.0828
7458.00,1.0852
7457.00,1.0875
7456.00,1.0901
7455.00,1.0931
7454.00,1.0962
7453.00,1.0994
7452.00,1.1026
7451.00,1.1055
7450.00,1.1078
7449.00,1.1090
7448.00,1.1096
7447.00,1.1101
7446.00,1.1102
7445.00,1.1092
7444.00,1.1068
7443.00,1.1036
7442.00,1.1007
7441.00,1.0981
7440.00,1.0952
7439.00,1.0917
7438.00,1.0881
7437.00,1.0846
7436.00,1.0809
7435.00,1.0762
7434.00,1.0706
7433.00,1.0644
7432.00,1.0583
7431.00,1.0524
7430.00,1.0471
7429.00,1.0426
7428.00,1.0392
7427.00,1.0372
7426.00,1.0361
7425.00,1.0350
7424.00,1.0330
7423.00,1.0300
7422.00,1.0265
7421.00,1.0227
7420.00,1.0180
7419.00,1.0119
7418.00,1.0045
7417.00,0.9970
7416.00,0.9899
7415.00,0.9834
7414.00,0.9771
7413.00,0.9707
7412.00,0.9645
7411.00,0.9584
7410.00,0.9524
7409.00,0.9466
7408.00,0.9410
7407.00,0.9354
7406.00,0.9296
7405.00,0.9235
7404.00,0.9170
7403.00,0.9102
7402.00,0.9030
7401.00,0.8955
7400.00,0.8876
7399.00,0.8796
7398.00,0.8717
7397.00,0.8641
7396.00,0.8566
7395.00,0.8494
7394.00,0.8423
7393.00,0.8354
7392.00,0.8285
7391.00,0.8219
7390.00,0.8158
7389.00,0.8104
7388.00,0.8056
7387.00,0.8010
7386.00,0.7964
7385.00,0.7923
7384.00,0.7890
7383.00,0.7863
7382.00,0.7837
7381.00,0.7813
7380.00,0.7796
7379.00,0.7789
7378.00,0.7790
7377.00,0.7791
7376.00,0.7791
7375.00,0.7794
7374.00,0.7803
7373.00,0.7818
7372.00,0.7836
7371.00,0.7856
7370.00,0.7881
7369.00,0.7915
7368.00,0.7958
7367.00,0.8009
7366.00,0.8064
7365.00,0.8121
7364.00,0.8181
7363.00,0.8245
7362.00,0.8316
7361.00,0.8391
7360.00,0.8468
7359.00,0.8547
7358.00,0.8630
7357.00,0.8715
7356.00,0.8797
7355.00,0.8877
7354.00,0.8957
7353.00,0.9043
7352.00,0.9133
7351.00,0.9226
7350.00,0.9317
7349.00,0.9407
7348.00,0.9495
7347.00,0.9581
7346.00,0.9663
7345.00,0.9743
7344.00,0.9824
7343.00,0.9911
7342.00,1.0004
7341.00,1.0097
7340.00,1.0188
7339.00,1.0274
7338.00,1.0357
7337.00,1.0436
7336.00,1.0508
7335.00,1.0575
7334.00,1.0643
7333.00,1.0721
7332.00,1.0806
7331.00,1.0889
7330.00,1.0963
7329.00,1.1028
7328.00,1.1091
7327.00,1.1154
7326.00,1.1215
7325.00,1.1270
7324.00,1.1321
7323.00,1.1369
7322.00,1.1417
7321.00,1.1466
7320.00,1.1518
7319.00,1.1568
7318.00,1.1610
7317.00,1.1644
7316.00,1.1674
7315.00,1.1705
7314.00,1.1737
7313.00,1.1767
7312.00,1.1793
7311.00,1.1815
7310.00,1.1831
7309.00,1.1842
7308.00,1.1846
7307.00,1.1846
7306.00,1.1843
7305.00,1.1838
7304.00,1.1829
7303.00,1.1818
7302.00,1.1805
7301.00,1.1788
7300.00,1.1764
7299.00,1.1731
7298.00,1.1691
7297.00,1.1649
7296.00,1.1608
7295.00,1.1568
7294.00,1.1524
7293.00,1.1469
7292.00,1.1408
7291.00,1.1349
7290.00,1.1290
7289.00,1.1224
7288.00,1.1145
7287.00,1.1059
7286.00,1.0975
7285.00,1.0897
7284.00,1.0818
7283.00,1.0735
7282.00,1.0648
7281.00,1.0563
7280.00,1.0480
7279.00,1.0395
7278.00,1.0302
7277.00,1.0201
7276.00,1.0095
7275.00,0.9988
7274.00,0.9885
7273.00,0.9784
7272.00,0.9685
7271.00,0.9588
7270.00,0.9494
7269.00,0.9402
7268.00,0.9308
7267.00,0.9211
7266.00,0.9114
7265.00,0.9017
7264.00,0.8922
7263.00,0.8828
7262.00,0.8738
7261.00,0.8653
7260.00,0.8573
7259.00,0.8498
7258.00,0.8426
7257.00,0.8355
7256.00,0.8286
7255.00,0.8222
7254.00,0.8162
7253.00,0.8109
7252.00,0.8062
7251.00,0.8021
7250.00,0.7988
7249.00,0.7960
7248.00,0.7937
7247.00,0.7921
7246.00,0.7910
7245.00,0.7905
7244.00,0.7906
7243.00,0.7914
7242.00,0.7929
7241.00,0.7950
7240.00,0.7974
7239.00,0.8002
7238.00,0.8034
7237.00,0.8070
7236.00,0.8111
7235.00,0.8155
7234.00,0.8202
7233.00,0.8252
7232.00,0.8305
7231.00,0.8364
7230.00,0.8428
7229.00,0.8497
7228.00,0.8570
7227.00,0.8645
7226.00,0.8722
7225.00,0.8802
7224.00,0.8883
7223.00,0.8963
7222.00,0.9044
7221.00,0.9126
7220.00,0.9211
7219.00,0.9299
7218.00,0.9390
7217.00,0.9480
7216.00,0.9567
7215.00,0.9651
7214.00,0.9732
7213.00,0.9812
7212.00,0.9890
7211.00,0.9970
7210.00,1.0052
7209.00,1.0137
7208.00,1.0221
7207.00,1.0299
7206.00,1.0374
7205.00,1.0448
7204.00,1.0525
7203.00,1.0603
7202.00,1.0681
7201.00,1.0755
7200.00,1.0822
7199.00,1.0883
7198.00,1.0942
7197.00,1.0999
7196.00,1.1058
7195.00,1.1116
7194.00,1.1172
7193.00,1.1228
7192.00,1.1286
7191.00,1.1345
7190.00,1.1396
7189.00,1.1433
7188.00,1.1459
7187.00,1.1481
7186.00,1.1503
7185.00,1.1523
7184.00,1.1540
7183.00,1.1555
7182.00,1.1570
7181.00,1.1585
7180.00,1.1596
7179.00,1.1606
7178.00,1.1620
7177.00,1.1637
7176.00,1.1652
7175.00,1.1660
7174.00,1.1659
7173.00,1.1650
7172.00,1.1632
7171.00,1.1607
7170.00,1.1574
7169.00,1.1536
7168.00,1.1493
7167.00,1.1450
7166.00,1.1411
7165.00,1.1377
7164.00,1.1342
7163.00,1.1301
7162.00,1.1251
7161.00,1.1196
7160.00,1.1138
7159.00,1.1080
7158.00,1.1018
7157.00,1.0954
7156.00,1.0888
7155.00,1.0822
7154.00,1.0757
7153.00,1.0686
7152.00,1.0608
7151.00,1.0525
7150.00,1.0441
7149.00,1.0358
7148.00,1.0275
7147.00,1.0188
7146.00,1.0101
7145.00,1.0012
7144.00,0.9920
7143.00,0.9823
7142.00,0.9723
7141.00,0.9625
7140.00,0.9530
7139.00,0.9438
7138.00,0.9347
7137.00,0.9256
7136.00,0.9162
7135.00,0.9064
7134.00,0.8966
7133.00,0.8868
7132.00,0.8774
7131.00,0.8682
7130.00,0.8596
7129.00,0.8515
7128.00,0.8442
7127.00,0.8374
7126.00,0.8309
7125.00,0.8244
7124.00,0.8182
7123.00,0.8124
7122.00,0.8074
7121.00,0.8028
7120.00,0.7986
7119.00,0.7946
7118.00,0.7911
7117.00,0.7883
7116.00,0.7863
7115.00,0.7850
7114.00,0.7844
7113.00,0.7844
7112.00,0.7850
7111.00,0.7861
7110.00,0.7877
7109.00,0.7899
7108.00,0.7923
7107.00,0.7952
7106.00,0.7988
7105.00,0.8033
7104.00,0.8087
7103.00,0.8145
7102.00,0.8204
7101.00,0.8264
7100.00,0.8326
7099.00,0.8390
7098.00,0.8456
7097.00,0.8525
7096.00,0.8598
7095.00,0.8678
7094.00,0.8764
7093.00,0.8853
7092.00,0.8941
7091.00,0.9027
7090.00,0.9115
7089.00,0.9207
7088.00,0.9299
7087.00,0.9391
7086.00,0.9482
7085.00,0.9578
7084.00,0.9678
7083.00,0.9777
7082.00,0.9871
7081.00,0.9960
7080.00,1.0045
7079.00,1.0131
7078.00,1.0221
7077.00,1.0316
7076.00,1.0409
7075.00,1.0498
7074.00,1.0582
7073.00,1.0665
7072.00,1.0749
7071.00,1.0830
7070.00,1.0907
7069.00,1.0982
7068.00,1.1058
7067.00,1.1135
7066.00,1.1212
7065.00,1.1285
7064.00,1.1349
7063.00,1.1406
7062.00,1.1460
7061.00,1.1518
7060.00,1.1578
7059.00,1.1629
7058.00,1.1670
7057.00,1.1710
7056.00,1.1753
7055.00,1.1795
7054.00,1.1829
7053.00,1.1852
7052.00,1.1875
7051.00,1.1903
7050.00,1.1932
7049.00,1.1955
7048.00,1.1968
7047.00,1.1976
7046.00,1.1985
7045.00,1.1998
7044.00,1.2010
7043.00,1.2014
7042.00,1.2005
7041.00,1.1984
7040.00,1.1958
7039.00,1.1931
7038.00,1.1904
7037.00,1.1877
7036.00,1.1849
7035.00,1.1820
7034.00,1.1787
7033.00,1.1749
7032.00,1.1707
7031.00,1.1663
7030.00,1.1615
7029.00,1.1563
7028.00,1.1507
7027.00,1.1451
7026.00,1.1392
7025.00,1.1325
7024.00,1.1246
7023.00,1.1157
7022.00,1.1066
7021.00,1.0975
7020.00,1.0883
7019.00,1.0790
7018.00,1.0696
7017.00,1.0605
7016.00,1.0512
7015.00,1.0417
7014.00,1.0320
7013.00,1.0222
7012.00,1.0121
7011.00,1.0015
7010.00,0.9905
7009.00,0.9792
7008.00,0.9679
7007.00,0.9568
7006.00,0.9460
7005.00,0.9355
7004.00,0.9255
7003.00,0.9159
7002.00,0.9067
7001.00,0.8976
7000.00,0.8884
6999.00,0.8790
6998.00,0.8695
6997.00,0.8602
6996.00,0.8513
6995.00,0.8431
6994.00,0.8357
6993.00,0.8290
6992.00,0.8228
6991.00,0.8170
6990.00,0.8116
6989.00,0.8067
6988.00,0.8022
6987.00,0.7981
6986.00,0.7946
6985.00,0.7919
6984.00,0.7901
6983.00,0.7891
6982.00,0.7887
6981.00,0.7886
6980.00,0.7890
6979.00,0.7898
6978.00,0.7913
6977.00,0.7934
6976.00,0.7962
6975.00,0.7995
6974.00,0.8035
6973.00,0.8080
6972.00,0.8131
6971.00,0.8185
6970.00,0.8243
6969.00,0.8306
6968.00,0.8373
6967.00,0.8443
6966.00,0.8515
6965.00,0.8591
6964.00,0.8670
6963.00,0.8749
6962.00,0.8832
6961.00,0.8917
6960.00,0.9006
6959.00,0.9095
6958.00,0.9183
6957.00,0.9272
6956.00,0.9363
6955.00,0.9454
6954.00,0.9545
6953.00,0.9636
6952.00,0.9730
6951.00,0.9826
6950.00,0.9921
6949.00,1.0013
6948.00,1.0104
6947.00,1.0194
6946.00,1.0284
6945.00,1.0372
6944.00,1.0459
6943.00,1.0544
6942.00,1.0630
6941.00,1.0714
6940.00,1.0794
6939.00,1.0870
6938.00,1.0943
6937.00,1.1015
6936.00,1.1086
6935.00,1.1157
6934.00,1.1225
6933.00,1.1292
6932.00,1.1357
6931.00,1.1418
6930.00,1.1473
6929.00,1.1524
6928.00,1.1572
6927.00,1.1617
6926.00,1.1659
6925.00,1.1700
6924.00,1.1742
6923.00,1.1784
6922.00,1.1822
6921.00,1.1850
6920.00,1.1868
6919.00,1.1880
6918.00,1.1889
6917.00,1.1897
6916.00,1.1904
6915.00,1.1910
6914.00,1.1913
6913.00,1.1913
6912.00,1.1908
6911.00,1.1899
6910.00,1.1884
6909.00,1.1864
6908.00,1.1844
6907.00,1.1828
6906.00,1.1814
6905.00,1.1796
6904.00,1.1770
6903.00,1.1732
6902.00,1.1686
6901.00,1.1634
6900.00,1.1580
6899.00,1.1528
6898.00,1.1475
6897.00,1.1419
6896.00,1.1361
6895.00,1.1299
6894.00,1.1232
6893.00,1.1156
6892.00,1.1072
6891.00,1.0984
6890.00,1.0897
6889.00,1.0811
6888.00,1.0727
6887.00,1.0643
6886.00,1.0556
6885.00,1.0465
6884.00,1.0369
6883.00,1.0269
6882.00,1.0168
6881.00,1.0067
6880.00,0.9966
6879.00,0.9863
6878.00,0.9759
6877.00,0.9655
6876.00,0.9551
6875.00,0.9447
6874.00,0.9344
6873.00,0.9240
6872.00,0.9137
6871.00,0.9036
6870.00,0.8940
6869.00,0.8846
6868.00,0.8753
6867.00,0.8661
6866.00,0.8571
6865.00,0.8487
6864.00,0.8405
6863.00,0.8325
6862.00,0.8248
6861.00,0.8177
6860.00,0.8113
6859.00,0.8056
6858.00,0.8004
6857.00,0.7959
6856.00,0.7918
6855.00,0.7884
6854.00,0.7855
6853.00,0.7834
6852.00,0.7818
6851.00,0.7808
6850.00,0.7803
6849.00,0.7804
6848.00,0.7811
6847.00,0.7824
6846.00,0.7843
6845.00,0.7869
6844.00,0.7903
6843.00,0.7946
6842.00,0.7996
6841.00,0.8050
6840.00,0.8106
6839.00,0.8164
6838.00,0.8223
6837.00,0.8286
6836.00,0.8354
6835.00,0.8427
6834.00,0.8504
6833.00,0.8584
6832.00,0.8667
6831.00,0.8753
6830.00,0.8841
6829.00,0.8932
6828.00,0.9024
6827.00,0.9118
6826.00,0.9213
6825.00,0.9309
6824.00,0.9405
6823.00,0.9501
6822.00,0.9597
6821.00,0.9694
6820.00,0.9790
6819.00,0.9886
6818.00,0.9985
6817.00,1.0086
6816.00,1.0188
6815.00,1.0285
6814.00,1.0380
6813.00,1.0475
6812.00,1.0569
6811.00,1.0660
6810.00,1.0747
6809.00,1.0831
6808.00,1.0912
6807.00,1.0993
6806.00,1.1072
6805.00,1.1149
6804.00,1.1225
6803.00,1.1298
6802.00,1.1372
6801.00,1.1445
6800.00,1.1514
6799.00,1.1578
6798.00,1.1636
6797.00,1.1691
6796.00,1.1741
6795.00,1.1787
6794.00,1.1828
6793.00,1.1867
6792.00,1.1905
6791.00,1.1942
6790.00,1.1979
6789.00,1.2015
6788.00,1.2047
6787.00,1.2073
6786.00,1.2092
6785.00,1.2111
6784.00,1.2129
6783.00,1.2144
6782.00,1.2153
6781.00,1.2155
6780.00,1.2156
6779.00,1.2153
6778.00,1.2146
6777.00,1.2129
6776.00,1.2105
6775.00,1.2077
6774.00,1.2048
6773.00,1.2019
6772.00,1.1990
6771.00,1.1958
6770.00,1.1921
6769.00,1.1876
6768.00,1.1822
6767.00,1.1763
6766.00,1.1704
6765.00,1.1643
6764.00,1.1577
6763.00,1.1504
6762.00,1.1430
6761.00,1.1356
6760.00,1.1281
6759.00,1.1198
6758.00,1.1106
6757.00,1.1012
6756.00,1.0917
6755.00,1.0822
6754.00,1.0723
6753.00,1.0621
6752.00,1.0518
6751.00,1.0414
6750.00,1.0308
6749.00,1.0196
6748.00,1.0082
6747.00,0.9968
6746.00,0.9855
6745.00,0.9744
6744.00,0.9633
6743.00,0.9524
6742.00,0.9418
6741.00,0.9312
6740.00,0.9206
6739.00,0.9099
6738.00,0.8994
6737.00,0.8893
6736.00,0.8795
6735.00,0.8698
6734.00,0.8604
6733.00,0.8513
6732.00,0.8427
6731.00,0.8345
6730.00,0.8269
6729.00,0.8198
6728.00,0.8134
6727.00,0.8076
6726.00,0.8026
6725.00,0.7981
6724.00,0.7940
6723.00,0.7904
6722.00,0.7874
6721.00,0.7852
6720.00,0.7837
6719.00,0.7827
6718.00,0.7825
6717.00,0.7830
6716.00,0.7842
6715.00,0.7860
6714.00,0.7883
6713.00,0.7912
6712.00,0.7946
6711.00,0.7986
6710.00,0.8031
6709.00,0.8082
6708.00,0.8138
6707.00,0.8198
6706.00,0.8262
6705.00,0.8331
6704.00,0.8405
6703.00,0.8484
6702.00,0.8567
6701.00,0.8651
6700.00,0.8737
6699.00,0.8824
6698.00,0.8916
6697.00,0.9011
6696.00,0.9107
6695.00,0.9204
6694.00,0.9304
6693.00,0.9404
6692.00,0.9504
6691.00,0.9599
6690.00,0.9692
6689.00,0.9784
6688.00,0.9877
6687.00,0.9970
6686.00,1.0066
6685.00,1.0164
6684.00,1.0262
6683.00,1.0359
6682.00,1.0454
6681.00,1.0547
6680.00,1.0639
6679.00,1.0728
6678.00,1.0812
6677.00,1.0892
6676.00,1.0970
6675.00,1.1045
6674.00,1.1118
6673.00,1.1188
6672.00,1.1258
6671.00,1.1328
6670.00,1.1399
6669.00,1.1468
6668.00,1.1534
6667.00,1.1596
6666.00,1.1654
6665.00,1.1705
6664.00,1.1749
6663.00,1.1787
6662.00,1.1824
6661.00,1.1860
6660.00,1.1896
6659.00,1.1930
6658.00,1.1961
6657.00,1.1986
6656.00,1.2007
6655.00,1.2026
6654.00,1.2045
6653.00,1.2061
6652.00,1.2071
6651.00,1.2076
6650.00,1.2079
6649.00,1.2080
6648.00,1.2073
6647.00,1.2053
6646.00,1.2024
6645.00,1.1990
6644.00,1.1957
6643.00,1.1922
6642.00,1.1886
6641.00,1.1849
6640.00,1.1813
6639.00,1.1778
6638.00,1.1741
6637.00,1.1698
6636.00,1.1645
6635.00,1.1584
6634.00,1.1521
6633.00,1.1459
6632.00,1.1394
6631.00,1.1325
6630.00,1.1253
6629.00,1.1179
6628.00,1.1101
6627.00,1.1018
6626.00,1.0930
6625.00,1.0839
6624.00,1.0746
6623.00,1.0651
6622.00,1.0553
6621.00,1.0453
6620.00,1.0349
6619.00,1.0243
6618.00,1.0136
6617.00,1.0028
6616.00,0.9921
6615.00,0.9814
6614.00,0.9706
6613.00,0.9598
6612.00,0.9490
6611.00,0.9382
6610.00,0.9274
6609.00,0.9168
6608.00,0.9063
6607.00,0.8960
6606.00,0.8858
6605.00,0.8758
6604.00,0.8660
6603.00,0.8564
6602.00,0.8472
6601.00,0.8384
6600.00,0.8301
6599.00,0.8223
6598.00,0.8150
6597.00,0.8083
6596.00,0.8020
6595.00,0.7963
6594.00,0.7913
6593.00,0.7869
6592.00,0.7832
6591.00,0.7803
6590.00,0.7780
6589.00,0.7765
6588.00,0.7754
6587.00,0.7750
6586.00,0.7752
6585.00,0.7761
6584.00,0.7774
6583.00,0.7793
6582.00,0.7819
6581.00,0.7853
6580.00,0.7893
6579.00,0.7938
6578.00,0.7989
6577.00,0.8048
6576.00,0.8113
6575.00,0.8183
6574.00,0.8256
6573.00,0.8332
6572.00,0.8411
6571.00,0.8493
6570.00,0.8576
6569.00,0.8663
6568.00,0.8755
6567.00,0.8850
6566.00,0.8948
6565.00,0.9048
6564.00,0.9149
6563.00,0.9252
6562.00,0.9353
6561.00,0.9454
6560.00,0.9553
6559.00,0.9653
6558.00,0.9753
6557.00,0.9854
6556.00,0.9956
6555.00,1.0060
6554.00,1.0166
6553.00,1.0271
6552.00,1.0373
6551.00,1.0472
6550.00,1.0569
6549.00,1.0666
6548.00,1.0760
6547.00,1.0851
6546.00,1.0940
6545.00,1.1027
6544.00,1.1112
6543.00,1.1195
6542.00,1.1277
6541.00,1.1356
6540.00,1.1433
6539.00,1.1512
6538.00,1.1592
6537.00,1.1671
6536.00,1.1742
6535.00,1.1805
6534.00,1.1862
6533.00,1.1918
6532.00,1.1971
6531.00,1.2018
6530.00,1.2061
6529.00,1.2105
6528.00,1.2147
6527.00,1.2185
6526.00,1.2218
6525.00,1.2248
6524.00,1.2275
6523.00,1.2301
6522.00,1.2325
6521.00,1.2347
6520.00,1.2362
6519.00,1.2369
6518.00,1.2369
6517.00,1.2365
6516.00,1.2356
6515.00,1.2343
6514.00,1.2326
6513.00,1.2308
6512.00,1.2290
6511.00,1.2270
6510.00,1.2244
6509.00,1.2212
6508.00,1.2174
6507.00,1.2130
6506.00,1.2083
6505.00,1.2033
6504.00,1.1979
6503.00,1.1920
6502.00,1.1857
6501.00,1.1790
6500.00,1.1719
6499.00,1.1640
6498.00,1.1553
6497.00,1.1463
6496.00,1.1372
6495.00,1.1283
6494.00,1.1195
6493.00,1.1106
6492.00,1.1011
6491.00,1.0910
6490.00,1.0804
6489.00,1.0695
6488.00,1.0582
6487.00,1.0468
6486.00,1.0352
6485.00,1.0237
6484.00,1.0122
6483.00,1.0004
6482.00,0.9885
6481.00,0.9767
6480.00,0.9649
6479.00,0.9531
6478.00,0.9414
6477.00,0.9300
6476.00,0.9186
6475.00,0.9073
6474.00,0.8960
6473.00,0.8849
6472.00,0.8743
6471.00,0.8642
6470.00,0.8545
6469.00,0.8454
6468.00,0.8367
6467.00,0.8285
6466.00,0.8208
6465.00,0.8136
6464.00,0.8070
6463.00,0.8009
6462.00,0.7955
6461.00,0.7908
6460.00,0.7868
6459.00,0.7835
6458.00,0.7810
6457.00,0.7794
6456.00,0.7785
6455.00,0.7783
6454.00,0.7789
6453.00,0.7801
6452.00,0.7820
6451.00,0.7843
6450.00,0.7873
6449.00,0.7909
6448.00,0.7952
6447.00,0.8001
6446.00,0.8056
6445.00,0.8117
6444.00,0.8182
6443.00,0.8252
6442.00,0.8327
6441.00,0.8405
6440.00,0.8487
6439.00,0.8572
6438.00,0.8660
6437.00,0.8751
6436.00,0.8846
6435.00,0.8944
6434.00,0.9043
6433.00,0.9144
6432.00,0.9246
6431.00,0.9348
6430.00,0.9451
6429.00,0.9554
6428.00,0.9657
6427.00,0.9758
6426.00,0.9859
6425.00,0.9960
6424.00,1.0062
6423.00,1.0163
6422.00,1.0265
6421.00,1.0368
6420.00,1.0471
6419.00,1.0573
6418.00,1.0671
6417.00,1.0764
6416.00,1.0851
6415.00,1.0935
6414.00,1.1016
6413.00,1.1096
6412.00,1.1174
6411.00,1.1252
6410.00,1.1330
6409.00,1.1409
6408.00,1.1489
6407.00,1.1564
6406.00,1.1636
6405.00,1.1704
6404.00,1.1769
6403.00,1.1832
6402.00,1.1889
6401.00,1.1940
6400.00,1.1985
6399.00,1.2024
6398.00,1.2059
6397.00,1.2089
6396.00,1.2115
6395.00,1.2140
6394.00,1.2167
6393.00,1.2197
6392.00,1.2225
6391.00,1.2249
6390.00,1.2266
6389.00,1.2276
6388.00,1.2278
6387.00,1.2277
6386.00,1.2271
6385.00,1.2264
6384.00,1.2255
6383.00,1.2242
6382.00,1.2225
6381.00,1.2202
6380.00,1.2174
6379.00,1.2141
6378.00,1.2104
6377.00,1.2064
6376.00,1.2021
6375.00,1.1975
6374.00,1.1927
6373.00,1.1873
6372.00,1.1813
6371.00,1.1750
6370.00,1.1687
6369.00,1.1622
6368.00,1.1551
6367.00,1.1475
6366.00,1.1396
6365.00,1.1317
6364.00,1.1235
6363.00,1.1148
6362.00,1.1055
6361.00,1.0960
6360.00,1.0861
6359.00,1.0758
6358.00,1.0651
6357.00,1.0541
6356.00,1.0432
6355.00,1.0322
6354.00,1.0212
6353.00,1.0100
6352.00,0.9985
6351.00,0.9868
6350.00,0.9750
6349.00,0.9631
6348.00,0.9514
6347.00,0.9396
6346.00,0.9280
6345.00,0.9165
6344.00,0.9052
6343.00,0.8941
6342.00,0.8834
6341.00,0.8730
6340.00,0.8627
6339.00,0.8529
6338.00,0.8434
6337.00,0.8345
6336.00,0.8260
6335.00,0.8180
6334.00,0.8107
6333.00,0.8041
6332.00,0.7980
6331.00,0.7923
6330.00,0.7871
6329.00,0.7827
6328.00,0.7790
6327.00,0.7760
6326.00,0.7738
6325.00,0.7724
6324.00,0.7719
6323.00,0.7722
6322.00,0.7731
6321.00,0.7747
6320.00,0.7770
6319.00,0.7799
6318.00,0.7835
6317.00,0.7878
6316.00,0.7928
6315.00,0.7983
6314.00,0.8045
6313.00,0.8114
6312.00,0.8187
6311.00,0.8264
6310.00,0.8345
6309.00,0.8429
6308.00,0.8518
6307.00,0.8610
6306.00,0.8706
6305.00,0.8806
6304.00,0.8907
6303.00,0.9009
6302.00,0.9110
6301.00,0.9212
6300.00,0.9317
6299.00,0.9423
6298.00,0.9530
6297.00,0.9639
6296.00,0.9748
6295.00,0.9859
6294.00,0.9968
6293.00,1.0076
6292.00,1.0181
6291.00,1.0285
6290.00,1.0391
6289.00,1.0498
6288.00,1.0604
6287.00,1.0707
6286.00,1.0809
6285.00,1.0911
6284.00,1.1012
6283.00,1.1109
6282.00,1.1201
6281.00,1.1291
6280.00,1.1382
6279.00,1.1474
6278.00,1.1563
6277.00,1.1646
6276.00,1.1723
6275.00,1.1796
6274.00,1.1866
6273.00,1.1934
6272.00,1.1998
6271.00,1.2058
6270.00,1.2117
6269.00,1.2176
6268.00,1.2234
6267.00,1.2286
6266.00,1.2331
6265.00,1.2372
6264.00,1.2411
6263.00,1.2449
6262.00,1.2483
6261.00,1.2515
6260.00,1.2541
6259.00,1.2562
6258.00,1.2577
6257.00,1.2588
6256.00,1.2594
6255.00,1.2596
6254.00,1.2594
6253.00,1.2588
6252.00,1.2579
6251.00,1.2565
6250.00,1.2546
6249.00,1.2525
6248.00,1.2500
6247.00,1.2471
6246.00,1.2438
6245.00,1.2399
6244.00,1.2352
6243.00,1.2297
6242.00,1.2237
6241.00,1.2179
6240.00,1.2125
6239.00,1.2068
6238.00,1.2005
6237.00,1.1933
6236.00,1.1854
6235.00,1.1767
6234.00,1.1675
6233.00,1.1580
6232.00,1.1484
6231.00,1.1390
6230.00,1.1295
6229.00,1.1196
6228.00,1.1088
6227.00,1.0975
6226.00,1.0857
6225.00,1.0737
6224.00,1.0615
6223.00,1.0491
6222.00,1.0366
6221.00,1.0241
6220.00,1.0117
6219.00,0.9991
6218.00,0.9864
6217.00,0.9737
6216.00,0.9612
6215.00,0.9489
6214.00,0.9366
6213.00,0.9244
6212.00,0.9123
6211.00,0.9003
6210.00,0.8886
6209.00,0.8773
6208.00,0.8663
6207.00,0.8558
6206.00,0.8458
6205.00,0.8364
6204.00,0.8276
6203.00,0.8194
6202.00,0.8117
6201.00,0.8045
6200.00,0.7980
6199.00,0.7921
6198.00,0.7869
6197.00,0.7825
6196.00,0.7789
6195.00,0.7761
6194.00,0.7742
6193.00,0.7733
6192.00,0.7730
6191.00,0.7733
6190.00,0.7743
6189.00,0.7761
6188.00,0.7786
6187.00,0.7819
6186.00,0.7859
6185.00,0.7907
6184.00,0.7961
6183.00,0.8021
6182.00,0.8086
6181.00,0.8156
6180.00,0.8231
6179.00,0.8309
6178.00,0.8393
6177.00,0.8482
6176.00,0.8574
6175.00,0.8670
6174.00,0.8768
6173.00,0.8869
6172.00,0.8970
6171.00,0.9073
6170.00,0.9176
6169.00,0.9282
6168.00,0.9389
6167.00,0.9499
6166.00,0.9610
6165.00,0.9721
6164.00,0.9832
6163.00,0.9942
6162.00,1.0050
6161.00,1.0158
6160.00,1.0264
6159.00,1.0370
6158.00,1.0473
6157.00,1.0574
6156.00,1.0673
6155.00,1.0770
6154.00,1.0867
6153.00,1.0963
6152.00,1.1057
6151.00,1.1147
6150.00,1.1235
6149.00,1.1323
6148.00,1.1409
6147.00,1.1493
6146.00,1.1575
6145.00,1.1654
6144.00,1.1731
6143.00,1.1804
6142.00,1.1872
6141.00,1.1934
6140.00,1.1990
6139.00,1.2043
6138.00,1.2092
6137.00,1.2139
6136.00,1.2185
6135.00,1.2230
6134.00,1.2272
6133.00,1.2311
6132.00,1.2348
6131.00,1.2383
6130.00,1.2416
6129.00,1.2445
6128.00,1.2467
6127.00,1.2484
6126.00,1.2498
6125.00,1.2509
6124.00,1.2513
6123.00,1.2512
6122.00,1.2507
6121.00,1.2502
6120.00,1.2494
6119.00,1.2480
6118.00,1.2463
6117.00,1.2444
6116.00,1.2424
6115.00,1.2400
6114.00,1.2370
6113.00,1.2331
6112.00,1.2287
6111.00,1.2239
6110.00,1.2188
6109.00,1.2135
6108.00,1.2077
6107.00,1.2014
6106.00,1.1942
6105.00,1.1863
6104.00,1.1781
6103.00,1.1698
6102.00,1.1614
6101.00,1.1526
6100.00,1.1433
6099.00,1.1337
6098.00,1.1236
6097.00,1.1131
6096.00,1.1022
6095.00,1.0910
6094.00,1.0798
6093.00,1.0684
6092.00,1.0567
6091.00,1.0444
6090.00,1.0319
6089.00,1.0194
6088.00,1.0070
6087.00,0.9944
6086.00,0.9817
6085.00,0.9688
6084.00,0.9560
6083.00,0.9433
6082.00,0.9308
6081.00,0.9184
6080.00,0.9062
6079.00,0.8942
6078.00,0.8826
6077.00,0.8713
6076.00,0.8605
6075.00,0.8500
6074.00,0.8401
6073.00,0.8307
6072.00,0.8219
6071.00,0.8135
6070.00,0.8058
6069.00,0.7987
6068.00,0.7924
6067.00,0.7869
6066.00,0.7823
6065.00,0.7785
6064.00,0.7754
6063.00,0.7730
6062.00,0.7714
6061.00,0.7706
6060.00,0.7706
6059.00,0.7714
6058.00,0.7731
6057.00,0.7757
6056.00,0.7789
6055.00,0.7828
6054.00,0.7874
6053.00,0.7927
6052.00,0.7987
6051.00,0.8053
6050.00,0.8126
6049.00,0.8207
6048.00,0.8291
6047.00,0.8378
6046.00,0.8468
6045.00,0.8562
6044.00,0.8659
6043.00,0.8760
6042.00,0.8865
6041.00,0.8974
6040.00,0.9087
6039.00,0.9199
6038.00,0.9312
6037.00,0.9425
6036.00,0.9538
6035.00,0.9653
6034.00,0.9769
6033.00,0.9885
6032.00,1.0001
6031.00,1.0117
6030.00,1.0232
6029.00,1.0347
6028.00,1.0462
6027.00,1.0576
6026.00,1.0689
6025.00,1.0801
6024.00,1.0910
6023.00,1.1014
6022.00,1.1114
6021.00,1.1212
6020.00,1.1311
6019.00,1.1410
6018.00,1.1509
6017.00,1.1604
6016.00,1.1696
6015.00,1.1785
6014.00,1.1870
6013.00,1.1952
6012.00,1.2031
6011.00,1.2107
6010.00,1.2179
6009.00,1.2249
6008.00,1.2313
6007.00,1.2373
6006.00,1.2429
6005.00,1.2483
6004.00,1.2535
6003.00,1.2584
6002.00,1.2628
6001.00,1.2669
6000.00,1.2705
5999.00,1.2736
5998.00,1.2761
5997.00,1.2782
5996.00,1.2798
5995.00,1.2811
5994.00,1.2822
5993.00,1.2833
5992.00,1.2840
5991.00,1.2840
5990.00,1.2830
5989.00,1.2813
5988.00,1.2792
5987.00,1.2768
5986.00,1.2740
5985.00,1.2709
5984.00,1.2676
5983.00,1.2640
5982.00,1.2600
5981.00,1.2555
5980.00,1.2506
5979.00,1.2454
5978.00,1.2399
5977.00,1.2339
5976.00,1.2272
5975.00,1.2199
5974.00,1.2121
5973.00,1.2040
5972.00,1.1955
5971.00,1.1866
5970.00,1.1771
5969.00,1.1672
5968.00,1.1570
5967.00,1.1467
5966.00,1.1362
5965.00,1.1254
5964.00,1.1143
5963.00,1.1028
5962.00,1.0907
5961.00,1.0782
5960.00,1.0652
5959.00,1.0520
5958.00,1.0389
5957.00,1.0257
5956.00,1.0126
5955.00,0.9994
5954.00,0.9861
5953.00,0.9730
5952.00,0.9598
5951.00,0.9468
5950.00,0.9339
5949.00,0.9211
5948.00,0.9085
5947.00,0.8961
5946.00,0.8838
5945.00,0.8720
5944.00,0.8606
5943.00,0.8498
5942.00,0.8397
5941.00,0.8303
5940.00,0.8216
5939.00,0.8135
5938.00,0.8061
5937.00,0.7993
5936.00,0.7931
5935.00,0.7877
5934.00,0.7831
5933.00,0.7796
5932.00,0.7769
5931.00,0.7751
5930.00,0.7742
5929.00,0.7741
5928.00,0.7749
5927.00,0.7764
5926.00,0.7787
5925.00,0.7818
5924.00,0.7859
5923.00,0.7907
5922.00,0.7962
5921.00,0.8025
5920.00,0.8094
5919.00,0.8170
5918.00,0.8251
5917.00,0.8337
5916.00,0.8426
5915.00,0.8517
5914.00,0.8613
5913.00,0.8715
5912.00,0.8821
5911.00,0.8930
5910.00,0.9043
5909.00,0.9159
5908.00,0.9279
5907.00,0.9397
5906.00,0.9515
5905.00,0.9633
5904.00,0.9753
5903.00,0.9873
5902.00,0.9993
5901.00,1.0112
5900.00,1.0231
5899.00,1.0350
5898.00,1.0468
5897.00,1.0584
5896.00,1.0700
5895.00,1.0817
5894.00,1.0935
5893.00,1.1053
5892.00,1.1168
5891.00,1.1281
5890.00,1.1388
5889.00,1.1489
5888.00,1.1587
5887.00,1.1682
5886.00,1.1778
5885.00,1.1875
5884.00,1.1970
5883.00,1.2063
5882.00,1.2152
5881.00,1.2236
5880.00,1.2312
5879.00,1.2382
5878.00,1.2450
5877.00,1.2516
5876.00,1.2581
5875.00,1.2643
5874.00,1.2701
5873.00,1.2756
5872.00,1.2808
5871.00,1.2857
5870.00,1.2903
5869.00,1.2947
5868.00,1.2989
5867.00,1.3026
5866.00,1.3055
5865.00,1.3078
5864.00,1.3097
5863.00,1.3112
5862.00,1.3124
5861.00,1.3130
5860.00,1.3128
5859.00,1.3120
5858.00,1.3109
5857.00,1.3093
5856.00,1.3074
5855.00,1.3051
5854.00,1.3023
5853.00,1.2990
5852.00,1.2951
5851.00,1.2906
5850.00,1.2860
5849.00,1.2814
5848.00,1.2767
5847.00,1.2718
5846.00,1.2663
5845.00,1.2602
5844.00,1.2533
5843.00,1.2457
5842.00,1.2374
5841.00,1.2289
5840.00,1.2200
5839.00,1.2107
5838.00,1.2008
5837.00,1.1906
5836.00,1.1799
5835.00,1.1689
5834.00,1.1575
5833.00,1.1458
5832.00,1.1338
5831.00,1.1217
5830.00,1.1094
5829.00,1.0970
5828.00,1.0844
5827.00,1.0715
5826.00,1.0582
5825.00,1.0448
5824.00,1.0311
5823.00,1.0174
5822.00,1.0037
5821.00,0.9901
5820.00,0.9766
5819.00,0.9631
5818.00,0.9496
5817.00,0.9362
5816.00,0.9232
5815.00,0.9106
5814.00,0.8985
5813.00,0.8867
5812.00,0.8754
5811.00,0.8644
5810.00,0.8540
5809.00,0.8442
5808.00,0.8350
5807.00,0.8266
5806.00,0.8189
5805.00,0.8119
5804.00,0.8055
5803.00,0.7998
5802.00,0.7950
5801.00,0.7910
5800.00,0.7880
5799.00,0.7859
5798.00,0.7847
5797.00,0.7843
5796.00,0.7848
5795.00,0.7861
5794.00,0.7883
5793.00,0.7913
5792.00,0.7952
5791.00,0.7998
5790.00,0.8052
5789.00,0.8113
5788.00,0.8180
5787.00,0.8253
5786.00,0.8332
5785.00,0.8417
5784.00,0.8506
5783.00,0.8601
5782.00,0.8700
5781.00,0.8804
5780.00,0.8911
5779.00,0.9020
5778.00,0.9133
5777.00,0.9250
5776.00,0.9370
5775.00,0.9491
5774.00,0.9613
5773.00,0.9735
5772.00,0.9857
5771.00,0.9977
5770.00,1.0097
5769.00,1.0218
5768.00,1.0341
5767.00,1.0467
5766.00,1.0593
5765.00,1.0717
5764.00,1.0839
5763.00,1.0958
5762.00,1.1075
5761.00,1.1189
5760.00,1.1302
5759.00,1.1413
5758.00,1.1524
5757.00,1.1633
5756.00,1.1741
5755.00,1.1847
5754.00,1.1949
5753.00,1.2048
5752.00,1.2142
5751.00,1.2232
5750.00,1.2317
5749.00,1.2399
5748.00,1.2478
5747.00,1.2556
5746.00,1.2632
5745.00,1.2708
5744.00,1.2780
5743.00,1.2846
5742.00,1.2904
5741.00,1.2957
5740.00,1.3005
5739.00,1.3050
5738.00,1.3093
5737.00,1.3133
5736.00,1.3168
5735.00,1.3198
5734.00,1.3223
5733.00,1.3242
5732.00,1.3258
5731.00,1.3270
5730.00,1.3280
5729.00,1.3286
5728.00,1.3289
5727.00,1.3288
5726.00,1.3281
5725.00,1.3268
5724.00,1.3250
5723.00,1.3226
5722.00,1.3196
5721.00,1.3161
5720.00,1.3122
5719.00,1.3080
5718.00,1.3036
5717.00,1.2990
5716.00,1.2938
5715.00,1.2880
5714.00,1.2817
5713.00,1.2749
5712.00,1.2675
5711.00,1.2595
5710.00,1.2509
5709.00,1.2420
5708.00,1.2327
5707.00,1.2230
5706.00,1.2129
5705.00,1.2023
5704.00,1.1914
5703.00,1.1801
5702.00,1.1686
5701.00,1.1566
5700.00,1.1441
5699.00,1.1312
5698.00,1.1180
5697.00,1.1046
5696.00,1.0909
5695.00,1.0769
5694.00,1.0626
5693.00,1.0481
5692.00,1.0336
5691.00,1.0190
5690.00,1.0043
5689.00,0.9897
5688.00,0.9751
5687.00,0.9607
5686.00,0.9464
5685.00,0.9323
5684.00,0.9185
5683.00,0.9050
5682.00,0.8918
5681.00,0.8792
5680.00,0.8671
5679.00,0.8556
5678.00,0.8449
5677.00,0.8348
5676.00,0.8254
5675.00,0.8165
5674.00,0.8082
5673.00,0.8008
5672.00,0.7943
5671.00,0.7888
5670.00,0.7843
5669.00,0.7807
5668.00,0.7781
5667.00,0.7762
5666.00,0.7753
5665.00,0.7752
5664.00,0.7761
5663.00,0.7778
5662.00,0.7805
5661.00,0.7841
5660.00,0.7885
5659.00,0.7939
5658.00,0.8001
5657.00,0.8071
5656.00,0.8149
5655.00,0.8233
5654.00,0.8322
5653.00,0.8415
5652.00,0.8512
5651.00,0.8613
5650.00,0.8718
5649.00,0.8828
5648.00,0.8941
5647.00,0.9056
5646.00,0.9175
5645.00,0.9297
5644.00,0.9421
5643.00,0.9548
5642.00,0.9676
5641.00,0.9804
5640.00,0.9932
5639.00,1.0057
5638.00,1.0181
5637.00,1.0304
5636.00,1.0428
5635.00,1.0553
5634.00,1.0679
5633.00,1.0806
5632.00,1.0930
5631.00,1.1051
5630.00,1.1170
5629.00,1.1286
5628.00,1.1401
5627.00,1.1513
5626.00,1.1624
5625.00,1.1736
5624.00,1.1845
5623.00,1.1950
5622.00,1.2051
5621.00,1.2148
5620.00,1.2242
5619.00,1.2332
5618.00,1.2419
5617.00,1.2504
5616.00,1.2588
5615.00,1.2671
5614.00,1.2751
5613.00,1.2828
5612.00,1.2898
5611.00,1.2963
5610.00,1.3021
5609.00,1.3075
5608.00,1.3124
5607.00,1.3167
5606.00,1.3206
5605.00,1.3243
5604.00,1.3276
5603.00,1.3306
5602.00,1.3332
5601.00,1.3355
5600.00,1.3375
5599.00,1.3391
5598.00,1.3400
5597.00,1.3404
5596.00,1.3402
5595.00,1.3396
5594.00,1.3385
5593.00,1.3370
5592.00,1.3350
5591.00,1.3325
5590.00,1.3295
5589.00,1.3261
5588.00,1.3223
5587.00,1.3179
5586.00,1.3130
5585.00,1.3075
5584.00,1.3017
5583.00,1.2955
5582.00,1.2891
5581.00,1.2821
5580.00,1.2746
5579.00,1.2664
5578.00,1.2575
5577.00,1.2480
5576.00,1.2383
5575.00,1.2284
5574.00,1.2182
5573.00,1.2077
5572.00,1.1966
5571.00,1.1850
5570.00,1.1727
5569.00,1.1599
5568.00,1.1466
5567.00,1.1330
5566.00,1.1190
5565.00,1.1049
5564.00,1.0906
5563.00,1.0761
5562.00,1.0614
5561.00,1.0466
5560.00,1.0318
5559.00,1.0168
5558.00,1.0018
5557.00,0.9868
5556.00,0.9718
5555.00,0.9567
5554.00,0.9418
5553.00,0.9271
5552.00,0.9128
5551.00,0.8988
5550.00,0.8854
5549.00,0.8725
5548.00,0.8601
5547.00,0.8483
5546.00,0.8372
5545.00,0.8268
5544.00,0.8171
5543.00,0.8083
5542.00,0.8003
5541.00,0.7931
5540.00,0.7869
5539.00,0.7816
5538.00,0.7773
5537.00,0.7739
5536.00,0.7714
5535.00,0.7699
5534.00,0.7693
5533.00,0.7698
5532.00,0.7712
5531.00,0.7736
5530.00,0.7771
5529.00,0.7816
5528.00,0.7871
5527.00,0.7933
5526.00,0.8003
5525.00,0.8080
5524.00,0.8162
5523.00,0.8249
5522.00,0.8341
5521.00,0.8438
5520.00,0.8540
5519.00,0.8646
5518.00,0.8756
5517.00,0.8870
5516.00,0.8989
5515.00,0.9111
5514.00,0.9234
5513.00,0.9357
5512.00,0.9480
5511.00,0.9603
5510.00,0.9726
5509.00,0.9851
5508.00,0.9977
5507.00,1.0104
5506.00,1.0233
5505.00,1.0360
5504.00,1.0484
5503.00,1.0605
5502.00,1.0723
5501.00,1.0840
5500.00,1.0957
5499.00,1.1076
5498.00,1.1196
5497.00,1.1316
5496.00,1.1433
5495.00,1.1544
5494.00,1.1650
5493.00,1.1753
5492.00,1.1854
5491.00,1.1954
5490.00,1.2053
5489.00,1.2150
5488.00,1.2245
5487.00,1.2336
5486.00,1.2424
5485.00,1.2509
5484.00,1.2591
5483.00,1.2670
5482.00,1.2747
5481.00,1.2819
5480.00,1.2889
5479.00,1.2955
5478.00,1.3019
5477.00,1.3079
5476.00,1.3137
5475.00,1.3189
5474.00,1.3235
5473.00,1.3277
5472.00,1.3315
5471.00,1.3348
5470.00,1.3379
5469.00,1.3406
5468.00,1.3430
5467.00,1.3450
5466.00,1.3463
5465.00,1.3469
5464.00,1.3469
5463.00,1.3462
5462.00,1.3451
5461.00,1.3436
5460.00,1.3418
5459.00,1.3394
5458.00,1.3367
5457.00,1.3336
5456.00,1.3301
5455.00,1.3261
5454.00,1.3217
5453.00,1.3169
5452.00,1.3116
5451.00,1.3056
5450.00,1.2988
5449.00,1.2915
5448.00,1.2838
5447.00,1.2755
5446.00,1.2665
5445.00,1.2570
5444.00,1.2470
5443.00,1.2367
5442.00,1.2259
5441.00,1.2146
5440.00,1.2028
5439.00,1.1906
5438.00,1.1781
5437.00,1.1653
5436.00,1.1522
5435.00,1.1386
5434.00,1.1245
5433.00,1.1101
5432.00,1.0954
5431.00,1.0804
5430.00,1.0651
5429.00,1.0493
5428.00,1.0331
5427.00,1.0168
5426.00,1.0007
5425.00,0.9850
5424.00,0.9696
5423.00,0.9545
5422.00,0.9397
5421.00,0.9253
5420.00,0.9111
5419.00,0.8972
5418.00,0.8838
5417.00,0.8710
5416.00,0.8588
5415.00,0.8470
5414.00,0.8355
5413.00,0.8244
5412.00,0.8139
5411.00,0.8044
5410.00,0.7958
5409.00,0.7883
5408.00,0.7820
5407.00,0.7769
5406.00,0.7729
5405.00,0.7700
5404.00,0.7682
5403.00,0.7674
5402.00,0.7677
5401.00,0.7692
5400.00,0.7718
5399.00,0.7754
5398.00,0.7798
5397.00,0.7851
5396.00,0.7913
5395.00,0.7983
5394.00,0.8060
5393.00,0.8145
5392.00,0.8237
5391.00,0.8335
5390.00,0.8438
5389.00,0.8546
5388.00,0.8659
5387.00,0.8778
5386.00,0.8901
5385.00,0.9027
5384.00,0.9156
5383.00,0.9288
5382.00,0.9423
5381.00,0.9560
5380.00,0.9698
5379.00,0.9837
5378.00,0.9977
5377.00,1.0116
5376.00,1.0256
5375.00,1.0396
5374.00,1.0536
5373.00,1.0674
5372.00,1.0810
5371.00,1.0945
5370.00,1.1080
5369.00,1.1215
5368.00,1.1348
5367.00,1.1476
5366.00,1.1601
5365.00,1.1720
5364.00,1.1837
5363.00,1.1953
5362.00,1.2070
5361.00,1.2188
5360.00,1.2303
5359.00,1.2414
5358.00,1.2521
5357.00,1.2622
5356.00,1.2718
5355.00,1.2812
5354.00,1.2903
5353.00,1.2992
5352.00,1.3075
5351.00,1.3154
5350.00,1.3229
5349.00,1.3300
5348.00,1.3367
5347.00,1.3431
5346.00,1.3489
5345.00,1.3540
5344.00,1.3583
5343.00,1.3621
5342.00,1.3657
5341.00,1.3692
5340.00,1.3726
5339.00,1.3757
5338.00,1.3783
5337.00,1.3799
5336.00,1.3807
5335.00,1.3809
5334.00,1.3808
5333.00,1.3804
5332.00,1.3798
5331.00,1.3791
5330.00,1.3780
5329.00,1.3763
5328.00,1.3737
5327.00,1.3703
5326.00,1.3664
5325.00,1.3619
5324.00,1.3571
5323.00,1.3520
5322.00,1.3467
5321.00,1.3409
5320.00,1.3345
5319.00,1.3273
5318.00,1.3193
5317.00,1.3108
5316.00,1.3019
5315.00,1.2926
5314.00,1.2830
5313.00,1.2731
5312.00,1.2625
5311.00,1.2513
5310.00,1.2395
5309.00,1.2273
5308.00,1.2146
5307.00,1.2015
5306.00,1.1882
5305.00,1.1745
5304.00,1.1604
5303.00,1.1460
5302.00,1.1311
5301.00,1.1158
5300.00,1.1001
5299.00,1.0841
5298.00,1.0680
5297.00,1.0517
5296.00,1.0355
5295.00,1.0192
5294.00,1.0031
5293.00,0.9871
5292.00,0.9711
5291.00,0.9553
5290.00,0.9396
5289.00,0.9240
5288.00,0.9088
5287.00,0.8942
5286.00,0.8801
5285.00,0.8667
5284.00,0.8539
5283.00,0.8418
5282.00,0.8306
5281.00,0.8200
5280.00,0.8103
5279.00,0.8015
5278.00,0.7936
5277.00,0.7868
5276.00,0.7811
5275.00,0.7765
5274.00,0.7731
5273.00,0.7709
5272.00,0.7698
5271.00,0.7698
5270.00,0.7708
5269.00,0.7728
5268.00,0.7758
5267.00,0.7798
5266.00,0.7848
5265.00,0.7908
5264.00,0.7975
5263.00,0.8051
5262.00,0.8134
5261.00,0.8224
5260.00,0.8321
5259.00,0.8424
5258.00,0.8533
5257.00,0.8649
5256.00,0.8770
5255.00,0.8897
5254.00,0.9028
5253.00,0.9161
5252.00,0.9297
5251.00,0.9434
5250.00,0.9572
5249.00,0.9711
5248.00,0.9851
5247.00,0.9992
5246.00,1.0133
5245.00,1.0274
5244.00,1.0416
5243.00,1.0558
5242.00,1.0701
5241.00,1.0843
5240.00,1.0985
5239.00,1.1126
5238.00,1.1265
5237.00,1.1401
5236.00,1.1534
5235.00,1.1663
5234.00,1.1788
5233.00,1.1912
5232.00,1.2035
5231.00,1.2157
5230.00,1.2276
5229.00,1.2393
5228.00,1.2504
5227.00,1.2611
5226.00,1.2714
5225.00,1.2815
5224.00,1.2912
5223.00,1.3005
5222.00,1.3094
5221.00,1.3178
5220.00,1.3257
5219.00,1.3334
5218.00,1.3411
5217.00,1.3487
5216.00,1.3559
5215.00,1.3624
5214.00,1.3684
5213.00,1.3740
5212.00,1.3791
5211.00,1.3837
5210.00,1.3876
5209.00,1.3910
5208.00,1.3940
5207.00,1.3965
5206.00,1.3986
5205.00,1.4003
5204.00,1.4016
5203.00,1.4022
5202.00,1.4023
5201.00,1.4020
5200.00,1.4015
5199.00,1.4006
5198.00,1.3992
5197.00,1.3973
5196.00,1.3949
5195.00,1.3919
5194.00,1.3884
5193.00,1.3842
5192.00,1.3793
5191.00,1.3739
5190.00,1.3681
5189.00,1.3619
5188.00,1.3553
5187.00,1.3482
5186.00,1.3406
5185.00,1.3323
5184.00,1.3234
5183.00,1.3139
5182.00,1.3039
5181.00,1.2936
5180.00,1.2830
5179.00,1.2718
5178.00,1.2601
5177.00,1.2477
5176.00,1.2346
5175.00,1.2210
5174.00,1.2069
5173.00,1.1925
5172.00,1.1777
5171.00,1.1626
5170.00,1.1471
5169.00,1.1312
5168.00,1.1151
5167.00,1.0988
5166.00,1.0823
5165.00,1.0656
5164.00,1.0486
5163.00,1.0315
5162.00,1.0144
5161.00,0.9975
5160.00,0.9808
5159.00,0.9641
5158.00,0.9477
5157.00,0.9315
5156.00,0.9157
5155.00,0.9003
5154.00,0.8855
5153.00,0.8713
5152.00,0.8579
5151.00,0.8452
5150.00,0.8334
5149.00,0.8225
5148.00,0.8126
5147.00,0.8037
5146.00,0.7959
5145.00,0.7893
5144.00,0.7838
5143.00,0.7793
5142.00,0.7761
5141.00,0.7740
5140.00,0.7732
5139.00,0.7736
5138.00,0.7751
5137.00,0.7779
5136.00,0.7817
5135.00,0.7865
5134.00,0.7924
5133.00,0.7991
5132.00,0.8068
5131.00,0.8153
5130.00,0.8248
5129.00,0.8351
5128.00,0.8462
5127.00,0.8579
5126.00,0.8702
5125.00,0.8830
5124.00,0.8962
5123.00,0.9098
5122.00,0.9237
5121.00,0.9379
5120.00,0.9524
5119.00,0.9670
5118.00,0.9817
5117.00,0.9965
5116.00,1.0114
5115.00,1.0264
5114.00,1.0415
5113.00,1.0565
5112.00,1.0714
5111.00,1.0861
5110.00,1.1007
5109.00,1.1151
5108.00,1.1296
5107.00,1.1441
5106.00,1.1586
5105.00,1.1728
5104.00,1.1867
5103.00,1.2002
5102.00,1.2132
5101.00,1.2261
5100.00,1.2388
5099.00,1.2512
5098.00,1.2633
5097.00,1.2751
5096.00,1.2865
5095.00,1.2975
5094.00,1.3083
5093.00,1.3189
5092.00,1.3290
5091.00,1.3386
5090.00,1.3475
5089.00,1.3557
5088.00,1.3634
5087.00,1.3707
5086.00,1.3778
5085.00,1.3847
5084.00,1.3913
5083.00,1.3975
5082.00,1.4031
5081.00,1.4082
5080.00,1.4127
5079.00,1.4169
5078.00,1.4206
5077.00,1.4240
5076.00,1.4268
5075.00,1.4290
5074.00,1.4305
5073.00,1.4313
5072.00,1.4317
5071.00,1.4317
5070.00,1.4315
5069.00,1.4310
5068.00,1.4301
5067.00,1.4286
5066.00,1.4263
5065.00,1.4233
5064.00,1.4198
5063.00,1.4159
5062.00,1.4117
5061.00,1.4071
5060.00,1.4021
5059.00,1.3963
5058.00,1.3897
5057.00,1.3823
5056.00,1.3745
5055.00,1.3663
5054.00,1.3579
5053.00,1.3491
5052.00,1.3399
5051.00,1.3300
5050.00,1.3194
5049.00,1.3082
5048.00,1.2965
5047.00,1.2844
5046.00,1.2719
5045.00,1.2588
5044.00,1.2452
5043.00,1.2309
5042.00,1.2161
5041.00,1.2008
5040.00,1.1850
5039.00,1.1687
5038.00,1.1519
5037.00,1.1348
5036.00,1.1176
5035.00,1.1004
5034.00,1.0829
5033.00,1.0652
5032.00,1.0473
5031.00,1.0291
5030.00,1.0109
5029.00,0.9928
5028.00,0.9749
5027.00,0.9572
5026.00,0.9399
5025.00,0.9230
5024.00,0.9065
5023.00,0.8906
5022.00,0.8754
5021.00,0.8609
5020.00,0.8471
5019.00,0.8341
5018.00,0.8219
5017.00,0.8108
5016.00,0.8006
5015.00,0.7916
5014.00,0.7838
5013.00,0.7772
5012.00,0.7717
5011.00,0.7675
5010.00,0.7646
5009.00,0.7630
5008.00,0.7626
5007.00,0.7636
5006.00,0.7658
5005.00,0.7693
5004.00,0.7740
5003.00,0.7799
5002.00,0.7869
5001.00,0.7950
5000.00,0.8040
4999.00,0.8138
4998.00,0.8245
4997.00,0.8360
4996.00,0.8482
4995.00,0.8609
4994.00,0.8742
4993.00,0.8880
4992.00,0.9021
4991.00,0.9166
4990.00,0.9314
4989.00,0.9465
4988.00,0.9619
4987.00,0.9775
4986.00,0.9933
4985.00,1.0091
4984.00,1.0248
4983.00,1.0405
4982.00,1.0562
4981.00,1.0719
4980.00,1.0877
4979.00,1.1034
4978.00,1.1190
4977.00,1.1345
4976.00,1.1497
4975.00,1.1646
4974.00,1.1794
4973.00,1.1939
4972.00,1.2082
4971.00,1.2220
4970.00,1.2356
4969.00,1.2488
4968.00,1.2618
4967.00,1.2744
4966.00,1.2867
4965.00,1.2986
4964.00,1.3101
4963.00,1.3213
4962.00,1.3322
4961.00,1.3428
4960.00,1.3532
4959.00,1.3632
4958.00,1.3726
4957.00,1.3814
4956.00,1.3897
4955.00,1.3976
4954.00,1.4050
4953.00,1.4120
4952.00,1.4188
4951.00,1.4251
4950.00,1.4308
4949.00,1.4358
4948.00,1.4402
4947.00,1.4441
4946.00,1.4475
4945.00,1.4504
4944.00,1.4528
4943.00,1.4547
4942.00,1.4562
4941.00,1.4571
4940.00,1.4576
4939.00,1.4574
4938.00,1.4568
4937.00,1.4557
4936.00,1.4542
4935.00,1.4523
4934.00,1.4499
4933.00,1.4468
4932.00,1.4430
4931.00,1.4385
4930.00,1.4337
4929.00,1.4285
4928.00,1.4230
4927.00,1.4170
4926.00,1.4103
4925.00,1.4031
4924.00,1.3953
4923.00,1.3870
4922.00,1.3782
4921.00,1.3689
4920.00,1.3590
4919.00,1.3486
4918.00,1.3378
4917.00,1.3262
4916.00,1.3140
4915.00,1.3011
4914.00,1.2876
4913.00,1.2736
4912.00,1.2591
4911.00,1.2442
4910.00,1.2289
4909.00,1.2133
4908.00,1.1970
4907.00,1.1802
4906.00,1.1629
4905.00,1.1450
4904.00,1.1268
4903.00,1.1083
4902.00,1.0896
4901.00,1.0708
4900.00,1.0519
4899.00,1.0328
4898.00,1.0139
4897.00,0.9951
4896.00,0.9764
4895.00,0.9581
4894.00,0.9401
4893.00,0.9227
4892.00,0.9057
4891.00,0.8894
4890.00,0.8738
4889.00,0.8591
4888.00,0.8452
4887.00,0.8323
4886.00,0.8205
4885.00,0.8097
4884.00,0.8001
4883.00,0.7917
4882.00,0.7845
4881.00,0.7787
4880.00,0.7742
4879.00,0.7710
4878.00,0.7692
4877.00,0.7688
4876.00,0.7698
4875.00,0.7722
4874.00,0.7760
4873.00,0.7811
4872.00,0.7873
4871.00,0.7948
4870.00,0.8033
4869.00,0.8129
4868.00,0.8234
4867.00,0.8347
4866.00,0.8469
4865.00,0.8598
4864.00,0.8734
4863.00,0.8875
4862.00,0.9022
4861.00,0.9172
4860.00,0.9326
4859.00,0.9483
4858.00,0.9643
4857.00,0.9805
4856.00,0.9969
4855.00,1.0133
4854.00,1.0299
4853.00,1.0465
4852.00,1.0633
4851.00,1.0800
4850.00,1.0966
4849.00,1.1130
4848.00,1.1290
4847.00,1.1449
4846.00,1.1607
4845.00,1.1763
4844.00,1.1919
4843.00,1.2073
4842.00,1.2223
4841.00,1.2370
4840.00,1.2513
4839.00,1.2653
4838.00,1.2790
4837.00,1.2924
4836.00,1.3056
4835.00,1.3185
4834.00,1.3310
4833.00,1.3430
4832.00,1.3544
4831.00,1.3653
4830.00,1.3757
4829.00,1.3858
4828.00,1.3954
4827.00,1.4047
4826.00,1.4137
4825.00,1.4222
4824.00,1.4303
4823.00,1.4380
4822.00,1.4452
4821.00,1.4520
4820.00,1.4582
4819.00,1.4638
4818.00,1.4688
4817.00,1.4730
4816.00,1.4766
4815.00,1.4797
4814.00,1.4824
4813.00,1.4847
4812.00,1.4866
4811.00,1.4878
4810.00,1.4884
4809.00,1.4885
4808.00,1.4884
4807.00,1.4880
4806.00,1.4873
4805.00,1.4860
4804.00,1.4840
4803.00,1.4812
4802.00,1.4777
4801.00,1.4736
4800.00,1.4691
4799.00,1.4641
4798.00,1.4587
4797.00,1.4528
4796.00,1.4464
4795.00,1.4397
4794.00,1.4323
4793.00,1.4243
4792.00,1.4157
4791.00,1.4065
4790.00,1.3969
4789.00,1.3868
4788.00,1.3759
4787.00,1.3644
4786.00,1.3522
4785.00,1.3394
4784.00,1.3262
4783.00,1.3125
4782.00,1.2984
4781.00,1.2837
4780.00,1.2683
4779.00,1.2522
4778.00,1.2356
4777.00,1.2184
4776.00,1.2006
4775.00,1.1824
4774.00,1.1638
4773.00,1.1450
4772.00,1.1259
4771.00,1.1067
4770.00,1.0872
4769.00,1.0675
4768.00,1.0475
4767.00,1.0274
4766.00,1.0073
4765.00,0.9875
4764.00,0.9681
4763.00,0.9490
4762.00,0.9304
4761.00,0.9124
4760.00,0.8950
4759.00,0.8784
4758.00,0.8626
4757.00,0.8478
4756.00,0.8340
4755.00,0.8213
4754.00,0.8098
4753.00,0.7996
4752.00,0.7907
4751.00,0.7831
4750.00,0.7769
4749.00,0.7722
4748.00,0.7690
4747.00,0.7673
4746.00,0.7672
4745.00,0.7686
4744.00,0.7715
4743.00,0.7756
4742.00,0.7812
4741.00,0.7881
4740.00,0.7962
4739.00,0.8056
4738.00,0.8160
4737.00,0.8275
4736.00,0.8399
4735.00,0.8530
4734.00,0.8668
4733.00,0.8813
4732.00,0.8963
4731.00,0.9118
4730.00,0.9278
4729.00,0.9441
4728.00,0.9608
4727.00,0.9777
4726.00,0.9948
4725.00,1.0121
4724.00,1.0295
4723.00,1.0469
4722.00,1.0644
4721.00,1.0819
4720.00,1.0993
4719.00,1.1166
4718.00,1.1338
4717.00,1.1510
4716.00,1.1679
4715.00,1.1846
4714.00,1.2011
4713.00,1.2174
4712.00,1.2334
4711.00,1.2492
4710.00,1.2647
4709.00,1.2796
4708.00,1.2941
4707.00,1.3081
4706.00,1.3220
4705.00,1.3356
4704.00,1.3490
4703.00,1.3619
4702.00,1.3743
4701.00,1.3862
4700.00,1.3975
4699.00,1.4084
4698.00,1.4189
4697.00,1.4289
4696.00,1.4386
4695.00,1.4480
4694.00,1.4570
4693.00,1.4656
4692.00,1.4737
4691.00,1.4811
4690.00,1.4879
4689.00,1.4941
4688.00,1.4996
4687.00,1.5045
4686.00,1.5090
4685.00,1.5131
4684.00,1.5167
4683.00,1.5196
4682.00,1.5220
4681.00,1.5238
4680.00,1.5252
4679.00,1.5263
4678.00,1.5271
4677.00,1.5273
4676.00,1.5271
4675.00,1.5264
4674.00,1.5250
4673.00,1.5229
4672.00,1.5202
4671.00,1.5170
4670.00,1.5135
4669.00,1.5097
4668.00,1.5053
4667.00,1.5002
4666.00,1.4943
4665.00,1.4876
4664.00,1.4805
4663.00,1.4731
4662.00,1.4653
4661.00,1.4571
4660.00,1.4482
4659.00,1.4387
4658.00,1.4286
4657.00,1.4179
4656.00,1.4066
4655.00,1.3947
4654.00,1.3821
4653.00,1.3689
4652.00,1.3551
4651.00,1.3409
4650.00,1.3263
4649.00,1.3110
4648.00,1.2951
4647.00,1.2784
4646.00,1.2610
4645.00,1.2432
4644.00,1.2248
4643.00,1.2059
4642.00,1.1865
4641.00,1.1667
4640.00,1.1466
4639.00,1.1263
4638.00,1.1057
4637.00,1.0849
4636.00,1.0640
4635.00,1.0430
4634.00,1.0223
4633.00,1.0018
4632.00,0.9817
4631.00,0.9620
4630.00,0.9428
4629.00,0.9243
4628.00,0.9064
4627.00,0.8895
4626.00,0.8735
4625.00,0.8586
4624.00,0.8448
4623.00,0.8322
4622.00,0.8208
4621.00,0.8109
4620.00,0.8024
4619.00,0.7954
4618.00,0.7899
4617.00,0.7860
4616.00,0.7837
4615.00,0.7830
4614.00,0.7839
4613.00,0.7864
4612.00,0.7904
4611.00,0.7960
4610.00,0.8029
4609.00,0.8111
4608.00,0.8205
4607.00,0.8310
4606.00,0.8426
4605.00,0.8552
4604.00,0.8686
4603.00,0.8829
4602.00,0.8978
4601.00,0.9133
4600.00,0.9292
4599.00,0.9456
4598.00,0.9624
4597.00,0.9796
4596.00,0.9972
4595.00,1.0150
4594.00,1.0329
4593.00,1.0508
4592.00,1.0687
4591.00,1.0867
4590.00,1.1048
4589.00,1.1229
4588.00,1.1409
4587.00,1.1586
4586.00,1.1762
4585.00,1.1934
4584.00,1.2104
4583.00,1.2272
4582.00,1.2439
4581.00,1.2604
4580.00,1.2766
4579.00,1.2927
4578.00,1.3084
4577.00,1.3236
4576.00,1.3384
4575.00,1.3527
4574.00,1.3666
4573.00,1.3801
4572.00,1.3930
4571.00,1.4056
4570.00,1.4178
4569.00,1.4299
4568.00,1.4416
4567.00,1.4528
4566.00,1.4632
4565.00,1.4728
4564.00,1.4818
4563.00,1.4904
4562.00,1.4987
4561.00,1.5065
4560.00,1.5137
4559.00,1.5202
4558.00,1.5262
4557.00,1.5317
4556.00,1.5367
4555.00,1.5413
4554.00,1.5452
4553.00,1.5486
4552.00,1.5514
4551.00,1.5537
4550.00,1.5556
4549.00,1.5572
4548.00,1.5584
4547.00,1.5590
4546.00,1.5590
4545.00,1.5581
4544.00,1.5566
4543.00,1.5545
4542.00,1.5522
4541.00,1.5495
4540.00,1.5463
4539.00,1.5425
4538.00,1.5382
4537.00,1.5336
4536.00,1.5285
4535.00,1.5228
4534.00,1.5163
4533.00,1.5090
4532.00,1.5011
4531.00,1.4926
4530.00,1.4838
4529.00,1.4746
4528.00,1.4647
4527.00,1.4541
4526.00,1.4430
4525.00,1.4312
4524.00,1.4188
4523.00,1.4056
4522.00,1.3918
4521.00,1.3774
4520.00,1.3624
4519.00,1.3468
4518.00,1.3306
4517.00,1.3138
4516.00,1.2963
4515.00,1.2782
4514.00,1.2594
4513.00,1.2401
4512.00,1.2203
4511.00,1.2000
4510.00,1.1794
4509.00,1.1585
4508.00,1.1371
4507.00,1.1154
4506.00,1.0934
4505.00,1.0713
4504.00,1.0492
4503.00,1.0273
4502.00,1.0055
4501.00,0.9841
4500.00,0.9632
4499.00,0.9428
4498.00,0.9232
4497.00,0.9044
4496.00,0.8866
4495.00,0.8697
4494.00,0.8541
4493.00,0.8397
4492.00,0.8267
4491.00,0.8151
4490.00,0.8050
4489.00,0.7964
4488.00,0.7895
4487.00,0.7843
4486.00,0.7808
4485.00,0.7792
4484.00,0.7793
4483.00,0.7811
4482.00,0.7847
4481.00,0.7899
4480.00,0.7966
4479.00,0.8049
4478.00,0.8146
4477.00,0.8256
4476.00,0.8377
4475.00,0.8509
4474.00,0.8650
4473.00,0.8801
4472.00,0.8959
4471.00,0.9125
4470.00,0.9297
4469.00,0.9474
4468.00,0.9655
4467.00,0.9838
4466.00,1.0025
4465.00,1.0215
4464.00,1.0407
4463.00,1.0600
4462.00,1.0795
4461.00,1.0988
4460.00,1.1181
4459.00,1.1374
4458.00,1.1566
4457.00,1.1756
4456.00,1.1944
4455.00,1.2129
4454.00,1.2312
4453.00,1.2493
4452.00,1.2671
4451.00,1.2845
4450.00,1.3016
4449.00,1.3183
4448.00,1.3347
4447.00,1.3509
4446.00,1.3667
4445.00,1.3821
4444.00,1.3971
4443.00,1.4115
4442.00,1.4253
4441.00,1.4386
4440.00,1.4516
4439.00,1.4642
4438.00,1.4765
4437.00,1.4884
4436.00,1.4996
4435.00,1.5102
4434.00,1.5199
4433.00,1.5291
4432.00,1.5377
4431.00,1.5458
4430.00,1.5535
4429.00,1.5606
4428.00,1.5672
4427.00,1.5732
4426.00,1.5787
4425.00,1.5836
4424.00,1.5879
4423.00,1.5916
4422.00,1.5947
4421.00,1.5974
4420.00,1.5996
4419.00,1.6013
4418.00,1.6026
4417.00,1.6033
4416.00,1.6035
4415.00,1.6030
4414.00,1.6019
4413.00,1.6002
4412.00,1.5980
4411.00,1.5954
4410.00,1.5926
4409.00,1.5894
4408.00,1.5856
4407.00,1.5812
4406.00,1.5762
4405.00,1.5707
4404.00,1.5645
4403.00,1.5576
4402.00,1.5501
4401.00,1.5420
4400.00,1.5334
4399.00,1.5246
4398.00,1.5154
4397.00,1.5058
4396.00,1.4958
4395.00,1.4852
4394.00,1.4740
4393.00,1.4622
4392.00,1.4498
4391.00,1.4368
4390.00,1.4232
4389.00,1.4088
4388.00,1.3937
4387.00,1.3779
4386.00,1.3618
4385.00,1.3454
4384.00,1.3288
4383.00,1.3117
4382.00,1.2940
4381.00,1.2759
4380.00,1.2573
4379.00,1.2386
4378.00,1.2197
4377.00,1.2007
4376.00,1.1816
4375.00,1.1626
4374.00,1.1437
4373.00,1.1249
4372.00,1.1062
4371.00,1.0876
4370.00,1.0691
4369.00,1.0510
4368.00,1.0333
4367.00,1.0161
4366.00,0.9995
4365.00,0.9836
4364.00,0.9683
4363.00,0.9538
4362.00,0.9402
4361.00,0.9275
4360.00,0.9158
4359.00,0.9054
4358.00,0.8962
4357.00,0.8885
4356.00,0.8822
4355.00,0.8774
4354.00,0.8742
4353.00,0.8725
4352.00,0.8725
4351.00,0.8740
4350.00,0.8771
4349.00,0.8817
4348.00,0.8877
4347.00,0.8950
4346.00,0.9035
4345.00,0.9132
4344.00,0.9239
4343.00,0.9356
4342.00,0.9481
4341.00,0.9615
4340.00,0.9757
4339.00,0.9906
4338.00,1.0062
4337.00,1.0224
4336.00,1.0391
4335.00,1.0562
4334.00,1.0738
4333.00,1.0919
4332.00,1.1102
4331.00,1.1288
4330.00,1.1475
4329.00,1.1662
4328.00,1.1850
4327.00,1.2038
4326.00,1.2225
4325.00,1.2411
4324.00,1.2595
4323.00,1.2779
4322.00,1.2962
4321.00,1.3142
4320.00,1.3319
4319.00,1.3492
4318.00,1.3659
4317.00,1.3822
4316.00,1.3983
4315.00,1.4140
4314.00,1.4292
4313.00,1.4440
4312.00,1.4583
4311.00,1.4722
4310.00,1.4857
4309.00,1.4989
4308.00,1.5115
4307.00,1.5237
4306.00,1.5352
4305.00,1.5460
4304.00,1.5563
4303.00,1.5659
4302.00,1.5751
4301.00,1.5838
4300.00,1.5921
4299.00,1.5999
4298.00,1.6073
4297.00,1.6141
4296.00,1.6202
4295.00,1.6257
4294.00,1.6308
4293.00,1.6353
4292.00,1.6394
4291.00,1.6428
4290.00,1.6459
4289.00,1.6485
4288.00,1.6506
4287.00,1.6520
4286.00,1.6526
4285.00,1.6526
4284.00,1.6520
4283.00,1.6511
4282.00,1.6500
4281.00,1.6485
4280.00,1.6465
4279.00,1.6439
4278.00,1.6406
4277.00,1.6367
4276.00,1.6325
4275.00,1.6279
4274.00,1.6228
4273.00,1.6171
4272.00,1.6109
4271.00,1.6043
4270.00,1.5974
4269.00,1.5900
4268.00,1.5818
4267.00,1.5729
4266.00,1.5632
4265.00,1.5529
4264.00,1.5419
4263.00,1.5302
4262.00,1.5180
4261.00,1.5053
4260.00,1.4921
4259.00,1.4783
4258.00,1.4637
4257.00,1.4482
4256.00,1.4317
4255.00,1.4145
4254.00,1.3967
4253.00,1.3783
4252.00,1.3595
4251.00,1.3401
4250.00,1.3203
4249.00,1.2997
4248.00,1.2785
4247.00,1.2567
4246.00,1.2344
4245.00,1.2119
4244.00,1.1891
4243.00,1.1661
4242.00,1.1431
4241.00,1.1200
4240.00,1.0970
4239.00,1.0743
4238.00,1.0520
4237.00,1.0303
4236.00,1.0092
4235.00,0.9890
4234.00,0.9699
4233.00,0.9518
4232.00,0.9349
4231.00,0.9193
4230.00,0.9052
4229.00,0.8926
4228.00,0.8817
4227.00,0.8725
4226.00,0.8650
4225.00,0.8594
4224.00,0.8555
4223.00,0.8535
4222.00,0.8532
4221.00,0.8548
4220.00,0.8581
4219.00,0.8630
4218.00,0.8696
4217.00,0.8776
4216.00,0.8870
4215.00,0.8978
4214.00,0.9097
4213.00,0.9229
4212.00,0.9370
4211.00,0.9521
4210.00,0.9681
4209.00,0.9848
4208.00,1.0021
4207.00,1.0200
4206.00,1.0384
4205.00,1.0572
4204.00,1.0763
4203.00,1.0957
4202.00,1.1154
4201.00,1.1351
4200.00,1.1550
4199.00,1.1750
4198.00,1.1951
4197.00,1.2151
4196.00,1.2349
4195.00,1.2545
4194.00,1.2740
4193.00,1.2932
4192.00,1.3123
4191.00,1.3311
4190.00,1.3497
4189.00,1.3679
4188.00,1.3857
4187.00,1.4032
4186.00,1.4203
4185.00,1.4369
4184.00,1.4530
4183.00,1.4687
4182.00,1.4840
4181.00,1.4989
4180.00,1.5134
4179.00,1.5275
4178.00,1.5412
4177.00,1.5541
4176.00,1.5664
4175.00,1.5780
4174.00,1.5891
4173.00,1.5997
4172.00,1.6099
4171.00,1.6195
4170.00,1.6284
4169.00,1.6367
4168.00,1.6446
4167.00,1.6520
4166.00,1.6590
4165.00,1.6654
4164.00,1.6712
4163.00,1.6763
4162.00,1.6809
4161.00,1.6849
4160.00,1.6885
4159.00,1.6919
4158.00,1.6949
4157.00,1.6973
4156.00,1.6989
4155.00,1.6996
4154.00,1.6998
4153.00,1.6996
4152.00,1.6990
4151.00,1.6978
4150.00,1.6958
4149.00,1.6933
4148.00,1.6904
4147.00,1.6874
4146.00,1.6841
4145.00,1.6805
4144.00,1.6761
4143.00,1.6710
4142.00,1.6652
4141.00,1.6589
4140.00,1.6521
4139.00,1.6449
4138.00,1.6371
4137.00,1.6287
4136.00,1.6195
4135.00,1.6097
4134.00,1.5992
4133.00,1.5881
4132.00,1.5765
4131.00,1.5643
4130.00,1.5514
4129.00,1.5377
4128.00,1.5234
4127.00,1.5084
4126.00,1.4928
4125.00,1.4765
4124.00,1.4595
4123.00,1.4419
4122.00,1.4237
4121.00,1.4049
4120.00,1.3853
4119.00,1.3650
4118.00,1.3439
4117.00,1.3220
4116.00,1.2995
4115.00,1.2765
4114.00,1.2531
4113.00,1.2293
4112.00,1.2051
4111.00,1.1807
4110.00,1.1562
4109.00,1.1318
4108.00,1.1077
4107.00,1.0839
4106.00,1.0607
4105.00,1.0380
4104.00,1.0161
4103.00,0.9950
4102.00,0.9750
4101.00,0.9563
4100.00,0.9388
4099.00,0.9228
4098.00,0.9084
4097.00,0.8956
4096.00,0.8847
4095.00,0.8757
4094.00,0.8687
4093.00,0.8638
4092.00,0.8609
4091.00,0.8602
4090.00,0.8616
4089.00,0.8650
4088.00,0.8703
4087.00,0.8775
4086.00,0.8864
4085.00,0.8969
4084.00,0.9088
4083.00,0.9222
4082.00,0.9368
4081.00,0.9524
4080.00,0.9690
4079.00,0.9865
4078.00,1.0048
4077.00,1.0236
4076.00,1.0430
4075.00,1.0630
4074.00,1.0834
4073.00,1.1041
4072.00,1.1250
4071.00,1.1460
4070.00,1.1671
4069.00,1.1883
4068.00,1.2097
4067.00,1.2311
4066.00,1.2522
4065.00,1.2731
4064.00,1.2936
4063.00,1.3139
4062.00,1.3342
4061.00,1.3543
4060.00,1.3743
4059.00,1.3939
4058.00,1.4132
4057.00,1.4320
4056.00,1.4505
4055.00,1.4686
4054.00,1.4861
4053.00,1.5030
4052.00,1.5193
4051.00,1.5350
4050.00,1.5503
4049.00,1.5653
4048.00,1.5797
4047.00,1.5935
4046.00,1.6066
4045.00,1.6191
4044.00,1.6311
4043.00,1.6424
4042.00,1.6529
4041.00,1.6626
4040.00,1.6717
4039.00,1.6803
4038.00,1.6886
4037.00,1.6964
4036.00,1.7035
4035.00,1.7098
4034.00,1.7155
4033.00,1.7208
4032.00,1.7256
4031.00,1.7297
4030.00,1.7333
4029.00,1.7364
4028.00,1.7391
4027.00,1.7415
4026.00,1.7435
4025.00,1.7449
4024.00,1.7455
4023.00,1.7453
4022.00,1.7444
4021.00,1.7430
4020.00,1.7412
4019.00,1.7391
4018.00,1.7365
4017.00,1.7332
4016.00,1.7293
4015.00,1.7248
4014.00,1.7199
4013.00,1.7149
4012.00,1.7095
4011.00,1.7035
4010.00,1.6966
4009.00,1.6888
4008.00,1.6802
4007.00,1.6709
4006.00,1.6612
4005.00,1.6509
4004.00,1.6402
4003.00,1.6290
4002.00,1.6171
4001.00,1.6045
4000.00,1.5910
3999.00,1.5769
3998.00,1.5622
3997.00,1.5468
3996.00,1.5307
3995.00,1.5139
3994.00,1.4965
3993.00,1.4784
3992.00,1.4597
3991.00,1.4402
3990.00,1.4200
3989.00,1.3991
3988.00,1.3775
3987.00,1.3554
3986.00,1.3328
3985.00,1.3095
3984.00,1.2856
3983.00,1.2612
3982.00,1.2363
3981.00,1.2112
3980.00,1.1860
3979.00,1.1609
3978.00,1.1358
3977.00,1.1108
3976.00,1.0863
3975.00,1.0622
3974.00,1.0389
3973.00,1.0166
3972.00,0.9954
3971.00,0.9755
3970.00,0.9571
3969.00,0.9402
3968.00,0.9250
3967.00,0.9117
3966.00,0.9004
3965.00,0.8912
3964.00,0.8842
3963.00,0.8795
3962.00,0.8770
3961.00,0.8769
3960.00,0.8789
3959.00,0.8830
3958.00,0.8891
3957.00,0.8971
3956.00,0.9069
3955.00,0.9184
3954.00,0.9314
3953.00,0.9457
3952.00,0.9611
3951.00,0.9776
3950.00,0.9949
3949.00,1.0130
3948.00,1.0319
3947.00,1.0516
3946.00,1.0717
3945.00,1.0919
3944.00,1.1124
3943.00,1.1334
3942.00,1.1552
3941.00,1.1774
3940.00,1.1993
3939.00,1.2209
3938.00,1.2422
3937.00,1.2635
3936.00,1.2847
3935.00,1.3055
3934.00,1.3260
3933.00,1.3466
3932.00,1.3675
3931.00,1.3885
3930.00,1.4093
3929.00,1.4297
3928.00,1.4495
3927.00,1.4684
3926.00,1.4867
3925.00,1.5047
3924.00,1.5224
3923.00,1.5396
3922.00,1.5560
3921.00,1.5719
3920.00,1.5876
3919.00,1.6031
3918.00,1.6186
3917.00,1.6339
3916.00,1.6489
3915.00,1.6633
3914.00,1.6764
3913.00,1.6882
3912.00,1.6989
3911.00,1.7089
3910.00,1.7180
3909.00,1.7262
3908.00,1.7332
3907.00,1.7391
3906.00,1.7442
3905.00,1.7494
3904.00,1.7553
3903.00,1.7618
3902.00,1.7681
3901.00,1.7739
3900.00,1.7789
3899.00,1.7833
3898.00,1.7871
3897.00,1.7900
3896.00,1.7922
3895.00,1.7938
3894.00,1.7945
3893.00,1.7942
3892.00,1.7930
3891.00,1.7914
3890.00,1.7898
3889.00,1.7880
3888.00,1.7854
3887.00,1.7818
3886.00,1.7778
3885.00,1.7740
3884.00,1.7700
3883.00,1.7654
3882.00,1.7597
3881.00,1.7532
3880.00,1.7463
3879.00,1.7392
3878.00,1.7316
3877.00,1.7227
3876.00,1.7123
3875.00,1.7007
3874.00,1.6890
3873.00,1.6774
3872.00,1.6652
3871.00,1.6515
3870.00,1.6370
3869.00,1.6224
3868.00,1.6078
3867.00,1.5926
3866.00,1.5769
3865.00,1.5605
3864.00,1.5434
3863.00,1.5249
3862.00,1.5049
3861.00,1.4830
3860.00,1.4592
3859.00,1.4343
3858.00,1.4092
3857.00,1.3851
3856.00,1.3614
3855.00,1.3366
3854.00,1.3092
3853.00,1.2791
3852.00,1.2481
3851.00,1.2184
3850.00,1.1904
3849.00,1.1637
3848.00,1.1375
3847.00,1.1112
3846.00,1.0845
3845.00,1.0570
3844.00,1.0292
3843.00,1.0019
3842.00,0.9761
3841.00,0.9523
3840.00,0.9308
3839.00,0.9112
3838.00,0.8933
3837.00,0.8773
3836.00,0.8640
3835.00,0.8539
3834.00,0.8472
3833.00,0.8437
3832.00,0.8433
3831.00,0.8457
3830.00,0.8505
3829.00,0.8571
3828.00,0.8652
3827.00,0.8751
3826.00,0.8870
3825.00,0.9008
3824.00,0.9160
3823.00,0.9323
3822.00,0.9510
3821.00,0.9732
3820.00,0.9977
3819.00,1.0218
3818.00,1.0446
3817.00,1.0680
3816.00,1.0948
3815.00,1.1243
3814.00,1.1532
3813.00,1.1791
3812.00,1.2024
3811.00,1.2246
3810.00,1.2465
3809.00,1.2680
3808.00,1.2897
3807.00,1.3130
3806.00,1.3383
3805.00,1.3635
3804.00,1.3865
3803.00,1.4074
3802.00,1.4291
3801.00,1.4535
3800.00,1.4794
3799.00,1.5042
3798.00,1.5268
3797.00,1.5479
3796.00,1.5687
3795.00,1.5891
3794.00,1.6083
3793.00,1.6264
3792.00,1.6437
3791.00,1.6604
3790.00,1.6765
3789.00,1.6917
3788.00,1.7059
3787.00,1.7189
3786.00,1.7308
3785.00,1.7418
3784.00,1.7524
3783.00,1.7627
3782.00,1.7724
3781.00,1.7815
3780.00,1.7902
3779.00,1.7989
3778.00,1.8073
3777.00,1.8147
3776.00,1.8206
3775.00,1.8253
3774.00,1.8293
3773.00,1.8326
3772.00,1.8351
3771.00,1.8371
3770.00,1.8391
3769.00,1.8411
3768.00,1.8425
3767.00,1.8431
3766.00,1.8431
3765.00,1.8428
3764.00,1.8421
3763.00,1.8406
3762.00,1.8379
3761.00,1.8346
3760.00,1.8308
3759.00,1.8265
3758.00,1.8217
3757.00,1.8162
3756.00,1.8099
3755.00,1.8027
3754.00,1.7947
3753.00,1.7863
3752.00,1.7773
3751.00,1.7675
3750.00,1.7572
3749.00,1.7478
3748.00,1.7401
3747.00,1.7333
3746.00,1.7257
3745.00,1.7170
3744.00,1.7074
3743.00,1.6969
3742.00,1.6856
3741.00,1.6740
3740.00,1.6621
3739.00,1.6495
3738.00,1.6349
3737.00,1.6175
3736.00,1.5979
3735.00,1.5774
3734.00,1.5562
3733.00,1.5338
3732.00,1.5099
3731.00,1.4848
3730.00,1.4590
3729.00,1.4320
3728.00,1.4031
3727.00,1.3724
3726.00,1.3406
3725.00,1.3080
3724.00,1.2748
3723.00,1.2415
3722.00,1.2084
3721.00,1.1761
3720.00,1.1448
3719.00,1.1144
3718.00,1.0850
3717.00,1.0571
3716.00,1.0314
3715.00,1.0080
3714.00,0.9865
3713.00,0.9665
3712.00,0.9480
3711.00,0.9316
3710.00,0.9179
3709.00,0.9069
3708.00,0.8987
3707.00,0.8935
3706.00,0.8916
3705.00,0.8932
3704.00,0.8986
3703.00,0.9076
3702.00,0.9201
3701.00,0.9359
3700.00,0.9543
3699.00,0.9745
3698.00,0.9960
3697.00,1.0191
3696.00,1.0435
3695.00,1.0686
3694.00,1.0937
3693.00,1.1192
3692.00,1.1459
3691.00,1.1741
3690.00,1.2042
3689.00,1.2366
3688.00,1.2708
3687.00,1.3050
3686.00,1.3368
3685.00,1.3655
3684.00,1.3919
3683.00,1.4166
3682.00,1.4399
3681.00,1.4616
3680.00,1.4827
3679.00,1.5037
3678.00,1.5241
3677.00,1.5441
3676.00,1.5656
3675.00,1.5901
3674.00,1.6160
3673.00,1.6404
3672.00,1.6620
3671.00,1.6823
3670.00,1.7034
3669.00,1.7252
3668.00,1.7462
3667.00,1.7653
3666.00,1.7824
3665.00,1.7980
3664.00,1.8125
3663.00,1.8258
3662.00,1.8379
3661.00,1.8489
3660.00,1.8593
3659.00,1.8690
3658.00,1.8778
3657.00,1.8860
3656.00,1.8942
3655.00,1.9022
3654.00,1.9093
3653.00,1.9151
3652.00,1.9200
3651.00,1.9251
3650.00,1.9311
3649.00,1.9375
3648.00,1.9440
3647.00,1.9504
3646.00,1.9566
3645.00,1.9623
3644.00,1.9675
3643.00,1.9720
3642.00,1.9756
3641.00,1.9782
3640.00,1.9795
3639.00,1.9799
3638.00,1.9799
3637.00,1.9796
3636.00,1.9782
3635.00,1.9752
3634.00,1.9710
3633.00,1.9667
3632.00,1.9627
3631.00,1.9584
3630.00,1.9536
3629.00,1.9487
3628.00,1.9438
3627.00,1.9388
3626.00,1.9331
3625.00,1.9267
3624.00,1.9195
3623.00,1.9117
3622.00,1.9034
3621.00,1.8947
3620.00,1.8856
3619.00,1.8765
3618.00,1.8678
3617.00,1.8595
3616.00,1.8514
3615.00,1.8432
3614.00,1.8347
3613.00,1.8264
3612.00,1.8182
3611.00,1.8097
3610.00,1.8003
3609.00,1.7900
3608.00,1.7787
3607.00,1.7665
3606.00,1.7537
3605.00,1.7407
3604.00,1.7277
3603.00,1.7150
3602.00,1.7022
3601.00,1.6891
3600.00,1.6759
3599.00,1.6626
3598.00,1.6495
3597.00,1.6367
3596.00,1.6241
3595.00,1.6113
3594.00,1.5985
3593.00,1.5858
3592.00,1.5737
3591.00,1.5624
3590.00,1.5517
3589.00,1.5412
3588.00,1.5312
3587.00,1.5217
3586.00,1.5131
3585.00,1.5054
3584.00,1.4986
3583.00,1.4927
3582.00,1.4876
3581.00,1.4832
3580.00,1.4798
3579.00,1.4773
3578.00,1.4758
3577.00,1.4754
3576.00,1.4759
3575.00,1.4772
3574.00,1.4791
3573.00,1.4819
3572.00,1.4856
3571.00,1.4904
3570.00,1.4964
3569.00,1.5033
3568.00,1.5114
3567.00,1.5207
3566.00,1.5312
3565.00,1.5426
3564.00,1.5545
3563.00,1.5669
3562.00,1.5798
3561.00,1.5931
3560.00,1.6067
3559.00,1.6204
3558.00,1.6344
3557.00,1.6486
3556.00,1.6629
3555.00,1.6771
3554.00,1.6914
3553.00,1.7058
3552.00,1.7206
3551.00,1.7354
3550.00,1.7499
3549.00,1.7639
3548.00,1.7777
3547.00,1.7916
3546.00,1.8057
3545.00,1.8201
3544.00,1.8343
3543.00,1.8482
3542.00,1.8614
3541.00,1.8743
3540.00,1.8872
3539.00,1.9001
3538.00,1.9129
3537.00,1.9253
3536.00,1.9370
3535.00,1.9479
3534.00,1.9582
3533.00,1.9682
3532.00,1.9781
3531.00,1.9880
3530.00,1.9975
3529.00,2.0066
3528.00,2.0153
3527.00,2.0237
3526.00,2.0319
3525.00,2.0397
3524.00,2.0472
3523.00,2.0543
3522.00,2.0609
3521.00,2.0671
3520.00,2.0731
3519.00,2.0789
3518.00,2.0844
3517.00,2.0895
3516.00,2.0940
3515.00,2.0982
3514.00,2.1020
3513.00,2.1052
3512.00,2.1079
3511.00,2.1103
3510.00,2.1126
3509.00,2.1148
3508.00,2.1167
3507.00,2.1184
3506.00,2.1200
3505.00,2.1211
3504.00,2.1214
3503.00,2.1209
3502.00,2.1199
3501.00,2.1188
3500.00,2.1177
3499.00,2.1163
3498.00,2.1147
3497.00,2.1129
3496.00,2.1110
3495.00,2.1086
3494.00,2.1055
3493.00,2.1015
3492.00,2.0970
3491.00,2.0926
3490.00,2.0887
3489.00,2.0848
3488.00,2.0804
3487.00,2.0749
3486.00,2.0686
3485.00,2.0620
3484.00,2.0554
3483.00,2.0485
3482.00,2.0411
3481.00,2.0333
3480.00,2.0252
3479.00,2.0172
3478.00,2.0090
3477.00,2.0003
3476.00,1.9911
3475.00,1.9813
3474.00,1.9711
3473.00,1.9607
3472.00,1.9498
3471.00,1.9380
3470.00,1.9254
3469.00,1.9122
3468.00,1.8989
3467.00,1.8859
3466.00,1.8731
3465.00,1.8601
3464.00,1.8466
3463.00,1.8324
3462.00,1.8179
3461.00,1.8035
3460.00,1.7892
3459.00,1.7748
3458.00,1.7603
3457.00,1.7457
3456.00,1.7311
3455.00,1.7166
3454.00,1.7024
3453.00,1.6884
3452.00,1.6748
3451.00,1.6617
3450.00,1.6491
3449.00,1.6370
3448.00,1.6255
3447.00,1.6146
3446.00,1.6045
3445.00,1.5954
3444.00,1.5874
3443.00,1.5804
3442.00,1.5744
3441.00,1.5693
3440.00,1.5653
3439.00,1.5628
3438.00,1.5616
3437.00,1.5619
3436.00,1.5632
3435.00,1.5656
3434.00,1.5689
3433.00,1.5735
3432.00,1.5793
3431.00,1.5863
3430.00,1.5943
3429.00,1.6032
3428.00,1.6130
3427.00,1.6239
3426.00,1.6357
3425.00,1.6485
3424.00,1.6620
3423.00,1.6760
3422.00,1.6902
3421.00,1.7048
3420.00,1.7198
3419.00,1.7351
3418.00,1.7507
3417.00,1.7662
3416.00,1.7815
3415.00,1.7966
3414.00,1.8111
3413.00,1.8252
3412.00,1.8389
3411.00,1.8526
3410.00,1.8661
3409.00,1.8793
3408.00,1.8917
3407.00,1.9032
3406.00,1.9137
3405.00,1.9233
3404.00,1.9322
3403.00,1.9404
3402.00,1.9485
3401.00,1.9566
3400.00,1.9647
3399.00,1.9725
3398.00,1.9801
3397.00,1.9878
3396.00,1.9956
3395.00,2.0032
3394.00,2.0102
3393.00,2.0167
3392.00,2.0235
3391.00,2.0308
3390.00,2.0386
3389.00,2.0463
3388.00,2.0537
3387.00,2.0607
3386.00,2.0672
3385.00,2.0732
3384.00,2.0787
3383.00,2.0840
3382.00,2.0891
3381.00,2.0941
3380.00,2.0992
3379.00,2.1043
3378.00,2.1093
3377.00,2.1139
3376.00,2.1179
3375.00,2.1211
3374.00,2.1236
3373.00,2.1252
3372.00,2.1263
3371.00,2.1272
3370.00,2.1279
3369.00,2.1281
3368.00,2.1280
3367.00,2.1274
3366.00,2.1266
3365.00,2.1250
3364.00,2.1224
3363.00,2.1189
3362.00,2.1149
3361.00,2.1113
3360.00,2.1080
3359.00,2.1047
3358.00,2.1007
3357.00,2.0958
3356.00,2.0902
3355.00,2.0839
3354.00,2.0769
3353.00,2.0693
3352.00,2.0613
3351.00,2.0533
3350.00,2.0452
3349.00,2.0368
3348.00,2.0277
3347.00,2.0178
3346.00,2.0074
3345.00,1.9965
3344.00,1.9849
3343.00,1.9726
3342.00,1.9593
3341.00,1.9453
3340.00,1.9307
3339.00,1.9158
3338.00,1.9007
3337.00,1.8855
3336.00,1.8699
3335.00,1.8536
3334.00,1.8364
3333.00,1.8185
3332.00,1.8003
3331.00,1.7819
3330.00,1.7632
3329.00,1.7441
3328.00,1.7247
3327.00,1.7049
3326.00,1.6851
3325.00,1.6654
3324.00,1.6457
3323.00,1.6262
3322.00,1.6071
3321.00,1.5885
3320.00,1.5703
3319.00,1.5529
3318.00,1.5363
3317.00,1.5207
3316.00,1.5062
3315.00,1.4929
3314.00,1.4810
3313.00,1.4704
3312.00,1.4613
3311.00,1.4538
3310.00,1.4480
3309.00,1.4439
3308.00,1.4415
3307.00,1.4406
3306.00,1.4414
3305.00,1.4440
3304.00,1.4485
3303.00,1.4547
3302.00,1.4624
3301.00,1.4715
3300.00,1.4819
3299.00,1.4934
3298.00,1.5059
3297.00,1.5194
3296.00,1.5339
3295.00,1.5493
3294.00,1.5654
3293.00,1.5820
3292.00,1.5990
3291.00,1.6165
3290.00,1.6345
3289.00,1.6529
3288.00,1.6715
3287.00,1.6903
3286.00,1.7091
3285.00,1.7281
3284.00,1.7470
3283.00,1.7655
3282.00,1.7838
3281.00,1.8019
3280.00,1.8199
3279.00,1.8375
3278.00,1.8547
3277.00,1.8715
3276.00,1.8879
3275.00,1.9042
3274.00,1.9202
3273.00,1.9361
3272.00,1.9516
3271.00,1.9665
3270.00,1.9805
3269.00,1.9936
3268.00,2.0060
3267.00,2.0184
3266.00,2.0309
3265.00,2.0431
3264.00,2.0547
3263.00,2.0658
3262.00,2.0763
3261.00,2.0863
3260.00,2.0956
3259.00,2.1040
3258.00,2.1117
3257.00,2.1192
3256.00,2.1265
3255.00,2.1334
3254.00,2.1397
3253.00,2.1454
3252.00,2.1508
3251.00,2.1561
3250.00,2.1612
3249.00,2.1656
3248.00,2.1686
3247.00,2.1705
3246.00,2.1721
3245.00,2.1739
3244.00,2.1759
3243.00,2.1773
3242.00,2.1777
3241.00,2.1775
3240.00,2.1766
3239.00,2.1756
3238.00,2.1745
3237.00,2.1735
3236.00,2.1721
3235.00,2.1699
3234.00,2.1669
3233.00,2.1635
3232.00,2.1601
3231.00,2.1565
3230.00,2.1525
3229.00,2.1478
3228.00,2.1422
3227.00,2.1359
3226.00,2.1290
3225.00,2.1218
3224.00,2.1145
3223.00,2.1070
3222.00,2.0991
3221.00,2.0906
3220.00,2.0811
3219.00,2.0708
3218.00,2.0599
3217.00,2.0488
3216.00,2.0375
3215.00,2.0254
3214.00,2.0127
3213.00,1.9994
3212.00,1.9858
3211.00,1.9720
3210.00,1.9578
3209.00,1.9436
3208.00,1.9290
3207.00,1.9139
3206.00,1.8980
3205.00,1.8813
3204.00,1.8640
3203.00,1.8464
3202.00,1.8285
3201.00,1.8106
3200.00,1.7927
3199.00,1.7750
3198.00,1.7574
3197.00,1.7398
3196.00,1.7222
3195.00,1.7045
3194.00,1.6870
3193.00,1.6700
3192.00,1.6537
3191.00,1.6383
3190.00,1.6237
3189.00,1.6099
3188.00,1.5972
3187.00,1.5858
3186.00,1.5759
3185.00,1.5675
3184.00,1.5605
3183.00,1.5549
3182.00,1.5506
3181.00,1.5477
3180.00,1.5463
3179.00,1.5465
3178.00,1.5485
3177.00,1.5520
3176.00,1.5569
3175.00,1.5629
3174.00,1.5703
3173.00,1.5790
3172.00,1.5891
3171.00,1.6004
3170.00,1.6129
3169.00,1.6261
3168.00,1.6399
3167.00,1.6543
3166.00,1.6694
3165.00,1.6854
3164.00,1.7020
3163.00,1.7191
3162.00,1.7362
3161.00,1.7534
3160.00,1.7706
3159.00,1.7880
3158.00,1.8056
3157.00,1.8232
3156.00,1.8407
3155.00,1.8580
3154.00,1.8753
3153.00,1.8923
3152.00,1.9091
3151.00,1.9257
3150.00,1.9423
3149.00,1.9589
3148.00,1.9752
3147.00,1.9911
3146.00,2.0064
3145.00,2.0210
3144.00,2.0349
3143.00,2.0483
3142.00,2.0611
3141.00,2.0735
3140.00,2.0856
3139.00,2.0971
3138.00,2.1079
3137.00,2.1179
3136.00,2.1271
3135.00,2.1360
3134.00,2.1449
3133.00,2.1539
3132.00,2.1629
3131.00,2.1713
3130.00,2.1792
3129.00,2.1866
3128.00,2.1933
3127.00,2.1992
3126.00,2.2042
3125.00,2.2088
3124.00,2.2132
3123.00,2.2176
3122.00,2.2222
3121.00,2.2266
3120.00,2.2306
3119.00,2.2340
3118.00,2.2367
3117.00,2.2387
3116.00,2.2398
3115.00,2.2400
3114.00,2.2392
3113.00,2.2377
3112.00,2.2355
3111.00,2.2331
3110.00,2.2310
3109.00,2.2288
3108.00,2.2260
3107.00,2.2221
3106.00,2.2174
3105.00,2.2126
3104.00,2.2075
3103.00,2.2018
3102.00,2.1950
3101.00,2.1873
3100.00,2.1789
3099.00,2.1698
3098.00,2.1603
3097.00,2.1507
3096.00,2.1407
3095.00,2.1300
3094.00,2.1184
3093.00,2.1061
3092.00,2.0932
3091.00,2.0796
3090.00,2.0652
3089.00,2.0501
3088.00,2.0345
3087.00,2.0184
3086.00,2.0017
3085.00,1.9842
3084.00,1.9661
3083.00,1.9474
3082.00,1.9282
3081.00,1.9087
3080.00,1.8887
3079.00,1.8683
3078.00,1.8478
3077.00,1.8272
3076.00,1.8066
3075.00,1.7860
3074.00,1.7654
3073.00,1.7453
3072.00,1.7262
3071.00,1.7081
3070.00,1.6909
3069.00,1.6749
3068.00,1.6601
3067.00,1.6471
3066.00,1.6361
3065.00,1.6271
3064.00,1.6200
3063.00,1.6148
3062.00,1.6117
3061.00,1.6108
3060.00,1.6120
3059.00,1.6152
3058.00,1.6203
3057.00,1.6273
3056.00,1.6361
3055.00,1.6466
3054.00,1.6585
3053.00,1.6718
3052.00,1.6864
3051.00,1.7022
3050.00,1.7190
3049.00,1.7368
3048.00,1.7555
3047.00,1.7750
3046.00,1.7951
3045.00,1.8156
3044.00,1.8365
3043.00,1.8578
3042.00,1.8794
3041.00,1.9018
3040.00,1.9248
3039.00,1.9479
3038.00,1.9705
3037.00,1.9925
3036.00,2.0141
3035.00,2.0352
3034.00,2.0558
3033.00,2.0757
3032.00,2.0951
3031.00,2.1144
3030.00,2.1333
3029.00,2.1515
3028.00,2.1685
3027.00,2.1840
3026.00,2.1987
3025.00,2.2131
3024.00,2.2270
3023.00,2.2400
3022.00,2.2518
3021.00,2.2625
3020.00,2.2723
3019.00,2.2812
3018.00,2.2894
3017.00,2.2967
3016.00,2.3030
3015.00,2.3083
3014.00,2.3126
3013.00,2.3166
3012.00,2.3204
3011.00,2.3234
3010.00,2.3252
3009.00,2.3258
3008.00,2.3253
3007.00,2.3235
3006.00,2.3201
3005.00,2.3151
3004.00,2.3088
3003.00,2.3012
3002.00,2.2923
3001.00,2.2819
3000.00,2.2703
2999.00,2.2579
2998.00,2.2451
2997.00,2.2319
2996.00,2.2176
2995.00,2.2018
2994.00,2.1849
2993.00,2.1681
2992.00,2.1526
2991.00,2.1390
2990.00,2.1277
2989.00,2.1191
2988.00,2.1141
2987.00,2.1140
2986.00,2.1197
2985.00,2.1318
2984.00,2.1506
2983.00,2.1762
2982.00,2.2088
2981.00,2.2481
2980.00,2.2937
2979.00,2.3448
2978.00,2.4011
2977.00,2.4617
2976.00,2.5256
2975.00,2.5915
2974.00,2.6595
2973.00,2.7313
2972.00,2.8092
2971.00,2.8936
2970.00,2.9819
2969.00,3.0698
2968.00,3.1551
2967.00,3.2396
2966.00,3.3295
2965.00,3.4308
2964.00,3.5432
2963.00,3.6554
2962.00,3.7478
2961.00,3.8065
2960.00,3.8355
2959.00,3.8561
2958.00,3.8897
2957.00,3.9389
2956.00,3.9833
2955.00,4.0085
2954.00,4.0250
2953.00,4.0341
2952.00,4.0087
2951.00,3.9405
2950.00,3.8714
2949.00,3.8409
2948.00,3.8576
2947.00,3.9097
2946.00,3.9801
2945.00,4.0524
2944.00,4.1126
2943.00,4.1453
2942.00,4.1426
2941.00,4.1149
2940.00,4.0870
2939.00,4.0914
2938.00,4.1417
2937.00,4.2244
2936.00,4.3077
2935.00,4.3559
2934.00,4.3605
2933.00,4.3529
2932.00,4.3699
2931.00,4.4422
2930.00,4.5858
2929.00,4.7466
2928.00,4.8881
2927.00,5.1346
2926.00,4.7480
2925.00,4.5062
2924.00,4.3325
2923.00,4.2586
2922.00,4.1291
2921.00,3.9837
2920.00,3.8679
2919.00,3.7674
2918.00,3.6729
2917.00,3.5872
2916.00,3.5152
2915.00,3.4595
2914.00,3.4159
2913.00,3.3750
2912.00,3.3310
2911.00,3.2865
2910.00,3.2477
2909.00,3.2185
2908.00,3.1969
2907.00,3.1764
2906.00,3.1515
2905.00,3.1224
2904.00,3.0945
2903.00,3.0713
2902.00,3.0515
2901.00,3.0304
2900.00,3.0057
2899.00,2.9791
2898.00,2.9539
2897.00,2.9313
2896.00,2.9103
2895.00,2.8903
2894.00,2.8714
2893.00,2.8540
2892.00,2.8378
2891.00,2.8217
2890.00,2.8054
2889.00,2.7895
2888.00,2.7756
2887.00,2.7655
2886.00,2.7607
2885.00,2.7624
2884.00,2.7702
2883.00,2.7829
2882.00,2.7995
2881.00,2.8198
2880.00,2.8452
2879.00,2.8767
2878.00,2.9134
2877.00,2.9530
2876.00,2.9950
2875.00,3.0426
2874.00,3.1007
2873.00,3.1707
2872.00,3.2478
2871.00,3.3250
2870.00,3.3998
2869.00,3.4765
2868.00,3.5621
2867.00,3.6594
2866.00,3.7617
2865.00,3.8443
2864.00,3.8713
2863.00,3.8382
2862.00,3.7835
2861.00,3.7382
2860.00,3.7059
2859.00,3.6759
2858.00,3.6330
2857.00,3.5626
2856.00,3.4601
2855.00,3.3372
2854.00,3.2129
2853.00,3.0999
2852.00,3.0005
2851.00,2.9105
2850.00,2.8244
2849.00,2.7400
2848.00,2.6573
2847.00,2.5771
2846.00,2.5005
2845.00,2.4285
2844.00,2.3622
2843.00,2.3019
2842.00,2.2479
2841.00,2.2004
2840.00,2.1595
2839.00,2.1256
2838.00,2.0985
2837.00,2.0781
2836.00,2.0643
2835.00,2.0566
2834.00,2.0544
2833.00,2.0566
2832.00,2.0624
2831.00,2.0705
2830.00,2.0801
2829.00,2.0904
2828.00,2.1007
2827.00,2.1110
2826.00,2.1213
2825.00,2.1317
2824.00,2.1423
2823.00,2.1530
2822.00,2.1641
2821.00,2.1759
2820.00,2.1886
2819.00,2.2021
2818.00,2.2161
2817.00,2.2306
2816.00,2.2458
2815.00,2.2615
2814.00,2.2772
2813.00,2.2918
2812.00,2.3050
2811.00,2.3171
2810.00,2.3288
2809.00,2.3405
2808.00,2.3521
2807.00,2.3630
2806.00,2.3729
2805.00,2.3813
2804.00,2.3883
2803.00,2.3943
2802.00,2.3998
2801.00,2.4047
2800.00,2.4084
2799.00,2.4108
2798.00,2.4125
2797.00,2.4140
2796.00,2.4153
2795.00,2.4158
2794.00,2.4153
2793.00,2.4133
2792.00,2.4096
2791.00,2.4045
2790.00,2.3985
2789.00,2.3923
2788.00,2.3854
2787.00,2.3776
2786.00,2.3688
2785.00,2.3594
2784.00,2.3493
2783.00,2.3383
2782.00,2.3261
2781.00,2.3128
2780.00,2.2990
2779.00,2.2845
2778.00,2.2690
2777.00,2.2521
2776.00,2.2338
2775.00,2.2147
2774.00,2.1952
2773.00,2.1750
2772.00,2.1534
2771.00,2.1302
2770.00,2.1059
2769.00,2.0808
2768.00,2.0547
2767.00,2.0273
2766.00,1.9985
2765.00,1.9687
2764.00,1.9380
2763.00,1.9062
2762.00,1.8730
2761.00,1.8385
2760.00,1.8030
2759.00,1.7665
2758.00,1.7289
2757.00,1.6904
2756.00,1.6513
2755.00,1.6122
2754.00,1.5742
2753.00,1.5379
2752.00,1.5040
2751.00,1.4733
2750.00,1.4464
2749.00,1.4237
2748.00,1.4056
2747.00,1.3924
2746.00,1.3841
2745.00,1.3808
2744.00,1.3824
2743.00,1.3888
2742.00,1.3997
2741.00,1.4148
2740.00,1.4337
2739.00,1.4558
2738.00,1.4806
2737.00,1.5075
2736.00,1.5361
2735.00,1.5660
2734.00,1.5970
2733.00,1.6287
2732.00,1.6609
2731.00,1.6934
2730.00,1.7260
2729.00,1.7584
2728.00,1.7907
2727.00,1.8230
2726.00,1.8550
2725.00,1.8867
2724.00,1.9179
2723.00,1.9486
2722.00,1.9788
2721.00,2.0084
2720.00,2.0370
2719.00,2.0641
2718.00,2.0898
2717.00,2.1144
2716.00,2.1385
2715.00,2.1619
2714.00,2.1844
2713.00,2.2059
2712.00,2.2265
2711.00,2.2462
2710.00,2.2646
2709.00,2.2812
2708.00,2.2966
2707.00,2.3115
2706.00,2.3263
2705.00,2.3406
2704.00,2.3540
2703.00,2.3662
2702.00,2.3779
2701.00,2.3890
2700.00,2.3991
2699.00,2.4079
2698.00,2.4153
2697.00,2.4217
2696.00,2.4272
2695.00,2.4323
2694.00,2.4374
2693.00,2.4426
2692.00,2.4474
2691.00,2.4512
2690.00,2.4543
2689.00,2.4574
2688.00,2.4606
2687.00,2.4633
2686.00,2.4647
2685.00,2.4648
2684.00,2.4642
2683.00,2.4631
2682.00,2.4615
2681.00,2.4598
2680.00,2.4585
2679.00,2.4575
2678.00,2.4562
2677.00,2.4538
2676.00,2.4505
2675.00,2.4469
2674.00,2.4437
2673.00,2.4405
2672.00,2.4368
2671.00,2.4323
2670.00,2.4270
2669.00,2.4211
2668.00,2.4140
2667.00,2.4053
2666.00,2.3951
2665.00,2.3839
2664.00,2.3719
2663.00,2.3588
2662.00,2.3440
2661.00,2.3280
2660.00,2.3113
2659.00,2.2945
2658.00,2.2775
2657.00,2.2599
2656.00,2.2416
2655.00,2.2227
2654.00,2.2036
2653.00,2.1840
2652.00,2.1637
2651.00,2.1422
2650.00,2.1194
2649.00,2.0956
2648.00,2.0708
2647.00,2.0448
2646.00,2.0172
2645.00,1.9879
2644.00,1.9570
2643.00,1.9247
2642.00,1.8909
2641.00,1.8556
2640.00,1.8188
2639.00,1.7808
2638.00,1.7421
2637.00,1.7031
2636.00,1.6644
2635.00,1.6264
2634.00,1.5897
2633.00,1.5551
2632.00,1.5231
2631.00,1.4944
2630.00,1.4693
2629.00,1.4484
2628.00,1.4319
2627.00,1.4200
2626.00,1.4130
2625.00,1.4109
2624.00,1.4136
2623.00,1.4210
2622.00,1.4325
2621.00,1.4476
2620.00,1.4659
2619.00,1.4869
2618.00,1.5103
2617.00,1.5356
2616.00,1.5623
2615.00,1.5902
2614.00,1.6186
2613.00,1.6473
2612.00,1.6761
2611.00,1.7050
2610.00,1.7339
2609.00,1.7629
2608.00,1.7919
2607.00,1.8208
2606.00,1.8496
2605.00,1.8782
2604.00,1.9069
2603.00,1.9355
2602.00,1.9640
2601.00,1.9924
2600.00,2.0206
2599.00,2.0487
2598.00,2.0765
2597.00,2.1038
2596.00,2.1303
2595.00,2.1560
2594.00,2.1812
2593.00,2.2056
2592.00,2.2289
2591.00,2.2510
2590.00,2.2717
2589.00,2.2909
2588.00,2.3085
2587.00,2.3249
2586.00,2.3411
2585.00,2.3571
2584.00,2.3724
2583.00,2.3863
2582.00,2.3991
2581.00,2.4117
2580.00,2.4242
2579.00,2.4364
2578.00,2.4477
2577.00,2.4580
2576.00,2.4671
2575.00,2.4753
2574.00,2.4831
2573.00,2.4911
2572.00,2.4992
2571.00,2.5071
2570.00,2.5142
2569.00,2.5204
2568.00,2.5256
2567.00,2.5294
2566.00,2.5315
2565.00,2.5321
2564.00,2.5324
2563.00,2.5336
2562.00,2.5365
2561.00,2.5406
2560.00,2.5441
2559.00,2.5455
2558.00,2.5442
2557.00,2.5410
2556.00,2.5374
2555.00,2.5343
2554.00,2.5318
2553.00,2.5290
2552.00,2.5250
2551.00,2.5197
2550.00,2.5141
2549.00,2.5086
2548.00,2.5033
2547.00,2.4972
2546.00,2.4900
2545.00,2.4820
2544.00,2.4739
2543.00,2.4664
2542.00,2.4590
2541.00,2.4505
2540.00,2.4400
2539.00,2.4280
2538.00,2.4155
2537.00,2.4030
2536.00,2.3900
2535.00,2.3760
2534.00,2.3608
2533.00,2.3445
2532.00,2.3273
2531.00,2.3092
2530.00,2.2905
2529.00,2.2709
2528.00,2.2499
2527.00,2.2271
2526.00,2.2028
2525.00,2.1780
2524.00,2.1527
2523.00,2.1268
2522.00,2.0995
2521.00,2.0707
2520.00,2.0399
2519.00,2.0072
2518.00,1.9726
2517.00,1.9362
2516.00,1.8980
2515.00,1.8581
2514.00,1.8167
2513.00,1.7740
2512.00,1.7305
2511.00,1.6865
2510.00,1.6425
2509.00,1.5990
2508.00,1.5566
2507.00,1.5161
2506.00,1.4781
2505.00,1.4434
2504.00,1.4124
2503.00,1.3856
2502.00,1.3634
2501.00,1.3464
2500.00,1.3350
2499.00,1.3293
2498.00,1.3296
2497.00,1.3356
2496.00,1.3473
2495.00,1.3640
2494.00,1.3851
2493.00,1.4100
2492.00,1.4383
2491.00,1.4693
2490.00,1.5025
2489.00,1.5373
2488.00,1.5734
2487.00,1.6106
2486.00,1.6485
2485.00,1.6867
2484.00,1.7249
2483.00,1.7629
2482.00,1.8006
2481.00,1.8381
2480.00,1.8753
2479.00,1.9120
2478.00,1.9482
2477.00,1.9835
2476.00,2.0180
2475.00,2.0517
2474.00,2.0846
2473.00,2.1168
2472.00,2.1480
2471.00,2.1780
2470.00,2.2064
2469.00,2.2334
2468.00,2.2591
2467.00,2.2835
2466.00,2.3066
2465.00,2.3280
2464.00,2.3476
2463.00,2.3659
2462.00,2.3836
2461.00,2.4012
2460.00,2.4181
2459.00,2.4337
2458.00,2.4481
2457.00,2.4619
2456.00,2.4759
2455.00,2.4903
2454.00,2.5043
2453.00,2.5169
2452.00,2.5272
2451.00,2.5358
2450.00,2.5444
2449.00,2.5544
2448.00,2.5652
2447.00,2.5748
2446.00,2.5819
2445.00,2.5874
2444.00,2.5925
2443.00,2.5979
2442.00,2.6032
2441.00,2.6083
2440.00,2.6132
2439.00,2.6178
2438.00,2.6221
2437.00,2.6252
2436.00,2.6264
2435.00,2.6259
2434.00,2.6250
2433.00,2.6246
2432.00,2.6243
2431.00,2.6227
2430.00,2.6196
2429.00,2.6160
2428.00,2.6131
2427.00,2.6110
2426.00,2.6087
2425.00,2.6055
2424.00,2.6010
2423.00,2.5959
2422.00,2.5907
2421.00,2.5856
2420.00,2.5800
2419.00,2.5734
2418.00,2.5654
2417.00,2.5565
2416.00,2.5470
2415.00,2.5372
2414.00,2.5273
2413.00,2.5170
2412.00,2.5058
2411.00,2.4932
2410.00,2.4793
2409.00,2.4644
2408.00,2.4488
2407.00,2.4323
2406.00,2.4148
2405.00,2.3967
2404.00,2.3780
2403.00,2.3581
2402.00,2.3364
2401.00,2.3132
2400.00,2.2888
2399.00,2.2637
2398.00,2.2375
2397.00,2.2098
2396.00,2.1806
2395.00,2.1498
2394.00,2.1173
2393.00,2.0828
2392.00,2.0467
2391.00,2.0093
2390.00,1.9711
2389.00,1.9325
2388.00,1.8940
2387.00,1.8566
2386.00,1.8218
2385.00,1.7913
2384.00,1.7671
2383.00,1.7505
2382.00,1.7427
2381.00,1.7442
2380.00,1.7544
2379.00,1.7719
2378.00,1.7945
2377.00,1.8191
2376.00,1.8431
2375.00,1.8643
2374.00,1.8813
2373.00,1.8939
2372.00,1.9030
2371.00,1.9101
2370.00,1.9169
2369.00,1.9245
2368.00,1.9335
2367.00,1.9441
2366.00,1.9565
2365.00,1.9701
2364.00,1.9846
2363.00,2.0002
2362.00,2.0167
2361.00,2.0340
2360.00,2.0535
2359.00,2.0762
2358.00,2.1011
2357.00,2.1262
2356.00,2.1483
2355.00,2.1679
2354.00,2.1858
2353.00,2.2025
2352.00,2.2198
2351.00,2.2415
2350.00,2.2700
2349.00,2.2993
2348.00,2.3241
2347.00,2.3474
2346.00,2.3750
2345.00,2.4080
2344.00,2.4391
2343.00,2.4656
2342.00,2.4885
2341.00,2.5124
2340.00,2.5402
2339.00,2.5696
2338.00,2.5989
2337.00,2.6272
2336.00,2.6569
2335.00,2.6901
2334.00,2.7276
2333.00,2.7688
2332.00,2.8146
2331.00,2.8649
2330.00,2.9185
2329.00,2.9692
2328.00,3.0124
2327.00,3.0459
2326.00,3.0703
2325.00,3.0920
2324.00,3.1165
2323.00,3.1486
2322.00,3.1835
2321.00,3.2140
2320.00,3.2350
2319.00,3.2461
2318.00,3.2501
2317.00,3.2475
2316.00,3.2402
2315.00,3.2307
2314.00,3.2244
2313.00,3.2230
2312.00,3.2255
2311.00,3.2273
2310.00,3.2244
2309.00,3.2136
2308.00,3.1950
2307.00,3.1710
2306.00,3.1452
2305.00,3.1194
2304.00,3.0936
2303.00,3.0664
2302.00,3.0378
2301.00,3.0080
2300.00,2.9785
2299.00,2.9500
2298.00,2.9235
2297.00,2.8987
2296.00,2.8751
2295.00,2.8516
2294.00,2.8279
2293.00,2.8042
2292.00,2.7803
2291.00,2.7567
2290.00,2.7340
2289.00,2.7132
2288.00,2.6949
2287.00,2.6784
2286.00,2.6622
2285.00,2.6451
2284.00,2.6264
2283.00,2.6065
2282.00,2.5865
2281.00,2.5670
2280.00,2.5474
2279.00,2.5268
2278.00,2.5049
2277.00,2.4825
2276.00,2.4603
2275.00,2.4376
2274.00,2.4134
2273.00,2.3871
2272.00,2.3596
2271.00,2.3318
2270.00,2.3040
2269.00,2.2756
2268.00,2.2457
2267.00,2.2139
2266.00,2.1802
2265.00,2.1447
2264.00,2.1071
2263.00,2.0676
2262.00,2.0259
2261.00,1.9822
2260.00,1.9366
2259.00,1.8897
2258.00,1.8420
2257.00,1.7944
2256.00,1.7480
2255.00,1.7036
2254.00,1.6617
2253.00,1.6220
2252.00,1.5840
2251.00,1.5469
2250.00,1.5114
2249.00,1.4787
2248.00,1.4507
2247.00,1.4287
2246.00,1.4136
2245.00,1.4058
2244.00,1.4055
2243.00,1.4126
2242.00,1.4267
2241.00,1.4473
2240.00,1.4735
2239.00,1.5043
2238.00,1.5388
2237.00,1.5760
2236.00,1.6154
2235.00,1.6564
2234.00,1.6984
2233.00,1.7412
2232.00,1.7847
2231.00,1.8284
2230.00,1.8720
2229.00,1.9147
2228.00,1.9567
2227.00,1.9980
2226.00,2.0390
2225.00,2.0794
2224.00,2.1186
2223.00,2.1563
2222.00,2.1925
2221.00,2.2277
2220.00,2.2622
2219.00,2.2959
2218.00,2.3284
2217.00,2.3589
2216.00,2.3874
2215.00,2.4144
2214.00,2.4404
2213.00,2.4652
2212.00,2.4884
2211.00,2.5096
2210.00,2.5285
2209.00,2.5459
2208.00,2.5629
2207.00,2.5807
2206.00,2.5997
2205.00,2.6184
2204.00,2.6352
2203.00,2.6498
2202.00,2.6633
2201.00,2.6768
2200.00,2.6897
2199.00,2.7011
2198.00,2.7105
2197.00,2.7187
2196.00,2.7264
2195.00,2.7337
2194.00,2.7407
2193.00,2.7479
2192.00,2.7559
2191.00,2.7650
2190.00,2.7741
2189.00,2.7819
2188.00,2.7876
2187.00,2.7917
2186.00,2.7951
2185.00,2.7983
2184.00,2.8012
2183.00,2.8042
2182.00,2.8071
2181.00,2.8092
2180.00,2.8097
2179.00,2.8087
2178.00,2.8074
2177.00,2.8061
2176.00,2.8047
2175.00,2.8027
2174.00,2.8001
2173.00,2.7971
2172.00,2.7941
2171.00,2.7916
2170.00,2.7897
2169.00,2.7879
2168.00,2.7854
2167.00,2.7813
2166.00,2.7749
2165.00,2.7654
2164.00,2.7537
2163.00,2.7416
2162.00,2.7314
2161.00,2.7230
2160.00,2.7147
2159.00,2.7049
2158.00,2.6932
2157.00,2.6801
2156.00,2.6666
2155.00,2.6530
2154.00,2.6392
2153.00,2.6241
2152.00,2.6067
2151.00,2.5868
2150.00,2.5659
2149.00,2.5452
2148.00,2.5253
2147.00,2.5052
2146.00,2.4836
2145.00,2.4597
2144.00,2.4336
2143.00,2.4055
2142.00,2.3759
2141.00,2.3449
2140.00,2.3125
2139.00,2.2788
2138.00,2.2440
2137.00,2.2081
2136.00,2.1709
2135.00,2.1319
2134.00,2.0907
2133.00,2.0472
2132.00,2.0013
2131.00,1.9534
2130.00,1.9037
2129.00,1.8526
2128.00,1.8006
2127.00,1.7487
2126.00,1.6979
2125.00,1.6493
2124.00,1.6042
2123.00,1.5637
2122.00,1.5289
2121.00,1.5007
2120.00,1.4799
2119.00,1.4666
2118.00,1.4613
2117.00,1.4641
2116.00,1.4748
2115.00,1.4930
2114.00,1.5178
2113.00,1.5479
2112.00,1.5826
2111.00,1.6210
2110.00,1.6622
2109.00,1.7056
2108.00,1.7506
2107.00,1.7966
2106.00,1.8432
2105.00,1.8898
2104.00,1.9359
2103.00,1.9814
2102.00,2.0260
2101.00,2.0699
2100.00,2.1128
2099.00,2.1542
2098.00,2.1942
2097.00,2.2329
2096.00,2.2702
2095.00,2.3062
2094.00,2.3407
2093.00,2.3735
2092.00,2.4045
2091.00,2.4340
2090.00,2.4630
2089.00,2.4921
2088.00,2.5208
2087.00,2.5471
2086.00,2.5706
2085.00,2.5921
2084.00,2.6124
2083.00,2.6315
2082.00,2.6494
2081.00,2.6669
2080.00,2.6849
2079.00,2.7031
2078.00,2.7206
2077.00,2.7375
2076.00,2.7538
2075.00,2.7692
2074.00,2.7827
2073.00,2.7948
2072.00,2.8066
2071.00,2.8188
2070.00,2.8306
2069.00,2.8406
2068.00,2.8487
2067.00,2.8553
2066.00,2.8606
2065.00,2.8649
2064.00,2.8690
2063.00,2.8737
2062.00,2.8793
2061.00,2.8852
2060.00,2.8908
2059.00,2.8954
2058.00,2.8988
2057.00,2.9008
2056.00,2.9014
2055.00,2.9012
2054.00,2.9008
2053.00,2.9010
2052.00,2.9020
2051.00,2.9031
2050.00,2.9029
2049.00,2.9005
2048.00,2.8965
2047.00,2.8923
2046.00,2.8889
2045.00,2.8855
2044.00,2.8814
2043.00,2.8767
2042.00,2.8721
2041.00,2.8675
2040.00,2.8624
2039.00,2.8559
2038.00,2.8478
2037.00,2.8383
2036.00,2.8282
2035.00,2.8179
2034.00,2.8072
2033.00,2.7957
2032.00,2.7834
2031.00,2.7707
2030.00,2.7575
2029.00,2.7439
2028.00,2.7296
2027.00,2.7145
2026.00,2.6982
2025.00,2.6801
2024.00,2.6602
2023.00,2.6391
2022.00,2.6171
2021.00,2.5937
2020.00,2.5685
2019.00,2.5421
2018.00,2.5153
2017.00,2.4883
2016.00,2.4605
2015.00,2.4309
2014.00,2.3993
2013.00,2.3657
2012.00,2.3301
2011.00,2.2921
2010.00,2.2512
2009.00,2.2076
2008.00,2.1616
2007.00,2.1134
2006.00,2.0630
2005.00,2.0106
2004.00,1.9562
2003.00,1.9003
2002.00,1.8439
2001.00,1.7884
2000.00,1.7354
1999.00,1.6860
1998.00,1.6418
1997.00,1.6035
1996.00,1.5709
1995.00,1.5445
1994.00,1.5265
1993.00,1.5202
1992.00,1.5266
1991.00,1.5438
1990.00,1.5688
1989.00,1.6003
1988.00,1.6379
1987.00,1.6809
1986.00,1.7273
1985.00,1.7754
1984.00,1.8246
1983.00,1.8744
1982.00,1.9242
1981.00,1.9738
1980.00,2.0226
1979.00,2.0702
1978.00,2.1162
1977.00,2.1608
1976.00,2.2044
1975.00,2.2468
1974.00,2.2878
1973.00,2.3268
1972.00,2.3634
1971.00,2.3971
1970.00,2.4290
1969.00,2.4610
1968.00,2.4948
1967.00,2.5296
1966.00,2.5626
1965.00,2.5917
1964.00,2.6172
1963.00,2.6409
1962.00,2.6640
1961.00,2.6870
1960.00,2.7097
1959.00,2.7321
1958.00,2.7536
1957.00,2.7738
1956.00,2.7926
1955.00,2.8100
1954.00,2.8259
1953.00,2.8401
1952.00,2.8527
1951.00,2.8639
1950.00,2.8743
1949.00,2.8842
1948.00,2.8938
1947.00,2.9021
1946.00,2.9082
1945.00,2.9131
1944.00,2.9197
1943.00,2.9302
1942.00,2.9432
1941.00,2.9544
1940.00,2.9614
1939.00,2.9649
1938.00,2.9674
1937.00,2.9709
1936.00,2.9757
1935.00,2.9816
1934.00,2.9879
1933.00,2.9931
1932.00,2.9955
1931.00,2.9941
1930.00,2.9906
1929.00,2.9881
1928.00,2.9882
1927.00,2.9888
1926.00,2.9861
1925.00,2.9800
1924.00,2.9753
1923.00,2.9751
1922.00,2.9766
1921.00,2.9740
1920.00,2.9659
1919.00,2.9564
1918.00,2.9501
1917.00,2.9472
1916.00,2.9444
1915.00,2.9381
1914.00,2.9276
1913.00,2.9146
1912.00,2.9012
1911.00,2.8880
1910.00,2.8744
1909.00,2.8603
1908.00,2.8460
1907.00,2.8311
1906.00,2.8143
1905.00,2.7948
1904.00,2.7737
1903.00,2.7525
1902.00,2.7315
1901.00,2.7100
1900.00,2.6870
1899.00,2.6613
1898.00,2.6318
1897.00,2.5995
1896.00,2.5667
1895.00,2.5345
1894.00,2.5005
1893.00,2.4613
1892.00,2.4163
1891.00,2.3682
1890.00,2.3202
1889.00,2.2729
1888.00,2.2242
1887.00,2.1723
1886.00,2.1178
1885.00,2.0626
1884.00,2.0082
1883.00,1.9549
1882.00,1.9037
1881.00,1.8564
1880.00,1.8148
1879.00,1.7800
1878.00,1.7529
1877.00,1.7340
1876.00,1.7236
1875.00,1.7217
1874.00,1.7270
1873.00,1.7376
1872.00,1.7519
1871.00,1.7709
1870.00,1.7977
1869.00,1.8336
1868.00,1.8759
1867.00,1.9201
1866.00,1.9638
1865.00,2.0074
1864.00,2.0521
1863.00,2.0985
1862.00,2.1469
1861.00,2.1974
1860.00,2.2494
1859.00,2.3017
1858.00,2.3536
1857.00,2.4047
1856.00,2.4541
1855.00,2.5013
1854.00,2.5463
1853.00,2.5885
1852.00,2.6256
1851.00,2.6566
1850.00,2.6847
1849.00,2.7144
1848.00,2.7453
1847.00,2.7731
1846.00,2.7960
1845.00,2.8185
1844.00,2.8452
1843.00,2.8733
1842.00,2.8972
1841.00,2.9158
1840.00,2.9328
1839.00,2.9526
1838.00,2.9747
1837.00,2.9941
1836.00,3.0061
1835.00,3.0106
1834.00,3.0117
1833.00,3.0148
1832.00,3.0230
1831.00,3.0368
1830.00,3.0521
1829.00,3.0617
1828.00,3.0637
1827.00,3.0639
1826.00,3.0690
1825.00,3.0795
1824.00,3.0902
1823.00,3.0975
1822.00,3.1013
1821.00,3.1008
1820.00,3.0945
1819.00,3.0853
1818.00,3.0789
1817.00,3.0784
1816.00,3.0817
1815.00,3.0853
1814.00,3.0870
1813.00,3.0856
1812.00,3.0799
1811.00,3.0707
1810.00,3.0610
1809.00,3.0536
1808.00,3.0494
1807.00,3.0454
1806.00,3.0364
1805.00,3.0191
1804.00,2.9961
1803.00,2.9744
1802.00,2.9578
1801.00,2.9421
1800.00,2.9196
1799.00,2.8886
1798.00,2.8542
1797.00,2.8212
1796.00,2.7893
1795.00,2.7527
1794.00,2.7072
1793.00,2.6542
1792.00,2.5995
1791.00,2.5472
1790.00,2.4961
1789.00,2.4418
1788.00,2.3821
1787.00,2.3205
1786.00,2.2648
1785.00,2.2227
1784.00,2.1963
1783.00,2.1830
1782.00,2.1828
1781.00,2.1990
1780.00,2.2326
1779.00,2.2802
1778.00,2.3373
1777.00,2.4033
1776.00,2.4769
1775.00,2.5533
1774.00,2.6285
1773.00,2.7005
1772.00,2.7661
1771.00,2.8207
1770.00,2.8645
1769.00,2.9052
1768.00,2.9526
1767.00,3.0063
1766.00,3.0561
1765.00,3.0936
1764.00,3.1193
1763.00,3.1433
1762.00,3.1761
1761.00,3.2168
1760.00,3.2532
1759.00,3.2744
1758.00,3.2843
1757.00,3.2966
1756.00,3.3178
1755.00,3.3427
1754.00,3.3648
1753.00,3.3853
1752.00,3.4104
1751.00,3.4434
1750.00,3.4782
1749.00,3.5074
1748.00,3.5283
1747.00,3.5440
1746.00,3.5641
1745.00,3.5998
1744.00,3.6572
1743.00,3.7306
1742.00,3.8032
1741.00,3.8581
1740.00,3.8954
1739.00,3.9342
1738.00,3.9929
1737.00,4.0705
1736.00,4.1466
1735.00,4.2003
1734.00,4.2231
1733.00,4.2487
1732.00,4.3317
1731.00,4.5152
1730.00,4.8046
1729.00,4.9190
1728.00,4.8827
1727.00,5.0571
1726.00,5.6141
1725.00,5.3025
1724.00,4.8029
1723.00,4.6245
1722.00,4.5447
1721.00,4.5175
1720.00,4.5187
1719.00,4.5276
1718.00,4.5133
1717.00,4.4737
1716.00,4.4588
1715.00,4.4867
1714.00,4.5107
1713.00,4.4763
1712.00,4.4309
1711.00,4.4355
1710.00,4.4800
1709.00,4.4926
1708.00,4.4306
1707.00,4.3497
1706.00,4.3107
1705.00,4.3279
1704.00,4.3703
1703.00,4.3968
1702.00,4.4097
1701.00,4.4200
1700.00,4.4125
1699.00,4.3823
1698.00,4.3457
1697.00,4.3215
1696.00,4.3240
1695.00,4.3352
1694.00,4.3082
1693.00,4.2456
1692.00,4.1625
1691.00,4.0446
1690.00,3.9089
1689.00,3.7943
1688.00,3.7137
1687.00,3.6581
1686.00,3.6150
1685.00,3.5779
1684.00,3.5420
1683.00,3.5035
1682.00,3.4691
1681.00,3.4528
1680.00,3.4620
1679.00,3.4890
1678.00,3.5168
1677.00,3.5315
1676.00,3.5300
1675.00,3.5149
1674.00,3.4882
1673.00,3.4522
1672.00,3.4125
1671.00,3.3730
1670.00,3.3332
1669.00,3.2916
1668.00,3.2485
1667.00,3.2053
1666.00,3.1617
1665.00,3.1143
1664.00,3.0604
1663.00,3.0001
1662.00,2.9371
1661.00,2.8763
1660.00,2.8195
1659.00,2.7673
1658.00,2.7227
1657.00,2.6902
1656.00,2.6714
1655.00,2.6663
1654.00,2.6724
1653.00,2.6819
1652.00,2.6894
1651.00,2.6953
1650.00,2.7048
1649.00,2.7227
1648.00,2.7489
1647.00,2.7804
1646.00,2.8137
1645.00,2.8457
1644.00,2.8751
1643.00,2.9036
1642.00,2.9341
1641.00,2.9673
1640.00,3.0006
1639.00,3.0311
1638.00,3.0576
1637.00,3.0799
1636.00,3.0969
1635.00,3.1091
1634.00,3.1187
1633.00,3.1279
1632.00,3.1397
1631.00,3.1544
1630.00,3.1684
1629.00,3.1759
1628.00,3.1749
1627.00,3.1705
1626.00,3.1702
1625.00,3.1768
1624.00,3.1881
1623.00,3.2011
1622.00,3.2162
1621.00,3.2337
1620.00,3.2509
1619.00,3.2648
1618.00,3.2744
1617.00,3.2795
1616.00,3.2794
1615.00,3.2733
1614.00,3.2648
1613.00,3.2604
1612.00,3.2634
1611.00,3.2708
1610.00,3.2767
1609.00,3.2780
1608.00,3.2753
1607.00,3.2712
1606.00,3.2691
1605.00,3.2705
1604.00,3.2715
1603.00,3.2677
1602.00,3.2572
1601.00,3.2419
1600.00,3.2235
1599.00,3.2030
1598.00,3.1819
1597.00,3.1622
1596.00,3.1458
1595.00,3.1326
1594.00,3.1208
1593.00,3.1077
1592.00,3.0914
1591.00,3.0724
1590.00,3.0509
1589.00,3.0263
1588.00,2.9972
1587.00,2.9638
1586.00,2.9279
1585.00,2.8929
1584.00,2.8600
1583.00,2.8271
1582.00,2.7914
1581.00,2.7527
1580.00,2.7136
1579.00,2.6763
1578.00,2.6365
1577.00,2.5836
1576.00,2.5117
1575.00,2.4296
1574.00,2.3516
1573.00,2.2831
1572.00,2.2200
1571.00,2.1572
1570.00,2.0934
1569.00,2.0337
1568.00,1.9848
1567.00,1.9506
1566.00,1.9327
1565.00,1.9316
1564.00,1.9463
1563.00,1.9727
1562.00,2.0060
1561.00,2.0460
1560.00,2.1003
1559.00,2.1654
1558.00,2.2298
1557.00,2.2836
1556.00,2.3264
1555.00,2.3696
1554.00,2.4197
1553.00,2.4709
1552.00,2.5162
1551.00,2.5613
1550.00,2.6156
1549.00,2.6767
1548.00,2.7315
1547.00,2.7730
1546.00,2.8094
1545.00,2.8542
1544.00,2.9100
1543.00,2.9689
1542.00,3.0217
1541.00,3.0603
1540.00,3.0813
1539.00,3.0925
1538.00,3.1012
1537.00,3.1094
1536.00,3.1178
1535.00,3.1266
1534.00,3.1394
1533.00,3.1582
1532.00,3.1805
1531.00,3.2007
1530.00,3.2135
1529.00,3.2185
1528.00,3.2222
1527.00,3.2333
1526.00,3.2546
1525.00,3.2779
1524.00,3.2918
1523.00,3.2928
1522.00,3.2877
1521.00,3.2859
1520.00,3.2887
1519.00,3.2941
1518.00,3.3025
1517.00,3.3110
1516.00,3.3134
1515.00,3.3104
1514.00,3.3109
1513.00,3.3196
1512.00,3.3317
1511.00,3.3386
1510.00,3.3395
1509.00,3.3425
1508.00,3.3532
1507.00,3.3621
1506.00,3.3590
1505.00,3.3458
1504.00,3.3297
1503.00,3.3178
1502.00,3.3141
1501.00,3.3157
1500.00,3.3128
1499.00,3.2978
1498.00,3.2744
1497.00,3.2504
1496.00,3.2289
1495.00,3.2069
1494.00,3.1831
1493.00,3.1588
1492.00,3.1342
1491.00,3.1103
1490.00,3.0903
1489.00,3.0757
1488.00,3.0628
1487.00,3.0445
1486.00,3.0154
1485.00,2.9767
1484.00,2.9328
1483.00,2.8880
1482.00,2.8454
1481.00,2.8040
1480.00,2.7584
1479.00,2.7054
1478.00,2.6494
1477.00,2.5998
1476.00,2.5632
1475.00,2.5395
1474.00,2.5289
1473.00,2.5376
1472.00,2.5709
1471.00,2.6256
1470.00,2.6936
1469.00,2.7705
1468.00,2.8560
1467.00,2.9473
1466.00,3.0365
1465.00,3.1135
1464.00,3.1693
1463.00,3.2029
1462.00,3.2231
1461.00,3.2424
1460.00,3.2683
1459.00,3.3038
1458.00,3.3565
1457.00,3.4412
1456.00,3.5552
1455.00,3.6721
1454.00,3.7848
1453.00,3.9097
1452.00,4.0478
1451.00,4.1599
1450.00,4.1907
1449.00,4.1560
1448.00,4.0977
1447.00,4.0045
1446.00,3.8683
1445.00,3.7173
1444.00,3.5798
1443.00,3.4703
1442.00,3.3915
1441.00,3.3385
1440.00,3.3047
1439.00,3.2907
1438.00,3.3063
1437.00,3.3616
1436.00,3.4457
1435.00,3.5321
1434.00,3.6087
1433.00,3.6741
1432.00,3.7166
1431.00,3.7304
1430.00,3.7423
1429.00,3.7839
1428.00,3.8488
1427.00,3.8871
1426.00,3.8682
1425.00,3.8280
1424.00,3.8083
1423.00,3.8100
1422.00,3.8069
1421.00,3.7784
1420.00,3.7213
1419.00,3.6464
1418.00,3.5716
1417.00,3.5068
1416.00,3.4483
1415.00,3.3894
1414.00,3.3305
1413.00,3.2777
1412.00,3.2351
1411.00,3.2028
1410.00,3.1803
1409.00,3.1687
1408.00,3.1703
1407.00,3.1847
1406.00,3.2076
1405.00,3.2338
1404.00,3.2608
1403.00,3.2882
1402.00,3.3147
1401.00,3.3371
1400.00,3.3539
1399.00,3.3660
1398.00,3.3748
1397.00,3.3807
1396.00,3.3857
1395.00,3.3945
1394.00,3.4118
1393.00,3.4364
1392.00,3.4601
1391.00,3.4719
1390.00,3.4671
1389.00,3.4553
1388.00,3.4533
1387.00,3.4672
1386.00,3.4847
1385.00,3.4911
1384.00,3.4877
1383.00,3.4885
1382.00,3.5021
1381.00,3.5233
1380.00,3.5420
1379.00,3.5562
1378.00,3.5703
1377.00,3.5834
1376.00,3.5867
1375.00,3.5731
1374.00,3.5487
1373.00,3.5260
1372.00,3.5123
1371.00,3.5081
1370.00,3.5108
1369.00,3.5124
1368.00,3.5022
1367.00,3.4779
1366.00,3.4488
1365.00,3.4232
1364.00,3.4017
1363.00,3.3818
1362.00,3.3671
1361.00,3.3640
1360.00,3.3675
1359.00,3.3629
1358.00,3.3427
1357.00,3.3136
1356.00,3.2878
1355.00,3.2749
1354.00,3.2795
1353.00,3.3034
1352.00,3.3468
1351.00,3.4078
1350.00,3.4838
1349.00,3.5716
1348.00,3.6618
1347.00,3.7335
1346.00,3.7645
1345.00,3.7509
1344.00,3.7116
1343.00,3.6713
1342.00,3.6472
1341.00,3.6531
1340.00,3.6985
1339.00,3.7717
1338.00,3.8206
1337.00,3.7870
1336.00,3.6900
1335.00,3.5900
1334.00,3.5130
1333.00,3.4521
1332.00,3.3907
1331.00,3.3230
1330.00,3.2570
1329.00,3.2047
1328.00,3.1717
1327.00,3.1558
1326.00,3.1530
1325.00,3.1642
1324.00,3.1941
1323.00,3.2475
1322.00,3.3232
1321.00,3.4121
1320.00,3.4992
1319.00,3.5735
1318.00,3.6357
1317.00,3.6969
1316.00,3.7738
1315.00,3.8863
1314.00,4.0412
1313.00,4.1937
1312.00,4.2446
1311.00,4.1951
1310.00,4.1425
1309.00,4.1175
1308.00,4.0711
1307.00,3.9551
1306.00,3.8084
1305.00,3.6807
1304.00,3.5784
1303.00,3.4877
1302.00,3.3975
1301.00,3.3083
1300.00,3.2256
1299.00,3.1535
1298.00,3.0918
1297.00,3.0385
1296.00,2.9937
1295.00,2.9615
1294.00,2.9460
1293.00,2.9474
1292.00,2.9616
1291.00,2.9837
1290.00,3.0125
1289.00,3.0495
1288.00,3.0948
1287.00,3.1460
1286.00,3.1999
1285.00,3.2538
1284.00,3.3028
1283.00,3.3406
1282.00,3.3669
1281.00,3.3872
1280.00,3.4068
1279.00,3.4287
1278.00,3.4544
1277.00,3.4856
1276.00,3.5222
1275.00,3.5582
1274.00,3.5816
1273.00,3.5844
1272.00,3.5768
1271.00,3.5795
1270.00,3.6071
1269.00,3.6539
1268.00,3.6902
1267.00,3.6905
1266.00,3.6751
1265.00,3.6873
1264.00,3.7402
1263.00,3.8011
1262.00,3.8193
1261.00,3.7908
1260.00,3.7545
1259.00,3.7377
1258.00,3.7476
1257.00,3.7822
1256.00,3.8255
1255.00,3.8420
1254.00,3.8122
1253.00,3.7638
1252.00,3.7293
1251.00,3.7136
1250.00,3.7081
1249.00,3.7071
1248.00,3.7111
1247.00,3.7257
1246.00,3.7555
1245.00,3.8011
1244.00,3.8587
1243.00,3.9005
1242.00,3.8885
1241.00,3.8546
1240.00,3.8431
1239.00,3.8413
1238.00,3.8269
1237.00,3.8111
1236.00,3.8103
1235.00,3.8288
1234.00,3.8630
1233.00,3.8938
1232.00,3.8934
1231.00,3.8620
1230.00,3.8374
1229.00,3.8566
1228.00,3.9272
1227.00,4.0035
1226.00,4.0346
1225.00,4.0775
1224.00,4.1874
1223.00,4.3281
1222.00,4.4005
1221.00,4.3839
1220.00,4.3216
1219.00,4.1974
1218.00,4.0424
1217.00,3.9339
1216.00,3.8932
1215.00,3.9070
1214.00,3.9398
1213.00,3.9373
1212.00,3.9044
1211.00,3.8907
1210.00,3.9148
1209.00,3.9678
1208.00,4.0068
1207.00,3.9814
1206.00,3.9101
1205.00,3.8425
1204.00,3.8057
1203.00,3.8021
1202.00,3.8142
1201.00,3.8215
1200.00,3.8140
1199.00,3.7927
1198.00,3.7674
1197.00,3.7465
1196.00,3.7249
1195.00,3.6898
1194.00,3.6430
1193.00,3.5956
1192.00,3.5506
1191.00,3.5099
1190.00,3.4818
1189.00,3.4756
1188.00,3.4922
1187.00,3.5184
1186.00,3.5317
1185.00,3.5205
1184.00,3.4927
1183.00,3.4600
1182.00,3.4280
1181.00,3.4008
1180.00,3.3821
1179.00,3.3705
1178.00,3.3637
1177.00,3.3633
1176.00,3.3661
1175.00,3.3623
1174.00,3.3519
1173.00,3.3481
1172.00,3.3594
1171.00,3.3807
1170.00,3.3966
1169.00,3.3941
1168.00,3.3779
1167.00,3.3661
1166.00,3.3707
1165.00,3.3879
1164.00,3.4051
1163.00,3.4163
1162.00,3.4264
1161.00,3.4390
1160.00,3.4458
1159.00,3.4412
1158.00,3.4403
1157.00,3.4682
1156.00,3.5359
1155.00,3.6264
1154.00,3.6990
1153.00,3.7214
1152.00,3.7078
1151.00,3.6897
1150.00,3.6707
1149.00,3.6421
1148.00,3.6144
1147.00,3.6091
1146.00,3.6338
1145.00,3.6745
1144.00,3.7080
1143.00,3.7253
1142.00,3.7434
1141.00,3.7880
1140.00,3.8726
1139.00,3.9880
1138.00,4.1057
1137.00,4.1753
1136.00,4.1435
1135.00,4.0507
1134.00,3.9731
1133.00,3.9446
1132.00,3.9823
1131.00,4.0778
1130.00,4.0965
1129.00,3.9709
1128.00,3.8658
1127.00,3.8327
1126.00,3.8612
1125.00,3.9130
1124.00,3.9298
1123.00,3.9215
1122.00,3.9376
1121.00,3.9856
1120.00,4.0593
1119.00,4.1447
1118.00,4.1962
1117.00,4.2262
1116.00,4.2997
1115.00,4.4245
1114.00,4.4330
1113.00,4.2317
1112.00,4.0405
1111.00,3.9227
1110.00,3.8612
1109.00,3.8341
1108.00,3.8342
1107.00,3.8516
1106.00,3.8454
1105.00,3.7918
1104.00,3.7308
1103.00,3.6951
1102.00,3.6803
1101.00,3.6685
1100.00,3.6605
1099.00,3.6773
1098.00,3.7302
1097.00,3.7904
1096.00,3.8126
1095.00,3.8188
1094.00,3.8556
1093.00,3.9064
1092.00,3.9023
1091.00,3.8479
1090.00,3.7911
1089.00,3.7589
1088.00,3.7784
1087.00,3.8625
1086.00,3.9930
1085.00,4.0910
1084.00,4.0563
1083.00,3.9463
1082.00,3.8662
1081.00,3.8383
1080.00,3.8553
1079.00,3.9224
1078.00,4.0247
1077.00,4.0929
1076.00,4.0822
1075.00,4.0139
1074.00,3.9188
1073.00,3.8322
1072.00,3.7743
1071.00,3.7457
1070.00,3.7415
1069.00,3.7575
1068.00,3.7828
1067.00,3.7986
1066.00,3.7853
1065.00,3.7365
1064.00,3.6702
1063.00,3.6178
1062.00,3.5982
1061.00,3.6077
1060.00,3.6312
1059.00,3.6609
1058.00,3.7103
1057.00,3.7908
1056.00,3.8265
1055.00,3.7528
1054.00,3.6647
1053.00,3.6269
1052.00,3.6587
1051.00,3.7632
1050.00,3.8741
1049.00,3.8738
1048.00,3.8044
1047.00,3.7352
1046.00,3.6838
1045.00,3.6545
1044.00,3.6338
1043.00,3.6030
1042.00,3.5567
1041.00,3.5058
1040.00,3.4600
1039.00,3.4197
1038.00,3.3792
1037.00,3.3335
1036.00,3.2862
1035.00,3.2516
1034.00,3.2449
1033.00,3.2703
1032.00,3.3142
1031.00,3.3530
1030.00,3.3765
1029.00,3.3992
1028.00,3.4395
1027.00,3.5006
1026.00,3.5733
1025.00,3.6519
1024.00,3.7442
1023.00,3.8580
1022.00,3.9865
1021.00,4.1230
1020.00,4.3023
1019.00,4.5356
1018.00,4.5181
1017.00,4.2008
1016.00,3.9177
1015.00,3.7545
1014.00,3.6988
1013.00,3.7126
1012.00,3.7491
1011.00,3.7741
1010.00,3.7892
1009.00,3.8053
1008.00,3.8349
1007.00,3.8954
1006.00,3.9361
1005.00,3.9134
1004.00,3.9094
1003.00,3.9468
1002.00,3.9598
1001.00,3.9065
1000.00,3.8369
999.00,3.8134
998.00,3.8652
997.00,3.9868
996.00,4.1040
995.00,4.1311
994.00,4.1039
993.00,4.0789
992.00,4.0655
991.00,4.0468
990.00,4.0170
989.00,3.9883
988.00,3.9593
987.00,3.9153
986.00,3.8650
985.00,3.8365
984.00,3.8430
983.00,3.8774
982.00,3.9281
981.00,3.9808
980.00,3.9977
979.00,3.9810
978.00,3.9778
977.00,4.0078
976.00,4.0342
975.00,4.0540
974.00,4.1064
973.00,4.3141
972.00,4.7337
971.00,4.4295
970.00,4.1790
969.00,4.1011
968.00,4.0860
967.00,4.0975
966.00,4.1085
965.00,4.1488
964.00,4.2142
963.00,4.3003
962.00,4.3460
961.00,4.2477
960.00,4.1288
959.00,4.1100
958.00,4.1178
957.00,4.0411
956.00,3.9732
955.00,3.9726
954.00,4.0093
953.00,4.0550
952.00,4.1019
951.00,4.1072
950.00,4.0620
949.00,4.0516
948.00,4.1133
947.00,4.2234
946.00,4.2940
945.00,4.2127
944.00,4.0386
943.00,3.9008
942.00,3.8500
941.00,3.8829
940.00,3.9537
939.00,3.9768
938.00,3.9170
937.00,3.8338
936.00,3.7810
935.00,3.7793
934.00,3.8333
933.00,3.9359
932.00,4.0246
931.00,3.9941
930.00,3.9103
929.00,3.8685
928.00,3.8759
927.00,3.9222
926.00,4.0004
925.00,4.0932
924.00,4.1681
923.00,4.2026
922.00,4.1759
921.00,4.1300
920.00,4.1475
919.00,4.2521
918.00,4.3463
917.00,4.3710
916.00,4.3610
915.00,4.1964
914.00,4.0306
913.00,3.9859
912.00,4.0621
911.00,4.1280
910.00,4.0412
909.00,3.9847
908.00,4.0738
907.00,4.2840
906.00,4.3177
905.00,4.1014
904.00,3.9163
903.00,3.8296
902.00,3.8295
901.00,3.8696
900.00,3.9087
899.00,3.9372
898.00,3.9623
897.00,3.9881
896.00,4.0175
895.00,4.0436
894.00,4.0757
893.00,4.1613
892.00,4.2455
891.00,4.2006
890.00,4.1250
889.00,4.0764
888.00,4.0541
887.00,4.0546
886.00,4.0516
885.00,4.0584
884.00,4.1318
883.00,4.2375
882.00,4.1914
881.00,4.0170
880.00,3.8600
879.00,3.7907
878.00,3.8139
877.00,3.8787
876.00,3.9299
875.00,3.9443
874.00,3.9204
873.00,3.8792
872.00,3.8303
871.00,3.8114
870.00,3.8630
869.00,3.9486
868.00,3.9898
867.00,3.9765
866.00,3.9226
865.00,3.8399
864.00,3.7568
863.00,3.7035
862.00,3.7120
861.00,3.8000
860.00,3.9303
859.00,4.0493
858.00,4.1183
857.00,4.0350
856.00,3.8784
855.00,3.7568
854.00,3.6818
853.00,3.6363
852.00,3.6012
851.00,3.5850
850.00,3.6125
849.00,3.7108
848.00,3.8742
847.00,4.0295
846.00,4.0360
845.00,3.8830
844.00,3.7697
843.00,3.7786
842.00,3.8745
841.00,3.9383
840.00,3.9598
839.00,3.9865
838.00,3.9146
837.00,3.8263
836.00,3.8458
835.00,3.9852
834.00,4.1144
833.00,4.0581
832.00,3.9433
831.00,3.8407
830.00,3.7767
829.00,3.7713
828.00,3.8153
827.00,3.8705
826.00,3.8794
825.00,3.8273
824.00,3.7504
823.00,3.7116
822.00,3.7428
821.00,3.8294
820.00,3.9233
819.00,3.9759
818.00,3.9480
817.00,3.8480
816.00,3.7699
815.00,3.7723
814.00,3.8628
813.00,3.9853
812.00,3.9990
811.00,3.9307
810.00,3.9094
809.00,3.9537
808.00,4.0166
807.00,4.0381
806.00,3.9971
805.00,3.9145
804.00,3.8269
803.00,3.7683
802.00,3.7688
801.00,3.8417
800.00,3.9490
799.00,3.9784
798.00,3.9282
797.00,3.9357
796.00,4.0485
795.00,4.2446
794.00,4.4811
793.00,4.6036
792.00,4.5359
791.00,4.4056
790.00,4.2901
789.00,4.2003
788.00,4.0768
787.00,3.9417
786.00,3.8566
785.00,3.8517
784.00,3.9071
783.00,4.0068
782.00,4.1559
781.00,4.4620
780.00,4.8918
779.00,4.4503
778.00,4.1869
777.00,4.0534
776.00,3.9415
775.00,3.9187
774.00,4.0316
773.00,4.3094
772.00,4.5234
771.00,4.2813
770.00,4.0393
769.00,3.9705
768.00,4.0518
767.00,4.1133
766.00,4.0403
765.00,3.9557
764.00,3.8987
763.00,3.9082
762.00,4.0749
761.00,4.2500
760.00,4.1706
759.00,4.1113
758.00,4.2577
757.00,4.7687
756.00,4.6426
755.00,4.3984
754.00,4.1829
753.00,3.9165
752.00,3.8190
751.00,3.8475
750.00,3.9558
749.00,4.0593
748.00,4.0555
747.00,4.0056
746.00,3.9875
745.00,3.9754
744.00,3.9337
743.00,3.8970
742.00,3.9207
741.00,4.0260
740.00,4.1998
739.00,4.2904
738.00,4.1812
737.00,4.0834
736.00,4.0375
735.00,4.0010
734.00,3.9949
733.00,4.0228
732.00,4.0484
731.00,4.0095
730.00,3.9333
729.00,3.9181
728.00,3.9543
727.00,3.9766
726.00,3.9326
725.00,3.8501
724.00,3.8635
723.00,3.9891
722.00,4.0732
721.00,4.0502
720.00,3.9808
719.00,3.9035
718.00,3.8495
717.00,3.8048
716.00,3.7622
715.00,3.7516
714.00,3.8064
713.00,3.9431
712.00,4.0756
711.00,4.0817
710.00,3.9443
709.00,3.8640
708.00,3.8434
707.00,4.0141
706.00,4.6657
705.00,4.2567
704.00,4.0638
703.00,4.1797
702.00,4.0593
701.00,3.8619
700.00,3.7443
