Created as New Dataset,Sample 060 By Administrator Date Wednesday, November 24 2021
cm-1,A
7502.00,0.7985
7501.00,0.7965
7500.00,0.7946
7499.00,0.7928
7498.00,0.7911
7497.00,0.7900
7496.00,0.7894
7495.00,0.7895
7494.00,0.7903
7493.00,0.7919
7492.00,0.7946
7491.00,0.7981
7490.00,0.8019
7489.00,0.8058
7488.00,0.8098
7487.00,0.8142
7486.00,0.8189
7485.00,0.8238
7484.00,0.8287
7483.00,0.8340
7482.00,0.8401
7481.00,0.8469
7480.00,0.8542
7479.00,0.8613
7478.00,0.8682
7477.00,0.8751
7476.00,0.8826
7475.00,0.8909
7474.00,0.8997
7473.00,0.9085
7472.00,0.9172
7471.00,0.9257
7470.00,0.9341
7469.00,0.9421
7468.00,0.9497
7467.00,0.9576
7466.00,0.9659
7465.00,0.9747
7464.00,0.9834
7463.00,0.9917
7462.00,0.9994
7461.00,1.0064
7460.00,1.0130
7459.00,1.0193
7458.00,1.0254
7457.00,1.0317
7456.00,1.0384
7455.00,1.0456
7454.00,1.0532
7453.00,1.0608
7452.00,1.0678
7451.00,1.0736
7450.00,1.0781
7449.00,1.0816
7448.00,1.0849
7447.00,1.0885
7446.00,1.0921
7445.00,1.0955
7444.00,1.0982
7443.00,1.1006
7442.00,1.1026
7441.00,1.1044
7440.00,1.1060
7439.00,1.1069
7438.00,1.1072
7437.00,1.1065
7436.00,1.1051
7435.00,1.1033
7434.00,1.1013
7433.00,1.0992
7432.00,1.0970
7431.00,1.0948
7430.00,1.0925
7429.00,1.0905
7428.00,1.0892
7427.00,1.0888
7426.00,1.0887
7425.00,1.0882
7424.00,1.0867
7423.00,1.0845
7422.00,1.0815
7421.00,1.0775
7420.00,1.0722
7419.00,1.0656
7418.00,1.0580
7417.00,1.0497
7416.00,1.0412
7415.00,1.0331
7414.00,1.0259
7413.00,1.0195
7412.00,1.0140
7411.00,1.0089
7410.00,1.0042
7409.00,0.9999
7408.00,0.9963
7407.00,0.9933
7406.00,0.9904
7405.00,0.9868
7404.00,0.9826
7403.00,0.9782
7402.00,0.9738
7401.00,0.9689
7400.00,0.9629
7399.00,0.9557
7398.00,0.9479
7397.00,0.9399
7396.00,0.9322
7395.00,0.9248
7394.00,0.9176
7393.00,0.9101
7392.00,0.9021
7391.00,0.8938
7390.00,0.8859
7389.00,0.8788
7388.00,0.8720
7387.00,0.8650
7386.00,0.8578
7385.00,0.8508
7384.00,0.8442
7383.00,0.8380
7382.00,0.8318
7381.00,0.8252
7380.00,0.8186
7379.00,0.8127
7378.00,0.8075
7377.00,0.8024
7376.00,0.7971
7375.00,0.7917
7374.00,0.7867
7373.00,0.7825
7372.00,0.7789
7371.00,0.7757
7370.00,0.7733
7369.00,0.7718
7368.00,0.7712
7367.00,0.7711
7366.00,0.7713
7365.00,0.7720
7364.00,0.7731
7363.00,0.7749
7362.00,0.7772
7361.00,0.7803
7360.00,0.7838
7359.00,0.7874
7358.00,0.7913
7357.00,0.7957
7356.00,0.8009
7355.00,0.8066
7354.00,0.8126
7353.00,0.8190
7352.00,0.8259
7351.00,0.8331
7350.00,0.8404
7349.00,0.8478
7348.00,0.8555
7347.00,0.8634
7346.00,0.8715
7345.00,0.8800
7344.00,0.8890
7343.00,0.8983
7342.00,0.9075
7341.00,0.9163
7340.00,0.9249
7339.00,0.9335
7338.00,0.9418
7337.00,0.9497
7336.00,0.9577
7335.00,0.9665
7334.00,0.9760
7333.00,0.9857
7332.00,0.9950
7331.00,1.0038
7330.00,1.0123
7329.00,1.0209
7328.00,1.0294
7327.00,1.0377
7326.00,1.0458
7325.00,1.0540
7324.00,1.0625
7323.00,1.0709
7322.00,1.0791
7321.00,1.0873
7320.00,1.0955
7319.00,1.1035
7318.00,1.1110
7317.00,1.1180
7316.00,1.1247
7315.00,1.1312
7314.00,1.1373
7313.00,1.1428
7312.00,1.1477
7311.00,1.1524
7310.00,1.1568
7309.00,1.1607
7308.00,1.1644
7307.00,1.1682
7306.00,1.1721
7305.00,1.1758
7304.00,1.1788
7303.00,1.1813
7302.00,1.1836
7301.00,1.1861
7300.00,1.1882
7299.00,1.1895
7298.00,1.1899
7297.00,1.1897
7296.00,1.1892
7295.00,1.1886
7294.00,1.1876
7293.00,1.1860
7292.00,1.1834
7291.00,1.1799
7290.00,1.1759
7289.00,1.1721
7288.00,1.1686
7287.00,1.1647
7286.00,1.1603
7285.00,1.1554
7284.00,1.1505
7283.00,1.1458
7282.00,1.1409
7281.00,1.1357
7280.00,1.1300
7279.00,1.1240
7278.00,1.1176
7277.00,1.1107
7276.00,1.1034
7275.00,1.0955
7274.00,1.0870
7273.00,1.0779
7272.00,1.0687
7271.00,1.0596
7270.00,1.0505
7269.00,1.0409
7268.00,1.0312
7267.00,1.0216
7266.00,1.0121
7265.00,1.0023
7264.00,0.9919
7263.00,0.9811
7262.00,0.9703
7261.00,0.9595
7260.00,0.9489
7259.00,0.9384
7258.00,0.9282
7257.00,0.9182
7256.00,0.9084
7255.00,0.8987
7254.00,0.8892
7253.00,0.8801
7252.00,0.8711
7251.00,0.8626
7250.00,0.8544
7249.00,0.8467
7248.00,0.8395
7247.00,0.8327
7246.00,0.8264
7245.00,0.8204
7244.00,0.8146
7243.00,0.8088
7242.00,0.8035
7241.00,0.7990
7240.00,0.7952
7239.00,0.7921
7238.00,0.7895
7237.00,0.7876
7236.00,0.7867
7235.00,0.7863
7234.00,0.7863
7233.00,0.7866
7232.00,0.7872
7231.00,0.7883
7230.00,0.7900
7229.00,0.7926
7228.00,0.7959
7227.00,0.7998
7226.00,0.8042
7225.00,0.8091
7224.00,0.8145
7223.00,0.8202
7222.00,0.8260
7221.00,0.8320
7220.00,0.8384
7219.00,0.8453
7218.00,0.8525
7217.00,0.8597
7216.00,0.8670
7215.00,0.8746
7214.00,0.8825
7213.00,0.8906
7212.00,0.8988
7211.00,0.9070
7210.00,0.9152
7209.00,0.9234
7208.00,0.9318
7207.00,0.9405
7206.00,0.9495
7205.00,0.9587
7204.00,0.9676
7203.00,0.9765
7202.00,0.9854
7201.00,0.9942
7200.00,1.0028
7199.00,1.0112
7198.00,1.0196
7197.00,1.0280
7196.00,1.0363
7195.00,1.0442
7194.00,1.0520
7193.00,1.0598
7192.00,1.0677
7191.00,1.0754
7190.00,1.0827
7189.00,1.0897
7188.00,1.0965
7187.00,1.1031
7186.00,1.1090
7185.00,1.1143
7184.00,1.1190
7183.00,1.1236
7182.00,1.1284
7181.00,1.1335
7180.00,1.1385
7179.00,1.1435
7178.00,1.1484
7177.00,1.1530
7176.00,1.1568
7175.00,1.1598
7174.00,1.1622
7173.00,1.1642
7172.00,1.1657
7171.00,1.1665
7170.00,1.1669
7169.00,1.1674
7168.00,1.1681
7167.00,1.1686
7166.00,1.1686
7165.00,1.1681
7164.00,1.1672
7163.00,1.1658
7162.00,1.1637
7161.00,1.1612
7160.00,1.1585
7159.00,1.1556
7158.00,1.1526
7157.00,1.1493
7156.00,1.1455
7155.00,1.1411
7154.00,1.1364
7153.00,1.1317
7152.00,1.1270
7151.00,1.1221
7150.00,1.1169
7149.00,1.1112
7148.00,1.1051
7147.00,1.0986
7146.00,1.0918
7145.00,1.0848
7144.00,1.0772
7143.00,1.0691
7142.00,1.0611
7141.00,1.0534
7140.00,1.0461
7139.00,1.0385
7138.00,1.0301
7137.00,1.0210
7136.00,1.0118
7135.00,1.0026
7134.00,0.9932
7133.00,0.9836
7132.00,0.9737
7131.00,0.9636
7130.00,0.9535
7129.00,0.9436
7128.00,0.9337
7127.00,0.9239
7126.00,0.9140
7125.00,0.9041
7124.00,0.8944
7123.00,0.8849
7122.00,0.8756
7121.00,0.8666
7120.00,0.8577
7119.00,0.8491
7118.00,0.8411
7117.00,0.8336
7116.00,0.8267
7115.00,0.8202
7114.00,0.8139
7113.00,0.8082
7112.00,0.8031
7111.00,0.7985
7110.00,0.7944
7109.00,0.7908
7108.00,0.7876
7107.00,0.7850
7106.00,0.7828
7105.00,0.7811
7104.00,0.7801
7103.00,0.7798
7102.00,0.7801
7101.00,0.7809
7100.00,0.7822
7099.00,0.7840
7098.00,0.7867
7097.00,0.7900
7096.00,0.7940
7095.00,0.7984
7094.00,0.8033
7093.00,0.8088
7092.00,0.8146
7091.00,0.8206
7090.00,0.8267
7089.00,0.8330
7088.00,0.8399
7087.00,0.8473
7086.00,0.8550
7085.00,0.8630
7084.00,0.8714
7083.00,0.8803
7082.00,0.8894
7081.00,0.8986
7080.00,0.9079
7079.00,0.9173
7078.00,0.9266
7077.00,0.9360
7076.00,0.9453
7075.00,0.9546
7074.00,0.9638
7073.00,0.9730
7072.00,0.9819
7071.00,0.9907
7070.00,0.9996
7069.00,1.0087
7068.00,1.0180
7067.00,1.0271
7066.00,1.0359
7065.00,1.0447
7064.00,1.0539
7063.00,1.0634
7062.00,1.0727
7061.00,1.0813
7060.00,1.0894
7059.00,1.0972
7058.00,1.1051
7057.00,1.1133
7056.00,1.1213
7055.00,1.1287
7054.00,1.1353
7053.00,1.1415
7052.00,1.1477
7051.00,1.1538
7050.00,1.1592
7049.00,1.1640
7048.00,1.1686
7047.00,1.1735
7046.00,1.1785
7045.00,1.1830
7044.00,1.1867
7043.00,1.1899
7042.00,1.1928
7041.00,1.1955
7040.00,1.1977
7039.00,1.1994
7038.00,1.2007
7037.00,1.2022
7036.00,1.2039
7035.00,1.2055
7034.00,1.2067
7033.00,1.2071
7032.00,1.2067
7031.00,1.2054
7030.00,1.2034
7029.00,1.2009
7028.00,1.1981
7027.00,1.1949
7026.00,1.1912
7025.00,1.1871
7024.00,1.1832
7023.00,1.1795
7022.00,1.1752
7021.00,1.1701
7020.00,1.1644
7019.00,1.1584
7018.00,1.1521
7017.00,1.1451
7016.00,1.1377
7015.00,1.1304
7014.00,1.1234
7013.00,1.1162
7012.00,1.1082
7011.00,1.0992
7010.00,1.0899
7009.00,1.0808
7008.00,1.0716
7007.00,1.0620
7006.00,1.0519
7005.00,1.0417
7004.00,1.0319
7003.00,1.0220
7002.00,1.0114
7001.00,1.0000
7000.00,0.9883
6999.00,0.9768
6998.00,0.9657
6997.00,0.9548
6996.00,0.9440
6995.00,0.9334
6994.00,0.9229
6993.00,0.9125
6992.00,0.9023
6991.00,0.8925
6990.00,0.8832
6989.00,0.8741
6988.00,0.8652
6987.00,0.8564
6986.00,0.8479
6985.00,0.8396
6984.00,0.8317
6983.00,0.8243
6982.00,0.8176
6981.00,0.8114
6980.00,0.8057
6979.00,0.8006
6978.00,0.7960
6977.00,0.7920
6976.00,0.7887
6975.00,0.7860
6974.00,0.7840
6973.00,0.7826
6972.00,0.7819
6971.00,0.7821
6970.00,0.7830
6969.00,0.7844
6968.00,0.7862
6967.00,0.7886
6966.00,0.7917
6965.00,0.7955
6964.00,0.7996
6963.00,0.8039
6962.00,0.8085
6961.00,0.8138
6960.00,0.8196
6959.00,0.8261
6958.00,0.8329
6957.00,0.8402
6956.00,0.8479
6955.00,0.8558
6954.00,0.8638
6953.00,0.8721
6952.00,0.8805
6951.00,0.8891
6950.00,0.8979
6949.00,0.9069
6948.00,0.9163
6947.00,0.9258
6946.00,0.9354
6945.00,0.9447
6944.00,0.9539
6943.00,0.9631
6942.00,0.9725
6941.00,0.9818
6940.00,0.9912
6939.00,1.0006
6938.00,1.0103
6937.00,1.0199
6936.00,1.0291
6935.00,1.0378
6934.00,1.0465
6933.00,1.0550
6932.00,1.0633
6931.00,1.0716
6930.00,1.0799
6929.00,1.0882
6928.00,1.0962
6927.00,1.1037
6926.00,1.1112
6925.00,1.1187
6924.00,1.1257
6923.00,1.1321
6922.00,1.1380
6921.00,1.1438
6920.00,1.1494
6919.00,1.1548
6918.00,1.1601
6917.00,1.1655
6916.00,1.1708
6915.00,1.1756
6914.00,1.1797
6913.00,1.1833
6912.00,1.1863
6911.00,1.1886
6910.00,1.1903
6909.00,1.1919
6908.00,1.1936
6907.00,1.1954
6906.00,1.1969
6905.00,1.1977
6904.00,1.1979
6903.00,1.1976
6902.00,1.1972
6901.00,1.1965
6900.00,1.1953
6899.00,1.1936
6898.00,1.1913
6897.00,1.1888
6896.00,1.1859
6895.00,1.1826
6894.00,1.1791
6893.00,1.1756
6892.00,1.1720
6891.00,1.1676
6890.00,1.1622
6889.00,1.1561
6888.00,1.1496
6887.00,1.1429
6886.00,1.1358
6885.00,1.1286
6884.00,1.1214
6883.00,1.1143
6882.00,1.1070
6881.00,1.0991
6880.00,1.0904
6879.00,1.0810
6878.00,1.0713
6877.00,1.0614
6876.00,1.0516
6875.00,1.0418
6874.00,1.0320
6873.00,1.0223
6872.00,1.0123
6871.00,1.0022
6870.00,0.9920
6869.00,0.9818
6868.00,0.9715
6867.00,0.9610
6866.00,0.9503
6865.00,0.9397
6864.00,0.9293
6863.00,0.9191
6862.00,0.9088
6861.00,0.8984
6860.00,0.8880
6859.00,0.8780
6858.00,0.8683
6857.00,0.8589
6856.00,0.8498
6855.00,0.8410
6854.00,0.8326
6853.00,0.8247
6852.00,0.8174
6851.00,0.8106
6850.00,0.8045
6849.00,0.7989
6848.00,0.7940
6847.00,0.7896
6846.00,0.7859
6845.00,0.7828
6844.00,0.7803
6843.00,0.7782
6842.00,0.7767
6841.00,0.7758
6840.00,0.7756
6839.00,0.7760
6838.00,0.7771
6837.00,0.7789
6836.00,0.7813
6835.00,0.7842
6834.00,0.7878
6833.00,0.7920
6832.00,0.7967
6831.00,0.8018
6830.00,0.8075
6829.00,0.8136
6828.00,0.8201
6827.00,0.8268
6826.00,0.8338
6825.00,0.8413
6824.00,0.8492
6823.00,0.8574
6822.00,0.8658
6821.00,0.8744
6820.00,0.8834
6819.00,0.8926
6818.00,0.9020
6817.00,0.9117
6816.00,0.9215
6815.00,0.9314
6814.00,0.9416
6813.00,0.9517
6812.00,0.9617
6811.00,0.9715
6810.00,0.9810
6809.00,0.9906
6808.00,1.0002
6807.00,1.0101
6806.00,1.0202
6805.00,1.0304
6804.00,1.0404
6803.00,1.0501
6802.00,1.0594
6801.00,1.0682
6800.00,1.0766
6799.00,1.0847
6798.00,1.0929
6797.00,1.1011
6796.00,1.1092
6795.00,1.1171
6794.00,1.1248
6793.00,1.1325
6792.00,1.1400
6791.00,1.1474
6790.00,1.1546
6789.00,1.1614
6788.00,1.1679
6787.00,1.1741
6786.00,1.1802
6785.00,1.1861
6784.00,1.1915
6783.00,1.1964
6782.00,1.2009
6781.00,1.2050
6780.00,1.2083
6779.00,1.2107
6778.00,1.2124
6777.00,1.2139
6776.00,1.2152
6775.00,1.2164
6774.00,1.2177
6773.00,1.2192
6772.00,1.2203
6771.00,1.2208
6770.00,1.2206
6769.00,1.2198
6768.00,1.2181
6767.00,1.2156
6766.00,1.2125
6765.00,1.2092
6764.00,1.2059
6763.00,1.2025
6762.00,1.1989
6761.00,1.1953
6760.00,1.1915
6759.00,1.1869
6758.00,1.1814
6757.00,1.1751
6756.00,1.1683
6755.00,1.1612
6754.00,1.1538
6753.00,1.1465
6752.00,1.1394
6751.00,1.1323
6750.00,1.1248
6749.00,1.1166
6748.00,1.1076
6747.00,1.0979
6746.00,1.0877
6745.00,1.0773
6744.00,1.0668
6743.00,1.0563
6742.00,1.0457
6741.00,1.0350
6740.00,1.0242
6739.00,1.0133
6738.00,1.0022
6737.00,0.9910
6736.00,0.9795
6735.00,0.9680
6734.00,0.9565
6733.00,0.9451
6732.00,0.9339
6731.00,0.9228
6730.00,0.9118
6729.00,0.9010
6728.00,0.8906
6727.00,0.8805
6726.00,0.8706
6725.00,0.8611
6724.00,0.8518
6723.00,0.8430
6722.00,0.8349
6721.00,0.8273
6720.00,0.8201
6719.00,0.8130
6718.00,0.8064
6717.00,0.8004
6716.00,0.7951
6715.00,0.7904
6714.00,0.7865
6713.00,0.7835
6712.00,0.7813
6711.00,0.7795
6710.00,0.7781
6709.00,0.7771
6708.00,0.7769
6707.00,0.7774
6706.00,0.7788
6705.00,0.7809
6704.00,0.7837
6703.00,0.7871
6702.00,0.7912
6701.00,0.7957
6700.00,0.8005
6699.00,0.8058
6698.00,0.8117
6697.00,0.8183
6696.00,0.8254
6695.00,0.8329
6694.00,0.8407
6693.00,0.8488
6692.00,0.8570
6691.00,0.8653
6690.00,0.8739
6689.00,0.8826
6688.00,0.8916
6687.00,0.9007
6686.00,0.9100
6685.00,0.9197
6684.00,0.9296
6683.00,0.9398
6682.00,0.9501
6681.00,0.9606
6680.00,0.9711
6679.00,0.9814
6678.00,0.9913
6677.00,1.0008
6676.00,1.0102
6675.00,1.0195
6674.00,1.0289
6673.00,1.0386
6672.00,1.0483
6671.00,1.0581
6670.00,1.0676
6669.00,1.0770
6668.00,1.0861
6667.00,1.0948
6666.00,1.1032
6665.00,1.1112
6664.00,1.1188
6663.00,1.1263
6662.00,1.1336
6661.00,1.1408
6660.00,1.1478
6659.00,1.1544
6658.00,1.1608
6657.00,1.1670
6656.00,1.1728
6655.00,1.1782
6654.00,1.1832
6653.00,1.1878
6652.00,1.1920
6651.00,1.1959
6650.00,1.1994
6649.00,1.2026
6648.00,1.2052
6647.00,1.2071
6646.00,1.2085
6645.00,1.2096
6644.00,1.2101
6643.00,1.2101
6642.00,1.2096
6641.00,1.2091
6640.00,1.2086
6639.00,1.2079
6638.00,1.2069
6637.00,1.2058
6636.00,1.2045
6635.00,1.2027
6634.00,1.2000
6633.00,1.1964
6632.00,1.1922
6631.00,1.1876
6630.00,1.1829
6629.00,1.1781
6628.00,1.1733
6627.00,1.1685
6626.00,1.1636
6625.00,1.1583
6624.00,1.1525
6623.00,1.1459
6622.00,1.1385
6621.00,1.1305
6620.00,1.1222
6619.00,1.1136
6618.00,1.1047
6617.00,1.0957
6616.00,1.0866
6615.00,1.0773
6614.00,1.0679
6613.00,1.0582
6612.00,1.0483
6611.00,1.0382
6610.00,1.0279
6609.00,1.0175
6608.00,1.0069
6607.00,0.9961
6606.00,0.9851
6605.00,0.9741
6604.00,0.9630
6603.00,0.9519
6602.00,0.9407
6601.00,0.9295
6600.00,0.9184
6599.00,0.9073
6598.00,0.8965
6597.00,0.8861
6596.00,0.8760
6595.00,0.8662
6594.00,0.8566
6593.00,0.8472
6592.00,0.8383
6591.00,0.8299
6590.00,0.8217
6589.00,0.8139
6588.00,0.8068
6587.00,0.8003
6586.00,0.7945
6585.00,0.7892
6584.00,0.7844
6583.00,0.7801
6582.00,0.7765
6581.00,0.7736
6580.00,0.7715
6579.00,0.7702
6578.00,0.7695
6577.00,0.7695
6576.00,0.7702
6575.00,0.7717
6574.00,0.7739
6573.00,0.7767
6572.00,0.7800
6571.00,0.7837
6570.00,0.7880
6569.00,0.7929
6568.00,0.7985
6567.00,0.8046
6566.00,0.8112
6565.00,0.8183
6564.00,0.8257
6563.00,0.8336
6562.00,0.8418
6561.00,0.8502
6560.00,0.8590
6559.00,0.8683
6558.00,0.8781
6557.00,0.8881
6556.00,0.8982
6555.00,0.9084
6554.00,0.9186
6553.00,0.9290
6552.00,0.9393
6551.00,0.9498
6550.00,0.9603
6549.00,0.9709
6548.00,0.9813
6547.00,0.9914
6546.00,1.0014
6545.00,1.0113
6544.00,1.0211
6543.00,1.0311
6542.00,1.0413
6541.00,1.0517
6540.00,1.0622
6539.00,1.0727
6538.00,1.0830
6537.00,1.0930
6536.00,1.1024
6535.00,1.1114
6534.00,1.1203
6533.00,1.1290
6532.00,1.1375
6531.00,1.1459
6530.00,1.1543
6529.00,1.1624
6528.00,1.1698
6527.00,1.1763
6526.00,1.1823
6525.00,1.1880
6524.00,1.1935
6523.00,1.1988
6522.00,1.2041
6521.00,1.2093
6520.00,1.2141
6519.00,1.2184
6518.00,1.2223
6517.00,1.2262
6516.00,1.2298
6515.00,1.2330
6514.00,1.2356
6513.00,1.2377
6512.00,1.2394
6511.00,1.2403
6510.00,1.2403
6509.00,1.2398
6508.00,1.2394
6507.00,1.2394
6506.00,1.2392
6505.00,1.2383
6504.00,1.2366
6503.00,1.2342
6502.00,1.2313
6501.00,1.2280
6500.00,1.2243
6499.00,1.2203
6498.00,1.2160
6497.00,1.2114
6496.00,1.2062
6495.00,1.2005
6494.00,1.1944
6493.00,1.1877
6492.00,1.1805
6491.00,1.1732
6490.00,1.1660
6489.00,1.1587
6488.00,1.1508
6487.00,1.1421
6486.00,1.1329
6485.00,1.1233
6484.00,1.1132
6483.00,1.1028
6482.00,1.0921
6481.00,1.0814
6480.00,1.0707
6479.00,1.0597
6478.00,1.0484
6477.00,1.0368
6476.00,1.0248
6475.00,1.0124
6474.00,1.0000
6473.00,0.9879
6472.00,0.9760
6471.00,0.9642
6470.00,0.9526
6469.00,0.9411
6468.00,0.9295
6467.00,0.9178
6466.00,0.9061
6465.00,0.8946
6464.00,0.8833
6463.00,0.8724
6462.00,0.8619
6461.00,0.8519
6460.00,0.8424
6459.00,0.8333
6458.00,0.8249
6457.00,0.8172
6456.00,0.8102
6455.00,0.8035
6454.00,0.7973
6453.00,0.7916
6452.00,0.7867
6451.00,0.7825
6450.00,0.7790
6449.00,0.7762
6448.00,0.7743
6447.00,0.7731
6446.00,0.7728
6445.00,0.7732
6444.00,0.7741
6443.00,0.7756
6442.00,0.7779
6441.00,0.7811
6440.00,0.7848
6439.00,0.7891
6438.00,0.7938
6437.00,0.7991
6436.00,0.8052
6435.00,0.8117
6434.00,0.8187
6433.00,0.8262
6432.00,0.8344
6431.00,0.8430
6430.00,0.8518
6429.00,0.8609
6428.00,0.8701
6427.00,0.8795
6426.00,0.8889
6425.00,0.8985
6424.00,0.9083
6423.00,0.9184
6422.00,0.9288
6421.00,0.9394
6420.00,0.9501
6419.00,0.9608
6418.00,0.9716
6417.00,0.9824
6416.00,0.9931
6415.00,1.0037
6414.00,1.0140
6413.00,1.0243
6412.00,1.0345
6411.00,1.0448
6410.00,1.0548
6409.00,1.0647
6408.00,1.0745
6407.00,1.0842
6406.00,1.0940
6405.00,1.1035
6404.00,1.1126
6403.00,1.1211
6402.00,1.1292
6401.00,1.1372
6400.00,1.1450
6399.00,1.1528
6398.00,1.1604
6397.00,1.1679
6396.00,1.1751
6395.00,1.1819
6394.00,1.1880
6393.00,1.1934
6392.00,1.1982
6391.00,1.2025
6390.00,1.2066
6389.00,1.2106
6388.00,1.2146
6387.00,1.2184
6386.00,1.2216
6385.00,1.2245
6384.00,1.2270
6383.00,1.2292
6382.00,1.2308
6381.00,1.2317
6380.00,1.2320
6379.00,1.2321
6378.00,1.2321
6377.00,1.2318
6376.00,1.2306
6375.00,1.2287
6374.00,1.2262
6373.00,1.2237
6372.00,1.2214
6371.00,1.2189
6370.00,1.2160
6369.00,1.2125
6368.00,1.2086
6367.00,1.2043
6366.00,1.1996
6365.00,1.1944
6364.00,1.1889
6363.00,1.1833
6362.00,1.1777
6361.00,1.1718
6360.00,1.1651
6359.00,1.1573
6358.00,1.1489
6357.00,1.1405
6356.00,1.1321
6355.00,1.1236
6354.00,1.1147
6353.00,1.1054
6352.00,1.0958
6351.00,1.0859
6350.00,1.0755
6349.00,1.0648
6348.00,1.0538
6347.00,1.0425
6346.00,1.0311
6345.00,1.0196
6344.00,1.0080
6343.00,0.9962
6342.00,0.9844
6341.00,0.9726
6340.00,0.9609
6339.00,0.9491
6338.00,0.9374
6337.00,0.9257
6336.00,0.9140
6335.00,0.9025
6334.00,0.8912
6333.00,0.8804
6332.00,0.8698
6331.00,0.8595
6330.00,0.8496
6329.00,0.8400
6328.00,0.8309
6327.00,0.8221
6326.00,0.8137
6325.00,0.8061
6324.00,0.7991
6323.00,0.7927
6322.00,0.7870
6321.00,0.7819
6320.00,0.7776
6319.00,0.7739
6318.00,0.7709
6317.00,0.7687
6316.00,0.7674
6315.00,0.7669
6314.00,0.7672
6313.00,0.7683
6312.00,0.7702
6311.00,0.7727
6310.00,0.7758
6309.00,0.7795
6308.00,0.7838
6307.00,0.7887
6306.00,0.7943
6305.00,0.8005
6304.00,0.8073
6303.00,0.8146
6302.00,0.8225
6301.00,0.8308
6300.00,0.8393
6299.00,0.8482
6298.00,0.8573
6297.00,0.8668
6296.00,0.8767
6295.00,0.8869
6294.00,0.8972
6293.00,0.9076
6292.00,0.9181
6291.00,0.9289
6290.00,0.9398
6289.00,0.9507
6288.00,0.9615
6287.00,0.9725
6286.00,0.9836
6285.00,0.9948
6284.00,1.0059
6283.00,1.0170
6282.00,1.0281
6281.00,1.0393
6280.00,1.0504
6279.00,1.0615
6278.00,1.0723
6277.00,1.0829
6276.00,1.0933
6275.00,1.1035
6274.00,1.1136
6273.00,1.1236
6272.00,1.1334
6271.00,1.1430
6270.00,1.1521
6269.00,1.1606
6268.00,1.1686
6267.00,1.1764
6266.00,1.1842
6265.00,1.1917
6264.00,1.1988
6263.00,1.2057
6262.00,1.2125
6261.00,1.2190
6260.00,1.2249
6259.00,1.2303
6258.00,1.2356
6257.00,1.2406
6256.00,1.2452
6255.00,1.2490
6254.00,1.2522
6253.00,1.2549
6252.00,1.2572
6251.00,1.2593
6250.00,1.2611
6249.00,1.2626
6248.00,1.2639
6247.00,1.2647
6246.00,1.2650
6245.00,1.2649
6244.00,1.2640
6243.00,1.2626
6242.00,1.2608
6241.00,1.2588
6240.00,1.2564
6239.00,1.2534
6238.00,1.2500
6237.00,1.2462
6236.00,1.2420
6235.00,1.2373
6234.00,1.2322
6233.00,1.2268
6232.00,1.2210
6231.00,1.2145
6230.00,1.2074
6229.00,1.1998
6228.00,1.1918
6227.00,1.1836
6226.00,1.1750
6225.00,1.1661
6224.00,1.1569
6223.00,1.1475
6222.00,1.1379
6221.00,1.1278
6220.00,1.1173
6219.00,1.1064
6218.00,1.0952
6217.00,1.0837
6216.00,1.0718
6215.00,1.0594
6214.00,1.0467
6213.00,1.0340
6212.00,1.0212
6211.00,1.0083
6210.00,0.9952
6209.00,0.9820
6208.00,0.9690
6207.00,0.9562
6206.00,0.9435
6205.00,0.9310
6204.00,0.9186
6203.00,0.9063
6202.00,0.8942
6201.00,0.8825
6200.00,0.8711
6199.00,0.8601
6198.00,0.8497
6197.00,0.8398
6196.00,0.8305
6195.00,0.8216
6194.00,0.8132
6193.00,0.8055
6192.00,0.7984
6191.00,0.7919
6190.00,0.7861
6189.00,0.7811
6188.00,0.7768
6187.00,0.7734
6186.00,0.7708
6185.00,0.7690
6184.00,0.7679
6183.00,0.7676
6182.00,0.7681
6181.00,0.7693
6180.00,0.7713
6179.00,0.7740
6178.00,0.7775
6177.00,0.7818
6176.00,0.7869
6175.00,0.7925
6174.00,0.7986
6173.00,0.8052
6172.00,0.8123
6171.00,0.8200
6170.00,0.8282
6169.00,0.8370
6168.00,0.8462
6167.00,0.8556
6166.00,0.8653
6165.00,0.8752
6164.00,0.8854
6163.00,0.8959
6162.00,0.9067
6161.00,0.9178
6160.00,0.9290
6159.00,0.9401
6158.00,0.9512
6157.00,0.9623
6156.00,0.9732
6155.00,0.9840
6154.00,0.9950
6153.00,1.0060
6152.00,1.0171
6151.00,1.0280
6150.00,1.0387
6149.00,1.0494
6148.00,1.0598
6147.00,1.0700
6146.00,1.0799
6145.00,1.0898
6144.00,1.0998
6143.00,1.1098
6142.00,1.1195
6141.00,1.1289
6140.00,1.1380
6139.00,1.1467
6138.00,1.1551
6137.00,1.1631
6136.00,1.1710
6135.00,1.1789
6134.00,1.1867
6133.00,1.1941
6132.00,1.2010
6131.00,1.2073
6130.00,1.2133
6129.00,1.2190
6128.00,1.2244
6127.00,1.2293
6126.00,1.2337
6125.00,1.2377
6124.00,1.2412
6123.00,1.2442
6122.00,1.2470
6121.00,1.2494
6120.00,1.2515
6119.00,1.2532
6118.00,1.2545
6117.00,1.2555
6116.00,1.2563
6115.00,1.2568
6114.00,1.2571
6113.00,1.2570
6112.00,1.2564
6111.00,1.2552
6110.00,1.2534
6109.00,1.2512
6108.00,1.2485
6107.00,1.2455
6106.00,1.2423
6105.00,1.2388
6104.00,1.2348
6103.00,1.2301
6102.00,1.2250
6101.00,1.2195
6100.00,1.2136
6099.00,1.2070
6098.00,1.2000
6097.00,1.1928
6096.00,1.1852
6095.00,1.1770
6094.00,1.1682
6093.00,1.1591
6092.00,1.1498
6091.00,1.1402
6090.00,1.1304
6089.00,1.1203
6088.00,1.1100
6087.00,1.0994
6086.00,1.0884
6085.00,1.0769
6084.00,1.0650
6083.00,1.0526
6082.00,1.0400
6081.00,1.0273
6080.00,1.0145
6079.00,1.0015
6078.00,0.9883
6077.00,0.9752
6076.00,0.9621
6075.00,0.9491
6074.00,0.9362
6073.00,0.9234
6072.00,0.9109
6071.00,0.8987
6070.00,0.8868
6069.00,0.8752
6068.00,0.8639
6067.00,0.8532
6066.00,0.8429
6065.00,0.8332
6064.00,0.8239
6063.00,0.8151
6062.00,0.8069
6061.00,0.7992
6060.00,0.7922
6059.00,0.7858
6058.00,0.7803
6057.00,0.7756
6056.00,0.7718
6055.00,0.7688
6054.00,0.7667
6053.00,0.7653
6052.00,0.7649
6051.00,0.7654
6050.00,0.7667
6049.00,0.7688
6048.00,0.7717
6047.00,0.7754
6046.00,0.7798
6045.00,0.7847
6044.00,0.7903
6043.00,0.7965
6042.00,0.8035
6041.00,0.8114
6040.00,0.8197
6039.00,0.8283
6038.00,0.8374
6037.00,0.8468
6036.00,0.8564
6035.00,0.8663
6034.00,0.8767
6033.00,0.8875
6032.00,0.8987
6031.00,0.9101
6030.00,0.9216
6029.00,0.9332
6028.00,0.9448
6027.00,0.9564
6026.00,0.9679
6025.00,0.9796
6024.00,0.9914
6023.00,1.0033
6022.00,1.0151
6021.00,1.0269
6020.00,1.0388
6019.00,1.0507
6018.00,1.0623
6017.00,1.0738
6016.00,1.0851
6015.00,1.0962
6014.00,1.1072
6013.00,1.1179
6012.00,1.1284
6011.00,1.1389
6010.00,1.1492
6009.00,1.1594
6008.00,1.1694
6007.00,1.1790
6006.00,1.1882
6005.00,1.1969
6004.00,1.2049
6003.00,1.2124
6002.00,1.2196
6001.00,1.2265
6000.00,1.2333
5999.00,1.2399
5998.00,1.2465
5997.00,1.2528
5996.00,1.2587
5995.00,1.2640
5994.00,1.2687
5993.00,1.2726
5992.00,1.2759
5991.00,1.2789
5990.00,1.2818
5989.00,1.2845
5988.00,1.2863
5987.00,1.2872
5986.00,1.2875
5985.00,1.2873
5984.00,1.2869
5983.00,1.2864
5982.00,1.2859
5981.00,1.2855
5980.00,1.2847
5979.00,1.2832
5978.00,1.2808
5977.00,1.2778
5976.00,1.2745
5975.00,1.2709
5974.00,1.2672
5973.00,1.2633
5972.00,1.2586
5971.00,1.2529
5970.00,1.2465
5969.00,1.2395
5968.00,1.2322
5967.00,1.2246
5966.00,1.2169
5965.00,1.2093
5964.00,1.2016
5963.00,1.1934
5962.00,1.1845
5961.00,1.1751
5960.00,1.1654
5959.00,1.1552
5958.00,1.1447
5957.00,1.1337
5956.00,1.1223
5955.00,1.1103
5954.00,1.0979
5953.00,1.0850
5952.00,1.0719
5951.00,1.0587
5950.00,1.0454
5949.00,1.0321
5948.00,1.0186
5947.00,1.0051
5946.00,0.9915
5945.00,0.9778
5944.00,0.9642
5943.00,0.9506
5942.00,0.9373
5941.00,0.9242
5940.00,0.9113
5939.00,0.8986
5938.00,0.8863
5937.00,0.8743
5936.00,0.8626
5935.00,0.8513
5934.00,0.8406
5933.00,0.8305
5932.00,0.8210
5931.00,0.8123
5930.00,0.8043
5929.00,0.7973
5928.00,0.7910
5927.00,0.7854
5926.00,0.7807
5925.00,0.7767
5924.00,0.7737
5923.00,0.7714
5922.00,0.7702
5921.00,0.7699
5920.00,0.7705
5919.00,0.7719
5918.00,0.7742
5917.00,0.7772
5916.00,0.7810
5915.00,0.7855
5914.00,0.7907
5913.00,0.7967
5912.00,0.8034
5911.00,0.8107
5910.00,0.8187
5909.00,0.8272
5908.00,0.8361
5907.00,0.8454
5906.00,0.8551
5905.00,0.8653
5904.00,0.8758
5903.00,0.8868
5902.00,0.8980
5901.00,0.9095
5900.00,0.9212
5899.00,0.9329
5898.00,0.9447
5897.00,0.9567
5896.00,0.9687
5895.00,0.9810
5894.00,0.9935
5893.00,1.0061
5892.00,1.0187
5891.00,1.0310
5890.00,1.0432
5889.00,1.0552
5888.00,1.0670
5887.00,1.0788
5886.00,1.0906
5885.00,1.1024
5884.00,1.1140
5883.00,1.1255
5882.00,1.1367
5881.00,1.1477
5880.00,1.1585
5879.00,1.1693
5878.00,1.1801
5877.00,1.1909
5876.00,1.2010
5875.00,1.2105
5874.00,1.2195
5873.00,1.2282
5872.00,1.2366
5871.00,1.2446
5870.00,1.2523
5869.00,1.2596
5868.00,1.2664
5867.00,1.2726
5866.00,1.2782
5865.00,1.2836
5864.00,1.2887
5863.00,1.2937
5862.00,1.2981
5861.00,1.3021
5860.00,1.3053
5859.00,1.3080
5858.00,1.3102
5857.00,1.3121
5856.00,1.3138
5855.00,1.3154
5854.00,1.3165
5853.00,1.3171
5852.00,1.3171
5851.00,1.3166
5850.00,1.3154
5849.00,1.3137
5848.00,1.3116
5847.00,1.3093
5846.00,1.3068
5845.00,1.3041
5844.00,1.3010
5843.00,1.2973
5842.00,1.2930
5841.00,1.2881
5840.00,1.2824
5839.00,1.2763
5838.00,1.2698
5837.00,1.2630
5836.00,1.2559
5835.00,1.2485
5834.00,1.2408
5833.00,1.2327
5832.00,1.2241
5831.00,1.2150
5830.00,1.2055
5829.00,1.1957
5828.00,1.1855
5827.00,1.1747
5826.00,1.1634
5825.00,1.1519
5824.00,1.1401
5823.00,1.1280
5822.00,1.1155
5821.00,1.1028
5820.00,1.0896
5819.00,1.0761
5818.00,1.0622
5817.00,1.0482
5816.00,1.0341
5815.00,1.0201
5814.00,1.0063
5813.00,0.9926
5812.00,0.9788
5811.00,0.9650
5810.00,0.9512
5809.00,0.9375
5808.00,0.9239
5807.00,0.9107
5806.00,0.8980
5805.00,0.8859
5804.00,0.8742
5803.00,0.8630
5802.00,0.8522
5801.00,0.8420
5800.00,0.8323
5799.00,0.8232
5798.00,0.8148
5797.00,0.8073
5796.00,0.8006
5795.00,0.7946
5794.00,0.7895
5793.00,0.7852
5792.00,0.7819
5791.00,0.7795
5790.00,0.7781
5789.00,0.7776
5788.00,0.7780
5787.00,0.7792
5786.00,0.7812
5785.00,0.7841
5784.00,0.7879
5783.00,0.7924
5782.00,0.7978
5781.00,0.8039
5780.00,0.8107
5779.00,0.8181
5778.00,0.8261
5777.00,0.8347
5776.00,0.8439
5775.00,0.8536
5774.00,0.8637
5773.00,0.8744
5772.00,0.8853
5771.00,0.8967
5770.00,0.9083
5769.00,0.9202
5768.00,0.9322
5767.00,0.9443
5766.00,0.9564
5765.00,0.9688
5764.00,0.9812
5763.00,0.9939
5762.00,1.0070
5761.00,1.0203
5760.00,1.0335
5759.00,1.0465
5758.00,1.0591
5757.00,1.0714
5756.00,1.0835
5755.00,1.0955
5754.00,1.1076
5753.00,1.1199
5752.00,1.1321
5751.00,1.1440
5750.00,1.1555
5749.00,1.1667
5748.00,1.1776
5747.00,1.1883
5746.00,1.1987
5745.00,1.2089
5744.00,1.2187
5743.00,1.2283
5742.00,1.2373
5741.00,1.2460
5740.00,1.2543
5739.00,1.2624
5738.00,1.2701
5737.00,1.2773
5736.00,1.2839
5735.00,1.2900
5734.00,1.2956
5733.00,1.3010
5732.00,1.3061
5731.00,1.3110
5730.00,1.3156
5729.00,1.3198
5728.00,1.3236
5727.00,1.3270
5726.00,1.3297
5725.00,1.3316
5724.00,1.3329
5723.00,1.3335
5722.00,1.3337
5721.00,1.3336
5720.00,1.3332
5719.00,1.3328
5718.00,1.3321
5717.00,1.3311
5716.00,1.3296
5715.00,1.3273
5714.00,1.3243
5713.00,1.3205
5712.00,1.3161
5711.00,1.3114
5710.00,1.3063
5709.00,1.3011
5708.00,1.2956
5707.00,1.2898
5706.00,1.2838
5705.00,1.2772
5704.00,1.2701
5703.00,1.2623
5702.00,1.2539
5701.00,1.2450
5700.00,1.2356
5699.00,1.2256
5698.00,1.2151
5697.00,1.2041
5696.00,1.1927
5695.00,1.1809
5694.00,1.1688
5693.00,1.1563
5692.00,1.1436
5691.00,1.1307
5690.00,1.1176
5689.00,1.1042
5688.00,1.0905
5687.00,1.0765
5686.00,1.0622
5685.00,1.0475
5684.00,1.0325
5683.00,1.0175
5682.00,1.0025
5681.00,0.9876
5680.00,0.9727
5679.00,0.9580
5678.00,0.9435
5677.00,0.9293
5676.00,0.9152
5675.00,0.9015
5674.00,0.8883
5673.00,0.8756
5672.00,0.8634
5671.00,0.8517
5670.00,0.8407
5669.00,0.8304
5668.00,0.8207
5667.00,0.8117
5666.00,0.8035
5665.00,0.7962
5664.00,0.7896
5663.00,0.7839
5662.00,0.7792
5661.00,0.7755
5660.00,0.7727
5659.00,0.7709
5658.00,0.7700
5657.00,0.7702
5656.00,0.7712
5655.00,0.7731
5654.00,0.7760
5653.00,0.7798
5652.00,0.7843
5651.00,0.7897
5650.00,0.7959
5649.00,0.8028
5648.00,0.8103
5647.00,0.8184
5646.00,0.8272
5645.00,0.8366
5644.00,0.8465
5643.00,0.8569
5642.00,0.8678
5641.00,0.8791
5640.00,0.8906
5639.00,0.9023
5638.00,0.9142
5637.00,0.9264
5636.00,0.9389
5635.00,0.9516
5634.00,0.9645
5633.00,0.9775
5632.00,0.9905
5631.00,1.0033
5630.00,1.0162
5629.00,1.0292
5628.00,1.0423
5627.00,1.0554
5626.00,1.0684
5625.00,1.0813
5624.00,1.0940
5623.00,1.1065
5622.00,1.1188
5621.00,1.1310
5620.00,1.1430
5619.00,1.1547
5618.00,1.1659
5617.00,1.1769
5616.00,1.1878
5615.00,1.1987
5614.00,1.2096
5613.00,1.2204
5612.00,1.2308
5611.00,1.2406
5610.00,1.2498
5609.00,1.2585
5608.00,1.2667
5607.00,1.2746
5606.00,1.2822
5605.00,1.2896
5604.00,1.2967
5603.00,1.3033
5602.00,1.3094
5601.00,1.3150
5600.00,1.3199
5599.00,1.3242
5598.00,1.3279
5597.00,1.3314
5596.00,1.3347
5595.00,1.3375
5594.00,1.3398
5593.00,1.3416
5592.00,1.3429
5591.00,1.3436
5590.00,1.3439
5589.00,1.3439
5588.00,1.3438
5587.00,1.3432
5586.00,1.3420
5585.00,1.3401
5584.00,1.3377
5583.00,1.3347
5582.00,1.3313
5581.00,1.3277
5580.00,1.3239
5579.00,1.3198
5578.00,1.3151
5577.00,1.3098
5576.00,1.3041
5575.00,1.2977
5574.00,1.2909
5573.00,1.2835
5572.00,1.2757
5571.00,1.2674
5570.00,1.2587
5569.00,1.2494
5568.00,1.2396
5567.00,1.2294
5566.00,1.2186
5565.00,1.2073
5564.00,1.1956
5563.00,1.1835
5562.00,1.1711
5561.00,1.1584
5560.00,1.1453
5559.00,1.1318
5558.00,1.1177
5557.00,1.1033
5556.00,1.0887
5555.00,1.0739
5554.00,1.0590
5553.00,1.0440
5552.00,1.0290
5551.00,1.0137
5550.00,0.9983
5549.00,0.9828
5548.00,0.9674
5547.00,0.9521
5546.00,0.9371
5545.00,0.9225
5544.00,0.9082
5543.00,0.8943
5542.00,0.8808
5541.00,0.8677
5540.00,0.8553
5539.00,0.8435
5538.00,0.8323
5537.00,0.8220
5536.00,0.8122
5535.00,0.8032
5534.00,0.7949
5533.00,0.7875
5532.00,0.7811
5531.00,0.7757
5530.00,0.7713
5529.00,0.7680
5528.00,0.7657
5527.00,0.7645
5526.00,0.7642
5525.00,0.7650
5524.00,0.7667
5523.00,0.7695
5522.00,0.7731
5521.00,0.7777
5520.00,0.7831
5519.00,0.7893
5518.00,0.7962
5517.00,0.8037
5516.00,0.8120
5515.00,0.8210
5514.00,0.8306
5513.00,0.8406
5512.00,0.8511
5511.00,0.8619
5510.00,0.8731
5509.00,0.8847
5508.00,0.8967
5507.00,0.9089
5506.00,0.9213
5505.00,0.9339
5504.00,0.9466
5503.00,0.9592
5502.00,0.9720
5501.00,0.9848
5500.00,0.9976
5499.00,1.0106
5498.00,1.0235
5497.00,1.0363
5496.00,1.0491
5495.00,1.0619
5494.00,1.0747
5493.00,1.0874
5492.00,1.1000
5491.00,1.1124
5490.00,1.1245
5489.00,1.1363
5488.00,1.1478
5487.00,1.1592
5486.00,1.1704
5485.00,1.1815
5484.00,1.1925
5483.00,1.2034
5482.00,1.2141
5481.00,1.2244
5480.00,1.2344
5479.00,1.2441
5478.00,1.2533
5477.00,1.2621
5476.00,1.2706
5475.00,1.2788
5474.00,1.2867
5473.00,1.2942
5472.00,1.3010
5471.00,1.3072
5470.00,1.3128
5469.00,1.3180
5468.00,1.3229
5467.00,1.3275
5466.00,1.3319
5465.00,1.3359
5464.00,1.3392
5463.00,1.3419
5462.00,1.3440
5461.00,1.3458
5460.00,1.3475
5459.00,1.3489
5458.00,1.3500
5457.00,1.3505
5456.00,1.3504
5455.00,1.3497
5454.00,1.3487
5453.00,1.3474
5452.00,1.3457
5451.00,1.3435
5450.00,1.3406
5449.00,1.3372
5448.00,1.3332
5447.00,1.3287
5446.00,1.3237
5445.00,1.3182
5444.00,1.3119
5443.00,1.3049
5442.00,1.2975
5441.00,1.2899
5440.00,1.2819
5439.00,1.2735
5438.00,1.2646
5437.00,1.2554
5436.00,1.2457
5435.00,1.2354
5434.00,1.2246
5433.00,1.2134
5432.00,1.2017
5431.00,1.1893
5430.00,1.1763
5429.00,1.1626
5428.00,1.1483
5427.00,1.1336
5426.00,1.1186
5425.00,1.1036
5424.00,1.0886
5423.00,1.0735
5422.00,1.0583
5421.00,1.0431
5420.00,1.0278
5419.00,1.0125
5418.00,0.9972
5417.00,0.9817
5416.00,0.9663
5415.00,0.9507
5414.00,0.9351
5413.00,0.9195
5412.00,0.9039
5411.00,0.8888
5410.00,0.8743
5409.00,0.8606
5408.00,0.8476
5407.00,0.8354
5406.00,0.8242
5405.00,0.8138
5404.00,0.8044
5403.00,0.7957
5402.00,0.7880
5401.00,0.7815
5400.00,0.7761
5399.00,0.7717
5398.00,0.7683
5397.00,0.7659
5396.00,0.7644
5395.00,0.7639
5394.00,0.7642
5393.00,0.7656
5392.00,0.7679
5391.00,0.7713
5390.00,0.7757
5389.00,0.7812
5388.00,0.7878
5387.00,0.7953
5386.00,0.8036
5385.00,0.8127
5384.00,0.8225
5383.00,0.8329
5382.00,0.8439
5381.00,0.8553
5380.00,0.8670
5379.00,0.8791
5378.00,0.8915
5377.00,0.9042
5376.00,0.9173
5375.00,0.9306
5374.00,0.9441
5373.00,0.9579
5372.00,0.9717
5371.00,0.9857
5370.00,1.0000
5369.00,1.0146
5368.00,1.0292
5367.00,1.0437
5366.00,1.0580
5365.00,1.0723
5364.00,1.0865
5363.00,1.1006
5362.00,1.1146
5361.00,1.1286
5360.00,1.1425
5359.00,1.1563
5358.00,1.1697
5357.00,1.1825
5356.00,1.1948
5355.00,1.2067
5354.00,1.2183
5353.00,1.2297
5352.00,1.2411
5351.00,1.2524
5350.00,1.2635
5349.00,1.2742
5348.00,1.2842
5347.00,1.2937
5346.00,1.3029
5345.00,1.3118
5344.00,1.3202
5343.00,1.3279
5342.00,1.3348
5341.00,1.3410
5340.00,1.3470
5339.00,1.3528
5338.00,1.3583
5337.00,1.3635
5336.00,1.3680
5335.00,1.3721
5334.00,1.3756
5333.00,1.3785
5332.00,1.3807
5331.00,1.3825
5330.00,1.3839
5329.00,1.3848
5328.00,1.3851
5327.00,1.3851
5326.00,1.3847
5325.00,1.3842
5324.00,1.3833
5323.00,1.3820
5322.00,1.3801
5321.00,1.3777
5320.00,1.3748
5319.00,1.3714
5318.00,1.3674
5317.00,1.3628
5316.00,1.3577
5315.00,1.3521
5314.00,1.3460
5313.00,1.3395
5312.00,1.3327
5311.00,1.3256
5310.00,1.3179
5309.00,1.3095
5308.00,1.3005
5307.00,1.2909
5306.00,1.2807
5305.00,1.2700
5304.00,1.2589
5303.00,1.2474
5302.00,1.2355
5301.00,1.2231
5300.00,1.2101
5299.00,1.1967
5298.00,1.1830
5297.00,1.1691
5296.00,1.1549
5295.00,1.1403
5294.00,1.1253
5293.00,1.1098
5292.00,1.0937
5291.00,1.0773
5290.00,1.0606
5289.00,1.0439
5288.00,1.0273
5287.00,1.0108
5286.00,0.9945
5285.00,0.9783
5284.00,0.9620
5283.00,0.9458
5282.00,0.9298
5281.00,0.9142
5280.00,0.8989
5279.00,0.8841
5278.00,0.8699
5277.00,0.8565
5276.00,0.8439
5275.00,0.8322
5274.00,0.8213
5273.00,0.8112
5272.00,0.8021
5271.00,0.7939
5270.00,0.7868
5269.00,0.7806
5268.00,0.7755
5267.00,0.7713
5266.00,0.7682
5265.00,0.7662
5264.00,0.7653
5263.00,0.7655
5262.00,0.7669
5261.00,0.7693
5260.00,0.7727
5259.00,0.7772
5258.00,0.7826
5257.00,0.7891
5256.00,0.7966
5255.00,0.8050
5254.00,0.8142
5253.00,0.8239
5252.00,0.8341
5251.00,0.8449
5250.00,0.8562
5249.00,0.8682
5248.00,0.8807
5247.00,0.8934
5246.00,0.9065
5245.00,0.9198
5244.00,0.9334
5243.00,0.9472
5242.00,0.9614
5241.00,0.9758
5240.00,0.9903
5239.00,1.0050
5238.00,1.0197
5237.00,1.0344
5236.00,1.0491
5235.00,1.0637
5234.00,1.0783
5233.00,1.0928
5232.00,1.1072
5231.00,1.1217
5230.00,1.1359
5229.00,1.1499
5228.00,1.1634
5227.00,1.1766
5226.00,1.1896
5225.00,1.2025
5224.00,1.2152
5223.00,1.2276
5222.00,1.2396
5221.00,1.2512
5220.00,1.2624
5219.00,1.2731
5218.00,1.2836
5217.00,1.2938
5216.00,1.3040
5215.00,1.3140
5214.00,1.3236
5213.00,1.3326
5212.00,1.3408
5211.00,1.3482
5210.00,1.3549
5209.00,1.3612
5208.00,1.3671
5207.00,1.3728
5206.00,1.3782
5205.00,1.3831
5204.00,1.3875
5203.00,1.3915
5202.00,1.3951
5201.00,1.3984
5200.00,1.4013
5199.00,1.4036
5198.00,1.4053
5197.00,1.4064
5196.00,1.4070
5195.00,1.4072
5194.00,1.4071
5193.00,1.4065
5192.00,1.4054
5191.00,1.4038
5190.00,1.4018
5189.00,1.3993
5188.00,1.3962
5187.00,1.3926
5186.00,1.3881
5185.00,1.3828
5184.00,1.3769
5183.00,1.3705
5182.00,1.3641
5181.00,1.3576
5180.00,1.3509
5179.00,1.3438
5178.00,1.3360
5177.00,1.3275
5176.00,1.3184
5175.00,1.3087
5174.00,1.2984
5173.00,1.2878
5172.00,1.2766
5171.00,1.2648
5170.00,1.2524
5169.00,1.2394
5168.00,1.2259
5167.00,1.2119
5166.00,1.1977
5165.00,1.1833
5164.00,1.1685
5163.00,1.1532
5162.00,1.1375
5161.00,1.1213
5160.00,1.1045
5159.00,1.0875
5158.00,1.0702
5157.00,1.0528
5156.00,1.0354
5155.00,1.0180
5154.00,1.0007
5153.00,0.9834
5152.00,0.9663
5151.00,0.9495
5150.00,0.9331
5149.00,0.9170
5148.00,0.9015
5147.00,0.8864
5146.00,0.8718
5145.00,0.8580
5144.00,0.8449
5143.00,0.8326
5142.00,0.8213
5141.00,0.8110
5140.00,0.8016
5139.00,0.7933
5138.00,0.7860
5137.00,0.7799
5136.00,0.7750
5135.00,0.7713
5134.00,0.7689
5133.00,0.7678
5132.00,0.7678
5131.00,0.7690
5130.00,0.7714
5129.00,0.7749
5128.00,0.7795
5127.00,0.7852
5126.00,0.7919
5125.00,0.7996
5124.00,0.8082
5123.00,0.8176
5122.00,0.8277
5121.00,0.8387
5120.00,0.8503
5119.00,0.8625
5118.00,0.8752
5117.00,0.8883
5116.00,0.9019
5115.00,0.9158
5114.00,0.9300
5113.00,0.9446
5112.00,0.9594
5111.00,0.9744
5110.00,0.9897
5109.00,1.0052
5108.00,1.0208
5107.00,1.0364
5106.00,1.0519
5105.00,1.0673
5104.00,1.0828
5103.00,1.0982
5102.00,1.1136
5101.00,1.1289
5100.00,1.1441
5099.00,1.1590
5098.00,1.1737
5097.00,1.1880
5096.00,1.2022
5095.00,1.2161
5094.00,1.2297
5093.00,1.2430
5092.00,1.2559
5091.00,1.2685
5090.00,1.2808
5089.00,1.2925
5088.00,1.3037
5087.00,1.3146
5086.00,1.3253
5085.00,1.3357
5084.00,1.3457
5083.00,1.3551
5082.00,1.3638
5081.00,1.3719
5080.00,1.3794
5079.00,1.3866
5078.00,1.3936
5077.00,1.4004
5076.00,1.4066
5075.00,1.4120
5074.00,1.4168
5073.00,1.4209
5072.00,1.4244
5071.00,1.4273
5070.00,1.4298
5069.00,1.4320
5068.00,1.4336
5067.00,1.4348
5066.00,1.4356
5065.00,1.4358
5064.00,1.4355
5063.00,1.4348
5062.00,1.4336
5061.00,1.4321
5060.00,1.4302
5059.00,1.4279
5058.00,1.4252
5057.00,1.4220
5056.00,1.4183
5055.00,1.4140
5054.00,1.4091
5053.00,1.4036
5052.00,1.3975
5051.00,1.3908
5050.00,1.3838
5049.00,1.3763
5048.00,1.3685
5047.00,1.3603
5046.00,1.3517
5045.00,1.3425
5044.00,1.3328
5043.00,1.3224
5042.00,1.3115
5041.00,1.3000
5040.00,1.2878
5039.00,1.2749
5038.00,1.2614
5037.00,1.2475
5036.00,1.2332
5035.00,1.2184
5034.00,1.2032
5033.00,1.1875
5032.00,1.1713
5031.00,1.1547
5030.00,1.1377
5029.00,1.1204
5028.00,1.1030
5027.00,1.0853
5026.00,1.0674
5025.00,1.0493
5024.00,1.0310
5023.00,1.0125
5022.00,0.9940
5021.00,0.9757
5020.00,0.9575
5019.00,0.9398
5018.00,0.9226
5017.00,0.9058
5016.00,0.8895
5015.00,0.8738
5014.00,0.8587
5013.00,0.8443
5012.00,0.8308
5011.00,0.8183
5010.00,0.8068
5009.00,0.7965
5008.00,0.7873
5007.00,0.7792
5006.00,0.7723
5005.00,0.7666
5004.00,0.7623
5003.00,0.7593
5002.00,0.7577
5001.00,0.7574
5000.00,0.7584
4999.00,0.7606
4998.00,0.7641
4997.00,0.7688
4996.00,0.7748
4995.00,0.7818
4994.00,0.7899
4993.00,0.7988
4992.00,0.8086
4991.00,0.8191
4990.00,0.8305
4989.00,0.8426
4988.00,0.8553
4987.00,0.8687
4986.00,0.8825
4985.00,0.8968
4984.00,0.9116
4983.00,0.9267
4982.00,0.9422
4981.00,0.9579
4980.00,0.9738
4979.00,0.9898
4978.00,1.0059
4977.00,1.0221
4976.00,1.0383
4975.00,1.0546
4974.00,1.0710
4973.00,1.0874
4972.00,1.1037
4971.00,1.1199
4970.00,1.1360
4969.00,1.1519
4968.00,1.1676
4967.00,1.1830
4966.00,1.1982
4965.00,1.2131
4964.00,1.2276
4963.00,1.2420
4962.00,1.2560
4961.00,1.2697
4960.00,1.2829
4959.00,1.2955
4958.00,1.3078
4957.00,1.3197
4956.00,1.3315
4955.00,1.3431
4954.00,1.3542
4953.00,1.3648
4952.00,1.3746
4951.00,1.3838
4950.00,1.3924
4949.00,1.4007
4948.00,1.4087
4947.00,1.4161
4946.00,1.4228
4945.00,1.4288
4944.00,1.4341
4943.00,1.4392
4942.00,1.4439
4941.00,1.4482
4940.00,1.4519
4939.00,1.4548
4938.00,1.4571
4937.00,1.4587
4936.00,1.4600
4935.00,1.4611
4934.00,1.4618
4933.00,1.4622
4932.00,1.4619
4931.00,1.4611
4930.00,1.4598
4929.00,1.4581
4928.00,1.4561
4927.00,1.4536
4926.00,1.4504
4925.00,1.4465
4924.00,1.4419
4923.00,1.4368
4922.00,1.4312
4921.00,1.4253
4920.00,1.4189
4919.00,1.4120
4918.00,1.4048
4917.00,1.3973
4916.00,1.3893
4915.00,1.3807
4914.00,1.3714
4913.00,1.3612
4912.00,1.3504
4911.00,1.3391
4910.00,1.3275
4909.00,1.3153
4908.00,1.3024
4907.00,1.2889
4906.00,1.2747
4905.00,1.2601
4904.00,1.2451
4903.00,1.2296
4902.00,1.2136
4901.00,1.1970
4900.00,1.1798
4899.00,1.1623
4898.00,1.1444
4897.00,1.1262
4896.00,1.1076
4895.00,1.0887
4894.00,1.0697
4893.00,1.0505
4892.00,1.0313
4891.00,1.0121
4890.00,0.9930
4889.00,0.9741
4888.00,0.9554
4887.00,0.9370
4886.00,0.9192
4885.00,0.9020
4884.00,0.8854
4883.00,0.8696
4882.00,0.8546
4881.00,0.8406
4880.00,0.8275
4879.00,0.8154
4878.00,0.8044
4877.00,0.7945
4876.00,0.7860
4875.00,0.7788
4874.00,0.7729
4873.00,0.7685
4872.00,0.7654
4871.00,0.7638
4870.00,0.7636
4869.00,0.7648
4868.00,0.7674
4867.00,0.7714
4866.00,0.7766
4865.00,0.7831
4864.00,0.7907
4863.00,0.7994
4862.00,0.8092
4861.00,0.8199
4860.00,0.8314
4859.00,0.8438
4858.00,0.8568
4857.00,0.8706
4856.00,0.8848
4855.00,0.8996
4854.00,0.9149
4853.00,0.9305
4852.00,0.9465
4851.00,0.9628
4850.00,0.9793
4849.00,0.9961
4848.00,1.0130
4847.00,1.0301
4846.00,1.0472
4845.00,1.0645
4844.00,1.0817
4843.00,1.0989
4842.00,1.1159
4841.00,1.1328
4840.00,1.1496
4839.00,1.1663
4838.00,1.1828
4837.00,1.1991
4836.00,1.2150
4835.00,1.2306
4834.00,1.2457
4833.00,1.2607
4832.00,1.2755
4831.00,1.2901
4830.00,1.3043
4829.00,1.3180
4828.00,1.3310
4827.00,1.3435
4826.00,1.3555
4825.00,1.3671
4824.00,1.3785
4823.00,1.3894
4822.00,1.3998
4821.00,1.4096
4820.00,1.4187
4819.00,1.4271
4818.00,1.4347
4817.00,1.4417
4816.00,1.4485
4815.00,1.4550
4814.00,1.4612
4813.00,1.4670
4812.00,1.4721
4811.00,1.4766
4810.00,1.4805
4809.00,1.4840
4808.00,1.4872
4807.00,1.4899
4806.00,1.4919
4805.00,1.4931
4804.00,1.4937
4803.00,1.4939
4802.00,1.4937
4801.00,1.4930
4800.00,1.4918
4799.00,1.4901
4798.00,1.4881
4797.00,1.4855
4796.00,1.4823
4795.00,1.4785
4794.00,1.4741
4793.00,1.4692
4792.00,1.4639
4791.00,1.4583
4790.00,1.4526
4789.00,1.4464
4788.00,1.4397
4787.00,1.4323
4786.00,1.4240
4785.00,1.4150
4784.00,1.4054
4783.00,1.3954
4782.00,1.3850
4781.00,1.3743
4780.00,1.3629
4779.00,1.3509
4778.00,1.3383
4777.00,1.3250
4776.00,1.3111
4775.00,1.2966
4774.00,1.2815
4773.00,1.2658
4772.00,1.2495
4771.00,1.2328
4770.00,1.2155
4769.00,1.1977
4768.00,1.1793
4767.00,1.1606
4766.00,1.1416
4765.00,1.1222
4764.00,1.1025
4763.00,1.0825
4762.00,1.0623
4761.00,1.0422
4760.00,1.0220
4759.00,1.0020
4758.00,0.9821
4757.00,0.9624
4756.00,0.9430
4755.00,0.9241
4754.00,0.9059
4753.00,0.8884
4752.00,0.8717
4751.00,0.8559
4750.00,0.8409
4749.00,0.8271
4748.00,0.8144
4747.00,0.8030
4746.00,0.7930
4745.00,0.7843
4744.00,0.7770
4743.00,0.7713
4742.00,0.7670
4741.00,0.7643
4740.00,0.7630
4739.00,0.7633
4738.00,0.7650
4737.00,0.7683
4736.00,0.7730
4735.00,0.7791
4734.00,0.7864
4733.00,0.7950
4732.00,0.8046
4731.00,0.8154
4730.00,0.8271
4729.00,0.8397
4728.00,0.8531
4727.00,0.8673
4726.00,0.8821
4725.00,0.8975
4724.00,0.9134
4723.00,0.9297
4722.00,0.9464
4721.00,0.9634
4720.00,0.9806
4719.00,0.9981
4718.00,1.0157
4717.00,1.0335
4716.00,1.0515
4715.00,1.0696
4714.00,1.0877
4713.00,1.1057
4712.00,1.1237
4711.00,1.1415
4710.00,1.1593
4709.00,1.1769
4708.00,1.1944
4707.00,1.2116
4706.00,1.2287
4705.00,1.2455
4704.00,1.2619
4703.00,1.2779
4702.00,1.2933
4701.00,1.3082
4700.00,1.3228
4699.00,1.3371
4698.00,1.3511
4697.00,1.3647
4696.00,1.3777
4695.00,1.3902
4694.00,1.4023
4693.00,1.4139
4692.00,1.4251
4691.00,1.4356
4690.00,1.4456
4689.00,1.4549
4688.00,1.4638
4687.00,1.4722
4686.00,1.4801
4685.00,1.4874
4684.00,1.4940
4683.00,1.5000
4682.00,1.5055
4681.00,1.5104
4680.00,1.5147
4679.00,1.5183
4678.00,1.5214
4677.00,1.5239
4676.00,1.5262
4675.00,1.5282
4674.00,1.5299
4673.00,1.5311
4672.00,1.5318
4671.00,1.5319
4670.00,1.5315
4669.00,1.5306
4668.00,1.5292
4667.00,1.5272
4666.00,1.5246
4665.00,1.5212
4664.00,1.5173
4663.00,1.5131
4662.00,1.5086
4661.00,1.5039
4660.00,1.4987
4659.00,1.4931
4658.00,1.4867
4657.00,1.4796
4656.00,1.4717
4655.00,1.4632
4654.00,1.4543
4653.00,1.4451
4652.00,1.4355
4651.00,1.4253
4650.00,1.4144
4649.00,1.4029
4648.00,1.3908
4647.00,1.3782
4646.00,1.3650
4645.00,1.3512
4644.00,1.3365
4643.00,1.3210
4642.00,1.3050
4641.00,1.2885
4640.00,1.2717
4639.00,1.2543
4638.00,1.2362
4637.00,1.2175
4636.00,1.1981
4635.00,1.1784
4634.00,1.1583
4633.00,1.1379
4632.00,1.1172
4631.00,1.0962
4630.00,1.0751
4629.00,1.0539
4628.00,1.0328
4627.00,1.0120
4626.00,0.9914
4625.00,0.9711
4624.00,0.9514
4623.00,0.9322
4622.00,0.9137
4621.00,0.8960
4620.00,0.8791
4619.00,0.8633
4618.00,0.8485
4617.00,0.8350
4616.00,0.8228
4615.00,0.8120
4614.00,0.8026
4613.00,0.7947
4612.00,0.7883
4611.00,0.7834
4610.00,0.7802
4609.00,0.7787
4608.00,0.7787
4607.00,0.7803
4606.00,0.7835
4605.00,0.7880
4604.00,0.7941
4603.00,0.8015
4602.00,0.8102
4601.00,0.8201
4600.00,0.8312
4599.00,0.8433
4598.00,0.8563
4597.00,0.8702
4596.00,0.8848
4595.00,0.9001
4594.00,0.9159
4593.00,0.9323
4592.00,0.9492
4591.00,0.9665
4590.00,0.9841
4589.00,1.0021
4588.00,1.0202
4587.00,1.0386
4586.00,1.0572
4585.00,1.0760
4584.00,1.0948
4583.00,1.1135
4582.00,1.1322
4581.00,1.1509
4580.00,1.1694
4579.00,1.1879
4578.00,1.2062
4577.00,1.2243
4576.00,1.2420
4575.00,1.2593
4574.00,1.2762
4573.00,1.2930
4572.00,1.3095
4571.00,1.3257
4570.00,1.3416
4569.00,1.3569
4568.00,1.3716
4567.00,1.3856
4566.00,1.3991
4565.00,1.4120
4564.00,1.4245
4563.00,1.4366
4562.00,1.4483
4561.00,1.4595
4560.00,1.4700
4559.00,1.4797
4558.00,1.4888
4557.00,1.4972
4556.00,1.5052
4555.00,1.5128
4554.00,1.5199
4553.00,1.5264
4552.00,1.5322
4551.00,1.5373
4550.00,1.5419
4549.00,1.5461
4548.00,1.5500
4547.00,1.5535
4546.00,1.5567
4545.00,1.5592
4544.00,1.5612
4543.00,1.5625
4542.00,1.5633
4541.00,1.5634
4540.00,1.5630
4539.00,1.5621
4538.00,1.5608
4537.00,1.5591
4536.00,1.5569
4535.00,1.5543
4534.00,1.5511
4533.00,1.5473
4532.00,1.5429
4531.00,1.5378
4530.00,1.5322
4529.00,1.5262
4528.00,1.5199
4527.00,1.5131
4526.00,1.5059
4525.00,1.4979
4524.00,1.4892
4523.00,1.4799
4522.00,1.4700
4521.00,1.4596
4520.00,1.4487
4519.00,1.4372
4518.00,1.4250
4517.00,1.4122
4516.00,1.3988
4515.00,1.3849
4514.00,1.3705
4513.00,1.3553
4512.00,1.3392
4511.00,1.3223
4510.00,1.3048
4509.00,1.2868
4508.00,1.2683
4507.00,1.2493
4506.00,1.2295
4505.00,1.2092
4504.00,1.1883
4503.00,1.1670
4502.00,1.1454
4501.00,1.1234
4500.00,1.1012
4499.00,1.0788
4498.00,1.0564
4497.00,1.0341
4496.00,1.0120
4495.00,0.9902
4494.00,0.9688
4493.00,0.9480
4492.00,0.9277
4491.00,0.9083
4490.00,0.8897
4489.00,0.8722
4488.00,0.8559
4487.00,0.8407
4486.00,0.8269
4485.00,0.8145
4484.00,0.8036
4483.00,0.7944
4482.00,0.7869
4481.00,0.7811
4480.00,0.7771
4479.00,0.7749
4478.00,0.7744
4477.00,0.7758
4476.00,0.7789
4475.00,0.7836
4474.00,0.7900
4473.00,0.7979
4472.00,0.8073
4471.00,0.8180
4470.00,0.8299
4469.00,0.8429
4468.00,0.8570
4467.00,0.8719
4466.00,0.8877
4465.00,0.9042
4464.00,0.9214
4463.00,0.9392
4462.00,0.9575
4461.00,0.9761
4460.00,0.9950
4459.00,1.0143
4458.00,1.0339
4457.00,1.0537
4456.00,1.0736
4455.00,1.0935
4454.00,1.1134
4453.00,1.1334
4452.00,1.1533
4451.00,1.1732
4450.00,1.1930
4449.00,1.2125
4448.00,1.2318
4447.00,1.2509
4446.00,1.2696
4445.00,1.2881
4444.00,1.3063
4443.00,1.3242
4442.00,1.3416
4441.00,1.3586
4440.00,1.3749
4439.00,1.3905
4438.00,1.4056
4437.00,1.4204
4436.00,1.4349
4435.00,1.4490
4434.00,1.4625
4433.00,1.4752
4432.00,1.4870
4431.00,1.4981
4430.00,1.5086
4429.00,1.5187
4428.00,1.5284
4427.00,1.5374
4426.00,1.5458
4425.00,1.5536
4424.00,1.5610
4423.00,1.5680
4422.00,1.5744
4421.00,1.5803
4420.00,1.5855
4419.00,1.5899
4418.00,1.5937
4417.00,1.5970
4416.00,1.5998
4415.00,1.6023
4414.00,1.6044
4413.00,1.6063
4412.00,1.6078
4411.00,1.6087
4410.00,1.6087
4409.00,1.6077
4408.00,1.6060
4407.00,1.6039
4406.00,1.6018
4405.00,1.5996
4404.00,1.5972
4403.00,1.5941
4402.00,1.5903
4401.00,1.5858
4400.00,1.5805
4399.00,1.5747
4398.00,1.5685
4397.00,1.5620
4396.00,1.5551
4395.00,1.5478
4394.00,1.5399
4393.00,1.5314
4392.00,1.5224
4391.00,1.5129
4390.00,1.5029
4389.00,1.4923
4388.00,1.4812
4387.00,1.4694
4386.00,1.4571
4385.00,1.4443
4384.00,1.4308
4383.00,1.4167
4382.00,1.4022
4381.00,1.3872
4380.00,1.3718
4379.00,1.3560
4378.00,1.3397
4377.00,1.3229
4376.00,1.3057
4375.00,1.2880
4374.00,1.2700
4373.00,1.2517
4372.00,1.2330
4371.00,1.2141
4370.00,1.1949
4369.00,1.1754
4368.00,1.1558
4367.00,1.1362
4366.00,1.1165
4365.00,1.0969
4364.00,1.0774
4363.00,1.0581
4362.00,1.0390
4361.00,1.0203
4360.00,1.0021
4359.00,0.9845
4358.00,0.9677
4357.00,0.9517
4356.00,0.9366
4355.00,0.9227
4354.00,0.9099
4353.00,0.8986
4352.00,0.8887
4351.00,0.8803
4350.00,0.8734
4349.00,0.8681
4348.00,0.8643
4347.00,0.8622
4346.00,0.8617
4345.00,0.8627
4344.00,0.8652
4343.00,0.8691
4342.00,0.8745
4341.00,0.8813
4340.00,0.8894
4339.00,0.8988
4338.00,0.9094
4337.00,0.9212
4336.00,0.9340
4335.00,0.9478
4334.00,0.9625
4333.00,0.9781
4332.00,0.9944
4331.00,1.0115
4330.00,1.0292
4329.00,1.0474
4328.00,1.0661
4327.00,1.0852
4326.00,1.1047
4325.00,1.1244
4324.00,1.1443
4323.00,1.1642
4322.00,1.1840
4321.00,1.2038
4320.00,1.2234
4319.00,1.2430
4318.00,1.2626
4317.00,1.2820
4316.00,1.3012
4315.00,1.3201
4314.00,1.3385
4313.00,1.3565
4312.00,1.3741
4311.00,1.3912
4310.00,1.4078
4309.00,1.4238
4308.00,1.4394
4307.00,1.4544
4306.00,1.4691
4305.00,1.4833
4304.00,1.4970
4303.00,1.5102
4302.00,1.5227
4301.00,1.5346
4300.00,1.5459
4299.00,1.5565
4298.00,1.5664
4297.00,1.5757
4296.00,1.5845
4295.00,1.5929
4294.00,1.6010
4293.00,1.6087
4292.00,1.6157
4291.00,1.6220
4290.00,1.6277
4289.00,1.6328
4288.00,1.6374
4287.00,1.6413
4286.00,1.6446
4285.00,1.6472
4284.00,1.6493
4283.00,1.6512
4282.00,1.6530
4281.00,1.6548
4280.00,1.6561
4279.00,1.6566
4278.00,1.6562
4277.00,1.6553
4276.00,1.6539
4275.00,1.6521
4274.00,1.6499
4273.00,1.6469
4272.00,1.6433
4271.00,1.6391
4270.00,1.6346
4269.00,1.6298
4268.00,1.6246
4267.00,1.6190
4266.00,1.6128
4265.00,1.6060
4264.00,1.5985
4263.00,1.5904
4262.00,1.5818
4261.00,1.5728
4260.00,1.5632
4259.00,1.5529
4258.00,1.5419
4257.00,1.5301
4256.00,1.5178
4255.00,1.5049
4254.00,1.4915
4253.00,1.4772
4252.00,1.4623
4251.00,1.4468
4250.00,1.4307
4249.00,1.4139
4248.00,1.3963
4247.00,1.3779
4246.00,1.3588
4245.00,1.3390
4244.00,1.3186
4243.00,1.2977
4242.00,1.2762
4241.00,1.2543
4240.00,1.2321
4239.00,1.2095
4238.00,1.1868
4237.00,1.1638
4236.00,1.1408
4235.00,1.1178
4234.00,1.0948
4233.00,1.0722
4232.00,1.0500
4231.00,1.0284
4230.00,1.0074
4229.00,0.9874
4228.00,0.9683
4227.00,0.9503
4226.00,0.9335
4225.00,0.9180
4224.00,0.9039
4223.00,0.8913
4222.00,0.8803
4221.00,0.8709
4220.00,0.8632
4219.00,0.8573
4218.00,0.8531
4217.00,0.8507
4216.00,0.8500
4215.00,0.8510
4214.00,0.8538
4213.00,0.8583
4212.00,0.8644
4211.00,0.8721
4210.00,0.8812
4209.00,0.8918
4208.00,0.9038
4207.00,0.9169
4206.00,0.9311
4205.00,0.9463
4204.00,0.9624
4203.00,0.9793
4202.00,0.9969
4201.00,1.0152
4200.00,1.0341
4199.00,1.0535
4198.00,1.0733
4197.00,1.0935
4196.00,1.1140
4195.00,1.1346
4194.00,1.1553
4193.00,1.1762
4192.00,1.1971
4191.00,1.2180
4190.00,1.2390
4189.00,1.2598
4188.00,1.2804
4187.00,1.3007
4186.00,1.3206
4185.00,1.3402
4184.00,1.3595
4183.00,1.3785
4182.00,1.3971
4181.00,1.4153
4180.00,1.4329
4179.00,1.4500
4178.00,1.4665
4177.00,1.4826
4176.00,1.4982
4175.00,1.5132
4174.00,1.5275
4173.00,1.5412
4172.00,1.5542
4171.00,1.5667
4170.00,1.5787
4169.00,1.5901
4168.00,1.6008
4167.00,1.6110
4166.00,1.6206
4165.00,1.6298
4164.00,1.6383
4163.00,1.6463
4162.00,1.6537
4161.00,1.6604
4160.00,1.6664
4159.00,1.6720
4158.00,1.6772
4157.00,1.6820
4156.00,1.6866
4155.00,1.6906
4154.00,1.6941
4153.00,1.6968
4152.00,1.6988
4151.00,1.7002
4150.00,1.7011
4149.00,1.7017
4148.00,1.7018
4147.00,1.7014
4146.00,1.7003
4145.00,1.6989
4144.00,1.6972
4143.00,1.6953
4142.00,1.6929
4141.00,1.6900
4140.00,1.6863
4139.00,1.6817
4138.00,1.6763
4137.00,1.6703
4136.00,1.6641
4135.00,1.6578
4134.00,1.6511
4133.00,1.6438
4132.00,1.6357
4131.00,1.6270
4130.00,1.6178
4129.00,1.6081
4128.00,1.5978
4127.00,1.5868
4126.00,1.5752
4125.00,1.5629
4124.00,1.5499
4123.00,1.5362
4122.00,1.5218
4121.00,1.5068
4120.00,1.4912
4119.00,1.4749
4118.00,1.4578
4117.00,1.4399
4116.00,1.4213
4115.00,1.4020
4114.00,1.3820
4113.00,1.3612
4112.00,1.3397
4111.00,1.3176
4110.00,1.2950
4109.00,1.2720
4108.00,1.2484
4107.00,1.2245
4106.00,1.2002
4105.00,1.1757
4104.00,1.1511
4103.00,1.1264
4102.00,1.1019
4101.00,1.0776
4100.00,1.0539
4099.00,1.0308
4098.00,1.0086
4097.00,0.9873
4096.00,0.9671
4095.00,0.9481
4094.00,0.9305
4093.00,0.9145
4092.00,0.9002
4091.00,0.8877
4090.00,0.8772
4089.00,0.8686
4088.00,0.8621
4087.00,0.8576
4086.00,0.8552
4085.00,0.8548
4084.00,0.8566
4083.00,0.8604
4082.00,0.8661
4081.00,0.8735
4080.00,0.8826
4079.00,0.8934
4078.00,0.9056
4077.00,0.9192
4076.00,0.9341
4075.00,0.9500
4074.00,0.9670
4073.00,0.9847
4072.00,1.0033
4071.00,1.0226
4070.00,1.0424
4069.00,1.0629
4068.00,1.0837
4067.00,1.1051
4066.00,1.1268
4065.00,1.1488
4064.00,1.1710
4063.00,1.1933
4062.00,1.2156
4061.00,1.2379
4060.00,1.2603
4059.00,1.2827
4058.00,1.3049
4057.00,1.3267
4056.00,1.3480
4055.00,1.3688
4054.00,1.3892
4053.00,1.4094
4052.00,1.4291
4051.00,1.4484
4050.00,1.4673
4049.00,1.4858
4048.00,1.5038
4047.00,1.5211
4046.00,1.5375
4045.00,1.5529
4044.00,1.5675
4043.00,1.5816
4042.00,1.5953
4041.00,1.6085
4040.00,1.6213
4039.00,1.6333
4038.00,1.6447
4037.00,1.6553
4036.00,1.6653
4035.00,1.6747
4034.00,1.6833
4033.00,1.6914
4032.00,1.6988
4031.00,1.7057
4030.00,1.7121
4029.00,1.7181
4028.00,1.7236
4027.00,1.7285
4026.00,1.7325
4025.00,1.7358
4024.00,1.7386
4023.00,1.7410
4022.00,1.7433
4021.00,1.7454
4020.00,1.7471
4019.00,1.7480
4018.00,1.7480
4017.00,1.7471
4016.00,1.7455
4015.00,1.7438
4014.00,1.7421
4013.00,1.7403
4012.00,1.7381
4011.00,1.7351
4010.00,1.7310
4009.00,1.7260
4008.00,1.7202
4007.00,1.7139
4006.00,1.7076
4005.00,1.7009
4004.00,1.6937
4003.00,1.6857
4002.00,1.6769
4001.00,1.6675
4000.00,1.6577
3999.00,1.6473
3998.00,1.6362
3997.00,1.6243
3996.00,1.6117
3995.00,1.5984
3994.00,1.5846
3993.00,1.5704
3992.00,1.5557
3991.00,1.5404
3990.00,1.5242
3989.00,1.5072
3988.00,1.4895
3987.00,1.4710
3986.00,1.4519
3985.00,1.4323
3984.00,1.4121
3983.00,1.3913
3982.00,1.3699
3981.00,1.3477
3980.00,1.3249
3979.00,1.3013
3978.00,1.2772
3977.00,1.2526
3976.00,1.2277
3975.00,1.2024
3974.00,1.1771
3973.00,1.1517
3972.00,1.1265
3971.00,1.1016
3970.00,1.0770
3969.00,1.0530
3968.00,1.0298
3967.00,1.0077
3966.00,0.9868
3965.00,0.9674
3964.00,0.9495
3963.00,0.9333
3962.00,0.9188
3961.00,0.9063
3960.00,0.8957
3959.00,0.8874
3958.00,0.8812
3957.00,0.8773
3956.00,0.8756
3955.00,0.8761
3954.00,0.8787
3953.00,0.8834
3952.00,0.8899
3951.00,0.8982
3950.00,0.9080
3949.00,0.9192
3948.00,0.9319
3947.00,0.9459
3946.00,0.9611
3945.00,0.9775
3944.00,0.9947
3943.00,1.0130
3942.00,1.0323
3941.00,1.0524
3940.00,1.0730
3939.00,1.0939
3938.00,1.1152
3937.00,1.1368
3936.00,1.1587
3935.00,1.1807
3934.00,1.2029
3933.00,1.2254
3932.00,1.2483
3931.00,1.2714
3930.00,1.2946
3929.00,1.3177
3928.00,1.3405
3927.00,1.3628
3926.00,1.3846
3925.00,1.4059
3924.00,1.4269
3923.00,1.4475
3922.00,1.4677
3921.00,1.4873
3920.00,1.5064
3919.00,1.5251
3918.00,1.5435
3917.00,1.5616
3916.00,1.5795
3915.00,1.5969
3914.00,1.6135
3913.00,1.6289
3912.00,1.6432
3911.00,1.6565
3910.00,1.6688
3909.00,1.6802
3908.00,1.6908
3907.00,1.7004
3906.00,1.7093
3905.00,1.7175
3904.00,1.7253
3903.00,1.7330
3902.00,1.7409
3901.00,1.7490
3900.00,1.7571
3899.00,1.7649
3898.00,1.7721
3897.00,1.7781
3896.00,1.7828
3895.00,1.7864
3894.00,1.7892
3893.00,1.7913
3892.00,1.7929
3891.00,1.7943
3890.00,1.7955
3889.00,1.7965
3888.00,1.7972
3887.00,1.7971
3886.00,1.7963
3885.00,1.7948
3884.00,1.7929
3883.00,1.7906
3882.00,1.7878
3881.00,1.7844
3880.00,1.7805
3879.00,1.7760
3878.00,1.7709
3877.00,1.7652
3876.00,1.7586
3875.00,1.7512
3874.00,1.7432
3873.00,1.7350
3872.00,1.7264
3871.00,1.7168
3870.00,1.7059
3869.00,1.6944
3868.00,1.6832
3867.00,1.6720
3866.00,1.6602
3865.00,1.6474
3864.00,1.6338
3863.00,1.6195
3862.00,1.6045
3861.00,1.5885
3860.00,1.5712
3859.00,1.5525
3858.00,1.5330
3857.00,1.5132
3856.00,1.4936
3855.00,1.4728
3854.00,1.4492
3853.00,1.4225
3852.00,1.3948
3851.00,1.3682
3850.00,1.3430
3849.00,1.3184
3848.00,1.2938
3847.00,1.2685
3846.00,1.2420
3845.00,1.2142
3844.00,1.1849
3843.00,1.1547
3842.00,1.1245
3841.00,1.0949
3840.00,1.0659
3839.00,1.0373
3838.00,1.0089
3837.00,0.9813
3836.00,0.9555
3835.00,0.9326
3834.00,0.9126
3833.00,0.8954
3832.00,0.8806
3831.00,0.8681
3830.00,0.8582
3829.00,0.8509
3828.00,0.8462
3827.00,0.8437
3826.00,0.8433
3825.00,0.8452
3824.00,0.8499
3823.00,0.8578
3822.00,0.8686
3821.00,0.8818
3820.00,0.8966
3819.00,0.9122
3818.00,0.9290
3817.00,0.9482
3816.00,0.9708
3815.00,0.9960
3814.00,1.0217
3813.00,1.0459
3812.00,1.0688
3811.00,1.0912
3810.00,1.1137
3809.00,1.1367
3808.00,1.1607
3807.00,1.1864
3806.00,1.2134
3805.00,1.2402
3804.00,1.2655
3803.00,1.2897
3802.00,1.3146
3801.00,1.3417
3800.00,1.3704
3799.00,1.3985
3798.00,1.4246
3797.00,1.4492
3796.00,1.4732
3795.00,1.4969
3794.00,1.5199
3793.00,1.5417
3792.00,1.5626
3791.00,1.5826
3790.00,1.6017
3789.00,1.6198
3788.00,1.6370
3787.00,1.6538
3786.00,1.6700
3785.00,1.6854
3784.00,1.6997
3783.00,1.7131
3782.00,1.7257
3781.00,1.7377
3780.00,1.7492
3779.00,1.7604
3778.00,1.7712
3777.00,1.7815
3776.00,1.7907
3775.00,1.7988
3774.00,1.8058
3773.00,1.8121
3772.00,1.8177
3771.00,1.8226
3770.00,1.8271
3769.00,1.8314
3768.00,1.8357
3767.00,1.8397
3766.00,1.8429
3765.00,1.8452
3764.00,1.8467
3763.00,1.8475
3762.00,1.8477
3761.00,1.8473
3760.00,1.8464
3759.00,1.8449
3758.00,1.8428
3757.00,1.8397
3756.00,1.8357
3755.00,1.8312
3754.00,1.8263
3753.00,1.8210
3752.00,1.8154
3751.00,1.8091
3750.00,1.8023
3749.00,1.7950
3748.00,1.7881
3747.00,1.7818
3746.00,1.7758
3745.00,1.7694
3744.00,1.7629
3743.00,1.7567
3742.00,1.7508
3741.00,1.7443
3740.00,1.7370
3739.00,1.7290
3738.00,1.7198
3737.00,1.7085
3736.00,1.6949
3735.00,1.6797
3734.00,1.6641
3733.00,1.6480
3732.00,1.6309
3731.00,1.6128
3730.00,1.5938
3729.00,1.5736
3728.00,1.5517
3727.00,1.5276
3726.00,1.5016
3725.00,1.4739
3724.00,1.4449
3723.00,1.4148
3722.00,1.3838
3721.00,1.3521
3720.00,1.3201
3719.00,1.2879
3718.00,1.2556
3717.00,1.2235
3716.00,1.1923
3715.00,1.1621
3714.00,1.1328
3713.00,1.1038
3712.00,1.0748
3711.00,1.0465
3710.00,1.0199
3709.00,0.9955
3708.00,0.9737
3707.00,0.9548
3706.00,0.9391
3705.00,0.9269
3704.00,0.9181
3703.00,0.9127
3702.00,0.9105
3701.00,0.9116
3700.00,0.9160
3699.00,0.9239
3698.00,0.9349
3697.00,0.9489
3696.00,0.9654
3695.00,0.9839
3694.00,1.0038
3693.00,1.0249
3692.00,1.0474
3691.00,1.0715
3690.00,1.0976
3689.00,1.1261
3688.00,1.1569
3687.00,1.1886
3686.00,1.2192
3685.00,1.2479
3684.00,1.2752
3683.00,1.3018
3682.00,1.3279
3681.00,1.3532
3680.00,1.3775
3679.00,1.4010
3678.00,1.4242
3677.00,1.4477
3676.00,1.4725
3675.00,1.4993
3674.00,1.5270
3673.00,1.5532
3672.00,1.5774
3671.00,1.6005
3670.00,1.6238
3669.00,1.6479
3668.00,1.6718
3667.00,1.6944
3666.00,1.7152
3665.00,1.7342
3664.00,1.7518
3663.00,1.7682
3662.00,1.7836
3661.00,1.7981
3660.00,1.8117
3659.00,1.8245
3658.00,1.8366
3657.00,1.8484
3656.00,1.8601
3655.00,1.8712
3654.00,1.8811
3653.00,1.8894
3652.00,1.8968
3651.00,1.9040
3650.00,1.9117
3649.00,1.9201
3648.00,1.9290
3647.00,1.9377
3646.00,1.9455
3645.00,1.9524
3644.00,1.9585
3643.00,1.9642
3642.00,1.9695
3641.00,1.9742
3640.00,1.9782
3639.00,1.9813
3638.00,1.9838
3637.00,1.9863
3636.00,1.9888
3635.00,1.9906
3634.00,1.9910
3633.00,1.9900
3632.00,1.9883
3631.00,1.9863
3630.00,1.9839
3629.00,1.9814
3628.00,1.9792
3627.00,1.9775
3626.00,1.9756
3625.00,1.9728
3624.00,1.9688
3623.00,1.9638
3622.00,1.9579
3621.00,1.9512
3620.00,1.9439
3619.00,1.9363
3618.00,1.9287
3617.00,1.9211
3616.00,1.9136
3615.00,1.9060
3614.00,1.8982
3613.00,1.8902
3612.00,1.8824
3611.00,1.8749
3610.00,1.8672
3609.00,1.8587
3608.00,1.8494
3607.00,1.8393
3606.00,1.8289
3605.00,1.8185
3604.00,1.8080
3603.00,1.7974
3602.00,1.7863
3601.00,1.7747
3600.00,1.7626
3599.00,1.7502
3598.00,1.7376
3597.00,1.7250
3596.00,1.7121
3595.00,1.6989
3594.00,1.6855
3593.00,1.6721
3592.00,1.6591
3591.00,1.6467
3590.00,1.6347
3589.00,1.6224
3588.00,1.6096
3587.00,1.5964
3586.00,1.5834
3585.00,1.5711
3584.00,1.5598
3583.00,1.5495
3582.00,1.5400
3581.00,1.5310
3580.00,1.5226
3579.00,1.5146
3578.00,1.5073
3577.00,1.5008
3576.00,1.4955
3575.00,1.4913
3574.00,1.4881
3573.00,1.4857
3572.00,1.4842
3571.00,1.4839
3570.00,1.4848
3569.00,1.4869
3568.00,1.4902
3567.00,1.4944
3566.00,1.4996
3565.00,1.5060
3564.00,1.5135
3563.00,1.5220
3562.00,1.5314
3561.00,1.5415
3560.00,1.5524
3559.00,1.5640
3558.00,1.5760
3557.00,1.5885
3556.00,1.6012
3555.00,1.6142
3554.00,1.6277
3553.00,1.6417
3552.00,1.6560
3551.00,1.6705
3550.00,1.6849
3549.00,1.6992
3548.00,1.7134
3547.00,1.7277
3546.00,1.7421
3545.00,1.7568
3544.00,1.7717
3543.00,1.7865
3542.00,1.8009
3541.00,1.8148
3540.00,1.8282
3539.00,1.8416
3538.00,1.8552
3537.00,1.8690
3536.00,1.8825
3535.00,1.8955
3534.00,1.9077
3533.00,1.9194
3532.00,1.9308
3531.00,1.9420
3530.00,1.9529
3529.00,1.9632
3528.00,1.9729
3527.00,1.9822
3526.00,1.9912
3525.00,2.0006
3524.00,2.0102
3523.00,2.0197
3522.00,2.0285
3521.00,2.0364
3520.00,2.0436
3519.00,2.0506
3518.00,2.0575
3517.00,2.0643
3516.00,2.0704
3515.00,2.0755
3514.00,2.0800
3513.00,2.0844
3512.00,2.0890
3511.00,2.0934
3510.00,2.0973
3509.00,2.1007
3508.00,2.1043
3507.00,2.1080
3506.00,2.1116
3505.00,2.1149
3504.00,2.1177
3503.00,2.1199
3502.00,2.1211
3501.00,2.1215
3500.00,2.1213
3499.00,2.1211
3498.00,2.1210
3497.00,2.1209
3496.00,2.1202
3495.00,2.1184
3494.00,2.1161
3493.00,2.1139
3492.00,2.1120
3491.00,2.1103
3490.00,2.1082
3489.00,2.1056
3488.00,2.1024
3487.00,2.0988
3486.00,2.0949
3485.00,2.0908
3484.00,2.0863
3483.00,2.0811
3482.00,2.0753
3481.00,2.0689
3480.00,2.0622
3479.00,2.0552
3478.00,2.0479
3477.00,2.0405
3476.00,2.0332
3475.00,2.0259
3474.00,2.0180
3473.00,2.0093
3472.00,1.9998
3471.00,1.9897
3470.00,1.9789
3469.00,1.9678
3468.00,1.9564
3467.00,1.9451
3466.00,1.9337
3465.00,1.9221
3464.00,1.9102
3463.00,1.8978
3462.00,1.8851
3461.00,1.8721
3460.00,1.8588
3459.00,1.8447
3458.00,1.8300
3457.00,1.8148
3456.00,1.7995
3455.00,1.7844
3454.00,1.7696
3453.00,1.7548
3452.00,1.7400
3451.00,1.7253
3450.00,1.7108
3449.00,1.6966
3448.00,1.6827
3447.00,1.6689
3446.00,1.6555
3445.00,1.6427
3444.00,1.6307
3443.00,1.6194
3442.00,1.6089
3441.00,1.5993
3440.00,1.5906
3439.00,1.5829
3438.00,1.5761
3437.00,1.5703
3436.00,1.5658
3435.00,1.5626
3434.00,1.5608
3433.00,1.5602
3432.00,1.5609
3431.00,1.5629
3430.00,1.5662
3429.00,1.5709
3428.00,1.5768
3427.00,1.5839
3426.00,1.5920
3425.00,1.6012
3424.00,1.6115
3423.00,1.6229
3422.00,1.6352
3421.00,1.6479
3420.00,1.6609
3419.00,1.6745
3418.00,1.6888
3417.00,1.7037
3416.00,1.7191
3415.00,1.7344
3414.00,1.7495
3413.00,1.7641
3412.00,1.7781
3411.00,1.7917
3410.00,1.8047
3409.00,1.8171
3408.00,1.8289
3407.00,1.8403
3406.00,1.8513
3405.00,1.8619
3404.00,1.8720
3403.00,1.8818
3402.00,1.8911
3401.00,1.9001
3400.00,1.9088
3399.00,1.9175
3398.00,1.9263
3397.00,1.9350
3396.00,1.9436
3395.00,1.9519
3394.00,1.9600
3393.00,1.9683
3392.00,1.9768
3391.00,1.9857
3390.00,1.9949
3389.00,2.0040
3388.00,2.0128
3387.00,2.0211
3386.00,2.0291
3385.00,2.0369
3384.00,2.0448
3383.00,2.0524
3382.00,2.0597
3381.00,2.0667
3380.00,2.0732
3379.00,2.0792
3378.00,2.0848
3377.00,2.0901
3376.00,2.0953
3375.00,2.1003
3374.00,2.1051
3373.00,2.1096
3372.00,2.1139
3371.00,2.1177
3370.00,2.1208
3369.00,2.1232
3368.00,2.1246
3367.00,2.1253
3366.00,2.1256
3365.00,2.1257
3364.00,2.1259
3363.00,2.1259
3362.00,2.1252
3361.00,2.1236
3360.00,2.1213
3359.00,2.1189
3358.00,2.1169
3357.00,2.1150
3356.00,2.1127
3355.00,2.1097
3354.00,2.1059
3353.00,2.1013
3352.00,2.0959
3351.00,2.0897
3350.00,2.0827
3349.00,2.0749
3348.00,2.0664
3347.00,2.0576
3346.00,2.0489
3345.00,2.0404
3344.00,2.0317
3343.00,2.0221
3342.00,2.0115
3341.00,2.0002
3340.00,1.9885
3339.00,1.9764
3338.00,1.9641
3337.00,1.9517
3336.00,1.9389
3335.00,1.9254
3334.00,1.9109
3333.00,1.8953
3332.00,1.8789
3331.00,1.8620
3330.00,1.8447
3329.00,1.8270
3328.00,1.8091
3327.00,1.7910
3326.00,1.7725
3325.00,1.7538
3324.00,1.7345
3323.00,1.7149
3322.00,1.6948
3321.00,1.6747
3320.00,1.6547
3319.00,1.6350
3318.00,1.6156
3317.00,1.5969
3316.00,1.5787
3315.00,1.5612
3314.00,1.5444
3313.00,1.5284
3312.00,1.5135
3311.00,1.4995
3310.00,1.4867
3309.00,1.4753
3308.00,1.4654
3307.00,1.4571
3306.00,1.4505
3305.00,1.4456
3304.00,1.4425
3303.00,1.4411
3302.00,1.4414
3301.00,1.4435
3300.00,1.4471
3299.00,1.4524
3298.00,1.4592
3297.00,1.4675
3296.00,1.4772
3295.00,1.4882
3294.00,1.5003
3293.00,1.5137
3292.00,1.5281
3291.00,1.5434
3290.00,1.5596
3289.00,1.5764
3288.00,1.5938
3287.00,1.6118
3286.00,1.6302
3285.00,1.6488
3284.00,1.6676
3283.00,1.6867
3282.00,1.7058
3281.00,1.7248
3280.00,1.7436
3279.00,1.7621
3278.00,1.7806
3277.00,1.7991
3276.00,1.8177
3275.00,1.8360
3274.00,1.8538
3273.00,1.8713
3272.00,1.8884
3271.00,1.9052
3270.00,1.9214
3269.00,1.9371
3268.00,1.9523
3267.00,1.9671
3266.00,1.9815
3265.00,1.9956
3264.00,2.0095
3263.00,2.0227
3262.00,2.0353
3261.00,2.0470
3260.00,2.0581
3259.00,2.0686
3258.00,2.0785
3257.00,2.0881
3256.00,2.0972
3255.00,2.1058
3254.00,2.1139
3253.00,2.1217
3252.00,2.1292
3251.00,2.1363
3250.00,2.1429
3249.00,2.1489
3248.00,2.1541
3247.00,2.1585
3246.00,2.1621
3245.00,2.1652
3244.00,2.1684
3243.00,2.1717
3242.00,2.1748
3241.00,2.1775
3240.00,2.1795
3239.00,2.1809
3238.00,2.1818
3237.00,2.1826
3236.00,2.1832
3235.00,2.1834
3234.00,2.1829
3233.00,2.1814
3232.00,2.1789
3231.00,2.1757
3230.00,2.1722
3229.00,2.1686
3228.00,2.1649
3227.00,2.1610
3226.00,2.1566
3225.00,2.1520
3224.00,2.1472
3223.00,2.1417
3222.00,2.1352
3221.00,2.1279
3220.00,2.1205
3219.00,2.1133
3218.00,2.1060
3217.00,2.0978
3216.00,2.0882
3215.00,2.0775
3214.00,2.0665
3213.00,2.0556
3212.00,2.0446
3211.00,2.0330
3210.00,2.0207
3209.00,2.0077
3208.00,1.9945
3207.00,1.9811
3206.00,1.9676
3205.00,1.9533
3204.00,1.9383
3203.00,1.9226
3202.00,1.9067
3201.00,1.8903
3200.00,1.8735
3199.00,1.8562
3198.00,1.8386
3197.00,1.8206
3196.00,1.8025
3195.00,1.7842
3194.00,1.7660
3193.00,1.7480
3192.00,1.7301
3191.00,1.7123
3190.00,1.6947
3189.00,1.6777
3188.00,1.6612
3187.00,1.6453
3186.00,1.6302
3185.00,1.6159
3184.00,1.6027
3183.00,1.5908
3182.00,1.5802
3181.00,1.5710
3180.00,1.5632
3179.00,1.5567
3178.00,1.5516
3177.00,1.5481
3176.00,1.5463
3175.00,1.5463
3174.00,1.5477
3173.00,1.5507
3172.00,1.5551
3171.00,1.5609
3170.00,1.5680
3169.00,1.5765
3168.00,1.5861
3167.00,1.5969
3166.00,1.6088
3165.00,1.6217
3164.00,1.6356
3163.00,1.6502
3162.00,1.6656
3161.00,1.6816
3160.00,1.6983
3159.00,1.7153
3158.00,1.7328
3157.00,1.7505
3156.00,1.7686
3155.00,1.7868
3154.00,1.8051
3153.00,1.8232
3152.00,1.8412
3151.00,1.8589
3150.00,1.8765
3149.00,1.8940
3148.00,1.9113
3147.00,1.9283
3146.00,1.9449
3145.00,1.9612
3144.00,1.9773
3143.00,1.9931
3142.00,2.0085
3141.00,2.0236
3140.00,2.0383
3139.00,2.0525
3138.00,2.0659
3137.00,2.0782
3136.00,2.0893
3135.00,2.0997
3134.00,2.1098
3133.00,2.1200
3132.00,2.1305
3131.00,2.1407
3130.00,2.1500
3129.00,2.1583
3128.00,2.1660
3127.00,2.1736
3126.00,2.1813
3125.00,2.1887
3124.00,2.1957
3123.00,2.2023
3122.00,2.2086
3121.00,2.2149
3120.00,2.2209
3119.00,2.2266
3118.00,2.2316
3117.00,2.2357
3116.00,2.2387
3115.00,2.2404
3114.00,2.2412
3113.00,2.2415
3112.00,2.2418
3111.00,2.2420
3110.00,2.2420
3109.00,2.2417
3108.00,2.2408
3107.00,2.2391
3106.00,2.2361
3105.00,2.2322
3104.00,2.2280
3103.00,2.2241
3102.00,2.2202
3101.00,2.2159
3100.00,2.2107
3099.00,2.2044
3098.00,2.1970
3097.00,2.1888
3096.00,2.1798
3095.00,2.1703
3094.00,2.1603
3093.00,2.1501
3092.00,2.1398
3091.00,2.1294
3090.00,2.1184
3089.00,2.1066
3088.00,2.0938
3087.00,2.0800
3086.00,2.0654
3085.00,2.0500
3084.00,2.0339
3083.00,2.0173
3082.00,2.0004
3081.00,1.9831
3080.00,1.9650
3079.00,1.9461
3078.00,1.9264
3077.00,1.9062
3076.00,1.8858
3075.00,1.8649
3074.00,1.8438
3073.00,1.8226
3072.00,1.8018
3071.00,1.7815
3070.00,1.7617
3069.00,1.7424
3068.00,1.7236
3067.00,1.7058
3066.00,1.6891
3065.00,1.6739
3064.00,1.6603
3063.00,1.6483
3062.00,1.6379
3061.00,1.6295
3060.00,1.6232
3059.00,1.6188
3058.00,1.6164
3057.00,1.6159
3056.00,1.6174
3055.00,1.6209
3054.00,1.6265
3053.00,1.6341
3052.00,1.6435
3051.00,1.6545
3050.00,1.6669
3049.00,1.6807
3048.00,1.6959
3047.00,1.7123
3046.00,1.7298
3045.00,1.7484
3044.00,1.7682
3043.00,1.7893
3042.00,1.8113
3041.00,1.8340
3040.00,1.8570
3039.00,1.8801
3038.00,1.9035
3037.00,1.9269
3036.00,1.9503
3035.00,1.9732
3034.00,1.9958
3033.00,2.0184
3032.00,2.0410
3031.00,2.0634
3030.00,2.0851
3029.00,2.1058
3028.00,2.1250
3027.00,2.1430
3026.00,2.1600
3025.00,2.1763
3024.00,2.1922
3023.00,2.2074
3022.00,2.2220
3021.00,2.2359
3020.00,2.2488
3019.00,2.2602
3018.00,2.2700
3017.00,2.2790
3016.00,2.2880
3015.00,2.2973
3014.00,2.3061
3013.00,2.3135
3012.00,2.3192
3011.00,2.3233
3010.00,2.3263
3009.00,2.3288
3008.00,2.3310
3007.00,2.3326
3006.00,2.3325
3005.00,2.3304
3004.00,2.3263
3003.00,2.3207
3002.00,2.3144
3001.00,2.3079
3000.00,2.3009
2999.00,2.2927
2998.00,2.2829
2997.00,2.2715
2996.00,2.2587
2995.00,2.2452
2994.00,2.2310
2993.00,2.2164
2992.00,2.2014
2991.00,2.1866
2990.00,2.1729
2989.00,2.1614
2988.00,2.1531
2987.00,2.1490
2986.00,2.1500
2985.00,2.1567
2984.00,2.1699
2983.00,2.1901
2982.00,2.2176
2981.00,2.2527
2980.00,2.2948
2979.00,2.3430
2978.00,2.3963
2977.00,2.4544
2976.00,2.5169
2975.00,2.5841
2974.00,2.6556
2973.00,2.7307
2972.00,2.8080
2971.00,2.8870
2970.00,2.9703
2969.00,3.0620
2968.00,3.1619
2967.00,3.2624
2966.00,3.3549
2965.00,3.4419
2964.00,3.5338
2963.00,3.6315
2962.00,3.7187
2961.00,3.7812
2960.00,3.8247
2959.00,3.8552
2958.00,3.8641
2957.00,3.8527
2956.00,3.8472
2955.00,3.8746
2954.00,3.9366
2953.00,4.0033
2952.00,4.0332
2951.00,4.0206
2950.00,4.0027
2949.00,4.0117
2948.00,4.0550
2947.00,4.1153
2946.00,4.1587
2945.00,4.1796
2944.00,4.1918
2943.00,4.1657
2942.00,4.0898
2941.00,4.0149
2940.00,3.9884
2939.00,4.0182
2938.00,4.0856
2937.00,4.1796
2936.00,4.2958
2935.00,4.4425
2934.00,4.6362
2933.00,4.9857
2932.00,5.2679
2931.00,4.8969
2930.00,4.6817
2929.00,4.7348
2928.00,4.9090
2927.00,4.6938
2926.00,4.5197
2925.00,4.4727
2924.00,4.4065
2923.00,4.2435
2922.00,4.1025
2921.00,4.0345
2920.00,3.9739
2919.00,3.8793
2918.00,3.7650
2917.00,3.6661
2916.00,3.5929
2915.00,3.5295
2914.00,3.4585
2913.00,3.3821
2912.00,3.3143
2911.00,3.2657
2910.00,3.2366
2909.00,3.2195
2908.00,3.2036
2907.00,3.1820
2906.00,3.1546
2905.00,3.1253
2904.00,3.0970
2903.00,3.0694
2902.00,3.0417
2901.00,3.0151
2900.00,2.9913
2899.00,2.9706
2898.00,2.9519
2897.00,2.9340
2896.00,2.9160
2895.00,2.8969
2894.00,2.8764
2893.00,2.8558
2892.00,2.8374
2891.00,2.8222
2890.00,2.8087
2889.00,2.7949
2888.00,2.7812
2887.00,2.7702
2886.00,2.7649
2885.00,2.7659
2884.00,2.7718
2883.00,2.7811
2882.00,2.7944
2881.00,2.8137
2880.00,2.8409
2879.00,2.8755
2878.00,2.9159
2877.00,2.9608
2876.00,3.0100
2875.00,3.0640
2874.00,3.1231
2873.00,3.1867
2872.00,3.2540
2871.00,3.3243
2870.00,3.3970
2869.00,3.4717
2868.00,3.5451
2867.00,3.6095
2866.00,3.6574
2865.00,3.6920
2864.00,3.7268
2863.00,3.7719
2862.00,3.8188
2861.00,3.8395
2860.00,3.8093
2859.00,3.7312
2858.00,3.6250
2857.00,3.5077
2856.00,3.3917
2855.00,3.2847
2854.00,3.1879
2853.00,3.0974
2852.00,3.0087
2851.00,2.9204
2850.00,2.8339
2849.00,2.7510
2848.00,2.6724
2847.00,2.5978
2846.00,2.5264
2845.00,2.4578
2844.00,2.3923
2843.00,2.3307
2842.00,2.2736
2841.00,2.2215
2840.00,2.1749
2839.00,2.1347
2838.00,2.1015
2837.00,2.0753
2836.00,2.0557
2835.00,2.0418
2834.00,2.0328
2833.00,2.0283
2832.00,2.0278
2831.00,2.0310
2830.00,2.0372
2829.00,2.0453
2828.00,2.0538
2827.00,2.0621
2826.00,2.0702
2825.00,2.0786
2824.00,2.0880
2823.00,2.0984
2822.00,2.1097
2821.00,2.1217
2820.00,2.1342
2819.00,2.1475
2818.00,2.1619
2817.00,2.1775
2816.00,2.1941
2815.00,2.2113
2814.00,2.2284
2813.00,2.2452
2812.00,2.2617
2811.00,2.2776
2810.00,2.2929
2809.00,2.3074
2808.00,2.3208
2807.00,2.3329
2806.00,2.3439
2805.00,2.3540
2804.00,2.3635
2803.00,2.3727
2802.00,2.3816
2801.00,2.3897
2800.00,2.3965
2799.00,2.4018
2798.00,2.4060
2797.00,2.4100
2796.00,2.4135
2795.00,2.4153
2794.00,2.4146
2793.00,2.4121
2792.00,2.4091
2791.00,2.4067
2790.00,2.4051
2789.00,2.4032
2788.00,2.4001
2787.00,2.3953
2786.00,2.3891
2785.00,2.3822
2784.00,2.3744
2783.00,2.3659
2782.00,2.3566
2781.00,2.3469
2780.00,2.3367
2779.00,2.3254
2778.00,2.3130
2777.00,2.3001
2776.00,2.2869
2775.00,2.2729
2774.00,2.2574
2773.00,2.2402
2772.00,2.2215
2771.00,2.2013
2770.00,2.1798
2769.00,2.1573
2768.00,2.1343
2767.00,2.1108
2766.00,2.0867
2765.00,2.0614
2764.00,2.0347
2763.00,2.0067
2762.00,1.9774
2761.00,1.9471
2760.00,1.9155
2759.00,1.8823
2758.00,1.8474
2757.00,1.8107
2756.00,1.7725
2755.00,1.7330
2754.00,1.6927
2753.00,1.6523
2752.00,1.6126
2751.00,1.5742
2750.00,1.5377
2749.00,1.5036
2748.00,1.4725
2747.00,1.4448
2746.00,1.4212
2745.00,1.4020
2744.00,1.3874
2743.00,1.3778
2742.00,1.3733
2741.00,1.3738
2740.00,1.3792
2739.00,1.3892
2738.00,1.4034
2737.00,1.4215
2736.00,1.4430
2735.00,1.4672
2734.00,1.4937
2733.00,1.5218
2732.00,1.5516
2731.00,1.5827
2730.00,1.6149
2729.00,1.6478
2728.00,1.6810
2727.00,1.7143
2726.00,1.7479
2725.00,1.7817
2724.00,1.8158
2723.00,1.8495
2722.00,1.8827
2721.00,1.9152
2720.00,1.9472
2719.00,1.9786
2718.00,2.0089
2717.00,2.0381
2716.00,2.0660
2715.00,2.0928
2714.00,2.1181
2713.00,2.1421
2712.00,2.1649
2711.00,2.1867
2710.00,2.2076
2709.00,2.2274
2708.00,2.2466
2707.00,2.2651
2706.00,2.2827
2705.00,2.2988
2704.00,2.3133
2703.00,2.3268
2702.00,2.3400
2701.00,2.3529
2700.00,2.3656
2699.00,2.3774
2698.00,2.3879
2697.00,2.3973
2696.00,2.4057
2695.00,2.4135
2694.00,2.4208
2693.00,2.4279
2692.00,2.4350
2691.00,2.4424
2690.00,2.4495
2689.00,2.4556
2688.00,2.4602
2687.00,2.4633
2686.00,2.4653
2685.00,2.4670
2684.00,2.4689
2683.00,2.4715
2682.00,2.4740
2681.00,2.4758
2680.00,2.4765
2679.00,2.4763
2678.00,2.4753
2677.00,2.4736
2676.00,2.4715
2675.00,2.4693
2674.00,2.4669
2673.00,2.4636
2672.00,2.4594
2671.00,2.4545
2670.00,2.4495
2669.00,2.4444
2668.00,2.4389
2667.00,2.4325
2666.00,2.4249
2665.00,2.4163
2664.00,2.4065
2663.00,2.3956
2662.00,2.3835
2661.00,2.3704
2660.00,2.3565
2659.00,2.3425
2658.00,2.3286
2657.00,2.3146
2656.00,2.3000
2655.00,2.2845
2654.00,2.2683
2653.00,2.2515
2652.00,2.2343
2651.00,2.2166
2650.00,2.1982
2649.00,2.1785
2648.00,2.1575
2647.00,2.1349
2646.00,2.1110
2645.00,2.0861
2644.00,2.0599
2643.00,2.0322
2642.00,2.0026
2641.00,1.9712
2640.00,1.9382
2639.00,1.9036
2638.00,1.8676
2637.00,1.8302
2636.00,1.7918
2635.00,1.7528
2634.00,1.7138
2633.00,1.6750
2632.00,1.6369
2631.00,1.6001
2630.00,1.5654
2629.00,1.5331
2628.00,1.5040
2627.00,1.4783
2626.00,1.4566
2625.00,1.4391
2624.00,1.4262
2623.00,1.4180
2622.00,1.4143
2621.00,1.4153
2620.00,1.4205
2619.00,1.4297
2618.00,1.4425
2617.00,1.4585
2616.00,1.4771
2615.00,1.4979
2614.00,1.5203
2613.00,1.5443
2612.00,1.5696
2611.00,1.5958
2610.00,1.6228
2609.00,1.6504
2608.00,1.6786
2607.00,1.7074
2606.00,1.7368
2605.00,1.7667
2604.00,1.7975
2603.00,1.8290
2602.00,1.8608
2601.00,1.8926
2600.00,1.9240
2599.00,1.9551
2598.00,1.9858
2597.00,2.0163
2596.00,2.0463
2595.00,2.0755
2594.00,2.1037
2593.00,2.1306
2592.00,2.1564
2591.00,2.1812
2590.00,2.2052
2589.00,2.2285
2588.00,2.2506
2587.00,2.2715
2586.00,2.2909
2585.00,2.3088
2584.00,2.3254
2583.00,2.3408
2582.00,2.3553
2581.00,2.3692
2580.00,2.3825
2579.00,2.3957
2578.00,2.4092
2577.00,2.4227
2576.00,2.4351
2575.00,2.4459
2574.00,2.4557
2573.00,2.4654
2572.00,2.4754
2571.00,2.4850
2570.00,2.4934
2569.00,2.4997
2568.00,2.5044
2567.00,2.5084
2566.00,2.5131
2565.00,2.5187
2564.00,2.5240
2563.00,2.5275
2562.00,2.5293
2561.00,2.5312
2560.00,2.5343
2559.00,2.5385
2558.00,2.5428
2557.00,2.5459
2556.00,2.5470
2555.00,2.5460
2554.00,2.5435
2553.00,2.5405
2552.00,2.5372
2551.00,2.5335
2550.00,2.5289
2549.00,2.5241
2548.00,2.5196
2547.00,2.5156
2546.00,2.5119
2545.00,2.5080
2544.00,2.5032
2543.00,2.4973
2542.00,2.4903
2541.00,2.4820
2540.00,2.4723
2539.00,2.4612
2538.00,2.4497
2537.00,2.4389
2536.00,2.4287
2535.00,2.4181
2534.00,2.4066
2533.00,2.3943
2532.00,2.3812
2531.00,2.3666
2530.00,2.3504
2529.00,2.3329
2528.00,2.3153
2527.00,2.2978
2526.00,2.2799
2525.00,2.2608
2524.00,2.2403
2523.00,2.2182
2522.00,2.1946
2521.00,2.1694
2520.00,2.1425
2519.00,2.1138
2518.00,2.0838
2517.00,2.0525
2516.00,2.0202
2515.00,1.9865
2514.00,1.9509
2513.00,1.9132
2512.00,1.8737
2511.00,1.8325
2510.00,1.7900
2509.00,1.7466
2508.00,1.7024
2507.00,1.6579
2506.00,1.6135
2505.00,1.5700
2504.00,1.5280
2503.00,1.4882
2502.00,1.4512
2501.00,1.4176
2500.00,1.3883
2499.00,1.3638
2498.00,1.3444
2497.00,1.3308
2496.00,1.3232
2495.00,1.3215
2494.00,1.3257
2493.00,1.3354
2492.00,1.3503
2491.00,1.3699
2490.00,1.3937
2489.00,1.4212
2488.00,1.4517
2487.00,1.4847
2486.00,1.5198
2485.00,1.5565
2484.00,1.5943
2483.00,1.6328
2482.00,1.6717
2481.00,1.7111
2480.00,1.7507
2479.00,1.7904
2478.00,1.8301
2477.00,1.8695
2476.00,1.9083
2475.00,1.9463
2474.00,1.9832
2473.00,2.0190
2472.00,2.0536
2471.00,2.0871
2470.00,2.1197
2469.00,2.1514
2468.00,2.1819
2467.00,2.2105
2466.00,2.2368
2465.00,2.2610
2464.00,2.2834
2463.00,2.3045
2462.00,2.3247
2461.00,2.3443
2460.00,2.3638
2459.00,2.3824
2458.00,2.3998
2457.00,2.4164
2456.00,2.4327
2455.00,2.4489
2454.00,2.4646
2453.00,2.4790
2452.00,2.4917
2451.00,2.5026
2450.00,2.5125
2449.00,2.5221
2448.00,2.5325
2447.00,2.5435
2446.00,2.5545
2445.00,2.5648
2444.00,2.5737
2443.00,2.5808
2442.00,2.5867
2441.00,2.5922
2440.00,2.5982
2439.00,2.6044
2438.00,2.6101
2437.00,2.6145
2436.00,2.6171
2435.00,2.6181
2434.00,2.6178
2433.00,2.6169
2432.00,2.6161
2431.00,2.6160
2430.00,2.6168
2429.00,2.6182
2428.00,2.6192
2427.00,2.6191
2426.00,2.6178
2425.00,2.6160
2424.00,2.6137
2423.00,2.6107
2422.00,2.6068
2421.00,2.6025
2420.00,2.5979
2419.00,2.5926
2418.00,2.5858
2417.00,2.5782
2416.00,2.5706
2415.00,2.5630
2414.00,2.5548
2413.00,2.5454
2412.00,2.5352
2411.00,2.5250
2410.00,2.5151
2409.00,2.5051
2408.00,2.4942
2407.00,2.4817
2406.00,2.4676
2405.00,2.4525
2404.00,2.4364
2403.00,2.4191
2402.00,2.4002
2401.00,2.3800
2400.00,2.3589
2399.00,2.3375
2398.00,2.3159
2397.00,2.2937
2396.00,2.2703
2395.00,2.2450
2394.00,2.2176
2393.00,2.1885
2392.00,2.1582
2391.00,2.1268
2390.00,2.0942
2389.00,2.0605
2388.00,2.0261
2387.00,1.9921
2386.00,1.9597
2385.00,1.9302
2384.00,1.9053
2383.00,1.8864
2382.00,1.8749
2381.00,1.8717
2380.00,1.8776
2379.00,1.8920
2378.00,1.9137
2377.00,1.9403
2376.00,1.9686
2375.00,1.9955
2374.00,2.0183
2373.00,2.0355
2372.00,2.0468
2371.00,2.0533
2370.00,2.0567
2369.00,2.0592
2368.00,2.0627
2367.00,2.0683
2366.00,2.0765
2365.00,2.0875
2364.00,2.1012
2363.00,2.1174
2362.00,2.1353
2361.00,2.1547
2360.00,2.1760
2359.00,2.1995
2358.00,2.2260
2357.00,2.2548
2356.00,2.2831
2355.00,2.3084
2354.00,2.3293
2353.00,2.3464
2352.00,2.3597
2351.00,2.3708
2350.00,2.3843
2349.00,2.4062
2348.00,2.4377
2347.00,2.4723
2346.00,2.5036
2345.00,2.5307
2344.00,2.5558
2343.00,2.5827
2342.00,2.6124
2341.00,2.6431
2340.00,2.6714
2339.00,2.6971
2338.00,2.7222
2337.00,2.7469
2336.00,2.7715
2335.00,2.7977
2334.00,2.8281
2333.00,2.8638
2332.00,2.9049
2331.00,2.9512
2330.00,3.0022
2329.00,3.0549
2328.00,3.1043
2327.00,3.1444
2326.00,3.1730
2325.00,3.1941
2324.00,3.2146
2323.00,3.2419
2322.00,3.2767
2321.00,3.3135
2320.00,3.3438
2319.00,3.3626
2318.00,3.3707
2317.00,3.3707
2316.00,3.3641
2315.00,3.3507
2314.00,3.3332
2313.00,3.3171
2312.00,3.3075
2311.00,3.3038
2310.00,3.3020
2309.00,3.2967
2308.00,3.2853
2307.00,3.2669
2306.00,3.2417
2305.00,3.2114
2304.00,3.1776
2303.00,3.1421
2302.00,3.1068
2301.00,3.0743
2300.00,3.0461
2299.00,3.0208
2298.00,2.9952
2297.00,2.9668
2296.00,2.9358
2295.00,2.9044
2294.00,2.8745
2293.00,2.8477
2292.00,2.8243
2291.00,2.8035
2290.00,2.7840
2289.00,2.7650
2288.00,2.7465
2287.00,2.7285
2286.00,2.7106
2285.00,2.6921
2284.00,2.6733
2283.00,2.6546
2282.00,2.6361
2281.00,2.6181
2280.00,2.6009
2279.00,2.5838
2278.00,2.5656
2277.00,2.5456
2276.00,2.5244
2275.00,2.5032
2274.00,2.4826
2273.00,2.4618
2272.00,2.4399
2271.00,2.4168
2270.00,2.3927
2269.00,2.3678
2268.00,2.3422
2267.00,2.3156
2266.00,2.2875
2265.00,2.2578
2264.00,2.2264
2263.00,2.1930
2262.00,2.1573
2261.00,2.1192
2260.00,2.0790
2259.00,2.0371
2258.00,1.9939
2257.00,1.9496
2256.00,1.9046
2255.00,1.8597
2254.00,1.8153
2253.00,1.7714
2252.00,1.7272
2251.00,1.6820
2250.00,1.6360
2249.00,1.5904
2248.00,1.5468
2247.00,1.5069
2246.00,1.4719
2245.00,1.4428
2244.00,1.4204
2243.00,1.4053
2242.00,1.3977
2241.00,1.3979
2240.00,1.4053
2239.00,1.4197
2238.00,1.4402
2237.00,1.4661
2236.00,1.4967
2235.00,1.5312
2234.00,1.5686
2233.00,1.6083
2232.00,1.6499
2231.00,1.6929
2230.00,1.7371
2229.00,1.7822
2228.00,1.8276
2227.00,1.8728
2226.00,1.9177
2225.00,1.9620
2224.00,2.0058
2223.00,2.0488
2222.00,2.0907
2221.00,2.1311
2220.00,2.1698
2219.00,2.2068
2218.00,2.2422
2217.00,2.2761
2216.00,2.3087
2215.00,2.3402
2214.00,2.3704
2213.00,2.3988
2212.00,2.4250
2211.00,2.4492
2210.00,2.4716
2209.00,2.4930
2208.00,2.5136
2207.00,2.5336
2206.00,2.5531
2205.00,2.5720
2204.00,2.5901
2203.00,2.6068
2202.00,2.6217
2201.00,2.6353
2200.00,2.6485
2199.00,2.6614
2198.00,2.6738
2197.00,2.6860
2196.00,2.6983
2195.00,2.7102
2194.00,2.7204
2193.00,2.7290
2192.00,2.7375
2191.00,2.7471
2190.00,2.7562
2189.00,2.7627
2188.00,2.7667
2187.00,2.7702
2186.00,2.7749
2185.00,2.7804
2184.00,2.7850
2183.00,2.7881
2182.00,2.7904
2181.00,2.7935
2180.00,2.7983
2179.00,2.8034
2178.00,2.8068
2177.00,2.8073
2176.00,2.8060
2175.00,2.8046
2174.00,2.8033
2173.00,2.8013
2172.00,2.7982
2171.00,2.7956
2170.00,2.7950
2169.00,2.7960
2168.00,2.7969
2167.00,2.7956
2166.00,2.7918
2165.00,2.7858
2164.00,2.7777
2163.00,2.7676
2162.00,2.7564
2161.00,2.7462
2160.00,2.7384
2159.00,2.7328
2158.00,2.7270
2157.00,2.7189
2156.00,2.7084
2155.00,2.6963
2154.00,2.6835
2153.00,2.6693
2152.00,2.6528
2151.00,2.6345
2150.00,2.6163
2149.00,2.5993
2148.00,2.5828
2147.00,2.5647
2146.00,2.5445
2145.00,2.5232
2144.00,2.5017
2143.00,2.4794
2142.00,2.4551
2141.00,2.4288
2140.00,2.4015
2139.00,2.3735
2138.00,2.3442
2137.00,2.3134
2136.00,2.2811
2135.00,2.2471
2134.00,2.2110
2133.00,2.1727
2132.00,2.1326
2131.00,2.0907
2130.00,2.0467
2129.00,2.0002
2128.00,1.9511
2127.00,1.8999
2126.00,1.8473
2125.00,1.7940
2124.00,1.7409
2123.00,1.6894
2122.00,1.6405
2121.00,1.5956
2120.00,1.5558
2119.00,1.5218
2118.00,1.4944
2117.00,1.4742
2116.00,1.4619
2115.00,1.4578
2114.00,1.4620
2113.00,1.4740
2112.00,1.4931
2111.00,1.5185
2110.00,1.5495
2109.00,1.5852
2108.00,1.6248
2107.00,1.6673
2106.00,1.7120
2105.00,1.7585
2104.00,1.8062
2103.00,1.8545
2102.00,1.9028
2101.00,1.9508
2100.00,1.9982
2099.00,2.0448
2098.00,2.0899
2097.00,2.1331
2096.00,2.1743
2095.00,2.2141
2094.00,2.2527
2093.00,2.2897
2092.00,2.3248
2091.00,2.3578
2090.00,2.3892
2089.00,2.4194
2088.00,2.4484
2087.00,2.4764
2086.00,2.5036
2085.00,2.5305
2084.00,2.5565
2083.00,2.5810
2082.00,2.6037
2081.00,2.6247
2080.00,2.6444
2079.00,2.6634
2078.00,2.6821
2077.00,2.7011
2076.00,2.7199
2075.00,2.7371
2074.00,2.7511
2073.00,2.7621
2072.00,2.7725
2071.00,2.7839
2070.00,2.7957
2069.00,2.8057
2068.00,2.8132
2067.00,2.8194
2066.00,2.8264
2065.00,2.8353
2064.00,2.8457
2063.00,2.8560
2062.00,2.8642
2061.00,2.8694
2060.00,2.8722
2059.00,2.8738
2058.00,2.8750
2057.00,2.8769
2056.00,2.8804
2055.00,2.8850
2054.00,2.8896
2053.00,2.8936
2052.00,2.8977
2051.00,2.9019
2050.00,2.9041
2049.00,2.9030
2048.00,2.9008
2047.00,2.9003
2046.00,2.9009
2045.00,2.8990
2044.00,2.8929
2043.00,2.8856
2042.00,2.8801
2041.00,2.8762
2040.00,2.8719
2039.00,2.8667
2038.00,2.8614
2037.00,2.8565
2036.00,2.8510
2035.00,2.8442
2034.00,2.8359
2033.00,2.8262
2032.00,2.8155
2031.00,2.8043
2030.00,2.7931
2029.00,2.7818
2028.00,2.7698
2027.00,2.7561
2026.00,2.7399
2025.00,2.7217
2024.00,2.7030
2023.00,2.6856
2022.00,2.6694
2021.00,2.6524
2020.00,2.6327
2019.00,2.6103
2018.00,2.5864
2017.00,2.5624
2016.00,2.5379
2015.00,2.5121
2014.00,2.4843
2013.00,2.4546
2012.00,2.4234
2011.00,2.3903
2010.00,2.3552
2009.00,2.3180
2008.00,2.2791
2007.00,2.2379
2006.00,2.1939
2005.00,2.1469
2004.00,2.0971
2003.00,2.0451
2002.00,1.9908
2001.00,1.9350
2000.00,1.8783
1999.00,1.8219
1998.00,1.7671
1997.00,1.7154
1996.00,1.6672
1995.00,1.6226
1994.00,1.5830
1993.00,1.5521
1992.00,1.5334
1991.00,1.5267
1990.00,1.5297
1989.00,1.5410
1988.00,1.5606
1987.00,1.5888
1986.00,1.6236
1985.00,1.6631
1984.00,1.7062
1983.00,1.7524
1982.00,1.8007
1981.00,1.8500
1980.00,1.8998
1979.00,1.9496
1978.00,1.9989
1977.00,2.0473
1976.00,2.0943
1975.00,2.1398
1974.00,2.1838
1973.00,2.2270
1972.00,2.2690
1971.00,2.3085
1970.00,2.3446
1969.00,2.3778
1968.00,2.4108
1967.00,2.4456
1966.00,2.4819
1965.00,2.5179
1964.00,2.5524
1963.00,2.5846
1962.00,2.6137
1961.00,2.6389
1960.00,2.6605
1959.00,2.6803
1958.00,2.7000
1957.00,2.7201
1956.00,2.7402
1955.00,2.7601
1954.00,2.7799
1953.00,2.8002
1952.00,2.8206
1951.00,2.8390
1950.00,2.8530
1949.00,2.8627
1948.00,2.8718
1947.00,2.8833
1946.00,2.8959
1945.00,2.9067
1944.00,2.9152
1943.00,2.9239
1942.00,2.9333
1941.00,2.9418
1940.00,2.9485
1939.00,2.9553
1938.00,2.9637
1937.00,2.9727
1936.00,2.9808
1935.00,2.9882
1934.00,2.9955
1933.00,3.0010
1932.00,3.0021
1931.00,2.9993
1930.00,2.9952
1929.00,2.9928
1928.00,2.9927
1927.00,2.9935
1926.00,2.9920
1925.00,2.9870
1924.00,2.9816
1923.00,2.9800
1922.00,2.9807
1921.00,2.9781
1920.00,2.9702
1919.00,2.9628
1918.00,2.9622
1917.00,2.9658
1916.00,2.9654
1915.00,2.9567
1914.00,2.9431
1913.00,2.9303
1912.00,2.9210
1911.00,2.9144
1910.00,2.9079
1909.00,2.8994
1908.00,2.8879
1907.00,2.8740
1906.00,2.8585
1905.00,2.8414
1904.00,2.8230
1903.00,2.8039
1902.00,2.7842
1901.00,2.7637
1900.00,2.7419
1899.00,2.7184
1898.00,2.6934
1897.00,2.6666
1896.00,2.6389
1895.00,2.6111
1894.00,2.5829
1893.00,2.5513
1892.00,2.5139
1891.00,2.4715
1890.00,2.4280
1889.00,2.3861
1888.00,2.3442
1887.00,2.2989
1886.00,2.2491
1885.00,2.1966
1884.00,2.1432
1883.00,2.0891
1882.00,2.0341
1881.00,1.9798
1880.00,1.9282
1879.00,1.8807
1878.00,1.8387
1877.00,1.8030
1876.00,1.7741
1875.00,1.7529
1874.00,1.7399
1873.00,1.7338
1872.00,1.7322
1871.00,1.7352
1870.00,1.7463
1869.00,1.7681
1868.00,1.7982
1867.00,1.8315
1866.00,1.8653
1865.00,1.9010
1864.00,1.9410
1863.00,1.9857
1862.00,2.0345
1861.00,2.0868
1860.00,2.1419
1859.00,2.1984
1858.00,2.2550
1857.00,2.3107
1856.00,2.3644
1855.00,2.4144
1854.00,2.4610
1853.00,2.5056
1852.00,2.5482
1851.00,2.5872
1850.00,2.6239
1849.00,2.6617
1848.00,2.6997
1847.00,2.7317
1846.00,2.7549
1845.00,2.7751
1844.00,2.8012
1843.00,2.8339
1842.00,2.8659
1841.00,2.8922
1840.00,2.9131
1839.00,2.9319
1838.00,2.9502
1837.00,2.9674
1836.00,2.9834
1835.00,2.9983
1834.00,3.0119
1833.00,3.0241
1832.00,3.0351
1831.00,3.0463
1830.00,3.0592
1829.00,3.0696
1828.00,3.0727
1827.00,3.0673
1826.00,3.0711
1825.00,3.0767
1824.00,3.0825
1823.00,3.0877
1822.00,3.0933
1821.00,3.0934
1820.00,3.0888
1819.00,3.0831
1818.00,3.0791
1817.00,3.0780
1816.00,3.0785
1815.00,3.0770
1814.00,3.0721
1813.00,3.0664
1812.00,3.0635
1811.00,3.0646
1810.00,3.0662
1809.00,3.0653
1808.00,3.0625
1807.00,3.0592
1806.00,3.0528
1805.00,3.0382
1804.00,3.0155
1803.00,2.9911
1802.00,2.9725
1801.00,2.9600
1800.00,2.9467
1799.00,2.9267
1798.00,2.9008
1797.00,2.8740
1796.00,2.8487
1795.00,2.8204
1794.00,2.7823
1793.00,2.7334
1792.00,2.6793
1791.00,2.6272
1790.00,2.5784
1789.00,2.5272
1788.00,2.4685
1787.00,2.4032
1786.00,2.3396
1785.00,2.2877
1784.00,2.2525
1783.00,2.2294
1782.00,2.2154
1781.00,2.2146
1780.00,2.2314
1779.00,2.2653
1778.00,2.3123
1777.00,2.3722
1776.00,2.4446
1775.00,2.5236
1774.00,2.6033
1773.00,2.6820
1772.00,2.7544
1771.00,2.8114
1770.00,2.8506
1769.00,2.8809
1768.00,2.9175
1767.00,2.9650
1766.00,3.0135
1765.00,3.0517
1764.00,3.0783
1763.00,3.1029
1762.00,3.1380
1761.00,3.1858
1760.00,3.2352
1759.00,3.2720
1758.00,3.2913
1757.00,3.3041
1756.00,3.3227
1755.00,3.3489
1754.00,3.3781
1753.00,3.4090
1752.00,3.4399
1751.00,3.4646
1750.00,3.4814
1749.00,3.5036
1748.00,3.5468
1747.00,3.6087
1746.00,3.6685
1745.00,3.7090
1744.00,3.7394
1743.00,3.7847
1742.00,3.8581
1741.00,3.9558
1740.00,4.0642
1739.00,4.1482
1738.00,4.1694
1737.00,4.1384
1736.00,4.0950
1735.00,4.0931
1734.00,4.1802
1733.00,4.3589
1732.00,4.5445
1731.00,4.5883
1730.00,4.5475
1729.00,4.4950
1728.00,4.4287
1727.00,4.3960
1726.00,4.4413
1725.00,4.5840
1724.00,4.8144
1723.00,5.0424
1722.00,5.1094
1721.00,5.0012
1720.00,4.8603
1719.00,4.7818
1718.00,4.8435
1717.00,5.0721
1716.00,5.0106
1715.00,4.9149
1714.00,4.8691
1713.00,4.5884
1712.00,4.4463
1711.00,4.4429
1710.00,4.4911
1709.00,4.5416
1708.00,4.5975
1707.00,4.6265
1706.00,4.6053
1705.00,4.6234
1704.00,4.6912
1703.00,4.6975
1702.00,4.5971
1701.00,4.5193
1700.00,4.5904
1699.00,4.9186
1698.00,5.2904
1697.00,4.9254
1696.00,4.7476
1695.00,4.5851
1694.00,4.4155
1693.00,4.2583
1692.00,4.1151
1691.00,3.9946
1690.00,3.9035
1689.00,3.8486
1688.00,3.8184
1687.00,3.7871
1686.00,3.7408
1685.00,3.6892
1684.00,3.6442
1683.00,3.6092
1682.00,3.5787
1681.00,3.5494
1680.00,3.5310
1679.00,3.5282
1678.00,3.5309
1677.00,3.5268
1676.00,3.5167
1675.00,3.5055
1674.00,3.4907
1673.00,3.4676
1672.00,3.4386
1671.00,3.4090
1670.00,3.3762
1669.00,3.3347
1668.00,3.2885
1667.00,3.2458
1666.00,3.2080
1665.00,3.1675
1664.00,3.1182
1663.00,3.0584
1662.00,2.9909
1661.00,2.9236
1660.00,2.8623
1659.00,2.8112
1658.00,2.7729
1657.00,2.7477
1656.00,2.7306
1655.00,2.7193
1654.00,2.7154
1653.00,2.7151
1652.00,2.7194
1651.00,2.7249
1650.00,2.7289
1649.00,2.7392
1648.00,2.7586
1647.00,2.7808
1646.00,2.8021
1645.00,2.8237
1644.00,2.8452
1643.00,2.8658
1642.00,2.8883
1641.00,2.9179
1640.00,2.9558
1639.00,2.9988
1638.00,3.0411
1637.00,3.0785
1636.00,3.1047
1635.00,3.1180
1634.00,3.1224
1633.00,3.1195
1632.00,3.1156
1631.00,3.1178
1630.00,3.1293
1629.00,3.1482
1628.00,3.1696
1627.00,3.1880
1626.00,3.2007
1625.00,3.2089
1624.00,3.2159
1623.00,3.2239
1622.00,3.2338
1621.00,3.2465
1620.00,3.2621
1619.00,3.2790
1618.00,3.2935
1617.00,3.3012
1616.00,3.3014
1615.00,3.2973
1614.00,3.2902
1613.00,3.2813
1612.00,3.2754
1611.00,3.2761
1610.00,3.2811
1609.00,3.2844
1608.00,3.2835
1607.00,3.2811
1606.00,3.2804
1605.00,3.2805
1604.00,3.2768
1603.00,3.2674
1602.00,3.2554
1601.00,3.2445
1600.00,3.2352
1599.00,3.2246
1598.00,3.2096
1597.00,3.1906
1596.00,3.1706
1595.00,3.1528
1594.00,3.1371
1593.00,3.1209
1592.00,3.1032
1591.00,3.0847
1590.00,3.0652
1589.00,3.0443
1588.00,3.0227
1587.00,3.0020
1586.00,2.9799
1585.00,2.9525
1584.00,2.9184
1583.00,2.8805
1582.00,2.8441
1581.00,2.8132
1580.00,2.7882
1579.00,2.7658
1578.00,2.7399
1577.00,2.6997
1576.00,2.6381
1575.00,2.5633
1574.00,2.4891
1573.00,2.4205
1572.00,2.3547
1571.00,2.2882
1570.00,2.2184
1569.00,2.1479
1568.00,2.0833
1567.00,2.0289
1566.00,1.9871
1565.00,1.9621
1564.00,1.9568
1563.00,1.9676
1562.00,1.9879
1561.00,2.0168
1560.00,2.0687
1559.00,2.1324
1558.00,2.1873
1557.00,2.2320
1556.00,2.2651
1555.00,2.2980
1554.00,2.3443
1553.00,2.3992
1552.00,2.4488
1551.00,2.4942
1550.00,2.5492
1549.00,2.6156
1548.00,2.6773
1547.00,2.7220
1546.00,2.7588
1545.00,2.8075
1544.00,2.8738
1543.00,2.9484
1542.00,3.0205
1541.00,3.0770
1540.00,3.1038
1539.00,3.1115
1538.00,3.1198
1537.00,3.1294
1536.00,3.1364
1535.00,3.1417
1534.00,3.1517
1533.00,3.1702
1532.00,3.1921
1531.00,3.2102
1530.00,3.2213
1529.00,3.2266
1528.00,3.2298
1527.00,3.2362
1526.00,3.2536
1525.00,3.2834
1524.00,3.3141
1523.00,3.3326
1522.00,3.3387
1521.00,3.3444
1520.00,3.3533
1519.00,3.3531
1518.00,3.3374
1517.00,3.3143
1516.00,3.2985
1515.00,3.2963
1514.00,3.3029
1513.00,3.3117
1512.00,3.3190
1511.00,3.3246
1510.00,3.3337
1509.00,3.3531
1508.00,3.3839
1507.00,3.4080
1506.00,3.4144
1505.00,3.4136
1504.00,3.4059
1503.00,3.3887
1502.00,3.3684
1501.00,3.3549
1500.00,3.3525
1499.00,3.3547
1498.00,3.3508
1497.00,3.3350
1496.00,3.3149
1495.00,3.3005
1494.00,3.2904
1493.00,3.2747
1492.00,3.2469
1491.00,3.2109
1490.00,3.1752
1489.00,3.1423
1488.00,3.1109
1487.00,3.0813
1486.00,3.0532
1485.00,3.0266
1484.00,2.9982
1483.00,2.9640
1482.00,2.9243
1481.00,2.8805
1480.00,2.8317
1479.00,2.7774
1478.00,2.7228
1477.00,2.6768
1476.00,2.6441
1475.00,2.6202
1474.00,2.6015
1473.00,2.5935
1472.00,2.6064
1471.00,2.6434
1470.00,2.6983
1469.00,2.7639
1468.00,2.8374
1467.00,2.9165
1466.00,2.9981
1465.00,3.0789
1464.00,3.1507
1463.00,3.2039
1462.00,3.2387
1461.00,3.2673
1460.00,3.3001
1459.00,3.3386
1458.00,3.3851
1457.00,3.4563
1456.00,3.5691
1455.00,3.7156
1454.00,3.8857
1453.00,4.0726
1452.00,4.2417
1451.00,4.4201
1450.00,4.6497
1449.00,4.6783
1448.00,4.4043
1447.00,4.1016
1446.00,3.8620
1445.00,3.6789
1444.00,3.5346
1443.00,3.4246
1442.00,3.3506
1441.00,3.3097
1440.00,3.2891
1439.00,3.2765
1438.00,3.2751
1437.00,3.3048
1436.00,3.3757
1435.00,3.4679
1434.00,3.5543
1433.00,3.6306
1432.00,3.7051
1431.00,3.7738
1430.00,3.8163
1429.00,3.8169
1428.00,3.7942
1427.00,3.7772
1426.00,3.7728
1425.00,3.7783
1424.00,3.7913
1423.00,3.8030
1422.00,3.7993
1421.00,3.7686
1420.00,3.7090
1419.00,3.6297
1418.00,3.5471
1417.00,3.4720
1416.00,3.4062
1415.00,3.3478
1414.00,3.2940
1413.00,3.2427
1412.00,3.1951
1411.00,3.1584
1410.00,3.1406
1409.00,3.1410
1408.00,3.1515
1407.00,3.1636
1406.00,3.1753
1405.00,3.1924
1404.00,3.2186
1403.00,3.2480
1402.00,3.2685
1401.00,3.2760
1400.00,3.2804
1399.00,3.2952
1398.00,3.3232
1397.00,3.3553
1396.00,3.3840
1395.00,3.4118
1394.00,3.4446
1393.00,3.4775
1392.00,3.4963
1391.00,3.4964
1390.00,3.4865
1389.00,3.4820
1388.00,3.4969
1387.00,3.5327
1386.00,3.5712
1385.00,3.5866
1384.00,3.5722
1383.00,3.5470
1382.00,3.5349
1381.00,3.5431
1380.00,3.5602
1379.00,3.5707
1378.00,3.5690
1377.00,3.5606
1376.00,3.5542
1375.00,3.5549
1374.00,3.5619
1373.00,3.5683
1372.00,3.5641
1371.00,3.5468
1370.00,3.5264
1369.00,3.5177
1368.00,3.5224
1367.00,3.5247
1366.00,3.5087
1365.00,3.4777
1364.00,3.4479
1363.00,3.4316
1362.00,3.4293
1361.00,3.4327
1360.00,3.4320
1359.00,3.4213
1358.00,3.3993
1357.00,3.3690
1356.00,3.3387
1355.00,3.3208
1354.00,3.3255
1353.00,3.3554
1352.00,3.4063
1351.00,3.4722
1350.00,3.5520
1349.00,3.6506
1348.00,3.7644
1347.00,3.8642
1346.00,3.9077
1345.00,3.8862
1344.00,3.8285
1343.00,3.7691
1342.00,3.7295
1341.00,3.7186
1340.00,3.7335
1339.00,3.7556
1338.00,3.7585
1337.00,3.7268
1336.00,3.6648
1335.00,3.5902
1334.00,3.5202
1333.00,3.4589
1332.00,3.3978
1331.00,3.3316
1330.00,3.2678
1329.00,3.2184
1328.00,3.1896
1327.00,3.1802
1326.00,3.1859
1325.00,3.2028
1324.00,3.2296
1323.00,3.2679
1322.00,3.3223
1321.00,3.3967
1320.00,3.4866
1319.00,3.5758
1318.00,3.6519
1317.00,3.7299
1316.00,3.8430
1315.00,4.0014
1314.00,4.1959
1313.00,4.3400
1312.00,4.2783
1311.00,4.1959
1310.00,4.1521
1309.00,4.0648
1308.00,3.9617
1307.00,3.8640
1306.00,3.7622
1305.00,3.6707
1304.00,3.5965
1303.00,3.5212
1302.00,3.4308
1301.00,3.3325
1300.00,3.2413
1299.00,3.1639
1298.00,3.0984
1297.00,3.0413
1296.00,2.9928
1295.00,2.9564
1294.00,2.9357
1293.00,2.9314
1292.00,2.9413
1291.00,2.9609
1290.00,2.9861
1289.00,3.0156
1288.00,3.0505
1287.00,3.0913
1286.00,3.1359
1285.00,3.1802
1284.00,3.2216
1283.00,3.2611
1282.00,3.3021
1281.00,3.3465
1280.00,3.3926
1279.00,3.4359
1278.00,3.4728
1277.00,3.5020
1276.00,3.5215
1275.00,3.5311
1274.00,3.5375
1273.00,3.5531
1272.00,3.5861
1271.00,3.6315
1270.00,3.6703
1269.00,3.6883
1268.00,3.6954
1267.00,3.7119
1266.00,3.7413
1265.00,3.7678
1264.00,3.7747
1263.00,3.7593
1262.00,3.7333
1261.00,3.7128
1260.00,3.7000
1259.00,3.6903
1258.00,3.6929
1257.00,3.7255
1256.00,3.7901
1255.00,3.8556
1254.00,3.8857
1253.00,3.8776
1252.00,3.8525
1251.00,3.8340
1250.00,3.8250
1249.00,3.8194
1248.00,3.8201
1247.00,3.8276
1246.00,3.8385
1245.00,3.8527
1244.00,3.8678
1243.00,3.8754
1242.00,3.8702
1241.00,3.8614
1240.00,3.8673
1239.00,3.8987
1238.00,3.9535
1237.00,4.0249
1236.00,4.0633
1235.00,4.0101
1234.00,3.9348
1233.00,3.9055
1232.00,3.9285
1231.00,3.9917
1230.00,4.0730
1229.00,4.1628
1228.00,4.2491
1227.00,4.3178
1226.00,4.3880
1225.00,4.5904
1224.00,4.7920
1223.00,4.5119
1222.00,4.3663
1221.00,4.3678
1220.00,4.4996
1219.00,4.6745
1218.00,4.4607
1217.00,4.2980
1216.00,4.3068
1215.00,4.3820
1214.00,4.3715
1213.00,4.2376
1212.00,4.0900
1211.00,3.9954
1210.00,3.9596
1209.00,3.9424
1208.00,3.9108
1207.00,3.8794
1206.00,3.8771
1205.00,3.9031
1204.00,3.9227
1203.00,3.9031
1202.00,3.8640
1201.00,3.8309
1200.00,3.7987
1199.00,3.7655
1198.00,3.7449
1197.00,3.7409
1196.00,3.7398
1195.00,3.7279
1194.00,3.7084
1193.00,3.6940
1192.00,3.6890
1191.00,3.6838
1190.00,3.6645
1189.00,3.6232
1188.00,3.5675
1187.00,3.5187
1186.00,3.4933
1185.00,3.4925
1184.00,3.5034
1183.00,3.5104
1182.00,3.5073
1181.00,3.4970
1180.00,3.4838
1179.00,3.4706
1178.00,3.4557
1177.00,3.4313
1176.00,3.3972
1175.00,3.3649
1174.00,3.3491
1173.00,3.3577
1172.00,3.3840
1171.00,3.4072
1170.00,3.4084
1169.00,3.3888
1168.00,3.3657
1167.00,3.3532
1166.00,3.3557
1165.00,3.3700
1164.00,3.3867
1163.00,3.3960
1162.00,3.3994
1161.00,3.4120
1160.00,3.4478
1159.00,3.5049
1158.00,3.5613
1157.00,3.5886
1156.00,3.5792
1155.00,3.5531
1154.00,3.5355
1153.00,3.5394
1152.00,3.5637
1151.00,3.5975
1150.00,3.6302
1149.00,3.6638
1148.00,3.7041
1147.00,3.7355
1146.00,3.7293
1145.00,3.6933
1144.00,3.6702
1143.00,3.6930
1142.00,3.7652
1141.00,3.8592
1140.00,3.9354
1139.00,3.9938
1138.00,4.0636
1137.00,4.1341
1136.00,4.1978
1135.00,4.2445
1134.00,4.2504
1133.00,4.2840
1132.00,4.4128
1131.00,4.6863
1130.00,4.7530
1129.00,4.6990
1128.00,5.0893
1127.00,4.8388
1126.00,4.4561
1125.00,4.3579
1124.00,4.2795
1123.00,4.2068
1122.00,4.2090
1121.00,4.3460
1120.00,4.5869
1119.00,4.6845
1118.00,4.6391
1117.00,4.5159
1116.00,4.5506
1115.00,4.7355
1114.00,4.5718
1113.00,4.3991
1112.00,4.3436
1111.00,4.3779
1110.00,4.3638
1109.00,4.1952
1108.00,4.1286
1107.00,4.2002
1106.00,4.3459
1105.00,4.4578
1104.00,4.3508
1103.00,4.2028
1102.00,4.2077
1101.00,4.4286
1100.00,4.4419
1099.00,4.1996
1098.00,4.1613
1097.00,4.2510
1096.00,4.3033
1095.00,4.2566
1094.00,4.2303
1093.00,4.3335
1092.00,4.4965
1091.00,4.5268
1090.00,4.5081
1089.00,4.6013
1088.00,4.7239
1087.00,4.4523
1086.00,4.1912
1085.00,4.0747
1084.00,3.9937
1083.00,3.9093
1082.00,3.8536
1081.00,3.8666
1080.00,3.9471
1079.00,4.0817
1078.00,4.2751
1077.00,4.4268
1076.00,4.2661
1075.00,4.2894
1074.00,4.7355
1073.00,4.4797
1072.00,4.1152
1071.00,3.9637
1070.00,3.9103
1069.00,3.9324
1068.00,3.9564
1067.00,3.9313
1066.00,3.8680
1065.00,3.8246
1064.00,3.8411
1063.00,3.9382
1062.00,4.0957
1061.00,4.3063
1060.00,4.5812
1059.00,4.3649
1058.00,3.9994
1057.00,3.8079
1056.00,3.7374
1055.00,3.7623
1054.00,3.8583
1053.00,3.9820
1052.00,4.0985
1051.00,4.0749
1050.00,3.9353
1049.00,3.8853
1048.00,3.9373
1047.00,3.9990
1046.00,3.9251
1045.00,3.7604
1044.00,3.6454
1043.00,3.5903
1042.00,3.5655
1041.00,3.5449
1040.00,3.5167
1039.00,3.4843
1038.00,3.4499
1037.00,3.4180
1036.00,3.3969
1035.00,3.3860
1034.00,3.3770
1033.00,3.3655
1032.00,3.3566
1031.00,3.3621
1030.00,3.3906
1029.00,3.4392
1028.00,3.4960
1027.00,3.5514
1026.00,3.6119
1025.00,3.6931
1024.00,3.8029
1023.00,3.9007
1022.00,3.8944
1021.00,3.8415
1020.00,3.8644
1019.00,3.9911
1018.00,4.2353
1017.00,4.3204
1016.00,4.0467
1015.00,3.8880
1014.00,3.8664
1013.00,3.9134
1012.00,3.9468
1011.00,3.9190
1010.00,3.8942
1009.00,3.9290
1008.00,4.0264
1007.00,4.1188
1006.00,4.1634
1005.00,4.2116
1004.00,4.3196
1003.00,4.5284
1002.00,4.6774
1001.00,4.4941
1000.00,4.2471
999.00,4.1087
998.00,4.0795
997.00,4.2384
996.00,4.5607
995.00,4.4093
994.00,4.3138
993.00,4.4705
992.00,4.4645
991.00,4.2140
990.00,4.0202
989.00,3.9085
988.00,3.8534
987.00,3.8497
986.00,3.8845
985.00,3.9466
984.00,4.0295
983.00,4.1609
982.00,4.3014
981.00,4.2594
980.00,4.0826
979.00,3.9465
978.00,3.9183
977.00,4.0130
976.00,4.1882
975.00,4.3063
974.00,4.2214
973.00,4.1109
972.00,4.1356
971.00,4.4633
970.00,4.7285
969.00,4.2922
968.00,4.2065
967.00,4.1976
966.00,4.1382
965.00,4.0744
964.00,4.0148
963.00,4.0612
962.00,4.3222
961.00,4.7767
960.00,4.7054
959.00,4.8301
958.00,5.1725
957.00,5.0360
956.00,4.7512
955.00,4.4462
954.00,4.2973
953.00,4.2943
952.00,4.4413
951.00,4.5030
950.00,4.3716
949.00,4.2602
948.00,4.1468
947.00,4.0931
946.00,4.1527
945.00,4.3017
944.00,4.4717
943.00,4.5781
942.00,4.6617
941.00,4.7547
940.00,4.4408
939.00,4.2509
938.00,4.1908
937.00,4.3789
936.00,4.9999
935.00,4.3785
934.00,4.1506
933.00,4.1358
932.00,4.1649
931.00,4.2136
930.00,4.1498
929.00,4.0349
928.00,3.9192
927.00,3.8635
926.00,3.8848
925.00,4.0239
924.00,4.4627
923.00,4.6293
922.00,4.1571
921.00,4.0255
920.00,3.9480
919.00,3.8997
918.00,3.9499
917.00,4.1803
916.00,4.6982
915.00,5.0306
914.00,5.0730
913.00,4.5827
912.00,4.3239
911.00,4.2656
910.00,4.2797
909.00,4.2263
908.00,4.0767
907.00,4.0066
906.00,4.0447
905.00,4.1623
904.00,4.2620
903.00,4.3677
902.00,4.4877
901.00,4.4655
900.00,4.4686
899.00,4.4479
898.00,4.3265
897.00,4.2946
896.00,4.4169
895.00,4.4177
894.00,4.2141
893.00,4.1094
892.00,4.1022
891.00,4.1769
890.00,4.3367
889.00,4.4547
888.00,4.4596
887.00,4.4074
886.00,4.3017
885.00,4.2388
884.00,4.2830
883.00,4.3081
882.00,4.1903
881.00,4.0782
880.00,4.1368
879.00,4.3592
878.00,4.3293
877.00,4.2425
876.00,4.3606
875.00,4.4694
874.00,4.4597
873.00,4.4820
872.00,4.4147
871.00,4.2213
870.00,4.0874
869.00,4.0693
868.00,4.2134
867.00,4.4419
866.00,4.3748
865.00,4.5050
864.00,5.0700
863.00,4.6651
862.00,4.4156
861.00,4.2300
860.00,4.1053
859.00,4.1238
858.00,4.2543
857.00,4.3063
856.00,4.1496
855.00,4.0825
854.00,4.1578
853.00,4.2288
852.00,4.1841
851.00,4.0627
850.00,3.8981
849.00,3.7752
848.00,3.7302
847.00,3.7636
846.00,3.8482
845.00,3.8873
844.00,3.8543
843.00,3.8438
842.00,3.9032
841.00,4.0087
840.00,4.0762
839.00,4.0750
838.00,4.0545
837.00,4.0659
836.00,4.1519
835.00,4.4356
834.00,4.7669
833.00,4.8873
832.00,4.9598
831.00,4.3690
830.00,4.1603
829.00,4.1055
828.00,4.0478
827.00,3.9660
826.00,3.8641
825.00,3.7994
824.00,3.7762
823.00,3.7571
822.00,3.7409
821.00,3.7569
820.00,3.8930
819.00,4.1333
818.00,4.0410
817.00,3.9316
816.00,4.0380
815.00,4.4208
814.00,4.5937
813.00,4.1699
812.00,3.9912
811.00,3.9067
810.00,3.8738
809.00,3.8679
808.00,3.8725
807.00,3.9074
806.00,3.9908
805.00,4.1688
804.00,4.4867
803.00,4.7640
802.00,4.5237
801.00,4.3301
800.00,4.2796
799.00,4.3011
798.00,4.3732
797.00,4.4033
796.00,4.3494
795.00,4.4100
794.00,4.5879
793.00,4.4429
792.00,4.2807
791.00,4.3250
790.00,4.6954
789.00,5.1302
788.00,4.9058
787.00,4.7893
786.00,4.3705
785.00,4.1559
784.00,4.0581
783.00,4.0284
782.00,4.0905
781.00,4.1835
780.00,4.2442
779.00,4.4162
778.00,4.6131
777.00,4.3143
776.00,4.1906
775.00,4.2303
774.00,4.2372
773.00,4.1571
772.00,4.0485
771.00,3.9986
770.00,4.0211
769.00,4.0591
768.00,4.0083
767.00,3.9381
766.00,3.9585
765.00,4.0885
764.00,4.2165
763.00,4.3924
762.00,4.8605
761.00,4.7073
760.00,4.4136
759.00,4.4823
758.00,4.7302
757.00,4.7020
756.00,4.8719
755.00,4.5891
754.00,4.2492
753.00,4.2501
752.00,4.5454
751.00,4.9137
750.00,4.6680
749.00,4.6712
748.00,4.6984
747.00,4.6342
746.00,4.5790
745.00,4.5776
744.00,4.7979
743.00,4.4938
742.00,4.1277
741.00,4.0063
740.00,4.0468
739.00,4.1524
738.00,4.2504
737.00,4.3640
736.00,4.2752
735.00,4.0799
734.00,3.9749
733.00,3.9538
732.00,3.9676
731.00,3.9768
730.00,4.0231
729.00,4.1904
728.00,4.6554
727.00,4.5135
726.00,4.0324
725.00,3.8725
724.00,3.8616
723.00,3.9317
722.00,3.9429
721.00,3.8543
720.00,3.8213
719.00,3.8685
718.00,3.9662
717.00,4.0713
716.00,4.1060
715.00,4.0676
714.00,4.0408
713.00,4.0219
712.00,4.0002
711.00,4.0217
710.00,4.0914
709.00,4.0915
708.00,3.9918
707.00,3.9684
706.00,4.0416
705.00,4.0814
704.00,4.0495
703.00,4.0259
702.00,3.9957
701.00,3.9650
700.00,3.9850
