Created as New Dataset,Sample 061 By Administrator Date Wednesday, November 24 2021
cm-1,A
7502.00,0.8428
7501.00,0.8358
7500.00,0.8293
7499.00,0.8233
7498.00,0.8175
7497.00,0.8119
7496.00,0.8069
7495.00,0.8027
7494.00,0.7994
7493.00,0.7967
7492.00,0.7945
7491.00,0.7929
7490.00,0.7922
7489.00,0.7923
7488.00,0.7929
7487.00,0.7934
7486.00,0.7940
7485.00,0.7948
7484.00,0.7962
7483.00,0.7980
7482.00,0.8003
7481.00,0.8033
7480.00,0.8071
7479.00,0.8118
7478.00,0.8171
7477.00,0.8228
7476.00,0.8289
7475.00,0.8353
7474.00,0.8418
7473.00,0.8484
7472.00,0.8555
7471.00,0.8629
7470.00,0.8704
7469.00,0.8779
7468.00,0.8857
7467.00,0.8938
7466.00,0.9021
7465.00,0.9100
7464.00,0.9175
7463.00,0.9249
7462.00,0.9328
7461.00,0.9410
7460.00,0.9489
7459.00,0.9565
7458.00,0.9641
7457.00,0.9722
7456.00,0.9805
7455.00,0.9886
7454.00,0.9963
7453.00,1.0041
7452.00,1.0123
7451.00,1.0204
7450.00,1.0276
7449.00,1.0336
7448.00,1.0395
7447.00,1.0457
7446.00,1.0519
7445.00,1.0573
7444.00,1.0620
7443.00,1.0670
7442.00,1.0730
7441.00,1.0792
7440.00,1.0844
7439.00,1.0879
7438.00,1.0903
7437.00,1.0925
7436.00,1.0948
7435.00,1.0973
7434.00,1.0990
7433.00,1.0998
7432.00,1.1001
7431.00,1.1008
7430.00,1.1017
7429.00,1.1024
7428.00,1.1032
7427.00,1.1046
7426.00,1.1069
7425.00,1.1093
7424.00,1.1106
7423.00,1.1106
7422.00,1.1097
7421.00,1.1077
7420.00,1.1039
7419.00,1.0981
7418.00,1.0910
7417.00,1.0836
7416.00,1.0765
7415.00,1.0695
7414.00,1.0627
7413.00,1.0564
7412.00,1.0508
7411.00,1.0459
7410.00,1.0413
7409.00,1.0372
7408.00,1.0338
7407.00,1.0309
7406.00,1.0282
7405.00,1.0253
7404.00,1.0218
7403.00,1.0181
7402.00,1.0141
7401.00,1.0098
7400.00,1.0048
7399.00,0.9991
7398.00,0.9932
7397.00,0.9874
7396.00,0.9822
7395.00,0.9776
7394.00,0.9734
7393.00,0.9690
7392.00,0.9639
7391.00,0.9580
7390.00,0.9517
7389.00,0.9453
7388.00,0.9389
7387.00,0.9325
7386.00,0.9258
7385.00,0.9190
7384.00,0.9123
7383.00,0.9056
7382.00,0.8988
7381.00,0.8918
7380.00,0.8844
7379.00,0.8769
7378.00,0.8694
7377.00,0.8621
7376.00,0.8547
7375.00,0.8469
7374.00,0.8385
7373.00,0.8300
7372.00,0.8220
7371.00,0.8147
7370.00,0.8081
7369.00,0.8022
7368.00,0.7971
7367.00,0.7927
7366.00,0.7888
7365.00,0.7855
7364.00,0.7824
7363.00,0.7795
7362.00,0.7767
7361.00,0.7744
7360.00,0.7729
7359.00,0.7722
7358.00,0.7722
7357.00,0.7729
7356.00,0.7742
7355.00,0.7762
7354.00,0.7791
7353.00,0.7827
7352.00,0.7868
7351.00,0.7911
7350.00,0.7954
7349.00,0.7995
7348.00,0.8036
7347.00,0.8079
7346.00,0.8130
7345.00,0.8190
7344.00,0.8259
7343.00,0.8334
7342.00,0.8413
7341.00,0.8496
7340.00,0.8583
7339.00,0.8672
7338.00,0.8754
7337.00,0.8828
7336.00,0.8899
7335.00,0.8973
7334.00,0.9052
7333.00,0.9135
7332.00,0.9220
7331.00,0.9308
7330.00,0.9398
7329.00,0.9491
7328.00,0.9585
7327.00,0.9678
7326.00,0.9770
7325.00,0.9858
7324.00,0.9944
7323.00,1.0029
7322.00,1.0111
7321.00,1.0192
7320.00,1.0273
7319.00,1.0357
7318.00,1.0442
7317.00,1.0525
7316.00,1.0607
7315.00,1.0688
7314.00,1.0772
7313.00,1.0858
7312.00,1.0945
7311.00,1.1029
7310.00,1.1109
7309.00,1.1184
7308.00,1.1254
7307.00,1.1320
7306.00,1.1380
7305.00,1.1430
7304.00,1.1472
7303.00,1.1510
7302.00,1.1549
7301.00,1.1591
7300.00,1.1637
7299.00,1.1685
7298.00,1.1729
7297.00,1.1760
7296.00,1.1780
7295.00,1.1794
7294.00,1.1805
7293.00,1.1812
7292.00,1.1813
7291.00,1.1812
7290.00,1.1814
7289.00,1.1822
7288.00,1.1828
7287.00,1.1826
7286.00,1.1820
7285.00,1.1812
7284.00,1.1800
7283.00,1.1781
7282.00,1.1754
7281.00,1.1725
7280.00,1.1695
7279.00,1.1665
7278.00,1.1629
7277.00,1.1587
7276.00,1.1542
7275.00,1.1494
7274.00,1.1442
7273.00,1.1381
7272.00,1.1311
7271.00,1.1240
7270.00,1.1171
7269.00,1.1102
7268.00,1.1030
7267.00,1.0956
7266.00,1.0881
7265.00,1.0806
7264.00,1.0720
7263.00,1.0621
7262.00,1.0516
7261.00,1.0415
7260.00,1.0323
7259.00,1.0235
7258.00,1.0141
7257.00,1.0042
7256.00,0.9940
7255.00,0.9838
7254.00,0.9735
7253.00,0.9628
7252.00,0.9523
7251.00,0.9422
7250.00,0.9326
7249.00,0.9229
7248.00,0.9132
7247.00,0.9036
7246.00,0.8944
7245.00,0.8854
7244.00,0.8765
7243.00,0.8677
7242.00,0.8594
7241.00,0.8515
7240.00,0.8438
7239.00,0.8362
7238.00,0.8290
7237.00,0.8225
7236.00,0.8168
7235.00,0.8115
7234.00,0.8067
7233.00,0.8025
7232.00,0.7992
7231.00,0.7965
7230.00,0.7942
7229.00,0.7921
7228.00,0.7903
7227.00,0.7891
7226.00,0.7883
7225.00,0.7881
7224.00,0.7886
7223.00,0.7898
7222.00,0.7915
7221.00,0.7937
7220.00,0.7967
7219.00,0.8007
7218.00,0.8055
7217.00,0.8105
7216.00,0.8155
7215.00,0.8206
7214.00,0.8262
7213.00,0.8324
7212.00,0.8392
7211.00,0.8462
7210.00,0.8534
7209.00,0.8609
7208.00,0.8684
7207.00,0.8760
7206.00,0.8839
7205.00,0.8920
7204.00,0.9005
7203.00,0.9091
7202.00,0.9180
7201.00,0.9273
7200.00,0.9368
7199.00,0.9462
7198.00,0.9552
7197.00,0.9636
7196.00,0.9718
7195.00,0.9800
7194.00,0.9882
7193.00,0.9963
7192.00,1.0044
7191.00,1.0126
7190.00,1.0209
7189.00,1.0293
7188.00,1.0375
7187.00,1.0454
7186.00,1.0529
7185.00,1.0600
7184.00,1.0668
7183.00,1.0733
7182.00,1.0801
7181.00,1.0873
7180.00,1.0947
7179.00,1.1018
7178.00,1.1083
7177.00,1.1143
7176.00,1.1198
7175.00,1.1249
7174.00,1.1293
7173.00,1.1333
7172.00,1.1373
7171.00,1.1416
7170.00,1.1460
7169.00,1.1499
7168.00,1.1534
7167.00,1.1565
7166.00,1.1592
7165.00,1.1615
7164.00,1.1633
7163.00,1.1645
7162.00,1.1650
7161.00,1.1651
7160.00,1.1648
7159.00,1.1646
7158.00,1.1642
7157.00,1.1633
7156.00,1.1620
7155.00,1.1608
7154.00,1.1599
7153.00,1.1590
7152.00,1.1573
7151.00,1.1547
7150.00,1.1520
7149.00,1.1494
7148.00,1.1465
7147.00,1.1427
7146.00,1.1382
7145.00,1.1332
7144.00,1.1280
7143.00,1.1226
7142.00,1.1173
7141.00,1.1118
7140.00,1.1063
7139.00,1.1003
7138.00,1.0940
7137.00,1.0873
7136.00,1.0805
7135.00,1.0735
7134.00,1.0659
7133.00,1.0575
7132.00,1.0486
7131.00,1.0396
7130.00,1.0308
7129.00,1.0220
7128.00,1.0130
7127.00,1.0034
7126.00,0.9936
7125.00,0.9840
7124.00,0.9745
7123.00,0.9650
7122.00,0.9553
7121.00,0.9453
7120.00,0.9352
7119.00,0.9253
7118.00,0.9156
7117.00,0.9060
7116.00,0.8967
7115.00,0.8877
7114.00,0.8787
7113.00,0.8697
7112.00,0.8605
7111.00,0.8518
7110.00,0.8439
7109.00,0.8366
7108.00,0.8296
7107.00,0.8229
7106.00,0.8168
7105.00,0.8112
7104.00,0.8060
7103.00,0.8010
7102.00,0.7963
7101.00,0.7922
7100.00,0.7888
7099.00,0.7862
7098.00,0.7843
7097.00,0.7831
7096.00,0.7825
7095.00,0.7822
7094.00,0.7825
7093.00,0.7836
7092.00,0.7853
7091.00,0.7876
7090.00,0.7903
7089.00,0.7936
7088.00,0.7973
7087.00,0.8017
7086.00,0.8066
7085.00,0.8121
7084.00,0.8181
7083.00,0.8244
7082.00,0.8309
7081.00,0.8377
7080.00,0.8451
7079.00,0.8528
7078.00,0.8608
7077.00,0.8689
7076.00,0.8771
7075.00,0.8855
7074.00,0.8941
7073.00,0.9030
7072.00,0.9119
7071.00,0.9207
7070.00,0.9296
7069.00,0.9390
7068.00,0.9486
7067.00,0.9578
7066.00,0.9667
7065.00,0.9755
7064.00,0.9846
7063.00,0.9937
7062.00,1.0025
7061.00,1.0115
7060.00,1.0210
7059.00,1.0308
7058.00,1.0401
7057.00,1.0489
7056.00,1.0575
7055.00,1.0665
7054.00,1.0757
7053.00,1.0843
7052.00,1.0921
7051.00,1.0993
7050.00,1.1064
7049.00,1.1134
7048.00,1.1200
7047.00,1.1262
7046.00,1.1322
7045.00,1.1385
7044.00,1.1451
7043.00,1.1514
7042.00,1.1572
7041.00,1.1625
7040.00,1.1677
7039.00,1.1730
7038.00,1.1782
7037.00,1.1830
7036.00,1.1870
7035.00,1.1905
7034.00,1.1936
7033.00,1.1962
7032.00,1.1980
7031.00,1.1989
7030.00,1.1994
7029.00,1.2000
7028.00,1.2007
7027.00,1.2011
7026.00,1.2011
7025.00,1.2009
7024.00,1.2007
7023.00,1.2000
7022.00,1.1986
7021.00,1.1964
7020.00,1.1935
7019.00,1.1905
7018.00,1.1878
7017.00,1.1853
7016.00,1.1823
7015.00,1.1785
7014.00,1.1739
7013.00,1.1689
7012.00,1.1634
7011.00,1.1572
7010.00,1.1502
7009.00,1.1428
7008.00,1.1354
7007.00,1.1283
7006.00,1.1212
7005.00,1.1136
7004.00,1.1054
7003.00,1.0969
7002.00,1.0882
7001.00,1.0797
7000.00,1.0709
6999.00,1.0614
6998.00,1.0513
6997.00,1.0413
6996.00,1.0314
6995.00,1.0214
6994.00,1.0108
6993.00,0.9997
6992.00,0.9884
6991.00,0.9773
6990.00,0.9665
6989.00,0.9556
6988.00,0.9448
6987.00,0.9340
6986.00,0.9235
6985.00,0.9133
6984.00,0.9034
6983.00,0.8934
6982.00,0.8833
6981.00,0.8736
6980.00,0.8643
6979.00,0.8555
6978.00,0.8472
6977.00,0.8393
6976.00,0.8318
6975.00,0.8247
6974.00,0.8180
6973.00,0.8121
6972.00,0.8069
6971.00,0.8024
6970.00,0.7981
6969.00,0.7942
6968.00,0.7908
6967.00,0.7882
6966.00,0.7862
6965.00,0.7850
6964.00,0.7845
6963.00,0.7844
6962.00,0.7852
6961.00,0.7867
6960.00,0.7890
6959.00,0.7917
6958.00,0.7946
6957.00,0.7979
6956.00,0.8018
6955.00,0.8064
6954.00,0.8117
6953.00,0.8175
6952.00,0.8237
6951.00,0.8303
6950.00,0.8375
6949.00,0.8450
6948.00,0.8529
6947.00,0.8609
6946.00,0.8692
6945.00,0.8776
6944.00,0.8861
6943.00,0.8948
6942.00,0.9036
6941.00,0.9128
6940.00,0.9220
6939.00,0.9312
6938.00,0.9404
6937.00,0.9497
6936.00,0.9591
6935.00,0.9686
6934.00,0.9781
6933.00,0.9878
6932.00,0.9977
6931.00,1.0075
6930.00,1.0169
6929.00,1.0261
6928.00,1.0350
6927.00,1.0438
6926.00,1.0523
6925.00,1.0604
6924.00,1.0683
6923.00,1.0760
6922.00,1.0838
6921.00,1.0914
6920.00,1.0984
6919.00,1.1050
6918.00,1.1113
6917.00,1.1178
6916.00,1.1246
6915.00,1.1317
6914.00,1.1388
6913.00,1.1456
6912.00,1.1519
6911.00,1.1575
6910.00,1.1625
6909.00,1.1668
6908.00,1.1705
6907.00,1.1738
6906.00,1.1771
6905.00,1.1806
6904.00,1.1843
6903.00,1.1878
6902.00,1.1908
6901.00,1.1930
6900.00,1.1943
6899.00,1.1949
6898.00,1.1950
6897.00,1.1949
6896.00,1.1945
6895.00,1.1940
6894.00,1.1934
6893.00,1.1924
6892.00,1.1908
6891.00,1.1888
6890.00,1.1865
6889.00,1.1844
6888.00,1.1822
6887.00,1.1793
6886.00,1.1756
6885.00,1.1715
6884.00,1.1671
6883.00,1.1625
6882.00,1.1572
6881.00,1.1515
6880.00,1.1454
6879.00,1.1390
6878.00,1.1326
6877.00,1.1260
6876.00,1.1194
6875.00,1.1122
6874.00,1.1045
6873.00,1.0963
6872.00,1.0880
6871.00,1.0795
6870.00,1.0705
6869.00,1.0608
6868.00,1.0508
6867.00,1.0408
6866.00,1.0310
6865.00,1.0209
6864.00,1.0103
6863.00,0.9994
6862.00,0.9884
6861.00,0.9776
6860.00,0.9669
6859.00,0.9564
6858.00,0.9462
6857.00,0.9364
6856.00,0.9267
6855.00,0.9169
6854.00,0.9069
6853.00,0.8968
6852.00,0.8870
6851.00,0.8773
6850.00,0.8679
6849.00,0.8589
6848.00,0.8504
6847.00,0.8423
6846.00,0.8343
6845.00,0.8265
6844.00,0.8191
6843.00,0.8121
6842.00,0.8057
6841.00,0.7998
6840.00,0.7946
6839.00,0.7902
6838.00,0.7865
6837.00,0.7835
6836.00,0.7809
6835.00,0.7789
6834.00,0.7776
6833.00,0.7771
6832.00,0.7774
6831.00,0.7782
6830.00,0.7796
6829.00,0.7816
6828.00,0.7843
6827.00,0.7875
6826.00,0.7915
6825.00,0.7961
6824.00,0.8013
6823.00,0.8070
6822.00,0.8131
6821.00,0.8195
6820.00,0.8261
6819.00,0.8330
6818.00,0.8402
6817.00,0.8479
6816.00,0.8559
6815.00,0.8644
6814.00,0.8733
6813.00,0.8825
6812.00,0.8917
6811.00,0.9007
6810.00,0.9097
6809.00,0.9191
6808.00,0.9289
6807.00,0.9388
6806.00,0.9489
6805.00,0.9589
6804.00,0.9689
6803.00,0.9789
6802.00,0.9886
6801.00,0.9982
6800.00,1.0076
6799.00,1.0169
6798.00,1.0263
6797.00,1.0358
6796.00,1.0455
6795.00,1.0548
6794.00,1.0638
6793.00,1.0723
6792.00,1.0808
6791.00,1.0892
6790.00,1.0976
6789.00,1.1059
6788.00,1.1141
6787.00,1.1220
6786.00,1.1298
6785.00,1.1376
6784.00,1.1450
6783.00,1.1518
6782.00,1.1578
6781.00,1.1633
6780.00,1.1688
6779.00,1.1738
6778.00,1.1784
6777.00,1.1825
6776.00,1.1866
6775.00,1.1908
6774.00,1.1950
6773.00,1.1993
6772.00,1.2036
6771.00,1.2077
6770.00,1.2112
6769.00,1.2137
6768.00,1.2150
6767.00,1.2156
6766.00,1.2157
6765.00,1.2155
6764.00,1.2152
6763.00,1.2149
6762.00,1.2145
6761.00,1.2138
6760.00,1.2126
6759.00,1.2110
6758.00,1.2088
6757.00,1.2061
6756.00,1.2032
6755.00,1.2002
6754.00,1.1970
6753.00,1.1932
6752.00,1.1887
6751.00,1.1833
6750.00,1.1773
6749.00,1.1710
6748.00,1.1646
6747.00,1.1581
6746.00,1.1514
6745.00,1.1445
6744.00,1.1372
6743.00,1.1296
6742.00,1.1214
6741.00,1.1127
6740.00,1.1034
6739.00,1.0939
6738.00,1.0841
6737.00,1.0741
6736.00,1.0640
6735.00,1.0535
6734.00,1.0427
6733.00,1.0315
6732.00,1.0202
6731.00,1.0088
6730.00,0.9974
6729.00,0.9860
6728.00,0.9747
6727.00,0.9636
6726.00,0.9525
6725.00,0.9415
6724.00,0.9305
6723.00,0.9196
6722.00,0.9087
6721.00,0.8979
6720.00,0.8873
6719.00,0.8771
6718.00,0.8675
6717.00,0.8585
6716.00,0.8500
6715.00,0.8418
6714.00,0.8340
6713.00,0.8265
6712.00,0.8193
6711.00,0.8124
6710.00,0.8060
6709.00,0.8003
6708.00,0.7954
6707.00,0.7913
6706.00,0.7878
6705.00,0.7849
6704.00,0.7827
6703.00,0.7811
6702.00,0.7800
6701.00,0.7796
6700.00,0.7799
6699.00,0.7811
6698.00,0.7831
6697.00,0.7857
6696.00,0.7888
6695.00,0.7924
6694.00,0.7966
6693.00,0.8014
6692.00,0.8065
6691.00,0.8121
6690.00,0.8182
6689.00,0.8249
6688.00,0.8321
6687.00,0.8396
6686.00,0.8476
6685.00,0.8561
6684.00,0.8650
6683.00,0.8741
6682.00,0.8832
6681.00,0.8921
6680.00,0.9010
6679.00,0.9101
6678.00,0.9192
6677.00,0.9285
6676.00,0.9381
6675.00,0.9481
6674.00,0.9587
6673.00,0.9696
6672.00,0.9801
6671.00,0.9901
6670.00,0.9997
6669.00,1.0093
6668.00,1.0189
6667.00,1.0283
6666.00,1.0375
6665.00,1.0469
6664.00,1.0564
6663.00,1.0658
6662.00,1.0749
6661.00,1.0835
6660.00,1.0919
6659.00,1.1001
6658.00,1.1079
6657.00,1.1153
6656.00,1.1224
6655.00,1.1293
6654.00,1.1363
6653.00,1.1433
6652.00,1.1501
6651.00,1.1566
6650.00,1.1626
6649.00,1.1682
6648.00,1.1733
6647.00,1.1780
6646.00,1.1823
6645.00,1.1863
6644.00,1.1902
6643.00,1.1939
6642.00,1.1972
6641.00,1.2000
6640.00,1.2021
6639.00,1.2037
6638.00,1.2050
6637.00,1.2061
6636.00,1.2071
6635.00,1.2080
6634.00,1.2084
6633.00,1.2082
6632.00,1.2074
6631.00,1.2059
6630.00,1.2040
6629.00,1.2015
6628.00,1.1989
6627.00,1.1963
6626.00,1.1938
6625.00,1.1911
6624.00,1.1879
6623.00,1.1843
6622.00,1.1801
6621.00,1.1754
6620.00,1.1702
6619.00,1.1643
6618.00,1.1582
6617.00,1.1519
6616.00,1.1454
6615.00,1.1388
6614.00,1.1320
6613.00,1.1249
6612.00,1.1172
6611.00,1.1090
6610.00,1.1003
6609.00,1.0914
6608.00,1.0823
6607.00,1.0730
6606.00,1.0634
6605.00,1.0536
6604.00,1.0438
6603.00,1.0338
6602.00,1.0234
6601.00,1.0126
6600.00,1.0015
6599.00,0.9904
6598.00,0.9794
6597.00,0.9684
6596.00,0.9574
6595.00,0.9463
6594.00,0.9355
6593.00,0.9248
6592.00,0.9140
6591.00,0.9031
6590.00,0.8923
6589.00,0.8817
6588.00,0.8714
6587.00,0.8614
6586.00,0.8520
6585.00,0.8431
6584.00,0.8349
6583.00,0.8271
6582.00,0.8197
6581.00,0.8126
6580.00,0.8059
6579.00,0.7996
6578.00,0.7939
6577.00,0.7887
6576.00,0.7841
6575.00,0.7802
6574.00,0.7772
6573.00,0.7750
6572.00,0.7735
6571.00,0.7726
6570.00,0.7724
6569.00,0.7730
6568.00,0.7744
6567.00,0.7764
6566.00,0.7790
6565.00,0.7820
6564.00,0.7854
6563.00,0.7894
6562.00,0.7940
6561.00,0.7993
6560.00,0.8053
6559.00,0.8120
6558.00,0.8194
6557.00,0.8272
6556.00,0.8352
6555.00,0.8433
6554.00,0.8515
6553.00,0.8602
6552.00,0.8692
6551.00,0.8786
6550.00,0.8884
6549.00,0.8986
6548.00,0.9087
6547.00,0.9187
6546.00,0.9288
6545.00,0.9389
6544.00,0.9491
6543.00,0.9595
6542.00,0.9700
6541.00,0.9806
6540.00,0.9910
6539.00,1.0011
6538.00,1.0112
6537.00,1.0215
6536.00,1.0319
6535.00,1.0424
6534.00,1.0528
6533.00,1.0633
6532.00,1.0736
6531.00,1.0836
6530.00,1.0930
6529.00,1.1017
6528.00,1.1099
6527.00,1.1179
6526.00,1.1259
6525.00,1.1340
6524.00,1.1420
6523.00,1.1499
6522.00,1.1578
6521.00,1.1655
6520.00,1.1727
6519.00,1.1793
6518.00,1.1855
6517.00,1.1915
6516.00,1.1973
6515.00,1.2027
6514.00,1.2078
6513.00,1.2127
6512.00,1.2171
6511.00,1.2209
6510.00,1.2240
6509.00,1.2270
6508.00,1.2299
6507.00,1.2327
6506.00,1.2350
6505.00,1.2366
6504.00,1.2377
6503.00,1.2385
6502.00,1.2391
6501.00,1.2392
6500.00,1.2388
6499.00,1.2380
6498.00,1.2371
6497.00,1.2360
6496.00,1.2343
6495.00,1.2318
6494.00,1.2287
6493.00,1.2253
6492.00,1.2217
6491.00,1.2177
6490.00,1.2132
6489.00,1.2082
6488.00,1.2027
6487.00,1.1967
6486.00,1.1903
6485.00,1.1836
6484.00,1.1765
6483.00,1.1690
6482.00,1.1611
6481.00,1.1530
6480.00,1.1444
6479.00,1.1354
6478.00,1.1260
6477.00,1.1165
6476.00,1.1067
6475.00,1.0966
6474.00,1.0861
6473.00,1.0752
6472.00,1.0638
6471.00,1.0520
6470.00,1.0400
6469.00,1.0280
6468.00,1.0162
6467.00,1.0045
6466.00,0.9929
6465.00,0.9812
6464.00,0.9696
6463.00,0.9578
6462.00,0.9460
6461.00,0.9341
6460.00,0.9224
6459.00,0.9110
6458.00,0.8999
6457.00,0.8890
6456.00,0.8782
6455.00,0.8677
6454.00,0.8576
6453.00,0.8480
6452.00,0.8388
6451.00,0.8301
6450.00,0.8220
6449.00,0.8144
6448.00,0.8075
6447.00,0.8012
6446.00,0.7957
6445.00,0.7908
6444.00,0.7866
6443.00,0.7830
6442.00,0.7801
6441.00,0.7781
6440.00,0.7767
6439.00,0.7760
6438.00,0.7761
6437.00,0.7769
6436.00,0.7784
6435.00,0.7807
6434.00,0.7837
6433.00,0.7874
6432.00,0.7918
6431.00,0.7967
6430.00,0.8021
6429.00,0.8080
6428.00,0.8144
6427.00,0.8212
6426.00,0.8285
6425.00,0.8364
6424.00,0.8448
6423.00,0.8536
6422.00,0.8628
6421.00,0.8722
6420.00,0.8817
6419.00,0.8913
6418.00,0.9012
6417.00,0.9116
6416.00,0.9220
6415.00,0.9324
6414.00,0.9427
6413.00,0.9530
6412.00,0.9635
6411.00,0.9739
6410.00,0.9843
6409.00,0.9946
6408.00,1.0053
6407.00,1.0161
6406.00,1.0269
6405.00,1.0374
6404.00,1.0475
6403.00,1.0573
6402.00,1.0670
6401.00,1.0767
6400.00,1.0861
6399.00,1.0950
6398.00,1.1037
6397.00,1.1123
6396.00,1.1208
6395.00,1.1289
6394.00,1.1364
6393.00,1.1437
6392.00,1.1509
6391.00,1.1582
6390.00,1.1656
6389.00,1.1725
6388.00,1.1788
6387.00,1.1846
6386.00,1.1899
6385.00,1.1949
6384.00,1.1994
6383.00,1.2035
6382.00,1.2076
6381.00,1.2116
6380.00,1.2154
6379.00,1.2183
6378.00,1.2206
6377.00,1.2226
6376.00,1.2245
6375.00,1.2265
6374.00,1.2282
6373.00,1.2293
6372.00,1.2300
6371.00,1.2304
6370.00,1.2303
6369.00,1.2295
6368.00,1.2281
6367.00,1.2265
6366.00,1.2250
6365.00,1.2233
6364.00,1.2211
6363.00,1.2178
6362.00,1.2137
6361.00,1.2093
6360.00,1.2046
6359.00,1.1995
6358.00,1.1940
6357.00,1.1883
6356.00,1.1826
6355.00,1.1765
6354.00,1.1700
6353.00,1.1632
6352.00,1.1561
6351.00,1.1487
6350.00,1.1410
6349.00,1.1331
6348.00,1.1250
6347.00,1.1168
6346.00,1.1082
6345.00,1.0989
6344.00,1.0890
6343.00,1.0787
6342.00,1.0682
6341.00,1.0574
6340.00,1.0462
6339.00,1.0348
6338.00,1.0233
6337.00,1.0117
6336.00,0.9999
6335.00,0.9877
6334.00,0.9755
6333.00,0.9636
6332.00,0.9519
6331.00,0.9404
6330.00,0.9288
6329.00,0.9173
6328.00,0.9060
6327.00,0.8948
6326.00,0.8837
6325.00,0.8729
6324.00,0.8623
6323.00,0.8521
6322.00,0.8424
6321.00,0.8333
6320.00,0.8246
6319.00,0.8165
6318.00,0.8088
6317.00,0.8020
6316.00,0.7957
6315.00,0.7901
6314.00,0.7851
6313.00,0.7807
6312.00,0.7771
6311.00,0.7742
6310.00,0.7720
6309.00,0.7705
6308.00,0.7698
6307.00,0.7699
6306.00,0.7708
6305.00,0.7725
6304.00,0.7749
6303.00,0.7780
6302.00,0.7819
6301.00,0.7865
6300.00,0.7916
6299.00,0.7974
6298.00,0.8036
6297.00,0.8104
6296.00,0.8175
6295.00,0.8251
6294.00,0.8333
6293.00,0.8419
6292.00,0.8510
6291.00,0.8605
6290.00,0.8704
6289.00,0.8805
6288.00,0.8907
6287.00,0.9009
6286.00,0.9113
6285.00,0.9220
6284.00,0.9329
6283.00,0.9438
6282.00,0.9546
6281.00,0.9655
6280.00,0.9766
6279.00,0.9877
6278.00,0.9987
6277.00,1.0096
6276.00,1.0204
6275.00,1.0313
6274.00,1.0422
6273.00,1.0530
6272.00,1.0636
6271.00,1.0741
6270.00,1.0845
6269.00,1.0946
6268.00,1.1043
6267.00,1.1137
6266.00,1.1230
6265.00,1.1322
6264.00,1.1414
6263.00,1.1504
6262.00,1.1592
6261.00,1.1678
6260.00,1.1760
6259.00,1.1836
6258.00,1.1907
6257.00,1.1973
6256.00,1.2035
6255.00,1.2094
6254.00,1.2152
6253.00,1.2210
6252.00,1.2265
6251.00,1.2317
6250.00,1.2365
6249.00,1.2410
6248.00,1.2448
6247.00,1.2482
6246.00,1.2513
6245.00,1.2543
6244.00,1.2569
6243.00,1.2589
6242.00,1.2604
6241.00,1.2613
6240.00,1.2615
6239.00,1.2613
6238.00,1.2608
6237.00,1.2604
6236.00,1.2598
6235.00,1.2586
6234.00,1.2567
6233.00,1.2542
6232.00,1.2513
6231.00,1.2479
6230.00,1.2441
6229.00,1.2399
6228.00,1.2356
6227.00,1.2308
6226.00,1.2254
6225.00,1.2192
6224.00,1.2125
6223.00,1.2055
6222.00,1.1981
6221.00,1.1906
6220.00,1.1829
6219.00,1.1749
6218.00,1.1664
6217.00,1.1573
6216.00,1.1478
6215.00,1.1378
6214.00,1.1272
6213.00,1.1163
6212.00,1.1053
6211.00,1.0940
6210.00,1.0825
6209.00,1.0705
6208.00,1.0581
6207.00,1.0455
6206.00,1.0329
6205.00,1.0203
6204.00,1.0076
6203.00,0.9949
6202.00,0.9822
6201.00,0.9696
6200.00,0.9569
6199.00,0.9441
6198.00,0.9314
6197.00,0.9189
6196.00,0.9068
6195.00,0.8950
6194.00,0.8834
6193.00,0.8721
6192.00,0.8612
6191.00,0.8508
6190.00,0.8408
6189.00,0.8314
6188.00,0.8224
6187.00,0.8141
6186.00,0.8065
6185.00,0.7996
6184.00,0.7934
6183.00,0.7879
6182.00,0.7832
6181.00,0.7793
6180.00,0.7761
6179.00,0.7735
6178.00,0.7716
6177.00,0.7705
6176.00,0.7702
6175.00,0.7708
6174.00,0.7722
6173.00,0.7743
6172.00,0.7773
6171.00,0.7810
6170.00,0.7855
6169.00,0.7907
6168.00,0.7964
6167.00,0.8026
6166.00,0.8094
6165.00,0.8168
6164.00,0.8245
6163.00,0.8327
6162.00,0.8414
6161.00,0.8505
6160.00,0.8601
6159.00,0.8701
6158.00,0.8803
6157.00,0.8907
6156.00,0.9011
6155.00,0.9117
6154.00,0.9224
6153.00,0.9332
6152.00,0.9440
6151.00,0.9548
6150.00,0.9658
6149.00,0.9768
6148.00,0.9879
6147.00,0.9989
6146.00,1.0100
6145.00,1.0211
6144.00,1.0321
6143.00,1.0428
6142.00,1.0531
6141.00,1.0632
6140.00,1.0732
6139.00,1.0831
6138.00,1.0927
6137.00,1.1021
6136.00,1.1112
6135.00,1.1203
6134.00,1.1292
6133.00,1.1379
6132.00,1.1462
6131.00,1.1544
6130.00,1.1626
6129.00,1.1705
6128.00,1.1781
6127.00,1.1852
6126.00,1.1921
6125.00,1.1986
6124.00,1.2046
6123.00,1.2101
6122.00,1.2152
6121.00,1.2204
6120.00,1.2254
6119.00,1.2302
6118.00,1.2346
6117.00,1.2384
6116.00,1.2415
6115.00,1.2440
6114.00,1.2462
6113.00,1.2483
6112.00,1.2504
6111.00,1.2523
6110.00,1.2538
6109.00,1.2545
6108.00,1.2544
6107.00,1.2537
6106.00,1.2530
6105.00,1.2525
6104.00,1.2519
6103.00,1.2512
6102.00,1.2501
6101.00,1.2483
6100.00,1.2457
6099.00,1.2421
6098.00,1.2379
6097.00,1.2335
6096.00,1.2288
6095.00,1.2237
6094.00,1.2182
6093.00,1.2123
6092.00,1.2058
6091.00,1.1988
6090.00,1.1915
6089.00,1.1841
6088.00,1.1764
6087.00,1.1681
6086.00,1.1592
6085.00,1.1497
6084.00,1.1399
6083.00,1.1297
6082.00,1.1194
6081.00,1.1088
6080.00,1.0980
6079.00,1.0867
6078.00,1.0750
6077.00,1.0631
6076.00,1.0509
6075.00,1.0386
6074.00,1.0261
6073.00,1.0134
6072.00,1.0005
6071.00,0.9873
6070.00,0.9740
6069.00,0.9608
6068.00,0.9478
6067.00,0.9351
6066.00,0.9225
6065.00,0.9101
6064.00,0.8978
6063.00,0.8858
6062.00,0.8741
6061.00,0.8630
6060.00,0.8523
6059.00,0.8422
6058.00,0.8326
6057.00,0.8236
6056.00,0.8150
6055.00,0.8068
6054.00,0.7993
6053.00,0.7926
6052.00,0.7867
6051.00,0.7816
6050.00,0.7774
6049.00,0.7739
6048.00,0.7713
6047.00,0.7694
6046.00,0.7683
6045.00,0.7681
6044.00,0.7688
6043.00,0.7703
6042.00,0.7727
6041.00,0.7759
6040.00,0.7798
6039.00,0.7844
6038.00,0.7896
6037.00,0.7956
6036.00,0.8021
6035.00,0.8092
6034.00,0.8169
6033.00,0.8252
6032.00,0.8341
6031.00,0.8434
6030.00,0.8531
6029.00,0.8632
6028.00,0.8735
6027.00,0.8839
6026.00,0.8945
6025.00,0.9055
6024.00,0.9168
6023.00,0.9283
6022.00,0.9400
6021.00,0.9518
6020.00,0.9634
6019.00,0.9749
6018.00,0.9863
6017.00,0.9977
6016.00,1.0092
6015.00,1.0208
6014.00,1.0326
6013.00,1.0445
6012.00,1.0564
6011.00,1.0680
6010.00,1.0793
6009.00,1.0904
6008.00,1.1014
6007.00,1.1122
6006.00,1.1226
6005.00,1.1327
6004.00,1.1426
6003.00,1.1523
6002.00,1.1617
6001.00,1.1708
6000.00,1.1793
5999.00,1.1873
5998.00,1.1951
5997.00,1.2028
5996.00,1.2103
5995.00,1.2178
5994.00,1.2252
5993.00,1.2326
5992.00,1.2394
5991.00,1.2454
5990.00,1.2506
5989.00,1.2555
5988.00,1.2603
5987.00,1.2648
5986.00,1.2688
5985.00,1.2722
5984.00,1.2749
5983.00,1.2771
5982.00,1.2787
5981.00,1.2802
5980.00,1.2816
5979.00,1.2831
5978.00,1.2845
5977.00,1.2854
5976.00,1.2856
5975.00,1.2852
5974.00,1.2841
5973.00,1.2824
5972.00,1.2803
5971.00,1.2778
5970.00,1.2750
5969.00,1.2719
5968.00,1.2688
5967.00,1.2656
5966.00,1.2619
5965.00,1.2574
5964.00,1.2521
5963.00,1.2463
5962.00,1.2400
5961.00,1.2332
5960.00,1.2257
5959.00,1.2178
5958.00,1.2098
5957.00,1.2015
5956.00,1.1925
5955.00,1.1828
5954.00,1.1729
5953.00,1.1629
5952.00,1.1527
5951.00,1.1419
5950.00,1.1305
5949.00,1.1189
5948.00,1.1069
5947.00,1.0946
5946.00,1.0821
5945.00,1.0694
5944.00,1.0564
5943.00,1.0433
5942.00,1.0299
5941.00,1.0162
5940.00,1.0022
5939.00,0.9881
5938.00,0.9742
5937.00,0.9604
5936.00,0.9469
5935.00,0.9336
5934.00,0.9206
5933.00,0.9079
5932.00,0.8955
5931.00,0.8833
5930.00,0.8717
5929.00,0.8605
5928.00,0.8498
5927.00,0.8396
5926.00,0.8300
5925.00,0.8211
5924.00,0.8130
5923.00,0.8054
5922.00,0.7985
5921.00,0.7924
5920.00,0.7872
5919.00,0.7827
5918.00,0.7790
5917.00,0.7762
5916.00,0.7745
5915.00,0.7736
5914.00,0.7737
5913.00,0.7746
5912.00,0.7761
5911.00,0.7785
5910.00,0.7817
5909.00,0.7858
5908.00,0.7908
5907.00,0.7964
5906.00,0.8029
5905.00,0.8100
5904.00,0.8178
5903.00,0.8261
5902.00,0.8349
5901.00,0.8443
5900.00,0.8539
5899.00,0.8640
5898.00,0.8745
5897.00,0.8853
5896.00,0.8965
5895.00,0.9080
5894.00,0.9197
5893.00,0.9317
5892.00,0.9438
5891.00,0.9558
5890.00,0.9678
5889.00,0.9800
5888.00,0.9921
5887.00,1.0041
5886.00,1.0162
5885.00,1.0284
5884.00,1.0406
5883.00,1.0527
5882.00,1.0647
5881.00,1.0766
5880.00,1.0882
5879.00,1.0995
5878.00,1.1104
5877.00,1.1213
5876.00,1.1321
5875.00,1.1428
5874.00,1.1534
5873.00,1.1637
5872.00,1.1739
5871.00,1.1837
5870.00,1.1933
5869.00,1.2025
5868.00,1.2114
5867.00,1.2199
5866.00,1.2282
5865.00,1.2360
5864.00,1.2435
5863.00,1.2505
5862.00,1.2573
5861.00,1.2637
5860.00,1.2699
5859.00,1.2757
5858.00,1.2813
5857.00,1.2867
5856.00,1.2918
5855.00,1.2964
5854.00,1.3005
5853.00,1.3039
5852.00,1.3066
5851.00,1.3086
5850.00,1.3103
5849.00,1.3117
5848.00,1.3128
5847.00,1.3134
5846.00,1.3138
5845.00,1.3138
5844.00,1.3135
5843.00,1.3128
5842.00,1.3117
5841.00,1.3103
5840.00,1.3084
5839.00,1.3060
5838.00,1.3031
5837.00,1.2997
5836.00,1.2957
5835.00,1.2910
5834.00,1.2859
5833.00,1.2804
5832.00,1.2743
5831.00,1.2677
5830.00,1.2609
5829.00,1.2540
5828.00,1.2468
5827.00,1.2391
5826.00,1.2305
5825.00,1.2211
5824.00,1.2112
5823.00,1.2010
5822.00,1.1906
5821.00,1.1800
5820.00,1.1694
5819.00,1.1584
5818.00,1.1469
5817.00,1.1347
5816.00,1.1219
5815.00,1.1086
5814.00,1.0952
5813.00,1.0819
5812.00,1.0686
5811.00,1.0550
5810.00,1.0412
5809.00,1.0274
5808.00,1.0135
5807.00,0.9997
5806.00,0.9858
5805.00,0.9720
5804.00,0.9582
5803.00,0.9445
5802.00,0.9309
5801.00,0.9176
5800.00,0.9046
5799.00,0.8920
5798.00,0.8799
5797.00,0.8685
5796.00,0.8575
5795.00,0.8471
5794.00,0.8372
5793.00,0.8279
5792.00,0.8193
5791.00,0.8114
5790.00,0.8043
5789.00,0.7980
5788.00,0.7927
5787.00,0.7882
5786.00,0.7847
5785.00,0.7820
5784.00,0.7801
5783.00,0.7792
5782.00,0.7792
5781.00,0.7801
5780.00,0.7818
5779.00,0.7844
5778.00,0.7878
5777.00,0.7922
5776.00,0.7974
5775.00,0.8034
5774.00,0.8101
5773.00,0.8176
5772.00,0.8258
5771.00,0.8344
5770.00,0.8436
5769.00,0.8534
5768.00,0.8636
5767.00,0.8742
5766.00,0.8852
5765.00,0.8965
5764.00,0.9082
5763.00,0.9199
5762.00,0.9319
5761.00,0.9440
5760.00,0.9564
5759.00,0.9689
5758.00,0.9815
5757.00,0.9942
5756.00,1.0069
5755.00,1.0196
5754.00,1.0324
5753.00,1.0450
5752.00,1.0575
5751.00,1.0696
5750.00,1.0816
5749.00,1.0934
5748.00,1.1049
5747.00,1.1163
5746.00,1.1275
5745.00,1.1387
5744.00,1.1499
5743.00,1.1609
5742.00,1.1718
5741.00,1.1825
5740.00,1.1929
5739.00,1.2029
5738.00,1.2123
5737.00,1.2212
5736.00,1.2297
5735.00,1.2379
5734.00,1.2460
5733.00,1.2538
5732.00,1.2614
5731.00,1.2687
5730.00,1.2758
5729.00,1.2826
5728.00,1.2893
5727.00,1.2955
5726.00,1.3011
5725.00,1.3059
5724.00,1.3098
5723.00,1.3132
5722.00,1.3163
5721.00,1.3193
5720.00,1.3223
5719.00,1.3250
5718.00,1.3275
5717.00,1.3294
5716.00,1.3307
5715.00,1.3313
5714.00,1.3312
5713.00,1.3308
5712.00,1.3301
5711.00,1.3291
5710.00,1.3276
5709.00,1.3254
5708.00,1.3227
5707.00,1.3192
5706.00,1.3154
5705.00,1.3113
5704.00,1.3071
5703.00,1.3026
5702.00,1.2975
5701.00,1.2917
5700.00,1.2851
5699.00,1.2778
5698.00,1.2702
5697.00,1.2624
5696.00,1.2543
5695.00,1.2457
5694.00,1.2366
5693.00,1.2268
5692.00,1.2166
5691.00,1.2061
5690.00,1.1951
5689.00,1.1837
5688.00,1.1718
5687.00,1.1595
5686.00,1.1470
5685.00,1.1344
5684.00,1.1214
5683.00,1.1080
5682.00,1.0942
5681.00,1.0799
5680.00,1.0654
5679.00,1.0505
5678.00,1.0357
5677.00,1.0209
5676.00,1.0063
5675.00,0.9918
5674.00,0.9772
5673.00,0.9626
5672.00,0.9483
5671.00,0.9341
5670.00,0.9202
5669.00,0.9066
5668.00,0.8934
5667.00,0.8806
5666.00,0.8683
5665.00,0.8566
5664.00,0.8454
5663.00,0.8350
5662.00,0.8252
5661.00,0.8161
5660.00,0.8077
5659.00,0.8001
5658.00,0.7934
5657.00,0.7877
5656.00,0.7829
5655.00,0.7790
5654.00,0.7760
5653.00,0.7739
5652.00,0.7727
5651.00,0.7723
5650.00,0.7730
5649.00,0.7747
5648.00,0.7774
5647.00,0.7810
5646.00,0.7855
5645.00,0.7908
5644.00,0.7968
5643.00,0.8036
5642.00,0.8110
5641.00,0.8193
5640.00,0.8282
5639.00,0.8376
5638.00,0.8474
5637.00,0.8576
5636.00,0.8683
5635.00,0.8793
5634.00,0.8906
5633.00,0.9023
5632.00,0.9143
5631.00,0.9264
5630.00,0.9388
5629.00,0.9513
5628.00,0.9639
5627.00,0.9767
5626.00,0.9896
5625.00,1.0025
5624.00,1.0155
5623.00,1.0285
5622.00,1.0415
5621.00,1.0545
5620.00,1.0673
5619.00,1.0798
5618.00,1.0920
5617.00,1.1041
5616.00,1.1160
5615.00,1.1279
5614.00,1.1398
5613.00,1.1517
5612.00,1.1633
5611.00,1.1745
5610.00,1.1853
5609.00,1.1956
5608.00,1.2055
5607.00,1.2152
5606.00,1.2248
5605.00,1.2344
5604.00,1.2438
5603.00,1.2529
5602.00,1.2615
5601.00,1.2696
5600.00,1.2773
5599.00,1.2843
5598.00,1.2909
5597.00,1.2969
5596.00,1.3026
5595.00,1.3080
5594.00,1.3133
5593.00,1.3182
5592.00,1.3227
5591.00,1.3267
5590.00,1.3305
5589.00,1.3340
5588.00,1.3370
5587.00,1.3394
5586.00,1.3413
5585.00,1.3425
5584.00,1.3430
5583.00,1.3428
5582.00,1.3423
5581.00,1.3415
5580.00,1.3404
5579.00,1.3389
5578.00,1.3369
5577.00,1.3345
5576.00,1.3318
5575.00,1.3287
5574.00,1.3252
5573.00,1.3212
5572.00,1.3167
5571.00,1.3116
5570.00,1.3057
5569.00,1.2993
5568.00,1.2924
5567.00,1.2849
5566.00,1.2768
5565.00,1.2682
5564.00,1.2593
5563.00,1.2501
5562.00,1.2406
5561.00,1.2307
5560.00,1.2203
5559.00,1.2096
5558.00,1.1984
5557.00,1.1868
5556.00,1.1747
5555.00,1.1620
5554.00,1.1488
5553.00,1.1352
5552.00,1.1211
5551.00,1.1066
5550.00,1.0917
5549.00,1.0766
5548.00,1.0616
5547.00,1.0465
5546.00,1.0314
5545.00,1.0164
5544.00,1.0013
5543.00,0.9862
5542.00,0.9710
5541.00,0.9558
5540.00,0.9408
5539.00,0.9261
5538.00,0.9118
5537.00,0.8980
5536.00,0.8845
5535.00,0.8714
5534.00,0.8589
5533.00,0.8470
5532.00,0.8356
5531.00,0.8250
5530.00,0.8152
5529.00,0.8062
5528.00,0.7981
5527.00,0.7909
5526.00,0.7845
5525.00,0.7792
5524.00,0.7749
5523.00,0.7716
5522.00,0.7693
5521.00,0.7680
5520.00,0.7676
5519.00,0.7681
5518.00,0.7695
5517.00,0.7718
5516.00,0.7753
5515.00,0.7797
5514.00,0.7849
5513.00,0.7910
5512.00,0.7979
5511.00,0.8055
5510.00,0.8138
5509.00,0.8227
5508.00,0.8321
5507.00,0.8421
5506.00,0.8525
5505.00,0.8634
5504.00,0.8746
5503.00,0.8862
5502.00,0.8981
5501.00,0.9102
5500.00,0.9226
5499.00,0.9351
5498.00,0.9478
5497.00,0.9606
5496.00,0.9734
5495.00,0.9862
5494.00,0.9988
5493.00,1.0114
5492.00,1.0240
5491.00,1.0367
5490.00,1.0494
5489.00,1.0620
5488.00,1.0745
5487.00,1.0868
5486.00,1.0989
5485.00,1.1109
5484.00,1.1227
5483.00,1.1343
5482.00,1.1459
5481.00,1.1573
5480.00,1.1685
5479.00,1.1795
5478.00,1.1903
5477.00,1.2007
5476.00,1.2107
5475.00,1.2203
5474.00,1.2299
5473.00,1.2393
5472.00,1.2483
5471.00,1.2570
5470.00,1.2654
5469.00,1.2736
5468.00,1.2814
5467.00,1.2886
5466.00,1.2955
5465.00,1.3021
5464.00,1.3085
5463.00,1.3145
5462.00,1.3201
5461.00,1.3252
5460.00,1.3299
5459.00,1.3340
5458.00,1.3375
5457.00,1.3404
5456.00,1.3430
5455.00,1.3453
5454.00,1.3471
5453.00,1.3486
5452.00,1.3495
5451.00,1.3499
5450.00,1.3497
5449.00,1.3492
5448.00,1.3484
5447.00,1.3473
5446.00,1.3456
5445.00,1.3434
5444.00,1.3405
5443.00,1.3368
5442.00,1.3322
5441.00,1.3271
5440.00,1.3217
5439.00,1.3164
5438.00,1.3107
5437.00,1.3045
5436.00,1.2974
5435.00,1.2898
5434.00,1.2817
5433.00,1.2734
5432.00,1.2648
5431.00,1.2557
5430.00,1.2458
5429.00,1.2353
5428.00,1.2242
5427.00,1.2126
5426.00,1.2006
5425.00,1.1882
5424.00,1.1754
5423.00,1.1622
5422.00,1.1487
5421.00,1.1349
5420.00,1.1208
5419.00,1.1064
5418.00,1.0916
5417.00,1.0763
5416.00,1.0608
5415.00,1.0449
5414.00,1.0289
5413.00,1.0128
5412.00,0.9966
5411.00,0.9805
5410.00,0.9646
5409.00,0.9488
5408.00,0.9334
5407.00,0.9182
5406.00,0.9035
5405.00,0.8893
5404.00,0.8756
5403.00,0.8624
5402.00,0.8499
5401.00,0.8382
5400.00,0.8272
5399.00,0.8170
5398.00,0.8076
5397.00,0.7990
5396.00,0.7913
5395.00,0.7844
5394.00,0.7785
5393.00,0.7736
5392.00,0.7698
5391.00,0.7671
5390.00,0.7655
5389.00,0.7651
5388.00,0.7658
5387.00,0.7675
5386.00,0.7703
5385.00,0.7741
5384.00,0.7788
5383.00,0.7844
5382.00,0.7909
5381.00,0.7981
5380.00,0.8062
5379.00,0.8151
5378.00,0.8247
5377.00,0.8351
5376.00,0.8461
5375.00,0.8578
5374.00,0.8699
5373.00,0.8824
5372.00,0.8951
5371.00,0.9081
5370.00,0.9214
5369.00,0.9349
5368.00,0.9487
5367.00,0.9625
5366.00,0.9764
5365.00,0.9904
5364.00,1.0045
5363.00,1.0187
5362.00,1.0330
5361.00,1.0473
5360.00,1.0615
5359.00,1.0755
5358.00,1.0893
5357.00,1.1031
5356.00,1.1168
5355.00,1.1303
5354.00,1.1435
5353.00,1.1564
5352.00,1.1691
5351.00,1.1814
5350.00,1.1936
5349.00,1.2054
5348.00,1.2171
5347.00,1.2284
5346.00,1.2393
5345.00,1.2497
5344.00,1.2596
5343.00,1.2693
5342.00,1.2788
5341.00,1.2880
5340.00,1.2967
5339.00,1.3050
5338.00,1.3131
5337.00,1.3209
5336.00,1.3285
5335.00,1.3357
5334.00,1.3423
5333.00,1.3484
5332.00,1.3541
5331.00,1.3595
5330.00,1.3643
5329.00,1.3684
5328.00,1.3719
5327.00,1.3748
5326.00,1.3774
5325.00,1.3795
5324.00,1.3813
5323.00,1.3826
5322.00,1.3837
5321.00,1.3843
5320.00,1.3843
5319.00,1.3837
5318.00,1.3825
5317.00,1.3809
5316.00,1.3787
5315.00,1.3762
5314.00,1.3733
5313.00,1.3700
5312.00,1.3661
5311.00,1.3618
5310.00,1.3568
5309.00,1.3511
5308.00,1.3448
5307.00,1.3381
5306.00,1.3310
5305.00,1.3236
5304.00,1.3158
5303.00,1.3077
5302.00,1.2991
5301.00,1.2899
5300.00,1.2799
5299.00,1.2693
5298.00,1.2581
5297.00,1.2464
5296.00,1.2343
5295.00,1.2219
5294.00,1.2093
5293.00,1.1962
5292.00,1.1826
5291.00,1.1684
5290.00,1.1537
5289.00,1.1387
5288.00,1.1233
5287.00,1.1077
5286.00,1.0918
5285.00,1.0757
5284.00,1.0594
5283.00,1.0430
5282.00,1.0265
5281.00,1.0099
5280.00,0.9933
5279.00,0.9768
5278.00,0.9605
5277.00,0.9446
5276.00,0.9290
5275.00,0.9138
5274.00,0.8990
5273.00,0.8847
5272.00,0.8709
5271.00,0.8578
5270.00,0.8454
5269.00,0.8337
5268.00,0.8229
5267.00,0.8130
5266.00,0.8040
5265.00,0.7958
5264.00,0.7885
5263.00,0.7822
5262.00,0.7770
5261.00,0.7728
5260.00,0.7698
5259.00,0.7681
5258.00,0.7676
5257.00,0.7684
5256.00,0.7703
5255.00,0.7731
5254.00,0.7770
5253.00,0.7817
5252.00,0.7874
5251.00,0.7939
5250.00,0.8013
5249.00,0.8097
5248.00,0.8190
5247.00,0.8290
5246.00,0.8396
5245.00,0.8507
5244.00,0.8623
5243.00,0.8744
5242.00,0.8871
5241.00,0.9000
5240.00,0.9131
5239.00,0.9264
5238.00,0.9400
5237.00,0.9539
5236.00,0.9680
5235.00,0.9823
5234.00,0.9967
5233.00,1.0112
5232.00,1.0256
5231.00,1.0401
5230.00,1.0546
5229.00,1.0690
5228.00,1.0833
5227.00,1.0975
5226.00,1.1115
5225.00,1.1255
5224.00,1.1394
5223.00,1.1530
5222.00,1.1662
5221.00,1.1789
5220.00,1.1914
5219.00,1.2037
5218.00,1.2158
5217.00,1.2277
5216.00,1.2394
5215.00,1.2506
5214.00,1.2615
5213.00,1.2722
5212.00,1.2826
5211.00,1.2927
5210.00,1.3022
5209.00,1.3114
5208.00,1.3204
5207.00,1.3291
5206.00,1.3377
5205.00,1.3458
5204.00,1.3531
5203.00,1.3594
5202.00,1.3649
5201.00,1.3704
5200.00,1.3760
5199.00,1.3817
5198.00,1.3870
5197.00,1.3915
5196.00,1.3953
5195.00,1.3981
5194.00,1.4004
5193.00,1.4023
5192.00,1.4039
5191.00,1.4050
5190.00,1.4058
5189.00,1.4061
5188.00,1.4061
5187.00,1.4055
5186.00,1.4044
5185.00,1.4025
5184.00,1.3999
5183.00,1.3969
5182.00,1.3933
5181.00,1.3894
5180.00,1.3853
5179.00,1.3808
5178.00,1.3759
5177.00,1.3705
5176.00,1.3646
5175.00,1.3581
5174.00,1.3512
5173.00,1.3437
5172.00,1.3356
5171.00,1.3268
5170.00,1.3174
5169.00,1.3074
5168.00,1.2968
5167.00,1.2857
5166.00,1.2741
5165.00,1.2620
5164.00,1.2493
5163.00,1.2362
5162.00,1.2227
5161.00,1.2088
5160.00,1.1946
5159.00,1.1800
5158.00,1.1648
5157.00,1.1491
5156.00,1.1330
5155.00,1.1165
5154.00,1.0998
5153.00,1.0829
5152.00,1.0659
5151.00,1.0487
5150.00,1.0316
5149.00,1.0145
5148.00,0.9974
5147.00,0.9804
5146.00,0.9634
5145.00,0.9465
5144.00,0.9299
5143.00,0.9139
5142.00,0.8984
5141.00,0.8836
5140.00,0.8695
5139.00,0.8560
5138.00,0.8433
5137.00,0.8314
5136.00,0.8204
5135.00,0.8104
5134.00,0.8014
5133.00,0.7934
5132.00,0.7866
5131.00,0.7809
5130.00,0.7765
5129.00,0.7733
5128.00,0.7712
5127.00,0.7703
5126.00,0.7707
5125.00,0.7723
5124.00,0.7752
5123.00,0.7793
5122.00,0.7845
5121.00,0.7907
5120.00,0.7979
5119.00,0.8060
5118.00,0.8150
5117.00,0.8249
5116.00,0.8355
5115.00,0.8467
5114.00,0.8586
5113.00,0.8709
5112.00,0.8837
5111.00,0.8970
5110.00,0.9107
5109.00,0.9249
5108.00,0.9395
5107.00,0.9544
5106.00,0.9694
5105.00,0.9846
5104.00,0.9997
5103.00,1.0149
5102.00,1.0302
5101.00,1.0456
5100.00,1.0609
5099.00,1.0762
5098.00,1.0913
5097.00,1.1063
5096.00,1.1210
5095.00,1.1356
5094.00,1.1501
5093.00,1.1645
5092.00,1.1787
5091.00,1.1926
5090.00,1.2061
5089.00,1.2192
5088.00,1.2320
5087.00,1.2446
5086.00,1.2570
5085.00,1.2693
5084.00,1.2813
5083.00,1.2928
5082.00,1.3038
5081.00,1.3143
5080.00,1.3244
5079.00,1.3341
5078.00,1.3433
5077.00,1.3520
5076.00,1.3603
5075.00,1.3684
5074.00,1.3762
5073.00,1.3839
5072.00,1.3912
5071.00,1.3980
5070.00,1.4041
5069.00,1.4095
5068.00,1.4141
5067.00,1.4182
5066.00,1.4218
5065.00,1.4248
5064.00,1.4273
5063.00,1.4295
5062.00,1.4315
5061.00,1.4331
5060.00,1.4344
5059.00,1.4352
5058.00,1.4354
5057.00,1.4350
5056.00,1.4339
5055.00,1.4323
5054.00,1.4301
5053.00,1.4272
5052.00,1.4236
5051.00,1.4197
5050.00,1.4157
5049.00,1.4114
5048.00,1.4067
5047.00,1.4013
5046.00,1.3951
5045.00,1.3882
5044.00,1.3809
5043.00,1.3732
5042.00,1.3653
5041.00,1.3570
5040.00,1.3481
5039.00,1.3385
5038.00,1.3285
5037.00,1.3179
5036.00,1.3067
5035.00,1.2949
5034.00,1.2824
5033.00,1.2693
5032.00,1.2557
5031.00,1.2415
5030.00,1.2269
5029.00,1.2120
5028.00,1.1967
5027.00,1.1810
5026.00,1.1647
5025.00,1.1480
5024.00,1.1309
5023.00,1.1135
5022.00,1.0958
5021.00,1.0780
5020.00,1.0600
5019.00,1.0418
5018.00,1.0235
5017.00,1.0053
5016.00,0.9870
5015.00,0.9689
5014.00,0.9510
5013.00,0.9334
5012.00,0.9164
5011.00,0.8998
5010.00,0.8838
5009.00,0.8685
5008.00,0.8538
5007.00,0.8400
5006.00,0.8271
5005.00,0.8153
5004.00,0.8044
5003.00,0.7947
5002.00,0.7861
5001.00,0.7786
5000.00,0.7723
4999.00,0.7674
4998.00,0.7638
4997.00,0.7616
4996.00,0.7607
4995.00,0.7612
4994.00,0.7629
4993.00,0.7658
4992.00,0.7699
4991.00,0.7752
4990.00,0.7817
4989.00,0.7892
4988.00,0.7977
4987.00,0.8072
4986.00,0.8175
4985.00,0.8288
4984.00,0.8407
4983.00,0.8534
4982.00,0.8666
4981.00,0.8804
4980.00,0.8946
4979.00,0.9091
4978.00,0.9240
4977.00,0.9393
4976.00,0.9548
4975.00,0.9707
4974.00,0.9868
4973.00,1.0029
4972.00,1.0189
4971.00,1.0348
4970.00,1.0506
4969.00,1.0663
4968.00,1.0820
4967.00,1.0978
4966.00,1.1137
4965.00,1.1295
4964.00,1.1451
4963.00,1.1606
4962.00,1.1759
4961.00,1.1909
4960.00,1.2056
4959.00,1.2200
4958.00,1.2339
4957.00,1.2475
4956.00,1.2606
4955.00,1.2735
4954.00,1.2860
4953.00,1.2983
4952.00,1.3102
4951.00,1.3218
4950.00,1.3331
4949.00,1.3439
4948.00,1.3543
4947.00,1.3642
4946.00,1.3736
4945.00,1.3825
4944.00,1.3909
4943.00,1.3987
4942.00,1.4061
4941.00,1.4131
4940.00,1.4196
4939.00,1.4257
4938.00,1.4313
4937.00,1.4364
4936.00,1.4410
4935.00,1.4452
4934.00,1.4490
4933.00,1.4524
4932.00,1.4552
4931.00,1.4575
4930.00,1.4591
4929.00,1.4603
4928.00,1.4610
4927.00,1.4609
4926.00,1.4603
4925.00,1.4590
4924.00,1.4574
4923.00,1.4555
4922.00,1.4534
4921.00,1.4509
4920.00,1.4478
4919.00,1.4441
4918.00,1.4397
4917.00,1.4346
4916.00,1.4290
4915.00,1.4227
4914.00,1.4161
4913.00,1.4090
4912.00,1.4016
4911.00,1.3937
4910.00,1.3850
4909.00,1.3756
4908.00,1.3655
4907.00,1.3551
4906.00,1.3443
4905.00,1.3332
4904.00,1.3214
4903.00,1.3089
4902.00,1.2956
4901.00,1.2816
4900.00,1.2672
4899.00,1.2524
4898.00,1.2372
4897.00,1.2214
4896.00,1.2050
4895.00,1.1880
4894.00,1.1705
4893.00,1.1527
4892.00,1.1345
4891.00,1.1160
4890.00,1.0973
4889.00,1.0783
4888.00,1.0592
4887.00,1.0400
4886.00,1.0208
4885.00,1.0017
4884.00,0.9828
4883.00,0.9641
4882.00,0.9459
4881.00,0.9281
4880.00,0.9109
4879.00,0.8943
4878.00,0.8782
4877.00,0.8629
4876.00,0.8483
4875.00,0.8346
4874.00,0.8220
4873.00,0.8106
4872.00,0.8005
4871.00,0.7916
4870.00,0.7841
4869.00,0.7779
4868.00,0.7730
4867.00,0.7696
4866.00,0.7675
4865.00,0.7668
4864.00,0.7676
4863.00,0.7697
4862.00,0.7732
4861.00,0.7781
4860.00,0.7842
4859.00,0.7914
4858.00,0.7998
4857.00,0.8092
4856.00,0.8197
4855.00,0.8310
4854.00,0.8433
4853.00,0.8562
4852.00,0.8698
4851.00,0.8839
4850.00,0.8986
4849.00,0.9138
4848.00,0.9294
4847.00,0.9453
4846.00,0.9615
4845.00,0.9780
4844.00,0.9945
4843.00,1.0112
4842.00,1.0281
4841.00,1.0450
4840.00,1.0621
4839.00,1.0790
4838.00,1.0960
4837.00,1.1127
4836.00,1.1292
4835.00,1.1455
4834.00,1.1615
4833.00,1.1772
4832.00,1.1927
4831.00,1.2082
4830.00,1.2236
4829.00,1.2387
4828.00,1.2536
4827.00,1.2679
4826.00,1.2818
4825.00,1.2952
4824.00,1.3084
4823.00,1.3212
4822.00,1.3338
4821.00,1.3458
4820.00,1.3573
4819.00,1.3684
4818.00,1.3793
4817.00,1.3900
4816.00,1.4001
4815.00,1.4097
4814.00,1.4185
4813.00,1.4265
4812.00,1.4341
4811.00,1.4412
4810.00,1.4480
4809.00,1.4544
4808.00,1.4604
4807.00,1.4660
4806.00,1.4711
4805.00,1.4758
4804.00,1.4798
4803.00,1.4832
4802.00,1.4861
4801.00,1.4885
4800.00,1.4905
4799.00,1.4920
4798.00,1.4928
4797.00,1.4929
4796.00,1.4923
4795.00,1.4913
4794.00,1.4900
4793.00,1.4883
4792.00,1.4860
4791.00,1.4832
4790.00,1.4798
4789.00,1.4757
4788.00,1.4711
4787.00,1.4662
4786.00,1.4610
4785.00,1.4554
4784.00,1.4491
4783.00,1.4423
4782.00,1.4348
4781.00,1.4267
4780.00,1.4181
4779.00,1.4090
4778.00,1.3996
4777.00,1.3896
4776.00,1.3790
4775.00,1.3676
4774.00,1.3555
4773.00,1.3429
4772.00,1.3297
4771.00,1.3158
4770.00,1.3013
4769.00,1.2862
4768.00,1.2703
4767.00,1.2540
4766.00,1.2373
4765.00,1.2202
4764.00,1.2027
4763.00,1.1847
4762.00,1.1662
4761.00,1.1474
4760.00,1.1281
4759.00,1.1086
4758.00,1.0887
4757.00,1.0686
4756.00,1.0483
4755.00,1.0280
4754.00,1.0079
4753.00,0.9880
4752.00,0.9684
4751.00,0.9492
4750.00,0.9305
4749.00,0.9123
4748.00,0.8948
4747.00,0.8781
4746.00,0.8622
4745.00,0.8472
4744.00,0.8332
4743.00,0.8203
4742.00,0.8087
4741.00,0.7984
4740.00,0.7894
4739.00,0.7819
4738.00,0.7758
4737.00,0.7713
4736.00,0.7683
4735.00,0.7668
4734.00,0.7669
4733.00,0.7684
4732.00,0.7714
4731.00,0.7758
4730.00,0.7816
4729.00,0.7887
4728.00,0.7971
4727.00,0.8067
4726.00,0.8176
4725.00,0.8294
4724.00,0.8421
4723.00,0.8555
4722.00,0.8697
4721.00,0.8844
4720.00,0.8996
4719.00,0.9153
4718.00,0.9315
4717.00,0.9483
4716.00,0.9653
4715.00,0.9826
4714.00,1.0000
4713.00,1.0176
4712.00,1.0352
4711.00,1.0529
4710.00,1.0707
4709.00,1.0884
4708.00,1.1060
4707.00,1.1235
4706.00,1.1409
4705.00,1.1582
4704.00,1.1753
4703.00,1.1921
4702.00,1.2087
4701.00,1.2251
4700.00,1.2411
4699.00,1.2569
4698.00,1.2724
4697.00,1.2876
4696.00,1.3024
4695.00,1.3169
4694.00,1.3310
4693.00,1.3448
4692.00,1.3581
4691.00,1.3710
4690.00,1.3835
4689.00,1.3956
4688.00,1.4071
4687.00,1.4183
4686.00,1.4288
4685.00,1.4388
4684.00,1.4482
4683.00,1.4570
4682.00,1.4655
4681.00,1.4735
4680.00,1.4813
4679.00,1.4886
4678.00,1.4953
4677.00,1.5013
4676.00,1.5065
4675.00,1.5111
4674.00,1.5153
4673.00,1.5190
4672.00,1.5224
4671.00,1.5253
4670.00,1.5274
4669.00,1.5288
4668.00,1.5296
4667.00,1.5301
4666.00,1.5304
4665.00,1.5303
4664.00,1.5297
4663.00,1.5286
4662.00,1.5270
4661.00,1.5248
4660.00,1.5221
4659.00,1.5187
4658.00,1.5146
4657.00,1.5100
4656.00,1.5050
4655.00,1.4999
4654.00,1.4943
4653.00,1.4881
4652.00,1.4810
4651.00,1.4732
4650.00,1.4647
4649.00,1.4558
4648.00,1.4465
4647.00,1.4368
4646.00,1.4266
4645.00,1.4159
4644.00,1.4045
4643.00,1.3927
4642.00,1.3802
4641.00,1.3670
4640.00,1.3531
4639.00,1.3384
4638.00,1.3230
4637.00,1.3071
4636.00,1.2905
4635.00,1.2735
4634.00,1.2560
4633.00,1.2379
4632.00,1.2192
4631.00,1.2001
4630.00,1.1807
4629.00,1.1611
4628.00,1.1410
4627.00,1.1205
4626.00,1.0996
4625.00,1.0785
4624.00,1.0573
4623.00,1.0362
4622.00,1.0154
4621.00,0.9949
4620.00,0.9748
4619.00,0.9551
4618.00,0.9360
4617.00,0.9176
4616.00,0.8999
4615.00,0.8831
4614.00,0.8673
4613.00,0.8526
4612.00,0.8391
4611.00,0.8269
4610.00,0.8160
4609.00,0.8066
4608.00,0.7987
4607.00,0.7922
4606.00,0.7872
4605.00,0.7839
4604.00,0.7821
4603.00,0.7818
4602.00,0.7831
4601.00,0.7860
4600.00,0.7905
4599.00,0.7964
4598.00,0.8039
4597.00,0.8127
4596.00,0.8227
4595.00,0.8338
4594.00,0.8460
4593.00,0.8591
4592.00,0.8731
4591.00,0.8878
4590.00,0.9032
4589.00,0.9192
4588.00,0.9357
4587.00,0.9526
4586.00,0.9699
4585.00,0.9875
4584.00,1.0055
4583.00,1.0237
4582.00,1.0422
4581.00,1.0608
4580.00,1.0794
4579.00,1.0979
4578.00,1.1162
4577.00,1.1344
4576.00,1.1524
4575.00,1.1704
4574.00,1.1882
4573.00,1.2057
4572.00,1.2230
4571.00,1.2400
4570.00,1.2567
4569.00,1.2731
4568.00,1.2892
4567.00,1.3050
4566.00,1.3205
4565.00,1.3358
4564.00,1.3507
4563.00,1.3651
4562.00,1.3790
4561.00,1.3924
4560.00,1.4054
4559.00,1.4181
4558.00,1.4302
4557.00,1.4416
4556.00,1.4525
4555.00,1.4628
4554.00,1.4729
4553.00,1.4826
4552.00,1.4919
4551.00,1.5006
4550.00,1.5084
4549.00,1.5156
4548.00,1.5222
4547.00,1.5284
4546.00,1.5340
4545.00,1.5392
4544.00,1.5440
4543.00,1.5483
4542.00,1.5523
4541.00,1.5559
4540.00,1.5588
4539.00,1.5609
4538.00,1.5621
4537.00,1.5625
4536.00,1.5624
4535.00,1.5621
4534.00,1.5617
4533.00,1.5611
4532.00,1.5598
4531.00,1.5576
4530.00,1.5546
4529.00,1.5511
4528.00,1.5472
4527.00,1.5429
4526.00,1.5383
4525.00,1.5330
4524.00,1.5271
4523.00,1.5205
4522.00,1.5135
4521.00,1.5060
4520.00,1.4980
4519.00,1.4896
4518.00,1.4808
4517.00,1.4715
4516.00,1.4614
4515.00,1.4503
4514.00,1.4383
4513.00,1.4254
4512.00,1.4120
4511.00,1.3985
4510.00,1.3847
4509.00,1.3704
4508.00,1.3552
4507.00,1.3391
4506.00,1.3222
4505.00,1.3046
4504.00,1.2864
4503.00,1.2677
4502.00,1.2484
4501.00,1.2285
4500.00,1.2081
4499.00,1.1873
4498.00,1.1661
4497.00,1.1445
4496.00,1.1227
4495.00,1.1006
4494.00,1.0782
4493.00,1.0559
4492.00,1.0336
4491.00,1.0115
4490.00,0.9898
4489.00,0.9685
4488.00,0.9478
4487.00,0.9277
4486.00,0.9084
4485.00,0.8901
4484.00,0.8729
4483.00,0.8568
4482.00,0.8419
4481.00,0.8285
4480.00,0.8165
4479.00,0.8060
4478.00,0.7971
4477.00,0.7898
4476.00,0.7843
4475.00,0.7806
4474.00,0.7787
4473.00,0.7786
4472.00,0.7802
4471.00,0.7836
4470.00,0.7886
4469.00,0.7953
4468.00,0.8035
4467.00,0.8131
4466.00,0.8240
4465.00,0.8363
4464.00,0.8497
4463.00,0.8642
4462.00,0.8795
4461.00,0.8956
4460.00,0.9124
4459.00,0.9298
4458.00,0.9477
4457.00,0.9660
4456.00,0.9847
4455.00,1.0037
4454.00,1.0229
4453.00,1.0423
4452.00,1.0619
4451.00,1.0816
4450.00,1.1014
4449.00,1.1211
4448.00,1.1406
4447.00,1.1599
4446.00,1.1789
4445.00,1.1979
4444.00,1.2167
4443.00,1.2355
4442.00,1.2540
4441.00,1.2722
4440.00,1.2900
4439.00,1.3073
4438.00,1.3243
4437.00,1.3408
4436.00,1.3570
4435.00,1.3727
4434.00,1.3880
4433.00,1.4029
4432.00,1.4174
4431.00,1.4316
4430.00,1.4453
4429.00,1.4584
4428.00,1.4708
4427.00,1.4826
4426.00,1.4939
4425.00,1.5048
4424.00,1.5152
4423.00,1.5251
4422.00,1.5345
4421.00,1.5434
4420.00,1.5516
4419.00,1.5591
4418.00,1.5660
4417.00,1.5726
4416.00,1.5787
4415.00,1.5844
4414.00,1.5893
4413.00,1.5936
4412.00,1.5974
4411.00,1.6008
4410.00,1.6040
4409.00,1.6067
4408.00,1.6087
4407.00,1.6098
4406.00,1.6101
4405.00,1.6098
4404.00,1.6092
4403.00,1.6081
4402.00,1.6065
4401.00,1.6043
4400.00,1.6017
4399.00,1.5986
4398.00,1.5953
4397.00,1.5916
4396.00,1.5874
4395.00,1.5825
4394.00,1.5771
4393.00,1.5710
4392.00,1.5644
4391.00,1.5574
4390.00,1.5501
4389.00,1.5425
4388.00,1.5345
4387.00,1.5259
4386.00,1.5164
4385.00,1.5062
4384.00,1.4951
4383.00,1.4836
4382.00,1.4716
4381.00,1.4592
4380.00,1.4464
4379.00,1.4331
4378.00,1.4194
4377.00,1.4053
4376.00,1.3908
4375.00,1.3756
4374.00,1.3599
4373.00,1.3436
4372.00,1.3269
4371.00,1.3097
4370.00,1.2921
4369.00,1.2739
4368.00,1.2552
4367.00,1.2362
4366.00,1.2169
4365.00,1.1974
4364.00,1.1777
4363.00,1.1577
4362.00,1.1376
4361.00,1.1172
4360.00,1.0968
4359.00,1.0764
4358.00,1.0564
4357.00,1.0368
4356.00,1.0177
4355.00,0.9992
4354.00,0.9814
4353.00,0.9644
4352.00,0.9485
4351.00,0.9336
4350.00,0.9199
4349.00,0.9074
4348.00,0.8964
4347.00,0.8867
4346.00,0.8784
4345.00,0.8716
4344.00,0.8662
4343.00,0.8624
4342.00,0.8602
4341.00,0.8596
4340.00,0.8606
4339.00,0.8632
4338.00,0.8674
4337.00,0.8732
4336.00,0.8806
4335.00,0.8895
4334.00,0.8997
4333.00,0.9113
4332.00,0.9241
4331.00,0.9379
4330.00,0.9528
4329.00,0.9686
4328.00,0.9852
4327.00,1.0025
4326.00,1.0204
4325.00,1.0389
4324.00,1.0577
4323.00,1.0767
4322.00,1.0961
4321.00,1.1155
4320.00,1.1350
4319.00,1.1544
4318.00,1.1739
4317.00,1.1934
4316.00,1.2127
4315.00,1.2319
4314.00,1.2508
4313.00,1.2695
4312.00,1.2881
4311.00,1.3065
4310.00,1.3246
4309.00,1.3422
4308.00,1.3593
4307.00,1.3758
4306.00,1.3920
4305.00,1.4079
4304.00,1.4235
4303.00,1.4389
4302.00,1.4540
4301.00,1.4686
4300.00,1.4827
4299.00,1.4961
4298.00,1.5089
4297.00,1.5212
4296.00,1.5329
4295.00,1.5443
4294.00,1.5554
4293.00,1.5661
4292.00,1.5763
4291.00,1.5856
4290.00,1.5940
4289.00,1.6016
4288.00,1.6086
4287.00,1.6153
4286.00,1.6217
4285.00,1.6280
4284.00,1.6338
4283.00,1.6391
4282.00,1.6436
4281.00,1.6474
4280.00,1.6502
4279.00,1.6523
4278.00,1.6537
4277.00,1.6546
4276.00,1.6552
4275.00,1.6557
4274.00,1.6559
4273.00,1.6558
4272.00,1.6552
4271.00,1.6542
4270.00,1.6526
4269.00,1.6503
4268.00,1.6474
4267.00,1.6439
4266.00,1.6397
4265.00,1.6351
4264.00,1.6300
4263.00,1.6245
4262.00,1.6187
4261.00,1.6123
4260.00,1.6051
4259.00,1.5972
4258.00,1.5885
4257.00,1.5794
4256.00,1.5700
4255.00,1.5602
4254.00,1.5497
4253.00,1.5385
4252.00,1.5268
4251.00,1.5144
4250.00,1.5015
4249.00,1.4877
4248.00,1.4730
4247.00,1.4575
4246.00,1.4415
4245.00,1.4250
4244.00,1.4079
4243.00,1.3900
4242.00,1.3713
4241.00,1.3519
4240.00,1.3319
4239.00,1.3113
4238.00,1.2903
4237.00,1.2687
4236.00,1.2468
4235.00,1.2245
4234.00,1.2020
4233.00,1.1794
4232.00,1.1566
4231.00,1.1339
4230.00,1.1112
4229.00,1.0887
4228.00,1.0667
4227.00,1.0451
4226.00,1.0242
4225.00,1.0040
4224.00,0.9847
4223.00,0.9663
4222.00,0.9491
4221.00,0.9331
4220.00,0.9184
4219.00,0.9050
4218.00,0.8929
4217.00,0.8824
4216.00,0.8733
4215.00,0.8659
4214.00,0.8602
4213.00,0.8562
4212.00,0.8541
4211.00,0.8537
4210.00,0.8551
4209.00,0.8583
4208.00,0.8633
4207.00,0.8699
4206.00,0.8781
4205.00,0.8880
4204.00,0.8993
4203.00,0.9120
4202.00,0.9259
4201.00,0.9409
4200.00,0.9568
4199.00,0.9737
4198.00,0.9913
4197.00,1.0097
4196.00,1.0285
4195.00,1.0479
4194.00,1.0676
4193.00,1.0876
4192.00,1.1078
4191.00,1.1282
4190.00,1.1486
4189.00,1.1691
4188.00,1.1895
4187.00,1.2099
4186.00,1.2301
4185.00,1.2502
4184.00,1.2701
4183.00,1.2898
4182.00,1.3091
4181.00,1.3280
4180.00,1.3465
4179.00,1.3646
4178.00,1.3824
4177.00,1.4002
4176.00,1.4178
4175.00,1.4350
4174.00,1.4516
4173.00,1.4676
4172.00,1.4830
4171.00,1.4980
4170.00,1.5126
4169.00,1.5269
4168.00,1.5406
4167.00,1.5536
4166.00,1.5661
4165.00,1.5781
4164.00,1.5896
4163.00,1.6007
4162.00,1.6112
4161.00,1.6211
4160.00,1.6304
4159.00,1.6390
4158.00,1.6471
4157.00,1.6547
4156.00,1.6619
4155.00,1.6684
4154.00,1.6743
4153.00,1.6794
4152.00,1.6838
4151.00,1.6875
4150.00,1.6907
4149.00,1.6936
4148.00,1.6964
4147.00,1.6992
4146.00,1.7015
4145.00,1.7030
4144.00,1.7036
4143.00,1.7033
4142.00,1.7025
4141.00,1.7015
4140.00,1.7004
4139.00,1.6989
4138.00,1.6967
4137.00,1.6938
4136.00,1.6900
4135.00,1.6856
4134.00,1.6806
4133.00,1.6754
4132.00,1.6699
4131.00,1.6639
4130.00,1.6574
4129.00,1.6502
4128.00,1.6425
4127.00,1.6343
4126.00,1.6255
4125.00,1.6161
4124.00,1.6060
4123.00,1.5953
4122.00,1.5842
4121.00,1.5723
4120.00,1.5596
4119.00,1.5460
4118.00,1.5316
4117.00,1.5167
4116.00,1.5012
4115.00,1.4852
4114.00,1.4684
4113.00,1.4509
4112.00,1.4327
4111.00,1.4137
4110.00,1.3941
4109.00,1.3737
4108.00,1.3526
4107.00,1.3308
4106.00,1.3083
4105.00,1.2854
4104.00,1.2619
4103.00,1.2379
4102.00,1.2137
4101.00,1.1891
4100.00,1.1644
4099.00,1.1396
4098.00,1.1150
4097.00,1.0907
4096.00,1.0668
4095.00,1.0436
4094.00,1.0211
4093.00,0.9994
4092.00,0.9787
4091.00,0.9594
4090.00,0.9415
4089.00,0.9251
4088.00,0.9103
4087.00,0.8971
4086.00,0.8858
4085.00,0.8764
4084.00,0.8689
4083.00,0.8635
4082.00,0.8601
4081.00,0.8588
4080.00,0.8595
4079.00,0.8622
4078.00,0.8668
4077.00,0.8733
4076.00,0.8816
4075.00,0.8917
4074.00,0.9033
4073.00,0.9165
4072.00,0.9310
4071.00,0.9466
4070.00,0.9633
4069.00,0.9809
4068.00,0.9995
4067.00,1.0188
4066.00,1.0388
4065.00,1.0594
4064.00,1.0804
4063.00,1.1017
4062.00,1.1234
4061.00,1.1452
4060.00,1.1672
4059.00,1.1892
4058.00,1.2113
4057.00,1.2332
4056.00,1.2549
4055.00,1.2765
4054.00,1.2977
4053.00,1.3188
4052.00,1.3396
4051.00,1.3602
4050.00,1.3803
4049.00,1.4000
4048.00,1.4190
4047.00,1.4376
4046.00,1.4556
4045.00,1.4733
4044.00,1.4907
4043.00,1.5079
4042.00,1.5246
4041.00,1.5408
4040.00,1.5563
4039.00,1.5710
4038.00,1.5849
4037.00,1.5980
4036.00,1.6104
4035.00,1.6226
4034.00,1.6345
4033.00,1.6461
4032.00,1.6569
4031.00,1.6670
4030.00,1.6764
4029.00,1.6852
4028.00,1.6935
4027.00,1.7013
4026.00,1.7086
4025.00,1.7155
4024.00,1.7217
4023.00,1.7272
4022.00,1.7317
4021.00,1.7355
4020.00,1.7387
4019.00,1.7416
4018.00,1.7443
4017.00,1.7466
4016.00,1.7483
4015.00,1.7492
4014.00,1.7495
4013.00,1.7492
4012.00,1.7484
4011.00,1.7472
4010.00,1.7457
4009.00,1.7437
4008.00,1.7411
4007.00,1.7379
4006.00,1.7341
4005.00,1.7297
4004.00,1.7248
4003.00,1.7193
4002.00,1.7131
4001.00,1.7063
4000.00,1.6989
3999.00,1.6910
3998.00,1.6825
3997.00,1.6734
3996.00,1.6636
3995.00,1.6533
3994.00,1.6424
3993.00,1.6307
3992.00,1.6183
3991.00,1.6053
3990.00,1.5916
3989.00,1.5774
3988.00,1.5626
3987.00,1.5472
3986.00,1.5313
3985.00,1.5148
3984.00,1.4976
3983.00,1.4797
3982.00,1.4610
3981.00,1.4417
3980.00,1.4218
3979.00,1.4013
3978.00,1.3802
3977.00,1.3584
3976.00,1.3360
3975.00,1.3128
3974.00,1.2888
3973.00,1.2643
3972.00,1.2394
3971.00,1.2142
3970.00,1.1889
3969.00,1.1636
3968.00,1.1383
3967.00,1.1133
3966.00,1.0887
3965.00,1.0649
3964.00,1.0419
3963.00,1.0199
3962.00,0.9989
3961.00,0.9793
3960.00,0.9611
3959.00,0.9446
3958.00,0.9300
3957.00,0.9173
3956.00,0.9065
3955.00,0.8978
3954.00,0.8911
3953.00,0.8864
3952.00,0.8838
3951.00,0.8832
3950.00,0.8845
3949.00,0.8876
3948.00,0.8926
3947.00,0.8994
3946.00,0.9080
3945.00,0.9183
3944.00,0.9304
3943.00,0.9440
3942.00,0.9592
3941.00,0.9755
3940.00,0.9927
3939.00,1.0109
3938.00,1.0298
3937.00,1.0497
3936.00,1.0700
3935.00,1.0907
3934.00,1.1117
3933.00,1.1333
3932.00,1.1556
3931.00,1.1784
3930.00,1.2014
3929.00,1.2241
3928.00,1.2464
3927.00,1.2684
3926.00,1.2902
3925.00,1.3120
3924.00,1.3338
3923.00,1.3553
3922.00,1.3763
3921.00,1.3969
3920.00,1.4170
3919.00,1.4368
3918.00,1.4565
3917.00,1.4762
3916.00,1.4959
3915.00,1.5156
3914.00,1.5348
3913.00,1.5532
3912.00,1.5707
3911.00,1.5873
3910.00,1.6031
3909.00,1.6180
3908.00,1.6319
3907.00,1.6451
3906.00,1.6576
3905.00,1.6698
3904.00,1.6821
3903.00,1.6943
3902.00,1.7059
3901.00,1.7167
3900.00,1.7270
3899.00,1.7369
3898.00,1.7466
3897.00,1.7556
3896.00,1.7635
3895.00,1.7703
3894.00,1.7761
3893.00,1.7811
3892.00,1.7855
3891.00,1.7896
3890.00,1.7933
3889.00,1.7966
3888.00,1.7991
3887.00,1.8006
3886.00,1.8017
3885.00,1.8025
3884.00,1.8031
3883.00,1.8030
3882.00,1.8022
3881.00,1.8007
3880.00,1.7990
3879.00,1.7970
3878.00,1.7947
3877.00,1.7917
3876.00,1.7878
3875.00,1.7833
3874.00,1.7785
3873.00,1.7734
3872.00,1.7677
3871.00,1.7608
3870.00,1.7527
3869.00,1.7438
3868.00,1.7346
3867.00,1.7251
3866.00,1.7153
3865.00,1.7051
3864.00,1.6946
3863.00,1.6834
3862.00,1.6712
3861.00,1.6583
3860.00,1.6449
3859.00,1.6313
3858.00,1.6176
3857.00,1.6037
3856.00,1.5887
3855.00,1.5713
3854.00,1.5505
3853.00,1.5263
3852.00,1.5007
3851.00,1.4760
3850.00,1.4528
3849.00,1.4304
3848.00,1.4083
3847.00,1.3857
3846.00,1.3621
3845.00,1.3371
3844.00,1.3107
3843.00,1.2832
3842.00,1.2552
3841.00,1.2270
3840.00,1.1982
3839.00,1.1682
3838.00,1.1366
3837.00,1.1042
3836.00,1.0727
3835.00,1.0434
3834.00,1.0164
3833.00,0.9913
3832.00,0.9677
3831.00,0.9459
3830.00,0.9261
3829.00,0.9088
3828.00,0.8939
3827.00,0.8812
3826.00,0.8710
3825.00,0.8634
3824.00,0.8586
3823.00,0.8566
3822.00,0.8576
3821.00,0.8611
3820.00,0.8663
3819.00,0.8730
3818.00,0.8816
3817.00,0.8933
3816.00,0.9085
3815.00,0.9263
3814.00,0.9449
3813.00,0.9638
3812.00,0.9833
3811.00,1.0042
3810.00,1.0261
3809.00,1.0488
3808.00,1.0727
3807.00,1.0986
3806.00,1.1257
3805.00,1.1520
3804.00,1.1763
3803.00,1.1995
3802.00,1.2241
3801.00,1.2513
3800.00,1.2798
3799.00,1.3072
3798.00,1.3321
3797.00,1.3555
3796.00,1.3787
3795.00,1.4021
3794.00,1.4252
3793.00,1.4479
3792.00,1.4701
3791.00,1.4918
3790.00,1.5130
3789.00,1.5337
3788.00,1.5538
3787.00,1.5735
3786.00,1.5928
3785.00,1.6116
3784.00,1.6298
3783.00,1.6472
3782.00,1.6636
3781.00,1.6791
3780.00,1.6943
3779.00,1.7092
3778.00,1.7235
3777.00,1.7368
3776.00,1.7491
3775.00,1.7606
3774.00,1.7715
3773.00,1.7817
3772.00,1.7908
3771.00,1.7990
3770.00,1.8066
3769.00,1.8139
3768.00,1.8209
3767.00,1.8273
3766.00,1.8328
3765.00,1.8373
3764.00,1.8410
3763.00,1.8443
3762.00,1.8474
3761.00,1.8502
3760.00,1.8524
3759.00,1.8539
3758.00,1.8548
3757.00,1.8552
3756.00,1.8551
3755.00,1.8544
3754.00,1.8527
3753.00,1.8502
3752.00,1.8469
3751.00,1.8430
3750.00,1.8386
3749.00,1.8339
3748.00,1.8292
3747.00,1.8243
3746.00,1.8185
3745.00,1.8120
3744.00,1.8062
3743.00,1.8019
3742.00,1.7991
3741.00,1.7967
3740.00,1.7941
3739.00,1.7908
3738.00,1.7861
3737.00,1.7795
3736.00,1.7713
3735.00,1.7616
3734.00,1.7507
3733.00,1.7386
3732.00,1.7253
3731.00,1.7112
3730.00,1.6969
3729.00,1.6817
3728.00,1.6650
3727.00,1.6464
3726.00,1.6258
3725.00,1.6035
3724.00,1.5795
3723.00,1.5540
3722.00,1.5269
3721.00,1.4983
3720.00,1.4685
3719.00,1.4378
3718.00,1.4063
3717.00,1.3743
3716.00,1.3422
3715.00,1.3106
3714.00,1.2797
3713.00,1.2493
3712.00,1.2183
3711.00,1.1858
3710.00,1.1520
3709.00,1.1190
3708.00,1.0891
3707.00,1.0636
3706.00,1.0422
3705.00,1.0239
3704.00,1.0077
3703.00,0.9936
3702.00,0.9813
3701.00,0.9711
3700.00,0.9635
3699.00,0.9592
3698.00,0.9586
3697.00,0.9616
3696.00,0.9680
3695.00,0.9775
3694.00,0.9896
3693.00,1.0041
3692.00,1.0209
3691.00,1.0398
3690.00,1.0604
3689.00,1.0823
3688.00,1.1055
3687.00,1.1293
3686.00,1.1530
3685.00,1.1764
3684.00,1.1999
3683.00,1.2243
3682.00,1.2494
3681.00,1.2747
3680.00,1.2999
3679.00,1.3245
3678.00,1.3483
3677.00,1.3721
3676.00,1.3977
3675.00,1.4255
3674.00,1.4536
3673.00,1.4795
3672.00,1.5027
3671.00,1.5252
3670.00,1.5487
3669.00,1.5732
3668.00,1.5975
3667.00,1.6205
3666.00,1.6420
3665.00,1.6626
3664.00,1.6826
3663.00,1.7018
3662.00,1.7204
3661.00,1.7381
3660.00,1.7550
3659.00,1.7709
3658.00,1.7860
3657.00,1.8009
3656.00,1.8161
3655.00,1.8311
3654.00,1.8450
3653.00,1.8575
3652.00,1.8685
3651.00,1.8790
3650.00,1.8894
3649.00,1.8997
3648.00,1.9097
3647.00,1.9192
3646.00,1.9283
3645.00,1.9366
3644.00,1.9444
3643.00,1.9520
3642.00,1.9595
3641.00,1.9668
3640.00,1.9738
3639.00,1.9802
3638.00,1.9859
3637.00,1.9912
3636.00,1.9961
3635.00,2.0007
3634.00,2.0047
3633.00,2.0081
3632.00,2.0105
3631.00,2.0122
3630.00,2.0133
3629.00,2.0142
3628.00,2.0148
3627.00,2.0147
3626.00,2.0138
3625.00,2.0123
3624.00,2.0105
3623.00,2.0085
3622.00,2.0059
3621.00,2.0023
3620.00,1.9975
3619.00,1.9918
3618.00,1.9854
3617.00,1.9788
3616.00,1.9721
3615.00,1.9648
3614.00,1.9565
3613.00,1.9476
3612.00,1.9390
3611.00,1.9311
3610.00,1.9237
3609.00,1.9158
3608.00,1.9069
3607.00,1.8974
3606.00,1.8881
3605.00,1.8797
3604.00,1.8722
3603.00,1.8647
3602.00,1.8569
3601.00,1.8487
3600.00,1.8397
3599.00,1.8300
3598.00,1.8193
3597.00,1.8079
3596.00,1.7959
3595.00,1.7835
3594.00,1.7708
3593.00,1.7577
3592.00,1.7445
3591.00,1.7308
3590.00,1.7168
3589.00,1.7023
3588.00,1.6875
3587.00,1.6723
3586.00,1.6571
3585.00,1.6424
3584.00,1.6286
3583.00,1.6153
3582.00,1.6025
3581.00,1.5899
3580.00,1.5777
3579.00,1.5661
3578.00,1.5551
3577.00,1.5448
3576.00,1.5355
3575.00,1.5271
3574.00,1.5198
3573.00,1.5134
3572.00,1.5081
3571.00,1.5038
3570.00,1.5007
3569.00,1.4987
3568.00,1.4980
3567.00,1.4985
3566.00,1.5000
3565.00,1.5022
3564.00,1.5054
3563.00,1.5096
3562.00,1.5148
3561.00,1.5211
3560.00,1.5285
3559.00,1.5369
3558.00,1.5461
3557.00,1.5560
3556.00,1.5665
3555.00,1.5775
3554.00,1.5893
3553.00,1.6016
3552.00,1.6144
3551.00,1.6272
3550.00,1.6398
3549.00,1.6524
3548.00,1.6654
3547.00,1.6792
3546.00,1.6938
3545.00,1.7087
3544.00,1.7235
3543.00,1.7380
3542.00,1.7520
3541.00,1.7658
3540.00,1.7796
3539.00,1.7935
3538.00,1.8075
3537.00,1.8213
3536.00,1.8348
3535.00,1.8479
3534.00,1.8606
3533.00,1.8729
3532.00,1.8850
3531.00,1.8969
3530.00,1.9087
3529.00,1.9202
3528.00,1.9317
3527.00,1.9429
3526.00,1.9536
3525.00,1.9638
3524.00,1.9738
3523.00,1.9835
3522.00,1.9928
3521.00,2.0019
3520.00,2.0108
3519.00,2.0197
3518.00,2.0281
3517.00,2.0355
3516.00,2.0421
3515.00,2.0486
3514.00,2.0556
3513.00,2.0629
3512.00,2.0698
3511.00,2.0759
3510.00,2.0812
3509.00,2.0865
3508.00,2.0915
3507.00,2.0960
3506.00,2.0997
3505.00,2.1030
3504.00,2.1064
3503.00,2.1095
3502.00,2.1119
3501.00,2.1137
3500.00,2.1153
3499.00,2.1171
3498.00,2.1189
3497.00,2.1204
3496.00,2.1213
3495.00,2.1217
3494.00,2.1216
3493.00,2.1209
3492.00,2.1195
3491.00,2.1179
3490.00,2.1165
3489.00,2.1154
3488.00,2.1143
3487.00,2.1124
3486.00,2.1095
3485.00,2.1061
3484.00,2.1031
3483.00,2.1004
3482.00,2.0971
3481.00,2.0927
3480.00,2.0876
3479.00,2.0823
3478.00,2.0768
3477.00,2.0710
3476.00,2.0645
3475.00,2.0574
3474.00,2.0500
3473.00,2.0424
3472.00,2.0343
3471.00,2.0257
3470.00,2.0167
3469.00,2.0075
3468.00,1.9981
3467.00,1.9883
3466.00,1.9778
3465.00,1.9669
3464.00,1.9557
3463.00,1.9444
3462.00,1.9325
3461.00,1.9202
3460.00,1.9073
3459.00,1.8940
3458.00,1.8805
3457.00,1.8668
3456.00,1.8531
3455.00,1.8391
3454.00,1.8248
3453.00,1.8102
3452.00,1.7956
3451.00,1.7810
3450.00,1.7665
3449.00,1.7520
3448.00,1.7374
3447.00,1.7225
3446.00,1.7075
3445.00,1.6928
3444.00,1.6788
3443.00,1.6655
3442.00,1.6528
3441.00,1.6404
3440.00,1.6284
3439.00,1.6171
3438.00,1.6067
3437.00,1.5975
3436.00,1.5896
3435.00,1.5829
3434.00,1.5773
3433.00,1.5727
3432.00,1.5692
3431.00,1.5669
3430.00,1.5660
3429.00,1.5666
3428.00,1.5686
3427.00,1.5717
3426.00,1.5759
3425.00,1.5816
3424.00,1.5886
3423.00,1.5970
3422.00,1.6064
3421.00,1.6167
3420.00,1.6279
3419.00,1.6398
3418.00,1.6523
3417.00,1.6651
3416.00,1.6781
3415.00,1.6914
3414.00,1.7050
3413.00,1.7186
3412.00,1.7320
3411.00,1.7450
3410.00,1.7573
3409.00,1.7693
3408.00,1.7811
3407.00,1.7928
3406.00,1.8041
3405.00,1.8149
3404.00,1.8248
3403.00,1.8341
3402.00,1.8429
3401.00,1.8515
3400.00,1.8601
3399.00,1.8685
3398.00,1.8768
3397.00,1.8851
3396.00,1.8938
3395.00,1.9029
3394.00,1.9124
3393.00,1.9223
3392.00,1.9322
3391.00,1.9418
3390.00,1.9511
3389.00,1.9604
3388.00,1.9698
3387.00,1.9795
3386.00,1.9892
3385.00,1.9988
3384.00,2.0079
3383.00,2.0167
3382.00,2.0252
3381.00,2.0339
3380.00,2.0426
3379.00,2.0507
3378.00,2.0578
3377.00,2.0642
3376.00,2.0704
3375.00,2.0766
3374.00,2.0829
3373.00,2.0888
3372.00,2.0942
3371.00,2.0992
3370.00,2.1038
3369.00,2.1085
3368.00,2.1132
3367.00,2.1174
3366.00,2.1205
3365.00,2.1227
3364.00,2.1242
3363.00,2.1255
3362.00,2.1267
3361.00,2.1277
3360.00,2.1282
3359.00,2.1280
3358.00,2.1271
3357.00,2.1256
3356.00,2.1236
3355.00,2.1210
3354.00,2.1177
3353.00,2.1140
3352.00,2.1100
3351.00,2.1058
3350.00,2.1009
3349.00,2.0953
3348.00,2.0894
3347.00,2.0831
3346.00,2.0766
3345.00,2.0697
3344.00,2.0622
3343.00,2.0542
3342.00,2.0458
3341.00,2.0370
3340.00,2.0278
3339.00,2.0179
3338.00,2.0071
3337.00,1.9956
3336.00,1.9835
3335.00,1.9707
3334.00,1.9573
3333.00,1.9434
3332.00,1.9292
3331.00,1.9145
3330.00,1.8995
3329.00,1.8841
3328.00,1.8684
3327.00,1.8521
3326.00,1.8352
3325.00,1.8176
3324.00,1.7995
3323.00,1.7812
3322.00,1.7626
3321.00,1.7435
3320.00,1.7239
3319.00,1.7041
3318.00,1.6841
3317.00,1.6644
3316.00,1.6449
3315.00,1.6258
3314.00,1.6069
3313.00,1.5884
3312.00,1.5707
3311.00,1.5538
3310.00,1.5378
3309.00,1.5227
3308.00,1.5085
3307.00,1.4953
3306.00,1.4834
3305.00,1.4730
3304.00,1.4643
3303.00,1.4572
3302.00,1.4517
3301.00,1.4479
3300.00,1.4459
3299.00,1.4456
3298.00,1.4471
3297.00,1.4502
3296.00,1.4551
3295.00,1.4616
3294.00,1.4695
3293.00,1.4787
3292.00,1.4892
3291.00,1.5009
3290.00,1.5137
3289.00,1.5276
3288.00,1.5425
3287.00,1.5581
3286.00,1.5742
3285.00,1.5908
3284.00,1.6078
3283.00,1.6254
3282.00,1.6436
3281.00,1.6623
3280.00,1.6812
3279.00,1.7002
3278.00,1.7191
3277.00,1.7376
3276.00,1.7558
3275.00,1.7739
3274.00,1.7920
3273.00,1.8103
3272.00,1.8286
3271.00,1.8467
3270.00,1.8642
3269.00,1.8810
3268.00,1.8974
3267.00,1.9133
3266.00,1.9286
3265.00,1.9436
3264.00,1.9583
3263.00,1.9729
3262.00,1.9870
3261.00,2.0004
3260.00,2.0133
3259.00,2.0257
3258.00,2.0379
3257.00,2.0500
3256.00,2.0616
3255.00,2.0727
3254.00,2.0829
3253.00,2.0926
3252.00,2.1017
3251.00,2.1102
3250.00,2.1179
3249.00,2.1250
3248.00,2.1318
3247.00,2.1385
3246.00,2.1452
3245.00,2.1517
3244.00,2.1575
3243.00,2.1622
3242.00,2.1658
3241.00,2.1687
3240.00,2.1716
3239.00,2.1746
3238.00,2.1773
3237.00,2.1793
3236.00,2.1803
3235.00,2.1808
3234.00,2.1811
3233.00,2.1813
3232.00,2.1813
3231.00,2.1810
3230.00,2.1801
3229.00,2.1787
3228.00,2.1767
3227.00,2.1745
3226.00,2.1721
3225.00,2.1697
3224.00,2.1671
3223.00,2.1635
3222.00,2.1584
3221.00,2.1521
3220.00,2.1454
3219.00,2.1390
3218.00,2.1328
3217.00,2.1261
3216.00,2.1185
3215.00,2.1099
3214.00,2.1007
3213.00,2.0914
3212.00,2.0818
3211.00,2.0717
3210.00,2.0610
3209.00,2.0500
3208.00,2.0390
3207.00,2.0281
3206.00,2.0166
3205.00,2.0041
3204.00,1.9902
3203.00,1.9752
3202.00,1.9599
3201.00,1.9445
3200.00,1.9290
3199.00,1.9132
3198.00,1.8969
3197.00,1.8801
3196.00,1.8631
3195.00,1.8456
3194.00,1.8277
3193.00,1.8095
3192.00,1.7913
3191.00,1.7732
3190.00,1.7552
3189.00,1.7374
3188.00,1.7198
3187.00,1.7024
3186.00,1.6854
3185.00,1.6690
3184.00,1.6532
3183.00,1.6383
3182.00,1.6242
3181.00,1.6111
3180.00,1.5989
3179.00,1.5877
3178.00,1.5778
3177.00,1.5693
3176.00,1.5623
3175.00,1.5568
3174.00,1.5529
3173.00,1.5506
3172.00,1.5498
3171.00,1.5504
3170.00,1.5523
3169.00,1.5558
3168.00,1.5611
3167.00,1.5681
3166.00,1.5765
3165.00,1.5862
3164.00,1.5968
3163.00,1.6084
3162.00,1.6207
3161.00,1.6340
3160.00,1.6481
3159.00,1.6630
3158.00,1.6788
3157.00,1.6953
3156.00,1.7123
3155.00,1.7295
3154.00,1.7469
3153.00,1.7645
3152.00,1.7823
3151.00,1.8003
3150.00,1.8182
3149.00,1.8359
3148.00,1.8533
3147.00,1.8707
3146.00,1.8882
3145.00,1.9056
3144.00,1.9230
3143.00,1.9400
3142.00,1.9564
3141.00,1.9724
3140.00,1.9879
3139.00,2.0031
3138.00,2.0176
3137.00,2.0316
3136.00,2.0454
3135.00,2.0591
3134.00,2.0721
3133.00,2.0842
3132.00,2.0954
3131.00,2.1059
3130.00,2.1159
3129.00,2.1259
3128.00,2.1362
3127.00,2.1466
3126.00,2.1565
3125.00,2.1655
3124.00,2.1736
3123.00,2.1812
3122.00,2.1888
3121.00,2.1960
3120.00,2.2028
3119.00,2.2094
3118.00,2.2159
3117.00,2.2221
3116.00,2.2273
3115.00,2.2307
3114.00,2.2326
3113.00,2.2338
3112.00,2.2354
3111.00,2.2379
3110.00,2.2404
3109.00,2.2419
3108.00,2.2417
3107.00,2.2404
3106.00,2.2388
3105.00,2.2376
3104.00,2.2367
3103.00,2.2353
3102.00,2.2327
3101.00,2.2285
3100.00,2.2232
3099.00,2.2176
3098.00,2.2121
3097.00,2.2070
3096.00,2.2019
3095.00,2.1959
3094.00,2.1885
3093.00,2.1799
3092.00,2.1708
3091.00,2.1615
3090.00,2.1518
3089.00,2.1412
3088.00,2.1297
3087.00,2.1176
3086.00,2.1050
3085.00,2.0917
3084.00,2.0777
3083.00,2.0632
3082.00,2.0482
3081.00,2.0327
3080.00,2.0165
3079.00,1.9996
3078.00,1.9820
3077.00,1.9635
3076.00,1.9443
3075.00,1.9245
3074.00,1.9042
3073.00,1.8837
3072.00,1.8628
3071.00,1.8416
3070.00,1.8206
3069.00,1.8000
3068.00,1.7802
3067.00,1.7611
3066.00,1.7424
3065.00,1.7244
3064.00,1.7073
3063.00,1.6913
3062.00,1.6767
3061.00,1.6637
3060.00,1.6523
3059.00,1.6426
3058.00,1.6348
3057.00,1.6288
3056.00,1.6246
3055.00,1.6224
3054.00,1.6222
3053.00,1.6240
3052.00,1.6277
3051.00,1.6334
3050.00,1.6409
3049.00,1.6504
3048.00,1.6617
3047.00,1.6746
3046.00,1.6889
3045.00,1.7044
3044.00,1.7212
3043.00,1.7396
3042.00,1.7594
3041.00,1.7804
3040.00,1.8023
3039.00,1.8246
3038.00,1.8473
3037.00,1.8704
3036.00,1.8938
3035.00,1.9173
3034.00,1.9406
3033.00,1.9636
3032.00,1.9863
3031.00,2.0090
3030.00,2.0316
3029.00,2.0538
3028.00,2.0753
3027.00,2.0959
3026.00,2.1156
3025.00,2.1344
3024.00,2.1527
3023.00,2.1704
3022.00,2.1872
3021.00,2.2029
3020.00,2.2175
3019.00,2.2311
3018.00,2.2440
3017.00,2.2565
3016.00,2.2687
3015.00,2.2804
3014.00,2.2912
3013.00,2.3007
3012.00,2.3089
3011.00,2.3156
3010.00,2.3209
3009.00,2.3248
3008.00,2.3273
3007.00,2.3290
3006.00,2.3304
3005.00,2.3314
3004.00,2.3318
3003.00,2.3308
3002.00,2.3281
3001.00,2.3238
3000.00,2.3183
2999.00,2.3115
2998.00,2.3037
2997.00,2.2947
2996.00,2.2846
2995.00,2.2734
2994.00,2.2613
2993.00,2.2486
2992.00,2.2356
2991.00,2.2223
2990.00,2.2091
2989.00,2.1971
2988.00,2.1877
2987.00,2.1823
2986.00,2.1812
2985.00,2.1850
2984.00,2.1942
2983.00,2.2098
2982.00,2.2324
2981.00,2.2619
2980.00,2.2980
2979.00,2.3407
2978.00,2.3898
2977.00,2.4454
2976.00,2.5073
2975.00,2.5748
2974.00,2.6470
2973.00,2.7226
2972.00,2.8008
2971.00,2.8820
2970.00,2.9665
2969.00,3.0541
2968.00,3.1439
2967.00,3.2358
2966.00,3.3293
2965.00,3.4226
2964.00,3.5141
2963.00,3.6041
2962.00,3.6894
2961.00,3.7576
2960.00,3.7989
2959.00,3.8272
2958.00,3.8665
2957.00,3.9232
2956.00,3.9781
2955.00,4.0080
2954.00,4.0191
2953.00,4.0235
2952.00,4.0129
2951.00,3.9866
2950.00,3.9609
2949.00,3.9556
2948.00,3.9765
2947.00,4.0193
2946.00,4.0727
2945.00,4.1105
2944.00,4.1212
2943.00,4.1257
2942.00,4.1421
2941.00,4.1673
2940.00,4.1836
2939.00,4.1842
2938.00,4.2050
2937.00,4.2972
2936.00,4.5209
2935.00,5.0161
2934.00,5.0862
2933.00,4.9462
2932.00,4.9141
2931.00,5.3783
2930.00,5.3671
2929.00,5.2404
2928.00,5.0184
2927.00,4.6756
2926.00,4.4055
2925.00,4.2645
2924.00,4.1945
2923.00,4.1174
2922.00,4.0390
2921.00,3.9697
2920.00,3.9059
2919.00,3.8419
2918.00,3.7712
2917.00,3.6918
2916.00,3.6064
2915.00,3.5189
2914.00,3.4355
2913.00,3.3629
2912.00,3.3049
2911.00,3.2616
2910.00,3.2304
2909.00,3.2065
2908.00,3.1850
2907.00,3.1648
2906.00,3.1478
2905.00,3.1339
2904.00,3.1177
2903.00,3.0944
2902.00,3.0655
2901.00,3.0371
2900.00,3.0130
2899.00,2.9928
2898.00,2.9741
2897.00,2.9559
2896.00,2.9373
2895.00,2.9172
2894.00,2.8949
2893.00,2.8716
2892.00,2.8494
2891.00,2.8301
2890.00,2.8143
2889.00,2.8012
2888.00,2.7892
2887.00,2.7775
2886.00,2.7678
2885.00,2.7631
2884.00,2.7657
2883.00,2.7759
2882.00,2.7933
2881.00,2.8170
2880.00,2.8462
2879.00,2.8801
2878.00,2.9184
2877.00,2.9617
2876.00,3.0105
2875.00,3.0642
2874.00,3.1230
2873.00,3.1882
2872.00,3.2605
2871.00,3.3374
2870.00,3.4151
2869.00,3.4916
2868.00,3.5658
2867.00,3.6345
2866.00,3.6982
2865.00,3.7673
2864.00,3.8477
2863.00,3.9148
2862.00,3.9214
2861.00,3.8634
2860.00,3.7865
2859.00,3.7162
2858.00,3.6425
2857.00,3.5479
2856.00,3.4357
2855.00,3.3222
2854.00,3.2172
2853.00,3.1199
2852.00,3.0263
2851.00,2.9353
2850.00,2.8480
2849.00,2.7653
2848.00,2.6871
2847.00,2.6133
2846.00,2.5441
2845.00,2.4793
2844.00,2.4177
2843.00,2.3581
2842.00,2.3008
2841.00,2.2469
2840.00,2.1981
2839.00,2.1548
2838.00,2.1173
2837.00,2.0856
2836.00,2.0599
2835.00,2.0399
2834.00,2.0254
2833.00,2.0162
2832.00,2.0118
2831.00,2.0115
2830.00,2.0140
2829.00,2.0183
2828.00,2.0233
2827.00,2.0287
2826.00,2.0341
2825.00,2.0400
2824.00,2.0466
2823.00,2.0540
2822.00,2.0627
2821.00,2.0729
2820.00,2.0848
2819.00,2.0983
2818.00,2.1127
2817.00,2.1274
2816.00,2.1426
2815.00,2.1586
2814.00,2.1755
2813.00,2.1931
2812.00,2.2110
2811.00,2.2284
2810.00,2.2455
2809.00,2.2622
2808.00,2.2786
2807.00,2.2943
2806.00,2.3091
2805.00,2.3228
2804.00,2.3360
2803.00,2.3485
2802.00,2.3602
2801.00,2.3706
2800.00,2.3792
2799.00,2.3859
2798.00,2.3908
2797.00,2.3950
2796.00,2.3993
2795.00,2.4040
2794.00,2.4087
2793.00,2.4126
2792.00,2.4148
2791.00,2.4150
2790.00,2.4131
2789.00,2.4100
2788.00,2.4065
2787.00,2.4031
2786.00,2.3994
2785.00,2.3950
2784.00,2.3897
2783.00,2.3836
2782.00,2.3769
2781.00,2.3693
2780.00,2.3608
2779.00,2.3514
2778.00,2.3412
2777.00,2.3303
2776.00,2.3186
2775.00,2.3055
2774.00,2.2910
2773.00,2.2754
2772.00,2.2592
2771.00,2.2424
2770.00,2.2248
2769.00,2.2063
2768.00,2.1869
2767.00,2.1668
2766.00,2.1459
2765.00,2.1241
2764.00,2.1007
2763.00,2.0758
2762.00,2.0493
2761.00,2.0217
2760.00,1.9932
2759.00,1.9633
2758.00,1.9317
2757.00,1.8981
2756.00,1.8626
2755.00,1.8254
2754.00,1.7868
2753.00,1.7473
2752.00,1.7073
2751.00,1.6672
2750.00,1.6277
2749.00,1.5892
2748.00,1.5524
2747.00,1.5178
2746.00,1.4859
2745.00,1.4572
2744.00,1.4323
2743.00,1.4115
2742.00,1.3952
2741.00,1.3836
2740.00,1.3770
2739.00,1.3754
2738.00,1.3785
2737.00,1.3864
2736.00,1.3986
2735.00,1.4149
2734.00,1.4345
2733.00,1.4569
2732.00,1.4817
2731.00,1.5084
2730.00,1.5367
2729.00,1.5664
2728.00,1.5972
2727.00,1.6292
2726.00,1.6620
2725.00,1.6951
2724.00,1.7282
2723.00,1.7612
2722.00,1.7942
2721.00,1.8275
2720.00,1.8607
2719.00,1.8931
2718.00,1.9245
2717.00,1.9547
2716.00,1.9840
2715.00,2.0126
2714.00,2.0403
2713.00,2.0668
2712.00,2.0925
2711.00,2.1175
2710.00,2.1417
2709.00,2.1652
2708.00,2.1876
2707.00,2.2090
2706.00,2.2295
2705.00,2.2492
2704.00,2.2681
2703.00,2.2861
2702.00,2.3028
2701.00,2.3178
2700.00,2.3317
2699.00,2.3449
2698.00,2.3579
2697.00,2.3706
2696.00,2.3823
2695.00,2.3929
2694.00,2.4023
2693.00,2.4110
2692.00,2.4192
2691.00,2.4266
2690.00,2.4330
2689.00,2.4385
2688.00,2.4438
2687.00,2.4492
2686.00,2.4546
2685.00,2.4597
2684.00,2.4638
2683.00,2.4668
2682.00,2.4688
2681.00,2.4699
2680.00,2.4708
2679.00,2.4719
2678.00,2.4737
2677.00,2.4757
2676.00,2.4770
2675.00,2.4767
2674.00,2.4749
2673.00,2.4725
2672.00,2.4700
2671.00,2.4672
2670.00,2.4641
2669.00,2.4608
2668.00,2.4573
2667.00,2.4533
2666.00,2.4480
2665.00,2.4413
2664.00,2.4334
2663.00,2.4242
2662.00,2.4136
2661.00,2.4022
2660.00,2.3905
2659.00,2.3788
2658.00,2.3669
2657.00,2.3547
2656.00,2.3421
2655.00,2.3287
2654.00,2.3145
2653.00,2.2995
2652.00,2.2839
2651.00,2.2681
2650.00,2.2520
2649.00,2.2350
2648.00,2.2168
2647.00,2.1970
2646.00,2.1756
2645.00,2.1530
2644.00,2.1292
2643.00,2.1043
2642.00,2.0780
2641.00,2.0504
2640.00,2.0212
2639.00,1.9904
2638.00,1.9577
2637.00,1.9235
2636.00,1.8878
2635.00,1.8509
2634.00,1.8130
2633.00,1.7744
2632.00,1.7357
2631.00,1.6974
2630.00,1.6598
2629.00,1.6236
2628.00,1.5890
2627.00,1.5566
2626.00,1.5269
2625.00,1.5005
2624.00,1.4776
2623.00,1.4588
2622.00,1.4441
2621.00,1.4337
2620.00,1.4276
2619.00,1.4257
2618.00,1.4278
2617.00,1.4337
2616.00,1.4430
2615.00,1.4555
2614.00,1.4709
2613.00,1.4886
2612.00,1.5084
2611.00,1.5298
2610.00,1.5525
2609.00,1.5764
2608.00,1.6013
2607.00,1.6272
2606.00,1.6540
2605.00,1.6816
2604.00,1.7100
2603.00,1.7394
2602.00,1.7696
2601.00,1.8005
2600.00,1.8318
2599.00,1.8633
2598.00,1.8948
2597.00,1.9260
2596.00,1.9569
2595.00,1.9875
2594.00,2.0178
2593.00,2.0474
2592.00,2.0763
2591.00,2.1041
2590.00,2.1309
2589.00,2.1567
2588.00,2.1818
2587.00,2.2063
2586.00,2.2296
2585.00,2.2513
2584.00,2.2712
2583.00,2.2898
2582.00,2.3075
2581.00,2.3246
2580.00,2.3412
2579.00,2.3571
2578.00,2.3724
2577.00,2.3870
2576.00,2.4005
2575.00,2.4128
2574.00,2.4243
2573.00,2.4355
2572.00,2.4468
2571.00,2.4581
2570.00,2.4683
2569.00,2.4773
2568.00,2.4854
2567.00,2.4933
2566.00,2.5011
2565.00,2.5084
2564.00,2.5149
2563.00,2.5208
2562.00,2.5259
2561.00,2.5302
2560.00,2.5338
2559.00,2.5366
2558.00,2.5389
2557.00,2.5403
2556.00,2.5409
2555.00,2.5411
2554.00,2.5412
2553.00,2.5414
2552.00,2.5411
2551.00,2.5397
2550.00,2.5371
2549.00,2.5345
2548.00,2.5324
2547.00,2.5306
2546.00,2.5278
2545.00,2.5236
2544.00,2.5186
2543.00,2.5135
2542.00,2.5083
2541.00,2.5024
2540.00,2.4959
2539.00,2.4890
2538.00,2.4819
2537.00,2.4742
2536.00,2.4653
2535.00,2.4550
2534.00,2.4435
2533.00,2.4313
2532.00,2.4187
2531.00,2.4057
2530.00,2.3920
2529.00,2.3777
2528.00,2.3630
2527.00,2.3479
2526.00,2.3319
2525.00,2.3143
2524.00,2.2950
2523.00,2.2746
2522.00,2.2533
2521.00,2.2315
2520.00,2.2087
2519.00,2.1847
2518.00,2.1592
2517.00,2.1320
2516.00,2.1034
2515.00,2.0733
2514.00,2.0416
2513.00,2.0082
2512.00,1.9731
2511.00,1.9363
2510.00,1.8977
2509.00,1.8575
2508.00,1.8158
2507.00,1.7727
2506.00,1.7287
2505.00,1.6841
2504.00,1.6395
2503.00,1.5954
2502.00,1.5525
2501.00,1.5114
2500.00,1.4728
2499.00,1.4374
2498.00,1.4059
2497.00,1.3790
2496.00,1.3571
2495.00,1.3407
2494.00,1.3301
2493.00,1.3253
2492.00,1.3265
2491.00,1.3333
2490.00,1.3455
2489.00,1.3627
2488.00,1.3844
2487.00,1.4100
2486.00,1.4389
2485.00,1.4706
2484.00,1.5044
2483.00,1.5398
2482.00,1.5764
2481.00,1.6139
2480.00,1.6522
2479.00,1.6909
2478.00,1.7298
2477.00,1.7685
2476.00,1.8069
2475.00,1.8448
2474.00,1.8819
2473.00,1.9185
2472.00,1.9546
2471.00,1.9903
2470.00,2.0252
2469.00,2.0590
2468.00,2.0916
2467.00,2.1230
2466.00,2.1532
2465.00,2.1820
2464.00,2.2093
2463.00,2.2349
2462.00,2.2593
2461.00,2.2830
2460.00,2.3061
2459.00,2.3287
2458.00,2.3506
2457.00,2.3716
2456.00,2.3913
2455.00,2.4095
2454.00,2.4261
2453.00,2.4411
2452.00,2.4550
2451.00,2.4685
2450.00,2.4823
2449.00,2.4963
2448.00,2.5099
2447.00,2.5220
2446.00,2.5325
2445.00,2.5421
2444.00,2.5508
2443.00,2.5589
2442.00,2.5667
2441.00,2.5749
2440.00,2.5837
2439.00,2.5920
2438.00,2.5987
2437.00,2.6033
2436.00,2.6067
2435.00,2.6095
2434.00,2.6121
2433.00,2.6144
2432.00,2.6162
2431.00,2.6172
2430.00,2.6173
2429.00,2.6175
2428.00,2.6192
2427.00,2.6225
2426.00,2.6254
2425.00,2.6261
2424.00,2.6240
2423.00,2.6206
2422.00,2.6172
2421.00,2.6142
2420.00,2.6114
2419.00,2.6085
2418.00,2.6047
2417.00,2.5991
2416.00,2.5919
2415.00,2.5841
2414.00,2.5765
2413.00,2.5690
2412.00,2.5610
2411.00,2.5525
2410.00,2.5438
2409.00,2.5346
2408.00,2.5243
2407.00,2.5124
2406.00,2.4995
2405.00,2.4860
2404.00,2.4723
2403.00,2.4579
2402.00,2.4429
2401.00,2.4271
2400.00,2.4106
2399.00,2.3929
2398.00,2.3739
2397.00,2.3533
2396.00,2.3315
2395.00,2.3087
2394.00,2.2851
2393.00,2.2605
2392.00,2.2345
2391.00,2.2070
2390.00,2.1785
2389.00,2.1498
2388.00,2.1219
2387.00,2.0956
2386.00,2.0718
2385.00,2.0523
2384.00,2.0389
2383.00,2.0332
2382.00,2.0368
2381.00,2.0506
2380.00,2.0743
2379.00,2.1068
2378.00,2.1454
2377.00,2.1868
2376.00,2.2272
2375.00,2.2627
2374.00,2.2906
2373.00,2.3099
2372.00,2.3212
2371.00,2.3262
2370.00,2.3272
2369.00,2.3273
2368.00,2.3299
2367.00,2.3360
2366.00,2.3460
2365.00,2.3613
2364.00,2.3822
2363.00,2.4059
2362.00,2.4320
2361.00,2.4618
2360.00,2.4936
2359.00,2.5270
2358.00,2.5612
2357.00,2.5922
2356.00,2.6200
2355.00,2.6402
2354.00,2.6532
2353.00,2.6599
2352.00,2.6595
2351.00,2.6573
2350.00,2.6643
2349.00,2.6983
2348.00,2.7517
2347.00,2.7965
2346.00,2.8158
2345.00,2.8142
2344.00,2.8233
2343.00,2.8574
2342.00,2.9090
2341.00,2.9554
2340.00,2.9827
2339.00,3.0015
2338.00,3.0164
2337.00,3.0323
2336.00,3.0481
2335.00,3.0667
2334.00,3.0888
2333.00,3.1187
2332.00,3.1565
2331.00,3.2025
2330.00,3.2491
2329.00,3.2935
2328.00,3.3285
2327.00,3.3519
2326.00,3.3695
2325.00,3.3830
2324.00,3.4026
2323.00,3.4257
2322.00,3.4540
2321.00,3.4821
2320.00,3.5025
2319.00,3.5117
2318.00,3.5041
2317.00,3.4858
2316.00,3.4594
2315.00,3.4350
2314.00,3.4145
2313.00,3.4020
2312.00,3.3936
2311.00,3.3863
2310.00,3.3736
2309.00,3.3531
2308.00,3.3246
2307.00,3.2916
2306.00,3.2573
2305.00,3.2235
2304.00,3.1895
2303.00,3.1556
2302.00,3.1215
2301.00,3.0892
2300.00,3.0581
2299.00,3.0281
2298.00,2.9979
2297.00,2.9686
2296.00,2.9406
2295.00,2.9127
2294.00,2.8835
2293.00,2.8536
2292.00,2.8267
2291.00,2.8055
2290.00,2.7894
2289.00,2.7745
2288.00,2.7589
2287.00,2.7425
2286.00,2.7266
2285.00,2.7114
2284.00,2.6966
2283.00,2.6818
2282.00,2.6668
2281.00,2.6515
2280.00,2.6360
2279.00,2.6207
2278.00,2.6053
2277.00,2.5895
2276.00,2.5731
2275.00,2.5563
2274.00,2.5393
2273.00,2.5216
2272.00,2.5029
2271.00,2.4835
2270.00,2.4634
2269.00,2.4425
2268.00,2.4201
2267.00,2.3965
2266.00,2.3720
2265.00,2.3462
2264.00,2.3185
2263.00,2.2883
2262.00,2.2558
2261.00,2.2215
2260.00,2.1855
2259.00,2.1477
2258.00,2.1081
2257.00,2.0670
2256.00,2.0247
2255.00,1.9819
2254.00,1.9388
2253.00,1.8956
2252.00,1.8514
2251.00,1.8053
2250.00,1.7569
2249.00,1.7069
2248.00,1.6569
2247.00,1.6084
2246.00,1.5627
2245.00,1.5209
2244.00,1.4841
2243.00,1.4530
2242.00,1.4285
2241.00,1.4112
2240.00,1.4016
2239.00,1.3996
2238.00,1.4052
2237.00,1.4177
2236.00,1.4368
2235.00,1.4614
2234.00,1.4909
2233.00,1.5244
2232.00,1.5612
2231.00,1.6004
2230.00,1.6415
2229.00,1.6839
2228.00,1.7272
2227.00,1.7710
2226.00,1.8147
2225.00,1.8583
2224.00,1.9016
2223.00,1.9445
2222.00,1.9867
2221.00,2.0284
2220.00,2.0694
2219.00,2.1095
2218.00,2.1483
2217.00,2.1854
2216.00,2.2209
2215.00,2.2551
2214.00,2.2886
2213.00,2.3212
2212.00,2.3527
2211.00,2.3824
2210.00,2.4100
2209.00,2.4358
2208.00,2.4601
2207.00,2.4832
2206.00,2.5052
2205.00,2.5260
2204.00,2.5455
2203.00,2.5638
2202.00,2.5811
2201.00,2.5978
2200.00,2.6145
2199.00,2.6310
2198.00,2.6468
2197.00,2.6613
2196.00,2.6745
2195.00,2.6872
2194.00,2.6997
2193.00,2.7120
2192.00,2.7232
2191.00,2.7326
2190.00,2.7400
2189.00,2.7459
2188.00,2.7512
2187.00,2.7563
2186.00,2.7612
2185.00,2.7660
2184.00,2.7708
2183.00,2.7757
2182.00,2.7808
2181.00,2.7860
2180.00,2.7909
2179.00,2.7955
2178.00,2.7994
2177.00,2.8025
2176.00,2.8051
2175.00,2.8075
2174.00,2.8097
2173.00,2.8110
2172.00,2.8107
2171.00,2.8085
2170.00,2.8049
2169.00,2.8011
2168.00,2.7982
2167.00,2.7962
2166.00,2.7941
2165.00,2.7905
2164.00,2.7852
2163.00,2.7793
2162.00,2.7740
2161.00,2.7696
2160.00,2.7650
2159.00,2.7590
2158.00,2.7506
2157.00,2.7396
2156.00,2.7265
2155.00,2.7128
2154.00,2.7005
2153.00,2.6903
2152.00,2.6813
2151.00,2.6713
2150.00,2.6590
2149.00,2.6446
2148.00,2.6288
2147.00,2.6115
2146.00,2.5924
2145.00,2.5711
2144.00,2.5485
2143.00,2.5259
2142.00,2.5039
2141.00,2.4823
2140.00,2.4602
2139.00,2.4361
2138.00,2.4097
2137.00,2.3814
2136.00,2.3521
2135.00,2.3224
2134.00,2.2916
2133.00,2.2589
2132.00,2.2239
2131.00,2.1864
2130.00,2.1468
2129.00,2.1049
2128.00,2.0604
2127.00,2.0128
2126.00,1.9625
2125.00,1.9103
2124.00,1.8573
2123.00,1.8042
2122.00,1.7515
2121.00,1.7003
2120.00,1.6516
2119.00,1.6065
2118.00,1.5661
2117.00,1.5312
2116.00,1.5028
2115.00,1.4818
2114.00,1.4688
2113.00,1.4641
2112.00,1.4674
2111.00,1.4784
2110.00,1.4966
2109.00,1.5216
2108.00,1.5525
2107.00,1.5882
2106.00,1.6277
2105.00,1.6698
2104.00,1.7138
2103.00,1.7589
2102.00,1.8048
2101.00,1.8510
2100.00,1.8972
2099.00,1.9430
2098.00,1.9880
2097.00,2.0319
2096.00,2.0747
2095.00,2.1167
2094.00,2.1577
2093.00,2.1974
2092.00,2.2353
2091.00,2.2715
2090.00,2.3065
2089.00,2.3407
2088.00,2.3741
2087.00,2.4060
2086.00,2.4362
2085.00,2.4649
2084.00,2.4921
2083.00,2.5181
2082.00,2.5436
2081.00,2.5693
2080.00,2.5951
2079.00,2.6194
2078.00,2.6411
2077.00,2.6599
2076.00,2.6770
2075.00,2.6931
2074.00,2.7088
2073.00,2.7246
2072.00,2.7413
2071.00,2.7583
2070.00,2.7740
2069.00,2.7873
2068.00,2.7984
2067.00,2.8089
2066.00,2.8197
2065.00,2.8299
2064.00,2.8383
2063.00,2.8444
2062.00,2.8494
2061.00,2.8548
2060.00,2.8612
2059.00,2.8680
2058.00,2.8742
2057.00,2.8798
2056.00,2.8852
2055.00,2.8903
2054.00,2.8945
2053.00,2.8975
2052.00,2.8997
2051.00,2.9012
2050.00,2.9015
2049.00,2.9003
2048.00,2.8983
2047.00,2.8961
2046.00,2.8933
2045.00,2.8894
2044.00,2.8852
2043.00,2.8820
2042.00,2.8798
2041.00,2.8773
2040.00,2.8742
2039.00,2.8717
2038.00,2.8703
2037.00,2.8687
2036.00,2.8646
2035.00,2.8569
2034.00,2.8466
2033.00,2.8350
2032.00,2.8234
2031.00,2.8132
2030.00,2.8052
2029.00,2.7987
2028.00,2.7915
2027.00,2.7816
2026.00,2.7687
2025.00,2.7540
2024.00,2.7388
2023.00,2.7238
2022.00,2.7088
2021.00,2.6926
2020.00,2.6740
2019.00,2.6524
2018.00,2.6290
2017.00,2.6060
2016.00,2.5848
2015.00,2.5649
2014.00,2.5439
2013.00,2.5197
2012.00,2.4920
2011.00,2.4618
2010.00,2.4302
2009.00,2.3974
2008.00,2.3624
2007.00,2.3248
2006.00,2.2846
2005.00,2.2423
2004.00,2.1977
2003.00,2.1506
2002.00,2.1007
2001.00,2.0480
2000.00,1.9932
1999.00,1.9370
1998.00,1.8801
1997.00,1.8239
1996.00,1.7702
1995.00,1.7193
1994.00,1.6705
1993.00,1.6255
1992.00,1.5884
1991.00,1.5625
1990.00,1.5476
1989.00,1.5415
1988.00,1.5435
1987.00,1.5551
1986.00,1.5761
1985.00,1.6048
1984.00,1.6390
1983.00,1.6777
1982.00,1.7202
1981.00,1.7652
1980.00,1.8116
1979.00,1.8588
1978.00,1.9060
1977.00,1.9527
1976.00,1.9985
1975.00,2.0433
1974.00,2.0869
1973.00,2.1299
1972.00,2.1733
1971.00,2.2173
1970.00,2.2604
1969.00,2.3006
1968.00,2.3381
1967.00,2.3749
1966.00,2.4123
1965.00,2.4494
1964.00,2.4847
1963.00,2.5178
1962.00,2.5489
1961.00,2.5780
1960.00,2.6055
1959.00,2.6320
1958.00,2.6576
1957.00,2.6814
1956.00,2.7033
1955.00,2.7246
1954.00,2.7462
1953.00,2.7674
1952.00,2.7866
1951.00,2.8035
1950.00,2.8193
1949.00,2.8344
1948.00,2.8487
1947.00,2.8629
1946.00,2.8768
1945.00,2.8886
1944.00,2.8966
1943.00,2.9020
1942.00,2.9086
1941.00,2.9183
1940.00,2.9298
1939.00,2.9407
1938.00,2.9504
1937.00,2.9587
1936.00,2.9652
1935.00,2.9693
1934.00,2.9715
1933.00,2.9734
1932.00,2.9756
1931.00,2.9778
1930.00,2.9795
1929.00,2.9805
1928.00,2.9824
1927.00,2.9862
1926.00,2.9913
1925.00,2.9942
1924.00,2.9931
1923.00,2.9917
1922.00,2.9944
1921.00,2.9994
1920.00,3.0004
1919.00,2.9946
1918.00,2.9865
1917.00,2.9815
1916.00,2.9787
1915.00,2.9736
1914.00,2.9648
1913.00,2.9543
1912.00,2.9441
1911.00,2.9347
1910.00,2.9263
1909.00,2.9187
1908.00,2.9106
1907.00,2.8988
1906.00,2.8822
1905.00,2.8624
1904.00,2.8413
1903.00,2.8211
1902.00,2.8026
1901.00,2.7856
1900.00,2.7695
1899.00,2.7526
1898.00,2.7338
1897.00,2.7125
1896.00,2.6883
1895.00,2.6622
1894.00,2.6357
1893.00,2.6088
1892.00,2.5788
1891.00,2.5432
1890.00,2.5032
1889.00,2.4630
1888.00,2.4243
1887.00,2.3840
1886.00,2.3388
1885.00,2.2896
1884.00,2.2391
1883.00,2.1880
1882.00,2.1353
1881.00,2.0810
1880.00,2.0271
1879.00,1.9753
1878.00,1.9263
1877.00,1.8818
1876.00,1.8423
1875.00,1.8084
1874.00,1.7819
1873.00,1.7647
1872.00,1.7553
1871.00,1.7502
1870.00,1.7479
1869.00,1.7513
1868.00,1.7643
1867.00,1.7854
1866.00,1.8105
1865.00,1.8384
1864.00,1.8708
1863.00,1.9090
1862.00,1.9527
1861.00,2.0009
1860.00,2.0528
1859.00,2.1073
1858.00,2.1630
1857.00,2.2190
1856.00,2.2743
1855.00,2.3272
1854.00,2.3770
1853.00,2.4246
1852.00,2.4719
1851.00,2.5172
1850.00,2.5580
1849.00,2.5970
1848.00,2.6385
1847.00,2.6821
1846.00,2.7207
1845.00,2.7500
1844.00,2.7749
1843.00,2.8032
1842.00,2.8350
1841.00,2.8646
1840.00,2.8880
1839.00,2.9055
1838.00,2.9199
1837.00,2.9328
1836.00,2.9451
1835.00,2.9594
1834.00,2.9786
1833.00,3.0020
1832.00,3.0245
1831.00,3.0401
1830.00,3.0510
1829.00,3.0655
1828.00,3.0832
1827.00,3.0944
1826.00,3.0936
1825.00,3.0875
1824.00,3.0874
1823.00,3.0953
1822.00,3.1047
1821.00,3.1098
1820.00,3.1094
1819.00,3.1044
1818.00,3.0977
1817.00,3.0926
1816.00,3.0916
1815.00,3.0956
1814.00,3.1017
1813.00,3.1064
1812.00,3.1064
1811.00,3.1018
1810.00,3.0959
1809.00,3.0906
1808.00,3.0860
1807.00,3.0812
1806.00,3.0748
1805.00,3.0641
1804.00,3.0473
1803.00,3.0264
1802.00,3.0058
1801.00,2.9908
1800.00,2.9805
1799.00,2.9680
1798.00,2.9484
1797.00,2.9236
1796.00,2.8991
1795.00,2.8753
1794.00,2.8442
1793.00,2.8003
1792.00,2.7468
1791.00,2.6925
1790.00,2.6411
1789.00,2.5899
1788.00,2.5353
1787.00,2.4758
1786.00,2.4133
1785.00,2.3549
1784.00,2.3087
1783.00,2.2772
1782.00,2.2545
1781.00,2.2412
1780.00,2.2435
1779.00,2.2649
1778.00,2.3021
1777.00,2.3522
1776.00,2.4172
1775.00,2.4942
1774.00,2.5737
1773.00,2.6499
1772.00,2.7248
1771.00,2.7948
1770.00,2.8500
1769.00,2.8873
1768.00,2.9168
1767.00,2.9530
1766.00,2.9984
1765.00,3.0437
1764.00,3.0783
1763.00,3.1026
1762.00,3.1280
1761.00,3.1676
1760.00,3.2173
1759.00,3.2596
1758.00,3.2813
1757.00,3.2889
1756.00,3.3032
1755.00,3.3336
1754.00,3.3735
1753.00,3.4144
1752.00,3.4536
1751.00,3.4875
1750.00,3.5112
1749.00,3.5235
1748.00,3.5338
1747.00,3.5535
1746.00,3.5871
1745.00,3.6363
1744.00,3.7009
1743.00,3.7755
1742.00,3.8491
1741.00,3.9182
1740.00,3.9894
1739.00,4.0612
1738.00,4.1152
1737.00,4.1391
1736.00,4.1366
1735.00,4.1216
1734.00,4.1264
1733.00,4.1876
1732.00,4.3019
1731.00,4.4208
1730.00,4.4923
1729.00,4.5311
1728.00,4.5741
1727.00,4.5983
1726.00,4.5963
1725.00,4.6286
1724.00,4.7297
1723.00,4.9275
1722.00,5.3477
1721.00,5.3806
1720.00,5.0998
1719.00,4.9058
1718.00,4.6008
1717.00,4.4598
1716.00,4.5026
1715.00,4.7390
1714.00,5.2599
1713.00,5.6572
1712.00,5.1577
1711.00,4.7809
1710.00,4.5344
1709.00,4.3817
1708.00,4.2864
1707.00,4.2404
1706.00,4.2551
1705.00,4.3533
1704.00,4.5354
1703.00,4.6969
1702.00,4.7508
1701.00,4.8855
1700.00,5.1118
1699.00,5.0185
1698.00,4.8873
1697.00,4.8297
1696.00,5.0730
1695.00,4.8013
1694.00,4.3645
1693.00,4.1949
1692.00,4.0880
1691.00,4.0066
1690.00,3.9183
1689.00,3.8229
1688.00,3.7380
1687.00,3.6730
1686.00,3.6257
1685.00,3.5897
1684.00,3.5728
1683.00,3.5823
1682.00,3.5966
1681.00,3.5946
1680.00,3.5819
1679.00,3.5730
1678.00,3.5701
1677.00,3.5630
1676.00,3.5435
1675.00,3.5156
1674.00,3.4869
1673.00,3.4622
1672.00,3.4422
1671.00,3.4254
1670.00,3.4042
1669.00,3.3696
1668.00,3.3241
1667.00,3.2790
1666.00,3.2404
1665.00,3.2022
1664.00,3.1545
1663.00,3.0966
1662.00,3.0341
1661.00,2.9716
1660.00,2.9094
1659.00,2.8492
1658.00,2.8002
1657.00,2.7735
1656.00,2.7694
1655.00,2.7726
1654.00,2.7663
1653.00,2.7499
1652.00,2.7397
1651.00,2.7401
1650.00,2.7452
1649.00,2.7528
1648.00,2.7630
1647.00,2.7758
1646.00,2.7920
1645.00,2.8098
1644.00,2.8267
1643.00,2.8439
1642.00,2.8621
1641.00,2.8855
1640.00,2.9197
1639.00,2.9644
1638.00,3.0130
1637.00,3.0547
1636.00,3.0831
1635.00,3.0970
1634.00,3.1007
1633.00,3.0970
1632.00,3.0905
1631.00,3.0891
1630.00,3.0973
1629.00,3.1156
1628.00,3.1416
1627.00,3.1715
1626.00,3.1971
1625.00,3.2104
1624.00,3.2091
1623.00,3.2009
1622.00,3.1983
1621.00,3.2092
1620.00,3.2323
1619.00,3.2590
1618.00,3.2792
1617.00,3.2870
1616.00,3.2870
1615.00,3.2852
1614.00,3.2813
1613.00,3.2734
1612.00,3.2647
1611.00,3.2614
1610.00,3.2637
1609.00,3.2666
1608.00,3.2666
1607.00,3.2643
1606.00,3.2590
1605.00,3.2497
1604.00,3.2383
1603.00,3.2284
1602.00,3.2231
1601.00,3.2216
1600.00,3.2209
1599.00,3.2188
1598.00,3.2157
1597.00,3.2124
1596.00,3.2078
1595.00,3.1993
1594.00,3.1838
1593.00,3.1604
1592.00,3.1327
1591.00,3.1071
1590.00,3.0868
1589.00,3.0704
1588.00,3.0546
1587.00,3.0371
1586.00,3.0166
1585.00,2.9917
1584.00,2.9637
1583.00,2.9318
1582.00,2.8960
1581.00,2.8613
1580.00,2.8351
1579.00,2.8170
1578.00,2.7970
1577.00,2.7610
1576.00,2.7038
1575.00,2.6368
1574.00,2.5724
1573.00,2.5135
1572.00,2.4553
1571.00,2.3916
1570.00,2.3206
1569.00,2.2461
1568.00,2.1759
1567.00,2.1115
1566.00,2.0534
1565.00,2.0060
1564.00,1.9802
1563.00,1.9815
1562.00,2.0060
1561.00,2.0446
1560.00,2.0902
1559.00,2.1402
1558.00,2.1916
1557.00,2.2301
1556.00,2.2499
1555.00,2.2655
1554.00,2.2947
1553.00,2.3430
1552.00,2.3961
1551.00,2.4413
1550.00,2.4873
1549.00,2.5452
1548.00,2.6118
1547.00,2.6736
1546.00,2.7267
1545.00,2.7810
1544.00,2.8469
1543.00,2.9226
1542.00,2.9996
1541.00,3.0637
1540.00,3.1014
1539.00,3.1140
1538.00,3.1174
1537.00,3.1222
1536.00,3.1288
1535.00,3.1360
1534.00,3.1437
1533.00,3.1551
1532.00,3.1673
1531.00,3.1765
1530.00,3.1867
1529.00,3.2028
1528.00,3.2250
1527.00,3.2513
1526.00,3.2816
1525.00,3.3168
1524.00,3.3507
1523.00,3.3718
1522.00,3.3763
1521.00,3.3767
1520.00,3.3874
1519.00,3.4007
1518.00,3.3991
1517.00,3.3792
1516.00,3.3566
1515.00,3.3484
1514.00,3.3527
1513.00,3.3578
1512.00,3.3554
1511.00,3.3510
1510.00,3.3533
1509.00,3.3617
1508.00,3.3692
1507.00,3.3752
1506.00,3.3839
1505.00,3.3888
1504.00,3.3807
1503.00,3.3627
1502.00,3.3478
1501.00,3.3460
1500.00,3.3546
1499.00,3.3599
1498.00,3.3516
1497.00,3.3318
1496.00,3.3109
1495.00,3.2993
1494.00,3.2953
1493.00,3.2878
1492.00,3.2674
1491.00,3.2372
1490.00,3.2100
1489.00,3.1931
1488.00,3.1771
1487.00,3.1526
1486.00,3.1205
1485.00,3.0853
1484.00,3.0499
1483.00,3.0105
1482.00,2.9662
1481.00,2.9223
1480.00,2.8823
1479.00,2.8425
1478.00,2.7986
1477.00,2.7547
1476.00,2.7189
1475.00,2.6950
1474.00,2.6773
1473.00,2.6644
1472.00,2.6634
1471.00,2.6807
1470.00,2.7159
1469.00,2.7677
1468.00,2.8364
1467.00,2.9192
1466.00,3.0066
1465.00,3.0874
1464.00,3.1532
1463.00,3.2003
1462.00,3.2357
1461.00,3.2714
1460.00,3.3150
1459.00,3.3645
1458.00,3.4186
1457.00,3.4870
1456.00,3.5795
1455.00,3.6790
1454.00,3.7691
1453.00,3.8660
1452.00,3.9892
1451.00,4.1178
1450.00,4.1849
1449.00,4.1721
1448.00,4.1015
1447.00,3.9977
1446.00,3.8763
1445.00,3.7438
1444.00,3.6075
1443.00,3.4810
1442.00,3.3818
1441.00,3.3199
1440.00,3.2940
1439.00,3.2928
1438.00,3.3058
1437.00,3.3306
1436.00,3.3719
1435.00,3.4269
1434.00,3.4866
1433.00,3.5464
1432.00,3.6037
1431.00,3.6513
1430.00,3.6871
1429.00,3.7189
1428.00,3.7540
1427.00,3.7901
1426.00,3.8152
1425.00,3.8245
1424.00,3.8235
1423.00,3.8187
1422.00,3.8150
1421.00,3.8085
1420.00,3.7811
1419.00,3.7180
1418.00,3.6289
1417.00,3.5319
1416.00,3.4369
1415.00,3.3508
1414.00,3.2805
1413.00,3.2294
1412.00,3.1948
1411.00,3.1724
1410.00,3.1599
1409.00,3.1563
1408.00,3.1589
1407.00,3.1657
1406.00,3.1748
1405.00,3.1888
1404.00,3.2124
1403.00,3.2429
1402.00,3.2703
1401.00,3.2872
1400.00,3.2992
1399.00,3.3204
1398.00,3.3552
1397.00,3.3881
1396.00,3.4022
1395.00,3.3994
1394.00,3.3922
1393.00,3.3896
1392.00,3.3934
1391.00,3.4045
1390.00,3.4235
1389.00,3.4438
1388.00,3.4547
1387.00,3.4588
1386.00,3.4710
1385.00,3.4944
1384.00,3.5110
1383.00,3.5039
1382.00,3.4849
1381.00,3.4792
1380.00,3.4959
1379.00,3.5239
1378.00,3.5468
1377.00,3.5596
1376.00,3.5679
1375.00,3.5749
1374.00,3.5765
1373.00,3.5712
1372.00,3.5645
1371.00,3.5645
1370.00,3.5725
1369.00,3.5834
1368.00,3.5915
1367.00,3.5923
1366.00,3.5825
1365.00,3.5563
1364.00,3.5112
1363.00,3.4607
1362.00,3.4252
1361.00,3.4124
1360.00,3.4114
1359.00,3.4067
1358.00,3.3935
1357.00,3.3770
1356.00,3.3631
1355.00,3.3542
1354.00,3.3532
1353.00,3.3658
1352.00,3.3978
1351.00,3.4529
1350.00,3.5300
1349.00,3.6215
1348.00,3.7100
1347.00,3.7719
1346.00,3.7914
1345.00,3.7773
1344.00,3.7566
1343.00,3.7521
1342.00,3.7725
1341.00,3.8132
1340.00,3.8569
1339.00,3.8722
1338.00,3.8318
1337.00,3.7541
1336.00,3.6716
1335.00,3.5989
1334.00,3.5391
1333.00,3.4848
1332.00,3.4274
1331.00,3.3680
1330.00,3.3143
1329.00,3.2697
1328.00,3.2323
1327.00,3.2028
1326.00,3.1874
1325.00,3.1931
1324.00,3.2206
1323.00,3.2640
1322.00,3.3169
1321.00,3.3757
1320.00,3.4397
1319.00,3.5094
1318.00,3.5881
1317.00,3.6845
1316.00,3.8067
1315.00,3.9547
1314.00,4.1392
1313.00,4.4166
1312.00,4.9161
1311.00,5.3637
1310.00,4.8710
1309.00,4.5024
1308.00,4.2571
1307.00,4.0511
1306.00,3.8661
1305.00,3.7165
1304.00,3.6044
1303.00,3.5160
1302.00,3.4354
1301.00,3.3559
1300.00,3.2765
1299.00,3.1962
1298.00,3.1168
1297.00,3.0446
1296.00,2.9877
1295.00,2.9506
1294.00,2.9318
1293.00,2.9267
1292.00,2.9308
1291.00,2.9422
1290.00,2.9612
1289.00,2.9894
1288.00,3.0276
1287.00,3.0748
1286.00,3.1257
1285.00,3.1730
1284.00,3.2119
1283.00,3.2440
1282.00,3.2752
1281.00,3.3091
1280.00,3.3438
1279.00,3.3744
1278.00,3.4017
1277.00,3.4343
1276.00,3.4792
1275.00,3.5325
1274.00,3.5801
1273.00,3.6139
1272.00,3.6426
1271.00,3.6774
1270.00,3.7139
1269.00,3.7375
1268.00,3.7390
1267.00,3.7251
1266.00,3.7119
1265.00,3.7070
1264.00,3.7118
1263.00,3.7319
1262.00,3.7666
1261.00,3.7968
1260.00,3.7990
1259.00,3.7736
1258.00,3.7472
1257.00,3.7497
1256.00,3.7881
1255.00,3.8349
1254.00,3.8503
1253.00,3.8342
1252.00,3.8266
1251.00,3.8547
1250.00,3.9135
1249.00,3.9823
1248.00,4.0186
1247.00,3.9839
1246.00,3.9083
1245.00,3.8315
1244.00,3.7820
1243.00,3.7735
1242.00,3.7958
1241.00,3.8244
1240.00,3.8433
1239.00,3.8562
1238.00,3.8761
1237.00,3.9021
1236.00,3.9176
1235.00,3.9123
1234.00,3.9017
1233.00,3.9208
1232.00,3.9796
1231.00,4.0408
1230.00,4.0664
1229.00,4.0609
1228.00,4.0313
1227.00,4.0006
1226.00,4.0072
1225.00,4.0740
1224.00,4.2096
1223.00,4.4311
1222.00,4.7813
1221.00,4.8425
1220.00,4.4977
1219.00,4.2263
1218.00,4.0504
1217.00,3.9685
1216.00,3.9539
1215.00,3.9709
1214.00,3.9889
1213.00,3.9893
1212.00,3.9605
1211.00,3.9080
1210.00,3.8517
1209.00,3.8158
1208.00,3.8217
1207.00,3.8668
1206.00,3.9147
1205.00,3.9238
1204.00,3.8938
1203.00,3.8518
1202.00,3.8165
1201.00,3.7998
1200.00,3.8082
1199.00,3.8328
1198.00,3.8396
1197.00,3.7994
1196.00,3.7260
1195.00,3.6510
1194.00,3.5952
1193.00,3.5643
1192.00,3.5580
1191.00,3.5739
1190.00,3.6023
1189.00,3.6233
1188.00,3.6210
1187.00,3.6003
1186.00,3.5767
1185.00,3.5542
1184.00,3.5231
1183.00,3.4808
1182.00,3.4405
1181.00,3.4103
1180.00,3.3859
1179.00,3.3665
1178.00,3.3560
1177.00,3.3545
1176.00,3.3637
1175.00,3.3847
1174.00,3.4026
1173.00,3.3967
1172.00,3.3696
1171.00,3.3402
1170.00,3.3208
1169.00,3.3143
1168.00,3.3201
1167.00,3.3362
1166.00,3.3546
1165.00,3.3633
1164.00,3.3605
1163.00,3.3593
1162.00,3.3674
1161.00,3.3776
1160.00,3.3830
1159.00,3.3930
1158.00,3.4210
1157.00,3.4633
1156.00,3.4981
1155.00,3.5122
1154.00,3.5217
1153.00,3.5472
1152.00,3.5841
1151.00,3.6122
1150.00,3.6326
1149.00,3.6601
1148.00,3.6944
1147.00,3.7315
1146.00,3.7861
1145.00,3.8843
1144.00,4.0184
1143.00,4.0879
1142.00,4.0490
1141.00,3.9458
1140.00,3.8585
1139.00,3.8549
1138.00,3.9370
1137.00,4.0477
1136.00,4.0798
1135.00,4.0152
1134.00,3.9612
1133.00,4.0067
1132.00,4.2147
1131.00,4.7205
1130.00,5.7862
1129.00,4.9024
1128.00,4.3886
1127.00,4.1635
1126.00,4.0985
1125.00,4.1289
1124.00,4.1851
1123.00,4.1883
1122.00,4.1135
1121.00,4.0368
1120.00,4.0072
1119.00,4.0700
1118.00,4.2710
1117.00,4.5197
1116.00,4.4639
1115.00,4.3419
1114.00,4.2130
1113.00,4.0879
1112.00,3.9811
1111.00,3.9012
1110.00,3.8558
1109.00,3.8458
1108.00,3.8635
1107.00,3.9012
1106.00,3.9553
1105.00,4.0168
1104.00,4.0719
1103.00,4.1094
1102.00,4.1050
1101.00,4.0322
1100.00,3.9391
1099.00,3.8749
1098.00,3.8431
1097.00,3.8688
1096.00,3.9876
1095.00,4.1951
1094.00,4.3735
1093.00,4.3596
1092.00,4.2207
1091.00,4.0665
1090.00,3.9361
1089.00,3.8671
1088.00,3.8909
1087.00,4.0210
1086.00,4.2122
1085.00,4.2766
1084.00,4.1612
1083.00,4.0915
1082.00,4.1693
1081.00,4.2572
1080.00,4.1854
1079.00,4.1940
1078.00,4.2772
1077.00,4.3243
1076.00,4.2073
1075.00,4.0341
1074.00,3.9446
1073.00,3.9157
1072.00,3.8994
1071.00,3.8730
1070.00,3.8461
1069.00,3.8441
1068.00,3.8718
1067.00,3.8996
1066.00,3.8878
1065.00,3.8444
1064.00,3.8124
1063.00,3.8153
1062.00,3.8482
1061.00,3.8839
1060.00,3.8806
1059.00,3.8252
1058.00,3.7632
1057.00,3.7334
1056.00,3.7353
1055.00,3.7482
1054.00,3.7641
1053.00,3.7992
1052.00,3.8752
1051.00,3.9787
1050.00,3.9943
1049.00,3.9032
1048.00,3.8506
1047.00,3.8547
1046.00,3.8557
1045.00,3.7894
1044.00,3.6747
1043.00,3.5666
1042.00,3.4823
1041.00,3.4156
1040.00,3.3646
1039.00,3.3318
1038.00,3.3140
1037.00,3.3055
1036.00,3.3056
1035.00,3.3156
1034.00,3.3347
1033.00,3.3603
1032.00,3.3889
1031.00,3.4189
1030.00,3.4519
1029.00,3.4915
1028.00,3.5435
1027.00,3.6117
1026.00,3.6789
1025.00,3.7103
1024.00,3.6975
1023.00,3.6782
1022.00,3.6937
1021.00,3.7557
1020.00,3.8431
1019.00,3.9179
1018.00,3.9428
1017.00,3.9032
1016.00,3.8571
1015.00,3.8554
1014.00,3.8888
1013.00,3.9060
1012.00,3.8730
1011.00,3.8239
1010.00,3.8095
1009.00,3.8497
1008.00,3.9310
1007.00,4.0168
1006.00,4.1087
1005.00,4.2727
1004.00,4.4647
1003.00,4.3824
1002.00,4.3109
1001.00,4.3055
1000.00,4.2429
999.00,4.1334
998.00,4.0410
997.00,3.9857
996.00,3.9783
995.00,4.0259
994.00,4.1432
993.00,4.3484
992.00,4.4947
991.00,4.4252
990.00,4.3665
989.00,4.3536
988.00,4.3819
987.00,4.4554
986.00,4.4739
985.00,4.3459
984.00,4.2869
983.00,4.3620
982.00,4.5638
981.00,4.8437
980.00,5.1057
979.00,4.6504
978.00,4.4123
977.00,4.3497
976.00,4.3343
975.00,4.2450
974.00,4.1390
973.00,4.1168
972.00,4.2224
971.00,4.4200
970.00,4.3665
969.00,4.2859
968.00,4.3995
967.00,4.3854
966.00,4.0677
965.00,3.8882
964.00,3.8167
963.00,3.8236
962.00,3.9057
961.00,4.0809
960.00,4.3029
959.00,4.2846
958.00,4.2833
957.00,4.5124
956.00,4.8243
955.00,4.5424
954.00,4.4422
953.00,4.4358
952.00,4.4992
951.00,4.5394
950.00,4.4847
949.00,4.4466
948.00,4.4370
947.00,4.5085
946.00,4.8823
945.00,4.9737
944.00,4.4630
943.00,4.3492
942.00,4.2857
941.00,4.2245
940.00,4.2225
939.00,4.3432
938.00,4.6770
937.00,4.9473
936.00,4.3708
935.00,4.1450
934.00,4.0575
933.00,4.0504
932.00,4.1007
931.00,4.1897
930.00,4.2994
929.00,4.4068
928.00,4.4836
927.00,4.5913
926.00,4.7255
925.00,4.5624
924.00,4.2612
923.00,4.0635
922.00,3.9952
921.00,4.0480
920.00,4.2184
919.00,4.5086
918.00,4.7896
917.00,4.7128
916.00,4.5803
915.00,4.5897
914.00,4.8629
913.00,5.4603
912.00,5.0887
911.00,4.6594
910.00,4.4071
909.00,4.2820
908.00,4.2278
907.00,4.1912
906.00,4.1237
905.00,4.0866
904.00,4.1294
903.00,4.2652
902.00,4.3968
901.00,4.2777
900.00,4.1784
899.00,4.1390
898.00,4.1038
897.00,4.1028
896.00,4.1361
895.00,4.1424
894.00,4.0795
893.00,3.9943
892.00,3.9959
891.00,4.1676
890.00,4.5123
889.00,4.2801
888.00,4.1524
887.00,4.1121
886.00,4.0613
885.00,4.0259
884.00,4.0389
883.00,4.0992
882.00,4.2153
881.00,4.4371
880.00,4.5404
879.00,4.3794
878.00,4.3533
877.00,4.2496
876.00,4.0552
875.00,3.9139
874.00,3.8087
873.00,3.7296
872.00,3.6890
871.00,3.6818
870.00,3.6837
869.00,3.6897
868.00,3.6891
867.00,3.6611
866.00,3.6368
865.00,3.6460
864.00,3.6865
863.00,3.7575
862.00,3.8611
861.00,3.9170
860.00,3.8881
859.00,3.8914
858.00,3.9555
857.00,4.0552
856.00,4.1549
855.00,4.2488
854.00,4.3683
853.00,4.5303
852.00,4.6159
851.00,4.3148
850.00,4.0950
849.00,4.0122
848.00,4.0043
847.00,3.9837
846.00,3.9064
845.00,3.8269
844.00,3.8064
843.00,3.8711
842.00,4.0127
841.00,4.1620
840.00,4.1763
839.00,4.0998
838.00,4.0587
837.00,4.0403
836.00,4.0035
835.00,3.9539
834.00,3.9291
833.00,3.9455
832.00,3.9773
831.00,3.9660
830.00,3.8996
829.00,3.8409
828.00,3.8288
827.00,3.8564
826.00,3.9073
825.00,4.0144
824.00,4.2714
823.00,4.2687
822.00,3.9491
821.00,3.8652
820.00,3.9744
819.00,4.3387
818.00,4.3681
817.00,4.0702
816.00,3.9847
815.00,3.9568
814.00,3.9151
813.00,3.8498
812.00,3.7887
811.00,3.7683
810.00,3.8217
809.00,3.9805
808.00,4.2595
807.00,4.4842
806.00,4.5874
805.00,5.0203
804.00,4.3694
803.00,4.1323
802.00,4.1208
801.00,4.1986
800.00,4.1981
799.00,4.2323
798.00,4.3876
797.00,4.4947
796.00,4.3811
795.00,4.1611
794.00,4.0147
793.00,3.9689
792.00,3.9353
791.00,3.8631
790.00,3.8433
789.00,3.9037
788.00,3.9682
787.00,3.9724
786.00,3.9544
785.00,3.9326
784.00,3.9130
783.00,3.9086
782.00,3.9241
781.00,3.9475
780.00,3.9604
779.00,3.9612
778.00,3.9622
777.00,3.9696
776.00,3.9906
775.00,4.0554
774.00,4.2191
773.00,4.4725
772.00,4.3421
771.00,4.2105
770.00,4.2882
769.00,4.2976
768.00,3.9986
767.00,3.8638
766.00,3.8839
765.00,4.0164
764.00,4.1556
763.00,4.2627
762.00,4.5630
761.00,4.6706
760.00,4.2328
759.00,4.0735
758.00,4.0488
757.00,4.0764
756.00,4.0435
755.00,3.9997
754.00,4.0227
753.00,4.1187
752.00,4.2519
751.00,4.2511
750.00,4.0569
749.00,3.9153
748.00,3.8925
747.00,3.9868
746.00,4.2018
745.00,4.4727
744.00,4.6375
743.00,4.7033
742.00,4.3617
741.00,4.2747
740.00,4.1725
739.00,4.0632
738.00,4.1156
737.00,4.3135
736.00,4.1798
735.00,3.9753
734.00,3.8819
733.00,3.8763
732.00,3.9836
731.00,4.3567
730.00,4.5547
729.00,4.0246
728.00,3.8985
727.00,3.8795
726.00,3.8899
725.00,3.8772
724.00,3.8702
723.00,3.9802
722.00,4.3550
721.00,4.2840
720.00,4.1385
719.00,4.2578
718.00,4.5224
717.00,4.7631
716.00,5.1007
715.00,4.9721
714.00,4.4919
713.00,4.3355
712.00,4.2998
711.00,4.3298
710.00,4.2439
709.00,4.1780
708.00,4.2141
707.00,4.3450
706.00,4.7933
705.00,4.6392
704.00,4.1498
703.00,4.0130
702.00,4.0739
701.00,4.3551
700.00,4.9280
