Created as New Dataset,Sample 063 By Administrator Date Wednesday, November 24 2021
cm-1,A
7502.00,0.8932
7501.00,0.8846
7500.00,0.8763
7499.00,0.8680
7498.00,0.8595
7497.00,0.8510
7496.00,0.8429
7495.00,0.8354
7494.00,0.8285
7493.00,0.8224
7492.00,0.8170
7491.00,0.8124
7490.00,0.8085
7489.00,0.8050
7488.00,0.8018
7487.00,0.7988
7486.00,0.7958
7485.00,0.7931
7484.00,0.7907
7483.00,0.7888
7482.00,0.7876
7481.00,0.7874
7480.00,0.7882
7479.00,0.7898
7478.00,0.7919
7477.00,0.7943
7476.00,0.7972
7475.00,0.8006
7474.00,0.8044
7473.00,0.8084
7472.00,0.8125
7471.00,0.8172
7470.00,0.8228
7469.00,0.8291
7468.00,0.8359
7467.00,0.8430
7466.00,0.8501
7465.00,0.8571
7464.00,0.8641
7463.00,0.8712
7462.00,0.8784
7461.00,0.8856
7460.00,0.8929
7459.00,0.9006
7458.00,0.9088
7457.00,0.9173
7456.00,0.9258
7455.00,0.9339
7454.00,0.9418
7453.00,0.9496
7452.00,0.9576
7451.00,0.9656
7450.00,0.9736
7449.00,0.9818
7448.00,0.9901
7447.00,0.9984
7446.00,1.0062
7445.00,1.0133
7444.00,1.0205
7443.00,1.0279
7442.00,1.0355
7441.00,1.0424
7440.00,1.0483
7439.00,1.0536
7438.00,1.0586
7437.00,1.0635
7436.00,1.0678
7435.00,1.0713
7434.00,1.0740
7433.00,1.0765
7432.00,1.0796
7431.00,1.0836
7430.00,1.0883
7429.00,1.0929
7428.00,1.0970
7427.00,1.1010
7426.00,1.1050
7425.00,1.1087
7424.00,1.1108
7423.00,1.1111
7422.00,1.1101
7421.00,1.1091
7420.00,1.1082
7419.00,1.1065
7418.00,1.1035
7417.00,1.0998
7416.00,1.0960
7415.00,1.0921
7414.00,1.0877
7413.00,1.0823
7412.00,1.0765
7411.00,1.0711
7410.00,1.0663
7409.00,1.0620
7408.00,1.0580
7407.00,1.0545
7406.00,1.0515
7405.00,1.0484
7404.00,1.0450
7403.00,1.0415
7402.00,1.0380
7401.00,1.0346
7400.00,1.0307
7399.00,1.0258
7398.00,1.0206
7397.00,1.0157
7396.00,1.0114
7395.00,1.0072
7394.00,1.0027
7393.00,0.9980
7392.00,0.9934
7391.00,0.9889
7390.00,0.9842
7389.00,0.9792
7388.00,0.9741
7387.00,0.9693
7386.00,0.9649
7385.00,0.9607
7384.00,0.9565
7383.00,0.9519
7382.00,0.9469
7381.00,0.9419
7380.00,0.9366
7379.00,0.9308
7378.00,0.9238
7377.00,0.9158
7376.00,0.9072
7375.00,0.8985
7374.00,0.8896
7373.00,0.8804
7372.00,0.8709
7371.00,0.8617
7370.00,0.8532
7369.00,0.8454
7368.00,0.8381
7367.00,0.8308
7366.00,0.8237
7365.00,0.8167
7364.00,0.8102
7363.00,0.8041
7362.00,0.7987
7361.00,0.7940
7360.00,0.7899
7359.00,0.7862
7358.00,0.7827
7357.00,0.7796
7356.00,0.7771
7355.00,0.7753
7354.00,0.7742
7353.00,0.7735
7352.00,0.7733
7351.00,0.7739
7350.00,0.7753
7349.00,0.7773
7348.00,0.7794
7347.00,0.7813
7346.00,0.7834
7345.00,0.7860
7344.00,0.7896
7343.00,0.7940
7342.00,0.7989
7341.00,0.8043
7340.00,0.8103
7339.00,0.8167
7338.00,0.8233
7337.00,0.8297
7336.00,0.8360
7335.00,0.8423
7334.00,0.8490
7333.00,0.8563
7332.00,0.8642
7331.00,0.8726
7330.00,0.8813
7329.00,0.8904
7328.00,0.8996
7327.00,0.9089
7326.00,0.9180
7325.00,0.9269
7324.00,0.9355
7323.00,0.9444
7322.00,0.9537
7321.00,0.9633
7320.00,0.9729
7319.00,0.9824
7318.00,0.9916
7317.00,1.0006
7316.00,1.0096
7315.00,1.0183
7314.00,1.0268
7313.00,1.0353
7312.00,1.0439
7311.00,1.0525
7310.00,1.0608
7309.00,1.0687
7308.00,1.0763
7307.00,1.0841
7306.00,1.0921
7305.00,1.0999
7304.00,1.1074
7303.00,1.1146
7302.00,1.1215
7301.00,1.1279
7300.00,1.1337
7299.00,1.1385
7298.00,1.1429
7297.00,1.1473
7296.00,1.1520
7295.00,1.1566
7294.00,1.1608
7293.00,1.1646
7292.00,1.1682
7291.00,1.1716
7290.00,1.1745
7289.00,1.1766
7288.00,1.1779
7287.00,1.1789
7286.00,1.1797
7285.00,1.1804
7284.00,1.1807
7283.00,1.1806
7282.00,1.1805
7281.00,1.1806
7280.00,1.1805
7279.00,1.1798
7278.00,1.1782
7277.00,1.1758
7276.00,1.1732
7275.00,1.1708
7274.00,1.1687
7273.00,1.1667
7272.00,1.1643
7271.00,1.1611
7270.00,1.1569
7269.00,1.1514
7268.00,1.1450
7267.00,1.1380
7266.00,1.1311
7265.00,1.1244
7264.00,1.1181
7263.00,1.1117
7262.00,1.1049
7261.00,1.0975
7260.00,1.0897
7259.00,1.0814
7258.00,1.0727
7257.00,1.0636
7256.00,1.0541
7255.00,1.0444
7254.00,1.0349
7253.00,1.0254
7252.00,1.0157
7251.00,1.0056
7250.00,0.9950
7249.00,0.9844
7248.00,0.9741
7247.00,0.9643
7246.00,0.9545
7245.00,0.9445
7244.00,0.9342
7243.00,0.9240
7242.00,0.9141
7241.00,0.9045
7240.00,0.8951
7239.00,0.8855
7238.00,0.8760
7237.00,0.8669
7236.00,0.8586
7235.00,0.8509
7234.00,0.8434
7233.00,0.8358
7232.00,0.8284
7231.00,0.8216
7230.00,0.8155
7229.00,0.8099
7228.00,0.8045
7227.00,0.7996
7226.00,0.7954
7225.00,0.7920
7224.00,0.7892
7223.00,0.7869
7222.00,0.7852
7221.00,0.7842
7220.00,0.7839
7219.00,0.7843
7218.00,0.7854
7217.00,0.7870
7216.00,0.7888
7215.00,0.7910
7214.00,0.7937
7213.00,0.7973
7212.00,0.8016
7211.00,0.8064
7210.00,0.8114
7209.00,0.8170
7208.00,0.8233
7207.00,0.8301
7206.00,0.8370
7205.00,0.8437
7204.00,0.8505
7203.00,0.8575
7202.00,0.8652
7201.00,0.8733
7200.00,0.8814
7199.00,0.8893
7198.00,0.8972
7197.00,0.9054
7196.00,0.9143
7195.00,0.9234
7194.00,0.9325
7193.00,0.9413
7192.00,0.9498
7191.00,0.9585
7190.00,0.9673
7189.00,0.9761
7188.00,0.9844
7187.00,0.9921
7186.00,0.9998
7185.00,1.0081
7184.00,1.0170
7183.00,1.0262
7182.00,1.0347
7181.00,1.0427
7180.00,1.0504
7179.00,1.0585
7178.00,1.0667
7177.00,1.0746
7176.00,1.0819
7175.00,1.0889
7174.00,1.0960
7173.00,1.1031
7172.00,1.1095
7171.00,1.1146
7170.00,1.1186
7169.00,1.1224
7168.00,1.1266
7167.00,1.1307
7166.00,1.1344
7165.00,1.1379
7164.00,1.1418
7163.00,1.1463
7162.00,1.1504
7161.00,1.1538
7160.00,1.1566
7159.00,1.1591
7158.00,1.1613
7157.00,1.1626
7156.00,1.1630
7155.00,1.1628
7154.00,1.1627
7153.00,1.1631
7152.00,1.1634
7151.00,1.1633
7150.00,1.1627
7149.00,1.1618
7148.00,1.1607
7147.00,1.1592
7146.00,1.1573
7145.00,1.1550
7144.00,1.1527
7143.00,1.1502
7142.00,1.1474
7141.00,1.1445
7140.00,1.1411
7139.00,1.1371
7138.00,1.1320
7137.00,1.1261
7136.00,1.1200
7135.00,1.1143
7134.00,1.1088
7133.00,1.1029
7132.00,1.0962
7131.00,1.0890
7130.00,1.0815
7129.00,1.0739
7128.00,1.0659
7127.00,1.0574
7126.00,1.0485
7125.00,1.0396
7124.00,1.0309
7123.00,1.0223
7122.00,1.0134
7121.00,1.0040
7120.00,0.9943
7119.00,0.9843
7118.00,0.9742
7117.00,0.9642
7116.00,0.9543
7115.00,0.9445
7114.00,0.9345
7113.00,0.9245
7112.00,0.9148
7111.00,0.9056
7110.00,0.8967
7109.00,0.8878
7108.00,0.8788
7107.00,0.8698
7106.00,0.8612
7105.00,0.8529
7104.00,0.8448
7103.00,0.8368
7102.00,0.8292
7101.00,0.8222
7100.00,0.8160
7099.00,0.8102
7098.00,0.8047
7097.00,0.7996
7096.00,0.7950
7095.00,0.7908
7094.00,0.7873
7093.00,0.7845
7092.00,0.7823
7091.00,0.7807
7090.00,0.7797
7089.00,0.7795
7088.00,0.7801
7087.00,0.7815
7086.00,0.7832
7085.00,0.7853
7084.00,0.7879
7083.00,0.7911
7082.00,0.7947
7081.00,0.7988
7080.00,0.8034
7079.00,0.8086
7078.00,0.8144
7077.00,0.8206
7076.00,0.8271
7075.00,0.8339
7074.00,0.8410
7073.00,0.8485
7072.00,0.8563
7071.00,0.8645
7070.00,0.8729
7069.00,0.8816
7068.00,0.8903
7067.00,0.8989
7066.00,0.9074
7065.00,0.9160
7064.00,0.9248
7063.00,0.9341
7062.00,0.9437
7061.00,0.9536
7060.00,0.9635
7059.00,0.9734
7058.00,0.9830
7057.00,0.9921
7056.00,1.0008
7055.00,1.0093
7054.00,1.0181
7053.00,1.0271
7052.00,1.0363
7051.00,1.0455
7050.00,1.0549
7049.00,1.0642
7048.00,1.0730
7047.00,1.0810
7046.00,1.0887
7045.00,1.0964
7044.00,1.1041
7043.00,1.1115
7042.00,1.1186
7041.00,1.1258
7040.00,1.1329
7039.00,1.1394
7038.00,1.1451
7037.00,1.1504
7036.00,1.1558
7035.00,1.1614
7034.00,1.1669
7033.00,1.1721
7032.00,1.1768
7031.00,1.1807
7030.00,1.1838
7029.00,1.1863
7028.00,1.1889
7027.00,1.1918
7026.00,1.1948
7025.00,1.1975
7024.00,1.1998
7023.00,1.2017
7022.00,1.2030
7021.00,1.2033
7020.00,1.2026
7019.00,1.2008
7018.00,1.1985
7017.00,1.1967
7016.00,1.1957
7015.00,1.1950
7014.00,1.1935
7013.00,1.1908
7012.00,1.1872
7011.00,1.1836
7010.00,1.1800
7009.00,1.1760
7008.00,1.1713
7007.00,1.1660
7006.00,1.1602
7005.00,1.1545
7004.00,1.1490
7003.00,1.1432
7002.00,1.1365
7001.00,1.1288
7000.00,1.1207
6999.00,1.1127
6998.00,1.1047
6997.00,1.0961
6996.00,1.0868
6995.00,1.0772
6994.00,1.0680
6993.00,1.0592
6992.00,1.0503
6991.00,1.0409
6990.00,1.0311
6989.00,1.0207
6988.00,1.0098
6987.00,0.9985
6986.00,0.9870
6985.00,0.9752
6984.00,0.9637
6983.00,0.9526
6982.00,0.9421
6981.00,0.9319
6980.00,0.9217
6979.00,0.9116
6978.00,0.9017
6977.00,0.8920
6976.00,0.8825
6975.00,0.8731
6974.00,0.8638
6973.00,0.8551
6972.00,0.8468
6971.00,0.8389
6970.00,0.8314
6969.00,0.8243
6968.00,0.8177
6967.00,0.8116
6966.00,0.8060
6965.00,0.8010
6964.00,0.7964
6963.00,0.7925
6962.00,0.7894
6961.00,0.7868
6960.00,0.7848
6959.00,0.7833
6958.00,0.7825
6957.00,0.7825
6956.00,0.7832
6955.00,0.7845
6954.00,0.7864
6953.00,0.7892
6952.00,0.7926
6951.00,0.7965
6950.00,0.8007
6949.00,0.8052
6948.00,0.8101
6947.00,0.8153
6946.00,0.8210
6945.00,0.8272
6944.00,0.8340
6943.00,0.8413
6942.00,0.8492
6941.00,0.8576
6940.00,0.8660
6939.00,0.8744
6938.00,0.8829
6937.00,0.8918
6936.00,0.9009
6935.00,0.9101
6934.00,0.9192
6933.00,0.9282
6932.00,0.9373
6931.00,0.9464
6930.00,0.9559
6929.00,0.9655
6928.00,0.9753
6927.00,0.9849
6926.00,0.9943
6925.00,1.0036
6924.00,1.0128
6923.00,1.0217
6922.00,1.0305
6921.00,1.0393
6920.00,1.0482
6919.00,1.0570
6918.00,1.0655
6917.00,1.0738
6916.00,1.0818
6915.00,1.0893
6914.00,1.0965
6913.00,1.1037
6912.00,1.1113
6911.00,1.1190
6910.00,1.1262
6909.00,1.1328
6908.00,1.1390
6907.00,1.1451
6906.00,1.1509
6905.00,1.1562
6904.00,1.1609
6903.00,1.1649
6902.00,1.1683
6901.00,1.1714
6900.00,1.1746
6899.00,1.1776
6898.00,1.1803
6897.00,1.1829
6896.00,1.1859
6895.00,1.1888
6894.00,1.1912
6893.00,1.1930
6892.00,1.1943
6891.00,1.1954
6890.00,1.1961
6889.00,1.1959
6888.00,1.1949
6887.00,1.1934
6886.00,1.1916
6885.00,1.1896
6884.00,1.1873
6883.00,1.1848
6882.00,1.1821
6881.00,1.1789
6880.00,1.1750
6879.00,1.1710
6878.00,1.1669
6877.00,1.1627
6876.00,1.1577
6875.00,1.1522
6874.00,1.1463
6873.00,1.1403
6872.00,1.1337
6871.00,1.1263
6870.00,1.1185
6869.00,1.1106
6868.00,1.1030
6867.00,1.0952
6866.00,1.0872
6865.00,1.0786
6864.00,1.0694
6863.00,1.0597
6862.00,1.0497
6861.00,1.0397
6860.00,1.0297
6859.00,1.0196
6858.00,1.0093
6857.00,0.9992
6856.00,0.9891
6855.00,0.9788
6854.00,0.9682
6853.00,0.9573
6852.00,0.9464
6851.00,0.9356
6850.00,0.9249
6849.00,0.9142
6848.00,0.9037
6847.00,0.8934
6846.00,0.8836
6845.00,0.8742
6844.00,0.8650
6843.00,0.8559
6842.00,0.8472
6841.00,0.8389
6840.00,0.8309
6839.00,0.8234
6838.00,0.8162
6837.00,0.8097
6836.00,0.8038
6835.00,0.7985
6834.00,0.7938
6833.00,0.7894
6832.00,0.7855
6831.00,0.7821
6830.00,0.7794
6829.00,0.7774
6828.00,0.7761
6827.00,0.7754
6826.00,0.7753
6825.00,0.7760
6824.00,0.7774
6823.00,0.7796
6822.00,0.7823
6821.00,0.7855
6820.00,0.7894
6819.00,0.7939
6818.00,0.7988
6817.00,0.8041
6816.00,0.8097
6815.00,0.8158
6814.00,0.8224
6813.00,0.8297
6812.00,0.8374
6811.00,0.8454
6810.00,0.8536
6809.00,0.8619
6808.00,0.8705
6807.00,0.8796
6806.00,0.8889
6805.00,0.8984
6804.00,0.9080
6803.00,0.9178
6802.00,0.9275
6801.00,0.9372
6800.00,0.9468
6799.00,0.9565
6798.00,0.9663
6797.00,0.9761
6796.00,0.9860
6795.00,0.9959
6794.00,1.0057
6793.00,1.0154
6792.00,1.0248
6791.00,1.0340
6790.00,1.0434
6789.00,1.0529
6788.00,1.0623
6787.00,1.0713
6786.00,1.0800
6785.00,1.0887
6784.00,1.0974
6783.00,1.1060
6782.00,1.1142
6781.00,1.1220
6780.00,1.1294
6779.00,1.1367
6778.00,1.1439
6777.00,1.1512
6776.00,1.1581
6775.00,1.1643
6774.00,1.1697
6773.00,1.1746
6772.00,1.1795
6771.00,1.1841
6770.00,1.1884
6769.00,1.1924
6768.00,1.1966
6767.00,1.2010
6766.00,1.2050
6765.00,1.2082
6764.00,1.2103
6763.00,1.2117
6762.00,1.2129
6761.00,1.2142
6760.00,1.2153
6759.00,1.2158
6758.00,1.2154
6757.00,1.2145
6756.00,1.2134
6755.00,1.2122
6754.00,1.2106
6753.00,1.2084
6752.00,1.2062
6751.00,1.2044
6750.00,1.2023
6749.00,1.1994
6748.00,1.1955
6747.00,1.1910
6746.00,1.1863
6745.00,1.1811
6744.00,1.1752
6743.00,1.1689
6742.00,1.1622
6741.00,1.1552
6740.00,1.1479
6739.00,1.1405
6738.00,1.1332
6737.00,1.1256
6736.00,1.1176
6735.00,1.1092
6734.00,1.1004
6733.00,1.0912
6732.00,1.0816
6731.00,1.0715
6730.00,1.0611
6729.00,1.0506
6728.00,1.0399
6727.00,1.0291
6726.00,1.0179
6725.00,1.0066
6724.00,0.9954
6723.00,0.9843
6722.00,0.9734
6721.00,0.9622
6720.00,0.9507
6719.00,0.9391
6718.00,0.9277
6717.00,0.9166
6716.00,0.9058
6715.00,0.8951
6714.00,0.8848
6713.00,0.8750
6712.00,0.8656
6711.00,0.8565
6710.00,0.8476
6709.00,0.8390
6708.00,0.8309
6707.00,0.8233
6706.00,0.8161
6705.00,0.8094
6704.00,0.8032
6703.00,0.7976
6702.00,0.7928
6701.00,0.7885
6700.00,0.7850
6699.00,0.7820
6698.00,0.7799
6697.00,0.7784
6696.00,0.7774
6695.00,0.7771
6694.00,0.7774
6693.00,0.7785
6692.00,0.7802
6691.00,0.7825
6690.00,0.7854
6689.00,0.7891
6688.00,0.7934
6687.00,0.7982
6686.00,0.8036
6685.00,0.8096
6684.00,0.8160
6683.00,0.8227
6682.00,0.8298
6681.00,0.8373
6680.00,0.8454
6679.00,0.8540
6678.00,0.8630
6677.00,0.8723
6676.00,0.8817
6675.00,0.8912
6674.00,0.9007
6673.00,0.9103
6672.00,0.9198
6671.00,0.9293
6670.00,0.9388
6669.00,0.9488
6668.00,0.9589
6667.00,0.9689
6666.00,0.9786
6665.00,0.9882
6664.00,0.9980
6663.00,1.0079
6662.00,1.0178
6661.00,1.0276
6660.00,1.0375
6659.00,1.0474
6658.00,1.0570
6657.00,1.0662
6656.00,1.0748
6655.00,1.0831
6654.00,1.0915
6653.00,1.0999
6652.00,1.1083
6651.00,1.1164
6650.00,1.1240
6649.00,1.1311
6648.00,1.1375
6647.00,1.1437
6646.00,1.1497
6645.00,1.1557
6644.00,1.1616
6643.00,1.1673
6642.00,1.1725
6641.00,1.1774
6640.00,1.1818
6639.00,1.1857
6638.00,1.1891
6637.00,1.1921
6636.00,1.1950
6635.00,1.1979
6634.00,1.2005
6633.00,1.2024
6632.00,1.2038
6631.00,1.2048
6630.00,1.2060
6629.00,1.2069
6628.00,1.2073
6627.00,1.2068
6626.00,1.2055
6625.00,1.2037
6624.00,1.2017
6623.00,1.1997
6622.00,1.1978
6621.00,1.1960
6620.00,1.1940
6619.00,1.1914
6618.00,1.1883
6617.00,1.1845
6616.00,1.1797
6615.00,1.1738
6614.00,1.1675
6613.00,1.1613
6612.00,1.1554
6611.00,1.1496
6610.00,1.1434
6609.00,1.1368
6608.00,1.1297
6607.00,1.1224
6606.00,1.1146
6605.00,1.1063
6604.00,1.0975
6603.00,1.0885
6602.00,1.0792
6601.00,1.0697
6600.00,1.0597
6599.00,1.0495
6598.00,1.0392
6597.00,1.0288
6596.00,1.0183
6595.00,1.0076
6594.00,0.9969
6593.00,0.9863
6592.00,0.9757
6591.00,0.9649
6590.00,0.9540
6589.00,0.9429
6588.00,0.9316
6587.00,0.9203
6586.00,0.9090
6585.00,0.8982
6584.00,0.8877
6583.00,0.8777
6582.00,0.8679
6581.00,0.8584
6580.00,0.8490
6579.00,0.8399
6578.00,0.8311
6577.00,0.8228
6576.00,0.8152
6575.00,0.8083
6574.00,0.8020
6573.00,0.7962
6572.00,0.7906
6571.00,0.7855
6570.00,0.7810
6569.00,0.7773
6568.00,0.7744
6567.00,0.7723
6566.00,0.7710
6565.00,0.7705
6564.00,0.7705
6563.00,0.7710
6562.00,0.7720
6561.00,0.7736
6560.00,0.7760
6559.00,0.7791
6558.00,0.7830
6557.00,0.7876
6556.00,0.7930
6555.00,0.7990
6554.00,0.8055
6553.00,0.8123
6552.00,0.8194
6551.00,0.8269
6550.00,0.8346
6549.00,0.8425
6548.00,0.8510
6547.00,0.8600
6546.00,0.8695
6545.00,0.8791
6544.00,0.8889
6543.00,0.8989
6542.00,0.9091
6541.00,0.9193
6540.00,0.9295
6539.00,0.9398
6538.00,0.9504
6537.00,0.9613
6536.00,0.9720
6535.00,0.9825
6534.00,0.9928
6533.00,1.0033
6532.00,1.0137
6531.00,1.0242
6530.00,1.0346
6529.00,1.0448
6528.00,1.0551
6527.00,1.0653
6526.00,1.0755
6525.00,1.0854
6524.00,1.0948
6523.00,1.1041
6522.00,1.1133
6521.00,1.1222
6520.00,1.1306
6519.00,1.1385
6518.00,1.1463
6517.00,1.1541
6516.00,1.1615
6515.00,1.1684
6514.00,1.1749
6513.00,1.1810
6512.00,1.1868
6511.00,1.1922
6510.00,1.1978
6509.00,1.2034
6508.00,1.2088
6507.00,1.2138
6506.00,1.2184
6505.00,1.2226
6504.00,1.2260
6503.00,1.2287
6502.00,1.2310
6501.00,1.2335
6500.00,1.2359
6499.00,1.2377
6498.00,1.2386
6497.00,1.2387
6496.00,1.2386
6495.00,1.2384
6494.00,1.2378
6493.00,1.2368
6492.00,1.2355
6491.00,1.2340
6490.00,1.2320
6489.00,1.2291
6488.00,1.2254
6487.00,1.2211
6486.00,1.2169
6485.00,1.2128
6484.00,1.2086
6483.00,1.2040
6482.00,1.1990
6481.00,1.1934
6480.00,1.1873
6479.00,1.1806
6478.00,1.1733
6477.00,1.1656
6476.00,1.1576
6475.00,1.1493
6474.00,1.1407
6473.00,1.1316
6472.00,1.1220
6471.00,1.1120
6470.00,1.1016
6469.00,1.0909
6468.00,1.0799
6467.00,1.0685
6466.00,1.0570
6465.00,1.0454
6464.00,1.0339
6463.00,1.0224
6462.00,1.0108
6461.00,0.9991
6460.00,0.9873
6459.00,0.9752
6458.00,0.9631
6457.00,0.9511
6456.00,0.9391
6455.00,0.9273
6454.00,0.9157
6453.00,0.9042
6452.00,0.8929
6451.00,0.8818
6450.00,0.8711
6449.00,0.8609
6448.00,0.8511
6447.00,0.8418
6446.00,0.8329
6445.00,0.8247
6444.00,0.8169
6443.00,0.8096
6442.00,0.8028
6441.00,0.7966
6440.00,0.7912
6439.00,0.7865
6438.00,0.7825
6437.00,0.7792
6436.00,0.7766
6435.00,0.7746
6434.00,0.7734
6433.00,0.7731
6432.00,0.7735
6431.00,0.7744
6430.00,0.7761
6429.00,0.7787
6428.00,0.7821
6427.00,0.7861
6426.00,0.7906
6425.00,0.7955
6424.00,0.8011
6423.00,0.8072
6422.00,0.8140
6421.00,0.8212
6420.00,0.8289
6419.00,0.8371
6418.00,0.8457
6417.00,0.8547
6416.00,0.8640
6415.00,0.8735
6414.00,0.8831
6413.00,0.8930
6412.00,0.9030
6411.00,0.9132
6410.00,0.9236
6409.00,0.9339
6408.00,0.9444
6407.00,0.9549
6406.00,0.9653
6405.00,0.9756
6404.00,0.9859
6403.00,0.9962
6402.00,1.0068
6401.00,1.0174
6400.00,1.0279
6399.00,1.0384
6398.00,1.0488
6397.00,1.0591
6396.00,1.0690
6395.00,1.0784
6394.00,1.0875
6393.00,1.0965
6392.00,1.1054
6391.00,1.1141
6390.00,1.1226
6389.00,1.1309
6388.00,1.1387
6387.00,1.1461
6386.00,1.1531
6385.00,1.1600
6384.00,1.1666
6383.00,1.1728
6382.00,1.1787
6381.00,1.1844
6380.00,1.1899
6379.00,1.1950
6378.00,1.1997
6377.00,1.2039
6376.00,1.2080
6375.00,1.2122
6374.00,1.2163
6373.00,1.2198
6372.00,1.2224
6371.00,1.2245
6370.00,1.2263
6369.00,1.2278
6368.00,1.2289
6367.00,1.2297
6366.00,1.2302
6365.00,1.2303
6364.00,1.2297
6363.00,1.2284
6362.00,1.2266
6361.00,1.2247
6360.00,1.2225
6359.00,1.2201
6358.00,1.2174
6357.00,1.2145
6356.00,1.2113
6355.00,1.2076
6354.00,1.2032
6353.00,1.1982
6352.00,1.1927
6351.00,1.1868
6350.00,1.1806
6349.00,1.1741
6348.00,1.1673
6347.00,1.1599
6346.00,1.1522
6345.00,1.1442
6344.00,1.1358
6343.00,1.1269
6342.00,1.1179
6341.00,1.1090
6340.00,1.1001
6339.00,1.0910
6338.00,1.0815
6337.00,1.0713
6336.00,1.0607
6335.00,1.0496
6334.00,1.0382
6333.00,1.0266
6332.00,1.0147
6331.00,1.0030
6330.00,0.9914
6329.00,0.9801
6328.00,0.9685
6327.00,0.9569
6326.00,0.9452
6325.00,0.9335
6324.00,0.9217
6323.00,0.9100
6322.00,0.8986
6321.00,0.8874
6320.00,0.8766
6319.00,0.8660
6318.00,0.8558
6317.00,0.8460
6316.00,0.8365
6315.00,0.8274
6314.00,0.8188
6313.00,0.8108
6312.00,0.8035
6311.00,0.7967
6310.00,0.7905
6309.00,0.7850
6308.00,0.7803
6307.00,0.7762
6306.00,0.7729
6305.00,0.7703
6304.00,0.7686
6303.00,0.7676
6302.00,0.7673
6301.00,0.7677
6300.00,0.7687
6299.00,0.7704
6298.00,0.7727
6297.00,0.7760
6296.00,0.7801
6295.00,0.7850
6294.00,0.7907
6293.00,0.7971
6292.00,0.8039
6291.00,0.8112
6290.00,0.8189
6289.00,0.8270
6288.00,0.8355
6287.00,0.8444
6286.00,0.8537
6285.00,0.8634
6284.00,0.8734
6283.00,0.8834
6282.00,0.8935
6281.00,0.9038
6280.00,0.9144
6279.00,0.9252
6278.00,0.9362
6277.00,0.9474
6276.00,0.9587
6275.00,0.9700
6274.00,0.9813
6273.00,0.9925
6272.00,1.0035
6271.00,1.0144
6270.00,1.0254
6269.00,1.0362
6268.00,1.0467
6267.00,1.0569
6266.00,1.0671
6265.00,1.0776
6264.00,1.0881
6263.00,1.0984
6262.00,1.1086
6261.00,1.1185
6260.00,1.1281
6259.00,1.1372
6258.00,1.1459
6257.00,1.1545
6256.00,1.1631
6255.00,1.1716
6254.00,1.1797
6253.00,1.1872
6252.00,1.1942
6251.00,1.2006
6250.00,1.2067
6249.00,1.2127
6248.00,1.2187
6247.00,1.2245
6246.00,1.2300
6245.00,1.2350
6244.00,1.2394
6243.00,1.2432
6242.00,1.2466
6241.00,1.2495
6240.00,1.2522
6239.00,1.2546
6238.00,1.2569
6237.00,1.2590
6236.00,1.2609
6235.00,1.2622
6234.00,1.2629
6233.00,1.2628
6232.00,1.2621
6231.00,1.2607
6230.00,1.2590
6229.00,1.2569
6228.00,1.2545
6227.00,1.2516
6226.00,1.2483
6225.00,1.2446
6224.00,1.2408
6223.00,1.2367
6222.00,1.2321
6221.00,1.2269
6220.00,1.2211
6219.00,1.2148
6218.00,1.2079
6217.00,1.2005
6216.00,1.1927
6215.00,1.1848
6214.00,1.1766
6213.00,1.1680
6212.00,1.1589
6211.00,1.1493
6210.00,1.1395
6209.00,1.1296
6208.00,1.1195
6207.00,1.1088
6206.00,1.0977
6205.00,1.0860
6204.00,1.0741
6203.00,1.0618
6202.00,1.0493
6201.00,1.0366
6200.00,1.0240
6199.00,1.0113
6198.00,0.9986
6197.00,0.9860
6196.00,0.9734
6195.00,0.9609
6194.00,0.9485
6193.00,0.9360
6192.00,0.9234
6191.00,0.9106
6190.00,0.8981
6189.00,0.8861
6188.00,0.8744
6187.00,0.8631
6186.00,0.8525
6185.00,0.8424
6184.00,0.8329
6183.00,0.8238
6182.00,0.8152
6181.00,0.8072
6180.00,0.7999
6179.00,0.7934
6178.00,0.7876
6177.00,0.7825
6176.00,0.7782
6175.00,0.7746
6174.00,0.7717
6173.00,0.7695
6172.00,0.7681
6171.00,0.7674
6170.00,0.7676
6169.00,0.7687
6168.00,0.7705
6167.00,0.7731
6166.00,0.7763
6165.00,0.7803
6164.00,0.7851
6163.00,0.7906
6162.00,0.7968
6161.00,0.8037
6160.00,0.8110
6159.00,0.8189
6158.00,0.8273
6157.00,0.8361
6156.00,0.8452
6155.00,0.8546
6154.00,0.8641
6153.00,0.8737
6152.00,0.8835
6151.00,0.8936
6150.00,0.9041
6149.00,0.9152
6148.00,0.9264
6147.00,0.9377
6146.00,0.9489
6145.00,0.9601
6144.00,0.9712
6143.00,0.9822
6142.00,0.9932
6141.00,1.0046
6140.00,1.0160
6139.00,1.0272
6138.00,1.0381
6137.00,1.0487
6136.00,1.0592
6135.00,1.0694
6134.00,1.0793
6133.00,1.0891
6132.00,1.0987
6131.00,1.1081
6130.00,1.1173
6129.00,1.1264
6128.00,1.1356
6127.00,1.1447
6126.00,1.1536
6125.00,1.1620
6124.00,1.1699
6123.00,1.1774
6122.00,1.1846
6121.00,1.1913
6120.00,1.1977
6119.00,1.2038
6118.00,1.2098
6117.00,1.2156
6116.00,1.2207
6115.00,1.2251
6114.00,1.2291
6113.00,1.2330
6112.00,1.2367
6111.00,1.2402
6110.00,1.2434
6109.00,1.2463
6108.00,1.2487
6107.00,1.2506
6106.00,1.2522
6105.00,1.2534
6104.00,1.2544
6103.00,1.2550
6102.00,1.2553
6101.00,1.2553
6100.00,1.2546
6099.00,1.2532
6098.00,1.2512
6097.00,1.2491
6096.00,1.2466
6095.00,1.2436
6094.00,1.2400
6093.00,1.2362
6092.00,1.2323
6091.00,1.2282
6090.00,1.2238
6089.00,1.2190
6088.00,1.2137
6087.00,1.2079
6086.00,1.2012
6085.00,1.1938
6084.00,1.1859
6083.00,1.1777
6082.00,1.1692
6081.00,1.1605
6080.00,1.1516
6079.00,1.1422
6078.00,1.1324
6077.00,1.1221
6076.00,1.1113
6075.00,1.1000
6074.00,1.0884
6073.00,1.0767
6072.00,1.0647
6071.00,1.0524
6070.00,1.0398
6069.00,1.0272
6068.00,1.0145
6067.00,1.0017
6066.00,0.9888
6065.00,0.9759
6064.00,0.9631
6063.00,0.9502
6062.00,0.9373
6061.00,0.9247
6060.00,0.9124
6059.00,0.9004
6058.00,0.8886
6057.00,0.8771
6056.00,0.8658
6055.00,0.8548
6054.00,0.8442
6053.00,0.8340
6052.00,0.8244
6051.00,0.8154
6050.00,0.8071
6049.00,0.7995
6048.00,0.7927
6047.00,0.7865
6046.00,0.7810
6045.00,0.7764
6044.00,0.7726
6043.00,0.7696
6042.00,0.7673
6041.00,0.7659
6040.00,0.7655
6039.00,0.7659
6038.00,0.7672
6037.00,0.7692
6036.00,0.7721
6035.00,0.7758
6034.00,0.7803
6033.00,0.7855
6032.00,0.7913
6031.00,0.7975
6030.00,0.8044
6029.00,0.8120
6028.00,0.8203
6027.00,0.8291
6026.00,0.8384
6025.00,0.8482
6024.00,0.8583
6023.00,0.8686
6022.00,0.8791
6021.00,0.8897
6020.00,0.9005
6019.00,0.9116
6018.00,0.9230
6017.00,0.9345
6016.00,0.9461
6015.00,0.9579
6014.00,0.9700
6013.00,0.9822
6012.00,0.9942
6011.00,1.0060
6010.00,1.0176
6009.00,1.0292
6008.00,1.0408
6007.00,1.0524
6006.00,1.0639
6005.00,1.0752
6004.00,1.0866
6003.00,1.0977
6002.00,1.1086
6001.00,1.1191
6000.00,1.1293
5999.00,1.1392
5998.00,1.1489
5997.00,1.1583
5996.00,1.1674
5995.00,1.1763
5994.00,1.1849
5993.00,1.1932
5992.00,1.2011
5991.00,1.2086
5990.00,1.2157
5989.00,1.2226
5988.00,1.2294
5987.00,1.2358
5986.00,1.2418
5985.00,1.2473
5984.00,1.2524
5983.00,1.2573
5982.00,1.2617
5981.00,1.2657
5980.00,1.2692
5979.00,1.2725
5978.00,1.2757
5977.00,1.2783
5976.00,1.2803
5975.00,1.2818
5974.00,1.2830
5973.00,1.2838
5972.00,1.2842
5971.00,1.2842
5970.00,1.2839
5969.00,1.2836
5968.00,1.2830
5967.00,1.2817
5966.00,1.2796
5965.00,1.2769
5964.00,1.2737
5963.00,1.2701
5962.00,1.2660
5961.00,1.2616
5960.00,1.2571
5959.00,1.2524
5958.00,1.2471
5957.00,1.2410
5956.00,1.2344
5955.00,1.2277
5954.00,1.2207
5953.00,1.2131
5952.00,1.2049
5951.00,1.1960
5950.00,1.1866
5949.00,1.1765
5948.00,1.1660
5947.00,1.1551
5946.00,1.1440
5945.00,1.1327
5944.00,1.1211
5943.00,1.1089
5942.00,1.0963
5941.00,1.0834
5940.00,1.0705
5939.00,1.0574
5938.00,1.0442
5937.00,1.0309
5936.00,1.0174
5935.00,1.0038
5934.00,0.9900
5933.00,0.9761
5932.00,0.9621
5931.00,0.9483
5930.00,0.9348
5929.00,0.9217
5928.00,0.9088
5927.00,0.8963
5926.00,0.8841
5925.00,0.8723
5924.00,0.8608
5923.00,0.8498
5922.00,0.8395
5921.00,0.8298
5920.00,0.8207
5919.00,0.8123
5918.00,0.8047
5917.00,0.7978
5916.00,0.7918
5915.00,0.7866
5914.00,0.7822
5913.00,0.7786
5912.00,0.7756
5911.00,0.7736
5910.00,0.7724
5909.00,0.7723
5908.00,0.7730
5907.00,0.7746
5906.00,0.7770
5905.00,0.7804
5904.00,0.7844
5903.00,0.7891
5902.00,0.7946
5901.00,0.8009
5900.00,0.8078
5899.00,0.8153
5898.00,0.8234
5897.00,0.8319
5896.00,0.8410
5895.00,0.8506
5894.00,0.8607
5893.00,0.8713
5892.00,0.8823
5891.00,0.8936
5890.00,0.9051
5889.00,0.9165
5888.00,0.9280
5887.00,0.9395
5886.00,0.9512
5885.00,0.9632
5884.00,0.9753
5883.00,0.9875
5882.00,0.9999
5881.00,1.0122
5880.00,1.0246
5879.00,1.0368
5878.00,1.0491
5877.00,1.0615
5876.00,1.0740
5875.00,1.0862
5874.00,1.0981
5873.00,1.1096
5872.00,1.1208
5871.00,1.1317
5870.00,1.1423
5869.00,1.1527
5868.00,1.1630
5867.00,1.1733
5866.00,1.1834
5865.00,1.1931
5864.00,1.2022
5863.00,1.2108
5862.00,1.2191
5861.00,1.2272
5860.00,1.2350
5859.00,1.2427
5858.00,1.2505
5857.00,1.2581
5856.00,1.2654
5855.00,1.2719
5854.00,1.2775
5853.00,1.2825
5852.00,1.2873
5851.00,1.2917
5850.00,1.2958
5849.00,1.2996
5848.00,1.3033
5847.00,1.3066
5846.00,1.3093
5845.00,1.3114
5844.00,1.3132
5843.00,1.3147
5842.00,1.3156
5841.00,1.3158
5840.00,1.3155
5839.00,1.3147
5838.00,1.3134
5837.00,1.3116
5836.00,1.3094
5835.00,1.3070
5834.00,1.3045
5833.00,1.3016
5832.00,1.2982
5831.00,1.2942
5830.00,1.2896
5829.00,1.2846
5828.00,1.2793
5827.00,1.2737
5826.00,1.2677
5825.00,1.2612
5824.00,1.2542
5823.00,1.2465
5822.00,1.2382
5821.00,1.2292
5820.00,1.2199
5819.00,1.2105
5818.00,1.2006
5817.00,1.1903
5816.00,1.1792
5815.00,1.1678
5814.00,1.1562
5813.00,1.1446
5812.00,1.1330
5811.00,1.1210
5810.00,1.1086
5809.00,1.0957
5808.00,1.0823
5807.00,1.0685
5806.00,1.0545
5805.00,1.0403
5804.00,1.0263
5803.00,1.0123
5802.00,0.9985
5801.00,0.9846
5800.00,0.9707
5799.00,0.9569
5798.00,0.9433
5797.00,0.9299
5796.00,0.9166
5795.00,0.9037
5794.00,0.8910
5793.00,0.8788
5792.00,0.8670
5791.00,0.8556
5790.00,0.8449
5789.00,0.8350
5788.00,0.8257
5787.00,0.8172
5786.00,0.8092
5785.00,0.8020
5784.00,0.7955
5783.00,0.7898
5782.00,0.7851
5781.00,0.7815
5780.00,0.7788
5779.00,0.7771
5778.00,0.7762
5777.00,0.7762
5776.00,0.7771
5775.00,0.7789
5774.00,0.7816
5773.00,0.7852
5772.00,0.7896
5771.00,0.7948
5770.00,0.8008
5769.00,0.8076
5768.00,0.8150
5767.00,0.8232
5766.00,0.8321
5765.00,0.8415
5764.00,0.8513
5763.00,0.8615
5762.00,0.8721
5761.00,0.8831
5760.00,0.8945
5759.00,0.9062
5758.00,0.9181
5757.00,0.9303
5756.00,0.9425
5755.00,0.9550
5754.00,0.9676
5753.00,0.9805
5752.00,0.9933
5751.00,1.0060
5750.00,1.0185
5749.00,1.0309
5748.00,1.0434
5747.00,1.0559
5746.00,1.0684
5745.00,1.0809
5744.00,1.0932
5743.00,1.1053
5742.00,1.1171
5741.00,1.1287
5740.00,1.1401
5739.00,1.1513
5738.00,1.1623
5737.00,1.1729
5736.00,1.1830
5735.00,1.1929
5734.00,1.2026
5733.00,1.2122
5732.00,1.2217
5731.00,1.2309
5730.00,1.2399
5729.00,1.2485
5728.00,1.2565
5727.00,1.2639
5726.00,1.2709
5725.00,1.2776
5724.00,1.2842
5723.00,1.2906
5722.00,1.2967
5721.00,1.3021
5720.00,1.3067
5719.00,1.3105
5718.00,1.3137
5717.00,1.3166
5716.00,1.3195
5715.00,1.3223
5714.00,1.3251
5713.00,1.3272
5712.00,1.3286
5711.00,1.3292
5710.00,1.3293
5709.00,1.3293
5708.00,1.3291
5707.00,1.3286
5706.00,1.3276
5705.00,1.3261
5704.00,1.3241
5703.00,1.3214
5702.00,1.3183
5701.00,1.3148
5700.00,1.3108
5699.00,1.3064
5698.00,1.3013
5697.00,1.2955
5696.00,1.2890
5695.00,1.2821
5694.00,1.2750
5693.00,1.2677
5692.00,1.2601
5691.00,1.2519
5690.00,1.2433
5689.00,1.2342
5688.00,1.2245
5687.00,1.2143
5686.00,1.2038
5685.00,1.1928
5684.00,1.1815
5683.00,1.1697
5682.00,1.1574
5681.00,1.1447
5680.00,1.1316
5679.00,1.1181
5678.00,1.1043
5677.00,1.0904
5676.00,1.0762
5675.00,1.0616
5674.00,1.0469
5673.00,1.0322
5672.00,1.0175
5671.00,1.0028
5670.00,0.9881
5669.00,0.9735
5668.00,0.9590
5667.00,0.9448
5666.00,0.9307
5665.00,0.9170
5664.00,0.9037
5663.00,0.8907
5662.00,0.8781
5661.00,0.8658
5660.00,0.8541
5659.00,0.8428
5658.00,0.8322
5657.00,0.8223
5656.00,0.8132
5655.00,0.8049
5654.00,0.7975
5653.00,0.7909
5652.00,0.7851
5651.00,0.7802
5650.00,0.7762
5649.00,0.7732
5648.00,0.7711
5647.00,0.7700
5646.00,0.7698
5645.00,0.7706
5644.00,0.7723
5643.00,0.7749
5642.00,0.7785
5641.00,0.7831
5640.00,0.7884
5639.00,0.7945
5638.00,0.8012
5637.00,0.8085
5636.00,0.8165
5635.00,0.8253
5634.00,0.8346
5633.00,0.8445
5632.00,0.8548
5631.00,0.8656
5630.00,0.8768
5629.00,0.8885
5628.00,0.9005
5627.00,0.9128
5626.00,0.9253
5625.00,0.9380
5624.00,0.9507
5623.00,0.9633
5622.00,0.9760
5621.00,0.9889
5620.00,1.0018
5619.00,1.0147
5618.00,1.0277
5617.00,1.0409
5616.00,1.0542
5615.00,1.0674
5614.00,1.0803
5613.00,1.0929
5612.00,1.1053
5611.00,1.1175
5610.00,1.1295
5609.00,1.1412
5608.00,1.1527
5607.00,1.1639
5606.00,1.1748
5605.00,1.1856
5604.00,1.1962
5603.00,1.2066
5602.00,1.2168
5601.00,1.2269
5600.00,1.2366
5599.00,1.2459
5598.00,1.2547
5597.00,1.2631
5596.00,1.2714
5595.00,1.2793
5594.00,1.2865
5593.00,1.2929
5592.00,1.2989
5591.00,1.3045
5590.00,1.3098
5589.00,1.3147
5588.00,1.3195
5587.00,1.3240
5586.00,1.3282
5585.00,1.3317
5584.00,1.3347
5583.00,1.3372
5582.00,1.3393
5581.00,1.3408
5580.00,1.3417
5579.00,1.3423
5578.00,1.3426
5577.00,1.3426
5576.00,1.3421
5575.00,1.3411
5574.00,1.3395
5573.00,1.3372
5572.00,1.3344
5571.00,1.3313
5570.00,1.3279
5569.00,1.3240
5568.00,1.3195
5567.00,1.3143
5566.00,1.3085
5565.00,1.3022
5564.00,1.2958
5563.00,1.2890
5562.00,1.2819
5561.00,1.2742
5560.00,1.2659
5559.00,1.2569
5558.00,1.2474
5557.00,1.2375
5556.00,1.2273
5555.00,1.2168
5554.00,1.2060
5553.00,1.1948
5552.00,1.1832
5551.00,1.1711
5550.00,1.1585
5549.00,1.1452
5548.00,1.1314
5547.00,1.1171
5546.00,1.1026
5545.00,1.0879
5544.00,1.0731
5543.00,1.0582
5542.00,1.0431
5541.00,1.0280
5540.00,1.0127
5539.00,0.9973
5538.00,0.9819
5537.00,0.9667
5536.00,0.9516
5535.00,0.9367
5534.00,0.9221
5533.00,0.9077
5532.00,0.8938
5531.00,0.8802
5530.00,0.8671
5529.00,0.8547
5528.00,0.8428
5527.00,0.8316
5526.00,0.8211
5525.00,0.8114
5524.00,0.8026
5523.00,0.7947
5522.00,0.7878
5521.00,0.7818
5520.00,0.7766
5519.00,0.7723
5518.00,0.7689
5517.00,0.7664
5516.00,0.7650
5515.00,0.7646
5514.00,0.7654
5513.00,0.7671
5512.00,0.7699
5511.00,0.7736
5510.00,0.7782
5509.00,0.7836
5508.00,0.7897
5507.00,0.7966
5506.00,0.8042
5505.00,0.8125
5504.00,0.8214
5503.00,0.8310
5502.00,0.8411
5501.00,0.8518
5500.00,0.8628
5499.00,0.8742
5498.00,0.8859
5497.00,0.8978
5496.00,0.9099
5495.00,0.9222
5494.00,0.9347
5493.00,0.9476
5492.00,0.9606
5491.00,0.9737
5490.00,0.9868
5489.00,0.9997
5488.00,1.0124
5487.00,1.0251
5486.00,1.0377
5485.00,1.0504
5484.00,1.0630
5483.00,1.0756
5482.00,1.0881
5481.00,1.1006
5480.00,1.1129
5479.00,1.1249
5478.00,1.1366
5477.00,1.1481
5476.00,1.1597
5475.00,1.1711
5474.00,1.1824
5473.00,1.1933
5472.00,1.2038
5471.00,1.2138
5470.00,1.2236
5469.00,1.2332
5468.00,1.2426
5467.00,1.2517
5466.00,1.2604
5465.00,1.2687
5464.00,1.2764
5463.00,1.2838
5462.00,1.2910
5461.00,1.2977
5460.00,1.3041
5459.00,1.3101
5458.00,1.3157
5457.00,1.3211
5456.00,1.3260
5455.00,1.3306
5454.00,1.3347
5453.00,1.3384
5452.00,1.3416
5451.00,1.3443
5450.00,1.3464
5449.00,1.3481
5448.00,1.3491
5447.00,1.3495
5446.00,1.3493
5445.00,1.3487
5444.00,1.3476
5443.00,1.3461
5442.00,1.3442
5441.00,1.3422
5440.00,1.3401
5439.00,1.3377
5438.00,1.3346
5437.00,1.3308
5436.00,1.3262
5435.00,1.3209
5434.00,1.3150
5433.00,1.3086
5432.00,1.3019
5431.00,1.2949
5430.00,1.2875
5429.00,1.2795
5428.00,1.2708
5427.00,1.2615
5426.00,1.2517
5425.00,1.2415
5424.00,1.2309
5423.00,1.2198
5422.00,1.2084
5421.00,1.1965
5420.00,1.1841
5419.00,1.1712
5418.00,1.1579
5417.00,1.1441
5416.00,1.1300
5415.00,1.1154
5414.00,1.1003
5413.00,1.0848
5412.00,1.0691
5411.00,1.0534
5410.00,1.0376
5409.00,1.0218
5408.00,1.0059
5407.00,0.9900
5406.00,0.9742
5405.00,0.9586
5404.00,0.9432
5403.00,0.9280
5402.00,0.9133
5401.00,0.8988
5400.00,0.8846
5399.00,0.8709
5398.00,0.8577
5397.00,0.8452
5396.00,0.8333
5395.00,0.8220
5394.00,0.8115
5393.00,0.8019
5392.00,0.7932
5391.00,0.7856
5390.00,0.7792
5389.00,0.7739
5388.00,0.7695
5387.00,0.7661
5386.00,0.7637
5385.00,0.7625
5384.00,0.7623
5383.00,0.7632
5382.00,0.7652
5381.00,0.7682
5380.00,0.7721
5379.00,0.7769
5378.00,0.7829
5377.00,0.7898
5376.00,0.7976
5375.00,0.8062
5374.00,0.8155
5373.00,0.8254
5372.00,0.8360
5371.00,0.8472
5370.00,0.8590
5369.00,0.8713
5368.00,0.8840
5367.00,0.8970
5366.00,0.9102
5365.00,0.9238
5364.00,0.9375
5363.00,0.9515
5362.00,0.9655
5361.00,0.9797
5360.00,0.9940
5359.00,1.0081
5358.00,1.0223
5357.00,1.0364
5356.00,1.0505
5355.00,1.0646
5354.00,1.0787
5353.00,1.0930
5352.00,1.1072
5351.00,1.1211
5350.00,1.1346
5349.00,1.1477
5348.00,1.1604
5347.00,1.1728
5346.00,1.1850
5345.00,1.1970
5344.00,1.2090
5343.00,1.2208
5342.00,1.2323
5341.00,1.2431
5340.00,1.2534
5339.00,1.2633
5338.00,1.2730
5337.00,1.2826
5336.00,1.2920
5335.00,1.3011
5334.00,1.3098
5333.00,1.3180
5332.00,1.3256
5331.00,1.3325
5330.00,1.3389
5329.00,1.3448
5328.00,1.3502
5327.00,1.3554
5326.00,1.3604
5325.00,1.3651
5324.00,1.3694
5323.00,1.3731
5322.00,1.3761
5321.00,1.3786
5320.00,1.3806
5319.00,1.3823
5318.00,1.3836
5317.00,1.3845
5316.00,1.3848
5315.00,1.3845
5314.00,1.3836
5313.00,1.3822
5312.00,1.3803
5311.00,1.3779
5310.00,1.3750
5309.00,1.3718
5308.00,1.3681
5307.00,1.3638
5306.00,1.3590
5305.00,1.3535
5304.00,1.3476
5303.00,1.3412
5302.00,1.3344
5301.00,1.3271
5300.00,1.3195
5299.00,1.3116
5298.00,1.3033
5297.00,1.2945
5296.00,1.2852
5295.00,1.2752
5294.00,1.2646
5293.00,1.2532
5292.00,1.2412
5291.00,1.2288
5290.00,1.2161
5289.00,1.2029
5288.00,1.1892
5287.00,1.1752
5286.00,1.1610
5285.00,1.1463
5284.00,1.1314
5283.00,1.1162
5282.00,1.1007
5281.00,1.0847
5280.00,1.0685
5279.00,1.0520
5278.00,1.0355
5277.00,1.0190
5276.00,1.0026
5275.00,0.9862
5274.00,0.9699
5273.00,0.9538
5272.00,0.9379
5271.00,0.9223
5270.00,0.9071
5269.00,0.8923
5268.00,0.8780
5267.00,0.8642
5266.00,0.8510
5265.00,0.8386
5264.00,0.8269
5263.00,0.8161
5262.00,0.8062
5261.00,0.7974
5260.00,0.7896
5259.00,0.7829
5258.00,0.7772
5257.00,0.7728
5256.00,0.7694
5255.00,0.7670
5254.00,0.7658
5253.00,0.7657
5252.00,0.7666
5251.00,0.7687
5250.00,0.7718
5249.00,0.7760
5248.00,0.7812
5247.00,0.7872
5246.00,0.7942
5245.00,0.8020
5244.00,0.8107
5243.00,0.8201
5242.00,0.8304
5241.00,0.8413
5240.00,0.8528
5239.00,0.8648
5238.00,0.8773
5237.00,0.8901
5236.00,0.9033
5235.00,0.9168
5234.00,0.9305
5233.00,0.9443
5232.00,0.9583
5231.00,0.9725
5230.00,0.9868
5229.00,1.0012
5228.00,1.0157
5227.00,1.0301
5226.00,1.0447
5225.00,1.0592
5224.00,1.0736
5223.00,1.0880
5222.00,1.1022
5221.00,1.1162
5220.00,1.1301
5219.00,1.1438
5218.00,1.1573
5217.00,1.1707
5216.00,1.1837
5215.00,1.1965
5214.00,1.2091
5213.00,1.2213
5212.00,1.2332
5211.00,1.2448
5210.00,1.2562
5209.00,1.2672
5208.00,1.2779
5207.00,1.2883
5206.00,1.2983
5205.00,1.3078
5204.00,1.3166
5203.00,1.3250
5202.00,1.3330
5201.00,1.3408
5200.00,1.3482
5199.00,1.3553
5198.00,1.3621
5197.00,1.3683
5196.00,1.3740
5195.00,1.3793
5194.00,1.3841
5193.00,1.3884
5192.00,1.3922
5191.00,1.3955
5190.00,1.3985
5189.00,1.4012
5188.00,1.4033
5187.00,1.4050
5186.00,1.4060
5185.00,1.4065
5184.00,1.4064
5183.00,1.4056
5182.00,1.4043
5181.00,1.4026
5180.00,1.4006
5179.00,1.3982
5178.00,1.3954
5177.00,1.3922
5176.00,1.3885
5175.00,1.3841
5174.00,1.3792
5173.00,1.3736
5172.00,1.3675
5171.00,1.3606
5170.00,1.3532
5169.00,1.3453
5168.00,1.3373
5167.00,1.3290
5166.00,1.3203
5165.00,1.3111
5164.00,1.3012
5163.00,1.2907
5162.00,1.2795
5161.00,1.2679
5160.00,1.2558
5159.00,1.2433
5158.00,1.2302
5157.00,1.2164
5156.00,1.2020
5155.00,1.1871
5154.00,1.1718
5153.00,1.1561
5152.00,1.1400
5151.00,1.1236
5150.00,1.1069
5149.00,1.0901
5148.00,1.0731
5147.00,1.0559
5146.00,1.0386
5145.00,1.0213
5144.00,1.0041
5143.00,0.9870
5142.00,0.9700
5141.00,0.9532
5140.00,0.9365
5139.00,0.9202
5138.00,0.9044
5137.00,0.8893
5136.00,0.8748
5135.00,0.8611
5134.00,0.8480
5133.00,0.8357
5132.00,0.8242
5131.00,0.8137
5130.00,0.8043
5129.00,0.7958
5128.00,0.7884
5127.00,0.7821
5126.00,0.7769
5125.00,0.7729
5124.00,0.7702
5123.00,0.7687
5122.00,0.7686
5121.00,0.7697
5120.00,0.7720
5119.00,0.7755
5118.00,0.7800
5117.00,0.7856
5116.00,0.7922
5115.00,0.7997
5114.00,0.8082
5113.00,0.8176
5112.00,0.8279
5111.00,0.8389
5110.00,0.8506
5109.00,0.8629
5108.00,0.8758
5107.00,0.8892
5106.00,0.9030
5105.00,0.9171
5104.00,0.9316
5103.00,0.9464
5102.00,0.9614
5101.00,0.9765
5100.00,0.9918
5099.00,1.0071
5098.00,1.0225
5097.00,1.0378
5096.00,1.0531
5095.00,1.0682
5094.00,1.0834
5093.00,1.0987
5092.00,1.1139
5091.00,1.1291
5090.00,1.1443
5089.00,1.1591
5088.00,1.1734
5087.00,1.1874
5086.00,1.2010
5085.00,1.2144
5084.00,1.2274
5083.00,1.2401
5082.00,1.2526
5081.00,1.2648
5080.00,1.2768
5079.00,1.2885
5078.00,1.3001
5077.00,1.3111
5076.00,1.3215
5075.00,1.3314
5074.00,1.3409
5073.00,1.3500
5072.00,1.3587
5071.00,1.3670
5070.00,1.3748
5069.00,1.3820
5068.00,1.3886
5067.00,1.3949
5066.00,1.4010
5065.00,1.4067
5064.00,1.4119
5063.00,1.4166
5062.00,1.4207
5061.00,1.4243
5060.00,1.4273
5059.00,1.4299
5058.00,1.4320
5057.00,1.4337
5056.00,1.4349
5055.00,1.4356
5054.00,1.4357
5053.00,1.4352
5052.00,1.4341
5051.00,1.4324
5050.00,1.4302
5049.00,1.4275
5048.00,1.4242
5047.00,1.4206
5046.00,1.4168
5045.00,1.4126
5044.00,1.4079
5043.00,1.4027
5042.00,1.3969
5041.00,1.3905
5040.00,1.3836
5039.00,1.3762
5038.00,1.3685
5037.00,1.3603
5036.00,1.3512
5035.00,1.3414
5034.00,1.3310
5033.00,1.3204
5032.00,1.3095
5031.00,1.2981
5030.00,1.2862
5029.00,1.2736
5028.00,1.2604
5027.00,1.2465
5026.00,1.2320
5025.00,1.2172
5024.00,1.2020
5023.00,1.1863
5022.00,1.1703
5021.00,1.1538
5020.00,1.1369
5019.00,1.1197
5018.00,1.1021
5017.00,1.0843
5016.00,1.0664
5015.00,1.0484
5014.00,1.0303
5013.00,1.0123
5012.00,0.9943
5011.00,0.9764
5010.00,0.9587
5009.00,0.9412
5008.00,0.9241
5007.00,0.9073
5006.00,0.8910
5005.00,0.8752
5004.00,0.8601
5003.00,0.8458
5002.00,0.8324
5001.00,0.8198
5000.00,0.8082
4999.00,0.7976
4998.00,0.7882
4997.00,0.7800
4996.00,0.7732
4995.00,0.7677
4994.00,0.7635
4993.00,0.7606
4992.00,0.7590
4991.00,0.7587
4990.00,0.7599
4989.00,0.7624
4988.00,0.7662
4987.00,0.7712
4986.00,0.7774
4985.00,0.7846
4984.00,0.7929
4983.00,0.8022
4982.00,0.8124
4981.00,0.8235
4980.00,0.8354
4979.00,0.8480
4978.00,0.8611
4977.00,0.8747
4976.00,0.8888
4975.00,0.9032
4974.00,0.9181
4973.00,0.9334
4972.00,0.9490
4971.00,0.9648
4970.00,0.9808
4969.00,0.9968
4968.00,1.0130
4967.00,1.0291
4966.00,1.0452
4965.00,1.0613
4964.00,1.0772
4963.00,1.0931
4962.00,1.1090
4961.00,1.1248
4960.00,1.1405
4959.00,1.1559
4958.00,1.1711
4957.00,1.1862
4956.00,1.2010
4955.00,1.2155
4954.00,1.2297
4953.00,1.2436
4952.00,1.2572
4951.00,1.2704
4950.00,1.2832
4949.00,1.2957
4948.00,1.3078
4947.00,1.3194
4946.00,1.3306
4945.00,1.3413
4944.00,1.3516
4943.00,1.3616
4942.00,1.3714
4941.00,1.3809
4940.00,1.3898
4939.00,1.3982
4938.00,1.4058
4937.00,1.4127
4936.00,1.4191
4935.00,1.4252
4934.00,1.4311
4933.00,1.4365
4932.00,1.4414
4931.00,1.4456
4930.00,1.4492
4929.00,1.4523
4928.00,1.4548
4927.00,1.4570
4926.00,1.4588
4925.00,1.4600
4924.00,1.4608
4923.00,1.4611
4922.00,1.4610
4921.00,1.4603
4920.00,1.4591
4919.00,1.4574
4918.00,1.4551
4917.00,1.4523
4916.00,1.4490
4915.00,1.4450
4914.00,1.4404
4913.00,1.4351
4912.00,1.4293
4911.00,1.4233
4910.00,1.4170
4909.00,1.4104
4908.00,1.4032
4907.00,1.3952
4906.00,1.3865
4905.00,1.3772
4904.00,1.3675
4903.00,1.3573
4902.00,1.3467
4901.00,1.3354
4900.00,1.3235
4899.00,1.3110
4898.00,1.2981
4897.00,1.2846
4896.00,1.2705
4895.00,1.2559
4894.00,1.2407
4893.00,1.2249
4892.00,1.2086
4891.00,1.1916
4890.00,1.1743
4889.00,1.1565
4888.00,1.1385
4887.00,1.1201
4886.00,1.1014
4885.00,1.0824
4884.00,1.0632
4883.00,1.0439
4882.00,1.0246
4881.00,1.0055
4880.00,0.9866
4879.00,0.9679
4878.00,0.9494
4877.00,0.9314
4876.00,0.9138
4875.00,0.8968
4874.00,0.8804
4873.00,0.8649
4872.00,0.8502
4871.00,0.8364
4870.00,0.8237
4869.00,0.8120
4868.00,0.8015
4867.00,0.7922
4866.00,0.7841
4865.00,0.7774
4864.00,0.7720
4863.00,0.7681
4862.00,0.7656
4861.00,0.7646
4860.00,0.7651
4859.00,0.7669
4858.00,0.7701
4857.00,0.7746
4856.00,0.7805
4855.00,0.7876
4854.00,0.7959
4853.00,0.8052
4852.00,0.8154
4851.00,0.8265
4850.00,0.8385
4849.00,0.8513
4848.00,0.8648
4847.00,0.8789
4846.00,0.8935
4845.00,0.9086
4844.00,0.9242
4843.00,0.9401
4842.00,0.9564
4841.00,0.9729
4840.00,0.9895
4839.00,1.0063
4838.00,1.0233
4837.00,1.0404
4836.00,1.0575
4835.00,1.0745
4834.00,1.0914
4833.00,1.1082
4832.00,1.1248
4831.00,1.1413
4830.00,1.1576
4829.00,1.1737
4828.00,1.1897
4827.00,1.2056
4826.00,1.2213
4825.00,1.2366
4824.00,1.2515
4823.00,1.2660
4822.00,1.2801
4821.00,1.2940
4820.00,1.3076
4819.00,1.3207
4818.00,1.3333
4817.00,1.3453
4816.00,1.3569
4815.00,1.3683
4814.00,1.3795
4813.00,1.3905
4812.00,1.4008
4811.00,1.4102
4810.00,1.4190
4809.00,1.4271
4808.00,1.4349
4807.00,1.4424
4806.00,1.4496
4805.00,1.4564
4804.00,1.4626
4803.00,1.4682
4802.00,1.4730
4801.00,1.4774
4800.00,1.4812
4799.00,1.4844
4798.00,1.4873
4797.00,1.4897
4796.00,1.4917
4795.00,1.4931
4794.00,1.4939
4793.00,1.4939
4792.00,1.4933
4791.00,1.4924
4790.00,1.4911
4789.00,1.4894
4788.00,1.4872
4787.00,1.4845
4786.00,1.4812
4785.00,1.4774
4784.00,1.4730
4783.00,1.4679
4782.00,1.4622
4781.00,1.4561
4780.00,1.4497
4779.00,1.4429
4778.00,1.4356
4777.00,1.4276
4776.00,1.4189
4775.00,1.4096
4774.00,1.3999
4773.00,1.3899
4772.00,1.3794
4771.00,1.3683
4770.00,1.3563
4769.00,1.3437
4768.00,1.3304
4767.00,1.3166
4766.00,1.3023
4765.00,1.2876
4764.00,1.2723
4763.00,1.2562
4762.00,1.2396
4761.00,1.2224
4760.00,1.2048
4759.00,1.1868
4758.00,1.1683
4757.00,1.1493
4756.00,1.1299
4755.00,1.1102
4754.00,1.0903
4753.00,1.0703
4752.00,1.0502
4751.00,1.0301
4750.00,1.0099
4749.00,0.9898
4748.00,0.9700
4747.00,0.9506
4746.00,0.9317
4745.00,0.9135
4744.00,0.8959
4743.00,0.8790
4742.00,0.8631
4741.00,0.8480
4740.00,0.8339
4739.00,0.8209
4738.00,0.8091
4737.00,0.7986
4736.00,0.7894
4735.00,0.7816
4734.00,0.7753
4733.00,0.7705
4732.00,0.7672
4731.00,0.7654
4730.00,0.7651
4729.00,0.7664
4728.00,0.7692
4727.00,0.7735
4726.00,0.7792
4725.00,0.7863
4724.00,0.7946
4723.00,0.8040
4722.00,0.8146
4721.00,0.8262
4720.00,0.8388
4719.00,0.8523
4718.00,0.8665
4717.00,0.8814
4716.00,0.8968
4715.00,0.9126
4714.00,0.9289
4713.00,0.9455
4712.00,0.9626
4711.00,0.9799
4710.00,0.9975
4709.00,1.0153
4708.00,1.0332
4707.00,1.0510
4706.00,1.0688
4705.00,1.0866
4704.00,1.1043
4703.00,1.1220
4702.00,1.1398
4701.00,1.1574
4700.00,1.1749
4699.00,1.1920
4698.00,1.2089
4697.00,1.2255
4696.00,1.2417
4695.00,1.2577
4694.00,1.2734
4693.00,1.2888
4692.00,1.3039
4691.00,1.3186
4690.00,1.3330
4689.00,1.3468
4688.00,1.3602
4687.00,1.3730
4686.00,1.3852
4685.00,1.3971
4684.00,1.4085
4683.00,1.4195
4682.00,1.4301
4681.00,1.4403
4680.00,1.4501
4679.00,1.4592
4678.00,1.4676
4677.00,1.4753
4676.00,1.4823
4675.00,1.4890
4674.00,1.4955
4673.00,1.5016
4672.00,1.5071
4671.00,1.5119
4670.00,1.5160
4669.00,1.5196
4668.00,1.5227
4667.00,1.5251
4666.00,1.5268
4665.00,1.5280
4664.00,1.5288
4663.00,1.5294
4662.00,1.5299
4661.00,1.5301
4660.00,1.5297
4659.00,1.5287
4658.00,1.5269
4657.00,1.5246
4656.00,1.5217
4655.00,1.5184
4654.00,1.5147
4653.00,1.5106
4652.00,1.5059
4651.00,1.5005
4650.00,1.4946
4649.00,1.4882
4648.00,1.4813
4647.00,1.4738
4646.00,1.4657
4645.00,1.4570
4644.00,1.4477
4643.00,1.4379
4642.00,1.4275
4641.00,1.4165
4640.00,1.4048
4639.00,1.3925
4638.00,1.3794
4637.00,1.3658
4636.00,1.3516
4635.00,1.3370
4634.00,1.3218
4633.00,1.3061
4632.00,1.2898
4631.00,1.2729
4630.00,1.2553
4629.00,1.2373
4628.00,1.2188
4627.00,1.1997
4626.00,1.1801
4625.00,1.1600
4624.00,1.1395
4623.00,1.1189
4622.00,1.0981
4621.00,1.0772
4620.00,1.0562
4619.00,1.0353
4618.00,1.0145
4617.00,0.9940
4616.00,0.9739
4615.00,0.9541
4614.00,0.9350
4613.00,0.9165
4612.00,0.8987
4611.00,0.8819
4610.00,0.8660
4609.00,0.8513
4608.00,0.8377
4607.00,0.8253
4606.00,0.8143
4605.00,0.8047
4604.00,0.7965
4603.00,0.7897
4602.00,0.7846
4601.00,0.7810
4600.00,0.7791
4599.00,0.7789
4598.00,0.7802
4597.00,0.7832
4596.00,0.7876
4595.00,0.7936
4594.00,0.8009
4593.00,0.8097
4592.00,0.8197
4591.00,0.8308
4590.00,0.8430
4589.00,0.8562
4588.00,0.8703
4587.00,0.8852
4586.00,0.9008
4585.00,0.9171
4584.00,0.9338
4583.00,0.9510
4582.00,0.9686
4581.00,0.9866
4580.00,1.0047
4579.00,1.0230
4578.00,1.0415
4577.00,1.0602
4576.00,1.0788
4575.00,1.0973
4574.00,1.1158
4573.00,1.1340
4572.00,1.1522
4571.00,1.1703
4570.00,1.1883
4569.00,1.2062
4568.00,1.2238
4567.00,1.2412
4566.00,1.2583
4565.00,1.2749
4564.00,1.2912
4563.00,1.3071
4562.00,1.3225
4561.00,1.3376
4560.00,1.3524
4559.00,1.3671
4558.00,1.3814
4557.00,1.3952
4556.00,1.4085
4555.00,1.4211
4554.00,1.4331
4553.00,1.4446
4552.00,1.4555
4551.00,1.4660
4550.00,1.4758
4549.00,1.4852
4548.00,1.4941
4547.00,1.5026
4546.00,1.5107
4545.00,1.5183
4544.00,1.5252
4543.00,1.5313
4542.00,1.5367
4541.00,1.5415
4540.00,1.5459
4539.00,1.5499
4538.00,1.5534
4537.00,1.5563
4536.00,1.5587
4535.00,1.5605
4534.00,1.5620
4533.00,1.5631
4532.00,1.5638
4531.00,1.5639
4530.00,1.5632
4529.00,1.5620
4528.00,1.5603
4527.00,1.5581
4526.00,1.5552
4525.00,1.5517
4524.00,1.5476
4523.00,1.5432
4522.00,1.5382
4521.00,1.5327
4520.00,1.5264
4519.00,1.5194
4518.00,1.5119
4517.00,1.5041
4516.00,1.4961
4515.00,1.4878
4514.00,1.4789
4513.00,1.4693
4512.00,1.4589
4511.00,1.4478
4510.00,1.4361
4509.00,1.4237
4508.00,1.4109
4507.00,1.3974
4506.00,1.3834
4505.00,1.3687
4504.00,1.3532
4503.00,1.3369
4502.00,1.3199
4501.00,1.3022
4500.00,1.2840
4499.00,1.2651
4498.00,1.2457
4497.00,1.2256
4496.00,1.2050
4495.00,1.1839
4494.00,1.1626
4493.00,1.1409
4492.00,1.1191
4491.00,1.0970
4490.00,1.0747
4489.00,1.0523
4488.00,1.0300
4487.00,1.0079
4486.00,0.9861
4485.00,0.9648
4484.00,0.9440
4483.00,0.9239
4482.00,0.9048
4481.00,0.8866
4480.00,0.8695
4479.00,0.8536
4478.00,0.8389
4477.00,0.8255
4476.00,0.8136
4475.00,0.8033
4474.00,0.7945
4473.00,0.7875
4472.00,0.7821
4471.00,0.7786
4470.00,0.7769
4469.00,0.7769
4468.00,0.7788
4467.00,0.7824
4466.00,0.7877
4465.00,0.7946
4464.00,0.8030
4463.00,0.8128
4462.00,0.8240
4461.00,0.8364
4460.00,0.8499
4459.00,0.8645
4458.00,0.8801
4457.00,0.8965
4456.00,0.9135
4455.00,0.9311
4454.00,0.9492
4453.00,0.9677
4452.00,0.9866
4451.00,1.0059
4450.00,1.0254
4449.00,1.0452
4448.00,1.0650
4447.00,1.0849
4446.00,1.1049
4445.00,1.1248
4444.00,1.1447
4443.00,1.1644
4442.00,1.1840
4441.00,1.2031
4440.00,1.2219
4439.00,1.2404
4438.00,1.2586
4437.00,1.2766
4436.00,1.2944
4435.00,1.3119
4434.00,1.3291
4433.00,1.3461
4432.00,1.3629
4431.00,1.3792
4430.00,1.3949
4429.00,1.4097
4428.00,1.4239
4427.00,1.4375
4426.00,1.4508
4425.00,1.4638
4424.00,1.4764
4423.00,1.4885
4422.00,1.5000
4421.00,1.5110
4420.00,1.5214
4419.00,1.5310
4418.00,1.5401
4417.00,1.5485
4416.00,1.5565
4415.00,1.5638
4414.00,1.5704
4413.00,1.5763
4412.00,1.5816
4411.00,1.5865
4410.00,1.5911
4409.00,1.5953
4408.00,1.5990
4407.00,1.6022
4406.00,1.6049
4405.00,1.6071
4404.00,1.6089
4403.00,1.6102
4402.00,1.6109
4401.00,1.6111
4400.00,1.6107
4399.00,1.6098
4398.00,1.6082
4397.00,1.6059
4396.00,1.6030
4395.00,1.5997
4394.00,1.5960
4393.00,1.5919
4392.00,1.5871
4391.00,1.5818
4390.00,1.5760
4389.00,1.5700
4388.00,1.5640
4387.00,1.5577
4386.00,1.5508
4385.00,1.5429
4384.00,1.5343
4383.00,1.5249
4382.00,1.5151
4381.00,1.5048
4380.00,1.4940
4379.00,1.4827
4378.00,1.4709
4377.00,1.4587
4376.00,1.4462
4375.00,1.4333
4374.00,1.4198
4373.00,1.4057
4372.00,1.3909
4371.00,1.3755
4370.00,1.3598
4369.00,1.3436
4368.00,1.3269
4367.00,1.3096
4366.00,1.2917
4365.00,1.2732
4364.00,1.2543
4363.00,1.2349
4362.00,1.2151
4361.00,1.1948
4360.00,1.1743
4359.00,1.1535
4358.00,1.1327
4357.00,1.1119
4356.00,1.0912
4355.00,1.0707
4354.00,1.0505
4353.00,1.0307
4352.00,1.0114
4351.00,0.9927
4350.00,0.9750
4349.00,0.9581
4348.00,0.9421
4347.00,0.9272
4346.00,0.9133
4345.00,0.9007
4344.00,0.8893
4343.00,0.8793
4342.00,0.8708
4341.00,0.8638
4340.00,0.8583
4339.00,0.8545
4338.00,0.8524
4337.00,0.8519
4336.00,0.8533
4335.00,0.8565
4334.00,0.8614
4333.00,0.8681
4332.00,0.8764
4331.00,0.8862
4330.00,0.8974
4329.00,0.9100
4328.00,0.9237
4327.00,0.9384
4326.00,0.9541
4325.00,0.9706
4324.00,0.9879
4323.00,1.0057
4322.00,1.0241
4321.00,1.0429
4320.00,1.0620
4319.00,1.0813
4318.00,1.1009
4317.00,1.1205
4316.00,1.1402
4315.00,1.1599
4314.00,1.1795
4313.00,1.1989
4312.00,1.2183
4311.00,1.2377
4310.00,1.2570
4309.00,1.2761
4308.00,1.2947
4307.00,1.3129
4306.00,1.3308
4305.00,1.3484
4304.00,1.3657
4303.00,1.3827
4302.00,1.3992
4301.00,1.4151
4300.00,1.4306
4299.00,1.4456
4298.00,1.4602
4297.00,1.4745
4296.00,1.4885
4295.00,1.5021
4294.00,1.5154
4293.00,1.5281
4292.00,1.5399
4291.00,1.5509
4290.00,1.5611
4289.00,1.5710
4288.00,1.5805
4287.00,1.5897
4286.00,1.5983
4285.00,1.6062
4284.00,1.6133
4283.00,1.6195
4282.00,1.6251
4281.00,1.6302
4280.00,1.6350
4279.00,1.6394
4278.00,1.6432
4277.00,1.6464
4276.00,1.6492
4275.00,1.6517
4274.00,1.6540
4273.00,1.6558
4272.00,1.6570
4271.00,1.6575
4270.00,1.6573
4269.00,1.6565
4268.00,1.6552
4267.00,1.6535
4266.00,1.6515
4265.00,1.6491
4264.00,1.6460
4263.00,1.6422
4262.00,1.6380
4261.00,1.6333
4260.00,1.6283
4259.00,1.6229
4258.00,1.6169
4257.00,1.6103
4256.00,1.6030
4255.00,1.5951
4254.00,1.5864
4253.00,1.5770
4252.00,1.5669
4251.00,1.5563
4250.00,1.5452
4249.00,1.5336
4248.00,1.5214
4247.00,1.5086
4246.00,1.4951
4245.00,1.4811
4244.00,1.4664
4243.00,1.4510
4242.00,1.4349
4241.00,1.4179
4240.00,1.4002
4239.00,1.3817
4238.00,1.3627
4237.00,1.3433
4236.00,1.3233
4235.00,1.3029
4234.00,1.2820
4233.00,1.2606
4232.00,1.2387
4231.00,1.2165
4230.00,1.1941
4229.00,1.1715
4228.00,1.1488
4227.00,1.1263
4226.00,1.1040
4225.00,1.0820
4224.00,1.0603
4223.00,1.0391
4222.00,1.0184
4221.00,0.9985
4220.00,0.9794
4219.00,0.9613
4218.00,0.9442
4217.00,0.9282
4216.00,0.9134
4215.00,0.9000
4214.00,0.8880
4213.00,0.8776
4212.00,0.8688
4211.00,0.8616
4210.00,0.8562
4209.00,0.8526
4208.00,0.8507
4207.00,0.8507
4206.00,0.8527
4205.00,0.8564
4204.00,0.8620
4203.00,0.8694
4202.00,0.8784
4201.00,0.8889
4200.00,0.9009
4199.00,0.9142
4198.00,0.9287
4197.00,0.9442
4196.00,0.9607
4195.00,0.9781
4194.00,0.9963
4193.00,1.0151
4192.00,1.0345
4191.00,1.0542
4190.00,1.0742
4189.00,1.0945
4188.00,1.1149
4187.00,1.1355
4186.00,1.1562
4185.00,1.1769
4184.00,1.1975
4183.00,1.2180
4182.00,1.2383
4181.00,1.2585
4180.00,1.2785
4179.00,1.2982
4178.00,1.3176
4177.00,1.3366
4176.00,1.3553
4175.00,1.3737
4174.00,1.3917
4173.00,1.4094
4172.00,1.4268
4171.00,1.4438
4170.00,1.4603
4169.00,1.4764
4168.00,1.4920
4167.00,1.5071
4166.00,1.5217
4165.00,1.5357
4164.00,1.5491
4163.00,1.5619
4162.00,1.5742
4161.00,1.5859
4160.00,1.5970
4159.00,1.6074
4158.00,1.6171
4157.00,1.6262
4156.00,1.6347
4155.00,1.6426
4154.00,1.6502
4153.00,1.6575
4152.00,1.6647
4151.00,1.6713
4150.00,1.6773
4149.00,1.6824
4148.00,1.6868
4147.00,1.6905
4146.00,1.6938
4145.00,1.6967
4144.00,1.6991
4143.00,1.7011
4142.00,1.7026
4141.00,1.7035
4140.00,1.7038
4139.00,1.7035
4138.00,1.7026
4137.00,1.7015
4136.00,1.7001
4135.00,1.6984
4134.00,1.6960
4133.00,1.6927
4132.00,1.6886
4131.00,1.6839
4130.00,1.6789
4129.00,1.6736
4128.00,1.6678
4127.00,1.6615
4126.00,1.6546
4125.00,1.6472
4124.00,1.6393
4123.00,1.6307
4122.00,1.6213
4121.00,1.6114
4120.00,1.6008
4119.00,1.5899
4118.00,1.5784
4117.00,1.5663
4116.00,1.5535
4115.00,1.5397
4114.00,1.5251
4113.00,1.5097
4112.00,1.4938
4111.00,1.4774
4110.00,1.4604
4109.00,1.4427
4108.00,1.4241
4107.00,1.4046
4106.00,1.3844
4105.00,1.3635
4104.00,1.3420
4103.00,1.3198
4102.00,1.2971
4101.00,1.2739
4100.00,1.2501
4099.00,1.2260
4098.00,1.2016
4097.00,1.1768
4096.00,1.1519
4095.00,1.1272
4094.00,1.1027
4093.00,1.0787
4092.00,1.0551
4091.00,1.0322
4090.00,1.0100
4089.00,0.9888
4088.00,0.9688
4087.00,0.9502
4086.00,0.9330
4085.00,0.9172
4084.00,0.9029
4083.00,0.8903
4082.00,0.8795
4081.00,0.8707
4080.00,0.8639
4079.00,0.8590
4078.00,0.8563
4077.00,0.8557
4076.00,0.8571
4075.00,0.8607
4074.00,0.8661
4073.00,0.8734
4072.00,0.8825
4071.00,0.8934
4070.00,0.9058
4069.00,0.9198
4068.00,0.9351
4067.00,0.9515
4066.00,0.9689
4065.00,0.9874
4064.00,1.0066
4063.00,1.0266
4062.00,1.0473
4061.00,1.0686
4060.00,1.0902
4059.00,1.1120
4058.00,1.1340
4057.00,1.1561
4056.00,1.1782
4055.00,1.2004
4054.00,1.2226
4053.00,1.2446
4052.00,1.2664
4051.00,1.2881
4050.00,1.3095
4049.00,1.3305
4048.00,1.3512
4047.00,1.3716
4046.00,1.3917
4045.00,1.4114
4044.00,1.4305
4043.00,1.4490
4042.00,1.4670
4041.00,1.4847
4040.00,1.5022
4039.00,1.5193
4038.00,1.5358
4037.00,1.5515
4036.00,1.5664
4035.00,1.5805
4034.00,1.5939
4033.00,1.6069
4032.00,1.6196
4031.00,1.6320
4030.00,1.6438
4029.00,1.6549
4028.00,1.6652
4027.00,1.6747
4026.00,1.6835
4025.00,1.6918
4024.00,1.6995
4023.00,1.7066
4022.00,1.7133
4021.00,1.7194
4020.00,1.7251
4019.00,1.7302
4018.00,1.7346
4017.00,1.7383
4016.00,1.7414
4015.00,1.7438
4014.00,1.7459
4013.00,1.7478
4012.00,1.7494
4011.00,1.7505
4010.00,1.7507
4009.00,1.7499
4008.00,1.7485
4007.00,1.7468
4006.00,1.7448
4005.00,1.7422
4004.00,1.7388
4003.00,1.7348
4002.00,1.7304
4001.00,1.7258
4000.00,1.7208
3999.00,1.7153
3998.00,1.7090
3997.00,1.7021
3996.00,1.6946
3995.00,1.6866
3994.00,1.6778
3993.00,1.6680
3992.00,1.6574
3991.00,1.6463
3990.00,1.6349
3989.00,1.6232
3988.00,1.6109
3987.00,1.5978
3986.00,1.5839
3985.00,1.5693
3984.00,1.5539
3983.00,1.5380
3982.00,1.5217
3981.00,1.5047
3980.00,1.4872
3979.00,1.4688
3978.00,1.4499
3977.00,1.4304
3976.00,1.4103
3975.00,1.3896
3974.00,1.3681
3973.00,1.3458
3972.00,1.3227
3971.00,1.2989
3970.00,1.2747
3969.00,1.2502
3968.00,1.2253
3967.00,1.2001
3966.00,1.1748
3965.00,1.1496
3964.00,1.1245
3963.00,1.0999
3962.00,1.0758
3961.00,1.0526
3960.00,1.0302
3959.00,1.0090
3958.00,0.9890
3957.00,0.9703
3956.00,0.9532
3955.00,0.9378
3954.00,0.9241
3953.00,0.9123
3952.00,0.9023
3951.00,0.8941
3950.00,0.8877
3949.00,0.8831
3948.00,0.8806
3947.00,0.8801
3946.00,0.8817
3945.00,0.8854
3944.00,0.8913
3943.00,0.8992
3942.00,0.9089
3941.00,0.9203
3940.00,0.9331
3939.00,0.9474
3938.00,0.9630
3937.00,0.9799
3936.00,0.9978
3935.00,1.0165
3934.00,1.0359
3933.00,1.0563
3932.00,1.0777
3931.00,1.0999
3930.00,1.1225
3929.00,1.1451
3928.00,1.1674
3927.00,1.1895
3926.00,1.2118
3925.00,1.2344
3924.00,1.2573
3923.00,1.2800
3922.00,1.3023
3921.00,1.3242
3920.00,1.3457
3919.00,1.3670
3918.00,1.3883
3917.00,1.4098
3916.00,1.4315
3915.00,1.4529
3914.00,1.4737
3913.00,1.4936
3912.00,1.5128
3911.00,1.5315
3910.00,1.5498
3909.00,1.5673
3908.00,1.5837
3907.00,1.5990
3906.00,1.6135
3905.00,1.6276
3904.00,1.6414
3903.00,1.6548
3902.00,1.6679
3901.00,1.6809
3900.00,1.6938
3899.00,1.7063
3898.00,1.7180
3897.00,1.7287
3896.00,1.7383
3895.00,1.7469
3894.00,1.7544
3893.00,1.7614
3892.00,1.7679
3891.00,1.7740
3890.00,1.7794
3889.00,1.7839
3888.00,1.7876
3887.00,1.7907
3886.00,1.7938
3885.00,1.7969
3884.00,1.7994
3883.00,1.8014
3882.00,1.8028
3881.00,1.8036
3880.00,1.8038
3879.00,1.8032
3878.00,1.8020
3877.00,1.8005
3876.00,1.7988
3875.00,1.7967
3874.00,1.7940
3873.00,1.7903
3872.00,1.7859
3871.00,1.7807
3870.00,1.7746
3869.00,1.7675
3868.00,1.7598
3867.00,1.7521
3866.00,1.7444
3865.00,1.7366
3864.00,1.7282
3863.00,1.7190
3862.00,1.7090
3861.00,1.6984
3860.00,1.6874
3859.00,1.6758
3858.00,1.6637
3857.00,1.6508
3856.00,1.6368
3855.00,1.6213
3854.00,1.6036
3853.00,1.5832
3852.00,1.5613
3851.00,1.5400
3850.00,1.5206
3849.00,1.5023
3848.00,1.4840
3847.00,1.4649
3846.00,1.4443
3845.00,1.4220
3844.00,1.3978
3843.00,1.3723
3842.00,1.3459
3841.00,1.3188
3840.00,1.2908
3839.00,1.2611
3838.00,1.2295
3837.00,1.1968
3836.00,1.1645
3835.00,1.1338
3834.00,1.1046
3833.00,1.0765
3832.00,1.0491
3831.00,1.0226
3830.00,0.9974
3829.00,0.9740
3828.00,0.9525
3827.00,0.9326
3826.00,0.9145
3825.00,0.8984
3824.00,0.8850
3823.00,0.8744
3822.00,0.8663
3821.00,0.8603
3820.00,0.8556
3819.00,0.8529
3818.00,0.8534
3817.00,0.8578
3816.00,0.8659
3815.00,0.8764
3814.00,0.8885
3813.00,0.9021
3812.00,0.9176
3811.00,0.9350
3810.00,0.9537
3809.00,0.9738
3808.00,0.9957
3807.00,1.0198
3806.00,1.0451
3805.00,1.0697
3804.00,1.0929
3803.00,1.1159
3802.00,1.1409
3801.00,1.1686
3800.00,1.1975
3799.00,1.2252
3798.00,1.2512
3797.00,1.2762
3796.00,1.3010
3795.00,1.3260
3794.00,1.3506
3793.00,1.3746
3792.00,1.3983
3791.00,1.4217
3790.00,1.4448
3789.00,1.4674
3788.00,1.4895
3787.00,1.5112
3786.00,1.5323
3785.00,1.5530
3784.00,1.5732
3783.00,1.5927
3782.00,1.6114
3781.00,1.6294
3780.00,1.6468
3779.00,1.6638
3778.00,1.6800
3777.00,1.6954
3776.00,1.7100
3775.00,1.7238
3774.00,1.7368
3773.00,1.7488
3772.00,1.7598
3771.00,1.7703
3770.00,1.7804
3769.00,1.7899
3768.00,1.7988
3767.00,1.8070
3766.00,1.8148
3765.00,1.8221
3764.00,1.8287
3763.00,1.8346
3762.00,1.8398
3761.00,1.8444
3760.00,1.8486
3759.00,1.8529
3758.00,1.8572
3757.00,1.8617
3756.00,1.8662
3755.00,1.8706
3754.00,1.8750
3753.00,1.8795
3752.00,1.8843
3751.00,1.8894
3750.00,1.8946
3749.00,1.9001
3748.00,1.9057
3747.00,1.9106
3746.00,1.9145
3745.00,1.9173
3744.00,1.9196
3743.00,1.9222
3742.00,1.9248
3741.00,1.9263
3740.00,1.9253
3739.00,1.9211
3738.00,1.9134
3737.00,1.9022
3736.00,1.8877
3735.00,1.8706
3734.00,1.8512
3733.00,1.8296
3732.00,1.8056
3731.00,1.7801
3730.00,1.7552
3729.00,1.7328
3728.00,1.7135
3727.00,1.6959
3726.00,1.6785
3725.00,1.6611
3724.00,1.6448
3723.00,1.6306
3722.00,1.6176
3721.00,1.6040
3720.00,1.5884
3719.00,1.5706
3718.00,1.5504
3717.00,1.5281
3716.00,1.5038
3715.00,1.4777
3714.00,1.4493
3713.00,1.4184
3712.00,1.3847
3711.00,1.3486
3710.00,1.3112
3709.00,1.2736
3708.00,1.2372
3707.00,1.2026
3706.00,1.1698
3705.00,1.1387
3704.00,1.1093
3703.00,1.0813
3702.00,1.0548
3701.00,1.0303
3700.00,1.0084
3699.00,0.9901
3698.00,0.9758
3697.00,0.9656
3696.00,0.9593
3695.00,0.9566
3694.00,0.9576
3693.00,0.9620
3692.00,0.9697
3691.00,0.9805
3690.00,0.9939
3689.00,1.0096
3688.00,1.0273
3687.00,1.0467
3686.00,1.0671
3685.00,1.0885
3684.00,1.1109
3683.00,1.1346
3682.00,1.1593
3681.00,1.1847
3680.00,1.2102
3679.00,1.2352
3678.00,1.2595
3677.00,1.2843
3676.00,1.3113
3675.00,1.3408
3674.00,1.3705
3673.00,1.3981
3672.00,1.4234
3671.00,1.4484
3670.00,1.4746
3669.00,1.5019
3668.00,1.5290
3667.00,1.5549
3666.00,1.5793
3665.00,1.6023
3664.00,1.6243
3663.00,1.6456
3662.00,1.6665
3661.00,1.6867
3660.00,1.7061
3659.00,1.7244
3658.00,1.7421
3657.00,1.7597
3656.00,1.7782
3655.00,1.7971
3654.00,1.8156
3653.00,1.8329
3652.00,1.8492
3651.00,1.8652
3650.00,1.8815
3649.00,1.8980
3648.00,1.9146
3647.00,1.9315
3646.00,1.9483
3645.00,1.9643
3644.00,1.9794
3643.00,1.9938
3642.00,2.0073
3641.00,2.0196
3640.00,2.0306
3639.00,2.0402
3638.00,2.0480
3637.00,2.0538
3636.00,2.0579
3635.00,2.0604
3634.00,2.0615
3633.00,2.0610
3632.00,2.0586
3631.00,2.0539
3630.00,2.0473
3629.00,2.0393
3628.00,2.0311
3627.00,2.0243
3626.00,2.0201
3625.00,2.0180
3624.00,2.0172
3623.00,2.0171
3622.00,2.0179
3621.00,2.0201
3620.00,2.0236
3619.00,2.0269
3618.00,2.0292
3617.00,2.0301
3616.00,2.0300
3615.00,2.0286
3614.00,2.0258
3613.00,2.0216
3612.00,2.0161
3611.00,2.0095
3610.00,2.0020
3609.00,1.9936
3608.00,1.9845
3607.00,1.9747
3606.00,1.9645
3605.00,1.9539
3604.00,1.9430
3603.00,1.9317
3602.00,1.9199
3601.00,1.9077
3600.00,1.8949
3599.00,1.8815
3598.00,1.8675
3597.00,1.8529
3596.00,1.8379
3595.00,1.8225
3594.00,1.8071
3593.00,1.7917
3592.00,1.7767
3591.00,1.7621
3590.00,1.7475
3589.00,1.7327
3588.00,1.7176
3587.00,1.7025
3586.00,1.6876
3585.00,1.6732
3584.00,1.6595
3583.00,1.6462
3582.00,1.6332
3581.00,1.6205
3580.00,1.6080
3579.00,1.5956
3578.00,1.5836
3577.00,1.5721
3576.00,1.5613
3575.00,1.5513
3574.00,1.5419
3573.00,1.5332
3572.00,1.5252
3571.00,1.5180
3570.00,1.5116
3569.00,1.5062
3568.00,1.5021
3567.00,1.4992
3566.00,1.4972
3565.00,1.4960
3564.00,1.4961
3563.00,1.4976
3562.00,1.5004
3561.00,1.5043
3560.00,1.5091
3559.00,1.5149
3558.00,1.5215
3557.00,1.5290
3556.00,1.5374
3555.00,1.5467
3554.00,1.5566
3553.00,1.5672
3552.00,1.5784
3551.00,1.5898
3550.00,1.6014
3549.00,1.6135
3548.00,1.6262
3547.00,1.6396
3546.00,1.6533
3545.00,1.6670
3544.00,1.6808
3543.00,1.6947
3542.00,1.7088
3541.00,1.7230
3540.00,1.7373
3539.00,1.7514
3538.00,1.7654
3537.00,1.7792
3536.00,1.7930
3535.00,1.8066
3534.00,1.8199
3533.00,1.8330
3532.00,1.8459
3531.00,1.8588
3530.00,1.8717
3529.00,1.8847
3528.00,1.8972
3527.00,1.9090
3526.00,1.9203
3525.00,1.9316
3524.00,1.9430
3523.00,1.9540
3522.00,1.9640
3521.00,1.9732
3520.00,1.9823
3519.00,1.9916
3518.00,2.0008
3517.00,2.0095
3516.00,2.0178
3515.00,2.0260
3514.00,2.0342
3513.00,2.0421
3512.00,2.0495
3511.00,2.0562
3510.00,2.0620
3509.00,2.0672
3508.00,2.0725
3507.00,2.0782
3506.00,2.0842
3505.00,2.0898
3504.00,2.0946
3503.00,2.0982
3502.00,2.1007
3501.00,2.1032
3500.00,2.1061
3499.00,2.1094
3498.00,2.1127
3497.00,2.1154
3496.00,2.1174
3495.00,2.1188
3494.00,2.1198
3493.00,2.1208
3492.00,2.1218
3491.00,2.1226
3490.00,2.1227
3489.00,2.1218
3488.00,2.1203
3487.00,2.1182
3486.00,2.1159
3485.00,2.1135
3484.00,2.1112
3483.00,2.1087
3482.00,2.1057
3481.00,2.1024
3480.00,2.0991
3479.00,2.0958
3478.00,2.0921
3477.00,2.0879
3476.00,2.0832
3475.00,2.0778
3474.00,2.0713
3473.00,2.0636
3472.00,2.0553
3471.00,2.0471
3470.00,2.0396
3469.00,2.0322
3468.00,2.0244
3467.00,2.0160
3466.00,2.0072
3465.00,1.9982
3464.00,1.9885
3463.00,1.9779
3462.00,1.9664
3461.00,1.9547
3460.00,1.9428
3459.00,1.9308
3458.00,1.9185
3457.00,1.9059
3456.00,1.8930
3455.00,1.8796
3454.00,1.8655
3453.00,1.8511
3452.00,1.8367
3451.00,1.8225
3450.00,1.8082
3449.00,1.7936
3448.00,1.7787
3447.00,1.7637
3446.00,1.7487
3445.00,1.7339
3444.00,1.7192
3443.00,1.7046
3442.00,1.6903
3441.00,1.6762
3440.00,1.6624
3439.00,1.6492
3438.00,1.6365
3437.00,1.6248
3436.00,1.6142
3435.00,1.6047
3434.00,1.5960
3433.00,1.5883
3432.00,1.5817
3431.00,1.5764
3430.00,1.5727
3429.00,1.5702
3428.00,1.5690
3427.00,1.5690
3426.00,1.5703
3425.00,1.5730
3424.00,1.5770
3423.00,1.5822
3422.00,1.5885
3421.00,1.5960
3420.00,1.6048
3419.00,1.6147
3418.00,1.6254
3417.00,1.6366
3416.00,1.6482
3415.00,1.6601
3414.00,1.6721
3413.00,1.6844
3412.00,1.6968
3411.00,1.7091
3410.00,1.7212
3409.00,1.7328
3408.00,1.7440
3407.00,1.7548
3406.00,1.7652
3405.00,1.7752
3404.00,1.7849
3403.00,1.7942
3402.00,1.8030
3401.00,1.8115
3400.00,1.8198
3399.00,1.8280
3398.00,1.8364
3397.00,1.8450
3396.00,1.8539
3395.00,1.8634
3394.00,1.8732
3393.00,1.8832
3392.00,1.8933
3391.00,1.9034
3390.00,1.9133
3389.00,1.9233
3388.00,1.9334
3387.00,1.9439
3386.00,1.9544
3385.00,1.9650
3384.00,1.9752
3383.00,1.9852
3382.00,1.9947
3381.00,2.0040
3380.00,2.0130
3379.00,2.0219
3378.00,2.0307
3377.00,2.0394
3376.00,2.0481
3375.00,2.0564
3374.00,2.0640
3373.00,2.0709
3372.00,2.0773
3371.00,2.0832
3370.00,2.0886
3369.00,2.0934
3368.00,2.0981
3367.00,2.1029
3366.00,2.1078
3365.00,2.1124
3364.00,2.1164
3363.00,2.1193
3362.00,2.1212
3361.00,2.1223
3360.00,2.1231
3359.00,2.1240
3358.00,2.1250
3357.00,2.1257
3356.00,2.1259
3355.00,2.1253
3354.00,2.1238
3353.00,2.1216
3352.00,2.1188
3351.00,2.1156
3350.00,2.1120
3349.00,2.1078
3348.00,2.1032
3347.00,2.0984
3346.00,2.0934
3345.00,2.0880
3344.00,2.0820
3343.00,2.0753
3342.00,2.0681
3341.00,2.0604
3340.00,2.0522
3339.00,2.0435
3338.00,2.0341
3337.00,2.0244
3336.00,2.0142
3335.00,2.0037
3334.00,1.9924
3333.00,1.9805
3332.00,1.9680
3331.00,1.9549
3330.00,1.9414
3329.00,1.9272
3328.00,1.9124
3327.00,1.8969
3326.00,1.8807
3325.00,1.8640
3324.00,1.8469
3323.00,1.8294
3322.00,1.8117
3321.00,1.7938
3320.00,1.7755
3319.00,1.7568
3318.00,1.7378
3317.00,1.7185
3316.00,1.6991
3315.00,1.6794
3314.00,1.6596
3313.00,1.6399
3312.00,1.6207
3311.00,1.6020
3310.00,1.5839
3309.00,1.5663
3308.00,1.5494
3307.00,1.5333
3306.00,1.5183
3305.00,1.5044
3304.00,1.4918
3303.00,1.4805
3302.00,1.4706
3301.00,1.4623
3300.00,1.4556
3299.00,1.4507
3298.00,1.4474
3297.00,1.4459
3296.00,1.4462
3295.00,1.4482
3294.00,1.4518
3293.00,1.4569
3292.00,1.4636
3291.00,1.4717
3290.00,1.4812
3289.00,1.4922
3288.00,1.5044
3287.00,1.5178
3286.00,1.5320
3285.00,1.5471
3284.00,1.5628
3283.00,1.5791
3282.00,1.5959
3281.00,1.6132
3280.00,1.6312
3279.00,1.6496
3278.00,1.6682
3277.00,1.6869
3276.00,1.7055
3275.00,1.7244
3274.00,1.7436
3273.00,1.7629
3272.00,1.7820
3271.00,1.8004
3270.00,1.8180
3269.00,1.8354
3268.00,1.8529
3267.00,1.8704
3266.00,1.8876
3265.00,1.9042
3264.00,1.9202
3263.00,1.9357
3262.00,1.9508
3261.00,1.9656
3260.00,1.9799
3259.00,1.9936
3258.00,2.0068
3257.00,2.0196
3256.00,2.0320
3255.00,2.0438
3254.00,2.0551
3253.00,2.0657
3252.00,2.0758
3251.00,2.0855
3250.00,2.0950
3249.00,2.1043
3248.00,2.1133
3247.00,2.1218
3246.00,2.1297
3245.00,2.1368
3244.00,2.1433
3243.00,2.1491
3242.00,2.1544
3241.00,2.1594
3240.00,2.1641
3239.00,2.1682
3238.00,2.1715
3237.00,2.1740
3236.00,2.1763
3235.00,2.1785
3234.00,2.1803
3233.00,2.1816
3232.00,2.1823
3231.00,2.1825
3230.00,2.1822
3229.00,2.1817
3228.00,2.1813
3227.00,2.1811
3226.00,2.1807
3225.00,2.1793
3224.00,2.1766
3223.00,2.1729
3222.00,2.1689
3221.00,2.1648
3220.00,2.1605
3219.00,2.1558
3218.00,2.1504
3217.00,2.1445
3216.00,2.1383
3215.00,2.1319
3214.00,2.1250
3213.00,2.1177
3212.00,2.1093
3211.00,2.0997
3210.00,2.0892
3209.00,2.0784
3208.00,2.0680
3207.00,2.0581
3206.00,2.0480
3205.00,2.0369
3204.00,2.0245
3203.00,2.0112
3202.00,1.9975
3201.00,1.9837
3200.00,1.9696
3199.00,1.9551
3198.00,1.9401
3197.00,1.9246
3196.00,1.9087
3195.00,1.8923
3194.00,1.8754
3193.00,1.8579
3192.00,1.8399
3191.00,1.8217
3190.00,1.8033
3189.00,1.7851
3188.00,1.7672
3187.00,1.7495
3186.00,1.7317
3185.00,1.7140
3184.00,1.6964
3183.00,1.6792
3182.00,1.6627
3181.00,1.6470
3180.00,1.6323
3179.00,1.6185
3178.00,1.6057
3177.00,1.5940
3176.00,1.5835
3175.00,1.5744
3174.00,1.5666
3173.00,1.5602
3172.00,1.5552
3171.00,1.5516
3170.00,1.5496
3169.00,1.5492
3168.00,1.5507
3167.00,1.5537
3166.00,1.5581
3165.00,1.5639
3164.00,1.5711
3163.00,1.5795
3162.00,1.5891
3161.00,1.5998
3160.00,1.6116
3159.00,1.6246
3158.00,1.6385
3157.00,1.6534
3156.00,1.6690
3155.00,1.6850
3154.00,1.7013
3153.00,1.7180
3152.00,1.7352
3151.00,1.7531
3150.00,1.7714
3149.00,1.7897
3148.00,1.8077
3147.00,1.8253
3146.00,1.8428
3145.00,1.8605
3144.00,1.8783
3143.00,1.8960
3142.00,1.9133
3141.00,1.9303
3140.00,1.9471
3139.00,1.9637
3138.00,1.9798
3137.00,1.9954
3136.00,2.0107
3135.00,2.0254
3134.00,2.0392
3133.00,2.0522
3132.00,2.0647
3131.00,2.0772
3130.00,2.0898
3129.00,2.1020
3128.00,2.1135
3127.00,2.1239
3126.00,2.1335
3125.00,2.1427
3124.00,2.1520
3123.00,2.1618
3122.00,2.1721
3121.00,2.1822
3120.00,2.1914
3119.00,2.1990
3118.00,2.2051
3117.00,2.2105
3116.00,2.2154
3115.00,2.2201
3114.00,2.2238
3113.00,2.2266
3112.00,2.2286
3111.00,2.2306
3110.00,2.2327
3109.00,2.2351
3108.00,2.2373
3107.00,2.2388
3106.00,2.2397
3105.00,2.2400
3104.00,2.2399
3103.00,2.2388
3102.00,2.2368
3101.00,2.2342
3100.00,2.2315
3099.00,2.2288
3098.00,2.2259
3097.00,2.2220
3096.00,2.2171
3095.00,2.2114
3094.00,2.2053
3093.00,2.1988
3092.00,2.1917
3091.00,2.1834
3090.00,2.1741
3089.00,2.1643
3088.00,2.1543
3087.00,2.1443
3086.00,2.1340
3085.00,2.1229
3084.00,2.1110
3083.00,2.0982
3082.00,2.0845
3081.00,2.0701
3080.00,2.0550
3079.00,2.0390
3078.00,2.0222
3077.00,2.0045
3076.00,1.9861
3075.00,1.9674
3074.00,1.9485
3073.00,1.9295
3072.00,1.9101
3071.00,1.8903
3070.00,1.8699
3069.00,1.8490
3068.00,1.8280
3067.00,1.8071
3066.00,1.7867
3065.00,1.7669
3064.00,1.7479
3063.00,1.7297
3062.00,1.7124
3061.00,1.6964
3060.00,1.6818
3059.00,1.6687
3058.00,1.6570
3057.00,1.6467
3056.00,1.6381
3055.00,1.6312
3054.00,1.6264
3053.00,1.6237
3052.00,1.6231
3051.00,1.6245
3050.00,1.6276
3049.00,1.6325
3048.00,1.6392
3047.00,1.6480
3046.00,1.6591
3045.00,1.6723
3044.00,1.6875
3043.00,1.7041
3042.00,1.7221
3041.00,1.7412
3040.00,1.7612
3039.00,1.7819
3038.00,1.8034
3037.00,1.8259
3036.00,1.8493
3035.00,1.8735
3034.00,1.8978
3033.00,1.9219
3032.00,1.9457
3031.00,1.9693
3030.00,1.9927
3029.00,2.0158
3028.00,2.0382
3027.00,2.0598
3026.00,2.0807
3025.00,2.1012
3024.00,2.1215
3023.00,2.1410
3022.00,2.1593
3021.00,2.1760
3020.00,2.1915
3019.00,2.2065
3018.00,2.2212
3017.00,2.2356
3016.00,2.2494
3015.00,2.2625
3014.00,2.2744
3013.00,2.2848
3012.00,2.2937
3011.00,2.3017
3010.00,2.3096
3009.00,2.3174
3008.00,2.3245
3007.00,2.3302
3006.00,2.3342
3005.00,2.3367
3004.00,2.3377
3003.00,2.3374
3002.00,2.3359
3001.00,2.3332
3000.00,2.3291
2999.00,2.3237
2998.00,2.3172
2997.00,2.3100
2996.00,2.3020
2995.00,2.2928
2994.00,2.2818
2993.00,2.2693
2992.00,2.2559
2991.00,2.2426
2990.00,2.2300
2989.00,2.2190
2988.00,2.2101
2987.00,2.2042
2986.00,2.2019
2985.00,2.2043
2984.00,2.2118
2983.00,2.2249
2982.00,2.2440
2981.00,2.2698
2980.00,2.3030
2979.00,2.3438
2978.00,2.3917
2977.00,2.4461
2976.00,2.5061
2975.00,2.5717
2974.00,2.6425
2973.00,2.7173
2972.00,2.7947
2971.00,2.8733
2970.00,2.9532
2969.00,3.0368
2968.00,3.1289
2967.00,3.2345
2966.00,3.3543
2965.00,3.4782
2964.00,3.5856
2963.00,3.6617
2962.00,3.7137
2961.00,3.7577
2960.00,3.8000
2959.00,3.8374
2958.00,3.8622
2957.00,3.8675
2956.00,3.8599
2955.00,3.8617
2954.00,3.8890
2953.00,3.9278
2952.00,3.9401
2951.00,3.9159
2950.00,3.8945
2949.00,3.9120
2948.00,3.9675
2947.00,4.0244
2946.00,4.0405
2945.00,4.0136
2944.00,3.9706
2943.00,3.9355
2942.00,3.9273
2941.00,3.9622
2940.00,4.0397
2939.00,4.1226
2938.00,4.1518
2937.00,4.1216
2936.00,4.0947
2935.00,4.1228
2934.00,4.2179
2933.00,4.3485
2932.00,4.4459
2931.00,4.4879
2930.00,4.4948
2929.00,4.4458
2928.00,4.3377
2927.00,4.2338
2926.00,4.1745
2925.00,4.1511
2924.00,4.1304
2923.00,4.0881
2922.00,4.0327
2921.00,3.9860
2920.00,3.9469
2919.00,3.8904
2918.00,3.8018
2917.00,3.6973
2916.00,3.5982
2915.00,3.5135
2914.00,3.4443
2913.00,3.3900
2912.00,3.3468
2911.00,3.3082
2910.00,3.2700
2909.00,3.2326
2908.00,3.1984
2907.00,3.1691
2906.00,3.1448
2905.00,3.1245
2904.00,3.1067
2903.00,3.0890
2902.00,3.0693
2901.00,3.0481
2900.00,3.0266
2899.00,3.0058
2898.00,2.9848
2897.00,2.9628
2896.00,2.9401
2895.00,2.9182
2894.00,2.8981
2893.00,2.8796
2892.00,2.8613
2891.00,2.8433
2890.00,2.8264
2889.00,2.8116
2888.00,2.7994
2887.00,2.7901
2886.00,2.7846
2885.00,2.7834
2884.00,2.7868
2883.00,2.7949
2882.00,2.8080
2881.00,2.8263
2880.00,2.8484
2879.00,2.8741
2878.00,2.9053
2877.00,2.9456
2876.00,2.9964
2875.00,3.0554
2874.00,3.1177
2873.00,3.1796
2872.00,3.2400
2871.00,3.3010
2870.00,3.3692
2869.00,3.4531
2868.00,3.5567
2867.00,3.6717
2866.00,3.7762
2865.00,3.8492
2864.00,3.8869
2863.00,3.8963
2862.00,3.8824
2861.00,3.8440
2860.00,3.7791
2859.00,3.6938
2858.00,3.6019
2857.00,3.5125
2856.00,3.4226
2855.00,3.3269
2854.00,3.2277
2853.00,3.1306
2852.00,3.0374
2851.00,2.9464
2850.00,2.8575
2849.00,2.7736
2848.00,2.6966
2847.00,2.6260
2846.00,2.5597
2845.00,2.4961
2844.00,2.4345
2843.00,2.3750
2842.00,2.3181
2841.00,2.2645
2840.00,2.2150
2839.00,2.1702
2838.00,2.1305
2837.00,2.0962
2836.00,2.0674
2835.00,2.0440
2834.00,2.0257
2833.00,2.0123
2832.00,2.0036
2831.00,1.9988
2830.00,1.9972
2829.00,1.9976
2828.00,1.9991
2827.00,2.0013
2826.00,2.0041
2825.00,2.0079
2824.00,2.0129
2823.00,2.0189
2822.00,2.0260
2821.00,2.0342
2820.00,2.0442
2819.00,2.0561
2818.00,2.0698
2817.00,2.0853
2816.00,2.1026
2815.00,2.1213
2814.00,2.1407
2813.00,2.1599
2812.00,2.1791
2811.00,2.1985
2810.00,2.2179
2809.00,2.2368
2808.00,2.2548
2807.00,2.2718
2806.00,2.2876
2805.00,2.3023
2804.00,2.3160
2803.00,2.3291
2802.00,2.3417
2801.00,2.3537
2800.00,2.3644
2799.00,2.3734
2798.00,2.3806
2797.00,2.3863
2796.00,2.3910
2795.00,2.3948
2794.00,2.3980
2793.00,2.4005
2792.00,2.4024
2791.00,2.4038
2790.00,2.4048
2789.00,2.4053
2788.00,2.4050
2787.00,2.4035
2786.00,2.4009
2785.00,2.3975
2784.00,2.3932
2783.00,2.3884
2782.00,2.3832
2781.00,2.3777
2780.00,2.3717
2779.00,2.3647
2778.00,2.3565
2777.00,2.3474
2776.00,2.3377
2775.00,2.3273
2774.00,2.3158
2773.00,2.3031
2772.00,2.2896
2771.00,2.2752
2770.00,2.2596
2769.00,2.2428
2768.00,2.2248
2767.00,2.2061
2766.00,2.1868
2765.00,2.1667
2764.00,2.1455
2763.00,2.1229
2762.00,2.0989
2761.00,2.0738
2760.00,2.0476
2759.00,2.0203
2758.00,1.9912
2757.00,1.9602
2756.00,1.9272
2755.00,1.8926
2754.00,1.8568
2753.00,1.8196
2752.00,1.7812
2751.00,1.7420
2750.00,1.7022
2749.00,1.6625
2748.00,1.6233
2747.00,1.5851
2746.00,1.5486
2745.00,1.5141
2744.00,1.4825
2743.00,1.4540
2742.00,1.4293
2741.00,1.4087
2740.00,1.3926
2739.00,1.3813
2738.00,1.3748
2737.00,1.3733
2736.00,1.3765
2735.00,1.3842
2734.00,1.3959
2733.00,1.4114
2732.00,1.4303
2731.00,1.4521
2730.00,1.4764
2729.00,1.5029
2728.00,1.5313
2727.00,1.5613
2726.00,1.5926
2725.00,1.6249
2724.00,1.6579
2723.00,1.6914
2722.00,1.7252
2721.00,1.7590
2720.00,1.7928
2719.00,1.8264
2718.00,1.8594
2717.00,1.8919
2716.00,1.9238
2715.00,1.9549
2714.00,1.9849
2713.00,2.0138
2712.00,2.0419
2711.00,2.0693
2710.00,2.0962
2709.00,2.1220
2708.00,2.1465
2707.00,2.1698
2706.00,2.1921
2705.00,2.2134
2704.00,2.2332
2703.00,2.2514
2702.00,2.2686
2701.00,2.2850
2700.00,2.3009
2699.00,2.3164
2698.00,2.3316
2697.00,2.3469
2696.00,2.3615
2695.00,2.3746
2694.00,2.3855
2693.00,2.3946
2692.00,2.4031
2691.00,2.4117
2690.00,2.4204
2689.00,2.4288
2688.00,2.4364
2687.00,2.4429
2686.00,2.4483
2685.00,2.4534
2684.00,2.4587
2683.00,2.4642
2682.00,2.4696
2681.00,2.4741
2680.00,2.4777
2679.00,2.4802
2678.00,2.4815
2677.00,2.4814
2676.00,2.4803
2675.00,2.4792
2674.00,2.4784
2673.00,2.4780
2672.00,2.4774
2671.00,2.4763
2670.00,2.4743
2669.00,2.4713
2668.00,2.4671
2667.00,2.4622
2666.00,2.4576
2665.00,2.4533
2664.00,2.4483
2663.00,2.4412
2662.00,2.4316
2661.00,2.4203
2660.00,2.4084
2659.00,2.3968
2658.00,2.3859
2657.00,2.3756
2656.00,2.3652
2655.00,2.3543
2654.00,2.3427
2653.00,2.3306
2652.00,2.3179
2651.00,2.3041
2650.00,2.2890
2649.00,2.2727
2648.00,2.2554
2647.00,2.2373
2646.00,2.2184
2645.00,2.1988
2644.00,2.1781
2643.00,2.1558
2642.00,2.1319
2641.00,2.1065
2640.00,2.0799
2639.00,2.0517
2638.00,2.0217
2637.00,1.9899
2636.00,1.9567
2635.00,1.9224
2634.00,1.8870
2633.00,1.8507
2632.00,1.8136
2631.00,1.7758
2630.00,1.7377
2629.00,1.7000
2628.00,1.6630
2627.00,1.6273
2626.00,1.5933
2625.00,1.5616
2624.00,1.5325
2623.00,1.5066
2622.00,1.4842
2621.00,1.4654
2620.00,1.4505
2619.00,1.4394
2618.00,1.4322
2617.00,1.4290
2616.00,1.4296
2615.00,1.4339
2614.00,1.4416
2613.00,1.4522
2612.00,1.4656
2611.00,1.4813
2610.00,1.4991
2609.00,1.5188
2608.00,1.5401
2607.00,1.5630
2606.00,1.5874
2605.00,1.6134
2604.00,1.6410
2603.00,1.6700
2602.00,1.7001
2601.00,1.7308
2600.00,1.7621
2599.00,1.7939
2598.00,1.8262
2597.00,1.8587
2596.00,1.8911
2595.00,1.9233
2594.00,1.9551
2593.00,1.9862
2592.00,2.0166
2591.00,2.0464
2590.00,2.0758
2589.00,2.1049
2588.00,2.1331
2587.00,2.1599
2586.00,2.1850
2585.00,2.2084
2584.00,2.2305
2583.00,2.2515
2582.00,2.2716
2581.00,2.2909
2580.00,2.3096
2579.00,2.3278
2578.00,2.3453
2577.00,2.3618
2576.00,2.3772
2575.00,2.3919
2574.00,2.4058
2573.00,2.4185
2572.00,2.4298
2571.00,2.4398
2570.00,2.4494
2569.00,2.4590
2568.00,2.4684
2567.00,2.4768
2566.00,2.4844
2565.00,2.4917
2564.00,2.4989
2563.00,2.5063
2562.00,2.5135
2561.00,2.5204
2560.00,2.5264
2559.00,2.5312
2558.00,2.5348
2557.00,2.5375
2556.00,2.5398
2555.00,2.5421
2554.00,2.5442
2553.00,2.5457
2552.00,2.5458
2551.00,2.5445
2550.00,2.5425
2549.00,2.5412
2548.00,2.5409
2547.00,2.5406
2546.00,2.5385
2545.00,2.5343
2544.00,2.5289
2543.00,2.5237
2542.00,2.5193
2541.00,2.5151
2540.00,2.5102
2539.00,2.5042
2538.00,2.4976
2537.00,2.4907
2536.00,2.4837
2535.00,2.4763
2534.00,2.4684
2533.00,2.4595
2532.00,2.4492
2531.00,2.4370
2530.00,2.4229
2529.00,2.4080
2528.00,2.3934
2527.00,2.3792
2526.00,2.3651
2525.00,2.3502
2524.00,2.3344
2523.00,2.3173
2522.00,2.2988
2521.00,2.2790
2520.00,2.2582
2519.00,2.2365
2518.00,2.2136
2517.00,2.1889
2516.00,2.1623
2515.00,2.1342
2514.00,2.1047
2513.00,2.0740
2512.00,2.0422
2511.00,2.0091
2510.00,1.9744
2509.00,1.9378
2508.00,1.8994
2507.00,1.8594
2506.00,1.8178
2505.00,1.7748
2504.00,1.7306
2503.00,1.6858
2502.00,1.6409
2501.00,1.5966
2500.00,1.5534
2499.00,1.5121
2498.00,1.4734
2497.00,1.4380
2496.00,1.4065
2495.00,1.3794
2494.00,1.3571
2493.00,1.3401
2492.00,1.3287
2491.00,1.3231
2490.00,1.3236
2489.00,1.3299
2488.00,1.3418
2487.00,1.3589
2486.00,1.3806
2485.00,1.4062
2484.00,1.4352
2483.00,1.4668
2482.00,1.5007
2481.00,1.5363
2480.00,1.5733
2479.00,1.6112
2478.00,1.6497
2477.00,1.6885
2476.00,1.7277
2475.00,1.7670
2474.00,1.8062
2473.00,1.8451
2472.00,1.8834
2471.00,1.9210
2470.00,1.9577
2469.00,1.9933
2468.00,2.0279
2467.00,2.0613
2466.00,2.0936
2465.00,2.1249
2464.00,2.1549
2463.00,2.1836
2462.00,2.2110
2461.00,2.2371
2460.00,2.2620
2459.00,2.2856
2458.00,2.3080
2457.00,2.3294
2456.00,2.3499
2455.00,2.3699
2454.00,2.3892
2453.00,2.4076
2452.00,2.4250
2451.00,2.4412
2450.00,2.4563
2449.00,2.4699
2448.00,2.4824
2447.00,2.4944
2446.00,2.5068
2445.00,2.5193
2444.00,2.5312
2443.00,2.5416
2442.00,2.5507
2441.00,2.5591
2440.00,2.5669
2439.00,2.5743
2438.00,2.5814
2437.00,2.5881
2436.00,2.5939
2435.00,2.5986
2434.00,2.6030
2433.00,2.6078
2432.00,2.6126
2431.00,2.6169
2430.00,2.6202
2429.00,2.6227
2428.00,2.6245
2427.00,2.6254
2426.00,2.6256
2425.00,2.6254
2424.00,2.6246
2423.00,2.6230
2422.00,2.6205
2421.00,2.6175
2420.00,2.6142
2419.00,2.6108
2418.00,2.6074
2417.00,2.6038
2416.00,2.5998
2415.00,2.5952
2414.00,2.5906
2413.00,2.5861
2412.00,2.5810
2411.00,2.5745
2410.00,2.5662
2409.00,2.5566
2408.00,2.5466
2407.00,2.5365
2406.00,2.5262
2405.00,2.5151
2404.00,2.5026
2403.00,2.4889
2402.00,2.4747
2401.00,2.4601
2400.00,2.4445
2399.00,2.4275
2398.00,2.4095
2397.00,2.3913
2396.00,2.3735
2395.00,2.3563
2394.00,2.3406
2393.00,2.3277
2392.00,2.3190
2391.00,2.3164
2390.00,2.3220
2389.00,2.3374
2388.00,2.3626
2387.00,2.3958
2386.00,2.4330
2385.00,2.4693
2384.00,2.5005
2383.00,2.5242
2382.00,2.5399
2381.00,2.5479
2380.00,2.5495
2379.00,2.5482
2378.00,2.5481
2377.00,2.5504
2376.00,2.5546
2375.00,2.5631
2374.00,2.5772
2373.00,2.5928
2372.00,2.6085
2371.00,2.6281
2370.00,2.6472
2369.00,2.6640
2368.00,2.6793
2367.00,2.6903
2366.00,2.7024
2365.00,2.7113
2364.00,2.7155
2363.00,2.7172
2362.00,2.7128
2361.00,2.7031
2360.00,2.6919
2359.00,2.7098
2358.00,2.7642
2357.00,2.8168
2356.00,2.8340
2355.00,2.8150
2354.00,2.8127
2353.00,2.8528
2352.00,2.9137
2351.00,2.9578
2350.00,2.9588
2349.00,2.9412
2348.00,2.9198
2347.00,2.9064
2346.00,2.8984
2345.00,2.8939
2344.00,2.8914
2343.00,2.8943
2342.00,2.9037
2341.00,2.9200
2340.00,2.9364
2339.00,2.9498
2338.00,2.9601
2337.00,2.9594
2336.00,2.9621
2335.00,2.9612
2334.00,2.9664
2333.00,2.9692
2332.00,2.9746
2331.00,2.9867
2330.00,2.9977
2329.00,3.0036
2328.00,2.9944
2327.00,2.9765
2326.00,2.9557
2325.00,2.9375
2324.00,2.9262
2323.00,2.9191
2322.00,2.9193
2321.00,2.9191
2320.00,2.9195
2319.00,2.9124
2318.00,2.9034
2317.00,2.8895
2316.00,2.8769
2315.00,2.8621
2314.00,2.8489
2313.00,2.8344
2312.00,2.8220
2311.00,2.8102
2310.00,2.8028
2309.00,2.7978
2308.00,2.7980
2307.00,2.7993
2306.00,2.8024
2305.00,2.8026
2304.00,2.8020
2303.00,2.7991
2302.00,2.7970
2301.00,2.7937
2300.00,2.7889
2299.00,2.7805
2298.00,2.7698
2297.00,2.7589
2296.00,2.7490
2295.00,2.7405
2294.00,2.7328
2293.00,2.7267
2292.00,2.7219
2291.00,2.7187
2290.00,2.7160
2289.00,2.7143
2288.00,2.7140
2287.00,2.7147
2286.00,2.7148
2285.00,2.7135
2284.00,2.7108
2283.00,2.7063
2282.00,2.6999
2281.00,2.6913
2280.00,2.6816
2279.00,2.6713
2278.00,2.6601
2277.00,2.6473
2276.00,2.6328
2275.00,2.6175
2274.00,2.6017
2273.00,2.5850
2272.00,2.5664
2271.00,2.5460
2270.00,2.5246
2269.00,2.5028
2268.00,2.4802
2267.00,2.4561
2266.00,2.4298
2265.00,2.4017
2264.00,2.3720
2263.00,2.3409
2262.00,2.3085
2261.00,2.2750
2260.00,2.2409
2259.00,2.2063
2258.00,2.1708
2257.00,2.1338
2256.00,2.0952
2255.00,2.0553
2254.00,2.0148
2253.00,1.9738
2252.00,1.9316
2251.00,1.8872
2250.00,1.8400
2249.00,1.7903
2248.00,1.7393
2247.00,1.6881
2246.00,1.6380
2245.00,1.5901
2244.00,1.5454
2243.00,1.5049
2242.00,1.4694
2241.00,1.4399
2240.00,1.4172
2239.00,1.4018
2238.00,1.3939
2237.00,1.3935
2236.00,1.4004
2235.00,1.4142
2234.00,1.4343
2233.00,1.4600
2232.00,1.4904
2231.00,1.5248
2230.00,1.5623
2229.00,1.6024
2228.00,1.6445
2227.00,1.6879
2226.00,1.7320
2225.00,1.7765
2224.00,1.8210
2223.00,1.8654
2222.00,1.9096
2221.00,1.9533
2220.00,1.9963
2219.00,2.0385
2218.00,2.0798
2217.00,2.1201
2216.00,2.1589
2215.00,2.1963
2214.00,2.2324
2213.00,2.2672
2212.00,2.3002
2211.00,2.3313
2210.00,2.3607
2209.00,2.3889
2208.00,2.4163
2207.00,2.4425
2206.00,2.4673
2205.00,2.4909
2204.00,2.5134
2203.00,2.5344
2202.00,2.5533
2201.00,2.5703
2200.00,2.5864
2199.00,2.6025
2198.00,2.6190
2197.00,2.6354
2196.00,2.6511
2195.00,2.6655
2194.00,2.6789
2193.00,2.6914
2192.00,2.7029
2191.00,2.7129
2190.00,2.7215
2189.00,2.7292
2188.00,2.7369
2187.00,2.7450
2186.00,2.7536
2185.00,2.7626
2184.00,2.7716
2183.00,2.7798
2182.00,2.7863
2181.00,2.7904
2180.00,2.7928
2179.00,2.7946
2178.00,2.7968
2177.00,2.7998
2176.00,2.8033
2175.00,2.8064
2174.00,2.8084
2173.00,2.8087
2172.00,2.8076
2171.00,2.8059
2170.00,2.8048
2169.00,2.8053
2168.00,2.8074
2167.00,2.8095
2166.00,2.8092
2165.00,2.8056
2164.00,2.7996
2163.00,2.7933
2162.00,2.7878
2161.00,2.7831
2160.00,2.7788
2159.00,2.7746
2158.00,2.7696
2157.00,2.7625
2156.00,2.7529
2155.00,2.7416
2154.00,2.7301
2153.00,2.7187
2152.00,2.7074
2151.00,2.6954
2150.00,2.6827
2149.00,2.6691
2148.00,2.6548
2147.00,2.6400
2146.00,2.6249
2145.00,2.6092
2144.00,2.5924
2143.00,2.5739
2142.00,2.5533
2141.00,2.5310
2140.00,2.5072
2139.00,2.4825
2138.00,2.4571
2137.00,2.4312
2136.00,2.4050
2135.00,2.3782
2134.00,2.3502
2133.00,2.3203
2132.00,2.2882
2131.00,2.2540
2130.00,2.2176
2129.00,2.1789
2128.00,2.1378
2127.00,2.0941
2126.00,2.0478
2125.00,1.9989
2124.00,1.9480
2123.00,1.8957
2122.00,1.8429
2121.00,1.7903
2120.00,1.7385
2119.00,1.6882
2118.00,1.6405
2117.00,1.5965
2116.00,1.5571
2115.00,1.5236
2114.00,1.4971
2113.00,1.4782
2112.00,1.4673
2111.00,1.4644
2110.00,1.4696
2109.00,1.4827
2108.00,1.5032
2107.00,1.5302
2106.00,1.5626
2105.00,1.5995
2104.00,1.6398
2103.00,1.6825
2102.00,1.7269
2101.00,1.7725
2100.00,1.8187
2099.00,1.8651
2098.00,1.9114
2097.00,1.9572
2096.00,2.0023
2095.00,2.0463
2094.00,2.0889
2093.00,2.1301
2092.00,2.1698
2091.00,2.2085
2090.00,2.2466
2089.00,2.2843
2088.00,2.3211
2087.00,2.3563
2086.00,2.3895
2085.00,2.4205
2084.00,2.4500
2083.00,2.4784
2082.00,2.5064
2081.00,2.5335
2080.00,2.5591
2079.00,2.5833
2078.00,2.6065
2077.00,2.6292
2076.00,2.6507
2075.00,2.6701
2074.00,2.6878
2073.00,2.7046
2072.00,2.7210
2071.00,2.7365
2070.00,2.7508
2069.00,2.7637
2068.00,2.7754
2067.00,2.7864
2066.00,2.7979
2065.00,2.8104
2064.00,2.8228
2063.00,2.8337
2062.00,2.8424
2061.00,2.8495
2060.00,2.8552
2059.00,2.8595
2058.00,2.8634
2057.00,2.8684
2056.00,2.8750
2055.00,2.8827
2054.00,2.8906
2053.00,2.8982
2052.00,2.9041
2051.00,2.9064
2050.00,2.9044
2049.00,2.9001
2048.00,2.8966
2047.00,2.8959
2046.00,2.8976
2045.00,2.8995
2044.00,2.8993
2043.00,2.8965
2042.00,2.8923
2041.00,2.8881
2040.00,2.8843
2039.00,2.8804
2038.00,2.8764
2037.00,2.8727
2036.00,2.8693
2035.00,2.8657
2034.00,2.8617
2033.00,2.8580
2032.00,2.8540
2031.00,2.8482
2030.00,2.8399
2029.00,2.8299
2028.00,2.8193
2027.00,2.8085
2026.00,2.7970
2025.00,2.7842
2024.00,2.7701
2023.00,2.7544
2022.00,2.7376
2021.00,2.7205
2020.00,2.7035
2019.00,2.6862
2018.00,2.6681
2017.00,2.6491
2016.00,2.6293
2015.00,2.6083
2014.00,2.5858
2013.00,2.5616
2012.00,2.5359
2011.00,2.5087
2010.00,2.4797
2009.00,2.4489
2008.00,2.4166
2007.00,2.3830
2006.00,2.3478
2005.00,2.3102
2004.00,2.2700
2003.00,2.2269
2002.00,2.1811
2001.00,2.1325
2000.00,2.0811
1999.00,2.0273
1998.00,1.9714
1997.00,1.9147
1996.00,1.8586
1995.00,1.8027
1994.00,1.7460
1993.00,1.6904
1992.00,1.6410
1991.00,1.6024
1990.00,1.5750
1989.00,1.5565
1988.00,1.5457
1987.00,1.5440
1986.00,1.5523
1985.00,1.5695
1984.00,1.5936
1983.00,1.6239
1982.00,1.6597
1981.00,1.6997
1980.00,1.7424
1979.00,1.7870
1978.00,1.8325
1977.00,1.8783
1976.00,1.9239
1975.00,1.9693
1974.00,2.0147
1973.00,2.0600
1972.00,2.1053
1971.00,2.1500
1970.00,2.1927
1969.00,2.2326
1968.00,2.2708
1967.00,2.3096
1966.00,2.3504
1965.00,2.3921
1964.00,2.4321
1963.00,2.4685
1962.00,2.5012
1961.00,2.5320
1960.00,2.5626
1959.00,2.5934
1958.00,2.6228
1957.00,2.6491
1956.00,2.6725
1955.00,2.6945
1954.00,2.7157
1953.00,2.7356
1952.00,2.7534
1951.00,2.7695
1950.00,2.7852
1949.00,2.8008
1948.00,2.8163
1947.00,2.8320
1946.00,2.8471
1945.00,2.8594
1944.00,2.8686
1943.00,2.8777
1942.00,2.8894
1941.00,2.9030
1940.00,2.9153
1939.00,2.9253
1938.00,2.9354
1937.00,2.9474
1936.00,2.9597
1935.00,2.9694
1934.00,2.9751
1933.00,2.9785
1932.00,2.9807
1931.00,2.9826
1930.00,2.9848
1929.00,2.9867
1928.00,2.9897
1927.00,2.9950
1926.00,3.0024
1925.00,3.0064
1924.00,3.0017
1923.00,2.9909
1922.00,2.9827
1921.00,2.9814
1920.00,2.9823
1919.00,2.9786
1918.00,2.9719
1917.00,2.9680
1916.00,2.9683
1915.00,2.9678
1914.00,2.9626
1913.00,2.9543
1912.00,2.9465
1911.00,2.9397
1910.00,2.9321
1909.00,2.9216
1908.00,2.9091
1907.00,2.8964
1906.00,2.8859
1905.00,2.8773
1904.00,2.8667
1903.00,2.8511
1902.00,2.8315
1901.00,2.8124
1900.00,2.7969
1899.00,2.7836
1898.00,2.7689
1897.00,2.7502
1896.00,2.7275
1895.00,2.7028
1894.00,2.6779
1893.00,2.6516
1892.00,2.6203
1891.00,2.5819
1890.00,2.5401
1889.00,2.5019
1888.00,2.4692
1887.00,2.4369
1886.00,2.3989
1885.00,2.3546
1884.00,2.3077
1883.00,2.2602
1882.00,2.2112
1881.00,2.1596
1880.00,2.1064
1879.00,2.0532
1878.00,2.0014
1877.00,1.9527
1876.00,1.9077
1875.00,1.8665
1874.00,1.8307
1873.00,1.8019
1872.00,1.7781
1871.00,1.7559
1870.00,1.7358
1869.00,1.7238
1868.00,1.7252
1867.00,1.7384
1866.00,1.7580
1865.00,1.7813
1864.00,1.8092
1863.00,1.8433
1862.00,1.8840
1861.00,1.9305
1860.00,1.9818
1859.00,2.0364
1858.00,2.0926
1857.00,2.1496
1856.00,2.2067
1855.00,2.2625
1854.00,2.3161
1853.00,2.3682
1852.00,2.4205
1851.00,2.4706
1850.00,2.5149
1849.00,2.5558
1848.00,2.5979
1847.00,2.6407
1846.00,2.6771
1845.00,2.7039
1844.00,2.7290
1843.00,2.7623
1842.00,2.8010
1841.00,2.8346
1840.00,2.8583
1839.00,2.8758
1838.00,2.8930
1837.00,2.9111
1836.00,2.9283
1835.00,2.9462
1834.00,2.9675
1833.00,2.9910
1832.00,3.0114
1831.00,3.0255
1830.00,3.0380
1829.00,3.0543
1828.00,3.0700
1827.00,3.0750
1826.00,3.0671
1825.00,3.0576
1824.00,3.0576
1823.00,3.0661
1822.00,3.0744
1821.00,3.0786
1820.00,3.0807
1819.00,3.0835
1818.00,3.0888
1817.00,3.0960
1816.00,3.1025
1815.00,3.1067
1814.00,3.1076
1813.00,3.1053
1812.00,3.0996
1811.00,3.0925
1810.00,3.0889
1809.00,3.0908
1808.00,3.0952
1807.00,3.0963
1806.00,3.0912
1805.00,3.0791
1804.00,3.0596
1803.00,3.0348
1802.00,3.0107
1801.00,2.9954
1800.00,2.9890
1799.00,2.9818
1798.00,2.9660
1797.00,2.9433
1796.00,2.9201
1795.00,2.8968
1794.00,2.8645
1793.00,2.8178
1792.00,2.7629
1791.00,2.7113
1790.00,2.6676
1789.00,2.6258
1788.00,2.5775
1787.00,2.5186
1786.00,2.4527
1785.00,2.3899
1784.00,2.3403
1783.00,2.3053
1782.00,2.2771
1781.00,2.2551
1780.00,2.2474
1779.00,2.2598
1778.00,2.2898
1777.00,2.3338
1776.00,2.3930
1775.00,2.4650
1774.00,2.5403
1773.00,2.6131
1772.00,2.6840
1771.00,2.7487
1770.00,2.7995
1769.00,2.8369
1768.00,2.8733
1767.00,2.9216
1766.00,2.9793
1765.00,3.0328
1764.00,3.0710
1763.00,3.0953
1762.00,3.1179
1761.00,3.1512
1760.00,3.1921
1759.00,3.2253
1758.00,3.2431
1757.00,3.2582
1756.00,3.2928
1755.00,3.3477
1754.00,3.4015
1753.00,3.4379
1752.00,3.4614
1751.00,3.4862
1750.00,3.5209
1749.00,3.5625
1748.00,3.6066
1747.00,3.6477
1746.00,3.6784
1745.00,3.7047
1744.00,3.7434
1743.00,3.8025
1742.00,3.8679
1741.00,3.9241
1740.00,3.9857
1739.00,4.0783
1738.00,4.1901
1737.00,4.2631
1736.00,4.2424
1735.00,4.1607
1734.00,4.1130
1733.00,4.1549
1732.00,4.2673
1731.00,4.3439
1730.00,4.3221
1729.00,4.3389
1728.00,4.4748
1727.00,4.6517
1726.00,4.7166
1725.00,4.5762
1724.00,4.4020
1723.00,4.3453
1722.00,4.3857
1721.00,4.4812
1720.00,4.6001
1719.00,4.6819
1718.00,4.5582
1717.00,4.3811
1716.00,4.2961
1715.00,4.2831
1714.00,4.3393
1713.00,4.4895
1712.00,4.7047
1711.00,4.7396
1710.00,4.6708
1709.00,4.7092
1708.00,4.7390
1707.00,4.6306
1706.00,4.5324
1705.00,4.5315
1704.00,4.6374
1703.00,4.9468
1702.00,5.1356
1701.00,4.6395
1700.00,4.5266
1699.00,4.6371
1698.00,4.7955
1697.00,4.7989
1696.00,4.7016
1695.00,4.6606
1694.00,4.5770
1693.00,4.3232
1692.00,4.0984
1691.00,3.9477
1690.00,3.8501
1689.00,3.7863
1688.00,3.7480
1687.00,3.7245
1686.00,3.6942
1685.00,3.6424
1684.00,3.5865
1683.00,3.5577
1682.00,3.5578
1681.00,3.5623
1680.00,3.5583
1679.00,3.5510
1678.00,3.5434
1677.00,3.5283
1676.00,3.5024
1675.00,3.4780
1674.00,3.4656
1673.00,3.4601
1672.00,3.4480
1671.00,3.4239
1670.00,3.3876
1669.00,3.3404
1668.00,3.2923
1667.00,3.2545
1666.00,3.2262
1665.00,3.1964
1664.00,3.1536
1663.00,3.0964
1662.00,3.0323
1661.00,2.9709
1660.00,2.9161
1659.00,2.8671
1658.00,2.8260
1657.00,2.7981
1656.00,2.7829
1655.00,2.7685
1654.00,2.7453
1653.00,2.7187
1652.00,2.7070
1651.00,2.7147
1650.00,2.7229
1649.00,2.7269
1648.00,2.7333
1647.00,2.7438
1646.00,2.7579
1645.00,2.7778
1644.00,2.8011
1643.00,2.8230
1642.00,2.8430
1641.00,2.8667
1640.00,2.9010
1639.00,2.9453
1638.00,2.9917
1637.00,3.0273
1636.00,3.0449
1635.00,3.0475
1634.00,3.0509
1633.00,3.0597
1632.00,3.0673
1631.00,3.0713
1630.00,3.0744
1629.00,3.0813
1628.00,3.0968
1627.00,3.1219
1626.00,3.1510
1625.00,3.1778
1624.00,3.1992
1623.00,3.2166
1622.00,3.2317
1621.00,3.2482
1620.00,3.2711
1619.00,3.3015
1618.00,3.3330
1617.00,3.3527
1616.00,3.3525
1615.00,3.3366
1614.00,3.3132
1613.00,3.2875
1612.00,3.2660
1611.00,3.2557
1610.00,3.2579
1609.00,3.2650
1608.00,3.2665
1607.00,3.2594
1606.00,3.2479
1605.00,3.2406
1604.00,3.2431
1603.00,3.2533
1602.00,3.2639
1601.00,3.2668
1600.00,3.2598
1599.00,3.2466
1598.00,3.2328
1597.00,3.2211
1596.00,3.2099
1595.00,3.1972
1594.00,3.1833
1593.00,3.1703
1592.00,3.1588
1591.00,3.1470
1590.00,3.1328
1589.00,3.1161
1588.00,3.0980
1587.00,3.0782
1586.00,3.0552
1585.00,3.0280
1584.00,2.9990
1583.00,2.9693
1582.00,2.9387
1581.00,2.9103
1580.00,2.8893
1579.00,2.8743
1578.00,2.8556
1577.00,2.8213
1576.00,2.7662
1575.00,2.7005
1574.00,2.6370
1573.00,2.5776
1572.00,2.5166
1571.00,2.4485
1570.00,2.3736
1569.00,2.2971
1568.00,2.2267
1567.00,2.1627
1566.00,2.1018
1565.00,2.0472
1564.00,2.0103
1563.00,1.9974
1562.00,2.0018
1561.00,2.0097
1560.00,2.0186
1559.00,2.0436
1558.00,2.0774
1557.00,2.1130
1556.00,2.1434
1555.00,2.1695
1554.00,2.2061
1553.00,2.2593
1552.00,2.3149
1551.00,2.3606
1550.00,2.4073
1549.00,2.4683
1548.00,2.5392
1547.00,2.6020
1546.00,2.6505
1545.00,2.6979
1544.00,2.7600
1543.00,2.8359
1542.00,2.9146
1541.00,2.9809
1540.00,3.0191
1539.00,3.0310
1538.00,3.0424
1537.00,3.0593
1536.00,3.0725
1535.00,3.0808
1534.00,3.0895
1533.00,3.1063
1532.00,3.1298
1531.00,3.1532
1530.00,3.1718
1529.00,3.1824
1528.00,3.1872
1527.00,3.1957
1526.00,3.2206
1525.00,3.2654
1524.00,3.3140
1523.00,3.3426
1522.00,3.3419
1521.00,3.3264
1520.00,3.3200
1519.00,3.3234
1518.00,3.3208
1517.00,3.3079
1516.00,3.2951
1515.00,3.2931
1514.00,3.2974
1513.00,3.2993
1512.00,3.2999
1511.00,3.3091
1510.00,3.3297
1509.00,3.3555
1508.00,3.3804
1507.00,3.3995
1506.00,3.4067
1505.00,3.4116
1504.00,3.4148
1503.00,3.4090
1502.00,3.3960
1501.00,3.3777
1500.00,3.3566
1499.00,3.3379
1498.00,3.3241
1497.00,3.3115
1496.00,3.2949
1495.00,3.2793
1494.00,3.2686
1493.00,3.2567
1492.00,3.2338
1491.00,3.2015
1490.00,3.1743
1489.00,3.1611
1488.00,3.1541
1487.00,3.1426
1486.00,3.1238
1485.00,3.0991
1484.00,3.0705
1483.00,3.0345
1482.00,2.9916
1481.00,2.9485
1480.00,2.9103
1479.00,2.8718
1478.00,2.8258
1477.00,2.7764
1476.00,2.7343
1475.00,2.7038
1474.00,2.6779
1473.00,2.6545
1472.00,2.6451
1471.00,2.6625
1470.00,2.7065
1469.00,2.7678
1468.00,2.8397
1467.00,2.9197
1466.00,3.0049
1465.00,3.0908
1464.00,3.1677
1463.00,3.2216
1462.00,3.2497
1461.00,3.2639
1460.00,3.2797
1459.00,3.3052
1458.00,3.3454
1457.00,3.4140
1456.00,3.5316
1455.00,3.6871
1454.00,3.8378
1453.00,3.9659
1452.00,4.0862
1451.00,4.2189
1450.00,4.3630
1449.00,4.4317
1448.00,4.2544
1447.00,4.0189
1446.00,3.8527
1445.00,3.7307
1444.00,3.6190
1443.00,3.5116
1442.00,3.4234
1441.00,3.3639
1440.00,3.3276
1439.00,3.3008
1438.00,3.2795
1437.00,3.2771
1436.00,3.3162
1435.00,3.3980
1434.00,3.5020
1433.00,3.6086
1432.00,3.6986
1431.00,3.7483
1430.00,3.7585
1429.00,3.7581
1428.00,3.7628
1427.00,3.7634
1426.00,3.7501
1425.00,3.7341
1424.00,3.7289
1423.00,3.7329
1422.00,3.7334
1421.00,3.7176
1420.00,3.6786
1419.00,3.6127
1418.00,3.5279
1417.00,3.4463
1416.00,3.3787
1415.00,3.3198
1414.00,3.2631
1413.00,3.2092
1412.00,3.1647
1411.00,3.1360
1410.00,3.1235
1409.00,3.1204
1408.00,3.1186
1407.00,3.1186
1406.00,3.1261
1405.00,3.1449
1404.00,3.1738
1403.00,3.2061
1402.00,3.2346
1401.00,3.2542
1400.00,3.2661
1399.00,3.2758
1398.00,3.2859
1397.00,3.2955
1396.00,3.3068
1395.00,3.3285
1394.00,3.3637
1393.00,3.3999
1392.00,3.4213
1391.00,3.4283
1390.00,3.4314
1389.00,3.4348
1388.00,3.4366
1387.00,3.4438
1386.00,3.4691
1385.00,3.5103
1384.00,3.5485
1383.00,3.5710
1382.00,3.5814
1381.00,3.5849
1380.00,3.5787
1379.00,3.5639
1378.00,3.5557
1377.00,3.5648
1376.00,3.5786
1375.00,3.5723
1374.00,3.5415
1373.00,3.5127
1372.00,3.5081
1371.00,3.5260
1370.00,3.5504
1369.00,3.5679
1368.00,3.5745
1367.00,3.5720
1366.00,3.5629
1365.00,3.5507
1364.00,3.5371
1363.00,3.5189
1362.00,3.4938
1361.00,3.4656
1360.00,3.4407
1359.00,3.4235
1358.00,3.4141
1357.00,3.4088
1356.00,3.4017
1355.00,3.3914
1354.00,3.3863
1353.00,3.4014
1352.00,3.4491
1351.00,3.5345
1350.00,3.6460
1349.00,3.7558
1348.00,3.8397
1347.00,3.8826
1346.00,3.8878
1345.00,3.8714
1344.00,3.8286
1343.00,3.7707
1342.00,3.7285
1341.00,3.7181
1340.00,3.7385
1339.00,3.7820
1338.00,3.8285
1337.00,3.8347
1336.00,3.7840
1335.00,3.7062
1334.00,3.6260
1333.00,3.5504
1332.00,3.4761
1331.00,3.4019
1330.00,3.3318
1329.00,3.2717
1328.00,3.2251
1327.00,3.1943
1326.00,3.1815
1325.00,3.1885
1324.00,3.2147
1323.00,3.2571
1322.00,3.3144
1321.00,3.3890
1320.00,3.4867
1319.00,3.6115
1318.00,3.7612
1317.00,3.9270
1316.00,4.0961
1315.00,4.2612
1314.00,4.4262
1313.00,4.5791
1312.00,4.6217
1311.00,4.4776
1310.00,4.2966
1309.00,4.1743
1308.00,4.0932
1307.00,3.9912
1306.00,3.8584
1305.00,3.7355
1304.00,3.6351
1303.00,3.5504
1302.00,3.4721
1301.00,3.3917
1300.00,3.3056
1299.00,3.2158
1298.00,3.1291
1297.00,3.0538
1296.00,2.9956
1295.00,2.9546
1294.00,2.9276
1293.00,2.9120
1292.00,2.9076
1291.00,2.9150
1290.00,2.9336
1289.00,2.9622
1288.00,2.9999
1287.00,3.0461
1286.00,3.0966
1285.00,3.1442
1284.00,3.1837
1283.00,3.2185
1282.00,3.2578
1281.00,3.3063
1280.00,3.3576
1279.00,3.3966
1278.00,3.4142
1277.00,3.4185
1276.00,3.4253
1275.00,3.4436
1274.00,3.4699
1273.00,3.4959
1272.00,3.5186
1271.00,3.5424
1270.00,3.5711
1269.00,3.6031
1268.00,3.6359
1267.00,3.6673
1266.00,3.6899
1265.00,3.6909
1264.00,3.6739
1263.00,3.6654
1262.00,3.6860
1261.00,3.7283
1260.00,3.7570
1259.00,3.7469
1258.00,3.7237
1257.00,3.7296
1256.00,3.7789
1255.00,3.8491
1254.00,3.8907
1253.00,3.8740
1252.00,3.8291
1251.00,3.7958
1250.00,3.7856
1249.00,3.7900
1248.00,3.7937
1247.00,3.7927
1246.00,3.8001
1245.00,3.8279
1244.00,3.8650
1243.00,3.8791
1242.00,3.8568
1241.00,3.8212
1240.00,3.8026
1239.00,3.8173
1238.00,3.8555
1237.00,3.8906
1236.00,3.9117
1235.00,3.9386
1234.00,3.9847
1233.00,4.0377
1232.00,4.0936
1231.00,4.1809
1230.00,4.3141
1229.00,4.4434
1228.00,4.4433
1227.00,4.2999
1226.00,4.2083
1225.00,4.2086
1224.00,4.2680
1223.00,4.3114
1222.00,4.2460
1221.00,4.1765
1220.00,4.2069
1219.00,4.2365
1218.00,4.1224
1217.00,4.0270
1216.00,3.9826
1215.00,3.9554
1214.00,3.9411
1213.00,3.9461
1212.00,3.9632
1211.00,3.9998
1210.00,4.0760
1209.00,4.1846
1208.00,4.2771
1207.00,4.2966
1206.00,4.2356
1205.00,4.1291
1204.00,4.0294
1203.00,3.9625
1202.00,3.9386
1201.00,3.9479
1200.00,3.9468
1199.00,3.8959
1198.00,3.8201
1197.00,3.7688
1196.00,3.7615
1195.00,3.7882
1194.00,3.8279
1193.00,3.8519
1192.00,3.8291
1191.00,3.7592
1190.00,3.6754
1189.00,3.6121
1188.00,3.5789
1187.00,3.5617
1186.00,3.5423
1185.00,3.5188
1184.00,3.5041
1183.00,3.5036
1182.00,3.5089
1181.00,3.5091
1180.00,3.5010
1179.00,3.4893
1178.00,3.4806
1177.00,3.4762
1176.00,3.4674
1175.00,3.4431
1174.00,3.4081
1173.00,3.3839
1172.00,3.3833
1171.00,3.3964
1170.00,3.4039
1169.00,3.3975
1168.00,3.3823
1167.00,3.3664
1166.00,3.3562
1165.00,3.3534
1164.00,3.3536
1163.00,3.3492
1162.00,3.3393
1161.00,3.3329
1160.00,3.3387
1159.00,3.3548
1158.00,3.3729
1157.00,3.3878
1156.00,3.4025
1155.00,3.4210
1154.00,3.4409
1153.00,3.4616
1152.00,3.4902
1151.00,3.5243
1150.00,3.5453
1149.00,3.5483
1148.00,3.5540
1147.00,3.5792
1146.00,3.6190
1145.00,3.6569
1144.00,3.6916
1143.00,3.7378
1142.00,3.7975
1141.00,3.8623
1140.00,3.9340
1139.00,4.0042
1138.00,4.0550
1137.00,4.1064
1136.00,4.1605
1135.00,4.1457
1134.00,4.0736
1133.00,4.0073
1132.00,3.9665
1131.00,3.9731
1130.00,4.0541
1129.00,4.2171
1128.00,4.3964
1127.00,4.4265
1126.00,4.3041
1125.00,4.1967
1124.00,4.1643
1123.00,4.2053
1122.00,4.3251
1121.00,4.3921
1120.00,4.2605
1119.00,4.1834
1118.00,4.2042
1117.00,4.3237
1116.00,4.5456
1115.00,4.7944
1114.00,4.8008
1113.00,4.4294
1112.00,4.1550
1111.00,4.0158
1110.00,3.9994
1109.00,4.0850
1108.00,4.2043
1107.00,4.2914
1106.00,4.3272
1105.00,4.1785
1104.00,4.0207
1103.00,3.9350
1102.00,3.8751
1101.00,3.8155
1100.00,3.7978
1099.00,3.8692
1098.00,4.0420
1097.00,4.2050
1096.00,4.2304
1095.00,4.3240
1094.00,4.6136
1093.00,4.5973
1092.00,4.2312
1091.00,4.0490
1090.00,3.9993
1089.00,4.0410
1088.00,4.0508
1087.00,4.0099
1086.00,4.0477
1085.00,4.1921
1084.00,4.3287
1083.00,4.2600
1082.00,4.2075
1081.00,4.2488
1080.00,4.2877
1079.00,4.3129
1078.00,4.3483
1077.00,4.2691
1076.00,4.2138
1075.00,4.2677
1074.00,4.2491
1073.00,4.1939
1072.00,4.2643
1071.00,4.3019
1070.00,4.2371
1069.00,4.2778
1068.00,4.2705
1067.00,4.0886
1066.00,3.9920
1065.00,4.0157
1064.00,4.1834
1063.00,4.7601
1062.00,4.5433
1061.00,4.2241
1060.00,4.1121
1059.00,4.0740
1058.00,4.0797
1057.00,4.0144
1056.00,3.8497
1055.00,3.7057
1054.00,3.6380
1053.00,3.6570
1052.00,3.7457
1051.00,3.8475
1050.00,3.8873
1049.00,3.8502
1048.00,3.7654
1047.00,3.6575
1046.00,3.5663
1045.00,3.5221
1044.00,3.5233
1043.00,3.5402
1042.00,3.5319
1041.00,3.4894
1040.00,3.4458
1039.00,3.4166
1038.00,3.3897
1037.00,3.3599
1036.00,3.3367
1035.00,3.3269
1034.00,3.3286
1033.00,3.3370
1032.00,3.3493
1031.00,3.3639
1030.00,3.3830
1029.00,3.4149
1028.00,3.4714
1027.00,3.5533
1026.00,3.6379
1025.00,3.6863
1024.00,3.6926
1023.00,3.6819
1022.00,3.6673
1021.00,3.6593
1020.00,3.6769
1019.00,3.7252
1018.00,3.7718
1017.00,3.7734
1016.00,3.7320
1015.00,3.6812
1014.00,3.6466
1013.00,3.6422
1012.00,3.6787
1011.00,3.7604
1010.00,3.8687
1009.00,3.9494
1008.00,3.9599
1007.00,3.9263
1006.00,3.8947
1005.00,3.8774
1004.00,3.8613
1003.00,3.8387
1002.00,3.8209
1001.00,3.8240
1000.00,3.8663
999.00,3.9671
998.00,4.1250
997.00,4.2783
996.00,4.3313
995.00,4.3103
994.00,4.3059
993.00,4.3274
992.00,4.2957
991.00,4.1620
990.00,4.0275
989.00,3.9503
988.00,3.9349
987.00,3.9735
986.00,4.0447
985.00,4.0890
984.00,4.0474
983.00,4.0026
982.00,4.0702
981.00,4.3227
980.00,4.5978
979.00,4.6749
978.00,4.9882
977.00,4.4075
976.00,4.2084
975.00,4.1101
974.00,4.0238
973.00,3.9427
972.00,3.8986
971.00,3.9269
970.00,4.0675
969.00,4.4037
968.00,4.8029
967.00,4.5621
966.00,4.6489
965.00,4.5348
964.00,4.4329
963.00,4.3864
962.00,4.1275
961.00,3.9436
960.00,3.8645
959.00,3.8350
958.00,3.8214
957.00,3.8341
956.00,3.8927
955.00,3.9674
954.00,3.9800
953.00,3.9491
952.00,3.9462
951.00,3.9927
950.00,4.0730
949.00,4.1554
948.00,4.2038
947.00,4.2014
946.00,4.1898
945.00,4.1836
944.00,4.1440
943.00,4.0645
942.00,4.0134
941.00,4.0668
940.00,4.3018
939.00,4.8737
938.00,4.6469
937.00,4.4649
936.00,4.2763
935.00,4.1192
934.00,4.0028
933.00,3.9165
932.00,3.8643
931.00,3.8653
930.00,3.9533
929.00,4.1486
928.00,4.2355
927.00,4.1583
926.00,4.1937
925.00,4.3134
924.00,4.4610
923.00,4.7845
922.00,5.0142
921.00,4.4915
920.00,4.4378
919.00,4.9057
918.00,4.4657
917.00,4.1177
916.00,3.9971
915.00,3.9819
914.00,4.0223
913.00,4.0713
912.00,4.0097
911.00,3.9284
910.00,3.9698
909.00,4.0830
908.00,4.0733
907.00,4.0661
906.00,4.1442
905.00,4.2756
904.00,4.3937
903.00,4.2527
902.00,4.0537
901.00,3.9151
900.00,3.8335
899.00,3.8270
898.00,3.9270
897.00,4.1818
896.00,4.5783
895.00,4.5243
894.00,4.4921
893.00,4.5899
892.00,4.3548
891.00,4.0912
890.00,3.9302
889.00,3.8200
888.00,3.7853
887.00,3.8269
886.00,3.8875
885.00,3.9260
884.00,3.9668
883.00,4.0432
882.00,4.1795
881.00,4.3453
880.00,4.4736
879.00,4.4344
878.00,4.2622
877.00,4.2748
876.00,4.3471
875.00,4.2410
874.00,4.1813
873.00,4.1688
872.00,4.1715
871.00,4.2199
870.00,4.3310
869.00,4.5211
868.00,4.8894
867.00,4.9644
866.00,4.5447
865.00,4.4598
864.00,4.6147
863.00,4.9947
862.00,4.8461
861.00,4.2730
860.00,4.0005
859.00,3.9082
858.00,3.9278
857.00,3.9932
856.00,4.0322
855.00,4.0102
854.00,3.9858
853.00,4.0178
852.00,4.0897
851.00,4.1052
850.00,4.0522
849.00,4.0005
848.00,3.9717
847.00,3.9590
846.00,3.9447
845.00,3.9272
844.00,3.9041
843.00,3.8774
842.00,3.9130
841.00,4.0784
840.00,4.3643
839.00,4.4606
838.00,4.3865
837.00,4.1684
836.00,3.9709
835.00,3.8714
834.00,3.8787
833.00,3.9728
832.00,4.0004
831.00,3.8954
830.00,3.8238
829.00,3.8230
828.00,3.8893
827.00,3.9857
826.00,4.0097
825.00,3.9348
824.00,3.8690
823.00,3.8289
822.00,3.7932
821.00,3.7949
820.00,3.8532
819.00,3.9288
818.00,3.9395
817.00,3.8735
816.00,3.8085
815.00,3.7892
814.00,3.8092
813.00,3.8544
812.00,3.9575
811.00,4.1852
810.00,4.2294
809.00,4.1761
808.00,4.3424
807.00,3.9776
806.00,3.7534
805.00,3.7060
804.00,3.7810
803.00,3.9651
802.00,4.2312
801.00,4.4105
800.00,4.4988
799.00,4.5683
798.00,4.4498
797.00,4.3054
796.00,4.1649
795.00,4.0082
794.00,3.8703
793.00,3.7688
792.00,3.7196
791.00,3.7404
790.00,3.8271
789.00,3.9279
788.00,3.9691
787.00,3.9278
786.00,3.8694
785.00,3.8621
784.00,3.8903
783.00,3.9149
782.00,3.9448
781.00,4.0187
780.00,4.1467
779.00,4.2245
778.00,4.1944
777.00,4.1683
776.00,4.1703
775.00,4.1191
774.00,3.9610
773.00,3.8250
772.00,3.7631
771.00,3.7562
770.00,3.7750
769.00,3.8130
768.00,3.8929
767.00,4.0477
766.00,4.2405
765.00,4.1194
764.00,3.9537
763.00,3.9311
762.00,4.0624
761.00,4.3860
760.00,5.0218
759.00,5.0057
758.00,4.4877
757.00,4.3317
756.00,4.3570
755.00,4.4448
754.00,4.3868
753.00,4.2229
752.00,4.0858
751.00,4.0197
750.00,4.0601
749.00,4.2447
748.00,4.4710
747.00,4.3204
746.00,4.2871
745.00,4.1234
744.00,3.8581
743.00,3.7281
742.00,3.7192
741.00,3.8249
740.00,4.0506
739.00,4.1350
738.00,4.0182
737.00,4.0508
736.00,4.2756
735.00,4.9515
734.00,4.4127
733.00,4.0901
732.00,3.9285
731.00,3.8548
730.00,3.8647
729.00,3.9890
728.00,4.3045
727.00,5.0004
726.00,4.1588
725.00,4.0057
724.00,3.9852
723.00,4.0144
722.00,4.0210
721.00,3.9484
720.00,3.8474
719.00,3.7871
718.00,3.7859
717.00,3.8366
716.00,3.9697
715.00,4.1520
714.00,4.0819
713.00,4.0556
712.00,4.1667
711.00,4.1651
710.00,3.9785
709.00,3.8550
708.00,3.8479
707.00,3.9455
706.00,4.0928
705.00,4.2422
704.00,4.4120
703.00,4.2968
702.00,4.0563
701.00,3.9268
700.00,3.9025
