Created as New Dataset,Sample 064 By Administrator Date Wednesday, November 24 2021
cm-1,A
7502.00,0.9889
7501.00,0.9774
7500.00,0.9662
7499.00,0.9552
7498.00,0.9446
7497.00,0.9341
7496.00,0.9240
7495.00,0.9140
7494.00,0.9041
7493.00,0.8947
7492.00,0.8859
7491.00,0.8776
7490.00,0.8694
7489.00,0.8610
7488.00,0.8528
7487.00,0.8451
7486.00,0.8378
7485.00,0.8306
7484.00,0.8236
7483.00,0.8170
7482.00,0.8109
7481.00,0.8057
7480.00,0.8014
7479.00,0.7978
7478.00,0.7947
7477.00,0.7918
7476.00,0.7896
7475.00,0.7881
7474.00,0.7874
7473.00,0.7870
7472.00,0.7869
7471.00,0.7872
7470.00,0.7880
7469.00,0.7894
7468.00,0.7913
7467.00,0.7938
7466.00,0.7968
7465.00,0.8004
7464.00,0.8047
7463.00,0.8097
7462.00,0.8153
7461.00,0.8212
7460.00,0.8272
7459.00,0.8332
7458.00,0.8392
7457.00,0.8453
7456.00,0.8517
7455.00,0.8585
7454.00,0.8659
7453.00,0.8737
7452.00,0.8819
7451.00,0.8906
7450.00,0.8994
7449.00,0.9079
7448.00,0.9158
7447.00,0.9235
7446.00,0.9313
7445.00,0.9391
7444.00,0.9466
7443.00,0.9536
7442.00,0.9607
7441.00,0.9686
7440.00,0.9772
7439.00,0.9859
7438.00,0.9939
7437.00,1.0012
7436.00,1.0084
7435.00,1.0158
7434.00,1.0235
7433.00,1.0309
7432.00,1.0377
7431.00,1.0435
7430.00,1.0489
7429.00,1.0543
7428.00,1.0600
7427.00,1.0660
7426.00,1.0721
7425.00,1.0778
7424.00,1.0833
7423.00,1.0885
7422.00,1.0933
7421.00,1.0974
7420.00,1.1007
7419.00,1.1028
7418.00,1.1038
7417.00,1.1042
7416.00,1.1045
7415.00,1.1048
7414.00,1.1050
7413.00,1.1046
7412.00,1.1034
7411.00,1.1017
7410.00,1.0996
7409.00,1.0978
7408.00,1.0966
7407.00,1.0958
7406.00,1.0949
7405.00,1.0932
7404.00,1.0906
7403.00,1.0874
7402.00,1.0836
7401.00,1.0793
7400.00,1.0743
7399.00,1.0687
7398.00,1.0627
7397.00,1.0568
7396.00,1.0512
7395.00,1.0463
7394.00,1.0420
7393.00,1.0380
7392.00,1.0343
7391.00,1.0313
7390.00,1.0288
7389.00,1.0266
7388.00,1.0242
7387.00,1.0215
7386.00,1.0189
7385.00,1.0165
7384.00,1.0141
7383.00,1.0115
7382.00,1.0087
7381.00,1.0055
7380.00,1.0016
7379.00,0.9969
7378.00,0.9915
7377.00,0.9856
7376.00,0.9791
7375.00,0.9718
7374.00,0.9635
7373.00,0.9546
7372.00,0.9457
7371.00,0.9370
7370.00,0.9284
7369.00,0.9195
7368.00,0.9104
7367.00,0.9015
7366.00,0.8932
7365.00,0.8854
7364.00,0.8776
7363.00,0.8695
7362.00,0.8614
7361.00,0.8536
7360.00,0.8464
7359.00,0.8395
7358.00,0.8326
7357.00,0.8257
7356.00,0.8192
7355.00,0.8135
7354.00,0.8086
7353.00,0.8042
7352.00,0.8001
7351.00,0.7960
7350.00,0.7920
7349.00,0.7882
7348.00,0.7844
7347.00,0.7807
7346.00,0.7770
7345.00,0.7741
7344.00,0.7723
7343.00,0.7719
7342.00,0.7723
7341.00,0.7731
7340.00,0.7744
7339.00,0.7763
7338.00,0.7786
7337.00,0.7812
7336.00,0.7840
7335.00,0.7871
7334.00,0.7909
7333.00,0.7955
7332.00,0.8008
7331.00,0.8065
7330.00,0.8124
7329.00,0.8185
7328.00,0.8250
7327.00,0.8320
7326.00,0.8397
7325.00,0.8476
7324.00,0.8557
7323.00,0.8639
7322.00,0.8723
7321.00,0.8809
7320.00,0.8897
7319.00,0.8983
7318.00,0.9067
7317.00,0.9151
7316.00,0.9239
7315.00,0.9334
7314.00,0.9435
7313.00,0.9536
7312.00,0.9636
7311.00,0.9735
7310.00,0.9831
7309.00,0.9925
7308.00,1.0017
7307.00,1.0110
7306.00,1.0202
7305.00,1.0292
7304.00,1.0377
7303.00,1.0462
7302.00,1.0554
7301.00,1.0649
7300.00,1.0738
7299.00,1.0817
7298.00,1.0891
7297.00,1.0968
7296.00,1.1044
7295.00,1.1114
7294.00,1.1171
7293.00,1.1222
7292.00,1.1274
7291.00,1.1326
7290.00,1.1375
7289.00,1.1422
7288.00,1.1469
7287.00,1.1522
7286.00,1.1576
7285.00,1.1626
7284.00,1.1669
7283.00,1.1706
7282.00,1.1739
7281.00,1.1768
7280.00,1.1792
7279.00,1.1814
7278.00,1.1837
7277.00,1.1863
7276.00,1.1891
7275.00,1.1914
7274.00,1.1929
7273.00,1.1936
7272.00,1.1936
7271.00,1.1929
7270.00,1.1913
7269.00,1.1890
7268.00,1.1865
7267.00,1.1840
7266.00,1.1813
7265.00,1.1777
7264.00,1.1733
7263.00,1.1688
7262.00,1.1645
7261.00,1.1603
7260.00,1.1556
7259.00,1.1502
7258.00,1.1443
7257.00,1.1383
7256.00,1.1319
7255.00,1.1246
7254.00,1.1167
7253.00,1.1083
7252.00,1.1000
7251.00,1.0918
7250.00,1.0832
7249.00,1.0743
7248.00,1.0651
7247.00,1.0557
7246.00,1.0465
7245.00,1.0376
7244.00,1.0285
7243.00,1.0189
7242.00,1.0087
7241.00,0.9982
7240.00,0.9880
7239.00,0.9780
7238.00,0.9679
7237.00,0.9576
7236.00,0.9472
7235.00,0.9371
7234.00,0.9271
7233.00,0.9171
7232.00,0.9072
7231.00,0.8972
7230.00,0.8872
7229.00,0.8776
7228.00,0.8683
7227.00,0.8595
7226.00,0.8508
7225.00,0.8422
7224.00,0.8340
7223.00,0.8265
7222.00,0.8200
7221.00,0.8142
7220.00,0.8090
7219.00,0.8042
7218.00,0.7999
7217.00,0.7961
7216.00,0.7926
7215.00,0.7896
7214.00,0.7870
7213.00,0.7849
7212.00,0.7835
7211.00,0.7830
7210.00,0.7836
7209.00,0.7849
7208.00,0.7865
7207.00,0.7883
7206.00,0.7906
7205.00,0.7936
7204.00,0.7972
7203.00,0.8013
7202.00,0.8058
7201.00,0.8109
7200.00,0.8167
7199.00,0.8230
7198.00,0.8296
7197.00,0.8363
7196.00,0.8429
7195.00,0.8494
7194.00,0.8560
7193.00,0.8630
7192.00,0.8706
7191.00,0.8787
7190.00,0.8870
7189.00,0.8956
7188.00,0.9044
7187.00,0.9133
7186.00,0.9222
7185.00,0.9309
7184.00,0.9398
7183.00,0.9490
7182.00,0.9584
7181.00,0.9678
7180.00,0.9769
7179.00,0.9860
7178.00,0.9949
7177.00,1.0034
7176.00,1.0117
7175.00,1.0202
7174.00,1.0287
7173.00,1.0373
7172.00,1.0458
7171.00,1.0541
7170.00,1.0623
7169.00,1.0700
7168.00,1.0767
7167.00,1.0828
7166.00,1.0892
7165.00,1.0964
7164.00,1.1038
7163.00,1.1106
7162.00,1.1165
7161.00,1.1220
7160.00,1.1275
7159.00,1.1327
7158.00,1.1371
7157.00,1.1408
7156.00,1.1442
7155.00,1.1479
7154.00,1.1520
7153.00,1.1560
7152.00,1.1595
7151.00,1.1624
7150.00,1.1648
7149.00,1.1666
7148.00,1.1682
7147.00,1.1697
7146.00,1.1709
7145.00,1.1717
7144.00,1.1720
7143.00,1.1719
7142.00,1.1713
7141.00,1.1701
7140.00,1.1684
7139.00,1.1665
7138.00,1.1645
7137.00,1.1623
7136.00,1.1601
7135.00,1.1580
7134.00,1.1558
7133.00,1.1532
7132.00,1.1501
7131.00,1.1464
7130.00,1.1416
7129.00,1.1359
7128.00,1.1298
7127.00,1.1239
7126.00,1.1180
7125.00,1.1114
7124.00,1.1041
7123.00,1.0968
7122.00,1.0898
7121.00,1.0827
7120.00,1.0750
7119.00,1.0667
7118.00,1.0584
7117.00,1.0502
7116.00,1.0418
7115.00,1.0331
7114.00,1.0240
7113.00,1.0146
7112.00,1.0050
7111.00,0.9953
7110.00,0.9856
7109.00,0.9758
7108.00,0.9657
7107.00,0.9558
7106.00,0.9461
7105.00,0.9366
7104.00,0.9269
7103.00,0.9169
7102.00,0.9070
7101.00,0.8971
7100.00,0.8874
7099.00,0.8778
7098.00,0.8685
7097.00,0.8593
7096.00,0.8504
7095.00,0.8420
7094.00,0.8341
7093.00,0.8268
7092.00,0.8199
7091.00,0.8134
7090.00,0.8072
7089.00,0.8015
7088.00,0.7965
7087.00,0.7923
7086.00,0.7887
7085.00,0.7858
7084.00,0.7833
7083.00,0.7811
7082.00,0.7795
7081.00,0.7784
7080.00,0.7780
7079.00,0.7782
7078.00,0.7790
7077.00,0.7802
7076.00,0.7822
7075.00,0.7851
7074.00,0.7889
7073.00,0.7933
7072.00,0.7978
7071.00,0.8026
7070.00,0.8078
7069.00,0.8135
7068.00,0.8197
7067.00,0.8263
7066.00,0.8332
7065.00,0.8406
7064.00,0.8484
7063.00,0.8566
7062.00,0.8650
7061.00,0.8736
7060.00,0.8820
7059.00,0.8902
7058.00,0.8986
7057.00,0.9074
7056.00,0.9167
7055.00,0.9260
7054.00,0.9353
7053.00,0.9448
7052.00,0.9543
7051.00,0.9639
7050.00,0.9734
7049.00,0.9828
7048.00,0.9923
7047.00,1.0018
7046.00,1.0112
7045.00,1.0203
7044.00,1.0293
7043.00,1.0383
7042.00,1.0475
7041.00,1.0567
7040.00,1.0660
7039.00,1.0754
7038.00,1.0846
7037.00,1.0935
7036.00,1.1018
7035.00,1.1095
7034.00,1.1167
7033.00,1.1236
7032.00,1.1301
7031.00,1.1363
7030.00,1.1423
7029.00,1.1484
7028.00,1.1545
7027.00,1.1605
7026.00,1.1664
7025.00,1.1723
7024.00,1.1779
7023.00,1.1830
7022.00,1.1877
7021.00,1.1919
7020.00,1.1954
7019.00,1.1980
7018.00,1.2000
7017.00,1.2017
7016.00,1.2033
7015.00,1.2045
7014.00,1.2052
7013.00,1.2052
7012.00,1.2045
7011.00,1.2035
7010.00,1.2025
7009.00,1.2019
7008.00,1.2012
7007.00,1.2001
7006.00,1.1987
7005.00,1.1971
7004.00,1.1954
7003.00,1.1931
7002.00,1.1896
7001.00,1.1851
7000.00,1.1801
6999.00,1.1753
6998.00,1.1705
6997.00,1.1652
6996.00,1.1589
6995.00,1.1522
6994.00,1.1453
6993.00,1.1381
6992.00,1.1304
6991.00,1.1220
6990.00,1.1134
6989.00,1.1051
6988.00,1.0969
6987.00,1.0886
6986.00,1.0799
6985.00,1.0706
6984.00,1.0604
6983.00,1.0496
6982.00,1.0387
6981.00,1.0278
6980.00,1.0170
6979.00,1.0060
6978.00,0.9951
6977.00,0.9845
6976.00,0.9743
6975.00,0.9638
6974.00,0.9528
6973.00,0.9414
6972.00,0.9301
6971.00,0.9191
6970.00,0.9084
6969.00,0.8980
6968.00,0.8878
6967.00,0.8779
6966.00,0.8686
6965.00,0.8599
6964.00,0.8516
6963.00,0.8435
6962.00,0.8356
6961.00,0.8282
6960.00,0.8213
6959.00,0.8146
6958.00,0.8083
6957.00,0.8025
6956.00,0.7975
6955.00,0.7930
6954.00,0.7892
6953.00,0.7861
6952.00,0.7839
6951.00,0.7825
6950.00,0.7817
6949.00,0.7815
6948.00,0.7819
6947.00,0.7828
6946.00,0.7841
6945.00,0.7859
6944.00,0.7884
6943.00,0.7915
6942.00,0.7953
6941.00,0.7997
6940.00,0.8045
6939.00,0.8099
6938.00,0.8159
6937.00,0.8221
6936.00,0.8285
6935.00,0.8352
6934.00,0.8424
6933.00,0.8501
6932.00,0.8581
6931.00,0.8663
6930.00,0.8745
6929.00,0.8832
6928.00,0.8922
6927.00,0.9015
6926.00,0.9109
6925.00,0.9205
6924.00,0.9303
6923.00,0.9402
6922.00,0.9501
6921.00,0.9599
6920.00,0.9694
6919.00,0.9788
6918.00,0.9880
6917.00,0.9973
6916.00,1.0065
6915.00,1.0159
6914.00,1.0255
6913.00,1.0353
6912.00,1.0450
6911.00,1.0544
6910.00,1.0633
6909.00,1.0718
6908.00,1.0800
6907.00,1.0880
6906.00,1.0957
6905.00,1.1031
6904.00,1.1104
6903.00,1.1177
6902.00,1.1250
6901.00,1.1322
6900.00,1.1388
6899.00,1.1449
6898.00,1.1507
6897.00,1.1568
6896.00,1.1628
6895.00,1.1681
6894.00,1.1725
6893.00,1.1762
6892.00,1.1797
6891.00,1.1831
6890.00,1.1862
6889.00,1.1890
6888.00,1.1915
6887.00,1.1937
6886.00,1.1956
6885.00,1.1971
6884.00,1.1981
6883.00,1.1987
6882.00,1.1989
6881.00,1.1987
6880.00,1.1980
6879.00,1.1967
6878.00,1.1950
6877.00,1.1931
6876.00,1.1912
6875.00,1.1891
6874.00,1.1867
6873.00,1.1841
6872.00,1.1811
6871.00,1.1774
6870.00,1.1728
6869.00,1.1675
6868.00,1.1620
6867.00,1.1564
6866.00,1.1509
6865.00,1.1454
6864.00,1.1396
6863.00,1.1333
6862.00,1.1261
6861.00,1.1182
6860.00,1.1099
6859.00,1.1013
6858.00,1.0926
6857.00,1.0840
6856.00,1.0754
6855.00,1.0668
6854.00,1.0581
6853.00,1.0490
6852.00,1.0394
6851.00,1.0295
6850.00,1.0192
6849.00,1.0087
6848.00,0.9978
6847.00,0.9868
6846.00,0.9759
6845.00,0.9651
6844.00,0.9543
6843.00,0.9435
6842.00,0.9327
6841.00,0.9221
6840.00,0.9115
6839.00,0.9009
6838.00,0.8904
6837.00,0.8802
6836.00,0.8704
6835.00,0.8610
6834.00,0.8521
6833.00,0.8436
6832.00,0.8353
6831.00,0.8274
6830.00,0.8200
6829.00,0.8132
6828.00,0.8069
6827.00,0.8009
6826.00,0.7953
6825.00,0.7902
6824.00,0.7858
6823.00,0.7821
6822.00,0.7790
6821.00,0.7765
6820.00,0.7749
6819.00,0.7740
6818.00,0.7739
6817.00,0.7744
6816.00,0.7755
6815.00,0.7770
6814.00,0.7792
6813.00,0.7821
6812.00,0.7856
6811.00,0.7898
6810.00,0.7944
6809.00,0.7997
6808.00,0.8055
6807.00,0.8120
6806.00,0.8187
6805.00,0.8256
6804.00,0.8327
6803.00,0.8403
6802.00,0.8482
6801.00,0.8564
6800.00,0.8646
6799.00,0.8730
6798.00,0.8817
6797.00,0.8909
6796.00,0.9003
6795.00,0.9098
6794.00,0.9195
6793.00,0.9296
6792.00,0.9397
6791.00,0.9497
6790.00,0.9593
6789.00,0.9690
6788.00,0.9787
6787.00,0.9887
6786.00,0.9990
6785.00,1.0097
6784.00,1.0204
6783.00,1.0308
6782.00,1.0407
6781.00,1.0503
6780.00,1.0597
6779.00,1.0688
6778.00,1.0776
6777.00,1.0860
6776.00,1.0946
6775.00,1.1033
6774.00,1.1118
6773.00,1.1197
6772.00,1.1273
6771.00,1.1351
6770.00,1.1432
6769.00,1.1510
6768.00,1.1577
6767.00,1.1636
6766.00,1.1692
6765.00,1.1747
6764.00,1.1800
6763.00,1.1851
6762.00,1.1900
6761.00,1.1950
6760.00,1.1999
6759.00,1.2043
6758.00,1.2079
6757.00,1.2107
6756.00,1.2127
6755.00,1.2141
6754.00,1.2155
6753.00,1.2168
6752.00,1.2179
6751.00,1.2184
6750.00,1.2186
6749.00,1.2189
6748.00,1.2194
6747.00,1.2197
6746.00,1.2194
6745.00,1.2182
6744.00,1.2162
6743.00,1.2139
6742.00,1.2111
6741.00,1.2076
6740.00,1.2034
6739.00,1.1987
6738.00,1.1941
6737.00,1.1892
6736.00,1.1838
6735.00,1.1778
6734.00,1.1714
6733.00,1.1647
6732.00,1.1577
6731.00,1.1506
6730.00,1.1433
6729.00,1.1355
6728.00,1.1270
6727.00,1.1176
6726.00,1.1079
6725.00,1.0979
6724.00,1.0877
6723.00,1.0772
6722.00,1.0668
6721.00,1.0564
6720.00,1.0459
6719.00,1.0351
6718.00,1.0241
6717.00,1.0129
6716.00,1.0015
6715.00,0.9896
6714.00,0.9776
6713.00,0.9657
6712.00,0.9539
6711.00,0.9423
6710.00,0.9309
6709.00,0.9199
6708.00,0.9094
6707.00,0.8991
6706.00,0.8891
6705.00,0.8792
6704.00,0.8693
6703.00,0.8594
6702.00,0.8498
6701.00,0.8407
6700.00,0.8321
6699.00,0.8241
6698.00,0.8166
6697.00,0.8097
6696.00,0.8035
6695.00,0.7978
6694.00,0.7927
6693.00,0.7881
6692.00,0.7840
6691.00,0.7807
6690.00,0.7782
6689.00,0.7765
6688.00,0.7754
6687.00,0.7749
6686.00,0.7751
6685.00,0.7760
6684.00,0.7777
6683.00,0.7799
6682.00,0.7827
6681.00,0.7863
6680.00,0.7907
6679.00,0.7956
6678.00,0.8009
6677.00,0.8065
6676.00,0.8124
6675.00,0.8188
6674.00,0.8258
6673.00,0.8331
6672.00,0.8408
6671.00,0.8489
6670.00,0.8576
6669.00,0.8667
6668.00,0.8759
6667.00,0.8853
6666.00,0.8950
6665.00,0.9051
6664.00,0.9154
6663.00,0.9254
6662.00,0.9351
6661.00,0.9447
6660.00,0.9545
6659.00,0.9645
6658.00,0.9745
6657.00,0.9847
6656.00,0.9949
6655.00,1.0052
6654.00,1.0153
6653.00,1.0252
6652.00,1.0347
6651.00,1.0440
6650.00,1.0534
6649.00,1.0629
6648.00,1.0723
6647.00,1.0817
6646.00,1.0908
6645.00,1.0995
6644.00,1.1078
6643.00,1.1156
6642.00,1.1232
6641.00,1.1306
6640.00,1.1377
6639.00,1.1445
6638.00,1.1512
6637.00,1.1578
6636.00,1.1640
6635.00,1.1697
6634.00,1.1749
6633.00,1.1800
6632.00,1.1848
6631.00,1.1893
6630.00,1.1934
6629.00,1.1971
6628.00,1.2005
6627.00,1.2033
6626.00,1.2057
6625.00,1.2079
6624.00,1.2100
6623.00,1.2119
6622.00,1.2132
6621.00,1.2138
6620.00,1.2136
6619.00,1.2128
6618.00,1.2116
6617.00,1.2102
6616.00,1.2087
6615.00,1.2070
6614.00,1.2054
6613.00,1.2037
6612.00,1.2014
6611.00,1.1981
6610.00,1.1938
6609.00,1.1890
6608.00,1.1841
6607.00,1.1790
6606.00,1.1735
6605.00,1.1677
6604.00,1.1617
6603.00,1.1557
6602.00,1.1492
6601.00,1.1422
6600.00,1.1345
6599.00,1.1262
6598.00,1.1176
6597.00,1.1091
6596.00,1.1004
6595.00,1.0916
6594.00,1.0824
6593.00,1.0732
6592.00,1.0640
6591.00,1.0547
6590.00,1.0452
6589.00,1.0353
6588.00,1.0248
6587.00,1.0138
6586.00,1.0026
6585.00,0.9912
6584.00,0.9798
6583.00,0.9682
6582.00,0.9568
6581.00,0.9456
6580.00,0.9346
6579.00,0.9235
6578.00,0.9122
6577.00,0.9011
6576.00,0.8904
6575.00,0.8800
6574.00,0.8701
6573.00,0.8604
6572.00,0.8511
6571.00,0.8420
6570.00,0.8331
6569.00,0.8245
6568.00,0.8163
6567.00,0.8086
6566.00,0.8015
6565.00,0.7951
6564.00,0.7893
6563.00,0.7841
6562.00,0.7798
6561.00,0.7762
6560.00,0.7733
6559.00,0.7710
6558.00,0.7692
6557.00,0.7681
6556.00,0.7677
6555.00,0.7681
6554.00,0.7694
6553.00,0.7713
6552.00,0.7739
6551.00,0.7771
6550.00,0.7809
6549.00,0.7852
6548.00,0.7900
6547.00,0.7951
6546.00,0.8009
6545.00,0.8076
6544.00,0.8148
6543.00,0.8224
6542.00,0.8303
6541.00,0.8385
6540.00,0.8473
6539.00,0.8564
6538.00,0.8660
6537.00,0.8758
6536.00,0.8858
6535.00,0.8960
6534.00,0.9064
6533.00,0.9169
6532.00,0.9274
6531.00,0.9377
6530.00,0.9480
6529.00,0.9586
6528.00,0.9694
6527.00,0.9801
6526.00,0.9908
6525.00,1.0016
6524.00,1.0123
6523.00,1.0229
6522.00,1.0332
6521.00,1.0434
6520.00,1.0538
6519.00,1.0644
6518.00,1.0747
6517.00,1.0848
6516.00,1.0946
6515.00,1.1040
6514.00,1.1129
6513.00,1.1213
6512.00,1.1291
6511.00,1.1368
6510.00,1.1448
6509.00,1.1530
6508.00,1.1614
6507.00,1.1697
6506.00,1.1777
6505.00,1.1851
6504.00,1.1919
6503.00,1.1980
6502.00,1.2034
6501.00,1.2084
6500.00,1.2130
6499.00,1.2175
6498.00,1.2219
6497.00,1.2262
6496.00,1.2302
6495.00,1.2336
6494.00,1.2363
6493.00,1.2383
6492.00,1.2399
6491.00,1.2413
6490.00,1.2426
6489.00,1.2434
6488.00,1.2436
6487.00,1.2433
6486.00,1.2430
6485.00,1.2426
6484.00,1.2417
6483.00,1.2400
6482.00,1.2379
6481.00,1.2356
6480.00,1.2330
6479.00,1.2296
6478.00,1.2253
6477.00,1.2203
6476.00,1.2151
6475.00,1.2095
6474.00,1.2034
6473.00,1.1971
6472.00,1.1907
6471.00,1.1843
6470.00,1.1775
6469.00,1.1700
6468.00,1.1616
6467.00,1.1526
6466.00,1.1431
6465.00,1.1333
6464.00,1.1234
6463.00,1.1137
6462.00,1.1041
6461.00,1.0942
6460.00,1.0838
6459.00,1.0730
6458.00,1.0618
6457.00,1.0500
6456.00,1.0376
6455.00,1.0252
6454.00,1.0132
6453.00,1.0015
6452.00,0.9897
6451.00,0.9777
6450.00,0.9655
6449.00,0.9535
6448.00,0.9413
6447.00,0.9291
6446.00,0.9170
6445.00,0.9051
6444.00,0.8936
6443.00,0.8824
6442.00,0.8715
6441.00,0.8611
6440.00,0.8511
6439.00,0.8416
6438.00,0.8325
6437.00,0.8240
6436.00,0.8161
6435.00,0.8087
6434.00,0.8019
6433.00,0.7958
6432.00,0.7904
6431.00,0.7857
6430.00,0.7815
6429.00,0.7780
6428.00,0.7752
6427.00,0.7732
6426.00,0.7719
6425.00,0.7714
6424.00,0.7716
6423.00,0.7725
6422.00,0.7740
6421.00,0.7763
6420.00,0.7793
6419.00,0.7829
6418.00,0.7872
6417.00,0.7924
6416.00,0.7983
6415.00,0.8048
6414.00,0.8119
6413.00,0.8193
6412.00,0.8271
6411.00,0.8352
6410.00,0.8437
6409.00,0.8526
6408.00,0.8620
6407.00,0.8715
6406.00,0.8812
6405.00,0.8909
6404.00,0.9009
6403.00,0.9110
6402.00,0.9213
6401.00,0.9318
6400.00,0.9424
6399.00,0.9533
6398.00,0.9643
6397.00,0.9752
6396.00,0.9858
6395.00,0.9963
6394.00,1.0067
6393.00,1.0172
6392.00,1.0277
6391.00,1.0380
6390.00,1.0480
6389.00,1.0579
6388.00,1.0677
6387.00,1.0773
6386.00,1.0869
6385.00,1.0966
6384.00,1.1062
6383.00,1.1155
6382.00,1.1247
6381.00,1.1336
6380.00,1.1421
6379.00,1.1499
6378.00,1.1572
6377.00,1.1644
6376.00,1.1715
6375.00,1.1781
6374.00,1.1841
6373.00,1.1899
6372.00,1.1954
6371.00,1.2006
6370.00,1.2052
6369.00,1.2094
6368.00,1.2134
6367.00,1.2173
6366.00,1.2210
6365.00,1.2243
6364.00,1.2271
6363.00,1.2292
6362.00,1.2310
6361.00,1.2323
6360.00,1.2331
6359.00,1.2332
6358.00,1.2327
6357.00,1.2322
6356.00,1.2318
6355.00,1.2312
6354.00,1.2302
6353.00,1.2290
6352.00,1.2274
6351.00,1.2254
6350.00,1.2227
6349.00,1.2193
6348.00,1.2154
6347.00,1.2108
6346.00,1.2056
6345.00,1.2001
6344.00,1.1944
6343.00,1.1886
6342.00,1.1827
6341.00,1.1766
6340.00,1.1704
6339.00,1.1639
6338.00,1.1566
6337.00,1.1486
6336.00,1.1402
6335.00,1.1314
6334.00,1.1223
6333.00,1.1130
6332.00,1.1035
6331.00,1.0938
6330.00,1.0839
6329.00,1.0736
6328.00,1.0628
6327.00,1.0517
6326.00,1.0404
6325.00,1.0289
6324.00,1.0173
6323.00,1.0056
6322.00,0.9937
6321.00,0.9817
6320.00,0.9696
6319.00,0.9574
6318.00,0.9453
6317.00,0.9332
6316.00,0.9211
6315.00,0.9093
6314.00,0.8976
6313.00,0.8863
6312.00,0.8753
6311.00,0.8646
6310.00,0.8542
6309.00,0.8442
6308.00,0.8346
6307.00,0.8255
6306.00,0.8169
6305.00,0.8089
6304.00,0.8014
6303.00,0.7945
6302.00,0.7883
6301.00,0.7829
6300.00,0.7782
6299.00,0.7741
6298.00,0.7708
6297.00,0.7683
6296.00,0.7665
6295.00,0.7655
6294.00,0.7653
6293.00,0.7659
6292.00,0.7673
6291.00,0.7693
6290.00,0.7722
6289.00,0.7759
6288.00,0.7802
6287.00,0.7852
6286.00,0.7907
6285.00,0.7969
6284.00,0.8036
6283.00,0.8106
6282.00,0.8180
6281.00,0.8259
6280.00,0.8343
6279.00,0.8432
6278.00,0.8525
6277.00,0.8622
6276.00,0.8722
6275.00,0.8824
6274.00,0.8929
6273.00,0.9036
6272.00,0.9144
6271.00,0.9252
6270.00,0.9362
6269.00,0.9474
6268.00,0.9588
6267.00,0.9700
6266.00,0.9813
6265.00,0.9927
6264.00,1.0041
6263.00,1.0154
6262.00,1.0265
6261.00,1.0374
6260.00,1.0483
6259.00,1.0590
6258.00,1.0696
6257.00,1.0800
6256.00,1.0904
6255.00,1.1009
6254.00,1.1114
6253.00,1.1218
6252.00,1.1319
6251.00,1.1418
6250.00,1.1514
6249.00,1.1607
6248.00,1.1694
6247.00,1.1776
6246.00,1.1855
6245.00,1.1932
6244.00,1.2009
6243.00,1.2081
6242.00,1.2148
6241.00,1.2210
6240.00,1.2266
6239.00,1.2317
6238.00,1.2362
6237.00,1.2404
6236.00,1.2444
6235.00,1.2482
6234.00,1.2517
6233.00,1.2551
6232.00,1.2583
6231.00,1.2612
6230.00,1.2635
6229.00,1.2651
6228.00,1.2660
6227.00,1.2663
6226.00,1.2662
6225.00,1.2657
6224.00,1.2649
6223.00,1.2640
6222.00,1.2627
6221.00,1.2608
6220.00,1.2581
6219.00,1.2548
6218.00,1.2511
6217.00,1.2472
6216.00,1.2430
6215.00,1.2386
6214.00,1.2339
6213.00,1.2289
6212.00,1.2232
6211.00,1.2168
6210.00,1.2101
6209.00,1.2031
6208.00,1.1958
6207.00,1.1880
6206.00,1.1798
6205.00,1.1709
6204.00,1.1614
6203.00,1.1513
6202.00,1.1409
6201.00,1.1304
6200.00,1.1195
6199.00,1.1085
6198.00,1.0972
6197.00,1.0858
6196.00,1.0741
6195.00,1.0618
6194.00,1.0492
6193.00,1.0365
6192.00,1.0238
6191.00,1.0110
6190.00,0.9981
6189.00,0.9851
6188.00,0.9721
6187.00,0.9591
6186.00,0.9462
6185.00,0.9334
6184.00,0.9206
6183.00,0.9079
6182.00,0.8954
6181.00,0.8832
6180.00,0.8715
6179.00,0.8602
6178.00,0.8493
6177.00,0.8391
6176.00,0.8295
6175.00,0.8204
6174.00,0.8119
6173.00,0.8041
6172.00,0.7970
6171.00,0.7906
6170.00,0.7848
6169.00,0.7796
6168.00,0.7752
6167.00,0.7715
6166.00,0.7686
6165.00,0.7666
6164.00,0.7655
6163.00,0.7653
6162.00,0.7660
6161.00,0.7675
6160.00,0.7698
6159.00,0.7728
6158.00,0.7765
6157.00,0.7809
6156.00,0.7858
6155.00,0.7913
6154.00,0.7973
6153.00,0.8039
6152.00,0.8111
6151.00,0.8188
6150.00,0.8271
6149.00,0.8360
6148.00,0.8453
6147.00,0.8548
6146.00,0.8646
6145.00,0.8747
6144.00,0.8851
6143.00,0.8956
6142.00,0.9063
6141.00,0.9173
6140.00,0.9286
6139.00,0.9398
6138.00,0.9511
6137.00,0.9623
6136.00,0.9736
6135.00,0.9849
6134.00,0.9963
6133.00,1.0078
6132.00,1.0193
6131.00,1.0306
6130.00,1.0416
6129.00,1.0524
6128.00,1.0630
6127.00,1.0732
6126.00,1.0833
6125.00,1.0935
6124.00,1.1036
6123.00,1.1136
6122.00,1.1231
6121.00,1.1323
6120.00,1.1414
6119.00,1.1502
6118.00,1.1587
6117.00,1.1667
6116.00,1.1746
6115.00,1.1822
6114.00,1.1897
6113.00,1.1968
6112.00,1.2035
6111.00,1.2099
6110.00,1.2159
6109.00,1.2214
6108.00,1.2266
6107.00,1.2315
6106.00,1.2361
6105.00,1.2402
6104.00,1.2440
6103.00,1.2476
6102.00,1.2509
6101.00,1.2537
6100.00,1.2557
6099.00,1.2573
6098.00,1.2586
6097.00,1.2596
6096.00,1.2603
6095.00,1.2607
6094.00,1.2609
6093.00,1.2608
6092.00,1.2601
6091.00,1.2589
6090.00,1.2572
6089.00,1.2551
6088.00,1.2525
6087.00,1.2495
6086.00,1.2459
6085.00,1.2416
6084.00,1.2367
6083.00,1.2316
6082.00,1.2265
6081.00,1.2214
6080.00,1.2161
6079.00,1.2101
6078.00,1.2034
6077.00,1.1962
6076.00,1.1883
6075.00,1.1798
6074.00,1.1709
6073.00,1.1618
6072.00,1.1525
6071.00,1.1428
6070.00,1.1327
6069.00,1.1221
6068.00,1.1111
6067.00,1.0996
6066.00,1.0877
6065.00,1.0757
6064.00,1.0635
6063.00,1.0511
6062.00,1.0385
6061.00,1.0258
6060.00,1.0128
6059.00,0.9996
6058.00,0.9861
6057.00,0.9727
6056.00,0.9594
6055.00,0.9463
6054.00,0.9334
6053.00,0.9207
6052.00,0.9082
6051.00,0.8958
6050.00,0.8836
6049.00,0.8717
6048.00,0.8600
6047.00,0.8489
6046.00,0.8384
6045.00,0.8285
6044.00,0.8192
6043.00,0.8106
6042.00,0.8028
6041.00,0.7956
6040.00,0.7890
6039.00,0.7830
6038.00,0.7778
6037.00,0.7734
6036.00,0.7698
6035.00,0.7670
6034.00,0.7650
6033.00,0.7640
6032.00,0.7639
6031.00,0.7646
6030.00,0.7662
6029.00,0.7688
6028.00,0.7721
6027.00,0.7762
6026.00,0.7810
6025.00,0.7865
6024.00,0.7925
6023.00,0.7990
6022.00,0.8062
6021.00,0.8142
6020.00,0.8229
6019.00,0.8321
6018.00,0.8417
6017.00,0.8516
6016.00,0.8617
6015.00,0.8719
6014.00,0.8823
6013.00,0.8930
6012.00,0.9041
6011.00,0.9155
6010.00,0.9274
6009.00,0.9394
6008.00,0.9515
6007.00,0.9635
6006.00,0.9757
6005.00,0.9879
6004.00,1.0001
6003.00,1.0121
6002.00,1.0239
6001.00,1.0357
6000.00,1.0475
5999.00,1.0592
5998.00,1.0708
5997.00,1.0824
5996.00,1.0938
5995.00,1.1050
5994.00,1.1159
5993.00,1.1264
5992.00,1.1368
5991.00,1.1469
5990.00,1.1569
5989.00,1.1668
5988.00,1.1766
5987.00,1.1861
5986.00,1.1951
5985.00,1.2036
5984.00,1.2116
5983.00,1.2190
5982.00,1.2261
5981.00,1.2329
5980.00,1.2394
5979.00,1.2457
5978.00,1.2516
5977.00,1.2571
5976.00,1.2621
5975.00,1.2668
5974.00,1.2712
5973.00,1.2752
5972.00,1.2790
5971.00,1.2824
5970.00,1.2853
5969.00,1.2878
5968.00,1.2899
5967.00,1.2915
5966.00,1.2923
5965.00,1.2924
5964.00,1.2920
5963.00,1.2914
5962.00,1.2909
5961.00,1.2900
5960.00,1.2887
5959.00,1.2871
5958.00,1.2852
5957.00,1.2830
5956.00,1.2797
5955.00,1.2755
5954.00,1.2707
5953.00,1.2658
5952.00,1.2606
5951.00,1.2551
5950.00,1.2494
5949.00,1.2435
5948.00,1.2372
5947.00,1.2299
5946.00,1.2218
5945.00,1.2130
5944.00,1.2038
5943.00,1.1942
5942.00,1.1844
5941.00,1.1742
5940.00,1.1636
5939.00,1.1525
5938.00,1.1411
5937.00,1.1295
5936.00,1.1176
5935.00,1.1053
5934.00,1.0927
5933.00,1.0799
5932.00,1.0669
5931.00,1.0534
5930.00,1.0396
5929.00,1.0257
5928.00,1.0117
5927.00,0.9977
5926.00,0.9838
5925.00,0.9700
5924.00,0.9564
5923.00,0.9428
5922.00,0.9292
5921.00,0.9159
5920.00,0.9028
5919.00,0.8900
5918.00,0.8777
5917.00,0.8661
5916.00,0.8550
5915.00,0.8445
5914.00,0.8343
5913.00,0.8248
5912.00,0.8159
5911.00,0.8077
5910.00,0.8003
5909.00,0.7936
5908.00,0.7879
5907.00,0.7829
5906.00,0.7789
5905.00,0.7758
5904.00,0.7735
5903.00,0.7722
5902.00,0.7717
5901.00,0.7721
5900.00,0.7733
5899.00,0.7753
5898.00,0.7782
5897.00,0.7819
5896.00,0.7865
5895.00,0.7918
5894.00,0.7979
5893.00,0.8046
5892.00,0.8119
5891.00,0.8199
5890.00,0.8285
5889.00,0.8377
5888.00,0.8473
5887.00,0.8573
5886.00,0.8676
5885.00,0.8782
5884.00,0.8892
5883.00,0.9004
5882.00,0.9120
5881.00,0.9238
5880.00,0.9358
5879.00,0.9478
5878.00,0.9599
5877.00,0.9721
5876.00,0.9845
5875.00,0.9971
5874.00,1.0099
5873.00,1.0226
5872.00,1.0352
5871.00,1.0476
5870.00,1.0597
5869.00,1.0716
5868.00,1.0834
5867.00,1.0951
5866.00,1.1067
5865.00,1.1183
5864.00,1.1297
5863.00,1.1411
5862.00,1.1525
5861.00,1.1636
5860.00,1.1744
5859.00,1.1844
5858.00,1.1939
5857.00,1.2029
5856.00,1.2118
5855.00,1.2205
5854.00,1.2293
5853.00,1.2381
5852.00,1.2469
5851.00,1.2552
5850.00,1.2628
5849.00,1.2697
5848.00,1.2760
5847.00,1.2818
5846.00,1.2869
5845.00,1.2918
5844.00,1.2963
5843.00,1.3005
5842.00,1.3042
5841.00,1.3076
5840.00,1.3108
5839.00,1.3137
5838.00,1.3160
5837.00,1.3178
5836.00,1.3192
5835.00,1.3201
5834.00,1.3204
5833.00,1.3202
5832.00,1.3197
5831.00,1.3189
5830.00,1.3177
5829.00,1.3158
5828.00,1.3133
5827.00,1.3105
5826.00,1.3073
5825.00,1.3037
5824.00,1.2999
5823.00,1.2959
5822.00,1.2914
5821.00,1.2861
5820.00,1.2800
5819.00,1.2734
5818.00,1.2665
5817.00,1.2592
5816.00,1.2516
5815.00,1.2436
5814.00,1.2351
5813.00,1.2260
5812.00,1.2163
5811.00,1.2061
5810.00,1.1957
5809.00,1.1850
5808.00,1.1741
5807.00,1.1629
5806.00,1.1515
5805.00,1.1397
5804.00,1.1276
5803.00,1.1150
5802.00,1.1020
5801.00,1.0886
5800.00,1.0748
5799.00,1.0606
5798.00,1.0461
5797.00,1.0315
5796.00,1.0169
5795.00,1.0024
5794.00,0.9881
5793.00,0.9740
5792.00,0.9601
5791.00,0.9463
5790.00,0.9327
5789.00,0.9191
5788.00,0.9058
5787.00,0.8928
5786.00,0.8803
5785.00,0.8682
5784.00,0.8565
5783.00,0.8454
5782.00,0.8349
5781.00,0.8251
5780.00,0.8161
5779.00,0.8079
5778.00,0.8006
5777.00,0.7941
5776.00,0.7885
5775.00,0.7837
5774.00,0.7798
5773.00,0.7768
5772.00,0.7748
5771.00,0.7738
5770.00,0.7739
5769.00,0.7749
5768.00,0.7768
5767.00,0.7796
5766.00,0.7833
5765.00,0.7880
5764.00,0.7934
5763.00,0.7996
5762.00,0.8064
5761.00,0.8139
5760.00,0.8219
5759.00,0.8305
5758.00,0.8395
5757.00,0.8492
5756.00,0.8595
5755.00,0.8703
5754.00,0.8816
5753.00,0.8932
5752.00,0.9049
5751.00,0.9167
5750.00,0.9286
5749.00,0.9406
5748.00,0.9528
5747.00,0.9652
5746.00,0.9778
5745.00,0.9908
5744.00,1.0040
5743.00,1.0170
5742.00,1.0299
5741.00,1.0427
5740.00,1.0552
5739.00,1.0676
5738.00,1.0799
5737.00,1.0922
5736.00,1.1046
5735.00,1.1169
5734.00,1.1289
5733.00,1.1406
5732.00,1.1521
5731.00,1.1634
5730.00,1.1743
5729.00,1.1850
5728.00,1.1954
5727.00,1.2055
5726.00,1.2151
5725.00,1.2245
5724.00,1.2337
5723.00,1.2427
5722.00,1.2513
5721.00,1.2595
5720.00,1.2675
5719.00,1.2752
5718.00,1.2825
5717.00,1.2893
5716.00,1.2954
5715.00,1.3009
5714.00,1.3059
5713.00,1.3105
5712.00,1.3146
5711.00,1.3185
5710.00,1.3220
5709.00,1.3251
5708.00,1.3278
5707.00,1.3301
5706.00,1.3321
5705.00,1.3339
5704.00,1.3353
5703.00,1.3362
5702.00,1.3361
5701.00,1.3353
5700.00,1.3339
5699.00,1.3320
5698.00,1.3296
5697.00,1.3269
5696.00,1.3241
5695.00,1.3211
5694.00,1.3176
5693.00,1.3136
5692.00,1.3088
5691.00,1.3036
5690.00,1.2980
5689.00,1.2921
5688.00,1.2861
5687.00,1.2795
5686.00,1.2724
5685.00,1.2644
5684.00,1.2556
5683.00,1.2462
5682.00,1.2366
5681.00,1.2269
5680.00,1.2170
5679.00,1.2069
5678.00,1.1961
5677.00,1.1846
5676.00,1.1723
5675.00,1.1594
5674.00,1.1463
5673.00,1.1330
5672.00,1.1194
5671.00,1.1056
5670.00,1.0917
5669.00,1.0778
5668.00,1.0639
5667.00,1.0498
5666.00,1.0356
5665.00,1.0212
5664.00,1.0066
5663.00,0.9917
5662.00,0.9767
5661.00,0.9618
5660.00,0.9471
5659.00,0.9327
5658.00,0.9187
5657.00,0.9051
5656.00,0.8919
5655.00,0.8791
5654.00,0.8667
5653.00,0.8548
5652.00,0.8434
5651.00,0.8326
5650.00,0.8226
5649.00,0.8133
5648.00,0.8048
5647.00,0.7970
5646.00,0.7900
5645.00,0.7840
5644.00,0.7788
5643.00,0.7746
5642.00,0.7714
5641.00,0.7692
5640.00,0.7680
5639.00,0.7678
5638.00,0.7686
5637.00,0.7702
5636.00,0.7727
5635.00,0.7762
5634.00,0.7805
5633.00,0.7858
5632.00,0.7918
5631.00,0.7987
5630.00,0.8064
5629.00,0.8148
5628.00,0.8236
5627.00,0.8329
5626.00,0.8428
5625.00,0.8533
5624.00,0.8641
5623.00,0.8754
5622.00,0.8870
5621.00,0.8989
5620.00,0.9109
5619.00,0.9233
5618.00,0.9359
5617.00,0.9487
5616.00,0.9619
5615.00,0.9751
5614.00,0.9883
5613.00,1.0015
5612.00,1.0146
5611.00,1.0278
5610.00,1.0411
5609.00,1.0546
5608.00,1.0680
5607.00,1.0814
5606.00,1.0946
5605.00,1.1075
5604.00,1.1202
5603.00,1.1325
5602.00,1.1445
5601.00,1.1563
5600.00,1.1679
5599.00,1.1792
5598.00,1.1901
5597.00,1.2008
5596.00,1.2113
5595.00,1.2217
5594.00,1.2319
5593.00,1.2418
5592.00,1.2515
5591.00,1.2607
5590.00,1.2694
5589.00,1.2775
5588.00,1.2851
5587.00,1.2923
5586.00,1.2989
5585.00,1.3051
5584.00,1.3108
5583.00,1.3162
5582.00,1.3211
5581.00,1.3255
5580.00,1.3294
5579.00,1.3328
5578.00,1.3361
5577.00,1.3391
5576.00,1.3419
5575.00,1.3442
5574.00,1.3461
5573.00,1.3473
5572.00,1.3477
5571.00,1.3475
5570.00,1.3468
5569.00,1.3459
5568.00,1.3447
5567.00,1.3431
5566.00,1.3410
5565.00,1.3383
5564.00,1.3350
5563.00,1.3312
5562.00,1.3271
5561.00,1.3225
5560.00,1.3175
5559.00,1.3119
5558.00,1.3059
5557.00,1.2993
5556.00,1.2923
5555.00,1.2849
5554.00,1.2771
5553.00,1.2691
5552.00,1.2606
5551.00,1.2517
5550.00,1.2421
5549.00,1.2317
5548.00,1.2206
5547.00,1.2090
5546.00,1.1971
5545.00,1.1851
5544.00,1.1727
5543.00,1.1600
5542.00,1.1469
5541.00,1.1334
5540.00,1.1195
5539.00,1.1051
5538.00,1.0904
5537.00,1.0754
5536.00,1.0600
5535.00,1.0443
5534.00,1.0286
5533.00,1.0131
5532.00,0.9979
5531.00,0.9828
5530.00,0.9676
5529.00,0.9524
5528.00,0.9371
5527.00,0.9220
5526.00,0.9073
5525.00,0.8930
5524.00,0.8794
5523.00,0.8663
5522.00,0.8539
5521.00,0.8420
5520.00,0.8308
5519.00,0.8202
5518.00,0.8104
5517.00,0.8015
5516.00,0.7933
5515.00,0.7859
5514.00,0.7794
5513.00,0.7740
5512.00,0.7696
5511.00,0.7662
5510.00,0.7639
5509.00,0.7626
5508.00,0.7624
5507.00,0.7632
5506.00,0.7649
5505.00,0.7677
5504.00,0.7713
5503.00,0.7759
5502.00,0.7813
5501.00,0.7875
5500.00,0.7947
5499.00,0.8025
5498.00,0.8111
5497.00,0.8203
5496.00,0.8299
5495.00,0.8400
5494.00,0.8505
5493.00,0.8616
5492.00,0.8731
5491.00,0.8849
5490.00,0.8971
5489.00,0.9095
5488.00,0.9221
5487.00,0.9349
5486.00,0.9478
5485.00,0.9608
5484.00,0.9738
5483.00,0.9869
5482.00,1.0001
5481.00,1.0135
5480.00,1.0268
5479.00,1.0400
5478.00,1.0530
5477.00,1.0659
5476.00,1.0788
5475.00,1.0917
5474.00,1.1046
5473.00,1.1174
5472.00,1.1301
5471.00,1.1425
5470.00,1.1547
5469.00,1.1666
5468.00,1.1781
5467.00,1.1893
5466.00,1.2002
5465.00,1.2108
5464.00,1.2211
5463.00,1.2312
5462.00,1.2409
5461.00,1.2501
5460.00,1.2589
5459.00,1.2674
5458.00,1.2758
5457.00,1.2840
5456.00,1.2918
5455.00,1.2993
5454.00,1.3062
5453.00,1.3127
5452.00,1.3188
5451.00,1.3244
5450.00,1.3295
5449.00,1.3339
5448.00,1.3376
5447.00,1.3409
5446.00,1.3439
5445.00,1.3466
5444.00,1.3489
5443.00,1.3508
5442.00,1.3525
5441.00,1.3538
5440.00,1.3547
5439.00,1.3552
5438.00,1.3550
5437.00,1.3541
5436.00,1.3524
5435.00,1.3498
5434.00,1.3469
5433.00,1.3438
5432.00,1.3407
5431.00,1.3372
5430.00,1.3334
5429.00,1.3293
5428.00,1.3246
5427.00,1.3192
5426.00,1.3131
5425.00,1.3063
5424.00,1.2989
5423.00,1.2908
5422.00,1.2822
5421.00,1.2733
5420.00,1.2640
5419.00,1.2542
5418.00,1.2439
5417.00,1.2332
5416.00,1.2222
5415.00,1.2107
5414.00,1.1987
5413.00,1.1864
5412.00,1.1734
5411.00,1.1599
5410.00,1.1458
5409.00,1.1312
5408.00,1.1162
5407.00,1.1008
5406.00,1.0851
5405.00,1.0692
5404.00,1.0533
5403.00,1.0373
5402.00,1.0212
5401.00,1.0052
5400.00,0.9892
5399.00,0.9733
5398.00,0.9573
5397.00,0.9416
5396.00,0.9261
5395.00,0.9109
5394.00,0.8961
5393.00,0.8817
5392.00,0.8678
5391.00,0.8545
5390.00,0.8419
5389.00,0.8301
5388.00,0.8191
5387.00,0.8089
5386.00,0.7995
5385.00,0.7910
5384.00,0.7836
5383.00,0.7771
5382.00,0.7717
5381.00,0.7674
5380.00,0.7642
5379.00,0.7621
5378.00,0.7611
5377.00,0.7613
5376.00,0.7626
5375.00,0.7650
5374.00,0.7684
5373.00,0.7727
5372.00,0.7779
5371.00,0.7841
5370.00,0.7911
5369.00,0.7989
5368.00,0.8075
5367.00,0.8169
5366.00,0.8270
5365.00,0.8378
5364.00,0.8492
5363.00,0.8610
5362.00,0.8734
5361.00,0.8863
5360.00,0.8994
5359.00,0.9128
5358.00,0.9264
5357.00,0.9402
5356.00,0.9542
5355.00,0.9684
5354.00,0.9829
5353.00,0.9976
5352.00,1.0124
5351.00,1.0271
5350.00,1.0416
5349.00,1.0559
5348.00,1.0701
5347.00,1.0843
5346.00,1.0986
5345.00,1.1129
5344.00,1.1271
5343.00,1.1412
5342.00,1.1548
5341.00,1.1681
5340.00,1.1811
5339.00,1.1941
5338.00,1.2071
5337.00,1.2201
5336.00,1.2325
5335.00,1.2443
5334.00,1.2555
5333.00,1.2660
5332.00,1.2761
5331.00,1.2856
5330.00,1.2945
5329.00,1.3028
5328.00,1.3110
5327.00,1.3191
5326.00,1.3272
5325.00,1.3350
5324.00,1.3425
5323.00,1.3494
5322.00,1.3555
5321.00,1.3610
5320.00,1.3658
5319.00,1.3703
5318.00,1.3743
5317.00,1.3778
5316.00,1.3808
5315.00,1.3833
5314.00,1.3856
5313.00,1.3873
5312.00,1.3885
5311.00,1.3893
5310.00,1.3897
5309.00,1.3895
5308.00,1.3888
5307.00,1.3877
5306.00,1.3860
5305.00,1.3837
5304.00,1.3809
5303.00,1.3777
5302.00,1.3743
5301.00,1.3704
5300.00,1.3659
5299.00,1.3610
5298.00,1.3557
5297.00,1.3501
5296.00,1.3440
5295.00,1.3374
5294.00,1.3303
5293.00,1.3225
5292.00,1.3139
5291.00,1.3047
5290.00,1.2952
5289.00,1.2853
5288.00,1.2751
5287.00,1.2644
5286.00,1.2532
5285.00,1.2414
5284.00,1.2291
5283.00,1.2163
5282.00,1.2030
5281.00,1.1892
5280.00,1.1749
5279.00,1.1602
5278.00,1.1452
5277.00,1.1299
5276.00,1.1143
5275.00,1.0983
5274.00,1.0821
5273.00,1.0657
5272.00,1.0492
5271.00,1.0327
5270.00,1.0161
5269.00,0.9994
5268.00,0.9827
5267.00,0.9661
5266.00,0.9497
5265.00,0.9336
5264.00,0.9178
5263.00,0.9024
5262.00,0.8876
5261.00,0.8733
5260.00,0.8597
5259.00,0.8468
5258.00,0.8347
5257.00,0.8234
5256.00,0.8129
5255.00,0.8034
5254.00,0.7947
5253.00,0.7871
5252.00,0.7805
5251.00,0.7750
5250.00,0.7706
5249.00,0.7675
5248.00,0.7656
5247.00,0.7648
5246.00,0.7651
5245.00,0.7665
5244.00,0.7690
5243.00,0.7726
5242.00,0.7773
5241.00,0.7829
5240.00,0.7895
5239.00,0.7969
5238.00,0.8052
5237.00,0.8143
5236.00,0.8241
5235.00,0.8344
5234.00,0.8453
5233.00,0.8568
5232.00,0.8689
5231.00,0.8816
5230.00,0.8948
5229.00,0.9083
5228.00,0.9219
5227.00,0.9356
5226.00,0.9495
5225.00,0.9637
5224.00,0.9783
5223.00,0.9931
5222.00,1.0080
5221.00,1.0230
5220.00,1.0378
5219.00,1.0524
5218.00,1.0671
5217.00,1.0817
5216.00,1.0963
5215.00,1.1108
5214.00,1.1251
5213.00,1.1393
5212.00,1.1531
5211.00,1.1667
5210.00,1.1800
5209.00,1.1932
5208.00,1.2062
5207.00,1.2190
5206.00,1.2315
5205.00,1.2438
5204.00,1.2557
5203.00,1.2672
5202.00,1.2784
5201.00,1.2893
5200.00,1.2997
5199.00,1.3095
5198.00,1.3187
5197.00,1.3273
5196.00,1.3355
5195.00,1.3434
5194.00,1.3511
5193.00,1.3586
5192.00,1.3657
5191.00,1.3723
5190.00,1.3782
5189.00,1.3835
5188.00,1.3884
5187.00,1.3927
5186.00,1.3964
5185.00,1.3996
5184.00,1.4026
5183.00,1.4052
5182.00,1.4074
5181.00,1.4091
5180.00,1.4104
5179.00,1.4111
5178.00,1.4110
5177.00,1.4102
5176.00,1.4090
5175.00,1.4075
5174.00,1.4057
5173.00,1.4035
5172.00,1.4009
5171.00,1.3978
5170.00,1.3941
5169.00,1.3898
5168.00,1.3848
5167.00,1.3794
5166.00,1.3735
5165.00,1.3670
5164.00,1.3600
5163.00,1.3527
5162.00,1.3449
5161.00,1.3367
5160.00,1.3280
5159.00,1.3187
5158.00,1.3089
5157.00,1.2986
5156.00,1.2876
5155.00,1.2761
5154.00,1.2641
5153.00,1.2515
5152.00,1.2383
5151.00,1.2246
5150.00,1.2104
5149.00,1.1958
5148.00,1.1807
5147.00,1.1652
5146.00,1.1494
5145.00,1.1334
5144.00,1.1172
5143.00,1.1007
5142.00,1.0838
5141.00,1.0666
5140.00,1.0490
5139.00,1.0313
5138.00,1.0136
5137.00,0.9961
5136.00,0.9788
5135.00,0.9617
5134.00,0.9449
5133.00,0.9284
5132.00,0.9123
5131.00,0.8966
5130.00,0.8815
5129.00,0.8670
5128.00,0.8531
5127.00,0.8400
5126.00,0.8278
5125.00,0.8166
5124.00,0.8065
5123.00,0.7974
5122.00,0.7895
5121.00,0.7827
5120.00,0.7769
5119.00,0.7724
5118.00,0.7690
5117.00,0.7670
5116.00,0.7662
5115.00,0.7666
5114.00,0.7683
5113.00,0.7712
5112.00,0.7753
5111.00,0.7805
5110.00,0.7869
5109.00,0.7944
5108.00,0.8028
5107.00,0.8122
5106.00,0.8223
5105.00,0.8332
5104.00,0.8446
5103.00,0.8567
5102.00,0.8692
5101.00,0.8824
5100.00,0.8961
5099.00,0.9102
5098.00,0.9247
5097.00,0.9395
5096.00,0.9545
5095.00,0.9697
5094.00,0.9852
5093.00,1.0007
5092.00,1.0164
5091.00,1.0321
5090.00,1.0477
5089.00,1.0633
5088.00,1.0788
5087.00,1.0944
5086.00,1.1101
5085.00,1.1257
5084.00,1.1413
5083.00,1.1566
5082.00,1.1716
5081.00,1.1861
5080.00,1.2004
5079.00,1.2143
5078.00,1.2280
5077.00,1.2416
5076.00,1.2547
5075.00,1.2675
5074.00,1.2798
5073.00,1.2917
5072.00,1.3032
5071.00,1.3144
5070.00,1.3253
5069.00,1.3359
5068.00,1.3462
5067.00,1.3560
5066.00,1.3651
5065.00,1.3736
5064.00,1.3814
5063.00,1.3885
5062.00,1.3951
5061.00,1.4011
5060.00,1.4067
5059.00,1.4117
5058.00,1.4162
5057.00,1.4203
5056.00,1.4241
5055.00,1.4277
5054.00,1.4310
5053.00,1.4340
5052.00,1.4364
5051.00,1.4382
5050.00,1.4394
5049.00,1.4401
5048.00,1.4403
5047.00,1.4401
5046.00,1.4393
5045.00,1.4378
5044.00,1.4355
5043.00,1.4327
5042.00,1.4295
5041.00,1.4260
5040.00,1.4223
5039.00,1.4183
5038.00,1.4140
5037.00,1.4092
5036.00,1.4038
5035.00,1.3977
5034.00,1.3910
5033.00,1.3835
5032.00,1.3754
5031.00,1.3668
5030.00,1.3578
5029.00,1.3484
5028.00,1.3387
5027.00,1.3283
5026.00,1.3173
5025.00,1.3057
5024.00,1.2935
5023.00,1.2808
5022.00,1.2675
5021.00,1.2538
5020.00,1.2396
5019.00,1.2250
5018.00,1.2099
5017.00,1.1944
5016.00,1.1786
5015.00,1.1624
5014.00,1.1458
5013.00,1.1287
5012.00,1.1112
5011.00,1.0934
5010.00,1.0754
5009.00,1.0572
5008.00,1.0388
5007.00,1.0204
5006.00,1.0019
5005.00,0.9835
5004.00,0.9652
5003.00,0.9472
5002.00,0.9296
5001.00,0.9123
5000.00,0.8953
4999.00,0.8789
4998.00,0.8632
4997.00,0.8482
4996.00,0.8341
4995.00,0.8210
4994.00,0.8090
4993.00,0.7981
4992.00,0.7884
4991.00,0.7799
4990.00,0.7727
4989.00,0.7668
4988.00,0.7623
4987.00,0.7592
4986.00,0.7575
4985.00,0.7571
4984.00,0.7580
4983.00,0.7602
4982.00,0.7636
4981.00,0.7682
4980.00,0.7741
4979.00,0.7810
4978.00,0.7890
4977.00,0.7980
4976.00,0.8079
4975.00,0.8187
4974.00,0.8303
4973.00,0.8427
4972.00,0.8556
4971.00,0.8692
4970.00,0.8833
4969.00,0.8979
4968.00,0.9129
4967.00,0.9282
4966.00,0.9438
4965.00,0.9597
4964.00,0.9758
4963.00,0.9920
4962.00,1.0082
4961.00,1.0246
4960.00,1.0410
4959.00,1.0575
4958.00,1.0741
4957.00,1.0908
4956.00,1.1074
4955.00,1.1238
4954.00,1.1400
4953.00,1.1559
4952.00,1.1716
4951.00,1.1871
4950.00,1.2024
4949.00,1.2174
4948.00,1.2321
4947.00,1.2465
4946.00,1.2605
4945.00,1.2740
4944.00,1.2871
4943.00,1.3000
4942.00,1.3126
4941.00,1.3248
4940.00,1.3365
4939.00,1.3476
4938.00,1.3580
4937.00,1.3681
4936.00,1.3779
4935.00,1.3873
4934.00,1.3962
4933.00,1.4044
4932.00,1.4118
4931.00,1.4189
4930.00,1.4255
4929.00,1.4318
4928.00,1.4375
4927.00,1.4426
4926.00,1.4472
4925.00,1.4514
4924.00,1.4549
4923.00,1.4580
4922.00,1.4604
4921.00,1.4624
4920.00,1.4640
4919.00,1.4652
4918.00,1.4659
4917.00,1.4659
4916.00,1.4653
4915.00,1.4641
4914.00,1.4624
4913.00,1.4604
4912.00,1.4582
4911.00,1.4555
4910.00,1.4523
4909.00,1.4484
4908.00,1.4441
4907.00,1.4394
4906.00,1.4343
4905.00,1.4287
4904.00,1.4226
4903.00,1.4158
4902.00,1.4084
4901.00,1.4002
4900.00,1.3914
4899.00,1.3822
4898.00,1.3726
4897.00,1.3626
4896.00,1.3521
4895.00,1.3411
4894.00,1.3295
4893.00,1.3172
4892.00,1.3042
4891.00,1.2906
4890.00,1.2765
4889.00,1.2616
4888.00,1.2462
4887.00,1.2303
4886.00,1.2139
4885.00,1.1972
4884.00,1.1800
4883.00,1.1624
4882.00,1.1443
4881.00,1.1257
4880.00,1.1068
4879.00,1.0875
4878.00,1.0682
4877.00,1.0488
4876.00,1.0293
4875.00,1.0099
4874.00,0.9907
4873.00,0.9716
4872.00,0.9528
4871.00,0.9344
4870.00,0.9165
4869.00,0.8990
4868.00,0.8822
4867.00,0.8662
4866.00,0.8510
4865.00,0.8369
4864.00,0.8238
4863.00,0.8118
4862.00,0.8010
4861.00,0.7915
4860.00,0.7832
4859.00,0.7762
4858.00,0.7707
4857.00,0.7666
4856.00,0.7640
4855.00,0.7628
4854.00,0.7631
4853.00,0.7648
4852.00,0.7679
4851.00,0.7722
4850.00,0.7779
4849.00,0.7849
4848.00,0.7930
4847.00,0.8022
4846.00,0.8125
4845.00,0.8236
4844.00,0.8356
4843.00,0.8484
4842.00,0.8618
4841.00,0.8759
4840.00,0.8906
4839.00,0.9058
4838.00,0.9215
4837.00,0.9375
4836.00,0.9539
4835.00,0.9706
4834.00,0.9876
4833.00,1.0049
4832.00,1.0222
4831.00,1.0395
4830.00,1.0569
4829.00,1.0743
4828.00,1.0917
4827.00,1.1092
4826.00,1.1265
4825.00,1.1436
4824.00,1.1605
4823.00,1.1772
4822.00,1.1937
4821.00,1.2101
4820.00,1.2260
4819.00,1.2416
4818.00,1.2570
4817.00,1.2720
4816.00,1.2868
4815.00,1.3013
4814.00,1.3152
4813.00,1.3284
4812.00,1.3409
4811.00,1.3529
4810.00,1.3646
4809.00,1.3761
4808.00,1.3874
4807.00,1.3982
4806.00,1.4083
4805.00,1.4176
4804.00,1.4262
4803.00,1.4343
4802.00,1.4422
4801.00,1.4497
4800.00,1.4567
4799.00,1.4631
4798.00,1.4687
4797.00,1.4736
4796.00,1.4780
4795.00,1.4821
4794.00,1.4858
4793.00,1.4889
4792.00,1.4914
4791.00,1.4934
4790.00,1.4948
4789.00,1.4961
4788.00,1.4970
4787.00,1.4975
4786.00,1.4971
4785.00,1.4960
4784.00,1.4944
4783.00,1.4925
4782.00,1.4904
4781.00,1.4882
4780.00,1.4853
4779.00,1.4818
4778.00,1.4773
4777.00,1.4720
4776.00,1.4661
4775.00,1.4600
4774.00,1.4536
4773.00,1.4469
4772.00,1.4397
4771.00,1.4317
4770.00,1.4230
4769.00,1.4135
4768.00,1.4036
4767.00,1.3933
4766.00,1.3825
4765.00,1.3713
4764.00,1.3593
4763.00,1.3466
4762.00,1.3333
4761.00,1.3195
4760.00,1.3052
4759.00,1.2904
4758.00,1.2750
4757.00,1.2591
4756.00,1.2426
4755.00,1.2255
4754.00,1.2079
4753.00,1.1898
4752.00,1.1712
4751.00,1.1520
4750.00,1.1324
4749.00,1.1125
4748.00,1.0924
4747.00,1.0721
4746.00,1.0517
4745.00,1.0313
4744.00,1.0110
4743.00,0.9909
4742.00,0.9711
4741.00,0.9516
4740.00,0.9326
4739.00,0.9141
4738.00,0.8961
4737.00,0.8789
4736.00,0.8626
4735.00,0.8472
4734.00,0.8329
4733.00,0.8197
4732.00,0.8076
4731.00,0.7969
4730.00,0.7876
4729.00,0.7798
4728.00,0.7735
4727.00,0.7688
4726.00,0.7655
4725.00,0.7639
4724.00,0.7637
4723.00,0.7652
4722.00,0.7683
4721.00,0.7728
4720.00,0.7786
4719.00,0.7858
4718.00,0.7942
4717.00,0.8038
4716.00,0.8144
4715.00,0.8261
4714.00,0.8388
4713.00,0.8524
4712.00,0.8666
4711.00,0.8815
4710.00,0.8971
4709.00,0.9132
4708.00,0.9297
4707.00,0.9468
4706.00,0.9642
4705.00,0.9818
4704.00,0.9996
4703.00,1.0176
4702.00,1.0358
4701.00,1.0541
4700.00,1.0725
4699.00,1.0909
4698.00,1.1092
4697.00,1.1275
4696.00,1.1457
4695.00,1.1637
4694.00,1.1817
4693.00,1.1995
4692.00,1.2171
4691.00,1.2344
4690.00,1.2513
4689.00,1.2679
4688.00,1.2840
4687.00,1.2997
4686.00,1.3151
4685.00,1.3300
4684.00,1.3444
4683.00,1.3583
4682.00,1.3716
4681.00,1.3844
4680.00,1.3967
4679.00,1.4084
4678.00,1.4196
4677.00,1.4301
4676.00,1.4400
4675.00,1.4494
4674.00,1.4583
4673.00,1.4667
4672.00,1.4747
4671.00,1.4824
4670.00,1.4897
4669.00,1.4966
4668.00,1.5031
4667.00,1.5089
4666.00,1.5141
4665.00,1.5185
4664.00,1.5222
4663.00,1.5252
4662.00,1.5277
4661.00,1.5299
4660.00,1.5317
4659.00,1.5332
4658.00,1.5341
4657.00,1.5345
4656.00,1.5344
4655.00,1.5339
4654.00,1.5329
4653.00,1.5313
4652.00,1.5292
4651.00,1.5265
4650.00,1.5235
4649.00,1.5201
4648.00,1.5164
4647.00,1.5122
4646.00,1.5074
4645.00,1.5019
4644.00,1.4957
4643.00,1.4887
4642.00,1.4813
4641.00,1.4736
4640.00,1.4656
4639.00,1.4573
4638.00,1.4485
4637.00,1.4388
4636.00,1.4285
4635.00,1.4174
4634.00,1.4058
4633.00,1.3937
4632.00,1.3809
4631.00,1.3675
4630.00,1.3533
4629.00,1.3384
4628.00,1.3228
4627.00,1.3067
4626.00,1.2901
4625.00,1.2730
4624.00,1.2553
4623.00,1.2370
4622.00,1.2181
4621.00,1.1988
4620.00,1.1791
4619.00,1.1590
4618.00,1.1385
4617.00,1.1176
4616.00,1.0966
4615.00,1.0755
4614.00,1.0544
4613.00,1.0334
4612.00,1.0125
4611.00,0.9918
4610.00,0.9713
4609.00,0.9513
4608.00,0.9319
4607.00,0.9132
4606.00,0.8953
4605.00,0.8782
4604.00,0.8621
4603.00,0.8472
4602.00,0.8335
4601.00,0.8212
4600.00,0.8101
4599.00,0.8005
4598.00,0.7924
4597.00,0.7859
4596.00,0.7810
4595.00,0.7777
4594.00,0.7761
4593.00,0.7762
4592.00,0.7779
4591.00,0.7812
4590.00,0.7861
4589.00,0.7926
4588.00,0.8005
4587.00,0.8097
4586.00,0.8201
4585.00,0.8316
4584.00,0.8441
4583.00,0.8575
4582.00,0.8719
4581.00,0.8871
4580.00,0.9031
4579.00,0.9196
4578.00,0.9368
4577.00,0.9543
4576.00,0.9721
4575.00,0.9902
4574.00,1.0086
4573.00,1.0272
4572.00,1.0461
4571.00,1.0651
4570.00,1.0842
4569.00,1.1032
4568.00,1.1222
4567.00,1.1412
4566.00,1.1601
4565.00,1.1789
4564.00,1.1975
4563.00,1.2158
4562.00,1.2339
4561.00,1.2518
4560.00,1.2695
4559.00,1.2869
4558.00,1.3039
4557.00,1.3203
4556.00,1.3362
4555.00,1.3514
4554.00,1.3662
4553.00,1.3807
4552.00,1.3947
4551.00,1.4083
4550.00,1.4214
4549.00,1.4339
4548.00,1.4458
4547.00,1.4571
4546.00,1.4678
4545.00,1.4779
4544.00,1.4872
4543.00,1.4959
4542.00,1.5040
4541.00,1.5116
4540.00,1.5189
4539.00,1.5258
4538.00,1.5324
4537.00,1.5385
4536.00,1.5439
4535.00,1.5486
4534.00,1.5526
4533.00,1.5561
4532.00,1.5593
4531.00,1.5621
4530.00,1.5643
4529.00,1.5659
4528.00,1.5669
4527.00,1.5675
4526.00,1.5678
4525.00,1.5677
4524.00,1.5670
4523.00,1.5656
4522.00,1.5634
4521.00,1.5606
4520.00,1.5571
4519.00,1.5533
4518.00,1.5490
4517.00,1.5443
4516.00,1.5391
4515.00,1.5334
4514.00,1.5273
4513.00,1.5209
4512.00,1.5139
4511.00,1.5065
4510.00,1.4984
4509.00,1.4896
4508.00,1.4800
4507.00,1.4696
4506.00,1.4585
4505.00,1.4470
4504.00,1.4351
4503.00,1.4227
4502.00,1.4098
4501.00,1.3960
4500.00,1.3814
4499.00,1.3659
4498.00,1.3497
4497.00,1.3329
4496.00,1.3155
4495.00,1.2977
4494.00,1.2795
4493.00,1.2607
4492.00,1.2411
4491.00,1.2208
4490.00,1.1998
4489.00,1.1784
4488.00,1.1567
4487.00,1.1348
4486.00,1.1126
4485.00,1.0902
4484.00,1.0676
4483.00,1.0450
4482.00,1.0226
4481.00,1.0005
4480.00,0.9788
4479.00,0.9576
4478.00,0.9371
4477.00,0.9172
4476.00,0.8981
4475.00,0.8799
4474.00,0.8628
4473.00,0.8470
4472.00,0.8325
4471.00,0.8195
4470.00,0.8081
4469.00,0.7984
4468.00,0.7903
4467.00,0.7838
4466.00,0.7792
4465.00,0.7763
4464.00,0.7753
4463.00,0.7762
4462.00,0.7789
4461.00,0.7834
4460.00,0.7895
4459.00,0.7972
4458.00,0.8063
4457.00,0.8167
4456.00,0.8285
4455.00,0.8416
4454.00,0.8558
4453.00,0.8710
4452.00,0.8871
4451.00,0.9039
4450.00,0.9213
4449.00,0.9392
4448.00,0.9577
4447.00,0.9766
4446.00,0.9960
4445.00,1.0157
4444.00,1.0356
4443.00,1.0556
4442.00,1.0758
4441.00,1.0961
4440.00,1.1165
4439.00,1.1369
4438.00,1.1573
4437.00,1.1776
4436.00,1.1976
4435.00,1.2173
4434.00,1.2367
4433.00,1.2557
4432.00,1.2745
4431.00,1.2932
4430.00,1.3116
4429.00,1.3296
4428.00,1.3472
4427.00,1.3641
4426.00,1.3805
4425.00,1.3964
4424.00,1.4119
4423.00,1.4268
4422.00,1.4412
4421.00,1.4551
4420.00,1.4683
4419.00,1.4810
4418.00,1.4930
4417.00,1.5044
4416.00,1.5150
4415.00,1.5251
4414.00,1.5347
4413.00,1.5438
4412.00,1.5526
4411.00,1.5608
4410.00,1.5683
4409.00,1.5750
4408.00,1.5810
4407.00,1.5867
4406.00,1.5921
4405.00,1.5970
4404.00,1.6013
4403.00,1.6048
4402.00,1.6076
4401.00,1.6099
4400.00,1.6121
4399.00,1.6141
4398.00,1.6157
4397.00,1.6168
4396.00,1.6171
4395.00,1.6167
4394.00,1.6156
4393.00,1.6139
4392.00,1.6116
4391.00,1.6088
4390.00,1.6057
4389.00,1.6024
4388.00,1.5989
4387.00,1.5952
4386.00,1.5909
4385.00,1.5860
4384.00,1.5802
4383.00,1.5737
4382.00,1.5667
4381.00,1.5595
4380.00,1.5521
4379.00,1.5443
4378.00,1.5359
4377.00,1.5267
4376.00,1.5168
4375.00,1.5064
4374.00,1.4957
4373.00,1.4847
4372.00,1.4733
4371.00,1.4613
4370.00,1.4487
4369.00,1.4355
4368.00,1.4215
4367.00,1.4068
4366.00,1.3915
4365.00,1.3757
4364.00,1.3594
4363.00,1.3425
4362.00,1.3249
4361.00,1.3067
4360.00,1.2878
4359.00,1.2685
4358.00,1.2487
4357.00,1.2284
4356.00,1.2078
4355.00,1.1868
4354.00,1.1656
4353.00,1.1443
4352.00,1.1229
4351.00,1.1016
4350.00,1.0803
4349.00,1.0593
4348.00,1.0387
4347.00,1.0186
4346.00,0.9991
4345.00,0.9803
4344.00,0.9623
4343.00,0.9450
4342.00,0.9288
4341.00,0.9135
4340.00,0.8994
4339.00,0.8865
4338.00,0.8751
4337.00,0.8653
4336.00,0.8571
4335.00,0.8507
4334.00,0.8462
4333.00,0.8436
4332.00,0.8429
4331.00,0.8441
4330.00,0.8472
4329.00,0.8523
4328.00,0.8592
4327.00,0.8677
4326.00,0.8778
4325.00,0.8892
4324.00,0.9019
4323.00,0.9157
4322.00,0.9306
4321.00,0.9464
4320.00,0.9632
4319.00,0.9808
4318.00,0.9990
4317.00,1.0176
4316.00,1.0367
4315.00,1.0559
4314.00,1.0755
4313.00,1.0951
4312.00,1.1149
4311.00,1.1349
4310.00,1.1549
4309.00,1.1750
4308.00,1.1951
4307.00,1.2150
4306.00,1.2349
4305.00,1.2545
4304.00,1.2739
4303.00,1.2929
4302.00,1.3116
4301.00,1.3300
4300.00,1.3481
4299.00,1.3661
4298.00,1.3839
4297.00,1.4013
4296.00,1.4182
4295.00,1.4345
4294.00,1.4503
4293.00,1.4655
4292.00,1.4802
4291.00,1.4942
4290.00,1.5077
4289.00,1.5204
4288.00,1.5324
4287.00,1.5437
4286.00,1.5544
4285.00,1.5645
4284.00,1.5740
4283.00,1.5831
4282.00,1.5918
4281.00,1.6000
4280.00,1.6078
4279.00,1.6151
4278.00,1.6219
4277.00,1.6280
4276.00,1.6337
4275.00,1.6390
4274.00,1.6438
4273.00,1.6480
4272.00,1.6514
4271.00,1.6537
4270.00,1.6553
4269.00,1.6565
4268.00,1.6575
4267.00,1.6585
4266.00,1.6592
4265.00,1.6596
4264.00,1.6596
4263.00,1.6590
4262.00,1.6576
4261.00,1.6555
4260.00,1.6527
4259.00,1.6494
4258.00,1.6458
4257.00,1.6419
4256.00,1.6374
4255.00,1.6322
4254.00,1.6264
4253.00,1.6200
4252.00,1.6131
4251.00,1.6059
4250.00,1.5981
4249.00,1.5898
4248.00,1.5810
4247.00,1.5715
4246.00,1.5613
4245.00,1.5503
4244.00,1.5388
4243.00,1.5268
4242.00,1.5142
4241.00,1.5010
4240.00,1.4872
4239.00,1.4726
4238.00,1.4573
4237.00,1.4413
4236.00,1.4248
4235.00,1.4077
4234.00,1.3901
4233.00,1.3717
4232.00,1.3524
4231.00,1.3324
4230.00,1.3118
4229.00,1.2907
4228.00,1.2694
4227.00,1.2478
4226.00,1.2259
4225.00,1.2038
4224.00,1.1815
4223.00,1.1591
4222.00,1.1368
4221.00,1.1144
4220.00,1.0922
4219.00,1.0702
4218.00,1.0485
4217.00,1.0274
4216.00,1.0068
4215.00,0.9870
4214.00,0.9680
4213.00,0.9498
4212.00,0.9327
4211.00,0.9168
4210.00,0.9022
4209.00,0.8891
4208.00,0.8775
4207.00,0.8676
4206.00,0.8596
4205.00,0.8533
4204.00,0.8490
4203.00,0.8467
4202.00,0.8463
4201.00,0.8479
4200.00,0.8514
4199.00,0.8569
4198.00,0.8641
4197.00,0.8730
4196.00,0.8836
4195.00,0.8956
4194.00,0.9090
4193.00,0.9236
4192.00,0.9393
4191.00,0.9559
4190.00,0.9733
4189.00,0.9915
4188.00,1.0104
4187.00,1.0298
4186.00,1.0495
4185.00,1.0696
4184.00,1.0899
4183.00,1.1104
4182.00,1.1312
4181.00,1.1521
4180.00,1.1732
4179.00,1.1943
4178.00,1.2154
4177.00,1.2365
4176.00,1.2574
4175.00,1.2781
4174.00,1.2985
4173.00,1.3184
4172.00,1.3381
4171.00,1.3575
4170.00,1.3766
4169.00,1.3954
4168.00,1.4139
4167.00,1.4319
4166.00,1.4492
4165.00,1.4657
4164.00,1.4816
4163.00,1.4971
4162.00,1.5122
4161.00,1.5270
4160.00,1.5412
4159.00,1.5547
4158.00,1.5674
4157.00,1.5794
4156.00,1.5909
4155.00,1.6019
4154.00,1.6125
4153.00,1.6225
4152.00,1.6318
4151.00,1.6403
4150.00,1.6482
4149.00,1.6554
4148.00,1.6623
4147.00,1.6687
4146.00,1.6748
4145.00,1.6804
4144.00,1.6855
4143.00,1.6898
4142.00,1.6935
4141.00,1.6966
4140.00,1.6993
4139.00,1.7018
4138.00,1.7039
4137.00,1.7055
4136.00,1.7064
4135.00,1.7069
4134.00,1.7066
4133.00,1.7058
4132.00,1.7044
4131.00,1.7026
4130.00,1.7005
4129.00,1.6981
4128.00,1.6952
4127.00,1.6916
4126.00,1.6873
4125.00,1.6824
4124.00,1.6770
4123.00,1.6712
4122.00,1.6650
4121.00,1.6583
4120.00,1.6509
4119.00,1.6427
4118.00,1.6339
4117.00,1.6244
4116.00,1.6144
4115.00,1.6041
4114.00,1.5933
4113.00,1.5819
4112.00,1.5698
4111.00,1.5571
4110.00,1.5438
4109.00,1.5298
4108.00,1.5150
4107.00,1.4993
4106.00,1.4827
4105.00,1.4652
4104.00,1.4471
4103.00,1.4283
4102.00,1.4090
4101.00,1.3890
4100.00,1.3684
4099.00,1.3470
4098.00,1.3250
4097.00,1.3024
4096.00,1.2792
4095.00,1.2554
4094.00,1.2310
4093.00,1.2061
4092.00,1.1812
4091.00,1.1562
4090.00,1.1314
4089.00,1.1069
4088.00,1.0826
4087.00,1.0588
4086.00,1.0354
4085.00,1.0129
4084.00,0.9912
4083.00,0.9707
4082.00,0.9514
4081.00,0.9334
4080.00,0.9169
4079.00,0.9020
4078.00,0.8887
4077.00,0.8773
4076.00,0.8679
4075.00,0.8605
4074.00,0.8552
4073.00,0.8521
4072.00,0.8511
4071.00,0.8522
4070.00,0.8555
4069.00,0.8609
4068.00,0.8683
4067.00,0.8776
4066.00,0.8887
4065.00,0.9014
4064.00,0.9156
4063.00,0.9312
4062.00,0.9480
4061.00,0.9659
4060.00,0.9848
4059.00,1.0045
4058.00,1.0248
4057.00,1.0457
4056.00,1.0672
4055.00,1.0891
4054.00,1.1113
4053.00,1.1337
4052.00,1.1563
4051.00,1.1789
4050.00,1.2015
4049.00,1.2241
4048.00,1.2467
4047.00,1.2693
4046.00,1.2916
4045.00,1.3135
4044.00,1.3351
4043.00,1.3562
4042.00,1.3771
4041.00,1.3977
4040.00,1.4179
4039.00,1.4376
4038.00,1.4566
4037.00,1.4751
4036.00,1.4932
4035.00,1.5108
4034.00,1.5278
4033.00,1.5440
4032.00,1.5593
4031.00,1.5740
4030.00,1.5880
4029.00,1.6017
4028.00,1.6150
4027.00,1.6278
4026.00,1.6399
4025.00,1.6512
4024.00,1.6617
4023.00,1.6712
4022.00,1.6801
4021.00,1.6885
4020.00,1.6966
4019.00,1.7043
4018.00,1.7116
4017.00,1.7182
4016.00,1.7242
4015.00,1.7296
4014.00,1.7344
4013.00,1.7385
4012.00,1.7420
4011.00,1.7448
4010.00,1.7473
4009.00,1.7492
4008.00,1.7505
4007.00,1.7513
4006.00,1.7515
4005.00,1.7514
4004.00,1.7510
4003.00,1.7501
4002.00,1.7486
4001.00,1.7464
4000.00,1.7436
3999.00,1.7404
3998.00,1.7367
3997.00,1.7327
3996.00,1.7283
3995.00,1.7234
3994.00,1.7178
3993.00,1.7112
3992.00,1.7038
3991.00,1.6958
3990.00,1.6872
3989.00,1.6781
3988.00,1.6686
3987.00,1.6588
3986.00,1.6483
3985.00,1.6370
3984.00,1.6248
3983.00,1.6119
3982.00,1.5984
3981.00,1.5846
3980.00,1.5702
3979.00,1.5551
3978.00,1.5394
3977.00,1.5231
3976.00,1.5063
3975.00,1.4889
3974.00,1.4710
3973.00,1.4524
3972.00,1.4330
3971.00,1.4129
3970.00,1.3920
3969.00,1.3703
3968.00,1.3478
3967.00,1.3247
3966.00,1.3011
3965.00,1.2771
3964.00,1.2528
3963.00,1.2280
3962.00,1.2029
3961.00,1.1776
3960.00,1.1524
3959.00,1.1275
3958.00,1.1030
3957.00,1.0792
3956.00,1.0560
3955.00,1.0335
3954.00,1.0121
3953.00,0.9919
3952.00,0.9729
3951.00,0.9552
3950.00,0.9389
3949.00,0.9241
3948.00,0.9109
3947.00,0.8997
3946.00,0.8904
3945.00,0.8834
3944.00,0.8785
3943.00,0.8756
3942.00,0.8748
3941.00,0.8760
3940.00,0.8795
3939.00,0.8853
3938.00,0.8933
3937.00,0.9031
3936.00,0.9144
3935.00,0.9274
3934.00,0.9420
3933.00,0.9583
3932.00,0.9759
3931.00,0.9946
3930.00,1.0141
3929.00,1.0342
3928.00,1.0547
3927.00,1.0757
3926.00,1.0974
3925.00,1.1199
3924.00,1.1428
3923.00,1.1659
3922.00,1.1890
3921.00,1.2122
3920.00,1.2355
3919.00,1.2590
3918.00,1.2829
3917.00,1.3073
3916.00,1.3318
3915.00,1.3558
3914.00,1.3790
3913.00,1.4014
3912.00,1.4231
3911.00,1.4443
3910.00,1.4650
3909.00,1.4850
3908.00,1.5043
3907.00,1.5229
3906.00,1.5409
3905.00,1.5588
3904.00,1.5767
3903.00,1.5946
3902.00,1.6123
3901.00,1.6297
3900.00,1.6463
3899.00,1.6617
3898.00,1.6754
3897.00,1.6876
3896.00,1.6988
3895.00,1.7089
3894.00,1.7181
3893.00,1.7265
3892.00,1.7349
3891.00,1.7436
3890.00,1.7523
3889.00,1.7605
3888.00,1.7681
3887.00,1.7752
3886.00,1.7817
3885.00,1.7873
3884.00,1.7919
3883.00,1.7960
3882.00,1.7997
3881.00,1.8026
3880.00,1.8044
3879.00,1.8052
3878.00,1.8059
3877.00,1.8071
3876.00,1.8084
3875.00,1.8088
3874.00,1.8079
3873.00,1.8058
3872.00,1.8032
3871.00,1.8008
3870.00,1.7986
3869.00,1.7958
3868.00,1.7921
3867.00,1.7879
3866.00,1.7838
3865.00,1.7788
3864.00,1.7721
3863.00,1.7642
3862.00,1.7561
3861.00,1.7482
3860.00,1.7403
3859.00,1.7319
3858.00,1.7231
3857.00,1.7140
3856.00,1.7047
3855.00,1.6946
3854.00,1.6829
3853.00,1.6690
3852.00,1.6531
3851.00,1.6367
3850.00,1.6211
3849.00,1.6054
3848.00,1.5881
3847.00,1.5693
3846.00,1.5499
3845.00,1.5301
3844.00,1.5094
3843.00,1.4877
3842.00,1.4652
3841.00,1.4420
3840.00,1.4181
3839.00,1.3929
3838.00,1.3658
3837.00,1.3369
3836.00,1.3075
3835.00,1.2787
3834.00,1.2502
3833.00,1.2211
3832.00,1.1911
3831.00,1.1605
3830.00,1.1303
3829.00,1.1011
3828.00,1.0729
3827.00,1.0453
3826.00,1.0184
3825.00,0.9929
3824.00,0.9698
3823.00,0.9492
3822.00,0.9301
3821.00,0.9114
3820.00,0.8937
3819.00,0.8785
3818.00,0.8679
3817.00,0.8617
3816.00,0.8580
3815.00,0.8552
3814.00,0.8540
3813.00,0.8560
3812.00,0.8616
3811.00,0.8698
3810.00,0.8796
3809.00,0.8917
3808.00,0.9069
3807.00,0.9252
3806.00,0.9449
3805.00,0.9645
3804.00,0.9841
3803.00,1.0052
3802.00,1.0288
3801.00,1.0546
3800.00,1.0811
3799.00,1.1070
3798.00,1.1328
3797.00,1.1587
3796.00,1.1844
3795.00,1.2098
3794.00,1.2356
3793.00,1.2618
3792.00,1.2882
3791.00,1.3140
3790.00,1.3391
3789.00,1.3637
3788.00,1.3882
3787.00,1.4126
3786.00,1.4366
3785.00,1.4604
3784.00,1.4836
3783.00,1.5062
3782.00,1.5281
3781.00,1.5494
3780.00,1.5705
3779.00,1.5910
3778.00,1.6106
3777.00,1.6294
3776.00,1.6474
3775.00,1.6645
3774.00,1.6803
3773.00,1.6949
3772.00,1.7086
3771.00,1.7219
3770.00,1.7349
3769.00,1.7471
3768.00,1.7585
3767.00,1.7694
3766.00,1.7799
3765.00,1.7897
3764.00,1.7982
3763.00,1.8057
3762.00,1.8130
3761.00,1.8204
3760.00,1.8275
3759.00,1.8338
3758.00,1.8397
3757.00,1.8456
3756.00,1.8517
3755.00,1.8579
3754.00,1.8644
3753.00,1.8713
3752.00,1.8786
3751.00,1.8862
3750.00,1.8941
3749.00,1.9028
3748.00,1.9122
3747.00,1.9215
3746.00,1.9303
3745.00,1.9384
3744.00,1.9457
3743.00,1.9518
3742.00,1.9570
3741.00,1.9611
3740.00,1.9625
3739.00,1.9598
3738.00,1.9541
3737.00,1.9466
3736.00,1.9374
3735.00,1.9257
3734.00,1.9112
3733.00,1.8945
3732.00,1.8760
3731.00,1.8555
3730.00,1.8328
3729.00,1.8093
3728.00,1.7870
3727.00,1.7671
3726.00,1.7494
3725.00,1.7333
3724.00,1.7188
3723.00,1.7066
3722.00,1.6969
3721.00,1.6882
3720.00,1.6789
3719.00,1.6676
3718.00,1.6541
3717.00,1.6382
3716.00,1.6199
3715.00,1.5995
3714.00,1.5768
3713.00,1.5510
3712.00,1.5216
3711.00,1.4892
3710.00,1.4546
3709.00,1.4192
3708.00,1.3837
3707.00,1.3485
3706.00,1.3134
3705.00,1.2784
3704.00,1.2435
3703.00,1.2087
3702.00,1.1743
3701.00,1.1406
3700.00,1.1088
3699.00,1.0799
3698.00,1.0543
3697.00,1.0319
3696.00,1.0123
3695.00,0.9958
3694.00,0.9831
3693.00,0.9744
3692.00,0.9695
3691.00,0.9681
3690.00,0.9699
3689.00,0.9749
3688.00,0.9828
3687.00,0.9932
3686.00,1.0056
3685.00,1.0200
3684.00,1.0358
3683.00,1.0529
3682.00,1.0714
3681.00,1.0915
3680.00,1.1132
3679.00,1.1356
3678.00,1.1585
3677.00,1.1828
3676.00,1.2103
3675.00,1.2405
3674.00,1.2706
3673.00,1.2988
3672.00,1.3259
3671.00,1.3532
3670.00,1.3810
3669.00,1.4094
3668.00,1.4376
3667.00,1.4653
3666.00,1.4919
3665.00,1.5168
3664.00,1.5403
3663.00,1.5631
3662.00,1.5856
3661.00,1.6079
3660.00,1.6297
3659.00,1.6510
3658.00,1.6721
3657.00,1.6933
3656.00,1.7147
3655.00,1.7356
3654.00,1.7554
3653.00,1.7741
3652.00,1.7922
3651.00,1.8100
3650.00,1.8282
3649.00,1.8468
3648.00,1.8661
3647.00,1.8861
3646.00,1.9062
3645.00,1.9256
3644.00,1.9435
3643.00,1.9595
3642.00,1.9738
3641.00,1.9870
3640.00,1.9999
3639.00,2.0127
3638.00,2.0249
3637.00,2.0356
3636.00,2.0446
3635.00,2.0515
3634.00,2.0562
3633.00,2.0585
3632.00,2.0588
3631.00,2.0574
3630.00,2.0548
3629.00,2.0511
3628.00,2.0462
3627.00,2.0403
3626.00,2.0350
3625.00,2.0314
3624.00,2.0292
3623.00,2.0276
3622.00,2.0269
3621.00,2.0279
3620.00,2.0313
3619.00,2.0366
3618.00,2.0421
3617.00,2.0466
3616.00,2.0499
3615.00,2.0516
3614.00,2.0514
3613.00,2.0495
3612.00,2.0465
3611.00,2.0430
3610.00,2.0391
3609.00,2.0345
3608.00,2.0286
3607.00,2.0210
3606.00,2.0118
3605.00,2.0018
3604.00,1.9916
3603.00,1.9811
3602.00,1.9700
3601.00,1.9583
3600.00,1.9460
3599.00,1.9333
3598.00,1.9206
3597.00,1.9081
3596.00,1.8956
3595.00,1.8827
3594.00,1.8691
3593.00,1.8552
3592.00,1.8414
3591.00,1.8284
3590.00,1.8159
3589.00,1.8034
3588.00,1.7902
3587.00,1.7760
3586.00,1.7611
3585.00,1.7463
3584.00,1.7322
3583.00,1.7185
3582.00,1.7047
3581.00,1.6906
3580.00,1.6766
3579.00,1.6628
3578.00,1.6491
3577.00,1.6355
3576.00,1.6223
3575.00,1.6095
3574.00,1.5973
3573.00,1.5858
3572.00,1.5749
3571.00,1.5647
3570.00,1.5553
3569.00,1.5466
3568.00,1.5386
3567.00,1.5311
3566.00,1.5242
3565.00,1.5181
3564.00,1.5135
3563.00,1.5103
3562.00,1.5082
3561.00,1.5070
3560.00,1.5068
3559.00,1.5079
3558.00,1.5103
3557.00,1.5136
3556.00,1.5178
3555.00,1.5228
3554.00,1.5287
3553.00,1.5355
3552.00,1.5433
3551.00,1.5519
3550.00,1.5611
3549.00,1.5711
3548.00,1.5816
3547.00,1.5926
3546.00,1.6040
3545.00,1.6160
3544.00,1.6289
3543.00,1.6423
3542.00,1.6559
3541.00,1.6694
3540.00,1.6828
3539.00,1.6961
3538.00,1.7095
3537.00,1.7230
3536.00,1.7369
3535.00,1.7509
3534.00,1.7650
3533.00,1.7789
3532.00,1.7926
3531.00,1.8060
3530.00,1.8194
3529.00,1.8326
3528.00,1.8456
3527.00,1.8583
3526.00,1.8705
3525.00,1.8823
3524.00,1.8941
3523.00,1.9058
3522.00,1.9176
3521.00,1.9291
3520.00,1.9404
3519.00,1.9512
3518.00,1.9616
3517.00,1.9718
3516.00,1.9820
3515.00,1.9917
3514.00,2.0005
3513.00,2.0085
3512.00,2.0165
3511.00,2.0246
3510.00,2.0326
3509.00,2.0398
3508.00,2.0462
3507.00,2.0521
3506.00,2.0580
3505.00,2.0641
3504.00,2.0703
3503.00,2.0764
3502.00,2.0820
3501.00,2.0869
3500.00,2.0913
3499.00,2.0955
3498.00,2.0995
3497.00,2.1033
3496.00,2.1071
3495.00,2.1106
3494.00,2.1135
3493.00,2.1158
3492.00,2.1173
3491.00,2.1183
3490.00,2.1189
3489.00,2.1196
3488.00,2.1205
3487.00,2.1212
3486.00,2.1212
3485.00,2.1206
3484.00,2.1196
3483.00,2.1185
3482.00,2.1174
3481.00,2.1161
3480.00,2.1145
3479.00,2.1124
3478.00,2.1097
3477.00,2.1064
3476.00,2.1027
3475.00,2.0987
3474.00,2.0945
3473.00,2.0903
3472.00,2.0859
3471.00,2.0807
3470.00,2.0744
3469.00,2.0674
3468.00,2.0602
3467.00,2.0528
3466.00,2.0451
3465.00,2.0370
3464.00,2.0287
3463.00,2.0201
3462.00,2.0109
3461.00,2.0011
3460.00,1.9912
3459.00,1.9812
3458.00,1.9706
3457.00,1.9592
3456.00,1.9471
3455.00,1.9348
3454.00,1.9226
3453.00,1.9104
3452.00,1.8981
3451.00,1.8854
3450.00,1.8720
3449.00,1.8580
3448.00,1.8432
3447.00,1.8279
3446.00,1.8122
3445.00,1.7966
3444.00,1.7812
3443.00,1.7662
3442.00,1.7513
3441.00,1.7364
3440.00,1.7215
3439.00,1.7069
3438.00,1.6927
3437.00,1.6789
3436.00,1.6657
3435.00,1.6530
3434.00,1.6409
3433.00,1.6297
3432.00,1.6193
3431.00,1.6099
3430.00,1.6015
3429.00,1.5943
3428.00,1.5883
3427.00,1.5836
3426.00,1.5800
3425.00,1.5779
3424.00,1.5772
3423.00,1.5779
3422.00,1.5800
3421.00,1.5832
3420.00,1.5878
3419.00,1.5936
3418.00,1.6006
3417.00,1.6085
3416.00,1.6173
3415.00,1.6267
3414.00,1.6367
3413.00,1.6468
3412.00,1.6570
3411.00,1.6673
3410.00,1.6775
3409.00,1.6877
3408.00,1.6977
3407.00,1.7074
3406.00,1.7170
3405.00,1.7263
3404.00,1.7352
3403.00,1.7435
3402.00,1.7512
3401.00,1.7585
3400.00,1.7657
3399.00,1.7731
3398.00,1.7808
3397.00,1.7889
3396.00,1.7976
3395.00,1.8067
3394.00,1.8162
3393.00,1.8261
3392.00,1.8364
3391.00,1.8470
3390.00,1.8578
3389.00,1.8687
3388.00,1.8800
3387.00,1.8918
3386.00,1.9039
3385.00,1.9160
3384.00,1.9277
3383.00,1.9391
3382.00,1.9502
3381.00,1.9614
3380.00,1.9723
3379.00,1.9829
3378.00,1.9930
3377.00,2.0028
3376.00,2.0125
3375.00,2.0221
3374.00,2.0313
3373.00,2.0401
3372.00,2.0487
3371.00,2.0569
3370.00,2.0647
3369.00,2.0717
3368.00,2.0782
3367.00,2.0842
3366.00,2.0898
3365.00,2.0951
3364.00,2.0999
3363.00,2.1040
3362.00,2.1078
3361.00,2.1113
3360.00,2.1146
3359.00,2.1173
3358.00,2.1192
3357.00,2.1206
3356.00,2.1218
3355.00,2.1230
3354.00,2.1241
3353.00,2.1251
3352.00,2.1259
3351.00,2.1261
3350.00,2.1255
3349.00,2.1239
3348.00,2.1210
3347.00,2.1172
3346.00,2.1129
3345.00,2.1088
3344.00,2.1051
3343.00,2.1016
3342.00,2.0977
3341.00,2.0929
3340.00,2.0869
3339.00,2.0798
3338.00,2.0721
3337.00,2.0641
3336.00,2.0560
3335.00,2.0473
3334.00,2.0377
3333.00,2.0274
3332.00,2.0166
3331.00,2.0053
3330.00,1.9935
3329.00,1.9815
3328.00,1.9694
3327.00,1.9568
3326.00,1.9435
3325.00,1.9293
3324.00,1.9143
3323.00,1.8987
3322.00,1.8827
3321.00,1.8664
3320.00,1.8496
3319.00,1.8322
3318.00,1.8141
3317.00,1.7952
3316.00,1.7762
3315.00,1.7571
3314.00,1.7381
3313.00,1.7191
3312.00,1.7000
3311.00,1.6808
3310.00,1.6614
3309.00,1.6421
3308.00,1.6231
3307.00,1.6044
3306.00,1.5863
3305.00,1.5687
3304.00,1.5520
3303.00,1.5361
3302.00,1.5211
3301.00,1.5073
3300.00,1.4948
3299.00,1.4839
3298.00,1.4744
3297.00,1.4662
3296.00,1.4596
3295.00,1.4546
3294.00,1.4512
3293.00,1.4497
3292.00,1.4499
3291.00,1.4520
3290.00,1.4558
3289.00,1.4612
3288.00,1.4681
3287.00,1.4765
3286.00,1.4862
3285.00,1.4971
3284.00,1.5092
3283.00,1.5223
3282.00,1.5364
3281.00,1.5515
3280.00,1.5675
3279.00,1.5843
3278.00,1.6018
3277.00,1.6198
3276.00,1.6381
3275.00,1.6566
3274.00,1.6752
3273.00,1.6940
3272.00,1.7128
3271.00,1.7318
3270.00,1.7507
3269.00,1.7694
3268.00,1.7879
3267.00,1.8062
3266.00,1.8243
3265.00,1.8421
3264.00,1.8599
3263.00,1.8774
3262.00,1.8946
3261.00,1.9112
3260.00,1.9273
3259.00,1.9429
3258.00,1.9580
3257.00,1.9726
3256.00,1.9866
3255.00,2.0003
3254.00,2.0137
3253.00,2.0266
3252.00,2.0391
3251.00,2.0510
3250.00,2.0624
3249.00,2.0734
3248.00,2.0837
3247.00,2.0931
3246.00,2.1019
3245.00,2.1104
3244.00,2.1188
3243.00,2.1265
3242.00,2.1336
3241.00,2.1401
3240.00,2.1465
3239.00,2.1528
3238.00,2.1587
3237.00,2.1640
3236.00,2.1684
3235.00,2.1719
3234.00,2.1749
3233.00,2.1777
3232.00,2.1805
3231.00,2.1831
3230.00,2.1849
3229.00,2.1861
3228.00,2.1869
3227.00,2.1877
3226.00,2.1883
3225.00,2.1885
3224.00,2.1878
3223.00,2.1860
3222.00,2.1831
3221.00,2.1798
3220.00,2.1766
3219.00,2.1735
3218.00,2.1703
3217.00,2.1667
3216.00,2.1626
3215.00,2.1580
3214.00,2.1528
3213.00,2.1475
3212.00,2.1418
3211.00,2.1357
3210.00,2.1288
3209.00,2.1212
3208.00,2.1130
3207.00,2.1043
3206.00,2.0949
3205.00,2.0848
3204.00,2.0742
3203.00,2.0630
3202.00,2.0513
3201.00,2.0391
3200.00,2.0263
3199.00,2.0131
3198.00,1.9995
3197.00,1.9857
3196.00,1.9716
3195.00,1.9570
3194.00,1.9416
3193.00,1.9255
3192.00,1.9090
3191.00,1.8923
3190.00,1.8754
3189.00,1.8582
3188.00,1.8407
3187.00,1.8229
3186.00,1.8048
3185.00,1.7866
3184.00,1.7684
3183.00,1.7503
3182.00,1.7323
3181.00,1.7145
3180.00,1.6973
3179.00,1.6806
3178.00,1.6644
3177.00,1.6488
3176.00,1.6340
3175.00,1.6201
3174.00,1.6072
3173.00,1.5954
3172.00,1.5847
3171.00,1.5752
3170.00,1.5673
3169.00,1.5609
3168.00,1.5561
3167.00,1.5528
3166.00,1.5512
3165.00,1.5514
3164.00,1.5532
3163.00,1.5566
3162.00,1.5612
3161.00,1.5671
3160.00,1.5743
3159.00,1.5829
3158.00,1.5928
3157.00,1.6038
3156.00,1.6160
3155.00,1.6292
3154.00,1.6434
3153.00,1.6585
3152.00,1.6744
3151.00,1.6909
3150.00,1.7078
3149.00,1.7253
3148.00,1.7433
3147.00,1.7615
3146.00,1.7799
3145.00,1.7981
3144.00,1.8162
3143.00,1.8345
3142.00,1.8530
3141.00,1.8717
3140.00,1.8904
3139.00,1.9084
3138.00,1.9256
3137.00,1.9421
3136.00,1.9585
3135.00,1.9748
3134.00,1.9909
3133.00,2.0065
3132.00,2.0214
3131.00,2.0358
3130.00,2.0495
3129.00,2.0623
3128.00,2.0745
3127.00,2.0864
3126.00,2.0983
3125.00,2.1100
3124.00,2.1213
3123.00,2.1322
3122.00,2.1428
3121.00,2.1532
3120.00,2.1630
3119.00,2.1723
3118.00,2.1811
3117.00,2.1895
3116.00,2.1970
3115.00,2.2037
3114.00,2.2094
3113.00,2.2144
3112.00,2.2191
3111.00,2.2237
3110.00,2.2284
3109.00,2.2329
3108.00,2.2367
3107.00,2.2394
3106.00,2.2412
3105.00,2.2425
3104.00,2.2438
3103.00,2.2450
3102.00,2.2458
3101.00,2.2457
3100.00,2.2445
3099.00,2.2421
3098.00,2.2392
3097.00,2.2364
3096.00,2.2338
3095.00,2.2311
3094.00,2.2280
3093.00,2.2240
3092.00,2.2186
3091.00,2.2121
3090.00,2.2049
3089.00,2.1975
3088.00,2.1900
3087.00,2.1825
3086.00,2.1746
3085.00,2.1659
3084.00,2.1559
3083.00,2.1444
3082.00,2.1320
3081.00,2.1190
3080.00,2.1057
3079.00,2.0920
3078.00,2.0780
3077.00,2.0635
3076.00,2.0479
3075.00,2.0310
3074.00,2.0130
3073.00,1.9946
3072.00,1.9764
3071.00,1.9579
3070.00,1.9388
3069.00,1.9189
3068.00,1.8988
3067.00,1.8788
3066.00,1.8589
3065.00,1.8387
3064.00,1.8185
3063.00,1.7983
3062.00,1.7786
3061.00,1.7596
3060.00,1.7413
3059.00,1.7237
3058.00,1.7071
3057.00,1.6917
3056.00,1.6777
3055.00,1.6652
3054.00,1.6542
3053.00,1.6449
3052.00,1.6374
3051.00,1.6317
3050.00,1.6281
3049.00,1.6266
3048.00,1.6271
3047.00,1.6296
3046.00,1.6343
3045.00,1.6413
3044.00,1.6506
3043.00,1.6621
3042.00,1.6758
3041.00,1.6914
3040.00,1.7087
3039.00,1.7275
3038.00,1.7476
3037.00,1.7690
3036.00,1.7915
3035.00,1.8147
3034.00,1.8385
3033.00,1.8625
3032.00,1.8870
3031.00,1.9117
3030.00,1.9366
3029.00,1.9613
3028.00,1.9857
3027.00,2.0093
3026.00,2.0321
3025.00,2.0541
3024.00,2.0758
3023.00,2.0973
3022.00,2.1184
3021.00,2.1390
3020.00,2.1586
3019.00,2.1772
3018.00,2.1947
3017.00,2.2116
3016.00,2.2277
3015.00,2.2424
3014.00,2.2554
3013.00,2.2673
3012.00,2.2789
3011.00,2.2904
3010.00,2.3012
3009.00,2.3105
3008.00,2.3183
3007.00,2.3251
3006.00,2.3313
3005.00,2.3369
3004.00,2.3415
3003.00,2.3446
3002.00,2.3461
3001.00,2.3465
3000.00,2.3461
2999.00,2.3450
2998.00,2.3424
2997.00,2.3377
2996.00,2.3305
2995.00,2.3215
2994.00,2.3115
2993.00,2.3010
2992.00,2.2900
2991.00,2.2787
2990.00,2.2678
2989.00,2.2577
2988.00,2.2486
2987.00,2.2413
2986.00,2.2369
2985.00,2.2366
2984.00,2.2409
2983.00,2.2505
2982.00,2.2662
2981.00,2.2889
2980.00,2.3191
2979.00,2.3564
2978.00,2.4001
2977.00,2.4501
2976.00,2.5063
2975.00,2.5682
2974.00,2.6352
2973.00,2.7071
2972.00,2.7836
2971.00,2.8630
2970.00,2.9436
2969.00,3.0261
2968.00,3.1129
2967.00,3.2054
2966.00,3.3033
2965.00,3.4076
2964.00,3.5202
2963.00,3.6395
2962.00,3.7560
2961.00,3.8613
2960.00,3.9517
2959.00,4.0148
2958.00,4.0300
2957.00,4.0079
2956.00,3.9916
2955.00,4.0109
2954.00,4.0646
2953.00,4.1287
2952.00,4.1729
2951.00,4.1720
2950.00,4.1340
2949.00,4.0984
2948.00,4.0831
2947.00,4.0652
2946.00,4.0357
2945.00,4.0291
2944.00,4.0729
2943.00,4.1425
2942.00,4.1698
2941.00,4.1311
2940.00,4.0825
2939.00,4.0760
2938.00,4.1163
2937.00,4.1612
2936.00,4.1635
2935.00,4.1467
2934.00,4.1694
2933.00,4.2657
2932.00,4.4493
2931.00,4.7078
2930.00,4.8253
2929.00,4.6927
2928.00,4.4952
2927.00,4.3576
2926.00,4.2741
2925.00,4.2213
2924.00,4.1649
2923.00,4.0806
2922.00,3.9927
2921.00,3.9247
2920.00,3.8702
2919.00,3.8088
2918.00,3.7298
2917.00,3.6415
2916.00,3.5563
2915.00,3.4805
2914.00,3.4166
2913.00,3.3670
2912.00,3.3316
2911.00,3.3056
2910.00,3.2809
2909.00,3.2507
2908.00,3.2147
2907.00,3.1793
2906.00,3.1518
2905.00,3.1329
2904.00,3.1162
2903.00,3.0942
2902.00,3.0655
2901.00,3.0345
2900.00,3.0050
2899.00,2.9784
2898.00,2.9555
2897.00,2.9378
2896.00,2.9247
2895.00,2.9125
2894.00,2.8981
2893.00,2.8812
2892.00,2.8638
2891.00,2.8473
2890.00,2.8319
2889.00,2.8181
2888.00,2.8068
2887.00,2.7989
2886.00,2.7951
2885.00,2.7960
2884.00,2.8013
2883.00,2.8101
2882.00,2.8214
2881.00,2.8358
2880.00,2.8548
2879.00,2.8793
2878.00,2.9098
2877.00,2.9467
2876.00,2.9908
2875.00,3.0422
2874.00,3.1007
2873.00,3.1662
2872.00,3.2386
2871.00,3.3166
2870.00,3.3970
2869.00,3.4771
2868.00,3.5574
2867.00,3.6397
2866.00,3.7195
2865.00,3.7799
2864.00,3.8164
2863.00,3.8505
2862.00,3.8925
2861.00,3.9042
2860.00,3.8437
2859.00,3.7372
2858.00,3.6263
2857.00,3.5214
2856.00,3.4159
2855.00,3.3069
2854.00,3.2006
2853.00,3.1043
2852.00,3.0191
2851.00,2.9401
2850.00,2.8629
2849.00,2.7871
2848.00,2.7150
2847.00,2.6477
2846.00,2.5845
2845.00,2.5240
2844.00,2.4654
2843.00,2.4083
2842.00,2.3530
2841.00,2.2998
2840.00,2.2495
2839.00,2.2028
2838.00,2.1601
2837.00,2.1221
2836.00,2.0891
2835.00,2.0610
2834.00,2.0376
2833.00,2.0184
2832.00,2.0033
2831.00,1.9920
2830.00,1.9839
2829.00,1.9784
2828.00,1.9746
2827.00,1.9721
2826.00,1.9707
2825.00,1.9705
2824.00,1.9717
2823.00,1.9742
2822.00,1.9780
2821.00,1.9835
2820.00,1.9912
2819.00,2.0016
2818.00,2.0147
2817.00,2.0301
2816.00,2.0471
2815.00,2.0651
2814.00,2.0839
2813.00,2.1035
2812.00,2.1241
2811.00,2.1455
2810.00,2.1672
2809.00,2.1885
2808.00,2.2090
2807.00,2.2287
2806.00,2.2477
2805.00,2.2661
2804.00,2.2838
2803.00,2.3003
2802.00,2.3155
2801.00,2.3293
2800.00,2.3418
2799.00,2.3530
2798.00,2.3629
2797.00,2.3720
2796.00,2.3800
2795.00,2.3863
2794.00,2.3906
2793.00,2.3935
2792.00,2.3961
2791.00,2.3989
2790.00,2.4019
2789.00,2.4045
2788.00,2.4062
2787.00,2.4067
2786.00,2.4063
2785.00,2.4053
2784.00,2.4037
2783.00,2.4019
2782.00,2.3999
2781.00,2.3975
2780.00,2.3944
2779.00,2.3899
2778.00,2.3841
2777.00,2.3772
2776.00,2.3693
2775.00,2.3603
2774.00,2.3498
2773.00,2.3383
2772.00,2.3264
2771.00,2.3145
2770.00,2.3021
2769.00,2.2887
2768.00,2.2741
2767.00,2.2586
2766.00,2.2424
2765.00,2.2255
2764.00,2.2074
2763.00,2.1881
2762.00,2.1679
2761.00,2.1469
2760.00,2.1248
2759.00,2.1010
2758.00,2.0752
2757.00,2.0478
2756.00,2.0190
2755.00,1.9887
2754.00,1.9569
2753.00,1.9235
2752.00,1.8886
2751.00,1.8522
2750.00,1.8146
2749.00,1.7760
2748.00,1.7368
2747.00,1.6974
2746.00,1.6583
2745.00,1.6198
2744.00,1.5822
2743.00,1.5459
2742.00,1.5116
2741.00,1.4800
2740.00,1.4517
2739.00,1.4272
2738.00,1.4068
2737.00,1.3909
2736.00,1.3797
2735.00,1.3733
2734.00,1.3716
2733.00,1.3745
2732.00,1.3818
2731.00,1.3932
2730.00,1.4083
2729.00,1.4268
2728.00,1.4484
2727.00,1.4728
2726.00,1.4997
2725.00,1.5287
2724.00,1.5594
2723.00,1.5915
2722.00,1.6249
2721.00,1.6593
2720.00,1.6943
2719.00,1.7294
2718.00,1.7641
2717.00,1.7983
2716.00,1.8322
2715.00,1.8656
2714.00,1.8985
2713.00,1.9309
2712.00,1.9625
2711.00,1.9931
2710.00,2.0226
2709.00,2.0508
2708.00,2.0780
2707.00,2.1044
2706.00,2.1302
2705.00,2.1553
2704.00,2.1791
2703.00,2.2011
2702.00,2.2213
2701.00,2.2403
2700.00,2.2589
2699.00,2.2774
2698.00,2.2954
2697.00,2.3121
2696.00,2.3270
2695.00,2.3404
2694.00,2.3530
2693.00,2.3654
2692.00,2.3778
2691.00,2.3899
2690.00,2.4016
2689.00,2.4125
2688.00,2.4224
2687.00,2.4306
2686.00,2.4370
2685.00,2.4422
2684.00,2.4476
2683.00,2.4540
2682.00,2.4610
2681.00,2.4671
2680.00,2.4712
2679.00,2.4733
2678.00,2.4744
2677.00,2.4756
2676.00,2.4773
2675.00,2.4794
2674.00,2.4813
2673.00,2.4827
2672.00,2.4832
2671.00,2.4827
2670.00,2.4814
2669.00,2.4794
2668.00,2.4773
2667.00,2.4753
2666.00,2.4734
2665.00,2.4711
2664.00,2.4676
2663.00,2.4625
2662.00,2.4556
2661.00,2.4474
2660.00,2.4382
2659.00,2.4285
2658.00,2.4187
2657.00,2.4095
2656.00,2.4006
2655.00,2.3915
2654.00,2.3820
2653.00,2.3720
2652.00,2.3612
2651.00,2.3495
2650.00,2.3369
2649.00,2.3237
2648.00,2.3097
2647.00,2.2943
2646.00,2.2774
2645.00,2.2591
2644.00,2.2401
2643.00,2.2206
2642.00,2.2006
2641.00,2.1797
2640.00,2.1575
2639.00,2.1338
2638.00,2.1084
2637.00,2.0811
2636.00,2.0520
2635.00,2.0214
2634.00,1.9896
2633.00,1.9571
2632.00,1.9238
2631.00,1.8894
2630.00,1.8537
2629.00,1.8171
2628.00,1.7801
2627.00,1.7433
2626.00,1.7068
2625.00,1.6710
2624.00,1.6363
2623.00,1.6031
2622.00,1.5718
2621.00,1.5431
2620.00,1.5173
2619.00,1.4946
2618.00,1.4754
2617.00,1.4597
2616.00,1.4476
2615.00,1.4390
2614.00,1.4339
2613.00,1.4321
2612.00,1.4337
2611.00,1.4384
2610.00,1.4460
2609.00,1.4565
2608.00,1.4696
2607.00,1.4851
2606.00,1.5031
2605.00,1.5237
2604.00,1.5467
2603.00,1.5719
2602.00,1.5991
2601.00,1.6281
2600.00,1.6587
2599.00,1.6906
2598.00,1.7235
2597.00,1.7572
2596.00,1.7913
2595.00,1.8256
2594.00,1.8599
2593.00,1.8941
2592.00,1.9281
2591.00,1.9615
2590.00,1.9938
2589.00,2.0246
2588.00,2.0540
2587.00,2.0826
2586.00,2.1106
2585.00,2.1379
2584.00,2.1640
2583.00,2.1887
2582.00,2.2119
2581.00,2.2337
2580.00,2.2543
2579.00,2.2738
2578.00,2.2926
2577.00,2.3111
2576.00,2.3293
2575.00,2.3468
2574.00,2.3633
2573.00,2.3785
2572.00,2.3927
2571.00,2.4062
2570.00,2.4193
2569.00,2.4316
2568.00,2.4430
2567.00,2.4541
2566.00,2.4653
2565.00,2.4761
2564.00,2.4856
2563.00,2.4933
2562.00,2.4999
2561.00,2.5061
2560.00,2.5120
2559.00,2.5172
2558.00,2.5217
2557.00,2.5261
2556.00,2.5308
2555.00,2.5356
2554.00,2.5403
2553.00,2.5445
2552.00,2.5470
2551.00,2.5471
2550.00,2.5455
2549.00,2.5436
2548.00,2.5424
2547.00,2.5418
2546.00,2.5415
2545.00,2.5409
2544.00,2.5396
2543.00,2.5376
2542.00,2.5349
2541.00,2.5319
2540.00,2.5283
2539.00,2.5235
2538.00,2.5173
2537.00,2.5107
2536.00,2.5046
2535.00,2.4990
2534.00,2.4934
2533.00,2.4869
2532.00,2.4791
2531.00,2.4701
2530.00,2.4601
2529.00,2.4494
2528.00,2.4378
2527.00,2.4253
2526.00,2.4128
2525.00,2.4005
2524.00,2.3880
2523.00,2.3737
2522.00,2.3572
2521.00,2.3391
2520.00,2.3202
2519.00,2.3008
2518.00,2.2807
2517.00,2.2594
2516.00,2.2368
2515.00,2.2131
2514.00,2.1884
2513.00,2.1629
2512.00,2.1362
2511.00,2.1080
2510.00,2.0777
2509.00,2.0457
2508.00,2.0123
2507.00,1.9773
2506.00,1.9407
2505.00,1.9023
2504.00,1.8620
2503.00,1.8199
2502.00,1.7763
2501.00,1.7317
2500.00,1.6868
2499.00,1.6418
2498.00,1.5973
2497.00,1.5539
2496.00,1.5122
2495.00,1.4729
2494.00,1.4368
2493.00,1.4046
2492.00,1.3768
2491.00,1.3542
2490.00,1.3370
2489.00,1.3256
2488.00,1.3202
2487.00,1.3210
2486.00,1.3276
2485.00,1.3398
2484.00,1.3570
2483.00,1.3786
2482.00,1.4042
2481.00,1.4330
2480.00,1.4646
2479.00,1.4986
2478.00,1.5347
2477.00,1.5723
2476.00,1.6111
2475.00,1.6508
2474.00,1.6912
2473.00,1.7320
2472.00,1.7731
2471.00,1.8138
2470.00,1.8539
2469.00,1.8931
2468.00,1.9313
2467.00,1.9682
2466.00,2.0037
2465.00,2.0379
2464.00,2.0710
2463.00,2.1032
2462.00,2.1344
2461.00,2.1645
2460.00,2.1934
2459.00,2.2207
2458.00,2.2465
2457.00,2.2710
2456.00,2.2944
2455.00,2.3168
2454.00,2.3383
2453.00,2.3589
2452.00,2.3783
2451.00,2.3965
2450.00,2.4134
2449.00,2.4296
2448.00,2.4453
2447.00,2.4607
2446.00,2.4759
2445.00,2.4906
2444.00,2.5037
2443.00,2.5148
2442.00,2.5244
2441.00,2.5338
2440.00,2.5433
2439.00,2.5525
2438.00,2.5610
2437.00,2.5692
2436.00,2.5771
2435.00,2.5840
2434.00,2.5895
2433.00,2.5943
2432.00,2.5994
2431.00,2.6052
2430.00,2.6109
2429.00,2.6155
2428.00,2.6188
2427.00,2.6208
2426.00,2.6227
2425.00,2.6256
2424.00,2.6294
2423.00,2.6322
2422.00,2.6325
2421.00,2.6307
2420.00,2.6282
2419.00,2.6263
2418.00,2.6249
2417.00,2.6235
2416.00,2.6217
2415.00,2.6188
2414.00,2.6144
2413.00,2.6088
2412.00,2.6028
2411.00,2.5966
2410.00,2.5893
2409.00,2.5807
2408.00,2.5714
2407.00,2.5630
2406.00,2.5555
2405.00,2.5476
2404.00,2.5379
2403.00,2.5268
2402.00,2.5151
2401.00,2.5030
2400.00,2.4896
2399.00,2.4743
2398.00,2.4576
2397.00,2.4403
2396.00,2.4222
2395.00,2.4028
2394.00,2.3826
2393.00,2.3629
2392.00,2.3450
2391.00,2.3300
2390.00,2.3195
2389.00,2.3161
2388.00,2.3219
2387.00,2.3373
2386.00,2.3605
2385.00,2.3881
2384.00,2.4157
2383.00,2.4399
2382.00,2.4583
2381.00,2.4699
2380.00,2.4743
2379.00,2.4726
2378.00,2.4684
2377.00,2.4656
2376.00,2.4647
2375.00,2.4659
2374.00,2.4712
2373.00,2.4808
2372.00,2.4913
2371.00,2.5027
2370.00,2.5166
2369.00,2.5285
2368.00,2.5384
2367.00,2.5461
2366.00,2.5515
2365.00,2.5590
2364.00,2.5650
2363.00,2.5707
2362.00,2.5756
2361.00,2.5761
2360.00,2.5682
2359.00,2.5543
2358.00,2.5594
2357.00,2.5865
2356.00,2.6128
2355.00,2.6209
2354.00,2.6229
2353.00,2.6548
2352.00,2.7137
2351.00,2.7678
2350.00,2.7871
2349.00,2.7692
2348.00,2.7409
2347.00,2.7147
2346.00,2.6981
2345.00,2.6872
2344.00,2.6795
2343.00,2.6739
2342.00,2.6731
2341.00,2.6790
2340.00,2.6913
2339.00,2.7034
2338.00,2.7142
2337.00,2.7198
2336.00,2.7195
2335.00,2.7218
2334.00,2.7229
2333.00,2.7303
2332.00,2.7375
2331.00,2.7508
2330.00,2.7683
2329.00,2.7830
2328.00,2.7896
2327.00,2.7823
2326.00,2.7685
2325.00,2.7524
2324.00,2.7409
2323.00,2.7353
2322.00,2.7359
2321.00,2.7422
2320.00,2.7494
2319.00,2.7556
2318.00,2.7558
2317.00,2.7531
2316.00,2.7461
2315.00,2.7390
2314.00,2.7304
2313.00,2.7234
2312.00,2.7177
2311.00,2.7157
2310.00,2.7166
2309.00,2.7212
2308.00,2.7280
2307.00,2.7366
2306.00,2.7437
2305.00,2.7492
2304.00,2.7523
2303.00,2.7554
2302.00,2.7574
2301.00,2.7595
2300.00,2.7604
2299.00,2.7619
2298.00,2.7628
2297.00,2.7626
2296.00,2.7600
2295.00,2.7563
2294.00,2.7533
2293.00,2.7507
2292.00,2.7459
2291.00,2.7372
2290.00,2.7272
2289.00,2.7201
2288.00,2.7185
2287.00,2.7206
2286.00,2.7237
2285.00,2.7248
2284.00,2.7231
2283.00,2.7189
2282.00,2.7134
2281.00,2.7083
2280.00,2.7036
2279.00,2.6984
2278.00,2.6914
2277.00,2.6822
2276.00,2.6710
2275.00,2.6581
2274.00,2.6437
2273.00,2.6281
2272.00,2.6115
2271.00,2.5943
2270.00,2.5760
2269.00,2.5565
2268.00,2.5354
2267.00,2.5126
2266.00,2.4889
2265.00,2.4650
2264.00,2.4406
2263.00,2.4147
2262.00,2.3869
2261.00,2.3576
2260.00,2.3274
2259.00,2.2961
2258.00,2.2636
2257.00,2.2300
2256.00,2.1955
2255.00,2.1606
2254.00,2.1253
2253.00,2.0894
2252.00,2.0521
2251.00,2.0123
2250.00,1.9694
2249.00,1.9236
2248.00,1.8753
2247.00,1.8249
2246.00,1.7730
2245.00,1.7208
2244.00,1.6692
2243.00,1.6194
2242.00,1.5722
2241.00,1.5288
2240.00,1.4901
2239.00,1.4569
2238.00,1.4300
2237.00,1.4097
2236.00,1.3965
2235.00,1.3907
2234.00,1.3923
2233.00,1.4012
2232.00,1.4169
2231.00,1.4389
2230.00,1.4662
2229.00,1.4980
2228.00,1.5337
2227.00,1.5724
2226.00,1.6136
2225.00,1.6567
2224.00,1.7010
2223.00,1.7460
2222.00,1.7916
2221.00,1.8377
2220.00,1.8839
2219.00,1.9295
2218.00,1.9741
2217.00,2.0177
2216.00,2.0604
2215.00,2.1021
2214.00,2.1423
2213.00,2.1808
2212.00,2.2177
2211.00,2.2527
2210.00,2.2861
2209.00,2.3184
2208.00,2.3500
2207.00,2.3805
2206.00,2.4088
2205.00,2.4344
2204.00,2.4578
2203.00,2.4801
2202.00,2.5016
2201.00,2.5225
2200.00,2.5422
2199.00,2.5604
2198.00,2.5771
2197.00,2.5930
2196.00,2.6088
2195.00,2.6239
2194.00,2.6376
2193.00,2.6498
2192.00,2.6624
2191.00,2.6764
2190.00,2.6909
2189.00,2.7038
2188.00,2.7138
2187.00,2.7224
2186.00,2.7318
2185.00,2.7424
2184.00,2.7523
2183.00,2.7591
2182.00,2.7634
2181.00,2.7680
2180.00,2.7749
2179.00,2.7831
2178.00,2.7898
2177.00,2.7939
2176.00,2.7975
2175.00,2.8023
2174.00,2.8081
2173.00,2.8128
2172.00,2.8150
2171.00,2.8150
2170.00,2.8139
2169.00,2.8121
2168.00,2.8094
2167.00,2.8055
2166.00,2.8012
2165.00,2.7982
2164.00,2.7971
2163.00,2.7967
2162.00,2.7951
2161.00,2.7916
2160.00,2.7867
2159.00,2.7814
2158.00,2.7759
2157.00,2.7705
2156.00,2.7654
2155.00,2.7603
2154.00,2.7549
2153.00,2.7488
2152.00,2.7411
2151.00,2.7310
2150.00,2.7188
2149.00,2.7059
2148.00,2.6934
2147.00,2.6804
2146.00,2.6653
2145.00,2.6476
2144.00,2.6285
2143.00,2.6095
2142.00,2.5911
2141.00,2.5734
2140.00,2.5559
2139.00,2.5380
2138.00,2.5184
2137.00,2.4969
2136.00,2.4737
2135.00,2.4492
2134.00,2.4238
2133.00,2.3974
2132.00,2.3699
2131.00,2.3412
2130.00,2.3109
2129.00,2.2787
2128.00,2.2439
2127.00,2.2059
2126.00,2.1648
2125.00,2.1213
2124.00,2.0758
2123.00,2.0285
2122.00,1.9792
2121.00,1.9280
2120.00,1.8755
2119.00,1.8223
2118.00,1.7692
2117.00,1.7174
2116.00,1.6675
2115.00,1.6206
2114.00,1.5779
2113.00,1.5408
2112.00,1.5106
2111.00,1.4877
2110.00,1.4726
2109.00,1.4657
2108.00,1.4671
2107.00,1.4767
2106.00,1.4939
2105.00,1.5180
2104.00,1.5480
2103.00,1.5827
2102.00,1.6211
2101.00,1.6625
2100.00,1.7060
2099.00,1.7509
2098.00,1.7965
2097.00,1.8425
2096.00,1.8888
2095.00,1.9352
2094.00,1.9814
2093.00,2.0272
2092.00,2.0719
2091.00,2.1148
2090.00,2.1555
2089.00,2.1948
2088.00,2.2333
2087.00,2.2716
2086.00,2.3092
2085.00,2.3453
2084.00,2.3797
2083.00,2.4127
2082.00,2.4444
2081.00,2.4748
2080.00,2.5036
2079.00,2.5303
2078.00,2.5545
2077.00,2.5766
2076.00,2.5976
2075.00,2.6185
2074.00,2.6398
2073.00,2.6613
2072.00,2.6820
2071.00,2.7011
2070.00,2.7184
2069.00,2.7344
2068.00,2.7499
2067.00,2.7642
2066.00,2.7757
2065.00,2.7845
2064.00,2.7929
2063.00,2.8037
2062.00,2.8170
2061.00,2.8297
2060.00,2.8392
2059.00,2.8453
2058.00,2.8493
2057.00,2.8526
2056.00,2.8556
2055.00,2.8585
2054.00,2.8615
2053.00,2.8652
2052.00,2.8703
2051.00,2.8774
2050.00,2.8861
2049.00,2.8946
2048.00,2.8999
2047.00,2.9001
2046.00,2.8965
2045.00,2.8926
2044.00,2.8916
2043.00,2.8937
2042.00,2.8968
2041.00,2.8988
2040.00,2.8990
2039.00,2.8978
2038.00,2.8960
2037.00,2.8936
2036.00,2.8904
2035.00,2.8860
2034.00,2.8808
2033.00,2.8761
2032.00,2.8718
2031.00,2.8665
2030.00,2.8588
2029.00,2.8487
2028.00,2.8381
2027.00,2.8283
2026.00,2.8194
2025.00,2.8105
2024.00,2.8007
2023.00,2.7889
2022.00,2.7748
2021.00,2.7591
2020.00,2.7434
2019.00,2.7277
2018.00,2.7106
2017.00,2.6914
2016.00,2.6717
2015.00,2.6530
2014.00,2.6351
2013.00,2.6159
2012.00,2.5943
2011.00,2.5706
2010.00,2.5455
2009.00,2.5192
2008.00,2.4914
2007.00,2.4621
2006.00,2.4311
2005.00,2.3977
2004.00,2.3615
2003.00,2.3228
2002.00,2.2821
2001.00,2.2396
2000.00,2.1947
1999.00,2.1471
1998.00,2.0969
1997.00,2.0441
1996.00,1.9896
1995.00,1.9347
1994.00,1.8787
1993.00,1.8203
1992.00,1.7604
1991.00,1.7040
1990.00,1.6570
1989.00,1.6207
1988.00,1.5926
1987.00,1.5713
1986.00,1.5582
1985.00,1.5551
1984.00,1.5615
1983.00,1.5754
1982.00,1.5961
1981.00,1.6233
1980.00,1.6562
1979.00,1.6932
1978.00,1.7332
1977.00,1.7754
1976.00,1.8188
1975.00,1.8628
1974.00,1.9074
1973.00,1.9527
1972.00,1.9987
1971.00,2.0456
1970.00,2.0931
1969.00,2.1397
1968.00,2.1837
1967.00,2.2251
1966.00,2.2660
1965.00,2.3085
1964.00,2.3519
1963.00,2.3934
1962.00,2.4308
1961.00,2.4646
1960.00,2.4969
1959.00,2.5294
1958.00,2.5618
1957.00,2.5930
1956.00,2.6215
1955.00,2.6468
1954.00,2.6702
1953.00,2.6936
1952.00,2.7175
1951.00,2.7402
1950.00,2.7604
1949.00,2.7788
1948.00,2.7962
1947.00,2.8131
1946.00,2.8297
1945.00,2.8457
1944.00,2.8585
1943.00,2.8651
1942.00,2.8675
1941.00,2.8727
1940.00,2.8864
1939.00,2.9058
1938.00,2.9239
1937.00,2.9368
1936.00,2.9456
1935.00,2.9520
1934.00,2.9568
1933.00,2.9614
1932.00,2.9684
1931.00,2.9769
1930.00,2.9834
1929.00,2.9865
1928.00,2.9880
1927.00,2.9916
1926.00,2.9984
1925.00,3.0055
1924.00,3.0072
1923.00,3.0001
1922.00,2.9885
1921.00,2.9818
1920.00,2.9834
1919.00,2.9873
1918.00,2.9865
1917.00,2.9825
1916.00,2.9821
1915.00,2.9858
1914.00,2.9875
1913.00,2.9830
1912.00,2.9748
1911.00,2.9661
1910.00,2.9571
1909.00,2.9463
1908.00,2.9345
1907.00,2.9238
1906.00,2.9151
1905.00,2.9079
1904.00,2.9009
1903.00,2.8915
1902.00,2.8787
1901.00,2.8634
1900.00,2.8465
1899.00,2.8283
1898.00,2.8079
1897.00,2.7853
1896.00,2.7613
1895.00,2.7359
1894.00,2.7107
1893.00,2.6888
1892.00,2.6705
1891.00,2.6498
1890.00,2.6204
1889.00,2.5833
1888.00,2.5460
1887.00,2.5129
1886.00,2.4807
1885.00,2.4440
1884.00,2.4022
1883.00,2.3580
1882.00,2.3132
1881.00,2.2672
1880.00,2.2188
1879.00,2.1684
1878.00,2.1169
1877.00,2.0655
1876.00,2.0158
1875.00,1.9680
1874.00,1.9223
1873.00,1.8807
1872.00,1.8452
1871.00,1.8143
1870.00,1.7838
1869.00,1.7531
1868.00,1.7280
1867.00,1.7159
1866.00,1.7177
1865.00,1.7289
1864.00,1.7458
1863.00,1.7683
1862.00,1.7980
1861.00,1.8357
1860.00,1.8804
1859.00,1.9310
1858.00,1.9860
1857.00,2.0438
1856.00,2.1030
1855.00,2.1624
1854.00,2.2207
1853.00,2.2775
1852.00,2.3326
1851.00,2.3864
1850.00,2.4369
1849.00,2.4812
1848.00,2.5222
1847.00,2.5658
1846.00,2.6131
1845.00,2.6562
1844.00,2.6879
1843.00,2.7118
1842.00,2.7390
1841.00,2.7732
1840.00,2.8076
1839.00,2.8368
1838.00,2.8609
1837.00,2.8836
1836.00,2.9064
1835.00,2.9278
1834.00,2.9479
1833.00,2.9684
1832.00,2.9888
1831.00,3.0066
1830.00,3.0197
1829.00,3.0324
1828.00,3.0511
1827.00,3.0714
1826.00,3.0804
1825.00,3.0724
1824.00,3.0576
1823.00,3.0507
1822.00,3.0555
1821.00,3.0665
1820.00,3.0796
1819.00,3.0941
1818.00,3.1060
1817.00,3.1109
1816.00,3.1093
1815.00,3.1058
1814.00,3.1034
1813.00,3.1012
1812.00,3.0994
1811.00,3.1009
1810.00,3.1059
1809.00,3.1106
1808.00,3.1087
1807.00,3.0985
1806.00,3.0857
1805.00,3.0769
1804.00,3.0724
1803.00,3.0655
1802.00,3.0498
1801.00,3.0259
1800.00,3.0036
1799.00,2.9897
1798.00,2.9799
1797.00,2.9655
1796.00,2.9439
1795.00,2.9197
1794.00,2.8950
1793.00,2.8635
1792.00,2.8194
1791.00,2.7662
1790.00,2.7153
1789.00,2.6731
1788.00,2.6351
1787.00,2.5913
1786.00,2.5350
1785.00,2.4688
1784.00,2.4048
1783.00,2.3550
1782.00,2.3217
1781.00,2.2962
1780.00,2.2766
1779.00,2.2709
1778.00,2.2850
1777.00,2.3170
1776.00,2.3626
1775.00,2.4228
1774.00,2.4977
1773.00,2.5786
1772.00,2.6559
1771.00,2.7259
1770.00,2.7863
1769.00,2.8336
1768.00,2.8676
1767.00,2.8942
1766.00,2.9253
1765.00,2.9656
1764.00,3.0077
1763.00,3.0425
1762.00,3.0712
1761.00,3.1044
1760.00,3.1514
1759.00,3.2062
1758.00,3.2553
1757.00,3.2931
1756.00,3.3262
1755.00,3.3666
1754.00,3.4147
1753.00,3.4611
1752.00,3.4973
1751.00,3.5192
1750.00,3.5275
1749.00,3.5299
1748.00,3.5358
1747.00,3.5546
1746.00,3.5934
1745.00,3.6518
1744.00,3.7242
1743.00,3.7996
1742.00,3.8657
1741.00,3.9189
1740.00,3.9664
1739.00,4.0178
1738.00,4.0808
1737.00,4.1513
1736.00,4.2147
1735.00,4.2606
1734.00,4.2963
1733.00,4.3532
1732.00,4.4270
1731.00,4.4672
1730.00,4.4628
1729.00,4.4286
1728.00,4.4086
1727.00,4.4604
1726.00,4.5796
1725.00,4.6312
1724.00,4.6152
1723.00,4.6746
1722.00,4.8441
1721.00,5.2773
1720.00,5.0186
1719.00,4.5469
1718.00,4.3283
1717.00,4.2248
1716.00,4.2451
1715.00,4.3806
1714.00,4.6442
1713.00,5.0102
1712.00,5.0961
1711.00,4.8723
1710.00,4.5981
1709.00,4.4462
1708.00,4.4264
1707.00,4.5088
1706.00,4.7168
1705.00,5.1921
1704.00,4.8253
1703.00,4.4605
1702.00,4.3391
1701.00,4.3082
1700.00,4.3241
1699.00,4.3267
1698.00,4.3345
1697.00,4.4254
1696.00,4.5978
1695.00,4.6476
1694.00,4.4801
1693.00,4.3440
1692.00,4.2454
1691.00,4.1244
1690.00,3.9737
1689.00,3.8354
1688.00,3.7371
1687.00,3.6845
1686.00,3.6617
1685.00,3.6439
1684.00,3.6174
1683.00,3.5907
1682.00,3.5721
1681.00,3.5502
1680.00,3.5204
1679.00,3.5024
1678.00,3.5132
1677.00,3.5388
1676.00,3.5463
1675.00,3.5229
1674.00,3.4926
1673.00,3.4787
1672.00,3.4750
1671.00,3.4602
1670.00,3.4264
1669.00,3.3814
1668.00,3.3371
1667.00,3.3012
1666.00,3.2719
1665.00,3.2410
1664.00,3.2009
1663.00,3.1469
1662.00,3.0834
1661.00,3.0184
1660.00,2.9574
1659.00,2.9017
1658.00,2.8514
1657.00,2.8116
1656.00,2.7889
1655.00,2.7816
1654.00,2.7748
1653.00,2.7554
1652.00,2.7285
1651.00,2.7152
1650.00,2.7199
1649.00,2.7271
1648.00,2.7317
1647.00,2.7365
1646.00,2.7420
1645.00,2.7508
1644.00,2.7662
1643.00,2.7865
1642.00,2.8081
1641.00,2.8300
1640.00,2.8560
1639.00,2.8917
1638.00,2.9359
1637.00,2.9809
1636.00,3.0144
1635.00,3.0302
1634.00,3.0326
1633.00,3.0352
1632.00,3.0418
1631.00,3.0497
1630.00,3.0610
1629.00,3.0778
1628.00,3.0993
1627.00,3.1232
1626.00,3.1491
1625.00,3.1744
1624.00,3.1934
1623.00,3.2001
1622.00,3.1978
1621.00,3.1980
1620.00,3.2109
1619.00,3.2365
1618.00,3.2662
1617.00,3.2907
1616.00,3.3043
1615.00,3.3082
1614.00,3.3057
1613.00,3.2992
1612.00,3.2909
1611.00,3.2844
1610.00,3.2821
1609.00,3.2823
1608.00,3.2818
1607.00,3.2800
1606.00,3.2788
1605.00,3.2776
1604.00,3.2740
1603.00,3.2655
1602.00,3.2517
1601.00,3.2380
1600.00,3.2316
1599.00,3.2350
1598.00,3.2438
1597.00,3.2503
1596.00,3.2488
1595.00,3.2374
1594.00,3.2186
1593.00,3.1971
1592.00,3.1768
1591.00,3.1580
1590.00,3.1401
1589.00,3.1239
1588.00,3.1114
1587.00,3.1009
1586.00,3.0863
1585.00,3.0631
1584.00,3.0327
1583.00,3.0021
1582.00,2.9730
1581.00,2.9442
1580.00,2.9178
1579.00,2.8990
1578.00,2.8858
1577.00,2.8674
1576.00,2.8323
1575.00,2.7786
1574.00,2.7185
1573.00,2.6621
1572.00,2.6091
1571.00,2.5528
1570.00,2.4872
1569.00,2.4133
1568.00,2.3383
1567.00,2.2692
1566.00,2.2033
1565.00,2.1374
1564.00,2.0775
1563.00,2.0383
1562.00,2.0251
1561.00,2.0296
1560.00,2.0372
1559.00,2.0437
1558.00,2.0578
1557.00,2.0781
1556.00,2.1016
1555.00,2.1226
1554.00,2.1445
1553.00,2.1783
1552.00,2.2276
1551.00,2.2806
1550.00,2.3284
1549.00,2.3802
1548.00,2.4454
1547.00,2.5190
1546.00,2.5849
1545.00,2.6371
1544.00,2.6881
1543.00,2.7551
1542.00,2.8393
1541.00,2.9275
1540.00,2.9987
1539.00,3.0365
1538.00,3.0468
1537.00,3.0551
1536.00,3.0686
1535.00,3.0817
1534.00,3.0914
1533.00,3.0984
1532.00,3.1117
1531.00,3.1357
1530.00,3.1639
1529.00,3.1866
1528.00,3.1989
1527.00,3.2062
1526.00,3.2182
1525.00,3.2409
1524.00,3.2734
1523.00,3.3071
1522.00,3.3303
1521.00,3.3374
1520.00,3.3373
1519.00,3.3444
1518.00,3.3528
1517.00,3.3477
1516.00,3.3304
1515.00,3.3181
1514.00,3.3198
1513.00,3.3248
1512.00,3.3256
1511.00,3.3288
1510.00,3.3445
1509.00,3.3671
1508.00,3.3828
1507.00,3.3885
1506.00,3.3949
1505.00,3.4037
1504.00,3.4091
1503.00,3.4018
1502.00,3.3829
1501.00,3.3638
1500.00,3.3526
1499.00,3.3504
1498.00,3.3508
1497.00,3.3459
1496.00,3.3337
1495.00,3.3219
1494.00,3.3210
1493.00,3.3261
1492.00,3.3208
1491.00,3.2936
1490.00,3.2497
1489.00,3.2079
1488.00,3.1807
1487.00,3.1632
1486.00,3.1473
1485.00,3.1296
1484.00,3.1086
1483.00,3.0839
1482.00,3.0503
1481.00,3.0084
1480.00,2.9661
1479.00,2.9282
1478.00,2.8883
1477.00,2.8403
1476.00,2.7907
1475.00,2.7515
1474.00,2.7264
1473.00,2.7071
1472.00,2.6922
1471.00,2.6920
1470.00,2.7172
1469.00,2.7667
1468.00,2.8347
1467.00,2.9168
1466.00,3.0078
1465.00,3.0949
1464.00,3.1630
1463.00,3.2070
1462.00,3.2341
1461.00,3.2561
1460.00,3.2810
1459.00,3.3164
1458.00,3.3662
1457.00,3.4330
1456.00,3.5259
1455.00,3.6563
1454.00,3.8063
1453.00,3.9371
1452.00,4.0315
1451.00,4.0983
1450.00,4.1541
1449.00,4.2007
1448.00,4.2063
1447.00,4.1359
1446.00,4.0089
1445.00,3.8560
1444.00,3.6983
1443.00,3.5547
1442.00,3.4402
1441.00,3.3641
1440.00,3.3280
1439.00,3.3261
1438.00,3.3474
1437.00,3.3849
1436.00,3.4362
1435.00,3.4985
1434.00,3.5626
1433.00,3.6235
1432.00,3.6837
1431.00,3.7437
1430.00,3.7888
1429.00,3.7931
1428.00,3.7598
1427.00,3.7269
1426.00,3.7203
1425.00,3.7352
1424.00,3.7596
1423.00,3.7920
1422.00,3.8263
1421.00,3.8365
1420.00,3.7952
1419.00,3.7036
1418.00,3.5956
1417.00,3.5029
1416.00,3.4267
1415.00,3.3546
1414.00,3.2824
1413.00,3.2133
1412.00,3.1542
1411.00,3.1131
1410.00,3.0949
1409.00,3.0975
1408.00,3.1098
1407.00,3.1198
1406.00,3.1260
1405.00,3.1328
1404.00,3.1450
1403.00,3.1649
1402.00,3.1946
1401.00,3.2334
1400.00,3.2712
1399.00,3.2940
1398.00,3.2984
1397.00,3.2987
1396.00,3.3082
1395.00,3.3266
1394.00,3.3477
1393.00,3.3674
1392.00,3.3877
1391.00,3.4084
1390.00,3.4266
1389.00,3.4411
1388.00,3.4539
1387.00,3.4699
1386.00,3.4949
1385.00,3.5286
1384.00,3.5608
1383.00,3.5795
1382.00,3.5810
1381.00,3.5728
1380.00,3.5609
1379.00,3.5454
1378.00,3.5281
1377.00,3.5171
1376.00,3.5176
1375.00,3.5269
1374.00,3.5386
1373.00,3.5484
1372.00,3.5573
1371.00,3.5649
1370.00,3.5670
1369.00,3.5592
1368.00,3.5449
1367.00,3.5300
1366.00,3.5152
1365.00,3.4960
1364.00,3.4718
1363.00,3.4515
1362.00,3.4479
1361.00,3.4659
1360.00,3.4942
1359.00,3.5122
1358.00,3.5074
1357.00,3.4839
1356.00,3.4545
1355.00,3.4313
1354.00,3.4226
1353.00,3.4332
1352.00,3.4659
1351.00,3.5213
1350.00,3.5988
1349.00,3.6943
1348.00,3.8013
1347.00,3.9056
1346.00,3.9787
1345.00,3.9880
1344.00,3.9346
1343.00,3.8611
1342.00,3.8044
1341.00,3.7775
1340.00,3.7809
1339.00,3.8084
1338.00,3.8400
1337.00,3.8424
1336.00,3.7963
1335.00,3.7138
1334.00,3.6176
1333.00,3.5237
1332.00,3.4403
1331.00,3.3710
1330.00,3.3158
1329.00,3.2713
1328.00,3.2358
1327.00,3.2109
1326.00,3.1979
1325.00,3.1968
1324.00,3.2105
1323.00,3.2438
1322.00,3.3004
1321.00,3.3789
1320.00,3.4737
1319.00,3.5815
1318.00,3.7017
1317.00,3.8318
1316.00,3.9802
1315.00,4.1815
1314.00,4.4809
1313.00,4.7221
1312.00,4.7097
1311.00,4.8905
1310.00,4.7963
1309.00,4.4627
1308.00,4.2036
1307.00,3.9806
1306.00,3.8177
1305.00,3.7012
1304.00,3.6072
1303.00,3.5207
1302.00,3.4379
1301.00,3.3600
1300.00,3.2878
1299.00,3.2194
1298.00,3.1512
1297.00,3.0832
1296.00,3.0206
1295.00,2.9704
1294.00,2.9361
1293.00,2.9162
1292.00,2.9080
1291.00,2.9101
1290.00,2.9226
1289.00,2.9446
1288.00,2.9737
1287.00,3.0071
1286.00,3.0436
1285.00,3.0822
1284.00,3.1224
1283.00,3.1641
1282.00,3.2078
1281.00,3.2529
1280.00,3.2964
1279.00,3.3343
1278.00,3.3661
1277.00,3.3961
1276.00,3.4297
1275.00,3.4687
1274.00,3.5093
1273.00,3.5479
1272.00,3.5858
1271.00,3.6243
1270.00,3.6559
1269.00,3.6665
1268.00,3.6569
1267.00,3.6468
1266.00,3.6561
1265.00,3.6915
1264.00,3.7418
1263.00,3.7853
1262.00,3.8103
1261.00,3.8115
1260.00,3.7964
1259.00,3.7866
1258.00,3.7923
1257.00,3.8082
1256.00,3.8319
1255.00,3.8593
1254.00,3.8846
1253.00,3.9146
1252.00,3.9176
1251.00,3.8677
1250.00,3.8222
1249.00,3.8081
1248.00,3.8104
1247.00,3.8256
1246.00,3.8605
1245.00,3.8959
1244.00,3.8989
1243.00,3.8803
1242.00,3.8749
1241.00,3.8941
1240.00,3.9146
1239.00,3.8995
1238.00,3.8513
1237.00,3.8105
1236.00,3.8077
1235.00,3.8478
1234.00,3.9064
1233.00,3.9460
1232.00,3.9750
1231.00,4.0123
1230.00,4.0370
1229.00,4.0656
1228.00,4.1407
1227.00,4.2299
1226.00,4.2613
1225.00,4.2938
1224.00,4.3519
1223.00,4.3582
1222.00,4.3071
1221.00,4.2486
1220.00,4.2135
1219.00,4.2025
1218.00,4.2110
1217.00,4.2459
1216.00,4.2940
1215.00,4.3124
1214.00,4.2865
1213.00,4.2560
1212.00,4.2417
1211.00,4.2017
1210.00,4.1174
1209.00,4.0341
1208.00,3.9838
1207.00,3.9788
1206.00,4.0329
1205.00,4.1407
1204.00,4.1811
1203.00,4.0557
1202.00,3.9144
1201.00,3.8250
1200.00,3.7859
1199.00,3.7818
1198.00,3.7880
1197.00,3.7834
1196.00,3.7745
1195.00,3.7744
1194.00,3.7743
1193.00,3.7612
1192.00,3.7399
1191.00,3.7185
1190.00,3.6933
1189.00,3.6636
1188.00,3.6383
1187.00,3.6124
1186.00,3.5814
1185.00,3.5555
1184.00,3.5346
1183.00,3.5094
1182.00,3.4815
1181.00,3.4602
1180.00,3.4512
1179.00,3.4516
1178.00,3.4519
1177.00,3.4459
1176.00,3.4379
1175.00,3.4347
1174.00,3.4356
1173.00,3.4323
1172.00,3.4188
1171.00,3.3979
1170.00,3.3757
1169.00,3.3537
1168.00,3.3341
1167.00,3.3248
1166.00,3.3331
1165.00,3.3523
1164.00,3.3635
1163.00,3.3579
1162.00,3.3487
1161.00,3.3502
1160.00,3.3640
1159.00,3.3828
1158.00,3.3988
1157.00,3.4102
1156.00,3.4225
1155.00,3.4432
1154.00,3.4722
1153.00,3.4991
1152.00,3.5129
1151.00,3.5220
1150.00,3.5466
1149.00,3.5963
1148.00,3.6643
1147.00,3.7321
1146.00,3.7802
1145.00,3.7987
1144.00,3.7908
1143.00,3.7756
1142.00,3.7876
1141.00,3.8650
1140.00,4.0196
1139.00,4.1945
1138.00,4.3330
1137.00,4.2941
1136.00,4.0956
1135.00,3.9775
1134.00,3.9543
1133.00,4.0219
1132.00,4.2147
1131.00,4.5547
1130.00,4.6946
1129.00,4.5490
1128.00,4.3951
1127.00,4.2661
1126.00,4.1959
1125.00,4.1776
1124.00,4.1726
1123.00,4.1330
1122.00,4.0917
1121.00,4.1164
1120.00,4.2051
1119.00,4.2366
1118.00,4.1910
1117.00,4.1652
1116.00,4.1446
1115.00,4.1161
1114.00,4.0785
1113.00,4.0356
1112.00,4.0177
1111.00,4.0288
1110.00,4.0403
1109.00,4.0279
1108.00,4.0117
1107.00,4.0363
1106.00,4.1540
1105.00,4.3887
1104.00,4.4872
1103.00,4.4164
1102.00,4.3656
1101.00,4.2561
1100.00,4.1282
1099.00,3.9864
1098.00,3.8961
1097.00,3.9126
1096.00,4.0234
1095.00,4.1156
1094.00,4.1338
1093.00,4.2631
1092.00,4.5203
1091.00,4.4597
1090.00,4.3092
1089.00,4.2217
1088.00,4.2177
1087.00,4.1930
1086.00,4.0825
1085.00,4.0522
1084.00,4.0928
1083.00,4.1325
1082.00,4.1899
1081.00,4.4016
1080.00,5.0225
1079.00,4.6243
1078.00,4.5196
1077.00,4.7582
1076.00,4.3364
1075.00,4.0776
1074.00,4.0111
1073.00,4.0209
1072.00,4.0251
1071.00,3.9908
1070.00,3.9210
1069.00,3.8296
1068.00,3.7666
1067.00,3.7710
1066.00,3.8565
1065.00,4.0294
1064.00,4.2791
1063.00,4.4721
1062.00,4.4350
1061.00,4.2792
1060.00,4.1663
1059.00,4.2085
1058.00,4.3087
1057.00,4.1681
1056.00,4.0209
1055.00,3.9369
1054.00,3.8716
1053.00,3.8348
1052.00,3.8424
1051.00,3.8970
1050.00,3.9342
1049.00,3.9242
1048.00,3.9470
1047.00,3.9884
1046.00,3.9510
1045.00,3.8323
1044.00,3.7076
1043.00,3.6171
1042.00,3.5595
1041.00,3.5192
1040.00,3.4880
1039.00,3.4683
1038.00,3.4573
1037.00,3.4434
1036.00,3.4191
1035.00,3.3909
1034.00,3.3703
1033.00,3.3630
1032.00,3.3668
1031.00,3.3766
1030.00,3.3912
1029.00,3.4166
1028.00,3.4631
1027.00,3.5377
1026.00,3.6304
1025.00,3.7092
1024.00,3.7499
1023.00,3.7720
1022.00,3.8103
1021.00,3.8807
1020.00,3.9849
1019.00,4.1022
1018.00,4.1393
1017.00,4.0286
1016.00,3.8732
1015.00,3.7773
1014.00,3.7725
1013.00,3.8579
1012.00,3.9895
1011.00,4.0262
1010.00,3.9608
1009.00,3.9116
1008.00,3.8946
1007.00,3.9089
1006.00,3.9648
1005.00,4.0571
1004.00,4.1510
1003.00,4.1962
1002.00,4.2113
1001.00,4.2491
1000.00,4.3001
999.00,4.3285
998.00,4.3436
997.00,4.3793
996.00,4.4459
995.00,4.4276
994.00,4.3078
993.00,4.2248
992.00,4.2886
991.00,4.6918
990.00,4.6065
989.00,4.1320
988.00,3.9988
987.00,4.0195
986.00,4.1526
985.00,4.2857
984.00,4.1475
983.00,4.0127
982.00,3.9862
981.00,4.0534
980.00,4.2003
979.00,4.4551
978.00,4.9471
977.00,4.9370
976.00,4.7018
975.00,4.5996
974.00,4.4664
973.00,4.3932
972.00,4.3844
971.00,4.3484
970.00,4.2988
969.00,4.3173
968.00,4.5617
967.00,4.9888
966.00,4.5853
965.00,4.5070
964.00,4.6630
963.00,4.7137
962.00,4.6171
961.00,4.4709
960.00,4.3777
959.00,4.3108
958.00,4.2447
957.00,4.2024
956.00,4.1855
955.00,4.1577
954.00,4.1272
953.00,4.1188
952.00,4.1521
951.00,4.1997
950.00,4.1749
949.00,4.1174
948.00,4.1894
947.00,4.3149
946.00,4.2395
945.00,4.1838
944.00,4.3912
943.00,4.9161
942.00,4.6101
941.00,4.4809
940.00,4.4842
939.00,4.3964
938.00,4.5790
937.00,5.0252
936.00,4.5070
935.00,4.2826
934.00,4.2057
933.00,4.1701
932.00,4.1372
931.00,4.1177
930.00,4.1000
929.00,4.2431
928.00,4.7453
927.00,4.2598
926.00,4.0290
925.00,4.0831
924.00,4.2334
923.00,4.5333
922.00,4.7209
921.00,4.3164
920.00,4.2627
919.00,4.5960
918.00,4.5129
917.00,4.1450
916.00,4.0004
915.00,3.9949
914.00,4.1101
913.00,4.2756
912.00,4.2679
911.00,4.2327
910.00,4.2527
909.00,4.2932
908.00,4.3455
907.00,4.4807
906.00,4.8039
905.00,4.6615
904.00,4.4231
903.00,4.4292
902.00,4.6122
901.00,4.6678
900.00,4.3061
899.00,4.0495
898.00,3.9415
897.00,3.9610
896.00,4.1148
895.00,4.4203
894.00,4.6992
893.00,4.7318
892.00,5.0082
891.00,5.3396
890.00,5.3104
889.00,5.0404
888.00,4.5808
887.00,4.2923
886.00,4.1066
885.00,3.9935
884.00,3.8960
883.00,3.8159
882.00,3.8168
881.00,3.9302
880.00,4.0590
879.00,4.0262
878.00,3.9495
877.00,3.9009
876.00,3.8775
875.00,3.8870
874.00,3.9180
873.00,3.9619
872.00,4.0068
871.00,4.0313
870.00,4.0542
869.00,4.1318
868.00,4.3308
867.00,4.5242
866.00,4.3895
865.00,4.2397
864.00,4.0583
863.00,3.8745
862.00,3.7828
861.00,3.7887
860.00,3.8693
859.00,4.0252
858.00,4.3453
857.00,4.8081
856.00,4.8997
855.00,4.4443
854.00,4.1765
853.00,4.1914
852.00,4.5843
851.00,4.9709
850.00,4.3237
849.00,4.1470
848.00,4.0429
847.00,3.9301
846.00,3.9048
845.00,3.9639
844.00,4.1115
843.00,4.2282
842.00,4.0973
841.00,3.9594
840.00,3.9409
839.00,4.1205
838.00,4.4344
837.00,4.2045
836.00,4.0489
835.00,4.0294
834.00,4.0481
833.00,4.1512
832.00,4.3554
831.00,4.5861
830.00,4.4212
829.00,4.2568
828.00,4.2129
827.00,4.1961
826.00,4.2313
825.00,4.5227
824.00,5.0110
823.00,4.4868
822.00,4.2270
821.00,4.1067
820.00,4.0693
819.00,4.1177
818.00,4.2269
817.00,4.3688
816.00,4.3792
815.00,4.2896
814.00,4.2152
813.00,4.2139
812.00,4.2667
811.00,4.3266
810.00,4.4144
809.00,4.5513
808.00,4.4579
807.00,4.1009
806.00,3.8718
805.00,3.8107
804.00,3.8837
803.00,3.9988
802.00,4.1445
801.00,4.4469
800.00,4.4466
799.00,4.2199
798.00,4.0345
797.00,3.9361
796.00,3.9216
795.00,4.1079
794.00,4.7022
793.00,4.4021
792.00,4.2527
791.00,4.1872
790.00,3.9661
789.00,3.8747
788.00,3.9000
787.00,4.0706
786.00,4.2854
785.00,4.4187
784.00,4.8019
783.00,4.5445
782.00,4.0472
781.00,3.8219
780.00,3.7199
779.00,3.7323
778.00,3.8630
777.00,4.1102
776.00,4.6094
775.00,4.4856
774.00,4.0100
773.00,3.8579
772.00,3.8223
771.00,3.8178
770.00,3.8284
769.00,3.8720
768.00,3.9673
767.00,4.0351
766.00,4.0799
765.00,4.1851
764.00,4.1958
763.00,4.0265
762.00,3.8519
761.00,3.7287
760.00,3.6978
759.00,3.7806
758.00,3.9639
757.00,4.1498
756.00,4.1488
755.00,4.0708
754.00,4.0456
753.00,3.9932
752.00,3.9440
751.00,3.9967
750.00,4.2673
749.00,4.5024
748.00,4.1652
747.00,3.9942
746.00,3.9592
745.00,4.0072
744.00,4.2271
743.00,4.4678
742.00,4.2800
741.00,4.2164
740.00,4.2590
739.00,4.2387
738.00,4.2015
737.00,4.3276
736.00,4.6926
735.00,4.4046
734.00,4.1923
733.00,4.1486
732.00,4.1851
731.00,4.2903
730.00,4.4631
729.00,4.6483
728.00,4.2954
727.00,4.0397
726.00,3.9201
725.00,3.8730
724.00,3.8813
723.00,3.9886
722.00,4.2217
721.00,4.1298
720.00,3.9294
719.00,3.9229
718.00,4.0728
717.00,4.4416
716.00,4.8652
715.00,4.6531
714.00,4.6545
713.00,4.6583
712.00,4.4044
711.00,4.1340
710.00,3.9597
709.00,3.8816
708.00,3.8538
707.00,3.8837
706.00,3.9591
705.00,4.0545
704.00,4.1632
703.00,4.3975
702.00,4.8376
701.00,4.6000
700.00,4.3596
