Created as New Dataset,Sample 065 By Administrator Date Wednesday, November 24 2021
cm-1,A
7502.00,1.0994
7501.00,1.0877
7500.00,1.0762
7499.00,1.0651
7498.00,1.0542
7497.00,1.0436
7496.00,1.0333
7495.00,1.0232
7494.00,1.0133
7493.00,1.0033
7492.00,0.9931
7491.00,0.9831
7490.00,0.9738
7489.00,0.9650
7488.00,0.9558
7487.00,0.9458
7486.00,0.9351
7485.00,0.9245
7484.00,0.9144
7483.00,0.9049
7482.00,0.8957
7481.00,0.8865
7480.00,0.8775
7479.00,0.8687
7478.00,0.8605
7477.00,0.8531
7476.00,0.8464
7475.00,0.8400
7474.00,0.8335
7473.00,0.8267
7472.00,0.8202
7471.00,0.8143
7470.00,0.8091
7469.00,0.8045
7468.00,0.8004
7467.00,0.7967
7466.00,0.7938
7465.00,0.7917
7464.00,0.7904
7463.00,0.7895
7462.00,0.7889
7461.00,0.7885
7460.00,0.7887
7459.00,0.7898
7458.00,0.7917
7457.00,0.7941
7456.00,0.7967
7455.00,0.7998
7454.00,0.8036
7453.00,0.8079
7452.00,0.8125
7451.00,0.8173
7450.00,0.8224
7449.00,0.8279
7448.00,0.8340
7447.00,0.8406
7446.00,0.8476
7445.00,0.8546
7444.00,0.8617
7443.00,0.8691
7442.00,0.8769
7441.00,0.8849
7440.00,0.8929
7439.00,0.9008
7438.00,0.9088
7437.00,0.9169
7436.00,0.9249
7435.00,0.9329
7434.00,0.9413
7433.00,0.9499
7432.00,0.9582
7431.00,0.9659
7430.00,0.9731
7429.00,0.9802
7428.00,0.9878
7427.00,0.9961
7426.00,1.0047
7425.00,1.0131
7424.00,1.0209
7423.00,1.0282
7422.00,1.0358
7421.00,1.0434
7420.00,1.0503
7419.00,1.0558
7418.00,1.0604
7417.00,1.0652
7416.00,1.0702
7415.00,1.0750
7414.00,1.0790
7413.00,1.0824
7412.00,1.0854
7411.00,1.0879
7410.00,1.0896
7409.00,1.0910
7408.00,1.0929
7407.00,1.0955
7406.00,1.0988
7405.00,1.1019
7404.00,1.1039
7403.00,1.1047
7402.00,1.1044
7401.00,1.1031
7400.00,1.1008
7399.00,1.0974
7398.00,1.0936
7397.00,1.0902
7396.00,1.0874
7395.00,1.0850
7394.00,1.0827
7393.00,1.0808
7392.00,1.0790
7391.00,1.0770
7390.00,1.0740
7389.00,1.0704
7388.00,1.0668
7387.00,1.0641
7386.00,1.0626
7385.00,1.0618
7384.00,1.0610
7383.00,1.0595
7382.00,1.0575
7381.00,1.0558
7380.00,1.0549
7379.00,1.0542
7378.00,1.0524
7377.00,1.0490
7376.00,1.0444
7375.00,1.0390
7374.00,1.0328
7373.00,1.0255
7372.00,1.0175
7371.00,1.0091
7370.00,1.0009
7369.00,0.9931
7368.00,0.9860
7367.00,0.9798
7366.00,0.9741
7365.00,0.9682
7364.00,0.9618
7363.00,0.9553
7362.00,0.9488
7361.00,0.9424
7360.00,0.9357
7359.00,0.9282
7358.00,0.9201
7357.00,0.9117
7356.00,0.9036
7355.00,0.8961
7354.00,0.8888
7353.00,0.8817
7352.00,0.8745
7351.00,0.8673
7350.00,0.8601
7349.00,0.8527
7348.00,0.8449
7347.00,0.8366
7346.00,0.8283
7345.00,0.8205
7344.00,0.8137
7343.00,0.8079
7342.00,0.8028
7341.00,0.7981
7340.00,0.7935
7339.00,0.7890
7338.00,0.7845
7337.00,0.7804
7336.00,0.7769
7335.00,0.7744
7334.00,0.7726
7333.00,0.7716
7332.00,0.7713
7331.00,0.7719
7330.00,0.7733
7329.00,0.7752
7328.00,0.7772
7327.00,0.7796
7326.00,0.7823
7325.00,0.7855
7324.00,0.7893
7323.00,0.7935
7322.00,0.7982
7321.00,0.8033
7320.00,0.8088
7319.00,0.8149
7318.00,0.8215
7317.00,0.8286
7316.00,0.8362
7315.00,0.8441
7314.00,0.8524
7313.00,0.8612
7312.00,0.8700
7311.00,0.8785
7310.00,0.8869
7309.00,0.8953
7308.00,0.9038
7307.00,0.9124
7306.00,0.9210
7305.00,0.9297
7304.00,0.9387
7303.00,0.9481
7302.00,0.9578
7301.00,0.9681
7300.00,0.9785
7299.00,0.9885
7298.00,0.9977
7297.00,1.0063
7296.00,1.0149
7295.00,1.0234
7294.00,1.0314
7293.00,1.0390
7292.00,1.0464
7291.00,1.0540
7290.00,1.0618
7289.00,1.0697
7288.00,1.0781
7287.00,1.0868
7286.00,1.0956
7285.00,1.1038
7284.00,1.1115
7283.00,1.1185
7282.00,1.1250
7281.00,1.1310
7280.00,1.1366
7279.00,1.1417
7278.00,1.1466
7277.00,1.1515
7276.00,1.1562
7275.00,1.1604
7274.00,1.1639
7273.00,1.1670
7272.00,1.1698
7271.00,1.1727
7270.00,1.1753
7269.00,1.1778
7268.00,1.1803
7267.00,1.1828
7266.00,1.1849
7265.00,1.1861
7264.00,1.1867
7263.00,1.1870
7262.00,1.1877
7261.00,1.1886
7260.00,1.1890
7259.00,1.1880
7258.00,1.1859
7257.00,1.1833
7256.00,1.1808
7255.00,1.1781
7254.00,1.1747
7253.00,1.1706
7252.00,1.1665
7251.00,1.1623
7250.00,1.1578
7249.00,1.1525
7248.00,1.1467
7247.00,1.1408
7246.00,1.1348
7245.00,1.1284
7244.00,1.1215
7243.00,1.1141
7242.00,1.1064
7241.00,1.0983
7240.00,1.0897
7239.00,1.0809
7238.00,1.0719
7237.00,1.0629
7236.00,1.0538
7235.00,1.0444
7234.00,1.0346
7233.00,1.0244
7232.00,1.0140
7231.00,1.0036
7230.00,0.9931
7229.00,0.9826
7228.00,0.9721
7227.00,0.9618
7226.00,0.9518
7225.00,0.9417
7224.00,0.9312
7223.00,0.9206
7222.00,0.9102
7221.00,0.9003
7220.00,0.8910
7219.00,0.8819
7218.00,0.8730
7217.00,0.8642
7216.00,0.8558
7215.00,0.8479
7214.00,0.8404
7213.00,0.8330
7212.00,0.8258
7211.00,0.8190
7210.00,0.8128
7209.00,0.8075
7208.00,0.8030
7207.00,0.7991
7206.00,0.7959
7205.00,0.7931
7204.00,0.7906
7203.00,0.7883
7202.00,0.7863
7201.00,0.7849
7200.00,0.7841
7199.00,0.7840
7198.00,0.7846
7197.00,0.7861
7196.00,0.7886
7195.00,0.7917
7194.00,0.7953
7193.00,0.7995
7192.00,0.8042
7191.00,0.8091
7190.00,0.8141
7189.00,0.8192
7188.00,0.8251
7187.00,0.8317
7186.00,0.8386
7185.00,0.8457
7184.00,0.8532
7183.00,0.8611
7182.00,0.8692
7181.00,0.8771
7180.00,0.8849
7179.00,0.8929
7178.00,0.9012
7177.00,0.9098
7176.00,0.9185
7175.00,0.9276
7174.00,0.9369
7173.00,0.9461
7172.00,0.9553
7171.00,0.9644
7170.00,0.9738
7169.00,0.9834
7168.00,0.9928
7167.00,1.0016
7166.00,1.0098
7165.00,1.0177
7164.00,1.0253
7163.00,1.0327
7162.00,1.0398
7161.00,1.0472
7160.00,1.0549
7159.00,1.0629
7158.00,1.0707
7157.00,1.0782
7156.00,1.0856
7155.00,1.0927
7154.00,1.0993
7153.00,1.1053
7152.00,1.1110
7151.00,1.1168
7150.00,1.1227
7149.00,1.1283
7148.00,1.1332
7147.00,1.1375
7146.00,1.1410
7145.00,1.1440
7144.00,1.1470
7143.00,1.1503
7142.00,1.1538
7141.00,1.1572
7140.00,1.1605
7139.00,1.1638
7138.00,1.1670
7137.00,1.1696
7136.00,1.1713
7135.00,1.1724
7134.00,1.1729
7133.00,1.1730
7132.00,1.1725
7131.00,1.1716
7130.00,1.1703
7129.00,1.1688
7128.00,1.1671
7127.00,1.1651
7126.00,1.1628
7125.00,1.1596
7124.00,1.1556
7123.00,1.1512
7122.00,1.1471
7121.00,1.1433
7120.00,1.1397
7119.00,1.1358
7118.00,1.1317
7117.00,1.1273
7116.00,1.1223
7115.00,1.1165
7114.00,1.1098
7113.00,1.1024
7112.00,1.0948
7111.00,1.0875
7110.00,1.0801
7109.00,1.0725
7108.00,1.0645
7107.00,1.0562
7106.00,1.0479
7105.00,1.0395
7104.00,1.0306
7103.00,1.0210
7102.00,1.0109
7101.00,1.0008
7100.00,0.9907
7099.00,0.9808
7098.00,0.9708
7097.00,0.9608
7096.00,0.9507
7095.00,0.9405
7094.00,0.9304
7093.00,0.9205
7092.00,0.9108
7091.00,0.9014
7090.00,0.8922
7089.00,0.8833
7088.00,0.8745
7087.00,0.8656
7086.00,0.8567
7085.00,0.8480
7084.00,0.8397
7083.00,0.8321
7082.00,0.8250
7081.00,0.8182
7080.00,0.8119
7079.00,0.8061
7078.00,0.8009
7077.00,0.7962
7076.00,0.7920
7075.00,0.7884
7074.00,0.7855
7073.00,0.7833
7072.00,0.7815
7071.00,0.7800
7070.00,0.7791
7069.00,0.7791
7068.00,0.7797
7067.00,0.7810
7066.00,0.7829
7065.00,0.7857
7064.00,0.7891
7063.00,0.7931
7062.00,0.7974
7061.00,0.8020
7060.00,0.8071
7059.00,0.8128
7058.00,0.8191
7057.00,0.8259
7056.00,0.8329
7055.00,0.8400
7054.00,0.8475
7053.00,0.8556
7052.00,0.8640
7051.00,0.8722
7050.00,0.8802
7049.00,0.8886
7048.00,0.8976
7047.00,0.9068
7046.00,0.9160
7045.00,0.9251
7044.00,0.9344
7043.00,0.9439
7042.00,0.9535
7041.00,0.9631
7040.00,0.9728
7039.00,0.9824
7038.00,0.9922
7037.00,1.0021
7036.00,1.0121
7035.00,1.0218
7034.00,1.0306
7033.00,1.0388
7032.00,1.0469
7031.00,1.0552
7030.00,1.0637
7029.00,1.0719
7028.00,1.0800
7027.00,1.0883
7026.00,1.0969
7025.00,1.1054
7024.00,1.1133
7023.00,1.1206
7022.00,1.1274
7021.00,1.1340
7020.00,1.1407
7019.00,1.1474
7018.00,1.1536
7017.00,1.1592
7016.00,1.1644
7015.00,1.1696
7014.00,1.1744
7013.00,1.1787
7012.00,1.1823
7011.00,1.1854
7010.00,1.1884
7009.00,1.1913
7008.00,1.1939
7007.00,1.1962
7006.00,1.1981
7005.00,1.1997
7004.00,1.2010
7003.00,1.2021
7002.00,1.2026
7001.00,1.2028
7000.00,1.2026
6999.00,1.2024
6998.00,1.2022
6997.00,1.2020
6996.00,1.2013
6995.00,1.1999
6994.00,1.1974
6993.00,1.1941
6992.00,1.1902
6991.00,1.1858
6990.00,1.1810
6989.00,1.1757
6988.00,1.1702
6987.00,1.1648
6986.00,1.1592
6985.00,1.1529
6984.00,1.1459
6983.00,1.1386
6982.00,1.1312
6981.00,1.1238
6980.00,1.1162
6979.00,1.1083
6978.00,1.1002
6977.00,1.0917
6976.00,1.0826
6975.00,1.0730
6974.00,1.0631
6973.00,1.0529
6972.00,1.0425
6971.00,1.0319
6970.00,1.0213
6969.00,1.0106
6968.00,0.9996
6967.00,0.9883
6966.00,0.9771
6965.00,0.9662
6964.00,0.9553
6963.00,0.9444
6962.00,0.9335
6961.00,0.9227
6960.00,0.9122
6959.00,0.9020
6958.00,0.8920
6957.00,0.8824
6956.00,0.8731
6955.00,0.8641
6954.00,0.8552
6953.00,0.8465
6952.00,0.8381
6951.00,0.8302
6950.00,0.8227
6949.00,0.8160
6948.00,0.8099
6947.00,0.8043
6946.00,0.7994
6945.00,0.7951
6944.00,0.7916
6943.00,0.7887
6942.00,0.7863
6941.00,0.7845
6940.00,0.7832
6939.00,0.7825
6938.00,0.7824
6937.00,0.7829
6936.00,0.7840
6935.00,0.7857
6934.00,0.7881
6933.00,0.7915
6932.00,0.7955
6931.00,0.8001
6930.00,0.8051
6929.00,0.8103
6928.00,0.8161
6927.00,0.8224
6926.00,0.8292
6925.00,0.8365
6924.00,0.8441
6923.00,0.8520
6922.00,0.8603
6921.00,0.8687
6920.00,0.8769
6919.00,0.8851
6918.00,0.8937
6917.00,0.9028
6916.00,0.9122
6915.00,0.9218
6914.00,0.9315
6913.00,0.9414
6912.00,0.9514
6911.00,0.9612
6910.00,0.9707
6909.00,0.9801
6908.00,0.9894
6907.00,0.9989
6906.00,1.0084
6905.00,1.0177
6904.00,1.0269
6903.00,1.0358
6902.00,1.0443
6901.00,1.0526
6900.00,1.0610
6899.00,1.0695
6898.00,1.0781
6897.00,1.0865
6896.00,1.0947
6895.00,1.1030
6894.00,1.1111
6893.00,1.1188
6892.00,1.1256
6891.00,1.1319
6890.00,1.1379
6889.00,1.1436
6888.00,1.1490
6887.00,1.1541
6886.00,1.1593
6885.00,1.1643
6884.00,1.1691
6883.00,1.1736
6882.00,1.1777
6881.00,1.1812
6880.00,1.1838
6879.00,1.1862
6878.00,1.1887
6877.00,1.1915
6876.00,1.1939
6875.00,1.1956
6874.00,1.1965
6873.00,1.1968
6872.00,1.1966
6871.00,1.1958
6870.00,1.1946
6869.00,1.1933
6868.00,1.1923
6867.00,1.1916
6866.00,1.1908
6865.00,1.1895
6864.00,1.1875
6863.00,1.1848
6862.00,1.1814
6861.00,1.1772
6860.00,1.1725
6859.00,1.1676
6858.00,1.1624
6857.00,1.1568
6856.00,1.1505
6855.00,1.1442
6854.00,1.1382
6853.00,1.1324
6852.00,1.1262
6851.00,1.1191
6850.00,1.1113
6849.00,1.1034
6848.00,1.0953
6847.00,1.0869
6846.00,1.0778
6845.00,1.0682
6844.00,1.0583
6843.00,1.0484
6842.00,1.0384
6841.00,1.0283
6840.00,1.0180
6839.00,1.0078
6838.00,0.9976
6837.00,0.9876
6836.00,0.9774
6835.00,0.9669
6834.00,0.9562
6833.00,0.9456
6832.00,0.9349
6831.00,0.9244
6830.00,0.9140
6829.00,0.9037
6828.00,0.8933
6827.00,0.8829
6826.00,0.8727
6825.00,0.8629
6824.00,0.8535
6823.00,0.8446
6822.00,0.8363
6821.00,0.8286
6820.00,0.8215
6819.00,0.8146
6818.00,0.8081
6817.00,0.8020
6816.00,0.7963
6815.00,0.7912
6814.00,0.7868
6813.00,0.7832
6812.00,0.7804
6811.00,0.7782
6810.00,0.7767
6809.00,0.7758
6808.00,0.7756
6807.00,0.7761
6806.00,0.7771
6805.00,0.7787
6804.00,0.7807
6803.00,0.7835
6802.00,0.7869
6801.00,0.7910
6800.00,0.7955
6799.00,0.8004
6798.00,0.8060
6797.00,0.8124
6796.00,0.8193
6795.00,0.8263
6794.00,0.8336
6793.00,0.8412
6792.00,0.8492
6791.00,0.8576
6790.00,0.8663
6789.00,0.8752
6788.00,0.8845
6787.00,0.8941
6786.00,0.9039
6785.00,0.9136
6784.00,0.9230
6783.00,0.9324
6782.00,0.9419
6781.00,0.9516
6780.00,0.9615
6779.00,0.9714
6778.00,0.9816
6777.00,0.9919
6776.00,1.0022
6775.00,1.0124
6774.00,1.0224
6773.00,1.0323
6772.00,1.0419
6771.00,1.0513
6770.00,1.0607
6769.00,1.0699
6768.00,1.0788
6767.00,1.0871
6766.00,1.0952
6765.00,1.1035
6764.00,1.1118
6763.00,1.1200
6762.00,1.1280
6761.00,1.1357
6760.00,1.1431
6759.00,1.1500
6758.00,1.1562
6757.00,1.1622
6756.00,1.1680
6755.00,1.1734
6754.00,1.1787
6753.00,1.1841
6752.00,1.1897
6751.00,1.1947
6750.00,1.1987
6749.00,1.2018
6748.00,1.2046
6747.00,1.2073
6746.00,1.2098
6745.00,1.2119
6744.00,1.2140
6743.00,1.2163
6742.00,1.2184
6741.00,1.2198
6740.00,1.2203
6739.00,1.2199
6738.00,1.2190
6737.00,1.2175
6736.00,1.2158
6735.00,1.2143
6734.00,1.2127
6733.00,1.2107
6732.00,1.2079
6731.00,1.2046
6730.00,1.2008
6729.00,1.1963
6728.00,1.1911
6727.00,1.1857
6726.00,1.1804
6725.00,1.1754
6724.00,1.1701
6723.00,1.1642
6722.00,1.1576
6721.00,1.1505
6720.00,1.1427
6719.00,1.1341
6718.00,1.1249
6717.00,1.1150
6716.00,1.1049
6715.00,1.0949
6714.00,1.0851
6713.00,1.0753
6712.00,1.0653
6711.00,1.0550
6710.00,1.0444
6709.00,1.0335
6708.00,1.0223
6707.00,1.0108
6706.00,0.9994
6705.00,0.9881
6704.00,0.9769
6703.00,0.9656
6702.00,0.9542
6701.00,0.9427
6700.00,0.9311
6699.00,0.9199
6698.00,0.9090
6697.00,0.8984
6696.00,0.8880
6695.00,0.8779
6694.00,0.8683
6693.00,0.8590
6692.00,0.8498
6691.00,0.8407
6690.00,0.8322
6689.00,0.8242
6688.00,0.8169
6687.00,0.8099
6686.00,0.8034
6685.00,0.7977
6684.00,0.7926
6683.00,0.7884
6682.00,0.7848
6681.00,0.7819
6680.00,0.7795
6679.00,0.7778
6678.00,0.7768
6677.00,0.7765
6676.00,0.7767
6675.00,0.7776
6674.00,0.7794
6673.00,0.7821
6672.00,0.7856
6671.00,0.7895
6670.00,0.7938
6669.00,0.7988
6668.00,0.8042
6667.00,0.8101
6666.00,0.8164
6665.00,0.8230
6664.00,0.8302
6663.00,0.8379
6662.00,0.8462
6661.00,0.8550
6660.00,0.8638
6659.00,0.8726
6658.00,0.8816
6657.00,0.8910
6656.00,0.9005
6655.00,0.9099
6654.00,0.9195
6653.00,0.9293
6652.00,0.9393
6651.00,0.9493
6650.00,0.9594
6649.00,0.9695
6648.00,0.9795
6647.00,0.9894
6646.00,0.9994
6645.00,1.0095
6644.00,1.0195
6643.00,1.0293
6642.00,1.0388
6641.00,1.0480
6640.00,1.0572
6639.00,1.0663
6638.00,1.0753
6637.00,1.0842
6636.00,1.0930
6635.00,1.1017
6634.00,1.1104
6633.00,1.1188
6632.00,1.1265
6631.00,1.1334
6630.00,1.1398
6629.00,1.1462
6628.00,1.1525
6627.00,1.1585
6626.00,1.1640
6625.00,1.1690
6624.00,1.1739
6623.00,1.1787
6622.00,1.1833
6621.00,1.1877
6620.00,1.1919
6619.00,1.1957
6618.00,1.1992
6617.00,1.2022
6616.00,1.2044
6615.00,1.2059
6614.00,1.2068
6613.00,1.2077
6612.00,1.2089
6611.00,1.2101
6610.00,1.2108
6609.00,1.2109
6608.00,1.2105
6607.00,1.2095
6606.00,1.2078
6605.00,1.2054
6604.00,1.2025
6603.00,1.1994
6602.00,1.1965
6601.00,1.1934
6600.00,1.1900
6599.00,1.1860
6598.00,1.1816
6597.00,1.1767
6596.00,1.1714
6595.00,1.1656
6594.00,1.1597
6593.00,1.1536
6592.00,1.1471
6591.00,1.1398
6590.00,1.1319
6589.00,1.1237
6588.00,1.1156
6587.00,1.1071
6586.00,1.0983
6585.00,1.0894
6584.00,1.0805
6583.00,1.0715
6582.00,1.0618
6581.00,1.0514
6580.00,1.0407
6579.00,1.0301
6578.00,1.0196
6577.00,1.0091
6576.00,0.9982
6575.00,0.9872
6574.00,0.9762
6573.00,0.9652
6572.00,0.9540
6571.00,0.9426
6570.00,0.9313
6569.00,0.9202
6568.00,0.9093
6567.00,0.8986
6566.00,0.8881
6565.00,0.8778
6564.00,0.8677
6563.00,0.8580
6562.00,0.8486
6561.00,0.8396
6560.00,0.8311
6559.00,0.8230
6558.00,0.8154
6557.00,0.8084
6556.00,0.8019
6555.00,0.7957
6554.00,0.7900
6553.00,0.7849
6552.00,0.7805
6551.00,0.7768
6550.00,0.7738
6549.00,0.7715
6548.00,0.7699
6547.00,0.7692
6546.00,0.7694
6545.00,0.7705
6544.00,0.7721
6543.00,0.7743
6542.00,0.7773
6541.00,0.7810
6540.00,0.7852
6539.00,0.7898
6538.00,0.7947
6537.00,0.8003
6536.00,0.8066
6535.00,0.8136
6534.00,0.8211
6533.00,0.8292
6532.00,0.8377
6531.00,0.8465
6530.00,0.8555
6529.00,0.8646
6528.00,0.8738
6527.00,0.8830
6526.00,0.8925
6525.00,0.9023
6524.00,0.9125
6523.00,0.9230
6522.00,0.9338
6521.00,0.9446
6520.00,0.9554
6519.00,0.9661
6518.00,0.9764
6517.00,0.9868
6516.00,0.9972
6515.00,1.0078
6514.00,1.0184
6513.00,1.0287
6512.00,1.0391
6511.00,1.0495
6510.00,1.0600
6509.00,1.0703
6508.00,1.0800
6507.00,1.0893
6506.00,1.0984
6505.00,1.1076
6504.00,1.1165
6503.00,1.1251
6502.00,1.1333
6501.00,1.1416
6500.00,1.1499
6499.00,1.1581
6498.00,1.1658
6497.00,1.1727
6496.00,1.1790
6495.00,1.1853
6494.00,1.1916
6493.00,1.1978
6492.00,1.2036
6491.00,1.2089
6490.00,1.2138
6489.00,1.2181
6488.00,1.2216
6487.00,1.2247
6486.00,1.2276
6485.00,1.2306
6484.00,1.2333
6483.00,1.2355
6482.00,1.2374
6481.00,1.2390
6480.00,1.2403
6479.00,1.2410
6478.00,1.2412
6477.00,1.2411
6476.00,1.2410
6475.00,1.2407
6474.00,1.2399
6473.00,1.2384
6472.00,1.2363
6471.00,1.2337
6470.00,1.2303
6469.00,1.2260
6468.00,1.2208
6467.00,1.2151
6466.00,1.2094
6465.00,1.2038
6464.00,1.1984
6463.00,1.1928
6462.00,1.1866
6461.00,1.1798
6460.00,1.1725
6459.00,1.1646
6458.00,1.1563
6457.00,1.1476
6456.00,1.1387
6455.00,1.1297
6454.00,1.1207
6453.00,1.1111
6452.00,1.1007
6451.00,1.0897
6450.00,1.0785
6449.00,1.0672
6448.00,1.0557
6447.00,1.0439
6446.00,1.0319
6445.00,1.0198
6444.00,1.0077
6443.00,0.9956
6442.00,0.9832
6441.00,0.9707
6440.00,0.9583
6439.00,0.9462
6438.00,0.9343
6437.00,0.9226
6436.00,0.9108
6435.00,0.8992
6434.00,0.8881
6433.00,0.8775
6432.00,0.8670
6431.00,0.8567
6430.00,0.8467
6429.00,0.8373
6428.00,0.8284
6427.00,0.8200
6426.00,0.8121
6425.00,0.8049
6424.00,0.7984
6423.00,0.7926
6422.00,0.7875
6421.00,0.7832
6420.00,0.7796
6419.00,0.7768
6418.00,0.7747
6417.00,0.7734
6416.00,0.7728
6415.00,0.7729
6414.00,0.7736
6413.00,0.7750
6412.00,0.7771
6411.00,0.7800
6410.00,0.7837
6409.00,0.7883
6408.00,0.7933
6407.00,0.7988
6406.00,0.8049
6405.00,0.8116
6404.00,0.8187
6403.00,0.8263
6402.00,0.8343
6401.00,0.8427
6400.00,0.8516
6399.00,0.8608
6398.00,0.8702
6397.00,0.8799
6396.00,0.8896
6395.00,0.8996
6394.00,0.9098
6393.00,0.9202
6392.00,0.9308
6391.00,0.9415
6390.00,0.9523
6389.00,0.9634
6388.00,0.9743
6387.00,0.9850
6386.00,0.9954
6385.00,1.0058
6384.00,1.0162
6383.00,1.0264
6382.00,1.0366
6381.00,1.0467
6380.00,1.0570
6379.00,1.0671
6378.00,1.0770
6377.00,1.0867
6376.00,1.0962
6375.00,1.1054
6374.00,1.1141
6373.00,1.1225
6372.00,1.1308
6371.00,1.1390
6370.00,1.1469
6369.00,1.1545
6368.00,1.1618
6367.00,1.1687
6366.00,1.1754
6365.00,1.1815
6364.00,1.1871
6363.00,1.1924
6362.00,1.1977
6361.00,1.2029
6360.00,1.2077
6359.00,1.2118
6358.00,1.2155
6357.00,1.2189
6356.00,1.2220
6355.00,1.2245
6354.00,1.2263
6353.00,1.2277
6352.00,1.2289
6351.00,1.2299
6350.00,1.2307
6349.00,1.2314
6348.00,1.2319
6347.00,1.2320
6346.00,1.2314
6345.00,1.2299
6344.00,1.2278
6343.00,1.2254
6342.00,1.2229
6341.00,1.2203
6340.00,1.2173
6339.00,1.2140
6338.00,1.2102
6337.00,1.2060
6336.00,1.2012
6335.00,1.1958
6334.00,1.1902
6333.00,1.1846
6332.00,1.1787
6331.00,1.1720
6330.00,1.1648
6329.00,1.1572
6328.00,1.1494
6327.00,1.1414
6326.00,1.1331
6325.00,1.1244
6324.00,1.1155
6323.00,1.1063
6322.00,1.0969
6321.00,1.0871
6320.00,1.0768
6319.00,1.0661
6318.00,1.0552
6317.00,1.0441
6316.00,1.0327
6315.00,1.0208
6314.00,1.0087
6313.00,0.9965
6312.00,0.9843
6311.00,0.9722
6310.00,0.9601
6309.00,0.9483
6308.00,0.9367
6307.00,0.9253
6306.00,0.9137
6305.00,0.9022
6304.00,0.8907
6303.00,0.8794
6302.00,0.8682
6301.00,0.8575
6300.00,0.8473
6299.00,0.8376
6298.00,0.8283
6297.00,0.8194
6296.00,0.8110
6295.00,0.8034
6294.00,0.7965
6293.00,0.7904
6292.00,0.7849
6291.00,0.7801
6290.00,0.7760
6289.00,0.7726
6288.00,0.7699
6287.00,0.7677
6286.00,0.7663
6285.00,0.7659
6284.00,0.7665
6283.00,0.7679
6282.00,0.7699
6281.00,0.7728
6280.00,0.7764
6279.00,0.7808
6278.00,0.7857
6277.00,0.7911
6276.00,0.7970
6275.00,0.8034
6274.00,0.8103
6273.00,0.8177
6272.00,0.8256
6271.00,0.8341
6270.00,0.8432
6269.00,0.8528
6268.00,0.8626
6267.00,0.8728
6266.00,0.8831
6265.00,0.8937
6264.00,0.9045
6263.00,0.9154
6262.00,0.9264
6261.00,0.9374
6260.00,0.9484
6259.00,0.9597
6258.00,0.9711
6257.00,0.9826
6256.00,0.9941
6255.00,1.0055
6254.00,1.0168
6253.00,1.0280
6252.00,1.0388
6251.00,1.0493
6250.00,1.0596
6249.00,1.0700
6248.00,1.0805
6247.00,1.0909
6246.00,1.1013
6245.00,1.1118
6244.00,1.1223
6243.00,1.1325
6242.00,1.1422
6241.00,1.1512
6240.00,1.1596
6239.00,1.1676
6238.00,1.1753
6237.00,1.1828
6236.00,1.1901
6235.00,1.1973
6234.00,1.2045
6233.00,1.2113
6232.00,1.2176
6231.00,1.2233
6230.00,1.2283
6229.00,1.2330
6228.00,1.2375
6227.00,1.2420
6226.00,1.2465
6225.00,1.2508
6224.00,1.2548
6223.00,1.2583
6222.00,1.2612
6221.00,1.2632
6220.00,1.2642
6219.00,1.2644
6218.00,1.2642
6217.00,1.2637
6216.00,1.2629
6215.00,1.2620
6214.00,1.2609
6213.00,1.2598
6212.00,1.2587
6211.00,1.2572
6210.00,1.2553
6209.00,1.2525
6208.00,1.2490
6207.00,1.2448
6206.00,1.2399
6205.00,1.2345
6204.00,1.2285
6203.00,1.2223
6202.00,1.2159
6201.00,1.2095
6200.00,1.2029
6199.00,1.1961
6198.00,1.1888
6197.00,1.1808
6196.00,1.1720
6195.00,1.1624
6194.00,1.1523
6193.00,1.1419
6192.00,1.1312
6191.00,1.1202
6190.00,1.1090
6189.00,1.0977
6188.00,1.0862
6187.00,1.0744
6186.00,1.0623
6185.00,1.0499
6184.00,1.0372
6183.00,1.0244
6182.00,1.0114
6181.00,0.9983
6180.00,0.9852
6179.00,0.9722
6178.00,0.9593
6177.00,0.9465
6176.00,0.9338
6175.00,0.9211
6174.00,0.9085
6173.00,0.8963
6172.00,0.8844
6171.00,0.8728
6170.00,0.8615
6169.00,0.8507
6168.00,0.8405
6167.00,0.8309
6166.00,0.8218
6165.00,0.8134
6164.00,0.8055
6163.00,0.7983
6162.00,0.7917
6161.00,0.7858
6160.00,0.7806
6159.00,0.7763
6158.00,0.7729
6157.00,0.7703
6156.00,0.7684
6155.00,0.7673
6154.00,0.7668
6153.00,0.7672
6152.00,0.7684
6151.00,0.7705
6150.00,0.7735
6149.00,0.7773
6148.00,0.7817
6147.00,0.7868
6146.00,0.7925
6145.00,0.7988
6144.00,0.8056
6143.00,0.8130
6142.00,0.8209
6141.00,0.8294
6140.00,0.8383
6139.00,0.8476
6138.00,0.8573
6137.00,0.8673
6136.00,0.8774
6135.00,0.8876
6134.00,0.8981
6133.00,0.9090
6132.00,0.9201
6131.00,0.9314
6130.00,0.9428
6129.00,0.9544
6128.00,0.9659
6127.00,0.9774
6126.00,0.9887
6125.00,0.9999
6124.00,1.0111
6123.00,1.0219
6122.00,1.0327
6121.00,1.0435
6120.00,1.0543
6119.00,1.0649
6118.00,1.0752
6117.00,1.0853
6116.00,1.0953
6115.00,1.1051
6114.00,1.1146
6113.00,1.1238
6112.00,1.1327
6111.00,1.1415
6110.00,1.1500
6109.00,1.1581
6108.00,1.1657
6107.00,1.1732
6106.00,1.1806
6105.00,1.1879
6104.00,1.1947
6103.00,1.2011
6102.00,1.2073
6101.00,1.2134
6100.00,1.2192
6099.00,1.2245
6098.00,1.2295
6097.00,1.2343
6096.00,1.2386
6095.00,1.2423
6094.00,1.2455
6093.00,1.2484
6092.00,1.2509
6091.00,1.2529
6090.00,1.2545
6089.00,1.2560
6088.00,1.2572
6087.00,1.2580
6086.00,1.2584
6085.00,1.2585
6084.00,1.2581
6083.00,1.2573
6082.00,1.2563
6081.00,1.2550
6080.00,1.2534
6079.00,1.2514
6078.00,1.2489
6077.00,1.2457
6076.00,1.2420
6075.00,1.2376
6074.00,1.2327
6073.00,1.2274
6072.00,1.2217
6071.00,1.2157
6070.00,1.2094
6069.00,1.2027
6068.00,1.1956
6067.00,1.1881
6066.00,1.1801
6065.00,1.1717
6064.00,1.1627
6063.00,1.1532
6062.00,1.1434
6061.00,1.1332
6060.00,1.1225
6059.00,1.1112
6058.00,1.0994
6057.00,1.0876
6056.00,1.0756
6055.00,1.0633
6054.00,1.0506
6053.00,1.0378
6052.00,1.0250
6051.00,1.0120
6050.00,0.9987
6049.00,0.9854
6048.00,0.9721
6047.00,0.9587
6046.00,0.9454
6045.00,0.9322
6044.00,0.9192
6043.00,0.9064
6042.00,0.8939
6041.00,0.8819
6040.00,0.8702
6039.00,0.8589
6038.00,0.8480
6037.00,0.8376
6036.00,0.8278
6035.00,0.8186
6034.00,0.8099
6033.00,0.8019
6032.00,0.7947
6031.00,0.7882
6030.00,0.7825
6029.00,0.7776
6028.00,0.7736
6027.00,0.7703
6026.00,0.7678
6025.00,0.7661
6024.00,0.7653
6023.00,0.7653
6022.00,0.7661
6021.00,0.7679
6020.00,0.7705
6019.00,0.7741
6018.00,0.7784
6017.00,0.7835
6016.00,0.7893
6015.00,0.7958
6014.00,0.8028
6013.00,0.8105
6012.00,0.8186
6011.00,0.8272
6010.00,0.8362
6009.00,0.8456
6008.00,0.8554
6007.00,0.8657
6006.00,0.8763
6005.00,0.8873
6004.00,0.8985
6003.00,0.9098
6002.00,0.9213
6001.00,0.9328
6000.00,0.9445
5999.00,0.9563
5998.00,0.9684
5997.00,0.9806
5996.00,0.9929
5995.00,1.0051
5994.00,1.0171
5993.00,1.0290
5992.00,1.0408
5991.00,1.0524
5990.00,1.0637
5989.00,1.0748
5988.00,1.0857
5987.00,1.0965
5986.00,1.1073
5985.00,1.1182
5984.00,1.1291
5983.00,1.1397
5982.00,1.1499
5981.00,1.1598
5980.00,1.1693
5979.00,1.1786
5978.00,1.1874
5977.00,1.1959
5976.00,1.2042
5975.00,1.2124
5974.00,1.2202
5973.00,1.2273
5972.00,1.2339
5971.00,1.2401
5970.00,1.2459
5969.00,1.2514
5968.00,1.2565
5967.00,1.2614
5966.00,1.2664
5965.00,1.2711
5964.00,1.2752
5963.00,1.2786
5962.00,1.2812
5961.00,1.2836
5960.00,1.2858
5959.00,1.2880
5958.00,1.2902
5957.00,1.2920
5956.00,1.2930
5955.00,1.2932
5954.00,1.2929
5953.00,1.2922
5952.00,1.2911
5951.00,1.2893
5950.00,1.2871
5949.00,1.2848
5948.00,1.2820
5947.00,1.2786
5946.00,1.2748
5945.00,1.2706
5944.00,1.2660
5943.00,1.2607
5942.00,1.2547
5941.00,1.2484
5940.00,1.2419
5939.00,1.2351
5938.00,1.2275
5937.00,1.2191
5936.00,1.2102
5935.00,1.2008
5934.00,1.1910
5933.00,1.1810
5932.00,1.1709
5931.00,1.1605
5930.00,1.1496
5929.00,1.1380
5928.00,1.1260
5927.00,1.1136
5926.00,1.1009
5925.00,1.0880
5924.00,1.0749
5923.00,1.0617
5922.00,1.0483
5921.00,1.0347
5920.00,1.0210
5919.00,1.0072
5918.00,0.9934
5917.00,0.9795
5916.00,0.9657
5915.00,0.9521
5914.00,0.9387
5913.00,0.9254
5912.00,0.9124
5911.00,0.8998
5910.00,0.8876
5909.00,0.8758
5908.00,0.8644
5907.00,0.8534
5906.00,0.8430
5905.00,0.8331
5904.00,0.8238
5903.00,0.8152
5902.00,0.8073
5901.00,0.8003
5900.00,0.7940
5899.00,0.7887
5898.00,0.7842
5897.00,0.7806
5896.00,0.7779
5895.00,0.7760
5894.00,0.7749
5893.00,0.7748
5892.00,0.7755
5891.00,0.7772
5890.00,0.7800
5889.00,0.7836
5888.00,0.7879
5887.00,0.7929
5886.00,0.7984
5885.00,0.8045
5884.00,0.8113
5883.00,0.8187
5882.00,0.8269
5881.00,0.8358
5880.00,0.8452
5879.00,0.8550
5878.00,0.8651
5877.00,0.8757
5876.00,0.8866
5875.00,0.8977
5874.00,0.9092
5873.00,0.9210
5872.00,0.9329
5871.00,0.9451
5870.00,0.9573
5869.00,0.9695
5868.00,0.9815
5867.00,0.9934
5866.00,1.0053
5865.00,1.0172
5864.00,1.0293
5863.00,1.0414
5862.00,1.0536
5861.00,1.0657
5860.00,1.0776
5859.00,1.0893
5858.00,1.1008
5857.00,1.1121
5856.00,1.1233
5855.00,1.1344
5854.00,1.1452
5853.00,1.1557
5852.00,1.1658
5851.00,1.1757
5850.00,1.1855
5849.00,1.1952
5848.00,1.2046
5847.00,1.2137
5846.00,1.2223
5845.00,1.2305
5844.00,1.2383
5843.00,1.2458
5842.00,1.2531
5841.00,1.2602
5840.00,1.2671
5839.00,1.2737
5838.00,1.2800
5837.00,1.2857
5836.00,1.2908
5835.00,1.2954
5834.00,1.2996
5833.00,1.3034
5832.00,1.3068
5831.00,1.3098
5830.00,1.3124
5829.00,1.3147
5828.00,1.3165
5827.00,1.3177
5826.00,1.3186
5825.00,1.3192
5824.00,1.3193
5823.00,1.3189
5822.00,1.3179
5821.00,1.3166
5820.00,1.3148
5819.00,1.3123
5818.00,1.3090
5817.00,1.3053
5816.00,1.3014
5815.00,1.2972
5814.00,1.2925
5813.00,1.2875
5812.00,1.2822
5811.00,1.2764
5810.00,1.2700
5809.00,1.2630
5808.00,1.2555
5807.00,1.2477
5806.00,1.2395
5805.00,1.2309
5804.00,1.2216
5803.00,1.2118
5802.00,1.2017
5801.00,1.1913
5800.00,1.1805
5799.00,1.1692
5798.00,1.1576
5797.00,1.1456
5796.00,1.1331
5795.00,1.1201
5794.00,1.1068
5793.00,1.0933
5792.00,1.0797
5791.00,1.0660
5790.00,1.0521
5789.00,1.0382
5788.00,1.0241
5787.00,1.0097
5786.00,0.9951
5785.00,0.9805
5784.00,0.9659
5783.00,0.9515
5782.00,0.9373
5781.00,0.9236
5780.00,0.9102
5779.00,0.8973
5778.00,0.8847
5777.00,0.8727
5776.00,0.8612
5775.00,0.8501
5774.00,0.8396
5773.00,0.8298
5772.00,0.8207
5771.00,0.8123
5770.00,0.8048
5769.00,0.7981
5768.00,0.7923
5767.00,0.7873
5766.00,0.7834
5765.00,0.7804
5764.00,0.7784
5763.00,0.7774
5762.00,0.7773
5761.00,0.7781
5760.00,0.7797
5759.00,0.7822
5758.00,0.7856
5757.00,0.7898
5756.00,0.7949
5755.00,0.8008
5754.00,0.8073
5753.00,0.8145
5752.00,0.8224
5751.00,0.8309
5750.00,0.8400
5749.00,0.8496
5748.00,0.8598
5747.00,0.8704
5746.00,0.8813
5745.00,0.8925
5744.00,0.9039
5743.00,0.9156
5742.00,0.9274
5741.00,0.9395
5740.00,0.9517
5739.00,0.9641
5738.00,0.9765
5737.00,0.9890
5736.00,1.0016
5735.00,1.0143
5734.00,1.0269
5733.00,1.0396
5732.00,1.0522
5731.00,1.0646
5730.00,1.0768
5729.00,1.0888
5728.00,1.1006
5727.00,1.1122
5726.00,1.1236
5725.00,1.1350
5724.00,1.1463
5723.00,1.1575
5722.00,1.1685
5721.00,1.1792
5720.00,1.1894
5719.00,1.1992
5718.00,1.2086
5717.00,1.2177
5716.00,1.2266
5715.00,1.2353
5714.00,1.2439
5713.00,1.2522
5712.00,1.2603
5711.00,1.2680
5710.00,1.2750
5709.00,1.2814
5708.00,1.2871
5707.00,1.2927
5706.00,1.2981
5705.00,1.3033
5704.00,1.3082
5703.00,1.3129
5702.00,1.3172
5701.00,1.3209
5700.00,1.3240
5699.00,1.3265
5698.00,1.3287
5697.00,1.3304
5696.00,1.3316
5695.00,1.3323
5694.00,1.3326
5693.00,1.3325
5692.00,1.3321
5691.00,1.3309
5690.00,1.3289
5689.00,1.3262
5688.00,1.3229
5687.00,1.3193
5686.00,1.3157
5685.00,1.3121
5684.00,1.3081
5683.00,1.3038
5682.00,1.2988
5681.00,1.2930
5680.00,1.2865
5679.00,1.2793
5678.00,1.2716
5677.00,1.2637
5676.00,1.2555
5675.00,1.2469
5674.00,1.2378
5673.00,1.2281
5672.00,1.2179
5671.00,1.2072
5670.00,1.1963
5669.00,1.1854
5668.00,1.1741
5667.00,1.1624
5666.00,1.1501
5665.00,1.1373
5664.00,1.1241
5663.00,1.1105
5662.00,1.0968
5661.00,1.0830
5660.00,1.0690
5659.00,1.0546
5658.00,1.0400
5657.00,1.0252
5656.00,1.0104
5655.00,0.9956
5654.00,0.9808
5653.00,0.9660
5652.00,0.9515
5651.00,0.9371
5650.00,0.9231
5649.00,0.9094
5648.00,0.8961
5647.00,0.8830
5646.00,0.8702
5645.00,0.8580
5644.00,0.8465
5643.00,0.8356
5642.00,0.8253
5641.00,0.8158
5640.00,0.8070
5639.00,0.7990
5638.00,0.7918
5637.00,0.7855
5636.00,0.7803
5635.00,0.7760
5634.00,0.7727
5633.00,0.7703
5632.00,0.7688
5631.00,0.7683
5630.00,0.7687
5629.00,0.7702
5628.00,0.7726
5627.00,0.7761
5626.00,0.7804
5625.00,0.7856
5624.00,0.7916
5623.00,0.7983
5622.00,0.8057
5621.00,0.8138
5620.00,0.8225
5619.00,0.8319
5618.00,0.8419
5617.00,0.8525
5616.00,0.8635
5615.00,0.8748
5614.00,0.8865
5613.00,0.8985
5612.00,0.9106
5611.00,0.9230
5610.00,0.9355
5609.00,0.9483
5608.00,0.9613
5607.00,0.9745
5606.00,0.9878
5605.00,1.0011
5604.00,1.0145
5603.00,1.0277
5602.00,1.0407
5601.00,1.0535
5600.00,1.0661
5599.00,1.0789
5598.00,1.0917
5597.00,1.1044
5596.00,1.1170
5595.00,1.1296
5594.00,1.1420
5593.00,1.1540
5592.00,1.1656
5591.00,1.1769
5590.00,1.1878
5589.00,1.1983
5588.00,1.2084
5587.00,1.2182
5586.00,1.2278
5585.00,1.2374
5584.00,1.2469
5583.00,1.2562
5582.00,1.2652
5581.00,1.2736
5580.00,1.2814
5579.00,1.2886
5578.00,1.2954
5577.00,1.3017
5576.00,1.3076
5575.00,1.3131
5574.00,1.3183
5573.00,1.3230
5572.00,1.3275
5571.00,1.3316
5570.00,1.3353
5569.00,1.3386
5568.00,1.3413
5567.00,1.3434
5566.00,1.3449
5565.00,1.3459
5564.00,1.3464
5563.00,1.3465
5562.00,1.3462
5561.00,1.3456
5560.00,1.3444
5559.00,1.3428
5558.00,1.3408
5557.00,1.3383
5556.00,1.3351
5555.00,1.3313
5554.00,1.3271
5553.00,1.3228
5552.00,1.3185
5551.00,1.3137
5550.00,1.3080
5549.00,1.3016
5548.00,1.2945
5547.00,1.2867
5546.00,1.2785
5545.00,1.2699
5544.00,1.2612
5543.00,1.2521
5542.00,1.2426
5541.00,1.2325
5540.00,1.2218
5539.00,1.2108
5538.00,1.1993
5537.00,1.1873
5536.00,1.1749
5535.00,1.1619
5534.00,1.1487
5533.00,1.1352
5532.00,1.1213
5531.00,1.1069
5530.00,1.0920
5529.00,1.0767
5528.00,1.0612
5527.00,1.0456
5526.00,1.0300
5525.00,1.0146
5524.00,0.9993
5523.00,0.9841
5522.00,0.9688
5521.00,0.9535
5520.00,0.9385
5519.00,0.9238
5518.00,0.9095
5517.00,0.8956
5516.00,0.8819
5515.00,0.8685
5514.00,0.8557
5513.00,0.8435
5512.00,0.8320
5511.00,0.8214
5510.00,0.8115
5509.00,0.8024
5508.00,0.7942
5507.00,0.7868
5506.00,0.7803
5505.00,0.7748
5504.00,0.7704
5503.00,0.7670
5502.00,0.7646
5501.00,0.7634
5500.00,0.7632
5499.00,0.7640
5498.00,0.7659
5497.00,0.7687
5496.00,0.7723
5495.00,0.7769
5494.00,0.7823
5493.00,0.7886
5492.00,0.7956
5491.00,0.8032
5490.00,0.8115
5489.00,0.8206
5488.00,0.8303
5487.00,0.8405
5486.00,0.8511
5485.00,0.8623
5484.00,0.8741
5483.00,0.8861
5482.00,0.8985
5481.00,0.9109
5480.00,0.9235
5479.00,0.9362
5478.00,0.9491
5477.00,0.9621
5476.00,0.9752
5475.00,0.9883
5474.00,1.0014
5473.00,1.0145
5472.00,1.0275
5471.00,1.0404
5470.00,1.0531
5469.00,1.0655
5468.00,1.0779
5467.00,1.0905
5466.00,1.1033
5465.00,1.1162
5464.00,1.1288
5463.00,1.1411
5462.00,1.1529
5461.00,1.1643
5460.00,1.1754
5459.00,1.1861
5458.00,1.1967
5457.00,1.2071
5456.00,1.2173
5455.00,1.2275
5454.00,1.2376
5453.00,1.2475
5452.00,1.2569
5451.00,1.2658
5450.00,1.2740
5449.00,1.2817
5448.00,1.2890
5447.00,1.2960
5446.00,1.3029
5445.00,1.3094
5444.00,1.3152
5443.00,1.3204
5442.00,1.3252
5441.00,1.3296
5440.00,1.3336
5439.00,1.3371
5438.00,1.3403
5437.00,1.3433
5436.00,1.3460
5435.00,1.3482
5434.00,1.3499
5433.00,1.3511
5432.00,1.3520
5431.00,1.3523
5430.00,1.3520
5429.00,1.3512
5428.00,1.3498
5427.00,1.3479
5426.00,1.3456
5425.00,1.3428
5424.00,1.3396
5423.00,1.3357
5422.00,1.3314
5421.00,1.3268
5420.00,1.3221
5419.00,1.3169
5418.00,1.3111
5417.00,1.3047
5416.00,1.2976
5415.00,1.2899
5414.00,1.2817
5413.00,1.2728
5412.00,1.2632
5411.00,1.2529
5410.00,1.2420
5409.00,1.2306
5408.00,1.2188
5407.00,1.2067
5406.00,1.1943
5405.00,1.1816
5404.00,1.1686
5403.00,1.1553
5402.00,1.1418
5401.00,1.1282
5400.00,1.1142
5399.00,1.0997
5398.00,1.0846
5397.00,1.0689
5396.00,1.0529
5395.00,1.0365
5394.00,1.0198
5393.00,1.0032
5392.00,0.9867
5391.00,0.9704
5390.00,0.9545
5389.00,0.9390
5388.00,0.9238
5387.00,0.9087
5386.00,0.8939
5385.00,0.8794
5384.00,0.8655
5383.00,0.8522
5382.00,0.8397
5381.00,0.8282
5380.00,0.8175
5379.00,0.8076
5378.00,0.7985
5377.00,0.7903
5376.00,0.7828
5375.00,0.7762
5374.00,0.7705
5373.00,0.7660
5372.00,0.7629
5371.00,0.7610
5370.00,0.7604
5369.00,0.7610
5368.00,0.7629
5367.00,0.7659
5366.00,0.7698
5365.00,0.7747
5364.00,0.7803
5363.00,0.7868
5362.00,0.7941
5361.00,0.8022
5360.00,0.8112
5359.00,0.8209
5358.00,0.8313
5357.00,0.8423
5356.00,0.8537
5355.00,0.8657
5354.00,0.8782
5353.00,0.8910
5352.00,0.9041
5351.00,0.9173
5350.00,0.9309
5349.00,0.9448
5348.00,0.9587
5347.00,0.9726
5346.00,0.9867
5345.00,1.0010
5344.00,1.0154
5343.00,1.0298
5342.00,1.0440
5341.00,1.0584
5340.00,1.0728
5339.00,1.0873
5338.00,1.1014
5337.00,1.1154
5336.00,1.1293
5335.00,1.1430
5334.00,1.1564
5333.00,1.1694
5332.00,1.1820
5331.00,1.1943
5330.00,1.2063
5329.00,1.2181
5328.00,1.2295
5327.00,1.2405
5326.00,1.2512
5325.00,1.2615
5324.00,1.2718
5323.00,1.2819
5322.00,1.2916
5321.00,1.3007
5320.00,1.3093
5319.00,1.3177
5318.00,1.3260
5317.00,1.3340
5316.00,1.3414
5315.00,1.3480
5314.00,1.3539
5313.00,1.3592
5312.00,1.3639
5311.00,1.3680
5310.00,1.3717
5309.00,1.3751
5308.00,1.3781
5307.00,1.3808
5306.00,1.3830
5305.00,1.3847
5304.00,1.3861
5303.00,1.3871
5302.00,1.3877
5301.00,1.3877
5300.00,1.3874
5299.00,1.3868
5298.00,1.3855
5297.00,1.3837
5296.00,1.3814
5295.00,1.3787
5294.00,1.3753
5293.00,1.3711
5292.00,1.3662
5291.00,1.3606
5290.00,1.3546
5289.00,1.3481
5288.00,1.3413
5287.00,1.3342
5286.00,1.3267
5285.00,1.3186
5284.00,1.3097
5283.00,1.3006
5282.00,1.2913
5281.00,1.2818
5280.00,1.2719
5279.00,1.2613
5278.00,1.2500
5277.00,1.2379
5276.00,1.2254
5275.00,1.2124
5274.00,1.1989
5273.00,1.1850
5272.00,1.1708
5271.00,1.1562
5270.00,1.1412
5269.00,1.1258
5268.00,1.1102
5267.00,1.0943
5266.00,1.0781
5265.00,1.0615
5264.00,1.0445
5263.00,1.0271
5262.00,1.0098
5261.00,0.9926
5260.00,0.9759
5259.00,0.9595
5258.00,0.9435
5257.00,0.9278
5256.00,0.9124
5255.00,0.8975
5254.00,0.8829
5253.00,0.8687
5252.00,0.8552
5251.00,0.8426
5250.00,0.8310
5249.00,0.8200
5248.00,0.8098
5247.00,0.8004
5246.00,0.7920
5245.00,0.7846
5244.00,0.7783
5243.00,0.7730
5242.00,0.7690
5241.00,0.7663
5240.00,0.7651
5239.00,0.7650
5238.00,0.7661
5237.00,0.7682
5236.00,0.7715
5235.00,0.7758
5234.00,0.7811
5233.00,0.7873
5232.00,0.7943
5231.00,0.8022
5230.00,0.8108
5229.00,0.8201
5228.00,0.8300
5227.00,0.8406
5226.00,0.8519
5225.00,0.8636
5224.00,0.8757
5223.00,0.8883
5222.00,0.9013
5221.00,0.9148
5220.00,0.9285
5219.00,0.9425
5218.00,0.9568
5217.00,0.9715
5216.00,0.9863
5215.00,1.0013
5214.00,1.0163
5213.00,1.0311
5212.00,1.0456
5211.00,1.0599
5210.00,1.0742
5209.00,1.0883
5208.00,1.1024
5207.00,1.1163
5206.00,1.1300
5205.00,1.1435
5204.00,1.1568
5203.00,1.1701
5202.00,1.1833
5201.00,1.1964
5200.00,1.2092
5199.00,1.2218
5198.00,1.2341
5197.00,1.2460
5196.00,1.2575
5195.00,1.2686
5194.00,1.2795
5193.00,1.2900
5192.00,1.3000
5191.00,1.3096
5190.00,1.3188
5189.00,1.3277
5188.00,1.3363
5187.00,1.3446
5186.00,1.3525
5185.00,1.3598
5184.00,1.3662
5183.00,1.3720
5182.00,1.3774
5181.00,1.3825
5180.00,1.3874
5179.00,1.3920
5178.00,1.3963
5177.00,1.4000
5176.00,1.4032
5175.00,1.4055
5174.00,1.4072
5173.00,1.4083
5172.00,1.4091
5171.00,1.4095
5170.00,1.4094
5169.00,1.4089
5168.00,1.4078
5167.00,1.4064
5166.00,1.4046
5165.00,1.4023
5164.00,1.3995
5163.00,1.3961
5162.00,1.3923
5161.00,1.3878
5160.00,1.3828
5159.00,1.3772
5158.00,1.3710
5157.00,1.3642
5156.00,1.3570
5155.00,1.3494
5154.00,1.3415
5153.00,1.3332
5152.00,1.3245
5151.00,1.3152
5150.00,1.3052
5149.00,1.2944
5148.00,1.2829
5147.00,1.2708
5146.00,1.2582
5145.00,1.2451
5144.00,1.2316
5143.00,1.2177
5142.00,1.2034
5141.00,1.1887
5140.00,1.1736
5139.00,1.1581
5138.00,1.1422
5137.00,1.1260
5136.00,1.1094
5135.00,1.0924
5134.00,1.0752
5133.00,1.0579
5132.00,1.0404
5131.00,1.0228
5130.00,1.0052
5129.00,0.9877
5128.00,0.9703
5127.00,0.9533
5126.00,0.9366
5125.00,0.9203
5124.00,0.9045
5123.00,0.8893
5122.00,0.8746
5121.00,0.8605
5120.00,0.8472
5119.00,0.8347
5118.00,0.8231
5117.00,0.8125
5116.00,0.8029
5115.00,0.7943
5114.00,0.7870
5113.00,0.7808
5112.00,0.7758
5111.00,0.7720
5110.00,0.7696
5109.00,0.7683
5108.00,0.7682
5107.00,0.7694
5106.00,0.7718
5105.00,0.7755
5104.00,0.7804
5103.00,0.7864
5102.00,0.7935
5101.00,0.8017
5100.00,0.8107
5099.00,0.8206
5098.00,0.8312
5097.00,0.8426
5096.00,0.8545
5095.00,0.8670
5094.00,0.8801
5093.00,0.8936
5092.00,0.9076
5091.00,0.9220
5090.00,0.9368
5089.00,0.9518
5088.00,0.9670
5087.00,0.9823
5086.00,0.9977
5085.00,1.0130
5084.00,1.0282
5083.00,1.0435
5082.00,1.0588
5081.00,1.0743
5080.00,1.0899
5079.00,1.1053
5078.00,1.1205
5077.00,1.1355
5076.00,1.1503
5075.00,1.1649
5074.00,1.1792
5073.00,1.1933
5072.00,1.2070
5071.00,1.2205
5070.00,1.2338
5069.00,1.2469
5068.00,1.2597
5067.00,1.2720
5066.00,1.2839
5065.00,1.2953
5064.00,1.3063
5063.00,1.3170
5062.00,1.3275
5061.00,1.3375
5060.00,1.3472
5059.00,1.3565
5058.00,1.3653
5057.00,1.3734
5056.00,1.3809
5055.00,1.3878
5054.00,1.3942
5053.00,1.4002
5052.00,1.4059
5051.00,1.4114
5050.00,1.4166
5049.00,1.4212
5048.00,1.4252
5047.00,1.4286
5046.00,1.4316
5045.00,1.4341
5044.00,1.4361
5043.00,1.4378
5042.00,1.4390
5041.00,1.4395
5040.00,1.4393
5039.00,1.4382
5038.00,1.4366
5037.00,1.4347
5036.00,1.4325
5035.00,1.4300
5034.00,1.4273
5033.00,1.4241
5032.00,1.4203
5031.00,1.4160
5030.00,1.4111
5029.00,1.4057
5028.00,1.3997
5027.00,1.3931
5026.00,1.3859
5025.00,1.3782
5024.00,1.3700
5023.00,1.3613
5022.00,1.3522
5021.00,1.3425
5020.00,1.3323
5019.00,1.3216
5018.00,1.3104
5017.00,1.2985
5016.00,1.2860
5015.00,1.2729
5014.00,1.2593
5013.00,1.2453
5012.00,1.2308
5011.00,1.2159
5010.00,1.2005
5009.00,1.1845
5008.00,1.1680
5007.00,1.1511
5006.00,1.1339
5005.00,1.1164
5004.00,1.0987
5003.00,1.0809
5002.00,1.0628
5001.00,1.0445
5000.00,1.0260
4999.00,1.0074
4998.00,0.9888
4997.00,0.9703
4996.00,0.9521
4995.00,0.9342
4994.00,0.9168
4993.00,0.8999
4992.00,0.8835
4991.00,0.8676
4990.00,0.8525
4989.00,0.8383
4988.00,0.8250
4987.00,0.8129
4986.00,0.8018
4985.00,0.7918
4984.00,0.7831
4983.00,0.7756
4982.00,0.7695
4981.00,0.7647
4980.00,0.7613
4979.00,0.7592
4978.00,0.7585
4977.00,0.7592
4976.00,0.7611
4975.00,0.7644
4974.00,0.7689
4973.00,0.7745
4972.00,0.7812
4971.00,0.7890
4970.00,0.7979
4969.00,0.8077
4968.00,0.8184
4967.00,0.8299
4966.00,0.8421
4965.00,0.8551
4964.00,0.8688
4963.00,0.8830
4962.00,0.8976
4961.00,0.9127
4960.00,0.9281
4959.00,0.9436
4958.00,0.9594
4957.00,0.9753
4956.00,0.9915
4955.00,1.0078
4954.00,1.0242
4953.00,1.0407
4952.00,1.0571
4951.00,1.0734
4950.00,1.0896
4949.00,1.1057
4948.00,1.1217
4947.00,1.1375
4946.00,1.1532
4945.00,1.1686
4944.00,1.1837
4943.00,1.1985
4942.00,1.2130
4941.00,1.2273
4940.00,1.2414
4939.00,1.2553
4938.00,1.2688
4937.00,1.2820
4936.00,1.2948
4935.00,1.3071
4934.00,1.3190
4933.00,1.3304
4932.00,1.3414
4931.00,1.3519
4930.00,1.3621
4929.00,1.3719
4928.00,1.3814
4927.00,1.3905
4926.00,1.3992
4925.00,1.4073
4924.00,1.4148
4923.00,1.4217
4922.00,1.4280
4921.00,1.4337
4920.00,1.4390
4919.00,1.4440
4918.00,1.4486
4917.00,1.4527
4916.00,1.4562
4915.00,1.4589
4914.00,1.4610
4913.00,1.4627
4912.00,1.4640
4911.00,1.4650
4910.00,1.4657
4909.00,1.4658
4908.00,1.4653
4907.00,1.4641
4906.00,1.4622
4905.00,1.4598
4904.00,1.4570
4903.00,1.4540
4902.00,1.4505
4901.00,1.4464
4900.00,1.4417
4899.00,1.4362
4898.00,1.4302
4897.00,1.4239
4896.00,1.4172
4895.00,1.4102
4894.00,1.4025
4893.00,1.3942
4892.00,1.3850
4891.00,1.3752
4890.00,1.3649
4889.00,1.3540
4888.00,1.3427
4887.00,1.3310
4886.00,1.3188
4885.00,1.3059
4884.00,1.2923
4883.00,1.2782
4882.00,1.2636
4881.00,1.2484
4880.00,1.2328
4879.00,1.2166
4878.00,1.2000
4877.00,1.1827
4876.00,1.1649
4875.00,1.1466
4874.00,1.1279
4873.00,1.1090
4872.00,1.0899
4871.00,1.0707
4870.00,1.0513
4869.00,1.0318
4868.00,1.0123
4867.00,0.9929
4866.00,0.9736
4865.00,0.9547
4864.00,0.9361
4863.00,0.9180
4862.00,0.9005
4861.00,0.8838
4860.00,0.8679
4859.00,0.8528
4858.00,0.8388
4857.00,0.8257
4856.00,0.8137
4855.00,0.8029
4854.00,0.7933
4853.00,0.7851
4852.00,0.7781
4851.00,0.7726
4850.00,0.7684
4849.00,0.7658
4848.00,0.7645
4847.00,0.7647
4846.00,0.7664
4845.00,0.7695
4844.00,0.7740
4843.00,0.7798
4842.00,0.7869
4841.00,0.7950
4840.00,0.8043
4839.00,0.8145
4838.00,0.8257
4837.00,0.8379
4836.00,0.8508
4835.00,0.8645
4834.00,0.8790
4833.00,0.8940
4832.00,0.9095
4831.00,0.9253
4830.00,0.9415
4829.00,0.9578
4828.00,0.9743
4827.00,0.9911
4826.00,1.0080
4825.00,1.0252
4824.00,1.0425
4823.00,1.0597
4822.00,1.0770
4821.00,1.0941
4820.00,1.1111
4819.00,1.1281
4818.00,1.1448
4817.00,1.1613
4816.00,1.1777
4815.00,1.1938
4814.00,1.2096
4813.00,1.2252
4812.00,1.2405
4811.00,1.2554
4810.00,1.2699
4809.00,1.2841
4808.00,1.2980
4807.00,1.3115
4806.00,1.3247
4805.00,1.3374
4804.00,1.3496
4803.00,1.3613
4802.00,1.3726
4801.00,1.3834
4800.00,1.3939
4799.00,1.4041
4798.00,1.4138
4797.00,1.4231
4796.00,1.4318
4795.00,1.4397
4794.00,1.4471
4793.00,1.4540
4792.00,1.4604
4791.00,1.4663
4790.00,1.4716
4789.00,1.4762
4788.00,1.4802
4787.00,1.4841
4786.00,1.4878
4785.00,1.4911
4784.00,1.4938
4783.00,1.4956
4782.00,1.4967
4781.00,1.4973
4780.00,1.4974
4779.00,1.4972
4778.00,1.4965
4777.00,1.4950
4776.00,1.4929
4775.00,1.4903
4774.00,1.4873
4773.00,1.4839
4772.00,1.4801
4771.00,1.4758
4770.00,1.4710
4769.00,1.4656
4768.00,1.4597
4767.00,1.4533
4766.00,1.4463
4765.00,1.4389
4764.00,1.4310
4763.00,1.4225
4762.00,1.4135
4761.00,1.4040
4760.00,1.3939
4759.00,1.3832
4758.00,1.3718
4757.00,1.3598
4756.00,1.3471
4755.00,1.3338
4754.00,1.3200
4753.00,1.3057
4752.00,1.2908
4751.00,1.2753
4750.00,1.2592
4749.00,1.2425
4748.00,1.2253
4747.00,1.2076
4746.00,1.1893
4745.00,1.1704
4744.00,1.1512
4743.00,1.1316
4742.00,1.1118
4741.00,1.0917
4740.00,1.0715
4739.00,1.0511
4738.00,1.0307
4737.00,1.0104
4736.00,0.9903
4735.00,0.9705
4734.00,0.9511
4733.00,0.9321
4732.00,0.9137
4731.00,0.8959
4730.00,0.8788
4729.00,0.8627
4728.00,0.8475
4727.00,0.8333
4726.00,0.8204
4725.00,0.8087
4724.00,0.7984
4723.00,0.7895
4722.00,0.7820
4721.00,0.7759
4720.00,0.7714
4719.00,0.7685
4718.00,0.7671
4717.00,0.7673
4716.00,0.7691
4715.00,0.7723
4714.00,0.7770
4713.00,0.7831
4712.00,0.7906
4711.00,0.7995
4710.00,0.8095
4709.00,0.8207
4708.00,0.8327
4707.00,0.8457
4706.00,0.8595
4705.00,0.8741
4704.00,0.8894
4703.00,0.9053
4702.00,0.9217
4701.00,0.9384
4700.00,0.9555
4699.00,0.9729
4698.00,0.9905
4697.00,1.0085
4696.00,1.0266
4695.00,1.0449
4694.00,1.0633
4693.00,1.0816
4692.00,1.0998
4691.00,1.1179
4690.00,1.1358
4689.00,1.1537
4688.00,1.1714
4687.00,1.1889
4686.00,1.2060
4685.00,1.2228
4684.00,1.2392
4683.00,1.2553
4682.00,1.2712
4681.00,1.2868
4680.00,1.3020
4679.00,1.3167
4678.00,1.3309
4677.00,1.3444
4676.00,1.3575
4675.00,1.3702
4674.00,1.3825
4673.00,1.3945
4672.00,1.4059
4671.00,1.4168
4670.00,1.4273
4669.00,1.4374
4668.00,1.4471
4667.00,1.4563
4666.00,1.4650
4665.00,1.4733
4664.00,1.4813
4663.00,1.4887
4662.00,1.4956
4661.00,1.5018
4660.00,1.5073
4659.00,1.5122
4658.00,1.5166
4657.00,1.5206
4656.00,1.5241
4655.00,1.5272
4654.00,1.5297
4653.00,1.5317
4652.00,1.5333
4651.00,1.5342
4650.00,1.5347
4649.00,1.5346
4648.00,1.5340
4647.00,1.5328
4646.00,1.5312
4645.00,1.5292
4644.00,1.5267
4643.00,1.5239
4642.00,1.5205
4641.00,1.5166
4640.00,1.5121
4639.00,1.5072
4638.00,1.5018
4637.00,1.4958
4636.00,1.4892
4635.00,1.4819
4634.00,1.4738
4633.00,1.4651
4632.00,1.4559
4631.00,1.4464
4630.00,1.4366
4629.00,1.4263
4628.00,1.4154
4627.00,1.4038
4626.00,1.3913
4625.00,1.3781
4624.00,1.3642
4623.00,1.3497
4622.00,1.3346
4621.00,1.3189
4620.00,1.3027
4619.00,1.2860
4618.00,1.2688
4617.00,1.2511
4616.00,1.2330
4615.00,1.2143
4614.00,1.1949
4613.00,1.1751
4612.00,1.1547
4611.00,1.1340
4610.00,1.1130
4609.00,1.0919
4608.00,1.0706
4607.00,1.0493
4606.00,1.0280
4605.00,1.0069
4604.00,0.9861
4603.00,0.9657
4602.00,0.9459
4601.00,0.9267
4600.00,0.9082
4599.00,0.8905
4598.00,0.8738
4597.00,0.8581
4596.00,0.8436
4595.00,0.8302
4594.00,0.8181
4593.00,0.8074
4592.00,0.7982
4591.00,0.7906
4590.00,0.7847
4589.00,0.7804
4588.00,0.7778
4587.00,0.7769
4586.00,0.7775
4585.00,0.7799
4584.00,0.7839
4583.00,0.7895
4582.00,0.7967
4581.00,0.8052
4580.00,0.8151
4579.00,0.8261
4578.00,0.8383
4577.00,0.8516
4576.00,0.8657
4575.00,0.8807
4574.00,0.8964
4573.00,0.9127
4572.00,0.9295
4571.00,0.9468
4570.00,0.9646
4569.00,0.9827
4568.00,1.0011
4567.00,1.0196
4566.00,1.0382
4565.00,1.0568
4564.00,1.0755
4563.00,1.0943
4562.00,1.1132
4561.00,1.1321
4560.00,1.1507
4559.00,1.1692
4558.00,1.1872
4557.00,1.2050
4556.00,1.2226
4555.00,1.2401
4554.00,1.2574
4553.00,1.2745
4552.00,1.2913
4551.00,1.3076
4550.00,1.3234
4549.00,1.3387
4548.00,1.3535
4547.00,1.3678
4546.00,1.3819
4545.00,1.3956
4544.00,1.4090
4543.00,1.4220
4542.00,1.4345
4541.00,1.4464
4540.00,1.4576
4539.00,1.4681
4538.00,1.4781
4537.00,1.4876
4536.00,1.4967
4535.00,1.5053
4534.00,1.5136
4533.00,1.5212
4532.00,1.5283
4531.00,1.5346
4530.00,1.5403
4529.00,1.5452
4528.00,1.5495
4527.00,1.5534
4526.00,1.5568
4525.00,1.5599
4524.00,1.5625
4523.00,1.5647
4522.00,1.5663
4521.00,1.5675
4520.00,1.5680
4519.00,1.5679
4518.00,1.5672
4517.00,1.5660
4516.00,1.5644
4515.00,1.5623
4514.00,1.5597
4513.00,1.5566
4512.00,1.5529
4511.00,1.5485
4510.00,1.5434
4509.00,1.5376
4508.00,1.5315
4507.00,1.5252
4506.00,1.5187
4505.00,1.5117
4504.00,1.5039
4503.00,1.4953
4502.00,1.4860
4501.00,1.4760
4500.00,1.4653
4499.00,1.4541
4498.00,1.4423
4497.00,1.4300
4496.00,1.4172
4495.00,1.4038
4494.00,1.3897
4493.00,1.3747
4492.00,1.3590
4491.00,1.3427
4490.00,1.3258
4489.00,1.3083
4488.00,1.2900
4487.00,1.2711
4486.00,1.2517
4485.00,1.2317
4484.00,1.2112
4483.00,1.1902
4482.00,1.1687
4481.00,1.1467
4480.00,1.1244
4479.00,1.1019
4478.00,1.0792
4477.00,1.0566
4476.00,1.0340
4475.00,1.0118
4474.00,0.9898
4473.00,0.9684
4472.00,0.9474
4471.00,0.9272
4470.00,0.9077
4469.00,0.8892
4468.00,0.8719
4467.00,0.8557
4466.00,0.8408
4465.00,0.8273
4464.00,0.8153
4463.00,0.8049
4462.00,0.7962
4461.00,0.7892
4460.00,0.7839
4459.00,0.7805
4458.00,0.7790
4457.00,0.7793
4456.00,0.7814
4455.00,0.7852
4454.00,0.7908
4453.00,0.7981
4452.00,0.8068
4451.00,0.8170
4450.00,0.8285
4449.00,0.8413
4448.00,0.8552
4447.00,0.8702
4446.00,0.8860
4445.00,0.9027
4444.00,0.9201
4443.00,0.9381
4442.00,0.9566
4441.00,0.9755
4440.00,0.9948
4439.00,1.0143
4438.00,1.0340
4437.00,1.0539
4436.00,1.0739
4435.00,1.0941
4434.00,1.1143
4433.00,1.1346
4432.00,1.1546
4431.00,1.1744
4430.00,1.1940
4429.00,1.2132
4428.00,1.2323
4427.00,1.2511
4426.00,1.2696
4425.00,1.2878
4424.00,1.3057
4423.00,1.3231
4422.00,1.3402
4421.00,1.3570
4420.00,1.3734
4419.00,1.3895
4418.00,1.4049
4417.00,1.4197
4416.00,1.4340
4415.00,1.4477
4414.00,1.4612
4413.00,1.4742
4412.00,1.4867
4411.00,1.4984
4410.00,1.5094
4409.00,1.5199
4408.00,1.5300
4407.00,1.5398
4406.00,1.5491
4405.00,1.5578
4404.00,1.5657
4403.00,1.5730
4402.00,1.5796
4401.00,1.5856
4400.00,1.5911
4399.00,1.5960
4398.00,1.6005
4397.00,1.6044
4396.00,1.6078
4395.00,1.6108
4394.00,1.6132
4393.00,1.6150
4392.00,1.6162
4391.00,1.6170
4390.00,1.6176
4389.00,1.6180
4388.00,1.6181
4387.00,1.6176
4386.00,1.6163
4385.00,1.6141
4384.00,1.6111
4383.00,1.6076
4382.00,1.6038
4381.00,1.5997
4380.00,1.5953
4379.00,1.5907
4378.00,1.5856
4377.00,1.5799
4376.00,1.5737
4375.00,1.5669
4374.00,1.5597
4373.00,1.5521
4372.00,1.5440
4371.00,1.5352
4370.00,1.5259
4369.00,1.5159
4368.00,1.5053
4367.00,1.4944
4366.00,1.4829
4365.00,1.4709
4364.00,1.4583
4363.00,1.4450
4362.00,1.4310
4361.00,1.4164
4360.00,1.4012
4359.00,1.3854
4358.00,1.3688
4357.00,1.3516
4356.00,1.3338
4355.00,1.3154
4354.00,1.2964
4353.00,1.2769
4352.00,1.2567
4351.00,1.2362
4350.00,1.2154
4349.00,1.1944
4348.00,1.1732
4347.00,1.1517
4346.00,1.1301
4345.00,1.1083
4344.00,1.0866
4343.00,1.0649
4342.00,1.0435
4341.00,1.0225
4340.00,1.0019
4339.00,0.9820
4338.00,0.9628
4337.00,0.9444
4336.00,0.9272
4335.00,0.9112
4334.00,0.8965
4333.00,0.8834
4332.00,0.8719
4331.00,0.8622
4330.00,0.8542
4329.00,0.8482
4328.00,0.8441
4327.00,0.8420
4326.00,0.8418
4325.00,0.8436
4324.00,0.8473
4323.00,0.8529
4322.00,0.8602
4321.00,0.8691
4320.00,0.8796
4319.00,0.8913
4318.00,0.9043
4317.00,0.9183
4316.00,0.9334
4315.00,0.9493
4314.00,0.9660
4313.00,0.9834
4312.00,1.0012
4311.00,1.0196
4310.00,1.0383
4309.00,1.0573
4308.00,1.0766
4307.00,1.0961
4306.00,1.1157
4305.00,1.1354
4304.00,1.1550
4303.00,1.1746
4302.00,1.1941
4301.00,1.2136
4300.00,1.2332
4299.00,1.2526
4298.00,1.2719
4297.00,1.2910
4296.00,1.3096
4295.00,1.3280
4294.00,1.3460
4293.00,1.3638
4292.00,1.3812
4291.00,1.3981
4290.00,1.4143
4289.00,1.4299
4288.00,1.4450
4287.00,1.4598
4286.00,1.4743
4285.00,1.4883
4284.00,1.5019
4283.00,1.5148
4282.00,1.5272
4281.00,1.5390
4280.00,1.5502
4279.00,1.5609
4278.00,1.5710
4277.00,1.5804
4276.00,1.5893
4275.00,1.5976
4274.00,1.6054
4273.00,1.6127
4272.00,1.6194
4271.00,1.6255
4270.00,1.6310
4269.00,1.6361
4268.00,1.6406
4267.00,1.6447
4266.00,1.6483
4265.00,1.6515
4264.00,1.6542
4263.00,1.6566
4262.00,1.6584
4261.00,1.6596
4260.00,1.6602
4259.00,1.6602
4258.00,1.6598
4257.00,1.6590
4256.00,1.6576
4255.00,1.6558
4254.00,1.6535
4253.00,1.6508
4252.00,1.6475
4251.00,1.6436
4250.00,1.6390
4249.00,1.6339
4248.00,1.6283
4247.00,1.6222
4246.00,1.6155
4245.00,1.6082
4244.00,1.6005
4243.00,1.5922
4242.00,1.5833
4241.00,1.5738
4240.00,1.5636
4239.00,1.5529
4238.00,1.5416
4237.00,1.5299
4236.00,1.5175
4235.00,1.5046
4234.00,1.4909
4233.00,1.4765
4232.00,1.4613
4231.00,1.4453
4230.00,1.4286
4229.00,1.4114
4228.00,1.3937
4227.00,1.3756
4226.00,1.3569
4225.00,1.3375
4224.00,1.3175
4223.00,1.2970
4222.00,1.2761
4221.00,1.2547
4220.00,1.2330
4219.00,1.2110
4218.00,1.1887
4217.00,1.1662
4216.00,1.1437
4215.00,1.1210
4214.00,1.0983
4213.00,1.0758
4212.00,1.0535
4211.00,1.0317
4210.00,1.0106
4209.00,0.9902
4208.00,0.9707
4207.00,0.9522
4206.00,0.9348
4205.00,0.9186
4204.00,0.9038
4203.00,0.8906
4202.00,0.8790
4201.00,0.8692
4200.00,0.8611
4199.00,0.8550
4198.00,0.8508
4197.00,0.8486
4196.00,0.8485
4195.00,0.8504
4194.00,0.8542
4193.00,0.8601
4192.00,0.8677
4191.00,0.8771
4190.00,0.8880
4189.00,0.9003
4188.00,0.9138
4187.00,0.9285
4186.00,0.9443
4185.00,0.9609
4184.00,0.9784
4183.00,0.9966
4182.00,1.0153
4181.00,1.0345
4180.00,1.0540
4179.00,1.0739
4178.00,1.0940
4177.00,1.1145
4176.00,1.1351
4175.00,1.1559
4174.00,1.1765
4173.00,1.1971
4172.00,1.2174
4171.00,1.2377
4170.00,1.2579
4169.00,1.2781
4168.00,1.2980
4167.00,1.3176
4166.00,1.3368
4165.00,1.3558
4164.00,1.3743
4163.00,1.3926
4162.00,1.4105
4161.00,1.4281
4160.00,1.4454
4159.00,1.4622
4158.00,1.4786
4157.00,1.4943
4156.00,1.5094
4155.00,1.5239
4154.00,1.5378
4153.00,1.5512
4152.00,1.5642
4151.00,1.5768
4150.00,1.5889
4149.00,1.6003
4148.00,1.6111
4147.00,1.6213
4146.00,1.6307
4145.00,1.6395
4144.00,1.6477
4143.00,1.6554
4142.00,1.6626
4141.00,1.6695
4140.00,1.6759
4139.00,1.6819
4138.00,1.6872
4137.00,1.6918
4136.00,1.6956
4135.00,1.6990
4134.00,1.7019
4133.00,1.7043
4132.00,1.7063
4131.00,1.7077
4130.00,1.7086
4129.00,1.7090
4128.00,1.7087
4127.00,1.7081
4126.00,1.7071
4125.00,1.7058
4124.00,1.7040
4123.00,1.7015
4122.00,1.6982
4121.00,1.6943
4120.00,1.6898
4119.00,1.6850
4118.00,1.6798
4117.00,1.6741
4116.00,1.6678
4115.00,1.6610
4114.00,1.6535
4113.00,1.6453
4112.00,1.6365
4111.00,1.6272
4110.00,1.6173
4109.00,1.6069
4108.00,1.5959
4107.00,1.5842
4106.00,1.5718
4105.00,1.5589
4104.00,1.5452
4103.00,1.5309
4102.00,1.5159
4101.00,1.5002
4100.00,1.4837
4099.00,1.4665
4098.00,1.4485
4097.00,1.4296
4096.00,1.4101
4095.00,1.3899
4094.00,1.3691
4093.00,1.3474
4092.00,1.3251
4091.00,1.3020
4090.00,1.2785
4089.00,1.2546
4088.00,1.2302
4087.00,1.2054
4086.00,1.1804
4085.00,1.1554
4084.00,1.1306
4083.00,1.1061
4082.00,1.0819
4081.00,1.0580
4080.00,1.0347
4079.00,1.0120
4078.00,0.9902
4077.00,0.9695
4076.00,0.9500
4075.00,0.9320
4074.00,0.9155
4073.00,0.9007
4072.00,0.8877
4071.00,0.8765
4070.00,0.8672
4069.00,0.8601
4068.00,0.8551
4067.00,0.8525
4066.00,0.8521
4065.00,0.8540
4064.00,0.8581
4063.00,0.8643
4062.00,0.8725
4061.00,0.8827
4060.00,0.8947
4059.00,0.9084
4058.00,0.9235
4057.00,0.9398
4056.00,0.9572
4055.00,0.9756
4054.00,0.9949
4053.00,1.0149
4052.00,1.0355
4051.00,1.0567
4050.00,1.0783
4049.00,1.1001
4048.00,1.1220
4047.00,1.1439
4046.00,1.1659
4045.00,1.1879
4044.00,1.2101
4043.00,1.2323
4042.00,1.2543
4041.00,1.2761
4040.00,1.2975
4039.00,1.3187
4038.00,1.3395
4037.00,1.3599
4036.00,1.3799
4035.00,1.3995
4034.00,1.4187
4033.00,1.4376
4032.00,1.4563
4031.00,1.4747
4030.00,1.4928
4029.00,1.5104
4028.00,1.5272
4027.00,1.5433
4026.00,1.5588
4025.00,1.5740
4024.00,1.5889
4023.00,1.6032
4022.00,1.6168
4021.00,1.6296
4020.00,1.6417
4019.00,1.6530
4018.00,1.6635
4017.00,1.6731
4016.00,1.6820
4015.00,1.6904
4014.00,1.6984
4013.00,1.7060
4012.00,1.7133
4011.00,1.7202
4010.00,1.7264
4009.00,1.7318
4008.00,1.7362
4007.00,1.7398
4006.00,1.7430
4005.00,1.7458
4004.00,1.7482
4003.00,1.7502
4002.00,1.7518
4001.00,1.7530
4000.00,1.7537
3999.00,1.7537
3998.00,1.7530
3997.00,1.7517
3996.00,1.7500
3995.00,1.7478
3994.00,1.7450
3993.00,1.7419
3992.00,1.7384
3991.00,1.7347
3990.00,1.7305
3989.00,1.7253
3988.00,1.7191
3987.00,1.7122
3986.00,1.7047
3985.00,1.6967
3984.00,1.6882
3983.00,1.6790
3982.00,1.6691
3981.00,1.6587
3980.00,1.6479
3979.00,1.6367
3978.00,1.6248
3977.00,1.6124
3976.00,1.5993
3975.00,1.5855
3974.00,1.5710
3973.00,1.5558
3972.00,1.5400
3971.00,1.5235
3970.00,1.5064
3969.00,1.4886
3968.00,1.4701
3967.00,1.4511
3966.00,1.4314
3965.00,1.4111
3964.00,1.3900
3963.00,1.3682
3962.00,1.3458
3961.00,1.3227
3960.00,1.2992
3959.00,1.2751
3958.00,1.2507
3957.00,1.2260
3956.00,1.2013
3955.00,1.1765
3954.00,1.1517
3953.00,1.1271
3952.00,1.1028
3951.00,1.0789
3950.00,1.0556
3949.00,1.0329
3948.00,1.0110
3947.00,0.9902
3946.00,0.9707
3945.00,0.9527
3944.00,0.9360
3943.00,0.9209
3942.00,0.9076
3941.00,0.8962
3940.00,0.8870
3939.00,0.8800
3938.00,0.8753
3937.00,0.8730
3936.00,0.8730
3935.00,0.8753
3934.00,0.8799
3933.00,0.8867
3932.00,0.8956
3931.00,0.9064
3930.00,0.9189
3929.00,0.9329
3928.00,0.9481
3927.00,0.9647
3926.00,0.9825
3925.00,1.0016
3924.00,1.0218
3923.00,1.0428
3922.00,1.0642
3921.00,1.0859
3920.00,1.1079
3919.00,1.1304
3918.00,1.1535
3917.00,1.1772
3916.00,1.2014
3915.00,1.2256
3914.00,1.2493
3913.00,1.2724
3912.00,1.2950
3911.00,1.3176
3910.00,1.3401
3909.00,1.3622
3908.00,1.3837
3907.00,1.4045
3906.00,1.4249
3905.00,1.4451
3904.00,1.4658
3903.00,1.4867
3902.00,1.5076
3901.00,1.5282
3900.00,1.5483
3899.00,1.5679
3898.00,1.5865
3897.00,1.6038
3896.00,1.6195
3895.00,1.6339
3894.00,1.6473
3893.00,1.6603
3892.00,1.6733
3891.00,1.6864
3890.00,1.6994
3889.00,1.7117
3888.00,1.7226
3887.00,1.7322
3886.00,1.7412
3885.00,1.7502
3884.00,1.7590
3883.00,1.7671
3882.00,1.7742
3881.00,1.7801
3880.00,1.7853
3879.00,1.7900
3878.00,1.7942
3877.00,1.7980
3876.00,1.8012
3875.00,1.8040
3874.00,1.8063
3873.00,1.8080
3872.00,1.8091
3871.00,1.8099
3870.00,1.8105
3869.00,1.8111
3868.00,1.8110
3867.00,1.8098
3866.00,1.8078
3865.00,1.8052
3864.00,1.8023
3863.00,1.7987
3862.00,1.7943
3861.00,1.7890
3860.00,1.7829
3859.00,1.7765
3858.00,1.7702
3857.00,1.7641
3856.00,1.7582
3855.00,1.7516
3854.00,1.7436
3853.00,1.7341
3852.00,1.7235
3851.00,1.7123
3850.00,1.7003
3849.00,1.6875
3848.00,1.6742
3847.00,1.6604
3846.00,1.6458
3845.00,1.6306
3844.00,1.6146
3843.00,1.5978
3842.00,1.5805
3841.00,1.5626
3840.00,1.5439
3839.00,1.5235
3838.00,1.5013
3837.00,1.4775
3836.00,1.4532
3835.00,1.4286
3834.00,1.4035
3833.00,1.3771
3832.00,1.3493
3831.00,1.3207
3830.00,1.2919
3829.00,1.2630
3828.00,1.2340
3827.00,1.2046
3826.00,1.1752
3825.00,1.1467
3824.00,1.1192
3823.00,1.0918
3822.00,1.0637
3821.00,1.0348
3820.00,1.0071
3819.00,0.9821
3818.00,0.9598
3817.00,0.9392
3816.00,0.9199
3815.00,0.9024
3814.00,0.8877
3813.00,0.8760
3812.00,0.8670
3811.00,0.8607
3810.00,0.8572
3809.00,0.8568
3808.00,0.8596
3807.00,0.8654
3806.00,0.8735
3805.00,0.8831
3804.00,0.8943
3803.00,0.9080
3802.00,0.9251
3801.00,0.9455
3800.00,0.9674
3799.00,0.9891
3798.00,1.0103
3797.00,1.0321
3796.00,1.0553
3795.00,1.0797
3794.00,1.1043
3793.00,1.1289
3792.00,1.1538
3791.00,1.1791
3790.00,1.2047
3789.00,1.2303
3788.00,1.2558
3787.00,1.2809
3786.00,1.3059
3785.00,1.3309
3784.00,1.3558
3783.00,1.3804
3782.00,1.4041
3781.00,1.4273
3780.00,1.4503
3779.00,1.4735
3778.00,1.4968
3777.00,1.5196
3776.00,1.5414
3775.00,1.5620
3774.00,1.5816
3773.00,1.6001
3772.00,1.6179
3771.00,1.6353
3770.00,1.6527
3769.00,1.6700
3768.00,1.6866
3767.00,1.7022
3766.00,1.7169
3765.00,1.7308
3764.00,1.7440
3763.00,1.7560
3762.00,1.7669
3761.00,1.7770
3760.00,1.7866
3759.00,1.7956
3758.00,1.8040
3757.00,1.8119
3756.00,1.8196
3755.00,1.8268
3754.00,1.8335
3753.00,1.8398
3752.00,1.8459
3751.00,1.8523
3750.00,1.8595
3749.00,1.8677
3748.00,1.8761
3747.00,1.8837
3746.00,1.8904
3745.00,1.8968
3744.00,1.9040
3743.00,1.9126
3742.00,1.9219
3741.00,1.9307
3740.00,1.9382
3739.00,1.9443
3738.00,1.9486
3737.00,1.9514
3736.00,1.9525
3735.00,1.9520
3734.00,1.9496
3733.00,1.9449
3732.00,1.9376
3731.00,1.9276
3730.00,1.9154
3729.00,1.9010
3728.00,1.8843
3727.00,1.8655
3726.00,1.8446
3725.00,1.8227
3724.00,1.8019
3723.00,1.7833
3722.00,1.7672
3721.00,1.7523
3720.00,1.7377
3719.00,1.7239
3718.00,1.7126
3717.00,1.7035
3716.00,1.6952
3715.00,1.6856
3714.00,1.6735
3713.00,1.6582
3712.00,1.6393
3711.00,1.6175
3710.00,1.5932
3709.00,1.5671
3708.00,1.5391
3707.00,1.5097
3706.00,1.4792
3705.00,1.4478
3704.00,1.4152
3703.00,1.3812
3702.00,1.3458
3701.00,1.3096
3700.00,1.2737
3699.00,1.2389
3698.00,1.2056
3697.00,1.1738
3696.00,1.1439
3695.00,1.1165
3694.00,1.0918
3693.00,1.0699
3692.00,1.0509
3691.00,1.0349
3690.00,1.0216
3689.00,1.0108
3688.00,1.0026
3687.00,0.9974
3686.00,0.9952
3685.00,0.9959
3684.00,0.9994
3683.00,1.0057
3682.00,1.0146
3681.00,1.0260
3680.00,1.0399
3679.00,1.0555
3678.00,1.0728
3677.00,1.0923
3676.00,1.1149
3675.00,1.1406
3674.00,1.1670
3673.00,1.1915
3672.00,1.2144
3671.00,1.2381
3670.00,1.2649
3669.00,1.2942
3668.00,1.3237
3667.00,1.3513
3666.00,1.3768
3665.00,1.4010
3664.00,1.4253
3663.00,1.4500
3662.00,1.4751
3661.00,1.5000
3660.00,1.5242
3659.00,1.5475
3658.00,1.5701
3657.00,1.5927
3656.00,1.6160
3655.00,1.6396
3654.00,1.6620
3653.00,1.6823
3652.00,1.7010
3651.00,1.7195
3650.00,1.7385
3649.00,1.7587
3648.00,1.7798
3647.00,1.8010
3646.00,1.8213
3645.00,1.8399
3644.00,1.8572
3643.00,1.8740
3642.00,1.8910
3641.00,1.9082
3640.00,1.9256
3639.00,1.9428
3638.00,1.9596
3637.00,1.9754
3636.00,1.9900
3635.00,2.0031
3634.00,2.0146
3633.00,2.0246
3632.00,2.0332
3631.00,2.0401
3630.00,2.0453
3629.00,2.0493
3628.00,2.0526
3627.00,2.0551
3626.00,2.0555
3625.00,2.0533
3624.00,2.0487
3623.00,2.0429
3622.00,2.0373
3621.00,2.0338
3620.00,2.0326
3619.00,2.0329
3618.00,2.0337
3617.00,2.0352
3616.00,2.0383
3615.00,2.0426
3614.00,2.0471
3613.00,2.0508
3612.00,2.0536
3611.00,2.0558
3610.00,2.0570
3609.00,2.0569
3608.00,2.0556
3607.00,2.0531
3606.00,2.0492
3605.00,2.0438
3604.00,2.0371
3603.00,2.0292
3602.00,2.0205
3601.00,2.0116
3600.00,2.0026
3599.00,1.9934
3598.00,1.9836
3597.00,1.9732
3596.00,1.9623
3595.00,1.9511
3594.00,1.9394
3593.00,1.9275
3592.00,1.9153
3591.00,1.9030
3590.00,1.8905
3589.00,1.8776
3588.00,1.8644
3587.00,1.8508
3586.00,1.8372
3585.00,1.8237
3584.00,1.8103
3583.00,1.7967
3582.00,1.7830
3581.00,1.7694
3580.00,1.7561
3579.00,1.7428
3578.00,1.7294
3577.00,1.7159
3576.00,1.7025
3575.00,1.6892
3574.00,1.6759
3573.00,1.6626
3572.00,1.6498
3571.00,1.6375
3570.00,1.6256
3569.00,1.6139
3568.00,1.6023
3567.00,1.5909
3566.00,1.5801
3565.00,1.5701
3564.00,1.5610
3563.00,1.5529
3562.00,1.5460
3561.00,1.5401
3560.00,1.5354
3559.00,1.5316
3558.00,1.5287
3557.00,1.5266
3556.00,1.5253
3555.00,1.5250
3554.00,1.5257
3553.00,1.5275
3552.00,1.5304
3551.00,1.5344
3550.00,1.5392
3549.00,1.5447
3548.00,1.5511
3547.00,1.5586
3546.00,1.5670
3545.00,1.5761
3544.00,1.5858
3543.00,1.5958
3542.00,1.6062
3541.00,1.6168
3540.00,1.6279
3539.00,1.6394
3538.00,1.6515
3537.00,1.6641
3536.00,1.6770
3535.00,1.6901
3534.00,1.7031
3533.00,1.7160
3532.00,1.7287
3531.00,1.7414
3530.00,1.7543
3529.00,1.7674
3528.00,1.7810
3527.00,1.7947
3526.00,1.8081
3525.00,1.8210
3524.00,1.8334
3523.00,1.8455
3522.00,1.8574
3521.00,1.8692
3520.00,1.8811
3519.00,1.8928
3518.00,1.9041
3517.00,1.9151
3516.00,1.9260
3515.00,1.9368
3514.00,1.9472
3513.00,1.9571
3512.00,1.9669
3511.00,1.9768
3510.00,1.9867
3509.00,1.9964
3508.00,2.0058
3507.00,2.0145
3506.00,2.0223
3505.00,2.0294
3504.00,2.0364
3503.00,2.0433
3502.00,2.0498
3501.00,2.0557
3500.00,2.0614
3499.00,2.0668
3498.00,2.0719
3497.00,2.0767
3496.00,2.0812
3495.00,2.0858
3494.00,2.0906
3493.00,2.0955
3492.00,2.1003
3491.00,2.1047
3490.00,2.1081
3489.00,2.1107
3488.00,2.1129
3487.00,2.1149
3486.00,2.1167
3485.00,2.1181
3484.00,2.1191
3483.00,2.1197
3482.00,2.1201
3481.00,2.1203
3480.00,2.1202
3479.00,2.1201
3478.00,2.1197
3477.00,2.1190
3476.00,2.1176
3475.00,2.1154
3474.00,2.1127
3473.00,2.1097
3472.00,2.1065
3471.00,2.1030
3470.00,2.0987
3469.00,2.0940
3468.00,2.0891
3467.00,2.0841
3466.00,2.0787
3465.00,2.0726
3464.00,2.0658
3463.00,2.0586
3462.00,2.0512
3461.00,2.0440
3460.00,2.0368
3459.00,2.0291
3458.00,2.0207
3457.00,2.0116
3456.00,2.0022
3455.00,1.9925
3454.00,1.9822
3453.00,1.9712
3452.00,1.9596
3451.00,1.9476
3450.00,1.9351
3449.00,1.9224
3448.00,1.9096
3447.00,1.8967
3446.00,1.8834
3445.00,1.8698
3444.00,1.8558
3443.00,1.8416
3442.00,1.8270
3441.00,1.8118
3440.00,1.7963
3439.00,1.7806
3438.00,1.7651
3437.00,1.7502
3436.00,1.7359
3435.00,1.7219
3434.00,1.7081
3433.00,1.6946
3432.00,1.6814
3431.00,1.6688
3430.00,1.6569
3429.00,1.6457
3428.00,1.6352
3427.00,1.6257
3426.00,1.6173
3425.00,1.6101
3424.00,1.6042
3423.00,1.5997
3422.00,1.5967
3421.00,1.5949
3420.00,1.5944
3419.00,1.5951
3418.00,1.5969
3417.00,1.5999
3416.00,1.6041
3415.00,1.6093
3414.00,1.6152
3413.00,1.6217
3412.00,1.6285
3411.00,1.6357
3410.00,1.6430
3409.00,1.6504
3408.00,1.6578
3407.00,1.6650
3406.00,1.6718
3405.00,1.6780
3404.00,1.6839
3403.00,1.6894
3402.00,1.6948
3401.00,1.7004
3400.00,1.7060
3399.00,1.7119
3398.00,1.7179
3397.00,1.7243
3396.00,1.7313
3395.00,1.7392
3394.00,1.7477
3393.00,1.7569
3392.00,1.7664
3391.00,1.7765
3390.00,1.7871
3389.00,1.7983
3388.00,1.8098
3387.00,1.8215
3386.00,1.8334
3385.00,1.8455
3384.00,1.8580
3383.00,1.8706
3382.00,1.8834
3381.00,1.8963
3380.00,1.9092
3379.00,1.9218
3378.00,1.9338
3377.00,1.9452
3376.00,1.9562
3375.00,1.9671
3374.00,1.9782
3373.00,1.9893
3372.00,2.0002
3371.00,2.0106
3370.00,2.0205
3369.00,2.0301
3368.00,2.0393
3367.00,2.0480
3366.00,2.0559
3365.00,2.0634
3364.00,2.0707
3363.00,2.0776
3362.00,2.0838
3361.00,2.0892
3360.00,2.0941
3359.00,2.0988
3358.00,2.1034
3357.00,2.1080
3356.00,2.1123
3355.00,2.1160
3354.00,2.1189
3353.00,2.1208
3352.00,2.1223
3351.00,2.1236
3350.00,2.1245
3349.00,2.1249
3348.00,2.1247
3347.00,2.1241
3346.00,2.1233
3345.00,2.1224
3344.00,2.1211
3343.00,2.1189
3342.00,2.1156
3341.00,2.1116
3340.00,2.1076
3339.00,2.1037
3338.00,2.0995
3337.00,2.0946
3336.00,2.0887
3335.00,2.0819
3334.00,2.0742
3333.00,2.0663
3332.00,2.0584
3331.00,2.0504
3330.00,2.0417
3329.00,2.0324
3328.00,2.0224
3327.00,2.0121
3326.00,2.0014
3325.00,1.9901
3324.00,1.9780
3323.00,1.9650
3322.00,1.9512
3321.00,1.9372
3320.00,1.9232
3319.00,1.9089
3318.00,1.8936
3317.00,1.8772
3316.00,1.8601
3315.00,1.8428
3314.00,1.8254
3313.00,1.8079
3312.00,1.7899
3311.00,1.7714
3310.00,1.7524
3309.00,1.7330
3308.00,1.7135
3307.00,1.6940
3306.00,1.6745
3305.00,1.6553
3304.00,1.6363
3303.00,1.6177
3302.00,1.5996
3301.00,1.5820
3300.00,1.5651
3299.00,1.5487
3298.00,1.5331
3297.00,1.5187
3296.00,1.5055
3295.00,1.4939
3294.00,1.4839
3293.00,1.4753
3292.00,1.4682
3291.00,1.4625
3290.00,1.4585
3289.00,1.4563
3288.00,1.4559
3287.00,1.4572
3286.00,1.4600
3285.00,1.4645
3284.00,1.4706
3283.00,1.4781
3282.00,1.4870
3281.00,1.4973
3280.00,1.5088
3279.00,1.5217
3278.00,1.5356
3277.00,1.5503
3276.00,1.5658
3275.00,1.5820
3274.00,1.5987
3273.00,1.6159
3272.00,1.6334
3271.00,1.6512
3270.00,1.6692
3269.00,1.6875
3268.00,1.7060
3267.00,1.7245
3266.00,1.7430
3265.00,1.7613
3264.00,1.7794
3263.00,1.7973
3262.00,1.8153
3261.00,1.8335
3260.00,1.8516
3259.00,1.8694
3258.00,1.8865
3257.00,1.9029
3256.00,1.9188
3255.00,1.9344
3254.00,1.9497
3253.00,1.9645
3252.00,1.9787
3251.00,1.9923
3250.00,2.0056
3249.00,2.0185
3248.00,2.0309
3247.00,2.0429
3246.00,2.0545
3245.00,2.0659
3244.00,2.0770
3243.00,2.0871
3242.00,2.0960
3241.00,2.1043
3240.00,2.1125
3239.00,2.1208
3238.00,2.1288
3237.00,2.1360
3236.00,2.1422
3235.00,2.1477
3234.00,2.1527
3233.00,2.1576
3232.00,2.1623
3231.00,2.1666
3230.00,2.1704
3229.00,2.1739
3228.00,2.1773
3227.00,2.1804
3226.00,2.1831
3225.00,2.1852
3224.00,2.1867
3223.00,2.1874
3222.00,2.1870
3221.00,2.1861
3220.00,2.1854
3219.00,2.1852
3218.00,2.1849
3217.00,2.1836
3216.00,2.1811
3215.00,2.1777
3214.00,2.1742
3213.00,2.1711
3212.00,2.1680
3211.00,2.1640
3210.00,2.1587
3209.00,2.1525
3208.00,2.1461
3207.00,2.1399
3206.00,2.1334
3205.00,2.1262
3204.00,2.1183
3203.00,2.1099
3202.00,2.1008
3201.00,2.0909
3200.00,2.0801
3199.00,2.0686
3198.00,2.0565
3197.00,2.0444
3196.00,2.0324
3195.00,2.0204
3194.00,2.0081
3193.00,1.9951
3192.00,1.9813
3191.00,1.9667
3190.00,1.9514
3189.00,1.9356
3188.00,1.9194
3187.00,1.9028
3186.00,1.8859
3185.00,1.8684
3184.00,1.8505
3183.00,1.8322
3182.00,1.8138
3181.00,1.7956
3180.00,1.7776
3179.00,1.7598
3178.00,1.7421
3177.00,1.7243
3176.00,1.7067
3175.00,1.6896
3174.00,1.6730
3173.00,1.6571
3172.00,1.6419
3171.00,1.6276
3170.00,1.6143
3169.00,1.6021
3168.00,1.5912
3167.00,1.5818
3166.00,1.5736
3165.00,1.5667
3164.00,1.5610
3163.00,1.5568
3162.00,1.5542
3161.00,1.5535
3160.00,1.5544
3159.00,1.5569
3158.00,1.5609
3157.00,1.5662
3156.00,1.5729
3155.00,1.5812
3154.00,1.5910
3153.00,1.6020
3152.00,1.6141
3151.00,1.6271
3150.00,1.6410
3149.00,1.6557
3148.00,1.6713
3147.00,1.6874
3146.00,1.7041
3145.00,1.7210
3144.00,1.7381
3143.00,1.7556
3142.00,1.7736
3141.00,1.7920
3140.00,1.8106
3139.00,1.8291
3138.00,1.8473
3137.00,1.8654
3136.00,1.8832
3135.00,1.9009
3134.00,1.9184
3133.00,1.9359
3132.00,1.9530
3131.00,1.9697
3130.00,1.9857
3129.00,2.0011
3128.00,2.0160
3127.00,2.0307
3126.00,2.0452
3125.00,2.0594
3124.00,2.0729
3123.00,2.0857
3122.00,2.0981
3121.00,2.1104
3120.00,2.1227
3119.00,2.1346
3118.00,2.1456
3117.00,2.1553
3116.00,2.1640
3115.00,2.1720
3114.00,2.1796
3113.00,2.1871
3112.00,2.1944
3111.00,2.2015
3110.00,2.2081
3109.00,2.2140
3108.00,2.2191
3107.00,2.2235
3106.00,2.2272
3105.00,2.2307
3104.00,2.2339
3103.00,2.2371
3102.00,2.2403
3101.00,2.2432
3100.00,2.2453
3099.00,2.2462
3098.00,2.2461
3097.00,2.2452
3096.00,2.2440
3095.00,2.2424
3094.00,2.2402
3093.00,2.2374
3092.00,2.2343
3091.00,2.2311
3090.00,2.2280
3089.00,2.2244
3088.00,2.2199
3087.00,2.2139
3086.00,2.2067
3085.00,2.1988
3084.00,2.1904
3083.00,2.1816
3082.00,2.1721
3081.00,2.1621
3080.00,2.1517
3079.00,2.1409
3078.00,2.1296
3077.00,2.1172
3076.00,2.1038
3075.00,2.0892
3074.00,2.0737
3073.00,2.0579
3072.00,2.0420
3071.00,2.0261
3070.00,2.0097
3069.00,1.9925
3068.00,1.9745
3067.00,1.9557
3066.00,1.9365
3065.00,1.9169
3064.00,1.8971
3063.00,1.8770
3062.00,1.8568
3061.00,1.8367
3060.00,1.8167
3059.00,1.7969
3058.00,1.7774
3057.00,1.7586
3056.00,1.7405
3055.00,1.7232
3054.00,1.7069
3053.00,1.6917
3052.00,1.6778
3051.00,1.6654
3050.00,1.6545
3049.00,1.6454
3048.00,1.6382
3047.00,1.6331
3046.00,1.6301
3045.00,1.6296
3044.00,1.6314
3043.00,1.6357
3042.00,1.6424
3041.00,1.6516
3040.00,1.6631
3039.00,1.6768
3038.00,1.6924
3037.00,1.7096
3036.00,1.7283
3035.00,1.7484
3034.00,1.7699
3033.00,1.7925
3032.00,1.8158
3031.00,1.8396
3030.00,1.8637
3029.00,1.8879
3028.00,1.9124
3027.00,1.9368
3026.00,1.9609
3025.00,1.9845
3024.00,2.0079
3023.00,2.0310
3022.00,2.0540
3021.00,2.0766
3020.00,2.0986
3019.00,2.1199
3018.00,2.1406
3017.00,2.1603
3016.00,2.1790
3015.00,2.1966
3014.00,2.2135
3013.00,2.2299
3012.00,2.2460
3011.00,2.2614
3010.00,2.2755
3009.00,2.2879
3008.00,2.2987
3007.00,2.3083
3006.00,2.3173
3005.00,2.3260
3004.00,2.3338
3003.00,2.3401
3002.00,2.3447
3001.00,2.3478
3000.00,2.3499
2999.00,2.3510
2998.00,2.3507
2997.00,2.3484
2996.00,2.3447
2995.00,2.3402
2994.00,2.3353
2993.00,2.3298
2992.00,2.3229
2991.00,2.3142
2990.00,2.3045
2989.00,2.2951
2988.00,2.2868
2987.00,2.2803
2986.00,2.2758
2985.00,2.2735
2984.00,2.2745
2983.00,2.2802
2982.00,2.2922
2981.00,2.3111
2980.00,2.3369
2979.00,2.3690
2978.00,2.4074
2977.00,2.4529
2976.00,2.5063
2975.00,2.5670
2974.00,2.6338
2973.00,2.7055
2972.00,2.7819
2971.00,2.8632
2970.00,2.9488
2969.00,3.0365
2968.00,3.1236
2967.00,3.2097
2966.00,3.2986
2965.00,3.3959
2964.00,3.5025
2963.00,3.6109
2962.00,3.7089
2961.00,3.7890
2960.00,3.8503
2959.00,3.8979
2958.00,3.9500
2957.00,4.0249
2956.00,4.1084
2955.00,4.1633
2954.00,4.1793
2953.00,4.1588
2952.00,4.1183
2951.00,4.0810
2950.00,4.0742
2949.00,4.0983
2948.00,4.1210
2947.00,4.1108
2946.00,4.0690
2945.00,4.0399
2944.00,4.0611
2943.00,4.1181
2942.00,4.1388
2941.00,4.0803
2940.00,3.9954
2939.00,3.9403
2938.00,3.9272
2937.00,3.9470
2936.00,3.9886
2935.00,4.0444
2934.00,4.0993
2933.00,4.1531
2932.00,4.2200
2931.00,4.3665
2930.00,4.6062
2929.00,4.4969
2928.00,4.2437
2927.00,4.0787
2926.00,4.0473
2925.00,4.0662
2924.00,4.0673
2923.00,4.0280
2922.00,3.9532
2921.00,3.8869
2920.00,3.8376
2919.00,3.7851
2918.00,3.7211
2917.00,3.6516
2916.00,3.5808
2915.00,3.5115
2914.00,3.4474
2913.00,3.3910
2912.00,3.3420
2911.00,3.2992
2910.00,3.2620
2909.00,3.2297
2908.00,3.2011
2907.00,3.1751
2906.00,3.1512
2905.00,3.1277
2904.00,3.1027
2903.00,3.0760
2902.00,3.0502
2901.00,3.0280
2900.00,3.0087
2899.00,2.9892
2898.00,2.9682
2897.00,2.9475
2896.00,2.9297
2895.00,2.9151
2894.00,2.9019
2893.00,2.8885
2892.00,2.8741
2891.00,2.8590
2890.00,2.8444
2889.00,2.8323
2888.00,2.8243
2887.00,2.8202
2886.00,2.8185
2885.00,2.8179
2884.00,2.8180
2883.00,2.8202
2882.00,2.8265
2881.00,2.8384
2880.00,2.8569
2879.00,2.8825
2878.00,2.9157
2877.00,2.9566
2876.00,3.0034
2875.00,3.0537
2874.00,3.1057
2873.00,3.1612
2872.00,3.2245
2871.00,3.2972
2870.00,3.3760
2869.00,3.4549
2868.00,3.5329
2867.00,3.6131
2866.00,3.6910
2865.00,3.7431
2864.00,3.7491
2863.00,3.7251
2862.00,3.7027
2861.00,3.6930
2860.00,3.6886
2859.00,3.6814
2858.00,3.6619
2857.00,3.6079
2856.00,3.5044
2855.00,3.3718
2854.00,3.2429
2853.00,3.1321
2852.00,3.0369
2851.00,2.9511
2850.00,2.8719
2849.00,2.7987
2848.00,2.7305
2847.00,2.6657
2846.00,2.6039
2845.00,2.5455
2844.00,2.4901
2843.00,2.4367
2842.00,2.3847
2841.00,2.3344
2840.00,2.2863
2839.00,2.2407
2838.00,2.1978
2837.00,2.1579
2836.00,2.1215
2835.00,2.0888
2834.00,2.0603
2833.00,2.0359
2832.00,2.0153
2831.00,1.9982
2830.00,1.9838
2829.00,1.9719
2828.00,1.9618
2827.00,1.9533
2826.00,1.9461
2825.00,1.9402
2824.00,1.9356
2823.00,1.9324
2822.00,1.9308
2821.00,1.9313
2820.00,1.9343
2819.00,1.9399
2818.00,1.9483
2817.00,1.9597
2816.00,1.9742
2815.00,1.9913
2814.00,2.0106
2813.00,2.0314
2812.00,2.0531
2811.00,2.0755
2810.00,2.0981
2809.00,2.1208
2808.00,2.1435
2807.00,2.1658
2806.00,2.1872
2805.00,2.2076
2804.00,2.2271
2803.00,2.2459
2802.00,2.2637
2801.00,2.2802
2800.00,2.2957
2799.00,2.3102
2798.00,2.3238
2797.00,2.3360
2796.00,2.3467
2795.00,2.3557
2794.00,2.3633
2793.00,2.3701
2792.00,2.3764
2791.00,2.3821
2790.00,2.3868
2789.00,2.3906
2788.00,2.3937
2787.00,2.3968
2786.00,2.3998
2785.00,2.4026
2784.00,2.4048
2783.00,2.4061
2782.00,2.4063
2781.00,2.4054
2780.00,2.4032
2779.00,2.3998
2778.00,2.3959
2777.00,2.3921
2776.00,2.3881
2775.00,2.3830
2774.00,2.3760
2773.00,2.3675
2772.00,2.3581
2771.00,2.3480
2770.00,2.3375
2769.00,2.3268
2768.00,2.3160
2767.00,2.3046
2766.00,2.2923
2765.00,2.2790
2764.00,2.2648
2763.00,2.2496
2762.00,2.2333
2761.00,2.2157
2760.00,2.1970
2759.00,2.1769
2758.00,2.1551
2757.00,2.1317
2756.00,2.1071
2755.00,2.0813
2754.00,2.0543
2753.00,2.0259
2752.00,1.9959
2751.00,1.9642
2750.00,1.9309
2749.00,1.8963
2748.00,1.8605
2747.00,1.8238
2746.00,1.7861
2745.00,1.7476
2744.00,1.7087
2743.00,1.6699
2742.00,1.6313
2741.00,1.5936
2740.00,1.5573
2739.00,1.5229
2738.00,1.4909
2737.00,1.4620
2736.00,1.4367
2735.00,1.4154
2734.00,1.3982
2733.00,1.3854
2732.00,1.3769
2731.00,1.3728
2730.00,1.3733
2729.00,1.3782
2728.00,1.3876
2727.00,1.4011
2726.00,1.4186
2725.00,1.4394
2724.00,1.4634
2723.00,1.4898
2722.00,1.5184
2721.00,1.5488
2720.00,1.5806
2719.00,1.6134
2718.00,1.6468
2717.00,1.6807
2716.00,1.7147
2715.00,1.7488
2714.00,1.7826
2713.00,1.8160
2712.00,1.8489
2711.00,1.8813
2710.00,1.9131
2709.00,1.9443
2708.00,1.9749
2707.00,2.0048
2706.00,2.0338
2705.00,2.0618
2704.00,2.0886
2703.00,2.1147
2702.00,2.1401
2701.00,2.1648
2700.00,2.1886
2699.00,2.2110
2698.00,2.2319
2697.00,2.2510
2696.00,2.2689
2695.00,2.2860
2694.00,2.3024
2693.00,2.3184
2692.00,2.3338
2691.00,2.3488
2690.00,2.3632
2689.00,2.3767
2688.00,2.3887
2687.00,2.3989
2686.00,2.4079
2685.00,2.4165
2684.00,2.4250
2683.00,2.4334
2682.00,2.4416
2681.00,2.4500
2680.00,2.4581
2679.00,2.4650
2678.00,2.4701
2677.00,2.4736
2676.00,2.4765
2675.00,2.4790
2674.00,2.4810
2673.00,2.4825
2672.00,2.4840
2671.00,2.4859
2670.00,2.4876
2669.00,2.4888
2668.00,2.4891
2667.00,2.4884
2666.00,2.4866
2665.00,2.4840
2664.00,2.4806
2663.00,2.4763
2662.00,2.4706
2661.00,2.4641
2660.00,2.4579
2659.00,2.4528
2658.00,2.4484
2657.00,2.4436
2656.00,2.4374
2655.00,2.4299
2654.00,2.4215
2653.00,2.4124
2652.00,2.4027
2651.00,2.3924
2650.00,2.3819
2649.00,2.3713
2648.00,2.3605
2647.00,2.3488
2646.00,2.3357
2645.00,2.3214
2644.00,2.3064
2643.00,2.2909
2642.00,2.2741
2641.00,2.2555
2640.00,2.2352
2639.00,2.2139
2638.00,2.1917
2637.00,2.1684
2636.00,2.1438
2635.00,2.1181
2634.00,2.0916
2633.00,2.0641
2632.00,2.0354
2631.00,2.0053
2630.00,1.9740
2629.00,1.9414
2628.00,1.9078
2627.00,1.8733
2626.00,1.8380
2625.00,1.8022
2624.00,1.7663
2623.00,1.7307
2622.00,1.6959
2621.00,1.6621
2620.00,1.6295
2619.00,1.5986
2618.00,1.5697
2617.00,1.5430
2616.00,1.5189
2615.00,1.4973
2614.00,1.4786
2613.00,1.4630
2612.00,1.4506
2611.00,1.4413
2610.00,1.4350
2609.00,1.4317
2608.00,1.4316
2607.00,1.4347
2606.00,1.4411
2605.00,1.4511
2604.00,1.4647
2603.00,1.4817
2602.00,1.5018
2601.00,1.5249
2600.00,1.5506
2599.00,1.5787
2598.00,1.6088
2597.00,1.6405
2596.00,1.6732
2595.00,1.7065
2594.00,1.7401
2593.00,1.7738
2592.00,1.8076
2591.00,1.8415
2590.00,1.8752
2589.00,1.9087
2588.00,1.9418
2587.00,1.9740
2586.00,2.0049
2585.00,2.0344
2584.00,2.0627
2583.00,2.0904
2582.00,2.1178
2581.00,2.1450
2580.00,2.1713
2579.00,2.1962
2578.00,2.2193
2577.00,2.2407
2576.00,2.2611
2575.00,2.2807
2574.00,2.2998
2573.00,2.3186
2572.00,2.3370
2571.00,2.3548
2570.00,2.3715
2569.00,2.3868
2568.00,2.4007
2567.00,2.4137
2566.00,2.4261
2565.00,2.4375
2564.00,2.4480
2563.00,2.4579
2562.00,2.4678
2561.00,2.4778
2560.00,2.4873
2559.00,2.4952
2558.00,2.5016
2557.00,2.5068
2556.00,2.5117
2555.00,2.5165
2554.00,2.5216
2553.00,2.5271
2552.00,2.5328
2551.00,2.5381
2550.00,2.5423
2549.00,2.5451
2548.00,2.5467
2547.00,2.5479
2546.00,2.5490
2545.00,2.5499
2544.00,2.5501
2543.00,2.5499
2542.00,2.5495
2541.00,2.5489
2540.00,2.5471
2539.00,2.5439
2538.00,2.5400
2537.00,2.5365
2536.00,2.5332
2535.00,2.5292
2534.00,2.5235
2533.00,2.5158
2532.00,2.5071
2531.00,2.4985
2530.00,2.4905
2529.00,2.4829
2528.00,2.4749
2527.00,2.4660
2526.00,2.4566
2525.00,2.4466
2524.00,2.4356
2523.00,2.4227
2522.00,2.4080
2521.00,2.3926
2520.00,2.3774
2519.00,2.3625
2518.00,2.3474
2517.00,2.3313
2516.00,2.3134
2515.00,2.2935
2514.00,2.2723
2513.00,2.2502
2512.00,2.2272
2511.00,2.2033
2510.00,2.1781
2509.00,2.1515
2508.00,2.1234
2507.00,2.0939
2506.00,2.0628
2505.00,2.0301
2504.00,1.9958
2503.00,1.9596
2502.00,1.9216
2501.00,1.8817
2500.00,1.8401
2499.00,1.7968
2498.00,1.7524
2497.00,1.7073
2496.00,1.6621
2495.00,1.6172
2494.00,1.5732
2493.00,1.5309
2492.00,1.4907
2491.00,1.4535
2490.00,1.4199
2489.00,1.3905
2488.00,1.3659
2487.00,1.3467
2486.00,1.3332
2485.00,1.3254
2484.00,1.3237
2483.00,1.3278
2482.00,1.3377
2481.00,1.3529
2480.00,1.3730
2479.00,1.3974
2478.00,1.4254
2477.00,1.4565
2476.00,1.4901
2475.00,1.5258
2474.00,1.5630
2473.00,1.6013
2472.00,1.6405
2471.00,1.6801
2470.00,1.7196
2469.00,1.7590
2468.00,1.7978
2467.00,1.8361
2466.00,1.8738
2465.00,1.9109
2464.00,1.9472
2463.00,1.9825
2462.00,2.0165
2461.00,2.0494
2460.00,2.0815
2459.00,2.1131
2458.00,2.1439
2457.00,2.1736
2456.00,2.2022
2455.00,2.2295
2454.00,2.2554
2453.00,2.2799
2452.00,2.3035
2451.00,2.3266
2450.00,2.3488
2449.00,2.3691
2448.00,2.3872
2447.00,2.4038
2446.00,2.4202
2445.00,2.4368
2444.00,2.4530
2443.00,2.4679
2442.00,2.4818
2441.00,2.4951
2440.00,2.5079
2439.00,2.5198
2438.00,2.5312
2437.00,2.5430
2436.00,2.5552
2435.00,2.5672
2434.00,2.5777
2433.00,2.5862
2432.00,2.5925
2431.00,2.5973
2430.00,2.6014
2429.00,2.6054
2428.00,2.6093
2427.00,2.6132
2426.00,2.6170
2425.00,2.6207
2424.00,2.6238
2423.00,2.6263
2422.00,2.6290
2421.00,2.6318
2420.00,2.6337
2419.00,2.6336
2418.00,2.6317
2417.00,2.6289
2416.00,2.6260
2415.00,2.6236
2414.00,2.6224
2413.00,2.6221
2412.00,2.6214
2411.00,2.6191
2410.00,2.6153
2409.00,2.6105
2408.00,2.6045
2407.00,2.5970
2406.00,2.5883
2405.00,2.5792
2404.00,2.5700
2403.00,2.5607
2402.00,2.5512
2401.00,2.5417
2400.00,2.5316
2399.00,2.5204
2398.00,2.5077
2397.00,2.4939
2396.00,2.4792
2395.00,2.4636
2394.00,2.4468
2393.00,2.4284
2392.00,2.4082
2391.00,2.3864
2390.00,2.3647
2389.00,2.3451
2388.00,2.3293
2387.00,2.3187
2386.00,2.3144
2385.00,2.3178
2384.00,2.3290
2383.00,2.3468
2382.00,2.3682
2381.00,2.3891
2380.00,2.4066
2379.00,2.4189
2378.00,2.4255
2377.00,2.4264
2376.00,2.4227
2375.00,2.4178
2374.00,2.4142
2373.00,2.4121
2372.00,2.4124
2371.00,2.4172
2370.00,2.4250
2369.00,2.4322
2368.00,2.4407
2367.00,2.4510
2366.00,2.4588
2365.00,2.4652
2364.00,2.4685
2363.00,2.4707
2362.00,2.4748
2361.00,2.4760
2360.00,2.4778
2359.00,2.4773
2358.00,2.4726
2357.00,2.4603
2356.00,2.4525
2355.00,2.4735
2354.00,2.5112
2353.00,2.5357
2352.00,2.5316
2351.00,2.5227
2350.00,2.5468
2349.00,2.5948
2348.00,2.6399
2347.00,2.6526
2346.00,2.6399
2345.00,2.6232
2344.00,2.6100
2343.00,2.6043
2342.00,2.5995
2341.00,2.5968
2340.00,2.5936
2339.00,2.5958
2338.00,2.5999
2337.00,2.6092
2336.00,2.6143
2335.00,2.6241
2334.00,2.6267
2333.00,2.6326
2332.00,2.6394
2331.00,2.6488
2330.00,2.6597
2329.00,2.6678
2328.00,2.6814
2327.00,2.6978
2326.00,2.7122
2325.00,2.7180
2324.00,2.7107
2323.00,2.7004
2322.00,2.6883
2321.00,2.6844
2320.00,2.6823
2319.00,2.6877
2318.00,2.6925
2317.00,2.7004
2316.00,2.7033
2315.00,2.7054
2314.00,2.7031
2313.00,2.7015
2312.00,2.6980
2311.00,2.6955
2310.00,2.6923
2309.00,2.6919
2308.00,2.6932
2307.00,2.6988
2306.00,2.7052
2305.00,2.7136
2304.00,2.7208
2303.00,2.7285
2302.00,2.7344
2301.00,2.7399
2300.00,2.7439
2299.00,2.7475
2298.00,2.7505
2297.00,2.7527
2296.00,2.7547
2295.00,2.7571
2294.00,2.7608
2293.00,2.7630
2292.00,2.7590
2291.00,2.7466
2290.00,2.7312
2289.00,2.7201
2288.00,2.7168
2287.00,2.7179
2286.00,2.7196
2285.00,2.7205
2284.00,2.7214
2283.00,2.7219
2282.00,2.7210
2281.00,2.7196
2280.00,2.7186
2279.00,2.7177
2278.00,2.7151
2277.00,2.7104
2276.00,2.7036
2275.00,2.6949
2274.00,2.6838
2273.00,2.6708
2272.00,2.6568
2271.00,2.6421
2270.00,2.6268
2269.00,2.6111
2268.00,2.5953
2267.00,2.5785
2266.00,2.5596
2265.00,2.5381
2264.00,2.5150
2263.00,2.4912
2262.00,2.4666
2261.00,2.4413
2260.00,2.4154
2259.00,2.3891
2258.00,2.3623
2257.00,2.3345
2256.00,2.3055
2255.00,2.2755
2254.00,2.2445
2253.00,2.2124
2252.00,2.1789
2251.00,2.1438
2250.00,2.1064
2249.00,2.0663
2248.00,2.0234
2247.00,1.9779
2246.00,1.9302
2245.00,1.8808
2244.00,1.8302
2243.00,1.7788
2242.00,1.7271
2241.00,1.6760
2240.00,1.6266
2239.00,1.5798
2238.00,1.5365
2237.00,1.4976
2236.00,1.4640
2235.00,1.4363
2234.00,1.4153
2233.00,1.4015
2232.00,1.3951
2231.00,1.3962
2230.00,1.4046
2229.00,1.4199
2228.00,1.4416
2227.00,1.4691
2226.00,1.5012
2225.00,1.5371
2224.00,1.5758
2223.00,1.6166
2222.00,1.6591
2221.00,1.7028
2220.00,1.7473
2219.00,1.7922
2218.00,1.8371
2217.00,1.8817
2216.00,1.9256
2215.00,1.9689
2214.00,2.0115
2213.00,2.0533
2212.00,2.0942
2211.00,2.1342
2210.00,2.1733
2209.00,2.2111
2208.00,2.2470
2207.00,2.2811
2206.00,2.3139
2205.00,2.3454
2204.00,2.3754
2203.00,2.4032
2202.00,2.4292
2201.00,2.4541
2200.00,2.4779
2199.00,2.5001
2198.00,2.5204
2197.00,2.5398
2196.00,2.5592
2195.00,2.5781
2194.00,2.5958
2193.00,2.6125
2192.00,2.6290
2191.00,2.6460
2190.00,2.6622
2189.00,2.6764
2188.00,2.6882
2187.00,2.6984
2186.00,2.7079
2185.00,2.7175
2184.00,2.7271
2183.00,2.7360
2182.00,2.7435
2181.00,2.7499
2180.00,2.7564
2179.00,2.7642
2178.00,2.7735
2177.00,2.7828
2176.00,2.7901
2175.00,2.7948
2174.00,2.7978
2173.00,2.8001
2172.00,2.8019
2171.00,2.8034
2170.00,2.8047
2169.00,2.8063
2168.00,2.8081
2167.00,2.8095
2166.00,2.8106
2165.00,2.8118
2164.00,2.8130
2163.00,2.8132
2162.00,2.8116
2161.00,2.8083
2160.00,2.8035
2159.00,2.7977
2158.00,2.7915
2157.00,2.7861
2156.00,2.7816
2155.00,2.7772
2154.00,2.7718
2153.00,2.7652
2152.00,2.7574
2151.00,2.7486
2150.00,2.7389
2149.00,2.7292
2148.00,2.7195
2147.00,2.7095
2146.00,2.6990
2145.00,2.6886
2144.00,2.6779
2143.00,2.6659
2142.00,2.6515
2141.00,2.6353
2140.00,2.6182
2139.00,2.6007
2138.00,2.5827
2137.00,2.5639
2136.00,2.5443
2135.00,2.5240
2134.00,2.5025
2133.00,2.4796
2132.00,2.4550
2131.00,2.4289
2130.00,2.4016
2129.00,2.3732
2128.00,2.3433
2127.00,2.3116
2126.00,2.2774
2125.00,2.2408
2124.00,2.2018
2123.00,2.1607
2122.00,2.1176
2121.00,2.0727
2120.00,2.0256
2119.00,1.9761
2118.00,1.9245
2117.00,1.8718
2116.00,1.8187
2115.00,1.7657
2114.00,1.7137
2113.00,1.6641
2112.00,1.6183
2111.00,1.5775
2110.00,1.5426
2109.00,1.5141
2108.00,1.4929
2107.00,1.4796
2106.00,1.4745
2105.00,1.4776
2104.00,1.4887
2103.00,1.5071
2102.00,1.5319
2101.00,1.5622
2100.00,1.5970
2099.00,1.6353
2098.00,1.6760
2097.00,1.7186
2096.00,1.7625
2095.00,1.8068
2094.00,1.8511
2093.00,1.8953
2092.00,1.9395
2091.00,1.9834
2090.00,2.0265
2089.00,2.0684
2088.00,2.1097
2087.00,2.1509
2086.00,2.1923
2085.00,2.2331
2084.00,2.2729
2083.00,2.3113
2082.00,2.3481
2081.00,2.3834
2080.00,2.4170
2079.00,2.4485
2078.00,2.4780
2077.00,2.5058
2076.00,2.5324
2075.00,2.5577
2074.00,2.5817
2073.00,2.6046
2072.00,2.6273
2071.00,2.6497
2070.00,2.6705
2069.00,2.6891
2068.00,2.7059
2067.00,2.7216
2066.00,2.7363
2065.00,2.7493
2064.00,2.7610
2063.00,2.7728
2062.00,2.7850
2061.00,2.7968
2060.00,2.8070
2059.00,2.8157
2058.00,2.8234
2057.00,2.8302
2056.00,2.8354
2055.00,2.8390
2054.00,2.8426
2053.00,2.8485
2052.00,2.8573
2051.00,2.8674
2050.00,2.8763
2049.00,2.8819
2048.00,2.8842
2047.00,2.8851
2046.00,2.8870
2045.00,2.8916
2044.00,2.8984
2043.00,2.9049
2042.00,2.9082
2041.00,2.9071
2040.00,2.9036
2039.00,2.9008
2038.00,2.9008
2037.00,2.9028
2036.00,2.9034
2035.00,2.9001
2034.00,2.8929
2033.00,2.8844
2032.00,2.8777
2031.00,2.8736
2030.00,2.8710
2029.00,2.8679
2028.00,2.8626
2027.00,2.8549
2026.00,2.8458
2025.00,2.8372
2024.00,2.8293
2023.00,2.8210
2022.00,2.8112
2021.00,2.7996
2020.00,2.7868
2019.00,2.7732
2018.00,2.7583
2017.00,2.7416
2016.00,2.7235
2015.00,2.7051
2014.00,2.6873
2013.00,2.6700
2012.00,2.6525
2011.00,2.6337
2010.00,2.6133
2009.00,2.5909
2008.00,2.5664
2007.00,2.5397
2006.00,2.5115
2005.00,2.4823
2004.00,2.4520
2003.00,2.4203
2002.00,2.3867
2001.00,2.3512
2000.00,2.3138
1999.00,2.2735
1998.00,2.2298
1997.00,2.1831
1996.00,2.1339
1995.00,2.0830
1994.00,2.0306
1993.00,1.9755
1992.00,1.9159
1991.00,1.8532
1990.00,1.7930
1989.00,1.7407
1988.00,1.6969
1987.00,1.6588
1986.00,1.6256
1985.00,1.5998
1984.00,1.5835
1983.00,1.5762
1982.00,1.5764
1981.00,1.5840
1980.00,1.5992
1979.00,1.6210
1978.00,1.6481
1977.00,1.6797
1976.00,1.7149
1975.00,1.7528
1974.00,1.7926
1973.00,1.8342
1972.00,1.8772
1971.00,1.9215
1970.00,1.9667
1969.00,2.0128
1968.00,2.0582
1967.00,2.1013
1966.00,2.1427
1965.00,2.1851
1964.00,2.2307
1963.00,2.2780
1962.00,2.3233
1961.00,2.3649
1960.00,2.4039
1959.00,2.4417
1958.00,2.4782
1957.00,2.5125
1956.00,2.5440
1955.00,2.5734
1954.00,2.6015
1953.00,2.6298
1952.00,2.6590
1951.00,2.6875
1950.00,2.7120
1949.00,2.7312
1948.00,2.7479
1947.00,2.7648
1946.00,2.7826
1945.00,2.8019
1944.00,2.8225
1943.00,2.8415
1942.00,2.8538
1941.00,2.8584
1940.00,2.8622
1939.00,2.8730
1938.00,2.8905
1937.00,2.9082
1936.00,2.9215
1935.00,2.9309
1934.00,2.9390
1933.00,2.9471
1932.00,2.9560
1931.00,2.9655
1930.00,2.9735
1929.00,2.9779
1928.00,2.9798
1927.00,2.9819
1926.00,2.9874
1925.00,2.9949
1924.00,3.0016
1923.00,3.0004
1922.00,2.9938
1921.00,2.9938
1920.00,2.9919
1919.00,2.9920
1918.00,2.9919
1917.00,2.9911
1916.00,2.9897
1915.00,2.9875
1914.00,2.9853
1913.00,2.9852
1912.00,2.9832
1911.00,2.9793
1910.00,2.9752
1909.00,2.9698
1908.00,2.9629
1907.00,2.9560
1906.00,2.9497
1905.00,2.9415
1904.00,2.9305
1903.00,2.9179
1902.00,2.9049
1901.00,2.8922
1900.00,2.8789
1899.00,2.8640
1898.00,2.8476
1897.00,2.8302
1896.00,2.8130
1895.00,2.7954
1894.00,2.7753
1893.00,2.7535
1892.00,2.7333
1891.00,2.7150
1890.00,2.6933
1889.00,2.6629
1888.00,2.6255
1887.00,2.5891
1886.00,2.5584
1885.00,2.5298
1884.00,2.4977
1883.00,2.4602
1882.00,2.4197
1881.00,2.3784
1880.00,2.3356
1879.00,2.2899
1878.00,2.2414
1877.00,2.1915
1876.00,2.1416
1875.00,2.0927
1874.00,2.0442
1873.00,1.9962
1872.00,1.9513
1871.00,1.9108
1870.00,1.8722
1869.00,1.8316
1868.00,1.7894
1867.00,1.7523
1866.00,1.7278
1865.00,1.7166
1864.00,1.7144
1863.00,1.7187
1862.00,1.7306
1861.00,1.7524
1860.00,1.7843
1859.00,1.8249
1858.00,1.8726
1857.00,1.9260
1856.00,1.9828
1855.00,2.0414
1854.00,2.1010
1853.00,2.1607
1852.00,2.2190
1851.00,2.2748
1850.00,2.3298
1849.00,2.3829
1848.00,2.4318
1847.00,2.4791
1846.00,2.5303
1845.00,2.5844
1844.00,2.6317
1843.00,2.6646
1842.00,2.6895
1841.00,2.7194
1840.00,2.7559
1839.00,2.7902
1838.00,2.8170
1837.00,2.8388
1836.00,2.8610
1835.00,2.8838
1834.00,2.9051
1833.00,2.9267
1832.00,2.9521
1831.00,2.9812
1830.00,3.0083
1829.00,3.0264
1828.00,3.0376
1827.00,3.0502
1826.00,3.0634
1825.00,3.0674
1824.00,3.0594
1823.00,3.0512
1822.00,3.0556
1821.00,3.0710
1820.00,3.0868
1819.00,3.0974
1818.00,3.1026
1817.00,3.1017
1816.00,3.0966
1815.00,3.0931
1814.00,3.0971
1813.00,3.1072
1812.00,3.1147
1811.00,3.1154
1810.00,3.1120
1809.00,3.1087
1808.00,3.1065
1807.00,3.1028
1806.00,3.0981
1805.00,3.0954
1804.00,3.0936
1803.00,3.0864
1802.00,3.0701
1801.00,3.0492
1800.00,3.0304
1799.00,3.0185
1798.00,3.0104
1797.00,2.9994
1796.00,2.9832
1795.00,2.9649
1794.00,2.9480
1793.00,2.9293
1792.00,2.8999
1791.00,2.8555
1790.00,2.8018
1789.00,2.7500
1788.00,2.7048
1787.00,2.6607
1786.00,2.6102
1785.00,2.5500
1784.00,2.4854
1783.00,2.4271
1782.00,2.3839
1781.00,2.3542
1780.00,2.3289
1779.00,2.3094
1778.00,2.3054
1777.00,2.3220
1776.00,2.3558
1775.00,2.4027
1774.00,2.4670
1773.00,2.5479
1772.00,2.6337
1771.00,2.7118
1770.00,2.7775
1769.00,2.8290
1768.00,2.8630
1767.00,2.8813
1766.00,2.8986
1765.00,2.9343
1764.00,2.9903
1763.00,3.0496
1762.00,3.0958
1761.00,3.1270
1760.00,3.1550
1759.00,3.1918
1758.00,3.2358
1757.00,3.2762
1756.00,3.3033
1755.00,3.3222
1754.00,3.3515
1753.00,3.3972
1752.00,3.4438
1751.00,3.4727
1750.00,3.4846
1749.00,3.5010
1748.00,3.5375
1747.00,3.5811
1746.00,3.6131
1745.00,3.6329
1744.00,3.6507
1743.00,3.6744
1742.00,3.7087
1741.00,3.7654
1740.00,3.8565
1739.00,3.9773
1738.00,4.1038
1737.00,4.2003
1736.00,4.2293
1735.00,4.2064
1734.00,4.1975
1733.00,4.2405
1732.00,4.3208
1731.00,4.3810
1730.00,4.3895
1729.00,4.3885
1728.00,4.4151
1727.00,4.5017
1726.00,4.6584
1725.00,4.8201
1724.00,5.1211
1723.00,5.1523
1722.00,4.7437
1721.00,4.6013
1720.00,4.5728
1719.00,4.6065
1718.00,4.6061
1717.00,4.6385
1716.00,4.9185
1715.00,4.7490
1714.00,4.4913
1713.00,4.5307
1712.00,4.8508
1711.00,5.3535
1710.00,4.9188
1709.00,4.7627
1708.00,4.7824
1707.00,4.8002
1706.00,4.8905
1705.00,5.0507
1704.00,5.0300
1703.00,4.7905
1702.00,4.5811
1701.00,4.4403
1700.00,4.3901
1699.00,4.4077
1698.00,4.4525
1697.00,4.4947
1696.00,4.5010
1695.00,4.4242
1694.00,4.3017
1693.00,4.2016
1692.00,4.1300
1691.00,4.0587
1690.00,3.9743
1689.00,3.8857
1688.00,3.8063
1687.00,3.7498
1686.00,3.7203
1685.00,3.7038
1684.00,3.6784
1683.00,3.6293
1682.00,3.5725
1681.00,3.5333
1680.00,3.5100
1679.00,3.4933
1678.00,3.4855
1677.00,3.4861
1676.00,3.4852
1675.00,3.4750
1674.00,3.4620
1673.00,3.4603
1672.00,3.4692
1671.00,3.4711
1670.00,3.4542
1669.00,3.4247
1668.00,3.3892
1667.00,3.3485
1666.00,3.3057
1665.00,3.2636
1664.00,3.2231
1663.00,3.1805
1662.00,3.1324
1661.00,3.0810
1660.00,3.0279
1659.00,2.9731
1658.00,2.9177
1657.00,2.8683
1656.00,2.8364
1655.00,2.8283
1654.00,2.8337
1653.00,2.8311
1652.00,2.8082
1651.00,2.7749
1650.00,2.7558
1649.00,2.7546
1648.00,2.7577
1647.00,2.7608
1646.00,2.7637
1645.00,2.7651
1644.00,2.7671
1643.00,2.7707
1642.00,2.7784
1641.00,2.7880
1640.00,2.8079
1639.00,2.8277
1638.00,2.8819
1637.00,2.8864
1636.00,2.8673
1635.00,2.9010
1634.00,2.9130
1633.00,2.9360
1632.00,2.9507
1631.00,2.9728
1630.00,2.9846
1629.00,3.0190
1628.00,3.0576
1627.00,3.0693
1626.00,3.0933
1625.00,3.1194
1624.00,3.1550
1623.00,3.1836
1622.00,3.1955
1621.00,3.1932
1620.00,3.1938
1619.00,3.2101
1618.00,3.2417
1617.00,3.2769
1616.00,3.2999
1615.00,3.3013
1614.00,3.2883
1613.00,3.2738
1612.00,3.2640
1611.00,3.2597
1610.00,3.2630
1609.00,3.2744
1608.00,3.2863
1607.00,3.2902
1606.00,3.2881
1605.00,3.2884
1604.00,3.2908
1603.00,3.2871
1602.00,3.2735
1601.00,3.2581
1600.00,3.2514
1599.00,3.2542
1598.00,3.2590
1597.00,3.2581
1596.00,3.2490
1595.00,3.2336
1594.00,3.2157
1593.00,3.1996
1592.00,3.1879
1591.00,3.1806
1590.00,3.1766
1589.00,3.1746
1588.00,3.1707
1587.00,3.1584
1586.00,3.1346
1585.00,3.1045
1584.00,3.0746
1583.00,3.0480
1582.00,3.0248
1581.00,3.0018
1580.00,2.9787
1579.00,2.9602
1578.00,2.9487
1577.00,2.9376
1576.00,2.9162
1575.00,2.8775
1574.00,2.8247
1573.00,2.7697
1572.00,2.7182
1571.00,2.6672
1570.00,2.6108
1569.00,2.5467
1568.00,2.4763
1567.00,2.4044
1566.00,2.3340
1565.00,2.2629
1564.00,2.1925
1563.00,2.1341
1562.00,2.1006
1561.00,2.0914
1560.00,2.0946
1559.00,2.0992
1558.00,2.1032
1557.00,2.1068
1556.00,2.1114
1555.00,2.1160
1554.00,2.1183
1553.00,2.1256
1552.00,2.1498
1551.00,2.1932
1550.00,2.2409
1549.00,2.2848
1548.00,2.3363
1547.00,2.4041
1546.00,2.4802
1545.00,2.5476
1544.00,2.6045
1543.00,2.6684
1542.00,2.7539
1541.00,2.8554
1540.00,2.9531
1539.00,3.0213
1538.00,3.0436
1537.00,3.0376
1536.00,3.0346
1535.00,3.0437
1534.00,3.0599
1533.00,3.0752
1532.00,3.0865
1531.00,3.1009
1530.00,3.1195
1529.00,3.1391
1528.00,3.1595
1527.00,3.1820
1526.00,3.2079
1525.00,3.2380
1524.00,3.2755
1523.00,3.3195
1522.00,3.3540
1521.00,3.3626
1520.00,3.3509
1519.00,3.3461
1518.00,3.3583
1517.00,3.3628
1516.00,3.3428
1515.00,3.3145
1514.00,3.3027
1513.00,3.3093
1512.00,3.3193
1511.00,3.3273
1510.00,3.3409
1509.00,3.3645
1508.00,3.3906
1507.00,3.4092
1506.00,3.4201
1505.00,3.4289
1504.00,3.4364
1503.00,3.4397
1502.00,3.4328
1501.00,3.4131
1500.00,3.3896
1499.00,3.3781
1498.00,3.3838
1497.00,3.3923
1496.00,3.3897
1495.00,3.3758
1494.00,3.3595
1493.00,3.3445
1492.00,3.3255
1491.00,3.2990
1490.00,3.2678
1489.00,3.2394
1488.00,3.2241
1487.00,3.2209
1486.00,3.2146
1485.00,3.1943
1484.00,3.1610
1483.00,3.1252
1482.00,3.0925
1481.00,3.0575
1480.00,3.0188
1479.00,2.9811
1478.00,2.9459
1477.00,2.9071
1476.00,2.8633
1475.00,2.8233
1474.00,2.7963
1473.00,2.7797
1472.00,2.7643
1471.00,2.7529
1470.00,2.7591
1469.00,2.7913
1468.00,2.8461
1467.00,2.9168
1466.00,2.9988
1465.00,3.0847
1464.00,3.1602
1463.00,3.2129
1462.00,3.2407
1461.00,3.2543
1460.00,3.2707
1459.00,3.3048
1458.00,3.3638
1457.00,3.4450
1456.00,3.5411
1455.00,3.6534
1454.00,3.7812
1453.00,3.9055
1452.00,4.0094
1451.00,4.0659
1450.00,4.0636
1449.00,4.0331
1448.00,3.9694
1447.00,3.8614
1446.00,3.7405
1445.00,3.6355
1444.00,3.5487
1443.00,3.4728
1442.00,3.4033
1441.00,3.3455
1440.00,3.3113
1439.00,3.3114
1438.00,3.3448
1437.00,3.3994
1436.00,3.4582
1435.00,3.5120
1434.00,3.5674
1433.00,3.6252
1432.00,3.6736
1431.00,3.7021
1430.00,3.7115
1429.00,3.7095
1428.00,3.7021
1427.00,3.6930
1426.00,3.6900
1425.00,3.6971
1424.00,3.7126
1423.00,3.7399
1422.00,3.7800
1421.00,3.8163
1420.00,3.8132
1419.00,3.7491
1418.00,3.6418
1417.00,3.5300
1416.00,3.4372
1415.00,3.3592
1414.00,3.2863
1413.00,3.2168
1412.00,3.1552
1411.00,3.1061
1410.00,3.0722
1409.00,3.0549
1408.00,3.0548
1407.00,3.0673
1406.00,3.0861
1405.00,3.1053
1404.00,3.1206
1403.00,3.1358
1402.00,3.1583
1401.00,3.1868
1400.00,3.2104
1399.00,3.2226
1398.00,3.2319
1397.00,3.2522
1396.00,3.2832
1395.00,3.3090
1394.00,3.3201
1393.00,3.3251
1392.00,3.3386
1391.00,3.3635
1390.00,3.3917
1389.00,3.4154
1388.00,3.4303
1387.00,3.4337
1386.00,3.4311
1385.00,3.4355
1384.00,3.4530
1383.00,3.4750
1382.00,3.4908
1381.00,3.5022
1380.00,3.5172
1379.00,3.5354
1378.00,3.5470
1377.00,3.5435
1376.00,3.5276
1375.00,3.5083
1374.00,3.4933
1373.00,3.4870
1372.00,3.4929
1371.00,3.5123
1370.00,3.5411
1369.00,3.5688
1368.00,3.5798
1367.00,3.5623
1366.00,3.5208
1365.00,3.4756
1364.00,3.4443
1363.00,3.4334
1362.00,3.4379
1361.00,3.4444
1360.00,3.4408
1359.00,3.4288
1358.00,3.4192
1357.00,3.4176
1356.00,3.4191
1355.00,3.4159
1354.00,3.4106
1353.00,3.4173
1352.00,3.4496
1351.00,3.5070
1350.00,3.5751
1349.00,3.6383
1348.00,3.6959
1347.00,3.7569
1346.00,3.8123
1345.00,3.8320
1344.00,3.8057
1343.00,3.7635
1342.00,3.7380
1341.00,3.7398
1340.00,3.7629
1339.00,3.7940
1338.00,3.8113
1337.00,3.7869
1336.00,3.7199
1335.00,3.6390
1334.00,3.5665
1333.00,3.5071
1332.00,3.4571
1331.00,3.4144
1330.00,3.3806
1329.00,3.3544
1328.00,3.3275
1327.00,3.2937
1326.00,3.2589
1325.00,3.2368
1324.00,3.2383
1323.00,3.2683
1322.00,3.3249
1321.00,3.3980
1320.00,3.4734
1319.00,3.5442
1318.00,3.6189
1317.00,3.7151
1316.00,3.8441
1315.00,3.9999
1314.00,4.1584
1313.00,4.2916
1312.00,4.3591
1311.00,4.3190
1310.00,4.1942
1309.00,4.0368
1308.00,3.8954
1307.00,3.7881
1306.00,3.7091
1305.00,3.6472
1304.00,3.5923
1303.00,3.5352
1302.00,3.4682
1301.00,3.3913
1300.00,3.3119
1299.00,3.2371
1298.00,3.1682
1297.00,3.1026
1296.00,3.0407
1295.00,2.9863
1294.00,2.9435
1293.00,2.9133
1292.00,2.8948
1291.00,2.8878
1290.00,2.8930
1289.00,2.9093
1288.00,2.9337
1287.00,2.9622
1286.00,2.9930
1285.00,3.0275
1284.00,3.0674
1283.00,3.1115
1282.00,3.1560
1281.00,3.1977
1280.00,3.2370
1279.00,3.2757
1278.00,3.3146
1277.00,3.3527
1276.00,3.3893
1275.00,3.4233
1274.00,3.4513
1273.00,3.4731
1272.00,3.4963
1271.00,3.5303
1270.00,3.5747
1269.00,3.6204
1268.00,3.6617
1267.00,3.6985
1266.00,3.7269
1265.00,3.7350
1264.00,3.7198
1263.00,3.7007
1262.00,3.6921
1261.00,3.6931
1260.00,3.7009
1259.00,3.7134
1258.00,3.7248
1257.00,3.7264
1256.00,3.7148
1255.00,3.6989
1254.00,3.6931
1253.00,3.7056
1252.00,3.7282
1251.00,3.7426
1250.00,3.7447
1249.00,3.7478
1248.00,3.7626
1247.00,3.7862
1246.00,3.8119
1245.00,3.8423
1244.00,3.8855
1243.00,3.9392
1242.00,3.9896
1241.00,4.0171
1240.00,4.0057
1239.00,3.9752
1238.00,3.9534
1237.00,3.9410
1236.00,3.9457
1235.00,3.9829
1234.00,4.0410
1233.00,4.0835
1232.00,4.0907
1231.00,4.0822
1230.00,4.0800
1229.00,4.0825
1228.00,4.0767
1227.00,4.0638
1226.00,4.0634
1225.00,4.0956
1224.00,4.1818
1223.00,4.3619
1222.00,4.6411
1221.00,4.7418
1220.00,4.6892
1219.00,4.6193
1218.00,4.5592
1217.00,4.5583
1216.00,4.4812
1215.00,4.3154
1214.00,4.2033
1213.00,4.1830
1212.00,4.2200
1211.00,4.2198
1210.00,4.1273
1209.00,3.9859
1208.00,3.8592
1207.00,3.7756
1206.00,3.7344
1205.00,3.7247
1204.00,3.7328
1203.00,3.7468
1202.00,3.7539
1201.00,3.7416
1200.00,3.7140
1199.00,3.6900
1198.00,3.6812
1197.00,3.6829
1196.00,3.6856
1195.00,3.6880
1194.00,3.6906
1193.00,3.6837
1192.00,3.6585
1191.00,3.6271
1190.00,3.6098
1189.00,3.6062
1188.00,3.5950
1187.00,3.5677
1186.00,3.5450
1185.00,3.5491
1184.00,3.5765
1183.00,3.5913
1182.00,3.5621
1181.00,3.5061
1180.00,3.4612
1179.00,3.4422
1178.00,3.4405
1177.00,3.4434
1176.00,3.4445
1175.00,3.4404
1174.00,3.4256
1173.00,3.3997
1172.00,3.3713
1171.00,3.3498
1170.00,3.3358
1169.00,3.3231
1168.00,3.3096
1167.00,3.3024
1166.00,3.3096
1165.00,3.3308
1164.00,3.3541
1163.00,3.3623
1162.00,3.3521
1161.00,3.3393
1160.00,3.3389
1159.00,3.3506
1158.00,3.3645
1157.00,3.3708
1156.00,3.3695
1155.00,3.3697
1154.00,3.3826
1153.00,3.4143
1152.00,3.4623
1151.00,3.5117
1150.00,3.5483
1149.00,3.5744
1148.00,3.5926
1147.00,3.6011
1146.00,3.6022
1145.00,3.6021
1144.00,3.6070
1143.00,3.6193
1142.00,3.6417
1141.00,3.6799
1140.00,3.7328
1139.00,3.7725
1138.00,3.7709
1137.00,3.7522
1136.00,3.7542
1135.00,3.7840
1134.00,3.8108
1133.00,3.8104
1132.00,3.8114
1131.00,3.8572
1130.00,3.9575
1129.00,4.0745
1128.00,4.1458
1127.00,4.1625
1126.00,4.1662
1125.00,4.2015
1124.00,4.3356
1123.00,4.6094
1122.00,4.8701
1121.00,5.1025
1120.00,4.3455
1119.00,4.0547
1118.00,3.9236
1117.00,3.8867
1116.00,3.9074
1115.00,3.9509
1114.00,3.9910
1113.00,4.0432
1112.00,4.1085
1111.00,4.1070
1110.00,3.9881
1109.00,3.8583
1108.00,3.8006
1107.00,3.8396
1106.00,3.9772
1105.00,4.1621
1104.00,4.2625
1103.00,4.3000
1102.00,4.2679
1101.00,4.2141
1100.00,4.2757
1099.00,4.4689
1098.00,4.6059
1097.00,4.5205
1096.00,4.4336
1095.00,4.5349
1094.00,4.9788
1093.00,4.6333
1092.00,4.5216
1091.00,4.7664
1090.00,4.8608
1089.00,4.4225
1088.00,4.3350
1087.00,4.3357
1086.00,4.2235
1085.00,4.0116
1084.00,3.8665
1083.00,3.8208
1082.00,3.8382
1081.00,3.8606
1080.00,3.8727
1079.00,3.9062
1078.00,3.9756
1077.00,4.0544
1076.00,4.0906
1075.00,4.0879
1074.00,4.1201
1073.00,4.2139
1072.00,4.1954
1071.00,4.0238
1070.00,3.9178
1069.00,3.8958
1068.00,3.9222
1067.00,3.9496
1066.00,3.9419
1065.00,3.9049
1064.00,3.8766
1063.00,3.8856
1062.00,3.9295
1061.00,3.9808
1060.00,4.0126
1059.00,4.0099
1058.00,3.9634
1057.00,3.8718
1056.00,3.7681
1055.00,3.7070
1054.00,3.7206
1053.00,3.7977
1052.00,3.8892
1051.00,3.9975
1050.00,4.1542
1049.00,4.2229
1048.00,4.1951
1047.00,4.1466
1046.00,4.0107
1045.00,3.8320
1044.00,3.6739
1043.00,3.5547
1042.00,3.4764
1041.00,3.4391
1040.00,3.4372
1039.00,3.4499
1038.00,3.4462
1037.00,3.4120
1036.00,3.3642
1035.00,3.3284
1034.00,3.3160
1033.00,3.3228
1032.00,3.3344
1031.00,3.3380
1030.00,3.3336
1029.00,3.3327
1028.00,3.3502
1027.00,3.3977
1026.00,3.4786
1025.00,3.5851
1024.00,3.7019
1023.00,3.8149
1022.00,3.9178
1021.00,4.0091
1020.00,4.0996
1019.00,4.1954
1018.00,4.2213
1017.00,4.1254
1016.00,3.9927
1015.00,3.8756
1014.00,3.7837
1013.00,3.7194
1012.00,3.6891
1011.00,3.6995
1010.00,3.7459
1009.00,3.8042
1008.00,3.8497
1007.00,3.8852
1006.00,3.9242
1005.00,3.9547
1004.00,3.9484
1003.00,3.9142
1002.00,3.8999
1001.00,3.9371
1000.00,4.0181
999.00,4.0926
998.00,4.1063
997.00,4.0766
996.00,4.0525
995.00,4.0704
994.00,4.1413
993.00,4.2032
992.00,4.1839
991.00,4.1441
990.00,4.1283
989.00,4.1501
988.00,4.2218
987.00,4.3494
986.00,4.5498
985.00,4.7978
984.00,4.7064
983.00,4.5382
982.00,4.3816
981.00,4.1817
980.00,4.0375
979.00,3.9744
978.00,3.9897
977.00,4.0841
976.00,4.2282
975.00,4.2660
974.00,4.0873
973.00,3.9295
972.00,3.8803
971.00,3.9279
970.00,4.0339
969.00,4.1342
968.00,4.2086
967.00,4.2786
966.00,4.2357
965.00,4.1308
964.00,4.0421
963.00,3.9760
962.00,3.9687
961.00,4.0154
960.00,4.0581
959.00,4.0895
958.00,4.1670
957.00,4.2805
956.00,4.3334
955.00,4.3048
954.00,4.2609
953.00,4.2336
952.00,4.2417
951.00,4.3152
950.00,4.4589
949.00,4.5889
948.00,4.5858
947.00,4.5036
946.00,4.4549
945.00,4.4500
944.00,4.4266
943.00,4.3482
942.00,4.2513
941.00,4.1979
940.00,4.1951
939.00,4.2220
938.00,4.2318
937.00,4.1431
936.00,4.0261
935.00,3.9956
934.00,4.1241
933.00,4.5565
932.00,4.6924
931.00,4.2904
930.00,4.2049
929.00,4.2639
928.00,4.5188
927.00,4.7443
926.00,4.5702
925.00,4.6850
924.00,5.2387
923.00,5.1712
922.00,4.9644
921.00,4.8381
920.00,4.4562
919.00,4.2578
918.00,4.1215
917.00,4.0065
916.00,3.9564
915.00,3.9749
914.00,4.0512
913.00,4.1937
912.00,4.4390
911.00,4.6556
910.00,4.4657
909.00,4.3833
908.00,4.4392
907.00,4.4597
906.00,4.3568
905.00,4.3674
904.00,4.6322
903.00,4.5374
902.00,4.2627
901.00,4.1768
900.00,4.1816
899.00,4.1895
898.00,4.1507
897.00,4.0705
896.00,3.9795
895.00,3.9393
894.00,3.9833
893.00,4.0950
892.00,4.2125
891.00,4.2858
890.00,4.3297
889.00,4.3900
888.00,4.4907
887.00,4.5150
886.00,4.3522
885.00,4.1963
884.00,4.1194
883.00,4.1205
882.00,4.2073
881.00,4.3466
880.00,4.4076
879.00,4.3311
878.00,4.2228
877.00,4.1570
876.00,4.0991
875.00,4.0609
874.00,4.0863
873.00,4.1677
872.00,4.2422
871.00,4.1835
870.00,4.0562
869.00,3.9740
868.00,3.9779
867.00,4.0472
866.00,4.2588
865.00,5.0759
864.00,4.2885
863.00,4.0930
862.00,4.1339
861.00,4.3115
860.00,4.4968
859.00,4.3288
858.00,4.1602
857.00,4.0876
856.00,4.0786
855.00,4.1386
854.00,4.3692
853.00,4.5744
852.00,4.2348
851.00,4.0923
850.00,4.0647
849.00,4.0677
848.00,4.0755
847.00,4.1726
846.00,4.6187
845.00,4.4827
844.00,4.0959
843.00,4.0000
842.00,3.9526
841.00,3.8900
840.00,3.8951
839.00,4.0134
838.00,4.1423
837.00,4.0284
836.00,3.9123
835.00,3.9379
834.00,4.1442
833.00,4.6264
832.00,5.1186
831.00,4.4309
830.00,4.0687
829.00,3.9693
828.00,4.0333
827.00,4.1894
826.00,4.3054
825.00,4.2878
824.00,4.2979
823.00,4.4195
822.00,4.6774
821.00,5.1794
820.00,4.7095
819.00,4.3335
818.00,4.1940
817.00,4.1585
816.00,4.1866
815.00,4.3139
814.00,4.4690
813.00,4.3180
812.00,4.1731
811.00,4.0907
810.00,4.0415
809.00,4.0297
808.00,4.0292
807.00,4.0649
806.00,4.1534
805.00,4.2378
804.00,4.2348
803.00,4.1434
802.00,4.0455
801.00,4.0542
800.00,4.3189
799.00,4.4571
798.00,4.1196
797.00,4.0978
796.00,4.2767
795.00,4.4156
794.00,4.3862
793.00,4.3432
792.00,4.3605
791.00,4.4357
790.00,4.5849
789.00,4.5717
788.00,4.2924
787.00,4.1155
786.00,4.1481
785.00,4.2455
784.00,4.0545
783.00,3.9258
782.00,3.9668
781.00,4.1496
780.00,4.4700
779.00,4.6680
778.00,4.4096
777.00,4.1212
776.00,3.9041
775.00,3.7558
774.00,3.6771
773.00,3.6621
772.00,3.7149
771.00,3.8270
770.00,3.9894
769.00,4.1234
768.00,4.2793
767.00,4.8217
766.00,4.5082
765.00,4.1675
764.00,4.1017
763.00,4.1329
762.00,4.1762
761.00,4.1277
760.00,4.0516
759.00,4.0577
758.00,4.2256
757.00,4.5399
756.00,4.5366
755.00,4.3259
754.00,4.1506
753.00,4.0909
752.00,4.1708
751.00,4.4748
750.00,5.1981
749.00,4.8617
748.00,4.5710
747.00,4.2737
746.00,4.1082
745.00,4.0581
744.00,4.0614
743.00,4.1132
742.00,4.1801
741.00,4.1847
740.00,4.0421
739.00,3.9135
738.00,3.9019
737.00,3.9739
736.00,4.0550
735.00,4.0839
734.00,4.1989
733.00,4.5549
732.00,4.5817
731.00,4.3383
730.00,4.0496
729.00,3.8415
728.00,3.7731
727.00,3.7794
726.00,3.8046
725.00,3.8291
724.00,3.8800
723.00,3.9505
722.00,3.9970
721.00,4.0473
720.00,4.0239
719.00,3.8962
718.00,3.8689
717.00,3.9600
716.00,4.1678
715.00,4.6404
714.00,4.4591
713.00,4.1615
712.00,4.1061
711.00,4.0700
710.00,3.9898
709.00,3.9654
708.00,4.0146
707.00,4.2367
706.00,4.9696
705.00,4.5268
704.00,4.2825
703.00,4.3230
702.00,4.5838
701.00,4.7962
700.00,4.3628
