Created as New Dataset,Sample 066 By Administrator Date Wednesday, November 24 2021
cm-1,A
7502.00,1.1566
7501.00,1.1518
7500.00,1.1471
7499.00,1.1424
7498.00,1.1378
7497.00,1.1332
7496.00,1.1287
7495.00,1.1243
7494.00,1.1197
7493.00,1.1144
7492.00,1.1080
7491.00,1.1007
7490.00,1.0925
7489.00,1.0838
7488.00,1.0752
7487.00,1.0669
7486.00,1.0586
7485.00,1.0502
7484.00,1.0414
7483.00,1.0322
7482.00,1.0225
7481.00,1.0120
7480.00,1.0007
7479.00,0.9893
7478.00,0.9782
7477.00,0.9679
7476.00,0.9580
7475.00,0.9484
7474.00,0.9388
7473.00,0.9293
7472.00,0.9198
7471.00,0.9101
7470.00,0.9000
7469.00,0.8898
7468.00,0.8802
7467.00,0.8714
7466.00,0.8634
7465.00,0.8555
7464.00,0.8476
7463.00,0.8399
7462.00,0.8327
7461.00,0.8259
7460.00,0.8192
7459.00,0.8127
7458.00,0.8069
7457.00,0.8019
7456.00,0.7976
7455.00,0.7938
7454.00,0.7908
7453.00,0.7885
7452.00,0.7870
7451.00,0.7861
7450.00,0.7855
7449.00,0.7853
7448.00,0.7855
7447.00,0.7863
7446.00,0.7879
7445.00,0.7899
7444.00,0.7921
7443.00,0.7948
7442.00,0.7983
7441.00,0.8025
7440.00,0.8071
7439.00,0.8116
7438.00,0.8163
7437.00,0.8215
7436.00,0.8274
7435.00,0.8337
7434.00,0.8405
7433.00,0.8476
7432.00,0.8551
7431.00,0.8626
7430.00,0.8702
7429.00,0.8779
7428.00,0.8857
7427.00,0.8934
7426.00,0.9012
7425.00,0.9093
7424.00,0.9179
7423.00,0.9270
7422.00,0.9361
7421.00,0.9451
7420.00,0.9540
7419.00,0.9626
7418.00,0.9707
7417.00,0.9785
7416.00,0.9863
7415.00,0.9946
7414.00,1.0028
7413.00,1.0105
7412.00,1.0176
7411.00,1.0244
7410.00,1.0312
7409.00,1.0375
7408.00,1.0432
7407.00,1.0487
7406.00,1.0546
7405.00,1.0612
7404.00,1.0679
7403.00,1.0740
7402.00,1.0792
7401.00,1.0836
7400.00,1.0870
7399.00,1.0893
7398.00,1.0906
7397.00,1.0919
7396.00,1.0936
7395.00,1.0955
7394.00,1.0973
7393.00,1.0987
7392.00,1.0996
7391.00,1.1001
7390.00,1.0998
7389.00,1.0989
7388.00,1.0977
7387.00,1.0968
7386.00,1.0967
7385.00,1.0972
7384.00,1.0980
7383.00,1.0988
7382.00,1.0996
7381.00,1.1004
7380.00,1.1013
7379.00,1.1019
7378.00,1.1013
7377.00,1.0988
7376.00,1.0946
7375.00,1.0895
7374.00,1.0836
7373.00,1.0770
7372.00,1.0696
7371.00,1.0623
7370.00,1.0561
7369.00,1.0513
7368.00,1.0474
7367.00,1.0440
7366.00,1.0407
7365.00,1.0376
7364.00,1.0347
7363.00,1.0317
7362.00,1.0283
7361.00,1.0246
7360.00,1.0204
7359.00,1.0158
7358.00,1.0109
7357.00,1.0058
7356.00,1.0009
7355.00,0.9961
7354.00,0.9914
7353.00,0.9866
7352.00,0.9813
7351.00,0.9750
7350.00,0.9677
7349.00,0.9597
7348.00,0.9510
7347.00,0.9415
7346.00,0.9312
7345.00,0.9209
7344.00,0.9114
7343.00,0.9027
7342.00,0.8943
7341.00,0.8859
7340.00,0.8775
7339.00,0.8693
7338.00,0.8613
7337.00,0.8532
7336.00,0.8448
7335.00,0.8364
7334.00,0.8284
7333.00,0.8212
7332.00,0.8145
7331.00,0.8084
7330.00,0.8027
7329.00,0.7973
7328.00,0.7923
7327.00,0.7877
7326.00,0.7837
7325.00,0.7801
7324.00,0.7770
7323.00,0.7743
7322.00,0.7723
7321.00,0.7709
7320.00,0.7705
7319.00,0.7707
7318.00,0.7716
7317.00,0.7729
7316.00,0.7747
7315.00,0.7772
7314.00,0.7803
7313.00,0.7840
7312.00,0.7879
7311.00,0.7921
7310.00,0.7968
7309.00,0.8020
7308.00,0.8077
7307.00,0.8140
7306.00,0.8206
7305.00,0.8275
7304.00,0.8346
7303.00,0.8420
7302.00,0.8498
7301.00,0.8582
7300.00,0.8672
7299.00,0.8765
7298.00,0.8856
7297.00,0.8945
7296.00,0.9033
7295.00,0.9122
7294.00,0.9208
7293.00,0.9292
7292.00,0.9374
7291.00,0.9458
7290.00,0.9545
7289.00,0.9635
7288.00,0.9730
7287.00,0.9828
7286.00,0.9928
7285.00,1.0026
7284.00,1.0122
7283.00,1.0217
7282.00,1.0311
7281.00,1.0403
7280.00,1.0490
7279.00,1.0571
7278.00,1.0650
7277.00,1.0730
7276.00,1.0812
7275.00,1.0893
7274.00,1.0973
7273.00,1.1054
7272.00,1.1137
7271.00,1.1220
7270.00,1.1300
7269.00,1.1373
7268.00,1.1438
7267.00,1.1493
7266.00,1.1535
7265.00,1.1569
7264.00,1.1600
7263.00,1.1634
7262.00,1.1674
7261.00,1.1717
7260.00,1.1760
7259.00,1.1800
7258.00,1.1837
7257.00,1.1872
7256.00,1.1900
7255.00,1.1915
7254.00,1.1919
7253.00,1.1916
7252.00,1.1915
7251.00,1.1916
7250.00,1.1914
7249.00,1.1903
7248.00,1.1888
7247.00,1.1876
7246.00,1.1865
7245.00,1.1852
7244.00,1.1830
7243.00,1.1802
7242.00,1.1771
7241.00,1.1737
7240.00,1.1698
7239.00,1.1650
7238.00,1.1599
7237.00,1.1547
7236.00,1.1492
7235.00,1.1431
7234.00,1.1362
7233.00,1.1288
7232.00,1.1214
7231.00,1.1139
7230.00,1.1062
7229.00,1.0983
7228.00,1.0903
7227.00,1.0823
7226.00,1.0742
7225.00,1.0659
7224.00,1.0570
7223.00,1.0474
7222.00,1.0374
7221.00,1.0272
7220.00,1.0169
7219.00,1.0064
7218.00,0.9958
7217.00,0.9854
7216.00,0.9752
7215.00,0.9650
7214.00,0.9544
7213.00,0.9434
7212.00,0.9324
7211.00,0.9219
7210.00,0.9119
7209.00,0.9022
7208.00,0.8926
7207.00,0.8833
7206.00,0.8742
7205.00,0.8653
7204.00,0.8564
7203.00,0.8477
7202.00,0.8393
7201.00,0.8317
7200.00,0.8245
7199.00,0.8177
7198.00,0.8112
7197.00,0.8052
7196.00,0.8000
7195.00,0.7956
7194.00,0.7917
7193.00,0.7882
7192.00,0.7853
7191.00,0.7832
7190.00,0.7820
7189.00,0.7813
7188.00,0.7810
7187.00,0.7811
7186.00,0.7819
7185.00,0.7837
7184.00,0.7863
7183.00,0.7892
7182.00,0.7922
7181.00,0.7954
7180.00,0.7992
7179.00,0.8038
7178.00,0.8093
7177.00,0.8153
7176.00,0.8216
7175.00,0.8282
7174.00,0.8351
7173.00,0.8425
7172.00,0.8500
7171.00,0.8575
7170.00,0.8650
7169.00,0.8729
7168.00,0.8812
7167.00,0.8901
7166.00,0.8992
7165.00,0.9081
7164.00,0.9167
7163.00,0.9255
7162.00,0.9345
7161.00,0.9438
7160.00,0.9529
7159.00,0.9619
7158.00,0.9711
7157.00,0.9805
7156.00,0.9902
7155.00,0.9998
7154.00,1.0089
7153.00,1.0179
7152.00,1.0266
7151.00,1.0351
7150.00,1.0431
7149.00,1.0509
7148.00,1.0589
7147.00,1.0671
7146.00,1.0753
7145.00,1.0831
7144.00,1.0904
7143.00,1.0972
7142.00,1.1035
7141.00,1.1093
7140.00,1.1146
7139.00,1.1199
7138.00,1.1255
7137.00,1.1316
7136.00,1.1378
7135.00,1.1437
7134.00,1.1488
7133.00,1.1530
7132.00,1.1565
7131.00,1.1595
7130.00,1.1621
7129.00,1.1644
7128.00,1.1666
7127.00,1.1685
7126.00,1.1701
7125.00,1.1715
7124.00,1.1727
7123.00,1.1737
7122.00,1.1743
7121.00,1.1742
7120.00,1.1737
7119.00,1.1731
7118.00,1.1725
7117.00,1.1716
7116.00,1.1701
7115.00,1.1681
7114.00,1.1660
7113.00,1.1641
7112.00,1.1621
7111.00,1.1591
7110.00,1.1549
7109.00,1.1497
7108.00,1.1442
7107.00,1.1387
7106.00,1.1334
7105.00,1.1281
7104.00,1.1227
7103.00,1.1172
7102.00,1.1114
7101.00,1.1051
7100.00,1.0982
7099.00,1.0909
7098.00,1.0832
7097.00,1.0751
7096.00,1.0665
7095.00,1.0575
7094.00,1.0483
7093.00,1.0391
7092.00,1.0296
7091.00,1.0196
7090.00,1.0092
7089.00,0.9988
7088.00,0.9886
7087.00,0.9788
7086.00,0.9690
7085.00,0.9592
7084.00,0.9494
7083.00,0.9397
7082.00,0.9299
7081.00,0.9199
7080.00,0.9099
7079.00,0.8999
7078.00,0.8901
7077.00,0.8803
7076.00,0.8707
7075.00,0.8615
7074.00,0.8528
7073.00,0.8445
7072.00,0.8364
7071.00,0.8285
7070.00,0.8211
7069.00,0.8146
7068.00,0.8087
7067.00,0.8033
7066.00,0.7981
7065.00,0.7933
7064.00,0.7891
7063.00,0.7853
7062.00,0.7820
7061.00,0.7794
7060.00,0.7776
7059.00,0.7765
7058.00,0.7762
7057.00,0.7764
7056.00,0.7773
7055.00,0.7787
7054.00,0.7808
7053.00,0.7834
7052.00,0.7867
7051.00,0.7905
7050.00,0.7948
7049.00,0.7997
7048.00,0.8049
7047.00,0.8106
7046.00,0.8166
7045.00,0.8231
7044.00,0.8302
7043.00,0.8378
7042.00,0.8455
7041.00,0.8532
7040.00,0.8610
7039.00,0.8693
7038.00,0.8780
7037.00,0.8870
7036.00,0.8961
7035.00,0.9053
7034.00,0.9149
7033.00,0.9249
7032.00,0.9351
7031.00,0.9451
7030.00,0.9549
7029.00,0.9647
7028.00,0.9748
7027.00,0.9848
7026.00,0.9945
7025.00,1.0038
7024.00,1.0128
7023.00,1.0219
7022.00,1.0311
7021.00,1.0404
7020.00,1.0496
7019.00,1.0587
7018.00,1.0677
7017.00,1.0767
7016.00,1.0855
7015.00,1.0941
7014.00,1.1023
7013.00,1.1100
7012.00,1.1173
7011.00,1.1244
7010.00,1.1312
7009.00,1.1378
7008.00,1.1442
7007.00,1.1505
7006.00,1.1571
7005.00,1.1638
7004.00,1.1700
7003.00,1.1753
7002.00,1.1798
7001.00,1.1841
7000.00,1.1884
6999.00,1.1923
6998.00,1.1954
6997.00,1.1978
6996.00,1.1999
6995.00,1.2020
6994.00,1.2040
6993.00,1.2055
6992.00,1.2065
6991.00,1.2070
6990.00,1.2075
6989.00,1.2080
6988.00,1.2081
6987.00,1.2075
6986.00,1.2061
6985.00,1.2040
6984.00,1.2015
6983.00,1.1988
6982.00,1.1961
6981.00,1.1930
6980.00,1.1893
6979.00,1.1850
6978.00,1.1804
6977.00,1.1755
6976.00,1.1701
6975.00,1.1642
6974.00,1.1577
6973.00,1.1509
6972.00,1.1440
6971.00,1.1371
6970.00,1.1300
6969.00,1.1228
6968.00,1.1154
6967.00,1.1075
6966.00,1.0990
6965.00,1.0897
6964.00,1.0797
6963.00,1.0691
6962.00,1.0582
6961.00,1.0474
6960.00,1.0369
6959.00,1.0266
6958.00,1.0162
6957.00,1.0056
6956.00,0.9950
6955.00,0.9839
6954.00,0.9725
6953.00,0.9607
6952.00,0.9492
6951.00,0.9381
6950.00,0.9275
6949.00,0.9170
6948.00,0.9065
6947.00,0.8961
6946.00,0.8860
6945.00,0.8759
6944.00,0.8660
6943.00,0.8564
6942.00,0.8475
6941.00,0.8392
6940.00,0.8313
6939.00,0.8239
6938.00,0.8170
6937.00,0.8107
6936.00,0.8049
6935.00,0.7995
6934.00,0.7947
6933.00,0.7904
6932.00,0.7866
6931.00,0.7834
6930.00,0.7808
6929.00,0.7791
6928.00,0.7780
6927.00,0.7776
6926.00,0.7779
6925.00,0.7791
6924.00,0.7809
6923.00,0.7831
6922.00,0.7858
6921.00,0.7892
6920.00,0.7934
6919.00,0.7982
6918.00,0.8036
6917.00,0.8094
6916.00,0.8154
6915.00,0.8217
6914.00,0.8283
6913.00,0.8351
6912.00,0.8423
6911.00,0.8499
6910.00,0.8580
6909.00,0.8666
6908.00,0.8756
6907.00,0.8849
6906.00,0.8944
6905.00,0.9039
6904.00,0.9130
6903.00,0.9220
6902.00,0.9312
6901.00,0.9407
6900.00,0.9504
6899.00,0.9602
6898.00,0.9702
6897.00,0.9806
6896.00,0.9910
6895.00,1.0013
6894.00,1.0114
6893.00,1.0212
6892.00,1.0306
6891.00,1.0397
6890.00,1.0490
6889.00,1.0584
6888.00,1.0675
6887.00,1.0761
6886.00,1.0840
6885.00,1.0916
6884.00,1.0992
6883.00,1.1068
6882.00,1.1144
6881.00,1.1218
6880.00,1.1291
6879.00,1.1365
6878.00,1.1439
6877.00,1.1509
6876.00,1.1568
6875.00,1.1620
6874.00,1.1670
6873.00,1.1722
6872.00,1.1774
6871.00,1.1818
6870.00,1.1855
6869.00,1.1890
6868.00,1.1924
6867.00,1.1951
6866.00,1.1970
6865.00,1.1984
6864.00,1.1996
6863.00,1.2008
6862.00,1.2020
6861.00,1.2027
6860.00,1.2028
6859.00,1.2021
6858.00,1.2008
6857.00,1.1991
6856.00,1.1970
6855.00,1.1949
6854.00,1.1928
6853.00,1.1907
6852.00,1.1885
6851.00,1.1858
6850.00,1.1824
6849.00,1.1784
6848.00,1.1735
6847.00,1.1680
6846.00,1.1624
6845.00,1.1569
6844.00,1.1514
6843.00,1.1456
6842.00,1.1392
6841.00,1.1326
6840.00,1.1256
6839.00,1.1181
6838.00,1.1101
6837.00,1.1016
6836.00,1.0928
6835.00,1.0836
6834.00,1.0743
6833.00,1.0647
6832.00,1.0548
6831.00,1.0444
6830.00,1.0339
6829.00,1.0234
6828.00,1.0131
6827.00,1.0029
6826.00,0.9928
6825.00,0.9824
6824.00,0.9719
6823.00,0.9612
6822.00,0.9503
6821.00,0.9393
6820.00,0.9280
6819.00,0.9166
6818.00,0.9057
6817.00,0.8954
6816.00,0.8855
6815.00,0.8756
6814.00,0.8658
6813.00,0.8562
6812.00,0.8470
6811.00,0.8381
6810.00,0.8293
6809.00,0.8211
6808.00,0.8136
6807.00,0.8068
6806.00,0.8008
6805.00,0.7953
6804.00,0.7903
6803.00,0.7858
6802.00,0.7817
6801.00,0.7781
6800.00,0.7752
6799.00,0.7728
6798.00,0.7711
6797.00,0.7703
6796.00,0.7704
6795.00,0.7713
6794.00,0.7728
6793.00,0.7749
6792.00,0.7776
6791.00,0.7808
6790.00,0.7846
6789.00,0.7890
6788.00,0.7941
6787.00,0.7999
6786.00,0.8061
6785.00,0.8127
6784.00,0.8195
6783.00,0.8265
6782.00,0.8340
6781.00,0.8420
6780.00,0.8501
6779.00,0.8585
6778.00,0.8672
6777.00,0.8764
6776.00,0.8861
6775.00,0.8960
6774.00,0.9059
6773.00,0.9159
6772.00,0.9261
6771.00,0.9363
6770.00,0.9463
6769.00,0.9561
6768.00,0.9660
6767.00,0.9763
6766.00,0.9871
6765.00,0.9979
6764.00,1.0087
6763.00,1.0190
6762.00,1.0290
6761.00,1.0385
6760.00,1.0479
6759.00,1.0571
6758.00,1.0662
6757.00,1.0755
6756.00,1.0849
6755.00,1.0943
6754.00,1.1036
6753.00,1.1125
6752.00,1.1209
6751.00,1.1288
6750.00,1.1365
6749.00,1.1440
6748.00,1.1512
6747.00,1.1579
6746.00,1.1643
6745.00,1.1704
6744.00,1.1765
6743.00,1.1825
6742.00,1.1883
6741.00,1.1937
6740.00,1.1987
6739.00,1.2034
6738.00,1.2076
6737.00,1.2112
6736.00,1.2138
6735.00,1.2156
6734.00,1.2168
6733.00,1.2181
6732.00,1.2194
6731.00,1.2209
6730.00,1.2222
6729.00,1.2234
6728.00,1.2242
6727.00,1.2242
6726.00,1.2233
6725.00,1.2215
6724.00,1.2189
6723.00,1.2160
6722.00,1.2131
6721.00,1.2103
6720.00,1.2072
6719.00,1.2035
6718.00,1.1994
6717.00,1.1950
6716.00,1.1901
6715.00,1.1848
6714.00,1.1791
6713.00,1.1732
6712.00,1.1670
6711.00,1.1602
6710.00,1.1529
6709.00,1.1451
6708.00,1.1369
6707.00,1.1278
6706.00,1.1181
6705.00,1.1082
6704.00,1.0982
6703.00,1.0883
6702.00,1.0781
6701.00,1.0678
6700.00,1.0573
6699.00,1.0464
6698.00,1.0354
6697.00,1.0243
6696.00,1.0132
6695.00,1.0021
6694.00,0.9908
6693.00,0.9792
6692.00,0.9675
6691.00,0.9558
6690.00,0.9439
6689.00,0.9321
6688.00,0.9204
6687.00,0.9090
6686.00,0.8981
6685.00,0.8876
6684.00,0.8772
6683.00,0.8670
6682.00,0.8571
6681.00,0.8476
6680.00,0.8387
6679.00,0.8303
6678.00,0.8223
6677.00,0.8149
6676.00,0.8079
6675.00,0.8014
6674.00,0.7953
6673.00,0.7899
6672.00,0.7853
6671.00,0.7814
6670.00,0.7782
6669.00,0.7757
6668.00,0.7740
6667.00,0.7729
6666.00,0.7726
6665.00,0.7730
6664.00,0.7740
6663.00,0.7757
6662.00,0.7779
6661.00,0.7806
6660.00,0.7839
6659.00,0.7879
6658.00,0.7927
6657.00,0.7982
6656.00,0.8045
6655.00,0.8113
6654.00,0.8186
6653.00,0.8262
6652.00,0.8340
6651.00,0.8419
6650.00,0.8501
6649.00,0.8585
6648.00,0.8672
6647.00,0.8764
6646.00,0.8859
6645.00,0.8958
6644.00,0.9056
6643.00,0.9153
6642.00,0.9254
6641.00,0.9359
6640.00,0.9466
6639.00,0.9572
6638.00,0.9675
6637.00,0.9778
6636.00,0.9880
6635.00,0.9982
6634.00,1.0080
6633.00,1.0177
6632.00,1.0275
6631.00,1.0376
6630.00,1.0478
6629.00,1.0580
6628.00,1.0677
6627.00,1.0769
6626.00,1.0859
6625.00,1.0948
6624.00,1.1035
6623.00,1.1119
6622.00,1.1201
6621.00,1.1282
6620.00,1.1361
6619.00,1.1437
6618.00,1.1510
6617.00,1.1582
6616.00,1.1651
6615.00,1.1713
6614.00,1.1767
6613.00,1.1815
6612.00,1.1859
6611.00,1.1901
6610.00,1.1944
6609.00,1.1987
6608.00,1.2026
6607.00,1.2061
6606.00,1.2089
6605.00,1.2112
6604.00,1.2127
6603.00,1.2134
6602.00,1.2134
6601.00,1.2135
6600.00,1.2140
6599.00,1.2143
6598.00,1.2140
6597.00,1.2130
6596.00,1.2117
6595.00,1.2103
6594.00,1.2085
6593.00,1.2060
6592.00,1.2029
6591.00,1.1995
6590.00,1.1960
6589.00,1.1923
6588.00,1.1881
6587.00,1.1833
6586.00,1.1781
6585.00,1.1726
6584.00,1.1668
6583.00,1.1605
6582.00,1.1540
6581.00,1.1475
6580.00,1.1409
6579.00,1.1340
6578.00,1.1264
6577.00,1.1180
6576.00,1.1093
6575.00,1.1005
6574.00,1.0917
6573.00,1.0825
6572.00,1.0731
6571.00,1.0636
6570.00,1.0538
6569.00,1.0436
6568.00,1.0326
6567.00,1.0213
6566.00,1.0101
6565.00,0.9990
6564.00,0.9880
6563.00,0.9768
6562.00,0.9655
6561.00,0.9542
6560.00,0.9429
6559.00,0.9315
6558.00,0.9202
6557.00,0.9089
6556.00,0.8977
6555.00,0.8868
6554.00,0.8763
6553.00,0.8660
6552.00,0.8560
6551.00,0.8463
6550.00,0.8371
6549.00,0.8285
6548.00,0.8202
6547.00,0.8122
6546.00,0.8047
6545.00,0.7978
6544.00,0.7914
6543.00,0.7857
6542.00,0.7807
6541.00,0.7764
6540.00,0.7729
6539.00,0.7701
6538.00,0.7681
6537.00,0.7668
6536.00,0.7660
6535.00,0.7659
6534.00,0.7665
6533.00,0.7679
6532.00,0.7701
6531.00,0.7730
6530.00,0.7766
6529.00,0.7809
6528.00,0.7858
6527.00,0.7911
6526.00,0.7971
6525.00,0.8036
6524.00,0.8106
6523.00,0.8180
6522.00,0.8259
6521.00,0.8342
6520.00,0.8428
6519.00,0.8516
6518.00,0.8609
6517.00,0.8706
6516.00,0.8806
6515.00,0.8909
6514.00,0.9015
6513.00,0.9122
6512.00,0.9229
6511.00,0.9335
6510.00,0.9441
6509.00,0.9548
6508.00,0.9656
6507.00,0.9763
6506.00,0.9871
6505.00,0.9982
6504.00,1.0095
6503.00,1.0207
6502.00,1.0317
6501.00,1.0426
6500.00,1.0533
6499.00,1.0635
6498.00,1.0732
6497.00,1.0826
6496.00,1.0918
6495.00,1.1009
6494.00,1.1099
6493.00,1.1190
6492.00,1.1283
6491.00,1.1376
6490.00,1.1466
6489.00,1.1553
6488.00,1.1636
6487.00,1.1713
6486.00,1.1783
6485.00,1.1847
6484.00,1.1906
6483.00,1.1964
6482.00,1.2021
6481.00,1.2077
6480.00,1.2131
6479.00,1.2183
6478.00,1.2234
6477.00,1.2286
6476.00,1.2334
6475.00,1.2374
6474.00,1.2404
6473.00,1.2426
6472.00,1.2442
6471.00,1.2453
6470.00,1.2461
6469.00,1.2468
6468.00,1.2473
6467.00,1.2474
6466.00,1.2469
6465.00,1.2458
6464.00,1.2442
6463.00,1.2423
6462.00,1.2400
6461.00,1.2371
6460.00,1.2340
6459.00,1.2308
6458.00,1.2273
6457.00,1.2232
6456.00,1.2185
6455.00,1.2131
6454.00,1.2071
6453.00,1.2010
6452.00,1.1948
6451.00,1.1882
6450.00,1.1812
6449.00,1.1737
6448.00,1.1658
6447.00,1.1572
6446.00,1.1477
6445.00,1.1377
6444.00,1.1276
6443.00,1.1177
6442.00,1.1079
6441.00,1.0978
6440.00,1.0874
6439.00,1.0764
6438.00,1.0650
6437.00,1.0532
6436.00,1.0410
6435.00,1.0286
6434.00,1.0162
6433.00,1.0040
6432.00,0.9917
6431.00,0.9793
6430.00,0.9668
6429.00,0.9545
6428.00,0.9423
6427.00,0.9303
6426.00,0.9185
6425.00,0.9068
6424.00,0.8953
6423.00,0.8841
6422.00,0.8732
6421.00,0.8627
6420.00,0.8524
6419.00,0.8425
6418.00,0.8331
6417.00,0.8241
6416.00,0.8158
6415.00,0.8082
6414.00,0.8011
6413.00,0.7947
6412.00,0.7889
6411.00,0.7837
6410.00,0.7793
6409.00,0.7756
6408.00,0.7726
6407.00,0.7704
6406.00,0.7691
6405.00,0.7688
6404.00,0.7693
6403.00,0.7705
6402.00,0.7723
6401.00,0.7747
6400.00,0.7778
6399.00,0.7815
6398.00,0.7859
6397.00,0.7910
6396.00,0.7966
6395.00,0.8028
6394.00,0.8096
6393.00,0.8170
6392.00,0.8249
6391.00,0.8331
6390.00,0.8416
6389.00,0.8505
6388.00,0.8599
6387.00,0.8695
6386.00,0.8792
6385.00,0.8891
6384.00,0.8992
6383.00,0.9096
6382.00,0.9203
6381.00,0.9311
6380.00,0.9419
6379.00,0.9527
6378.00,0.9637
6377.00,0.9747
6376.00,0.9858
6375.00,0.9968
6374.00,1.0080
6373.00,1.0192
6372.00,1.0301
6371.00,1.0406
6370.00,1.0508
6369.00,1.0609
6368.00,1.0710
6367.00,1.0808
6366.00,1.0905
6365.00,1.1002
6364.00,1.1099
6363.00,1.1194
6362.00,1.1283
6361.00,1.1368
6360.00,1.1449
6359.00,1.1528
6358.00,1.1606
6357.00,1.1683
6356.00,1.1756
6355.00,1.1824
6354.00,1.1886
6353.00,1.1943
6352.00,1.1994
6351.00,1.2041
6350.00,1.2085
6349.00,1.2127
6348.00,1.2167
6347.00,1.2202
6346.00,1.2232
6345.00,1.2258
6344.00,1.2284
6343.00,1.2307
6342.00,1.2327
6341.00,1.2345
6340.00,1.2359
6339.00,1.2369
6338.00,1.2371
6337.00,1.2366
6336.00,1.2356
6335.00,1.2343
6334.00,1.2328
6333.00,1.2311
6332.00,1.2293
6331.00,1.2272
6330.00,1.2245
6329.00,1.2212
6328.00,1.2171
6327.00,1.2125
6326.00,1.2074
6325.00,1.2019
6324.00,1.1961
6323.00,1.1903
6322.00,1.1845
6321.00,1.1784
6320.00,1.1720
6319.00,1.1650
6318.00,1.1574
6317.00,1.1493
6316.00,1.1407
6315.00,1.1317
6314.00,1.1225
6313.00,1.1129
6312.00,1.1030
6311.00,1.0928
6310.00,1.0823
6309.00,1.0716
6308.00,1.0607
6307.00,1.0497
6306.00,1.0384
6305.00,1.0270
6304.00,1.0151
6303.00,1.0031
6302.00,0.9911
6301.00,0.9791
6300.00,0.9670
6299.00,0.9547
6298.00,0.9424
6297.00,0.9304
6296.00,0.9185
6295.00,0.9066
6294.00,0.8948
6293.00,0.8833
6292.00,0.8722
6291.00,0.8614
6290.00,0.8508
6289.00,0.8406
6288.00,0.8308
6287.00,0.8216
6286.00,0.8130
6285.00,0.8050
6284.00,0.7976
6283.00,0.7909
6282.00,0.7850
6281.00,0.7799
6280.00,0.7754
6279.00,0.7715
6278.00,0.7683
6277.00,0.7659
6276.00,0.7642
6275.00,0.7632
6274.00,0.7630
6273.00,0.7637
6272.00,0.7653
6271.00,0.7678
6270.00,0.7710
6269.00,0.7747
6268.00,0.7790
6267.00,0.7840
6266.00,0.7897
6265.00,0.7961
6264.00,0.8032
6263.00,0.8107
6262.00,0.8189
6261.00,0.8276
6260.00,0.8366
6259.00,0.8459
6258.00,0.8554
6257.00,0.8653
6256.00,0.8754
6255.00,0.8858
6254.00,0.8965
6253.00,0.9075
6252.00,0.9186
6251.00,0.9299
6250.00,0.9413
6249.00,0.9531
6248.00,0.9650
6247.00,0.9768
6246.00,0.9884
6245.00,0.9998
6244.00,1.0112
6243.00,1.0227
6242.00,1.0341
6241.00,1.0454
6240.00,1.0566
6239.00,1.0676
6238.00,1.0785
6237.00,1.0891
6236.00,1.0994
6235.00,1.1095
6234.00,1.1194
6233.00,1.1292
6232.00,1.1390
6231.00,1.1485
6230.00,1.1577
6229.00,1.1665
6228.00,1.1753
6227.00,1.1838
6226.00,1.1920
6225.00,1.1997
6224.00,1.2071
6223.00,1.2144
6222.00,1.2213
6221.00,1.2275
6220.00,1.2332
6219.00,1.2386
6218.00,1.2439
6217.00,1.2485
6216.00,1.2524
6215.00,1.2555
6214.00,1.2583
6213.00,1.2606
6212.00,1.2624
6211.00,1.2639
6210.00,1.2654
6209.00,1.2668
6208.00,1.2682
6207.00,1.2690
6206.00,1.2691
6205.00,1.2684
6204.00,1.2670
6203.00,1.2652
6202.00,1.2631
6201.00,1.2607
6200.00,1.2580
6199.00,1.2551
6198.00,1.2517
6197.00,1.2478
6196.00,1.2434
6195.00,1.2387
6194.00,1.2336
6193.00,1.2278
6192.00,1.2211
6191.00,1.2138
6190.00,1.2063
6189.00,1.1987
6188.00,1.1910
6187.00,1.1831
6186.00,1.1750
6185.00,1.1667
6184.00,1.1578
6183.00,1.1480
6182.00,1.1373
6181.00,1.1261
6180.00,1.1144
6179.00,1.1023
6178.00,1.0902
6177.00,1.0781
6176.00,1.0659
6175.00,1.0536
6174.00,1.0413
6173.00,1.0288
6172.00,1.0161
6171.00,1.0031
6170.00,0.9898
6169.00,0.9766
6168.00,0.9633
6167.00,0.9500
6166.00,0.9368
6165.00,0.9237
6164.00,0.9110
6163.00,0.8987
6162.00,0.8867
6161.00,0.8751
6160.00,0.8638
6159.00,0.8527
6158.00,0.8419
6157.00,0.8317
6156.00,0.8221
6155.00,0.8131
6154.00,0.8049
6153.00,0.7976
6152.00,0.7910
6151.00,0.7851
6150.00,0.7796
6149.00,0.7747
6148.00,0.7706
6147.00,0.7673
6146.00,0.7649
6145.00,0.7633
6144.00,0.7627
6143.00,0.7630
6142.00,0.7643
6141.00,0.7663
6140.00,0.7691
6139.00,0.7724
6138.00,0.7765
6137.00,0.7814
6136.00,0.7871
6135.00,0.7934
6134.00,0.8003
6133.00,0.8077
6132.00,0.8156
6131.00,0.8239
6130.00,0.8326
6129.00,0.8419
6128.00,0.8516
6127.00,0.8614
6126.00,0.8716
6125.00,0.8822
6124.00,0.8931
6123.00,0.9042
6122.00,0.9154
6121.00,0.9267
6120.00,0.9383
6119.00,0.9499
6118.00,0.9614
6117.00,0.9728
6116.00,0.9843
6115.00,0.9958
6114.00,1.0076
6113.00,1.0194
6112.00,1.0309
6111.00,1.0423
6110.00,1.0535
6109.00,1.0645
6108.00,1.0753
6107.00,1.0859
6106.00,1.0963
6105.00,1.1065
6104.00,1.1165
6103.00,1.1264
6102.00,1.1359
6101.00,1.1449
6100.00,1.1533
6099.00,1.1612
6098.00,1.1687
6097.00,1.1760
6096.00,1.1832
6095.00,1.1903
6094.00,1.1976
6093.00,1.2051
6092.00,1.2123
6091.00,1.2192
6090.00,1.2254
6089.00,1.2311
6088.00,1.2364
6087.00,1.2414
6086.00,1.2460
6085.00,1.2499
6084.00,1.2531
6083.00,1.2557
6082.00,1.2577
6081.00,1.2591
6080.00,1.2602
6079.00,1.2612
6078.00,1.2622
6077.00,1.2633
6076.00,1.2642
6075.00,1.2649
6074.00,1.2652
6073.00,1.2648
6072.00,1.2637
6071.00,1.2621
6070.00,1.2601
6069.00,1.2578
6068.00,1.2549
6067.00,1.2514
6066.00,1.2472
6065.00,1.2426
6064.00,1.2373
6063.00,1.2315
6062.00,1.2255
6061.00,1.2193
6060.00,1.2128
6059.00,1.2059
6058.00,1.1984
6057.00,1.1905
6056.00,1.1823
6055.00,1.1739
6054.00,1.1651
6053.00,1.1560
6052.00,1.1463
6051.00,1.1358
6050.00,1.1247
6049.00,1.1132
6048.00,1.1014
6047.00,1.0894
6046.00,1.0774
6045.00,1.0654
6044.00,1.0531
6043.00,1.0403
6042.00,1.0271
6041.00,1.0139
6040.00,1.0006
6039.00,0.9872
6038.00,0.9736
6037.00,0.9600
6036.00,0.9467
6035.00,0.9334
6034.00,0.9203
6033.00,0.9074
6032.00,0.8949
6031.00,0.8828
6030.00,0.8710
6029.00,0.8596
6028.00,0.8485
6027.00,0.8377
6026.00,0.8275
6025.00,0.8178
6024.00,0.8089
6023.00,0.8007
6022.00,0.7933
6021.00,0.7865
6020.00,0.7806
6019.00,0.7754
6018.00,0.7711
6017.00,0.7676
6016.00,0.7651
6015.00,0.7635
6014.00,0.7627
6013.00,0.7627
6012.00,0.7636
6011.00,0.7652
6010.00,0.7675
6009.00,0.7707
6008.00,0.7748
6007.00,0.7798
6006.00,0.7855
6005.00,0.7919
6004.00,0.7989
6003.00,0.8064
6002.00,0.8145
6001.00,0.8231
6000.00,0.8323
5999.00,0.8421
5998.00,0.8523
5997.00,0.8629
5996.00,0.8738
5995.00,0.8850
5994.00,0.8963
5993.00,0.9078
5992.00,0.9194
5991.00,0.9312
5990.00,0.9430
5989.00,0.9551
5988.00,0.9673
5987.00,0.9797
5986.00,0.9921
5985.00,1.0044
5984.00,1.0165
5983.00,1.0285
5982.00,1.0404
5981.00,1.0525
5980.00,1.0646
5979.00,1.0767
5978.00,1.0887
5977.00,1.1004
5976.00,1.1118
5975.00,1.1227
5974.00,1.1333
5973.00,1.1437
5972.00,1.1541
5971.00,1.1644
5970.00,1.1742
5969.00,1.1836
5968.00,1.1928
5967.00,1.2018
5966.00,1.2105
5965.00,1.2188
5964.00,1.2266
5963.00,1.2341
5962.00,1.2413
5961.00,1.2479
5960.00,1.2539
5959.00,1.2597
5958.00,1.2652
5957.00,1.2704
5956.00,1.2752
5955.00,1.2796
5954.00,1.2839
5953.00,1.2879
5952.00,1.2914
5951.00,1.2942
5950.00,1.2964
5949.00,1.2980
5948.00,1.2990
5947.00,1.2993
5946.00,1.2992
5945.00,1.2990
5944.00,1.2987
5943.00,1.2979
5942.00,1.2966
5941.00,1.2946
5940.00,1.2923
5939.00,1.2896
5938.00,1.2866
5937.00,1.2830
5936.00,1.2787
5935.00,1.2739
5934.00,1.2688
5933.00,1.2636
5932.00,1.2581
5931.00,1.2523
5930.00,1.2458
5929.00,1.2386
5928.00,1.2306
5927.00,1.2219
5926.00,1.2123
5925.00,1.2024
5924.00,1.1923
5923.00,1.1822
5922.00,1.1718
5921.00,1.1611
5920.00,1.1500
5919.00,1.1385
5918.00,1.1266
5917.00,1.1142
5916.00,1.1016
5915.00,1.0886
5914.00,1.0753
5913.00,1.0617
5912.00,1.0479
5911.00,1.0341
5910.00,1.0202
5909.00,1.0065
5908.00,0.9929
5907.00,0.9792
5906.00,0.9656
5905.00,0.9519
5904.00,0.9381
5903.00,0.9244
5902.00,0.9110
5901.00,0.8981
5900.00,0.8857
5899.00,0.8738
5898.00,0.8623
5897.00,0.8512
5896.00,0.8408
5895.00,0.8310
5894.00,0.8219
5893.00,0.8134
5892.00,0.8057
5891.00,0.7987
5890.00,0.7925
5889.00,0.7871
5888.00,0.7827
5887.00,0.7791
5886.00,0.7763
5885.00,0.7745
5884.00,0.7736
5883.00,0.7736
5882.00,0.7746
5881.00,0.7764
5880.00,0.7791
5879.00,0.7827
5878.00,0.7870
5877.00,0.7921
5876.00,0.7978
5875.00,0.8042
5874.00,0.8113
5873.00,0.8191
5872.00,0.8275
5871.00,0.8363
5870.00,0.8455
5869.00,0.8553
5868.00,0.8654
5867.00,0.8760
5866.00,0.8868
5865.00,0.8980
5864.00,0.9095
5863.00,0.9214
5862.00,0.9335
5861.00,0.9457
5860.00,0.9579
5859.00,0.9703
5858.00,0.9827
5857.00,0.9952
5856.00,1.0077
5855.00,1.0200
5854.00,1.0322
5853.00,1.0444
5852.00,1.0564
5851.00,1.0685
5850.00,1.0805
5849.00,1.0926
5848.00,1.1046
5847.00,1.1165
5846.00,1.1281
5845.00,1.1395
5844.00,1.1507
5843.00,1.1618
5842.00,1.1727
5841.00,1.1834
5840.00,1.1939
5839.00,1.2040
5838.00,1.2136
5837.00,1.2228
5836.00,1.2316
5835.00,1.2399
5834.00,1.2476
5833.00,1.2549
5832.00,1.2618
5831.00,1.2685
5830.00,1.2751
5829.00,1.2815
5828.00,1.2877
5827.00,1.2935
5826.00,1.2988
5825.00,1.3035
5824.00,1.3076
5823.00,1.3113
5822.00,1.3145
5821.00,1.3171
5820.00,1.3190
5819.00,1.3207
5818.00,1.3222
5817.00,1.3231
5816.00,1.3232
5815.00,1.3228
5814.00,1.3221
5813.00,1.3209
5812.00,1.3190
5811.00,1.3166
5810.00,1.3140
5809.00,1.3114
5808.00,1.3087
5807.00,1.3055
5806.00,1.3018
5805.00,1.2977
5804.00,1.2930
5803.00,1.2877
5802.00,1.2819
5801.00,1.2758
5800.00,1.2695
5799.00,1.2629
5798.00,1.2555
5797.00,1.2473
5796.00,1.2383
5795.00,1.2288
5794.00,1.2191
5793.00,1.2092
5792.00,1.1990
5791.00,1.1885
5790.00,1.1774
5789.00,1.1658
5788.00,1.1535
5787.00,1.1408
5786.00,1.1281
5785.00,1.1153
5784.00,1.1023
5783.00,1.0890
5782.00,1.0752
5781.00,1.0612
5780.00,1.0467
5779.00,1.0320
5778.00,1.0172
5777.00,1.0025
5776.00,0.9878
5775.00,0.9733
5774.00,0.9590
5773.00,0.9451
5772.00,0.9315
5771.00,0.9182
5770.00,0.9050
5769.00,0.8922
5768.00,0.8796
5767.00,0.8673
5766.00,0.8557
5765.00,0.8447
5764.00,0.8345
5763.00,0.8251
5762.00,0.8165
5761.00,0.8086
5760.00,0.8014
5759.00,0.7950
5758.00,0.7894
5757.00,0.7849
5756.00,0.7813
5755.00,0.7786
5754.00,0.7769
5753.00,0.7762
5752.00,0.7764
5751.00,0.7774
5750.00,0.7792
5749.00,0.7819
5748.00,0.7855
5747.00,0.7900
5746.00,0.7954
5745.00,0.8015
5744.00,0.8084
5743.00,0.8159
5742.00,0.8240
5741.00,0.8328
5740.00,0.8421
5739.00,0.8519
5738.00,0.8621
5737.00,0.8727
5736.00,0.8836
5735.00,0.8947
5734.00,0.9062
5733.00,0.9180
5732.00,0.9301
5731.00,0.9425
5730.00,0.9550
5729.00,0.9676
5728.00,0.9802
5727.00,0.9928
5726.00,1.0054
5725.00,1.0179
5724.00,1.0306
5723.00,1.0433
5722.00,1.0562
5721.00,1.0691
5720.00,1.0818
5719.00,1.0944
5718.00,1.1066
5717.00,1.1185
5716.00,1.1303
5715.00,1.1420
5714.00,1.1538
5713.00,1.1655
5712.00,1.1770
5711.00,1.1880
5710.00,1.1986
5709.00,1.2088
5708.00,1.2185
5707.00,1.2279
5706.00,1.2369
5705.00,1.2457
5704.00,1.2542
5703.00,1.2622
5702.00,1.2699
5701.00,1.2772
5700.00,1.2840
5699.00,1.2902
5698.00,1.2960
5697.00,1.3016
5696.00,1.3071
5695.00,1.3124
5694.00,1.3173
5693.00,1.3215
5692.00,1.3249
5691.00,1.3276
5690.00,1.3296
5689.00,1.3311
5688.00,1.3323
5687.00,1.3333
5686.00,1.3341
5685.00,1.3345
5684.00,1.3343
5683.00,1.3334
5682.00,1.3321
5681.00,1.3303
5680.00,1.3279
5679.00,1.3249
5678.00,1.3215
5677.00,1.3180
5676.00,1.3144
5675.00,1.3103
5674.00,1.3055
5673.00,1.3002
5672.00,1.2944
5671.00,1.2882
5670.00,1.2813
5669.00,1.2740
5668.00,1.2664
5667.00,1.2586
5666.00,1.2504
5665.00,1.2417
5664.00,1.2325
5663.00,1.2229
5662.00,1.2127
5661.00,1.2022
5660.00,1.1914
5659.00,1.1800
5658.00,1.1680
5657.00,1.1554
5656.00,1.1424
5655.00,1.1291
5654.00,1.1156
5653.00,1.1020
5652.00,1.0883
5651.00,1.0745
5650.00,1.0604
5649.00,1.0461
5648.00,1.0314
5647.00,1.0166
5646.00,1.0018
5645.00,0.9869
5644.00,0.9722
5643.00,0.9575
5642.00,0.9429
5641.00,0.9284
5640.00,0.9143
5639.00,0.9005
5638.00,0.8870
5637.00,0.8740
5636.00,0.8614
5635.00,0.8494
5634.00,0.8380
5633.00,0.8272
5632.00,0.8171
5631.00,0.8078
5630.00,0.7994
5629.00,0.7919
5628.00,0.7853
5627.00,0.7795
5626.00,0.7745
5625.00,0.7705
5624.00,0.7675
5623.00,0.7655
5622.00,0.7645
5621.00,0.7647
5620.00,0.7658
5619.00,0.7680
5618.00,0.7711
5617.00,0.7751
5616.00,0.7800
5615.00,0.7857
5614.00,0.7922
5613.00,0.7995
5612.00,0.8074
5611.00,0.8159
5610.00,0.8251
5609.00,0.8348
5608.00,0.8452
5607.00,0.8561
5606.00,0.8673
5605.00,0.8789
5604.00,0.8908
5603.00,0.9031
5602.00,0.9156
5601.00,0.9284
5600.00,0.9414
5599.00,0.9547
5598.00,0.9682
5597.00,0.9818
5596.00,0.9954
5595.00,1.0091
5594.00,1.0227
5593.00,1.0362
5592.00,1.0496
5591.00,1.0630
5590.00,1.0764
5589.00,1.0898
5588.00,1.1031
5587.00,1.1162
5586.00,1.1289
5585.00,1.1414
5584.00,1.1536
5583.00,1.1656
5582.00,1.1776
5581.00,1.1893
5580.00,1.2007
5579.00,1.2118
5578.00,1.2224
5577.00,1.2327
5576.00,1.2427
5575.00,1.2522
5574.00,1.2614
5573.00,1.2700
5572.00,1.2781
5571.00,1.2859
5570.00,1.2933
5569.00,1.3005
5568.00,1.3073
5567.00,1.3135
5566.00,1.3192
5565.00,1.3243
5564.00,1.3289
5563.00,1.3330
5562.00,1.3367
5561.00,1.3399
5560.00,1.3425
5559.00,1.3447
5558.00,1.3466
5557.00,1.3484
5556.00,1.3497
5555.00,1.3505
5554.00,1.3507
5553.00,1.3504
5552.00,1.3495
5551.00,1.3481
5550.00,1.3461
5549.00,1.3438
5548.00,1.3412
5547.00,1.3383
5546.00,1.3351
5545.00,1.3315
5544.00,1.3274
5543.00,1.3226
5542.00,1.3170
5541.00,1.3108
5540.00,1.3041
5539.00,1.2973
5538.00,1.2902
5537.00,1.2827
5536.00,1.2746
5535.00,1.2658
5534.00,1.2566
5533.00,1.2469
5532.00,1.2368
5531.00,1.2262
5530.00,1.2151
5529.00,1.2036
5528.00,1.1915
5527.00,1.1789
5526.00,1.1659
5525.00,1.1525
5524.00,1.1387
5523.00,1.1246
5522.00,1.1100
5521.00,1.0952
5520.00,1.0802
5519.00,1.0652
5518.00,1.0501
5517.00,1.0348
5516.00,1.0193
5515.00,1.0037
5514.00,0.9881
5513.00,0.9725
5512.00,0.9571
5511.00,0.9418
5510.00,0.9268
5509.00,0.9120
5508.00,0.8975
5507.00,0.8833
5506.00,0.8696
5505.00,0.8563
5504.00,0.8436
5503.00,0.8317
5502.00,0.8206
5501.00,0.8104
5500.00,0.8012
5499.00,0.7927
5498.00,0.7850
5497.00,0.7782
5496.00,0.7724
5495.00,0.7676
5494.00,0.7638
5493.00,0.7611
5492.00,0.7595
5491.00,0.7589
5490.00,0.7592
5489.00,0.7607
5488.00,0.7632
5487.00,0.7667
5486.00,0.7712
5485.00,0.7766
5484.00,0.7829
5483.00,0.7900
5482.00,0.7979
5481.00,0.8065
5480.00,0.8158
5479.00,0.8256
5478.00,0.8358
5477.00,0.8465
5476.00,0.8576
5475.00,0.8692
5474.00,0.8813
5473.00,0.8936
5472.00,0.9062
5471.00,0.9190
5470.00,0.9320
5469.00,0.9452
5468.00,0.9586
5467.00,0.9722
5466.00,0.9858
5465.00,0.9993
5464.00,1.0127
5463.00,1.0262
5462.00,1.0397
5461.00,1.0533
5460.00,1.0668
5459.00,1.0802
5458.00,1.0935
5457.00,1.1066
5456.00,1.1193
5455.00,1.1318
5454.00,1.1444
5453.00,1.1568
5452.00,1.1691
5451.00,1.1810
5450.00,1.1925
5449.00,1.2037
5448.00,1.2145
5447.00,1.2250
5446.00,1.2354
5445.00,1.2456
5444.00,1.2554
5443.00,1.2646
5442.00,1.2734
5441.00,1.2818
5440.00,1.2898
5439.00,1.2973
5438.00,1.3045
5437.00,1.3112
5436.00,1.3175
5435.00,1.3233
5434.00,1.3288
5433.00,1.3338
5432.00,1.3384
5431.00,1.3426
5430.00,1.3464
5429.00,1.3498
5428.00,1.3525
5427.00,1.3548
5426.00,1.3566
5425.00,1.3580
5424.00,1.3589
5423.00,1.3595
5422.00,1.3598
5421.00,1.3598
5420.00,1.3591
5419.00,1.3574
5418.00,1.3549
5417.00,1.3519
5416.00,1.3486
5415.00,1.3448
5414.00,1.3408
5413.00,1.3365
5412.00,1.3318
5411.00,1.3265
5410.00,1.3207
5409.00,1.3144
5408.00,1.3077
5407.00,1.3004
5406.00,1.2926
5405.00,1.2842
5404.00,1.2753
5403.00,1.2660
5402.00,1.2563
5401.00,1.2462
5400.00,1.2355
5399.00,1.2242
5398.00,1.2122
5397.00,1.1996
5396.00,1.1865
5395.00,1.1729
5394.00,1.1590
5393.00,1.1448
5392.00,1.1303
5391.00,1.1155
5390.00,1.1004
5389.00,1.0850
5388.00,1.0693
5387.00,1.0533
5386.00,1.0371
5385.00,1.0208
5384.00,1.0045
5383.00,0.9880
5382.00,0.9717
5381.00,0.9556
5380.00,0.9397
5379.00,0.9241
5378.00,0.9087
5377.00,0.8937
5376.00,0.8790
5375.00,0.8649
5374.00,0.8515
5373.00,0.8388
5372.00,0.8269
5371.00,0.8158
5370.00,0.8054
5369.00,0.7961
5368.00,0.7877
5367.00,0.7803
5366.00,0.7739
5365.00,0.7686
5364.00,0.7644
5363.00,0.7612
5362.00,0.7592
5361.00,0.7584
5360.00,0.7586
5359.00,0.7600
5358.00,0.7625
5357.00,0.7662
5356.00,0.7709
5355.00,0.7765
5354.00,0.7831
5353.00,0.7906
5352.00,0.7990
5351.00,0.8081
5350.00,0.8179
5349.00,0.8285
5348.00,0.8396
5347.00,0.8512
5346.00,0.8635
5345.00,0.8763
5344.00,0.8896
5343.00,0.9032
5342.00,0.9169
5341.00,0.9307
5340.00,0.9446
5339.00,0.9588
5338.00,0.9735
5337.00,0.9887
5336.00,1.0040
5335.00,1.0192
5334.00,1.0342
5333.00,1.0489
5332.00,1.0635
5331.00,1.0780
5330.00,1.0923
5329.00,1.1066
5328.00,1.1208
5327.00,1.1352
5326.00,1.1495
5325.00,1.1637
5324.00,1.1774
5323.00,1.1906
5322.00,1.2035
5321.00,1.2162
5320.00,1.2284
5319.00,1.2404
5318.00,1.2520
5317.00,1.2631
5316.00,1.2737
5315.00,1.2838
5314.00,1.2934
5313.00,1.3026
5312.00,1.3114
5311.00,1.3197
5310.00,1.3277
5309.00,1.3352
5308.00,1.3421
5307.00,1.3488
5306.00,1.3552
5305.00,1.3614
5304.00,1.3672
5303.00,1.3724
5302.00,1.3771
5301.00,1.3809
5300.00,1.3841
5299.00,1.3867
5298.00,1.3891
5297.00,1.3912
5296.00,1.3928
5295.00,1.3936
5294.00,1.3937
5293.00,1.3933
5292.00,1.3925
5291.00,1.3915
5290.00,1.3903
5289.00,1.3887
5288.00,1.3866
5287.00,1.3839
5286.00,1.3806
5285.00,1.3767
5284.00,1.3724
5283.00,1.3676
5282.00,1.3625
5281.00,1.3569
5280.00,1.3507
5279.00,1.3439
5278.00,1.3366
5277.00,1.3290
5276.00,1.3211
5275.00,1.3128
5274.00,1.3039
5273.00,1.2944
5272.00,1.2841
5271.00,1.2731
5270.00,1.2618
5269.00,1.2501
5268.00,1.2381
5267.00,1.2258
5266.00,1.2130
5265.00,1.1994
5264.00,1.1852
5263.00,1.1702
5262.00,1.1549
5261.00,1.1394
5260.00,1.1237
5259.00,1.1079
5258.00,1.0919
5257.00,1.0756
5256.00,1.0591
5255.00,1.0423
5254.00,1.0253
5253.00,1.0084
5252.00,0.9916
5251.00,0.9749
5250.00,0.9584
5249.00,0.9420
5248.00,0.9259
5247.00,0.9101
5246.00,0.8948
5245.00,0.8800
5244.00,0.8658
5243.00,0.8523
5242.00,0.8396
5241.00,0.8277
5240.00,0.8168
5239.00,0.8069
5238.00,0.7978
5237.00,0.7897
5236.00,0.7827
5235.00,0.7766
5234.00,0.7717
5233.00,0.7679
5232.00,0.7653
5231.00,0.7639
5230.00,0.7636
5229.00,0.7645
5228.00,0.7664
5227.00,0.7695
5226.00,0.7737
5225.00,0.7790
5224.00,0.7852
5223.00,0.7924
5222.00,0.8004
5221.00,0.8092
5220.00,0.8187
5219.00,0.8289
5218.00,0.8399
5217.00,0.8516
5216.00,0.8637
5215.00,0.8763
5214.00,0.8893
5213.00,0.9028
5212.00,0.9165
5211.00,0.9305
5210.00,0.9447
5209.00,0.9589
5208.00,0.9733
5207.00,0.9880
5206.00,1.0030
5205.00,1.0184
5204.00,1.0338
5203.00,1.0491
5202.00,1.0643
5201.00,1.0794
5200.00,1.0941
5199.00,1.1088
5198.00,1.1234
5197.00,1.1381
5196.00,1.1526
5195.00,1.1668
5194.00,1.1808
5193.00,1.1945
5192.00,1.2078
5191.00,1.2209
5190.00,1.2337
5189.00,1.2462
5188.00,1.2582
5187.00,1.2698
5186.00,1.2809
5185.00,1.2917
5184.00,1.3022
5183.00,1.3124
5182.00,1.3221
5181.00,1.3313
5180.00,1.3398
5179.00,1.3478
5178.00,1.3555
5177.00,1.3628
5176.00,1.3697
5175.00,1.3760
5174.00,1.3817
5173.00,1.3869
5172.00,1.3915
5171.00,1.3956
5170.00,1.3994
5169.00,1.4031
5168.00,1.4065
5167.00,1.4095
5166.00,1.4120
5165.00,1.4137
5164.00,1.4145
5163.00,1.4146
5162.00,1.4143
5161.00,1.4140
5160.00,1.4134
5159.00,1.4123
5158.00,1.4106
5157.00,1.4083
5156.00,1.4052
5155.00,1.4017
5154.00,1.3978
5153.00,1.3935
5152.00,1.3887
5151.00,1.3833
5150.00,1.3773
5149.00,1.3708
5148.00,1.3638
5147.00,1.3564
5146.00,1.3485
5145.00,1.3401
5144.00,1.3311
5143.00,1.3214
5142.00,1.3113
5141.00,1.3007
5140.00,1.2899
5139.00,1.2786
5138.00,1.2669
5137.00,1.2547
5136.00,1.2419
5135.00,1.2283
5134.00,1.2141
5133.00,1.1995
5132.00,1.1844
5131.00,1.1689
5130.00,1.1529
5129.00,1.1366
5128.00,1.1201
5127.00,1.1033
5126.00,1.0863
5125.00,1.0690
5124.00,1.0515
5123.00,1.0338
5122.00,1.0161
5121.00,0.9985
5120.00,0.9810
5119.00,0.9636
5118.00,0.9464
5117.00,0.9296
5116.00,0.9130
5115.00,0.8969
5114.00,0.8814
5113.00,0.8666
5112.00,0.8525
5111.00,0.8393
5110.00,0.8269
5109.00,0.8155
5108.00,0.8051
5107.00,0.7957
5106.00,0.7875
5105.00,0.7805
5104.00,0.7747
5103.00,0.7703
5102.00,0.7671
5101.00,0.7652
5100.00,0.7646
5099.00,0.7652
5098.00,0.7671
5097.00,0.7702
5096.00,0.7746
5095.00,0.7800
5094.00,0.7865
5093.00,0.7941
5092.00,0.8025
5091.00,0.8119
5090.00,0.8222
5089.00,0.8331
5088.00,0.8448
5087.00,0.8571
5086.00,0.8700
5085.00,0.8834
5084.00,0.8972
5083.00,0.9114
5082.00,0.9260
5081.00,0.9410
5080.00,0.9564
5079.00,0.9719
5078.00,0.9877
5077.00,1.0036
5076.00,1.0196
5075.00,1.0355
5074.00,1.0515
5073.00,1.0674
5072.00,1.0832
5071.00,1.0991
5070.00,1.1151
5069.00,1.1311
5068.00,1.1469
5067.00,1.1623
5066.00,1.1773
5065.00,1.1919
5064.00,1.2062
5063.00,1.2203
5062.00,1.2343
5061.00,1.2479
5060.00,1.2610
5059.00,1.2736
5058.00,1.2858
5057.00,1.2977
5056.00,1.3092
5055.00,1.3204
5054.00,1.3312
5053.00,1.3416
5052.00,1.3514
5051.00,1.3606
5050.00,1.3692
5049.00,1.3775
5048.00,1.3853
5047.00,1.3925
5046.00,1.3991
5045.00,1.4051
5044.00,1.4108
5043.00,1.4161
5042.00,1.4212
5041.00,1.4259
5040.00,1.4301
5039.00,1.4335
5038.00,1.4363
5037.00,1.4384
5036.00,1.4401
5035.00,1.4415
5034.00,1.4427
5033.00,1.4434
5032.00,1.4437
5031.00,1.4434
5030.00,1.4423
5029.00,1.4407
5028.00,1.4385
5027.00,1.4360
5026.00,1.4330
5025.00,1.4294
5024.00,1.4252
5023.00,1.4202
5022.00,1.4147
5021.00,1.4089
5020.00,1.4028
5019.00,1.3965
5018.00,1.3901
5017.00,1.3832
5016.00,1.3757
5015.00,1.3675
5014.00,1.3586
5013.00,1.3490
5012.00,1.3387
5011.00,1.3279
5010.00,1.3165
5009.00,1.3047
5008.00,1.2923
5007.00,1.2796
5006.00,1.2664
5005.00,1.2527
5004.00,1.2385
5003.00,1.2236
5002.00,1.2083
5001.00,1.1925
5000.00,1.1763
4999.00,1.1596
4998.00,1.1424
4997.00,1.1248
4996.00,1.1067
4995.00,1.0883
4994.00,1.0697
4993.00,1.0510
4992.00,1.0321
4991.00,1.0132
4990.00,0.9943
4989.00,0.9755
4988.00,0.9569
4987.00,0.9385
4986.00,0.9206
4985.00,0.9033
4984.00,0.8865
4983.00,0.8704
4982.00,0.8550
4981.00,0.8405
4980.00,0.8270
4979.00,0.8145
4978.00,0.8030
4977.00,0.7927
4976.00,0.7835
4975.00,0.7754
4974.00,0.7686
4973.00,0.7631
4972.00,0.7589
4971.00,0.7561
4970.00,0.7547
4969.00,0.7546
4968.00,0.7560
4967.00,0.7587
4966.00,0.7627
4965.00,0.7680
4964.00,0.7746
4963.00,0.7822
4962.00,0.7909
4961.00,0.8006
4960.00,0.8112
4959.00,0.8225
4958.00,0.8347
4957.00,0.8475
4956.00,0.8609
4955.00,0.8750
4954.00,0.8896
4953.00,0.9048
4952.00,0.9204
4951.00,0.9363
4950.00,0.9526
4949.00,0.9690
4948.00,0.9857
4947.00,1.0023
4946.00,1.0191
4945.00,1.0360
4944.00,1.0529
4943.00,1.0698
4942.00,1.0868
4941.00,1.1037
4940.00,1.1206
4939.00,1.1374
4938.00,1.1539
4937.00,1.1700
4936.00,1.1858
4935.00,1.2013
4934.00,1.2166
4933.00,1.2318
4932.00,1.2467
4931.00,1.2612
4930.00,1.2753
4929.00,1.2888
4928.00,1.3019
4927.00,1.3145
4926.00,1.3267
4925.00,1.3383
4924.00,1.3494
4923.00,1.3600
4922.00,1.3700
4921.00,1.3796
4920.00,1.3887
4919.00,1.3975
4918.00,1.4059
4917.00,1.4139
4916.00,1.4216
4915.00,1.4289
4914.00,1.4354
4913.00,1.4412
4912.00,1.4463
4911.00,1.4508
4910.00,1.4548
4909.00,1.4582
4908.00,1.4612
4907.00,1.4638
4906.00,1.4660
4905.00,1.4679
4904.00,1.4693
4903.00,1.4704
4902.00,1.4707
4901.00,1.4701
4900.00,1.4690
4899.00,1.4674
4898.00,1.4658
4897.00,1.4638
4896.00,1.4613
4895.00,1.4582
4894.00,1.4542
4893.00,1.4495
4892.00,1.4442
4891.00,1.4386
4890.00,1.4329
4889.00,1.4270
4888.00,1.4205
4887.00,1.4135
4886.00,1.4058
4885.00,1.3973
4884.00,1.3881
4883.00,1.3783
4882.00,1.3681
4881.00,1.3574
4880.00,1.3463
4879.00,1.3347
4878.00,1.3226
4877.00,1.3098
4876.00,1.2963
4875.00,1.2823
4874.00,1.2677
4873.00,1.2525
4872.00,1.2368
4871.00,1.2204
4870.00,1.2036
4869.00,1.1862
4868.00,1.1684
4867.00,1.1502
4866.00,1.1316
4865.00,1.1125
4864.00,1.0932
4863.00,1.0736
4862.00,1.0539
4861.00,1.0343
4860.00,1.0148
4859.00,0.9953
4858.00,0.9759
4857.00,0.9568
4856.00,0.9380
4855.00,0.9197
4854.00,0.9020
4853.00,0.8850
4852.00,0.8687
4851.00,0.8532
4850.00,0.8387
4849.00,0.8252
4848.00,0.8129
4847.00,0.8017
4846.00,0.7918
4845.00,0.7831
4844.00,0.7757
4843.00,0.7698
4842.00,0.7653
4841.00,0.7624
4840.00,0.7609
4839.00,0.7610
4838.00,0.7624
4837.00,0.7653
4836.00,0.7696
4835.00,0.7752
4834.00,0.7821
4833.00,0.7902
4832.00,0.7995
4831.00,0.8099
4830.00,0.8212
4829.00,0.8335
4828.00,0.8465
4827.00,0.8602
4826.00,0.8746
4825.00,0.8897
4824.00,0.9053
4823.00,0.9214
4822.00,0.9379
4821.00,0.9547
4820.00,0.9717
4819.00,0.9890
4818.00,1.0064
4817.00,1.0241
4816.00,1.0418
4815.00,1.0596
4814.00,1.0775
4813.00,1.0953
4812.00,1.1129
4811.00,1.1305
4810.00,1.1480
4809.00,1.1653
4808.00,1.1824
4807.00,1.1991
4806.00,1.2156
4805.00,1.2318
4804.00,1.2476
4803.00,1.2631
4802.00,1.2782
4801.00,1.2930
4800.00,1.3074
4799.00,1.3213
4798.00,1.3345
4797.00,1.3472
4796.00,1.3594
4795.00,1.3713
4794.00,1.3830
4793.00,1.3943
4792.00,1.4050
4791.00,1.4149
4790.00,1.4241
4789.00,1.4326
4788.00,1.4407
4787.00,1.4483
4786.00,1.4556
4785.00,1.4623
4784.00,1.4685
4783.00,1.4741
4782.00,1.4793
4781.00,1.4840
4780.00,1.4882
4779.00,1.4918
4778.00,1.4948
4777.00,1.4970
4776.00,1.4986
4775.00,1.4998
4774.00,1.5005
4773.00,1.5010
4772.00,1.5012
4771.00,1.5010
4770.00,1.5002
4769.00,1.4985
4768.00,1.4961
4767.00,1.4933
4766.00,1.4902
4765.00,1.4869
4764.00,1.4834
4763.00,1.4793
4762.00,1.4745
4761.00,1.4690
4760.00,1.4629
4759.00,1.4564
4758.00,1.4495
4757.00,1.4420
4756.00,1.4338
4755.00,1.4249
4754.00,1.4155
4753.00,1.4057
4752.00,1.3953
4751.00,1.3844
4750.00,1.3730
4749.00,1.3611
4748.00,1.3486
4747.00,1.3353
4746.00,1.3214
4745.00,1.3068
4744.00,1.2915
4743.00,1.2756
4742.00,1.2593
4741.00,1.2425
4740.00,1.2253
4739.00,1.2075
4738.00,1.1892
4737.00,1.1703
4736.00,1.1510
4735.00,1.1313
4734.00,1.1113
4733.00,1.0911
4732.00,1.0708
4731.00,1.0503
4730.00,1.0297
4729.00,1.0092
4728.00,0.9887
4727.00,0.9686
4726.00,0.9489
4725.00,0.9297
4724.00,0.9111
4723.00,0.8933
4722.00,0.8761
4721.00,0.8599
4720.00,0.8446
4719.00,0.8303
4718.00,0.8173
4717.00,0.8055
4716.00,0.7951
4715.00,0.7861
4714.00,0.7786
4713.00,0.7727
4712.00,0.7683
4711.00,0.7655
4710.00,0.7643
4709.00,0.7647
4708.00,0.7667
4707.00,0.7702
4706.00,0.7753
4705.00,0.7818
4704.00,0.7897
4703.00,0.7988
4702.00,0.8091
4701.00,0.8204
4700.00,0.8328
4699.00,0.8461
4698.00,0.8602
4697.00,0.8752
4696.00,0.8910
4695.00,0.9074
4694.00,0.9243
4693.00,0.9415
4692.00,0.9591
4691.00,0.9771
4690.00,0.9953
4689.00,1.0139
4688.00,1.0327
4687.00,1.0516
4686.00,1.0704
4685.00,1.0891
4684.00,1.1078
4683.00,1.1262
4682.00,1.1445
4681.00,1.1625
4680.00,1.1801
4679.00,1.1976
4678.00,1.2148
4677.00,1.2319
4676.00,1.2489
4675.00,1.2657
4674.00,1.2820
4673.00,1.2978
4672.00,1.3129
4671.00,1.3274
4670.00,1.3414
4669.00,1.3551
4668.00,1.3685
4667.00,1.3815
4666.00,1.3940
4665.00,1.4058
4664.00,1.4171
4663.00,1.4278
4662.00,1.4383
4661.00,1.4483
4660.00,1.4579
4659.00,1.4669
4658.00,1.4752
4657.00,1.4829
4656.00,1.4898
4655.00,1.4960
4654.00,1.5017
4653.00,1.5071
4652.00,1.5123
4651.00,1.5172
4650.00,1.5217
4649.00,1.5256
4648.00,1.5290
4647.00,1.5317
4646.00,1.5339
4645.00,1.5356
4644.00,1.5368
4643.00,1.5374
4642.00,1.5376
4641.00,1.5372
4640.00,1.5360
4639.00,1.5343
4638.00,1.5320
4637.00,1.5295
4636.00,1.5269
4635.00,1.5241
4634.00,1.5208
4633.00,1.5169
4632.00,1.5123
4631.00,1.5070
4630.00,1.5012
4629.00,1.4949
4628.00,1.4880
4627.00,1.4806
4626.00,1.4725
4625.00,1.4640
4624.00,1.4551
4623.00,1.4459
4622.00,1.4360
4621.00,1.4254
4620.00,1.4139
4619.00,1.4016
4618.00,1.3889
4617.00,1.3756
4616.00,1.3619
4615.00,1.3475
4614.00,1.3323
4613.00,1.3162
4612.00,1.2996
4611.00,1.2826
4610.00,1.2653
4609.00,1.2476
4608.00,1.2294
4607.00,1.2104
4606.00,1.1907
4605.00,1.1705
4604.00,1.1498
4603.00,1.1288
4602.00,1.1075
4601.00,1.0860
4600.00,1.0644
4599.00,1.0428
4598.00,1.0213
4597.00,1.0000
4596.00,0.9792
4595.00,0.9587
4594.00,0.9388
4593.00,0.9194
4592.00,0.9008
4591.00,0.8829
4590.00,0.8661
4589.00,0.8503
4588.00,0.8357
4587.00,0.8224
4586.00,0.8106
4585.00,0.8002
4584.00,0.7914
4583.00,0.7843
4582.00,0.7787
4581.00,0.7749
4580.00,0.7728
4579.00,0.7724
4578.00,0.7738
4577.00,0.7768
4576.00,0.7815
4575.00,0.7877
4574.00,0.7954
4573.00,0.8044
4572.00,0.8148
4571.00,0.8263
4570.00,0.8390
4569.00,0.8527
4568.00,0.8673
4567.00,0.8826
4566.00,0.8987
4565.00,0.9155
4564.00,0.9329
4563.00,0.9508
4562.00,0.9692
4561.00,0.9879
4560.00,1.0068
4559.00,1.0259
4558.00,1.0453
4557.00,1.0647
4556.00,1.0843
4555.00,1.1037
4554.00,1.1232
4553.00,1.1426
4552.00,1.1619
4551.00,1.1812
4550.00,1.2002
4549.00,1.2190
4548.00,1.2375
4547.00,1.2557
4546.00,1.2735
4545.00,1.2910
4544.00,1.3080
4543.00,1.3246
4542.00,1.3408
4541.00,1.3565
4540.00,1.3717
4539.00,1.3863
4538.00,1.4004
4537.00,1.4140
4536.00,1.4270
4535.00,1.4394
4534.00,1.4512
4533.00,1.4623
4532.00,1.4729
4531.00,1.4831
4530.00,1.4925
4529.00,1.5013
4528.00,1.5093
4527.00,1.5170
4526.00,1.5243
4525.00,1.5315
4524.00,1.5381
4523.00,1.5441
4522.00,1.5494
4521.00,1.5541
4520.00,1.5583
4519.00,1.5621
4518.00,1.5653
4517.00,1.5679
4516.00,1.5699
4515.00,1.5713
4514.00,1.5723
4513.00,1.5726
4512.00,1.5723
4511.00,1.5715
4510.00,1.5703
4509.00,1.5687
4508.00,1.5666
4507.00,1.5641
4506.00,1.5610
4505.00,1.5576
4504.00,1.5536
4503.00,1.5491
4502.00,1.5439
4501.00,1.5380
4500.00,1.5314
4499.00,1.5242
4498.00,1.5165
4497.00,1.5086
4496.00,1.5002
4495.00,1.4914
4494.00,1.4820
4493.00,1.4718
4492.00,1.4609
4491.00,1.4493
4490.00,1.4370
4489.00,1.4241
4488.00,1.4107
4487.00,1.3968
4486.00,1.3824
4485.00,1.3674
4484.00,1.3516
4483.00,1.3350
4482.00,1.3176
4481.00,1.2996
4480.00,1.2808
4479.00,1.2615
4478.00,1.2417
4477.00,1.2214
4476.00,1.2006
4475.00,1.1793
4474.00,1.1575
4473.00,1.1353
4472.00,1.1126
4471.00,1.0898
4470.00,1.0669
4469.00,1.0442
4468.00,1.0217
4467.00,0.9996
4466.00,0.9778
4465.00,0.9565
4464.00,0.9357
4463.00,0.9157
4462.00,0.8966
4461.00,0.8785
4460.00,0.8615
4459.00,0.8458
4458.00,0.8315
4457.00,0.8187
4456.00,0.8075
4455.00,0.7980
4454.00,0.7902
4453.00,0.7841
4452.00,0.7799
4451.00,0.7776
4450.00,0.7771
4449.00,0.7785
4448.00,0.7818
4447.00,0.7868
4446.00,0.7935
4445.00,0.8019
4444.00,0.8117
4443.00,0.8230
4442.00,0.8356
4441.00,0.8493
4440.00,0.8640
4439.00,0.8797
4438.00,0.8962
4437.00,0.9136
4436.00,0.9317
4435.00,0.9504
4434.00,0.9697
4433.00,0.9893
4432.00,1.0092
4431.00,1.0293
4430.00,1.0495
4429.00,1.0700
4428.00,1.0906
4427.00,1.1113
4426.00,1.1321
4425.00,1.1528
4424.00,1.1734
4423.00,1.1939
4422.00,1.2140
4421.00,1.2340
4420.00,1.2537
4419.00,1.2730
4418.00,1.2921
4417.00,1.3108
4416.00,1.3290
4415.00,1.3468
4414.00,1.3641
4413.00,1.3809
4412.00,1.3972
4411.00,1.4129
4410.00,1.4281
4409.00,1.4426
4408.00,1.4565
4407.00,1.4698
4406.00,1.4827
4405.00,1.4952
4404.00,1.5071
4403.00,1.5185
4402.00,1.5291
4401.00,1.5390
4400.00,1.5484
4399.00,1.5572
4398.00,1.5654
4397.00,1.5730
4396.00,1.5798
4395.00,1.5861
4394.00,1.5918
4393.00,1.5973
4392.00,1.6024
4391.00,1.6070
4390.00,1.6109
4389.00,1.6142
4388.00,1.6170
4387.00,1.6193
4386.00,1.6212
4385.00,1.6227
4384.00,1.6236
4383.00,1.6240
4382.00,1.6238
4381.00,1.6233
4380.00,1.6223
4379.00,1.6207
4378.00,1.6188
4377.00,1.6165
4376.00,1.6140
4375.00,1.6112
4374.00,1.6077
4373.00,1.6034
4372.00,1.5985
4371.00,1.5931
4370.00,1.5874
4369.00,1.5815
4368.00,1.5749
4367.00,1.5676
4366.00,1.5598
4365.00,1.5517
4364.00,1.5432
4363.00,1.5342
4362.00,1.5246
4361.00,1.5142
4360.00,1.5032
4359.00,1.4915
4358.00,1.4791
4357.00,1.4661
4356.00,1.4524
4355.00,1.4381
4354.00,1.4231
4353.00,1.4077
4352.00,1.3917
4351.00,1.3753
4350.00,1.3583
4349.00,1.3406
4348.00,1.3222
4347.00,1.3031
4346.00,1.2832
4345.00,1.2628
4344.00,1.2419
4343.00,1.2205
4342.00,1.1988
4341.00,1.1768
4340.00,1.1546
4339.00,1.1320
4338.00,1.1093
4337.00,1.0865
4336.00,1.0637
4335.00,1.0412
4334.00,1.0192
4333.00,0.9978
4332.00,0.9772
4331.00,0.9575
4330.00,0.9388
4329.00,0.9213
4328.00,0.9052
4327.00,0.8906
4326.00,0.8775
4325.00,0.8663
4324.00,0.8568
4323.00,0.8493
4322.00,0.8438
4321.00,0.8402
4320.00,0.8385
4319.00,0.8387
4318.00,0.8408
4317.00,0.8446
4316.00,0.8502
4315.00,0.8575
4314.00,0.8663
4313.00,0.8766
4312.00,0.8882
4311.00,0.9009
4310.00,0.9147
4309.00,0.9294
4308.00,0.9450
4307.00,0.9615
4306.00,0.9789
4305.00,0.9969
4304.00,1.0155
4303.00,1.0345
4302.00,1.0540
4301.00,1.0738
4300.00,1.0939
4299.00,1.1142
4298.00,1.1346
4297.00,1.1551
4296.00,1.1756
4295.00,1.1963
4294.00,1.2168
4293.00,1.2373
4292.00,1.2576
4291.00,1.2776
4290.00,1.2973
4289.00,1.3165
4288.00,1.3353
4287.00,1.3536
4286.00,1.3716
4285.00,1.3892
4284.00,1.4062
4283.00,1.4227
4282.00,1.4385
4281.00,1.4539
4280.00,1.4688
4279.00,1.4831
4278.00,1.4966
4277.00,1.5095
4276.00,1.5217
4275.00,1.5337
4274.00,1.5452
4273.00,1.5563
4272.00,1.5665
4271.00,1.5759
4270.00,1.5847
4269.00,1.5934
4268.00,1.6018
4267.00,1.6098
4266.00,1.6170
4265.00,1.6235
4264.00,1.6293
4263.00,1.6346
4262.00,1.6395
4261.00,1.6440
4260.00,1.6482
4259.00,1.6519
4258.00,1.6550
4257.00,1.6576
4256.00,1.6594
4255.00,1.6607
4254.00,1.6617
4253.00,1.6624
4252.00,1.6627
4251.00,1.6625
4250.00,1.6616
4249.00,1.6601
4248.00,1.6580
4247.00,1.6552
4246.00,1.6520
4245.00,1.6486
4244.00,1.6448
4243.00,1.6406
4242.00,1.6357
4241.00,1.6301
4240.00,1.6238
4239.00,1.6170
4238.00,1.6099
4237.00,1.6023
4236.00,1.5941
4235.00,1.5851
4234.00,1.5754
4233.00,1.5651
4232.00,1.5541
4231.00,1.5428
4230.00,1.5310
4229.00,1.5187
4228.00,1.5058
4227.00,1.4922
4226.00,1.4779
4225.00,1.4630
4224.00,1.4474
4223.00,1.4312
4222.00,1.4144
4221.00,1.3969
4220.00,1.3787
4219.00,1.3600
4218.00,1.3407
4217.00,1.3209
4216.00,1.3004
4215.00,1.2794
4214.00,1.2577
4213.00,1.2357
4212.00,1.2133
4211.00,1.1906
4210.00,1.1676
4209.00,1.1444
4208.00,1.1212
4207.00,1.0981
4206.00,1.0752
4205.00,1.0526
4204.00,1.0305
4203.00,1.0090
4202.00,0.9881
4201.00,0.9680
4200.00,0.9490
4199.00,0.9312
4198.00,0.9149
4197.00,0.9000
4196.00,0.8868
4195.00,0.8752
4194.00,0.8655
4193.00,0.8576
4192.00,0.8518
4191.00,0.8479
4190.00,0.8461
4189.00,0.8462
4188.00,0.8484
4187.00,0.8524
4186.00,0.8584
4185.00,0.8661
4184.00,0.8754
4183.00,0.8861
4182.00,0.8983
4181.00,0.9116
4180.00,0.9262
4179.00,0.9419
4178.00,0.9587
4177.00,0.9762
4176.00,0.9946
4175.00,1.0135
4174.00,1.0330
4173.00,1.0530
4172.00,1.0733
4171.00,1.0940
4170.00,1.1149
4169.00,1.1361
4168.00,1.1574
4167.00,1.1787
4166.00,1.2000
4165.00,1.2212
4164.00,1.2424
4163.00,1.2634
4162.00,1.2844
4161.00,1.3052
4160.00,1.3257
4159.00,1.3458
4158.00,1.3656
4157.00,1.3850
4156.00,1.4041
4155.00,1.4226
4154.00,1.4404
4153.00,1.4576
4152.00,1.4742
4151.00,1.4904
4150.00,1.5062
4149.00,1.5214
4148.00,1.5361
4147.00,1.5501
4146.00,1.5633
4145.00,1.5756
4144.00,1.5872
4143.00,1.5982
4142.00,1.6089
4141.00,1.6192
4140.00,1.6292
4139.00,1.6387
4138.00,1.6476
4137.00,1.6558
4136.00,1.6632
4135.00,1.6698
4134.00,1.6759
4133.00,1.6817
4132.00,1.6870
4131.00,1.6919
4130.00,1.6960
4129.00,1.6994
4128.00,1.7024
4127.00,1.7051
4126.00,1.7076
4125.00,1.7099
4124.00,1.7115
4123.00,1.7124
4122.00,1.7125
4121.00,1.7121
4120.00,1.7112
4119.00,1.7098
4118.00,1.7080
4117.00,1.7056
4116.00,1.7029
4115.00,1.6997
4114.00,1.6959
4113.00,1.6913
4112.00,1.6860
4111.00,1.6801
4110.00,1.6740
4109.00,1.6677
4108.00,1.6610
4107.00,1.6536
4106.00,1.6453
4105.00,1.6362
4104.00,1.6266
4103.00,1.6166
4102.00,1.6061
4101.00,1.5949
4100.00,1.5829
4099.00,1.5701
4098.00,1.5568
4097.00,1.5430
4096.00,1.5286
4095.00,1.5135
4094.00,1.4978
4093.00,1.4812
4092.00,1.4637
4091.00,1.4455
4090.00,1.4265
4089.00,1.4067
4088.00,1.3863
4087.00,1.3652
4086.00,1.3433
4085.00,1.3209
4084.00,1.2979
4083.00,1.2744
4082.00,1.2504
4081.00,1.2260
4080.00,1.2011
4079.00,1.1759
4078.00,1.1507
4077.00,1.1255
4076.00,1.1005
4075.00,1.0757
4074.00,1.0513
4073.00,1.0274
4072.00,1.0042
4071.00,0.9820
4070.00,0.9610
4069.00,0.9412
4068.00,0.9230
4067.00,0.9064
4066.00,0.8916
4065.00,0.8788
4064.00,0.8681
4063.00,0.8595
4062.00,0.8533
4061.00,0.8494
4060.00,0.8478
4059.00,0.8485
4058.00,0.8514
4057.00,0.8565
4056.00,0.8637
4055.00,0.8729
4054.00,0.8838
4053.00,0.8965
4052.00,0.9106
4051.00,0.9261
4050.00,0.9429
4049.00,0.9608
4048.00,0.9796
4047.00,0.9992
4046.00,1.0195
4045.00,1.0404
4044.00,1.0619
4043.00,1.0837
4042.00,1.1059
4041.00,1.1282
4040.00,1.1508
4039.00,1.1734
4038.00,1.1962
4037.00,1.2189
4036.00,1.2416
4035.00,1.2641
4034.00,1.2864
4033.00,1.3086
4032.00,1.3306
4031.00,1.3522
4030.00,1.3736
4029.00,1.3944
4028.00,1.4149
4027.00,1.4351
4026.00,1.4550
4025.00,1.4745
4024.00,1.4933
4023.00,1.5112
4022.00,1.5283
4021.00,1.5447
4020.00,1.5605
4019.00,1.5758
4018.00,1.5904
4017.00,1.6043
4016.00,1.6175
4015.00,1.6300
4014.00,1.6418
4013.00,1.6530
4012.00,1.6636
4011.00,1.6737
4010.00,1.6833
4009.00,1.6922
4008.00,1.7005
4007.00,1.7081
4006.00,1.7149
4005.00,1.7209
4004.00,1.7265
4003.00,1.7317
4002.00,1.7367
4001.00,1.7413
4000.00,1.7452
3999.00,1.7487
3998.00,1.7517
3997.00,1.7542
3996.00,1.7560
3995.00,1.7569
3994.00,1.7571
3993.00,1.7567
3992.00,1.7559
3991.00,1.7549
3990.00,1.7537
3989.00,1.7521
3988.00,1.7498
3987.00,1.7466
3986.00,1.7427
3985.00,1.7382
3984.00,1.7335
3983.00,1.7285
3982.00,1.7232
3981.00,1.7170
3980.00,1.7100
3979.00,1.7023
3978.00,1.6940
3977.00,1.6852
3976.00,1.6758
3975.00,1.6657
3974.00,1.6550
3973.00,1.6438
3972.00,1.6323
3971.00,1.6201
3970.00,1.6073
3969.00,1.5937
3968.00,1.5794
3967.00,1.5647
3966.00,1.5495
3965.00,1.5338
3964.00,1.5175
3963.00,1.5005
3962.00,1.4828
3961.00,1.4644
3960.00,1.4454
3959.00,1.4258
3958.00,1.4055
3957.00,1.3845
3956.00,1.3630
3955.00,1.3408
3954.00,1.3180
3953.00,1.2946
3952.00,1.2706
3951.00,1.2461
3950.00,1.2211
3949.00,1.1959
3948.00,1.1704
3947.00,1.1448
3946.00,1.1194
3945.00,1.0943
3944.00,1.0695
3943.00,1.0451
3942.00,1.0213
3941.00,0.9985
3940.00,0.9769
3939.00,0.9568
3938.00,0.9384
3937.00,0.9216
3936.00,0.9068
3935.00,0.8939
3934.00,0.8832
3933.00,0.8747
3932.00,0.8685
3931.00,0.8645
3930.00,0.8629
3929.00,0.8637
3928.00,0.8667
3927.00,0.8720
3926.00,0.8796
3925.00,0.8895
3924.00,0.9013
3923.00,0.9148
3922.00,0.9297
3921.00,0.9461
3920.00,0.9639
3919.00,0.9829
3918.00,1.0033
3917.00,1.0248
3916.00,1.0474
3915.00,1.0706
3914.00,1.0940
3913.00,1.1174
3912.00,1.1411
3911.00,1.1649
3910.00,1.1889
3909.00,1.2130
3908.00,1.2368
3907.00,1.2604
3906.00,1.2838
3905.00,1.3075
3904.00,1.3319
3903.00,1.3568
3902.00,1.3818
3901.00,1.4067
3900.00,1.4309
3899.00,1.4545
3898.00,1.4770
3897.00,1.4984
3896.00,1.5186
3895.00,1.5377
3894.00,1.5555
3893.00,1.5727
3892.00,1.5896
3891.00,1.6068
3890.00,1.6237
3889.00,1.6394
3888.00,1.6539
3887.00,1.6676
3886.00,1.6810
3885.00,1.6941
3884.00,1.7062
3883.00,1.7172
3882.00,1.7274
3881.00,1.7371
3880.00,1.7462
3879.00,1.7544
3878.00,1.7618
3877.00,1.7685
3876.00,1.7748
3875.00,1.7807
3874.00,1.7862
3873.00,1.7911
3872.00,1.7954
3871.00,1.7993
3870.00,1.8031
3869.00,1.8066
3868.00,1.8097
3867.00,1.8119
3866.00,1.8135
3865.00,1.8144
3864.00,1.8144
3863.00,1.8137
3862.00,1.8126
3861.00,1.8109
3860.00,1.8085
3859.00,1.8057
3858.00,1.8027
3857.00,1.7998
3856.00,1.7970
3855.00,1.7939
3854.00,1.7899
3853.00,1.7845
3852.00,1.7777
3851.00,1.7701
3850.00,1.7624
3849.00,1.7542
3848.00,1.7448
3847.00,1.7343
3846.00,1.7234
3845.00,1.7123
3844.00,1.7009
3843.00,1.6890
3842.00,1.6766
3841.00,1.6636
3840.00,1.6501
3839.00,1.6355
3838.00,1.6196
3837.00,1.6025
3836.00,1.5845
3835.00,1.5659
3834.00,1.5465
3833.00,1.5258
3832.00,1.5038
3831.00,1.4808
3830.00,1.4572
3829.00,1.4333
3828.00,1.4089
3827.00,1.3836
3826.00,1.3575
3825.00,1.3310
3824.00,1.3044
3823.00,1.2770
3822.00,1.2478
3821.00,1.2162
3820.00,1.1840
3819.00,1.1532
3818.00,1.1244
3817.00,1.0965
3816.00,1.0682
3815.00,1.0395
3814.00,1.0119
3813.00,0.9865
3812.00,0.9633
3811.00,0.9422
3810.00,0.9231
3809.00,0.9064
3808.00,0.8919
3807.00,0.8795
3806.00,0.8689
3805.00,0.8609
3804.00,0.8563
3803.00,0.8556
3802.00,0.8584
3801.00,0.8640
3800.00,0.8713
3799.00,0.8802
3798.00,0.8912
3797.00,0.9048
3796.00,0.9208
3795.00,0.9386
3794.00,0.9577
3793.00,0.9782
3792.00,1.0002
3791.00,1.0233
3790.00,1.0472
3789.00,1.0717
3788.00,1.0967
3787.00,1.1222
3786.00,1.1481
3785.00,1.1745
3784.00,1.2013
3783.00,1.2279
3782.00,1.2541
3781.00,1.2800
3780.00,1.3062
3779.00,1.3328
3778.00,1.3595
3777.00,1.3858
3776.00,1.4115
3775.00,1.4364
3774.00,1.4602
3773.00,1.4829
3772.00,1.5049
3771.00,1.5267
3770.00,1.5487
3769.00,1.5706
3768.00,1.5916
3767.00,1.6115
3766.00,1.6306
3765.00,1.6489
3764.00,1.6662
3763.00,1.6821
3762.00,1.6969
3761.00,1.7111
3760.00,1.7248
3759.00,1.7378
3758.00,1.7500
3757.00,1.7617
3756.00,1.7727
3755.00,1.7830
3754.00,1.7924
3753.00,1.8013
3752.00,1.8099
3751.00,1.8186
3750.00,1.8277
3749.00,1.8370
3748.00,1.8458
3747.00,1.8538
3746.00,1.8614
3745.00,1.8694
3744.00,1.8783
3743.00,1.8879
3742.00,1.8978
3741.00,1.9079
3740.00,1.9177
3739.00,1.9264
3738.00,1.9341
3737.00,1.9411
3736.00,1.9475
3735.00,1.9528
3734.00,1.9565
3733.00,1.9580
3732.00,1.9573
3731.00,1.9542
3730.00,1.9492
3729.00,1.9424
3728.00,1.9334
3727.00,1.9219
3726.00,1.9077
3725.00,1.8911
3724.00,1.8726
3723.00,1.8535
3722.00,1.8358
3721.00,1.8208
3720.00,1.8079
3719.00,1.7959
3718.00,1.7844
3717.00,1.7739
3716.00,1.7661
3715.00,1.7607
3714.00,1.7560
3713.00,1.7495
3712.00,1.7400
3711.00,1.7270
3710.00,1.7109
3709.00,1.6925
3708.00,1.6721
3707.00,1.6502
3706.00,1.6270
3705.00,1.6026
3704.00,1.5765
3703.00,1.5483
3702.00,1.5177
3701.00,1.4853
3700.00,1.4517
3699.00,1.4180
3698.00,1.3846
3697.00,1.3513
3696.00,1.3183
3695.00,1.2857
3694.00,1.2543
3693.00,1.2243
3692.00,1.1956
3691.00,1.1680
3690.00,1.1417
3689.00,1.1167
3688.00,1.0934
3687.00,1.0727
3686.00,1.0552
3685.00,1.0407
3684.00,1.0289
3683.00,1.0196
3682.00,1.0130
3681.00,1.0094
3680.00,1.0089
3679.00,1.0111
3678.00,1.0161
3677.00,1.0245
3676.00,1.0365
3675.00,1.0513
3674.00,1.0670
3673.00,1.0827
3672.00,1.0998
3671.00,1.1200
3670.00,1.1434
3669.00,1.1687
3668.00,1.1940
3667.00,1.2187
3666.00,1.2429
3665.00,1.2673
3664.00,1.2923
3663.00,1.3181
3662.00,1.3442
3661.00,1.3705
3660.00,1.3964
3659.00,1.4220
3658.00,1.4474
3657.00,1.4732
3656.00,1.4997
3655.00,1.5262
3654.00,1.5512
3653.00,1.5740
3652.00,1.5953
3651.00,1.6163
3650.00,1.6380
3649.00,1.6608
3648.00,1.6845
3647.00,1.7083
3646.00,1.7310
3645.00,1.7519
3644.00,1.7715
3643.00,1.7905
3642.00,1.8093
3641.00,1.8282
3640.00,1.8474
3639.00,1.8669
3638.00,1.8861
3637.00,1.9044
3636.00,1.9217
3635.00,1.9384
3634.00,1.9545
3633.00,1.9699
3632.00,1.9841
3631.00,1.9967
3630.00,2.0080
3629.00,2.0180
3628.00,2.0265
3627.00,2.0329
3626.00,2.0370
3625.00,2.0391
3624.00,2.0394
3623.00,2.0384
3622.00,2.0359
3621.00,2.0328
3620.00,2.0302
3619.00,2.0293
3618.00,2.0299
3617.00,2.0310
3616.00,2.0326
3615.00,2.0352
3614.00,2.0396
3613.00,2.0456
3612.00,2.0520
3611.00,2.0576
3610.00,2.0614
3609.00,2.0638
3608.00,2.0653
3607.00,2.0658
3606.00,2.0653
3605.00,2.0637
3604.00,2.0613
3603.00,2.0582
3602.00,2.0539
3601.00,2.0481
3600.00,2.0413
3599.00,2.0338
3598.00,2.0259
3597.00,2.0176
3596.00,2.0091
3595.00,2.0006
3594.00,1.9921
3593.00,1.9834
3592.00,1.9743
3591.00,1.9647
3590.00,1.9545
3589.00,1.9440
3588.00,1.9330
3587.00,1.9217
3586.00,1.9102
3585.00,1.8985
3584.00,1.8869
3583.00,1.8752
3582.00,1.8633
3581.00,1.8512
3580.00,1.8391
3579.00,1.8269
3578.00,1.8146
3577.00,1.8018
3576.00,1.7888
3575.00,1.7758
3574.00,1.7628
3573.00,1.7499
3572.00,1.7371
3571.00,1.7243
3570.00,1.7116
3569.00,1.6988
3568.00,1.6857
3567.00,1.6724
3566.00,1.6591
3565.00,1.6463
3564.00,1.6343
3563.00,1.6231
3562.00,1.6123
3561.00,1.6019
3560.00,1.5921
3559.00,1.5830
3558.00,1.5746
3557.00,1.5669
3556.00,1.5601
3555.00,1.5543
3554.00,1.5496
3553.00,1.5458
3552.00,1.5429
3551.00,1.5408
3550.00,1.5396
3549.00,1.5395
3548.00,1.5406
3547.00,1.5428
3546.00,1.5460
3545.00,1.5500
3544.00,1.5548
3543.00,1.5601
3542.00,1.5661
3541.00,1.5727
3540.00,1.5801
3539.00,1.5883
3538.00,1.5971
3537.00,1.6067
3536.00,1.6170
3535.00,1.6277
3534.00,1.6387
3533.00,1.6497
3532.00,1.6610
3531.00,1.6728
3530.00,1.6852
3529.00,1.6980
3528.00,1.7108
3527.00,1.7235
3526.00,1.7360
3525.00,1.7485
3524.00,1.7613
3523.00,1.7745
3522.00,1.7879
3521.00,1.8011
3520.00,1.8138
3519.00,1.8259
3518.00,1.8374
3517.00,1.8489
3516.00,1.8608
3515.00,1.8729
3514.00,1.8846
3513.00,1.8957
3512.00,1.9063
3511.00,1.9169
3510.00,1.9277
3509.00,1.9386
3508.00,1.9493
3507.00,1.9595
3506.00,1.9691
3505.00,1.9782
3504.00,1.9870
3503.00,1.9954
3502.00,2.0036
3501.00,2.0118
3500.00,2.0205
3499.00,2.0291
3498.00,2.0372
3497.00,2.0444
3496.00,2.0510
3495.00,2.0573
3494.00,2.0632
3493.00,2.0691
3492.00,2.0750
3491.00,2.0811
3490.00,2.0868
3489.00,2.0917
3488.00,2.0959
3487.00,2.0996
3486.00,2.1031
3485.00,2.1066
3484.00,2.1102
3483.00,2.1136
3482.00,2.1162
3481.00,2.1179
3480.00,2.1190
3479.00,2.1199
3478.00,2.1208
3477.00,2.1218
3476.00,2.1228
3475.00,2.1232
3474.00,2.1228
3473.00,2.1215
3472.00,2.1198
3471.00,2.1181
3470.00,2.1164
3469.00,2.1145
3468.00,2.1121
3467.00,2.1093
3466.00,2.1059
3465.00,2.1021
3464.00,2.0979
3463.00,2.0934
3462.00,2.0888
3461.00,2.0841
3460.00,2.0793
3459.00,2.0739
3458.00,2.0675
3457.00,2.0601
3456.00,2.0520
3455.00,2.0436
3454.00,2.0352
3453.00,2.0269
3452.00,2.0184
3451.00,2.0095
3450.00,1.9999
3449.00,1.9896
3448.00,1.9787
3447.00,1.9674
3446.00,1.9560
3445.00,1.9443
3444.00,1.9323
3443.00,1.9198
3442.00,1.9065
3441.00,1.8928
3440.00,1.8788
3439.00,1.8646
3438.00,1.8504
3437.00,1.8361
3436.00,1.8219
3435.00,1.8074
3434.00,1.7926
3433.00,1.7776
3432.00,1.7627
3431.00,1.7482
3430.00,1.7341
3429.00,1.7203
3428.00,1.7069
3427.00,1.6941
3426.00,1.6821
3425.00,1.6711
3424.00,1.6609
3423.00,1.6516
3422.00,1.6432
3421.00,1.6357
3420.00,1.6295
3419.00,1.6247
3418.00,1.6212
3417.00,1.6188
3416.00,1.6175
3415.00,1.6170
3414.00,1.6173
3413.00,1.6184
3412.00,1.6201
3411.00,1.6225
3410.00,1.6254
3409.00,1.6285
3408.00,1.6315
3407.00,1.6343
3406.00,1.6370
3405.00,1.6394
3404.00,1.6418
3403.00,1.6440
3402.00,1.6462
3401.00,1.6484
3400.00,1.6506
3399.00,1.6531
3398.00,1.6558
3397.00,1.6592
3396.00,1.6633
3395.00,1.6684
3394.00,1.6747
3393.00,1.6820
3392.00,1.6900
3391.00,1.6985
3390.00,1.7076
3389.00,1.7174
3388.00,1.7282
3387.00,1.7397
3386.00,1.7517
3385.00,1.7642
3384.00,1.7772
3383.00,1.7908
3382.00,1.8046
3381.00,1.8186
3380.00,1.8325
3379.00,1.8462
3378.00,1.8597
3377.00,1.8731
3376.00,1.8866
3375.00,1.9002
3374.00,1.9137
3373.00,1.9269
3372.00,1.9396
3371.00,1.9522
3370.00,1.9644
3369.00,1.9763
3368.00,1.9877
3367.00,1.9988
3366.00,2.0100
3365.00,2.0212
3364.00,2.0321
3363.00,2.0418
3362.00,2.0501
3361.00,2.0571
3360.00,2.0638
3359.00,2.0707
3358.00,2.0779
3357.00,2.0850
3356.00,2.0915
3355.00,2.0972
3354.00,2.1020
3353.00,2.1063
3352.00,2.1102
3351.00,2.1137
3350.00,2.1169
3349.00,2.1199
3348.00,2.1227
3347.00,2.1255
3346.00,2.1276
3345.00,2.1287
3344.00,2.1290
3343.00,2.1288
3342.00,2.1286
3341.00,2.1281
3340.00,2.1269
3339.00,2.1248
3338.00,2.1221
3337.00,2.1193
3336.00,2.1163
3335.00,2.1128
3334.00,2.1087
3333.00,2.1038
3332.00,2.0982
3331.00,2.0918
3330.00,2.0851
3329.00,2.0784
3328.00,2.0716
3327.00,2.0646
3326.00,2.0566
3325.00,2.0476
3324.00,2.0375
3323.00,2.0268
3322.00,2.0157
3321.00,2.0045
3320.00,1.9932
3319.00,1.9816
3318.00,1.9694
3317.00,1.9564
3316.00,1.9427
3315.00,1.9285
3314.00,1.9140
3313.00,1.8989
3312.00,1.8832
3311.00,1.8669
3310.00,1.8501
3309.00,1.8330
3308.00,1.8155
3307.00,1.7976
3306.00,1.7793
3305.00,1.7607
3304.00,1.7418
3303.00,1.7228
3302.00,1.7037
3301.00,1.6845
3300.00,1.6653
3299.00,1.6460
3298.00,1.6269
3297.00,1.6082
3296.00,1.5902
3295.00,1.5731
3294.00,1.5569
3293.00,1.5416
3292.00,1.5273
3291.00,1.5142
3290.00,1.5023
3289.00,1.4917
3288.00,1.4826
3287.00,1.4749
3286.00,1.4687
3285.00,1.4643
3284.00,1.4616
3283.00,1.4608
3282.00,1.4616
3281.00,1.4641
3280.00,1.4682
3279.00,1.4739
3278.00,1.4811
3277.00,1.4897
3276.00,1.4997
3275.00,1.5110
3274.00,1.5235
3273.00,1.5370
3272.00,1.5514
3271.00,1.5666
3270.00,1.5825
3269.00,1.5992
3268.00,1.6165
3267.00,1.6344
3266.00,1.6526
3265.00,1.6710
3264.00,1.6895
3263.00,1.7080
3262.00,1.7265
3261.00,1.7453
3260.00,1.7641
3259.00,1.7830
3258.00,1.8015
3257.00,1.8195
3256.00,1.8372
3255.00,1.8547
3254.00,1.8723
3253.00,1.8897
3252.00,1.9068
3251.00,1.9233
3250.00,1.9390
3249.00,1.9541
3248.00,1.9690
3247.00,1.9836
3246.00,1.9981
3245.00,2.0119
3244.00,2.0248
3243.00,2.0368
3242.00,2.0484
3241.00,2.0600
3240.00,2.0716
3239.00,2.0826
3238.00,2.0925
3237.00,2.1014
3236.00,2.1097
3235.00,2.1180
3234.00,2.1263
3233.00,2.1344
3232.00,2.1420
3231.00,2.1488
3230.00,2.1549
3229.00,2.1605
3228.00,2.1657
3227.00,2.1705
3226.00,2.1747
3225.00,2.1780
3224.00,2.1807
3223.00,2.1831
3222.00,2.1855
3221.00,2.1879
3220.00,2.1902
3219.00,2.1918
3218.00,2.1925
3217.00,2.1924
3216.00,2.1915
3215.00,2.1903
3214.00,2.1893
3213.00,2.1884
3212.00,2.1874
3211.00,2.1857
3210.00,2.1831
3209.00,2.1796
3208.00,2.1754
3207.00,2.1706
3206.00,2.1658
3205.00,2.1611
3204.00,2.1561
3203.00,2.1505
3202.00,2.1440
3201.00,2.1366
3200.00,2.1285
3199.00,2.1199
3198.00,2.1110
3197.00,2.1021
3196.00,2.0931
3195.00,2.0835
3194.00,2.0734
3193.00,2.0626
3192.00,2.0511
3191.00,2.0388
3190.00,2.0258
3189.00,2.0121
3188.00,1.9980
3187.00,1.9837
3186.00,1.9692
3185.00,1.9544
3184.00,1.9392
3183.00,1.9231
3182.00,1.9064
3181.00,1.8893
3180.00,1.8723
3179.00,1.8551
3178.00,1.8377
3177.00,1.8199
3176.00,1.8018
3175.00,1.7835
3174.00,1.7651
3173.00,1.7466
3172.00,1.7285
3171.00,1.7109
3170.00,1.6937
3169.00,1.6770
3168.00,1.6608
3167.00,1.6453
3166.00,1.6307
3165.00,1.6171
3164.00,1.6045
3163.00,1.5931
3162.00,1.5830
3161.00,1.5744
3160.00,1.5672
3159.00,1.5615
3158.00,1.5574
3157.00,1.5548
3156.00,1.5538
3155.00,1.5544
3154.00,1.5568
3153.00,1.5609
3152.00,1.5665
3151.00,1.5736
3150.00,1.5821
3149.00,1.5919
3148.00,1.6030
3147.00,1.6153
3146.00,1.6284
3145.00,1.6426
3144.00,1.6576
3143.00,1.6737
3142.00,1.6905
3141.00,1.7080
3140.00,1.7260
3139.00,1.7444
3138.00,1.7628
3137.00,1.7812
3136.00,1.7998
3135.00,1.8185
3134.00,1.8371
3133.00,1.8557
3132.00,1.8743
3131.00,1.8930
3130.00,1.9118
3129.00,1.9305
3128.00,1.9486
3127.00,1.9660
3126.00,1.9827
3125.00,1.9987
3124.00,2.0140
3123.00,2.0288
3122.00,2.0432
3121.00,2.0573
3120.00,2.0714
3119.00,2.0851
3118.00,2.0982
3117.00,2.1103
3116.00,2.1214
3115.00,2.1316
3114.00,2.1411
3113.00,2.1506
3112.00,2.1601
3111.00,2.1695
3110.00,2.1786
3109.00,2.1874
3108.00,2.1956
3107.00,2.2028
3106.00,2.2090
3105.00,2.2148
3104.00,2.2204
3103.00,2.2258
3102.00,2.2307
3101.00,2.2352
3100.00,2.2392
3099.00,2.2423
3098.00,2.2442
3097.00,2.2452
3096.00,2.2461
3095.00,2.2474
3094.00,2.2491
3093.00,2.2502
3092.00,2.2503
3091.00,2.2493
3090.00,2.2480
3089.00,2.2468
3088.00,2.2452
3087.00,2.2424
3086.00,2.2378
3085.00,2.2319
3084.00,2.2253
3083.00,2.2185
3082.00,2.2117
3081.00,2.2046
3080.00,2.1971
3079.00,2.1891
3078.00,2.1804
3077.00,2.1708
3076.00,2.1602
3075.00,2.1485
3074.00,2.1361
3073.00,2.1234
3072.00,2.1106
3071.00,2.0975
3070.00,2.0837
3069.00,2.0690
3068.00,2.0533
3067.00,2.0368
3066.00,2.0198
3065.00,2.0025
3064.00,1.9847
3063.00,1.9663
3062.00,1.9473
3061.00,1.9279
3060.00,1.9081
3059.00,1.8881
3058.00,1.8678
3057.00,1.8476
3056.00,1.8277
3055.00,1.8079
3054.00,1.7882
3053.00,1.7687
3052.00,1.7496
3051.00,1.7311
3050.00,1.7136
3049.00,1.6972
3048.00,1.6822
3047.00,1.6687
3046.00,1.6570
3045.00,1.6473
3044.00,1.6399
3043.00,1.6349
3042.00,1.6324
3041.00,1.6325
3040.00,1.6352
3039.00,1.6403
3038.00,1.6478
3037.00,1.6579
3036.00,1.6707
3035.00,1.6859
3034.00,1.7033
3033.00,1.7224
3032.00,1.7428
3031.00,1.7643
3030.00,1.7867
3029.00,1.8101
3028.00,1.8343
3027.00,1.8590
3026.00,1.8840
3025.00,1.9094
3024.00,1.9350
3023.00,1.9607
3022.00,1.9862
3021.00,2.0111
3020.00,2.0353
3019.00,2.0585
3018.00,2.0809
3017.00,2.1029
3016.00,2.1247
3015.00,2.1462
3014.00,2.1672
3013.00,2.1872
3012.00,2.2060
3011.00,2.2237
3010.00,2.2406
3009.00,2.2569
3008.00,2.2721
3007.00,2.2857
3006.00,2.2980
3005.00,2.3096
3004.00,2.3207
3003.00,2.3307
3002.00,2.3389
3001.00,2.3457
3000.00,2.3513
2999.00,2.3562
2998.00,2.3603
2997.00,2.3631
2996.00,2.3642
2995.00,2.3635
2994.00,2.3616
2993.00,2.3592
2992.00,2.3558
2991.00,2.3507
2990.00,2.3440
2989.00,2.3374
2988.00,2.3318
2987.00,2.3271
2986.00,2.3228
2985.00,2.3195
2984.00,2.3189
2983.00,2.3222
2982.00,2.3305
2981.00,2.3444
2980.00,2.3653
2979.00,2.3939
2978.00,2.4304
2977.00,2.4748
2976.00,2.5263
2975.00,2.5841
2974.00,2.6481
2973.00,2.7189
2972.00,2.7964
2971.00,2.8785
2970.00,2.9619
2969.00,3.0454
2968.00,3.1320
2967.00,3.2247
2966.00,3.3237
2965.00,3.4253
2964.00,3.5252
2963.00,3.6247
2962.00,3.7343
2961.00,3.8661
2960.00,4.0061
2959.00,4.0952
2958.00,4.1086
2957.00,4.1123
2956.00,4.1700
2955.00,4.2687
2954.00,4.3142
2953.00,4.2370
2952.00,4.1247
2951.00,4.0625
2950.00,4.0607
2949.00,4.0890
2948.00,4.1076
2947.00,4.1074
2946.00,4.1105
2945.00,4.1377
2944.00,4.1976
2943.00,4.2951
2942.00,4.4049
2941.00,4.4133
2940.00,4.2754
2939.00,4.1222
2938.00,4.0338
2937.00,4.0149
2936.00,4.0497
2935.00,4.1297
2934.00,4.2384
2933.00,4.2995
2932.00,4.2253
2931.00,4.1262
2930.00,4.0962
2929.00,4.1560
2928.00,4.2741
2927.00,4.4431
2926.00,4.6552
2925.00,4.5775
2924.00,4.3447
2923.00,4.1486
2922.00,4.0322
2921.00,3.9343
2920.00,3.8418
2919.00,3.7575
2918.00,3.6769
2917.00,3.6016
2916.00,3.5324
2915.00,3.4698
2914.00,3.4170
2913.00,3.3767
2912.00,3.3463
2911.00,3.3176
2910.00,3.2834
2909.00,3.2442
2908.00,3.2066
2907.00,3.1747
2906.00,3.1480
2905.00,3.1233
2904.00,3.0977
2903.00,3.0711
2902.00,3.0457
2901.00,3.0244
2900.00,3.0079
2899.00,2.9940
2898.00,2.9795
2897.00,2.9637
2896.00,2.9476
2895.00,2.9329
2894.00,2.9200
2893.00,2.9081
2892.00,2.8959
2891.00,2.8820
2890.00,2.8665
2889.00,2.8517
2888.00,2.8396
2887.00,2.8307
2886.00,2.8246
2885.00,2.8219
2884.00,2.8239
2883.00,2.8314
2882.00,2.8439
2881.00,2.8609
2880.00,2.8826
2879.00,2.9092
2878.00,2.9409
2877.00,2.9776
2876.00,3.0193
2875.00,3.0669
2874.00,3.1223
2873.00,3.1886
2872.00,3.2675
2871.00,3.3558
2870.00,3.4442
2869.00,3.5241
2868.00,3.5965
2867.00,3.6724
2866.00,3.7597
2865.00,3.8477
2864.00,3.9028
2863.00,3.9010
2862.00,3.8671
2861.00,3.8384
2860.00,3.8142
2859.00,3.7623
2858.00,3.6685
2857.00,3.5558
2856.00,3.4465
2855.00,3.3434
2854.00,3.2430
2853.00,3.1468
2852.00,3.0580
2851.00,2.9766
2850.00,2.8999
2849.00,2.8268
2848.00,2.7584
2847.00,2.6959
2846.00,2.6387
2845.00,2.5848
2844.00,2.5321
2843.00,2.4803
2842.00,2.4304
2841.00,2.3831
2840.00,2.3384
2839.00,2.2955
2838.00,2.2537
2837.00,2.2131
2836.00,2.1743
2835.00,2.1379
2834.00,2.1047
2833.00,2.0750
2832.00,2.0488
2831.00,2.0252
2830.00,2.0036
2829.00,1.9839
2828.00,1.9661
2827.00,1.9501
2826.00,1.9354
2825.00,1.9219
2824.00,1.9094
2823.00,1.8981
2822.00,1.8885
2821.00,1.8812
2820.00,1.8771
2819.00,1.8767
2818.00,1.8800
2817.00,1.8868
2816.00,1.8971
2815.00,1.9108
2814.00,1.9276
2813.00,1.9470
2812.00,1.9684
2811.00,1.9912
2810.00,2.0154
2809.00,2.0406
2808.00,2.0661
2807.00,2.0912
2806.00,2.1156
2805.00,2.1393
2804.00,2.1629
2803.00,2.1863
2802.00,2.2089
2801.00,2.2299
2800.00,2.2486
2799.00,2.2654
2798.00,2.2810
2797.00,2.2957
2796.00,2.3089
2795.00,2.3201
2794.00,2.3297
2793.00,2.3386
2792.00,2.3479
2791.00,2.3577
2790.00,2.3671
2789.00,2.3753
2788.00,2.3820
2787.00,2.3877
2786.00,2.3926
2785.00,2.3967
2784.00,2.3999
2783.00,2.4021
2782.00,2.4039
2781.00,2.4053
2780.00,2.4066
2779.00,2.4075
2778.00,2.4076
2777.00,2.4064
2776.00,2.4038
2775.00,2.4002
2774.00,2.3967
2773.00,2.3933
2772.00,2.3896
2771.00,2.3846
2770.00,2.3781
2769.00,2.3702
2768.00,2.3610
2767.00,2.3505
2766.00,2.3393
2765.00,2.3279
2764.00,2.3165
2763.00,2.3046
2762.00,2.2918
2761.00,2.2779
2760.00,2.2630
2759.00,2.2466
2758.00,2.2289
2757.00,2.2104
2756.00,2.1914
2755.00,2.1713
2754.00,2.1493
2753.00,2.1253
2752.00,2.1000
2751.00,2.0738
2750.00,2.0469
2749.00,2.0190
2748.00,1.9899
2747.00,1.9593
2746.00,1.9269
2745.00,1.8926
2744.00,1.8567
2743.00,1.8198
2742.00,1.7823
2741.00,1.7444
2740.00,1.7062
2739.00,1.6678
2738.00,1.6298
2737.00,1.5927
2736.00,1.5570
2735.00,1.5230
2734.00,1.4912
2733.00,1.4620
2732.00,1.4360
2731.00,1.4136
2730.00,1.3952
2729.00,1.3810
2728.00,1.3715
2727.00,1.3667
2726.00,1.3668
2725.00,1.3717
2724.00,1.3814
2723.00,1.3954
2722.00,1.4135
2721.00,1.4352
2720.00,1.4602
2719.00,1.4878
2718.00,1.5175
2717.00,1.5488
2716.00,1.5814
2715.00,1.6150
2714.00,1.6493
2713.00,1.6838
2712.00,1.7187
2711.00,1.7537
2710.00,1.7887
2709.00,1.8234
2708.00,1.8577
2707.00,1.8917
2706.00,1.9252
2705.00,1.9580
2704.00,1.9897
2703.00,2.0200
2702.00,2.0488
2701.00,2.0762
2700.00,2.1025
2699.00,2.1279
2698.00,2.1525
2697.00,2.1761
2696.00,2.1989
2695.00,2.2205
2694.00,2.2405
2693.00,2.2589
2692.00,2.2762
2691.00,2.2930
2690.00,2.3097
2689.00,2.3259
2688.00,2.3417
2687.00,2.3567
2686.00,2.3707
2685.00,2.3835
2684.00,2.3953
2683.00,2.4065
2682.00,2.4172
2681.00,2.4273
2680.00,2.4363
2679.00,2.4447
2678.00,2.4524
2677.00,2.4591
2676.00,2.4643
2675.00,2.4686
2674.00,2.4729
2673.00,2.4774
2672.00,2.4813
2671.00,2.4838
2670.00,2.4850
2669.00,2.4862
2668.00,2.4879
2667.00,2.4901
2666.00,2.4917
2665.00,2.4919
2664.00,2.4903
2663.00,2.4874
2662.00,2.4841
2661.00,2.4810
2660.00,2.4779
2659.00,2.4747
2658.00,2.4711
2657.00,2.4669
2656.00,2.4619
2655.00,2.4558
2654.00,2.4490
2653.00,2.4421
2652.00,2.4353
2651.00,2.4281
2650.00,2.4205
2649.00,2.4127
2648.00,2.4048
2647.00,2.3966
2646.00,2.3875
2645.00,2.3770
2644.00,2.3648
2643.00,2.3510
2642.00,2.3361
2641.00,2.3209
2640.00,2.3057
2639.00,2.2896
2638.00,2.2717
2637.00,2.2523
2636.00,2.2320
2635.00,2.2113
2634.00,2.1898
2633.00,2.1671
2632.00,2.1431
2631.00,2.1182
2630.00,2.0926
2629.00,2.0661
2628.00,2.0382
2627.00,2.0089
2626.00,1.9783
2625.00,1.9466
2624.00,1.9141
2623.00,1.8808
2622.00,1.8469
2621.00,1.8126
2620.00,1.7785
2619.00,1.7447
2618.00,1.7113
2617.00,1.6784
2616.00,1.6464
2615.00,1.6155
2614.00,1.5859
2613.00,1.5578
2612.00,1.5314
2611.00,1.5071
2610.00,1.4849
2609.00,1.4651
2608.00,1.4478
2607.00,1.4332
2606.00,1.4220
2605.00,1.4146
2604.00,1.4114
2603.00,1.4127
2602.00,1.4187
2601.00,1.4292
2600.00,1.4441
2599.00,1.4628
2598.00,1.4850
2597.00,1.5103
2596.00,1.5383
2595.00,1.5685
2594.00,1.6006
2593.00,1.6341
2592.00,1.6687
2591.00,1.7039
2590.00,1.7393
2589.00,1.7748
2588.00,1.8102
2587.00,1.8452
2586.00,1.8798
2585.00,1.9138
2584.00,1.9472
2583.00,1.9797
2582.00,2.0113
2581.00,2.0420
2580.00,2.0716
2579.00,2.0997
2578.00,2.1263
2577.00,2.1521
2576.00,2.1773
2575.00,2.2019
2574.00,2.2251
2573.00,2.2468
2572.00,2.2673
2571.00,2.2870
2570.00,2.3060
2569.00,2.3241
2568.00,2.3411
2567.00,2.3570
2566.00,2.3720
2565.00,2.3860
2564.00,2.3990
2563.00,2.4110
2562.00,2.4227
2561.00,2.4345
2560.00,2.4464
2559.00,2.4578
2558.00,2.4683
2557.00,2.4781
2556.00,2.4876
2555.00,2.4963
2554.00,2.5036
2553.00,2.5099
2552.00,2.5159
2551.00,2.5220
2550.00,2.5281
2549.00,2.5336
2548.00,2.5379
2547.00,2.5409
2546.00,2.5430
2545.00,2.5453
2544.00,2.5485
2543.00,2.5517
2542.00,2.5537
2541.00,2.5538
2540.00,2.5525
2539.00,2.5506
2538.00,2.5486
2537.00,2.5468
2536.00,2.5454
2535.00,2.5440
2534.00,2.5416
2533.00,2.5373
2532.00,2.5317
2531.00,2.5259
2530.00,2.5209
2529.00,2.5159
2528.00,2.5103
2527.00,2.5036
2526.00,2.4960
2525.00,2.4876
2524.00,2.4787
2523.00,2.4690
2522.00,2.4585
2521.00,2.4469
2520.00,2.4343
2519.00,2.4209
2518.00,2.4074
2517.00,2.3940
2516.00,2.3804
2515.00,2.3662
2514.00,2.3508
2513.00,2.3339
2512.00,2.3151
2511.00,2.2945
2510.00,2.2725
2509.00,2.2497
2508.00,2.2264
2507.00,2.2024
2506.00,2.1774
2505.00,2.1510
2504.00,2.1229
2503.00,2.0930
2502.00,2.0614
2501.00,2.0284
2500.00,1.9941
2499.00,1.9583
2498.00,1.9209
2497.00,1.8814
2496.00,1.8399
2495.00,1.7968
2494.00,1.7526
2493.00,1.7078
2492.00,1.6626
2491.00,1.6176
2490.00,1.5731
2489.00,1.5302
2488.00,1.4895
2487.00,1.4519
2486.00,1.4180
2485.00,1.3883
2484.00,1.3634
2483.00,1.3438
2482.00,1.3299
2481.00,1.3219
2480.00,1.3200
2479.00,1.3241
2478.00,1.3341
2477.00,1.3496
2476.00,1.3701
2475.00,1.3951
2474.00,1.4239
2473.00,1.4558
2472.00,1.4902
2471.00,1.5267
2470.00,1.5646
2469.00,1.6037
2468.00,1.6434
2467.00,1.6834
2466.00,1.7233
2465.00,1.7631
2464.00,1.8026
2463.00,1.8417
2462.00,1.8804
2461.00,1.9184
2460.00,1.9556
2459.00,1.9919
2458.00,2.0272
2457.00,2.0615
2456.00,2.0946
2455.00,2.1265
2454.00,2.1572
2453.00,2.1868
2452.00,2.2151
2451.00,2.2418
2450.00,2.2671
2449.00,2.2912
2448.00,2.3145
2447.00,2.3369
2446.00,2.3580
2445.00,2.3778
2444.00,2.3964
2443.00,2.4140
2442.00,2.4310
2441.00,2.4475
2440.00,2.4631
2439.00,2.4771
2438.00,2.4901
2437.00,2.5033
2436.00,2.5169
2435.00,2.5300
2434.00,2.5414
2433.00,2.5513
2432.00,2.5607
2431.00,2.5699
2430.00,2.5790
2429.00,2.5878
2428.00,2.5962
2427.00,2.6035
2426.00,2.6083
2425.00,2.6109
2424.00,2.6129
2423.00,2.6160
2422.00,2.6202
2421.00,2.6247
2420.00,2.6288
2419.00,2.6323
2418.00,2.6351
2417.00,2.6364
2416.00,2.6353
2415.00,2.6323
2414.00,2.6291
2413.00,2.6275
2412.00,2.6279
2411.00,2.6287
2410.00,2.6283
2409.00,2.6262
2408.00,2.6225
2407.00,2.6173
2406.00,2.6110
2405.00,2.6042
2404.00,2.5973
2403.00,2.5904
2402.00,2.5828
2401.00,2.5742
2400.00,2.5651
2399.00,2.5560
2398.00,2.5471
2397.00,2.5377
2396.00,2.5272
2395.00,2.5153
2394.00,2.5024
2393.00,2.4884
2392.00,2.4724
2391.00,2.4528
2390.00,2.4289
2389.00,2.4015
2388.00,2.3726
2387.00,2.3444
2386.00,2.3193
2385.00,2.2986
2384.00,2.2837
2383.00,2.2757
2382.00,2.2758
2381.00,2.2833
2380.00,2.2954
2379.00,2.3090
2378.00,2.3208
2377.00,2.3289
2376.00,2.3313
2375.00,2.3276
2374.00,2.3204
2373.00,2.3125
2372.00,2.3048
2371.00,2.2979
2370.00,2.2951
2369.00,2.2960
2368.00,2.2964
2367.00,2.2977
2366.00,2.3015
2365.00,2.3033
2364.00,2.3032
2363.00,2.3003
2362.00,2.2964
2361.00,2.2968
2360.00,2.2967
2359.00,2.2978
2358.00,2.2977
2357.00,2.2914
2356.00,2.2741
2355.00,2.2536
2354.00,2.2604
2353.00,2.2911
2352.00,2.3150
2351.00,2.3091
2350.00,2.2890
2349.00,2.2972
2348.00,2.3353
2347.00,2.3787
2346.00,2.3948
2345.00,2.3801
2344.00,2.3581
2343.00,2.3392
2342.00,2.3289
2341.00,2.3222
2340.00,2.3167
2339.00,2.3117
2338.00,2.3093
2337.00,2.3098
2336.00,2.3131
2335.00,2.3145
2334.00,2.3201
2333.00,2.3254
2332.00,2.3337
2331.00,2.3476
2330.00,2.3610
2329.00,2.3764
2328.00,2.3854
2327.00,2.3992
2326.00,2.4173
2325.00,2.4369
2324.00,2.4510
2323.00,2.4539
2322.00,2.4524
2321.00,2.4501
2320.00,2.4533
2319.00,2.4598
2318.00,2.4691
2317.00,2.4788
2316.00,2.4873
2315.00,2.4946
2314.00,2.4996
2313.00,2.5054
2312.00,2.5110
2311.00,2.5184
2310.00,2.5246
2309.00,2.5322
2308.00,2.5413
2307.00,2.5548
2306.00,2.5708
2305.00,2.5874
2304.00,2.6022
2303.00,2.6162
2302.00,2.6303
2301.00,2.6457
2300.00,2.6604
2299.00,2.6741
2298.00,2.6852
2297.00,2.6953
2296.00,2.7034
2295.00,2.7110
2294.00,2.7170
2293.00,2.7220
2292.00,2.7244
2291.00,2.7237
2290.00,2.7195
2289.00,2.7135
2288.00,2.7083
2287.00,2.7059
2286.00,2.7072
2285.00,2.7116
2284.00,2.7174
2283.00,2.7226
2282.00,2.7259
2281.00,2.7271
2280.00,2.7273
2279.00,2.7274
2278.00,2.7276
2277.00,2.7268
2276.00,2.7234
2275.00,2.7169
2274.00,2.7084
2273.00,2.6997
2272.00,2.6914
2271.00,2.6821
2270.00,2.6708
2269.00,2.6575
2268.00,2.6429
2267.00,2.6276
2266.00,2.6112
2265.00,2.5942
2264.00,2.5763
2263.00,2.5574
2262.00,2.5372
2261.00,2.5156
2260.00,2.4933
2259.00,2.4705
2258.00,2.4475
2257.00,2.4240
2256.00,2.3995
2255.00,2.3741
2254.00,2.3481
2253.00,2.3218
2252.00,2.2951
2251.00,2.2668
2250.00,2.2360
2249.00,2.2026
2248.00,2.1665
2247.00,2.1283
2246.00,2.0879
2245.00,2.0456
2244.00,2.0013
2243.00,1.9551
2242.00,1.9071
2241.00,1.8577
2240.00,1.8071
2239.00,1.7560
2238.00,1.7050
2237.00,1.6548
2236.00,1.6065
2235.00,1.5610
2234.00,1.5192
2233.00,1.4820
2232.00,1.4504
2231.00,1.4252
2230.00,1.4068
2229.00,1.3957
2228.00,1.3922
2227.00,1.3963
2226.00,1.4078
2225.00,1.4260
2224.00,1.4502
2223.00,1.4796
2222.00,1.5132
2221.00,1.5504
2220.00,1.5906
2219.00,1.6332
2218.00,1.6777
2217.00,1.7234
2216.00,1.7697
2215.00,1.8163
2214.00,1.8628
2213.00,1.9091
2212.00,1.9550
2211.00,1.9998
2210.00,2.0431
2209.00,2.0849
2208.00,2.1256
2207.00,2.1654
2206.00,2.2039
2205.00,2.2404
2204.00,2.2749
2203.00,2.3075
2202.00,2.3382
2201.00,2.3672
2200.00,2.3951
2199.00,2.4220
2198.00,2.4479
2197.00,2.4722
2196.00,2.4952
2195.00,2.5173
2194.00,2.5388
2193.00,2.5598
2192.00,2.5804
2191.00,2.5998
2190.00,2.6168
2189.00,2.6310
2188.00,2.6436
2187.00,2.6565
2186.00,2.6702
2185.00,2.6838
2184.00,2.6966
2183.00,2.7085
2182.00,2.7199
2181.00,2.7306
2180.00,2.7402
2179.00,2.7486
2178.00,2.7560
2177.00,2.7627
2176.00,2.7685
2175.00,2.7732
2174.00,2.7772
2173.00,2.7816
2172.00,2.7875
2171.00,2.7948
2170.00,2.8020
2169.00,2.8075
2168.00,2.8112
2167.00,2.8137
2166.00,2.8154
2165.00,2.8157
2164.00,2.8144
2163.00,2.8129
2162.00,2.8129
2161.00,2.8144
2160.00,2.8156
2159.00,2.8147
2158.00,2.8117
2157.00,2.8080
2156.00,2.8044
2155.00,2.8005
2154.00,2.7956
2153.00,2.7899
2152.00,2.7841
2151.00,2.7791
2150.00,2.7748
2149.00,2.7703
2148.00,2.7645
2147.00,2.7567
2146.00,2.7472
2145.00,2.7365
2144.00,2.7248
2143.00,2.7117
2142.00,2.6974
2141.00,2.6830
2140.00,2.6690
2139.00,2.6548
2138.00,2.6395
2137.00,2.6234
2136.00,2.6076
2135.00,2.5922
2134.00,2.5761
2133.00,2.5585
2132.00,2.5389
2131.00,2.5175
2130.00,2.4942
2129.00,2.4689
2128.00,2.4423
2127.00,2.4151
2126.00,2.3874
2125.00,2.3584
2124.00,2.3269
2123.00,2.2929
2122.00,2.2567
2121.00,2.2186
2120.00,2.1787
2119.00,2.1368
2118.00,2.0925
2117.00,2.0460
2116.00,1.9972
2115.00,1.9464
2114.00,1.8939
2113.00,1.8406
2112.00,1.7875
2111.00,1.7354
2110.00,1.6853
2109.00,1.6384
2108.00,1.5959
2107.00,1.5588
2106.00,1.5281
2105.00,1.5046
2104.00,1.4887
2103.00,1.4809
2102.00,1.4810
2101.00,1.4889
2100.00,1.5042
2099.00,1.5261
2098.00,1.5537
2097.00,1.5861
2096.00,1.6223
2095.00,1.6612
2094.00,1.7021
2093.00,1.7447
2092.00,1.7887
2091.00,1.8337
2090.00,1.8794
2089.00,1.9255
2088.00,1.9718
2087.00,2.0179
2086.00,2.0633
2085.00,2.1075
2084.00,2.1506
2083.00,2.1925
2082.00,2.2333
2081.00,2.2731
2080.00,2.3120
2079.00,2.3494
2078.00,2.3847
2077.00,2.4178
2076.00,2.4492
2075.00,2.4799
2074.00,2.5101
2073.00,2.5388
2072.00,2.5648
2071.00,2.5879
2070.00,2.6090
2069.00,2.6292
2068.00,2.6489
2067.00,2.6681
2066.00,2.6871
2065.00,2.7053
2064.00,2.7217
2063.00,2.7356
2062.00,2.7479
2061.00,2.7599
2060.00,2.7720
2059.00,2.7836
2058.00,2.7946
2057.00,2.8054
2056.00,2.8156
2055.00,2.8241
2054.00,2.8308
2053.00,2.8377
2052.00,2.8465
2051.00,2.8566
2050.00,2.8661
2049.00,2.8741
2048.00,2.8807
2047.00,2.8863
2046.00,2.8910
2045.00,2.8956
2044.00,2.9002
2043.00,2.9033
2042.00,2.9035
2041.00,2.9019
2040.00,2.9017
2039.00,2.9040
2038.00,2.9076
2037.00,2.9104
2036.00,2.9115
2035.00,2.9108
2034.00,2.9078
2033.00,2.9024
2032.00,2.8959
2031.00,2.8904
2030.00,2.8871
2029.00,2.8856
2028.00,2.8842
2027.00,2.8816
2026.00,2.8768
2025.00,2.8699
2024.00,2.8608
2023.00,2.8496
2022.00,2.8373
2021.00,2.8264
2020.00,2.8180
2019.00,2.8109
2018.00,2.8015
2017.00,2.7886
2016.00,2.7739
2015.00,2.7600
2014.00,2.7471
2013.00,2.7339
2012.00,2.7196
2011.00,2.7044
2010.00,2.6880
2009.00,2.6696
2008.00,2.6484
2007.00,2.6247
2006.00,2.5997
2005.00,2.5742
2004.00,2.5481
2003.00,2.5209
2002.00,2.4921
2001.00,2.4616
2000.00,2.4295
1999.00,2.3957
1998.00,2.3599
1997.00,2.3213
1996.00,2.2797
1995.00,2.2353
1994.00,2.1884
1993.00,2.1384
1992.00,2.0852
1991.00,2.0303
1990.00,1.9759
1989.00,1.9223
1988.00,1.8690
1987.00,1.8163
1986.00,1.7658
1985.00,1.7200
1984.00,1.6802
1983.00,1.6470
1982.00,1.6208
1981.00,1.6026
1980.00,1.5923
1979.00,1.5898
1978.00,1.5946
1977.00,1.6061
1976.00,1.6237
1975.00,1.6465
1974.00,1.6740
1973.00,1.7058
1972.00,1.7414
1971.00,1.7803
1970.00,1.8220
1969.00,1.8661
1968.00,1.9121
1967.00,1.9602
1966.00,2.0101
1965.00,2.0609
1964.00,2.1110
1963.00,2.1593
1962.00,2.2060
1961.00,2.2520
1960.00,2.2978
1959.00,2.3423
1958.00,2.3837
1957.00,2.4215
1956.00,2.4565
1955.00,2.4900
1954.00,2.5231
1953.00,2.5558
1952.00,2.5874
1951.00,2.6163
1950.00,2.6419
1949.00,2.6647
1948.00,2.6864
1947.00,2.7077
1946.00,2.7284
1945.00,2.7481
1944.00,2.7657
1943.00,2.7811
1942.00,2.7964
1941.00,2.8147
1940.00,2.8358
1939.00,2.8549
1938.00,2.8677
1937.00,2.8752
1936.00,2.8830
1935.00,2.8944
1934.00,2.9085
1933.00,2.9224
1932.00,2.9354
1931.00,2.9474
1930.00,2.9576
1929.00,2.9655
1928.00,2.9718
1927.00,2.9775
1926.00,2.9826
1925.00,2.9863
1924.00,2.9878
1923.00,2.9876
1922.00,2.9884
1921.00,2.9934
1920.00,3.0016
1919.00,3.0074
1918.00,3.0067
1917.00,3.0023
1916.00,3.0006
1915.00,3.0019
1914.00,3.0015
1913.00,2.9970
1912.00,2.9908
1911.00,2.9851
1910.00,2.9796
1909.00,2.9745
1908.00,2.9714
1907.00,2.9696
1906.00,2.9659
1905.00,2.9584
1904.00,2.9498
1903.00,2.9419
1902.00,2.9333
1901.00,2.9223
1900.00,2.9108
1899.00,2.9017
1898.00,2.8947
1897.00,2.8869
1896.00,2.8761
1895.00,2.8615
1894.00,2.8429
1893.00,2.8208
1892.00,2.7974
1891.00,2.7737
1890.00,2.7490
1889.00,2.7232
1888.00,2.6979
1887.00,2.6746
1886.00,2.6517
1885.00,2.6264
1884.00,2.5969
1883.00,2.5641
1882.00,2.5294
1881.00,2.4930
1880.00,2.4540
1879.00,2.4127
1878.00,2.3698
1877.00,2.3263
1876.00,2.2823
1875.00,2.2370
1874.00,2.1897
1873.00,2.1414
1872.00,2.0926
1871.00,2.0420
1870.00,1.9877
1869.00,1.9326
1868.00,1.8832
1867.00,1.8427
1866.00,1.8068
1865.00,1.7714
1864.00,1.7374
1863.00,1.7100
1862.00,1.6941
1861.00,1.6921
1860.00,1.7038
1859.00,1.7275
1858.00,1.7614
1857.00,1.8037
1856.00,1.8525
1855.00,1.9061
1854.00,1.9631
1853.00,2.0226
1852.00,2.0835
1851.00,2.1450
1850.00,2.2058
1849.00,2.2645
1848.00,2.3211
1847.00,2.3758
1846.00,2.4276
1845.00,2.4751
1844.00,2.5202
1843.00,2.5674
1842.00,2.6170
1841.00,2.6632
1840.00,2.6994
1839.00,2.7257
1838.00,2.7488
1837.00,2.7759
1836.00,2.8082
1835.00,2.8406
1834.00,2.8680
1833.00,2.8891
1832.00,2.9052
1831.00,2.9186
1830.00,2.9334
1829.00,2.9553
1828.00,2.9840
1827.00,3.0104
1826.00,3.0256
1825.00,3.0302
1824.00,3.0333
1823.00,3.0431
1822.00,3.0584
1821.00,3.0737
1820.00,3.0861
1819.00,3.0951
1818.00,3.1002
1817.00,3.1016
1816.00,3.1023
1815.00,3.1049
1814.00,3.1089
1813.00,3.1123
1812.00,3.1157
1811.00,3.1213
1810.00,3.1292
1809.00,3.1364
1808.00,3.1402
1807.00,3.1394
1806.00,3.1340
1805.00,3.1244
1804.00,3.1119
1803.00,3.0982
1802.00,3.0853
1801.00,3.0747
1800.00,3.0685
1799.00,3.0668
1798.00,3.0651
1797.00,3.0575
1796.00,3.0412
1795.00,3.0166
1794.00,2.9857
1793.00,2.9504
1792.00,2.9149
1791.00,2.8845
1790.00,2.8581
1789.00,2.8293
1788.00,2.7926
1787.00,2.7457
1786.00,2.6889
1785.00,2.6271
1784.00,2.5682
1783.00,2.5177
1782.00,2.4749
1781.00,2.4357
1780.00,2.4005
1779.00,2.3744
1778.00,2.3602
1777.00,2.3583
1776.00,2.3686
1775.00,2.3925
1774.00,2.4310
1773.00,2.4830
1772.00,2.5484
1771.00,2.6239
1770.00,2.6963
1769.00,2.7529
1768.00,2.7947
1767.00,2.8307
1766.00,2.8694
1765.00,2.9122
1764.00,2.9532
1763.00,2.9882
1762.00,3.0210
1761.00,3.0596
1760.00,3.1066
1759.00,3.1550
1758.00,3.1973
1757.00,3.2345
1756.00,3.2724
1755.00,3.3149
1754.00,3.3596
1753.00,3.4012
1752.00,3.4387
1751.00,3.4749
1750.00,3.5156
1749.00,3.5622
1748.00,3.6028
1747.00,3.6237
1746.00,3.6320
1745.00,3.6526
1744.00,3.7063
1743.00,3.7924
1742.00,3.8914
1741.00,3.9874
1740.00,4.0819
1739.00,4.1663
1738.00,4.2097
1737.00,4.2204
1736.00,4.2504
1735.00,4.3216
1734.00,4.3734
1733.00,4.3485
1732.00,4.3262
1731.00,4.3585
1730.00,4.4408
1729.00,4.5554
1728.00,4.6555
1727.00,4.6933
1726.00,4.6917
1725.00,4.6808
1724.00,4.6960
1723.00,4.8167
1722.00,5.2474
1721.00,5.3900
1720.00,4.8953
1719.00,4.8221
1718.00,4.9789
1717.00,5.1069
1716.00,4.7859
1715.00,4.6792
1714.00,4.7504
1713.00,4.8873
1712.00,4.9678
1711.00,4.9673
1710.00,4.9599
1709.00,5.0231
1708.00,5.1605
1707.00,4.8583
1706.00,4.5634
1705.00,4.4511
1704.00,4.4383
1703.00,4.4603
1702.00,4.4563
1701.00,4.3931
1700.00,4.2997
1699.00,4.2722
1698.00,4.3599
1697.00,4.5341
1696.00,4.7465
1695.00,4.8579
1694.00,4.6548
1693.00,4.4192
1692.00,4.2529
1691.00,4.1052
1690.00,3.9614
1689.00,3.8333
1688.00,3.7315
1687.00,3.6565
1686.00,3.6043
1685.00,3.5735
1684.00,3.5676
1683.00,3.5852
1682.00,3.6023
1681.00,3.5983
1680.00,3.5779
1679.00,3.5516
1678.00,3.5289
1677.00,3.5117
1676.00,3.4951
1675.00,3.4761
1674.00,3.4589
1673.00,3.4473
1672.00,3.4362
1671.00,3.4198
1670.00,3.4014
1669.00,3.3875
1668.00,3.3744
1667.00,3.3524
1666.00,3.3185
1665.00,3.2758
1664.00,3.2280
1663.00,3.1790
1662.00,3.1350
1661.00,3.0968
1660.00,3.0563
1659.00,3.0075
1658.00,2.9525
1657.00,2.8992
1656.00,2.8527
1655.00,2.8092
1654.00,2.7615
1653.00,2.7194
1652.00,2.7075
1651.00,2.7164
1650.00,2.7206
1649.00,2.7093
1648.00,2.6872
1647.00,2.6737
1646.00,2.6792
1645.00,2.6945
1644.00,2.7069
1643.00,2.7148
1642.00,2.7210
1641.00,2.7292
1640.00,2.7441
1639.00,2.7669
1638.00,2.7945
1637.00,2.8240
1636.00,2.8554
1635.00,2.8885
1634.00,2.9156
1633.00,2.9322
1632.00,2.9431
1631.00,2.9507
1630.00,2.9570
1629.00,2.9657
1628.00,2.9809
1627.00,3.0041
1626.00,3.0311
1625.00,3.0544
1624.00,3.0705
1623.00,3.0841
1622.00,3.1036
1621.00,3.1309
1620.00,3.1595
1619.00,3.1813
1618.00,3.1930
1617.00,3.2009
1616.00,3.2154
1615.00,3.2349
1614.00,3.2478
1613.00,3.2512
1612.00,3.2523
1611.00,3.2567
1610.00,3.2632
1609.00,3.2682
1608.00,3.2717
1607.00,3.2752
1606.00,3.2780
1605.00,3.2784
1604.00,3.2765
1603.00,3.2725
1602.00,3.2669
1601.00,3.2629
1600.00,3.2645
1599.00,3.2704
1598.00,3.2747
1597.00,3.2736
1596.00,3.2690
1595.00,3.2623
1594.00,3.2518
1593.00,3.2365
1592.00,3.2191
1591.00,3.2043
1590.00,3.1942
1589.00,3.1864
1588.00,3.1767
1587.00,3.1623
1586.00,3.1437
1585.00,3.1239
1584.00,3.1048
1583.00,3.0872
1582.00,3.0697
1581.00,3.0509
1580.00,3.0309
1579.00,3.0099
1578.00,2.9865
1577.00,2.9594
1576.00,2.9300
1575.00,2.9007
1574.00,2.8696
1573.00,2.8321
1572.00,2.7851
1571.00,2.7276
1570.00,2.6647
1569.00,2.6082
1568.00,2.5603
1567.00,2.5105
1566.00,2.4503
1565.00,2.3807
1564.00,2.3099
1563.00,2.2465
1562.00,2.1891
1561.00,2.1272
1560.00,2.0557
1559.00,1.9930
1558.00,1.9803
1557.00,1.9932
1556.00,1.9923
1555.00,1.9886
1554.00,1.9903
1553.00,2.0056
1552.00,2.0374
1551.00,2.0798
1550.00,2.1272
1549.00,2.1811
1548.00,2.2416
1547.00,2.3033
1546.00,2.3610
1545.00,2.4154
1544.00,2.4736
1543.00,2.5397
1542.00,2.6098
1541.00,2.6822
1540.00,2.7615
1539.00,2.8428
1538.00,2.9027
1537.00,2.9350
1536.00,2.9503
1535.00,2.9574
1534.00,2.9688
1533.00,2.9933
1532.00,3.0284
1531.00,3.0621
1530.00,3.0879
1529.00,3.1064
1528.00,3.1201
1527.00,3.1367
1526.00,3.1656
1525.00,3.2061
1524.00,3.2467
1523.00,3.2735
1522.00,3.2827
1521.00,3.2850
1520.00,3.2919
1519.00,3.3044
1518.00,3.3155
1517.00,3.3184
1516.00,3.3150
1515.00,3.3123
1514.00,3.3141
1513.00,3.3180
1512.00,3.3217
1511.00,3.3275
1510.00,3.3378
1509.00,3.3478
1508.00,3.3534
1507.00,3.3609
1506.00,3.3799
1505.00,3.3964
1504.00,3.4062
1503.00,3.4162
1502.00,3.4178
1501.00,3.4060
1500.00,3.3860
1499.00,3.3701
1498.00,3.3658
1497.00,3.3711
1496.00,3.3804
1495.00,3.3859
1494.00,3.3800
1493.00,3.3592
1492.00,3.3311
1491.00,3.3091
1490.00,3.2999
1489.00,3.2974
1488.00,3.2904
1487.00,3.2769
1486.00,3.2617
1485.00,3.2438
1484.00,3.2179
1483.00,3.1852
1482.00,3.1502
1481.00,3.1164
1480.00,3.0847
1479.00,3.0529
1478.00,3.0166
1477.00,2.9739
1476.00,2.9289
1475.00,2.8881
1474.00,2.8526
1473.00,2.8211
1472.00,2.7988
1471.00,2.7920
1470.00,2.8022
1469.00,2.8280
1468.00,2.8666
1467.00,2.9169
1466.00,2.9796
1465.00,3.0519
1464.00,3.1215
1463.00,3.1717
1462.00,3.1975
1461.00,3.2095
1460.00,3.2205
1459.00,3.2422
1458.00,3.2891
1457.00,3.3788
1456.00,3.5184
1455.00,3.6916
1454.00,3.8716
1453.00,4.0403
1452.00,4.2082
1451.00,4.4072
1450.00,4.5995
1449.00,4.5611
1448.00,4.3383
1447.00,4.1001
1446.00,3.9248
1445.00,3.7961
1444.00,3.6774
1443.00,3.5554
1442.00,3.4433
1441.00,3.3598
1440.00,3.3103
1439.00,3.2874
1438.00,3.2808
1437.00,3.2914
1436.00,3.3321
1435.00,3.4097
1434.00,3.5083
1433.00,3.5999
1432.00,3.6615
1431.00,3.6867
1430.00,3.6874
1429.00,3.6772
1428.00,3.6646
1427.00,3.6604
1426.00,3.6731
1425.00,3.6962
1424.00,3.7110
1423.00,3.7083
1422.00,3.7027
1421.00,3.7128
1420.00,3.7320
1419.00,3.7173
1418.00,3.6399
1417.00,3.5384
1416.00,3.4473
1415.00,3.3691
1414.00,3.2970
1413.00,3.2271
1412.00,3.1609
1411.00,3.1047
1410.00,3.0650
1409.00,3.0448
1408.00,3.0413
1407.00,3.0470
1406.00,3.0556
1405.00,3.0641
1404.00,3.0728
1403.00,3.0829
1402.00,3.0940
1401.00,3.1059
1400.00,3.1217
1399.00,3.1475
1398.00,3.1842
1397.00,3.2253
1396.00,3.2627
1395.00,3.2925
1394.00,3.3118
1393.00,3.3208
1392.00,3.3273
1391.00,3.3402
1390.00,3.3585
1389.00,3.3739
1388.00,3.3821
1387.00,3.3916
1386.00,3.4148
1385.00,3.4498
1384.00,3.4791
1383.00,3.4903
1382.00,3.4898
1381.00,3.4916
1380.00,3.5009
1379.00,3.5109
1378.00,3.5140
1377.00,3.5127
1376.00,3.5162
1375.00,3.5291
1374.00,3.5457
1373.00,3.5520
1372.00,3.5397
1371.00,3.5175
1370.00,3.5008
1369.00,3.4978
1368.00,3.5065
1367.00,3.5154
1366.00,3.5139
1365.00,3.5054
1364.00,3.5011
1363.00,3.5074
1362.00,3.5213
1361.00,3.5327
1360.00,3.5341
1359.00,3.5258
1358.00,3.5127
1357.00,3.4987
1356.00,3.4841
1355.00,3.4669
1354.00,3.4490
1353.00,3.4396
1352.00,3.4519
1351.00,3.4960
1350.00,3.5732
1349.00,3.6714
1348.00,3.7657
1347.00,3.8278
1346.00,3.8452
1345.00,3.8319
1344.00,3.8173
1343.00,3.8258
1342.00,3.8631
1341.00,3.9116
1340.00,3.9403
1339.00,3.9329
1338.00,3.8973
1337.00,3.8404
1336.00,3.7652
1335.00,3.6866
1334.00,3.6234
1333.00,3.5817
1332.00,3.5516
1331.00,3.5141
1330.00,3.4564
1329.00,3.3852
1328.00,3.3186
1327.00,3.2711
1326.00,3.2483
1325.00,3.2482
1324.00,3.2655
1323.00,3.2961
1322.00,3.3395
1321.00,3.3981
1320.00,3.4749
1319.00,3.5698
1318.00,3.6764
1317.00,3.7830
1316.00,3.8789
1315.00,3.9674
1314.00,4.0620
1313.00,4.1597
1312.00,4.2223
1311.00,4.2326
1310.00,4.2195
1309.00,4.1848
1308.00,4.1063
1307.00,3.9858
1306.00,3.8597
1305.00,3.7567
1304.00,3.6791
1303.00,3.6109
1302.00,3.5344
1301.00,3.4461
1300.00,3.3563
1299.00,3.2749
1298.00,3.2028
1297.00,3.1350
1296.00,3.0689
1295.00,3.0090
1294.00,2.9611
1293.00,2.9263
1292.00,2.9019
1291.00,2.8865
1290.00,2.8828
1289.00,2.8940
1288.00,2.9188
1287.00,2.9503
1286.00,2.9813
1285.00,3.0108
1284.00,3.0434
1283.00,3.0833
1282.00,3.1300
1281.00,3.1794
1280.00,3.2260
1279.00,3.2665
1278.00,3.3019
1277.00,3.3394
1276.00,3.3862
1275.00,3.4411
1274.00,3.4929
1273.00,3.5304
1272.00,3.5553
1271.00,3.5768
1270.00,3.5982
1269.00,3.6170
1268.00,3.6343
1267.00,3.6558
1266.00,3.6816
1265.00,3.7071
1264.00,3.7232
1263.00,3.7203
1262.00,3.7029
1261.00,3.6848
1260.00,3.6761
1259.00,3.6793
1258.00,3.6895
1257.00,3.6999
1256.00,3.7126
1255.00,3.7324
1254.00,3.7519
1253.00,3.7684
1252.00,3.7933
1251.00,3.8212
1250.00,3.8342
1249.00,3.8284
1248.00,3.8095
1247.00,3.7914
1246.00,3.7880
1245.00,3.7987
1244.00,3.8109
1243.00,3.8156
1242.00,3.8162
1241.00,3.8210
1240.00,3.8378
1239.00,3.8750
1238.00,3.9422
1237.00,4.0344
1236.00,4.1018
1235.00,4.0820
1234.00,4.0090
1233.00,3.9640
1232.00,3.9800
1231.00,4.0411
1230.00,4.1199
1229.00,4.2226
1228.00,4.4135
1227.00,4.9101
1226.00,5.0800
1225.00,4.5625
1224.00,4.6003
1223.00,4.9879
1222.00,4.6313
1221.00,4.3568
1220.00,4.2280
1219.00,4.1407
1218.00,4.0710
1217.00,4.0331
1216.00,4.0398
1215.00,4.0778
1214.00,4.1081
1213.00,4.0838
1212.00,3.9952
1211.00,3.8843
1210.00,3.7988
1209.00,3.7626
1208.00,3.7774
1207.00,3.8277
1206.00,3.8802
1205.00,3.9022
1204.00,3.8999
1203.00,3.8964
1202.00,3.8990
1201.00,3.9084
1200.00,3.9205
1199.00,3.9180
1198.00,3.8834
1197.00,3.8290
1196.00,3.7867
1195.00,3.7734
1194.00,3.7782
1193.00,3.7757
1192.00,3.7572
1191.00,3.7363
1190.00,3.7234
1189.00,3.7174
1188.00,3.7149
1187.00,3.7099
1186.00,3.6951
1185.00,3.6735
1184.00,3.6562
1183.00,3.6437
1182.00,3.6244
1181.00,3.5947
1180.00,3.5627
1179.00,3.5334
1178.00,3.5053
1177.00,3.4784
1176.00,3.4595
1175.00,3.4536
1174.00,3.4532
1173.00,3.4447
1172.00,3.4278
1171.00,3.4155
1170.00,3.4126
1169.00,3.4126
1168.00,3.4086
1167.00,3.4012
1166.00,3.3973
1165.00,3.4002
1164.00,3.4023
1163.00,3.3920
1162.00,3.3713
1161.00,3.3557
1160.00,3.3573
1159.00,3.3737
1158.00,3.3919
1157.00,3.4045
1156.00,3.4175
1155.00,3.4357
1154.00,3.4499
1153.00,3.4512
1152.00,3.4403
1151.00,3.4259
1150.00,3.4281
1149.00,3.4619
1148.00,3.5241
1147.00,3.5963
1146.00,3.6523
1145.00,3.6795
1144.00,3.6960
1143.00,3.7294
1142.00,3.7911
1141.00,3.8715
1140.00,3.9501
1139.00,4.0162
1138.00,4.0650
1137.00,4.0780
1136.00,4.0491
1135.00,4.0020
1134.00,3.9591
1133.00,3.9284
1132.00,3.9023
1131.00,3.8731
1130.00,3.8578
1129.00,3.8744
1128.00,3.9097
1127.00,3.9279
1126.00,3.9157
1125.00,3.9018
1124.00,3.9327
1123.00,4.0298
1122.00,4.1561
1121.00,4.2634
1120.00,4.3688
1119.00,4.4426
1118.00,4.4121
1117.00,4.3089
1116.00,4.1949
1115.00,4.0715
1114.00,3.9322
1113.00,3.8078
1112.00,3.7336
1111.00,3.7297
1110.00,3.8072
1109.00,3.9525
1108.00,4.0935
1107.00,4.2134
1106.00,4.3252
1105.00,4.3044
1104.00,4.2152
1103.00,4.1004
1102.00,3.9902
1101.00,3.9401
1100.00,3.9728
1099.00,4.0835
1098.00,4.1842
1097.00,4.1177
1096.00,3.9530
1095.00,3.8277
1094.00,3.7829
1093.00,3.8204
1092.00,3.9268
1091.00,4.0602
1090.00,4.1335
1089.00,4.1184
1088.00,4.0922
1087.00,4.0826
1086.00,4.0538
1085.00,4.0007
1084.00,3.9656
1083.00,3.9707
1082.00,3.9956
1081.00,4.0134
1080.00,4.0217
1079.00,4.0321
1078.00,4.0610
1077.00,4.1139
1076.00,4.1799
1075.00,4.2386
1074.00,4.2767
1073.00,4.3282
1072.00,4.4803
1071.00,4.8256
1070.00,5.0053
1069.00,4.5715
1068.00,4.2312
1067.00,4.0403
1066.00,3.9595
1065.00,3.9608
1064.00,4.0225
1063.00,4.0920
1062.00,4.0839
1061.00,3.9974
1060.00,3.8939
1059.00,3.8175
1058.00,3.7942
1057.00,3.8285
1056.00,3.8945
1055.00,3.9373
1054.00,3.9197
1053.00,3.8601
1052.00,3.7850
1051.00,3.7062
1050.00,3.6434
1049.00,3.6229
1048.00,3.6577
1047.00,3.7361
1046.00,3.8219
1045.00,3.8473
1044.00,3.7669
1043.00,3.6576
1042.00,3.5880
1041.00,3.5655
1040.00,3.5693
1039.00,3.5658
1038.00,3.5345
1037.00,3.4895
1036.00,3.4547
1035.00,3.4335
1034.00,3.4130
1033.00,3.3858
1032.00,3.3600
1031.00,3.3482
1030.00,3.3549
1029.00,3.3785
1028.00,3.4180
1027.00,3.4726
1026.00,3.5340
1025.00,3.5799
1024.00,3.6008
1023.00,3.6300
1022.00,3.7101
1021.00,3.8657
1020.00,4.0850
1019.00,4.2441
1018.00,4.1795
1017.00,4.0102
1016.00,3.8886
1015.00,3.8435
1014.00,3.8484
1013.00,3.8560
1012.00,3.8358
1011.00,3.7939
1010.00,3.7502
1009.00,3.7259
1008.00,3.7382
1007.00,3.7893
1006.00,3.8628
1005.00,3.9486
1004.00,4.0794
1003.00,4.2322
1002.00,4.2662
1001.00,4.2351
1000.00,4.2198
999.00,4.1924
998.00,4.1491
997.00,4.1175
996.00,4.1171
995.00,4.1164
994.00,4.0690
993.00,4.0396
992.00,4.1125
991.00,4.3911
990.00,4.8834
989.00,4.6760
988.00,4.4300
987.00,4.3432
986.00,4.4146
985.00,4.5018
984.00,4.4582
983.00,4.4266
982.00,4.4575
981.00,4.4436
980.00,4.2382
979.00,4.0719
978.00,4.0067
977.00,3.9952
976.00,4.0061
975.00,4.0453
974.00,4.1532
973.00,4.3071
972.00,4.3366
971.00,4.3495
970.00,4.3912
969.00,4.3254
968.00,4.3553
967.00,4.3313
966.00,4.1755
965.00,4.1396
964.00,4.2972
963.00,4.7995
962.00,4.7062
961.00,4.2830
960.00,4.1683
959.00,4.1783
958.00,4.3429
957.00,4.6992
956.00,4.7109
955.00,4.6280
954.00,4.5325
953.00,4.3859
952.00,4.3884
951.00,4.5736
950.00,4.5839
949.00,4.2592
948.00,4.0549
947.00,3.9477
946.00,3.9117
945.00,3.9406
944.00,4.0048
943.00,4.0772
942.00,4.1580
941.00,4.2893
940.00,4.4948
939.00,4.7345
938.00,4.9362
937.00,5.0612
936.00,5.1316
935.00,5.0928
934.00,4.6806
933.00,4.3300
932.00,4.1530
931.00,4.1407
930.00,4.2177
929.00,4.1973
928.00,4.1439
927.00,4.1565
926.00,4.1502
925.00,4.0431
924.00,3.9153
923.00,3.8606
922.00,3.8931
921.00,3.9915
920.00,4.1410
919.00,4.3604
918.00,4.7167
917.00,5.1079
916.00,4.9847
915.00,4.8149
914.00,4.5976
913.00,4.3573
912.00,4.2436
911.00,4.2371
910.00,4.1654
909.00,4.0382
908.00,3.9626
907.00,3.9105
906.00,3.8843
905.00,3.9032
904.00,3.9413
903.00,3.9700
902.00,3.9652
901.00,3.9339
900.00,3.9495
899.00,4.0341
898.00,4.1794
897.00,4.3594
896.00,4.6180
895.00,5.0751
894.00,4.4368
893.00,4.0524
892.00,3.9654
891.00,4.0787
890.00,4.2619
889.00,4.2498
888.00,4.2650
887.00,4.3927
886.00,4.3414
885.00,4.1812
884.00,4.1231
883.00,4.1695
882.00,4.2981
881.00,4.5499
880.00,4.6380
879.00,4.4438
878.00,4.3217
877.00,4.1628
876.00,4.0590
875.00,4.0754
874.00,4.1427
873.00,4.1078
872.00,3.9759
871.00,3.8587
870.00,3.7801
869.00,3.7544
868.00,3.7842
867.00,3.8332
866.00,3.9152
865.00,4.0354
864.00,4.2725
863.00,4.8288
862.00,4.7250
861.00,4.5232
860.00,4.3912
859.00,4.2671
858.00,4.2628
857.00,4.2529
856.00,4.1777
855.00,4.1789
854.00,4.2353
853.00,4.0696
852.00,3.9261
851.00,3.9387
850.00,4.0211
849.00,4.0423
848.00,4.0211
847.00,4.0106
846.00,4.0016
845.00,4.0034
844.00,4.0412
843.00,4.1234
842.00,4.3318
841.00,4.6889
840.00,4.5735
839.00,4.4571
838.00,4.4802
837.00,4.3860
836.00,4.2113
835.00,4.1342
834.00,4.1928
833.00,4.4811
832.00,4.8522
831.00,4.4042
830.00,4.1947
829.00,4.1540
828.00,4.1686
827.00,4.1019
826.00,3.9837
825.00,3.9636
824.00,4.0580
823.00,4.2240
822.00,4.3077
821.00,4.2845
820.00,4.2735
819.00,4.3353
818.00,4.2981
817.00,4.0964
816.00,3.9652
815.00,3.9363
814.00,3.9700
813.00,4.0151
812.00,4.0391
811.00,4.0137
810.00,3.9497
809.00,3.8480
808.00,3.8077
807.00,3.8344
806.00,4.0521
805.00,4.7363
804.00,4.3884
803.00,4.1636
802.00,4.3179
801.00,4.5100
800.00,4.3103
799.00,4.1260
798.00,3.9726
797.00,3.8488
796.00,3.8450
795.00,3.9483
794.00,4.0850
793.00,4.0979
792.00,4.0716
791.00,4.1428
790.00,4.3157
789.00,4.2211
788.00,4.0426
787.00,4.0120
786.00,3.9980
785.00,3.9609
784.00,3.9795
783.00,4.0350
782.00,4.0260
781.00,3.9574
780.00,3.9020
779.00,3.9023
778.00,3.9725
777.00,4.1321
776.00,4.3213
775.00,4.3012
774.00,4.1267
773.00,3.9542
772.00,3.7908
771.00,3.7290
770.00,3.7719
769.00,4.0113
768.00,4.6505
767.00,4.3334
766.00,4.0910
765.00,4.0243
764.00,3.9860
763.00,4.0239
762.00,4.1579
761.00,4.6505
760.00,4.6325
759.00,4.2760
758.00,4.1098
757.00,3.9363
756.00,3.8741
755.00,3.9469
754.00,4.0838
753.00,4.2357
752.00,4.2650
751.00,4.0189
750.00,3.8299
749.00,3.7843
748.00,3.8700
747.00,4.1236
746.00,4.4596
745.00,4.4924
744.00,4.3253
743.00,4.1468
742.00,4.0625
741.00,4.0441
740.00,4.0016
739.00,3.9532
738.00,3.9453
737.00,3.9873
736.00,4.0565
735.00,4.1140
734.00,4.0514
733.00,3.8774
732.00,3.7878
731.00,3.8332
730.00,4.0281
729.00,4.2903
728.00,4.1712
727.00,3.9902
726.00,3.9480
725.00,3.9941
724.00,4.1683
723.00,4.3958
722.00,4.2944
721.00,4.1971
720.00,4.1739
719.00,4.1048
718.00,4.0163
717.00,3.8792
716.00,3.7606
715.00,3.7250
714.00,3.7695
713.00,3.8581
712.00,3.9577
711.00,4.1011
710.00,4.3325
709.00,4.5672
708.00,4.5340
707.00,4.2468
706.00,4.0398
705.00,3.9629
704.00,3.9867
703.00,4.0747
702.00,4.0738
701.00,3.9457
700.00,3.8483
