Created as New Dataset,Sample 067 By Administrator Date Wednesday, November 24 2021
cm-1,A
7502.00,1.1471
7501.00,1.1537
7500.00,1.1591
7499.00,1.1626
7498.00,1.1647
7497.00,1.1664
7496.00,1.1683
7495.00,1.1703
7494.00,1.1725
7493.00,1.1746
7492.00,1.1769
7491.00,1.1794
7490.00,1.1819
7489.00,1.1839
7488.00,1.1849
7487.00,1.1845
7486.00,1.1832
7485.00,1.1811
7484.00,1.1784
7483.00,1.1751
7482.00,1.1718
7481.00,1.1689
7480.00,1.1661
7479.00,1.1628
7478.00,1.1589
7477.00,1.1550
7476.00,1.1515
7475.00,1.1482
7474.00,1.1446
7473.00,1.1399
7472.00,1.1343
7471.00,1.1280
7470.00,1.1210
7469.00,1.1131
7468.00,1.1047
7467.00,1.0964
7466.00,1.0884
7465.00,1.0804
7464.00,1.0716
7463.00,1.0619
7462.00,1.0523
7461.00,1.0433
7460.00,1.0347
7459.00,1.0255
7458.00,1.0156
7457.00,1.0055
7456.00,0.9960
7455.00,0.9867
7454.00,0.9768
7453.00,0.9663
7452.00,0.9558
7451.00,0.9456
7450.00,0.9355
7449.00,0.9252
7448.00,0.9148
7447.00,0.9046
7446.00,0.8948
7445.00,0.8852
7444.00,0.8759
7443.00,0.8669
7442.00,0.8587
7441.00,0.8511
7440.00,0.8438
7439.00,0.8366
7438.00,0.8294
7437.00,0.8225
7436.00,0.8162
7435.00,0.8107
7434.00,0.8060
7433.00,0.8017
7432.00,0.7979
7431.00,0.7946
7430.00,0.7916
7429.00,0.7887
7428.00,0.7863
7427.00,0.7845
7426.00,0.7834
7425.00,0.7831
7424.00,0.7835
7423.00,0.7845
7422.00,0.7863
7421.00,0.7886
7420.00,0.7911
7419.00,0.7938
7418.00,0.7967
7417.00,0.8002
7416.00,0.8042
7415.00,0.8087
7414.00,0.8137
7413.00,0.8195
7412.00,0.8262
7411.00,0.8336
7410.00,0.8413
7409.00,0.8488
7408.00,0.8559
7407.00,0.8631
7406.00,0.8706
7405.00,0.8785
7404.00,0.8867
7403.00,0.8950
7402.00,0.9036
7401.00,0.9127
7400.00,0.9221
7399.00,0.9311
7398.00,0.9396
7397.00,0.9476
7396.00,0.9557
7395.00,0.9638
7394.00,0.9719
7393.00,0.9799
7392.00,0.9876
7391.00,0.9953
7390.00,1.0028
7389.00,1.0099
7388.00,1.0168
7387.00,1.0239
7386.00,1.0315
7385.00,1.0395
7384.00,1.0475
7383.00,1.0550
7382.00,1.0621
7381.00,1.0689
7380.00,1.0756
7379.00,1.0817
7378.00,1.0868
7377.00,1.0905
7376.00,1.0931
7375.00,1.0954
7374.00,1.0978
7373.00,1.0999
7372.00,1.1014
7371.00,1.1023
7370.00,1.1031
7369.00,1.1040
7368.00,1.1051
7367.00,1.1059
7366.00,1.1061
7365.00,1.1054
7364.00,1.1043
7363.00,1.1032
7362.00,1.1024
7361.00,1.1017
7360.00,1.1008
7359.00,1.0996
7358.00,1.0982
7357.00,1.0971
7356.00,1.0964
7355.00,1.0965
7354.00,1.0974
7353.00,1.0991
7352.00,1.1009
7351.00,1.1020
7350.00,1.1013
7349.00,1.0981
7348.00,1.0923
7347.00,1.0850
7346.00,1.0778
7345.00,1.0717
7344.00,1.0671
7343.00,1.0634
7342.00,1.0608
7341.00,1.0590
7340.00,1.0573
7339.00,1.0543
7338.00,1.0489
7337.00,1.0416
7336.00,1.0337
7335.00,1.0263
7334.00,1.0194
7333.00,1.0126
7332.00,1.0056
7331.00,0.9985
7330.00,0.9913
7329.00,0.9837
7328.00,0.9756
7327.00,0.9669
7326.00,0.9579
7325.00,0.9487
7324.00,0.9397
7323.00,0.9313
7322.00,0.9233
7321.00,0.9151
7320.00,0.9068
7319.00,0.8986
7318.00,0.8910
7317.00,0.8836
7316.00,0.8760
7315.00,0.8683
7314.00,0.8607
7313.00,0.8532
7312.00,0.8456
7311.00,0.8375
7310.00,0.8292
7309.00,0.8207
7308.00,0.8126
7307.00,0.8053
7306.00,0.7991
7305.00,0.7943
7304.00,0.7906
7303.00,0.7876
7302.00,0.7852
7301.00,0.7831
7300.00,0.7812
7299.00,0.7794
7298.00,0.7778
7297.00,0.7765
7296.00,0.7756
7295.00,0.7751
7294.00,0.7753
7293.00,0.7763
7292.00,0.7779
7291.00,0.7802
7290.00,0.7829
7289.00,0.7863
7288.00,0.7904
7287.00,0.7951
7286.00,0.8002
7285.00,0.8059
7284.00,0.8119
7283.00,0.8183
7282.00,0.8251
7281.00,0.8322
7280.00,0.8395
7279.00,0.8472
7278.00,0.8555
7277.00,0.8643
7276.00,0.8734
7275.00,0.8823
7274.00,0.8909
7273.00,0.8997
7272.00,0.9088
7271.00,0.9181
7270.00,0.9274
7269.00,0.9369
7268.00,0.9466
7267.00,0.9567
7266.00,0.9670
7265.00,0.9774
7264.00,0.9877
7263.00,0.9978
7262.00,1.0074
7261.00,1.0165
7260.00,1.0255
7259.00,1.0347
7258.00,1.0440
7257.00,1.0529
7256.00,1.0609
7255.00,1.0686
7254.00,1.0766
7253.00,1.0848
7252.00,1.0928
7251.00,1.1002
7250.00,1.1075
7249.00,1.1150
7248.00,1.1226
7247.00,1.1298
7246.00,1.1364
7245.00,1.1425
7244.00,1.1484
7243.00,1.1541
7242.00,1.1595
7241.00,1.1647
7240.00,1.1693
7239.00,1.1732
7238.00,1.1764
7237.00,1.1790
7236.00,1.1813
7235.00,1.1832
7234.00,1.1846
7233.00,1.1860
7232.00,1.1879
7231.00,1.1902
7230.00,1.1928
7229.00,1.1948
7228.00,1.1958
7227.00,1.1959
7226.00,1.1954
7225.00,1.1946
7224.00,1.1934
7223.00,1.1916
7222.00,1.1892
7221.00,1.1862
7220.00,1.1831
7219.00,1.1799
7218.00,1.1763
7217.00,1.1719
7216.00,1.1668
7215.00,1.1610
7214.00,1.1549
7213.00,1.1484
7212.00,1.1414
7211.00,1.1340
7210.00,1.1265
7209.00,1.1191
7208.00,1.1119
7207.00,1.1045
7206.00,1.0968
7205.00,1.0888
7204.00,1.0806
7203.00,1.0721
7202.00,1.0636
7201.00,1.0548
7200.00,1.0457
7199.00,1.0360
7198.00,1.0259
7197.00,1.0159
7196.00,1.0059
7195.00,0.9957
7194.00,0.9852
7193.00,0.9742
7192.00,0.9633
7191.00,0.9526
7190.00,0.9422
7189.00,0.9317
7188.00,0.9210
7187.00,0.9105
7186.00,0.9005
7185.00,0.8908
7184.00,0.8813
7183.00,0.8719
7182.00,0.8629
7181.00,0.8547
7180.00,0.8470
7179.00,0.8395
7178.00,0.8321
7177.00,0.8248
7176.00,0.8177
7175.00,0.8109
7174.00,0.8049
7173.00,0.7997
7172.00,0.7955
7171.00,0.7920
7170.00,0.7891
7169.00,0.7867
7168.00,0.7847
7167.00,0.7831
7166.00,0.7819
7165.00,0.7814
7164.00,0.7817
7163.00,0.7827
7162.00,0.7841
7161.00,0.7861
7160.00,0.7889
7159.00,0.7926
7158.00,0.7969
7157.00,0.8015
7156.00,0.8062
7155.00,0.8112
7154.00,0.8167
7153.00,0.8228
7152.00,0.8293
7151.00,0.8363
7150.00,0.8437
7149.00,0.8515
7148.00,0.8597
7147.00,0.8683
7146.00,0.8772
7145.00,0.8863
7144.00,0.8952
7143.00,0.9041
7142.00,0.9132
7141.00,0.9225
7140.00,0.9317
7139.00,0.9407
7138.00,0.9495
7137.00,0.9583
7136.00,0.9672
7135.00,0.9763
7134.00,0.9855
7133.00,0.9951
7132.00,1.0047
7131.00,1.0142
7130.00,1.0234
7129.00,1.0324
7128.00,1.0411
7127.00,1.0492
7126.00,1.0566
7125.00,1.0636
7124.00,1.0710
7123.00,1.0788
7122.00,1.0865
7121.00,1.0934
7120.00,1.0997
7119.00,1.1062
7118.00,1.1133
7117.00,1.1207
7116.00,1.1274
7115.00,1.1332
7114.00,1.1385
7113.00,1.1436
7112.00,1.1483
7111.00,1.1521
7110.00,1.1555
7109.00,1.1589
7108.00,1.1626
7107.00,1.1665
7106.00,1.1701
7105.00,1.1732
7104.00,1.1756
7103.00,1.1774
7102.00,1.1784
7101.00,1.1786
7100.00,1.1784
7099.00,1.1783
7098.00,1.1782
7097.00,1.1778
7096.00,1.1769
7095.00,1.1760
7094.00,1.1755
7093.00,1.1751
7092.00,1.1735
7091.00,1.1705
7090.00,1.1666
7089.00,1.1628
7088.00,1.1590
7087.00,1.1549
7086.00,1.1505
7085.00,1.1459
7084.00,1.1413
7083.00,1.1365
7082.00,1.1311
7081.00,1.1249
7080.00,1.1180
7079.00,1.1104
7078.00,1.1025
7077.00,1.0948
7076.00,1.0871
7075.00,1.0792
7074.00,1.0712
7073.00,1.0632
7072.00,1.0552
7071.00,1.0472
7070.00,1.0388
7069.00,1.0294
7068.00,1.0189
7067.00,1.0077
7066.00,0.9966
7065.00,0.9859
7064.00,0.9756
7063.00,0.9653
7062.00,0.9550
7061.00,0.9449
7060.00,0.9351
7059.00,0.9254
7058.00,0.9154
7057.00,0.9053
7056.00,0.8953
7055.00,0.8854
7054.00,0.8758
7053.00,0.8666
7052.00,0.8579
7051.00,0.8494
7050.00,0.8412
7049.00,0.8334
7048.00,0.8260
7047.00,0.8189
7046.00,0.8122
7045.00,0.8058
7044.00,0.7997
7043.00,0.7943
7042.00,0.7898
7041.00,0.7861
7040.00,0.7830
7039.00,0.7805
7038.00,0.7782
7037.00,0.7765
7036.00,0.7753
7035.00,0.7749
7034.00,0.7753
7033.00,0.7764
7032.00,0.7782
7031.00,0.7807
7030.00,0.7838
7029.00,0.7874
7028.00,0.7914
7027.00,0.7957
7026.00,0.8005
7025.00,0.8059
7024.00,0.8119
7023.00,0.8185
7022.00,0.8256
7021.00,0.8331
7020.00,0.8410
7019.00,0.8491
7018.00,0.8574
7017.00,0.8660
7016.00,0.8748
7015.00,0.8839
7014.00,0.8934
7013.00,0.9030
7012.00,0.9127
7011.00,0.9224
7010.00,0.9323
7009.00,0.9423
7008.00,0.9521
7007.00,0.9618
7006.00,0.9717
7005.00,0.9819
7004.00,0.9923
7003.00,1.0022
7002.00,1.0119
7001.00,1.0214
7000.00,1.0310
6999.00,1.0405
6998.00,1.0498
6997.00,1.0588
6996.00,1.0678
6995.00,1.0767
6994.00,1.0855
6993.00,1.0939
6992.00,1.1019
6991.00,1.1097
6990.00,1.1174
6989.00,1.1247
6988.00,1.1318
6987.00,1.1387
6986.00,1.1456
6985.00,1.1523
6984.00,1.1585
6983.00,1.1643
6982.00,1.1701
6981.00,1.1758
6980.00,1.1811
6979.00,1.1857
6978.00,1.1894
6977.00,1.1930
6976.00,1.1965
6975.00,1.1997
6974.00,1.2020
6973.00,1.2036
6972.00,1.2049
6971.00,1.2064
6970.00,1.2080
6969.00,1.2094
6968.00,1.2100
6967.00,1.2100
6966.00,1.2095
6965.00,1.2090
6964.00,1.2084
6963.00,1.2072
6962.00,1.2049
6961.00,1.2018
6960.00,1.1984
6959.00,1.1950
6958.00,1.1915
6957.00,1.1872
6956.00,1.1821
6955.00,1.1765
6954.00,1.1710
6953.00,1.1656
6952.00,1.1598
6951.00,1.1532
6950.00,1.1461
6949.00,1.1390
6948.00,1.1316
6947.00,1.1237
6946.00,1.1152
6945.00,1.1062
6944.00,1.0970
6943.00,1.0876
6942.00,1.0782
6941.00,1.0689
6940.00,1.0595
6939.00,1.0497
6938.00,1.0396
6937.00,1.0291
6936.00,1.0184
6935.00,1.0074
6934.00,0.9961
6933.00,0.9846
6932.00,0.9734
6931.00,0.9626
6930.00,0.9522
6929.00,0.9416
6928.00,0.9308
6927.00,0.9199
6926.00,0.9092
6925.00,0.8987
6924.00,0.8883
6923.00,0.8780
6922.00,0.8680
6921.00,0.8588
6920.00,0.8500
6919.00,0.8414
6918.00,0.8332
6917.00,0.8253
6916.00,0.8179
6915.00,0.8108
6914.00,0.8044
6913.00,0.7989
6912.00,0.7943
6911.00,0.7903
6910.00,0.7868
6909.00,0.7838
6908.00,0.7814
6907.00,0.7798
6906.00,0.7789
6905.00,0.7784
6904.00,0.7783
6903.00,0.7786
6902.00,0.7797
6901.00,0.7818
6900.00,0.7847
6899.00,0.7880
6898.00,0.7919
6897.00,0.7966
6896.00,0.8021
6895.00,0.8081
6894.00,0.8143
6893.00,0.8208
6892.00,0.8277
6891.00,0.8351
6890.00,0.8431
6889.00,0.8515
6888.00,0.8600
6887.00,0.8684
6886.00,0.8770
6885.00,0.8861
6884.00,0.8955
6883.00,0.9050
6882.00,0.9148
6881.00,0.9248
6880.00,0.9351
6879.00,0.9456
6878.00,0.9560
6877.00,0.9661
6876.00,0.9759
6875.00,0.9853
6874.00,0.9946
6873.00,1.0040
6872.00,1.0134
6871.00,1.0228
6870.00,1.0322
6869.00,1.0417
6868.00,1.0514
6867.00,1.0608
6866.00,1.0699
6865.00,1.0786
6864.00,1.0871
6863.00,1.0953
6862.00,1.1032
6861.00,1.1111
6860.00,1.1191
6859.00,1.1270
6858.00,1.1346
6857.00,1.1415
6856.00,1.1477
6855.00,1.1530
6854.00,1.1582
6853.00,1.1635
6852.00,1.1689
6851.00,1.1739
6850.00,1.1784
6849.00,1.1827
6848.00,1.1870
6847.00,1.1909
6846.00,1.1936
6845.00,1.1952
6844.00,1.1961
6843.00,1.1970
6842.00,1.1981
6841.00,1.1991
6840.00,1.1999
6839.00,1.2008
6838.00,1.2019
6837.00,1.2027
6836.00,1.2028
6835.00,1.2020
6834.00,1.2007
6833.00,1.1992
6832.00,1.1972
6831.00,1.1944
6830.00,1.1912
6829.00,1.1881
6828.00,1.1850
6827.00,1.1814
6826.00,1.1768
6825.00,1.1716
6824.00,1.1660
6823.00,1.1603
6822.00,1.1543
6821.00,1.1478
6820.00,1.1410
6819.00,1.1336
6818.00,1.1256
6817.00,1.1173
6816.00,1.1087
6815.00,1.0998
6814.00,1.0906
6813.00,1.0812
6812.00,1.0720
6811.00,1.0628
6810.00,1.0535
6809.00,1.0437
6808.00,1.0335
6807.00,1.0228
6806.00,1.0119
6805.00,1.0010
6804.00,0.9902
6803.00,0.9794
6802.00,0.9684
6801.00,0.9572
6800.00,0.9457
6799.00,0.9342
6798.00,0.9228
6797.00,0.9117
6796.00,0.9008
6795.00,0.8901
6794.00,0.8799
6793.00,0.8702
6792.00,0.8607
6791.00,0.8514
6790.00,0.8425
6789.00,0.8340
6788.00,0.8261
6787.00,0.8185
6786.00,0.8113
6785.00,0.8047
6784.00,0.7985
6783.00,0.7929
6782.00,0.7876
6781.00,0.7831
6780.00,0.7793
6779.00,0.7763
6778.00,0.7738
6777.00,0.7719
6776.00,0.7704
6775.00,0.7695
6774.00,0.7694
6773.00,0.7701
6772.00,0.7715
6771.00,0.7737
6770.00,0.7767
6769.00,0.7806
6768.00,0.7851
6767.00,0.7900
6766.00,0.7951
6765.00,0.8007
6764.00,0.8067
6763.00,0.8132
6762.00,0.8203
6761.00,0.8279
6760.00,0.8362
6759.00,0.8449
6758.00,0.8539
6757.00,0.8629
6756.00,0.8721
6755.00,0.8814
6754.00,0.8909
6753.00,0.9007
6752.00,0.9107
6751.00,0.9210
6750.00,0.9313
6749.00,0.9418
6748.00,0.9522
6747.00,0.9628
6746.00,0.9733
6745.00,0.9838
6744.00,0.9943
6743.00,1.0047
6742.00,1.0149
6741.00,1.0250
6740.00,1.0349
6739.00,1.0444
6738.00,1.0537
6737.00,1.0631
6736.00,1.0726
6735.00,1.0821
6734.00,1.0916
6733.00,1.1009
6732.00,1.1101
6731.00,1.1188
6730.00,1.1270
6729.00,1.1346
6728.00,1.1419
6727.00,1.1492
6726.00,1.1563
6725.00,1.1631
6724.00,1.1694
6723.00,1.1754
6722.00,1.1811
6721.00,1.1862
6720.00,1.1910
6719.00,1.1957
6718.00,1.2008
6717.00,1.2058
6716.00,1.2105
6715.00,1.2144
6714.00,1.2175
6713.00,1.2197
6712.00,1.2211
6711.00,1.2219
6710.00,1.2226
6709.00,1.2233
6708.00,1.2240
6707.00,1.2243
6706.00,1.2242
6705.00,1.2237
6704.00,1.2228
6703.00,1.2212
6702.00,1.2186
6701.00,1.2153
6700.00,1.2118
6699.00,1.2081
6698.00,1.2044
6697.00,1.2004
6696.00,1.1962
6695.00,1.1917
6694.00,1.1866
6693.00,1.1807
6692.00,1.1739
6691.00,1.1665
6690.00,1.1589
6689.00,1.1516
6688.00,1.1445
6687.00,1.1372
6686.00,1.1295
6685.00,1.1210
6684.00,1.1119
6683.00,1.1024
6682.00,1.0925
6681.00,1.0820
6680.00,1.0714
6679.00,1.0606
6678.00,1.0498
6677.00,1.0389
6676.00,1.0277
6675.00,1.0163
6674.00,1.0049
6673.00,0.9934
6672.00,0.9818
6671.00,0.9702
6670.00,0.9586
6669.00,0.9471
6668.00,0.9355
6667.00,0.9241
6666.00,0.9129
6665.00,0.9021
6664.00,0.8914
6663.00,0.8809
6662.00,0.8705
6661.00,0.8605
6660.00,0.8509
6659.00,0.8417
6658.00,0.8331
6657.00,0.8251
6656.00,0.8176
6655.00,0.8105
6654.00,0.8040
6653.00,0.7980
6652.00,0.7924
6651.00,0.7873
6650.00,0.7829
6649.00,0.7794
6648.00,0.7766
6647.00,0.7746
6646.00,0.7733
6645.00,0.7728
6644.00,0.7729
6643.00,0.7737
6642.00,0.7750
6641.00,0.7771
6640.00,0.7799
6639.00,0.7834
6638.00,0.7875
6637.00,0.7922
6636.00,0.7975
6635.00,0.8034
6634.00,0.8097
6633.00,0.8165
6632.00,0.8237
6631.00,0.8314
6630.00,0.8396
6629.00,0.8480
6628.00,0.8568
6627.00,0.8657
6626.00,0.8749
6625.00,0.8845
6624.00,0.8945
6623.00,0.9046
6622.00,0.9148
6621.00,0.9250
6620.00,0.9352
6619.00,0.9456
6618.00,0.9562
6617.00,0.9672
6616.00,0.9782
6615.00,0.9890
6614.00,0.9997
6613.00,1.0102
6612.00,1.0203
6611.00,1.0300
6610.00,1.0392
6609.00,1.0482
6608.00,1.0575
6607.00,1.0672
6606.00,1.0773
6605.00,1.0871
6604.00,1.0966
6603.00,1.1056
6602.00,1.1144
6601.00,1.1228
6600.00,1.1307
6599.00,1.1379
6598.00,1.1448
6597.00,1.1515
6596.00,1.1581
6595.00,1.1646
6594.00,1.1707
6593.00,1.1764
6592.00,1.1817
6591.00,1.1866
6590.00,1.1911
6589.00,1.1951
6588.00,1.1988
6587.00,1.2021
6586.00,1.2049
6585.00,1.2075
6584.00,1.2098
6583.00,1.2118
6582.00,1.2133
6581.00,1.2142
6580.00,1.2146
6579.00,1.2147
6578.00,1.2144
6577.00,1.2139
6576.00,1.2132
6575.00,1.2122
6574.00,1.2108
6573.00,1.2088
6572.00,1.2064
6571.00,1.2038
6570.00,1.2009
6569.00,1.1975
6568.00,1.1933
6567.00,1.1887
6566.00,1.1839
6565.00,1.1791
6564.00,1.1738
6563.00,1.1680
6562.00,1.1619
6561.00,1.1555
6560.00,1.1488
6559.00,1.1417
6558.00,1.1343
6557.00,1.1268
6556.00,1.1189
6555.00,1.1107
6554.00,1.1020
6553.00,1.0930
6552.00,1.0835
6551.00,1.0736
6550.00,1.0635
6549.00,1.0533
6548.00,1.0432
6547.00,1.0328
6546.00,1.0220
6545.00,1.0108
6544.00,0.9994
6543.00,0.9877
6542.00,0.9760
6541.00,0.9641
6540.00,0.9524
6539.00,0.9407
6538.00,0.9293
6537.00,0.9180
6536.00,0.9070
6535.00,0.8962
6534.00,0.8855
6533.00,0.8751
6532.00,0.8648
6531.00,0.8548
6530.00,0.8452
6529.00,0.8359
6528.00,0.8270
6527.00,0.8187
6526.00,0.8112
6525.00,0.8042
6524.00,0.7978
6523.00,0.7918
6522.00,0.7865
6521.00,0.7818
6520.00,0.7777
6519.00,0.7741
6518.00,0.7710
6517.00,0.7686
6516.00,0.7670
6515.00,0.7662
6514.00,0.7662
6513.00,0.7668
6512.00,0.7682
6511.00,0.7705
6510.00,0.7736
6509.00,0.7774
6508.00,0.7818
6507.00,0.7868
6506.00,0.7923
6505.00,0.7984
6504.00,0.8049
6503.00,0.8118
6502.00,0.8194
6501.00,0.8276
6500.00,0.8365
6499.00,0.8458
6498.00,0.8555
6497.00,0.8654
6496.00,0.8753
6495.00,0.8851
6494.00,0.8951
6493.00,0.9053
6492.00,0.9160
6491.00,0.9268
6490.00,0.9378
6489.00,0.9490
6488.00,0.9604
6487.00,0.9717
6486.00,0.9830
6485.00,0.9943
6484.00,1.0055
6483.00,1.0164
6482.00,1.0270
6481.00,1.0373
6480.00,1.0473
6479.00,1.0573
6478.00,1.0674
6477.00,1.0776
6476.00,1.0881
6475.00,1.0984
6474.00,1.1083
6473.00,1.1176
6472.00,1.1263
6471.00,1.1347
6470.00,1.1431
6469.00,1.1515
6468.00,1.1601
6467.00,1.1687
6466.00,1.1769
6465.00,1.1844
6464.00,1.1908
6463.00,1.1964
6462.00,1.2016
6461.00,1.2068
6460.00,1.2121
6459.00,1.2174
6458.00,1.2227
6457.00,1.2276
6456.00,1.2321
6455.00,1.2359
6454.00,1.2387
6453.00,1.2410
6452.00,1.2429
6451.00,1.2447
6450.00,1.2462
6449.00,1.2471
6448.00,1.2474
6447.00,1.2473
6446.00,1.2468
6445.00,1.2460
6444.00,1.2446
6443.00,1.2428
6442.00,1.2408
6441.00,1.2385
6440.00,1.2358
6439.00,1.2326
6438.00,1.2289
6437.00,1.2248
6436.00,1.2204
6435.00,1.2157
6434.00,1.2108
6433.00,1.2054
6432.00,1.1994
6431.00,1.1926
6430.00,1.1853
6429.00,1.1775
6428.00,1.1694
6427.00,1.1610
6426.00,1.1524
6425.00,1.1435
6424.00,1.1342
6423.00,1.1243
6422.00,1.1138
6421.00,1.1030
6420.00,1.0919
6419.00,1.0807
6418.00,1.0695
6417.00,1.0582
6416.00,1.0466
6415.00,1.0346
6414.00,1.0223
6413.00,1.0097
6412.00,0.9970
6411.00,0.9845
6410.00,0.9721
6409.00,0.9599
6408.00,0.9477
6407.00,0.9355
6406.00,0.9235
6405.00,0.9116
6404.00,0.8998
6403.00,0.8882
6402.00,0.8770
6401.00,0.8663
6400.00,0.8560
6399.00,0.8459
6398.00,0.8363
6397.00,0.8273
6396.00,0.8188
6395.00,0.8108
6394.00,0.8034
6393.00,0.7966
6392.00,0.7904
6391.00,0.7848
6390.00,0.7800
6389.00,0.7760
6388.00,0.7730
6387.00,0.7707
6386.00,0.7693
6385.00,0.7687
6384.00,0.7688
6383.00,0.7695
6382.00,0.7708
6381.00,0.7729
6380.00,0.7758
6379.00,0.7794
6378.00,0.7837
6377.00,0.7887
6376.00,0.7943
6375.00,0.8004
6374.00,0.8072
6373.00,0.8145
6372.00,0.8225
6371.00,0.8309
6370.00,0.8396
6369.00,0.8485
6368.00,0.8577
6367.00,0.8673
6366.00,0.8773
6365.00,0.8877
6364.00,0.8983
6363.00,0.9091
6362.00,0.9200
6361.00,0.9310
6360.00,0.9418
6359.00,0.9524
6358.00,0.9631
6357.00,0.9739
6356.00,0.9849
6355.00,0.9961
6354.00,1.0073
6353.00,1.0185
6352.00,1.0296
6351.00,1.0405
6350.00,1.0511
6349.00,1.0615
6348.00,1.0717
6347.00,1.0816
6346.00,1.0914
6345.00,1.1010
6344.00,1.1103
6343.00,1.1196
6342.00,1.1287
6341.00,1.1377
6340.00,1.1462
6339.00,1.1543
6338.00,1.1620
6337.00,1.1692
6336.00,1.1760
6335.00,1.1825
6334.00,1.1890
6333.00,1.1953
6332.00,1.2012
6331.00,1.2064
6330.00,1.2110
6329.00,1.2152
6328.00,1.2188
6327.00,1.2221
6326.00,1.2251
6325.00,1.2281
6324.00,1.2307
6323.00,1.2328
6322.00,1.2343
6321.00,1.2353
6320.00,1.2363
6319.00,1.2371
6318.00,1.2378
6317.00,1.2379
6316.00,1.2372
6315.00,1.2359
6314.00,1.2340
6313.00,1.2318
6312.00,1.2293
6311.00,1.2266
6310.00,1.2236
6309.00,1.2203
6308.00,1.2164
6307.00,1.2120
6306.00,1.2070
6305.00,1.2016
6304.00,1.1961
6303.00,1.1904
6302.00,1.1846
6301.00,1.1785
6300.00,1.1718
6299.00,1.1645
6298.00,1.1567
6297.00,1.1486
6296.00,1.1400
6295.00,1.1311
6294.00,1.1220
6293.00,1.1128
6292.00,1.1033
6291.00,1.0933
6290.00,1.0829
6289.00,1.0721
6288.00,1.0610
6287.00,1.0496
6286.00,1.0381
6285.00,1.0265
6284.00,1.0147
6283.00,1.0029
6282.00,0.9910
6281.00,0.9791
6280.00,0.9670
6279.00,0.9548
6278.00,0.9426
6277.00,0.9304
6276.00,0.9183
6275.00,0.9064
6274.00,0.8947
6273.00,0.8833
6272.00,0.8722
6271.00,0.8612
6270.00,0.8507
6269.00,0.8406
6268.00,0.8311
6267.00,0.8220
6266.00,0.8134
6265.00,0.8055
6264.00,0.7982
6263.00,0.7915
6262.00,0.7854
6261.00,0.7799
6260.00,0.7750
6259.00,0.7709
6258.00,0.7676
6257.00,0.7652
6256.00,0.7634
6255.00,0.7624
6254.00,0.7623
6253.00,0.7633
6252.00,0.7652
6251.00,0.7678
6250.00,0.7711
6249.00,0.7750
6248.00,0.7795
6247.00,0.7847
6246.00,0.7904
6245.00,0.7967
6244.00,0.8036
6243.00,0.8110
6242.00,0.8192
6241.00,0.8279
6240.00,0.8372
6239.00,0.8467
6238.00,0.8566
6237.00,0.8670
6236.00,0.8777
6235.00,0.8885
6234.00,0.8996
6233.00,0.9107
6232.00,0.9221
6231.00,0.9336
6230.00,0.9452
6229.00,0.9568
6228.00,0.9684
6227.00,0.9798
6226.00,0.9913
6225.00,1.0028
6224.00,1.0144
6223.00,1.0261
6222.00,1.0379
6221.00,1.0500
6220.00,1.0618
6219.00,1.0733
6218.00,1.0842
6217.00,1.0948
6216.00,1.1052
6215.00,1.1152
6214.00,1.1251
6213.00,1.1351
6212.00,1.1450
6211.00,1.1544
6210.00,1.1632
6209.00,1.1715
6208.00,1.1795
6207.00,1.1873
6206.00,1.1948
6205.00,1.2022
6204.00,1.2096
6203.00,1.2169
6202.00,1.2239
6201.00,1.2304
6200.00,1.2363
6199.00,1.2417
6198.00,1.2464
6197.00,1.2504
6196.00,1.2537
6195.00,1.2568
6194.00,1.2598
6193.00,1.2627
6192.00,1.2652
6191.00,1.2674
6190.00,1.2692
6189.00,1.2703
6188.00,1.2708
6187.00,1.2709
6186.00,1.2706
6185.00,1.2700
6184.00,1.2687
6183.00,1.2669
6182.00,1.2647
6181.00,1.2621
6180.00,1.2589
6179.00,1.2553
6178.00,1.2515
6177.00,1.2476
6176.00,1.2434
6175.00,1.2385
6174.00,1.2327
6173.00,1.2263
6172.00,1.2195
6171.00,1.2122
6170.00,1.2046
6169.00,1.1968
6168.00,1.1887
6167.00,1.1802
6166.00,1.1713
6165.00,1.1619
6164.00,1.1519
6163.00,1.1415
6162.00,1.1307
6161.00,1.1196
6160.00,1.1083
6159.00,1.0969
6158.00,1.0854
6157.00,1.0738
6156.00,1.0619
6155.00,1.0495
6154.00,1.0367
6153.00,1.0237
6152.00,1.0104
6151.00,0.9970
6150.00,0.9838
6149.00,0.9709
6148.00,0.9580
6147.00,0.9450
6146.00,0.9319
6145.00,0.9188
6144.00,0.9060
6143.00,0.8934
6142.00,0.8812
6141.00,0.8696
6140.00,0.8584
6139.00,0.8478
6138.00,0.8376
6137.00,0.8277
6136.00,0.8184
6135.00,0.8095
6134.00,0.8013
6133.00,0.7939
6132.00,0.7872
6131.00,0.7814
6130.00,0.7765
6129.00,0.7724
6128.00,0.7689
6127.00,0.7662
6126.00,0.7641
6125.00,0.7629
6124.00,0.7625
6123.00,0.7630
6122.00,0.7644
6121.00,0.7667
6120.00,0.7699
6119.00,0.7737
6118.00,0.7782
6117.00,0.7835
6116.00,0.7894
6115.00,0.7959
6114.00,0.8031
6113.00,0.8109
6112.00,0.8192
6111.00,0.8279
6110.00,0.8371
6109.00,0.8469
6108.00,0.8570
6107.00,0.8675
6106.00,0.8782
6105.00,0.8892
6104.00,0.9004
6103.00,0.9116
6102.00,0.9227
6101.00,0.9342
6100.00,0.9458
6099.00,0.9574
6098.00,0.9690
6097.00,0.9805
6096.00,0.9921
6095.00,1.0037
6094.00,1.0151
6093.00,1.0264
6092.00,1.0376
6091.00,1.0488
6090.00,1.0601
6089.00,1.0713
6088.00,1.0822
6087.00,1.0927
6086.00,1.1031
6085.00,1.1133
6084.00,1.1233
6083.00,1.1328
6082.00,1.1420
6081.00,1.1509
6080.00,1.1596
6079.00,1.1680
6078.00,1.1762
6077.00,1.1841
6076.00,1.1918
6075.00,1.1991
6074.00,1.2061
6073.00,1.2125
6072.00,1.2185
6071.00,1.2243
6070.00,1.2299
6069.00,1.2354
6068.00,1.2406
6067.00,1.2455
6066.00,1.2501
6065.00,1.2544
6064.00,1.2580
6063.00,1.2609
6062.00,1.2633
6061.00,1.2655
6060.00,1.2674
6059.00,1.2688
6058.00,1.2696
6057.00,1.2701
6056.00,1.2701
6055.00,1.2695
6054.00,1.2686
6053.00,1.2673
6052.00,1.2656
6051.00,1.2635
6050.00,1.2611
6049.00,1.2585
6048.00,1.2555
6047.00,1.2518
6046.00,1.2474
6045.00,1.2426
6044.00,1.2372
6043.00,1.2311
6042.00,1.2244
6041.00,1.2175
6040.00,1.2105
6039.00,1.2034
6038.00,1.1959
6037.00,1.1879
6036.00,1.1793
6035.00,1.1699
6034.00,1.1599
6033.00,1.1495
6032.00,1.1389
6031.00,1.1280
6030.00,1.1167
6029.00,1.1051
6028.00,1.0931
6027.00,1.0807
6026.00,1.0679
6025.00,1.0550
6024.00,1.0422
6023.00,1.0293
6022.00,1.0163
6021.00,1.0031
6020.00,0.9898
6019.00,0.9764
6018.00,0.9628
6017.00,0.9494
6016.00,0.9361
6015.00,0.9230
6014.00,0.9101
6013.00,0.8974
6012.00,0.8849
6011.00,0.8727
6010.00,0.8609
6009.00,0.8495
6008.00,0.8388
6007.00,0.8286
6006.00,0.8190
6005.00,0.8101
6004.00,0.8017
6003.00,0.7941
6002.00,0.7873
6001.00,0.7812
6000.00,0.7760
5999.00,0.7715
5998.00,0.7679
5997.00,0.7651
5996.00,0.7632
5995.00,0.7621
5994.00,0.7619
5993.00,0.7627
5992.00,0.7643
5991.00,0.7667
5990.00,0.7699
5989.00,0.7739
5988.00,0.7788
5987.00,0.7843
5986.00,0.7906
5985.00,0.7977
5984.00,0.8053
5983.00,0.8135
5982.00,0.8222
5981.00,0.8315
5980.00,0.8415
5979.00,0.8520
5978.00,0.8628
5977.00,0.8739
5976.00,0.8851
5975.00,0.8965
5974.00,0.9081
5973.00,0.9201
5972.00,0.9324
5971.00,0.9448
5970.00,0.9573
5969.00,0.9698
5968.00,0.9822
5967.00,0.9944
5966.00,1.0068
5965.00,1.0193
5964.00,1.0320
5963.00,1.0447
5962.00,1.0572
5961.00,1.0695
5960.00,1.0816
5959.00,1.0933
5958.00,1.1050
5957.00,1.1166
5956.00,1.1281
5955.00,1.1394
5954.00,1.1503
5953.00,1.1609
5952.00,1.1713
5951.00,1.1813
5950.00,1.1908
5949.00,1.2001
5948.00,1.2091
5947.00,1.2178
5946.00,1.2259
5945.00,1.2337
5944.00,1.2414
5943.00,1.2488
5942.00,1.2558
5941.00,1.2622
5940.00,1.2682
5939.00,1.2737
5938.00,1.2788
5937.00,1.2833
5936.00,1.2873
5935.00,1.2909
5934.00,1.2940
5933.00,1.2966
5932.00,1.2987
5931.00,1.3004
5930.00,1.3018
5929.00,1.3029
5928.00,1.3035
5927.00,1.3037
5926.00,1.3035
5925.00,1.3029
5924.00,1.3018
5923.00,1.3003
5922.00,1.2983
5921.00,1.2957
5920.00,1.2925
5919.00,1.2885
5918.00,1.2839
5917.00,1.2788
5916.00,1.2736
5915.00,1.2683
5914.00,1.2632
5913.00,1.2578
5912.00,1.2519
5911.00,1.2451
5910.00,1.2373
5909.00,1.2288
5908.00,1.2198
5907.00,1.2101
5906.00,1.2002
5905.00,1.1903
5904.00,1.1804
5903.00,1.1699
5902.00,1.1588
5901.00,1.1474
5900.00,1.1358
5899.00,1.1239
5898.00,1.1116
5897.00,1.0990
5896.00,1.0861
5895.00,1.0729
5894.00,1.0595
5893.00,1.0459
5892.00,1.0322
5891.00,1.0184
5890.00,1.0046
5889.00,0.9909
5888.00,0.9772
5887.00,0.9636
5886.00,0.9502
5885.00,0.9369
5884.00,0.9240
5883.00,0.9113
5882.00,0.8989
5881.00,0.8866
5880.00,0.8748
5879.00,0.8635
5878.00,0.8528
5877.00,0.8426
5876.00,0.8330
5875.00,0.8242
5874.00,0.8161
5873.00,0.8086
5872.00,0.8019
5871.00,0.7958
5870.00,0.7906
5869.00,0.7864
5868.00,0.7831
5867.00,0.7806
5866.00,0.7789
5865.00,0.7780
5864.00,0.7780
5863.00,0.7789
5862.00,0.7807
5861.00,0.7833
5860.00,0.7869
5859.00,0.7912
5858.00,0.7963
5857.00,0.8021
5856.00,0.8085
5855.00,0.8156
5854.00,0.8233
5853.00,0.8317
5852.00,0.8406
5851.00,0.8500
5850.00,0.8598
5849.00,0.8701
5848.00,0.8807
5847.00,0.8916
5846.00,0.9028
5845.00,0.9143
5844.00,0.9261
5843.00,0.9383
5842.00,0.9509
5841.00,0.9637
5840.00,0.9766
5839.00,0.9894
5838.00,1.0022
5837.00,1.0148
5836.00,1.0272
5835.00,1.0393
5834.00,1.0514
5833.00,1.0635
5832.00,1.0757
5831.00,1.0880
5830.00,1.1003
5829.00,1.1125
5828.00,1.1246
5827.00,1.1364
5826.00,1.1479
5825.00,1.1591
5824.00,1.1699
5823.00,1.1804
5822.00,1.1906
5821.00,1.2003
5820.00,1.2097
5819.00,1.2188
5818.00,1.2276
5817.00,1.2360
5816.00,1.2439
5815.00,1.2515
5814.00,1.2589
5813.00,1.2663
5812.00,1.2735
5811.00,1.2803
5810.00,1.2865
5809.00,1.2920
5808.00,1.2969
5807.00,1.3010
5806.00,1.3047
5805.00,1.3084
5804.00,1.3121
5803.00,1.3155
5802.00,1.3183
5801.00,1.3204
5800.00,1.3220
5799.00,1.3230
5798.00,1.3233
5797.00,1.3232
5796.00,1.3228
5795.00,1.3221
5794.00,1.3210
5793.00,1.3196
5792.00,1.3177
5791.00,1.3152
5790.00,1.3121
5789.00,1.3082
5788.00,1.3039
5787.00,1.2993
5786.00,1.2945
5785.00,1.2894
5784.00,1.2838
5783.00,1.2776
5782.00,1.2708
5781.00,1.2636
5780.00,1.2559
5779.00,1.2478
5778.00,1.2392
5777.00,1.2303
5776.00,1.2210
5775.00,1.2113
5774.00,1.2013
5773.00,1.1910
5772.00,1.1804
5771.00,1.1691
5770.00,1.1572
5769.00,1.1448
5768.00,1.1320
5767.00,1.1188
5766.00,1.1055
5765.00,1.0921
5764.00,1.0785
5763.00,1.0646
5762.00,1.0504
5761.00,1.0361
5760.00,1.0218
5759.00,1.0075
5758.00,0.9933
5757.00,0.9793
5756.00,0.9653
5755.00,0.9514
5754.00,0.9377
5753.00,0.9242
5752.00,0.9110
5751.00,0.8984
5750.00,0.8861
5749.00,0.8744
5748.00,0.8631
5747.00,0.8524
5746.00,0.8423
5745.00,0.8327
5744.00,0.8239
5743.00,0.8158
5742.00,0.8084
5741.00,0.8018
5740.00,0.7960
5739.00,0.7910
5738.00,0.7869
5737.00,0.7837
5736.00,0.7814
5735.00,0.7799
5734.00,0.7794
5733.00,0.7798
5732.00,0.7812
5731.00,0.7834
5730.00,0.7864
5729.00,0.7903
5728.00,0.7950
5727.00,0.8003
5726.00,0.8063
5725.00,0.8130
5724.00,0.8205
5723.00,0.8288
5722.00,0.8376
5721.00,0.8469
5720.00,0.8568
5719.00,0.8671
5718.00,0.8780
5717.00,0.8892
5716.00,0.9007
5715.00,0.9127
5714.00,0.9250
5713.00,0.9374
5712.00,0.9499
5711.00,0.9625
5710.00,0.9753
5709.00,0.9883
5708.00,1.0014
5707.00,1.0146
5706.00,1.0277
5705.00,1.0407
5704.00,1.0534
5703.00,1.0659
5702.00,1.0782
5701.00,1.0906
5700.00,1.1030
5699.00,1.1154
5698.00,1.1277
5697.00,1.1397
5696.00,1.1513
5695.00,1.1627
5694.00,1.1739
5693.00,1.1848
5692.00,1.1955
5691.00,1.2060
5690.00,1.2162
5689.00,1.2260
5688.00,1.2354
5687.00,1.2444
5686.00,1.2532
5685.00,1.2616
5684.00,1.2694
5683.00,1.2766
5682.00,1.2833
5681.00,1.2894
5680.00,1.2951
5679.00,1.3003
5678.00,1.3053
5677.00,1.3102
5676.00,1.3148
5675.00,1.3188
5674.00,1.3223
5673.00,1.3251
5672.00,1.3274
5671.00,1.3292
5670.00,1.3306
5669.00,1.3317
5668.00,1.3325
5667.00,1.3330
5666.00,1.3330
5665.00,1.3323
5664.00,1.3309
5663.00,1.3287
5662.00,1.3260
5661.00,1.3230
5660.00,1.3199
5659.00,1.3167
5658.00,1.3133
5657.00,1.3095
5656.00,1.3049
5655.00,1.2997
5654.00,1.2938
5653.00,1.2872
5652.00,1.2801
5651.00,1.2726
5650.00,1.2647
5649.00,1.2565
5648.00,1.2480
5647.00,1.2391
5646.00,1.2299
5645.00,1.2203
5644.00,1.2103
5643.00,1.1999
5642.00,1.1890
5641.00,1.1778
5640.00,1.1660
5639.00,1.1537
5638.00,1.1408
5637.00,1.1275
5636.00,1.1137
5635.00,1.0997
5634.00,1.0855
5633.00,1.0713
5632.00,1.0571
5631.00,1.0428
5630.00,1.0284
5629.00,1.0138
5628.00,0.9990
5627.00,0.9841
5626.00,0.9691
5625.00,0.9542
5624.00,0.9396
5623.00,0.9252
5622.00,0.9111
5621.00,0.8973
5620.00,0.8838
5619.00,0.8708
5618.00,0.8583
5617.00,0.8465
5616.00,0.8353
5615.00,0.8248
5614.00,0.8151
5613.00,0.8060
5612.00,0.7976
5611.00,0.7901
5610.00,0.7834
5609.00,0.7776
5608.00,0.7728
5607.00,0.7690
5606.00,0.7662
5605.00,0.7643
5604.00,0.7636
5603.00,0.7638
5602.00,0.7650
5601.00,0.7671
5600.00,0.7702
5599.00,0.7742
5598.00,0.7791
5597.00,0.7849
5596.00,0.7916
5595.00,0.7990
5594.00,0.8071
5593.00,0.8160
5592.00,0.8254
5591.00,0.8353
5590.00,0.8459
5589.00,0.8570
5588.00,0.8686
5587.00,0.8806
5586.00,0.8931
5585.00,0.9058
5584.00,0.9188
5583.00,0.9319
5582.00,0.9452
5581.00,0.9589
5580.00,0.9730
5579.00,0.9872
5578.00,1.0013
5577.00,1.0152
5576.00,1.0289
5575.00,1.0423
5574.00,1.0557
5573.00,1.0689
5572.00,1.0823
5571.00,1.0957
5570.00,1.1090
5569.00,1.1221
5568.00,1.1350
5567.00,1.1477
5566.00,1.1602
5565.00,1.1725
5564.00,1.1846
5563.00,1.1963
5562.00,1.2075
5561.00,1.2182
5560.00,1.2284
5559.00,1.2380
5558.00,1.2473
5557.00,1.2562
5556.00,1.2649
5555.00,1.2734
5554.00,1.2817
5553.00,1.2896
5552.00,1.2972
5551.00,1.3043
5550.00,1.3108
5549.00,1.3168
5548.00,1.3225
5547.00,1.3279
5546.00,1.3329
5545.00,1.3373
5544.00,1.3411
5543.00,1.3442
5542.00,1.3468
5541.00,1.3490
5540.00,1.3508
5539.00,1.3522
5538.00,1.3530
5537.00,1.3531
5536.00,1.3528
5535.00,1.3521
5534.00,1.3513
5533.00,1.3501
5532.00,1.3484
5531.00,1.3458
5530.00,1.3426
5529.00,1.3389
5528.00,1.3350
5527.00,1.3309
5526.00,1.3265
5525.00,1.3216
5524.00,1.3161
5523.00,1.3098
5522.00,1.3028
5521.00,1.2953
5520.00,1.2876
5519.00,1.2796
5518.00,1.2712
5517.00,1.2622
5516.00,1.2527
5515.00,1.2427
5514.00,1.2322
5513.00,1.2212
5512.00,1.2096
5511.00,1.1977
5510.00,1.1854
5509.00,1.1728
5508.00,1.1599
5507.00,1.1466
5506.00,1.1329
5505.00,1.1186
5504.00,1.1037
5503.00,1.0886
5502.00,1.0735
5501.00,1.0582
5500.00,1.0428
5499.00,1.0272
5498.00,1.0115
5497.00,0.9959
5496.00,0.9802
5495.00,0.9643
5494.00,0.9485
5493.00,0.9329
5492.00,0.9177
5491.00,0.9029
5490.00,0.8885
5489.00,0.8746
5488.00,0.8613
5487.00,0.8484
5486.00,0.8362
5485.00,0.8250
5484.00,0.8147
5483.00,0.8052
5482.00,0.7964
5481.00,0.7884
5480.00,0.7812
5479.00,0.7750
5478.00,0.7697
5477.00,0.7652
5476.00,0.7617
5475.00,0.7592
5474.00,0.7579
5473.00,0.7577
5472.00,0.7587
5471.00,0.7608
5470.00,0.7640
5469.00,0.7682
5468.00,0.7733
5467.00,0.7792
5466.00,0.7860
5465.00,0.7936
5464.00,0.8018
5463.00,0.8108
5462.00,0.8204
5461.00,0.8306
5460.00,0.8413
5459.00,0.8527
5458.00,0.8646
5457.00,0.8769
5456.00,0.8895
5455.00,0.9027
5454.00,0.9161
5453.00,0.9297
5452.00,0.9432
5451.00,0.9565
5450.00,0.9699
5449.00,0.9836
5448.00,0.9972
5447.00,1.0108
5446.00,1.0244
5445.00,1.0383
5444.00,1.0523
5443.00,1.0660
5442.00,1.0795
5441.00,1.0928
5440.00,1.1061
5439.00,1.1194
5438.00,1.1325
5437.00,1.1452
5436.00,1.1577
5435.00,1.1698
5434.00,1.1818
5433.00,1.1936
5432.00,1.2050
5431.00,1.2158
5430.00,1.2262
5429.00,1.2363
5428.00,1.2462
5427.00,1.2560
5426.00,1.2654
5425.00,1.2745
5424.00,1.2833
5423.00,1.2918
5422.00,1.2999
5421.00,1.3076
5420.00,1.3148
5419.00,1.3215
5418.00,1.3276
5417.00,1.3331
5416.00,1.3380
5415.00,1.3425
5414.00,1.3467
5413.00,1.3505
5412.00,1.3537
5411.00,1.3563
5410.00,1.3583
5409.00,1.3596
5408.00,1.3605
5407.00,1.3610
5406.00,1.3613
5405.00,1.3614
5404.00,1.3615
5403.00,1.3612
5402.00,1.3605
5401.00,1.3590
5400.00,1.3568
5399.00,1.3540
5398.00,1.3505
5397.00,1.3466
5396.00,1.3421
5395.00,1.3370
5394.00,1.3313
5393.00,1.3250
5392.00,1.3183
5391.00,1.3112
5390.00,1.3038
5389.00,1.2959
5388.00,1.2876
5387.00,1.2787
5386.00,1.2693
5385.00,1.2596
5384.00,1.2495
5383.00,1.2389
5382.00,1.2276
5381.00,1.2157
5380.00,1.2033
5379.00,1.1903
5378.00,1.1766
5377.00,1.1623
5376.00,1.1476
5375.00,1.1326
5374.00,1.1173
5373.00,1.1016
5372.00,1.0857
5371.00,1.0697
5370.00,1.0536
5369.00,1.0375
5368.00,1.0215
5367.00,1.0053
5366.00,0.9890
5365.00,0.9727
5364.00,0.9564
5363.00,0.9405
5362.00,0.9250
5361.00,0.9097
5360.00,0.8948
5359.00,0.8802
5358.00,0.8663
5357.00,0.8531
5356.00,0.8406
5355.00,0.8287
5354.00,0.8175
5353.00,0.8073
5352.00,0.7980
5351.00,0.7896
5350.00,0.7820
5349.00,0.7755
5348.00,0.7703
5347.00,0.7662
5346.00,0.7631
5345.00,0.7609
5344.00,0.7597
5343.00,0.7596
5342.00,0.7607
5341.00,0.7630
5340.00,0.7664
5339.00,0.7709
5338.00,0.7765
5337.00,0.7833
5336.00,0.7911
5335.00,0.7997
5334.00,0.8089
5333.00,0.8189
5332.00,0.8297
5331.00,0.8411
5330.00,0.8531
5329.00,0.8655
5328.00,0.8783
5327.00,0.8915
5326.00,0.9053
5325.00,0.9196
5324.00,0.9340
5323.00,0.9486
5322.00,0.9633
5321.00,0.9782
5320.00,0.9932
5319.00,1.0082
5318.00,1.0234
5317.00,1.0387
5316.00,1.0540
5315.00,1.0693
5314.00,1.0843
5313.00,1.0991
5312.00,1.1138
5311.00,1.1282
5310.00,1.1424
5309.00,1.1563
5308.00,1.1697
5307.00,1.1830
5306.00,1.1960
5305.00,1.2088
5304.00,1.2212
5303.00,1.2334
5302.00,1.2453
5301.00,1.2568
5300.00,1.2679
5299.00,1.2786
5298.00,1.2890
5297.00,1.2990
5296.00,1.3086
5295.00,1.3176
5294.00,1.3263
5293.00,1.3345
5292.00,1.3422
5291.00,1.3494
5290.00,1.3562
5289.00,1.3625
5288.00,1.3680
5287.00,1.3727
5286.00,1.3767
5285.00,1.3803
5284.00,1.3836
5283.00,1.3867
5282.00,1.3895
5281.00,1.3918
5280.00,1.3934
5279.00,1.3944
5278.00,1.3951
5277.00,1.3956
5276.00,1.3956
5275.00,1.3952
5274.00,1.3943
5273.00,1.3931
5272.00,1.3915
5271.00,1.3895
5270.00,1.3870
5269.00,1.3839
5268.00,1.3802
5267.00,1.3755
5266.00,1.3699
5265.00,1.3636
5264.00,1.3571
5263.00,1.3504
5262.00,1.3434
5261.00,1.3361
5260.00,1.3282
5259.00,1.3199
5258.00,1.3112
5257.00,1.3023
5256.00,1.2930
5255.00,1.2831
5254.00,1.2726
5253.00,1.2614
5252.00,1.2494
5251.00,1.2366
5250.00,1.2233
5249.00,1.2094
5248.00,1.1953
5247.00,1.1810
5246.00,1.1664
5245.00,1.1512
5244.00,1.1355
5243.00,1.1195
5242.00,1.1032
5241.00,1.0869
5240.00,1.0705
5239.00,1.0539
5238.00,1.0373
5237.00,1.0205
5236.00,1.0037
5235.00,0.9871
5234.00,0.9707
5233.00,0.9544
5232.00,0.9382
5231.00,0.9222
5230.00,0.9065
5229.00,0.8915
5228.00,0.8771
5227.00,0.8631
5226.00,0.8497
5225.00,0.8369
5224.00,0.8249
5223.00,0.8137
5222.00,0.8037
5221.00,0.7947
5220.00,0.7869
5219.00,0.7801
5218.00,0.7746
5217.00,0.7703
5216.00,0.7671
5215.00,0.7652
5214.00,0.7643
5213.00,0.7645
5212.00,0.7658
5211.00,0.7682
5210.00,0.7715
5209.00,0.7757
5208.00,0.7808
5207.00,0.7868
5206.00,0.7940
5205.00,0.8023
5204.00,0.8114
5203.00,0.8213
5202.00,0.8320
5201.00,0.8434
5200.00,0.8555
5199.00,0.8682
5198.00,0.8813
5197.00,0.8949
5196.00,0.9087
5195.00,0.9230
5194.00,0.9375
5193.00,0.9524
5192.00,0.9674
5191.00,0.9827
5190.00,0.9981
5189.00,1.0137
5188.00,1.0291
5187.00,1.0444
5186.00,1.0594
5185.00,1.0743
5184.00,1.0892
5183.00,1.1043
5182.00,1.1194
5181.00,1.1345
5180.00,1.1492
5179.00,1.1636
5178.00,1.1778
5177.00,1.1917
5176.00,1.2052
5175.00,1.2184
5174.00,1.2313
5173.00,1.2439
5172.00,1.2562
5171.00,1.2680
5170.00,1.2793
5169.00,1.2903
5168.00,1.3009
5167.00,1.3111
5166.00,1.3209
5165.00,1.3301
5164.00,1.3390
5163.00,1.3474
5162.00,1.3552
5161.00,1.3625
5160.00,1.3692
5159.00,1.3756
5158.00,1.3816
5157.00,1.3872
5156.00,1.3923
5155.00,1.3970
5154.00,1.4012
5153.00,1.4050
5152.00,1.4083
5151.00,1.4113
5150.00,1.4138
5149.00,1.4157
5148.00,1.4169
5147.00,1.4173
5146.00,1.4173
5145.00,1.4167
5144.00,1.4158
5143.00,1.4145
5142.00,1.4127
5141.00,1.4105
5140.00,1.4078
5139.00,1.4045
5138.00,1.4009
5137.00,1.3968
5136.00,1.3921
5135.00,1.3869
5134.00,1.3809
5133.00,1.3742
5132.00,1.3669
5131.00,1.3592
5130.00,1.3512
5129.00,1.3430
5128.00,1.3345
5127.00,1.3255
5126.00,1.3159
5125.00,1.3056
5124.00,1.2947
5123.00,1.2833
5122.00,1.2714
5121.00,1.2589
5120.00,1.2459
5119.00,1.2324
5118.00,1.2184
5117.00,1.2040
5116.00,1.1891
5115.00,1.1735
5114.00,1.1573
5113.00,1.1408
5112.00,1.1240
5111.00,1.1070
5110.00,1.0899
5109.00,1.0726
5108.00,1.0552
5107.00,1.0374
5106.00,1.0196
5105.00,1.0017
5104.00,0.9839
5103.00,0.9664
5102.00,0.9491
5101.00,0.9322
5100.00,0.9157
5099.00,0.8997
5098.00,0.8842
5097.00,0.8694
5096.00,0.8553
5095.00,0.8421
5094.00,0.8297
5093.00,0.8182
5092.00,0.8077
5091.00,0.7983
5090.00,0.7899
5089.00,0.7827
5088.00,0.7766
5087.00,0.7717
5086.00,0.7680
5085.00,0.7655
5084.00,0.7644
5083.00,0.7646
5082.00,0.7662
5081.00,0.7690
5080.00,0.7729
5079.00,0.7780
5078.00,0.7843
5077.00,0.7916
5076.00,0.7999
5075.00,0.8091
5074.00,0.8193
5073.00,0.8302
5072.00,0.8420
5071.00,0.8545
5070.00,0.8677
5069.00,0.8814
5068.00,0.8955
5067.00,0.9100
5066.00,0.9249
5065.00,0.9401
5064.00,0.9555
5063.00,0.9712
5062.00,0.9872
5061.00,1.0034
5060.00,1.0198
5059.00,1.0363
5058.00,1.0527
5057.00,1.0689
5056.00,1.0849
5055.00,1.1008
5054.00,1.1166
5053.00,1.1324
5052.00,1.1481
5051.00,1.1636
5050.00,1.1789
5049.00,1.1938
5048.00,1.2085
5047.00,1.2229
5046.00,1.2369
5045.00,1.2504
5044.00,1.2634
5043.00,1.2761
5042.00,1.2887
5041.00,1.3011
5040.00,1.3131
5039.00,1.3245
5038.00,1.3353
5037.00,1.3452
5036.00,1.3546
5035.00,1.3636
5034.00,1.3726
5033.00,1.3812
5032.00,1.3894
5031.00,1.3970
5030.00,1.4040
5029.00,1.4102
5028.00,1.4156
5027.00,1.4205
5026.00,1.4249
5025.00,1.4289
5024.00,1.4325
5023.00,1.4358
5022.00,1.4387
5021.00,1.4412
5020.00,1.4430
5019.00,1.4443
5018.00,1.4451
5017.00,1.4453
5016.00,1.4450
5015.00,1.4444
5014.00,1.4434
5013.00,1.4420
5012.00,1.4400
5011.00,1.4374
5010.00,1.4343
5009.00,1.4306
5008.00,1.4265
5007.00,1.4218
5006.00,1.4168
5005.00,1.4112
5004.00,1.4050
5003.00,1.3983
5002.00,1.3912
5001.00,1.3836
5000.00,1.3754
4999.00,1.3667
4998.00,1.3574
4997.00,1.3476
4996.00,1.3372
4995.00,1.3263
4994.00,1.3149
4993.00,1.3031
4992.00,1.2908
4991.00,1.2779
4990.00,1.2644
4989.00,1.2502
4988.00,1.2353
4987.00,1.2199
4986.00,1.2040
4985.00,1.1878
4984.00,1.1712
4983.00,1.1542
4982.00,1.1367
4981.00,1.1189
4980.00,1.1007
4979.00,1.0822
4978.00,1.0634
4977.00,1.0446
4976.00,1.0257
4975.00,1.0068
4974.00,0.9881
4973.00,0.9695
4972.00,0.9512
4971.00,0.9332
4970.00,0.9155
4969.00,0.8983
4968.00,0.8816
4967.00,0.8657
4966.00,0.8505
4965.00,0.8363
4964.00,0.8229
4963.00,0.8105
4962.00,0.7991
4961.00,0.7888
4960.00,0.7797
4959.00,0.7718
4958.00,0.7652
4957.00,0.7599
4956.00,0.7560
4955.00,0.7534
4954.00,0.7523
4953.00,0.7527
4952.00,0.7544
4951.00,0.7575
4950.00,0.7619
4949.00,0.7676
4948.00,0.7745
4947.00,0.7826
4946.00,0.7918
4945.00,0.8021
4944.00,0.8133
4943.00,0.8253
4942.00,0.8382
4941.00,0.8518
4940.00,0.8660
4939.00,0.8807
4938.00,0.8959
4937.00,0.9116
4936.00,0.9275
4935.00,0.9438
4934.00,0.9605
4933.00,0.9774
4932.00,0.9945
4931.00,1.0117
4930.00,1.0289
4929.00,1.0461
4928.00,1.0633
4927.00,1.0805
4926.00,1.0977
4925.00,1.1148
4924.00,1.1317
4923.00,1.1483
4922.00,1.1646
4921.00,1.1805
4920.00,1.1961
4919.00,1.2115
4918.00,1.2267
4917.00,1.2416
4916.00,1.2561
4915.00,1.2703
4914.00,1.2841
4913.00,1.2974
4912.00,1.3104
4911.00,1.3229
4910.00,1.3349
4909.00,1.3464
4908.00,1.3575
4907.00,1.3682
4906.00,1.3784
4905.00,1.3879
4904.00,1.3967
4903.00,1.4050
4902.00,1.4131
4901.00,1.4210
4900.00,1.4285
4899.00,1.4356
4898.00,1.4418
4897.00,1.4472
4896.00,1.4518
4895.00,1.4558
4894.00,1.4593
4893.00,1.4625
4892.00,1.4653
4891.00,1.4678
4890.00,1.4699
4889.00,1.4716
4888.00,1.4728
4887.00,1.4733
4886.00,1.4732
4885.00,1.4724
4884.00,1.4708
4883.00,1.4688
4882.00,1.4664
4881.00,1.4638
4880.00,1.4610
4879.00,1.4577
4878.00,1.4538
4877.00,1.4492
4876.00,1.4439
4875.00,1.4382
4874.00,1.4321
4873.00,1.4256
4872.00,1.4185
4871.00,1.4108
4870.00,1.4024
4869.00,1.3936
4868.00,1.3842
4867.00,1.3745
4866.00,1.3642
4865.00,1.3534
4864.00,1.3418
4863.00,1.3294
4862.00,1.3164
4861.00,1.3027
4860.00,1.2884
4859.00,1.2736
4858.00,1.2584
4857.00,1.2429
4856.00,1.2268
4855.00,1.2101
4854.00,1.1929
4853.00,1.1752
4852.00,1.1570
4851.00,1.1384
4850.00,1.1196
4849.00,1.1005
4848.00,1.0811
4847.00,1.0614
4846.00,1.0416
4845.00,1.0218
4844.00,1.0019
4843.00,0.9822
4842.00,0.9629
4841.00,0.9439
4840.00,0.9255
4839.00,0.9077
4838.00,0.8904
4837.00,0.8739
4836.00,0.8581
4835.00,0.8432
4834.00,0.8293
4833.00,0.8166
4832.00,0.8050
4831.00,0.7945
4830.00,0.7853
4829.00,0.7775
4828.00,0.7711
4827.00,0.7661
4826.00,0.7627
4825.00,0.7607
4824.00,0.7602
4823.00,0.7611
4822.00,0.7636
4821.00,0.7675
4820.00,0.7729
4819.00,0.7796
4818.00,0.7876
4817.00,0.7967
4816.00,0.8070
4815.00,0.8182
4814.00,0.8304
4813.00,0.8435
4812.00,0.8574
4811.00,0.8719
4810.00,0.8871
4809.00,0.9029
4808.00,0.9192
4807.00,0.9360
4806.00,0.9532
4805.00,0.9706
4804.00,0.9883
4803.00,1.0061
4802.00,1.0240
4801.00,1.0419
4800.00,1.0599
4799.00,1.0780
4798.00,1.0960
4797.00,1.1140
4796.00,1.1318
4795.00,1.1493
4794.00,1.1666
4793.00,1.1836
4792.00,1.2003
4791.00,1.2168
4790.00,1.2330
4789.00,1.2489
4788.00,1.2643
4787.00,1.2792
4786.00,1.2937
4785.00,1.3080
4784.00,1.3220
4783.00,1.3359
4782.00,1.3494
4781.00,1.3622
4780.00,1.3743
4779.00,1.3855
4778.00,1.3962
4777.00,1.4065
4776.00,1.4165
4775.00,1.4260
4774.00,1.4350
4773.00,1.4432
4772.00,1.4508
4771.00,1.4577
4770.00,1.4643
4769.00,1.4706
4768.00,1.4765
4767.00,1.4820
4766.00,1.4868
4765.00,1.4909
4764.00,1.4944
4763.00,1.4974
4762.00,1.4998
4761.00,1.5018
4760.00,1.5032
4759.00,1.5043
4758.00,1.5048
4757.00,1.5049
4756.00,1.5045
4755.00,1.5037
4754.00,1.5025
4753.00,1.5006
4752.00,1.4981
4751.00,1.4949
4750.00,1.4910
4749.00,1.4866
4748.00,1.4818
4747.00,1.4767
4746.00,1.4713
4745.00,1.4654
4744.00,1.4588
4743.00,1.4515
4742.00,1.4436
4741.00,1.4354
4740.00,1.4268
4739.00,1.4180
4738.00,1.4088
4737.00,1.3989
4736.00,1.3881
4735.00,1.3763
4734.00,1.3636
4733.00,1.3503
4732.00,1.3365
4731.00,1.3222
4730.00,1.3075
4729.00,1.2924
4728.00,1.2768
4727.00,1.2605
4726.00,1.2436
4725.00,1.2261
4724.00,1.2079
4723.00,1.1893
4722.00,1.1703
4721.00,1.1510
4720.00,1.1313
4719.00,1.1112
4718.00,1.0907
4717.00,1.0701
4716.00,1.0493
4715.00,1.0287
4714.00,1.0081
4713.00,0.9879
4712.00,0.9679
4711.00,0.9483
4710.00,0.9292
4709.00,0.9106
4708.00,0.8928
4707.00,0.8757
4706.00,0.8596
4705.00,0.8445
4704.00,0.8306
4703.00,0.8178
4702.00,0.8064
4701.00,0.7964
4700.00,0.7878
4699.00,0.7808
4698.00,0.7753
4697.00,0.7714
4696.00,0.7692
4695.00,0.7687
4694.00,0.7699
4693.00,0.7726
4692.00,0.7769
4691.00,0.7826
4690.00,0.7897
4689.00,0.7982
4688.00,0.8079
4687.00,0.8188
4686.00,0.8308
4685.00,0.8438
4684.00,0.8576
4683.00,0.8722
4682.00,0.8874
4681.00,0.9032
4680.00,0.9195
4679.00,0.9362
4678.00,0.9534
4677.00,0.9708
4676.00,0.9885
4675.00,1.0065
4674.00,1.0245
4673.00,1.0427
4672.00,1.0609
4671.00,1.0790
4670.00,1.0970
4669.00,1.1150
4668.00,1.1330
4667.00,1.1508
4666.00,1.1684
4665.00,1.1858
4664.00,1.2029
4663.00,1.2198
4662.00,1.2365
4661.00,1.2529
4660.00,1.2691
4659.00,1.2849
4658.00,1.3003
4657.00,1.3153
4656.00,1.3298
4655.00,1.3441
4654.00,1.3579
4653.00,1.3713
4652.00,1.3842
4651.00,1.3966
4650.00,1.4086
4649.00,1.4202
4648.00,1.4315
4647.00,1.4422
4646.00,1.4521
4645.00,1.4613
4644.00,1.4700
4643.00,1.4782
4642.00,1.4859
4641.00,1.4932
4640.00,1.5000
4639.00,1.5063
4638.00,1.5121
4637.00,1.5174
4636.00,1.5220
4635.00,1.5259
4634.00,1.5293
4633.00,1.5323
4632.00,1.5350
4631.00,1.5373
4630.00,1.5390
4629.00,1.5402
4628.00,1.5409
4627.00,1.5411
4626.00,1.5409
4625.00,1.5401
4624.00,1.5387
4623.00,1.5367
4622.00,1.5342
4621.00,1.5309
4620.00,1.5269
4619.00,1.5224
4618.00,1.5175
4617.00,1.5127
4616.00,1.5077
4615.00,1.5022
4614.00,1.4958
4613.00,1.4884
4612.00,1.4801
4611.00,1.4713
4610.00,1.4621
4609.00,1.4526
4608.00,1.4426
4607.00,1.4321
4606.00,1.4212
4605.00,1.4099
4604.00,1.3979
4603.00,1.3852
4602.00,1.3716
4601.00,1.3572
4600.00,1.3422
4599.00,1.3265
4598.00,1.3101
4597.00,1.2931
4596.00,1.2756
4595.00,1.2576
4594.00,1.2391
4593.00,1.2201
4592.00,1.2005
4591.00,1.1804
4590.00,1.1597
4589.00,1.1386
4588.00,1.1172
4587.00,1.0956
4586.00,1.0739
4585.00,1.0522
4584.00,1.0307
4583.00,1.0093
4582.00,0.9881
4581.00,0.9673
4580.00,0.9468
4579.00,0.9270
4578.00,0.9079
4577.00,0.8897
4576.00,0.8724
4575.00,0.8562
4574.00,0.8411
4573.00,0.8272
4572.00,0.8147
4571.00,0.8036
4570.00,0.7942
4569.00,0.7864
4568.00,0.7802
4567.00,0.7756
4566.00,0.7726
4565.00,0.7714
4564.00,0.7720
4563.00,0.7742
4562.00,0.7782
4561.00,0.7839
4560.00,0.7911
4559.00,0.7998
4558.00,0.8099
4557.00,0.8213
4556.00,0.8338
4555.00,0.8475
4554.00,0.8622
4553.00,0.8777
4552.00,0.8940
4551.00,0.9110
4550.00,0.9286
4549.00,0.9468
4548.00,0.9653
4547.00,0.9842
4546.00,1.0034
4545.00,1.0228
4544.00,1.0425
4543.00,1.0623
4542.00,1.0822
4541.00,1.1020
4540.00,1.1216
4539.00,1.1411
4538.00,1.1605
4537.00,1.1798
4536.00,1.1990
4535.00,1.2178
4534.00,1.2363
4533.00,1.2544
4532.00,1.2722
4531.00,1.2896
4530.00,1.3067
4529.00,1.3235
4528.00,1.3398
4527.00,1.3556
4526.00,1.3709
4525.00,1.3855
4524.00,1.3997
4523.00,1.4134
4522.00,1.4268
4521.00,1.4395
4520.00,1.4517
4519.00,1.4632
4518.00,1.4742
4517.00,1.4848
4516.00,1.4949
4515.00,1.5045
4514.00,1.5133
4513.00,1.5211
4512.00,1.5280
4511.00,1.5344
4510.00,1.5405
4509.00,1.5462
4508.00,1.5515
4507.00,1.5563
4506.00,1.5606
4505.00,1.5646
4504.00,1.5681
4503.00,1.5709
4502.00,1.5729
4501.00,1.5741
4500.00,1.5747
4499.00,1.5749
4498.00,1.5749
4497.00,1.5745
4496.00,1.5738
4495.00,1.5726
4494.00,1.5708
4493.00,1.5684
4492.00,1.5654
4491.00,1.5617
4490.00,1.5574
4489.00,1.5525
4488.00,1.5471
4487.00,1.5412
4486.00,1.5348
4485.00,1.5280
4484.00,1.5208
4483.00,1.5132
4482.00,1.5049
4481.00,1.4959
4480.00,1.4861
4479.00,1.4756
4478.00,1.4646
4477.00,1.4530
4476.00,1.4407
4475.00,1.4277
4474.00,1.4141
4473.00,1.4000
4472.00,1.3854
4471.00,1.3703
4470.00,1.3544
4469.00,1.3378
4468.00,1.3204
4467.00,1.3023
4466.00,1.2836
4465.00,1.2643
4464.00,1.2443
4463.00,1.2237
4462.00,1.2026
4461.00,1.1811
4460.00,1.1592
4459.00,1.1369
4458.00,1.1142
4457.00,1.0912
4456.00,1.0683
4455.00,1.0455
4454.00,1.0231
4453.00,1.0010
4452.00,0.9792
4451.00,0.9579
4450.00,0.9373
4449.00,0.9175
4448.00,0.8986
4447.00,0.8808
4446.00,0.8643
4445.00,0.8490
4444.00,0.8352
4443.00,0.8228
4442.00,0.8120
4441.00,0.8028
4440.00,0.7953
4439.00,0.7896
4438.00,0.7857
4437.00,0.7837
4436.00,0.7836
4435.00,0.7853
4434.00,0.7888
4433.00,0.7942
4432.00,0.8012
4431.00,0.8100
4430.00,0.8202
4429.00,0.8319
4428.00,0.8449
4427.00,0.8590
4426.00,0.8742
4425.00,0.8904
4424.00,0.9074
4423.00,0.9253
4422.00,0.9438
4421.00,0.9629
4420.00,0.9824
4419.00,1.0025
4418.00,1.0229
4417.00,1.0435
4416.00,1.0644
4415.00,1.0852
4414.00,1.1060
4413.00,1.1267
4412.00,1.1473
4411.00,1.1679
4410.00,1.1885
4409.00,1.2090
4408.00,1.2292
4407.00,1.2490
4406.00,1.2684
4405.00,1.2874
4404.00,1.3060
4403.00,1.3243
4402.00,1.3423
4401.00,1.3599
4400.00,1.3769
4399.00,1.3934
4398.00,1.4094
4397.00,1.4248
4396.00,1.4398
4395.00,1.4541
4394.00,1.4680
4393.00,1.4812
4392.00,1.4939
4391.00,1.5060
4390.00,1.5176
4389.00,1.5286
4388.00,1.5389
4387.00,1.5484
4386.00,1.5573
4385.00,1.5657
4384.00,1.5736
4383.00,1.5811
4382.00,1.5881
4381.00,1.5946
4380.00,1.6004
4379.00,1.6057
4378.00,1.6105
4377.00,1.6147
4376.00,1.6183
4375.00,1.6214
4374.00,1.6241
4373.00,1.6264
4372.00,1.6286
4371.00,1.6304
4370.00,1.6317
4369.00,1.6324
4368.00,1.6323
4367.00,1.6317
4366.00,1.6305
4365.00,1.6288
4364.00,1.6265
4363.00,1.6238
4362.00,1.6208
4361.00,1.6175
4360.00,1.6138
4359.00,1.6096
4358.00,1.6045
4357.00,1.5989
4356.00,1.5928
4355.00,1.5865
4354.00,1.5798
4353.00,1.5725
4352.00,1.5643
4351.00,1.5555
4350.00,1.5462
4349.00,1.5363
4348.00,1.5260
4347.00,1.5151
4346.00,1.5036
4345.00,1.4914
4344.00,1.4787
4343.00,1.4653
4342.00,1.4512
4341.00,1.4364
4340.00,1.4208
4339.00,1.4046
4338.00,1.3877
4337.00,1.3699
4336.00,1.3515
4335.00,1.3324
4334.00,1.3128
4333.00,1.2928
4332.00,1.2721
4331.00,1.2507
4330.00,1.2286
4329.00,1.2060
4328.00,1.1832
4327.00,1.1603
4326.00,1.1373
4325.00,1.1143
4324.00,1.0915
4323.00,1.0691
4322.00,1.0471
4321.00,1.0256
4320.00,1.0048
4319.00,0.9849
4318.00,0.9658
4317.00,0.9477
4316.00,0.9308
4315.00,0.9151
4314.00,0.9008
4313.00,0.8879
4312.00,0.8766
4311.00,0.8668
4310.00,0.8586
4309.00,0.8522
4308.00,0.8476
4307.00,0.8448
4306.00,0.8439
4305.00,0.8448
4304.00,0.8475
4303.00,0.8520
4302.00,0.8583
4301.00,0.8662
4300.00,0.8758
4299.00,0.8869
4298.00,0.8995
4297.00,0.9133
4296.00,0.9283
4295.00,0.9442
4294.00,0.9610
4293.00,0.9785
4292.00,0.9966
4291.00,1.0155
4290.00,1.0348
4289.00,1.0546
4288.00,1.0745
4287.00,1.0947
4286.00,1.1149
4285.00,1.1352
4284.00,1.1555
4283.00,1.1757
4282.00,1.1957
4281.00,1.2154
4280.00,1.2348
4279.00,1.2539
4278.00,1.2727
4277.00,1.2913
4276.00,1.3097
4275.00,1.3280
4274.00,1.3460
4273.00,1.3638
4272.00,1.3812
4271.00,1.3981
4270.00,1.4145
4269.00,1.4304
4268.00,1.4458
4267.00,1.4609
4266.00,1.4754
4265.00,1.4894
4264.00,1.5028
4263.00,1.5158
4262.00,1.5283
4261.00,1.5404
4260.00,1.5519
4259.00,1.5626
4258.00,1.5727
4257.00,1.5825
4256.00,1.5919
4255.00,1.6010
4254.00,1.6095
4253.00,1.6171
4252.00,1.6238
4251.00,1.6297
4250.00,1.6352
4249.00,1.6404
4248.00,1.6453
4247.00,1.6499
4246.00,1.6541
4245.00,1.6577
4244.00,1.6608
4243.00,1.6631
4242.00,1.6646
4241.00,1.6655
4240.00,1.6660
4239.00,1.6661
4238.00,1.6660
4237.00,1.6653
4236.00,1.6639
4235.00,1.6620
4234.00,1.6594
4233.00,1.6564
4232.00,1.6529
4231.00,1.6490
4230.00,1.6447
4229.00,1.6400
4228.00,1.6350
4227.00,1.6296
4226.00,1.6236
4225.00,1.6169
4224.00,1.6093
4223.00,1.6010
4222.00,1.5923
4221.00,1.5831
4220.00,1.5735
4219.00,1.5632
4218.00,1.5524
4217.00,1.5409
4216.00,1.5287
4215.00,1.5156
4214.00,1.5017
4213.00,1.4871
4212.00,1.4721
4211.00,1.4566
4210.00,1.4406
4209.00,1.4238
4208.00,1.4063
4207.00,1.3879
4206.00,1.3688
4205.00,1.3491
4204.00,1.3288
4203.00,1.3080
4202.00,1.2866
4201.00,1.2647
4200.00,1.2423
4199.00,1.2195
4198.00,1.1965
4197.00,1.1732
4196.00,1.1498
4195.00,1.1264
4194.00,1.1032
4193.00,1.0801
4192.00,1.0575
4191.00,1.0354
4190.00,1.0139
4189.00,0.9933
4188.00,0.9736
4187.00,0.9550
4186.00,0.9376
4185.00,0.9215
4184.00,0.9067
4183.00,0.8935
4182.00,0.8819
4181.00,0.8720
4180.00,0.8638
4179.00,0.8575
4178.00,0.8531
4177.00,0.8507
4176.00,0.8504
4175.00,0.8519
4174.00,0.8554
4173.00,0.8606
4172.00,0.8677
4171.00,0.8764
4170.00,0.8868
4169.00,0.8987
4168.00,0.9121
4167.00,0.9267
4166.00,0.9425
4165.00,0.9593
4164.00,0.9770
4163.00,0.9956
4162.00,1.0148
4161.00,1.0346
4160.00,1.0550
4159.00,1.0757
4158.00,1.0967
4157.00,1.1179
4156.00,1.1393
4155.00,1.1607
4154.00,1.1822
4153.00,1.2036
4152.00,1.2250
4151.00,1.2463
4150.00,1.2674
4149.00,1.2883
4148.00,1.3089
4147.00,1.3291
4146.00,1.3490
4145.00,1.3686
4144.00,1.3878
4143.00,1.4066
4142.00,1.4249
4141.00,1.4428
4140.00,1.4603
4139.00,1.4774
4138.00,1.4939
4137.00,1.5098
4136.00,1.5249
4135.00,1.5395
4134.00,1.5534
4133.00,1.5667
4132.00,1.5794
4131.00,1.5914
4130.00,1.6030
4129.00,1.6142
4128.00,1.6251
4127.00,1.6356
4126.00,1.6452
4125.00,1.6537
4124.00,1.6612
4123.00,1.6681
4122.00,1.6746
4121.00,1.6810
4120.00,1.6870
4119.00,1.6925
4118.00,1.6973
4117.00,1.7015
4116.00,1.7050
4115.00,1.7081
4114.00,1.7107
4113.00,1.7129
4112.00,1.7148
4111.00,1.7162
4110.00,1.7168
4109.00,1.7167
4108.00,1.7159
4107.00,1.7146
4106.00,1.7129
4105.00,1.7110
4104.00,1.7088
4103.00,1.7061
4102.00,1.7029
4101.00,1.6993
4100.00,1.6953
4099.00,1.6907
4098.00,1.6854
4097.00,1.6795
4096.00,1.6728
4095.00,1.6656
4094.00,1.6577
4093.00,1.6491
4092.00,1.6398
4091.00,1.6298
4090.00,1.6193
4089.00,1.6083
4088.00,1.5970
4087.00,1.5852
4086.00,1.5726
4085.00,1.5591
4084.00,1.5448
4083.00,1.5297
4082.00,1.5141
4081.00,1.4980
4080.00,1.4813
4079.00,1.4638
4078.00,1.4455
4077.00,1.4265
4076.00,1.4066
4075.00,1.3860
4074.00,1.3646
4073.00,1.3423
4072.00,1.3192
4071.00,1.2954
4070.00,1.2710
4069.00,1.2460
4068.00,1.2207
4067.00,1.1951
4066.00,1.1694
4065.00,1.1436
4064.00,1.1178
4063.00,1.0923
4062.00,1.0673
4061.00,1.0429
4060.00,1.0193
4059.00,0.9968
4058.00,0.9754
4057.00,0.9553
4056.00,0.9367
4055.00,0.9197
4054.00,0.9045
4053.00,0.8911
4052.00,0.8797
4051.00,0.8704
4050.00,0.8631
4049.00,0.8580
4048.00,0.8551
4047.00,0.8543
4046.00,0.8557
4045.00,0.8592
4044.00,0.8647
4043.00,0.8722
4042.00,0.8815
4041.00,0.8925
4040.00,0.9052
4039.00,0.9193
4038.00,0.9349
4037.00,0.9518
4036.00,0.9698
4035.00,0.9888
4034.00,1.0086
4033.00,1.0291
4032.00,1.0503
4031.00,1.0721
4030.00,1.0945
4029.00,1.1173
4028.00,1.1404
4027.00,1.1636
4026.00,1.1868
4025.00,1.2102
4024.00,1.2334
4023.00,1.2564
4022.00,1.2793
4021.00,1.3019
4020.00,1.3244
4019.00,1.3466
4018.00,1.3685
4017.00,1.3899
4016.00,1.4106
4015.00,1.4308
4014.00,1.4505
4013.00,1.4696
4012.00,1.4882
4011.00,1.5061
4010.00,1.5233
4009.00,1.5399
4008.00,1.5560
4007.00,1.5716
4006.00,1.5866
4005.00,1.6009
4004.00,1.6144
4003.00,1.6272
4002.00,1.6393
4001.00,1.6508
4000.00,1.6619
3999.00,1.6725
3998.00,1.6825
3997.00,1.6919
3996.00,1.7008
3995.00,1.7091
3994.00,1.7166
3993.00,1.7235
3992.00,1.7297
3991.00,1.7354
3990.00,1.7405
3989.00,1.7449
3988.00,1.7487
3987.00,1.7520
3986.00,1.7550
3985.00,1.7577
3984.00,1.7600
3983.00,1.7616
3982.00,1.7624
3981.00,1.7625
3980.00,1.7619
3979.00,1.7610
3978.00,1.7598
3977.00,1.7582
3976.00,1.7560
3975.00,1.7532
3974.00,1.7498
3973.00,1.7459
3972.00,1.7417
3971.00,1.7369
3970.00,1.7314
3969.00,1.7253
3968.00,1.7185
3967.00,1.7111
3966.00,1.7031
3965.00,1.6945
3964.00,1.6853
3963.00,1.6756
3962.00,1.6653
3961.00,1.6546
3960.00,1.6434
3959.00,1.6318
3958.00,1.6195
3957.00,1.6065
3956.00,1.5928
3955.00,1.5786
3954.00,1.5640
3953.00,1.5489
3952.00,1.5332
3951.00,1.5164
3950.00,1.4987
3949.00,1.4803
3948.00,1.4614
3947.00,1.4420
3946.00,1.4219
3945.00,1.4007
3944.00,1.3785
3943.00,1.3556
3942.00,1.3320
3941.00,1.3077
3940.00,1.2828
3939.00,1.2572
3938.00,1.2312
3937.00,1.2050
3936.00,1.1786
3935.00,1.1522
3934.00,1.1257
3933.00,1.0991
3932.00,1.0725
3931.00,1.0464
3930.00,1.0214
3929.00,0.9977
3928.00,0.9752
3927.00,0.9540
3926.00,0.9341
3925.00,0.9158
3924.00,0.8993
3923.00,0.8846
3922.00,0.8724
3921.00,0.8627
3920.00,0.8557
3919.00,0.8512
3918.00,0.8492
3917.00,0.8497
3916.00,0.8527
3915.00,0.8580
3914.00,0.8655
3913.00,0.8753
3912.00,0.8871
3911.00,0.9009
3910.00,0.9163
3909.00,0.9331
3908.00,0.9507
3907.00,0.9691
3906.00,0.9886
3905.00,1.0100
3904.00,1.0334
3903.00,1.0583
3902.00,1.0838
3901.00,1.1096
3900.00,1.1359
3899.00,1.1628
3898.00,1.1897
3897.00,1.2162
3896.00,1.2418
3895.00,1.2663
3894.00,1.2894
3893.00,1.3119
3892.00,1.3351
3891.00,1.3598
3890.00,1.3851
3889.00,1.4091
3888.00,1.4308
3887.00,1.4514
3886.00,1.4727
3885.00,1.4951
3884.00,1.5171
3883.00,1.5374
3882.00,1.5559
3881.00,1.5738
3880.00,1.5919
3879.00,1.6100
3878.00,1.6268
3877.00,1.6417
3876.00,1.6554
3875.00,1.6689
3874.00,1.6822
3873.00,1.6940
3872.00,1.7040
3871.00,1.7137
3870.00,1.7242
3869.00,1.7349
3868.00,1.7445
3867.00,1.7526
3866.00,1.7602
3865.00,1.7680
3864.00,1.7758
3863.00,1.7828
3862.00,1.7883
3861.00,1.7923
3860.00,1.7954
3859.00,1.7981
3858.00,1.8012
3857.00,1.8042
3856.00,1.8064
3855.00,1.8082
3854.00,1.8100
3853.00,1.8111
3852.00,1.8110
3851.00,1.8098
3850.00,1.8084
3849.00,1.8072
3848.00,1.8061
3847.00,1.8046
3846.00,1.8022
3845.00,1.7987
3844.00,1.7944
3843.00,1.7896
3842.00,1.7842
3841.00,1.7781
3840.00,1.7712
3839.00,1.7635
3838.00,1.7552
3837.00,1.7463
3836.00,1.7371
3835.00,1.7276
3834.00,1.7176
3833.00,1.7072
3832.00,1.6963
3831.00,1.6850
3830.00,1.6726
3829.00,1.6588
3828.00,1.6439
3827.00,1.6285
3826.00,1.6133
3825.00,1.5977
3824.00,1.5804
3823.00,1.5610
3822.00,1.5400
3821.00,1.5181
3820.00,1.4960
3819.00,1.4739
3818.00,1.4513
3817.00,1.4277
3816.00,1.4024
3815.00,1.3752
3814.00,1.3470
3813.00,1.3188
3812.00,1.2915
3811.00,1.2647
3810.00,1.2372
3809.00,1.2083
3808.00,1.1778
3807.00,1.1465
3806.00,1.1158
3805.00,1.0866
3804.00,1.0587
3803.00,1.0319
3802.00,1.0059
3801.00,0.9804
3800.00,0.9561
3799.00,0.9340
3798.00,0.9151
3797.00,0.8994
3796.00,0.8866
3795.00,0.8763
3794.00,0.8684
3793.00,0.8630
3792.00,0.8603
3791.00,0.8606
3790.00,0.8636
3789.00,0.8693
3788.00,0.8772
3787.00,0.8871
3786.00,0.8992
3785.00,0.9138
3784.00,0.9309
3783.00,0.9495
3782.00,0.9690
3781.00,0.9897
3780.00,1.0123
3779.00,1.0367
3778.00,1.0621
3777.00,1.0875
3776.00,1.1129
3775.00,1.1386
3774.00,1.1645
3773.00,1.1900
3772.00,1.2151
3771.00,1.2407
3770.00,1.2677
3769.00,1.2957
3768.00,1.3233
3767.00,1.3497
3766.00,1.3756
3765.00,1.4016
3764.00,1.4274
3763.00,1.4519
3762.00,1.4750
3761.00,1.4970
3760.00,1.5185
3759.00,1.5395
3758.00,1.5601
3757.00,1.5800
3756.00,1.5988
3755.00,1.6161
3754.00,1.6321
3753.00,1.6470
3752.00,1.6610
3751.00,1.6748
3750.00,1.6892
3749.00,1.7046
3748.00,1.7193
3747.00,1.7316
3746.00,1.7425
3745.00,1.7540
3744.00,1.7660
3743.00,1.7772
3742.00,1.7870
3741.00,1.7962
3740.00,1.8054
3739.00,1.8145
3738.00,1.8231
3737.00,1.8315
3736.00,1.8400
3735.00,1.8484
3734.00,1.8567
3733.00,1.8652
3732.00,1.8736
3731.00,1.8814
3730.00,1.8880
3729.00,1.8934
3728.00,1.8978
3727.00,1.9014
3726.00,1.9038
3725.00,1.9045
3724.00,1.9030
3723.00,1.8993
3722.00,1.8940
3721.00,1.8873
3720.00,1.8791
3719.00,1.8695
3718.00,1.8595
3717.00,1.8501
3716.00,1.8420
3715.00,1.8346
3714.00,1.8269
3713.00,1.8187
3712.00,1.8104
3711.00,1.8028
3710.00,1.7962
3709.00,1.7900
3708.00,1.7834
3707.00,1.7761
3706.00,1.7677
3705.00,1.7576
3704.00,1.7454
3703.00,1.7311
3702.00,1.7152
3701.00,1.6980
3700.00,1.6795
3699.00,1.6595
3698.00,1.6385
3697.00,1.6163
3696.00,1.5931
3695.00,1.5690
3694.00,1.5444
3693.00,1.5195
3692.00,1.4939
3691.00,1.4674
3690.00,1.4400
3689.00,1.4116
3688.00,1.3823
3687.00,1.3530
3686.00,1.3250
3685.00,1.2986
3684.00,1.2734
3683.00,1.2482
3682.00,1.2230
3681.00,1.1984
3680.00,1.1756
3679.00,1.1545
3678.00,1.1344
3677.00,1.1151
3676.00,1.0973
3675.00,1.0814
3674.00,1.0684
3673.00,1.0586
3672.00,1.0524
3671.00,1.0500
3670.00,1.0511
3669.00,1.0545
3668.00,1.0597
3667.00,1.0670
3666.00,1.0768
3665.00,1.0892
3664.00,1.1037
3663.00,1.1198
3662.00,1.1372
3661.00,1.1561
3660.00,1.1759
3659.00,1.1961
3658.00,1.2167
3657.00,1.2385
3656.00,1.2620
3655.00,1.2864
3654.00,1.3103
3653.00,1.3329
3652.00,1.3550
3651.00,1.3780
3650.00,1.4028
3649.00,1.4292
3648.00,1.4564
3647.00,1.4835
3646.00,1.5096
3645.00,1.5341
3644.00,1.5572
3643.00,1.5796
3642.00,1.6017
3641.00,1.6232
3640.00,1.6441
3639.00,1.6648
3638.00,1.6852
3637.00,1.7046
3636.00,1.7228
3635.00,1.7402
3634.00,1.7580
3633.00,1.7763
3632.00,1.7943
3631.00,1.8113
3630.00,1.8283
3629.00,1.8460
3628.00,1.8640
3627.00,1.8813
3626.00,1.8971
3625.00,1.9113
3624.00,1.9241
3623.00,1.9351
3622.00,1.9443
3621.00,1.9520
3620.00,1.9592
3619.00,1.9662
3618.00,1.9726
3617.00,1.9774
3616.00,1.9810
3615.00,1.9842
3614.00,1.9883
3613.00,1.9932
3612.00,1.9985
3611.00,2.0038
3610.00,2.0092
3609.00,2.0153
3608.00,2.0219
3607.00,2.0282
3606.00,2.0335
3605.00,2.0375
3604.00,2.0403
3603.00,2.0421
3602.00,2.0432
3601.00,2.0437
3600.00,2.0439
3599.00,2.0438
3598.00,2.0434
3597.00,2.0423
3596.00,2.0404
3595.00,2.0373
3594.00,2.0333
3593.00,2.0287
3592.00,2.0239
3591.00,2.0190
3590.00,2.0137
3589.00,2.0082
3588.00,2.0027
3587.00,1.9974
3586.00,1.9919
3585.00,1.9862
3584.00,1.9803
3583.00,1.9742
3582.00,1.9679
3581.00,1.9617
3580.00,1.9556
3579.00,1.9493
3578.00,1.9421
3577.00,1.9337
3576.00,1.9243
3575.00,1.9143
3574.00,1.9038
3573.00,1.8933
3572.00,1.8828
3571.00,1.8723
3570.00,1.8615
3569.00,1.8502
3568.00,1.8387
3567.00,1.8268
3566.00,1.8148
3565.00,1.8026
3564.00,1.7906
3563.00,1.7789
3562.00,1.7674
3561.00,1.7561
3560.00,1.7447
3559.00,1.7331
3558.00,1.7214
3557.00,1.7099
3556.00,1.6987
3555.00,1.6875
3554.00,1.6762
3553.00,1.6649
3552.00,1.6539
3551.00,1.6435
3550.00,1.6337
3549.00,1.6247
3548.00,1.6164
3547.00,1.6090
3546.00,1.6022
3545.00,1.5960
3544.00,1.5904
3543.00,1.5855
3542.00,1.5815
3541.00,1.5783
3540.00,1.5760
3539.00,1.5746
3538.00,1.5739
3537.00,1.5741
3536.00,1.5752
3535.00,1.5772
3534.00,1.5801
3533.00,1.5835
3532.00,1.5876
3531.00,1.5922
3530.00,1.5974
3529.00,1.6034
3528.00,1.6102
3527.00,1.6177
3526.00,1.6256
3525.00,1.6338
3524.00,1.6423
3523.00,1.6514
3522.00,1.6612
3521.00,1.6717
3520.00,1.6824
3519.00,1.6931
3518.00,1.7036
3517.00,1.7141
3516.00,1.7248
3515.00,1.7358
3514.00,1.7470
3513.00,1.7583
3512.00,1.7699
3511.00,1.7818
3510.00,1.7938
3509.00,1.8057
3508.00,1.8172
3507.00,1.8283
3506.00,1.8390
3505.00,1.8498
3504.00,1.8608
3503.00,1.8723
3502.00,1.8837
3501.00,1.8948
3500.00,1.9054
3499.00,1.9158
3498.00,1.9263
3497.00,1.9369
3496.00,1.9475
3495.00,1.9577
3494.00,1.9673
3493.00,1.9763
3492.00,1.9852
3491.00,1.9940
3490.00,2.0028
3489.00,2.0112
3488.00,2.0196
3487.00,2.0280
3486.00,2.0364
3485.00,2.0442
3484.00,2.0512
3483.00,2.0576
3482.00,2.0636
3481.00,2.0695
3480.00,2.0751
3479.00,2.0806
3478.00,2.0858
3477.00,2.0907
3476.00,2.0952
3475.00,2.0993
3474.00,2.1029
3473.00,2.1064
3472.00,2.1098
3471.00,2.1130
3470.00,2.1156
3469.00,2.1176
3468.00,2.1190
3467.00,2.1198
3466.00,2.1200
3465.00,2.1200
3464.00,2.1199
3463.00,2.1198
3462.00,2.1197
3461.00,2.1193
3460.00,2.1186
3459.00,2.1174
3458.00,2.1157
3457.00,2.1131
3456.00,2.1097
3455.00,2.1058
3454.00,2.1013
3453.00,2.0966
3452.00,2.0915
3451.00,2.0860
3450.00,2.0802
3449.00,2.0741
3448.00,2.0679
3447.00,2.0617
3446.00,2.0554
3445.00,2.0487
3444.00,2.0414
3443.00,2.0336
3442.00,2.0252
3441.00,2.0160
3440.00,2.0061
3439.00,1.9954
3438.00,1.9844
3437.00,1.9733
3436.00,1.9624
3435.00,1.9516
3434.00,1.9405
3433.00,1.9288
3432.00,1.9165
3431.00,1.9036
3430.00,1.8903
3429.00,1.8770
3428.00,1.8637
3427.00,1.8504
3426.00,1.8371
3425.00,1.8237
3424.00,1.8104
3423.00,1.7975
3422.00,1.7852
3421.00,1.7734
3420.00,1.7621
3419.00,1.7512
3418.00,1.7408
3417.00,1.7310
3416.00,1.7219
3415.00,1.7136
3414.00,1.7059
3413.00,1.6986
3412.00,1.6919
3411.00,1.6855
3410.00,1.6795
3409.00,1.6740
3408.00,1.6687
3407.00,1.6634
3406.00,1.6578
3405.00,1.6519
3404.00,1.6456
3403.00,1.6392
3402.00,1.6325
3401.00,1.6256
3400.00,1.6185
3399.00,1.6114
3398.00,1.6047
3397.00,1.5989
3396.00,1.5940
3395.00,1.5899
3394.00,1.5868
3393.00,1.5848
3392.00,1.5838
3391.00,1.5839
3390.00,1.5853
3389.00,1.5882
3388.00,1.5925
3387.00,1.5982
3386.00,1.6050
3385.00,1.6129
3384.00,1.6217
3383.00,1.6316
3382.00,1.6423
3381.00,1.6539
3380.00,1.6661
3379.00,1.6789
3378.00,1.6921
3377.00,1.7060
3376.00,1.7206
3375.00,1.7358
3374.00,1.7513
3373.00,1.7670
3372.00,1.7826
3371.00,1.7982
3370.00,1.8136
3369.00,1.8289
3368.00,1.8440
3367.00,1.8592
3366.00,1.8741
3365.00,1.8888
3364.00,1.9031
3363.00,1.9169
3362.00,1.9302
3361.00,1.9434
3360.00,1.9564
3359.00,1.9691
3358.00,1.9812
3357.00,1.9927
3356.00,2.0039
3355.00,2.0150
3354.00,2.0259
3353.00,2.0364
3352.00,2.0461
3351.00,2.0550
3350.00,2.0629
3349.00,2.0701
3348.00,2.0767
3347.00,2.0831
3346.00,2.0891
3345.00,2.0948
3344.00,2.1000
3343.00,2.1046
3342.00,2.1089
3341.00,2.1129
3340.00,2.1165
3339.00,2.1196
3338.00,2.1222
3337.00,2.1247
3336.00,2.1270
3335.00,2.1284
3334.00,2.1288
3333.00,2.1284
3332.00,2.1276
3331.00,2.1265
3330.00,2.1248
3329.00,2.1225
3328.00,2.1200
3327.00,2.1177
3326.00,2.1153
3325.00,2.1121
3324.00,2.1080
3323.00,2.1033
3322.00,2.0983
3321.00,2.0930
3320.00,2.0874
3319.00,2.0809
3318.00,2.0734
3317.00,2.0650
3316.00,2.0560
3315.00,2.0468
3314.00,2.0375
3313.00,2.0278
3312.00,2.0176
3311.00,2.0069
3310.00,1.9956
3309.00,1.9838
3308.00,1.9717
3307.00,1.9592
3306.00,1.9459
3305.00,1.9319
3304.00,1.9171
3303.00,1.9018
3302.00,1.8860
3301.00,1.8698
3300.00,1.8532
3299.00,1.8363
3298.00,1.8189
3297.00,1.8010
3296.00,1.7826
3295.00,1.7641
3294.00,1.7455
3293.00,1.7269
3292.00,1.7081
3291.00,1.6890
3290.00,1.6698
3289.00,1.6508
3288.00,1.6323
3287.00,1.6143
3286.00,1.5971
3285.00,1.5806
3284.00,1.5650
3283.00,1.5503
3282.00,1.5366
3281.00,1.5238
3280.00,1.5122
3279.00,1.5018
3278.00,1.4930
3277.00,1.4858
3276.00,1.4803
3275.00,1.4765
3274.00,1.4742
3273.00,1.4734
3272.00,1.4741
3271.00,1.4763
3270.00,1.4802
3269.00,1.4857
3268.00,1.4929
3267.00,1.5016
3266.00,1.5115
3265.00,1.5227
3264.00,1.5349
3263.00,1.5480
3262.00,1.5619
3261.00,1.5767
3260.00,1.5924
3259.00,1.6089
3258.00,1.6258
3257.00,1.6432
3256.00,1.6610
3255.00,1.6792
3254.00,1.6977
3253.00,1.7163
3252.00,1.7348
3251.00,1.7533
3250.00,1.7719
3249.00,1.7905
3248.00,1.8090
3247.00,1.8271
3246.00,1.8449
3245.00,1.8621
3244.00,1.8791
3243.00,1.8958
3242.00,1.9125
3241.00,1.9289
3240.00,1.9449
3239.00,1.9604
3238.00,1.9752
3237.00,1.9896
3236.00,2.0035
3235.00,2.0170
3234.00,2.0300
3233.00,2.0423
3232.00,2.0538
3231.00,2.0644
3230.00,2.0744
3229.00,2.0843
3228.00,2.0943
3227.00,2.1044
3226.00,2.1141
3225.00,2.1229
3224.00,2.1309
3223.00,2.1384
3222.00,2.1455
3221.00,2.1522
3220.00,2.1584
3219.00,2.1639
3218.00,2.1689
3217.00,2.1736
3216.00,2.1778
3215.00,2.1816
3214.00,2.1849
3213.00,2.1878
3212.00,2.1900
3211.00,2.1914
3210.00,2.1924
3209.00,2.1935
3208.00,2.1946
3207.00,2.1953
3206.00,2.1951
3205.00,2.1942
3204.00,2.1931
3203.00,2.1921
3202.00,2.1907
3201.00,2.1887
3200.00,2.1857
3199.00,2.1819
3198.00,2.1775
3197.00,2.1727
3196.00,2.1679
3195.00,2.1629
3194.00,2.1574
3193.00,2.1511
3192.00,2.1440
3191.00,2.1365
3190.00,2.1288
3189.00,2.1211
3188.00,2.1130
3187.00,2.1040
3186.00,2.0943
3185.00,2.0837
3184.00,2.0724
3183.00,2.0606
3182.00,2.0485
3181.00,2.0361
3180.00,2.0232
3179.00,2.0097
3178.00,1.9957
3177.00,1.9812
3176.00,1.9665
3175.00,1.9513
3174.00,1.9353
3173.00,1.9187
3172.00,1.9019
3171.00,1.8851
3170.00,1.8682
3169.00,1.8509
3168.00,1.8331
3167.00,1.8150
3166.00,1.7966
3165.00,1.7781
3164.00,1.7596
3163.00,1.7413
3162.00,1.7232
3161.00,1.7054
3160.00,1.6881
3159.00,1.6712
3158.00,1.6550
3157.00,1.6396
3156.00,1.6252
3155.00,1.6118
3154.00,1.5995
3153.00,1.5885
3152.00,1.5789
3151.00,1.5710
3150.00,1.5647
3149.00,1.5601
3148.00,1.5571
3147.00,1.5556
3146.00,1.5556
3145.00,1.5571
3144.00,1.5604
3143.00,1.5654
3142.00,1.5721
3141.00,1.5803
3140.00,1.5898
3139.00,1.6005
3138.00,1.6123
3137.00,1.6255
3136.00,1.6399
3135.00,1.6552
3134.00,1.6712
3133.00,1.6879
3132.00,1.7053
3131.00,1.7235
3130.00,1.7421
3129.00,1.7609
3128.00,1.7798
3127.00,1.7988
3126.00,1.8177
3125.00,1.8369
3124.00,1.8562
3123.00,1.8756
3122.00,1.8948
3121.00,1.9135
3120.00,1.9320
3119.00,1.9501
3118.00,1.9678
3117.00,1.9847
3116.00,2.0010
3115.00,2.0168
3114.00,2.0320
3113.00,2.0466
3112.00,2.0606
3111.00,2.0743
3110.00,2.0879
3109.00,2.1011
3108.00,2.1135
3107.00,2.1247
3106.00,2.1348
3105.00,2.1441
3104.00,2.1530
3103.00,2.1619
3102.00,2.1711
3101.00,2.1806
3100.00,2.1897
3099.00,2.1976
3098.00,2.2043
3097.00,2.2105
3096.00,2.2165
3095.00,2.2221
3094.00,2.2273
3093.00,2.2325
3092.00,2.2380
3091.00,2.2435
3090.00,2.2481
3089.00,2.2510
3088.00,2.2522
3087.00,2.2525
3086.00,2.2528
3085.00,2.2532
3084.00,2.2535
3083.00,2.2531
3082.00,2.2516
3081.00,2.2492
3080.00,2.2458
3079.00,2.2415
3078.00,2.2368
3077.00,2.2320
3076.00,2.2273
3075.00,2.2221
3074.00,2.2160
3073.00,2.2087
3072.00,2.2003
3071.00,2.1912
3070.00,2.1820
3069.00,2.1730
3068.00,2.1641
3067.00,2.1546
3066.00,2.1438
3065.00,2.1319
3064.00,2.1191
3063.00,2.1054
3062.00,2.0908
3061.00,2.0754
3060.00,2.0593
3059.00,2.0427
3058.00,2.0256
3057.00,2.0083
3056.00,1.9907
3055.00,1.9728
3054.00,1.9541
3053.00,1.9345
3052.00,1.9141
3051.00,1.8931
3050.00,1.8718
3049.00,1.8505
3048.00,1.8292
3047.00,1.8079
3046.00,1.7869
3045.00,1.7663
3044.00,1.7464
3043.00,1.7274
3042.00,1.7097
3041.00,1.6934
3040.00,1.6790
3039.00,1.6668
3038.00,1.6570
3037.00,1.6497
3036.00,1.6450
3035.00,1.6430
3034.00,1.6439
3033.00,1.6476
3032.00,1.6543
3031.00,1.6637
3030.00,1.6755
3029.00,1.6895
3028.00,1.7055
3027.00,1.7233
3026.00,1.7429
3025.00,1.7640
3024.00,1.7864
3023.00,1.8098
3022.00,1.8339
3021.00,1.8588
3020.00,1.8844
3019.00,1.9106
3018.00,1.9370
3017.00,1.9635
3016.00,1.9899
3015.00,2.0160
3014.00,2.0416
3013.00,2.0666
3012.00,2.0912
3011.00,2.1151
3010.00,2.1382
3009.00,2.1604
3008.00,2.1819
3007.00,2.2027
3006.00,2.2228
3005.00,2.2421
3004.00,2.2606
3003.00,2.2780
3002.00,2.2942
3001.00,2.3088
3000.00,2.3219
2999.00,2.3333
2998.00,2.3432
2997.00,2.3520
2996.00,2.3604
2995.00,2.3682
2994.00,2.3748
2993.00,2.3796
2992.00,2.3828
2991.00,2.3845
2990.00,2.3851
2989.00,2.3852
2988.00,2.3852
2987.00,2.3852
2986.00,2.3851
2985.00,2.3855
2984.00,2.3873
2983.00,2.3910
2982.00,2.3972
2981.00,2.4068
2980.00,2.4215
2979.00,2.4430
2978.00,2.4721
2977.00,2.5083
2976.00,2.5512
2975.00,2.6004
2974.00,2.6561
2973.00,2.7181
2972.00,2.7857
2971.00,2.8585
2970.00,2.9367
2969.00,3.0207
2968.00,3.1100
2967.00,3.2030
2966.00,3.2979
2965.00,3.3945
2964.00,3.4950
2963.00,3.6024
2962.00,3.7160
2961.00,3.8294
2960.00,3.9327
2959.00,4.0132
2958.00,4.0552
2957.00,4.0547
2956.00,4.0372
2955.00,4.0397
2954.00,4.0884
2953.00,4.1822
2952.00,4.2713
2951.00,4.2862
2950.00,4.2517
2949.00,4.2504
2948.00,4.3273
2947.00,4.4644
2946.00,4.5488
2945.00,4.4961
2944.00,4.4054
2943.00,4.3599
2942.00,4.3369
2941.00,4.2911
2940.00,4.2256
2939.00,4.1464
2938.00,4.0641
2937.00,4.0030
2936.00,3.9804
2935.00,3.9886
2934.00,4.0100
2933.00,4.0526
2932.00,4.1378
2931.00,4.2279
2930.00,4.2395
2929.00,4.2025
2928.00,4.1686
2927.00,4.1341
2926.00,4.0919
2925.00,4.0755
2924.00,4.0807
2923.00,4.0471
2922.00,3.9759
2921.00,3.9071
2920.00,3.8492
2919.00,3.7866
2918.00,3.7124
2917.00,3.6336
2916.00,3.5556
2915.00,3.4835
2914.00,3.4223
2913.00,3.3728
2912.00,3.3311
2911.00,3.2906
2910.00,3.2497
2909.00,3.2120
2908.00,3.1803
2907.00,3.1529
2906.00,3.1264
2905.00,3.1003
2904.00,3.0768
2903.00,3.0570
2902.00,3.0395
2901.00,3.0227
2900.00,3.0060
2899.00,2.9901
2898.00,2.9753
2897.00,2.9620
2896.00,2.9497
2895.00,2.9364
2894.00,2.9204
2893.00,2.9029
2892.00,2.8872
2891.00,2.8753
2890.00,2.8669
2889.00,2.8607
2888.00,2.8561
2887.00,2.8524
2886.00,2.8492
2885.00,2.8469
2884.00,2.8471
2883.00,2.8511
2882.00,2.8595
2881.00,2.8729
2880.00,2.8930
2879.00,2.9208
2878.00,2.9550
2877.00,2.9925
2876.00,3.0311
2875.00,3.0718
2874.00,3.1170
2873.00,3.1692
2872.00,3.2286
2871.00,3.2939
2870.00,3.3651
2869.00,3.4456
2868.00,3.5390
2867.00,3.6377
2866.00,3.7158
2865.00,3.7509
2864.00,3.7539
2863.00,3.7523
2862.00,3.7555
2861.00,3.7503
2860.00,3.7206
2859.00,3.6633
2858.00,3.5891
2857.00,3.5086
2856.00,3.4251
2855.00,3.3364
2854.00,3.2413
2853.00,3.1445
2852.00,3.0528
2851.00,2.9704
2850.00,2.8976
2849.00,2.8326
2848.00,2.7734
2847.00,2.7189
2846.00,2.6686
2845.00,2.6223
2844.00,2.5792
2843.00,2.5382
2842.00,2.4983
2841.00,2.4592
2840.00,2.4214
2839.00,2.3846
2838.00,2.3483
2837.00,2.3125
2836.00,2.2772
2835.00,2.2427
2834.00,2.2091
2833.00,2.1767
2832.00,2.1456
2831.00,2.1163
2830.00,2.0883
2829.00,2.0612
2828.00,2.0347
2827.00,2.0084
2826.00,1.9819
2825.00,1.9550
2824.00,1.9282
2823.00,1.9018
2822.00,1.8765
2821.00,1.8527
2820.00,1.8309
2819.00,1.8122
2818.00,1.7972
2817.00,1.7868
2816.00,1.7812
2815.00,1.7806
2814.00,1.7850
2813.00,1.7939
2812.00,1.8071
2811.00,1.8238
2810.00,1.8434
2809.00,1.8653
2808.00,1.8891
2807.00,1.9143
2806.00,1.9406
2805.00,1.9679
2804.00,1.9958
2803.00,2.0239
2802.00,2.0517
2801.00,2.0784
2800.00,2.1039
2799.00,2.1279
2798.00,2.1505
2797.00,2.1718
2796.00,2.1917
2795.00,2.2101
2794.00,2.2270
2793.00,2.2427
2792.00,2.2577
2791.00,2.2722
2790.00,2.2862
2789.00,2.2998
2788.00,2.3127
2787.00,2.3252
2786.00,2.3368
2785.00,2.3475
2784.00,2.3571
2783.00,2.3659
2782.00,2.3737
2781.00,2.3807
2780.00,2.3869
2779.00,2.3922
2778.00,2.3960
2777.00,2.3985
2776.00,2.4005
2775.00,2.4030
2774.00,2.4057
2773.00,2.4074
2772.00,2.4076
2771.00,2.4068
2770.00,2.4052
2769.00,2.4031
2768.00,2.4004
2767.00,2.3971
2766.00,2.3934
2765.00,2.3890
2764.00,2.3833
2763.00,2.3763
2762.00,2.3685
2761.00,2.3603
2760.00,2.3518
2759.00,2.3425
2758.00,2.3320
2757.00,2.3204
2756.00,2.3080
2755.00,2.2949
2754.00,2.2807
2753.00,2.2652
2752.00,2.2482
2751.00,2.2304
2750.00,2.2121
2749.00,2.1932
2748.00,2.1731
2747.00,2.1519
2746.00,2.1297
2745.00,2.1064
2744.00,2.0816
2743.00,2.0551
2742.00,2.0270
2741.00,1.9976
2740.00,1.9671
2739.00,1.9355
2738.00,1.9028
2737.00,1.8690
2736.00,1.8341
2735.00,1.7981
2734.00,1.7612
2733.00,1.7236
2732.00,1.6856
2731.00,1.6477
2730.00,1.6102
2729.00,1.5735
2728.00,1.5381
2727.00,1.5044
2726.00,1.4731
2725.00,1.4447
2724.00,1.4199
2723.00,1.3993
2722.00,1.3832
2721.00,1.3720
2720.00,1.3658
2719.00,1.3648
2718.00,1.3685
2717.00,1.3769
2716.00,1.3894
2715.00,1.4059
2714.00,1.4261
2713.00,1.4495
2712.00,1.4757
2711.00,1.5042
2710.00,1.5346
2709.00,1.5667
2708.00,1.6001
2707.00,1.6345
2706.00,1.6696
2705.00,1.7050
2704.00,1.7408
2703.00,1.7766
2702.00,1.8122
2701.00,1.8471
2700.00,1.8813
2699.00,1.9147
2698.00,1.9475
2697.00,1.9798
2696.00,2.0116
2695.00,2.0423
2694.00,2.0717
2693.00,2.0996
2692.00,2.1258
2691.00,2.1503
2690.00,2.1735
2689.00,2.1961
2688.00,2.2184
2687.00,2.2402
2686.00,2.2606
2685.00,2.2796
2684.00,2.2975
2683.00,2.3147
2682.00,2.3311
2681.00,2.3462
2680.00,2.3603
2679.00,2.3736
2678.00,2.3863
2677.00,2.3976
2676.00,2.4076
2675.00,2.4165
2674.00,2.4250
2673.00,2.4328
2672.00,2.4398
2671.00,2.4460
2670.00,2.4516
2669.00,2.4571
2668.00,2.4622
2667.00,2.4667
2666.00,2.4704
2665.00,2.4730
2664.00,2.4743
2663.00,2.4749
2662.00,2.4757
2661.00,2.4773
2660.00,2.4791
2659.00,2.4802
2658.00,2.4804
2657.00,2.4804
2656.00,2.4808
2655.00,2.4814
2654.00,2.4815
2653.00,2.4811
2652.00,2.4803
2651.00,2.4786
2650.00,2.4751
2649.00,2.4697
2648.00,2.4630
2647.00,2.4564
2646.00,2.4504
2645.00,2.4448
2644.00,2.4392
2643.00,2.4329
2642.00,2.4252
2641.00,2.4158
2640.00,2.4050
2639.00,2.3934
2638.00,2.3815
2637.00,2.3692
2636.00,2.3563
2635.00,2.3426
2634.00,2.3281
2633.00,2.3130
2632.00,2.2969
2631.00,2.2798
2630.00,2.2616
2629.00,2.2429
2628.00,2.2238
2627.00,2.2040
2626.00,2.1832
2625.00,2.1611
2624.00,2.1379
2623.00,2.1140
2622.00,2.0893
2621.00,2.0635
2620.00,2.0367
2619.00,2.0092
2618.00,1.9810
2617.00,1.9519
2616.00,1.9217
2615.00,1.8902
2614.00,1.8580
2613.00,1.8253
2612.00,1.7923
2611.00,1.7587
2610.00,1.7244
2609.00,1.6894
2608.00,1.6540
2607.00,1.6187
2606.00,1.5838
2605.00,1.5498
2604.00,1.5175
2603.00,1.4875
2602.00,1.4605
2601.00,1.4369
2600.00,1.4175
2599.00,1.4025
2598.00,1.3926
2597.00,1.3880
2596.00,1.3887
2595.00,1.3945
2594.00,1.4052
2593.00,1.4204
2592.00,1.4397
2591.00,1.4627
2590.00,1.4887
2589.00,1.5173
2588.00,1.5478
2587.00,1.5798
2586.00,1.6128
2585.00,1.6467
2584.00,1.6812
2583.00,1.7162
2582.00,1.7515
2581.00,1.7868
2580.00,1.8222
2579.00,1.8574
2578.00,1.8923
2577.00,1.9264
2576.00,1.9594
2575.00,1.9911
2574.00,2.0218
2573.00,2.0518
2572.00,2.0811
2571.00,2.1095
2570.00,2.1368
2569.00,2.1632
2568.00,2.1885
2567.00,2.2124
2566.00,2.2346
2565.00,2.2550
2564.00,2.2741
2563.00,2.2926
2562.00,2.3111
2561.00,2.3294
2560.00,2.3469
2559.00,2.3633
2558.00,2.3788
2557.00,2.3937
2556.00,2.4077
2555.00,2.4205
2554.00,2.4322
2553.00,2.4432
2552.00,2.4537
2551.00,2.4640
2550.00,2.4741
2549.00,2.4841
2548.00,2.4940
2547.00,2.5031
2546.00,2.5108
2545.00,2.5171
2544.00,2.5222
2543.00,2.5269
2542.00,2.5313
2541.00,2.5353
2540.00,2.5390
2539.00,2.5427
2538.00,2.5465
2537.00,2.5501
2536.00,2.5525
2535.00,2.5533
2534.00,2.5530
2533.00,2.5523
2532.00,2.5520
2531.00,2.5522
2530.00,2.5526
2529.00,2.5521
2528.00,2.5501
2527.00,2.5471
2526.00,2.5447
2525.00,2.5435
2524.00,2.5419
2523.00,2.5377
2522.00,2.5306
2521.00,2.5224
2520.00,2.5145
2519.00,2.5071
2518.00,2.4990
2517.00,2.4895
2516.00,2.4789
2515.00,2.4680
2514.00,2.4573
2513.00,2.4466
2512.00,2.4356
2511.00,2.4237
2510.00,2.4107
2509.00,2.3965
2508.00,2.3810
2507.00,2.3639
2506.00,2.3455
2505.00,2.3261
2504.00,2.3060
2503.00,2.2853
2502.00,2.2637
2501.00,2.2411
2500.00,2.2173
2499.00,2.1922
2498.00,2.1660
2497.00,2.1388
2496.00,2.1105
2495.00,2.0807
2494.00,2.0489
2493.00,2.0149
2492.00,1.9791
2491.00,1.9419
2490.00,1.9031
2489.00,1.8626
2488.00,1.8204
2487.00,1.7767
2486.00,1.7321
2485.00,1.6870
2484.00,1.6419
2483.00,1.5974
2482.00,1.5541
2481.00,1.5126
2480.00,1.4737
2479.00,1.4379
2478.00,1.4060
2477.00,1.3787
2476.00,1.3567
2475.00,1.3404
2474.00,1.3302
2473.00,1.3262
2472.00,1.3284
2471.00,1.3365
2470.00,1.3501
2469.00,1.3687
2468.00,1.3917
2467.00,1.4185
2466.00,1.4483
2465.00,1.4805
2464.00,1.5146
2463.00,1.5502
2462.00,1.5869
2461.00,1.6249
2460.00,1.6641
2459.00,1.7039
2458.00,1.7441
2457.00,1.7842
2456.00,1.8239
2455.00,1.8630
2454.00,1.9017
2453.00,1.9398
2452.00,1.9773
2451.00,2.0139
2450.00,2.0491
2449.00,2.0826
2448.00,2.1146
2447.00,2.1454
2446.00,2.1750
2445.00,2.2039
2444.00,2.2317
2443.00,2.2581
2442.00,2.2826
2441.00,2.3056
2440.00,2.3276
2439.00,2.3491
2438.00,2.3700
2437.00,2.3901
2436.00,2.4094
2435.00,2.4279
2434.00,2.4456
2433.00,2.4620
2432.00,2.4767
2431.00,2.4902
2430.00,2.5036
2429.00,2.5171
2428.00,2.5302
2427.00,2.5421
2426.00,2.5522
2425.00,2.5609
2424.00,2.5684
2423.00,2.5755
2422.00,2.5827
2421.00,2.5899
2420.00,2.5967
2419.00,2.6033
2418.00,2.6102
2417.00,2.6172
2416.00,2.6228
2415.00,2.6263
2414.00,2.6280
2413.00,2.6293
2412.00,2.6310
2411.00,2.6328
2410.00,2.6345
2409.00,2.6354
2408.00,2.6353
2407.00,2.6345
2406.00,2.6339
2405.00,2.6336
2404.00,2.6327
2403.00,2.6303
2402.00,2.6264
2401.00,2.6224
2400.00,2.6185
2399.00,2.6140
2398.00,2.6087
2397.00,2.6027
2396.00,2.5965
2395.00,2.5904
2394.00,2.5840
2393.00,2.5766
2392.00,2.5679
2391.00,2.5582
2390.00,2.5484
2389.00,2.5392
2388.00,2.5281
2387.00,2.5196
2386.00,2.5017
2385.00,2.4969
2384.00,2.4665
2383.00,2.4816
2382.00,2.3923
2381.00,2.1975
2380.00,2.1626
2379.00,2.1048
2378.00,2.0644
2377.00,2.0266
2376.00,1.9994
2375.00,1.9769
2374.00,1.9580
2373.00,1.9392
2372.00,1.9182
2371.00,1.8948
2370.00,1.8702
2369.00,1.8450
2368.00,1.8200
2367.00,1.7967
2366.00,1.7759
2365.00,1.7558
2364.00,1.7364
2363.00,1.7190
2362.00,1.7015
2361.00,1.6829
2360.00,1.6634
2359.00,1.6444
2358.00,1.6304
2357.00,1.6201
2356.00,1.6132
2355.00,1.6090
2354.00,1.6030
2353.00,1.5903
2352.00,1.5698
2351.00,1.5577
2350.00,1.5600
2349.00,1.5639
2348.00,1.5555
2347.00,1.5359
2346.00,1.5261
2345.00,1.5335
2344.00,1.5507
2343.00,1.5635
2342.00,1.5644
2341.00,1.5637
2340.00,1.5659
2339.00,1.5733
2338.00,1.5817
2337.00,1.5884
2336.00,1.5931
2335.00,1.5975
2334.00,1.6017
2333.00,1.6058
2332.00,1.6094
2331.00,1.6183
2330.00,1.6346
2329.00,1.6579
2328.00,1.6888
2327.00,1.7188
2326.00,1.7468
2325.00,1.7668
2324.00,1.7855
2323.00,1.8075
2322.00,1.8343
2321.00,1.8644
2320.00,1.8935
2319.00,1.9238
2318.00,1.9553
2317.00,1.9879
2316.00,2.0176
2315.00,2.0421
2314.00,2.0628
2313.00,2.0822
2312.00,2.1041
2311.00,2.1283
2310.00,2.1556
2309.00,2.1835
2308.00,2.2129
2307.00,2.2421
2306.00,2.2728
2305.00,2.3040
2304.00,2.3364
2303.00,2.3684
2302.00,2.4005
2301.00,2.4321
2300.00,2.4630
2299.00,2.4913
2298.00,2.5168
2297.00,2.5395
2296.00,2.5615
2295.00,2.5820
2294.00,2.6008
2293.00,2.6161
2292.00,2.6293
2291.00,2.6411
2290.00,2.6531
2289.00,2.6649
2288.00,2.6758
2287.00,2.6842
2286.00,2.6892
2285.00,2.6920
2284.00,2.6954
2283.00,2.7012
2282.00,2.7079
2281.00,2.7135
2280.00,2.7170
2279.00,2.7199
2278.00,2.7225
2277.00,2.7243
2276.00,2.7242
2275.00,2.7231
2274.00,2.7224
2273.00,2.7216
2272.00,2.7190
2271.00,2.7133
2270.00,2.7053
2269.00,2.6965
2268.00,2.6876
2267.00,2.6785
2266.00,2.6692
2265.00,2.6596
2264.00,2.6492
2263.00,2.6373
2262.00,2.6236
2261.00,2.6089
2260.00,2.5944
2259.00,2.5803
2258.00,2.5655
2257.00,2.5490
2256.00,2.5309
2255.00,2.5126
2254.00,2.4955
2253.00,2.4795
2252.00,2.4627
2251.00,2.4431
2250.00,2.4204
2249.00,2.3957
2248.00,2.3702
2247.00,2.3441
2246.00,2.3169
2245.00,2.2883
2244.00,2.2579
2243.00,2.2258
2242.00,2.1918
2241.00,2.1558
2240.00,2.1178
2239.00,2.0779
2238.00,2.0359
2237.00,1.9921
2236.00,1.9464
2235.00,1.8989
2234.00,1.8497
2233.00,1.7992
2232.00,1.7482
2231.00,1.6972
2230.00,1.6473
2229.00,1.5996
2228.00,1.5551
2227.00,1.5147
2226.00,1.4793
2225.00,1.4495
2224.00,1.4259
2223.00,1.4092
2222.00,1.3999
2221.00,1.3983
2220.00,1.4043
2219.00,1.4175
2218.00,1.4375
2217.00,1.4633
2216.00,1.4945
2215.00,1.5300
2214.00,1.5689
2213.00,1.6104
2212.00,1.6538
2211.00,1.6986
2210.00,1.7443
2209.00,1.7904
2208.00,1.8366
2207.00,1.8828
2206.00,1.9286
2205.00,1.9736
2204.00,2.0177
2203.00,2.0605
2202.00,2.1022
2201.00,2.1429
2200.00,2.1825
2199.00,2.2205
2198.00,2.2566
2197.00,2.2905
2196.00,2.3224
2195.00,2.3528
2194.00,2.3820
2193.00,2.4107
2192.00,2.4387
2191.00,2.4654
2190.00,2.4900
2189.00,2.5122
2188.00,2.5320
2187.00,2.5499
2186.00,2.5664
2185.00,2.5827
2184.00,2.6001
2183.00,2.6188
2182.00,2.6376
2181.00,2.6551
2180.00,2.6708
2179.00,2.6853
2178.00,2.6988
2177.00,2.7111
2176.00,2.7215
2175.00,2.7304
2174.00,2.7384
2173.00,2.7458
2172.00,2.7522
2171.00,2.7573
2170.00,2.7621
2169.00,2.7684
2168.00,2.7763
2167.00,2.7846
2166.00,2.7914
2165.00,2.7961
2164.00,2.7992
2163.00,2.8014
2162.00,2.8037
2161.00,2.8069
2160.00,2.8110
2159.00,2.8153
2158.00,2.8187
2157.00,2.8204
2156.00,2.8205
2155.00,2.8193
2154.00,2.8173
2153.00,2.8155
2152.00,2.8147
2151.00,2.8148
2150.00,2.8142
2149.00,2.8109
2148.00,2.8043
2147.00,2.7961
2146.00,2.7883
2145.00,2.7815
2144.00,2.7750
2143.00,2.7679
2142.00,2.7606
2141.00,2.7536
2140.00,2.7471
2139.00,2.7404
2138.00,2.7326
2137.00,2.7231
2136.00,2.7117
2135.00,2.6986
2134.00,2.6845
2133.00,2.6702
2132.00,2.6560
2131.00,2.6413
2130.00,2.6255
2129.00,2.6082
2128.00,2.5893
2127.00,2.5691
2126.00,2.5480
2125.00,2.5269
2124.00,2.5055
2123.00,2.4829
2122.00,2.4577
2121.00,2.4297
2120.00,2.3999
2119.00,2.3692
2118.00,2.3379
2117.00,2.3055
2116.00,2.2711
2115.00,2.2347
2114.00,2.1959
2113.00,2.1547
2112.00,2.1110
2111.00,2.0648
2110.00,2.0165
2109.00,1.9665
2108.00,1.9153
2107.00,1.8635
2106.00,1.8117
2105.00,1.7609
2104.00,1.7119
2103.00,1.6658
2102.00,1.6237
2101.00,1.5866
2100.00,1.5553
2099.00,1.5304
2098.00,1.5124
2097.00,1.5015
2096.00,1.4977
2095.00,1.5009
2094.00,1.5109
2093.00,1.5277
2092.00,1.5504
2091.00,1.5782
2090.00,1.6104
2089.00,1.6464
2088.00,1.6857
2087.00,1.7276
2086.00,1.7716
2085.00,1.8174
2084.00,1.8644
2083.00,1.9119
2082.00,1.9595
2081.00,2.0070
2080.00,2.0542
2079.00,2.1008
2078.00,2.1466
2077.00,2.1914
2076.00,2.2349
2075.00,2.2768
2074.00,2.3170
2073.00,2.3555
2072.00,2.3920
2071.00,2.4262
2070.00,2.4581
2069.00,2.4880
2068.00,2.5159
2067.00,2.5414
2066.00,2.5646
2065.00,2.5867
2064.00,2.6085
2063.00,2.6293
2062.00,2.6485
2061.00,2.6661
2060.00,2.6828
2059.00,2.6985
2058.00,2.7126
2057.00,2.7251
2056.00,2.7370
2055.00,2.7491
2054.00,2.7612
2053.00,2.7729
2052.00,2.7847
2051.00,2.7968
2050.00,2.8090
2049.00,2.8201
2048.00,2.8295
2047.00,2.8372
2046.00,2.8450
2045.00,2.8546
2044.00,2.8661
2043.00,2.8776
2042.00,2.8867
2041.00,2.8929
2040.00,2.8977
2039.00,2.9022
2038.00,2.9067
2037.00,2.9112
2036.00,2.9157
2035.00,2.9195
2034.00,2.9212
2033.00,2.9203
2032.00,2.9181
2031.00,2.9153
2030.00,2.9112
2029.00,2.9054
2028.00,2.9000
2027.00,2.8974
2026.00,2.8971
2025.00,2.8959
2024.00,2.8920
2023.00,2.8864
2022.00,2.8813
2021.00,2.8772
2020.00,2.8728
2019.00,2.8674
2018.00,2.8604
2017.00,2.8517
2016.00,2.8418
2015.00,2.8320
2014.00,2.8227
2013.00,2.8131
2012.00,2.8027
2011.00,2.7916
2010.00,2.7802
2009.00,2.7681
2008.00,2.7541
2007.00,2.7379
2006.00,2.7203
2005.00,2.7017
2004.00,2.6822
2003.00,2.6616
2002.00,2.6402
2001.00,2.6179
2000.00,2.5944
1999.00,2.5691
1998.00,2.5417
1997.00,2.5127
1996.00,2.4836
1995.00,2.4547
1994.00,2.4244
1993.00,2.3903
1992.00,2.3516
1991.00,2.3100
1990.00,2.2672
1989.00,2.2232
1988.00,2.1773
1987.00,2.1292
1986.00,2.0796
1985.00,2.0291
1984.00,1.9776
1983.00,1.9260
1982.00,1.8756
1981.00,1.8275
1980.00,1.7827
1979.00,1.7418
1978.00,1.7052
1977.00,1.6732
1976.00,1.6463
1975.00,1.6248
1974.00,1.6094
1973.00,1.6005
1972.00,1.5988
1971.00,1.6050
1970.00,1.6193
1969.00,1.6413
1968.00,1.6696
1967.00,1.7031
1966.00,1.7411
1965.00,1.7833
1964.00,1.8289
1963.00,1.8769
1962.00,1.9265
1961.00,1.9771
1960.00,2.0280
1959.00,2.0789
1958.00,2.1292
1957.00,2.1785
1956.00,2.2263
1955.00,2.2723
1954.00,2.3166
1953.00,2.3592
1952.00,2.3994
1951.00,2.4365
1950.00,2.4708
1949.00,2.5026
1948.00,2.5325
1947.00,2.5618
1946.00,2.5918
1945.00,2.6224
1944.00,2.6514
1943.00,2.6760
1942.00,2.6960
1941.00,2.7145
1940.00,2.7343
1939.00,2.7555
1938.00,2.7761
1937.00,2.7946
1936.00,2.8114
1935.00,2.8275
1934.00,2.8432
1933.00,2.8572
1932.00,2.8684
1931.00,2.8779
1930.00,2.8879
1929.00,2.9003
1928.00,2.9146
1927.00,2.9293
1926.00,2.9421
1925.00,2.9505
1924.00,2.9537
1923.00,2.9551
1922.00,2.9608
1921.00,2.9733
1920.00,2.9884
1919.00,2.9990
1918.00,3.0019
1917.00,2.9996
1916.00,2.9960
1915.00,2.9934
1914.00,2.9932
1913.00,2.9954
1912.00,2.9988
1911.00,3.0011
1910.00,3.0012
1909.00,3.0000
1908.00,2.9982
1907.00,2.9956
1906.00,2.9928
1905.00,2.9910
1904.00,2.9904
1903.00,2.9901
1902.00,2.9887
1901.00,2.9860
1900.00,2.9820
1899.00,2.9762
1898.00,2.9687
1897.00,2.9594
1896.00,2.9471
1895.00,2.9309
1894.00,2.9127
1893.00,2.8966
1892.00,2.8843
1891.00,2.8728
1890.00,2.8571
1889.00,2.8351
1888.00,2.8096
1887.00,2.7849
1886.00,2.7630
1885.00,2.7437
1884.00,2.7256
1883.00,2.7070
1882.00,2.6856
1881.00,2.6602
1880.00,2.6312
1879.00,2.6000
1878.00,2.5681
1877.00,2.5360
1876.00,2.5024
1875.00,2.4652
1874.00,2.4250
1873.00,2.3846
1872.00,2.3455
1871.00,2.3050
1870.00,2.2592
1869.00,2.2072
1868.00,2.1506
1867.00,2.0923
1866.00,2.0343
1865.00,1.9763
1864.00,1.9184
1863.00,1.8617
1862.00,1.8081
1861.00,1.7604
1860.00,1.7215
1859.00,1.6935
1858.00,1.6773
1857.00,1.6739
1856.00,1.6833
1855.00,1.7049
1854.00,1.7367
1853.00,1.7774
1852.00,1.8262
1851.00,1.8804
1850.00,1.9363
1849.00,1.9934
1848.00,2.0547
1847.00,2.1227
1846.00,2.1940
1845.00,2.2610
1844.00,2.3200
1843.00,2.3737
1842.00,2.4253
1841.00,2.4753
1840.00,2.5219
1839.00,2.5644
1838.00,2.6043
1837.00,2.6426
1836.00,2.6787
1835.00,2.7117
1834.00,2.7427
1833.00,2.7739
1832.00,2.8057
1831.00,2.8356
1830.00,2.8613
1829.00,2.8840
1828.00,2.9075
1827.00,2.9316
1826.00,2.9526
1825.00,2.9702
1824.00,2.9883
1823.00,3.0094
1822.00,3.0306
1821.00,3.0476
1820.00,3.0579
1819.00,3.0630
1818.00,3.0666
1817.00,3.0713
1816.00,3.0782
1815.00,3.0860
1814.00,3.0937
1813.00,3.1012
1812.00,3.1078
1811.00,3.1123
1810.00,3.1151
1809.00,3.1174
1808.00,3.1200
1807.00,3.1228
1806.00,3.1261
1805.00,3.1298
1804.00,3.1322
1803.00,3.1309
1802.00,3.1242
1801.00,3.1130
1800.00,3.0988
1799.00,3.0834
1798.00,3.0688
1797.00,3.0575
1796.00,3.0514
1795.00,3.0495
1794.00,3.0459
1793.00,3.0331
1792.00,3.0068
1791.00,2.9709
1790.00,2.9349
1789.00,2.9062
1788.00,2.8843
1787.00,2.8610
1786.00,2.8271
1785.00,2.7798
1784.00,2.7262
1783.00,2.6746
1782.00,2.6263
1781.00,2.5788
1780.00,2.5312
1779.00,2.4864
1778.00,2.4461
1777.00,2.4114
1776.00,2.3879
1775.00,2.3835
1774.00,2.4017
1773.00,2.4407
1772.00,2.4950
1771.00,2.5577
1770.00,2.6224
1769.00,2.6818
1768.00,2.7299
1767.00,2.7673
1766.00,2.8006
1765.00,2.8371
1764.00,2.8785
1763.00,2.9194
1762.00,2.9569
1761.00,2.9953
1760.00,3.0421
1759.00,3.0976
1758.00,3.1545
1757.00,3.2056
1756.00,3.2507
1755.00,3.2942
1754.00,3.3406
1753.00,3.3912
1752.00,3.4391
1751.00,3.4749
1750.00,3.4999
1749.00,3.5287
1748.00,3.5728
1747.00,3.6248
1746.00,3.6693
1745.00,3.7096
1744.00,3.7665
1743.00,3.8536
1742.00,3.9616
1741.00,4.0570
1740.00,4.1044
1739.00,4.0991
1738.00,4.0670
1737.00,4.0412
1736.00,4.0348
1735.00,4.0421
1734.00,4.0638
1733.00,4.1087
1732.00,4.1835
1731.00,4.2984
1730.00,4.4365
1729.00,4.5398
1728.00,4.6063
1727.00,4.6639
1726.00,4.6748
1725.00,4.6125
1724.00,4.5103
1723.00,4.4361
1722.00,4.4517
1721.00,4.5922
1720.00,4.7677
1719.00,4.8318
1718.00,5.0881
1717.00,5.2044
1716.00,4.6875
1715.00,4.4162
1714.00,4.2888
1713.00,4.2400
1712.00,4.2630
1711.00,4.3522
1710.00,4.4466
1709.00,4.4667
1708.00,4.4494
1707.00,4.4300
1706.00,4.4151
1705.00,4.4428
1704.00,4.5533
1703.00,4.6522
1702.00,4.6180
1701.00,4.5133
1700.00,4.4071
1699.00,4.3910
1698.00,4.5314
1697.00,4.7110
1696.00,4.5871
1695.00,4.3683
1694.00,4.2221
1693.00,4.1335
1692.00,4.0762
1691.00,4.0164
1690.00,3.9179
1689.00,3.7804
1688.00,3.6470
1687.00,3.5495
1686.00,3.4935
1685.00,3.4716
1684.00,3.4638
1683.00,3.4569
1682.00,3.4512
1681.00,3.4467
1680.00,3.4459
1679.00,3.4514
1678.00,3.4611
1677.00,3.4657
1676.00,3.4554
1675.00,3.4337
1674.00,3.4151
1673.00,3.4069
1672.00,3.4050
1671.00,3.4019
1670.00,3.3901
1669.00,3.3657
1668.00,3.3334
1667.00,3.3007
1666.00,3.2726
1665.00,3.2489
1664.00,3.2253
1663.00,3.1967
1662.00,3.1609
1661.00,3.1211
1660.00,3.0792
1659.00,3.0328
1658.00,2.9785
1657.00,2.9217
1656.00,2.8729
1655.00,2.8389
1654.00,2.8118
1653.00,2.7629
1652.00,2.7046
1651.00,2.6648
1650.00,2.6404
1649.00,2.6273
1648.00,2.6283
1647.00,2.6350
1646.00,2.6352
1645.00,2.6309
1644.00,2.6318
1643.00,2.6332
1642.00,2.6406
1641.00,2.6335
1640.00,2.6585
1639.00,2.6909
1638.00,2.6977
1637.00,2.7194
1636.00,2.7393
1635.00,2.7635
1634.00,2.7835
1633.00,2.7973
1632.00,2.8121
1631.00,2.8146
1630.00,2.8206
1629.00,2.8413
1628.00,2.8589
1627.00,2.8795
1626.00,2.9006
1625.00,2.9257
1624.00,2.9516
1623.00,2.9736
1622.00,2.9889
1621.00,2.9997
1620.00,3.0097
1619.00,3.0232
1618.00,3.0449
1617.00,3.0736
1616.00,3.1023
1615.00,3.1278
1614.00,3.1517
1613.00,3.1749
1612.00,3.1947
1611.00,3.2063
1610.00,3.2113
1609.00,3.2174
1608.00,3.2277
1607.00,3.2376
1606.00,3.2432
1605.00,3.2472
1604.00,3.2531
1603.00,3.2583
1602.00,3.2604
1601.00,3.2617
1600.00,3.2648
1599.00,3.2669
1598.00,3.2647
1597.00,3.2586
1596.00,3.2498
1595.00,3.2384
1594.00,3.2277
1593.00,3.2237
1592.00,3.2255
1591.00,3.2240
1590.00,3.2139
1589.00,3.2014
1588.00,3.1925
1587.00,3.1851
1586.00,3.1749
1585.00,3.1636
1584.00,3.1553
1583.00,3.1461
1582.00,3.1271
1581.00,3.0948
1580.00,3.0547
1579.00,3.0152
1578.00,2.9871
1577.00,2.9748
1576.00,2.9669
1575.00,2.9493
1574.00,2.9216
1573.00,2.8920
1572.00,2.8652
1571.00,2.8374
1570.00,2.8015
1569.00,2.7550
1568.00,2.7054
1567.00,2.6580
1566.00,2.6078
1565.00,2.5465
1564.00,2.4762
1563.00,2.4071
1562.00,2.3530
1561.00,2.2987
1560.00,2.2436
1559.00,2.1829
1558.00,2.1059
1557.00,2.0412
1556.00,1.9995
1555.00,1.9689
1554.00,1.9427
1553.00,1.9265
1552.00,1.9257
1551.00,1.9368
1550.00,1.9554
1549.00,1.9820
1548.00,2.0200
1547.00,2.0660
1546.00,2.1109
1545.00,2.1506
1544.00,2.1865
1543.00,2.2214
1542.00,2.2671
1541.00,2.3420
1540.00,2.4335
1539.00,2.5131
1538.00,2.5801
1537.00,2.6385
1536.00,2.6918
1535.00,2.7433
1534.00,2.7929
1533.00,2.8365
1532.00,2.8713
1531.00,2.9012
1530.00,2.9305
1529.00,2.9600
1528.00,2.9879
1527.00,3.0110
1526.00,3.0265
1525.00,3.0375
1524.00,3.0531
1523.00,3.0833
1522.00,3.1249
1521.00,3.1626
1520.00,3.1918
1519.00,3.2180
1518.00,3.2446
1517.00,3.2673
1516.00,3.2807
1515.00,3.2895
1514.00,3.2990
1513.00,3.3073
1512.00,3.3127
1511.00,3.3159
1510.00,3.3149
1509.00,3.3059
1508.00,3.3064
1507.00,3.3204
1506.00,3.3281
1505.00,3.3345
1504.00,3.3434
1503.00,3.3520
1502.00,3.3609
1501.00,3.3663
1500.00,3.3643
1499.00,3.3575
1498.00,3.3555
1497.00,3.3598
1496.00,3.3614
1495.00,3.3561
1494.00,3.3494
1493.00,3.3477
1492.00,3.3501
1491.00,3.3518
1490.00,3.3491
1489.00,3.3404
1488.00,3.3280
1487.00,3.3146
1486.00,3.2983
1485.00,3.2760
1484.00,3.2503
1483.00,3.2248
1482.00,3.1995
1481.00,3.1729
1480.00,3.1478
1479.00,3.1267
1478.00,3.1045
1477.00,3.0736
1476.00,3.0345
1475.00,2.9961
1474.00,2.9644
1473.00,2.9353
1472.00,2.9024
1471.00,2.8715
1470.00,2.8548
1469.00,2.8588
1468.00,2.8848
1467.00,2.9328
1466.00,2.9980
1465.00,3.0678
1464.00,3.1246
1463.00,3.1586
1462.00,3.1741
1461.00,3.1828
1460.00,3.1976
1459.00,3.2331
1458.00,3.2957
1457.00,3.3755
1456.00,3.4709
1455.00,3.5888
1454.00,3.7232
1453.00,3.8669
1452.00,4.0051
1451.00,4.1065
1450.00,4.1445
1449.00,4.1380
1448.00,4.0993
1447.00,4.0042
1446.00,3.8766
1445.00,3.7540
1444.00,3.6413
1443.00,3.5366
1442.00,3.4425
1441.00,3.3671
1440.00,3.3203
1439.00,3.3062
1438.00,3.3174
1437.00,3.3421
1436.00,3.3776
1435.00,3.4277
1434.00,3.4917
1433.00,3.5614
1432.00,3.6245
1431.00,3.6706
1430.00,3.6962
1429.00,3.7028
1428.00,3.6961
1427.00,3.6872
1426.00,3.6868
1425.00,3.6975
1424.00,3.7131
1423.00,3.7282
1422.00,3.7404
1421.00,3.7390
1420.00,3.7101
1419.00,3.6566
1418.00,3.5944
1417.00,3.5291
1416.00,3.4543
1415.00,3.3700
1414.00,3.2874
1413.00,3.2153
1412.00,3.1545
1411.00,3.1018
1410.00,3.0577
1409.00,3.0246
1408.00,3.0028
1407.00,2.9903
1406.00,2.9853
1405.00,2.9874
1404.00,2.9984
1403.00,3.0207
1402.00,3.0520
1401.00,3.0835
1400.00,3.1067
1399.00,3.1226
1398.00,3.1409
1397.00,3.1685
1396.00,3.2019
1395.00,3.2308
1394.00,3.2506
1393.00,3.2678
1392.00,3.2880
1391.00,3.3086
1390.00,3.3261
1389.00,3.3411
1388.00,3.3567
1387.00,3.3731
1386.00,3.3878
1385.00,3.4008
1384.00,3.4159
1383.00,3.4364
1382.00,3.4605
1381.00,3.4815
1380.00,3.4921
1379.00,3.4927
1378.00,3.4935
1377.00,3.5064
1376.00,3.5351
1375.00,3.5711
1374.00,3.5987
1373.00,3.6067
1372.00,3.5960
1371.00,3.5747
1370.00,3.5529
1369.00,3.5395
1368.00,3.5399
1367.00,3.5525
1366.00,3.5677
1365.00,3.5743
1364.00,3.5697
1363.00,3.5589
1362.00,3.5485
1361.00,3.5442
1360.00,3.5471
1359.00,3.5525
1358.00,3.5556
1357.00,3.5550
1356.00,3.5492
1355.00,3.5347
1354.00,3.5163
1353.00,3.5109
1352.00,3.5359
1351.00,3.5962
1350.00,3.6769
1349.00,3.7510
1348.00,3.7997
1347.00,3.8197
1346.00,3.8108
1345.00,3.7768
1344.00,3.7364
1343.00,3.7134
1342.00,3.7216
1341.00,3.7623
1340.00,3.8242
1339.00,3.8795
1338.00,3.8943
1337.00,3.8606
1336.00,3.8053
1335.00,3.7504
1334.00,3.6912
1333.00,3.6202
1332.00,3.5473
1331.00,3.4889
1330.00,3.4498
1329.00,3.4221
1328.00,3.3946
1327.00,3.3626
1326.00,3.3301
1325.00,3.3060
1324.00,3.2989
1323.00,3.3134
1322.00,3.3499
1321.00,3.4053
1320.00,3.4745
1319.00,3.5515
1318.00,3.6289
1317.00,3.7037
1316.00,3.7843
1315.00,3.8840
1314.00,4.0094
1313.00,4.1464
1312.00,4.2434
1311.00,4.2570
1310.00,4.2189
1309.00,4.1766
1308.00,4.1327
1307.00,4.0452
1306.00,3.9172
1305.00,3.7934
1304.00,3.6876
1303.00,3.5970
1302.00,3.5212
1301.00,3.4602
1300.00,3.4081
1299.00,3.3520
1298.00,3.2828
1297.00,3.2062
1296.00,3.1355
1295.00,3.0778
1294.00,3.0310
1293.00,2.9895
1292.00,2.9508
1291.00,2.9173
1290.00,2.8930
1289.00,2.8806
1288.00,2.8812
1287.00,2.8944
1286.00,2.9177
1285.00,2.9468
1284.00,2.9778
1283.00,3.0104
1282.00,3.0468
1281.00,3.0883
1280.00,3.1344
1279.00,3.1818
1278.00,3.2259
1277.00,3.2630
1276.00,3.2939
1275.00,3.3238
1274.00,3.3574
1273.00,3.3935
1272.00,3.4290
1271.00,3.4655
1270.00,3.5081
1269.00,3.5574
1268.00,3.6062
1267.00,3.6463
1266.00,3.6765
1265.00,3.6988
1264.00,3.7137
1263.00,3.7174
1262.00,3.7075
1261.00,3.6896
1260.00,3.6738
1259.00,3.6712
1258.00,3.6928
1257.00,3.7421
1256.00,3.8058
1255.00,3.8531
1254.00,3.8632
1253.00,3.8443
1252.00,3.8162
1251.00,3.7988
1250.00,3.8021
1249.00,3.8246
1248.00,3.8599
1247.00,3.8965
1246.00,3.9317
1245.00,3.9833
1244.00,4.0456
1243.00,4.0585
1242.00,4.0120
1241.00,3.9515
1240.00,3.8940
1239.00,3.8651
1238.00,3.8874
1237.00,3.9527
1236.00,4.0363
1235.00,4.1163
1234.00,4.1777
1233.00,4.2198
1232.00,4.2456
1231.00,4.2646
1230.00,4.2889
1229.00,4.3360
1228.00,4.4306
1227.00,4.5604
1226.00,4.6742
1225.00,4.8803
1224.00,4.7592
1223.00,4.3657
1222.00,4.2466
1221.00,4.3603
1220.00,4.8544
1219.00,4.7267
1218.00,4.4171
1217.00,4.3541
1216.00,4.3495
1215.00,4.3561
1214.00,4.3246
1213.00,4.2232
1212.00,4.0855
1211.00,3.9679
1210.00,3.9002
1209.00,3.8778
1208.00,3.8775
1207.00,3.8717
1206.00,3.8500
1205.00,3.8236
1204.00,3.8034
1203.00,3.7930
1202.00,3.7864
1201.00,3.7737
1200.00,3.7595
1199.00,3.7703
1198.00,3.8309
1197.00,3.9291
1196.00,3.9885
1195.00,3.9378
1194.00,3.8378
1193.00,3.7697
1192.00,3.7467
1191.00,3.7426
1190.00,3.7284
1189.00,3.6989
1188.00,3.6624
1187.00,3.6242
1186.00,3.5904
1185.00,3.5685
1184.00,3.5605
1183.00,3.5597
1182.00,3.5566
1181.00,3.5518
1180.00,3.5533
1179.00,3.5629
1178.00,3.5692
1177.00,3.5591
1176.00,3.5357
1175.00,3.5139
1174.00,3.5005
1173.00,3.4887
1172.00,3.4684
1171.00,3.4377
1170.00,3.4054
1169.00,3.3828
1168.00,3.3760
1167.00,3.3826
1166.00,3.3911
1165.00,3.3902
1164.00,3.3811
1163.00,3.3703
1162.00,3.3574
1161.00,3.3393
1160.00,3.3214
1159.00,3.3118
1158.00,3.3094
1157.00,3.3059
1156.00,3.2984
1155.00,3.2947
1154.00,3.3029
1153.00,3.3204
1152.00,3.3377
1151.00,3.3509
1150.00,3.3652
1149.00,3.3869
1148.00,3.4154
1147.00,3.4469
1146.00,3.4779
1145.00,3.5083
1144.00,3.5439
1143.00,3.5925
1142.00,3.6469
1141.00,3.6841
1140.00,3.6934
1139.00,3.6992
1138.00,3.7488
1137.00,3.8850
1136.00,4.1222
1135.00,4.3843
1134.00,4.4911
1133.00,4.3827
1132.00,4.2610
1131.00,4.1982
1130.00,4.1390
1129.00,4.0807
1128.00,4.0611
1127.00,4.0772
1126.00,4.1189
1125.00,4.1738
1124.00,4.1897
1123.00,4.1591
1122.00,4.1208
1121.00,4.0962
1120.00,4.0985
1119.00,4.1316
1118.00,4.1955
1117.00,4.3229
1116.00,4.5993
1115.00,4.5313
1114.00,4.2938
1113.00,4.2084
1112.00,4.0925
1111.00,3.9863
1110.00,3.9706
1109.00,4.0353
1108.00,4.1294
1107.00,4.1913
1106.00,4.1900
1105.00,4.1679
1104.00,4.1955
1103.00,4.2696
1102.00,4.3132
1101.00,4.2586
1100.00,4.1479
1099.00,4.0794
1098.00,4.1134
1097.00,4.2642
1096.00,4.4255
1095.00,4.3814
1094.00,4.2711
1093.00,4.2514
1092.00,4.3466
1091.00,4.4478
1090.00,4.3542
1089.00,4.1670
1088.00,4.0330
1087.00,3.9824
1086.00,4.0150
1085.00,4.1246
1084.00,4.2647
1083.00,4.3122
1082.00,4.2484
1081.00,4.1370
1080.00,4.0696
1079.00,4.1011
1078.00,4.1919
1077.00,4.1937
1076.00,4.0666
1075.00,3.9350
1074.00,3.8841
1073.00,3.9118
1072.00,3.9510
1071.00,3.9555
1070.00,3.9336
1069.00,3.8810
1068.00,3.8450
1067.00,3.8739
1066.00,3.9521
1065.00,3.9944
1064.00,3.9337
1063.00,3.8326
1062.00,3.7701
1061.00,3.7567
1060.00,3.7677
1059.00,3.7837
1058.00,3.8036
1057.00,3.8239
1056.00,3.8184
1055.00,3.7831
1054.00,3.7773
1053.00,3.8295
1052.00,3.8907
1051.00,3.8909
1050.00,3.8422
1049.00,3.7799
1048.00,3.7189
1047.00,3.6740
1046.00,3.6593
1045.00,3.6766
1044.00,3.7083
1043.00,3.7328
1042.00,3.7475
1041.00,3.7523
1040.00,3.7333
1039.00,3.6921
1038.00,3.6537
1037.00,3.6247
1036.00,3.5924
1035.00,3.5523
1034.00,3.5145
1033.00,3.4819
1032.00,3.4437
1031.00,3.3973
1030.00,3.3598
1029.00,3.3506
1028.00,3.3766
1027.00,3.4277
1026.00,3.4831
1025.00,3.5333
1024.00,3.5897
1023.00,3.6702
1022.00,3.7784
1021.00,3.8908
1020.00,3.9697
1019.00,4.0037
1018.00,4.0035
1017.00,3.9700
1016.00,3.9183
1015.00,3.8821
1014.00,3.8734
1013.00,3.8720
1012.00,3.8547
1011.00,3.8266
1010.00,3.8052
1009.00,3.7896
1008.00,3.7764
1007.00,3.7870
1006.00,3.8449
1005.00,3.9416
1004.00,4.0337
1003.00,4.0854
1002.00,4.1075
1001.00,4.1263
1000.00,4.1727
999.00,4.3050
998.00,4.6441
997.00,5.1262
996.00,4.7648
995.00,5.1379
994.00,4.7836
993.00,4.4938
992.00,4.5616
991.00,5.0830
990.00,4.6761
989.00,4.4859
988.00,4.5676
987.00,4.7516
986.00,4.9412
985.00,5.4516
984.00,4.8268
983.00,4.6065
982.00,4.6072
981.00,4.8793
980.00,5.2242
979.00,4.6774
978.00,4.5848
977.00,4.7003
976.00,5.0931
975.00,5.1287
974.00,4.5496
973.00,4.4361
972.00,4.5109
971.00,4.5513
970.00,4.4308
969.00,4.5328
968.00,4.8603
967.00,4.3472
966.00,4.1989
965.00,4.2910
964.00,4.9338
963.00,4.3599
962.00,4.0446
961.00,3.9065
960.00,3.8352
959.00,3.8023
958.00,3.8009
957.00,3.8360
956.00,3.9053
955.00,3.9960
954.00,4.0949
953.00,4.1462
952.00,4.0650
951.00,3.9521
950.00,3.8754
949.00,3.8289
948.00,3.8142
947.00,3.8455
946.00,3.9158
945.00,3.9812
944.00,4.0293
943.00,4.1079
942.00,4.2489
941.00,4.4447
940.00,4.5274
939.00,4.4151
938.00,4.3366
937.00,4.3591
936.00,4.4882
935.00,4.6529
934.00,4.7957
933.00,4.6696
932.00,4.4161
931.00,4.2748
930.00,4.1623
929.00,4.0453
928.00,3.9659
927.00,3.9494
926.00,3.9917
925.00,4.0620
924.00,4.0670
923.00,3.9723
922.00,3.8898
921.00,3.8680
920.00,3.8939
919.00,3.9287
918.00,3.9473
917.00,3.9805
916.00,4.0378
915.00,4.0536
914.00,3.9919
913.00,3.9039
912.00,3.8260
911.00,3.7716
910.00,3.7629
909.00,3.8005
908.00,3.8534
907.00,3.8976
906.00,3.9121
905.00,3.8739
904.00,3.8209
903.00,3.8168
902.00,3.8803
901.00,3.9581
900.00,3.9481
899.00,3.8678
898.00,3.8224
897.00,3.8561
896.00,3.9646
895.00,4.1097
894.00,4.1948
893.00,4.1226
892.00,3.9715
891.00,3.8523
890.00,3.7943
889.00,3.7848
888.00,3.7931
887.00,3.7950
886.00,3.7880
885.00,3.7731
884.00,3.7558
883.00,3.7626
882.00,3.8253
881.00,3.9530
880.00,4.1062
879.00,4.1535
878.00,4.1107
877.00,4.1591
876.00,4.2979
875.00,4.4194
874.00,4.4491
873.00,4.2864
872.00,4.1947
871.00,4.2679
870.00,4.5334
869.00,4.6325
868.00,4.2644
867.00,4.0323
866.00,3.8951
865.00,3.8427
864.00,3.8601
863.00,3.9089
862.00,3.9626
861.00,4.0308
860.00,4.1585
859.00,4.4163
858.00,4.4512
857.00,4.1424
856.00,4.0353
855.00,4.1166
854.00,4.2390
853.00,4.1123
852.00,3.9969
851.00,3.9517
850.00,3.9055
849.00,3.8529
848.00,3.8179
847.00,3.8340
846.00,3.9288
845.00,4.1112
844.00,4.3016
843.00,4.4302
842.00,4.5409
841.00,4.4558
840.00,4.3579
839.00,4.3506
838.00,4.3593
837.00,4.2893
836.00,4.1550
835.00,4.0475
834.00,3.9947
833.00,3.9766
832.00,3.9637
831.00,3.9579
830.00,3.9840
829.00,4.0928
828.00,4.2956
827.00,4.2844
826.00,4.1379
825.00,4.0960
824.00,4.1320
823.00,4.1948
822.00,4.1978
821.00,4.1997
820.00,4.3037
819.00,4.4827
818.00,4.5870
817.00,4.3980
816.00,4.1267
815.00,3.9592
814.00,3.9713
813.00,4.1128
812.00,4.0165
811.00,3.8861
810.00,3.8994
809.00,3.9891
808.00,4.0746
807.00,4.1093
806.00,4.1079
805.00,4.1053
804.00,4.1350
803.00,4.1903
802.00,4.2001
801.00,4.1213
800.00,4.0220
799.00,3.9549
798.00,3.9073
797.00,3.8588
796.00,3.8104
795.00,3.7806
794.00,3.7962
793.00,3.8498
792.00,3.8885
791.00,3.8854
790.00,3.8664
789.00,3.8657
788.00,3.8818
787.00,3.8627
786.00,3.7894
785.00,3.7177
784.00,3.6950
783.00,3.7415
782.00,3.8613
781.00,4.0626
780.00,4.2815
779.00,4.2580
778.00,4.1631
777.00,4.1993
776.00,4.2881
775.00,4.1808
774.00,4.0219
773.00,3.9436
772.00,3.9175
771.00,3.8981
770.00,3.8620
769.00,3.8210
768.00,3.7904
767.00,3.7863
766.00,3.8312
765.00,3.9455
764.00,4.0543
763.00,3.9899
762.00,3.8658
761.00,3.8084
760.00,3.8247
759.00,3.8878
758.00,3.9694
757.00,4.0842
756.00,4.2665
755.00,4.4221
754.00,4.3127
753.00,4.0647
752.00,3.9148
751.00,3.9046
750.00,4.0447
749.00,4.2811
748.00,4.3583
747.00,4.4154
746.00,4.4311
745.00,4.2854
744.00,4.2249
743.00,4.2786
742.00,4.3308
741.00,4.1718
740.00,3.9547
739.00,3.8281
738.00,3.7958
737.00,3.8418
736.00,3.9535
735.00,4.1019
734.00,4.3039
733.00,4.4780
732.00,4.2909
731.00,4.1669
730.00,4.1835
729.00,4.2110
728.00,4.1949
727.00,4.1080
726.00,3.9924
725.00,3.9541
724.00,4.0661
723.00,4.3499
722.00,4.7711
721.00,5.1202
720.00,4.8520
719.00,4.5219
718.00,4.3817
717.00,4.3701
716.00,4.6527
715.00,4.7656
714.00,4.1586
713.00,3.9700
712.00,3.9728
711.00,4.1291
710.00,4.5403
709.00,4.5489
708.00,4.2222
707.00,4.1085
706.00,4.1316
705.00,4.2831
704.00,4.3726
703.00,4.2841
702.00,4.2849
701.00,4.3572
700.00,4.3774
