Created as New Dataset,Sample 068 By Administrator Date Wednesday, November 24 2021
cm-1,A
7502.00,1.0237
7501.00,1.0325
7500.00,1.0403
7499.00,1.0474
7498.00,1.0546
7497.00,1.0622
7496.00,1.0701
7495.00,1.0779
7494.00,1.0855
7493.00,1.0931
7492.00,1.1012
7491.00,1.1096
7490.00,1.1177
7489.00,1.1251
7488.00,1.1320
7487.00,1.1386
7486.00,1.1449
7485.00,1.1503
7484.00,1.1541
7483.00,1.1566
7482.00,1.1587
7481.00,1.1609
7480.00,1.1630
7479.00,1.1651
7478.00,1.1675
7477.00,1.1706
7476.00,1.1745
7475.00,1.1785
7474.00,1.1818
7473.00,1.1842
7472.00,1.1855
7471.00,1.1858
7470.00,1.1853
7469.00,1.1838
7468.00,1.1816
7467.00,1.1795
7466.00,1.1781
7465.00,1.1772
7464.00,1.1761
7463.00,1.1738
7462.00,1.1703
7461.00,1.1661
7460.00,1.1615
7459.00,1.1564
7458.00,1.1507
7457.00,1.1445
7456.00,1.1382
7455.00,1.1318
7454.00,1.1254
7453.00,1.1192
7452.00,1.1126
7451.00,1.1054
7450.00,1.0973
7449.00,1.0891
7448.00,1.0813
7447.00,1.0737
7446.00,1.0657
7445.00,1.0572
7444.00,1.0484
7443.00,1.0397
7442.00,1.0306
7441.00,1.0204
7440.00,1.0094
7439.00,0.9982
7438.00,0.9873
7437.00,0.9766
7436.00,0.9659
7435.00,0.9552
7434.00,0.9449
7433.00,0.9352
7432.00,0.9256
7431.00,0.9157
7430.00,0.9054
7429.00,0.8951
7428.00,0.8851
7427.00,0.8754
7426.00,0.8663
7425.00,0.8576
7424.00,0.8494
7423.00,0.8418
7422.00,0.8344
7421.00,0.8273
7420.00,0.8206
7419.00,0.8141
7418.00,0.8079
7417.00,0.8022
7416.00,0.7971
7415.00,0.7924
7414.00,0.7884
7413.00,0.7848
7412.00,0.7819
7411.00,0.7798
7410.00,0.7786
7409.00,0.7781
7408.00,0.7780
7407.00,0.7784
7406.00,0.7795
7405.00,0.7811
7404.00,0.7833
7403.00,0.7858
7402.00,0.7885
7401.00,0.7917
7400.00,0.7957
7399.00,0.8006
7398.00,0.8062
7397.00,0.8119
7396.00,0.8176
7395.00,0.8238
7394.00,0.8305
7393.00,0.8376
7392.00,0.8450
7391.00,0.8523
7390.00,0.8598
7389.00,0.8679
7388.00,0.8766
7387.00,0.8855
7386.00,0.8944
7385.00,0.9033
7384.00,0.9123
7383.00,0.9215
7382.00,0.9305
7381.00,0.9391
7380.00,0.9473
7379.00,0.9557
7378.00,0.9646
7377.00,0.9736
7376.00,0.9822
7375.00,0.9905
7374.00,0.9986
7373.00,1.0066
7372.00,1.0145
7371.00,1.0220
7370.00,1.0292
7369.00,1.0357
7368.00,1.0418
7367.00,1.0479
7366.00,1.0542
7365.00,1.0604
7364.00,1.0662
7363.00,1.0712
7362.00,1.0758
7361.00,1.0804
7360.00,1.0850
7359.00,1.0894
7358.00,1.0933
7357.00,1.0967
7356.00,1.1000
7355.00,1.1037
7354.00,1.1084
7353.00,1.1141
7352.00,1.1199
7351.00,1.1245
7350.00,1.1271
7349.00,1.1276
7348.00,1.1262
7347.00,1.1236
7346.00,1.1205
7345.00,1.1175
7344.00,1.1154
7343.00,1.1150
7342.00,1.1161
7341.00,1.1178
7340.00,1.1186
7339.00,1.1179
7338.00,1.1158
7337.00,1.1126
7336.00,1.1083
7335.00,1.1030
7334.00,1.0974
7333.00,1.0921
7332.00,1.0872
7331.00,1.0828
7330.00,1.0787
7329.00,1.0751
7328.00,1.0720
7327.00,1.0690
7326.00,1.0657
7325.00,1.0623
7324.00,1.0584
7323.00,1.0539
7322.00,1.0487
7321.00,1.0433
7320.00,1.0382
7319.00,1.0334
7318.00,1.0283
7317.00,1.0227
7316.00,1.0169
7315.00,1.0112
7314.00,1.0051
7313.00,0.9980
7312.00,0.9897
7311.00,0.9806
7310.00,0.9717
7309.00,0.9630
7308.00,0.9542
7307.00,0.9451
7306.00,0.9361
7305.00,0.9276
7304.00,0.9195
7303.00,0.9115
7302.00,0.9034
7301.00,0.8950
7300.00,0.8863
7299.00,0.8775
7298.00,0.8686
7297.00,0.8598
7296.00,0.8513
7295.00,0.8432
7294.00,0.8353
7293.00,0.8275
7292.00,0.8198
7291.00,0.8123
7290.00,0.8053
7289.00,0.7989
7288.00,0.7933
7287.00,0.7884
7286.00,0.7839
7285.00,0.7801
7284.00,0.7769
7283.00,0.7745
7282.00,0.7725
7281.00,0.7710
7280.00,0.7701
7279.00,0.7699
7278.00,0.7705
7277.00,0.7719
7276.00,0.7739
7275.00,0.7767
7274.00,0.7798
7273.00,0.7832
7272.00,0.7869
7271.00,0.7911
7270.00,0.7960
7269.00,0.8012
7268.00,0.8066
7267.00,0.8120
7266.00,0.8181
7265.00,0.8251
7264.00,0.8329
7263.00,0.8410
7262.00,0.8493
7261.00,0.8579
7260.00,0.8671
7259.00,0.8767
7258.00,0.8863
7257.00,0.8956
7256.00,0.9045
7255.00,0.9133
7254.00,0.9222
7253.00,0.9314
7252.00,0.9411
7251.00,0.9512
7250.00,0.9612
7249.00,0.9712
7248.00,0.9811
7247.00,0.9913
7246.00,1.0016
7245.00,1.0116
7244.00,1.0209
7243.00,1.0297
7242.00,1.0384
7241.00,1.0473
7240.00,1.0566
7239.00,1.0657
7238.00,1.0746
7237.00,1.0832
7236.00,1.0915
7235.00,1.0995
7234.00,1.1071
7233.00,1.1142
7232.00,1.1207
7231.00,1.1268
7230.00,1.1329
7229.00,1.1393
7228.00,1.1457
7227.00,1.1520
7226.00,1.1581
7225.00,1.1640
7224.00,1.1695
7223.00,1.1744
7222.00,1.1788
7221.00,1.1827
7220.00,1.1860
7219.00,1.1886
7218.00,1.1905
7217.00,1.1921
7216.00,1.1938
7215.00,1.1955
7214.00,1.1968
7213.00,1.1978
7212.00,1.1985
7211.00,1.1991
7210.00,1.1994
7209.00,1.1988
7208.00,1.1971
7207.00,1.1947
7206.00,1.1921
7205.00,1.1893
7204.00,1.1861
7203.00,1.1822
7202.00,1.1783
7201.00,1.1748
7200.00,1.1713
7199.00,1.1672
7198.00,1.1626
7197.00,1.1577
7196.00,1.1523
7195.00,1.1458
7194.00,1.1382
7193.00,1.1303
7192.00,1.1228
7191.00,1.1153
7190.00,1.1073
7189.00,1.0989
7188.00,1.0902
7187.00,1.0815
7186.00,1.0726
7185.00,1.0634
7184.00,1.0539
7183.00,1.0439
7182.00,1.0334
7181.00,1.0227
7180.00,1.0120
7179.00,1.0013
7178.00,0.9905
7177.00,0.9795
7176.00,0.9687
7175.00,0.9584
7174.00,0.9484
7173.00,0.9383
7172.00,0.9278
7171.00,0.9170
7170.00,0.9062
7169.00,0.8956
7168.00,0.8854
7167.00,0.8755
7166.00,0.8658
7165.00,0.8564
7164.00,0.8474
7163.00,0.8389
7162.00,0.8309
7161.00,0.8234
7160.00,0.8163
7159.00,0.8098
7158.00,0.8039
7157.00,0.7986
7156.00,0.7940
7155.00,0.7900
7154.00,0.7864
7153.00,0.7832
7152.00,0.7805
7151.00,0.7784
7150.00,0.7772
7149.00,0.7767
7148.00,0.7768
7147.00,0.7774
7146.00,0.7788
7145.00,0.7810
7144.00,0.7839
7143.00,0.7873
7142.00,0.7911
7141.00,0.7954
7140.00,0.8002
7139.00,0.8056
7138.00,0.8116
7137.00,0.8182
7136.00,0.8250
7135.00,0.8318
7134.00,0.8388
7133.00,0.8464
7132.00,0.8545
7131.00,0.8629
7130.00,0.8712
7129.00,0.8798
7128.00,0.8887
7127.00,0.8982
7126.00,0.9077
7125.00,0.9168
7124.00,0.9256
7123.00,0.9345
7122.00,0.9440
7121.00,0.9541
7120.00,0.9645
7119.00,0.9748
7118.00,0.9847
7117.00,0.9944
7116.00,1.0039
7115.00,1.0134
7114.00,1.0228
7113.00,1.0320
7112.00,1.0407
7111.00,1.0494
7110.00,1.0583
7109.00,1.0672
7108.00,1.0758
7107.00,1.0836
7106.00,1.0908
7105.00,1.0978
7104.00,1.1051
7103.00,1.1126
7102.00,1.1198
7101.00,1.1262
7100.00,1.1314
7099.00,1.1360
7098.00,1.1406
7097.00,1.1453
7096.00,1.1499
7095.00,1.1542
7094.00,1.1586
7093.00,1.1633
7092.00,1.1680
7091.00,1.1720
7090.00,1.1754
7089.00,1.1781
7088.00,1.1803
7087.00,1.1816
7086.00,1.1825
7085.00,1.1833
7084.00,1.1841
7083.00,1.1846
7082.00,1.1842
7081.00,1.1833
7080.00,1.1823
7079.00,1.1816
7078.00,1.1809
7077.00,1.1796
7076.00,1.1774
7075.00,1.1746
7074.00,1.1717
7073.00,1.1687
7072.00,1.1656
7071.00,1.1618
7070.00,1.1575
7069.00,1.1526
7068.00,1.1473
7067.00,1.1416
7066.00,1.1354
7065.00,1.1288
7064.00,1.1218
7063.00,1.1147
7062.00,1.1077
7061.00,1.1010
7060.00,1.0942
7059.00,1.0872
7058.00,1.0797
7057.00,1.0716
7056.00,1.0627
7055.00,1.0530
7054.00,1.0427
7053.00,1.0320
7052.00,1.0213
7051.00,1.0105
7050.00,0.9999
7049.00,0.9895
7048.00,0.9793
7047.00,0.9690
7046.00,0.9589
7045.00,0.9487
7044.00,0.9383
7043.00,0.9276
7042.00,0.9169
7041.00,0.9063
7040.00,0.8961
7039.00,0.8861
7038.00,0.8761
7037.00,0.8663
7036.00,0.8567
7035.00,0.8474
7034.00,0.8387
7033.00,0.8306
7032.00,0.8227
7031.00,0.8153
7030.00,0.8085
7029.00,0.8025
7028.00,0.7972
7027.00,0.7922
7026.00,0.7877
7025.00,0.7836
7024.00,0.7801
7023.00,0.7770
7022.00,0.7744
7021.00,0.7727
7020.00,0.7717
7019.00,0.7713
7018.00,0.7717
7017.00,0.7728
7016.00,0.7747
7015.00,0.7771
7014.00,0.7799
7013.00,0.7833
7012.00,0.7872
7011.00,0.7918
7010.00,0.7968
7009.00,0.8025
7008.00,0.8087
7007.00,0.8155
7006.00,0.8228
7005.00,0.8305
7004.00,0.8387
7003.00,0.8470
7002.00,0.8553
7001.00,0.8639
7000.00,0.8728
6999.00,0.8819
6998.00,0.8912
6997.00,0.9007
6996.00,0.9104
6995.00,0.9206
6994.00,0.9311
6993.00,0.9418
6992.00,0.9524
6991.00,0.9626
6990.00,0.9725
6989.00,0.9825
6988.00,0.9925
6987.00,1.0025
6986.00,1.0122
6985.00,1.0217
6984.00,1.0312
6983.00,1.0410
6982.00,1.0508
6981.00,1.0605
6980.00,1.0699
6979.00,1.0792
6978.00,1.0882
6977.00,1.0970
6976.00,1.1054
6975.00,1.1136
6974.00,1.1216
6973.00,1.1295
6972.00,1.1370
6971.00,1.1444
6970.00,1.1515
6969.00,1.1583
6968.00,1.1645
6967.00,1.1702
6966.00,1.1757
6965.00,1.1809
6964.00,1.1857
6963.00,1.1899
6962.00,1.1938
6961.00,1.1971
6960.00,1.1995
6959.00,1.2011
6958.00,1.2022
6957.00,1.2038
6956.00,1.2059
6955.00,1.2080
6954.00,1.2099
6953.00,1.2114
6952.00,1.2125
6951.00,1.2130
6950.00,1.2128
6949.00,1.2118
6948.00,1.2103
6947.00,1.2081
6946.00,1.2056
6945.00,1.2029
6944.00,1.2002
6943.00,1.1968
6942.00,1.1928
6941.00,1.1881
6940.00,1.1831
6939.00,1.1779
6938.00,1.1724
6937.00,1.1665
6936.00,1.1604
6935.00,1.1539
6934.00,1.1471
6933.00,1.1400
6932.00,1.1326
6931.00,1.1248
6930.00,1.1164
6929.00,1.1075
6928.00,1.0981
6927.00,1.0884
6926.00,1.0785
6925.00,1.0686
6924.00,1.0586
6923.00,1.0486
6922.00,1.0384
6921.00,1.0282
6920.00,1.0180
6919.00,1.0074
6918.00,0.9963
6917.00,0.9850
6916.00,0.9735
6915.00,0.9620
6914.00,0.9505
6913.00,0.9389
6912.00,0.9276
6911.00,0.9165
6910.00,0.9054
6909.00,0.8945
6908.00,0.8841
6907.00,0.8743
6906.00,0.8649
6905.00,0.8556
6904.00,0.8464
6903.00,0.8375
6902.00,0.8293
6901.00,0.8216
6900.00,0.8142
6899.00,0.8071
6898.00,0.8005
6897.00,0.7946
6896.00,0.7895
6895.00,0.7849
6894.00,0.7810
6893.00,0.7779
6892.00,0.7757
6891.00,0.7743
6890.00,0.7737
6889.00,0.7737
6888.00,0.7743
6887.00,0.7753
6886.00,0.7770
6885.00,0.7794
6884.00,0.7823
6883.00,0.7856
6882.00,0.7894
6881.00,0.7938
6880.00,0.7989
6879.00,0.8047
6878.00,0.8112
6877.00,0.8183
6876.00,0.8260
6875.00,0.8341
6874.00,0.8425
6873.00,0.8510
6872.00,0.8597
6871.00,0.8685
6870.00,0.8775
6869.00,0.8869
6868.00,0.8966
6867.00,0.9067
6866.00,0.9168
6865.00,0.9268
6864.00,0.9367
6863.00,0.9467
6862.00,0.9568
6861.00,0.9670
6860.00,0.9773
6859.00,0.9877
6858.00,0.9983
6857.00,1.0091
6856.00,1.0194
6855.00,1.0292
6854.00,1.0385
6853.00,1.0475
6852.00,1.0563
6851.00,1.0650
6850.00,1.0740
6849.00,1.0834
6848.00,1.0928
6847.00,1.1019
6846.00,1.1104
6845.00,1.1186
6844.00,1.1264
6843.00,1.1336
6842.00,1.1403
6841.00,1.1469
6840.00,1.1535
6839.00,1.1601
6838.00,1.1663
6837.00,1.1719
6836.00,1.1768
6835.00,1.1811
6834.00,1.1851
6833.00,1.1889
6832.00,1.1924
6831.00,1.1955
6830.00,1.1982
6829.00,1.2006
6828.00,1.2027
6827.00,1.2048
6826.00,1.2065
6825.00,1.2080
6824.00,1.2091
6823.00,1.2096
6822.00,1.2097
6821.00,1.2092
6820.00,1.2080
6819.00,1.2062
6818.00,1.2041
6817.00,1.2021
6816.00,1.1999
6815.00,1.1973
6814.00,1.1941
6813.00,1.1904
6812.00,1.1863
6811.00,1.1820
6810.00,1.1772
6809.00,1.1719
6808.00,1.1664
6807.00,1.1607
6806.00,1.1546
6805.00,1.1480
6804.00,1.1407
6803.00,1.1330
6802.00,1.1253
6801.00,1.1173
6800.00,1.1087
6799.00,1.0996
6798.00,1.0902
6797.00,1.0807
6796.00,1.0710
6795.00,1.0611
6794.00,1.0509
6793.00,1.0405
6792.00,1.0297
6791.00,1.0187
6790.00,1.0076
6789.00,0.9967
6788.00,0.9857
6787.00,0.9744
6786.00,0.9628
6785.00,0.9513
6784.00,0.9400
6783.00,0.9288
6782.00,0.9174
6781.00,0.9062
6780.00,0.8952
6779.00,0.8846
6778.00,0.8742
6777.00,0.8637
6776.00,0.8533
6775.00,0.8433
6774.00,0.8341
6773.00,0.8256
6772.00,0.8177
6771.00,0.8102
6770.00,0.8032
6769.00,0.7967
6768.00,0.7906
6767.00,0.7849
6766.00,0.7798
6765.00,0.7755
6764.00,0.7719
6763.00,0.7689
6762.00,0.7666
6761.00,0.7651
6760.00,0.7645
6759.00,0.7645
6758.00,0.7649
6757.00,0.7660
6756.00,0.7678
6755.00,0.7704
6754.00,0.7737
6753.00,0.7775
6752.00,0.7819
6751.00,0.7870
6750.00,0.7926
6749.00,0.7987
6748.00,0.8054
6747.00,0.8125
6746.00,0.8203
6745.00,0.8285
6744.00,0.8372
6743.00,0.8462
6742.00,0.8556
6741.00,0.8652
6740.00,0.8750
6739.00,0.8849
6738.00,0.8951
6737.00,0.9056
6736.00,0.9164
6735.00,0.9273
6734.00,0.9380
6733.00,0.9486
6732.00,0.9592
6731.00,0.9696
6730.00,0.9800
6729.00,0.9904
6728.00,1.0009
6727.00,1.0114
6726.00,1.0219
6725.00,1.0326
6724.00,1.0432
6723.00,1.0534
6722.00,1.0633
6721.00,1.0729
6720.00,1.0824
6719.00,1.0916
6718.00,1.1004
6717.00,1.1091
6716.00,1.1178
6715.00,1.1264
6714.00,1.1345
6713.00,1.1420
6712.00,1.1492
6711.00,1.1566
6710.00,1.1641
6709.00,1.1711
6708.00,1.1775
6707.00,1.1835
6706.00,1.1895
6705.00,1.1954
6704.00,1.2007
6703.00,1.2053
6702.00,1.2094
6701.00,1.2134
6700.00,1.2169
6699.00,1.2196
6698.00,1.2214
6697.00,1.2229
6696.00,1.2246
6695.00,1.2263
6694.00,1.2277
6693.00,1.2286
6692.00,1.2287
6691.00,1.2284
6690.00,1.2277
6689.00,1.2265
6688.00,1.2249
6687.00,1.2230
6686.00,1.2209
6685.00,1.2184
6684.00,1.2151
6683.00,1.2107
6682.00,1.2054
6681.00,1.1999
6680.00,1.1944
6679.00,1.1887
6678.00,1.1828
6677.00,1.1766
6676.00,1.1704
6675.00,1.1640
6674.00,1.1572
6673.00,1.1499
6672.00,1.1423
6671.00,1.1341
6670.00,1.1255
6669.00,1.1164
6668.00,1.1071
6667.00,1.0973
6666.00,1.0871
6665.00,1.0767
6664.00,1.0663
6663.00,1.0556
6662.00,1.0444
6661.00,1.0328
6660.00,1.0211
6659.00,1.0093
6658.00,0.9975
6657.00,0.9857
6656.00,0.9739
6655.00,0.9624
6654.00,0.9510
6653.00,0.9396
6652.00,0.9281
6651.00,0.9165
6650.00,0.9050
6649.00,0.8936
6648.00,0.8824
6647.00,0.8714
6646.00,0.8609
6645.00,0.8508
6644.00,0.8412
6643.00,0.8322
6642.00,0.8238
6641.00,0.8160
6640.00,0.8088
6639.00,0.8020
6638.00,0.7958
6637.00,0.7901
6636.00,0.7850
6635.00,0.7805
6634.00,0.7767
6633.00,0.7736
6632.00,0.7713
6631.00,0.7697
6630.00,0.7689
6629.00,0.7687
6628.00,0.7691
6627.00,0.7702
6626.00,0.7721
6625.00,0.7748
6624.00,0.7783
6623.00,0.7824
6622.00,0.7871
6621.00,0.7924
6620.00,0.7983
6619.00,0.8048
6618.00,0.8118
6617.00,0.8192
6616.00,0.8271
6615.00,0.8354
6614.00,0.8442
6613.00,0.8532
6612.00,0.8626
6611.00,0.8723
6610.00,0.8824
6609.00,0.8926
6608.00,0.9028
6607.00,0.9132
6606.00,0.9238
6605.00,0.9344
6604.00,0.9451
6603.00,0.9559
6602.00,0.9668
6601.00,0.9778
6600.00,0.9886
6599.00,0.9992
6598.00,1.0097
6597.00,1.0201
6596.00,1.0305
6595.00,1.0407
6594.00,1.0507
6593.00,1.0607
6592.00,1.0706
6591.00,1.0804
6590.00,1.0900
6589.00,1.0992
6588.00,1.1080
6587.00,1.1166
6586.00,1.1250
6585.00,1.1332
6584.00,1.1410
6583.00,1.1483
6582.00,1.1551
6581.00,1.1616
6580.00,1.1681
6579.00,1.1745
6578.00,1.1807
6577.00,1.1865
6576.00,1.1917
6575.00,1.1963
6574.00,1.2005
6573.00,1.2038
6572.00,1.2062
6571.00,1.2081
6570.00,1.2100
6569.00,1.2121
6568.00,1.2143
6567.00,1.2162
6566.00,1.2176
6565.00,1.2184
6564.00,1.2186
6563.00,1.2182
6562.00,1.2174
6561.00,1.2163
6560.00,1.2150
6559.00,1.2135
6558.00,1.2118
6557.00,1.2099
6556.00,1.2076
6555.00,1.2046
6554.00,1.2009
6553.00,1.1966
6552.00,1.1920
6551.00,1.1871
6550.00,1.1819
6549.00,1.1765
6548.00,1.1708
6547.00,1.1648
6546.00,1.1585
6545.00,1.1518
6544.00,1.1446
6543.00,1.1373
6542.00,1.1298
6541.00,1.1218
6540.00,1.1131
6539.00,1.1039
6538.00,1.0944
6537.00,1.0846
6536.00,1.0745
6535.00,1.0642
6534.00,1.0539
6533.00,1.0438
6532.00,1.0334
6531.00,1.0225
6530.00,1.0114
6529.00,1.0001
6528.00,0.9887
6527.00,0.9772
6526.00,0.9657
6525.00,0.9543
6524.00,0.9429
6523.00,0.9313
6522.00,0.9198
6521.00,0.9083
6520.00,0.8970
6519.00,0.8858
6518.00,0.8749
6517.00,0.8644
6516.00,0.8544
6515.00,0.8446
6514.00,0.8351
6513.00,0.8261
6512.00,0.8175
6511.00,0.8094
6510.00,0.8018
6509.00,0.7948
6508.00,0.7883
6507.00,0.7823
6506.00,0.7771
6505.00,0.7726
6504.00,0.7689
6503.00,0.7659
6502.00,0.7636
6501.00,0.7621
6500.00,0.7615
6499.00,0.7616
6498.00,0.7626
6497.00,0.7643
6496.00,0.7668
6495.00,0.7700
6494.00,0.7737
6493.00,0.7780
6492.00,0.7831
6491.00,0.7887
6490.00,0.7950
6489.00,0.8019
6488.00,0.8093
6487.00,0.8173
6486.00,0.8259
6485.00,0.8350
6484.00,0.8444
6483.00,0.8540
6482.00,0.8638
6481.00,0.8739
6480.00,0.8842
6479.00,0.8946
6478.00,0.9052
6477.00,0.9160
6476.00,0.9271
6475.00,0.9385
6474.00,0.9501
6473.00,0.9619
6472.00,0.9737
6471.00,0.9852
6470.00,0.9965
6469.00,1.0077
6468.00,1.0191
6467.00,1.0303
6466.00,1.0413
6465.00,1.0521
6464.00,1.0628
6463.00,1.0737
6462.00,1.0843
6461.00,1.0945
6460.00,1.1043
6459.00,1.1138
6458.00,1.1232
6457.00,1.1324
6456.00,1.1414
6455.00,1.1499
6454.00,1.1582
6453.00,1.1662
6452.00,1.1740
6451.00,1.1812
6450.00,1.1880
6449.00,1.1946
6448.00,1.2013
6447.00,1.2078
6446.00,1.2137
6445.00,1.2191
6444.00,1.2241
6443.00,1.2289
6442.00,1.2333
6441.00,1.2371
6440.00,1.2405
6439.00,1.2436
6438.00,1.2466
6437.00,1.2492
6436.00,1.2510
6435.00,1.2519
6434.00,1.2520
6433.00,1.2516
6432.00,1.2508
6431.00,1.2499
6430.00,1.2487
6429.00,1.2473
6428.00,1.2455
6427.00,1.2435
6426.00,1.2410
6425.00,1.2378
6424.00,1.2341
6423.00,1.2299
6422.00,1.2256
6421.00,1.2211
6420.00,1.2162
6419.00,1.2111
6418.00,1.2055
6417.00,1.1993
6416.00,1.1925
6415.00,1.1852
6414.00,1.1775
6413.00,1.1695
6412.00,1.1609
6411.00,1.1518
6410.00,1.1423
6409.00,1.1325
6408.00,1.1226
6407.00,1.1125
6406.00,1.1021
6405.00,1.0912
6404.00,1.0800
6403.00,1.0684
6402.00,1.0565
6401.00,1.0442
6400.00,1.0317
6399.00,1.0193
6398.00,1.0070
6397.00,0.9948
6396.00,0.9824
6395.00,0.9697
6394.00,0.9570
6393.00,0.9442
6392.00,0.9316
6391.00,0.9191
6390.00,0.9069
6389.00,0.8950
6388.00,0.8834
6387.00,0.8722
6386.00,0.8615
6385.00,0.8512
6384.00,0.8412
6383.00,0.8315
6382.00,0.8222
6381.00,0.8135
6380.00,0.8054
6379.00,0.7978
6378.00,0.7909
6377.00,0.7848
6376.00,0.7795
6375.00,0.7748
6374.00,0.7709
6373.00,0.7677
6372.00,0.7654
6371.00,0.7641
6370.00,0.7635
6369.00,0.7637
6368.00,0.7647
6367.00,0.7666
6366.00,0.7692
6365.00,0.7726
6364.00,0.7766
6363.00,0.7813
6362.00,0.7866
6361.00,0.7926
6360.00,0.7991
6359.00,0.8060
6358.00,0.8134
6357.00,0.8215
6356.00,0.8303
6355.00,0.8396
6354.00,0.8493
6353.00,0.8593
6352.00,0.8695
6351.00,0.8798
6350.00,0.8903
6349.00,0.9011
6348.00,0.9121
6347.00,0.9233
6346.00,0.9346
6345.00,0.9462
6344.00,0.9578
6343.00,0.9694
6342.00,0.9809
6341.00,0.9923
6340.00,1.0038
6339.00,1.0153
6338.00,1.0268
6337.00,1.0380
6336.00,1.0488
6335.00,1.0592
6334.00,1.0694
6333.00,1.0797
6332.00,1.0898
6331.00,1.0997
6330.00,1.1095
6329.00,1.1191
6328.00,1.1284
6327.00,1.1373
6326.00,1.1459
6325.00,1.1544
6324.00,1.1627
6323.00,1.1707
6322.00,1.1780
6321.00,1.1848
6320.00,1.1911
6319.00,1.1969
6318.00,1.2022
6317.00,1.2071
6316.00,1.2118
6315.00,1.2166
6314.00,1.2212
6313.00,1.2253
6312.00,1.2286
6311.00,1.2314
6310.00,1.2340
6309.00,1.2364
6308.00,1.2384
6307.00,1.2398
6306.00,1.2408
6305.00,1.2415
6304.00,1.2418
6303.00,1.2415
6302.00,1.2406
6301.00,1.2393
6300.00,1.2378
6299.00,1.2362
6298.00,1.2344
6297.00,1.2320
6296.00,1.2289
6295.00,1.2252
6294.00,1.2213
6293.00,1.2171
6292.00,1.2125
6291.00,1.2074
6290.00,1.2018
6289.00,1.1960
6288.00,1.1899
6287.00,1.1835
6286.00,1.1767
6285.00,1.1698
6284.00,1.1629
6283.00,1.1556
6282.00,1.1476
6281.00,1.1387
6280.00,1.1293
6279.00,1.1195
6278.00,1.1096
6277.00,1.0996
6276.00,1.0896
6275.00,1.0795
6274.00,1.0691
6273.00,1.0583
6272.00,1.0470
6271.00,1.0351
6270.00,1.0229
6269.00,1.0106
6268.00,0.9982
6267.00,0.9859
6266.00,0.9736
6265.00,0.9614
6264.00,0.9492
6263.00,0.9369
6262.00,0.9244
6261.00,0.9119
6260.00,0.8995
6259.00,0.8874
6258.00,0.8757
6257.00,0.8644
6256.00,0.8535
6255.00,0.8430
6254.00,0.8330
6253.00,0.8235
6252.00,0.8144
6251.00,0.8059
6250.00,0.7980
6249.00,0.7907
6248.00,0.7841
6247.00,0.7781
6246.00,0.7728
6245.00,0.7683
6244.00,0.7646
6243.00,0.7617
6242.00,0.7596
6241.00,0.7584
6240.00,0.7582
6239.00,0.7588
6238.00,0.7600
6237.00,0.7621
6236.00,0.7650
6235.00,0.7688
6234.00,0.7733
6233.00,0.7785
6232.00,0.7845
6231.00,0.7911
6230.00,0.7983
6229.00,0.8060
6228.00,0.8141
6227.00,0.8227
6226.00,0.8319
6225.00,0.8417
6224.00,0.8520
6223.00,0.8626
6222.00,0.8734
6221.00,0.8845
6220.00,0.8958
6219.00,0.9074
6218.00,0.9193
6217.00,0.9312
6216.00,0.9430
6215.00,0.9547
6214.00,0.9663
6213.00,0.9779
6212.00,0.9896
6211.00,1.0016
6210.00,1.0136
6209.00,1.0258
6208.00,1.0378
6207.00,1.0496
6206.00,1.0610
6205.00,1.0721
6204.00,1.0833
6203.00,1.0947
6202.00,1.1061
6201.00,1.1172
6200.00,1.1276
6199.00,1.1376
6198.00,1.1473
6197.00,1.1566
6196.00,1.1657
6195.00,1.1746
6194.00,1.1833
6193.00,1.1915
6192.00,1.1992
6191.00,1.2063
6190.00,1.2132
6189.00,1.2200
6188.00,1.2267
6187.00,1.2332
6186.00,1.2393
6185.00,1.2450
6184.00,1.2498
6183.00,1.2539
6182.00,1.2574
6181.00,1.2604
6180.00,1.2631
6179.00,1.2655
6178.00,1.2677
6177.00,1.2696
6176.00,1.2710
6175.00,1.2720
6174.00,1.2728
6173.00,1.2732
6172.00,1.2732
6171.00,1.2727
6170.00,1.2720
6169.00,1.2710
6168.00,1.2693
6167.00,1.2668
6166.00,1.2635
6165.00,1.2596
6164.00,1.2555
6163.00,1.2510
6162.00,1.2462
6161.00,1.2414
6160.00,1.2363
6159.00,1.2306
6158.00,1.2242
6157.00,1.2172
6156.00,1.2098
6155.00,1.2019
6154.00,1.1935
6153.00,1.1848
6152.00,1.1759
6151.00,1.1666
6150.00,1.1569
6149.00,1.1468
6148.00,1.1365
6147.00,1.1258
6146.00,1.1145
6145.00,1.1027
6144.00,1.0905
6143.00,1.0780
6142.00,1.0654
6141.00,1.0527
6140.00,1.0398
6139.00,1.0266
6138.00,1.0133
6137.00,0.9999
6136.00,0.9865
6135.00,0.9732
6134.00,0.9601
6133.00,0.9469
6132.00,0.9336
6131.00,0.9202
6130.00,0.9069
6129.00,0.8939
6128.00,0.8812
6127.00,0.8690
6126.00,0.8572
6125.00,0.8461
6124.00,0.8355
6123.00,0.8254
6122.00,0.8159
6121.00,0.8069
6120.00,0.7987
6119.00,0.7912
6118.00,0.7844
6117.00,0.7782
6116.00,0.7727
6115.00,0.7679
6114.00,0.7641
6113.00,0.7611
6112.00,0.7589
6111.00,0.7577
6110.00,0.7573
6109.00,0.7579
6108.00,0.7594
6107.00,0.7618
6106.00,0.7649
6105.00,0.7688
6104.00,0.7735
6103.00,0.7789
6102.00,0.7850
6101.00,0.7917
6100.00,0.7990
6099.00,0.8070
6098.00,0.8156
6097.00,0.8247
6096.00,0.8342
6095.00,0.8441
6094.00,0.8544
6093.00,0.8651
6092.00,0.8762
6091.00,0.8875
6090.00,0.8990
6089.00,0.9107
6088.00,0.9224
6087.00,0.9342
6086.00,0.9460
6085.00,0.9578
6084.00,0.9697
6083.00,0.9816
6082.00,0.9936
6081.00,1.0056
6080.00,1.0175
6079.00,1.0292
6078.00,1.0410
6077.00,1.0529
6076.00,1.0645
6075.00,1.0759
6074.00,1.0870
6073.00,1.0978
6072.00,1.1083
6071.00,1.1185
6070.00,1.1284
6069.00,1.1379
6068.00,1.1470
6067.00,1.1557
6066.00,1.1644
6065.00,1.1730
6064.00,1.1815
6063.00,1.1897
6062.00,1.1976
6061.00,1.2052
6060.00,1.2124
6059.00,1.2192
6058.00,1.2256
6057.00,1.2318
6056.00,1.2377
6055.00,1.2431
6054.00,1.2480
6053.00,1.2526
6052.00,1.2569
6051.00,1.2610
6050.00,1.2647
6049.00,1.2675
6048.00,1.2698
6047.00,1.2716
6046.00,1.2731
6045.00,1.2742
6044.00,1.2748
6043.00,1.2751
6042.00,1.2752
6041.00,1.2747
6040.00,1.2735
6039.00,1.2718
6038.00,1.2699
6037.00,1.2681
6036.00,1.2659
6035.00,1.2631
6034.00,1.2596
6033.00,1.2558
6032.00,1.2515
6031.00,1.2467
6030.00,1.2415
6029.00,1.2360
6028.00,1.2301
6027.00,1.2237
6026.00,1.2166
6025.00,1.2087
6024.00,1.2001
6023.00,1.1910
6022.00,1.1816
6021.00,1.1720
6020.00,1.1622
6019.00,1.1520
6018.00,1.1416
6017.00,1.1309
6016.00,1.1198
6015.00,1.1082
6014.00,1.0960
6013.00,1.0835
6012.00,1.0707
6011.00,1.0575
6010.00,1.0439
6009.00,1.0299
6008.00,1.0157
6007.00,1.0017
6006.00,0.9880
6005.00,0.9745
6004.00,0.9612
6003.00,0.9478
6002.00,0.9344
6001.00,0.9209
6000.00,0.9075
5999.00,0.8942
5998.00,0.8813
5997.00,0.8690
5996.00,0.8571
5995.00,0.8458
5994.00,0.8350
5993.00,0.8248
5992.00,0.8150
5991.00,0.8058
5990.00,0.7974
5989.00,0.7897
5988.00,0.7827
5987.00,0.7765
5986.00,0.7713
5985.00,0.7670
5984.00,0.7636
5983.00,0.7610
5982.00,0.7591
5981.00,0.7582
5980.00,0.7582
5979.00,0.7591
5978.00,0.7610
5977.00,0.7639
5976.00,0.7677
5975.00,0.7723
5974.00,0.7776
5973.00,0.7836
5972.00,0.7904
5971.00,0.7978
5970.00,0.8060
5969.00,0.8148
5968.00,0.8241
5967.00,0.8340
5966.00,0.8444
5965.00,0.8551
5964.00,0.8661
5963.00,0.8774
5962.00,0.8891
5961.00,0.9012
5960.00,0.9135
5959.00,0.9259
5958.00,0.9385
5957.00,0.9514
5956.00,0.9645
5955.00,0.9777
5954.00,0.9909
5953.00,1.0041
5952.00,1.0171
5951.00,1.0298
5950.00,1.0424
5949.00,1.0549
5948.00,1.0674
5947.00,1.0800
5946.00,1.0927
5945.00,1.1053
5944.00,1.1173
5943.00,1.1288
5942.00,1.1400
5941.00,1.1508
5940.00,1.1614
5939.00,1.1717
5938.00,1.1818
5937.00,1.1917
5936.00,1.2013
5935.00,1.2106
5934.00,1.2195
5933.00,1.2279
5932.00,1.2358
5931.00,1.2432
5930.00,1.2502
5929.00,1.2569
5928.00,1.2631
5927.00,1.2690
5926.00,1.2745
5925.00,1.2797
5924.00,1.2844
5923.00,1.2888
5922.00,1.2928
5921.00,1.2965
5920.00,1.3000
5919.00,1.3030
5918.00,1.3055
5917.00,1.3072
5916.00,1.3084
5915.00,1.3090
5914.00,1.3092
5913.00,1.3089
5912.00,1.3081
5911.00,1.3071
5910.00,1.3060
5909.00,1.3046
5908.00,1.3026
5907.00,1.2999
5906.00,1.2966
5905.00,1.2927
5904.00,1.2881
5903.00,1.2829
5902.00,1.2774
5901.00,1.2719
5900.00,1.2659
5899.00,1.2592
5898.00,1.2519
5897.00,1.2442
5896.00,1.2362
5895.00,1.2280
5894.00,1.2198
5893.00,1.2114
5892.00,1.2025
5891.00,1.1929
5890.00,1.1825
5889.00,1.1715
5888.00,1.1599
5887.00,1.1479
5886.00,1.1358
5885.00,1.1236
5884.00,1.1111
5883.00,1.0982
5882.00,1.0848
5881.00,1.0711
5880.00,1.0572
5879.00,1.0432
5878.00,1.0293
5877.00,1.0155
5876.00,1.0019
5875.00,0.9882
5874.00,0.9745
5873.00,0.9608
5872.00,0.9472
5871.00,0.9338
5870.00,0.9208
5869.00,0.9082
5868.00,0.8960
5867.00,0.8840
5866.00,0.8723
5865.00,0.8610
5864.00,0.8502
5863.00,0.8398
5862.00,0.8301
5861.00,0.8212
5860.00,0.8130
5859.00,0.8055
5858.00,0.7988
5857.00,0.7930
5856.00,0.7880
5855.00,0.7838
5854.00,0.7803
5853.00,0.7777
5852.00,0.7759
5851.00,0.7751
5850.00,0.7753
5849.00,0.7765
5848.00,0.7786
5847.00,0.7816
5846.00,0.7855
5845.00,0.7902
5844.00,0.7957
5843.00,0.8020
5842.00,0.8092
5841.00,0.8171
5840.00,0.8256
5839.00,0.8346
5838.00,0.8441
5837.00,0.8540
5836.00,0.8644
5835.00,0.8752
5834.00,0.8864
5833.00,0.8982
5832.00,0.9102
5831.00,0.9223
5830.00,0.9345
5829.00,0.9468
5828.00,0.9594
5827.00,0.9722
5826.00,0.9851
5825.00,0.9982
5824.00,1.0112
5823.00,1.0241
5822.00,1.0370
5821.00,1.0498
5820.00,1.0625
5819.00,1.0752
5818.00,1.0878
5817.00,1.1002
5816.00,1.1124
5815.00,1.1242
5814.00,1.1359
5813.00,1.1474
5812.00,1.1588
5811.00,1.1698
5810.00,1.1804
5809.00,1.1906
5808.00,1.2004
5807.00,1.2098
5806.00,1.2188
5805.00,1.2277
5804.00,1.2366
5803.00,1.2456
5802.00,1.2545
5801.00,1.2629
5800.00,1.2707
5799.00,1.2777
5798.00,1.2838
5797.00,1.2891
5796.00,1.2942
5795.00,1.2991
5794.00,1.3037
5793.00,1.3080
5792.00,1.3116
5791.00,1.3147
5790.00,1.3174
5789.00,1.3197
5788.00,1.3217
5787.00,1.3234
5786.00,1.3248
5785.00,1.3257
5784.00,1.3262
5783.00,1.3262
5782.00,1.3257
5781.00,1.3245
5780.00,1.3226
5779.00,1.3203
5778.00,1.3179
5777.00,1.3153
5776.00,1.3122
5775.00,1.3086
5774.00,1.3047
5773.00,1.3003
5772.00,1.2953
5771.00,1.2895
5770.00,1.2834
5769.00,1.2769
5768.00,1.2700
5767.00,1.2624
5766.00,1.2542
5765.00,1.2456
5764.00,1.2366
5763.00,1.2272
5762.00,1.2176
5761.00,1.2077
5760.00,1.1974
5759.00,1.1866
5758.00,1.1755
5757.00,1.1641
5756.00,1.1521
5755.00,1.1396
5754.00,1.1269
5753.00,1.1139
5752.00,1.1007
5751.00,1.0870
5750.00,1.0731
5749.00,1.0592
5748.00,1.0452
5747.00,1.0311
5746.00,1.0167
5745.00,1.0023
5744.00,0.9879
5743.00,0.9736
5742.00,0.9593
5741.00,0.9452
5740.00,0.9314
5739.00,0.9178
5738.00,0.9047
5737.00,0.8918
5736.00,0.8793
5735.00,0.8673
5734.00,0.8558
5733.00,0.8450
5732.00,0.8349
5731.00,0.8253
5730.00,0.8165
5729.00,0.8084
5728.00,0.8010
5727.00,0.7945
5726.00,0.7889
5725.00,0.7842
5724.00,0.7804
5723.00,0.7775
5722.00,0.7756
5721.00,0.7745
5720.00,0.7744
5719.00,0.7752
5718.00,0.7769
5717.00,0.7796
5716.00,0.7832
5715.00,0.7877
5714.00,0.7931
5713.00,0.7994
5712.00,0.8065
5711.00,0.8142
5710.00,0.8226
5709.00,0.8316
5708.00,0.8411
5707.00,0.8512
5706.00,0.8619
5705.00,0.8730
5704.00,0.8845
5703.00,0.8964
5702.00,0.9086
5701.00,0.9211
5700.00,0.9338
5699.00,0.9467
5698.00,0.9598
5697.00,0.9730
5696.00,0.9864
5695.00,0.9997
5694.00,1.0130
5693.00,1.0264
5692.00,1.0400
5691.00,1.0535
5690.00,1.0669
5689.00,1.0802
5688.00,1.0933
5687.00,1.1061
5686.00,1.1186
5685.00,1.1308
5684.00,1.1427
5683.00,1.1544
5682.00,1.1660
5681.00,1.1773
5680.00,1.1882
5679.00,1.1989
5678.00,1.2094
5677.00,1.2196
5676.00,1.2294
5675.00,1.2386
5674.00,1.2475
5673.00,1.2558
5672.00,1.2637
5671.00,1.2711
5670.00,1.2782
5669.00,1.2851
5668.00,1.2918
5667.00,1.2981
5666.00,1.3040
5665.00,1.3093
5664.00,1.3141
5663.00,1.3183
5662.00,1.3219
5661.00,1.3252
5660.00,1.3280
5659.00,1.3303
5658.00,1.3318
5657.00,1.3327
5656.00,1.3333
5655.00,1.3336
5654.00,1.3338
5653.00,1.3337
5652.00,1.3331
5651.00,1.3319
5650.00,1.3300
5649.00,1.3276
5648.00,1.3248
5647.00,1.3217
5646.00,1.3185
5645.00,1.3150
5644.00,1.3110
5643.00,1.3062
5642.00,1.3008
5641.00,1.2946
5640.00,1.2879
5639.00,1.2808
5638.00,1.2735
5637.00,1.2659
5636.00,1.2581
5635.00,1.2499
5634.00,1.2412
5633.00,1.2319
5632.00,1.2219
5631.00,1.2112
5630.00,1.1997
5629.00,1.1880
5628.00,1.1761
5627.00,1.1643
5626.00,1.1522
5625.00,1.1399
5624.00,1.1272
5623.00,1.1140
5622.00,1.1003
5621.00,1.0861
5620.00,1.0717
5619.00,1.0572
5618.00,1.0426
5617.00,1.0279
5616.00,1.0130
5615.00,0.9980
5614.00,0.9831
5613.00,0.9681
5612.00,0.9533
5611.00,0.9386
5610.00,0.9241
5609.00,0.9097
5608.00,0.8955
5607.00,0.8816
5606.00,0.8683
5605.00,0.8556
5604.00,0.8435
5603.00,0.8320
5602.00,0.8212
5601.00,0.8111
5600.00,0.8017
5599.00,0.7931
5598.00,0.7853
5597.00,0.7785
5596.00,0.7726
5595.00,0.7678
5594.00,0.7640
5593.00,0.7612
5592.00,0.7594
5591.00,0.7587
5590.00,0.7591
5589.00,0.7606
5588.00,0.7629
5587.00,0.7662
5586.00,0.7704
5585.00,0.7756
5584.00,0.7817
5583.00,0.7888
5582.00,0.7967
5581.00,0.8055
5580.00,0.8151
5579.00,0.8252
5578.00,0.8358
5577.00,0.8469
5576.00,0.8585
5575.00,0.8705
5574.00,0.8831
5573.00,0.8960
5572.00,0.9093
5571.00,0.9227
5570.00,0.9363
5569.00,0.9499
5568.00,0.9638
5567.00,0.9778
5566.00,0.9920
5565.00,1.0064
5564.00,1.0209
5563.00,1.0352
5562.00,1.0494
5561.00,1.0635
5560.00,1.0776
5559.00,1.0915
5558.00,1.1052
5557.00,1.1187
5556.00,1.1319
5555.00,1.1449
5554.00,1.1576
5553.00,1.1700
5552.00,1.1821
5551.00,1.1939
5550.00,1.2053
5549.00,1.2163
5548.00,1.2271
5547.00,1.2374
5546.00,1.2474
5545.00,1.2571
5544.00,1.2663
5543.00,1.2751
5542.00,1.2836
5541.00,1.2917
5540.00,1.2992
5539.00,1.3061
5538.00,1.3125
5537.00,1.3184
5536.00,1.3238
5535.00,1.3287
5534.00,1.3333
5533.00,1.3377
5532.00,1.3416
5531.00,1.3451
5530.00,1.3480
5529.00,1.3505
5528.00,1.3527
5527.00,1.3543
5526.00,1.3554
5525.00,1.3560
5524.00,1.3562
5523.00,1.3561
5522.00,1.3555
5521.00,1.3546
5520.00,1.3533
5519.00,1.3515
5518.00,1.3490
5517.00,1.3460
5516.00,1.3424
5515.00,1.3383
5514.00,1.3337
5513.00,1.3285
5512.00,1.3228
5511.00,1.3167
5510.00,1.3103
5509.00,1.3036
5508.00,1.2966
5507.00,1.2893
5506.00,1.2813
5505.00,1.2726
5504.00,1.2631
5503.00,1.2529
5502.00,1.2422
5501.00,1.2313
5500.00,1.2201
5499.00,1.2085
5498.00,1.1965
5497.00,1.1841
5496.00,1.1711
5495.00,1.1577
5494.00,1.1440
5493.00,1.1300
5492.00,1.1155
5491.00,1.1006
5490.00,1.0851
5489.00,1.0693
5488.00,1.0534
5487.00,1.0374
5486.00,1.0214
5485.00,1.0055
5484.00,0.9896
5483.00,0.9738
5482.00,0.9578
5481.00,0.9419
5480.00,0.9263
5479.00,0.9111
5478.00,0.8963
5477.00,0.8820
5476.00,0.8680
5475.00,0.8544
5474.00,0.8413
5473.00,0.8289
5472.00,0.8173
5471.00,0.8066
5470.00,0.7968
5469.00,0.7879
5468.00,0.7799
5467.00,0.7728
5466.00,0.7666
5465.00,0.7615
5464.00,0.7574
5463.00,0.7544
5462.00,0.7526
5461.00,0.7521
5460.00,0.7527
5459.00,0.7544
5458.00,0.7572
5457.00,0.7610
5456.00,0.7657
5455.00,0.7713
5454.00,0.7777
5453.00,0.7849
5452.00,0.7931
5451.00,0.8021
5450.00,0.8119
5449.00,0.8224
5448.00,0.8334
5447.00,0.8449
5446.00,0.8569
5445.00,0.8693
5444.00,0.8821
5443.00,0.8953
5442.00,0.9087
5441.00,0.9223
5440.00,0.9361
5439.00,0.9501
5438.00,0.9642
5437.00,0.9783
5436.00,0.9925
5435.00,1.0068
5434.00,1.0211
5433.00,1.0354
5432.00,1.0496
5431.00,1.0638
5430.00,1.0780
5429.00,1.0921
5428.00,1.1060
5427.00,1.1197
5426.00,1.1330
5425.00,1.1460
5424.00,1.1586
5423.00,1.1710
5422.00,1.1833
5421.00,1.1954
5420.00,1.2074
5419.00,1.2191
5418.00,1.2301
5417.00,1.2405
5416.00,1.2503
5415.00,1.2596
5414.00,1.2687
5413.00,1.2775
5412.00,1.2861
5411.00,1.2943
5410.00,1.3023
5409.00,1.3100
5408.00,1.3171
5407.00,1.3239
5406.00,1.3302
5405.00,1.3360
5404.00,1.3412
5403.00,1.3459
5402.00,1.3504
5401.00,1.3545
5400.00,1.3582
5399.00,1.3613
5398.00,1.3640
5397.00,1.3661
5396.00,1.3677
5395.00,1.3687
5394.00,1.3692
5393.00,1.3691
5392.00,1.3685
5391.00,1.3674
5390.00,1.3658
5389.00,1.3639
5388.00,1.3614
5387.00,1.3582
5386.00,1.3545
5385.00,1.3505
5384.00,1.3462
5383.00,1.3415
5382.00,1.3365
5381.00,1.3310
5380.00,1.3249
5379.00,1.3182
5378.00,1.3108
5377.00,1.3028
5376.00,1.2944
5375.00,1.2853
5374.00,1.2758
5373.00,1.2658
5372.00,1.2554
5371.00,1.2446
5370.00,1.2331
5369.00,1.2213
5368.00,1.2091
5367.00,1.1964
5366.00,1.1830
5365.00,1.1691
5364.00,1.1546
5363.00,1.1398
5362.00,1.1247
5361.00,1.1094
5360.00,1.0939
5359.00,1.0780
5358.00,1.0618
5357.00,1.0453
5356.00,1.0286
5355.00,1.0119
5354.00,0.9951
5353.00,0.9783
5352.00,0.9617
5351.00,0.9452
5350.00,0.9290
5349.00,0.9131
5348.00,0.8977
5347.00,0.8827
5346.00,0.8683
5345.00,0.8544
5344.00,0.8410
5343.00,0.8282
5342.00,0.8163
5341.00,0.8054
5340.00,0.7957
5339.00,0.7869
5338.00,0.7789
5337.00,0.7718
5336.00,0.7656
5335.00,0.7606
5334.00,0.7568
5333.00,0.7543
5332.00,0.7531
5331.00,0.7532
5330.00,0.7545
5329.00,0.7571
5328.00,0.7608
5327.00,0.7656
5326.00,0.7715
5325.00,0.7783
5324.00,0.7860
5323.00,0.7946
5322.00,0.8041
5321.00,0.8144
5320.00,0.8256
5319.00,0.8374
5318.00,0.8499
5317.00,0.8629
5316.00,0.8763
5315.00,0.8901
5314.00,0.9043
5313.00,0.9188
5312.00,0.9336
5311.00,0.9485
5310.00,0.9636
5309.00,0.9788
5308.00,0.9941
5307.00,1.0096
5306.00,1.0251
5305.00,1.0407
5304.00,1.0563
5303.00,1.0717
5302.00,1.0871
5301.00,1.1025
5300.00,1.1177
5299.00,1.1327
5298.00,1.1473
5297.00,1.1614
5296.00,1.1752
5295.00,1.1887
5294.00,1.2018
5293.00,1.2145
5292.00,1.2270
5291.00,1.2391
5290.00,1.2510
5289.00,1.2626
5288.00,1.2739
5287.00,1.2847
5286.00,1.2950
5285.00,1.3047
5284.00,1.3138
5283.00,1.3224
5282.00,1.3308
5281.00,1.3389
5280.00,1.3468
5279.00,1.3541
5278.00,1.3607
5277.00,1.3667
5276.00,1.3722
5275.00,1.3772
5274.00,1.3817
5273.00,1.3856
5272.00,1.3891
5271.00,1.3920
5270.00,1.3945
5269.00,1.3965
5268.00,1.3981
5267.00,1.3992
5266.00,1.3998
5265.00,1.3999
5264.00,1.3996
5263.00,1.3991
5262.00,1.3981
5261.00,1.3966
5260.00,1.3945
5259.00,1.3920
5258.00,1.3892
5257.00,1.3861
5256.00,1.3825
5255.00,1.3783
5254.00,1.3734
5253.00,1.3678
5252.00,1.3617
5251.00,1.3552
5250.00,1.3484
5249.00,1.3411
5248.00,1.3333
5247.00,1.3247
5246.00,1.3154
5245.00,1.3058
5244.00,1.2960
5243.00,1.2857
5242.00,1.2750
5241.00,1.2638
5240.00,1.2521
5239.00,1.2399
5238.00,1.2271
5237.00,1.2139
5236.00,1.2001
5235.00,1.1859
5234.00,1.1713
5233.00,1.1562
5232.00,1.1406
5231.00,1.1246
5230.00,1.1083
5229.00,1.0918
5228.00,1.0750
5227.00,1.0580
5226.00,1.0409
5225.00,1.0236
5224.00,1.0063
5223.00,0.9892
5222.00,0.9722
5221.00,0.9554
5220.00,0.9388
5219.00,0.9225
5218.00,0.9064
5217.00,0.8909
5216.00,0.8760
5215.00,0.8617
5214.00,0.8479
5213.00,0.8349
5212.00,0.8226
5211.00,0.8112
5210.00,0.8007
5209.00,0.7914
5208.00,0.7831
5207.00,0.7758
5206.00,0.7697
5205.00,0.7647
5204.00,0.7610
5203.00,0.7585
5202.00,0.7572
5201.00,0.7573
5200.00,0.7586
5199.00,0.7611
5198.00,0.7647
5197.00,0.7696
5196.00,0.7755
5195.00,0.7824
5194.00,0.7903
5193.00,0.7991
5192.00,0.8087
5191.00,0.8192
5190.00,0.8304
5189.00,0.8423
5188.00,0.8548
5187.00,0.8679
5186.00,0.8814
5185.00,0.8955
5184.00,0.9101
5183.00,0.9252
5182.00,0.9405
5181.00,0.9560
5180.00,0.9715
5179.00,0.9872
5178.00,1.0029
5177.00,1.0187
5176.00,1.0345
5175.00,1.0503
5174.00,1.0661
5173.00,1.0819
5172.00,1.0976
5171.00,1.1130
5170.00,1.1282
5169.00,1.1430
5168.00,1.1574
5167.00,1.1717
5166.00,1.1858
5165.00,1.1998
5164.00,1.2136
5163.00,1.2272
5162.00,1.2403
5161.00,1.2528
5160.00,1.2648
5159.00,1.2764
5158.00,1.2874
5157.00,1.2981
5156.00,1.3085
5155.00,1.3186
5154.00,1.3283
5153.00,1.3377
5152.00,1.3467
5151.00,1.3552
5150.00,1.3633
5149.00,1.3707
5148.00,1.3776
5147.00,1.3838
5146.00,1.3894
5145.00,1.3945
5144.00,1.3991
5143.00,1.4034
5142.00,1.4073
5141.00,1.4109
5140.00,1.4140
5139.00,1.4167
5138.00,1.4187
5137.00,1.4200
5136.00,1.4207
5135.00,1.4210
5134.00,1.4209
5133.00,1.4205
5132.00,1.4199
5131.00,1.4189
5130.00,1.4173
5129.00,1.4150
5128.00,1.4119
5127.00,1.4082
5126.00,1.4039
5125.00,1.3992
5124.00,1.3941
5123.00,1.3887
5122.00,1.3828
5121.00,1.3765
5120.00,1.3697
5119.00,1.3624
5118.00,1.3546
5117.00,1.3462
5116.00,1.3373
5115.00,1.3279
5114.00,1.3180
5113.00,1.3075
5112.00,1.2965
5111.00,1.2848
5110.00,1.2726
5109.00,1.2599
5108.00,1.2467
5107.00,1.2330
5106.00,1.2187
5105.00,1.2039
5104.00,1.1886
5103.00,1.1729
5102.00,1.1567
5101.00,1.1401
5100.00,1.1231
5099.00,1.1057
5098.00,1.0881
5097.00,1.0704
5096.00,1.0524
5095.00,1.0344
5094.00,1.0164
5093.00,0.9985
5092.00,0.9806
5091.00,0.9629
5090.00,0.9454
5089.00,0.9282
5088.00,0.9115
5087.00,0.8952
5086.00,0.8795
5085.00,0.8645
5084.00,0.8502
5083.00,0.8367
5082.00,0.8241
5081.00,0.8125
5080.00,0.8019
5079.00,0.7923
5078.00,0.7838
5077.00,0.7765
5076.00,0.7705
5075.00,0.7657
5074.00,0.7623
5073.00,0.7602
5072.00,0.7596
5071.00,0.7602
5070.00,0.7621
5069.00,0.7652
5068.00,0.7696
5067.00,0.7753
5066.00,0.7822
5065.00,0.7902
5064.00,0.7992
5063.00,0.8092
5062.00,0.8200
5061.00,0.8317
5060.00,0.8442
5059.00,0.8574
5058.00,0.8713
5057.00,0.8857
5056.00,0.9006
5055.00,0.9159
5054.00,0.9315
5053.00,0.9475
5052.00,0.9638
5051.00,0.9803
5050.00,0.9969
5049.00,1.0136
5048.00,1.0302
5047.00,1.0468
5046.00,1.0635
5045.00,1.0801
5044.00,1.0968
5043.00,1.1133
5042.00,1.1297
5041.00,1.1457
5040.00,1.1614
5039.00,1.1768
5038.00,1.1919
5037.00,1.2070
5036.00,1.2217
5035.00,1.2361
5034.00,1.2500
5033.00,1.2633
5032.00,1.2761
5031.00,1.2885
5030.00,1.3008
5029.00,1.3130
5028.00,1.3248
5027.00,1.3362
5026.00,1.3469
5025.00,1.3570
5024.00,1.3664
5023.00,1.3751
5022.00,1.3831
5021.00,1.3906
5020.00,1.3976
5019.00,1.4041
5018.00,1.4104
5017.00,1.4163
5016.00,1.4217
5015.00,1.4268
5014.00,1.4315
5013.00,1.4359
5012.00,1.4396
5011.00,1.4428
5010.00,1.4453
5009.00,1.4471
5008.00,1.4484
5007.00,1.4492
5006.00,1.4497
5005.00,1.4498
5004.00,1.4494
5003.00,1.4484
5002.00,1.4470
5001.00,1.4450
5000.00,1.4426
4999.00,1.4397
4998.00,1.4366
4997.00,1.4331
4996.00,1.4289
4995.00,1.4240
4994.00,1.4184
4993.00,1.4123
4992.00,1.4056
4991.00,1.3984
4990.00,1.3907
4989.00,1.3826
4988.00,1.3741
4987.00,1.3650
4986.00,1.3554
4985.00,1.3453
4984.00,1.3348
4983.00,1.3238
4982.00,1.3122
4981.00,1.3000
4980.00,1.2873
4979.00,1.2739
4978.00,1.2599
4977.00,1.2453
4976.00,1.2302
4975.00,1.2147
4974.00,1.1987
4973.00,1.1821
4972.00,1.1650
4971.00,1.1474
4970.00,1.1294
4969.00,1.1111
4968.00,1.0925
4967.00,1.0737
4966.00,1.0547
4965.00,1.0355
4964.00,1.0163
4963.00,0.9971
4962.00,0.9780
4961.00,0.9590
4960.00,0.9403
4959.00,0.9220
4958.00,0.9042
4957.00,0.8868
4956.00,0.8701
4955.00,0.8542
4954.00,0.8390
4953.00,0.8248
4952.00,0.8116
4951.00,0.7995
4950.00,0.7885
4949.00,0.7786
4948.00,0.7701
4947.00,0.7628
4946.00,0.7569
4945.00,0.7524
4944.00,0.7493
4943.00,0.7478
4942.00,0.7477
4941.00,0.7491
4940.00,0.7519
4939.00,0.7561
4938.00,0.7616
4937.00,0.7685
4936.00,0.7765
4935.00,0.7858
4934.00,0.7962
4933.00,0.8077
4932.00,0.8200
4931.00,0.8331
4930.00,0.8469
4929.00,0.8613
4928.00,0.8762
4927.00,0.8916
4926.00,0.9075
4925.00,0.9240
4924.00,0.9408
4923.00,0.9580
4922.00,0.9755
4921.00,0.9931
4920.00,1.0107
4919.00,1.0284
4918.00,1.0460
4917.00,1.0637
4916.00,1.0814
4915.00,1.0989
4914.00,1.1163
4913.00,1.1335
4912.00,1.1503
4911.00,1.1670
4910.00,1.1833
4909.00,1.1994
4908.00,1.2150
4907.00,1.2304
4906.00,1.2455
4905.00,1.2603
4904.00,1.2747
4903.00,1.2886
4902.00,1.3019
4901.00,1.3148
4900.00,1.3272
4899.00,1.3392
4898.00,1.3509
4897.00,1.3621
4896.00,1.3727
4895.00,1.3826
4894.00,1.3920
4893.00,1.4011
4892.00,1.4098
4891.00,1.4181
4890.00,1.4257
4889.00,1.4328
4888.00,1.4392
4887.00,1.4451
4886.00,1.4505
4885.00,1.4555
4884.00,1.4599
4883.00,1.4638
4882.00,1.4671
4881.00,1.4700
4880.00,1.4725
4879.00,1.4745
4878.00,1.4761
4877.00,1.4771
4876.00,1.4774
4875.00,1.4770
4874.00,1.4761
4873.00,1.4748
4872.00,1.4733
4871.00,1.4714
4870.00,1.4690
4869.00,1.4661
4868.00,1.4626
4867.00,1.4585
4866.00,1.4540
4865.00,1.4491
4864.00,1.4437
4863.00,1.4377
4862.00,1.4310
4861.00,1.4237
4860.00,1.4161
4859.00,1.4080
4858.00,1.3995
4857.00,1.3903
4856.00,1.3804
4855.00,1.3698
4854.00,1.3587
4853.00,1.3471
4852.00,1.3350
4851.00,1.3222
4850.00,1.3088
4849.00,1.2947
4848.00,1.2800
4847.00,1.2648
4846.00,1.2491
4845.00,1.2330
4844.00,1.2163
4843.00,1.1989
4842.00,1.1811
4841.00,1.1628
4840.00,1.1441
4839.00,1.1251
4838.00,1.1057
4837.00,1.0859
4836.00,1.0659
4835.00,1.0458
4834.00,1.0256
4833.00,1.0055
4832.00,0.9856
4831.00,0.9660
4830.00,0.9468
4829.00,0.9280
4828.00,0.9096
4827.00,0.8917
4826.00,0.8745
4825.00,0.8582
4824.00,0.8428
4823.00,0.8284
4822.00,0.8152
4821.00,0.8031
4820.00,0.7923
4819.00,0.7827
4818.00,0.7745
4817.00,0.7676
4816.00,0.7623
4815.00,0.7584
4814.00,0.7563
4813.00,0.7557
4812.00,0.7568
4811.00,0.7594
4810.00,0.7634
4809.00,0.7689
4808.00,0.7758
4807.00,0.7840
4806.00,0.7935
4805.00,0.8042
4804.00,0.8160
4803.00,0.8287
4802.00,0.8423
4801.00,0.8567
4800.00,0.8718
4799.00,0.8876
4798.00,0.9039
4797.00,0.9207
4796.00,0.9380
4795.00,0.9556
4794.00,0.9735
4793.00,0.9917
4792.00,1.0101
4791.00,1.0286
4790.00,1.0473
4789.00,1.0658
4788.00,1.0843
4787.00,1.1025
4786.00,1.1207
4785.00,1.1387
4784.00,1.1567
4783.00,1.1744
4782.00,1.1918
4781.00,1.2088
4780.00,1.2253
4779.00,1.2415
4778.00,1.2575
4777.00,1.2734
4776.00,1.2889
4775.00,1.3038
4774.00,1.3181
4773.00,1.3318
4772.00,1.3450
4771.00,1.3576
4770.00,1.3699
4769.00,1.3818
4768.00,1.3933
4767.00,1.4042
4766.00,1.4146
4765.00,1.4242
4764.00,1.4332
4763.00,1.4417
4762.00,1.4497
4761.00,1.4572
4760.00,1.4643
4759.00,1.4709
4758.00,1.4770
4757.00,1.4826
4756.00,1.4876
4755.00,1.4921
4754.00,1.4961
4753.00,1.4995
4752.00,1.5025
4751.00,1.5050
4750.00,1.5070
4749.00,1.5084
4748.00,1.5093
4747.00,1.5097
4746.00,1.5095
4745.00,1.5088
4744.00,1.5074
4743.00,1.5056
4742.00,1.5033
4741.00,1.5007
4740.00,1.4977
4739.00,1.4942
4738.00,1.4903
4737.00,1.4858
4736.00,1.4808
4735.00,1.4751
4734.00,1.4686
4733.00,1.4615
4732.00,1.4539
4731.00,1.4461
4730.00,1.4381
4729.00,1.4299
4728.00,1.4210
4727.00,1.4114
4726.00,1.4010
4725.00,1.3897
4724.00,1.3777
4723.00,1.3650
4722.00,1.3519
4721.00,1.3384
4720.00,1.3244
4719.00,1.3098
4718.00,1.2945
4717.00,1.2786
4716.00,1.2621
4715.00,1.2450
4714.00,1.2275
4713.00,1.2093
4712.00,1.1906
4711.00,1.1712
4710.00,1.1513
4709.00,1.1310
4708.00,1.1105
4707.00,1.0897
4706.00,1.0688
4705.00,1.0478
4704.00,1.0269
4703.00,1.0060
4702.00,0.9854
4701.00,0.9652
4700.00,0.9453
4699.00,0.9260
4698.00,0.9075
4697.00,0.8898
4696.00,0.8731
4695.00,0.8574
4694.00,0.8427
4693.00,0.8293
4692.00,0.8171
4691.00,0.8062
4690.00,0.7968
4689.00,0.7890
4688.00,0.7826
4687.00,0.7778
4686.00,0.7746
4685.00,0.7730
4684.00,0.7731
4683.00,0.7747
4682.00,0.7778
4681.00,0.7824
4680.00,0.7885
4679.00,0.7958
4678.00,0.8044
4677.00,0.8142
4676.00,0.8250
4675.00,0.8368
4674.00,0.8495
4673.00,0.8630
4672.00,0.8773
4671.00,0.8923
4670.00,0.9080
4669.00,0.9242
4668.00,0.9409
4667.00,0.9580
4666.00,0.9754
4665.00,0.9931
4664.00,1.0110
4663.00,1.0291
4662.00,1.0473
4661.00,1.0657
4660.00,1.0842
4659.00,1.1027
4658.00,1.1212
4657.00,1.1396
4656.00,1.1578
4655.00,1.1757
4654.00,1.1936
4653.00,1.2113
4652.00,1.2288
4651.00,1.2460
4650.00,1.2627
4649.00,1.2791
4648.00,1.2951
4647.00,1.3107
4646.00,1.3260
4645.00,1.3410
4644.00,1.3554
4643.00,1.3691
4642.00,1.3823
4641.00,1.3951
4640.00,1.4075
4639.00,1.4193
4638.00,1.4305
4637.00,1.4411
4636.00,1.4513
4635.00,1.4610
4634.00,1.4703
4633.00,1.4792
4632.00,1.4877
4631.00,1.4954
4630.00,1.5024
4629.00,1.5087
4628.00,1.5144
4627.00,1.5195
4626.00,1.5242
4625.00,1.5285
4624.00,1.5323
4623.00,1.5355
4622.00,1.5382
4621.00,1.5405
4620.00,1.5425
4619.00,1.5441
4618.00,1.5451
4617.00,1.5455
4616.00,1.5451
4615.00,1.5440
4614.00,1.5425
4613.00,1.5409
4612.00,1.5390
4611.00,1.5366
4610.00,1.5336
4609.00,1.5298
4608.00,1.5253
4607.00,1.5202
4606.00,1.5147
4605.00,1.5090
4604.00,1.5029
4603.00,1.4963
4602.00,1.4892
4601.00,1.4815
4600.00,1.4731
4599.00,1.4640
4598.00,1.4542
4597.00,1.4438
4596.00,1.4329
4595.00,1.4213
4594.00,1.4091
4593.00,1.3963
4592.00,1.3829
4591.00,1.3691
4590.00,1.3547
4589.00,1.3398
4588.00,1.3240
4587.00,1.3074
4586.00,1.2899
4585.00,1.2717
4584.00,1.2529
4583.00,1.2336
4582.00,1.2139
4581.00,1.1937
4580.00,1.1730
4579.00,1.1520
4578.00,1.1306
4577.00,1.1090
4576.00,1.0871
4575.00,1.0650
4574.00,1.0429
4573.00,1.0208
4572.00,0.9988
4571.00,0.9772
4570.00,0.9561
4569.00,0.9355
4568.00,0.9155
4567.00,0.8964
4566.00,0.8782
4565.00,0.8611
4564.00,0.8450
4563.00,0.8302
4562.00,0.8167
4561.00,0.8046
4560.00,0.7940
4559.00,0.7851
4558.00,0.7779
4557.00,0.7724
4556.00,0.7687
4555.00,0.7668
4554.00,0.7667
4553.00,0.7685
4552.00,0.7721
4551.00,0.7774
4550.00,0.7843
4549.00,0.7928
4548.00,0.8027
4547.00,0.8140
4546.00,0.8266
4545.00,0.8404
4544.00,0.8553
4543.00,0.8712
4542.00,0.8878
4541.00,0.9052
4540.00,0.9231
4539.00,0.9416
4538.00,0.9607
4537.00,0.9801
4536.00,0.9999
4535.00,1.0198
4534.00,1.0400
4533.00,1.0602
4532.00,1.0805
4531.00,1.1007
4530.00,1.1209
4529.00,1.1409
4528.00,1.1608
4527.00,1.1804
4526.00,1.1999
4525.00,1.2191
4524.00,1.2380
4523.00,1.2566
4522.00,1.2747
4521.00,1.2924
4520.00,1.3098
4519.00,1.3267
4518.00,1.3433
4517.00,1.3594
4516.00,1.3749
4515.00,1.3899
4514.00,1.4044
4513.00,1.4183
4512.00,1.4315
4511.00,1.4440
4510.00,1.4558
4509.00,1.4670
4508.00,1.4777
4507.00,1.4880
4506.00,1.4978
4505.00,1.5070
4504.00,1.5157
4503.00,1.5237
4502.00,1.5311
4501.00,1.5380
4500.00,1.5444
4499.00,1.5501
4498.00,1.5555
4497.00,1.5604
4496.00,1.5649
4495.00,1.5688
4494.00,1.5719
4493.00,1.5743
4492.00,1.5761
4491.00,1.5775
4490.00,1.5786
4489.00,1.5794
4488.00,1.5798
4487.00,1.5796
4486.00,1.5789
4485.00,1.5775
4484.00,1.5755
4483.00,1.5729
4482.00,1.5697
4481.00,1.5660
4480.00,1.5619
4479.00,1.5573
4478.00,1.5524
4477.00,1.5469
4476.00,1.5408
4475.00,1.5340
4474.00,1.5264
4473.00,1.5183
4472.00,1.5097
4471.00,1.5008
4470.00,1.4915
4469.00,1.4816
4468.00,1.4709
4467.00,1.4594
4466.00,1.4471
4465.00,1.4342
4464.00,1.4208
4463.00,1.4069
4462.00,1.3922
4461.00,1.3769
4460.00,1.3610
4459.00,1.3446
4458.00,1.3274
4457.00,1.3095
4456.00,1.2908
4455.00,1.2714
4454.00,1.2515
4453.00,1.2310
4452.00,1.2100
4451.00,1.1883
4450.00,1.1662
4449.00,1.1438
4448.00,1.1210
4447.00,1.0982
4446.00,1.0753
4445.00,1.0524
4444.00,1.0296
4443.00,1.0071
4442.00,0.9850
4441.00,0.9634
4440.00,0.9424
4439.00,0.9223
4438.00,0.9031
4437.00,0.8850
4436.00,0.8680
4435.00,0.8524
4434.00,0.8381
4433.00,0.8254
4432.00,0.8142
4431.00,0.8048
4430.00,0.7971
4429.00,0.7913
4428.00,0.7874
4427.00,0.7854
4426.00,0.7853
4425.00,0.7872
4424.00,0.7910
4423.00,0.7966
4422.00,0.8040
4421.00,0.8131
4420.00,0.8236
4419.00,0.8357
4418.00,0.8491
4417.00,0.8638
4416.00,0.8796
4415.00,0.8965
4414.00,0.9142
4413.00,0.9328
4412.00,0.9519
4411.00,0.9717
4410.00,0.9918
4409.00,1.0123
4408.00,1.0330
4407.00,1.0539
4406.00,1.0751
4405.00,1.0964
4404.00,1.1177
4403.00,1.1390
4402.00,1.1602
4401.00,1.1812
4400.00,1.2019
4399.00,1.2223
4398.00,1.2425
4397.00,1.2624
4396.00,1.2820
4395.00,1.3012
4394.00,1.3199
4393.00,1.3382
4392.00,1.3559
4391.00,1.3732
4390.00,1.3899
4389.00,1.4060
4388.00,1.4214
4387.00,1.4363
4386.00,1.4508
4385.00,1.4649
4384.00,1.4785
4383.00,1.4915
4382.00,1.5037
4381.00,1.5153
4380.00,1.5262
4379.00,1.5367
4378.00,1.5466
4377.00,1.5560
4376.00,1.5648
4375.00,1.5732
4374.00,1.5810
4373.00,1.5882
4372.00,1.5948
4371.00,1.6010
4370.00,1.6065
4369.00,1.6115
4368.00,1.6158
4367.00,1.6196
4366.00,1.6230
4365.00,1.6262
4364.00,1.6289
4363.00,1.6312
4362.00,1.6329
4361.00,1.6340
4360.00,1.6345
4359.00,1.6346
4358.00,1.6343
4357.00,1.6338
4356.00,1.6329
4355.00,1.6316
4354.00,1.6295
4353.00,1.6269
4352.00,1.6238
4351.00,1.6203
4350.00,1.6165
4349.00,1.6121
4348.00,1.6071
4347.00,1.6015
4346.00,1.5955
4345.00,1.5891
4344.00,1.5824
4343.00,1.5752
4342.00,1.5673
4341.00,1.5587
4340.00,1.5492
4339.00,1.5389
4338.00,1.5278
4337.00,1.5161
4336.00,1.5038
4335.00,1.4910
4334.00,1.4776
4333.00,1.4638
4332.00,1.4494
4331.00,1.4343
4330.00,1.4186
4329.00,1.4022
4328.00,1.3851
4327.00,1.3673
4326.00,1.3488
4325.00,1.3296
4324.00,1.3097
4323.00,1.2892
4322.00,1.2682
4321.00,1.2468
4320.00,1.2251
4319.00,1.2031
4318.00,1.1809
4317.00,1.1584
4316.00,1.1357
4315.00,1.1131
4314.00,1.0906
4313.00,1.0684
4312.00,1.0466
4311.00,1.0252
4310.00,1.0043
4309.00,0.9841
4308.00,0.9648
4307.00,0.9465
4306.00,0.9294
4305.00,0.9135
4304.00,0.8990
4303.00,0.8860
4302.00,0.8745
4301.00,0.8648
4300.00,0.8569
4299.00,0.8508
4298.00,0.8468
4297.00,0.8447
4296.00,0.8446
4295.00,0.8465
4294.00,0.8504
4293.00,0.8561
4292.00,0.8636
4291.00,0.8726
4290.00,0.8832
4289.00,0.8952
4288.00,0.9085
4287.00,0.9229
4286.00,0.9382
4285.00,0.9542
4284.00,0.9709
4283.00,0.9882
4282.00,1.0062
4281.00,1.0247
4280.00,1.0436
4279.00,1.0629
4278.00,1.0823
4277.00,1.1020
4276.00,1.1219
4275.00,1.1418
4274.00,1.1616
4273.00,1.1814
4272.00,1.2011
4271.00,1.2207
4270.00,1.2402
4269.00,1.2596
4268.00,1.2787
4267.00,1.2976
4266.00,1.3163
4265.00,1.3347
4264.00,1.3528
4263.00,1.3704
4262.00,1.3877
4261.00,1.4045
4260.00,1.4209
4259.00,1.4368
4258.00,1.4523
4257.00,1.4673
4256.00,1.4819
4255.00,1.4961
4254.00,1.5098
4253.00,1.5228
4252.00,1.5352
4251.00,1.5469
4250.00,1.5579
4249.00,1.5686
4248.00,1.5788
4247.00,1.5886
4246.00,1.5978
4245.00,1.6064
4244.00,1.6143
4243.00,1.6216
4242.00,1.6286
4241.00,1.6352
4240.00,1.6415
4239.00,1.6472
4238.00,1.6521
4237.00,1.6561
4236.00,1.6595
4235.00,1.6624
4234.00,1.6650
4233.00,1.6672
4232.00,1.6687
4231.00,1.6697
4230.00,1.6703
4229.00,1.6706
4228.00,1.6704
4227.00,1.6694
4226.00,1.6676
4225.00,1.6652
4224.00,1.6626
4223.00,1.6597
4222.00,1.6564
4221.00,1.6524
4220.00,1.6477
4219.00,1.6427
4218.00,1.6372
4217.00,1.6314
4216.00,1.6249
4215.00,1.6177
4214.00,1.6097
4213.00,1.6012
4212.00,1.5923
4211.00,1.5828
4210.00,1.5728
4209.00,1.5622
4208.00,1.5510
4207.00,1.5391
4206.00,1.5266
4205.00,1.5135
4204.00,1.4997
4203.00,1.4851
4202.00,1.4699
4201.00,1.4538
4200.00,1.4370
4199.00,1.4194
4198.00,1.4012
4197.00,1.3826
4196.00,1.3634
4195.00,1.3436
4194.00,1.3231
4193.00,1.3021
4192.00,1.2805
4191.00,1.2583
4190.00,1.2356
4189.00,1.2125
4188.00,1.1893
4187.00,1.1659
4186.00,1.1427
4185.00,1.1195
4184.00,1.0965
4183.00,1.0736
4182.00,1.0510
4181.00,1.0290
4180.00,1.0075
4179.00,0.9868
4178.00,0.9670
4177.00,0.9483
4176.00,0.9308
4175.00,0.9146
4174.00,0.9000
4173.00,0.8869
4172.00,0.8756
4171.00,0.8661
4170.00,0.8584
4169.00,0.8527
4168.00,0.8489
4167.00,0.8472
4166.00,0.8476
4165.00,0.8500
4164.00,0.8544
4163.00,0.8608
4162.00,0.8689
4161.00,0.8789
4160.00,0.8904
4159.00,0.9035
4158.00,0.9180
4157.00,0.9337
4156.00,0.9505
4155.00,0.9683
4154.00,0.9870
4153.00,1.0064
4152.00,1.0265
4151.00,1.0470
4150.00,1.0679
4149.00,1.0891
4148.00,1.1106
4147.00,1.1324
4146.00,1.1543
4145.00,1.1763
4144.00,1.1983
4143.00,1.2201
4142.00,1.2418
4141.00,1.2632
4140.00,1.2844
4139.00,1.3054
4138.00,1.3262
4137.00,1.3467
4136.00,1.3669
4135.00,1.3866
4134.00,1.4058
4133.00,1.4245
4132.00,1.4428
4131.00,1.4606
4130.00,1.4778
4129.00,1.4943
4128.00,1.5101
4127.00,1.5253
4126.00,1.5400
4125.00,1.5541
4124.00,1.5677
4123.00,1.5807
4122.00,1.5931
4121.00,1.6047
4120.00,1.6155
4119.00,1.6254
4118.00,1.6348
4117.00,1.6440
4116.00,1.6531
4115.00,1.6620
4114.00,1.6702
4113.00,1.6774
4112.00,1.6838
4111.00,1.6894
4110.00,1.6945
4109.00,1.6990
4108.00,1.7030
4107.00,1.7065
4106.00,1.7101
4105.00,1.7135
4104.00,1.7166
4103.00,1.7187
4102.00,1.7197
4101.00,1.7200
4100.00,1.7197
4099.00,1.7191
4098.00,1.7181
4097.00,1.7166
4096.00,1.7145
4095.00,1.7122
4094.00,1.7097
4093.00,1.7068
4092.00,1.7033
4091.00,1.6990
4090.00,1.6939
4089.00,1.6881
4088.00,1.6818
4087.00,1.6752
4086.00,1.6682
4085.00,1.6606
4084.00,1.6526
4083.00,1.6440
4082.00,1.6349
4081.00,1.6251
4080.00,1.6145
4079.00,1.6032
4078.00,1.5914
4077.00,1.5790
4076.00,1.5661
4075.00,1.5524
4074.00,1.5378
4073.00,1.5223
4072.00,1.5061
4071.00,1.4893
4070.00,1.4717
4069.00,1.4533
4068.00,1.4340
4067.00,1.4139
4066.00,1.3930
4065.00,1.3714
4064.00,1.3491
4063.00,1.3261
4062.00,1.3024
4061.00,1.2781
4060.00,1.2532
4059.00,1.2280
4058.00,1.2026
4057.00,1.1770
4056.00,1.1513
4055.00,1.1257
4054.00,1.1002
4053.00,1.0751
4052.00,1.0506
4051.00,1.0268
4050.00,1.0039
4049.00,0.9822
4048.00,0.9616
4047.00,0.9425
4046.00,0.9249
4045.00,0.9088
4044.00,0.8946
4043.00,0.8821
4042.00,0.8716
4041.00,0.8631
4040.00,0.8568
4039.00,0.8527
4038.00,0.8508
4037.00,0.8512
4036.00,0.8538
4035.00,0.8585
4034.00,0.8655
4033.00,0.8745
4032.00,0.8855
4031.00,0.8984
4030.00,0.9130
4029.00,0.9292
4028.00,0.9468
4027.00,0.9656
4026.00,0.9856
4025.00,1.0064
4024.00,1.0280
4023.00,1.0501
4022.00,1.0728
4021.00,1.0958
4020.00,1.1192
4019.00,1.1429
4018.00,1.1667
4017.00,1.1904
4016.00,1.2140
4015.00,1.2375
4014.00,1.2607
4013.00,1.2837
4012.00,1.3064
4011.00,1.3289
4010.00,1.3510
4009.00,1.3726
4008.00,1.3937
4007.00,1.4142
4006.00,1.4343
4005.00,1.4538
4004.00,1.4730
4003.00,1.4917
4002.00,1.5098
4001.00,1.5274
4000.00,1.5444
3999.00,1.5609
3998.00,1.5767
3997.00,1.5918
3996.00,1.6061
3995.00,1.6196
3994.00,1.6324
3993.00,1.6444
3992.00,1.6558
3991.00,1.6667
3990.00,1.6772
3989.00,1.6871
3988.00,1.6966
3987.00,1.7053
3986.00,1.7133
3985.00,1.7205
3984.00,1.7268
3983.00,1.7325
3982.00,1.7379
3981.00,1.7430
3980.00,1.7479
3979.00,1.7523
3978.00,1.7562
3977.00,1.7594
3976.00,1.7619
3975.00,1.7637
3974.00,1.7649
3973.00,1.7655
3972.00,1.7658
3971.00,1.7658
3970.00,1.7652
3969.00,1.7640
3968.00,1.7621
3967.00,1.7595
3966.00,1.7563
3965.00,1.7526
3964.00,1.7483
3963.00,1.7436
3962.00,1.7387
3961.00,1.7334
3960.00,1.7276
3959.00,1.7212
3958.00,1.7143
3957.00,1.7068
3956.00,1.6988
3955.00,1.6903
3954.00,1.6813
3953.00,1.6715
3952.00,1.6609
3951.00,1.6496
3950.00,1.6377
3949.00,1.6253
3948.00,1.6124
3947.00,1.5990
3946.00,1.5849
3945.00,1.5701
3944.00,1.5546
3943.00,1.5382
3942.00,1.5210
3941.00,1.5031
3940.00,1.4847
3939.00,1.4657
3938.00,1.4461
3937.00,1.4258
3936.00,1.4045
3935.00,1.3823
3934.00,1.3590
3933.00,1.3346
3932.00,1.3093
3931.00,1.2831
3930.00,1.2566
3929.00,1.2298
3928.00,1.2030
3927.00,1.1758
3926.00,1.1483
3925.00,1.1204
3924.00,1.0927
3923.00,1.0656
3922.00,1.0393
3921.00,1.0140
3920.00,0.9896
3919.00,0.9662
3918.00,0.9438
3917.00,0.9226
3916.00,0.9030
3915.00,0.8856
3914.00,0.8707
3913.00,0.8587
3912.00,0.8494
3911.00,0.8429
3910.00,0.8392
3909.00,0.8382
3908.00,0.8399
3907.00,0.8444
3906.00,0.8514
3905.00,0.8610
3904.00,0.8729
3903.00,0.8867
3902.00,0.9021
3901.00,0.9190
3900.00,0.9377
3899.00,0.9581
3898.00,0.9800
3897.00,1.0027
3896.00,1.0260
3895.00,1.0498
3894.00,1.0741
3893.00,1.0991
3892.00,1.1251
3891.00,1.1522
3890.00,1.1796
3889.00,1.2062
3888.00,1.2314
3887.00,1.2560
3886.00,1.2810
3885.00,1.3067
3884.00,1.3325
3883.00,1.3576
3882.00,1.3816
3881.00,1.4053
3880.00,1.4289
3879.00,1.4522
3878.00,1.4746
3877.00,1.4958
3876.00,1.5158
3875.00,1.5351
3874.00,1.5537
3873.00,1.5716
3872.00,1.5888
3871.00,1.6055
3870.00,1.6220
3869.00,1.6385
3868.00,1.6543
3867.00,1.6689
3866.00,1.6822
3865.00,1.6948
3864.00,1.7068
3863.00,1.7183
3862.00,1.7292
3861.00,1.7393
3860.00,1.7487
3859.00,1.7574
3858.00,1.7655
3857.00,1.7730
3856.00,1.7800
3855.00,1.7863
3854.00,1.7918
3853.00,1.7964
3852.00,1.8003
3851.00,1.8039
3850.00,1.8076
3849.00,1.8112
3848.00,1.8144
3847.00,1.8171
3846.00,1.8193
3845.00,1.8207
3844.00,1.8213
3843.00,1.8210
3842.00,1.8199
3841.00,1.8181
3840.00,1.8159
3839.00,1.8134
3838.00,1.8104
3837.00,1.8067
3836.00,1.8024
3835.00,1.7978
3834.00,1.7929
3833.00,1.7876
3832.00,1.7817
3831.00,1.7748
3830.00,1.7671
3829.00,1.7588
3828.00,1.7502
3827.00,1.7414
3826.00,1.7322
3825.00,1.7230
3824.00,1.7137
3823.00,1.7035
3822.00,1.6912
3821.00,1.6766
3820.00,1.6603
3819.00,1.6439
3818.00,1.6278
3817.00,1.6111
3816.00,1.5931
3815.00,1.5738
3814.00,1.5538
3813.00,1.5339
3812.00,1.5141
3811.00,1.4941
3810.00,1.4737
3809.00,1.4522
3808.00,1.4283
3807.00,1.4015
3806.00,1.3729
3805.00,1.3446
3804.00,1.3171
3803.00,1.2892
3802.00,1.2591
3801.00,1.2267
3800.00,1.1941
3799.00,1.1628
3798.00,1.1332
3797.00,1.1044
3796.00,1.0760
3795.00,1.0482
3794.00,1.0216
3793.00,0.9966
3792.00,0.9734
3791.00,0.9519
3790.00,0.9322
3789.00,0.9145
3788.00,0.8990
3787.00,0.8859
3786.00,0.8753
3785.00,0.8674
3784.00,0.8624
3783.00,0.8604
3782.00,0.8614
3781.00,0.8654
3780.00,0.8723
3779.00,0.8819
3778.00,0.8937
3777.00,0.9075
3776.00,0.9234
3775.00,0.9415
3774.00,0.9615
3773.00,0.9830
3772.00,1.0056
3771.00,1.0295
3770.00,1.0549
3769.00,1.0812
3768.00,1.1080
3767.00,1.1346
3766.00,1.1614
3765.00,1.1887
3764.00,1.2163
3763.00,1.2435
3762.00,1.2701
3761.00,1.2964
3760.00,1.3228
3759.00,1.3495
3758.00,1.3761
3757.00,1.4023
3756.00,1.4274
3755.00,1.4510
3754.00,1.4730
3753.00,1.4943
3752.00,1.5158
3751.00,1.5379
3750.00,1.5607
3749.00,1.5833
3748.00,1.6045
3747.00,1.6237
3746.00,1.6412
3745.00,1.6581
3744.00,1.6749
3743.00,1.6911
3742.00,1.7058
3741.00,1.7190
3740.00,1.7308
3739.00,1.7417
3738.00,1.7519
3737.00,1.7615
3736.00,1.7707
3735.00,1.7793
3734.00,1.7875
3733.00,1.7952
3732.00,1.8029
3731.00,1.8109
3730.00,1.8190
3729.00,1.8271
3728.00,1.8350
3727.00,1.8424
3726.00,1.8495
3725.00,1.8563
3724.00,1.8626
3723.00,1.8681
3722.00,1.8725
3721.00,1.8759
3720.00,1.8786
3719.00,1.8805
3718.00,1.8816
3717.00,1.8817
3716.00,1.8805
3715.00,1.8779
3714.00,1.8738
3713.00,1.8682
3712.00,1.8615
3711.00,1.8545
3710.00,1.8480
3709.00,1.8420
3708.00,1.8356
3707.00,1.8287
3706.00,1.8217
3705.00,1.8155
3704.00,1.8099
3703.00,1.8037
3702.00,1.7962
3701.00,1.7870
3700.00,1.7765
3699.00,1.7650
3698.00,1.7531
3697.00,1.7406
3696.00,1.7273
3695.00,1.7132
3694.00,1.6983
3693.00,1.6825
3692.00,1.6654
3691.00,1.6468
3690.00,1.6267
3689.00,1.6050
3688.00,1.5817
3687.00,1.5578
3686.00,1.5345
3685.00,1.5122
3684.00,1.4904
3683.00,1.4683
3682.00,1.4454
3681.00,1.4216
3680.00,1.3972
3679.00,1.3728
3678.00,1.3490
3677.00,1.3244
3676.00,1.2978
3675.00,1.2696
3674.00,1.2423
3673.00,1.2183
3672.00,1.1976
3671.00,1.1789
3670.00,1.1610
3669.00,1.1440
3668.00,1.1287
3667.00,1.1163
3666.00,1.1072
3665.00,1.1013
3664.00,1.0983
3663.00,1.0976
3662.00,1.0991
3661.00,1.1027
3660.00,1.1084
3659.00,1.1163
3658.00,1.1264
3657.00,1.1386
3656.00,1.1527
3655.00,1.1681
3654.00,1.1844
3653.00,1.2016
3652.00,1.2199
3651.00,1.2394
3650.00,1.2606
3649.00,1.2834
3648.00,1.3071
3647.00,1.3307
3646.00,1.3539
3645.00,1.3767
3644.00,1.3994
3643.00,1.4223
3642.00,1.4453
3641.00,1.4681
3640.00,1.4906
3639.00,1.5128
3638.00,1.5346
3637.00,1.5560
3636.00,1.5771
3635.00,1.5977
3634.00,1.6180
3633.00,1.6377
3632.00,1.6565
3631.00,1.6747
3630.00,1.6926
3629.00,1.7110
3628.00,1.7301
3627.00,1.7493
3626.00,1.7677
3625.00,1.7853
3624.00,1.8022
3623.00,1.8185
3622.00,1.8342
3621.00,1.8492
3620.00,1.8639
3619.00,1.8784
3618.00,1.8921
3617.00,1.9045
3616.00,1.9156
3615.00,1.9260
3614.00,1.9360
3613.00,1.9456
3612.00,1.9543
3611.00,1.9615
3610.00,1.9674
3609.00,1.9732
3608.00,1.9798
3607.00,1.9870
3606.00,1.9937
3605.00,1.9994
3604.00,2.0045
3603.00,2.0094
3602.00,2.0144
3601.00,2.0192
3600.00,2.0235
3599.00,2.0271
3598.00,2.0301
3597.00,2.0325
3596.00,2.0341
3595.00,2.0348
3594.00,2.0345
3593.00,2.0337
3592.00,2.0331
3591.00,2.0325
3590.00,2.0318
3589.00,2.0306
3588.00,2.0291
3587.00,2.0273
3586.00,2.0249
3585.00,2.0221
3584.00,2.0191
3583.00,2.0164
3582.00,2.0139
3581.00,2.0113
3580.00,2.0083
3579.00,2.0045
3578.00,2.0000
3577.00,1.9947
3576.00,1.9890
3575.00,1.9831
3574.00,1.9770
3573.00,1.9709
3572.00,1.9648
3571.00,1.9584
3570.00,1.9515
3569.00,1.9435
3568.00,1.9342
3567.00,1.9240
3566.00,1.9137
3565.00,1.9039
3564.00,1.8948
3563.00,1.8859
3562.00,1.8766
3561.00,1.8666
3560.00,1.8562
3559.00,1.8454
3558.00,1.8345
3557.00,1.8235
3556.00,1.8124
3555.00,1.8011
3554.00,1.7897
3553.00,1.7782
3552.00,1.7666
3551.00,1.7552
3550.00,1.7440
3549.00,1.7330
3548.00,1.7220
3547.00,1.7109
3546.00,1.6999
3545.00,1.6892
3544.00,1.6789
3543.00,1.6692
3542.00,1.6601
3541.00,1.6517
3540.00,1.6439
3539.00,1.6366
3538.00,1.6295
3537.00,1.6229
3536.00,1.6169
3535.00,1.6118
3534.00,1.6075
3533.00,1.6039
3532.00,1.6009
3531.00,1.5984
3530.00,1.5966
3529.00,1.5955
3528.00,1.5953
3527.00,1.5960
3526.00,1.5973
3525.00,1.5993
3524.00,1.6022
3523.00,1.6061
3522.00,1.6106
3521.00,1.6156
3520.00,1.6211
3519.00,1.6272
3518.00,1.6339
3517.00,1.6412
3516.00,1.6488
3515.00,1.6567
3514.00,1.6648
3513.00,1.6731
3512.00,1.6818
3511.00,1.6908
3510.00,1.7002
3509.00,1.7100
3508.00,1.7204
3507.00,1.7310
3506.00,1.7418
3505.00,1.7527
3504.00,1.7636
3503.00,1.7745
3502.00,1.7855
3501.00,1.7968
3500.00,1.8084
3499.00,1.8201
3498.00,1.8317
3497.00,1.8431
3496.00,1.8544
3495.00,1.8656
3494.00,1.8769
3493.00,1.8883
3492.00,1.8997
3491.00,1.9111
3490.00,1.9222
3489.00,1.9331
3488.00,1.9436
3487.00,1.9537
3486.00,1.9635
3485.00,1.9730
3484.00,1.9826
3483.00,1.9922
3482.00,2.0017
3481.00,2.0107
3480.00,2.0189
3479.00,2.0267
3478.00,2.0346
3477.00,2.0428
3476.00,2.0511
3475.00,2.0588
3474.00,2.0656
3473.00,2.0717
3472.00,2.0772
3471.00,2.0823
3470.00,2.0870
3469.00,2.0914
3468.00,2.0957
3467.00,2.0997
3466.00,2.1030
3465.00,2.1056
3464.00,2.1082
3463.00,2.1110
3462.00,2.1138
3461.00,2.1161
3460.00,2.1178
3459.00,2.1190
3458.00,2.1202
3457.00,2.1213
3456.00,2.1218
3455.00,2.1220
3454.00,2.1217
3453.00,2.1212
3452.00,2.1200
3451.00,2.1180
3450.00,2.1154
3449.00,2.1126
3448.00,2.1097
3447.00,2.1065
3446.00,2.1033
3445.00,2.0998
3444.00,2.0958
3443.00,2.0907
3442.00,2.0847
3441.00,2.0786
3440.00,2.0727
3439.00,2.0668
3438.00,2.0601
3437.00,2.0526
3436.00,2.0442
3435.00,2.0354
3434.00,2.0262
3433.00,2.0167
3432.00,2.0069
3431.00,1.9967
3430.00,1.9862
3429.00,1.9756
3428.00,1.9652
3427.00,1.9548
3426.00,1.9440
3425.00,1.9327
3424.00,1.9210
3423.00,1.9090
3422.00,1.8970
3421.00,1.8852
3420.00,1.8738
3419.00,1.8631
3418.00,1.8528
3417.00,1.8428
3416.00,1.8326
3415.00,1.8223
3414.00,1.8120
3413.00,1.8020
3412.00,1.7924
3411.00,1.7831
3410.00,1.7739
3409.00,1.7648
3408.00,1.7557
3407.00,1.7466
3406.00,1.7371
3405.00,1.7272
3404.00,1.7166
3403.00,1.7054
3402.00,1.6938
3401.00,1.6818
3400.00,1.6693
3399.00,1.6564
3398.00,1.6433
3397.00,1.6303
3396.00,1.6175
3395.00,1.6051
3394.00,1.5935
3393.00,1.5827
3392.00,1.5730
3391.00,1.5645
3390.00,1.5573
3389.00,1.5516
3388.00,1.5472
3387.00,1.5442
3386.00,1.5425
3385.00,1.5423
3384.00,1.5436
3383.00,1.5466
3382.00,1.5512
3381.00,1.5571
3380.00,1.5644
3379.00,1.5729
3378.00,1.5825
3377.00,1.5932
3376.00,1.6049
3375.00,1.6175
3374.00,1.6309
3373.00,1.6450
3372.00,1.6598
3371.00,1.6751
3370.00,1.6909
3369.00,1.7070
3368.00,1.7234
3367.00,1.7399
3366.00,1.7564
3365.00,1.7728
3364.00,1.7891
3363.00,1.8055
3362.00,1.8220
3361.00,1.8384
3360.00,1.8545
3359.00,1.8704
3358.00,1.8858
3357.00,1.9007
3356.00,1.9151
3355.00,1.9291
3354.00,1.9428
3353.00,1.9560
3352.00,1.9689
3351.00,1.9814
3350.00,1.9938
3349.00,2.0061
3348.00,2.0181
3347.00,2.0293
3346.00,2.0394
3345.00,2.0484
3344.00,2.0566
3343.00,2.0642
3342.00,2.0713
3341.00,2.0783
3340.00,2.0852
3339.00,2.0919
3338.00,2.0981
3337.00,2.1036
3336.00,2.1085
3335.00,2.1128
3334.00,2.1166
3333.00,2.1199
3332.00,2.1228
3331.00,2.1254
3330.00,2.1276
3329.00,2.1296
3328.00,2.1313
3327.00,2.1327
3326.00,2.1336
3325.00,2.1335
3324.00,2.1325
3323.00,2.1307
3322.00,2.1283
3321.00,2.1254
3320.00,2.1222
3319.00,2.1189
3318.00,2.1158
3317.00,2.1127
3316.00,2.1089
3315.00,2.1041
3314.00,2.0984
3313.00,2.0920
3312.00,2.0852
3311.00,2.0780
3310.00,2.0704
3309.00,2.0623
3308.00,2.0538
3307.00,2.0449
3306.00,2.0356
3305.00,2.0257
3304.00,2.0154
3303.00,2.0047
3302.00,1.9937
3301.00,1.9824
3300.00,1.9700
3299.00,1.9564
3298.00,1.9418
3297.00,1.9267
3296.00,1.9115
3295.00,1.8959
3294.00,1.8798
3293.00,1.8633
3292.00,1.8465
3291.00,1.8294
3290.00,1.8120
3289.00,1.7942
3288.00,1.7759
3287.00,1.7575
3286.00,1.7388
3285.00,1.7203
3284.00,1.7018
3283.00,1.6833
3282.00,1.6648
3281.00,1.6463
3280.00,1.6281
3279.00,1.6106
3278.00,1.5939
3277.00,1.5780
3276.00,1.5629
3275.00,1.5488
3274.00,1.5357
3273.00,1.5239
3272.00,1.5134
3271.00,1.5044
3270.00,1.4968
3269.00,1.4909
3268.00,1.4865
3267.00,1.4838
3266.00,1.4828
3265.00,1.4834
3264.00,1.4855
3263.00,1.4892
3262.00,1.4942
3261.00,1.5008
3260.00,1.5089
3259.00,1.5184
3258.00,1.5291
3257.00,1.5410
3256.00,1.5540
3255.00,1.5679
3254.00,1.5827
3253.00,1.5983
3252.00,1.6147
3251.00,1.6316
3250.00,1.6490
3249.00,1.6668
3248.00,1.6849
3247.00,1.7031
3246.00,1.7213
3245.00,1.7394
3244.00,1.7577
3243.00,1.7763
3242.00,1.7951
3241.00,1.8139
3240.00,1.8324
3239.00,1.8502
3238.00,1.8674
3237.00,1.8840
3236.00,1.9005
3235.00,1.9171
3234.00,1.9334
3233.00,1.9493
3232.00,1.9644
3231.00,1.9790
3230.00,1.9931
3229.00,2.0066
3228.00,2.0197
3227.00,2.0324
3226.00,2.0449
3225.00,2.0572
3224.00,2.0692
3223.00,2.0804
3222.00,2.0911
3221.00,2.1013
3220.00,2.1111
3219.00,2.1202
3218.00,2.1285
3217.00,2.1361
3216.00,2.1435
3215.00,2.1505
3214.00,2.1570
3213.00,2.1629
3212.00,2.1684
3211.00,2.1739
3210.00,2.1793
3209.00,2.1843
3208.00,2.1885
3207.00,2.1919
3206.00,2.1948
3205.00,2.1975
3204.00,2.1995
3203.00,2.2008
3202.00,2.2015
3201.00,2.2021
3200.00,2.2027
3199.00,2.2031
3198.00,2.2028
3197.00,2.2018
3196.00,2.2000
3195.00,2.1975
3194.00,2.1942
3193.00,2.1905
3192.00,2.1867
3191.00,2.1830
3190.00,2.1791
3189.00,2.1747
3188.00,2.1697
3187.00,2.1639
3186.00,2.1575
3185.00,2.1504
3184.00,2.1425
3183.00,2.1339
3182.00,2.1251
3181.00,2.1161
3180.00,2.1070
3179.00,2.0974
3178.00,2.0874
3177.00,2.0772
3176.00,2.0667
3175.00,2.0554
3174.00,2.0433
3173.00,2.0307
3172.00,2.0175
3171.00,2.0032
3170.00,1.9878
3169.00,1.9718
3168.00,1.9558
3167.00,1.9399
3166.00,1.9238
3165.00,1.9070
3164.00,1.8897
3163.00,1.8718
3162.00,1.8536
3161.00,1.8353
3160.00,1.8170
3159.00,1.7988
3158.00,1.7804
3157.00,1.7619
3156.00,1.7435
3155.00,1.7253
3154.00,1.7074
3153.00,1.6898
3152.00,1.6727
3151.00,1.6561
3150.00,1.6404
3149.00,1.6257
3148.00,1.6122
3147.00,1.5998
3146.00,1.5888
3145.00,1.5790
3144.00,1.5710
3143.00,1.5646
3142.00,1.5600
3141.00,1.5570
3140.00,1.5558
3139.00,1.5563
3138.00,1.5585
3137.00,1.5625
3136.00,1.5684
3135.00,1.5759
3134.00,1.5850
3133.00,1.5954
3132.00,1.6071
3131.00,1.6200
3130.00,1.6342
3129.00,1.6496
3128.00,1.6658
3127.00,1.6827
3126.00,1.7002
3125.00,1.7184
3124.00,1.7374
3123.00,1.7568
3122.00,1.7765
3121.00,1.7960
3120.00,1.8156
3119.00,1.8352
3118.00,1.8550
3117.00,1.8749
3116.00,1.8946
3115.00,1.9134
3114.00,1.9313
3113.00,1.9485
3112.00,1.9657
3111.00,1.9831
3110.00,2.0005
3109.00,2.0173
3108.00,2.0330
3107.00,2.0476
3106.00,2.0617
3105.00,2.0754
3104.00,2.0888
3103.00,2.1016
3102.00,2.1136
3101.00,2.1252
3100.00,2.1364
3099.00,2.1470
3098.00,2.1568
3097.00,2.1659
3096.00,2.1747
3095.00,2.1833
3094.00,2.1916
3093.00,2.1996
3092.00,2.2076
3091.00,2.2157
3090.00,2.2238
3089.00,2.2310
3088.00,2.2369
3087.00,2.2416
3086.00,2.2458
3085.00,2.2495
3084.00,2.2527
3083.00,2.2550
3082.00,2.2566
3081.00,2.2578
3080.00,2.2588
3079.00,2.2595
3078.00,2.2598
3077.00,2.2599
3076.00,2.2594
3075.00,2.2579
3074.00,2.2550
3073.00,2.2510
3072.00,2.2463
3071.00,2.2411
3070.00,2.2357
3069.00,2.2303
3068.00,2.2248
3067.00,2.2188
3066.00,2.2117
3065.00,2.2031
3064.00,2.1931
3063.00,2.1823
3062.00,2.1710
3061.00,2.1595
3060.00,2.1474
3059.00,2.1346
3058.00,2.1213
3057.00,2.1079
3056.00,2.0942
3055.00,2.0798
3054.00,2.0645
3053.00,2.0481
3052.00,2.0309
3051.00,2.0129
3050.00,1.9941
3049.00,1.9743
3048.00,1.9539
3047.00,1.9330
3046.00,1.9118
3045.00,1.8902
3044.00,1.8683
3043.00,1.8460
3042.00,1.8235
3041.00,1.8012
3040.00,1.7796
3039.00,1.7589
3038.00,1.7394
3037.00,1.7215
3036.00,1.7052
3035.00,1.6911
3034.00,1.6792
3033.00,1.6698
3032.00,1.6631
3031.00,1.6592
3030.00,1.6582
3029.00,1.6600
3028.00,1.6645
3027.00,1.6714
3026.00,1.6809
3025.00,1.6931
3024.00,1.7079
3023.00,1.7249
3022.00,1.7439
3021.00,1.7646
3020.00,1.7867
3019.00,1.8100
3018.00,1.8343
3017.00,1.8597
3016.00,1.8860
3015.00,1.9130
3014.00,1.9404
3013.00,1.9680
3012.00,1.9959
3011.00,2.0235
3010.00,2.0507
3009.00,2.0775
3008.00,2.1040
3007.00,2.1299
3006.00,2.1549
3005.00,2.1791
3004.00,2.2027
3003.00,2.2254
3002.00,2.2467
3001.00,2.2660
3000.00,2.2838
2999.00,2.3006
2998.00,2.3169
2997.00,2.3324
2996.00,2.3464
2995.00,2.3586
2994.00,2.3692
2993.00,2.3790
2992.00,2.3880
2991.00,2.3964
2990.00,2.4041
2989.00,2.4110
2988.00,2.4172
2987.00,2.4219
2986.00,2.4253
2985.00,2.4282
2984.00,2.4314
2983.00,2.4358
2982.00,2.4420
2981.00,2.4510
2980.00,2.4642
2979.00,2.4827
2978.00,2.5077
2977.00,2.5399
2976.00,2.5796
2975.00,2.6263
2974.00,2.6801
2973.00,2.7418
2972.00,2.8119
2971.00,2.8887
2970.00,2.9696
2969.00,3.0533
2968.00,3.1414
2967.00,3.2371
2966.00,3.3439
2965.00,3.4647
2964.00,3.5969
2963.00,3.7295
2962.00,3.8481
2961.00,3.9459
2960.00,4.0273
2959.00,4.1026
2958.00,4.1751
2957.00,4.2319
2956.00,4.2471
2955.00,4.2201
2954.00,4.1877
2953.00,4.1898
2952.00,4.2458
2951.00,4.3326
2950.00,4.3770
2949.00,4.3370
2948.00,4.2612
2947.00,4.2050
2946.00,4.1869
2945.00,4.2015
2944.00,4.2235
2943.00,4.2277
2942.00,4.2250
2941.00,4.2422
2940.00,4.2751
2939.00,4.2777
2938.00,4.2310
2937.00,4.1764
2936.00,4.1479
2935.00,4.1475
2934.00,4.1705
2933.00,4.2297
2932.00,4.3527
2931.00,4.5361
2930.00,4.6490
2929.00,4.5274
2928.00,4.3255
2927.00,4.1831
2926.00,4.1051
2925.00,4.0695
2924.00,4.0595
2923.00,4.0629
2922.00,4.0539
2921.00,4.0150
2920.00,3.9563
2919.00,3.8855
2918.00,3.7971
2917.00,3.6926
2916.00,3.5941
2915.00,3.5148
2914.00,3.4513
2913.00,3.3939
2912.00,3.3377
2911.00,3.2861
2910.00,3.2430
2909.00,3.2094
2908.00,3.1841
2907.00,3.1655
2906.00,3.1517
2905.00,3.1389
2904.00,3.1222
2903.00,3.0986
2902.00,3.0698
2901.00,3.0409
2900.00,3.0160
2899.00,2.9963
2898.00,2.9814
2897.00,2.9700
2896.00,2.9601
2895.00,2.9488
2894.00,2.9349
2893.00,2.9197
2892.00,2.9067
2891.00,2.8978
2890.00,2.8923
2889.00,2.8878
2888.00,2.8819
2887.00,2.8745
2886.00,2.8685
2885.00,2.8677
2884.00,2.8741
2883.00,2.8873
2882.00,2.9046
2881.00,2.9232
2880.00,2.9421
2879.00,2.9628
2878.00,2.9884
2877.00,3.0212
2876.00,3.0608
2875.00,3.1060
2874.00,3.1579
2873.00,3.2197
2872.00,3.2916
2871.00,3.3664
2870.00,3.4347
2869.00,3.4960
2868.00,3.5575
2867.00,3.6223
2866.00,3.6837
2865.00,3.7329
2864.00,3.7672
2863.00,3.7888
2862.00,3.7971
2861.00,3.7855
2860.00,3.7435
2859.00,3.6694
2858.00,3.5778
2857.00,3.4876
2856.00,3.4070
2855.00,3.3312
2854.00,3.2519
2853.00,3.1655
2852.00,3.0756
2851.00,2.9885
2850.00,2.9095
2849.00,2.8413
2848.00,2.7836
2847.00,2.7338
2846.00,2.6885
2845.00,2.6458
2844.00,2.6060
2843.00,2.5699
2842.00,2.5373
2841.00,2.5069
2840.00,2.4773
2839.00,2.4473
2838.00,2.4167
2837.00,2.3857
2836.00,2.3548
2835.00,2.3243
2834.00,2.2944
2833.00,2.2649
2832.00,2.2356
2831.00,2.2066
2830.00,2.1778
2829.00,2.1492
2828.00,2.1202
2827.00,2.0906
2826.00,2.0602
2825.00,2.0293
2824.00,1.9977
2823.00,1.9652
2822.00,1.9316
2821.00,1.8974
2820.00,1.8638
2819.00,1.8317
2818.00,1.8023
2817.00,1.7765
2816.00,1.7550
2815.00,1.7384
2814.00,1.7271
2813.00,1.7213
2812.00,1.7209
2811.00,1.7257
2810.00,1.7354
2809.00,1.7493
2808.00,1.7670
2807.00,1.7878
2806.00,1.8110
2805.00,1.8364
2804.00,1.8639
2803.00,1.8928
2802.00,1.9224
2801.00,1.9521
2800.00,1.9815
2799.00,2.0103
2798.00,2.0379
2797.00,2.0637
2796.00,2.0874
2795.00,2.1094
2794.00,2.1302
2793.00,2.1502
2792.00,2.1697
2791.00,2.1883
2790.00,2.2061
2789.00,2.2231
2788.00,2.2397
2787.00,2.2561
2786.00,2.2722
2785.00,2.2877
2784.00,2.3021
2783.00,2.3152
2782.00,2.3275
2781.00,2.3395
2780.00,2.3506
2779.00,2.3603
2778.00,2.3680
2777.00,2.3750
2776.00,2.3821
2775.00,2.3893
2774.00,2.3955
2773.00,2.4000
2772.00,2.4032
2771.00,2.4058
2770.00,2.4082
2769.00,2.4101
2768.00,2.4113
2767.00,2.4118
2766.00,2.4115
2765.00,2.4107
2764.00,2.4095
2763.00,2.4076
2762.00,2.4049
2761.00,2.4014
2760.00,2.3973
2759.00,2.3924
2758.00,2.3859
2757.00,2.3775
2756.00,2.3675
2755.00,2.3570
2754.00,2.3466
2753.00,2.3362
2752.00,2.3253
2751.00,2.3136
2750.00,2.3012
2749.00,2.2880
2748.00,2.2738
2747.00,2.2583
2746.00,2.2414
2745.00,2.2237
2744.00,2.2052
2743.00,2.1855
2742.00,2.1642
2741.00,2.1415
2740.00,2.1178
2739.00,2.0936
2738.00,2.0684
2737.00,2.0422
2736.00,2.0149
2735.00,1.9862
2734.00,1.9562
2733.00,1.9245
2732.00,1.8912
2731.00,1.8564
2730.00,1.8201
2729.00,1.7827
2728.00,1.7445
2727.00,1.7058
2726.00,1.6671
2725.00,1.6285
2724.00,1.5905
2723.00,1.5537
2722.00,1.5186
2721.00,1.4859
2720.00,1.4561
2719.00,1.4298
2718.00,1.4075
2717.00,1.3896
2716.00,1.3761
2715.00,1.3674
2714.00,1.3634
2713.00,1.3643
2712.00,1.3702
2711.00,1.3808
2710.00,1.3959
2709.00,1.4151
2708.00,1.4379
2707.00,1.4638
2706.00,1.4925
2705.00,1.5237
2704.00,1.5568
2703.00,1.5915
2702.00,1.6270
2701.00,1.6631
2700.00,1.6994
2699.00,1.7357
2698.00,1.7721
2697.00,1.8084
2696.00,1.8445
2695.00,1.8796
2694.00,1.9136
2693.00,1.9466
2692.00,1.9786
2691.00,2.0099
2690.00,2.0405
2689.00,2.0702
2688.00,2.0992
2687.00,2.1269
2686.00,2.1531
2685.00,2.1780
2684.00,2.2019
2683.00,2.2246
2682.00,2.2457
2681.00,2.2651
2680.00,2.2834
2679.00,2.3007
2678.00,2.3172
2677.00,2.3328
2676.00,2.3473
2675.00,2.3604
2674.00,2.3718
2673.00,2.3819
2672.00,2.3914
2671.00,2.4004
2670.00,2.4082
2669.00,2.4148
2668.00,2.4206
2667.00,2.4267
2666.00,2.4336
2665.00,2.4406
2664.00,2.4465
2663.00,2.4512
2662.00,2.4555
2661.00,2.4604
2660.00,2.4662
2659.00,2.4721
2658.00,2.4769
2657.00,2.4803
2656.00,2.4826
2655.00,2.4841
2654.00,2.4853
2653.00,2.4863
2652.00,2.4871
2651.00,2.4868
2650.00,2.4852
2649.00,2.4826
2648.00,2.4802
2647.00,2.4783
2646.00,2.4767
2645.00,2.4750
2644.00,2.4729
2643.00,2.4705
2642.00,2.4679
2641.00,2.4648
2640.00,2.4608
2639.00,2.4549
2638.00,2.4465
2637.00,2.4360
2636.00,2.4244
2635.00,2.4125
2634.00,2.4009
2633.00,2.3900
2632.00,2.3795
2631.00,2.3688
2630.00,2.3570
2629.00,2.3439
2628.00,2.3294
2627.00,2.3136
2626.00,2.2965
2625.00,2.2787
2624.00,2.2606
2623.00,2.2424
2622.00,2.2240
2621.00,2.2047
2620.00,2.1843
2619.00,2.1627
2618.00,2.1403
2617.00,2.1171
2616.00,2.0931
2615.00,2.0682
2614.00,2.0425
2613.00,2.0159
2612.00,1.9883
2611.00,1.9590
2610.00,1.9280
2609.00,1.8952
2608.00,1.8610
2607.00,1.8255
2606.00,1.7888
2605.00,1.7511
2604.00,1.7124
2603.00,1.6732
2602.00,1.6339
2601.00,1.5953
2600.00,1.5579
2599.00,1.5226
2598.00,1.4899
2597.00,1.4604
2596.00,1.4348
2595.00,1.4136
2594.00,1.3972
2593.00,1.3861
2592.00,1.3802
2591.00,1.3797
2590.00,1.3844
2589.00,1.3939
2588.00,1.4081
2587.00,1.4263
2586.00,1.4481
2585.00,1.4728
2584.00,1.5002
2583.00,1.5298
2582.00,1.5612
2581.00,1.5943
2580.00,1.6287
2579.00,1.6639
2578.00,1.6996
2577.00,1.7354
2576.00,1.7713
2575.00,1.8071
2574.00,1.8425
2573.00,1.8776
2572.00,1.9123
2571.00,1.9460
2570.00,1.9783
2569.00,2.0093
2568.00,2.0390
2567.00,2.0677
2566.00,2.0957
2565.00,2.1229
2564.00,2.1490
2563.00,2.1737
2562.00,2.1968
2561.00,2.2189
2560.00,2.2409
2559.00,2.2630
2558.00,2.2848
2557.00,2.3054
2556.00,2.3247
2555.00,2.3426
2554.00,2.3592
2553.00,2.3745
2552.00,2.3890
2551.00,2.4034
2550.00,2.4179
2549.00,2.4321
2548.00,2.4451
2547.00,2.4566
2546.00,2.4668
2545.00,2.4762
2544.00,2.4855
2543.00,2.4950
2542.00,2.5040
2541.00,2.5121
2540.00,2.5194
2539.00,2.5263
2538.00,2.5326
2537.00,2.5380
2536.00,2.5423
2535.00,2.5459
2534.00,2.5490
2533.00,2.5516
2532.00,2.5534
2531.00,2.5549
2530.00,2.5564
2529.00,2.5579
2528.00,2.5588
2527.00,2.5584
2526.00,2.5573
2525.00,2.5565
2524.00,2.5564
2523.00,2.5562
2522.00,2.5548
2521.00,2.5517
2520.00,2.5474
2519.00,2.5428
2518.00,2.5381
2517.00,2.5328
2516.00,2.5266
2515.00,2.5195
2514.00,2.5115
2513.00,2.5030
2512.00,2.4943
2511.00,2.4857
2510.00,2.4767
2509.00,2.4670
2508.00,2.4564
2507.00,2.4447
2506.00,2.4322
2505.00,2.4186
2504.00,2.4036
2503.00,2.3874
2502.00,2.3708
2501.00,2.3540
2500.00,2.3369
2499.00,2.3190
2498.00,2.2999
2497.00,2.2793
2496.00,2.2574
2495.00,2.2341
2494.00,2.2097
2493.00,2.1842
2492.00,2.1576
2491.00,2.1296
2490.00,2.1003
2489.00,2.0693
2488.00,2.0365
2487.00,2.0017
2486.00,1.9650
2485.00,1.9267
2484.00,1.8869
2483.00,1.8456
2482.00,1.8027
2481.00,1.7584
2480.00,1.7131
2479.00,1.6673
2478.00,1.6218
2477.00,1.5772
2476.00,1.5342
2475.00,1.4935
2474.00,1.4560
2473.00,1.4225
2472.00,1.3935
2471.00,1.3696
2470.00,1.3511
2469.00,1.3384
2468.00,1.3316
2467.00,1.3305
2466.00,1.3348
2465.00,1.3445
2464.00,1.3591
2463.00,1.3784
2462.00,1.4021
2461.00,1.4297
2460.00,1.4608
2459.00,1.4947
2458.00,1.5310
2457.00,1.5689
2456.00,1.6082
2455.00,1.6485
2454.00,1.6895
2453.00,1.7308
2452.00,1.7719
2451.00,1.8127
2450.00,1.8530
2449.00,1.8927
2448.00,1.9318
2447.00,1.9699
2446.00,2.0068
2445.00,2.0425
2444.00,2.0770
2443.00,2.1101
2442.00,2.1419
2441.00,2.1721
2440.00,2.2011
2439.00,2.2289
2438.00,2.2560
2437.00,2.2825
2436.00,2.3081
2435.00,2.3321
2434.00,2.3540
2433.00,2.3741
2432.00,2.3931
2431.00,2.4115
2430.00,2.4295
2429.00,2.4468
2428.00,2.4632
2427.00,2.4784
2426.00,2.4924
2425.00,2.5049
2424.00,2.5163
2423.00,2.5271
2422.00,2.5379
2421.00,2.5484
2420.00,2.5579
2419.00,2.5659
2418.00,2.5731
2417.00,2.5808
2416.00,2.5889
2415.00,2.5966
2414.00,2.6034
2413.00,2.6095
2412.00,2.6153
2411.00,2.6205
2410.00,2.6249
2409.00,2.6279
2408.00,2.6295
2407.00,2.6299
2406.00,2.6305
2405.00,2.6325
2404.00,2.6352
2403.00,2.6367
2402.00,2.6363
2401.00,2.6353
2400.00,2.6356
2399.00,2.6373
2398.00,2.6383
2397.00,2.6365
2396.00,2.6317
2395.00,2.6254
2394.00,2.6198
2393.00,2.6155
2392.00,2.6114
2391.00,2.6063
2390.00,2.5997
2389.00,2.5920
2388.00,2.5838
2387.00,2.5752
2386.00,2.5667
2385.00,2.5584
2384.00,2.5497
2383.00,2.5394
2382.00,2.5269
2381.00,2.5131
2380.00,2.4990
2379.00,2.4868
2378.00,2.4625
2377.00,2.4642
2376.00,2.4115
2375.00,2.4571
2374.00,2.3350
2373.00,2.5398
2372.00,1.9977
2371.00,1.7842
2370.00,1.8133
2369.00,1.7687
2368.00,1.7607
2367.00,1.7291
2366.00,1.7052
2365.00,1.6747
2364.00,1.6451
2363.00,1.6159
2362.00,1.5882
2361.00,1.5610
2360.00,1.5357
2359.00,1.5125
2358.00,1.4884
2357.00,1.4627
2356.00,1.4360
2355.00,1.4122
2354.00,1.3954
2353.00,1.3830
2352.00,1.3752
2351.00,1.3692
2350.00,1.3601
2349.00,1.3422
2348.00,1.3201
2347.00,1.3106
2346.00,1.3127
2345.00,1.3117
2344.00,1.2946
2343.00,1.2671
2342.00,1.2502
2341.00,1.2528
2340.00,1.2717
2339.00,1.2911
2338.00,1.2974
2337.00,1.3076
2336.00,1.3022
2335.00,1.3273
2334.00,1.3001
2333.00,1.4554
2332.00,1.6709
2331.00,1.6373
2330.00,1.7189
2329.00,1.7360
2328.00,1.7928
2327.00,1.8259
2326.00,1.8709
2325.00,1.9106
2324.00,1.9512
2323.00,1.9914
2322.00,2.0307
2321.00,2.0690
2320.00,2.1059
2319.00,2.1414
2318.00,2.1755
2317.00,2.2084
2316.00,2.2407
2315.00,2.2727
2314.00,2.3039
2313.00,2.3333
2312.00,2.3601
2311.00,2.3838
2310.00,2.4051
2309.00,2.4256
2308.00,2.4466
2307.00,2.4684
2306.00,2.4900
2305.00,2.5098
2304.00,2.5271
2303.00,2.5423
2302.00,2.5569
2301.00,2.5694
2300.00,2.5872
2299.00,2.5931
2298.00,2.6198
2297.00,2.6046
2296.00,2.6673
2295.00,2.5084
2294.00,2.4177
2293.00,2.4781
2292.00,2.4861
2291.00,2.5294
2290.00,2.5545
2289.00,2.5857
2288.00,2.6049
2287.00,2.6207
2286.00,2.6332
2285.00,2.6447
2284.00,2.6557
2283.00,2.6652
2282.00,2.6723
2281.00,2.6772
2280.00,2.6816
2279.00,2.6865
2278.00,2.6914
2277.00,2.6961
2276.00,2.7006
2275.00,2.7056
2274.00,2.7111
2273.00,2.7165
2272.00,2.7203
2271.00,2.7212
2270.00,2.7186
2269.00,2.7132
2268.00,2.7067
2267.00,2.7006
2266.00,2.6951
2265.00,2.6898
2264.00,2.6835
2263.00,2.6749
2262.00,2.6636
2261.00,2.6511
2260.00,2.6388
2259.00,2.6273
2258.00,2.6162
2257.00,2.6050
2256.00,2.5938
2255.00,2.5822
2254.00,2.5696
2253.00,2.5562
2252.00,2.5426
2251.00,2.5287
2250.00,2.5137
2249.00,2.4976
2248.00,2.4807
2247.00,2.4628
2246.00,2.4425
2245.00,2.4194
2244.00,2.3946
2243.00,2.3698
2242.00,2.3448
2241.00,2.3183
2240.00,2.2893
2239.00,2.2583
2238.00,2.2260
2237.00,2.1922
2236.00,2.1566
2235.00,2.1190
2234.00,2.0795
2233.00,2.0382
2232.00,1.9949
2231.00,1.9493
2230.00,1.9013
2229.00,1.8511
2228.00,1.7995
2227.00,1.7476
2226.00,1.6964
2225.00,1.6467
2224.00,1.5991
2223.00,1.5545
2222.00,1.5138
2221.00,1.4780
2220.00,1.4479
2219.00,1.4244
2218.00,1.4081
2217.00,1.3995
2216.00,1.3990
2215.00,1.4063
2214.00,1.4210
2213.00,1.4425
2212.00,1.4697
2211.00,1.5019
2210.00,1.5382
2209.00,1.5778
2208.00,1.6201
2207.00,1.6644
2206.00,1.7104
2205.00,1.7574
2204.00,1.8047
2203.00,1.8519
2202.00,1.8986
2201.00,1.9448
2200.00,1.9902
2199.00,2.0343
2198.00,2.0769
2197.00,2.1182
2196.00,2.1583
2195.00,2.1973
2194.00,2.2350
2193.00,2.2711
2192.00,2.3053
2191.00,2.3373
2190.00,2.3680
2189.00,2.3979
2188.00,2.4268
2187.00,2.4538
2186.00,2.4786
2185.00,2.5015
2184.00,2.5231
2183.00,2.5437
2182.00,2.5634
2181.00,2.5823
2180.00,2.5998
2179.00,2.6152
2178.00,2.6289
2177.00,2.6426
2176.00,2.6570
2175.00,2.6712
2174.00,2.6839
2173.00,2.6953
2172.00,2.7068
2171.00,2.7184
2170.00,2.7291
2169.00,2.7386
2168.00,2.7471
2167.00,2.7553
2166.00,2.7635
2165.00,2.7716
2164.00,2.7794
2163.00,2.7862
2162.00,2.7914
2161.00,2.7959
2160.00,2.8006
2159.00,2.8056
2158.00,2.8100
2157.00,2.8132
2156.00,2.8162
2155.00,2.8202
2154.00,2.8247
2153.00,2.8278
2152.00,2.8280
2151.00,2.8261
2150.00,2.8239
2149.00,2.8223
2148.00,2.8203
2147.00,2.8170
2146.00,2.8117
2145.00,2.8053
2144.00,2.7988
2143.00,2.7932
2142.00,2.7889
2141.00,2.7857
2140.00,2.7828
2139.00,2.7790
2138.00,2.7735
2137.00,2.7665
2136.00,2.7583
2135.00,2.7491
2134.00,2.7389
2133.00,2.7278
2132.00,2.7159
2131.00,2.7031
2130.00,2.6900
2129.00,2.6774
2128.00,2.6657
2127.00,2.6539
2126.00,2.6403
2125.00,2.6240
2124.00,2.6055
2123.00,2.5857
2122.00,2.5654
2121.00,2.5447
2120.00,2.5236
2119.00,2.5014
2118.00,2.4774
2117.00,2.4511
2116.00,2.4230
2115.00,2.3938
2114.00,2.3635
2113.00,2.3318
2112.00,2.2984
2111.00,2.2630
2110.00,2.2257
2109.00,2.1860
2108.00,2.1437
2107.00,2.0987
2106.00,2.0518
2105.00,2.0035
2104.00,1.9542
2103.00,1.9041
2102.00,1.8533
2101.00,1.8028
2100.00,1.7533
2099.00,1.7058
2098.00,1.6614
2097.00,1.6208
2096.00,1.5848
2095.00,1.5541
2094.00,1.5293
2093.00,1.5111
2092.00,1.4998
2091.00,1.4959
2090.00,1.4993
2089.00,1.5102
2088.00,1.5281
2087.00,1.5525
2086.00,1.5826
2085.00,1.6179
2084.00,1.6575
2083.00,1.7007
2082.00,1.7467
2081.00,1.7949
2080.00,1.8446
2079.00,1.8951
2078.00,1.9458
2077.00,1.9961
2076.00,2.0458
2075.00,2.0944
2074.00,2.1419
2073.00,2.1884
2072.00,2.2334
2071.00,2.2763
2070.00,2.3164
2069.00,2.3535
2068.00,2.3872
2067.00,2.4177
2066.00,2.4462
2065.00,2.4741
2064.00,2.5019
2063.00,2.5284
2062.00,2.5522
2061.00,2.5732
2060.00,2.5926
2059.00,2.6107
2058.00,2.6280
2057.00,2.6451
2056.00,2.6634
2055.00,2.6835
2054.00,2.7040
2053.00,2.7226
2052.00,2.7383
2051.00,2.7521
2050.00,2.7659
2049.00,2.7802
2048.00,2.7938
2047.00,2.8058
2046.00,2.8166
2045.00,2.8268
2044.00,2.8362
2043.00,2.8443
2042.00,2.8512
2041.00,2.8582
2040.00,2.8660
2039.00,2.8745
2038.00,2.8826
2037.00,2.8894
2036.00,2.8944
2035.00,2.8980
2034.00,2.9012
2033.00,2.9048
2032.00,2.9081
2031.00,2.9099
2030.00,2.9102
2029.00,2.9101
2028.00,2.9098
2027.00,2.9090
2026.00,2.9077
2025.00,2.9074
2024.00,2.9088
2023.00,2.9109
2022.00,2.9117
2021.00,2.9100
2020.00,2.9058
2019.00,2.8997
2018.00,2.8924
2017.00,2.8847
2016.00,2.8771
2015.00,2.8696
2014.00,2.8622
2013.00,2.8553
2012.00,2.8484
2011.00,2.8409
2010.00,2.8322
2009.00,2.8224
2008.00,2.8112
2007.00,2.7980
2006.00,2.7829
2005.00,2.7668
2004.00,2.7507
2003.00,2.7352
2002.00,2.7201
2001.00,2.7050
2000.00,2.6896
1999.00,2.6727
1998.00,2.6533
1997.00,2.6309
1996.00,2.6057
1995.00,2.5784
1994.00,2.5500
1993.00,2.5209
1992.00,2.4912
1991.00,2.4605
1990.00,2.4283
1989.00,2.3941
1988.00,2.3580
1987.00,2.3199
1986.00,2.2801
1985.00,2.2387
1984.00,2.1956
1983.00,2.1504
1982.00,2.1033
1981.00,2.0549
1980.00,2.0062
1979.00,1.9574
1978.00,1.9089
1977.00,1.8608
1976.00,1.8138
1975.00,1.7685
1974.00,1.7261
1973.00,1.6874
1972.00,1.6535
1971.00,1.6253
1970.00,1.6039
1969.00,1.5903
1968.00,1.5852
1967.00,1.5895
1966.00,1.6032
1965.00,1.6258
1964.00,1.6558
1963.00,1.6920
1962.00,1.7331
1961.00,1.7785
1960.00,1.8270
1959.00,1.8774
1958.00,1.9288
1957.00,1.9808
1956.00,2.0333
1955.00,2.0857
1954.00,2.1371
1953.00,2.1867
1952.00,2.2346
1951.00,2.2807
1950.00,2.3251
1949.00,2.3673
1948.00,2.4069
1947.00,2.4439
1946.00,2.4776
1945.00,2.5085
1944.00,2.5378
1943.00,2.5673
1942.00,2.5972
1941.00,2.6262
1940.00,2.6524
1939.00,2.6754
1938.00,2.6965
1937.00,2.7177
1936.00,2.7398
1935.00,2.7620
1934.00,2.7827
1933.00,2.8018
1932.00,2.8205
1931.00,2.8392
1930.00,2.8567
1929.00,2.8721
1928.00,2.8864
1927.00,2.9008
1926.00,2.9142
1925.00,2.9245
1924.00,2.9309
1923.00,2.9360
1922.00,2.9434
1921.00,2.9549
1920.00,2.9696
1919.00,2.9836
1918.00,2.9918
1917.00,2.9927
1916.00,2.9904
1915.00,2.9901
1914.00,2.9929
1913.00,2.9959
1912.00,2.9965
1911.00,2.9950
1910.00,2.9934
1909.00,2.9931
1908.00,2.9941
1907.00,2.9957
1906.00,2.9976
1905.00,2.9999
1904.00,3.0020
1903.00,3.0022
1902.00,2.9999
1901.00,2.9964
1900.00,2.9936
1899.00,2.9915
1898.00,2.9876
1897.00,2.9802
1896.00,2.9701
1895.00,2.9598
1894.00,2.9501
1893.00,2.9399
1892.00,2.9279
1891.00,2.9142
1890.00,2.8997
1889.00,2.8852
1888.00,2.8706
1887.00,2.8553
1886.00,2.8399
1885.00,2.8249
1884.00,2.8095
1883.00,2.7919
1882.00,2.7708
1881.00,2.7476
1880.00,2.7248
1879.00,2.7033
1878.00,2.6816
1877.00,2.6579
1876.00,2.6315
1875.00,2.6024
1874.00,2.5706
1873.00,2.5367
1872.00,2.5024
1871.00,2.4684
1870.00,2.4324
1869.00,2.3910
1868.00,2.3436
1867.00,2.2919
1866.00,2.2379
1865.00,2.1816
1864.00,2.1227
1863.00,2.0606
1862.00,1.9962
1861.00,1.9319
1860.00,1.8702
1859.00,1.8134
1858.00,1.7636
1857.00,1.7228
1856.00,1.6927
1855.00,1.6745
1854.00,1.6687
1853.00,1.6760
1852.00,1.6958
1851.00,1.7270
1850.00,1.7678
1849.00,1.8161
1848.00,1.8702
1847.00,1.9281
1846.00,1.9895
1845.00,2.0543
1844.00,2.1204
1843.00,2.1860
1842.00,2.2509
1841.00,2.3147
1840.00,2.3753
1839.00,2.4315
1838.00,2.4827
1837.00,2.5300
1836.00,2.5753
1835.00,2.6195
1834.00,2.6623
1833.00,2.7035
1832.00,2.7423
1831.00,2.7768
1830.00,2.8041
1829.00,2.8260
1828.00,2.8483
1827.00,2.8750
1826.00,2.9045
1825.00,2.9321
1824.00,2.9548
1823.00,2.9728
1822.00,2.9878
1821.00,3.0010
1820.00,3.0141
1819.00,3.0292
1818.00,3.0467
1817.00,3.0653
1816.00,3.0818
1815.00,3.0938
1814.00,3.1018
1813.00,3.1095
1812.00,3.1205
1811.00,3.1351
1810.00,3.1488
1809.00,3.1560
1808.00,3.1548
1807.00,3.1478
1806.00,3.1399
1805.00,3.1352
1804.00,3.1357
1803.00,3.1409
1802.00,3.1473
1801.00,3.1502
1800.00,3.1465
1799.00,3.1366
1798.00,3.1239
1797.00,3.1119
1796.00,3.1018
1795.00,3.0918
1794.00,3.0802
1793.00,3.0648
1792.00,3.0448
1791.00,3.0222
1790.00,2.9997
1789.00,2.9766
1788.00,2.9501
1787.00,2.9180
1786.00,2.8817
1785.00,2.8447
1784.00,2.8098
1783.00,2.7757
1782.00,2.7377
1781.00,2.6930
1780.00,2.6447
1779.00,2.5983
1778.00,2.5579
1777.00,2.5242
1776.00,2.4962
1775.00,2.4752
1774.00,2.4677
1773.00,2.4789
1772.00,2.5063
1771.00,2.5431
1770.00,2.5833
1769.00,2.6240
1768.00,2.6650
1767.00,2.7054
1766.00,2.7440
1765.00,2.7814
1764.00,2.8200
1763.00,2.8606
1762.00,2.9007
1761.00,2.9392
1760.00,2.9798
1759.00,3.0250
1758.00,3.0735
1757.00,3.1229
1756.00,3.1728
1755.00,3.2240
1754.00,3.2758
1753.00,3.3279
1752.00,3.3828
1751.00,3.4397
1750.00,3.4940
1749.00,3.5438
1748.00,3.5915
1747.00,3.6426
1746.00,3.7028
1745.00,3.7743
1744.00,3.8499
1743.00,3.9141
1742.00,3.9552
1741.00,3.9797
1740.00,4.0040
1739.00,4.0374
1738.00,4.0829
1737.00,4.1442
1736.00,4.2275
1735.00,4.3175
1734.00,4.3462
1733.00,4.3023
1732.00,4.2827
1731.00,4.3246
1730.00,4.3846
1729.00,4.4501
1728.00,4.5736
1727.00,4.7587
1726.00,4.8528
1725.00,4.8596
1724.00,5.1862
1723.00,5.0795
1722.00,4.5533
1721.00,4.3926
1720.00,4.3797
1719.00,4.5260
1718.00,4.7106
1717.00,4.4353
1716.00,4.2264
1715.00,4.1908
1714.00,4.2528
1713.00,4.3690
1712.00,4.4691
1711.00,4.4907
1710.00,4.4410
1709.00,4.4003
1708.00,4.4308
1707.00,4.5484
1706.00,4.7343
1705.00,4.8601
1704.00,4.7507
1703.00,4.5490
1702.00,4.4140
1701.00,4.3837
1700.00,4.4481
1699.00,4.5709
1698.00,4.6545
1697.00,4.5803
1696.00,4.4618
1695.00,4.4463
1694.00,4.6650
1693.00,4.7804
1692.00,4.3791
1691.00,4.1034
1690.00,3.9164
1689.00,3.7830
1688.00,3.6883
1687.00,3.6102
1686.00,3.5464
1685.00,3.5030
1684.00,3.4805
1683.00,3.4727
1682.00,3.4728
1681.00,3.4730
1680.00,3.4702
1679.00,3.4660
1678.00,3.4638
1677.00,3.4668
1676.00,3.4727
1675.00,3.4690
1674.00,3.4504
1673.00,3.4312
1672.00,3.4236
1671.00,3.4232
1670.00,3.4162
1669.00,3.3964
1668.00,3.3726
1667.00,3.3544
1666.00,3.3399
1665.00,3.3237
1664.00,3.3047
1663.00,3.2809
1662.00,3.2484
1661.00,3.2075
1660.00,3.1628
1659.00,3.1208
1658.00,3.0805
1657.00,3.0459
1656.00,2.9952
1655.00,2.9497
1654.00,2.8765
1653.00,2.8448
1652.00,2.8360
1651.00,2.7852
1650.00,2.7614
1649.00,2.7350
1648.00,2.7110
1647.00,2.6889
1646.00,2.6631
1645.00,2.6334
1644.00,2.6220
1643.00,2.6223
1642.00,2.6269
1641.00,2.6320
1640.00,2.6404
1639.00,2.6510
1638.00,2.6619
1637.00,2.6752
1636.00,2.6917
1635.00,2.7054
1634.00,2.7141
1633.00,2.7246
1632.00,2.7384
1631.00,2.7537
1630.00,2.7722
1629.00,2.7935
1628.00,2.8139
1627.00,2.8314
1626.00,2.8487
1625.00,2.8705
1624.00,2.8981
1623.00,2.9280
1622.00,2.9574
1621.00,2.9854
1620.00,3.0078
1619.00,3.0189
1618.00,3.0204
1617.00,3.0218
1616.00,3.0337
1615.00,3.0617
1614.00,3.0981
1613.00,3.1285
1612.00,3.1480
1611.00,3.1611
1610.00,3.1729
1609.00,3.1863
1608.00,3.2046
1607.00,3.2275
1606.00,3.2488
1605.00,3.2605
1604.00,3.2616
1603.00,3.2586
1602.00,3.2586
1601.00,3.2632
1600.00,3.2700
1599.00,3.2752
1598.00,3.2772
1597.00,3.2770
1596.00,3.2770
1595.00,3.2789
1594.00,3.2822
1593.00,3.2842
1592.00,3.2818
1591.00,3.2745
1590.00,3.2662
1589.00,3.2622
1588.00,3.2627
1587.00,3.2626
1586.00,3.2580
1585.00,3.2502
1584.00,3.2419
1583.00,3.2325
1582.00,3.2201
1581.00,3.2054
1580.00,3.1861
1579.00,3.1546
1578.00,3.1096
1577.00,3.0632
1576.00,3.0292
1575.00,3.0114
1574.00,3.0045
1573.00,2.9984
1572.00,2.9868
1571.00,2.9699
1570.00,2.9451
1569.00,2.9082
1568.00,2.8639
1567.00,2.8207
1566.00,2.7802
1565.00,2.7377
1564.00,2.6861
1563.00,2.6230
1562.00,2.5516
1561.00,2.4895
1560.00,2.4406
1559.00,2.3782
1558.00,2.2981
1557.00,2.2213
1556.00,2.1578
1555.00,2.1005
1554.00,2.0445
1553.00,1.9966
1552.00,1.9614
1551.00,1.9378
1550.00,1.9240
1549.00,1.9213
1548.00,1.9305
1547.00,1.9518
1546.00,1.9843
1545.00,2.0253
1544.00,2.0725
1543.00,2.1241
1542.00,2.1773
1541.00,2.2295
1540.00,2.2837
1539.00,2.3453
1538.00,2.4176
1537.00,2.4981
1536.00,2.5733
1535.00,2.6373
1534.00,2.6942
1533.00,2.7430
1532.00,2.7833
1531.00,2.8199
1530.00,2.8588
1529.00,2.8990
1528.00,2.9338
1527.00,2.9625
1526.00,2.9903
1525.00,3.0180
1524.00,3.0404
1523.00,3.0568
1522.00,3.0739
1521.00,3.0965
1520.00,3.1226
1519.00,3.1484
1518.00,3.1697
1517.00,3.1838
1516.00,3.1954
1515.00,3.2107
1514.00,3.2306
1513.00,3.2496
1512.00,3.2624
1511.00,3.2696
1510.00,3.2747
1509.00,3.2791
1508.00,3.2822
1507.00,3.2879
1506.00,3.2941
1505.00,3.2967
1504.00,3.3115
1503.00,3.3401
1502.00,3.3667
1501.00,3.3852
1500.00,3.3974
1499.00,3.4053
1498.00,3.4038
1497.00,3.3836
1496.00,3.3483
1495.00,3.3217
1494.00,3.3200
1493.00,3.3340
1492.00,3.3452
1491.00,3.3449
1490.00,3.3369
1489.00,3.3302
1488.00,3.3279
1487.00,3.3257
1486.00,3.3198
1485.00,3.3095
1484.00,3.2956
1483.00,3.2796
1482.00,3.2611
1481.00,3.2395
1480.00,3.2177
1479.00,3.2006
1478.00,3.1862
1477.00,3.1642
1476.00,3.1270
1475.00,3.0798
1474.00,3.0357
1473.00,3.0013
1472.00,2.9749
1471.00,2.9562
1470.00,2.9491
1469.00,2.9568
1468.00,2.9792
1467.00,3.0151
1466.00,3.0627
1465.00,3.1162
1464.00,3.1662
1463.00,3.2056
1462.00,3.2330
1461.00,3.2497
1460.00,3.2581
1459.00,3.2669
1458.00,3.2953
1457.00,3.3650
1456.00,3.4822
1455.00,3.6315
1454.00,3.7841
1453.00,3.9217
1452.00,4.0576
1451.00,4.2225
1450.00,4.4440
1449.00,4.6836
1448.00,4.6567
1447.00,4.3889
1446.00,4.1324
1445.00,3.9267
1444.00,3.7659
1443.00,3.6379
1442.00,3.5324
1441.00,3.4456
1440.00,3.3800
1439.00,3.3411
1438.00,3.3342
1437.00,3.3592
1436.00,3.4090
1435.00,3.4743
1434.00,3.5428
1433.00,3.6029
1432.00,3.6564
1431.00,3.7155
1430.00,3.7808
1429.00,3.8288
1428.00,3.8382
1427.00,3.8252
1426.00,3.8190
1425.00,3.8242
1424.00,3.8239
1423.00,3.8030
1422.00,3.7709
1421.00,3.7459
1420.00,3.7243
1419.00,3.6885
1418.00,3.6305
1417.00,3.5562
1416.00,3.4735
1415.00,3.3893
1414.00,3.3093
1413.00,3.2347
1412.00,3.1647
1411.00,3.1016
1410.00,3.0501
1409.00,3.0127
1408.00,2.9887
1407.00,2.9757
1406.00,2.9713
1405.00,2.9725
1404.00,2.9774
1403.00,2.9853
1402.00,2.9972
1401.00,3.0143
1400.00,3.0363
1399.00,3.0600
1398.00,3.0817
1397.00,3.0998
1396.00,3.1181
1395.00,3.1424
1394.00,3.1741
1393.00,3.2085
1392.00,3.2375
1391.00,3.2543
1390.00,3.2602
1389.00,3.2646
1388.00,3.2782
1387.00,3.3047
1386.00,3.3367
1385.00,3.3624
1384.00,3.3784
1383.00,3.3927
1382.00,3.4139
1381.00,3.4424
1380.00,3.4724
1379.00,3.4964
1378.00,3.5101
1377.00,3.5135
1376.00,3.5100
1375.00,3.5025
1374.00,3.4900
1373.00,3.4730
1372.00,3.4585
1371.00,3.4571
1370.00,3.4751
1369.00,3.5134
1368.00,3.5669
1367.00,3.6176
1366.00,3.6347
1365.00,3.6068
1364.00,3.5633
1363.00,3.5406
1362.00,3.5483
1361.00,3.5684
1360.00,3.5808
1359.00,3.5848
1358.00,3.5851
1357.00,3.5788
1356.00,3.5666
1355.00,3.5616
1354.00,3.5741
1353.00,3.5987
1352.00,3.6233
1351.00,3.6487
1350.00,3.6876
1349.00,3.7465
1348.00,3.8182
1347.00,3.8898
1346.00,3.9485
1345.00,3.9744
1344.00,3.9475
1343.00,3.8899
1342.00,3.8503
1341.00,3.8473
1340.00,3.8689
1339.00,3.8935
1338.00,3.9041
1337.00,3.8982
1336.00,3.8882
1335.00,3.8824
1334.00,3.8617
1333.00,3.7943
1332.00,3.6887
1331.00,3.5884
1330.00,3.5201
1329.00,3.4800
1328.00,3.4513
1327.00,3.4243
1326.00,3.3998
1325.00,3.3797
1324.00,3.3655
1323.00,3.3630
1322.00,3.3832
1321.00,3.4347
1320.00,3.5186
1319.00,3.6299
1318.00,3.7626
1317.00,3.9080
1316.00,4.0628
1315.00,4.2195
1314.00,4.4096
1313.00,4.6355
1312.00,4.4903
1311.00,4.2879
1310.00,4.2764
1309.00,4.4820
1308.00,4.5082
1307.00,4.1778
1306.00,4.0204
1305.00,3.9352
1304.00,3.8401
1303.00,3.7323
1302.00,3.6337
1301.00,3.5617
1300.00,3.5055
1299.00,3.4490
1298.00,3.3838
1297.00,3.3123
1296.00,3.2391
1295.00,3.1699
1294.00,3.1093
1293.00,3.0568
1292.00,3.0087
1291.00,2.9636
1290.00,2.9241
1289.00,2.8950
1288.00,2.8790
1287.00,2.8763
1286.00,2.8845
1285.00,2.9002
1284.00,2.9207
1283.00,2.9456
1282.00,2.9781
1281.00,3.0209
1280.00,3.0731
1279.00,3.1288
1278.00,3.1802
1277.00,3.2246
1276.00,3.2655
1275.00,3.3094
1274.00,3.3582
1273.00,3.4049
1272.00,3.4386
1271.00,3.4587
1270.00,3.4791
1269.00,3.5115
1268.00,3.5499
1267.00,3.5762
1266.00,3.5821
1265.00,3.5775
1264.00,3.5758
1263.00,3.5811
1262.00,3.5921
1261.00,3.6073
1260.00,3.6280
1259.00,3.6547
1258.00,3.6842
1257.00,3.7118
1256.00,3.7305
1255.00,3.7316
1254.00,3.7153
1253.00,3.7013
1252.00,3.7122
1251.00,3.7476
1250.00,3.7811
1249.00,3.7829
1248.00,3.7526
1247.00,3.7202
1246.00,3.7066
1245.00,3.7129
1244.00,3.7330
1243.00,3.7575
1242.00,3.7764
1241.00,3.7842
1240.00,3.7880
1239.00,3.7954
1238.00,3.8063
1237.00,3.8258
1236.00,3.8659
1235.00,3.9226
1234.00,3.9643
1233.00,3.9736
1232.00,3.9853
1231.00,4.0424
1230.00,4.1417
1229.00,4.2125
1228.00,4.2220
1227.00,4.2646
1226.00,4.3866
1225.00,4.5062
1224.00,4.4588
1223.00,4.3199
1222.00,4.2659
1221.00,4.3389
1220.00,4.4927
1219.00,4.5597
1218.00,4.5698
1217.00,4.6020
1216.00,4.5045
1215.00,4.3031
1214.00,4.1286
1213.00,4.0232
1212.00,3.9951
1211.00,4.0434
1210.00,4.1259
1209.00,4.1494
1208.00,4.1034
1207.00,4.0440
1206.00,4.0038
1205.00,3.9834
1204.00,3.9665
1203.00,3.9756
1202.00,4.0563
1201.00,4.2218
1200.00,4.3913
1199.00,4.3930
1198.00,4.2602
1197.00,4.1410
1196.00,4.0787
1195.00,4.0681
1194.00,4.0939
1193.00,4.1230
1192.00,4.1426
1191.00,4.1270
1190.00,4.0206
1189.00,3.9032
1188.00,3.8417
1187.00,3.8262
1186.00,3.8260
1185.00,3.8122
1184.00,3.7809
1183.00,3.7531
1182.00,3.7454
1181.00,3.7485
1180.00,3.7331
1179.00,3.6859
1178.00,3.6331
1177.00,3.6061
1176.00,3.6070
1175.00,3.6141
1174.00,3.6116
1173.00,3.6087
1172.00,3.6201
1171.00,3.6418
1170.00,3.6500
1169.00,3.6282
1168.00,3.5906
1167.00,3.5579
1166.00,3.5292
1165.00,3.4974
1164.00,3.4684
1163.00,3.4477
1162.00,3.4305
1161.00,3.4078
1160.00,3.3747
1159.00,3.3405
1158.00,3.3168
1157.00,3.3052
1156.00,3.3026
1155.00,3.3081
1154.00,3.3244
1153.00,3.3553
1152.00,3.4011
1151.00,3.4546
1150.00,3.4988
1149.00,3.5222
1148.00,3.5349
1147.00,3.5526
1146.00,3.5824
1145.00,3.6205
1144.00,3.6559
1143.00,3.6842
1142.00,3.7129
1141.00,3.7455
1140.00,3.7754
1139.00,3.8081
1138.00,3.8696
1137.00,3.9712
1136.00,4.0664
1135.00,4.0645
1134.00,3.9813
1133.00,3.9125
1132.00,3.8892
1131.00,3.8960
1130.00,3.9329
1129.00,3.9688
1128.00,3.9269
1127.00,3.8708
1126.00,3.8984
1125.00,4.0278
1124.00,4.3116
1123.00,4.7438
1122.00,4.6787
1121.00,4.6676
1120.00,4.4048
1119.00,4.1075
1118.00,3.9854
1117.00,3.9617
1116.00,3.9842
1115.00,4.0042
1114.00,3.9946
1113.00,3.9616
1112.00,3.9372
1111.00,3.9261
1110.00,3.8965
1109.00,3.8560
1108.00,3.8436
1107.00,3.8745
1106.00,3.9359
1105.00,3.9874
1104.00,4.0058
1103.00,4.0230
1102.00,4.0489
1101.00,4.0455
1100.00,4.0018
1099.00,3.9545
1098.00,3.9400
1097.00,3.9638
1096.00,4.0259
1095.00,4.1358
1094.00,4.3625
1093.00,4.8759
1092.00,4.7221
1091.00,4.3291
1090.00,4.1369
1089.00,4.0090
1088.00,3.9622
1087.00,4.0313
1086.00,4.2245
1085.00,4.4149
1084.00,4.5172
1083.00,4.8148
1082.00,5.1078
1081.00,4.6439
1080.00,4.5387
1079.00,4.7753
1078.00,4.6008
1077.00,4.2604
1076.00,4.1720
1075.00,4.2207
1074.00,4.3025
1073.00,4.3800
1072.00,4.4555
1071.00,4.5072
1070.00,4.5361
1069.00,4.6933
1068.00,4.7375
1067.00,4.7592
1066.00,5.2357
1065.00,4.5086
1064.00,4.1825
1063.00,4.0616
1062.00,4.0461
1061.00,4.1277
1060.00,4.2614
1059.00,4.4035
1058.00,4.4271
1057.00,4.1854
1056.00,3.9773
1055.00,3.8960
1054.00,3.9321
1053.00,4.0926
1052.00,4.3825
1051.00,4.6776
1050.00,4.6755
1049.00,4.6186
1048.00,4.7726
1047.00,4.8850
1046.00,4.4056
1045.00,4.0461
1044.00,3.8541
1043.00,3.7691
1042.00,3.7538
1041.00,3.7673
1040.00,3.7564
1039.00,3.7212
1038.00,3.6876
1037.00,3.6425
1036.00,3.5888
1035.00,3.5496
1034.00,3.5280
1033.00,3.5092
1032.00,3.4857
1031.00,3.4656
1030.00,3.4582
1029.00,3.4631
1028.00,3.4718
1027.00,3.4772
1026.00,3.4842
1025.00,3.5089
1024.00,3.5685
1023.00,3.6739
1022.00,3.8233
1021.00,3.9997
1020.00,4.1827
1019.00,4.3926
1018.00,4.6106
1017.00,4.6457
1016.00,4.3970
1015.00,4.0526
1014.00,3.8247
1013.00,3.7084
1012.00,3.6653
1011.00,3.6715
1010.00,3.7174
1009.00,3.7931
1008.00,3.8593
1007.00,3.8677
1006.00,3.8363
1005.00,3.8133
1004.00,3.8283
1003.00,3.8952
1002.00,4.0183
1001.00,4.1785
1000.00,4.4099
999.00,4.6554
998.00,4.4709
997.00,4.3703
996.00,4.3054
995.00,4.2047
994.00,4.2554
993.00,4.4026
992.00,4.5544
991.00,4.9400
990.00,4.5477
989.00,4.2756
988.00,4.3937
987.00,4.8984
986.00,4.4369
985.00,4.2357
984.00,4.2196
983.00,4.2899
982.00,4.4270
981.00,4.5569
980.00,4.6425
979.00,4.8305
978.00,5.1031
977.00,4.5819
976.00,4.3598
975.00,4.4845
974.00,5.2926
973.00,4.5673
972.00,4.4146
971.00,4.4975
970.00,4.5613
969.00,4.4675
968.00,4.3159
967.00,4.2400
966.00,4.2005
965.00,4.2006
964.00,4.2790
963.00,4.2985
962.00,4.1681
961.00,4.1182
960.00,4.1451
959.00,4.1479
958.00,4.1225
957.00,4.1220
956.00,4.1767
955.00,4.2793
954.00,4.4139
953.00,4.5355
952.00,4.7446
951.00,5.4167
950.00,4.8849
949.00,4.6589
948.00,4.6112
947.00,4.6265
946.00,4.6180
945.00,4.3590
944.00,4.1271
943.00,4.0119
942.00,4.0004
941.00,4.0637
940.00,4.1635
939.00,4.3081
938.00,4.5135
937.00,4.5061
936.00,4.4638
935.00,4.5643
934.00,4.4069
933.00,4.2435
932.00,4.1659
931.00,4.1158
930.00,4.1780
929.00,4.4300
928.00,4.7738
927.00,4.5651
926.00,4.2542
925.00,4.1297
924.00,4.1684
923.00,4.3993
922.00,4.9366
921.00,5.1308
920.00,5.0231
919.00,4.5406
918.00,4.2177
917.00,4.0718
916.00,4.0363
915.00,4.0571
914.00,4.0537
913.00,3.9982
912.00,3.8661
911.00,3.7257
910.00,3.6767
909.00,3.7509
908.00,3.9686
907.00,4.3637
906.00,4.5635
905.00,4.3323
904.00,4.1946
903.00,4.1774
902.00,4.2094
901.00,4.0861
900.00,3.9587
899.00,3.9690
898.00,4.1394
897.00,4.4350
896.00,4.4768
895.00,4.3180
894.00,4.2387
893.00,4.3193
892.00,4.6935
891.00,4.9834
890.00,4.4811
889.00,4.3220
888.00,4.3044
887.00,4.3345
886.00,4.3663
885.00,4.4083
884.00,4.4144
883.00,4.3764
882.00,4.3223
881.00,4.0648
880.00,3.8852
879.00,3.8567
878.00,3.9250
877.00,3.9676
876.00,3.9102
875.00,3.8749
874.00,3.9463
873.00,4.1291
872.00,4.2453
871.00,4.2172
870.00,4.1804
869.00,4.1902
868.00,4.3248
867.00,4.2458
866.00,3.9952
865.00,3.9064
864.00,3.9635
863.00,4.2138
862.00,4.7320
861.00,4.3854
860.00,4.3769
859.00,4.7498
858.00,4.6169
857.00,4.4014
856.00,4.1708
855.00,3.9756
854.00,3.9154
853.00,3.9757
852.00,4.1031
851.00,4.1571
850.00,4.1319
849.00,4.1609
848.00,4.2091
847.00,4.1643
846.00,4.0583
845.00,3.9981
844.00,4.0156
843.00,4.0844
842.00,4.1554
841.00,4.1682
840.00,4.0924
839.00,4.0122
838.00,4.0006
837.00,4.0659
836.00,4.1164
835.00,4.0425
834.00,3.9810
833.00,4.0271
832.00,4.2046
831.00,4.3777
830.00,4.2026
829.00,4.0191
828.00,3.9153
827.00,3.8444
826.00,3.7928
825.00,3.7905
824.00,3.8749
823.00,4.0622
822.00,4.3290
821.00,4.4108
820.00,4.2231
819.00,4.1415
818.00,4.1823
817.00,4.2575
816.00,4.2221
815.00,4.0580
814.00,3.9130
813.00,3.8614
812.00,3.9230
811.00,4.0880
810.00,4.2365
809.00,4.1988
808.00,4.1125
807.00,4.0931
806.00,4.0765
805.00,3.9888
804.00,3.8945
803.00,3.8552
802.00,3.8996
801.00,4.0184
800.00,4.1517
799.00,4.1976
798.00,4.0824
797.00,3.9025
796.00,3.7741
795.00,3.7270
794.00,3.7451
793.00,3.7887
792.00,3.8044
791.00,3.7708
790.00,3.7249
789.00,3.7143
788.00,3.7632
787.00,3.8716
786.00,4.0152
785.00,4.1219
784.00,4.1545
783.00,4.1815
782.00,4.2118
781.00,4.2850
780.00,4.4593
779.00,4.5990
778.00,4.4773
777.00,4.3201
776.00,4.2597
775.00,4.2626
774.00,4.2403
773.00,4.1480
772.00,4.0864
771.00,4.0774
770.00,4.0642
769.00,4.0628
768.00,4.0982
767.00,4.0782
766.00,3.9899
765.00,3.9231
764.00,3.8872
763.00,3.9014
762.00,4.0124
761.00,4.3417
760.00,4.6803
759.00,4.2452
758.00,4.1052
757.00,3.9833
756.00,3.9210
755.00,3.9953
754.00,4.2225
753.00,4.5538
752.00,4.5276
751.00,4.2315
750.00,4.0188
749.00,3.9343
748.00,3.9451
747.00,4.0279
746.00,4.1892
745.00,4.3950
744.00,4.6838
743.00,4.8426
742.00,4.5438
741.00,4.5999
740.00,4.5368
739.00,4.2286
738.00,4.0080
737.00,3.8830
736.00,3.8667
735.00,4.0005
734.00,4.4767
733.00,4.5092
732.00,4.0893
731.00,3.9754
730.00,3.9578
729.00,3.9552
728.00,3.9525
727.00,3.9661
726.00,3.9916
725.00,4.0211
724.00,4.0810
723.00,4.1867
722.00,4.3605
721.00,4.6887
720.00,5.2739
719.00,5.0344
718.00,4.6706
717.00,4.3436
716.00,4.0993
715.00,3.9837
714.00,3.9910
713.00,4.0731
712.00,4.0697
711.00,3.9921
710.00,3.9735
709.00,4.0442
708.00,4.2817
707.00,4.8920
706.00,4.4707
705.00,4.2947
704.00,4.3825
703.00,4.6408
702.00,4.8293
701.00,4.3701
700.00,4.2028
