Created as New Dataset,Sample 069 By Administrator Date Wednesday, November 24 2021
cm-1,A
7502.00,0.8302
7501.00,0.8390
7500.00,0.8477
7499.00,0.8561
7498.00,0.8640
7497.00,0.8719
7496.00,0.8802
7495.00,0.8889
7494.00,0.8978
7493.00,0.9070
7492.00,0.9166
7491.00,0.9268
7490.00,0.9376
7489.00,0.9485
7488.00,0.9593
7487.00,0.9696
7486.00,0.9792
7485.00,0.9880
7484.00,0.9966
7483.00,1.0057
7482.00,1.0156
7481.00,1.0256
7480.00,1.0352
7479.00,1.0441
7478.00,1.0527
7477.00,1.0613
7476.00,1.0696
7475.00,1.0775
7474.00,1.0853
7473.00,1.0933
7472.00,1.1017
7471.00,1.1098
7470.00,1.1172
7469.00,1.1237
7468.00,1.1299
7467.00,1.1366
7466.00,1.1437
7465.00,1.1507
7464.00,1.1569
7463.00,1.1619
7462.00,1.1661
7461.00,1.1695
7460.00,1.1717
7459.00,1.1727
7458.00,1.1732
7457.00,1.1744
7456.00,1.1771
7455.00,1.1804
7454.00,1.1834
7453.00,1.1856
7452.00,1.1873
7451.00,1.1886
7450.00,1.1889
7449.00,1.1885
7448.00,1.1878
7447.00,1.1868
7446.00,1.1851
7445.00,1.1822
7444.00,1.1788
7443.00,1.1759
7442.00,1.1736
7441.00,1.1711
7440.00,1.1678
7439.00,1.1642
7438.00,1.1605
7437.00,1.1566
7436.00,1.1517
7435.00,1.1453
7434.00,1.1378
7433.00,1.1303
7432.00,1.1230
7431.00,1.1157
7430.00,1.1080
7429.00,1.1000
7428.00,1.0922
7427.00,1.0850
7426.00,1.0779
7425.00,1.0702
7424.00,1.0614
7423.00,1.0517
7422.00,1.0415
7421.00,1.0311
7420.00,1.0205
7419.00,1.0094
7418.00,0.9982
7417.00,0.9873
7416.00,0.9769
7415.00,0.9669
7414.00,0.9569
7413.00,0.9463
7412.00,0.9355
7411.00,0.9249
7410.00,0.9146
7409.00,0.9043
7408.00,0.8942
7407.00,0.8842
7406.00,0.8748
7405.00,0.8657
7404.00,0.8568
7403.00,0.8478
7402.00,0.8390
7401.00,0.8309
7400.00,0.8237
7399.00,0.8171
7398.00,0.8107
7397.00,0.8045
7396.00,0.7989
7395.00,0.7941
7394.00,0.7900
7393.00,0.7863
7392.00,0.7828
7391.00,0.7798
7390.00,0.7774
7389.00,0.7758
7388.00,0.7750
7387.00,0.7749
7386.00,0.7754
7385.00,0.7765
7384.00,0.7781
7383.00,0.7804
7382.00,0.7833
7381.00,0.7870
7380.00,0.7912
7379.00,0.7960
7378.00,0.8012
7377.00,0.8068
7376.00,0.8128
7375.00,0.8192
7374.00,0.8258
7373.00,0.8324
7372.00,0.8392
7371.00,0.8463
7370.00,0.8537
7369.00,0.8613
7368.00,0.8693
7367.00,0.8779
7366.00,0.8870
7365.00,0.8963
7364.00,0.9053
7363.00,0.9142
7362.00,0.9235
7361.00,0.9331
7360.00,0.9428
7359.00,0.9524
7358.00,0.9618
7357.00,0.9714
7356.00,0.9812
7355.00,0.9911
7354.00,1.0010
7353.00,1.0103
7352.00,1.0189
7351.00,1.0267
7350.00,1.0337
7349.00,1.0402
7348.00,1.0464
7347.00,1.0525
7346.00,1.0584
7345.00,1.0643
7344.00,1.0705
7343.00,1.0773
7342.00,1.0847
7341.00,1.0917
7340.00,1.0978
7339.00,1.1033
7338.00,1.1086
7337.00,1.1133
7336.00,1.1165
7335.00,1.1180
7334.00,1.1185
7333.00,1.1190
7332.00,1.1196
7331.00,1.1198
7330.00,1.1193
7329.00,1.1187
7328.00,1.1189
7327.00,1.1197
7326.00,1.1205
7325.00,1.1203
7324.00,1.1193
7323.00,1.1179
7322.00,1.1167
7321.00,1.1158
7320.00,1.1148
7319.00,1.1137
7318.00,1.1127
7317.00,1.1122
7316.00,1.1122
7315.00,1.1126
7314.00,1.1130
7313.00,1.1129
7312.00,1.1118
7311.00,1.1095
7310.00,1.1062
7309.00,1.1021
7308.00,1.0973
7307.00,1.0923
7306.00,1.0875
7305.00,1.0834
7304.00,1.0800
7303.00,1.0772
7302.00,1.0749
7301.00,1.0723
7300.00,1.0687
7299.00,1.0635
7298.00,1.0569
7297.00,1.0496
7296.00,1.0420
7295.00,1.0339
7294.00,1.0251
7293.00,1.0157
7292.00,1.0061
7291.00,0.9965
7290.00,0.9867
7289.00,0.9768
7288.00,0.9668
7287.00,0.9570
7286.00,0.9473
7285.00,0.9377
7284.00,0.9279
7283.00,0.9181
7282.00,0.9082
7281.00,0.8986
7280.00,0.8892
7279.00,0.8800
7278.00,0.8712
7277.00,0.8626
7276.00,0.8544
7275.00,0.8463
7274.00,0.8380
7273.00,0.8299
7272.00,0.8221
7271.00,0.8149
7270.00,0.8083
7269.00,0.8022
7268.00,0.7967
7267.00,0.7918
7266.00,0.7875
7265.00,0.7835
7264.00,0.7797
7263.00,0.7763
7262.00,0.7736
7261.00,0.7719
7260.00,0.7711
7259.00,0.7710
7258.00,0.7713
7257.00,0.7718
7256.00,0.7728
7255.00,0.7742
7254.00,0.7762
7253.00,0.7787
7252.00,0.7817
7251.00,0.7853
7250.00,0.7898
7249.00,0.7952
7248.00,0.8015
7247.00,0.8084
7246.00,0.8155
7245.00,0.8228
7244.00,0.8304
7243.00,0.8383
7242.00,0.8467
7241.00,0.8554
7240.00,0.8642
7239.00,0.8729
7238.00,0.8818
7237.00,0.8911
7236.00,0.9006
7235.00,0.9103
7234.00,0.9199
7233.00,0.9296
7232.00,0.9395
7231.00,0.9495
7230.00,0.9596
7229.00,0.9701
7228.00,0.9809
7227.00,0.9917
7226.00,1.0023
7225.00,1.0128
7224.00,1.0235
7223.00,1.0342
7222.00,1.0441
7221.00,1.0529
7220.00,1.0608
7219.00,1.0684
7218.00,1.0760
7217.00,1.0836
7216.00,1.0914
7215.00,1.0995
7214.00,1.1081
7213.00,1.1169
7212.00,1.1254
7211.00,1.1336
7210.00,1.1412
7209.00,1.1481
7208.00,1.1541
7207.00,1.1595
7206.00,1.1644
7205.00,1.1690
7204.00,1.1732
7203.00,1.1769
7202.00,1.1805
7201.00,1.1842
7200.00,1.1876
7199.00,1.1905
7198.00,1.1929
7197.00,1.1952
7196.00,1.1970
7195.00,1.1984
7194.00,1.1996
7193.00,1.2012
7192.00,1.2031
7191.00,1.2045
7190.00,1.2050
7189.00,1.2049
7188.00,1.2045
7187.00,1.2035
7186.00,1.2014
7185.00,1.1983
7184.00,1.1949
7183.00,1.1913
7182.00,1.1876
7181.00,1.1837
7180.00,1.1795
7179.00,1.1749
7178.00,1.1695
7177.00,1.1634
7176.00,1.1569
7175.00,1.1503
7174.00,1.1436
7173.00,1.1368
7172.00,1.1299
7171.00,1.1227
7170.00,1.1148
7169.00,1.1061
7168.00,1.0965
7167.00,1.0866
7166.00,1.0764
7165.00,1.0662
7164.00,1.0558
7163.00,1.0456
7162.00,1.0356
7161.00,1.0259
7160.00,1.0160
7159.00,1.0053
7158.00,0.9940
7157.00,0.9828
7156.00,0.9719
7155.00,0.9613
7154.00,0.9506
7153.00,0.9395
7152.00,0.9284
7151.00,0.9176
7150.00,0.9071
7149.00,0.8970
7148.00,0.8871
7147.00,0.8774
7146.00,0.8679
7145.00,0.8587
7144.00,0.8497
7143.00,0.8410
7142.00,0.8327
7141.00,0.8249
7140.00,0.8175
7139.00,0.8104
7138.00,0.8038
7137.00,0.7978
7136.00,0.7926
7135.00,0.7880
7134.00,0.7839
7133.00,0.7804
7132.00,0.7776
7131.00,0.7757
7130.00,0.7744
7129.00,0.7738
7128.00,0.7739
7127.00,0.7744
7126.00,0.7756
7125.00,0.7775
7124.00,0.7803
7123.00,0.7838
7122.00,0.7878
7121.00,0.7924
7120.00,0.7976
7119.00,0.8034
7118.00,0.8099
7117.00,0.8168
7116.00,0.8239
7115.00,0.8311
7114.00,0.8384
7113.00,0.8461
7112.00,0.8543
7111.00,0.8628
7110.00,0.8716
7109.00,0.8807
7108.00,0.8899
7107.00,0.8993
7106.00,0.9087
7105.00,0.9183
7104.00,0.9279
7103.00,0.9377
7102.00,0.9478
7101.00,0.9585
7100.00,0.9694
7099.00,0.9803
7098.00,0.9906
7097.00,1.0006
7096.00,1.0104
7095.00,1.0201
7094.00,1.0295
7093.00,1.0387
7092.00,1.0480
7091.00,1.0576
7090.00,1.0670
7089.00,1.0756
7088.00,1.0835
7087.00,1.0913
7086.00,1.0989
7085.00,1.1061
7084.00,1.1128
7083.00,1.1194
7082.00,1.1263
7081.00,1.1335
7080.00,1.1404
7079.00,1.1469
7078.00,1.1527
7077.00,1.1580
7076.00,1.1628
7075.00,1.1675
7074.00,1.1719
7073.00,1.1760
7072.00,1.1793
7071.00,1.1819
7070.00,1.1839
7069.00,1.1856
7068.00,1.1872
7067.00,1.1889
7066.00,1.1906
7065.00,1.1923
7064.00,1.1937
7063.00,1.1945
7062.00,1.1949
7061.00,1.1949
7060.00,1.1946
7059.00,1.1936
7058.00,1.1916
7057.00,1.1891
7056.00,1.1866
7055.00,1.1843
7054.00,1.1816
7053.00,1.1781
7052.00,1.1740
7051.00,1.1698
7050.00,1.1654
7049.00,1.1604
7048.00,1.1546
7047.00,1.1483
7046.00,1.1418
7045.00,1.1353
7044.00,1.1285
7043.00,1.1213
7042.00,1.1139
7041.00,1.1062
7040.00,1.0981
7039.00,1.0895
7038.00,1.0806
7037.00,1.0716
7036.00,1.0627
7035.00,1.0536
7034.00,1.0441
7033.00,1.0340
7032.00,1.0235
7031.00,1.0129
7030.00,1.0023
7029.00,0.9917
7028.00,0.9812
7027.00,0.9709
7026.00,0.9606
7025.00,0.9499
7024.00,0.9388
7023.00,0.9277
7022.00,0.9166
7021.00,0.9056
7020.00,0.8947
7019.00,0.8844
7018.00,0.8747
7017.00,0.8653
7016.00,0.8560
7015.00,0.8467
7014.00,0.8376
7013.00,0.8291
7012.00,0.8209
7011.00,0.8131
7010.00,0.8059
7009.00,0.7994
7008.00,0.7936
7007.00,0.7884
7006.00,0.7838
7005.00,0.7798
7004.00,0.7764
7003.00,0.7735
7002.00,0.7712
7001.00,0.7695
7000.00,0.7684
6999.00,0.7680
6998.00,0.7681
6997.00,0.7690
6996.00,0.7707
6995.00,0.7732
6994.00,0.7763
6993.00,0.7799
6992.00,0.7841
6991.00,0.7892
6990.00,0.7951
6989.00,0.8014
6988.00,0.8081
6987.00,0.8151
6986.00,0.8227
6985.00,0.8306
6984.00,0.8386
6983.00,0.8469
6982.00,0.8555
6981.00,0.8649
6980.00,0.8747
6979.00,0.8849
6978.00,0.8950
6977.00,0.9053
6976.00,0.9156
6975.00,0.9260
6974.00,0.9364
6973.00,0.9467
6972.00,0.9570
6971.00,0.9674
6970.00,0.9779
6969.00,0.9883
6968.00,0.9984
6967.00,1.0084
6966.00,1.0184
6965.00,1.0286
6964.00,1.0387
6963.00,1.0490
6962.00,1.0595
6961.00,1.0697
6960.00,1.0791
6959.00,1.0877
6958.00,1.0960
6957.00,1.1043
6956.00,1.1125
6955.00,1.1205
6954.00,1.1285
6953.00,1.1366
6952.00,1.1447
6951.00,1.1522
6950.00,1.1594
6949.00,1.1664
6948.00,1.1732
6947.00,1.1795
6946.00,1.1849
6945.00,1.1895
6944.00,1.1936
6943.00,1.1970
6942.00,1.1997
6941.00,1.2020
6940.00,1.2045
6939.00,1.2076
6938.00,1.2111
6937.00,1.2145
6936.00,1.2172
6935.00,1.2192
6934.00,1.2203
6933.00,1.2205
6932.00,1.2197
6931.00,1.2188
6930.00,1.2182
6929.00,1.2176
6928.00,1.2164
6927.00,1.2142
6926.00,1.2115
6925.00,1.2085
6924.00,1.2049
6923.00,1.2004
6922.00,1.1953
6921.00,1.1904
6920.00,1.1861
6919.00,1.1817
6918.00,1.1766
6917.00,1.1706
6916.00,1.1638
6915.00,1.1569
6914.00,1.1498
6913.00,1.1422
6912.00,1.1340
6911.00,1.1253
6910.00,1.1164
6909.00,1.1072
6908.00,1.0977
6907.00,1.0881
6906.00,1.0785
6905.00,1.0686
6904.00,1.0583
6903.00,1.0477
6902.00,1.0370
6901.00,1.0260
6900.00,1.0146
6899.00,1.0029
6898.00,0.9913
6897.00,0.9800
6896.00,0.9688
6895.00,0.9573
6894.00,0.9457
6893.00,0.9341
6892.00,0.9225
6891.00,0.9110
6890.00,0.8998
6889.00,0.8889
6888.00,0.8785
6887.00,0.8684
6886.00,0.8587
6885.00,0.8493
6884.00,0.8402
6883.00,0.8314
6882.00,0.8230
6881.00,0.8150
6880.00,0.8075
6879.00,0.8005
6878.00,0.7941
6877.00,0.7886
6876.00,0.7840
6875.00,0.7801
6874.00,0.7770
6873.00,0.7744
6872.00,0.7722
6871.00,0.7706
6870.00,0.7697
6869.00,0.7697
6868.00,0.7705
6867.00,0.7720
6866.00,0.7742
6865.00,0.7773
6864.00,0.7812
6863.00,0.7857
6862.00,0.7907
6861.00,0.7960
6860.00,0.8017
6859.00,0.8076
6858.00,0.8140
6857.00,0.8210
6856.00,0.8286
6855.00,0.8368
6854.00,0.8458
6853.00,0.8553
6852.00,0.8653
6851.00,0.8754
6850.00,0.8855
6849.00,0.8955
6848.00,0.9053
6847.00,0.9150
6846.00,0.9249
6845.00,0.9349
6844.00,0.9453
6843.00,0.9559
6842.00,0.9668
6841.00,0.9777
6840.00,0.9885
6839.00,0.9992
6838.00,1.0098
6837.00,1.0205
6836.00,1.0311
6835.00,1.0412
6834.00,1.0510
6833.00,1.0606
6832.00,1.0704
6831.00,1.0798
6830.00,1.0887
6829.00,1.0972
6828.00,1.1058
6827.00,1.1146
6826.00,1.1234
6825.00,1.1315
6824.00,1.1388
6823.00,1.1458
6822.00,1.1526
6821.00,1.1594
6820.00,1.1658
6819.00,1.1718
6818.00,1.1778
6817.00,1.1834
6816.00,1.1885
6815.00,1.1930
6814.00,1.1971
6813.00,1.2010
6812.00,1.2047
6811.00,1.2079
6810.00,1.2109
6809.00,1.2137
6808.00,1.2162
6807.00,1.2177
6806.00,1.2183
6805.00,1.2183
6804.00,1.2181
6803.00,1.2180
6802.00,1.2175
6801.00,1.2162
6800.00,1.2141
6799.00,1.2116
6798.00,1.2092
6797.00,1.2066
6796.00,1.2034
6795.00,1.1995
6794.00,1.1952
6793.00,1.1907
6792.00,1.1861
6791.00,1.1808
6790.00,1.1750
6789.00,1.1691
6788.00,1.1633
6787.00,1.1575
6786.00,1.1512
6785.00,1.1442
6784.00,1.1365
6783.00,1.1283
6782.00,1.1195
6781.00,1.1102
6780.00,1.1006
6779.00,1.0912
6778.00,1.0820
6777.00,1.0727
6776.00,1.0628
6775.00,1.0523
6774.00,1.0414
6773.00,1.0303
6772.00,1.0190
6771.00,1.0076
6770.00,0.9963
6769.00,0.9852
6768.00,0.9741
6767.00,0.9629
6766.00,0.9513
6765.00,0.9396
6764.00,0.9279
6763.00,0.9164
6762.00,0.9052
6761.00,0.8942
6760.00,0.8834
6759.00,0.8729
6758.00,0.8628
6757.00,0.8528
6756.00,0.8430
6755.00,0.8337
6754.00,0.8248
6753.00,0.8165
6752.00,0.8085
6751.00,0.8010
6750.00,0.7942
6749.00,0.7881
6748.00,0.7825
6747.00,0.7774
6746.00,0.7729
6745.00,0.7693
6744.00,0.7662
6743.00,0.7635
6742.00,0.7615
6741.00,0.7605
6740.00,0.7604
6739.00,0.7611
6738.00,0.7626
6737.00,0.7648
6736.00,0.7677
6735.00,0.7712
6734.00,0.7753
6733.00,0.7800
6732.00,0.7855
6731.00,0.7914
6730.00,0.7979
6729.00,0.8049
6728.00,0.8124
6727.00,0.8202
6726.00,0.8283
6725.00,0.8369
6724.00,0.8459
6723.00,0.8554
6722.00,0.8653
6721.00,0.8754
6720.00,0.8858
6719.00,0.8964
6718.00,0.9071
6717.00,0.9180
6716.00,0.9291
6715.00,0.9403
6714.00,0.9516
6713.00,0.9628
6712.00,0.9741
6711.00,0.9855
6710.00,0.9969
6709.00,1.0081
6708.00,1.0190
6707.00,1.0298
6706.00,1.0404
6705.00,1.0506
6704.00,1.0604
6703.00,1.0702
6702.00,1.0801
6701.00,1.0900
6700.00,1.0997
6699.00,1.1092
6698.00,1.1187
6697.00,1.1281
6696.00,1.1370
6695.00,1.1453
6694.00,1.1530
6693.00,1.1602
6692.00,1.1670
6691.00,1.1734
6690.00,1.1796
6689.00,1.1856
6688.00,1.1915
6687.00,1.1970
6686.00,1.2019
6685.00,1.2065
6684.00,1.2108
6683.00,1.2149
6682.00,1.2187
6681.00,1.2224
6680.00,1.2257
6679.00,1.2284
6678.00,1.2303
6677.00,1.2316
6676.00,1.2324
6675.00,1.2331
6674.00,1.2333
6673.00,1.2331
6672.00,1.2327
6671.00,1.2324
6670.00,1.2318
6669.00,1.2307
6668.00,1.2288
6667.00,1.2264
6666.00,1.2236
6665.00,1.2201
6664.00,1.2158
6663.00,1.2108
6662.00,1.2055
6661.00,1.2000
6660.00,1.1942
6659.00,1.1881
6658.00,1.1820
6657.00,1.1756
6656.00,1.1688
6655.00,1.1613
6654.00,1.1534
6653.00,1.1453
6652.00,1.1368
6651.00,1.1277
6650.00,1.1183
6649.00,1.1085
6648.00,1.0984
6647.00,1.0881
6646.00,1.0775
6645.00,1.0669
6644.00,1.0560
6643.00,1.0447
6642.00,1.0329
6641.00,1.0210
6640.00,1.0090
6639.00,0.9972
6638.00,0.9853
6637.00,0.9734
6636.00,0.9615
6635.00,0.9497
6634.00,0.9379
6633.00,0.9261
6632.00,0.9143
6631.00,0.9026
6630.00,0.8911
6629.00,0.8800
6628.00,0.8690
6627.00,0.8583
6626.00,0.8479
6625.00,0.8381
6624.00,0.8290
6623.00,0.8204
6622.00,0.8123
6621.00,0.8048
6620.00,0.7978
6619.00,0.7913
6618.00,0.7854
6617.00,0.7802
6616.00,0.7758
6615.00,0.7722
6614.00,0.7693
6613.00,0.7672
6612.00,0.7658
6611.00,0.7650
6610.00,0.7649
6609.00,0.7654
6608.00,0.7667
6607.00,0.7689
6606.00,0.7721
6605.00,0.7761
6604.00,0.7807
6603.00,0.7858
6602.00,0.7916
6601.00,0.7981
6600.00,0.8052
6599.00,0.8127
6598.00,0.8205
6597.00,0.8287
6596.00,0.8374
6595.00,0.8466
6594.00,0.8561
6593.00,0.8660
6592.00,0.8761
6591.00,0.8865
6590.00,0.8971
6589.00,0.9078
6588.00,0.9186
6587.00,0.9294
6586.00,0.9403
6585.00,0.9515
6584.00,0.9629
6583.00,0.9744
6582.00,0.9860
6581.00,0.9976
6580.00,1.0090
6579.00,1.0201
6578.00,1.0311
6577.00,1.0418
6576.00,1.0521
6575.00,1.0621
6574.00,1.0721
6573.00,1.0820
6572.00,1.0917
6571.00,1.1010
6570.00,1.1100
6569.00,1.1189
6568.00,1.1273
6567.00,1.1352
6566.00,1.1427
6565.00,1.1502
6564.00,1.1578
6563.00,1.1651
6562.00,1.1718
6561.00,1.1781
6560.00,1.1843
6559.00,1.1904
6558.00,1.1962
6557.00,1.2014
6556.00,1.2061
6555.00,1.2105
6554.00,1.2143
6553.00,1.2174
6552.00,1.2198
6551.00,1.2219
6550.00,1.2238
6549.00,1.2256
6548.00,1.2269
6547.00,1.2274
6546.00,1.2273
6545.00,1.2266
6544.00,1.2257
6543.00,1.2246
6542.00,1.2232
6541.00,1.2214
6540.00,1.2192
6539.00,1.2168
6538.00,1.2143
6537.00,1.2117
6536.00,1.2087
6535.00,1.2051
6534.00,1.2011
6533.00,1.1966
6532.00,1.1917
6531.00,1.1861
6530.00,1.1800
6529.00,1.1736
6528.00,1.1672
6527.00,1.1608
6526.00,1.1541
6525.00,1.1469
6524.00,1.1390
6523.00,1.1307
6522.00,1.1222
6521.00,1.1132
6520.00,1.1037
6519.00,1.0937
6518.00,1.0836
6517.00,1.0734
6516.00,1.0631
6515.00,1.0526
6514.00,1.0420
6513.00,1.0311
6512.00,1.0198
6511.00,1.0082
6510.00,0.9965
6509.00,0.9847
6508.00,0.9727
6507.00,0.9603
6506.00,0.9479
6505.00,0.9358
6504.00,0.9239
6503.00,0.9120
6502.00,0.9003
6501.00,0.8888
6500.00,0.8777
6499.00,0.8670
6498.00,0.8565
6497.00,0.8462
6496.00,0.8362
6495.00,0.8265
6494.00,0.8174
6493.00,0.8089
6492.00,0.8010
6491.00,0.7937
6490.00,0.7870
6489.00,0.7810
6488.00,0.7757
6487.00,0.7709
6486.00,0.7668
6485.00,0.7635
6484.00,0.7611
6483.00,0.7595
6482.00,0.7587
6481.00,0.7589
6480.00,0.7599
6479.00,0.7614
6478.00,0.7636
6477.00,0.7665
6476.00,0.7701
6475.00,0.7745
6474.00,0.7795
6473.00,0.7853
6472.00,0.7918
6471.00,0.7990
6470.00,0.8067
6469.00,0.8148
6468.00,0.8232
6467.00,0.8322
6466.00,0.8417
6465.00,0.8515
6464.00,0.8616
6463.00,0.8719
6462.00,0.8827
6461.00,0.8939
6460.00,0.9052
6459.00,0.9164
6458.00,0.9275
6457.00,0.9389
6456.00,0.9506
6455.00,0.9625
6454.00,0.9745
6453.00,0.9863
6452.00,0.9980
6451.00,1.0099
6450.00,1.0217
6449.00,1.0335
6448.00,1.0448
6447.00,1.0560
6446.00,1.0671
6445.00,1.0782
6444.00,1.0889
6443.00,1.0992
6442.00,1.1091
6441.00,1.1191
6440.00,1.1291
6439.00,1.1391
6438.00,1.1489
6437.00,1.1582
6436.00,1.1668
6435.00,1.1748
6434.00,1.1822
6433.00,1.1892
6432.00,1.1959
6431.00,1.2022
6430.00,1.2083
6429.00,1.2142
6428.00,1.2199
6427.00,1.2254
6426.00,1.2305
6425.00,1.2351
6424.00,1.2391
6423.00,1.2426
6422.00,1.2457
6421.00,1.2486
6420.00,1.2513
6419.00,1.2537
6418.00,1.2558
6417.00,1.2573
6416.00,1.2580
6415.00,1.2579
6414.00,1.2574
6413.00,1.2565
6412.00,1.2554
6411.00,1.2540
6410.00,1.2526
6409.00,1.2509
6408.00,1.2485
6407.00,1.2451
6406.00,1.2411
6405.00,1.2369
6404.00,1.2325
6403.00,1.2279
6402.00,1.2229
6401.00,1.2175
6400.00,1.2117
6399.00,1.2052
6398.00,1.1980
6397.00,1.1903
6396.00,1.1821
6395.00,1.1735
6394.00,1.1646
6393.00,1.1554
6392.00,1.1459
6391.00,1.1361
6390.00,1.1259
6389.00,1.1152
6388.00,1.1041
6387.00,1.0927
6386.00,1.0811
6385.00,1.0695
6384.00,1.0577
6383.00,1.0459
6382.00,1.0339
6381.00,1.0218
6380.00,1.0093
6379.00,0.9965
6378.00,0.9835
6377.00,0.9705
6376.00,0.9575
6375.00,0.9446
6374.00,0.9316
6373.00,0.9189
6372.00,0.9064
6371.00,0.8943
6370.00,0.8824
6369.00,0.8709
6368.00,0.8596
6367.00,0.8488
6366.00,0.8384
6365.00,0.8285
6364.00,0.8191
6363.00,0.8103
6362.00,0.8022
6361.00,0.7947
6360.00,0.7879
6359.00,0.7816
6358.00,0.7760
6357.00,0.7713
6356.00,0.7675
6355.00,0.7643
6354.00,0.7620
6353.00,0.7604
6352.00,0.7597
6351.00,0.7599
6350.00,0.7610
6349.00,0.7629
6348.00,0.7657
6347.00,0.7694
6346.00,0.7740
6345.00,0.7793
6344.00,0.7850
6343.00,0.7911
6342.00,0.7978
6341.00,0.8050
6340.00,0.8128
6339.00,0.8212
6338.00,0.8302
6337.00,0.8399
6336.00,0.8500
6335.00,0.8603
6334.00,0.8708
6333.00,0.8815
6332.00,0.8925
6331.00,0.9038
6330.00,0.9154
6329.00,0.9271
6328.00,0.9390
6327.00,0.9508
6326.00,0.9625
6325.00,0.9740
6324.00,0.9855
6323.00,0.9971
6322.00,1.0090
6321.00,1.0210
6320.00,1.0328
6319.00,1.0443
6318.00,1.0557
6317.00,1.0670
6316.00,1.0781
6315.00,1.0887
6314.00,1.0991
6313.00,1.1095
6312.00,1.1197
6311.00,1.1295
6310.00,1.1388
6309.00,1.1474
6308.00,1.1554
6307.00,1.1632
6306.00,1.1709
6305.00,1.1784
6304.00,1.1856
6303.00,1.1925
6302.00,1.1992
6301.00,1.2056
6300.00,1.2115
6299.00,1.2166
6298.00,1.2211
6297.00,1.2252
6296.00,1.2289
6295.00,1.2323
6294.00,1.2354
6293.00,1.2385
6292.00,1.2412
6291.00,1.2436
6290.00,1.2454
6289.00,1.2466
6288.00,1.2472
6287.00,1.2472
6286.00,1.2470
6285.00,1.2469
6284.00,1.2466
6283.00,1.2458
6282.00,1.2443
6281.00,1.2423
6280.00,1.2398
6279.00,1.2366
6278.00,1.2327
6277.00,1.2286
6276.00,1.2245
6275.00,1.2203
6274.00,1.2158
6273.00,1.2110
6272.00,1.2057
6271.00,1.1998
6270.00,1.1935
6269.00,1.1867
6268.00,1.1795
6267.00,1.1718
6266.00,1.1639
6265.00,1.1560
6264.00,1.1479
6263.00,1.1396
6262.00,1.1308
6261.00,1.1214
6260.00,1.1115
6259.00,1.1012
6258.00,1.0905
6257.00,1.0794
6256.00,1.0679
6255.00,1.0563
6254.00,1.0447
6253.00,1.0331
6252.00,1.0212
6251.00,1.0089
6250.00,0.9963
6249.00,0.9836
6248.00,0.9708
6247.00,0.9579
6246.00,0.9450
6245.00,0.9321
6244.00,0.9194
6243.00,0.9068
6242.00,0.8945
6241.00,0.8825
6240.00,0.8708
6239.00,0.8595
6238.00,0.8487
6237.00,0.8382
6236.00,0.8282
6235.00,0.8185
6234.00,0.8092
6233.00,0.8006
6232.00,0.7926
6231.00,0.7853
6230.00,0.7787
6229.00,0.7729
6228.00,0.7679
6227.00,0.7637
6226.00,0.7604
6225.00,0.7578
6224.00,0.7561
6223.00,0.7553
6222.00,0.7555
6221.00,0.7566
6220.00,0.7584
6219.00,0.7609
6218.00,0.7643
6217.00,0.7686
6216.00,0.7737
6215.00,0.7793
6214.00,0.7856
6213.00,0.7926
6212.00,0.8002
6211.00,0.8083
6210.00,0.8170
6209.00,0.8264
6208.00,0.8363
6207.00,0.8467
6206.00,0.8575
6205.00,0.8684
6204.00,0.8795
6203.00,0.8907
6202.00,0.9022
6201.00,0.9140
6200.00,0.9261
6199.00,0.9385
6198.00,0.9511
6197.00,0.9637
6196.00,0.9761
6195.00,0.9884
6194.00,1.0006
6193.00,1.0129
6192.00,1.0250
6191.00,1.0371
6190.00,1.0492
6189.00,1.0615
6188.00,1.0737
6187.00,1.0856
6186.00,1.0971
6185.00,1.1085
6184.00,1.1195
6183.00,1.1301
6182.00,1.1403
6181.00,1.1500
6180.00,1.1595
6179.00,1.1687
6178.00,1.1778
6177.00,1.1865
6176.00,1.1948
6175.00,1.2028
6174.00,1.2106
6173.00,1.2183
6172.00,1.2258
6171.00,1.2330
6170.00,1.2397
6169.00,1.2459
6168.00,1.2513
6167.00,1.2559
6166.00,1.2596
6165.00,1.2630
6164.00,1.2665
6163.00,1.2702
6162.00,1.2737
6161.00,1.2765
6160.00,1.2785
6159.00,1.2799
6158.00,1.2806
6157.00,1.2809
6156.00,1.2806
6155.00,1.2802
6154.00,1.2798
6153.00,1.2789
6152.00,1.2773
6151.00,1.2748
6150.00,1.2719
6149.00,1.2688
6148.00,1.2656
6147.00,1.2623
6146.00,1.2586
6145.00,1.2543
6144.00,1.2491
6143.00,1.2432
6142.00,1.2367
6141.00,1.2299
6140.00,1.2230
6139.00,1.2159
6138.00,1.2086
6137.00,1.2007
6136.00,1.1922
6135.00,1.1830
6134.00,1.1733
6133.00,1.1631
6132.00,1.1525
6131.00,1.1416
6130.00,1.1305
6129.00,1.1192
6128.00,1.1077
6127.00,1.0958
6126.00,1.0835
6125.00,1.0711
6124.00,1.0583
6123.00,1.0451
6122.00,1.0316
6121.00,1.0180
6120.00,1.0044
6119.00,0.9908
6118.00,0.9772
6117.00,0.9636
6116.00,0.9498
6115.00,0.9361
6114.00,0.9226
6113.00,0.9094
6112.00,0.8964
6111.00,0.8837
6110.00,0.8712
6109.00,0.8591
6108.00,0.8475
6107.00,0.8364
6106.00,0.8258
6105.00,0.8160
6104.00,0.8068
6103.00,0.7981
6102.00,0.7901
6101.00,0.7827
6100.00,0.7759
6099.00,0.7699
6098.00,0.7648
6097.00,0.7607
6096.00,0.7576
6095.00,0.7554
6094.00,0.7541
6093.00,0.7538
6092.00,0.7544
6091.00,0.7559
6090.00,0.7582
6089.00,0.7613
6088.00,0.7653
6087.00,0.7700
6086.00,0.7754
6085.00,0.7816
6084.00,0.7886
6083.00,0.7963
6082.00,0.8045
6081.00,0.8132
6080.00,0.8223
6079.00,0.8319
6078.00,0.8421
6077.00,0.8528
6076.00,0.8638
6075.00,0.8752
6074.00,0.8868
6073.00,0.8986
6072.00,0.9104
6071.00,0.9223
6070.00,0.9344
6069.00,0.9468
6068.00,0.9593
6067.00,0.9719
6066.00,0.9845
6065.00,0.9970
6064.00,1.0096
6063.00,1.0221
6062.00,1.0345
6061.00,1.0466
6060.00,1.0584
6059.00,1.0699
6058.00,1.0813
6057.00,1.0926
6056.00,1.1039
6055.00,1.1152
6054.00,1.1262
6053.00,1.1370
6052.00,1.1472
6051.00,1.1566
6050.00,1.1653
6049.00,1.1736
6048.00,1.1817
6047.00,1.1898
6046.00,1.1981
6045.00,1.2066
6044.00,1.2149
6043.00,1.2228
6042.00,1.2301
6041.00,1.2367
6040.00,1.2427
6039.00,1.2482
6038.00,1.2531
6037.00,1.2577
6036.00,1.2622
6035.00,1.2665
6034.00,1.2706
6033.00,1.2742
6032.00,1.2775
6031.00,1.2804
6030.00,1.2829
6029.00,1.2846
6028.00,1.2854
6027.00,1.2854
6026.00,1.2849
6025.00,1.2843
6024.00,1.2834
6023.00,1.2823
6022.00,1.2807
6021.00,1.2785
6020.00,1.2758
6019.00,1.2728
6018.00,1.2697
6017.00,1.2663
6016.00,1.2625
6015.00,1.2581
6014.00,1.2530
6013.00,1.2474
6012.00,1.2411
6011.00,1.2342
6010.00,1.2268
6009.00,1.2192
6008.00,1.2115
6007.00,1.2036
6006.00,1.1953
6005.00,1.1863
6004.00,1.1768
6003.00,1.1668
6002.00,1.1562
6001.00,1.1450
6000.00,1.1333
5999.00,1.1213
5998.00,1.1092
5997.00,1.0971
5996.00,1.0848
5995.00,1.0720
5994.00,1.0589
5993.00,1.0454
5992.00,1.0317
5991.00,1.0177
5990.00,1.0035
5989.00,0.9891
5988.00,0.9748
5987.00,0.9606
5986.00,0.9466
5985.00,0.9326
5984.00,0.9187
5983.00,0.9051
5982.00,0.8919
5981.00,0.8792
5980.00,0.8668
5979.00,0.8548
5978.00,0.8434
5977.00,0.8324
5976.00,0.8217
5975.00,0.8116
5974.00,0.8022
5973.00,0.7938
5972.00,0.7862
5971.00,0.7793
5970.00,0.7732
5969.00,0.7680
5968.00,0.7637
5967.00,0.7603
5966.00,0.7578
5965.00,0.7562
5964.00,0.7556
5963.00,0.7559
5962.00,0.7571
5961.00,0.7592
5960.00,0.7622
5959.00,0.7660
5958.00,0.7707
5957.00,0.7764
5956.00,0.7829
5955.00,0.7901
5954.00,0.7980
5953.00,0.8066
5952.00,0.8159
5951.00,0.8258
5950.00,0.8363
5949.00,0.8472
5948.00,0.8587
5947.00,0.8706
5946.00,0.8828
5945.00,0.8952
5944.00,0.9078
5943.00,0.9205
5942.00,0.9333
5941.00,0.9463
5940.00,0.9594
5939.00,0.9727
5938.00,0.9862
5937.00,0.9997
5936.00,1.0133
5935.00,1.0267
5934.00,1.0401
5933.00,1.0533
5932.00,1.0664
5931.00,1.0793
5930.00,1.0921
5929.00,1.1046
5928.00,1.1167
5927.00,1.1285
5926.00,1.1399
5925.00,1.1512
5924.00,1.1624
5923.00,1.1734
5922.00,1.1842
5921.00,1.1946
5920.00,1.2047
5919.00,1.2145
5918.00,1.2237
5917.00,1.2324
5916.00,1.2404
5915.00,1.2479
5914.00,1.2549
5913.00,1.2615
5912.00,1.2680
5911.00,1.2742
5910.00,1.2804
5909.00,1.2863
5908.00,1.2918
5907.00,1.2967
5906.00,1.3009
5905.00,1.3043
5904.00,1.3070
5903.00,1.3094
5902.00,1.3113
5901.00,1.3127
5900.00,1.3136
5899.00,1.3144
5898.00,1.3150
5897.00,1.3152
5896.00,1.3150
5895.00,1.3143
5894.00,1.3131
5893.00,1.3114
5892.00,1.3091
5891.00,1.3061
5890.00,1.3026
5889.00,1.2987
5888.00,1.2945
5887.00,1.2898
5886.00,1.2848
5885.00,1.2794
5884.00,1.2738
5883.00,1.2680
5882.00,1.2618
5881.00,1.2549
5880.00,1.2471
5879.00,1.2386
5878.00,1.2297
5877.00,1.2205
5876.00,1.2108
5875.00,1.2010
5874.00,1.1911
5873.00,1.1812
5872.00,1.1710
5871.00,1.1600
5870.00,1.1484
5869.00,1.1365
5868.00,1.1242
5867.00,1.1115
5866.00,1.0983
5865.00,1.0849
5864.00,1.0712
5863.00,1.0573
5862.00,1.0432
5861.00,1.0293
5860.00,1.0154
5859.00,1.0015
5858.00,0.9874
5857.00,0.9734
5856.00,0.9594
5855.00,0.9454
5854.00,0.9315
5853.00,0.9179
5852.00,0.9048
5851.00,0.8920
5850.00,0.8796
5849.00,0.8676
5848.00,0.8559
5847.00,0.8448
5846.00,0.8344
5845.00,0.8247
5844.00,0.8157
5843.00,0.8076
5842.00,0.8004
5841.00,0.7939
5840.00,0.7881
5839.00,0.7831
5838.00,0.7791
5837.00,0.7760
5836.00,0.7739
5835.00,0.7728
5834.00,0.7726
5833.00,0.7734
5832.00,0.7752
5831.00,0.7778
5830.00,0.7814
5829.00,0.7859
5828.00,0.7912
5827.00,0.7972
5826.00,0.8040
5825.00,0.8115
5824.00,0.8195
5823.00,0.8281
5822.00,0.8374
5821.00,0.8474
5820.00,0.8579
5819.00,0.8688
5818.00,0.8801
5817.00,0.8917
5816.00,0.9036
5815.00,0.9159
5814.00,0.9286
5813.00,0.9417
5812.00,0.9548
5811.00,0.9680
5810.00,0.9811
5809.00,0.9941
5808.00,1.0072
5807.00,1.0205
5806.00,1.0339
5805.00,1.0473
5804.00,1.0604
5803.00,1.0732
5802.00,1.0856
5801.00,1.0980
5800.00,1.1104
5799.00,1.1230
5798.00,1.1355
5797.00,1.1479
5796.00,1.1599
5795.00,1.1714
5794.00,1.1825
5793.00,1.1933
5792.00,1.2038
5791.00,1.2140
5790.00,1.2236
5789.00,1.2328
5788.00,1.2416
5787.00,1.2500
5786.00,1.2580
5785.00,1.2657
5784.00,1.2731
5783.00,1.2803
5782.00,1.2870
5781.00,1.2933
5780.00,1.2989
5779.00,1.3039
5778.00,1.3085
5777.00,1.3127
5776.00,1.3165
5775.00,1.3198
5774.00,1.3227
5773.00,1.3252
5772.00,1.3271
5771.00,1.3287
5770.00,1.3300
5769.00,1.3310
5768.00,1.3316
5767.00,1.3320
5766.00,1.3320
5765.00,1.3315
5764.00,1.3303
5763.00,1.3283
5762.00,1.3257
5761.00,1.3226
5760.00,1.3189
5759.00,1.3147
5758.00,1.3102
5757.00,1.3056
5756.00,1.3009
5755.00,1.2958
5754.00,1.2900
5753.00,1.2835
5752.00,1.2765
5751.00,1.2689
5750.00,1.2608
5749.00,1.2524
5748.00,1.2438
5747.00,1.2351
5746.00,1.2260
5745.00,1.2164
5744.00,1.2060
5743.00,1.1949
5742.00,1.1834
5741.00,1.1718
5740.00,1.1599
5739.00,1.1477
5738.00,1.1352
5737.00,1.1222
5736.00,1.1087
5735.00,1.0948
5734.00,1.0806
5733.00,1.0662
5732.00,1.0517
5731.00,1.0371
5730.00,1.0226
5729.00,1.0080
5728.00,0.9935
5727.00,0.9788
5726.00,0.9642
5725.00,0.9496
5724.00,0.9352
5723.00,0.9210
5722.00,0.9072
5721.00,0.8938
5720.00,0.8809
5719.00,0.8684
5718.00,0.8563
5717.00,0.8447
5716.00,0.8335
5715.00,0.8231
5714.00,0.8135
5713.00,0.8047
5712.00,0.7967
5711.00,0.7896
5710.00,0.7835
5709.00,0.7782
5708.00,0.7739
5707.00,0.7706
5706.00,0.7684
5705.00,0.7672
5704.00,0.7670
5703.00,0.7678
5702.00,0.7696
5701.00,0.7724
5700.00,0.7760
5699.00,0.7806
5698.00,0.7861
5697.00,0.7925
5696.00,0.7998
5695.00,0.8077
5694.00,0.8164
5693.00,0.8257
5692.00,0.8356
5691.00,0.8461
5690.00,0.8572
5689.00,0.8688
5688.00,0.8809
5687.00,0.8933
5686.00,0.9059
5685.00,0.9189
5684.00,0.9321
5683.00,0.9453
5682.00,0.9588
5681.00,0.9726
5680.00,0.9865
5679.00,1.0007
5678.00,1.0149
5677.00,1.0291
5676.00,1.0433
5675.00,1.0572
5674.00,1.0709
5673.00,1.0844
5672.00,1.0977
5671.00,1.1109
5670.00,1.1236
5669.00,1.1361
5668.00,1.1483
5667.00,1.1604
5666.00,1.1724
5665.00,1.1843
5664.00,1.1959
5663.00,1.2071
5662.00,1.2177
5661.00,1.2276
5660.00,1.2372
5659.00,1.2464
5658.00,1.2554
5657.00,1.2641
5656.00,1.2722
5655.00,1.2797
5654.00,1.2866
5653.00,1.2929
5652.00,1.2990
5651.00,1.3046
5650.00,1.3097
5649.00,1.3143
5648.00,1.3183
5647.00,1.3220
5646.00,1.3254
5645.00,1.3287
5644.00,1.3318
5643.00,1.3346
5642.00,1.3369
5641.00,1.3383
5640.00,1.3389
5639.00,1.3387
5638.00,1.3380
5637.00,1.3368
5636.00,1.3350
5635.00,1.3327
5634.00,1.3301
5633.00,1.3273
5632.00,1.3242
5631.00,1.3208
5630.00,1.3170
5629.00,1.3128
5628.00,1.3081
5627.00,1.3029
5626.00,1.2973
5625.00,1.2915
5624.00,1.2853
5623.00,1.2788
5622.00,1.2717
5621.00,1.2640
5620.00,1.2557
5619.00,1.2472
5618.00,1.2384
5617.00,1.2294
5616.00,1.2200
5615.00,1.2100
5614.00,1.1994
5613.00,1.1883
5612.00,1.1767
5611.00,1.1648
5610.00,1.1528
5609.00,1.1405
5608.00,1.1278
5607.00,1.1146
5606.00,1.1009
5605.00,1.0868
5604.00,1.0723
5603.00,1.0576
5602.00,1.0427
5601.00,1.0276
5600.00,1.0124
5599.00,0.9970
5598.00,0.9817
5597.00,0.9665
5596.00,0.9514
5595.00,0.9363
5594.00,0.9213
5593.00,0.9065
5592.00,0.8918
5591.00,0.8776
5590.00,0.8640
5589.00,0.8510
5588.00,0.8388
5587.00,0.8271
5586.00,0.8162
5585.00,0.8060
5584.00,0.7966
5583.00,0.7880
5582.00,0.7803
5581.00,0.7735
5580.00,0.7677
5579.00,0.7629
5578.00,0.7591
5577.00,0.7564
5576.00,0.7548
5575.00,0.7543
5574.00,0.7550
5573.00,0.7568
5572.00,0.7597
5571.00,0.7636
5570.00,0.7685
5569.00,0.7743
5568.00,0.7810
5567.00,0.7885
5566.00,0.7969
5565.00,0.8060
5564.00,0.8160
5563.00,0.8266
5562.00,0.8380
5561.00,0.8499
5560.00,0.8623
5559.00,0.8751
5558.00,0.8882
5557.00,0.9016
5556.00,0.9151
5555.00,0.9289
5554.00,0.9431
5553.00,0.9576
5552.00,0.9722
5551.00,0.9870
5550.00,1.0016
5549.00,1.0162
5548.00,1.0307
5547.00,1.0451
5546.00,1.0595
5545.00,1.0740
5544.00,1.0886
5543.00,1.1031
5542.00,1.1174
5541.00,1.1313
5540.00,1.1448
5539.00,1.1580
5538.00,1.1708
5537.00,1.1835
5536.00,1.1959
5535.00,1.2080
5534.00,1.2197
5533.00,1.2307
5532.00,1.2412
5531.00,1.2511
5530.00,1.2608
5529.00,1.2703
5528.00,1.2792
5527.00,1.2878
5526.00,1.2959
5525.00,1.3038
5524.00,1.3111
5523.00,1.3179
5522.00,1.3244
5521.00,1.3304
5520.00,1.3358
5519.00,1.3406
5518.00,1.3449
5517.00,1.3490
5516.00,1.3529
5515.00,1.3562
5514.00,1.3588
5513.00,1.3608
5512.00,1.3622
5511.00,1.3630
5510.00,1.3633
5509.00,1.3632
5508.00,1.3628
5507.00,1.3621
5506.00,1.3610
5505.00,1.3596
5504.00,1.3577
5503.00,1.3553
5502.00,1.3524
5501.00,1.3489
5500.00,1.3450
5499.00,1.3405
5498.00,1.3356
5497.00,1.3304
5496.00,1.3247
5495.00,1.3184
5494.00,1.3115
5493.00,1.3040
5492.00,1.2960
5491.00,1.2876
5490.00,1.2786
5489.00,1.2693
5488.00,1.2597
5487.00,1.2496
5486.00,1.2391
5485.00,1.2282
5484.00,1.2170
5483.00,1.2053
5482.00,1.1931
5481.00,1.1804
5480.00,1.1671
5479.00,1.1534
5478.00,1.1393
5477.00,1.1249
5476.00,1.1101
5475.00,1.0947
5474.00,1.0789
5473.00,1.0628
5472.00,1.0466
5471.00,1.0302
5470.00,1.0139
5469.00,0.9976
5468.00,0.9814
5467.00,0.9652
5466.00,0.9491
5465.00,0.9332
5464.00,0.9176
5463.00,0.9023
5462.00,0.8872
5461.00,0.8725
5460.00,0.8581
5459.00,0.8444
5458.00,0.8314
5457.00,0.8192
5456.00,0.8078
5455.00,0.7973
5454.00,0.7878
5453.00,0.7793
5452.00,0.7717
5451.00,0.7652
5450.00,0.7597
5449.00,0.7554
5448.00,0.7521
5447.00,0.7498
5446.00,0.7486
5445.00,0.7486
5444.00,0.7497
5443.00,0.7520
5442.00,0.7554
5441.00,0.7599
5440.00,0.7654
5439.00,0.7721
5438.00,0.7796
5437.00,0.7880
5436.00,0.7971
5435.00,0.8070
5434.00,0.8177
5433.00,0.8290
5432.00,0.8408
5431.00,0.8530
5430.00,0.8657
5429.00,0.8789
5428.00,0.8925
5427.00,0.9064
5426.00,0.9204
5425.00,0.9345
5424.00,0.9488
5423.00,0.9634
5422.00,0.9781
5421.00,0.9929
5420.00,1.0077
5419.00,1.0225
5418.00,1.0373
5417.00,1.0519
5416.00,1.0662
5415.00,1.0805
5414.00,1.0948
5413.00,1.1092
5412.00,1.1235
5411.00,1.1375
5410.00,1.1512
5409.00,1.1646
5408.00,1.1776
5407.00,1.1902
5406.00,1.2025
5405.00,1.2145
5404.00,1.2261
5403.00,1.2374
5402.00,1.2483
5401.00,1.2588
5400.00,1.2688
5399.00,1.2784
5398.00,1.2875
5397.00,1.2962
5396.00,1.3044
5395.00,1.3122
5394.00,1.3197
5393.00,1.3265
5392.00,1.3329
5391.00,1.3388
5390.00,1.3443
5389.00,1.3494
5388.00,1.3541
5387.00,1.3585
5386.00,1.3625
5385.00,1.3659
5384.00,1.3685
5383.00,1.3705
5382.00,1.3720
5381.00,1.3732
5380.00,1.3740
5379.00,1.3743
5378.00,1.3742
5377.00,1.3737
5376.00,1.3728
5375.00,1.3715
5374.00,1.3696
5373.00,1.3671
5372.00,1.3640
5371.00,1.3605
5370.00,1.3567
5369.00,1.3525
5368.00,1.3479
5367.00,1.3428
5366.00,1.3372
5365.00,1.3310
5364.00,1.3241
5363.00,1.3169
5362.00,1.3092
5361.00,1.3010
5360.00,1.2921
5359.00,1.2825
5358.00,1.2725
5357.00,1.2620
5356.00,1.2511
5355.00,1.2395
5354.00,1.2274
5353.00,1.2146
5352.00,1.2013
5351.00,1.1876
5350.00,1.1737
5349.00,1.1595
5348.00,1.1451
5347.00,1.1301
5346.00,1.1144
5345.00,1.0981
5344.00,1.0814
5343.00,1.0647
5342.00,1.0480
5341.00,1.0313
5340.00,1.0145
5339.00,0.9976
5338.00,0.9806
5337.00,0.9635
5336.00,0.9465
5335.00,0.9297
5334.00,0.9132
5333.00,0.8971
5332.00,0.8817
5331.00,0.8670
5330.00,0.8532
5329.00,0.8400
5328.00,0.8273
5327.00,0.8152
5326.00,0.8039
5325.00,0.7935
5324.00,0.7842
5323.00,0.7760
5322.00,0.7690
5321.00,0.7631
5320.00,0.7584
5319.00,0.7549
5318.00,0.7525
5317.00,0.7514
5316.00,0.7515
5315.00,0.7528
5314.00,0.7553
5313.00,0.7590
5312.00,0.7640
5311.00,0.7701
5310.00,0.7773
5309.00,0.7855
5308.00,0.7946
5307.00,0.8046
5306.00,0.8154
5305.00,0.8269
5304.00,0.8391
5303.00,0.8519
5302.00,0.8651
5301.00,0.8788
5300.00,0.8930
5299.00,0.9076
5298.00,0.9226
5297.00,0.9379
5296.00,0.9536
5295.00,0.9695
5294.00,0.9856
5293.00,1.0017
5292.00,1.0177
5291.00,1.0336
5290.00,1.0494
5289.00,1.0652
5288.00,1.0810
5287.00,1.0968
5286.00,1.1124
5285.00,1.1277
5284.00,1.1428
5283.00,1.1575
5282.00,1.1721
5281.00,1.1866
5280.00,1.2007
5279.00,1.2144
5278.00,1.2276
5277.00,1.2402
5276.00,1.2521
5275.00,1.2636
5274.00,1.2748
5273.00,1.2859
5272.00,1.2965
5271.00,1.3066
5270.00,1.3163
5269.00,1.3255
5268.00,1.3340
5267.00,1.3418
5266.00,1.3490
5265.00,1.3557
5264.00,1.3620
5263.00,1.3679
5262.00,1.3735
5261.00,1.3787
5260.00,1.3837
5259.00,1.3883
5258.00,1.3925
5257.00,1.3962
5256.00,1.3992
5255.00,1.4016
5254.00,1.4036
5253.00,1.4052
5252.00,1.4065
5251.00,1.4073
5250.00,1.4076
5249.00,1.4073
5248.00,1.4063
5247.00,1.4048
5246.00,1.4029
5245.00,1.4006
5244.00,1.3980
5243.00,1.3949
5242.00,1.3914
5241.00,1.3876
5240.00,1.3833
5239.00,1.3783
5238.00,1.3728
5237.00,1.3668
5236.00,1.3603
5235.00,1.3533
5234.00,1.3459
5233.00,1.3379
5232.00,1.3291
5231.00,1.3195
5230.00,1.3094
5229.00,1.2990
5228.00,1.2884
5227.00,1.2774
5226.00,1.2659
5225.00,1.2538
5224.00,1.2412
5223.00,1.2280
5222.00,1.2144
5221.00,1.2004
5220.00,1.1859
5219.00,1.1709
5218.00,1.1553
5217.00,1.1395
5216.00,1.1234
5215.00,1.1070
5214.00,1.0904
5213.00,1.0736
5212.00,1.0566
5211.00,1.0393
5210.00,1.0219
5209.00,1.0043
5208.00,0.9866
5207.00,0.9687
5206.00,0.9510
5205.00,0.9336
5204.00,0.9168
5203.00,0.9006
5202.00,0.8851
5201.00,0.8701
5200.00,0.8558
5199.00,0.8420
5198.00,0.8289
5197.00,0.8166
5196.00,0.8051
5195.00,0.7947
5194.00,0.7855
5193.00,0.7773
5192.00,0.7704
5191.00,0.7646
5190.00,0.7600
5189.00,0.7566
5188.00,0.7546
5187.00,0.7538
5186.00,0.7544
5185.00,0.7562
5184.00,0.7591
5183.00,0.7633
5182.00,0.7686
5181.00,0.7750
5180.00,0.7826
5179.00,0.7911
5178.00,0.8007
5177.00,0.8112
5176.00,0.8224
5175.00,0.8344
5174.00,0.8471
5173.00,0.8604
5172.00,0.8743
5171.00,0.8887
5170.00,0.9035
5169.00,0.9187
5168.00,0.9343
5167.00,0.9500
5166.00,0.9660
5165.00,0.9822
5164.00,0.9985
5163.00,1.0149
5162.00,1.0313
5161.00,1.0477
5160.00,1.0641
5159.00,1.0803
5158.00,1.0965
5157.00,1.1126
5156.00,1.1284
5155.00,1.1438
5154.00,1.1588
5153.00,1.1737
5152.00,1.1882
5151.00,1.2026
5150.00,1.2169
5149.00,1.2308
5148.00,1.2442
5147.00,1.2569
5146.00,1.2692
5145.00,1.2811
5144.00,1.2926
5143.00,1.3036
5142.00,1.3143
5141.00,1.3247
5140.00,1.3347
5139.00,1.3443
5138.00,1.3535
5137.00,1.3621
5136.00,1.3701
5135.00,1.3773
5134.00,1.3839
5133.00,1.3900
5132.00,1.3956
5131.00,1.4008
5130.00,1.4055
5129.00,1.4098
5128.00,1.4136
5127.00,1.4169
5126.00,1.4197
5125.00,1.4221
5124.00,1.4241
5123.00,1.4256
5122.00,1.4265
5121.00,1.4268
5120.00,1.4266
5119.00,1.4260
5118.00,1.4251
5117.00,1.4241
5116.00,1.4228
5115.00,1.4210
5114.00,1.4184
5113.00,1.4149
5112.00,1.4107
5111.00,1.4058
5110.00,1.4004
5109.00,1.3948
5108.00,1.3889
5107.00,1.3829
5106.00,1.3766
5105.00,1.3699
5104.00,1.3626
5103.00,1.3544
5102.00,1.3455
5101.00,1.3359
5100.00,1.3259
5099.00,1.3155
5098.00,1.3046
5097.00,1.2930
5096.00,1.2807
5095.00,1.2678
5094.00,1.2546
5093.00,1.2410
5092.00,1.2270
5091.00,1.2125
5090.00,1.1976
5089.00,1.1821
5088.00,1.1660
5087.00,1.1495
5086.00,1.1326
5085.00,1.1153
5084.00,1.0976
5083.00,1.0798
5082.00,1.0617
5081.00,1.0435
5080.00,1.0253
5079.00,1.0068
5078.00,0.9884
5077.00,0.9700
5076.00,0.9518
5075.00,0.9340
5074.00,0.9166
5073.00,0.8997
5072.00,0.8834
5071.00,0.8676
5070.00,0.8526
5069.00,0.8382
5068.00,0.8247
5067.00,0.8122
5066.00,0.8008
5065.00,0.7907
5064.00,0.7818
5063.00,0.7741
5062.00,0.7676
5061.00,0.7625
5060.00,0.7586
5059.00,0.7561
5058.00,0.7550
5057.00,0.7553
5056.00,0.7569
5055.00,0.7599
5054.00,0.7643
5053.00,0.7699
5052.00,0.7768
5051.00,0.7847
5050.00,0.7937
5049.00,0.8038
5048.00,0.8149
5047.00,0.8269
5046.00,0.8398
5045.00,0.8535
5044.00,0.8678
5043.00,0.8826
5042.00,0.8979
5041.00,0.9137
5040.00,0.9299
5039.00,0.9463
5038.00,0.9630
5037.00,0.9798
5036.00,0.9968
5035.00,1.0140
5034.00,1.0314
5033.00,1.0490
5032.00,1.0664
5031.00,1.0838
5030.00,1.1010
5029.00,1.1181
5028.00,1.1351
5027.00,1.1518
5026.00,1.1682
5025.00,1.1843
5024.00,1.2000
5023.00,1.2155
5022.00,1.2306
5021.00,1.2453
5020.00,1.2596
5019.00,1.2733
5018.00,1.2863
5017.00,1.2990
5016.00,1.3113
5015.00,1.3232
5014.00,1.3345
5013.00,1.3452
5012.00,1.3554
5011.00,1.3652
5010.00,1.3746
5009.00,1.3835
5008.00,1.3919
5007.00,1.3996
5006.00,1.4065
5005.00,1.4128
5004.00,1.4188
5003.00,1.4247
5002.00,1.4304
5001.00,1.4356
5000.00,1.4403
4999.00,1.4443
4998.00,1.4478
4997.00,1.4508
4996.00,1.4532
4995.00,1.4550
4994.00,1.4561
4993.00,1.4566
4992.00,1.4566
4991.00,1.4565
4990.00,1.4560
4989.00,1.4551
4988.00,1.4536
4987.00,1.4515
4986.00,1.4488
4985.00,1.4455
4984.00,1.4418
4983.00,1.4376
4982.00,1.4329
4981.00,1.4279
4980.00,1.4224
4979.00,1.4165
4978.00,1.4101
4977.00,1.4032
4976.00,1.3958
4975.00,1.3879
4974.00,1.3795
4973.00,1.3704
4972.00,1.3608
4971.00,1.3505
4970.00,1.3398
4969.00,1.3285
4968.00,1.3168
4967.00,1.3044
4966.00,1.2915
4965.00,1.2779
4964.00,1.2637
4963.00,1.2491
4962.00,1.2340
4961.00,1.2184
4960.00,1.2022
4959.00,1.1854
4958.00,1.1681
4957.00,1.1503
4956.00,1.1321
4955.00,1.1135
4954.00,1.0945
4953.00,1.0752
4952.00,1.0557
4951.00,1.0361
4950.00,1.0164
4949.00,0.9969
4948.00,0.9774
4947.00,0.9581
4946.00,0.9392
4945.00,0.9207
4944.00,0.9027
4943.00,0.8852
4942.00,0.8684
4941.00,0.8522
4940.00,0.8369
4939.00,0.8224
4938.00,0.8090
4937.00,0.7966
4936.00,0.7854
4935.00,0.7755
4934.00,0.7669
4933.00,0.7597
4932.00,0.7539
4931.00,0.7496
4930.00,0.7467
4929.00,0.7453
4928.00,0.7455
4927.00,0.7471
4926.00,0.7502
4925.00,0.7547
4924.00,0.7606
4923.00,0.7678
4922.00,0.7763
4921.00,0.7859
4920.00,0.7967
4919.00,0.8084
4918.00,0.8213
4917.00,0.8350
4916.00,0.8495
4915.00,0.8646
4914.00,0.8803
4913.00,0.8965
4912.00,0.9131
4911.00,0.9302
4910.00,0.9476
4909.00,0.9653
4908.00,0.9833
4907.00,1.0016
4906.00,1.0199
4905.00,1.0382
4904.00,1.0565
4903.00,1.0746
4902.00,1.0925
4901.00,1.1104
4900.00,1.1283
4899.00,1.1461
4898.00,1.1637
4897.00,1.1810
4896.00,1.1979
4895.00,1.2144
4894.00,1.2304
4893.00,1.2461
4892.00,1.2614
4891.00,1.2763
4890.00,1.2906
4889.00,1.3042
4888.00,1.3173
4887.00,1.3301
4886.00,1.3427
4885.00,1.3549
4884.00,1.3665
4883.00,1.3774
4882.00,1.3874
4881.00,1.3968
4880.00,1.4058
4879.00,1.4144
4878.00,1.4226
4877.00,1.4301
4876.00,1.4370
4875.00,1.4433
4874.00,1.4491
4873.00,1.4546
4872.00,1.4597
4871.00,1.4643
4870.00,1.4684
4869.00,1.4720
4868.00,1.4753
4867.00,1.4781
4866.00,1.4803
4865.00,1.4818
4864.00,1.4826
4863.00,1.4828
4862.00,1.4826
4861.00,1.4821
4860.00,1.4813
4859.00,1.4801
4858.00,1.4783
4857.00,1.4760
4856.00,1.4732
4855.00,1.4700
4854.00,1.4664
4853.00,1.4625
4852.00,1.4579
4851.00,1.4527
4850.00,1.4467
4849.00,1.4400
4848.00,1.4328
4847.00,1.4251
4846.00,1.4170
4845.00,1.4087
4844.00,1.3999
4843.00,1.3905
4842.00,1.3805
4841.00,1.3698
4840.00,1.3584
4839.00,1.3465
4838.00,1.3339
4837.00,1.3207
4836.00,1.3069
4835.00,1.2925
4834.00,1.2775
4833.00,1.2620
4832.00,1.2460
4831.00,1.2296
4830.00,1.2126
4829.00,1.1951
4828.00,1.1770
4827.00,1.1583
4826.00,1.1390
4825.00,1.1193
4824.00,1.0994
4823.00,1.0793
4822.00,1.0592
4821.00,1.0391
4820.00,1.0189
4819.00,0.9986
4818.00,0.9784
4817.00,0.9583
4816.00,0.9387
4815.00,0.9195
4814.00,0.9010
4813.00,0.8830
4812.00,0.8659
4811.00,0.8495
4810.00,0.8342
4809.00,0.8199
4808.00,0.8068
4807.00,0.7948
4806.00,0.7842
4805.00,0.7752
4804.00,0.7675
4803.00,0.7614
4802.00,0.7569
4801.00,0.7539
4800.00,0.7525
4799.00,0.7528
4798.00,0.7548
4797.00,0.7582
4796.00,0.7632
4795.00,0.7696
4794.00,0.7774
4793.00,0.7867
4792.00,0.7972
4791.00,0.8089
4790.00,0.8217
4789.00,0.8353
4788.00,0.8498
4787.00,0.8651
4786.00,0.8812
4785.00,0.8979
4784.00,0.9152
4783.00,0.9329
4782.00,0.9511
4781.00,0.9695
4780.00,0.9882
4779.00,1.0071
4778.00,1.0261
4777.00,1.0452
4776.00,1.0644
4775.00,1.0835
4774.00,1.1026
4773.00,1.1215
4772.00,1.1401
4771.00,1.1586
4770.00,1.1769
4769.00,1.1950
4768.00,1.2126
4767.00,1.2298
4766.00,1.2468
4765.00,1.2635
4764.00,1.2798
4763.00,1.2957
4762.00,1.3109
4761.00,1.3255
4760.00,1.3394
4759.00,1.3527
4758.00,1.3654
4757.00,1.3776
4756.00,1.3892
4755.00,1.4002
4754.00,1.4108
4753.00,1.4210
4752.00,1.4308
4751.00,1.4403
4750.00,1.4494
4749.00,1.4579
4748.00,1.4657
4747.00,1.4729
4746.00,1.4794
4745.00,1.4853
4744.00,1.4906
4743.00,1.4956
4742.00,1.5001
4741.00,1.5041
4740.00,1.5075
4739.00,1.5103
4738.00,1.5126
4737.00,1.5144
4736.00,1.5157
4735.00,1.5165
4734.00,1.5167
4733.00,1.5164
4732.00,1.5159
4731.00,1.5151
4730.00,1.5139
4729.00,1.5122
4728.00,1.5098
4727.00,1.5067
4726.00,1.5029
4725.00,1.4985
4724.00,1.4937
4723.00,1.4886
4722.00,1.4833
4721.00,1.4776
4720.00,1.4714
4719.00,1.4644
4718.00,1.4566
4717.00,1.4480
4716.00,1.4387
4715.00,1.4292
4714.00,1.4194
4713.00,1.4092
4712.00,1.3983
4711.00,1.3866
4710.00,1.3742
4709.00,1.3611
4708.00,1.3475
4707.00,1.3334
4706.00,1.3188
4705.00,1.3034
4704.00,1.2873
4703.00,1.2704
4702.00,1.2531
4701.00,1.2353
4700.00,1.2170
4699.00,1.1983
4698.00,1.1792
4697.00,1.1597
4696.00,1.1399
4695.00,1.1198
4694.00,1.0995
4693.00,1.0789
4692.00,1.0583
4691.00,1.0376
4690.00,1.0171
4689.00,0.9968
4688.00,0.9768
4687.00,0.9574
4686.00,0.9384
4685.00,0.9201
4684.00,0.9025
4683.00,0.8856
4682.00,0.8697
4681.00,0.8548
4680.00,0.8410
4679.00,0.8284
4678.00,0.8171
4677.00,0.8070
4676.00,0.7983
4675.00,0.7909
4674.00,0.7851
4673.00,0.7807
4672.00,0.7779
4671.00,0.7766
4670.00,0.7768
4669.00,0.7784
4668.00,0.7816
4667.00,0.7861
4666.00,0.7922
4665.00,0.7997
4664.00,0.8085
4663.00,0.8185
4662.00,0.8298
4661.00,0.8421
4660.00,0.8554
4659.00,0.8697
4658.00,0.8848
4657.00,0.9008
4656.00,0.9173
4655.00,0.9345
4654.00,0.9522
4653.00,0.9704
4652.00,0.9891
4651.00,1.0081
4650.00,1.0274
4649.00,1.0467
4648.00,1.0662
4647.00,1.0856
4646.00,1.1053
4645.00,1.1250
4644.00,1.1447
4643.00,1.1642
4642.00,1.1834
4641.00,1.2021
4640.00,1.2205
4639.00,1.2384
4638.00,1.2560
4637.00,1.2734
4636.00,1.2903
4635.00,1.3069
4634.00,1.3230
4633.00,1.3387
4632.00,1.3539
4631.00,1.3687
4630.00,1.3829
4629.00,1.3965
4628.00,1.4094
4627.00,1.4217
4626.00,1.4335
4625.00,1.4446
4624.00,1.4551
4623.00,1.4649
4622.00,1.4742
4621.00,1.4828
4620.00,1.4908
4619.00,1.4984
4618.00,1.5055
4617.00,1.5123
4616.00,1.5187
4615.00,1.5247
4614.00,1.5300
4613.00,1.5346
4612.00,1.5385
4611.00,1.5419
4610.00,1.5449
4609.00,1.5474
4608.00,1.5494
4607.00,1.5508
4606.00,1.5518
4605.00,1.5522
4604.00,1.5522
4603.00,1.5517
4602.00,1.5506
4601.00,1.5491
4600.00,1.5471
4599.00,1.5446
4598.00,1.5417
4597.00,1.5382
4596.00,1.5342
4595.00,1.5296
4594.00,1.5246
4593.00,1.5192
4592.00,1.5134
4591.00,1.5071
4590.00,1.5003
4589.00,1.4928
4588.00,1.4845
4587.00,1.4757
4586.00,1.4664
4585.00,1.4565
4584.00,1.4458
4583.00,1.4344
4582.00,1.4225
4581.00,1.4101
4580.00,1.3973
4579.00,1.3839
4578.00,1.3699
4577.00,1.3551
4576.00,1.3397
4575.00,1.3235
4574.00,1.3066
4573.00,1.2892
4572.00,1.2711
4571.00,1.2524
4570.00,1.2331
4569.00,1.2132
4568.00,1.1927
4567.00,1.1716
4566.00,1.1502
4565.00,1.1284
4564.00,1.1064
4563.00,1.0841
4562.00,1.0617
4561.00,1.0392
4560.00,1.0168
4559.00,0.9946
4558.00,0.9726
4557.00,0.9511
4556.00,0.9302
4555.00,0.9100
4554.00,0.8906
4553.00,0.8722
4552.00,0.8549
4551.00,0.8388
4550.00,0.8239
4549.00,0.8105
4548.00,0.7986
4547.00,0.7884
4546.00,0.7799
4545.00,0.7731
4544.00,0.7681
4543.00,0.7649
4542.00,0.7637
4541.00,0.7642
4540.00,0.7665
4539.00,0.7706
4538.00,0.7765
4537.00,0.7840
4536.00,0.7932
4535.00,0.8039
4534.00,0.8161
4533.00,0.8295
4532.00,0.8441
4531.00,0.8598
4530.00,0.8763
4529.00,0.8937
4528.00,0.9118
4527.00,0.9305
4526.00,0.9498
4525.00,0.9697
4524.00,0.9899
4523.00,1.0104
4522.00,1.0311
4521.00,1.0520
4520.00,1.0730
4519.00,1.0941
4518.00,1.1152
4517.00,1.1363
4516.00,1.1571
4515.00,1.1777
4514.00,1.1982
4513.00,1.2184
4512.00,1.2383
4511.00,1.2577
4510.00,1.2766
4509.00,1.2950
4508.00,1.3130
4507.00,1.3305
4506.00,1.3476
4505.00,1.3641
4504.00,1.3800
4503.00,1.3951
4502.00,1.4095
4501.00,1.4232
4500.00,1.4364
4499.00,1.4491
4498.00,1.4615
4497.00,1.4735
4496.00,1.4849
4495.00,1.4957
4494.00,1.5058
4493.00,1.5151
4492.00,1.5238
4491.00,1.5317
4490.00,1.5391
4489.00,1.5458
4488.00,1.5518
4487.00,1.5572
4486.00,1.5620
4485.00,1.5666
4484.00,1.5710
4483.00,1.5749
4482.00,1.5782
4481.00,1.5808
4480.00,1.5829
4479.00,1.5846
4478.00,1.5860
4477.00,1.5869
4476.00,1.5871
4475.00,1.5865
4474.00,1.5854
4473.00,1.5838
4472.00,1.5819
4471.00,1.5796
4470.00,1.5767
4469.00,1.5734
4468.00,1.5696
4467.00,1.5653
4466.00,1.5604
4465.00,1.5549
4464.00,1.5487
4463.00,1.5420
4462.00,1.5347
4461.00,1.5270
4460.00,1.5189
4459.00,1.5102
4458.00,1.5008
4457.00,1.4907
4456.00,1.4800
4455.00,1.4686
4454.00,1.4567
4453.00,1.4442
4452.00,1.4312
4451.00,1.4176
4450.00,1.4033
4449.00,1.3885
4448.00,1.3729
4447.00,1.3566
4446.00,1.3396
4445.00,1.3219
4444.00,1.3035
4443.00,1.2843
4442.00,1.2644
4441.00,1.2440
4440.00,1.2230
4439.00,1.2015
4438.00,1.1795
4437.00,1.1572
4436.00,1.1346
4435.00,1.1116
4434.00,1.0885
4433.00,1.0654
4432.00,1.0425
4431.00,1.0198
4430.00,0.9975
4429.00,0.9756
4428.00,0.9544
4427.00,0.9339
4426.00,0.9143
4425.00,0.8958
4424.00,0.8784
4423.00,0.8624
4422.00,0.8478
4421.00,0.8346
4420.00,0.8231
4419.00,0.8134
4418.00,0.8054
4417.00,0.7993
4416.00,0.7952
4415.00,0.7930
4414.00,0.7927
4413.00,0.7944
4412.00,0.7980
4411.00,0.8035
4410.00,0.8108
4409.00,0.8199
4408.00,0.8306
4407.00,0.8427
4406.00,0.8563
4405.00,0.8712
4404.00,0.8872
4403.00,0.9042
4402.00,0.9221
4401.00,0.9409
4400.00,0.9603
4399.00,0.9803
4398.00,1.0008
4397.00,1.0217
4396.00,1.0429
4395.00,1.0644
4394.00,1.0859
4393.00,1.1075
4392.00,1.1291
4391.00,1.1505
4390.00,1.1719
4389.00,1.1930
4388.00,1.2139
4387.00,1.2346
4386.00,1.2552
4385.00,1.2755
4384.00,1.2953
4383.00,1.3146
4382.00,1.3332
4381.00,1.3512
4380.00,1.3687
4379.00,1.3857
4378.00,1.4022
4377.00,1.4181
4376.00,1.4334
4375.00,1.4480
4374.00,1.4619
4373.00,1.4753
4372.00,1.4884
4371.00,1.5010
4370.00,1.5131
4369.00,1.5243
4368.00,1.5347
4367.00,1.5444
4366.00,1.5537
4365.00,1.5627
4364.00,1.5714
4363.00,1.5794
4362.00,1.5867
4361.00,1.5933
4360.00,1.5995
4359.00,1.6055
4358.00,1.6113
4357.00,1.6165
4356.00,1.6210
4355.00,1.6248
4354.00,1.6279
4353.00,1.6307
4352.00,1.6331
4351.00,1.6353
4350.00,1.6372
4349.00,1.6389
4348.00,1.6400
4347.00,1.6406
4346.00,1.6405
4345.00,1.6398
4344.00,1.6385
4343.00,1.6368
4342.00,1.6348
4341.00,1.6324
4340.00,1.6294
4339.00,1.6257
4338.00,1.6216
4337.00,1.6171
4336.00,1.6122
4335.00,1.6069
4334.00,1.6010
4333.00,1.5943
4332.00,1.5869
4331.00,1.5788
4330.00,1.5701
4329.00,1.5609
4328.00,1.5511
4327.00,1.5409
4326.00,1.5302
4325.00,1.5191
4324.00,1.5075
4323.00,1.4952
4322.00,1.4822
4321.00,1.4685
4320.00,1.4541
4319.00,1.4390
4318.00,1.4232
4317.00,1.4069
4316.00,1.3898
4315.00,1.3721
4314.00,1.3538
4313.00,1.3349
4312.00,1.3154
4311.00,1.2954
4310.00,1.2748
4309.00,1.2536
4308.00,1.2320
4307.00,1.2100
4306.00,1.1877
4305.00,1.1650
4304.00,1.1421
4303.00,1.1190
4302.00,1.0961
4301.00,1.0736
4300.00,1.0516
4299.00,1.0301
4298.00,1.0093
4297.00,0.9892
4296.00,0.9700
4295.00,0.9519
4294.00,0.9350
4293.00,0.9195
4292.00,0.9055
4291.00,0.8931
4290.00,0.8824
4289.00,0.8734
4288.00,0.8662
4287.00,0.8607
4286.00,0.8570
4285.00,0.8551
4284.00,0.8550
4283.00,0.8566
4282.00,0.8598
4281.00,0.8646
4280.00,0.8708
4279.00,0.8785
4278.00,0.8875
4277.00,0.8979
4276.00,0.9096
4275.00,0.9226
4274.00,0.9367
4273.00,0.9519
4272.00,0.9680
4271.00,0.9850
4270.00,1.0027
4269.00,1.0211
4268.00,1.0400
4267.00,1.0593
4266.00,1.0790
4265.00,1.0989
4264.00,1.1190
4263.00,1.1394
4262.00,1.1599
4261.00,1.1806
4260.00,1.2014
4259.00,1.2221
4258.00,1.2427
4257.00,1.2631
4256.00,1.2833
4255.00,1.3032
4254.00,1.3229
4253.00,1.3425
4252.00,1.3617
4251.00,1.3805
4250.00,1.3987
4249.00,1.4163
4248.00,1.4334
4247.00,1.4500
4246.00,1.4661
4245.00,1.4817
4244.00,1.4967
4243.00,1.5111
4242.00,1.5249
4241.00,1.5381
4240.00,1.5505
4239.00,1.5624
4238.00,1.5735
4237.00,1.5840
4236.00,1.5938
4235.00,1.6029
4234.00,1.6115
4233.00,1.6196
4232.00,1.6274
4231.00,1.6347
4230.00,1.6417
4229.00,1.6480
4228.00,1.6536
4227.00,1.6585
4226.00,1.6627
4225.00,1.6665
4224.00,1.6699
4223.00,1.6727
4222.00,1.6749
4221.00,1.6765
4220.00,1.6777
4219.00,1.6787
4218.00,1.6796
4217.00,1.6800
4216.00,1.6795
4215.00,1.6782
4214.00,1.6760
4213.00,1.6733
4212.00,1.6702
4211.00,1.6669
4210.00,1.6632
4209.00,1.6591
4208.00,1.6543
4207.00,1.6489
4206.00,1.6429
4205.00,1.6365
4204.00,1.6298
4203.00,1.6226
4202.00,1.6148
4201.00,1.6063
4200.00,1.5971
4199.00,1.5873
4198.00,1.5769
4197.00,1.5660
4196.00,1.5544
4195.00,1.5422
4194.00,1.5292
4193.00,1.5155
4192.00,1.5010
4191.00,1.4860
4190.00,1.4705
4189.00,1.4543
4188.00,1.4374
4187.00,1.4198
4186.00,1.4017
4185.00,1.3831
4184.00,1.3640
4183.00,1.3442
4182.00,1.3237
4181.00,1.3024
4180.00,1.2805
4179.00,1.2582
4178.00,1.2354
4177.00,1.2122
4176.00,1.1887
4175.00,1.1650
4174.00,1.1412
4173.00,1.1176
4172.00,1.0941
4171.00,1.0708
4170.00,1.0478
4169.00,1.0254
4168.00,1.0036
4167.00,0.9827
4166.00,0.9627
4165.00,0.9439
4164.00,0.9264
4163.00,0.9103
4162.00,0.8958
4161.00,0.8829
4160.00,0.8719
4159.00,0.8628
4158.00,0.8556
4157.00,0.8504
4156.00,0.8474
4155.00,0.8464
4154.00,0.8476
4153.00,0.8508
4152.00,0.8559
4151.00,0.8628
4150.00,0.8716
4149.00,0.8821
4148.00,0.8943
4147.00,0.9081
4146.00,0.9232
4145.00,0.9395
4144.00,0.9569
4143.00,0.9754
4142.00,0.9948
4141.00,1.0150
4140.00,1.0360
4139.00,1.0575
4138.00,1.0795
4137.00,1.1017
4136.00,1.1243
4135.00,1.1470
4134.00,1.1700
4133.00,1.1930
4132.00,1.2159
4131.00,1.2388
4130.00,1.2614
4129.00,1.2839
4128.00,1.3061
4127.00,1.3278
4126.00,1.3490
4125.00,1.3697
4124.00,1.3898
4123.00,1.4095
4122.00,1.4285
4121.00,1.4470
4120.00,1.4650
4119.00,1.4825
4118.00,1.4994
4117.00,1.5159
4116.00,1.5318
4115.00,1.5470
4114.00,1.5613
4113.00,1.5748
4112.00,1.5875
4111.00,1.5995
4110.00,1.6109
4109.00,1.6218
4108.00,1.6323
4107.00,1.6424
4106.00,1.6521
4105.00,1.6613
4104.00,1.6697
4103.00,1.6772
4102.00,1.6840
4101.00,1.6904
4100.00,1.6965
4099.00,1.7025
4098.00,1.7080
4097.00,1.7126
4096.00,1.7162
4095.00,1.7189
4094.00,1.7211
4093.00,1.7229
4092.00,1.7247
4091.00,1.7263
4090.00,1.7276
4089.00,1.7283
4088.00,1.7282
4087.00,1.7275
4086.00,1.7265
4085.00,1.7251
4084.00,1.7233
4083.00,1.7210
4082.00,1.7177
4081.00,1.7136
4080.00,1.7088
4079.00,1.7034
4078.00,1.6979
4077.00,1.6922
4076.00,1.6862
4075.00,1.6793
4074.00,1.6716
4073.00,1.6632
4072.00,1.6542
4071.00,1.6450
4070.00,1.6354
4069.00,1.6251
4068.00,1.6142
4067.00,1.6025
4066.00,1.5901
4065.00,1.5770
4064.00,1.5631
4063.00,1.5484
4062.00,1.5328
4061.00,1.5164
4060.00,1.4993
4059.00,1.4818
4058.00,1.4637
4057.00,1.4450
4056.00,1.4254
4055.00,1.4050
4054.00,1.3837
4053.00,1.3617
4052.00,1.3389
4051.00,1.3155
4050.00,1.2915
4049.00,1.2671
4048.00,1.2423
4047.00,1.2171
4046.00,1.1917
4045.00,1.1660
4044.00,1.1401
4043.00,1.1142
4042.00,1.0886
4041.00,1.0635
4040.00,1.0390
4039.00,1.0152
4038.00,0.9924
4037.00,0.9705
4036.00,0.9498
4035.00,0.9305
4034.00,0.9128
4033.00,0.8968
4032.00,0.8829
4031.00,0.8712
4030.00,0.8616
4029.00,0.8545
4028.00,0.8498
4027.00,0.8475
4026.00,0.8478
4025.00,0.8505
4024.00,0.8556
4023.00,0.8630
4022.00,0.8725
4021.00,0.8840
4020.00,0.8973
4019.00,0.9123
4018.00,0.9288
4017.00,0.9466
4016.00,0.9656
4015.00,0.9856
4014.00,1.0066
4013.00,1.0283
4012.00,1.0507
4011.00,1.0736
4010.00,1.0969
4009.00,1.1205
4008.00,1.1445
4007.00,1.1687
4006.00,1.1930
4005.00,1.2173
4004.00,1.2417
4003.00,1.2659
4002.00,1.2899
4001.00,1.3137
4000.00,1.3371
3999.00,1.3600
3998.00,1.3824
3997.00,1.4042
3996.00,1.4255
3995.00,1.4462
3994.00,1.4665
3993.00,1.4863
3992.00,1.5056
3991.00,1.5242
3990.00,1.5420
3989.00,1.5590
3988.00,1.5753
3987.00,1.5909
3986.00,1.6058
3985.00,1.6200
3984.00,1.6334
3983.00,1.6460
3982.00,1.6581
3981.00,1.6696
3980.00,1.6806
3979.00,1.6910
3978.00,1.7008
3977.00,1.7097
3976.00,1.7178
3975.00,1.7249
3974.00,1.7313
3973.00,1.7372
3972.00,1.7427
3971.00,1.7480
3970.00,1.7530
3969.00,1.7576
3968.00,1.7618
3967.00,1.7655
3966.00,1.7686
3965.00,1.7709
3964.00,1.7726
3963.00,1.7736
3962.00,1.7741
3961.00,1.7744
3960.00,1.7744
3959.00,1.7740
3958.00,1.7731
3957.00,1.7716
3956.00,1.7693
3955.00,1.7665
3954.00,1.7631
3953.00,1.7592
3952.00,1.7547
3951.00,1.7496
3950.00,1.7438
3949.00,1.7375
3948.00,1.7308
3947.00,1.7238
3946.00,1.7162
3945.00,1.7078
3944.00,1.6986
3943.00,1.6887
3942.00,1.6785
3941.00,1.6680
3940.00,1.6569
3939.00,1.6451
3938.00,1.6325
3937.00,1.6191
3936.00,1.6053
3935.00,1.5911
3934.00,1.5762
3933.00,1.5603
3932.00,1.5435
3931.00,1.5258
3930.00,1.5074
3929.00,1.4886
3928.00,1.4692
3927.00,1.4490
3926.00,1.4278
3925.00,1.4054
3924.00,1.3819
3923.00,1.3577
3922.00,1.3329
3921.00,1.3077
3920.00,1.2819
3919.00,1.2553
3918.00,1.2276
3917.00,1.1987
3916.00,1.1693
3915.00,1.1398
3914.00,1.1109
3913.00,1.0826
3912.00,1.0548
3911.00,1.0276
3910.00,1.0012
3909.00,0.9761
3908.00,0.9527
3907.00,0.9312
3906.00,0.9115
3905.00,0.8934
3904.00,0.8769
3903.00,0.8623
3902.00,0.8502
3901.00,0.8407
3900.00,0.8342
3899.00,0.8305
3898.00,0.8299
3897.00,0.8324
3896.00,0.8380
3895.00,0.8467
3894.00,0.8580
3893.00,0.8717
3892.00,0.8877
3891.00,0.9055
3890.00,0.9248
3889.00,0.9451
3888.00,0.9660
3887.00,0.9883
3886.00,1.0124
3885.00,1.0384
3884.00,1.0650
3883.00,1.0912
3882.00,1.1170
3881.00,1.1432
3880.00,1.1705
3879.00,1.1985
3878.00,1.2263
3877.00,1.2531
3876.00,1.2790
3875.00,1.3046
3874.00,1.3302
3873.00,1.3554
3872.00,1.3799
3871.00,1.4039
3870.00,1.4283
3869.00,1.4529
3868.00,1.4768
3867.00,1.4991
3866.00,1.5201
3865.00,1.5404
3864.00,1.5606
3863.00,1.5802
3862.00,1.5987
3861.00,1.6162
3860.00,1.6326
3859.00,1.6481
3858.00,1.6630
3857.00,1.6774
3856.00,1.6907
3855.00,1.7030
3854.00,1.7149
3853.00,1.7265
3852.00,1.7373
3851.00,1.7470
3850.00,1.7558
3849.00,1.7644
3848.00,1.7732
3847.00,1.7820
3846.00,1.7905
3845.00,1.7983
3844.00,1.8050
3843.00,1.8109
3842.00,1.8159
3841.00,1.8198
3840.00,1.8227
3839.00,1.8250
3838.00,1.8271
3837.00,1.8289
3836.00,1.8301
3835.00,1.8305
3834.00,1.8302
3833.00,1.8296
3832.00,1.8290
3831.00,1.8284
3830.00,1.8276
3829.00,1.8263
3828.00,1.8239
3827.00,1.8206
3826.00,1.8167
3825.00,1.8127
3824.00,1.8084
3823.00,1.8033
3822.00,1.7971
3821.00,1.7897
3820.00,1.7816
3819.00,1.7734
3818.00,1.7651
3817.00,1.7559
3816.00,1.7453
3815.00,1.7338
3814.00,1.7221
3813.00,1.7107
3812.00,1.6997
3811.00,1.6885
3810.00,1.6769
3809.00,1.6641
3808.00,1.6495
3807.00,1.6329
3806.00,1.6152
3805.00,1.5973
3804.00,1.5794
3803.00,1.5604
3802.00,1.5390
3801.00,1.5149
3800.00,1.4897
3799.00,1.4647
3798.00,1.4399
3797.00,1.4146
3796.00,1.3882
3795.00,1.3609
3794.00,1.3331
3793.00,1.3051
3792.00,1.2767
3791.00,1.2478
3790.00,1.2185
3789.00,1.1889
3788.00,1.1592
3787.00,1.1295
3786.00,1.0999
3785.00,1.0707
3784.00,1.0425
3783.00,1.0159
3782.00,0.9911
3781.00,0.9676
3780.00,0.9455
3779.00,0.9249
3778.00,0.9064
3777.00,0.8907
3776.00,0.8784
3775.00,0.8695
3774.00,0.8640
3773.00,0.8616
3772.00,0.8623
3771.00,0.8657
3770.00,0.8717
3769.00,0.8802
3768.00,0.8909
3767.00,0.9040
3766.00,0.9197
3765.00,0.9381
3764.00,0.9585
3763.00,0.9803
3762.00,1.0029
3761.00,1.0267
3760.00,1.0519
3759.00,1.0786
3758.00,1.1061
3757.00,1.1341
3756.00,1.1621
3755.00,1.1898
3754.00,1.2169
3753.00,1.2436
3752.00,1.2709
3751.00,1.2994
3750.00,1.3290
3749.00,1.3590
3748.00,1.3880
3747.00,1.4152
3746.00,1.4409
3745.00,1.4667
3744.00,1.4938
3743.00,1.5212
3742.00,1.5468
3741.00,1.5701
3740.00,1.5916
3739.00,1.6121
3738.00,1.6317
3737.00,1.6505
3736.00,1.6688
3735.00,1.6866
3734.00,1.7035
3733.00,1.7194
3732.00,1.7344
3731.00,1.7487
3730.00,1.7621
3729.00,1.7746
3728.00,1.7864
3727.00,1.7974
3726.00,1.8074
3725.00,1.8163
3724.00,1.8243
3723.00,1.8315
3722.00,1.8387
3721.00,1.8463
3720.00,1.8544
3719.00,1.8630
3718.00,1.8718
3717.00,1.8808
3716.00,1.8900
3715.00,1.8989
3714.00,1.9071
3713.00,1.9144
3712.00,1.9208
3711.00,1.9264
3710.00,1.9313
3709.00,1.9355
3708.00,1.9390
3707.00,1.9418
3706.00,1.9436
3705.00,1.9440
3704.00,1.9422
3703.00,1.9381
3702.00,1.9317
3701.00,1.9235
3700.00,1.9140
3699.00,1.9031
3698.00,1.8909
3697.00,1.8783
3696.00,1.8663
3695.00,1.8555
3694.00,1.8459
3693.00,1.8370
3692.00,1.8287
3691.00,1.8212
3690.00,1.8148
3689.00,1.8081
3688.00,1.8000
3687.00,1.7902
3686.00,1.7795
3685.00,1.7683
3684.00,1.7565
3683.00,1.7434
3682.00,1.7286
3681.00,1.7121
3680.00,1.6942
3679.00,1.6753
3678.00,1.6552
3677.00,1.6328
3676.00,1.6069
3675.00,1.5784
3674.00,1.5498
3673.00,1.5229
3672.00,1.4972
3671.00,1.4706
3670.00,1.4423
3669.00,1.4132
3668.00,1.3849
3667.00,1.3586
3666.00,1.3344
3665.00,1.3119
3664.00,1.2906
3663.00,1.2702
3662.00,1.2509
3661.00,1.2332
3660.00,1.2174
3659.00,1.2039
3658.00,1.1924
3657.00,1.1824
3656.00,1.1738
3655.00,1.1672
3654.00,1.1636
3653.00,1.1633
3652.00,1.1657
3651.00,1.1699
3650.00,1.1758
3649.00,1.1831
3648.00,1.1915
3647.00,1.2014
3646.00,1.2131
3645.00,1.2269
3644.00,1.2427
3643.00,1.2603
3642.00,1.2792
3641.00,1.2989
3640.00,1.3190
3639.00,1.3394
3638.00,1.3603
3637.00,1.3815
3636.00,1.4028
3635.00,1.4241
3634.00,1.4454
3633.00,1.4669
3632.00,1.4884
3631.00,1.5098
3630.00,1.5315
3629.00,1.5539
3628.00,1.5765
3627.00,1.5982
3626.00,1.6185
3625.00,1.6377
3624.00,1.6566
3623.00,1.6754
3622.00,1.6941
3621.00,1.7124
3620.00,1.7306
3619.00,1.7488
3618.00,1.7668
3617.00,1.7845
3616.00,1.8019
3615.00,1.8191
3614.00,1.8364
3613.00,1.8536
3612.00,1.8707
3611.00,1.8879
3610.00,1.9049
3609.00,1.9215
3608.00,1.9374
3607.00,1.9521
3606.00,1.9652
3605.00,1.9771
3604.00,1.9881
3603.00,1.9980
3602.00,2.0069
3601.00,2.0144
3600.00,2.0202
3599.00,2.0243
3598.00,2.0271
3597.00,2.0288
3596.00,2.0297
3595.00,2.0303
3594.00,2.0311
3593.00,2.0326
3592.00,2.0352
3591.00,2.0396
3590.00,2.0459
3589.00,2.0535
3588.00,2.0610
3587.00,2.0671
3586.00,2.0715
3585.00,2.0749
3584.00,2.0782
3583.00,2.0811
3582.00,2.0829
3581.00,2.0838
3580.00,2.0837
3579.00,2.0829
3578.00,2.0813
3577.00,2.0787
3576.00,2.0753
3575.00,2.0715
3574.00,2.0671
3573.00,2.0622
3572.00,2.0572
3571.00,2.0523
3570.00,2.0478
3569.00,2.0429
3568.00,2.0371
3567.00,2.0300
3566.00,2.0220
3565.00,2.0138
3564.00,2.0058
3563.00,1.9982
3562.00,1.9905
3561.00,1.9826
3560.00,1.9743
3559.00,1.9659
3558.00,1.9575
3557.00,1.9490
3556.00,1.9400
3555.00,1.9306
3554.00,1.9208
3553.00,1.9110
3552.00,1.9011
3551.00,1.8912
3550.00,1.8811
3549.00,1.8709
3548.00,1.8604
3547.00,1.8496
3546.00,1.8386
3545.00,1.8274
3544.00,1.8163
3543.00,1.8051
3542.00,1.7942
3541.00,1.7836
3540.00,1.7733
3539.00,1.7631
3538.00,1.7529
3537.00,1.7425
3536.00,1.7321
3535.00,1.7219
3534.00,1.7120
3533.00,1.7024
3532.00,1.6933
3531.00,1.6846
3530.00,1.6762
3529.00,1.6681
3528.00,1.6602
3527.00,1.6529
3526.00,1.6463
3525.00,1.6404
3524.00,1.6351
3523.00,1.6304
3522.00,1.6261
3521.00,1.6225
3520.00,1.6195
3519.00,1.6172
3518.00,1.6158
3517.00,1.6151
3516.00,1.6149
3515.00,1.6153
3514.00,1.6161
3513.00,1.6175
3512.00,1.6197
3511.00,1.6226
3510.00,1.6262
3509.00,1.6303
3508.00,1.6350
3507.00,1.6402
3506.00,1.6459
3505.00,1.6523
3504.00,1.6593
3503.00,1.6670
3502.00,1.6754
3501.00,1.6841
3500.00,1.6932
3499.00,1.7026
3498.00,1.7126
3497.00,1.7230
3496.00,1.7337
3495.00,1.7446
3494.00,1.7556
3493.00,1.7669
3492.00,1.7785
3491.00,1.7903
3490.00,1.8021
3489.00,1.8138
3488.00,1.8255
3487.00,1.8374
3486.00,1.8495
3485.00,1.8615
3484.00,1.8734
3483.00,1.8853
3482.00,1.8973
3481.00,1.9091
3480.00,1.9205
3479.00,1.9314
3478.00,1.9420
3477.00,1.9525
3476.00,1.9630
3475.00,1.9733
3474.00,1.9832
3473.00,1.9928
3472.00,2.0024
3471.00,2.0122
3470.00,2.0221
3469.00,2.0314
3468.00,2.0400
3467.00,2.0478
3466.00,2.0548
3465.00,2.0612
3464.00,2.0669
3463.00,2.0724
3462.00,2.0780
3461.00,2.0838
3460.00,2.0895
3459.00,2.0946
3458.00,2.0993
3457.00,2.1036
3456.00,2.1078
3455.00,2.1120
3454.00,2.1156
3453.00,2.1185
3452.00,2.1208
3451.00,2.1228
3450.00,2.1241
3449.00,2.1245
3448.00,2.1241
3447.00,2.1235
3446.00,2.1234
3445.00,2.1239
3444.00,2.1244
3443.00,2.1240
3442.00,2.1221
3441.00,2.1192
3440.00,2.1163
3439.00,2.1139
3438.00,2.1115
3437.00,2.1084
3436.00,2.1042
3435.00,2.0992
3434.00,2.0943
3433.00,2.0897
3432.00,2.0848
3431.00,2.0792
3430.00,2.0729
3429.00,2.0662
3428.00,2.0594
3427.00,2.0526
3426.00,2.0457
3425.00,2.0385
3424.00,2.0308
3423.00,2.0227
3422.00,2.0143
3421.00,2.0055
3420.00,1.9963
3419.00,1.9870
3418.00,1.9774
3417.00,1.9677
3416.00,1.9581
3415.00,1.9489
3414.00,1.9402
3413.00,1.9315
3412.00,1.9227
3411.00,1.9136
3410.00,1.9042
3409.00,1.8946
3408.00,1.8849
3407.00,1.8750
3406.00,1.8648
3405.00,1.8538
3404.00,1.8419
3403.00,1.8290
3402.00,1.8155
3401.00,1.8014
3400.00,1.7866
3399.00,1.7710
3398.00,1.7546
3397.00,1.7378
3396.00,1.7206
3395.00,1.7032
3394.00,1.6856
3393.00,1.6681
3392.00,1.6507
3391.00,1.6337
3390.00,1.6174
3389.00,1.6018
3388.00,1.5869
3387.00,1.5729
3386.00,1.5599
3385.00,1.5481
3384.00,1.5374
3383.00,1.5280
3382.00,1.5199
3381.00,1.5134
3380.00,1.5085
3379.00,1.5052
3378.00,1.5037
3377.00,1.5038
3376.00,1.5056
3375.00,1.5091
3374.00,1.5141
3373.00,1.5205
3372.00,1.5283
3371.00,1.5375
3370.00,1.5480
3369.00,1.5597
3368.00,1.5725
3367.00,1.5862
3366.00,1.6008
3365.00,1.6161
3364.00,1.6321
3363.00,1.6487
3362.00,1.6657
3361.00,1.6830
3360.00,1.7006
3359.00,1.7184
3358.00,1.7362
3357.00,1.7539
3356.00,1.7715
3355.00,1.7892
3354.00,1.8068
3353.00,1.8243
3352.00,1.8415
3351.00,1.8581
3350.00,1.8744
3349.00,1.8901
3348.00,1.9054
3347.00,1.9201
3346.00,1.9342
3345.00,1.9477
3344.00,1.9607
3343.00,1.9732
3342.00,1.9857
3341.00,1.9978
3340.00,2.0095
3339.00,2.0206
3338.00,2.0313
3337.00,2.0416
3336.00,2.0515
3335.00,2.0606
3334.00,2.0689
3333.00,2.0766
3332.00,2.0837
3331.00,2.0901
3330.00,2.0960
3329.00,2.1017
3328.00,2.1071
3327.00,2.1120
3326.00,2.1167
3325.00,2.1211
3324.00,2.1252
3323.00,2.1286
3322.00,2.1312
3321.00,2.1333
3320.00,2.1350
3319.00,2.1363
3318.00,2.1370
3317.00,2.1366
3316.00,2.1352
3315.00,2.1332
3314.00,2.1311
3313.00,2.1294
3312.00,2.1281
3311.00,2.1266
3310.00,2.1245
3309.00,2.1214
3308.00,2.1171
3307.00,2.1121
3306.00,2.1065
3305.00,2.1008
3304.00,2.0947
3303.00,2.0884
3302.00,2.0819
3301.00,2.0749
3300.00,2.0670
3299.00,2.0580
3298.00,2.0483
3297.00,2.0383
3296.00,2.0284
3295.00,2.0185
3294.00,2.0080
3293.00,1.9968
3292.00,1.9848
3291.00,1.9719
3290.00,1.9585
3289.00,1.9445
3288.00,1.9301
3287.00,1.9151
3286.00,1.8995
3285.00,1.8834
3284.00,1.8670
3283.00,1.8503
3282.00,1.8333
3281.00,1.8160
3280.00,1.7982
3279.00,1.7800
3278.00,1.7615
3277.00,1.7430
3276.00,1.7247
3275.00,1.7064
3274.00,1.6881
3273.00,1.6699
3272.00,1.6518
3271.00,1.6342
3270.00,1.6172
3269.00,1.6008
3268.00,1.5852
3267.00,1.5704
3266.00,1.5567
3265.00,1.5440
3264.00,1.5324
3263.00,1.5221
3262.00,1.5131
3261.00,1.5056
3260.00,1.4996
3259.00,1.4952
3258.00,1.4925
3257.00,1.4914
3256.00,1.4921
3255.00,1.4942
3254.00,1.4979
3253.00,1.5031
3252.00,1.5098
3251.00,1.5181
3250.00,1.5277
3249.00,1.5387
3248.00,1.5507
3247.00,1.5637
3246.00,1.5777
3245.00,1.5926
3244.00,1.6084
3243.00,1.6249
3242.00,1.6419
3241.00,1.6595
3240.00,1.6776
3239.00,1.6960
3238.00,1.7145
3237.00,1.7331
3236.00,1.7515
3235.00,1.7699
3234.00,1.7884
3233.00,1.8068
3232.00,1.8250
3231.00,1.8429
3230.00,1.8605
3229.00,1.8781
3228.00,1.8957
3227.00,1.9131
3226.00,1.9300
3225.00,1.9461
3224.00,1.9614
3223.00,1.9761
3222.00,1.9905
3221.00,2.0046
3220.00,2.0184
3219.00,2.0316
3218.00,2.0442
3217.00,2.0563
3216.00,2.0680
3215.00,2.0795
3214.00,2.0906
3213.00,2.1009
3212.00,2.1103
3211.00,2.1189
3210.00,2.1271
3209.00,2.1350
3208.00,2.1428
3207.00,2.1505
3206.00,2.1581
3205.00,2.1653
3204.00,2.1718
3203.00,2.1772
3202.00,2.1819
3201.00,2.1864
3200.00,2.1905
3199.00,2.1940
3198.00,2.1967
3197.00,2.1992
3196.00,2.2018
3195.00,2.2043
3194.00,2.2062
3193.00,2.2069
3192.00,2.2065
3191.00,2.2055
3190.00,2.2047
3189.00,2.2041
3188.00,2.2035
3187.00,2.2023
3186.00,2.2001
3185.00,2.1971
3184.00,2.1938
3183.00,2.1907
3182.00,2.1876
3181.00,2.1837
3180.00,2.1787
3179.00,2.1724
3178.00,2.1654
3177.00,2.1579
3176.00,2.1499
3175.00,2.1418
3174.00,2.1339
3173.00,2.1260
3172.00,2.1177
3171.00,2.1086
3170.00,2.0986
3169.00,2.0879
3168.00,2.0762
3167.00,2.0638
3166.00,2.0512
3165.00,2.0389
3164.00,2.0265
3163.00,2.0130
3162.00,1.9981
3161.00,1.9823
3160.00,1.9663
3159.00,1.9502
3158.00,1.9341
3157.00,1.9178
3156.00,1.9009
3155.00,1.8833
3154.00,1.8649
3153.00,1.8460
3152.00,1.8270
3151.00,1.8080
3150.00,1.7889
3149.00,1.7698
3148.00,1.7507
3147.00,1.7318
3146.00,1.7134
3145.00,1.6954
3144.00,1.6780
3143.00,1.6610
3142.00,1.6448
3141.00,1.6295
3140.00,1.6152
3139.00,1.6022
3138.00,1.5904
3137.00,1.5802
3136.00,1.5717
3135.00,1.5650
3134.00,1.5600
3133.00,1.5567
3132.00,1.5552
3131.00,1.5555
3130.00,1.5577
3129.00,1.5618
3128.00,1.5677
3127.00,1.5754
3126.00,1.5848
3125.00,1.5957
3124.00,1.6080
3123.00,1.6214
3122.00,1.6360
3121.00,1.6517
3120.00,1.6684
3119.00,1.6860
3118.00,1.7044
3117.00,1.7234
3116.00,1.7430
3115.00,1.7629
3114.00,1.7829
3113.00,1.8026
3112.00,1.8224
3111.00,1.8423
3110.00,1.8626
3109.00,1.8829
3108.00,1.9027
3107.00,1.9216
3106.00,1.9397
3105.00,1.9571
3104.00,1.9743
3103.00,1.9911
3102.00,2.0076
3101.00,2.0238
3100.00,2.0399
3099.00,2.0556
3098.00,2.0708
3097.00,2.0851
3096.00,2.0984
3095.00,2.1106
3094.00,2.1217
3093.00,2.1324
3092.00,2.1434
3091.00,2.1550
3090.00,2.1669
3089.00,2.1782
3088.00,2.1884
3087.00,2.1976
3086.00,2.2061
3085.00,2.2142
3084.00,2.2220
3083.00,2.2292
3082.00,2.2358
3081.00,2.2419
3080.00,2.2476
3079.00,2.2526
3078.00,2.2561
3077.00,2.2583
3076.00,2.2597
3075.00,2.2611
3074.00,2.2627
3073.00,2.2640
3072.00,2.2649
3071.00,2.2654
3070.00,2.2657
3069.00,2.2652
3068.00,2.2637
3067.00,2.2611
3066.00,2.2577
3065.00,2.2535
3064.00,2.2482
3063.00,2.2422
3062.00,2.2358
3061.00,2.2290
3060.00,2.2217
3059.00,2.2139
3058.00,2.2055
3057.00,2.1966
3056.00,2.1872
3055.00,2.1773
3054.00,2.1670
3053.00,2.1561
3052.00,2.1440
3051.00,2.1303
3050.00,2.1155
3049.00,2.1001
3048.00,2.0843
3047.00,2.0676
3046.00,2.0500
3045.00,2.0315
3044.00,2.0123
3043.00,1.9923
3042.00,1.9715
3041.00,1.9497
3040.00,1.9272
3039.00,1.9044
3038.00,1.8816
3037.00,1.8590
3036.00,1.8368
3035.00,1.8152
3034.00,1.7944
3033.00,1.7744
3032.00,1.7554
3031.00,1.7374
3030.00,1.7211
3029.00,1.7070
3028.00,1.6953
3027.00,1.6862
3026.00,1.6796
3025.00,1.6756
3024.00,1.6744
3023.00,1.6763
3022.00,1.6813
3021.00,1.6892
3020.00,1.7000
3019.00,1.7134
3018.00,1.7295
3017.00,1.7484
3016.00,1.7696
3015.00,1.7927
3014.00,1.8172
3013.00,1.8431
3012.00,1.8704
3011.00,1.8988
3010.00,1.9279
3009.00,1.9572
3008.00,1.9866
3007.00,2.0160
3006.00,2.0453
3005.00,2.0745
3004.00,2.1035
3003.00,2.1319
3002.00,2.1595
3001.00,2.1861
3000.00,2.2115
2999.00,2.2356
2998.00,2.2583
2997.00,2.2799
2996.00,2.3006
2995.00,2.3202
2994.00,2.3385
2993.00,2.3554
2992.00,2.3713
2991.00,2.3865
2990.00,2.4011
2989.00,2.4148
2988.00,2.4272
2987.00,2.4377
2986.00,2.4466
2985.00,2.4550
2984.00,2.4638
2983.00,2.4739
2982.00,2.4856
2981.00,2.4988
2980.00,2.5140
2979.00,2.5321
2978.00,2.5545
2977.00,2.5824
2976.00,2.6167
2975.00,2.6582
2974.00,2.7071
2973.00,2.7627
2972.00,2.8240
2971.00,2.8910
2970.00,2.9652
2969.00,3.0469
2968.00,3.1337
2967.00,3.2233
2966.00,3.3178
2965.00,3.4230
2964.00,3.5414
2963.00,3.6696
2962.00,3.8027
2961.00,3.9351
2960.00,4.0476
2959.00,4.1068
2958.00,4.1154
2957.00,4.1133
2956.00,4.1298
2955.00,4.1789
2954.00,4.3080
2953.00,4.5997
2952.00,4.7983
2951.00,4.6277
2950.00,4.4915
2949.00,4.4776
2948.00,4.4535
2947.00,4.3693
2946.00,4.3234
2945.00,4.3046
2944.00,4.2870
2943.00,4.3533
2942.00,4.5652
2941.00,4.7976
2940.00,4.7795
2939.00,4.5720
2938.00,4.4892
2937.00,4.5099
2936.00,4.4783
2935.00,4.3898
2934.00,4.3252
2933.00,4.3521
2932.00,4.4111
2931.00,4.3815
2930.00,4.2764
2929.00,4.1622
2928.00,4.0842
2927.00,4.0602
2926.00,4.0867
2925.00,4.1421
2924.00,4.1836
2923.00,4.1688
2922.00,4.0959
2921.00,3.9902
2920.00,3.8758
2919.00,3.7721
2918.00,3.6925
2917.00,3.6366
2916.00,3.5901
2915.00,3.5358
2914.00,3.4683
2913.00,3.3948
2912.00,3.3248
2911.00,3.2646
2910.00,3.2178
2909.00,3.1850
2908.00,3.1613
2907.00,3.1391
2906.00,3.1149
2905.00,3.0912
2904.00,3.0722
2903.00,3.0577
2902.00,3.0427
2901.00,3.0229
2900.00,2.9987
2899.00,2.9748
2898.00,2.9560
2897.00,2.9437
2896.00,2.9354
2895.00,2.9277
2894.00,2.9189
2893.00,2.9093
2892.00,2.8992
2891.00,2.8884
2890.00,2.8773
2889.00,2.8686
2888.00,2.8646
2887.00,2.8649
2886.00,2.8674
2885.00,2.8712
2884.00,2.8772
2883.00,2.8860
2882.00,2.8978
2881.00,2.9131
2880.00,2.9332
2879.00,2.9592
2878.00,2.9912
2877.00,3.0286
2876.00,3.0713
2875.00,3.1192
2874.00,3.1715
2873.00,3.2269
2872.00,3.2844
2871.00,3.3447
2870.00,3.4093
2869.00,3.4794
2868.00,3.5539
2867.00,3.6266
2866.00,3.6882
2865.00,3.7363
2864.00,3.7793
2863.00,3.8222
2862.00,3.8515
2861.00,3.8412
2860.00,3.7848
2859.00,3.6999
2858.00,3.6053
2857.00,3.5114
2856.00,3.4214
2855.00,3.3334
2854.00,3.2426
2853.00,3.1484
2852.00,3.0559
2851.00,2.9711
2850.00,2.8972
2849.00,2.8344
2848.00,2.7813
2847.00,2.7348
2846.00,2.6924
2845.00,2.6535
2844.00,2.6195
2843.00,2.5911
2842.00,2.5664
2841.00,2.5419
2840.00,2.5160
2839.00,2.4897
2838.00,2.4652
2837.00,2.4428
2836.00,2.4215
2835.00,2.3999
2834.00,2.3775
2833.00,2.3539
2832.00,2.3292
2831.00,2.3040
2830.00,2.2788
2829.00,2.2538
2828.00,2.2285
2827.00,2.2022
2826.00,2.1742
2825.00,2.1442
2824.00,2.1120
2823.00,2.0777
2822.00,2.0417
2821.00,2.0042
2820.00,1.9654
2819.00,1.9260
2818.00,1.8868
2817.00,1.8484
2816.00,1.8117
2815.00,1.7774
2814.00,1.7465
2813.00,1.7196
2812.00,1.6975
2811.00,1.6805
2810.00,1.6689
2809.00,1.6627
2808.00,1.6621
2807.00,1.6667
2806.00,1.6764
2805.00,1.6908
2804.00,1.7093
2803.00,1.7313
2802.00,1.7562
2801.00,1.7833
2800.00,1.8119
2799.00,1.8412
2798.00,1.8702
2797.00,1.8982
2796.00,1.9249
2795.00,1.9505
2794.00,1.9753
2793.00,1.9997
2792.00,2.0239
2791.00,2.0479
2790.00,2.0718
2789.00,2.0956
2788.00,2.1190
2787.00,2.1418
2786.00,2.1638
2785.00,2.1849
2784.00,2.2049
2783.00,2.2241
2782.00,2.2425
2781.00,2.2602
2780.00,2.2770
2779.00,2.2928
2778.00,2.3071
2777.00,2.3197
2776.00,2.3305
2775.00,2.3399
2774.00,2.3490
2773.00,2.3586
2772.00,2.3684
2771.00,2.3778
2770.00,2.3861
2769.00,2.3930
2768.00,2.3986
2767.00,2.4027
2766.00,2.4062
2765.00,2.4096
2764.00,2.4127
2763.00,2.4148
2762.00,2.4156
2761.00,2.4159
2760.00,2.4159
2759.00,2.4151
2758.00,2.4129
2757.00,2.4095
2756.00,2.4058
2755.00,2.4021
2754.00,2.3981
2753.00,2.3932
2752.00,2.3872
2751.00,2.3801
2750.00,2.3723
2749.00,2.3638
2748.00,2.3546
2747.00,2.3447
2746.00,2.3337
2745.00,2.3215
2744.00,2.3085
2743.00,2.2951
2742.00,2.2814
2741.00,2.2667
2740.00,2.2506
2739.00,2.2335
2738.00,2.2158
2737.00,2.1977
2736.00,2.1785
2735.00,2.1578
2734.00,2.1358
2733.00,2.1128
2732.00,2.0891
2731.00,2.0642
2730.00,2.0377
2729.00,2.0095
2728.00,1.9796
2727.00,1.9483
2726.00,1.9157
2725.00,1.8818
2724.00,1.8466
2723.00,1.8099
2722.00,1.7722
2721.00,1.7339
2720.00,1.6954
2719.00,1.6569
2718.00,1.6187
2717.00,1.5813
2716.00,1.5450
2715.00,1.5105
2714.00,1.4783
2713.00,1.4491
2712.00,1.4234
2711.00,1.4016
2710.00,1.3842
2709.00,1.3717
2708.00,1.3644
2707.00,1.3624
2706.00,1.3656
2705.00,1.3739
2704.00,1.3871
2703.00,1.4046
2702.00,1.4262
2701.00,1.4514
2700.00,1.4799
2699.00,1.5110
2698.00,1.5442
2697.00,1.5790
2696.00,1.6150
2695.00,1.6519
2694.00,1.6894
2693.00,1.7272
2692.00,1.7650
2691.00,1.8027
2690.00,1.8402
2689.00,1.8770
2688.00,1.9128
2687.00,1.9476
2686.00,1.9815
2685.00,2.0147
2684.00,2.0469
2683.00,2.0781
2682.00,2.1077
2681.00,2.1354
2680.00,2.1610
2679.00,2.1846
2678.00,2.2063
2677.00,2.2262
2676.00,2.2446
2675.00,2.2613
2674.00,2.2764
2673.00,2.2901
2672.00,2.3029
2671.00,2.3150
2670.00,2.3266
2669.00,2.3380
2668.00,2.3493
2667.00,2.3603
2666.00,2.3708
2665.00,2.3806
2664.00,2.3900
2663.00,2.3996
2662.00,2.4094
2661.00,2.4194
2660.00,2.4291
2659.00,2.4380
2658.00,2.4455
2657.00,2.4516
2656.00,2.4570
2655.00,2.4627
2654.00,2.4688
2653.00,2.4749
2652.00,2.4801
2651.00,2.4844
2650.00,2.4875
2649.00,2.4897
2648.00,2.4914
2647.00,2.4929
2646.00,2.4939
2645.00,2.4939
2644.00,2.4929
2643.00,2.4920
2642.00,2.4915
2641.00,2.4906
2640.00,2.4882
2639.00,2.4843
2638.00,2.4797
2637.00,2.4751
2636.00,2.4712
2635.00,2.4679
2634.00,2.4648
2633.00,2.4604
2632.00,2.4536
2631.00,2.4450
2630.00,2.4356
2629.00,2.4261
2628.00,2.4163
2627.00,2.4060
2626.00,2.3955
2625.00,2.3847
2624.00,2.3735
2623.00,2.3614
2622.00,2.3484
2621.00,2.3343
2620.00,2.3192
2619.00,2.3034
2618.00,2.2875
2617.00,2.2712
2616.00,2.2542
2615.00,2.2361
2614.00,2.2172
2613.00,2.1974
2612.00,2.1766
2611.00,2.1548
2610.00,2.1323
2609.00,2.1088
2608.00,2.0838
2607.00,2.0569
2606.00,2.0277
2605.00,1.9968
2604.00,1.9642
2603.00,1.9300
2602.00,1.8944
2601.00,1.8574
2600.00,1.8191
2599.00,1.7797
2598.00,1.7396
2597.00,1.6991
2596.00,1.6586
2595.00,1.6187
2594.00,1.5801
2593.00,1.5435
2592.00,1.5095
2591.00,1.4785
2590.00,1.4511
2589.00,1.4275
2588.00,1.4083
2587.00,1.3935
2586.00,1.3835
2585.00,1.3785
2584.00,1.3784
2583.00,1.3833
2582.00,1.3930
2581.00,1.4073
2580.00,1.4259
2579.00,1.4484
2578.00,1.4743
2577.00,1.5030
2576.00,1.5339
2575.00,1.5668
2574.00,1.6010
2573.00,1.6362
2572.00,1.6722
2571.00,1.7084
2570.00,1.7448
2569.00,1.7813
2568.00,1.8175
2567.00,1.8533
2566.00,1.8885
2565.00,1.9228
2564.00,1.9560
2563.00,1.9881
2562.00,2.0194
2561.00,2.0501
2560.00,2.0799
2559.00,2.1085
2558.00,2.1357
2557.00,2.1620
2556.00,2.1874
2555.00,2.2117
2554.00,2.2350
2553.00,2.2577
2552.00,2.2800
2551.00,2.3015
2550.00,2.3214
2549.00,2.3398
2548.00,2.3569
2547.00,2.3730
2546.00,2.3884
2545.00,2.4033
2544.00,2.4177
2543.00,2.4311
2542.00,2.4435
2541.00,2.4554
2540.00,2.4672
2539.00,2.4783
2538.00,2.4885
2537.00,2.4981
2536.00,2.5075
2535.00,2.5162
2534.00,2.5237
2533.00,2.5301
2532.00,2.5355
2531.00,2.5401
2530.00,2.5439
2529.00,2.5475
2528.00,2.5514
2527.00,2.5557
2526.00,2.5593
2525.00,2.5619
2524.00,2.5638
2523.00,2.5654
2522.00,2.5671
2521.00,2.5686
2520.00,2.5699
2519.00,2.5707
2518.00,2.5706
2517.00,2.5687
2516.00,2.5648
2515.00,2.5595
2514.00,2.5534
2513.00,2.5473
2512.00,2.5417
2511.00,2.5370
2510.00,2.5333
2509.00,2.5298
2508.00,2.5251
2507.00,2.5181
2506.00,2.5090
2505.00,2.4991
2504.00,2.4892
2503.00,2.4794
2502.00,2.4690
2501.00,2.4575
2500.00,2.4451
2499.00,2.4322
2498.00,2.4192
2497.00,2.4054
2496.00,2.3904
2495.00,2.3741
2494.00,2.3567
2493.00,2.3387
2492.00,2.3199
2491.00,2.2997
2490.00,2.2781
2489.00,2.2555
2488.00,2.2320
2487.00,2.2075
2486.00,2.1819
2485.00,2.1550
2484.00,2.1266
2483.00,2.0965
2482.00,2.0647
2481.00,2.0312
2480.00,1.9959
2479.00,1.9588
2478.00,1.9200
2477.00,1.8796
2476.00,1.8375
2475.00,1.7941
2474.00,1.7496
2473.00,1.7047
2472.00,1.6597
2471.00,1.6153
2470.00,1.5720
2469.00,1.5305
2468.00,1.4915
2467.00,1.4554
2466.00,1.4227
2465.00,1.3939
2464.00,1.3694
2463.00,1.3499
2462.00,1.3358
2461.00,1.3276
2460.00,1.3256
2459.00,1.3299
2458.00,1.3404
2457.00,1.3567
2456.00,1.3785
2455.00,1.4050
2454.00,1.4355
2453.00,1.4694
2452.00,1.5059
2451.00,1.5446
2450.00,1.5848
2449.00,1.6260
2448.00,1.6679
2447.00,1.7102
2446.00,1.7528
2445.00,1.7956
2444.00,1.8382
2443.00,1.8802
2442.00,1.9212
2441.00,1.9611
2440.00,1.9997
2439.00,2.0367
2438.00,2.0720
2437.00,2.1058
2436.00,2.1383
2435.00,2.1698
2434.00,2.2006
2433.00,2.2305
2432.00,2.2589
2431.00,2.2852
2430.00,2.3098
2429.00,2.3327
2428.00,2.3543
2427.00,2.3745
2426.00,2.3936
2425.00,2.4121
2424.00,2.4302
2423.00,2.4475
2422.00,2.4636
2421.00,2.4787
2420.00,2.4926
2419.00,2.5052
2418.00,2.5169
2417.00,2.5282
2416.00,2.5392
2415.00,2.5494
2414.00,2.5591
2413.00,2.5694
2412.00,2.5804
2411.00,2.5909
2410.00,2.5992
2409.00,2.6054
2408.00,2.6109
2407.00,2.6168
2406.00,2.6228
2405.00,2.6277
2404.00,2.6307
2403.00,2.6327
2402.00,2.6346
2401.00,2.6374
2400.00,2.6411
2399.00,2.6446
2398.00,2.6474
2397.00,2.6491
2396.00,2.6500
2395.00,2.6501
2394.00,2.6491
2393.00,2.6469
2392.00,2.6440
2391.00,2.6412
2390.00,2.6382
2389.00,2.6342
2388.00,2.6290
2387.00,2.6232
2386.00,2.6180
2385.00,2.6137
2384.00,2.6098
2383.00,2.6059
2382.00,2.6020
2381.00,2.5987
2380.00,2.5961
2379.00,2.5942
2378.00,2.5925
2377.00,2.5895
2376.00,2.5831
2375.00,2.5718
2374.00,2.5554
2373.00,2.5349
2372.00,2.5112
2371.00,2.4847
2370.00,2.4550
2369.00,2.4219
2368.00,2.3865
2367.00,2.3517
2366.00,2.3206
2365.00,2.2945
2364.00,2.2731
2363.00,2.2558
2362.00,2.2421
2361.00,2.2302
2360.00,2.2176
2359.00,2.2031
2358.00,2.1880
2357.00,2.1743
2356.00,2.1618
2355.00,2.1487
2354.00,2.1350
2353.00,2.1211
2352.00,2.1055
2351.00,2.0888
2350.00,2.0754
2349.00,2.0663
2348.00,2.0592
2347.00,2.0521
2346.00,2.0418
2345.00,2.0298
2344.00,2.0166
2343.00,2.0025
2342.00,1.9910
2341.00,1.9815
2340.00,1.9714
2339.00,1.9548
2338.00,1.9400
2337.00,1.9358
2336.00,1.9341
2335.00,1.9247
2334.00,1.9096
2333.00,1.9098
2332.00,1.9323
2331.00,1.9607
2330.00,1.9782
2329.00,1.9767
2328.00,1.9687
2327.00,1.9617
2326.00,1.9603
2325.00,1.9635
2324.00,1.9682
2323.00,1.9731
2322.00,1.9776
2321.00,1.9828
2320.00,1.9883
2319.00,1.9934
2318.00,1.9997
2317.00,2.0094
2316.00,2.0207
2315.00,2.0375
2314.00,2.0534
2313.00,2.0690
2312.00,2.0790
2311.00,2.0888
2310.00,2.1023
2309.00,2.1193
2308.00,2.1373
2307.00,2.1515
2306.00,2.1645
2305.00,2.1785
2304.00,2.1954
2303.00,2.2140
2302.00,2.2324
2301.00,2.2509
2300.00,2.2690
2299.00,2.2884
2298.00,2.3086
2297.00,2.3310
2296.00,2.3533
2295.00,2.3757
2294.00,2.3980
2293.00,2.4225
2292.00,2.4477
2291.00,2.4714
2290.00,2.4919
2289.00,2.5115
2288.00,2.5328
2287.00,2.5560
2286.00,2.5786
2285.00,2.5985
2284.00,2.6148
2283.00,2.6292
2282.00,2.6436
2281.00,2.6600
2280.00,2.6769
2279.00,2.6919
2278.00,2.7030
2277.00,2.7115
2276.00,2.7183
2275.00,2.7229
2274.00,2.7234
2273.00,2.7208
2272.00,2.7183
2271.00,2.7190
2270.00,2.7233
2269.00,2.7296
2268.00,2.7356
2267.00,2.7396
2266.00,2.7411
2265.00,2.7415
2264.00,2.7419
2263.00,2.7421
2262.00,2.7415
2261.00,2.7399
2260.00,2.7376
2259.00,2.7342
2258.00,2.7284
2257.00,2.7195
2256.00,2.7079
2255.00,2.6955
2254.00,2.6840
2253.00,2.6741
2252.00,2.6646
2251.00,2.6537
2250.00,2.6405
2249.00,2.6258
2248.00,2.6105
2247.00,2.5943
2246.00,2.5763
2245.00,2.5567
2244.00,2.5368
2243.00,2.5170
2242.00,2.4970
2241.00,2.4760
2240.00,2.4542
2239.00,2.4316
2238.00,2.4077
2237.00,2.3822
2236.00,2.3550
2235.00,2.3265
2234.00,2.2966
2233.00,2.2655
2232.00,2.2334
2231.00,2.2000
2230.00,2.1647
2229.00,2.1269
2228.00,2.0868
2227.00,2.0449
2226.00,2.0012
2225.00,1.9555
2224.00,1.9077
2223.00,1.8581
2222.00,1.8072
2221.00,1.7557
2220.00,1.7042
2219.00,1.6536
2218.00,1.6052
2217.00,1.5600
2216.00,1.5189
2215.00,1.4829
2214.00,1.4527
2213.00,1.4291
2212.00,1.4129
2211.00,1.4041
2210.00,1.4029
2209.00,1.4094
2208.00,1.4234
2207.00,1.4444
2206.00,1.4718
2205.00,1.5048
2204.00,1.5424
2203.00,1.5836
2202.00,1.6275
2201.00,1.6734
2200.00,1.7206
2199.00,1.7685
2198.00,1.8170
2197.00,1.8657
2196.00,1.9144
2195.00,1.9628
2194.00,2.0103
2193.00,2.0566
2192.00,2.1013
2191.00,2.1441
2190.00,2.1847
2189.00,2.2233
2188.00,2.2600
2187.00,2.2949
2186.00,2.3280
2185.00,2.3592
2184.00,2.3885
2183.00,2.4163
2182.00,2.4427
2181.00,2.4679
2180.00,2.4920
2179.00,2.5151
2178.00,2.5375
2177.00,2.5588
2176.00,2.5783
2175.00,2.5953
2174.00,2.6099
2173.00,2.6227
2172.00,2.6352
2171.00,2.6486
2170.00,2.6631
2169.00,2.6778
2168.00,2.6919
2167.00,2.7053
2166.00,2.7179
2165.00,2.7292
2164.00,2.7390
2163.00,2.7477
2162.00,2.7557
2161.00,2.7635
2160.00,2.7711
2159.00,2.7792
2158.00,2.7884
2157.00,2.7980
2156.00,2.8059
2155.00,2.8111
2154.00,2.8144
2153.00,2.8166
2152.00,2.8177
2151.00,2.8177
2150.00,2.8176
2149.00,2.8185
2148.00,2.8201
2147.00,2.8219
2146.00,2.8235
2145.00,2.8245
2144.00,2.8249
2143.00,2.8248
2142.00,2.8245
2141.00,2.8234
2140.00,2.8208
2139.00,2.8170
2138.00,2.8130
2137.00,2.8087
2136.00,2.8033
2135.00,2.7971
2134.00,2.7917
2133.00,2.7875
2132.00,2.7823
2131.00,2.7733
2130.00,2.7611
2129.00,2.7491
2128.00,2.7395
2127.00,2.7317
2126.00,2.7233
2125.00,2.7120
2124.00,2.6979
2123.00,2.6821
2122.00,2.6663
2121.00,2.6509
2120.00,2.6353
2119.00,2.6186
2118.00,2.6003
2117.00,2.5805
2116.00,2.5597
2115.00,2.5385
2114.00,2.5169
2113.00,2.4944
2112.00,2.4698
2111.00,2.4430
2110.00,2.4147
2109.00,2.3857
2108.00,2.3557
2107.00,2.3239
2106.00,2.2897
2105.00,2.2533
2104.00,2.2149
2103.00,2.1749
2102.00,2.1333
2101.00,2.0901
2100.00,2.0450
2099.00,1.9981
2098.00,1.9496
2097.00,1.9001
2096.00,1.8501
2095.00,1.7999
2094.00,1.7500
2093.00,1.7015
2092.00,1.6558
2091.00,1.6139
2090.00,1.5766
2089.00,1.5445
2088.00,1.5186
2087.00,1.4995
2086.00,1.4881
2085.00,1.4851
2084.00,1.4906
2083.00,1.5048
2082.00,1.5272
2081.00,1.5570
2080.00,1.5936
2079.00,1.6357
2078.00,1.6821
2077.00,1.7316
2076.00,1.7833
2075.00,1.8366
2074.00,1.8906
2073.00,1.9446
2072.00,1.9979
2071.00,2.0497
2070.00,2.0993
2069.00,2.1461
2068.00,2.1900
2067.00,2.2314
2066.00,2.2708
2065.00,2.3083
2064.00,2.3437
2063.00,2.3768
2062.00,2.4078
2061.00,2.4373
2060.00,2.4651
2059.00,2.4908
2058.00,2.5141
2057.00,2.5359
2056.00,2.5575
2055.00,2.5796
2054.00,2.6023
2053.00,2.6248
2052.00,2.6462
2051.00,2.6660
2050.00,2.6839
2049.00,2.7009
2048.00,2.7178
2047.00,2.7350
2046.00,2.7516
2045.00,2.7668
2044.00,2.7804
2043.00,2.7935
2042.00,2.8061
2041.00,2.8176
2040.00,2.8275
2039.00,2.8364
2038.00,2.8449
2037.00,2.8535
2036.00,2.8625
2035.00,2.8724
2034.00,2.8824
2033.00,2.8906
2032.00,2.8959
2031.00,2.8989
2030.00,2.9010
2029.00,2.9028
2028.00,2.9048
2027.00,2.9080
2026.00,2.9127
2025.00,2.9170
2024.00,2.9184
2023.00,2.9173
2022.00,2.9163
2021.00,2.9170
2020.00,2.9184
2019.00,2.9181
2018.00,2.9154
2017.00,2.9112
2016.00,2.9076
2015.00,2.9061
2014.00,2.9059
2013.00,2.9044
2012.00,2.8995
2011.00,2.8925
2010.00,2.8859
2009.00,2.8799
2008.00,2.8720
2007.00,2.8609
2006.00,2.8488
2005.00,2.8383
2004.00,2.8294
2003.00,2.8197
2002.00,2.8080
2001.00,2.7949
2000.00,2.7817
1999.00,2.7694
1998.00,2.7568
1997.00,2.7407
1996.00,2.7189
1995.00,2.6938
1994.00,2.6703
1993.00,2.6503
1992.00,2.6307
1991.00,2.6080
1990.00,2.5823
1989.00,2.5558
1988.00,2.5293
1987.00,2.5012
1986.00,2.4711
1985.00,2.4396
1984.00,2.4073
1983.00,2.3736
1982.00,2.3382
1981.00,2.3007
1980.00,2.2609
1979.00,2.2190
1978.00,2.1758
1977.00,2.1313
1976.00,2.0850
1975.00,2.0364
1974.00,1.9858
1973.00,1.9342
1972.00,1.8814
1971.00,1.8272
1970.00,1.7734
1969.00,1.7236
1968.00,1.6807
1967.00,1.6451
1966.00,1.6161
1965.00,1.5940
1964.00,1.5802
1963.00,1.5762
1962.00,1.5822
1961.00,1.5977
1960.00,1.6217
1959.00,1.6530
1958.00,1.6905
1957.00,1.7338
1956.00,1.7818
1955.00,1.8334
1954.00,1.8869
1953.00,1.9414
1952.00,1.9960
1951.00,2.0491
1950.00,2.1005
1949.00,2.1512
1948.00,2.2020
1947.00,2.2508
1946.00,2.2940
1945.00,2.3327
1944.00,2.3712
1943.00,2.4121
1942.00,2.4525
1941.00,2.4889
1940.00,2.5212
1939.00,2.5520
1938.00,2.5824
1937.00,2.6116
1936.00,2.6384
1935.00,2.6631
1934.00,2.6866
1933.00,2.7098
1932.00,2.7333
1931.00,2.7564
1930.00,2.7791
1929.00,2.8007
1928.00,2.8203
1927.00,2.8358
1926.00,2.8471
1925.00,2.8587
1924.00,2.8756
1923.00,2.8969
1922.00,2.9169
1921.00,2.9321
1920.00,2.9438
1919.00,2.9543
1918.00,2.9624
1917.00,2.9666
1916.00,2.9681
1915.00,2.9691
1914.00,2.9702
1913.00,2.9717
1912.00,2.9757
1911.00,2.9841
1910.00,2.9962
1909.00,3.0078
1908.00,3.0160
1907.00,3.0198
1906.00,3.0202
1905.00,3.0201
1904.00,3.0211
1903.00,3.0226
1902.00,3.0226
1901.00,3.0201
1900.00,3.0169
1899.00,3.0148
1898.00,3.0136
1897.00,3.0128
1896.00,3.0119
1895.00,3.0087
1894.00,3.0003
1893.00,2.9860
1892.00,2.9708
1891.00,2.9615
1890.00,2.9581
1889.00,2.9531
1888.00,2.9412
1887.00,2.9242
1886.00,2.9074
1885.00,2.8941
1884.00,2.8846
1883.00,2.8761
1882.00,2.8657
1881.00,2.8504
1880.00,2.8305
1879.00,2.8091
1878.00,2.7883
1877.00,2.7682
1876.00,2.7495
1875.00,2.7326
1874.00,2.7155
1873.00,2.6932
1872.00,2.6626
1871.00,2.6266
1870.00,2.5915
1869.00,2.5585
1868.00,2.5242
1867.00,2.4868
1866.00,2.4470
1865.00,2.4045
1864.00,2.3580
1863.00,2.3070
1862.00,2.2515
1861.00,2.1921
1860.00,2.1292
1859.00,2.0640
1858.00,1.9980
1857.00,1.9329
1856.00,1.8704
1855.00,1.8127
1854.00,1.7630
1853.00,1.7224
1852.00,1.6914
1851.00,1.6734
1850.00,1.6735
1849.00,1.6922
1848.00,1.7221
1847.00,1.7553
1846.00,1.7928
1845.00,1.8423
1844.00,1.9040
1843.00,1.9707
1842.00,2.0363
1841.00,2.0990
1840.00,2.1611
1839.00,2.2236
1838.00,2.2858
1837.00,2.3480
1836.00,2.4105
1835.00,2.4708
1834.00,2.5233
1833.00,2.5632
1832.00,2.5961
1831.00,2.6343
1830.00,2.6793
1829.00,2.7219
1828.00,2.7558
1827.00,2.7832
1826.00,2.8108
1825.00,2.8407
1824.00,2.8705
1823.00,2.8987
1822.00,2.9259
1821.00,2.9520
1820.00,2.9765
1819.00,2.9985
1818.00,3.0184
1817.00,3.0380
1816.00,3.0562
1815.00,3.0699
1814.00,3.0775
1813.00,3.0824
1812.00,3.0899
1811.00,3.1003
1810.00,3.1108
1809.00,3.1208
1808.00,3.1314
1807.00,3.1427
1806.00,3.1540
1805.00,3.1640
1804.00,3.1692
1803.00,3.1678
1802.00,3.1621
1801.00,3.1562
1800.00,3.1523
1799.00,3.1497
1798.00,3.1467
1797.00,3.1413
1796.00,3.1311
1795.00,3.1161
1794.00,3.1021
1793.00,3.0961
1792.00,3.0941
1791.00,3.0861
1790.00,3.0700
1789.00,3.0499
1788.00,3.0283
1787.00,3.0045
1786.00,2.9780
1785.00,2.9487
1784.00,2.9143
1783.00,2.8765
1782.00,2.8394
1781.00,2.8050
1780.00,2.7704
1779.00,2.7342
1778.00,2.7003
1777.00,2.6706
1776.00,2.6399
1775.00,2.6048
1774.00,2.5761
1773.00,2.5679
1772.00,2.5779
1771.00,2.5946
1770.00,2.6136
1769.00,2.6391
1768.00,2.6739
1767.00,2.7122
1766.00,2.7451
1765.00,2.7686
1764.00,2.7887
1763.00,2.8170
1762.00,2.8585
1761.00,2.9086
1760.00,2.9601
1759.00,3.0091
1758.00,3.0614
1757.00,3.1230
1756.00,3.1919
1755.00,3.2601
1754.00,3.3187
1753.00,3.3649
1752.00,3.4041
1751.00,3.4409
1750.00,3.4781
1749.00,3.5166
1748.00,3.5506
1747.00,3.5757
1746.00,3.5998
1745.00,3.6425
1744.00,3.7154
1743.00,3.8053
1742.00,3.8859
1741.00,3.9544
1740.00,4.0363
1739.00,4.1523
1738.00,4.2952
1737.00,4.4072
1736.00,4.4399
1735.00,4.4348
1734.00,4.4228
1733.00,4.4674
1732.00,4.6269
1731.00,4.8088
1730.00,4.8057
1729.00,4.7228
1728.00,4.7220
1727.00,5.0131
1726.00,5.3000
1725.00,4.7879
1724.00,4.6440
1723.00,4.6573
1722.00,4.7926
1721.00,5.2895
1720.00,4.9146
1719.00,4.4962
1718.00,4.4061
1717.00,4.4762
1716.00,4.6420
1715.00,4.6336
1714.00,4.5216
1713.00,4.5222
1712.00,4.4831
1711.00,4.3598
1710.00,4.2922
1709.00,4.3203
1708.00,4.4083
1707.00,4.4952
1706.00,4.5347
1705.00,4.5587
1704.00,4.5963
1703.00,4.6450
1702.00,4.6742
1701.00,4.5907
1700.00,4.4702
1699.00,4.4189
1698.00,4.4230
1697.00,4.4589
1696.00,4.5488
1695.00,4.6537
1694.00,4.5791
1693.00,4.4041
1692.00,4.2513
1691.00,4.1101
1690.00,3.9914
1689.00,3.8993
1688.00,3.8167
1687.00,3.7209
1686.00,3.6227
1685.00,3.5669
1684.00,3.5470
1683.00,3.5276
1682.00,3.5007
1681.00,3.4778
1680.00,3.4677
1679.00,3.4662
1678.00,3.4632
1677.00,3.4547
1676.00,3.4439
1675.00,3.4347
1674.00,3.4284
1673.00,3.4234
1672.00,3.4134
1671.00,3.3957
1670.00,3.3761
1669.00,3.3626
1668.00,3.3603
1667.00,3.3627
1666.00,3.3554
1665.00,3.3349
1664.00,3.3108
1663.00,3.2890
1662.00,3.2669
1661.00,3.2434
1660.00,3.2227
1659.00,3.2111
1658.00,3.2091
1657.00,3.2045
1656.00,3.1730
1655.00,3.1161
1654.00,3.0726
1653.00,3.0309
1652.00,2.9783
1651.00,2.9307
1650.00,2.8873
1649.00,2.8455
1648.00,2.8142
1647.00,2.7904
1646.00,2.7608
1645.00,2.7280
1644.00,2.6989
1643.00,2.6761
1642.00,2.6633
1641.00,2.6616
1640.00,2.6669
1639.00,2.6684
1638.00,2.6614
1637.00,2.6581
1636.00,2.6634
1635.00,2.6663
1634.00,2.6651
1633.00,2.6661
1632.00,2.6698
1631.00,2.6733
1630.00,2.6777
1629.00,2.6902
1628.00,2.7120
1627.00,2.7350
1626.00,2.7507
1625.00,2.7626
1624.00,2.7843
1623.00,2.8212
1622.00,2.8674
1621.00,2.9125
1620.00,2.9459
1619.00,2.9625
1618.00,2.9730
1617.00,2.9898
1616.00,3.0122
1615.00,3.0372
1614.00,3.0634
1613.00,3.0895
1612.00,3.1127
1611.00,3.1300
1610.00,3.1434
1609.00,3.1582
1608.00,3.1755
1607.00,3.1922
1606.00,3.2073
1605.00,3.2207
1604.00,3.2302
1603.00,3.2329
1602.00,3.2317
1601.00,3.2338
1600.00,3.2417
1599.00,3.2501
1598.00,3.2544
1597.00,3.2586
1596.00,3.2690
1595.00,3.2826
1594.00,3.2912
1593.00,3.2919
1592.00,3.2871
1591.00,3.2785
1590.00,3.2675
1589.00,3.2579
1588.00,3.2523
1587.00,3.2475
1586.00,3.2402
1585.00,3.2308
1584.00,3.2201
1583.00,3.2074
1582.00,3.1958
1581.00,3.1911
1580.00,3.1930
1579.00,3.1920
1578.00,3.1817
1577.00,3.1696
1576.00,3.1564
1575.00,3.1380
1574.00,3.1177
1573.00,3.0958
1572.00,3.0691
1571.00,3.0399
1570.00,3.0133
1569.00,2.9860
1568.00,2.9555
1567.00,2.9236
1566.00,2.8961
1565.00,2.8810
1564.00,2.8811
1563.00,2.8854
1562.00,2.8668
1561.00,2.7954
1560.00,2.7225
1559.00,2.6624
1558.00,2.5835
1557.00,2.5014
1556.00,2.4283
1555.00,2.3627
1554.00,2.2971
1553.00,2.2264
1552.00,2.1561
1551.00,2.0959
1550.00,2.0501
1549.00,2.0152
1548.00,1.9875
1547.00,1.9677
1546.00,1.9632
1545.00,1.9791
1544.00,2.0084
1543.00,2.0337
1542.00,2.0506
1541.00,2.0848
1540.00,2.1452
1539.00,2.2160
1538.00,2.2889
1537.00,2.3539
1536.00,2.4039
1535.00,2.4488
1534.00,2.5057
1533.00,2.5702
1532.00,2.6299
1531.00,2.6816
1530.00,2.7281
1529.00,2.7736
1528.00,2.8211
1527.00,2.8725
1526.00,2.9245
1525.00,2.9679
1524.00,2.9966
1523.00,3.0216
1522.00,3.0584
1521.00,3.0959
1520.00,3.1157
1519.00,3.1229
1518.00,3.1386
1517.00,3.1720
1516.00,3.2075
1515.00,3.2312
1514.00,3.2456
1513.00,3.2610
1512.00,3.2844
1511.00,3.3112
1510.00,3.3274
1509.00,3.3261
1508.00,3.3344
1507.00,3.3563
1506.00,3.3649
1505.00,3.3646
1504.00,3.3655
1503.00,3.3689
1502.00,3.3724
1501.00,3.3738
1500.00,3.3747
1499.00,3.3804
1498.00,3.3929
1497.00,3.4080
1496.00,3.4221
1495.00,3.4385
1494.00,3.4569
1493.00,3.4634
1492.00,3.4475
1491.00,3.4185
1490.00,3.3903
1489.00,3.3690
1488.00,3.3583
1487.00,3.3564
1486.00,3.3552
1485.00,3.3439
1484.00,3.3212
1483.00,3.2998
1482.00,3.2890
1481.00,3.2842
1480.00,3.2744
1479.00,3.2585
1478.00,3.2435
1477.00,3.2339
1476.00,3.2235
1475.00,3.2027
1474.00,3.1736
1473.00,3.1416
1472.00,3.1062
1471.00,3.0735
1470.00,3.0557
1469.00,3.0568
1468.00,3.0717
1467.00,3.0933
1466.00,3.1229
1465.00,3.1611
1464.00,3.2004
1463.00,3.2334
1462.00,3.2577
1461.00,3.2730
1460.00,3.2792
1459.00,3.2876
1458.00,3.3237
1457.00,3.3966
1456.00,3.4957
1455.00,3.6182
1454.00,3.7751
1453.00,3.9870
1452.00,4.2459
1451.00,4.4438
1450.00,4.4311
1449.00,4.2614
1448.00,4.0957
1447.00,3.9987
1446.00,3.9307
1445.00,3.8312
1444.00,3.7097
1443.00,3.6029
1442.00,3.5253
1441.00,3.4740
1440.00,3.4402
1439.00,3.4153
1438.00,3.4000
1437.00,3.4002
1436.00,3.4133
1435.00,3.4376
1434.00,3.4807
1433.00,3.5490
1432.00,3.6359
1431.00,3.7197
1430.00,3.7778
1429.00,3.8056
1428.00,3.8137
1427.00,3.8169
1426.00,3.8247
1425.00,3.8316
1424.00,3.8328
1423.00,3.8395
1422.00,3.8600
1421.00,3.8787
1420.00,3.8574
1419.00,3.7747
1418.00,3.6589
1417.00,3.5499
1416.00,3.4614
1415.00,3.3881
1414.00,3.3229
1413.00,3.2619
1412.00,3.2032
1411.00,3.1470
1410.00,3.0936
1409.00,3.0445
1408.00,3.0014
1407.00,2.9659
1406.00,2.9417
1405.00,2.9310
1404.00,2.9311
1403.00,2.9375
1402.00,2.9457
1401.00,2.9545
1400.00,2.9666
1399.00,2.9826
1398.00,2.9988
1397.00,3.0137
1396.00,3.0306
1395.00,3.0534
1394.00,3.0832
1393.00,3.1183
1392.00,3.1547
1391.00,3.1868
1390.00,3.2109
1389.00,3.2305
1388.00,3.2536
1387.00,3.2825
1386.00,3.3123
1385.00,3.3396
1384.00,3.3665
1383.00,3.3948
1382.00,3.4215
1381.00,3.4448
1380.00,3.4687
1379.00,3.4948
1378.00,3.5138
1377.00,3.5155
1376.00,3.5056
1375.00,3.5012
1374.00,3.5084
1373.00,3.5186
1372.00,3.5254
1371.00,3.5335
1370.00,3.5494
1369.00,3.5677
1368.00,3.5778
1367.00,3.5803
1366.00,3.5825
1365.00,3.5851
1364.00,3.5829
1363.00,3.5734
1362.00,3.5589
1361.00,3.5421
1360.00,3.5271
1359.00,3.5217
1358.00,3.5321
1357.00,3.5530
1356.00,3.5708
1355.00,3.5799
1354.00,3.5899
1353.00,3.6140
1352.00,3.6584
1351.00,3.7216
1350.00,3.7971
1349.00,3.8678
1348.00,3.9117
1347.00,3.9259
1346.00,3.9213
1345.00,3.8954
1344.00,3.8528
1343.00,3.8185
1342.00,3.8183
1341.00,3.8661
1340.00,3.9456
1339.00,3.9960
1338.00,3.9723
1337.00,3.9024
1336.00,3.8162
1335.00,3.7328
1334.00,3.6687
1333.00,3.6253
1332.00,3.5925
1331.00,3.5592
1330.00,3.5218
1329.00,3.4846
1328.00,3.4532
1327.00,3.4293
1326.00,3.4120
1325.00,3.4003
1324.00,3.3946
1323.00,3.3961
1322.00,3.4058
1321.00,3.4259
1320.00,3.4634
1319.00,3.5288
1318.00,3.6293
1317.00,3.7604
1316.00,3.9013
1315.00,4.0323
1314.00,4.1653
1313.00,4.3247
1312.00,4.4561
1311.00,4.4435
1310.00,4.3117
1309.00,4.1634
1308.00,4.0419
1307.00,3.9449
1306.00,3.8720
1305.00,3.8201
1304.00,3.7709
1303.00,3.7097
1302.00,3.6392
1301.00,3.5698
1300.00,3.5080
1299.00,3.4523
1298.00,3.3972
1297.00,3.3403
1296.00,3.2826
1295.00,3.2248
1294.00,3.1660
1293.00,3.1060
1292.00,3.0476
1291.00,2.9961
1290.00,2.9554
1289.00,2.9255
1288.00,2.9039
1287.00,2.8887
1286.00,2.8793
1285.00,2.8761
1284.00,2.8794
1283.00,2.8902
1282.00,2.9099
1281.00,2.9388
1280.00,2.9751
1279.00,3.0167
1278.00,3.0631
1277.00,3.1139
1276.00,3.1659
1275.00,3.2140
1274.00,3.2581
1273.00,3.3029
1272.00,3.3509
1271.00,3.3968
1270.00,3.4348
1269.00,3.4673
1268.00,3.5016
1267.00,3.5395
1266.00,3.5721
1265.00,3.5848
1264.00,3.5758
1263.00,3.5623
1262.00,3.5564
1261.00,3.5555
1260.00,3.5582
1259.00,3.5752
1258.00,3.6164
1257.00,3.6770
1256.00,3.7349
1255.00,3.7628
1254.00,3.7544
1253.00,3.7271
1252.00,3.7004
1251.00,3.6846
1250.00,3.6822
1249.00,3.6889
1248.00,3.6998
1247.00,3.7180
1246.00,3.7509
1245.00,3.7958
1244.00,3.8345
1243.00,3.8465
1242.00,3.8290
1241.00,3.8025
1240.00,3.7895
1239.00,3.7964
1238.00,3.8224
1237.00,3.8731
1236.00,3.9483
1235.00,4.0136
1234.00,4.0216
1233.00,3.9853
1232.00,3.9570
1231.00,3.9743
1230.00,4.0462
1229.00,4.1482
1228.00,4.2312
1227.00,4.2718
1226.00,4.2825
1225.00,4.2562
1224.00,4.1976
1223.00,4.1498
1222.00,4.1513
1221.00,4.2050
1220.00,4.3033
1219.00,4.4395
1218.00,4.4660
1217.00,4.3431
1216.00,4.2026
1215.00,4.0971
1214.00,4.0601
1213.00,4.0748
1212.00,4.0800
1211.00,4.0211
1210.00,3.9281
1209.00,3.8542
1208.00,3.8178
1207.00,3.8191
1206.00,3.8560
1205.00,3.9254
1204.00,4.0166
1203.00,4.1007
1202.00,4.1214
1201.00,4.0487
1200.00,3.9407
1199.00,3.8569
1198.00,3.8168
1197.00,3.8113
1196.00,3.8149
1195.00,3.8192
1194.00,3.8338
1193.00,3.8543
1192.00,3.8645
1191.00,3.8510
1190.00,3.8118
1189.00,3.7573
1188.00,3.7021
1187.00,3.6607
1186.00,3.6462
1185.00,3.6694
1184.00,3.7354
1183.00,3.8326
1182.00,3.9083
1181.00,3.8824
1180.00,3.7674
1179.00,3.6516
1178.00,3.5837
1177.00,3.5663
1176.00,3.5823
1175.00,3.6095
1174.00,3.6293
1173.00,3.6290
1172.00,3.6048
1171.00,3.5693
1170.00,3.5421
1169.00,3.5324
1168.00,3.5339
1167.00,3.5331
1166.00,3.5213
1165.00,3.4954
1164.00,3.4598
1163.00,3.4265
1162.00,3.4025
1161.00,3.3815
1160.00,3.3530
1159.00,3.3166
1158.00,3.2854
1157.00,3.2734
1156.00,3.2846
1155.00,3.3115
1154.00,3.3372
1153.00,3.3457
1152.00,3.3390
1151.00,3.3369
1150.00,3.3564
1149.00,3.3947
1148.00,3.4324
1147.00,3.4585
1146.00,3.4859
1145.00,3.5277
1144.00,3.5753
1143.00,3.6129
1142.00,3.6535
1141.00,3.7318
1140.00,3.8549
1139.00,3.9523
1138.00,3.9283
1137.00,3.8393
1136.00,3.7708
1135.00,3.7531
1134.00,3.8024
1133.00,3.9401
1132.00,4.1874
1131.00,4.4928
1130.00,4.4960
1129.00,4.2740
1128.00,4.1048
1127.00,4.0140
1126.00,3.9895
1125.00,4.0288
1124.00,4.1423
1123.00,4.3383
1122.00,4.5769
1121.00,4.6612
1120.00,4.5648
1119.00,4.5615
1118.00,4.6886
1117.00,4.6251
1116.00,4.3110
1115.00,4.0910
1114.00,3.9872
1113.00,3.9462
1112.00,3.9116
1111.00,3.8743
1110.00,3.8535
1109.00,3.8733
1108.00,3.9346
1107.00,3.9873
1106.00,3.9663
1105.00,3.8737
1104.00,3.7846
1103.00,3.7471
1102.00,3.7643
1101.00,3.8221
1100.00,3.9009
1099.00,3.9703
1098.00,3.9957
1097.00,3.9699
1096.00,3.9213
1095.00,3.9021
1094.00,3.9669
1093.00,4.1559
1092.00,4.4308
1091.00,4.5251
1090.00,4.3640
1089.00,4.2052
1088.00,4.1504
1087.00,4.1403
1086.00,4.1122
1085.00,4.0622
1084.00,4.0165
1083.00,3.9749
1082.00,3.9231
1081.00,3.8815
1080.00,3.8769
1079.00,3.9021
1078.00,3.9325
1077.00,3.9724
1076.00,4.0355
1075.00,4.0714
1074.00,4.0176
1073.00,3.9235
1072.00,3.8402
1071.00,3.8063
1070.00,3.8522
1069.00,4.0006
1068.00,4.2699
1067.00,4.4623
1066.00,4.4549
1065.00,4.4136
1064.00,4.0714
1063.00,3.8448
1062.00,3.7357
1061.00,3.7117
1060.00,3.7565
1059.00,3.8513
1058.00,3.9713
1057.00,4.0925
1056.00,4.1314
1055.00,4.0728
1054.00,4.0483
1053.00,4.0714
1052.00,4.0489
1051.00,3.9328
1050.00,3.8226
1049.00,3.7830
1048.00,3.7922
1047.00,3.8005
1046.00,3.7910
1045.00,3.7738
1044.00,3.7712
1043.00,3.7848
1042.00,3.7812
1041.00,3.7429
1040.00,3.6957
1039.00,3.6423
1038.00,3.5748
1037.00,3.5183
1036.00,3.4973
1035.00,3.5158
1034.00,3.5577
1033.00,3.5835
1032.00,3.5530
1031.00,3.4809
1030.00,3.4142
1029.00,3.3777
1028.00,3.3726
1027.00,3.3905
1026.00,3.4261
1025.00,3.4805
1024.00,3.5502
1023.00,3.6159
1022.00,3.6595
1021.00,3.6986
1020.00,3.7696
1019.00,3.8694
1018.00,3.9280
1017.00,3.8922
1016.00,3.8018
1015.00,3.7308
1014.00,3.7004
1013.00,3.6854
1012.00,3.6554
1011.00,3.6134
1010.00,3.5872
1009.00,3.5946
1008.00,3.6353
1007.00,3.6954
1006.00,3.7560
1005.00,3.8098
1004.00,3.8636
1003.00,3.9233
1002.00,3.9862
1001.00,4.0568
1000.00,4.1414
999.00,4.1976
998.00,4.1908
997.00,4.1495
996.00,4.0984
995.00,4.0499
994.00,4.0194
993.00,3.9995
992.00,3.9707
991.00,3.9799
990.00,4.0740
989.00,4.2455
988.00,4.3994
987.00,4.4067
986.00,4.3365
985.00,4.2900
984.00,4.3092
983.00,4.3720
982.00,4.3662
981.00,4.2437
980.00,4.0974
979.00,3.9788
978.00,3.9090
977.00,3.9058
976.00,3.9771
975.00,4.1230
974.00,4.3057
973.00,4.3582
972.00,4.3311
971.00,4.3531
970.00,4.1962
969.00,3.9709
968.00,3.8739
967.00,3.9179
966.00,4.0944
965.00,4.2992
964.00,4.2702
963.00,4.1772
962.00,4.1871
961.00,4.3663
960.00,4.7985
959.00,4.5732
958.00,4.3280
957.00,4.2230
956.00,4.1312
955.00,4.0100
954.00,3.8968
953.00,3.8357
952.00,3.8544
951.00,3.9747
950.00,4.1982
949.00,4.3996
948.00,4.4531
947.00,4.5255
946.00,4.7106
945.00,4.7547
944.00,4.5450
943.00,4.3529
942.00,4.2164
941.00,4.2155
940.00,4.3458
939.00,4.5415
938.00,4.5817
937.00,4.3070
936.00,4.0723
935.00,3.9211
934.00,3.8349
933.00,3.8087
932.00,3.8422
931.00,3.9356
930.00,4.0773
929.00,4.2270
928.00,4.3232
927.00,4.3236
926.00,4.2747
925.00,4.2744
924.00,4.4129
923.00,4.8246
922.00,4.5340
921.00,4.1839
920.00,4.0650
919.00,4.1068
918.00,4.2308
917.00,4.1665
916.00,4.0797
915.00,4.0639
914.00,4.0644
913.00,4.1026
912.00,4.1620
911.00,4.1269
910.00,3.9695
909.00,3.8106
908.00,3.7147
907.00,3.6824
906.00,3.6976
905.00,3.7516
904.00,3.8420
903.00,3.9504
902.00,4.0544
901.00,4.1566
900.00,4.2129
899.00,4.1854
898.00,4.1477
897.00,4.1285
896.00,4.1187
895.00,4.1542
894.00,4.2311
893.00,4.0775
892.00,3.8688
891.00,3.7897
890.00,3.8265
889.00,3.9477
888.00,4.0938
887.00,4.1635
886.00,4.1266
885.00,4.0910
884.00,4.1231
883.00,4.1317
882.00,4.0868
881.00,4.0823
880.00,4.0600
879.00,3.9580
878.00,3.8550
877.00,3.7993
876.00,3.7960
875.00,3.8410
874.00,3.9229
873.00,4.0240
872.00,4.2157
871.00,4.7230
870.00,4.7641
869.00,4.5759
868.00,4.4257
867.00,4.2969
866.00,4.3364
865.00,4.5537
864.00,4.7109
863.00,4.3508
862.00,4.2363
861.00,4.3209
860.00,4.1882
859.00,3.9813
858.00,3.9066
857.00,3.8959
856.00,3.8987
855.00,3.9407
854.00,4.0659
853.00,4.2709
852.00,4.3525
851.00,4.2327
850.00,4.1078
849.00,4.0124
848.00,3.9621
847.00,3.9727
846.00,4.0318
845.00,4.0989
844.00,4.1385
843.00,4.1498
842.00,4.1636
841.00,4.1917
840.00,4.2147
839.00,4.2665
838.00,4.4196
837.00,4.6386
836.00,4.6549
835.00,4.4769
834.00,4.3158
833.00,4.3031
832.00,4.3634
831.00,4.2336
830.00,4.1272
829.00,4.1452
828.00,4.1540
827.00,4.1015
826.00,4.1437
825.00,4.4113
824.00,4.4493
823.00,4.0985
822.00,3.9347
821.00,3.8694
820.00,3.8764
819.00,3.9726
818.00,4.1258
817.00,4.1914
816.00,4.2051
815.00,4.3163
814.00,4.6060
813.00,4.9069
812.00,4.5120
811.00,4.2971
810.00,4.1910
809.00,4.0472
808.00,3.9001
807.00,3.8450
806.00,3.9157
805.00,4.0714
804.00,4.1700
803.00,4.2062
802.00,4.2821
801.00,4.3685
800.00,4.4093
799.00,4.4499
798.00,4.6236
797.00,4.4367
796.00,4.0121
795.00,3.7947
794.00,3.7220
793.00,3.7404
792.00,3.7851
791.00,3.7963
790.00,3.8019
789.00,3.8646
788.00,3.9906
787.00,4.0614
786.00,4.0314
785.00,4.0053
784.00,3.9777
783.00,3.9124
782.00,3.8271
781.00,3.7697
780.00,3.7791
779.00,3.8588
778.00,3.9580
777.00,4.0374
776.00,4.2351
775.00,4.4267
774.00,4.2118
773.00,4.1279
772.00,4.1618
771.00,4.1669
770.00,4.3428
769.00,4.8227
768.00,4.1922
767.00,4.1144
766.00,4.4633
765.00,4.0954
764.00,3.7997
763.00,3.7131
762.00,3.7289
761.00,3.8102
760.00,3.9235
759.00,4.0245
758.00,4.0531
757.00,4.0184
756.00,3.9859
755.00,3.9995
754.00,4.1021
753.00,4.3897
752.00,4.4526
751.00,4.1464
750.00,4.0622
749.00,4.1246
748.00,4.1613
747.00,3.9875
746.00,3.8041
745.00,3.7283
744.00,3.7607
743.00,3.8924
742.00,4.0075
741.00,3.9821
740.00,3.9947
739.00,4.0341
738.00,3.9764
737.00,3.9548
736.00,4.1493
735.00,4.4749
734.00,4.2084
733.00,4.1163
732.00,4.1440
731.00,4.1273
730.00,4.2008
729.00,4.3018
728.00,4.2946
727.00,4.3670
726.00,4.4684
725.00,4.2681
724.00,4.2714
723.00,4.3278
722.00,4.0096
721.00,3.8452
720.00,3.8845
719.00,4.0408
718.00,4.1048
717.00,4.0476
716.00,3.9330
715.00,3.8193
714.00,3.7626
713.00,3.7366
712.00,3.7423
711.00,3.7723
710.00,3.8229
709.00,3.9284
708.00,4.0938
707.00,4.1888
706.00,4.0590
705.00,3.8806
704.00,3.7810
703.00,3.7936
702.00,3.8694
701.00,3.9462
700.00,3.9631
