Created as New Dataset,Sample 070 By Administrator Date Wednesday, November 24 2021
cm-1,A
7502.00,0.7770
7501.00,0.7754
7500.00,0.7737
7499.00,0.7721
7498.00,0.7705
7497.00,0.7689
7496.00,0.7673
7495.00,0.7657
7494.00,0.7641
7493.00,0.7633
7492.00,0.7635
7491.00,0.7646
7490.00,0.7663
7489.00,0.7685
7488.00,0.7711
7487.00,0.7741
7486.00,0.7774
7485.00,0.7808
7484.00,0.7845
7483.00,0.7886
7482.00,0.7932
7481.00,0.7985
7480.00,0.8047
7479.00,0.8117
7478.00,0.8191
7477.00,0.8267
7476.00,0.8349
7475.00,0.8439
7474.00,0.8537
7473.00,0.8635
7472.00,0.8727
7471.00,0.8815
7470.00,0.8906
7469.00,0.9002
7468.00,0.9100
7467.00,0.9196
7466.00,0.9294
7465.00,0.9396
7464.00,0.9497
7463.00,0.9592
7462.00,0.9680
7461.00,0.9767
7460.00,0.9857
7459.00,0.9948
7458.00,1.0040
7457.00,1.0133
7456.00,1.0230
7455.00,1.0329
7454.00,1.0425
7453.00,1.0518
7452.00,1.0607
7451.00,1.0691
7450.00,1.0767
7449.00,1.0836
7448.00,1.0903
7447.00,1.0975
7446.00,1.1049
7445.00,1.1124
7444.00,1.1197
7443.00,1.1268
7442.00,1.1334
7441.00,1.1393
7440.00,1.1446
7439.00,1.1494
7438.00,1.1534
7437.00,1.1563
7436.00,1.1583
7435.00,1.1603
7434.00,1.1631
7433.00,1.1669
7432.00,1.1708
7431.00,1.1743
7430.00,1.1775
7429.00,1.1809
7428.00,1.1841
7427.00,1.1864
7426.00,1.1871
7425.00,1.1864
7424.00,1.1848
7423.00,1.1829
7422.00,1.1809
7421.00,1.1787
7420.00,1.1764
7419.00,1.1739
7418.00,1.1708
7417.00,1.1674
7416.00,1.1638
7415.00,1.1605
7414.00,1.1572
7413.00,1.1536
7412.00,1.1490
7411.00,1.1434
7410.00,1.1374
7409.00,1.1313
7408.00,1.1248
7407.00,1.1175
7406.00,1.1094
7405.00,1.1014
7404.00,1.0937
7403.00,1.0861
7402.00,1.0776
7401.00,1.0681
7400.00,1.0583
7399.00,1.0486
7398.00,1.0389
7397.00,1.0290
7396.00,1.0187
7395.00,1.0086
7394.00,0.9985
7393.00,0.9883
7392.00,0.9777
7391.00,0.9669
7390.00,0.9565
7389.00,0.9467
7388.00,0.9371
7387.00,0.9271
7386.00,0.9166
7385.00,0.9061
7384.00,0.8962
7383.00,0.8868
7382.00,0.8778
7381.00,0.8690
7380.00,0.8604
7379.00,0.8522
7378.00,0.8444
7377.00,0.8370
7376.00,0.8299
7375.00,0.8227
7374.00,0.8155
7373.00,0.8089
7372.00,0.8033
7371.00,0.7985
7370.00,0.7941
7369.00,0.7898
7368.00,0.7858
7367.00,0.7826
7366.00,0.7803
7365.00,0.7786
7364.00,0.7772
7363.00,0.7760
7362.00,0.7757
7361.00,0.7765
7360.00,0.7782
7359.00,0.7803
7358.00,0.7826
7357.00,0.7855
7356.00,0.7892
7355.00,0.7936
7354.00,0.7986
7353.00,0.8038
7352.00,0.8091
7351.00,0.8148
7350.00,0.8213
7349.00,0.8286
7348.00,0.8367
7347.00,0.8448
7346.00,0.8525
7345.00,0.8600
7344.00,0.8680
7343.00,0.8766
7342.00,0.8854
7341.00,0.8939
7340.00,0.9024
7339.00,0.9113
7338.00,0.9211
7337.00,0.9313
7336.00,0.9413
7335.00,0.9506
7334.00,0.9593
7333.00,0.9678
7332.00,0.9760
7331.00,0.9839
7330.00,0.9915
7329.00,0.9989
7328.00,1.0067
7327.00,1.0148
7326.00,1.0227
7325.00,1.0306
7324.00,1.0386
7323.00,1.0466
7322.00,1.0539
7321.00,1.0604
7320.00,1.0664
7319.00,1.0725
7318.00,1.0787
7317.00,1.0848
7316.00,1.0906
7315.00,1.0963
7314.00,1.1017
7313.00,1.1065
7312.00,1.1106
7311.00,1.1139
7310.00,1.1164
7309.00,1.1181
7308.00,1.1193
7307.00,1.1207
7306.00,1.1227
7305.00,1.1254
7304.00,1.1284
7303.00,1.1314
7302.00,1.1343
7301.00,1.1372
7300.00,1.1400
7299.00,1.1421
7298.00,1.1431
7297.00,1.1433
7296.00,1.1430
7295.00,1.1419
7294.00,1.1398
7293.00,1.1365
7292.00,1.1324
7291.00,1.1282
7290.00,1.1240
7289.00,1.1197
7288.00,1.1154
7287.00,1.1113
7286.00,1.1074
7285.00,1.1036
7284.00,1.0999
7283.00,1.0961
7282.00,1.0922
7281.00,1.0879
7280.00,1.0831
7279.00,1.0783
7278.00,1.0737
7277.00,1.0690
7276.00,1.0637
7275.00,1.0574
7274.00,1.0501
7273.00,1.0425
7272.00,1.0350
7271.00,1.0278
7270.00,1.0207
7269.00,1.0132
7268.00,1.0050
7267.00,0.9965
7266.00,0.9878
7265.00,0.9791
7264.00,0.9701
7263.00,0.9609
7262.00,0.9518
7261.00,0.9430
7260.00,0.9346
7259.00,0.9262
7258.00,0.9173
7257.00,0.9076
7256.00,0.8972
7255.00,0.8868
7254.00,0.8766
7253.00,0.8669
7252.00,0.8576
7251.00,0.8489
7250.00,0.8408
7249.00,0.8332
7248.00,0.8259
7247.00,0.8190
7246.00,0.8123
7245.00,0.8060
7244.00,0.8003
7243.00,0.7952
7242.00,0.7908
7241.00,0.7872
7240.00,0.7839
7239.00,0.7808
7238.00,0.7781
7237.00,0.7759
7236.00,0.7744
7235.00,0.7734
7234.00,0.7728
7233.00,0.7727
7232.00,0.7736
7231.00,0.7755
7230.00,0.7782
7229.00,0.7812
7228.00,0.7848
7227.00,0.7889
7226.00,0.7936
7225.00,0.7987
7224.00,0.8043
7223.00,0.8104
7222.00,0.8172
7221.00,0.8244
7220.00,0.8320
7219.00,0.8401
7218.00,0.8486
7217.00,0.8575
7216.00,0.8663
7215.00,0.8749
7214.00,0.8834
7213.00,0.8921
7212.00,0.9013
7211.00,0.9109
7210.00,0.9207
7209.00,0.9305
7208.00,0.9405
7207.00,0.9507
7206.00,0.9613
7205.00,0.9717
7204.00,0.9817
7203.00,0.9913
7202.00,1.0007
7201.00,1.0106
7200.00,1.0210
7199.00,1.0316
7198.00,1.0420
7197.00,1.0519
7196.00,1.0614
7195.00,1.0706
7194.00,1.0793
7193.00,1.0873
7192.00,1.0949
7191.00,1.1020
7190.00,1.1089
7189.00,1.1159
7188.00,1.1233
7187.00,1.1309
7186.00,1.1380
7185.00,1.1440
7184.00,1.1491
7183.00,1.1541
7182.00,1.1593
7181.00,1.1643
7180.00,1.1691
7179.00,1.1742
7178.00,1.1796
7177.00,1.1850
7176.00,1.1897
7175.00,1.1933
7174.00,1.1957
7173.00,1.1970
7172.00,1.1975
7171.00,1.1975
7170.00,1.1972
7169.00,1.1971
7168.00,1.1973
7167.00,1.1977
7166.00,1.1977
7165.00,1.1969
7164.00,1.1956
7163.00,1.1940
7162.00,1.1924
7161.00,1.1901
7160.00,1.1871
7159.00,1.1837
7158.00,1.1801
7157.00,1.1764
7156.00,1.1719
7155.00,1.1666
7154.00,1.1609
7153.00,1.1551
7152.00,1.1494
7151.00,1.1436
7150.00,1.1374
7149.00,1.1304
7148.00,1.1228
7147.00,1.1151
7146.00,1.1072
7145.00,1.0987
7144.00,1.0892
7143.00,1.0792
7142.00,1.0692
7141.00,1.0595
7140.00,1.0496
7139.00,1.0394
7138.00,1.0289
7137.00,1.0187
7136.00,1.0087
7135.00,0.9983
7134.00,0.9874
7133.00,0.9761
7132.00,0.9648
7131.00,0.9538
7130.00,0.9431
7129.00,0.9326
7128.00,0.9222
7127.00,0.9120
7126.00,0.9021
7125.00,0.8925
7124.00,0.8829
7123.00,0.8733
7122.00,0.8640
7121.00,0.8550
7120.00,0.8466
7119.00,0.8385
7118.00,0.8307
7117.00,0.8232
7116.00,0.8161
7115.00,0.8095
7114.00,0.8034
7113.00,0.7980
7112.00,0.7932
7111.00,0.7890
7110.00,0.7854
7109.00,0.7824
7108.00,0.7799
7107.00,0.7781
7106.00,0.7769
7105.00,0.7765
7104.00,0.7767
7103.00,0.7775
7102.00,0.7790
7101.00,0.7810
7100.00,0.7835
7099.00,0.7866
7098.00,0.7905
7097.00,0.7952
7096.00,0.8004
7095.00,0.8060
7094.00,0.8121
7093.00,0.8190
7092.00,0.8262
7091.00,0.8334
7090.00,0.8407
7089.00,0.8484
7088.00,0.8567
7087.00,0.8656
7086.00,0.8748
7085.00,0.8843
7084.00,0.8941
7083.00,0.9042
7082.00,0.9146
7081.00,0.9250
7080.00,0.9353
7079.00,0.9454
7078.00,0.9552
7077.00,0.9648
7076.00,0.9745
7075.00,0.9843
7074.00,0.9940
7073.00,1.0034
7072.00,1.0126
7071.00,1.0221
7070.00,1.0320
7069.00,1.0420
7068.00,1.0518
7067.00,1.0612
7066.00,1.0703
7065.00,1.0791
7064.00,1.0872
7063.00,1.0948
7062.00,1.1020
7061.00,1.1092
7060.00,1.1163
7059.00,1.1234
7058.00,1.1304
7057.00,1.1371
7056.00,1.1436
7055.00,1.1497
7054.00,1.1554
7053.00,1.1605
7052.00,1.1649
7051.00,1.1690
7050.00,1.1728
7049.00,1.1762
7048.00,1.1789
7047.00,1.1809
7046.00,1.1827
7045.00,1.1845
7044.00,1.1864
7043.00,1.1884
7042.00,1.1902
7041.00,1.1913
7040.00,1.1917
7039.00,1.1915
7038.00,1.1910
7037.00,1.1899
7036.00,1.1881
7035.00,1.1858
7034.00,1.1834
7033.00,1.1810
7032.00,1.1782
7031.00,1.1750
7030.00,1.1717
7029.00,1.1682
7028.00,1.1644
7027.00,1.1602
7026.00,1.1559
7025.00,1.1514
7024.00,1.1463
7023.00,1.1401
7022.00,1.1332
7021.00,1.1261
7020.00,1.1188
7019.00,1.1110
7018.00,1.1029
7017.00,1.0951
7016.00,1.0875
7015.00,1.0797
7014.00,1.0709
7013.00,1.0610
7012.00,1.0505
7011.00,1.0399
7010.00,1.0293
7009.00,1.0189
7008.00,1.0086
7007.00,0.9985
7006.00,0.9888
7005.00,0.9791
7004.00,0.9691
7003.00,0.9585
7002.00,0.9475
7001.00,0.9364
7000.00,0.9256
6999.00,0.9150
6998.00,0.9047
6997.00,0.8947
6996.00,0.8850
6995.00,0.8753
6994.00,0.8658
6993.00,0.8566
6992.00,0.8477
6991.00,0.8391
6990.00,0.8307
6989.00,0.8227
6988.00,0.8151
6987.00,0.8080
6986.00,0.8015
6985.00,0.7955
6984.00,0.7902
6983.00,0.7855
6982.00,0.7814
6981.00,0.7781
6980.00,0.7752
6979.00,0.7729
6978.00,0.7710
6977.00,0.7698
6976.00,0.7693
6975.00,0.7696
6974.00,0.7707
6973.00,0.7726
6972.00,0.7750
6971.00,0.7781
6970.00,0.7818
6969.00,0.7861
6968.00,0.7911
6967.00,0.7965
6966.00,0.8022
6965.00,0.8083
6964.00,0.8150
6963.00,0.8222
6962.00,0.8298
6961.00,0.8378
6960.00,0.8460
6959.00,0.8547
6958.00,0.8638
6957.00,0.8733
6956.00,0.8833
6955.00,0.8936
6954.00,0.9041
6953.00,0.9149
6952.00,0.9257
6951.00,0.9364
6950.00,0.9469
6949.00,0.9570
6948.00,0.9669
6947.00,0.9769
6946.00,0.9874
6945.00,0.9981
6944.00,1.0088
6943.00,1.0191
6942.00,1.0290
6941.00,1.0389
6940.00,1.0487
6939.00,1.0584
6938.00,1.0680
6937.00,1.0774
6936.00,1.0868
6935.00,1.0963
6934.00,1.1055
6933.00,1.1140
6932.00,1.1216
6931.00,1.1286
6930.00,1.1355
6929.00,1.1427
6928.00,1.1501
6927.00,1.1573
6926.00,1.1638
6925.00,1.1695
6924.00,1.1746
6923.00,1.1794
6922.00,1.1841
6921.00,1.1884
6920.00,1.1919
6919.00,1.1950
6918.00,1.1984
6917.00,1.2022
6916.00,1.2057
6915.00,1.2080
6914.00,1.2092
6913.00,1.2102
6912.00,1.2112
6911.00,1.2122
6910.00,1.2127
6909.00,1.2126
6908.00,1.2123
6907.00,1.2118
6906.00,1.2112
6905.00,1.2103
6904.00,1.2090
6903.00,1.2069
6902.00,1.2040
6901.00,1.2004
6900.00,1.1964
6899.00,1.1921
6898.00,1.1873
6897.00,1.1818
6896.00,1.1759
6895.00,1.1698
6894.00,1.1636
6893.00,1.1570
6892.00,1.1496
6891.00,1.1419
6890.00,1.1342
6889.00,1.1266
6888.00,1.1186
6887.00,1.1100
6886.00,1.1009
6885.00,1.0914
6884.00,1.0814
6883.00,1.0709
6882.00,1.0598
6881.00,1.0484
6880.00,1.0373
6879.00,1.0267
6878.00,1.0166
6877.00,1.0067
6876.00,0.9965
6875.00,0.9860
6874.00,0.9752
6873.00,0.9641
6872.00,0.9527
6871.00,0.9409
6870.00,0.9291
6869.00,0.9175
6868.00,0.9062
6867.00,0.8953
6866.00,0.8847
6865.00,0.8747
6864.00,0.8648
6863.00,0.8553
6862.00,0.8461
6861.00,0.8374
6860.00,0.8293
6859.00,0.8215
6858.00,0.8141
6857.00,0.8074
6856.00,0.8012
6855.00,0.7957
6854.00,0.7909
6853.00,0.7868
6852.00,0.7832
6851.00,0.7799
6850.00,0.7769
6849.00,0.7746
6848.00,0.7731
6847.00,0.7723
6846.00,0.7724
6845.00,0.7732
6844.00,0.7750
6843.00,0.7775
6842.00,0.7807
6841.00,0.7845
6840.00,0.7887
6839.00,0.7932
6838.00,0.7982
6837.00,0.8038
6836.00,0.8101
6835.00,0.8170
6834.00,0.8243
6833.00,0.8322
6832.00,0.8408
6831.00,0.8499
6830.00,0.8592
6829.00,0.8687
6828.00,0.8781
6827.00,0.8876
6826.00,0.8972
6825.00,0.9073
6824.00,0.9178
6823.00,0.9286
6822.00,0.9398
6821.00,0.9512
6820.00,0.9627
6819.00,0.9741
6818.00,0.9852
6817.00,0.9958
6816.00,1.0061
6815.00,1.0161
6814.00,1.0260
6813.00,1.0359
6812.00,1.0457
6811.00,1.0553
6810.00,1.0648
6809.00,1.0743
6808.00,1.0836
6807.00,1.0927
6806.00,1.1014
6805.00,1.1100
6804.00,1.1182
6803.00,1.1262
6802.00,1.1338
6801.00,1.1412
6800.00,1.1485
6799.00,1.1556
6798.00,1.1623
6797.00,1.1685
6796.00,1.1740
6795.00,1.1787
6794.00,1.1832
6793.00,1.1876
6792.00,1.1915
6791.00,1.1950
6790.00,1.1981
6789.00,1.2012
6788.00,1.2040
6787.00,1.2062
6786.00,1.2078
6785.00,1.2090
6784.00,1.2098
6783.00,1.2105
6782.00,1.2113
6781.00,1.2121
6780.00,1.2121
6779.00,1.2109
6778.00,1.2086
6777.00,1.2061
6776.00,1.2035
6775.00,1.2005
6774.00,1.1969
6773.00,1.1934
6772.00,1.1903
6771.00,1.1871
6770.00,1.1829
6769.00,1.1778
6768.00,1.1721
6767.00,1.1663
6766.00,1.1600
6765.00,1.1531
6764.00,1.1457
6763.00,1.1382
6762.00,1.1305
6761.00,1.1224
6760.00,1.1139
6759.00,1.1051
6758.00,1.0961
6757.00,1.0871
6756.00,1.0779
6755.00,1.0684
6754.00,1.0584
6753.00,1.0480
6752.00,1.0372
6751.00,1.0263
6750.00,1.0154
6749.00,1.0045
6748.00,0.9936
6747.00,0.9829
6746.00,0.9725
6745.00,0.9621
6744.00,0.9515
6743.00,0.9405
6742.00,0.9293
6741.00,0.9181
6740.00,0.9069
6739.00,0.8957
6738.00,0.8846
6737.00,0.8741
6736.00,0.8642
6735.00,0.8547
6734.00,0.8455
6733.00,0.8367
6732.00,0.8281
6731.00,0.8198
6730.00,0.8119
6729.00,0.8045
6728.00,0.7976
6727.00,0.7912
6726.00,0.7853
6725.00,0.7802
6724.00,0.7758
6723.00,0.7721
6722.00,0.7690
6721.00,0.7665
6720.00,0.7646
6719.00,0.7634
6718.00,0.7629
6717.00,0.7632
6716.00,0.7642
6715.00,0.7660
6714.00,0.7685
6713.00,0.7719
6712.00,0.7759
6711.00,0.7804
6710.00,0.7854
6709.00,0.7909
6708.00,0.7971
6707.00,0.8038
6706.00,0.8111
6705.00,0.8190
6704.00,0.8273
6703.00,0.8361
6702.00,0.8451
6701.00,0.8544
6700.00,0.8641
6699.00,0.8742
6698.00,0.8846
6697.00,0.8953
6696.00,0.9062
6695.00,0.9171
6694.00,0.9280
6693.00,0.9389
6692.00,0.9498
6691.00,0.9606
6690.00,0.9714
6689.00,0.9823
6688.00,0.9933
6687.00,1.0043
6686.00,1.0152
6685.00,1.0261
6684.00,1.0371
6683.00,1.0480
6682.00,1.0587
6681.00,1.0689
6680.00,1.0789
6679.00,1.0887
6678.00,1.0983
6677.00,1.1077
6676.00,1.1168
6675.00,1.1257
6674.00,1.1343
6673.00,1.1424
6672.00,1.1499
6671.00,1.1569
6670.00,1.1636
6669.00,1.1702
6668.00,1.1767
6667.00,1.1830
6666.00,1.1893
6665.00,1.1957
6664.00,1.2017
6663.00,1.2069
6662.00,1.2114
6661.00,1.2152
6660.00,1.2186
6659.00,1.2214
6658.00,1.2237
6657.00,1.2254
6656.00,1.2272
6655.00,1.2290
6654.00,1.2306
6653.00,1.2317
6652.00,1.2319
6651.00,1.2314
6650.00,1.2303
6649.00,1.2288
6648.00,1.2268
6647.00,1.2244
6646.00,1.2219
6645.00,1.2196
6644.00,1.2173
6643.00,1.2145
6642.00,1.2109
6641.00,1.2065
6640.00,1.2014
6639.00,1.1956
6638.00,1.1892
6637.00,1.1826
6636.00,1.1759
6635.00,1.1692
6634.00,1.1625
6633.00,1.1556
6632.00,1.1484
6631.00,1.1406
6630.00,1.1320
6629.00,1.1229
6628.00,1.1134
6627.00,1.1035
6626.00,1.0933
6625.00,1.0826
6624.00,1.0717
6623.00,1.0605
6622.00,1.0491
6621.00,1.0377
6620.00,1.0263
6619.00,1.0149
6618.00,1.0033
6617.00,0.9919
6616.00,0.9806
6615.00,0.9692
6614.00,0.9575
6613.00,0.9454
6612.00,0.9334
6611.00,0.9219
6610.00,0.9107
6609.00,0.8996
6608.00,0.8884
6607.00,0.8776
6606.00,0.8672
6605.00,0.8573
6604.00,0.8476
6603.00,0.8381
6602.00,0.8290
6601.00,0.8205
6600.00,0.8125
6599.00,0.8051
6598.00,0.7981
6597.00,0.7919
6596.00,0.7862
6595.00,0.7812
6594.00,0.7770
6593.00,0.7735
6592.00,0.7707
6591.00,0.7686
6590.00,0.7673
6589.00,0.7667
6588.00,0.7670
6587.00,0.7680
6586.00,0.7696
6585.00,0.7719
6584.00,0.7747
6583.00,0.7782
6582.00,0.7824
6581.00,0.7876
6580.00,0.7934
6579.00,0.7998
6578.00,0.8068
6577.00,0.8144
6576.00,0.8226
6575.00,0.8311
6574.00,0.8398
6573.00,0.8489
6572.00,0.8584
6571.00,0.8683
6570.00,0.8786
6569.00,0.8892
6568.00,0.9000
6567.00,0.9109
6566.00,0.9219
6565.00,0.9330
6564.00,0.9442
6563.00,0.9555
6562.00,0.9669
6561.00,0.9783
6560.00,0.9896
6559.00,1.0009
6558.00,1.0119
6557.00,1.0226
6556.00,1.0331
6555.00,1.0433
6554.00,1.0536
6553.00,1.0638
6552.00,1.0740
6551.00,1.0840
6550.00,1.0937
6549.00,1.1031
6548.00,1.1122
6547.00,1.1210
6546.00,1.1293
6545.00,1.1370
6544.00,1.1442
6543.00,1.1513
6542.00,1.1582
6541.00,1.1649
6540.00,1.1713
6539.00,1.1775
6538.00,1.1837
6537.00,1.1897
6536.00,1.1954
6535.00,1.2003
6534.00,1.2045
6533.00,1.2079
6532.00,1.2111
6531.00,1.2140
6530.00,1.2164
6529.00,1.2184
6528.00,1.2199
6527.00,1.2210
6526.00,1.2218
6525.00,1.2221
6524.00,1.2219
6523.00,1.2213
6522.00,1.2206
6521.00,1.2200
6520.00,1.2192
6519.00,1.2180
6518.00,1.2160
6517.00,1.2133
6516.00,1.2102
6515.00,1.2070
6514.00,1.2035
6513.00,1.1992
6512.00,1.1944
6511.00,1.1893
6510.00,1.1840
6509.00,1.1783
6508.00,1.1723
6507.00,1.1661
6506.00,1.1601
6505.00,1.1538
6504.00,1.1469
6503.00,1.1392
6502.00,1.1309
6501.00,1.1222
6500.00,1.1130
6499.00,1.1036
6498.00,1.0939
6497.00,1.0842
6496.00,1.0743
6495.00,1.0641
6494.00,1.0537
6493.00,1.0429
6492.00,1.0317
6491.00,1.0203
6490.00,1.0088
6489.00,0.9971
6488.00,0.9854
6487.00,0.9735
6486.00,0.9617
6485.00,0.9502
6484.00,0.9389
6483.00,0.9274
6482.00,0.9159
6481.00,0.9044
6480.00,0.8931
6479.00,0.8820
6478.00,0.8712
6477.00,0.8608
6476.00,0.8508
6475.00,0.8412
6474.00,0.8319
6473.00,0.8230
6472.00,0.8144
6471.00,0.8063
6470.00,0.7988
6469.00,0.7920
6468.00,0.7859
6467.00,0.7806
6466.00,0.7759
6465.00,0.7718
6464.00,0.7683
6463.00,0.7655
6462.00,0.7634
6461.00,0.7621
6460.00,0.7614
6459.00,0.7615
6458.00,0.7625
6457.00,0.7644
6456.00,0.7672
6455.00,0.7705
6454.00,0.7746
6453.00,0.7793
6452.00,0.7847
6451.00,0.7907
6450.00,0.7971
6449.00,0.8042
6448.00,0.8119
6447.00,0.8203
6446.00,0.8293
6445.00,0.8386
6444.00,0.8485
6443.00,0.8587
6442.00,0.8694
6441.00,0.8802
6440.00,0.8912
6439.00,0.9024
6438.00,0.9138
6437.00,0.9253
6436.00,0.9370
6435.00,0.9487
6434.00,0.9607
6433.00,0.9727
6432.00,0.9846
6431.00,0.9962
6430.00,1.0076
6429.00,1.0190
6428.00,1.0304
6427.00,1.0416
6426.00,1.0525
6425.00,1.0634
6424.00,1.0742
6423.00,1.0849
6422.00,1.0953
6421.00,1.1055
6420.00,1.1154
6419.00,1.1251
6418.00,1.1348
6417.00,1.1442
6416.00,1.1533
6415.00,1.1620
6414.00,1.1703
6413.00,1.1782
6412.00,1.1856
6411.00,1.1925
6410.00,1.1991
6409.00,1.2053
6408.00,1.2113
6407.00,1.2170
6406.00,1.2225
6405.00,1.2276
6404.00,1.2322
6403.00,1.2360
6402.00,1.2394
6401.00,1.2427
6400.00,1.2459
6399.00,1.2486
6398.00,1.2507
6397.00,1.2521
6396.00,1.2530
6395.00,1.2536
6394.00,1.2536
6393.00,1.2532
6392.00,1.2528
6391.00,1.2525
6390.00,1.2519
6389.00,1.2504
6388.00,1.2478
6387.00,1.2445
6386.00,1.2409
6385.00,1.2371
6384.00,1.2330
6383.00,1.2287
6382.00,1.2245
6381.00,1.2201
6380.00,1.2149
6379.00,1.2085
6378.00,1.2012
6377.00,1.1934
6376.00,1.1855
6375.00,1.1776
6374.00,1.1694
6373.00,1.1607
6372.00,1.1518
6371.00,1.1425
6370.00,1.1327
6369.00,1.1224
6368.00,1.1116
6367.00,1.1009
6366.00,1.0901
6365.00,1.0791
6364.00,1.0675
6363.00,1.0555
6362.00,1.0434
6361.00,1.0311
6360.00,1.0186
6359.00,1.0059
6358.00,0.9932
6357.00,0.9807
6356.00,0.9682
6355.00,0.9555
6354.00,0.9427
6353.00,0.9300
6352.00,0.9175
6351.00,0.9054
6350.00,0.8934
6349.00,0.8817
6348.00,0.8704
6347.00,0.8593
6346.00,0.8487
6345.00,0.8385
6344.00,0.8288
6343.00,0.8197
6342.00,0.8113
6341.00,0.8036
6340.00,0.7964
6339.00,0.7897
6338.00,0.7837
6337.00,0.7784
6336.00,0.7738
6335.00,0.7699
6334.00,0.7668
6333.00,0.7646
6332.00,0.7632
6331.00,0.7626
6330.00,0.7628
6329.00,0.7638
6328.00,0.7656
6327.00,0.7683
6326.00,0.7719
6325.00,0.7761
6324.00,0.7808
6323.00,0.7862
6322.00,0.7922
6321.00,0.7989
6320.00,0.8061
6319.00,0.8139
6318.00,0.8224
6317.00,0.8317
6316.00,0.8414
6315.00,0.8514
6314.00,0.8617
6313.00,0.8722
6312.00,0.8829
6311.00,0.8939
6310.00,0.9052
6309.00,0.9168
6308.00,0.9287
6307.00,0.9409
6306.00,0.9531
6305.00,0.9653
6304.00,0.9771
6303.00,0.9889
6302.00,1.0008
6301.00,1.0127
6300.00,1.0244
6299.00,1.0358
6298.00,1.0471
6297.00,1.0582
6296.00,1.0689
6295.00,1.0789
6294.00,1.0887
6293.00,1.0985
6292.00,1.1084
6291.00,1.1181
6290.00,1.1274
6289.00,1.1363
6288.00,1.1449
6287.00,1.1533
6286.00,1.1616
6285.00,1.1695
6284.00,1.1771
6283.00,1.1844
6282.00,1.1914
6281.00,1.1980
6280.00,1.2041
6279.00,1.2094
6278.00,1.2142
6277.00,1.2188
6276.00,1.2231
6275.00,1.2269
6274.00,1.2302
6273.00,1.2330
6272.00,1.2354
6271.00,1.2375
6270.00,1.2390
6269.00,1.2402
6268.00,1.2412
6267.00,1.2418
6266.00,1.2421
6265.00,1.2420
6264.00,1.2415
6263.00,1.2404
6262.00,1.2387
6261.00,1.2366
6260.00,1.2343
6259.00,1.2320
6258.00,1.2294
6257.00,1.2263
6256.00,1.2226
6255.00,1.2184
6254.00,1.2137
6253.00,1.2089
6252.00,1.2040
6251.00,1.1990
6250.00,1.1938
6249.00,1.1878
6248.00,1.1812
6247.00,1.1739
6246.00,1.1662
6245.00,1.1580
6244.00,1.1493
6243.00,1.1405
6242.00,1.1318
6241.00,1.1231
6240.00,1.1141
6239.00,1.1047
6238.00,1.0947
6237.00,1.0842
6236.00,1.0731
6235.00,1.0615
6234.00,1.0494
6233.00,1.0370
6232.00,1.0245
6231.00,1.0122
6230.00,0.9999
6229.00,0.9875
6228.00,0.9748
6227.00,0.9620
6226.00,0.9493
6225.00,0.9367
6224.00,0.9242
6223.00,0.9117
6222.00,0.8996
6221.00,0.8879
6220.00,0.8765
6219.00,0.8653
6218.00,0.8545
6217.00,0.8441
6216.00,0.8342
6215.00,0.8246
6214.00,0.8154
6213.00,0.8068
6212.00,0.7987
6211.00,0.7912
6210.00,0.7843
6209.00,0.7782
6208.00,0.7730
6207.00,0.7687
6206.00,0.7651
6205.00,0.7623
6204.00,0.7602
6203.00,0.7588
6202.00,0.7582
6201.00,0.7583
6200.00,0.7594
6199.00,0.7613
6198.00,0.7641
6197.00,0.7677
6196.00,0.7720
6195.00,0.7770
6194.00,0.7829
6193.00,0.7895
6192.00,0.7967
6191.00,0.8046
6190.00,0.8132
6189.00,0.8224
6188.00,0.8319
6187.00,0.8419
6186.00,0.8523
6185.00,0.8631
6184.00,0.8742
6183.00,0.8856
6182.00,0.8972
6181.00,0.9092
6180.00,0.9214
6179.00,0.9337
6178.00,0.9463
6177.00,0.9592
6176.00,0.9720
6175.00,0.9846
6174.00,0.9969
6173.00,1.0091
6172.00,1.0211
6171.00,1.0330
6170.00,1.0447
6169.00,1.0566
6168.00,1.0685
6167.00,1.0803
6166.00,1.0920
6165.00,1.1033
6164.00,1.1141
6163.00,1.1245
6162.00,1.1345
6161.00,1.1442
6160.00,1.1538
6159.00,1.1631
6158.00,1.1724
6157.00,1.1816
6156.00,1.1905
6155.00,1.1990
6154.00,1.2069
6153.00,1.2145
6152.00,1.2218
6151.00,1.2286
6150.00,1.2346
6149.00,1.2400
6148.00,1.2451
6147.00,1.2498
6146.00,1.2542
6145.00,1.2584
6144.00,1.2623
6143.00,1.2659
6142.00,1.2689
6141.00,1.2711
6140.00,1.2728
6139.00,1.2742
6138.00,1.2754
6137.00,1.2763
6136.00,1.2769
6135.00,1.2770
6134.00,1.2765
6133.00,1.2754
6132.00,1.2738
6131.00,1.2718
6130.00,1.2694
6129.00,1.2666
6128.00,1.2633
6127.00,1.2594
6126.00,1.2552
6125.00,1.2508
6124.00,1.2460
6123.00,1.2406
6122.00,1.2347
6121.00,1.2284
6120.00,1.2216
6119.00,1.2142
6118.00,1.2061
6117.00,1.1976
6116.00,1.1889
6115.00,1.1799
6114.00,1.1705
6113.00,1.1607
6112.00,1.1507
6111.00,1.1404
6110.00,1.1297
6109.00,1.1181
6108.00,1.1060
6107.00,1.0938
6106.00,1.0816
6105.00,1.0691
6104.00,1.0563
6103.00,1.0432
6102.00,1.0300
6101.00,1.0167
6100.00,1.0030
6099.00,0.9892
6098.00,0.9754
6097.00,0.9620
6096.00,0.9487
6095.00,0.9354
6094.00,0.9222
6093.00,0.9092
6092.00,0.8964
6091.00,0.8839
6090.00,0.8717
6089.00,0.8599
6088.00,0.8485
6087.00,0.8377
6086.00,0.8275
6085.00,0.8178
6084.00,0.8086
6083.00,0.8001
6082.00,0.7924
6081.00,0.7854
6080.00,0.7791
6079.00,0.7734
6078.00,0.7684
6077.00,0.7642
6076.00,0.7607
6075.00,0.7582
6074.00,0.7566
6073.00,0.7559
6072.00,0.7562
6071.00,0.7574
6070.00,0.7594
6069.00,0.7623
6068.00,0.7661
6067.00,0.7706
6066.00,0.7758
6065.00,0.7818
6064.00,0.7885
6063.00,0.7957
6062.00,0.8035
6061.00,0.8120
6060.00,0.8211
6059.00,0.8307
6058.00,0.8408
6057.00,0.8514
6056.00,0.8625
6055.00,0.8740
6054.00,0.8859
6053.00,0.8979
6052.00,0.9101
6051.00,0.9224
6050.00,0.9348
6049.00,0.9473
6048.00,0.9599
6047.00,0.9724
6046.00,0.9849
6045.00,0.9974
6044.00,1.0098
6043.00,1.0220
6042.00,1.0341
6041.00,1.0461
6040.00,1.0580
6039.00,1.0698
6038.00,1.0815
6037.00,1.0931
6036.00,1.1044
6035.00,1.1155
6034.00,1.1264
6033.00,1.1371
6032.00,1.1474
6031.00,1.1574
6030.00,1.1669
6029.00,1.1762
6028.00,1.1850
6027.00,1.1934
6026.00,1.2015
6025.00,1.2097
6024.00,1.2178
6023.00,1.2255
6022.00,1.2326
6021.00,1.2389
6020.00,1.2445
6019.00,1.2494
6018.00,1.2541
6017.00,1.2588
6016.00,1.2637
6015.00,1.2684
6014.00,1.2723
6013.00,1.2754
6012.00,1.2778
6011.00,1.2798
6010.00,1.2813
6009.00,1.2826
6008.00,1.2838
6007.00,1.2849
6006.00,1.2858
6005.00,1.2859
6004.00,1.2853
6003.00,1.2840
6002.00,1.2824
6001.00,1.2804
6000.00,1.2778
5999.00,1.2747
5998.00,1.2712
5997.00,1.2674
5996.00,1.2630
5995.00,1.2580
5994.00,1.2523
5993.00,1.2460
5992.00,1.2394
5991.00,1.2326
5990.00,1.2254
5989.00,1.2178
5988.00,1.2096
5987.00,1.2009
5986.00,1.1917
5985.00,1.1823
5984.00,1.1725
5983.00,1.1622
5982.00,1.1515
5981.00,1.1406
5980.00,1.1292
5979.00,1.1175
5978.00,1.1052
5977.00,1.0925
5976.00,1.0795
5975.00,1.0662
5974.00,1.0527
5973.00,1.0391
5972.00,1.0254
5971.00,1.0116
5970.00,0.9977
5969.00,0.9838
5968.00,0.9697
5967.00,0.9556
5966.00,0.9418
5965.00,0.9283
5964.00,0.9149
5963.00,0.9017
5962.00,0.8887
5961.00,0.8761
5960.00,0.8638
5959.00,0.8519
5958.00,0.8405
5957.00,0.8299
5956.00,0.8201
5955.00,0.8109
5954.00,0.8023
5953.00,0.7944
5952.00,0.7871
5951.00,0.7806
5950.00,0.7749
5949.00,0.7700
5948.00,0.7660
5947.00,0.7630
5946.00,0.7611
5945.00,0.7601
5944.00,0.7599
5943.00,0.7605
5942.00,0.7620
5941.00,0.7644
5940.00,0.7677
5939.00,0.7718
5938.00,0.7768
5937.00,0.7827
5936.00,0.7893
5935.00,0.7966
5934.00,0.8047
5933.00,0.8135
5932.00,0.8229
5931.00,0.8329
5930.00,0.8434
5929.00,0.8544
5928.00,0.8658
5927.00,0.8775
5926.00,0.8898
5925.00,0.9025
5924.00,0.9157
5923.00,0.9291
5922.00,0.9427
5921.00,0.9563
5920.00,0.9698
5919.00,0.9832
5918.00,0.9963
5917.00,1.0094
5916.00,1.0226
5915.00,1.0358
5914.00,1.0490
5913.00,1.0620
5912.00,1.0748
5911.00,1.0873
5910.00,1.0996
5909.00,1.1117
5908.00,1.1238
5907.00,1.1358
5906.00,1.1476
5905.00,1.1590
5904.00,1.1699
5903.00,1.1802
5902.00,1.1901
5901.00,1.1997
5900.00,1.2091
5899.00,1.2182
5898.00,1.2269
5897.00,1.2351
5896.00,1.2428
5895.00,1.2504
5894.00,1.2578
5893.00,1.2649
5892.00,1.2715
5891.00,1.2775
5890.00,1.2828
5889.00,1.2876
5888.00,1.2918
5887.00,1.2959
5886.00,1.2998
5885.00,1.3038
5884.00,1.3074
5883.00,1.3102
5882.00,1.3121
5881.00,1.3133
5880.00,1.3140
5879.00,1.3145
5878.00,1.3146
5877.00,1.3142
5876.00,1.3134
5875.00,1.3120
5874.00,1.3102
5873.00,1.3080
5872.00,1.3056
5871.00,1.3032
5870.00,1.3004
5869.00,1.2970
5868.00,1.2929
5867.00,1.2879
5866.00,1.2825
5865.00,1.2767
5864.00,1.2707
5863.00,1.2644
5862.00,1.2577
5861.00,1.2506
5860.00,1.2429
5859.00,1.2345
5858.00,1.2254
5857.00,1.2155
5856.00,1.2052
5855.00,1.1947
5854.00,1.1840
5853.00,1.1731
5852.00,1.1620
5851.00,1.1505
5850.00,1.1388
5849.00,1.1267
5848.00,1.1141
5847.00,1.1010
5846.00,1.0877
5845.00,1.0740
5844.00,1.0601
5843.00,1.0460
5842.00,1.0319
5841.00,1.0180
5840.00,1.0042
5839.00,0.9904
5838.00,0.9767
5837.00,0.9630
5836.00,0.9493
5835.00,0.9356
5834.00,0.9222
5833.00,0.9092
5832.00,0.8968
5831.00,0.8849
5830.00,0.8734
5829.00,0.8623
5828.00,0.8515
5827.00,0.8410
5826.00,0.8312
5825.00,0.8220
5824.00,0.8136
5823.00,0.8059
5822.00,0.7991
5821.00,0.7932
5820.00,0.7881
5819.00,0.7838
5818.00,0.7803
5817.00,0.7778
5816.00,0.7761
5815.00,0.7751
5814.00,0.7751
5813.00,0.7760
5812.00,0.7779
5811.00,0.7809
5810.00,0.7848
5809.00,0.7896
5808.00,0.7952
5807.00,0.8014
5806.00,0.8083
5805.00,0.8159
5804.00,0.8242
5803.00,0.8333
5802.00,0.8431
5801.00,0.8534
5800.00,0.8642
5799.00,0.8752
5798.00,0.8867
5797.00,0.8985
5796.00,0.9109
5795.00,0.9236
5794.00,0.9367
5793.00,0.9500
5792.00,0.9634
5791.00,0.9768
5790.00,0.9901
5789.00,1.0035
5788.00,1.0170
5787.00,1.0304
5786.00,1.0437
5785.00,1.0568
5784.00,1.0699
5783.00,1.0829
5782.00,1.0958
5781.00,1.1086
5780.00,1.1212
5779.00,1.1336
5778.00,1.1458
5777.00,1.1577
5776.00,1.1692
5775.00,1.1804
5774.00,1.1912
5773.00,1.2016
5772.00,1.2114
5771.00,1.2208
5770.00,1.2300
5769.00,1.2390
5768.00,1.2477
5767.00,1.2559
5766.00,1.2636
5765.00,1.2710
5764.00,1.2781
5763.00,1.2850
5762.00,1.2913
5761.00,1.2969
5760.00,1.3021
5759.00,1.3069
5758.00,1.3113
5757.00,1.3153
5756.00,1.3190
5755.00,1.3224
5754.00,1.3253
5753.00,1.3275
5752.00,1.3291
5751.00,1.3301
5750.00,1.3307
5749.00,1.3311
5748.00,1.3311
5747.00,1.3306
5746.00,1.3298
5745.00,1.3285
5744.00,1.3268
5743.00,1.3246
5742.00,1.3221
5741.00,1.3193
5740.00,1.3159
5739.00,1.3120
5738.00,1.3076
5737.00,1.3026
5736.00,1.2970
5735.00,1.2908
5734.00,1.2840
5733.00,1.2768
5732.00,1.2691
5731.00,1.2611
5730.00,1.2527
5729.00,1.2439
5728.00,1.2346
5727.00,1.2247
5726.00,1.2144
5725.00,1.2037
5724.00,1.1928
5723.00,1.1814
5722.00,1.1696
5721.00,1.1574
5720.00,1.1450
5719.00,1.1321
5718.00,1.1189
5717.00,1.1057
5716.00,1.0923
5715.00,1.0783
5714.00,1.0637
5713.00,1.0486
5712.00,1.0334
5711.00,1.0184
5710.00,1.0035
5709.00,0.9887
5708.00,0.9741
5707.00,0.9596
5706.00,0.9451
5705.00,0.9306
5704.00,0.9162
5703.00,0.9023
5702.00,0.8888
5701.00,0.8758
5700.00,0.8633
5699.00,0.8514
5698.00,0.8401
5697.00,0.8295
5696.00,0.8194
5695.00,0.8101
5694.00,0.8016
5693.00,0.7939
5692.00,0.7872
5691.00,0.7813
5690.00,0.7764
5689.00,0.7724
5688.00,0.7692
5687.00,0.7669
5686.00,0.7657
5685.00,0.7654
5684.00,0.7661
5683.00,0.7679
5682.00,0.7708
5681.00,0.7747
5680.00,0.7795
5679.00,0.7852
5678.00,0.7917
5677.00,0.7991
5676.00,0.8073
5675.00,0.8163
5674.00,0.8260
5673.00,0.8364
5672.00,0.8473
5671.00,0.8588
5670.00,0.8707
5669.00,0.8830
5668.00,0.8957
5667.00,0.9089
5666.00,0.9223
5665.00,0.9360
5664.00,0.9498
5663.00,0.9636
5662.00,0.9775
5661.00,0.9914
5660.00,1.0055
5659.00,1.0195
5658.00,1.0335
5657.00,1.0473
5656.00,1.0610
5655.00,1.0744
5654.00,1.0876
5653.00,1.1008
5652.00,1.1138
5651.00,1.1268
5650.00,1.1397
5649.00,1.1524
5648.00,1.1644
5647.00,1.1758
5646.00,1.1866
5645.00,1.1971
5644.00,1.2074
5643.00,1.2176
5642.00,1.2276
5641.00,1.2372
5640.00,1.2465
5639.00,1.2551
5638.00,1.2630
5637.00,1.2704
5636.00,1.2774
5635.00,1.2840
5634.00,1.2902
5633.00,1.2959
5632.00,1.3012
5631.00,1.3061
5630.00,1.3106
5629.00,1.3146
5628.00,1.3181
5627.00,1.3209
5626.00,1.3232
5625.00,1.3250
5624.00,1.3266
5623.00,1.3278
5622.00,1.3286
5621.00,1.3290
5620.00,1.3292
5619.00,1.3290
5618.00,1.3282
5617.00,1.3267
5616.00,1.3245
5615.00,1.3219
5614.00,1.3189
5613.00,1.3156
5612.00,1.3120
5611.00,1.3082
5610.00,1.3041
5609.00,1.2998
5608.00,1.2949
5607.00,1.2894
5606.00,1.2834
5605.00,1.2770
5604.00,1.2705
5603.00,1.2639
5602.00,1.2570
5601.00,1.2496
5600.00,1.2416
5599.00,1.2327
5598.00,1.2231
5597.00,1.2128
5596.00,1.2022
5595.00,1.1913
5594.00,1.1803
5593.00,1.1690
5592.00,1.1571
5591.00,1.1444
5590.00,1.1311
5589.00,1.1175
5588.00,1.1037
5587.00,1.0896
5586.00,1.0752
5585.00,1.0607
5584.00,1.0461
5583.00,1.0312
5582.00,1.0160
5581.00,1.0007
5580.00,0.9855
5579.00,0.9703
5578.00,0.9552
5577.00,0.9402
5576.00,0.9253
5575.00,0.9108
5574.00,0.8967
5573.00,0.8830
5572.00,0.8698
5571.00,0.8570
5570.00,0.8446
5569.00,0.8328
5568.00,0.8215
5567.00,0.8110
5566.00,0.8014
5565.00,0.7928
5564.00,0.7850
5563.00,0.7782
5562.00,0.7723
5561.00,0.7674
5560.00,0.7633
5559.00,0.7603
5558.00,0.7583
5557.00,0.7574
5556.00,0.7575
5555.00,0.7585
5554.00,0.7606
5553.00,0.7639
5552.00,0.7683
5551.00,0.7737
5550.00,0.7802
5549.00,0.7875
5548.00,0.7956
5547.00,0.8044
5546.00,0.8140
5545.00,0.8242
5544.00,0.8352
5543.00,0.8468
5542.00,0.8589
5541.00,0.8716
5540.00,0.8847
5539.00,0.8981
5538.00,0.9120
5537.00,0.9261
5536.00,0.9405
5535.00,0.9550
5534.00,0.9696
5533.00,0.9844
5532.00,0.9993
5531.00,1.0141
5530.00,1.0288
5529.00,1.0433
5528.00,1.0578
5527.00,1.0720
5526.00,1.0862
5525.00,1.1002
5524.00,1.1142
5523.00,1.1278
5522.00,1.1412
5521.00,1.1542
5520.00,1.1669
5519.00,1.1792
5518.00,1.1913
5517.00,1.2030
5516.00,1.2144
5515.00,1.2255
5514.00,1.2363
5513.00,1.2468
5512.00,1.2566
5511.00,1.2658
5510.00,1.2745
5509.00,1.2828
5508.00,1.2909
5507.00,1.2986
5506.00,1.3060
5505.00,1.3130
5504.00,1.3195
5503.00,1.3254
5502.00,1.3309
5501.00,1.3359
5500.00,1.3405
5499.00,1.3446
5498.00,1.3483
5497.00,1.3514
5496.00,1.3539
5495.00,1.3558
5494.00,1.3575
5493.00,1.3589
5492.00,1.3601
5491.00,1.3607
5490.00,1.3607
5489.00,1.3603
5488.00,1.3593
5487.00,1.3578
5486.00,1.3559
5485.00,1.3537
5484.00,1.3510
5483.00,1.3478
5482.00,1.3437
5481.00,1.3390
5480.00,1.3339
5479.00,1.3284
5478.00,1.3227
5477.00,1.3166
5476.00,1.3101
5475.00,1.3031
5474.00,1.2955
5473.00,1.2872
5472.00,1.2783
5471.00,1.2688
5470.00,1.2587
5469.00,1.2481
5468.00,1.2372
5467.00,1.2260
5466.00,1.2145
5465.00,1.2028
5464.00,1.1907
5463.00,1.1781
5462.00,1.1648
5461.00,1.1509
5460.00,1.1365
5459.00,1.1216
5458.00,1.1065
5457.00,1.0911
5456.00,1.0753
5455.00,1.0593
5454.00,1.0432
5453.00,1.0271
5452.00,1.0109
5451.00,0.9946
5450.00,0.9784
5449.00,0.9623
5448.00,0.9463
5447.00,0.9306
5446.00,0.9151
5445.00,0.9000
5444.00,0.8853
5443.00,0.8710
5442.00,0.8570
5441.00,0.8437
5440.00,0.8311
5439.00,0.8193
5438.00,0.8085
5437.00,0.7985
5436.00,0.7893
5435.00,0.7810
5434.00,0.7735
5433.00,0.7671
5432.00,0.7618
5431.00,0.7576
5430.00,0.7545
5429.00,0.7525
5428.00,0.7515
5427.00,0.7516
5426.00,0.7527
5425.00,0.7548
5424.00,0.7580
5423.00,0.7623
5422.00,0.7677
5421.00,0.7742
5420.00,0.7817
5419.00,0.7900
5418.00,0.7991
5417.00,0.8089
5416.00,0.8194
5415.00,0.8305
5414.00,0.8424
5413.00,0.8550
5412.00,0.8681
5411.00,0.8816
5410.00,0.8955
5409.00,0.9096
5408.00,0.9241
5407.00,0.9389
5406.00,0.9538
5405.00,0.9686
5404.00,0.9833
5403.00,0.9982
5402.00,1.0130
5401.00,1.0279
5400.00,1.0425
5399.00,1.0570
5398.00,1.0714
5397.00,1.0857
5396.00,1.0999
5395.00,1.1141
5394.00,1.1284
5393.00,1.1426
5392.00,1.1565
5391.00,1.1698
5390.00,1.1825
5389.00,1.1947
5388.00,1.2064
5387.00,1.2178
5386.00,1.2292
5385.00,1.2405
5384.00,1.2515
5383.00,1.2621
5382.00,1.2722
5381.00,1.2817
5380.00,1.2905
5379.00,1.2986
5378.00,1.3064
5377.00,1.3139
5376.00,1.3212
5375.00,1.3283
5374.00,1.3348
5373.00,1.3408
5372.00,1.3464
5371.00,1.3517
5370.00,1.3567
5369.00,1.3612
5368.00,1.3651
5367.00,1.3680
5366.00,1.3701
5365.00,1.3716
5364.00,1.3729
5363.00,1.3743
5362.00,1.3755
5361.00,1.3762
5360.00,1.3762
5359.00,1.3755
5358.00,1.3742
5357.00,1.3724
5356.00,1.3701
5355.00,1.3675
5354.00,1.3644
5353.00,1.3605
5352.00,1.3559
5351.00,1.3508
5350.00,1.3454
5349.00,1.3395
5348.00,1.3333
5347.00,1.3266
5346.00,1.3194
5345.00,1.3117
5344.00,1.3035
5343.00,1.2949
5342.00,1.2858
5341.00,1.2762
5340.00,1.2660
5339.00,1.2551
5338.00,1.2436
5337.00,1.2314
5336.00,1.2187
5335.00,1.2057
5334.00,1.1923
5333.00,1.1783
5332.00,1.1639
5331.00,1.1493
5330.00,1.1344
5329.00,1.1191
5328.00,1.1035
5327.00,1.0876
5326.00,1.0713
5325.00,1.0548
5324.00,1.0381
5323.00,1.0212
5322.00,1.0044
5321.00,0.9876
5320.00,0.9709
5319.00,0.9544
5318.00,0.9382
5317.00,0.9222
5316.00,0.9064
5315.00,0.8911
5314.00,0.8764
5313.00,0.8624
5312.00,0.8490
5311.00,0.8363
5310.00,0.8242
5309.00,0.8130
5308.00,0.8025
5307.00,0.7929
5306.00,0.7844
5305.00,0.7771
5304.00,0.7709
5303.00,0.7658
5302.00,0.7618
5301.00,0.7589
5300.00,0.7571
5299.00,0.7565
5298.00,0.7572
5297.00,0.7591
5296.00,0.7622
5295.00,0.7664
5294.00,0.7717
5293.00,0.7780
5292.00,0.7854
5291.00,0.7938
5290.00,0.8034
5289.00,0.8138
5288.00,0.8249
5287.00,0.8367
5286.00,0.8492
5285.00,0.8622
5284.00,0.8759
5283.00,0.8900
5282.00,0.9046
5281.00,0.9195
5280.00,0.9348
5279.00,0.9504
5278.00,0.9663
5277.00,0.9824
5276.00,0.9984
5275.00,1.0143
5274.00,1.0302
5273.00,1.0461
5272.00,1.0618
5271.00,1.0775
5270.00,1.0930
5269.00,1.1083
5268.00,1.1234
5267.00,1.1382
5266.00,1.1529
5265.00,1.1675
5264.00,1.1816
5263.00,1.1954
5262.00,1.2088
5261.00,1.2219
5260.00,1.2345
5259.00,1.2466
5258.00,1.2583
5257.00,1.2696
5256.00,1.2806
5255.00,1.2914
5254.00,1.3019
5253.00,1.3120
5252.00,1.3214
5251.00,1.3300
5250.00,1.3381
5249.00,1.3459
5248.00,1.3534
5247.00,1.3605
5246.00,1.3672
5245.00,1.3734
5244.00,1.3790
5243.00,1.3840
5242.00,1.3885
5241.00,1.3927
5240.00,1.3965
5239.00,1.3996
5238.00,1.4020
5237.00,1.4037
5236.00,1.4049
5235.00,1.4056
5234.00,1.4059
5233.00,1.4058
5232.00,1.4054
5231.00,1.4046
5230.00,1.4035
5229.00,1.4022
5228.00,1.4006
5227.00,1.3985
5226.00,1.3957
5225.00,1.3922
5224.00,1.3878
5223.00,1.3827
5222.00,1.3774
5221.00,1.3719
5220.00,1.3659
5219.00,1.3594
5218.00,1.3523
5217.00,1.3448
5216.00,1.3367
5215.00,1.3282
5214.00,1.3191
5213.00,1.3095
5212.00,1.2995
5211.00,1.2890
5210.00,1.2780
5209.00,1.2664
5208.00,1.2542
5207.00,1.2414
5206.00,1.2280
5205.00,1.2142
5204.00,1.1999
5203.00,1.1853
5202.00,1.1702
5201.00,1.1548
5200.00,1.1389
5199.00,1.1228
5198.00,1.1063
5197.00,1.0895
5196.00,1.0724
5195.00,1.0552
5194.00,1.0378
5193.00,1.0204
5192.00,1.0029
5191.00,0.9855
5190.00,0.9682
5189.00,0.9511
5188.00,0.9344
5187.00,0.9180
5186.00,0.9020
5185.00,0.8865
5184.00,0.8715
5183.00,0.8571
5182.00,0.8434
5181.00,0.8306
5180.00,0.8186
5179.00,0.8075
5178.00,0.7973
5177.00,0.7882
5176.00,0.7801
5175.00,0.7732
5174.00,0.7673
5173.00,0.7627
5172.00,0.7592
5171.00,0.7569
5170.00,0.7559
5169.00,0.7562
5168.00,0.7577
5167.00,0.7603
5166.00,0.7642
5165.00,0.7693
5164.00,0.7755
5163.00,0.7829
5162.00,0.7913
5161.00,0.8008
5160.00,0.8111
5159.00,0.8223
5158.00,0.8342
5157.00,0.8469
5156.00,0.8602
5155.00,0.8741
5154.00,0.8886
5153.00,0.9037
5152.00,0.9192
5151.00,0.9350
5150.00,0.9510
5149.00,0.9672
5148.00,0.9836
5147.00,1.0000
5146.00,1.0166
5145.00,1.0331
5144.00,1.0496
5143.00,1.0660
5142.00,1.0820
5141.00,1.0979
5140.00,1.1136
5139.00,1.1292
5138.00,1.1446
5137.00,1.1598
5136.00,1.1746
5135.00,1.1890
5134.00,1.2030
5133.00,1.2167
5132.00,1.2301
5131.00,1.2432
5130.00,1.2561
5129.00,1.2686
5128.00,1.2806
5127.00,1.2920
5126.00,1.3029
5125.00,1.3134
5124.00,1.3237
5123.00,1.3338
5122.00,1.3435
5121.00,1.3528
5120.00,1.3614
5119.00,1.3692
5118.00,1.3762
5117.00,1.3827
5116.00,1.3888
5115.00,1.3947
5114.00,1.4002
5113.00,1.4052
5112.00,1.4096
5111.00,1.4135
5110.00,1.4170
5109.00,1.4200
5108.00,1.4226
5107.00,1.4247
5106.00,1.4263
5105.00,1.4274
5104.00,1.4277
5103.00,1.4274
5102.00,1.4267
5101.00,1.4255
5100.00,1.4239
5099.00,1.4219
5098.00,1.4194
5097.00,1.4164
5096.00,1.4130
5095.00,1.4093
5094.00,1.4053
5093.00,1.4007
5092.00,1.3955
5091.00,1.3894
5090.00,1.3825
5089.00,1.3750
5088.00,1.3672
5087.00,1.3591
5086.00,1.3506
5085.00,1.3416
5084.00,1.3319
5083.00,1.3215
5082.00,1.3106
5081.00,1.2993
5080.00,1.2877
5079.00,1.2756
5078.00,1.2631
5077.00,1.2500
5076.00,1.2364
5075.00,1.2221
5074.00,1.2072
5073.00,1.1918
5072.00,1.1757
5071.00,1.1590
5070.00,1.1418
5069.00,1.1242
5068.00,1.1064
5067.00,1.0884
5066.00,1.0703
5065.00,1.0522
5064.00,1.0340
5063.00,1.0157
5062.00,0.9975
5061.00,0.9794
5060.00,0.9614
5059.00,0.9436
5058.00,0.9262
5057.00,0.9092
5056.00,0.8928
5055.00,0.8769
5054.00,0.8617
5053.00,0.8473
5052.00,0.8337
5051.00,0.8209
5050.00,0.8092
5049.00,0.7986
5048.00,0.7891
5047.00,0.7807
5046.00,0.7735
5045.00,0.7676
5044.00,0.7629
5043.00,0.7595
5042.00,0.7575
5041.00,0.7568
5040.00,0.7575
5039.00,0.7596
5038.00,0.7629
5037.00,0.7676
5036.00,0.7736
5035.00,0.7809
5034.00,0.7892
5033.00,0.7987
5032.00,0.8092
5031.00,0.8207
5030.00,0.8331
5029.00,0.8464
5028.00,0.8603
5027.00,0.8749
5026.00,0.8901
5025.00,0.9059
5024.00,0.9221
5023.00,0.9387
5022.00,0.9556
5021.00,0.9726
5020.00,0.9896
5019.00,1.0067
5018.00,1.0240
5017.00,1.0415
5016.00,1.0589
5015.00,1.0762
5014.00,1.0933
5013.00,1.1102
5012.00,1.1269
5011.00,1.1433
5010.00,1.1595
5009.00,1.1755
5008.00,1.1912
5007.00,1.2067
5006.00,1.2219
5005.00,1.2367
5004.00,1.2510
5003.00,1.2647
5002.00,1.2780
5001.00,1.2908
5000.00,1.3031
4999.00,1.3152
4998.00,1.3270
4997.00,1.3384
4996.00,1.3492
4995.00,1.3594
4994.00,1.3689
4993.00,1.3778
4992.00,1.3863
4991.00,1.3945
4990.00,1.4022
4989.00,1.4095
4988.00,1.4161
4987.00,1.4222
4986.00,1.4278
4985.00,1.4330
4984.00,1.4377
4983.00,1.4419
4982.00,1.4455
4981.00,1.4486
4980.00,1.4511
4979.00,1.4531
4978.00,1.4544
4977.00,1.4552
4976.00,1.4556
4975.00,1.4558
4974.00,1.4557
4973.00,1.4552
4972.00,1.4542
4971.00,1.4525
4970.00,1.4500
4969.00,1.4467
4968.00,1.4426
4967.00,1.4381
4966.00,1.4335
4965.00,1.4287
4964.00,1.4237
4963.00,1.4182
4962.00,1.4120
4961.00,1.4051
4960.00,1.3976
4959.00,1.3895
4958.00,1.3809
4957.00,1.3718
4956.00,1.3622
4955.00,1.3520
4954.00,1.3413
4953.00,1.3301
4952.00,1.3182
4951.00,1.3056
4950.00,1.2924
4949.00,1.2787
4948.00,1.2645
4947.00,1.2497
4946.00,1.2344
4945.00,1.2186
4944.00,1.2021
4943.00,1.1852
4942.00,1.1679
4941.00,1.1502
4940.00,1.1322
4939.00,1.1137
4938.00,1.0950
4937.00,1.0760
4936.00,1.0569
4935.00,1.0376
4934.00,1.0182
4933.00,0.9988
4932.00,0.9794
4931.00,0.9602
4930.00,0.9413
4929.00,0.9229
4928.00,0.9050
4927.00,0.8877
4926.00,0.8711
4925.00,0.8552
4924.00,0.8401
4923.00,0.8259
4922.00,0.8127
4921.00,0.8006
4920.00,0.7896
4919.00,0.7798
4918.00,0.7711
4917.00,0.7637
4916.00,0.7577
4915.00,0.7531
4914.00,0.7500
4913.00,0.7483
4912.00,0.7481
4911.00,0.7493
4910.00,0.7520
4909.00,0.7562
4908.00,0.7617
4907.00,0.7686
4906.00,0.7768
4905.00,0.7862
4904.00,0.7967
4903.00,0.8084
4902.00,0.8211
4901.00,0.8346
4900.00,0.8489
4899.00,0.8640
4898.00,0.8798
4897.00,0.8962
4896.00,0.9131
4895.00,0.9304
4894.00,0.9480
4893.00,0.9658
4892.00,0.9838
4891.00,1.0020
4890.00,1.0203
4889.00,1.0387
4888.00,1.0570
4887.00,1.0751
4886.00,1.0932
4885.00,1.1111
4884.00,1.1288
4883.00,1.1462
4882.00,1.1632
4881.00,1.1799
4880.00,1.1962
4879.00,1.2123
4878.00,1.2281
4877.00,1.2437
4876.00,1.2591
4875.00,1.2741
4874.00,1.2886
4873.00,1.3026
4872.00,1.3160
4871.00,1.3289
4870.00,1.3411
4869.00,1.3528
4868.00,1.3640
4867.00,1.3747
4866.00,1.3849
4865.00,1.3945
4864.00,1.4037
4863.00,1.4126
4862.00,1.4211
4861.00,1.4292
4860.00,1.4367
4859.00,1.4438
4858.00,1.4503
4857.00,1.4562
4856.00,1.4615
4855.00,1.4661
4854.00,1.4701
4853.00,1.4734
4852.00,1.4762
4851.00,1.4786
4850.00,1.4808
4849.00,1.4826
4848.00,1.4839
4847.00,1.4846
4846.00,1.4845
4845.00,1.4836
4844.00,1.4822
4843.00,1.4805
4842.00,1.4788
4841.00,1.4768
4840.00,1.4745
4839.00,1.4714
4838.00,1.4674
4837.00,1.4627
4836.00,1.4574
4835.00,1.4517
4834.00,1.4457
4833.00,1.4393
4832.00,1.4324
4831.00,1.4249
4830.00,1.4168
4829.00,1.4080
4828.00,1.3987
4827.00,1.3888
4826.00,1.3783
4825.00,1.3671
4824.00,1.3554
4823.00,1.3430
4822.00,1.3300
4821.00,1.3164
4820.00,1.3022
4819.00,1.2876
4818.00,1.2726
4817.00,1.2571
4816.00,1.2410
4815.00,1.2242
4814.00,1.2068
4813.00,1.1888
4812.00,1.1704
4811.00,1.1516
4810.00,1.1324
4809.00,1.1129
4808.00,1.0929
4807.00,1.0727
4806.00,1.0524
4805.00,1.0321
4804.00,1.0118
4803.00,0.9917
4802.00,0.9719
4801.00,0.9523
4800.00,0.9332
4799.00,0.9146
4798.00,0.8966
4797.00,0.8792
4796.00,0.8627
4795.00,0.8471
4794.00,0.8325
4793.00,0.8191
4792.00,0.8067
4791.00,0.7955
4790.00,0.7855
4789.00,0.7769
4788.00,0.7697
4787.00,0.7640
4786.00,0.7599
4785.00,0.7574
4784.00,0.7565
4783.00,0.7572
4782.00,0.7593
4781.00,0.7630
4780.00,0.7681
4779.00,0.7747
4778.00,0.7827
4777.00,0.7922
4776.00,0.8029
4775.00,0.8149
4774.00,0.8279
4773.00,0.8420
4772.00,0.8569
4771.00,0.8727
4770.00,0.8892
4769.00,0.9062
4768.00,0.9237
4767.00,0.9416
4766.00,0.9599
4765.00,0.9787
4764.00,0.9977
4763.00,1.0169
4762.00,1.0361
4761.00,1.0552
4760.00,1.0741
4759.00,1.0930
4758.00,1.1118
4757.00,1.1305
4756.00,1.1490
4755.00,1.1672
4754.00,1.1850
4753.00,1.2026
4752.00,1.2198
4751.00,1.2365
4750.00,1.2529
4749.00,1.2689
4748.00,1.2846
4747.00,1.2999
4746.00,1.3147
4745.00,1.3291
4744.00,1.3429
4743.00,1.3562
4742.00,1.3690
4741.00,1.3813
4740.00,1.3930
4739.00,1.4043
4738.00,1.4151
4737.00,1.4255
4736.00,1.4352
4735.00,1.4443
4734.00,1.4527
4733.00,1.4605
4732.00,1.4679
4731.00,1.4749
4730.00,1.4814
4729.00,1.4875
4728.00,1.4931
4727.00,1.4981
4726.00,1.5025
4725.00,1.5063
4724.00,1.5093
4723.00,1.5117
4722.00,1.5136
4721.00,1.5153
4720.00,1.5167
4719.00,1.5177
4718.00,1.5183
4717.00,1.5182
4716.00,1.5174
4715.00,1.5160
4714.00,1.5140
4713.00,1.5115
4712.00,1.5084
4711.00,1.5049
4710.00,1.5009
4709.00,1.4964
4708.00,1.4913
4707.00,1.4856
4706.00,1.4794
4705.00,1.4727
4704.00,1.4654
4703.00,1.4577
4702.00,1.4496
4701.00,1.4408
4700.00,1.4314
4699.00,1.4214
4698.00,1.4109
4697.00,1.3999
4696.00,1.3886
4695.00,1.3767
4694.00,1.3643
4693.00,1.3511
4692.00,1.3372
4691.00,1.3227
4690.00,1.3077
4689.00,1.2923
4688.00,1.2763
4687.00,1.2598
4686.00,1.2427
4685.00,1.2250
4684.00,1.2069
4683.00,1.1884
4682.00,1.1695
4681.00,1.1504
4680.00,1.1310
4679.00,1.1113
4678.00,1.0914
4677.00,1.0713
4676.00,1.0512
4675.00,1.0311
4674.00,1.0112
4673.00,0.9916
4672.00,0.9722
4671.00,0.9531
4670.00,0.9345
4669.00,0.9164
4668.00,0.8989
4667.00,0.8821
4666.00,0.8662
4665.00,0.8512
4664.00,0.8374
4663.00,0.8247
4662.00,0.8132
4661.00,0.8029
4660.00,0.7939
4659.00,0.7863
4658.00,0.7802
4657.00,0.7757
4656.00,0.7729
4655.00,0.7716
4654.00,0.7720
4653.00,0.7740
4652.00,0.7776
4651.00,0.7828
4650.00,0.7896
4649.00,0.7980
4648.00,0.8078
4647.00,0.8190
4646.00,0.8315
4645.00,0.8451
4644.00,0.8598
4643.00,0.8753
4642.00,0.8918
4641.00,0.9090
4640.00,0.9269
4639.00,0.9453
4638.00,0.9642
4637.00,0.9833
4636.00,1.0027
4635.00,1.0223
4634.00,1.0422
4633.00,1.0622
4632.00,1.0822
4631.00,1.1021
4630.00,1.1217
4629.00,1.1410
4628.00,1.1601
4627.00,1.1789
4626.00,1.1976
4625.00,1.2161
4624.00,1.2343
4623.00,1.2521
4622.00,1.2696
4621.00,1.2865
4620.00,1.3031
4619.00,1.3191
4618.00,1.3348
4617.00,1.3500
4616.00,1.3647
4615.00,1.3788
4614.00,1.3925
4613.00,1.4055
4612.00,1.4179
4611.00,1.4298
4610.00,1.4412
4609.00,1.4521
4608.00,1.4624
4607.00,1.4721
4606.00,1.4811
4605.00,1.4892
4604.00,1.4968
4603.00,1.5038
4602.00,1.5105
4601.00,1.5166
4600.00,1.5221
4599.00,1.5272
4598.00,1.5318
4597.00,1.5362
4596.00,1.5403
4595.00,1.5440
4594.00,1.5471
4593.00,1.5495
4592.00,1.5511
4591.00,1.5520
4590.00,1.5523
4589.00,1.5522
4588.00,1.5516
4587.00,1.5507
4586.00,1.5492
4585.00,1.5472
4584.00,1.5445
4583.00,1.5415
4582.00,1.5381
4581.00,1.5344
4580.00,1.5302
4579.00,1.5255
4578.00,1.5202
4577.00,1.5142
4576.00,1.5074
4575.00,1.5000
4574.00,1.4921
4573.00,1.4837
4572.00,1.4748
4571.00,1.4654
4570.00,1.4552
4569.00,1.4443
4568.00,1.4328
4567.00,1.4209
4566.00,1.4085
4565.00,1.3957
4564.00,1.3821
4563.00,1.3676
4562.00,1.3523
4561.00,1.3363
4560.00,1.3197
4559.00,1.3026
4558.00,1.2849
4557.00,1.2666
4556.00,1.2476
4555.00,1.2281
4554.00,1.2080
4553.00,1.1874
4552.00,1.1664
4551.00,1.1450
4550.00,1.1232
4549.00,1.1011
4548.00,1.0789
4547.00,1.0565
4546.00,1.0342
4545.00,1.0119
4544.00,0.9901
4543.00,0.9687
4542.00,0.9479
4541.00,0.9277
4540.00,0.9082
4539.00,0.8895
4538.00,0.8717
4537.00,0.8550
4536.00,0.8395
4535.00,0.8254
4534.00,0.8126
4533.00,0.8012
4532.00,0.7913
4531.00,0.7831
4530.00,0.7765
4529.00,0.7717
4528.00,0.7687
4527.00,0.7675
4526.00,0.7681
4525.00,0.7705
4524.00,0.7747
4523.00,0.7805
4522.00,0.7881
4521.00,0.7974
4520.00,0.8082
4519.00,0.8205
4518.00,0.8341
4517.00,0.8489
4516.00,0.8647
4515.00,0.8817
4514.00,0.8995
4513.00,0.9182
4512.00,0.9376
4511.00,0.9574
4510.00,0.9776
4509.00,0.9981
4508.00,1.0189
4507.00,1.0399
4506.00,1.0610
4505.00,1.0821
4504.00,1.1030
4503.00,1.1238
4502.00,1.1445
4501.00,1.1650
4500.00,1.1852
4499.00,1.2052
4498.00,1.2249
4497.00,1.2442
4496.00,1.2631
4495.00,1.2816
4494.00,1.2997
4493.00,1.3174
4492.00,1.3345
4491.00,1.3511
4490.00,1.3670
4489.00,1.3822
4488.00,1.3970
4487.00,1.4115
4486.00,1.4256
4485.00,1.4394
4484.00,1.4526
4483.00,1.4650
4482.00,1.4765
4481.00,1.4872
4480.00,1.4973
4479.00,1.5068
4478.00,1.5159
4477.00,1.5245
4476.00,1.5325
4475.00,1.5399
4474.00,1.5467
4473.00,1.5528
4472.00,1.5584
4471.00,1.5636
4470.00,1.5683
4469.00,1.5726
4468.00,1.5764
4467.00,1.5797
4466.00,1.5824
4465.00,1.5846
4464.00,1.5864
4463.00,1.5876
4462.00,1.5882
4461.00,1.5880
4460.00,1.5874
4459.00,1.5864
4458.00,1.5851
4457.00,1.5832
4456.00,1.5806
4455.00,1.5772
4454.00,1.5733
4453.00,1.5690
4452.00,1.5642
4451.00,1.5589
4450.00,1.5530
4449.00,1.5465
4448.00,1.5394
4447.00,1.5318
4446.00,1.5236
4445.00,1.5148
4444.00,1.5056
4443.00,1.4959
4442.00,1.4857
4441.00,1.4748
4440.00,1.4631
4439.00,1.4505
4438.00,1.4372
4437.00,1.4234
4436.00,1.4091
4435.00,1.3943
4434.00,1.3790
4433.00,1.3628
4432.00,1.3457
4431.00,1.3279
4430.00,1.3095
4429.00,1.2906
4428.00,1.2712
4427.00,1.2513
4426.00,1.2308
4425.00,1.2097
4424.00,1.1880
4423.00,1.1660
4422.00,1.1437
4421.00,1.1214
4420.00,1.0991
4419.00,1.0768
4418.00,1.0546
4417.00,1.0326
4416.00,1.0110
4415.00,0.9899
4414.00,0.9694
4413.00,0.9496
4412.00,0.9309
4411.00,0.9132
4410.00,0.8966
4409.00,0.8814
4408.00,0.8675
4407.00,0.8551
4406.00,0.8442
4405.00,0.8350
4404.00,0.8274
4403.00,0.8216
4402.00,0.8175
4401.00,0.8152
4400.00,0.8147
4399.00,0.8161
4398.00,0.8193
4397.00,0.8243
4396.00,0.8311
4395.00,0.8396
4394.00,0.8496
4393.00,0.8612
4392.00,0.8740
4391.00,0.8881
4390.00,0.9034
4389.00,0.9196
4388.00,0.9368
4387.00,0.9547
4386.00,0.9734
4385.00,0.9928
4384.00,1.0126
4383.00,1.0327
4382.00,1.0531
4381.00,1.0735
4380.00,1.0940
4379.00,1.1145
4378.00,1.1349
4377.00,1.1553
4376.00,1.1755
4375.00,1.1954
4374.00,1.2150
4373.00,1.2344
4372.00,1.2534
4371.00,1.2721
4370.00,1.2905
4369.00,1.3084
4368.00,1.3259
4367.00,1.3428
4366.00,1.3593
4365.00,1.3754
4364.00,1.3912
4363.00,1.4067
4362.00,1.4217
4361.00,1.4362
4360.00,1.4500
4359.00,1.4634
4358.00,1.4763
4357.00,1.4887
4356.00,1.5006
4355.00,1.5120
4354.00,1.5229
4353.00,1.5334
4352.00,1.5435
4351.00,1.5531
4350.00,1.5623
4349.00,1.5709
4348.00,1.5789
4347.00,1.5864
4346.00,1.5935
4345.00,1.6000
4344.00,1.6058
4343.00,1.6110
4342.00,1.6155
4341.00,1.6197
4340.00,1.6235
4339.00,1.6271
4338.00,1.6302
4337.00,1.6327
4336.00,1.6346
4335.00,1.6359
4334.00,1.6368
4333.00,1.6374
4332.00,1.6375
4331.00,1.6370
4330.00,1.6360
4329.00,1.6345
4328.00,1.6326
4327.00,1.6301
4326.00,1.6271
4325.00,1.6235
4324.00,1.6196
4323.00,1.6155
4322.00,1.6110
4321.00,1.6057
4320.00,1.5996
4319.00,1.5926
4318.00,1.5852
4317.00,1.5775
4316.00,1.5694
4315.00,1.5606
4314.00,1.5513
4313.00,1.5413
4312.00,1.5308
4311.00,1.5196
4310.00,1.5077
4309.00,1.4951
4308.00,1.4819
4307.00,1.4682
4306.00,1.4540
4305.00,1.4391
4304.00,1.4235
4303.00,1.4071
4302.00,1.3898
4301.00,1.3719
4300.00,1.3534
4299.00,1.3343
4298.00,1.3148
4297.00,1.2948
4296.00,1.2745
4295.00,1.2537
4294.00,1.2326
4293.00,1.2112
4292.00,1.1897
4291.00,1.1680
4290.00,1.1463
4289.00,1.1246
4288.00,1.1032
4287.00,1.0823
4286.00,1.0618
4285.00,1.0418
4284.00,1.0223
4283.00,1.0035
4282.00,0.9854
4281.00,0.9683
4280.00,0.9520
4279.00,0.9367
4278.00,0.9224
4277.00,0.9094
4276.00,0.8976
4275.00,0.8872
4274.00,0.8783
4273.00,0.8709
4272.00,0.8651
4271.00,0.8610
4270.00,0.8587
4269.00,0.8580
4268.00,0.8592
4267.00,0.8620
4266.00,0.8666
4265.00,0.8729
4264.00,0.8808
4263.00,0.8902
4262.00,0.9011
4261.00,0.9135
4260.00,0.9271
4259.00,0.9419
4258.00,0.9579
4257.00,0.9750
4256.00,0.9930
4255.00,1.0118
4254.00,1.0312
4253.00,1.0512
4252.00,1.0717
4251.00,1.0926
4250.00,1.1138
4249.00,1.1351
4248.00,1.1566
4247.00,1.1781
4246.00,1.1995
4245.00,1.2208
4244.00,1.2419
4243.00,1.2628
4242.00,1.2834
4241.00,1.3037
4240.00,1.3238
4239.00,1.3435
4238.00,1.3630
4237.00,1.3819
4236.00,1.4004
4235.00,1.4184
4234.00,1.4358
4233.00,1.4525
4232.00,1.4685
4231.00,1.4837
4230.00,1.4984
4229.00,1.5127
4228.00,1.5266
4227.00,1.5401
4226.00,1.5531
4225.00,1.5654
4224.00,1.5769
4223.00,1.5875
4222.00,1.5972
4221.00,1.6061
4220.00,1.6144
4219.00,1.6222
4218.00,1.6297
4217.00,1.6369
4216.00,1.6438
4215.00,1.6500
4214.00,1.6556
4213.00,1.6604
4212.00,1.6646
4211.00,1.6681
4210.00,1.6711
4209.00,1.6737
4208.00,1.6759
4207.00,1.6776
4206.00,1.6789
4205.00,1.6795
4204.00,1.6794
4203.00,1.6787
4202.00,1.6777
4201.00,1.6762
4200.00,1.6745
4199.00,1.6723
4198.00,1.6696
4197.00,1.6664
4196.00,1.6624
4195.00,1.6578
4194.00,1.6525
4193.00,1.6467
4192.00,1.6404
4191.00,1.6336
4190.00,1.6263
4189.00,1.6185
4188.00,1.6104
4187.00,1.6018
4186.00,1.5926
4185.00,1.5825
4184.00,1.5718
4183.00,1.5605
4182.00,1.5487
4181.00,1.5362
4180.00,1.5231
4179.00,1.5093
4178.00,1.4949
4177.00,1.4799
4176.00,1.4643
4175.00,1.4480
4174.00,1.4310
4173.00,1.4132
4172.00,1.3946
4171.00,1.3752
4170.00,1.3552
4169.00,1.3347
4168.00,1.3135
4167.00,1.2919
4166.00,1.2698
4165.00,1.2473
4164.00,1.2245
4163.00,1.2014
4162.00,1.1781
4161.00,1.1547
4160.00,1.1312
4159.00,1.1078
4158.00,1.0847
4157.00,1.0620
4156.00,1.0398
4155.00,1.0183
4154.00,0.9976
4153.00,0.9777
4152.00,0.9588
4151.00,0.9411
4150.00,0.9246
4149.00,0.9094
4148.00,0.8957
4147.00,0.8836
4146.00,0.8732
4145.00,0.8646
4144.00,0.8579
4143.00,0.8532
4142.00,0.8504
4141.00,0.8497
4140.00,0.8510
4139.00,0.8544
4138.00,0.8598
4137.00,0.8672
4136.00,0.8764
4135.00,0.8875
4134.00,0.9004
4133.00,0.9148
4132.00,0.9307
4131.00,0.9480
4130.00,0.9664
4129.00,0.9857
4128.00,1.0059
4127.00,1.0268
4126.00,1.0483
4125.00,1.0702
4124.00,1.0925
4123.00,1.1151
4122.00,1.1378
4121.00,1.1604
4120.00,1.1831
4119.00,1.2057
4118.00,1.2282
4117.00,1.2506
4116.00,1.2729
4115.00,1.2948
4114.00,1.3163
4113.00,1.3372
4112.00,1.3576
4111.00,1.3777
4110.00,1.3975
4109.00,1.4171
4108.00,1.4362
4107.00,1.4548
4106.00,1.4727
4105.00,1.4899
4104.00,1.5066
4103.00,1.5226
4102.00,1.5379
4101.00,1.5524
4100.00,1.5660
4099.00,1.5791
4098.00,1.5919
4097.00,1.6043
4096.00,1.6164
4095.00,1.6278
4094.00,1.6384
4093.00,1.6482
4092.00,1.6573
4091.00,1.6658
4090.00,1.6736
4089.00,1.6808
4088.00,1.6875
4087.00,1.6938
4086.00,1.6997
4085.00,1.7053
4084.00,1.7104
4083.00,1.7148
4082.00,1.7186
4081.00,1.7216
4080.00,1.7238
4079.00,1.7254
4078.00,1.7266
4077.00,1.7277
4076.00,1.7286
4075.00,1.7289
4074.00,1.7286
4073.00,1.7275
4072.00,1.7259
4071.00,1.7239
4070.00,1.7213
4069.00,1.7180
4068.00,1.7139
4067.00,1.7091
4066.00,1.7038
4065.00,1.6983
4064.00,1.6926
4063.00,1.6865
4062.00,1.6795
4061.00,1.6718
4060.00,1.6636
4059.00,1.6549
4058.00,1.6459
4057.00,1.6362
4056.00,1.6259
4055.00,1.6149
4054.00,1.6034
4053.00,1.5911
4052.00,1.5780
4051.00,1.5639
4050.00,1.5491
4049.00,1.5337
4048.00,1.5177
4047.00,1.5012
4046.00,1.4839
4045.00,1.4660
4044.00,1.4474
4043.00,1.4280
4042.00,1.4079
4041.00,1.3869
4040.00,1.3650
4039.00,1.3422
4038.00,1.3186
4037.00,1.2943
4036.00,1.2695
4035.00,1.2444
4034.00,1.2190
4033.00,1.1932
4032.00,1.1670
4031.00,1.1408
4030.00,1.1146
4029.00,1.0888
4028.00,1.0637
4027.00,1.0393
4026.00,1.0160
4025.00,0.9937
4024.00,0.9727
4023.00,0.9530
4022.00,0.9348
4021.00,0.9183
4020.00,0.9035
4019.00,0.8906
4018.00,0.8796
4017.00,0.8706
4016.00,0.8637
4015.00,0.8588
4014.00,0.8561
4013.00,0.8555
4012.00,0.8573
4011.00,0.8613
4010.00,0.8675
4009.00,0.8758
4008.00,0.8861
4007.00,0.8983
4006.00,0.9124
4005.00,0.9281
4004.00,0.9454
4003.00,0.9640
4002.00,0.9838
4001.00,1.0046
4000.00,1.0264
3999.00,1.0490
3998.00,1.0721
3997.00,1.0958
3996.00,1.1199
3995.00,1.1443
3994.00,1.1688
3993.00,1.1935
3992.00,1.2181
3991.00,1.2425
3990.00,1.2666
3989.00,1.2904
3988.00,1.3140
3987.00,1.3373
3986.00,1.3602
3985.00,1.3827
3984.00,1.4045
3983.00,1.4259
3982.00,1.4467
3981.00,1.4669
3980.00,1.4866
3979.00,1.5056
3978.00,1.5239
3977.00,1.5415
3976.00,1.5586
3975.00,1.5751
3974.00,1.5909
3973.00,1.6061
3972.00,1.6205
3971.00,1.6342
3970.00,1.6472
3969.00,1.6596
3968.00,1.6711
3967.00,1.6820
3966.00,1.6920
3965.00,1.7014
3964.00,1.7102
3963.00,1.7186
3962.00,1.7266
3961.00,1.7340
3960.00,1.7406
3959.00,1.7466
3958.00,1.7520
3957.00,1.7568
3956.00,1.7609
3955.00,1.7644
3954.00,1.7675
3953.00,1.7703
3952.00,1.7729
3951.00,1.7750
3950.00,1.7765
3949.00,1.7772
3948.00,1.7774
3947.00,1.7772
3946.00,1.7765
3945.00,1.7752
3944.00,1.7732
3943.00,1.7707
3942.00,1.7676
3941.00,1.7639
3940.00,1.7598
3939.00,1.7552
3938.00,1.7499
3937.00,1.7441
3936.00,1.7376
3935.00,1.7304
3934.00,1.7226
3933.00,1.7141
3932.00,1.7052
3931.00,1.6957
3930.00,1.6859
3929.00,1.6755
3928.00,1.6647
3927.00,1.6532
3926.00,1.6409
3925.00,1.6276
3924.00,1.6136
3923.00,1.5990
3922.00,1.5840
3921.00,1.5684
3920.00,1.5519
3919.00,1.5343
3918.00,1.5156
3917.00,1.4957
3916.00,1.4752
3915.00,1.4542
3914.00,1.4328
3913.00,1.4109
3912.00,1.3883
3911.00,1.3648
3910.00,1.3406
3909.00,1.3157
3908.00,1.2902
3907.00,1.2639
3906.00,1.2366
3905.00,1.2081
3904.00,1.1785
3903.00,1.1481
3902.00,1.1177
3901.00,1.0875
3900.00,1.0578
3899.00,1.0290
3898.00,1.0021
3897.00,0.9775
3896.00,0.9554
3895.00,0.9354
3894.00,0.9173
3893.00,0.9007
3892.00,0.8852
3891.00,0.8709
3890.00,0.8584
3889.00,0.8486
3888.00,0.8418
3887.00,0.8379
3886.00,0.8367
3885.00,0.8379
3884.00,0.8412
3883.00,0.8470
3882.00,0.8559
3881.00,0.8682
3880.00,0.8837
3879.00,0.9014
3878.00,0.9202
3877.00,0.9394
3876.00,0.9592
3875.00,0.9806
3874.00,1.0039
3873.00,1.0285
3872.00,1.0536
3871.00,1.0794
3870.00,1.1062
3869.00,1.1340
3868.00,1.1615
3867.00,1.1878
3866.00,1.2130
3865.00,1.2383
3864.00,1.2647
3863.00,1.2922
3862.00,1.3199
3861.00,1.3470
3860.00,1.3728
3859.00,1.3968
3858.00,1.4188
3857.00,1.4390
3856.00,1.4579
3855.00,1.4765
3854.00,1.4958
3853.00,1.5163
3852.00,1.5373
3851.00,1.5582
3850.00,1.5790
3849.00,1.5991
3848.00,1.6183
3847.00,1.6369
3846.00,1.6542
3845.00,1.6698
3844.00,1.6837
3843.00,1.6965
3842.00,1.7084
3841.00,1.7199
3840.00,1.7309
3839.00,1.7417
3838.00,1.7524
3837.00,1.7626
3836.00,1.7716
3835.00,1.7793
3834.00,1.7859
3833.00,1.7922
3832.00,1.7984
3831.00,1.8041
3830.00,1.8091
3829.00,1.8134
3828.00,1.8174
3827.00,1.8215
3826.00,1.8257
3825.00,1.8295
3824.00,1.8324
3823.00,1.8340
3822.00,1.8341
3821.00,1.8330
3820.00,1.8313
3819.00,1.8300
3818.00,1.8292
3817.00,1.8277
3816.00,1.8246
3815.00,1.8205
3814.00,1.8160
3813.00,1.8114
3812.00,1.8065
3811.00,1.8016
3810.00,1.7967
3809.00,1.7915
3808.00,1.7848
3807.00,1.7763
3806.00,1.7668
3805.00,1.7572
3804.00,1.7480
3803.00,1.7384
3802.00,1.7275
3801.00,1.7150
3800.00,1.7017
3799.00,1.6883
3798.00,1.6745
3797.00,1.6597
3796.00,1.6441
3795.00,1.6284
3794.00,1.6123
3793.00,1.5952
3792.00,1.5768
3791.00,1.5574
3790.00,1.5371
3789.00,1.5159
3788.00,1.4935
3787.00,1.4700
3786.00,1.4455
3785.00,1.4201
3784.00,1.3941
3783.00,1.3677
3782.00,1.3407
3781.00,1.3124
3780.00,1.2823
3779.00,1.2511
3778.00,1.2199
3777.00,1.1894
3776.00,1.1597
3775.00,1.1303
3774.00,1.1014
3773.00,1.0735
3772.00,1.0467
3771.00,1.0205
3770.00,0.9950
3769.00,0.9707
3768.00,0.9487
3767.00,0.9294
3766.00,0.9123
3765.00,0.8975
3764.00,0.8854
3763.00,0.8765
3762.00,0.8705
3761.00,0.8673
3760.00,0.8668
3759.00,0.8690
3758.00,0.8741
3757.00,0.8821
3756.00,0.8926
3755.00,0.9053
3754.00,0.9199
3753.00,0.9369
3752.00,0.9564
3751.00,0.9781
3750.00,1.0019
3749.00,1.0274
3748.00,1.0532
3747.00,1.0782
3746.00,1.1031
3745.00,1.1307
3744.00,1.1623
3743.00,1.1956
3742.00,1.2272
3741.00,1.2562
3740.00,1.2845
3739.00,1.3138
3738.00,1.3440
3737.00,1.3741
3736.00,1.4037
3735.00,1.4331
3734.00,1.4626
3733.00,1.4926
3732.00,1.5228
3731.00,1.5519
3730.00,1.5788
3729.00,1.6035
3728.00,1.6268
3727.00,1.6495
3726.00,1.6717
3725.00,1.6930
3724.00,1.7133
3723.00,1.7323
3722.00,1.7501
3721.00,1.7669
3720.00,1.7823
3719.00,1.7960
3718.00,1.8077
3717.00,1.8177
3716.00,1.8262
3715.00,1.8333
3714.00,1.8388
3713.00,1.8436
3712.00,1.8483
3711.00,1.8537
3710.00,1.8600
3709.00,1.8671
3708.00,1.8741
3707.00,1.8799
3706.00,1.8850
3705.00,1.8903
3704.00,1.8960
3703.00,1.9015
3702.00,1.9062
3701.00,1.9101
3700.00,1.9130
3699.00,1.9145
3698.00,1.9144
3697.00,1.9134
3696.00,1.9121
3695.00,1.9109
3694.00,1.9093
3693.00,1.9068
3692.00,1.9033
3691.00,1.8990
3690.00,1.8944
3689.00,1.8894
3688.00,1.8840
3687.00,1.8773
3686.00,1.8694
3685.00,1.8608
3684.00,1.8526
3683.00,1.8454
3682.00,1.8383
3681.00,1.8305
3680.00,1.8213
3679.00,1.8111
3678.00,1.7999
3677.00,1.7875
3676.00,1.7730
3675.00,1.7566
3674.00,1.7399
3673.00,1.7245
3672.00,1.7095
3671.00,1.6930
3670.00,1.6746
3669.00,1.6554
3668.00,1.6365
3667.00,1.6183
3666.00,1.6003
3665.00,1.5819
3664.00,1.5632
3663.00,1.5441
3662.00,1.5243
3661.00,1.5040
3660.00,1.4837
3659.00,1.4637
3658.00,1.4435
3657.00,1.4226
3656.00,1.4010
3655.00,1.3798
3654.00,1.3603
3653.00,1.3432
3652.00,1.3278
3651.00,1.3130
3650.00,1.2982
3649.00,1.2836
3648.00,1.2704
3647.00,1.2598
3646.00,1.2521
3645.00,1.2465
3644.00,1.2427
3643.00,1.2408
3642.00,1.2411
3641.00,1.2432
3640.00,1.2468
3639.00,1.2519
3638.00,1.2584
3637.00,1.2664
3636.00,1.2760
3635.00,1.2873
3634.00,1.2999
3633.00,1.3136
3632.00,1.3281
3631.00,1.3435
3630.00,1.3599
3629.00,1.3775
3628.00,1.3959
3627.00,1.4145
3626.00,1.4335
3625.00,1.4530
3624.00,1.4731
3623.00,1.4938
3622.00,1.5147
3621.00,1.5349
3620.00,1.5544
3619.00,1.5735
3618.00,1.5923
3617.00,1.6105
3616.00,1.6280
3615.00,1.6445
3614.00,1.6604
3613.00,1.6760
3612.00,1.6913
3611.00,1.7061
3610.00,1.7205
3609.00,1.7351
3608.00,1.7500
3607.00,1.7651
3606.00,1.7803
3605.00,1.7957
3604.00,1.8117
3603.00,1.8281
3602.00,1.8444
3601.00,1.8604
3600.00,1.8758
3599.00,1.8907
3598.00,1.9046
3597.00,1.9175
3596.00,1.9293
3595.00,1.9400
3594.00,1.9499
3593.00,1.9593
3592.00,1.9683
3591.00,1.9767
3590.00,1.9843
3589.00,1.9910
3588.00,1.9970
3587.00,2.0025
3586.00,2.0083
3585.00,2.0150
3584.00,2.0223
3583.00,2.0290
3582.00,2.0345
3581.00,2.0391
3580.00,2.0430
3579.00,2.0467
3578.00,2.0503
3577.00,2.0536
3576.00,2.0564
3575.00,2.0586
3574.00,2.0599
3573.00,2.0608
3572.00,2.0614
3571.00,2.0617
3570.00,2.0619
3569.00,2.0618
3568.00,2.0614
3567.00,2.0604
3566.00,2.0594
3565.00,2.0586
3564.00,2.0579
3563.00,2.0569
3562.00,2.0553
3561.00,2.0535
3560.00,2.0512
3559.00,2.0480
3558.00,2.0438
3557.00,2.0392
3556.00,2.0343
3555.00,2.0295
3554.00,2.0246
3553.00,2.0193
3552.00,2.0138
3551.00,2.0081
3550.00,2.0022
3549.00,1.9961
3548.00,1.9894
3547.00,1.9820
3546.00,1.9741
3545.00,1.9657
3544.00,1.9572
3543.00,1.9486
3542.00,1.9399
3541.00,1.9311
3540.00,1.9219
3539.00,1.9127
3538.00,1.9035
3537.00,1.8945
3536.00,1.8854
3535.00,1.8758
3534.00,1.8656
3533.00,1.8552
3532.00,1.8448
3531.00,1.8343
3530.00,1.8238
3529.00,1.8135
3528.00,1.8033
3527.00,1.7934
3526.00,1.7835
3525.00,1.7735
3524.00,1.7632
3523.00,1.7527
3522.00,1.7424
3521.00,1.7325
3520.00,1.7231
3519.00,1.7139
3518.00,1.7049
3517.00,1.6962
3516.00,1.6879
3515.00,1.6800
3514.00,1.6722
3513.00,1.6646
3512.00,1.6575
3511.00,1.6509
3510.00,1.6449
3509.00,1.6397
3508.00,1.6351
3507.00,1.6311
3506.00,1.6276
3505.00,1.6245
3504.00,1.6218
3503.00,1.6198
3502.00,1.6187
3501.00,1.6186
3500.00,1.6194
3499.00,1.6207
3498.00,1.6227
3497.00,1.6254
3496.00,1.6290
3495.00,1.6334
3494.00,1.6385
3493.00,1.6444
3492.00,1.6511
3491.00,1.6583
3490.00,1.6661
3489.00,1.6744
3488.00,1.6832
3487.00,1.6927
3486.00,1.7029
3485.00,1.7136
3484.00,1.7246
3483.00,1.7355
3482.00,1.7466
3481.00,1.7581
3480.00,1.7702
3479.00,1.7829
3478.00,1.7958
3477.00,1.8089
3476.00,1.8218
3475.00,1.8343
3474.00,1.8465
3473.00,1.8585
3472.00,1.8706
3471.00,1.8827
3470.00,1.8947
3469.00,1.9066
3468.00,1.9186
3467.00,1.9303
3466.00,1.9416
3465.00,1.9524
3464.00,1.9630
3463.00,1.9736
3462.00,1.9842
3461.00,1.9947
3460.00,2.0050
3459.00,2.0148
3458.00,2.0241
3457.00,2.0329
3456.00,2.0410
3455.00,2.0485
3454.00,2.0558
3453.00,2.0630
3452.00,2.0698
3451.00,2.0759
3450.00,2.0814
3449.00,2.0868
3448.00,2.0922
3447.00,2.0978
3446.00,2.1031
3445.00,2.1075
3444.00,2.1109
3443.00,2.1134
3442.00,2.1157
3441.00,2.1186
3440.00,2.1218
3439.00,2.1242
3438.00,2.1256
3437.00,2.1263
3436.00,2.1266
3435.00,2.1268
3434.00,2.1267
3433.00,2.1260
3432.00,2.1248
3431.00,2.1230
3430.00,2.1207
3429.00,2.1182
3428.00,2.1157
3427.00,2.1131
3426.00,2.1102
3425.00,2.1070
3424.00,2.1035
3423.00,2.1001
3422.00,2.0968
3421.00,2.0935
3420.00,2.0897
3419.00,2.0853
3418.00,2.0804
3417.00,2.0751
3416.00,2.0697
3415.00,2.0642
3414.00,2.0585
3413.00,2.0525
3412.00,2.0462
3411.00,2.0395
3410.00,2.0325
3409.00,2.0256
3408.00,2.0190
3407.00,2.0122
3406.00,2.0045
3405.00,1.9956
3404.00,1.9856
3403.00,1.9747
3402.00,1.9636
3401.00,1.9521
3400.00,1.9398
3399.00,1.9265
3398.00,1.9122
3397.00,1.8971
3396.00,1.8813
3395.00,1.8649
3394.00,1.8480
3393.00,1.8307
3392.00,1.8130
3391.00,1.7948
3390.00,1.7761
3389.00,1.7571
3388.00,1.7379
3387.00,1.7185
3386.00,1.6990
3385.00,1.6795
3384.00,1.6602
3383.00,1.6413
3382.00,1.6232
3381.00,1.6058
3380.00,1.5889
3379.00,1.5726
3378.00,1.5571
3377.00,1.5428
3376.00,1.5296
3375.00,1.5178
3374.00,1.5071
3373.00,1.4980
3372.00,1.4904
3371.00,1.4844
3370.00,1.4800
3369.00,1.4773
3368.00,1.4764
3367.00,1.4772
3366.00,1.4798
3365.00,1.4841
3364.00,1.4900
3363.00,1.4973
3362.00,1.5059
3361.00,1.5158
3360.00,1.5270
3359.00,1.5395
3358.00,1.5532
3357.00,1.5681
3356.00,1.5838
3355.00,1.6002
3354.00,1.6169
3353.00,1.6339
3352.00,1.6512
3351.00,1.6688
3350.00,1.6867
3349.00,1.7050
3348.00,1.7233
3347.00,1.7415
3346.00,1.7594
3345.00,1.7773
3344.00,1.7952
3343.00,1.8131
3342.00,1.8309
3341.00,1.8483
3340.00,1.8652
3339.00,1.8817
3338.00,1.8976
3337.00,1.9129
3336.00,1.9276
3335.00,1.9419
3334.00,1.9557
3333.00,1.9691
3332.00,1.9821
3331.00,1.9945
3330.00,2.0063
3329.00,2.0175
3328.00,2.0282
3327.00,2.0385
3326.00,2.0484
3325.00,2.0581
3324.00,2.0672
3323.00,2.0755
3322.00,2.0831
3321.00,2.0903
3320.00,2.0972
3319.00,2.1035
3318.00,2.1092
3317.00,2.1143
3316.00,2.1191
3315.00,2.1239
3314.00,2.1285
3313.00,2.1327
3312.00,2.1361
3311.00,2.1386
3310.00,2.1404
3309.00,2.1418
3308.00,2.1428
3307.00,2.1431
3306.00,2.1426
3305.00,2.1413
3304.00,2.1399
3303.00,2.1384
3302.00,2.1369
3301.00,2.1350
3300.00,2.1324
3299.00,2.1290
3298.00,2.1250
3297.00,2.1206
3296.00,2.1158
3295.00,2.1106
3294.00,2.1048
3293.00,2.0982
3292.00,2.0909
3291.00,2.0828
3290.00,2.0742
3289.00,2.0654
3288.00,2.0564
3287.00,2.0471
3286.00,2.0374
3285.00,2.0274
3284.00,2.0171
3283.00,2.0063
3282.00,1.9946
3281.00,1.9819
3280.00,1.9685
3279.00,1.9545
3278.00,1.9400
3277.00,1.9251
3276.00,1.9099
3275.00,1.8946
3274.00,1.8793
3273.00,1.8640
3272.00,1.8482
3271.00,1.8317
3270.00,1.8145
3269.00,1.7969
3268.00,1.7790
3267.00,1.7609
3266.00,1.7427
3265.00,1.7245
3264.00,1.7062
3263.00,1.6880
3262.00,1.6701
3261.00,1.6528
3260.00,1.6361
3259.00,1.6202
3258.00,1.6050
3257.00,1.5904
3256.00,1.5765
3255.00,1.5635
3254.00,1.5516
3253.00,1.5411
3252.00,1.5321
3251.00,1.5246
3250.00,1.5183
3249.00,1.5133
3248.00,1.5097
3247.00,1.5076
3246.00,1.5073
3245.00,1.5086
3244.00,1.5116
3243.00,1.5161
3242.00,1.5221
3241.00,1.5295
3240.00,1.5382
3239.00,1.5481
3238.00,1.5591
3237.00,1.5712
3236.00,1.5844
3235.00,1.5986
3234.00,1.6136
3233.00,1.6295
3232.00,1.6460
3231.00,1.6629
3230.00,1.6802
3229.00,1.6979
3228.00,1.7159
3227.00,1.7342
3226.00,1.7526
3225.00,1.7710
3224.00,1.7895
3223.00,1.8078
3222.00,1.8260
3221.00,1.8440
3220.00,1.8618
3219.00,1.8793
3218.00,1.8963
3217.00,1.9130
3216.00,1.9292
3215.00,1.9450
3214.00,1.9603
3213.00,1.9753
3212.00,1.9899
3211.00,2.0042
3210.00,2.0181
3209.00,2.0315
3208.00,2.0444
3207.00,2.0567
3206.00,2.0686
3205.00,2.0802
3204.00,2.0914
3203.00,2.1018
3202.00,2.1112
3201.00,2.1202
3200.00,2.1291
3199.00,2.1381
3198.00,2.1467
3197.00,2.1548
3196.00,2.1623
3195.00,2.1693
3194.00,2.1758
3193.00,2.1816
3192.00,2.1868
3191.00,2.1911
3190.00,2.1950
3189.00,2.1988
3188.00,2.2026
3187.00,2.2060
3186.00,2.2085
3185.00,2.2099
3184.00,2.2106
3183.00,2.2107
3182.00,2.2107
3181.00,2.2109
3180.00,2.2113
3179.00,2.2111
3178.00,2.2101
3177.00,2.2083
3176.00,2.2061
3175.00,2.2038
3174.00,2.2012
3173.00,2.1978
3172.00,2.1934
3171.00,2.1882
3170.00,2.1828
3169.00,2.1773
3168.00,2.1714
3167.00,2.1646
3166.00,2.1567
3165.00,2.1480
3164.00,2.1390
3163.00,2.1300
3162.00,2.1209
3161.00,2.1114
3160.00,2.1012
3159.00,2.0902
3158.00,2.0788
3157.00,2.0673
3156.00,2.0553
3155.00,2.0423
3154.00,2.0284
3153.00,2.0139
3152.00,1.9991
3151.00,1.9840
3150.00,1.9685
3149.00,1.9522
3148.00,1.9351
3147.00,1.9176
3146.00,1.8996
3145.00,1.8814
3144.00,1.8629
3143.00,1.8439
3142.00,1.8246
3141.00,1.8052
3140.00,1.7857
3139.00,1.7665
3138.00,1.7476
3137.00,1.7288
3136.00,1.7103
3135.00,1.6920
3134.00,1.6743
3133.00,1.6577
3132.00,1.6422
3131.00,1.6277
3130.00,1.6144
3129.00,1.6024
3128.00,1.5917
3127.00,1.5824
3126.00,1.5748
3125.00,1.5690
3124.00,1.5650
3123.00,1.5629
3122.00,1.5627
3121.00,1.5643
3120.00,1.5679
3119.00,1.5734
3118.00,1.5807
3117.00,1.5897
3116.00,1.6002
3115.00,1.6120
3114.00,1.6251
3113.00,1.6393
3112.00,1.6546
3111.00,1.6711
3110.00,1.6884
3109.00,1.7065
3108.00,1.7252
3107.00,1.7446
3106.00,1.7643
3105.00,1.7843
3104.00,1.8042
3103.00,1.8240
3102.00,1.8436
3101.00,1.8634
3100.00,1.8835
3099.00,1.9037
3098.00,1.9234
3097.00,1.9423
3096.00,1.9602
3095.00,1.9774
3094.00,1.9943
3093.00,2.0111
3092.00,2.0277
3091.00,2.0440
3090.00,2.0598
3089.00,2.0750
3088.00,2.0895
3087.00,2.1034
3086.00,2.1169
3085.00,2.1302
3084.00,2.1429
3083.00,2.1547
3082.00,2.1656
3081.00,2.1760
3080.00,2.1865
3079.00,2.1970
3078.00,2.2067
3077.00,2.2150
3076.00,2.2221
3075.00,2.2286
3074.00,2.2350
3073.00,2.2411
3072.00,2.2464
3071.00,2.2510
3070.00,2.2556
3069.00,2.2605
3068.00,2.2649
3067.00,2.2679
3066.00,2.2696
3065.00,2.2706
3064.00,2.2717
3063.00,2.2728
3062.00,2.2736
3061.00,2.2736
3060.00,2.2725
3059.00,2.2702
3058.00,2.2670
3057.00,2.2633
3056.00,2.2593
3055.00,2.2545
3054.00,2.2486
3053.00,2.2418
3052.00,2.2345
3051.00,2.2269
3050.00,2.2186
3049.00,2.2092
3048.00,2.1986
3047.00,2.1870
3046.00,2.1749
3045.00,2.1621
3044.00,2.1482
3043.00,2.1330
3042.00,2.1170
3041.00,2.1004
3040.00,2.0835
3039.00,2.0659
3038.00,2.0476
3037.00,2.0283
3036.00,2.0083
3035.00,1.9877
3034.00,1.9667
3033.00,1.9452
3032.00,1.9231
3031.00,1.9007
3030.00,1.8785
3029.00,1.8569
3028.00,1.8359
3027.00,1.8154
3026.00,1.7955
3025.00,1.7765
3024.00,1.7589
3023.00,1.7431
3022.00,1.7294
3021.00,1.7183
3020.00,1.7097
3019.00,1.7039
3018.00,1.7009
3017.00,1.7012
3016.00,1.7050
3015.00,1.7123
3014.00,1.7228
3013.00,1.7363
3012.00,1.7526
3011.00,1.7720
3010.00,1.7942
3009.00,1.8190
3008.00,1.8459
3007.00,1.8745
3006.00,1.9045
3005.00,1.9356
3004.00,1.9673
3003.00,1.9991
3002.00,2.0309
3001.00,2.0627
3000.00,2.0945
2999.00,2.1260
2998.00,2.1570
2997.00,2.1874
2996.00,2.2173
2995.00,2.2460
2994.00,2.2731
2993.00,2.2983
2992.00,2.3220
2991.00,2.3448
2990.00,2.3668
2989.00,2.3879
2988.00,2.4074
2987.00,2.4251
2986.00,2.4415
2985.00,2.4578
2984.00,2.4749
2983.00,2.4932
2982.00,2.5119
2981.00,2.5303
2980.00,2.5488
2979.00,2.5692
2978.00,2.5938
2977.00,2.6235
2976.00,2.6576
2975.00,2.6956
2974.00,2.7385
2973.00,2.7886
2972.00,2.8475
2971.00,2.9146
2970.00,2.9888
2969.00,3.0701
2968.00,3.1593
2967.00,3.2560
2966.00,3.3564
2965.00,3.4518
2964.00,3.5340
2963.00,3.6091
2962.00,3.7012
2961.00,3.8343
2960.00,3.9929
2959.00,4.0961
2958.00,4.0932
2957.00,4.0496
2956.00,4.0315
2955.00,4.0478
2954.00,4.0980
2953.00,4.1763
2952.00,4.2537
2951.00,4.2988
2950.00,4.3194
2949.00,4.3615
2948.00,4.4409
2947.00,4.5093
2946.00,4.5183
2945.00,4.4836
2944.00,4.4381
2943.00,4.3867
2942.00,4.3449
2941.00,4.3408
2940.00,4.3719
2939.00,4.4041
2938.00,4.4075
2937.00,4.3838
2936.00,4.3544
2935.00,4.3400
2934.00,4.3651
2933.00,4.4488
2932.00,4.5182
2931.00,4.4594
2930.00,4.3580
2929.00,4.2982
2928.00,4.2738
2927.00,4.2461
2926.00,4.2387
2925.00,4.2778
2924.00,4.3272
2923.00,4.3275
2922.00,4.2568
2921.00,4.1393
2920.00,4.0124
2919.00,3.8971
2918.00,3.7972
2917.00,3.7048
2916.00,3.6170
2915.00,3.5388
2914.00,3.4730
2913.00,3.4149
2912.00,3.3570
2911.00,3.2992
2910.00,3.2494
2909.00,3.2126
2908.00,3.1838
2907.00,3.1535
2906.00,3.1184
2905.00,3.0841
2904.00,3.0564
2903.00,3.0359
2902.00,3.0185
2901.00,3.0002
2900.00,2.9797
2899.00,2.9584
2898.00,2.9386
2897.00,2.9225
2896.00,2.9105
2895.00,2.9018
2894.00,2.8950
2893.00,2.8886
2892.00,2.8817
2891.00,2.8745
2890.00,2.8686
2889.00,2.8665
2888.00,2.8696
2887.00,2.8762
2886.00,2.8826
2885.00,2.8861
2884.00,2.8884
2883.00,2.8941
2882.00,2.9072
2881.00,2.9281
2880.00,2.9540
2879.00,2.9824
2878.00,3.0128
2877.00,3.0464
2876.00,3.0834
2875.00,3.1238
2874.00,3.1703
2873.00,3.2279
2872.00,3.2995
2871.00,3.3808
2870.00,3.4628
2869.00,3.5394
2868.00,3.6113
2867.00,3.6764
2866.00,3.7229
2865.00,3.7446
2864.00,3.7559
2863.00,3.7756
2862.00,3.8027
2861.00,3.8123
2860.00,3.7795
2859.00,3.7071
2858.00,3.6169
2857.00,3.5239
2856.00,3.4295
2855.00,3.3290
2854.00,3.2228
2853.00,3.1176
2852.00,3.0212
2851.00,2.9375
2850.00,2.8663
2849.00,2.8057
2848.00,2.7538
2847.00,2.7093
2846.00,2.6713
2845.00,2.6393
2844.00,2.6126
2843.00,2.5909
2842.00,2.5727
2841.00,2.5561
2840.00,2.5398
2839.00,2.5240
2838.00,2.5097
2837.00,2.4963
2836.00,2.4819
2835.00,2.4651
2834.00,2.4462
2833.00,2.4271
2832.00,2.4088
2831.00,2.3911
2830.00,2.3732
2829.00,2.3549
2828.00,2.3362
2827.00,2.3168
2826.00,2.2958
2825.00,2.2725
2824.00,2.2465
2823.00,2.2180
2822.00,2.1876
2821.00,2.1553
2820.00,2.1214
2819.00,2.0854
2818.00,2.0475
2817.00,2.0081
2816.00,1.9678
2815.00,1.9272
2814.00,1.8870
2813.00,1.8475
2812.00,1.8091
2811.00,1.7725
2810.00,1.7381
2809.00,1.7068
2808.00,1.6794
2807.00,1.6565
2806.00,1.6387
2805.00,1.6263
2804.00,1.6199
2803.00,1.6193
2802.00,1.6243
2801.00,1.6341
2800.00,1.6479
2799.00,1.6646
2798.00,1.6835
2797.00,1.7036
2796.00,1.7245
2795.00,1.7457
2794.00,1.7674
2793.00,1.7897
2792.00,1.8131
2791.00,1.8376
2790.00,1.8632
2789.00,1.8900
2788.00,1.9176
2787.00,1.9458
2786.00,1.9742
2785.00,2.0024
2784.00,2.0303
2783.00,2.0578
2782.00,2.0846
2781.00,2.1104
2780.00,2.1348
2779.00,2.1577
2778.00,2.1795
2777.00,2.2002
2776.00,2.2197
2775.00,2.2381
2774.00,2.2554
2773.00,2.2717
2772.00,2.2868
2771.00,2.3007
2770.00,2.3134
2769.00,2.3255
2768.00,2.3369
2767.00,2.3478
2766.00,2.3584
2765.00,2.3687
2764.00,2.3785
2763.00,2.3870
2762.00,2.3937
2761.00,2.3990
2760.00,2.4031
2759.00,2.4065
2758.00,2.4094
2757.00,2.4116
2756.00,2.4130
2755.00,2.4137
2754.00,2.4141
2753.00,2.4147
2752.00,2.4148
2751.00,2.4139
2750.00,2.4116
2749.00,2.4085
2748.00,2.4050
2747.00,2.4010
2746.00,2.3962
2745.00,2.3909
2744.00,2.3852
2743.00,2.3787
2742.00,2.3711
2741.00,2.3622
2740.00,2.3524
2739.00,2.3421
2738.00,2.3314
2737.00,2.3203
2736.00,2.3088
2735.00,2.2965
2734.00,2.2829
2733.00,2.2679
2732.00,2.2517
2731.00,2.2345
2730.00,2.2164
2729.00,2.1975
2728.00,2.1775
2727.00,2.1564
2726.00,2.1342
2725.00,2.1107
2724.00,2.0857
2723.00,2.0590
2722.00,2.0310
2721.00,2.0018
2720.00,1.9718
2719.00,1.9407
2718.00,1.9084
2717.00,1.8746
2716.00,1.8398
2715.00,1.8038
2714.00,1.7669
2713.00,1.7291
2712.00,1.6908
2711.00,1.6524
2710.00,1.6144
2709.00,1.5773
2708.00,1.5417
2707.00,1.5082
2706.00,1.4775
2705.00,1.4502
2704.00,1.4266
2703.00,1.4073
2702.00,1.3924
2701.00,1.3823
2700.00,1.3773
2699.00,1.3774
2698.00,1.3826
2697.00,1.3928
2696.00,1.4076
2695.00,1.4267
2694.00,1.4497
2693.00,1.4761
2692.00,1.5056
2691.00,1.5378
2690.00,1.5722
2689.00,1.6084
2688.00,1.6460
2687.00,1.6843
2686.00,1.7230
2685.00,1.7617
2684.00,1.8002
2683.00,1.8382
2682.00,1.8754
2681.00,1.9112
2680.00,1.9453
2679.00,1.9773
2678.00,2.0070
2677.00,2.0345
2676.00,2.0601
2675.00,2.0842
2674.00,2.1069
2673.00,2.1284
2672.00,2.1486
2671.00,2.1675
2670.00,2.1849
2669.00,2.2009
2668.00,2.2156
2667.00,2.2298
2666.00,2.2439
2665.00,2.2585
2664.00,2.2733
2663.00,2.2881
2662.00,2.3027
2661.00,2.3168
2660.00,2.3304
2659.00,2.3438
2658.00,2.3572
2657.00,2.3704
2656.00,2.3832
2655.00,2.3953
2654.00,2.4068
2653.00,2.4179
2652.00,2.4283
2651.00,2.4373
2650.00,2.4446
2649.00,2.4505
2648.00,2.4559
2647.00,2.4612
2646.00,2.4662
2645.00,2.4706
2644.00,2.4743
2643.00,2.4778
2642.00,2.4815
2641.00,2.4850
2640.00,2.4879
2639.00,2.4897
2638.00,2.4907
2637.00,2.4905
2636.00,2.4893
2635.00,2.4878
2634.00,2.4869
2633.00,2.4867
2632.00,2.4864
2631.00,2.4855
2630.00,2.4835
2629.00,2.4800
2628.00,2.4747
2627.00,2.4681
2626.00,2.4615
2625.00,2.4555
2624.00,2.4497
2623.00,2.4433
2622.00,2.4359
2621.00,2.4276
2620.00,2.4189
2619.00,2.4101
2618.00,2.4009
2617.00,2.3910
2616.00,2.3801
2615.00,2.3681
2614.00,2.3555
2613.00,2.3424
2612.00,2.3286
2611.00,2.3141
2610.00,2.2989
2609.00,2.2826
2608.00,2.2646
2607.00,2.2451
2606.00,2.2250
2605.00,2.2044
2604.00,2.1830
2603.00,2.1598
2602.00,2.1347
2601.00,2.1080
2600.00,2.0801
2599.00,2.0511
2598.00,2.0208
2597.00,1.9891
2596.00,1.9559
2595.00,1.9211
2594.00,1.8851
2593.00,1.8481
2592.00,1.8105
2591.00,1.7722
2590.00,1.7333
2589.00,1.6943
2588.00,1.6556
2587.00,1.6177
2586.00,1.5810
2585.00,1.5461
2584.00,1.5133
2583.00,1.4831
2582.00,1.4560
2581.00,1.4327
2580.00,1.4135
2579.00,1.3988
2578.00,1.3887
2577.00,1.3835
2576.00,1.3831
2575.00,1.3875
2574.00,1.3966
2573.00,1.4102
2572.00,1.4279
2571.00,1.4493
2570.00,1.4739
2569.00,1.5011
2568.00,1.5306
2567.00,1.5619
2566.00,1.5946
2565.00,1.6284
2564.00,1.6630
2563.00,1.6982
2562.00,1.7337
2561.00,1.7696
2560.00,1.8057
2559.00,1.8419
2558.00,1.8779
2557.00,1.9133
2556.00,1.9477
2555.00,1.9809
2554.00,2.0131
2553.00,2.0446
2552.00,2.0755
2551.00,2.1059
2550.00,2.1355
2549.00,2.1639
2548.00,2.1908
2547.00,2.2160
2546.00,2.2396
2545.00,2.2616
2544.00,2.2821
2543.00,2.3015
2542.00,2.3202
2541.00,2.3386
2540.00,2.3564
2539.00,2.3729
2538.00,2.3878
2537.00,2.4015
2536.00,2.4145
2535.00,2.4275
2534.00,2.4403
2533.00,2.4528
2532.00,2.4648
2531.00,2.4762
2530.00,2.4868
2529.00,2.4964
2528.00,2.5049
2527.00,2.5128
2526.00,2.5208
2525.00,2.5289
2524.00,2.5362
2523.00,2.5417
2522.00,2.5456
2521.00,2.5491
2520.00,2.5528
2519.00,2.5567
2518.00,2.5601
2517.00,2.5625
2516.00,2.5642
2515.00,2.5656
2514.00,2.5671
2513.00,2.5686
2512.00,2.5696
2511.00,2.5697
2510.00,2.5686
2509.00,2.5662
2508.00,2.5624
2507.00,2.5579
2506.00,2.5541
2505.00,2.5515
2504.00,2.5490
2503.00,2.5444
2502.00,2.5372
2501.00,2.5292
2500.00,2.5224
2499.00,2.5165
2498.00,2.5097
2497.00,2.5009
2496.00,2.4904
2495.00,2.4789
2494.00,2.4668
2493.00,2.4542
2492.00,2.4412
2491.00,2.4285
2490.00,2.4158
2489.00,2.4025
2488.00,2.3877
2487.00,2.3712
2486.00,2.3535
2485.00,2.3354
2484.00,2.3164
2483.00,2.2960
2482.00,2.2738
2481.00,2.2501
2480.00,2.2257
2479.00,2.2007
2478.00,2.1748
2477.00,2.1477
2476.00,2.1191
2475.00,2.0887
2474.00,2.0563
2473.00,2.0222
2472.00,1.9865
2471.00,1.9493
2470.00,1.9110
2469.00,1.8715
2468.00,1.8309
2467.00,1.7890
2466.00,1.7459
2465.00,1.7018
2464.00,1.6570
2463.00,1.6123
2462.00,1.5684
2461.00,1.5261
2460.00,1.4862
2459.00,1.4494
2458.00,1.4163
2457.00,1.3877
2456.00,1.3641
2455.00,1.3460
2454.00,1.3337
2453.00,1.3274
2452.00,1.3271
2451.00,1.3327
2450.00,1.3441
2449.00,1.3611
2448.00,1.3834
2447.00,1.4103
2446.00,1.4413
2445.00,1.4757
2444.00,1.5130
2443.00,1.5524
2442.00,1.5934
2441.00,1.6355
2440.00,1.6781
2439.00,1.7209
2438.00,1.7635
2437.00,1.8059
2436.00,1.8482
2435.00,1.8900
2434.00,1.9311
2433.00,1.9709
2432.00,2.0095
2431.00,2.0466
2430.00,2.0824
2429.00,2.1164
2428.00,2.1488
2427.00,2.1798
2426.00,2.2097
2425.00,2.2385
2424.00,2.2656
2423.00,2.2908
2422.00,2.3139
2421.00,2.3350
2420.00,2.3547
2419.00,2.3738
2418.00,2.3927
2417.00,2.4112
2416.00,2.4289
2415.00,2.4459
2414.00,2.4625
2413.00,2.4790
2412.00,2.4947
2411.00,2.5089
2410.00,2.5216
2409.00,2.5330
2408.00,2.5433
2407.00,2.5532
2406.00,2.5630
2405.00,2.5729
2404.00,2.5823
2403.00,2.5904
2402.00,2.5970
2401.00,2.6023
2400.00,2.6068
2399.00,2.6111
2398.00,2.6159
2397.00,2.6215
2396.00,2.6278
2395.00,2.6342
2394.00,2.6396
2393.00,2.6426
2392.00,2.6434
2391.00,2.6436
2390.00,2.6449
2389.00,2.6474
2388.00,2.6496
2387.00,2.6502
2386.00,2.6492
2385.00,2.6479
2384.00,2.6475
2383.00,2.6491
2382.00,2.6537
2381.00,2.6619
2380.00,2.6736
2379.00,2.6875
2378.00,2.7018
2377.00,2.7150
2376.00,2.7268
2375.00,2.7372
2374.00,2.7457
2373.00,2.7518
2372.00,2.7568
2371.00,2.7645
2370.00,2.7798
2369.00,2.8053
2368.00,2.8417
2367.00,2.8887
2366.00,2.9446
2365.00,3.0051
2364.00,3.0654
2363.00,3.1218
2362.00,3.1702
2361.00,3.2068
2360.00,3.2319
2359.00,3.2447
2358.00,3.2426
2357.00,3.2252
2356.00,3.1898
2355.00,3.1371
2354.00,3.0661
2353.00,2.9747
2352.00,2.8687
2351.00,2.7557
2350.00,2.6491
2349.00,2.5615
2348.00,2.5071
2347.00,2.4878
2346.00,2.4747
2345.00,2.4366
2344.00,2.3621
2343.00,2.2786
2342.00,2.2241
2341.00,2.2092
2340.00,2.2198
2339.00,2.2274
2338.00,2.2238
2337.00,2.2089
2336.00,2.1852
2335.00,2.1561
2334.00,2.1230
2333.00,2.0883
2332.00,2.0533
2331.00,2.0199
2330.00,1.9886
2329.00,1.9591
2328.00,1.9310
2327.00,1.9083
2326.00,1.8880
2325.00,1.8760
2324.00,1.8677
2323.00,1.8634
2322.00,1.8596
2321.00,1.8576
2320.00,1.8635
2319.00,1.8761
2318.00,1.8942
2317.00,1.9123
2316.00,1.9311
2315.00,1.9526
2314.00,1.9780
2313.00,2.0085
2312.00,2.0418
2311.00,2.0794
2310.00,2.1189
2309.00,2.1602
2308.00,2.1990
2307.00,2.2352
2306.00,2.2672
2305.00,2.2969
2304.00,2.3236
2303.00,2.3485
2302.00,2.3717
2301.00,2.3942
2300.00,2.4161
2299.00,2.4380
2298.00,2.4590
2297.00,2.4793
2296.00,2.4974
2295.00,2.5138
2294.00,2.5287
2293.00,2.5441
2292.00,2.5594
2291.00,2.5740
2290.00,2.5863
2289.00,2.5970
2288.00,2.6073
2287.00,2.6176
2286.00,2.6276
2285.00,2.6365
2284.00,2.6442
2283.00,2.6510
2282.00,2.6575
2281.00,2.6642
2280.00,2.6719
2279.00,2.6807
2278.00,2.6903
2277.00,2.7003
2276.00,2.7102
2275.00,2.7193
2274.00,2.7269
2273.00,2.7329
2272.00,2.7377
2271.00,2.7427
2270.00,2.7479
2269.00,2.7527
2268.00,2.7560
2267.00,2.7580
2266.00,2.7595
2265.00,2.7604
2264.00,2.7597
2263.00,2.7572
2262.00,2.7540
2261.00,2.7523
2260.00,2.7528
2259.00,2.7547
2258.00,2.7554
2257.00,2.7522
2256.00,2.7446
2255.00,2.7344
2254.00,2.7245
2253.00,2.7163
2252.00,2.7094
2251.00,2.7028
2250.00,2.6957
2249.00,2.6877
2248.00,2.6783
2247.00,2.6677
2246.00,2.6561
2245.00,2.6442
2244.00,2.6322
2243.00,2.6202
2242.00,2.6078
2241.00,2.5945
2240.00,2.5800
2239.00,2.5642
2238.00,2.5477
2237.00,2.5303
2236.00,2.5117
2235.00,2.4919
2234.00,2.4715
2233.00,2.4511
2232.00,2.4300
2231.00,2.4079
2230.00,2.3842
2229.00,2.3589
2228.00,2.3318
2227.00,2.3029
2226.00,2.2722
2225.00,2.2397
2224.00,2.2052
2223.00,2.1686
2222.00,2.1301
2221.00,2.0898
2220.00,2.0474
2219.00,2.0026
2218.00,1.9556
2217.00,1.9070
2216.00,1.8573
2215.00,1.8069
2214.00,1.7562
2213.00,1.7060
2212.00,1.6571
2211.00,1.6103
2210.00,1.5664
2209.00,1.5264
2208.00,1.4913
2207.00,1.4619
2206.00,1.4388
2205.00,1.4228
2204.00,1.4142
2203.00,1.4131
2202.00,1.4194
2201.00,1.4332
2200.00,1.4538
2199.00,1.4806
2198.00,1.5129
2197.00,1.5500
2196.00,1.5913
2195.00,1.6357
2194.00,1.6825
2193.00,1.7307
2192.00,1.7797
2191.00,1.8288
2190.00,1.8777
2189.00,1.9262
2188.00,1.9739
2187.00,2.0202
2186.00,2.0646
2185.00,2.1073
2184.00,2.1483
2183.00,2.1878
2182.00,2.2256
2181.00,2.2619
2180.00,2.2966
2179.00,2.3292
2178.00,2.3594
2177.00,2.3874
2176.00,2.4135
2175.00,2.4383
2174.00,2.4619
2173.00,2.4844
2172.00,2.5057
2171.00,2.5261
2170.00,2.5462
2169.00,2.5664
2168.00,2.5860
2167.00,2.6041
2166.00,2.6199
2165.00,2.6342
2164.00,2.6482
2163.00,2.6633
2162.00,2.6795
2161.00,2.6957
2160.00,2.7096
2159.00,2.7202
2158.00,2.7287
2157.00,2.7373
2156.00,2.7471
2155.00,2.7572
2154.00,2.7663
2153.00,2.7743
2152.00,2.7822
2151.00,2.7897
2150.00,2.7958
2149.00,2.8002
2148.00,2.8036
2147.00,2.8071
2146.00,2.8107
2145.00,2.8136
2144.00,2.8151
2143.00,2.8162
2142.00,2.8186
2141.00,2.8235
2140.00,2.8300
2139.00,2.8351
2138.00,2.8368
2137.00,2.8358
2136.00,2.8345
2135.00,2.8335
2134.00,2.8313
2133.00,2.8262
2132.00,2.8189
2131.00,2.8120
2130.00,2.8073
2129.00,2.8039
2128.00,2.7996
2127.00,2.7934
2126.00,2.7856
2125.00,2.7766
2124.00,2.7667
2123.00,2.7562
2122.00,2.7458
2121.00,2.7365
2120.00,2.7282
2119.00,2.7196
2118.00,2.7090
2117.00,2.6956
2116.00,2.6801
2115.00,2.6643
2114.00,2.6492
2113.00,2.6343
2112.00,2.6180
2111.00,2.5995
2110.00,2.5787
2109.00,2.5563
2108.00,2.5327
2107.00,2.5079
2106.00,2.4823
2105.00,2.4562
2104.00,2.4300
2103.00,2.4035
2102.00,2.3762
2101.00,2.3470
2100.00,2.3152
2099.00,2.2807
2098.00,2.2440
2097.00,2.2054
2096.00,2.1650
2095.00,2.1226
2094.00,2.0782
2093.00,2.0319
2092.00,1.9839
2091.00,1.9344
2090.00,1.8835
2089.00,1.8315
2088.00,1.7792
2087.00,1.7276
2086.00,1.6778
2085.00,1.6310
2084.00,1.5886
2083.00,1.5520
2082.00,1.5223
2081.00,1.5004
2080.00,1.4873
2079.00,1.4835
2078.00,1.4891
2077.00,1.5041
2076.00,1.5279
2075.00,1.5595
2074.00,1.5976
2073.00,1.6409
2072.00,1.6881
2071.00,1.7377
2070.00,1.7884
2069.00,1.8395
2068.00,1.8908
2067.00,1.9416
2066.00,1.9910
2065.00,2.0377
2064.00,2.0813
2063.00,2.1226
2062.00,2.1623
2061.00,2.2008
2060.00,2.2376
2059.00,2.2725
2058.00,2.3062
2057.00,2.3390
2056.00,2.3710
2055.00,2.4018
2054.00,2.4317
2053.00,2.4614
2052.00,2.4906
2051.00,2.5190
2050.00,2.5463
2049.00,2.5730
2048.00,2.5996
2047.00,2.6257
2046.00,2.6501
2045.00,2.6718
2044.00,2.6912
2043.00,2.7087
2042.00,2.7240
2041.00,2.7370
2040.00,2.7490
2039.00,2.7620
2038.00,2.7764
2037.00,2.7909
2036.00,2.8036
2035.00,2.8149
2034.00,2.8267
2033.00,2.8401
2032.00,2.8534
2031.00,2.8642
2030.00,2.8716
2029.00,2.8768
2028.00,2.8816
2027.00,2.8870
2026.00,2.8928
2025.00,2.8987
2024.00,2.9048
2023.00,2.9115
2022.00,2.9178
2021.00,2.9223
2020.00,2.9246
2019.00,2.9256
2018.00,2.9261
2017.00,2.9259
2016.00,2.9248
2015.00,2.9241
2014.00,2.9242
2013.00,2.9234
2012.00,2.9196
2011.00,2.9140
2010.00,2.9100
2009.00,2.9094
2008.00,2.9103
2007.00,2.9101
2006.00,2.9079
2005.00,2.9047
2004.00,2.9010
2003.00,2.8961
2002.00,2.8888
2001.00,2.8777
2000.00,2.8629
1999.00,2.8467
1998.00,2.8326
1997.00,2.8217
1996.00,2.8120
1995.00,2.8016
1994.00,2.7898
1993.00,2.7757
1992.00,2.7583
1991.00,2.7384
1990.00,2.7185
1989.00,2.7001
1988.00,2.6816
1987.00,2.6610
1986.00,2.6385
1985.00,2.6153
1984.00,2.5914
1983.00,2.5661
1982.00,2.5392
1981.00,2.5113
1980.00,2.4824
1979.00,2.4521
1978.00,2.4209
1977.00,2.3882
1976.00,2.3532
1975.00,2.3152
1974.00,2.2747
1973.00,2.2322
1972.00,2.1873
1971.00,2.1396
1970.00,2.0900
1969.00,2.0391
1968.00,1.9862
1967.00,1.9306
1966.00,1.8734
1965.00,1.8179
1964.00,1.7667
1963.00,1.7201
1962.00,1.6781
1961.00,1.6418
1960.00,1.6133
1959.00,1.5938
1958.00,1.5839
1957.00,1.5838
1956.00,1.5931
1955.00,1.6111
1954.00,1.6372
1953.00,1.6707
1952.00,1.7106
1951.00,1.7554
1950.00,1.8030
1949.00,1.8532
1948.00,1.9049
1947.00,1.9569
1946.00,2.0083
1945.00,2.0601
1944.00,2.1120
1943.00,2.1620
1942.00,2.2080
1941.00,2.2512
1940.00,2.2944
1939.00,2.3377
1938.00,2.3788
1937.00,2.4164
1936.00,2.4517
1935.00,2.4867
1934.00,2.5211
1933.00,2.5540
1932.00,2.5856
1931.00,2.6166
1930.00,2.6467
1929.00,2.6749
1928.00,2.6999
1927.00,2.7220
1926.00,2.7439
1925.00,2.7677
1924.00,2.7930
1923.00,2.8155
1922.00,2.8342
1921.00,2.8531
1920.00,2.8753
1919.00,2.8972
1918.00,2.9119
1917.00,2.9182
1916.00,2.9224
1915.00,2.9301
1914.00,2.9405
1913.00,2.9505
1912.00,2.9601
1911.00,2.9705
1910.00,2.9800
1909.00,2.9869
1908.00,2.9923
1907.00,3.0000
1906.00,3.0109
1905.00,3.0220
1904.00,3.0308
1903.00,3.0350
1902.00,3.0347
1901.00,3.0310
1900.00,3.0262
1899.00,3.0238
1898.00,3.0253
1897.00,3.0282
1896.00,3.0298
1895.00,3.0283
1894.00,3.0240
1893.00,3.0193
1892.00,3.0163
1891.00,3.0148
1890.00,3.0115
1889.00,3.0041
1888.00,2.9952
1887.00,2.9896
1886.00,2.9863
1885.00,2.9792
1884.00,2.9653
1883.00,2.9482
1882.00,2.9332
1881.00,2.9215
1880.00,2.9107
1879.00,2.9000
1878.00,2.8894
1877.00,2.8767
1876.00,2.8605
1875.00,2.8414
1874.00,2.8211
1873.00,2.8018
1872.00,2.7856
1871.00,2.7723
1870.00,2.7567
1869.00,2.7331
1868.00,2.7016
1867.00,2.6690
1866.00,2.6402
1865.00,2.6110
1864.00,2.5761
1863.00,2.5359
1862.00,2.4932
1861.00,2.4483
1860.00,2.3996
1859.00,2.3469
1858.00,2.2909
1857.00,2.2322
1856.00,2.1705
1855.00,2.1065
1854.00,2.0408
1853.00,1.9746
1852.00,1.9098
1851.00,1.8504
1850.00,1.7998
1849.00,1.7575
1848.00,1.7258
1847.00,1.7104
1846.00,1.7134
1845.00,1.7278
1844.00,1.7440
1843.00,1.7628
1842.00,1.7955
1841.00,1.8470
1840.00,1.9077
1839.00,1.9681
1838.00,2.0268
1837.00,2.0872
1836.00,2.1508
1835.00,2.2141
1834.00,2.2755
1833.00,2.3379
1832.00,2.4025
1831.00,2.4646
1830.00,2.5163
1829.00,2.5564
1828.00,2.5971
1827.00,2.6462
1826.00,2.6960
1825.00,2.7354
1824.00,2.7654
1823.00,2.7946
1822.00,2.8265
1821.00,2.8569
1820.00,2.8828
1819.00,2.9068
1818.00,2.9316
1817.00,2.9574
1816.00,2.9825
1815.00,3.0040
1814.00,3.0217
1813.00,3.0371
1812.00,3.0515
1811.00,3.0652
1810.00,3.0785
1809.00,3.0946
1808.00,3.1145
1807.00,3.1337
1806.00,3.1470
1805.00,3.1537
1804.00,3.1561
1803.00,3.1569
1802.00,3.1588
1801.00,3.1608
1800.00,3.1597
1799.00,3.1546
1798.00,3.1480
1797.00,3.1447
1796.00,3.1464
1795.00,3.1516
1794.00,3.1568
1793.00,3.1559
1792.00,3.1443
1791.00,3.1249
1790.00,3.1071
1789.00,3.0954
1788.00,3.0844
1787.00,3.0689
1786.00,3.0488
1785.00,3.0264
1784.00,3.0037
1783.00,2.9823
1782.00,2.9616
1781.00,2.9345
1780.00,2.8967
1779.00,2.8558
1778.00,2.8200
1777.00,2.7901
1776.00,2.7619
1775.00,2.7370
1774.00,2.7181
1773.00,2.6997
1772.00,2.6765
1771.00,2.6601
1770.00,2.6679
1769.00,2.6959
1768.00,2.7217
1767.00,2.7323
1766.00,2.7358
1765.00,2.7469
1764.00,2.7692
1763.00,2.7959
1762.00,2.8220
1761.00,2.8508
1760.00,2.8919
1759.00,2.9489
1758.00,3.0135
1757.00,3.0764
1756.00,3.1336
1755.00,3.1937
1754.00,3.2660
1753.00,3.3481
1752.00,3.4269
1751.00,3.4873
1750.00,3.5254
1749.00,3.5558
1748.00,3.5906
1747.00,3.6232
1746.00,3.6470
1745.00,3.6688
1744.00,3.7053
1743.00,3.7671
1742.00,3.8463
1741.00,3.9175
1740.00,3.9533
1739.00,3.9543
1738.00,3.9580
1737.00,4.0010
1736.00,4.0811
1735.00,4.1720
1734.00,4.2600
1733.00,4.3719
1732.00,4.5532
1731.00,4.7582
1730.00,4.7695
1729.00,4.6134
1728.00,4.5236
1727.00,4.5564
1726.00,4.7820
1725.00,4.9869
1724.00,4.9074
1723.00,5.0813
1722.00,4.8355
1721.00,4.5711
1720.00,4.5890
1719.00,4.6629
1718.00,4.6562
1717.00,4.6036
1716.00,4.6826
1715.00,4.8069
1714.00,4.5865
1713.00,4.4310
1712.00,4.4587
1711.00,4.6806
1710.00,4.8619
1709.00,4.6160
1708.00,4.5123
1707.00,4.5781
1706.00,4.7423
1705.00,5.1106
1704.00,5.3678
1703.00,4.9137
1702.00,4.7022
1701.00,4.6043
1700.00,4.6174
1699.00,4.7390
1698.00,4.6442
1697.00,4.5001
1696.00,4.6220
1695.00,4.6764
1694.00,4.3221
1693.00,4.1607
1692.00,4.1262
1691.00,4.0645
1690.00,3.9577
1689.00,3.8470
1688.00,3.7693
1687.00,3.7196
1686.00,3.6782
1685.00,3.6284
1684.00,3.5622
1683.00,3.4913
1682.00,3.4563
1681.00,3.4537
1680.00,3.4442
1679.00,3.4190
1678.00,3.3930
1677.00,3.3798
1676.00,3.3771
1675.00,3.3759
1674.00,3.3777
1673.00,3.3916
1672.00,3.4135
1671.00,3.4271
1670.00,3.4211
1669.00,3.3980
1668.00,3.3671
1667.00,3.3489
1666.00,3.3412
1665.00,3.3531
1664.00,3.3434
1663.00,3.3228
1662.00,3.3186
1661.00,3.2952
1660.00,3.2693
1659.00,3.2372
1658.00,3.2039
1657.00,3.1701
1656.00,3.1385
1655.00,3.1086
1654.00,3.0779
1653.00,3.0438
1652.00,3.0075
1651.00,2.9733
1650.00,2.9430
1649.00,2.9151
1648.00,2.8876
1647.00,2.8591
1646.00,2.8301
1645.00,2.8022
1644.00,2.7769
1643.00,2.7545
1642.00,2.7344
1641.00,2.7156
1640.00,2.6975
1639.00,2.6804
1638.00,2.6645
1637.00,2.6502
1636.00,2.6363
1635.00,2.6243
1634.00,2.6122
1633.00,2.6075
1632.00,2.6096
1631.00,2.6062
1630.00,2.6000
1629.00,2.5942
1628.00,2.5921
1627.00,2.5966
1626.00,2.6139
1625.00,2.6427
1624.00,2.6726
1623.00,2.6947
1622.00,2.7131
1621.00,2.7412
1620.00,2.7838
1619.00,2.8336
1618.00,2.8790
1617.00,2.9102
1616.00,2.9236
1615.00,2.9330
1614.00,2.9561
1613.00,2.9907
1612.00,3.0251
1611.00,3.0535
1610.00,3.0767
1609.00,3.0973
1608.00,3.1159
1607.00,3.1320
1606.00,3.1472
1605.00,3.1629
1604.00,3.1794
1603.00,3.1972
1602.00,3.2153
1601.00,3.2345
1600.00,3.2553
1599.00,3.2736
1598.00,3.2824
1597.00,3.2802
1596.00,3.2719
1595.00,3.2622
1594.00,3.2536
1593.00,3.2489
1592.00,3.2495
1591.00,3.2536
1590.00,3.2589
1589.00,3.2644
1588.00,3.2692
1587.00,3.2717
1586.00,3.2710
1585.00,3.2697
1584.00,3.2680
1583.00,3.2641
1582.00,3.2554
1581.00,3.2418
1580.00,3.2296
1579.00,3.2251
1578.00,3.2248
1577.00,3.2178
1576.00,3.1968
1575.00,3.1690
1574.00,3.1554
1573.00,3.1596
1572.00,3.1641
1571.00,3.1557
1570.00,3.1321
1569.00,3.1010
1568.00,3.0742
1567.00,3.0561
1566.00,3.0358
1565.00,3.0055
1564.00,2.9708
1563.00,2.9458
1562.00,2.9381
1561.00,2.9398
1560.00,2.9282
1559.00,2.8793
1558.00,2.7891
1557.00,2.7221
1556.00,2.6935
1555.00,2.6539
1554.00,2.5887
1553.00,2.5134
1552.00,2.4476
1551.00,2.3913
1550.00,2.3288
1549.00,2.2590
1548.00,2.1942
1547.00,2.1432
1546.00,2.1025
1545.00,2.0672
1544.00,2.0402
1543.00,2.0289
1542.00,2.0325
1541.00,2.0412
1540.00,2.0427
1539.00,2.0378
1538.00,2.0540
1537.00,2.1051
1536.00,2.1746
1535.00,2.2442
1534.00,2.3051
1533.00,2.3559
1532.00,2.4086
1531.00,2.4728
1530.00,2.5387
1529.00,2.5991
1528.00,2.6560
1527.00,2.7115
1526.00,2.7651
1525.00,2.8158
1524.00,2.8663
1523.00,2.9164
1522.00,2.9586
1521.00,2.9888
1520.00,3.0184
1519.00,3.0596
1518.00,3.0994
1517.00,3.1194
1516.00,3.1234
1515.00,3.1308
1514.00,3.1523
1513.00,3.1795
1512.00,3.2059
1511.00,3.2362
1510.00,3.2774
1509.00,3.3293
1508.00,3.3789
1507.00,3.4058
1506.00,3.3958
1505.00,3.3719
1504.00,3.3603
1503.00,3.3599
1502.00,3.3639
1501.00,3.3711
1500.00,3.3835
1499.00,3.4022
1498.00,3.4214
1497.00,3.4320
1496.00,3.4277
1495.00,3.4119
1494.00,3.4016
1493.00,3.4053
1492.00,3.4171
1491.00,3.4250
1490.00,3.4201
1489.00,3.4059
1488.00,3.3944
1487.00,3.3904
1486.00,3.3905
1485.00,3.3895
1484.00,3.3796
1483.00,3.3612
1482.00,3.3395
1481.00,3.3222
1480.00,3.3160
1479.00,3.3197
1478.00,3.3226
1477.00,3.3156
1476.00,3.3020
1475.00,3.2889
1474.00,3.2758
1473.00,3.2517
1472.00,3.2137
1471.00,3.1767
1470.00,3.1548
1469.00,3.1478
1468.00,3.1534
1467.00,3.1726
1466.00,3.2032
1465.00,3.2350
1464.00,3.2574
1463.00,3.2720
1462.00,3.2837
1461.00,3.2967
1460.00,3.3169
1459.00,3.3522
1458.00,3.4072
1457.00,3.4817
1456.00,3.5802
1455.00,3.7112
1454.00,3.8725
1453.00,4.0629
1452.00,4.3129
1451.00,4.6094
1450.00,4.6666
1449.00,4.4658
1448.00,4.2572
1447.00,4.0949
1446.00,3.9666
1445.00,3.8379
1444.00,3.7062
1443.00,3.5929
1442.00,3.5123
1441.00,3.4643
1440.00,3.4409
1439.00,3.4355
1438.00,3.4409
1437.00,3.4522
1436.00,3.4695
1435.00,3.5016
1434.00,3.5559
1433.00,3.6260
1432.00,3.6968
1431.00,3.7485
1430.00,3.7683
1429.00,3.7657
1428.00,3.7623
1427.00,3.7700
1426.00,3.7859
1425.00,3.7941
1424.00,3.7848
1423.00,3.7650
1422.00,3.7492
1421.00,3.7448
1420.00,3.7487
1419.00,3.7497
1418.00,3.7298
1417.00,3.6743
1416.00,3.5845
1415.00,3.4825
1414.00,3.3924
1413.00,3.3217
1412.00,3.2628
1411.00,3.2045
1410.00,3.1437
1409.00,3.0867
1408.00,3.0397
1407.00,3.0019
1406.00,2.9708
1405.00,2.9437
1404.00,2.9207
1403.00,2.9054
1402.00,2.8996
1401.00,2.9021
1400.00,2.9102
1399.00,2.9222
1398.00,2.9383
1397.00,2.9585
1396.00,2.9793
1395.00,2.9977
1394.00,3.0158
1393.00,3.0370
1392.00,3.0627
1391.00,3.0907
1390.00,3.1182
1389.00,3.1448
1388.00,3.1719
1387.00,3.2008
1386.00,3.2318
1385.00,3.2630
1384.00,3.2922
1383.00,3.3202
1382.00,3.3468
1381.00,3.3688
1380.00,3.3830
1379.00,3.3935
1378.00,3.4086
1377.00,3.4310
1376.00,3.4539
1375.00,3.4690
1374.00,3.4754
1373.00,3.4796
1372.00,3.4887
1371.00,3.5037
1370.00,3.5210
1369.00,3.5341
1368.00,3.5385
1367.00,3.5389
1366.00,3.5451
1365.00,3.5611
1364.00,3.5795
1363.00,3.5893
1362.00,3.5896
1361.00,3.5895
1360.00,3.5971
1359.00,3.6126
1358.00,3.6303
1357.00,3.6443
1356.00,3.6546
1355.00,3.6641
1354.00,3.6728
1353.00,3.6803
1352.00,3.6904
1351.00,3.7119
1350.00,3.7596
1349.00,3.8403
1348.00,3.9388
1347.00,4.0096
1346.00,4.0151
1345.00,3.9836
1344.00,3.9609
1343.00,3.9528
1342.00,3.9373
1341.00,3.9121
1340.00,3.9022
1339.00,3.9201
1338.00,3.9541
1337.00,3.9775
1336.00,3.9613
1335.00,3.8982
1334.00,3.8109
1333.00,3.7295
1332.00,3.6714
1331.00,3.6355
1330.00,3.6063
1329.00,3.5695
1328.00,3.5281
1327.00,3.4931
1326.00,3.4680
1325.00,3.4488
1324.00,3.4359
1323.00,3.4356
1322.00,3.4528
1321.00,3.4893
1320.00,3.5464
1319.00,3.6295
1318.00,3.7505
1317.00,3.9215
1316.00,4.1290
1315.00,4.2708
1314.00,4.2617
1313.00,4.2050
1312.00,4.1669
1311.00,4.1708
1310.00,4.2118
1309.00,4.2324
1308.00,4.1726
1307.00,4.0476
1306.00,3.9278
1305.00,3.8458
1304.00,3.7863
1303.00,3.7276
1302.00,3.6681
1301.00,3.6158
1300.00,3.5694
1299.00,3.5196
1298.00,3.4613
1297.00,3.4002
1296.00,3.3455
1295.00,3.3006
1294.00,3.2603
1293.00,3.2168
1292.00,3.1668
1291.00,3.1132
1290.00,3.0609
1289.00,3.0134
1288.00,2.9720
1287.00,2.9376
1286.00,2.9108
1285.00,2.8920
1284.00,2.8821
1283.00,2.8822
1282.00,2.8921
1281.00,2.9096
1280.00,2.9312
1279.00,2.9553
1278.00,2.9839
1277.00,3.0204
1276.00,3.0663
1275.00,3.1182
1274.00,3.1692
1273.00,3.2131
1272.00,3.2486
1271.00,3.2802
1270.00,3.3145
1269.00,3.3559
1268.00,3.4027
1267.00,3.4458
1266.00,3.4723
1265.00,3.4790
1264.00,3.4786
1263.00,3.4886
1262.00,3.5176
1261.00,3.5590
1260.00,3.5961
1259.00,3.6150
1258.00,3.6174
1257.00,3.6176
1256.00,3.6265
1255.00,3.6436
1254.00,3.6619
1253.00,3.6781
1252.00,3.7001
1251.00,3.7363
1250.00,3.7786
1249.00,3.8047
1248.00,3.8075
1247.00,3.8044
1246.00,3.8141
1245.00,3.8377
1244.00,3.8630
1243.00,3.8812
1242.00,3.8930
1241.00,3.8936
1240.00,3.8735
1239.00,3.8460
1238.00,3.8460
1237.00,3.9058
1236.00,4.0485
1235.00,4.2465
1234.00,4.3021
1233.00,4.2207
1232.00,4.1978
1231.00,4.2579
1230.00,4.3646
1229.00,4.4608
1228.00,4.4884
1227.00,4.5137
1226.00,4.6382
1225.00,4.6396
1224.00,4.4770
1223.00,4.4217
1222.00,4.4698
1221.00,4.6549
1220.00,5.0735
1219.00,5.0420
1218.00,4.5867
1217.00,4.2205
1216.00,4.0348
1215.00,3.9732
1214.00,3.9697
1213.00,3.9687
1212.00,3.9554
1211.00,3.9416
1210.00,3.9428
1209.00,3.9648
1208.00,3.9908
1207.00,3.9881
1206.00,3.9359
1205.00,3.8552
1204.00,3.7907
1203.00,3.7735
1202.00,3.8075
1201.00,3.8697
1200.00,3.9191
1199.00,3.9255
1198.00,3.8887
1197.00,3.8355
1196.00,3.7951
1195.00,3.7716
1194.00,3.7595
1193.00,3.7617
1192.00,3.7797
1191.00,3.8078
1190.00,3.8318
1189.00,3.8406
1188.00,3.8454
1187.00,3.8686
1186.00,3.9163
1185.00,3.9641
1184.00,3.9685
1183.00,3.9128
1182.00,3.8412
1181.00,3.7956
1180.00,3.7843
1179.00,3.8004
1178.00,3.8239
1177.00,3.8217
1176.00,3.7824
1175.00,3.7326
1174.00,3.7008
1173.00,3.6838
1172.00,3.6544
1171.00,3.6067
1170.00,3.5659
1169.00,3.5500
1168.00,3.5526
1167.00,3.5527
1166.00,3.5370
1165.00,3.5095
1164.00,3.4796
1163.00,3.4511
1162.00,3.4237
1161.00,3.3987
1160.00,3.3797
1159.00,3.3674
1158.00,3.3560
1157.00,3.3426
1156.00,3.3305
1155.00,3.3242
1154.00,3.3267
1153.00,3.3385
1152.00,3.3555
1151.00,3.3688
1150.00,3.3724
1149.00,3.3700
1148.00,3.3729
1147.00,3.3873
1146.00,3.4066
1145.00,3.4230
1144.00,3.4441
1143.00,3.4803
1142.00,3.5264
1141.00,3.5569
1140.00,3.5520
1139.00,3.5343
1138.00,3.5427
1137.00,3.5954
1136.00,3.6859
1135.00,3.7836
1134.00,3.8377
1133.00,3.8306
1132.00,3.8130
1131.00,3.8212
1130.00,3.8582
1129.00,3.9202
1128.00,4.0091
1127.00,4.1221
1126.00,4.1899
1125.00,4.1663
1124.00,4.0965
1123.00,4.0315
1122.00,4.0022
1121.00,3.9812
1120.00,3.9485
1119.00,3.9358
1118.00,3.9878
1117.00,4.1597
1116.00,4.5769
1115.00,4.6076
1114.00,4.3518
1113.00,4.4036
1112.00,4.8020
1111.00,4.3328
1110.00,4.0017
1109.00,3.8501
1108.00,3.7760
1107.00,3.7436
1106.00,3.7427
1105.00,3.7649
1104.00,3.7973
1103.00,3.8355
1102.00,3.8939
1101.00,3.9765
1100.00,4.0627
1099.00,4.1412
1098.00,4.1911
1097.00,4.2335
1096.00,4.3881
1095.00,4.4258
1094.00,4.1826
1093.00,4.1366
1092.00,4.3061
1091.00,4.4503
1090.00,4.2330
1089.00,4.1026
1088.00,4.0476
1087.00,4.0790
1086.00,4.2384
1085.00,4.5270
1084.00,4.9182
1083.00,5.2484
1082.00,4.6968
1081.00,4.2860
1080.00,4.0565
1079.00,4.0057
1078.00,4.1065
1077.00,4.3513
1076.00,4.7286
1075.00,4.6903
1074.00,4.6458
1073.00,5.2175
1072.00,4.5442
1071.00,4.2939
1070.00,4.2536
1069.00,4.3167
1068.00,4.3977
1067.00,4.3856
1066.00,4.3067
1065.00,4.2857
1064.00,4.2632
1063.00,4.1962
1062.00,4.1771
1061.00,4.1872
1060.00,4.1556
1059.00,4.1424
1058.00,4.2100
1057.00,4.3192
1056.00,4.2562
1055.00,4.0969
1054.00,4.0170
1053.00,4.0408
1052.00,4.1388
1051.00,4.1782
1050.00,4.1327
1049.00,4.0885
1048.00,4.0246
1047.00,3.9318
1046.00,3.8524
1045.00,3.8049
1044.00,3.7735
1043.00,3.7377
1042.00,3.7155
1041.00,3.7409
1040.00,3.8035
1039.00,3.8382
1038.00,3.7970
1037.00,3.7192
1036.00,3.6605
1035.00,3.6419
1034.00,3.6588
1033.00,3.6911
1032.00,3.7035
1031.00,3.6623
1030.00,3.5840
1029.00,3.5049
1028.00,3.4386
1027.00,3.3898
1026.00,3.3648
1025.00,3.3694
1024.00,3.4016
1023.00,3.4515
1022.00,3.5123
1021.00,3.5904
1020.00,3.6912
1019.00,3.7970
1018.00,3.8734
1017.00,3.9060
1016.00,3.9126
1015.00,3.9003
1014.00,3.8599
1013.00,3.8061
1012.00,3.7624
1011.00,3.7270
1010.00,3.6860
1009.00,3.6446
1008.00,3.6273
1007.00,3.6600
1006.00,3.7567
1005.00,3.9009
1004.00,4.0125
1003.00,3.9939
1002.00,3.8908
1001.00,3.8034
1000.00,3.7680
999.00,3.7870
998.00,3.8453
997.00,3.9156
996.00,3.9883
995.00,4.0724
994.00,4.1533
993.00,4.2233
992.00,4.3494
991.00,4.6540
990.00,4.6378
989.00,4.3909
988.00,4.3050
987.00,4.1912
986.00,4.0852
985.00,4.0727
984.00,4.1604
983.00,4.3354
982.00,4.5008
981.00,4.4102
980.00,4.3916
979.00,4.7231
978.00,4.5012
977.00,4.1850
976.00,4.1743
975.00,4.4484
974.00,4.5775
973.00,4.1366
972.00,3.9728
971.00,3.9282
970.00,3.9490
969.00,3.9888
968.00,4.0106
967.00,4.0136
966.00,4.0153
965.00,4.0358
964.00,4.0640
963.00,4.0636
962.00,4.0425
961.00,4.0460
960.00,4.1092
959.00,4.2722
958.00,4.5469
957.00,4.8038
956.00,5.1793
955.00,5.1785
954.00,4.8077
953.00,4.7417
952.00,4.8195
951.00,4.8425
950.00,4.6436
949.00,4.5379
948.00,4.4872
947.00,4.3646
946.00,4.1899
945.00,4.0688
944.00,4.0439
943.00,4.1171
942.00,4.2841
941.00,4.4201
940.00,4.2572
939.00,4.0697
938.00,3.9695
937.00,3.9783
936.00,4.1243
935.00,4.4230
934.00,4.6859
933.00,4.4704
932.00,4.1961
931.00,4.0670
930.00,4.0612
929.00,4.1821
928.00,4.4701
927.00,4.8083
926.00,5.0867
925.00,4.8327
924.00,4.4704
923.00,4.4879
922.00,4.8186
921.00,4.6761
920.00,4.3622
919.00,4.2174
918.00,4.1815
917.00,4.1812
916.00,4.0700
915.00,3.9266
914.00,3.8465
913.00,3.8557
912.00,3.9646
911.00,4.1458
910.00,4.3846
909.00,4.6355
908.00,4.4232
907.00,4.2045
906.00,4.0881
905.00,4.0627
904.00,4.1603
903.00,4.4659
902.00,5.2383
901.00,4.9847
900.00,4.5140
899.00,4.1966
898.00,4.0182
897.00,3.9428
896.00,3.9597
895.00,4.0299
894.00,4.0721
893.00,4.0384
892.00,3.9519
891.00,3.8985
890.00,3.9347
889.00,4.0772
888.00,4.2811
887.00,4.3624
886.00,4.3004
885.00,4.2859
884.00,4.3780
883.00,4.4393
882.00,4.2983
881.00,4.1374
880.00,4.0942
879.00,4.1718
878.00,4.2904
877.00,4.3058
876.00,4.2230
875.00,4.1633
874.00,4.1790
873.00,4.2829
872.00,4.3798
871.00,4.2664
870.00,4.1545
869.00,4.1628
868.00,4.2941
867.00,4.5466
866.00,4.8298
865.00,4.8262
864.00,4.6859
863.00,4.4057
862.00,4.1620
861.00,4.0865
860.00,4.1581
859.00,4.2799
858.00,4.2790
857.00,4.1776
856.00,4.1019
855.00,4.0778
854.00,4.1618
853.00,4.4501
852.00,4.4125
851.00,4.1848
850.00,4.1872
849.00,4.2656
848.00,4.1534
847.00,3.9974
846.00,3.9330
845.00,3.9460
844.00,3.9716
843.00,3.9502
842.00,3.8896
841.00,3.8263
840.00,3.7952
839.00,3.8087
838.00,3.8561
837.00,3.9121
836.00,3.9548
835.00,3.9793
834.00,3.9864
833.00,4.0186
832.00,4.0832
831.00,4.0725
830.00,3.9744
829.00,3.8959
828.00,3.8818
827.00,3.9136
826.00,3.9681
825.00,4.0755
824.00,4.2631
823.00,4.4277
822.00,4.3410
821.00,4.1751
820.00,4.1274
819.00,4.2902
818.00,4.8156
817.00,5.2138
816.00,4.7251
815.00,4.2037
814.00,3.9290
813.00,3.8111
812.00,3.7960
811.00,3.8336
810.00,3.8841
809.00,3.9820
808.00,4.2273
807.00,4.7876
806.00,4.9830
805.00,4.7044
804.00,4.4104
803.00,4.1637
802.00,4.0102
801.00,3.9508
800.00,3.9800
799.00,4.0861
798.00,4.2206
797.00,4.2167
796.00,4.1158
795.00,4.0453
794.00,3.9960
793.00,3.9599
792.00,3.9632
791.00,4.0167
790.00,4.0711
789.00,4.0593
788.00,4.0308
787.00,4.0537
786.00,4.0409
785.00,3.9358
784.00,3.8799
783.00,3.8991
782.00,3.9548
781.00,4.0373
780.00,4.0589
779.00,4.0074
778.00,4.0082
777.00,4.0332
776.00,3.9938
775.00,3.9093
774.00,3.8316
773.00,3.8054
772.00,3.8645
771.00,4.0377
770.00,4.3428
769.00,4.8086
768.00,5.0101
767.00,4.5931
766.00,4.5001
765.00,4.6409
764.00,4.5626
763.00,4.3015
762.00,4.2475
761.00,4.3434
760.00,4.5011
759.00,4.5105
758.00,4.1937
757.00,3.9948
756.00,3.9472
755.00,4.0125
754.00,4.0287
753.00,3.9157
752.00,3.8822
751.00,4.0229
750.00,4.3618
749.00,4.3485
748.00,4.0651
747.00,3.9383
746.00,3.9548
745.00,4.0817
744.00,4.0981
743.00,4.0050
742.00,4.0468
741.00,4.2867
740.00,4.3453
739.00,4.0322
738.00,3.8260
737.00,3.7464
736.00,3.7811
735.00,3.8969
734.00,4.0065
733.00,4.0188
732.00,3.9567
731.00,3.9127
730.00,3.9287
729.00,3.9814
728.00,3.9998
727.00,4.0274
726.00,4.1270
725.00,4.1948
724.00,4.0750
723.00,3.8958
722.00,3.8050
721.00,3.8338
720.00,3.9568
719.00,4.1585
718.00,4.3348
717.00,4.1740
716.00,4.0110
715.00,3.9866
714.00,4.0699
713.00,4.2079
712.00,4.2362
711.00,4.0991
710.00,3.9613
709.00,3.8956
708.00,3.8879
707.00,3.9357
706.00,4.0811
705.00,4.1775
704.00,4.0637
703.00,3.9751
702.00,3.8974
701.00,3.8416
700.00,3.8614
