Created as New Dataset,Sample 071 By Administrator Date Wednesday, November 24 2021
cm-1,A
7502.00,0.9876
7501.00,0.9826
7500.00,0.9758
7499.00,0.9668
7498.00,0.9566
7497.00,0.9466
7496.00,0.9373
7495.00,0.9283
7494.00,0.9194
7493.00,0.9115
7492.00,0.9058
7491.00,0.9019
7490.00,0.8980
7489.00,0.8929
7488.00,0.8861
7487.00,0.8782
7486.00,0.8693
7485.00,0.8592
7484.00,0.8482
7483.00,0.8372
7482.00,0.8271
7481.00,0.8184
7480.00,0.8112
7479.00,0.8049
7478.00,0.7991
7477.00,0.7933
7476.00,0.7877
7475.00,0.7825
7474.00,0.7780
7473.00,0.7742
7472.00,0.7708
7471.00,0.7676
7470.00,0.7643
7469.00,0.7612
7468.00,0.7587
7467.00,0.7572
7466.00,0.7565
7465.00,0.7562
7464.00,0.7562
7463.00,0.7568
7462.00,0.7581
7461.00,0.7603
7460.00,0.7629
7459.00,0.7657
7458.00,0.7689
7457.00,0.7728
7456.00,0.7780
7455.00,0.7842
7454.00,0.7912
7453.00,0.7983
7452.00,0.8055
7451.00,0.8130
7450.00,0.8210
7449.00,0.8292
7448.00,0.8376
7447.00,0.8464
7446.00,0.8558
7445.00,0.8658
7444.00,0.8762
7443.00,0.8868
7442.00,0.8975
7441.00,0.9079
7440.00,0.9182
7439.00,0.9285
7438.00,0.9392
7437.00,0.9500
7436.00,0.9607
7435.00,0.9712
7434.00,0.9815
7433.00,0.9915
7432.00,1.0011
7431.00,1.0105
7430.00,1.0199
7429.00,1.0297
7428.00,1.0400
7427.00,1.0509
7426.00,1.0620
7425.00,1.0727
7424.00,1.0825
7423.00,1.0914
7422.00,1.0993
7421.00,1.1064
7420.00,1.1126
7419.00,1.1182
7418.00,1.1242
7417.00,1.1309
7416.00,1.1382
7415.00,1.1449
7414.00,1.1506
7413.00,1.1557
7412.00,1.1607
7411.00,1.1657
7410.00,1.1704
7409.00,1.1743
7408.00,1.1774
7407.00,1.1801
7406.00,1.1826
7405.00,1.1845
7404.00,1.1858
7403.00,1.1867
7402.00,1.1875
7401.00,1.1885
7400.00,1.1894
7399.00,1.1899
7398.00,1.1897
7397.00,1.1888
7396.00,1.1875
7395.00,1.1857
7394.00,1.1833
7393.00,1.1803
7392.00,1.1771
7391.00,1.1742
7390.00,1.1714
7389.00,1.1682
7388.00,1.1644
7387.00,1.1605
7386.00,1.1565
7385.00,1.1523
7384.00,1.1475
7383.00,1.1421
7382.00,1.1361
7381.00,1.1292
7380.00,1.1215
7379.00,1.1133
7378.00,1.1048
7377.00,1.0964
7376.00,1.0878
7375.00,1.0790
7374.00,1.0699
7373.00,1.0604
7372.00,1.0507
7371.00,1.0408
7370.00,1.0309
7369.00,1.0206
7368.00,1.0100
7367.00,0.9993
7366.00,0.9891
7365.00,0.9793
7364.00,0.9695
7363.00,0.9591
7362.00,0.9479
7361.00,0.9366
7360.00,0.9257
7359.00,0.9152
7358.00,0.9049
7357.00,0.8946
7356.00,0.8845
7355.00,0.8748
7354.00,0.8656
7353.00,0.8567
7352.00,0.8481
7351.00,0.8395
7350.00,0.8311
7349.00,0.8227
7348.00,0.8146
7347.00,0.8073
7346.00,0.8008
7345.00,0.7951
7344.00,0.7900
7343.00,0.7854
7342.00,0.7814
7341.00,0.7779
7340.00,0.7749
7339.00,0.7722
7338.00,0.7697
7337.00,0.7676
7336.00,0.7661
7335.00,0.7656
7334.00,0.7664
7333.00,0.7682
7332.00,0.7708
7331.00,0.7739
7330.00,0.7774
7329.00,0.7816
7328.00,0.7863
7327.00,0.7915
7326.00,0.7971
7325.00,0.8032
7324.00,0.8100
7323.00,0.8176
7322.00,0.8258
7321.00,0.8341
7320.00,0.8424
7319.00,0.8505
7318.00,0.8588
7317.00,0.8676
7316.00,0.8765
7315.00,0.8855
7314.00,0.8947
7313.00,0.9045
7312.00,0.9149
7311.00,0.9254
7310.00,0.9353
7309.00,0.9448
7308.00,0.9543
7307.00,0.9642
7306.00,0.9741
7305.00,0.9841
7304.00,0.9940
7303.00,1.0042
7302.00,1.0147
7301.00,1.0248
7300.00,1.0344
7299.00,1.0435
7298.00,1.0523
7297.00,1.0609
7296.00,1.0691
7295.00,1.0767
7294.00,1.0835
7293.00,1.0898
7292.00,1.0957
7291.00,1.1013
7290.00,1.1063
7289.00,1.1109
7288.00,1.1152
7287.00,1.1196
7286.00,1.1241
7285.00,1.1285
7284.00,1.1325
7283.00,1.1361
7282.00,1.1390
7281.00,1.1411
7280.00,1.1429
7279.00,1.1443
7278.00,1.1454
7277.00,1.1464
7276.00,1.1475
7275.00,1.1490
7274.00,1.1505
7273.00,1.1515
7272.00,1.1521
7271.00,1.1531
7270.00,1.1542
7269.00,1.1547
7268.00,1.1536
7267.00,1.1511
7266.00,1.1481
7265.00,1.1455
7264.00,1.1433
7263.00,1.1412
7262.00,1.1393
7261.00,1.1375
7260.00,1.1359
7259.00,1.1341
7258.00,1.1317
7257.00,1.1280
7256.00,1.1230
7255.00,1.1171
7254.00,1.1105
7253.00,1.1035
7252.00,1.0961
7251.00,1.0885
7250.00,1.0810
7249.00,1.0734
7248.00,1.0659
7247.00,1.0584
7246.00,1.0510
7245.00,1.0435
7244.00,1.0358
7243.00,1.0277
7242.00,1.0193
7241.00,1.0104
7240.00,1.0011
7239.00,0.9913
7238.00,0.9813
7237.00,0.9715
7236.00,0.9617
7235.00,0.9516
7234.00,0.9409
7233.00,0.9299
7232.00,0.9192
7231.00,0.9088
7230.00,0.8988
7229.00,0.8889
7228.00,0.8793
7227.00,0.8701
7226.00,0.8610
7225.00,0.8519
7224.00,0.8428
7223.00,0.8342
7222.00,0.8264
7221.00,0.8189
7220.00,0.8115
7219.00,0.8043
7218.00,0.7978
7217.00,0.7921
7216.00,0.7870
7215.00,0.7822
7214.00,0.7773
7213.00,0.7728
7212.00,0.7690
7211.00,0.7662
7210.00,0.7644
7209.00,0.7633
7208.00,0.7628
7207.00,0.7629
7206.00,0.7638
7205.00,0.7657
7204.00,0.7683
7203.00,0.7717
7202.00,0.7755
7201.00,0.7796
7200.00,0.7844
7199.00,0.7898
7198.00,0.7958
7197.00,0.8021
7196.00,0.8086
7195.00,0.8156
7194.00,0.8231
7193.00,0.8312
7192.00,0.8396
7191.00,0.8482
7190.00,0.8573
7189.00,0.8668
7188.00,0.8768
7187.00,0.8872
7186.00,0.8979
7185.00,0.9087
7184.00,0.9190
7183.00,0.9288
7182.00,0.9386
7181.00,0.9488
7180.00,0.9594
7179.00,0.9702
7178.00,0.9810
7177.00,0.9921
7176.00,1.0037
7175.00,1.0156
7174.00,1.0274
7173.00,1.0385
7172.00,1.0488
7171.00,1.0587
7170.00,1.0689
7169.00,1.0791
7168.00,1.0887
7167.00,1.0973
7166.00,1.1051
7165.00,1.1126
7164.00,1.1197
7163.00,1.1264
7162.00,1.1330
7161.00,1.1400
7160.00,1.1476
7159.00,1.1552
7158.00,1.1623
7157.00,1.1690
7156.00,1.1753
7155.00,1.1810
7154.00,1.1855
7153.00,1.1888
7152.00,1.1921
7151.00,1.1962
7150.00,1.2008
7149.00,1.2048
7148.00,1.2075
7147.00,1.2095
7146.00,1.2116
7145.00,1.2137
7144.00,1.2148
7143.00,1.2146
7142.00,1.2138
7141.00,1.2129
7140.00,1.2116
7139.00,1.2093
7138.00,1.2062
7137.00,1.2030
7136.00,1.1999
7135.00,1.1965
7134.00,1.1927
7133.00,1.1888
7132.00,1.1850
7131.00,1.1808
7130.00,1.1761
7129.00,1.1712
7128.00,1.1663
7127.00,1.1612
7126.00,1.1556
7125.00,1.1496
7124.00,1.1432
7123.00,1.1365
7122.00,1.1290
7121.00,1.1207
7120.00,1.1118
7119.00,1.1023
7118.00,1.0925
7117.00,1.0826
7116.00,1.0729
7115.00,1.0632
7114.00,1.0533
7113.00,1.0432
7112.00,1.0330
7111.00,1.0227
7110.00,1.0125
7109.00,1.0018
7108.00,0.9905
7107.00,0.9788
7106.00,0.9673
7105.00,0.9564
7104.00,0.9458
7103.00,0.9352
7102.00,0.9243
7101.00,0.9132
7100.00,0.9025
7099.00,0.8921
7098.00,0.8818
7097.00,0.8713
7096.00,0.8609
7095.00,0.8510
7094.00,0.8417
7093.00,0.8329
7092.00,0.8246
7091.00,0.8165
7090.00,0.8091
7089.00,0.8025
7088.00,0.7966
7087.00,0.7913
7086.00,0.7866
7085.00,0.7824
7084.00,0.7786
7083.00,0.7752
7082.00,0.7723
7081.00,0.7701
7080.00,0.7688
7079.00,0.7682
7078.00,0.7684
7077.00,0.7695
7076.00,0.7716
7075.00,0.7742
7074.00,0.7773
7073.00,0.7807
7072.00,0.7846
7071.00,0.7893
7070.00,0.7947
7069.00,0.8006
7068.00,0.8071
7067.00,0.8140
7066.00,0.8213
7065.00,0.8291
7064.00,0.8375
7063.00,0.8464
7062.00,0.8556
7061.00,0.8650
7060.00,0.8747
7059.00,0.8850
7058.00,0.8960
7057.00,0.9072
7056.00,0.9181
7055.00,0.9286
7054.00,0.9392
7053.00,0.9500
7052.00,0.9610
7051.00,0.9718
7050.00,0.9822
7049.00,0.9924
7048.00,1.0029
7047.00,1.0138
7046.00,1.0247
7045.00,1.0352
7044.00,1.0452
7043.00,1.0549
7042.00,1.0647
7041.00,1.0748
7040.00,1.0846
7039.00,1.0937
7038.00,1.1024
7037.00,1.1109
7036.00,1.1191
7035.00,1.1266
7034.00,1.1332
7033.00,1.1391
7032.00,1.1447
7031.00,1.1503
7030.00,1.1559
7029.00,1.1616
7028.00,1.1675
7027.00,1.1736
7026.00,1.1795
7025.00,1.1848
7024.00,1.1890
7023.00,1.1922
7022.00,1.1946
7021.00,1.1966
7020.00,1.1978
7019.00,1.1982
7018.00,1.1984
7017.00,1.1993
7016.00,1.2013
7015.00,1.2032
7014.00,1.2040
7013.00,1.2035
7012.00,1.2023
7011.00,1.2010
7010.00,1.1996
7009.00,1.1977
7008.00,1.1952
7007.00,1.1927
7006.00,1.1904
7005.00,1.1881
7004.00,1.1852
7003.00,1.1810
7002.00,1.1755
7001.00,1.1692
7000.00,1.1627
6999.00,1.1561
6998.00,1.1493
6997.00,1.1422
6996.00,1.1350
6995.00,1.1279
6994.00,1.1206
6993.00,1.1132
6992.00,1.1056
6991.00,1.0978
6990.00,1.0895
6989.00,1.0805
6988.00,1.0707
6987.00,1.0604
6986.00,1.0500
6985.00,1.0394
6984.00,1.0286
6983.00,1.0177
6982.00,1.0070
6981.00,0.9966
6980.00,0.9863
6979.00,0.9756
6978.00,0.9645
6977.00,0.9535
6976.00,0.9425
6975.00,0.9316
6974.00,0.9206
6973.00,0.9095
6972.00,0.8985
6971.00,0.8878
6970.00,0.8774
6969.00,0.8674
6968.00,0.8576
6967.00,0.8482
6966.00,0.8390
6965.00,0.8302
6964.00,0.8216
6963.00,0.8134
6962.00,0.8055
6961.00,0.7981
6960.00,0.7914
6959.00,0.7853
6958.00,0.7800
6957.00,0.7754
6956.00,0.7715
6955.00,0.7683
6954.00,0.7657
6953.00,0.7635
6952.00,0.7619
6951.00,0.7608
6950.00,0.7604
6949.00,0.7609
6948.00,0.7621
6947.00,0.7640
6946.00,0.7667
6945.00,0.7703
6944.00,0.7745
6943.00,0.7792
6942.00,0.7845
6941.00,0.7906
6940.00,0.7975
6939.00,0.8051
6938.00,0.8130
6937.00,0.8214
6936.00,0.8302
6935.00,0.8392
6934.00,0.8484
6933.00,0.8577
6932.00,0.8675
6931.00,0.8780
6930.00,0.8892
6929.00,0.9006
6928.00,0.9120
6927.00,0.9231
6926.00,0.9339
6925.00,0.9446
6924.00,0.9553
6923.00,0.9660
6922.00,0.9769
6921.00,0.9882
6920.00,0.9997
6919.00,1.0114
6918.00,1.0230
6917.00,1.0343
6916.00,1.0452
6915.00,1.0557
6914.00,1.0661
6913.00,1.0762
6912.00,1.0859
6911.00,1.0954
6910.00,1.1047
6909.00,1.1141
6908.00,1.1235
6907.00,1.1327
6906.00,1.1417
6905.00,1.1499
6904.00,1.1573
6903.00,1.1638
6902.00,1.1698
6901.00,1.1754
6900.00,1.1807
6899.00,1.1856
6898.00,1.1903
6897.00,1.1951
6896.00,1.2000
6895.00,1.2045
6894.00,1.2083
6893.00,1.2118
6892.00,1.2151
6891.00,1.2183
6890.00,1.2207
6889.00,1.2222
6888.00,1.2229
6887.00,1.2234
6886.00,1.2240
6885.00,1.2244
6884.00,1.2244
6883.00,1.2237
6882.00,1.2225
6881.00,1.2212
6880.00,1.2198
6879.00,1.2179
6878.00,1.2151
6877.00,1.2117
6876.00,1.2083
6875.00,1.2048
6874.00,1.2007
6873.00,1.1955
6872.00,1.1897
6871.00,1.1837
6870.00,1.1777
6869.00,1.1713
6868.00,1.1643
6867.00,1.1569
6866.00,1.1493
6865.00,1.1415
6864.00,1.1333
6863.00,1.1248
6862.00,1.1159
6861.00,1.1068
6860.00,1.0974
6859.00,1.0877
6858.00,1.0778
6857.00,1.0676
6856.00,1.0570
6855.00,1.0462
6854.00,1.0353
6853.00,1.0240
6852.00,1.0125
6851.00,1.0006
6850.00,0.9886
6849.00,0.9767
6848.00,0.9648
6847.00,0.9529
6846.00,0.9413
6845.00,0.9298
6844.00,0.9185
6843.00,0.9073
6842.00,0.8962
6841.00,0.8853
6840.00,0.8745
6839.00,0.8640
6838.00,0.8539
6837.00,0.8442
6836.00,0.8349
6835.00,0.8259
6834.00,0.8174
6833.00,0.8095
6832.00,0.8023
6831.00,0.7956
6830.00,0.7893
6829.00,0.7839
6828.00,0.7792
6827.00,0.7752
6826.00,0.7718
6825.00,0.7691
6824.00,0.7669
6823.00,0.7655
6822.00,0.7649
6821.00,0.7651
6820.00,0.7658
6819.00,0.7672
6818.00,0.7695
6817.00,0.7727
6816.00,0.7768
6815.00,0.7813
6814.00,0.7864
6813.00,0.7922
6812.00,0.7987
6811.00,0.8057
6810.00,0.8131
6809.00,0.8209
6808.00,0.8293
6807.00,0.8381
6806.00,0.8474
6805.00,0.8571
6804.00,0.8672
6803.00,0.8777
6802.00,0.8885
6801.00,0.8997
6800.00,0.9108
6799.00,0.9218
6798.00,0.9327
6797.00,0.9437
6796.00,0.9549
6795.00,0.9662
6794.00,0.9776
6793.00,0.9893
6792.00,1.0012
6791.00,1.0131
6790.00,1.0247
6789.00,1.0358
6788.00,1.0466
6787.00,1.0571
6786.00,1.0674
6785.00,1.0776
6784.00,1.0873
6783.00,1.0965
6782.00,1.1056
6781.00,1.1146
6780.00,1.1235
6779.00,1.1317
6778.00,1.1394
6777.00,1.1469
6776.00,1.1545
6775.00,1.1620
6774.00,1.1689
6773.00,1.1750
6772.00,1.1805
6771.00,1.1859
6770.00,1.1910
6769.00,1.1957
6768.00,1.1995
6767.00,1.2027
6766.00,1.2058
6765.00,1.2093
6764.00,1.2127
6763.00,1.2155
6762.00,1.2174
6761.00,1.2186
6760.00,1.2194
6759.00,1.2197
6758.00,1.2190
6757.00,1.2176
6756.00,1.2161
6755.00,1.2149
6754.00,1.2139
6753.00,1.2127
6752.00,1.2108
6751.00,1.2082
6750.00,1.2051
6749.00,1.2017
6748.00,1.1980
6747.00,1.1939
6746.00,1.1894
6745.00,1.1847
6744.00,1.1798
6743.00,1.1746
6742.00,1.1686
6741.00,1.1616
6740.00,1.1540
6739.00,1.1463
6738.00,1.1387
6737.00,1.1311
6736.00,1.1232
6735.00,1.1151
6734.00,1.1069
6733.00,1.0985
6732.00,1.0896
6731.00,1.0798
6730.00,1.0694
6729.00,1.0586
6728.00,1.0479
6727.00,1.0372
6726.00,1.0263
6725.00,1.0152
6724.00,1.0040
6723.00,0.9928
6722.00,0.9815
6721.00,0.9702
6720.00,0.9586
6719.00,0.9469
6718.00,0.9354
6717.00,0.9242
6716.00,0.9131
6715.00,0.9020
6714.00,0.8910
6713.00,0.8801
6712.00,0.8695
6711.00,0.8591
6710.00,0.8488
6709.00,0.8388
6708.00,0.8291
6707.00,0.8199
6706.00,0.8114
6705.00,0.8034
6704.00,0.7959
6703.00,0.7888
6702.00,0.7824
6701.00,0.7766
6700.00,0.7715
6699.00,0.7670
6698.00,0.7632
6697.00,0.7600
6696.00,0.7576
6695.00,0.7559
6694.00,0.7549
6693.00,0.7548
6692.00,0.7554
6691.00,0.7568
6690.00,0.7590
6689.00,0.7619
6688.00,0.7655
6687.00,0.7699
6686.00,0.7748
6685.00,0.7805
6684.00,0.7867
6683.00,0.7937
6682.00,0.8013
6681.00,0.8096
6680.00,0.8182
6679.00,0.8272
6678.00,0.8367
6677.00,0.8467
6676.00,0.8573
6675.00,0.8681
6674.00,0.8791
6673.00,0.8902
6672.00,0.9015
6671.00,0.9129
6670.00,0.9246
6669.00,0.9364
6668.00,0.9482
6667.00,0.9599
6666.00,0.9718
6665.00,0.9838
6664.00,0.9958
6663.00,1.0075
6662.00,1.0190
6661.00,1.0305
6660.00,1.0420
6659.00,1.0534
6658.00,1.0644
6657.00,1.0750
6656.00,1.0854
6655.00,1.0957
6654.00,1.1059
6653.00,1.1155
6652.00,1.1246
6651.00,1.1336
6650.00,1.1426
6649.00,1.1516
6648.00,1.1602
6647.00,1.1684
6646.00,1.1761
6645.00,1.1834
6644.00,1.1905
6643.00,1.1971
6642.00,1.2032
6641.00,1.2087
6640.00,1.2138
6639.00,1.2187
6638.00,1.2229
6637.00,1.2261
6636.00,1.2284
6635.00,1.2304
6634.00,1.2325
6633.00,1.2348
6632.00,1.2370
6631.00,1.2388
6630.00,1.2401
6629.00,1.2409
6628.00,1.2411
6627.00,1.2410
6626.00,1.2405
6625.00,1.2394
6624.00,1.2378
6623.00,1.2356
6622.00,1.2330
6621.00,1.2302
6620.00,1.2271
6619.00,1.2235
6618.00,1.2193
6617.00,1.2145
6616.00,1.2093
6615.00,1.2038
6614.00,1.1979
6613.00,1.1916
6612.00,1.1851
6611.00,1.1787
6610.00,1.1721
6609.00,1.1650
6608.00,1.1572
6607.00,1.1487
6606.00,1.1399
6605.00,1.1308
6604.00,1.1210
6603.00,1.1107
6602.00,1.1002
6601.00,1.0896
6600.00,1.0788
6599.00,1.0677
6598.00,1.0563
6597.00,1.0448
6596.00,1.0334
6595.00,1.0218
6594.00,1.0097
6593.00,0.9973
6592.00,0.9849
6591.00,0.9727
6590.00,0.9607
6589.00,0.9488
6588.00,0.9369
6587.00,0.9249
6586.00,0.9130
6585.00,0.9012
6584.00,0.8893
6583.00,0.8774
6582.00,0.8657
6581.00,0.8547
6580.00,0.8442
6579.00,0.8342
6578.00,0.8249
6577.00,0.8163
6576.00,0.8083
6575.00,0.8007
6574.00,0.7936
6573.00,0.7871
6572.00,0.7811
6571.00,0.7757
6570.00,0.7709
6569.00,0.7668
6568.00,0.7635
6567.00,0.7609
6566.00,0.7591
6565.00,0.7583
6564.00,0.7583
6563.00,0.7591
6562.00,0.7608
6561.00,0.7634
6560.00,0.7667
6559.00,0.7707
6558.00,0.7754
6557.00,0.7809
6556.00,0.7871
6555.00,0.7940
6554.00,0.8014
6553.00,0.8094
6552.00,0.8177
6551.00,0.8264
6550.00,0.8357
6549.00,0.8456
6548.00,0.8561
6547.00,0.8669
6546.00,0.8779
6545.00,0.8889
6544.00,0.9001
6543.00,0.9114
6542.00,0.9231
6541.00,0.9350
6540.00,0.9471
6539.00,0.9594
6538.00,0.9717
6537.00,0.9838
6536.00,0.9956
6535.00,1.0070
6534.00,1.0183
6533.00,1.0298
6532.00,1.0415
6531.00,1.0532
6530.00,1.0648
6529.00,1.0761
6528.00,1.0869
6527.00,1.0972
6526.00,1.1071
6525.00,1.1167
6524.00,1.1260
6523.00,1.1351
6522.00,1.1441
6521.00,1.1527
6520.00,1.1610
6519.00,1.1687
6518.00,1.1760
6517.00,1.1828
6516.00,1.1891
6515.00,1.1949
6514.00,1.2004
6513.00,1.2054
6512.00,1.2100
6511.00,1.2143
6510.00,1.2184
6509.00,1.2224
6508.00,1.2258
6507.00,1.2285
6506.00,1.2309
6505.00,1.2329
6504.00,1.2343
6503.00,1.2347
6502.00,1.2344
6501.00,1.2341
6500.00,1.2340
6499.00,1.2337
6498.00,1.2329
6497.00,1.2317
6496.00,1.2302
6495.00,1.2284
6494.00,1.2262
6493.00,1.2233
6492.00,1.2197
6491.00,1.2155
6490.00,1.2109
6489.00,1.2063
6488.00,1.2015
6487.00,1.1964
6486.00,1.1910
6485.00,1.1853
6484.00,1.1794
6483.00,1.1730
6482.00,1.1661
6481.00,1.1587
6480.00,1.1508
6479.00,1.1427
6478.00,1.1344
6477.00,1.1259
6476.00,1.1169
6475.00,1.1074
6474.00,1.0976
6473.00,1.0876
6472.00,1.0773
6471.00,1.0666
6470.00,1.0557
6469.00,1.0446
6468.00,1.0333
6467.00,1.0218
6466.00,1.0100
6465.00,0.9982
6464.00,0.9862
6463.00,0.9740
6462.00,0.9617
6461.00,0.9495
6460.00,0.9372
6459.00,0.9249
6458.00,0.9126
6457.00,0.9008
6456.00,0.8894
6455.00,0.8782
6454.00,0.8670
6453.00,0.8559
6452.00,0.8451
6451.00,0.8347
6450.00,0.8248
6449.00,0.8154
6448.00,0.8066
6447.00,0.7983
6446.00,0.7908
6445.00,0.7839
6444.00,0.7776
6443.00,0.7717
6442.00,0.7665
6441.00,0.7621
6440.00,0.7586
6439.00,0.7559
6438.00,0.7540
6437.00,0.7529
6436.00,0.7525
6435.00,0.7532
6434.00,0.7547
6433.00,0.7571
6432.00,0.7603
6431.00,0.7642
6430.00,0.7690
6429.00,0.7744
6428.00,0.7803
6427.00,0.7868
6426.00,0.7941
6425.00,0.8020
6424.00,0.8106
6423.00,0.8197
6422.00,0.8293
6421.00,0.8395
6420.00,0.8500
6419.00,0.8608
6418.00,0.8721
6417.00,0.8841
6416.00,0.8964
6415.00,0.9089
6414.00,0.9212
6413.00,0.9334
6412.00,0.9455
6411.00,0.9577
6410.00,0.9699
6409.00,0.9822
6408.00,0.9949
6407.00,1.0079
6406.00,1.0209
6405.00,1.0335
6404.00,1.0455
6403.00,1.0571
6402.00,1.0686
6401.00,1.0799
6400.00,1.0911
6399.00,1.1021
6398.00,1.1130
6397.00,1.1238
6396.00,1.1341
6395.00,1.1439
6394.00,1.1534
6393.00,1.1627
6392.00,1.1720
6391.00,1.1809
6390.00,1.1894
6389.00,1.1973
6388.00,1.2046
6387.00,1.2111
6386.00,1.2172
6385.00,1.2230
6384.00,1.2285
6383.00,1.2337
6382.00,1.2386
6381.00,1.2435
6380.00,1.2480
6379.00,1.2518
6378.00,1.2551
6377.00,1.2579
6376.00,1.2601
6375.00,1.2617
6374.00,1.2627
6373.00,1.2633
6372.00,1.2638
6371.00,1.2640
6370.00,1.2640
6369.00,1.2637
6368.00,1.2631
6367.00,1.2618
6366.00,1.2597
6365.00,1.2567
6364.00,1.2534
6363.00,1.2498
6362.00,1.2462
6361.00,1.2422
6360.00,1.2376
6359.00,1.2323
6358.00,1.2267
6357.00,1.2207
6356.00,1.2145
6355.00,1.2080
6354.00,1.2014
6353.00,1.1947
6352.00,1.1876
6351.00,1.1793
6350.00,1.1699
6349.00,1.1599
6348.00,1.1500
6347.00,1.1401
6346.00,1.1299
6345.00,1.1196
6344.00,1.1089
6343.00,1.0977
6342.00,1.0861
6341.00,1.0739
6340.00,1.0615
6339.00,1.0489
6338.00,1.0363
6337.00,1.0238
6336.00,1.0111
6335.00,0.9983
6334.00,0.9853
6333.00,0.9724
6332.00,0.9595
6331.00,0.9465
6330.00,0.9335
6329.00,0.9206
6328.00,0.9078
6327.00,0.8953
6326.00,0.8829
6325.00,0.8710
6324.00,0.8595
6323.00,0.8484
6322.00,0.8377
6321.00,0.8275
6320.00,0.8176
6319.00,0.8082
6318.00,0.7995
6317.00,0.7915
6316.00,0.7841
6315.00,0.7774
6314.00,0.7715
6313.00,0.7665
6312.00,0.7624
6311.00,0.7590
6310.00,0.7564
6309.00,0.7546
6308.00,0.7538
6307.00,0.7539
6306.00,0.7547
6305.00,0.7564
6304.00,0.7590
6303.00,0.7626
6302.00,0.7669
6301.00,0.7719
6300.00,0.7778
6299.00,0.7843
6298.00,0.7914
6297.00,0.7992
6296.00,0.8076
6295.00,0.8168
6294.00,0.8265
6293.00,0.8368
6292.00,0.8474
6291.00,0.8583
6290.00,0.8697
6289.00,0.8815
6288.00,0.8935
6287.00,0.9057
6286.00,0.9183
6285.00,0.9311
6284.00,0.9439
6283.00,0.9565
6282.00,0.9691
6281.00,0.9816
6280.00,0.9941
6279.00,1.0066
6278.00,1.0190
6277.00,1.0313
6276.00,1.0435
6275.00,1.0556
6274.00,1.0675
6273.00,1.0790
6272.00,1.0903
6271.00,1.1012
6270.00,1.1119
6269.00,1.1223
6268.00,1.1323
6267.00,1.1418
6266.00,1.1510
6265.00,1.1599
6264.00,1.1685
6263.00,1.1765
6262.00,1.1839
6261.00,1.1909
6260.00,1.1977
6259.00,1.2043
6258.00,1.2107
6257.00,1.2168
6256.00,1.2226
6255.00,1.2280
6254.00,1.2327
6253.00,1.2367
6252.00,1.2399
6251.00,1.2428
6250.00,1.2455
6249.00,1.2478
6248.00,1.2498
6247.00,1.2515
6246.00,1.2531
6245.00,1.2542
6244.00,1.2547
6243.00,1.2545
6242.00,1.2536
6241.00,1.2522
6240.00,1.2506
6239.00,1.2486
6238.00,1.2463
6237.00,1.2438
6236.00,1.2410
6235.00,1.2378
6234.00,1.2342
6233.00,1.2302
6232.00,1.2258
6231.00,1.2212
6230.00,1.2164
6229.00,1.2115
6228.00,1.2061
6227.00,1.2001
6226.00,1.1934
6225.00,1.1864
6224.00,1.1790
6223.00,1.1714
6222.00,1.1632
6221.00,1.1544
6220.00,1.1451
6219.00,1.1355
6218.00,1.1255
6217.00,1.1153
6216.00,1.1049
6215.00,1.0945
6214.00,1.0843
6213.00,1.0739
6212.00,1.0632
6211.00,1.0518
6210.00,1.0399
6209.00,1.0274
6208.00,1.0144
6207.00,1.0010
6206.00,0.9874
6205.00,0.9741
6204.00,0.9609
6203.00,0.9478
6202.00,0.9349
6201.00,0.9222
6200.00,0.9098
6199.00,0.8975
6198.00,0.8852
6197.00,0.8733
6196.00,0.8615
6195.00,0.8501
6194.00,0.8389
6193.00,0.8280
6192.00,0.8176
6191.00,0.8078
6190.00,0.7987
6189.00,0.7904
6188.00,0.7828
6187.00,0.7760
6186.00,0.7698
6185.00,0.7644
6184.00,0.7597
6183.00,0.7558
6182.00,0.7527
6181.00,0.7506
6180.00,0.7495
6179.00,0.7494
6178.00,0.7501
6177.00,0.7518
6176.00,0.7544
6175.00,0.7577
6174.00,0.7618
6173.00,0.7667
6172.00,0.7723
6171.00,0.7787
6170.00,0.7857
6169.00,0.7935
6168.00,0.8020
6167.00,0.8113
6166.00,0.8213
6165.00,0.8319
6164.00,0.8429
6163.00,0.8544
6162.00,0.8661
6161.00,0.8781
6160.00,0.8903
6159.00,0.9029
6158.00,0.9157
6157.00,0.9288
6156.00,0.9422
6155.00,0.9557
6154.00,0.9692
6153.00,0.9828
6152.00,0.9965
6151.00,1.0100
6150.00,1.0233
6149.00,1.0364
6148.00,1.0494
6147.00,1.0626
6146.00,1.0756
6145.00,1.0883
6144.00,1.1004
6143.00,1.1120
6142.00,1.1229
6141.00,1.1334
6140.00,1.1437
6139.00,1.1542
6138.00,1.1651
6137.00,1.1760
6136.00,1.1864
6135.00,1.1961
6134.00,1.2050
6133.00,1.2132
6132.00,1.2208
6131.00,1.2278
6130.00,1.2347
6129.00,1.2412
6128.00,1.2474
6127.00,1.2530
6126.00,1.2581
6125.00,1.2630
6124.00,1.2674
6123.00,1.2715
6122.00,1.2752
6121.00,1.2785
6120.00,1.2814
6119.00,1.2837
6118.00,1.2853
6117.00,1.2864
6116.00,1.2871
6115.00,1.2874
6114.00,1.2876
6113.00,1.2877
6112.00,1.2876
6111.00,1.2870
6110.00,1.2857
6109.00,1.2834
6108.00,1.2803
6107.00,1.2767
6106.00,1.2727
6105.00,1.2686
6104.00,1.2644
6103.00,1.2600
6102.00,1.2551
6101.00,1.2497
6100.00,1.2436
6099.00,1.2370
6098.00,1.2299
6097.00,1.2226
6096.00,1.2150
6095.00,1.2067
6094.00,1.1980
6093.00,1.1889
6092.00,1.1794
6091.00,1.1695
6090.00,1.1591
6089.00,1.1484
6088.00,1.1373
6087.00,1.1259
6086.00,1.1140
6085.00,1.1018
6084.00,1.0893
6083.00,1.0767
6082.00,1.0637
6081.00,1.0504
6080.00,1.0369
6079.00,1.0232
6078.00,1.0094
6077.00,0.9956
6076.00,0.9817
6075.00,0.9677
6074.00,0.9539
6073.00,0.9400
6072.00,0.9262
6071.00,0.9126
6070.00,0.8992
6069.00,0.8860
6068.00,0.8731
6067.00,0.8604
6066.00,0.8482
6065.00,0.8365
6064.00,0.8255
6063.00,0.8152
6062.00,0.8056
6061.00,0.7966
6060.00,0.7882
6059.00,0.7804
6058.00,0.7732
6057.00,0.7667
6056.00,0.7610
6055.00,0.7560
6054.00,0.7521
6053.00,0.7492
6052.00,0.7474
6051.00,0.7466
6050.00,0.7468
6049.00,0.7480
6048.00,0.7502
6047.00,0.7531
6046.00,0.7569
6045.00,0.7615
6044.00,0.7670
6043.00,0.7733
6042.00,0.7804
6041.00,0.7881
6040.00,0.7965
6039.00,0.8056
6038.00,0.8153
6037.00,0.8256
6036.00,0.8364
6035.00,0.8477
6034.00,0.8594
6033.00,0.8715
6032.00,0.8838
6031.00,0.8963
6030.00,0.9093
6029.00,0.9225
6028.00,0.9359
6027.00,0.9494
6026.00,0.9628
6025.00,0.9764
6024.00,0.9900
6023.00,1.0037
6022.00,1.0174
6021.00,1.0312
6020.00,1.0447
6019.00,1.0579
6018.00,1.0707
6017.00,1.0834
6016.00,1.0959
6015.00,1.1082
6014.00,1.1203
6013.00,1.1324
6012.00,1.1442
6011.00,1.1555
6010.00,1.1662
6009.00,1.1762
6008.00,1.1857
6007.00,1.1950
6006.00,1.2041
6005.00,1.2130
6004.00,1.2217
6003.00,1.2300
6002.00,1.2380
6001.00,1.2455
6000.00,1.2524
5999.00,1.2585
5998.00,1.2639
5997.00,1.2688
5996.00,1.2737
5995.00,1.2784
5994.00,1.2830
5993.00,1.2871
5992.00,1.2907
5991.00,1.2937
5990.00,1.2958
5989.00,1.2972
5988.00,1.2978
5987.00,1.2980
5986.00,1.2981
5985.00,1.2983
5984.00,1.2982
5983.00,1.2977
5982.00,1.2968
5981.00,1.2956
5980.00,1.2941
5979.00,1.2920
5978.00,1.2891
5977.00,1.2858
5976.00,1.2819
5975.00,1.2773
5974.00,1.2718
5973.00,1.2658
5972.00,1.2597
5971.00,1.2537
5970.00,1.2474
5969.00,1.2406
5968.00,1.2333
5967.00,1.2254
5966.00,1.2169
5965.00,1.2078
5964.00,1.1981
5963.00,1.1881
5962.00,1.1778
5961.00,1.1671
5960.00,1.1560
5959.00,1.1444
5958.00,1.1325
5957.00,1.1202
5956.00,1.1076
5955.00,1.0947
5954.00,1.0818
5953.00,1.0687
5952.00,1.0550
5951.00,1.0410
5950.00,1.0266
5949.00,1.0121
5948.00,0.9974
5947.00,0.9829
5946.00,0.9687
5945.00,0.9547
5944.00,0.9409
5943.00,0.9272
5942.00,0.9134
5941.00,0.8997
5940.00,0.8862
5939.00,0.8731
5938.00,0.8604
5937.00,0.8482
5936.00,0.8366
5935.00,0.8255
5934.00,0.8151
5933.00,0.8053
5932.00,0.7962
5931.00,0.7877
5930.00,0.7802
5929.00,0.7735
5928.00,0.7677
5927.00,0.7627
5926.00,0.7587
5925.00,0.7558
5924.00,0.7538
5923.00,0.7527
5922.00,0.7527
5921.00,0.7537
5920.00,0.7557
5919.00,0.7587
5918.00,0.7626
5917.00,0.7675
5916.00,0.7733
5915.00,0.7800
5914.00,0.7875
5913.00,0.7957
5912.00,0.8048
5911.00,0.8144
5910.00,0.8248
5909.00,0.8356
5908.00,0.8470
5907.00,0.8588
5906.00,0.8711
5905.00,0.8839
5904.00,0.8971
5903.00,0.9105
5902.00,0.9243
5901.00,0.9383
5900.00,0.9525
5899.00,0.9667
5898.00,0.9809
5897.00,0.9953
5896.00,1.0099
5895.00,1.0244
5894.00,1.0388
5893.00,1.0529
5892.00,1.0667
5891.00,1.0802
5890.00,1.0936
5889.00,1.1068
5888.00,1.1198
5887.00,1.1326
5886.00,1.1451
5885.00,1.1572
5884.00,1.1689
5883.00,1.1801
5882.00,1.1908
5881.00,1.2014
5880.00,1.2119
5879.00,1.2219
5878.00,1.2314
5877.00,1.2405
5876.00,1.2492
5875.00,1.2576
5874.00,1.2654
5873.00,1.2726
5872.00,1.2793
5871.00,1.2855
5870.00,1.2912
5869.00,1.2963
5868.00,1.3011
5867.00,1.3057
5866.00,1.3098
5865.00,1.3135
5864.00,1.3168
5863.00,1.3195
5862.00,1.3215
5861.00,1.3230
5860.00,1.3241
5859.00,1.3248
5858.00,1.3252
5857.00,1.3253
5856.00,1.3250
5855.00,1.3244
5854.00,1.3232
5853.00,1.3216
5852.00,1.3196
5851.00,1.3170
5850.00,1.3138
5849.00,1.3103
5848.00,1.3065
5847.00,1.3025
5846.00,1.2979
5845.00,1.2927
5844.00,1.2871
5843.00,1.2813
5842.00,1.2751
5841.00,1.2682
5840.00,1.2607
5839.00,1.2527
5838.00,1.2441
5837.00,1.2348
5836.00,1.2248
5835.00,1.2145
5834.00,1.2042
5833.00,1.1938
5832.00,1.1832
5831.00,1.1724
5830.00,1.1612
5829.00,1.1496
5828.00,1.1375
5827.00,1.1250
5826.00,1.1119
5825.00,1.0984
5824.00,1.0846
5823.00,1.0706
5822.00,1.0566
5821.00,1.0424
5820.00,1.0280
5819.00,1.0136
5818.00,0.9992
5817.00,0.9848
5816.00,0.9704
5815.00,0.9561
5814.00,0.9420
5813.00,0.9282
5812.00,0.9146
5811.00,0.9011
5810.00,0.8879
5809.00,0.8749
5808.00,0.8622
5807.00,0.8500
5806.00,0.8384
5805.00,0.8276
5804.00,0.8173
5803.00,0.8079
5802.00,0.7992
5801.00,0.7914
5800.00,0.7844
5799.00,0.7782
5798.00,0.7730
5797.00,0.7688
5796.00,0.7656
5795.00,0.7633
5794.00,0.7620
5793.00,0.7617
5792.00,0.7624
5791.00,0.7640
5790.00,0.7667
5789.00,0.7703
5788.00,0.7749
5787.00,0.7805
5786.00,0.7871
5785.00,0.7944
5784.00,0.8026
5783.00,0.8115
5782.00,0.8212
5781.00,0.8318
5780.00,0.8431
5779.00,0.8550
5778.00,0.8673
5777.00,0.8801
5776.00,0.8932
5775.00,0.9065
5774.00,0.9201
5773.00,0.9341
5772.00,0.9485
5771.00,0.9630
5770.00,0.9778
5769.00,0.9928
5768.00,1.0077
5767.00,1.0225
5766.00,1.0371
5765.00,1.0517
5764.00,1.0661
5763.00,1.0804
5762.00,1.0946
5761.00,1.1087
5760.00,1.1225
5759.00,1.1358
5758.00,1.1487
5757.00,1.1612
5756.00,1.1736
5755.00,1.1856
5754.00,1.1973
5753.00,1.2086
5752.00,1.2195
5751.00,1.2299
5750.00,1.2395
5749.00,1.2485
5748.00,1.2571
5747.00,1.2655
5746.00,1.2737
5745.00,1.2814
5744.00,1.2888
5743.00,1.2958
5742.00,1.3027
5741.00,1.3091
5740.00,1.3148
5739.00,1.3200
5738.00,1.3245
5737.00,1.3284
5736.00,1.3316
5735.00,1.3341
5734.00,1.3363
5733.00,1.3382
5732.00,1.3399
5731.00,1.3415
5730.00,1.3429
5729.00,1.3436
5728.00,1.3434
5727.00,1.3424
5726.00,1.3410
5725.00,1.3392
5724.00,1.3370
5723.00,1.3345
5722.00,1.3320
5721.00,1.3292
5720.00,1.3260
5719.00,1.3222
5718.00,1.3179
5717.00,1.3131
5716.00,1.3079
5715.00,1.3021
5714.00,1.2959
5713.00,1.2893
5712.00,1.2822
5711.00,1.2744
5710.00,1.2660
5709.00,1.2572
5708.00,1.2480
5707.00,1.2382
5706.00,1.2279
5705.00,1.2171
5704.00,1.2059
5703.00,1.1944
5702.00,1.1826
5701.00,1.1706
5700.00,1.1582
5699.00,1.1455
5698.00,1.1324
5697.00,1.1187
5696.00,1.1047
5695.00,1.0904
5694.00,1.0758
5693.00,1.0610
5692.00,1.0461
5691.00,1.0310
5690.00,1.0158
5689.00,1.0005
5688.00,0.9852
5687.00,0.9699
5686.00,0.9546
5685.00,0.9395
5684.00,0.9246
5683.00,0.9099
5682.00,0.8956
5681.00,0.8817
5680.00,0.8682
5679.00,0.8551
5678.00,0.8426
5677.00,0.8307
5676.00,0.8196
5675.00,0.8091
5674.00,0.7994
5673.00,0.7906
5672.00,0.7825
5671.00,0.7753
5670.00,0.7691
5669.00,0.7639
5668.00,0.7598
5667.00,0.7568
5666.00,0.7549
5665.00,0.7540
5664.00,0.7543
5663.00,0.7557
5662.00,0.7582
5661.00,0.7616
5660.00,0.7660
5659.00,0.7714
5658.00,0.7778
5657.00,0.7852
5656.00,0.7935
5655.00,0.8028
5654.00,0.8128
5653.00,0.8235
5652.00,0.8348
5651.00,0.8466
5650.00,0.8590
5649.00,0.8718
5648.00,0.8852
5647.00,0.8988
5646.00,0.9128
5645.00,0.9270
5644.00,0.9414
5643.00,0.9560
5642.00,0.9708
5641.00,0.9857
5640.00,1.0006
5639.00,1.0156
5638.00,1.0305
5637.00,1.0454
5636.00,1.0603
5635.00,1.0750
5634.00,1.0895
5633.00,1.1037
5632.00,1.1177
5631.00,1.1312
5630.00,1.1444
5629.00,1.1571
5628.00,1.1694
5627.00,1.1814
5626.00,1.1932
5625.00,1.2047
5624.00,1.2159
5623.00,1.2266
5622.00,1.2366
5621.00,1.2459
5620.00,1.2546
5619.00,1.2626
5618.00,1.2702
5617.00,1.2776
5616.00,1.2847
5615.00,1.2915
5614.00,1.2976
5613.00,1.3029
5612.00,1.3076
5611.00,1.3116
5610.00,1.3152
5609.00,1.3184
5608.00,1.3214
5607.00,1.3243
5606.00,1.3270
5605.00,1.3293
5604.00,1.3311
5603.00,1.3324
5602.00,1.3332
5601.00,1.3338
5600.00,1.3341
5599.00,1.3341
5598.00,1.3336
5597.00,1.3324
5596.00,1.3307
5595.00,1.3286
5594.00,1.3261
5593.00,1.3231
5592.00,1.3199
5591.00,1.3164
5590.00,1.3127
5589.00,1.3088
5588.00,1.3043
5587.00,1.2991
5586.00,1.2934
5585.00,1.2870
5584.00,1.2800
5583.00,1.2726
5582.00,1.2651
5581.00,1.2575
5580.00,1.2497
5579.00,1.2414
5578.00,1.2323
5577.00,1.2226
5576.00,1.2122
5575.00,1.2013
5574.00,1.1899
5573.00,1.1781
5572.00,1.1660
5571.00,1.1534
5570.00,1.1405
5569.00,1.1270
5568.00,1.1133
5567.00,1.0992
5566.00,1.0848
5565.00,1.0700
5564.00,1.0550
5563.00,1.0398
5562.00,1.0245
5561.00,1.0090
5560.00,0.9934
5559.00,0.9776
5558.00,0.9618
5557.00,0.9461
5556.00,0.9306
5555.00,0.9155
5554.00,0.9008
5553.00,0.8864
5552.00,0.8724
5551.00,0.8587
5550.00,0.8453
5549.00,0.8326
5548.00,0.8205
5547.00,0.8092
5546.00,0.7988
5545.00,0.7891
5544.00,0.7803
5543.00,0.7725
5542.00,0.7657
5541.00,0.7600
5540.00,0.7555
5539.00,0.7521
5538.00,0.7498
5537.00,0.7486
5536.00,0.7485
5535.00,0.7493
5534.00,0.7513
5533.00,0.7545
5532.00,0.7588
5531.00,0.7642
5530.00,0.7706
5529.00,0.7780
5528.00,0.7864
5527.00,0.7957
5526.00,0.8058
5525.00,0.8167
5524.00,0.8283
5523.00,0.8405
5522.00,0.8533
5521.00,0.8667
5520.00,0.8806
5519.00,0.8950
5518.00,0.9098
5517.00,0.9248
5516.00,0.9401
5515.00,0.9556
5514.00,0.9713
5513.00,0.9872
5512.00,1.0032
5511.00,1.0191
5510.00,1.0350
5509.00,1.0507
5508.00,1.0663
5507.00,1.0815
5506.00,1.0965
5505.00,1.1112
5504.00,1.1258
5503.00,1.1402
5502.00,1.1544
5501.00,1.1684
5500.00,1.1819
5499.00,1.1947
5498.00,1.2072
5497.00,1.2192
5496.00,1.2310
5495.00,1.2423
5494.00,1.2531
5493.00,1.2635
5492.00,1.2732
5491.00,1.2822
5490.00,1.2906
5489.00,1.2986
5488.00,1.3064
5487.00,1.3140
5486.00,1.3212
5485.00,1.3279
5484.00,1.3340
5483.00,1.3397
5482.00,1.3450
5481.00,1.3499
5480.00,1.3542
5479.00,1.3576
5478.00,1.3601
5477.00,1.3619
5476.00,1.3634
5475.00,1.3650
5474.00,1.3667
5473.00,1.3685
5472.00,1.3698
5471.00,1.3704
5470.00,1.3701
5469.00,1.3690
5468.00,1.3674
5467.00,1.3653
5466.00,1.3631
5465.00,1.3606
5464.00,1.3575
5463.00,1.3537
5462.00,1.3495
5461.00,1.3449
5460.00,1.3398
5459.00,1.3341
5458.00,1.3279
5457.00,1.3215
5456.00,1.3146
5455.00,1.3072
5454.00,1.2994
5453.00,1.2913
5452.00,1.2828
5451.00,1.2735
5450.00,1.2635
5449.00,1.2530
5448.00,1.2419
5447.00,1.2301
5446.00,1.2178
5445.00,1.2052
5444.00,1.1923
5443.00,1.1789
5442.00,1.1650
5441.00,1.1508
5440.00,1.1364
5439.00,1.1219
5438.00,1.1072
5437.00,1.0921
5436.00,1.0765
5435.00,1.0603
5434.00,1.0438
5433.00,1.0273
5432.00,1.0110
5431.00,0.9947
5430.00,0.9781
5429.00,0.9614
5428.00,0.9447
5427.00,0.9281
5426.00,0.9119
5425.00,0.8961
5424.00,0.8809
5423.00,0.8662
5422.00,0.8521
5421.00,0.8385
5420.00,0.8256
5419.00,0.8135
5418.00,0.8022
5417.00,0.7917
5416.00,0.7819
5415.00,0.7730
5414.00,0.7650
5413.00,0.7580
5412.00,0.7521
5411.00,0.7473
5410.00,0.7438
5409.00,0.7415
5408.00,0.7405
5407.00,0.7409
5406.00,0.7424
5405.00,0.7452
5404.00,0.7492
5403.00,0.7542
5402.00,0.7604
5401.00,0.7676
5400.00,0.7757
5399.00,0.7848
5398.00,0.7948
5397.00,0.8056
5396.00,0.8171
5395.00,0.8293
5394.00,0.8421
5393.00,0.8555
5392.00,0.8695
5391.00,0.8840
5390.00,0.8989
5389.00,0.9141
5388.00,0.9295
5387.00,0.9452
5386.00,0.9613
5385.00,0.9775
5384.00,0.9938
5383.00,1.0100
5382.00,1.0263
5381.00,1.0424
5380.00,1.0584
5379.00,1.0743
5378.00,1.0902
5377.00,1.1059
5376.00,1.1213
5375.00,1.1364
5374.00,1.1512
5373.00,1.1656
5372.00,1.1796
5371.00,1.1933
5370.00,1.2067
5369.00,1.2196
5368.00,1.2320
5367.00,1.2439
5366.00,1.2553
5365.00,1.2663
5364.00,1.2768
5363.00,1.2868
5362.00,1.2961
5361.00,1.3049
5360.00,1.3130
5359.00,1.3206
5358.00,1.3281
5357.00,1.3353
5356.00,1.3423
5355.00,1.3486
5354.00,1.3543
5353.00,1.3594
5352.00,1.3642
5351.00,1.3684
5350.00,1.3720
5349.00,1.3751
5348.00,1.3778
5347.00,1.3802
5346.00,1.3820
5345.00,1.3833
5344.00,1.3843
5343.00,1.3848
5342.00,1.3848
5341.00,1.3842
5340.00,1.3830
5339.00,1.3814
5338.00,1.3796
5337.00,1.3775
5336.00,1.3750
5335.00,1.3718
5334.00,1.3680
5333.00,1.3636
5332.00,1.3588
5331.00,1.3538
5330.00,1.3483
5329.00,1.3422
5328.00,1.3356
5327.00,1.3284
5326.00,1.3207
5325.00,1.3126
5324.00,1.3040
5323.00,1.2950
5322.00,1.2855
5321.00,1.2752
5320.00,1.2644
5319.00,1.2532
5318.00,1.2415
5317.00,1.2291
5316.00,1.2160
5315.00,1.2025
5314.00,1.1888
5313.00,1.1747
5312.00,1.1603
5311.00,1.1456
5310.00,1.1306
5309.00,1.1150
5308.00,1.0989
5307.00,1.0823
5306.00,1.0654
5305.00,1.0483
5304.00,1.0313
5303.00,1.0142
5302.00,0.9971
5301.00,0.9802
5300.00,0.9632
5299.00,0.9464
5298.00,0.9299
5297.00,0.9136
5296.00,0.8976
5295.00,0.8820
5294.00,0.8672
5293.00,0.8530
5292.00,0.8394
5291.00,0.8264
5290.00,0.8141
5289.00,0.8028
5288.00,0.7924
5287.00,0.7829
5286.00,0.7745
5285.00,0.7673
5284.00,0.7612
5283.00,0.7564
5282.00,0.7528
5281.00,0.7505
5280.00,0.7494
5279.00,0.7497
5278.00,0.7512
5277.00,0.7541
5276.00,0.7581
5275.00,0.7633
5274.00,0.7697
5273.00,0.7772
5272.00,0.7858
5271.00,0.7953
5270.00,0.8058
5269.00,0.8173
5268.00,0.8297
5267.00,0.8428
5266.00,0.8565
5265.00,0.8707
5264.00,0.8856
5263.00,0.9011
5262.00,0.9170
5261.00,0.9335
5260.00,0.9502
5259.00,0.9670
5258.00,0.9839
5257.00,1.0008
5256.00,1.0177
5255.00,1.0347
5254.00,1.0518
5253.00,1.0688
5252.00,1.0857
5251.00,1.1024
5250.00,1.1188
5249.00,1.1351
5248.00,1.1511
5247.00,1.1667
5246.00,1.1818
5245.00,1.1964
5244.00,1.2104
5243.00,1.2241
5242.00,1.2375
5241.00,1.2505
5240.00,1.2630
5239.00,1.2750
5238.00,1.2865
5237.00,1.2976
5236.00,1.3083
5235.00,1.3185
5234.00,1.3280
5233.00,1.3368
5232.00,1.3447
5231.00,1.3521
5230.00,1.3593
5229.00,1.3665
5228.00,1.3738
5227.00,1.3807
5226.00,1.3869
5225.00,1.3923
5224.00,1.3966
5223.00,1.4002
5222.00,1.4035
5221.00,1.4066
5220.00,1.4096
5219.00,1.4121
5218.00,1.4140
5217.00,1.4155
5216.00,1.4163
5215.00,1.4165
5214.00,1.4159
5213.00,1.4149
5212.00,1.4134
5211.00,1.4117
5210.00,1.4100
5209.00,1.4083
5208.00,1.4062
5207.00,1.4034
5206.00,1.3997
5205.00,1.3952
5204.00,1.3902
5203.00,1.3847
5202.00,1.3788
5201.00,1.3726
5200.00,1.3660
5199.00,1.3588
5198.00,1.3509
5197.00,1.3426
5196.00,1.3338
5195.00,1.3246
5194.00,1.3151
5193.00,1.3050
5192.00,1.2944
5191.00,1.2832
5190.00,1.2715
5189.00,1.2593
5188.00,1.2465
5187.00,1.2330
5186.00,1.2188
5185.00,1.2042
5184.00,1.1890
5183.00,1.1736
5182.00,1.1579
5181.00,1.1420
5180.00,1.1258
5179.00,1.1092
5178.00,1.0922
5177.00,1.0750
5176.00,1.0575
5175.00,1.0397
5174.00,1.0218
5173.00,1.0039
5172.00,0.9859
5171.00,0.9681
5170.00,0.9504
5169.00,0.9330
5168.00,0.9159
5167.00,0.8993
5166.00,0.8832
5165.00,0.8676
5164.00,0.8525
5163.00,0.8381
5162.00,0.8245
5161.00,0.8117
5160.00,0.7999
5159.00,0.7891
5158.00,0.7793
5157.00,0.7706
5156.00,0.7631
5155.00,0.7568
5154.00,0.7519
5153.00,0.7484
5152.00,0.7462
5151.00,0.7453
5150.00,0.7458
5149.00,0.7477
5148.00,0.7508
5147.00,0.7553
5146.00,0.7610
5145.00,0.7680
5144.00,0.7761
5143.00,0.7853
5142.00,0.7955
5141.00,0.8068
5140.00,0.8190
5139.00,0.8321
5138.00,0.8459
5137.00,0.8605
5136.00,0.8756
5135.00,0.8913
5134.00,0.9074
5133.00,0.9239
5132.00,0.9408
5131.00,0.9581
5130.00,0.9757
5129.00,0.9935
5128.00,1.0112
5127.00,1.0289
5126.00,1.0464
5125.00,1.0638
5124.00,1.0812
5123.00,1.0985
5122.00,1.1156
5121.00,1.1325
5120.00,1.1491
5119.00,1.1654
5118.00,1.1814
5117.00,1.1969
5116.00,1.2119
5115.00,1.2265
5114.00,1.2407
5113.00,1.2544
5112.00,1.2677
5111.00,1.2804
5110.00,1.2925
5109.00,1.3041
5108.00,1.3152
5107.00,1.3260
5106.00,1.3363
5105.00,1.3460
5104.00,1.3553
5103.00,1.3640
5102.00,1.3722
5101.00,1.3798
5100.00,1.3870
5099.00,1.3939
5098.00,1.4004
5097.00,1.4064
5096.00,1.4120
5095.00,1.4170
5094.00,1.4213
5093.00,1.4249
5092.00,1.4278
5091.00,1.4300
5090.00,1.4318
5089.00,1.4333
5088.00,1.4344
5087.00,1.4353
5086.00,1.4360
5085.00,1.4362
5084.00,1.4360
5083.00,1.4352
5082.00,1.4338
5081.00,1.4318
5080.00,1.4293
5079.00,1.4263
5078.00,1.4231
5077.00,1.4195
5076.00,1.4154
5075.00,1.4106
5074.00,1.4050
5073.00,1.3987
5072.00,1.3921
5071.00,1.3851
5070.00,1.3778
5069.00,1.3700
5068.00,1.3615
5067.00,1.3525
5066.00,1.3429
5065.00,1.3329
5064.00,1.3225
5063.00,1.3115
5062.00,1.2997
5061.00,1.2873
5060.00,1.2743
5059.00,1.2608
5058.00,1.2469
5057.00,1.2325
5056.00,1.2175
5055.00,1.2020
5054.00,1.1861
5053.00,1.1698
5052.00,1.1530
5051.00,1.1358
5050.00,1.1181
5049.00,1.1001
5048.00,1.0819
5047.00,1.0634
5046.00,1.0447
5045.00,1.0259
5044.00,1.0071
5043.00,0.9883
5042.00,0.9698
5041.00,0.9514
5040.00,0.9332
5039.00,0.9152
5038.00,0.8977
5037.00,0.8808
5036.00,0.8645
5035.00,0.8491
5034.00,0.8345
5033.00,0.8208
5032.00,0.8079
5031.00,0.7961
5030.00,0.7853
5029.00,0.7756
5028.00,0.7672
5027.00,0.7602
5026.00,0.7546
5025.00,0.7504
5024.00,0.7477
5023.00,0.7464
5022.00,0.7466
5021.00,0.7482
5020.00,0.7512
5019.00,0.7556
5018.00,0.7615
5017.00,0.7687
5016.00,0.7772
5015.00,0.7870
5014.00,0.7980
5013.00,0.8101
5012.00,0.8231
5011.00,0.8370
5010.00,0.8517
5009.00,0.8671
5008.00,0.8832
5007.00,0.8999
5006.00,0.9171
5005.00,0.9347
5004.00,0.9527
5003.00,0.9709
5002.00,0.9893
5001.00,1.0079
5000.00,1.0266
4999.00,1.0452
4998.00,1.0637
4997.00,1.0821
4996.00,1.1005
4995.00,1.1186
4994.00,1.1366
4993.00,1.1544
4992.00,1.1718
4991.00,1.1888
4990.00,1.2054
4989.00,1.2215
4988.00,1.2373
4987.00,1.2524
4986.00,1.2669
4985.00,1.2809
4984.00,1.2945
4983.00,1.3078
4982.00,1.3205
4981.00,1.3327
4980.00,1.3445
4979.00,1.3559
4978.00,1.3667
4977.00,1.3768
4976.00,1.3860
4975.00,1.3942
4974.00,1.4016
4973.00,1.4085
4972.00,1.4154
4971.00,1.4222
4970.00,1.4287
4969.00,1.4347
4968.00,1.4400
4967.00,1.4446
4966.00,1.4486
4965.00,1.4522
4964.00,1.4556
4963.00,1.4586
4962.00,1.4610
4961.00,1.4626
4960.00,1.4637
4959.00,1.4643
4958.00,1.4645
4957.00,1.4643
4956.00,1.4636
4955.00,1.4625
4954.00,1.4608
4953.00,1.4587
4952.00,1.4562
4951.00,1.4533
4950.00,1.4498
4949.00,1.4456
4948.00,1.4409
4947.00,1.4355
4946.00,1.4297
4945.00,1.4235
4944.00,1.4170
4943.00,1.4102
4942.00,1.4031
4941.00,1.3955
4940.00,1.3872
4939.00,1.3782
4938.00,1.3685
4937.00,1.3581
4936.00,1.3471
4935.00,1.3355
4934.00,1.3234
4933.00,1.3108
4932.00,1.2977
4931.00,1.2841
4930.00,1.2700
4929.00,1.2552
4928.00,1.2398
4927.00,1.2238
4926.00,1.2073
4925.00,1.1903
4924.00,1.1728
4923.00,1.1549
4922.00,1.1367
4921.00,1.1180
4920.00,1.0990
4919.00,1.0796
4918.00,1.0601
4917.00,1.0404
4916.00,1.0207
4915.00,1.0010
4914.00,0.9813
4913.00,0.9617
4912.00,0.9424
4911.00,0.9234
4910.00,0.9049
4909.00,0.8868
4908.00,0.8693
4907.00,0.8524
4906.00,0.8364
4905.00,0.8213
4904.00,0.8072
4903.00,0.7942
4902.00,0.7824
4901.00,0.7719
4900.00,0.7628
4899.00,0.7549
4898.00,0.7486
4897.00,0.7437
4896.00,0.7404
4895.00,0.7386
4894.00,0.7385
4893.00,0.7399
4892.00,0.7428
4891.00,0.7473
4890.00,0.7533
4889.00,0.7609
4888.00,0.7699
4887.00,0.7803
4886.00,0.7918
4885.00,0.8044
4884.00,0.8181
4883.00,0.8326
4882.00,0.8481
4881.00,0.8644
4880.00,0.8814
4879.00,0.8991
4878.00,0.9174
4877.00,0.9361
4876.00,0.9551
4875.00,0.9744
4874.00,0.9938
4873.00,1.0135
4872.00,1.0332
4871.00,1.0531
4870.00,1.0729
4869.00,1.0926
4868.00,1.1119
4867.00,1.1308
4866.00,1.1495
4865.00,1.1679
4864.00,1.1861
4863.00,1.2040
4862.00,1.2214
4861.00,1.2383
4860.00,1.2546
4859.00,1.2701
4858.00,1.2851
4857.00,1.2997
4856.00,1.3140
4855.00,1.3277
4854.00,1.3408
4853.00,1.3531
4852.00,1.3647
4851.00,1.3758
4850.00,1.3867
4849.00,1.3973
4848.00,1.4073
4847.00,1.4165
4846.00,1.4248
4845.00,1.4324
4844.00,1.4397
4843.00,1.4466
4842.00,1.4532
4841.00,1.4594
4840.00,1.4651
4839.00,1.4702
4838.00,1.4748
4837.00,1.4788
4836.00,1.4824
4835.00,1.4855
4834.00,1.4881
4833.00,1.4902
4832.00,1.4917
4831.00,1.4926
4830.00,1.4929
4829.00,1.4929
4828.00,1.4925
4827.00,1.4917
4826.00,1.4905
4825.00,1.4889
4824.00,1.4868
4823.00,1.4842
4822.00,1.4810
4821.00,1.4773
4820.00,1.4731
4819.00,1.4682
4818.00,1.4627
4817.00,1.4566
4816.00,1.4500
4815.00,1.4429
4814.00,1.4356
4813.00,1.4278
4812.00,1.4196
4811.00,1.4107
4810.00,1.4011
4809.00,1.3908
4808.00,1.3798
4807.00,1.3682
4806.00,1.3560
4805.00,1.3432
4804.00,1.3299
4803.00,1.3161
4802.00,1.3017
4801.00,1.2866
4800.00,1.2708
4799.00,1.2545
4798.00,1.2378
4797.00,1.2206
4796.00,1.2029
4795.00,1.1847
4794.00,1.1660
4793.00,1.1467
4792.00,1.1269
4791.00,1.1068
4790.00,1.0864
4789.00,1.0659
4788.00,1.0453
4787.00,1.0245
4786.00,1.0038
4785.00,0.9832
4784.00,0.9629
4783.00,0.9429
4782.00,0.9234
4781.00,0.9045
4780.00,0.8862
4779.00,0.8685
4778.00,0.8516
4777.00,0.8356
4776.00,0.8206
4775.00,0.8067
4774.00,0.7941
4773.00,0.7829
4772.00,0.7731
4771.00,0.7647
4770.00,0.7579
4769.00,0.7527
4768.00,0.7492
4767.00,0.7473
4766.00,0.7472
4765.00,0.7488
4764.00,0.7521
4763.00,0.7570
4762.00,0.7635
4761.00,0.7716
4760.00,0.7810
4759.00,0.7919
4758.00,0.8041
4757.00,0.8176
4756.00,0.8322
4755.00,0.8479
4754.00,0.8643
4753.00,0.8816
4752.00,0.8996
4751.00,0.9182
4750.00,0.9374
4749.00,0.9572
4748.00,0.9773
4747.00,0.9977
4746.00,1.0183
4745.00,1.0391
4744.00,1.0598
4743.00,1.0806
4742.00,1.1012
4741.00,1.1217
4740.00,1.1420
4739.00,1.1619
4738.00,1.1814
4737.00,1.2005
4736.00,1.2193
4735.00,1.2376
4734.00,1.2553
4733.00,1.2725
4732.00,1.2892
4731.00,1.3054
4730.00,1.3212
4729.00,1.3363
4728.00,1.3508
4727.00,1.3645
4726.00,1.3776
4725.00,1.3902
4724.00,1.4022
4723.00,1.4135
4722.00,1.4239
4721.00,1.4337
4720.00,1.4431
4719.00,1.4523
4718.00,1.4610
4717.00,1.4693
4716.00,1.4769
4715.00,1.4839
4714.00,1.4902
4713.00,1.4961
4712.00,1.5016
4711.00,1.5065
4710.00,1.5108
4709.00,1.5146
4708.00,1.5179
4707.00,1.5208
4706.00,1.5234
4705.00,1.5255
4704.00,1.5269
4703.00,1.5276
4702.00,1.5275
4701.00,1.5269
4700.00,1.5262
4699.00,1.5252
4698.00,1.5240
4697.00,1.5222
4696.00,1.5195
4695.00,1.5163
4694.00,1.5126
4693.00,1.5087
4692.00,1.5047
4691.00,1.5003
4690.00,1.4951
4689.00,1.4889
4688.00,1.4819
4687.00,1.4745
4686.00,1.4668
4685.00,1.4590
4684.00,1.4509
4683.00,1.4423
4682.00,1.4329
4681.00,1.4227
4680.00,1.4120
4679.00,1.4009
4678.00,1.3892
4677.00,1.3769
4676.00,1.3640
4675.00,1.3504
4674.00,1.3362
4673.00,1.3214
4672.00,1.3060
4671.00,1.2900
4670.00,1.2735
4669.00,1.2563
4668.00,1.2386
4667.00,1.2202
4666.00,1.2013
4665.00,1.1819
4664.00,1.1621
4663.00,1.1419
4662.00,1.1215
4661.00,1.1006
4660.00,1.0793
4659.00,1.0577
4658.00,1.0361
4657.00,1.0145
4656.00,0.9931
4655.00,0.9720
4654.00,0.9512
4653.00,0.9308
4652.00,0.9110
4651.00,0.8917
4650.00,0.8733
4649.00,0.8557
4648.00,0.8393
4647.00,0.8240
4646.00,0.8100
4645.00,0.7973
4644.00,0.7862
4643.00,0.7765
4642.00,0.7686
4641.00,0.7623
4640.00,0.7579
4639.00,0.7552
4638.00,0.7544
4637.00,0.7554
4636.00,0.7583
4635.00,0.7629
4634.00,0.7692
4633.00,0.7772
4632.00,0.7868
4631.00,0.7979
4630.00,0.8105
4629.00,0.8244
4628.00,0.8395
4627.00,0.8557
4626.00,0.8729
4625.00,0.8909
4624.00,0.9097
4623.00,0.9292
4622.00,0.9494
4621.00,0.9701
4620.00,0.9912
4619.00,1.0124
4618.00,1.0338
4617.00,1.0554
4616.00,1.0769
4615.00,1.0986
4614.00,1.1201
4613.00,1.1415
4612.00,1.1626
4611.00,1.1834
4610.00,1.2038
4609.00,1.2238
4608.00,1.2431
4607.00,1.2619
4606.00,1.2800
4605.00,1.2974
4604.00,1.3143
4603.00,1.3308
4602.00,1.3468
4601.00,1.3622
4600.00,1.3770
4599.00,1.3910
4598.00,1.4042
4597.00,1.4170
4596.00,1.4293
4595.00,1.4412
4594.00,1.4525
4593.00,1.4632
4592.00,1.4730
4591.00,1.4821
4590.00,1.4907
4589.00,1.4991
4588.00,1.5071
4587.00,1.5145
4586.00,1.5211
4585.00,1.5269
4584.00,1.5320
4583.00,1.5369
4582.00,1.5417
4581.00,1.5463
4580.00,1.5503
4579.00,1.5534
4578.00,1.5557
4577.00,1.5575
4576.00,1.5589
4575.00,1.5598
4574.00,1.5604
4573.00,1.5606
4572.00,1.5606
4571.00,1.5600
4570.00,1.5588
4569.00,1.5569
4568.00,1.5545
4567.00,1.5515
4566.00,1.5482
4565.00,1.5446
4564.00,1.5404
4563.00,1.5357
4562.00,1.5303
4561.00,1.5245
4560.00,1.5182
4559.00,1.5114
4558.00,1.5040
4557.00,1.4960
4556.00,1.4872
4555.00,1.4776
4554.00,1.4673
4553.00,1.4565
4552.00,1.4453
4551.00,1.4337
4550.00,1.4216
4549.00,1.4089
4548.00,1.3955
4547.00,1.3814
4546.00,1.3667
4545.00,1.3514
4544.00,1.3353
4543.00,1.3185
4542.00,1.3009
4541.00,1.2828
4540.00,1.2641
4539.00,1.2448
4538.00,1.2249
4537.00,1.2044
4536.00,1.1833
4535.00,1.1616
4534.00,1.1396
4533.00,1.1173
4532.00,1.0948
4531.00,1.0722
4530.00,1.0495
4529.00,1.0268
4528.00,1.0042
4527.00,0.9819
4526.00,0.9599
4525.00,0.9384
4524.00,0.9174
4523.00,0.8971
4522.00,0.8778
4521.00,0.8596
4520.00,0.8425
4519.00,0.8267
4518.00,0.8122
4517.00,0.7992
4516.00,0.7877
4515.00,0.7779
4514.00,0.7700
4513.00,0.7639
4512.00,0.7597
4511.00,0.7574
4510.00,0.7571
4509.00,0.7588
4508.00,0.7626
4507.00,0.7682
4506.00,0.7757
4505.00,0.7851
4504.00,0.7961
4503.00,0.8086
4502.00,0.8227
4501.00,0.8382
4500.00,0.8549
4499.00,0.8727
4498.00,0.8915
4497.00,0.9112
4496.00,0.9316
4495.00,0.9527
4494.00,0.9743
4493.00,0.9964
4492.00,1.0189
4491.00,1.0417
4490.00,1.0647
4489.00,1.0878
4488.00,1.1107
4487.00,1.1334
4486.00,1.1558
4485.00,1.1781
4484.00,1.2000
4483.00,1.2215
4482.00,1.2425
4481.00,1.2630
4480.00,1.2830
4479.00,1.3023
4478.00,1.3210
4477.00,1.3389
4476.00,1.3563
4475.00,1.3731
4474.00,1.3893
4473.00,1.4048
4472.00,1.4196
4471.00,1.4336
4470.00,1.4469
4469.00,1.4596
4468.00,1.4719
4467.00,1.4836
4466.00,1.4946
4465.00,1.5051
4464.00,1.5150
4463.00,1.5244
4462.00,1.5334
4461.00,1.5418
4460.00,1.5495
4459.00,1.5565
4458.00,1.5627
4457.00,1.5684
4456.00,1.5735
4455.00,1.5780
4454.00,1.5820
4453.00,1.5856
4452.00,1.5890
4451.00,1.5920
4450.00,1.5944
4449.00,1.5962
4448.00,1.5972
4447.00,1.5977
4446.00,1.5977
4445.00,1.5974
4444.00,1.5968
4443.00,1.5958
4442.00,1.5943
4441.00,1.5922
4440.00,1.5895
4439.00,1.5862
4438.00,1.5824
4437.00,1.5779
4436.00,1.5729
4435.00,1.5674
4434.00,1.5615
4433.00,1.5551
4432.00,1.5482
4431.00,1.5407
4430.00,1.5326
4429.00,1.5238
4428.00,1.5146
4427.00,1.5049
4426.00,1.4946
4425.00,1.4836
4424.00,1.4716
4423.00,1.4589
4422.00,1.4456
4421.00,1.4319
4420.00,1.4177
4419.00,1.4029
4418.00,1.3875
4417.00,1.3713
4416.00,1.3546
4415.00,1.3373
4414.00,1.3194
4413.00,1.3009
4412.00,1.2817
4411.00,1.2619
4410.00,1.2416
4409.00,1.2209
4408.00,1.1997
4407.00,1.1781
4406.00,1.1562
4405.00,1.1342
4404.00,1.1122
4403.00,1.0902
4402.00,1.0685
4401.00,1.0470
4400.00,1.0258
4399.00,1.0052
4398.00,0.9852
4397.00,0.9660
4396.00,0.9476
4395.00,0.9303
4394.00,0.9141
4393.00,0.8992
4392.00,0.8855
4391.00,0.8733
4390.00,0.8625
4389.00,0.8534
4388.00,0.8459
4387.00,0.8402
4386.00,0.8363
4385.00,0.8341
4384.00,0.8337
4383.00,0.8351
4382.00,0.8382
4381.00,0.8430
4380.00,0.8495
4379.00,0.8575
4378.00,0.8670
4377.00,0.8780
4376.00,0.8902
4375.00,0.9037
4374.00,0.9182
4373.00,0.9337
4372.00,0.9501
4371.00,0.9673
4370.00,0.9850
4369.00,1.0034
4368.00,1.0222
4367.00,1.0413
4366.00,1.0607
4365.00,1.0805
4364.00,1.1004
4363.00,1.1206
4362.00,1.1408
4361.00,1.1611
4360.00,1.1814
4359.00,1.2015
4358.00,1.2215
4357.00,1.2412
4356.00,1.2607
4355.00,1.2800
4354.00,1.2991
4353.00,1.3179
4352.00,1.3364
4351.00,1.3544
4350.00,1.3719
4349.00,1.3889
4348.00,1.4053
4347.00,1.4212
4346.00,1.4366
4345.00,1.4514
4344.00,1.4656
4343.00,1.4790
4342.00,1.4918
4341.00,1.5041
4340.00,1.5160
4339.00,1.5275
4338.00,1.5386
4337.00,1.5492
4336.00,1.5591
4335.00,1.5683
4334.00,1.5768
4333.00,1.5849
4332.00,1.5925
4331.00,1.5998
4330.00,1.6066
4329.00,1.6127
4328.00,1.6180
4327.00,1.6228
4326.00,1.6272
4325.00,1.6315
4324.00,1.6356
4323.00,1.6392
4322.00,1.6421
4321.00,1.6445
4320.00,1.6462
4319.00,1.6473
4318.00,1.6479
4317.00,1.6481
4316.00,1.6478
4315.00,1.6469
4314.00,1.6456
4313.00,1.6438
4312.00,1.6417
4311.00,1.6390
4310.00,1.6357
4309.00,1.6318
4308.00,1.6275
4307.00,1.6228
4306.00,1.6178
4305.00,1.6123
4304.00,1.6060
4303.00,1.5989
4302.00,1.5911
4301.00,1.5830
4300.00,1.5745
4299.00,1.5654
4298.00,1.5558
4297.00,1.5456
4296.00,1.5347
4295.00,1.5233
4294.00,1.5114
4293.00,1.4989
4292.00,1.4858
4291.00,1.4720
4290.00,1.4576
4289.00,1.4425
4288.00,1.4268
4287.00,1.4106
4286.00,1.3940
4285.00,1.3770
4284.00,1.3596
4283.00,1.3417
4282.00,1.3232
4281.00,1.3039
4280.00,1.2840
4279.00,1.2634
4278.00,1.2423
4277.00,1.2208
4276.00,1.1990
4275.00,1.1769
4274.00,1.1546
4273.00,1.1322
4272.00,1.1097
4271.00,1.0874
4270.00,1.0652
4269.00,1.0434
4268.00,1.0219
4267.00,1.0009
4266.00,0.9805
4265.00,0.9609
4264.00,0.9421
4263.00,0.9243
4262.00,0.9078
4261.00,0.8926
4260.00,0.8789
4259.00,0.8668
4258.00,0.8564
4257.00,0.8478
4256.00,0.8411
4255.00,0.8364
4254.00,0.8338
4253.00,0.8333
4252.00,0.8350
4251.00,0.8389
4250.00,0.8448
4249.00,0.8527
4248.00,0.8626
4247.00,0.8744
4246.00,0.8880
4245.00,0.9032
4244.00,0.9198
4243.00,0.9378
4242.00,0.9570
4241.00,0.9773
4240.00,0.9986
4239.00,1.0206
4238.00,1.0433
4237.00,1.0666
4236.00,1.0902
4235.00,1.1143
4234.00,1.1385
4233.00,1.1627
4232.00,1.1868
4231.00,1.2107
4230.00,1.2342
4229.00,1.2574
4228.00,1.2802
4227.00,1.3025
4226.00,1.3243
4225.00,1.3456
4224.00,1.3661
4223.00,1.3860
4222.00,1.4052
4221.00,1.4235
4220.00,1.4411
4219.00,1.4579
4218.00,1.4742
4217.00,1.4898
4216.00,1.5047
4215.00,1.5190
4214.00,1.5327
4213.00,1.5459
4212.00,1.5585
4211.00,1.5703
4210.00,1.5813
4209.00,1.5916
4208.00,1.6014
4207.00,1.6107
4206.00,1.6195
4205.00,1.6278
4204.00,1.6356
4203.00,1.6429
4202.00,1.6498
4201.00,1.6562
4200.00,1.6620
4199.00,1.6670
4198.00,1.6715
4197.00,1.6755
4196.00,1.6791
4195.00,1.6823
4194.00,1.6850
4193.00,1.6872
4192.00,1.6888
4191.00,1.6898
4190.00,1.6903
4189.00,1.6901
4188.00,1.6894
4187.00,1.6882
4186.00,1.6867
4185.00,1.6849
4184.00,1.6825
4183.00,1.6796
4182.00,1.6762
4181.00,1.6725
4180.00,1.6685
4179.00,1.6639
4178.00,1.6586
4177.00,1.6526
4176.00,1.6460
4175.00,1.6386
4174.00,1.6306
4173.00,1.6220
4172.00,1.6131
4171.00,1.6037
4170.00,1.5938
4169.00,1.5831
4168.00,1.5718
4167.00,1.5597
4166.00,1.5471
4165.00,1.5340
4164.00,1.5203
4163.00,1.5059
4162.00,1.4909
4161.00,1.4751
4160.00,1.4586
4159.00,1.4414
4158.00,1.4237
4157.00,1.4054
4156.00,1.3865
4155.00,1.3670
4154.00,1.3467
4153.00,1.3258
4152.00,1.3042
4151.00,1.2821
4150.00,1.2595
4149.00,1.2366
4148.00,1.2134
4147.00,1.1899
4146.00,1.1661
4145.00,1.1421
4144.00,1.1180
4143.00,1.0940
4142.00,1.0702
4141.00,1.0468
4140.00,1.0239
4139.00,1.0016
4138.00,0.9802
4137.00,0.9597
4136.00,0.9403
4135.00,0.9222
4134.00,0.9055
4133.00,0.8904
4132.00,0.8770
4131.00,0.8655
4130.00,0.8560
4129.00,0.8486
4128.00,0.8433
4127.00,0.8401
4126.00,0.8391
4125.00,0.8403
4124.00,0.8437
4123.00,0.8494
4122.00,0.8571
4121.00,0.8668
4120.00,0.8785
4119.00,0.8920
4118.00,0.9072
4117.00,0.9240
4116.00,0.9423
4115.00,0.9620
4114.00,0.9828
4113.00,1.0046
4112.00,1.0273
4111.00,1.0506
4110.00,1.0745
4109.00,1.0988
4108.00,1.1234
4107.00,1.1483
4106.00,1.1733
4105.00,1.1983
4104.00,1.2232
4103.00,1.2478
4102.00,1.2721
4101.00,1.2959
4100.00,1.3194
4099.00,1.3423
4098.00,1.3648
4097.00,1.3865
4096.00,1.4075
4095.00,1.4277
4094.00,1.4472
4093.00,1.4661
4092.00,1.4844
4091.00,1.5018
4090.00,1.5185
4089.00,1.5344
4088.00,1.5498
4087.00,1.5646
4086.00,1.5788
4085.00,1.5924
4084.00,1.6053
4083.00,1.6175
4082.00,1.6290
4081.00,1.6399
4080.00,1.6500
4079.00,1.6594
4078.00,1.6682
4077.00,1.6763
4076.00,1.6837
4075.00,1.6907
4074.00,1.6971
4073.00,1.7032
4072.00,1.7089
4071.00,1.7142
4070.00,1.7190
4069.00,1.7235
4068.00,1.7274
4067.00,1.7307
4066.00,1.7335
4065.00,1.7357
4064.00,1.7375
4063.00,1.7385
4062.00,1.7387
4061.00,1.7383
4060.00,1.7376
4059.00,1.7366
4058.00,1.7356
4057.00,1.7342
4056.00,1.7322
4055.00,1.7292
4054.00,1.7255
4053.00,1.7214
4052.00,1.7170
4051.00,1.7124
4050.00,1.7073
4049.00,1.7013
4048.00,1.6945
4047.00,1.6869
4046.00,1.6789
4045.00,1.6706
4044.00,1.6620
4043.00,1.6528
4042.00,1.6427
4041.00,1.6318
4040.00,1.6202
4039.00,1.6082
4038.00,1.5957
4037.00,1.5827
4036.00,1.5688
4035.00,1.5539
4034.00,1.5382
4033.00,1.5217
4032.00,1.5046
4031.00,1.4869
4030.00,1.4683
4029.00,1.4488
4028.00,1.4285
4027.00,1.4073
4026.00,1.3855
4025.00,1.3631
4024.00,1.3400
4023.00,1.3163
4022.00,1.2920
4021.00,1.2672
4020.00,1.2420
4019.00,1.2164
4018.00,1.1905
4017.00,1.1644
4016.00,1.1383
4015.00,1.1123
4014.00,1.0866
4013.00,1.0613
4012.00,1.0365
4011.00,1.0125
4010.00,0.9893
4009.00,0.9671
4008.00,0.9462
4007.00,0.9267
4006.00,0.9088
4005.00,0.8927
4004.00,0.8785
4003.00,0.8664
4002.00,0.8565
4001.00,0.8490
4000.00,0.8439
3999.00,0.8413
3998.00,0.8413
3997.00,0.8438
3996.00,0.8490
3995.00,0.8567
3994.00,0.8669
3993.00,0.8793
3992.00,0.8938
3991.00,0.9104
3990.00,0.9288
3989.00,0.9488
3988.00,0.9704
3987.00,0.9933
3986.00,1.0172
3985.00,1.0422
3984.00,1.0678
3983.00,1.0941
3982.00,1.1208
3981.00,1.1479
3980.00,1.1752
3979.00,1.2023
3978.00,1.2292
3977.00,1.2556
3976.00,1.2817
3975.00,1.3074
3974.00,1.3328
3973.00,1.3577
3972.00,1.3818
3971.00,1.4052
3970.00,1.4279
3969.00,1.4499
3968.00,1.4713
3967.00,1.4920
3966.00,1.5118
3965.00,1.5306
3964.00,1.5486
3963.00,1.5658
3962.00,1.5823
3961.00,1.5981
3960.00,1.6131
3959.00,1.6274
3958.00,1.6410
3957.00,1.6540
3956.00,1.6665
3955.00,1.6784
3954.00,1.6896
3953.00,1.6998
3952.00,1.7092
3951.00,1.7179
3950.00,1.7261
3949.00,1.7340
3948.00,1.7416
3947.00,1.7486
3946.00,1.7547
3945.00,1.7599
3944.00,1.7645
3943.00,1.7686
3942.00,1.7725
3941.00,1.7759
3940.00,1.7791
3939.00,1.7821
3938.00,1.7847
3937.00,1.7868
3936.00,1.7881
3935.00,1.7886
3934.00,1.7884
3933.00,1.7875
3932.00,1.7861
3931.00,1.7840
3930.00,1.7814
3929.00,1.7782
3928.00,1.7746
3927.00,1.7708
3926.00,1.7669
3925.00,1.7626
3924.00,1.7577
3923.00,1.7521
3922.00,1.7458
3921.00,1.7389
3920.00,1.7314
3919.00,1.7230
3918.00,1.7137
3917.00,1.7035
3916.00,1.6925
3915.00,1.6808
3914.00,1.6689
3913.00,1.6567
3912.00,1.6444
3911.00,1.6319
3910.00,1.6190
3909.00,1.6056
3908.00,1.5914
3907.00,1.5761
3906.00,1.5599
3905.00,1.5426
3904.00,1.5240
3903.00,1.5039
3902.00,1.4822
3901.00,1.4597
3900.00,1.4368
3899.00,1.4133
3898.00,1.3895
3897.00,1.3656
3896.00,1.3417
3895.00,1.3174
3894.00,1.2924
3893.00,1.2663
3892.00,1.2392
3891.00,1.2110
3890.00,1.1821
3889.00,1.1532
3888.00,1.1247
3887.00,1.0966
3886.00,1.0684
3885.00,1.0397
3884.00,1.0112
3883.00,0.9842
3882.00,0.9595
3881.00,0.9371
3880.00,0.9164
3879.00,0.8969
3878.00,0.8789
3877.00,0.8633
3876.00,0.8509
3875.00,0.8420
3874.00,0.8359
3873.00,0.8317
3872.00,0.8296
3871.00,0.8310
3870.00,0.8362
3869.00,0.8436
3868.00,0.8521
3867.00,0.8624
3866.00,0.8758
3865.00,0.8931
3864.00,0.9136
3863.00,0.9360
3862.00,0.9596
3861.00,0.9846
3860.00,1.0112
3859.00,1.0393
3858.00,1.0679
3857.00,1.0952
3856.00,1.1204
3855.00,1.1458
3854.00,1.1746
3853.00,1.2067
3852.00,1.2395
3851.00,1.2709
3850.00,1.3004
3849.00,1.3286
3848.00,1.3554
3847.00,1.3810
3846.00,1.4055
3845.00,1.4294
3844.00,1.4531
3843.00,1.4763
3842.00,1.4984
3841.00,1.5195
3840.00,1.5401
3839.00,1.5607
3838.00,1.5813
3837.00,1.6010
3836.00,1.6191
3835.00,1.6355
3834.00,1.6511
3833.00,1.6666
3832.00,1.6819
3831.00,1.6962
3830.00,1.7091
3829.00,1.7207
3828.00,1.7318
3827.00,1.7433
3826.00,1.7548
3825.00,1.7652
3824.00,1.7732
3823.00,1.7801
3822.00,1.7880
3821.00,1.7969
3820.00,1.8048
3819.00,1.8107
3818.00,1.8154
3817.00,1.8200
3816.00,1.8246
3815.00,1.8283
3814.00,1.8312
3813.00,1.8342
3812.00,1.8374
3811.00,1.8405
3810.00,1.8426
3809.00,1.8436
3808.00,1.8443
3807.00,1.8448
3806.00,1.8442
3805.00,1.8418
3804.00,1.8378
3803.00,1.8341
3802.00,1.8313
3801.00,1.8280
3800.00,1.8230
3799.00,1.8172
3798.00,1.8119
3797.00,1.8071
3796.00,1.8021
3795.00,1.7959
3794.00,1.7886
3793.00,1.7803
3792.00,1.7714
3791.00,1.7623
3790.00,1.7530
3789.00,1.7430
3788.00,1.7317
3787.00,1.7193
3786.00,1.7064
3785.00,1.6930
3784.00,1.6790
3783.00,1.6639
3782.00,1.6476
3781.00,1.6305
3780.00,1.6129
3779.00,1.5945
3778.00,1.5750
3777.00,1.5544
3776.00,1.5331
3775.00,1.5117
3774.00,1.4897
3773.00,1.4665
3772.00,1.4419
3771.00,1.4162
3770.00,1.3891
3769.00,1.3603
3768.00,1.3303
3767.00,1.2998
3766.00,1.2694
3765.00,1.2388
3764.00,1.2079
3763.00,1.1771
3762.00,1.1466
3761.00,1.1163
3760.00,1.0862
3759.00,1.0567
3758.00,1.0283
3757.00,1.0019
3756.00,0.9778
3755.00,0.9560
3754.00,0.9362
3753.00,0.9178
3752.00,0.9009
3751.00,0.8860
3750.00,0.8739
3749.00,0.8650
3748.00,0.8596
3747.00,0.8577
3746.00,0.8599
3745.00,0.8665
3744.00,0.8757
3743.00,0.8857
3742.00,0.8969
3741.00,0.9107
3740.00,0.9275
3739.00,0.9463
3738.00,0.9659
3737.00,0.9868
3736.00,1.0094
3735.00,1.0334
3734.00,1.0580
3733.00,1.0835
3732.00,1.1103
3731.00,1.1379
3730.00,1.1651
3729.00,1.1915
3728.00,1.2182
3727.00,1.2460
3726.00,1.2748
3725.00,1.3043
3724.00,1.3347
3723.00,1.3661
3722.00,1.3982
3721.00,1.4310
3720.00,1.4642
3719.00,1.4978
3718.00,1.5315
3717.00,1.5645
3716.00,1.5948
3715.00,1.6201
3714.00,1.6393
3713.00,1.6538
3712.00,1.6659
3711.00,1.6772
3710.00,1.6882
3709.00,1.6993
3708.00,1.7110
3707.00,1.7226
3706.00,1.7339
3705.00,1.7449
3704.00,1.7560
3703.00,1.7675
3702.00,1.7790
3701.00,1.7904
3700.00,1.8014
3699.00,1.8117
3698.00,1.8217
3697.00,1.8318
3696.00,1.8418
3695.00,1.8506
3694.00,1.8578
3693.00,1.8638
3692.00,1.8691
3691.00,1.8743
3690.00,1.8798
3689.00,1.8851
3688.00,1.8891
3687.00,1.8910
3686.00,1.8916
3685.00,1.8923
3684.00,1.8936
3683.00,1.8949
3682.00,1.8956
3681.00,1.8958
3680.00,1.8955
3679.00,1.8937
3678.00,1.8898
3677.00,1.8856
3676.00,1.8823
3675.00,1.8787
3674.00,1.8734
3673.00,1.8667
3672.00,1.8597
3671.00,1.8532
3670.00,1.8466
3669.00,1.8392
3668.00,1.8307
3667.00,1.8217
3666.00,1.8124
3665.00,1.8028
3664.00,1.7927
3663.00,1.7817
3662.00,1.7701
3661.00,1.7582
3660.00,1.7457
3659.00,1.7321
3658.00,1.7176
3657.00,1.7022
3656.00,1.6860
3655.00,1.6689
3654.00,1.6515
3653.00,1.6342
3652.00,1.6168
3651.00,1.5991
3650.00,1.5805
3649.00,1.5611
3648.00,1.5410
3647.00,1.5211
3646.00,1.5021
3645.00,1.4845
3644.00,1.4682
3643.00,1.4526
3642.00,1.4373
3641.00,1.4218
3640.00,1.4064
3639.00,1.3913
3638.00,1.3765
3637.00,1.3621
3636.00,1.3484
3635.00,1.3359
3634.00,1.3250
3633.00,1.3153
3632.00,1.3060
3631.00,1.2969
3630.00,1.2888
3629.00,1.2820
3628.00,1.2760
3627.00,1.2711
3626.00,1.2689
3625.00,1.2704
3624.00,1.2753
3623.00,1.2825
3622.00,1.2913
3621.00,1.3019
3620.00,1.3147
3619.00,1.3296
3618.00,1.3460
3617.00,1.3636
3616.00,1.3822
3615.00,1.4021
3614.00,1.4228
3613.00,1.4428
3612.00,1.4602
3611.00,1.4744
3610.00,1.4865
3609.00,1.4984
3608.00,1.5113
3607.00,1.5252
3606.00,1.5399
3605.00,1.5552
3604.00,1.5710
3603.00,1.5874
3602.00,1.6043
3601.00,1.6221
3600.00,1.6406
3599.00,1.6594
3598.00,1.6780
3597.00,1.6965
3596.00,1.7147
3595.00,1.7328
3594.00,1.7508
3593.00,1.7689
3592.00,1.7868
3591.00,1.8036
3590.00,1.8190
3589.00,1.8337
3588.00,1.8485
3587.00,1.8633
3586.00,1.8777
3585.00,1.8914
3584.00,1.9045
3583.00,1.9168
3582.00,1.9287
3581.00,1.9404
3580.00,1.9517
3579.00,1.9623
3578.00,1.9721
3577.00,1.9814
3576.00,1.9904
3575.00,1.9990
3574.00,2.0073
3573.00,2.0156
3572.00,2.0236
3571.00,2.0303
3570.00,2.0353
3569.00,2.0392
3568.00,2.0429
3567.00,2.0468
3566.00,2.0503
3565.00,2.0537
3564.00,2.0572
3563.00,2.0609
3562.00,2.0645
3561.00,2.0679
3560.00,2.0706
3559.00,2.0726
3558.00,2.0741
3557.00,2.0756
3556.00,2.0769
3555.00,2.0776
3554.00,2.0778
3553.00,2.0775
3552.00,2.0766
3551.00,2.0749
3550.00,2.0729
3549.00,2.0711
3548.00,2.0692
3547.00,2.0665
3546.00,2.0627
3545.00,2.0585
3544.00,2.0545
3543.00,2.0509
3542.00,2.0472
3541.00,2.0431
3540.00,2.0384
3539.00,2.0334
3538.00,2.0284
3537.00,2.0234
3536.00,2.0183
3535.00,2.0125
3534.00,2.0062
3533.00,1.9993
3532.00,1.9918
3531.00,1.9836
3530.00,1.9752
3529.00,1.9671
3528.00,1.9591
3527.00,1.9506
3526.00,1.9416
3525.00,1.9323
3524.00,1.9232
3523.00,1.9143
3522.00,1.9051
3521.00,1.8956
3520.00,1.8856
3519.00,1.8753
3518.00,1.8650
3517.00,1.8547
3516.00,1.8443
3515.00,1.8333
3514.00,1.8222
3513.00,1.8110
3512.00,1.8000
3511.00,1.7888
3510.00,1.7773
3509.00,1.7655
3508.00,1.7537
3507.00,1.7421
3506.00,1.7308
3505.00,1.7198
3504.00,1.7092
3503.00,1.6988
3502.00,1.6884
3501.00,1.6782
3500.00,1.6681
3499.00,1.6585
3498.00,1.6495
3497.00,1.6412
3496.00,1.6338
3495.00,1.6271
3494.00,1.6213
3493.00,1.6163
3492.00,1.6119
3491.00,1.6079
3490.00,1.6045
3489.00,1.6020
3488.00,1.6007
3487.00,1.6005
3486.00,1.6013
3485.00,1.6030
3484.00,1.6054
3483.00,1.6088
3482.00,1.6132
3481.00,1.6188
3480.00,1.6254
3479.00,1.6328
3478.00,1.6409
3477.00,1.6497
3476.00,1.6591
3475.00,1.6691
3474.00,1.6798
3473.00,1.6911
3472.00,1.7029
3471.00,1.7150
3470.00,1.7275
3469.00,1.7404
3468.00,1.7536
3467.00,1.7668
3466.00,1.7799
3465.00,1.7932
3464.00,1.8065
3463.00,1.8201
3462.00,1.8338
3461.00,1.8477
3460.00,1.8614
3459.00,1.8746
3458.00,1.8875
3457.00,1.9004
3456.00,1.9133
3455.00,1.9258
3454.00,1.9378
3453.00,1.9495
3452.00,1.9609
3451.00,1.9722
3450.00,1.9835
3449.00,1.9947
3448.00,2.0056
3447.00,2.0155
3446.00,2.0242
3445.00,2.0321
3444.00,2.0400
3443.00,2.0481
3442.00,2.0563
3441.00,2.0644
3440.00,2.0717
3439.00,2.0782
3438.00,2.0844
3437.00,2.0908
3436.00,2.0971
3435.00,2.1029
3434.00,2.1079
3433.00,2.1122
3432.00,2.1158
3431.00,2.1189
3430.00,2.1219
3429.00,2.1252
3428.00,2.1287
3427.00,2.1322
3426.00,2.1353
3425.00,2.1377
3424.00,2.1392
3423.00,2.1397
3422.00,2.1399
3421.00,2.1403
3420.00,2.1409
3419.00,2.1411
3418.00,2.1405
3417.00,2.1395
3416.00,2.1383
3415.00,2.1368
3414.00,2.1350
3413.00,2.1330
3412.00,2.1309
3411.00,2.1287
3410.00,2.1266
3409.00,2.1245
3408.00,2.1220
3407.00,2.1184
3406.00,2.1135
3405.00,2.1077
3404.00,2.1013
3403.00,2.0943
3402.00,2.0867
3401.00,2.0786
3400.00,2.0703
3399.00,2.0615
3398.00,2.0523
3397.00,2.0424
3396.00,2.0319
3395.00,2.0206
3394.00,2.0087
3393.00,1.9963
3392.00,1.9830
3391.00,1.9686
3390.00,1.9536
3389.00,1.9384
3388.00,1.9231
3387.00,1.9076
3386.00,1.8915
3385.00,1.8747
3384.00,1.8573
3383.00,1.8394
3382.00,1.8210
3381.00,1.8023
3380.00,1.7831
3379.00,1.7637
3378.00,1.7441
3377.00,1.7244
3376.00,1.7045
3375.00,1.6844
3374.00,1.6641
3373.00,1.6441
3372.00,1.6245
3371.00,1.6056
3370.00,1.5872
3369.00,1.5693
3368.00,1.5521
3367.00,1.5356
3366.00,1.5203
3365.00,1.5064
3364.00,1.4938
3363.00,1.4826
3362.00,1.4729
3361.00,1.4649
3360.00,1.4587
3359.00,1.4542
3358.00,1.4514
3357.00,1.4503
3356.00,1.4511
3355.00,1.4538
3354.00,1.4584
3353.00,1.4648
3352.00,1.4726
3351.00,1.4820
3350.00,1.4929
3349.00,1.5052
3348.00,1.5189
3347.00,1.5335
3346.00,1.5491
3345.00,1.5655
3344.00,1.5828
3343.00,1.6008
3342.00,1.6193
3341.00,1.6380
3340.00,1.6571
3339.00,1.6763
3338.00,1.6958
3337.00,1.7154
3336.00,1.7350
3335.00,1.7543
3334.00,1.7733
3333.00,1.7922
3332.00,1.8110
3331.00,1.8296
3330.00,1.8477
3329.00,1.8653
3328.00,1.8824
3327.00,1.8989
3326.00,1.9148
3325.00,1.9300
3324.00,1.9448
3323.00,1.9591
3322.00,1.9730
3321.00,1.9865
3320.00,1.9994
3319.00,2.0116
3318.00,2.0232
3317.00,2.0342
3316.00,2.0445
3315.00,2.0542
3314.00,2.0634
3313.00,2.0725
3312.00,2.0811
3311.00,2.0888
3310.00,2.0958
3309.00,2.1024
3308.00,2.1088
3307.00,2.1146
3306.00,2.1199
3305.00,2.1249
3304.00,2.1295
3303.00,2.1338
3302.00,2.1377
3301.00,2.1414
3300.00,2.1445
3299.00,2.1468
3298.00,2.1483
3297.00,2.1491
3296.00,2.1492
3295.00,2.1485
3294.00,2.1469
3293.00,2.1451
3292.00,2.1434
3291.00,2.1417
3290.00,2.1400
3289.00,2.1380
3288.00,2.1354
3287.00,2.1321
3286.00,2.1281
3285.00,2.1235
3284.00,2.1183
3283.00,2.1123
3282.00,2.1057
3281.00,2.0988
3280.00,2.0918
3279.00,2.0847
3278.00,2.0776
3277.00,2.0700
3276.00,2.0613
3275.00,2.0511
3274.00,2.0401
3273.00,2.0289
3272.00,2.0178
3271.00,2.0066
3270.00,1.9949
3269.00,1.9828
3268.00,1.9702
3267.00,1.9568
3266.00,1.9429
3265.00,1.9285
3264.00,1.9137
3263.00,1.8984
3262.00,1.8825
3261.00,1.8663
3260.00,1.8498
3259.00,1.8328
3258.00,1.8154
3257.00,1.7980
3256.00,1.7804
3255.00,1.7626
3254.00,1.7445
3253.00,1.7263
3252.00,1.7084
3251.00,1.6907
3250.00,1.6734
3249.00,1.6562
3248.00,1.6393
3247.00,1.6228
3246.00,1.6073
3245.00,1.5929
3244.00,1.5795
3243.00,1.5670
3242.00,1.5554
3241.00,1.5449
3240.00,1.5357
3239.00,1.5278
3238.00,1.5214
3237.00,1.5167
3236.00,1.5136
3235.00,1.5120
3234.00,1.5119
3233.00,1.5133
3232.00,1.5165
3231.00,1.5215
3230.00,1.5282
3229.00,1.5366
3228.00,1.5463
3227.00,1.5572
3226.00,1.5692
3225.00,1.5824
3224.00,1.5969
3223.00,1.6122
3222.00,1.6281
3221.00,1.6447
3220.00,1.6618
3219.00,1.6796
3218.00,1.6981
3217.00,1.7170
3216.00,1.7361
3215.00,1.7554
3214.00,1.7746
3213.00,1.7936
3212.00,1.8123
3211.00,1.8306
3210.00,1.8488
3209.00,1.8669
3208.00,1.8848
3207.00,1.9024
3206.00,1.9197
3205.00,1.9369
3204.00,1.9538
3203.00,1.9701
3202.00,1.9855
3201.00,2.0000
3200.00,2.0138
3199.00,2.0269
3198.00,2.0396
3197.00,2.0523
3196.00,2.0648
3195.00,2.0769
3194.00,2.0885
3193.00,2.0998
3192.00,2.1105
3191.00,2.1206
3190.00,2.1302
3189.00,2.1393
3188.00,2.1478
3187.00,2.1553
3186.00,2.1621
3185.00,2.1685
3184.00,2.1745
3183.00,2.1804
3182.00,2.1866
3181.00,2.1934
3180.00,2.2003
3179.00,2.2059
3178.00,2.2098
3177.00,2.2124
3176.00,2.2143
3175.00,2.2156
3174.00,2.2161
3173.00,2.2165
3172.00,2.2170
3171.00,2.2176
3170.00,2.2178
3169.00,2.2174
3168.00,2.2164
3167.00,2.2147
3166.00,2.2124
3165.00,2.2094
3164.00,2.2059
3163.00,2.2021
3162.00,2.1981
3161.00,2.1942
3160.00,2.1899
3159.00,2.1848
3158.00,2.1787
3157.00,2.1722
3156.00,2.1652
3155.00,2.1576
3154.00,2.1493
3153.00,2.1406
3152.00,2.1315
3151.00,2.1221
3150.00,2.1126
3149.00,2.1029
3148.00,2.0926
3147.00,2.0815
3146.00,2.0693
3145.00,2.0562
3144.00,2.0424
3143.00,2.0282
3142.00,2.0135
3141.00,1.9984
3140.00,1.9827
3139.00,1.9662
3138.00,1.9491
3137.00,1.9315
3136.00,1.9136
3135.00,1.8955
3134.00,1.8773
3133.00,1.8586
3132.00,1.8392
3131.00,1.8192
3130.00,1.7990
3129.00,1.7790
3128.00,1.7595
3127.00,1.7405
3126.00,1.7218
3125.00,1.7033
3124.00,1.6851
3123.00,1.6675
3122.00,1.6508
3121.00,1.6353
3120.00,1.6209
3119.00,1.6077
3118.00,1.5957
3117.00,1.5853
3116.00,1.5766
3115.00,1.5698
3114.00,1.5650
3113.00,1.5621
3112.00,1.5612
3111.00,1.5622
3110.00,1.5652
3109.00,1.5702
3108.00,1.5772
3107.00,1.5859
3106.00,1.5964
3105.00,1.6084
3104.00,1.6219
3103.00,1.6367
3102.00,1.6528
3101.00,1.6701
3100.00,1.6885
3099.00,1.7077
3098.00,1.7276
3097.00,1.7482
3096.00,1.7695
3095.00,1.7910
3094.00,1.8124
3093.00,1.8336
3092.00,1.8548
3091.00,1.8757
3090.00,1.8964
3089.00,1.9168
3088.00,1.9368
3087.00,1.9562
3086.00,1.9750
3085.00,1.9934
3084.00,2.0113
3083.00,2.0285
3082.00,2.0451
3081.00,2.0614
3080.00,2.0776
3079.00,2.0936
3078.00,2.1088
3077.00,2.1227
3076.00,2.1353
3075.00,2.1470
3074.00,2.1580
3073.00,2.1687
3072.00,2.1786
3071.00,2.1879
3070.00,2.1971
3069.00,2.2068
3068.00,2.2170
3067.00,2.2264
3066.00,2.2345
3065.00,2.2414
3064.00,2.2475
3063.00,2.2532
3062.00,2.2586
3061.00,2.2641
3060.00,2.2698
3059.00,2.2748
3058.00,2.2784
3057.00,2.2804
3056.00,2.2810
3055.00,2.2804
3054.00,2.2789
3053.00,2.2769
3052.00,2.2749
3051.00,2.2731
3050.00,2.2713
3049.00,2.2694
3048.00,2.2670
3047.00,2.2640
3046.00,2.2599
3045.00,2.2544
3044.00,2.2472
3043.00,2.2385
3042.00,2.2284
3041.00,2.2177
3040.00,2.2065
3039.00,2.1949
3038.00,2.1827
3037.00,2.1697
3036.00,2.1559
3035.00,2.1413
3034.00,2.1262
3033.00,2.1104
3032.00,2.0939
3031.00,2.0765
3030.00,2.0581
3029.00,2.0388
3028.00,2.0186
3027.00,1.9976
3026.00,1.9761
3025.00,1.9541
3024.00,1.9317
3023.00,1.9089
3022.00,1.8861
3021.00,1.8639
3020.00,1.8423
3019.00,1.8214
3018.00,1.8015
3017.00,1.7829
3016.00,1.7662
3015.00,1.7517
3014.00,1.7398
3013.00,1.7311
3012.00,1.7258
3011.00,1.7243
3010.00,1.7269
3009.00,1.7337
3008.00,1.7444
3007.00,1.7590
3006.00,1.7773
3005.00,1.7991
3004.00,1.8242
3003.00,1.8522
3002.00,1.8828
3001.00,1.9155
3000.00,1.9498
2999.00,1.9852
2998.00,2.0214
2997.00,2.0581
2996.00,2.0946
2995.00,2.1303
2994.00,2.1650
2993.00,2.1989
2992.00,2.2319
2991.00,2.2638
2990.00,2.2948
2989.00,2.3253
2988.00,2.3554
2987.00,2.3850
2986.00,2.4139
2985.00,2.4419
2984.00,2.4684
2983.00,2.4933
2982.00,2.5173
2981.00,2.5420
2980.00,2.5679
2979.00,2.5948
2978.00,2.6229
2977.00,2.6531
2976.00,2.6868
2975.00,2.7248
2974.00,2.7684
2973.00,2.8191
2972.00,2.8772
2971.00,2.9423
2970.00,3.0149
2969.00,3.0958
2968.00,3.1828
2967.00,3.2699
2966.00,3.3531
2965.00,3.4366
2964.00,3.5275
2963.00,3.6254
2962.00,3.7205
2961.00,3.8049
2960.00,3.8780
2959.00,3.9436
2958.00,3.9968
2957.00,4.0172
2956.00,4.0085
2955.00,4.0033
2954.00,4.0274
2953.00,4.0802
2952.00,4.1403
2951.00,4.1957
2950.00,4.2215
2949.00,4.1847
2948.00,4.0972
2947.00,4.0162
2946.00,3.9944
2945.00,4.0549
2944.00,4.1993
2943.00,4.4123
2942.00,4.6996
2941.00,4.8747
2940.00,4.6768
2939.00,4.4632
2938.00,4.3466
2937.00,4.3172
2936.00,4.3213
2935.00,4.3728
2934.00,4.4630
2933.00,4.4549
2932.00,4.3568
2931.00,4.2843
2930.00,4.3060
2929.00,4.4021
2928.00,4.5453
2927.00,4.6365
2926.00,4.4690
2925.00,4.2510
2924.00,4.1010
2923.00,4.0282
2922.00,3.9906
2921.00,3.9657
2920.00,3.9346
2919.00,3.8579
2918.00,3.7492
2917.00,3.6446
2916.00,3.5617
2915.00,3.4968
2914.00,3.4383
2913.00,3.3780
2912.00,3.3167
2911.00,3.2608
2910.00,3.2163
2909.00,3.1830
2908.00,3.1558
2907.00,3.1303
2906.00,3.1042
2905.00,3.0767
2904.00,3.0469
2903.00,3.0168
2902.00,2.9902
2901.00,2.9694
2900.00,2.9529
2899.00,2.9387
2898.00,2.9258
2897.00,2.9139
2896.00,2.9015
2895.00,2.8874
2894.00,2.8729
2893.00,2.8607
2892.00,2.8522
2891.00,2.8469
2890.00,2.8443
2889.00,2.8441
2888.00,2.8458
2887.00,2.8495
2886.00,2.8563
2885.00,2.8676
2884.00,2.8833
2883.00,2.9021
2882.00,2.9229
2881.00,2.9456
2880.00,2.9702
2879.00,2.9974
2878.00,3.0284
2877.00,3.0638
2876.00,3.1021
2875.00,3.1420
2874.00,3.1861
2873.00,3.2383
2872.00,3.2999
2871.00,3.3691
2870.00,3.4453
2869.00,3.5290
2868.00,3.6161
2867.00,3.6966
2866.00,3.7652
2865.00,3.8240
2864.00,3.8668
2863.00,3.8774
2862.00,3.8534
2861.00,3.8114
2860.00,3.7600
2859.00,3.6952
2858.00,3.6145
2857.00,3.5216
2856.00,3.4209
2855.00,3.3159
2854.00,3.2106
2853.00,3.1084
2852.00,3.0118
2851.00,2.9234
2850.00,2.8458
2849.00,2.7797
2848.00,2.7241
2847.00,2.6775
2846.00,2.6393
2845.00,2.6085
2844.00,2.5841
2843.00,2.5650
2842.00,2.5508
2841.00,2.5407
2840.00,2.5328
2839.00,2.5251
2838.00,2.5171
2837.00,2.5093
2836.00,2.5020
2835.00,2.4948
2834.00,2.4873
2833.00,2.4796
2832.00,2.4715
2831.00,2.4627
2830.00,2.4528
2829.00,2.4411
2828.00,2.4276
2827.00,2.4123
2826.00,2.3964
2825.00,2.3803
2824.00,2.3635
2823.00,2.3448
2822.00,2.3232
2821.00,2.2991
2820.00,2.2729
2819.00,2.2455
2818.00,2.2169
2817.00,2.1869
2816.00,2.1549
2815.00,2.1207
2814.00,2.0851
2813.00,2.0489
2812.00,2.0122
2811.00,1.9750
2810.00,1.9371
2809.00,1.8985
2808.00,1.8595
2807.00,1.8206
2806.00,1.7825
2805.00,1.7465
2804.00,1.7133
2803.00,1.6838
2802.00,1.6584
2801.00,1.6375
2800.00,1.6210
2799.00,1.6086
2798.00,1.5998
2797.00,1.5939
2796.00,1.5906
2795.00,1.5897
2794.00,1.5912
2793.00,1.5955
2792.00,1.6031
2791.00,1.6142
2790.00,1.6292
2789.00,1.6482
2788.00,1.6709
2787.00,1.6969
2786.00,1.7257
2785.00,1.7565
2784.00,1.7889
2783.00,1.8222
2782.00,1.8559
2781.00,1.8895
2780.00,1.9226
2779.00,1.9547
2778.00,1.9854
2777.00,2.0147
2776.00,2.0429
2775.00,2.0701
2774.00,2.0965
2773.00,2.1218
2772.00,2.1454
2771.00,2.1671
2770.00,2.1875
2769.00,2.2073
2768.00,2.2268
2767.00,2.2455
2766.00,2.2630
2765.00,2.2793
2764.00,2.2943
2763.00,2.3082
2762.00,2.3211
2761.00,2.3331
2760.00,2.3444
2759.00,2.3548
2758.00,2.3641
2757.00,2.3723
2756.00,2.3796
2755.00,2.3862
2754.00,2.3925
2753.00,2.3988
2752.00,2.4050
2751.00,2.4106
2750.00,2.4148
2749.00,2.4175
2748.00,2.4189
2747.00,2.4200
2746.00,2.4213
2745.00,2.4223
2744.00,2.4220
2743.00,2.4204
2742.00,2.4184
2741.00,2.4164
2740.00,2.4142
2739.00,2.4110
2738.00,2.4071
2737.00,2.4023
2736.00,2.3965
2735.00,2.3891
2734.00,2.3808
2733.00,2.3719
2732.00,2.3624
2731.00,2.3521
2730.00,2.3414
2729.00,2.3308
2728.00,2.3201
2727.00,2.3085
2726.00,2.2955
2725.00,2.2812
2724.00,2.2657
2723.00,2.2491
2722.00,2.2313
2721.00,2.2126
2720.00,2.1933
2719.00,2.1736
2718.00,2.1533
2717.00,2.1318
2716.00,2.1085
2715.00,2.0832
2714.00,2.0563
2713.00,2.0284
2712.00,1.9999
2711.00,1.9703
2710.00,1.9394
2709.00,1.9070
2708.00,1.8730
2707.00,1.8376
2706.00,1.8010
2705.00,1.7637
2704.00,1.7258
2703.00,1.6875
2702.00,1.6494
2701.00,1.6121
2700.00,1.5763
2699.00,1.5422
2698.00,1.5103
2697.00,1.4811
2696.00,1.4552
2695.00,1.4332
2694.00,1.4156
2693.00,1.4027
2692.00,1.3951
2691.00,1.3928
2690.00,1.3963
2689.00,1.4055
2688.00,1.4205
2687.00,1.4407
2686.00,1.4659
2685.00,1.4953
2684.00,1.5283
2683.00,1.5639
2682.00,1.6012
2681.00,1.6392
2680.00,1.6770
2679.00,1.7141
2678.00,1.7499
2677.00,1.7839
2676.00,1.8158
2675.00,1.8457
2674.00,1.8739
2673.00,1.9008
2672.00,1.9263
2671.00,1.9506
2670.00,1.9737
2669.00,1.9956
2668.00,2.0166
2667.00,2.0368
2666.00,2.0566
2665.00,2.0765
2664.00,2.0968
2663.00,2.1172
2662.00,2.1375
2661.00,2.1576
2660.00,2.1775
2659.00,2.1975
2658.00,2.2180
2657.00,2.2389
2656.00,2.2593
2655.00,2.2783
2654.00,2.2958
2653.00,2.3126
2652.00,2.3286
2651.00,2.3431
2650.00,2.3558
2649.00,2.3669
2648.00,2.3776
2647.00,2.3884
2646.00,2.3989
2645.00,2.4092
2644.00,2.4189
2643.00,2.4282
2642.00,2.4370
2641.00,2.4451
2640.00,2.4525
2639.00,2.4590
2638.00,2.4650
2637.00,2.4707
2636.00,2.4764
2635.00,2.4820
2634.00,2.4871
2633.00,2.4909
2632.00,2.4931
2631.00,2.4942
2630.00,2.4953
2629.00,2.4972
2628.00,2.4995
2627.00,2.5012
2626.00,2.5018
2625.00,2.5013
2624.00,2.4997
2623.00,2.4973
2622.00,2.4947
2621.00,2.4922
2620.00,2.4890
2619.00,2.4846
2618.00,2.4788
2617.00,2.4725
2616.00,2.4664
2615.00,2.4603
2614.00,2.4539
2613.00,2.4475
2612.00,2.4408
2611.00,2.4336
2610.00,2.4257
2609.00,2.4164
2608.00,2.4056
2607.00,2.3932
2606.00,2.3798
2605.00,2.3661
2604.00,2.3522
2603.00,2.3379
2602.00,2.3226
2601.00,2.3060
2600.00,2.2882
2599.00,2.2690
2598.00,2.2489
2597.00,2.2279
2596.00,2.2058
2595.00,2.1826
2594.00,2.1584
2593.00,2.1334
2592.00,2.1076
2591.00,2.0804
2590.00,2.0517
2589.00,2.0217
2588.00,1.9909
2587.00,1.9591
2586.00,1.9260
2585.00,1.8913
2584.00,1.8552
2583.00,1.8178
2582.00,1.7796
2581.00,1.7406
2580.00,1.7012
2579.00,1.6619
2578.00,1.6234
2577.00,1.5860
2576.00,1.5504
2575.00,1.5169
2574.00,1.4858
2573.00,1.4575
2572.00,1.4326
2571.00,1.4116
2570.00,1.3949
2569.00,1.3827
2568.00,1.3751
2567.00,1.3723
2566.00,1.3743
2565.00,1.3814
2564.00,1.3933
2563.00,1.4099
2562.00,1.4307
2561.00,1.4555
2560.00,1.4839
2559.00,1.5155
2558.00,1.5498
2557.00,1.5865
2556.00,1.6250
2555.00,1.6650
2554.00,1.7058
2553.00,1.7471
2552.00,1.7882
2551.00,1.8287
2550.00,1.8683
2549.00,1.9069
2548.00,1.9443
2547.00,1.9803
2546.00,2.0146
2545.00,2.0472
2544.00,2.0780
2543.00,2.1070
2542.00,2.1347
2541.00,2.1614
2540.00,2.1875
2539.00,2.2127
2538.00,2.2365
2537.00,2.2589
2536.00,2.2804
2535.00,2.3010
2534.00,2.3209
2533.00,2.3396
2532.00,2.3567
2531.00,2.3724
2530.00,2.3875
2529.00,2.4027
2528.00,2.4175
2527.00,2.4310
2526.00,2.4430
2525.00,2.4540
2524.00,2.4655
2523.00,2.4775
2522.00,2.4893
2521.00,2.4993
2520.00,2.5069
2519.00,2.5128
2518.00,2.5184
2517.00,2.5246
2516.00,2.5310
2515.00,2.5369
2514.00,2.5425
2513.00,2.5484
2512.00,2.5544
2511.00,2.5599
2510.00,2.5646
2509.00,2.5687
2508.00,2.5721
2507.00,2.5743
2506.00,2.5751
2505.00,2.5753
2504.00,2.5757
2503.00,2.5760
2502.00,2.5757
2501.00,2.5741
2500.00,2.5711
2499.00,2.5668
2498.00,2.5622
2497.00,2.5580
2496.00,2.5546
2495.00,2.5515
2494.00,2.5476
2493.00,2.5422
2492.00,2.5347
2491.00,2.5255
2490.00,2.5155
2489.00,2.5060
2488.00,2.4975
2487.00,2.4895
2486.00,2.4810
2485.00,2.4708
2484.00,2.4588
2483.00,2.4455
2482.00,2.4316
2481.00,2.4174
2480.00,2.4025
2479.00,2.3868
2478.00,2.3703
2477.00,2.3529
2476.00,2.3348
2475.00,2.3159
2474.00,2.2960
2473.00,2.2749
2472.00,2.2521
2471.00,2.2277
2470.00,2.2021
2469.00,2.1758
2468.00,2.1485
2467.00,2.1201
2466.00,2.0903
2465.00,2.0588
2464.00,2.0254
2463.00,1.9900
2462.00,1.9527
2461.00,1.9135
2460.00,1.8726
2459.00,1.8299
2458.00,1.7858
2457.00,1.7405
2456.00,1.6945
2455.00,1.6484
2454.00,1.6028
2453.00,1.5582
2452.00,1.5154
2451.00,1.4748
2450.00,1.4370
2449.00,1.4029
2448.00,1.3729
2447.00,1.3479
2446.00,1.3285
2445.00,1.3153
2444.00,1.3089
2443.00,1.3094
2442.00,1.3169
2441.00,1.3312
2440.00,1.3519
2439.00,1.3785
2438.00,1.4101
2437.00,1.4463
2436.00,1.4863
2435.00,1.5294
2434.00,1.5750
2433.00,1.6222
2432.00,1.6704
2431.00,1.7188
2430.00,1.7668
2429.00,1.8137
2428.00,1.8591
2427.00,1.9026
2426.00,1.9445
2425.00,1.9849
2424.00,2.0235
2423.00,2.0601
2422.00,2.0944
2421.00,2.1265
2420.00,2.1570
2419.00,2.1862
2418.00,2.2146
2417.00,2.2423
2416.00,2.2688
2415.00,2.2940
2414.00,2.3177
2413.00,2.3402
2412.00,2.3616
2411.00,2.3819
2410.00,2.4012
2409.00,2.4198
2408.00,2.4376
2407.00,2.4545
2406.00,2.4702
2405.00,2.4848
2404.00,2.4985
2403.00,2.5119
2402.00,2.5251
2401.00,2.5378
2400.00,2.5494
2399.00,2.5595
2398.00,2.5690
2397.00,2.5788
2396.00,2.5889
2395.00,2.5988
2394.00,2.6083
2393.00,2.6175
2392.00,2.6267
2391.00,2.6355
2390.00,2.6464
2389.00,2.6572
2388.00,2.6756
2387.00,2.6869
2386.00,2.6445
2385.00,2.6518
2384.00,2.6537
2383.00,2.6582
2382.00,2.6606
2381.00,2.6632
2380.00,2.6652
2379.00,2.6675
2378.00,2.6696
2377.00,2.6711
2376.00,2.6716
2375.00,2.6711
2374.00,2.6691
2373.00,2.6651
2372.00,2.6592
2371.00,2.6528
2370.00,2.6478
2369.00,2.6449
2368.00,2.6428
2367.00,2.6398
2366.00,2.6350
2365.00,2.6284
2364.00,2.6206
2363.00,2.6118
2362.00,2.6021
2361.00,2.5919
2360.00,2.5811
2359.00,2.5695
2358.00,2.5571
2357.00,2.5424
2356.00,2.5263
2355.00,2.5069
2354.00,2.4888
2353.00,2.4634
2352.00,2.4002
2351.00,2.3648
2350.00,2.3380
2349.00,2.3210
2348.00,2.3078
2347.00,2.2879
2346.00,2.2558
2345.00,2.2210
2344.00,2.1967
2343.00,2.1792
2342.00,2.1593
2341.00,2.1372
2340.00,2.1147
2339.00,2.0923
2338.00,2.0702
2337.00,2.0521
2336.00,2.0405
2335.00,2.0354
2334.00,2.0332
2333.00,2.0309
2332.00,2.0270
2331.00,2.0232
2330.00,2.0184
2329.00,2.0109
2328.00,2.0009
2327.00,1.9919
2326.00,1.9886
2325.00,1.9889
2324.00,1.9883
2323.00,1.9825
2322.00,1.9739
2321.00,1.9679
2320.00,1.9667
2319.00,1.9697
2318.00,1.9729
2317.00,1.9758
2316.00,1.9775
2315.00,1.9801
2314.00,1.9841
2313.00,1.9915
2312.00,2.0026
2311.00,2.0181
2310.00,2.0370
2309.00,2.0592
2308.00,2.0840
2307.00,2.1108
2306.00,2.1377
2305.00,2.1635
2304.00,2.1867
2303.00,2.2078
2302.00,2.2273
2301.00,2.2466
2300.00,2.2657
2299.00,2.2845
2298.00,2.3028
2297.00,2.3203
2296.00,2.3369
2295.00,2.3522
2294.00,2.3664
2293.00,2.3803
2292.00,2.3953
2291.00,2.4130
2290.00,2.4334
2289.00,2.4549
2288.00,2.4751
2287.00,2.4929
2286.00,2.5096
2285.00,2.5265
2284.00,2.5432
2283.00,2.5581
2282.00,2.5700
2281.00,2.5791
2280.00,2.5866
2279.00,2.5936
2278.00,2.6007
2277.00,2.6086
2276.00,2.6169
2275.00,2.6257
2274.00,2.6346
2273.00,2.6432
2272.00,2.6508
2271.00,2.6576
2270.00,2.6647
2269.00,2.6728
2268.00,2.6814
2267.00,2.6899
2266.00,2.6980
2265.00,2.7063
2264.00,2.7143
2263.00,2.7208
2262.00,2.7250
2261.00,2.7273
2260.00,2.7286
2259.00,2.7304
2258.00,2.7337
2257.00,2.7386
2256.00,2.7433
2255.00,2.7461
2254.00,2.7464
2253.00,2.7447
2252.00,2.7417
2251.00,2.7386
2250.00,2.7365
2249.00,2.7352
2248.00,2.7333
2247.00,2.7303
2246.00,2.7266
2245.00,2.7225
2244.00,2.7171
2243.00,2.7095
2242.00,2.7003
2241.00,2.6906
2240.00,2.6803
2239.00,2.6686
2238.00,2.6562
2237.00,2.6444
2236.00,2.6340
2235.00,2.6239
2234.00,2.6130
2233.00,2.6008
2232.00,2.5873
2231.00,2.5723
2230.00,2.5557
2229.00,2.5374
2228.00,2.5177
2227.00,2.4970
2226.00,2.4762
2225.00,2.4555
2224.00,2.4344
2223.00,2.4114
2222.00,2.3862
2221.00,2.3592
2220.00,2.3309
2219.00,2.3011
2218.00,2.2699
2217.00,2.2373
2216.00,2.2037
2215.00,2.1688
2214.00,2.1319
2213.00,2.0924
2212.00,2.0502
2211.00,2.0055
2210.00,1.9589
2209.00,1.9105
2208.00,1.8605
2207.00,1.8095
2206.00,1.7581
2205.00,1.7072
2204.00,1.6576
2203.00,1.6098
2202.00,1.5648
2201.00,1.5236
2200.00,1.4871
2199.00,1.4562
2198.00,1.4319
2197.00,1.4151
2196.00,1.4064
2195.00,1.4063
2194.00,1.4149
2193.00,1.4321
2192.00,1.4574
2191.00,1.4898
2190.00,1.5283
2189.00,1.5717
2188.00,1.6190
2187.00,1.6691
2186.00,1.7208
2185.00,1.7733
2184.00,1.8259
2183.00,1.8781
2182.00,1.9293
2181.00,1.9790
2180.00,2.0264
2179.00,2.0713
2178.00,2.1138
2177.00,2.1538
2176.00,2.1911
2175.00,2.2256
2174.00,2.2582
2173.00,2.2895
2172.00,2.3200
2171.00,2.3493
2170.00,2.3771
2169.00,2.4036
2168.00,2.4294
2167.00,2.4545
2166.00,2.4785
2165.00,2.5011
2164.00,2.5227
2163.00,2.5440
2162.00,2.5654
2161.00,2.5864
2160.00,2.6060
2159.00,2.6241
2158.00,2.6411
2157.00,2.6573
2156.00,2.6724
2155.00,2.6857
2154.00,2.6972
2153.00,2.7081
2152.00,2.7193
2151.00,2.7315
2150.00,2.7445
2149.00,2.7574
2148.00,2.7691
2147.00,2.7787
2146.00,2.7859
2145.00,2.7916
2144.00,2.7973
2143.00,2.8050
2142.00,2.8152
2141.00,2.8254
2140.00,2.8317
2139.00,2.8332
2138.00,2.8330
2137.00,2.8352
2136.00,2.8408
2135.00,2.8471
2134.00,2.8503
2133.00,2.8490
2132.00,2.8445
2131.00,2.8396
2130.00,2.8365
2129.00,2.8352
2128.00,2.8343
2127.00,2.8334
2126.00,2.8330
2125.00,2.8331
2124.00,2.8318
2123.00,2.8274
2122.00,2.8201
2121.00,2.8116
2120.00,2.8034
2119.00,2.7955
2118.00,2.7872
2117.00,2.7784
2116.00,2.7689
2115.00,2.7592
2114.00,2.7488
2113.00,2.7373
2112.00,2.7244
2111.00,2.7108
2110.00,2.6976
2109.00,2.6848
2108.00,2.6715
2107.00,2.6573
2106.00,2.6425
2105.00,2.6274
2104.00,2.6113
2103.00,2.5932
2102.00,2.5727
2101.00,2.5506
2100.00,2.5274
2099.00,2.5034
2098.00,2.4785
2097.00,2.4523
2096.00,2.4250
2095.00,2.3968
2094.00,2.3677
2093.00,2.3367
2092.00,2.3031
2091.00,2.2670
2090.00,2.2293
2089.00,2.1900
2088.00,2.1483
2087.00,2.1035
2086.00,2.0557
2085.00,2.0052
2084.00,1.9525
2083.00,1.8980
2082.00,1.8426
2081.00,1.7873
2080.00,1.7333
2079.00,1.6815
2078.00,1.6335
2077.00,1.5908
2076.00,1.5551
2075.00,1.5274
2074.00,1.5087
2073.00,1.4996
2072.00,1.4998
2071.00,1.5094
2070.00,1.5278
2069.00,1.5536
2068.00,1.5850
2067.00,1.6205
2066.00,1.6604
2065.00,1.7047
2064.00,1.7515
2063.00,1.7983
2062.00,1.8435
2061.00,1.8879
2060.00,1.9323
2059.00,1.9768
2058.00,2.0211
2057.00,2.0651
2056.00,2.1091
2055.00,2.1527
2054.00,2.1954
2053.00,2.2368
2052.00,2.2764
2051.00,2.3138
2050.00,2.3498
2049.00,2.3847
2048.00,2.4182
2047.00,2.4498
2046.00,2.4797
2045.00,2.5086
2044.00,2.5369
2043.00,2.5642
2042.00,2.5901
2041.00,2.6143
2040.00,2.6365
2039.00,2.6569
2038.00,2.6764
2037.00,2.6958
2036.00,2.7153
2035.00,2.7350
2034.00,2.7551
2033.00,2.7746
2032.00,2.7906
2031.00,2.8013
2030.00,2.8080
2029.00,2.8146
2028.00,2.8236
2027.00,2.8352
2026.00,2.8481
2025.00,2.8611
2024.00,2.8726
2023.00,2.8816
2022.00,2.8882
2021.00,2.8928
2020.00,2.8959
2019.00,2.8991
2018.00,2.9040
2017.00,2.9106
2016.00,2.9170
2015.00,2.9214
2014.00,2.9246
2013.00,2.9274
2012.00,2.9295
2011.00,2.9303
2010.00,2.9310
2009.00,2.9328
2008.00,2.9345
2007.00,2.9336
2006.00,2.9301
2005.00,2.9265
2004.00,2.9243
2003.00,2.9221
2002.00,2.9176
2001.00,2.9108
2000.00,2.9033
1999.00,2.8967
1998.00,2.8921
1997.00,2.8891
1996.00,2.8846
1995.00,2.8755
1994.00,2.8627
1993.00,2.8507
1992.00,2.8420
1991.00,2.8342
1990.00,2.8238
1989.00,2.8113
1988.00,2.7988
1987.00,2.7866
1986.00,2.7729
1985.00,2.7567
1984.00,2.7388
1983.00,2.7203
1982.00,2.7011
1981.00,2.6813
1980.00,2.6608
1979.00,2.6398
1978.00,2.6185
1977.00,2.5974
1976.00,2.5758
1975.00,2.5515
1974.00,2.5231
1973.00,2.4919
1972.00,2.4596
1971.00,2.4259
1970.00,2.3888
1969.00,2.3477
1968.00,2.3052
1967.00,2.2636
1966.00,2.2216
1965.00,2.1761
1964.00,2.1255
1963.00,2.0716
1962.00,2.0164
1961.00,1.9607
1960.00,1.9047
1959.00,1.8491
1958.00,1.7950
1957.00,1.7440
1956.00,1.6980
1955.00,1.6591
1954.00,1.6282
1953.00,1.6053
1952.00,1.5909
1951.00,1.5864
1950.00,1.5914
1949.00,1.6051
1948.00,1.6283
1947.00,1.6608
1946.00,1.6995
1945.00,1.7398
1944.00,1.7813
1943.00,1.8288
1942.00,1.8842
1941.00,1.9419
1940.00,1.9959
1939.00,2.0459
1938.00,2.0958
1937.00,2.1472
1936.00,2.1978
1935.00,2.2461
1934.00,2.2934
1933.00,2.3398
1932.00,2.3844
1931.00,2.4266
1930.00,2.4655
1929.00,2.5023
1928.00,2.5378
1927.00,2.5722
1926.00,2.6018
1925.00,2.6241
1924.00,2.6447
1923.00,2.6729
1922.00,2.7084
1921.00,2.7407
1920.00,2.7632
1919.00,2.7806
1918.00,2.8005
1917.00,2.8213
1916.00,2.8369
1915.00,2.8480
1914.00,2.8606
1913.00,2.8764
1912.00,2.8919
1911.00,2.9055
1910.00,2.9184
1909.00,2.9321
1908.00,2.9447
1907.00,2.9567
1906.00,2.9697
1905.00,2.9820
1904.00,2.9916
1903.00,2.9988
1902.00,3.0054
1901.00,3.0119
1900.00,3.0160
1899.00,3.0175
1898.00,3.0177
1897.00,3.0166
1896.00,3.0151
1895.00,3.0160
1894.00,3.0201
1893.00,3.0232
1892.00,3.0219
1891.00,3.0190
1890.00,3.0206
1889.00,3.0262
1888.00,3.0282
1887.00,3.0237
1886.00,3.0175
1885.00,3.0138
1884.00,3.0116
1883.00,3.0068
1882.00,2.9978
1881.00,2.9869
1880.00,2.9762
1879.00,2.9676
1878.00,2.9619
1877.00,2.9561
1876.00,2.9476
1875.00,2.9393
1874.00,2.9356
1873.00,2.9341
1872.00,2.9275
1871.00,2.9121
1870.00,2.8922
1869.00,2.8744
1868.00,2.8578
1867.00,2.8354
1866.00,2.8047
1865.00,2.7700
1864.00,2.7364
1863.00,2.7056
1862.00,2.6764
1861.00,2.6469
1860.00,2.6153
1859.00,2.5813
1858.00,2.5447
1857.00,2.5044
1856.00,2.4594
1855.00,2.4100
1854.00,2.3573
1853.00,2.3040
1852.00,2.2482
1851.00,2.1866
1850.00,2.1224
1849.00,2.0632
1848.00,2.0106
1847.00,1.9572
1846.00,1.8983
1845.00,1.8414
1844.00,1.7979
1843.00,1.7679
1842.00,1.7441
1841.00,1.7262
1840.00,1.7210
1839.00,1.7351
1838.00,1.7673
1837.00,1.8118
1836.00,1.8665
1835.00,1.9320
1834.00,2.0060
1833.00,2.0821
1832.00,2.1530
1831.00,2.2201
1830.00,2.2927
1829.00,2.3677
1828.00,2.4294
1827.00,2.4719
1826.00,2.5081
1825.00,2.5528
1824.00,2.6041
1823.00,2.6496
1822.00,2.6858
1821.00,2.7196
1820.00,2.7541
1819.00,2.7878
1818.00,2.8197
1817.00,2.8510
1816.00,2.8827
1815.00,2.9108
1814.00,2.9338
1813.00,2.9538
1812.00,2.9731
1811.00,2.9935
1810.00,3.0139
1809.00,3.0338
1808.00,3.0541
1807.00,3.0723
1806.00,3.0849
1805.00,3.0915
1804.00,3.0961
1803.00,3.1014
1802.00,3.1110
1801.00,3.1256
1800.00,3.1396
1799.00,3.1477
1798.00,3.1512
1797.00,3.1561
1796.00,3.1644
1795.00,3.1715
1794.00,3.1749
1793.00,3.1780
1792.00,3.1816
1791.00,3.1793
1790.00,3.1656
1789.00,3.1451
1788.00,3.1243
1787.00,3.1058
1786.00,3.0914
1785.00,3.0829
1784.00,3.0778
1783.00,3.0643
1782.00,3.0400
1781.00,3.0149
1780.00,2.9944
1779.00,2.9739
1778.00,2.9496
1777.00,2.9274
1776.00,2.9094
1775.00,2.8890
1774.00,2.8654
1773.00,2.8515
1772.00,2.8513
1771.00,2.8473
1770.00,2.8243
1769.00,2.7915
1768.00,2.7723
1767.00,2.7736
1766.00,2.7816
1765.00,2.7812
1764.00,2.7735
1763.00,2.7706
1762.00,2.7859
1761.00,2.8179
1760.00,2.8553
1759.00,2.8904
1758.00,2.9285
1757.00,2.9869
1756.00,3.0664
1755.00,3.1464
1754.00,3.2109
1753.00,3.2668
1752.00,3.3288
1751.00,3.3982
1750.00,3.4598
1749.00,3.5049
1748.00,3.5421
1747.00,3.5784
1746.00,3.6214
1745.00,3.6812
1744.00,3.7649
1743.00,3.8685
1742.00,3.9759
1741.00,4.0788
1740.00,4.1709
1739.00,4.2027
1738.00,4.1784
1737.00,4.1557
1736.00,4.1524
1735.00,4.1795
1734.00,4.2304
1733.00,4.2658
1732.00,4.2788
1731.00,4.3016
1730.00,4.3666
1729.00,4.5032
1728.00,4.7696
1727.00,5.1821
1726.00,5.2730
1725.00,5.3599
1724.00,4.9371
1723.00,4.6463
1722.00,4.5610
1721.00,4.5006
1720.00,4.4054
1719.00,4.3266
1718.00,4.3468
1717.00,4.4728
1716.00,4.6015
1715.00,4.6715
1714.00,4.7286
1713.00,4.8322
1712.00,5.0885
1711.00,5.3733
1710.00,5.1570
1709.00,5.0164
1708.00,5.0225
1707.00,5.0005
1706.00,4.7679
1705.00,4.6015
1704.00,4.5806
1703.00,4.6184
1702.00,4.6872
1701.00,4.9372
1700.00,5.2540
1699.00,4.9475
1698.00,4.7960
1697.00,4.8931
1696.00,5.0213
1695.00,4.7305
1694.00,4.5141
1693.00,4.3799
1692.00,4.2632
1691.00,4.1400
1690.00,4.0162
1689.00,3.9103
1688.00,3.8135
1687.00,3.7167
1686.00,3.6247
1685.00,3.5544
1684.00,3.5208
1683.00,3.4928
1682.00,3.4444
1681.00,3.3993
1680.00,3.3858
1679.00,3.4008
1678.00,3.4184
1677.00,3.4214
1676.00,3.4166
1675.00,3.4139
1674.00,3.4144
1673.00,3.4124
1672.00,3.4073
1671.00,3.4046
1670.00,3.4077
1669.00,3.4111
1668.00,3.4071
1667.00,3.3976
1666.00,3.3909
1665.00,3.3864
1664.00,3.3807
1663.00,3.3706
1662.00,3.3534
1661.00,3.3275
1660.00,3.2961
1659.00,3.2736
1658.00,3.2762
1657.00,3.2970
1656.00,3.3060
1655.00,3.2821
1654.00,3.2435
1653.00,3.2266
1652.00,3.2261
1651.00,3.2258
1650.00,3.2108
1649.00,3.1687
1648.00,3.1129
1647.00,3.0661
1646.00,3.0286
1645.00,2.9876
1644.00,2.9443
1643.00,2.8995
1642.00,2.8578
1641.00,2.8335
1640.00,2.8283
1639.00,2.8291
1638.00,2.8203
1637.00,2.8022
1636.00,2.7848
1635.00,2.7646
1634.00,2.7298
1633.00,2.6834
1632.00,2.6382
1631.00,2.6028
1630.00,2.5786
1629.00,2.5626
1628.00,2.5557
1627.00,2.5562
1626.00,2.5598
1625.00,2.5630
1624.00,2.5687
1623.00,2.5837
1622.00,2.6094
1621.00,2.6394
1620.00,2.6633
1619.00,2.6775
1618.00,2.6925
1617.00,2.7278
1616.00,2.7857
1615.00,2.8432
1614.00,2.8810
1613.00,2.9028
1612.00,2.9249
1611.00,2.9534
1610.00,2.9826
1609.00,3.0095
1608.00,3.0366
1607.00,3.0608
1606.00,3.0785
1605.00,3.0942
1604.00,3.1119
1603.00,3.1312
1602.00,3.1489
1601.00,3.1643
1600.00,3.1783
1599.00,3.1905
1598.00,3.2022
1597.00,3.2162
1596.00,3.2338
1595.00,3.2511
1594.00,3.2630
1593.00,3.2693
1592.00,3.2729
1591.00,3.2750
1590.00,3.2757
1589.00,3.2776
1588.00,3.2812
1587.00,3.2840
1586.00,3.2827
1585.00,3.2812
1584.00,3.2809
1583.00,3.2794
1582.00,3.2813
1581.00,3.2928
1580.00,3.3038
1579.00,3.2930
1578.00,3.2580
1577.00,3.2251
1576.00,3.2237
1575.00,3.2480
1574.00,3.2714
1573.00,3.2798
1572.00,3.2760
1571.00,3.2684
1570.00,3.2597
1569.00,3.2495
1568.00,3.2286
1567.00,3.1941
1566.00,3.1568
1565.00,3.1344
1564.00,3.1287
1563.00,3.1261
1562.00,3.1201
1561.00,3.1212
1560.00,3.1205
1559.00,3.1272
1558.00,3.1186
1557.00,3.0567
1556.00,2.9672
1555.00,2.8800
1554.00,2.8138
1553.00,2.7636
1552.00,2.7082
1551.00,2.6467
1550.00,2.5927
1549.00,2.5499
1548.00,2.5061
1547.00,2.4529
1546.00,2.3978
1545.00,2.3557
1544.00,2.3293
1543.00,2.3048
1542.00,2.2617
1541.00,2.1914
1540.00,2.1200
1539.00,2.0685
1538.00,2.0422
1537.00,2.0366
1536.00,2.0413
1535.00,2.0538
1534.00,2.0863
1533.00,2.1400
1532.00,2.1959
1531.00,2.2471
1530.00,2.3017
1529.00,2.3628
1528.00,2.4287
1527.00,2.5014
1526.00,2.5849
1525.00,2.6699
1524.00,2.7348
1523.00,2.7733
1522.00,2.8107
1521.00,2.8719
1520.00,2.9412
1519.00,2.9873
1518.00,3.0071
1517.00,3.0221
1516.00,3.0473
1515.00,3.0723
1514.00,3.0894
1513.00,3.1051
1512.00,3.1309
1511.00,3.1695
1510.00,3.2101
1509.00,3.2402
1508.00,3.2627
1507.00,3.3024
1506.00,3.3407
1505.00,3.3476
1504.00,3.3413
1503.00,3.3369
1502.00,3.3422
1501.00,3.3623
1500.00,3.3872
1499.00,3.3995
1498.00,3.3952
1497.00,3.3862
1496.00,3.3903
1495.00,3.4122
1494.00,3.4399
1493.00,3.4576
1492.00,3.4599
1491.00,3.4544
1490.00,3.4534
1489.00,3.4548
1488.00,3.4459
1487.00,3.4256
1486.00,3.3998
1485.00,3.3784
1484.00,3.3668
1483.00,3.3651
1482.00,3.3716
1481.00,3.3797
1480.00,3.3823
1479.00,3.3791
1478.00,3.3770
1477.00,3.3799
1476.00,3.3857
1475.00,3.3850
1474.00,3.3712
1473.00,3.3498
1472.00,3.3267
1471.00,3.3013
1470.00,3.2764
1469.00,3.2572
1468.00,3.2474
1467.00,3.2482
1466.00,3.2600
1465.00,3.2866
1464.00,3.3215
1463.00,3.3516
1462.00,3.3699
1461.00,3.3794
1460.00,3.3881
1459.00,3.4028
1458.00,3.4375
1457.00,3.5101
1456.00,3.6149
1455.00,3.7312
1454.00,3.8559
1453.00,4.0002
1452.00,4.1604
1451.00,4.2972
1450.00,4.3626
1449.00,4.4331
1448.00,4.5471
1447.00,4.3565
1446.00,4.0635
1445.00,3.8693
1444.00,3.7419
1443.00,3.6648
1442.00,3.6238
1441.00,3.6025
1440.00,3.5838
1439.00,3.5585
1438.00,3.5290
1437.00,3.5097
1436.00,3.5157
1435.00,3.5463
1434.00,3.5898
1433.00,3.6350
1432.00,3.6762
1431.00,3.7150
1430.00,3.7547
1429.00,3.7871
1428.00,3.7975
1427.00,3.7833
1426.00,3.7630
1425.00,3.7579
1424.00,3.7705
1423.00,3.7895
1422.00,3.8040
1421.00,3.8091
1420.00,3.7972
1419.00,3.7695
1418.00,3.7327
1417.00,3.6813
1416.00,3.6099
1415.00,3.5287
1414.00,3.4519
1413.00,3.3828
1412.00,3.3182
1411.00,3.2596
1410.00,3.2101
1409.00,3.1647
1408.00,3.1174
1407.00,3.0665
1406.00,3.0162
1405.00,2.9749
1404.00,2.9462
1403.00,2.9273
1402.00,2.9129
1401.00,2.8997
1400.00,2.8899
1399.00,2.8875
1398.00,2.8904
1397.00,2.8930
1396.00,2.8968
1395.00,2.9068
1394.00,2.9227
1393.00,2.9392
1392.00,2.9538
1391.00,2.9691
1390.00,2.9874
1389.00,3.0091
1388.00,3.0367
1387.00,3.0724
1386.00,3.1101
1385.00,3.1413
1384.00,3.1653
1383.00,3.1898
1382.00,3.2191
1381.00,3.2493
1380.00,3.2774
1379.00,3.3073
1378.00,3.3422
1377.00,3.3766
1376.00,3.4025
1375.00,3.4199
1374.00,3.4361
1373.00,3.4517
1372.00,3.4611
1371.00,3.4650
1370.00,3.4721
1369.00,3.4903
1368.00,3.5165
1367.00,3.5391
1366.00,3.5516
1365.00,3.5554
1364.00,3.5549
1363.00,3.5591
1362.00,3.5766
1361.00,3.6031
1360.00,3.6227
1359.00,3.6230
1358.00,3.6084
1357.00,3.5952
1356.00,3.5954
1355.00,3.6099
1354.00,3.6300
1353.00,3.6427
1352.00,3.6465
1351.00,3.6544
1350.00,3.6826
1349.00,3.7344
1348.00,3.7878
1347.00,3.8107
1346.00,3.8010
1345.00,3.7872
1344.00,3.7868
1343.00,3.7998
1342.00,3.8247
1341.00,3.8661
1340.00,3.9285
1339.00,3.9953
1338.00,4.0223
1337.00,3.9902
1336.00,3.9352
1335.00,3.8931
1334.00,3.8618
1333.00,3.8185
1332.00,3.7578
1331.00,3.7001
1330.00,3.6648
1329.00,3.6508
1328.00,3.6412
1327.00,3.6213
1326.00,3.5918
1325.00,3.5649
1324.00,3.5500
1323.00,3.5490
1322.00,3.5568
1321.00,3.5675
1320.00,3.5813
1319.00,3.6077
1318.00,3.6577
1317.00,3.7362
1316.00,3.8425
1315.00,3.9781
1314.00,4.1472
1313.00,4.3189
1312.00,4.3811
1311.00,4.2978
1310.00,4.1875
1309.00,4.1094
1308.00,4.0530
1307.00,4.0017
1306.00,3.9533
1305.00,3.8993
1304.00,3.8257
1303.00,3.7438
1302.00,3.6776
1301.00,3.6336
1300.00,3.5981
1299.00,3.5542
1298.00,3.5014
1297.00,3.4530
1296.00,3.4169
1295.00,3.3873
1294.00,3.3525
1293.00,3.3065
1292.00,3.2525
1291.00,3.1975
1290.00,3.1456
1289.00,3.0978
1288.00,3.0537
1287.00,3.0137
1286.00,2.9788
1285.00,2.9497
1284.00,2.9265
1283.00,2.9089
1282.00,2.8966
1281.00,2.8900
1280.00,2.8909
1279.00,2.9009
1278.00,2.9197
1277.00,2.9450
1276.00,2.9738
1275.00,3.0049
1274.00,3.0401
1273.00,3.0823
1272.00,3.1334
1271.00,3.1934
1270.00,3.2593
1269.00,3.3240
1268.00,3.3777
1267.00,3.4145
1266.00,3.4355
1265.00,3.4450
1264.00,3.4476
1263.00,3.4493
1262.00,3.4563
1261.00,3.4727
1260.00,3.5009
1259.00,3.5406
1258.00,3.5874
1257.00,3.6303
1256.00,3.6523
1255.00,3.6446
1254.00,3.6199
1253.00,3.6032
1252.00,3.6106
1251.00,3.6410
1250.00,3.6813
1249.00,3.7172
1248.00,3.7431
1247.00,3.7750
1246.00,3.8349
1245.00,3.9082
1244.00,3.9434
1243.00,3.9233
1242.00,3.8919
1241.00,3.8865
1240.00,3.8989
1239.00,3.8958
1238.00,3.8709
1237.00,3.8535
1236.00,3.8704
1235.00,3.9301
1234.00,4.0205
1233.00,4.0817
1232.00,4.0822
1231.00,4.1011
1230.00,4.1811
1229.00,4.2600
1228.00,4.2376
1227.00,4.1617
1226.00,4.1353
1225.00,4.1875
1224.00,4.2748
1223.00,4.2863
1222.00,4.2308
1221.00,4.2157
1220.00,4.3077
1219.00,4.5040
1218.00,4.8640
1217.00,5.2775
1216.00,4.8723
1215.00,4.6272
1214.00,4.3938
1213.00,4.1976
1212.00,4.0857
1211.00,3.9929
1210.00,3.9168
1209.00,3.8888
1208.00,3.9219
1207.00,4.0004
1206.00,4.0842
1205.00,4.0941
1204.00,4.0027
1203.00,3.9008
1202.00,3.8533
1201.00,3.8656
1200.00,3.9195
1199.00,3.9878
1198.00,4.0262
1197.00,3.9985
1196.00,3.9258
1195.00,3.8517
1194.00,3.8102
1193.00,3.8176
1192.00,3.8686
1191.00,3.9397
1190.00,3.9971
1189.00,4.0162
1188.00,4.0034
1187.00,3.9919
1186.00,4.0101
1185.00,4.0503
1184.00,4.0676
1183.00,4.0448
1182.00,4.0114
1181.00,3.9687
1180.00,3.8917
1179.00,3.7946
1178.00,3.7215
1177.00,3.6931
1176.00,3.6955
1175.00,3.7002
1174.00,3.6949
1173.00,3.6886
1172.00,3.6858
1171.00,3.6804
1170.00,3.6701
1169.00,3.6531
1168.00,3.6196
1167.00,3.5740
1166.00,3.5367
1165.00,3.5179
1164.00,3.5098
1163.00,3.4994
1162.00,3.4842
1161.00,3.4691
1160.00,3.4508
1159.00,3.4214
1158.00,3.3884
1157.00,3.3652
1156.00,3.3522
1155.00,3.3416
1154.00,3.3297
1153.00,3.3216
1152.00,3.3236
1151.00,3.3310
1150.00,3.3325
1149.00,3.3262
1148.00,3.3226
1147.00,3.3311
1146.00,3.3491
1145.00,3.3653
1144.00,3.3762
1143.00,3.3955
1142.00,3.4404
1141.00,3.5092
1140.00,3.5757
1139.00,3.6122
1138.00,3.6256
1137.00,3.6443
1136.00,3.6820
1135.00,3.7329
1134.00,3.7856
1133.00,3.8343
1132.00,3.8808
1131.00,3.9278
1130.00,3.9676
1129.00,3.9861
1128.00,3.9905
1127.00,3.9981
1126.00,4.0358
1125.00,4.1293
1124.00,4.3254
1123.00,4.5632
1122.00,4.5035
1121.00,4.3787
1120.00,4.2566
1119.00,4.1068
1118.00,4.0552
1117.00,4.1531
1116.00,4.5375
1115.00,4.7494
1114.00,4.2791
1113.00,4.0928
1112.00,3.9967
1111.00,3.9670
1110.00,4.0213
1109.00,4.0404
1108.00,3.9577
1107.00,3.8809
1106.00,3.8761
1105.00,3.9252
1104.00,3.9921
1103.00,4.0455
1102.00,4.1089
1101.00,4.2506
1100.00,4.5011
1099.00,4.6853
1098.00,4.5477
1097.00,4.2944
1096.00,4.1283
1095.00,4.0664
1094.00,4.0909
1093.00,4.2047
1092.00,4.4297
1091.00,4.6037
1090.00,4.5317
1089.00,4.4044
1088.00,4.2195
1087.00,4.0367
1086.00,3.9427
1085.00,3.9547
1084.00,4.1285
1083.00,4.4199
1082.00,4.4072
1081.00,4.4357
1080.00,4.6349
1079.00,4.6842
1078.00,4.5590
1077.00,4.3229
1076.00,4.1868
1075.00,4.1689
1074.00,4.2238
1073.00,4.2474
1072.00,4.2597
1071.00,4.3770
1070.00,4.4402
1069.00,4.3851
1068.00,4.5173
1067.00,4.8178
1066.00,4.8383
1065.00,4.8199
1064.00,4.8007
1063.00,4.6760
1062.00,4.4808
1061.00,4.3294
1060.00,4.2872
1059.00,4.4193
1058.00,4.5299
1057.00,4.3333
1056.00,4.1977
1055.00,4.0894
1054.00,4.0136
1053.00,4.0473
1052.00,4.1854
1051.00,4.2761
1050.00,4.2007
1049.00,4.1484
1048.00,4.1704
1047.00,4.2040
1046.00,4.1470
1045.00,4.0382
1044.00,3.9685
1043.00,3.9506
1042.00,3.9637
1041.00,3.9673
1040.00,3.9517
1039.00,3.9430
1038.00,3.9459
1037.00,3.9354
1036.00,3.8931
1035.00,3.8234
1034.00,3.7377
1033.00,3.6508
1032.00,3.5788
1031.00,3.5343
1030.00,3.5211
1029.00,3.5271
1028.00,3.5286
1027.00,3.5158
1026.00,3.5036
1025.00,3.5067
1024.00,3.5202
1023.00,3.5287
1022.00,3.5341
1021.00,3.5621
1020.00,3.6394
1019.00,3.7774
1018.00,3.9622
1017.00,4.1231
1016.00,4.1340
1015.00,4.0085
1014.00,3.8686
1013.00,3.7633
1012.00,3.6878
1011.00,3.6259
1010.00,3.5693
1009.00,3.5223
1008.00,3.4966
1007.00,3.5000
1006.00,3.5280
1005.00,3.5690
1004.00,3.6157
1003.00,3.6667
1002.00,3.7251
1001.00,3.7958
1000.00,3.8803
999.00,3.9817
998.00,4.1025
997.00,4.2267
996.00,4.3204
995.00,4.3282
994.00,4.2197
993.00,4.0877
992.00,4.0222
991.00,4.0350
990.00,4.0684
989.00,4.0771
988.00,4.1075
987.00,4.2096
986.00,4.3924
985.00,4.5759
984.00,4.6096
983.00,4.4521
982.00,4.3826
981.00,4.4224
980.00,4.3608
979.00,4.1798
978.00,4.1990
977.00,4.5065
976.00,4.3015
975.00,4.0570
974.00,4.0628
973.00,4.1386
972.00,4.1948
971.00,4.2882
970.00,4.3916
969.00,4.4410
968.00,4.7475
967.00,4.7282
966.00,4.2749
965.00,4.0934
964.00,4.0216
963.00,4.0299
962.00,4.1422
961.00,4.3229
960.00,4.4052
959.00,4.4130
958.00,4.5421
957.00,4.5515
956.00,4.4599
955.00,4.4403
954.00,4.3331
953.00,4.2286
952.00,4.2227
951.00,4.3315
950.00,4.5943
949.00,4.6788
948.00,4.4687
947.00,4.5707
946.00,4.5867
945.00,4.2095
944.00,4.0519
943.00,4.0283
942.00,4.0704
941.00,4.1889
940.00,4.3518
939.00,4.6598
938.00,4.7624
937.00,4.5104
936.00,4.3100
935.00,4.4389
934.00,4.9170
933.00,4.3249
932.00,4.1410
931.00,4.2198
930.00,4.2466
929.00,4.1229
928.00,4.0290
927.00,4.0211
926.00,4.0223
925.00,4.0799
924.00,4.1843
923.00,4.2630
922.00,4.2955
921.00,4.4484
920.00,4.8792
919.00,4.5262
918.00,4.1493
917.00,4.0293
916.00,4.1139
915.00,4.4734
914.00,4.4146
913.00,4.4149
912.00,4.7821
911.00,4.2657
910.00,4.0383
909.00,3.9868
908.00,3.9825
907.00,4.0287
906.00,4.0957
905.00,4.1831
904.00,4.2983
903.00,4.4710
902.00,4.3753
901.00,4.1797
900.00,4.1737
899.00,4.3265
898.00,4.4121
897.00,4.4136
896.00,4.4324
895.00,4.3659
894.00,4.2739
893.00,4.1433
892.00,4.0269
891.00,3.9876
890.00,4.0069
889.00,4.0538
888.00,4.1120
887.00,4.1991
886.00,4.3408
885.00,4.4224
884.00,4.3734
883.00,4.4253
882.00,4.5835
881.00,4.5501
880.00,4.4141
879.00,4.3253
878.00,4.2865
877.00,4.3033
876.00,4.3843
875.00,4.3334
874.00,4.1018
873.00,3.9635
872.00,3.9206
871.00,3.9268
870.00,3.9759
869.00,4.0870
868.00,4.2593
867.00,4.6316
866.00,5.0096
865.00,4.6153
864.00,4.5486
863.00,4.6710
862.00,4.7753
861.00,4.2759
860.00,3.9959
859.00,3.9404
858.00,4.0984
857.00,4.6175
856.00,4.5670
855.00,4.3789
854.00,4.5188
853.00,4.4551
852.00,4.1922
851.00,3.9926
850.00,3.8785
849.00,3.8375
848.00,3.8612
847.00,3.8709
846.00,3.8037
845.00,3.7382
844.00,3.7324
843.00,3.7834
842.00,3.9013
841.00,4.1298
840.00,4.2246
839.00,4.0751
838.00,4.0297
837.00,4.0338
836.00,4.0501
835.00,4.0817
834.00,4.1803
833.00,4.4015
832.00,4.2637
831.00,4.0076
830.00,3.9254
829.00,3.9885
828.00,4.0109
827.00,3.8194
826.00,3.7002
825.00,3.7179
824.00,3.9260
823.00,4.4728
822.00,4.6651
821.00,4.5777
820.00,4.7139
819.00,4.8827
818.00,4.8811
817.00,4.4756
816.00,4.4010
815.00,4.5107
814.00,4.6089
813.00,4.9656
812.00,4.6990
811.00,4.2338
810.00,4.0602
809.00,4.0172
808.00,4.0258
807.00,4.0675
806.00,4.1205
805.00,4.3139
804.00,4.8312
803.00,4.6079
802.00,4.3929
801.00,4.3732
800.00,4.2836
799.00,4.1630
798.00,4.0792
797.00,4.0680
796.00,4.0775
795.00,4.0663
794.00,4.0253
793.00,3.9733
792.00,3.9443
791.00,3.9450
790.00,3.9579
789.00,3.9622
788.00,4.0012
787.00,4.1308
786.00,4.4035
785.00,4.6533
784.00,4.3974
783.00,4.2360
782.00,4.2677
781.00,4.3070
780.00,4.1736
779.00,4.0733
778.00,4.1003
777.00,4.2007
776.00,4.2783
775.00,4.1523
774.00,3.9588
773.00,3.8868
772.00,3.9523
771.00,4.1077
770.00,4.2320
769.00,4.2245
768.00,4.1448
767.00,4.0539
766.00,4.0581
765.00,4.2180
764.00,4.2852
763.00,4.1753
762.00,4.1517
761.00,4.0969
760.00,4.1214
759.00,4.3747
758.00,4.2787
757.00,4.0322
756.00,4.0006
755.00,4.0800
754.00,4.1735
753.00,4.2341
752.00,4.2574
751.00,4.2325
750.00,4.1548
749.00,4.0492
748.00,3.9758
747.00,3.9151
746.00,3.8597
745.00,3.8590
744.00,4.0169
743.00,4.4392
742.00,4.5178
741.00,4.2664
740.00,4.1901
739.00,4.1600
738.00,4.0859
737.00,4.0243
736.00,4.0307
735.00,4.0775
734.00,4.1422
733.00,4.2922
732.00,4.4668
731.00,4.2775
730.00,4.1335
729.00,4.1726
728.00,4.3206
727.00,4.3981
726.00,4.2535
725.00,4.1022
724.00,4.0549
723.00,4.0028
722.00,3.8739
721.00,3.7997
720.00,3.8156
719.00,3.8782
718.00,3.9458
717.00,4.0309
716.00,4.2037
715.00,4.4712
714.00,4.5505
713.00,4.6081
712.00,4.5430
711.00,4.1742
710.00,3.9614
709.00,3.8595
708.00,3.8190
707.00,3.8337
706.00,3.8962
705.00,4.0409
704.00,4.1932
703.00,4.1383
702.00,4.0897
701.00,4.2446
700.00,4.5403
