Created as New Dataset,Sample 072 By Administrator Date Wednesday, November 24 2021
cm-1,A
7502.00,1.1186
7501.00,1.1086
7500.00,1.0987
7499.00,1.0891
7498.00,1.0797
7497.00,1.0705
7496.00,1.0614
7495.00,1.0526
7494.00,1.0439
7493.00,1.0370
7492.00,1.0326
7491.00,1.0306
7490.00,1.0298
7489.00,1.0284
7488.00,1.0248
7487.00,1.0187
7486.00,1.0099
7485.00,0.9987
7484.00,0.9859
7483.00,0.9732
7482.00,0.9624
7481.00,0.9540
7480.00,0.9473
7479.00,0.9414
7478.00,0.9361
7477.00,0.9314
7476.00,0.9272
7475.00,0.9228
7474.00,0.9175
7473.00,0.9117
7472.00,0.9058
7471.00,0.8999
7470.00,0.8933
7469.00,0.8857
7468.00,0.8774
7467.00,0.8695
7466.00,0.8625
7465.00,0.8556
7464.00,0.8482
7463.00,0.8402
7462.00,0.8321
7461.00,0.8242
7460.00,0.8164
7459.00,0.8087
7458.00,0.8016
7457.00,0.7955
7456.00,0.7905
7455.00,0.7863
7454.00,0.7825
7453.00,0.7789
7452.00,0.7754
7451.00,0.7719
7450.00,0.7685
7449.00,0.7658
7448.00,0.7639
7447.00,0.7628
7446.00,0.7623
7445.00,0.7624
7444.00,0.7631
7443.00,0.7644
7442.00,0.7663
7441.00,0.7688
7440.00,0.7717
7439.00,0.7750
7438.00,0.7787
7437.00,0.7827
7436.00,0.7872
7435.00,0.7923
7434.00,0.7979
7433.00,0.8040
7432.00,0.8107
7431.00,0.8182
7430.00,0.8267
7429.00,0.8359
7428.00,0.8453
7427.00,0.8546
7426.00,0.8640
7425.00,0.8738
7424.00,0.8836
7423.00,0.8931
7422.00,0.9023
7421.00,0.9117
7420.00,0.9216
7419.00,0.9318
7418.00,0.9419
7417.00,0.9515
7416.00,0.9610
7415.00,0.9705
7414.00,0.9800
7413.00,0.9888
7412.00,0.9969
7411.00,1.0047
7410.00,1.0130
7409.00,1.0222
7408.00,1.0318
7407.00,1.0415
7406.00,1.0513
7405.00,1.0614
7404.00,1.0717
7403.00,1.0816
7402.00,1.0905
7401.00,1.0981
7400.00,1.1051
7399.00,1.1117
7398.00,1.1181
7397.00,1.1241
7396.00,1.1297
7395.00,1.1351
7394.00,1.1402
7393.00,1.1453
7392.00,1.1505
7391.00,1.1557
7390.00,1.1604
7389.00,1.1648
7388.00,1.1690
7387.00,1.1731
7386.00,1.1770
7385.00,1.1805
7384.00,1.1832
7383.00,1.1848
7382.00,1.1856
7381.00,1.1858
7380.00,1.1857
7379.00,1.1852
7378.00,1.1844
7377.00,1.1837
7376.00,1.1832
7375.00,1.1827
7374.00,1.1815
7373.00,1.1798
7372.00,1.1773
7371.00,1.1738
7370.00,1.1691
7369.00,1.1641
7368.00,1.1597
7367.00,1.1562
7366.00,1.1527
7365.00,1.1483
7364.00,1.1426
7363.00,1.1364
7362.00,1.1302
7361.00,1.1237
7360.00,1.1162
7359.00,1.1077
7358.00,1.0988
7357.00,1.0903
7356.00,1.0822
7355.00,1.0741
7354.00,1.0655
7353.00,1.0563
7352.00,1.0469
7351.00,1.0372
7350.00,1.0272
7349.00,1.0169
7348.00,1.0065
7347.00,0.9962
7346.00,0.9855
7345.00,0.9746
7344.00,0.9638
7343.00,0.9536
7342.00,0.9435
7341.00,0.9332
7340.00,0.9226
7339.00,0.9121
7338.00,0.9021
7337.00,0.8923
7336.00,0.8826
7335.00,0.8731
7334.00,0.8642
7333.00,0.8560
7332.00,0.8481
7331.00,0.8405
7330.00,0.8329
7329.00,0.8255
7328.00,0.8183
7327.00,0.8114
7326.00,0.8052
7325.00,0.7996
7324.00,0.7947
7323.00,0.7905
7322.00,0.7872
7321.00,0.7846
7320.00,0.7826
7319.00,0.7809
7318.00,0.7795
7317.00,0.7786
7316.00,0.7784
7315.00,0.7790
7314.00,0.7802
7313.00,0.7819
7312.00,0.7842
7311.00,0.7870
7310.00,0.7903
7309.00,0.7943
7308.00,0.7987
7307.00,0.8035
7306.00,0.8087
7305.00,0.8146
7304.00,0.8212
7303.00,0.8285
7302.00,0.8361
7301.00,0.8438
7300.00,0.8517
7299.00,0.8600
7298.00,0.8687
7297.00,0.8774
7296.00,0.8859
7295.00,0.8946
7294.00,0.9035
7293.00,0.9127
7292.00,0.9218
7291.00,0.9309
7290.00,0.9400
7289.00,0.9492
7288.00,0.9583
7287.00,0.9674
7286.00,0.9765
7285.00,0.9856
7284.00,0.9941
7283.00,1.0021
7282.00,1.0098
7281.00,1.0176
7280.00,1.0257
7279.00,1.0336
7278.00,1.0412
7277.00,1.0487
7276.00,1.0565
7275.00,1.0644
7274.00,1.0719
7273.00,1.0784
7272.00,1.0841
7271.00,1.0897
7270.00,1.0955
7269.00,1.1013
7268.00,1.1068
7267.00,1.1120
7266.00,1.1173
7265.00,1.1224
7264.00,1.1269
7263.00,1.1311
7262.00,1.1354
7261.00,1.1400
7260.00,1.1447
7259.00,1.1492
7258.00,1.1536
7257.00,1.1575
7256.00,1.1604
7255.00,1.1616
7254.00,1.1613
7253.00,1.1598
7252.00,1.1569
7251.00,1.1533
7250.00,1.1501
7249.00,1.1485
7248.00,1.1482
7247.00,1.1481
7246.00,1.1472
7245.00,1.1457
7244.00,1.1442
7243.00,1.1423
7242.00,1.1397
7241.00,1.1361
7240.00,1.1320
7239.00,1.1280
7238.00,1.1242
7237.00,1.1202
7236.00,1.1153
7235.00,1.1094
7234.00,1.1030
7233.00,1.0969
7232.00,1.0909
7231.00,1.0844
7230.00,1.0770
7229.00,1.0692
7228.00,1.0614
7227.00,1.0537
7226.00,1.0454
7225.00,1.0368
7224.00,1.0283
7223.00,1.0201
7222.00,1.0118
7221.00,1.0031
7220.00,0.9941
7219.00,0.9847
7218.00,0.9747
7217.00,0.9641
7216.00,0.9534
7215.00,0.9430
7214.00,0.9331
7213.00,0.9232
7212.00,0.9130
7211.00,0.9027
7210.00,0.8928
7209.00,0.8837
7208.00,0.8750
7207.00,0.8663
7206.00,0.8578
7205.00,0.8494
7204.00,0.8415
7203.00,0.8338
7202.00,0.8263
7201.00,0.8191
7200.00,0.8121
7199.00,0.8055
7198.00,0.7997
7197.00,0.7946
7196.00,0.7903
7195.00,0.7864
7194.00,0.7829
7193.00,0.7798
7192.00,0.7773
7191.00,0.7753
7190.00,0.7738
7189.00,0.7730
7188.00,0.7729
7187.00,0.7736
7186.00,0.7750
7185.00,0.7770
7184.00,0.7797
7183.00,0.7831
7182.00,0.7873
7181.00,0.7919
7180.00,0.7967
7179.00,0.8017
7178.00,0.8073
7177.00,0.8134
7176.00,0.8200
7175.00,0.8268
7174.00,0.8342
7173.00,0.8422
7172.00,0.8509
7171.00,0.8600
7170.00,0.8693
7169.00,0.8787
7168.00,0.8883
7167.00,0.8983
7166.00,0.9086
7165.00,0.9189
7164.00,0.9289
7163.00,0.9387
7162.00,0.9486
7161.00,0.9587
7160.00,0.9688
7159.00,0.9789
7158.00,0.9888
7157.00,0.9986
7156.00,1.0085
7155.00,1.0183
7154.00,1.0280
7153.00,1.0375
7152.00,1.0470
7151.00,1.0566
7150.00,1.0664
7149.00,1.0761
7148.00,1.0854
7147.00,1.0942
7146.00,1.1027
7145.00,1.1111
7144.00,1.1190
7143.00,1.1263
7142.00,1.1328
7141.00,1.1390
7140.00,1.1450
7139.00,1.1509
7138.00,1.1567
7137.00,1.1622
7136.00,1.1672
7135.00,1.1716
7134.00,1.1758
7133.00,1.1803
7132.00,1.1848
7131.00,1.1885
7130.00,1.1913
7129.00,1.1935
7128.00,1.1955
7127.00,1.1975
7126.00,1.1995
7125.00,1.2012
7124.00,1.2022
7123.00,1.2025
7122.00,1.2024
7121.00,1.2021
7120.00,1.2015
7119.00,1.2001
7118.00,1.1977
7117.00,1.1949
7116.00,1.1922
7115.00,1.1893
7114.00,1.1857
7113.00,1.1815
7112.00,1.1771
7111.00,1.1726
7110.00,1.1680
7109.00,1.1629
7108.00,1.1575
7107.00,1.1520
7106.00,1.1463
7105.00,1.1398
7104.00,1.1326
7103.00,1.1250
7102.00,1.1173
7101.00,1.1096
7100.00,1.1016
7099.00,1.0929
7098.00,1.0836
7097.00,1.0738
7096.00,1.0638
7095.00,1.0533
7094.00,1.0422
7093.00,1.0309
7092.00,1.0199
7091.00,1.0096
7090.00,0.9994
7089.00,0.9891
7088.00,0.9782
7087.00,0.9671
7086.00,0.9560
7085.00,0.9450
7084.00,0.9339
7083.00,0.9228
7082.00,0.9121
7081.00,0.9021
7080.00,0.8926
7079.00,0.8831
7078.00,0.8734
7077.00,0.8636
7076.00,0.8542
7075.00,0.8453
7074.00,0.8370
7073.00,0.8291
7072.00,0.8218
7071.00,0.8152
7070.00,0.8093
7069.00,0.8039
7068.00,0.7988
7067.00,0.7940
7066.00,0.7897
7065.00,0.7863
7064.00,0.7836
7063.00,0.7817
7062.00,0.7803
7061.00,0.7794
7060.00,0.7790
7059.00,0.7791
7058.00,0.7798
7057.00,0.7809
7056.00,0.7827
7055.00,0.7852
7054.00,0.7885
7053.00,0.7927
7052.00,0.7976
7051.00,0.8031
7050.00,0.8089
7049.00,0.8150
7048.00,0.8216
7047.00,0.8289
7046.00,0.8368
7045.00,0.8451
7044.00,0.8534
7043.00,0.8620
7042.00,0.8709
7041.00,0.8803
7040.00,0.8900
7039.00,0.8996
7038.00,0.9092
7037.00,0.9191
7036.00,0.9294
7035.00,0.9402
7034.00,0.9509
7033.00,0.9612
7032.00,0.9713
7031.00,0.9813
7030.00,0.9915
7029.00,1.0018
7028.00,1.0120
7027.00,1.0217
7026.00,1.0310
7025.00,1.0402
7024.00,1.0494
7023.00,1.0584
7022.00,1.0673
7021.00,1.0761
7020.00,1.0851
7019.00,1.0937
7018.00,1.1017
7017.00,1.1093
7016.00,1.1169
7015.00,1.1244
7014.00,1.1314
7013.00,1.1376
7012.00,1.1433
7011.00,1.1493
7010.00,1.1557
7009.00,1.1620
7008.00,1.1676
7007.00,1.1722
7006.00,1.1761
7005.00,1.1798
7004.00,1.1835
7003.00,1.1869
7002.00,1.1896
7001.00,1.1912
7000.00,1.1922
6999.00,1.1928
6998.00,1.1933
6997.00,1.1936
6996.00,1.1936
6995.00,1.1937
6994.00,1.1937
6993.00,1.1936
6992.00,1.1929
6991.00,1.1916
6990.00,1.1897
6989.00,1.1875
6988.00,1.1848
6987.00,1.1816
6986.00,1.1777
6985.00,1.1735
6984.00,1.1689
6983.00,1.1641
6982.00,1.1588
6981.00,1.1530
6980.00,1.1471
6979.00,1.1414
6978.00,1.1357
6977.00,1.1295
6976.00,1.1222
6975.00,1.1141
6974.00,1.1058
6973.00,1.0972
6972.00,1.0880
6971.00,1.0786
6970.00,1.0696
6969.00,1.0611
6968.00,1.0524
6967.00,1.0427
6966.00,1.0323
6965.00,1.0218
6964.00,1.0114
6963.00,1.0010
6962.00,0.9903
6961.00,0.9796
6960.00,0.9689
6959.00,0.9582
6958.00,0.9472
6957.00,0.9360
6956.00,0.9248
6955.00,0.9138
6954.00,0.9032
6953.00,0.8934
6952.00,0.8841
6951.00,0.8750
6950.00,0.8658
6949.00,0.8565
6948.00,0.8472
6947.00,0.8380
6946.00,0.8292
6945.00,0.8208
6944.00,0.8130
6943.00,0.8060
6942.00,0.7998
6941.00,0.7941
6940.00,0.7890
6939.00,0.7843
6938.00,0.7803
6937.00,0.7770
6936.00,0.7744
6935.00,0.7723
6934.00,0.7707
6933.00,0.7697
6932.00,0.7693
6931.00,0.7694
6930.00,0.7702
6929.00,0.7717
6928.00,0.7740
6927.00,0.7771
6926.00,0.7809
6925.00,0.7852
6924.00,0.7898
6923.00,0.7949
6922.00,0.8007
6921.00,0.8070
6920.00,0.8138
6919.00,0.8210
6918.00,0.8289
6917.00,0.8376
6916.00,0.8468
6915.00,0.8561
6914.00,0.8654
6913.00,0.8748
6912.00,0.8846
6911.00,0.8946
6910.00,0.9051
6909.00,0.9159
6908.00,0.9269
6907.00,0.9378
6906.00,0.9487
6905.00,0.9596
6904.00,0.9706
6903.00,0.9814
6902.00,0.9919
6901.00,1.0023
6900.00,1.0129
6899.00,1.0235
6898.00,1.0339
6897.00,1.0437
6896.00,1.0531
6895.00,1.0623
6894.00,1.0714
6893.00,1.0806
6892.00,1.0897
6891.00,1.0988
6890.00,1.1079
6889.00,1.1169
6888.00,1.1254
6887.00,1.1333
6886.00,1.1411
6885.00,1.1488
6884.00,1.1563
6883.00,1.1630
6882.00,1.1688
6881.00,1.1740
6880.00,1.1790
6879.00,1.1837
6878.00,1.1879
6877.00,1.1920
6876.00,1.1963
6875.00,1.2007
6874.00,1.2049
6873.00,1.2086
6872.00,1.2115
6871.00,1.2136
6870.00,1.2148
6869.00,1.2152
6868.00,1.2157
6867.00,1.2166
6866.00,1.2177
6865.00,1.2185
6864.00,1.2181
6863.00,1.2168
6862.00,1.2152
6861.00,1.2135
6860.00,1.2113
6859.00,1.2083
6858.00,1.2047
6857.00,1.2011
6856.00,1.1973
6855.00,1.1930
6854.00,1.1879
6853.00,1.1822
6852.00,1.1763
6851.00,1.1700
6850.00,1.1634
6849.00,1.1566
6848.00,1.1496
6847.00,1.1422
6846.00,1.1340
6845.00,1.1253
6844.00,1.1165
6843.00,1.1076
6842.00,1.0981
6841.00,1.0880
6840.00,1.0776
6839.00,1.0672
6838.00,1.0567
6837.00,1.0458
6836.00,1.0347
6835.00,1.0234
6834.00,1.0121
6833.00,1.0008
6832.00,0.9894
6831.00,0.9778
6830.00,0.9663
6829.00,0.9549
6828.00,0.9436
6827.00,0.9324
6826.00,0.9213
6825.00,0.9104
6824.00,0.8995
6823.00,0.8888
6822.00,0.8782
6821.00,0.8680
6820.00,0.8580
6819.00,0.8484
6818.00,0.8395
6817.00,0.8313
6816.00,0.8236
6815.00,0.8163
6814.00,0.8094
6813.00,0.8031
6812.00,0.7973
6811.00,0.7919
6810.00,0.7871
6809.00,0.7828
6808.00,0.7794
6807.00,0.7768
6806.00,0.7750
6805.00,0.7739
6804.00,0.7734
6803.00,0.7734
6802.00,0.7741
6801.00,0.7757
6800.00,0.7779
6799.00,0.7804
6798.00,0.7833
6797.00,0.7870
6796.00,0.7916
6795.00,0.7969
6794.00,0.8028
6793.00,0.8091
6792.00,0.8162
6791.00,0.8240
6790.00,0.8322
6789.00,0.8407
6788.00,0.8494
6787.00,0.8584
6786.00,0.8679
6785.00,0.8779
6784.00,0.8881
6783.00,0.8985
6782.00,0.9088
6781.00,0.9191
6780.00,0.9295
6779.00,0.9400
6778.00,0.9507
6777.00,0.9617
6776.00,0.9729
6775.00,0.9843
6774.00,0.9956
6773.00,1.0067
6772.00,1.0171
6771.00,1.0271
6770.00,1.0369
6769.00,1.0466
6768.00,1.0564
6767.00,1.0662
6766.00,1.0761
6765.00,1.0857
6764.00,1.0950
6763.00,1.1037
6762.00,1.1121
6761.00,1.1201
6760.00,1.1274
6759.00,1.1343
6758.00,1.1410
6757.00,1.1480
6756.00,1.1549
6755.00,1.1613
6754.00,1.1674
6753.00,1.1733
6752.00,1.1788
6751.00,1.1834
6750.00,1.1873
6749.00,1.1912
6748.00,1.1952
6747.00,1.1988
6746.00,1.2016
6745.00,1.2040
6744.00,1.2062
6743.00,1.2082
6742.00,1.2095
6741.00,1.2101
6740.00,1.2106
6739.00,1.2111
6738.00,1.2113
6737.00,1.2108
6736.00,1.2093
6735.00,1.2071
6734.00,1.2047
6733.00,1.2022
6732.00,1.1993
6731.00,1.1958
6730.00,1.1916
6729.00,1.1870
6728.00,1.1818
6727.00,1.1764
6726.00,1.1709
6725.00,1.1654
6724.00,1.1600
6723.00,1.1544
6722.00,1.1483
6721.00,1.1417
6720.00,1.1344
6719.00,1.1266
6718.00,1.1184
6717.00,1.1099
6716.00,1.1014
6715.00,1.0928
6714.00,1.0840
6713.00,1.0747
6712.00,1.0649
6711.00,1.0545
6710.00,1.0439
6709.00,1.0331
6708.00,1.0220
6707.00,1.0108
6706.00,0.9995
6705.00,0.9883
6704.00,0.9771
6703.00,0.9660
6702.00,0.9549
6701.00,0.9439
6700.00,0.9328
6699.00,0.9217
6698.00,0.9109
6697.00,0.9001
6696.00,0.8894
6695.00,0.8788
6694.00,0.8685
6693.00,0.8585
6692.00,0.8488
6691.00,0.8394
6690.00,0.8303
6689.00,0.8219
6688.00,0.8140
6687.00,0.8067
6686.00,0.7998
6685.00,0.7935
6684.00,0.7877
6683.00,0.7823
6682.00,0.7775
6681.00,0.7735
6680.00,0.7703
6679.00,0.7676
6678.00,0.7655
6677.00,0.7640
6676.00,0.7633
6675.00,0.7632
6674.00,0.7638
6673.00,0.7652
6672.00,0.7673
6671.00,0.7703
6670.00,0.7739
6669.00,0.7782
6668.00,0.7831
6667.00,0.7884
6666.00,0.7945
6665.00,0.8011
6664.00,0.8084
6663.00,0.8163
6662.00,0.8245
6661.00,0.8332
6660.00,0.8422
6659.00,0.8516
6658.00,0.8613
6657.00,0.8715
6656.00,0.8821
6655.00,0.8929
6654.00,0.9039
6653.00,0.9149
6652.00,0.9259
6651.00,0.9369
6650.00,0.9480
6649.00,0.9593
6648.00,0.9707
6647.00,0.9821
6646.00,0.9935
6645.00,1.0049
6644.00,1.0162
6643.00,1.0272
6642.00,1.0379
6641.00,1.0485
6640.00,1.0589
6639.00,1.0692
6638.00,1.0794
6637.00,1.0895
6636.00,1.0995
6635.00,1.1091
6634.00,1.1184
6633.00,1.1276
6632.00,1.1366
6631.00,1.1450
6630.00,1.1524
6629.00,1.1592
6628.00,1.1656
6627.00,1.1721
6626.00,1.1785
6625.00,1.1846
6624.00,1.1905
6623.00,1.1964
6622.00,1.2024
6621.00,1.2081
6620.00,1.2133
6619.00,1.2175
6618.00,1.2212
6617.00,1.2245
6616.00,1.2271
6615.00,1.2290
6614.00,1.2302
6613.00,1.2312
6612.00,1.2323
6611.00,1.2332
6610.00,1.2336
6609.00,1.2335
6608.00,1.2330
6607.00,1.2320
6606.00,1.2304
6605.00,1.2282
6604.00,1.2255
6603.00,1.2226
6602.00,1.2198
6601.00,1.2168
6600.00,1.2133
6599.00,1.2088
6598.00,1.2038
6597.00,1.1985
6596.00,1.1929
6595.00,1.1870
6594.00,1.1806
6593.00,1.1738
6592.00,1.1666
6591.00,1.1588
6590.00,1.1505
6589.00,1.1416
6588.00,1.1323
6587.00,1.1227
6586.00,1.1130
6585.00,1.1032
6584.00,1.0932
6583.00,1.0826
6582.00,1.0716
6581.00,1.0603
6580.00,1.0486
6579.00,1.0368
6578.00,1.0248
6577.00,1.0130
6576.00,1.0013
6575.00,0.9895
6574.00,0.9775
6573.00,0.9654
6572.00,0.9532
6571.00,0.9411
6570.00,0.9291
6569.00,0.9175
6568.00,0.9061
6567.00,0.8948
6566.00,0.8838
6565.00,0.8732
6564.00,0.8629
6563.00,0.8527
6562.00,0.8428
6561.00,0.8334
6560.00,0.8247
6559.00,0.8165
6558.00,0.8088
6557.00,0.8015
6556.00,0.7949
6555.00,0.7889
6554.00,0.7836
6553.00,0.7790
6552.00,0.7752
6551.00,0.7722
6550.00,0.7699
6549.00,0.7684
6548.00,0.7675
6547.00,0.7671
6546.00,0.7676
6545.00,0.7687
6544.00,0.7706
6543.00,0.7732
6542.00,0.7766
6541.00,0.7809
6540.00,0.7860
6539.00,0.7915
6538.00,0.7975
6537.00,0.8041
6536.00,0.8112
6535.00,0.8190
6534.00,0.8273
6533.00,0.8361
6532.00,0.8453
6531.00,0.8548
6530.00,0.8648
6529.00,0.8751
6528.00,0.8856
6527.00,0.8962
6526.00,0.9073
6525.00,0.9188
6524.00,0.9305
6523.00,0.9422
6522.00,0.9536
6521.00,0.9649
6520.00,0.9761
6519.00,0.9869
6518.00,0.9974
6517.00,1.0078
6516.00,1.0185
6515.00,1.0295
6514.00,1.0407
6513.00,1.0519
6512.00,1.0629
6511.00,1.0735
6510.00,1.0837
6509.00,1.0934
6508.00,1.1028
6507.00,1.1118
6506.00,1.1203
6505.00,1.1286
6504.00,1.1369
6503.00,1.1453
6502.00,1.1533
6501.00,1.1606
6500.00,1.1674
6499.00,1.1739
6498.00,1.1801
6497.00,1.1857
6496.00,1.1907
6495.00,1.1956
6494.00,1.2004
6493.00,1.2051
6492.00,1.2093
6491.00,1.2131
6490.00,1.2163
6489.00,1.2190
6488.00,1.2210
6487.00,1.2225
6486.00,1.2236
6485.00,1.2246
6484.00,1.2257
6483.00,1.2266
6482.00,1.2270
6481.00,1.2269
6480.00,1.2264
6479.00,1.2254
6478.00,1.2237
6477.00,1.2213
6476.00,1.2182
6475.00,1.2148
6474.00,1.2114
6473.00,1.2078
6472.00,1.2037
6471.00,1.1992
6470.00,1.1942
6469.00,1.1890
6468.00,1.1836
6467.00,1.1778
6466.00,1.1715
6465.00,1.1648
6464.00,1.1574
6463.00,1.1496
6462.00,1.1415
6461.00,1.1330
6460.00,1.1243
6459.00,1.1151
6458.00,1.1057
6457.00,1.0961
6456.00,1.0865
6455.00,1.0764
6454.00,1.0660
6453.00,1.0553
6452.00,1.0444
6451.00,1.0334
6450.00,1.0220
6449.00,1.0103
6448.00,0.9984
6447.00,0.9865
6446.00,0.9747
6445.00,0.9628
6444.00,0.9508
6443.00,0.9387
6442.00,0.9265
6441.00,0.9144
6440.00,0.9025
6439.00,0.8908
6438.00,0.8795
6437.00,0.8686
6436.00,0.8583
6435.00,0.8483
6434.00,0.8388
6433.00,0.8296
6432.00,0.8209
6431.00,0.8127
6430.00,0.8049
6429.00,0.7977
6428.00,0.7909
6427.00,0.7847
6426.00,0.7791
6425.00,0.7742
6424.00,0.7700
6423.00,0.7668
6422.00,0.7644
6421.00,0.7629
6420.00,0.7620
6419.00,0.7618
6418.00,0.7623
6417.00,0.7636
6416.00,0.7656
6415.00,0.7683
6414.00,0.7719
6413.00,0.7761
6412.00,0.7811
6411.00,0.7867
6410.00,0.7930
6409.00,0.7998
6408.00,0.8073
6407.00,0.8153
6406.00,0.8240
6405.00,0.8333
6404.00,0.8430
6403.00,0.8529
6402.00,0.8632
6401.00,0.8737
6400.00,0.8846
6399.00,0.8958
6398.00,0.9072
6397.00,0.9190
6396.00,0.9309
6395.00,0.9429
6394.00,0.9548
6393.00,0.9668
6392.00,0.9788
6391.00,0.9906
6390.00,1.0024
6389.00,1.0143
6388.00,1.0262
6387.00,1.0380
6386.00,1.0495
6385.00,1.0609
6384.00,1.0721
6383.00,1.0830
6382.00,1.0934
6381.00,1.1036
6380.00,1.1135
6379.00,1.1233
6378.00,1.1331
6377.00,1.1429
6376.00,1.1525
6375.00,1.1617
6374.00,1.1704
6373.00,1.1786
6372.00,1.1861
6371.00,1.1929
6370.00,1.1990
6369.00,1.2048
6368.00,1.2104
6367.00,1.2157
6366.00,1.2208
6365.00,1.2258
6364.00,1.2308
6363.00,1.2356
6362.00,1.2401
6361.00,1.2440
6360.00,1.2472
6359.00,1.2501
6358.00,1.2528
6357.00,1.2553
6356.00,1.2572
6355.00,1.2583
6354.00,1.2589
6353.00,1.2590
6352.00,1.2585
6351.00,1.2571
6350.00,1.2552
6349.00,1.2532
6348.00,1.2508
6347.00,1.2480
6346.00,1.2447
6345.00,1.2411
6344.00,1.2374
6343.00,1.2331
6342.00,1.2282
6341.00,1.2226
6340.00,1.2167
6339.00,1.2102
6338.00,1.2032
6337.00,1.1959
6336.00,1.1885
6335.00,1.1810
6334.00,1.1732
6333.00,1.1648
6332.00,1.1560
6331.00,1.1464
6330.00,1.1363
6329.00,1.1257
6328.00,1.1148
6327.00,1.1035
6326.00,1.0919
6325.00,1.0802
6324.00,1.0684
6323.00,1.0565
6322.00,1.0445
6321.00,1.0324
6320.00,1.0200
6319.00,1.0073
6318.00,0.9945
6317.00,0.9818
6316.00,0.9691
6315.00,0.9561
6314.00,0.9428
6313.00,0.9298
6312.00,0.9173
6311.00,0.9051
6310.00,0.8932
6309.00,0.8815
6308.00,0.8700
6307.00,0.8589
6306.00,0.8480
6305.00,0.8375
6304.00,0.8275
6303.00,0.8183
6302.00,0.8098
6301.00,0.8021
6300.00,0.7951
6299.00,0.7886
6298.00,0.7826
6297.00,0.7773
6296.00,0.7728
6295.00,0.7693
6294.00,0.7665
6293.00,0.7646
6292.00,0.7635
6291.00,0.7631
6290.00,0.7634
6289.00,0.7645
6288.00,0.7664
6287.00,0.7691
6286.00,0.7726
6285.00,0.7768
6284.00,0.7817
6283.00,0.7872
6282.00,0.7933
6281.00,0.8002
6280.00,0.8078
6279.00,0.8161
6278.00,0.8249
6277.00,0.8342
6276.00,0.8439
6275.00,0.8540
6274.00,0.8644
6273.00,0.8751
6272.00,0.8861
6271.00,0.8975
6270.00,0.9091
6269.00,0.9209
6268.00,0.9328
6267.00,0.9447
6266.00,0.9566
6265.00,0.9684
6264.00,0.9804
6263.00,0.9923
6262.00,1.0042
6261.00,1.0159
6260.00,1.0276
6259.00,1.0392
6258.00,1.0506
6257.00,1.0615
6256.00,1.0720
6255.00,1.0824
6254.00,1.0928
6253.00,1.1032
6252.00,1.1135
6251.00,1.1237
6250.00,1.1337
6249.00,1.1434
6248.00,1.1526
6247.00,1.1611
6246.00,1.1687
6245.00,1.1756
6244.00,1.1821
6243.00,1.1885
6242.00,1.1947
6241.00,1.2007
6240.00,1.2066
6239.00,1.2121
6238.00,1.2173
6237.00,1.2221
6236.00,1.2264
6235.00,1.2301
6234.00,1.2333
6233.00,1.2361
6232.00,1.2385
6231.00,1.2405
6230.00,1.2420
6229.00,1.2431
6228.00,1.2438
6227.00,1.2444
6226.00,1.2448
6225.00,1.2450
6224.00,1.2448
6223.00,1.2440
6222.00,1.2426
6221.00,1.2404
6220.00,1.2376
6219.00,1.2343
6218.00,1.2308
6217.00,1.2271
6216.00,1.2235
6215.00,1.2197
6214.00,1.2157
6213.00,1.2111
6212.00,1.2059
6211.00,1.2000
6210.00,1.1934
6209.00,1.1864
6208.00,1.1791
6207.00,1.1715
6206.00,1.1638
6205.00,1.1557
6204.00,1.1474
6203.00,1.1387
6202.00,1.1293
6201.00,1.1195
6200.00,1.1094
6199.00,1.0992
6198.00,1.0886
6197.00,1.0776
6196.00,1.0662
6195.00,1.0546
6194.00,1.0428
6193.00,1.0307
6192.00,1.0182
6191.00,1.0053
6190.00,0.9923
6189.00,0.9793
6188.00,0.9662
6187.00,0.9531
6186.00,0.9403
6185.00,0.9277
6184.00,0.9154
6183.00,0.9033
6182.00,0.8912
6181.00,0.8793
6180.00,0.8677
6179.00,0.8564
6178.00,0.8455
6177.00,0.8352
6176.00,0.8255
6175.00,0.8163
6174.00,0.8076
6173.00,0.7994
6172.00,0.7920
6171.00,0.7853
6170.00,0.7793
6169.00,0.7741
6168.00,0.7696
6167.00,0.7659
6166.00,0.7628
6165.00,0.7605
6164.00,0.7589
6163.00,0.7581
6162.00,0.7584
6161.00,0.7596
6160.00,0.7616
6159.00,0.7644
6158.00,0.7680
6157.00,0.7724
6156.00,0.7775
6155.00,0.7834
6154.00,0.7900
6153.00,0.7974
6152.00,0.8056
6151.00,0.8143
6150.00,0.8236
6149.00,0.8334
6148.00,0.8435
6147.00,0.8540
6146.00,0.8648
6145.00,0.8760
6144.00,0.8876
6143.00,0.8996
6142.00,0.9119
6141.00,0.9244
6140.00,0.9369
6139.00,0.9496
6138.00,0.9623
6137.00,0.9750
6136.00,0.9878
6135.00,1.0007
6134.00,1.0135
6133.00,1.0261
6132.00,1.0384
6131.00,1.0503
6130.00,1.0622
6129.00,1.0738
6128.00,1.0854
6127.00,1.0969
6126.00,1.1081
6125.00,1.1189
6124.00,1.1292
6123.00,1.1395
6122.00,1.1499
6121.00,1.1603
6120.00,1.1702
6119.00,1.1796
6118.00,1.1886
6117.00,1.1972
6116.00,1.2056
6115.00,1.2136
6114.00,1.2212
6113.00,1.2286
6112.00,1.2354
6111.00,1.2415
6110.00,1.2469
6109.00,1.2517
6108.00,1.2562
6107.00,1.2604
6106.00,1.2644
6105.00,1.2681
6104.00,1.2712
6103.00,1.2736
6102.00,1.2755
6101.00,1.2771
6100.00,1.2784
6099.00,1.2792
6098.00,1.2795
6097.00,1.2794
6096.00,1.2793
6095.00,1.2791
6094.00,1.2786
6093.00,1.2777
6092.00,1.2762
6091.00,1.2739
6090.00,1.2706
6089.00,1.2665
6088.00,1.2617
6087.00,1.2565
6086.00,1.2513
6085.00,1.2460
6084.00,1.2405
6083.00,1.2345
6082.00,1.2280
6081.00,1.2210
6080.00,1.2133
6079.00,1.2050
6078.00,1.1961
6077.00,1.1868
6076.00,1.1773
6075.00,1.1677
6074.00,1.1579
6073.00,1.1478
6072.00,1.1372
6071.00,1.1260
6070.00,1.1143
6069.00,1.1020
6068.00,1.0894
6067.00,1.0764
6066.00,1.0632
6065.00,1.0500
6064.00,1.0367
6063.00,1.0232
6062.00,1.0095
6061.00,0.9954
6060.00,0.9814
6059.00,0.9675
6058.00,0.9536
6057.00,0.9398
6056.00,0.9262
6055.00,0.9130
6054.00,0.9000
6053.00,0.8874
6052.00,0.8749
6051.00,0.8628
6050.00,0.8513
6049.00,0.8402
6048.00,0.8296
6047.00,0.8196
6046.00,0.8102
6045.00,0.8014
6044.00,0.7932
6043.00,0.7857
6042.00,0.7791
6041.00,0.7733
6040.00,0.7684
6039.00,0.7642
6038.00,0.7607
6037.00,0.7581
6036.00,0.7563
6035.00,0.7552
6034.00,0.7552
6033.00,0.7561
6032.00,0.7581
6031.00,0.7609
6030.00,0.7645
6029.00,0.7689
6028.00,0.7741
6027.00,0.7799
6026.00,0.7866
6025.00,0.7940
6024.00,0.8021
6023.00,0.8109
6022.00,0.8202
6021.00,0.8300
6020.00,0.8403
6019.00,0.8509
6018.00,0.8620
6017.00,0.8734
6016.00,0.8853
6015.00,0.8975
6014.00,0.9102
6013.00,0.9232
6012.00,0.9363
6011.00,0.9493
6010.00,0.9621
6009.00,0.9751
6008.00,0.9881
6007.00,1.0012
6006.00,1.0143
6005.00,1.0274
6004.00,1.0405
6003.00,1.0535
6002.00,1.0661
6001.00,1.0782
6000.00,1.0899
5999.00,1.1016
5998.00,1.1131
5997.00,1.1244
5996.00,1.1354
5995.00,1.1461
5994.00,1.1567
5993.00,1.1669
5992.00,1.1767
5991.00,1.1860
5990.00,1.1950
5989.00,1.2040
5988.00,1.2130
5987.00,1.2217
5986.00,1.2300
5985.00,1.2377
5984.00,1.2450
5983.00,1.2518
5982.00,1.2581
5981.00,1.2639
5980.00,1.2690
5979.00,1.2735
5978.00,1.2776
5977.00,1.2812
5976.00,1.2844
5975.00,1.2874
5974.00,1.2904
5973.00,1.2930
5972.00,1.2951
5971.00,1.2965
5970.00,1.2974
5969.00,1.2976
5968.00,1.2973
5967.00,1.2967
5966.00,1.2960
5965.00,1.2949
5964.00,1.2930
5963.00,1.2905
5962.00,1.2873
5961.00,1.2835
5960.00,1.2790
5959.00,1.2739
5958.00,1.2687
5957.00,1.2636
5956.00,1.2584
5955.00,1.2528
5954.00,1.2465
5953.00,1.2395
5952.00,1.2316
5951.00,1.2232
5950.00,1.2143
5949.00,1.2053
5948.00,1.1960
5947.00,1.1862
5946.00,1.1759
5945.00,1.1650
5944.00,1.1536
5943.00,1.1415
5942.00,1.1291
5941.00,1.1166
5940.00,1.1039
5939.00,1.0910
5938.00,1.0777
5937.00,1.0643
5936.00,1.0507
5935.00,1.0368
5934.00,1.0228
5933.00,1.0086
5932.00,0.9942
5931.00,0.9798
5930.00,0.9653
5929.00,0.9512
5928.00,0.9372
5927.00,0.9236
5926.00,0.9103
5925.00,0.8974
5924.00,0.8849
5923.00,0.8728
5922.00,0.8611
5921.00,0.8499
5920.00,0.8391
5919.00,0.8287
5918.00,0.8189
5917.00,0.8098
5916.00,0.8014
5915.00,0.7937
5914.00,0.7869
5913.00,0.7810
5912.00,0.7761
5911.00,0.7721
5910.00,0.7689
5909.00,0.7667
5908.00,0.7654
5907.00,0.7649
5906.00,0.7653
5905.00,0.7666
5904.00,0.7687
5903.00,0.7718
5902.00,0.7757
5901.00,0.7805
5900.00,0.7863
5899.00,0.7929
5898.00,0.8003
5897.00,0.8084
5896.00,0.8171
5895.00,0.8265
5894.00,0.8365
5893.00,0.8471
5892.00,0.8581
5891.00,0.8696
5890.00,0.8816
5889.00,0.8939
5888.00,0.9064
5887.00,0.9191
5886.00,0.9320
5885.00,0.9453
5884.00,0.9588
5883.00,0.9724
5882.00,0.9859
5881.00,0.9993
5880.00,1.0127
5879.00,1.0259
5878.00,1.0391
5877.00,1.0521
5876.00,1.0650
5875.00,1.0778
5874.00,1.0906
5873.00,1.1031
5872.00,1.1155
5871.00,1.1277
5870.00,1.1399
5869.00,1.1518
5868.00,1.1633
5867.00,1.1741
5866.00,1.1843
5865.00,1.1941
5864.00,1.2035
5863.00,1.2125
5862.00,1.2213
5861.00,1.2302
5860.00,1.2390
5859.00,1.2473
5858.00,1.2551
5857.00,1.2626
5856.00,1.2696
5855.00,1.2760
5854.00,1.2818
5853.00,1.2872
5852.00,1.2923
5851.00,1.2972
5850.00,1.3016
5849.00,1.3053
5848.00,1.3085
5847.00,1.3112
5846.00,1.3136
5845.00,1.3158
5844.00,1.3176
5843.00,1.3187
5842.00,1.3194
5841.00,1.3196
5840.00,1.3195
5839.00,1.3192
5838.00,1.3186
5837.00,1.3175
5836.00,1.3157
5835.00,1.3132
5834.00,1.3100
5833.00,1.3061
5832.00,1.3017
5831.00,1.2971
5830.00,1.2924
5829.00,1.2875
5828.00,1.2819
5827.00,1.2757
5826.00,1.2690
5825.00,1.2619
5824.00,1.2544
5823.00,1.2463
5822.00,1.2376
5821.00,1.2286
5820.00,1.2194
5819.00,1.2096
5818.00,1.1993
5817.00,1.1886
5816.00,1.1775
5815.00,1.1660
5814.00,1.1541
5813.00,1.1421
5812.00,1.1298
5811.00,1.1171
5810.00,1.1039
5809.00,1.0903
5808.00,1.0765
5807.00,1.0623
5806.00,1.0480
5805.00,1.0337
5804.00,1.0194
5803.00,1.0052
5802.00,0.9908
5801.00,0.9763
5800.00,0.9618
5799.00,0.9472
5798.00,0.9329
5797.00,0.9188
5796.00,0.9050
5795.00,0.8917
5794.00,0.8790
5793.00,0.8668
5792.00,0.8551
5791.00,0.8439
5790.00,0.8333
5789.00,0.8233
5788.00,0.8140
5787.00,0.8054
5786.00,0.7976
5785.00,0.7908
5784.00,0.7848
5783.00,0.7797
5782.00,0.7756
5781.00,0.7724
5780.00,0.7702
5779.00,0.7689
5778.00,0.7686
5777.00,0.7692
5776.00,0.7708
5775.00,0.7733
5774.00,0.7767
5773.00,0.7811
5772.00,0.7864
5771.00,0.7926
5770.00,0.7996
5769.00,0.8076
5768.00,0.8163
5767.00,0.8258
5766.00,0.8359
5765.00,0.8467
5764.00,0.8579
5763.00,0.8694
5762.00,0.8814
5761.00,0.8939
5760.00,0.9067
5759.00,0.9198
5758.00,0.9332
5757.00,0.9468
5756.00,0.9607
5755.00,0.9746
5754.00,0.9885
5753.00,1.0024
5752.00,1.0164
5751.00,1.0303
5750.00,1.0441
5749.00,1.0579
5748.00,1.0716
5747.00,1.0851
5746.00,1.0983
5745.00,1.1112
5744.00,1.1237
5743.00,1.1360
5742.00,1.1479
5741.00,1.1595
5740.00,1.1709
5739.00,1.1821
5738.00,1.1930
5737.00,1.2036
5736.00,1.2138
5735.00,1.2236
5734.00,1.2331
5733.00,1.2422
5732.00,1.2510
5731.00,1.2592
5730.00,1.2671
5729.00,1.2745
5728.00,1.2814
5727.00,1.2878
5726.00,1.2941
5725.00,1.3002
5724.00,1.3063
5723.00,1.3120
5722.00,1.3171
5721.00,1.3215
5720.00,1.3253
5719.00,1.3284
5718.00,1.3307
5717.00,1.3325
5716.00,1.3339
5715.00,1.3351
5714.00,1.3361
5713.00,1.3365
5712.00,1.3365
5711.00,1.3361
5710.00,1.3351
5709.00,1.3336
5708.00,1.3317
5707.00,1.3293
5706.00,1.3266
5705.00,1.3233
5704.00,1.3192
5703.00,1.3144
5702.00,1.3090
5701.00,1.3034
5700.00,1.2977
5699.00,1.2917
5698.00,1.2854
5697.00,1.2787
5696.00,1.2715
5695.00,1.2637
5694.00,1.2551
5693.00,1.2459
5692.00,1.2363
5691.00,1.2263
5690.00,1.2160
5689.00,1.2051
5688.00,1.1938
5687.00,1.1821
5686.00,1.1700
5685.00,1.1576
5684.00,1.1447
5683.00,1.1313
5682.00,1.1176
5681.00,1.1035
5680.00,1.0890
5679.00,1.0742
5678.00,1.0592
5677.00,1.0440
5676.00,1.0289
5675.00,1.0137
5674.00,0.9986
5673.00,0.9835
5672.00,0.9684
5671.00,0.9535
5670.00,0.9387
5669.00,0.9242
5668.00,0.9099
5667.00,0.8959
5666.00,0.8824
5665.00,0.8695
5664.00,0.8572
5663.00,0.8455
5662.00,0.8345
5661.00,0.8240
5660.00,0.8142
5659.00,0.8050
5658.00,0.7967
5657.00,0.7893
5656.00,0.7828
5655.00,0.7773
5654.00,0.7727
5653.00,0.7692
5652.00,0.7665
5651.00,0.7648
5650.00,0.7641
5649.00,0.7644
5648.00,0.7657
5647.00,0.7679
5646.00,0.7711
5645.00,0.7752
5644.00,0.7803
5643.00,0.7864
5642.00,0.7933
5641.00,0.8010
5640.00,0.8095
5639.00,0.8187
5638.00,0.8287
5637.00,0.8393
5636.00,0.8505
5635.00,0.8623
5634.00,0.8746
5633.00,0.8872
5632.00,0.9002
5631.00,0.9134
5630.00,0.9270
5629.00,0.9408
5628.00,0.9549
5627.00,0.9691
5626.00,0.9832
5625.00,0.9972
5624.00,1.0111
5623.00,1.0250
5622.00,1.0390
5621.00,1.0530
5620.00,1.0668
5619.00,1.0805
5618.00,1.0939
5617.00,1.1071
5616.00,1.1199
5615.00,1.1324
5614.00,1.1446
5613.00,1.1565
5612.00,1.1679
5611.00,1.1790
5610.00,1.1896
5609.00,1.2000
5608.00,1.2100
5607.00,1.2196
5606.00,1.2286
5605.00,1.2372
5604.00,1.2455
5603.00,1.2537
5602.00,1.2616
5601.00,1.2693
5600.00,1.2765
5599.00,1.2832
5598.00,1.2894
5597.00,1.2950
5596.00,1.3002
5595.00,1.3051
5594.00,1.3097
5593.00,1.3137
5592.00,1.3169
5591.00,1.3193
5590.00,1.3211
5589.00,1.3226
5588.00,1.3239
5587.00,1.3252
5586.00,1.3264
5585.00,1.3273
5584.00,1.3277
5583.00,1.3274
5582.00,1.3264
5581.00,1.3249
5580.00,1.3230
5579.00,1.3208
5578.00,1.3182
5577.00,1.3154
5576.00,1.3123
5575.00,1.3088
5574.00,1.3050
5573.00,1.3006
5572.00,1.2957
5571.00,1.2901
5570.00,1.2841
5569.00,1.2777
5568.00,1.2710
5567.00,1.2637
5566.00,1.2559
5565.00,1.2473
5564.00,1.2381
5563.00,1.2284
5562.00,1.2184
5561.00,1.2081
5560.00,1.1974
5559.00,1.1863
5558.00,1.1746
5557.00,1.1626
5556.00,1.1501
5555.00,1.1371
5554.00,1.1237
5553.00,1.1100
5552.00,1.0959
5551.00,1.0814
5550.00,1.0664
5549.00,1.0512
5548.00,1.0358
5547.00,1.0203
5546.00,1.0048
5545.00,0.9892
5544.00,0.9737
5543.00,0.9581
5542.00,0.9426
5541.00,0.9273
5540.00,0.9123
5539.00,0.8977
5538.00,0.8837
5537.00,0.8704
5536.00,0.8576
5535.00,0.8452
5534.00,0.8334
5533.00,0.8222
5532.00,0.8117
5531.00,0.8021
5530.00,0.7934
5529.00,0.7857
5528.00,0.7789
5527.00,0.7730
5526.00,0.7680
5525.00,0.7640
5524.00,0.7611
5523.00,0.7592
5522.00,0.7585
5521.00,0.7589
5520.00,0.7603
5519.00,0.7627
5518.00,0.7661
5517.00,0.7705
5516.00,0.7759
5515.00,0.7823
5514.00,0.7896
5513.00,0.7979
5512.00,0.8069
5511.00,0.8167
5510.00,0.8272
5509.00,0.8383
5508.00,0.8501
5507.00,0.8623
5506.00,0.8751
5505.00,0.8884
5504.00,0.9021
5503.00,0.9162
5502.00,0.9306
5501.00,0.9453
5500.00,0.9600
5499.00,0.9748
5498.00,0.9896
5497.00,1.0043
5496.00,1.0190
5495.00,1.0336
5494.00,1.0482
5493.00,1.0630
5492.00,1.0778
5491.00,1.0922
5490.00,1.1063
5489.00,1.1200
5488.00,1.1335
5487.00,1.1468
5486.00,1.1599
5485.00,1.1729
5484.00,1.1857
5483.00,1.1981
5482.00,1.2100
5481.00,1.2213
5480.00,1.2321
5479.00,1.2426
5478.00,1.2528
5477.00,1.2627
5476.00,1.2724
5475.00,1.2817
5474.00,1.2906
5473.00,1.2988
5472.00,1.3064
5471.00,1.3134
5470.00,1.3199
5469.00,1.3260
5468.00,1.3317
5467.00,1.3370
5466.00,1.3421
5465.00,1.3470
5464.00,1.3516
5463.00,1.3554
5462.00,1.3585
5461.00,1.3608
5460.00,1.3626
5459.00,1.3640
5458.00,1.3650
5457.00,1.3656
5456.00,1.3657
5455.00,1.3653
5454.00,1.3645
5453.00,1.3634
5452.00,1.3619
5451.00,1.3599
5450.00,1.3574
5449.00,1.3543
5448.00,1.3505
5447.00,1.3459
5446.00,1.3409
5445.00,1.3355
5444.00,1.3298
5443.00,1.3236
5442.00,1.3168
5441.00,1.3095
5440.00,1.3019
5439.00,1.2937
5438.00,1.2851
5437.00,1.2759
5436.00,1.2662
5435.00,1.2559
5434.00,1.2451
5433.00,1.2339
5432.00,1.2223
5431.00,1.2102
5430.00,1.1975
5429.00,1.1843
5428.00,1.1709
5427.00,1.1571
5426.00,1.1430
5425.00,1.1284
5424.00,1.1134
5423.00,1.0982
5422.00,1.0826
5421.00,1.0667
5420.00,1.0505
5419.00,1.0340
5418.00,1.0175
5417.00,1.0010
5416.00,0.9844
5415.00,0.9677
5414.00,0.9511
5413.00,0.9349
5412.00,0.9190
5411.00,0.9036
5410.00,0.8886
5409.00,0.8742
5408.00,0.8604
5407.00,0.8472
5406.00,0.8347
5405.00,0.8226
5404.00,0.8112
5403.00,0.8007
5402.00,0.7911
5401.00,0.7825
5400.00,0.7749
5399.00,0.7683
5398.00,0.7628
5397.00,0.7585
5396.00,0.7552
5395.00,0.7529
5394.00,0.7517
5393.00,0.7517
5392.00,0.7528
5391.00,0.7552
5390.00,0.7585
5389.00,0.7629
5388.00,0.7683
5387.00,0.7747
5386.00,0.7822
5385.00,0.7904
5384.00,0.7995
5383.00,0.8093
5382.00,0.8200
5381.00,0.8314
5380.00,0.8435
5379.00,0.8562
5378.00,0.8695
5377.00,0.8832
5376.00,0.8975
5375.00,0.9122
5374.00,0.9273
5373.00,0.9425
5372.00,0.9578
5371.00,0.9732
5370.00,0.9887
5369.00,1.0042
5368.00,1.0196
5367.00,1.0349
5366.00,1.0500
5365.00,1.0651
5364.00,1.0801
5363.00,1.0949
5362.00,1.1097
5361.00,1.1243
5360.00,1.1387
5359.00,1.1527
5358.00,1.1664
5357.00,1.1796
5356.00,1.1922
5355.00,1.2043
5354.00,1.2160
5353.00,1.2275
5352.00,1.2387
5351.00,1.2498
5350.00,1.2608
5349.00,1.2714
5348.00,1.2814
5347.00,1.2907
5346.00,1.2993
5345.00,1.3076
5344.00,1.3153
5343.00,1.3225
5342.00,1.3294
5341.00,1.3359
5340.00,1.3421
5339.00,1.3481
5338.00,1.3540
5337.00,1.3595
5336.00,1.3644
5335.00,1.3684
5334.00,1.3716
5333.00,1.3745
5332.00,1.3770
5331.00,1.3788
5330.00,1.3798
5329.00,1.3802
5328.00,1.3801
5327.00,1.3797
5326.00,1.3790
5325.00,1.3780
5324.00,1.3766
5323.00,1.3748
5322.00,1.3726
5321.00,1.3700
5320.00,1.3669
5319.00,1.3631
5318.00,1.3585
5317.00,1.3533
5316.00,1.3477
5315.00,1.3417
5314.00,1.3354
5313.00,1.3286
5312.00,1.3213
5311.00,1.3135
5310.00,1.3051
5309.00,1.2963
5308.00,1.2870
5307.00,1.2769
5306.00,1.2660
5305.00,1.2543
5304.00,1.2420
5303.00,1.2294
5302.00,1.2165
5301.00,1.2034
5300.00,1.1900
5299.00,1.1762
5298.00,1.1620
5297.00,1.1473
5296.00,1.1322
5295.00,1.1166
5294.00,1.1007
5293.00,1.0843
5292.00,1.0675
5291.00,1.0505
5290.00,1.0333
5289.00,1.0160
5288.00,0.9988
5287.00,0.9817
5286.00,0.9649
5285.00,0.9483
5284.00,0.9321
5283.00,0.9163
5282.00,0.9009
5281.00,0.8860
5280.00,0.8715
5279.00,0.8578
5278.00,0.8448
5277.00,0.8326
5276.00,0.8211
5275.00,0.8105
5274.00,0.8007
5273.00,0.7919
5272.00,0.7842
5271.00,0.7776
5270.00,0.7721
5269.00,0.7678
5268.00,0.7646
5267.00,0.7627
5266.00,0.7619
5265.00,0.7624
5264.00,0.7639
5263.00,0.7667
5262.00,0.7705
5261.00,0.7753
5260.00,0.7812
5259.00,0.7882
5258.00,0.7962
5257.00,0.8054
5256.00,0.8155
5255.00,0.8264
5254.00,0.8382
5253.00,0.8506
5252.00,0.8635
5251.00,0.8768
5250.00,0.8906
5249.00,0.9051
5248.00,0.9202
5247.00,0.9358
5246.00,0.9517
5245.00,0.9676
5244.00,0.9836
5243.00,0.9996
5242.00,1.0158
5241.00,1.0320
5240.00,1.0480
5239.00,1.0638
5238.00,1.0795
5237.00,1.0952
5236.00,1.1106
5235.00,1.1256
5234.00,1.1403
5233.00,1.1548
5232.00,1.1691
5231.00,1.1833
5230.00,1.1972
5229.00,1.2107
5228.00,1.2237
5227.00,1.2364
5226.00,1.2487
5225.00,1.2607
5224.00,1.2725
5223.00,1.2839
5222.00,1.2948
5221.00,1.3052
5220.00,1.3152
5219.00,1.3246
5218.00,1.3335
5217.00,1.3418
5216.00,1.3496
5215.00,1.3568
5214.00,1.3636
5213.00,1.3702
5212.00,1.3763
5211.00,1.3820
5210.00,1.3870
5209.00,1.3913
5208.00,1.3950
5207.00,1.3982
5206.00,1.4010
5205.00,1.4034
5204.00,1.4055
5203.00,1.4072
5202.00,1.4085
5201.00,1.4094
5200.00,1.4101
5199.00,1.4106
5198.00,1.4106
5197.00,1.4099
5196.00,1.4085
5195.00,1.4061
5194.00,1.4030
5193.00,1.3994
5192.00,1.3955
5191.00,1.3913
5190.00,1.3869
5189.00,1.3821
5188.00,1.3769
5187.00,1.3710
5186.00,1.3643
5185.00,1.3569
5184.00,1.3490
5183.00,1.3407
5182.00,1.3319
5181.00,1.3226
5180.00,1.3127
5179.00,1.3022
5178.00,1.2911
5177.00,1.2796
5176.00,1.2678
5175.00,1.2556
5174.00,1.2429
5173.00,1.2295
5172.00,1.2155
5171.00,1.2007
5170.00,1.1855
5169.00,1.1698
5168.00,1.1537
5167.00,1.1373
5166.00,1.1206
5165.00,1.1035
5164.00,1.0860
5163.00,1.0684
5162.00,1.0506
5161.00,1.0328
5160.00,1.0151
5159.00,0.9973
5158.00,0.9794
5157.00,0.9617
5156.00,0.9442
5155.00,0.9272
5154.00,0.9106
5153.00,0.8946
5152.00,0.8792
5151.00,0.8644
5150.00,0.8502
5149.00,0.8368
5148.00,0.8241
5147.00,0.8123
5146.00,0.8014
5145.00,0.7916
5144.00,0.7829
5143.00,0.7753
5142.00,0.7689
5141.00,0.7636
5140.00,0.7595
5139.00,0.7567
5138.00,0.7551
5137.00,0.7549
5136.00,0.7559
5135.00,0.7582
5134.00,0.7617
5133.00,0.7665
5132.00,0.7725
5131.00,0.7796
5130.00,0.7877
5129.00,0.7969
5128.00,0.8070
5127.00,0.8179
5126.00,0.8298
5125.00,0.8425
5124.00,0.8559
5123.00,0.8700
5122.00,0.8848
5121.00,0.9001
5120.00,0.9157
5119.00,0.9317
5118.00,0.9478
5117.00,0.9640
5116.00,0.9805
5115.00,0.9971
5114.00,1.0138
5113.00,1.0305
5112.00,1.0472
5111.00,1.0639
5110.00,1.0805
5109.00,1.0969
5108.00,1.1131
5107.00,1.1290
5106.00,1.1445
5105.00,1.1596
5104.00,1.1745
5103.00,1.1892
5102.00,1.2037
5101.00,1.2180
5100.00,1.2319
5099.00,1.2454
5098.00,1.2586
5097.00,1.2714
5096.00,1.2837
5095.00,1.2958
5094.00,1.3073
5093.00,1.3182
5092.00,1.3285
5091.00,1.3382
5090.00,1.3474
5089.00,1.3563
5088.00,1.3648
5087.00,1.3729
5086.00,1.3805
5085.00,1.3876
5084.00,1.3940
5083.00,1.4001
5082.00,1.4057
5081.00,1.4108
5080.00,1.4153
5079.00,1.4192
5078.00,1.4224
5077.00,1.4252
5076.00,1.4277
5075.00,1.4299
5074.00,1.4318
5073.00,1.4332
5072.00,1.4338
5071.00,1.4336
5070.00,1.4327
5069.00,1.4313
5068.00,1.4295
5067.00,1.4274
5066.00,1.4249
5065.00,1.4219
5064.00,1.4185
5063.00,1.4147
5062.00,1.4106
5061.00,1.4060
5060.00,1.4009
5059.00,1.3950
5058.00,1.3883
5057.00,1.3808
5056.00,1.3727
5055.00,1.3642
5054.00,1.3554
5053.00,1.3464
5052.00,1.3370
5051.00,1.3271
5050.00,1.3162
5049.00,1.3046
5048.00,1.2922
5047.00,1.2792
5046.00,1.2658
5045.00,1.2520
5044.00,1.2377
5043.00,1.2228
5042.00,1.2074
5041.00,1.1914
5040.00,1.1749
5039.00,1.1579
5038.00,1.1406
5037.00,1.1231
5036.00,1.1053
5035.00,1.0871
5034.00,1.0688
5033.00,1.0502
5032.00,1.0314
5031.00,1.0125
5030.00,0.9937
5029.00,0.9752
5028.00,0.9569
5027.00,0.9390
5026.00,0.9214
5025.00,0.9042
5024.00,0.8877
5023.00,0.8718
5022.00,0.8566
5021.00,0.8422
5020.00,0.8288
5019.00,0.8162
5018.00,0.8048
5017.00,0.7945
5016.00,0.7854
5015.00,0.7774
5014.00,0.7707
5013.00,0.7652
5012.00,0.7609
5011.00,0.7581
5010.00,0.7566
5009.00,0.7565
5008.00,0.7578
5007.00,0.7605
5006.00,0.7645
5005.00,0.7698
5004.00,0.7764
5003.00,0.7842
5002.00,0.7932
5001.00,0.8034
5000.00,0.8146
4999.00,0.8268
4998.00,0.8398
4997.00,0.8537
4996.00,0.8683
4995.00,0.8835
4994.00,0.8992
4993.00,0.9154
4992.00,0.9320
4991.00,0.9490
4990.00,0.9662
4989.00,0.9836
4988.00,1.0011
4987.00,1.0187
4986.00,1.0363
4985.00,1.0538
4984.00,1.0712
4983.00,1.0885
4982.00,1.1057
4981.00,1.1226
4980.00,1.1394
4979.00,1.1560
4978.00,1.1722
4977.00,1.1881
4976.00,1.2036
4975.00,1.2187
4974.00,1.2335
4973.00,1.2481
4972.00,1.2624
4971.00,1.2765
4970.00,1.2901
4969.00,1.3032
4968.00,1.3157
4967.00,1.3276
4966.00,1.3391
4965.00,1.3501
4964.00,1.3604
4963.00,1.3700
4962.00,1.3792
4961.00,1.3879
4960.00,1.3962
4959.00,1.4040
4958.00,1.4114
4957.00,1.4184
4956.00,1.4250
4955.00,1.4310
4954.00,1.4364
4953.00,1.4412
4952.00,1.4454
4951.00,1.4490
4950.00,1.4522
4949.00,1.4550
4948.00,1.4574
4947.00,1.4595
4946.00,1.4609
4945.00,1.4616
4944.00,1.4616
4943.00,1.4612
4942.00,1.4604
4941.00,1.4593
4940.00,1.4578
4939.00,1.4558
4938.00,1.4531
4937.00,1.4497
4936.00,1.4457
4935.00,1.4411
4934.00,1.4362
4933.00,1.4309
4932.00,1.4249
4931.00,1.4182
4930.00,1.4110
4929.00,1.4032
4928.00,1.3949
4927.00,1.3863
4926.00,1.3773
4925.00,1.3678
4924.00,1.3578
4923.00,1.3472
4922.00,1.3359
4921.00,1.3241
4920.00,1.3116
4919.00,1.2983
4918.00,1.2842
4917.00,1.2695
4916.00,1.2544
4915.00,1.2389
4914.00,1.2231
4913.00,1.2068
4912.00,1.1900
4911.00,1.1726
4910.00,1.1545
4909.00,1.1359
4908.00,1.1168
4907.00,1.0974
4906.00,1.0779
4905.00,1.0584
4904.00,1.0389
4903.00,1.0194
4902.00,0.9998
4901.00,0.9801
4900.00,0.9606
4899.00,0.9414
4898.00,0.9227
4897.00,0.9045
4896.00,0.8868
4895.00,0.8699
4894.00,0.8538
4893.00,0.8387
4892.00,0.8246
4891.00,0.8115
4890.00,0.7996
4889.00,0.7888
4888.00,0.7791
4887.00,0.7706
4886.00,0.7635
4885.00,0.7578
4884.00,0.7536
4883.00,0.7508
4882.00,0.7495
4881.00,0.7496
4880.00,0.7512
4879.00,0.7542
4878.00,0.7586
4877.00,0.7645
4876.00,0.7718
4875.00,0.7804
4874.00,0.7903
4873.00,0.8013
4872.00,0.8134
4871.00,0.8265
4870.00,0.8407
4869.00,0.8557
4868.00,0.8715
4867.00,0.8879
4866.00,0.9048
4865.00,0.9220
4864.00,0.9397
4863.00,0.9577
4862.00,0.9760
4861.00,0.9945
4860.00,1.0130
4859.00,1.0314
4858.00,1.0498
4857.00,1.0681
4856.00,1.0863
4855.00,1.1044
4854.00,1.1224
4853.00,1.1402
4852.00,1.1577
4851.00,1.1748
4850.00,1.1916
4849.00,1.2080
4848.00,1.2241
4847.00,1.2399
4846.00,1.2553
4845.00,1.2703
4844.00,1.2849
4843.00,1.2992
4842.00,1.3130
4841.00,1.3265
4840.00,1.3395
4839.00,1.3519
4838.00,1.3638
4837.00,1.3750
4836.00,1.3858
4835.00,1.3959
4834.00,1.4056
4833.00,1.4148
4832.00,1.4233
4831.00,1.4314
4830.00,1.4390
4829.00,1.4462
4828.00,1.4529
4827.00,1.4588
4826.00,1.4640
4825.00,1.4685
4824.00,1.4727
4823.00,1.4767
4822.00,1.4805
4821.00,1.4838
4820.00,1.4865
4819.00,1.4884
4818.00,1.4895
4817.00,1.4901
4816.00,1.4902
4815.00,1.4899
4814.00,1.4891
4813.00,1.4879
4812.00,1.4862
4811.00,1.4838
4810.00,1.4808
4809.00,1.4772
4808.00,1.4732
4807.00,1.4690
4806.00,1.4645
4805.00,1.4595
4804.00,1.4539
4803.00,1.4476
4802.00,1.4407
4801.00,1.4333
4800.00,1.4253
4799.00,1.4168
4798.00,1.4075
4797.00,1.3976
4796.00,1.3871
4795.00,1.3759
4794.00,1.3642
4793.00,1.3518
4792.00,1.3389
4791.00,1.3255
4790.00,1.3116
4789.00,1.2972
4788.00,1.2821
4787.00,1.2663
4786.00,1.2498
4785.00,1.2326
4784.00,1.2150
4783.00,1.1968
4782.00,1.1780
4781.00,1.1588
4780.00,1.1390
4779.00,1.1188
4778.00,1.0985
4777.00,1.0781
4776.00,1.0576
4775.00,1.0371
4774.00,1.0166
4773.00,0.9961
4772.00,0.9757
4771.00,0.9555
4770.00,0.9358
4769.00,0.9168
4768.00,0.8984
4767.00,0.8809
4766.00,0.8643
4765.00,0.8486
4764.00,0.8339
4763.00,0.8203
4762.00,0.8079
4761.00,0.7968
4760.00,0.7871
4759.00,0.7787
4758.00,0.7718
4757.00,0.7664
4756.00,0.7624
4755.00,0.7600
4754.00,0.7592
4753.00,0.7599
4752.00,0.7622
4751.00,0.7661
4750.00,0.7714
4749.00,0.7781
4748.00,0.7863
4747.00,0.7960
4746.00,0.8070
4745.00,0.8193
4744.00,0.8327
4743.00,0.8470
4742.00,0.8622
4741.00,0.8783
4740.00,0.8951
4739.00,0.9125
4738.00,0.9306
4737.00,0.9491
4736.00,0.9680
4735.00,0.9871
4734.00,1.0062
4733.00,1.0254
4732.00,1.0446
4731.00,1.0639
4730.00,1.0832
4729.00,1.1026
4728.00,1.1217
4727.00,1.1406
4726.00,1.1592
4725.00,1.1775
4724.00,1.1955
4723.00,1.2131
4722.00,1.2303
4721.00,1.2472
4720.00,1.2636
4719.00,1.2797
4718.00,1.2953
4717.00,1.3106
4716.00,1.3255
4715.00,1.3400
4714.00,1.3542
4713.00,1.3679
4712.00,1.3809
4711.00,1.3932
4710.00,1.4048
4709.00,1.4157
4708.00,1.4261
4707.00,1.4361
4706.00,1.4457
4705.00,1.4549
4704.00,1.4636
4703.00,1.4717
4702.00,1.4791
4701.00,1.4858
4700.00,1.4918
4699.00,1.4973
4698.00,1.5023
4697.00,1.5071
4696.00,1.5115
4695.00,1.5155
4694.00,1.5190
4693.00,1.5217
4692.00,1.5236
4691.00,1.5247
4690.00,1.5251
4689.00,1.5252
4688.00,1.5250
4687.00,1.5247
4686.00,1.5240
4685.00,1.5229
4684.00,1.5212
4683.00,1.5186
4682.00,1.5154
4681.00,1.5118
4680.00,1.5078
4679.00,1.5033
4678.00,1.4984
4677.00,1.4929
4676.00,1.4870
4675.00,1.4805
4674.00,1.4734
4673.00,1.4657
4672.00,1.4573
4671.00,1.4483
4670.00,1.4386
4669.00,1.4287
4668.00,1.4183
4667.00,1.4076
4666.00,1.3962
4665.00,1.3840
4664.00,1.3709
4663.00,1.3569
4662.00,1.3423
4661.00,1.3271
4660.00,1.3114
4659.00,1.2951
4658.00,1.2783
4657.00,1.2609
4656.00,1.2430
4655.00,1.2246
4654.00,1.2056
4653.00,1.1859
4652.00,1.1655
4651.00,1.1446
4650.00,1.1232
4649.00,1.1017
4648.00,1.0800
4647.00,1.0583
4646.00,1.0365
4645.00,1.0149
4644.00,0.9935
4643.00,0.9723
4642.00,0.9516
4641.00,0.9314
4640.00,0.9119
4639.00,0.8932
4638.00,0.8755
4637.00,0.8588
4636.00,0.8432
4635.00,0.8288
4634.00,0.8155
4633.00,0.8036
4632.00,0.7932
4631.00,0.7843
4630.00,0.7771
4629.00,0.7716
4628.00,0.7677
4627.00,0.7655
4626.00,0.7649
4625.00,0.7660
4624.00,0.7687
4623.00,0.7730
4622.00,0.7790
4621.00,0.7865
4620.00,0.7955
4619.00,0.8060
4618.00,0.8179
4617.00,0.8311
4616.00,0.8455
4615.00,0.8608
4614.00,0.8771
4613.00,0.8941
4612.00,0.9119
4611.00,0.9303
4610.00,0.9493
4609.00,0.9686
4608.00,0.9882
4607.00,1.0079
4606.00,1.0277
4605.00,1.0477
4604.00,1.0678
4603.00,1.0878
4602.00,1.1076
4601.00,1.1273
4600.00,1.1469
4599.00,1.1662
4598.00,1.1854
4597.00,1.2044
4596.00,1.2230
4595.00,1.2413
4594.00,1.2591
4593.00,1.2765
4592.00,1.2933
4591.00,1.3096
4590.00,1.3256
4589.00,1.3413
4588.00,1.3566
4587.00,1.3714
4586.00,1.3857
4585.00,1.3992
4584.00,1.4121
4583.00,1.4244
4582.00,1.4362
4581.00,1.4476
4580.00,1.4585
4579.00,1.4689
4578.00,1.4788
4577.00,1.4880
4576.00,1.4966
4575.00,1.5045
4574.00,1.5117
4573.00,1.5183
4572.00,1.5243
4571.00,1.5300
4570.00,1.5353
4569.00,1.5401
4568.00,1.5444
4567.00,1.5481
4566.00,1.5511
4565.00,1.5535
4564.00,1.5554
4563.00,1.5566
4562.00,1.5573
4561.00,1.5577
4560.00,1.5577
4559.00,1.5574
4558.00,1.5568
4557.00,1.5557
4556.00,1.5541
4555.00,1.5519
4554.00,1.5489
4553.00,1.5452
4552.00,1.5408
4551.00,1.5359
4550.00,1.5305
4549.00,1.5246
4548.00,1.5182
4547.00,1.5111
4546.00,1.5034
4545.00,1.4953
4544.00,1.4868
4543.00,1.4777
4542.00,1.4681
4541.00,1.4577
4540.00,1.4466
4539.00,1.4350
4538.00,1.4227
4537.00,1.4099
4536.00,1.3964
4535.00,1.3822
4534.00,1.3672
4533.00,1.3514
4532.00,1.3350
4531.00,1.3179
4530.00,1.3001
4529.00,1.2817
4528.00,1.2627
4527.00,1.2431
4526.00,1.2228
4525.00,1.2018
4524.00,1.1804
4523.00,1.1584
4522.00,1.1362
4521.00,1.1137
4520.00,1.0911
4519.00,1.0683
4518.00,1.0454
4517.00,1.0228
4516.00,1.0004
4515.00,0.9783
4514.00,0.9567
4513.00,0.9357
4512.00,0.9154
4511.00,0.8960
4510.00,0.8776
4509.00,0.8604
4508.00,0.8444
4507.00,0.8298
4506.00,0.8165
4505.00,0.8048
4504.00,0.7947
4503.00,0.7861
4502.00,0.7793
4501.00,0.7743
4500.00,0.7710
4499.00,0.7695
4498.00,0.7698
4497.00,0.7720
4496.00,0.7760
4495.00,0.7819
4494.00,0.7895
4493.00,0.7987
4492.00,0.8096
4491.00,0.8219
4490.00,0.8356
4489.00,0.8507
4488.00,0.8669
4487.00,0.8842
4486.00,0.9024
4485.00,0.9214
4484.00,0.9411
4483.00,0.9613
4482.00,0.9819
4481.00,1.0028
4480.00,1.0239
4479.00,1.0453
4478.00,1.0667
4477.00,1.0881
4476.00,1.1094
4475.00,1.1305
4474.00,1.1513
4473.00,1.1719
4472.00,1.1922
4471.00,1.2122
4470.00,1.2319
4469.00,1.2512
4468.00,1.2702
4467.00,1.2887
4466.00,1.3069
4465.00,1.3247
4464.00,1.3422
4463.00,1.3593
4462.00,1.3759
4461.00,1.3918
4460.00,1.4071
4459.00,1.4217
4458.00,1.4357
4457.00,1.4492
4456.00,1.4621
4455.00,1.4743
4454.00,1.4858
4453.00,1.4966
4452.00,1.5067
4451.00,1.5164
4450.00,1.5257
4449.00,1.5346
4448.00,1.5431
4447.00,1.5509
4446.00,1.5579
4445.00,1.5640
4444.00,1.5695
4443.00,1.5745
4442.00,1.5791
4441.00,1.5835
4440.00,1.5874
4439.00,1.5907
4438.00,1.5931
4437.00,1.5946
4436.00,1.5955
4435.00,1.5959
4434.00,1.5961
4433.00,1.5961
4432.00,1.5957
4431.00,1.5948
4430.00,1.5934
4429.00,1.5912
4428.00,1.5884
4427.00,1.5850
4426.00,1.5811
4425.00,1.5768
4424.00,1.5719
4423.00,1.5665
4422.00,1.5604
4421.00,1.5539
4420.00,1.5470
4419.00,1.5395
4418.00,1.5313
4417.00,1.5223
4416.00,1.5125
4415.00,1.5021
4414.00,1.4912
4413.00,1.4800
4412.00,1.4682
4411.00,1.4558
4410.00,1.4427
4409.00,1.4290
4408.00,1.4147
4407.00,1.3996
4406.00,1.3838
4405.00,1.3673
4404.00,1.3503
4403.00,1.3327
4402.00,1.3146
4401.00,1.2959
4400.00,1.2767
4399.00,1.2571
4398.00,1.2370
4397.00,1.2166
4396.00,1.1958
4395.00,1.1749
4394.00,1.1538
4393.00,1.1328
4392.00,1.1118
4391.00,1.0911
4390.00,1.0706
4389.00,1.0504
4388.00,1.0308
4387.00,1.0119
4386.00,0.9938
4385.00,0.9766
4384.00,0.9604
4383.00,0.9452
4382.00,0.9311
4381.00,0.9183
4380.00,0.9067
4379.00,0.8964
4378.00,0.8874
4377.00,0.8799
4376.00,0.8739
4375.00,0.8692
4374.00,0.8660
4373.00,0.8642
4372.00,0.8637
4371.00,0.8646
4370.00,0.8669
4369.00,0.8705
4368.00,0.8755
4367.00,0.8819
4366.00,0.8894
4365.00,0.8982
4364.00,0.9082
4363.00,0.9192
4362.00,0.9313
4361.00,0.9444
4360.00,0.9585
4359.00,0.9734
4358.00,0.9891
4357.00,1.0056
4356.00,1.0227
4355.00,1.0404
4354.00,1.0586
4353.00,1.0771
4352.00,1.0959
4351.00,1.1150
4350.00,1.1342
4349.00,1.1536
4348.00,1.1730
4347.00,1.1926
4346.00,1.2120
4345.00,1.2313
4344.00,1.2502
4343.00,1.2687
4342.00,1.2868
4341.00,1.3047
4340.00,1.3225
4339.00,1.3402
4338.00,1.3576
4337.00,1.3746
4336.00,1.3909
4335.00,1.4066
4334.00,1.4220
4333.00,1.4372
4332.00,1.4522
4331.00,1.4669
4330.00,1.4810
4329.00,1.4944
4328.00,1.5070
4327.00,1.5191
4326.00,1.5306
4325.00,1.5417
4324.00,1.5525
4323.00,1.5629
4322.00,1.5727
4321.00,1.5817
4320.00,1.5898
4319.00,1.5972
4318.00,1.6040
4317.00,1.6105
4316.00,1.6166
4315.00,1.6221
4314.00,1.6270
4313.00,1.6313
4312.00,1.6350
4311.00,1.6382
4310.00,1.6408
4309.00,1.6429
4308.00,1.6445
4307.00,1.6457
4306.00,1.6465
4305.00,1.6469
4304.00,1.6470
4303.00,1.6467
4302.00,1.6457
4301.00,1.6437
4300.00,1.6406
4299.00,1.6368
4298.00,1.6325
4297.00,1.6281
4296.00,1.6238
4295.00,1.6192
4294.00,1.6140
4293.00,1.6083
4292.00,1.6020
4291.00,1.5952
4290.00,1.5879
4289.00,1.5799
4288.00,1.5713
4287.00,1.5619
4286.00,1.5520
4285.00,1.5416
4284.00,1.5309
4283.00,1.5198
4282.00,1.5081
4281.00,1.4957
4280.00,1.4824
4279.00,1.4685
4278.00,1.4539
4277.00,1.4388
4276.00,1.4231
4275.00,1.4065
4274.00,1.3892
4273.00,1.3710
4272.00,1.3522
4271.00,1.3329
4270.00,1.3130
4269.00,1.2926
4268.00,1.2716
4267.00,1.2500
4266.00,1.2279
4265.00,1.2053
4264.00,1.1824
4263.00,1.1593
4262.00,1.1360
4261.00,1.1126
4260.00,1.0892
4259.00,1.0660
4258.00,1.0431
4257.00,1.0208
4256.00,0.9991
4255.00,0.9781
4254.00,0.9581
4253.00,0.9392
4252.00,0.9216
4251.00,0.9053
4250.00,0.8906
4249.00,0.8775
4248.00,0.8660
4247.00,0.8564
4246.00,0.8486
4245.00,0.8429
4244.00,0.8391
4243.00,0.8374
4242.00,0.8378
4241.00,0.8402
4240.00,0.8446
4239.00,0.8510
4238.00,0.8594
4237.00,0.8697
4236.00,0.8817
4235.00,0.8954
4234.00,0.9106
4233.00,0.9271
4232.00,0.9449
4231.00,0.9637
4230.00,0.9834
4229.00,1.0039
4228.00,1.0250
4227.00,1.0465
4226.00,1.0684
4225.00,1.0906
4224.00,1.1129
4223.00,1.1352
4222.00,1.1575
4221.00,1.1795
4220.00,1.2014
4219.00,1.2229
4218.00,1.2442
4217.00,1.2651
4216.00,1.2856
4215.00,1.3058
4214.00,1.3257
4213.00,1.3455
4212.00,1.3649
4211.00,1.3839
4210.00,1.4023
4209.00,1.4201
4208.00,1.4371
4207.00,1.4535
4206.00,1.4695
4205.00,1.4849
4204.00,1.4998
4203.00,1.5143
4202.00,1.5283
4201.00,1.5419
4200.00,1.5550
4199.00,1.5674
4198.00,1.5790
4197.00,1.5898
4196.00,1.5998
4195.00,1.6093
4194.00,1.6181
4193.00,1.6264
4192.00,1.6343
4191.00,1.6417
4190.00,1.6486
4189.00,1.6551
4188.00,1.6610
4187.00,1.6664
4186.00,1.6712
4185.00,1.6755
4184.00,1.6792
4183.00,1.6822
4182.00,1.6846
4181.00,1.6863
4180.00,1.6875
4179.00,1.6883
4178.00,1.6884
4177.00,1.6880
4176.00,1.6871
4175.00,1.6857
4174.00,1.6838
4173.00,1.6817
4172.00,1.6793
4171.00,1.6766
4170.00,1.6733
4169.00,1.6691
4168.00,1.6640
4167.00,1.6583
4166.00,1.6520
4165.00,1.6453
4164.00,1.6380
4163.00,1.6301
4162.00,1.6218
4161.00,1.6130
4160.00,1.6037
4159.00,1.5936
4158.00,1.5828
4157.00,1.5715
4156.00,1.5596
4155.00,1.5473
4154.00,1.5344
4153.00,1.5208
4152.00,1.5062
4151.00,1.4908
4150.00,1.4746
4149.00,1.4579
4148.00,1.4407
4147.00,1.4231
4146.00,1.4048
4145.00,1.3858
4144.00,1.3659
4143.00,1.3454
4142.00,1.3242
4141.00,1.3024
4140.00,1.2801
4139.00,1.2572
4138.00,1.2338
4137.00,1.2101
4136.00,1.1861
4135.00,1.1618
4134.00,1.1375
4133.00,1.1134
4132.00,1.0895
4131.00,1.0659
4130.00,1.0429
4129.00,1.0205
4128.00,0.9989
4127.00,0.9783
4126.00,0.9588
4125.00,0.9404
4124.00,0.9235
4123.00,0.9079
4122.00,0.8940
4121.00,0.8817
4120.00,0.8713
4119.00,0.8627
4118.00,0.8561
4117.00,0.8515
4116.00,0.8490
4115.00,0.8486
4114.00,0.8504
4113.00,0.8543
4112.00,0.8602
4111.00,0.8681
4110.00,0.8780
4109.00,0.8897
4108.00,0.9032
4107.00,0.9182
4106.00,0.9348
4105.00,0.9527
4104.00,0.9718
4103.00,0.9919
4102.00,1.0129
4101.00,1.0346
4100.00,1.0567
4099.00,1.0793
4098.00,1.1021
4097.00,1.1251
4096.00,1.1483
4095.00,1.1715
4094.00,1.1948
4093.00,1.2180
4092.00,1.2410
4091.00,1.2638
4090.00,1.2863
4089.00,1.3084
4088.00,1.3301
4087.00,1.3514
4086.00,1.3722
4085.00,1.3926
4084.00,1.4124
4083.00,1.4317
4082.00,1.4504
4081.00,1.4686
4080.00,1.4862
4079.00,1.5034
4078.00,1.5201
4077.00,1.5362
4076.00,1.5517
4075.00,1.5664
4074.00,1.5803
4073.00,1.5935
4072.00,1.6060
4071.00,1.6178
4070.00,1.6290
4069.00,1.6397
4068.00,1.6498
4067.00,1.6595
4066.00,1.6686
4065.00,1.6772
4064.00,1.6853
4063.00,1.6929
4062.00,1.6998
4061.00,1.7061
4060.00,1.7116
4059.00,1.7165
4058.00,1.7209
4057.00,1.7248
4056.00,1.7282
4055.00,1.7310
4054.00,1.7333
4053.00,1.7350
4052.00,1.7364
4051.00,1.7375
4050.00,1.7381
4049.00,1.7380
4048.00,1.7371
4047.00,1.7352
4046.00,1.7328
4045.00,1.7300
4044.00,1.7271
4043.00,1.7240
4042.00,1.7204
4041.00,1.7162
4040.00,1.7111
4039.00,1.7054
4038.00,1.6991
4037.00,1.6923
4036.00,1.6851
4035.00,1.6773
4034.00,1.6688
4033.00,1.6596
4032.00,1.6497
4031.00,1.6391
4030.00,1.6278
4029.00,1.6157
4028.00,1.6029
4027.00,1.5895
4026.00,1.5758
4025.00,1.5615
4024.00,1.5464
4023.00,1.5305
4022.00,1.5136
4021.00,1.4961
4020.00,1.4779
4019.00,1.4590
4018.00,1.4394
4017.00,1.4190
4016.00,1.3978
4015.00,1.3758
4014.00,1.3530
4013.00,1.3295
4012.00,1.3053
4011.00,1.2804
4010.00,1.2549
4009.00,1.2289
4008.00,1.2026
4007.00,1.1760
4006.00,1.1494
4005.00,1.1229
4004.00,1.0965
4003.00,1.0706
4002.00,1.0453
4001.00,1.0208
4000.00,0.9973
3999.00,0.9750
3998.00,0.9542
3997.00,0.9349
3996.00,0.9172
3995.00,0.9013
3994.00,0.8874
3993.00,0.8756
3992.00,0.8660
3991.00,0.8588
3990.00,0.8540
3989.00,0.8516
3988.00,0.8517
3987.00,0.8542
3986.00,0.8591
3985.00,0.8663
3984.00,0.8758
3983.00,0.8874
3982.00,0.9011
3981.00,0.9167
3980.00,0.9341
3979.00,0.9529
3978.00,0.9731
3977.00,0.9944
3976.00,1.0168
3975.00,1.0399
3974.00,1.0636
3973.00,1.0878
3972.00,1.1122
3971.00,1.1369
3970.00,1.1618
3969.00,1.1867
3968.00,1.2117
3967.00,1.2365
3966.00,1.2610
3965.00,1.2851
3964.00,1.3088
3963.00,1.3321
3962.00,1.3552
3961.00,1.3780
3960.00,1.4004
3959.00,1.4223
3958.00,1.4435
3957.00,1.4641
3956.00,1.4841
3955.00,1.5034
3954.00,1.5220
3953.00,1.5399
3952.00,1.5570
3951.00,1.5732
3950.00,1.5886
3949.00,1.6035
3948.00,1.6179
3947.00,1.6319
3946.00,1.6452
3945.00,1.6577
3944.00,1.6695
3943.00,1.6808
3942.00,1.6915
3941.00,1.7016
3940.00,1.7110
3939.00,1.7196
3938.00,1.7276
3937.00,1.7352
3936.00,1.7424
3935.00,1.7490
3934.00,1.7549
3933.00,1.7603
3932.00,1.7650
3931.00,1.7692
3930.00,1.7726
3929.00,1.7753
3928.00,1.7773
3927.00,1.7790
3926.00,1.7805
3925.00,1.7818
3924.00,1.7826
3923.00,1.7826
3922.00,1.7818
3921.00,1.7802
3920.00,1.7779
3919.00,1.7752
3918.00,1.7721
3917.00,1.7686
3916.00,1.7650
3915.00,1.7610
3914.00,1.7565
3913.00,1.7510
3912.00,1.7449
3911.00,1.7381
3910.00,1.7308
3909.00,1.7227
3908.00,1.7137
3907.00,1.7038
3906.00,1.6932
3905.00,1.6818
3904.00,1.6697
3903.00,1.6566
3902.00,1.6426
3901.00,1.6280
3900.00,1.6133
3899.00,1.5988
3898.00,1.5843
3897.00,1.5694
3896.00,1.5538
3895.00,1.5373
3894.00,1.5198
3893.00,1.5010
3892.00,1.4808
3891.00,1.4595
3890.00,1.4376
3889.00,1.4156
3888.00,1.3932
3887.00,1.3695
3886.00,1.3438
3885.00,1.3169
3884.00,1.2901
3883.00,1.2634
3882.00,1.2359
3881.00,1.2069
3880.00,1.1771
3879.00,1.1476
3878.00,1.1194
3877.00,1.0923
3876.00,1.0657
3875.00,1.0390
3874.00,1.0128
3873.00,0.9879
3872.00,0.9646
3871.00,0.9421
3870.00,0.9203
3869.00,0.9000
3868.00,0.8827
3867.00,0.8688
3866.00,0.8580
3865.00,0.8498
3864.00,0.8439
3863.00,0.8403
3862.00,0.8392
3861.00,0.8407
3860.00,0.8449
3859.00,0.8520
3858.00,0.8616
3857.00,0.8731
3856.00,0.8866
3855.00,0.9029
3854.00,0.9229
3853.00,0.9465
3852.00,0.9718
3851.00,0.9963
3850.00,1.0189
3849.00,1.0411
3848.00,1.0644
3847.00,1.0892
3846.00,1.1150
3845.00,1.1416
3844.00,1.1687
3843.00,1.1960
3842.00,1.2229
3841.00,1.2489
3840.00,1.2742
3839.00,1.2994
3838.00,1.3256
3837.00,1.3525
3836.00,1.3794
3835.00,1.4053
3834.00,1.4300
3833.00,1.4540
3832.00,1.4776
3831.00,1.5007
3830.00,1.5231
3829.00,1.5444
3828.00,1.5646
3827.00,1.5840
3826.00,1.6025
3825.00,1.6199
3824.00,1.6359
3823.00,1.6506
3822.00,1.6652
3821.00,1.6803
3820.00,1.6954
3819.00,1.7091
3818.00,1.7209
3817.00,1.7313
3816.00,1.7418
3815.00,1.7529
3814.00,1.7641
3813.00,1.7745
3812.00,1.7835
3811.00,1.7912
3810.00,1.7982
3809.00,1.8047
3808.00,1.8109
3807.00,1.8167
3806.00,1.8223
3805.00,1.8269
3804.00,1.8301
3803.00,1.8321
3802.00,1.8336
3801.00,1.8349
3800.00,1.8359
3799.00,1.8362
3798.00,1.8360
3797.00,1.8356
3796.00,1.8353
3795.00,1.8351
3794.00,1.8348
3793.00,1.8338
3792.00,1.8318
3791.00,1.8288
3790.00,1.8252
3789.00,1.8207
3788.00,1.8152
3787.00,1.8090
3786.00,1.8022
3785.00,1.7949
3784.00,1.7870
3783.00,1.7786
3782.00,1.7697
3781.00,1.7600
3780.00,1.7496
3779.00,1.7388
3778.00,1.7278
3777.00,1.7161
3776.00,1.7033
3775.00,1.6898
3774.00,1.6758
3773.00,1.6612
3772.00,1.6456
3771.00,1.6286
3770.00,1.6101
3769.00,1.5903
3768.00,1.5697
3767.00,1.5483
3766.00,1.5260
3765.00,1.5028
3764.00,1.4791
3763.00,1.4550
3762.00,1.4301
3761.00,1.4038
3760.00,1.3756
3759.00,1.3460
3758.00,1.3156
3757.00,1.2847
3756.00,1.2540
3755.00,1.2239
3754.00,1.1941
3753.00,1.1636
3752.00,1.1316
3751.00,1.0983
3750.00,1.0647
3749.00,1.0325
3748.00,1.0037
3747.00,0.9792
3746.00,0.9579
3745.00,0.9375
3744.00,0.9175
3743.00,0.9000
3742.00,0.8870
3741.00,0.8785
3740.00,0.8731
3739.00,0.8702
3738.00,0.8702
3737.00,0.8731
3736.00,0.8791
3735.00,0.8876
3734.00,0.8984
3733.00,0.9114
3732.00,0.9265
3731.00,0.9436
3730.00,0.9622
3729.00,0.9816
3728.00,1.0017
3727.00,1.0231
3726.00,1.0459
3725.00,1.0696
3724.00,1.0937
3723.00,1.1178
3722.00,1.1421
3721.00,1.1670
3720.00,1.1927
3719.00,1.2190
3718.00,1.2460
3717.00,1.2738
3716.00,1.3022
3715.00,1.3309
3714.00,1.3599
3713.00,1.3899
3712.00,1.4218
3711.00,1.4553
3710.00,1.4893
3709.00,1.5221
3708.00,1.5526
3707.00,1.5801
3706.00,1.6039
3705.00,1.6240
3704.00,1.6409
3703.00,1.6560
3702.00,1.6704
3701.00,1.6850
3700.00,1.6997
3699.00,1.7140
3698.00,1.7278
3697.00,1.7416
3696.00,1.7555
3695.00,1.7692
3694.00,1.7821
3693.00,1.7943
3692.00,1.8058
3691.00,1.8166
3690.00,1.8267
3689.00,1.8363
3688.00,1.8456
3687.00,1.8540
3686.00,1.8615
3685.00,1.8688
3684.00,1.8759
3683.00,1.8822
3682.00,1.8876
3681.00,1.8923
3680.00,1.8964
3679.00,1.8996
3678.00,1.9011
3677.00,1.9012
3676.00,1.9006
3675.00,1.9002
3674.00,1.9002
3673.00,1.9001
3672.00,1.8992
3671.00,1.8977
3670.00,1.8960
3669.00,1.8944
3668.00,1.8930
3667.00,1.8910
3666.00,1.8883
3665.00,1.8851
3664.00,1.8812
3663.00,1.8765
3662.00,1.8709
3661.00,1.8648
3660.00,1.8580
3659.00,1.8504
3658.00,1.8414
3657.00,1.8313
3656.00,1.8205
3655.00,1.8095
3654.00,1.7984
3653.00,1.7871
3652.00,1.7752
3651.00,1.7624
3650.00,1.7486
3649.00,1.7339
3648.00,1.7181
3647.00,1.7016
3646.00,1.6851
3645.00,1.6701
3644.00,1.6565
3643.00,1.6432
3642.00,1.6290
3641.00,1.6141
3640.00,1.5989
3639.00,1.5837
3638.00,1.5686
3637.00,1.5535
3636.00,1.5384
3635.00,1.5231
3634.00,1.5081
3633.00,1.4938
3632.00,1.4802
3631.00,1.4668
3630.00,1.4526
3629.00,1.4376
3628.00,1.4227
3627.00,1.4088
3626.00,1.3962
3625.00,1.3846
3624.00,1.3740
3623.00,1.3644
3622.00,1.3559
3621.00,1.3487
3620.00,1.3429
3619.00,1.3383
3618.00,1.3350
3617.00,1.3332
3616.00,1.3331
3615.00,1.3349
3614.00,1.3388
3613.00,1.3449
3612.00,1.3529
3611.00,1.3629
3610.00,1.3748
3609.00,1.3887
3608.00,1.4041
3607.00,1.4201
3606.00,1.4354
3605.00,1.4493
3604.00,1.4617
3603.00,1.4730
3602.00,1.4840
3601.00,1.4952
3600.00,1.5071
3599.00,1.5196
3598.00,1.5326
3597.00,1.5465
3596.00,1.5618
3595.00,1.5782
3594.00,1.5956
3593.00,1.6133
3592.00,1.6309
3591.00,1.6482
3590.00,1.6654
3589.00,1.6828
3588.00,1.7008
3587.00,1.7193
3586.00,1.7377
3585.00,1.7554
3584.00,1.7720
3583.00,1.7880
3582.00,1.8037
3581.00,1.8194
3580.00,1.8348
3579.00,1.8496
3578.00,1.8640
3577.00,1.8778
3576.00,1.8913
3575.00,1.9043
3574.00,1.9165
3573.00,1.9281
3572.00,1.9391
3571.00,1.9494
3570.00,1.9594
3569.00,1.9693
3568.00,1.9791
3567.00,1.9887
3566.00,1.9981
3565.00,2.0071
3564.00,2.0150
3563.00,2.0216
3562.00,2.0274
3561.00,2.0332
3560.00,2.0397
3559.00,2.0464
3558.00,2.0529
3557.00,2.0585
3556.00,2.0632
3555.00,2.0670
3554.00,2.0704
3553.00,2.0735
3552.00,2.0760
3551.00,2.0778
3550.00,2.0793
3549.00,2.0808
3548.00,2.0822
3547.00,2.0830
3546.00,2.0834
3545.00,2.0836
3544.00,2.0837
3543.00,2.0834
3542.00,2.0829
3541.00,2.0823
3540.00,2.0818
3539.00,2.0810
3538.00,2.0796
3537.00,2.0776
3536.00,2.0749
3535.00,2.0715
3534.00,2.0678
3533.00,2.0639
3532.00,2.0600
3531.00,2.0557
3530.00,2.0511
3529.00,2.0460
3528.00,2.0403
3527.00,2.0339
3526.00,2.0271
3525.00,2.0204
3524.00,2.0141
3523.00,2.0078
3522.00,2.0016
3521.00,1.9952
3520.00,1.9886
3519.00,1.9813
3518.00,1.9733
3517.00,1.9647
3516.00,1.9556
3515.00,1.9463
3514.00,1.9371
3513.00,1.9279
3512.00,1.9184
3511.00,1.9082
3510.00,1.8972
3509.00,1.8860
3508.00,1.8747
3507.00,1.8631
3506.00,1.8514
3505.00,1.8394
3504.00,1.8272
3503.00,1.8145
3502.00,1.8017
3501.00,1.7892
3500.00,1.7773
3499.00,1.7656
3498.00,1.7537
3497.00,1.7415
3496.00,1.7290
3495.00,1.7166
3494.00,1.7046
3493.00,1.6932
3492.00,1.6824
3491.00,1.6721
3490.00,1.6622
3489.00,1.6527
3488.00,1.6437
3487.00,1.6353
3486.00,1.6275
3485.00,1.6204
3484.00,1.6141
3483.00,1.6086
3482.00,1.6040
3481.00,1.6005
3480.00,1.5979
3479.00,1.5963
3478.00,1.5957
3477.00,1.5960
3476.00,1.5972
3475.00,1.5992
3474.00,1.6024
3473.00,1.6068
3472.00,1.6121
3471.00,1.6183
3470.00,1.6251
3469.00,1.6326
3468.00,1.6407
3467.00,1.6496
3466.00,1.6593
3465.00,1.6699
3464.00,1.6810
3463.00,1.6924
3462.00,1.7040
3461.00,1.7158
3460.00,1.7279
3459.00,1.7404
3458.00,1.7534
3457.00,1.7669
3456.00,1.7809
3455.00,1.7950
3454.00,1.8091
3453.00,1.8230
3452.00,1.8365
3451.00,1.8498
3450.00,1.8630
3449.00,1.8762
3448.00,1.8895
3447.00,1.9025
3446.00,1.9153
3445.00,1.9278
3444.00,1.9399
3443.00,1.9515
3442.00,1.9628
3441.00,1.9741
3440.00,1.9853
3439.00,1.9965
3438.00,2.0074
3437.00,2.0178
3436.00,2.0276
3435.00,2.0365
3434.00,2.0448
3433.00,2.0529
3432.00,2.0609
3431.00,2.0687
3430.00,2.0762
3429.00,2.0835
3428.00,2.0906
3427.00,2.0973
3426.00,2.1037
3425.00,2.1097
3424.00,2.1151
3423.00,2.1196
3422.00,2.1237
3421.00,2.1279
3420.00,2.1322
3419.00,2.1361
3418.00,2.1390
3417.00,2.1413
3416.00,2.1435
3415.00,2.1458
3414.00,2.1480
3413.00,2.1498
3412.00,2.1509
3411.00,2.1513
3410.00,2.1514
3409.00,2.1515
3408.00,2.1511
3407.00,2.1500
3406.00,2.1482
3405.00,2.1461
3404.00,2.1434
3403.00,2.1400
3402.00,2.1361
3401.00,2.1321
3400.00,2.1276
3399.00,2.1227
3398.00,2.1172
3397.00,2.1109
3396.00,2.1036
3395.00,2.0951
3394.00,2.0859
3393.00,2.0766
3392.00,2.0671
3391.00,2.0572
3390.00,2.0466
3389.00,2.0359
3388.00,2.0251
3387.00,2.0144
3386.00,2.0034
3385.00,1.9915
3384.00,1.9787
3383.00,1.9647
3382.00,1.9502
3381.00,1.9354
3380.00,1.9204
3379.00,1.9047
3378.00,1.8882
3377.00,1.8710
3376.00,1.8535
3375.00,1.8356
3374.00,1.8172
3373.00,1.7984
3372.00,1.7791
3371.00,1.7595
3370.00,1.7396
3369.00,1.7196
3368.00,1.6996
3367.00,1.6796
3366.00,1.6596
3365.00,1.6400
3364.00,1.6206
3363.00,1.6017
3362.00,1.5832
3361.00,1.5654
3360.00,1.5486
3359.00,1.5328
3358.00,1.5181
3357.00,1.5046
3356.00,1.4923
3355.00,1.4812
3354.00,1.4717
3353.00,1.4638
3352.00,1.4577
3351.00,1.4532
3350.00,1.4504
3349.00,1.4493
3348.00,1.4497
3347.00,1.4519
3346.00,1.4557
3345.00,1.4613
3344.00,1.4686
3343.00,1.4774
3342.00,1.4876
3341.00,1.4992
3340.00,1.5121
3339.00,1.5262
3338.00,1.5412
3337.00,1.5570
3336.00,1.5736
3335.00,1.5907
3334.00,1.6085
3333.00,1.6268
3332.00,1.6456
3331.00,1.6646
3330.00,1.6837
3329.00,1.7029
3328.00,1.7221
3327.00,1.7412
3326.00,1.7602
3325.00,1.7790
3324.00,1.7975
3323.00,1.8154
3322.00,1.8329
3321.00,1.8500
3320.00,1.8667
3319.00,1.8833
3318.00,1.8998
3317.00,1.9162
3316.00,1.9322
3315.00,1.9473
3314.00,1.9615
3313.00,1.9750
3312.00,1.9882
3311.00,2.0010
3310.00,2.0135
3309.00,2.0259
3308.00,2.0378
3307.00,2.0487
3306.00,2.0587
3305.00,2.0683
3304.00,2.0773
3303.00,2.0856
3302.00,2.0930
3301.00,2.0998
3300.00,2.1063
3299.00,2.1124
3298.00,2.1180
3297.00,2.1232
3296.00,2.1283
3295.00,2.1331
3294.00,2.1374
3293.00,2.1413
3292.00,2.1445
3291.00,2.1466
3290.00,2.1478
3289.00,2.1482
3288.00,2.1483
3287.00,2.1483
3286.00,2.1481
3285.00,2.1476
3284.00,2.1467
3283.00,2.1456
3282.00,2.1446
3281.00,2.1435
3280.00,2.1420
3279.00,2.1391
3278.00,2.1350
3277.00,2.1301
3276.00,2.1249
3275.00,2.1195
3274.00,2.1139
3273.00,2.1079
3272.00,2.1014
3271.00,2.0940
3270.00,2.0857
3269.00,2.0769
3268.00,2.0678
3267.00,2.0585
3266.00,2.0489
3265.00,2.0387
3264.00,2.0279
3263.00,2.0167
3262.00,2.0052
3261.00,1.9936
3260.00,1.9817
3259.00,1.9691
3258.00,1.9554
3257.00,1.9409
3256.00,1.9259
3255.00,1.9105
3254.00,1.8947
3253.00,1.8787
3252.00,1.8625
3251.00,1.8460
3250.00,1.8291
3249.00,1.8119
3248.00,1.7945
3247.00,1.7769
3246.00,1.7592
3245.00,1.7415
3244.00,1.7240
3243.00,1.7067
3242.00,1.6895
3241.00,1.6725
3240.00,1.6559
3239.00,1.6398
3238.00,1.6243
3237.00,1.6095
3236.00,1.5956
3235.00,1.5827
3234.00,1.5709
3233.00,1.5605
3232.00,1.5514
3231.00,1.5436
3230.00,1.5371
3229.00,1.5318
3228.00,1.5281
3227.00,1.5258
3226.00,1.5252
3225.00,1.5263
3224.00,1.5290
3223.00,1.5333
3222.00,1.5391
3221.00,1.5465
3220.00,1.5552
3219.00,1.5650
3218.00,1.5759
3217.00,1.5879
3216.00,1.6010
3215.00,1.6152
3214.00,1.6303
3213.00,1.6460
3212.00,1.6623
3211.00,1.6791
3210.00,1.6964
3209.00,1.7139
3208.00,1.7317
3207.00,1.7498
3206.00,1.7684
3205.00,1.7872
3204.00,1.8060
3203.00,1.8243
3202.00,1.8423
3201.00,1.8602
3200.00,1.8781
3199.00,1.8960
3198.00,1.9138
3197.00,1.9312
3196.00,1.9479
3195.00,1.9638
3194.00,1.9791
3193.00,1.9939
3192.00,2.0082
3191.00,2.0219
3190.00,2.0353
3189.00,2.0487
3188.00,2.0619
3187.00,2.0746
3186.00,2.0867
3185.00,2.0985
3184.00,2.1098
3183.00,2.1206
3182.00,2.1307
3181.00,2.1401
3180.00,2.1486
3179.00,2.1560
3178.00,2.1625
3177.00,2.1687
3176.00,2.1746
3175.00,2.1801
3174.00,2.1854
3173.00,2.1905
3172.00,2.1956
3171.00,2.2005
3170.00,2.2055
3169.00,2.2102
3168.00,2.2139
3167.00,2.2162
3166.00,2.2178
3165.00,2.2192
3164.00,2.2205
3163.00,2.2211
3162.00,2.2207
3161.00,2.2198
3160.00,2.2183
3159.00,2.2163
3158.00,2.2139
3157.00,2.2114
3156.00,2.2089
3155.00,2.2059
3154.00,2.2025
3153.00,2.1989
3152.00,2.1951
3151.00,2.1909
3150.00,2.1859
3149.00,2.1798
3148.00,2.1724
3147.00,2.1639
3146.00,2.1549
3145.00,2.1461
3144.00,2.1371
3143.00,2.1276
3142.00,2.1174
3141.00,2.1064
3140.00,2.0949
3139.00,2.0828
3138.00,2.0700
3137.00,2.0565
3136.00,2.0425
3135.00,2.0279
3134.00,2.0127
3133.00,1.9971
3132.00,1.9812
3131.00,1.9648
3130.00,1.9481
3129.00,1.9310
3128.00,1.9132
3127.00,1.8948
3126.00,1.8758
3125.00,1.8564
3124.00,1.8367
3123.00,1.8169
3122.00,1.7971
3121.00,1.7774
3120.00,1.7579
3119.00,1.7386
3118.00,1.7197
3117.00,1.7012
3116.00,1.6834
3115.00,1.6663
3114.00,1.6503
3113.00,1.6355
3112.00,1.6221
3111.00,1.6100
3110.00,1.5994
3109.00,1.5902
3108.00,1.5829
3107.00,1.5775
3106.00,1.5742
3105.00,1.5727
3104.00,1.5731
3103.00,1.5751
3102.00,1.5790
3101.00,1.5849
3100.00,1.5929
3099.00,1.6026
3098.00,1.6139
3097.00,1.6267
3096.00,1.6409
3095.00,1.6563
3094.00,1.6729
3093.00,1.6904
3092.00,1.7087
3091.00,1.7277
3090.00,1.7474
3089.00,1.7679
3088.00,1.7888
3087.00,1.8098
3086.00,1.8307
3085.00,1.8516
3084.00,1.8722
3083.00,1.8925
3082.00,1.9127
3081.00,1.9330
3080.00,1.9531
3079.00,1.9727
3078.00,1.9915
3077.00,2.0095
3076.00,2.0267
3075.00,2.0433
3074.00,2.0595
3073.00,2.0755
3072.00,2.0914
3071.00,2.1067
3070.00,2.1213
3069.00,2.1353
3068.00,2.1486
3067.00,2.1609
3066.00,2.1724
3065.00,2.1834
3064.00,2.1942
3063.00,2.2048
3062.00,2.2149
3061.00,2.2243
3060.00,2.2325
3059.00,2.2395
3058.00,2.2458
3057.00,2.2521
3056.00,2.2587
3055.00,2.2650
3054.00,2.2702
3053.00,2.2742
3052.00,2.2776
3051.00,2.2804
3050.00,2.2827
3049.00,2.2842
3048.00,2.2848
3047.00,2.2846
3046.00,2.2836
3045.00,2.2820
3044.00,2.2795
3043.00,2.2762
3042.00,2.2722
3041.00,2.2675
3040.00,2.2618
3039.00,2.2551
3038.00,2.2476
3037.00,2.2398
3036.00,2.2317
3035.00,2.2231
3034.00,2.2136
3033.00,2.2028
3032.00,2.1905
3031.00,2.1767
3030.00,2.1615
3029.00,2.1454
3028.00,2.1287
3027.00,2.1119
3026.00,2.0951
3025.00,2.0777
3024.00,2.0590
3023.00,2.0390
3022.00,2.0182
3021.00,1.9969
3020.00,1.9750
3019.00,1.9525
3018.00,1.9293
3017.00,1.9058
3016.00,1.8827
3015.00,1.8604
3014.00,1.8395
3013.00,1.8201
3012.00,1.8026
3011.00,1.7872
3010.00,1.7744
3009.00,1.7647
3008.00,1.7588
3007.00,1.7569
3006.00,1.7593
3005.00,1.7660
3004.00,1.7769
3003.00,1.7920
3002.00,1.8112
3001.00,1.8344
3000.00,1.8609
2999.00,1.8901
2998.00,1.9215
2997.00,1.9551
2996.00,1.9907
2995.00,2.0279
2994.00,2.0659
2993.00,2.1042
2992.00,2.1425
2991.00,2.1805
2990.00,2.2184
2989.00,2.2561
2988.00,2.2934
2987.00,2.3301
2986.00,2.3657
2985.00,2.3999
2984.00,2.4326
2983.00,2.4642
2982.00,2.4957
2981.00,2.5283
2980.00,2.5623
2979.00,2.5972
2978.00,2.6326
2977.00,2.6686
2976.00,2.7053
2975.00,2.7440
2974.00,2.7871
2973.00,2.8365
2972.00,2.8919
2971.00,2.9519
2970.00,3.0172
2969.00,3.0910
2968.00,3.1757
2967.00,3.2694
2966.00,3.3660
2965.00,3.4588
2964.00,3.5447
2963.00,3.6285
2962.00,3.7173
2961.00,3.8076
2960.00,3.8787
2959.00,3.9210
2958.00,3.9636
2957.00,4.0387
2956.00,4.1310
2955.00,4.1913
2954.00,4.2056
2953.00,4.2056
2952.00,4.2095
2951.00,4.2027
2950.00,4.1900
2949.00,4.1897
2948.00,4.2222
2947.00,4.3070
2946.00,4.4500
2945.00,4.6132
2944.00,4.6618
2943.00,4.5286
2942.00,4.4004
2941.00,4.3813
2940.00,4.5373
2939.00,4.9006
2938.00,4.9475
2937.00,4.7211
2936.00,4.5253
2935.00,4.4845
2934.00,4.4713
2933.00,4.4734
2932.00,4.4720
2931.00,4.4105
2930.00,4.3674
2929.00,4.3444
2928.00,4.2744
2927.00,4.1594
2926.00,4.0608
2925.00,4.0148
2924.00,4.0089
2923.00,4.0155
2922.00,3.9990
2921.00,3.9270
2920.00,3.8192
2919.00,3.7190
2918.00,3.6467
2917.00,3.5959
2916.00,3.5505
2915.00,3.5023
2914.00,3.4539
2913.00,3.4088
2912.00,3.3640
2911.00,3.3151
2910.00,3.2630
2909.00,3.2131
2908.00,3.1692
2907.00,3.1315
2906.00,3.0980
2905.00,3.0663
2904.00,3.0355
2903.00,3.0072
2902.00,2.9844
2901.00,2.9664
2900.00,2.9497
2899.00,2.9315
2898.00,2.9124
2897.00,2.8943
2896.00,2.8773
2895.00,2.8612
2894.00,2.8474
2893.00,2.8376
2892.00,2.8324
2891.00,2.8308
2890.00,2.8319
2889.00,2.8344
2888.00,2.8371
2887.00,2.8401
2886.00,2.8460
2885.00,2.8574
2884.00,2.8735
2883.00,2.8910
2882.00,2.9084
2881.00,2.9271
2880.00,2.9497
2879.00,2.9771
2878.00,3.0094
2877.00,3.0465
2876.00,3.0883
2875.00,3.1351
2874.00,3.1887
2873.00,3.2508
2872.00,3.3199
2871.00,3.3931
2870.00,3.4700
2869.00,3.5520
2868.00,3.6346
2867.00,3.7057
2866.00,3.7567
2865.00,3.7914
2864.00,3.8150
2863.00,3.8246
2862.00,3.8160
2861.00,3.7879
2860.00,3.7395
2859.00,3.6722
2858.00,3.5910
2857.00,3.5002
2856.00,3.4013
2855.00,3.2969
2854.00,3.1911
2853.00,3.0875
2852.00,2.9883
2851.00,2.8961
2850.00,2.8134
2849.00,2.7419
2848.00,2.6819
2847.00,2.6329
2846.00,2.5937
2845.00,2.5632
2844.00,2.5404
2843.00,2.5245
2842.00,2.5145
2841.00,2.5087
2840.00,2.5050
2839.00,2.5019
2838.00,2.4993
2837.00,2.4978
2836.00,2.4978
2835.00,2.4988
2834.00,2.4995
2833.00,2.4981
2832.00,2.4937
2831.00,2.4868
2830.00,2.4790
2829.00,2.4715
2828.00,2.4638
2827.00,2.4549
2826.00,2.4447
2825.00,2.4334
2824.00,2.4208
2823.00,2.4066
2822.00,2.3909
2821.00,2.3740
2820.00,2.3553
2819.00,2.3345
2818.00,2.3120
2817.00,2.2886
2816.00,2.2646
2815.00,2.2395
2814.00,2.2126
2813.00,2.1841
2812.00,2.1542
2811.00,2.1231
2810.00,2.0907
2809.00,2.0570
2808.00,2.0219
2807.00,1.9854
2806.00,1.9482
2805.00,1.9107
2804.00,1.8737
2803.00,1.8378
2802.00,1.8037
2801.00,1.7718
2800.00,1.7419
2799.00,1.7140
2798.00,1.6879
2797.00,1.6634
2796.00,1.6403
2795.00,1.6185
2794.00,1.5980
2793.00,1.5795
2792.00,1.5639
2791.00,1.5519
2790.00,1.5443
2789.00,1.5418
2788.00,1.5447
2787.00,1.5528
2786.00,1.5660
2785.00,1.5837
2784.00,1.6053
2783.00,1.6302
2782.00,1.6577
2781.00,1.6873
2780.00,1.7185
2779.00,1.7508
2778.00,1.7835
2777.00,1.8163
2776.00,1.8488
2775.00,1.8809
2774.00,1.9124
2773.00,1.9433
2772.00,1.9734
2771.00,2.0024
2770.00,2.0304
2769.00,2.0577
2768.00,2.0844
2767.00,2.1102
2766.00,2.1350
2765.00,2.1587
2764.00,2.1807
2763.00,2.2006
2762.00,2.2186
2761.00,2.2356
2760.00,2.2525
2759.00,2.2691
2758.00,2.2849
2757.00,2.2994
2756.00,2.3122
2755.00,2.3240
2754.00,2.3356
2753.00,2.3472
2752.00,2.3584
2751.00,2.3684
2750.00,2.3770
2749.00,2.3845
2748.00,2.3911
2747.00,2.3965
2746.00,2.4013
2745.00,2.4060
2744.00,2.4103
2743.00,2.4136
2742.00,2.4160
2741.00,2.4184
2740.00,2.4211
2739.00,2.4231
2738.00,2.4233
2737.00,2.4216
2736.00,2.4189
2735.00,2.4162
2734.00,2.4135
2733.00,2.4105
2732.00,2.4070
2731.00,2.4025
2730.00,2.3972
2729.00,2.3909
2728.00,2.3839
2727.00,2.3761
2726.00,2.3677
2725.00,2.3587
2724.00,2.3492
2723.00,2.3389
2722.00,2.3276
2721.00,2.3154
2720.00,2.3026
2719.00,2.2893
2718.00,2.2749
2717.00,2.2592
2716.00,2.2420
2715.00,2.2235
2714.00,2.2045
2713.00,2.1853
2712.00,2.1652
2711.00,2.1435
2710.00,2.1197
2709.00,2.0942
2708.00,2.0676
2707.00,2.0403
2706.00,2.0120
2705.00,1.9826
2704.00,1.9517
2703.00,1.9195
2702.00,1.8860
2701.00,1.8514
2700.00,1.8156
2699.00,1.7791
2698.00,1.7421
2697.00,1.7050
2696.00,1.6682
2695.00,1.6322
2694.00,1.5976
2693.00,1.5649
2692.00,1.5345
2691.00,1.5072
2690.00,1.4836
2689.00,1.4647
2688.00,1.4509
2687.00,1.4426
2686.00,1.4400
2685.00,1.4431
2684.00,1.4520
2683.00,1.4661
2682.00,1.4847
2681.00,1.5069
2680.00,1.5317
2679.00,1.5580
2678.00,1.5847
2677.00,1.6112
2676.00,1.6370
2675.00,1.6618
2674.00,1.6859
2673.00,1.7094
2672.00,1.7326
2671.00,1.7556
2670.00,1.7780
2669.00,1.7996
2668.00,1.8202
2667.00,1.8399
2666.00,1.8593
2665.00,1.8793
2664.00,1.9007
2663.00,1.9235
2662.00,1.9477
2661.00,1.9730
2660.00,1.9992
2659.00,2.0260
2658.00,2.0527
2657.00,2.0789
2656.00,2.1041
2655.00,2.1286
2654.00,2.1523
2653.00,2.1751
2652.00,2.1966
2651.00,2.2167
2650.00,2.2358
2649.00,2.2543
2648.00,2.2724
2647.00,2.2898
2646.00,2.3062
2645.00,2.3214
2644.00,2.3354
2643.00,2.3483
2642.00,2.3605
2641.00,2.3725
2640.00,2.3843
2639.00,2.3955
2638.00,2.4059
2637.00,2.4154
2636.00,2.4247
2635.00,2.4339
2634.00,2.4432
2633.00,2.4522
2632.00,2.4606
2631.00,2.4681
2630.00,2.4747
2629.00,2.4799
2628.00,2.4835
2627.00,2.4859
2626.00,2.4881
2625.00,2.4910
2624.00,2.4942
2623.00,2.4971
2622.00,2.4993
2621.00,2.5004
2620.00,2.5002
2619.00,2.4985
2618.00,2.4959
2617.00,2.4933
2616.00,2.4912
2615.00,2.4899
2614.00,2.4891
2613.00,2.4877
2612.00,2.4844
2611.00,2.4793
2610.00,2.4736
2609.00,2.4684
2608.00,2.4636
2607.00,2.4580
2606.00,2.4508
2605.00,2.4418
2604.00,2.4313
2603.00,2.4199
2602.00,2.4084
2601.00,2.3971
2600.00,2.3854
2599.00,2.3727
2598.00,2.3587
2597.00,2.3436
2596.00,2.3275
2595.00,2.3106
2594.00,2.2929
2593.00,2.2749
2592.00,2.2563
2591.00,2.2369
2590.00,2.2167
2589.00,2.1957
2588.00,2.1732
2587.00,2.1491
2586.00,2.1234
2585.00,2.0967
2584.00,2.0692
2583.00,2.0405
2582.00,2.0101
2581.00,1.9779
2580.00,1.9442
2579.00,1.9092
2578.00,1.8732
2577.00,1.8364
2576.00,1.7988
2575.00,1.7607
2574.00,1.7222
2573.00,1.6839
2572.00,1.6459
2571.00,1.6087
2570.00,1.5725
2569.00,1.5378
2568.00,1.5053
2567.00,1.4753
2566.00,1.4483
2565.00,1.4247
2564.00,1.4050
2563.00,1.3896
2562.00,1.3788
2561.00,1.3728
2560.00,1.3718
2559.00,1.3761
2558.00,1.3856
2557.00,1.4002
2556.00,1.4195
2555.00,1.4432
2554.00,1.4706
2553.00,1.5012
2552.00,1.5345
2551.00,1.5699
2550.00,1.6068
2549.00,1.6447
2548.00,1.6831
2547.00,1.7217
2546.00,1.7602
2545.00,1.7985
2544.00,1.8362
2543.00,1.8733
2542.00,1.9097
2541.00,1.9453
2540.00,1.9798
2539.00,2.0129
2538.00,2.0444
2537.00,2.0748
2536.00,2.1041
2535.00,2.1325
2534.00,2.1598
2533.00,2.1860
2532.00,2.2109
2531.00,2.2344
2530.00,2.2567
2529.00,2.2785
2528.00,2.2997
2527.00,2.3199
2526.00,2.3385
2525.00,2.3555
2524.00,2.3717
2523.00,2.3872
2522.00,2.4023
2521.00,2.4170
2520.00,2.4313
2519.00,2.4448
2518.00,2.4573
2517.00,2.4687
2516.00,2.4792
2515.00,2.4889
2514.00,2.4983
2513.00,2.5075
2512.00,2.5162
2511.00,2.5243
2510.00,2.5321
2509.00,2.5403
2508.00,2.5482
2507.00,2.5543
2506.00,2.5575
2505.00,2.5583
2504.00,2.5591
2503.00,2.5615
2502.00,2.5656
2501.00,2.5699
2500.00,2.5726
2499.00,2.5733
2498.00,2.5728
2497.00,2.5718
2496.00,2.5705
2495.00,2.5691
2494.00,2.5678
2493.00,2.5665
2492.00,2.5649
2491.00,2.5624
2490.00,2.5586
2489.00,2.5532
2488.00,2.5466
2487.00,2.5394
2486.00,2.5329
2485.00,2.5271
2484.00,2.5207
2483.00,2.5129
2482.00,2.5040
2481.00,2.4950
2480.00,2.4860
2479.00,2.4761
2478.00,2.4649
2477.00,2.4524
2476.00,2.4391
2475.00,2.4250
2474.00,2.4100
2473.00,2.3939
2472.00,2.3768
2471.00,2.3589
2470.00,2.3404
2469.00,2.3214
2468.00,2.3019
2467.00,2.2813
2466.00,2.2594
2465.00,2.2363
2464.00,2.2123
2463.00,2.1873
2462.00,2.1608
2461.00,2.1326
2460.00,2.1021
2459.00,2.0696
2458.00,2.0354
2457.00,1.9995
2456.00,1.9619
2455.00,1.9227
2454.00,1.8818
2453.00,1.8394
2452.00,1.7954
2451.00,1.7500
2450.00,1.7038
2449.00,1.6571
2448.00,1.6108
2447.00,1.5653
2446.00,1.5214
2445.00,1.4798
2444.00,1.4415
2443.00,1.4071
2442.00,1.3775
2441.00,1.3534
2440.00,1.3350
2439.00,1.3228
2438.00,1.3169
2437.00,1.3177
2436.00,1.3253
2435.00,1.3395
2434.00,1.3601
2433.00,1.3865
2432.00,1.4179
2431.00,1.4533
2430.00,1.4917
2429.00,1.5323
2428.00,1.5743
2427.00,1.6170
2426.00,1.6601
2425.00,1.7032
2424.00,1.7461
2423.00,1.7883
2422.00,1.8298
2421.00,1.8703
2420.00,1.9100
2419.00,1.9488
2418.00,1.9865
2417.00,2.0233
2416.00,2.0591
2415.00,2.0940
2414.00,2.1276
2413.00,2.1597
2412.00,2.1902
2411.00,2.2195
2410.00,2.2478
2409.00,2.2750
2408.00,2.3007
2407.00,2.3249
2406.00,2.3478
2405.00,2.3698
2404.00,2.3910
2403.00,2.4112
2402.00,2.4299
2401.00,2.4472
2400.00,2.4629
2399.00,2.4777
2398.00,2.4921
2397.00,2.5071
2396.00,2.5223
2395.00,2.5370
2394.00,2.5501
2393.00,2.5614
2392.00,2.5713
2391.00,2.5803
2390.00,2.5889
2389.00,2.5975
2388.00,2.6067
2387.00,2.6169
2386.00,2.6282
2385.00,2.6405
2384.00,2.6546
2383.00,2.6725
2382.00,2.6966
2381.00,2.7283
2380.00,2.7675
2379.00,2.8134
2378.00,2.8661
2377.00,2.9260
2376.00,2.9925
2375.00,3.0637
2374.00,3.1362
2373.00,3.2064
2372.00,3.2715
2371.00,3.3290
2370.00,3.3759
2369.00,3.4080
2368.00,3.4205
2367.00,3.4108
2366.00,3.3799
2365.00,3.3313
2364.00,3.2700
2363.00,3.2008
2362.00,3.1282
2361.00,3.0555
2360.00,2.9844
2359.00,2.9164
2358.00,2.8540
2357.00,2.8004
2356.00,2.7582
2355.00,2.7272
2354.00,2.7051
2353.00,2.6887
2352.00,2.6756
2351.00,2.6638
2350.00,2.6490
2349.00,2.6254
2348.00,2.5935
2347.00,2.5607
2346.00,2.5321
2345.00,2.5065
2344.00,2.4847
2343.00,2.4672
2342.00,2.4469
2341.00,2.4175
2340.00,2.3837
2339.00,2.3547
2338.00,2.3298
2337.00,2.3049
2336.00,2.2799
2335.00,2.2553
2334.00,2.2307
2333.00,2.2068
2332.00,2.1872
2331.00,2.1746
2330.00,2.1699
2329.00,2.1706
2328.00,2.1742
2327.00,2.1774
2326.00,2.1776
2325.00,2.1713
2324.00,2.1566
2323.00,2.1363
2322.00,2.1174
2321.00,2.1064
2320.00,2.1033
2319.00,2.1022
2318.00,2.0973
2317.00,2.0884
2316.00,2.0791
2315.00,2.0711
2314.00,2.0642
2313.00,2.0573
2312.00,2.0517
2311.00,2.0495
2310.00,2.0524
2309.00,2.0598
2308.00,2.0706
2307.00,2.0829
2306.00,2.0963
2305.00,2.1104
2304.00,2.1257
2303.00,2.1422
2302.00,2.1596
2301.00,2.1769
2300.00,2.1935
2299.00,2.2087
2298.00,2.2230
2297.00,2.2372
2296.00,2.2521
2295.00,2.2680
2294.00,2.2850
2293.00,2.3024
2292.00,2.3189
2291.00,2.3335
2290.00,2.3468
2289.00,2.3606
2288.00,2.3762
2287.00,2.3932
2286.00,2.4111
2285.00,2.4292
2284.00,2.4471
2283.00,2.4645
2282.00,2.4814
2281.00,2.4988
2280.00,2.5166
2279.00,2.5331
2278.00,2.5467
2277.00,2.5573
2276.00,2.5663
2275.00,2.5748
2274.00,2.5831
2273.00,2.5910
2272.00,2.5988
2271.00,2.6072
2270.00,2.6168
2269.00,2.6275
2268.00,2.6384
2267.00,2.6483
2266.00,2.6571
2265.00,2.6656
2264.00,2.6748
2263.00,2.6841
2262.00,2.6922
2261.00,2.6990
2260.00,2.7056
2259.00,2.7129
2258.00,2.7203
2257.00,2.7260
2256.00,2.7294
2255.00,2.7314
2254.00,2.7336
2253.00,2.7370
2252.00,2.7414
2251.00,2.7460
2250.00,2.7500
2249.00,2.7531
2248.00,2.7554
2247.00,2.7562
2246.00,2.7544
2245.00,2.7492
2244.00,2.7412
2243.00,2.7328
2242.00,2.7262
2241.00,2.7218
2240.00,2.7186
2239.00,2.7157
2238.00,2.7122
2237.00,2.7071
2236.00,2.6991
2235.00,2.6890
2234.00,2.6784
2233.00,2.6684
2232.00,2.6585
2231.00,2.6477
2230.00,2.6358
2229.00,2.6232
2228.00,2.6099
2227.00,2.5957
2226.00,2.5806
2225.00,2.5647
2224.00,2.5477
2223.00,2.5295
2222.00,2.5101
2221.00,2.4899
2220.00,2.4693
2219.00,2.4481
2218.00,2.4260
2217.00,2.4026
2216.00,2.3777
2215.00,2.3514
2214.00,2.3234
2213.00,2.2935
2212.00,2.2615
2211.00,2.2275
2210.00,2.1920
2209.00,2.1552
2208.00,2.1167
2207.00,2.0758
2206.00,2.0323
2205.00,1.9865
2204.00,1.9386
2203.00,1.8892
2202.00,1.8385
2201.00,1.7872
2200.00,1.7358
2199.00,1.6851
2198.00,1.6360
2197.00,1.5895
2196.00,1.5470
2195.00,1.5095
2194.00,1.4782
2193.00,1.4539
2192.00,1.4371
2191.00,1.4283
2190.00,1.4275
2189.00,1.4348
2188.00,1.4500
2187.00,1.4723
2186.00,1.5010
2185.00,1.5351
2184.00,1.5738
2183.00,1.6159
2182.00,1.6605
2181.00,1.7066
2180.00,1.7536
2179.00,1.8005
2178.00,1.8468
2177.00,1.8918
2176.00,1.9353
2175.00,1.9773
2174.00,2.0177
2173.00,2.0570
2172.00,2.0953
2171.00,2.1328
2170.00,2.1696
2169.00,2.2055
2168.00,2.2405
2167.00,2.2745
2166.00,2.3078
2165.00,2.3402
2164.00,2.3708
2163.00,2.3994
2162.00,2.4262
2161.00,2.4521
2160.00,2.4775
2159.00,2.5024
2158.00,2.5269
2157.00,2.5503
2156.00,2.5718
2155.00,2.5911
2154.00,2.6089
2153.00,2.6262
2152.00,2.6428
2151.00,2.6583
2150.00,2.6733
2149.00,2.6887
2148.00,2.7043
2147.00,2.7188
2146.00,2.7312
2145.00,2.7411
2144.00,2.7493
2143.00,2.7569
2142.00,2.7657
2141.00,2.7765
2140.00,2.7880
2139.00,2.7977
2138.00,2.8042
2137.00,2.8083
2136.00,2.8114
2135.00,2.8152
2134.00,2.8203
2133.00,2.8258
2132.00,2.8295
2131.00,2.8304
2130.00,2.8298
2129.00,2.8295
2128.00,2.8293
2127.00,2.8280
2126.00,2.8264
2125.00,2.8264
2124.00,2.8279
2123.00,2.8285
2122.00,2.8260
2121.00,2.8217
2120.00,2.8181
2119.00,2.8160
2118.00,2.8142
2117.00,2.8110
2116.00,2.8061
2115.00,2.8004
2114.00,2.7948
2113.00,2.7898
2112.00,2.7845
2111.00,2.7775
2110.00,2.7675
2109.00,2.7549
2108.00,2.7414
2107.00,2.7282
2106.00,2.7159
2105.00,2.7040
2104.00,2.6912
2103.00,2.6770
2102.00,2.6614
2101.00,2.6456
2100.00,2.6303
2099.00,2.6150
2098.00,2.5985
2097.00,2.5797
2096.00,2.5590
2095.00,2.5372
2094.00,2.5149
2093.00,2.4918
2092.00,2.4671
2091.00,2.4400
2090.00,2.4103
2089.00,2.3787
2088.00,2.3456
2087.00,2.3113
2086.00,2.2757
2085.00,2.2382
2084.00,2.1979
2083.00,2.1543
2082.00,2.1078
2081.00,2.0589
2080.00,2.0079
2079.00,1.9551
2078.00,1.9008
2077.00,1.8458
2076.00,1.7919
2075.00,1.7405
2074.00,1.6931
2073.00,1.6510
2072.00,1.6154
2071.00,1.5870
2070.00,1.5663
2069.00,1.5531
2068.00,1.5473
2067.00,1.5486
2066.00,1.5559
2065.00,1.5681
2064.00,1.5848
2063.00,1.6061
2062.00,1.6321
2061.00,1.6618
2060.00,1.6939
2059.00,1.7278
2058.00,1.7638
2057.00,1.8025
2056.00,1.8435
2055.00,1.8863
2054.00,1.9306
2053.00,1.9762
2052.00,2.0224
2051.00,2.0688
2050.00,2.1150
2049.00,2.1608
2048.00,2.2056
2047.00,2.2490
2046.00,2.2909
2045.00,2.3313
2044.00,2.3700
2043.00,2.4066
2042.00,2.4407
2041.00,2.4722
2040.00,2.5016
2039.00,2.5291
2038.00,2.5555
2037.00,2.5816
2036.00,2.6075
2035.00,2.6329
2034.00,2.6569
2033.00,2.6788
2032.00,2.6980
2031.00,2.7151
2030.00,2.7311
2029.00,2.7465
2028.00,2.7609
2027.00,2.7737
2026.00,2.7852
2025.00,2.7966
2024.00,2.8089
2023.00,2.8217
2022.00,2.8346
2021.00,2.8469
2020.00,2.8578
2019.00,2.8664
2018.00,2.8720
2017.00,2.8757
2016.00,2.8804
2015.00,2.8884
2014.00,2.8993
2013.00,2.9097
2012.00,2.9159
2011.00,2.9170
2010.00,2.9153
2009.00,2.9141
2008.00,2.9152
2007.00,2.9184
2006.00,2.9225
2005.00,2.9251
2004.00,2.9247
2003.00,2.9226
2002.00,2.9211
2001.00,2.9214
2000.00,2.9222
1999.00,2.9211
1998.00,2.9178
1997.00,2.9130
1996.00,2.9076
1995.00,2.9025
1994.00,2.8988
1993.00,2.8954
1992.00,2.8903
1991.00,2.8828
1990.00,2.8748
1989.00,2.8668
1988.00,2.8567
1987.00,2.8434
1986.00,2.8298
1985.00,2.8194
1984.00,2.8111
1983.00,2.8000
1982.00,2.7842
1981.00,2.7659
1980.00,2.7487
1979.00,2.7332
1978.00,2.7187
1977.00,2.7035
1976.00,2.6865
1975.00,2.6671
1974.00,2.6459
1973.00,2.6232
1972.00,2.5984
1971.00,2.5708
1970.00,2.5414
1969.00,2.5110
1968.00,2.4792
1967.00,2.4447
1966.00,2.4083
1965.00,2.3724
1964.00,2.3372
1963.00,2.3004
1962.00,2.2588
1961.00,2.2120
1960.00,2.1615
1959.00,2.1087
1958.00,2.0544
1957.00,1.9989
1956.00,1.9431
1955.00,1.8876
1954.00,1.8338
1953.00,1.7837
1952.00,1.7385
1951.00,1.6990
1950.00,1.6655
1949.00,1.6392
1948.00,1.6207
1947.00,1.6100
1946.00,1.6072
1945.00,1.6131
1944.00,1.6279
1943.00,1.6493
1942.00,1.6753
1941.00,1.7067
1940.00,1.7458
1939.00,1.7915
1938.00,1.8396
1937.00,1.8875
1936.00,1.9362
1935.00,1.9873
1934.00,2.0402
1933.00,2.0929
1932.00,2.1447
1931.00,2.1962
1930.00,2.2471
1929.00,2.2964
1928.00,2.3431
1927.00,2.3869
1926.00,2.4289
1925.00,2.4692
1924.00,2.5072
1923.00,2.5401
1922.00,2.5683
1921.00,2.5965
1920.00,2.6285
1919.00,2.6617
1918.00,2.6904
1917.00,2.7139
1916.00,2.7369
1915.00,2.7622
1914.00,2.7867
1913.00,2.8058
1912.00,2.8202
1911.00,2.8339
1910.00,2.8480
1909.00,2.8614
1908.00,2.8743
1907.00,2.8895
1906.00,2.9076
1905.00,2.9244
1904.00,2.9371
1903.00,2.9460
1902.00,2.9537
1901.00,2.9617
1900.00,2.9697
1899.00,2.9777
1898.00,2.9865
1897.00,2.9949
1896.00,3.0019
1895.00,3.0074
1894.00,3.0125
1893.00,3.0175
1892.00,3.0217
1891.00,3.0243
1890.00,3.0257
1889.00,3.0279
1888.00,3.0326
1887.00,3.0397
1886.00,3.0451
1885.00,3.0439
1884.00,3.0357
1883.00,3.0246
1882.00,3.0148
1881.00,3.0078
1880.00,3.0029
1879.00,2.9995
1878.00,2.9963
1877.00,2.9905
1876.00,2.9818
1875.00,2.9724
1874.00,2.9640
1873.00,2.9569
1872.00,2.9512
1871.00,2.9465
1870.00,2.9406
1869.00,2.9306
1868.00,2.9171
1867.00,2.9036
1866.00,2.8904
1865.00,2.8726
1864.00,2.8474
1863.00,2.8187
1862.00,2.7914
1861.00,2.7659
1860.00,2.7398
1859.00,2.7116
1858.00,2.6813
1857.00,2.6484
1856.00,2.6128
1855.00,2.5755
1854.00,2.5367
1853.00,2.4951
1852.00,2.4493
1851.00,2.4001
1850.00,2.3482
1849.00,2.2913
1848.00,2.2298
1847.00,2.1686
1846.00,2.1107
1845.00,2.0518
1844.00,1.9879
1843.00,1.9238
1842.00,1.8698
1841.00,1.8294
1840.00,1.7976
1839.00,1.7704
1838.00,1.7513
1837.00,1.7464
1836.00,1.7588
1835.00,1.7851
1834.00,1.8219
1833.00,1.8687
1832.00,1.9251
1831.00,1.9892
1830.00,2.0578
1829.00,2.1266
1828.00,2.1956
1827.00,2.2640
1826.00,2.3262
1825.00,2.3784
1824.00,2.4251
1823.00,2.4741
1822.00,2.5270
1821.00,2.5779
1820.00,2.6221
1819.00,2.6611
1818.00,2.6987
1817.00,2.7363
1816.00,2.7738
1815.00,2.8104
1814.00,2.8464
1813.00,2.8810
1812.00,2.9111
1811.00,2.9357
1810.00,2.9558
1809.00,2.9748
1808.00,2.9936
1807.00,3.0107
1806.00,3.0263
1805.00,3.0422
1804.00,3.0574
1803.00,3.0701
1802.00,3.0817
1801.00,3.0953
1800.00,3.1111
1799.00,3.1268
1798.00,3.1379
1797.00,3.1420
1796.00,3.1412
1795.00,3.1404
1794.00,3.1434
1793.00,3.1494
1792.00,3.1553
1791.00,3.1596
1790.00,3.1624
1789.00,3.1633
1788.00,3.1598
1787.00,3.1507
1786.00,3.1367
1785.00,3.1185
1784.00,3.0980
1783.00,3.0804
1782.00,3.0693
1781.00,3.0598
1780.00,3.0439
1779.00,3.0239
1778.00,3.0049
1777.00,2.9875
1776.00,2.9686
1775.00,2.9488
1774.00,2.9301
1773.00,2.9097
1772.00,2.8877
1771.00,2.8739
1770.00,2.8740
1769.00,2.8764
1768.00,2.8647
1767.00,2.8375
1766.00,2.8103
1765.00,2.7967
1764.00,2.7935
1763.00,2.7911
1762.00,2.7881
1761.00,2.7933
1760.00,2.8158
1759.00,2.8564
1758.00,2.9068
1757.00,2.9601
1756.00,3.0135
1755.00,3.0726
1754.00,3.1414
1753.00,3.2119
1752.00,3.2739
1751.00,3.3284
1750.00,3.3877
1749.00,3.4596
1748.00,3.5365
1747.00,3.6065
1746.00,3.6730
1745.00,3.7445
1744.00,3.8174
1743.00,3.8810
1742.00,3.9313
1741.00,3.9703
1740.00,3.9966
1739.00,4.0074
1738.00,4.0132
1737.00,4.0371
1736.00,4.0914
1735.00,4.1770
1734.00,4.2752
1733.00,4.3443
1732.00,4.3541
1731.00,4.3102
1730.00,4.3208
1729.00,4.4603
1728.00,4.7934
1727.00,5.3305
1726.00,5.0400
1725.00,4.7230
1724.00,4.7129
1723.00,5.0714
1722.00,4.7983
1721.00,4.3604
1720.00,4.1922
1719.00,4.1393
1718.00,4.2002
1717.00,4.3894
1716.00,4.6351
1715.00,4.6821
1714.00,4.5729
1713.00,4.5391
1712.00,4.5901
1711.00,4.6769
1710.00,4.6552
1709.00,4.5202
1708.00,4.4545
1707.00,4.4923
1706.00,4.6583
1705.00,4.9255
1704.00,4.8599
1703.00,4.7072
1702.00,4.7221
1701.00,4.8869
1700.00,4.9250
1699.00,4.7089
1698.00,4.5873
1697.00,4.5291
1696.00,4.4905
1695.00,4.4602
1694.00,4.4422
1693.00,4.3932
1692.00,4.2497
1691.00,4.0757
1690.00,3.9399
1689.00,3.8669
1688.00,3.8334
1687.00,3.7896
1686.00,3.7090
1685.00,3.6103
1684.00,3.5297
1683.00,3.4856
1682.00,3.4774
1681.00,3.4782
1680.00,3.4566
1679.00,3.4149
1678.00,3.3759
1677.00,3.3554
1676.00,3.3497
1675.00,3.3478
1674.00,3.3468
1673.00,3.3491
1672.00,3.3550
1671.00,3.3615
1670.00,3.3643
1669.00,3.3612
1668.00,3.3533
1667.00,3.3470
1666.00,3.3472
1665.00,3.3526
1664.00,3.3572
1663.00,3.3549
1662.00,3.3474
1661.00,3.3375
1660.00,3.3224
1659.00,3.3023
1658.00,3.2829
1657.00,3.2722
1656.00,3.2731
1655.00,3.2757
1654.00,3.2617
1653.00,3.2273
1652.00,3.1921
1651.00,3.1747
1650.00,3.1708
1649.00,3.1707
1648.00,3.1613
1647.00,3.1313
1646.00,3.0922
1645.00,3.0590
1644.00,3.0296
1643.00,2.9936
1642.00,2.9543
1641.00,2.9161
1640.00,2.8806
1639.00,2.8565
1638.00,2.8463
1637.00,2.8402
1636.00,2.8254
1635.00,2.8012
1634.00,2.7765
1633.00,2.7497
1632.00,2.7118
1631.00,2.6622
1630.00,2.6096
1629.00,2.5639
1628.00,2.5295
1627.00,2.5051
1626.00,2.4898
1625.00,2.4830
1624.00,2.4832
1623.00,2.4892
1622.00,2.5009
1621.00,2.5187
1620.00,2.5415
1619.00,2.5670
1618.00,2.5923
1617.00,2.6184
1616.00,2.6507
1615.00,2.6932
1614.00,2.7418
1613.00,2.7862
1612.00,2.8194
1611.00,2.8438
1610.00,2.8693
1609.00,2.9014
1608.00,2.9363
1607.00,2.9694
1606.00,3.0022
1605.00,3.0364
1604.00,3.0679
1603.00,3.0920
1602.00,3.1062
1601.00,3.1148
1600.00,3.1227
1599.00,3.1313
1598.00,3.1418
1597.00,3.1575
1596.00,3.1807
1595.00,3.2078
1594.00,3.2316
1593.00,3.2475
1592.00,3.2543
1591.00,3.2514
1590.00,3.2420
1589.00,3.2337
1588.00,3.2315
1587.00,3.2336
1586.00,3.2353
1585.00,3.2362
1584.00,3.2378
1583.00,3.2400
1582.00,3.2414
1581.00,3.2421
1580.00,3.2482
1579.00,3.2647
1578.00,3.2854
1577.00,3.2958
1576.00,3.2885
1575.00,3.2695
1574.00,3.2542
1573.00,3.2501
1572.00,3.2518
1571.00,3.2522
1570.00,3.2495
1569.00,3.2475
1568.00,3.2456
1567.00,3.2385
1566.00,3.2200
1565.00,3.1916
1564.00,3.1631
1563.00,3.1453
1562.00,3.1380
1561.00,3.1296
1560.00,3.1123
1559.00,3.0982
1558.00,3.0936
1557.00,3.0969
1556.00,3.0872
1555.00,3.0393
1554.00,2.9689
1553.00,2.8993
1552.00,2.8460
1551.00,2.8044
1550.00,2.7567
1549.00,2.7020
1548.00,2.6522
1547.00,2.6107
1546.00,2.5667
1545.00,2.5130
1544.00,2.4559
1543.00,2.4078
1542.00,2.3707
1541.00,2.3333
1540.00,2.2810
1539.00,2.2097
1538.00,2.1372
1537.00,2.0805
1536.00,2.0456
1535.00,2.0286
1534.00,2.0219
1533.00,2.0254
1532.00,2.0448
1531.00,2.0780
1530.00,2.1149
1529.00,2.1552
1528.00,2.2050
1527.00,2.2636
1526.00,2.3276
1525.00,2.3966
1524.00,2.4725
1523.00,2.5503
1522.00,2.6184
1521.00,2.6725
1520.00,2.7227
1519.00,2.7824
1518.00,2.8476
1517.00,2.9017
1516.00,2.9374
1515.00,2.9626
1514.00,2.9877
1513.00,3.0093
1512.00,3.0233
1511.00,3.0359
1510.00,3.0581
1509.00,3.0920
1508.00,3.1276
1507.00,3.1578
1506.00,3.1899
1505.00,3.2388
1504.00,3.2847
1503.00,3.3041
1502.00,3.3087
1501.00,3.3062
1500.00,3.3031
1499.00,3.3102
1498.00,3.3282
1497.00,3.3429
1496.00,3.3427
1495.00,3.3340
1494.00,3.3363
1493.00,3.3563
1492.00,3.3783
1491.00,3.3838
1490.00,3.3727
1489.00,3.3604
1488.00,3.3590
1487.00,3.3656
1486.00,3.3714
1485.00,3.3748
1484.00,3.3756
1483.00,3.3741
1482.00,3.3695
1481.00,3.3638
1480.00,3.3650
1479.00,3.3762
1478.00,3.3905
1477.00,3.3964
1476.00,3.3899
1475.00,3.3742
1474.00,3.3540
1473.00,3.3307
1472.00,3.3091
1471.00,3.2987
1470.00,3.2990
1469.00,3.2982
1468.00,3.2906
1467.00,3.2836
1466.00,3.2895
1465.00,3.3131
1464.00,3.3456
1463.00,3.3749
1462.00,3.3905
1461.00,3.3910
1460.00,3.3831
1459.00,3.3781
1458.00,3.3894
1457.00,3.4306
1456.00,3.5095
1455.00,3.6171
1454.00,3.7318
1453.00,3.8506
1452.00,3.9984
1451.00,4.1963
1450.00,4.3815
1449.00,4.3855
1448.00,4.2549
1447.00,4.1256
1446.00,4.0181
1445.00,3.9083
1444.00,3.7990
1443.00,3.7105
1442.00,3.6465
1441.00,3.5990
1440.00,3.5609
1439.00,3.5316
1438.00,3.5122
1437.00,3.5078
1436.00,3.5263
1435.00,3.5706
1434.00,3.6300
1433.00,3.6836
1432.00,3.7178
1431.00,3.7403
1430.00,3.7627
1429.00,3.7752
1428.00,3.7718
1427.00,3.7684
1426.00,3.7832
1425.00,3.8168
1424.00,3.8532
1423.00,3.8848
1422.00,3.9115
1421.00,3.9190
1420.00,3.8824
1419.00,3.8104
1418.00,3.7455
1417.00,3.7045
1416.00,3.6617
1415.00,3.5934
1414.00,3.5109
1413.00,3.4367
1412.00,3.3778
1411.00,3.3266
1410.00,3.2724
1409.00,3.2126
1408.00,3.1535
1407.00,3.1018
1406.00,3.0602
1405.00,3.0245
1404.00,2.9890
1403.00,2.9553
1402.00,2.9278
1401.00,2.9072
1400.00,2.8893
1399.00,2.8720
1398.00,2.8581
1397.00,2.8502
1396.00,2.8460
1395.00,2.8419
1394.00,2.8405
1393.00,2.8450
1392.00,2.8552
1391.00,2.8705
1390.00,2.8919
1389.00,2.9204
1388.00,2.9527
1387.00,2.9848
1386.00,3.0170
1385.00,3.0524
1384.00,3.0894
1383.00,3.1239
1382.00,3.1564
1381.00,3.1911
1380.00,3.2283
1379.00,3.2643
1378.00,3.2977
1377.00,3.3298
1376.00,3.3591
1375.00,3.3815
1374.00,3.3977
1373.00,3.4151
1372.00,3.4408
1371.00,3.4718
1370.00,3.4980
1369.00,3.5095
1368.00,3.5066
1367.00,3.4997
1366.00,3.4978
1365.00,3.4991
1364.00,3.4952
1363.00,3.4843
1362.00,3.4777
1361.00,3.4915
1360.00,3.5308
1359.00,3.5862
1358.00,3.6376
1357.00,3.6628
1356.00,3.6535
1355.00,3.6276
1354.00,3.6120
1353.00,3.6204
1352.00,3.6502
1351.00,3.6930
1350.00,3.7507
1349.00,3.8284
1348.00,3.9136
1347.00,3.9765
1346.00,3.9881
1345.00,3.9464
1344.00,3.8843
1343.00,3.8361
1342.00,3.8142
1341.00,3.8106
1340.00,3.8106
1339.00,3.8105
1338.00,3.8168
1337.00,3.8228
1336.00,3.8007
1335.00,3.7419
1334.00,3.6767
1333.00,3.6346
1332.00,3.6196
1331.00,3.6166
1330.00,3.6084
1329.00,3.5883
1328.00,3.5588
1327.00,3.5263
1326.00,3.5007
1325.00,3.4890
1324.00,3.4916
1323.00,3.5071
1322.00,3.5360
1321.00,3.5782
1320.00,3.6301
1319.00,3.6869
1318.00,3.7467
1317.00,3.8124
1316.00,3.8924
1315.00,4.0030
1314.00,4.1744
1313.00,4.4352
1312.00,4.6920
1311.00,4.7868
1310.00,4.6913
1309.00,4.4793
1308.00,4.3191
1307.00,4.1751
1306.00,4.0280
1305.00,3.8992
1304.00,3.8006
1303.00,3.7307
1302.00,3.6824
1301.00,3.6522
1300.00,3.6374
1299.00,3.6284
1298.00,3.6095
1297.00,3.5660
1296.00,3.4986
1295.00,3.4273
1294.00,3.3709
1293.00,3.3317
1292.00,3.2992
1291.00,3.2633
1290.00,3.2235
1289.00,3.1846
1288.00,3.1480
1287.00,3.1109
1286.00,3.0710
1285.00,3.0312
1284.00,2.9969
1283.00,2.9701
1282.00,2.9486
1281.00,2.9305
1280.00,2.9169
1279.00,2.9112
1278.00,2.9150
1277.00,2.9267
1276.00,2.9441
1275.00,2.9679
1274.00,3.0000
1273.00,3.0397
1272.00,3.0832
1271.00,3.1275
1270.00,3.1745
1269.00,3.2282
1268.00,3.2880
1267.00,3.3461
1266.00,3.3896
1265.00,3.4078
1264.00,3.4003
1263.00,3.3787
1262.00,3.3606
1261.00,3.3583
1260.00,3.3730
1259.00,3.3966
1258.00,3.4217
1257.00,3.4499
1256.00,3.4871
1255.00,3.5317
1254.00,3.5713
1253.00,3.5926
1252.00,3.5980
1251.00,3.6058
1250.00,3.6295
1249.00,3.6675
1248.00,3.7088
1247.00,3.7435
1246.00,3.7661
1245.00,3.7774
1244.00,3.7895
1243.00,3.8141
1242.00,3.8464
1241.00,3.8669
1240.00,3.8647
1239.00,3.8544
1238.00,3.8626
1237.00,3.8995
1236.00,3.9467
1235.00,3.9761
1234.00,3.9838
1233.00,3.9892
1232.00,3.9889
1231.00,3.9713
1230.00,3.9687
1229.00,3.9968
1228.00,4.0344
1227.00,4.0806
1226.00,4.1762
1225.00,4.3876
1224.00,4.7324
1223.00,4.7873
1222.00,4.5466
1221.00,4.3091
1220.00,4.1694
1219.00,4.1092
1218.00,4.0822
1217.00,4.0400
1216.00,3.9759
1215.00,3.9285
1214.00,3.9169
1213.00,3.9268
1212.00,3.9245
1211.00,3.8905
1210.00,3.8433
1209.00,3.8116
1208.00,3.8096
1207.00,3.8374
1206.00,3.8746
1205.00,3.8740
1204.00,3.8187
1203.00,3.7620
1202.00,3.7546
1201.00,3.8024
1200.00,3.8700
1199.00,3.9076
1198.00,3.9122
1197.00,3.9092
1196.00,3.8824
1195.00,3.8298
1194.00,3.7993
1193.00,3.8252
1192.00,3.8999
1191.00,3.9706
1190.00,3.9652
1189.00,3.8883
1188.00,3.8009
1187.00,3.7397
1186.00,3.7185
1185.00,3.7278
1184.00,3.7348
1183.00,3.7163
1182.00,3.6921
1181.00,3.6938
1180.00,3.7265
1179.00,3.7675
1178.00,3.7828
1177.00,3.7695
1176.00,3.7610
1175.00,3.7629
1174.00,3.7657
1173.00,3.7742
1172.00,3.7694
1171.00,3.7285
1170.00,3.6815
1169.00,3.6697
1168.00,3.6974
1167.00,3.7312
1166.00,3.7381
1165.00,3.7184
1164.00,3.6845
1163.00,3.6452
1162.00,3.6118
1161.00,3.5913
1160.00,3.5811
1159.00,3.5748
1158.00,3.5582
1157.00,3.5171
1156.00,3.4650
1155.00,3.4299
1154.00,3.4223
1153.00,3.4293
1152.00,3.4230
1151.00,3.3861
1150.00,3.3329
1149.00,3.2915
1148.00,3.2794
1147.00,3.2984
1146.00,3.3393
1145.00,3.3875
1144.00,3.4296
1143.00,3.4590
1142.00,3.4764
1141.00,3.4857
1140.00,3.4927
1139.00,3.5040
1138.00,3.5274
1137.00,3.5712
1136.00,3.6411
1135.00,3.7398
1134.00,3.8690
1133.00,4.0223
1132.00,4.2033
1131.00,4.4461
1130.00,4.6122
1129.00,4.3080
1128.00,4.0387
1127.00,3.9239
1126.00,3.9348
1125.00,4.0411
1124.00,4.1621
1123.00,4.1904
1122.00,4.2225
1121.00,4.3144
1120.00,4.2177
1119.00,4.0591
1118.00,4.0656
1117.00,4.2598
1116.00,4.4800
1115.00,4.5595
1114.00,4.5661
1113.00,4.0999
1112.00,3.8383
1111.00,3.6958
1110.00,3.6226
1109.00,3.5940
1108.00,3.5976
1107.00,3.6292
1106.00,3.6850
1105.00,3.7491
1104.00,3.7856
1103.00,3.7693
1102.00,3.7258
1101.00,3.6982
1100.00,3.7099
1099.00,3.7654
1098.00,3.8506
1097.00,3.9172
1096.00,3.9330
1095.00,3.9654
1094.00,4.0914
1093.00,4.3136
1092.00,4.4119
1091.00,4.3731
1090.00,4.3146
1089.00,4.2536
1088.00,4.2123
1087.00,4.1600
1086.00,4.1061
1085.00,4.0739
1084.00,4.0598
1083.00,4.0481
1082.00,4.0299
1081.00,4.0233
1080.00,4.0720
1079.00,4.2469
1078.00,4.6803
1077.00,5.4076
1076.00,4.7124
1075.00,4.3360
1074.00,4.2690
1073.00,4.3975
1072.00,4.5318
1071.00,4.4118
1070.00,4.2160
1069.00,4.0779
1068.00,3.9636
1067.00,3.8655
1066.00,3.8116
1065.00,3.7980
1064.00,3.7966
1063.00,3.8076
1062.00,3.8727
1061.00,4.0430
1060.00,4.2908
1059.00,4.2961
1058.00,4.2515
1057.00,4.2237
1056.00,4.0505
1055.00,3.8940
1054.00,3.8303
1053.00,3.8345
1052.00,3.8628
1051.00,3.8974
1050.00,3.9557
1049.00,4.0410
1048.00,4.1000
1047.00,4.0508
1046.00,3.9422
1045.00,3.8755
1044.00,3.8687
1043.00,3.8756
1042.00,3.8550
1041.00,3.8511
1040.00,3.9328
1039.00,4.1444
1038.00,4.3910
1037.00,4.3624
1036.00,4.1680
1035.00,3.9718
1034.00,3.8842
1033.00,3.8866
1032.00,3.9151
1031.00,3.9033
1030.00,3.8603
1029.00,3.8112
1028.00,3.7446
1027.00,3.6559
1026.00,3.5620
1025.00,3.4864
1024.00,3.4504
1023.00,3.4690
1022.00,3.5530
1021.00,3.7105
1020.00,3.9345
1019.00,4.1170
1018.00,4.0764
1017.00,3.9446
1016.00,3.8241
1015.00,3.7471
1014.00,3.7196
1013.00,3.7106
1012.00,3.6808
1011.00,3.6323
1010.00,3.5755
1009.00,3.5172
1008.00,3.4775
1007.00,3.4737
1006.00,3.5072
1005.00,3.5570
1004.00,3.5942
1003.00,3.6258
1002.00,3.6920
1001.00,3.8073
1000.00,3.9154
999.00,3.9245
998.00,3.8542
997.00,3.7976
996.00,3.7982
995.00,3.8524
994.00,3.9320
993.00,3.9954
992.00,4.0218
991.00,4.0337
990.00,4.0475
989.00,4.0630
988.00,4.0915
987.00,4.1406
986.00,4.1931
985.00,4.2120
984.00,4.1853
983.00,4.1445
982.00,4.1459
981.00,4.2383
980.00,4.4471
979.00,4.7433
978.00,4.8696
977.00,4.5754
976.00,4.2744
975.00,4.1252
974.00,4.1075
973.00,4.1866
972.00,4.3049
971.00,4.4269
970.00,4.5204
969.00,4.5759
968.00,4.6798
967.00,4.3341
966.00,4.0833
965.00,4.0066
964.00,4.0181
963.00,4.0292
962.00,3.9809
961.00,3.8923
960.00,3.8137
959.00,3.7792
958.00,3.8046
957.00,3.8836
956.00,3.9799
955.00,4.0611
954.00,4.1706
953.00,4.4675
952.00,4.9020
951.00,4.5249
950.00,4.5602
949.00,4.5371
948.00,4.3302
947.00,4.2771
946.00,4.3343
945.00,4.3700
944.00,4.2830
943.00,4.1928
942.00,4.1618
941.00,4.1594
940.00,4.1150
939.00,4.0191
938.00,3.9287
937.00,3.8791
936.00,3.8694
935.00,3.8996
934.00,3.9946
933.00,4.1605
932.00,4.3294
931.00,4.3999
930.00,4.3867
929.00,4.4222
928.00,4.4980
927.00,4.4764
926.00,4.4513
925.00,4.4878
924.00,4.4016
923.00,4.2189
922.00,4.1002
921.00,4.0381
920.00,3.9941
919.00,3.9512
918.00,3.9304
917.00,3.9769
916.00,4.1362
915.00,4.4669
914.00,4.7987
913.00,4.6624
912.00,4.5099
911.00,4.2632
910.00,4.0789
909.00,3.9771
908.00,3.9358
907.00,3.9695
906.00,4.1174
905.00,4.4499
904.00,4.9899
903.00,4.8453
902.00,4.3954
901.00,4.1748
900.00,4.0750
899.00,4.0513
898.00,4.1212
897.00,4.2819
896.00,4.3927
895.00,4.2709
894.00,4.1020
893.00,4.0454
892.00,4.1178
891.00,4.3699
890.00,5.0974
889.00,4.5392
888.00,4.3026
887.00,4.2379
886.00,4.2051
885.00,4.1385
884.00,4.0639
883.00,4.0548
882.00,4.1129
881.00,4.1472
880.00,4.1000
879.00,4.0721
878.00,4.1047
877.00,4.2117
876.00,4.3733
875.00,4.6485
874.00,5.1260
873.00,4.4286
872.00,4.1753
871.00,4.0882
870.00,4.1246
869.00,4.3368
868.00,4.8064
867.00,5.2765
866.00,4.7957
865.00,4.5226
864.00,4.3338
863.00,4.1904
862.00,4.3010
861.00,4.7616
860.00,4.2447
859.00,4.0187
858.00,3.9889
857.00,4.0794
856.00,4.3598
855.00,4.5399
854.00,4.2081
853.00,4.0471
852.00,4.0166
851.00,4.0701
850.00,4.1234
849.00,4.0739
848.00,4.0119
847.00,3.9805
846.00,3.9839
845.00,4.0269
844.00,4.0692
843.00,4.0679
842.00,4.0510
841.00,4.0799
840.00,4.1571
839.00,4.1455
838.00,4.0468
837.00,3.9974
836.00,4.0150
835.00,4.0845
834.00,4.1970
833.00,4.3122
832.00,4.3428
831.00,4.2860
830.00,4.1549
829.00,3.9855
828.00,3.8626
827.00,3.8482
826.00,3.9814
825.00,4.3042
824.00,4.7326
823.00,4.4952
822.00,4.1410
821.00,3.9728
820.00,3.9326
819.00,3.9884
818.00,4.1183
817.00,4.2799
816.00,4.4036
815.00,4.4236
814.00,4.3451
813.00,4.2694
812.00,4.2663
811.00,4.3391
810.00,4.4508
809.00,4.6380
808.00,5.0303
807.00,5.1679
806.00,4.9733
805.00,4.6621
804.00,4.4370
803.00,4.2992
802.00,4.1996
801.00,4.1617
800.00,4.1977
799.00,4.2757
798.00,4.2111
797.00,4.0622
796.00,3.9686
795.00,3.9317
794.00,3.9699
793.00,4.0721
792.00,4.1503
791.00,4.1493
790.00,4.1453
789.00,4.1747
788.00,4.1583
787.00,4.0750
786.00,4.0231
785.00,4.0453
784.00,4.1162
783.00,4.1925
782.00,4.3533
781.00,4.6958
780.00,4.6207
779.00,4.4540
778.00,4.5166
777.00,4.7319
776.00,4.8373
775.00,4.4724
774.00,4.1426
773.00,3.9435
772.00,3.8398
771.00,3.8101
770.00,3.8560
769.00,3.9466
768.00,3.9707
767.00,3.9467
766.00,3.9690
765.00,4.0161
764.00,4.0773
763.00,4.1802
762.00,4.4572
761.00,4.7848
760.00,4.3051
759.00,4.0797
758.00,4.0136
757.00,4.0587
756.00,4.2121
755.00,4.3580
754.00,4.3260
753.00,4.1554
752.00,4.0061
751.00,3.9340
750.00,3.9646
749.00,4.1348
748.00,4.2898
747.00,4.1743
746.00,4.1569
745.00,4.3048
744.00,4.5321
743.00,4.6567
742.00,4.4708
741.00,4.2323
740.00,4.0260
739.00,3.8576
738.00,3.7418
737.00,3.6975
736.00,3.7362
735.00,3.8479
734.00,3.9871
733.00,4.1138
732.00,4.0916
731.00,3.8990
730.00,3.7629
729.00,3.7192
728.00,3.7453
727.00,3.8134
726.00,3.8909
725.00,4.0414
724.00,4.1994
723.00,4.1273
722.00,4.0298
721.00,3.9362
720.00,3.8802
719.00,3.8905
718.00,3.9282
717.00,3.9730
716.00,3.9958
715.00,4.0181
714.00,4.1126
713.00,4.3249
712.00,4.5095
711.00,4.4018
710.00,4.2281
709.00,4.1423
708.00,4.1508
707.00,4.1274
706.00,4.0402
705.00,4.0029
704.00,4.0207
703.00,4.0411
702.00,4.0274
701.00,4.0120
700.00,4.0707
