Created as New Dataset,Sample 073 By Administrator Date Wednesday, November 24 2021
cm-1,A
7502.00,1.1665
7501.00,1.1602
7500.00,1.1540
7499.00,1.1478
7498.00,1.1418
7497.00,1.1359
7496.00,1.1300
7495.00,1.1242
7494.00,1.1185
7493.00,1.1138
7492.00,1.1113
7491.00,1.1106
7490.00,1.1105
7489.00,1.1098
7488.00,1.1073
7487.00,1.1022
7486.00,1.0939
7485.00,1.0826
7484.00,1.0695
7483.00,1.0562
7482.00,1.0438
7481.00,1.0331
7480.00,1.0245
7479.00,1.0178
7478.00,1.0124
7477.00,1.0078
7476.00,1.0034
7475.00,0.9991
7474.00,0.9949
7473.00,0.9908
7472.00,0.9870
7471.00,0.9829
7470.00,0.9779
7469.00,0.9717
7468.00,0.9649
7467.00,0.9579
7466.00,0.9507
7465.00,0.9432
7464.00,0.9354
7463.00,0.9279
7462.00,0.9206
7461.00,0.9129
7460.00,0.9044
7459.00,0.8954
7458.00,0.8865
7457.00,0.8782
7456.00,0.8706
7455.00,0.8637
7454.00,0.8568
7453.00,0.8497
7452.00,0.8424
7451.00,0.8351
7450.00,0.8280
7449.00,0.8208
7448.00,0.8133
7447.00,0.8058
7446.00,0.7988
7445.00,0.7924
7444.00,0.7866
7443.00,0.7814
7442.00,0.7765
7441.00,0.7721
7440.00,0.7680
7439.00,0.7644
7438.00,0.7613
7437.00,0.7589
7436.00,0.7569
7435.00,0.7554
7434.00,0.7543
7433.00,0.7537
7432.00,0.7539
7431.00,0.7549
7430.00,0.7566
7429.00,0.7589
7428.00,0.7618
7427.00,0.7656
7426.00,0.7704
7425.00,0.7760
7424.00,0.7821
7423.00,0.7885
7422.00,0.7952
7421.00,0.8021
7420.00,0.8091
7419.00,0.8164
7418.00,0.8238
7417.00,0.8314
7416.00,0.8395
7415.00,0.8485
7414.00,0.8581
7413.00,0.8682
7412.00,0.8784
7411.00,0.8889
7410.00,0.8994
7409.00,0.9098
7408.00,0.9199
7407.00,0.9298
7406.00,0.9399
7405.00,0.9503
7404.00,0.9611
7403.00,0.9722
7402.00,0.9833
7401.00,0.9944
7400.00,1.0055
7399.00,1.0165
7398.00,1.0270
7397.00,1.0364
7396.00,1.0448
7395.00,1.0528
7394.00,1.0612
7393.00,1.0700
7392.00,1.0789
7391.00,1.0880
7390.00,1.0972
7389.00,1.1066
7388.00,1.1160
7387.00,1.1249
7386.00,1.1327
7385.00,1.1396
7384.00,1.1459
7383.00,1.1520
7382.00,1.1577
7381.00,1.1625
7380.00,1.1666
7379.00,1.1706
7378.00,1.1745
7377.00,1.1780
7376.00,1.1808
7375.00,1.1832
7374.00,1.1857
7373.00,1.1881
7372.00,1.1901
7371.00,1.1919
7370.00,1.1935
7369.00,1.1947
7368.00,1.1949
7367.00,1.1942
7366.00,1.1931
7365.00,1.1921
7364.00,1.1906
7363.00,1.1885
7362.00,1.1858
7361.00,1.1826
7360.00,1.1789
7359.00,1.1749
7358.00,1.1705
7357.00,1.1662
7356.00,1.1621
7355.00,1.1579
7354.00,1.1536
7353.00,1.1491
7352.00,1.1441
7351.00,1.1384
7350.00,1.1315
7349.00,1.1235
7348.00,1.1145
7347.00,1.1050
7346.00,1.0956
7345.00,1.0869
7344.00,1.0787
7343.00,1.0707
7342.00,1.0623
7341.00,1.0531
7340.00,1.0430
7339.00,1.0321
7338.00,1.0211
7337.00,1.0101
7336.00,0.9994
7335.00,0.9887
7334.00,0.9782
7333.00,0.9681
7332.00,0.9582
7331.00,0.9484
7330.00,0.9382
7329.00,0.9276
7328.00,0.9171
7327.00,0.9067
7326.00,0.8965
7325.00,0.8865
7324.00,0.8767
7323.00,0.8672
7322.00,0.8579
7321.00,0.8488
7320.00,0.8399
7319.00,0.8313
7318.00,0.8230
7317.00,0.8154
7316.00,0.8085
7315.00,0.8022
7314.00,0.7964
7313.00,0.7909
7312.00,0.7860
7311.00,0.7816
7310.00,0.7778
7309.00,0.7743
7308.00,0.7713
7307.00,0.7690
7306.00,0.7676
7305.00,0.7670
7304.00,0.7673
7303.00,0.7685
7302.00,0.7702
7301.00,0.7723
7300.00,0.7748
7299.00,0.7777
7298.00,0.7812
7297.00,0.7852
7296.00,0.7897
7295.00,0.7947
7294.00,0.8003
7293.00,0.8065
7292.00,0.8134
7291.00,0.8209
7290.00,0.8289
7289.00,0.8371
7288.00,0.8458
7287.00,0.8550
7286.00,0.8648
7285.00,0.8748
7284.00,0.8846
7283.00,0.8942
7282.00,0.9040
7281.00,0.9141
7280.00,0.9243
7279.00,0.9344
7278.00,0.9441
7277.00,0.9540
7276.00,0.9641
7275.00,0.9742
7274.00,0.9840
7273.00,0.9935
7272.00,1.0031
7271.00,1.0130
7270.00,1.0229
7269.00,1.0327
7268.00,1.0423
7267.00,1.0515
7266.00,1.0602
7265.00,1.0681
7264.00,1.0755
7263.00,1.0828
7262.00,1.0902
7261.00,1.0976
7260.00,1.1050
7259.00,1.1125
7258.00,1.1198
7257.00,1.1266
7256.00,1.1324
7255.00,1.1373
7254.00,1.1413
7253.00,1.1447
7252.00,1.1475
7251.00,1.1500
7250.00,1.1525
7249.00,1.1550
7248.00,1.1570
7247.00,1.1586
7246.00,1.1600
7245.00,1.1615
7244.00,1.1630
7243.00,1.1641
7242.00,1.1650
7241.00,1.1663
7240.00,1.1675
7239.00,1.1680
7238.00,1.1671
7237.00,1.1649
7236.00,1.1622
7235.00,1.1590
7234.00,1.1553
7233.00,1.1516
7232.00,1.1484
7231.00,1.1460
7230.00,1.1440
7229.00,1.1416
7228.00,1.1383
7227.00,1.1340
7226.00,1.1291
7225.00,1.1236
7224.00,1.1174
7223.00,1.1105
7222.00,1.1034
7221.00,1.0968
7220.00,1.0908
7219.00,1.0846
7218.00,1.0778
7217.00,1.0703
7216.00,1.0626
7215.00,1.0547
7214.00,1.0463
7213.00,1.0373
7212.00,1.0277
7211.00,1.0181
7210.00,1.0083
7209.00,0.9983
7208.00,0.9881
7207.00,0.9782
7206.00,0.9687
7205.00,0.9592
7204.00,0.9496
7203.00,0.9397
7202.00,0.9296
7201.00,0.9193
7200.00,0.9090
7199.00,0.8986
7198.00,0.8882
7197.00,0.8778
7196.00,0.8677
7195.00,0.8581
7194.00,0.8492
7193.00,0.8409
7192.00,0.8331
7191.00,0.8256
7190.00,0.8182
7189.00,0.8111
7188.00,0.8044
7187.00,0.7982
7186.00,0.7922
7185.00,0.7866
7184.00,0.7816
7183.00,0.7772
7182.00,0.7737
7181.00,0.7706
7180.00,0.7678
7179.00,0.7655
7178.00,0.7640
7177.00,0.7635
7176.00,0.7639
7175.00,0.7649
7174.00,0.7664
7173.00,0.7685
7172.00,0.7715
7171.00,0.7752
7170.00,0.7796
7169.00,0.7842
7168.00,0.7893
7167.00,0.7950
7166.00,0.8016
7165.00,0.8087
7164.00,0.8160
7163.00,0.8236
7162.00,0.8316
7161.00,0.8401
7160.00,0.8490
7159.00,0.8585
7158.00,0.8686
7157.00,0.8791
7156.00,0.8897
7155.00,0.9004
7154.00,0.9110
7153.00,0.9215
7152.00,0.9321
7151.00,0.9427
7150.00,0.9536
7149.00,0.9647
7148.00,0.9760
7147.00,0.9873
7146.00,0.9987
7145.00,1.0099
7144.00,1.0208
7143.00,1.0312
7142.00,1.0413
7141.00,1.0511
7140.00,1.0610
7139.00,1.0710
7138.00,1.0811
7137.00,1.0907
7136.00,1.0998
7135.00,1.1086
7134.00,1.1174
7133.00,1.1261
7132.00,1.1345
7131.00,1.1421
7130.00,1.1492
7129.00,1.1559
7128.00,1.1623
7127.00,1.1684
7126.00,1.1742
7125.00,1.1796
7124.00,1.1844
7123.00,1.1885
7122.00,1.1922
7121.00,1.1958
7120.00,1.1995
7119.00,1.2028
7118.00,1.2052
7117.00,1.2067
7116.00,1.2079
7115.00,1.2091
7114.00,1.2099
7113.00,1.2097
7112.00,1.2085
7111.00,1.2070
7110.00,1.2061
7109.00,1.2056
7108.00,1.2051
7107.00,1.2039
7106.00,1.2020
7105.00,1.1997
7104.00,1.1971
7103.00,1.1940
7102.00,1.1902
7101.00,1.1857
7100.00,1.1807
7099.00,1.1755
7098.00,1.1700
7097.00,1.1641
7096.00,1.1578
7095.00,1.1513
7094.00,1.1445
7093.00,1.1372
7092.00,1.1294
7091.00,1.1215
7090.00,1.1135
7089.00,1.1050
7088.00,1.0956
7087.00,1.0859
7086.00,1.0763
7085.00,1.0669
7084.00,1.0572
7083.00,1.0470
7082.00,1.0365
7081.00,1.0259
7080.00,1.0151
7079.00,1.0040
7078.00,0.9929
7077.00,0.9817
7076.00,0.9706
7075.00,0.9594
7074.00,0.9483
7073.00,0.9372
7072.00,0.9260
7071.00,0.9148
7070.00,0.9039
7069.00,0.8935
7068.00,0.8834
7067.00,0.8736
7066.00,0.8639
7065.00,0.8545
7064.00,0.8453
7063.00,0.8363
7062.00,0.8275
7061.00,0.8191
7060.00,0.8114
7059.00,0.8045
7058.00,0.7985
7057.00,0.7931
7056.00,0.7882
7055.00,0.7835
7054.00,0.7792
7053.00,0.7756
7052.00,0.7727
7051.00,0.7705
7050.00,0.7690
7049.00,0.7683
7048.00,0.7684
7047.00,0.7693
7046.00,0.7709
7045.00,0.7730
7044.00,0.7755
7043.00,0.7785
7042.00,0.7822
7041.00,0.7869
7040.00,0.7923
7039.00,0.7981
7038.00,0.8045
7037.00,0.8115
7036.00,0.8193
7035.00,0.8276
7034.00,0.8364
7033.00,0.8456
7032.00,0.8552
7031.00,0.8652
7030.00,0.8752
7029.00,0.8855
7028.00,0.8958
7027.00,0.9060
7026.00,0.9161
7025.00,0.9262
7024.00,0.9368
7023.00,0.9478
7022.00,0.9591
7021.00,0.9704
7020.00,0.9817
7019.00,0.9928
7018.00,1.0039
7017.00,1.0147
7016.00,1.0254
7015.00,1.0357
7014.00,1.0456
7013.00,1.0554
7012.00,1.0651
7011.00,1.0749
7010.00,1.0843
7009.00,1.0933
7008.00,1.1018
7007.00,1.1102
7006.00,1.1186
7005.00,1.1268
7004.00,1.1345
7003.00,1.1415
7002.00,1.1480
7001.00,1.1540
7000.00,1.1595
6999.00,1.1647
6998.00,1.1698
6997.00,1.1749
6996.00,1.1794
6995.00,1.1833
6994.00,1.1867
6993.00,1.1902
6992.00,1.1935
6991.00,1.1964
6990.00,1.1989
6989.00,1.2011
6988.00,1.2029
6987.00,1.2039
6986.00,1.2040
6985.00,1.2037
6984.00,1.2033
6983.00,1.2025
6982.00,1.2011
6981.00,1.1991
6980.00,1.1971
6979.00,1.1948
6978.00,1.1921
6977.00,1.1887
6976.00,1.1845
6975.00,1.1800
6974.00,1.1754
6973.00,1.1710
6972.00,1.1664
6971.00,1.1616
6970.00,1.1565
6969.00,1.1513
6968.00,1.1457
6967.00,1.1393
6966.00,1.1322
6965.00,1.1246
6964.00,1.1166
6963.00,1.1085
6962.00,1.1002
6961.00,1.0920
6960.00,1.0837
6959.00,1.0749
6958.00,1.0654
6957.00,1.0554
6956.00,1.0452
6955.00,1.0350
6954.00,1.0247
6953.00,1.0144
6952.00,1.0040
6951.00,0.9934
6950.00,0.9825
6949.00,0.9716
6948.00,0.9606
6947.00,0.9494
6946.00,0.9381
6945.00,0.9269
6944.00,0.9159
6943.00,0.9052
6942.00,0.8946
6941.00,0.8842
6940.00,0.8741
6939.00,0.8642
6938.00,0.8543
6937.00,0.8446
6936.00,0.8350
6935.00,0.8260
6934.00,0.8173
6933.00,0.8092
6932.00,0.8016
6931.00,0.7948
6930.00,0.7886
6929.00,0.7832
6928.00,0.7783
6927.00,0.7740
6926.00,0.7702
6925.00,0.7669
6924.00,0.7644
6923.00,0.7625
6922.00,0.7613
6921.00,0.7606
6920.00,0.7605
6919.00,0.7611
6918.00,0.7625
6917.00,0.7648
6916.00,0.7677
6915.00,0.7713
6914.00,0.7755
6913.00,0.7805
6912.00,0.7862
6911.00,0.7925
6910.00,0.7991
6909.00,0.8063
6908.00,0.8141
6907.00,0.8227
6906.00,0.8319
6905.00,0.8415
6904.00,0.8514
6903.00,0.8616
6902.00,0.8721
6901.00,0.8827
6900.00,0.8933
6899.00,0.9040
6898.00,0.9148
6897.00,0.9259
6896.00,0.9372
6895.00,0.9486
6894.00,0.9602
6893.00,0.9719
6892.00,0.9835
6891.00,0.9950
6890.00,1.0063
6889.00,1.0174
6888.00,1.0282
6887.00,1.0389
6886.00,1.0495
6885.00,1.0598
6884.00,1.0701
6883.00,1.0803
6882.00,1.0904
6881.00,1.1004
6880.00,1.1100
6879.00,1.1191
6878.00,1.1278
6877.00,1.1361
6876.00,1.1439
6875.00,1.1513
6874.00,1.1583
6873.00,1.1651
6872.00,1.1719
6871.00,1.1788
6870.00,1.1857
6869.00,1.1924
6868.00,1.1984
6867.00,1.2033
6866.00,1.2072
6865.00,1.2105
6864.00,1.2133
6863.00,1.2158
6862.00,1.2179
6861.00,1.2198
6860.00,1.2218
6859.00,1.2236
6858.00,1.2248
6857.00,1.2253
6856.00,1.2251
6855.00,1.2244
6854.00,1.2231
6853.00,1.2214
6852.00,1.2193
6851.00,1.2171
6850.00,1.2146
6849.00,1.2120
6848.00,1.2095
6847.00,1.2072
6846.00,1.2047
6845.00,1.2013
6844.00,1.1970
6843.00,1.1917
6842.00,1.1859
6841.00,1.1796
6840.00,1.1727
6839.00,1.1654
6838.00,1.1580
6837.00,1.1506
6836.00,1.1431
6835.00,1.1350
6834.00,1.1264
6833.00,1.1172
6832.00,1.1078
6831.00,1.0981
6830.00,1.0880
6829.00,1.0775
6828.00,1.0668
6827.00,1.0561
6826.00,1.0454
6825.00,1.0346
6824.00,1.0234
6823.00,1.0119
6822.00,1.0003
6821.00,0.9889
6820.00,0.9774
6819.00,0.9658
6818.00,0.9544
6817.00,0.9433
6816.00,0.9323
6815.00,0.9213
6814.00,0.9101
6813.00,0.8988
6812.00,0.8874
6811.00,0.8763
6810.00,0.8655
6809.00,0.8551
6808.00,0.8452
6807.00,0.8358
6806.00,0.8270
6805.00,0.8187
6804.00,0.8109
6803.00,0.8035
6802.00,0.7968
6801.00,0.7907
6800.00,0.7852
6799.00,0.7803
6798.00,0.7761
6797.00,0.7725
6796.00,0.7693
6795.00,0.7668
6794.00,0.7650
6793.00,0.7640
6792.00,0.7638
6791.00,0.7644
6790.00,0.7658
6789.00,0.7679
6788.00,0.7709
6787.00,0.7746
6786.00,0.7790
6785.00,0.7841
6784.00,0.7898
6783.00,0.7960
6782.00,0.8027
6781.00,0.8101
6780.00,0.8180
6779.00,0.8264
6778.00,0.8352
6777.00,0.8446
6776.00,0.8545
6775.00,0.8649
6774.00,0.8755
6773.00,0.8861
6772.00,0.8969
6771.00,0.9079
6770.00,0.9193
6769.00,0.9310
6768.00,0.9428
6767.00,0.9545
6766.00,0.9661
6765.00,0.9778
6764.00,0.9894
6763.00,1.0011
6762.00,1.0126
6761.00,1.0241
6760.00,1.0353
6759.00,1.0465
6758.00,1.0575
6757.00,1.0681
6756.00,1.0782
6755.00,1.0878
6754.00,1.0972
6753.00,1.1066
6752.00,1.1158
6751.00,1.1246
6750.00,1.1329
6749.00,1.1409
6748.00,1.1486
6747.00,1.1561
6746.00,1.1632
6745.00,1.1697
6744.00,1.1760
6743.00,1.1820
6742.00,1.1876
6741.00,1.1924
6740.00,1.1965
6739.00,1.2001
6738.00,1.2033
6737.00,1.2061
6736.00,1.2085
6735.00,1.2105
6734.00,1.2125
6733.00,1.2143
6732.00,1.2159
6731.00,1.2173
6730.00,1.2183
6729.00,1.2186
6728.00,1.2183
6727.00,1.2173
6726.00,1.2159
6725.00,1.2138
6724.00,1.2109
6723.00,1.2075
6722.00,1.2039
6721.00,1.2003
6720.00,1.1966
6719.00,1.1926
6718.00,1.1885
6717.00,1.1842
6716.00,1.1795
6715.00,1.1742
6714.00,1.1685
6713.00,1.1625
6712.00,1.1560
6711.00,1.1491
6710.00,1.1420
6709.00,1.1347
6708.00,1.1269
6707.00,1.1185
6706.00,1.1096
6705.00,1.1006
6704.00,1.0916
6703.00,1.0825
6702.00,1.0731
6701.00,1.0635
6700.00,1.0536
6699.00,1.0435
6698.00,1.0330
6697.00,1.0219
6696.00,1.0103
6695.00,0.9984
6694.00,0.9865
6693.00,0.9750
6692.00,0.9636
6691.00,0.9522
6690.00,0.9409
6689.00,0.9296
6688.00,0.9185
6687.00,0.9075
6686.00,0.8965
6685.00,0.8856
6684.00,0.8748
6683.00,0.8643
6682.00,0.8542
6681.00,0.8445
6680.00,0.8349
6679.00,0.8254
6678.00,0.8164
6677.00,0.8080
6676.00,0.8001
6675.00,0.7926
6674.00,0.7855
6673.00,0.7792
6672.00,0.7737
6671.00,0.7689
6670.00,0.7647
6669.00,0.7611
6668.00,0.7583
6667.00,0.7561
6666.00,0.7546
6665.00,0.7538
6664.00,0.7538
6663.00,0.7547
6662.00,0.7564
6661.00,0.7588
6660.00,0.7619
6659.00,0.7659
6658.00,0.7705
6657.00,0.7758
6656.00,0.7819
6655.00,0.7885
6654.00,0.7959
6653.00,0.8038
6652.00,0.8121
6651.00,0.8207
6650.00,0.8299
6649.00,0.8397
6648.00,0.8501
6647.00,0.8608
6646.00,0.8719
6645.00,0.8833
6644.00,0.8947
6643.00,0.9063
6642.00,0.9181
6641.00,0.9302
6640.00,0.9427
6639.00,0.9553
6638.00,0.9679
6637.00,0.9801
6636.00,0.9921
6635.00,1.0038
6634.00,1.0152
6633.00,1.0268
6632.00,1.0386
6631.00,1.0507
6630.00,1.0627
6629.00,1.0741
6628.00,1.0848
6627.00,1.0948
6626.00,1.1048
6625.00,1.1149
6624.00,1.1250
6623.00,1.1351
6622.00,1.1449
6621.00,1.1543
6620.00,1.1627
6619.00,1.1701
6618.00,1.1767
6617.00,1.1830
6616.00,1.1893
6615.00,1.1958
6614.00,1.2020
6613.00,1.2077
6612.00,1.2128
6611.00,1.2173
6610.00,1.2215
6609.00,1.2254
6608.00,1.2292
6607.00,1.2328
6606.00,1.2361
6605.00,1.2388
6604.00,1.2407
6603.00,1.2419
6602.00,1.2424
6601.00,1.2424
6600.00,1.2420
6599.00,1.2416
6598.00,1.2411
6597.00,1.2403
6596.00,1.2388
6595.00,1.2367
6594.00,1.2340
6593.00,1.2308
6592.00,1.2272
6591.00,1.2233
6590.00,1.2194
6589.00,1.2153
6588.00,1.2109
6587.00,1.2059
6586.00,1.2002
6585.00,1.1937
6584.00,1.1866
6583.00,1.1790
6582.00,1.1712
6581.00,1.1635
6580.00,1.1556
6579.00,1.1475
6578.00,1.1389
6577.00,1.1296
6576.00,1.1198
6575.00,1.1097
6574.00,1.0997
6573.00,1.0896
6572.00,1.0792
6571.00,1.0683
6570.00,1.0572
6569.00,1.0457
6568.00,1.0337
6567.00,1.0212
6566.00,1.0088
6565.00,0.9966
6564.00,0.9847
6563.00,0.9726
6562.00,0.9606
6561.00,0.9486
6560.00,0.9368
6559.00,0.9247
6558.00,0.9127
6557.00,0.9009
6556.00,0.8894
6555.00,0.8781
6554.00,0.8671
6553.00,0.8563
6552.00,0.8458
6551.00,0.8357
6550.00,0.8260
6549.00,0.8168
6548.00,0.8083
6547.00,0.8003
6546.00,0.7929
6545.00,0.7861
6544.00,0.7799
6543.00,0.7745
6542.00,0.7698
6541.00,0.7659
6540.00,0.7627
6539.00,0.7603
6538.00,0.7588
6537.00,0.7580
6536.00,0.7580
6535.00,0.7586
6534.00,0.7600
6533.00,0.7621
6532.00,0.7650
6531.00,0.7687
6530.00,0.7733
6529.00,0.7788
6528.00,0.7851
6527.00,0.7922
6526.00,0.7999
6525.00,0.8083
6524.00,0.8172
6523.00,0.8264
6522.00,0.8360
6521.00,0.8459
6520.00,0.8564
6519.00,0.8670
6518.00,0.8777
6517.00,0.8887
6516.00,0.8999
6515.00,0.9114
6514.00,0.9234
6513.00,0.9357
6512.00,0.9481
6511.00,0.9604
6510.00,0.9727
6509.00,0.9851
6508.00,0.9973
6507.00,1.0094
6506.00,1.0211
6505.00,1.0327
6504.00,1.0442
6503.00,1.0555
6502.00,1.0664
6501.00,1.0771
6500.00,1.0878
6499.00,1.0985
6498.00,1.1091
6497.00,1.1195
6496.00,1.1293
6495.00,1.1386
6494.00,1.1473
6493.00,1.1556
6492.00,1.1636
6491.00,1.1713
6490.00,1.1787
6489.00,1.1854
6488.00,1.1915
6487.00,1.1970
6486.00,1.2022
6485.00,1.2071
6484.00,1.2116
6483.00,1.2158
6482.00,1.2200
6481.00,1.2242
6480.00,1.2279
6479.00,1.2307
6478.00,1.2325
6477.00,1.2337
6476.00,1.2347
6475.00,1.2356
6474.00,1.2361
6473.00,1.2362
6472.00,1.2359
6471.00,1.2356
6470.00,1.2351
6469.00,1.2342
6468.00,1.2325
6467.00,1.2299
6466.00,1.2267
6465.00,1.2231
6464.00,1.2192
6463.00,1.2148
6462.00,1.2098
6461.00,1.2047
6460.00,1.1997
6459.00,1.1946
6458.00,1.1891
6457.00,1.1830
6456.00,1.1768
6455.00,1.1703
6454.00,1.1632
6453.00,1.1554
6452.00,1.1471
6451.00,1.1387
6450.00,1.1301
6449.00,1.1213
6448.00,1.1122
6447.00,1.1029
6446.00,1.0932
6445.00,1.0829
6444.00,1.0718
6443.00,1.0602
6442.00,1.0485
6441.00,1.0370
6440.00,1.0257
6439.00,1.0143
6438.00,1.0029
6437.00,0.9912
6436.00,0.9793
6435.00,0.9672
6434.00,0.9552
6433.00,0.9432
6432.00,0.9314
6431.00,0.9196
6430.00,0.9077
6429.00,0.8956
6428.00,0.8837
6427.00,0.8720
6426.00,0.8608
6425.00,0.8500
6424.00,0.8396
6423.00,0.8297
6422.00,0.8202
6421.00,0.8112
6420.00,0.8027
6419.00,0.7947
6418.00,0.7872
6417.00,0.7804
6416.00,0.7743
6415.00,0.7689
6414.00,0.7642
6413.00,0.7603
6412.00,0.7572
6411.00,0.7551
6410.00,0.7538
6409.00,0.7532
6408.00,0.7532
6407.00,0.7539
6406.00,0.7554
6405.00,0.7579
6404.00,0.7613
6403.00,0.7655
6402.00,0.7705
6401.00,0.7765
6400.00,0.7831
6399.00,0.7903
6398.00,0.7980
6397.00,0.8062
6396.00,0.8150
6395.00,0.8244
6394.00,0.8342
6393.00,0.8445
6392.00,0.8554
6391.00,0.8668
6390.00,0.8787
6389.00,0.8908
6388.00,0.9031
6387.00,0.9154
6386.00,0.9279
6385.00,0.9405
6384.00,0.9533
6383.00,0.9662
6382.00,0.9791
6381.00,0.9919
6380.00,1.0046
6379.00,1.0171
6378.00,1.0293
6377.00,1.0414
6376.00,1.0535
6375.00,1.0657
6374.00,1.0783
6373.00,1.0907
6372.00,1.1026
6371.00,1.1138
6370.00,1.1242
6369.00,1.1342
6368.00,1.1437
6367.00,1.1530
6366.00,1.1621
6365.00,1.1711
6364.00,1.1801
6363.00,1.1888
6362.00,1.1970
6361.00,1.2045
6360.00,1.2115
6359.00,1.2183
6358.00,1.2250
6357.00,1.2311
6356.00,1.2364
6355.00,1.2408
6354.00,1.2445
6353.00,1.2477
6352.00,1.2507
6351.00,1.2534
6350.00,1.2562
6349.00,1.2591
6348.00,1.2618
6347.00,1.2641
6346.00,1.2656
6345.00,1.2662
6344.00,1.2659
6343.00,1.2650
6342.00,1.2639
6341.00,1.2627
6340.00,1.2613
6339.00,1.2596
6338.00,1.2576
6337.00,1.2551
6336.00,1.2518
6335.00,1.2478
6334.00,1.2430
6333.00,1.2379
6332.00,1.2326
6331.00,1.2272
6330.00,1.2215
6329.00,1.2153
6328.00,1.2087
6327.00,1.2017
6326.00,1.1943
6325.00,1.1865
6324.00,1.1781
6323.00,1.1692
6322.00,1.1600
6321.00,1.1503
6320.00,1.1401
6319.00,1.1293
6318.00,1.1181
6317.00,1.1068
6316.00,1.0955
6315.00,1.0840
6314.00,1.0725
6313.00,1.0607
6312.00,1.0488
6311.00,1.0367
6310.00,1.0241
6309.00,1.0111
6308.00,0.9979
6307.00,0.9846
6306.00,0.9714
6305.00,0.9580
6304.00,0.9448
6303.00,0.9317
6302.00,0.9189
6301.00,0.9063
6300.00,0.8939
6299.00,0.8817
6298.00,0.8701
6297.00,0.8588
6296.00,0.8477
6295.00,0.8369
6294.00,0.8266
6293.00,0.8167
6292.00,0.8074
6291.00,0.7985
6290.00,0.7904
6289.00,0.7831
6288.00,0.7765
6287.00,0.7708
6286.00,0.7658
6285.00,0.7617
6284.00,0.7583
6283.00,0.7558
6282.00,0.7540
6281.00,0.7531
6280.00,0.7532
6279.00,0.7541
6278.00,0.7559
6277.00,0.7586
6276.00,0.7622
6275.00,0.7664
6274.00,0.7713
6273.00,0.7770
6272.00,0.7835
6271.00,0.7907
6270.00,0.7987
6269.00,0.8073
6268.00,0.8166
6267.00,0.8265
6266.00,0.8369
6265.00,0.8477
6264.00,0.8590
6263.00,0.8705
6262.00,0.8824
6261.00,0.8946
6260.00,0.9071
6259.00,0.9197
6258.00,0.9325
6257.00,0.9454
6256.00,0.9583
6255.00,0.9713
6254.00,0.9844
6253.00,0.9976
6252.00,1.0108
6251.00,1.0238
6250.00,1.0367
6249.00,1.0494
6248.00,1.0617
6247.00,1.0735
6246.00,1.0847
6245.00,1.0956
6244.00,1.1064
6243.00,1.1169
6242.00,1.1270
6241.00,1.1367
6240.00,1.1462
6239.00,1.1558
6238.00,1.1651
6237.00,1.1738
6236.00,1.1818
6235.00,1.1892
6234.00,1.1962
6233.00,1.2028
6232.00,1.2088
6231.00,1.2141
6230.00,1.2190
6229.00,1.2238
6228.00,1.2284
6227.00,1.2328
6226.00,1.2369
6225.00,1.2407
6224.00,1.2441
6223.00,1.2470
6222.00,1.2491
6221.00,1.2505
6220.00,1.2514
6219.00,1.2519
6218.00,1.2525
6217.00,1.2528
6216.00,1.2527
6215.00,1.2519
6214.00,1.2504
6213.00,1.2483
6212.00,1.2458
6211.00,1.2430
6210.00,1.2403
6209.00,1.2378
6208.00,1.2352
6207.00,1.2322
6206.00,1.2288
6205.00,1.2248
6204.00,1.2203
6203.00,1.2153
6202.00,1.2098
6201.00,1.2038
6200.00,1.1973
6199.00,1.1904
6198.00,1.1830
6197.00,1.1752
6196.00,1.1669
6195.00,1.1583
6194.00,1.1497
6193.00,1.1410
6192.00,1.1321
6191.00,1.1226
6190.00,1.1123
6189.00,1.1017
6188.00,1.0907
6187.00,1.0792
6186.00,1.0672
6185.00,1.0551
6184.00,1.0430
6183.00,1.0309
6182.00,1.0185
6181.00,1.0058
6180.00,0.9930
6179.00,0.9800
6178.00,0.9671
6177.00,0.9541
6176.00,0.9410
6175.00,0.9279
6174.00,0.9148
6173.00,0.9019
6172.00,0.8891
6171.00,0.8767
6170.00,0.8646
6169.00,0.8532
6168.00,0.8424
6167.00,0.8320
6166.00,0.8220
6165.00,0.8124
6164.00,0.8032
6163.00,0.7945
6162.00,0.7864
6161.00,0.7788
6160.00,0.7719
6159.00,0.7659
6158.00,0.7609
6157.00,0.7567
6156.00,0.7534
6155.00,0.7510
6154.00,0.7494
6153.00,0.7489
6152.00,0.7492
6151.00,0.7502
6150.00,0.7522
6149.00,0.7552
6148.00,0.7591
6147.00,0.7639
6146.00,0.7695
6145.00,0.7759
6144.00,0.7829
6143.00,0.7905
6142.00,0.7988
6141.00,0.8079
6140.00,0.8176
6139.00,0.8280
6138.00,0.8389
6137.00,0.8502
6136.00,0.8620
6135.00,0.8741
6134.00,0.8866
6133.00,0.8994
6132.00,0.9125
6131.00,0.9258
6130.00,0.9394
6129.00,0.9530
6128.00,0.9665
6127.00,0.9801
6126.00,0.9937
6125.00,1.0075
6124.00,1.0211
6123.00,1.0346
6122.00,1.0478
6121.00,1.0608
6120.00,1.0737
6119.00,1.0865
6118.00,1.0993
6117.00,1.1118
6116.00,1.1241
6115.00,1.1358
6114.00,1.1469
6113.00,1.1572
6112.00,1.1670
6111.00,1.1766
6110.00,1.1860
6109.00,1.1951
6108.00,1.2037
6107.00,1.2118
6106.00,1.2197
6105.00,1.2272
6104.00,1.2344
6103.00,1.2412
6102.00,1.2476
6101.00,1.2536
6100.00,1.2593
6099.00,1.2646
6098.00,1.2694
6097.00,1.2737
6096.00,1.2775
6095.00,1.2807
6094.00,1.2832
6093.00,1.2849
6092.00,1.2864
6091.00,1.2879
6090.00,1.2894
6089.00,1.2903
6088.00,1.2903
6087.00,1.2896
6086.00,1.2885
6085.00,1.2868
6084.00,1.2846
6083.00,1.2823
6082.00,1.2802
6081.00,1.2777
6080.00,1.2745
6079.00,1.2704
6078.00,1.2659
6077.00,1.2610
6076.00,1.2556
6075.00,1.2498
6074.00,1.2437
6073.00,1.2375
6072.00,1.2308
6071.00,1.2233
6070.00,1.2152
6069.00,1.2065
6068.00,1.1972
6067.00,1.1875
6066.00,1.1777
6065.00,1.1679
6064.00,1.1579
6063.00,1.1475
6062.00,1.1365
6061.00,1.1248
6060.00,1.1126
6059.00,1.0999
6058.00,1.0870
6057.00,1.0740
6056.00,1.0610
6055.00,1.0478
6054.00,1.0343
6053.00,1.0205
6052.00,1.0064
6051.00,0.9921
6050.00,0.9778
6049.00,0.9637
6048.00,0.9498
6047.00,0.9361
6046.00,0.9227
6045.00,0.9095
6044.00,0.8964
6043.00,0.8833
6042.00,0.8704
6041.00,0.8579
6040.00,0.8457
6039.00,0.8341
6038.00,0.8230
6037.00,0.8126
6036.00,0.8028
6035.00,0.7937
6034.00,0.7853
6033.00,0.7775
6032.00,0.7704
6031.00,0.7642
6030.00,0.7589
6029.00,0.7546
6028.00,0.7511
6027.00,0.7486
6026.00,0.7469
6025.00,0.7462
6024.00,0.7462
6023.00,0.7470
6022.00,0.7488
6021.00,0.7517
6020.00,0.7557
6019.00,0.7607
6018.00,0.7666
6017.00,0.7733
6016.00,0.7808
6015.00,0.7890
6014.00,0.7978
6013.00,0.8073
6012.00,0.8173
6011.00,0.8279
6010.00,0.8390
6009.00,0.8507
6008.00,0.8628
6007.00,0.8752
6006.00,0.8880
6005.00,0.9013
6004.00,0.9148
6003.00,0.9286
6002.00,0.9427
6001.00,0.9571
6000.00,0.9715
5999.00,0.9859
5998.00,1.0002
5997.00,1.0143
5996.00,1.0282
5995.00,1.0418
5994.00,1.0553
5993.00,1.0688
5992.00,1.0821
5991.00,1.0951
5990.00,1.1078
5989.00,1.1202
5988.00,1.1324
5987.00,1.1444
5986.00,1.1562
5985.00,1.1677
5984.00,1.1788
5983.00,1.1892
5982.00,1.1991
5981.00,1.2083
5980.00,1.2170
5979.00,1.2253
5978.00,1.2331
5977.00,1.2407
5976.00,1.2479
5975.00,1.2550
5974.00,1.2619
5973.00,1.2686
5972.00,1.2747
5971.00,1.2800
5970.00,1.2846
5969.00,1.2885
5968.00,1.2918
5967.00,1.2948
5966.00,1.2976
5965.00,1.3002
5964.00,1.3025
5963.00,1.3043
5962.00,1.3057
5961.00,1.3065
5960.00,1.3068
5959.00,1.3066
5958.00,1.3058
5957.00,1.3047
5956.00,1.3032
5955.00,1.3012
5954.00,1.2986
5953.00,1.2952
5952.00,1.2912
5951.00,1.2867
5950.00,1.2819
5949.00,1.2768
5948.00,1.2716
5947.00,1.2662
5946.00,1.2603
5945.00,1.2536
5944.00,1.2464
5943.00,1.2387
5942.00,1.2308
5941.00,1.2227
5940.00,1.2140
5939.00,1.2045
5938.00,1.1943
5937.00,1.1837
5936.00,1.1725
5935.00,1.1610
5934.00,1.1493
5933.00,1.1376
5932.00,1.1255
5931.00,1.1130
5930.00,1.1000
5929.00,1.0867
5928.00,1.0733
5927.00,1.0596
5926.00,1.0457
5925.00,1.0317
5924.00,1.0177
5923.00,1.0035
5922.00,0.9892
5921.00,0.9749
5920.00,0.9606
5919.00,0.9463
5918.00,0.9321
5917.00,0.9182
5916.00,0.9045
5915.00,0.8912
5914.00,0.8782
5913.00,0.8656
5912.00,0.8535
5911.00,0.8419
5910.00,0.8309
5909.00,0.8205
5908.00,0.8107
5907.00,0.8016
5906.00,0.7931
5905.00,0.7853
5904.00,0.7784
5903.00,0.7724
5902.00,0.7674
5901.00,0.7634
5900.00,0.7605
5899.00,0.7584
5898.00,0.7573
5897.00,0.7570
5896.00,0.7577
5895.00,0.7593
5894.00,0.7619
5893.00,0.7656
5892.00,0.7701
5891.00,0.7756
5890.00,0.7822
5889.00,0.7897
5888.00,0.7980
5887.00,0.8070
5886.00,0.8167
5885.00,0.8270
5884.00,0.8379
5883.00,0.8492
5882.00,0.8611
5881.00,0.8736
5880.00,0.8865
5879.00,0.8997
5878.00,0.9130
5877.00,0.9266
5876.00,0.9405
5875.00,0.9546
5874.00,0.9691
5873.00,0.9837
5872.00,0.9982
5871.00,1.0128
5870.00,1.0273
5869.00,1.0416
5868.00,1.0555
5867.00,1.0691
5866.00,1.0827
5865.00,1.0963
5864.00,1.1098
5863.00,1.1229
5862.00,1.1356
5861.00,1.1480
5860.00,1.1600
5859.00,1.1716
5858.00,1.1829
5857.00,1.1938
5856.00,1.2045
5855.00,1.2147
5854.00,1.2244
5853.00,1.2336
5852.00,1.2423
5851.00,1.2508
5850.00,1.2587
5849.00,1.2663
5848.00,1.2734
5847.00,1.2798
5846.00,1.2856
5845.00,1.2911
5844.00,1.2966
5843.00,1.3018
5842.00,1.3064
5841.00,1.3102
5840.00,1.3133
5839.00,1.3159
5838.00,1.3181
5837.00,1.3201
5836.00,1.3219
5835.00,1.3235
5834.00,1.3248
5833.00,1.3256
5832.00,1.3257
5831.00,1.3252
5830.00,1.3244
5829.00,1.3234
5828.00,1.3221
5827.00,1.3202
5826.00,1.3178
5825.00,1.3150
5824.00,1.3117
5823.00,1.3078
5822.00,1.3033
5821.00,1.2984
5820.00,1.2930
5819.00,1.2872
5818.00,1.2810
5817.00,1.2745
5816.00,1.2677
5815.00,1.2605
5814.00,1.2526
5813.00,1.2442
5812.00,1.2354
5811.00,1.2262
5810.00,1.2162
5809.00,1.2055
5808.00,1.1945
5807.00,1.1832
5806.00,1.1718
5805.00,1.1600
5804.00,1.1480
5803.00,1.1355
5802.00,1.1226
5801.00,1.1093
5800.00,1.0955
5799.00,1.0813
5798.00,1.0671
5797.00,1.0529
5796.00,1.0384
5795.00,1.0238
5794.00,1.0089
5793.00,0.9940
5792.00,0.9790
5791.00,0.9641
5790.00,0.9494
5789.00,0.9348
5788.00,0.9204
5787.00,0.9064
5786.00,0.8927
5785.00,0.8794
5784.00,0.8665
5783.00,0.8540
5782.00,0.8420
5781.00,0.8307
5780.00,0.8199
5779.00,0.8097
5778.00,0.8003
5777.00,0.7918
5776.00,0.7842
5775.00,0.7775
5774.00,0.7718
5773.00,0.7672
5772.00,0.7636
5771.00,0.7610
5770.00,0.7593
5769.00,0.7587
5768.00,0.7591
5767.00,0.7604
5766.00,0.7628
5765.00,0.7661
5764.00,0.7705
5763.00,0.7759
5762.00,0.7823
5761.00,0.7897
5760.00,0.7981
5759.00,0.8072
5758.00,0.8172
5757.00,0.8278
5756.00,0.8390
5755.00,0.8508
5754.00,0.8630
5753.00,0.8757
5752.00,0.8888
5751.00,0.9021
5750.00,0.9158
5749.00,0.9300
5748.00,0.9446
5747.00,0.9595
5746.00,0.9746
5745.00,0.9897
5744.00,1.0046
5743.00,1.0193
5742.00,1.0338
5741.00,1.0484
5740.00,1.0630
5739.00,1.0775
5738.00,1.0918
5737.00,1.1058
5736.00,1.1194
5735.00,1.1328
5734.00,1.1459
5733.00,1.1587
5732.00,1.1713
5731.00,1.1834
5730.00,1.1950
5729.00,1.2062
5728.00,1.2169
5727.00,1.2273
5726.00,1.2372
5725.00,1.2468
5724.00,1.2560
5723.00,1.2647
5722.00,1.2728
5721.00,1.2805
5720.00,1.2879
5719.00,1.2948
5718.00,1.3010
5717.00,1.3066
5716.00,1.3116
5715.00,1.3164
5714.00,1.3209
5713.00,1.3252
5712.00,1.3293
5711.00,1.3333
5710.00,1.3366
5709.00,1.3392
5708.00,1.3409
5707.00,1.3418
5706.00,1.3419
5705.00,1.3416
5704.00,1.3411
5703.00,1.3403
5702.00,1.3393
5701.00,1.3382
5700.00,1.3370
5699.00,1.3353
5698.00,1.3330
5697.00,1.3299
5696.00,1.3260
5695.00,1.3217
5694.00,1.3172
5693.00,1.3124
5692.00,1.3072
5691.00,1.3016
5690.00,1.2953
5689.00,1.2883
5688.00,1.2808
5687.00,1.2728
5686.00,1.2647
5685.00,1.2565
5684.00,1.2478
5683.00,1.2383
5682.00,1.2280
5681.00,1.2173
5680.00,1.2064
5679.00,1.1953
5678.00,1.1839
5677.00,1.1719
5676.00,1.1594
5675.00,1.1463
5674.00,1.1325
5673.00,1.1185
5672.00,1.1043
5671.00,1.0901
5670.00,1.0756
5669.00,1.0609
5668.00,1.0459
5667.00,1.0308
5666.00,1.0156
5665.00,1.0004
5664.00,0.9850
5663.00,0.9696
5662.00,0.9543
5661.00,0.9392
5660.00,0.9245
5659.00,0.9100
5658.00,0.8959
5657.00,0.8821
5656.00,0.8686
5655.00,0.8555
5654.00,0.8430
5653.00,0.8310
5652.00,0.8198
5651.00,0.8093
5650.00,0.7996
5649.00,0.7907
5648.00,0.7827
5647.00,0.7755
5646.00,0.7693
5645.00,0.7640
5644.00,0.7597
5643.00,0.7564
5642.00,0.7542
5641.00,0.7532
5640.00,0.7533
5639.00,0.7543
5638.00,0.7564
5637.00,0.7596
5636.00,0.7639
5635.00,0.7692
5634.00,0.7755
5633.00,0.7828
5632.00,0.7909
5631.00,0.7998
5630.00,0.8094
5629.00,0.8199
5628.00,0.8311
5627.00,0.8430
5626.00,0.8555
5625.00,0.8686
5624.00,0.8822
5623.00,0.8962
5622.00,0.9103
5621.00,0.9248
5620.00,0.9396
5619.00,0.9546
5618.00,0.9699
5617.00,0.9853
5616.00,1.0007
5615.00,1.0160
5614.00,1.0311
5613.00,1.0461
5612.00,1.0609
5611.00,1.0755
5610.00,1.0901
5609.00,1.1044
5608.00,1.1184
5607.00,1.1319
5606.00,1.1450
5605.00,1.1577
5604.00,1.1701
5603.00,1.1820
5602.00,1.1934
5601.00,1.2045
5600.00,1.2152
5599.00,1.2254
5598.00,1.2349
5597.00,1.2439
5596.00,1.2525
5595.00,1.2608
5594.00,1.2687
5593.00,1.2764
5592.00,1.2837
5591.00,1.2906
5590.00,1.2967
5589.00,1.3022
5588.00,1.3070
5587.00,1.3113
5586.00,1.3149
5585.00,1.3180
5584.00,1.3206
5583.00,1.3229
5582.00,1.3250
5581.00,1.3269
5580.00,1.3287
5579.00,1.3301
5578.00,1.3310
5577.00,1.3313
5576.00,1.3312
5575.00,1.3308
5574.00,1.3302
5573.00,1.3292
5572.00,1.3280
5571.00,1.3265
5570.00,1.3248
5569.00,1.3225
5568.00,1.3196
5567.00,1.3161
5566.00,1.3122
5565.00,1.3077
5564.00,1.3027
5563.00,1.2973
5562.00,1.2916
5561.00,1.2858
5560.00,1.2795
5559.00,1.2727
5558.00,1.2654
5557.00,1.2574
5556.00,1.2488
5555.00,1.2396
5554.00,1.2298
5553.00,1.2196
5552.00,1.2090
5551.00,1.1980
5550.00,1.1867
5549.00,1.1749
5548.00,1.1626
5547.00,1.1498
5546.00,1.1366
5545.00,1.1231
5544.00,1.1091
5543.00,1.0948
5542.00,1.0803
5541.00,1.0654
5540.00,1.0503
5539.00,1.0349
5538.00,1.0193
5537.00,1.0035
5536.00,0.9877
5535.00,0.9719
5534.00,0.9561
5533.00,0.9406
5532.00,0.9252
5531.00,0.9102
5530.00,0.8955
5529.00,0.8812
5528.00,0.8673
5527.00,0.8538
5526.00,0.8408
5525.00,0.8284
5524.00,0.8167
5523.00,0.8057
5522.00,0.7955
5521.00,0.7863
5520.00,0.7780
5519.00,0.7706
5518.00,0.7642
5517.00,0.7588
5516.00,0.7544
5515.00,0.7510
5514.00,0.7489
5513.00,0.7479
5512.00,0.7482
5511.00,0.7495
5510.00,0.7519
5509.00,0.7554
5508.00,0.7599
5507.00,0.7655
5506.00,0.7721
5505.00,0.7798
5504.00,0.7885
5503.00,0.7981
5502.00,0.8085
5501.00,0.8198
5500.00,0.8319
5499.00,0.8446
5498.00,0.8580
5497.00,0.8718
5496.00,0.8861
5495.00,0.9007
5494.00,0.9159
5493.00,0.9314
5492.00,0.9473
5491.00,0.9633
5490.00,0.9794
5489.00,0.9955
5488.00,1.0118
5487.00,1.0280
5486.00,1.0442
5485.00,1.0603
5484.00,1.0763
5483.00,1.0920
5482.00,1.1076
5481.00,1.1228
5480.00,1.1376
5479.00,1.1520
5478.00,1.1659
5477.00,1.1793
5476.00,1.1923
5475.00,1.2050
5474.00,1.2173
5473.00,1.2294
5472.00,1.2410
5471.00,1.2521
5470.00,1.2627
5469.00,1.2728
5468.00,1.2823
5467.00,1.2913
5466.00,1.2999
5465.00,1.3081
5464.00,1.3158
5463.00,1.3228
5462.00,1.3293
5461.00,1.3353
5460.00,1.3407
5459.00,1.3457
5458.00,1.3502
5457.00,1.3544
5456.00,1.3583
5455.00,1.3617
5454.00,1.3647
5453.00,1.3673
5452.00,1.3695
5451.00,1.3711
5450.00,1.3722
5449.00,1.3727
5448.00,1.3727
5447.00,1.3723
5446.00,1.3713
5445.00,1.3698
5444.00,1.3677
5443.00,1.3653
5442.00,1.3625
5441.00,1.3595
5440.00,1.3559
5439.00,1.3516
5438.00,1.3467
5437.00,1.3415
5436.00,1.3358
5435.00,1.3296
5434.00,1.3229
5433.00,1.3160
5432.00,1.3088
5431.00,1.3012
5430.00,1.2929
5429.00,1.2839
5428.00,1.2744
5427.00,1.2644
5426.00,1.2539
5425.00,1.2430
5424.00,1.2317
5423.00,1.2199
5422.00,1.2075
5421.00,1.1946
5420.00,1.1814
5419.00,1.1678
5418.00,1.1540
5417.00,1.1398
5416.00,1.1251
5415.00,1.1098
5414.00,1.0940
5413.00,1.0777
5412.00,1.0611
5411.00,1.0443
5410.00,1.0275
5409.00,1.0106
5408.00,0.9938
5407.00,0.9770
5406.00,0.9604
5405.00,0.9441
5404.00,0.9280
5403.00,0.9123
5402.00,0.8968
5401.00,0.8818
5400.00,0.8671
5399.00,0.8530
5398.00,0.8393
5397.00,0.8262
5396.00,0.8139
5395.00,0.8022
5394.00,0.7914
5393.00,0.7813
5392.00,0.7723
5391.00,0.7642
5390.00,0.7572
5389.00,0.7514
5388.00,0.7468
5387.00,0.7433
5386.00,0.7411
5385.00,0.7401
5384.00,0.7402
5383.00,0.7415
5382.00,0.7441
5381.00,0.7478
5380.00,0.7526
5379.00,0.7586
5378.00,0.7657
5377.00,0.7739
5376.00,0.7831
5375.00,0.7933
5374.00,0.8044
5373.00,0.8163
5372.00,0.8289
5371.00,0.8423
5370.00,0.8562
5369.00,0.8707
5368.00,0.8858
5367.00,0.9013
5366.00,0.9173
5365.00,0.9336
5364.00,0.9502
5363.00,0.9670
5362.00,0.9840
5361.00,1.0011
5360.00,1.0181
5359.00,1.0350
5358.00,1.0515
5357.00,1.0676
5356.00,1.0833
5355.00,1.0989
5354.00,1.1144
5353.00,1.1298
5352.00,1.1448
5351.00,1.1593
5350.00,1.1735
5349.00,1.1874
5348.00,1.2007
5347.00,1.2136
5346.00,1.2262
5345.00,1.2385
5344.00,1.2503
5343.00,1.2614
5342.00,1.2721
5341.00,1.2823
5340.00,1.2921
5339.00,1.3014
5338.00,1.3101
5337.00,1.3179
5336.00,1.3252
5335.00,1.3322
5334.00,1.3388
5333.00,1.3452
5332.00,1.3512
5331.00,1.3567
5330.00,1.3616
5329.00,1.3658
5328.00,1.3695
5327.00,1.3729
5326.00,1.3762
5325.00,1.3793
5324.00,1.3820
5323.00,1.3842
5322.00,1.3858
5321.00,1.3868
5320.00,1.3869
5319.00,1.3866
5318.00,1.3858
5317.00,1.3847
5316.00,1.3833
5315.00,1.3814
5314.00,1.3792
5313.00,1.3767
5312.00,1.3736
5311.00,1.3698
5310.00,1.3655
5309.00,1.3605
5308.00,1.3548
5307.00,1.3482
5306.00,1.3411
5305.00,1.3338
5304.00,1.3264
5303.00,1.3187
5302.00,1.3107
5301.00,1.3023
5300.00,1.2933
5299.00,1.2836
5298.00,1.2731
5297.00,1.2618
5296.00,1.2501
5295.00,1.2378
5294.00,1.2252
5293.00,1.2123
5292.00,1.1991
5291.00,1.1854
5290.00,1.1711
5289.00,1.1562
5288.00,1.1407
5287.00,1.1249
5286.00,1.1088
5285.00,1.0924
5284.00,1.0759
5283.00,1.0591
5282.00,1.0422
5281.00,1.0252
5280.00,1.0081
5279.00,0.9910
5278.00,0.9739
5277.00,0.9570
5276.00,0.9403
5275.00,0.9241
5274.00,0.9082
5273.00,0.8928
5272.00,0.8778
5271.00,0.8633
5270.00,0.8493
5269.00,0.8359
5268.00,0.8233
5267.00,0.8114
5266.00,0.8005
5265.00,0.7905
5264.00,0.7815
5263.00,0.7735
5262.00,0.7666
5261.00,0.7610
5260.00,0.7566
5259.00,0.7535
5258.00,0.7517
5257.00,0.7512
5256.00,0.7520
5255.00,0.7542
5254.00,0.7576
5253.00,0.7621
5252.00,0.7676
5251.00,0.7743
5250.00,0.7821
5249.00,0.7912
5248.00,0.8014
5247.00,0.8126
5246.00,0.8247
5245.00,0.8376
5244.00,0.8512
5243.00,0.8654
5242.00,0.8803
5241.00,0.8957
5240.00,0.9116
5239.00,0.9280
5238.00,0.9447
5237.00,0.9618
5236.00,0.9792
5235.00,0.9967
5234.00,1.0142
5233.00,1.0317
5232.00,1.0490
5231.00,1.0662
5230.00,1.0832
5229.00,1.1001
5228.00,1.1166
5227.00,1.1329
5226.00,1.1490
5225.00,1.1647
5224.00,1.1801
5223.00,1.1951
5222.00,1.2096
5221.00,1.2236
5220.00,1.2371
5219.00,1.2500
5218.00,1.2625
5217.00,1.2747
5216.00,1.2864
5215.00,1.2976
5214.00,1.3084
5213.00,1.3185
5212.00,1.3282
5211.00,1.3374
5210.00,1.3460
5209.00,1.3542
5208.00,1.3618
5207.00,1.3689
5206.00,1.3755
5205.00,1.3817
5204.00,1.3873
5203.00,1.3925
5202.00,1.3971
5201.00,1.4013
5200.00,1.4051
5199.00,1.4084
5198.00,1.4112
5197.00,1.4137
5196.00,1.4156
5195.00,1.4171
5194.00,1.4180
5193.00,1.4185
5192.00,1.4185
5191.00,1.4181
5190.00,1.4170
5189.00,1.4154
5188.00,1.4133
5187.00,1.4108
5186.00,1.4079
5185.00,1.4048
5184.00,1.4013
5183.00,1.3974
5182.00,1.3930
5181.00,1.3878
5180.00,1.3819
5179.00,1.3753
5178.00,1.3683
5177.00,1.3609
5176.00,1.3532
5175.00,1.3451
5174.00,1.3366
5173.00,1.3274
5172.00,1.3175
5171.00,1.3071
5170.00,1.2962
5169.00,1.2847
5168.00,1.2729
5167.00,1.2605
5166.00,1.2475
5165.00,1.2339
5164.00,1.2198
5163.00,1.2052
5162.00,1.1900
5161.00,1.1745
5160.00,1.1585
5159.00,1.1421
5158.00,1.1255
5157.00,1.1086
5156.00,1.0915
5155.00,1.0741
5154.00,1.0564
5153.00,1.0386
5152.00,1.0206
5151.00,1.0026
5150.00,0.9848
5149.00,0.9670
5148.00,0.9495
5147.00,0.9322
5146.00,0.9151
5145.00,0.8984
5144.00,0.8821
5143.00,0.8663
5142.00,0.8513
5141.00,0.8370
5140.00,0.8235
5139.00,0.8108
5138.00,0.7991
5137.00,0.7883
5136.00,0.7784
5135.00,0.7697
5134.00,0.7622
5133.00,0.7560
5132.00,0.7511
5131.00,0.7476
5130.00,0.7453
5129.00,0.7444
5128.00,0.7448
5127.00,0.7466
5126.00,0.7498
5125.00,0.7543
5124.00,0.7601
5123.00,0.7672
5122.00,0.7755
5121.00,0.7850
5120.00,0.7956
5119.00,0.8071
5118.00,0.8196
5117.00,0.8330
5116.00,0.8471
5115.00,0.8620
5114.00,0.8776
5113.00,0.8938
5112.00,0.9105
5111.00,0.9276
5110.00,0.9450
5109.00,0.9628
5108.00,0.9807
5107.00,0.9986
5106.00,1.0167
5105.00,1.0347
5104.00,1.0528
5103.00,1.0707
5102.00,1.0886
5101.00,1.1061
5100.00,1.1234
5099.00,1.1404
5098.00,1.1571
5097.00,1.1735
5096.00,1.1895
5095.00,1.2051
5094.00,1.2201
5093.00,1.2347
5092.00,1.2487
5091.00,1.2622
5090.00,1.2754
5089.00,1.2883
5088.00,1.3009
5087.00,1.3128
5086.00,1.3242
5085.00,1.3349
5084.00,1.3450
5083.00,1.3545
5082.00,1.3635
5081.00,1.3719
5080.00,1.3800
5079.00,1.3874
5078.00,1.3944
5077.00,1.4007
5076.00,1.4065
5075.00,1.4118
5074.00,1.4165
5073.00,1.4209
5072.00,1.4249
5071.00,1.4285
5070.00,1.4316
5069.00,1.4342
5068.00,1.4363
5067.00,1.4378
5066.00,1.4387
5065.00,1.4390
5064.00,1.4387
5063.00,1.4381
5062.00,1.4371
5061.00,1.4359
5060.00,1.4347
5059.00,1.4332
5058.00,1.4313
5057.00,1.4285
5056.00,1.4248
5055.00,1.4202
5054.00,1.4149
5053.00,1.4092
5052.00,1.4032
5051.00,1.3971
5050.00,1.3906
5049.00,1.3837
5048.00,1.3762
5047.00,1.3681
5046.00,1.3594
5045.00,1.3501
5044.00,1.3403
5043.00,1.3299
5042.00,1.3190
5041.00,1.3074
5040.00,1.2952
5039.00,1.2823
5038.00,1.2689
5037.00,1.2549
5036.00,1.2405
5035.00,1.2256
5034.00,1.2101
5033.00,1.1941
5032.00,1.1776
5031.00,1.1607
5030.00,1.1433
5029.00,1.1256
5028.00,1.1077
5027.00,1.0895
5026.00,1.0711
5025.00,1.0524
5024.00,1.0336
5023.00,1.0147
5022.00,0.9958
5021.00,0.9771
5020.00,0.9585
5019.00,0.9402
5018.00,0.9222
5017.00,0.9047
5016.00,0.8876
5015.00,0.8711
5014.00,0.8552
5013.00,0.8400
5012.00,0.8256
5011.00,0.8122
5010.00,0.7998
5009.00,0.7887
5008.00,0.7787
5007.00,0.7699
5006.00,0.7623
5005.00,0.7561
5004.00,0.7512
5003.00,0.7477
5002.00,0.7458
5001.00,0.7454
5000.00,0.7465
4999.00,0.7490
4998.00,0.7531
4997.00,0.7585
4996.00,0.7653
4995.00,0.7735
4994.00,0.7829
4993.00,0.7936
4992.00,0.8055
4991.00,0.8184
4990.00,0.8324
4989.00,0.8472
4988.00,0.8628
4987.00,0.8790
4986.00,0.8960
4985.00,0.9134
4984.00,0.9314
4983.00,0.9497
4982.00,0.9684
4981.00,0.9874
4980.00,1.0066
4979.00,1.0258
4978.00,1.0449
4977.00,1.0638
4976.00,1.0824
4975.00,1.1005
4974.00,1.1185
4973.00,1.1366
4972.00,1.1548
4971.00,1.1732
4970.00,1.1911
4969.00,1.2085
4968.00,1.2250
4967.00,1.2407
4966.00,1.2558
4965.00,1.2703
4964.00,1.2845
4963.00,1.2983
4962.00,1.3117
4961.00,1.3244
4960.00,1.3365
4959.00,1.3479
4958.00,1.3588
4957.00,1.3694
4956.00,1.3795
4955.00,1.3890
4954.00,1.3980
4953.00,1.4063
4952.00,1.4142
4951.00,1.4215
4950.00,1.4283
4949.00,1.4344
4948.00,1.4400
4947.00,1.4452
4946.00,1.4499
4945.00,1.4542
4944.00,1.4579
4943.00,1.4611
4942.00,1.4636
4941.00,1.4657
4940.00,1.4672
4939.00,1.4681
4938.00,1.4684
4937.00,1.4684
4936.00,1.4679
4935.00,1.4671
4934.00,1.4660
4933.00,1.4644
4932.00,1.4624
4931.00,1.4598
4930.00,1.4566
4929.00,1.4530
4928.00,1.4490
4927.00,1.4445
4926.00,1.4395
4925.00,1.4339
4924.00,1.4278
4923.00,1.4211
4922.00,1.4139
4921.00,1.4060
4920.00,1.3977
4919.00,1.3888
4918.00,1.3793
4917.00,1.3692
4916.00,1.3585
4915.00,1.3474
4914.00,1.3358
4913.00,1.3237
4912.00,1.3113
4911.00,1.2982
4910.00,1.2844
4909.00,1.2697
4908.00,1.2544
4907.00,1.2386
4906.00,1.2224
4905.00,1.2058
4904.00,1.1888
4903.00,1.1712
4902.00,1.1532
4901.00,1.1347
4900.00,1.1158
4899.00,1.0966
4898.00,1.0772
4897.00,1.0576
4896.00,1.0378
4895.00,1.0180
4894.00,0.9982
4893.00,0.9785
4892.00,0.9590
4891.00,0.9396
4890.00,0.9207
4889.00,0.9021
4888.00,0.8841
4887.00,0.8667
4886.00,0.8501
4885.00,0.8342
4884.00,0.8193
4883.00,0.8054
4882.00,0.7926
4881.00,0.7810
4880.00,0.7706
4879.00,0.7616
4878.00,0.7539
4877.00,0.7476
4876.00,0.7429
4875.00,0.7398
4874.00,0.7382
4873.00,0.7383
4872.00,0.7400
4871.00,0.7433
4870.00,0.7481
4869.00,0.7545
4868.00,0.7624
4867.00,0.7716
4866.00,0.7822
4865.00,0.7941
4864.00,0.8072
4863.00,0.8214
4862.00,0.8366
4861.00,0.8527
4860.00,0.8695
4859.00,0.8871
4858.00,0.9053
4857.00,0.9241
4856.00,0.9434
4855.00,0.9630
4854.00,0.9829
4853.00,1.0029
4852.00,1.0229
4851.00,1.0428
4850.00,1.0627
4849.00,1.0825
4848.00,1.1023
4847.00,1.1220
4846.00,1.1414
4845.00,1.1605
4844.00,1.1791
4843.00,1.1974
4842.00,1.2151
4841.00,1.2323
4840.00,1.2489
4839.00,1.2650
4838.00,1.2807
4837.00,1.2960
4836.00,1.3109
4835.00,1.3252
4834.00,1.3388
4833.00,1.3516
4832.00,1.3637
4831.00,1.3752
4830.00,1.3861
4829.00,1.3965
4828.00,1.4064
4827.00,1.4159
4826.00,1.4249
4825.00,1.4334
4824.00,1.4412
4823.00,1.4483
4822.00,1.4548
4821.00,1.4607
4820.00,1.4662
4819.00,1.4713
4818.00,1.4759
4817.00,1.4803
4816.00,1.4842
4815.00,1.4879
4814.00,1.4911
4813.00,1.4938
4812.00,1.4958
4811.00,1.4970
4810.00,1.4974
4809.00,1.4972
4808.00,1.4967
4807.00,1.4959
4806.00,1.4949
4805.00,1.4934
4804.00,1.4913
4803.00,1.4886
4802.00,1.4852
4801.00,1.4812
4800.00,1.4767
4799.00,1.4717
4798.00,1.4661
4797.00,1.4603
4796.00,1.4541
4795.00,1.4475
4794.00,1.4405
4793.00,1.4329
4792.00,1.4246
4791.00,1.4156
4790.00,1.4059
4789.00,1.3956
4788.00,1.3847
4787.00,1.3735
4786.00,1.3618
4785.00,1.3495
4784.00,1.3364
4783.00,1.3226
4782.00,1.3080
4781.00,1.2929
4780.00,1.2773
4779.00,1.2612
4778.00,1.2445
4777.00,1.2272
4776.00,1.2093
4775.00,1.1908
4774.00,1.1719
4773.00,1.1527
4772.00,1.1331
4771.00,1.1132
4770.00,1.0929
4769.00,1.0725
4768.00,1.0520
4767.00,1.0313
4766.00,1.0106
4765.00,0.9900
4764.00,0.9696
4763.00,0.9494
4762.00,0.9297
4761.00,0.9106
4760.00,0.8920
4759.00,0.8741
4758.00,0.8570
4757.00,0.8408
4756.00,0.8255
4755.00,0.8113
4754.00,0.7983
4753.00,0.7866
4752.00,0.7764
4751.00,0.7676
4750.00,0.7604
4749.00,0.7547
4748.00,0.7507
4747.00,0.7483
4746.00,0.7477
4745.00,0.7488
4744.00,0.7516
4743.00,0.7561
4742.00,0.7621
4741.00,0.7698
4740.00,0.7790
4739.00,0.7897
4738.00,0.8018
4737.00,0.8153
4736.00,0.8300
4735.00,0.8457
4734.00,0.8624
4733.00,0.8800
4732.00,0.8984
4731.00,0.9174
4730.00,0.9371
4729.00,0.9572
4728.00,0.9777
4727.00,0.9986
4726.00,1.0199
4725.00,1.0413
4724.00,1.0627
4723.00,1.0840
4722.00,1.1051
4721.00,1.1258
4720.00,1.1463
4719.00,1.1664
4718.00,1.1861
4717.00,1.2055
4716.00,1.2244
4715.00,1.2429
4714.00,1.2610
4713.00,1.2785
4712.00,1.2954
4711.00,1.3117
4710.00,1.3272
4709.00,1.3422
4708.00,1.3565
4707.00,1.3701
4706.00,1.3831
4705.00,1.3954
4704.00,1.4072
4703.00,1.4186
4702.00,1.4294
4701.00,1.4398
4700.00,1.4497
4699.00,1.4590
4698.00,1.4678
4697.00,1.4759
4696.00,1.4836
4695.00,1.4906
4694.00,1.4971
4693.00,1.5031
4692.00,1.5085
4691.00,1.5132
4690.00,1.5171
4689.00,1.5205
4688.00,1.5235
4687.00,1.5264
4686.00,1.5292
4685.00,1.5316
4684.00,1.5335
4683.00,1.5345
4682.00,1.5347
4681.00,1.5343
4680.00,1.5336
4679.00,1.5326
4678.00,1.5314
4677.00,1.5297
4676.00,1.5273
4675.00,1.5242
4674.00,1.5203
4673.00,1.5160
4672.00,1.5112
4671.00,1.5059
4670.00,1.5002
4669.00,1.4941
4668.00,1.4877
4667.00,1.4810
4666.00,1.4738
4665.00,1.4659
4664.00,1.4571
4663.00,1.4474
4662.00,1.4372
4661.00,1.4266
4660.00,1.4156
4659.00,1.4042
4658.00,1.3920
4657.00,1.3790
4656.00,1.3652
4655.00,1.3508
4654.00,1.3359
4653.00,1.3204
4652.00,1.3043
4651.00,1.2876
4650.00,1.2702
4649.00,1.2522
4648.00,1.2335
4647.00,1.2143
4646.00,1.1946
4645.00,1.1744
4644.00,1.1538
4643.00,1.1329
4642.00,1.1117
4641.00,1.0903
4640.00,1.0687
4639.00,1.0469
4638.00,1.0251
4637.00,1.0034
4636.00,0.9819
4635.00,0.9607
4634.00,0.9399
4633.00,0.9197
4632.00,0.9001
4631.00,0.8812
4630.00,0.8632
4629.00,0.8463
4628.00,0.8306
4627.00,0.8161
4626.00,0.8029
4625.00,0.7911
4624.00,0.7808
4623.00,0.7719
4622.00,0.7648
4621.00,0.7594
4620.00,0.7558
4619.00,0.7540
4618.00,0.7540
4617.00,0.7558
4616.00,0.7594
4615.00,0.7647
4614.00,0.7718
4613.00,0.7805
4612.00,0.7909
4611.00,0.8027
4610.00,0.8160
4609.00,0.8306
4608.00,0.8464
4607.00,0.8632
4606.00,0.8810
4605.00,0.8997
4604.00,0.9191
4603.00,0.9392
4602.00,0.9600
4601.00,0.9812
4600.00,1.0028
4599.00,1.0245
4598.00,1.0464
4597.00,1.0683
4596.00,1.0902
4595.00,1.1119
4594.00,1.1335
4593.00,1.1548
4592.00,1.1759
4591.00,1.1967
4590.00,1.2171
4589.00,1.2369
4588.00,1.2561
4587.00,1.2747
4586.00,1.2929
4585.00,1.3106
4584.00,1.3276
4583.00,1.3438
4582.00,1.3593
4581.00,1.3742
4580.00,1.3885
4579.00,1.4023
4578.00,1.4156
4577.00,1.4284
4576.00,1.4405
4575.00,1.4519
4574.00,1.4626
4573.00,1.4728
4572.00,1.4824
4571.00,1.4914
4570.00,1.5000
4569.00,1.5082
4568.00,1.5158
4567.00,1.5227
4566.00,1.5289
4565.00,1.5345
4564.00,1.5396
4563.00,1.5446
4562.00,1.5493
4561.00,1.5535
4560.00,1.5569
4559.00,1.5593
4558.00,1.5608
4557.00,1.5619
4556.00,1.5628
4555.00,1.5637
4554.00,1.5645
4553.00,1.5649
4552.00,1.5646
4551.00,1.5636
4550.00,1.5618
4549.00,1.5594
4548.00,1.5565
4547.00,1.5533
4546.00,1.5497
4545.00,1.5457
4544.00,1.5412
4543.00,1.5360
4542.00,1.5302
4541.00,1.5239
4540.00,1.5170
4539.00,1.5094
4538.00,1.5011
4537.00,1.4923
4536.00,1.4829
4535.00,1.4731
4534.00,1.4626
4533.00,1.4514
4532.00,1.4396
4531.00,1.4274
4530.00,1.4146
4529.00,1.4013
4528.00,1.3873
4527.00,1.3725
4526.00,1.3568
4525.00,1.3403
4524.00,1.3233
4523.00,1.3056
4522.00,1.2874
4521.00,1.2684
4520.00,1.2488
4519.00,1.2286
4518.00,1.2079
4517.00,1.1868
4516.00,1.1653
4515.00,1.1433
4514.00,1.1210
4513.00,1.0983
4512.00,1.0754
4511.00,1.0525
4510.00,1.0297
4509.00,1.0071
4508.00,0.9847
4507.00,0.9627
4506.00,0.9411
4505.00,0.9201
4504.00,0.8999
4503.00,0.8805
4502.00,0.8622
4501.00,0.8450
4500.00,0.8290
4499.00,0.8144
4498.00,0.8012
4497.00,0.7896
4496.00,0.7797
4495.00,0.7716
4494.00,0.7653
4493.00,0.7610
4492.00,0.7586
4491.00,0.7581
4490.00,0.7597
4489.00,0.7633
4488.00,0.7688
4487.00,0.7763
4486.00,0.7856
4485.00,0.7966
4484.00,0.8093
4483.00,0.8236
4482.00,0.8392
4481.00,0.8561
4480.00,0.8743
4479.00,0.8936
4478.00,0.9139
4477.00,0.9351
4476.00,0.9571
4475.00,0.9796
4474.00,1.0024
4473.00,1.0255
4472.00,1.0488
4471.00,1.0721
4470.00,1.0953
4469.00,1.1186
4468.00,1.1418
4467.00,1.1648
4466.00,1.1875
4465.00,1.2098
4464.00,1.2315
4463.00,1.2526
4462.00,1.2731
4461.00,1.2930
4460.00,1.3124
4459.00,1.3312
4458.00,1.3491
4457.00,1.3664
4456.00,1.3828
4455.00,1.3986
4454.00,1.4137
4453.00,1.4282
4452.00,1.4421
4451.00,1.4555
4450.00,1.4685
4449.00,1.4811
4448.00,1.4933
4447.00,1.5047
4446.00,1.5152
4445.00,1.5249
4444.00,1.5337
4443.00,1.5419
4442.00,1.5494
4441.00,1.5565
4440.00,1.5633
4439.00,1.5697
4438.00,1.5759
4437.00,1.5817
4436.00,1.5868
4435.00,1.5913
4434.00,1.5950
4433.00,1.5981
4432.00,1.6006
4431.00,1.6023
4430.00,1.6033
4429.00,1.6036
4428.00,1.6035
4427.00,1.6032
4426.00,1.6029
4425.00,1.6026
4424.00,1.6019
4423.00,1.6005
4422.00,1.5982
4421.00,1.5950
4420.00,1.5911
4419.00,1.5864
4418.00,1.5813
4417.00,1.5759
4416.00,1.5705
4415.00,1.5647
4414.00,1.5585
4413.00,1.5516
4412.00,1.5438
4411.00,1.5354
4410.00,1.5263
4409.00,1.5167
4408.00,1.5064
4407.00,1.4955
4406.00,1.4842
4405.00,1.4724
4404.00,1.4601
4403.00,1.4472
4402.00,1.4335
4401.00,1.4193
4400.00,1.4045
4399.00,1.3891
4398.00,1.3732
4397.00,1.3567
4396.00,1.3395
4395.00,1.3217
4394.00,1.3034
4393.00,1.2847
4392.00,1.2656
4391.00,1.2461
4390.00,1.2262
4389.00,1.2061
4388.00,1.1858
4387.00,1.1654
4386.00,1.1448
4385.00,1.1244
4384.00,1.1042
4383.00,1.0842
4382.00,1.0645
4381.00,1.0451
4380.00,1.0263
4379.00,1.0080
4378.00,0.9905
4377.00,0.9738
4376.00,0.9580
4375.00,0.9431
4374.00,0.9292
4373.00,0.9163
4372.00,0.9045
4371.00,0.8938
4370.00,0.8844
4369.00,0.8763
4368.00,0.8695
4367.00,0.8641
4366.00,0.8600
4365.00,0.8574
4364.00,0.8562
4363.00,0.8565
4362.00,0.8583
4361.00,0.8616
4360.00,0.8665
4359.00,0.8730
4358.00,0.8810
4357.00,0.8906
4356.00,0.9016
4355.00,0.9140
4354.00,0.9278
4353.00,0.9428
4352.00,0.9590
4351.00,0.9761
4350.00,0.9942
4349.00,1.0130
4348.00,1.0326
4347.00,1.0527
4346.00,1.0733
4345.00,1.0942
4344.00,1.1153
4343.00,1.1365
4342.00,1.1579
4341.00,1.1793
4340.00,1.2007
4339.00,1.2218
4338.00,1.2427
4337.00,1.2633
4336.00,1.2834
4335.00,1.3032
4334.00,1.3227
4333.00,1.3418
4332.00,1.3605
4331.00,1.3786
4330.00,1.3962
4329.00,1.4133
4328.00,1.4299
4327.00,1.4461
4326.00,1.4616
4325.00,1.4763
4324.00,1.4902
4323.00,1.5035
4322.00,1.5162
4321.00,1.5284
4320.00,1.5401
4319.00,1.5512
4318.00,1.5617
4317.00,1.5715
4316.00,1.5808
4315.00,1.5895
4314.00,1.5977
4313.00,1.6053
4312.00,1.6122
4311.00,1.6185
4310.00,1.6243
4309.00,1.6295
4308.00,1.6342
4307.00,1.6385
4306.00,1.6424
4305.00,1.6458
4304.00,1.6487
4303.00,1.6509
4302.00,1.6524
4301.00,1.6532
4300.00,1.6533
4299.00,1.6531
4298.00,1.6526
4297.00,1.6521
4296.00,1.6514
4295.00,1.6503
4294.00,1.6486
4293.00,1.6463
4292.00,1.6434
4291.00,1.6399
4290.00,1.6358
4289.00,1.6310
4288.00,1.6255
4287.00,1.6198
4286.00,1.6138
4285.00,1.6076
4284.00,1.6008
4283.00,1.5933
4282.00,1.5851
4281.00,1.5763
4280.00,1.5669
4279.00,1.5569
4278.00,1.5465
4277.00,1.5355
4276.00,1.5239
4275.00,1.5115
4274.00,1.4984
4273.00,1.4848
4272.00,1.4707
4271.00,1.4561
4270.00,1.4410
4269.00,1.4249
4268.00,1.4079
4267.00,1.3900
4266.00,1.3714
4265.00,1.3522
4264.00,1.3325
4263.00,1.3123
4262.00,1.2914
4261.00,1.2699
4260.00,1.2477
4259.00,1.2249
4258.00,1.2017
4257.00,1.1782
4256.00,1.1546
4255.00,1.1308
4254.00,1.1069
4253.00,1.0831
4252.00,1.0594
4251.00,1.0360
4250.00,1.0131
4249.00,0.9907
4248.00,0.9692
4247.00,0.9486
4246.00,0.9291
4245.00,0.9109
4244.00,0.8941
4243.00,0.8788
4242.00,0.8652
4241.00,0.8534
4240.00,0.8436
4239.00,0.8358
4238.00,0.8301
4237.00,0.8266
4236.00,0.8254
4235.00,0.8264
4234.00,0.8295
4233.00,0.8349
4232.00,0.8423
4231.00,0.8519
4230.00,0.8634
4229.00,0.8768
4228.00,0.8919
4227.00,0.9086
4226.00,0.9267
4225.00,0.9460
4224.00,0.9663
4223.00,0.9876
4222.00,1.0096
4221.00,1.0323
4220.00,1.0554
4219.00,1.0789
4218.00,1.1026
4217.00,1.1265
4216.00,1.1505
4215.00,1.1743
4214.00,1.1981
4213.00,1.2215
4212.00,1.2446
4211.00,1.2674
4210.00,1.2897
4209.00,1.3116
4208.00,1.3328
4207.00,1.3535
4206.00,1.3736
4205.00,1.3933
4204.00,1.4125
4203.00,1.4310
4202.00,1.4488
4201.00,1.4656
4200.00,1.4817
4199.00,1.4972
4198.00,1.5123
4197.00,1.5269
4196.00,1.5407
4195.00,1.5537
4194.00,1.5659
4193.00,1.5776
4192.00,1.5891
4191.00,1.6002
4190.00,1.6108
4189.00,1.6205
4188.00,1.6293
4187.00,1.6374
4186.00,1.6448
4185.00,1.6517
4184.00,1.6579
4183.00,1.6636
4182.00,1.6689
4181.00,1.6739
4180.00,1.6784
4179.00,1.6824
4178.00,1.6858
4177.00,1.6887
4176.00,1.6913
4175.00,1.6934
4174.00,1.6948
4173.00,1.6956
4172.00,1.6959
4171.00,1.6956
4170.00,1.6950
4169.00,1.6939
4168.00,1.6922
4167.00,1.6901
4166.00,1.6874
4165.00,1.6843
4164.00,1.6806
4163.00,1.6766
4162.00,1.6722
4161.00,1.6674
4160.00,1.6619
4159.00,1.6555
4158.00,1.6481
4157.00,1.6401
4156.00,1.6317
4155.00,1.6232
4154.00,1.6144
4153.00,1.6052
4152.00,1.5952
4151.00,1.5843
4150.00,1.5724
4149.00,1.5598
4148.00,1.5467
4147.00,1.5330
4146.00,1.5188
4145.00,1.5040
4144.00,1.4887
4143.00,1.4728
4142.00,1.4563
4141.00,1.4391
4140.00,1.4210
4139.00,1.4020
4138.00,1.3823
4137.00,1.3619
4136.00,1.3410
4135.00,1.3194
4134.00,1.2973
4133.00,1.2746
4132.00,1.2515
4131.00,1.2282
4130.00,1.2046
4129.00,1.1808
4128.00,1.1567
4127.00,1.1324
4126.00,1.1081
4125.00,1.0840
4124.00,1.0601
4123.00,1.0366
4122.00,1.0137
4121.00,0.9915
4120.00,0.9701
4119.00,0.9499
4118.00,0.9308
4117.00,0.9131
4116.00,0.8969
4115.00,0.8824
4114.00,0.8696
4113.00,0.8588
4112.00,0.8500
4111.00,0.8434
4110.00,0.8389
4109.00,0.8366
4108.00,0.8367
4107.00,0.8390
4106.00,0.8437
4105.00,0.8505
4104.00,0.8595
4103.00,0.8705
4102.00,0.8835
4101.00,0.8984
4100.00,0.9151
4099.00,0.9335
4098.00,0.9533
4097.00,0.9744
4096.00,0.9966
4095.00,1.0198
4094.00,1.0437
4093.00,1.0682
4092.00,1.0932
4091.00,1.1186
4090.00,1.1442
4089.00,1.1700
4088.00,1.1956
4087.00,1.2212
4086.00,1.2465
4085.00,1.2714
4084.00,1.2958
4083.00,1.3195
4082.00,1.3427
4081.00,1.3652
4080.00,1.3869
4079.00,1.4080
4078.00,1.4282
4077.00,1.4478
4076.00,1.4668
4075.00,1.4853
4074.00,1.5031
4073.00,1.5202
4072.00,1.5365
4071.00,1.5520
4070.00,1.5668
4069.00,1.5807
4068.00,1.5938
4067.00,1.6064
4066.00,1.6186
4065.00,1.6305
4064.00,1.6420
4063.00,1.6526
4062.00,1.6624
4061.00,1.6713
4060.00,1.6798
4059.00,1.6881
4058.00,1.6961
4057.00,1.7037
4056.00,1.7103
4055.00,1.7159
4054.00,1.7207
4053.00,1.7250
4052.00,1.7292
4051.00,1.7330
4050.00,1.7363
4049.00,1.7391
4048.00,1.7414
4047.00,1.7433
4046.00,1.7447
4045.00,1.7456
4044.00,1.7457
4043.00,1.7455
4042.00,1.7449
4041.00,1.7440
4040.00,1.7424
4039.00,1.7400
4038.00,1.7368
4037.00,1.7331
4036.00,1.7290
4035.00,1.7243
4034.00,1.7189
4033.00,1.7131
4032.00,1.7069
4031.00,1.7005
4030.00,1.6935
4029.00,1.6857
4028.00,1.6771
4027.00,1.6680
4026.00,1.6584
4025.00,1.6483
4024.00,1.6374
4023.00,1.6257
4022.00,1.6131
4021.00,1.6000
4020.00,1.5863
4019.00,1.5722
4018.00,1.5574
4017.00,1.5419
4016.00,1.5255
4015.00,1.5084
4014.00,1.4906
4013.00,1.4720
4012.00,1.4525
4011.00,1.4322
4010.00,1.4110
4009.00,1.3890
4008.00,1.3664
4007.00,1.3430
4006.00,1.3189
4005.00,1.2939
4004.00,1.2684
4003.00,1.2425
4002.00,1.2161
4001.00,1.1895
4000.00,1.1627
3999.00,1.1359
3998.00,1.1091
3997.00,1.0826
3996.00,1.0566
3995.00,1.0311
3994.00,1.0065
3993.00,0.9828
3992.00,0.9604
3991.00,0.9394
3990.00,0.9200
3989.00,0.9024
3988.00,0.8867
3987.00,0.8733
3986.00,0.8620
3985.00,0.8531
3984.00,0.8467
3983.00,0.8429
3982.00,0.8416
3981.00,0.8431
3980.00,0.8471
3979.00,0.8538
3978.00,0.8629
3977.00,0.8743
3976.00,0.8880
3975.00,0.9038
3974.00,0.9214
3973.00,0.9407
3972.00,0.9614
3971.00,0.9835
3970.00,1.0069
3969.00,1.0315
3968.00,1.0571
3967.00,1.0834
3966.00,1.1103
3965.00,1.1376
3964.00,1.1651
3963.00,1.1926
3962.00,1.2201
3961.00,1.2473
3960.00,1.2740
3959.00,1.3003
3958.00,1.3261
3957.00,1.3512
3956.00,1.3756
3955.00,1.3993
3954.00,1.4221
3953.00,1.4441
3952.00,1.4652
3951.00,1.4855
3950.00,1.5051
3949.00,1.5241
3948.00,1.5426
3947.00,1.5603
3946.00,1.5772
3945.00,1.5931
3944.00,1.6082
3943.00,1.6227
3942.00,1.6367
3941.00,1.6501
3940.00,1.6627
3939.00,1.6743
3938.00,1.6850
3937.00,1.6953
3936.00,1.7054
3935.00,1.7149
3934.00,1.7238
3933.00,1.7319
3932.00,1.7397
3931.00,1.7472
3930.00,1.7543
3929.00,1.7609
3928.00,1.7664
3927.00,1.7709
3926.00,1.7745
3925.00,1.7778
3924.00,1.7807
3923.00,1.7834
3922.00,1.7856
3921.00,1.7873
3920.00,1.7887
3919.00,1.7897
3918.00,1.7902
3917.00,1.7902
3916.00,1.7897
3915.00,1.7888
3914.00,1.7872
3913.00,1.7849
3912.00,1.7817
3911.00,1.7779
3910.00,1.7735
3909.00,1.7687
3908.00,1.7634
3907.00,1.7575
3906.00,1.7511
3905.00,1.7441
3904.00,1.7366
3903.00,1.7284
3902.00,1.7195
3901.00,1.7101
3900.00,1.7002
3899.00,1.6898
3898.00,1.6785
3897.00,1.6662
3896.00,1.6533
3895.00,1.6399
3894.00,1.6259
3893.00,1.6111
3892.00,1.5954
3891.00,1.5792
3890.00,1.5628
3889.00,1.5463
3888.00,1.5292
3887.00,1.5110
3886.00,1.4911
3885.00,1.4701
3884.00,1.4488
3883.00,1.4272
3882.00,1.4042
3881.00,1.3794
3880.00,1.3533
3879.00,1.3270
3878.00,1.3009
3877.00,1.2748
3876.00,1.2478
3875.00,1.2197
3874.00,1.1909
3873.00,1.1625
3872.00,1.1344
3871.00,1.1057
3870.00,1.0759
3869.00,1.0463
3868.00,1.0183
3867.00,0.9925
3866.00,0.9683
3865.00,0.9452
3864.00,0.9233
3863.00,0.9030
3862.00,0.8847
3861.00,0.8686
3860.00,0.8551
3859.00,0.8447
3858.00,0.8375
3857.00,0.8333
3856.00,0.8321
3855.00,0.8339
3854.00,0.8389
3853.00,0.8470
3852.00,0.8576
3851.00,0.8697
3850.00,0.8823
3849.00,0.8962
3848.00,0.9128
3847.00,0.9322
3846.00,0.9543
3845.00,0.9786
3844.00,1.0050
3843.00,1.0329
3842.00,1.0615
3841.00,1.0904
3840.00,1.1195
3839.00,1.1495
3838.00,1.1808
3837.00,1.2127
3836.00,1.2442
3835.00,1.2745
3834.00,1.3040
3833.00,1.3331
3832.00,1.3621
3831.00,1.3906
3830.00,1.4179
3829.00,1.4438
3828.00,1.4682
3827.00,1.4916
3826.00,1.5140
3825.00,1.5352
3824.00,1.5548
3823.00,1.5733
3822.00,1.5922
3821.00,1.6120
3820.00,1.6319
3819.00,1.6500
3818.00,1.6656
3817.00,1.6796
3816.00,1.6935
3815.00,1.7073
3814.00,1.7203
3813.00,1.7323
3812.00,1.7436
3811.00,1.7544
3810.00,1.7648
3809.00,1.7747
3808.00,1.7841
3807.00,1.7933
3806.00,1.8020
3805.00,1.8096
3804.00,1.8154
3803.00,1.8198
3802.00,1.8242
3801.00,1.8287
3800.00,1.8329
3799.00,1.8361
3798.00,1.8386
3797.00,1.8411
3796.00,1.8438
3795.00,1.8463
3794.00,1.8483
3793.00,1.8493
3792.00,1.8497
3791.00,1.8497
3790.00,1.8496
3789.00,1.8490
3788.00,1.8474
3787.00,1.8448
3786.00,1.8413
3785.00,1.8371
3784.00,1.8321
3783.00,1.8267
3782.00,1.8209
3781.00,1.8148
3780.00,1.8081
3779.00,1.8009
3778.00,1.7933
3777.00,1.7850
3776.00,1.7758
3775.00,1.7660
3774.00,1.7563
3773.00,1.7464
3772.00,1.7357
3771.00,1.7237
3770.00,1.7102
3769.00,1.6955
3768.00,1.6799
3767.00,1.6638
3766.00,1.6473
3765.00,1.6300
3764.00,1.6118
3763.00,1.5929
3762.00,1.5731
3761.00,1.5521
3760.00,1.5298
3759.00,1.5064
3758.00,1.4821
3757.00,1.4569
3756.00,1.4310
3755.00,1.4051
3754.00,1.3788
3753.00,1.3514
3752.00,1.3221
3751.00,1.2903
3750.00,1.2564
3749.00,1.2223
3748.00,1.1899
3747.00,1.1604
3746.00,1.1324
3745.00,1.1034
3744.00,1.0732
3743.00,1.0445
3742.00,1.0195
3741.00,0.9977
3740.00,0.9778
3739.00,0.9594
3738.00,0.9431
3737.00,0.9295
3736.00,0.9185
3735.00,0.9100
3734.00,0.9039
3733.00,0.9004
3732.00,0.8994
3731.00,0.9007
3730.00,0.9042
3729.00,0.9101
3728.00,0.9186
3727.00,0.9297
3726.00,0.9440
3725.00,0.9611
3724.00,0.9800
3723.00,1.0004
3722.00,1.0229
3721.00,1.0480
3720.00,1.0755
3719.00,1.1051
3718.00,1.1361
3717.00,1.1684
3716.00,1.2011
3715.00,1.2298
3714.00,1.2505
3713.00,1.2648
3712.00,1.2824
3711.00,1.3138
3710.00,1.3605
3709.00,1.4141
3708.00,1.4620
3707.00,1.4998
3706.00,1.5296
3705.00,1.5557
3704.00,1.5797
3703.00,1.6025
3702.00,1.6251
3701.00,1.6477
3700.00,1.6703
3699.00,1.6917
3698.00,1.7116
3697.00,1.7297
3696.00,1.7470
3695.00,1.7633
3694.00,1.7791
3693.00,1.7942
3692.00,1.8089
3691.00,1.8231
3690.00,1.8364
3689.00,1.8489
3688.00,1.8596
3687.00,1.8687
3686.00,1.8761
3685.00,1.8832
3684.00,1.8902
3683.00,1.8967
3682.00,1.9025
3681.00,1.9073
3680.00,1.9117
3679.00,1.9153
3678.00,1.9179
3677.00,1.9191
3676.00,1.9194
3675.00,1.9194
3674.00,1.9198
3673.00,1.9204
3672.00,1.9209
3671.00,1.9212
3670.00,1.9211
3669.00,1.9207
3668.00,1.9201
3667.00,1.9195
3666.00,1.9186
3665.00,1.9176
3664.00,1.9158
3663.00,1.9134
3662.00,1.9106
3661.00,1.9075
3660.00,1.9039
3659.00,1.8996
3658.00,1.8943
3657.00,1.8881
3656.00,1.8812
3655.00,1.8739
3654.00,1.8662
3653.00,1.8582
3652.00,1.8499
3651.00,1.8412
3650.00,1.8318
3649.00,1.8212
3648.00,1.8092
3647.00,1.7962
3646.00,1.7832
3645.00,1.7714
3644.00,1.7606
3643.00,1.7498
3642.00,1.7382
3641.00,1.7261
3640.00,1.7136
3639.00,1.7010
3638.00,1.6882
3637.00,1.6755
3636.00,1.6625
3635.00,1.6489
3634.00,1.6351
3633.00,1.6215
3632.00,1.6080
3631.00,1.5943
3630.00,1.5801
3629.00,1.5652
3628.00,1.5499
3627.00,1.5349
3626.00,1.5199
3625.00,1.5044
3624.00,1.4890
3623.00,1.4741
3622.00,1.4607
3621.00,1.4478
3620.00,1.4372
3619.00,1.4242
3618.00,1.4141
3617.00,1.4079
3616.00,1.4011
3615.00,1.3957
3614.00,1.3908
3613.00,1.3875
3612.00,1.3856
3611.00,1.3853
3610.00,1.3865
3609.00,1.3893
3608.00,1.3932
3607.00,1.3980
3606.00,1.4033
3605.00,1.4090
3604.00,1.4153
3603.00,1.4228
3602.00,1.4316
3601.00,1.4420
3600.00,1.4529
3599.00,1.4658
3598.00,1.4764
3597.00,1.4973
3596.00,1.5176
3595.00,1.5318
3594.00,1.5499
3593.00,1.5667
3592.00,1.5843
3591.00,1.6011
3590.00,1.6180
3589.00,1.6352
3588.00,1.6530
3587.00,1.6715
3586.00,1.6897
3585.00,1.7071
3584.00,1.7232
3583.00,1.7386
3582.00,1.7534
3581.00,1.7675
3580.00,1.7815
3579.00,1.7953
3578.00,1.8096
3577.00,1.8240
3576.00,1.8386
3575.00,1.8528
3574.00,1.8671
3573.00,1.8812
3572.00,1.8950
3571.00,1.9079
3570.00,1.9200
3569.00,1.9317
3568.00,1.9431
3567.00,1.9544
3566.00,1.9654
3565.00,1.9758
3564.00,1.9853
3563.00,1.9941
3562.00,2.0024
3561.00,2.0103
3560.00,2.0179
3559.00,2.0252
3558.00,2.0322
3557.00,2.0391
3556.00,2.0456
3555.00,2.0516
3554.00,2.0570
3553.00,2.0624
3552.00,2.0678
3551.00,2.0728
3550.00,2.0771
3549.00,2.0809
3548.00,2.0844
3547.00,2.0876
3546.00,2.0902
3545.00,2.0922
3544.00,2.0934
3543.00,2.0939
3542.00,2.0943
3541.00,2.0949
3540.00,2.0955
3539.00,2.0957
3538.00,2.0951
3537.00,2.0942
3536.00,2.0933
3535.00,2.0922
3534.00,2.0910
3533.00,2.0899
3532.00,2.0888
3531.00,2.0875
3530.00,2.0853
3529.00,2.0819
3528.00,2.0772
3527.00,2.0716
3526.00,2.0658
3525.00,2.0604
3524.00,2.0557
3523.00,2.0515
3522.00,2.0476
3521.00,2.0433
3520.00,2.0382
3519.00,2.0320
3518.00,2.0254
3517.00,2.0188
3516.00,2.0122
3515.00,2.0051
3514.00,1.9975
3513.00,1.9895
3512.00,1.9811
3511.00,1.9725
3510.00,1.9634
3509.00,1.9537
3508.00,1.9436
3507.00,1.9331
3506.00,1.9224
3505.00,1.9117
3504.00,1.9007
3503.00,1.8891
3502.00,1.8770
3501.00,1.8645
3500.00,1.8521
3499.00,1.8396
3498.00,1.8271
3497.00,1.8144
3496.00,1.8016
3495.00,1.7885
3494.00,1.7753
3493.00,1.7623
3492.00,1.7492
3491.00,1.7362
3490.00,1.7233
3489.00,1.7106
3488.00,1.6984
3487.00,1.6865
3486.00,1.6749
3485.00,1.6636
3484.00,1.6527
3483.00,1.6423
3482.00,1.6326
3481.00,1.6238
3480.00,1.6157
3479.00,1.6085
3478.00,1.6021
3477.00,1.5966
3476.00,1.5921
3475.00,1.5887
3474.00,1.5863
3473.00,1.5849
3472.00,1.5843
3471.00,1.5847
3470.00,1.5862
3469.00,1.5888
3468.00,1.5927
3467.00,1.5976
3466.00,1.6034
3465.00,1.6103
3464.00,1.6181
3463.00,1.6268
3462.00,1.6363
3461.00,1.6464
3460.00,1.6571
3459.00,1.6684
3458.00,1.6805
3457.00,1.6932
3456.00,1.7064
3455.00,1.7199
3454.00,1.7338
3453.00,1.7479
3452.00,1.7622
3451.00,1.7765
3450.00,1.7910
3449.00,1.8056
3448.00,1.8204
3447.00,1.8349
3446.00,1.8491
3445.00,1.8628
3444.00,1.8765
3443.00,1.8902
3442.00,1.9041
3441.00,1.9178
3440.00,1.9309
3439.00,1.9434
3438.00,1.9559
3437.00,1.9683
3436.00,1.9804
3435.00,1.9915
3434.00,2.0020
3433.00,2.0123
3432.00,2.0229
3431.00,2.0336
3430.00,2.0437
3429.00,2.0529
3428.00,2.0613
3427.00,2.0690
3426.00,2.0766
3425.00,2.0845
3424.00,2.0922
3423.00,2.0992
3422.00,2.1052
3421.00,2.1108
3420.00,2.1168
3419.00,2.1234
3418.00,2.1302
3417.00,2.1364
3416.00,2.1412
3415.00,2.1444
3414.00,2.1465
3413.00,2.1483
3412.00,2.1503
3411.00,2.1525
3410.00,2.1545
3409.00,2.1562
3408.00,2.1578
3407.00,2.1592
3406.00,2.1602
3405.00,2.1601
3404.00,2.1585
3403.00,2.1558
3402.00,2.1527
3401.00,2.1497
3400.00,2.1466
3399.00,2.1434
3398.00,2.1399
3397.00,2.1360
3396.00,2.1315
3395.00,2.1261
3394.00,2.1200
3393.00,2.1136
3392.00,2.1067
3391.00,2.0993
3390.00,2.0913
3389.00,2.0831
3388.00,2.0747
3387.00,2.0656
3386.00,2.0558
3385.00,2.0454
3384.00,2.0346
3383.00,2.0235
3382.00,2.0121
3381.00,2.0003
3380.00,1.9881
3379.00,1.9753
3378.00,1.9617
3377.00,1.9473
3376.00,1.9323
3375.00,1.9166
3374.00,1.9005
3373.00,1.8839
3372.00,1.8667
3371.00,1.8489
3370.00,1.8309
3369.00,1.8127
3368.00,1.7943
3367.00,1.7753
3366.00,1.7556
3365.00,1.7353
3364.00,1.7150
3363.00,1.6949
3362.00,1.6750
3361.00,1.6552
3360.00,1.6356
3359.00,1.6163
3358.00,1.5974
3357.00,1.5790
3356.00,1.5610
3355.00,1.5436
3354.00,1.5270
3353.00,1.5114
3352.00,1.4972
3351.00,1.4842
3350.00,1.4727
3349.00,1.4627
3348.00,1.4542
3347.00,1.4474
3346.00,1.4423
3345.00,1.4389
3344.00,1.4374
3343.00,1.4377
3342.00,1.4398
3341.00,1.4439
3340.00,1.4497
3339.00,1.4572
3338.00,1.4664
3337.00,1.4773
3336.00,1.4897
3335.00,1.5035
3334.00,1.5185
3333.00,1.5347
3332.00,1.5518
3331.00,1.5696
3330.00,1.5881
3329.00,1.6072
3328.00,1.6269
3327.00,1.6469
3326.00,1.6669
3325.00,1.6869
3324.00,1.7069
3323.00,1.7269
3322.00,1.7470
3321.00,1.7670
3320.00,1.7867
3319.00,1.8059
3318.00,1.8246
3317.00,1.8427
3316.00,1.8604
3315.00,1.8778
3314.00,1.8950
3313.00,1.9120
3312.00,1.9284
3311.00,1.9439
3310.00,1.9585
3309.00,1.9724
3308.00,1.9859
3307.00,1.9991
3306.00,2.0119
3305.00,2.0241
3304.00,2.0356
3303.00,2.0462
3302.00,2.0558
3301.00,2.0648
3300.00,2.0734
3299.00,2.0818
3298.00,2.0900
3297.00,2.0980
3296.00,2.1058
3295.00,2.1132
3294.00,2.1203
3293.00,2.1267
3292.00,2.1321
3291.00,2.1363
3290.00,2.1395
3289.00,2.1423
3288.00,2.1451
3287.00,2.1483
3286.00,2.1517
3285.00,2.1548
3284.00,2.1571
3283.00,2.1583
3282.00,2.1585
3281.00,2.1580
3280.00,2.1570
3279.00,2.1554
3278.00,2.1530
3277.00,2.1502
3276.00,2.1473
3275.00,2.1442
3274.00,2.1407
3273.00,2.1365
3272.00,2.1319
3271.00,2.1274
3270.00,2.1229
3269.00,2.1181
3268.00,2.1120
3267.00,2.1044
3266.00,2.0961
3265.00,2.0878
3264.00,2.0798
3263.00,2.0720
3262.00,2.0639
3261.00,2.0550
3260.00,2.0449
3259.00,2.0336
3258.00,2.0215
3257.00,2.0090
3256.00,1.9966
3255.00,1.9840
3254.00,1.9711
3253.00,1.9576
3252.00,1.9436
3251.00,1.9293
3250.00,1.9150
3249.00,1.9003
3248.00,1.8850
3247.00,1.8688
3246.00,1.8517
3245.00,1.8340
3244.00,1.8162
3243.00,1.7983
3242.00,1.7805
3241.00,1.7628
3240.00,1.7450
3239.00,1.7271
3238.00,1.7093
3237.00,1.6917
3236.00,1.6745
3235.00,1.6576
3234.00,1.6413
3233.00,1.6256
3232.00,1.6107
3231.00,1.5964
3230.00,1.5830
3229.00,1.5706
3228.00,1.5594
3227.00,1.5496
3226.00,1.5410
3225.00,1.5339
3224.00,1.5283
3223.00,1.5245
3222.00,1.5223
3221.00,1.5218
3220.00,1.5228
3219.00,1.5253
3218.00,1.5292
3217.00,1.5347
3216.00,1.5419
3215.00,1.5507
3214.00,1.5611
3213.00,1.5730
3212.00,1.5858
3211.00,1.5996
3210.00,1.6144
3209.00,1.6301
3208.00,1.6467
3207.00,1.6640
3206.00,1.6818
3205.00,1.7000
3204.00,1.7186
3203.00,1.7375
3202.00,1.7567
3201.00,1.7760
3200.00,1.7952
3199.00,1.8143
3198.00,1.8333
3197.00,1.8522
3196.00,1.8710
3195.00,1.8896
3194.00,1.9078
3193.00,1.9255
3192.00,1.9424
3191.00,1.9586
3190.00,1.9745
3189.00,1.9901
3188.00,2.0055
3187.00,2.0205
3186.00,2.0347
3185.00,2.0478
3184.00,2.0601
3183.00,2.0720
3182.00,2.0841
3181.00,2.0964
3180.00,2.1084
3179.00,2.1196
3178.00,2.1298
3177.00,2.1394
3176.00,2.1485
3175.00,2.1569
3174.00,2.1645
3173.00,2.1715
3172.00,2.1781
3171.00,2.1845
3170.00,2.1908
3169.00,2.1965
3168.00,2.2015
3167.00,2.2054
3166.00,2.2085
3165.00,2.2114
3164.00,2.2141
3163.00,2.2168
3162.00,2.2196
3161.00,2.2225
3160.00,2.2248
3159.00,2.2259
3158.00,2.2260
3157.00,2.2255
3156.00,2.2246
3155.00,2.2233
3154.00,2.2212
3153.00,2.2184
3152.00,2.2152
3151.00,2.2117
3150.00,2.2082
3149.00,2.2043
3148.00,2.1999
3147.00,2.1947
3146.00,2.1890
3145.00,2.1831
3144.00,2.1769
3143.00,2.1701
3142.00,2.1621
3141.00,2.1531
3140.00,2.1433
3139.00,2.1333
3138.00,2.1234
3137.00,2.1135
3136.00,2.1029
3135.00,2.0912
3134.00,2.0784
3133.00,2.0648
3132.00,2.0506
3131.00,2.0360
3130.00,2.0212
3129.00,2.0063
3128.00,1.9912
3127.00,1.9754
3126.00,1.9589
3125.00,1.9417
3124.00,1.9242
3123.00,1.9063
3122.00,1.8876
3121.00,1.8684
3120.00,1.8488
3119.00,1.8291
3118.00,1.8095
3117.00,1.7898
3116.00,1.7699
3115.00,1.7499
3114.00,1.7301
3113.00,1.7108
3112.00,1.6924
3111.00,1.6748
3110.00,1.6580
3109.00,1.6423
3108.00,1.6276
3107.00,1.6140
3106.00,1.6018
3105.00,1.5911
3104.00,1.5823
3103.00,1.5755
3102.00,1.5708
3101.00,1.5680
3100.00,1.5671
3099.00,1.5680
3098.00,1.5711
3097.00,1.5763
3096.00,1.5837
3095.00,1.5931
3094.00,1.6044
3093.00,1.6175
3092.00,1.6321
3091.00,1.6479
3090.00,1.6649
3089.00,1.6831
3088.00,1.7022
3087.00,1.7223
3086.00,1.7431
3085.00,1.7645
3084.00,1.7862
3083.00,1.8081
3082.00,1.8300
3081.00,1.8521
3080.00,1.8742
3079.00,1.8960
3078.00,1.9173
3077.00,1.9381
3076.00,1.9586
3075.00,1.9785
3074.00,1.9978
3073.00,2.0162
3072.00,2.0335
3071.00,2.0499
3070.00,2.0662
3069.00,2.0827
3068.00,2.0994
3067.00,2.1153
3066.00,2.1298
3065.00,2.1430
3064.00,2.1553
3063.00,2.1669
3062.00,2.1782
3061.00,2.1891
3060.00,2.1996
3059.00,2.2096
3058.00,2.2192
3057.00,2.2287
3056.00,2.2380
3055.00,2.2468
3054.00,2.2545
3053.00,2.2613
3052.00,2.2670
3051.00,2.2716
3050.00,2.2754
3049.00,2.2785
3048.00,2.2812
3047.00,2.2833
3046.00,2.2847
3045.00,2.2856
3044.00,2.2863
3043.00,2.2864
3042.00,2.2857
3041.00,2.2839
3040.00,2.2807
3039.00,2.2762
3038.00,2.2708
3037.00,2.2654
3036.00,2.2601
3035.00,2.2549
3034.00,2.2489
3033.00,2.2418
3032.00,2.2331
3031.00,2.2227
3030.00,2.2109
3029.00,2.1981
3028.00,2.1847
3027.00,2.1707
3026.00,2.1562
3025.00,2.1411
3024.00,2.1253
3023.00,2.1084
3022.00,2.0902
3021.00,2.0708
3020.00,2.0502
3019.00,2.0288
3018.00,2.0070
3017.00,1.9848
3016.00,1.9621
3015.00,1.9390
3014.00,1.9155
3013.00,1.8920
3012.00,1.8692
3011.00,1.8476
3010.00,1.8281
3009.00,1.8108
3008.00,1.7962
3007.00,1.7844
3006.00,1.7759
3005.00,1.7714
3004.00,1.7714
3003.00,1.7763
3002.00,1.7861
3001.00,1.8007
3000.00,1.8199
2999.00,1.8431
2998.00,1.8702
2997.00,1.9009
2996.00,1.9350
2995.00,1.9717
2994.00,2.0105
2993.00,2.0503
2992.00,2.0907
2991.00,2.1317
2990.00,2.1731
2989.00,2.2145
2988.00,2.2552
2987.00,2.2946
2986.00,2.3328
2985.00,2.3704
2984.00,2.4071
2983.00,2.4427
2982.00,2.4775
2981.00,2.5129
2980.00,2.5502
2979.00,2.5892
2978.00,2.6281
2977.00,2.6660
2976.00,2.7037
2975.00,2.7441
2974.00,2.7905
2973.00,2.8454
2972.00,2.9087
2971.00,2.9773
2970.00,3.0477
2969.00,3.1184
2968.00,3.1924
2967.00,3.2746
2966.00,3.3683
2965.00,3.4693
2964.00,3.5643
2963.00,3.6389
2962.00,3.6960
2961.00,3.7543
2960.00,3.8281
2959.00,3.9200
2958.00,4.0359
2957.00,4.1859
2956.00,4.3592
2955.00,4.4919
2954.00,4.4713
2953.00,4.3646
2952.00,4.2922
2951.00,4.2910
2950.00,4.3582
2949.00,4.4711
2948.00,4.5639
2947.00,4.5524
2946.00,4.5074
2945.00,4.5000
2944.00,4.4835
2943.00,4.4395
2942.00,4.4347
2941.00,4.5928
2940.00,4.9921
2939.00,4.7848
2938.00,4.4763
2937.00,4.2847
2936.00,4.2641
2935.00,4.2879
2934.00,4.3246
2933.00,4.4244
2932.00,4.5748
2931.00,4.7347
2930.00,4.7130
2929.00,4.5535
2928.00,4.4602
2927.00,4.4868
2926.00,4.5756
2925.00,4.6057
2924.00,4.5452
2923.00,4.4558
2922.00,4.3715
2921.00,4.2660
2920.00,4.1330
2919.00,3.9951
2918.00,3.8614
2917.00,3.7305
2916.00,3.6044
2915.00,3.4958
2914.00,3.4156
2913.00,3.3627
2912.00,3.3276
2911.00,3.2988
2910.00,3.2670
2909.00,3.2282
2908.00,3.1848
2907.00,3.1426
2906.00,3.1066
2905.00,3.0784
2904.00,3.0568
2903.00,3.0393
2902.00,3.0220
2901.00,2.9997
2900.00,2.9700
2899.00,2.9366
2898.00,2.9063
2897.00,2.8831
2896.00,2.8662
2895.00,2.8525
2894.00,2.8408
2893.00,2.8317
2892.00,2.8261
2891.00,2.8231
2890.00,2.8217
2889.00,2.8215
2888.00,2.8230
2887.00,2.8270
2886.00,2.8341
2885.00,2.8451
2884.00,2.8603
2883.00,2.8800
2882.00,2.9033
2881.00,2.9289
2880.00,2.9559
2879.00,2.9846
2878.00,3.0172
2877.00,3.0544
2876.00,3.0949
2875.00,3.1372
2874.00,3.1830
2873.00,3.2358
2872.00,3.2970
2871.00,3.3626
2870.00,3.4274
2869.00,3.4915
2868.00,3.5625
2867.00,3.6488
2866.00,3.7509
2865.00,3.8548
2864.00,3.9399
2863.00,3.9948
2862.00,4.0212
2861.00,4.0089
2860.00,3.9340
2859.00,3.8065
2858.00,3.6648
2857.00,3.5322
2856.00,3.4101
2855.00,3.2939
2854.00,3.1831
2853.00,3.0779
2852.00,2.9783
2851.00,2.8851
2850.00,2.8002
2849.00,2.7258
2848.00,2.6624
2847.00,2.6099
2846.00,2.5678
2845.00,2.5358
2844.00,2.5128
2843.00,2.4977
2842.00,2.4891
2841.00,2.4858
2840.00,2.4861
2839.00,2.4881
2838.00,2.4902
2837.00,2.4913
2836.00,2.4914
2835.00,2.4910
2834.00,2.4908
2833.00,2.4907
2832.00,2.4901
2831.00,2.4882
2830.00,2.4851
2829.00,2.4813
2828.00,2.4767
2827.00,2.4708
2826.00,2.4633
2825.00,2.4543
2824.00,2.4442
2823.00,2.4333
2822.00,2.4213
2821.00,2.4076
2820.00,2.3918
2819.00,2.3741
2818.00,2.3554
2817.00,2.3368
2816.00,2.3179
2815.00,2.2973
2814.00,2.2739
2813.00,2.2481
2812.00,2.2212
2811.00,2.1941
2810.00,2.1667
2809.00,2.1385
2808.00,2.1091
2807.00,2.0782
2806.00,2.0457
2805.00,2.0118
2804.00,1.9769
2803.00,1.9416
2802.00,1.9069
2801.00,1.8730
2800.00,1.8402
2799.00,1.8085
2798.00,1.7775
2797.00,1.7469
2796.00,1.7162
2795.00,1.6854
2794.00,1.6548
2793.00,1.6248
2792.00,1.5963
2791.00,1.5700
2790.00,1.5471
2789.00,1.5285
2788.00,1.5150
2787.00,1.5071
2786.00,1.5050
2785.00,1.5087
2784.00,1.5182
2783.00,1.5330
2782.00,1.5525
2781.00,1.5763
2780.00,1.6035
2779.00,1.6335
2778.00,1.6656
2777.00,1.6992
2776.00,1.7337
2775.00,1.7686
2774.00,1.8036
2773.00,1.8384
2772.00,1.8728
2771.00,1.9066
2770.00,1.9393
2769.00,1.9710
2768.00,2.0018
2767.00,2.0316
2766.00,2.0603
2765.00,2.0875
2764.00,2.1129
2763.00,2.1363
2762.00,2.1580
2761.00,2.1783
2760.00,2.1976
2759.00,2.2161
2758.00,2.2339
2757.00,2.2510
2756.00,2.2671
2755.00,2.2825
2754.00,2.2972
2753.00,2.3114
2752.00,2.3247
2751.00,2.3368
2750.00,2.3481
2749.00,2.3588
2748.00,2.3687
2747.00,2.3774
2746.00,2.3849
2745.00,2.3917
2744.00,2.3983
2743.00,2.4046
2742.00,2.4104
2741.00,2.4153
2740.00,2.4189
2739.00,2.4216
2738.00,2.4236
2737.00,2.4252
2736.00,2.4261
2735.00,2.4259
2734.00,2.4248
2733.00,2.4230
2732.00,2.4209
2731.00,2.4185
2730.00,2.4156
2729.00,2.4121
2728.00,2.4078
2727.00,2.4031
2726.00,2.3983
2725.00,2.3933
2724.00,2.3875
2723.00,2.3803
2722.00,2.3717
2721.00,2.3619
2720.00,2.3509
2719.00,2.3388
2718.00,2.3264
2717.00,2.3144
2716.00,2.3026
2715.00,2.2898
2714.00,2.2750
2713.00,2.2581
2712.00,2.2397
2711.00,2.2206
2710.00,2.2010
2709.00,2.1812
2708.00,2.1608
2707.00,2.1395
2706.00,2.1169
2705.00,2.0927
2704.00,2.0668
2703.00,2.0393
2702.00,2.0105
2701.00,1.9805
2700.00,1.9495
2699.00,1.9174
2698.00,1.8844
2697.00,1.8503
2696.00,1.8155
2695.00,1.7799
2694.00,1.7437
2693.00,1.7071
2692.00,1.6708
2691.00,1.6355
2690.00,1.6020
2689.00,1.5710
2688.00,1.5431
2687.00,1.5190
2686.00,1.4993
2685.00,1.4848
2684.00,1.4757
2683.00,1.4722
2682.00,1.4741
2681.00,1.4809
2680.00,1.4920
2679.00,1.5062
2678.00,1.5226
2677.00,1.5402
2676.00,1.5581
2675.00,1.5762
2674.00,1.5946
2673.00,1.6135
2672.00,1.6329
2671.00,1.6525
2670.00,1.6720
2669.00,1.6912
2668.00,1.7101
2667.00,1.7288
2666.00,1.7478
2665.00,1.7677
2664.00,1.7891
2663.00,1.8124
2662.00,1.8378
2661.00,1.8650
2660.00,1.8939
2659.00,1.9237
2658.00,1.9539
2657.00,1.9841
2656.00,2.0139
2655.00,2.0432
2654.00,2.0715
2653.00,2.0987
2652.00,2.1240
2651.00,2.1473
2650.00,2.1690
2649.00,2.1896
2648.00,2.2096
2647.00,2.2290
2646.00,2.2478
2645.00,2.2661
2644.00,2.2840
2643.00,2.3010
2642.00,2.3168
2641.00,2.3312
2640.00,2.3446
2639.00,2.3576
2638.00,2.3700
2637.00,2.3819
2636.00,2.3937
2635.00,2.4055
2634.00,2.4171
2633.00,2.4278
2632.00,2.4368
2631.00,2.4444
2630.00,2.4514
2629.00,2.4584
2628.00,2.4655
2627.00,2.4724
2626.00,2.4787
2625.00,2.4846
2624.00,2.4898
2623.00,2.4943
2622.00,2.4981
2621.00,2.5012
2620.00,2.5036
2619.00,2.5057
2618.00,2.5075
2617.00,2.5088
2616.00,2.5089
2615.00,2.5079
2614.00,2.5061
2613.00,2.5040
2612.00,2.5020
2611.00,2.5001
2610.00,2.4975
2609.00,2.4936
2608.00,2.4883
2607.00,2.4824
2606.00,2.4771
2605.00,2.4727
2604.00,2.4686
2603.00,2.4634
2602.00,2.4562
2601.00,2.4467
2600.00,2.4356
2599.00,2.4240
2598.00,2.4124
2597.00,2.4009
2596.00,2.3888
2595.00,2.3761
2594.00,2.3627
2593.00,2.3485
2592.00,2.3332
2591.00,2.3164
2590.00,2.2984
2589.00,2.2797
2588.00,2.2605
2587.00,2.2404
2586.00,2.2194
2585.00,2.1974
2584.00,2.1745
2583.00,2.1504
2582.00,2.1251
2581.00,2.0987
2580.00,2.0712
2579.00,2.0425
2578.00,2.0124
2577.00,1.9807
2576.00,1.9475
2575.00,1.9127
2574.00,1.8768
2573.00,1.8400
2572.00,1.8027
2571.00,1.7647
2570.00,1.7263
2569.00,1.6876
2568.00,1.6490
2567.00,1.6107
2566.00,1.5732
2565.00,1.5367
2564.00,1.5018
2563.00,1.4692
2562.00,1.4394
2561.00,1.4131
2560.00,1.3909
2559.00,1.3734
2558.00,1.3610
2557.00,1.3541
2556.00,1.3530
2555.00,1.3579
2554.00,1.3686
2553.00,1.3850
2552.00,1.4066
2551.00,1.4331
2550.00,1.4637
2549.00,1.4980
2548.00,1.5353
2547.00,1.5747
2546.00,1.6156
2545.00,1.6572
2544.00,1.6990
2543.00,1.7407
2542.00,1.7819
2541.00,1.8224
2540.00,1.8619
2539.00,1.9003
2538.00,1.9372
2537.00,1.9725
2536.00,2.0065
2535.00,2.0395
2534.00,2.0715
2533.00,2.1022
2532.00,2.1311
2531.00,2.1584
2530.00,2.1842
2529.00,2.2089
2528.00,2.2328
2527.00,2.2560
2526.00,2.2782
2525.00,2.2991
2524.00,2.3188
2523.00,2.3377
2522.00,2.3561
2521.00,2.3736
2520.00,2.3892
2519.00,2.4031
2518.00,2.4161
2517.00,2.4290
2516.00,2.4416
2515.00,2.4532
2514.00,2.4641
2513.00,2.4750
2512.00,2.4863
2511.00,2.4976
2510.00,2.5079
2509.00,2.5168
2508.00,2.5243
2507.00,2.5312
2506.00,2.5380
2505.00,2.5449
2504.00,2.5516
2503.00,2.5580
2502.00,2.5636
2501.00,2.5678
2500.00,2.5702
2499.00,2.5718
2498.00,2.5735
2497.00,2.5759
2496.00,2.5782
2495.00,2.5798
2494.00,2.5803
2493.00,2.5800
2492.00,2.5796
2491.00,2.5795
2490.00,2.5795
2489.00,2.5785
2488.00,2.5757
2487.00,2.5714
2486.00,2.5664
2485.00,2.5609
2484.00,2.5544
2483.00,2.5470
2482.00,2.5397
2481.00,2.5328
2480.00,2.5255
2479.00,2.5169
2478.00,2.5070
2477.00,2.4970
2476.00,2.4875
2475.00,2.4785
2474.00,2.4688
2473.00,2.4574
2472.00,2.4437
2471.00,2.4280
2470.00,2.4114
2469.00,2.3948
2468.00,2.3783
2467.00,2.3619
2466.00,2.3451
2465.00,2.3274
2464.00,2.3082
2463.00,2.2872
2462.00,2.2646
2461.00,2.2408
2460.00,2.2156
2459.00,2.1886
2458.00,2.1598
2457.00,2.1297
2456.00,2.0985
2455.00,2.0663
2454.00,2.0326
2453.00,1.9972
2452.00,1.9598
2451.00,1.9202
2450.00,1.8785
2449.00,1.8351
2448.00,1.7902
2447.00,1.7443
2446.00,1.6978
2445.00,1.6508
2444.00,1.6039
2443.00,1.5578
2442.00,1.5133
2441.00,1.4711
2440.00,1.4320
2439.00,1.3967
2438.00,1.3660
2437.00,1.3408
2436.00,1.3218
2435.00,1.3096
2434.00,1.3046
2433.00,1.3071
2432.00,1.3170
2431.00,1.3340
2430.00,1.3574
2429.00,1.3865
2428.00,1.4205
2427.00,1.4583
2426.00,1.4992
2425.00,1.5423
2424.00,1.5871
2423.00,1.6331
2422.00,1.6798
2421.00,1.7267
2420.00,1.7731
2419.00,1.8185
2418.00,1.8628
2417.00,1.9061
2416.00,1.9479
2415.00,1.9879
2414.00,2.0256
2413.00,2.0612
2412.00,2.0956
2411.00,2.1291
2410.00,2.1616
2409.00,2.1926
2408.00,2.2216
2407.00,2.2488
2406.00,2.2750
2405.00,2.3007
2404.00,2.3257
2403.00,2.3494
2402.00,2.3717
2401.00,2.3924
2400.00,2.4111
2399.00,2.4278
2398.00,2.4437
2397.00,2.4601
2396.00,2.4776
2395.00,2.4959
2394.00,2.5139
2393.00,2.5301
2392.00,2.5442
2391.00,2.5554
2390.00,2.5667
2389.00,2.5773
2388.00,2.5941
2387.00,2.5938
2386.00,2.5985
2385.00,2.6094
2384.00,2.6179
2383.00,2.6276
2382.00,2.6362
2381.00,2.6451
2380.00,2.6529
2379.00,2.6587
2378.00,2.6626
2377.00,2.6663
2376.00,2.6716
2375.00,2.6787
2374.00,2.6866
2373.00,2.6946
2372.00,2.7023
2371.00,2.7091
2370.00,2.7142
2369.00,2.7176
2368.00,2.7199
2367.00,2.7213
2366.00,2.7212
2365.00,2.7190
2364.00,2.7154
2363.00,2.7119
2362.00,2.7086
2361.00,2.7042
2360.00,2.6967
2359.00,2.6869
2358.00,2.6771
2357.00,2.6685
2356.00,2.6599
2355.00,2.6489
2354.00,2.6351
2353.00,2.6193
2352.00,2.6019
2351.00,2.5834
2350.00,2.5650
2349.00,2.5489
2348.00,2.5360
2347.00,2.5257
2346.00,2.5163
2345.00,2.5059
2344.00,2.4934
2343.00,2.4785
2342.00,2.4614
2341.00,2.4430
2340.00,2.4241
2339.00,2.4043
2338.00,2.3829
2337.00,2.3587
2336.00,2.3317
2335.00,2.3026
2334.00,2.2726
2333.00,2.2422
2332.00,2.2120
2331.00,2.1791
2330.00,2.1465
2329.00,2.1072
2328.00,2.0728
2327.00,2.0225
2326.00,2.0438
2325.00,2.0081
2324.00,1.9765
2323.00,2.0028
2322.00,2.0347
2321.00,2.0553
2320.00,2.0486
2319.00,2.0148
2318.00,1.9795
2317.00,1.9210
2316.00,1.8732
2315.00,1.8255
2314.00,1.8255
2313.00,1.8513
2312.00,1.9098
2311.00,1.9587
2310.00,2.0017
2309.00,2.0219
2308.00,2.0394
2307.00,2.0471
2306.00,2.0589
2305.00,2.0637
2304.00,2.0715
2303.00,2.0751
2302.00,2.0876
2301.00,2.1007
2300.00,2.1240
2299.00,2.1438
2298.00,2.1667
2297.00,2.1835
2296.00,2.2027
2295.00,2.2185
2294.00,2.2359
2293.00,2.2518
2292.00,2.2678
2291.00,2.2834
2290.00,2.2983
2289.00,2.3140
2288.00,2.3295
2287.00,2.3463
2286.00,2.3625
2285.00,2.3788
2284.00,2.3929
2283.00,2.4062
2282.00,2.4193
2281.00,2.4362
2280.00,2.4570
2279.00,2.4791
2278.00,2.4987
2277.00,2.5145
2276.00,2.5290
2275.00,2.5433
2274.00,2.5587
2273.00,2.5731
2272.00,2.5862
2271.00,2.5979
2270.00,2.6098
2269.00,2.6221
2268.00,2.6342
2267.00,2.6454
2266.00,2.6563
2265.00,2.6679
2264.00,2.6803
2263.00,2.6921
2262.00,2.7021
2261.00,2.7109
2260.00,2.7185
2259.00,2.7262
2258.00,2.7328
2257.00,2.7381
2256.00,2.7421
2255.00,2.7452
2254.00,2.7486
2253.00,2.7525
2252.00,2.7577
2251.00,2.7627
2250.00,2.7669
2249.00,2.7685
2248.00,2.7677
2247.00,2.7656
2246.00,2.7644
2245.00,2.7645
2244.00,2.7644
2243.00,2.7624
2242.00,2.7583
2241.00,2.7530
2240.00,2.7471
2239.00,2.7413
2238.00,2.7360
2237.00,2.7320
2236.00,2.7285
2235.00,2.7236
2234.00,2.7162
2233.00,2.7068
2232.00,2.6970
2231.00,2.6876
2230.00,2.6784
2229.00,2.6690
2228.00,2.6591
2227.00,2.6484
2226.00,2.6364
2225.00,2.6222
2224.00,2.6057
2223.00,2.5882
2222.00,2.5715
2221.00,2.5561
2220.00,2.5412
2219.00,2.5249
2218.00,2.5063
2217.00,2.4856
2216.00,2.4634
2215.00,2.4402
2214.00,2.4158
2213.00,2.3904
2212.00,2.3641
2211.00,2.3368
2210.00,2.3081
2209.00,2.2779
2208.00,2.2461
2207.00,2.2125
2206.00,2.1768
2205.00,2.1388
2204.00,2.0988
2203.00,2.0568
2202.00,2.0127
2201.00,1.9664
2200.00,1.9177
2199.00,1.8669
2198.00,1.8149
2197.00,1.7625
2196.00,1.7107
2195.00,1.6604
2194.00,1.6126
2193.00,1.5681
2192.00,1.5282
2191.00,1.4937
2190.00,1.4657
2189.00,1.4450
2188.00,1.4321
2187.00,1.4274
2186.00,1.4310
2185.00,1.4428
2184.00,1.4623
2183.00,1.4891
2182.00,1.5222
2181.00,1.5607
2180.00,1.6036
2179.00,1.6494
2178.00,1.6967
2177.00,1.7446
2176.00,1.7921
2175.00,1.8388
2174.00,1.8844
2173.00,1.9288
2172.00,1.9721
2171.00,2.0147
2170.00,2.0564
2169.00,2.0972
2168.00,2.1366
2167.00,2.1745
2166.00,2.2109
2165.00,2.2462
2164.00,2.2806
2163.00,2.3136
2162.00,2.3454
2161.00,2.3760
2160.00,2.4057
2159.00,2.4344
2158.00,2.4617
2157.00,2.4877
2156.00,2.5122
2155.00,2.5354
2154.00,2.5579
2153.00,2.5799
2152.00,2.6007
2151.00,2.6199
2150.00,2.6375
2149.00,2.6539
2148.00,2.6690
2147.00,2.6823
2146.00,2.6943
2145.00,2.7062
2144.00,2.7184
2143.00,2.7304
2142.00,2.7420
2141.00,2.7542
2140.00,2.7671
2139.00,2.7789
2138.00,2.7876
2137.00,2.7934
2136.00,2.7984
2135.00,2.8040
2134.00,2.8100
2133.00,2.8149
2132.00,2.8178
2131.00,2.8193
2130.00,2.8211
2129.00,2.8246
2128.00,2.8290
2127.00,2.8330
2126.00,2.8364
2125.00,2.8401
2124.00,2.8439
2123.00,2.8466
2122.00,2.8475
2121.00,2.8468
2120.00,2.8451
2119.00,2.8418
2118.00,2.8372
2117.00,2.8326
2116.00,2.8293
2115.00,2.8271
2114.00,2.8245
2113.00,2.8200
2112.00,2.8132
2111.00,2.8047
2110.00,2.7962
2109.00,2.7887
2108.00,2.7811
2107.00,2.7714
2106.00,2.7595
2105.00,2.7479
2104.00,2.7386
2103.00,2.7306
2102.00,2.7211
2101.00,2.7088
2100.00,2.6939
2099.00,2.6778
2098.00,2.6608
2097.00,2.6436
2096.00,2.6264
2095.00,2.6088
2094.00,2.5902
2093.00,2.5701
2092.00,2.5486
2091.00,2.5259
2090.00,2.5017
2089.00,2.4759
2088.00,2.4487
2087.00,2.4202
2086.00,2.3903
2085.00,2.3587
2084.00,2.3250
2083.00,2.2884
2082.00,2.2491
2081.00,2.2071
2080.00,2.1626
2079.00,2.1160
2078.00,2.0676
2077.00,2.0179
2076.00,1.9669
2075.00,1.9147
2074.00,1.8621
2073.00,1.8107
2072.00,1.7625
2071.00,1.7183
2070.00,1.6785
2069.00,1.6436
2068.00,1.6143
2067.00,1.5910
2066.00,1.5733
2065.00,1.5612
2064.00,1.5548
2063.00,1.5540
2062.00,1.5586
2061.00,1.5683
2060.00,1.5830
2059.00,1.6028
2058.00,1.6282
2057.00,1.6591
2056.00,1.6954
2055.00,1.7365
2054.00,1.7819
2053.00,1.8309
2052.00,1.8822
2051.00,1.9348
2050.00,1.9875
2049.00,2.0396
2048.00,2.0907
2047.00,2.1401
2046.00,2.1875
2045.00,2.2327
2044.00,2.2754
2043.00,2.3159
2042.00,2.3546
2041.00,2.3918
2040.00,2.4271
2039.00,2.4602
2038.00,2.4916
2037.00,2.5215
2036.00,2.5497
2035.00,2.5756
2034.00,2.5997
2033.00,2.6230
2032.00,2.6456
2031.00,2.6667
2030.00,2.6860
2029.00,2.7045
2028.00,2.7224
2027.00,2.7388
2026.00,2.7535
2025.00,2.7676
2024.00,2.7825
2023.00,2.7980
2022.00,2.8127
2021.00,2.8254
2020.00,2.8359
2019.00,2.8445
2018.00,2.8523
2017.00,2.8606
2016.00,2.8697
2015.00,2.8786
2014.00,2.8865
2013.00,2.8935
2012.00,2.9002
2011.00,2.9070
2010.00,2.9139
2009.00,2.9210
2008.00,2.9273
2007.00,2.9317
2006.00,2.9339
2005.00,2.9349
2004.00,2.9349
2003.00,2.9337
2002.00,2.9311
2001.00,2.9283
2000.00,2.9263
1999.00,2.9247
1998.00,2.9234
1997.00,2.9225
1996.00,2.9224
1995.00,2.9216
1994.00,2.9185
1993.00,2.9127
1992.00,2.9056
1991.00,2.8986
1990.00,2.8918
1989.00,2.8841
1988.00,2.8749
1987.00,2.8651
1986.00,2.8567
1985.00,2.8500
1984.00,2.8436
1983.00,2.8356
1982.00,2.8248
1981.00,2.8118
1980.00,2.7982
1979.00,2.7851
1978.00,2.7726
1977.00,2.7591
1976.00,2.7434
1975.00,2.7253
1974.00,2.7066
1973.00,2.6884
1972.00,2.6696
1971.00,2.6481
1970.00,2.6236
1969.00,2.5974
1968.00,2.5708
1967.00,2.5438
1966.00,2.5154
1965.00,2.4850
1964.00,2.4523
1963.00,2.4170
1962.00,2.3793
1961.00,2.3392
1960.00,2.2969
1959.00,2.2520
1958.00,2.2049
1957.00,2.1557
1956.00,2.1044
1955.00,2.0512
1954.00,1.9969
1953.00,1.9427
1952.00,1.8895
1951.00,1.8377
1950.00,1.7883
1949.00,1.7424
1948.00,1.7012
1947.00,1.6656
1946.00,1.6365
1945.00,1.6144
1944.00,1.6001
1943.00,1.5945
1942.00,1.5980
1941.00,1.6105
1940.00,1.6310
1939.00,1.6588
1938.00,1.6938
1937.00,1.7362
1936.00,1.7852
1935.00,1.8391
1934.00,1.8962
1933.00,1.9549
1932.00,2.0138
1931.00,2.0718
1930.00,2.1287
1929.00,2.1840
1928.00,2.2372
1927.00,2.2879
1926.00,2.3356
1925.00,2.3801
1924.00,2.4216
1923.00,2.4608
1922.00,2.4985
1921.00,2.5345
1920.00,2.5687
1919.00,2.6018
1918.00,2.6351
1917.00,2.6677
1916.00,2.6964
1915.00,2.7194
1914.00,2.7385
1913.00,2.7567
1912.00,2.7752
1911.00,2.7936
1910.00,2.8115
1909.00,2.8291
1908.00,2.8463
1907.00,2.8627
1906.00,2.8785
1905.00,2.8943
1904.00,2.9103
1903.00,2.9250
1902.00,2.9371
1901.00,2.9469
1900.00,2.9566
1899.00,2.9670
1898.00,2.9768
1897.00,2.9842
1896.00,2.9904
1895.00,2.9979
1894.00,3.0074
1893.00,3.0166
1892.00,3.0229
1891.00,3.0272
1890.00,3.0329
1889.00,3.0417
1888.00,3.0515
1887.00,3.0577
1886.00,3.0572
1885.00,3.0509
1884.00,3.0430
1883.00,3.0363
1882.00,3.0305
1881.00,3.0240
1880.00,3.0173
1879.00,3.0129
1878.00,3.0123
1877.00,3.0143
1876.00,3.0153
1875.00,3.0121
1874.00,3.0030
1873.00,2.9893
1872.00,2.9741
1871.00,2.9613
1870.00,2.9531
1869.00,2.9484
1868.00,2.9434
1867.00,2.9337
1866.00,2.9184
1865.00,2.8995
1864.00,2.8802
1863.00,2.8620
1862.00,2.8434
1861.00,2.8220
1860.00,2.7977
1859.00,2.7719
1858.00,2.7451
1857.00,2.7168
1856.00,2.6869
1855.00,2.6557
1854.00,2.6229
1853.00,2.5873
1852.00,2.5484
1851.00,2.5060
1850.00,2.4602
1849.00,2.4110
1848.00,2.3591
1847.00,2.3048
1846.00,2.2476
1845.00,2.1880
1844.00,2.1281
1843.00,2.0689
1842.00,2.0083
1841.00,1.9459
1840.00,1.8868
1839.00,1.8362
1838.00,1.7966
1837.00,1.7689
1836.00,1.7537
1835.00,1.7518
1834.00,1.7630
1833.00,1.7863
1832.00,1.8215
1831.00,1.8704
1830.00,1.9331
1829.00,2.0041
1828.00,2.0734
1827.00,2.1357
1826.00,2.1950
1825.00,2.2577
1824.00,2.3240
1823.00,2.3875
1822.00,2.4438
1821.00,2.4955
1820.00,2.5463
1819.00,2.5966
1818.00,2.6446
1817.00,2.6895
1816.00,2.7318
1815.00,2.7717
1814.00,2.8080
1813.00,2.8396
1812.00,2.8670
1811.00,2.8929
1810.00,2.9193
1809.00,2.9441
1808.00,2.9632
1807.00,2.9757
1806.00,2.9866
1805.00,3.0006
1804.00,3.0173
1803.00,3.0334
1802.00,3.0479
1801.00,3.0631
1800.00,3.0801
1799.00,3.0968
1798.00,3.1103
1797.00,3.1197
1796.00,3.1262
1795.00,3.1312
1794.00,3.1360
1793.00,3.1422
1792.00,3.1504
1791.00,3.1570
1790.00,3.1563
1789.00,3.1484
1788.00,3.1391
1787.00,3.1346
1786.00,3.1365
1785.00,3.1403
1784.00,3.1389
1783.00,3.1284
1782.00,3.1104
1781.00,3.0895
1780.00,3.0694
1779.00,3.0510
1778.00,3.0326
1777.00,3.0116
1776.00,2.9873
1775.00,2.9618
1774.00,2.9379
1773.00,2.9196
1772.00,2.9105
1771.00,2.9081
1770.00,2.9040
1769.00,2.8936
1768.00,2.8780
1767.00,2.8601
1766.00,2.8411
1765.00,2.8216
1764.00,2.8042
1763.00,2.7937
1762.00,2.7948
1761.00,2.8077
1760.00,2.8276
1759.00,2.8519
1758.00,2.8844
1757.00,2.9308
1756.00,2.9915
1755.00,3.0596
1754.00,3.1266
1753.00,3.1890
1752.00,3.2489
1751.00,3.3106
1750.00,3.3782
1749.00,3.4521
1748.00,3.5284
1747.00,3.6009
1746.00,3.6627
1745.00,3.7122
1744.00,3.7559
1743.00,3.8069
1742.00,3.8787
1741.00,3.9756
1740.00,4.0782
1739.00,4.1519
1738.00,4.2075
1737.00,4.2780
1736.00,4.3281
1735.00,4.3257
1734.00,4.3439
1733.00,4.4342
1732.00,4.5706
1731.00,4.6542
1730.00,4.5726
1729.00,4.4476
1728.00,4.4043
1727.00,4.4672
1726.00,4.5668
1725.00,4.5850
1724.00,4.6399
1723.00,4.8534
1722.00,5.1691
1721.00,5.2209
1720.00,4.9528
1719.00,4.7524
1718.00,4.6103
1717.00,4.5073
1716.00,4.4605
1715.00,4.4587
1714.00,4.5121
1713.00,4.6224
1712.00,4.7070
1711.00,4.6570
1710.00,4.7783
1709.00,5.1560
1708.00,4.8367
1707.00,4.7987
1706.00,5.2099
1705.00,4.9829
1704.00,4.7410
1703.00,4.6937
1702.00,4.7813
1701.00,5.0771
1700.00,4.7818
1699.00,4.5562
1698.00,4.6032
1697.00,4.8660
1696.00,5.0844
1695.00,4.6446
1694.00,4.4105
1693.00,4.2768
1692.00,4.1660
1691.00,4.0765
1690.00,3.9965
1689.00,3.9326
1688.00,3.8746
1687.00,3.8083
1686.00,3.7229
1685.00,3.6313
1684.00,3.5599
1683.00,3.5135
1682.00,3.4735
1681.00,3.4282
1680.00,3.3825
1679.00,3.3468
1678.00,3.3290
1677.00,3.3288
1676.00,3.3353
1675.00,3.3365
1674.00,3.3278
1673.00,3.3108
1672.00,3.2955
1671.00,3.2948
1670.00,3.3108
1669.00,3.3343
1668.00,3.3511
1667.00,3.3516
1666.00,3.3395
1665.00,3.3275
1664.00,3.3243
1663.00,3.3308
1662.00,3.3402
1661.00,3.3423
1660.00,3.3321
1659.00,3.3132
1658.00,3.2926
1657.00,3.2763
1656.00,3.2652
1655.00,3.2536
1654.00,3.2391
1653.00,3.2314
1652.00,3.2317
1651.00,3.2171
1650.00,3.1894
1649.00,3.1797
1648.00,3.1807
1647.00,3.1653
1646.00,3.1309
1645.00,3.0880
1644.00,3.0437
1643.00,3.0032
1642.00,2.9710
1641.00,2.9426
1640.00,2.9138
1639.00,2.8884
1638.00,2.8692
1637.00,2.8538
1636.00,2.8402
1635.00,2.8282
1634.00,2.8109
1633.00,2.7759
1632.00,2.7249
1631.00,2.6709
1630.00,2.6195
1629.00,2.5733
1628.00,2.5342
1627.00,2.5014
1626.00,2.4725
1625.00,2.4487
1624.00,2.4350
1623.00,2.4340
1622.00,2.4411
1621.00,2.4486
1620.00,2.4554
1619.00,2.4664
1618.00,2.4856
1617.00,2.5158
1616.00,2.5578
1615.00,2.6043
1614.00,2.6478
1613.00,2.6891
1612.00,2.7302
1611.00,2.7701
1610.00,2.8089
1609.00,2.8472
1608.00,2.8841
1607.00,2.9165
1606.00,2.9436
1605.00,2.9684
1604.00,2.9952
1603.00,3.0250
1602.00,3.0546
1601.00,3.0804
1600.00,3.1017
1599.00,3.1182
1598.00,3.1300
1597.00,3.1397
1596.00,3.1514
1595.00,3.1675
1594.00,3.1873
1593.00,3.2084
1592.00,3.2280
1591.00,3.2427
1590.00,3.2503
1589.00,3.2523
1588.00,3.2520
1587.00,3.2510
1586.00,3.2505
1585.00,3.2527
1584.00,3.2596
1583.00,3.2693
1582.00,3.2763
1581.00,3.2769
1580.00,3.2739
1579.00,3.2701
1578.00,3.2635
1577.00,3.2520
1576.00,3.2406
1575.00,3.2368
1574.00,3.2411
1573.00,3.2506
1572.00,3.2633
1571.00,3.2756
1570.00,3.2860
1569.00,3.2922
1568.00,3.2857
1567.00,3.2626
1566.00,3.2329
1565.00,3.2105
1564.00,3.1975
1563.00,3.1851
1562.00,3.1646
1561.00,3.1372
1560.00,3.1146
1559.00,3.1151
1558.00,3.1258
1557.00,3.1197
1556.00,3.0854
1555.00,3.0330
1554.00,2.9809
1553.00,2.9344
1552.00,2.8943
1551.00,2.8571
1550.00,2.8191
1549.00,2.7792
1548.00,2.7380
1547.00,2.6943
1546.00,2.6477
1545.00,2.6008
1544.00,2.5543
1543.00,2.5060
1542.00,2.4547
1541.00,2.3982
1540.00,2.3327
1539.00,2.2579
1538.00,2.1814
1537.00,2.1092
1536.00,2.0533
1535.00,2.0190
1534.00,2.0006
1533.00,1.9954
1532.00,1.9977
1531.00,2.0015
1530.00,2.0104
1529.00,2.0339
1528.00,2.0764
1527.00,2.1334
1526.00,2.1984
1525.00,2.2675
1524.00,2.3370
1523.00,2.4035
1522.00,2.4684
1521.00,2.5349
1520.00,2.6011
1519.00,2.6619
1518.00,2.7187
1517.00,2.7741
1516.00,2.8235
1515.00,2.8634
1514.00,2.8969
1513.00,2.9297
1512.00,2.9643
1511.00,2.9983
1510.00,3.0279
1509.00,3.0511
1508.00,3.0704
1507.00,3.0957
1506.00,3.1389
1505.00,3.1947
1504.00,3.2289
1503.00,3.2358
1502.00,3.2425
1501.00,3.2530
1500.00,3.2628
1499.00,3.2722
1498.00,3.2847
1497.00,3.3021
1496.00,3.3230
1495.00,3.3422
1494.00,3.3545
1493.00,3.3600
1492.00,3.3619
1491.00,3.3647
1490.00,3.3704
1489.00,3.3755
1488.00,3.3772
1487.00,3.3794
1486.00,3.3850
1485.00,3.3909
1484.00,3.3924
1483.00,3.3914
1482.00,3.3960
1481.00,3.4098
1480.00,3.4258
1479.00,3.4328
1478.00,3.4262
1477.00,3.4101
1476.00,3.3905
1475.00,3.3697
1474.00,3.3499
1473.00,3.3357
1472.00,3.3295
1471.00,3.3276
1470.00,3.3244
1469.00,3.3204
1468.00,3.3221
1467.00,3.3339
1466.00,3.3564
1465.00,3.3858
1464.00,3.4140
1463.00,3.4319
1462.00,3.4360
1461.00,3.4298
1460.00,3.4187
1459.00,3.4089
1458.00,3.4127
1457.00,3.4465
1456.00,3.5170
1455.00,3.6086
1454.00,3.7056
1453.00,3.8187
1452.00,3.9545
1451.00,4.0781
1450.00,4.1367
1449.00,4.1472
1448.00,4.1694
1447.00,4.2082
1446.00,4.2012
1445.00,4.1048
1444.00,3.9609
1443.00,3.8212
1442.00,3.7073
1441.00,3.6223
1440.00,3.5637
1439.00,3.5295
1438.00,3.5192
1437.00,3.5341
1436.00,3.5718
1435.00,3.6216
1434.00,3.6734
1433.00,3.7217
1432.00,3.7559
1431.00,3.7685
1430.00,3.7711
1429.00,3.7811
1428.00,3.8037
1427.00,3.8332
1426.00,3.8629
1425.00,3.8949
1424.00,3.9275
1423.00,3.9474
1422.00,3.9490
1421.00,3.9223
1420.00,3.8645
1419.00,3.8029
1418.00,3.7541
1417.00,3.7116
1416.00,3.6667
1415.00,3.6158
1414.00,3.5589
1413.00,3.4960
1412.00,3.4276
1411.00,3.3588
1410.00,3.2967
1409.00,3.2439
1408.00,3.1974
1407.00,3.1533
1406.00,3.1086
1405.00,3.0624
1404.00,3.0159
1403.00,2.9726
1402.00,2.9354
1401.00,2.9065
1400.00,2.8868
1399.00,2.8740
1398.00,2.8617
1397.00,2.8445
1396.00,2.8246
1395.00,2.8099
1394.00,2.8068
1393.00,2.8146
1392.00,2.8270
1391.00,2.8406
1390.00,2.8562
1389.00,2.8746
1388.00,2.8965
1387.00,2.9229
1386.00,2.9542
1385.00,2.9896
1384.00,3.0278
1383.00,3.0673
1382.00,3.1083
1381.00,3.1508
1380.00,3.1919
1379.00,3.2260
1378.00,3.2498
1377.00,3.2675
1376.00,3.2879
1375.00,3.3162
1374.00,3.3497
1373.00,3.3806
1372.00,3.4026
1371.00,3.4154
1370.00,3.4254
1369.00,3.4402
1368.00,3.4631
1367.00,3.4902
1366.00,3.5144
1365.00,3.5352
1364.00,3.5597
1363.00,3.5910
1362.00,3.6198
1361.00,3.6347
1360.00,3.6383
1359.00,3.6398
1358.00,3.6380
1357.00,3.6271
1356.00,3.6139
1355.00,3.6171
1354.00,3.6446
1353.00,3.6857
1352.00,3.7298
1351.00,3.7780
1350.00,3.8313
1349.00,3.8843
1348.00,3.9342
1347.00,3.9726
1346.00,3.9792
1345.00,3.9430
1344.00,3.8776
1343.00,3.8175
1342.00,3.7841
1341.00,3.7640
1340.00,3.7405
1339.00,3.7256
1338.00,3.7342
1337.00,3.7530
1336.00,3.7517
1335.00,3.7228
1334.00,3.6884
1333.00,3.6686
1332.00,3.6667
1331.00,3.6761
1330.00,3.6864
1329.00,3.6848
1328.00,3.6666
1327.00,3.6439
1326.00,3.6295
1325.00,3.6189
1324.00,3.6005
1323.00,3.5773
1322.00,3.5663
1321.00,3.5788
1320.00,3.6135
1319.00,3.6675
1318.00,3.7468
1317.00,3.8599
1316.00,3.9963
1315.00,4.1230
1314.00,4.2389
1313.00,4.3622
1312.00,4.4353
1311.00,4.3903
1310.00,4.3020
1309.00,4.2236
1308.00,4.1363
1307.00,4.0371
1306.00,3.9428
1305.00,3.8647
1304.00,3.8084
1303.00,3.7722
1302.00,3.7484
1301.00,3.7281
1300.00,3.7068
1299.00,3.6839
1298.00,3.6580
1297.00,3.6247
1296.00,3.5811
1295.00,3.5295
1294.00,3.4762
1293.00,3.4245
1292.00,3.3738
1291.00,3.3229
1290.00,3.2721
1289.00,3.2231
1288.00,3.1797
1287.00,3.1444
1286.00,3.1154
1285.00,3.0869
1284.00,3.0549
1283.00,3.0207
1282.00,2.9887
1281.00,2.9617
1280.00,2.9409
1279.00,2.9282
1278.00,2.9250
1277.00,2.9310
1276.00,2.9439
1275.00,2.9630
1274.00,2.9907
1273.00,3.0295
1272.00,3.0780
1271.00,3.1312
1270.00,3.1845
1269.00,3.2354
1268.00,3.2810
1267.00,3.3154
1266.00,3.3370
1265.00,3.3530
1264.00,3.3723
1263.00,3.3963
1262.00,3.4170
1261.00,3.4266
1260.00,3.4298
1259.00,3.4397
1258.00,3.4641
1257.00,3.5008
1256.00,3.5416
1255.00,3.5803
1254.00,3.6154
1253.00,3.6439
1252.00,3.6585
1251.00,3.6567
1250.00,3.6482
1249.00,3.6451
1248.00,3.6526
1247.00,3.6708
1246.00,3.6996
1245.00,3.7440
1244.00,3.8030
1243.00,3.8587
1242.00,3.8934
1241.00,3.9140
1240.00,3.9176
1239.00,3.8865
1238.00,3.8453
1237.00,3.8242
1236.00,3.8316
1235.00,3.8799
1234.00,3.9967
1233.00,4.2129
1232.00,4.5195
1231.00,4.8525
1230.00,4.9099
1229.00,4.6012
1228.00,4.4839
1227.00,4.4635
1226.00,4.4621
1225.00,4.4853
1224.00,4.6345
1223.00,4.8903
1222.00,4.6149
1221.00,4.3435
1220.00,4.1427
1219.00,4.0315
1218.00,3.9963
1217.00,3.9734
1216.00,3.9483
1215.00,3.9670
1214.00,4.0475
1213.00,4.1435
1212.00,4.1533
1211.00,4.0646
1210.00,3.9782
1209.00,3.9297
1208.00,3.9013
1207.00,3.8772
1206.00,3.8523
1205.00,3.8199
1204.00,3.7781
1203.00,3.7401
1202.00,3.7217
1201.00,3.7260
1200.00,3.7493
1199.00,3.7927
1198.00,3.8538
1197.00,3.9052
1196.00,3.9181
1195.00,3.9178
1194.00,3.9428
1193.00,3.9773
1192.00,3.9746
1191.00,3.9390
1190.00,3.9170
1189.00,3.9359
1188.00,3.9957
1187.00,4.0698
1186.00,4.0760
1185.00,4.0143
1184.00,3.9527
1183.00,3.9033
1182.00,3.8744
1181.00,3.8599
1180.00,3.8358
1179.00,3.8018
1178.00,3.7838
1177.00,3.7892
1176.00,3.7927
1175.00,3.7810
1174.00,3.7818
1173.00,3.8250
1172.00,3.9039
1171.00,3.9674
1170.00,3.9692
1169.00,3.9221
1168.00,3.8442
1167.00,3.7587
1166.00,3.7021
1165.00,3.6907
1164.00,3.7131
1163.00,3.7292
1162.00,3.6994
1161.00,3.6350
1160.00,3.5773
1159.00,3.5488
1158.00,3.5463
1157.00,3.5498
1156.00,3.5372
1155.00,3.5055
1154.00,3.4654
1153.00,3.4241
1152.00,3.3911
1151.00,3.3713
1150.00,3.3597
1149.00,3.3472
1148.00,3.3297
1147.00,3.3121
1146.00,3.3035
1145.00,3.3090
1144.00,3.3272
1143.00,3.3554
1142.00,3.3932
1141.00,3.4411
1140.00,3.4927
1139.00,3.5320
1138.00,3.5468
1137.00,3.5463
1136.00,3.5549
1135.00,3.5867
1134.00,3.6330
1133.00,3.6803
1132.00,3.7301
1131.00,3.7956
1130.00,3.8741
1129.00,3.8964
1128.00,3.8553
1127.00,3.8440
1126.00,3.9018
1125.00,4.0341
1124.00,4.2231
1123.00,4.3668
1122.00,4.3363
1121.00,4.2685
1120.00,4.2884
1119.00,4.4079
1118.00,4.5275
1117.00,4.4645
1116.00,4.3180
1115.00,4.1871
1114.00,4.0816
1113.00,3.9958
1112.00,3.8834
1111.00,3.7498
1110.00,3.6564
1109.00,3.6218
1108.00,3.6296
1107.00,3.6537
1106.00,3.6710
1105.00,3.6695
1104.00,3.6601
1103.00,3.6674
1102.00,3.7010
1101.00,3.7486
1100.00,3.7998
1099.00,3.8635
1098.00,3.9505
1097.00,4.0427
1096.00,4.0807
1095.00,4.0556
1094.00,4.0348
1093.00,4.0589
1092.00,4.1345
1091.00,4.2251
1090.00,4.2433
1089.00,4.2189
1088.00,4.2039
1087.00,4.1722
1086.00,4.1248
1085.00,4.1074
1084.00,4.1375
1083.00,4.1989
1082.00,4.3171
1081.00,4.5640
1080.00,5.1309
1079.00,4.4875
1078.00,4.1662
1077.00,4.0316
1076.00,4.0079
1075.00,4.0498
1074.00,4.1129
1073.00,4.1618
1072.00,4.1912
1071.00,4.2224
1070.00,4.2571
1069.00,4.2157
1068.00,4.1142
1067.00,4.0739
1066.00,4.1131
1065.00,4.2046
1064.00,4.3108
1063.00,4.3758
1062.00,4.3898
1061.00,4.3828
1060.00,4.2770
1059.00,4.1295
1058.00,4.0768
1057.00,4.1566
1056.00,4.3044
1055.00,4.3275
1054.00,4.2969
1053.00,4.2312
1052.00,4.1762
1051.00,4.1783
1050.00,4.2079
1049.00,4.3121
1048.00,4.4835
1047.00,4.3142
1046.00,4.1484
1045.00,4.1008
1044.00,4.1053
1043.00,4.0908
1042.00,4.0342
1041.00,3.9673
1040.00,3.9233
1039.00,3.9160
1038.00,3.9440
1037.00,3.9847
1036.00,3.9942
1035.00,3.9520
1034.00,3.8895
1033.00,3.8385
1032.00,3.8029
1031.00,3.7801
1030.00,3.7740
1029.00,3.7844
1028.00,3.7956
1027.00,3.7905
1026.00,3.7667
1025.00,3.7417
1024.00,3.7369
1023.00,3.7526
1022.00,3.7837
1021.00,3.8380
1020.00,3.9096
1019.00,3.9574
1018.00,3.9824
1017.00,4.0353
1016.00,4.1124
1015.00,4.0618
1014.00,3.8770
1013.00,3.7327
1012.00,3.6590
1011.00,3.6334
1010.00,3.6188
1009.00,3.5856
1008.00,3.5346
1007.00,3.4901
1006.00,3.4752
1005.00,3.4996
1004.00,3.5595
1003.00,3.6381
1002.00,3.7145
1001.00,3.7850
1000.00,3.8567
999.00,3.9156
998.00,3.9372
997.00,3.9342
996.00,3.9551
995.00,4.0217
994.00,4.0966
993.00,4.1465
992.00,4.2174
991.00,4.3381
990.00,4.4341
989.00,4.5881
988.00,4.9212
987.00,4.3754
986.00,4.1553
985.00,4.0355
984.00,3.9225
983.00,3.8642
982.00,3.8882
981.00,3.9822
980.00,4.1023
979.00,4.2002
978.00,4.2591
977.00,4.2303
976.00,4.1731
975.00,4.2093
974.00,4.3743
973.00,4.5227
972.00,4.4443
971.00,4.3619
970.00,4.3333
969.00,4.3969
968.00,4.6639
967.00,5.2951
966.00,4.8178
965.00,4.4412
964.00,4.2182
963.00,4.1653
962.00,4.2322
961.00,4.3901
960.00,4.7057
959.00,4.8359
958.00,4.7285
957.00,5.1881
956.00,4.4503
955.00,4.1075
954.00,3.9757
953.00,3.9620
952.00,4.0195
951.00,4.0818
950.00,4.0563
949.00,3.9737
948.00,3.9260
947.00,3.9674
946.00,4.1231
945.00,4.3998
944.00,4.9115
943.00,4.6662
942.00,4.3073
941.00,4.2711
940.00,4.5672
939.00,4.8184
938.00,4.4055
937.00,4.3364
936.00,4.3532
935.00,4.3343
934.00,4.3037
933.00,4.3190
932.00,4.4199
931.00,4.5876
930.00,4.7060
929.00,4.7529
928.00,4.6709
927.00,4.6221
926.00,4.6525
925.00,4.4134
924.00,4.1813
923.00,4.0607
922.00,4.0643
921.00,4.1989
920.00,4.3251
919.00,4.2844
918.00,4.2059
917.00,4.1274
916.00,4.1062
915.00,4.1782
914.00,4.3089
913.00,4.3489
912.00,4.2908
911.00,4.1863
910.00,4.0954
909.00,4.1113
908.00,4.2443
907.00,4.4384
906.00,4.6743
905.00,4.7694
904.00,4.4842
903.00,4.2630
902.00,4.1979
901.00,4.2306
900.00,4.2139
899.00,4.1249
898.00,3.9937
897.00,3.8536
896.00,3.7642
895.00,3.7436
894.00,3.7860
893.00,3.8822
892.00,3.9861
891.00,3.9561
890.00,3.8511
889.00,3.8027
888.00,3.8142
887.00,3.8606
886.00,3.9413
885.00,4.0757
884.00,4.1961
883.00,4.1647
882.00,4.0608
881.00,3.9745
880.00,3.9609
879.00,4.0515
878.00,4.2279
877.00,4.4943
876.00,5.1242
875.00,4.6708
874.00,4.3301
873.00,4.1639
872.00,4.0588
871.00,4.0078
870.00,3.9825
869.00,3.9452
868.00,3.9203
867.00,3.9642
866.00,4.1083
865.00,4.3650
864.00,4.5321
863.00,4.2791
862.00,4.0059
861.00,3.8844
860.00,3.8907
859.00,4.1024
858.00,4.8679
857.00,4.2332
856.00,4.0522
855.00,4.0984
854.00,4.2845
853.00,4.6202
852.00,4.7171
851.00,4.3748
850.00,4.0569
849.00,3.8624
848.00,3.7950
847.00,3.8329
846.00,3.8441
845.00,3.7478
844.00,3.6969
843.00,3.7548
842.00,3.9128
841.00,4.1088
840.00,4.1341
839.00,4.0199
838.00,3.9570
837.00,4.0027
836.00,4.1400
835.00,4.4289
834.00,5.1900
833.00,4.4295
832.00,4.2055
831.00,3.9861
830.00,3.8181
829.00,3.7964
828.00,3.9043
827.00,4.1346
826.00,4.3977
825.00,4.4660
824.00,4.3769
823.00,4.3900
822.00,4.7225
821.00,4.7598
820.00,4.2993
819.00,4.1770
818.00,4.1232
817.00,4.1266
816.00,4.3627
815.00,4.4176
814.00,4.1038
813.00,4.0450
812.00,4.1965
811.00,4.4859
810.00,4.3378
809.00,4.1275
808.00,4.0704
807.00,4.0943
806.00,4.1825
805.00,4.3027
804.00,4.3924
803.00,4.3333
802.00,4.1400
801.00,3.9476
800.00,3.8062
799.00,3.7195
798.00,3.6897
797.00,3.7180
796.00,3.8004
795.00,3.9167
794.00,4.0025
793.00,3.9861
792.00,3.9157
791.00,3.8809
790.00,3.9165
789.00,4.0298
788.00,4.2121
787.00,4.4065
786.00,4.5147
785.00,4.5426
784.00,4.5688
783.00,4.4712
782.00,4.2246
781.00,4.0369
780.00,3.9356
779.00,3.8975
778.00,3.9034
777.00,3.9257
776.00,3.9582
775.00,4.0616
774.00,4.2876
773.00,4.5247
772.00,4.5597
771.00,4.2654
770.00,3.9649
769.00,3.8052
768.00,3.7327
767.00,3.6953
766.00,3.6758
765.00,3.6944
764.00,3.7796
763.00,3.9366
762.00,4.0959
761.00,4.1402
760.00,4.1934
759.00,4.2949
758.00,4.1999
757.00,4.0019
756.00,3.8483
755.00,3.7718
754.00,3.7870
753.00,3.8837
752.00,3.9705
751.00,3.9789
750.00,3.9821
749.00,4.2166
748.00,4.5026
747.00,4.0496
746.00,4.0187
745.00,4.1437
744.00,4.0647
743.00,4.0510
742.00,4.1980
741.00,4.4797
740.00,4.4676
739.00,4.2213
738.00,4.0649
737.00,3.9930
736.00,3.9771
735.00,3.9747
734.00,3.9579
733.00,3.9332
732.00,3.9162
731.00,3.9191
730.00,3.9406
729.00,3.9757
728.00,4.0417
727.00,4.1737
726.00,4.3092
725.00,4.3808
724.00,4.4426
723.00,4.4657
722.00,4.5429
721.00,4.5053
720.00,4.3767
719.00,4.3053
718.00,4.2378
717.00,4.2019
716.00,4.1150
715.00,4.0352
714.00,4.0971
713.00,4.4195
712.00,5.0391
711.00,4.6982
710.00,4.4108
709.00,4.2089
708.00,4.0876
707.00,4.0612
706.00,4.0821
705.00,4.2311
704.00,4.6364
703.00,4.3694
702.00,4.0492
701.00,3.9830
700.00,4.0736
