Created as New Dataset,Sample 074 By Administrator Date Wednesday, November 24 2021
cm-1,A
7502.00,1.0185
7501.00,1.0276
7500.00,1.0354
7499.00,1.0415
7498.00,1.0465
7497.00,1.0512
7496.00,1.0562
7495.00,1.0614
7494.00,1.0668
7493.00,1.0728
7492.00,1.0799
7491.00,1.0878
7490.00,1.0957
7489.00,1.1024
7488.00,1.1073
7487.00,1.1105
7486.00,1.1125
7485.00,1.1138
7484.00,1.1144
7483.00,1.1141
7482.00,1.1130
7481.00,1.1114
7480.00,1.1100
7479.00,1.1091
7478.00,1.1087
7477.00,1.1082
7476.00,1.1077
7475.00,1.1073
7474.00,1.1072
7473.00,1.1072
7472.00,1.1067
7471.00,1.1052
7470.00,1.1022
7469.00,1.0979
7468.00,1.0931
7467.00,1.0885
7466.00,1.0841
7465.00,1.0790
7464.00,1.0726
7463.00,1.0649
7462.00,1.0565
7461.00,1.0479
7460.00,1.0389
7459.00,1.0296
7458.00,1.0204
7457.00,1.0124
7456.00,1.0062
7455.00,1.0017
7454.00,0.9980
7453.00,0.9940
7452.00,0.9893
7451.00,0.9838
7450.00,0.9781
7449.00,0.9725
7448.00,0.9671
7447.00,0.9620
7446.00,0.9570
7445.00,0.9520
7444.00,0.9467
7443.00,0.9411
7442.00,0.9349
7441.00,0.9279
7440.00,0.9202
7439.00,0.9122
7438.00,0.9044
7437.00,0.8969
7436.00,0.8900
7435.00,0.8834
7434.00,0.8766
7433.00,0.8694
7432.00,0.8618
7431.00,0.8543
7430.00,0.8475
7429.00,0.8410
7428.00,0.8348
7427.00,0.8290
7426.00,0.8236
7425.00,0.8186
7424.00,0.8136
7423.00,0.8084
7422.00,0.8032
7421.00,0.7982
7420.00,0.7930
7419.00,0.7878
7418.00,0.7828
7417.00,0.7786
7416.00,0.7751
7415.00,0.7723
7414.00,0.7700
7413.00,0.7684
7412.00,0.7677
7411.00,0.7676
7410.00,0.7678
7409.00,0.7684
7408.00,0.7695
7407.00,0.7713
7406.00,0.7736
7405.00,0.7763
7404.00,0.7795
7403.00,0.7831
7402.00,0.7874
7401.00,0.7921
7400.00,0.7972
7399.00,0.8026
7398.00,0.8084
7397.00,0.8146
7396.00,0.8216
7395.00,0.8289
7394.00,0.8364
7393.00,0.8441
7392.00,0.8522
7391.00,0.8608
7390.00,0.8699
7389.00,0.8793
7388.00,0.8891
7387.00,0.8992
7386.00,0.9096
7385.00,0.9196
7384.00,0.9293
7383.00,0.9391
7382.00,0.9494
7381.00,0.9599
7380.00,0.9702
7379.00,0.9804
7378.00,0.9908
7377.00,1.0017
7376.00,1.0126
7375.00,1.0229
7374.00,1.0322
7373.00,1.0410
7372.00,1.0495
7371.00,1.0578
7370.00,1.0654
7369.00,1.0726
7368.00,1.0800
7367.00,1.0878
7366.00,1.0956
7365.00,1.1029
7364.00,1.1097
7363.00,1.1166
7362.00,1.1235
7361.00,1.1300
7360.00,1.1359
7359.00,1.1411
7358.00,1.1463
7357.00,1.1520
7356.00,1.1576
7355.00,1.1624
7354.00,1.1655
7353.00,1.1676
7352.00,1.1695
7351.00,1.1716
7350.00,1.1737
7349.00,1.1756
7348.00,1.1773
7347.00,1.1788
7346.00,1.1797
7345.00,1.1799
7344.00,1.1802
7343.00,1.1811
7342.00,1.1824
7341.00,1.1830
7340.00,1.1827
7339.00,1.1819
7338.00,1.1806
7337.00,1.1782
7336.00,1.1739
7335.00,1.1678
7334.00,1.1612
7333.00,1.1554
7332.00,1.1504
7331.00,1.1457
7330.00,1.1405
7329.00,1.1348
7328.00,1.1285
7327.00,1.1213
7326.00,1.1131
7325.00,1.1047
7324.00,1.0968
7323.00,1.0893
7322.00,1.0817
7321.00,1.0735
7320.00,1.0647
7319.00,1.0557
7318.00,1.0463
7317.00,1.0364
7316.00,1.0261
7315.00,1.0159
7314.00,1.0060
7313.00,0.9964
7312.00,0.9870
7311.00,0.9776
7310.00,0.9679
7309.00,0.9575
7308.00,0.9467
7307.00,0.9357
7306.00,0.9249
7305.00,0.9143
7304.00,0.9042
7303.00,0.8950
7302.00,0.8866
7301.00,0.8783
7300.00,0.8697
7299.00,0.8609
7298.00,0.8522
7297.00,0.8441
7296.00,0.8365
7295.00,0.8292
7294.00,0.8223
7293.00,0.8159
7292.00,0.8102
7291.00,0.8050
7290.00,0.8000
7289.00,0.7950
7288.00,0.7904
7287.00,0.7868
7286.00,0.7843
7285.00,0.7825
7284.00,0.7812
7283.00,0.7805
7282.00,0.7807
7281.00,0.7816
7280.00,0.7828
7279.00,0.7841
7278.00,0.7857
7277.00,0.7876
7276.00,0.7900
7275.00,0.7931
7274.00,0.7969
7273.00,0.8016
7272.00,0.8072
7271.00,0.8135
7270.00,0.8200
7269.00,0.8267
7268.00,0.8335
7267.00,0.8408
7266.00,0.8485
7265.00,0.8562
7264.00,0.8641
7263.00,0.8723
7262.00,0.8813
7261.00,0.8908
7260.00,0.9002
7259.00,0.9094
7258.00,0.9185
7257.00,0.9275
7256.00,0.9367
7255.00,0.9462
7254.00,0.9560
7253.00,0.9658
7252.00,0.9753
7251.00,0.9845
7250.00,0.9937
7249.00,1.0027
7248.00,1.0115
7247.00,1.0199
7246.00,1.0281
7245.00,1.0363
7244.00,1.0446
7243.00,1.0528
7242.00,1.0609
7241.00,1.0688
7240.00,1.0764
7239.00,1.0836
7238.00,1.0904
7237.00,1.0970
7236.00,1.1033
7235.00,1.1091
7234.00,1.1145
7233.00,1.1198
7232.00,1.1248
7231.00,1.1294
7230.00,1.1332
7229.00,1.1368
7228.00,1.1405
7227.00,1.1446
7226.00,1.1485
7225.00,1.1515
7224.00,1.1534
7223.00,1.1546
7222.00,1.1560
7221.00,1.1579
7220.00,1.1595
7219.00,1.1604
7218.00,1.1604
7217.00,1.1603
7216.00,1.1600
7215.00,1.1591
7214.00,1.1572
7213.00,1.1544
7212.00,1.1514
7211.00,1.1486
7210.00,1.1459
7209.00,1.1428
7208.00,1.1392
7207.00,1.1354
7206.00,1.1319
7205.00,1.1284
7204.00,1.1246
7203.00,1.1201
7202.00,1.1151
7201.00,1.1098
7200.00,1.1043
7199.00,1.0982
7198.00,1.0913
7197.00,1.0836
7196.00,1.0754
7195.00,1.0670
7194.00,1.0588
7193.00,1.0506
7192.00,1.0425
7191.00,1.0344
7190.00,1.0264
7189.00,1.0183
7188.00,1.0097
7187.00,1.0005
7186.00,0.9906
7185.00,0.9803
7184.00,0.9699
7183.00,0.9596
7182.00,0.9493
7181.00,0.9392
7180.00,0.9291
7179.00,0.9192
7178.00,0.9096
7177.00,0.9004
7176.00,0.8915
7175.00,0.8825
7174.00,0.8736
7173.00,0.8649
7172.00,0.8565
7171.00,0.8485
7170.00,0.8408
7169.00,0.8333
7168.00,0.8263
7167.00,0.8197
7166.00,0.8136
7165.00,0.8079
7164.00,0.8026
7163.00,0.7977
7162.00,0.7934
7161.00,0.7895
7160.00,0.7858
7159.00,0.7824
7158.00,0.7797
7157.00,0.7779
7156.00,0.7770
7155.00,0.7769
7154.00,0.7772
7153.00,0.7781
7152.00,0.7795
7151.00,0.7813
7150.00,0.7835
7149.00,0.7863
7148.00,0.7896
7147.00,0.7938
7146.00,0.7987
7145.00,0.8044
7144.00,0.8106
7143.00,0.8171
7142.00,0.8238
7141.00,0.8310
7140.00,0.8385
7139.00,0.8463
7138.00,0.8544
7137.00,0.8629
7136.00,0.8718
7135.00,0.8809
7134.00,0.8900
7133.00,0.8992
7132.00,0.9089
7131.00,0.9192
7130.00,0.9298
7129.00,0.9404
7128.00,0.9505
7127.00,0.9604
7126.00,0.9704
7125.00,0.9806
7124.00,0.9911
7123.00,1.0018
7122.00,1.0125
7121.00,1.0231
7120.00,1.0336
7119.00,1.0436
7118.00,1.0527
7117.00,1.0611
7116.00,1.0690
7115.00,1.0770
7114.00,1.0854
7113.00,1.0939
7112.00,1.1023
7111.00,1.1103
7110.00,1.1180
7109.00,1.1250
7108.00,1.1317
7107.00,1.1384
7106.00,1.1453
7105.00,1.1521
7104.00,1.1584
7103.00,1.1639
7102.00,1.1688
7101.00,1.1732
7100.00,1.1770
7099.00,1.1805
7098.00,1.1840
7097.00,1.1875
7096.00,1.1906
7095.00,1.1930
7094.00,1.1950
7093.00,1.1968
7092.00,1.1985
7091.00,1.1997
7090.00,1.2004
7089.00,1.2006
7088.00,1.2004
7087.00,1.1998
7086.00,1.1986
7085.00,1.1971
7084.00,1.1951
7083.00,1.1929
7082.00,1.1905
7081.00,1.1876
7080.00,1.1843
7079.00,1.1802
7078.00,1.1756
7077.00,1.1704
7076.00,1.1646
7075.00,1.1585
7074.00,1.1522
7073.00,1.1460
7072.00,1.1395
7071.00,1.1323
7070.00,1.1242
7069.00,1.1156
7068.00,1.1069
7067.00,1.0980
7066.00,1.0888
7065.00,1.0795
7064.00,1.0702
7063.00,1.0610
7062.00,1.0519
7061.00,1.0424
7060.00,1.0324
7059.00,1.0218
7058.00,1.0109
7057.00,0.9998
7056.00,0.9888
7055.00,0.9777
7054.00,0.9664
7053.00,0.9552
7052.00,0.9443
7051.00,0.9337
7050.00,0.9231
7049.00,0.9124
7048.00,0.9019
7047.00,0.8920
7046.00,0.8827
7045.00,0.8737
7044.00,0.8648
7043.00,0.8561
7042.00,0.8480
7041.00,0.8407
7040.00,0.8337
7039.00,0.8269
7038.00,0.8202
7037.00,0.8137
7036.00,0.8077
7035.00,0.8020
7034.00,0.7969
7033.00,0.7923
7032.00,0.7883
7031.00,0.7852
7030.00,0.7829
7029.00,0.7816
7028.00,0.7810
7027.00,0.7807
7026.00,0.7808
7025.00,0.7814
7024.00,0.7826
7023.00,0.7846
7022.00,0.7872
7021.00,0.7906
7020.00,0.7945
7019.00,0.7989
7018.00,0.8040
7017.00,0.8096
7016.00,0.8156
7015.00,0.8219
7014.00,0.8287
7013.00,0.8361
7012.00,0.8441
7011.00,0.8524
7010.00,0.8611
7009.00,0.8698
7008.00,0.8786
7007.00,0.8876
7006.00,0.8969
7005.00,0.9065
7004.00,0.9163
7003.00,0.9262
7002.00,0.9366
7001.00,0.9473
7000.00,0.9581
6999.00,0.9687
6998.00,0.9790
6997.00,0.9893
6996.00,0.9996
6995.00,1.0096
6994.00,1.0192
6993.00,1.0285
6992.00,1.0379
6991.00,1.0473
6990.00,1.0564
6989.00,1.0651
6988.00,1.0734
6987.00,1.0817
6986.00,1.0900
6985.00,1.0982
6984.00,1.1063
6983.00,1.1142
6982.00,1.1218
6981.00,1.1293
6980.00,1.1365
6979.00,1.1432
6978.00,1.1491
6977.00,1.1541
6976.00,1.1587
6975.00,1.1637
6974.00,1.1691
6973.00,1.1743
6972.00,1.1785
6971.00,1.1815
6970.00,1.1841
6969.00,1.1867
6968.00,1.1891
6967.00,1.1907
6966.00,1.1917
6965.00,1.1925
6964.00,1.1934
6963.00,1.1943
6962.00,1.1946
6961.00,1.1939
6960.00,1.1922
6959.00,1.1900
6958.00,1.1878
6957.00,1.1858
6956.00,1.1839
6955.00,1.1817
6954.00,1.1790
6953.00,1.1756
6952.00,1.1715
6951.00,1.1666
6950.00,1.1613
6949.00,1.1556
6948.00,1.1494
6947.00,1.1430
6946.00,1.1366
6945.00,1.1305
6944.00,1.1242
6943.00,1.1171
6942.00,1.1091
6941.00,1.1006
6940.00,1.0922
6939.00,1.0836
6938.00,1.0746
6937.00,1.0652
6936.00,1.0554
6935.00,1.0457
6934.00,1.0361
6933.00,1.0264
6932.00,1.0164
6931.00,1.0059
6930.00,0.9953
6929.00,0.9848
6928.00,0.9742
6927.00,0.9635
6926.00,0.9526
6925.00,0.9416
6924.00,0.9306
6923.00,0.9197
6922.00,0.9089
6921.00,0.8985
6920.00,0.8883
6919.00,0.8783
6918.00,0.8686
6917.00,0.8593
6916.00,0.8505
6915.00,0.8420
6914.00,0.8338
6913.00,0.8260
6912.00,0.8188
6911.00,0.8121
6910.00,0.8060
6909.00,0.8003
6908.00,0.7952
6907.00,0.7904
6906.00,0.7860
6905.00,0.7820
6904.00,0.7786
6903.00,0.7759
6902.00,0.7739
6901.00,0.7723
6900.00,0.7714
6899.00,0.7711
6898.00,0.7717
6897.00,0.7732
6896.00,0.7753
6895.00,0.7780
6894.00,0.7815
6893.00,0.7856
6892.00,0.7901
6891.00,0.7948
6890.00,0.7997
6889.00,0.8051
6888.00,0.8110
6887.00,0.8174
6886.00,0.8246
6885.00,0.8325
6884.00,0.8412
6883.00,0.8503
6882.00,0.8597
6881.00,0.8693
6880.00,0.8792
6879.00,0.8892
6878.00,0.8994
6877.00,0.9097
6876.00,0.9200
6875.00,0.9306
6874.00,0.9413
6873.00,0.9521
6872.00,0.9629
6871.00,0.9736
6870.00,0.9845
6869.00,0.9956
6868.00,1.0067
6867.00,1.0174
6866.00,1.0275
6865.00,1.0374
6864.00,1.0473
6863.00,1.0572
6862.00,1.0667
6861.00,1.0760
6860.00,1.0854
6859.00,1.0950
6858.00,1.1045
6857.00,1.1134
6856.00,1.1218
6855.00,1.1297
6854.00,1.1373
6853.00,1.1444
6852.00,1.1511
6851.00,1.1573
6850.00,1.1633
6849.00,1.1692
6848.00,1.1749
6847.00,1.1801
6846.00,1.1849
6845.00,1.1899
6844.00,1.1951
6843.00,1.2001
6842.00,1.2041
6841.00,1.2071
6840.00,1.2096
6839.00,1.2120
6838.00,1.2141
6837.00,1.2156
6836.00,1.2167
6835.00,1.2176
6834.00,1.2184
6833.00,1.2189
6832.00,1.2185
6831.00,1.2174
6830.00,1.2158
6829.00,1.2136
6828.00,1.2109
6827.00,1.2076
6826.00,1.2039
6825.00,1.2000
6824.00,1.1958
6823.00,1.1912
6822.00,1.1861
6821.00,1.1809
6820.00,1.1757
6819.00,1.1703
6818.00,1.1640
6817.00,1.1567
6816.00,1.1487
6815.00,1.1403
6814.00,1.1319
6813.00,1.1232
6812.00,1.1142
6811.00,1.1048
6810.00,1.0951
6809.00,1.0854
6808.00,1.0755
6807.00,1.0654
6806.00,1.0549
6805.00,1.0441
6804.00,1.0331
6803.00,1.0218
6802.00,1.0104
6801.00,0.9988
6800.00,0.9872
6799.00,0.9757
6798.00,0.9644
6797.00,0.9533
6796.00,0.9422
6795.00,0.9312
6794.00,0.9203
6793.00,0.9094
6792.00,0.8986
6791.00,0.8879
6790.00,0.8777
6789.00,0.8680
6788.00,0.8587
6787.00,0.8496
6786.00,0.8408
6785.00,0.8326
6784.00,0.8250
6783.00,0.8178
6782.00,0.8110
6781.00,0.8047
6780.00,0.7992
6779.00,0.7942
6778.00,0.7899
6777.00,0.7861
6776.00,0.7828
6775.00,0.7801
6774.00,0.7781
6773.00,0.7767
6772.00,0.7760
6771.00,0.7758
6770.00,0.7764
6769.00,0.7779
6768.00,0.7801
6767.00,0.7828
6766.00,0.7860
6765.00,0.7898
6764.00,0.7944
6763.00,0.7997
6762.00,0.8054
6761.00,0.8116
6760.00,0.8184
6759.00,0.8257
6758.00,0.8336
6757.00,0.8418
6756.00,0.8504
6755.00,0.8593
6754.00,0.8686
6753.00,0.8783
6752.00,0.8882
6751.00,0.8984
6750.00,0.9086
6749.00,0.9189
6748.00,0.9292
6747.00,0.9396
6746.00,0.9503
6745.00,0.9611
6744.00,0.9720
6743.00,0.9828
6742.00,0.9939
6741.00,1.0050
6740.00,1.0158
6739.00,1.0262
6738.00,1.0362
6737.00,1.0461
6736.00,1.0559
6735.00,1.0654
6734.00,1.0744
6733.00,1.0832
6732.00,1.0921
6731.00,1.1011
6730.00,1.1101
6729.00,1.1187
6728.00,1.1268
6727.00,1.1346
6726.00,1.1422
6725.00,1.1495
6724.00,1.1562
6723.00,1.1624
6722.00,1.1681
6721.00,1.1734
6720.00,1.1784
6719.00,1.1833
6718.00,1.1880
6717.00,1.1924
6716.00,1.1962
6715.00,1.1992
6714.00,1.2017
6713.00,1.2038
6712.00,1.2054
6711.00,1.2064
6710.00,1.2069
6709.00,1.2072
6708.00,1.2073
6707.00,1.2070
6706.00,1.2060
6705.00,1.2042
6704.00,1.2018
6703.00,1.1992
6702.00,1.1965
6701.00,1.1936
6700.00,1.1904
6699.00,1.1871
6698.00,1.1841
6697.00,1.1810
6696.00,1.1774
6695.00,1.1729
6694.00,1.1676
6693.00,1.1617
6692.00,1.1553
6691.00,1.1484
6690.00,1.1407
6689.00,1.1326
6688.00,1.1247
6687.00,1.1170
6686.00,1.1095
6685.00,1.1018
6684.00,1.0937
6683.00,1.0852
6682.00,1.0764
6681.00,1.0671
6680.00,1.0569
6679.00,1.0462
6678.00,1.0352
6677.00,1.0242
6676.00,1.0131
6675.00,1.0019
6674.00,0.9907
6673.00,0.9796
6672.00,0.9686
6671.00,0.9574
6670.00,0.9462
6669.00,0.9352
6668.00,0.9243
6667.00,0.9136
6666.00,0.9028
6665.00,0.8920
6664.00,0.8814
6663.00,0.8713
6662.00,0.8617
6661.00,0.8525
6660.00,0.8437
6659.00,0.8353
6658.00,0.8272
6657.00,0.8193
6656.00,0.8115
6655.00,0.8042
6654.00,0.7977
6653.00,0.7919
6652.00,0.7867
6651.00,0.7819
6650.00,0.7778
6649.00,0.7746
6648.00,0.7721
6647.00,0.7701
6646.00,0.7686
6645.00,0.7678
6644.00,0.7676
6643.00,0.7680
6642.00,0.7689
6641.00,0.7705
6640.00,0.7729
6639.00,0.7760
6638.00,0.7798
6637.00,0.7843
6636.00,0.7895
6635.00,0.7953
6634.00,0.8016
6633.00,0.8085
6632.00,0.8159
6631.00,0.8239
6630.00,0.8323
6629.00,0.8412
6628.00,0.8504
6627.00,0.8600
6626.00,0.8700
6625.00,0.8803
6624.00,0.8908
6623.00,0.9015
6622.00,0.9123
6621.00,0.9234
6620.00,0.9347
6619.00,0.9463
6618.00,0.9579
6617.00,0.9697
6616.00,0.9813
6615.00,0.9925
6614.00,1.0033
6613.00,1.0138
6612.00,1.0242
6611.00,1.0345
6610.00,1.0450
6609.00,1.0557
6608.00,1.0666
6607.00,1.0773
6606.00,1.0878
6605.00,1.0980
6604.00,1.1080
6603.00,1.1175
6602.00,1.1266
6601.00,1.1349
6600.00,1.1426
6599.00,1.1499
6598.00,1.1570
6597.00,1.1639
6596.00,1.1705
6595.00,1.1771
6594.00,1.1837
6593.00,1.1903
6592.00,1.1966
6591.00,1.2020
6590.00,1.2065
6589.00,1.2106
6588.00,1.2144
6587.00,1.2181
6586.00,1.2213
6585.00,1.2240
6584.00,1.2262
6583.00,1.2280
6582.00,1.2298
6581.00,1.2317
6580.00,1.2332
6579.00,1.2341
6578.00,1.2343
6577.00,1.2341
6576.00,1.2330
6575.00,1.2310
6574.00,1.2281
6573.00,1.2246
6572.00,1.2211
6571.00,1.2178
6570.00,1.2144
6569.00,1.2106
6568.00,1.2062
6567.00,1.2013
6566.00,1.1960
6565.00,1.1901
6564.00,1.1837
6563.00,1.1769
6562.00,1.1699
6561.00,1.1628
6560.00,1.1554
6559.00,1.1472
6558.00,1.1385
6557.00,1.1293
6556.00,1.1196
6555.00,1.1096
6554.00,1.0992
6553.00,1.0888
6552.00,1.0782
6551.00,1.0674
6550.00,1.0562
6549.00,1.0448
6548.00,1.0329
6547.00,1.0206
6546.00,1.0083
6545.00,0.9962
6544.00,0.9844
6543.00,0.9727
6542.00,0.9610
6541.00,0.9495
6540.00,0.9381
6539.00,0.9267
6538.00,0.9153
6537.00,0.9039
6536.00,0.8926
6535.00,0.8816
6534.00,0.8709
6533.00,0.8607
6532.00,0.8509
6531.00,0.8416
6530.00,0.8329
6529.00,0.8247
6528.00,0.8169
6527.00,0.8096
6526.00,0.8028
6525.00,0.7965
6524.00,0.7909
6523.00,0.7857
6522.00,0.7813
6521.00,0.7776
6520.00,0.7747
6519.00,0.7725
6518.00,0.7711
6517.00,0.7703
6516.00,0.7702
6515.00,0.7707
6514.00,0.7718
6513.00,0.7737
6512.00,0.7764
6511.00,0.7799
6510.00,0.7843
6509.00,0.7894
6508.00,0.7951
6507.00,0.8012
6506.00,0.8076
6505.00,0.8146
6504.00,0.8221
6503.00,0.8300
6502.00,0.8385
6501.00,0.8477
6500.00,0.8576
6499.00,0.8676
6498.00,0.8778
6497.00,0.8882
6496.00,0.8989
6495.00,0.9099
6494.00,0.9211
6493.00,0.9325
6492.00,0.9440
6491.00,0.9557
6490.00,0.9673
6489.00,0.9788
6488.00,0.9901
6487.00,1.0012
6486.00,1.0122
6485.00,1.0231
6484.00,1.0339
6483.00,1.0447
6482.00,1.0554
6481.00,1.0660
6480.00,1.0764
6479.00,1.0866
6478.00,1.0965
6477.00,1.1061
6476.00,1.1152
6475.00,1.1236
6474.00,1.1319
6473.00,1.1402
6472.00,1.1486
6471.00,1.1567
6470.00,1.1642
6469.00,1.1712
6468.00,1.1778
6467.00,1.1839
6466.00,1.1895
6465.00,1.1946
6464.00,1.1995
6463.00,1.2041
6462.00,1.2085
6461.00,1.2126
6460.00,1.2163
6459.00,1.2196
6458.00,1.2224
6457.00,1.2247
6456.00,1.2265
6455.00,1.2280
6454.00,1.2290
6453.00,1.2295
6452.00,1.2291
6451.00,1.2280
6450.00,1.2263
6449.00,1.2242
6448.00,1.2219
6447.00,1.2193
6446.00,1.2166
6445.00,1.2140
6444.00,1.2114
6443.00,1.2085
6442.00,1.2051
6441.00,1.2012
6440.00,1.1967
6439.00,1.1917
6438.00,1.1863
6437.00,1.1805
6436.00,1.1741
6435.00,1.1671
6434.00,1.1595
6433.00,1.1515
6432.00,1.1434
6431.00,1.1351
6430.00,1.1266
6429.00,1.1177
6428.00,1.1084
6427.00,1.0987
6426.00,1.0889
6425.00,1.0790
6424.00,1.0686
6423.00,1.0576
6422.00,1.0464
6421.00,1.0352
6420.00,1.0239
6419.00,1.0120
6418.00,0.9998
6417.00,0.9875
6416.00,0.9754
6415.00,0.9634
6414.00,0.9515
6413.00,0.9396
6412.00,0.9279
6411.00,0.9162
6410.00,0.9048
6409.00,0.8937
6408.00,0.8827
6407.00,0.8719
6406.00,0.8613
6405.00,0.8511
6404.00,0.8415
6403.00,0.8323
6402.00,0.8236
6401.00,0.8152
6400.00,0.8074
6399.00,0.8003
6398.00,0.7938
6397.00,0.7880
6396.00,0.7829
6395.00,0.7783
6394.00,0.7743
6393.00,0.7710
6392.00,0.7683
6391.00,0.7663
6390.00,0.7652
6389.00,0.7650
6388.00,0.7655
6387.00,0.7668
6386.00,0.7687
6385.00,0.7712
6384.00,0.7742
6383.00,0.7780
6382.00,0.7825
6381.00,0.7878
6380.00,0.7939
6379.00,0.8005
6378.00,0.8078
6377.00,0.8156
6376.00,0.8239
6375.00,0.8328
6374.00,0.8424
6373.00,0.8525
6372.00,0.8629
6371.00,0.8735
6370.00,0.8842
6369.00,0.8952
6368.00,0.9064
6367.00,0.9181
6366.00,0.9301
6365.00,0.9424
6364.00,0.9549
6363.00,0.9674
6362.00,0.9796
6361.00,0.9915
6360.00,1.0030
6359.00,1.0143
6358.00,1.0255
6357.00,1.0369
6356.00,1.0482
6355.00,1.0594
6354.00,1.0707
6353.00,1.0820
6352.00,1.0930
6351.00,1.1035
6350.00,1.1136
6349.00,1.1238
6348.00,1.1339
6347.00,1.1435
6346.00,1.1524
6345.00,1.1609
6344.00,1.1692
6343.00,1.1774
6342.00,1.1853
6341.00,1.1928
6340.00,1.1999
6339.00,1.2068
6338.00,1.2129
6337.00,1.2181
6336.00,1.2227
6335.00,1.2271
6334.00,1.2315
6333.00,1.2362
6332.00,1.2409
6331.00,1.2452
6330.00,1.2488
6329.00,1.2517
6328.00,1.2536
6327.00,1.2550
6326.00,1.2560
6325.00,1.2570
6324.00,1.2578
6323.00,1.2582
6322.00,1.2579
6321.00,1.2569
6320.00,1.2553
6319.00,1.2530
6318.00,1.2501
6317.00,1.2466
6316.00,1.2427
6315.00,1.2386
6314.00,1.2343
6313.00,1.2299
6312.00,1.2254
6311.00,1.2204
6310.00,1.2148
6309.00,1.2085
6308.00,1.2018
6307.00,1.1948
6306.00,1.1874
6305.00,1.1795
6304.00,1.1711
6303.00,1.1622
6302.00,1.1527
6301.00,1.1426
6300.00,1.1319
6299.00,1.1209
6298.00,1.1098
6297.00,1.0987
6296.00,1.0873
6295.00,1.0754
6294.00,1.0631
6293.00,1.0506
6292.00,1.0379
6291.00,1.0250
6290.00,1.0121
6289.00,0.9992
6288.00,0.9863
6287.00,0.9734
6286.00,0.9605
6285.00,0.9477
6284.00,0.9350
6283.00,0.9225
6282.00,0.9103
6281.00,0.8985
6280.00,0.8870
6279.00,0.8757
6278.00,0.8649
6277.00,0.8546
6276.00,0.8446
6275.00,0.8349
6274.00,0.8258
6273.00,0.8173
6272.00,0.8093
6271.00,0.8016
6270.00,0.7946
6269.00,0.7885
6268.00,0.7830
6267.00,0.7781
6266.00,0.7739
6265.00,0.7707
6264.00,0.7683
6263.00,0.7667
6262.00,0.7658
6261.00,0.7656
6260.00,0.7662
6259.00,0.7674
6258.00,0.7694
6257.00,0.7722
6256.00,0.7758
6255.00,0.7802
6254.00,0.7853
6253.00,0.7913
6252.00,0.7980
6251.00,0.8053
6250.00,0.8131
6249.00,0.8214
6248.00,0.8301
6247.00,0.8394
6246.00,0.8492
6245.00,0.8593
6244.00,0.8697
6243.00,0.8804
6242.00,0.8915
6241.00,0.9030
6240.00,0.9148
6239.00,0.9268
6238.00,0.9387
6237.00,0.9507
6236.00,0.9626
6235.00,0.9744
6234.00,0.9862
6233.00,0.9980
6232.00,1.0099
6231.00,1.0220
6230.00,1.0341
6229.00,1.0460
6228.00,1.0575
6227.00,1.0685
6226.00,1.0791
6225.00,1.0894
6224.00,1.0994
6223.00,1.1092
6222.00,1.1189
6221.00,1.1284
6220.00,1.1376
6219.00,1.1465
6218.00,1.1551
6217.00,1.1635
6216.00,1.1715
6215.00,1.1791
6214.00,1.1863
6213.00,1.1931
6212.00,1.1997
6211.00,1.2059
6210.00,1.2119
6209.00,1.2173
6208.00,1.2220
6207.00,1.2259
6206.00,1.2295
6205.00,1.2331
6204.00,1.2363
6203.00,1.2388
6202.00,1.2407
6201.00,1.2422
6200.00,1.2436
6199.00,1.2445
6198.00,1.2449
6197.00,1.2447
6196.00,1.2443
6195.00,1.2439
6194.00,1.2434
6193.00,1.2424
6192.00,1.2410
6191.00,1.2392
6190.00,1.2370
6189.00,1.2342
6188.00,1.2305
6187.00,1.2260
6186.00,1.2212
6185.00,1.2164
6184.00,1.2115
6183.00,1.2061
6182.00,1.2001
6181.00,1.1936
6180.00,1.1870
6179.00,1.1801
6178.00,1.1729
6177.00,1.1654
6176.00,1.1576
6175.00,1.1495
6174.00,1.1409
6173.00,1.1315
6172.00,1.1213
6171.00,1.1107
6170.00,1.1001
6169.00,1.0893
6168.00,1.0781
6167.00,1.0664
6166.00,1.0542
6165.00,1.0418
6164.00,1.0293
6163.00,1.0167
6162.00,1.0040
6161.00,0.9912
6160.00,0.9785
6159.00,0.9657
6158.00,0.9530
6157.00,0.9403
6156.00,0.9277
6155.00,0.9154
6154.00,0.9035
6153.00,0.8918
6152.00,0.8803
6151.00,0.8689
6150.00,0.8579
6149.00,0.8472
6148.00,0.8371
6147.00,0.8274
6146.00,0.8182
6145.00,0.8096
6144.00,0.8016
6143.00,0.7943
6142.00,0.7877
6141.00,0.7819
6140.00,0.7768
6139.00,0.7725
6138.00,0.7689
6137.00,0.7660
6136.00,0.7638
6135.00,0.7624
6134.00,0.7619
6133.00,0.7623
6132.00,0.7635
6131.00,0.7654
6130.00,0.7681
6129.00,0.7717
6128.00,0.7761
6127.00,0.7811
6126.00,0.7869
6125.00,0.7934
6124.00,0.8006
6123.00,0.8084
6122.00,0.8168
6121.00,0.8257
6120.00,0.8352
6119.00,0.8452
6118.00,0.8557
6117.00,0.8668
6116.00,0.8781
6115.00,0.8898
6114.00,0.9017
6113.00,0.9139
6112.00,0.9264
6111.00,0.9390
6110.00,0.9515
6109.00,0.9642
6108.00,0.9771
6107.00,0.9901
6106.00,1.0029
6105.00,1.0156
6104.00,1.0281
6103.00,1.0406
6102.00,1.0529
6101.00,1.0649
6100.00,1.0766
6099.00,1.0881
6098.00,1.0995
6097.00,1.1109
6096.00,1.1219
6095.00,1.1328
6094.00,1.1436
6093.00,1.1543
6092.00,1.1644
6091.00,1.1738
6090.00,1.1828
6089.00,1.1914
6088.00,1.1996
6087.00,1.2074
6086.00,1.2151
6085.00,1.2229
6084.00,1.2305
6083.00,1.2375
6082.00,1.2437
6081.00,1.2491
6080.00,1.2539
6079.00,1.2583
6078.00,1.2626
6077.00,1.2668
6076.00,1.2708
6075.00,1.2742
6074.00,1.2769
6073.00,1.2787
6072.00,1.2800
6071.00,1.2808
6070.00,1.2813
6069.00,1.2816
6068.00,1.2818
6067.00,1.2815
6066.00,1.2805
6065.00,1.2788
6064.00,1.2764
6063.00,1.2736
6062.00,1.2704
6061.00,1.2670
6060.00,1.2632
6059.00,1.2590
6058.00,1.2544
6057.00,1.2493
6056.00,1.2437
6055.00,1.2376
6054.00,1.2308
6053.00,1.2235
6052.00,1.2156
6051.00,1.2073
6050.00,1.1989
6049.00,1.1903
6048.00,1.1814
6047.00,1.1720
6046.00,1.1620
6045.00,1.1513
6044.00,1.1399
6043.00,1.1279
6042.00,1.1156
6041.00,1.1031
6040.00,1.0905
6039.00,1.0778
6038.00,1.0651
6037.00,1.0524
6036.00,1.0394
6035.00,1.0260
6034.00,1.0124
6033.00,0.9987
6032.00,0.9849
6031.00,0.9711
6030.00,0.9573
6029.00,0.9436
6028.00,0.9301
6027.00,0.9167
6026.00,0.9037
6025.00,0.8911
6024.00,0.8789
6023.00,0.8670
6022.00,0.8554
6021.00,0.8443
6020.00,0.8336
6019.00,0.8234
6018.00,0.8139
6017.00,0.8051
6016.00,0.7971
6015.00,0.7898
6014.00,0.7832
6013.00,0.7774
6012.00,0.7723
6011.00,0.7680
6010.00,0.7644
6009.00,0.7616
6008.00,0.7596
6007.00,0.7585
6006.00,0.7583
6005.00,0.7590
6004.00,0.7606
6003.00,0.7631
6002.00,0.7664
6001.00,0.7704
6000.00,0.7751
5999.00,0.7807
5998.00,0.7873
5997.00,0.7947
5996.00,0.8027
5995.00,0.8113
5994.00,0.8204
5993.00,0.8302
5992.00,0.8405
5991.00,0.8513
5990.00,0.8625
5989.00,0.8742
5988.00,0.8864
5987.00,0.8988
5986.00,0.9113
5985.00,0.9238
5984.00,0.9366
5983.00,0.9497
5982.00,0.9629
5981.00,0.9761
5980.00,0.9894
5979.00,1.0029
5978.00,1.0164
5977.00,1.0297
5976.00,1.0428
5975.00,1.0557
5974.00,1.0686
5973.00,1.0813
5972.00,1.0936
5971.00,1.1055
5970.00,1.1170
5969.00,1.1282
5968.00,1.1391
5967.00,1.1500
5966.00,1.1609
5965.00,1.1717
5964.00,1.1824
5963.00,1.1927
5962.00,1.2025
5961.00,1.2117
5960.00,1.2203
5959.00,1.2282
5958.00,1.2356
5957.00,1.2428
5956.00,1.2496
5955.00,1.2561
5954.00,1.2623
5953.00,1.2683
5952.00,1.2740
5951.00,1.2793
5950.00,1.2840
5949.00,1.2880
5948.00,1.2913
5947.00,1.2943
5946.00,1.2968
5945.00,1.2987
5944.00,1.3001
5943.00,1.3010
5942.00,1.3016
5941.00,1.3016
5940.00,1.3011
5939.00,1.3003
5938.00,1.2993
5937.00,1.2980
5936.00,1.2961
5935.00,1.2934
5934.00,1.2898
5933.00,1.2856
5932.00,1.2809
5931.00,1.2758
5930.00,1.2701
5929.00,1.2640
5928.00,1.2577
5927.00,1.2515
5926.00,1.2453
5925.00,1.2388
5924.00,1.2317
5923.00,1.2239
5922.00,1.2153
5921.00,1.2060
5920.00,1.1960
5919.00,1.1853
5918.00,1.1744
5917.00,1.1632
5916.00,1.1517
5915.00,1.1396
5914.00,1.1273
5913.00,1.1147
5912.00,1.1020
5911.00,1.0891
5910.00,1.0760
5909.00,1.0625
5908.00,1.0486
5907.00,1.0345
5906.00,1.0204
5905.00,1.0062
5904.00,0.9920
5903.00,0.9779
5902.00,0.9639
5901.00,0.9501
5900.00,0.9364
5899.00,0.9230
5898.00,0.9100
5897.00,0.8974
5896.00,0.8854
5895.00,0.8737
5894.00,0.8624
5893.00,0.8516
5892.00,0.8413
5891.00,0.8316
5890.00,0.8226
5889.00,0.8142
5888.00,0.8065
5887.00,0.7996
5886.00,0.7936
5885.00,0.7885
5884.00,0.7843
5883.00,0.7810
5882.00,0.7785
5881.00,0.7767
5880.00,0.7757
5879.00,0.7754
5878.00,0.7760
5877.00,0.7774
5876.00,0.7797
5875.00,0.7828
5874.00,0.7869
5873.00,0.7920
5872.00,0.7979
5871.00,0.8045
5870.00,0.8119
5869.00,0.8198
5868.00,0.8283
5867.00,0.8372
5866.00,0.8467
5865.00,0.8569
5864.00,0.8677
5863.00,0.8788
5862.00,0.8904
5861.00,0.9022
5860.00,0.9143
5859.00,0.9266
5858.00,0.9393
5857.00,0.9521
5856.00,0.9651
5855.00,0.9782
5854.00,0.9914
5853.00,1.0049
5852.00,1.0184
5851.00,1.0320
5850.00,1.0456
5849.00,1.0590
5848.00,1.0720
5847.00,1.0844
5846.00,1.0963
5845.00,1.1082
5844.00,1.1201
5843.00,1.1321
5842.00,1.1440
5841.00,1.1558
5840.00,1.1673
5839.00,1.1783
5838.00,1.1887
5837.00,1.1985
5836.00,1.2078
5835.00,1.2171
5834.00,1.2264
5833.00,1.2355
5832.00,1.2439
5831.00,1.2519
5830.00,1.2595
5829.00,1.2667
5828.00,1.2735
5827.00,1.2797
5826.00,1.2854
5825.00,1.2909
5824.00,1.2959
5823.00,1.3003
5822.00,1.3043
5821.00,1.3078
5820.00,1.3109
5819.00,1.3136
5818.00,1.3159
5817.00,1.3177
5816.00,1.3189
5815.00,1.3196
5814.00,1.3199
5813.00,1.3199
5812.00,1.3195
5811.00,1.3187
5810.00,1.3173
5809.00,1.3153
5808.00,1.3126
5807.00,1.3096
5806.00,1.3065
5805.00,1.3031
5804.00,1.2994
5803.00,1.2950
5802.00,1.2899
5801.00,1.2841
5800.00,1.2776
5799.00,1.2706
5798.00,1.2633
5797.00,1.2558
5796.00,1.2479
5795.00,1.2395
5794.00,1.2304
5793.00,1.2207
5792.00,1.2105
5791.00,1.2001
5790.00,1.1895
5789.00,1.1785
5788.00,1.1668
5787.00,1.1545
5786.00,1.1418
5785.00,1.1288
5784.00,1.1154
5783.00,1.1019
5782.00,1.0883
5781.00,1.0747
5780.00,1.0607
5779.00,1.0464
5778.00,1.0318
5777.00,1.0171
5776.00,1.0022
5775.00,0.9873
5774.00,0.9725
5773.00,0.9581
5772.00,0.9440
5771.00,0.9302
5770.00,0.9168
5769.00,0.9037
5768.00,0.8911
5767.00,0.8789
5766.00,0.8672
5765.00,0.8559
5764.00,0.8453
5763.00,0.8352
5762.00,0.8259
5761.00,0.8173
5760.00,0.8095
5759.00,0.8023
5758.00,0.7960
5757.00,0.7905
5756.00,0.7859
5755.00,0.7821
5754.00,0.7792
5753.00,0.7774
5752.00,0.7765
5751.00,0.7765
5750.00,0.7773
5749.00,0.7791
5748.00,0.7817
5747.00,0.7853
5746.00,0.7897
5745.00,0.7949
5744.00,0.8008
5743.00,0.8075
5742.00,0.8148
5741.00,0.8229
5740.00,0.8317
5739.00,0.8412
5738.00,0.8514
5737.00,0.8622
5736.00,0.8735
5735.00,0.8853
5734.00,0.8974
5733.00,0.9098
5732.00,0.9223
5731.00,0.9350
5730.00,0.9479
5729.00,0.9610
5728.00,0.9744
5727.00,0.9880
5726.00,1.0016
5725.00,1.0152
5724.00,1.0286
5723.00,1.0419
5722.00,1.0552
5721.00,1.0686
5720.00,1.0819
5719.00,1.0951
5718.00,1.1081
5717.00,1.1209
5716.00,1.1333
5715.00,1.1454
5714.00,1.1574
5713.00,1.1691
5712.00,1.1805
5711.00,1.1913
5710.00,1.2018
5709.00,1.2120
5708.00,1.2219
5707.00,1.2316
5706.00,1.2411
5705.00,1.2503
5704.00,1.2590
5703.00,1.2671
5702.00,1.2745
5701.00,1.2814
5700.00,1.2879
5699.00,1.2939
5698.00,1.2993
5697.00,1.3043
5696.00,1.3089
5695.00,1.3132
5694.00,1.3173
5693.00,1.3210
5692.00,1.3245
5691.00,1.3275
5690.00,1.3301
5689.00,1.3318
5688.00,1.3329
5687.00,1.3335
5686.00,1.3338
5685.00,1.3338
5684.00,1.3332
5683.00,1.3319
5682.00,1.3302
5681.00,1.3281
5680.00,1.3256
5679.00,1.3226
5678.00,1.3191
5677.00,1.3151
5676.00,1.3104
5675.00,1.3051
5674.00,1.2994
5673.00,1.2935
5672.00,1.2873
5671.00,1.2807
5670.00,1.2735
5669.00,1.2657
5668.00,1.2573
5667.00,1.2486
5666.00,1.2396
5665.00,1.2302
5664.00,1.2202
5663.00,1.2095
5662.00,1.1982
5661.00,1.1864
5660.00,1.1743
5659.00,1.1619
5658.00,1.1493
5657.00,1.1364
5656.00,1.1230
5655.00,1.1090
5654.00,1.0947
5653.00,1.0801
5652.00,1.0654
5651.00,1.0505
5650.00,1.0356
5649.00,1.0206
5648.00,1.0056
5647.00,0.9906
5646.00,0.9756
5645.00,0.9608
5644.00,0.9461
5643.00,0.9317
5642.00,0.9175
5641.00,0.9035
5640.00,0.8899
5639.00,0.8767
5638.00,0.8641
5637.00,0.8522
5636.00,0.8409
5635.00,0.8303
5634.00,0.8204
5633.00,0.8112
5632.00,0.8027
5631.00,0.7949
5630.00,0.7880
5629.00,0.7820
5628.00,0.7770
5627.00,0.7729
5626.00,0.7699
5625.00,0.7677
5624.00,0.7664
5623.00,0.7661
5622.00,0.7668
5621.00,0.7684
5620.00,0.7709
5619.00,0.7744
5618.00,0.7789
5617.00,0.7843
5616.00,0.7905
5615.00,0.7976
5614.00,0.8055
5613.00,0.8143
5612.00,0.8236
5611.00,0.8336
5610.00,0.8441
5609.00,0.8553
5608.00,0.8670
5607.00,0.8791
5606.00,0.8918
5605.00,0.9050
5604.00,0.9185
5603.00,0.9321
5602.00,0.9460
5601.00,0.9600
5600.00,0.9740
5599.00,0.9879
5598.00,1.0016
5597.00,1.0155
5596.00,1.0295
5595.00,1.0436
5594.00,1.0577
5593.00,1.0718
5592.00,1.0854
5591.00,1.0986
5590.00,1.1113
5589.00,1.1237
5588.00,1.1361
5587.00,1.1483
5586.00,1.1603
5585.00,1.1719
5584.00,1.1830
5583.00,1.1936
5582.00,1.2039
5581.00,1.2140
5580.00,1.2239
5579.00,1.2334
5578.00,1.2423
5577.00,1.2507
5576.00,1.2583
5575.00,1.2653
5574.00,1.2718
5573.00,1.2779
5572.00,1.2836
5571.00,1.2886
5570.00,1.2933
5569.00,1.2979
5568.00,1.3024
5567.00,1.3066
5566.00,1.3103
5565.00,1.3137
5564.00,1.3165
5563.00,1.3190
5562.00,1.3211
5561.00,1.3229
5560.00,1.3245
5559.00,1.3256
5558.00,1.3260
5557.00,1.3258
5556.00,1.3250
5555.00,1.3238
5554.00,1.3222
5553.00,1.3205
5552.00,1.3186
5551.00,1.3165
5550.00,1.3139
5549.00,1.3107
5548.00,1.3070
5547.00,1.3028
5546.00,1.2979
5545.00,1.2925
5544.00,1.2866
5543.00,1.2804
5542.00,1.2736
5541.00,1.2663
5540.00,1.2583
5539.00,1.2498
5538.00,1.2407
5537.00,1.2310
5536.00,1.2207
5535.00,1.2098
5534.00,1.1985
5533.00,1.1870
5532.00,1.1751
5531.00,1.1628
5530.00,1.1501
5529.00,1.1368
5528.00,1.1230
5527.00,1.1087
5526.00,1.0941
5525.00,1.0792
5524.00,1.0642
5523.00,1.0490
5522.00,1.0337
5521.00,1.0183
5520.00,1.0029
5519.00,0.9874
5518.00,0.9719
5517.00,0.9566
5516.00,0.9414
5515.00,0.9264
5514.00,0.9117
5513.00,0.8973
5512.00,0.8833
5511.00,0.8698
5510.00,0.8570
5509.00,0.8449
5508.00,0.8336
5507.00,0.8230
5506.00,0.8130
5505.00,0.8037
5504.00,0.7952
5503.00,0.7874
5502.00,0.7806
5501.00,0.7748
5500.00,0.7699
5499.00,0.7661
5498.00,0.7633
5497.00,0.7616
5496.00,0.7609
5495.00,0.7612
5494.00,0.7627
5493.00,0.7652
5492.00,0.7685
5491.00,0.7725
5490.00,0.7776
5489.00,0.7836
5488.00,0.7907
5487.00,0.7988
5486.00,0.8077
5485.00,0.8175
5484.00,0.8279
5483.00,0.8392
5482.00,0.8512
5481.00,0.8639
5480.00,0.8771
5479.00,0.8905
5478.00,0.9043
5477.00,0.9183
5476.00,0.9324
5475.00,0.9466
5474.00,0.9610
5473.00,0.9757
5472.00,0.9906
5471.00,1.0055
5470.00,1.0206
5469.00,1.0359
5468.00,1.0512
5467.00,1.0665
5466.00,1.0816
5465.00,1.0965
5464.00,1.1110
5463.00,1.1249
5462.00,1.1384
5461.00,1.1515
5460.00,1.1644
5459.00,1.1772
5458.00,1.1900
5457.00,1.2026
5456.00,1.2147
5455.00,1.2262
5454.00,1.2372
5453.00,1.2479
5452.00,1.2583
5451.00,1.2683
5450.00,1.2779
5449.00,1.2870
5448.00,1.2955
5447.00,1.3034
5446.00,1.3108
5445.00,1.3180
5444.00,1.3248
5443.00,1.3311
5442.00,1.3368
5441.00,1.3420
5440.00,1.3468
5439.00,1.3509
5438.00,1.3544
5437.00,1.3575
5436.00,1.3602
5435.00,1.3624
5434.00,1.3640
5433.00,1.3651
5432.00,1.3659
5431.00,1.3662
5430.00,1.3660
5429.00,1.3654
5428.00,1.3644
5427.00,1.3631
5426.00,1.3613
5425.00,1.3591
5424.00,1.3562
5423.00,1.3527
5422.00,1.3483
5421.00,1.3432
5420.00,1.3377
5419.00,1.3320
5418.00,1.3262
5417.00,1.3199
5416.00,1.3130
5415.00,1.3055
5414.00,1.2974
5413.00,1.2890
5412.00,1.2802
5411.00,1.2708
5410.00,1.2608
5409.00,1.2501
5408.00,1.2386
5407.00,1.2264
5406.00,1.2137
5405.00,1.2007
5404.00,1.1875
5403.00,1.1742
5402.00,1.1606
5401.00,1.1466
5400.00,1.1322
5399.00,1.1172
5398.00,1.1018
5397.00,1.0861
5396.00,1.0702
5395.00,1.0541
5394.00,1.0377
5393.00,1.0212
5392.00,1.0046
5391.00,0.9880
5390.00,0.9715
5389.00,0.9553
5388.00,0.9394
5387.00,0.9237
5386.00,0.9082
5385.00,0.8929
5384.00,0.8780
5383.00,0.8638
5382.00,0.8504
5381.00,0.8378
5380.00,0.8261
5379.00,0.8150
5378.00,0.8047
5377.00,0.7953
5376.00,0.7866
5375.00,0.7787
5374.00,0.7717
5373.00,0.7658
5372.00,0.7610
5371.00,0.7574
5370.00,0.7550
5369.00,0.7538
5368.00,0.7537
5367.00,0.7547
5366.00,0.7568
5365.00,0.7600
5364.00,0.7642
5363.00,0.7693
5362.00,0.7753
5361.00,0.7824
5360.00,0.7903
5359.00,0.7993
5358.00,0.8090
5357.00,0.8197
5356.00,0.8311
5355.00,0.8433
5354.00,0.8562
5353.00,0.8695
5352.00,0.8832
5351.00,0.8973
5350.00,0.9118
5349.00,0.9267
5348.00,0.9417
5347.00,0.9567
5346.00,0.9719
5345.00,0.9873
5344.00,1.0029
5343.00,1.0184
5342.00,1.0338
5341.00,1.0492
5340.00,1.0645
5339.00,1.0798
5338.00,1.0949
5337.00,1.1099
5336.00,1.1246
5335.00,1.1390
5334.00,1.1531
5333.00,1.1669
5332.00,1.1802
5331.00,1.1929
5330.00,1.2052
5329.00,1.2172
5328.00,1.2290
5327.00,1.2407
5326.00,1.2520
5325.00,1.2628
5324.00,1.2730
5323.00,1.2826
5322.00,1.2917
5321.00,1.3003
5320.00,1.3085
5319.00,1.3163
5318.00,1.3240
5317.00,1.3315
5316.00,1.3386
5315.00,1.3452
5314.00,1.3513
5313.00,1.3569
5312.00,1.3620
5311.00,1.3666
5310.00,1.3708
5309.00,1.3745
5308.00,1.3776
5307.00,1.3796
5306.00,1.3809
5305.00,1.3817
5304.00,1.3822
5303.00,1.3825
5302.00,1.3825
5301.00,1.3821
5300.00,1.3811
5299.00,1.3796
5298.00,1.3775
5297.00,1.3749
5296.00,1.3722
5295.00,1.3691
5294.00,1.3656
5293.00,1.3615
5292.00,1.3567
5291.00,1.3511
5290.00,1.3448
5289.00,1.3378
5288.00,1.3303
5287.00,1.3223
5286.00,1.3140
5285.00,1.3053
5284.00,1.2959
5283.00,1.2859
5282.00,1.2756
5281.00,1.2648
5280.00,1.2536
5279.00,1.2418
5278.00,1.2294
5277.00,1.2164
5276.00,1.2029
5275.00,1.1888
5274.00,1.1743
5273.00,1.1595
5272.00,1.1444
5271.00,1.1290
5270.00,1.1131
5269.00,1.0969
5268.00,1.0805
5267.00,1.0639
5266.00,1.0472
5265.00,1.0304
5264.00,1.0133
5263.00,0.9961
5262.00,0.9789
5261.00,0.9620
5260.00,0.9456
5259.00,0.9298
5258.00,0.9144
5257.00,0.8996
5256.00,0.8852
5255.00,0.8713
5254.00,0.8579
5253.00,0.8452
5252.00,0.8332
5251.00,0.8222
5250.00,0.8121
5249.00,0.8030
5248.00,0.7949
5247.00,0.7879
5246.00,0.7819
5245.00,0.7769
5244.00,0.7728
5243.00,0.7697
5242.00,0.7676
5241.00,0.7669
5240.00,0.7675
5239.00,0.7692
5238.00,0.7721
5237.00,0.7761
5236.00,0.7810
5235.00,0.7869
5234.00,0.7940
5233.00,0.8022
5232.00,0.8114
5231.00,0.8216
5230.00,0.8325
5229.00,0.8441
5228.00,0.8563
5227.00,0.8691
5226.00,0.8825
5225.00,0.8964
5224.00,0.9108
5223.00,0.9257
5222.00,0.9409
5221.00,0.9565
5220.00,0.9724
5219.00,0.9884
5218.00,1.0045
5217.00,1.0206
5216.00,1.0368
5215.00,1.0530
5214.00,1.0692
5213.00,1.0852
5212.00,1.1010
5211.00,1.1163
5210.00,1.1314
5209.00,1.1463
5208.00,1.1612
5207.00,1.1759
5206.00,1.1903
5205.00,1.2044
5204.00,1.2182
5203.00,1.2315
5202.00,1.2442
5201.00,1.2563
5200.00,1.2679
5199.00,1.2792
5198.00,1.2903
5197.00,1.3013
5196.00,1.3118
5195.00,1.3218
5194.00,1.3310
5193.00,1.3397
5192.00,1.3478
5191.00,1.3556
5190.00,1.3632
5189.00,1.3704
5188.00,1.3769
5187.00,1.3829
5186.00,1.3884
5185.00,1.3934
5184.00,1.3978
5183.00,1.4015
5182.00,1.4047
5181.00,1.4074
5180.00,1.4095
5179.00,1.4113
5178.00,1.4127
5177.00,1.4138
5176.00,1.4145
5175.00,1.4145
5174.00,1.4137
5173.00,1.4123
5172.00,1.4103
5171.00,1.4079
5170.00,1.4051
5169.00,1.4020
5168.00,1.3985
5167.00,1.3945
5166.00,1.3900
5165.00,1.3848
5164.00,1.3791
5163.00,1.3728
5162.00,1.3659
5161.00,1.3585
5160.00,1.3505
5159.00,1.3421
5158.00,1.3333
5157.00,1.3240
5156.00,1.3143
5155.00,1.3039
5154.00,1.2930
5153.00,1.2816
5152.00,1.2696
5151.00,1.2571
5150.00,1.2441
5149.00,1.2305
5148.00,1.2162
5147.00,1.2013
5146.00,1.1860
5145.00,1.1704
5144.00,1.1545
5143.00,1.1381
5142.00,1.1214
5141.00,1.1043
5140.00,1.0869
5139.00,1.0692
5138.00,1.0514
5137.00,1.0336
5136.00,1.0158
5135.00,0.9979
5134.00,0.9802
5133.00,0.9626
5132.00,0.9454
5131.00,0.9285
5130.00,0.9120
5129.00,0.8960
5128.00,0.8807
5127.00,0.8659
5126.00,0.8518
5125.00,0.8385
5124.00,0.8261
5123.00,0.8145
5122.00,0.8039
5121.00,0.7943
5120.00,0.7859
5119.00,0.7785
5118.00,0.7723
5117.00,0.7673
5116.00,0.7634
5115.00,0.7607
5114.00,0.7591
5113.00,0.7589
5112.00,0.7598
5111.00,0.7619
5110.00,0.7652
5109.00,0.7696
5108.00,0.7752
5107.00,0.7818
5106.00,0.7896
5105.00,0.7984
5104.00,0.8083
5103.00,0.8190
5102.00,0.8307
5101.00,0.8431
5100.00,0.8563
5099.00,0.8703
5098.00,0.8849
5097.00,0.9002
5096.00,0.9159
5095.00,0.9319
5094.00,0.9483
5093.00,0.9650
5092.00,0.9818
5091.00,0.9987
5090.00,1.0157
5089.00,1.0327
5088.00,1.0496
5087.00,1.0663
5086.00,1.0829
5085.00,1.0994
5084.00,1.1156
5083.00,1.1316
5082.00,1.1473
5081.00,1.1627
5080.00,1.1777
5079.00,1.1925
5078.00,1.2070
5077.00,1.2213
5076.00,1.2354
5075.00,1.2492
5074.00,1.2626
5073.00,1.2756
5072.00,1.2882
5071.00,1.3001
5070.00,1.3115
5069.00,1.3225
5068.00,1.3330
5067.00,1.3431
5066.00,1.3527
5065.00,1.3617
5064.00,1.3702
5063.00,1.3781
5062.00,1.3853
5061.00,1.3920
5060.00,1.3983
5059.00,1.4042
5058.00,1.4097
5057.00,1.4147
5056.00,1.4192
5055.00,1.4230
5054.00,1.4263
5053.00,1.4292
5052.00,1.4317
5051.00,1.4338
5050.00,1.4353
5049.00,1.4361
5048.00,1.4363
5047.00,1.4358
5046.00,1.4350
5045.00,1.4339
5044.00,1.4325
5043.00,1.4306
5042.00,1.4280
5041.00,1.4249
5040.00,1.4212
5039.00,1.4169
5038.00,1.4119
5037.00,1.4063
5036.00,1.4002
5035.00,1.3936
5034.00,1.3866
5033.00,1.3790
5032.00,1.3710
5031.00,1.3623
5030.00,1.3531
5029.00,1.3434
5028.00,1.3332
5027.00,1.3225
5026.00,1.3112
5025.00,1.2994
5024.00,1.2871
5023.00,1.2741
5022.00,1.2604
5021.00,1.2460
5020.00,1.2310
5019.00,1.2154
5018.00,1.1995
5017.00,1.1831
5016.00,1.1665
5015.00,1.1495
5014.00,1.1320
5013.00,1.1142
5012.00,1.0960
5011.00,1.0775
5010.00,1.0587
5009.00,1.0399
5008.00,1.0210
5007.00,1.0021
5006.00,0.9835
5005.00,0.9650
5004.00,0.9469
5003.00,0.9291
5002.00,0.9119
5001.00,0.8954
5000.00,0.8796
4999.00,0.8644
4998.00,0.8500
4997.00,0.8365
4996.00,0.8240
4995.00,0.8124
4994.00,0.8019
4993.00,0.7925
4992.00,0.7842
4991.00,0.7770
4990.00,0.7712
4989.00,0.7666
4988.00,0.7633
4987.00,0.7613
4986.00,0.7606
4985.00,0.7612
4984.00,0.7631
4983.00,0.7664
4982.00,0.7708
4981.00,0.7764
4980.00,0.7831
4979.00,0.7910
4978.00,0.8003
4977.00,0.8110
4976.00,0.8228
4975.00,0.8354
4974.00,0.8488
4973.00,0.8629
4972.00,0.8777
4971.00,0.8932
4970.00,0.9094
4969.00,0.9260
4968.00,0.9429
4967.00,0.9601
4966.00,0.9775
4965.00,0.9952
4964.00,1.0130
4963.00,1.0308
4962.00,1.0486
4961.00,1.0663
4960.00,1.0839
4959.00,1.1013
4958.00,1.1186
4957.00,1.1357
4956.00,1.1525
4955.00,1.1692
4954.00,1.1856
4953.00,1.2017
4952.00,1.2174
4951.00,1.2327
4950.00,1.2477
4949.00,1.2622
4948.00,1.2764
4947.00,1.2902
4946.00,1.3035
4945.00,1.3163
4944.00,1.3283
4943.00,1.3398
4942.00,1.3507
4941.00,1.3614
4940.00,1.3717
4939.00,1.3816
4938.00,1.3909
4937.00,1.3995
4936.00,1.4074
4935.00,1.4148
4934.00,1.4217
4933.00,1.4283
4932.00,1.4343
4931.00,1.4397
4930.00,1.4443
4929.00,1.4484
4928.00,1.4522
4927.00,1.4556
4926.00,1.4587
4925.00,1.4613
4924.00,1.4631
4923.00,1.4642
4922.00,1.4648
4921.00,1.4650
4920.00,1.4647
4919.00,1.4640
4918.00,1.4626
4917.00,1.4606
4916.00,1.4580
4915.00,1.4550
4914.00,1.4516
4913.00,1.4478
4912.00,1.4437
4911.00,1.4390
4910.00,1.4339
4909.00,1.4281
4908.00,1.4215
4907.00,1.4141
4906.00,1.4059
4905.00,1.3973
4904.00,1.3884
4903.00,1.3793
4902.00,1.3698
4901.00,1.3597
4900.00,1.3488
4899.00,1.3372
4898.00,1.3248
4897.00,1.3119
4896.00,1.2982
4895.00,1.2840
4894.00,1.2692
4893.00,1.2540
4892.00,1.2383
4891.00,1.2221
4890.00,1.2054
4889.00,1.1880
4888.00,1.1701
4887.00,1.1517
4886.00,1.1329
4885.00,1.1139
4884.00,1.0945
4883.00,1.0750
4882.00,1.0553
4881.00,1.0357
4880.00,1.0161
4879.00,0.9965
4878.00,0.9770
4877.00,0.9577
4876.00,0.9388
4875.00,0.9204
4874.00,0.9026
4873.00,0.8854
4872.00,0.8688
4871.00,0.8531
4870.00,0.8382
4869.00,0.8244
4868.00,0.8116
4867.00,0.8000
4866.00,0.7895
4865.00,0.7804
4864.00,0.7725
4863.00,0.7660
4862.00,0.7609
4861.00,0.7573
4860.00,0.7549
4859.00,0.7540
4858.00,0.7544
4857.00,0.7562
4856.00,0.7594
4855.00,0.7641
4854.00,0.7701
4853.00,0.7775
4852.00,0.7862
4851.00,0.7960
4850.00,0.8070
4849.00,0.8190
4848.00,0.8321
4847.00,0.8461
4846.00,0.8610
4845.00,0.8766
4844.00,0.8929
4843.00,0.9097
4842.00,0.9269
4841.00,0.9447
4840.00,0.9628
4839.00,0.9811
4838.00,0.9996
4837.00,1.0182
4836.00,1.0367
4835.00,1.0552
4834.00,1.0738
4833.00,1.0924
4832.00,1.1109
4831.00,1.1292
4830.00,1.1473
4829.00,1.1650
4828.00,1.1824
4827.00,1.1994
4826.00,1.2161
4825.00,1.2326
4824.00,1.2487
4823.00,1.2643
4822.00,1.2796
4821.00,1.2944
4820.00,1.3085
4819.00,1.3221
4818.00,1.3353
4817.00,1.3481
4816.00,1.3605
4815.00,1.3725
4814.00,1.3840
4813.00,1.3948
4812.00,1.4049
4811.00,1.4144
4810.00,1.4232
4809.00,1.4314
4808.00,1.4389
4807.00,1.4459
4806.00,1.4526
4805.00,1.4592
4804.00,1.4655
4803.00,1.4711
4802.00,1.4759
4801.00,1.4799
4800.00,1.4834
4799.00,1.4865
4798.00,1.4892
4797.00,1.4915
4796.00,1.4930
4795.00,1.4940
4794.00,1.4944
4793.00,1.4946
4792.00,1.4943
4791.00,1.4933
4790.00,1.4915
4789.00,1.4889
4788.00,1.4857
4787.00,1.4821
4786.00,1.4784
4785.00,1.4744
4784.00,1.4701
4783.00,1.4652
4782.00,1.4596
4781.00,1.4533
4780.00,1.4463
4779.00,1.4385
4778.00,1.4302
4777.00,1.4215
4776.00,1.4124
4775.00,1.4026
4774.00,1.3923
4773.00,1.3812
4772.00,1.3696
4771.00,1.3575
4770.00,1.3448
4769.00,1.3316
4768.00,1.3177
4767.00,1.3030
4766.00,1.2875
4765.00,1.2713
4764.00,1.2545
4763.00,1.2371
4762.00,1.2194
4761.00,1.2013
4760.00,1.1827
4759.00,1.1636
4758.00,1.1439
4757.00,1.1238
4756.00,1.1033
4755.00,1.0827
4754.00,1.0621
4753.00,1.0416
4752.00,1.0210
4751.00,1.0006
4750.00,0.9803
4749.00,0.9604
4748.00,0.9410
4747.00,0.9221
4746.00,0.9039
4745.00,0.8865
4744.00,0.8699
4743.00,0.8542
4742.00,0.8396
4741.00,0.8262
4740.00,0.8139
4739.00,0.8029
4738.00,0.7933
4737.00,0.7850
4736.00,0.7782
4735.00,0.7728
4734.00,0.7687
4733.00,0.7662
4732.00,0.7651
4731.00,0.7656
4730.00,0.7676
4729.00,0.7711
4728.00,0.7761
4727.00,0.7825
4726.00,0.7904
4725.00,0.7997
4724.00,0.8102
4723.00,0.8220
4722.00,0.8349
4721.00,0.8489
4720.00,0.8638
4719.00,0.8796
4718.00,0.8961
4717.00,0.9134
4716.00,0.9313
4715.00,0.9497
4714.00,0.9685
4713.00,0.9876
4712.00,1.0070
4711.00,1.0264
4710.00,1.0460
4709.00,1.0655
4708.00,1.0851
4707.00,1.1046
4706.00,1.1241
4705.00,1.1435
4704.00,1.1626
4703.00,1.1815
4702.00,1.2000
4701.00,1.2180
4700.00,1.2356
4699.00,1.2528
4698.00,1.2697
4697.00,1.2862
4696.00,1.3024
4695.00,1.3182
4694.00,1.3334
4693.00,1.3481
4692.00,1.3620
4691.00,1.3753
4690.00,1.3880
4689.00,1.4003
4688.00,1.4124
4687.00,1.4240
4686.00,1.4351
4685.00,1.4455
4684.00,1.4550
4683.00,1.4637
4682.00,1.4717
4681.00,1.4793
4680.00,1.4864
4679.00,1.4932
4678.00,1.4994
4677.00,1.5051
4676.00,1.5101
4675.00,1.5143
4674.00,1.5180
4673.00,1.5212
4672.00,1.5241
4671.00,1.5265
4670.00,1.5283
4669.00,1.5296
4668.00,1.5306
4667.00,1.5312
4666.00,1.5312
4665.00,1.5306
4664.00,1.5294
4663.00,1.5275
4662.00,1.5252
4661.00,1.5227
4660.00,1.5199
4659.00,1.5166
4658.00,1.5125
4657.00,1.5077
4656.00,1.5021
4655.00,1.4958
4654.00,1.4891
4653.00,1.4819
4652.00,1.4743
4651.00,1.4662
4650.00,1.4575
4649.00,1.4482
4648.00,1.4382
4647.00,1.4275
4646.00,1.4161
4645.00,1.4041
4644.00,1.3918
4643.00,1.3789
4642.00,1.3655
4641.00,1.3514
4640.00,1.3366
4639.00,1.3210
4638.00,1.3047
4637.00,1.2877
4636.00,1.2701
4635.00,1.2520
4634.00,1.2334
4633.00,1.2142
4632.00,1.1946
4631.00,1.1743
4630.00,1.1536
4629.00,1.1324
4628.00,1.1110
4627.00,1.0894
4626.00,1.0678
4625.00,1.0461
4624.00,1.0246
4623.00,1.0033
4622.00,0.9825
4621.00,0.9621
4620.00,0.9422
4619.00,0.9229
4618.00,0.9042
4617.00,0.8864
4616.00,0.8696
4615.00,0.8538
4614.00,0.8391
4613.00,0.8257
4612.00,0.8137
4611.00,0.8031
4610.00,0.7940
4609.00,0.7864
4608.00,0.7803
4607.00,0.7757
4606.00,0.7726
4605.00,0.7711
4604.00,0.7712
4603.00,0.7729
4602.00,0.7761
4601.00,0.7809
4600.00,0.7871
4599.00,0.7948
4598.00,0.8039
4597.00,0.8144
4596.00,0.8262
4595.00,0.8392
4594.00,0.8534
4593.00,0.8687
4592.00,0.8849
4591.00,0.9020
4590.00,0.9199
4589.00,0.9384
4588.00,0.9574
4587.00,0.9768
4586.00,0.9966
4585.00,1.0167
4584.00,1.0369
4583.00,1.0574
4582.00,1.0779
4581.00,1.0983
4580.00,1.1187
4579.00,1.1389
4578.00,1.1588
4577.00,1.1785
4576.00,1.1978
4575.00,1.2166
4574.00,1.2351
4573.00,1.2533
4572.00,1.2712
4571.00,1.2888
4570.00,1.3059
4569.00,1.3225
4568.00,1.3386
4567.00,1.3542
4566.00,1.3695
4565.00,1.3842
4564.00,1.3983
4563.00,1.4117
4562.00,1.4246
4561.00,1.4371
4560.00,1.4491
4559.00,1.4604
4558.00,1.4710
4557.00,1.4808
4556.00,1.4899
4555.00,1.4985
4554.00,1.5064
4553.00,1.5139
4552.00,1.5209
4551.00,1.5275
4550.00,1.5338
4549.00,1.5396
4548.00,1.5448
4547.00,1.5494
4546.00,1.5531
4545.00,1.5560
4544.00,1.5581
4543.00,1.5598
4542.00,1.5612
4541.00,1.5622
4540.00,1.5627
4539.00,1.5626
4538.00,1.5618
4537.00,1.5605
4536.00,1.5591
4535.00,1.5574
4534.00,1.5553
4533.00,1.5525
4532.00,1.5489
4531.00,1.5446
4530.00,1.5398
4529.00,1.5348
4528.00,1.5294
4527.00,1.5236
4526.00,1.5169
4525.00,1.5094
4524.00,1.5009
4523.00,1.4917
4522.00,1.4818
4521.00,1.4716
4520.00,1.4608
4519.00,1.4496
4518.00,1.4377
4517.00,1.4252
4516.00,1.4121
4515.00,1.3984
4514.00,1.3840
4513.00,1.3689
4512.00,1.3531
4511.00,1.3364
4510.00,1.3190
4509.00,1.3008
4508.00,1.2821
4507.00,1.2627
4506.00,1.2427
4505.00,1.2221
4504.00,1.2010
4503.00,1.1793
4502.00,1.1573
4501.00,1.1351
4500.00,1.1126
4499.00,1.0898
4498.00,1.0670
4497.00,1.0441
4496.00,1.0215
4495.00,0.9992
4494.00,0.9773
4493.00,0.9560
4492.00,0.9353
4491.00,0.9155
4490.00,0.8965
4489.00,0.8786
4488.00,0.8619
4487.00,0.8465
4486.00,0.8325
4485.00,0.8199
4484.00,0.8088
4483.00,0.7992
4482.00,0.7912
4481.00,0.7849
4480.00,0.7803
4479.00,0.7774
4478.00,0.7763
4477.00,0.7769
4476.00,0.7793
4475.00,0.7836
4474.00,0.7895
4473.00,0.7972
4472.00,0.8065
4471.00,0.8172
4470.00,0.8295
4469.00,0.8431
4468.00,0.8580
4467.00,0.8740
4466.00,0.8912
4465.00,0.9094
4464.00,0.9284
4463.00,0.9481
4462.00,0.9684
4461.00,0.9891
4460.00,1.0103
4459.00,1.0317
4458.00,1.0533
4457.00,1.0749
4456.00,1.0965
4455.00,1.1180
4454.00,1.1394
4453.00,1.1607
4452.00,1.1817
4451.00,1.2024
4450.00,1.2229
4449.00,1.2429
4448.00,1.2626
4447.00,1.2819
4446.00,1.3008
4445.00,1.3192
4444.00,1.3371
4443.00,1.3545
4442.00,1.3714
4441.00,1.3877
4440.00,1.4036
4439.00,1.4189
4438.00,1.4335
4437.00,1.4475
4436.00,1.4608
4435.00,1.4734
4434.00,1.4854
4433.00,1.4968
4432.00,1.5077
4431.00,1.5180
4430.00,1.5278
4429.00,1.5371
4428.00,1.5458
4427.00,1.5537
4426.00,1.5608
4425.00,1.5674
4424.00,1.5735
4423.00,1.5790
4422.00,1.5840
4421.00,1.5883
4420.00,1.5919
4419.00,1.5949
4418.00,1.5974
4417.00,1.5996
4416.00,1.6015
4415.00,1.6031
4414.00,1.6042
4413.00,1.6046
4412.00,1.6043
4411.00,1.6033
4410.00,1.6016
4409.00,1.5993
4408.00,1.5966
4407.00,1.5933
4406.00,1.5896
4405.00,1.5854
4404.00,1.5808
4403.00,1.5759
4402.00,1.5704
4401.00,1.5644
4400.00,1.5576
4399.00,1.5500
4398.00,1.5417
4397.00,1.5328
4396.00,1.5235
4395.00,1.5138
4394.00,1.5037
4393.00,1.4932
4392.00,1.4820
4391.00,1.4702
4390.00,1.4577
4389.00,1.4447
4388.00,1.4311
4387.00,1.4171
4386.00,1.4025
4385.00,1.3874
4384.00,1.3716
4383.00,1.3553
4382.00,1.3385
4381.00,1.3211
4380.00,1.3031
4379.00,1.2848
4378.00,1.2663
4377.00,1.2475
4376.00,1.2286
4375.00,1.2095
4374.00,1.1902
4373.00,1.1706
4372.00,1.1510
4371.00,1.1313
4370.00,1.1117
4369.00,1.0923
4368.00,1.0732
4367.00,1.0543
4366.00,1.0358
4365.00,1.0178
4364.00,1.0003
4363.00,0.9835
4362.00,0.9674
4361.00,0.9521
4360.00,0.9376
4359.00,0.9240
4358.00,0.9114
4357.00,0.9001
4356.00,0.8901
4355.00,0.8815
4354.00,0.8744
4353.00,0.8687
4352.00,0.8645
4351.00,0.8618
4350.00,0.8606
4349.00,0.8612
4348.00,0.8633
4347.00,0.8670
4346.00,0.8721
4345.00,0.8788
4344.00,0.8869
4343.00,0.8964
4342.00,0.9071
4341.00,0.9191
4340.00,0.9323
4339.00,0.9466
4338.00,0.9621
4337.00,0.9786
4336.00,0.9961
4335.00,1.0144
4334.00,1.0333
4333.00,1.0527
4332.00,1.0727
4331.00,1.0930
4330.00,1.1137
4329.00,1.1346
4328.00,1.1555
4327.00,1.1765
4326.00,1.1976
4325.00,1.2186
4324.00,1.2394
4323.00,1.2598
4322.00,1.2799
4321.00,1.2998
4320.00,1.3194
4319.00,1.3387
4318.00,1.3575
4317.00,1.3758
4316.00,1.3936
4315.00,1.4108
4314.00,1.4274
4313.00,1.4433
4312.00,1.4586
4311.00,1.4732
4310.00,1.4873
4309.00,1.5008
4308.00,1.5138
4307.00,1.5262
4306.00,1.5380
4305.00,1.5493
4304.00,1.5600
4303.00,1.5702
4302.00,1.5797
4301.00,1.5884
4300.00,1.5963
4299.00,1.6037
4298.00,1.6105
4297.00,1.6168
4296.00,1.6226
4295.00,1.6281
4294.00,1.6332
4293.00,1.6379
4292.00,1.6421
4291.00,1.6455
4290.00,1.6483
4289.00,1.6506
4288.00,1.6526
4287.00,1.6542
4286.00,1.6550
4285.00,1.6552
4284.00,1.6545
4283.00,1.6534
4282.00,1.6517
4281.00,1.6497
4280.00,1.6473
4279.00,1.6445
4278.00,1.6414
4277.00,1.6377
4276.00,1.6335
4275.00,1.6288
4274.00,1.6235
4273.00,1.6174
4272.00,1.6106
4271.00,1.6032
4270.00,1.5954
4269.00,1.5872
4268.00,1.5785
4267.00,1.5692
4266.00,1.5593
4265.00,1.5486
4264.00,1.5374
4263.00,1.5256
4262.00,1.5132
4261.00,1.5001
4260.00,1.4862
4259.00,1.4716
4258.00,1.4562
4257.00,1.4399
4256.00,1.4229
4255.00,1.4051
4254.00,1.3866
4253.00,1.3676
4252.00,1.3480
4251.00,1.3277
4250.00,1.3066
4249.00,1.2847
4248.00,1.2622
4247.00,1.2390
4246.00,1.2155
4245.00,1.1917
4244.00,1.1678
4243.00,1.1437
4242.00,1.1196
4241.00,1.0956
4240.00,1.0720
4239.00,1.0490
4238.00,1.0265
4237.00,1.0048
4236.00,0.9840
4235.00,0.9643
4234.00,0.9458
4233.00,0.9286
4232.00,0.9129
4231.00,0.8987
4230.00,0.8862
4229.00,0.8755
4228.00,0.8664
4227.00,0.8592
4226.00,0.8538
4225.00,0.8503
4224.00,0.8486
4223.00,0.8488
4222.00,0.8507
4221.00,0.8544
4220.00,0.8599
4219.00,0.8670
4218.00,0.8757
4217.00,0.8860
4216.00,0.8979
4215.00,0.9111
4214.00,0.9256
4213.00,0.9412
4212.00,0.9581
4211.00,0.9760
4210.00,0.9949
4209.00,1.0146
4208.00,1.0349
4207.00,1.0557
4206.00,1.0769
4205.00,1.0985
4204.00,1.1203
4203.00,1.1423
4202.00,1.1645
4201.00,1.1865
4200.00,1.2084
4199.00,1.2301
4198.00,1.2515
4197.00,1.2727
4196.00,1.2938
4195.00,1.3147
4194.00,1.3353
4193.00,1.3556
4192.00,1.3755
4191.00,1.3949
4190.00,1.4137
4189.00,1.4320
4188.00,1.4497
4187.00,1.4667
4186.00,1.4831
4185.00,1.4989
4184.00,1.5140
4183.00,1.5284
4182.00,1.5422
4181.00,1.5554
4180.00,1.5681
4179.00,1.5802
4178.00,1.5916
4177.00,1.6023
4176.00,1.6123
4175.00,1.6216
4174.00,1.6303
4173.00,1.6384
4172.00,1.6459
4171.00,1.6529
4170.00,1.6592
4169.00,1.6648
4168.00,1.6698
4167.00,1.6743
4166.00,1.6785
4165.00,1.6824
4164.00,1.6859
4163.00,1.6887
4162.00,1.6909
4161.00,1.6926
4160.00,1.6937
4159.00,1.6941
4158.00,1.6937
4157.00,1.6925
4156.00,1.6910
4155.00,1.6893
4154.00,1.6876
4153.00,1.6856
4152.00,1.6830
4151.00,1.6795
4150.00,1.6752
4149.00,1.6703
4148.00,1.6649
4147.00,1.6589
4146.00,1.6525
4145.00,1.6456
4144.00,1.6382
4143.00,1.6303
4142.00,1.6216
4141.00,1.6122
4140.00,1.6020
4139.00,1.5910
4138.00,1.5796
4137.00,1.5676
4136.00,1.5550
4135.00,1.5419
4134.00,1.5281
4133.00,1.5136
4132.00,1.4984
4131.00,1.4825
4130.00,1.4660
4129.00,1.4488
4128.00,1.4309
4127.00,1.4124
4126.00,1.3932
4125.00,1.3734
4124.00,1.3529
4123.00,1.3316
4122.00,1.3096
4121.00,1.2869
4120.00,1.2635
4119.00,1.2397
4118.00,1.2155
4117.00,1.1911
4116.00,1.1665
4115.00,1.1419
4114.00,1.1173
4113.00,1.0930
4112.00,1.0690
4111.00,1.0457
4110.00,1.0232
4109.00,1.0016
4108.00,0.9810
4107.00,0.9614
4106.00,0.9431
4105.00,0.9262
4104.00,0.9107
4103.00,0.8969
4102.00,0.8848
4101.00,0.8745
4100.00,0.8660
4099.00,0.8594
4098.00,0.8548
4097.00,0.8522
4096.00,0.8517
4095.00,0.8533
4094.00,0.8569
4093.00,0.8626
4092.00,0.8702
4091.00,0.8798
4090.00,0.8912
4089.00,0.9044
4088.00,0.9192
4087.00,0.9355
4086.00,0.9532
4085.00,0.9720
4084.00,0.9919
4083.00,1.0127
4082.00,1.0342
4081.00,1.0563
4080.00,1.0788
4079.00,1.1018
4078.00,1.1251
4077.00,1.1484
4076.00,1.1718
4075.00,1.1951
4074.00,1.2183
4073.00,1.2414
4072.00,1.2644
4071.00,1.2872
4070.00,1.3098
4069.00,1.3322
4068.00,1.3541
4067.00,1.3755
4066.00,1.3963
4065.00,1.4166
4064.00,1.4365
4063.00,1.4561
4062.00,1.4752
4061.00,1.4936
4060.00,1.5112
4059.00,1.5281
4058.00,1.5443
4057.00,1.5600
4056.00,1.5751
4055.00,1.5895
4054.00,1.6031
4053.00,1.6157
4052.00,1.6276
4051.00,1.6389
4050.00,1.6497
4049.00,1.6601
4048.00,1.6699
4047.00,1.6788
4046.00,1.6868
4045.00,1.6942
4044.00,1.7014
4043.00,1.7084
4042.00,1.7148
4041.00,1.7204
4040.00,1.7250
4039.00,1.7289
4038.00,1.7326
4037.00,1.7362
4036.00,1.7395
4035.00,1.7421
4034.00,1.7438
4033.00,1.7448
4032.00,1.7451
4031.00,1.7448
4030.00,1.7437
4029.00,1.7420
4028.00,1.7398
4027.00,1.7375
4026.00,1.7351
4025.00,1.7325
4024.00,1.7291
4023.00,1.7249
4022.00,1.7198
4021.00,1.7141
4020.00,1.7081
4019.00,1.7018
4018.00,1.6950
4017.00,1.6874
4016.00,1.6791
4015.00,1.6701
4014.00,1.6606
4013.00,1.6506
4012.00,1.6401
4011.00,1.6288
4010.00,1.6167
4009.00,1.6037
4008.00,1.5900
4007.00,1.5756
4006.00,1.5607
4005.00,1.5453
4004.00,1.5290
4003.00,1.5117
4002.00,1.4934
4001.00,1.4742
4000.00,1.4543
3999.00,1.4335
3998.00,1.4119
3997.00,1.3895
3996.00,1.3662
3995.00,1.3422
3994.00,1.3173
3993.00,1.2916
3992.00,1.2654
3991.00,1.2389
3990.00,1.2122
3989.00,1.1854
3988.00,1.1586
3987.00,1.1319
3986.00,1.1055
3985.00,1.0797
3984.00,1.0547
3983.00,1.0306
3982.00,1.0076
3981.00,0.9859
3980.00,0.9655
3979.00,0.9469
3978.00,0.9300
3977.00,0.9149
3976.00,0.9018
3975.00,0.8905
3974.00,0.8813
3973.00,0.8740
3972.00,0.8689
3971.00,0.8661
3970.00,0.8655
3969.00,0.8672
3968.00,0.8711
3967.00,0.8772
3966.00,0.8855
3965.00,0.8958
3964.00,0.9081
3963.00,0.9224
3962.00,0.9386
3961.00,0.9564
3960.00,0.9755
3959.00,0.9959
3958.00,1.0174
3957.00,1.0398
3956.00,1.0630
3955.00,1.0867
3954.00,1.1107
3953.00,1.1348
3952.00,1.1589
3951.00,1.1828
3950.00,1.2066
3949.00,1.2305
3948.00,1.2545
3947.00,1.2784
3946.00,1.3018
3945.00,1.3247
3944.00,1.3472
3943.00,1.3698
3942.00,1.3924
3941.00,1.4148
3940.00,1.4367
3939.00,1.4577
3938.00,1.4778
3937.00,1.4969
3936.00,1.5153
3935.00,1.5331
3934.00,1.5504
3933.00,1.5675
3932.00,1.5844
3931.00,1.6007
3930.00,1.6164
3929.00,1.6311
3928.00,1.6450
3927.00,1.6580
3926.00,1.6702
3925.00,1.6815
3924.00,1.6920
3923.00,1.7017
3922.00,1.7108
3921.00,1.7193
3920.00,1.7272
3919.00,1.7348
3918.00,1.7424
3917.00,1.7498
3916.00,1.7566
3915.00,1.7627
3914.00,1.7680
3913.00,1.7726
3912.00,1.7765
3911.00,1.7795
3910.00,1.7814
3909.00,1.7825
3908.00,1.7828
3907.00,1.7824
3906.00,1.7813
3905.00,1.7794
3904.00,1.7771
3903.00,1.7749
3902.00,1.7729
3901.00,1.7709
3900.00,1.7688
3899.00,1.7665
3898.00,1.7640
3897.00,1.7609
3896.00,1.7567
3895.00,1.7511
3894.00,1.7442
3893.00,1.7363
3892.00,1.7279
3891.00,1.7192
3890.00,1.7097
3889.00,1.6994
3888.00,1.6887
3887.00,1.6778
3886.00,1.6666
3885.00,1.6548
3884.00,1.6422
3883.00,1.6286
3882.00,1.6142
3881.00,1.5993
3880.00,1.5841
3879.00,1.5686
3878.00,1.5525
3877.00,1.5357
3876.00,1.5180
3875.00,1.4990
3874.00,1.4785
3873.00,1.4568
3872.00,1.4342
3871.00,1.4106
3870.00,1.3856
3869.00,1.3599
3868.00,1.3341
3867.00,1.3084
3866.00,1.2822
3865.00,1.2548
3864.00,1.2263
3863.00,1.1975
3862.00,1.1689
3861.00,1.1406
3860.00,1.1125
3859.00,1.0843
3858.00,1.0560
3857.00,1.0282
3856.00,1.0020
3855.00,0.9778
3854.00,0.9544
3853.00,0.9311
3852.00,0.9094
3851.00,0.8909
3850.00,0.8760
3849.00,0.8646
3848.00,0.8561
3847.00,0.8499
3846.00,0.8460
3845.00,0.8441
3844.00,0.8444
3843.00,0.8467
3842.00,0.8510
3841.00,0.8572
3840.00,0.8655
3839.00,0.8767
3838.00,0.8913
3837.00,0.9090
3836.00,0.9287
3835.00,0.9495
3834.00,0.9717
3833.00,0.9956
3832.00,1.0218
3831.00,1.0496
3830.00,1.0779
3829.00,1.1060
3828.00,1.1337
3827.00,1.1614
3826.00,1.1887
3825.00,1.2148
3824.00,1.2397
3823.00,1.2645
3822.00,1.2910
3821.00,1.3195
3820.00,1.3485
3819.00,1.3757
3818.00,1.4003
3817.00,1.4242
3816.00,1.4494
3815.00,1.4759
3814.00,1.5019
3813.00,1.5258
3812.00,1.5471
3811.00,1.5663
3810.00,1.5840
3809.00,1.6011
3808.00,1.6187
3807.00,1.6373
3806.00,1.6555
3805.00,1.6719
3804.00,1.6860
3803.00,1.6988
3802.00,1.7120
3801.00,1.7261
3800.00,1.7400
3799.00,1.7522
3798.00,1.7627
3797.00,1.7723
3796.00,1.7816
3795.00,1.7909
3794.00,1.7998
3793.00,1.8080
3792.00,1.8153
3791.00,1.8218
3790.00,1.8275
3789.00,1.8324
3788.00,1.8366
3787.00,1.8404
3786.00,1.8439
3785.00,1.8470
3784.00,1.8492
3783.00,1.8507
3782.00,1.8513
3781.00,1.8512
3780.00,1.8503
3779.00,1.8491
3778.00,1.8479
3777.00,1.8466
3776.00,1.8444
3775.00,1.8412
3774.00,1.8371
3773.00,1.8323
3772.00,1.8270
3771.00,1.8213
3770.00,1.8152
3769.00,1.8087
3768.00,1.8019
3767.00,1.7950
3766.00,1.7878
3765.00,1.7798
3764.00,1.7707
3763.00,1.7605
3762.00,1.7495
3761.00,1.7377
3760.00,1.7251
3759.00,1.7116
3758.00,1.6972
3757.00,1.6817
3756.00,1.6652
3755.00,1.6479
3754.00,1.6299
3753.00,1.6109
3752.00,1.5902
3751.00,1.5678
3750.00,1.5440
3749.00,1.5190
3748.00,1.4934
3747.00,1.4679
3746.00,1.4429
3745.00,1.4179
3744.00,1.3917
3743.00,1.3647
3742.00,1.3377
3741.00,1.3107
3740.00,1.2831
3739.00,1.2545
3738.00,1.2249
3737.00,1.1940
3736.00,1.1616
3735.00,1.1287
3734.00,1.0967
3733.00,1.0668
3732.00,1.0390
3731.00,1.0128
3730.00,0.9885
3729.00,0.9666
3728.00,0.9468
3727.00,0.9290
3726.00,0.9135
3725.00,0.9008
3724.00,0.8912
3723.00,0.8848
3722.00,0.8816
3721.00,0.8816
3720.00,0.8848
3719.00,0.8892
3718.00,0.8922
3717.00,0.8934
3716.00,0.8970
3715.00,0.9097
3714.00,0.9346
3713.00,0.9687
3712.00,1.0048
3711.00,1.0385
3710.00,1.0698
3709.00,1.1006
3708.00,1.1313
3707.00,1.1618
3706.00,1.1918
3705.00,1.2213
3704.00,1.2508
3703.00,1.2809
3702.00,1.3121
3701.00,1.3440
3700.00,1.3761
3699.00,1.4074
3698.00,1.4377
3697.00,1.4669
3696.00,1.4948
3695.00,1.5213
3694.00,1.5461
3693.00,1.5699
3692.00,1.5927
3691.00,1.6148
3690.00,1.6363
3689.00,1.6585
3688.00,1.6815
3687.00,1.7042
3686.00,1.7251
3685.00,1.7437
3684.00,1.7604
3683.00,1.7758
3682.00,1.7900
3681.00,1.8026
3680.00,1.8132
3679.00,1.8219
3678.00,1.8293
3677.00,1.8367
3676.00,1.8449
3675.00,1.8540
3674.00,1.8626
3673.00,1.8695
3672.00,1.8749
3671.00,1.8800
3670.00,1.8860
3669.00,1.8930
3668.00,1.9002
3667.00,1.9066
3666.00,1.9116
3665.00,1.9157
3664.00,1.9194
3663.00,1.9231
3662.00,1.9262
3661.00,1.9282
3660.00,1.9290
3659.00,1.9289
3658.00,1.9285
3657.00,1.9280
3656.00,1.9271
3655.00,1.9251
3654.00,1.9218
3653.00,1.9179
3652.00,1.9146
3651.00,1.9119
3650.00,1.9088
3649.00,1.9049
3648.00,1.9008
3647.00,1.8971
3646.00,1.8938
3645.00,1.8903
3644.00,1.8861
3643.00,1.8812
3642.00,1.8755
3641.00,1.8692
3640.00,1.8622
3639.00,1.8542
3638.00,1.8453
3637.00,1.8359
3636.00,1.8260
3635.00,1.8155
3634.00,1.8040
3633.00,1.7910
3632.00,1.7768
3631.00,1.7625
3630.00,1.7490
3629.00,1.7364
3628.00,1.7241
3627.00,1.7117
3626.00,1.6988
3625.00,1.6859
3624.00,1.6720
3623.00,1.6587
3622.00,1.6409
3621.00,1.6254
3620.00,1.6120
3619.00,1.5978
3618.00,1.5841
3617.00,1.5703
3616.00,1.5566
3615.00,1.5430
3614.00,1.5295
3613.00,1.5163
3612.00,1.5036
3611.00,1.4921
3610.00,1.4821
3609.00,1.4755
3608.00,1.4690
3607.00,1.4617
3606.00,1.4553
3605.00,1.4494
3604.00,1.4447
3603.00,1.4408
3602.00,1.4378
3601.00,1.4355
3600.00,1.4341
3599.00,1.4335
3598.00,1.4339
3597.00,1.4353
3596.00,1.4378
3595.00,1.4416
3594.00,1.4465
3593.00,1.4520
3592.00,1.4579
3591.00,1.4645
3590.00,1.4723
3589.00,1.4816
3588.00,1.4924
3587.00,1.5044
3586.00,1.5172
3585.00,1.5303
3584.00,1.5434
3583.00,1.5568
3582.00,1.5709
3581.00,1.5858
3580.00,1.6013
3579.00,1.6171
3578.00,1.6330
3577.00,1.6490
3576.00,1.6651
3575.00,1.6812
3574.00,1.6970
3573.00,1.7124
3572.00,1.7273
3571.00,1.7419
3570.00,1.7566
3569.00,1.7718
3568.00,1.7875
3567.00,1.8033
3566.00,1.8191
3565.00,1.8346
3564.00,1.8496
3563.00,1.8638
3562.00,1.8772
3561.00,1.8900
3560.00,1.9023
3559.00,1.9144
3558.00,1.9264
3557.00,1.9383
3556.00,1.9499
3555.00,1.9611
3554.00,1.9716
3553.00,1.9814
3552.00,1.9906
3551.00,1.9992
3550.00,2.0075
3549.00,2.0155
3548.00,2.0231
3547.00,2.0300
3546.00,2.0365
3545.00,2.0429
3544.00,2.0493
3543.00,2.0558
3542.00,2.0620
3541.00,2.0677
3540.00,2.0728
3539.00,2.0775
3538.00,2.0818
3537.00,2.0859
3536.00,2.0896
3535.00,2.0927
3534.00,2.0950
3533.00,2.0970
3532.00,2.0988
3531.00,2.1006
3530.00,2.1020
3529.00,2.1031
3528.00,2.1038
3527.00,2.1042
3526.00,2.1040
3525.00,2.1032
3524.00,2.1020
3523.00,2.1005
3522.00,2.0988
3521.00,2.0968
3520.00,2.0945
3519.00,2.0921
3518.00,2.0896
3517.00,2.0868
3516.00,2.0836
3515.00,2.0798
3514.00,2.0758
3513.00,2.0715
3512.00,2.0667
3511.00,2.0611
3510.00,2.0549
3509.00,2.0485
3508.00,2.0422
3507.00,2.0359
3506.00,2.0294
3505.00,2.0227
3504.00,2.0158
3503.00,2.0082
3502.00,1.9999
3501.00,1.9909
3500.00,1.9812
3499.00,1.9710
3498.00,1.9604
3497.00,1.9495
3496.00,1.9383
3495.00,1.9267
3494.00,1.9149
3493.00,1.9030
3492.00,1.8910
3491.00,1.8789
3490.00,1.8667
3489.00,1.8541
3488.00,1.8411
3487.00,1.8277
3486.00,1.8141
3485.00,1.8003
3484.00,1.7865
3483.00,1.7727
3482.00,1.7591
3481.00,1.7456
3480.00,1.7321
3479.00,1.7186
3478.00,1.7052
3477.00,1.6923
3476.00,1.6801
3475.00,1.6686
3474.00,1.6576
3473.00,1.6470
3472.00,1.6368
3471.00,1.6270
3470.00,1.6180
3469.00,1.6099
3468.00,1.6029
3467.00,1.5970
3466.00,1.5920
3465.00,1.5880
3464.00,1.5848
3463.00,1.5823
3462.00,1.5806
3461.00,1.5799
3460.00,1.5805
3459.00,1.5823
3458.00,1.5854
3457.00,1.5897
3456.00,1.5949
3455.00,1.6010
3454.00,1.6080
3453.00,1.6160
3452.00,1.6250
3451.00,1.6345
3450.00,1.6447
3449.00,1.6555
3448.00,1.6671
3447.00,1.6793
3446.00,1.6921
3445.00,1.7054
3444.00,1.7191
3443.00,1.7332
3442.00,1.7475
3441.00,1.7620
3440.00,1.7764
3439.00,1.7910
3438.00,1.8059
3437.00,1.8211
3436.00,1.8363
3435.00,1.8511
3434.00,1.8656
3433.00,1.8801
3432.00,1.8946
3431.00,1.9091
3430.00,1.9234
3429.00,1.9373
3428.00,1.9510
3427.00,1.9642
3426.00,1.9770
3425.00,1.9896
3424.00,2.0017
3423.00,2.0132
3422.00,2.0243
3421.00,2.0353
3420.00,2.0459
3419.00,2.0557
3418.00,2.0643
3417.00,2.0724
3416.00,2.0805
3415.00,2.0889
3414.00,2.0974
3413.00,2.1054
3412.00,2.1128
3411.00,2.1192
3410.00,2.1247
3409.00,2.1295
3408.00,2.1336
3407.00,2.1371
3406.00,2.1402
3405.00,2.1432
3404.00,2.1464
3403.00,2.1495
3402.00,2.1519
3401.00,2.1531
3400.00,2.1533
3399.00,2.1527
3398.00,2.1517
3397.00,2.1505
3396.00,2.1493
3395.00,2.1480
3394.00,2.1461
3393.00,2.1433
3392.00,2.1399
3391.00,2.1364
3390.00,2.1331
3389.00,2.1297
3388.00,2.1258
3387.00,2.1211
3386.00,2.1158
3385.00,2.1106
3384.00,2.1055
3383.00,2.1003
3382.00,2.0942
3381.00,2.0873
3380.00,2.0796
3379.00,2.0716
3378.00,2.0632
3377.00,2.0542
3376.00,2.0443
3375.00,2.0336
3374.00,2.0227
3373.00,2.0118
3372.00,2.0008
3371.00,1.9892
3370.00,1.9768
3369.00,1.9636
3368.00,1.9498
3367.00,1.9356
3366.00,1.9206
3365.00,1.9049
3364.00,1.8887
3363.00,1.8722
3362.00,1.8555
3361.00,1.8386
3360.00,1.8209
3359.00,1.8024
3358.00,1.7832
3357.00,1.7637
3356.00,1.7442
3355.00,1.7248
3354.00,1.7051
3353.00,1.6853
3352.00,1.6654
3351.00,1.6456
3350.00,1.6261
3349.00,1.6069
3348.00,1.5883
3347.00,1.5703
3346.00,1.5530
3345.00,1.5365
3344.00,1.5210
3343.00,1.5065
3342.00,1.4932
3341.00,1.4814
3340.00,1.4711
3339.00,1.4622
3338.00,1.4549
3337.00,1.4491
3336.00,1.4448
3335.00,1.4423
3334.00,1.4416
3333.00,1.4428
3332.00,1.4459
3331.00,1.4507
3330.00,1.4572
3329.00,1.4653
3328.00,1.4749
3327.00,1.4857
3326.00,1.4979
3325.00,1.5112
3324.00,1.5256
3323.00,1.5410
3322.00,1.5575
3321.00,1.5749
3320.00,1.5930
3319.00,1.6117
3318.00,1.6306
3317.00,1.6497
3316.00,1.6691
3315.00,1.6887
3314.00,1.7084
3313.00,1.7282
3312.00,1.7478
3311.00,1.7674
3310.00,1.7868
3309.00,1.8060
3308.00,1.8247
3307.00,1.8431
3306.00,1.8611
3305.00,1.8786
3304.00,1.8955
3303.00,1.9117
3302.00,1.9274
3301.00,1.9425
3300.00,1.9573
3299.00,1.9719
3298.00,1.9862
3297.00,1.9999
3296.00,2.0126
3295.00,2.0246
3294.00,2.0362
3293.00,2.0479
3292.00,2.0594
3291.00,2.0703
3290.00,2.0803
3289.00,2.0893
3288.00,2.0976
3287.00,2.1054
3286.00,2.1128
3285.00,2.1194
3284.00,2.1250
3283.00,2.1296
3282.00,2.1337
3281.00,2.1379
3280.00,2.1421
3279.00,2.1459
3278.00,2.1489
3277.00,2.1514
3276.00,2.1538
3275.00,2.1563
3274.00,2.1586
3273.00,2.1603
3272.00,2.1612
3271.00,2.1609
3270.00,2.1597
3269.00,2.1579
3268.00,2.1556
3267.00,2.1528
3266.00,2.1493
3265.00,2.1454
3264.00,2.1414
3263.00,2.1378
3262.00,2.1348
3261.00,2.1319
3260.00,2.1283
3259.00,2.1235
3258.00,2.1173
3257.00,2.1102
3256.00,2.1024
3255.00,2.0941
3254.00,2.0852
3253.00,2.0759
3252.00,2.0664
3251.00,2.0568
3250.00,2.0468
3249.00,2.0361
3248.00,2.0245
3247.00,2.0123
3246.00,1.9998
3245.00,1.9872
3244.00,1.9742
3243.00,1.9608
3242.00,1.9467
3241.00,1.9319
3240.00,1.9165
3239.00,1.9007
3238.00,1.8849
3237.00,1.8691
3236.00,1.8529
3235.00,1.8365
3234.00,1.8196
3233.00,1.8023
3232.00,1.7847
3231.00,1.7668
3230.00,1.7488
3229.00,1.7309
3228.00,1.7131
3227.00,1.6956
3226.00,1.6786
3225.00,1.6622
3224.00,1.6467
3223.00,1.6319
3222.00,1.6178
3221.00,1.6044
3220.00,1.5918
3219.00,1.5802
3218.00,1.5700
3217.00,1.5611
3216.00,1.5538
3215.00,1.5478
3214.00,1.5431
3213.00,1.5398
3212.00,1.5378
3211.00,1.5373
3210.00,1.5385
3209.00,1.5414
3208.00,1.5460
3207.00,1.5521
3206.00,1.5595
3205.00,1.5682
3204.00,1.5781
3203.00,1.5892
3202.00,1.6014
3201.00,1.6149
3200.00,1.6295
3199.00,1.6449
3198.00,1.6610
3197.00,1.6776
3196.00,1.6947
3195.00,1.7122
3194.00,1.7301
3193.00,1.7483
3192.00,1.7667
3191.00,1.7852
3190.00,1.8037
3189.00,1.8223
3188.00,1.8410
3187.00,1.8598
3186.00,1.8784
3185.00,1.8964
3184.00,1.9137
3183.00,1.9305
3182.00,1.9470
3181.00,1.9637
3180.00,1.9804
3179.00,1.9968
3178.00,2.0121
3177.00,2.0264
3176.00,2.0397
3175.00,2.0526
3174.00,2.0656
3173.00,2.0785
3172.00,2.0910
3171.00,2.1026
3170.00,2.1132
3169.00,2.1231
3168.00,2.1326
3167.00,2.1418
3166.00,2.1511
3165.00,2.1603
3164.00,2.1695
3163.00,2.1781
3162.00,2.1857
3161.00,2.1923
3160.00,2.1978
3159.00,2.2023
3158.00,2.2060
3157.00,2.2095
3156.00,2.2134
3155.00,2.2177
3154.00,2.2217
3153.00,2.2247
3152.00,2.2265
3151.00,2.2275
3150.00,2.2279
3149.00,2.2278
3148.00,2.2274
3147.00,2.2272
3146.00,2.2271
3145.00,2.2263
3144.00,2.2242
3143.00,2.2210
3142.00,2.2172
3141.00,2.2131
3140.00,2.2088
3139.00,2.2041
3138.00,2.1992
3137.00,2.1941
3136.00,2.1886
3135.00,2.1824
3134.00,2.1750
3133.00,2.1666
3132.00,2.1574
3131.00,2.1480
3130.00,2.1387
3129.00,2.1293
3128.00,2.1191
3127.00,2.1077
3126.00,2.0953
3125.00,2.0824
3124.00,2.0692
3123.00,2.0554
3122.00,2.0412
3121.00,2.0266
3120.00,2.0116
3119.00,1.9961
3118.00,1.9796
3117.00,1.9621
3116.00,1.9439
3115.00,1.9251
3114.00,1.9059
3113.00,1.8863
3112.00,1.8665
3111.00,1.8466
3110.00,1.8266
3109.00,1.8068
3108.00,1.7872
3107.00,1.7679
3106.00,1.7487
3105.00,1.7300
3104.00,1.7116
3103.00,1.6938
3102.00,1.6766
3101.00,1.6604
3100.00,1.6453
3099.00,1.6315
3098.00,1.6191
3097.00,1.6081
3096.00,1.5989
3095.00,1.5914
3094.00,1.5858
3093.00,1.5822
3092.00,1.5806
3091.00,1.5813
3090.00,1.5839
3089.00,1.5884
3088.00,1.5948
3087.00,1.6031
3086.00,1.6132
3085.00,1.6251
3084.00,1.6387
3083.00,1.6539
3082.00,1.6705
3081.00,1.6881
3080.00,1.7066
3079.00,1.7259
3078.00,1.7461
3077.00,1.7669
3076.00,1.7882
3075.00,1.8097
3074.00,1.8312
3073.00,1.8526
3072.00,1.8739
3071.00,1.8951
3070.00,1.9162
3069.00,1.9371
3068.00,1.9577
3067.00,1.9777
3066.00,1.9974
3065.00,2.0167
3064.00,2.0355
3063.00,2.0537
3062.00,2.0710
3061.00,2.0875
3060.00,2.1034
3059.00,2.1187
3058.00,2.1337
3057.00,2.1481
3056.00,2.1616
3055.00,2.1737
3054.00,2.1847
3053.00,2.1954
3052.00,2.2062
3051.00,2.2172
3050.00,2.2279
3049.00,2.2379
3048.00,2.2463
3047.00,2.2530
3046.00,2.2587
3045.00,2.2645
3044.00,2.2709
3043.00,2.2770
3042.00,2.2818
3041.00,2.2853
3040.00,2.2879
3039.00,2.2898
3038.00,2.2906
3037.00,2.2904
3036.00,2.2894
3035.00,2.2881
3034.00,2.2865
3033.00,2.2841
3032.00,2.2808
3031.00,2.2766
3030.00,2.2719
3029.00,2.2667
3028.00,2.2609
3027.00,2.2543
3026.00,2.2463
3025.00,2.2367
3024.00,2.2257
3023.00,2.2135
3022.00,2.2002
3021.00,2.1859
3020.00,2.1707
3019.00,2.1546
3018.00,2.1375
3017.00,2.1197
3016.00,2.1012
3015.00,2.0819
3014.00,2.0611
3013.00,2.0389
3012.00,2.0155
3011.00,1.9918
3010.00,1.9682
3009.00,1.9449
3008.00,1.9223
3007.00,1.9009
3006.00,1.8811
3005.00,1.8634
3004.00,1.8481
3003.00,1.8358
3002.00,1.8269
3001.00,1.8223
3000.00,1.8224
2999.00,1.8274
2998.00,1.8375
2997.00,1.8526
2996.00,1.8725
2995.00,1.8972
2994.00,1.9262
2993.00,1.9589
2992.00,1.9946
2991.00,2.0327
2990.00,2.0726
2989.00,2.1141
2988.00,2.1571
2987.00,2.2013
2986.00,2.2464
2985.00,2.2916
2984.00,2.3363
2983.00,2.3804
2982.00,2.4238
2981.00,2.4673
2980.00,2.5110
2979.00,2.5548
2978.00,2.5984
2977.00,2.6421
2976.00,2.6871
2975.00,2.7359
2974.00,2.7910
2973.00,2.8527
2972.00,2.9196
2971.00,2.9894
2970.00,3.0600
2969.00,3.1300
2968.00,3.1975
2967.00,3.2630
2966.00,3.3307
2965.00,3.4068
2964.00,3.4954
2963.00,3.5942
2962.00,3.6939
2961.00,3.7817
2960.00,3.8517
2959.00,3.9068
2958.00,3.9513
2957.00,3.9935
2956.00,4.0533
2955.00,4.1650
2954.00,4.3509
2953.00,4.5836
2952.00,4.6655
2951.00,4.4608
2950.00,4.2461
2949.00,4.1268
2948.00,4.1057
2947.00,4.1765
2946.00,4.2828
2945.00,4.3330
2944.00,4.3380
2943.00,4.4429
2942.00,4.7634
2941.00,4.9556
2940.00,4.6410
2939.00,4.3849
2938.00,4.3067
2937.00,4.3577
2936.00,4.4864
2935.00,4.5710
2934.00,4.4648
2933.00,4.3220
2932.00,4.2488
2931.00,4.2503
2930.00,4.3183
2929.00,4.3820
2928.00,4.3397
2927.00,4.2534
2926.00,4.1981
2925.00,4.1695
2924.00,4.1278
2923.00,4.0736
2922.00,4.0271
2921.00,3.9885
2920.00,3.9488
2919.00,3.8891
2918.00,3.7968
2917.00,3.6887
2916.00,3.5896
2915.00,3.5091
2914.00,3.4451
2913.00,3.3936
2912.00,3.3509
2911.00,3.3121
2910.00,3.2725
2909.00,3.2322
2908.00,3.1938
2907.00,3.1583
2906.00,3.1245
2905.00,3.0931
2904.00,3.0656
2903.00,3.0408
2902.00,3.0144
2901.00,2.9831
2900.00,2.9487
2899.00,2.9161
2898.00,2.8896
2897.00,2.8705
2896.00,2.8579
2895.00,2.8495
2894.00,2.8416
2893.00,2.8307
2892.00,2.8166
2891.00,2.8026
2890.00,2.7929
2889.00,2.7891
2888.00,2.7909
2887.00,2.7970
2886.00,2.8071
2885.00,2.8211
2884.00,2.8385
2883.00,2.8581
2882.00,2.8791
2881.00,2.9020
2880.00,2.9285
2879.00,2.9597
2878.00,2.9956
2877.00,3.0363
2876.00,3.0833
2875.00,3.1382
2874.00,3.1990
2873.00,3.2603
2872.00,3.3202
2871.00,3.3846
2870.00,3.4605
2869.00,3.5463
2868.00,3.6321
2867.00,3.7113
2866.00,3.7842
2865.00,3.8469
2864.00,3.8892
2863.00,3.9069
2862.00,3.9026
2861.00,3.8629
2860.00,3.7789
2859.00,3.6740
2858.00,3.5735
2857.00,3.4820
2856.00,3.3903
2855.00,3.2931
2854.00,3.1903
2853.00,3.0833
2852.00,2.9756
2851.00,2.8726
2850.00,2.7792
2849.00,2.6973
2848.00,2.6265
2847.00,2.5664
2846.00,2.5170
2845.00,2.4785
2844.00,2.4504
2843.00,2.4319
2842.00,2.4219
2841.00,2.4183
2840.00,2.4192
2839.00,2.4232
2838.00,2.4297
2837.00,2.4380
2836.00,2.4469
2835.00,2.4546
2834.00,2.4605
2833.00,2.4645
2832.00,2.4671
2831.00,2.4689
2830.00,2.4708
2829.00,2.4731
2828.00,2.4750
2827.00,2.4753
2826.00,2.4734
2825.00,2.4698
2824.00,2.4651
2823.00,2.4594
2822.00,2.4527
2821.00,2.4450
2820.00,2.4362
2819.00,2.4263
2818.00,2.4152
2817.00,2.4030
2816.00,2.3899
2815.00,2.3757
2814.00,2.3603
2813.00,2.3438
2812.00,2.3260
2811.00,2.3068
2810.00,2.2865
2809.00,2.2654
2808.00,2.2436
2807.00,2.2208
2806.00,2.1971
2805.00,2.1726
2804.00,2.1473
2803.00,2.1210
2802.00,2.0936
2801.00,2.0654
2800.00,2.0369
2799.00,2.0083
2798.00,1.9792
2797.00,1.9490
2796.00,1.9172
2795.00,1.8838
2794.00,1.8488
2793.00,1.8123
2792.00,1.7747
2791.00,1.7364
2790.00,1.6980
2789.00,1.6602
2788.00,1.6240
2787.00,1.5903
2786.00,1.5602
2785.00,1.5344
2784.00,1.5133
2783.00,1.4973
2782.00,1.4865
2781.00,1.4811
2780.00,1.4810
2779.00,1.4859
2778.00,1.4955
2777.00,1.5093
2776.00,1.5271
2775.00,1.5483
2774.00,1.5725
2773.00,1.5992
2772.00,1.6281
2771.00,1.6587
2770.00,1.6909
2769.00,1.7242
2768.00,1.7581
2767.00,1.7920
2766.00,1.8257
2765.00,1.8589
2764.00,1.8915
2763.00,1.9232
2762.00,1.9536
2761.00,1.9828
2760.00,2.0108
2759.00,2.0379
2758.00,2.0642
2757.00,2.0898
2756.00,2.1144
2755.00,2.1379
2754.00,2.1603
2753.00,2.1818
2752.00,2.2024
2751.00,2.2217
2750.00,2.2396
2749.00,2.2563
2748.00,2.2726
2747.00,2.2884
2746.00,2.3035
2745.00,2.3178
2744.00,2.3313
2743.00,2.3438
2742.00,2.3548
2741.00,2.3643
2740.00,2.3727
2739.00,2.3807
2738.00,2.3887
2737.00,2.3963
2736.00,2.4032
2735.00,2.4088
2734.00,2.4131
2733.00,2.4162
2732.00,2.4184
2731.00,2.4204
2730.00,2.4227
2729.00,2.4247
2728.00,2.4256
2727.00,2.4252
2726.00,2.4239
2725.00,2.4222
2724.00,2.4202
2723.00,2.4176
2722.00,2.4143
2721.00,2.4103
2720.00,2.4059
2719.00,2.4012
2718.00,2.3959
2717.00,2.3901
2716.00,2.3839
2715.00,2.3769
2714.00,2.3688
2713.00,2.3592
2712.00,2.3486
2711.00,2.3372
2710.00,2.3248
2709.00,2.3112
2708.00,2.2963
2707.00,2.2809
2706.00,2.2655
2705.00,2.2497
2704.00,2.2329
2703.00,2.2147
2702.00,2.1950
2701.00,2.1741
2700.00,2.1518
2699.00,2.1285
2698.00,2.1045
2697.00,2.0797
2696.00,2.0537
2695.00,2.0261
2694.00,1.9966
2693.00,1.9657
2692.00,1.9337
2691.00,1.9010
2690.00,1.8679
2689.00,1.8345
2688.00,1.8011
2687.00,1.7680
2686.00,1.7359
2685.00,1.7058
2684.00,1.6784
2683.00,1.6543
2682.00,1.6340
2681.00,1.6173
2680.00,1.6043
2679.00,1.5945
2678.00,1.5873
2677.00,1.5819
2676.00,1.5778
2675.00,1.5744
2674.00,1.5717
2673.00,1.5700
2672.00,1.5695
2671.00,1.5701
2670.00,1.5713
2669.00,1.5725
2668.00,1.5735
2667.00,1.5745
2666.00,1.5760
2665.00,1.5791
2664.00,1.5850
2663.00,1.5945
2662.00,1.6082
2661.00,1.6262
2660.00,1.6483
2659.00,1.6737
2658.00,1.7017
2657.00,1.7315
2656.00,1.7625
2655.00,1.7941
2654.00,1.8257
2653.00,1.8570
2652.00,1.8879
2651.00,1.9184
2650.00,1.9483
2649.00,1.9773
2648.00,2.0050
2647.00,2.0315
2646.00,2.0569
2645.00,2.0816
2644.00,2.1057
2643.00,2.1294
2642.00,2.1525
2641.00,2.1746
2640.00,2.1956
2639.00,2.2157
2638.00,2.2355
2637.00,2.2551
2636.00,2.2743
2635.00,2.2931
2634.00,2.3112
2633.00,2.3282
2632.00,2.3440
2631.00,2.3583
2630.00,2.3717
2629.00,2.3843
2628.00,2.3967
2627.00,2.4091
2626.00,2.4215
2625.00,2.4333
2624.00,2.4436
2623.00,2.4517
2622.00,2.4580
2621.00,2.4640
2620.00,2.4704
2619.00,2.4772
2618.00,2.4835
2617.00,2.4884
2616.00,2.4920
2615.00,2.4954
2614.00,2.4991
2613.00,2.5025
2612.00,2.5046
2611.00,2.5052
2610.00,2.5048
2609.00,2.5040
2608.00,2.5033
2607.00,2.5028
2606.00,2.5019
2605.00,2.5003
2604.00,2.4981
2603.00,2.4959
2602.00,2.4936
2601.00,2.4909
2600.00,2.4871
2599.00,2.4821
2598.00,2.4761
2597.00,2.4693
2596.00,2.4616
2595.00,2.4534
2594.00,2.4447
2593.00,2.4356
2592.00,2.4257
2591.00,2.4153
2590.00,2.4046
2589.00,2.3933
2588.00,2.3810
2587.00,2.3677
2586.00,2.3538
2585.00,2.3393
2584.00,2.3239
2583.00,2.3074
2582.00,2.2899
2581.00,2.2714
2580.00,2.2520
2579.00,2.2316
2578.00,2.2105
2577.00,2.1888
2576.00,2.1662
2575.00,2.1425
2574.00,2.1173
2573.00,2.0906
2572.00,2.0624
2571.00,2.0327
2570.00,2.0014
2569.00,1.9687
2568.00,1.9347
2567.00,1.8995
2566.00,1.8631
2565.00,1.8255
2564.00,1.7865
2563.00,1.7464
2562.00,1.7054
2561.00,1.6643
2560.00,1.6233
2559.00,1.5833
2558.00,1.5449
2557.00,1.5088
2556.00,1.4757
2555.00,1.4460
2554.00,1.4203
2553.00,1.3993
2552.00,1.3831
2551.00,1.3718
2550.00,1.3659
2549.00,1.3652
2548.00,1.3700
2547.00,1.3800
2546.00,1.3947
2545.00,1.4140
2544.00,1.4373
2543.00,1.4641
2542.00,1.4940
2541.00,1.5265
2540.00,1.5608
2539.00,1.5967
2538.00,1.6334
2537.00,1.6707
2536.00,1.7083
2535.00,1.7460
2534.00,1.7837
2533.00,1.8209
2532.00,1.8574
2531.00,1.8932
2530.00,1.9286
2529.00,1.9635
2528.00,1.9978
2527.00,2.0309
2526.00,2.0626
2525.00,2.0929
2524.00,2.1218
2523.00,2.1495
2522.00,2.1764
2521.00,2.2024
2520.00,2.2266
2519.00,2.2489
2518.00,2.2698
2517.00,2.2902
2516.00,2.3109
2515.00,2.3315
2514.00,2.3514
2513.00,2.3703
2512.00,2.3880
2511.00,2.4043
2510.00,2.4193
2509.00,2.4334
2508.00,2.4468
2507.00,2.4592
2506.00,2.4704
2505.00,2.4807
2504.00,2.4902
2503.00,2.4993
2502.00,2.5087
2501.00,2.5187
2500.00,2.5289
2499.00,2.5381
2498.00,2.5454
2497.00,2.5509
2496.00,2.5554
2495.00,2.5596
2494.00,2.5634
2493.00,2.5662
2492.00,2.5684
2491.00,2.5709
2490.00,2.5744
2489.00,2.5783
2488.00,2.5810
2487.00,2.5816
2486.00,2.5803
2485.00,2.5783
2484.00,2.5761
2483.00,2.5742
2482.00,2.5722
2481.00,2.5698
2480.00,2.5663
2479.00,2.5622
2478.00,2.5578
2477.00,2.5532
2476.00,2.5477
2475.00,2.5413
2474.00,2.5347
2473.00,2.5287
2472.00,2.5225
2471.00,2.5146
2470.00,2.5048
2469.00,2.4939
2468.00,2.4829
2467.00,2.4718
2466.00,2.4601
2465.00,2.4477
2464.00,2.4345
2463.00,2.4206
2462.00,2.4057
2461.00,2.3891
2460.00,2.3707
2459.00,2.3510
2458.00,2.3311
2457.00,2.3114
2456.00,2.2913
2455.00,2.2698
2454.00,2.2465
2453.00,2.2215
2452.00,2.1948
2451.00,2.1667
2450.00,2.1373
2449.00,2.1066
2448.00,2.0745
2447.00,2.0406
2446.00,2.0045
2445.00,1.9663
2444.00,1.9261
2443.00,1.8839
2442.00,1.8399
2441.00,1.7942
2440.00,1.7474
2439.00,1.6998
2438.00,1.6520
2437.00,1.6046
2436.00,1.5584
2435.00,1.5146
2434.00,1.4741
2433.00,1.4379
2432.00,1.4066
2431.00,1.3808
2430.00,1.3605
2429.00,1.3459
2428.00,1.3371
2427.00,1.3341
2426.00,1.3367
2425.00,1.3449
2424.00,1.3584
2423.00,1.3770
2422.00,1.4004
2421.00,1.4281
2420.00,1.4596
2419.00,1.4942
2418.00,1.5314
2417.00,1.5705
2416.00,1.6111
2415.00,1.6528
2414.00,1.6953
2413.00,1.7382
2412.00,1.7812
2411.00,1.8238
2410.00,1.8660
2409.00,1.9078
2408.00,1.9490
2407.00,1.9895
2406.00,2.0287
2405.00,2.0667
2404.00,2.1032
2403.00,2.1379
2402.00,2.1704
2401.00,2.2009
2400.00,2.2299
2399.00,2.2578
2398.00,2.2849
2397.00,2.3113
2396.00,2.3364
2395.00,2.3598
2394.00,2.3817
2393.00,2.4021
2392.00,2.4218
2391.00,2.4405
2390.00,2.4600
2389.00,2.4788
2388.00,2.4889
2387.00,2.5040
2386.00,2.5164
2385.00,2.5283
2384.00,2.5403
2383.00,2.5532
2382.00,2.5662
2381.00,2.5787
2380.00,2.5904
2379.00,2.6010
2378.00,2.6109
2377.00,2.6204
2376.00,2.6297
2375.00,2.6387
2374.00,2.6469
2373.00,2.6534
2372.00,2.6574
2371.00,2.6589
2370.00,2.6601
2369.00,2.6634
2368.00,2.6696
2367.00,2.6765
2366.00,2.6815
2365.00,2.6837
2364.00,2.6844
2363.00,2.6847
2362.00,2.6846
2361.00,2.6835
2360.00,2.6810
2359.00,2.6775
2358.00,2.6741
2357.00,2.6717
2356.00,2.6702
2355.00,2.6679
2354.00,2.6625
2353.00,2.6536
2352.00,2.6426
2351.00,2.6313
2350.00,2.6206
2349.00,2.6111
2348.00,2.6033
2347.00,2.5972
2346.00,2.5923
2345.00,2.5866
2344.00,2.5782
2343.00,2.5663
2342.00,2.5518
2341.00,2.5365
2340.00,2.5215
2339.00,2.5067
2338.00,2.4914
2337.00,2.4751
2336.00,2.4579
2335.00,2.4398
2334.00,2.4211
2333.00,2.4016
2332.00,2.3815
2331.00,2.3591
2330.00,2.3371
2329.00,2.3081
2328.00,2.2855
2327.00,2.2467
2326.00,2.2316
2325.00,2.1612
2324.00,1.8864
2323.00,1.8940
2322.00,1.8670
2321.00,1.8416
2320.00,1.8071
2319.00,1.7668
2318.00,1.7312
2317.00,1.7005
2316.00,1.6952
2315.00,1.6961
2314.00,1.7097
2313.00,1.7077
2312.00,1.7030
2311.00,1.6807
2310.00,1.6597
2309.00,1.6299
2308.00,1.6045
2307.00,1.5744
2306.00,1.5501
2305.00,1.5271
2304.00,1.5150
2303.00,1.5081
2302.00,1.5125
2301.00,1.5191
2300.00,1.5339
2299.00,1.5500
2298.00,1.5743
2297.00,1.6002
2296.00,1.6323
2295.00,1.6649
2294.00,1.7006
2293.00,1.7363
2292.00,1.7734
2291.00,1.8114
2290.00,1.8505
2289.00,1.8904
2288.00,1.9297
2287.00,1.9682
2286.00,2.0044
2285.00,2.0399
2284.00,2.0753
2283.00,2.1129
2282.00,2.1515
2281.00,2.1900
2280.00,2.2260
2279.00,2.2592
2278.00,2.2899
2277.00,2.3184
2276.00,2.3459
2275.00,2.3723
2274.00,2.3981
2273.00,2.4225
2272.00,2.4457
2271.00,2.4675
2270.00,2.4881
2269.00,2.5076
2268.00,2.5262
2267.00,2.5439
2266.00,2.5610
2265.00,2.5770
2264.00,2.5922
2263.00,2.6066
2262.00,2.6200
2261.00,2.6332
2260.00,2.6459
2259.00,2.6582
2258.00,2.6686
2257.00,2.6773
2256.00,2.6858
2255.00,2.6956
2254.00,2.7059
2253.00,2.7141
2252.00,2.7194
2251.00,2.7229
2250.00,2.7267
2249.00,2.7307
2248.00,2.7344
2247.00,2.7373
2246.00,2.7399
2245.00,2.7422
2244.00,2.7442
2243.00,2.7469
2242.00,2.7502
2241.00,2.7531
2240.00,2.7539
2239.00,2.7526
2238.00,2.7500
2237.00,2.7468
2236.00,2.7436
2235.00,2.7410
2234.00,2.7394
2233.00,2.7375
2232.00,2.7340
2231.00,2.7287
2230.00,2.7227
2229.00,2.7166
2228.00,2.7099
2227.00,2.7023
2226.00,2.6944
2225.00,2.6866
2224.00,2.6786
2223.00,2.6697
2222.00,2.6595
2221.00,2.6479
2220.00,2.6353
2219.00,2.6221
2218.00,2.6085
2217.00,2.5943
2216.00,2.5792
2215.00,2.5635
2214.00,2.5475
2213.00,2.5315
2212.00,2.5146
2211.00,2.4962
2210.00,2.4762
2209.00,2.4546
2208.00,2.4316
2207.00,2.4072
2206.00,2.3816
2205.00,2.3549
2204.00,2.3266
2203.00,2.2966
2202.00,2.2648
2201.00,2.2314
2200.00,2.1959
2199.00,2.1578
2198.00,2.1170
2197.00,2.0739
2196.00,2.0287
2195.00,1.9817
2194.00,1.9331
2193.00,1.8832
2192.00,1.8326
2191.00,1.7817
2190.00,1.7317
2189.00,1.6835
2188.00,1.6385
2187.00,1.5974
2186.00,1.5612
2185.00,1.5304
2184.00,1.5057
2183.00,1.4876
2182.00,1.4765
2181.00,1.4726
2180.00,1.4757
2179.00,1.4850
2178.00,1.4999
2177.00,1.5193
2176.00,1.5426
2175.00,1.5689
2174.00,1.5979
2173.00,1.6295
2172.00,1.6637
2171.00,1.7004
2170.00,1.7394
2169.00,1.7803
2168.00,1.8229
2167.00,1.8667
2166.00,1.9113
2165.00,1.9562
2164.00,2.0011
2163.00,2.0455
2162.00,2.0890
2161.00,2.1313
2160.00,2.1721
2159.00,2.2113
2158.00,2.2496
2157.00,2.2871
2156.00,2.3232
2155.00,2.3571
2154.00,2.3883
2153.00,2.4170
2152.00,2.4441
2151.00,2.4706
2150.00,2.4973
2149.00,2.5238
2148.00,2.5487
2147.00,2.5709
2146.00,2.5911
2145.00,2.6105
2144.00,2.6294
2143.00,2.6466
2142.00,2.6616
2141.00,2.6747
2140.00,2.6871
2139.00,2.6997
2138.00,2.7131
2137.00,2.7276
2136.00,2.7426
2135.00,2.7565
2134.00,2.7681
2133.00,2.7767
2132.00,2.7824
2131.00,2.7862
2130.00,2.7902
2129.00,2.7963
2128.00,2.8042
2127.00,2.8116
2126.00,2.8172
2125.00,2.8217
2124.00,2.8269
2123.00,2.8330
2122.00,2.8385
2121.00,2.8406
2120.00,2.8388
2119.00,2.8356
2118.00,2.8339
2117.00,2.8346
2116.00,2.8360
2115.00,2.8362
2114.00,2.8350
2113.00,2.8331
2112.00,2.8306
2111.00,2.8274
2110.00,2.8240
2109.00,2.8207
2108.00,2.8172
2107.00,2.8128
2106.00,2.8074
2105.00,2.8011
2104.00,2.7937
2103.00,2.7854
2102.00,2.7774
2101.00,2.7710
2100.00,2.7649
2099.00,2.7565
2098.00,2.7447
2097.00,2.7311
2096.00,2.7177
2095.00,2.7051
2094.00,2.6929
2093.00,2.6803
2092.00,2.6664
2091.00,2.6500
2090.00,2.6309
2089.00,2.6103
2088.00,2.5896
2087.00,2.5692
2086.00,2.5484
2085.00,2.5263
2084.00,2.5025
2083.00,2.4768
2082.00,2.4491
2081.00,2.4194
2080.00,2.3880
2079.00,2.3548
2078.00,2.3196
2077.00,2.2821
2076.00,2.2425
2075.00,2.2011
2074.00,2.1584
2073.00,2.1143
2072.00,2.0687
2071.00,2.0218
2070.00,1.9746
2069.00,1.9283
2068.00,1.8835
2067.00,1.8405
2066.00,1.7992
2065.00,1.7598
2064.00,1.7226
2063.00,1.6878
2062.00,1.6556
2061.00,1.6262
2060.00,1.5999
2059.00,1.5774
2058.00,1.5596
2057.00,1.5477
2056.00,1.5426
2055.00,1.5452
2054.00,1.5558
2053.00,1.5745
2052.00,1.6008
2051.00,1.6340
2050.00,1.6730
2049.00,1.7170
2048.00,1.7647
2047.00,1.8147
2046.00,1.8659
2045.00,1.9177
2044.00,1.9699
2043.00,2.0222
2042.00,2.0735
2041.00,2.1233
2040.00,2.1714
2039.00,2.2181
2038.00,2.2632
2037.00,2.3064
2036.00,2.3472
2035.00,2.3850
2034.00,2.4198
2033.00,2.4522
2032.00,2.4827
2031.00,2.5123
2030.00,2.5409
2029.00,2.5685
2028.00,2.5951
2027.00,2.6207
2026.00,2.6455
2025.00,2.6689
2024.00,2.6898
2023.00,2.7075
2022.00,2.7224
2021.00,2.7362
2020.00,2.7498
2019.00,2.7632
2018.00,2.7764
2017.00,2.7899
2016.00,2.8040
2015.00,2.8188
2014.00,2.8333
2013.00,2.8461
2012.00,2.8558
2011.00,2.8623
2010.00,2.8672
2009.00,2.8725
2008.00,2.8792
2007.00,2.8867
2006.00,2.8946
2005.00,2.9032
2004.00,2.9120
2003.00,2.9188
2002.00,2.9216
2001.00,2.9210
2000.00,2.9199
1999.00,2.9210
1998.00,2.9254
1997.00,2.9319
1996.00,2.9369
1995.00,2.9373
1994.00,2.9328
1993.00,2.9273
1992.00,2.9244
1991.00,2.9246
1990.00,2.9250
1989.00,2.9237
1988.00,2.9207
1987.00,2.9167
1986.00,2.9116
1985.00,2.9050
1984.00,2.8973
1983.00,2.8888
1982.00,2.8798
1981.00,2.8704
1980.00,2.8613
1979.00,2.8522
1978.00,2.8422
1977.00,2.8310
1976.00,2.8191
1975.00,2.8073
1974.00,2.7958
1973.00,2.7838
1972.00,2.7708
1971.00,2.7573
1970.00,2.7436
1969.00,2.7282
1968.00,2.7092
1967.00,2.6864
1966.00,2.6619
1965.00,2.6368
1964.00,2.6111
1963.00,2.5844
1962.00,2.5572
1961.00,2.5299
1960.00,2.5012
1959.00,2.4695
1958.00,2.4347
1957.00,2.3977
1956.00,2.3589
1955.00,2.3178
1954.00,2.2741
1953.00,2.2280
1952.00,2.1799
1951.00,2.1302
1950.00,2.0791
1949.00,2.0272
1948.00,1.9749
1947.00,1.9230
1946.00,1.8723
1945.00,1.8230
1944.00,1.7751
1943.00,1.7292
1942.00,1.6872
1941.00,1.6516
1940.00,1.6238
1939.00,1.6043
1938.00,1.5933
1937.00,1.5913
1936.00,1.5990
1935.00,1.6161
1934.00,1.6422
1933.00,1.6764
1932.00,1.7176
1931.00,1.7645
1930.00,1.8156
1929.00,1.8697
1928.00,1.9261
1927.00,1.9839
1926.00,2.0420
1925.00,2.0988
1924.00,2.1532
1923.00,2.2056
1922.00,2.2570
1921.00,2.3068
1920.00,2.3535
1919.00,2.3962
1918.00,2.4362
1917.00,2.4756
1916.00,2.5142
1915.00,2.5505
1914.00,2.5833
1913.00,2.6133
1912.00,2.6423
1911.00,2.6708
1910.00,2.6973
1909.00,2.7205
1908.00,2.7413
1907.00,2.7623
1906.00,2.7847
1905.00,2.8070
1904.00,2.8264
1903.00,2.8419
1902.00,2.8544
1901.00,2.8660
1900.00,2.8780
1899.00,2.8910
1898.00,2.9050
1897.00,2.9193
1896.00,2.9329
1895.00,2.9444
1894.00,2.9534
1893.00,2.9615
1892.00,2.9711
1891.00,2.9828
1890.00,2.9946
1889.00,3.0036
1888.00,3.0090
1887.00,3.0127
1886.00,3.0166
1885.00,3.0206
1884.00,3.0238
1883.00,3.0255
1882.00,3.0269
1881.00,3.0301
1880.00,3.0359
1879.00,3.0413
1878.00,3.0419
1877.00,3.0363
1876.00,3.0286
1875.00,3.0238
1874.00,3.0234
1873.00,3.0243
1872.00,3.0219
1871.00,3.0137
1870.00,3.0007
1869.00,2.9869
1868.00,2.9763
1867.00,2.9696
1866.00,2.9647
1865.00,2.9590
1864.00,2.9510
1863.00,2.9401
1862.00,2.9258
1861.00,2.9080
1860.00,2.8873
1859.00,2.8646
1858.00,2.8410
1857.00,2.8179
1856.00,2.7960
1855.00,2.7741
1854.00,2.7504
1853.00,2.7240
1852.00,2.6958
1851.00,2.6662
1850.00,2.6347
1849.00,2.6012
1848.00,2.5662
1847.00,2.5283
1846.00,2.4843
1845.00,2.4321
1844.00,2.3741
1843.00,2.3145
1842.00,2.2563
1841.00,2.1991
1840.00,2.1412
1839.00,2.0815
1838.00,2.0216
1837.00,1.9645
1836.00,1.9133
1835.00,1.8707
1834.00,1.8380
1833.00,1.8152
1832.00,1.8013
1831.00,1.7966
1830.00,1.8048
1829.00,1.8278
1828.00,1.8633
1827.00,1.9069
1826.00,1.9557
1825.00,2.0099
1824.00,2.0700
1823.00,2.1339
1822.00,2.1990
1821.00,2.2640
1820.00,2.3280
1819.00,2.3901
1818.00,2.4500
1817.00,2.5077
1816.00,2.5633
1815.00,2.6159
1814.00,2.6639
1813.00,2.7068
1812.00,2.7442
1811.00,2.7777
1810.00,2.8091
1809.00,2.8382
1808.00,2.8633
1807.00,2.8844
1806.00,2.9043
1805.00,2.9248
1804.00,2.9446
1803.00,2.9608
1802.00,2.9732
1801.00,2.9848
1800.00,2.9980
1799.00,3.0128
1798.00,3.0284
1797.00,3.0438
1796.00,3.0580
1795.00,3.0702
1794.00,3.0806
1793.00,3.0901
1792.00,3.1000
1791.00,3.1111
1790.00,3.1244
1789.00,3.1393
1788.00,3.1540
1787.00,3.1640
1786.00,3.1650
1785.00,3.1572
1784.00,3.1447
1783.00,3.1324
1782.00,3.1224
1781.00,3.1132
1780.00,3.1024
1779.00,3.0884
1778.00,3.0720
1777.00,3.0553
1776.00,3.0391
1775.00,3.0216
1774.00,2.9998
1773.00,2.9762
1772.00,2.9588
1771.00,2.9511
1770.00,2.9494
1769.00,2.9465
1768.00,2.9390
1767.00,2.9270
1766.00,2.9117
1765.00,2.8927
1764.00,2.8700
1763.00,2.8463
1762.00,2.8269
1761.00,2.8180
1760.00,2.8225
1759.00,2.8402
1758.00,2.8693
1757.00,2.9094
1756.00,2.9611
1755.00,3.0222
1754.00,3.0874
1753.00,3.1508
1752.00,3.2101
1751.00,3.2688
1750.00,3.3316
1749.00,3.3984
1748.00,3.4657
1747.00,3.5330
1746.00,3.6026
1745.00,3.6721
1744.00,3.7325
1743.00,3.7828
1742.00,3.8351
1741.00,3.8996
1740.00,3.9781
1739.00,4.0609
1738.00,4.1242
1737.00,4.1482
1736.00,4.1440
1735.00,4.1553
1734.00,4.2356
1733.00,4.3878
1732.00,4.4882
1731.00,4.4593
1730.00,4.4115
1729.00,4.3848
1728.00,4.3568
1727.00,4.3287
1726.00,4.3293
1725.00,4.3981
1724.00,4.5530
1723.00,4.6343
1722.00,4.5794
1721.00,4.5694
1720.00,4.5375
1719.00,4.4163
1718.00,4.2973
1717.00,4.2674
1716.00,4.3289
1715.00,4.4028
1714.00,4.4195
1713.00,4.4077
1712.00,4.3805
1711.00,4.3330
1710.00,4.2832
1709.00,4.2521
1708.00,4.2549
1707.00,4.3000
1706.00,4.3762
1705.00,4.4350
1704.00,4.4467
1703.00,4.4404
1702.00,4.4412
1701.00,4.4771
1700.00,4.5557
1699.00,4.6643
1698.00,4.8040
1697.00,4.8429
1696.00,4.6847
1695.00,4.4682
1694.00,4.3032
1693.00,4.1883
1692.00,4.0983
1691.00,4.0210
1690.00,3.9437
1689.00,3.8560
1688.00,3.7634
1687.00,3.6809
1686.00,3.6131
1685.00,3.5528
1684.00,3.4929
1683.00,3.4340
1682.00,3.3873
1681.00,3.3595
1680.00,3.3476
1679.00,3.3431
1678.00,3.3337
1677.00,3.3088
1676.00,3.2699
1675.00,3.2324
1674.00,3.2099
1673.00,3.2025
1672.00,3.2012
1671.00,3.2002
1670.00,3.2008
1669.00,3.2057
1668.00,3.2147
1667.00,3.2262
1666.00,3.2375
1665.00,3.2430
1664.00,3.2397
1663.00,3.2333
1662.00,3.2334
1661.00,3.2427
1660.00,3.2560
1659.00,3.2656
1658.00,3.2685
1657.00,3.2660
1656.00,3.2589
1655.00,3.2428
1654.00,3.2205
1653.00,3.2061
1652.00,3.1981
1651.00,3.1911
1650.00,3.1832
1649.00,3.1699
1648.00,3.1499
1647.00,3.1298
1646.00,3.1150
1645.00,3.1029
1644.00,3.0884
1643.00,3.0697
1642.00,3.0479
1641.00,3.0258
1640.00,3.0054
1639.00,2.9860
1638.00,2.9625
1637.00,2.9305
1636.00,2.8935
1635.00,2.8587
1634.00,2.8292
1633.00,2.8027
1632.00,2.7744
1631.00,2.7404
1630.00,2.6988
1629.00,2.6500
1628.00,2.5980
1627.00,2.5475
1626.00,2.5005
1625.00,2.4557
1624.00,2.4136
1623.00,2.3792
1622.00,2.3571
1621.00,2.3472
1620.00,2.3451
1619.00,2.3461
1618.00,2.3507
1617.00,2.3655
1616.00,2.3948
1615.00,2.4336
1614.00,2.4755
1613.00,2.5183
1612.00,2.5620
1611.00,2.6059
1610.00,2.6486
1609.00,2.6896
1608.00,2.7296
1607.00,2.7692
1606.00,2.8079
1605.00,2.8456
1604.00,2.8819
1603.00,2.9146
1602.00,2.9419
1601.00,2.9650
1600.00,2.9882
1599.00,3.0147
1598.00,3.0445
1597.00,3.0739
1596.00,3.0979
1595.00,3.1140
1594.00,3.1254
1593.00,3.1384
1592.00,3.1558
1591.00,3.1736
1590.00,3.1864
1589.00,3.1941
1588.00,3.2015
1587.00,3.2116
1586.00,3.2233
1585.00,3.2329
1584.00,3.2377
1583.00,3.2377
1582.00,3.2365
1581.00,3.2392
1580.00,3.2465
1579.00,3.2511
1578.00,3.2438
1577.00,3.2265
1576.00,3.2121
1575.00,3.2091
1574.00,3.2164
1573.00,3.2299
1572.00,3.2454
1571.00,3.2579
1570.00,3.2634
1569.00,3.2595
1568.00,3.2489
1567.00,3.2355
1566.00,3.2209
1565.00,3.2060
1564.00,3.1938
1563.00,3.1858
1562.00,3.1770
1561.00,3.1556
1560.00,3.1149
1559.00,3.0771
1558.00,3.0559
1557.00,3.0460
1556.00,3.0407
1555.00,3.0346
1554.00,3.0266
1553.00,3.0184
1552.00,3.0084
1551.00,2.9917
1550.00,2.9657
1549.00,2.9350
1548.00,2.9048
1547.00,2.8741
1546.00,2.8369
1545.00,2.7903
1544.00,2.7369
1543.00,2.6793
1542.00,2.6159
1541.00,2.5468
1540.00,2.4794
1539.00,2.4182
1538.00,2.3651
1537.00,2.3187
1536.00,2.2714
1535.00,2.2152
1534.00,2.1518
1533.00,2.0920
1532.00,2.0446
1531.00,2.0113
1530.00,1.9906
1529.00,1.9810
1528.00,1.9819
1527.00,1.9930
1526.00,2.0156
1525.00,2.0496
1524.00,2.0924
1523.00,2.1406
1522.00,2.1963
1521.00,2.2626
1520.00,2.3347
1519.00,2.4034
1518.00,2.4659
1517.00,2.5269
1516.00,2.5892
1515.00,2.6508
1514.00,2.7095
1513.00,2.7651
1512.00,2.8173
1511.00,2.8649
1510.00,2.9056
1509.00,2.9350
1508.00,2.9503
1507.00,2.9632
1506.00,2.9875
1505.00,3.0228
1504.00,3.0599
1503.00,3.0921
1502.00,3.1211
1501.00,3.1509
1500.00,3.1807
1499.00,3.2042
1498.00,3.2175
1497.00,3.2249
1496.00,3.2321
1495.00,3.2418
1494.00,3.2559
1493.00,3.2737
1492.00,3.2900
1491.00,3.2999
1490.00,3.3049
1489.00,3.3078
1488.00,3.3103
1487.00,3.3171
1486.00,3.3351
1485.00,3.3628
1484.00,3.3867
1483.00,3.3930
1482.00,3.3830
1481.00,3.3691
1480.00,3.3599
1479.00,3.3577
1478.00,3.3638
1477.00,3.3767
1476.00,3.3860
1475.00,3.3782
1474.00,3.3519
1473.00,3.3229
1472.00,3.3067
1471.00,3.3050
1470.00,3.3104
1469.00,3.3167
1468.00,3.3232
1467.00,3.3339
1466.00,3.3538
1465.00,3.3832
1464.00,3.4108
1463.00,3.4210
1462.00,3.4119
1461.00,3.3951
1460.00,3.3812
1459.00,3.3748
1458.00,3.3816
1457.00,3.4135
1456.00,3.4806
1455.00,3.5812
1454.00,3.7028
1453.00,3.8268
1452.00,3.9238
1451.00,3.9683
1450.00,3.9794
1449.00,3.9917
1448.00,4.0001
1447.00,3.9729
1446.00,3.9050
1445.00,3.8147
1444.00,3.7205
1443.00,3.6378
1442.00,3.5760
1441.00,3.5424
1440.00,3.5376
1439.00,3.5467
1438.00,3.5490
1437.00,3.5404
1436.00,3.5386
1435.00,3.5626
1434.00,3.6128
1433.00,3.6693
1432.00,3.7088
1431.00,3.7276
1430.00,3.7396
1429.00,3.7531
1428.00,3.7689
1427.00,3.7916
1426.00,3.8261
1425.00,3.8613
1424.00,3.8732
1423.00,3.8622
1422.00,3.8554
1421.00,3.8611
1420.00,3.8545
1419.00,3.8115
1418.00,3.7447
1417.00,3.6793
1416.00,3.6233
1415.00,3.5769
1414.00,3.5383
1413.00,3.5013
1412.00,3.4566
1411.00,3.4008
1410.00,3.3400
1409.00,3.2818
1408.00,3.2294
1407.00,3.1830
1406.00,3.1419
1405.00,3.1044
1404.00,3.0689
1403.00,3.0359
1402.00,3.0067
1401.00,2.9788
1400.00,2.9480
1399.00,2.9152
1398.00,2.8857
1397.00,2.8616
1396.00,2.8390
1395.00,2.8145
1394.00,2.7903
1393.00,2.7726
1392.00,2.7654
1391.00,2.7686
1390.00,2.7796
1389.00,2.7946
1388.00,2.8108
1387.00,2.8282
1386.00,2.8499
1385.00,2.8783
1384.00,2.9127
1383.00,2.9502
1382.00,2.9889
1381.00,3.0297
1380.00,3.0727
1379.00,3.1140
1378.00,3.1483
1377.00,3.1754
1376.00,3.2020
1375.00,3.2332
1374.00,3.2668
1373.00,3.2970
1372.00,3.3220
1371.00,3.3453
1370.00,3.3682
1369.00,3.3887
1368.00,3.4052
1367.00,3.4205
1366.00,3.4396
1365.00,3.4650
1364.00,3.4946
1363.00,3.5221
1362.00,3.5403
1361.00,3.5447
1360.00,3.5396
1359.00,3.5389
1358.00,3.5541
1357.00,3.5847
1356.00,3.6171
1355.00,3.6357
1354.00,3.6392
1353.00,3.6421
1352.00,3.6602
1351.00,3.6996
1350.00,3.7555
1349.00,3.8128
1348.00,3.8520
1347.00,3.8642
1346.00,3.8542
1345.00,3.8344
1344.00,3.8165
1343.00,3.8041
1342.00,3.8077
1341.00,3.8465
1340.00,3.9261
1339.00,4.0162
1338.00,4.0403
1337.00,3.9520
1336.00,3.8152
1335.00,3.7023
1334.00,3.6359
1333.00,3.6114
1332.00,3.6137
1331.00,3.6220
1330.00,3.6187
1329.00,3.5991
1328.00,3.5701
1327.00,3.5393
1326.00,3.5107
1325.00,3.4878
1324.00,3.4774
1323.00,3.4846
1322.00,3.5057
1321.00,3.5288
1320.00,3.5479
1319.00,3.5714
1318.00,3.6120
1317.00,3.6720
1316.00,3.7439
1315.00,3.8236
1314.00,3.9084
1313.00,3.9817
1312.00,4.0317
1311.00,4.0764
1310.00,4.1366
1309.00,4.1869
1308.00,4.1577
1307.00,4.0498
1306.00,3.9386
1305.00,3.8583
1304.00,3.7974
1303.00,3.7415
1302.00,3.6930
1301.00,3.6584
1300.00,3.6347
1299.00,3.6134
1298.00,3.5897
1297.00,3.5640
1296.00,3.5391
1295.00,3.5192
1294.00,3.5071
1293.00,3.4990
1292.00,3.4828
1291.00,3.4470
1290.00,3.3938
1289.00,3.3362
1288.00,3.2852
1287.00,3.2431
1286.00,3.2078
1285.00,3.1770
1284.00,3.1479
1283.00,3.1168
1282.00,3.0801
1281.00,3.0382
1280.00,2.9969
1279.00,2.9633
1278.00,2.9416
1277.00,2.9320
1276.00,2.9329
1275.00,2.9442
1274.00,2.9662
1273.00,2.9975
1272.00,3.0349
1271.00,3.0770
1270.00,3.1252
1269.00,3.1796
1268.00,3.2343
1267.00,3.2789
1266.00,3.3065
1265.00,3.3177
1264.00,3.3156
1263.00,3.3054
1262.00,3.2968
1261.00,3.2989
1260.00,3.3141
1259.00,3.3379
1258.00,3.3636
1257.00,3.3884
1256.00,3.4124
1255.00,3.4360
1254.00,3.4599
1253.00,3.4870
1252.00,3.5209
1251.00,3.5617
1250.00,3.6047
1249.00,3.6426
1248.00,3.6728
1247.00,3.7019
1246.00,3.7329
1245.00,3.7570
1244.00,3.7673
1243.00,3.7731
1242.00,3.7917
1241.00,3.8358
1240.00,3.9110
1239.00,4.0082
1238.00,4.0897
1237.00,4.1081
1236.00,4.0687
1235.00,4.0182
1234.00,3.9857
1233.00,3.9851
1232.00,4.0219
1231.00,4.0688
1230.00,4.1004
1229.00,4.1646
1228.00,4.2905
1227.00,4.4277
1226.00,4.4366
1225.00,4.2740
1224.00,4.1902
1223.00,4.2657
1222.00,4.5167
1221.00,4.7987
1220.00,4.4817
1219.00,4.1800
1218.00,4.0150
1217.00,3.8980
1216.00,3.8021
1215.00,3.7380
1214.00,3.7249
1213.00,3.7543
1212.00,3.7807
1211.00,3.7824
1210.00,3.7930
1209.00,3.8147
1208.00,3.8110
1207.00,3.7892
1206.00,3.7922
1205.00,3.8253
1204.00,3.8587
1203.00,3.8612
1202.00,3.8339
1201.00,3.8104
1200.00,3.8046
1199.00,3.8085
1198.00,3.8083
1197.00,3.8061
1196.00,3.8278
1195.00,3.8523
1194.00,3.8333
1193.00,3.8077
1192.00,3.8105
1191.00,3.8266
1190.00,3.8388
1189.00,3.8391
1188.00,3.8273
1187.00,3.8110
1186.00,3.7925
1185.00,3.7659
1184.00,3.7292
1183.00,3.6867
1182.00,3.6500
1181.00,3.6277
1180.00,3.6179
1179.00,3.6189
1178.00,3.6363
1177.00,3.6700
1176.00,3.7025
1175.00,3.7162
1174.00,3.7201
1173.00,3.7310
1172.00,3.7394
1171.00,3.7166
1170.00,3.6614
1169.00,3.6118
1168.00,3.6003
1167.00,3.6297
1166.00,3.6753
1165.00,3.7020
1164.00,3.6976
1163.00,3.6735
1162.00,3.6363
1161.00,3.5920
1160.00,3.5521
1159.00,3.5260
1158.00,3.5147
1157.00,3.5100
1156.00,3.5002
1155.00,3.4766
1154.00,3.4377
1153.00,3.3925
1152.00,3.3528
1151.00,3.3254
1150.00,3.3125
1149.00,3.3115
1148.00,3.3148
1147.00,3.3141
1146.00,3.3062
1145.00,3.2962
1144.00,3.2920
1143.00,3.2976
1142.00,3.3141
1141.00,3.3431
1140.00,3.3809
1139.00,3.4136
1138.00,3.4293
1137.00,3.4342
1136.00,3.4513
1135.00,3.5012
1134.00,3.5869
1133.00,3.6833
1132.00,3.7453
1131.00,3.7755
1130.00,3.8150
1129.00,3.8665
1128.00,3.9162
1127.00,3.9905
1126.00,4.1702
1125.00,4.6183
1124.00,4.9505
1123.00,4.7576
1122.00,4.8011
1121.00,4.4394
1120.00,4.1594
1119.00,4.0530
1118.00,4.0102
1117.00,3.9637
1116.00,3.8916
1115.00,3.8196
1114.00,3.7663
1113.00,3.7388
1112.00,3.7169
1111.00,3.6839
1110.00,3.6521
1109.00,3.6401
1108.00,3.6484
1107.00,3.6622
1106.00,3.6766
1105.00,3.6937
1104.00,3.7104
1103.00,3.7156
1102.00,3.6982
1101.00,3.6661
1100.00,3.6337
1099.00,3.6219
1098.00,3.6480
1097.00,3.7034
1096.00,3.7596
1095.00,3.7793
1094.00,3.7581
1093.00,3.7365
1092.00,3.7394
1091.00,3.7682
1090.00,3.8216
1089.00,3.8908
1088.00,3.9348
1087.00,3.9212
1086.00,3.8873
1085.00,3.8792
1084.00,3.9099
1083.00,3.9535
1082.00,3.9769
1081.00,3.9784
1080.00,3.9725
1079.00,3.9680
1078.00,3.9439
1077.00,3.8978
1076.00,3.8791
1075.00,3.9289
1074.00,4.0529
1073.00,4.2013
1072.00,4.2305
1071.00,4.1186
1070.00,3.9868
1069.00,3.8749
1068.00,3.7995
1067.00,3.7692
1066.00,3.7744
1065.00,3.7897
1064.00,3.7898
1063.00,3.7957
1062.00,3.8589
1061.00,3.9846
1060.00,4.0927
1059.00,4.1020
1058.00,4.0088
1057.00,3.8701
1056.00,3.7612
1055.00,3.7100
1054.00,3.7098
1053.00,3.7268
1052.00,3.7156
1051.00,3.6793
1050.00,3.6548
1049.00,3.6547
1048.00,3.6726
1047.00,3.7080
1046.00,3.7706
1045.00,3.8580
1044.00,3.9659
1043.00,4.0753
1042.00,4.0629
1041.00,3.9462
1040.00,3.8539
1039.00,3.7979
1038.00,3.7614
1037.00,3.7378
1036.00,3.7328
1035.00,3.7507
1034.00,3.7840
1033.00,3.8280
1032.00,3.8924
1031.00,3.9806
1030.00,4.0439
1029.00,3.9706
1028.00,3.7904
1027.00,3.6536
1026.00,3.6124
1025.00,3.6430
1024.00,3.6893
1023.00,3.7166
1022.00,3.7493
1021.00,3.8141
1020.00,3.8924
1019.00,3.9423
1018.00,3.9741
1017.00,4.0022
1016.00,3.9641
1015.00,3.8714
1014.00,3.7956
1013.00,3.7449
1012.00,3.6889
1011.00,3.6087
1010.00,3.5195
1009.00,3.4457
1008.00,3.4008
1007.00,3.3887
1006.00,3.4093
1005.00,3.4559
1004.00,3.5072
1003.00,3.5378
1002.00,3.5441
1001.00,3.5446
1000.00,3.5566
999.00,3.5878
998.00,3.6399
997.00,3.7046
996.00,3.7572
995.00,3.7708
994.00,3.7496
993.00,3.7224
992.00,3.7028
991.00,3.7059
990.00,3.7572
989.00,3.8596
988.00,3.9768
987.00,4.0623
986.00,4.1056
985.00,4.0755
984.00,3.9751
983.00,3.8988
982.00,3.8819
981.00,3.9033
980.00,3.9471
979.00,4.0153
978.00,4.0979
977.00,4.1855
976.00,4.2972
975.00,4.5097
974.00,4.8920
973.00,5.1461
972.00,4.7598
971.00,4.3655
970.00,4.2010
969.00,4.1939
968.00,4.2538
967.00,4.2826
966.00,4.1697
965.00,4.0206
964.00,3.9437
963.00,3.9438
962.00,4.0061
961.00,4.1251
960.00,4.2846
959.00,4.4081
958.00,4.3553
957.00,4.1974
956.00,4.0707
955.00,3.9937
954.00,3.9591
953.00,3.9533
952.00,3.9533
951.00,3.9486
950.00,3.9449
949.00,3.9390
948.00,3.9102
947.00,3.8828
946.00,3.9041
945.00,4.0325
944.00,4.1957
943.00,4.1632
942.00,4.1487
941.00,4.2306
940.00,4.2214
939.00,4.0898
938.00,3.9845
937.00,3.9852
936.00,4.0774
935.00,4.2010
934.00,4.3058
933.00,4.3853
932.00,4.3926
931.00,4.2731
930.00,4.0850
929.00,3.9306
928.00,3.8444
927.00,3.8182
926.00,3.8430
925.00,3.9191
924.00,4.0389
923.00,4.1643
922.00,4.2356
921.00,4.2016
920.00,4.0965
919.00,4.0202
918.00,4.0181
917.00,4.0978
916.00,4.1773
915.00,4.1469
914.00,4.1351
913.00,4.2464
912.00,4.4757
911.00,4.7095
910.00,4.6107
909.00,4.3517
908.00,4.1530
907.00,4.0096
906.00,3.9252
905.00,3.8921
904.00,3.8737
903.00,3.8356
902.00,3.7988
901.00,3.8158
900.00,3.9014
899.00,4.0473
898.00,4.1024
897.00,3.9672
896.00,3.8813
895.00,3.8999
894.00,4.0113
893.00,4.1814
892.00,4.2627
891.00,4.2832
890.00,4.3700
889.00,4.6186
888.00,4.7076
887.00,4.4327
886.00,4.2905
885.00,4.1553
884.00,4.0932
883.00,4.1357
882.00,4.3263
881.00,4.7247
880.00,4.4811
879.00,4.2370
878.00,4.1628
877.00,4.1088
876.00,4.0536
875.00,4.0813
874.00,4.2913
873.00,4.2313
872.00,3.9513
871.00,3.8553
870.00,3.9009
869.00,4.0293
868.00,4.1285
867.00,4.1722
866.00,4.2919
865.00,4.5329
864.00,4.5091
863.00,4.2047
862.00,4.0596
861.00,4.0423
860.00,4.0222
859.00,3.9460
858.00,3.9189
857.00,3.9911
856.00,4.1575
855.00,4.3025
854.00,4.2130
853.00,4.0239
852.00,3.8475
851.00,3.7293
850.00,3.6851
849.00,3.7099
848.00,3.7937
847.00,3.9036
846.00,3.9824
845.00,3.9917
844.00,3.9795
843.00,3.9433
842.00,3.8487
841.00,3.7775
840.00,3.8266
839.00,3.9715
838.00,3.9568
837.00,3.8435
836.00,3.8154
835.00,3.8443
834.00,3.9047
833.00,3.9612
832.00,3.9543
831.00,3.9130
830.00,3.8845
829.00,3.8546
828.00,3.8354
827.00,3.8344
826.00,3.8001
825.00,3.7550
824.00,3.7663
823.00,3.8500
822.00,3.9927
821.00,4.0600
820.00,3.9632
819.00,3.9152
818.00,3.9643
817.00,4.1131
816.00,4.2645
815.00,4.0760
814.00,3.9188
813.00,3.9096
812.00,3.8585
811.00,3.7314
810.00,3.6714
809.00,3.6954
808.00,3.7639
807.00,3.8485
806.00,3.9300
805.00,4.0171
804.00,4.1173
803.00,4.1849
802.00,4.1520
801.00,4.0805
800.00,4.0690
799.00,4.1339
798.00,4.1908
797.00,4.0920
796.00,3.9002
795.00,3.7749
794.00,3.7580
793.00,3.8275
792.00,3.9026
791.00,3.8760
790.00,3.7784
789.00,3.7077
788.00,3.7067
787.00,3.7811
786.00,3.9230
785.00,4.0720
784.00,4.1021
783.00,4.0754
782.00,4.0670
781.00,3.9876
780.00,3.8793
779.00,3.8453
778.00,3.8950
777.00,3.9697
776.00,3.9867
775.00,3.9660
774.00,3.9437
773.00,3.9225
772.00,3.9170
771.00,3.9887
770.00,4.0802
769.00,3.9769
768.00,3.8921
767.00,3.9551
766.00,4.1112
765.00,4.2755
764.00,4.4759
763.00,4.7607
762.00,4.9770
761.00,4.9643
760.00,4.5555
759.00,4.2544
758.00,4.1691
757.00,4.2493
756.00,4.2164
755.00,4.0491
754.00,3.9837
753.00,4.0114
752.00,4.1156
751.00,4.2748
750.00,4.3235
749.00,4.2369
748.00,4.1622
747.00,4.1558
746.00,4.3014
745.00,4.3217
744.00,4.0601
743.00,3.9738
742.00,3.9852
741.00,3.9823
740.00,4.0530
739.00,4.0477
738.00,3.9017
737.00,3.8580
736.00,3.9033
735.00,3.9378
734.00,3.9204
733.00,3.8571
732.00,3.8053
731.00,3.8119
730.00,3.8856
729.00,3.9785
728.00,4.0017
727.00,3.9529
726.00,3.9114
725.00,3.9168
724.00,3.9549
723.00,3.9873
722.00,4.0098
721.00,4.0150
720.00,3.9728
719.00,3.9220
718.00,3.8905
717.00,3.8500
716.00,3.7794
715.00,3.7053
714.00,3.6666
713.00,3.6593
712.00,3.6576
711.00,3.6652
710.00,3.6866
709.00,3.6882
708.00,3.6557
707.00,3.6167
706.00,3.5934
705.00,3.6104
704.00,3.6841
703.00,3.7971
702.00,3.8995
701.00,3.9339
700.00,3.9001
