Created as New Dataset,Sample 075 By Administrator Date Wednesday, November 24 2021
cm-1,A
7502.00,0.8339
7501.00,0.8407
7500.00,0.8476
7499.00,0.8547
7498.00,0.8619
7497.00,0.8690
7496.00,0.8758
7495.00,0.8824
7494.00,0.8891
7493.00,0.8967
7492.00,0.9055
7491.00,0.9154
7490.00,0.9257
7489.00,0.9356
7488.00,0.9447
7487.00,0.9534
7486.00,0.9616
7485.00,0.9694
7484.00,0.9766
7483.00,0.9835
7482.00,0.9908
7481.00,0.9986
7480.00,1.0066
7479.00,1.0144
7478.00,1.0217
7477.00,1.0286
7476.00,1.0353
7475.00,1.0423
7474.00,1.0496
7473.00,1.0570
7472.00,1.0646
7471.00,1.0722
7470.00,1.0792
7469.00,1.0853
7468.00,1.0901
7467.00,1.0940
7466.00,1.0972
7465.00,1.0998
7464.00,1.1017
7463.00,1.1026
7462.00,1.1027
7461.00,1.1018
7460.00,1.1001
7459.00,1.0977
7458.00,1.0952
7457.00,1.0932
7456.00,1.0920
7455.00,1.0913
7454.00,1.0910
7453.00,1.0907
7452.00,1.0902
7451.00,1.0886
7450.00,1.0853
7449.00,1.0805
7448.00,1.0755
7447.00,1.0714
7446.00,1.0676
7445.00,1.0629
7444.00,1.0568
7443.00,1.0502
7442.00,1.0440
7441.00,1.0382
7440.00,1.0322
7439.00,1.0257
7438.00,1.0187
7437.00,1.0119
7436.00,1.0059
7435.00,1.0008
7434.00,0.9961
7433.00,0.9909
7432.00,0.9850
7431.00,0.9790
7430.00,0.9741
7429.00,0.9706
7428.00,0.9680
7427.00,0.9661
7426.00,0.9643
7425.00,0.9621
7424.00,0.9590
7423.00,0.9551
7422.00,0.9507
7421.00,0.9458
7420.00,0.9397
7419.00,0.9319
7418.00,0.9233
7417.00,0.9149
7416.00,0.9074
7415.00,0.9002
7414.00,0.8926
7413.00,0.8845
7412.00,0.8765
7411.00,0.8693
7410.00,0.8627
7409.00,0.8560
7408.00,0.8492
7407.00,0.8426
7406.00,0.8364
7405.00,0.8304
7404.00,0.8242
7403.00,0.8180
7402.00,0.8120
7401.00,0.8067
7400.00,0.8018
7399.00,0.7971
7398.00,0.7926
7397.00,0.7888
7396.00,0.7855
7395.00,0.7827
7394.00,0.7803
7393.00,0.7784
7392.00,0.7771
7391.00,0.7764
7390.00,0.7760
7389.00,0.7761
7388.00,0.7766
7387.00,0.7776
7386.00,0.7790
7385.00,0.7806
7384.00,0.7825
7383.00,0.7849
7382.00,0.7882
7381.00,0.7926
7380.00,0.7978
7379.00,0.8031
7378.00,0.8085
7377.00,0.8139
7376.00,0.8196
7375.00,0.8256
7374.00,0.8319
7373.00,0.8385
7372.00,0.8451
7371.00,0.8518
7370.00,0.8591
7369.00,0.8671
7368.00,0.8758
7367.00,0.8847
7366.00,0.8937
7365.00,0.9030
7364.00,0.9125
7363.00,0.9221
7362.00,0.9317
7361.00,0.9411
7360.00,0.9507
7359.00,0.9605
7358.00,0.9703
7357.00,0.9803
7356.00,0.9902
7355.00,1.0003
7354.00,1.0107
7353.00,1.0210
7352.00,1.0308
7351.00,1.0398
7350.00,1.0483
7349.00,1.0567
7348.00,1.0651
7347.00,1.0730
7346.00,1.0804
7345.00,1.0877
7344.00,1.0955
7343.00,1.1035
7342.00,1.1111
7341.00,1.1180
7340.00,1.1243
7339.00,1.1306
7338.00,1.1367
7337.00,1.1420
7336.00,1.1467
7335.00,1.1509
7334.00,1.1551
7333.00,1.1589
7332.00,1.1622
7331.00,1.1648
7330.00,1.1670
7329.00,1.1688
7328.00,1.1704
7327.00,1.1718
7326.00,1.1733
7325.00,1.1749
7324.00,1.1760
7323.00,1.1761
7322.00,1.1752
7321.00,1.1738
7320.00,1.1721
7319.00,1.1701
7318.00,1.1678
7317.00,1.1656
7316.00,1.1640
7315.00,1.1628
7314.00,1.1614
7313.00,1.1593
7312.00,1.1564
7311.00,1.1526
7310.00,1.1476
7309.00,1.1414
7308.00,1.1342
7307.00,1.1263
7306.00,1.1182
7305.00,1.1100
7304.00,1.1022
7303.00,1.0949
7302.00,1.0881
7301.00,1.0811
7300.00,1.0734
7299.00,1.0649
7298.00,1.0559
7297.00,1.0466
7296.00,1.0368
7295.00,1.0265
7294.00,1.0160
7293.00,1.0056
7292.00,0.9956
7291.00,0.9858
7290.00,0.9761
7289.00,0.9662
7288.00,0.9562
7287.00,0.9459
7286.00,0.9355
7285.00,0.9251
7284.00,0.9151
7283.00,0.9057
7282.00,0.8969
7281.00,0.8881
7280.00,0.8792
7279.00,0.8701
7278.00,0.8616
7277.00,0.8537
7276.00,0.8465
7275.00,0.8396
7274.00,0.8329
7273.00,0.8266
7272.00,0.8210
7271.00,0.8160
7270.00,0.8115
7269.00,0.8071
7268.00,0.8029
7267.00,0.7993
7266.00,0.7963
7265.00,0.7940
7264.00,0.7921
7263.00,0.7908
7262.00,0.7900
7261.00,0.7899
7260.00,0.7903
7259.00,0.7913
7258.00,0.7928
7257.00,0.7950
7256.00,0.7977
7255.00,0.8007
7254.00,0.8040
7253.00,0.8075
7252.00,0.8112
7251.00,0.8154
7250.00,0.8203
7249.00,0.8260
7248.00,0.8319
7247.00,0.8377
7246.00,0.8438
7245.00,0.8505
7244.00,0.8579
7243.00,0.8656
7242.00,0.8734
7241.00,0.8814
7240.00,0.8898
7239.00,0.8985
7238.00,0.9074
7237.00,0.9164
7236.00,0.9255
7235.00,0.9343
7234.00,0.9428
7233.00,0.9515
7232.00,0.9608
7231.00,0.9705
7230.00,0.9798
7229.00,0.9885
7228.00,0.9972
7227.00,1.0062
7226.00,1.0152
7225.00,1.0237
7224.00,1.0318
7223.00,1.0398
7222.00,1.0477
7221.00,1.0549
7220.00,1.0615
7219.00,1.0678
7218.00,1.0745
7217.00,1.0814
7216.00,1.0884
7215.00,1.0952
7214.00,1.1020
7213.00,1.1088
7212.00,1.1154
7211.00,1.1212
7210.00,1.1260
7209.00,1.1301
7208.00,1.1337
7207.00,1.1370
7206.00,1.1400
7205.00,1.1429
7204.00,1.1459
7203.00,1.1487
7202.00,1.1510
7201.00,1.1527
7200.00,1.1542
7199.00,1.1556
7198.00,1.1564
7197.00,1.1563
7196.00,1.1555
7195.00,1.1546
7194.00,1.1537
7193.00,1.1524
7192.00,1.1506
7191.00,1.1485
7190.00,1.1466
7189.00,1.1446
7188.00,1.1424
7187.00,1.1398
7186.00,1.1369
7185.00,1.1334
7184.00,1.1294
7183.00,1.1247
7182.00,1.1196
7181.00,1.1141
7180.00,1.1081
7179.00,1.1018
7178.00,1.0952
7177.00,1.0885
7176.00,1.0817
7175.00,1.0742
7174.00,1.0662
7173.00,1.0577
7172.00,1.0491
7171.00,1.0406
7170.00,1.0319
7169.00,1.0227
7168.00,1.0131
7167.00,1.0034
7166.00,0.9940
7165.00,0.9847
7164.00,0.9751
7163.00,0.9654
7162.00,0.9560
7161.00,0.9467
7160.00,0.9371
7159.00,0.9270
7158.00,0.9167
7157.00,0.9070
7156.00,0.8979
7155.00,0.8892
7154.00,0.8807
7153.00,0.8725
7152.00,0.8646
7151.00,0.8569
7150.00,0.8493
7149.00,0.8418
7148.00,0.8346
7147.00,0.8277
7146.00,0.8211
7145.00,0.8149
7144.00,0.8094
7143.00,0.8045
7142.00,0.8002
7141.00,0.7963
7140.00,0.7931
7139.00,0.7905
7138.00,0.7885
7137.00,0.7868
7136.00,0.7852
7135.00,0.7842
7134.00,0.7839
7133.00,0.7842
7132.00,0.7852
7131.00,0.7867
7130.00,0.7890
7129.00,0.7920
7128.00,0.7956
7127.00,0.7993
7126.00,0.8032
7125.00,0.8074
7124.00,0.8122
7123.00,0.8177
7122.00,0.8238
7121.00,0.8303
7120.00,0.8369
7119.00,0.8438
7118.00,0.8511
7117.00,0.8589
7116.00,0.8668
7115.00,0.8748
7114.00,0.8832
7113.00,0.8923
7112.00,0.9018
7111.00,0.9115
7110.00,0.9214
7109.00,0.9313
7108.00,0.9412
7107.00,0.9511
7106.00,0.9610
7105.00,0.9708
7104.00,0.9805
7103.00,0.9902
7102.00,0.9999
7101.00,1.0098
7100.00,1.0195
7099.00,1.0290
7098.00,1.0383
7097.00,1.0476
7096.00,1.0570
7095.00,1.0662
7094.00,1.0748
7093.00,1.0830
7092.00,1.0914
7091.00,1.1001
7090.00,1.1088
7089.00,1.1170
7088.00,1.1246
7087.00,1.1319
7086.00,1.1388
7085.00,1.1451
7084.00,1.1506
7083.00,1.1555
7082.00,1.1604
7081.00,1.1656
7080.00,1.1704
7079.00,1.1747
7078.00,1.1785
7077.00,1.1823
7076.00,1.1861
7075.00,1.1895
7074.00,1.1921
7073.00,1.1943
7072.00,1.1959
7071.00,1.1969
7070.00,1.1970
7069.00,1.1965
7068.00,1.1960
7067.00,1.1956
7066.00,1.1954
7065.00,1.1948
7064.00,1.1935
7063.00,1.1914
7062.00,1.1887
7061.00,1.1852
7060.00,1.1809
7059.00,1.1757
7058.00,1.1704
7057.00,1.1657
7056.00,1.1613
7055.00,1.1567
7054.00,1.1511
7053.00,1.1448
7052.00,1.1380
7051.00,1.1308
7050.00,1.1232
7049.00,1.1153
7048.00,1.1072
7047.00,1.0987
7046.00,1.0901
7045.00,1.0813
7044.00,1.0724
7043.00,1.0631
7042.00,1.0534
7041.00,1.0434
7040.00,1.0332
7039.00,1.0230
7038.00,1.0128
7037.00,1.0025
7036.00,0.9919
7035.00,0.9812
7034.00,0.9705
7033.00,0.9599
7032.00,0.9493
7031.00,0.9387
7030.00,0.9282
7029.00,0.9180
7028.00,0.9079
7027.00,0.8982
7026.00,0.8886
7025.00,0.8795
7024.00,0.8707
7023.00,0.8622
7022.00,0.8541
7021.00,0.8464
7020.00,0.8391
7019.00,0.8321
7018.00,0.8256
7017.00,0.8195
7016.00,0.8139
7015.00,0.8088
7014.00,0.8042
7013.00,0.8001
7012.00,0.7968
7011.00,0.7941
7010.00,0.7920
7009.00,0.7904
7008.00,0.7893
7007.00,0.7888
7006.00,0.7888
7005.00,0.7895
7004.00,0.7907
7003.00,0.7924
7002.00,0.7946
7001.00,0.7973
7000.00,0.8005
6999.00,0.8042
6998.00,0.8084
6997.00,0.8132
6996.00,0.8186
6995.00,0.8245
6994.00,0.8310
6993.00,0.8380
6992.00,0.8453
6991.00,0.8529
6990.00,0.8606
6989.00,0.8686
6988.00,0.8769
6987.00,0.8856
6986.00,0.8947
6985.00,0.9039
6984.00,0.9130
6983.00,0.9223
6982.00,0.9320
6981.00,0.9421
6980.00,0.9520
6979.00,0.9617
6978.00,0.9715
6977.00,0.9817
6976.00,0.9919
6975.00,1.0017
6974.00,1.0111
6973.00,1.0205
6972.00,1.0299
6971.00,1.0393
6970.00,1.0483
6969.00,1.0574
6968.00,1.0665
6967.00,1.0755
6966.00,1.0838
6965.00,1.0916
6964.00,1.0989
6963.00,1.1058
6962.00,1.1124
6961.00,1.1189
6960.00,1.1253
6959.00,1.1320
6958.00,1.1390
6957.00,1.1460
6956.00,1.1525
6955.00,1.1579
6954.00,1.1624
6953.00,1.1664
6952.00,1.1702
6951.00,1.1736
6950.00,1.1766
6949.00,1.1791
6948.00,1.1810
6947.00,1.1825
6946.00,1.1837
6945.00,1.1849
6944.00,1.1859
6943.00,1.1863
6942.00,1.1862
6941.00,1.1861
6940.00,1.1864
6939.00,1.1863
6938.00,1.1851
6937.00,1.1828
6936.00,1.1800
6935.00,1.1770
6934.00,1.1738
6933.00,1.1702
6932.00,1.1660
6931.00,1.1609
6930.00,1.1555
6929.00,1.1504
6928.00,1.1455
6927.00,1.1403
6926.00,1.1343
6925.00,1.1275
6924.00,1.1204
6923.00,1.1130
6922.00,1.1051
6921.00,1.0964
6920.00,1.0874
6919.00,1.0785
6918.00,1.0697
6917.00,1.0609
6916.00,1.0519
6915.00,1.0425
6914.00,1.0328
6913.00,1.0228
6912.00,1.0124
6911.00,1.0018
6910.00,0.9912
6909.00,0.9805
6908.00,0.9699
6907.00,0.9594
6906.00,0.9489
6905.00,0.9386
6904.00,0.9284
6903.00,0.9184
6902.00,0.9084
6901.00,0.8986
6900.00,0.8889
6899.00,0.8795
6898.00,0.8703
6897.00,0.8614
6896.00,0.8529
6895.00,0.8447
6894.00,0.8368
6893.00,0.8293
6892.00,0.8222
6891.00,0.8155
6890.00,0.8095
6889.00,0.8041
6888.00,0.7994
6887.00,0.7952
6886.00,0.7915
6885.00,0.7882
6884.00,0.7853
6883.00,0.7829
6882.00,0.7811
6881.00,0.7799
6880.00,0.7793
6879.00,0.7795
6878.00,0.7804
6877.00,0.7818
6876.00,0.7837
6875.00,0.7861
6874.00,0.7889
6873.00,0.7922
6872.00,0.7961
6871.00,0.8005
6870.00,0.8055
6869.00,0.8111
6868.00,0.8171
6867.00,0.8235
6866.00,0.8303
6865.00,0.8377
6864.00,0.8458
6863.00,0.8544
6862.00,0.8634
6861.00,0.8726
6860.00,0.8818
6859.00,0.8911
6858.00,0.9007
6857.00,0.9105
6856.00,0.9203
6855.00,0.9299
6854.00,0.9395
6853.00,0.9493
6852.00,0.9594
6851.00,0.9698
6850.00,0.9803
6849.00,0.9909
6848.00,1.0015
6847.00,1.0121
6846.00,1.0226
6845.00,1.0330
6844.00,1.0430
6843.00,1.0524
6842.00,1.0615
6841.00,1.0708
6840.00,1.0803
6839.00,1.0897
6838.00,1.0987
6837.00,1.1074
6836.00,1.1158
6835.00,1.1240
6834.00,1.1319
6833.00,1.1397
6832.00,1.1472
6831.00,1.1539
6830.00,1.1597
6829.00,1.1650
6828.00,1.1703
6827.00,1.1757
6826.00,1.1812
6825.00,1.1867
6824.00,1.1917
6823.00,1.1960
6822.00,1.1993
6821.00,1.2021
6820.00,1.2046
6819.00,1.2065
6818.00,1.2078
6817.00,1.2091
6816.00,1.2108
6815.00,1.2123
6814.00,1.2130
6813.00,1.2124
6812.00,1.2112
6811.00,1.2098
6810.00,1.2083
6809.00,1.2065
6808.00,1.2045
6807.00,1.2021
6806.00,1.1992
6805.00,1.1955
6804.00,1.1910
6803.00,1.1857
6802.00,1.1800
6801.00,1.1742
6800.00,1.1687
6799.00,1.1631
6798.00,1.1569
6797.00,1.1500
6796.00,1.1427
6795.00,1.1351
6794.00,1.1267
6793.00,1.1173
6792.00,1.1075
6791.00,1.0978
6790.00,1.0884
6789.00,1.0791
6788.00,1.0695
6787.00,1.0594
6786.00,1.0488
6785.00,1.0381
6784.00,1.0273
6783.00,1.0165
6782.00,1.0054
6781.00,0.9941
6780.00,0.9827
6779.00,0.9715
6778.00,0.9604
6777.00,0.9493
6776.00,0.9381
6775.00,0.9271
6774.00,0.9163
6773.00,0.9057
6772.00,0.8953
6771.00,0.8853
6770.00,0.8756
6769.00,0.8662
6768.00,0.8573
6767.00,0.8490
6766.00,0.8412
6765.00,0.8337
6764.00,0.8265
6763.00,0.8195
6762.00,0.8129
6761.00,0.8070
6760.00,0.8019
6759.00,0.7974
6758.00,0.7937
6757.00,0.7907
6756.00,0.7882
6755.00,0.7861
6754.00,0.7846
6753.00,0.7835
6752.00,0.7832
6751.00,0.7835
6750.00,0.7845
6749.00,0.7862
6748.00,0.7885
6747.00,0.7914
6746.00,0.7949
6745.00,0.7990
6744.00,0.8034
6743.00,0.8083
6742.00,0.8138
6741.00,0.8198
6740.00,0.8262
6739.00,0.8329
6738.00,0.8401
6737.00,0.8479
6736.00,0.8563
6735.00,0.8651
6734.00,0.8739
6733.00,0.8830
6732.00,0.8924
6731.00,0.9020
6730.00,0.9118
6729.00,0.9216
6728.00,0.9315
6727.00,0.9416
6726.00,0.9519
6725.00,0.9624
6724.00,0.9728
6723.00,0.9832
6722.00,0.9935
6721.00,1.0040
6720.00,1.0144
6719.00,1.0248
6718.00,1.0350
6717.00,1.0450
6716.00,1.0547
6715.00,1.0644
6714.00,1.0741
6713.00,1.0836
6712.00,1.0926
6711.00,1.1012
6710.00,1.1094
6709.00,1.1174
6708.00,1.1253
6707.00,1.1326
6706.00,1.1393
6705.00,1.1456
6704.00,1.1518
6703.00,1.1577
6702.00,1.1632
6701.00,1.1685
6700.00,1.1736
6699.00,1.1785
6698.00,1.1829
6697.00,1.1868
6696.00,1.1900
6695.00,1.1926
6694.00,1.1947
6693.00,1.1965
6692.00,1.1981
6691.00,1.1996
6690.00,1.2008
6689.00,1.2018
6688.00,1.2023
6687.00,1.2024
6686.00,1.2018
6685.00,1.2006
6684.00,1.1987
6683.00,1.1964
6682.00,1.1936
6681.00,1.1901
6680.00,1.1863
6679.00,1.1821
6678.00,1.1778
6677.00,1.1732
6676.00,1.1684
6675.00,1.1634
6674.00,1.1583
6673.00,1.1528
6672.00,1.1469
6671.00,1.1406
6670.00,1.1337
6669.00,1.1264
6668.00,1.1186
6667.00,1.1103
6666.00,1.1018
6665.00,1.0930
6664.00,1.0838
6663.00,1.0744
6662.00,1.0647
6661.00,1.0547
6660.00,1.0444
6659.00,1.0338
6658.00,1.0232
6657.00,1.0128
6656.00,1.0022
6655.00,0.9914
6654.00,0.9803
6653.00,0.9695
6652.00,0.9588
6651.00,0.9482
6650.00,0.9377
6649.00,0.9272
6648.00,0.9168
6647.00,0.9065
6646.00,0.8961
6645.00,0.8860
6644.00,0.8761
6643.00,0.8666
6642.00,0.8574
6641.00,0.8487
6640.00,0.8405
6639.00,0.8325
6638.00,0.8249
6637.00,0.8176
6636.00,0.8108
6635.00,0.8046
6634.00,0.7989
6633.00,0.7939
6632.00,0.7894
6631.00,0.7856
6630.00,0.7822
6629.00,0.7794
6628.00,0.7773
6627.00,0.7758
6626.00,0.7750
6625.00,0.7747
6624.00,0.7749
6623.00,0.7757
6622.00,0.7773
6621.00,0.7796
6620.00,0.7825
6619.00,0.7860
6618.00,0.7903
6617.00,0.7953
6616.00,0.8008
6615.00,0.8066
6614.00,0.8127
6613.00,0.8191
6612.00,0.8260
6611.00,0.8334
6610.00,0.8414
6609.00,0.8500
6608.00,0.8591
6607.00,0.8685
6606.00,0.8781
6605.00,0.8879
6604.00,0.8978
6603.00,0.9078
6602.00,0.9181
6601.00,0.9287
6600.00,0.9396
6599.00,0.9507
6598.00,0.9617
6597.00,0.9728
6596.00,0.9839
6595.00,0.9951
6594.00,1.0064
6593.00,1.0177
6592.00,1.0289
6591.00,1.0398
6590.00,1.0504
6589.00,1.0606
6588.00,1.0704
6587.00,1.0802
6586.00,1.0899
6585.00,1.0997
6584.00,1.1094
6583.00,1.1189
6582.00,1.1280
6581.00,1.1364
6580.00,1.1442
6579.00,1.1514
6578.00,1.1584
6577.00,1.1650
6576.00,1.1712
6575.00,1.1773
6574.00,1.1835
6573.00,1.1897
6572.00,1.1958
6571.00,1.2015
6570.00,1.2066
6569.00,1.2110
6568.00,1.2151
6567.00,1.2190
6566.00,1.2224
6565.00,1.2253
6564.00,1.2273
6563.00,1.2287
6562.00,1.2294
6561.00,1.2294
6560.00,1.2289
6559.00,1.2280
6558.00,1.2272
6557.00,1.2264
6556.00,1.2254
6555.00,1.2237
6554.00,1.2214
6553.00,1.2186
6552.00,1.2154
6551.00,1.2118
6550.00,1.2080
6549.00,1.2037
6548.00,1.1987
6547.00,1.1930
6546.00,1.1868
6545.00,1.1804
6544.00,1.1739
6543.00,1.1672
6542.00,1.1599
6541.00,1.1521
6540.00,1.1436
6539.00,1.1347
6538.00,1.1253
6537.00,1.1156
6536.00,1.1055
6535.00,1.0953
6534.00,1.0849
6533.00,1.0744
6532.00,1.0637
6531.00,1.0525
6530.00,1.0409
6529.00,1.0293
6528.00,1.0176
6527.00,1.0058
6526.00,0.9940
6525.00,0.9822
6524.00,0.9705
6523.00,0.9589
6522.00,0.9474
6521.00,0.9360
6520.00,0.9247
6519.00,0.9135
6518.00,0.9025
6517.00,0.8917
6516.00,0.8812
6515.00,0.8712
6514.00,0.8616
6513.00,0.8522
6512.00,0.8434
6511.00,0.8350
6510.00,0.8272
6509.00,0.8198
6508.00,0.8128
6507.00,0.8064
6506.00,0.8007
6505.00,0.7956
6504.00,0.7912
6503.00,0.7874
6502.00,0.7842
6501.00,0.7818
6500.00,0.7800
6499.00,0.7788
6498.00,0.7781
6497.00,0.7781
6496.00,0.7789
6495.00,0.7803
6494.00,0.7824
6493.00,0.7851
6492.00,0.7884
6491.00,0.7922
6490.00,0.7967
6489.00,0.8020
6488.00,0.8079
6487.00,0.8143
6486.00,0.8211
6485.00,0.8282
6484.00,0.8356
6483.00,0.8436
6482.00,0.8523
6481.00,0.8615
6480.00,0.8710
6479.00,0.8810
6478.00,0.8912
6477.00,0.9016
6476.00,0.9118
6475.00,0.9221
6474.00,0.9325
6473.00,0.9433
6472.00,0.9544
6471.00,0.9656
6470.00,0.9768
6469.00,0.9878
6468.00,0.9986
6467.00,1.0093
6466.00,1.0201
6465.00,1.0309
6464.00,1.0415
6463.00,1.0518
6462.00,1.0619
6461.00,1.0719
6460.00,1.0818
6459.00,1.0915
6458.00,1.1012
6457.00,1.1107
6456.00,1.1199
6455.00,1.1286
6454.00,1.1364
6453.00,1.1438
6452.00,1.1508
6451.00,1.1577
6450.00,1.1646
6449.00,1.1714
6448.00,1.1782
6447.00,1.1845
6446.00,1.1903
6445.00,1.1955
6444.00,1.2001
6443.00,1.2043
6442.00,1.2081
6441.00,1.2114
6440.00,1.2142
6439.00,1.2167
6438.00,1.2189
6437.00,1.2206
6436.00,1.2218
6435.00,1.2226
6434.00,1.2229
6433.00,1.2227
6432.00,1.2219
6431.00,1.2207
6430.00,1.2193
6429.00,1.2178
6428.00,1.2161
6427.00,1.2140
6426.00,1.2117
6425.00,1.2089
6424.00,1.2055
6423.00,1.2015
6422.00,1.1970
6421.00,1.1920
6420.00,1.1865
6419.00,1.1806
6418.00,1.1743
6417.00,1.1676
6416.00,1.1606
6415.00,1.1530
6414.00,1.1450
6413.00,1.1366
6412.00,1.1277
6411.00,1.1185
6410.00,1.1092
6409.00,1.0999
6408.00,1.0904
6407.00,1.0806
6406.00,1.0704
6405.00,1.0599
6404.00,1.0490
6403.00,1.0377
6402.00,1.0262
6401.00,1.0146
6400.00,1.0029
6399.00,0.9911
6398.00,0.9793
6397.00,0.9676
6396.00,0.9560
6395.00,0.9445
6394.00,0.9332
6393.00,0.9220
6392.00,0.9110
6391.00,0.9000
6390.00,0.8892
6389.00,0.8785
6388.00,0.8681
6387.00,0.8581
6386.00,0.8486
6385.00,0.8397
6384.00,0.8313
6383.00,0.8232
6382.00,0.8155
6381.00,0.8083
6380.00,0.8018
6379.00,0.7960
6378.00,0.7908
6377.00,0.7862
6376.00,0.7823
6375.00,0.7791
6374.00,0.7766
6373.00,0.7748
6372.00,0.7736
6371.00,0.7730
6370.00,0.7732
6369.00,0.7741
6368.00,0.7756
6367.00,0.7777
6366.00,0.7805
6365.00,0.7840
6364.00,0.7882
6363.00,0.7930
6362.00,0.7981
6361.00,0.8038
6360.00,0.8100
6359.00,0.8168
6358.00,0.8243
6357.00,0.8324
6356.00,0.8410
6355.00,0.8503
6354.00,0.8600
6353.00,0.8700
6352.00,0.8802
6351.00,0.8905
6350.00,0.9012
6349.00,0.9122
6348.00,0.9234
6347.00,0.9348
6346.00,0.9466
6345.00,0.9586
6344.00,0.9706
6343.00,0.9824
6342.00,0.9938
6341.00,1.0051
6340.00,1.0160
6339.00,1.0268
6338.00,1.0377
6337.00,1.0487
6336.00,1.0599
6335.00,1.0711
6334.00,1.0823
6333.00,1.0934
6332.00,1.1044
6331.00,1.1149
6330.00,1.1250
6329.00,1.1345
6328.00,1.1434
6327.00,1.1518
6326.00,1.1599
6325.00,1.1679
6324.00,1.1759
6323.00,1.1838
6322.00,1.1914
6321.00,1.1986
6320.00,1.2052
6319.00,1.2115
6318.00,1.2174
6317.00,1.2229
6316.00,1.2279
6315.00,1.2325
6314.00,1.2366
6313.00,1.2404
6312.00,1.2436
6311.00,1.2462
6310.00,1.2482
6309.00,1.2499
6308.00,1.2512
6307.00,1.2522
6306.00,1.2529
6305.00,1.2533
6304.00,1.2533
6303.00,1.2529
6302.00,1.2519
6301.00,1.2503
6300.00,1.2481
6299.00,1.2453
6298.00,1.2419
6297.00,1.2379
6296.00,1.2337
6295.00,1.2292
6294.00,1.2242
6293.00,1.2185
6292.00,1.2123
6291.00,1.2058
6290.00,1.1992
6289.00,1.1919
6288.00,1.1841
6287.00,1.1760
6286.00,1.1677
6285.00,1.1592
6284.00,1.1500
6283.00,1.1401
6282.00,1.1299
6281.00,1.1193
6280.00,1.1085
6279.00,1.0972
6278.00,1.0858
6277.00,1.0742
6276.00,1.0624
6275.00,1.0502
6274.00,1.0376
6273.00,1.0249
6272.00,1.0121
6271.00,0.9994
6270.00,0.9868
6269.00,0.9742
6268.00,0.9616
6267.00,0.9491
6266.00,0.9366
6265.00,0.9243
6264.00,0.9122
6263.00,0.9004
6262.00,0.8889
6261.00,0.8778
6260.00,0.8672
6259.00,0.8570
6258.00,0.8473
6257.00,0.8382
6256.00,0.8295
6255.00,0.8213
6254.00,0.8137
6253.00,0.8067
6252.00,0.8001
6251.00,0.7942
6250.00,0.7891
6249.00,0.7848
6248.00,0.7812
6247.00,0.7781
6246.00,0.7758
6245.00,0.7741
6244.00,0.7732
6243.00,0.7731
6242.00,0.7738
6241.00,0.7752
6240.00,0.7774
6239.00,0.7802
6238.00,0.7837
6237.00,0.7877
6236.00,0.7922
6235.00,0.7973
6234.00,0.8031
6233.00,0.8096
6232.00,0.8167
6231.00,0.8243
6230.00,0.8324
6229.00,0.8411
6228.00,0.8502
6227.00,0.8598
6226.00,0.8698
6225.00,0.8801
6224.00,0.8907
6223.00,0.9015
6222.00,0.9126
6221.00,0.9238
6220.00,0.9352
6219.00,0.9467
6218.00,0.9584
6217.00,0.9700
6216.00,0.9815
6215.00,0.9931
6214.00,1.0046
6213.00,1.0159
6212.00,1.0271
6211.00,1.0384
6210.00,1.0497
6209.00,1.0611
6208.00,1.0721
6207.00,1.0828
6206.00,1.0935
6205.00,1.1042
6204.00,1.1144
6203.00,1.1241
6202.00,1.1332
6201.00,1.1418
6200.00,1.1499
6199.00,1.1575
6198.00,1.1650
6197.00,1.1724
6196.00,1.1798
6195.00,1.1868
6194.00,1.1935
6193.00,1.1996
6192.00,1.2051
6191.00,1.2101
6190.00,1.2146
6189.00,1.2187
6188.00,1.2225
6187.00,1.2261
6186.00,1.2296
6185.00,1.2327
6184.00,1.2351
6183.00,1.2370
6182.00,1.2386
6181.00,1.2401
6180.00,1.2410
6179.00,1.2412
6178.00,1.2409
6177.00,1.2405
6176.00,1.2399
6175.00,1.2387
6174.00,1.2368
6173.00,1.2344
6172.00,1.2319
6171.00,1.2290
6170.00,1.2256
6169.00,1.2217
6168.00,1.2175
6167.00,1.2132
6166.00,1.2088
6165.00,1.2041
6164.00,1.1988
6163.00,1.1929
6162.00,1.1862
6161.00,1.1789
6160.00,1.1708
6159.00,1.1621
6158.00,1.1532
6157.00,1.1441
6156.00,1.1349
6155.00,1.1253
6154.00,1.1153
6153.00,1.1049
6152.00,1.0941
6151.00,1.0830
6150.00,1.0719
6149.00,1.0608
6148.00,1.0494
6147.00,1.0376
6146.00,1.0255
6145.00,1.0131
6144.00,1.0005
6143.00,0.9878
6142.00,0.9751
6141.00,0.9626
6140.00,0.9502
6139.00,0.9377
6138.00,0.9253
6137.00,0.9131
6136.00,0.9010
6135.00,0.8893
6134.00,0.8780
6133.00,0.8673
6132.00,0.8569
6131.00,0.8468
6130.00,0.8372
6129.00,0.8283
6128.00,0.8199
6127.00,0.8119
6126.00,0.8046
6125.00,0.7979
6124.00,0.7919
6123.00,0.7865
6122.00,0.7817
6121.00,0.7777
6120.00,0.7746
6119.00,0.7721
6118.00,0.7705
6117.00,0.7696
6116.00,0.7695
6115.00,0.7701
6114.00,0.7715
6113.00,0.7737
6112.00,0.7767
6111.00,0.7804
6110.00,0.7848
6109.00,0.7898
6108.00,0.7954
6107.00,0.8015
6106.00,0.8081
6105.00,0.8153
6104.00,0.8232
6103.00,0.8317
6102.00,0.8409
6101.00,0.8507
6100.00,0.8609
6099.00,0.8715
6098.00,0.8824
6097.00,0.8935
6096.00,0.9049
6095.00,0.9165
6094.00,0.9283
6093.00,0.9402
6092.00,0.9523
6091.00,0.9644
6090.00,0.9766
6089.00,0.9888
6088.00,1.0012
6087.00,1.0137
6086.00,1.0262
6085.00,1.0387
6084.00,1.0510
6083.00,1.0633
6082.00,1.0754
6081.00,1.0873
6080.00,1.0988
6079.00,1.1099
6078.00,1.1208
6077.00,1.1315
6076.00,1.1417
6075.00,1.1514
6074.00,1.1610
6073.00,1.1706
6072.00,1.1802
6071.00,1.1895
6070.00,1.1984
6069.00,1.2068
6068.00,1.2148
6067.00,1.2220
6066.00,1.2284
6065.00,1.2343
6064.00,1.2400
6063.00,1.2455
6062.00,1.2508
6061.00,1.2559
6060.00,1.2610
6059.00,1.2655
6058.00,1.2691
6057.00,1.2716
6056.00,1.2733
6055.00,1.2746
6054.00,1.2755
6053.00,1.2763
6052.00,1.2771
6051.00,1.2779
6050.00,1.2782
6049.00,1.2779
6048.00,1.2768
6047.00,1.2750
6046.00,1.2725
6045.00,1.2697
6044.00,1.2668
6043.00,1.2637
6042.00,1.2600
6041.00,1.2556
6040.00,1.2504
6039.00,1.2445
6038.00,1.2379
6037.00,1.2307
6036.00,1.2231
6035.00,1.2154
6034.00,1.2077
6033.00,1.1998
6032.00,1.1915
6031.00,1.1824
6030.00,1.1725
6029.00,1.1620
6028.00,1.1512
6027.00,1.1401
6026.00,1.1287
6025.00,1.1171
6024.00,1.1052
6023.00,1.0931
6022.00,1.0807
6021.00,1.0679
6020.00,1.0550
6019.00,1.0418
6018.00,1.0285
6017.00,1.0149
6016.00,1.0010
6015.00,0.9871
6014.00,0.9733
6013.00,0.9597
6012.00,0.9464
6011.00,0.9333
6010.00,0.9205
6009.00,0.9079
6008.00,0.8956
6007.00,0.8836
6006.00,0.8720
6005.00,0.8608
6004.00,0.8500
6003.00,0.8396
6002.00,0.8297
6001.00,0.8205
6000.00,0.8120
5999.00,0.8043
5998.00,0.7974
5997.00,0.7912
5996.00,0.7857
5995.00,0.7807
5994.00,0.7764
5993.00,0.7729
5992.00,0.7702
5991.00,0.7683
5990.00,0.7672
5989.00,0.7670
5988.00,0.7677
5987.00,0.7693
5986.00,0.7717
5985.00,0.7749
5984.00,0.7789
5983.00,0.7833
5982.00,0.7884
5981.00,0.7941
5980.00,0.8005
5979.00,0.8076
5978.00,0.8155
5977.00,0.8240
5976.00,0.8332
5975.00,0.8429
5974.00,0.8530
5973.00,0.8635
5972.00,0.8743
5971.00,0.8854
5970.00,0.8969
5969.00,0.9089
5968.00,0.9212
5967.00,0.9337
5966.00,0.9465
5965.00,0.9594
5964.00,0.9723
5963.00,0.9851
5962.00,0.9978
5961.00,1.0105
5960.00,1.0233
5959.00,1.0363
5958.00,1.0492
5957.00,1.0621
5956.00,1.0748
5955.00,1.0872
5954.00,1.0993
5953.00,1.1111
5952.00,1.1225
5951.00,1.1337
5950.00,1.1448
5949.00,1.1558
5948.00,1.1664
5947.00,1.1767
5946.00,1.1865
5945.00,1.1961
5944.00,1.2053
5943.00,1.2141
5942.00,1.2228
5941.00,1.2311
5940.00,1.2390
5939.00,1.2464
5938.00,1.2533
5937.00,1.2598
5936.00,1.2657
5935.00,1.2713
5934.00,1.2765
5933.00,1.2813
5932.00,1.2856
5931.00,1.2892
5930.00,1.2922
5929.00,1.2945
5928.00,1.2965
5927.00,1.2979
5926.00,1.2990
5925.00,1.2996
5924.00,1.2998
5923.00,1.2996
5922.00,1.2988
5921.00,1.2976
5920.00,1.2960
5919.00,1.2942
5918.00,1.2920
5917.00,1.2893
5916.00,1.2858
5915.00,1.2815
5914.00,1.2765
5913.00,1.2710
5912.00,1.2653
5911.00,1.2593
5910.00,1.2531
5909.00,1.2463
5908.00,1.2389
5907.00,1.2307
5906.00,1.2216
5905.00,1.2119
5904.00,1.2018
5903.00,1.1917
5902.00,1.1815
5901.00,1.1712
5900.00,1.1607
5899.00,1.1498
5898.00,1.1387
5897.00,1.1271
5896.00,1.1149
5895.00,1.1022
5894.00,1.0892
5893.00,1.0760
5892.00,1.0627
5891.00,1.0492
5890.00,1.0357
5889.00,1.0221
5888.00,1.0083
5887.00,0.9944
5886.00,0.9804
5885.00,0.9665
5884.00,0.9528
5883.00,0.9394
5882.00,0.9264
5881.00,0.9140
5880.00,0.9022
5879.00,0.8906
5878.00,0.8794
5877.00,0.8688
5876.00,0.8586
5875.00,0.8489
5874.00,0.8397
5873.00,0.8313
5872.00,0.8237
5871.00,0.8168
5870.00,0.8106
5869.00,0.8052
5868.00,0.8005
5867.00,0.7964
5866.00,0.7930
5865.00,0.7902
5864.00,0.7882
5863.00,0.7870
5862.00,0.7866
5861.00,0.7872
5860.00,0.7887
5859.00,0.7910
5858.00,0.7940
5857.00,0.7976
5856.00,0.8018
5855.00,0.8067
5854.00,0.8122
5853.00,0.8184
5852.00,0.8254
5851.00,0.8332
5850.00,0.8417
5849.00,0.8508
5848.00,0.8604
5847.00,0.8703
5846.00,0.8807
5845.00,0.8916
5844.00,0.9028
5843.00,0.9144
5842.00,0.9263
5841.00,0.9385
5840.00,0.9510
5839.00,0.9637
5838.00,0.9764
5837.00,0.9892
5836.00,1.0020
5835.00,1.0147
5834.00,1.0274
5833.00,1.0400
5832.00,1.0527
5831.00,1.0653
5830.00,1.0779
5829.00,1.0906
5828.00,1.1032
5827.00,1.1156
5826.00,1.1276
5825.00,1.1391
5824.00,1.1501
5823.00,1.1606
5822.00,1.1709
5821.00,1.1813
5820.00,1.1918
5819.00,1.2020
5818.00,1.2118
5817.00,1.2212
5816.00,1.2300
5815.00,1.2381
5814.00,1.2457
5813.00,1.2532
5812.00,1.2605
5811.00,1.2676
5810.00,1.2744
5809.00,1.2810
5808.00,1.2873
5807.00,1.2931
5806.00,1.2979
5805.00,1.3016
5804.00,1.3046
5803.00,1.3070
5802.00,1.3093
5801.00,1.3114
5800.00,1.3135
5799.00,1.3154
5798.00,1.3168
5797.00,1.3175
5796.00,1.3174
5795.00,1.3167
5794.00,1.3153
5793.00,1.3135
5792.00,1.3113
5791.00,1.3089
5790.00,1.3060
5789.00,1.3025
5788.00,1.2983
5787.00,1.2934
5786.00,1.2882
5785.00,1.2828
5784.00,1.2771
5783.00,1.2712
5782.00,1.2649
5781.00,1.2580
5780.00,1.2504
5779.00,1.2419
5778.00,1.2330
5777.00,1.2239
5776.00,1.2145
5775.00,1.2046
5774.00,1.1939
5773.00,1.1826
5772.00,1.1708
5771.00,1.1587
5770.00,1.1461
5769.00,1.1334
5768.00,1.1206
5767.00,1.1077
5766.00,1.0945
5765.00,1.0811
5764.00,1.0674
5763.00,1.0536
5762.00,1.0396
5761.00,1.0255
5760.00,1.0114
5759.00,0.9972
5758.00,0.9832
5757.00,0.9692
5756.00,0.9554
5755.00,0.9419
5754.00,0.9287
5753.00,0.9160
5752.00,0.9037
5751.00,0.8918
5750.00,0.8803
5749.00,0.8694
5748.00,0.8590
5747.00,0.8491
5746.00,0.8399
5745.00,0.8314
5744.00,0.8236
5743.00,0.8165
5742.00,0.8102
5741.00,0.8047
5740.00,0.7999
5739.00,0.7960
5738.00,0.7928
5737.00,0.7903
5736.00,0.7886
5735.00,0.7876
5734.00,0.7875
5733.00,0.7882
5732.00,0.7898
5731.00,0.7923
5730.00,0.7957
5729.00,0.7999
5728.00,0.8047
5727.00,0.8103
5726.00,0.8165
5725.00,0.8234
5724.00,0.8309
5723.00,0.8391
5722.00,0.8479
5721.00,0.8573
5720.00,0.8672
5719.00,0.8776
5718.00,0.8886
5717.00,0.9000
5716.00,0.9118
5715.00,0.9238
5714.00,0.9360
5713.00,0.9485
5712.00,0.9611
5711.00,0.9740
5710.00,0.9871
5709.00,1.0002
5708.00,1.0133
5707.00,1.0263
5706.00,1.0394
5705.00,1.0524
5704.00,1.0653
5703.00,1.0782
5702.00,1.0910
5701.00,1.1038
5700.00,1.1163
5699.00,1.1287
5698.00,1.1409
5697.00,1.1529
5696.00,1.1645
5695.00,1.1757
5694.00,1.1865
5693.00,1.1970
5692.00,1.2073
5691.00,1.2173
5690.00,1.2272
5689.00,1.2366
5688.00,1.2454
5687.00,1.2537
5686.00,1.2615
5685.00,1.2690
5684.00,1.2759
5683.00,1.2823
5682.00,1.2884
5681.00,1.2943
5680.00,1.2999
5679.00,1.3050
5678.00,1.3098
5677.00,1.3143
5676.00,1.3184
5675.00,1.3218
5674.00,1.3245
5673.00,1.3267
5672.00,1.3284
5671.00,1.3296
5670.00,1.3303
5669.00,1.3306
5668.00,1.3305
5667.00,1.3298
5666.00,1.3285
5665.00,1.3266
5664.00,1.3241
5663.00,1.3211
5662.00,1.3177
5661.00,1.3139
5660.00,1.3098
5659.00,1.3052
5658.00,1.3000
5657.00,1.2941
5656.00,1.2876
5655.00,1.2807
5654.00,1.2735
5653.00,1.2663
5652.00,1.2586
5651.00,1.2504
5650.00,1.2414
5649.00,1.2318
5648.00,1.2215
5647.00,1.2108
5646.00,1.1998
5645.00,1.1885
5644.00,1.1769
5643.00,1.1647
5642.00,1.1519
5641.00,1.1385
5640.00,1.1248
5639.00,1.1107
5638.00,1.0964
5637.00,1.0819
5636.00,1.0671
5635.00,1.0523
5634.00,1.0375
5633.00,1.0226
5632.00,1.0077
5631.00,0.9927
5630.00,0.9778
5629.00,0.9630
5628.00,0.9484
5627.00,0.9340
5626.00,0.9199
5625.00,0.9063
5624.00,0.8932
5623.00,0.8805
5622.00,0.8682
5621.00,0.8566
5620.00,0.8456
5619.00,0.8352
5618.00,0.8255
5617.00,0.8165
5616.00,0.8083
5615.00,0.8009
5614.00,0.7944
5613.00,0.7887
5612.00,0.7837
5611.00,0.7796
5610.00,0.7763
5609.00,0.7740
5608.00,0.7727
5607.00,0.7723
5606.00,0.7728
5605.00,0.7743
5604.00,0.7766
5603.00,0.7799
5602.00,0.7839
5601.00,0.7887
5600.00,0.7943
5599.00,0.8007
5598.00,0.8079
5597.00,0.8157
5596.00,0.8243
5595.00,0.8336
5594.00,0.8436
5593.00,0.8542
5592.00,0.8652
5591.00,0.8768
5590.00,0.8888
5589.00,0.9012
5588.00,0.9138
5587.00,0.9268
5586.00,0.9400
5585.00,0.9534
5584.00,0.9668
5583.00,0.9802
5582.00,0.9938
5581.00,1.0077
5580.00,1.0216
5579.00,1.0355
5578.00,1.0493
5577.00,1.0629
5576.00,1.0761
5575.00,1.0890
5574.00,1.1017
5573.00,1.1144
5572.00,1.1269
5571.00,1.1392
5570.00,1.1510
5569.00,1.1623
5568.00,1.1731
5567.00,1.1835
5566.00,1.1935
5565.00,1.2033
5564.00,1.2129
5563.00,1.2223
5562.00,1.2312
5561.00,1.2397
5560.00,1.2476
5559.00,1.2551
5558.00,1.2623
5557.00,1.2692
5556.00,1.2758
5555.00,1.2819
5554.00,1.2875
5553.00,1.2926
5552.00,1.2973
5551.00,1.3018
5550.00,1.3060
5549.00,1.3099
5548.00,1.3135
5547.00,1.3168
5546.00,1.3197
5545.00,1.3220
5544.00,1.3237
5543.00,1.3250
5542.00,1.3257
5541.00,1.3258
5540.00,1.3253
5539.00,1.3242
5538.00,1.3226
5537.00,1.3207
5536.00,1.3185
5535.00,1.3160
5534.00,1.3133
5533.00,1.3102
5532.00,1.3065
5531.00,1.3021
5530.00,1.2970
5529.00,1.2914
5528.00,1.2854
5527.00,1.2792
5526.00,1.2725
5525.00,1.2651
5524.00,1.2569
5523.00,1.2479
5522.00,1.2384
5521.00,1.2286
5520.00,1.2186
5519.00,1.2082
5518.00,1.1972
5517.00,1.1855
5516.00,1.1732
5515.00,1.1604
5514.00,1.1470
5513.00,1.1334
5512.00,1.1196
5511.00,1.1056
5510.00,1.0914
5509.00,1.0767
5508.00,1.0618
5507.00,1.0467
5506.00,1.0313
5505.00,1.0158
5504.00,1.0004
5503.00,0.9850
5502.00,0.9698
5501.00,0.9546
5500.00,0.9396
5499.00,0.9249
5498.00,0.9106
5497.00,0.8969
5496.00,0.8836
5495.00,0.8709
5494.00,0.8586
5493.00,0.8468
5492.00,0.8356
5491.00,0.8251
5490.00,0.8154
5489.00,0.8066
5488.00,0.7987
5487.00,0.7917
5486.00,0.7856
5485.00,0.7804
5484.00,0.7762
5483.00,0.7730
5482.00,0.7708
5481.00,0.7695
5480.00,0.7691
5479.00,0.7695
5478.00,0.7708
5477.00,0.7730
5476.00,0.7761
5475.00,0.7801
5474.00,0.7851
5473.00,0.7910
5472.00,0.7976
5471.00,0.8052
5470.00,0.8137
5469.00,0.8230
5468.00,0.8331
5467.00,0.8438
5466.00,0.8551
5465.00,0.8668
5464.00,0.8790
5463.00,0.8915
5462.00,0.9044
5461.00,0.9180
5460.00,0.9319
5459.00,0.9462
5458.00,0.9606
5457.00,0.9751
5456.00,0.9897
5455.00,1.0043
5454.00,1.0190
5453.00,1.0335
5452.00,1.0481
5451.00,1.0625
5450.00,1.0769
5449.00,1.0911
5448.00,1.1051
5447.00,1.1191
5446.00,1.1329
5445.00,1.1466
5444.00,1.1598
5443.00,1.1728
5442.00,1.1856
5441.00,1.1982
5440.00,1.2104
5439.00,1.2222
5438.00,1.2335
5437.00,1.2442
5436.00,1.2545
5435.00,1.2643
5434.00,1.2736
5433.00,1.2825
5432.00,1.2907
5431.00,1.2986
5430.00,1.3064
5429.00,1.3140
5428.00,1.3211
5427.00,1.3276
5426.00,1.3334
5425.00,1.3385
5424.00,1.3431
5423.00,1.3473
5422.00,1.3514
5421.00,1.3550
5420.00,1.3583
5419.00,1.3609
5418.00,1.3629
5417.00,1.3642
5416.00,1.3650
5415.00,1.3651
5414.00,1.3649
5413.00,1.3641
5412.00,1.3629
5411.00,1.3612
5410.00,1.3591
5409.00,1.3565
5408.00,1.3533
5407.00,1.3495
5406.00,1.3451
5405.00,1.3402
5404.00,1.3347
5403.00,1.3287
5402.00,1.3224
5401.00,1.3157
5400.00,1.3086
5399.00,1.3010
5398.00,1.2929
5397.00,1.2844
5396.00,1.2752
5395.00,1.2652
5394.00,1.2544
5393.00,1.2430
5392.00,1.2314
5391.00,1.2193
5390.00,1.2069
5389.00,1.1941
5388.00,1.1809
5387.00,1.1672
5386.00,1.1530
5385.00,1.1382
5384.00,1.1230
5383.00,1.1075
5382.00,1.0917
5381.00,1.0757
5380.00,1.0594
5379.00,1.0429
5378.00,1.0264
5377.00,1.0099
5376.00,0.9935
5375.00,0.9770
5374.00,0.9607
5373.00,0.9448
5372.00,0.9293
5371.00,0.9142
5370.00,0.8996
5369.00,0.8855
5368.00,0.8719
5367.00,0.8588
5366.00,0.8464
5365.00,0.8347
5364.00,0.8238
5363.00,0.8136
5362.00,0.8042
5361.00,0.7957
5360.00,0.7881
5359.00,0.7814
5358.00,0.7757
5357.00,0.7712
5356.00,0.7676
5355.00,0.7651
5354.00,0.7635
5353.00,0.7629
5352.00,0.7632
5351.00,0.7646
5350.00,0.7669
5349.00,0.7702
5348.00,0.7745
5347.00,0.7796
5346.00,0.7856
5345.00,0.7927
5344.00,0.8008
5343.00,0.8097
5342.00,0.8192
5341.00,0.8294
5340.00,0.8402
5339.00,0.8519
5338.00,0.8645
5337.00,0.8777
5336.00,0.8913
5335.00,0.9050
5334.00,0.9188
5333.00,0.9329
5332.00,0.9473
5331.00,0.9619
5330.00,0.9767
5329.00,0.9916
5328.00,1.0065
5327.00,1.0215
5326.00,1.0366
5325.00,1.0519
5324.00,1.0672
5323.00,1.0823
5322.00,1.0970
5321.00,1.1114
5320.00,1.1253
5319.00,1.1389
5318.00,1.1521
5317.00,1.1653
5316.00,1.1785
5315.00,1.1917
5314.00,1.2047
5313.00,1.2175
5312.00,1.2299
5311.00,1.2418
5310.00,1.2531
5309.00,1.2638
5308.00,1.2740
5307.00,1.2839
5306.00,1.2933
5305.00,1.3025
5304.00,1.3112
5303.00,1.3195
5302.00,1.3272
5301.00,1.3343
5300.00,1.3408
5299.00,1.3469
5298.00,1.3526
5297.00,1.3579
5296.00,1.3627
5295.00,1.3669
5294.00,1.3706
5293.00,1.3737
5292.00,1.3763
5291.00,1.3784
5290.00,1.3802
5289.00,1.3814
5288.00,1.3822
5287.00,1.3824
5286.00,1.3820
5285.00,1.3811
5284.00,1.3797
5283.00,1.3778
5282.00,1.3754
5281.00,1.3724
5280.00,1.3689
5279.00,1.3649
5278.00,1.3604
5277.00,1.3554
5276.00,1.3499
5275.00,1.3439
5274.00,1.3375
5273.00,1.3306
5272.00,1.3231
5271.00,1.3151
5270.00,1.3066
5269.00,1.2976
5268.00,1.2881
5267.00,1.2780
5266.00,1.2672
5265.00,1.2557
5264.00,1.2433
5263.00,1.2302
5262.00,1.2166
5261.00,1.2027
5260.00,1.1886
5259.00,1.1743
5258.00,1.1597
5257.00,1.1448
5256.00,1.1295
5255.00,1.1137
5254.00,1.0976
5253.00,1.0814
5252.00,1.0648
5251.00,1.0480
5250.00,1.0311
5249.00,1.0143
5248.00,0.9975
5247.00,0.9810
5246.00,0.9646
5245.00,0.9486
5244.00,0.9328
5243.00,0.9174
5242.00,0.9027
5241.00,0.8887
5240.00,0.8755
5239.00,0.8629
5238.00,0.8510
5237.00,0.8396
5236.00,0.8290
5235.00,0.8191
5234.00,0.8103
5233.00,0.8025
5232.00,0.7957
5231.00,0.7900
5230.00,0.7852
5229.00,0.7815
5228.00,0.7787
5227.00,0.7768
5226.00,0.7760
5225.00,0.7762
5224.00,0.7775
5223.00,0.7799
5222.00,0.7833
5221.00,0.7879
5220.00,0.7935
5219.00,0.8001
5218.00,0.8076
5217.00,0.8160
5216.00,0.8252
5215.00,0.8352
5214.00,0.8459
5213.00,0.8572
5212.00,0.8692
5211.00,0.8817
5210.00,0.8948
5209.00,0.9085
5208.00,0.9226
5207.00,0.9372
5206.00,0.9523
5205.00,0.9678
5204.00,0.9834
5203.00,0.9990
5202.00,1.0145
5201.00,1.0300
5200.00,1.0457
5199.00,1.0615
5198.00,1.0773
5197.00,1.0929
5196.00,1.1082
5195.00,1.1232
5194.00,1.1381
5193.00,1.1529
5192.00,1.1677
5191.00,1.1825
5190.00,1.1969
5189.00,1.2110
5188.00,1.2245
5187.00,1.2374
5186.00,1.2499
5185.00,1.2619
5184.00,1.2736
5183.00,1.2849
5182.00,1.2960
5181.00,1.3067
5180.00,1.3170
5179.00,1.3267
5178.00,1.3359
5177.00,1.3445
5176.00,1.3527
5175.00,1.3605
5174.00,1.3674
5173.00,1.3736
5172.00,1.3789
5171.00,1.3839
5170.00,1.3886
5169.00,1.3933
5168.00,1.3976
5167.00,1.4013
5166.00,1.4043
5165.00,1.4065
5164.00,1.4084
5163.00,1.4099
5162.00,1.4113
5161.00,1.4122
5160.00,1.4124
5159.00,1.4118
5158.00,1.4103
5157.00,1.4083
5156.00,1.4059
5155.00,1.4031
5154.00,1.4000
5153.00,1.3966
5152.00,1.3927
5151.00,1.3882
5150.00,1.3830
5149.00,1.3771
5148.00,1.3707
5147.00,1.3638
5146.00,1.3565
5145.00,1.3487
5144.00,1.3403
5143.00,1.3312
5142.00,1.3214
5141.00,1.3112
5140.00,1.3006
5139.00,1.2896
5138.00,1.2780
5137.00,1.2658
5136.00,1.2530
5135.00,1.2398
5134.00,1.2261
5133.00,1.2117
5132.00,1.1967
5131.00,1.1811
5130.00,1.1651
5129.00,1.1487
5128.00,1.1321
5127.00,1.1153
5126.00,1.0982
5125.00,1.0808
5124.00,1.0631
5123.00,1.0453
5122.00,1.0276
5121.00,1.0100
5120.00,0.9925
5119.00,0.9752
5118.00,0.9581
5117.00,0.9412
5116.00,0.9247
5115.00,0.9087
5114.00,0.8932
5113.00,0.8784
5112.00,0.8644
5111.00,0.8511
5110.00,0.8386
5109.00,0.8270
5108.00,0.8163
5107.00,0.8065
5106.00,0.7978
5105.00,0.7901
5104.00,0.7835
5103.00,0.7779
5102.00,0.7734
5101.00,0.7701
5100.00,0.7680
5099.00,0.7669
5098.00,0.7670
5097.00,0.7682
5096.00,0.7706
5095.00,0.7741
5094.00,0.7788
5093.00,0.7845
5092.00,0.7913
5091.00,0.7990
5090.00,0.8076
5089.00,0.8171
5088.00,0.8275
5087.00,0.8386
5086.00,0.8506
5085.00,0.8633
5084.00,0.8767
5083.00,0.8906
5082.00,0.9051
5081.00,0.9201
5080.00,0.9356
5079.00,0.9513
5078.00,0.9673
5077.00,0.9834
5076.00,0.9997
5075.00,1.0161
5074.00,1.0326
5073.00,1.0492
5072.00,1.0658
5071.00,1.0821
5070.00,1.0981
5069.00,1.1139
5068.00,1.1296
5067.00,1.1451
5066.00,1.1607
5065.00,1.1761
5064.00,1.1912
5063.00,1.2061
5062.00,1.2206
5061.00,1.2347
5060.00,1.2485
5059.00,1.2620
5058.00,1.2750
5057.00,1.2874
5056.00,1.2992
5055.00,1.3105
5054.00,1.3214
5053.00,1.3319
5052.00,1.3419
5051.00,1.3515
5050.00,1.3606
5049.00,1.3693
5048.00,1.3774
5047.00,1.3850
5046.00,1.3921
5045.00,1.3986
5044.00,1.4045
5043.00,1.4100
5042.00,1.4151
5041.00,1.4198
5040.00,1.4237
5039.00,1.4269
5038.00,1.4292
5037.00,1.4310
5036.00,1.4324
5035.00,1.4337
5034.00,1.4347
5033.00,1.4351
5032.00,1.4347
5031.00,1.4334
5030.00,1.4316
5029.00,1.4296
5028.00,1.4274
5027.00,1.4249
5026.00,1.4217
5025.00,1.4176
5024.00,1.4127
5023.00,1.4073
5022.00,1.4016
5021.00,1.3954
5020.00,1.3887
5019.00,1.3814
5018.00,1.3735
5017.00,1.3649
5016.00,1.3558
5015.00,1.3463
5014.00,1.3363
5013.00,1.3258
5012.00,1.3147
5011.00,1.3028
5010.00,1.2903
5009.00,1.2772
5008.00,1.2635
5007.00,1.2492
5006.00,1.2344
5005.00,1.2192
5004.00,1.2035
5003.00,1.1873
5002.00,1.1708
5001.00,1.1540
5000.00,1.1366
4999.00,1.1188
4998.00,1.1006
4997.00,1.0822
4996.00,1.0635
4995.00,1.0448
4994.00,1.0261
4993.00,1.0076
4992.00,0.9891
4991.00,0.9708
4990.00,0.9528
4989.00,0.9353
4988.00,0.9183
4987.00,0.9020
4986.00,0.8862
4985.00,0.8713
4984.00,0.8571
4983.00,0.8438
4982.00,0.8315
4981.00,0.8202
4980.00,0.8100
4979.00,0.8008
4978.00,0.7926
4977.00,0.7856
4976.00,0.7796
4975.00,0.7749
4974.00,0.7714
4973.00,0.7692
4972.00,0.7682
4971.00,0.7686
4970.00,0.7702
4969.00,0.7730
4968.00,0.7769
4967.00,0.7819
4966.00,0.7881
4965.00,0.7955
4964.00,0.8040
4963.00,0.8135
4962.00,0.8240
4961.00,0.8354
4960.00,0.8476
4959.00,0.8606
4958.00,0.8744
4957.00,0.8890
4956.00,0.9041
4955.00,0.9197
4954.00,0.9357
4953.00,0.9520
4952.00,0.9686
4951.00,0.9855
4950.00,1.0029
4949.00,1.0205
4948.00,1.0381
4947.00,1.0557
4946.00,1.0731
4945.00,1.0905
4944.00,1.1078
4943.00,1.1250
4942.00,1.1419
4941.00,1.1583
4940.00,1.1744
4939.00,1.1903
4938.00,1.2060
4937.00,1.2216
4936.00,1.2369
4935.00,1.2520
4934.00,1.2666
4933.00,1.2807
4932.00,1.2943
4931.00,1.3073
4930.00,1.3199
4929.00,1.3319
4928.00,1.3434
4927.00,1.3545
4926.00,1.3652
4925.00,1.3755
4924.00,1.3853
4923.00,1.3945
4922.00,1.4031
4921.00,1.4110
4920.00,1.4181
4919.00,1.4245
4918.00,1.4303
4917.00,1.4357
4916.00,1.4407
4915.00,1.4453
4914.00,1.4496
4913.00,1.4535
4912.00,1.4568
4911.00,1.4596
4910.00,1.4618
4909.00,1.4635
4908.00,1.4645
4907.00,1.4649
4906.00,1.4646
4905.00,1.4638
4904.00,1.4624
4903.00,1.4606
4902.00,1.4583
4901.00,1.4555
4900.00,1.4520
4899.00,1.4480
4898.00,1.4435
4897.00,1.4386
4896.00,1.4332
4895.00,1.4273
4894.00,1.4207
4893.00,1.4135
4892.00,1.4058
4891.00,1.3977
4890.00,1.3891
4889.00,1.3799
4888.00,1.3700
4887.00,1.3593
4886.00,1.3480
4885.00,1.3360
4884.00,1.3234
4883.00,1.3104
4882.00,1.2968
4881.00,1.2827
4880.00,1.2681
4879.00,1.2528
4878.00,1.2369
4877.00,1.2206
4876.00,1.2037
4875.00,1.1863
4874.00,1.1683
4873.00,1.1498
4872.00,1.1309
4871.00,1.1118
4870.00,1.0925
4869.00,1.0731
4868.00,1.0536
4867.00,1.0339
4866.00,1.0143
4865.00,0.9948
4864.00,0.9755
4863.00,0.9566
4862.00,0.9383
4861.00,0.9204
4860.00,0.9030
4859.00,0.8863
4858.00,0.8704
4857.00,0.8553
4856.00,0.8412
4855.00,0.8280
4854.00,0.8160
4853.00,0.8052
4852.00,0.7955
4851.00,0.7870
4850.00,0.7798
4849.00,0.7738
4848.00,0.7691
4847.00,0.7657
4846.00,0.7636
4845.00,0.7629
4844.00,0.7636
4843.00,0.7655
4842.00,0.7688
4841.00,0.7732
4840.00,0.7789
4839.00,0.7858
4838.00,0.7940
4837.00,0.8033
4836.00,0.8136
4835.00,0.8250
4834.00,0.8373
4833.00,0.8505
4832.00,0.8645
4831.00,0.8792
4830.00,0.8946
4829.00,0.9106
4828.00,0.9272
4827.00,0.9442
4826.00,0.9615
4825.00,0.9793
4824.00,0.9972
4823.00,1.0154
4822.00,1.0336
4821.00,1.0520
4820.00,1.0704
4819.00,1.0887
4818.00,1.1069
4817.00,1.1250
4816.00,1.1427
4815.00,1.1603
4814.00,1.1776
4813.00,1.1948
4812.00,1.2118
4811.00,1.2283
4810.00,1.2444
4809.00,1.2600
4808.00,1.2752
4807.00,1.2900
4806.00,1.3045
4805.00,1.3186
4804.00,1.3321
4803.00,1.3450
4802.00,1.3575
4801.00,1.3695
4800.00,1.3811
4799.00,1.3921
4798.00,1.4024
4797.00,1.4121
4796.00,1.4212
4795.00,1.4298
4794.00,1.4379
4793.00,1.4456
4792.00,1.4528
4791.00,1.4595
4790.00,1.4658
4789.00,1.4716
4788.00,1.4767
4787.00,1.4809
4786.00,1.4842
4785.00,1.4868
4784.00,1.4890
4783.00,1.4909
4782.00,1.4926
4781.00,1.4938
4780.00,1.4944
4779.00,1.4943
4778.00,1.4937
4777.00,1.4927
4776.00,1.4912
4775.00,1.4891
4774.00,1.4864
4773.00,1.4831
4772.00,1.4792
4771.00,1.4747
4770.00,1.4696
4769.00,1.4639
4768.00,1.4576
4767.00,1.4507
4766.00,1.4433
4765.00,1.4355
4764.00,1.4272
4763.00,1.4182
4762.00,1.4088
4761.00,1.3988
4760.00,1.3882
4759.00,1.3769
4758.00,1.3648
4757.00,1.3520
4756.00,1.3387
4755.00,1.3249
4754.00,1.3104
4753.00,1.2954
4752.00,1.2797
4751.00,1.2633
4750.00,1.2463
4749.00,1.2289
4748.00,1.2109
4747.00,1.1924
4746.00,1.1735
4745.00,1.1542
4744.00,1.1345
4743.00,1.1145
4742.00,1.0940
4741.00,1.0734
4740.00,1.0528
4739.00,1.0322
4738.00,1.0119
4737.00,0.9919
4736.00,0.9723
4735.00,0.9531
4734.00,0.9345
4733.00,0.9164
4732.00,0.8991
4731.00,0.8826
4730.00,0.8671
4729.00,0.8526
4728.00,0.8393
4727.00,0.8271
4726.00,0.8161
4725.00,0.8063
4724.00,0.7979
4723.00,0.7908
4722.00,0.7851
4721.00,0.7808
4720.00,0.7779
4719.00,0.7764
4718.00,0.7763
4717.00,0.7776
4716.00,0.7802
4715.00,0.7842
4714.00,0.7895
4713.00,0.7962
4712.00,0.8042
4711.00,0.8135
4710.00,0.8239
4709.00,0.8355
4708.00,0.8481
4707.00,0.8616
4706.00,0.8762
4705.00,0.8916
4704.00,0.9078
4703.00,0.9247
4702.00,0.9421
4701.00,0.9600
4700.00,0.9783
4699.00,0.9969
4698.00,1.0158
4697.00,1.0349
4696.00,1.0541
4695.00,1.0733
4694.00,1.0926
4693.00,1.1119
4692.00,1.1311
4691.00,1.1501
4690.00,1.1687
4689.00,1.1870
4688.00,1.2050
4687.00,1.2228
4686.00,1.2404
4685.00,1.2576
4684.00,1.2745
4683.00,1.2908
4682.00,1.3065
4681.00,1.3216
4680.00,1.3363
4679.00,1.3506
4678.00,1.3646
4677.00,1.3779
4676.00,1.3907
4675.00,1.4029
4674.00,1.4145
4673.00,1.4256
4672.00,1.4361
4671.00,1.4462
4670.00,1.4557
4669.00,1.4645
4668.00,1.4726
4667.00,1.4801
4666.00,1.4869
4665.00,1.4933
4664.00,1.4994
4663.00,1.5049
4662.00,1.5100
4661.00,1.5146
4660.00,1.5186
4659.00,1.5220
4658.00,1.5249
4657.00,1.5269
4656.00,1.5284
4655.00,1.5293
4654.00,1.5299
4653.00,1.5300
4652.00,1.5297
4651.00,1.5288
4650.00,1.5275
4649.00,1.5258
4648.00,1.5236
4647.00,1.5208
4646.00,1.5174
4645.00,1.5131
4644.00,1.5080
4643.00,1.5023
4642.00,1.4963
4641.00,1.4898
4640.00,1.4831
4639.00,1.4757
4638.00,1.4676
4637.00,1.4588
4636.00,1.4492
4635.00,1.4390
4634.00,1.4283
4633.00,1.4170
4632.00,1.4053
4631.00,1.3932
4630.00,1.3806
4629.00,1.3674
4628.00,1.3533
4627.00,1.3385
4626.00,1.3228
4625.00,1.3065
4624.00,1.2896
4623.00,1.2720
4622.00,1.2538
4621.00,1.2351
4620.00,1.2158
4619.00,1.1961
4618.00,1.1761
4617.00,1.1557
4616.00,1.1349
4615.00,1.1139
4614.00,1.0927
4613.00,1.0715
4612.00,1.0502
4611.00,1.0290
4610.00,1.0079
4609.00,0.9872
4608.00,0.9670
4607.00,0.9473
4606.00,0.9284
4605.00,0.9102
4604.00,0.8929
4603.00,0.8765
4602.00,0.8612
4601.00,0.8470
4600.00,0.8340
4599.00,0.8222
4598.00,0.8117
4597.00,0.8026
4596.00,0.7949
4595.00,0.7887
4594.00,0.7839
4593.00,0.7807
4592.00,0.7790
4591.00,0.7788
4590.00,0.7800
4589.00,0.7826
4588.00,0.7867
4587.00,0.7922
4586.00,0.7992
4585.00,0.8076
4584.00,0.8174
4583.00,0.8283
4582.00,0.8404
4581.00,0.8537
4580.00,0.8680
4579.00,0.8833
4578.00,0.8994
4577.00,0.9163
4576.00,0.9338
4575.00,0.9520
4574.00,0.9706
4573.00,0.9897
4572.00,1.0091
4571.00,1.0287
4570.00,1.0485
4569.00,1.0684
4568.00,1.0885
4567.00,1.1087
4566.00,1.1287
4565.00,1.1486
4564.00,1.1683
4563.00,1.1876
4562.00,1.2066
4561.00,1.2253
4560.00,1.2438
4559.00,1.2620
4558.00,1.2800
4557.00,1.2978
4556.00,1.3150
4555.00,1.3316
4554.00,1.3474
4553.00,1.3628
4552.00,1.3776
4551.00,1.3920
4550.00,1.4059
4549.00,1.4194
4548.00,1.4322
4547.00,1.4445
4546.00,1.4564
4545.00,1.4676
4544.00,1.4779
4543.00,1.4873
4542.00,1.4959
4541.00,1.5037
4540.00,1.5111
4539.00,1.5181
4538.00,1.5248
4537.00,1.5312
4536.00,1.5370
4535.00,1.5422
4534.00,1.5469
4533.00,1.5511
4532.00,1.5548
4531.00,1.5579
4530.00,1.5602
4529.00,1.5619
4528.00,1.5630
4527.00,1.5636
4526.00,1.5639
4525.00,1.5636
4524.00,1.5626
4523.00,1.5609
4522.00,1.5588
4521.00,1.5562
4520.00,1.5531
4519.00,1.5494
4518.00,1.5451
4517.00,1.5403
4516.00,1.5350
4515.00,1.5291
4514.00,1.5225
4513.00,1.5154
4512.00,1.5076
4511.00,1.4993
4510.00,1.4903
4509.00,1.4807
4508.00,1.4704
4507.00,1.4595
4506.00,1.4480
4505.00,1.4359
4504.00,1.4232
4503.00,1.4098
4502.00,1.3957
4501.00,1.3809
4500.00,1.3653
4499.00,1.3490
4498.00,1.3318
4497.00,1.3140
4496.00,1.2956
4495.00,1.2767
4494.00,1.2573
4493.00,1.2372
4492.00,1.2165
4491.00,1.1953
4490.00,1.1737
4489.00,1.1517
4488.00,1.1293
4487.00,1.1067
4486.00,1.0839
4485.00,1.0612
4484.00,1.0387
4483.00,1.0165
4482.00,0.9947
4481.00,0.9734
4480.00,0.9528
4479.00,0.9330
4478.00,0.9142
4477.00,0.8963
4476.00,0.8795
4475.00,0.8638
4474.00,0.8494
4473.00,0.8363
4472.00,0.8247
4471.00,0.8145
4470.00,0.8060
4469.00,0.7991
4468.00,0.7939
4467.00,0.7902
4466.00,0.7883
4465.00,0.7880
4464.00,0.7893
4463.00,0.7922
4462.00,0.7967
4461.00,0.8027
4460.00,0.8102
4459.00,0.8192
4458.00,0.8297
4457.00,0.8416
4456.00,0.8547
4455.00,0.8691
4454.00,0.8846
4453.00,0.9011
4452.00,0.9186
4451.00,0.9368
4450.00,0.9558
4449.00,0.9753
4448.00,0.9954
4447.00,1.0158
4446.00,1.0366
4445.00,1.0575
4444.00,1.0786
4443.00,1.0998
4442.00,1.1209
4441.00,1.1420
4440.00,1.1630
4439.00,1.1838
4438.00,1.2044
4437.00,1.2247
4436.00,1.2449
4435.00,1.2647
4434.00,1.2842
4433.00,1.3031
4432.00,1.3214
4431.00,1.3391
4430.00,1.3563
4429.00,1.3731
4428.00,1.3896
4427.00,1.4058
4426.00,1.4215
4425.00,1.4366
4424.00,1.4510
4423.00,1.4646
4422.00,1.4774
4421.00,1.4894
4420.00,1.5009
4419.00,1.5117
4418.00,1.5221
4417.00,1.5318
4416.00,1.5408
4415.00,1.5492
4414.00,1.5570
4413.00,1.5642
4412.00,1.5709
4411.00,1.5769
4410.00,1.5822
4409.00,1.5869
4408.00,1.5910
4407.00,1.5946
4406.00,1.5979
4405.00,1.6007
4404.00,1.6031
4403.00,1.6051
4402.00,1.6065
4401.00,1.6071
4400.00,1.6070
4399.00,1.6063
4398.00,1.6051
4397.00,1.6035
4396.00,1.6015
4395.00,1.5990
4394.00,1.5959
4393.00,1.5923
4392.00,1.5882
4391.00,1.5836
4390.00,1.5785
4389.00,1.5727
4388.00,1.5662
4387.00,1.5591
4386.00,1.5515
4385.00,1.5436
4384.00,1.5354
4383.00,1.5270
4382.00,1.5180
4381.00,1.5081
4380.00,1.4973
4379.00,1.4856
4378.00,1.4732
4377.00,1.4604
4376.00,1.4473
4375.00,1.4339
4374.00,1.4203
4373.00,1.4062
4372.00,1.3914
4371.00,1.3760
4370.00,1.3600
4369.00,1.3433
4368.00,1.3260
4367.00,1.3084
4366.00,1.2903
4365.00,1.2717
4364.00,1.2526
4363.00,1.2331
4362.00,1.2132
4361.00,1.1929
4360.00,1.1724
4359.00,1.1518
4358.00,1.1310
4357.00,1.1102
4356.00,1.0895
4355.00,1.0690
4354.00,1.0490
4353.00,1.0295
4352.00,1.0107
4351.00,0.9926
4350.00,0.9754
4349.00,0.9590
4348.00,0.9435
4347.00,0.9291
4346.00,0.9158
4345.00,0.9037
4344.00,0.8929
4343.00,0.8833
4342.00,0.8749
4341.00,0.8680
4340.00,0.8624
4339.00,0.8584
4338.00,0.8558
4337.00,0.8548
4336.00,0.8555
4335.00,0.8577
4334.00,0.8617
4333.00,0.8674
4332.00,0.8747
4331.00,0.8836
4330.00,0.8941
4329.00,0.9060
4328.00,0.9192
4327.00,0.9338
4326.00,0.9496
4325.00,0.9664
4324.00,0.9842
4323.00,1.0028
4322.00,1.0221
4321.00,1.0419
4320.00,1.0623
4319.00,1.0829
4318.00,1.1038
4317.00,1.1247
4316.00,1.1457
4315.00,1.1667
4314.00,1.1877
4313.00,1.2085
4312.00,1.2292
4311.00,1.2497
4310.00,1.2699
4309.00,1.2899
4308.00,1.3094
4307.00,1.3286
4306.00,1.3474
4305.00,1.3658
4304.00,1.3838
4303.00,1.4013
4302.00,1.4182
4301.00,1.4345
4300.00,1.4502
4299.00,1.4652
4298.00,1.4797
4297.00,1.4935
4296.00,1.5069
4295.00,1.5198
4294.00,1.5325
4293.00,1.5446
4292.00,1.5561
4291.00,1.5669
4290.00,1.5768
4289.00,1.5860
4288.00,1.5945
4287.00,1.6025
4286.00,1.6100
4285.00,1.6168
4284.00,1.6230
4283.00,1.6285
4282.00,1.6336
4281.00,1.6380
4280.00,1.6420
4279.00,1.6454
4278.00,1.6485
4277.00,1.6512
4276.00,1.6535
4275.00,1.6551
4274.00,1.6560
4273.00,1.6561
4272.00,1.6556
4271.00,1.6547
4270.00,1.6537
4269.00,1.6524
4268.00,1.6506
4267.00,1.6479
4266.00,1.6443
4265.00,1.6401
4264.00,1.6357
4263.00,1.6311
4262.00,1.6262
4261.00,1.6206
4260.00,1.6141
4259.00,1.6068
4258.00,1.5988
4257.00,1.5902
4256.00,1.5813
4255.00,1.5719
4254.00,1.5619
4253.00,1.5511
4252.00,1.5394
4251.00,1.5269
4250.00,1.5137
4249.00,1.4998
4248.00,1.4853
4247.00,1.4702
4246.00,1.4544
4245.00,1.4380
4244.00,1.4209
4243.00,1.4030
4242.00,1.3843
4241.00,1.3650
4240.00,1.3450
4239.00,1.3243
4238.00,1.3030
4237.00,1.2812
4236.00,1.2587
4235.00,1.2359
4234.00,1.2127
4233.00,1.1894
4232.00,1.1660
4231.00,1.1428
4230.00,1.1197
4229.00,1.0968
4228.00,1.0743
4227.00,1.0523
4226.00,1.0310
4225.00,1.0106
4224.00,0.9913
4223.00,0.9730
4222.00,0.9559
4221.00,0.9401
4220.00,0.9255
4219.00,0.9122
4218.00,0.9004
4217.00,0.8900
4216.00,0.8811
4215.00,0.8739
4214.00,0.8682
4213.00,0.8642
4212.00,0.8618
4211.00,0.8609
4210.00,0.8617
4209.00,0.8642
4208.00,0.8682
4207.00,0.8739
4206.00,0.8813
4205.00,0.8902
4204.00,0.9008
4203.00,0.9129
4202.00,0.9265
4201.00,0.9413
4200.00,0.9572
4199.00,0.9743
4198.00,0.9924
4197.00,1.0115
4196.00,1.0314
4195.00,1.0520
4194.00,1.0731
4193.00,1.0945
4192.00,1.1162
4191.00,1.1380
4190.00,1.1599
4189.00,1.1818
4188.00,1.2038
4187.00,1.2257
4186.00,1.2474
4185.00,1.2687
4184.00,1.2897
4183.00,1.3103
4182.00,1.3308
4181.00,1.3509
4180.00,1.3708
4179.00,1.3901
4178.00,1.4089
4177.00,1.4271
4176.00,1.4446
4175.00,1.4617
4174.00,1.4781
4173.00,1.4938
4172.00,1.5090
4171.00,1.5236
4170.00,1.5379
4169.00,1.5517
4168.00,1.5650
4167.00,1.5776
4166.00,1.5894
4165.00,1.6005
4164.00,1.6108
4163.00,1.6203
4162.00,1.6292
4161.00,1.6376
4160.00,1.6456
4159.00,1.6529
4158.00,1.6595
4157.00,1.6654
4156.00,1.6706
4155.00,1.6754
4154.00,1.6797
4153.00,1.6837
4152.00,1.6874
4151.00,1.6905
4150.00,1.6929
4149.00,1.6942
4148.00,1.6949
4147.00,1.6950
4146.00,1.6948
4145.00,1.6944
4144.00,1.6935
4143.00,1.6920
4142.00,1.6899
4141.00,1.6871
4140.00,1.6836
4139.00,1.6796
4138.00,1.6753
4137.00,1.6705
4136.00,1.6653
4135.00,1.6596
4134.00,1.6533
4133.00,1.6464
4132.00,1.6389
4131.00,1.6309
4130.00,1.6222
4129.00,1.6128
4128.00,1.6025
4127.00,1.5913
4126.00,1.5795
4125.00,1.5670
4124.00,1.5542
4123.00,1.5408
4122.00,1.5269
4121.00,1.5121
4120.00,1.4963
4119.00,1.4797
4118.00,1.4623
4117.00,1.4444
4116.00,1.4260
4115.00,1.4068
4114.00,1.3868
4113.00,1.3661
4112.00,1.3448
4111.00,1.3229
4110.00,1.3005
4109.00,1.2774
4108.00,1.2538
4107.00,1.2298
4106.00,1.2056
4105.00,1.1813
4104.00,1.1570
4103.00,1.1327
4102.00,1.1085
4101.00,1.0847
4100.00,1.0614
4099.00,1.0388
4098.00,1.0170
4097.00,0.9960
4096.00,0.9762
4095.00,0.9576
4094.00,0.9404
4093.00,0.9247
4092.00,0.9107
4091.00,0.8983
4090.00,0.8876
4089.00,0.8787
4088.00,0.8716
4087.00,0.8664
4086.00,0.8632
4085.00,0.8617
4084.00,0.8621
4083.00,0.8643
4082.00,0.8683
4081.00,0.8741
4080.00,0.8817
4079.00,0.8910
4078.00,0.9019
4077.00,0.9144
4076.00,0.9284
4075.00,0.9437
4074.00,0.9603
4073.00,0.9782
4072.00,0.9972
4071.00,1.0172
4070.00,1.0380
4069.00,1.0596
4068.00,1.0817
4067.00,1.1043
4066.00,1.1272
4065.00,1.1504
4064.00,1.1738
4063.00,1.1973
4062.00,1.2207
4061.00,1.2441
4060.00,1.2674
4059.00,1.2904
4058.00,1.3132
4057.00,1.3356
4056.00,1.3575
4055.00,1.3789
4054.00,1.3999
4053.00,1.4204
4052.00,1.4405
4051.00,1.4601
4050.00,1.4791
4049.00,1.4973
4048.00,1.5149
4047.00,1.5318
4046.00,1.5480
4045.00,1.5636
4044.00,1.5786
4043.00,1.5930
4042.00,1.6066
4041.00,1.6194
4040.00,1.6313
4039.00,1.6426
4038.00,1.6535
4037.00,1.6638
4036.00,1.6735
4035.00,1.6825
4034.00,1.6908
4033.00,1.6985
4032.00,1.7055
4031.00,1.7117
4030.00,1.7172
4029.00,1.7222
4028.00,1.7268
4027.00,1.7311
4026.00,1.7350
4025.00,1.7381
4024.00,1.7405
4023.00,1.7423
4022.00,1.7438
4021.00,1.7449
4020.00,1.7455
4019.00,1.7453
4018.00,1.7446
4017.00,1.7432
4016.00,1.7413
4015.00,1.7390
4014.00,1.7361
4013.00,1.7326
4012.00,1.7285
4011.00,1.7240
4010.00,1.7190
4009.00,1.7137
4008.00,1.7078
4007.00,1.7012
4006.00,1.6936
4005.00,1.6851
4004.00,1.6759
4003.00,1.6662
4002.00,1.6562
4001.00,1.6459
4000.00,1.6349
3999.00,1.6230
3998.00,1.6101
3997.00,1.5962
3996.00,1.5816
3995.00,1.5664
3994.00,1.5506
3993.00,1.5339
3992.00,1.5164
3991.00,1.4978
3990.00,1.4784
3989.00,1.4583
3988.00,1.4375
3987.00,1.4160
3986.00,1.3937
3985.00,1.3706
3984.00,1.3466
3983.00,1.3220
3982.00,1.2968
3981.00,1.2713
3980.00,1.2455
3979.00,1.2194
3978.00,1.1932
3977.00,1.1670
3976.00,1.1411
3975.00,1.1155
3974.00,1.0904
3973.00,1.0661
3972.00,1.0426
3971.00,1.0202
3970.00,0.9991
3969.00,0.9794
3968.00,0.9612
3967.00,0.9446
3966.00,0.9298
3965.00,0.9169
3964.00,0.9060
3963.00,0.8972
3962.00,0.8905
3961.00,0.8859
3960.00,0.8832
3959.00,0.8827
3958.00,0.8841
3957.00,0.8876
3956.00,0.8929
3955.00,0.9000
3954.00,0.9088
3953.00,0.9193
3952.00,0.9313
3951.00,0.9448
3950.00,0.9598
3949.00,0.9761
3948.00,0.9937
3947.00,1.0124
3946.00,1.0319
3945.00,1.0520
3944.00,1.0730
3943.00,1.0950
3942.00,1.1180
3941.00,1.1416
3940.00,1.1652
3939.00,1.1887
3938.00,1.2122
3937.00,1.2356
3936.00,1.2589
3935.00,1.2818
3934.00,1.3046
3933.00,1.3275
3932.00,1.3506
3931.00,1.3737
3930.00,1.3965
3929.00,1.4187
3928.00,1.4401
3927.00,1.4607
3926.00,1.4807
3925.00,1.5003
3924.00,1.5197
3923.00,1.5383
3922.00,1.5559
3921.00,1.5727
3920.00,1.5888
3919.00,1.6044
3918.00,1.6198
3917.00,1.6348
3916.00,1.6493
3915.00,1.6631
3914.00,1.6761
3913.00,1.6882
3912.00,1.6994
3911.00,1.7096
3910.00,1.7185
3909.00,1.7264
3908.00,1.7333
3907.00,1.7395
3906.00,1.7449
3905.00,1.7500
3904.00,1.7550
3903.00,1.7602
3902.00,1.7654
3901.00,1.7702
3900.00,1.7745
3899.00,1.7783
3898.00,1.7815
3897.00,1.7839
3896.00,1.7855
3895.00,1.7860
3894.00,1.7857
3893.00,1.7846
3892.00,1.7830
3891.00,1.7808
3890.00,1.7780
3889.00,1.7746
3888.00,1.7706
3887.00,1.7661
3886.00,1.7614
3885.00,1.7563
3884.00,1.7505
3883.00,1.7438
3882.00,1.7362
3881.00,1.7279
3880.00,1.7195
3879.00,1.7110
3878.00,1.7019
3877.00,1.6920
3876.00,1.6809
3875.00,1.6687
3874.00,1.6558
3873.00,1.6423
3872.00,1.6279
3871.00,1.6125
3870.00,1.5962
3869.00,1.5798
3868.00,1.5635
3867.00,1.5470
3866.00,1.5298
3865.00,1.5116
3864.00,1.4925
3863.00,1.4726
3862.00,1.4518
3861.00,1.4298
3860.00,1.4063
3859.00,1.3815
3858.00,1.3557
3857.00,1.3299
3856.00,1.3037
3855.00,1.2762
3854.00,1.2462
3853.00,1.2143
3852.00,1.1824
3851.00,1.1526
3850.00,1.1250
3849.00,1.0989
3848.00,1.0735
3847.00,1.0486
3846.00,1.0240
3845.00,0.9997
3844.00,0.9758
3843.00,0.9530
3842.00,0.9319
3841.00,0.9128
3840.00,0.8961
3839.00,0.8818
3838.00,0.8697
3837.00,0.8596
3836.00,0.8521
3835.00,0.8474
3834.00,0.8460
3833.00,0.8476
3832.00,0.8523
3831.00,0.8594
3830.00,0.8686
3829.00,0.8794
3828.00,0.8919
3827.00,0.9064
3826.00,0.9227
3825.00,0.9404
3824.00,0.9590
3823.00,0.9788
3822.00,1.0012
3821.00,1.0269
3820.00,1.0543
3819.00,1.0809
3818.00,1.1060
3817.00,1.1318
3816.00,1.1605
3815.00,1.1919
3814.00,1.2231
3813.00,1.2518
3812.00,1.2780
3811.00,1.3027
3810.00,1.3267
3809.00,1.3504
3808.00,1.3745
3807.00,1.3997
3806.00,1.4257
3805.00,1.4506
3804.00,1.4733
3803.00,1.4944
3802.00,1.5163
3801.00,1.5399
3800.00,1.5639
3799.00,1.5863
3798.00,1.6065
3797.00,1.6255
3796.00,1.6441
3795.00,1.6622
3794.00,1.6791
3793.00,1.6947
3792.00,1.7090
3791.00,1.7227
3790.00,1.7357
3789.00,1.7480
3788.00,1.7593
3787.00,1.7693
3786.00,1.7785
3785.00,1.7873
3784.00,1.7959
3783.00,1.8041
3782.00,1.8115
3781.00,1.8177
3780.00,1.8233
3779.00,1.8287
3778.00,1.8340
3777.00,1.8388
3776.00,1.8426
3775.00,1.8457
3774.00,1.8482
3773.00,1.8501
3772.00,1.8510
3771.00,1.8511
3770.00,1.8507
3769.00,1.8502
3768.00,1.8495
3767.00,1.8482
3766.00,1.8461
3765.00,1.8431
3764.00,1.8395
3763.00,1.8356
3762.00,1.8312
3761.00,1.8261
3760.00,1.8200
3759.00,1.8126
3758.00,1.8040
3757.00,1.7944
3756.00,1.7840
3755.00,1.7729
3754.00,1.7612
3753.00,1.7487
3752.00,1.7356
3751.00,1.7214
3750.00,1.7061
3749.00,1.6901
3748.00,1.6742
3747.00,1.6588
3746.00,1.6434
3745.00,1.6272
3744.00,1.6095
3743.00,1.5906
3742.00,1.5713
3741.00,1.5517
3740.00,1.5315
3739.00,1.5103
3738.00,1.4877
3737.00,1.4631
3736.00,1.4367
3735.00,1.4093
3734.00,1.3816
3733.00,1.3534
3732.00,1.3246
3731.00,1.2955
3730.00,1.2668
3729.00,1.2383
3728.00,1.2095
3727.00,1.1800
3726.00,1.1497
3725.00,1.1190
3724.00,1.0883
3723.00,1.0585
3722.00,1.0304
3721.00,1.0043
3720.00,0.9805
3719.00,0.9589
3718.00,0.9396
3717.00,0.9228
3716.00,0.9088
3715.00,0.8979
3714.00,0.8901
3713.00,0.8853
3712.00,0.8834
3711.00,0.8844
3710.00,0.8884
3709.00,0.8955
3708.00,0.9056
3707.00,0.9187
3706.00,0.9344
3705.00,0.9524
3704.00,0.9727
3703.00,0.9956
3702.00,1.0212
3701.00,1.0491
3700.00,1.0785
3699.00,1.1083
3698.00,1.1382
3697.00,1.1684
3696.00,1.1991
3695.00,1.2297
3694.00,1.2597
3693.00,1.2889
3692.00,1.3175
3691.00,1.3461
3690.00,1.3757
3689.00,1.4071
3688.00,1.4400
3687.00,1.4727
3686.00,1.5034
3685.00,1.5311
3684.00,1.5566
3683.00,1.5803
3682.00,1.6026
3681.00,1.6233
3680.00,1.6428
3679.00,1.6611
3678.00,1.6781
3677.00,1.6945
3676.00,1.7118
3675.00,1.7308
3674.00,1.7499
3673.00,1.7672
3672.00,1.7820
3671.00,1.7954
3670.00,1.8089
3669.00,1.8228
3668.00,1.8363
3667.00,1.8485
3666.00,1.8593
3665.00,1.8691
3664.00,1.8783
3663.00,1.8868
3662.00,1.8944
3661.00,1.9009
3660.00,1.9060
3659.00,1.9100
3658.00,1.9131
3657.00,1.9159
3656.00,1.9190
3655.00,1.9220
3654.00,1.9244
3653.00,1.9257
3652.00,1.9261
3651.00,1.9260
3650.00,1.9261
3649.00,1.9267
3648.00,1.9277
3647.00,1.9287
3646.00,1.9292
3645.00,1.9294
3644.00,1.9293
3643.00,1.9289
3642.00,1.9278
3641.00,1.9262
3640.00,1.9238
3639.00,1.9208
3638.00,1.9173
3637.00,1.9131
3636.00,1.9084
3635.00,1.9028
3634.00,1.8962
3633.00,1.8890
3632.00,1.8816
3631.00,1.8740
3630.00,1.8663
3629.00,1.8586
3628.00,1.8508
3627.00,1.8433
3626.00,1.8361
3625.00,1.8288
3624.00,1.8207
3623.00,1.8111
3622.00,1.8001
3621.00,1.7880
3620.00,1.7752
3619.00,1.7621
3618.00,1.7488
3617.00,1.7356
3616.00,1.7225
3615.00,1.7094
3614.00,1.6956
3613.00,1.6815
3612.00,1.6673
3611.00,1.6535
3610.00,1.6401
3609.00,1.6267
3608.00,1.6132
3607.00,1.5999
3606.00,1.5870
3605.00,1.5745
3604.00,1.5625
3603.00,1.5509
3602.00,1.5393
3601.00,1.5280
3600.00,1.5169
3599.00,1.5064
3598.00,1.4967
3597.00,1.4879
3596.00,1.4799
3595.00,1.4728
3594.00,1.4664
3593.00,1.4610
3592.00,1.4564
3591.00,1.4528
3590.00,1.4502
3589.00,1.4487
3588.00,1.4484
3587.00,1.4494
3586.00,1.4516
3585.00,1.4549
3584.00,1.4592
3583.00,1.4646
3582.00,1.4711
3581.00,1.4786
3580.00,1.4869
3579.00,1.4960
3578.00,1.5059
3577.00,1.5165
3576.00,1.5277
3575.00,1.5395
3574.00,1.5517
3573.00,1.5643
3572.00,1.5773
3571.00,1.5906
3570.00,1.6043
3569.00,1.6184
3568.00,1.6331
3567.00,1.6487
3566.00,1.6648
3565.00,1.6814
3564.00,1.6980
3563.00,1.7145
3562.00,1.7307
3561.00,1.7466
3560.00,1.7625
3559.00,1.7783
3558.00,1.7937
3557.00,1.8087
3556.00,1.8235
3555.00,1.8381
3554.00,1.8524
3553.00,1.8663
3552.00,1.8796
3551.00,1.8923
3550.00,1.9044
3549.00,1.9161
3548.00,1.9276
3547.00,1.9393
3546.00,1.9511
3545.00,1.9627
3544.00,1.9737
3543.00,1.9839
3542.00,1.9934
3541.00,2.0025
3540.00,2.0115
3539.00,2.0202
3538.00,2.0283
3537.00,2.0358
3536.00,2.0432
3535.00,2.0508
3534.00,2.0586
3533.00,2.0663
3532.00,2.0730
3531.00,2.0781
3530.00,2.0819
3529.00,2.0849
3528.00,2.0881
3527.00,2.0917
3526.00,2.0953
3525.00,2.0982
3524.00,2.1004
3523.00,2.1023
3522.00,2.1043
3521.00,2.1068
3520.00,2.1094
3519.00,2.1115
3518.00,2.1128
3517.00,2.1131
3516.00,2.1132
3515.00,2.1133
3514.00,2.1133
3513.00,2.1127
3512.00,2.1110
3511.00,2.1082
3510.00,2.1051
3509.00,2.1021
3508.00,2.0992
3507.00,2.0962
3506.00,2.0927
3505.00,2.0889
3504.00,2.0849
3503.00,2.0805
3502.00,2.0755
3501.00,2.0701
3500.00,2.0644
3499.00,2.0584
3498.00,2.0521
3497.00,2.0453
3496.00,2.0378
3495.00,2.0298
3494.00,2.0213
3493.00,2.0128
3492.00,2.0041
3491.00,1.9950
3490.00,1.9852
3489.00,1.9748
3488.00,1.9641
3487.00,1.9532
3486.00,1.9422
3485.00,1.9310
3484.00,1.9194
3483.00,1.9072
3482.00,1.8944
3481.00,1.8809
3480.00,1.8669
3479.00,1.8529
3478.00,1.8393
3477.00,1.8264
3476.00,1.8137
3475.00,1.8009
3474.00,1.7873
3473.00,1.7731
3472.00,1.7585
3471.00,1.7439
3470.00,1.7295
3469.00,1.7153
3468.00,1.7016
3467.00,1.6886
3466.00,1.6763
3465.00,1.6644
3464.00,1.6528
3463.00,1.6418
3462.00,1.6316
3461.00,1.6221
3460.00,1.6133
3459.00,1.6053
3458.00,1.5979
3457.00,1.5914
3456.00,1.5859
3455.00,1.5814
3454.00,1.5781
3453.00,1.5759
3452.00,1.5748
3451.00,1.5748
3450.00,1.5760
3449.00,1.5782
3448.00,1.5816
3447.00,1.5860
3446.00,1.5915
3445.00,1.5979
3444.00,1.6055
3443.00,1.6140
3442.00,1.6233
3441.00,1.6334
3440.00,1.6439
3439.00,1.6551
3438.00,1.6672
3437.00,1.6802
3436.00,1.6940
3435.00,1.7083
3434.00,1.7229
3433.00,1.7379
3432.00,1.7531
3431.00,1.7686
3430.00,1.7841
3429.00,1.7995
3428.00,1.8151
3427.00,1.8307
3426.00,1.8465
3425.00,1.8622
3424.00,1.8775
3423.00,1.8925
3422.00,1.9072
3421.00,1.9220
3420.00,1.9368
3419.00,1.9513
3418.00,1.9654
3417.00,1.9789
3416.00,1.9915
3415.00,2.0034
3414.00,2.0147
3413.00,2.0255
3412.00,2.0362
3411.00,2.0465
3410.00,2.0563
3409.00,2.0655
3408.00,2.0738
3407.00,2.0814
3406.00,2.0882
3405.00,2.0940
3404.00,2.0988
3403.00,2.1031
3402.00,2.1072
3401.00,2.1112
3400.00,2.1149
3399.00,2.1181
3398.00,2.1210
3397.00,2.1239
3396.00,2.1265
3395.00,2.1288
3394.00,2.1305
3393.00,2.1318
3392.00,2.1327
3391.00,2.1333
3390.00,2.1338
3389.00,2.1344
3388.00,2.1353
3387.00,2.1362
3386.00,2.1367
3385.00,2.1363
3384.00,2.1350
3383.00,2.1329
3382.00,2.1303
3381.00,2.1275
3380.00,2.1249
3379.00,2.1222
3378.00,2.1190
3377.00,2.1148
3376.00,2.1096
3375.00,2.1033
3374.00,2.0964
3373.00,2.0894
3372.00,2.0824
3371.00,2.0752
3370.00,2.0676
3369.00,2.0593
3368.00,2.0505
3367.00,2.0413
3366.00,2.0314
3365.00,2.0209
3364.00,2.0100
3363.00,1.9991
3362.00,1.9879
3361.00,1.9760
3360.00,1.9631
3359.00,1.9491
3358.00,1.9344
3357.00,1.9192
3356.00,1.9036
3355.00,1.8877
3354.00,1.8715
3353.00,1.8547
3352.00,1.8374
3351.00,1.8195
3350.00,1.8011
3349.00,1.7823
3348.00,1.7632
3347.00,1.7437
3346.00,1.7241
3345.00,1.7044
3344.00,1.6845
3343.00,1.6648
3342.00,1.6453
3341.00,1.6261
3340.00,1.6073
3339.00,1.5888
3338.00,1.5707
3337.00,1.5532
3336.00,1.5366
3335.00,1.5212
3334.00,1.5071
3333.00,1.4943
3332.00,1.4829
3331.00,1.4727
3330.00,1.4640
3329.00,1.4568
3328.00,1.4513
3327.00,1.4476
3326.00,1.4455
3325.00,1.4449
3324.00,1.4460
3323.00,1.4488
3322.00,1.4535
3321.00,1.4599
3320.00,1.4680
3319.00,1.4774
3318.00,1.4881
3317.00,1.5000
3316.00,1.5132
3315.00,1.5277
3314.00,1.5433
3313.00,1.5597
3312.00,1.5767
3311.00,1.5943
3310.00,1.6124
3309.00,1.6310
3308.00,1.6500
3307.00,1.6693
3306.00,1.6889
3305.00,1.7089
3304.00,1.7287
3303.00,1.7484
3302.00,1.7678
3301.00,1.7870
3300.00,1.8060
3299.00,1.8247
3298.00,1.8428
3297.00,1.8603
3296.00,1.8773
3295.00,1.8938
3294.00,1.9102
3293.00,1.9266
3292.00,1.9428
3291.00,1.9587
3290.00,1.9738
3289.00,1.9882
3288.00,2.0019
3287.00,2.0149
3286.00,2.0273
3285.00,2.0393
3284.00,2.0508
3283.00,2.0617
3282.00,2.0716
3281.00,2.0807
3280.00,2.0889
3279.00,2.0966
3278.00,2.1041
3277.00,2.1116
3276.00,2.1192
3275.00,2.1267
3274.00,2.1335
3273.00,2.1391
3272.00,2.1437
3271.00,2.1476
3270.00,2.1511
3269.00,2.1544
3268.00,2.1574
3267.00,2.1599
3266.00,2.1616
3265.00,2.1626
3264.00,2.1632
3263.00,2.1639
3262.00,2.1647
3261.00,2.1647
3260.00,2.1633
3259.00,2.1605
3258.00,2.1571
3257.00,2.1539
3256.00,2.1510
3255.00,2.1480
3254.00,2.1449
3253.00,2.1415
3252.00,2.1378
3251.00,2.1330
3250.00,2.1271
3249.00,2.1204
3248.00,2.1136
3247.00,2.1066
3246.00,2.0992
3245.00,2.0911
3244.00,2.0821
3243.00,2.0725
3242.00,2.0621
3241.00,2.0514
3240.00,2.0404
3239.00,2.0295
3238.00,2.0185
3237.00,2.0071
3236.00,1.9949
3235.00,1.9816
3234.00,1.9676
3233.00,1.9533
3232.00,1.9387
3231.00,1.9238
3230.00,1.9084
3229.00,1.8925
3228.00,1.8762
3227.00,1.8594
3226.00,1.8424
3225.00,1.8253
3224.00,1.8082
3223.00,1.7909
3222.00,1.7735
3221.00,1.7557
3220.00,1.7381
3219.00,1.7207
3218.00,1.7036
3217.00,1.6868
3216.00,1.6702
3215.00,1.6542
3214.00,1.6390
3213.00,1.6248
3212.00,1.6114
3211.00,1.5990
3210.00,1.5875
3209.00,1.5774
3208.00,1.5686
3207.00,1.5613
3206.00,1.5553
3205.00,1.5506
3204.00,1.5475
3203.00,1.5459
3202.00,1.5458
3201.00,1.5473
3200.00,1.5503
3199.00,1.5547
3198.00,1.5606
3197.00,1.5677
3196.00,1.5762
3195.00,1.5860
3194.00,1.5970
3193.00,1.6093
3192.00,1.6226
3191.00,1.6370
3190.00,1.6522
3189.00,1.6682
3188.00,1.6847
3187.00,1.7016
3186.00,1.7190
3185.00,1.7368
3184.00,1.7550
3183.00,1.7735
3182.00,1.7922
3181.00,1.8110
3180.00,1.8298
3179.00,1.8486
3178.00,1.8670
3177.00,1.8848
3176.00,1.9021
3175.00,1.9190
3174.00,1.9361
3173.00,1.9536
3172.00,1.9708
3171.00,1.9870
3170.00,2.0020
3169.00,2.0162
3168.00,2.0304
3167.00,2.0448
3166.00,2.0591
3165.00,2.0726
3164.00,2.0851
3163.00,2.0967
3162.00,2.1074
3161.00,2.1179
3160.00,2.1282
3159.00,2.1383
3158.00,2.1480
3157.00,2.1572
3156.00,2.1658
3155.00,2.1738
3154.00,2.1813
3153.00,2.1882
3152.00,2.1944
3151.00,2.1996
3150.00,2.2042
3149.00,2.2086
3148.00,2.2132
3147.00,2.2177
3146.00,2.2217
3145.00,2.2246
3144.00,2.2263
3143.00,2.2270
3142.00,2.2278
3141.00,2.2290
3140.00,2.2302
3139.00,2.2307
3138.00,2.2301
3137.00,2.2285
3136.00,2.2266
3135.00,2.2245
3134.00,2.2221
3133.00,2.2190
3132.00,2.2152
3131.00,2.2105
3130.00,2.2051
3129.00,2.1989
3128.00,2.1922
3127.00,2.1850
3126.00,2.1773
3125.00,2.1695
3124.00,2.1617
3123.00,2.1536
3122.00,2.1446
3121.00,2.1345
3120.00,2.1234
3119.00,2.1119
3118.00,2.1003
3117.00,2.0884
3116.00,2.0757
3115.00,2.0621
3114.00,2.0477
3113.00,2.0328
3112.00,2.0175
3111.00,2.0017
3110.00,1.9851
3109.00,1.9676
3108.00,1.9492
3107.00,1.9305
3106.00,1.9116
3105.00,1.8924
3104.00,1.8729
3103.00,1.8531
3102.00,1.8331
3101.00,1.8131
3100.00,1.7930
3099.00,1.7730
3098.00,1.7532
3097.00,1.7338
3096.00,1.7150
3095.00,1.6970
3094.00,1.6800
3093.00,1.6641
3092.00,1.6494
3091.00,1.6361
3090.00,1.6242
3089.00,1.6138
3088.00,1.6052
3087.00,1.5985
3086.00,1.5936
3085.00,1.5909
3084.00,1.5901
3083.00,1.5915
3082.00,1.5948
3081.00,1.6000
3080.00,1.6071
3079.00,1.6160
3078.00,1.6268
3077.00,1.6392
3076.00,1.6532
3075.00,1.6687
3074.00,1.6855
3073.00,1.7034
3072.00,1.7223
3071.00,1.7420
3070.00,1.7626
3069.00,1.7841
3068.00,1.8062
3067.00,1.8284
3066.00,1.8502
3065.00,1.8721
3064.00,1.8941
3063.00,1.9162
3062.00,1.9378
3061.00,1.9587
3060.00,1.9789
3059.00,1.9984
3058.00,2.0173
3057.00,2.0358
3056.00,2.0540
3055.00,2.0719
3054.00,2.0894
3053.00,2.1063
3052.00,2.1222
3051.00,2.1370
3050.00,2.1508
3049.00,2.1638
3048.00,2.1762
3047.00,2.1882
3046.00,2.1998
3045.00,2.2111
3044.00,2.2226
3043.00,2.2341
3042.00,2.2452
3041.00,2.2549
3040.00,2.2626
3039.00,2.2685
3038.00,2.2734
3037.00,2.2782
3036.00,2.2832
3035.00,2.2882
3034.00,2.2926
3033.00,2.2960
3032.00,2.2981
3031.00,2.2987
3030.00,2.2982
3029.00,2.2969
3028.00,2.2951
3027.00,2.2930
3026.00,2.2901
3025.00,2.2860
3024.00,2.2807
3023.00,2.2749
3022.00,2.2687
3021.00,2.2615
3020.00,2.2527
3019.00,2.2422
3018.00,2.2301
3017.00,2.2169
3016.00,2.2029
3015.00,2.1882
3014.00,2.1728
3013.00,2.1564
3012.00,2.1387
3011.00,2.1198
3010.00,2.0997
3009.00,2.0783
3008.00,2.0559
3007.00,2.0329
3006.00,2.0099
3005.00,1.9873
3004.00,1.9655
3003.00,1.9446
3002.00,1.9253
3001.00,1.9082
3000.00,1.8941
2999.00,1.8835
2998.00,1.8769
2997.00,1.8749
2996.00,1.8777
2995.00,1.8858
2994.00,1.8994
2993.00,1.9185
2992.00,1.9430
2991.00,1.9722
2990.00,2.0057
2989.00,2.0430
2988.00,2.0837
2987.00,2.1277
2986.00,2.1746
2985.00,2.2237
2984.00,2.2744
2983.00,2.3256
2982.00,2.3766
2981.00,2.4270
2980.00,2.4768
2979.00,2.5263
2978.00,2.5765
2977.00,2.6278
2976.00,2.6801
2975.00,2.7338
2974.00,2.7905
2973.00,2.8524
2972.00,2.9202
2971.00,2.9919
2970.00,3.0647
2969.00,3.1377
2968.00,3.2136
2967.00,3.2965
2966.00,3.3892
2965.00,3.4899
2964.00,3.5927
2963.00,3.6921
2962.00,3.7860
2961.00,3.8747
2960.00,3.9575
2959.00,4.0343
2958.00,4.0997
2957.00,4.1354
2956.00,4.1318
2955.00,4.1190
2954.00,4.1374
2953.00,4.2058
2952.00,4.3080
2951.00,4.3987
2950.00,4.4655
2949.00,4.5322
2948.00,4.5894
2947.00,4.5845
2946.00,4.5343
2945.00,4.5330
2944.00,4.6207
2943.00,4.7379
2942.00,4.8116
2941.00,4.8070
2940.00,4.7091
2939.00,4.5658
2938.00,4.4349
2937.00,4.4096
2936.00,4.5070
2935.00,4.6975
2934.00,4.8840
2933.00,5.2181
2932.00,5.0418
2931.00,4.7887
2930.00,4.5052
2929.00,4.3451
2928.00,4.2309
2927.00,4.1688
2926.00,4.1851
2925.00,4.2246
2924.00,4.2208
2923.00,4.1747
2922.00,4.1191
2921.00,4.0554
2920.00,3.9700
2919.00,3.8752
2918.00,3.7934
2917.00,3.7274
2916.00,3.6652
2915.00,3.5974
2914.00,3.5225
2913.00,3.4458
2912.00,3.3751
2911.00,3.3165
2910.00,3.2728
2909.00,3.2421
2908.00,3.2172
2907.00,3.1897
2906.00,3.1565
2905.00,3.1203
2904.00,3.0845
2903.00,3.0508
2902.00,3.0190
2901.00,2.9886
2900.00,2.9593
2899.00,2.9314
2898.00,2.9053
2897.00,2.8816
2896.00,2.8602
2895.00,2.8407
2894.00,2.8233
2893.00,2.8082
2892.00,2.7961
2891.00,2.7872
2890.00,2.7817
2889.00,2.7797
2888.00,2.7807
2887.00,2.7849
2886.00,2.7929
2885.00,2.8052
2884.00,2.8212
2883.00,2.8406
2882.00,2.8639
2881.00,2.8925
2880.00,2.9271
2879.00,2.9671
2878.00,3.0111
2877.00,3.0584
2876.00,3.1074
2875.00,3.1552
2874.00,3.2000
2873.00,3.2452
2872.00,3.2995
2871.00,3.3710
2870.00,3.4609
2869.00,3.5604
2868.00,3.6549
2867.00,3.7349
2866.00,3.7989
2865.00,3.8438
2864.00,3.8655
2863.00,3.8728
2862.00,3.8837
2861.00,3.8951
2860.00,3.8698
2859.00,3.7802
2858.00,3.6535
2857.00,3.5285
2856.00,3.4164
2855.00,3.3101
2854.00,3.2020
2853.00,3.0915
2852.00,2.9822
2851.00,2.8778
2850.00,2.7801
2849.00,2.6905
2848.00,2.6104
2847.00,2.5411
2846.00,2.4834
2845.00,2.4374
2844.00,2.4021
2843.00,2.3762
2842.00,2.3589
2841.00,2.3495
2840.00,2.3472
2839.00,2.3505
2838.00,2.3573
2837.00,2.3662
2836.00,2.3767
2835.00,2.3885
2834.00,2.4006
2833.00,2.4116
2832.00,2.4205
2831.00,2.4277
2830.00,2.4338
2829.00,2.4392
2828.00,2.4443
2827.00,2.4491
2826.00,2.4536
2825.00,2.4573
2824.00,2.4593
2823.00,2.4591
2822.00,2.4571
2821.00,2.4541
2820.00,2.4502
2819.00,2.4454
2818.00,2.4396
2817.00,2.4330
2816.00,2.4260
2815.00,2.4185
2814.00,2.4101
2813.00,2.4004
2812.00,2.3893
2811.00,2.3771
2810.00,2.3641
2809.00,2.3505
2808.00,2.3364
2807.00,2.3216
2806.00,2.3055
2805.00,2.2881
2804.00,2.2693
2803.00,2.2496
2802.00,2.2294
2801.00,2.2086
2800.00,2.1870
2799.00,2.1645
2798.00,2.1412
2797.00,2.1171
2796.00,2.0919
2795.00,2.0648
2794.00,2.0358
2793.00,2.0048
2792.00,1.9718
2791.00,1.9367
2790.00,1.8997
2789.00,1.8610
2788.00,1.8212
2787.00,1.7811
2786.00,1.7412
2785.00,1.7021
2784.00,1.6642
2783.00,1.6283
2782.00,1.5948
2781.00,1.5645
2780.00,1.5378
2779.00,1.5151
2778.00,1.4964
2777.00,1.4819
2776.00,1.4717
2775.00,1.4660
2774.00,1.4650
2773.00,1.4686
2772.00,1.4768
2771.00,1.4893
2770.00,1.5058
2769.00,1.5261
2768.00,1.5497
2767.00,1.5760
2766.00,1.6044
2765.00,1.6344
2764.00,1.6657
2763.00,1.6977
2762.00,1.7300
2761.00,1.7623
2760.00,1.7942
2759.00,1.8259
2758.00,1.8571
2757.00,1.8881
2756.00,1.9189
2755.00,1.9496
2754.00,1.9799
2753.00,2.0092
2752.00,2.0376
2751.00,2.0648
2750.00,2.0910
2749.00,2.1164
2748.00,2.1408
2747.00,2.1644
2746.00,2.1869
2745.00,2.2084
2744.00,2.2287
2743.00,2.2475
2742.00,2.2649
2741.00,2.2815
2740.00,2.2976
2739.00,2.3129
2738.00,2.3270
2737.00,2.3398
2736.00,2.3514
2735.00,2.3615
2734.00,2.3700
2733.00,2.3773
2732.00,2.3841
2731.00,2.3909
2730.00,2.3977
2729.00,2.4043
2728.00,2.4105
2727.00,2.4160
2726.00,2.4206
2725.00,2.4245
2724.00,2.4278
2723.00,2.4301
2722.00,2.4310
2721.00,2.4306
2720.00,2.4298
2719.00,2.4294
2718.00,2.4291
2717.00,2.4282
2716.00,2.4261
2715.00,2.4227
2714.00,2.4184
2713.00,2.4132
2712.00,2.4073
2711.00,2.4007
2710.00,2.3936
2709.00,2.3861
2708.00,2.3780
2707.00,2.3692
2706.00,2.3594
2705.00,2.3484
2704.00,2.3364
2703.00,2.3239
2702.00,2.3113
2701.00,2.2982
2700.00,2.2841
2699.00,2.2682
2698.00,2.2507
2697.00,2.2321
2696.00,2.2131
2695.00,2.1936
2694.00,2.1733
2693.00,2.1519
2692.00,2.1293
2691.00,2.1055
2690.00,2.0806
2689.00,2.0543
2688.00,2.0268
2687.00,1.9983
2686.00,1.9695
2685.00,1.9413
2684.00,1.9140
2683.00,1.8877
2682.00,1.8622
2681.00,1.8379
2680.00,1.8150
2679.00,1.7936
2678.00,1.7738
2677.00,1.7552
2676.00,1.7376
2675.00,1.7203
2674.00,1.7032
2673.00,1.6860
2672.00,1.6692
2671.00,1.6529
2670.00,1.6370
2669.00,1.6209
2668.00,1.6042
2667.00,1.5864
2666.00,1.5678
2665.00,1.5496
2664.00,1.5330
2663.00,1.5195
2662.00,1.5103
2661.00,1.5062
2660.00,1.5074
2659.00,1.5139
2658.00,1.5253
2657.00,1.5410
2656.00,1.5603
2655.00,1.5828
2654.00,1.6076
2653.00,1.6342
2652.00,1.6619
2651.00,1.6903
2650.00,1.7190
2649.00,1.7479
2648.00,1.7768
2647.00,1.8057
2646.00,1.8348
2645.00,1.8639
2644.00,1.8929
2643.00,1.9217
2642.00,1.9503
2641.00,1.9789
2640.00,2.0075
2639.00,2.0360
2638.00,2.0641
2637.00,2.0915
2636.00,2.1179
2635.00,2.1432
2634.00,2.1674
2633.00,2.1912
2632.00,2.2144
2631.00,2.2366
2630.00,2.2575
2629.00,2.2771
2628.00,2.2958
2627.00,2.3138
2626.00,2.3311
2625.00,2.3476
2624.00,2.3636
2623.00,2.3794
2622.00,2.3945
2621.00,2.4082
2620.00,2.4201
2619.00,2.4302
2618.00,2.4390
2617.00,2.4467
2616.00,2.4539
2615.00,2.4610
2614.00,2.4681
2613.00,2.4752
2612.00,2.4816
2611.00,2.4871
2610.00,2.4921
2609.00,2.4971
2608.00,2.5020
2607.00,2.5066
2606.00,2.5105
2605.00,2.5134
2604.00,2.5151
2603.00,2.5153
2602.00,2.5141
2601.00,2.5126
2600.00,2.5115
2599.00,2.5105
2598.00,2.5086
2597.00,2.5053
2596.00,2.5013
2595.00,2.4978
2594.00,2.4950
2593.00,2.4915
2592.00,2.4864
2591.00,2.4801
2590.00,2.4732
2589.00,2.4661
2588.00,2.4586
2587.00,2.4506
2586.00,2.4425
2585.00,2.4338
2584.00,2.4240
2583.00,2.4132
2582.00,2.4019
2581.00,2.3901
2580.00,2.3772
2579.00,2.3628
2578.00,2.3472
2577.00,2.3309
2576.00,2.3142
2575.00,2.2967
2574.00,2.2784
2573.00,2.2594
2572.00,2.2398
2571.00,2.2195
2570.00,2.1981
2569.00,2.1750
2568.00,2.1501
2567.00,2.1235
2566.00,2.0956
2565.00,2.0666
2564.00,2.0364
2563.00,2.0046
2562.00,1.9711
2561.00,1.9361
2560.00,1.8994
2559.00,1.8613
2558.00,1.8217
2557.00,1.7810
2556.00,1.7396
2555.00,1.6978
2554.00,1.6564
2553.00,1.6159
2552.00,1.5771
2551.00,1.5404
2550.00,1.5065
2549.00,1.4758
2548.00,1.4490
2547.00,1.4263
2546.00,1.4080
2545.00,1.3943
2544.00,1.3851
2543.00,1.3804
2542.00,1.3802
2541.00,1.3846
2540.00,1.3935
2539.00,1.4067
2538.00,1.4238
2537.00,1.4447
2536.00,1.4688
2535.00,1.4960
2534.00,1.5257
2533.00,1.5575
2532.00,1.5911
2531.00,1.6260
2530.00,1.6618
2529.00,1.6982
2528.00,1.7349
2527.00,1.7717
2526.00,1.8083
2525.00,1.8443
2524.00,1.8800
2523.00,1.9155
2522.00,1.9506
2521.00,1.9849
2520.00,2.0182
2519.00,2.0503
2518.00,2.0814
2517.00,2.1115
2516.00,2.1405
2515.00,2.1682
2514.00,2.1949
2513.00,2.2208
2512.00,2.2457
2511.00,2.2692
2510.00,2.2910
2509.00,2.3113
2508.00,2.3309
2507.00,2.3502
2506.00,2.3690
2505.00,2.3867
2504.00,2.4031
2503.00,2.4186
2502.00,2.4338
2501.00,2.4485
2500.00,2.4623
2499.00,2.4749
2498.00,2.4865
2497.00,2.4975
2496.00,2.5078
2495.00,2.5171
2494.00,2.5249
2493.00,2.5315
2492.00,2.5379
2491.00,2.5452
2490.00,2.5526
2489.00,2.5585
2488.00,2.5621
2487.00,2.5646
2486.00,2.5679
2485.00,2.5729
2484.00,2.5783
2483.00,2.5825
2482.00,2.5843
2481.00,2.5843
2480.00,2.5838
2479.00,2.5840
2478.00,2.5848
2477.00,2.5851
2476.00,2.5840
2475.00,2.5813
2474.00,2.5772
2473.00,2.5720
2472.00,2.5660
2471.00,2.5599
2470.00,2.5541
2469.00,2.5486
2468.00,2.5432
2467.00,2.5378
2466.00,2.5322
2465.00,2.5258
2464.00,2.5179
2463.00,2.5085
2462.00,2.4980
2461.00,2.4870
2460.00,2.4756
2459.00,2.4639
2458.00,2.4521
2457.00,2.4394
2456.00,2.4254
2455.00,2.4098
2454.00,2.3927
2453.00,2.3744
2452.00,2.3552
2451.00,2.3350
2450.00,2.3141
2449.00,2.2921
2448.00,2.2689
2447.00,2.2443
2446.00,2.2182
2445.00,2.1908
2444.00,2.1619
2443.00,2.1316
2442.00,2.1001
2441.00,2.0669
2440.00,2.0318
2439.00,1.9942
2438.00,1.9543
2437.00,1.9122
2436.00,1.8684
2435.00,1.8231
2434.00,1.7769
2433.00,1.7303
2432.00,1.6838
2431.00,1.6381
2430.00,1.5939
2429.00,1.5517
2428.00,1.5123
2427.00,1.4762
2426.00,1.4438
2425.00,1.4155
2424.00,1.3918
2423.00,1.3728
2422.00,1.3587
2421.00,1.3498
2420.00,1.3461
2419.00,1.3476
2418.00,1.3542
2417.00,1.3659
2416.00,1.3827
2415.00,1.4044
2414.00,1.4306
2413.00,1.4610
2412.00,1.4950
2411.00,1.5320
2410.00,1.5712
2409.00,1.6120
2408.00,1.6540
2407.00,1.6969
2406.00,1.7403
2405.00,1.7839
2404.00,1.8273
2403.00,1.8702
2402.00,1.9125
2401.00,1.9542
2400.00,1.9949
2399.00,2.0340
2398.00,2.0710
2397.00,2.1057
2396.00,2.1378
2395.00,2.1669
2394.00,2.1923
2393.00,2.2135
2392.00,2.2303
2391.00,2.2424
2390.00,2.2497
2389.00,2.2528
2388.00,2.2530
2387.00,2.2517
2386.00,2.2506
2385.00,2.2519
2384.00,2.2581
2383.00,2.2708
2382.00,2.2894
2381.00,2.3113
2380.00,2.3332
2379.00,2.3534
2378.00,2.3717
2377.00,2.3882
2376.00,2.4026
2375.00,2.4154
2374.00,2.4274
2373.00,2.4385
2372.00,2.4475
2371.00,2.4547
2370.00,2.4620
2369.00,2.4705
2368.00,2.4796
2367.00,2.4874
2366.00,2.4940
2365.00,2.5005
2364.00,2.5067
2363.00,2.5122
2362.00,2.5177
2361.00,2.5196
2360.00,2.5234
2359.00,2.5174
2358.00,2.5292
2357.00,2.5133
2356.00,2.6199
2355.00,2.6864
2354.00,2.6593
2353.00,2.6729
2352.00,2.6665
2351.00,2.6708
2350.00,2.6665
2349.00,2.6623
2348.00,2.6549
2347.00,2.6469
2346.00,2.6392
2345.00,2.6319
2344.00,2.6254
2343.00,2.6175
2342.00,2.6132
2341.00,2.5999
2340.00,2.6003
2339.00,2.5732
2338.00,2.5967
2337.00,2.4539
2336.00,2.3825
2335.00,2.3895
2334.00,2.3658
2333.00,2.3527
2332.00,2.3248
2331.00,2.2968
2330.00,2.2673
2329.00,2.2427
2328.00,2.2231
2327.00,2.2065
2326.00,2.1914
2325.00,2.1750
2324.00,2.1558
2323.00,2.1309
2322.00,2.1005
2321.00,2.0662
2320.00,2.0314
2319.00,1.9980
2318.00,1.9666
2317.00,1.9360
2316.00,1.9052
2315.00,1.8733
2314.00,1.8399
2313.00,1.8048
2312.00,1.7677
2311.00,1.7284
2310.00,1.6873
2309.00,1.6446
2308.00,1.6015
2307.00,1.5587
2306.00,1.5173
2305.00,1.4782
2304.00,1.4426
2303.00,1.4112
2302.00,1.3848
2301.00,1.3641
2300.00,1.3493
2299.00,1.3408
2298.00,1.3384
2297.00,1.3424
2296.00,1.3523
2295.00,1.3679
2294.00,1.3886
2293.00,1.4139
2292.00,1.4431
2291.00,1.4758
2290.00,1.5112
2289.00,1.5489
2288.00,1.5886
2287.00,1.6301
2286.00,1.6731
2285.00,1.7172
2284.00,1.7621
2283.00,1.8076
2282.00,1.8533
2281.00,1.8992
2280.00,1.9450
2279.00,1.9901
2278.00,2.0342
2277.00,2.0767
2276.00,2.1175
2275.00,2.1561
2274.00,2.1929
2273.00,2.2280
2272.00,2.2615
2271.00,2.2931
2270.00,2.3223
2269.00,2.3492
2268.00,2.3746
2267.00,2.3993
2266.00,2.4238
2265.00,2.4483
2264.00,2.4720
2263.00,2.4941
2262.00,2.5139
2261.00,2.5315
2260.00,2.5477
2259.00,2.5639
2258.00,2.5809
2257.00,2.5982
2256.00,2.6144
2255.00,2.6284
2254.00,2.6401
2253.00,2.6503
2252.00,2.6596
2251.00,2.6681
2250.00,2.6766
2249.00,2.6857
2248.00,2.6954
2247.00,2.7045
2246.00,2.7121
2245.00,2.7185
2244.00,2.7244
2243.00,2.7299
2242.00,2.7346
2241.00,2.7388
2240.00,2.7429
2239.00,2.7474
2238.00,2.7514
2237.00,2.7539
2236.00,2.7546
2235.00,2.7543
2234.00,2.7537
2233.00,2.7523
2232.00,2.7498
2231.00,2.7463
2230.00,2.7432
2229.00,2.7416
2228.00,2.7416
2227.00,2.7425
2226.00,2.7425
2225.00,2.7402
2224.00,2.7351
2223.00,2.7279
2222.00,2.7197
2221.00,2.7113
2220.00,2.7028
2219.00,2.6944
2218.00,2.6864
2217.00,2.6785
2216.00,2.6697
2215.00,2.6597
2214.00,2.6488
2213.00,2.6375
2212.00,2.6255
2211.00,2.6120
2210.00,2.5970
2209.00,2.5806
2208.00,2.5629
2207.00,2.5437
2206.00,2.5236
2205.00,2.5035
2204.00,2.4833
2203.00,2.4624
2202.00,2.4398
2201.00,2.4154
2200.00,2.3897
2199.00,2.3629
2198.00,2.3346
2197.00,2.3042
2196.00,2.2715
2195.00,2.2366
2194.00,2.1997
2193.00,2.1608
2192.00,2.1197
2191.00,2.0763
2190.00,2.0312
2189.00,1.9848
2188.00,1.9376
2187.00,1.8897
2186.00,1.8416
2185.00,1.7940
2184.00,1.7476
2183.00,1.7032
2182.00,1.6621
2181.00,1.6252
2180.00,1.5936
2179.00,1.5673
2178.00,1.5460
2177.00,1.5292
2176.00,1.5163
2175.00,1.5072
2174.00,1.5018
2173.00,1.5006
2172.00,1.5039
2171.00,1.5122
2170.00,1.5258
2169.00,1.5449
2168.00,1.5696
2167.00,1.5995
2166.00,1.6341
2165.00,1.6727
2164.00,1.7144
2163.00,1.7584
2162.00,1.8040
2161.00,1.8508
2160.00,1.8983
2159.00,1.9459
2158.00,1.9931
2157.00,2.0396
2156.00,2.0851
2155.00,2.1295
2154.00,2.1727
2153.00,2.2143
2152.00,2.2539
2151.00,2.2915
2150.00,2.3271
2149.00,2.3610
2148.00,2.3934
2147.00,2.4240
2146.00,2.4529
2145.00,2.4802
2144.00,2.5056
2143.00,2.5291
2142.00,2.5513
2141.00,2.5733
2140.00,2.5954
2139.00,2.6166
2138.00,2.6359
2137.00,2.6528
2136.00,2.6679
2135.00,2.6816
2134.00,2.6943
2133.00,2.7061
2132.00,2.7171
2131.00,2.7278
2130.00,2.7386
2129.00,2.7500
2128.00,2.7619
2127.00,2.7738
2126.00,2.7843
2125.00,2.7927
2124.00,2.7995
2123.00,2.8058
2122.00,2.8126
2121.00,2.8200
2120.00,2.8277
2119.00,2.8348
2118.00,2.8407
2117.00,2.8452
2116.00,2.8484
2115.00,2.8501
2114.00,2.8498
2113.00,2.8483
2112.00,2.8477
2111.00,2.8494
2110.00,2.8522
2109.00,2.8533
2108.00,2.8514
2107.00,2.8480
2106.00,2.8453
2105.00,2.8436
2104.00,2.8415
2103.00,2.8380
2102.00,2.8335
2101.00,2.8290
2100.00,2.8242
2099.00,2.8176
2098.00,2.8090
2097.00,2.7996
2096.00,2.7914
2095.00,2.7847
2094.00,2.7776
2093.00,2.7679
2092.00,2.7555
2091.00,2.7422
2090.00,2.7299
2089.00,2.7181
2088.00,2.7044
2087.00,2.6874
2086.00,2.6682
2085.00,2.6488
2084.00,2.6304
2083.00,2.6121
2082.00,2.5923
2081.00,2.5700
2080.00,2.5456
2079.00,2.5200
2078.00,2.4939
2077.00,2.4669
2076.00,2.4384
2075.00,2.4083
2074.00,2.3769
2073.00,2.3441
2072.00,2.3097
2071.00,2.2736
2070.00,2.2365
2069.00,2.1989
2068.00,2.1607
2067.00,2.1212
2066.00,2.0796
2065.00,2.0360
2064.00,1.9914
2063.00,1.9465
2062.00,1.9013
2061.00,1.8555
2060.00,1.8087
2059.00,1.7617
2058.00,1.7153
2057.00,1.6710
2056.00,1.6301
2055.00,1.5938
2054.00,1.5633
2053.00,1.5397
2052.00,1.5238
2051.00,1.5162
2050.00,1.5174
2049.00,1.5273
2048.00,1.5457
2047.00,1.5721
2046.00,1.6057
2045.00,1.6458
2044.00,1.6909
2043.00,1.7390
2042.00,1.7886
2041.00,1.8391
2040.00,1.8905
2039.00,1.9426
2038.00,1.9950
2037.00,2.0470
2036.00,2.0982
2035.00,2.1478
2034.00,2.1955
2033.00,2.2409
2032.00,2.2841
2031.00,2.3251
2030.00,2.3642
2029.00,2.4017
2028.00,2.4376
2027.00,2.4715
2026.00,2.5033
2025.00,2.5333
2024.00,2.5619
2023.00,2.5890
2022.00,2.6144
2021.00,2.6387
2020.00,2.6622
2019.00,2.6839
2018.00,2.7024
2017.00,2.7177
2016.00,2.7319
2015.00,2.7470
2014.00,2.7629
2013.00,2.7782
2012.00,2.7922
2011.00,2.8057
2010.00,2.8195
2009.00,2.8335
2008.00,2.8466
2007.00,2.8574
2006.00,2.8657
2005.00,2.8722
2004.00,2.8790
2003.00,2.8871
2002.00,2.8956
2001.00,2.9032
2000.00,2.9091
1999.00,2.9142
1998.00,2.9197
1997.00,2.9262
1996.00,2.9335
1995.00,2.9410
1994.00,2.9478
1993.00,2.9534
1992.00,2.9584
1991.00,2.9629
1990.00,2.9660
1989.00,2.9652
1988.00,2.9597
1987.00,2.9511
1986.00,2.9424
1985.00,2.9353
1984.00,2.9302
1983.00,2.9270
1982.00,2.9254
1981.00,2.9245
1980.00,2.9218
1979.00,2.9150
1978.00,2.9044
1977.00,2.8930
1976.00,2.8840
1975.00,2.8785
1974.00,2.8746
1973.00,2.8698
1972.00,2.8627
1971.00,2.8540
1970.00,2.8445
1969.00,2.8334
1968.00,2.8182
1967.00,2.7977
1966.00,2.7738
1965.00,2.7498
1964.00,2.7279
1963.00,2.7082
1962.00,2.6893
1961.00,2.6695
1960.00,2.6477
1959.00,2.6235
1958.00,2.5972
1957.00,2.5698
1956.00,2.5412
1955.00,2.5106
1954.00,2.4776
1953.00,2.4425
1952.00,2.4057
1951.00,2.3678
1950.00,2.3288
1949.00,2.2886
1948.00,2.2469
1947.00,2.2037
1946.00,2.1589
1945.00,2.1117
1944.00,2.0601
1943.00,2.0028
1942.00,1.9416
1941.00,1.8804
1940.00,1.8224
1939.00,1.7692
1938.00,1.7212
1937.00,1.6789
1936.00,1.6434
1935.00,1.6157
1934.00,1.5967
1933.00,1.5870
1932.00,1.5869
1931.00,1.5965
1930.00,1.6156
1929.00,1.6437
1928.00,1.6808
1927.00,1.7264
1926.00,1.7787
1925.00,1.8345
1924.00,1.8907
1923.00,1.9457
1922.00,1.9997
1921.00,2.0533
1920.00,2.1072
1919.00,2.1615
1918.00,2.2154
1917.00,2.2676
1916.00,2.3167
1915.00,2.3629
1914.00,2.4080
1913.00,2.4530
1912.00,2.4966
1911.00,2.5361
1910.00,2.5700
1909.00,2.5992
1908.00,2.6261
1907.00,2.6530
1906.00,2.6805
1905.00,2.7089
1904.00,2.7372
1903.00,2.7633
1902.00,2.7859
1901.00,2.8061
1900.00,2.8270
1899.00,2.8505
1898.00,2.8748
1897.00,2.8958
1896.00,2.9113
1895.00,2.9223
1894.00,2.9316
1893.00,2.9416
1892.00,2.9531
1891.00,2.9644
1890.00,2.9736
1889.00,2.9803
1888.00,2.9861
1887.00,2.9918
1886.00,2.9964
1885.00,2.9996
1884.00,3.0043
1883.00,3.0130
1882.00,3.0245
1881.00,3.0338
1880.00,3.0372
1879.00,3.0360
1878.00,3.0341
1877.00,3.0339
1876.00,3.0361
1875.00,3.0404
1874.00,3.0458
1873.00,3.0511
1872.00,3.0555
1871.00,3.0582
1870.00,3.0575
1869.00,3.0514
1868.00,3.0405
1867.00,3.0274
1866.00,3.0145
1865.00,3.0034
1864.00,2.9939
1863.00,2.9845
1862.00,2.9745
1861.00,2.9645
1860.00,2.9545
1859.00,2.9424
1858.00,2.9263
1857.00,2.9076
1856.00,2.8889
1855.00,2.8708
1854.00,2.8524
1853.00,2.8337
1852.00,2.8153
1851.00,2.7976
1850.00,2.7785
1849.00,2.7554
1848.00,2.7269
1847.00,2.6934
1846.00,2.6569
1845.00,2.6189
1844.00,2.5783
1843.00,2.5332
1842.00,2.4838
1841.00,2.4327
1840.00,2.3819
1839.00,2.3299
1838.00,2.2739
1837.00,2.2147
1836.00,2.1554
1835.00,2.0982
1834.00,2.0440
1833.00,1.9940
1832.00,1.9503
1831.00,1.9135
1830.00,1.8842
1829.00,1.8637
1828.00,1.8539
1827.00,1.8556
1826.00,1.8684
1825.00,1.8910
1824.00,1.9224
1823.00,1.9625
1822.00,2.0116
1821.00,2.0694
1820.00,2.1330
1819.00,2.1986
1818.00,2.2637
1817.00,2.3283
1816.00,2.3928
1815.00,2.4562
1814.00,2.5169
1813.00,2.5734
1812.00,2.6243
1811.00,2.6693
1810.00,2.7091
1809.00,2.7441
1808.00,2.7753
1807.00,2.8047
1806.00,2.8344
1805.00,2.8643
1804.00,2.8911
1803.00,2.9120
1802.00,2.9278
1801.00,2.9420
1800.00,2.9586
1799.00,2.9795
1798.00,3.0034
1797.00,3.0261
1796.00,3.0435
1795.00,3.0565
1794.00,3.0700
1793.00,3.0852
1792.00,3.0982
1791.00,3.1069
1790.00,3.1140
1789.00,3.1229
1788.00,3.1350
1787.00,3.1487
1786.00,3.1610
1785.00,3.1696
1784.00,3.1735
1783.00,3.1747
1782.00,3.1761
1781.00,3.1759
1780.00,3.1711
1779.00,3.1615
1778.00,3.1497
1777.00,3.1367
1776.00,3.1214
1775.00,3.1047
1774.00,3.0910
1773.00,3.0817
1772.00,3.0727
1771.00,3.0611
1770.00,3.0473
1769.00,3.0326
1768.00,3.0174
1767.00,3.0021
1766.00,2.9864
1765.00,2.9701
1764.00,2.9521
1763.00,2.9310
1762.00,2.9074
1761.00,2.8860
1760.00,2.8727
1759.00,2.8710
1758.00,2.8830
1757.00,2.9098
1756.00,2.9503
1755.00,3.0016
1754.00,3.0618
1753.00,3.1310
1752.00,3.2090
1751.00,3.2922
1750.00,3.3737
1749.00,3.4459
1748.00,3.5056
1747.00,3.5579
1746.00,3.6095
1745.00,3.6604
1744.00,3.7069
1743.00,3.7497
1742.00,3.7948
1741.00,3.8462
1740.00,3.9048
1739.00,3.9724
1738.00,4.0465
1737.00,4.1202
1736.00,4.1998
1735.00,4.3088
1734.00,4.4637
1733.00,4.5909
1732.00,4.5661
1731.00,4.5060
1730.00,4.4606
1729.00,4.3962
1728.00,4.3565
1727.00,4.3902
1726.00,4.5087
1725.00,4.6643
1724.00,4.6812
1723.00,4.5544
1722.00,4.4340
1721.00,4.3728
1720.00,4.3876
1719.00,4.5213
1718.00,4.9020
1717.00,4.9416
1716.00,4.6903
1715.00,4.8129
1714.00,5.1877
1713.00,5.2064
1712.00,4.8661
1711.00,4.6438
1710.00,4.4971
1709.00,4.4077
1708.00,4.3823
1707.00,4.4277
1706.00,4.4906
1705.00,4.5051
1704.00,4.5004
1703.00,4.4354
1702.00,4.3530
1701.00,4.3793
1700.00,4.5662
1699.00,4.8906
1698.00,4.8933
1697.00,4.6632
1696.00,4.5360
1695.00,4.4711
1694.00,4.4433
1693.00,4.3973
1692.00,4.3028
1691.00,4.1873
1690.00,4.0756
1689.00,3.9778
1688.00,3.8995
1687.00,3.8400
1686.00,3.7888
1685.00,3.7253
1684.00,3.6447
1683.00,3.5693
1682.00,3.5107
1681.00,3.4634
1680.00,3.4198
1679.00,3.3787
1678.00,3.3426
1677.00,3.3144
1676.00,3.2945
1675.00,3.2788
1674.00,3.2610
1673.00,3.2380
1672.00,3.2140
1671.00,3.1965
1670.00,3.1915
1669.00,3.1987
1668.00,3.2106
1667.00,3.2190
1666.00,3.2226
1665.00,3.2274
1664.00,3.2404
1663.00,3.2602
1662.00,3.2779
1661.00,3.2842
1660.00,3.2806
1659.00,3.2789
1658.00,3.2873
1657.00,3.2996
1656.00,3.3018
1655.00,3.2906
1654.00,3.2747
1653.00,3.2678
1652.00,3.2705
1651.00,3.2723
1650.00,3.2733
1649.00,3.2742
1648.00,3.2703
1647.00,3.2563
1646.00,3.2337
1645.00,3.2052
1644.00,3.1762
1643.00,3.1520
1642.00,3.1345
1641.00,3.1198
1640.00,3.1019
1639.00,3.0770
1638.00,3.0463
1637.00,3.0135
1636.00,2.9840
1635.00,2.9623
1634.00,2.9431
1633.00,2.9198
1632.00,2.8907
1631.00,2.8560
1630.00,2.8163
1629.00,2.7711
1628.00,2.7203
1627.00,2.6656
1626.00,2.6099
1625.00,2.5563
1624.00,2.5066
1623.00,2.4613
1622.00,2.4207
1621.00,2.3844
1620.00,2.3523
1619.00,2.3265
1618.00,2.3118
1617.00,2.3108
1616.00,2.3208
1615.00,2.3371
1614.00,2.3577
1613.00,2.3838
1612.00,2.4166
1611.00,2.4549
1610.00,2.4971
1609.00,2.5421
1608.00,2.5888
1607.00,2.6346
1606.00,2.6783
1605.00,2.7208
1604.00,2.7632
1603.00,2.8054
1602.00,2.8455
1601.00,2.8821
1600.00,2.9158
1599.00,2.9479
1598.00,2.9792
1597.00,3.0092
1596.00,3.0374
1595.00,3.0634
1594.00,3.0864
1593.00,3.1055
1592.00,3.1210
1591.00,3.1348
1590.00,3.1498
1589.00,3.1679
1588.00,3.1879
1587.00,3.2062
1586.00,3.2198
1585.00,3.2289
1584.00,3.2355
1583.00,3.2435
1582.00,3.2563
1581.00,3.2730
1580.00,3.2892
1579.00,3.3016
1578.00,3.3116
1577.00,3.3224
1576.00,3.3306
1575.00,3.3257
1574.00,3.3068
1573.00,3.2865
1572.00,3.2767
1571.00,3.2799
1570.00,3.2883
1569.00,3.2946
1568.00,3.2968
1567.00,3.2937
1566.00,3.2847
1565.00,3.2739
1564.00,3.2662
1563.00,3.2613
1562.00,3.2543
1561.00,3.2497
1560.00,3.2465
1559.00,3.2328
1558.00,3.2219
1557.00,3.2132
1556.00,3.2008
1555.00,3.1836
1554.00,3.1648
1553.00,3.1464
1552.00,3.1284
1551.00,3.1072
1550.00,3.0795
1549.00,3.0502
1548.00,3.0267
1547.00,3.0118
1546.00,2.9994
1545.00,2.9783
1544.00,2.9432
1543.00,2.8991
1542.00,2.8509
1541.00,2.7966
1540.00,2.7390
1539.00,2.6861
1538.00,2.6346
1537.00,2.5817
1536.00,2.5282
1535.00,2.4739
1534.00,2.4144
1533.00,2.3479
1532.00,2.2811
1531.00,2.2214
1530.00,2.1716
1529.00,2.1314
1528.00,2.0975
1527.00,2.0682
1526.00,2.0472
1525.00,2.0393
1524.00,2.0470
1523.00,2.0701
1522.00,2.1059
1521.00,2.1521
1520.00,2.2057
1519.00,2.2632
1518.00,2.3236
1517.00,2.3851
1516.00,2.4460
1515.00,2.5055
1514.00,2.5668
1513.00,2.6351
1512.00,2.7103
1511.00,2.7843
1510.00,2.8487
1509.00,2.8952
1508.00,2.9126
1507.00,2.9116
1506.00,2.9317
1505.00,2.9753
1504.00,3.0190
1503.00,3.0523
1502.00,3.0791
1501.00,3.1051
1500.00,3.1298
1499.00,3.1511
1498.00,3.1703
1497.00,3.1901
1496.00,3.2098
1495.00,3.2270
1494.00,3.2456
1493.00,3.2704
1492.00,3.3005
1491.00,3.3302
1490.00,3.3551
1489.00,3.3740
1488.00,3.3836
1487.00,3.3861
1486.00,3.3949
1485.00,3.4162
1484.00,3.4381
1483.00,3.4457
1482.00,3.4395
1481.00,3.4311
1480.00,3.4279
1479.00,3.4321
1478.00,3.4447
1477.00,3.4614
1476.00,3.4733
1475.00,3.4769
1474.00,3.4768
1473.00,3.4721
1472.00,3.4585
1471.00,3.4408
1470.00,3.4329
1469.00,3.4412
1468.00,3.4571
1467.00,3.4680
1466.00,3.4725
1465.00,3.4777
1464.00,3.4853
1463.00,3.4921
1462.00,3.4989
1461.00,3.5086
1460.00,3.5184
1459.00,3.5259
1458.00,3.5380
1457.00,3.5779
1456.00,3.6674
1455.00,3.8038
1454.00,3.9785
1453.00,4.1730
1452.00,4.3006
1451.00,4.3488
1450.00,4.4452
1449.00,4.6002
1448.00,4.6030
1447.00,4.3623
1446.00,4.1295
1445.00,3.9724
1444.00,3.8654
1443.00,3.7862
1442.00,3.7281
1441.00,3.6886
1440.00,3.6586
1439.00,3.6336
1438.00,3.6225
1437.00,3.6347
1436.00,3.6663
1435.00,3.7035
1434.00,3.7353
1433.00,3.7614
1432.00,3.7906
1431.00,3.8275
1430.00,3.8664
1429.00,3.9005
1428.00,3.9225
1427.00,3.9270
1426.00,3.9283
1425.00,3.9514
1424.00,4.0104
1423.00,4.0880
1422.00,4.1122
1421.00,4.0629
1420.00,4.0032
1419.00,3.9413
1418.00,3.8738
1417.00,3.8056
1416.00,3.7299
1415.00,3.6483
1414.00,3.5756
1413.00,3.5185
1412.00,3.4711
1411.00,3.4283
1410.00,3.3912
1409.00,3.3610
1408.00,3.3336
1407.00,3.3022
1406.00,3.2627
1405.00,3.2150
1404.00,3.1646
1403.00,3.1209
1402.00,3.0903
1401.00,3.0702
1400.00,3.0499
1399.00,3.0214
1398.00,2.9864
1397.00,2.9499
1396.00,2.9119
1395.00,2.8715
1394.00,2.8323
1393.00,2.7992
1392.00,2.7754
1391.00,2.7622
1390.00,2.7591
1389.00,2.7619
1388.00,2.7653
1387.00,2.7687
1386.00,2.7780
1385.00,2.7976
1384.00,2.8258
1383.00,2.8585
1382.00,2.8950
1381.00,2.9372
1380.00,2.9847
1379.00,3.0328
1378.00,3.0778
1377.00,3.1196
1376.00,3.1589
1375.00,3.1928
1374.00,3.2188
1373.00,3.2391
1372.00,3.2580
1371.00,3.2787
1370.00,3.3050
1369.00,3.3397
1368.00,3.3801
1367.00,3.4179
1366.00,3.4489
1365.00,3.4799
1364.00,3.5155
1363.00,3.5468
1362.00,3.5605
1361.00,3.5559
1360.00,3.5494
1359.00,3.5588
1358.00,3.5892
1357.00,3.6308
1356.00,3.6679
1355.00,3.6937
1354.00,3.7212
1353.00,3.7704
1352.00,3.8504
1351.00,3.9493
1350.00,4.0296
1349.00,4.0537
1348.00,4.0183
1347.00,3.9517
1346.00,3.8909
1345.00,3.8500
1344.00,3.8261
1343.00,3.8233
1342.00,3.8595
1341.00,3.9501
1340.00,4.0838
1339.00,4.1954
1338.00,4.2007
1337.00,4.1163
1336.00,4.0185
1335.00,3.9341
1334.00,3.8597
1333.00,3.7948
1332.00,3.7403
1331.00,3.6956
1330.00,3.6649
1329.00,3.6567
1328.00,3.6720
1327.00,3.6960
1326.00,3.7090
1325.00,3.7087
1324.00,3.7107
1323.00,3.7289
1322.00,3.7623
1321.00,3.7991
1320.00,3.8320
1319.00,3.8698
1318.00,3.9363
1317.00,4.0587
1316.00,4.2799
1315.00,4.6683
1314.00,4.6993
1313.00,4.6252
1312.00,4.7963
1311.00,4.5811
1310.00,4.3570
1309.00,4.2496
1308.00,4.1409
1307.00,3.9989
1306.00,3.8725
1305.00,3.7981
1304.00,3.7770
1303.00,3.7837
1302.00,3.7817
1301.00,3.7548
1300.00,3.7145
1299.00,3.6739
1298.00,3.6371
1297.00,3.6057
1296.00,3.5820
1295.00,3.5663
1294.00,3.5522
1293.00,3.5307
1292.00,3.5030
1291.00,3.4804
1290.00,3.4693
1289.00,3.4589
1288.00,3.4301
1287.00,3.3781
1286.00,3.3206
1285.00,3.2753
1284.00,3.2438
1283.00,3.2157
1282.00,3.1812
1281.00,3.1413
1280.00,3.1044
1279.00,3.0772
1278.00,3.0597
1277.00,3.0465
1276.00,3.0336
1275.00,3.0220
1274.00,3.0160
1273.00,3.0187
1272.00,3.0305
1271.00,3.0518
1270.00,3.0849
1269.00,3.1315
1268.00,3.1868
1267.00,3.2394
1266.00,3.2768
1265.00,3.2933
1264.00,3.2933
1263.00,3.2856
1262.00,3.2762
1261.00,3.2691
1260.00,3.2685
1259.00,3.2779
1258.00,3.2979
1257.00,3.3273
1256.00,3.3647
1255.00,3.4082
1254.00,3.4535
1253.00,3.4951
1252.00,3.5314
1251.00,3.5652
1250.00,3.6006
1249.00,3.6376
1248.00,3.6712
1247.00,3.6965
1246.00,3.7159
1245.00,3.7374
1244.00,3.7672
1243.00,3.8082
1242.00,3.8572
1241.00,3.8996
1240.00,3.9161
1239.00,3.9038
1238.00,3.8817
1237.00,3.8705
1236.00,3.8805
1235.00,3.9052
1234.00,3.9257
1233.00,3.9387
1232.00,3.9546
1231.00,3.9728
1230.00,3.9831
1229.00,3.9905
1228.00,4.0178
1227.00,4.0610
1226.00,4.0937
1225.00,4.1400
1224.00,4.2278
1223.00,4.3015
1222.00,4.3225
1221.00,4.3270
1220.00,4.3064
1219.00,4.2467
1218.00,4.1886
1217.00,4.1693
1216.00,4.1806
1215.00,4.1716
1214.00,4.0731
1213.00,3.9097
1212.00,3.7732
1211.00,3.7045
1210.00,3.6995
1209.00,3.7315
1208.00,3.7667
1207.00,3.7866
1206.00,3.7960
1205.00,3.8161
1204.00,3.8757
1203.00,3.9780
1202.00,4.0792
1201.00,4.1356
1200.00,4.1332
1199.00,4.0877
1198.00,4.0336
1197.00,4.0090
1196.00,4.0391
1195.00,4.1113
1194.00,4.1713
1193.00,4.1593
1192.00,4.0679
1191.00,3.9674
1190.00,3.9086
1189.00,3.8912
1188.00,3.9004
1187.00,3.9273
1186.00,3.9567
1185.00,3.9723
1184.00,3.9841
1183.00,4.0072
1182.00,4.0331
1181.00,4.0408
1180.00,4.0303
1179.00,4.0209
1178.00,4.0100
1177.00,3.9732
1176.00,3.9142
1175.00,3.8681
1174.00,3.8521
1173.00,3.8535
1172.00,3.8474
1171.00,3.8183
1170.00,3.8029
1169.00,3.8334
1168.00,3.8848
1167.00,3.9378
1166.00,3.9916
1165.00,3.9955
1164.00,3.9138
1163.00,3.7894
1162.00,3.6868
1161.00,3.6386
1160.00,3.6393
1159.00,3.6599
1158.00,3.6684
1157.00,3.6511
1156.00,3.6098
1155.00,3.5591
1154.00,3.5181
1153.00,3.4984
1152.00,3.4984
1151.00,3.4998
1150.00,3.4853
1149.00,3.4592
1148.00,3.4340
1147.00,3.4197
1146.00,3.4218
1145.00,3.4353
1144.00,3.4502
1143.00,3.4606
1142.00,3.4626
1141.00,3.4554
1140.00,3.4488
1139.00,3.4557
1138.00,3.4781
1137.00,3.5049
1136.00,3.5266
1135.00,3.5474
1134.00,3.5751
1133.00,3.6129
1132.00,3.6677
1131.00,3.7590
1130.00,3.8909
1129.00,3.9797
1128.00,3.9611
1127.00,3.9005
1126.00,3.8663
1125.00,3.9112
1124.00,4.0473
1123.00,4.2473
1122.00,4.4268
1121.00,4.4568
1120.00,4.3928
1119.00,4.3887
1118.00,4.4962
1117.00,4.5840
1116.00,4.3951
1115.00,4.1306
1114.00,3.9682
1113.00,3.9002
1112.00,3.8749
1111.00,3.8383
1110.00,3.7616
1109.00,3.6624
1108.00,3.5747
1107.00,3.5222
1106.00,3.5149
1105.00,3.5461
1104.00,3.5865
1103.00,3.5938
1102.00,3.5642
1101.00,3.5394
1100.00,3.5557
1099.00,3.6228
1098.00,3.7267
1097.00,3.8436
1096.00,3.9463
1095.00,3.9873
1094.00,3.9620
1093.00,3.9483
1092.00,3.9834
1091.00,4.0155
1090.00,4.0051
1089.00,4.0049
1088.00,4.0343
1087.00,4.0683
1086.00,4.0680
1085.00,3.9978
1084.00,3.8996
1083.00,3.8500
1082.00,3.8927
1081.00,4.0327
1080.00,4.3354
1079.00,4.6397
1078.00,4.5149
1077.00,4.4438
1076.00,4.1337
1075.00,3.9975
1074.00,4.0460
1073.00,4.1710
1072.00,4.3682
1071.00,4.8207
1070.00,5.4196
1069.00,4.8716
1068.00,4.4013
1067.00,4.1598
1066.00,4.1030
1065.00,4.1620
1064.00,4.2145
1063.00,4.1369
1062.00,3.9843
1061.00,3.8802
1060.00,3.8568
1059.00,3.8899
1058.00,3.9547
1057.00,4.0366
1056.00,4.1133
1055.00,4.1628
1054.00,4.2225
1053.00,4.3291
1052.00,4.2950
1051.00,4.1503
1050.00,4.0921
1049.00,4.1098
1048.00,4.1699
1047.00,4.2666
1046.00,4.3621
1045.00,4.3780
1044.00,4.3406
1043.00,4.3236
1042.00,4.3533
1041.00,4.3783
1040.00,4.4263
1039.00,4.5220
1038.00,4.3870
1037.00,4.2515
1036.00,4.2453
1035.00,4.2387
1034.00,4.1763
1033.00,4.0735
1032.00,3.9487
1031.00,3.8598
1030.00,3.8231
1029.00,3.8079
1028.00,3.7872
1027.00,3.7729
1026.00,3.7900
1025.00,3.8392
1024.00,3.8843
1023.00,3.8728
1022.00,3.8163
1021.00,3.7812
1020.00,3.8027
1019.00,3.8691
1018.00,3.9312
1017.00,3.9415
1016.00,3.9160
1015.00,3.8926
1014.00,3.8796
1013.00,3.8748
1012.00,3.8759
1011.00,3.8613
1010.00,3.8245
1009.00,3.7988
1008.00,3.7881
1007.00,3.7564
1006.00,3.6877
1005.00,3.6106
1004.00,3.5534
1003.00,3.5203
1002.00,3.5078
1001.00,3.5203
1000.00,3.5719
999.00,3.6816
998.00,3.8674
997.00,4.0559
996.00,4.0725
995.00,4.0231
994.00,4.0216
993.00,4.0638
992.00,4.0813
991.00,4.1002
990.00,4.0565
989.00,3.8844
988.00,3.7975
987.00,3.8484
986.00,4.0194
985.00,4.2871
984.00,4.5460
983.00,4.5762
982.00,4.3776
981.00,4.2156
980.00,4.1407
979.00,4.1453
978.00,4.2132
977.00,4.2992
976.00,4.3209
975.00,4.4771
974.00,4.7772
973.00,4.5017
972.00,4.4833
971.00,4.4699
970.00,4.2202
969.00,4.1071
968.00,4.0898
967.00,4.0998
966.00,4.0978
965.00,4.0829
964.00,4.0814
963.00,4.1622
962.00,4.2835
961.00,4.2451
960.00,4.1678
959.00,4.2631
958.00,4.5820
957.00,4.4678
956.00,4.2177
955.00,4.1555
954.00,4.1778
953.00,4.2739
952.00,4.4069
951.00,4.5205
950.00,4.6299
949.00,4.6996
948.00,4.5398
947.00,4.3467
946.00,4.2534
945.00,4.3422
944.00,4.6989
943.00,4.6602
942.00,4.4334
941.00,4.4272
940.00,4.4896
939.00,4.5207
938.00,4.4598
937.00,4.4030
936.00,4.4115
935.00,4.4314
934.00,4.4342
933.00,4.4502
932.00,4.5628
931.00,4.7263
930.00,4.5100
929.00,4.2460
928.00,4.0990
927.00,4.0282
926.00,4.0009
925.00,3.9808
924.00,4.0002
923.00,4.1172
922.00,4.4243
921.00,4.8777
920.00,4.8456
919.00,4.6586
918.00,4.3289
917.00,4.1262
916.00,4.0527
915.00,4.0264
914.00,3.9994
913.00,3.9548
912.00,3.9435
911.00,3.9869
910.00,4.0030
909.00,3.9487
908.00,3.9443
907.00,4.0257
906.00,4.2604
905.00,4.6602
904.00,4.4903
903.00,4.2304
902.00,4.0605
901.00,3.9869
900.00,4.0147
899.00,4.0806
898.00,4.1323
897.00,4.1502
896.00,4.1388
895.00,4.1069
894.00,4.0809
893.00,4.0867
892.00,4.1101
891.00,4.2236
890.00,4.4606
889.00,4.2058
888.00,4.0014
887.00,3.9712
886.00,4.1559
885.00,4.7783
884.00,4.3693
883.00,4.1433
882.00,4.2015
881.00,4.2116
880.00,4.1320
879.00,4.1352
878.00,4.4932
877.00,4.7093
876.00,4.2089
875.00,4.1192
874.00,4.1438
873.00,4.1589
872.00,4.2111
871.00,4.2450
870.00,4.2683
869.00,4.2742
868.00,4.2529
867.00,4.1799
866.00,4.1415
865.00,4.1733
864.00,4.2439
863.00,4.3165
862.00,4.3407
861.00,4.2535
860.00,4.0979
859.00,3.9623
858.00,3.8909
857.00,3.9102
856.00,4.0365
855.00,4.3181
854.00,4.5529
853.00,4.3583
852.00,4.2177
851.00,4.1358
850.00,4.1077
849.00,4.1498
848.00,4.1888
847.00,4.1799
846.00,4.1474
845.00,4.1340
844.00,4.1427
843.00,4.1924
842.00,4.1731
841.00,4.0241
840.00,3.9413
839.00,4.0222
838.00,4.2699
837.00,4.7470
836.00,5.0915
835.00,4.5198
834.00,4.3916
833.00,4.4249
832.00,4.2442
831.00,4.0573
830.00,4.0076
829.00,4.1076
828.00,4.3013
827.00,4.3490
826.00,4.3498
825.00,4.3935
824.00,4.1689
823.00,4.0241
822.00,4.0265
821.00,4.2673
820.00,4.9790
819.00,4.5913
818.00,4.4208
817.00,4.4520
816.00,4.4569
815.00,4.6290
814.00,4.7324
813.00,4.4733
812.00,4.3020
811.00,4.2643
810.00,4.1809
809.00,4.2202
808.00,4.4233
807.00,4.3947
806.00,4.1259
805.00,4.2624
804.00,4.7590
803.00,4.0874
802.00,3.8678
801.00,3.8173
800.00,3.7916
799.00,3.8029
798.00,3.8186
797.00,3.9091
796.00,4.0607
795.00,4.1867
794.00,4.2393
793.00,4.2336
792.00,4.1510
791.00,4.0363
790.00,3.9213
789.00,3.8618
788.00,3.8672
787.00,3.8965
786.00,3.8843
785.00,3.8216
784.00,3.7808
783.00,3.8110
782.00,3.9033
781.00,3.9602
780.00,3.9822
779.00,4.0517
778.00,4.0320
777.00,3.9339
776.00,3.9231
775.00,4.0221
774.00,4.2159
773.00,4.4410
772.00,4.5306
771.00,4.6164
770.00,4.8113
769.00,4.6779
768.00,4.4650
767.00,4.4403
766.00,4.5331
765.00,4.7274
764.00,5.1627
763.00,5.0755
762.00,4.5750
761.00,4.2610
760.00,4.0302
759.00,3.9046
758.00,3.8937
757.00,4.0235
756.00,4.2972
755.00,4.3149
754.00,4.1153
753.00,4.0381
752.00,4.0544
751.00,4.1095
750.00,4.1296
749.00,4.1196
748.00,4.1426
747.00,4.2058
746.00,4.1676
745.00,4.0761
744.00,4.0453
743.00,3.9541
742.00,3.8377
741.00,3.8043
740.00,3.8458
739.00,3.9299
738.00,4.0276
737.00,4.1499
736.00,4.2657
735.00,4.2446
734.00,4.2467
733.00,4.4325
732.00,4.8882
731.00,4.7004
730.00,4.2109
729.00,4.0125
728.00,4.0578
727.00,4.3363
726.00,4.6499
725.00,4.7228
724.00,4.2500
723.00,3.9190
722.00,3.8122
721.00,3.8578
720.00,4.0344
719.00,4.3804
718.00,4.7847
717.00,4.3449
716.00,4.0191
715.00,3.9004
714.00,3.9346
713.00,4.1485
712.00,4.3134
711.00,4.0610
710.00,3.9052
709.00,3.9125
708.00,4.1224
707.00,4.3615
706.00,4.1175
705.00,3.9928
704.00,4.0317
703.00,4.1917
702.00,4.1414
701.00,3.9288
700.00,3.8924
