Created as New Dataset,Sample 076 By Administrator Date Wednesday, November 24 2021
cm-1,A
7502.00,0.7797
7501.00,0.7792
7500.00,0.7794
7499.00,0.7807
7498.00,0.7827
7497.00,0.7852
7496.00,0.7882
7495.00,0.7918
7494.00,0.7958
7493.00,0.8003
7492.00,0.8053
7491.00,0.8112
7490.00,0.8178
7489.00,0.8248
7488.00,0.8319
7487.00,0.8397
7486.00,0.8482
7485.00,0.8569
7484.00,0.8650
7483.00,0.8725
7482.00,0.8800
7481.00,0.8881
7480.00,0.8970
7479.00,0.9064
7478.00,0.9160
7477.00,0.9258
7476.00,0.9356
7475.00,0.9453
7474.00,0.9550
7473.00,0.9650
7472.00,0.9749
7471.00,0.9847
7470.00,0.9943
7469.00,1.0037
7468.00,1.0131
7467.00,1.0223
7466.00,1.0309
7465.00,1.0386
7464.00,1.0455
7463.00,1.0522
7462.00,1.0590
7461.00,1.0657
7460.00,1.0716
7459.00,1.0763
7458.00,1.0805
7457.00,1.0850
7456.00,1.0900
7455.00,1.0945
7454.00,1.0981
7453.00,1.1011
7452.00,1.1045
7451.00,1.1084
7450.00,1.1121
7449.00,1.1148
7448.00,1.1163
7447.00,1.1170
7446.00,1.1170
7445.00,1.1165
7444.00,1.1152
7443.00,1.1131
7442.00,1.1103
7441.00,1.1073
7440.00,1.1040
7439.00,1.1002
7438.00,1.0958
7437.00,1.0910
7436.00,1.0866
7435.00,1.0825
7434.00,1.0784
7433.00,1.0736
7432.00,1.0685
7431.00,1.0636
7430.00,1.0590
7429.00,1.0546
7428.00,1.0504
7427.00,1.0471
7426.00,1.0448
7425.00,1.0431
7424.00,1.0412
7423.00,1.0386
7422.00,1.0349
7421.00,1.0304
7420.00,1.0249
7419.00,1.0183
7418.00,1.0105
7417.00,1.0022
7416.00,0.9939
7415.00,0.9863
7414.00,0.9793
7413.00,0.9725
7412.00,0.9658
7411.00,0.9596
7410.00,0.9540
7409.00,0.9488
7408.00,0.9441
7407.00,0.9397
7406.00,0.9356
7405.00,0.9310
7404.00,0.9252
7403.00,0.9182
7402.00,0.9102
7401.00,0.9018
7400.00,0.8933
7399.00,0.8845
7398.00,0.8755
7397.00,0.8665
7396.00,0.8578
7395.00,0.8498
7394.00,0.8424
7393.00,0.8351
7392.00,0.8277
7391.00,0.8202
7390.00,0.8130
7389.00,0.8065
7388.00,0.8006
7387.00,0.7952
7386.00,0.7901
7385.00,0.7856
7384.00,0.7815
7383.00,0.7777
7382.00,0.7743
7381.00,0.7713
7380.00,0.7690
7379.00,0.7674
7378.00,0.7661
7377.00,0.7652
7376.00,0.7648
7375.00,0.7652
7374.00,0.7664
7373.00,0.7679
7372.00,0.7693
7371.00,0.7710
7370.00,0.7734
7369.00,0.7769
7368.00,0.7814
7367.00,0.7864
7366.00,0.7920
7365.00,0.7980
7364.00,0.8046
7363.00,0.8114
7362.00,0.8184
7361.00,0.8255
7360.00,0.8331
7359.00,0.8411
7358.00,0.8494
7357.00,0.8580
7356.00,0.8670
7355.00,0.8766
7354.00,0.8868
7353.00,0.8974
7352.00,0.9083
7351.00,0.9194
7350.00,0.9304
7349.00,0.9411
7348.00,0.9512
7347.00,0.9611
7346.00,0.9708
7345.00,0.9806
7344.00,0.9904
7343.00,1.0008
7342.00,1.0118
7341.00,1.0230
7340.00,1.0339
7339.00,1.0439
7338.00,1.0531
7337.00,1.0619
7336.00,1.0706
7335.00,1.0790
7334.00,1.0875
7333.00,1.0963
7332.00,1.1052
7331.00,1.1135
7330.00,1.1208
7329.00,1.1271
7328.00,1.1332
7327.00,1.1393
7326.00,1.1454
7325.00,1.1508
7324.00,1.1554
7323.00,1.1600
7322.00,1.1652
7321.00,1.1704
7320.00,1.1746
7319.00,1.1775
7318.00,1.1795
7317.00,1.1818
7316.00,1.1844
7315.00,1.1869
7314.00,1.1889
7313.00,1.1905
7312.00,1.1918
7311.00,1.1928
7310.00,1.1930
7309.00,1.1922
7308.00,1.1906
7307.00,1.1885
7306.00,1.1860
7305.00,1.1832
7304.00,1.1803
7303.00,1.1774
7302.00,1.1745
7301.00,1.1717
7300.00,1.1685
7299.00,1.1648
7298.00,1.1603
7297.00,1.1554
7296.00,1.1502
7295.00,1.1445
7294.00,1.1378
7293.00,1.1300
7292.00,1.1215
7291.00,1.1129
7290.00,1.1041
7289.00,1.0948
7288.00,1.0851
7287.00,1.0754
7286.00,1.0663
7285.00,1.0575
7284.00,1.0486
7283.00,1.0392
7282.00,1.0294
7281.00,1.0194
7280.00,1.0090
7279.00,0.9983
7278.00,0.9873
7277.00,0.9763
7276.00,0.9656
7275.00,0.9551
7274.00,0.9446
7273.00,0.9343
7272.00,0.9240
7271.00,0.9140
7270.00,0.9040
7269.00,0.8942
7268.00,0.8845
7267.00,0.8752
7266.00,0.8664
7265.00,0.8581
7264.00,0.8498
7263.00,0.8417
7262.00,0.8339
7261.00,0.8265
7260.00,0.8195
7259.00,0.8127
7258.00,0.8065
7257.00,0.8009
7256.00,0.7959
7255.00,0.7913
7254.00,0.7872
7253.00,0.7838
7252.00,0.7812
7251.00,0.7793
7250.00,0.7777
7249.00,0.7765
7248.00,0.7760
7247.00,0.7765
7246.00,0.7777
7245.00,0.7793
7244.00,0.7811
7243.00,0.7834
7242.00,0.7863
7241.00,0.7901
7240.00,0.7946
7239.00,0.7998
7238.00,0.8056
7237.00,0.8121
7236.00,0.8190
7235.00,0.8263
7234.00,0.8339
7233.00,0.8417
7232.00,0.8497
7231.00,0.8580
7230.00,0.8663
7229.00,0.8748
7228.00,0.8836
7227.00,0.8927
7226.00,0.9024
7225.00,0.9123
7224.00,0.9222
7223.00,0.9320
7222.00,0.9417
7221.00,0.9517
7220.00,0.9620
7219.00,0.9723
7218.00,0.9826
7217.00,0.9930
7216.00,1.0037
7215.00,1.0145
7214.00,1.0249
7213.00,1.0346
7212.00,1.0438
7211.00,1.0526
7210.00,1.0609
7209.00,1.0687
7208.00,1.0762
7207.00,1.0837
7206.00,1.0914
7205.00,1.0992
7204.00,1.1067
7203.00,1.1137
7202.00,1.1201
7201.00,1.1264
7200.00,1.1324
7199.00,1.1379
7198.00,1.1425
7197.00,1.1463
7196.00,1.1496
7195.00,1.1528
7194.00,1.1559
7193.00,1.1590
7192.00,1.1621
7191.00,1.1652
7190.00,1.1679
7189.00,1.1703
7188.00,1.1722
7187.00,1.1737
7186.00,1.1746
7185.00,1.1746
7184.00,1.1739
7183.00,1.1728
7182.00,1.1715
7181.00,1.1696
7180.00,1.1672
7179.00,1.1646
7178.00,1.1622
7177.00,1.1602
7176.00,1.1580
7175.00,1.1553
7174.00,1.1520
7173.00,1.1481
7172.00,1.1435
7171.00,1.1381
7170.00,1.1321
7169.00,1.1259
7168.00,1.1195
7167.00,1.1127
7166.00,1.1056
7165.00,1.0987
7164.00,1.0919
7163.00,1.0846
7162.00,1.0765
7161.00,1.0676
7160.00,1.0587
7159.00,1.0502
7158.00,1.0415
7157.00,1.0325
7156.00,1.0229
7155.00,1.0131
7154.00,1.0034
7153.00,0.9937
7152.00,0.9840
7151.00,0.9746
7150.00,0.9653
7149.00,0.9561
7148.00,0.9466
7147.00,0.9368
7146.00,0.9268
7145.00,0.9168
7144.00,0.9069
7143.00,0.8971
7142.00,0.8872
7141.00,0.8775
7140.00,0.8683
7139.00,0.8594
7138.00,0.8505
7137.00,0.8417
7136.00,0.8331
7135.00,0.8253
7134.00,0.8181
7133.00,0.8114
7132.00,0.8049
7131.00,0.7989
7130.00,0.7935
7129.00,0.7886
7128.00,0.7842
7127.00,0.7802
7126.00,0.7769
7125.00,0.7745
7124.00,0.7728
7123.00,0.7716
7122.00,0.7708
7121.00,0.7705
7120.00,0.7710
7119.00,0.7723
7118.00,0.7743
7117.00,0.7770
7116.00,0.7801
7115.00,0.7838
7114.00,0.7882
7113.00,0.7930
7112.00,0.7982
7111.00,0.8038
7110.00,0.8097
7109.00,0.8163
7108.00,0.8237
7107.00,0.8317
7106.00,0.8400
7105.00,0.8487
7104.00,0.8577
7103.00,0.8672
7102.00,0.8772
7101.00,0.8874
7100.00,0.8975
7099.00,0.9075
7098.00,0.9178
7097.00,0.9285
7096.00,0.9392
7095.00,0.9500
7094.00,0.9609
7093.00,0.9721
7092.00,0.9834
7091.00,0.9944
7090.00,1.0048
7089.00,1.0150
7088.00,1.0255
7087.00,1.0360
7086.00,1.0464
7085.00,1.0568
7084.00,1.0671
7083.00,1.0771
7082.00,1.0865
7081.00,1.0953
7080.00,1.1038
7079.00,1.1124
7078.00,1.1208
7077.00,1.1289
7076.00,1.1367
7075.00,1.1442
7074.00,1.1513
7073.00,1.1576
7072.00,1.1633
7071.00,1.1689
7070.00,1.1745
7069.00,1.1799
7068.00,1.1849
7067.00,1.1895
7066.00,1.1935
7065.00,1.1967
7064.00,1.1992
7063.00,1.2012
7062.00,1.2033
7061.00,1.2054
7060.00,1.2076
7059.00,1.2095
7058.00,1.2108
7057.00,1.2113
7056.00,1.2111
7055.00,1.2100
7054.00,1.2081
7053.00,1.2054
7052.00,1.2023
7051.00,1.1990
7050.00,1.1958
7049.00,1.1924
7048.00,1.1890
7047.00,1.1854
7046.00,1.1815
7045.00,1.1774
7044.00,1.1730
7043.00,1.1680
7042.00,1.1621
7041.00,1.1552
7040.00,1.1478
7039.00,1.1405
7038.00,1.1332
7037.00,1.1257
7036.00,1.1177
7035.00,1.1095
7034.00,1.1012
7033.00,1.0924
7032.00,1.0830
7031.00,1.0730
7030.00,1.0624
7029.00,1.0518
7028.00,1.0413
7027.00,1.0309
7026.00,1.0206
7025.00,1.0101
7024.00,0.9995
7023.00,0.9886
7022.00,0.9773
7021.00,0.9659
7020.00,0.9548
7019.00,0.9441
7018.00,0.9336
7017.00,0.9229
7016.00,0.9120
7015.00,0.9014
7014.00,0.8912
7013.00,0.8811
7012.00,0.8711
7011.00,0.8613
7010.00,0.8522
7009.00,0.8439
7008.00,0.8361
7007.00,0.8286
7006.00,0.8212
7005.00,0.8141
7004.00,0.8075
7003.00,0.8015
7002.00,0.7960
7001.00,0.7909
7000.00,0.7863
6999.00,0.7825
6998.00,0.7796
6997.00,0.7774
6996.00,0.7757
6995.00,0.7747
6994.00,0.7745
6993.00,0.7751
6992.00,0.7763
6991.00,0.7780
6990.00,0.7801
6989.00,0.7828
6988.00,0.7859
6987.00,0.7897
6986.00,0.7942
6985.00,0.7994
6984.00,0.8051
6983.00,0.8114
6982.00,0.8184
6981.00,0.8260
6980.00,0.8340
6979.00,0.8423
6978.00,0.8510
6977.00,0.8600
6976.00,0.8694
6975.00,0.8791
6974.00,0.8891
6973.00,0.8992
6972.00,0.9094
6971.00,0.9196
6970.00,0.9301
6969.00,0.9409
6968.00,0.9519
6967.00,0.9632
6966.00,0.9747
6965.00,0.9865
6964.00,0.9979
6963.00,1.0087
6962.00,1.0190
6961.00,1.0292
6960.00,1.0394
6959.00,1.0493
6958.00,1.0589
6957.00,1.0686
6956.00,1.0787
6955.00,1.0889
6954.00,1.0986
6953.00,1.1072
6952.00,1.1150
6951.00,1.1226
6950.00,1.1304
6949.00,1.1379
6948.00,1.1448
6947.00,1.1510
6946.00,1.1568
6945.00,1.1623
6944.00,1.1675
6943.00,1.1723
6942.00,1.1767
6941.00,1.1806
6940.00,1.1840
6939.00,1.1872
6938.00,1.1904
6937.00,1.1935
6936.00,1.1961
6935.00,1.1980
6934.00,1.1996
6933.00,1.2012
6932.00,1.2025
6931.00,1.2031
6930.00,1.2028
6929.00,1.2017
6928.00,1.1999
6927.00,1.1979
6926.00,1.1959
6925.00,1.1937
6924.00,1.1911
6923.00,1.1879
6922.00,1.1843
6921.00,1.1806
6920.00,1.1764
6919.00,1.1713
6918.00,1.1654
6917.00,1.1593
6916.00,1.1535
6915.00,1.1479
6914.00,1.1418
6913.00,1.1351
6912.00,1.1280
6911.00,1.1207
6910.00,1.1130
6909.00,1.1047
6908.00,1.0958
6907.00,1.0865
6906.00,1.0772
6905.00,1.0680
6904.00,1.0587
6903.00,1.0491
6902.00,1.0392
6901.00,1.0289
6900.00,1.0185
6899.00,1.0080
6898.00,0.9974
6897.00,0.9867
6896.00,0.9758
6895.00,0.9649
6894.00,0.9541
6893.00,0.9435
6892.00,0.9329
6891.00,0.9220
6890.00,0.9111
6889.00,0.9002
6888.00,0.8896
6887.00,0.8794
6886.00,0.8698
6885.00,0.8604
6884.00,0.8511
6883.00,0.8421
6882.00,0.8335
6881.00,0.8254
6880.00,0.8176
6879.00,0.8102
6878.00,0.8033
6877.00,0.7972
6876.00,0.7917
6875.00,0.7866
6874.00,0.7817
6873.00,0.7773
6872.00,0.7735
6871.00,0.7703
6870.00,0.7678
6869.00,0.7662
6868.00,0.7655
6867.00,0.7657
6866.00,0.7664
6865.00,0.7677
6864.00,0.7695
6863.00,0.7718
6862.00,0.7746
6861.00,0.7780
6860.00,0.7821
6859.00,0.7870
6858.00,0.7925
6857.00,0.7987
6856.00,0.8055
6855.00,0.8128
6854.00,0.8206
6853.00,0.8289
6852.00,0.8374
6851.00,0.8464
6850.00,0.8559
6849.00,0.8659
6848.00,0.8761
6847.00,0.8866
6846.00,0.8973
6845.00,0.9084
6844.00,0.9198
6843.00,0.9313
6842.00,0.9430
6841.00,0.9550
6840.00,0.9672
6839.00,0.9792
6838.00,0.9908
6837.00,1.0019
6836.00,1.0127
6835.00,1.0233
6834.00,1.0335
6833.00,1.0437
6832.00,1.0538
6831.00,1.0642
6830.00,1.0748
6829.00,1.0853
6828.00,1.0955
6827.00,1.1053
6826.00,1.1147
6825.00,1.1240
6824.00,1.1331
6823.00,1.1420
6822.00,1.1506
6821.00,1.1587
6820.00,1.1662
6819.00,1.1729
6818.00,1.1789
6817.00,1.1843
6816.00,1.1894
6815.00,1.1941
6814.00,1.1984
6813.00,1.2024
6812.00,1.2062
6811.00,1.2101
6810.00,1.2137
6809.00,1.2166
6808.00,1.2189
6807.00,1.2210
6806.00,1.2230
6805.00,1.2245
6804.00,1.2251
6803.00,1.2249
6802.00,1.2246
6801.00,1.2244
6800.00,1.2238
6799.00,1.2224
6798.00,1.2202
6797.00,1.2175
6796.00,1.2145
6795.00,1.2111
6794.00,1.2072
6793.00,1.2030
6792.00,1.1985
6791.00,1.1938
6790.00,1.1889
6789.00,1.1835
6788.00,1.1773
6787.00,1.1704
6786.00,1.1631
6785.00,1.1557
6784.00,1.1479
6783.00,1.1395
6782.00,1.1307
6781.00,1.1220
6780.00,1.1132
6779.00,1.1040
6778.00,1.0942
6777.00,1.0838
6776.00,1.0734
6775.00,1.0629
6774.00,1.0522
6773.00,1.0410
6772.00,1.0295
6771.00,1.0180
6770.00,1.0067
6769.00,0.9952
6768.00,0.9835
6767.00,0.9716
6766.00,0.9600
6765.00,0.9488
6764.00,0.9378
6763.00,0.9267
6762.00,0.9158
6761.00,0.9051
6760.00,0.8947
6759.00,0.8843
6758.00,0.8740
6757.00,0.8639
6756.00,0.8541
6755.00,0.8446
6754.00,0.8354
6753.00,0.8266
6752.00,0.8183
6751.00,0.8107
6750.00,0.8037
6749.00,0.7975
6748.00,0.7918
6747.00,0.7867
6746.00,0.7821
6745.00,0.7782
6744.00,0.7750
6743.00,0.7724
6742.00,0.7706
6741.00,0.7694
6740.00,0.7689
6739.00,0.7690
6738.00,0.7697
6737.00,0.7712
6736.00,0.7734
6735.00,0.7764
6734.00,0.7803
6733.00,0.7850
6732.00,0.7903
6731.00,0.7962
6730.00,0.8025
6729.00,0.8092
6728.00,0.8164
6727.00,0.8241
6726.00,0.8323
6725.00,0.8411
6724.00,0.8503
6723.00,0.8600
6722.00,0.8701
6721.00,0.8805
6720.00,0.8914
6719.00,0.9026
6718.00,0.9141
6717.00,0.9256
6716.00,0.9369
6715.00,0.9481
6714.00,0.9594
6713.00,0.9708
6712.00,0.9822
6711.00,0.9936
6710.00,1.0052
6709.00,1.0169
6708.00,1.0282
6707.00,1.0389
6706.00,1.0493
6705.00,1.0596
6704.00,1.0698
6703.00,1.0799
6702.00,1.0902
6701.00,1.1005
6700.00,1.1105
6699.00,1.1201
6698.00,1.1290
6697.00,1.1372
6696.00,1.1447
6695.00,1.1515
6694.00,1.1578
6693.00,1.1640
6692.00,1.1700
6691.00,1.1761
6690.00,1.1822
6689.00,1.1885
6688.00,1.1946
6687.00,1.1999
6686.00,1.2042
6685.00,1.2077
6684.00,1.2103
6683.00,1.2124
6682.00,1.2141
6681.00,1.2154
6680.00,1.2161
6679.00,1.2163
6678.00,1.2165
6677.00,1.2166
6676.00,1.2164
6675.00,1.2154
6674.00,1.2139
6673.00,1.2121
6672.00,1.2099
6671.00,1.2070
6670.00,1.2035
6669.00,1.1997
6668.00,1.1958
6667.00,1.1917
6666.00,1.1873
6665.00,1.1828
6664.00,1.1778
6663.00,1.1720
6662.00,1.1654
6661.00,1.1584
6660.00,1.1514
6659.00,1.1444
6658.00,1.1372
6657.00,1.1297
6656.00,1.1221
6655.00,1.1140
6654.00,1.1054
6653.00,1.0962
6652.00,1.0868
6651.00,1.0774
6650.00,1.0679
6649.00,1.0583
6648.00,1.0483
6647.00,1.0380
6646.00,1.0275
6645.00,1.0168
6644.00,1.0058
6643.00,0.9944
6642.00,0.9830
6641.00,0.9716
6640.00,0.9603
6639.00,0.9490
6638.00,0.9376
6637.00,0.9263
6636.00,0.9153
6635.00,0.9044
6634.00,0.8937
6633.00,0.8830
6632.00,0.8725
6631.00,0.8623
6630.00,0.8526
6629.00,0.8432
6628.00,0.8341
6627.00,0.8254
6626.00,0.8172
6625.00,0.8094
6624.00,0.8020
6623.00,0.7951
6622.00,0.7886
6621.00,0.7828
6620.00,0.7776
6619.00,0.7731
6618.00,0.7691
6617.00,0.7659
6616.00,0.7633
6615.00,0.7616
6614.00,0.7607
6613.00,0.7605
6612.00,0.7608
6611.00,0.7617
6610.00,0.7633
6609.00,0.7657
6608.00,0.7690
6607.00,0.7731
6606.00,0.7780
6605.00,0.7836
6604.00,0.7899
6603.00,0.7968
6602.00,0.8041
6601.00,0.8118
6600.00,0.8199
6599.00,0.8285
6598.00,0.8378
6597.00,0.8477
6596.00,0.8579
6595.00,0.8684
6594.00,0.8792
6593.00,0.8903
6592.00,0.9016
6591.00,0.9131
6590.00,0.9247
6589.00,0.9367
6588.00,0.9487
6587.00,0.9609
6586.00,0.9731
6585.00,0.9854
6584.00,0.9976
6583.00,1.0096
6582.00,1.0216
6581.00,1.0335
6580.00,1.0451
6579.00,1.0564
6578.00,1.0676
6577.00,1.0786
6576.00,1.0893
6575.00,1.0996
6574.00,1.1097
6573.00,1.1198
6572.00,1.1298
6571.00,1.1393
6570.00,1.1481
6569.00,1.1565
6568.00,1.1645
6567.00,1.1722
6566.00,1.1795
6565.00,1.1862
6564.00,1.1927
6563.00,1.1991
6562.00,1.2054
6561.00,1.2112
6560.00,1.2164
6559.00,1.2209
6558.00,1.2247
6557.00,1.2282
6556.00,1.2314
6555.00,1.2341
6554.00,1.2364
6553.00,1.2381
6552.00,1.2392
6551.00,1.2397
6550.00,1.2397
6549.00,1.2393
6548.00,1.2387
6547.00,1.2381
6546.00,1.2375
6545.00,1.2369
6544.00,1.2358
6543.00,1.2336
6542.00,1.2303
6541.00,1.2264
6540.00,1.2222
6539.00,1.2178
6538.00,1.2133
6537.00,1.2086
6536.00,1.2038
6535.00,1.1984
6534.00,1.1925
6533.00,1.1856
6532.00,1.1779
6531.00,1.1696
6530.00,1.1611
6529.00,1.1528
6528.00,1.1445
6527.00,1.1359
6526.00,1.1266
6525.00,1.1168
6524.00,1.1065
6523.00,1.0959
6522.00,1.0850
6521.00,1.0741
6520.00,1.0630
6519.00,1.0517
6518.00,1.0402
6517.00,1.0284
6516.00,1.0163
6515.00,1.0040
6514.00,0.9916
6513.00,0.9795
6512.00,0.9677
6511.00,0.9561
6510.00,0.9445
6509.00,0.9329
6508.00,0.9213
6507.00,0.9096
6506.00,0.8979
6505.00,0.8863
6504.00,0.8751
6503.00,0.8644
6502.00,0.8540
6501.00,0.8440
6500.00,0.8344
6499.00,0.8253
6498.00,0.8168
6497.00,0.8088
6496.00,0.8014
6495.00,0.7945
6494.00,0.7882
6493.00,0.7826
6492.00,0.7776
6491.00,0.7731
6490.00,0.7693
6489.00,0.7663
6488.00,0.7644
6487.00,0.7634
6486.00,0.7633
6485.00,0.7638
6484.00,0.7650
6483.00,0.7668
6482.00,0.7693
6481.00,0.7724
6480.00,0.7762
6479.00,0.7808
6478.00,0.7861
6477.00,0.7922
6476.00,0.7988
6475.00,0.8062
6474.00,0.8143
6473.00,0.8231
6472.00,0.8325
6471.00,0.8422
6470.00,0.8523
6469.00,0.8627
6468.00,0.8732
6467.00,0.8839
6466.00,0.8949
6465.00,0.9064
6464.00,0.9183
6463.00,0.9303
6462.00,0.9426
6461.00,0.9548
6460.00,0.9670
6459.00,0.9791
6458.00,0.9912
6457.00,1.0033
6456.00,1.0156
6455.00,1.0279
6454.00,1.0400
6453.00,1.0520
6452.00,1.0636
6451.00,1.0749
6450.00,1.0858
6449.00,1.0961
6448.00,1.1060
6447.00,1.1156
6446.00,1.1253
6445.00,1.1348
6444.00,1.1438
6443.00,1.1523
6442.00,1.1604
6441.00,1.1684
6440.00,1.1761
6439.00,1.1832
6438.00,1.1898
6437.00,1.1960
6436.00,1.2017
6435.00,1.2068
6434.00,1.2114
6433.00,1.2155
6432.00,1.2193
6431.00,1.2227
6430.00,1.2258
6429.00,1.2286
6428.00,1.2312
6427.00,1.2334
6426.00,1.2349
6425.00,1.2357
6424.00,1.2358
6423.00,1.2356
6422.00,1.2351
6421.00,1.2344
6420.00,1.2336
6419.00,1.2327
6418.00,1.2315
6417.00,1.2297
6416.00,1.2272
6415.00,1.2238
6414.00,1.2197
6413.00,1.2151
6412.00,1.2102
6411.00,1.2051
6410.00,1.2001
6409.00,1.1947
6408.00,1.1884
6407.00,1.1815
6406.00,1.1747
6405.00,1.1681
6404.00,1.1612
6403.00,1.1537
6402.00,1.1456
6401.00,1.1372
6400.00,1.1284
6399.00,1.1188
6398.00,1.1086
6397.00,1.0983
6396.00,1.0881
6395.00,1.0778
6394.00,1.0672
6393.00,1.0565
6392.00,1.0454
6391.00,1.0339
6390.00,1.0220
6389.00,1.0100
6388.00,0.9980
6387.00,0.9861
6386.00,0.9741
6385.00,0.9622
6384.00,0.9504
6383.00,0.9385
6382.00,0.9266
6381.00,0.9147
6380.00,0.9029
6379.00,0.8913
6378.00,0.8799
6377.00,0.8689
6376.00,0.8581
6375.00,0.8478
6374.00,0.8378
6373.00,0.8283
6372.00,0.8192
6371.00,0.8107
6370.00,0.8027
6369.00,0.7954
6368.00,0.7886
6367.00,0.7824
6366.00,0.7769
6365.00,0.7720
6364.00,0.7676
6363.00,0.7639
6362.00,0.7611
6361.00,0.7593
6360.00,0.7581
6359.00,0.7577
6358.00,0.7581
6357.00,0.7593
6356.00,0.7613
6355.00,0.7641
6354.00,0.7677
6353.00,0.7721
6352.00,0.7773
6351.00,0.7832
6350.00,0.7898
6349.00,0.7969
6348.00,0.8044
6347.00,0.8125
6346.00,0.8214
6345.00,0.8310
6344.00,0.8411
6343.00,0.8516
6342.00,0.8624
6341.00,0.8737
6340.00,0.8852
6339.00,0.8971
6338.00,0.9093
6337.00,0.9218
6336.00,0.9344
6335.00,0.9471
6334.00,0.9598
6333.00,0.9726
6332.00,0.9853
6331.00,0.9982
6330.00,1.0111
6329.00,1.0241
6328.00,1.0369
6327.00,1.0493
6326.00,1.0612
6325.00,1.0729
6324.00,1.0844
6323.00,1.0959
6322.00,1.1074
6321.00,1.1186
6320.00,1.1295
6319.00,1.1401
6318.00,1.1506
6317.00,1.1606
6316.00,1.1701
6315.00,1.1788
6314.00,1.1870
6313.00,1.1947
6312.00,1.2019
6311.00,1.2084
6310.00,1.2148
6309.00,1.2211
6308.00,1.2272
6307.00,1.2330
6306.00,1.2383
6305.00,1.2433
6304.00,1.2480
6303.00,1.2524
6302.00,1.2564
6301.00,1.2596
6300.00,1.2618
6299.00,1.2629
6298.00,1.2634
6297.00,1.2635
6296.00,1.2634
6295.00,1.2632
6294.00,1.2630
6293.00,1.2626
6292.00,1.2618
6291.00,1.2602
6290.00,1.2577
6289.00,1.2545
6288.00,1.2509
6287.00,1.2472
6286.00,1.2433
6285.00,1.2393
6284.00,1.2350
6283.00,1.2306
6282.00,1.2258
6281.00,1.2202
6280.00,1.2139
6279.00,1.2068
6278.00,1.1993
6277.00,1.1915
6276.00,1.1832
6275.00,1.1744
6274.00,1.1653
6273.00,1.1559
6272.00,1.1460
6271.00,1.1355
6270.00,1.1248
6269.00,1.1141
6268.00,1.1033
6267.00,1.0922
6266.00,1.0808
6265.00,1.0690
6264.00,1.0566
6263.00,1.0436
6262.00,1.0304
6261.00,1.0173
6260.00,1.0044
6259.00,0.9916
6258.00,0.9787
6257.00,0.9659
6256.00,0.9531
6255.00,0.9402
6254.00,0.9272
6253.00,0.9143
6252.00,0.9017
6251.00,0.8895
6250.00,0.8778
6249.00,0.8665
6248.00,0.8555
6247.00,0.8450
6246.00,0.8349
6245.00,0.8253
6244.00,0.8162
6243.00,0.8074
6242.00,0.7993
6241.00,0.7919
6240.00,0.7852
6239.00,0.7791
6238.00,0.7738
6237.00,0.7692
6236.00,0.7653
6235.00,0.7622
6234.00,0.7598
6233.00,0.7584
6232.00,0.7578
6231.00,0.7582
6230.00,0.7595
6229.00,0.7616
6228.00,0.7644
6227.00,0.7680
6226.00,0.7722
6225.00,0.7772
6224.00,0.7831
6223.00,0.7898
6222.00,0.7974
6221.00,0.8056
6220.00,0.8145
6219.00,0.8238
6218.00,0.8336
6217.00,0.8438
6216.00,0.8544
6215.00,0.8655
6214.00,0.8770
6213.00,0.8889
6212.00,0.9010
6211.00,0.9133
6210.00,0.9258
6209.00,0.9385
6208.00,0.9512
6207.00,0.9640
6206.00,0.9768
6205.00,0.9896
6204.00,1.0025
6203.00,1.0153
6202.00,1.0281
6201.00,1.0407
6200.00,1.0530
6199.00,1.0651
6198.00,1.0769
6197.00,1.0882
6196.00,1.0993
6195.00,1.1102
6194.00,1.1209
6193.00,1.1315
6192.00,1.1417
6191.00,1.1514
6190.00,1.1606
6189.00,1.1690
6188.00,1.1769
6187.00,1.1844
6186.00,1.1917
6185.00,1.1986
6184.00,1.2051
6183.00,1.2113
6182.00,1.2173
6181.00,1.2229
6180.00,1.2278
6179.00,1.2323
6178.00,1.2364
6177.00,1.2403
6176.00,1.2436
6175.00,1.2464
6174.00,1.2488
6173.00,1.2509
6172.00,1.2525
6171.00,1.2535
6170.00,1.2537
6169.00,1.2535
6168.00,1.2529
6167.00,1.2517
6166.00,1.2502
6165.00,1.2486
6164.00,1.2471
6163.00,1.2456
6162.00,1.2438
6161.00,1.2414
6160.00,1.2385
6159.00,1.2349
6158.00,1.2306
6157.00,1.2258
6156.00,1.2207
6155.00,1.2152
6154.00,1.2093
6153.00,1.2030
6152.00,1.1964
6151.00,1.1896
6150.00,1.1826
6149.00,1.1752
6148.00,1.1674
6147.00,1.1591
6146.00,1.1502
6145.00,1.1406
6144.00,1.1304
6143.00,1.1201
6142.00,1.1098
6141.00,1.0992
6140.00,1.0882
6139.00,1.0768
6138.00,1.0650
6137.00,1.0529
6136.00,1.0405
6135.00,1.0279
6134.00,1.0152
6133.00,1.0024
6132.00,0.9895
6131.00,0.9764
6130.00,0.9633
6129.00,0.9503
6128.00,0.9374
6127.00,0.9247
6126.00,0.9121
6125.00,0.8998
6124.00,0.8876
6123.00,0.8757
6122.00,0.8640
6121.00,0.8527
6120.00,0.8418
6119.00,0.8314
6118.00,0.8215
6117.00,0.8123
6116.00,0.8036
6115.00,0.7954
6114.00,0.7879
6113.00,0.7811
6112.00,0.7750
6111.00,0.7697
6110.00,0.7652
6109.00,0.7615
6108.00,0.7586
6107.00,0.7565
6106.00,0.7553
6105.00,0.7549
6104.00,0.7554
6103.00,0.7568
6102.00,0.7592
6101.00,0.7624
6100.00,0.7665
6099.00,0.7712
6098.00,0.7766
6097.00,0.7830
6096.00,0.7901
6095.00,0.7980
6094.00,0.8066
6093.00,0.8158
6092.00,0.8256
6091.00,0.8360
6090.00,0.8470
6089.00,0.8585
6088.00,0.8704
6087.00,0.8827
6086.00,0.8954
6085.00,0.9084
6084.00,0.9214
6083.00,0.9345
6082.00,0.9478
6081.00,0.9612
6080.00,0.9747
6079.00,0.9883
6078.00,1.0022
6077.00,1.0160
6076.00,1.0297
6075.00,1.0431
6074.00,1.0564
6073.00,1.0693
6072.00,1.0817
6071.00,1.0939
6070.00,1.1061
6069.00,1.1183
6068.00,1.1301
6067.00,1.1415
6066.00,1.1526
6065.00,1.1637
6064.00,1.1742
6063.00,1.1840
6062.00,1.1933
6061.00,1.2024
6060.00,1.2111
6059.00,1.2192
6058.00,1.2267
6057.00,1.2342
6056.00,1.2417
6055.00,1.2486
6054.00,1.2546
6053.00,1.2597
6052.00,1.2642
6051.00,1.2683
6050.00,1.2719
6049.00,1.2752
6048.00,1.2784
6047.00,1.2817
6046.00,1.2849
6045.00,1.2877
6044.00,1.2897
6043.00,1.2909
6042.00,1.2914
6041.00,1.2915
6040.00,1.2910
6039.00,1.2899
6038.00,1.2881
6037.00,1.2858
6036.00,1.2831
6035.00,1.2801
6034.00,1.2769
6033.00,1.2734
6032.00,1.2695
6031.00,1.2651
6030.00,1.2602
6029.00,1.2548
6028.00,1.2487
6027.00,1.2421
6026.00,1.2351
6025.00,1.2278
6024.00,1.2203
6023.00,1.2123
6022.00,1.2035
6021.00,1.1940
6020.00,1.1839
6019.00,1.1734
6018.00,1.1626
6017.00,1.1517
6016.00,1.1406
6015.00,1.1294
6014.00,1.1179
6013.00,1.1061
6012.00,1.0937
6011.00,1.0807
6010.00,1.0673
6009.00,1.0539
6008.00,1.0403
6007.00,1.0267
6006.00,1.0129
6005.00,0.9989
6004.00,0.9849
6003.00,0.9710
6002.00,0.9571
6001.00,0.9434
6000.00,0.9298
5999.00,0.9163
5998.00,0.9030
5997.00,0.8901
5996.00,0.8773
5995.00,0.8648
5994.00,0.8529
5993.00,0.8417
5992.00,0.8310
5991.00,0.8208
5990.00,0.8111
5989.00,0.8021
5988.00,0.7938
5987.00,0.7861
5986.00,0.7790
5985.00,0.7727
5984.00,0.7672
5983.00,0.7625
5982.00,0.7586
5981.00,0.7557
5980.00,0.7538
5979.00,0.7528
5978.00,0.7528
5977.00,0.7538
5976.00,0.7557
5975.00,0.7584
5974.00,0.7620
5973.00,0.7664
5972.00,0.7718
5971.00,0.7780
5970.00,0.7850
5969.00,0.7927
5968.00,0.8011
5967.00,0.8101
5966.00,0.8197
5965.00,0.8301
5964.00,0.8411
5963.00,0.8525
5962.00,0.8645
5961.00,0.8770
5960.00,0.8899
5959.00,0.9032
5958.00,0.9167
5957.00,0.9304
5956.00,0.9445
5955.00,0.9587
5954.00,0.9730
5953.00,0.9873
5952.00,1.0017
5951.00,1.0160
5950.00,1.0302
5949.00,1.0443
5948.00,1.0583
5947.00,1.0720
5946.00,1.0855
5945.00,1.0988
5944.00,1.1121
5943.00,1.1251
5942.00,1.1377
5941.00,1.1498
5940.00,1.1615
5939.00,1.1728
5938.00,1.1837
5937.00,1.1942
5936.00,1.2043
5935.00,1.2138
5934.00,1.2229
5933.00,1.2315
5932.00,1.2398
5931.00,1.2476
5930.00,1.2550
5929.00,1.2620
5928.00,1.2685
5927.00,1.2747
5926.00,1.2803
5925.00,1.2855
5924.00,1.2903
5923.00,1.2949
5922.00,1.2990
5921.00,1.3025
5920.00,1.3053
5919.00,1.3074
5918.00,1.3090
5917.00,1.3100
5916.00,1.3105
5915.00,1.3106
5914.00,1.3103
5913.00,1.3097
5912.00,1.3088
5911.00,1.3077
5910.00,1.3061
5909.00,1.3041
5908.00,1.3014
5907.00,1.2980
5906.00,1.2941
5905.00,1.2898
5904.00,1.2851
5903.00,1.2799
5902.00,1.2742
5901.00,1.2678
5900.00,1.2609
5899.00,1.2535
5898.00,1.2461
5897.00,1.2387
5896.00,1.2310
5895.00,1.2230
5894.00,1.2142
5893.00,1.2048
5892.00,1.1947
5891.00,1.1840
5890.00,1.1728
5889.00,1.1612
5888.00,1.1492
5887.00,1.1370
5886.00,1.1245
5885.00,1.1119
5884.00,1.0990
5883.00,1.0860
5882.00,1.0728
5881.00,1.0594
5880.00,1.0458
5879.00,1.0320
5878.00,1.0181
5877.00,1.0042
5876.00,0.9903
5875.00,0.9763
5874.00,0.9624
5873.00,0.9487
5872.00,0.9351
5871.00,0.9218
5870.00,0.9089
5869.00,0.8964
5868.00,0.8845
5867.00,0.8729
5866.00,0.8617
5865.00,0.8509
5864.00,0.8407
5863.00,0.8310
5862.00,0.8219
5861.00,0.8136
5860.00,0.8059
5859.00,0.7989
5858.00,0.7927
5857.00,0.7872
5856.00,0.7825
5855.00,0.7786
5854.00,0.7757
5853.00,0.7737
5852.00,0.7726
5851.00,0.7725
5850.00,0.7732
5849.00,0.7749
5848.00,0.7775
5847.00,0.7810
5846.00,0.7852
5845.00,0.7903
5844.00,0.7963
5843.00,0.8031
5842.00,0.8107
5841.00,0.8190
5840.00,0.8280
5839.00,0.8377
5838.00,0.8482
5837.00,0.8593
5836.00,0.8710
5835.00,0.8832
5834.00,0.8958
5833.00,0.9088
5832.00,0.9221
5831.00,0.9355
5830.00,0.9491
5829.00,0.9628
5828.00,0.9767
5827.00,0.9907
5826.00,1.0048
5825.00,1.0190
5824.00,1.0331
5823.00,1.0472
5822.00,1.0612
5821.00,1.0751
5820.00,1.0889
5819.00,1.1025
5818.00,1.1156
5817.00,1.1284
5816.00,1.1408
5815.00,1.1528
5814.00,1.1646
5813.00,1.1764
5812.00,1.1881
5811.00,1.1994
5810.00,1.2101
5809.00,1.2201
5808.00,1.2294
5807.00,1.2383
5806.00,1.2468
5805.00,1.2550
5804.00,1.2630
5803.00,1.2707
5802.00,1.2780
5801.00,1.2846
5800.00,1.2903
5799.00,1.2953
5798.00,1.2999
5797.00,1.3043
5796.00,1.3087
5795.00,1.3128
5794.00,1.3166
5793.00,1.3196
5792.00,1.3218
5791.00,1.3233
5790.00,1.3241
5789.00,1.3246
5788.00,1.3251
5787.00,1.3255
5786.00,1.3257
5785.00,1.3253
5784.00,1.3241
5783.00,1.3222
5782.00,1.3200
5781.00,1.3173
5780.00,1.3141
5779.00,1.3104
5778.00,1.3063
5777.00,1.3014
5776.00,1.2958
5775.00,1.2897
5774.00,1.2835
5773.00,1.2773
5772.00,1.2708
5771.00,1.2638
5770.00,1.2564
5769.00,1.2484
5768.00,1.2399
5767.00,1.2306
5766.00,1.2206
5765.00,1.2101
5764.00,1.1994
5763.00,1.1884
5762.00,1.1772
5761.00,1.1657
5760.00,1.1538
5759.00,1.1416
5758.00,1.1290
5757.00,1.1160
5756.00,1.1025
5755.00,1.0887
5754.00,1.0747
5753.00,1.0607
5752.00,1.0465
5751.00,1.0323
5750.00,1.0181
5749.00,1.0040
5748.00,0.9900
5747.00,0.9760
5746.00,0.9620
5745.00,0.9481
5744.00,0.9344
5743.00,0.9209
5742.00,0.9077
5741.00,0.8948
5740.00,0.8824
5739.00,0.8704
5738.00,0.8589
5737.00,0.8479
5736.00,0.8374
5735.00,0.8275
5734.00,0.8185
5733.00,0.8103
5732.00,0.8028
5731.00,0.7960
5730.00,0.7900
5729.00,0.7848
5728.00,0.7804
5727.00,0.7767
5726.00,0.7740
5725.00,0.7725
5724.00,0.7720
5723.00,0.7724
5722.00,0.7737
5721.00,0.7758
5720.00,0.7789
5719.00,0.7828
5718.00,0.7876
5717.00,0.7934
5716.00,0.8000
5715.00,0.8075
5714.00,0.8158
5713.00,0.8248
5712.00,0.8345
5711.00,0.8449
5710.00,0.8560
5709.00,0.8677
5708.00,0.8800
5707.00,0.8928
5706.00,0.9060
5705.00,0.9196
5704.00,0.9334
5703.00,0.9474
5702.00,0.9616
5701.00,0.9759
5700.00,0.9904
5699.00,1.0048
5698.00,1.0195
5697.00,1.0343
5696.00,1.0491
5695.00,1.0637
5694.00,1.0781
5693.00,1.0923
5692.00,1.1062
5691.00,1.1198
5690.00,1.1330
5689.00,1.1460
5688.00,1.1586
5687.00,1.1707
5686.00,1.1822
5685.00,1.1934
5684.00,1.2044
5683.00,1.2151
5682.00,1.2254
5681.00,1.2354
5680.00,1.2451
5679.00,1.2544
5678.00,1.2632
5677.00,1.2714
5676.00,1.2791
5675.00,1.2863
5674.00,1.2931
5673.00,1.2993
5672.00,1.3050
5671.00,1.3103
5670.00,1.3154
5669.00,1.3203
5668.00,1.3247
5667.00,1.3283
5666.00,1.3311
5665.00,1.3332
5664.00,1.3349
5663.00,1.3364
5662.00,1.3379
5661.00,1.3394
5660.00,1.3406
5659.00,1.3411
5658.00,1.3407
5657.00,1.3393
5656.00,1.3372
5655.00,1.3348
5654.00,1.3321
5653.00,1.3293
5652.00,1.3261
5651.00,1.3221
5650.00,1.3173
5649.00,1.3120
5648.00,1.3062
5647.00,1.3001
5646.00,1.2934
5645.00,1.2863
5644.00,1.2789
5643.00,1.2711
5642.00,1.2629
5641.00,1.2541
5640.00,1.2448
5639.00,1.2352
5638.00,1.2252
5637.00,1.2147
5636.00,1.2034
5635.00,1.1916
5634.00,1.1794
5633.00,1.1668
5632.00,1.1540
5631.00,1.1408
5630.00,1.1274
5629.00,1.1137
5628.00,1.0996
5627.00,1.0852
5626.00,1.0705
5625.00,1.0557
5624.00,1.0407
5623.00,1.0255
5622.00,1.0101
5621.00,0.9946
5620.00,0.9792
5619.00,0.9639
5618.00,0.9489
5617.00,0.9343
5616.00,0.9199
5615.00,0.9057
5614.00,0.8918
5613.00,0.8783
5612.00,0.8652
5611.00,0.8526
5610.00,0.8405
5609.00,0.8289
5608.00,0.8180
5607.00,0.8079
5606.00,0.7986
5605.00,0.7902
5604.00,0.7827
5603.00,0.7762
5602.00,0.7704
5601.00,0.7655
5600.00,0.7615
5599.00,0.7585
5598.00,0.7566
5597.00,0.7558
5596.00,0.7561
5595.00,0.7575
5594.00,0.7600
5593.00,0.7634
5592.00,0.7678
5591.00,0.7732
5590.00,0.7797
5589.00,0.7871
5588.00,0.7953
5587.00,0.8044
5586.00,0.8142
5585.00,0.8248
5584.00,0.8361
5583.00,0.8480
5582.00,0.8606
5581.00,0.8738
5580.00,0.8875
5579.00,0.9016
5578.00,0.9160
5577.00,0.9306
5576.00,0.9453
5575.00,0.9601
5574.00,0.9751
5573.00,0.9905
5572.00,1.0059
5571.00,1.0213
5570.00,1.0366
5569.00,1.0517
5568.00,1.0663
5567.00,1.0806
5566.00,1.0946
5565.00,1.1085
5564.00,1.1221
5563.00,1.1353
5562.00,1.1481
5561.00,1.1604
5560.00,1.1721
5559.00,1.1835
5558.00,1.1944
5557.00,1.2051
5556.00,1.2154
5555.00,1.2253
5554.00,1.2346
5553.00,1.2433
5552.00,1.2515
5551.00,1.2592
5550.00,1.2666
5549.00,1.2738
5548.00,1.2808
5547.00,1.2875
5546.00,1.2936
5545.00,1.2991
5544.00,1.3040
5543.00,1.3086
5542.00,1.3129
5541.00,1.3170
5540.00,1.3209
5539.00,1.3244
5538.00,1.3273
5537.00,1.3295
5536.00,1.3310
5535.00,1.3321
5534.00,1.3331
5533.00,1.3340
5532.00,1.3347
5531.00,1.3350
5530.00,1.3347
5529.00,1.3338
5528.00,1.3320
5527.00,1.3297
5526.00,1.3269
5525.00,1.3236
5524.00,1.3197
5523.00,1.3156
5522.00,1.3112
5521.00,1.3067
5520.00,1.3017
5519.00,1.2961
5518.00,1.2901
5517.00,1.2834
5516.00,1.2762
5515.00,1.2683
5514.00,1.2598
5513.00,1.2509
5512.00,1.2414
5511.00,1.2312
5510.00,1.2206
5509.00,1.2097
5508.00,1.1983
5507.00,1.1866
5506.00,1.1744
5505.00,1.1616
5504.00,1.1483
5503.00,1.1345
5502.00,1.1203
5501.00,1.1060
5500.00,1.0916
5499.00,1.0769
5498.00,1.0620
5497.00,1.0469
5496.00,1.0314
5495.00,1.0156
5494.00,0.9997
5493.00,0.9838
5492.00,0.9680
5491.00,0.9524
5490.00,0.9370
5489.00,0.9217
5488.00,0.9067
5487.00,0.8921
5486.00,0.8780
5485.00,0.8645
5484.00,0.8513
5483.00,0.8387
5482.00,0.8267
5481.00,0.8154
5480.00,0.8049
5479.00,0.7953
5478.00,0.7868
5477.00,0.7791
5476.00,0.7722
5475.00,0.7662
5474.00,0.7611
5473.00,0.7572
5472.00,0.7544
5471.00,0.7526
5470.00,0.7520
5469.00,0.7526
5468.00,0.7542
5467.00,0.7570
5466.00,0.7609
5465.00,0.7658
5464.00,0.7717
5463.00,0.7785
5462.00,0.7864
5461.00,0.7953
5460.00,0.8051
5459.00,0.8159
5458.00,0.8274
5457.00,0.8397
5456.00,0.8525
5455.00,0.8660
5454.00,0.8800
5453.00,0.8945
5452.00,0.9094
5451.00,0.9246
5450.00,0.9401
5449.00,0.9560
5448.00,0.9722
5447.00,0.9886
5446.00,1.0052
5445.00,1.0217
5444.00,1.0381
5443.00,1.0542
5442.00,1.0703
5441.00,1.0863
5440.00,1.1022
5439.00,1.1179
5438.00,1.1333
5437.00,1.1483
5436.00,1.1628
5435.00,1.1770
5434.00,1.1907
5433.00,1.2040
5432.00,1.2165
5431.00,1.2284
5430.00,1.2399
5429.00,1.2511
5428.00,1.2620
5427.00,1.2724
5426.00,1.2824
5425.00,1.2917
5424.00,1.3005
5423.00,1.3088
5422.00,1.3165
5421.00,1.3239
5420.00,1.3310
5419.00,1.3377
5418.00,1.3440
5417.00,1.3496
5416.00,1.3545
5415.00,1.3587
5414.00,1.3625
5413.00,1.3657
5412.00,1.3684
5411.00,1.3705
5410.00,1.3721
5409.00,1.3734
5408.00,1.3745
5407.00,1.3756
5406.00,1.3765
5405.00,1.3768
5404.00,1.3763
5403.00,1.3749
5402.00,1.3726
5401.00,1.3699
5400.00,1.3670
5399.00,1.3639
5398.00,1.3604
5397.00,1.3563
5396.00,1.3516
5395.00,1.3462
5394.00,1.3403
5393.00,1.3340
5392.00,1.3271
5391.00,1.3197
5390.00,1.3116
5389.00,1.3030
5388.00,1.2940
5387.00,1.2846
5386.00,1.2749
5385.00,1.2648
5384.00,1.2542
5383.00,1.2428
5382.00,1.2309
5381.00,1.2185
5380.00,1.2057
5379.00,1.1925
5378.00,1.1790
5377.00,1.1649
5376.00,1.1503
5375.00,1.1350
5374.00,1.1192
5373.00,1.1033
5372.00,1.0872
5371.00,1.0713
5370.00,1.0553
5369.00,1.0392
5368.00,1.0230
5367.00,1.0064
5366.00,0.9897
5365.00,0.9730
5364.00,0.9563
5363.00,0.9400
5362.00,0.9241
5361.00,0.9086
5360.00,0.8935
5359.00,0.8787
5358.00,0.8645
5357.00,0.8509
5356.00,0.8379
5355.00,0.8254
5354.00,0.8136
5353.00,0.8026
5352.00,0.7926
5351.00,0.7834
5350.00,0.7752
5349.00,0.7681
5348.00,0.7619
5347.00,0.7568
5346.00,0.7529
5345.00,0.7502
5344.00,0.7487
5343.00,0.7484
5342.00,0.7492
5341.00,0.7511
5340.00,0.7541
5339.00,0.7581
5338.00,0.7633
5337.00,0.7698
5336.00,0.7774
5335.00,0.7859
5334.00,0.7953
5333.00,0.8057
5332.00,0.8169
5331.00,0.8288
5330.00,0.8414
5329.00,0.8547
5328.00,0.8686
5327.00,0.8831
5326.00,0.8981
5325.00,0.9136
5324.00,0.9295
5323.00,0.9456
5322.00,0.9621
5321.00,0.9787
5320.00,0.9955
5319.00,1.0122
5318.00,1.0286
5317.00,1.0450
5316.00,1.0614
5315.00,1.0778
5314.00,1.0941
5313.00,1.1103
5312.00,1.1261
5311.00,1.1414
5310.00,1.1561
5309.00,1.1704
5308.00,1.1843
5307.00,1.1981
5306.00,1.2117
5305.00,1.2251
5304.00,1.2380
5303.00,1.2503
5302.00,1.2620
5301.00,1.2732
5300.00,1.2839
5299.00,1.2940
5298.00,1.3036
5297.00,1.3126
5296.00,1.3211
5295.00,1.3289
5294.00,1.3362
5293.00,1.3432
5292.00,1.3498
5291.00,1.3560
5290.00,1.3617
5289.00,1.3669
5288.00,1.3713
5287.00,1.3751
5286.00,1.3784
5285.00,1.3813
5284.00,1.3839
5283.00,1.3862
5282.00,1.3883
5281.00,1.3901
5280.00,1.3914
5279.00,1.3921
5278.00,1.3922
5277.00,1.3917
5276.00,1.3905
5275.00,1.3889
5274.00,1.3868
5273.00,1.3844
5272.00,1.3815
5271.00,1.3780
5270.00,1.3739
5269.00,1.3692
5268.00,1.3641
5267.00,1.3586
5266.00,1.3528
5265.00,1.3465
5264.00,1.3395
5263.00,1.3318
5262.00,1.3234
5261.00,1.3145
5260.00,1.3051
5259.00,1.2954
5258.00,1.2853
5257.00,1.2747
5256.00,1.2634
5255.00,1.2515
5254.00,1.2391
5253.00,1.2263
5252.00,1.2131
5251.00,1.1994
5250.00,1.1852
5249.00,1.1706
5248.00,1.1555
5247.00,1.1399
5246.00,1.1240
5245.00,1.1078
5244.00,1.0913
5243.00,1.0745
5242.00,1.0576
5241.00,1.0406
5240.00,1.0238
5239.00,1.0070
5238.00,0.9903
5237.00,0.9738
5236.00,0.9573
5235.00,0.9410
5234.00,0.9250
5233.00,0.9093
5232.00,0.8941
5231.00,0.8794
5230.00,0.8654
5229.00,0.8521
5228.00,0.8394
5227.00,0.8273
5226.00,0.8159
5225.00,0.8054
5224.00,0.7959
5223.00,0.7874
5222.00,0.7800
5221.00,0.7737
5220.00,0.7686
5219.00,0.7646
5218.00,0.7619
5217.00,0.7604
5216.00,0.7601
5215.00,0.7610
5214.00,0.7631
5213.00,0.7664
5212.00,0.7708
5211.00,0.7764
5210.00,0.7832
5209.00,0.7911
5208.00,0.8001
5207.00,0.8102
5206.00,0.8212
5205.00,0.8330
5204.00,0.8456
5203.00,0.8591
5202.00,0.8732
5201.00,0.8882
5200.00,0.9037
5199.00,0.9197
5198.00,0.9361
5197.00,0.9529
5196.00,0.9699
5195.00,0.9872
5194.00,1.0047
5193.00,1.0222
5192.00,1.0397
5191.00,1.0572
5190.00,1.0747
5189.00,1.0921
5188.00,1.1091
5187.00,1.1258
5186.00,1.1422
5185.00,1.1582
5184.00,1.1738
5183.00,1.1892
5182.00,1.2043
5181.00,1.2191
5180.00,1.2335
5179.00,1.2473
5178.00,1.2607
5177.00,1.2734
5176.00,1.2854
5175.00,1.2968
5174.00,1.3075
5173.00,1.3177
5172.00,1.3274
5171.00,1.3366
5170.00,1.3456
5169.00,1.3542
5168.00,1.3625
5167.00,1.3704
5166.00,1.3778
5165.00,1.3845
5164.00,1.3905
5163.00,1.3958
5162.00,1.4006
5161.00,1.4050
5160.00,1.4090
5159.00,1.4127
5158.00,1.4158
5157.00,1.4183
5156.00,1.4200
5155.00,1.4211
5154.00,1.4218
5153.00,1.4223
5152.00,1.4225
5151.00,1.4221
5150.00,1.4211
5149.00,1.4195
5148.00,1.4171
5147.00,1.4141
5146.00,1.4108
5145.00,1.4073
5144.00,1.4036
5143.00,1.3995
5142.00,1.3949
5141.00,1.3896
5140.00,1.3836
5139.00,1.3770
5138.00,1.3699
5137.00,1.3625
5136.00,1.3547
5135.00,1.3463
5134.00,1.3373
5133.00,1.3276
5132.00,1.3172
5131.00,1.3062
5130.00,1.2946
5129.00,1.2825
5128.00,1.2700
5127.00,1.2572
5126.00,1.2439
5125.00,1.2302
5124.00,1.2160
5123.00,1.2011
5122.00,1.1857
5121.00,1.1698
5120.00,1.1535
5119.00,1.1370
5118.00,1.1201
5117.00,1.1030
5116.00,1.0856
5115.00,1.0679
5114.00,1.0501
5113.00,1.0323
5112.00,1.0144
5111.00,0.9965
5110.00,0.9788
5109.00,0.9612
5108.00,0.9438
5107.00,0.9267
5106.00,0.9100
5105.00,0.8938
5104.00,0.8781
5103.00,0.8629
5102.00,0.8484
5101.00,0.8347
5100.00,0.8219
5099.00,0.8099
5098.00,0.7989
5097.00,0.7889
5096.00,0.7800
5095.00,0.7723
5094.00,0.7657
5093.00,0.7603
5092.00,0.7560
5091.00,0.7530
5090.00,0.7514
5089.00,0.7510
5088.00,0.7519
5087.00,0.7542
5086.00,0.7578
5085.00,0.7627
5084.00,0.7688
5083.00,0.7762
5082.00,0.7847
5081.00,0.7944
5080.00,0.8051
5079.00,0.8167
5078.00,0.8292
5077.00,0.8427
5076.00,0.8570
5075.00,0.8719
5074.00,0.8875
5073.00,0.9037
5072.00,0.9206
5071.00,0.9379
5070.00,0.9556
5069.00,0.9736
5068.00,0.9917
5067.00,1.0097
5066.00,1.0278
5065.00,1.0460
5064.00,1.0641
5063.00,1.0821
5062.00,1.1001
5061.00,1.1180
5060.00,1.1355
5059.00,1.1526
5058.00,1.1692
5057.00,1.1855
5056.00,1.2013
5055.00,1.2168
5054.00,1.2319
5053.00,1.2467
5052.00,1.2609
5051.00,1.2744
5050.00,1.2873
5049.00,1.2997
5048.00,1.3115
5047.00,1.3228
5046.00,1.3336
5045.00,1.3440
5044.00,1.3540
5043.00,1.3635
5042.00,1.3723
5041.00,1.3803
5040.00,1.3877
5039.00,1.3946
5038.00,1.4013
5037.00,1.4079
5036.00,1.4142
5035.00,1.4202
5034.00,1.4253
5033.00,1.4296
5032.00,1.4330
5031.00,1.4359
5030.00,1.4384
5029.00,1.4405
5028.00,1.4423
5027.00,1.4436
5026.00,1.4444
5025.00,1.4446
5024.00,1.4442
5023.00,1.4432
5022.00,1.4415
5021.00,1.4394
5020.00,1.4368
5019.00,1.4338
5018.00,1.4307
5017.00,1.4272
5016.00,1.4232
5015.00,1.4183
5014.00,1.4126
5013.00,1.4062
5012.00,1.3993
5011.00,1.3920
5010.00,1.3843
5009.00,1.3764
5008.00,1.3681
5007.00,1.3592
5006.00,1.3495
5005.00,1.3392
5004.00,1.3282
5003.00,1.3167
5002.00,1.3045
5001.00,1.2919
5000.00,1.2787
4999.00,1.2649
4998.00,1.2505
4997.00,1.2357
4996.00,1.2204
4995.00,1.2047
4994.00,1.1884
4993.00,1.1716
4992.00,1.1543
4991.00,1.1366
4990.00,1.1187
4989.00,1.1006
4988.00,1.0823
4987.00,1.0639
4986.00,1.0453
4985.00,1.0265
4984.00,1.0077
4983.00,0.9890
4982.00,0.9703
4981.00,0.9519
4980.00,0.9337
4979.00,0.9159
4978.00,0.8985
4977.00,0.8818
4976.00,0.8659
4975.00,0.8508
4974.00,0.8366
4973.00,0.8232
4972.00,0.8107
4971.00,0.7991
4970.00,0.7886
4969.00,0.7792
4968.00,0.7711
4967.00,0.7643
4966.00,0.7588
4965.00,0.7547
4964.00,0.7520
4963.00,0.7507
4962.00,0.7508
4961.00,0.7524
4960.00,0.7555
4959.00,0.7599
4958.00,0.7657
4957.00,0.7729
4956.00,0.7814
4955.00,0.7911
4954.00,0.8020
4953.00,0.8140
4952.00,0.8272
4951.00,0.8413
4950.00,0.8562
4949.00,0.8720
4948.00,0.8885
4947.00,0.9056
4946.00,0.9234
4945.00,0.9416
4944.00,0.9602
4943.00,0.9791
4942.00,0.9983
4941.00,1.0177
4940.00,1.0371
4939.00,1.0565
4938.00,1.0758
4937.00,1.0949
4936.00,1.1140
4935.00,1.1329
4934.00,1.1515
4933.00,1.1698
4932.00,1.1876
4931.00,1.2049
4930.00,1.2217
4929.00,1.2381
4928.00,1.2539
4927.00,1.2692
4926.00,1.2838
4925.00,1.2977
4924.00,1.3111
4923.00,1.3240
4922.00,1.3366
4921.00,1.3488
4920.00,1.3606
4919.00,1.3717
4918.00,1.3820
4917.00,1.3914
4916.00,1.4001
4915.00,1.4081
4914.00,1.4158
4913.00,1.4233
4912.00,1.4304
4911.00,1.4372
4910.00,1.4432
4909.00,1.4486
4908.00,1.4534
4907.00,1.4577
4906.00,1.4614
4905.00,1.4646
4904.00,1.4674
4903.00,1.4698
4902.00,1.4717
4901.00,1.4732
4900.00,1.4739
4899.00,1.4740
4898.00,1.4733
4897.00,1.4723
4896.00,1.4710
4895.00,1.4695
4894.00,1.4675
4893.00,1.4648
4892.00,1.4616
4891.00,1.4578
4890.00,1.4537
4889.00,1.4491
4888.00,1.4439
4887.00,1.4379
4886.00,1.4311
4885.00,1.4236
4884.00,1.4157
4883.00,1.4076
4882.00,1.3991
4881.00,1.3901
4880.00,1.3804
4879.00,1.3699
4878.00,1.3588
4877.00,1.3472
4876.00,1.3351
4875.00,1.3225
4874.00,1.3095
4873.00,1.2961
4872.00,1.2820
4871.00,1.2673
4870.00,1.2518
4869.00,1.2356
4868.00,1.2187
4867.00,1.2012
4866.00,1.1833
4865.00,1.1650
4864.00,1.1466
4863.00,1.1278
4862.00,1.1088
4861.00,1.0895
4860.00,1.0700
4859.00,1.0503
4858.00,1.0305
4857.00,1.0107
4856.00,0.9909
4855.00,0.9714
4854.00,0.9522
4853.00,0.9333
4852.00,0.9148
4851.00,0.8968
4850.00,0.8794
4849.00,0.8626
4848.00,0.8468
4847.00,0.8318
4846.00,0.8178
4845.00,0.8049
4844.00,0.7930
4843.00,0.7822
4842.00,0.7726
4841.00,0.7644
4840.00,0.7577
4839.00,0.7523
4838.00,0.7485
4837.00,0.7462
4836.00,0.7454
4835.00,0.7461
4834.00,0.7484
4833.00,0.7523
4832.00,0.7577
4831.00,0.7646
4830.00,0.7728
4829.00,0.7823
4828.00,0.7932
4827.00,0.8053
4826.00,0.8185
4825.00,0.8329
4824.00,0.8482
4823.00,0.8644
4822.00,0.8815
4821.00,0.8994
4820.00,0.9180
4819.00,0.9371
4818.00,0.9566
4817.00,0.9765
4816.00,0.9965
4815.00,1.0168
4814.00,1.0371
4813.00,1.0574
4812.00,1.0776
4811.00,1.0977
4810.00,1.1177
4809.00,1.1376
4808.00,1.1571
4807.00,1.1762
4806.00,1.1947
4805.00,1.2129
4804.00,1.2306
4803.00,1.2478
4802.00,1.2645
4801.00,1.2807
4800.00,1.2962
4799.00,1.3111
4798.00,1.3255
4797.00,1.3396
4796.00,1.3531
4795.00,1.3661
4794.00,1.3784
4793.00,1.3898
4792.00,1.4005
4791.00,1.4105
4790.00,1.4201
4789.00,1.4292
4788.00,1.4379
4787.00,1.4460
4786.00,1.4536
4785.00,1.4606
4784.00,1.4670
4783.00,1.4727
4782.00,1.4778
4781.00,1.4823
4780.00,1.4864
4779.00,1.4902
4778.00,1.4936
4777.00,1.4967
4776.00,1.4991
4775.00,1.5007
4774.00,1.5017
4773.00,1.5022
4772.00,1.5025
4771.00,1.5026
4770.00,1.5024
4769.00,1.5016
4768.00,1.5000
4767.00,1.4975
4766.00,1.4943
4765.00,1.4907
4764.00,1.4868
4763.00,1.4825
4762.00,1.4778
4761.00,1.4724
4760.00,1.4665
4759.00,1.4599
4758.00,1.4527
4757.00,1.4448
4756.00,1.4364
4755.00,1.4275
4754.00,1.4180
4753.00,1.4081
4752.00,1.3974
4751.00,1.3861
4750.00,1.3743
4749.00,1.3620
4748.00,1.3491
4747.00,1.3356
4746.00,1.3213
4745.00,1.3063
4744.00,1.2907
4743.00,1.2746
4742.00,1.2580
4741.00,1.2409
4740.00,1.2232
4739.00,1.2047
4738.00,1.1858
4737.00,1.1663
4736.00,1.1465
4735.00,1.1264
4734.00,1.1062
4733.00,1.0858
4732.00,1.0652
4731.00,1.0446
4730.00,1.0240
4729.00,1.0036
4728.00,0.9834
4727.00,0.9635
4726.00,0.9440
4725.00,0.9250
4724.00,0.9066
4723.00,0.8888
4722.00,0.8718
4721.00,0.8556
4720.00,0.8403
4719.00,0.8261
4718.00,0.8131
4717.00,0.8013
4716.00,0.7909
4715.00,0.7818
4714.00,0.7743
4713.00,0.7682
4712.00,0.7637
4711.00,0.7609
4710.00,0.7596
4709.00,0.7600
4708.00,0.7621
4707.00,0.7658
4706.00,0.7712
4705.00,0.7782
4704.00,0.7866
4703.00,0.7965
4702.00,0.8079
4701.00,0.8206
4700.00,0.8346
4699.00,0.8498
4698.00,0.8660
4697.00,0.8833
4696.00,0.9014
4695.00,0.9203
4694.00,0.9398
4693.00,0.9600
4692.00,0.9806
4691.00,1.0015
4690.00,1.0226
4689.00,1.0438
4688.00,1.0650
4687.00,1.0863
4686.00,1.1074
4685.00,1.1284
4684.00,1.1493
4683.00,1.1697
4682.00,1.1898
4681.00,1.2093
4680.00,1.2281
4679.00,1.2465
4678.00,1.2644
4677.00,1.2819
4676.00,1.2989
4675.00,1.3154
4674.00,1.3312
4673.00,1.3463
4672.00,1.3607
4671.00,1.3745
4670.00,1.3877
4669.00,1.4002
4668.00,1.4121
4667.00,1.4235
4666.00,1.4345
4665.00,1.4449
4664.00,1.4546
4663.00,1.4634
4662.00,1.4715
4661.00,1.4790
4660.00,1.4863
4659.00,1.4934
4658.00,1.5002
4657.00,1.5065
4656.00,1.5123
4655.00,1.5174
4654.00,1.5219
4653.00,1.5260
4652.00,1.5294
4651.00,1.5322
4650.00,1.5345
4649.00,1.5362
4648.00,1.5374
4647.00,1.5382
4646.00,1.5384
4645.00,1.5381
4644.00,1.5372
4643.00,1.5358
4642.00,1.5340
4641.00,1.5320
4640.00,1.5297
4639.00,1.5270
4638.00,1.5236
4637.00,1.5195
4636.00,1.5146
4635.00,1.5090
4634.00,1.5031
4633.00,1.4967
4632.00,1.4899
4631.00,1.4825
4630.00,1.4743
4629.00,1.4654
4628.00,1.4558
4627.00,1.4458
4626.00,1.4353
4625.00,1.4244
4624.00,1.4130
4623.00,1.4010
4622.00,1.3883
4621.00,1.3748
4620.00,1.3606
4619.00,1.3456
4618.00,1.3301
4617.00,1.3139
4616.00,1.2971
4615.00,1.2796
4614.00,1.2615
4613.00,1.2430
4612.00,1.2240
4611.00,1.2046
4610.00,1.1849
4609.00,1.1648
4608.00,1.1442
4607.00,1.1232
4606.00,1.1020
4605.00,1.0805
4604.00,1.0590
4603.00,1.0374
4602.00,1.0160
4601.00,0.9949
4600.00,0.9741
4599.00,0.9536
4598.00,0.9336
4597.00,0.9141
4596.00,0.8952
4595.00,0.8771
4594.00,0.8600
4593.00,0.8440
4592.00,0.8292
4591.00,0.8156
4590.00,0.8032
4589.00,0.7922
4588.00,0.7826
4587.00,0.7745
4586.00,0.7681
4585.00,0.7635
4584.00,0.7605
4583.00,0.7594
4582.00,0.7600
4581.00,0.7624
4580.00,0.7665
4579.00,0.7722
4578.00,0.7797
4577.00,0.7888
4576.00,0.7994
4575.00,0.8116
4574.00,0.8252
4573.00,0.8400
4572.00,0.8562
4571.00,0.8734
4570.00,0.8917
4569.00,0.9108
4568.00,0.9308
4567.00,0.9514
4566.00,0.9726
4565.00,0.9943
4564.00,1.0163
4563.00,1.0385
4562.00,1.0608
4561.00,1.0832
4560.00,1.1055
4559.00,1.1276
4558.00,1.1494
4557.00,1.1710
4556.00,1.1923
4555.00,1.2133
4554.00,1.2339
4553.00,1.2541
4552.00,1.2736
4551.00,1.2924
4550.00,1.3105
4549.00,1.3279
4548.00,1.3447
4547.00,1.3608
4546.00,1.3763
4545.00,1.3913
4544.00,1.4058
4543.00,1.4196
4542.00,1.4329
4541.00,1.4454
4540.00,1.4570
4539.00,1.4679
4538.00,1.4781
4537.00,1.4878
4536.00,1.4973
4535.00,1.5064
4534.00,1.5149
4533.00,1.5226
4532.00,1.5294
4531.00,1.5354
4530.00,1.5410
4529.00,1.5463
4528.00,1.5514
4527.00,1.5560
4526.00,1.5601
4525.00,1.5633
4524.00,1.5658
4523.00,1.5678
4522.00,1.5695
4521.00,1.5709
4520.00,1.5720
4519.00,1.5727
4518.00,1.5727
4517.00,1.5721
4516.00,1.5707
4515.00,1.5686
4514.00,1.5660
4513.00,1.5629
4512.00,1.5594
4511.00,1.5555
4510.00,1.5511
4509.00,1.5462
4508.00,1.5407
4507.00,1.5344
4506.00,1.5276
4505.00,1.5203
4504.00,1.5125
4503.00,1.5040
4502.00,1.4949
4501.00,1.4851
4500.00,1.4747
4499.00,1.4637
4498.00,1.4521
4497.00,1.4401
4496.00,1.4275
4495.00,1.4142
4494.00,1.4001
4493.00,1.3851
4492.00,1.3692
4491.00,1.3527
4490.00,1.3356
4489.00,1.3180
4488.00,1.2997
4487.00,1.2807
4486.00,1.2609
4485.00,1.2405
4484.00,1.2195
4483.00,1.1982
4482.00,1.1765
4481.00,1.1546
4480.00,1.1324
4479.00,1.1099
4478.00,1.0873
4477.00,1.0646
4476.00,1.0419
4475.00,1.0193
4474.00,0.9972
4473.00,0.9754
4472.00,0.9542
4471.00,0.9336
4470.00,0.9137
4469.00,0.8946
4468.00,0.8764
4467.00,0.8593
4466.00,0.8434
4465.00,0.8288
4464.00,0.8157
4463.00,0.8041
4462.00,0.7941
4461.00,0.7858
4460.00,0.7792
4459.00,0.7745
4458.00,0.7716
4457.00,0.7707
4456.00,0.7716
4455.00,0.7746
4454.00,0.7795
4453.00,0.7862
4452.00,0.7947
4451.00,0.8050
4450.00,0.8170
4449.00,0.8307
4448.00,0.8459
4447.00,0.8625
4446.00,0.8804
4445.00,0.8995
4444.00,0.9196
4443.00,0.9406
4442.00,0.9624
4441.00,0.9847
4440.00,1.0075
4439.00,1.0307
4438.00,1.0542
4437.00,1.0778
4436.00,1.1015
4435.00,1.1251
4434.00,1.1485
4433.00,1.1717
4432.00,1.1945
4431.00,1.2170
4430.00,1.2390
4429.00,1.2606
4428.00,1.2816
4427.00,1.3020
4426.00,1.3219
4425.00,1.3411
4424.00,1.3596
4423.00,1.3773
4422.00,1.3943
4421.00,1.4105
4420.00,1.4261
4419.00,1.4410
4418.00,1.4552
4417.00,1.4686
4416.00,1.4813
4415.00,1.4933
4414.00,1.5048
4413.00,1.5156
4412.00,1.5257
4411.00,1.5353
4410.00,1.5445
4409.00,1.5532
4408.00,1.5615
4407.00,1.5693
4406.00,1.5764
4405.00,1.5830
4404.00,1.5889
4403.00,1.5943
4402.00,1.5991
4401.00,1.6033
4400.00,1.6067
4399.00,1.6094
4398.00,1.6114
4397.00,1.6130
4396.00,1.6143
4395.00,1.6154
4394.00,1.6164
4393.00,1.6171
4392.00,1.6174
4391.00,1.6169
4390.00,1.6157
4389.00,1.6136
4388.00,1.6109
4387.00,1.6077
4386.00,1.6043
4385.00,1.6005
4384.00,1.5963
4383.00,1.5917
4382.00,1.5864
4381.00,1.5806
4380.00,1.5741
4379.00,1.5671
4378.00,1.5595
4377.00,1.5515
4376.00,1.5431
4375.00,1.5342
4374.00,1.5248
4373.00,1.5149
4372.00,1.5045
4371.00,1.4936
4370.00,1.4822
4369.00,1.4702
4368.00,1.4575
4367.00,1.4442
4366.00,1.4303
4365.00,1.4156
4364.00,1.4003
4363.00,1.3842
4362.00,1.3674
4361.00,1.3501
4360.00,1.3321
4359.00,1.3137
4358.00,1.2947
4357.00,1.2752
4356.00,1.2553
4355.00,1.2350
4354.00,1.2143
4353.00,1.1933
4352.00,1.1721
4351.00,1.1507
4350.00,1.1293
4349.00,1.1080
4348.00,1.0867
4347.00,1.0655
4346.00,1.0445
4345.00,1.0238
4344.00,1.0036
4343.00,0.9840
4342.00,0.9650
4341.00,0.9468
4340.00,0.9293
4339.00,0.9127
4338.00,0.8973
4337.00,0.8830
4336.00,0.8702
4335.00,0.8588
4334.00,0.8491
4333.00,0.8412
4332.00,0.8351
4331.00,0.8309
4330.00,0.8288
4329.00,0.8287
4328.00,0.8307
4327.00,0.8347
4326.00,0.8408
4325.00,0.8487
4324.00,0.8586
4323.00,0.8703
4322.00,0.8837
4321.00,0.8987
4320.00,0.9151
4319.00,0.9328
4318.00,0.9517
4317.00,0.9715
4316.00,0.9922
4315.00,1.0137
4314.00,1.0358
4313.00,1.0583
4312.00,1.0812
4311.00,1.1043
4310.00,1.1275
4309.00,1.1507
4308.00,1.1738
4307.00,1.1967
4306.00,1.2195
4305.00,1.2420
4304.00,1.2641
4303.00,1.2859
4302.00,1.3073
4301.00,1.3281
4300.00,1.3483
4299.00,1.3676
4298.00,1.3863
4297.00,1.4044
4296.00,1.4219
4295.00,1.4387
4294.00,1.4547
4293.00,1.4702
4292.00,1.4851
4291.00,1.4996
4290.00,1.5135
4289.00,1.5267
4288.00,1.5392
4287.00,1.5510
4286.00,1.5621
4285.00,1.5725
4284.00,1.5822
4283.00,1.5912
4282.00,1.5995
4281.00,1.6071
4280.00,1.6141
4279.00,1.6205
4278.00,1.6266
4277.00,1.6324
4276.00,1.6379
4275.00,1.6432
4274.00,1.6479
4273.00,1.6519
4272.00,1.6551
4271.00,1.6573
4270.00,1.6590
4269.00,1.6605
4268.00,1.6618
4267.00,1.6629
4266.00,1.6635
4265.00,1.6632
4264.00,1.6623
4263.00,1.6609
4262.00,1.6594
4261.00,1.6576
4260.00,1.6552
4259.00,1.6520
4258.00,1.6480
4257.00,1.6435
4256.00,1.6387
4255.00,1.6336
4254.00,1.6279
4253.00,1.6215
4252.00,1.6144
4251.00,1.6068
4250.00,1.5986
4249.00,1.5899
4248.00,1.5806
4247.00,1.5704
4246.00,1.5595
4245.00,1.5478
4244.00,1.5356
4243.00,1.5229
4242.00,1.5098
4241.00,1.4961
4240.00,1.4817
4239.00,1.4664
4238.00,1.4503
4237.00,1.4333
4236.00,1.4156
4235.00,1.3973
4234.00,1.3783
4233.00,1.3588
4232.00,1.3387
4231.00,1.3181
4230.00,1.2969
4229.00,1.2752
4228.00,1.2529
4227.00,1.2303
4226.00,1.2074
4225.00,1.1845
4224.00,1.1616
4223.00,1.1388
4222.00,1.1161
4221.00,1.0935
4220.00,1.0713
4219.00,1.0494
4218.00,1.0280
4217.00,1.0071
4216.00,0.9869
4215.00,0.9675
4214.00,0.9490
4213.00,0.9316
4212.00,0.9153
4211.00,0.9004
4210.00,0.8869
4209.00,0.8749
4208.00,0.8645
4207.00,0.8559
4206.00,0.8492
4205.00,0.8444
4204.00,0.8415
4203.00,0.8407
4202.00,0.8420
4201.00,0.8454
4200.00,0.8509
4199.00,0.8583
4198.00,0.8677
4197.00,0.8791
4196.00,0.8923
4195.00,0.9073
4194.00,0.9239
4193.00,0.9420
4192.00,0.9614
4191.00,0.9819
4190.00,1.0033
4189.00,1.0255
4188.00,1.0485
4187.00,1.0721
4186.00,1.0961
4185.00,1.1204
4184.00,1.1448
4183.00,1.1691
4182.00,1.1933
4181.00,1.2173
4180.00,1.2409
4179.00,1.2642
4178.00,1.2873
4177.00,1.3100
4176.00,1.3324
4175.00,1.3542
4174.00,1.3752
4173.00,1.3955
4172.00,1.4150
4171.00,1.4337
4170.00,1.4518
4169.00,1.4692
4168.00,1.4859
4167.00,1.5021
4166.00,1.5177
4165.00,1.5326
4164.00,1.5467
4163.00,1.5599
4162.00,1.5726
4161.00,1.5846
4160.00,1.5961
4159.00,1.6068
4158.00,1.6167
4157.00,1.6259
4156.00,1.6345
4155.00,1.6429
4154.00,1.6510
4153.00,1.6587
4152.00,1.6656
4151.00,1.6717
4150.00,1.6771
4149.00,1.6821
4148.00,1.6868
4147.00,1.6910
4146.00,1.6946
4145.00,1.6977
4144.00,1.7003
4143.00,1.7023
4142.00,1.7037
4141.00,1.7043
4140.00,1.7044
4139.00,1.7042
4138.00,1.7036
4137.00,1.7026
4136.00,1.7011
4135.00,1.6988
4134.00,1.6960
4133.00,1.6927
4132.00,1.6892
4131.00,1.6854
4130.00,1.6812
4129.00,1.6761
4128.00,1.6702
4127.00,1.6635
4126.00,1.6560
4125.00,1.6479
4124.00,1.6394
4123.00,1.6303
4122.00,1.6209
4121.00,1.6110
4120.00,1.6007
4119.00,1.5898
4118.00,1.5782
4117.00,1.5657
4116.00,1.5522
4115.00,1.5380
4114.00,1.5231
4113.00,1.5074
4112.00,1.4909
4111.00,1.4736
4110.00,1.4557
4109.00,1.4372
4108.00,1.4181
4107.00,1.3984
4106.00,1.3778
4105.00,1.3565
4104.00,1.3345
4103.00,1.3120
4102.00,1.2890
4101.00,1.2655
4100.00,1.2417
4099.00,1.2176
4098.00,1.1933
4097.00,1.1689
4096.00,1.1444
4095.00,1.1199
4094.00,1.0956
4093.00,1.0717
4092.00,1.0483
4091.00,1.0256
4090.00,1.0036
4089.00,0.9825
4088.00,0.9624
4087.00,0.9434
4086.00,0.9257
4085.00,0.9094
4084.00,0.8946
4083.00,0.8815
4082.00,0.8702
4081.00,0.8606
4080.00,0.8530
4079.00,0.8474
4078.00,0.8439
4077.00,0.8426
4076.00,0.8435
4075.00,0.8466
4074.00,0.8519
4073.00,0.8593
4072.00,0.8689
4071.00,0.8805
4070.00,0.8943
4069.00,0.9100
4068.00,0.9274
4067.00,0.9464
4066.00,0.9668
4065.00,0.9885
4064.00,1.0115
4063.00,1.0355
4062.00,1.0604
4061.00,1.0860
4060.00,1.1120
4059.00,1.1383
4058.00,1.1647
4057.00,1.1911
4056.00,1.2175
4055.00,1.2436
4054.00,1.2693
4053.00,1.2945
4052.00,1.3192
4051.00,1.3433
4050.00,1.3667
4049.00,1.3894
4048.00,1.4113
4047.00,1.4324
4046.00,1.4529
4045.00,1.4726
4044.00,1.4917
4043.00,1.5098
4042.00,1.5270
4041.00,1.5434
4040.00,1.5592
4039.00,1.5746
4038.00,1.5895
4037.00,1.6037
4036.00,1.6171
4035.00,1.6294
4034.00,1.6408
4033.00,1.6514
4032.00,1.6616
4031.00,1.6716
4030.00,1.6813
4029.00,1.6905
4028.00,1.6990
4027.00,1.7064
4026.00,1.7128
4025.00,1.7185
4024.00,1.7236
4023.00,1.7287
4022.00,1.7338
4021.00,1.7389
4020.00,1.7436
4019.00,1.7476
4018.00,1.7505
4017.00,1.7527
4016.00,1.7543
4015.00,1.7555
4014.00,1.7562
4013.00,1.7562
4012.00,1.7553
4011.00,1.7538
4010.00,1.7522
4009.00,1.7503
4008.00,1.7479
4007.00,1.7449
4006.00,1.7413
4005.00,1.7371
4004.00,1.7323
4003.00,1.7268
4002.00,1.7206
4001.00,1.7140
4000.00,1.7070
3999.00,1.6996
3998.00,1.6915
3997.00,1.6826
3996.00,1.6728
3995.00,1.6625
3994.00,1.6516
3993.00,1.6403
3992.00,1.6282
3991.00,1.6152
3990.00,1.6014
3989.00,1.5869
3988.00,1.5717
3987.00,1.5559
3986.00,1.5394
3985.00,1.5221
3984.00,1.5041
3983.00,1.4852
3982.00,1.4654
3981.00,1.4449
3980.00,1.4236
3979.00,1.4015
3978.00,1.3785
3977.00,1.3549
3976.00,1.3307
3975.00,1.3059
3974.00,1.2807
3973.00,1.2551
3972.00,1.2291
3971.00,1.2029
3970.00,1.1767
3969.00,1.1507
3968.00,1.1249
3967.00,1.0995
3966.00,1.0747
3965.00,1.0506
3964.00,1.0273
3963.00,1.0051
3962.00,0.9840
3961.00,0.9644
3960.00,0.9464
3959.00,0.9301
3958.00,0.9155
3957.00,0.9028
3956.00,0.8921
3955.00,0.8834
3954.00,0.8769
3953.00,0.8724
3952.00,0.8700
3951.00,0.8698
3950.00,0.8717
3949.00,0.8756
3948.00,0.8817
3947.00,0.8900
3946.00,0.9005
3945.00,0.9130
3944.00,0.9274
3943.00,0.9436
3942.00,0.9616
3941.00,0.9815
3940.00,1.0027
3939.00,1.0251
3938.00,1.0484
3937.00,1.0727
3936.00,1.0978
3935.00,1.1235
3934.00,1.1497
3933.00,1.1764
3932.00,1.2034
3931.00,1.2306
3930.00,1.2575
3929.00,1.2841
3928.00,1.3103
3927.00,1.3361
3926.00,1.3613
3925.00,1.3858
3924.00,1.4095
3923.00,1.4324
3922.00,1.4544
3921.00,1.4754
3920.00,1.4958
3919.00,1.5157
3918.00,1.5350
3917.00,1.5538
3916.00,1.5722
3915.00,1.5901
3914.00,1.6070
3913.00,1.6229
3912.00,1.6378
3911.00,1.6518
3910.00,1.6646
3909.00,1.6763
3908.00,1.6870
3907.00,1.6969
3906.00,1.7062
3905.00,1.7149
3904.00,1.7232
3903.00,1.7313
3902.00,1.7392
3901.00,1.7468
3900.00,1.7541
3899.00,1.7613
3898.00,1.7683
3897.00,1.7744
3896.00,1.7794
3895.00,1.7834
3894.00,1.7868
3893.00,1.7896
3892.00,1.7917
3891.00,1.7930
3890.00,1.7934
3889.00,1.7932
3888.00,1.7924
3887.00,1.7911
3886.00,1.7894
3885.00,1.7878
3884.00,1.7865
3883.00,1.7848
3882.00,1.7820
3881.00,1.7779
3880.00,1.7732
3879.00,1.7684
3878.00,1.7634
3877.00,1.7576
3876.00,1.7505
3875.00,1.7418
3874.00,1.7323
3873.00,1.7228
3872.00,1.7131
3871.00,1.7020
3870.00,1.6896
3869.00,1.6771
3868.00,1.6651
3867.00,1.6530
3866.00,1.6401
3865.00,1.6263
3864.00,1.6123
3863.00,1.5982
3862.00,1.5835
3861.00,1.5679
3860.00,1.5508
3859.00,1.5320
3858.00,1.5117
3857.00,1.4906
3856.00,1.4695
3855.00,1.4476
3854.00,1.4235
3853.00,1.3976
3852.00,1.3717
3851.00,1.3467
3850.00,1.3224
3849.00,1.2980
3848.00,1.2733
3847.00,1.2478
3846.00,1.2212
3845.00,1.1933
3844.00,1.1641
3843.00,1.1340
3842.00,1.1039
3841.00,1.0745
3840.00,1.0457
3839.00,1.0173
3838.00,0.9896
3837.00,0.9632
3836.00,0.9388
3835.00,0.9171
3834.00,0.8981
3833.00,0.8815
3832.00,0.8671
3831.00,0.8552
3830.00,0.8459
3829.00,0.8394
3828.00,0.8352
3827.00,0.8329
3826.00,0.8328
3825.00,0.8354
3824.00,0.8413
3823.00,0.8504
3822.00,0.8622
3821.00,0.8770
3820.00,0.8948
3819.00,0.9146
3818.00,0.9360
3817.00,0.9596
3816.00,0.9866
3815.00,1.0168
3814.00,1.0480
3813.00,1.0783
3812.00,1.1073
3811.00,1.1357
3810.00,1.1643
3809.00,1.1932
3808.00,1.2228
3807.00,1.2534
3806.00,1.2845
3805.00,1.3148
3804.00,1.3433
3803.00,1.3704
3802.00,1.3975
3801.00,1.4258
3800.00,1.4545
3799.00,1.4816
3798.00,1.5064
3797.00,1.5297
3796.00,1.5523
3795.00,1.5745
3794.00,1.5954
3793.00,1.6150
3792.00,1.6335
3791.00,1.6512
3790.00,1.6681
3789.00,1.6840
3788.00,1.6989
3787.00,1.7128
3786.00,1.7258
3785.00,1.7380
3784.00,1.7497
3783.00,1.7609
3782.00,1.7718
3781.00,1.7821
3780.00,1.7918
3779.00,1.8007
3778.00,1.8091
3777.00,1.8169
3776.00,1.8239
3775.00,1.8299
3774.00,1.8352
3773.00,1.8397
3772.00,1.8434
3771.00,1.8463
3770.00,1.8490
3769.00,1.8518
3768.00,1.8547
3767.00,1.8572
3766.00,1.8589
3765.00,1.8598
3764.00,1.8600
3763.00,1.8594
3762.00,1.8582
3761.00,1.8564
3760.00,1.8543
3759.00,1.8515
3758.00,1.8476
3757.00,1.8423
3756.00,1.8361
3755.00,1.8289
3754.00,1.8208
3753.00,1.8116
3752.00,1.8014
3751.00,1.7904
3750.00,1.7782
3749.00,1.7651
3748.00,1.7519
3747.00,1.7392
3746.00,1.7264
3745.00,1.7127
3744.00,1.6986
3743.00,1.6847
3742.00,1.6705
3741.00,1.6552
3740.00,1.6388
3739.00,1.6222
3738.00,1.6052
3737.00,1.5869
3736.00,1.5668
3735.00,1.5458
3734.00,1.5246
3733.00,1.5034
3732.00,1.4818
3731.00,1.4601
3730.00,1.4385
3729.00,1.4167
3728.00,1.3938
3727.00,1.3692
3726.00,1.3433
3725.00,1.3166
3724.00,1.2889
3723.00,1.2600
3722.00,1.2292
3721.00,1.1967
3720.00,1.1629
3719.00,1.1286
3718.00,1.0945
3717.00,1.0613
3716.00,1.0299
3715.00,1.0010
3714.00,0.9743
3713.00,0.9497
3712.00,0.9269
3711.00,0.9066
3710.00,0.8896
3709.00,0.8764
3708.00,0.8671
3707.00,0.8615
3706.00,0.8596
3705.00,0.8612
3704.00,0.8663
3703.00,0.8750
3702.00,0.8872
3701.00,0.9031
3700.00,0.9225
3699.00,0.9449
3698.00,0.9698
3697.00,0.9967
3696.00,1.0255
3695.00,1.0556
3694.00,1.0865
3693.00,1.1179
3692.00,1.1500
3691.00,1.1831
3690.00,1.2175
3689.00,1.2537
3688.00,1.2916
3687.00,1.3296
3686.00,1.3655
3685.00,1.3986
3684.00,1.4294
3683.00,1.4589
3682.00,1.4870
3681.00,1.5132
3680.00,1.5374
3679.00,1.5604
3678.00,1.5827
3677.00,1.6045
3676.00,1.6263
3675.00,1.6486
3674.00,1.6709
3673.00,1.6917
3672.00,1.7109
3671.00,1.7292
3670.00,1.7476
3669.00,1.7662
3668.00,1.7839
3667.00,1.7999
3666.00,1.8142
3665.00,1.8274
3664.00,1.8397
3663.00,1.8511
3662.00,1.8617
3661.00,1.8714
3660.00,1.8802
3659.00,1.8881
3658.00,1.8949
3657.00,1.9007
3656.00,1.9059
3655.00,1.9106
3654.00,1.9147
3653.00,1.9182
3652.00,1.9213
3651.00,1.9239
3650.00,1.9259
3649.00,1.9278
3648.00,1.9298
3647.00,1.9324
3646.00,1.9352
3645.00,1.9380
3644.00,1.9404
3643.00,1.9418
3642.00,1.9423
3641.00,1.9422
3640.00,1.9414
3639.00,1.9398
3638.00,1.9374
3637.00,1.9346
3636.00,1.9316
3635.00,1.9282
3634.00,1.9241
3633.00,1.9197
3632.00,1.9156
3631.00,1.9118
3630.00,1.9074
3629.00,1.9028
3628.00,1.8989
3627.00,1.8961
3626.00,1.8936
3625.00,1.8904
3624.00,1.8863
3623.00,1.8817
3622.00,1.8766
3621.00,1.8705
3620.00,1.8627
3619.00,1.8527
3618.00,1.8408
3617.00,1.8280
3616.00,1.8148
3615.00,1.8012
3614.00,1.7873
3613.00,1.7732
3612.00,1.7595
3611.00,1.7465
3610.00,1.7338
3609.00,1.7210
3608.00,1.7079
3607.00,1.6947
3606.00,1.6818
3605.00,1.6693
3604.00,1.6571
3603.00,1.6448
3602.00,1.6321
3601.00,1.6190
3600.00,1.6057
3599.00,1.5925
3598.00,1.5797
3597.00,1.5672
3596.00,1.5550
3595.00,1.5432
3594.00,1.5316
3593.00,1.5206
3592.00,1.5101
3591.00,1.5005
3590.00,1.4917
3589.00,1.4837
3588.00,1.4764
3587.00,1.4701
3586.00,1.4649
3585.00,1.4610
3584.00,1.4582
3583.00,1.4565
3582.00,1.4558
3581.00,1.4562
3580.00,1.4577
3579.00,1.4602
3578.00,1.4637
3577.00,1.4683
3576.00,1.4740
3575.00,1.4807
3574.00,1.4884
3573.00,1.4968
3572.00,1.5061
3571.00,1.5163
3570.00,1.5276
3569.00,1.5399
3568.00,1.5530
3567.00,1.5669
3566.00,1.5816
3565.00,1.5970
3564.00,1.6128
3563.00,1.6289
3562.00,1.6452
3561.00,1.6617
3560.00,1.6783
3559.00,1.6949
3558.00,1.7113
3557.00,1.7276
3556.00,1.7438
3555.00,1.7598
3554.00,1.7755
3553.00,1.7908
3552.00,1.8058
3551.00,1.8209
3550.00,1.8358
3549.00,1.8505
3548.00,1.8648
3547.00,1.8788
3546.00,1.8922
3545.00,1.9053
3544.00,1.9180
3543.00,1.9303
3542.00,1.9421
3541.00,1.9537
3540.00,1.9652
3539.00,1.9768
3538.00,1.9881
3537.00,1.9987
3536.00,2.0085
3535.00,2.0177
3534.00,2.0264
3533.00,2.0346
3532.00,2.0423
3531.00,2.0493
3530.00,2.0556
3529.00,2.0614
3528.00,2.0668
3527.00,2.0720
3526.00,2.0772
3525.00,2.0822
3524.00,2.0870
3523.00,2.0917
3522.00,2.0962
3521.00,2.1004
3520.00,2.1044
3519.00,2.1080
3518.00,2.1110
3517.00,2.1132
3516.00,2.1146
3515.00,2.1157
3514.00,2.1171
3513.00,2.1189
3512.00,2.1205
3511.00,2.1211
3510.00,2.1207
3509.00,2.1196
3508.00,2.1183
3507.00,2.1167
3506.00,2.1148
3505.00,2.1129
3504.00,2.1110
3503.00,2.1089
3502.00,2.1065
3501.00,2.1037
3500.00,2.1002
3499.00,2.0958
3498.00,2.0908
3497.00,2.0858
3496.00,2.0810
3495.00,2.0761
3494.00,2.0704
3493.00,2.0639
3492.00,2.0569
3491.00,2.0494
3490.00,2.0416
3489.00,2.0335
3488.00,2.0253
3487.00,2.0169
3486.00,2.0082
3485.00,1.9991
3484.00,1.9895
3483.00,1.9794
3482.00,1.9687
3481.00,1.9575
3480.00,1.9459
3479.00,1.9341
3478.00,1.9219
3477.00,1.9093
3476.00,1.8963
3475.00,1.8832
3474.00,1.8702
3473.00,1.8570
3472.00,1.8435
3471.00,1.8294
3470.00,1.8148
3469.00,1.8000
3468.00,1.7851
3467.00,1.7703
3466.00,1.7556
3465.00,1.7413
3464.00,1.7274
3463.00,1.7136
3462.00,1.6999
3461.00,1.6862
3460.00,1.6727
3459.00,1.6597
3458.00,1.6472
3457.00,1.6353
3456.00,1.6242
3455.00,1.6137
3454.00,1.6040
3453.00,1.5952
3452.00,1.5873
3451.00,1.5804
3450.00,1.5744
3449.00,1.5694
3448.00,1.5654
3447.00,1.5627
3446.00,1.5614
3445.00,1.5617
3444.00,1.5634
3443.00,1.5663
3442.00,1.5705
3441.00,1.5760
3440.00,1.5826
3439.00,1.5903
3438.00,1.5990
3437.00,1.6085
3436.00,1.6190
3435.00,1.6304
3434.00,1.6427
3433.00,1.6559
3432.00,1.6700
3431.00,1.6848
3430.00,1.7002
3429.00,1.7159
3428.00,1.7320
3427.00,1.7487
3426.00,1.7657
3425.00,1.7828
3424.00,1.7999
3423.00,1.8168
3422.00,1.8335
3421.00,1.8498
3420.00,1.8659
3419.00,1.8819
3418.00,1.8979
3417.00,1.9137
3416.00,1.9292
3415.00,1.9440
3414.00,1.9578
3413.00,1.9705
3412.00,1.9823
3411.00,1.9934
3410.00,2.0040
3409.00,2.0141
3408.00,2.0238
3407.00,2.0331
3406.00,2.0416
3405.00,2.0493
3404.00,2.0561
3403.00,2.0621
3402.00,2.0678
3401.00,2.0738
3400.00,2.0804
3399.00,2.0870
3398.00,2.0927
3397.00,2.0967
3396.00,2.0993
3395.00,2.1016
3394.00,2.1046
3393.00,2.1083
3392.00,2.1122
3391.00,2.1158
3390.00,2.1190
3389.00,2.1220
3388.00,2.1250
3387.00,2.1278
3386.00,2.1301
3385.00,2.1320
3384.00,2.1333
3383.00,2.1339
3382.00,2.1339
3381.00,2.1335
3380.00,2.1332
3379.00,2.1327
3378.00,2.1318
3377.00,2.1302
3376.00,2.1280
3375.00,2.1256
3374.00,2.1233
3373.00,2.1208
3372.00,2.1175
3371.00,2.1130
3370.00,2.1074
3369.00,2.1009
3368.00,2.0939
3367.00,2.0865
3366.00,2.0790
3365.00,2.0715
3364.00,2.0640
3363.00,2.0563
3362.00,2.0481
3361.00,2.0392
3360.00,2.0297
3359.00,2.0194
3358.00,2.0082
3357.00,1.9961
3356.00,1.9834
3355.00,1.9706
3354.00,1.9577
3353.00,1.9443
3352.00,1.9299
3351.00,1.9145
3350.00,1.8982
3349.00,1.8812
3348.00,1.8639
3347.00,1.8463
3346.00,1.8285
3345.00,1.8104
3344.00,1.7921
3343.00,1.7736
3342.00,1.7547
3341.00,1.7353
3340.00,1.7155
3339.00,1.6955
3338.00,1.6756
3337.00,1.6559
3336.00,1.6363
3335.00,1.6167
3334.00,1.5972
3333.00,1.5780
3332.00,1.5595
3331.00,1.5419
3330.00,1.5253
3329.00,1.5097
3328.00,1.4954
3327.00,1.4823
3326.00,1.4705
3325.00,1.4601
3324.00,1.4513
3323.00,1.4442
3322.00,1.4389
3321.00,1.4353
3320.00,1.4336
3319.00,1.4338
3318.00,1.4360
3317.00,1.4401
3316.00,1.4461
3315.00,1.4539
3314.00,1.4634
3313.00,1.4745
3312.00,1.4870
3311.00,1.5007
3310.00,1.5156
3309.00,1.5317
3308.00,1.5488
3307.00,1.5669
3306.00,1.5859
3305.00,1.6056
3304.00,1.6259
3303.00,1.6465
3302.00,1.6673
3301.00,1.6880
3300.00,1.7086
3299.00,1.7292
3298.00,1.7499
3297.00,1.7706
3296.00,1.7911
3295.00,1.8112
3294.00,1.8308
3293.00,1.8497
3292.00,1.8681
3291.00,1.8859
3290.00,1.9032
3289.00,1.9199
3288.00,1.9359
3287.00,1.9511
3286.00,1.9655
3285.00,1.9795
3284.00,1.9934
3283.00,2.0071
3282.00,2.0204
3281.00,2.0330
3280.00,2.0449
3279.00,2.0561
3278.00,2.0666
3277.00,2.0766
3276.00,2.0857
3275.00,2.0940
3274.00,2.1017
3273.00,2.1092
3272.00,2.1167
3271.00,2.1240
3270.00,2.1308
3269.00,2.1367
3268.00,2.1417
3267.00,2.1461
3266.00,2.1502
3265.00,2.1541
3264.00,2.1577
3263.00,2.1608
3262.00,2.1636
3261.00,2.1658
3260.00,2.1674
3259.00,2.1681
3258.00,2.1681
3257.00,2.1675
3256.00,2.1665
3255.00,2.1653
3254.00,2.1641
3253.00,2.1628
3252.00,2.1611
3251.00,2.1589
3250.00,2.1559
3249.00,2.1523
3248.00,2.1481
3247.00,2.1435
3246.00,2.1384
3245.00,2.1330
3244.00,2.1267
3243.00,2.1195
3242.00,2.1115
3241.00,2.1032
3240.00,2.0950
3239.00,2.0870
3238.00,2.0788
3237.00,2.0703
3236.00,2.0610
3235.00,2.0510
3234.00,2.0401
3233.00,2.0288
3232.00,2.0171
3231.00,2.0050
3230.00,1.9922
3229.00,1.9786
3228.00,1.9642
3227.00,1.9493
3226.00,1.9341
3225.00,1.9186
3224.00,1.9029
3223.00,1.8870
3222.00,1.8708
3221.00,1.8542
3220.00,1.8371
3219.00,1.8195
3218.00,1.8017
3217.00,1.7838
3216.00,1.7658
3215.00,1.7478
3214.00,1.7299
3213.00,1.7122
3212.00,1.6949
3211.00,1.6782
3210.00,1.6619
3209.00,1.6462
3208.00,1.6310
3207.00,1.6165
3206.00,1.6028
3205.00,1.5901
3204.00,1.5784
3203.00,1.5680
3202.00,1.5590
3201.00,1.5515
3200.00,1.5455
3199.00,1.5410
3198.00,1.5383
3197.00,1.5374
3196.00,1.5382
3195.00,1.5406
3194.00,1.5445
3193.00,1.5501
3192.00,1.5573
3191.00,1.5661
3190.00,1.5765
3189.00,1.5883
3188.00,1.6014
3187.00,1.6155
3186.00,1.6305
3185.00,1.6464
3184.00,1.6633
3183.00,1.6811
3182.00,1.6996
3181.00,1.7185
3180.00,1.7374
3179.00,1.7564
3178.00,1.7756
3177.00,1.7950
3176.00,1.8144
3175.00,1.8334
3174.00,1.8520
3173.00,1.8705
3172.00,1.8893
3171.00,1.9082
3170.00,1.9268
3169.00,1.9449
3168.00,1.9620
3167.00,1.9782
3166.00,1.9937
3165.00,2.0085
3164.00,2.0228
3163.00,2.0367
3162.00,2.0504
3161.00,2.0640
3160.00,2.0772
3159.00,2.0899
3158.00,2.1021
3157.00,2.1140
3156.00,2.1253
3155.00,2.1357
3154.00,2.1455
3153.00,2.1548
3152.00,2.1637
3151.00,2.1718
3150.00,2.1788
3149.00,2.1850
3148.00,2.1910
3147.00,2.1970
3146.00,2.2027
3145.00,2.2078
3144.00,2.2120
3143.00,2.2155
3142.00,2.2186
3141.00,2.2216
3140.00,2.2242
3139.00,2.2265
3138.00,2.2285
3137.00,2.2304
3136.00,2.2320
3135.00,2.2333
3134.00,2.2343
3133.00,2.2345
3132.00,2.2333
3131.00,2.2304
3130.00,2.2266
3129.00,2.2228
3128.00,2.2195
3127.00,2.2160
3126.00,2.2116
3125.00,2.2060
3124.00,2.1996
3123.00,2.1931
3122.00,2.1866
3121.00,2.1801
3120.00,2.1727
3119.00,2.1641
3118.00,2.1542
3117.00,2.1438
3116.00,2.1336
3115.00,2.1236
3114.00,2.1133
3113.00,2.1022
3112.00,2.0899
3111.00,2.0766
3110.00,2.0627
3109.00,2.0483
3108.00,2.0333
3107.00,2.0176
3106.00,2.0009
3105.00,1.9835
3104.00,1.9657
3103.00,1.9477
3102.00,1.9295
3101.00,1.9108
3100.00,1.8916
3099.00,1.8716
3098.00,1.8513
3097.00,1.8310
3096.00,1.8108
3095.00,1.7906
3094.00,1.7703
3093.00,1.7501
3092.00,1.7303
3091.00,1.7112
3090.00,1.6929
3089.00,1.6754
3088.00,1.6590
3087.00,1.6436
3086.00,1.6297
3085.00,1.6175
3084.00,1.6070
3083.00,1.5983
3082.00,1.5915
3081.00,1.5867
3080.00,1.5841
3079.00,1.5837
3078.00,1.5854
3077.00,1.5894
3076.00,1.5955
3075.00,1.6038
3074.00,1.6142
3073.00,1.6268
3072.00,1.6413
3071.00,1.6575
3070.00,1.6754
3069.00,1.6947
3068.00,1.7154
3067.00,1.7373
3066.00,1.7599
3065.00,1.7831
3064.00,1.8066
3063.00,1.8302
3062.00,1.8535
3061.00,1.8762
3060.00,1.8985
3059.00,1.9205
3058.00,1.9419
3057.00,1.9627
3056.00,1.9829
3055.00,2.0027
3054.00,2.0220
3053.00,2.0410
3052.00,2.0594
3051.00,2.0772
3050.00,2.0941
3049.00,2.1105
3048.00,2.1265
3047.00,2.1424
3046.00,2.1579
3045.00,2.1723
3044.00,2.1854
3043.00,2.1974
3042.00,2.2089
3041.00,2.2198
3040.00,2.2297
3039.00,2.2384
3038.00,2.2466
3037.00,2.2551
3036.00,2.2639
3035.00,2.2722
3034.00,2.2793
3033.00,2.2854
3032.00,2.2906
3031.00,2.2948
3030.00,2.2979
3029.00,2.3000
3028.00,2.3011
3027.00,2.3013
3026.00,2.3009
3025.00,2.3004
3024.00,2.2997
3023.00,2.2982
3022.00,2.2952
3021.00,2.2907
3020.00,2.2845
3019.00,2.2765
3018.00,2.2671
3017.00,2.2568
3016.00,2.2460
3015.00,2.2350
3014.00,2.2232
3013.00,2.2106
3012.00,2.1971
3011.00,2.1823
3010.00,2.1660
3009.00,2.1481
3008.00,2.1287
3007.00,2.1080
3006.00,2.0865
3005.00,2.0645
3004.00,2.0421
3003.00,2.0196
3002.00,1.9973
3001.00,1.9760
3000.00,1.9565
2999.00,1.9393
2998.00,1.9248
2997.00,1.9137
2996.00,1.9066
2995.00,1.9043
2994.00,1.9073
2993.00,1.9159
2992.00,1.9301
2991.00,1.9500
2990.00,1.9755
2989.00,2.0065
2988.00,2.0427
2987.00,2.0835
2986.00,2.1282
2985.00,2.1760
2984.00,2.2263
2983.00,2.2781
2982.00,2.3307
2981.00,2.3837
2980.00,2.4369
2979.00,2.4904
2978.00,2.5438
2977.00,2.5976
2976.00,2.6529
2975.00,2.7110
2974.00,2.7719
2973.00,2.8354
2972.00,2.9016
2971.00,2.9717
2970.00,3.0464
2969.00,3.1248
2968.00,3.2055
2967.00,3.2888
2966.00,3.3769
2965.00,3.4694
2964.00,3.5590
2963.00,3.6385
2962.00,3.7163
2961.00,3.8162
2960.00,3.9548
2959.00,4.1201
2958.00,4.2621
2957.00,4.3306
2956.00,4.3706
2955.00,4.4640
2954.00,4.7046
2953.00,5.0923
2952.00,4.9811
2951.00,4.5809
2950.00,4.3602
2949.00,4.3215
2948.00,4.4644
2947.00,4.8326
2946.00,5.0812
2945.00,4.8059
2944.00,4.6111
2943.00,4.6231
2942.00,4.7063
2941.00,4.6724
2940.00,4.5790
2939.00,4.4869
2938.00,4.4347
2937.00,4.3925
2936.00,4.3461
2935.00,4.3187
2934.00,4.3332
2933.00,4.3923
2932.00,4.4725
2931.00,4.5526
2930.00,4.5885
2929.00,4.5329
2928.00,4.4103
2927.00,4.3002
2926.00,4.2649
2925.00,4.3274
2924.00,4.3716
2923.00,4.2366
2922.00,4.0501
2921.00,3.9193
2920.00,3.8401
2919.00,3.7690
2918.00,3.6973
2917.00,3.6330
2916.00,3.5796
2915.00,3.5356
2914.00,3.4902
2913.00,3.4375
2912.00,3.3818
2911.00,3.3296
2910.00,3.2845
2909.00,3.2469
2908.00,3.2159
2907.00,3.1884
2906.00,3.1603
2905.00,3.1295
2904.00,3.0977
2903.00,3.0668
2902.00,3.0363
2901.00,3.0044
2900.00,2.9711
2899.00,2.9393
2898.00,2.9117
2897.00,2.8883
2896.00,2.8672
2895.00,2.8470
2894.00,2.8272
2893.00,2.8089
2892.00,2.7933
2891.00,2.7815
2890.00,2.7743
2889.00,2.7712
2888.00,2.7710
2887.00,2.7729
2886.00,2.7774
2885.00,2.7865
2884.00,2.8020
2883.00,2.8235
2882.00,2.8483
2881.00,2.8741
2880.00,2.9018
2879.00,2.9345
2878.00,2.9736
2877.00,3.0173
2876.00,3.0634
2875.00,3.1140
2874.00,3.1733
2873.00,3.2419
2872.00,3.3156
2871.00,3.3923
2870.00,3.4747
2869.00,3.5615
2868.00,3.6409
2867.00,3.7011
2866.00,3.7467
2865.00,3.7883
2864.00,3.8227
2863.00,3.8361
2862.00,3.8191
2861.00,3.7748
2860.00,3.7136
2859.00,3.6436
2858.00,3.5690
2857.00,3.4894
2856.00,3.4013
2855.00,3.3020
2854.00,3.1948
2853.00,3.0861
2852.00,2.9800
2851.00,2.8775
2850.00,2.7792
2849.00,2.6867
2848.00,2.6024
2847.00,2.5284
2846.00,2.4655
2845.00,2.4132
2844.00,2.3708
2843.00,2.3380
2842.00,2.3149
2841.00,2.3017
2840.00,2.2975
2839.00,2.3006
2838.00,2.3085
2837.00,2.3187
2836.00,2.3299
2835.00,2.3416
2834.00,2.3542
2833.00,2.3676
2832.00,2.3809
2831.00,2.3929
2830.00,2.4033
2829.00,2.4123
2828.00,2.4204
2827.00,2.4276
2826.00,2.4333
2825.00,2.4371
2824.00,2.4386
2823.00,2.4386
2822.00,2.4382
2821.00,2.4385
2820.00,2.4393
2819.00,2.4395
2818.00,2.4386
2817.00,2.4367
2816.00,2.4336
2815.00,2.4291
2814.00,2.4232
2813.00,2.4167
2812.00,2.4100
2811.00,2.4031
2810.00,2.3951
2809.00,2.3854
2808.00,2.3736
2807.00,2.3607
2806.00,2.3480
2805.00,2.3362
2804.00,2.3244
2803.00,2.3110
2802.00,2.2953
2801.00,2.2776
2800.00,2.2593
2799.00,2.2410
2798.00,2.2224
2797.00,2.2028
2796.00,2.1815
2795.00,2.1586
2794.00,2.1339
2793.00,2.1077
2792.00,2.0797
2791.00,2.0497
2790.00,2.0180
2789.00,1.9846
2788.00,1.9496
2787.00,1.9129
2786.00,1.8746
2785.00,1.8352
2784.00,1.7954
2783.00,1.7558
2782.00,1.7170
2781.00,1.6790
2780.00,1.6424
2779.00,1.6073
2778.00,1.5745
2777.00,1.5441
2776.00,1.5168
2775.00,1.4928
2774.00,1.4726
2773.00,1.4569
2772.00,1.4459
2771.00,1.4400
2770.00,1.4393
2769.00,1.4440
2768.00,1.4539
2767.00,1.4686
2766.00,1.4877
2765.00,1.5106
2764.00,1.5368
2763.00,1.5656
2762.00,1.5963
2761.00,1.6283
2760.00,1.6613
2759.00,1.6951
2758.00,1.7294
2757.00,1.7642
2756.00,1.7989
2755.00,1.8334
2754.00,1.8676
2753.00,1.9016
2752.00,1.9351
2751.00,1.9676
2750.00,1.9989
2749.00,2.0292
2748.00,2.0583
2747.00,2.0857
2746.00,2.1113
2745.00,2.1354
2744.00,2.1585
2743.00,2.1805
2742.00,2.2011
2741.00,2.2204
2740.00,2.2385
2739.00,2.2558
2738.00,2.2723
2737.00,2.2883
2736.00,2.3039
2735.00,2.3186
2734.00,2.3320
2733.00,2.3440
2732.00,2.3553
2731.00,2.3665
2730.00,2.3772
2729.00,2.3867
2728.00,2.3946
2727.00,2.4013
2726.00,2.4075
2725.00,2.4134
2724.00,2.4187
2723.00,2.4227
2722.00,2.4255
2721.00,2.4278
2720.00,2.4301
2719.00,2.4324
2718.00,2.4340
2717.00,2.4345
2716.00,2.4345
2715.00,2.4344
2714.00,2.4340
2713.00,2.4327
2712.00,2.4300
2711.00,2.4263
2710.00,2.4221
2709.00,2.4173
2708.00,2.4115
2707.00,2.4045
2706.00,2.3973
2705.00,2.3907
2704.00,2.3847
2703.00,2.3781
2702.00,2.3698
2701.00,2.3594
2700.00,2.3473
2699.00,2.3339
2698.00,2.3197
2697.00,2.3050
2696.00,2.2899
2695.00,2.2743
2694.00,2.2580
2693.00,2.2410
2692.00,2.2234
2691.00,2.2050
2690.00,2.1854
2689.00,2.1643
2688.00,2.1417
2687.00,2.1181
2686.00,2.0941
2685.00,2.0702
2684.00,2.0463
2683.00,2.0224
2682.00,1.9987
2681.00,1.9755
2680.00,1.9532
2679.00,1.9318
2678.00,1.9109
2677.00,1.8903
2676.00,1.8697
2675.00,1.8488
2674.00,1.8276
2673.00,1.8061
2672.00,1.7845
2671.00,1.7626
2670.00,1.7401
2669.00,1.7168
2668.00,1.6922
2667.00,1.6659
2666.00,1.6379
2665.00,1.6086
2664.00,1.5789
2663.00,1.5506
2662.00,1.5250
2661.00,1.5036
2660.00,1.4872
2659.00,1.4763
2658.00,1.4710
2657.00,1.4711
2656.00,1.4764
2655.00,1.4863
2654.00,1.5004
2653.00,1.5181
2652.00,1.5388
2651.00,1.5620
2650.00,1.5871
2649.00,1.6139
2648.00,1.6421
2647.00,1.6715
2646.00,1.7016
2645.00,1.7324
2644.00,1.7635
2643.00,1.7950
2642.00,1.8268
2641.00,1.8591
2640.00,1.8918
2639.00,1.9246
2638.00,1.9570
2637.00,1.9888
2636.00,2.0198
2635.00,2.0497
2634.00,2.0786
2633.00,2.1064
2632.00,2.1332
2631.00,2.1589
2630.00,2.1836
2629.00,2.2072
2628.00,2.2298
2627.00,2.2514
2626.00,2.2718
2625.00,2.2909
2624.00,2.3082
2623.00,2.3239
2622.00,2.3389
2621.00,2.3540
2620.00,2.3693
2619.00,2.3838
2618.00,2.3968
2617.00,2.4081
2616.00,2.4183
2615.00,2.4276
2614.00,2.4362
2613.00,2.4444
2612.00,2.4524
2611.00,2.4606
2610.00,2.4687
2609.00,2.4763
2608.00,2.4829
2607.00,2.4881
2606.00,2.4924
2605.00,2.4967
2604.00,2.5012
2603.00,2.5054
2602.00,2.5081
2601.00,2.5090
2600.00,2.5090
2599.00,2.5091
2598.00,2.5100
2597.00,2.5116
2596.00,2.5129
2595.00,2.5132
2594.00,2.5123
2593.00,2.5101
2592.00,2.5070
2591.00,2.5034
2590.00,2.5000
2589.00,2.4968
2588.00,2.4929
2587.00,2.4873
2586.00,2.4798
2585.00,2.4717
2584.00,2.4642
2583.00,2.4572
2582.00,2.4496
2581.00,2.4403
2580.00,2.4293
2579.00,2.4175
2578.00,2.4060
2577.00,2.3948
2576.00,2.3829
2575.00,2.3694
2574.00,2.3545
2573.00,2.3392
2572.00,2.3235
2571.00,2.3070
2570.00,2.2892
2569.00,2.2704
2568.00,2.2507
2567.00,2.2302
2566.00,2.2087
2565.00,2.1859
2564.00,2.1620
2563.00,2.1367
2562.00,2.1098
2561.00,2.0814
2560.00,2.0513
2559.00,2.0195
2558.00,1.9861
2557.00,1.9510
2556.00,1.9144
2555.00,1.8764
2554.00,1.8373
2553.00,1.7972
2552.00,1.7566
2551.00,1.7157
2550.00,1.6749
2549.00,1.6349
2548.00,1.5959
2547.00,1.5583
2546.00,1.5227
2545.00,1.4896
2544.00,1.4596
2543.00,1.4331
2542.00,1.4105
2541.00,1.3921
2540.00,1.3782
2539.00,1.3690
2538.00,1.3647
2537.00,1.3656
2536.00,1.3716
2535.00,1.3828
2534.00,1.3988
2533.00,1.4196
2532.00,1.4447
2531.00,1.4735
2530.00,1.5056
2529.00,1.5404
2528.00,1.5775
2527.00,1.6162
2526.00,1.6560
2525.00,1.6964
2524.00,1.7372
2523.00,1.7780
2522.00,1.8185
2521.00,1.8581
2520.00,1.8965
2519.00,1.9334
2518.00,1.9690
2517.00,2.0035
2516.00,2.0372
2515.00,2.0699
2514.00,2.1015
2513.00,2.1318
2512.00,2.1605
2511.00,2.1875
2510.00,2.2128
2509.00,2.2368
2508.00,2.2603
2507.00,2.2831
2506.00,2.3049
2505.00,2.3254
2504.00,2.3450
2503.00,2.3640
2502.00,2.3822
2501.00,2.3993
2500.00,2.4151
2499.00,2.4298
2498.00,2.4435
2497.00,2.4568
2496.00,2.4699
2495.00,2.4828
2494.00,2.4954
2493.00,2.5071
2492.00,2.5177
2491.00,2.5270
2490.00,2.5347
2489.00,2.5411
2488.00,2.5472
2487.00,2.5538
2486.00,2.5610
2485.00,2.5678
2484.00,2.5729
2483.00,2.5761
2482.00,2.5782
2481.00,2.5802
2480.00,2.5829
2479.00,2.5855
2478.00,2.5873
2477.00,2.5875
2476.00,2.5864
2475.00,2.5846
2474.00,2.5833
2473.00,2.5830
2472.00,2.5833
2471.00,2.5830
2470.00,2.5810
2469.00,2.5773
2468.00,2.5731
2467.00,2.5691
2466.00,2.5654
2465.00,2.5613
2464.00,2.5557
2463.00,2.5483
2462.00,2.5397
2461.00,2.5310
2460.00,2.5225
2459.00,2.5135
2458.00,2.5035
2457.00,2.4926
2456.00,2.4814
2455.00,2.4695
2454.00,2.4566
2453.00,2.4429
2452.00,2.4286
2451.00,2.4140
2450.00,2.3988
2449.00,2.3823
2448.00,2.3639
2447.00,2.3435
2446.00,2.3217
2445.00,2.2993
2444.00,2.2765
2443.00,2.2529
2442.00,2.2278
2441.00,2.2012
2440.00,2.1732
2439.00,2.1438
2438.00,2.1125
2437.00,2.0787
2436.00,2.0428
2435.00,2.0049
2434.00,1.9653
2433.00,1.9243
2432.00,1.8818
2431.00,1.8383
2430.00,1.7940
2429.00,1.7493
2428.00,1.7046
2427.00,1.6599
2426.00,1.6157
2425.00,1.5724
2424.00,1.5307
2423.00,1.4911
2422.00,1.4544
2421.00,1.4211
2420.00,1.3918
2419.00,1.3669
2418.00,1.3469
2417.00,1.3322
2416.00,1.3232
2415.00,1.3206
2414.00,1.3245
2413.00,1.3353
2412.00,1.3527
2411.00,1.3764
2410.00,1.4059
2409.00,1.4405
2408.00,1.4796
2407.00,1.5224
2406.00,1.5679
2405.00,1.6153
2404.00,1.6640
2403.00,1.7134
2402.00,1.7630
2401.00,1.8120
2400.00,1.8602
2399.00,1.9068
2398.00,1.9514
2397.00,1.9933
2396.00,2.0324
2395.00,2.0688
2394.00,2.1022
2393.00,2.1320
2392.00,2.1573
2391.00,2.1769
2390.00,2.1904
2389.00,2.1950
2388.00,2.1946
2387.00,2.1818
2386.00,2.1728
2385.00,2.1442
2384.00,2.1552
2383.00,2.4371
2382.00,2.4265
2381.00,2.4628
2380.00,2.4760
2379.00,2.5016
2378.00,2.5197
2377.00,2.5419
2376.00,2.5633
2375.00,2.5865
2374.00,2.6102
2373.00,2.6328
2372.00,2.6532
2371.00,2.6712
2370.00,2.6874
2369.00,2.7026
2368.00,2.7168
2367.00,2.7304
2366.00,2.7436
2365.00,2.7563
2364.00,2.7673
2363.00,2.7752
2362.00,2.7798
2361.00,2.7828
2360.00,2.7866
2359.00,2.7914
2358.00,2.7942
2357.00,2.7926
2356.00,2.7875
2355.00,2.7817
2354.00,2.7763
2353.00,2.7690
2352.00,2.7576
2351.00,2.7440
2350.00,2.7324
2349.00,2.7256
2348.00,2.7242
2347.00,2.7269
2346.00,2.7320
2345.00,2.7371
2344.00,2.7401
2343.00,2.7408
2342.00,2.7403
2341.00,2.7392
2340.00,2.7362
2339.00,2.7301
2338.00,2.7213
2337.00,2.7110
2336.00,2.6998
2335.00,2.6879
2334.00,2.6755
2333.00,2.6634
2332.00,2.6498
2331.00,2.6372
2330.00,2.6153
2329.00,2.6029
2328.00,2.5689
2327.00,2.5714
2326.00,2.4946
2325.00,2.1398
2324.00,2.1480
2323.00,2.1347
2322.00,2.1276
2321.00,2.1077
2320.00,2.0815
2319.00,2.0472
2318.00,2.0105
2317.00,1.9752
2316.00,1.9436
2315.00,1.9160
2314.00,1.8909
2313.00,1.8675
2312.00,1.8440
2311.00,1.8195
2310.00,1.7930
2309.00,1.7640
2308.00,1.7317
2307.00,1.6961
2306.00,1.6576
2305.00,1.6177
2304.00,1.5777
2303.00,1.5384
2302.00,1.5002
2301.00,1.4638
2300.00,1.4300
2299.00,1.3999
2298.00,1.3740
2297.00,1.3531
2296.00,1.3375
2295.00,1.3274
2294.00,1.3231
2293.00,1.3247
2292.00,1.3325
2291.00,1.3464
2290.00,1.3661
2289.00,1.3914
2288.00,1.4214
2287.00,1.4556
2286.00,1.4936
2285.00,1.5355
2284.00,1.5809
2283.00,1.6293
2282.00,1.6798
2281.00,1.7314
2280.00,1.7835
2279.00,1.8354
2278.00,1.8866
2277.00,1.9363
2276.00,1.9842
2275.00,2.0298
2274.00,2.0729
2273.00,2.1133
2272.00,2.1511
2271.00,2.1867
2270.00,2.2207
2269.00,2.2537
2268.00,2.2859
2267.00,2.3167
2266.00,2.3456
2265.00,2.3724
2264.00,2.3975
2263.00,2.4213
2262.00,2.4441
2261.00,2.4661
2260.00,2.4877
2259.00,2.5086
2258.00,2.5286
2257.00,2.5476
2256.00,2.5655
2255.00,2.5821
2254.00,2.5973
2253.00,2.6110
2252.00,2.6238
2251.00,2.6360
2250.00,2.6481
2249.00,2.6598
2248.00,2.6708
2247.00,2.6805
2246.00,2.6889
2245.00,2.6968
2244.00,2.7048
2243.00,2.7122
2242.00,2.7190
2241.00,2.7258
2240.00,2.7332
2239.00,2.7401
2238.00,2.7449
2237.00,2.7476
2236.00,2.7503
2235.00,2.7539
2234.00,2.7577
2233.00,2.7605
2232.00,2.7628
2231.00,2.7652
2230.00,2.7670
2229.00,2.7665
2228.00,2.7632
2227.00,2.7583
2226.00,2.7530
2225.00,2.7485
2224.00,2.7450
2223.00,2.7421
2222.00,2.7392
2221.00,2.7360
2220.00,2.7324
2219.00,2.7282
2218.00,2.7229
2217.00,2.7164
2216.00,2.7087
2215.00,2.6997
2214.00,2.6893
2213.00,2.6787
2212.00,2.6687
2211.00,2.6594
2210.00,2.6496
2209.00,2.6388
2208.00,2.6271
2207.00,2.6149
2206.00,2.6017
2205.00,2.5866
2204.00,2.5691
2203.00,2.5491
2202.00,2.5273
2201.00,2.5046
2200.00,2.4823
2199.00,2.4603
2198.00,2.4376
2197.00,2.4135
2196.00,2.3875
2195.00,2.3599
2194.00,2.3303
2193.00,2.2988
2192.00,2.2654
2191.00,2.2303
2190.00,2.1936
2189.00,2.1550
2188.00,2.1146
2187.00,2.0728
2186.00,2.0297
2185.00,1.9855
2184.00,1.9404
2183.00,1.8945
2182.00,1.8484
2181.00,1.8031
2180.00,1.7595
2179.00,1.7183
2178.00,1.6797
2177.00,1.6435
2176.00,1.6092
2175.00,1.5769
2174.00,1.5470
2173.00,1.5203
2172.00,1.4977
2171.00,1.4800
2170.00,1.4683
2169.00,1.4632
2168.00,1.4656
2167.00,1.4758
2166.00,1.4938
2165.00,1.5192
2164.00,1.5516
2163.00,1.5900
2162.00,1.6335
2161.00,1.6812
2160.00,1.7320
2159.00,1.7847
2158.00,1.8382
2157.00,1.8916
2156.00,1.9443
2155.00,1.9961
2154.00,2.0463
2153.00,2.0947
2152.00,2.1407
2151.00,2.1840
2150.00,2.2245
2149.00,2.2627
2148.00,2.2989
2147.00,2.3332
2146.00,2.3657
2145.00,2.3969
2144.00,2.4271
2143.00,2.4565
2142.00,2.4844
2141.00,2.5098
2140.00,2.5327
2139.00,2.5539
2138.00,2.5741
2137.00,2.5937
2136.00,2.6124
2135.00,2.6308
2134.00,2.6491
2133.00,2.6665
2132.00,2.6815
2131.00,2.6941
2130.00,2.7058
2129.00,2.7183
2128.00,2.7317
2127.00,2.7447
2126.00,2.7565
2125.00,2.7669
2124.00,2.7762
2123.00,2.7843
2122.00,2.7919
2121.00,2.7997
2120.00,2.8079
2119.00,2.8155
2118.00,2.8213
2117.00,2.8252
2116.00,2.8279
2115.00,2.8311
2114.00,2.8353
2113.00,2.8404
2112.00,2.8454
2111.00,2.8497
2110.00,2.8534
2109.00,2.8560
2108.00,2.8566
2107.00,2.8545
2106.00,2.8496
2105.00,2.8437
2104.00,2.8386
2103.00,2.8362
2102.00,2.8367
2101.00,2.8386
2100.00,2.8395
2099.00,2.8373
2098.00,2.8320
2097.00,2.8250
2096.00,2.8174
2095.00,2.8091
2094.00,2.8001
2093.00,2.7906
2092.00,2.7809
2091.00,2.7710
2090.00,2.7609
2089.00,2.7509
2088.00,2.7411
2087.00,2.7314
2086.00,2.7212
2085.00,2.7097
2084.00,2.6964
2083.00,2.6806
2082.00,2.6625
2081.00,2.6428
2080.00,2.6223
2079.00,2.6012
2078.00,2.5795
2077.00,2.5575
2076.00,2.5350
2075.00,2.5113
2074.00,2.4858
2073.00,2.4584
2072.00,2.4295
2071.00,2.3997
2070.00,2.3692
2069.00,2.3381
2068.00,2.3059
2067.00,2.2723
2066.00,2.2369
2065.00,2.1998
2064.00,2.1614
2063.00,2.1213
2062.00,2.0793
2061.00,2.0348
2060.00,1.9878
2059.00,1.9383
2058.00,1.8868
2057.00,1.8340
2056.00,1.7808
2055.00,1.7280
2054.00,1.6768
2053.00,1.6288
2052.00,1.5856
2051.00,1.5485
2050.00,1.5189
2049.00,1.4979
2048.00,1.4864
2047.00,1.4848
2046.00,1.4935
2045.00,1.5124
2044.00,1.5406
2043.00,1.5770
2042.00,1.6200
2041.00,1.6683
2040.00,1.7210
2039.00,1.7771
2038.00,1.8354
2037.00,1.8945
2036.00,1.9533
2035.00,2.0105
2034.00,2.0655
2033.00,2.1179
2032.00,2.1678
2031.00,2.2154
2030.00,2.2606
2029.00,2.3035
2028.00,2.3439
2027.00,2.3814
2026.00,2.4166
2025.00,2.4503
2024.00,2.4829
2023.00,2.5141
2022.00,2.5435
2021.00,2.5716
2020.00,2.5986
2019.00,2.6239
2018.00,2.6464
2017.00,2.6663
2016.00,2.6855
2015.00,2.7047
2014.00,2.7229
2013.00,2.7387
2012.00,2.7523
2011.00,2.7653
2010.00,2.7788
2009.00,2.7925
2008.00,2.8064
2007.00,2.8206
2006.00,2.8352
2005.00,2.8497
2004.00,2.8628
2003.00,2.8730
2002.00,2.8796
2001.00,2.8836
2000.00,2.8876
1999.00,2.8932
1998.00,2.9006
1997.00,2.9086
1996.00,2.9164
1995.00,2.9245
1994.00,2.9336
1993.00,2.9426
1992.00,2.9486
1991.00,2.9502
1990.00,2.9490
1989.00,2.9483
1988.00,2.9501
1987.00,2.9529
1986.00,2.9533
1985.00,2.9489
1984.00,2.9407
1983.00,2.9320
1982.00,2.9260
1981.00,2.9232
1980.00,2.9210
1979.00,2.9174
1978.00,2.9127
1977.00,2.9090
1976.00,2.9066
1975.00,2.9032
1974.00,2.8965
1973.00,2.8873
1972.00,2.8780
1971.00,2.8701
1970.00,2.8638
1969.00,2.8581
1968.00,2.8507
1967.00,2.8388
1966.00,2.8222
1965.00,2.8034
1964.00,2.7855
1963.00,2.7694
1962.00,2.7541
1961.00,2.7382
1960.00,2.7207
1959.00,2.7008
1958.00,2.6788
1957.00,2.6556
1956.00,2.6317
1955.00,2.6064
1954.00,2.5789
1953.00,2.5492
1952.00,2.5180
1951.00,2.4857
1950.00,2.4522
1949.00,2.4181
1948.00,2.3837
1947.00,2.3484
1946.00,2.3111
1945.00,2.2704
1944.00,2.2252
1943.00,2.1746
1942.00,2.1191
1941.00,2.0610
1940.00,2.0019
1939.00,1.9424
1938.00,1.8832
1937.00,1.8255
1936.00,1.7703
1935.00,1.7187
1934.00,1.6723
1933.00,1.6325
1932.00,1.6007
1931.00,1.5781
1930.00,1.5656
1929.00,1.5642
1928.00,1.5747
1927.00,1.5976
1926.00,1.6324
1925.00,1.6771
1924.00,1.7288
1923.00,1.7843
1922.00,1.8416
1921.00,1.8988
1920.00,1.9557
1919.00,2.0138
1918.00,2.0746
1917.00,2.1366
1916.00,2.1960
1915.00,2.2506
1914.00,2.3013
1913.00,2.3500
1912.00,2.3974
1911.00,2.4422
1910.00,2.4831
1909.00,2.5199
1908.00,2.5532
1907.00,2.5842
1906.00,2.6135
1905.00,2.6414
1904.00,2.6684
1903.00,2.6948
1902.00,2.7203
1901.00,2.7449
1900.00,2.7693
1899.00,2.7943
1898.00,2.8194
1897.00,2.8433
1896.00,2.8646
1895.00,2.8835
1894.00,2.9004
1893.00,2.9157
1892.00,2.9291
1891.00,2.9399
1890.00,2.9471
1889.00,2.9527
1888.00,2.9614
1887.00,2.9743
1886.00,2.9879
1885.00,2.9977
1884.00,3.0032
1883.00,3.0068
1882.00,3.0111
1881.00,3.0177
1880.00,3.0265
1879.00,3.0352
1878.00,3.0398
1877.00,3.0384
1876.00,3.0340
1875.00,3.0315
1874.00,3.0317
1873.00,3.0318
1872.00,3.0319
1871.00,3.0362
1870.00,3.0466
1869.00,3.0570
1868.00,3.0600
1867.00,3.0542
1866.00,3.0431
1865.00,3.0305
1864.00,3.0192
1863.00,3.0093
1862.00,3.0003
1861.00,2.9924
1860.00,2.9860
1859.00,2.9785
1858.00,2.9664
1857.00,2.9501
1856.00,2.9337
1855.00,2.9192
1854.00,2.9041
1853.00,2.8865
1852.00,2.8674
1851.00,2.8487
1850.00,2.8316
1849.00,2.8156
1848.00,2.7978
1847.00,2.7732
1846.00,2.7397
1845.00,2.7012
1844.00,2.6640
1843.00,2.6295
1842.00,2.5932
1841.00,2.5520
1840.00,2.5075
1839.00,2.4622
1838.00,2.4144
1837.00,2.3618
1836.00,2.3058
1835.00,2.2497
1834.00,2.1946
1833.00,2.1406
1832.00,2.0882
1831.00,2.0382
1830.00,1.9897
1829.00,1.9443
1828.00,1.9049
1827.00,1.8739
1826.00,1.8545
1825.00,1.8498
1824.00,1.8603
1823.00,1.8837
1822.00,1.9180
1821.00,1.9630
1820.00,2.0180
1819.00,2.0804
1818.00,2.1473
1817.00,2.2165
1816.00,2.2866
1815.00,2.3559
1814.00,2.4230
1813.00,2.4870
1812.00,2.5457
1811.00,2.5979
1810.00,2.6436
1809.00,2.6833
1808.00,2.7176
1807.00,2.7469
1806.00,2.7728
1805.00,2.7973
1804.00,2.8226
1803.00,2.8504
1802.00,2.8796
1801.00,2.9056
1800.00,2.9259
1799.00,2.9441
1798.00,2.9661
1797.00,2.9921
1796.00,3.0164
1795.00,3.0347
1794.00,3.0499
1793.00,3.0660
1792.00,3.0814
1791.00,3.0948
1790.00,3.1077
1789.00,3.1197
1788.00,3.1281
1787.00,3.1323
1786.00,3.1355
1785.00,3.1416
1784.00,3.1521
1783.00,3.1637
1782.00,3.1718
1781.00,3.1721
1780.00,3.1644
1779.00,3.1545
1778.00,3.1490
1777.00,3.1496
1776.00,3.1519
1775.00,3.1501
1774.00,3.1440
1773.00,3.1357
1772.00,3.1232
1771.00,3.1060
1770.00,3.0864
1769.00,3.0669
1768.00,3.0519
1767.00,3.0430
1766.00,3.0352
1765.00,3.0204
1764.00,2.9957
1763.00,2.9648
1762.00,2.9344
1761.00,2.9104
1760.00,2.8954
1759.00,2.8893
1758.00,2.8935
1757.00,2.9135
1756.00,2.9520
1755.00,3.0047
1754.00,3.0651
1753.00,3.1329
1752.00,3.2120
1751.00,3.3013
1750.00,3.3903
1749.00,3.4704
1748.00,3.5403
1747.00,3.6002
1746.00,3.6526
1745.00,3.7048
1744.00,3.7642
1743.00,3.8341
1742.00,3.9085
1741.00,3.9742
1740.00,4.0289
1739.00,4.0834
1738.00,4.1441
1737.00,4.2026
1736.00,4.2404
1735.00,4.2666
1734.00,4.3132
1733.00,4.3715
1732.00,4.4180
1731.00,4.4981
1730.00,4.6952
1729.00,5.0447
1728.00,5.3741
1727.00,5.1512
1726.00,4.8724
1725.00,4.8035
1724.00,4.8072
1723.00,4.7473
1722.00,4.6232
1721.00,4.5297
1720.00,4.5087
1719.00,4.5676
1718.00,4.6582
1717.00,4.6043
1716.00,4.3976
1715.00,4.2486
1714.00,4.2222
1713.00,4.3079
1712.00,4.4515
1711.00,4.5460
1710.00,4.5708
1709.00,4.6514
1708.00,4.9277
1707.00,4.9451
1706.00,4.6283
1705.00,4.5642
1704.00,4.6582
1703.00,4.7720
1702.00,4.7435
1701.00,4.8249
1700.00,4.9952
1699.00,4.7416
1698.00,4.5621
1697.00,4.6075
1696.00,4.8918
1695.00,4.5497
1694.00,4.2344
1693.00,4.1136
1692.00,4.0303
1691.00,3.9650
1690.00,3.9114
1689.00,3.8625
1688.00,3.8146
1687.00,3.7672
1686.00,3.7229
1685.00,3.6786
1684.00,3.6197
1683.00,3.5569
1682.00,3.5055
1681.00,3.4623
1680.00,3.4235
1679.00,3.3854
1678.00,3.3423
1677.00,3.2929
1676.00,3.2488
1675.00,3.2231
1674.00,3.2145
1673.00,3.2093
1672.00,3.1988
1671.00,3.1854
1670.00,3.1720
1669.00,3.1631
1668.00,3.1657
1667.00,3.1815
1666.00,3.2054
1665.00,3.2301
1664.00,3.2505
1663.00,3.2627
1662.00,3.2683
1661.00,3.2756
1660.00,3.2888
1659.00,3.3068
1658.00,3.3252
1657.00,3.3386
1656.00,3.3424
1655.00,3.3405
1654.00,3.3326
1653.00,3.3137
1652.00,3.3077
1651.00,3.3130
1650.00,3.3166
1649.00,3.3191
1648.00,3.3133
1647.00,3.2876
1646.00,3.2528
1645.00,3.2268
1644.00,3.2094
1643.00,3.1946
1642.00,3.1799
1641.00,3.1657
1640.00,3.1533
1639.00,3.1439
1638.00,3.1320
1637.00,3.1075
1636.00,3.0635
1635.00,3.0195
1634.00,2.9947
1633.00,2.9791
1632.00,2.9576
1631.00,2.9259
1630.00,2.8868
1629.00,2.8430
1628.00,2.7958
1627.00,2.7470
1626.00,2.6977
1625.00,2.6470
1624.00,2.5939
1623.00,2.5392
1622.00,2.4888
1621.00,2.4469
1620.00,2.4124
1619.00,2.3828
1618.00,2.3564
1617.00,2.3314
1616.00,2.3103
1615.00,2.2992
1614.00,2.3001
1613.00,2.3125
1612.00,2.3371
1611.00,2.3721
1610.00,2.4139
1609.00,2.4589
1608.00,2.5060
1607.00,2.5548
1606.00,2.6045
1605.00,2.6547
1604.00,2.7035
1603.00,2.7484
1602.00,2.7875
1601.00,2.8222
1600.00,2.8552
1599.00,2.8887
1598.00,2.9240
1597.00,2.9607
1596.00,2.9963
1595.00,3.0276
1594.00,3.0543
1593.00,3.0780
1592.00,3.0989
1591.00,3.1154
1590.00,3.1282
1589.00,3.1403
1588.00,3.1522
1587.00,3.1605
1586.00,3.1649
1585.00,3.1719
1584.00,3.1861
1583.00,3.2033
1582.00,3.2175
1581.00,3.2307
1580.00,3.2485
1579.00,3.2719
1578.00,3.2954
1577.00,3.3108
1576.00,3.3146
1575.00,3.3131
1574.00,3.3122
1573.00,3.3145
1572.00,3.3207
1571.00,3.3262
1570.00,3.3204
1569.00,3.3045
1568.00,3.2955
1567.00,3.3009
1566.00,3.3142
1565.00,3.3265
1564.00,3.3323
1563.00,3.3269
1562.00,3.3098
1561.00,3.2922
1560.00,3.2984
1559.00,3.2845
1558.00,3.2464
1557.00,3.2256
1556.00,3.2174
1555.00,3.2109
1554.00,3.2041
1553.00,3.1966
1552.00,3.1873
1551.00,3.1744
1550.00,3.1542
1549.00,3.1272
1548.00,3.0984
1547.00,3.0719
1546.00,3.0513
1545.00,3.0369
1544.00,3.0236
1543.00,3.0091
1542.00,2.9939
1541.00,2.9649
1540.00,2.9014
1539.00,2.8273
1538.00,2.7677
1537.00,2.7167
1536.00,2.6662
1535.00,2.6135
1534.00,2.5556
1533.00,2.4906
1532.00,2.4256
1531.00,2.3651
1530.00,2.3069
1529.00,2.2505
1528.00,2.1970
1527.00,2.1477
1526.00,2.1067
1525.00,2.0797
1524.00,2.0664
1523.00,2.0634
1522.00,2.0669
1521.00,2.0803
1520.00,2.1108
1519.00,2.1550
1518.00,2.2065
1517.00,2.2617
1516.00,2.3196
1515.00,2.3799
1514.00,2.4409
1513.00,2.5057
1512.00,2.5796
1511.00,2.6596
1510.00,2.7393
1509.00,2.8147
1508.00,2.8746
1507.00,2.8898
1506.00,2.8923
1505.00,2.9245
1504.00,2.9681
1503.00,3.0047
1502.00,3.0363
1501.00,3.0660
1500.00,3.0926
1499.00,3.1132
1498.00,3.1294
1497.00,3.1427
1496.00,3.1545
1495.00,3.1653
1494.00,3.1769
1493.00,3.1941
1492.00,3.2227
1491.00,3.2643
1490.00,3.3080
1489.00,3.3380
1488.00,3.3473
1487.00,3.3428
1486.00,3.3394
1485.00,3.3465
1484.00,3.3600
1483.00,3.3736
1482.00,3.3895
1481.00,3.4110
1480.00,3.4316
1479.00,3.4415
1478.00,3.4429
1477.00,3.4443
1476.00,3.4477
1475.00,3.4504
1474.00,3.4537
1473.00,3.4556
1472.00,3.4508
1471.00,3.4400
1470.00,3.4284
1469.00,3.4192
1468.00,3.4119
1467.00,3.4081
1466.00,3.4167
1465.00,3.4457
1464.00,3.4886
1463.00,3.5246
1462.00,3.5405
1461.00,3.5471
1460.00,3.5579
1459.00,3.5738
1458.00,3.5917
1457.00,3.6236
1456.00,3.6935
1455.00,3.7911
1454.00,3.8909
1453.00,3.9914
1452.00,4.1072
1451.00,4.2311
1450.00,4.3266
1449.00,4.3643
1448.00,4.2808
1447.00,4.1469
1446.00,4.0343
1445.00,3.9328
1444.00,3.8385
1443.00,3.7570
1442.00,3.6964
1441.00,3.6614
1440.00,3.6438
1439.00,3.6271
1438.00,3.6030
1437.00,3.5829
1436.00,3.5859
1435.00,3.6171
1434.00,3.6674
1433.00,3.7263
1432.00,3.7859
1431.00,3.8417
1430.00,3.8910
1429.00,3.9276
1428.00,3.9430
1427.00,3.9284
1426.00,3.9032
1425.00,3.9127
1424.00,3.9695
1423.00,4.0329
1422.00,4.0471
1421.00,4.0052
1420.00,3.9481
1419.00,3.9067
1418.00,3.8751
1417.00,3.8309
1416.00,3.7627
1415.00,3.6831
1414.00,3.6131
1413.00,3.5583
1412.00,3.5092
1411.00,3.4604
1410.00,3.4179
1409.00,3.3859
1408.00,3.3597
1407.00,3.3303
1406.00,3.2923
1405.00,3.2474
1404.00,3.2021
1403.00,3.1626
1402.00,3.1294
1401.00,3.1009
1400.00,3.0755
1399.00,3.0496
1398.00,3.0197
1397.00,2.9839
1396.00,2.9423
1395.00,2.8979
1394.00,2.8565
1393.00,2.8215
1392.00,2.7915
1391.00,2.7655
1390.00,2.7451
1389.00,2.7316
1388.00,2.7239
1387.00,2.7209
1386.00,2.7249
1385.00,2.7386
1384.00,2.7623
1383.00,2.7945
1382.00,2.8325
1381.00,2.8731
1380.00,2.9148
1379.00,2.9587
1378.00,3.0055
1377.00,3.0537
1376.00,3.1009
1375.00,3.1437
1374.00,3.1802
1373.00,3.2122
1372.00,3.2420
1371.00,3.2678
1370.00,3.2874
1369.00,3.3026
1368.00,3.3191
1367.00,3.3435
1366.00,3.3772
1365.00,3.4153
1364.00,3.4491
1363.00,3.4723
1362.00,3.4870
1361.00,3.5027
1360.00,3.5253
1359.00,3.5522
1358.00,3.5772
1357.00,3.5962
1356.00,3.6097
1355.00,3.6249
1354.00,3.6540
1353.00,3.7005
1352.00,3.7540
1351.00,3.8025
1350.00,3.8386
1349.00,3.8581
1348.00,3.8624
1347.00,3.8526
1346.00,3.8283
1345.00,3.8015
1344.00,3.7895
1343.00,3.7982
1342.00,3.8257
1341.00,3.8686
1340.00,3.9206
1339.00,3.9738
1338.00,4.0116
1337.00,3.9957
1336.00,3.9187
1335.00,3.8340
1334.00,3.7734
1333.00,3.7338
1332.00,3.7089
1331.00,3.6995
1330.00,3.7028
1329.00,3.7024
1328.00,3.6837
1327.00,3.6543
1326.00,3.6331
1325.00,3.6268
1324.00,3.6276
1323.00,3.6326
1322.00,3.6534
1321.00,3.6976
1320.00,3.7533
1319.00,3.8001
1318.00,3.8392
1317.00,3.8945
1316.00,3.9756
1315.00,4.0448
1314.00,4.0564
1313.00,4.0384
1312.00,4.0354
1311.00,4.0545
1310.00,4.0902
1309.00,4.1460
1308.00,4.1754
1307.00,4.1071
1306.00,4.0017
1305.00,3.9094
1304.00,3.8309
1303.00,3.7776
1302.00,3.7568
1301.00,3.7553
1300.00,3.7430
1299.00,3.7027
1298.00,3.6536
1297.00,3.6237
1296.00,3.6189
1295.00,3.6183
1294.00,3.5949
1293.00,3.5510
1292.00,3.5143
1291.00,3.5008
1290.00,3.4998
1289.00,3.4844
1288.00,3.4423
1287.00,3.3888
1286.00,3.3431
1285.00,3.3098
1284.00,3.2836
1283.00,3.2586
1282.00,3.2328
1281.00,3.2053
1280.00,3.1747
1279.00,3.1398
1278.00,3.1013
1277.00,3.0622
1276.00,3.0283
1275.00,3.0057
1274.00,2.9988
1273.00,3.0071
1272.00,3.0263
1271.00,3.0500
1270.00,3.0733
1269.00,3.0954
1268.00,3.1191
1267.00,3.1474
1266.00,3.1791
1265.00,3.2074
1264.00,3.2251
1263.00,3.2324
1262.00,3.2358
1261.00,3.2404
1260.00,3.2461
1259.00,3.2533
1258.00,3.2678
1257.00,3.2953
1256.00,3.3344
1255.00,3.3749
1254.00,3.4043
1253.00,3.4199
1252.00,3.4332
1251.00,3.4574
1250.00,3.4969
1249.00,3.5452
1248.00,3.5859
1247.00,3.6066
1246.00,3.6144
1245.00,3.6300
1244.00,3.6667
1243.00,3.7217
1242.00,3.7769
1241.00,3.8114
1240.00,3.8260
1239.00,3.8402
1238.00,3.8680
1237.00,3.9154
1236.00,3.9813
1235.00,4.0474
1234.00,4.0793
1233.00,4.0562
1232.00,4.0141
1231.00,4.0136
1230.00,4.0819
1229.00,4.1955
1228.00,4.3091
1227.00,4.4169
1226.00,4.5540
1225.00,4.6935
1224.00,4.6428
1223.00,4.5262
1222.00,4.4911
1221.00,4.4923
1220.00,4.6335
1219.00,4.6408
1218.00,4.3309
1217.00,4.1340
1216.00,3.9888
1215.00,3.8811
1214.00,3.8343
1213.00,3.8289
1212.00,3.8369
1211.00,3.8307
1210.00,3.8036
1209.00,3.7665
1208.00,3.7421
1207.00,3.7478
1206.00,3.7843
1205.00,3.8322
1204.00,3.8719
1203.00,3.9093
1202.00,3.9508
1201.00,3.9685
1200.00,3.9394
1199.00,3.9052
1198.00,3.9163
1197.00,3.9699
1196.00,4.0101
1195.00,4.0014
1194.00,3.9834
1193.00,3.9991
1192.00,4.0239
1191.00,3.9850
1190.00,3.9000
1189.00,3.8346
1188.00,3.8104
1187.00,3.8347
1186.00,3.9079
1185.00,3.9848
1184.00,3.9985
1183.00,3.9831
1182.00,3.9794
1181.00,3.9695
1180.00,3.9516
1179.00,3.9433
1178.00,3.9668
1177.00,4.0322
1176.00,4.1068
1175.00,4.1342
1174.00,4.0630
1173.00,3.9373
1172.00,3.8551
1171.00,3.8356
1170.00,3.8417
1169.00,3.8291
1168.00,3.7942
1167.00,3.7652
1166.00,3.7534
1165.00,3.7460
1164.00,3.7289
1163.00,3.7095
1162.00,3.6955
1161.00,3.6724
1160.00,3.6261
1159.00,3.5766
1158.00,3.5518
1157.00,3.5511
1156.00,3.5576
1155.00,3.5656
1154.00,3.5803
1153.00,3.6015
1152.00,3.6145
1151.00,3.6049
1150.00,3.5739
1149.00,3.5300
1148.00,3.4778
1147.00,3.4226
1146.00,3.3786
1145.00,3.3566
1144.00,3.3554
1143.00,3.3673
1142.00,3.3827
1141.00,3.3917
1140.00,3.3923
1139.00,3.3947
1138.00,3.4103
1137.00,3.4393
1136.00,3.4722
1135.00,3.5053
1134.00,3.5514
1133.00,3.6226
1132.00,3.7036
1131.00,3.7684
1130.00,3.8327
1129.00,3.8845
1128.00,3.8684
1127.00,3.8355
1126.00,3.8590
1125.00,3.9426
1124.00,4.0513
1123.00,4.0999
1122.00,4.0212
1121.00,3.9192
1120.00,3.8776
1119.00,3.9034
1118.00,3.9671
1117.00,3.9721
1116.00,3.8935
1115.00,3.8232
1114.00,3.7867
1113.00,3.7511
1112.00,3.6922
1111.00,3.6259
1110.00,3.5788
1109.00,3.5607
1108.00,3.5630
1107.00,3.5682
1106.00,3.5667
1105.00,3.5603
1104.00,3.5572
1103.00,3.5604
1102.00,3.5669
1101.00,3.5794
1100.00,3.6063
1099.00,3.6476
1098.00,3.6927
1097.00,3.7283
1096.00,3.7471
1095.00,3.7577
1094.00,3.7831
1093.00,3.8262
1092.00,3.8456
1091.00,3.8119
1090.00,3.8065
1089.00,3.8885
1088.00,4.1374
1087.00,4.5582
1086.00,4.4731
1085.00,4.3694
1084.00,4.2691
1083.00,4.0555
1082.00,3.9115
1081.00,3.8506
1080.00,3.8657
1079.00,3.9224
1078.00,3.9767
1077.00,3.9590
1076.00,3.9140
1075.00,3.9743
1074.00,4.2012
1073.00,4.5497
1072.00,4.6309
1071.00,4.4327
1070.00,4.3711
1069.00,4.2561
1068.00,4.0222
1067.00,3.9099
1066.00,3.9155
1065.00,3.9694
1064.00,4.0259
1063.00,4.1352
1062.00,4.4258
1061.00,4.4586
1060.00,4.2006
1059.00,4.1294
1058.00,4.2338
1057.00,4.4716
1056.00,4.4394
1055.00,4.3308
1054.00,4.4036
1053.00,4.4502
1052.00,4.4178
1051.00,4.4351
1050.00,4.6184
1049.00,4.9726
1048.00,5.2324
1047.00,5.2379
1046.00,4.8224
1045.00,4.5341
1044.00,4.3400
1043.00,4.2174
1042.00,4.1733
1041.00,4.1252
1040.00,4.0638
1039.00,4.0033
1038.00,3.9422
1037.00,3.9122
1036.00,3.9189
1035.00,3.9292
1034.00,3.9178
1033.00,3.8713
1032.00,3.8120
1031.00,3.7867
1030.00,3.8240
1029.00,3.9338
1028.00,4.0995
1027.00,4.2119
1026.00,4.1188
1025.00,3.9207
1024.00,3.7704
1023.00,3.7086
1022.00,3.7488
1021.00,3.8901
1020.00,4.1493
1019.00,4.4014
1018.00,4.2820
1017.00,4.1696
1016.00,4.1445
1015.00,4.0851
1014.00,3.9684
1013.00,3.8562
1012.00,3.7997
1011.00,3.7903
1010.00,3.7866
1009.00,3.7310
1008.00,3.6260
1007.00,3.5231
1006.00,3.4562
1005.00,3.4345
1004.00,3.4522
1003.00,3.4920
1002.00,3.5282
1001.00,3.5455
1000.00,3.5652
999.00,3.6226
998.00,3.7261
997.00,3.8311
996.00,3.8610
995.00,3.8365
994.00,3.8392
993.00,3.8867
992.00,3.9386
991.00,3.9542
990.00,3.9522
989.00,3.9616
988.00,3.9652
987.00,3.9643
986.00,3.9877
985.00,4.0308
984.00,4.0379
983.00,3.9826
982.00,3.9510
981.00,4.0162
980.00,4.1899
979.00,4.4172
978.00,4.5083
977.00,4.4432
976.00,4.3806
975.00,4.2733
974.00,4.1423
973.00,4.0887
972.00,4.1874
971.00,4.5525
970.00,4.6508
969.00,4.3049
968.00,4.2350
967.00,4.3077
966.00,4.4117
965.00,4.4660
964.00,4.4759
963.00,4.3715
962.00,4.1891
961.00,4.1268
960.00,4.2333
959.00,4.3325
958.00,4.2296
957.00,4.2082
956.00,4.2947
955.00,4.2730
954.00,4.1227
953.00,4.0104
952.00,3.9949
951.00,4.0854
950.00,4.2801
949.00,4.4515
948.00,4.4505
947.00,4.3679
946.00,4.2490
945.00,4.1309
944.00,4.0522
943.00,4.0273
942.00,4.0590
941.00,4.1396
940.00,4.2514
939.00,4.3047
938.00,4.2304
937.00,4.1628
936.00,4.1813
935.00,4.3316
934.00,4.7671
933.00,4.8950
932.00,4.4713
931.00,4.3201
930.00,4.2799
929.00,4.3322
928.00,4.4589
927.00,4.4478
926.00,4.2389
925.00,4.0471
924.00,3.9310
923.00,3.8703
922.00,3.8560
921.00,3.8892
920.00,3.9507
919.00,3.9983
918.00,4.0103
917.00,4.0389
916.00,4.1264
915.00,4.3780
914.00,4.9154
913.00,4.8264
912.00,4.6561
911.00,4.5932
910.00,4.4360
909.00,4.2746
908.00,4.1833
907.00,4.1604
906.00,4.1105
905.00,4.0795
904.00,4.1572
903.00,4.3228
902.00,4.3388
901.00,4.1876
900.00,4.1295
899.00,4.1987
898.00,4.2360
897.00,4.1705
896.00,4.1149
895.00,4.0518
894.00,3.9803
893.00,3.9342
892.00,3.9264
891.00,3.9783
890.00,4.0783
889.00,4.1300
888.00,4.1368
887.00,4.1760
886.00,4.2201
885.00,4.2661
884.00,4.4051
883.00,4.5030
882.00,4.2841
881.00,4.1578
880.00,4.2432
879.00,4.5779
878.00,4.9726
877.00,4.6625
876.00,4.3029
875.00,3.9976
874.00,3.7950
873.00,3.6868
872.00,3.6458
871.00,3.6601
870.00,3.7220
869.00,3.8512
868.00,4.0726
867.00,4.4739
866.00,4.9407
865.00,4.6314
864.00,4.4430
863.00,4.2180
862.00,4.0479
861.00,4.0120
860.00,4.1085
859.00,4.3116
858.00,4.3339
857.00,4.2130
856.00,4.1352
855.00,4.1203
854.00,4.1671
853.00,4.2230
852.00,4.2216
851.00,4.1349
850.00,4.0251
849.00,3.9307
848.00,3.8531
847.00,3.8204
846.00,3.8615
845.00,3.9898
844.00,4.1956
843.00,4.5180
842.00,4.7922
841.00,4.5277
840.00,4.3190
839.00,4.1566
838.00,4.0310
837.00,3.9784
836.00,3.9793
835.00,3.9536
834.00,3.9470
833.00,4.0027
832.00,4.2300
831.00,4.5321
830.00,4.0963
829.00,3.8840
828.00,3.8784
827.00,3.9458
826.00,4.0627
825.00,4.2004
824.00,4.1062
823.00,3.9555
822.00,3.9205
821.00,3.9534
820.00,4.0233
819.00,4.2661
818.00,4.7024
817.00,4.2886
816.00,4.1428
815.00,4.2128
814.00,4.2433
813.00,4.2204
812.00,4.1823
811.00,4.1359
810.00,4.0677
809.00,4.0599
808.00,4.1439
807.00,4.2150
806.00,4.0995
805.00,3.9204
804.00,3.7999
803.00,3.7692
802.00,3.8116
801.00,3.9038
800.00,4.0086
799.00,4.1811
798.00,4.4460
797.00,4.2014
796.00,3.9172
795.00,3.7956
794.00,3.7550
793.00,3.7861
792.00,3.8988
791.00,4.1613
790.00,4.7201
789.00,4.7089
788.00,4.4064
787.00,4.3065
786.00,4.5782
785.00,5.0117
784.00,4.8162
783.00,4.9831
782.00,4.1888
781.00,3.9269
780.00,3.8455
779.00,3.7748
778.00,3.7391
777.00,3.7609
776.00,3.8866
775.00,4.0786
774.00,4.1822
773.00,4.0995
772.00,4.1778
771.00,4.6743
770.00,4.4634
769.00,4.1407
768.00,4.0926
767.00,4.1081
766.00,4.1791
765.00,4.3261
764.00,4.5420
763.00,4.4610
762.00,4.1943
761.00,4.0797
760.00,4.1528
759.00,4.3569
758.00,4.2940
757.00,4.0993
756.00,3.9814
755.00,3.8748
754.00,3.7700
753.00,3.6868
752.00,3.6407
751.00,3.6219
750.00,3.6134
749.00,3.6382
748.00,3.7501
747.00,3.9881
746.00,4.1229
745.00,4.2156
744.00,4.4581
743.00,4.0832
742.00,3.8352
741.00,3.7633
740.00,3.7908
739.00,3.9224
738.00,4.1159
737.00,4.4068
736.00,4.5110
735.00,4.2222
734.00,4.0898
733.00,4.1524
732.00,4.4251
731.00,4.4527
730.00,4.2776
729.00,4.3735
728.00,4.6688
727.00,4.9326
726.00,4.4032
725.00,4.0015
724.00,3.8090
723.00,3.7318
722.00,3.7486
721.00,3.8343
720.00,3.8917
719.00,3.9266
718.00,4.0535
717.00,4.4043
716.00,4.8630
715.00,4.3459
714.00,3.9996
713.00,3.7739
712.00,3.6492
711.00,3.6420
710.00,3.7448
709.00,3.9410
708.00,4.1209
707.00,4.0467
706.00,3.8683
705.00,3.7796
704.00,3.7791
703.00,3.8375
702.00,3.9171
701.00,3.9809
700.00,4.0218
