Created as New Dataset,Sample 077 By Administrator Date Wednesday, November 24 2021
cm-1,A
7502.00,1.1315
7501.00,1.1217
7500.00,1.1121
7499.00,1.1028
7498.00,1.0936
7497.00,1.0846
7496.00,1.0758
7495.00,1.0672
7494.00,1.0587
7493.00,1.0513
7492.00,1.0459
7491.00,1.0432
7490.00,1.0418
7489.00,1.0399
7488.00,1.0359
7487.00,1.0294
7486.00,1.0206
7485.00,1.0094
7484.00,0.9965
7483.00,0.9836
7482.00,0.9723
7481.00,0.9634
7480.00,0.9566
7479.00,0.9510
7478.00,0.9457
7477.00,0.9405
7476.00,0.9355
7475.00,0.9305
7474.00,0.9254
7473.00,0.9199
7472.00,0.9139
7471.00,0.9075
7470.00,0.9007
7469.00,0.8933
7468.00,0.8854
7467.00,0.8771
7466.00,0.8687
7465.00,0.8601
7464.00,0.8513
7463.00,0.8422
7462.00,0.8330
7461.00,0.8239
7460.00,0.8151
7459.00,0.8066
7458.00,0.7986
7457.00,0.7914
7456.00,0.7854
7455.00,0.7803
7454.00,0.7757
7453.00,0.7711
7452.00,0.7667
7451.00,0.7627
7450.00,0.7592
7449.00,0.7561
7448.00,0.7536
7447.00,0.7517
7446.00,0.7506
7445.00,0.7506
7444.00,0.7515
7443.00,0.7531
7442.00,0.7549
7441.00,0.7569
7440.00,0.7592
7439.00,0.7622
7438.00,0.7660
7437.00,0.7703
7436.00,0.7749
7435.00,0.7799
7434.00,0.7856
7433.00,0.7921
7432.00,0.7993
7431.00,0.8072
7430.00,0.8156
7429.00,0.8245
7428.00,0.8337
7427.00,0.8432
7426.00,0.8531
7425.00,0.8630
7424.00,0.8728
7423.00,0.8826
7422.00,0.8924
7421.00,0.9025
7420.00,0.9128
7419.00,0.9232
7418.00,0.9337
7417.00,0.9441
7416.00,0.9541
7415.00,0.9636
7414.00,0.9727
7413.00,0.9819
7412.00,0.9917
7411.00,1.0020
7410.00,1.0123
7409.00,1.0222
7408.00,1.0318
7407.00,1.0415
7406.00,1.0511
7405.00,1.0602
7404.00,1.0686
7403.00,1.0763
7402.00,1.0838
7401.00,1.0915
7400.00,1.0991
7399.00,1.1064
7398.00,1.1132
7397.00,1.1195
7396.00,1.1258
7395.00,1.1321
7394.00,1.1384
7393.00,1.1443
7392.00,1.1497
7391.00,1.1548
7390.00,1.1599
7389.00,1.1648
7388.00,1.1692
7387.00,1.1731
7386.00,1.1769
7385.00,1.1810
7384.00,1.1849
7383.00,1.1877
7382.00,1.1891
7381.00,1.1899
7380.00,1.1905
7379.00,1.1910
7378.00,1.1908
7377.00,1.1900
7376.00,1.1890
7375.00,1.1881
7374.00,1.1871
7373.00,1.1856
7372.00,1.1834
7371.00,1.1803
7370.00,1.1765
7369.00,1.1726
7368.00,1.1687
7367.00,1.1646
7366.00,1.1597
7365.00,1.1539
7364.00,1.1479
7363.00,1.1421
7362.00,1.1364
7361.00,1.1307
7360.00,1.1251
7359.00,1.1192
7358.00,1.1125
7357.00,1.1051
7356.00,1.0969
7355.00,1.0883
7354.00,1.0791
7353.00,1.0693
7352.00,1.0591
7351.00,1.0487
7350.00,1.0385
7349.00,1.0283
7348.00,1.0179
7347.00,1.0071
7346.00,0.9958
7345.00,0.9843
7344.00,0.9730
7343.00,0.9618
7342.00,0.9507
7341.00,0.9395
7340.00,0.9284
7339.00,0.9176
7338.00,0.9070
7337.00,0.8965
7336.00,0.8863
7335.00,0.8764
7334.00,0.8667
7333.00,0.8571
7332.00,0.8477
7331.00,0.8389
7330.00,0.8305
7329.00,0.8224
7328.00,0.8146
7327.00,0.8072
7326.00,0.8002
7325.00,0.7935
7324.00,0.7874
7323.00,0.7821
7322.00,0.7774
7321.00,0.7731
7320.00,0.7696
7319.00,0.7671
7318.00,0.7656
7317.00,0.7650
7316.00,0.7649
7315.00,0.7654
7314.00,0.7665
7313.00,0.7683
7312.00,0.7707
7311.00,0.7738
7310.00,0.7772
7309.00,0.7809
7308.00,0.7849
7307.00,0.7896
7306.00,0.7953
7305.00,0.8018
7304.00,0.8088
7303.00,0.8162
7302.00,0.8240
7301.00,0.8323
7300.00,0.8410
7299.00,0.8501
7298.00,0.8593
7297.00,0.8686
7296.00,0.8781
7295.00,0.8875
7294.00,0.8971
7293.00,0.9065
7292.00,0.9157
7291.00,0.9246
7290.00,0.9332
7289.00,0.9418
7288.00,0.9509
7287.00,0.9608
7286.00,0.9711
7285.00,0.9812
7284.00,0.9906
7283.00,0.9995
7282.00,1.0082
7281.00,1.0169
7280.00,1.0251
7279.00,1.0326
7278.00,1.0400
7277.00,1.0478
7276.00,1.0564
7275.00,1.0649
7274.00,1.0724
7273.00,1.0788
7272.00,1.0847
7271.00,1.0908
7270.00,1.0972
7269.00,1.1034
7268.00,1.1089
7267.00,1.1139
7266.00,1.1186
7265.00,1.1234
7264.00,1.1281
7263.00,1.1328
7262.00,1.1373
7261.00,1.1416
7260.00,1.1462
7259.00,1.1511
7258.00,1.1558
7257.00,1.1593
7256.00,1.1608
7255.00,1.1609
7254.00,1.1601
7253.00,1.1588
7252.00,1.1571
7251.00,1.1549
7250.00,1.1530
7249.00,1.1515
7248.00,1.1503
7247.00,1.1493
7246.00,1.1484
7245.00,1.1476
7244.00,1.1466
7243.00,1.1453
7242.00,1.1439
7241.00,1.1423
7240.00,1.1399
7239.00,1.1367
7238.00,1.1327
7237.00,1.1283
7236.00,1.1234
7235.00,1.1175
7234.00,1.1107
7233.00,1.1035
7232.00,1.0965
7231.00,1.0898
7230.00,1.0835
7229.00,1.0776
7228.00,1.0721
7227.00,1.0664
7226.00,1.0596
7225.00,1.0515
7224.00,1.0425
7223.00,1.0329
7222.00,1.0230
7221.00,1.0130
7220.00,1.0030
7219.00,0.9930
7218.00,0.9831
7217.00,0.9733
7216.00,0.9633
7215.00,0.9529
7214.00,0.9420
7213.00,0.9311
7212.00,0.9204
7211.00,0.9103
7210.00,0.9006
7209.00,0.8908
7208.00,0.8808
7207.00,0.8707
7206.00,0.8608
7205.00,0.8511
7204.00,0.8416
7203.00,0.8326
7202.00,0.8242
7201.00,0.8165
7200.00,0.8090
7199.00,0.8017
7198.00,0.7946
7197.00,0.7882
7196.00,0.7827
7195.00,0.7779
7194.00,0.7737
7193.00,0.7701
7192.00,0.7670
7191.00,0.7646
7190.00,0.7627
7189.00,0.7612
7188.00,0.7604
7187.00,0.7604
7186.00,0.7614
7185.00,0.7632
7184.00,0.7660
7183.00,0.7696
7182.00,0.7742
7181.00,0.7792
7180.00,0.7844
7179.00,0.7899
7178.00,0.7959
7177.00,0.8025
7176.00,0.8096
7175.00,0.8171
7174.00,0.8251
7173.00,0.8337
7172.00,0.8427
7171.00,0.8519
7170.00,0.8611
7169.00,0.8706
7168.00,0.8803
7167.00,0.8902
7166.00,0.9000
7165.00,0.9099
7164.00,0.9201
7163.00,0.9307
7162.00,0.9414
7161.00,0.9520
7160.00,0.9625
7159.00,0.9729
7158.00,0.9835
7157.00,0.9942
7156.00,1.0047
7155.00,1.0149
7154.00,1.0247
7153.00,1.0345
7152.00,1.0445
7151.00,1.0548
7150.00,1.0651
7149.00,1.0747
7148.00,1.0836
7147.00,1.0921
7146.00,1.1004
7145.00,1.1083
7144.00,1.1156
7143.00,1.1224
7142.00,1.1289
7141.00,1.1357
7140.00,1.1429
7139.00,1.1501
7138.00,1.1567
7137.00,1.1627
7136.00,1.1683
7135.00,1.1742
7134.00,1.1802
7133.00,1.1857
7132.00,1.1898
7131.00,1.1926
7130.00,1.1950
7129.00,1.1973
7128.00,1.1995
7127.00,1.2010
7126.00,1.2020
7125.00,1.2034
7124.00,1.2058
7123.00,1.2086
7122.00,1.2107
7121.00,1.2113
7120.00,1.2107
7119.00,1.2090
7118.00,1.2062
7117.00,1.2025
7116.00,1.1984
7115.00,1.1950
7114.00,1.1926
7113.00,1.1905
7112.00,1.1879
7111.00,1.1848
7110.00,1.1810
7109.00,1.1761
7108.00,1.1699
7107.00,1.1627
7106.00,1.1550
7105.00,1.1476
7104.00,1.1403
7103.00,1.1329
7102.00,1.1256
7101.00,1.1182
7100.00,1.1103
7099.00,1.1019
7098.00,1.0929
7097.00,1.0839
7096.00,1.0747
7095.00,1.0652
7094.00,1.0549
7093.00,1.0440
7092.00,1.0327
7091.00,1.0213
7090.00,1.0100
7089.00,0.9987
7088.00,0.9873
7087.00,0.9757
7086.00,0.9640
7085.00,0.9525
7084.00,0.9413
7083.00,0.9302
7082.00,0.9190
7081.00,0.9080
7080.00,0.8972
7079.00,0.8868
7078.00,0.8765
7077.00,0.8664
7076.00,0.8564
7075.00,0.8469
7074.00,0.8376
7073.00,0.8285
7072.00,0.8197
7071.00,0.8115
7070.00,0.8040
7069.00,0.7971
7068.00,0.7908
7067.00,0.7851
7066.00,0.7801
7065.00,0.7759
7064.00,0.7723
7063.00,0.7695
7062.00,0.7674
7061.00,0.7660
7060.00,0.7653
7059.00,0.7654
7058.00,0.7664
7057.00,0.7682
7056.00,0.7707
7055.00,0.7738
7054.00,0.7775
7053.00,0.7819
7052.00,0.7869
7051.00,0.7922
7050.00,0.7980
7049.00,0.8042
7048.00,0.8110
7047.00,0.8182
7046.00,0.8260
7045.00,0.8345
7044.00,0.8434
7043.00,0.8527
7042.00,0.8622
7041.00,0.8719
7040.00,0.8816
7039.00,0.8913
7038.00,0.9013
7037.00,0.9118
7036.00,0.9226
7035.00,0.9335
7034.00,0.9442
7033.00,0.9550
7032.00,0.9658
7031.00,0.9764
7030.00,0.9863
7029.00,0.9957
7028.00,1.0052
7027.00,1.0150
7026.00,1.0250
7025.00,1.0349
7024.00,1.0446
7023.00,1.0541
7022.00,1.0634
7021.00,1.0726
7020.00,1.0816
7019.00,1.0903
7018.00,1.0986
7017.00,1.1064
7016.00,1.1141
7015.00,1.1219
7014.00,1.1297
7013.00,1.1371
7012.00,1.1441
7011.00,1.1510
7010.00,1.1578
7009.00,1.1643
7008.00,1.1699
7007.00,1.1745
7006.00,1.1782
7005.00,1.1814
7004.00,1.1841
7003.00,1.1864
7002.00,1.1885
7001.00,1.1908
7000.00,1.1933
6999.00,1.1958
6998.00,1.1978
6997.00,1.1991
6996.00,1.1997
6995.00,1.1999
6994.00,1.2000
6993.00,1.2000
6992.00,1.1992
6991.00,1.1974
6990.00,1.1950
6989.00,1.1924
6988.00,1.1899
6987.00,1.1871
6986.00,1.1836
6985.00,1.1795
6984.00,1.1756
6983.00,1.1723
6982.00,1.1689
6981.00,1.1646
6980.00,1.1591
6979.00,1.1526
6978.00,1.1457
6977.00,1.1388
6976.00,1.1316
6975.00,1.1241
6974.00,1.1163
6973.00,1.1082
6972.00,1.1002
6971.00,1.0922
6970.00,1.0838
6969.00,1.0748
6968.00,1.0652
6967.00,1.0554
6966.00,1.0454
6965.00,1.0351
6964.00,1.0241
6963.00,1.0128
6962.00,1.0016
6961.00,0.9905
6960.00,0.9793
6959.00,0.9679
6958.00,0.9565
6957.00,0.9454
6956.00,0.9343
6955.00,0.9231
6954.00,0.9117
6953.00,0.9006
6952.00,0.8899
6951.00,0.8795
6950.00,0.8690
6949.00,0.8584
6948.00,0.8479
6947.00,0.8378
6946.00,0.8282
6945.00,0.8191
6944.00,0.8103
6943.00,0.8022
6942.00,0.7949
6941.00,0.7884
6940.00,0.7826
6939.00,0.7772
6938.00,0.7723
6937.00,0.7682
6936.00,0.7648
6935.00,0.7622
6934.00,0.7601
6933.00,0.7586
6932.00,0.7578
6931.00,0.7578
6930.00,0.7585
6929.00,0.7599
6928.00,0.7620
6927.00,0.7649
6926.00,0.7686
6925.00,0.7730
6924.00,0.7781
6923.00,0.7837
6922.00,0.7898
6921.00,0.7964
6920.00,0.8035
6919.00,0.8112
6918.00,0.8194
6917.00,0.8281
6916.00,0.8370
6915.00,0.8464
6914.00,0.8563
6913.00,0.8665
6912.00,0.8769
6911.00,0.8873
6910.00,0.8977
6909.00,0.9085
6908.00,0.9194
6907.00,0.9305
6906.00,0.9416
6905.00,0.9527
6904.00,0.9638
6903.00,0.9750
6902.00,0.9861
6901.00,0.9971
6900.00,1.0079
6899.00,1.0185
6898.00,1.0291
6897.00,1.0394
6896.00,1.0494
6895.00,1.0595
6894.00,1.0696
6893.00,1.0794
6892.00,1.0888
6891.00,1.0977
6890.00,1.1066
6889.00,1.1154
6888.00,1.1237
6887.00,1.1316
6886.00,1.1396
6885.00,1.1476
6884.00,1.1553
6883.00,1.1623
6882.00,1.1690
6881.00,1.1757
6880.00,1.1823
6879.00,1.1881
6878.00,1.1931
6877.00,1.1974
6876.00,1.2013
6875.00,1.2045
6874.00,1.2074
6873.00,1.2101
6872.00,1.2127
6871.00,1.2152
6870.00,1.2173
6869.00,1.2191
6868.00,1.2203
6867.00,1.2207
6866.00,1.2204
6865.00,1.2196
6864.00,1.2186
6863.00,1.2180
6862.00,1.2178
6861.00,1.2179
6860.00,1.2175
6859.00,1.2160
6858.00,1.2134
6857.00,1.2100
6856.00,1.2056
6855.00,1.2003
6854.00,1.1945
6853.00,1.1885
6852.00,1.1825
6851.00,1.1764
6850.00,1.1701
6849.00,1.1634
6848.00,1.1563
6847.00,1.1488
6846.00,1.1410
6845.00,1.1331
6844.00,1.1250
6843.00,1.1166
6842.00,1.1076
6841.00,1.0981
6840.00,1.0886
6839.00,1.0790
6838.00,1.0693
6837.00,1.0593
6836.00,1.0489
6835.00,1.0381
6834.00,1.0267
6833.00,1.0147
6832.00,1.0022
6831.00,0.9895
6830.00,0.9771
6829.00,0.9649
6828.00,0.9528
6827.00,0.9409
6826.00,0.9294
6825.00,0.9180
6824.00,0.9065
6823.00,0.8949
6822.00,0.8835
6821.00,0.8723
6820.00,0.8615
6819.00,0.8511
6818.00,0.8411
6817.00,0.8316
6816.00,0.8225
6815.00,0.8139
6814.00,0.8060
6813.00,0.7988
6812.00,0.7921
6811.00,0.7857
6810.00,0.7799
6809.00,0.7749
6808.00,0.7707
6807.00,0.7673
6806.00,0.7646
6805.00,0.7626
6804.00,0.7614
6803.00,0.7610
6802.00,0.7613
6801.00,0.7625
6800.00,0.7646
6799.00,0.7674
6798.00,0.7708
6797.00,0.7750
6796.00,0.7800
6795.00,0.7856
6794.00,0.7918
6793.00,0.7985
6792.00,0.8058
6791.00,0.8137
6790.00,0.8222
6789.00,0.8311
6788.00,0.8405
6787.00,0.8503
6786.00,0.8604
6785.00,0.8708
6784.00,0.8813
6783.00,0.8918
6782.00,0.9024
6781.00,0.9131
6780.00,0.9237
6779.00,0.9344
6778.00,0.9454
6777.00,0.9567
6776.00,0.9681
6775.00,0.9793
6774.00,0.9902
6773.00,1.0010
6772.00,1.0117
6771.00,1.0225
6770.00,1.0332
6769.00,1.0435
6768.00,1.0535
6767.00,1.0632
6766.00,1.0726
6765.00,1.0820
6764.00,1.0911
6763.00,1.1002
6762.00,1.1093
6761.00,1.1185
6760.00,1.1274
6759.00,1.1354
6758.00,1.1428
6757.00,1.1497
6756.00,1.1561
6755.00,1.1623
6754.00,1.1684
6753.00,1.1747
6752.00,1.1812
6751.00,1.1874
6750.00,1.1929
6749.00,1.1977
6748.00,1.2016
6747.00,1.2045
6746.00,1.2064
6745.00,1.2078
6744.00,1.2089
6743.00,1.2101
6742.00,1.2114
6741.00,1.2127
6740.00,1.2135
6739.00,1.2139
6738.00,1.2139
6737.00,1.2133
6736.00,1.2123
6735.00,1.2106
6734.00,1.2087
6733.00,1.2069
6732.00,1.2050
6731.00,1.2024
6730.00,1.1988
6729.00,1.1948
6728.00,1.1907
6727.00,1.1865
6726.00,1.1817
6725.00,1.1764
6724.00,1.1707
6723.00,1.1648
6722.00,1.1582
6721.00,1.1509
6720.00,1.1432
6719.00,1.1355
6718.00,1.1278
6717.00,1.1199
6716.00,1.1117
6715.00,1.1034
6714.00,1.0947
6713.00,1.0855
6712.00,1.0756
6711.00,1.0654
6710.00,1.0552
6709.00,1.0450
6708.00,1.0346
6707.00,1.0237
6706.00,1.0123
6705.00,1.0006
6704.00,0.9889
6703.00,0.9773
6702.00,0.9657
6701.00,0.9541
6700.00,0.9424
6699.00,0.9305
6698.00,0.9183
6697.00,0.9061
6696.00,0.8941
6695.00,0.8824
6694.00,0.8713
6693.00,0.8608
6692.00,0.8506
6691.00,0.8408
6690.00,0.8312
6689.00,0.8219
6688.00,0.8129
6687.00,0.8043
6686.00,0.7963
6685.00,0.7891
6684.00,0.7824
6683.00,0.7761
6682.00,0.7704
6681.00,0.7652
6680.00,0.7608
6679.00,0.7572
6678.00,0.7545
6677.00,0.7527
6676.00,0.7516
6675.00,0.7512
6674.00,0.7515
6673.00,0.7528
6672.00,0.7551
6671.00,0.7583
6670.00,0.7621
6669.00,0.7666
6668.00,0.7719
6667.00,0.7777
6666.00,0.7840
6665.00,0.7909
6664.00,0.7985
6663.00,0.8067
6662.00,0.8154
6661.00,0.8246
6660.00,0.8340
6659.00,0.8437
6658.00,0.8536
6657.00,0.8638
6656.00,0.8745
6655.00,0.8855
6654.00,0.8968
6653.00,0.9085
6652.00,0.9203
6651.00,0.9321
6650.00,0.9437
6649.00,0.9551
6648.00,0.9664
6647.00,0.9776
6646.00,0.9888
6645.00,0.9998
6644.00,1.0106
6643.00,1.0216
6642.00,1.0328
6641.00,1.0442
6640.00,1.0554
6639.00,1.0664
6638.00,1.0769
6637.00,1.0870
6636.00,1.0967
6635.00,1.1061
6634.00,1.1154
6633.00,1.1245
6632.00,1.1333
6631.00,1.1418
6630.00,1.1500
6629.00,1.1579
6628.00,1.1657
6627.00,1.1731
6626.00,1.1801
6625.00,1.1868
6624.00,1.1935
6623.00,1.2001
6622.00,1.2061
6621.00,1.2110
6620.00,1.2152
6619.00,1.2193
6618.00,1.2232
6617.00,1.2267
6616.00,1.2295
6615.00,1.2319
6614.00,1.2342
6613.00,1.2363
6612.00,1.2378
6611.00,1.2386
6610.00,1.2391
6609.00,1.2395
6608.00,1.2395
6607.00,1.2387
6606.00,1.2372
6605.00,1.2349
6604.00,1.2321
6603.00,1.2290
6602.00,1.2258
6601.00,1.2224
6600.00,1.2189
6599.00,1.2151
6598.00,1.2108
6597.00,1.2060
6596.00,1.2006
6595.00,1.1946
6594.00,1.1881
6593.00,1.1813
6592.00,1.1743
6591.00,1.1671
6590.00,1.1597
6589.00,1.1517
6588.00,1.1432
6587.00,1.1341
6586.00,1.1245
6585.00,1.1146
6584.00,1.1042
6583.00,1.0936
6582.00,1.0828
6581.00,1.0719
6580.00,1.0608
6579.00,1.0496
6578.00,1.0382
6577.00,1.0265
6576.00,1.0143
6575.00,1.0017
6574.00,0.9891
6573.00,0.9766
6572.00,0.9642
6571.00,0.9517
6570.00,0.9392
6569.00,0.9266
6568.00,0.9139
6567.00,0.9015
6566.00,0.8894
6565.00,0.8776
6564.00,0.8661
6563.00,0.8550
6562.00,0.8443
6561.00,0.8341
6560.00,0.8245
6559.00,0.8152
6558.00,0.8065
6557.00,0.7983
6556.00,0.7906
6555.00,0.7835
6554.00,0.7772
6553.00,0.7717
6552.00,0.7669
6551.00,0.7629
6550.00,0.7597
6549.00,0.7574
6548.00,0.7559
6547.00,0.7552
6546.00,0.7552
6545.00,0.7561
6544.00,0.7580
6543.00,0.7609
6542.00,0.7647
6541.00,0.7692
6540.00,0.7743
6539.00,0.7799
6538.00,0.7861
6537.00,0.7930
6536.00,0.8006
6535.00,0.8086
6534.00,0.8171
6533.00,0.8261
6532.00,0.8358
6531.00,0.8458
6530.00,0.8562
6529.00,0.8670
6528.00,0.8780
6527.00,0.8890
6526.00,0.9002
6525.00,0.9115
6524.00,0.9230
6523.00,0.9346
6522.00,0.9462
6521.00,0.9578
6520.00,0.9695
6519.00,0.9814
6518.00,0.9933
6517.00,1.0050
6516.00,1.0164
6515.00,1.0277
6514.00,1.0390
6513.00,1.0500
6512.00,1.0606
6511.00,1.0707
6510.00,1.0809
6509.00,1.0913
6508.00,1.1016
6507.00,1.1115
6506.00,1.1207
6505.00,1.1295
6504.00,1.1379
6503.00,1.1456
6502.00,1.1528
6501.00,1.1597
6500.00,1.1668
6499.00,1.1743
6498.00,1.1817
6497.00,1.1888
6496.00,1.1950
6495.00,1.2005
6494.00,1.2052
6493.00,1.2095
6492.00,1.2132
6491.00,1.2165
6490.00,1.2196
6489.00,1.2227
6488.00,1.2255
6487.00,1.2278
6486.00,1.2296
6485.00,1.2309
6484.00,1.2319
6483.00,1.2324
6482.00,1.2323
6481.00,1.2317
6480.00,1.2308
6479.00,1.2296
6478.00,1.2280
6477.00,1.2260
6476.00,1.2238
6475.00,1.2214
6474.00,1.2187
6473.00,1.2155
6472.00,1.2117
6471.00,1.2073
6470.00,1.2023
6469.00,1.1970
6468.00,1.1915
6467.00,1.1859
6466.00,1.1801
6465.00,1.1740
6464.00,1.1676
6463.00,1.1606
6462.00,1.1530
6461.00,1.1448
6460.00,1.1362
6459.00,1.1274
6458.00,1.1186
6457.00,1.1095
6456.00,1.1001
6455.00,1.0902
6454.00,1.0797
6453.00,1.0686
6452.00,1.0571
6451.00,1.0454
6450.00,1.0338
6449.00,1.0221
6448.00,1.0103
6447.00,0.9983
6446.00,0.9861
6445.00,0.9735
6444.00,0.9608
6443.00,0.9480
6442.00,0.9354
6441.00,0.9228
6440.00,0.9104
6439.00,0.8982
6438.00,0.8864
6437.00,0.8749
6436.00,0.8635
6435.00,0.8523
6434.00,0.8415
6433.00,0.8312
6432.00,0.8213
6431.00,0.8117
6430.00,0.8027
6429.00,0.7943
6428.00,0.7866
6427.00,0.7795
6426.00,0.7731
6425.00,0.7673
6424.00,0.7622
6423.00,0.7580
6422.00,0.7547
6421.00,0.7523
6420.00,0.7507
6419.00,0.7500
6418.00,0.7502
6417.00,0.7513
6416.00,0.7532
6415.00,0.7558
6414.00,0.7593
6413.00,0.7636
6412.00,0.7686
6411.00,0.7744
6410.00,0.7810
6409.00,0.7883
6408.00,0.7963
6407.00,0.8046
6406.00,0.8136
6405.00,0.8233
6404.00,0.8334
6403.00,0.8438
6402.00,0.8545
6401.00,0.8656
6400.00,0.8770
6399.00,0.8887
6398.00,0.9006
6397.00,0.9126
6396.00,0.9247
6395.00,0.9367
6394.00,0.9490
6393.00,0.9614
6392.00,0.9738
6391.00,0.9860
6390.00,0.9981
6389.00,1.0103
6388.00,1.0224
6387.00,1.0342
6386.00,1.0457
6385.00,1.0571
6384.00,1.0683
6383.00,1.0795
6382.00,1.0904
6381.00,1.1013
6380.00,1.1119
6379.00,1.1223
6378.00,1.1324
6377.00,1.1421
6376.00,1.1516
6375.00,1.1609
6374.00,1.1700
6373.00,1.1786
6372.00,1.1869
6371.00,1.1947
6370.00,1.2022
6369.00,1.2091
6368.00,1.2154
6367.00,1.2211
6366.00,1.2265
6365.00,1.2315
6364.00,1.2361
6363.00,1.2401
6362.00,1.2437
6361.00,1.2469
6360.00,1.2502
6359.00,1.2537
6358.00,1.2571
6357.00,1.2600
6356.00,1.2618
6355.00,1.2624
6354.00,1.2623
6353.00,1.2619
6352.00,1.2611
6351.00,1.2598
6350.00,1.2583
6349.00,1.2569
6348.00,1.2554
6347.00,1.2535
6346.00,1.2513
6345.00,1.2488
6344.00,1.2459
6343.00,1.2423
6342.00,1.2379
6341.00,1.2327
6340.00,1.2267
6339.00,1.2202
6338.00,1.2135
6337.00,1.2069
6336.00,1.2002
6335.00,1.1931
6334.00,1.1855
6333.00,1.1773
6332.00,1.1686
6331.00,1.1596
6330.00,1.1502
6329.00,1.1402
6328.00,1.1296
6327.00,1.1184
6326.00,1.1070
6325.00,1.0952
6324.00,1.0831
6323.00,1.0708
6322.00,1.0584
6321.00,1.0459
6320.00,1.0330
6319.00,1.0199
6318.00,1.0066
6317.00,0.9933
6316.00,0.9800
6315.00,0.9666
6314.00,0.9532
6313.00,0.9398
6312.00,0.9264
6311.00,0.9131
6310.00,0.9000
6309.00,0.8874
6308.00,0.8750
6307.00,0.8629
6306.00,0.8513
6305.00,0.8402
6304.00,0.8294
6303.00,0.8191
6302.00,0.8091
6301.00,0.7998
6300.00,0.7913
6299.00,0.7835
6298.00,0.7766
6297.00,0.7704
6296.00,0.7651
6295.00,0.7607
6294.00,0.7571
6293.00,0.7543
6292.00,0.7523
6291.00,0.7510
6290.00,0.7507
6289.00,0.7516
6288.00,0.7534
6287.00,0.7561
6286.00,0.7597
6285.00,0.7642
6284.00,0.7694
6283.00,0.7752
6282.00,0.7816
6281.00,0.7886
6280.00,0.7965
6279.00,0.8051
6278.00,0.8143
6277.00,0.8241
6276.00,0.8343
6275.00,0.8450
6274.00,0.8559
6273.00,0.8673
6272.00,0.8789
6271.00,0.8907
6270.00,0.9027
6269.00,0.9147
6268.00,0.9266
6267.00,0.9385
6266.00,0.9504
6265.00,0.9626
6264.00,0.9751
6263.00,0.9876
6262.00,0.9999
6261.00,1.0121
6260.00,1.0241
6259.00,1.0359
6258.00,1.0474
6257.00,1.0587
6256.00,1.0700
6255.00,1.0810
6254.00,1.0918
6253.00,1.1024
6252.00,1.1126
6251.00,1.1226
6250.00,1.1324
6249.00,1.1419
6248.00,1.1511
6247.00,1.1597
6246.00,1.1677
6245.00,1.1754
6244.00,1.1827
6243.00,1.1897
6242.00,1.1964
6241.00,1.2028
6240.00,1.2090
6239.00,1.2148
6238.00,1.2201
6237.00,1.2249
6236.00,1.2290
6235.00,1.2328
6234.00,1.2364
6233.00,1.2398
6232.00,1.2426
6231.00,1.2448
6230.00,1.2466
6229.00,1.2481
6228.00,1.2491
6227.00,1.2494
6226.00,1.2493
6225.00,1.2490
6224.00,1.2487
6223.00,1.2481
6222.00,1.2471
6221.00,1.2457
6220.00,1.2437
6219.00,1.2413
6218.00,1.2384
6217.00,1.2350
6216.00,1.2311
6215.00,1.2266
6214.00,1.2219
6213.00,1.2170
6212.00,1.2121
6211.00,1.2068
6210.00,1.2011
6209.00,1.1949
6208.00,1.1883
6207.00,1.1814
6206.00,1.1742
6205.00,1.1665
6204.00,1.1583
6203.00,1.1498
6202.00,1.1408
6201.00,1.1312
6200.00,1.1210
6199.00,1.1105
6198.00,1.0998
6197.00,1.0891
6196.00,1.0781
6195.00,1.0668
6194.00,1.0553
6193.00,1.0435
6192.00,1.0311
6191.00,1.0182
6190.00,1.0051
6189.00,0.9920
6188.00,0.9788
6187.00,0.9652
6186.00,0.9515
6185.00,0.9380
6184.00,0.9246
6183.00,0.9112
6182.00,0.8978
6181.00,0.8849
6180.00,0.8723
6179.00,0.8601
6178.00,0.8483
6177.00,0.8371
6176.00,0.8264
6175.00,0.8162
6174.00,0.8064
6173.00,0.7972
6172.00,0.7885
6171.00,0.7805
6170.00,0.7732
6169.00,0.7666
6168.00,0.7610
6167.00,0.7562
6166.00,0.7524
6165.00,0.7496
6164.00,0.7477
6163.00,0.7467
6162.00,0.7466
6161.00,0.7475
6160.00,0.7493
6159.00,0.7521
6158.00,0.7558
6157.00,0.7605
6156.00,0.7661
6155.00,0.7725
6154.00,0.7795
6153.00,0.7870
6152.00,0.7951
6151.00,0.8037
6150.00,0.8130
6149.00,0.8229
6148.00,0.8335
6147.00,0.8445
6146.00,0.8561
6145.00,0.8682
6144.00,0.8806
6143.00,0.8931
6142.00,0.9057
6141.00,0.9183
6140.00,0.9308
6139.00,0.9432
6138.00,0.9556
6137.00,0.9684
6136.00,0.9814
6135.00,0.9945
6134.00,1.0077
6133.00,1.0209
6132.00,1.0338
6131.00,1.0463
6130.00,1.0584
6129.00,1.0703
6128.00,1.0823
6127.00,1.0942
6126.00,1.1059
6125.00,1.1174
6124.00,1.1287
6123.00,1.1398
6122.00,1.1504
6121.00,1.1604
6120.00,1.1700
6119.00,1.1795
6118.00,1.1890
6117.00,1.1982
6116.00,1.2068
6115.00,1.2147
6114.00,1.2220
6113.00,1.2286
6112.00,1.2346
6111.00,1.2401
6110.00,1.2457
6109.00,1.2513
6108.00,1.2569
6107.00,1.2620
6106.00,1.2666
6105.00,1.2708
6104.00,1.2749
6103.00,1.2785
6102.00,1.2816
6101.00,1.2839
6100.00,1.2854
6099.00,1.2858
6098.00,1.2853
6097.00,1.2845
6096.00,1.2839
6095.00,1.2836
6094.00,1.2833
6093.00,1.2827
6092.00,1.2812
6091.00,1.2788
6090.00,1.2754
6089.00,1.2714
6088.00,1.2672
6087.00,1.2631
6086.00,1.2591
6085.00,1.2548
6084.00,1.2498
6083.00,1.2439
6082.00,1.2374
6081.00,1.2303
6080.00,1.2228
6079.00,1.2148
6078.00,1.2065
6077.00,1.1978
6076.00,1.1888
6075.00,1.1793
6074.00,1.1695
6073.00,1.1592
6072.00,1.1485
6071.00,1.1373
6070.00,1.1258
6069.00,1.1139
6068.00,1.1018
6067.00,1.0895
6066.00,1.0770
6065.00,1.0643
6064.00,1.0511
6063.00,1.0374
6062.00,1.0233
6061.00,1.0089
6060.00,0.9945
6059.00,0.9798
6058.00,0.9652
6057.00,0.9508
6056.00,0.9366
6055.00,0.9225
6054.00,0.9085
6053.00,0.8949
6052.00,0.8816
6051.00,0.8686
6050.00,0.8558
6049.00,0.8434
6048.00,0.8314
6047.00,0.8199
6046.00,0.8090
6045.00,0.7988
6044.00,0.7893
6043.00,0.7807
6042.00,0.7730
6041.00,0.7662
6040.00,0.7603
6039.00,0.7551
6038.00,0.7509
6037.00,0.7477
6036.00,0.7455
6035.00,0.7441
6034.00,0.7437
6033.00,0.7444
6032.00,0.7461
6031.00,0.7487
6030.00,0.7521
6029.00,0.7565
6028.00,0.7618
6027.00,0.7679
6026.00,0.7749
6025.00,0.7827
6024.00,0.7913
6023.00,0.8004
6022.00,0.8101
6021.00,0.8202
6020.00,0.8309
6019.00,0.8421
6018.00,0.8537
6017.00,0.8658
6016.00,0.8781
6015.00,0.8908
6014.00,0.9036
6013.00,0.9164
6012.00,0.9293
6011.00,0.9423
6010.00,0.9556
6009.00,0.9691
6008.00,0.9825
6007.00,0.9958
6006.00,1.0090
6005.00,1.0222
6004.00,1.0353
6003.00,1.0480
6002.00,1.0605
6001.00,1.0730
6000.00,1.0855
5999.00,1.0978
5998.00,1.1098
5997.00,1.1217
5996.00,1.1335
5995.00,1.1450
5994.00,1.1560
5993.00,1.1666
5992.00,1.1769
5991.00,1.1868
5990.00,1.1963
5989.00,1.2054
5988.00,1.2143
5987.00,1.2229
5986.00,1.2309
5985.00,1.2385
5984.00,1.2456
5983.00,1.2523
5982.00,1.2585
5981.00,1.2643
5980.00,1.2699
5979.00,1.2751
5978.00,1.2798
5977.00,1.2839
5976.00,1.2872
5975.00,1.2901
5974.00,1.2928
5973.00,1.2953
5972.00,1.2975
5971.00,1.2992
5970.00,1.3005
5969.00,1.3012
5968.00,1.3011
5967.00,1.3003
5966.00,1.2994
5965.00,1.2986
5964.00,1.2975
5963.00,1.2956
5962.00,1.2928
5961.00,1.2893
5960.00,1.2854
5959.00,1.2811
5958.00,1.2767
5957.00,1.2722
5956.00,1.2671
5955.00,1.2614
5954.00,1.2548
5953.00,1.2477
5952.00,1.2401
5951.00,1.2324
5950.00,1.2244
5949.00,1.2159
5948.00,1.2066
5947.00,1.1966
5946.00,1.1862
5945.00,1.1755
5944.00,1.1647
5943.00,1.1536
5942.00,1.1422
5941.00,1.1304
5940.00,1.1178
5939.00,1.1047
5938.00,1.0912
5937.00,1.0777
5936.00,1.0641
5935.00,1.0504
5934.00,1.0366
5933.00,1.0225
5932.00,1.0080
5931.00,0.9930
5930.00,0.9780
5929.00,0.9630
5928.00,0.9482
5927.00,0.9335
5926.00,0.9191
5925.00,0.9050
5924.00,0.8913
5923.00,0.8778
5922.00,0.8646
5921.00,0.8519
5920.00,0.8398
5919.00,0.8284
5918.00,0.8176
5917.00,0.8074
5916.00,0.7980
5915.00,0.7894
5914.00,0.7817
5913.00,0.7748
5912.00,0.7689
5911.00,0.7640
5910.00,0.7599
5909.00,0.7568
5908.00,0.7546
5907.00,0.7533
5906.00,0.7531
5905.00,0.7540
5904.00,0.7561
5903.00,0.7591
5902.00,0.7632
5901.00,0.7682
5900.00,0.7741
5899.00,0.7808
5898.00,0.7884
5897.00,0.7969
5896.00,0.8061
5895.00,0.8161
5894.00,0.8266
5893.00,0.8375
5892.00,0.8489
5891.00,0.8606
5890.00,0.8727
5889.00,0.8852
5888.00,0.8981
5887.00,0.9113
5886.00,0.9248
5885.00,0.9384
5884.00,0.9520
5883.00,0.9655
5882.00,0.9789
5881.00,0.9924
5880.00,1.0060
5879.00,1.0195
5878.00,1.0331
5877.00,1.0467
5876.00,1.0603
5875.00,1.0737
5874.00,1.0869
5873.00,1.0997
5872.00,1.1123
5871.00,1.1246
5870.00,1.1367
5869.00,1.1485
5868.00,1.1600
5867.00,1.1712
5866.00,1.1823
5865.00,1.1932
5864.00,1.2036
5863.00,1.2134
5862.00,1.2227
5861.00,1.2314
5860.00,1.2397
5859.00,1.2474
5858.00,1.2549
5857.00,1.2625
5856.00,1.2701
5855.00,1.2771
5854.00,1.2836
5853.00,1.2894
5852.00,1.2947
5851.00,1.2994
5850.00,1.3036
5849.00,1.3074
5848.00,1.3111
5847.00,1.3145
5846.00,1.3175
5845.00,1.3198
5844.00,1.3216
5843.00,1.3230
5842.00,1.3239
5841.00,1.3242
5840.00,1.3238
5839.00,1.3230
5838.00,1.3218
5837.00,1.3201
5836.00,1.3179
5835.00,1.3154
5834.00,1.3129
5833.00,1.3102
5832.00,1.3072
5831.00,1.3038
5830.00,1.2998
5829.00,1.2952
5828.00,1.2899
5827.00,1.2841
5826.00,1.2779
5825.00,1.2712
5824.00,1.2638
5823.00,1.2557
5822.00,1.2472
5821.00,1.2385
5820.00,1.2296
5819.00,1.2205
5818.00,1.2109
5817.00,1.2009
5816.00,1.1903
5815.00,1.1790
5814.00,1.1673
5813.00,1.1553
5812.00,1.1430
5811.00,1.1304
5810.00,1.1176
5809.00,1.1044
5808.00,1.0907
5807.00,1.0765
5806.00,1.0620
5805.00,1.0472
5804.00,1.0322
5803.00,1.0170
5802.00,1.0018
5801.00,0.9867
5800.00,0.9717
5799.00,0.9567
5798.00,0.9418
5797.00,0.9271
5796.00,0.9125
5795.00,0.8982
5794.00,0.8844
5793.00,0.8709
5792.00,0.8579
5791.00,0.8453
5790.00,0.8333
5789.00,0.8221
5788.00,0.8116
5787.00,0.8019
5786.00,0.7931
5785.00,0.7853
5784.00,0.7782
5783.00,0.7720
5782.00,0.7667
5781.00,0.7626
5780.00,0.7595
5779.00,0.7576
5778.00,0.7567
5777.00,0.7569
5776.00,0.7582
5775.00,0.7606
5774.00,0.7639
5773.00,0.7682
5772.00,0.7736
5771.00,0.7800
5770.00,0.7872
5769.00,0.7955
5768.00,0.8046
5767.00,0.8145
5766.00,0.8251
5765.00,0.8361
5764.00,0.8476
5763.00,0.8595
5762.00,0.8718
5761.00,0.8847
5760.00,0.8979
5759.00,0.9115
5758.00,0.9254
5757.00,0.9394
5756.00,0.9536
5755.00,0.9678
5754.00,0.9820
5753.00,0.9962
5752.00,1.0104
5751.00,1.0244
5750.00,1.0381
5749.00,1.0517
5748.00,1.0651
5747.00,1.0786
5746.00,1.0921
5745.00,1.1056
5744.00,1.1190
5743.00,1.1321
5742.00,1.1448
5741.00,1.1571
5740.00,1.1691
5739.00,1.1807
5738.00,1.1921
5737.00,1.2032
5736.00,1.2136
5735.00,1.2236
5734.00,1.2331
5733.00,1.2424
5732.00,1.2514
5731.00,1.2600
5730.00,1.2683
5729.00,1.2763
5728.00,1.2840
5727.00,1.2911
5726.00,1.2974
5725.00,1.3030
5724.00,1.3080
5723.00,1.3125
5722.00,1.3167
5721.00,1.3210
5720.00,1.3253
5719.00,1.3294
5718.00,1.3328
5717.00,1.3352
5716.00,1.3368
5715.00,1.3380
5714.00,1.3389
5713.00,1.3394
5712.00,1.3394
5711.00,1.3390
5710.00,1.3383
5709.00,1.3375
5708.00,1.3362
5707.00,1.3343
5706.00,1.3318
5705.00,1.3286
5704.00,1.3247
5703.00,1.3200
5702.00,1.3147
5701.00,1.3092
5700.00,1.3037
5699.00,1.2981
5698.00,1.2922
5697.00,1.2858
5696.00,1.2790
5695.00,1.2718
5694.00,1.2639
5693.00,1.2554
5692.00,1.2463
5691.00,1.2369
5690.00,1.2271
5689.00,1.2167
5688.00,1.2057
5687.00,1.1940
5686.00,1.1819
5685.00,1.1695
5684.00,1.1569
5683.00,1.1439
5682.00,1.1305
5681.00,1.1167
5680.00,1.1023
5679.00,1.0875
5678.00,1.0723
5677.00,1.0570
5676.00,1.0416
5675.00,1.0263
5674.00,1.0110
5673.00,0.9956
5672.00,0.9802
5671.00,0.9648
5670.00,0.9492
5669.00,0.9338
5668.00,0.9185
5667.00,0.9036
5666.00,0.8890
5665.00,0.8747
5664.00,0.8609
5663.00,0.8476
5662.00,0.8349
5661.00,0.8229
5660.00,0.8116
5659.00,0.8013
5658.00,0.7919
5657.00,0.7835
5656.00,0.7759
5655.00,0.7692
5654.00,0.7635
5653.00,0.7588
5652.00,0.7552
5651.00,0.7527
5650.00,0.7515
5649.00,0.7514
5648.00,0.7525
5647.00,0.7547
5646.00,0.7579
5645.00,0.7622
5644.00,0.7674
5643.00,0.7736
5642.00,0.7809
5641.00,0.7890
5640.00,0.7980
5639.00,0.8077
5638.00,0.8180
5637.00,0.8289
5636.00,0.8404
5635.00,0.8524
5634.00,0.8649
5633.00,0.8779
5632.00,0.8913
5631.00,0.9051
5630.00,0.9191
5629.00,0.9332
5628.00,0.9474
5627.00,0.9616
5626.00,0.9759
5625.00,0.9902
5624.00,1.0045
5623.00,1.0188
5622.00,1.0331
5621.00,1.0475
5620.00,1.0617
5619.00,1.0756
5618.00,1.0892
5617.00,1.1024
5616.00,1.1155
5615.00,1.1284
5614.00,1.1411
5613.00,1.1535
5612.00,1.1656
5611.00,1.1773
5610.00,1.1884
5609.00,1.1992
5608.00,1.2097
5607.00,1.2198
5606.00,1.2296
5605.00,1.2389
5604.00,1.2476
5603.00,1.2557
5602.00,1.2634
5601.00,1.2708
5600.00,1.2779
5599.00,1.2847
5598.00,1.2910
5597.00,1.2966
5596.00,1.3016
5595.00,1.3058
5594.00,1.3097
5593.00,1.3133
5592.00,1.3166
5591.00,1.3197
5590.00,1.3224
5589.00,1.3249
5588.00,1.3270
5587.00,1.3288
5586.00,1.3300
5585.00,1.3308
5584.00,1.3311
5583.00,1.3310
5582.00,1.3304
5581.00,1.3294
5580.00,1.3277
5579.00,1.3255
5578.00,1.3230
5577.00,1.3202
5576.00,1.3171
5575.00,1.3138
5574.00,1.3102
5573.00,1.3063
5572.00,1.3018
5571.00,1.2966
5570.00,1.2908
5569.00,1.2847
5568.00,1.2781
5567.00,1.2710
5566.00,1.2633
5565.00,1.2553
5564.00,1.2469
5563.00,1.2381
5562.00,1.2288
5561.00,1.2191
5560.00,1.2091
5559.00,1.1984
5558.00,1.1871
5557.00,1.1753
5556.00,1.1631
5555.00,1.1505
5554.00,1.1374
5553.00,1.1237
5552.00,1.1096
5551.00,1.0950
5550.00,1.0799
5549.00,1.0646
5548.00,1.0491
5547.00,1.0334
5546.00,1.0175
5545.00,1.0015
5544.00,0.9856
5543.00,0.9696
5542.00,0.9537
5541.00,0.9379
5540.00,0.9221
5539.00,0.9065
5538.00,0.8911
5537.00,0.8761
5536.00,0.8616
5535.00,0.8476
5534.00,0.8343
5533.00,0.8217
5532.00,0.8099
5531.00,0.7991
5530.00,0.7891
5529.00,0.7801
5528.00,0.7720
5527.00,0.7649
5526.00,0.7587
5525.00,0.7538
5524.00,0.7501
5523.00,0.7476
5522.00,0.7462
5521.00,0.7459
5520.00,0.7468
5519.00,0.7488
5518.00,0.7519
5517.00,0.7563
5516.00,0.7619
5515.00,0.7686
5514.00,0.7763
5513.00,0.7850
5512.00,0.7944
5511.00,0.8047
5510.00,0.8157
5509.00,0.8273
5508.00,0.8395
5507.00,0.8522
5506.00,0.8655
5505.00,0.8792
5504.00,0.8933
5503.00,0.9077
5502.00,0.9223
5501.00,0.9372
5500.00,0.9522
5499.00,0.9673
5498.00,0.9825
5497.00,0.9977
5496.00,1.0130
5495.00,1.0281
5494.00,1.0431
5493.00,1.0577
5492.00,1.0722
5491.00,1.0866
5490.00,1.1010
5489.00,1.1153
5488.00,1.1295
5487.00,1.1437
5486.00,1.1576
5485.00,1.1710
5484.00,1.1839
5483.00,1.1963
5482.00,1.2083
5481.00,1.2200
5480.00,1.2315
5479.00,1.2425
5478.00,1.2531
5477.00,1.2632
5476.00,1.2729
5475.00,1.2822
5474.00,1.2911
5473.00,1.2997
5472.00,1.3081
5471.00,1.3161
5470.00,1.3236
5469.00,1.3303
5468.00,1.3363
5467.00,1.3415
5466.00,1.3461
5465.00,1.3501
5464.00,1.3537
5463.00,1.3569
5462.00,1.3598
5461.00,1.3623
5460.00,1.3643
5459.00,1.3657
5458.00,1.3670
5457.00,1.3680
5456.00,1.3689
5455.00,1.3694
5454.00,1.3693
5453.00,1.3685
5452.00,1.3667
5451.00,1.3641
5450.00,1.3610
5449.00,1.3577
5448.00,1.3543
5447.00,1.3506
5446.00,1.3464
5445.00,1.3417
5444.00,1.3363
5443.00,1.3302
5442.00,1.3236
5441.00,1.3167
5440.00,1.3094
5439.00,1.3019
5438.00,1.2940
5437.00,1.2859
5436.00,1.2771
5435.00,1.2675
5434.00,1.2572
5433.00,1.2463
5432.00,1.2350
5431.00,1.2230
5430.00,1.2105
5429.00,1.1974
5428.00,1.1838
5427.00,1.1697
5426.00,1.1553
5425.00,1.1407
5424.00,1.1260
5423.00,1.1108
5422.00,1.0953
5421.00,1.0794
5420.00,1.0633
5419.00,1.0470
5418.00,1.0306
5417.00,1.0140
5416.00,0.9972
5415.00,0.9801
5414.00,0.9627
5413.00,0.9454
5412.00,0.9283
5411.00,0.9114
5410.00,0.8949
5409.00,0.8789
5408.00,0.8635
5407.00,0.8487
5406.00,0.8345
5405.00,0.8212
5404.00,0.8088
5403.00,0.7972
5402.00,0.7865
5401.00,0.7768
5400.00,0.7681
5399.00,0.7604
5398.00,0.7538
5397.00,0.7483
5396.00,0.7440
5395.00,0.7409
5394.00,0.7391
5393.00,0.7385
5392.00,0.7390
5391.00,0.7409
5390.00,0.7440
5389.00,0.7485
5388.00,0.7543
5387.00,0.7612
5386.00,0.7691
5385.00,0.7779
5384.00,0.7875
5383.00,0.7979
5382.00,0.8090
5381.00,0.8208
5380.00,0.8332
5379.00,0.8462
5378.00,0.8597
5377.00,0.8737
5376.00,0.8882
5375.00,0.9031
5374.00,0.9183
5373.00,0.9338
5372.00,0.9493
5371.00,0.9650
5370.00,0.9808
5369.00,0.9966
5368.00,1.0123
5367.00,1.0278
5366.00,1.0433
5365.00,1.0588
5364.00,1.0743
5363.00,1.0897
5362.00,1.1048
5361.00,1.1197
5360.00,1.1342
5359.00,1.1485
5358.00,1.1625
5357.00,1.1763
5356.00,1.1897
5355.00,1.2025
5354.00,1.2149
5353.00,1.2268
5352.00,1.2384
5351.00,1.2498
5350.00,1.2608
5349.00,1.2714
5348.00,1.2816
5347.00,1.2913
5346.00,1.3003
5345.00,1.3089
5344.00,1.3172
5343.00,1.3250
5342.00,1.3325
5341.00,1.3393
5340.00,1.3455
5339.00,1.3513
5338.00,1.3567
5337.00,1.3616
5336.00,1.3660
5335.00,1.3698
5334.00,1.3729
5333.00,1.3753
5332.00,1.3773
5331.00,1.3791
5330.00,1.3807
5329.00,1.3818
5328.00,1.3825
5327.00,1.3827
5326.00,1.3827
5325.00,1.3821
5324.00,1.3809
5323.00,1.3792
5322.00,1.3771
5321.00,1.3746
5320.00,1.3716
5319.00,1.3679
5318.00,1.3636
5317.00,1.3590
5316.00,1.3540
5315.00,1.3486
5314.00,1.3427
5313.00,1.3365
5312.00,1.3296
5311.00,1.3221
5310.00,1.3140
5309.00,1.3053
5308.00,1.2960
5307.00,1.2861
5306.00,1.2757
5305.00,1.2649
5304.00,1.2539
5303.00,1.2425
5302.00,1.2306
5301.00,1.2181
5300.00,1.2048
5299.00,1.1908
5298.00,1.1761
5297.00,1.1609
5296.00,1.1456
5295.00,1.1300
5294.00,1.1141
5293.00,1.0980
5292.00,1.0815
5291.00,1.0646
5290.00,1.0474
5289.00,1.0299
5288.00,1.0123
5287.00,0.9949
5286.00,0.9775
5285.00,0.9602
5284.00,0.9430
5283.00,0.9259
5282.00,0.9091
5281.00,0.8927
5280.00,0.8768
5279.00,0.8616
5278.00,0.8471
5277.00,0.8332
5276.00,0.8201
5275.00,0.8079
5274.00,0.7967
5273.00,0.7867
5272.00,0.7777
5271.00,0.7699
5270.00,0.7634
5269.00,0.7580
5268.00,0.7538
5267.00,0.7510
5266.00,0.7495
5265.00,0.7493
5264.00,0.7504
5263.00,0.7527
5262.00,0.7563
5261.00,0.7612
5260.00,0.7673
5259.00,0.7746
5258.00,0.7831
5257.00,0.7927
5256.00,0.8033
5255.00,0.8148
5254.00,0.8270
5253.00,0.8400
5252.00,0.8536
5251.00,0.8677
5250.00,0.8822
5249.00,0.8973
5248.00,0.9127
5247.00,0.9285
5246.00,0.9443
5245.00,0.9602
5244.00,0.9763
5243.00,0.9925
5242.00,1.0088
5241.00,1.0251
5240.00,1.0414
5239.00,1.0575
5238.00,1.0736
5237.00,1.0896
5236.00,1.1053
5235.00,1.1208
5234.00,1.1362
5233.00,1.1515
5232.00,1.1666
5231.00,1.1814
5230.00,1.1958
5229.00,1.2096
5228.00,1.2228
5227.00,1.2354
5226.00,1.2477
5225.00,1.2599
5224.00,1.2719
5223.00,1.2836
5222.00,1.2949
5221.00,1.3056
5220.00,1.3157
5219.00,1.3251
5218.00,1.3340
5217.00,1.3424
5216.00,1.3504
5215.00,1.3580
5214.00,1.3652
5213.00,1.3721
5212.00,1.3786
5211.00,1.3845
5210.00,1.3899
5209.00,1.3947
5208.00,1.3988
5207.00,1.4023
5206.00,1.4053
5205.00,1.4079
5204.00,1.4102
5203.00,1.4124
5202.00,1.4143
5201.00,1.4158
5200.00,1.4166
5199.00,1.4164
5198.00,1.4154
5197.00,1.4137
5196.00,1.4117
5195.00,1.4095
5194.00,1.4071
5193.00,1.4045
5192.00,1.4014
5191.00,1.3978
5190.00,1.3934
5189.00,1.3884
5188.00,1.3826
5187.00,1.3763
5186.00,1.3698
5185.00,1.3629
5184.00,1.3559
5183.00,1.3485
5182.00,1.3405
5181.00,1.3318
5180.00,1.3223
5179.00,1.3121
5178.00,1.3012
5177.00,1.2900
5176.00,1.2784
5175.00,1.2665
5174.00,1.2542
5173.00,1.2413
5172.00,1.2279
5171.00,1.2139
5170.00,1.1994
5169.00,1.1842
5168.00,1.1684
5167.00,1.1521
5166.00,1.1353
5165.00,1.1184
5164.00,1.1012
5163.00,1.0837
5162.00,1.0660
5161.00,1.0478
5160.00,1.0294
5159.00,1.0108
5158.00,0.9924
5157.00,0.9742
5156.00,0.9561
5155.00,0.9381
5154.00,0.9203
5153.00,0.9028
5152.00,0.8857
5151.00,0.8692
5150.00,0.8535
5149.00,0.8385
5148.00,0.8243
5147.00,0.8110
5146.00,0.7988
5145.00,0.7876
5144.00,0.7775
5143.00,0.7685
5142.00,0.7607
5141.00,0.7541
5140.00,0.7490
5139.00,0.7453
5138.00,0.7431
5137.00,0.7424
5136.00,0.7430
5135.00,0.7450
5134.00,0.7483
5133.00,0.7530
5132.00,0.7590
5131.00,0.7663
5130.00,0.7747
5129.00,0.7842
5128.00,0.7947
5127.00,0.8062
5126.00,0.8186
5125.00,0.8318
5124.00,0.8458
5123.00,0.8603
5122.00,0.8754
5121.00,0.8909
5120.00,0.9068
5119.00,0.9231
5118.00,0.9396
5117.00,0.9564
5116.00,0.9733
5115.00,0.9902
5114.00,1.0071
5113.00,1.0241
5112.00,1.0411
5111.00,1.0580
5110.00,1.0748
5109.00,1.0916
5108.00,1.1082
5107.00,1.1244
5106.00,1.1403
5105.00,1.1560
5104.00,1.1714
5103.00,1.1867
5102.00,1.2018
5101.00,1.2166
5100.00,1.2310
5099.00,1.2448
5098.00,1.2581
5097.00,1.2710
5096.00,1.2836
5095.00,1.2957
5094.00,1.3075
5093.00,1.3186
5092.00,1.3290
5091.00,1.3388
5090.00,1.3481
5089.00,1.3572
5088.00,1.3659
5087.00,1.3744
5086.00,1.3825
5085.00,1.3900
5084.00,1.3967
5083.00,1.4024
5082.00,1.4076
5081.00,1.4123
5080.00,1.4167
5079.00,1.4206
5078.00,1.4241
5077.00,1.4269
5076.00,1.4292
5075.00,1.4311
5074.00,1.4328
5073.00,1.4343
5072.00,1.4354
5071.00,1.4358
5070.00,1.4355
5069.00,1.4347
5068.00,1.4334
5067.00,1.4317
5066.00,1.4296
5065.00,1.4270
5064.00,1.4239
5063.00,1.4202
5062.00,1.4162
5061.00,1.4118
5060.00,1.4069
5059.00,1.4013
5058.00,1.3951
5057.00,1.3886
5056.00,1.3815
5055.00,1.3739
5054.00,1.3656
5053.00,1.3566
5052.00,1.3470
5051.00,1.3370
5050.00,1.3264
5049.00,1.3154
5048.00,1.3037
5047.00,1.2914
5046.00,1.2785
5045.00,1.2650
5044.00,1.2511
5043.00,1.2368
5042.00,1.2219
5041.00,1.2064
5040.00,1.1904
5039.00,1.1738
5038.00,1.1568
5037.00,1.1393
5036.00,1.1213
5035.00,1.1029
5034.00,1.0843
5033.00,1.0654
5032.00,1.0463
5031.00,1.0271
5030.00,1.0078
5029.00,0.9886
5028.00,0.9695
5027.00,0.9505
5026.00,0.9318
5025.00,0.9135
5024.00,0.8955
5023.00,0.8781
5022.00,0.8612
5021.00,0.8452
5020.00,0.8300
5019.00,0.8158
5018.00,0.8027
5017.00,0.7908
5016.00,0.7801
5015.00,0.7706
5014.00,0.7625
5013.00,0.7558
5012.00,0.7505
5011.00,0.7467
5010.00,0.7445
5009.00,0.7437
5008.00,0.7445
5007.00,0.7469
5006.00,0.7507
5005.00,0.7560
5004.00,0.7627
5003.00,0.7707
5002.00,0.7801
5001.00,0.7906
5000.00,0.8022
4999.00,0.8148
4998.00,0.8284
4997.00,0.8428
4996.00,0.8578
4995.00,0.8736
4994.00,0.8898
4993.00,0.9065
4992.00,0.9236
4991.00,0.9409
4990.00,0.9584
4989.00,0.9762
4988.00,0.9941
4987.00,1.0120
4986.00,1.0299
4985.00,1.0477
4984.00,1.0654
4983.00,1.0829
4982.00,1.1004
4981.00,1.1178
4980.00,1.1350
4979.00,1.1520
4978.00,1.1687
4977.00,1.1851
4976.00,1.2012
4975.00,1.2170
4974.00,1.2326
4973.00,1.2479
4972.00,1.2628
4971.00,1.2773
4970.00,1.2912
4969.00,1.3044
4968.00,1.3171
4967.00,1.3292
4966.00,1.3407
4965.00,1.3517
4964.00,1.3622
4963.00,1.3722
4962.00,1.3817
4961.00,1.3906
4960.00,1.3991
4959.00,1.4071
4958.00,1.4146
4957.00,1.4216
4956.00,1.4280
4955.00,1.4338
4954.00,1.4390
4953.00,1.4438
4952.00,1.4484
4951.00,1.4527
4950.00,1.4564
4949.00,1.4595
4948.00,1.4617
4947.00,1.4631
4946.00,1.4640
4945.00,1.4647
4944.00,1.4651
4943.00,1.4652
4942.00,1.4647
4941.00,1.4636
4940.00,1.4619
4939.00,1.4595
4938.00,1.4568
4937.00,1.4535
4936.00,1.4498
4935.00,1.4455
4934.00,1.4407
4933.00,1.4356
4932.00,1.4303
4931.00,1.4246
4930.00,1.4184
4929.00,1.4115
4928.00,1.4040
4927.00,1.3957
4926.00,1.3869
4925.00,1.3776
4924.00,1.3676
4923.00,1.3571
4922.00,1.3460
4921.00,1.3346
4920.00,1.3227
4919.00,1.3103
4918.00,1.2973
4917.00,1.2835
4916.00,1.2689
4915.00,1.2536
4914.00,1.2379
4913.00,1.2218
4912.00,1.2054
4911.00,1.1885
4910.00,1.1710
4909.00,1.1528
4908.00,1.1340
4907.00,1.1148
4906.00,1.0952
4905.00,1.0754
4904.00,1.0555
4903.00,1.0353
4902.00,1.0149
4901.00,0.9945
4900.00,0.9740
4899.00,0.9537
4898.00,0.9338
4897.00,0.9144
4896.00,0.8955
4895.00,0.8772
4894.00,0.8595
4893.00,0.8426
4892.00,0.8265
4891.00,0.8114
4890.00,0.7975
4889.00,0.7849
4888.00,0.7736
4887.00,0.7637
4886.00,0.7552
4885.00,0.7482
4884.00,0.7427
4883.00,0.7389
4882.00,0.7367
4881.00,0.7362
4880.00,0.7374
4879.00,0.7402
4878.00,0.7447
4877.00,0.7507
4876.00,0.7583
4875.00,0.7672
4874.00,0.7775
4873.00,0.7890
4872.00,0.8016
4871.00,0.8152
4870.00,0.8298
4869.00,0.8453
4868.00,0.8615
4867.00,0.8783
4866.00,0.8957
4865.00,0.9134
4864.00,0.9314
4863.00,0.9497
4862.00,0.9682
4861.00,0.9869
4860.00,1.0056
4859.00,1.0244
4858.00,1.0432
4857.00,1.0620
4856.00,1.0806
4855.00,1.0991
4854.00,1.1174
4853.00,1.1355
4852.00,1.1533
4851.00,1.1708
4850.00,1.1882
4849.00,1.2054
4848.00,1.2225
4847.00,1.2392
4846.00,1.2555
4845.00,1.2712
4844.00,1.2863
4843.00,1.3008
4842.00,1.3147
4841.00,1.3281
4840.00,1.3411
4839.00,1.3535
4838.00,1.3654
4837.00,1.3766
4836.00,1.3873
4835.00,1.3976
4834.00,1.4074
4833.00,1.4166
4832.00,1.4253
4831.00,1.4334
4830.00,1.4408
4829.00,1.4478
4828.00,1.4543
4827.00,1.4604
4826.00,1.4661
4825.00,1.4713
4824.00,1.4761
4823.00,1.4804
4822.00,1.4841
4821.00,1.4872
4820.00,1.4896
4819.00,1.4915
4818.00,1.4931
4817.00,1.4941
4816.00,1.4945
4815.00,1.4942
4814.00,1.4931
4813.00,1.4914
4812.00,1.4896
4811.00,1.4875
4810.00,1.4852
4809.00,1.4826
4808.00,1.4795
4807.00,1.4758
4806.00,1.4715
4805.00,1.4665
4804.00,1.4607
4803.00,1.4543
4802.00,1.4475
4801.00,1.4404
4800.00,1.4330
4799.00,1.4252
4798.00,1.4166
4797.00,1.4074
4796.00,1.3974
4795.00,1.3866
4794.00,1.3753
4793.00,1.3634
4792.00,1.3510
4791.00,1.3382
4790.00,1.3248
4789.00,1.3108
4788.00,1.2960
4787.00,1.2805
4786.00,1.2645
4785.00,1.2478
4784.00,1.2306
4783.00,1.2127
4782.00,1.1943
4781.00,1.1754
4780.00,1.1559
4779.00,1.1360
4778.00,1.1157
4777.00,1.0952
4776.00,1.0743
4775.00,1.0532
4774.00,1.0319
4773.00,1.0106
4772.00,0.9893
4771.00,0.9682
4770.00,0.9475
4769.00,0.9272
4768.00,0.9074
4767.00,0.8882
4766.00,0.8698
4765.00,0.8522
4764.00,0.8357
4763.00,0.8203
4762.00,0.8060
4761.00,0.7930
4760.00,0.7814
4759.00,0.7713
4758.00,0.7628
4757.00,0.7559
4756.00,0.7507
4755.00,0.7473
4754.00,0.7456
4753.00,0.7458
4752.00,0.7477
4751.00,0.7514
4750.00,0.7567
4749.00,0.7638
4748.00,0.7723
4747.00,0.7824
4746.00,0.7938
4745.00,0.8065
4744.00,0.8203
4743.00,0.8352
4742.00,0.8511
4741.00,0.8678
4740.00,0.8852
4739.00,0.9031
4738.00,0.9216
4737.00,0.9405
4736.00,0.9597
4735.00,0.9790
4734.00,0.9986
4733.00,1.0182
4732.00,1.0379
4731.00,1.0577
4730.00,1.0774
4729.00,1.0970
4728.00,1.1164
4727.00,1.1355
4726.00,1.1545
4725.00,1.1733
4724.00,1.1918
4723.00,1.2100
4722.00,1.2278
4721.00,1.2454
4720.00,1.2625
4719.00,1.2793
4718.00,1.2956
4717.00,1.3114
4716.00,1.3268
4715.00,1.3416
4714.00,1.3559
4713.00,1.3694
4712.00,1.3823
4711.00,1.3945
4710.00,1.4061
4709.00,1.4172
4708.00,1.4277
4707.00,1.4376
4706.00,1.4471
4705.00,1.4561
4704.00,1.4648
4703.00,1.4730
4702.00,1.4808
4701.00,1.4878
4700.00,1.4942
4699.00,1.4998
4698.00,1.5048
4697.00,1.5094
4696.00,1.5135
4695.00,1.5173
4694.00,1.5207
4693.00,1.5238
4692.00,1.5262
4691.00,1.5277
4690.00,1.5284
4689.00,1.5284
4688.00,1.5280
4687.00,1.5275
4686.00,1.5270
4685.00,1.5265
4684.00,1.5253
4683.00,1.5233
4682.00,1.5204
4681.00,1.5168
4680.00,1.5129
4679.00,1.5087
4678.00,1.5042
4677.00,1.4993
4676.00,1.4940
4675.00,1.4881
4674.00,1.4816
4673.00,1.4743
4672.00,1.4663
4671.00,1.4575
4670.00,1.4481
4669.00,1.4383
4668.00,1.4281
4667.00,1.4176
4666.00,1.4066
4665.00,1.3950
4664.00,1.3827
4663.00,1.3695
4662.00,1.3556
4661.00,1.3409
4660.00,1.3256
4659.00,1.3098
4658.00,1.2936
4657.00,1.2767
4656.00,1.2592
4655.00,1.2409
4654.00,1.2219
4653.00,1.2023
4652.00,1.1822
4651.00,1.1616
4650.00,1.1406
4649.00,1.1193
4648.00,1.0976
4647.00,1.0756
4646.00,1.0534
4645.00,1.0310
4644.00,1.0086
4643.00,0.9863
4642.00,0.9643
4641.00,0.9427
4640.00,0.9217
4639.00,0.9013
4638.00,0.8817
4637.00,0.8630
4636.00,0.8454
4635.00,0.8290
4634.00,0.8139
4633.00,0.8002
4632.00,0.7881
4631.00,0.7776
4630.00,0.7687
4629.00,0.7616
4628.00,0.7564
4627.00,0.7530
4626.00,0.7515
4625.00,0.7520
4624.00,0.7544
4623.00,0.7586
4622.00,0.7647
4621.00,0.7725
4620.00,0.7819
4619.00,0.7928
4618.00,0.8051
4617.00,0.8187
4616.00,0.8336
4615.00,0.8495
4614.00,0.8663
4613.00,0.8840
4612.00,0.9023
4611.00,0.9211
4610.00,0.9404
4609.00,0.9600
4608.00,0.9798
4607.00,0.9999
4606.00,1.0201
4605.00,1.0405
4604.00,1.0610
4603.00,1.0814
4602.00,1.1018
4601.00,1.1220
4600.00,1.1421
4599.00,1.1619
4598.00,1.1814
4597.00,1.2008
4596.00,1.2198
4595.00,1.2386
4594.00,1.2572
4593.00,1.2753
4592.00,1.2929
4591.00,1.3100
4590.00,1.3265
4589.00,1.3424
4588.00,1.3577
4587.00,1.3724
4586.00,1.3866
4585.00,1.4003
4584.00,1.4135
4583.00,1.4261
4582.00,1.4381
4581.00,1.4495
4580.00,1.4603
4579.00,1.4705
4578.00,1.4802
4577.00,1.4893
4576.00,1.4978
4575.00,1.5058
4574.00,1.5133
4573.00,1.5204
4572.00,1.5271
4571.00,1.5332
4570.00,1.5387
4569.00,1.5436
4568.00,1.5475
4567.00,1.5508
4566.00,1.5535
4565.00,1.5558
4564.00,1.5578
4563.00,1.5594
4562.00,1.5605
4561.00,1.5610
4560.00,1.5610
4559.00,1.5606
4558.00,1.5598
4557.00,1.5588
4556.00,1.5574
4555.00,1.5555
4554.00,1.5531
4553.00,1.5500
4552.00,1.5461
4551.00,1.5414
4550.00,1.5360
4549.00,1.5301
4548.00,1.5236
4547.00,1.5168
4546.00,1.5095
4545.00,1.5018
4544.00,1.4938
4543.00,1.4851
4542.00,1.4758
4541.00,1.4659
4540.00,1.4554
4539.00,1.4443
4538.00,1.4327
4537.00,1.4205
4536.00,1.4077
4535.00,1.3942
4534.00,1.3800
4533.00,1.3650
4532.00,1.3492
4531.00,1.3326
4530.00,1.3153
4529.00,1.2975
4528.00,1.2790
4527.00,1.2598
4526.00,1.2398
4525.00,1.2192
4524.00,1.1981
4523.00,1.1766
4522.00,1.1547
4521.00,1.1323
4520.00,1.1094
4519.00,1.0862
4518.00,1.0627
4517.00,1.0392
4516.00,1.0157
4515.00,0.9924
4514.00,0.9694
4513.00,0.9469
4512.00,0.9250
4511.00,0.9038
4510.00,0.8836
4509.00,0.8644
4508.00,0.8464
4507.00,0.8296
4506.00,0.8143
4505.00,0.8005
4504.00,0.7884
4503.00,0.7781
4502.00,0.7697
4501.00,0.7632
4500.00,0.7588
4499.00,0.7565
4498.00,0.7562
4497.00,0.7580
4496.00,0.7618
4495.00,0.7676
4494.00,0.7753
4493.00,0.7849
4492.00,0.7962
4491.00,0.8090
4490.00,0.8233
4489.00,0.8389
4488.00,0.8557
4487.00,0.8735
4486.00,0.8922
4485.00,0.9117
4484.00,0.9318
4483.00,0.9523
4482.00,0.9732
4481.00,0.9944
4480.00,1.0158
4479.00,1.0375
4478.00,1.0593
4477.00,1.0812
4476.00,1.1029
4475.00,1.1245
4474.00,1.1459
4473.00,1.1671
4472.00,1.1881
4471.00,1.2089
4470.00,1.2294
4469.00,1.2495
4468.00,1.2692
4467.00,1.2885
4466.00,1.3072
4465.00,1.3255
4464.00,1.3433
4463.00,1.3604
4462.00,1.3770
4461.00,1.3930
4460.00,1.4086
4459.00,1.4234
4458.00,1.4376
4457.00,1.4510
4456.00,1.4637
4455.00,1.4757
4454.00,1.4871
4453.00,1.4978
4452.00,1.5080
4451.00,1.5178
4450.00,1.5273
4449.00,1.5363
4448.00,1.5448
4447.00,1.5526
4446.00,1.5596
4445.00,1.5660
4444.00,1.5717
4443.00,1.5769
4442.00,1.5818
4441.00,1.5862
4440.00,1.5900
4439.00,1.5931
4438.00,1.5954
4437.00,1.5970
4436.00,1.5982
4435.00,1.5990
4434.00,1.5996
4433.00,1.5997
4432.00,1.5993
4431.00,1.5984
4430.00,1.5971
4429.00,1.5954
4428.00,1.5932
4427.00,1.5903
4426.00,1.5866
4425.00,1.5823
4424.00,1.5774
4423.00,1.5719
4422.00,1.5659
4421.00,1.5595
4420.00,1.5528
4419.00,1.5457
4418.00,1.5381
4417.00,1.5300
4416.00,1.5210
4415.00,1.5111
4414.00,1.5005
4413.00,1.4891
4412.00,1.4773
4411.00,1.4652
4410.00,1.4527
4409.00,1.4399
4408.00,1.4264
4407.00,1.4122
4406.00,1.3972
4405.00,1.3815
4404.00,1.3652
4403.00,1.3482
4402.00,1.3305
4401.00,1.3122
4400.00,1.2935
4399.00,1.2742
4398.00,1.2545
4397.00,1.2344
4396.00,1.2139
4395.00,1.1929
4394.00,1.1716
4393.00,1.1501
4392.00,1.1285
4391.00,1.1070
4390.00,1.0857
4389.00,1.0646
4388.00,1.0438
4387.00,1.0235
4386.00,1.0038
4385.00,0.9850
4384.00,0.9670
4383.00,0.9500
4382.00,0.9342
4381.00,0.9195
4380.00,0.9061
4379.00,0.8940
4378.00,0.8834
4377.00,0.8743
4376.00,0.8667
4375.00,0.8607
4374.00,0.8563
4373.00,0.8535
4372.00,0.8523
4371.00,0.8526
4370.00,0.8544
4369.00,0.8578
4368.00,0.8627
4367.00,0.8690
4366.00,0.8767
4365.00,0.8856
4364.00,0.8957
4363.00,0.9070
4362.00,0.9195
4361.00,0.9331
4360.00,0.9477
4359.00,0.9631
4358.00,0.9792
4357.00,0.9960
4356.00,1.0134
4355.00,1.0315
4354.00,1.0502
4353.00,1.0692
4352.00,1.0886
4351.00,1.1080
4350.00,1.1276
4349.00,1.1473
4348.00,1.1671
4347.00,1.1868
4346.00,1.2065
4345.00,1.2261
4344.00,1.2455
4343.00,1.2647
4342.00,1.2836
4341.00,1.3024
4340.00,1.3208
4339.00,1.3390
4338.00,1.3568
4337.00,1.3742
4336.00,1.3911
4335.00,1.4075
4334.00,1.4235
4333.00,1.4391
4332.00,1.4543
4331.00,1.4689
4330.00,1.4828
4329.00,1.4959
4328.00,1.5086
4327.00,1.5210
4326.00,1.5331
4325.00,1.5446
4324.00,1.5554
4323.00,1.5653
4322.00,1.5747
4321.00,1.5836
4320.00,1.5920
4319.00,1.5999
4318.00,1.6071
4317.00,1.6137
4316.00,1.6197
4315.00,1.6251
4314.00,1.6298
4313.00,1.6340
4312.00,1.6377
4311.00,1.6409
4310.00,1.6435
4309.00,1.6454
4308.00,1.6467
4307.00,1.6478
4306.00,1.6488
4305.00,1.6495
4304.00,1.6498
4303.00,1.6492
4302.00,1.6480
4301.00,1.6461
4300.00,1.6439
4299.00,1.6412
4298.00,1.6381
4297.00,1.6344
4296.00,1.6301
4295.00,1.6254
4294.00,1.6203
4293.00,1.6149
4292.00,1.6089
4291.00,1.6022
4290.00,1.5947
4289.00,1.5867
4288.00,1.5785
4287.00,1.5700
4286.00,1.5610
4285.00,1.5514
4284.00,1.5411
4283.00,1.5301
4282.00,1.5185
4281.00,1.5064
4280.00,1.4937
4279.00,1.4802
4278.00,1.4662
4277.00,1.4515
4276.00,1.4362
4275.00,1.4202
4274.00,1.4036
4273.00,1.3863
4272.00,1.3684
4271.00,1.3498
4270.00,1.3303
4269.00,1.3100
4268.00,1.2890
4267.00,1.2674
4266.00,1.2453
4265.00,1.2228
4264.00,1.1998
4263.00,1.1764
4262.00,1.1526
4261.00,1.1286
4260.00,1.1044
4259.00,1.0802
4258.00,1.0562
4257.00,1.0325
4256.00,1.0092
4255.00,0.9866
4254.00,0.9648
4253.00,0.9439
4252.00,0.9242
4251.00,0.9059
4250.00,0.8891
4249.00,0.8740
4248.00,0.8606
4247.00,0.8492
4246.00,0.8398
4245.00,0.8325
4244.00,0.8276
4243.00,0.8249
4242.00,0.8245
4241.00,0.8265
4240.00,0.8308
4239.00,0.8372
4238.00,0.8458
4237.00,0.8565
4236.00,0.8690
4235.00,0.8833
4234.00,0.8991
4233.00,0.9162
4232.00,0.9345
4231.00,0.9538
4230.00,0.9740
4229.00,0.9949
4228.00,1.0165
4227.00,1.0385
4226.00,1.0609
4225.00,1.0834
4224.00,1.1060
4223.00,1.1287
4222.00,1.1514
4221.00,1.1740
4220.00,1.1963
4219.00,1.2184
4218.00,1.2403
4217.00,1.2619
4216.00,1.2833
4215.00,1.3044
4214.00,1.3251
4213.00,1.3453
4212.00,1.3650
4211.00,1.3842
4210.00,1.4029
4209.00,1.4211
4208.00,1.4387
4207.00,1.4557
4206.00,1.4721
4205.00,1.4879
4204.00,1.5031
4203.00,1.5176
4202.00,1.5315
4201.00,1.5449
4200.00,1.5577
4199.00,1.5699
4198.00,1.5813
4197.00,1.5922
4196.00,1.6023
4195.00,1.6119
4194.00,1.6209
4193.00,1.6294
4192.00,1.6373
4191.00,1.6446
4190.00,1.6514
4189.00,1.6576
4188.00,1.6632
4187.00,1.6685
4186.00,1.6734
4185.00,1.6780
4184.00,1.6819
4183.00,1.6850
4182.00,1.6872
4181.00,1.6888
4180.00,1.6900
4179.00,1.6909
4178.00,1.6915
4177.00,1.6916
4176.00,1.6914
4175.00,1.6908
4174.00,1.6896
4173.00,1.6878
4172.00,1.6854
4171.00,1.6822
4170.00,1.6785
4169.00,1.6741
4168.00,1.6692
4167.00,1.6639
4166.00,1.6583
4165.00,1.6523
4164.00,1.6457
4163.00,1.6385
4162.00,1.6307
4161.00,1.6223
4160.00,1.6134
4159.00,1.6037
4158.00,1.5934
4157.00,1.5825
4156.00,1.5710
4155.00,1.5588
4154.00,1.5461
4153.00,1.5327
4152.00,1.5187
4151.00,1.5039
4150.00,1.4885
4149.00,1.4724
4148.00,1.4558
4147.00,1.4385
4146.00,1.4206
4145.00,1.4020
4144.00,1.3827
4143.00,1.3625
4142.00,1.3417
4141.00,1.3202
4140.00,1.2980
4139.00,1.2753
4138.00,1.2521
4137.00,1.2284
4136.00,1.2044
4135.00,1.1800
4134.00,1.1554
4133.00,1.1305
4132.00,1.1056
4131.00,1.0808
4130.00,1.0564
4129.00,1.0325
4128.00,1.0092
4127.00,0.9868
4126.00,0.9654
4125.00,0.9451
4124.00,0.9260
4123.00,0.9082
4122.00,0.8919
4121.00,0.8774
4120.00,0.8649
4119.00,0.8544
4118.00,0.8462
4117.00,0.8402
4116.00,0.8366
4115.00,0.8354
4114.00,0.8366
4113.00,0.8402
4112.00,0.8462
4111.00,0.8544
4110.00,0.8647
4109.00,0.8770
4108.00,0.8910
4107.00,0.9067
4106.00,0.9238
4105.00,0.9423
4104.00,0.9619
4103.00,0.9824
4102.00,1.0038
4101.00,1.0259
4100.00,1.0486
4099.00,1.0717
4098.00,1.0950
4097.00,1.1186
4096.00,1.1422
4095.00,1.1658
4094.00,1.1894
4093.00,1.2129
4092.00,1.2364
4091.00,1.2598
4090.00,1.2831
4089.00,1.3061
4088.00,1.3288
4087.00,1.3510
4086.00,1.3726
4085.00,1.3936
4084.00,1.4140
4083.00,1.4338
4082.00,1.4530
4081.00,1.4717
4080.00,1.4896
4079.00,1.5067
4078.00,1.5232
4077.00,1.5391
4076.00,1.5546
4075.00,1.5694
4074.00,1.5835
4073.00,1.5969
4072.00,1.6096
4071.00,1.6216
4070.00,1.6330
4069.00,1.6438
4068.00,1.6539
4067.00,1.6634
4066.00,1.6724
4065.00,1.6810
4064.00,1.6891
4063.00,1.6965
4062.00,1.7031
4061.00,1.7090
4060.00,1.7144
4059.00,1.7193
4058.00,1.7239
4057.00,1.7278
4056.00,1.7311
4055.00,1.7340
4054.00,1.7365
4053.00,1.7390
4052.00,1.7410
4051.00,1.7421
4050.00,1.7421
4049.00,1.7412
4048.00,1.7401
4047.00,1.7389
4046.00,1.7377
4045.00,1.7359
4044.00,1.7332
4043.00,1.7295
4042.00,1.7252
4041.00,1.7205
4040.00,1.7158
4039.00,1.7108
4038.00,1.7053
4037.00,1.6991
4036.00,1.6921
4035.00,1.6846
4034.00,1.6766
4033.00,1.6680
4032.00,1.6587
4031.00,1.6487
4030.00,1.6381
4029.00,1.6267
4028.00,1.6146
4027.00,1.6017
4026.00,1.5882
4025.00,1.5742
4024.00,1.5595
4023.00,1.5440
4022.00,1.5277
4021.00,1.5106
4020.00,1.4930
4019.00,1.4747
4018.00,1.4557
4017.00,1.4359
4016.00,1.4155
4015.00,1.3944
4014.00,1.3723
4013.00,1.3492
4012.00,1.3252
4011.00,1.3004
4010.00,1.2750
4009.00,1.2491
4008.00,1.2225
4007.00,1.1956
4006.00,1.1684
4005.00,1.1411
4004.00,1.1139
4003.00,1.0868
4002.00,1.0601
4001.00,1.0338
4000.00,1.0083
3999.00,0.9838
3998.00,0.9605
3997.00,0.9387
3996.00,0.9186
3995.00,0.9003
3994.00,0.8840
3993.00,0.8698
3992.00,0.8581
3991.00,0.8489
3990.00,0.8425
3989.00,0.8388
3988.00,0.8380
3987.00,0.8399
3986.00,0.8445
3985.00,0.8517
3984.00,0.8615
3983.00,0.8736
3982.00,0.8880
3981.00,0.9044
3980.00,0.9224
3979.00,0.9420
3978.00,0.9628
3977.00,0.9847
3976.00,1.0076
3975.00,1.0312
3974.00,1.0553
3973.00,1.0799
3972.00,1.1049
3971.00,1.1299
3970.00,1.1551
3969.00,1.1804
3968.00,1.2058
3967.00,1.2313
3966.00,1.2566
3965.00,1.2816
3964.00,1.3063
3963.00,1.3306
3962.00,1.3545
3961.00,1.3780
3960.00,1.4010
3959.00,1.4234
3958.00,1.4451
3957.00,1.4663
3956.00,1.4868
3955.00,1.5065
3954.00,1.5252
3953.00,1.5430
3952.00,1.5600
3951.00,1.5764
3950.00,1.5922
3949.00,1.6076
3948.00,1.6222
3947.00,1.6359
3946.00,1.6489
3945.00,1.6612
3944.00,1.6730
3943.00,1.6845
3942.00,1.6954
3941.00,1.7055
3940.00,1.7146
3939.00,1.7229
3938.00,1.7307
3937.00,1.7381
3936.00,1.7452
3935.00,1.7516
3934.00,1.7573
3933.00,1.7625
3932.00,1.7675
3931.00,1.7720
3930.00,1.7760
3929.00,1.7790
3928.00,1.7813
3927.00,1.7830
3926.00,1.7842
3925.00,1.7851
3924.00,1.7857
3923.00,1.7856
3922.00,1.7849
3921.00,1.7835
3920.00,1.7819
3919.00,1.7801
3918.00,1.7779
3917.00,1.7752
3916.00,1.7717
3915.00,1.7675
3914.00,1.7627
3913.00,1.7573
3912.00,1.7513
3911.00,1.7448
3910.00,1.7377
3909.00,1.7300
3908.00,1.7216
3907.00,1.7125
3906.00,1.7024
3905.00,1.6912
3904.00,1.6792
3903.00,1.6667
3902.00,1.6541
3901.00,1.6413
3900.00,1.6282
3899.00,1.6146
3898.00,1.6002
3897.00,1.5851
3896.00,1.5695
3895.00,1.5535
3894.00,1.5365
3893.00,1.5182
3892.00,1.4984
3891.00,1.4775
3890.00,1.4563
3889.00,1.4352
3888.00,1.4138
3887.00,1.3914
3886.00,1.3671
3885.00,1.3412
3884.00,1.3146
3883.00,1.2877
3882.00,1.2600
3881.00,1.2310
3880.00,1.2010
3879.00,1.1707
3878.00,1.1410
3877.00,1.1122
3876.00,1.0839
3875.00,1.0558
3874.00,1.0278
3873.00,1.0006
3872.00,0.9744
3871.00,0.9489
3870.00,0.9244
3869.00,0.9019
3868.00,0.8823
3867.00,0.8659
3866.00,0.8527
3865.00,0.8423
3864.00,0.8346
3863.00,0.8293
3862.00,0.8265
3861.00,0.8268
3860.00,0.8304
3859.00,0.8374
3858.00,0.8473
3857.00,0.8594
3856.00,0.8738
3855.00,0.8913
3854.00,0.9130
3853.00,0.9385
3852.00,0.9656
3851.00,0.9915
3850.00,1.0150
3849.00,1.0380
3848.00,1.0617
3847.00,1.0859
3846.00,1.1107
3845.00,1.1364
3844.00,1.1633
3843.00,1.1909
3842.00,1.2182
3841.00,1.2448
3840.00,1.2708
3839.00,1.2971
3838.00,1.3246
3837.00,1.3529
3836.00,1.3810
3835.00,1.4080
3834.00,1.4338
3833.00,1.4585
3832.00,1.4824
3831.00,1.5055
3830.00,1.5278
3829.00,1.5493
3828.00,1.5699
3827.00,1.5896
3826.00,1.6081
3825.00,1.6253
3824.00,1.6407
3823.00,1.6550
3822.00,1.6697
3821.00,1.6852
3820.00,1.7006
3819.00,1.7146
3818.00,1.7265
3817.00,1.7374
3816.00,1.7486
3815.00,1.7597
3814.00,1.7702
3813.00,1.7799
3812.00,1.7889
3811.00,1.7973
3810.00,1.8049
3809.00,1.8113
3808.00,1.8170
3807.00,1.8226
3806.00,1.8279
3805.00,1.8323
3804.00,1.8352
3803.00,1.8373
3802.00,1.8396
3801.00,1.8420
3800.00,1.8437
3799.00,1.8442
3798.00,1.8438
3797.00,1.8433
3796.00,1.8428
3795.00,1.8418
3794.00,1.8403
3793.00,1.8385
3792.00,1.8363
3791.00,1.8338
3790.00,1.8308
3789.00,1.8272
3788.00,1.8228
3787.00,1.8179
3786.00,1.8123
3785.00,1.8056
3784.00,1.7977
3783.00,1.7890
3782.00,1.7798
3781.00,1.7701
3780.00,1.7597
3779.00,1.7489
3778.00,1.7377
3777.00,1.7260
3776.00,1.7136
3775.00,1.7009
3774.00,1.6878
3773.00,1.6739
3772.00,1.6588
3771.00,1.6424
3770.00,1.6248
3769.00,1.6059
3768.00,1.5859
3767.00,1.5651
3766.00,1.5437
3765.00,1.5217
3764.00,1.4990
3763.00,1.4757
3762.00,1.4514
3761.00,1.4257
3760.00,1.3982
3759.00,1.3692
3758.00,1.3391
3757.00,1.3083
3756.00,1.2775
3755.00,1.2473
3754.00,1.2173
3753.00,1.1863
3752.00,1.1537
3751.00,1.1195
3750.00,1.0847
3749.00,1.0509
3748.00,1.0203
3747.00,0.9935
3746.00,0.9695
3745.00,0.9460
3744.00,0.9228
3743.00,0.9022
3742.00,0.8863
3741.00,0.8749
3740.00,0.8670
3739.00,0.8619
3738.00,0.8596
3737.00,0.8608
3736.00,0.8661
3735.00,0.8751
3734.00,0.8871
3733.00,0.9014
3732.00,0.9180
3731.00,0.9369
3730.00,0.9574
3729.00,0.9785
3728.00,1.0002
3727.00,1.0230
3726.00,1.0467
3725.00,1.0710
3724.00,1.0953
3723.00,1.1197
3722.00,1.1444
3721.00,1.1698
3720.00,1.1957
3719.00,1.2222
3718.00,1.2494
3717.00,1.2773
3716.00,1.3056
3715.00,1.3340
3714.00,1.3629
3713.00,1.3934
3712.00,1.4261
3711.00,1.4605
3710.00,1.4948
3709.00,1.5275
3708.00,1.5580
3707.00,1.5858
3706.00,1.6104
3705.00,1.6312
3704.00,1.6488
3703.00,1.6644
3702.00,1.6795
3701.00,1.6946
3700.00,1.7095
3699.00,1.7238
3698.00,1.7374
3697.00,1.7512
3696.00,1.7650
3695.00,1.7783
3694.00,1.7906
3693.00,1.8023
3692.00,1.8137
3691.00,1.8248
3690.00,1.8355
3689.00,1.8459
3688.00,1.8557
3687.00,1.8642
3686.00,1.8715
3685.00,1.8784
3684.00,1.8853
3683.00,1.8914
3682.00,1.8962
3681.00,1.9000
3680.00,1.9031
3679.00,1.9053
3678.00,1.9064
3677.00,1.9067
3676.00,1.9070
3675.00,1.9078
3674.00,1.9087
3673.00,1.9090
3672.00,1.9084
3671.00,1.9073
3670.00,1.9057
3669.00,1.9034
3668.00,1.9007
3667.00,1.8978
3666.00,1.8950
3665.00,1.8923
3664.00,1.8890
3663.00,1.8846
3662.00,1.8793
3661.00,1.8735
3660.00,1.8671
3659.00,1.8597
3658.00,1.8511
3657.00,1.8413
3656.00,1.8309
3655.00,1.8205
3654.00,1.8101
3653.00,1.7994
3652.00,1.7879
3651.00,1.7752
3650.00,1.7613
3649.00,1.7466
3648.00,1.7312
3647.00,1.7153
3646.00,1.6994
3645.00,1.6848
3644.00,1.6714
3643.00,1.6579
3642.00,1.6437
3641.00,1.6286
3640.00,1.6131
3639.00,1.5974
3638.00,1.5819
3637.00,1.5665
3636.00,1.5512
3635.00,1.5357
3634.00,1.5205
3633.00,1.5058
3632.00,1.4917
3631.00,1.4776
3630.00,1.4632
3629.00,1.4483
3628.00,1.4336
3627.00,1.4196
3626.00,1.4065
3625.00,1.3942
3624.00,1.3829
3623.00,1.3723
3622.00,1.3625
3621.00,1.3538
3620.00,1.3466
3619.00,1.3408
3618.00,1.3363
3617.00,1.3332
3616.00,1.3318
3615.00,1.3325
3614.00,1.3356
3613.00,1.3409
3612.00,1.3482
3611.00,1.3575
3610.00,1.3687
3609.00,1.3819
3608.00,1.3968
3607.00,1.4122
3606.00,1.4273
3605.00,1.4414
3604.00,1.4543
3603.00,1.4665
3602.00,1.4784
3601.00,1.4904
3600.00,1.5030
3599.00,1.5162
3598.00,1.5298
3597.00,1.5441
3596.00,1.5594
3595.00,1.5756
3594.00,1.5927
3593.00,1.6104
3592.00,1.6283
3591.00,1.6462
3590.00,1.6641
3589.00,1.6823
3588.00,1.7011
3587.00,1.7202
3586.00,1.7388
3585.00,1.7564
3584.00,1.7731
3583.00,1.7893
3582.00,1.8050
3581.00,1.8204
3580.00,1.8354
3579.00,1.8502
3578.00,1.8648
3577.00,1.8791
3576.00,1.8928
3575.00,1.9058
3574.00,1.9181
3573.00,1.9300
3572.00,1.9413
3571.00,1.9517
3570.00,1.9613
3569.00,1.9707
3568.00,1.9803
3567.00,1.9903
3566.00,2.0000
3565.00,2.0090
3564.00,2.0168
3563.00,2.0232
3562.00,2.0287
3561.00,2.0341
3560.00,2.0398
3559.00,2.0459
3558.00,2.0524
3557.00,2.0585
3556.00,2.0638
3555.00,2.0678
3554.00,2.0707
3553.00,2.0734
3552.00,2.0763
3551.00,2.0792
3550.00,2.0819
3549.00,2.0842
3548.00,2.0861
3547.00,2.0874
3546.00,2.0881
3545.00,2.0887
3544.00,2.0891
3543.00,2.0891
3542.00,2.0883
3541.00,2.0869
3540.00,2.0849
3539.00,2.0823
3538.00,2.0794
3537.00,2.0768
3536.00,2.0746
3535.00,2.0722
3534.00,2.0693
3533.00,2.0659
3532.00,2.0623
3531.00,2.0586
3530.00,2.0547
3529.00,2.0503
3528.00,2.0451
3527.00,2.0389
3526.00,2.0322
3525.00,2.0256
3524.00,2.0193
3523.00,2.0130
3522.00,2.0064
3521.00,1.9996
3520.00,1.9925
3519.00,1.9850
3518.00,1.9772
3517.00,1.9691
3516.00,1.9607
3515.00,1.9519
3514.00,1.9426
3513.00,1.9329
3512.00,1.9227
3511.00,1.9120
3510.00,1.9010
3509.00,1.8899
3508.00,1.8788
3507.00,1.8676
3506.00,1.8564
3505.00,1.8450
3504.00,1.8332
3503.00,1.8208
3502.00,1.8079
3501.00,1.7950
3500.00,1.7821
3499.00,1.7691
3498.00,1.7562
3497.00,1.7437
3496.00,1.7315
3495.00,1.7196
3494.00,1.7079
3493.00,1.6961
3492.00,1.6844
3491.00,1.6727
3490.00,1.6615
3489.00,1.6511
3488.00,1.6417
3487.00,1.6328
3486.00,1.6244
3485.00,1.6166
3484.00,1.6097
3483.00,1.6036
3482.00,1.5985
3481.00,1.5942
3480.00,1.5909
3479.00,1.5887
3478.00,1.5877
3477.00,1.5880
3476.00,1.5893
3475.00,1.5916
3474.00,1.5947
3473.00,1.5988
3472.00,1.6038
3471.00,1.6096
3470.00,1.6161
3469.00,1.6235
3468.00,1.6318
3467.00,1.6411
3466.00,1.6510
3465.00,1.6616
3464.00,1.6729
3463.00,1.6849
3462.00,1.6973
3461.00,1.7100
3460.00,1.7227
3459.00,1.7356
3458.00,1.7488
3457.00,1.7626
3456.00,1.7766
3455.00,1.7906
3454.00,1.8047
3453.00,1.8188
3452.00,1.8328
3451.00,1.8468
3450.00,1.8605
3449.00,1.8741
3448.00,1.8875
3447.00,1.9007
3446.00,1.9136
3445.00,1.9264
3444.00,1.9391
3443.00,1.9517
3442.00,1.9640
3441.00,1.9759
3440.00,1.9871
3439.00,1.9977
3438.00,2.0080
3437.00,2.0182
3436.00,2.0281
3435.00,2.0374
3434.00,2.0460
3433.00,2.0542
3432.00,2.0623
3431.00,2.0701
3430.00,2.0777
3429.00,2.0853
3428.00,2.0927
3427.00,2.0996
3426.00,2.1058
3425.00,2.1116
3424.00,2.1172
3423.00,2.1227
3422.00,2.1278
3421.00,2.1325
3420.00,2.1365
3419.00,2.1395
3418.00,2.1416
3417.00,2.1432
3416.00,2.1447
3415.00,2.1465
3414.00,2.1486
3413.00,2.1508
3412.00,2.1526
3411.00,2.1535
3410.00,2.1534
3409.00,2.1528
3408.00,2.1521
3407.00,2.1512
3406.00,2.1500
3405.00,2.1481
3404.00,2.1453
3403.00,2.1417
3402.00,2.1375
3401.00,2.1331
3400.00,2.1287
3399.00,2.1241
3398.00,2.1190
3397.00,2.1128
3396.00,2.1055
3395.00,2.0972
3394.00,2.0887
3393.00,2.0805
3392.00,2.0724
3391.00,2.0638
3390.00,2.0543
3389.00,2.0442
3388.00,2.0334
3387.00,2.0220
3386.00,2.0097
3385.00,1.9965
3384.00,1.9826
3383.00,1.9681
3382.00,1.9535
3381.00,1.9389
3380.00,1.9244
3379.00,1.9094
3378.00,1.8935
3377.00,1.8767
3376.00,1.8591
3375.00,1.8413
3374.00,1.8233
3373.00,1.8049
3372.00,1.7861
3371.00,1.7667
3370.00,1.7469
3369.00,1.7269
3368.00,1.7067
3367.00,1.6864
3366.00,1.6660
3365.00,1.6456
3364.00,1.6255
3363.00,1.6059
3362.00,1.5867
3361.00,1.5681
3360.00,1.5504
3359.00,1.5336
3358.00,1.5178
3357.00,1.5032
3356.00,1.4898
3355.00,1.4778
3354.00,1.4673
3353.00,1.4583
3352.00,1.4512
3351.00,1.4460
3350.00,1.4427
3349.00,1.4412
3348.00,1.4414
3347.00,1.4433
3346.00,1.4470
3345.00,1.4524
3344.00,1.4596
3343.00,1.4684
3342.00,1.4787
3341.00,1.4904
3340.00,1.5034
3339.00,1.5175
3338.00,1.5325
3337.00,1.5484
3336.00,1.5652
3335.00,1.5828
3334.00,1.6009
3333.00,1.6193
3332.00,1.6381
3331.00,1.6573
3330.00,1.6767
3329.00,1.6962
3328.00,1.7158
3327.00,1.7354
3326.00,1.7549
3325.00,1.7740
3324.00,1.7928
3323.00,1.8110
3322.00,1.8289
3321.00,1.8467
3320.00,1.8644
3319.00,1.8819
3318.00,1.8990
3317.00,1.9157
3316.00,1.9319
3315.00,1.9473
3314.00,1.9618
3313.00,1.9757
3312.00,1.9890
3311.00,2.0017
3310.00,2.0139
3309.00,2.0253
3308.00,2.0363
3307.00,2.0466
3306.00,2.0566
3305.00,2.0660
3304.00,2.0750
3303.00,2.0835
3302.00,2.0916
3301.00,2.0993
3300.00,2.1065
3299.00,2.1132
3298.00,2.1194
3297.00,2.1251
3296.00,2.1301
3295.00,2.1342
3294.00,2.1376
3293.00,2.1407
3292.00,2.1438
3291.00,2.1467
3290.00,2.1493
3289.00,2.1513
3288.00,2.1524
3287.00,2.1526
3286.00,2.1520
3285.00,2.1511
3284.00,2.1504
3283.00,2.1499
3282.00,2.1491
3281.00,2.1472
3280.00,2.1441
3279.00,2.1399
3278.00,2.1352
3277.00,2.1306
3276.00,2.1260
3275.00,2.1212
3274.00,2.1158
3273.00,2.1097
3272.00,2.1028
3271.00,2.0955
3270.00,2.0878
3269.00,2.0799
3268.00,2.0713
3267.00,2.0619
3266.00,2.0520
3265.00,2.0419
3264.00,2.0316
3263.00,2.0210
3262.00,2.0099
3261.00,1.9980
3260.00,1.9856
3259.00,1.9727
3258.00,1.9596
3257.00,1.9463
3256.00,1.9324
3255.00,1.9176
3254.00,1.9018
3253.00,1.8853
3252.00,1.8685
3251.00,1.8515
3250.00,1.8344
3249.00,1.8175
3248.00,1.8005
3247.00,1.7834
3246.00,1.7658
3245.00,1.7478
3244.00,1.7297
3243.00,1.7119
3242.00,1.6943
3241.00,1.6768
3240.00,1.6595
3239.00,1.6425
3238.00,1.6262
3237.00,1.6108
3236.00,1.5965
3235.00,1.5831
3234.00,1.5705
3233.00,1.5591
3232.00,1.5487
3231.00,1.5397
3230.00,1.5323
3229.00,1.5265
3228.00,1.5223
3227.00,1.5197
3226.00,1.5187
3225.00,1.5192
3224.00,1.5214
3223.00,1.5250
3222.00,1.5303
3221.00,1.5373
3220.00,1.5459
3219.00,1.5560
3218.00,1.5673
3217.00,1.5796
3216.00,1.5928
3215.00,1.6070
3214.00,1.6220
3213.00,1.6380
3212.00,1.6547
3211.00,1.6722
3210.00,1.6903
3209.00,1.7087
3208.00,1.7269
3207.00,1.7448
3206.00,1.7628
3205.00,1.7811
3204.00,1.7997
3203.00,1.8182
3202.00,1.8366
3201.00,1.8548
3200.00,1.8729
3199.00,1.8908
3198.00,1.9084
3197.00,1.9259
3196.00,1.9432
3195.00,1.9597
3194.00,1.9754
3193.00,1.9905
3192.00,2.0049
3191.00,2.0188
3190.00,2.0324
3189.00,2.0462
3188.00,2.0600
3187.00,2.0734
3186.00,2.0862
3185.00,2.0982
3184.00,2.1092
3183.00,2.1194
3182.00,2.1288
3181.00,2.1378
3180.00,2.1464
3179.00,2.1542
3178.00,2.1614
3177.00,2.1681
3176.00,2.1745
3175.00,2.1808
3174.00,2.1868
3173.00,2.1924
3172.00,2.1974
3171.00,2.2013
3170.00,2.2045
3169.00,2.2076
3168.00,2.2109
3167.00,2.2142
3166.00,2.2168
3165.00,2.2185
3164.00,2.2191
3163.00,2.2192
3162.00,2.2189
3161.00,2.2184
3160.00,2.2177
3159.00,2.2167
3158.00,2.2155
3157.00,2.2142
3156.00,2.2129
3155.00,2.2108
3154.00,2.2074
3153.00,2.2027
3152.00,2.1971
3151.00,2.1912
3150.00,2.1852
3149.00,2.1790
3148.00,2.1722
3147.00,2.1648
3146.00,2.1567
3145.00,2.1481
3144.00,2.1390
3143.00,2.1295
3142.00,2.1197
3141.00,2.1096
3140.00,2.0989
3139.00,2.0875
3138.00,2.0752
3137.00,2.0622
3136.00,2.0486
3135.00,2.0342
3134.00,2.0190
3133.00,2.0032
3132.00,1.9869
3131.00,1.9702
3130.00,1.9532
3129.00,1.9356
3128.00,1.9175
3127.00,1.8990
3126.00,1.8801
3125.00,1.8611
3124.00,1.8419
3123.00,1.8225
3122.00,1.8026
3121.00,1.7824
3120.00,1.7621
3119.00,1.7423
3118.00,1.7229
3117.00,1.7040
3116.00,1.6857
3115.00,1.6679
3114.00,1.6509
3113.00,1.6351
3112.00,1.6206
3111.00,1.6079
3110.00,1.5967
3109.00,1.5872
3108.00,1.5791
3107.00,1.5726
3106.00,1.5679
3105.00,1.5652
3104.00,1.5647
3103.00,1.5662
3102.00,1.5697
3101.00,1.5754
3100.00,1.5832
3099.00,1.5928
3098.00,1.6041
3097.00,1.6168
3096.00,1.6309
3095.00,1.6464
3094.00,1.6631
3093.00,1.6809
3092.00,1.6995
3091.00,1.7191
3090.00,1.7396
3089.00,1.7606
3088.00,1.7819
3087.00,1.8031
3086.00,1.8242
3085.00,1.8453
3084.00,1.8664
3083.00,1.8873
3082.00,1.9081
3081.00,1.9286
3080.00,1.9488
3079.00,1.9686
3078.00,1.9878
3077.00,2.0062
3076.00,2.0237
3075.00,2.0404
3074.00,2.0565
3073.00,2.0722
3072.00,2.0875
3071.00,2.1022
3070.00,2.1166
3069.00,2.1310
3068.00,2.1452
3067.00,2.1584
3066.00,2.1705
3065.00,2.1819
3064.00,2.1927
3063.00,2.2030
3062.00,2.2125
3061.00,2.2215
3060.00,2.2303
3059.00,2.2390
3058.00,2.2473
3057.00,2.2546
3056.00,2.2603
3055.00,2.2650
3054.00,2.2694
3053.00,2.2739
3052.00,2.2781
3051.00,2.2815
3050.00,2.2839
3049.00,2.2856
3048.00,2.2869
3047.00,2.2876
3046.00,2.2876
3045.00,2.2867
3044.00,2.2846
3043.00,2.2808
3042.00,2.2756
3041.00,2.2695
3040.00,2.2630
3039.00,2.2564
3038.00,2.2496
3037.00,2.2426
3036.00,2.2353
3035.00,2.2271
3034.00,2.2172
3033.00,2.2054
3032.00,2.1923
3031.00,2.1784
3030.00,2.1641
3029.00,2.1495
3028.00,2.1344
3027.00,2.1184
3026.00,2.1017
3025.00,2.0841
3024.00,2.0654
3023.00,2.0455
3022.00,2.0246
3021.00,2.0028
3020.00,1.9804
3019.00,1.9574
3018.00,1.9342
3017.00,1.9110
3016.00,1.8881
3015.00,1.8656
3014.00,1.8437
3013.00,1.8229
3012.00,1.8037
3011.00,1.7867
3010.00,1.7725
3009.00,1.7615
3008.00,1.7543
3007.00,1.7512
3006.00,1.7524
3005.00,1.7582
3004.00,1.7685
3003.00,1.7833
3002.00,1.8025
3001.00,1.8255
3000.00,1.8518
2999.00,1.8812
2998.00,1.9132
2997.00,1.9476
2996.00,1.9839
2995.00,2.0215
2994.00,2.0598
2993.00,2.0987
2992.00,2.1379
2991.00,2.1772
2990.00,2.2162
2989.00,2.2545
2988.00,2.2918
2987.00,2.3278
2986.00,2.3624
2985.00,2.3959
2984.00,2.4284
2983.00,2.4602
2982.00,2.4921
2981.00,2.5249
2980.00,2.5591
2979.00,2.5940
2978.00,2.6292
2977.00,2.6651
2976.00,2.7031
2975.00,2.7450
2974.00,2.7916
2973.00,2.8422
2972.00,2.8956
2971.00,2.9522
2970.00,3.0146
2969.00,3.0858
2968.00,3.1657
2967.00,3.2508
2966.00,3.3363
2965.00,3.4217
2964.00,3.5130
2963.00,3.6179
2962.00,3.7388
2961.00,3.8706
2960.00,4.0084
2959.00,4.1627
2958.00,4.3627
2957.00,4.5590
2956.00,4.5794
2955.00,4.5310
2954.00,4.5597
2953.00,4.6695
2952.00,4.6489
2951.00,4.4718
2950.00,4.3128
2949.00,4.2284
2948.00,4.2325
2947.00,4.3189
2946.00,4.4545
2945.00,4.5570
2944.00,4.5159
2943.00,4.3630
2942.00,4.2229
2941.00,4.1594
2940.00,4.1930
2939.00,4.3207
2938.00,4.5105
2937.00,4.7327
2936.00,4.8999
2935.00,4.8726
2934.00,4.7723
2933.00,4.7734
2932.00,4.9473
2931.00,4.8919
2930.00,4.6446
2929.00,4.5199
2928.00,4.5274
2927.00,4.4636
2926.00,4.3489
2925.00,4.3111
2924.00,4.3384
2923.00,4.3002
2922.00,4.1949
2921.00,4.0995
2920.00,4.0080
2919.00,3.9033
2918.00,3.8073
2917.00,3.7292
2916.00,3.6583
2915.00,3.5869
2914.00,3.5172
2913.00,3.4543
2912.00,3.3983
2911.00,3.3456
2910.00,3.2944
2909.00,3.2460
2908.00,3.2031
2907.00,3.1681
2906.00,3.1408
2905.00,3.1175
2904.00,3.0921
2903.00,3.0606
2902.00,3.0244
2901.00,2.9884
2900.00,2.9569
2899.00,2.9314
2898.00,2.9110
2897.00,2.8939
2896.00,2.8785
2895.00,2.8645
2894.00,2.8523
2893.00,2.8421
2892.00,2.8339
2891.00,2.8292
2890.00,2.8296
2889.00,2.8347
2888.00,2.8419
2887.00,2.8493
2886.00,2.8572
2885.00,2.8660
2884.00,2.8758
2883.00,2.8877
2882.00,2.9041
2881.00,2.9267
2880.00,2.9546
2879.00,2.9861
2878.00,3.0212
2877.00,3.0604
2876.00,3.1020
2875.00,3.1433
2874.00,3.1854
2873.00,3.2327
2872.00,3.2879
2871.00,3.3502
2870.00,3.4190
2869.00,3.4964
2868.00,3.5825
2867.00,3.6738
2866.00,3.7696
2865.00,3.8750
2864.00,3.9716
2863.00,3.9937
2862.00,3.9181
2861.00,3.8105
2860.00,3.7238
2859.00,3.6609
2858.00,3.6020
2857.00,3.5268
2856.00,3.4296
2855.00,3.3202
2854.00,3.2090
2853.00,3.1011
2852.00,2.9994
2851.00,2.9059
2850.00,2.8216
2849.00,2.7469
2848.00,2.6825
2847.00,2.6301
2846.00,2.5905
2845.00,2.5620
2844.00,2.5416
2843.00,2.5265
2842.00,2.5159
2841.00,2.5095
2840.00,2.5058
2839.00,2.5033
2838.00,2.5014
2837.00,2.5005
2836.00,2.5003
2835.00,2.5001
2834.00,2.4986
2833.00,2.4954
2832.00,2.4905
2831.00,2.4845
2830.00,2.4782
2829.00,2.4720
2828.00,2.4654
2827.00,2.4574
2826.00,2.4479
2825.00,2.4370
2824.00,2.4248
2823.00,2.4109
2822.00,2.3955
2821.00,2.3784
2820.00,2.3596
2819.00,2.3387
2818.00,2.3162
2817.00,2.2930
2816.00,2.2694
2815.00,2.2446
2814.00,2.2179
2813.00,2.1894
2812.00,2.1595
2811.00,2.1286
2810.00,2.0966
2809.00,2.0634
2808.00,2.0288
2807.00,1.9930
2806.00,1.9564
2805.00,1.9193
2804.00,1.8821
2803.00,1.8455
2802.00,1.8101
2801.00,1.7767
2800.00,1.7454
2799.00,1.7164
2798.00,1.6893
2797.00,1.6638
2796.00,1.6394
2795.00,1.6161
2794.00,1.5943
2793.00,1.5746
2792.00,1.5578
2791.00,1.5449
2790.00,1.5367
2789.00,1.5336
2788.00,1.5359
2787.00,1.5437
2786.00,1.5566
2785.00,1.5741
2784.00,1.5959
2783.00,1.6210
2782.00,1.6488
2781.00,1.6788
2780.00,1.7104
2779.00,1.7431
2778.00,1.7763
2777.00,1.8098
2776.00,1.8434
2775.00,1.8769
2774.00,1.9100
2773.00,1.9421
2772.00,1.9728
2771.00,2.0020
2770.00,2.0301
2769.00,2.0575
2768.00,2.0842
2767.00,2.1098
2766.00,2.1340
2765.00,2.1567
2764.00,2.1780
2763.00,2.1982
2762.00,2.2177
2761.00,2.2367
2760.00,2.2548
2759.00,2.2713
2758.00,2.2862
2757.00,2.3001
2756.00,2.3133
2755.00,2.3257
2754.00,2.3369
2753.00,2.3471
2752.00,2.3567
2751.00,2.3662
2750.00,2.3755
2749.00,2.3844
2748.00,2.3922
2747.00,2.3985
2746.00,2.4032
2745.00,2.4070
2744.00,2.4106
2743.00,2.4143
2742.00,2.4175
2741.00,2.4200
2740.00,2.4217
2739.00,2.4228
2738.00,2.4236
2737.00,2.4241
2736.00,2.4239
2735.00,2.4227
2734.00,2.4203
2733.00,2.4167
2732.00,2.4122
2731.00,2.4070
2730.00,2.4014
2729.00,2.3954
2728.00,2.3890
2727.00,2.3819
2726.00,2.3738
2725.00,2.3643
2724.00,2.3537
2723.00,2.3422
2722.00,2.3301
2721.00,2.3174
2720.00,2.3040
2719.00,2.2899
2718.00,2.2754
2717.00,2.2606
2716.00,2.2452
2715.00,2.2290
2714.00,2.2114
2713.00,2.1924
2712.00,2.1718
2711.00,2.1500
2710.00,2.1270
2709.00,2.1030
2708.00,2.0779
2707.00,2.0516
2706.00,2.0242
2705.00,1.9954
2704.00,1.9651
2703.00,1.9331
2702.00,1.8997
2701.00,1.8651
2700.00,1.8295
2699.00,1.7929
2698.00,1.7558
2697.00,1.7184
2696.00,1.6811
2695.00,1.6442
2694.00,1.6082
2693.00,1.5738
2692.00,1.5415
2691.00,1.5120
2690.00,1.4860
2689.00,1.4643
2688.00,1.4478
2687.00,1.4372
2686.00,1.4327
2685.00,1.4345
2684.00,1.4422
2683.00,1.4555
2682.00,1.4737
2681.00,1.4958
2680.00,1.5207
2679.00,1.5472
2678.00,1.5744
2677.00,1.6015
2676.00,1.6278
2675.00,1.6532
2674.00,1.6777
2673.00,1.7016
2672.00,1.7251
2671.00,1.7484
2670.00,1.7710
2669.00,1.7927
2668.00,1.8135
2667.00,1.8337
2666.00,1.8541
2665.00,1.8750
2664.00,1.8968
2663.00,1.9194
2662.00,1.9431
2661.00,1.9683
2660.00,1.9950
2659.00,2.0226
2658.00,2.0506
2657.00,2.0781
2656.00,2.1047
2655.00,2.1301
2654.00,2.1542
2653.00,2.1773
2652.00,2.1994
2651.00,2.2205
2650.00,2.2406
2649.00,2.2597
2648.00,2.2778
2647.00,2.2948
2646.00,2.3105
2645.00,2.3253
2644.00,2.3396
2643.00,2.3533
2642.00,2.3661
2641.00,2.3774
2640.00,2.3876
2639.00,2.3978
2638.00,2.4087
2637.00,2.4200
2636.00,2.4308
2635.00,2.4402
2634.00,2.4484
2633.00,2.4558
2632.00,2.4630
2631.00,2.4695
2630.00,2.4751
2629.00,2.4795
2628.00,2.4835
2627.00,2.4877
2626.00,2.4921
2625.00,2.4958
2624.00,2.4981
2623.00,2.4995
2622.00,2.5009
2621.00,2.5029
2620.00,2.5046
2619.00,2.5052
2618.00,2.5045
2617.00,2.5027
2616.00,2.5002
2615.00,2.4976
2614.00,2.4953
2613.00,2.4931
2612.00,2.4899
2611.00,2.4853
2610.00,2.4799
2609.00,2.4740
2608.00,2.4675
2607.00,2.4599
2606.00,2.4518
2605.00,2.4437
2604.00,2.4353
2603.00,2.4253
2602.00,2.4139
2601.00,2.4018
2600.00,2.3899
2599.00,2.3779
2598.00,2.3653
2597.00,2.3522
2596.00,2.3383
2595.00,2.3232
2594.00,2.3065
2593.00,2.2882
2592.00,2.2686
2591.00,2.2481
2590.00,2.2266
2589.00,2.2045
2588.00,2.1819
2587.00,2.1587
2586.00,2.1342
2585.00,2.1082
2584.00,2.0808
2583.00,2.0523
2582.00,2.0228
2581.00,1.9918
2580.00,1.9594
2579.00,1.9254
2578.00,1.8899
2577.00,1.8534
2576.00,1.8159
2575.00,1.7776
2574.00,1.7388
2573.00,1.6995
2572.00,1.6602
2571.00,1.6215
2570.00,1.5836
2569.00,1.5471
2568.00,1.5122
2567.00,1.4795
2566.00,1.4496
2565.00,1.4231
2564.00,1.4005
2563.00,1.3824
2562.00,1.3691
2561.00,1.3612
2560.00,1.3589
2559.00,1.3624
2558.00,1.3715
2557.00,1.3861
2556.00,1.4057
2555.00,1.4300
2554.00,1.4582
2553.00,1.4897
2552.00,1.5238
2551.00,1.5598
2550.00,1.5972
2549.00,1.6356
2548.00,1.6747
2547.00,1.7141
2546.00,1.7536
2545.00,1.7929
2544.00,1.8317
2543.00,1.8699
2542.00,1.9074
2541.00,1.9441
2540.00,1.9797
2539.00,2.0137
2538.00,2.0459
2537.00,2.0765
2536.00,2.1060
2535.00,2.1346
2534.00,2.1622
2533.00,2.1885
2532.00,2.2134
2531.00,2.2369
2530.00,2.2591
2529.00,2.2804
2528.00,2.3007
2527.00,2.3200
2526.00,2.3386
2525.00,2.3566
2524.00,2.3740
2523.00,2.3904
2522.00,2.4056
2521.00,2.4197
2520.00,2.4329
2519.00,2.4456
2518.00,2.4583
2517.00,2.4705
2516.00,2.4819
2515.00,2.4919
2514.00,2.5006
2513.00,2.5087
2512.00,2.5165
2511.00,2.5244
2510.00,2.5325
2509.00,2.5404
2508.00,2.5472
2507.00,2.5524
2506.00,2.5563
2505.00,2.5604
2504.00,2.5653
2503.00,2.5708
2502.00,2.5756
2501.00,2.5784
2500.00,2.5792
2499.00,2.5789
2498.00,2.5784
2497.00,2.5782
2496.00,2.5781
2495.00,2.5777
2494.00,2.5771
2493.00,2.5760
2492.00,2.5739
2491.00,2.5708
2490.00,2.5670
2489.00,2.5631
2488.00,2.5587
2487.00,2.5528
2486.00,2.5450
2485.00,2.5360
2484.00,2.5274
2483.00,2.5200
2482.00,2.5131
2481.00,2.5053
2480.00,2.4952
2479.00,2.4832
2478.00,2.4707
2477.00,2.4588
2476.00,2.4476
2475.00,2.4360
2474.00,2.4231
2473.00,2.4082
2472.00,2.3914
2471.00,2.3734
2470.00,2.3550
2469.00,2.3364
2468.00,2.3172
2467.00,2.2967
2466.00,2.2749
2465.00,2.2519
2464.00,2.2278
2463.00,2.2024
2462.00,2.1754
2461.00,2.1467
2460.00,2.1166
2459.00,2.0852
2458.00,2.0523
2457.00,2.0177
2456.00,1.9812
2455.00,1.9429
2454.00,1.9027
2453.00,1.8609
2452.00,1.8174
2451.00,1.7723
2450.00,1.7258
2449.00,1.6784
2448.00,1.6307
2447.00,1.5832
2446.00,1.5368
2445.00,1.4922
2444.00,1.4504
2443.00,1.4122
2442.00,1.3785
2441.00,1.3502
2440.00,1.3281
2439.00,1.3127
2438.00,1.3043
2437.00,1.3035
2436.00,1.3102
2435.00,1.3243
2434.00,1.3451
2433.00,1.3721
2432.00,1.4042
2431.00,1.4404
2430.00,1.4797
2429.00,1.5211
2428.00,1.5638
2427.00,1.6072
2426.00,1.6510
2425.00,1.6949
2424.00,1.7386
2423.00,1.7819
2422.00,1.8246
2421.00,1.8665
2420.00,1.9076
2419.00,1.9478
2418.00,1.9868
2417.00,2.0244
2416.00,2.0607
2415.00,2.0957
2414.00,2.1295
2413.00,2.1618
2412.00,2.1926
2411.00,2.2215
2410.00,2.2489
2409.00,2.2750
2408.00,2.3001
2407.00,2.3242
2406.00,2.3476
2405.00,2.3700
2404.00,2.3913
2403.00,2.4114
2402.00,2.4304
2401.00,2.4484
2400.00,2.4653
2399.00,2.4808
2398.00,2.4954
2397.00,2.5099
2396.00,2.5249
2395.00,2.5397
2394.00,2.5531
2393.00,2.5646
2392.00,2.5746
2391.00,2.5840
2390.00,2.5935
2389.00,2.6036
2388.00,2.6131
2387.00,2.6230
2386.00,2.6309
2385.00,2.6441
2384.00,2.6388
2383.00,2.6398
2382.00,2.6475
2381.00,2.6521
2380.00,2.6591
2379.00,2.6602
2378.00,2.6697
2377.00,2.6627
2376.00,2.6846
2375.00,2.6451
2374.00,3.0148
2373.00,3.3279
2372.00,3.2724
2371.00,3.4070
2370.00,3.4141
2369.00,3.4805
2368.00,3.4852
2367.00,3.4890
2366.00,3.4628
2365.00,3.4192
2364.00,3.3619
2363.00,3.2964
2362.00,3.2272
2361.00,3.1557
2360.00,3.0827
2359.00,3.0105
2358.00,2.9439
2357.00,2.8874
2356.00,2.8438
2355.00,2.8124
2354.00,2.7898
2353.00,2.7726
2352.00,2.7586
2351.00,2.7466
2350.00,2.7329
2349.00,2.7115
2348.00,2.6813
2347.00,2.6489
2346.00,2.6197
2345.00,2.5926
2344.00,2.5674
2343.00,2.5471
2342.00,2.5279
2341.00,2.5023
2340.00,2.4701
2339.00,2.4388
2338.00,2.4104
2337.00,2.3818
2336.00,2.3524
2335.00,2.3231
2334.00,2.2947
2333.00,2.2684
2332.00,2.2474
2331.00,2.2342
2330.00,2.2295
2329.00,2.2316
2328.00,2.2381
2327.00,2.2454
2326.00,2.2493
2325.00,2.2455
2324.00,2.2315
2323.00,2.2096
2322.00,2.1871
2321.00,2.1722
2320.00,2.1667
2319.00,2.1651
2318.00,2.1603
2317.00,2.1504
2316.00,2.1383
2315.00,2.1267
2314.00,2.1162
2313.00,2.1061
2312.00,2.0980
2311.00,2.0945
2310.00,2.0976
2309.00,2.1063
2308.00,2.1185
2307.00,2.1318
2306.00,2.1450
2305.00,2.1580
2304.00,2.1713
2303.00,2.1854
2302.00,2.2005
2301.00,2.2160
2300.00,2.2311
2299.00,2.2451
2298.00,2.2581
2297.00,2.2708
2296.00,2.2838
2295.00,2.2973
2294.00,2.3111
2293.00,2.3248
2292.00,2.3382
2291.00,2.3511
2290.00,2.3641
2289.00,2.3778
2288.00,2.3923
2287.00,2.4075
2286.00,2.4233
2285.00,2.4394
2284.00,2.4554
2283.00,2.4711
2282.00,2.4866
2281.00,2.5027
2280.00,2.5199
2279.00,2.5376
2278.00,2.5541
2277.00,2.5678
2276.00,2.5781
2275.00,2.5861
2274.00,2.5934
2273.00,2.6011
2272.00,2.6095
2271.00,2.6184
2270.00,2.6275
2269.00,2.6364
2268.00,2.6454
2267.00,2.6549
2266.00,2.6655
2265.00,2.6771
2264.00,2.6883
2263.00,2.6979
2262.00,2.7056
2261.00,2.7124
2260.00,2.7189
2259.00,2.7252
2258.00,2.7310
2257.00,2.7358
2256.00,2.7397
2255.00,2.7434
2254.00,2.7477
2253.00,2.7523
2252.00,2.7559
2251.00,2.7582
2250.00,2.7594
2249.00,2.7593
2248.00,2.7574
2247.00,2.7543
2246.00,2.7520
2245.00,2.7514
2244.00,2.7509
2243.00,2.7483
2242.00,2.7432
2241.00,2.7371
2240.00,2.7314
2239.00,2.7262
2238.00,2.7202
2237.00,2.7125
2236.00,2.7035
2235.00,2.6945
2234.00,2.6868
2233.00,2.6794
2232.00,2.6701
2231.00,2.6585
2230.00,2.6459
2229.00,2.6335
2228.00,2.6205
2227.00,2.6061
2226.00,2.5909
2225.00,2.5760
2224.00,2.5607
2223.00,2.5436
2222.00,2.5242
2221.00,2.5035
2220.00,2.4825
2219.00,2.4612
2218.00,2.4392
2217.00,2.4161
2216.00,2.3916
2215.00,2.3656
2214.00,2.3381
2213.00,2.3092
2212.00,2.2789
2211.00,2.2469
2210.00,2.2126
2209.00,2.1761
2208.00,2.1376
2207.00,2.0973
2206.00,2.0549
2205.00,2.0100
2204.00,1.9629
2203.00,1.9140
2202.00,1.8637
2201.00,1.8124
2200.00,1.7602
2199.00,1.7076
2198.00,1.6556
2197.00,1.6055
2196.00,1.5588
2195.00,1.5168
2194.00,1.4806
2193.00,1.4513
2192.00,1.4301
2191.00,1.4176
2190.00,1.4142
2189.00,1.4199
2188.00,1.4342
2187.00,1.4564
2186.00,1.4855
2185.00,1.5204
2184.00,1.5601
2183.00,1.6034
2182.00,1.6493
2181.00,1.6967
2180.00,1.7448
2179.00,1.7927
2178.00,1.8397
2177.00,1.8855
2176.00,1.9300
2175.00,1.9730
2174.00,2.0147
2173.00,2.0551
2172.00,2.0944
2171.00,2.1327
2170.00,2.1703
2169.00,2.2071
2168.00,2.2430
2167.00,2.2776
2166.00,2.3105
2165.00,2.3418
2164.00,2.3718
2163.00,2.4005
2162.00,2.4285
2161.00,2.4564
2160.00,2.4838
2159.00,2.5094
2158.00,2.5321
2157.00,2.5521
2156.00,2.5703
2155.00,2.5876
2154.00,2.6045
2153.00,2.6216
2152.00,2.6398
2151.00,2.6590
2150.00,2.6779
2149.00,2.6945
2148.00,2.7081
2147.00,2.7198
2146.00,2.7312
2145.00,2.7426
2144.00,2.7534
2143.00,2.7636
2142.00,2.7741
2141.00,2.7849
2140.00,2.7947
2139.00,2.8029
2138.00,2.8096
2137.00,2.8150
2136.00,2.8181
2135.00,2.8186
2134.00,2.8181
2133.00,2.8193
2132.00,2.8228
2131.00,2.8282
2130.00,2.8343
2129.00,2.8401
2128.00,2.8435
2127.00,2.8429
2126.00,2.8394
2125.00,2.8363
2124.00,2.8354
2123.00,2.8358
2122.00,2.8358
2121.00,2.8345
2120.00,2.8317
2119.00,2.8270
2118.00,2.8211
2117.00,2.8152
2116.00,2.8100
2115.00,2.8053
2114.00,2.8001
2113.00,2.7940
2112.00,2.7871
2111.00,2.7794
2110.00,2.7705
2109.00,2.7603
2108.00,2.7490
2107.00,2.7367
2106.00,2.7238
2105.00,2.7111
2104.00,2.6988
2103.00,2.6868
2102.00,2.6740
2101.00,2.6597
2100.00,2.6433
2099.00,2.6252
2098.00,2.6065
2097.00,2.5878
2096.00,2.5689
2095.00,2.5493
2094.00,2.5280
2093.00,2.5048
2092.00,2.4794
2091.00,2.4517
2090.00,2.4218
2089.00,2.3906
2088.00,2.3587
2087.00,2.3264
2086.00,2.2928
2085.00,2.2569
2084.00,2.2178
2083.00,2.1753
2082.00,2.1295
2081.00,2.0807
2080.00,2.0294
2079.00,1.9762
2078.00,1.9218
2077.00,1.8670
2076.00,1.8127
2075.00,1.7596
2074.00,1.7092
2073.00,1.6632
2072.00,1.6232
2071.00,1.5904
2070.00,1.5654
2069.00,1.5483
2068.00,1.5391
2067.00,1.5372
2066.00,1.5413
2065.00,1.5504
2064.00,1.5649
2063.00,1.5863
2062.00,1.6142
2061.00,1.6464
2060.00,1.6804
2059.00,1.7156
2058.00,1.7528
2057.00,1.7929
2056.00,1.8355
2055.00,1.8797
2054.00,1.9252
2053.00,1.9719
2052.00,2.0197
2051.00,2.0681
2050.00,2.1163
2049.00,2.1632
2048.00,2.2082
2047.00,2.2511
2046.00,2.2920
2045.00,2.3311
2044.00,2.3684
2043.00,2.4037
2042.00,2.4367
2041.00,2.4676
2040.00,2.4970
2039.00,2.5257
2038.00,2.5539
2037.00,2.5814
2036.00,2.6079
2035.00,2.6329
2034.00,2.6564
2033.00,2.6784
2032.00,2.6983
2031.00,2.7157
2030.00,2.7311
2029.00,2.7459
2028.00,2.7613
2027.00,2.7774
2026.00,2.7932
2025.00,2.8078
2024.00,2.8208
2023.00,2.8322
2022.00,2.8419
2021.00,2.8505
2020.00,2.8589
2019.00,2.8675
2018.00,2.8753
2017.00,2.8810
2016.00,2.8854
2015.00,2.8917
2014.00,2.9020
2013.00,2.9141
2012.00,2.9238
2011.00,2.9291
2010.00,2.9321
2009.00,2.9354
2008.00,2.9393
2007.00,2.9424
2006.00,2.9439
2005.00,2.9441
2004.00,2.9435
2003.00,2.9421
2002.00,2.9409
2001.00,2.9400
2000.00,2.9383
1999.00,2.9346
1998.00,2.9300
1997.00,2.9264
1996.00,2.9240
1995.00,2.9209
1994.00,2.9151
1993.00,2.9058
1992.00,2.8939
1991.00,2.8821
1990.00,2.8728
1989.00,2.8649
1988.00,2.8551
1987.00,2.8427
1986.00,2.8307
1985.00,2.8215
1984.00,2.8135
1983.00,2.8030
1982.00,2.7895
1981.00,2.7755
1980.00,2.7619
1979.00,2.7475
1978.00,2.7319
1977.00,2.7151
1976.00,2.6971
1975.00,2.6769
1974.00,2.6548
1973.00,2.6320
1972.00,2.6090
1971.00,2.5848
1970.00,2.5579
1969.00,2.5270
1968.00,2.4914
1967.00,2.4517
1966.00,2.4116
1965.00,2.3751
1964.00,2.3422
1963.00,2.3082
1962.00,2.2690
1961.00,2.2241
1960.00,2.1756
1959.00,2.1248
1958.00,2.0719
1957.00,2.0171
1956.00,1.9609
1955.00,1.9040
1954.00,1.8481
1953.00,1.7953
1952.00,1.7474
1951.00,1.7047
1950.00,1.6673
1949.00,1.6368
1948.00,1.6141
1947.00,1.5993
1946.00,1.5928
1945.00,1.5957
1944.00,1.6066
1943.00,1.6224
1942.00,1.6425
1941.00,1.6715
1940.00,1.7138
1939.00,1.7665
1938.00,1.8214
1937.00,1.8741
1936.00,1.9257
1935.00,1.9788
1934.00,2.0333
1933.00,2.0873
1932.00,2.1405
1931.00,2.1933
1930.00,2.2454
1929.00,2.2961
1928.00,2.3439
1927.00,2.3884
1926.00,2.4303
1925.00,2.4694
1924.00,2.5040
1923.00,2.5317
1922.00,2.5555
1921.00,2.5835
1920.00,2.6196
1919.00,2.6579
1918.00,2.6899
1917.00,2.7141
1916.00,2.7364
1915.00,2.7610
1914.00,2.7853
1913.00,2.8050
1912.00,2.8207
1911.00,2.8347
1910.00,2.8480
1909.00,2.8600
1908.00,2.8718
1907.00,2.8850
1906.00,2.8990
1905.00,2.9116
1904.00,2.9239
1903.00,2.9375
1902.00,2.9528
1901.00,2.9670
1900.00,2.9770
1899.00,2.9836
1898.00,2.9895
1897.00,2.9953
1896.00,2.9999
1895.00,3.0023
1894.00,3.0043
1893.00,3.0096
1892.00,3.0186
1891.00,3.0261
1890.00,3.0267
1889.00,3.0216
1888.00,3.0195
1887.00,3.0270
1886.00,3.0385
1885.00,3.0429
1884.00,3.0378
1883.00,3.0299
1882.00,3.0262
1881.00,3.0268
1880.00,3.0279
1879.00,3.0266
1878.00,3.0216
1877.00,3.0118
1876.00,2.9993
1875.00,2.9874
1874.00,2.9767
1873.00,2.9661
1872.00,2.9559
1871.00,2.9477
1870.00,2.9408
1869.00,2.9299
1868.00,2.9110
1867.00,2.8879
1866.00,2.8678
1865.00,2.8509
1864.00,2.8334
1863.00,2.8137
1862.00,2.7913
1861.00,2.7657
1860.00,2.7375
1859.00,2.7090
1858.00,2.6810
1857.00,2.6521
1856.00,2.6208
1855.00,2.5863
1854.00,2.5479
1853.00,2.5054
1852.00,2.4592
1851.00,2.4111
1850.00,2.3597
1849.00,2.3009
1848.00,2.2354
1847.00,2.1703
1846.00,2.1101
1845.00,2.0506
1844.00,1.9865
1843.00,1.9206
1842.00,1.8628
1841.00,1.8180
1840.00,1.7827
1839.00,1.7541
1838.00,1.7341
1837.00,1.7272
1836.00,1.7367
1835.00,1.7618
1834.00,1.8002
1833.00,1.8499
1832.00,1.9089
1831.00,1.9741
1830.00,2.0402
1829.00,2.1035
1828.00,2.1679
1827.00,2.2351
1826.00,2.2976
1825.00,2.3509
1824.00,2.4003
1823.00,2.4539
1822.00,2.5118
1821.00,2.5675
1820.00,2.6166
1819.00,2.6602
1818.00,2.6994
1817.00,2.7347
1816.00,2.7694
1815.00,2.8057
1814.00,2.8426
1813.00,2.8744
1812.00,2.8974
1811.00,2.9147
1810.00,2.9327
1809.00,2.9550
1808.00,2.9785
1807.00,2.9982
1806.00,3.0147
1805.00,3.0301
1804.00,3.0421
1803.00,3.0471
1802.00,3.0479
1801.00,3.0530
1800.00,3.0700
1799.00,3.0976
1798.00,3.1230
1797.00,3.1346
1796.00,3.1340
1795.00,3.1330
1794.00,3.1398
1793.00,3.1493
1792.00,3.1511
1791.00,3.1438
1790.00,3.1370
1789.00,3.1376
1788.00,3.1399
1787.00,3.1366
1786.00,3.1258
1785.00,3.1101
1784.00,3.0943
1783.00,3.0834
1782.00,3.0765
1781.00,3.0639
1780.00,3.0402
1779.00,3.0128
1778.00,2.9898
1777.00,2.9702
1776.00,2.9490
1775.00,2.9282
1774.00,2.9111
1773.00,2.8954
1772.00,2.8797
1771.00,2.8694
1770.00,2.8680
1769.00,2.8644
1768.00,2.8452
1767.00,2.8147
1766.00,2.7899
1765.00,2.7804
1764.00,2.7797
1763.00,2.7794
1762.00,2.7796
1761.00,2.7871
1760.00,2.8089
1759.00,2.8450
1758.00,2.8887
1757.00,2.9385
1756.00,2.9978
1755.00,3.0740
1754.00,3.1642
1753.00,3.2493
1752.00,3.3107
1751.00,3.3453
1750.00,3.3715
1749.00,3.4125
1748.00,3.4731
1747.00,3.5383
1746.00,3.5942
1745.00,3.6355
1744.00,3.6695
1743.00,3.7127
1742.00,3.7795
1741.00,3.8717
1740.00,3.9674
1739.00,4.0335
1738.00,4.0655
1737.00,4.0899
1736.00,4.1249
1735.00,4.1777
1734.00,4.2705
1733.00,4.4135
1732.00,4.5936
1731.00,4.8183
1730.00,4.8867
1729.00,4.7213
1728.00,4.8043
1727.00,5.1808
1726.00,4.8773
1725.00,4.6060
1724.00,4.5246
1723.00,4.4898
1722.00,4.4605
1721.00,4.3982
1720.00,4.3345
1719.00,4.3129
1718.00,4.3935
1717.00,4.5869
1716.00,4.6212
1715.00,4.5819
1714.00,4.7110
1713.00,4.9833
1712.00,5.3525
1711.00,5.2247
1710.00,4.9781
1709.00,4.7695
1708.00,4.6257
1707.00,4.6236
1706.00,4.6999
1705.00,4.6942
1704.00,4.6103
1703.00,4.5772
1702.00,4.6153
1701.00,4.7023
1700.00,4.9406
1699.00,5.0589
1698.00,4.7111
1697.00,4.5960
1696.00,4.6265
1695.00,4.7672
1694.00,5.0150
1693.00,4.7160
1692.00,4.3985
1691.00,4.2122
1690.00,4.0638
1689.00,3.9312
1688.00,3.8151
1687.00,3.7299
1686.00,3.6713
1685.00,3.6207
1684.00,3.5632
1683.00,3.5040
1682.00,3.4730
1681.00,3.4555
1680.00,3.4200
1679.00,3.3809
1678.00,3.3620
1677.00,3.3656
1676.00,3.3723
1675.00,3.3693
1674.00,3.3623
1673.00,3.3603
1672.00,3.3634
1671.00,3.3658
1670.00,3.3635
1669.00,3.3561
1668.00,3.3445
1667.00,3.3324
1666.00,3.3231
1665.00,3.3208
1664.00,3.3264
1663.00,3.3329
1662.00,3.3352
1661.00,3.3340
1660.00,3.3298
1659.00,3.3201
1658.00,3.3036
1657.00,3.2859
1656.00,3.2737
1655.00,3.2646
1654.00,3.2502
1653.00,3.2261
1652.00,3.2027
1651.00,3.1961
1650.00,3.1923
1649.00,3.1869
1648.00,3.1752
1647.00,3.1387
1646.00,3.0880
1645.00,3.0478
1644.00,3.0198
1643.00,2.9874
1642.00,2.9516
1641.00,2.9145
1640.00,2.8778
1639.00,2.8514
1638.00,2.8380
1637.00,2.8295
1636.00,2.8145
1635.00,2.7933
1634.00,2.7752
1633.00,2.7522
1632.00,2.7102
1631.00,2.6558
1630.00,2.6028
1629.00,2.5588
1628.00,2.5244
1627.00,2.4974
1626.00,2.4804
1625.00,2.4746
1624.00,2.4766
1623.00,2.4815
1622.00,2.4880
1621.00,2.5004
1620.00,2.5208
1619.00,2.5477
1618.00,2.5772
1617.00,2.6075
1616.00,2.6408
1615.00,2.6821
1614.00,2.7312
1613.00,2.7793
1612.00,2.8192
1611.00,2.8505
1610.00,2.8775
1609.00,2.9021
1608.00,2.9242
1607.00,2.9475
1606.00,2.9794
1605.00,3.0206
1604.00,3.0629
1603.00,3.0968
1602.00,3.1177
1601.00,3.1308
1600.00,3.1439
1599.00,3.1596
1598.00,3.1767
1597.00,3.1920
1596.00,3.2019
1595.00,3.2043
1594.00,3.2036
1593.00,3.2095
1592.00,3.2265
1591.00,3.2507
1590.00,3.2744
1589.00,3.2916
1588.00,3.2984
1587.00,3.2937
1586.00,3.2833
1585.00,3.2782
1584.00,3.2832
1583.00,3.2951
1582.00,3.3053
1581.00,3.3085
1580.00,3.3088
1579.00,3.3098
1578.00,3.3056
1577.00,3.2879
1576.00,3.2613
1575.00,3.2428
1574.00,3.2459
1573.00,3.2618
1572.00,3.2739
1571.00,3.2748
1570.00,3.2664
1569.00,3.2551
1568.00,3.2441
1567.00,3.2327
1566.00,3.2139
1565.00,3.1875
1564.00,3.1605
1563.00,3.1417
1562.00,3.1333
1561.00,3.1299
1560.00,3.1273
1559.00,3.1226
1558.00,3.0966
1557.00,3.0853
1556.00,3.0760
1555.00,3.0220
1554.00,2.9490
1553.00,2.8809
1552.00,2.8280
1551.00,2.7779
1550.00,2.7171
1549.00,2.6557
1548.00,2.6116
1547.00,2.5817
1546.00,2.5438
1545.00,2.4857
1544.00,2.4160
1543.00,2.3558
1542.00,2.3157
1541.00,2.2815
1540.00,2.2270
1539.00,2.1495
1538.00,2.0825
1537.00,2.0350
1536.00,2.0028
1535.00,1.9863
1534.00,1.9793
1533.00,1.9793
1532.00,1.9935
1531.00,2.0250
1530.00,2.0642
1529.00,2.1074
1528.00,2.1570
1527.00,2.2102
1526.00,2.2672
1525.00,2.3345
1524.00,2.4154
1523.00,2.4982
1522.00,2.5646
1521.00,2.6094
1520.00,2.6515
1519.00,2.7114
1518.00,2.7774
1517.00,2.8254
1516.00,2.8507
1515.00,2.8727
1514.00,2.9088
1513.00,2.9509
1512.00,2.9851
1511.00,3.0064
1510.00,3.0198
1509.00,3.0324
1508.00,3.0471
1507.00,3.0662
1506.00,3.1097
1505.00,3.1993
1504.00,3.2811
1503.00,3.3062
1502.00,3.3072
1501.00,3.3039
1500.00,3.3099
1499.00,3.3338
1498.00,3.3691
1497.00,3.3928
1496.00,3.3897
1495.00,3.3720
1494.00,3.3672
1493.00,3.3839
1492.00,3.4054
1491.00,3.4112
1490.00,3.3967
1489.00,3.3788
1488.00,3.3817
1487.00,3.4053
1486.00,3.4300
1485.00,3.4445
1484.00,3.4475
1483.00,3.4425
1482.00,3.4290
1481.00,3.4094
1480.00,3.3965
1479.00,3.4010
1478.00,3.4163
1477.00,3.4225
1476.00,3.4094
1475.00,3.3867
1474.00,3.3684
1473.00,3.3511
1472.00,3.3254
1471.00,3.3005
1470.00,3.2872
1469.00,3.2816
1468.00,3.2827
1467.00,3.2973
1466.00,3.3309
1465.00,3.3776
1464.00,3.4205
1463.00,3.4452
1462.00,3.4465
1461.00,3.4330
1460.00,3.4208
1459.00,3.4207
1458.00,3.4328
1457.00,3.4539
1456.00,3.4980
1455.00,3.5910
1454.00,3.7415
1453.00,3.9529
1452.00,4.2246
1451.00,4.5257
1450.00,4.7163
1449.00,4.6354
1448.00,4.4507
1447.00,4.2173
1446.00,4.0206
1445.00,3.8915
1444.00,3.8036
1443.00,3.7395
1442.00,3.6953
1441.00,3.6669
1440.00,3.6417
1439.00,3.6150
1438.00,3.5942
1437.00,3.5872
1436.00,3.5908
1435.00,3.6036
1434.00,3.6351
1433.00,3.6946
1432.00,3.7799
1431.00,3.8648
1430.00,3.9130
1429.00,3.9204
1428.00,3.9088
1427.00,3.8979
1426.00,3.9007
1425.00,3.9178
1424.00,3.9410
1423.00,3.9586
1422.00,3.9606
1421.00,3.9447
1420.00,3.9096
1419.00,3.8509
1418.00,3.7729
1417.00,3.6972
1416.00,3.6309
1415.00,3.5673
1414.00,3.5079
1413.00,3.4543
1412.00,3.3990
1411.00,3.3341
1410.00,3.2629
1409.00,3.1973
1408.00,3.1429
1407.00,3.0958
1406.00,3.0505
1405.00,3.0044
1404.00,2.9617
1403.00,2.9304
1402.00,2.9111
1401.00,2.8964
1400.00,2.8782
1399.00,2.8542
1398.00,2.8301
1397.00,2.8132
1396.00,2.8039
1395.00,2.7998
1394.00,2.8041
1393.00,2.8198
1392.00,2.8431
1391.00,2.8673
1390.00,2.8899
1389.00,2.9106
1388.00,2.9297
1387.00,2.9508
1386.00,2.9823
1385.00,3.0281
1384.00,3.0794
1383.00,3.1249
1382.00,3.1631
1381.00,3.1987
1380.00,3.2329
1379.00,3.2626
1378.00,3.2861
1377.00,3.3012
1376.00,3.3062
1375.00,3.3046
1374.00,3.3081
1373.00,3.3313
1372.00,3.3753
1371.00,3.4217
1370.00,3.4532
1369.00,3.4710
1368.00,3.4861
1367.00,3.5029
1366.00,3.5136
1365.00,3.5132
1364.00,3.5086
1363.00,3.5057
1362.00,3.5036
1361.00,3.5022
1360.00,3.5048
1359.00,3.5155
1358.00,3.5364
1357.00,3.5648
1356.00,3.5967
1355.00,3.6343
1354.00,3.6868
1353.00,3.7586
1352.00,3.8381
1351.00,3.8999
1350.00,3.9244
1349.00,3.9221
1348.00,3.9283
1347.00,3.9712
1346.00,4.0452
1345.00,4.0958
1344.00,4.0688
1343.00,3.9994
1342.00,3.9496
1341.00,3.9377
1340.00,3.9408
1339.00,3.9211
1338.00,3.8688
1337.00,3.8077
1336.00,3.7638
1335.00,3.7445
1334.00,3.7406
1333.00,3.7378
1332.00,3.7287
1331.00,3.7162
1330.00,3.7053
1329.00,3.6974
1328.00,3.6921
1327.00,3.6832
1326.00,3.6608
1325.00,3.6215
1324.00,3.5778
1323.00,3.5511
1322.00,3.5545
1321.00,3.5850
1320.00,3.6296
1319.00,3.6813
1318.00,3.7476
1317.00,3.8409
1316.00,3.9714
1315.00,4.1524
1314.00,4.3979
1313.00,4.6426
1312.00,4.6555
1311.00,4.5351
1310.00,4.4842
1309.00,4.4884
1308.00,4.4151
1307.00,4.2154
1306.00,4.0208
1305.00,3.9074
1304.00,3.8748
1303.00,3.8891
1302.00,3.8915
1301.00,3.8381
1300.00,3.7502
1299.00,3.6728
1298.00,3.6203
1297.00,3.5786
1296.00,3.5316
1295.00,3.4789
1294.00,3.4283
1293.00,3.3825
1292.00,3.3385
1291.00,3.2939
1290.00,3.2487
1289.00,3.2024
1288.00,3.1553
1287.00,3.1102
1286.00,3.0715
1285.00,3.0395
1284.00,3.0104
1283.00,2.9812
1282.00,2.9532
1281.00,2.9297
1280.00,2.9140
1279.00,2.9087
1278.00,2.9150
1277.00,2.9320
1276.00,2.9575
1275.00,2.9900
1274.00,3.0287
1273.00,3.0717
1272.00,3.1156
1271.00,3.1581
1270.00,3.2006
1269.00,3.2454
1268.00,3.2912
1267.00,3.3314
1266.00,3.3591
1265.00,3.3730
1264.00,3.3797
1263.00,3.3888
1262.00,3.4055
1261.00,3.4250
1260.00,3.4363
1259.00,3.4377
1258.00,3.4433
1257.00,3.4692
1256.00,3.5173
1255.00,3.5743
1254.00,3.6256
1253.00,3.6669
1252.00,3.6999
1251.00,3.7279
1250.00,3.7567
1249.00,3.7944
1248.00,3.8448
1247.00,3.9026
1246.00,3.9543
1245.00,3.9813
1244.00,3.9738
1243.00,3.9472
1242.00,3.9278
1241.00,3.9334
1240.00,3.9616
1239.00,3.9929
1238.00,3.9980
1237.00,3.9654
1236.00,3.9327
1235.00,3.9322
1234.00,3.9740
1233.00,4.0743
1232.00,4.2185
1231.00,4.2965
1230.00,4.2585
1229.00,4.2122
1228.00,4.2523
1227.00,4.4819
1226.00,5.0575
1225.00,4.8079
1224.00,4.6393
1223.00,4.6087
1222.00,4.5809
1221.00,4.5552
1220.00,4.6516
1219.00,5.0043
1218.00,4.6740
1217.00,4.3824
1216.00,4.3169
1215.00,4.3053
1214.00,4.1850
1213.00,4.0272
1212.00,3.9215
1211.00,3.8749
1210.00,3.8697
1209.00,3.8779
1208.00,3.8832
1207.00,3.8908
1206.00,3.9071
1205.00,3.9276
1204.00,3.9448
1203.00,3.9539
1202.00,3.9505
1201.00,3.9315
1200.00,3.9128
1199.00,3.9280
1198.00,3.9923
1197.00,4.0702
1196.00,4.0969
1195.00,4.0679
1194.00,4.0381
1193.00,4.0324
1192.00,4.0481
1191.00,4.0937
1190.00,4.1789
1189.00,4.2841
1188.00,4.3068
1187.00,4.2064
1186.00,4.0972
1185.00,4.0245
1184.00,4.0024
1183.00,4.0267
1182.00,4.0445
1181.00,3.9969
1180.00,3.9101
1179.00,3.8484
1178.00,3.8361
1177.00,3.8462
1176.00,3.8336
1175.00,3.8080
1174.00,3.8088
1173.00,3.8427
1172.00,3.8764
1171.00,3.8751
1170.00,3.8377
1169.00,3.7745
1168.00,3.7033
1167.00,3.6441
1166.00,3.5965
1165.00,3.5606
1164.00,3.5386
1163.00,3.5257
1162.00,3.5216
1161.00,3.5333
1160.00,3.5685
1159.00,3.6254
1158.00,3.6745
1157.00,3.6682
1156.00,3.6050
1155.00,3.5281
1154.00,3.4667
1153.00,3.4189
1152.00,3.3765
1151.00,3.3430
1150.00,3.3264
1149.00,3.3263
1148.00,3.3356
1147.00,3.3523
1146.00,3.3811
1145.00,3.4218
1144.00,3.4621
1143.00,3.4888
1142.00,3.5084
1141.00,3.5381
1140.00,3.5849
1139.00,3.6384
1138.00,3.6762
1137.00,3.6911
1136.00,3.7019
1135.00,3.7279
1134.00,3.7738
1133.00,3.8363
1132.00,3.9220
1131.00,4.0749
1130.00,4.3956
1129.00,4.6472
1128.00,4.4341
1127.00,4.5107
1126.00,4.8281
1125.00,4.4889
1124.00,4.2389
1123.00,4.1387
1122.00,4.1376
1121.00,4.1973
1120.00,4.1803
1119.00,4.0601
1118.00,4.0155
1117.00,4.1357
1116.00,4.5446
1115.00,4.4501
1114.00,4.2194
1113.00,4.1613
1112.00,4.0733
1111.00,3.9334
1110.00,3.8164
1109.00,3.7587
1108.00,3.7661
1107.00,3.8346
1106.00,3.9407
1105.00,3.9953
1104.00,3.9412
1103.00,3.8815
1102.00,3.8679
1101.00,3.8619
1100.00,3.8265
1099.00,3.8118
1098.00,3.8762
1097.00,4.0506
1096.00,4.3383
1095.00,4.6540
1094.00,4.6575
1093.00,4.4665
1092.00,4.3356
1091.00,4.2171
1090.00,4.1390
1089.00,4.1249
1088.00,4.1818
1087.00,4.3311
1086.00,4.6012
1085.00,4.6456
1084.00,4.4403
1083.00,4.4440
1082.00,4.7628
1081.00,4.6177
1080.00,4.2677
1079.00,4.1222
1078.00,4.0345
1077.00,3.9717
1076.00,3.9561
1075.00,3.9999
1074.00,4.0876
1073.00,4.1750
1072.00,4.2309
1071.00,4.3343
1070.00,4.7271
1069.00,4.9140
1068.00,4.4193
1067.00,4.4038
1066.00,4.2816
1065.00,4.1003
1064.00,4.0264
1063.00,4.0470
1062.00,4.1125
1061.00,4.1543
1060.00,4.1504
1059.00,4.1294
1058.00,4.0992
1057.00,4.0608
1056.00,4.0402
1055.00,4.0599
1054.00,4.1140
1053.00,4.1358
1052.00,4.0782
1051.00,4.0119
1050.00,3.9894
1049.00,4.0286
1048.00,4.1081
1047.00,4.1216
1046.00,4.0416
1045.00,3.9489
1044.00,3.8670
1043.00,3.8354
1042.00,3.9059
1041.00,4.0825
1040.00,4.1212
1039.00,4.0441
1038.00,4.0832
1037.00,4.1618
1036.00,4.1077
1035.00,4.0241
1034.00,4.0174
1033.00,4.0676
1032.00,4.0852
1031.00,3.9989
1030.00,3.8816
1029.00,3.8078
1028.00,3.7752
1027.00,3.7477
1026.00,3.7061
1025.00,3.6677
1024.00,3.6593
1023.00,3.6951
1022.00,3.7734
1021.00,3.8858
1020.00,4.0096
1019.00,4.1120
1018.00,4.2264
1017.00,4.3215
1016.00,4.2244
1015.00,4.0562
1014.00,3.9104
1013.00,3.8142
1012.00,3.7601
1011.00,3.7130
1010.00,3.6478
1009.00,3.5784
1008.00,3.5317
1007.00,3.5191
1006.00,3.5365
1005.00,3.5762
1004.00,3.6414
1003.00,3.7426
1002.00,3.8656
1001.00,3.9396
1000.00,3.9108
999.00,3.8486
998.00,3.8342
997.00,3.8812
996.00,3.9569
995.00,4.0636
994.00,4.3160
993.00,4.8384
992.00,4.4351
991.00,4.3584
990.00,4.5188
989.00,4.8418
988.00,4.9910
987.00,4.4620
986.00,4.2028
985.00,4.0707
984.00,4.0058
983.00,3.9947
982.00,4.0407
981.00,4.1221
980.00,4.1778
979.00,4.2340
978.00,4.3625
977.00,4.3819
976.00,4.2073
975.00,4.1172
974.00,4.1427
973.00,4.2974
972.00,4.5116
971.00,4.3500
970.00,4.2393
969.00,4.3119
968.00,4.5982
967.00,4.5728
966.00,4.2558
965.00,4.1180
964.00,4.0697
963.00,4.0480
962.00,4.0421
961.00,4.0658
960.00,4.1282
959.00,4.2461
958.00,4.3893
957.00,4.4030
956.00,4.3732
955.00,4.4534
954.00,4.6028
953.00,4.5675
952.00,4.4165
951.00,4.2869
950.00,4.2239
949.00,4.2899
948.00,4.5680
947.00,4.5321
946.00,4.1445
945.00,3.9554
944.00,3.8824
943.00,3.8966
942.00,3.9695
941.00,4.0280
940.00,3.9935
939.00,3.9280
938.00,3.9464
937.00,4.0625
936.00,4.1631
935.00,4.2447
934.00,4.3847
933.00,4.4484
932.00,4.3857
931.00,4.2070
930.00,4.0413
929.00,3.9568
928.00,3.9436
927.00,3.9483
926.00,3.9312
925.00,3.9254
924.00,3.9737
923.00,4.0907
922.00,4.2364
921.00,4.2700
920.00,4.1673
919.00,4.0912
918.00,4.1180
917.00,4.2539
916.00,4.4170
915.00,4.3376
914.00,4.2128
913.00,4.1930
912.00,4.2074
911.00,4.0798
910.00,3.9593
909.00,3.9816
908.00,4.0921
907.00,4.1630
906.00,4.2186
905.00,4.2370
904.00,4.2326
903.00,4.2670
902.00,4.3271
901.00,4.5047
900.00,4.7835
899.00,4.6944
898.00,4.8918
897.00,4.5359
896.00,4.1048
895.00,3.8996
894.00,3.8084
893.00,3.8048
892.00,3.8691
891.00,3.9720
890.00,4.0907
889.00,4.1909
888.00,4.2124
887.00,4.1849
886.00,4.1563
885.00,4.1294
884.00,4.1297
883.00,4.1766
882.00,4.2267
881.00,4.2505
880.00,4.3021
879.00,4.5248
878.00,4.8213
877.00,4.3897
876.00,4.2393
875.00,4.2222
874.00,4.1757
873.00,4.0519
872.00,3.9370
871.00,3.9008
870.00,3.9374
869.00,3.9917
868.00,4.0000
867.00,3.9812
866.00,3.9756
865.00,3.9569
864.00,3.9143
863.00,3.8947
862.00,3.9207
861.00,3.9659
860.00,3.9535
859.00,3.9332
858.00,4.0263
857.00,4.2898
856.00,4.4454
855.00,4.2326
854.00,4.1248
853.00,4.1106
852.00,4.1296
851.00,4.1399
850.00,4.1705
849.00,4.2771
848.00,4.2805
847.00,4.1487
846.00,4.1867
845.00,4.5139
844.00,4.4783
843.00,4.2025
842.00,4.1667
841.00,4.1960
840.00,4.1448
839.00,4.0683
838.00,4.0332
837.00,4.0673
836.00,4.1619
835.00,4.2661
834.00,4.3201
833.00,4.5185
832.00,4.9301
831.00,4.2694
830.00,4.2282
829.00,4.5911
828.00,4.1988
827.00,3.9455
826.00,3.9030
825.00,3.9729
824.00,4.1214
823.00,4.3465
822.00,4.6581
821.00,4.5807
820.00,4.5111
819.00,4.7345
818.00,4.5992
817.00,4.2482
816.00,4.0649
815.00,4.0139
814.00,4.0596
813.00,4.2807
812.00,4.9966
811.00,4.4947
810.00,4.2500
809.00,4.3257
808.00,4.6331
807.00,4.5074
806.00,4.3647
805.00,4.5493
804.00,5.0583
803.00,4.6034
802.00,4.2675
801.00,4.1679
800.00,4.1453
799.00,4.0464
798.00,3.9052
797.00,3.8153
796.00,3.7745
795.00,3.7636
794.00,3.7750
793.00,3.8231
792.00,3.9169
791.00,4.0065
790.00,4.0300
789.00,3.9940
788.00,3.9600
787.00,4.0038
786.00,4.1203
785.00,4.2188
784.00,4.2304
783.00,4.1327
782.00,3.9886
781.00,3.9039
780.00,3.8608
779.00,3.8069
778.00,3.7620
777.00,3.7417
776.00,3.7428
775.00,3.7810
774.00,3.8866
773.00,4.0967
772.00,4.4842
771.00,4.8044
770.00,4.4653
769.00,4.2369
768.00,4.1021
767.00,4.0055
766.00,3.9392
765.00,3.9188
764.00,3.9576
763.00,4.0562
762.00,4.1333
761.00,4.1280
760.00,4.1565
759.00,4.4330
758.00,4.8110
757.00,4.2889
756.00,4.0744
755.00,3.8936
754.00,3.7637
753.00,3.7585
752.00,3.8785
751.00,4.1176
750.00,4.3233
749.00,4.2671
748.00,4.0930
747.00,3.9760
746.00,3.9325
745.00,3.9534
744.00,4.0238
743.00,4.1019
742.00,4.1352
741.00,4.1108
740.00,4.0895
739.00,4.1173
738.00,4.1668
737.00,4.1904
736.00,4.1319
735.00,4.0350
734.00,4.0173
733.00,4.1227
732.00,4.1526
731.00,4.0052
730.00,3.9426
729.00,4.0008
728.00,4.0926
727.00,4.0641
726.00,3.9231
725.00,3.8358
724.00,3.8436
723.00,4.0102
722.00,4.4128
721.00,4.2702
720.00,4.0019
719.00,3.9111
718.00,3.8530
717.00,3.8166
716.00,3.8512
715.00,3.9789
714.00,4.3228
713.00,4.7834
712.00,4.3183
711.00,4.2603
710.00,4.2143
709.00,4.0070
708.00,3.8957
707.00,3.8839
706.00,3.9476
705.00,3.9664
704.00,3.9624
703.00,4.0220
702.00,4.0169
701.00,3.9183
700.00,3.8827
