Created as New Dataset,Sample 078 By Administrator Date Wednesday, November 24 2021
cm-1,A
7502.00,0.8143
7501.00,0.8079
7500.00,0.8014
7499.00,0.7947
7498.00,0.7878
7497.00,0.7812
7496.00,0.7752
7495.00,0.7700
7494.00,0.7657
7493.00,0.7620
7492.00,0.7591
7491.00,0.7570
7490.00,0.7559
7489.00,0.7556
7488.00,0.7558
7487.00,0.7557
7486.00,0.7552
7485.00,0.7545
7484.00,0.7546
7483.00,0.7559
7482.00,0.7586
7481.00,0.7622
7480.00,0.7665
7479.00,0.7716
7478.00,0.7776
7477.00,0.7842
7476.00,0.7914
7475.00,0.7988
7474.00,0.8064
7473.00,0.8141
7472.00,0.8222
7471.00,0.8308
7470.00,0.8399
7469.00,0.8489
7468.00,0.8578
7467.00,0.8667
7466.00,0.8761
7465.00,0.8864
7464.00,0.8973
7463.00,0.9085
7462.00,0.9200
7461.00,0.9314
7460.00,0.9427
7459.00,0.9534
7458.00,0.9635
7457.00,0.9733
7456.00,0.9833
7455.00,0.9936
7454.00,1.0039
7453.00,1.0139
7452.00,1.0238
7451.00,1.0335
7450.00,1.0430
7449.00,1.0521
7448.00,1.0610
7447.00,1.0701
7446.00,1.0795
7445.00,1.0890
7444.00,1.0983
7443.00,1.1071
7442.00,1.1154
7441.00,1.1228
7440.00,1.1291
7439.00,1.1346
7438.00,1.1397
7437.00,1.1449
7436.00,1.1501
7435.00,1.1547
7434.00,1.1588
7433.00,1.1629
7432.00,1.1676
7431.00,1.1725
7430.00,1.1767
7429.00,1.1799
7428.00,1.1825
7427.00,1.1852
7426.00,1.1882
7425.00,1.1909
7424.00,1.1927
7423.00,1.1936
7422.00,1.1941
7421.00,1.1947
7420.00,1.1952
7419.00,1.1950
7418.00,1.1938
7417.00,1.1920
7416.00,1.1903
7415.00,1.1887
7414.00,1.1864
7413.00,1.1827
7412.00,1.1778
7411.00,1.1724
7410.00,1.1671
7409.00,1.1619
7408.00,1.1569
7407.00,1.1521
7406.00,1.1476
7405.00,1.1431
7404.00,1.1375
7403.00,1.1305
7402.00,1.1223
7401.00,1.1139
7400.00,1.1058
7399.00,1.0975
7398.00,1.0885
7397.00,1.0789
7396.00,1.0694
7395.00,1.0601
7394.00,1.0508
7393.00,1.0408
7392.00,1.0303
7391.00,1.0197
7390.00,1.0095
7389.00,0.9997
7388.00,0.9900
7387.00,0.9800
7386.00,0.9695
7385.00,0.9589
7384.00,0.9484
7383.00,0.9384
7382.00,0.9284
7381.00,0.9180
7380.00,0.9071
7379.00,0.8962
7378.00,0.8857
7377.00,0.8756
7376.00,0.8656
7375.00,0.8558
7374.00,0.8466
7373.00,0.8382
7372.00,0.8304
7371.00,0.8228
7370.00,0.8152
7369.00,0.8079
7368.00,0.8010
7367.00,0.7945
7366.00,0.7884
7365.00,0.7830
7364.00,0.7783
7363.00,0.7744
7362.00,0.7714
7361.00,0.7692
7360.00,0.7679
7359.00,0.7671
7358.00,0.7666
7357.00,0.7664
7356.00,0.7670
7355.00,0.7683
7354.00,0.7703
7353.00,0.7727
7352.00,0.7756
7351.00,0.7791
7350.00,0.7838
7349.00,0.7895
7348.00,0.7961
7347.00,0.8029
7346.00,0.8096
7345.00,0.8164
7344.00,0.8236
7343.00,0.8315
7342.00,0.8400
7341.00,0.8487
7340.00,0.8575
7339.00,0.8664
7338.00,0.8755
7337.00,0.8851
7336.00,0.8950
7335.00,0.9051
7334.00,0.9151
7333.00,0.9249
7332.00,0.9343
7331.00,0.9435
7330.00,0.9527
7329.00,0.9619
7328.00,0.9706
7327.00,0.9789
7326.00,0.9870
7325.00,0.9956
7324.00,1.0048
7323.00,1.0144
7322.00,1.0238
7321.00,1.0328
7320.00,1.0415
7319.00,1.0499
7318.00,1.0580
7317.00,1.0658
7316.00,1.0733
7315.00,1.0805
7314.00,1.0874
7313.00,1.0938
7312.00,1.0998
7311.00,1.1052
7310.00,1.1098
7309.00,1.1136
7308.00,1.1170
7307.00,1.1204
7306.00,1.1241
7305.00,1.1277
7304.00,1.1314
7303.00,1.1355
7302.00,1.1404
7301.00,1.1459
7300.00,1.1507
7299.00,1.1539
7298.00,1.1554
7297.00,1.1557
7296.00,1.1549
7295.00,1.1529
7294.00,1.1498
7293.00,1.1461
7292.00,1.1423
7291.00,1.1389
7290.00,1.1360
7289.00,1.1338
7288.00,1.1319
7287.00,1.1302
7286.00,1.1285
7285.00,1.1270
7284.00,1.1254
7283.00,1.1234
7282.00,1.1210
7281.00,1.1180
7280.00,1.1146
7279.00,1.1106
7278.00,1.1058
7277.00,1.1005
7276.00,1.0951
7275.00,1.0897
7274.00,1.0840
7273.00,1.0780
7272.00,1.0722
7271.00,1.0668
7270.00,1.0614
7269.00,1.0553
7268.00,1.0484
7267.00,1.0410
7266.00,1.0335
7265.00,1.0253
7264.00,1.0162
7263.00,1.0068
7262.00,0.9980
7261.00,0.9902
7260.00,0.9825
7259.00,0.9742
7258.00,0.9651
7257.00,0.9556
7256.00,0.9456
7255.00,0.9350
7254.00,0.9236
7253.00,0.9120
7252.00,0.9010
7251.00,0.8909
7250.00,0.8814
7249.00,0.8719
7248.00,0.8626
7247.00,0.8535
7246.00,0.8449
7245.00,0.8369
7244.00,0.8289
7243.00,0.8209
7242.00,0.8131
7241.00,0.8060
7240.00,0.7993
7239.00,0.7928
7238.00,0.7864
7237.00,0.7805
7236.00,0.7755
7235.00,0.7716
7234.00,0.7686
7233.00,0.7663
7232.00,0.7646
7231.00,0.7634
7230.00,0.7625
7229.00,0.7623
7228.00,0.7628
7227.00,0.7642
7226.00,0.7661
7225.00,0.7685
7224.00,0.7716
7223.00,0.7752
7222.00,0.7795
7221.00,0.7843
7220.00,0.7897
7219.00,0.7957
7218.00,0.8022
7217.00,0.8091
7216.00,0.8165
7215.00,0.8245
7214.00,0.8331
7213.00,0.8422
7212.00,0.8518
7211.00,0.8616
7210.00,0.8716
7209.00,0.8818
7208.00,0.8921
7207.00,0.9023
7206.00,0.9124
7205.00,0.9225
7204.00,0.9328
7203.00,0.9434
7202.00,0.9544
7201.00,0.9658
7200.00,0.9772
7199.00,0.9884
7198.00,0.9991
7197.00,1.0095
7196.00,1.0199
7195.00,1.0303
7194.00,1.0404
7193.00,1.0501
7192.00,1.0596
7191.00,1.0696
7190.00,1.0798
7189.00,1.0893
7188.00,1.0980
7187.00,1.1061
7186.00,1.1142
7185.00,1.1220
7184.00,1.1296
7183.00,1.1372
7182.00,1.1452
7181.00,1.1533
7180.00,1.1606
7179.00,1.1669
7178.00,1.1724
7177.00,1.1777
7176.00,1.1829
7175.00,1.1876
7174.00,1.1915
7173.00,1.1948
7172.00,1.1977
7171.00,1.2003
7170.00,1.2025
7169.00,1.2044
7168.00,1.2059
7167.00,1.2070
7166.00,1.2080
7165.00,1.2090
7164.00,1.2099
7163.00,1.2099
7162.00,1.2089
7161.00,1.2072
7160.00,1.2053
7159.00,1.2034
7158.00,1.2008
7157.00,1.1976
7156.00,1.1943
7155.00,1.1913
7154.00,1.1884
7153.00,1.1849
7152.00,1.1805
7151.00,1.1754
7150.00,1.1698
7149.00,1.1642
7148.00,1.1583
7147.00,1.1518
7146.00,1.1448
7145.00,1.1377
7144.00,1.1307
7143.00,1.1235
7142.00,1.1158
7141.00,1.1075
7140.00,1.0989
7139.00,1.0899
7138.00,1.0806
7137.00,1.0709
7136.00,1.0611
7135.00,1.0509
7134.00,1.0404
7133.00,1.0297
7132.00,1.0191
7131.00,1.0086
7130.00,0.9979
7129.00,0.9869
7128.00,0.9759
7127.00,0.9651
7126.00,0.9542
7125.00,0.9430
7124.00,0.9315
7123.00,0.9202
7122.00,0.9091
7121.00,0.8983
7120.00,0.8877
7119.00,0.8774
7118.00,0.8675
7117.00,0.8581
7116.00,0.8491
7115.00,0.8403
7114.00,0.8317
7113.00,0.8234
7112.00,0.8155
7111.00,0.8081
7110.00,0.8011
7109.00,0.7946
7108.00,0.7885
7107.00,0.7832
7106.00,0.7786
7105.00,0.7748
7104.00,0.7716
7103.00,0.7691
7102.00,0.7674
7101.00,0.7664
7100.00,0.7660
7099.00,0.7663
7098.00,0.7673
7097.00,0.7691
7096.00,0.7717
7095.00,0.7750
7094.00,0.7789
7093.00,0.7834
7092.00,0.7884
7091.00,0.7938
7090.00,0.7998
7089.00,0.8065
7088.00,0.8137
7087.00,0.8216
7086.00,0.8301
7085.00,0.8389
7084.00,0.8480
7083.00,0.8572
7082.00,0.8664
7081.00,0.8758
7080.00,0.8856
7079.00,0.8958
7078.00,0.9066
7077.00,0.9176
7076.00,0.9287
7075.00,0.9395
7074.00,0.9502
7073.00,0.9608
7072.00,0.9714
7071.00,0.9819
7070.00,0.9923
7069.00,1.0028
7068.00,1.0137
7067.00,1.0248
7066.00,1.0356
7065.00,1.0457
7064.00,1.0550
7063.00,1.0640
7062.00,1.0730
7061.00,1.0821
7060.00,1.0910
7059.00,1.0999
7058.00,1.1088
7057.00,1.1176
7056.00,1.1259
7055.00,1.1336
7054.00,1.1403
7053.00,1.1462
7052.00,1.1516
7051.00,1.1572
7050.00,1.1631
7049.00,1.1692
7048.00,1.1747
7047.00,1.1794
7046.00,1.1833
7045.00,1.1867
7044.00,1.1898
7043.00,1.1930
7042.00,1.1963
7041.00,1.1993
7040.00,1.2014
7039.00,1.2025
7038.00,1.2028
7037.00,1.2028
7036.00,1.2026
7035.00,1.2018
7034.00,1.2005
7033.00,1.1989
7032.00,1.1976
7031.00,1.1964
7030.00,1.1946
7029.00,1.1919
7028.00,1.1882
7027.00,1.1843
7026.00,1.1808
7025.00,1.1775
7024.00,1.1741
7023.00,1.1701
7022.00,1.1654
7021.00,1.1603
7020.00,1.1548
7019.00,1.1492
7018.00,1.1431
7017.00,1.1361
7016.00,1.1285
7015.00,1.1205
7014.00,1.1126
7013.00,1.1045
7012.00,1.0959
7011.00,1.0870
7010.00,1.0780
7009.00,1.0692
7008.00,1.0602
7007.00,1.0506
7006.00,1.0406
7005.00,1.0303
7004.00,1.0201
7003.00,1.0099
7002.00,0.9995
7001.00,0.9889
7000.00,0.9781
6999.00,0.9672
6998.00,0.9561
6997.00,0.9449
6996.00,0.9336
6995.00,0.9224
6994.00,0.9112
6993.00,0.9003
6992.00,0.8897
6991.00,0.8792
6990.00,0.8690
6989.00,0.8591
6988.00,0.8494
6987.00,0.8401
6986.00,0.8310
6985.00,0.8223
6984.00,0.8138
6983.00,0.8057
6982.00,0.7984
6981.00,0.7917
6980.00,0.7855
6979.00,0.7798
6978.00,0.7747
6977.00,0.7704
6976.00,0.7666
6975.00,0.7636
6974.00,0.7612
6973.00,0.7596
6972.00,0.7588
6971.00,0.7587
6970.00,0.7594
6969.00,0.7608
6968.00,0.7627
6967.00,0.7649
6966.00,0.7678
6965.00,0.7715
6964.00,0.7762
6963.00,0.7817
6962.00,0.7878
6961.00,0.7943
6960.00,0.8014
6959.00,0.8089
6958.00,0.8170
6957.00,0.8256
6956.00,0.8345
6955.00,0.8440
6954.00,0.8539
6953.00,0.8642
6952.00,0.8746
6951.00,0.8850
6950.00,0.8954
6949.00,0.9062
6948.00,0.9172
6947.00,0.9285
6946.00,0.9398
6945.00,0.9514
6944.00,0.9629
6943.00,0.9743
6942.00,0.9853
6941.00,0.9961
6940.00,1.0067
6939.00,1.0174
6938.00,1.0280
6937.00,1.0389
6936.00,1.0499
6935.00,1.0609
6934.00,1.0716
6933.00,1.0820
6932.00,1.0923
6931.00,1.1025
6930.00,1.1122
6929.00,1.1210
6928.00,1.1292
6927.00,1.1370
6926.00,1.1447
6925.00,1.1518
6924.00,1.1582
6923.00,1.1641
6922.00,1.1703
6921.00,1.1765
6920.00,1.1822
6919.00,1.1870
6918.00,1.1917
6917.00,1.1967
6916.00,1.2018
6915.00,1.2059
6914.00,1.2087
6913.00,1.2110
6912.00,1.2135
6911.00,1.2165
6910.00,1.2193
6909.00,1.2215
6908.00,1.2231
6907.00,1.2245
6906.00,1.2258
6905.00,1.2266
6904.00,1.2263
6903.00,1.2251
6902.00,1.2234
6901.00,1.2217
6900.00,1.2198
6899.00,1.2175
6898.00,1.2145
6897.00,1.2108
6896.00,1.2063
6895.00,1.2013
6894.00,1.1960
6893.00,1.1906
6892.00,1.1852
6891.00,1.1797
6890.00,1.1740
6889.00,1.1679
6888.00,1.1610
6887.00,1.1536
6886.00,1.1458
6885.00,1.1374
6884.00,1.1285
6883.00,1.1193
6882.00,1.1102
6881.00,1.1011
6880.00,1.0917
6879.00,1.0820
6878.00,1.0722
6877.00,1.0622
6876.00,1.0517
6875.00,1.0403
6874.00,1.0285
6873.00,1.0168
6872.00,1.0052
6871.00,0.9934
6870.00,0.9814
6869.00,0.9695
6868.00,0.9581
6867.00,0.9469
6866.00,0.9357
6865.00,0.9242
6864.00,0.9126
6863.00,0.9011
6862.00,0.8899
6861.00,0.8790
6860.00,0.8683
6859.00,0.8577
6858.00,0.8476
6857.00,0.8380
6856.00,0.8290
6855.00,0.8202
6854.00,0.8119
6853.00,0.8042
6852.00,0.7971
6851.00,0.7905
6850.00,0.7846
6849.00,0.7794
6848.00,0.7748
6847.00,0.7709
6846.00,0.7675
6845.00,0.7649
6844.00,0.7631
6843.00,0.7620
6842.00,0.7617
6841.00,0.7620
6840.00,0.7629
6839.00,0.7646
6838.00,0.7671
6837.00,0.7707
6836.00,0.7752
6835.00,0.7801
6834.00,0.7856
6833.00,0.7917
6832.00,0.7985
6831.00,0.8058
6830.00,0.8134
6829.00,0.8216
6828.00,0.8304
6827.00,0.8399
6826.00,0.8497
6825.00,0.8599
6824.00,0.8701
6823.00,0.8805
6822.00,0.8909
6821.00,0.9015
6820.00,0.9124
6819.00,0.9236
6818.00,0.9352
6817.00,0.9469
6816.00,0.9588
6815.00,0.9706
6814.00,0.9823
6813.00,0.9938
6812.00,1.0049
6811.00,1.0157
6810.00,1.0264
6809.00,1.0371
6808.00,1.0478
6807.00,1.0587
6806.00,1.0697
6805.00,1.0807
6804.00,1.0915
6803.00,1.1018
6802.00,1.1112
6801.00,1.1198
6800.00,1.1278
6799.00,1.1353
6798.00,1.1426
6797.00,1.1499
6796.00,1.1570
6795.00,1.1639
6794.00,1.1706
6793.00,1.1770
6792.00,1.1828
6791.00,1.1875
6790.00,1.1914
6789.00,1.1952
6788.00,1.1992
6787.00,1.2032
6786.00,1.2069
6785.00,1.2102
6784.00,1.2136
6783.00,1.2169
6782.00,1.2194
6781.00,1.2207
6780.00,1.2210
6779.00,1.2210
6778.00,1.2209
6777.00,1.2205
6776.00,1.2193
6775.00,1.2177
6774.00,1.2162
6773.00,1.2149
6772.00,1.2135
6771.00,1.2114
6770.00,1.2087
6769.00,1.2056
6768.00,1.2019
6767.00,1.1973
6766.00,1.1921
6765.00,1.1866
6764.00,1.1808
6763.00,1.1745
6762.00,1.1678
6761.00,1.1606
6760.00,1.1533
6759.00,1.1459
6758.00,1.1384
6757.00,1.1307
6756.00,1.1229
6755.00,1.1148
6754.00,1.1062
6753.00,1.0973
6752.00,1.0880
6751.00,1.0782
6750.00,1.0679
6749.00,1.0574
6748.00,1.0470
6747.00,1.0365
6746.00,1.0256
6745.00,1.0142
6744.00,1.0027
6743.00,0.9913
6742.00,0.9800
6741.00,0.9687
6740.00,0.9572
6739.00,0.9457
6738.00,0.9343
6737.00,0.9229
6736.00,0.9113
6735.00,0.8997
6734.00,0.8882
6733.00,0.8771
6732.00,0.8665
6731.00,0.8562
6730.00,0.8461
6729.00,0.8363
6728.00,0.8268
6727.00,0.8176
6726.00,0.8090
6725.00,0.8010
6724.00,0.7934
6723.00,0.7865
6722.00,0.7801
6721.00,0.7743
6720.00,0.7690
6719.00,0.7642
6718.00,0.7601
6717.00,0.7567
6716.00,0.7541
6715.00,0.7524
6714.00,0.7517
6713.00,0.7519
6712.00,0.7528
6711.00,0.7543
6710.00,0.7565
6709.00,0.7596
6708.00,0.7633
6707.00,0.7676
6706.00,0.7725
6705.00,0.7781
6704.00,0.7844
6703.00,0.7915
6702.00,0.7991
6701.00,0.8073
6700.00,0.8160
6699.00,0.8251
6698.00,0.8345
6697.00,0.8443
6696.00,0.8545
6695.00,0.8650
6694.00,0.8760
6693.00,0.8874
6692.00,0.8991
6691.00,0.9107
6690.00,0.9224
6689.00,0.9341
6688.00,0.9460
6687.00,0.9580
6686.00,0.9698
6685.00,0.9814
6684.00,0.9932
6683.00,1.0051
6682.00,1.0170
6681.00,1.0290
6680.00,1.0408
6679.00,1.0521
6678.00,1.0631
6677.00,1.0737
6676.00,1.0842
6675.00,1.0944
6674.00,1.1043
6673.00,1.1141
6672.00,1.1241
6671.00,1.1341
6670.00,1.1435
6669.00,1.1522
6668.00,1.1599
6667.00,1.1672
6666.00,1.1741
6665.00,1.1809
6664.00,1.1876
6663.00,1.1939
6662.00,1.1996
6661.00,1.2046
6660.00,1.2091
6659.00,1.2134
6658.00,1.2176
6657.00,1.2213
6656.00,1.2247
6655.00,1.2277
6654.00,1.2304
6653.00,1.2328
6652.00,1.2348
6651.00,1.2363
6650.00,1.2375
6649.00,1.2383
6648.00,1.2387
6647.00,1.2389
6646.00,1.2386
6645.00,1.2379
6644.00,1.2363
6643.00,1.2341
6642.00,1.2313
6641.00,1.2283
6640.00,1.2253
6639.00,1.2218
6638.00,1.2177
6637.00,1.2130
6636.00,1.2079
6635.00,1.2024
6634.00,1.1967
6633.00,1.1908
6632.00,1.1845
6631.00,1.1779
6630.00,1.1708
6629.00,1.1635
6628.00,1.1561
6627.00,1.1483
6626.00,1.1400
6625.00,1.1311
6624.00,1.1217
6623.00,1.1118
6622.00,1.1014
6621.00,1.0905
6620.00,1.0794
6619.00,1.0684
6618.00,1.0576
6617.00,1.0468
6616.00,1.0358
6615.00,1.0246
6614.00,1.0130
6613.00,1.0009
6612.00,0.9884
6611.00,0.9759
6610.00,0.9635
6609.00,0.9512
6608.00,0.9389
6607.00,0.9266
6606.00,0.9146
6605.00,0.9028
6604.00,0.8913
6603.00,0.8798
6602.00,0.8686
6601.00,0.8577
6600.00,0.8471
6599.00,0.8367
6598.00,0.8267
6597.00,0.8172
6596.00,0.8084
6595.00,0.8004
6594.00,0.7929
6593.00,0.7862
6592.00,0.7800
6591.00,0.7745
6590.00,0.7695
6589.00,0.7652
6588.00,0.7618
6587.00,0.7591
6586.00,0.7572
6585.00,0.7561
6584.00,0.7558
6583.00,0.7565
6582.00,0.7579
6581.00,0.7600
6580.00,0.7628
6579.00,0.7662
6578.00,0.7705
6577.00,0.7756
6576.00,0.7816
6575.00,0.7882
6574.00,0.7954
6573.00,0.8034
6572.00,0.8120
6571.00,0.8211
6570.00,0.8305
6569.00,0.8402
6568.00,0.8502
6567.00,0.8607
6566.00,0.8715
6565.00,0.8826
6564.00,0.8940
6563.00,0.9058
6562.00,0.9179
6561.00,0.9300
6560.00,0.9419
6559.00,0.9538
6558.00,0.9656
6557.00,0.9773
6556.00,0.9892
6555.00,1.0012
6554.00,1.0133
6553.00,1.0252
6552.00,1.0370
6551.00,1.0485
6550.00,1.0597
6549.00,1.0706
6548.00,1.0811
6547.00,1.0916
6546.00,1.1020
6545.00,1.1121
6544.00,1.1216
6543.00,1.1304
6542.00,1.1387
6541.00,1.1468
6540.00,1.1547
6539.00,1.1623
6538.00,1.1697
6537.00,1.1769
6536.00,1.1838
6535.00,1.1902
6534.00,1.1960
6533.00,1.2009
6532.00,1.2052
6531.00,1.2092
6530.00,1.2132
6529.00,1.2171
6528.00,1.2205
6527.00,1.2235
6526.00,1.2260
6525.00,1.2282
6524.00,1.2298
6523.00,1.2306
6522.00,1.2311
6521.00,1.2316
6520.00,1.2318
6519.00,1.2316
6518.00,1.2307
6517.00,1.2294
6516.00,1.2279
6515.00,1.2258
6514.00,1.2232
6513.00,1.2203
6512.00,1.2171
6511.00,1.2137
6510.00,1.2100
6509.00,1.2058
6508.00,1.2011
6507.00,1.1961
6506.00,1.1912
6505.00,1.1863
6504.00,1.1810
6503.00,1.1751
6502.00,1.1685
6501.00,1.1615
6500.00,1.1541
6499.00,1.1461
6498.00,1.1376
6497.00,1.1288
6496.00,1.1199
6495.00,1.1110
6494.00,1.1017
6493.00,1.0919
6492.00,1.0818
6491.00,1.0714
6490.00,1.0608
6489.00,1.0499
6488.00,1.0387
6487.00,1.0275
6486.00,1.0163
6485.00,1.0050
6484.00,0.9935
6483.00,0.9816
6482.00,0.9694
6481.00,0.9570
6480.00,0.9446
6479.00,0.9323
6478.00,0.9200
6477.00,0.9079
6476.00,0.8961
6475.00,0.8847
6474.00,0.8735
6473.00,0.8623
6472.00,0.8512
6471.00,0.8405
6470.00,0.8304
6469.00,0.8207
6468.00,0.8115
6467.00,0.8027
6466.00,0.7945
6465.00,0.7868
6464.00,0.7798
6463.00,0.7733
6462.00,0.7677
6461.00,0.7629
6460.00,0.7588
6459.00,0.7555
6458.00,0.7530
6457.00,0.7513
6456.00,0.7503
6455.00,0.7502
6454.00,0.7510
6453.00,0.7528
6452.00,0.7554
6451.00,0.7587
6450.00,0.7626
6449.00,0.7671
6448.00,0.7723
6447.00,0.7782
6446.00,0.7850
6445.00,0.7927
6444.00,0.8010
6443.00,0.8100
6442.00,0.8197
6441.00,0.8298
6440.00,0.8401
6439.00,0.8506
6438.00,0.8612
6437.00,0.8723
6436.00,0.8838
6435.00,0.8957
6434.00,0.9081
6433.00,0.9208
6432.00,0.9338
6431.00,0.9469
6430.00,0.9597
6429.00,0.9722
6428.00,0.9843
6427.00,0.9962
6426.00,1.0082
6425.00,1.0205
6424.00,1.0331
6423.00,1.0456
6422.00,1.0580
6421.00,1.0702
6420.00,1.0821
6419.00,1.0936
6418.00,1.1046
6417.00,1.1151
6416.00,1.1253
6415.00,1.1353
6414.00,1.1452
6413.00,1.1547
6412.00,1.1639
6411.00,1.1729
6410.00,1.1820
6409.00,1.1909
6408.00,1.1992
6407.00,1.2067
6406.00,1.2136
6405.00,1.2199
6404.00,1.2252
6403.00,1.2297
6402.00,1.2338
6401.00,1.2379
6400.00,1.2422
6399.00,1.2464
6398.00,1.2504
6397.00,1.2542
6396.00,1.2575
6395.00,1.2599
6394.00,1.2613
6393.00,1.2620
6392.00,1.2621
6391.00,1.2622
6390.00,1.2624
6389.00,1.2625
6388.00,1.2621
6387.00,1.2611
6386.00,1.2594
6385.00,1.2572
6384.00,1.2544
6383.00,1.2511
6382.00,1.2473
6381.00,1.2436
6380.00,1.2398
6379.00,1.2357
6378.00,1.2310
6377.00,1.2257
6376.00,1.2200
6375.00,1.2138
6374.00,1.2074
6373.00,1.2005
6372.00,1.1934
6371.00,1.1858
6370.00,1.1779
6369.00,1.1695
6368.00,1.1605
6367.00,1.1509
6366.00,1.1408
6365.00,1.1303
6364.00,1.1193
6363.00,1.1078
6362.00,1.0960
6361.00,1.0843
6360.00,1.0728
6359.00,1.0610
6358.00,1.0489
6357.00,1.0366
6356.00,1.0242
6355.00,1.0117
6354.00,0.9989
6353.00,0.9860
6352.00,0.9731
6351.00,0.9601
6350.00,0.9470
6349.00,0.9339
6348.00,0.9208
6347.00,0.9077
6346.00,0.8949
6345.00,0.8828
6344.00,0.8711
6343.00,0.8597
6342.00,0.8486
6341.00,0.8378
6340.00,0.8275
6339.00,0.8175
6338.00,0.8080
6337.00,0.7990
6336.00,0.7908
6335.00,0.7834
6334.00,0.7767
6333.00,0.7706
6332.00,0.7653
6331.00,0.7607
6330.00,0.7570
6329.00,0.7542
6328.00,0.7523
6327.00,0.7513
6326.00,0.7513
6325.00,0.7522
6324.00,0.7538
6323.00,0.7563
6322.00,0.7597
6321.00,0.7641
6320.00,0.7693
6319.00,0.7752
6318.00,0.7818
6317.00,0.7890
6316.00,0.7967
6315.00,0.8049
6314.00,0.8136
6313.00,0.8229
6312.00,0.8331
6311.00,0.8438
6310.00,0.8551
6309.00,0.8667
6308.00,0.8785
6307.00,0.8903
6306.00,0.9023
6305.00,0.9145
6304.00,0.9271
6303.00,0.9399
6302.00,0.9528
6301.00,0.9657
6300.00,0.9784
6299.00,0.9910
6298.00,1.0034
6297.00,1.0155
6296.00,1.0275
6295.00,1.0395
6294.00,1.0514
6293.00,1.0633
6292.00,1.0749
6291.00,1.0861
6290.00,1.0971
6289.00,1.1081
6288.00,1.1188
6287.00,1.1292
6286.00,1.1391
6285.00,1.1486
6284.00,1.1578
6283.00,1.1666
6282.00,1.1751
6281.00,1.1830
6280.00,1.1903
6279.00,1.1969
6278.00,1.2029
6277.00,1.2084
6276.00,1.2137
6275.00,1.2187
6274.00,1.2236
6273.00,1.2284
6272.00,1.2328
6271.00,1.2368
6270.00,1.2401
6269.00,1.2429
6268.00,1.2451
6267.00,1.2468
6266.00,1.2483
6265.00,1.2496
6264.00,1.2505
6263.00,1.2509
6262.00,1.2510
6261.00,1.2506
6260.00,1.2497
6259.00,1.2483
6258.00,1.2464
6257.00,1.2444
6256.00,1.2420
6255.00,1.2394
6254.00,1.2365
6253.00,1.2334
6252.00,1.2298
6251.00,1.2257
6250.00,1.2212
6249.00,1.2164
6248.00,1.2113
6247.00,1.2058
6246.00,1.1998
6245.00,1.1934
6244.00,1.1868
6243.00,1.1798
6242.00,1.1724
6241.00,1.1645
6240.00,1.1563
6239.00,1.1477
6238.00,1.1389
6237.00,1.1296
6236.00,1.1199
6235.00,1.1097
6234.00,1.0991
6233.00,1.0881
6232.00,1.0767
6231.00,1.0649
6230.00,1.0531
6229.00,1.0412
6228.00,1.0293
6227.00,1.0172
6226.00,1.0048
6225.00,0.9921
6224.00,0.9792
6223.00,0.9662
6222.00,0.9532
6221.00,0.9403
6220.00,0.9276
6219.00,0.9152
6218.00,0.9029
6217.00,0.8907
6216.00,0.8784
6215.00,0.8661
6214.00,0.8541
6213.00,0.8425
6212.00,0.8314
6211.00,0.8210
6210.00,0.8111
6209.00,0.8020
6208.00,0.7933
6207.00,0.7852
6206.00,0.7776
6205.00,0.7707
6204.00,0.7646
6203.00,0.7593
6202.00,0.7548
6201.00,0.7513
6200.00,0.7486
6199.00,0.7468
6198.00,0.7459
6197.00,0.7459
6196.00,0.7470
6195.00,0.7490
6194.00,0.7520
6193.00,0.7560
6192.00,0.7608
6191.00,0.7665
6190.00,0.7729
6189.00,0.7800
6188.00,0.7875
6187.00,0.7955
6186.00,0.8042
6185.00,0.8137
6184.00,0.8238
6183.00,0.8345
6182.00,0.8457
6181.00,0.8574
6180.00,0.8693
6179.00,0.8815
6178.00,0.8941
6177.00,0.9070
6176.00,0.9200
6175.00,0.9331
6174.00,0.9464
6173.00,0.9597
6172.00,0.9729
6171.00,0.9862
6170.00,0.9997
6169.00,1.0132
6168.00,1.0266
6167.00,1.0399
6166.00,1.0530
6165.00,1.0660
6164.00,1.0789
6163.00,1.0915
6162.00,1.1039
6161.00,1.1160
6160.00,1.1278
6159.00,1.1391
6158.00,1.1500
6157.00,1.1604
6156.00,1.1703
6155.00,1.1795
6154.00,1.1882
6153.00,1.1965
6152.00,1.2045
6151.00,1.2124
6150.00,1.2204
6149.00,1.2281
6148.00,1.2352
6147.00,1.2415
6146.00,1.2470
6145.00,1.2522
6144.00,1.2571
6143.00,1.2617
6142.00,1.2661
6141.00,1.2701
6140.00,1.2735
6139.00,1.2762
6138.00,1.2785
6137.00,1.2805
6136.00,1.2823
6135.00,1.2836
6134.00,1.2844
6133.00,1.2846
6132.00,1.2841
6131.00,1.2831
6130.00,1.2821
6129.00,1.2813
6128.00,1.2805
6127.00,1.2790
6126.00,1.2768
6125.00,1.2737
6124.00,1.2701
6123.00,1.2659
6122.00,1.2614
6121.00,1.2569
6120.00,1.2523
6119.00,1.2474
6118.00,1.2418
6117.00,1.2352
6116.00,1.2280
6115.00,1.2203
6114.00,1.2123
6113.00,1.2040
6112.00,1.1953
6111.00,1.1861
6110.00,1.1764
6109.00,1.1661
6108.00,1.1555
6107.00,1.1447
6106.00,1.1338
6105.00,1.1226
6104.00,1.1109
6103.00,1.0987
6102.00,1.0862
6101.00,1.0735
6100.00,1.0607
6099.00,1.0476
6098.00,1.0343
6097.00,1.0210
6096.00,1.0074
6095.00,0.9935
6094.00,0.9794
6093.00,0.9651
6092.00,0.9510
6091.00,0.9372
6090.00,0.9235
6089.00,0.9099
6088.00,0.8964
6087.00,0.8833
6086.00,0.8707
6085.00,0.8584
6084.00,0.8465
6083.00,0.8349
6082.00,0.8239
6081.00,0.8134
6080.00,0.8035
6079.00,0.7942
6078.00,0.7856
6077.00,0.7778
6076.00,0.7707
6075.00,0.7643
6074.00,0.7589
6073.00,0.7543
6072.00,0.7506
6071.00,0.7478
6070.00,0.7459
6069.00,0.7451
6068.00,0.7451
6067.00,0.7461
6066.00,0.7480
6065.00,0.7509
6064.00,0.7548
6063.00,0.7594
6062.00,0.7649
6061.00,0.7713
6060.00,0.7785
6059.00,0.7864
6058.00,0.7951
6057.00,0.8045
6056.00,0.8144
6055.00,0.8249
6054.00,0.8359
6053.00,0.8474
6052.00,0.8595
6051.00,0.8717
6050.00,0.8841
6049.00,0.8967
6048.00,0.9094
6047.00,0.9222
6046.00,0.9352
6045.00,0.9482
6044.00,0.9615
6043.00,0.9750
6042.00,0.9889
6041.00,1.0028
6040.00,1.0164
6039.00,1.0297
6038.00,1.0428
6037.00,1.0557
6036.00,1.0685
6035.00,1.0809
6034.00,1.0930
6033.00,1.1050
6032.00,1.1169
6031.00,1.1284
6030.00,1.1394
6029.00,1.1501
6028.00,1.1607
6027.00,1.1711
6026.00,1.1814
6025.00,1.1911
6024.00,1.2000
6023.00,1.2084
6022.00,1.2164
6021.00,1.2239
6020.00,1.2310
6019.00,1.2377
6018.00,1.2441
6017.00,1.2502
6016.00,1.2562
6015.00,1.2620
6014.00,1.2676
6013.00,1.2726
6012.00,1.2770
6011.00,1.2808
6010.00,1.2840
6009.00,1.2867
6008.00,1.2889
6007.00,1.2906
6006.00,1.2921
6005.00,1.2933
6004.00,1.2940
6003.00,1.2942
6002.00,1.2940
6001.00,1.2936
6000.00,1.2927
5999.00,1.2915
5998.00,1.2898
5997.00,1.2876
5996.00,1.2850
5995.00,1.2818
5994.00,1.2781
5993.00,1.2739
5992.00,1.2690
5991.00,1.2635
5990.00,1.2575
5989.00,1.2514
5988.00,1.2449
5987.00,1.2381
5986.00,1.2311
5985.00,1.2236
5984.00,1.2156
5983.00,1.2069
5982.00,1.1975
5981.00,1.1877
5980.00,1.1775
5979.00,1.1669
5978.00,1.1560
5977.00,1.1447
5976.00,1.1328
5975.00,1.1204
5974.00,1.1076
5973.00,1.0946
5972.00,1.0814
5971.00,1.0681
5970.00,1.0547
5969.00,1.0413
5968.00,1.0279
5967.00,1.0141
5966.00,1.0001
5965.00,0.9860
5964.00,0.9718
5963.00,0.9576
5962.00,0.9434
5961.00,0.9293
5960.00,0.9154
5959.00,0.9016
5958.00,0.8880
5957.00,0.8748
5956.00,0.8618
5955.00,0.8492
5954.00,0.8371
5953.00,0.8258
5952.00,0.8151
5951.00,0.8051
5950.00,0.7958
5949.00,0.7873
5948.00,0.7795
5947.00,0.7724
5946.00,0.7659
5945.00,0.7605
5944.00,0.7560
5943.00,0.7524
5942.00,0.7500
5941.00,0.7487
5940.00,0.7484
5939.00,0.7491
5938.00,0.7508
5937.00,0.7535
5936.00,0.7571
5935.00,0.7618
5934.00,0.7673
5933.00,0.7736
5932.00,0.7808
5931.00,0.7888
5930.00,0.7975
5929.00,0.8071
5928.00,0.8174
5927.00,0.8282
5926.00,0.8395
5925.00,0.8513
5924.00,0.8637
5923.00,0.8765
5922.00,0.8896
5921.00,0.9030
5920.00,0.9168
5919.00,0.9308
5918.00,0.9448
5917.00,0.9588
5916.00,0.9729
5915.00,0.9871
5914.00,1.0014
5913.00,1.0155
5912.00,1.0296
5911.00,1.0438
5910.00,1.0581
5909.00,1.0723
5908.00,1.0862
5907.00,1.0997
5906.00,1.1130
5905.00,1.1259
5904.00,1.1384
5903.00,1.1504
5902.00,1.1619
5901.00,1.1730
5900.00,1.1837
5899.00,1.1942
5898.00,1.2046
5897.00,1.2146
5896.00,1.2243
5895.00,1.2336
5894.00,1.2426
5893.00,1.2512
5892.00,1.2594
5891.00,1.2670
5890.00,1.2741
5889.00,1.2806
5888.00,1.2863
5887.00,1.2911
5886.00,1.2954
5885.00,1.2995
5884.00,1.3036
5883.00,1.3077
5882.00,1.3116
5881.00,1.3150
5880.00,1.3176
5879.00,1.3195
5878.00,1.3208
5877.00,1.3218
5876.00,1.3222
5875.00,1.3223
5874.00,1.3221
5873.00,1.3217
5872.00,1.3209
5871.00,1.3194
5870.00,1.3173
5869.00,1.3148
5868.00,1.3118
5867.00,1.3085
5866.00,1.3047
5865.00,1.3007
5864.00,1.2963
5863.00,1.2916
5862.00,1.2862
5861.00,1.2802
5860.00,1.2736
5859.00,1.2667
5858.00,1.2597
5857.00,1.2524
5856.00,1.2447
5855.00,1.2363
5854.00,1.2275
5853.00,1.2180
5852.00,1.2081
5851.00,1.1978
5850.00,1.1873
5849.00,1.1766
5848.00,1.1656
5847.00,1.1541
5846.00,1.1422
5845.00,1.1298
5844.00,1.1170
5843.00,1.1039
5842.00,1.0906
5841.00,1.0772
5840.00,1.0637
5839.00,1.0499
5838.00,1.0359
5837.00,1.0218
5836.00,1.0074
5835.00,0.9928
5834.00,0.9782
5833.00,0.9637
5832.00,0.9494
5831.00,0.9352
5830.00,0.9213
5829.00,0.9077
5828.00,0.8944
5827.00,0.8815
5826.00,0.8691
5825.00,0.8571
5824.00,0.8456
5823.00,0.8347
5822.00,0.8244
5821.00,0.8147
5820.00,0.8057
5819.00,0.7974
5818.00,0.7900
5817.00,0.7835
5816.00,0.7779
5815.00,0.7731
5814.00,0.7693
5813.00,0.7665
5812.00,0.7646
5811.00,0.7636
5810.00,0.7637
5809.00,0.7649
5808.00,0.7671
5807.00,0.7702
5806.00,0.7742
5805.00,0.7792
5804.00,0.7851
5803.00,0.7917
5802.00,0.7992
5801.00,0.8076
5800.00,0.8167
5799.00,0.8265
5798.00,0.8371
5797.00,0.8484
5796.00,0.8602
5795.00,0.8724
5794.00,0.8851
5793.00,0.8982
5792.00,0.9115
5791.00,0.9250
5790.00,0.9388
5789.00,0.9528
5788.00,0.9670
5787.00,0.9813
5786.00,0.9956
5785.00,1.0100
5784.00,1.0245
5783.00,1.0388
5782.00,1.0529
5781.00,1.0669
5780.00,1.0808
5779.00,1.0947
5778.00,1.1085
5777.00,1.1221
5776.00,1.1354
5775.00,1.1481
5774.00,1.1603
5773.00,1.1721
5772.00,1.1837
5771.00,1.1951
5770.00,1.2061
5769.00,1.2166
5768.00,1.2266
5767.00,1.2360
5766.00,1.2452
5765.00,1.2544
5764.00,1.2635
5763.00,1.2723
5762.00,1.2803
5761.00,1.2875
5760.00,1.2941
5759.00,1.3000
5758.00,1.3057
5757.00,1.3111
5756.00,1.3162
5755.00,1.3206
5754.00,1.3242
5753.00,1.3273
5752.00,1.3303
5751.00,1.3333
5750.00,1.3362
5749.00,1.3388
5748.00,1.3409
5747.00,1.3422
5746.00,1.3425
5745.00,1.3422
5744.00,1.3412
5743.00,1.3396
5742.00,1.3376
5741.00,1.3353
5740.00,1.3328
5739.00,1.3300
5738.00,1.3269
5737.00,1.3235
5736.00,1.3199
5735.00,1.3160
5734.00,1.3115
5733.00,1.3063
5732.00,1.3005
5731.00,1.2942
5730.00,1.2873
5729.00,1.2799
5728.00,1.2721
5727.00,1.2640
5726.00,1.2555
5725.00,1.2466
5724.00,1.2371
5723.00,1.2270
5722.00,1.2166
5721.00,1.2059
5720.00,1.1949
5719.00,1.1834
5718.00,1.1714
5717.00,1.1590
5716.00,1.1460
5715.00,1.1326
5714.00,1.1187
5713.00,1.1046
5712.00,1.0905
5711.00,1.0761
5710.00,1.0616
5709.00,1.0468
5708.00,1.0320
5707.00,1.0170
5706.00,1.0018
5705.00,0.9865
5704.00,0.9713
5703.00,0.9563
5702.00,0.9414
5701.00,0.9266
5700.00,0.9121
5699.00,0.8978
5698.00,0.8838
5697.00,0.8703
5696.00,0.8573
5695.00,0.8448
5694.00,0.8330
5693.00,0.8218
5692.00,0.8112
5691.00,0.8013
5690.00,0.7922
5689.00,0.7839
5688.00,0.7765
5687.00,0.7701
5686.00,0.7648
5685.00,0.7604
5684.00,0.7571
5683.00,0.7548
5682.00,0.7536
5681.00,0.7535
5680.00,0.7544
5679.00,0.7565
5678.00,0.7598
5677.00,0.7641
5676.00,0.7696
5675.00,0.7761
5674.00,0.7835
5673.00,0.7918
5672.00,0.8008
5671.00,0.8105
5670.00,0.8209
5669.00,0.8321
5668.00,0.8440
5667.00,0.8564
5666.00,0.8693
5665.00,0.8827
5664.00,0.8964
5663.00,0.9104
5662.00,0.9247
5661.00,0.9394
5660.00,0.9543
5659.00,0.9692
5658.00,0.9842
5657.00,0.9990
5656.00,1.0139
5655.00,1.0287
5654.00,1.0436
5653.00,1.0584
5652.00,1.0732
5651.00,1.0878
5650.00,1.1021
5649.00,1.1161
5648.00,1.1297
5647.00,1.1428
5646.00,1.1556
5645.00,1.1681
5644.00,1.1802
5643.00,1.1920
5642.00,1.2033
5641.00,1.2144
5640.00,1.2250
5639.00,1.2352
5638.00,1.2450
5637.00,1.2544
5636.00,1.2631
5635.00,1.2712
5634.00,1.2787
5633.00,1.2856
5632.00,1.2920
5631.00,1.2978
5630.00,1.3034
5629.00,1.3085
5628.00,1.3134
5627.00,1.3177
5626.00,1.3218
5625.00,1.3254
5624.00,1.3284
5623.00,1.3308
5622.00,1.3326
5621.00,1.3339
5620.00,1.3347
5619.00,1.3351
5618.00,1.3351
5617.00,1.3347
5616.00,1.3341
5615.00,1.3331
5614.00,1.3317
5613.00,1.3300
5612.00,1.3280
5611.00,1.3255
5610.00,1.3226
5609.00,1.3191
5608.00,1.3154
5607.00,1.3113
5606.00,1.3070
5605.00,1.3023
5604.00,1.2975
5603.00,1.2926
5602.00,1.2873
5601.00,1.2814
5600.00,1.2749
5599.00,1.2677
5598.00,1.2599
5597.00,1.2515
5596.00,1.2426
5595.00,1.2334
5594.00,1.2239
5593.00,1.2138
5592.00,1.2033
5591.00,1.1923
5590.00,1.1810
5589.00,1.1693
5588.00,1.1572
5587.00,1.1448
5586.00,1.1318
5585.00,1.1182
5584.00,1.1040
5583.00,1.0895
5582.00,1.0748
5581.00,1.0598
5580.00,1.0446
5579.00,1.0294
5578.00,1.0141
5577.00,0.9987
5576.00,0.9831
5575.00,0.9674
5574.00,0.9518
5573.00,0.9363
5572.00,0.9210
5571.00,0.9061
5570.00,0.8916
5569.00,0.8774
5568.00,0.8637
5567.00,0.8502
5566.00,0.8372
5565.00,0.8247
5564.00,0.8130
5563.00,0.8022
5562.00,0.7922
5561.00,0.7832
5560.00,0.7749
5559.00,0.7676
5558.00,0.7612
5557.00,0.7559
5556.00,0.7516
5555.00,0.7485
5554.00,0.7466
5553.00,0.7459
5552.00,0.7463
5551.00,0.7479
5550.00,0.7505
5549.00,0.7543
5548.00,0.7591
5547.00,0.7650
5546.00,0.7719
5545.00,0.7799
5544.00,0.7888
5543.00,0.7987
5542.00,0.8094
5541.00,0.8208
5540.00,0.8329
5539.00,0.8454
5538.00,0.8585
5537.00,0.8721
5536.00,0.8862
5535.00,0.9006
5534.00,0.9155
5533.00,0.9308
5532.00,0.9463
5531.00,0.9620
5530.00,0.9778
5529.00,0.9937
5528.00,1.0095
5527.00,1.0252
5526.00,1.0410
5525.00,1.0567
5524.00,1.0723
5523.00,1.0877
5522.00,1.1029
5521.00,1.1177
5520.00,1.1322
5519.00,1.1463
5518.00,1.1601
5517.00,1.1736
5516.00,1.1868
5515.00,1.1995
5514.00,1.2117
5513.00,1.2234
5512.00,1.2347
5511.00,1.2455
5510.00,1.2557
5509.00,1.2655
5508.00,1.2748
5507.00,1.2836
5506.00,1.2922
5505.00,1.3006
5504.00,1.3087
5503.00,1.3162
5502.00,1.3229
5501.00,1.3291
5500.00,1.3348
5499.00,1.3401
5498.00,1.3450
5497.00,1.3495
5496.00,1.3536
5495.00,1.3571
5494.00,1.3601
5493.00,1.3626
5492.00,1.3647
5491.00,1.3664
5490.00,1.3676
5489.00,1.3683
5488.00,1.3685
5487.00,1.3682
5486.00,1.3673
5485.00,1.3659
5484.00,1.3640
5483.00,1.3620
5482.00,1.3598
5481.00,1.3574
5480.00,1.3547
5479.00,1.3514
5478.00,1.3474
5477.00,1.3428
5476.00,1.3377
5475.00,1.3322
5474.00,1.3261
5473.00,1.3194
5472.00,1.3122
5471.00,1.3045
5470.00,1.2964
5469.00,1.2878
5468.00,1.2787
5467.00,1.2692
5466.00,1.2591
5465.00,1.2486
5464.00,1.2376
5463.00,1.2263
5462.00,1.2146
5461.00,1.2024
5460.00,1.1897
5459.00,1.1763
5458.00,1.1624
5457.00,1.1482
5456.00,1.1335
5455.00,1.1184
5454.00,1.1030
5453.00,1.0873
5452.00,1.0716
5451.00,1.0557
5450.00,1.0396
5449.00,1.0234
5448.00,1.0069
5447.00,0.9903
5446.00,0.9736
5445.00,0.9569
5444.00,0.9403
5443.00,0.9239
5442.00,0.9079
5441.00,0.8924
5440.00,0.8774
5439.00,0.8628
5438.00,0.8487
5437.00,0.8351
5436.00,0.8222
5435.00,0.8099
5434.00,0.7984
5433.00,0.7876
5432.00,0.7778
5431.00,0.7691
5430.00,0.7615
5429.00,0.7549
5428.00,0.7494
5427.00,0.7449
5426.00,0.7416
5425.00,0.7395
5424.00,0.7385
5423.00,0.7388
5422.00,0.7404
5421.00,0.7432
5420.00,0.7474
5419.00,0.7527
5418.00,0.7592
5417.00,0.7666
5416.00,0.7750
5415.00,0.7842
5414.00,0.7945
5413.00,0.8055
5412.00,0.8172
5411.00,0.8295
5410.00,0.8424
5409.00,0.8560
5408.00,0.8701
5407.00,0.8846
5406.00,0.8995
5405.00,0.9147
5404.00,0.9302
5403.00,0.9458
5402.00,0.9615
5401.00,0.9773
5400.00,0.9932
5399.00,1.0091
5398.00,1.0249
5397.00,1.0407
5396.00,1.0565
5395.00,1.0723
5394.00,1.0879
5393.00,1.1036
5392.00,1.1192
5391.00,1.1345
5390.00,1.1493
5389.00,1.1634
5388.00,1.1769
5387.00,1.1899
5386.00,1.2023
5385.00,1.2145
5384.00,1.2265
5383.00,1.2384
5382.00,1.2500
5381.00,1.2610
5380.00,1.2714
5379.00,1.2814
5378.00,1.2910
5377.00,1.3001
5376.00,1.3087
5375.00,1.3167
5374.00,1.3242
5373.00,1.3313
5372.00,1.3382
5371.00,1.3449
5370.00,1.3512
5369.00,1.3570
5368.00,1.3620
5367.00,1.3661
5366.00,1.3695
5365.00,1.3725
5364.00,1.3751
5363.00,1.3774
5362.00,1.3791
5361.00,1.3804
5360.00,1.3813
5359.00,1.3817
5358.00,1.3816
5357.00,1.3811
5356.00,1.3803
5355.00,1.3793
5354.00,1.3777
5353.00,1.3753
5352.00,1.3724
5351.00,1.3691
5350.00,1.3655
5349.00,1.3616
5348.00,1.3572
5347.00,1.3523
5346.00,1.3469
5345.00,1.3409
5344.00,1.3343
5343.00,1.3271
5342.00,1.3192
5341.00,1.3109
5340.00,1.3022
5339.00,1.2932
5338.00,1.2838
5337.00,1.2738
5336.00,1.2633
5335.00,1.2523
5334.00,1.2407
5333.00,1.2287
5332.00,1.2163
5331.00,1.2034
5330.00,1.1901
5329.00,1.1762
5328.00,1.1617
5327.00,1.1466
5326.00,1.1310
5325.00,1.1152
5324.00,1.0994
5323.00,1.0834
5322.00,1.0673
5321.00,1.0507
5320.00,1.0338
5319.00,1.0167
5318.00,0.9995
5317.00,0.9822
5316.00,0.9649
5315.00,0.9478
5314.00,0.9310
5313.00,0.9146
5312.00,0.8987
5311.00,0.8831
5310.00,0.8680
5309.00,0.8535
5308.00,0.8394
5307.00,0.8260
5306.00,0.8133
5305.00,0.8015
5304.00,0.7906
5303.00,0.7806
5302.00,0.7718
5301.00,0.7641
5300.00,0.7577
5299.00,0.7524
5298.00,0.7484
5297.00,0.7458
5296.00,0.7446
5295.00,0.7446
5294.00,0.7458
5293.00,0.7483
5292.00,0.7522
5291.00,0.7573
5290.00,0.7636
5289.00,0.7710
5288.00,0.7794
5287.00,0.7888
5286.00,0.7993
5285.00,0.8108
5284.00,0.8232
5283.00,0.8363
5282.00,0.8500
5281.00,0.8643
5280.00,0.8791
5279.00,0.8945
5278.00,0.9105
5277.00,0.9268
5276.00,0.9435
5275.00,0.9603
5274.00,0.9771
5273.00,0.9939
5272.00,1.0107
5271.00,1.0277
5270.00,1.0447
5269.00,1.0619
5268.00,1.0789
5267.00,1.0955
5266.00,1.1118
5265.00,1.1278
5264.00,1.1435
5263.00,1.1592
5262.00,1.1747
5261.00,1.1898
5260.00,1.2043
5259.00,1.2181
5258.00,1.2313
5257.00,1.2442
5256.00,1.2567
5255.00,1.2690
5254.00,1.2808
5253.00,1.2920
5252.00,1.3024
5251.00,1.3122
5250.00,1.3217
5249.00,1.3310
5248.00,1.3399
5247.00,1.3483
5246.00,1.3560
5245.00,1.3632
5244.00,1.3699
5243.00,1.3761
5242.00,1.3817
5241.00,1.3869
5240.00,1.3914
5239.00,1.3956
5238.00,1.3994
5237.00,1.4030
5236.00,1.4061
5235.00,1.4087
5234.00,1.4107
5233.00,1.4120
5232.00,1.4127
5231.00,1.4129
5230.00,1.4125
5229.00,1.4118
5228.00,1.4108
5227.00,1.4098
5226.00,1.4086
5225.00,1.4070
5224.00,1.4047
5223.00,1.4017
5222.00,1.3980
5221.00,1.3937
5220.00,1.3890
5219.00,1.3839
5218.00,1.3785
5217.00,1.3727
5216.00,1.3663
5215.00,1.3595
5214.00,1.3523
5213.00,1.3445
5212.00,1.3362
5211.00,1.3274
5210.00,1.3181
5209.00,1.3084
5208.00,1.2980
5207.00,1.2870
5206.00,1.2754
5205.00,1.2632
5204.00,1.2507
5203.00,1.2378
5202.00,1.2245
5201.00,1.2108
5200.00,1.1964
5199.00,1.1815
5198.00,1.1661
5197.00,1.1503
5196.00,1.1341
5195.00,1.1176
5194.00,1.1008
5193.00,1.0840
5192.00,1.0668
5191.00,1.0494
5190.00,1.0318
5189.00,1.0140
5188.00,0.9962
5187.00,0.9783
5186.00,0.9606
5185.00,0.9432
5184.00,0.9260
5183.00,0.9091
5182.00,0.8926
5181.00,0.8766
5180.00,0.8612
5179.00,0.8463
5178.00,0.8321
5177.00,0.8187
5176.00,0.8061
5175.00,0.7945
5174.00,0.7839
5173.00,0.7744
5172.00,0.7662
5171.00,0.7591
5170.00,0.7534
5169.00,0.7490
5168.00,0.7459
5167.00,0.7441
5166.00,0.7436
5165.00,0.7444
5164.00,0.7466
5163.00,0.7501
5162.00,0.7550
5161.00,0.7613
5160.00,0.7687
5159.00,0.7772
5158.00,0.7867
5157.00,0.7972
5156.00,0.8088
5155.00,0.8212
5154.00,0.8345
5153.00,0.8486
5152.00,0.8634
5151.00,0.8788
5150.00,0.8948
5149.00,0.9112
5148.00,0.9281
5147.00,0.9453
5146.00,0.9626
5145.00,0.9801
5144.00,0.9977
5143.00,1.0153
5142.00,1.0328
5141.00,1.0504
5140.00,1.0679
5139.00,1.0853
5138.00,1.1024
5137.00,1.1193
5136.00,1.1359
5135.00,1.1523
5134.00,1.1684
5133.00,1.1843
5132.00,1.1998
5131.00,1.2147
5130.00,1.2289
5129.00,1.2425
5128.00,1.2555
5127.00,1.2680
5126.00,1.2801
5125.00,1.2919
5124.00,1.3032
5123.00,1.3141
5122.00,1.3246
5121.00,1.3348
5120.00,1.3445
5119.00,1.3536
5118.00,1.3622
5117.00,1.3703
5116.00,1.3780
5115.00,1.3854
5114.00,1.3923
5113.00,1.3986
5112.00,1.4043
5111.00,1.4092
5110.00,1.4136
5109.00,1.4175
5108.00,1.4210
5107.00,1.4241
5106.00,1.4267
5105.00,1.4288
5104.00,1.4304
5103.00,1.4317
5102.00,1.4326
5101.00,1.4331
5100.00,1.4333
5099.00,1.4329
5098.00,1.4318
5097.00,1.4301
5096.00,1.4280
5095.00,1.4256
5094.00,1.4229
5093.00,1.4198
5092.00,1.4162
5091.00,1.4119
5090.00,1.4070
5089.00,1.4014
5088.00,1.3955
5087.00,1.3892
5086.00,1.3824
5085.00,1.3749
5084.00,1.3667
5083.00,1.3579
5082.00,1.3488
5081.00,1.3393
5080.00,1.3295
5079.00,1.3191
5078.00,1.3083
5077.00,1.2969
5076.00,1.2849
5075.00,1.2723
5074.00,1.2590
5073.00,1.2450
5072.00,1.2304
5071.00,1.2152
5070.00,1.1997
5069.00,1.1839
5068.00,1.1678
5067.00,1.1514
5066.00,1.1345
5065.00,1.1171
5064.00,1.0993
5063.00,1.0811
5062.00,1.0627
5061.00,1.0442
5060.00,1.0256
5059.00,1.0068
5058.00,0.9881
5057.00,0.9694
5056.00,0.9509
5055.00,0.9328
5054.00,0.9150
5053.00,0.8978
5052.00,0.8810
5051.00,0.8647
5050.00,0.8490
5049.00,0.8341
5048.00,0.8200
5047.00,0.8069
5046.00,0.7948
5045.00,0.7839
5044.00,0.7741
5043.00,0.7656
5042.00,0.7583
5041.00,0.7525
5040.00,0.7482
5039.00,0.7453
5038.00,0.7439
5037.00,0.7440
5036.00,0.7455
5035.00,0.7485
5034.00,0.7529
5033.00,0.7587
5032.00,0.7659
5031.00,0.7744
5030.00,0.7842
5029.00,0.7952
5028.00,0.8072
5027.00,0.8202
5026.00,0.8340
5025.00,0.8487
5024.00,0.8641
5023.00,0.8802
5022.00,0.8971
5021.00,0.9144
5020.00,0.9323
5019.00,0.9504
5018.00,0.9687
5017.00,0.9873
5016.00,1.0059
5015.00,1.0245
5014.00,1.0430
5013.00,1.0615
5012.00,1.0798
5011.00,1.0979
5010.00,1.1158
5009.00,1.1336
5008.00,1.1512
5007.00,1.1684
5006.00,1.1853
5005.00,1.2018
5004.00,1.2178
5003.00,1.2334
5002.00,1.2483
5001.00,1.2628
5000.00,1.2767
4999.00,1.2901
4998.00,1.3030
4997.00,1.3155
4996.00,1.3274
4995.00,1.3389
4994.00,1.3499
4993.00,1.3606
4992.00,1.3711
4991.00,1.3811
4990.00,1.3905
4989.00,1.3990
4988.00,1.4065
4987.00,1.4131
4986.00,1.4191
4985.00,1.4247
4984.00,1.4302
4983.00,1.4354
4982.00,1.4404
4981.00,1.4448
4980.00,1.4486
4979.00,1.4517
4978.00,1.4542
4977.00,1.4562
4976.00,1.4578
4975.00,1.4591
4974.00,1.4602
4973.00,1.4609
4972.00,1.4611
4971.00,1.4608
4970.00,1.4597
4969.00,1.4582
4968.00,1.4561
4967.00,1.4536
4966.00,1.4506
4965.00,1.4471
4964.00,1.4432
4963.00,1.4387
4962.00,1.4337
4961.00,1.4282
4960.00,1.4223
4959.00,1.4161
4958.00,1.4096
4957.00,1.4028
4956.00,1.3954
4955.00,1.3872
4954.00,1.3783
4953.00,1.3686
4952.00,1.3584
4951.00,1.3478
4950.00,1.3368
4949.00,1.3253
4948.00,1.3131
4947.00,1.3004
4946.00,1.2870
4945.00,1.2731
4944.00,1.2585
4943.00,1.2432
4942.00,1.2273
4941.00,1.2109
4940.00,1.1942
4939.00,1.1771
4938.00,1.1596
4937.00,1.1417
4936.00,1.1233
4935.00,1.1044
4934.00,1.0853
4933.00,1.0661
4932.00,1.0468
4931.00,1.0272
4930.00,1.0076
4929.00,0.9879
4928.00,0.9683
4927.00,0.9489
4926.00,0.9297
4925.00,0.9110
4924.00,0.8927
4923.00,0.8750
4922.00,0.8580
4921.00,0.8417
4920.00,0.8262
4919.00,0.8115
4918.00,0.7979
4917.00,0.7853
4916.00,0.7740
4915.00,0.7640
4914.00,0.7555
4913.00,0.7484
4912.00,0.7428
4911.00,0.7387
4910.00,0.7362
4909.00,0.7353
4908.00,0.7359
4907.00,0.7382
4906.00,0.7420
4905.00,0.7475
4904.00,0.7544
4903.00,0.7627
4902.00,0.7724
4901.00,0.7833
4900.00,0.7956
4899.00,0.8090
4898.00,0.8234
4897.00,0.8387
4896.00,0.8547
4895.00,0.8715
4894.00,0.8888
4893.00,0.9067
4892.00,0.9252
4891.00,0.9441
4890.00,0.9633
4889.00,0.9827
4888.00,1.0022
4887.00,1.0217
4886.00,1.0413
4885.00,1.0609
4884.00,1.0804
4883.00,1.0996
4882.00,1.1186
4881.00,1.1373
4880.00,1.1559
4879.00,1.1741
4878.00,1.1921
4877.00,1.2095
4876.00,1.2264
4875.00,1.2427
4874.00,1.2584
4873.00,1.2736
4872.00,1.2885
4871.00,1.3030
4870.00,1.3171
4869.00,1.3307
4868.00,1.3438
4867.00,1.3563
4866.00,1.3679
4865.00,1.3787
4864.00,1.3889
4863.00,1.3987
4862.00,1.4082
4861.00,1.4172
4860.00,1.4257
4859.00,1.4335
4858.00,1.4406
4857.00,1.4470
4856.00,1.4531
4855.00,1.4590
4854.00,1.4647
4853.00,1.4700
4852.00,1.4746
4851.00,1.4783
4850.00,1.4812
4849.00,1.4835
4848.00,1.4854
4847.00,1.4871
4846.00,1.4886
4845.00,1.4897
4844.00,1.4904
4843.00,1.4904
4842.00,1.4896
4841.00,1.4882
4840.00,1.4864
4839.00,1.4843
4838.00,1.4818
4837.00,1.4789
4836.00,1.4755
4835.00,1.4716
4834.00,1.4673
4833.00,1.4626
4832.00,1.4575
4831.00,1.4516
4830.00,1.4449
4829.00,1.4377
4828.00,1.4300
4827.00,1.4219
4826.00,1.4134
4825.00,1.4043
4824.00,1.3946
4823.00,1.3843
4822.00,1.3735
4821.00,1.3621
4820.00,1.3501
4819.00,1.3374
4818.00,1.3240
4817.00,1.3101
4816.00,1.2957
4815.00,1.2807
4814.00,1.2650
4813.00,1.2488
4812.00,1.2320
4811.00,1.2147
4810.00,1.1970
4809.00,1.1788
4808.00,1.1601
4807.00,1.1411
4806.00,1.1217
4805.00,1.1019
4804.00,1.0817
4803.00,1.0612
4802.00,1.0406
4801.00,1.0199
4800.00,0.9992
4799.00,0.9787
4798.00,0.9584
4797.00,0.9384
4796.00,0.9189
4795.00,0.8998
4794.00,0.8814
4793.00,0.8636
4792.00,0.8467
4791.00,0.8307
4790.00,0.8158
4789.00,0.8020
4788.00,0.7895
4787.00,0.7783
4786.00,0.7685
4785.00,0.7602
4784.00,0.7535
4783.00,0.7485
4782.00,0.7452
4781.00,0.7435
4780.00,0.7435
4779.00,0.7452
4778.00,0.7486
4777.00,0.7538
4776.00,0.7606
4775.00,0.7689
4774.00,0.7787
4773.00,0.7900
4772.00,0.8026
4771.00,0.8164
4770.00,0.8313
4769.00,0.8472
4768.00,0.8639
4767.00,0.8814
4766.00,0.8997
4765.00,0.9186
4764.00,0.9380
4763.00,0.9579
4762.00,0.9780
4761.00,0.9984
4760.00,1.0189
4759.00,1.0395
4758.00,1.0601
4757.00,1.0807
4756.00,1.1011
4755.00,1.1213
4754.00,1.1414
4753.00,1.1611
4752.00,1.1804
4751.00,1.1994
4750.00,1.2180
4749.00,1.2361
4748.00,1.2538
4747.00,1.2710
4746.00,1.2875
4745.00,1.3034
4744.00,1.3185
4743.00,1.3330
4742.00,1.3468
4741.00,1.3601
4740.00,1.3731
4739.00,1.3857
4738.00,1.3978
4737.00,1.4094
4736.00,1.4202
4735.00,1.4305
4734.00,1.4402
4733.00,1.4494
4732.00,1.4581
4731.00,1.4663
4730.00,1.4739
4729.00,1.4809
4728.00,1.4872
4727.00,1.4929
4726.00,1.4979
4725.00,1.5024
4724.00,1.5064
4723.00,1.5099
4722.00,1.5131
4721.00,1.5159
4720.00,1.5183
4719.00,1.5202
4718.00,1.5216
4717.00,1.5225
4716.00,1.5229
4715.00,1.5229
4714.00,1.5224
4713.00,1.5216
4712.00,1.5204
4711.00,1.5188
4710.00,1.5167
4709.00,1.5139
4708.00,1.5105
4707.00,1.5062
4706.00,1.5011
4705.00,1.4954
4704.00,1.4893
4703.00,1.4830
4702.00,1.4764
4701.00,1.4696
4700.00,1.4624
4699.00,1.4547
4698.00,1.4464
4697.00,1.4376
4696.00,1.4280
4695.00,1.4178
4694.00,1.4070
4693.00,1.3955
4692.00,1.3835
4691.00,1.3710
4690.00,1.3580
4689.00,1.3445
4688.00,1.3304
4687.00,1.3157
4686.00,1.3003
4685.00,1.2843
4684.00,1.2676
4683.00,1.2504
4682.00,1.2329
4681.00,1.2150
4680.00,1.1968
4679.00,1.1781
4678.00,1.1591
4677.00,1.1396
4676.00,1.1199
4675.00,1.0998
4674.00,1.0796
4673.00,1.0594
4672.00,1.0390
4671.00,1.0185
4670.00,0.9980
4669.00,0.9775
4668.00,0.9573
4667.00,0.9374
4666.00,0.9181
4665.00,0.8995
4664.00,0.8815
4663.00,0.8642
4662.00,0.8478
4661.00,0.8324
4660.00,0.8181
4659.00,0.8050
4658.00,0.7933
4657.00,0.7831
4656.00,0.7744
4655.00,0.7673
4654.00,0.7620
4653.00,0.7585
4652.00,0.7568
4651.00,0.7568
4650.00,0.7587
4649.00,0.7625
4648.00,0.7680
4647.00,0.7752
4646.00,0.7841
4645.00,0.7947
4644.00,0.8067
4643.00,0.8200
4642.00,0.8346
4641.00,0.8503
4640.00,0.8670
4639.00,0.8847
4638.00,0.9032
4637.00,0.9224
4636.00,0.9422
4635.00,0.9626
4634.00,0.9834
4633.00,1.0045
4632.00,1.0258
4631.00,1.0473
4630.00,1.0689
4629.00,1.0905
4628.00,1.1120
4627.00,1.1334
4626.00,1.1545
4625.00,1.1751
4624.00,1.1953
4623.00,1.2150
4622.00,1.2343
4621.00,1.2532
4620.00,1.2716
4619.00,1.2894
4618.00,1.3067
4617.00,1.3234
4616.00,1.3394
4615.00,1.3546
4614.00,1.3691
4613.00,1.3829
4612.00,1.3963
4611.00,1.4094
4610.00,1.4222
4609.00,1.4345
4608.00,1.4460
4607.00,1.4567
4606.00,1.4667
4605.00,1.4760
4604.00,1.4847
4603.00,1.4930
4602.00,1.5006
4601.00,1.5076
4600.00,1.5142
4599.00,1.5204
4598.00,1.5264
4597.00,1.5320
4596.00,1.5372
4595.00,1.5416
4594.00,1.5455
4593.00,1.5489
4592.00,1.5518
4591.00,1.5543
4590.00,1.5563
4589.00,1.5577
4588.00,1.5584
4587.00,1.5588
4586.00,1.5588
4585.00,1.5585
4584.00,1.5576
4583.00,1.5559
4582.00,1.5534
4581.00,1.5504
4580.00,1.5469
4579.00,1.5431
4578.00,1.5390
4577.00,1.5344
4576.00,1.5294
4575.00,1.5237
4574.00,1.5176
4573.00,1.5111
4572.00,1.5040
4571.00,1.4964
4570.00,1.4882
4569.00,1.4793
4568.00,1.4697
4567.00,1.4596
4566.00,1.4489
4565.00,1.4376
4564.00,1.4256
4563.00,1.4131
4562.00,1.3999
4561.00,1.3862
4560.00,1.3719
4559.00,1.3569
4558.00,1.3413
4557.00,1.3250
4556.00,1.3080
4555.00,1.2904
4554.00,1.2721
4553.00,1.2531
4552.00,1.2336
4551.00,1.2135
4550.00,1.1929
4549.00,1.1719
4548.00,1.1504
4547.00,1.1285
4546.00,1.1062
4545.00,1.0837
4544.00,1.0611
4543.00,1.0384
4542.00,1.0159
4541.00,0.9936
4540.00,0.9716
4539.00,0.9500
4538.00,0.9289
4537.00,0.9084
4536.00,0.8886
4535.00,0.8696
4534.00,0.8516
4533.00,0.8348
4532.00,0.8193
4531.00,0.8051
4530.00,0.7925
4529.00,0.7814
4528.00,0.7721
4527.00,0.7646
4526.00,0.7589
4525.00,0.7553
4524.00,0.7536
4523.00,0.7540
4522.00,0.7563
4521.00,0.7607
4520.00,0.7669
4519.00,0.7750
4518.00,0.7849
4517.00,0.7964
4516.00,0.8096
4515.00,0.8242
4514.00,0.8401
4513.00,0.8572
4512.00,0.8755
4511.00,0.8946
4510.00,0.9147
4509.00,0.9355
4508.00,0.9569
4507.00,0.9788
4506.00,1.0011
4505.00,1.0236
4504.00,1.0463
4503.00,1.0691
4502.00,1.0918
4501.00,1.1145
4500.00,1.1369
4499.00,1.1591
4498.00,1.1810
4497.00,1.2026
4496.00,1.2239
4495.00,1.2448
4494.00,1.2652
4493.00,1.2849
4492.00,1.3040
4491.00,1.3222
4490.00,1.3398
4489.00,1.3569
4488.00,1.3735
4487.00,1.3895
4486.00,1.4049
4485.00,1.4195
4484.00,1.4333
4483.00,1.4463
4482.00,1.4586
4481.00,1.4701
4480.00,1.4811
4479.00,1.4917
4478.00,1.5021
4477.00,1.5122
4476.00,1.5215
4475.00,1.5300
4474.00,1.5376
4473.00,1.5446
4472.00,1.5512
4471.00,1.5574
4470.00,1.5631
4469.00,1.5683
4468.00,1.5731
4467.00,1.5774
4466.00,1.5813
4465.00,1.5847
4464.00,1.5877
4463.00,1.5901
4462.00,1.5920
4461.00,1.5932
4460.00,1.5937
4459.00,1.5936
4458.00,1.5930
4457.00,1.5922
4456.00,1.5910
4455.00,1.5893
4454.00,1.5869
4453.00,1.5839
4452.00,1.5806
4451.00,1.5771
4450.00,1.5733
4449.00,1.5690
4448.00,1.5638
4447.00,1.5577
4446.00,1.5507
4445.00,1.5433
4444.00,1.5354
4443.00,1.5271
4442.00,1.5184
4441.00,1.5091
4440.00,1.4992
4439.00,1.4888
4438.00,1.4778
4437.00,1.4663
4436.00,1.4541
4435.00,1.4410
4434.00,1.4271
4433.00,1.4127
4432.00,1.3978
4431.00,1.3824
4430.00,1.3666
4429.00,1.3500
4428.00,1.3326
4427.00,1.3144
4426.00,1.2954
4425.00,1.2757
4424.00,1.2555
4423.00,1.2348
4422.00,1.2136
4421.00,1.1921
4420.00,1.1702
4419.00,1.1480
4418.00,1.1257
4417.00,1.1032
4416.00,1.0805
4415.00,1.0580
4414.00,1.0356
4413.00,1.0137
4412.00,0.9921
4411.00,0.9712
4410.00,0.9509
4409.00,0.9315
4408.00,0.9129
4407.00,0.8955
4406.00,0.8793
4405.00,0.8644
4404.00,0.8509
4403.00,0.8390
4402.00,0.8289
4401.00,0.8205
4400.00,0.8140
4399.00,0.8095
4398.00,0.8070
4397.00,0.8064
4396.00,0.8079
4395.00,0.8112
4394.00,0.8165
4393.00,0.8236
4392.00,0.8325
4391.00,0.8430
4390.00,0.8552
4389.00,0.8688
4388.00,0.8838
4387.00,0.9000
4386.00,0.9173
4385.00,0.9356
4384.00,0.9547
4383.00,0.9744
4382.00,0.9947
4381.00,1.0154
4380.00,1.0365
4379.00,1.0579
4378.00,1.0796
4377.00,1.1014
4376.00,1.1233
4375.00,1.1451
4374.00,1.1666
4373.00,1.1878
4372.00,1.2087
4371.00,1.2292
4370.00,1.2493
4369.00,1.2691
4368.00,1.2885
4367.00,1.3075
4366.00,1.3259
4365.00,1.3437
4364.00,1.3608
4363.00,1.3774
4362.00,1.3934
4361.00,1.4091
4360.00,1.4244
4359.00,1.4391
4358.00,1.4533
4357.00,1.4670
4356.00,1.4802
4355.00,1.4929
4354.00,1.5050
4353.00,1.5165
4352.00,1.5274
4351.00,1.5376
4350.00,1.5474
4349.00,1.5568
4348.00,1.5657
4347.00,1.5742
4346.00,1.5823
4345.00,1.5899
4344.00,1.5971
4343.00,1.6038
4342.00,1.6098
4341.00,1.6152
4340.00,1.6201
4339.00,1.6246
4338.00,1.6288
4337.00,1.6326
4336.00,1.6361
4335.00,1.6389
4334.00,1.6409
4333.00,1.6421
4332.00,1.6425
4331.00,1.6424
4330.00,1.6422
4329.00,1.6418
4328.00,1.6413
4327.00,1.6403
4326.00,1.6388
4325.00,1.6369
4324.00,1.6345
4323.00,1.6316
4322.00,1.6282
4321.00,1.6241
4320.00,1.6195
4319.00,1.6144
4318.00,1.6086
4317.00,1.6023
4316.00,1.5955
4315.00,1.5880
4314.00,1.5801
4313.00,1.5718
4312.00,1.5630
4311.00,1.5538
4310.00,1.5440
4309.00,1.5336
4308.00,1.5225
4307.00,1.5106
4306.00,1.4980
4305.00,1.4847
4304.00,1.4709
4303.00,1.4563
4302.00,1.4410
4301.00,1.4250
4300.00,1.4085
4299.00,1.3914
4298.00,1.3739
4297.00,1.3559
4296.00,1.3372
4295.00,1.3179
4294.00,1.2980
4293.00,1.2775
4292.00,1.2566
4291.00,1.2354
4290.00,1.2142
4289.00,1.1929
4288.00,1.1714
4287.00,1.1499
4286.00,1.1283
4285.00,1.1067
4284.00,1.0854
4283.00,1.0643
4282.00,1.0435
4281.00,1.0231
4280.00,1.0032
4279.00,0.9838
4278.00,0.9652
4277.00,0.9473
4276.00,0.9305
4275.00,0.9147
4274.00,0.9002
4273.00,0.8871
4272.00,0.8755
4271.00,0.8656
4270.00,0.8573
4269.00,0.8508
4268.00,0.8461
4267.00,0.8433
4266.00,0.8425
4265.00,0.8436
4264.00,0.8467
4263.00,0.8517
4262.00,0.8584
4261.00,0.8670
4260.00,0.8773
4259.00,0.8894
4258.00,0.9030
4257.00,0.9181
4256.00,0.9346
4255.00,0.9523
4254.00,0.9711
4253.00,0.9909
4252.00,1.0115
4251.00,1.0328
4250.00,1.0548
4249.00,1.0773
4248.00,1.1003
4247.00,1.1235
4246.00,1.1469
4245.00,1.1702
4244.00,1.1935
4243.00,1.2167
4242.00,1.2397
4241.00,1.2624
4240.00,1.2848
4239.00,1.3067
4238.00,1.3281
4237.00,1.3489
4236.00,1.3691
4235.00,1.3886
4234.00,1.4075
4233.00,1.4257
4232.00,1.4432
4231.00,1.4601
4230.00,1.4763
4229.00,1.4918
4228.00,1.5066
4227.00,1.5208
4226.00,1.5343
4225.00,1.5471
4224.00,1.5592
4223.00,1.5708
4222.00,1.5819
4221.00,1.5925
4220.00,1.6022
4219.00,1.6111
4218.00,1.6192
4217.00,1.6269
4216.00,1.6341
4215.00,1.6409
4214.00,1.6473
4213.00,1.6533
4212.00,1.6591
4211.00,1.6644
4210.00,1.6689
4209.00,1.6726
4208.00,1.6758
4207.00,1.6785
4206.00,1.6809
4205.00,1.6828
4204.00,1.6842
4203.00,1.6849
4202.00,1.6853
4201.00,1.6853
4200.00,1.6848
4199.00,1.6836
4198.00,1.6816
4197.00,1.6788
4196.00,1.6755
4195.00,1.6719
4194.00,1.6682
4193.00,1.6643
4192.00,1.6600
4191.00,1.6553
4190.00,1.6498
4189.00,1.6437
4188.00,1.6370
4187.00,1.6297
4186.00,1.6217
4185.00,1.6132
4184.00,1.6043
4183.00,1.5950
4182.00,1.5852
4181.00,1.5746
4180.00,1.5632
4179.00,1.5510
4178.00,1.5382
4177.00,1.5249
4176.00,1.5111
4175.00,1.4964
4174.00,1.4808
4173.00,1.4646
4172.00,1.4478
4171.00,1.4306
4170.00,1.4130
4169.00,1.3947
4168.00,1.3757
4167.00,1.3558
4166.00,1.3351
4165.00,1.3139
4164.00,1.2922
4163.00,1.2701
4162.00,1.2475
4161.00,1.2245
4160.00,1.2012
4159.00,1.1777
4158.00,1.1541
4157.00,1.1305
4156.00,1.1068
4155.00,1.0831
4154.00,1.0598
4153.00,1.0369
4152.00,1.0146
4151.00,0.9929
4150.00,0.9720
4149.00,0.9520
4148.00,0.9330
4147.00,0.9154
4146.00,0.8991
4145.00,0.8844
4144.00,0.8713
4143.00,0.8601
4142.00,0.8508
4141.00,0.8436
4140.00,0.8386
4139.00,0.8358
4138.00,0.8352
4137.00,0.8369
4136.00,0.8409
4135.00,0.8472
4134.00,0.8557
4133.00,0.8663
4132.00,0.8789
4131.00,0.8932
4130.00,0.9091
4129.00,0.9265
4128.00,0.9452
4127.00,0.9651
4126.00,0.9861
4125.00,1.0081
4124.00,1.0307
4123.00,1.0540
4122.00,1.0778
4121.00,1.1020
4120.00,1.1264
4119.00,1.1510
4118.00,1.1757
4117.00,1.2003
4116.00,1.2248
4115.00,1.2491
4114.00,1.2729
4113.00,1.2963
4112.00,1.3193
4111.00,1.3419
4110.00,1.3639
4109.00,1.3853
4108.00,1.4061
4107.00,1.4261
4106.00,1.4455
4105.00,1.4642
4104.00,1.4822
4103.00,1.4993
4102.00,1.5156
4101.00,1.5311
4100.00,1.5460
4099.00,1.5602
4098.00,1.5738
4097.00,1.5871
4096.00,1.5998
4095.00,1.6120
4094.00,1.6234
4093.00,1.6342
4092.00,1.6442
4091.00,1.6535
4090.00,1.6623
4089.00,1.6706
4088.00,1.6784
4087.00,1.6857
4086.00,1.6924
4085.00,1.6985
4084.00,1.7038
4083.00,1.7085
4082.00,1.7129
4081.00,1.7169
4080.00,1.7207
4079.00,1.7242
4078.00,1.7272
4077.00,1.7294
4076.00,1.7310
4075.00,1.7319
4074.00,1.7325
4073.00,1.7327
4072.00,1.7326
4071.00,1.7319
4070.00,1.7305
4069.00,1.7283
4068.00,1.7257
4067.00,1.7228
4066.00,1.7195
4065.00,1.7156
4064.00,1.7112
4063.00,1.7063
4062.00,1.7009
4061.00,1.6950
4060.00,1.6885
4059.00,1.6813
4058.00,1.6737
4057.00,1.6654
4056.00,1.6566
4055.00,1.6472
4054.00,1.6371
4053.00,1.6264
4052.00,1.6150
4051.00,1.6030
4050.00,1.5903
4049.00,1.5771
4048.00,1.5633
4047.00,1.5487
4046.00,1.5335
4045.00,1.5175
4044.00,1.5009
4043.00,1.4836
4042.00,1.4655
4041.00,1.4466
4040.00,1.4268
4039.00,1.4061
4038.00,1.3847
4037.00,1.3626
4036.00,1.3397
4035.00,1.3160
4034.00,1.2915
4033.00,1.2664
4032.00,1.2408
4031.00,1.2149
4030.00,1.1887
4029.00,1.1624
4028.00,1.1360
4027.00,1.1098
4026.00,1.0838
4025.00,1.0583
4024.00,1.0336
4023.00,1.0097
4022.00,0.9868
4021.00,0.9649
4020.00,0.9443
4019.00,0.9252
4018.00,0.9076
4017.00,0.8918
4016.00,0.8780
4015.00,0.8662
4014.00,0.8565
4013.00,0.8490
4012.00,0.8440
4011.00,0.8413
4010.00,0.8411
4009.00,0.8434
4008.00,0.8480
4007.00,0.8550
4006.00,0.8644
4005.00,0.8760
4004.00,0.8898
4003.00,0.9056
4002.00,0.9231
4001.00,0.9422
4000.00,0.9627
3999.00,0.9845
3998.00,1.0075
3997.00,1.0315
3996.00,1.0563
3995.00,1.0818
3994.00,1.1079
3993.00,1.1344
3992.00,1.1611
3991.00,1.1879
3990.00,1.2147
3989.00,1.2414
3988.00,1.2677
3987.00,1.2936
3986.00,1.3191
3985.00,1.3441
3984.00,1.3684
3983.00,1.3920
3982.00,1.4149
3981.00,1.4370
3980.00,1.4585
3979.00,1.4791
3978.00,1.4989
3977.00,1.5177
3976.00,1.5357
3975.00,1.5531
3974.00,1.5698
3973.00,1.5857
3972.00,1.6010
3971.00,1.6155
3970.00,1.6293
3969.00,1.6424
3968.00,1.6548
3967.00,1.6664
3966.00,1.6772
3965.00,1.6875
3964.00,1.6974
3963.00,1.7069
3962.00,1.7159
3961.00,1.7242
3960.00,1.7317
3959.00,1.7388
3958.00,1.7454
3957.00,1.7515
3956.00,1.7570
3955.00,1.7618
3954.00,1.7660
3953.00,1.7697
3952.00,1.7727
3951.00,1.7749
3950.00,1.7764
3949.00,1.7773
3948.00,1.7780
3947.00,1.7789
3946.00,1.7797
3945.00,1.7800
3944.00,1.7794
3943.00,1.7782
3942.00,1.7765
3941.00,1.7742
3940.00,1.7714
3939.00,1.7679
3938.00,1.7639
3937.00,1.7595
3936.00,1.7545
3935.00,1.7490
3934.00,1.7428
3933.00,1.7359
3932.00,1.7284
3931.00,1.7203
3930.00,1.7117
3929.00,1.7026
3928.00,1.6930
3927.00,1.6829
3926.00,1.6721
3925.00,1.6605
3924.00,1.6482
3923.00,1.6351
3922.00,1.6215
3921.00,1.6077
3920.00,1.5934
3919.00,1.5784
3918.00,1.5624
3917.00,1.5453
3916.00,1.5274
3915.00,1.5089
3914.00,1.4901
3913.00,1.4705
3912.00,1.4498
3911.00,1.4279
3910.00,1.4050
3909.00,1.3814
3908.00,1.3574
3907.00,1.3327
3906.00,1.3070
3905.00,1.2802
3904.00,1.2521
3903.00,1.2232
3902.00,1.1938
3901.00,1.1639
3900.00,1.1338
3899.00,1.1037
3898.00,1.0742
3897.00,1.0461
3896.00,1.0197
3895.00,0.9949
3894.00,0.9711
3893.00,0.9477
3892.00,0.9247
3891.00,0.9028
3890.00,0.8830
3889.00,0.8658
3888.00,0.8512
3887.00,0.8392
3886.00,0.8299
3885.00,0.8236
3884.00,0.8202
3883.00,0.8195
3882.00,0.8217
3881.00,0.8270
3880.00,0.8357
3879.00,0.8471
3878.00,0.8604
3877.00,0.8751
3876.00,0.8919
3875.00,0.9116
3874.00,0.9340
3873.00,0.9576
3872.00,0.9813
3871.00,1.0061
3870.00,1.0334
3869.00,1.0628
3868.00,1.0927
3867.00,1.1218
3866.00,1.1505
3865.00,1.1798
3864.00,1.2096
3863.00,1.2392
3862.00,1.2680
3861.00,1.2959
3860.00,1.3230
3859.00,1.3495
3858.00,1.3753
3857.00,1.3997
3856.00,1.4225
3855.00,1.4446
3854.00,1.4677
3853.00,1.4925
3852.00,1.5175
3851.00,1.5406
3850.00,1.5612
3849.00,1.5799
3848.00,1.5973
3847.00,1.6137
3846.00,1.6292
3845.00,1.6439
3844.00,1.6581
3843.00,1.6721
3842.00,1.6857
3841.00,1.6989
3840.00,1.7114
3839.00,1.7234
3838.00,1.7348
3837.00,1.7456
3836.00,1.7555
3835.00,1.7643
3834.00,1.7724
3833.00,1.7801
3832.00,1.7874
3831.00,1.7943
3830.00,1.8006
3829.00,1.8059
3828.00,1.8105
3827.00,1.8148
3826.00,1.8193
3825.00,1.8232
3824.00,1.8258
3823.00,1.8271
3822.00,1.8281
3821.00,1.8296
3820.00,1.8313
3819.00,1.8324
3818.00,1.8322
3817.00,1.8312
3816.00,1.8297
3815.00,1.8277
3814.00,1.8252
3813.00,1.8222
3812.00,1.8192
3811.00,1.8162
3810.00,1.8127
3809.00,1.8077
3808.00,1.8011
3807.00,1.7936
3806.00,1.7862
3805.00,1.7788
3804.00,1.7707
3803.00,1.7615
3802.00,1.7512
3801.00,1.7402
3800.00,1.7290
3799.00,1.7181
3798.00,1.7072
3797.00,1.6957
3796.00,1.6832
3795.00,1.6696
3794.00,1.6552
3793.00,1.6399
3792.00,1.6239
3791.00,1.6070
3790.00,1.5894
3789.00,1.5708
3788.00,1.5510
3787.00,1.5300
3786.00,1.5078
3785.00,1.4846
3784.00,1.4607
3783.00,1.4361
3782.00,1.4110
3781.00,1.3847
3780.00,1.3570
3779.00,1.3279
3778.00,1.2979
3777.00,1.2674
3776.00,1.2368
3775.00,1.2067
3774.00,1.1770
3773.00,1.1476
3772.00,1.1183
3771.00,1.0887
3770.00,1.0592
3769.00,1.0304
3768.00,1.0027
3767.00,0.9766
3766.00,0.9522
3765.00,0.9299
3764.00,0.9101
3763.00,0.8930
3762.00,0.8789
3761.00,0.8675
3760.00,0.8588
3759.00,0.8525
3758.00,0.8492
3757.00,0.8490
3756.00,0.8521
3755.00,0.8584
3754.00,0.8678
3753.00,0.8801
3752.00,0.8945
3751.00,0.9109
3750.00,0.9297
3749.00,0.9509
3748.00,0.9726
3747.00,0.9930
3746.00,1.0125
3745.00,1.0344
3744.00,1.0604
3743.00,1.0883
3742.00,1.1147
3741.00,1.1388
3740.00,1.1617
3739.00,1.1849
3738.00,1.2091
3737.00,1.2355
3736.00,1.2646
3735.00,1.2954
3734.00,1.3265
3733.00,1.3575
3732.00,1.3893
3731.00,1.4218
3730.00,1.4544
3729.00,1.4864
3728.00,1.5182
3727.00,1.5502
3726.00,1.5817
3725.00,1.6113
3724.00,1.6366
3723.00,1.6561
3722.00,1.6698
3721.00,1.6795
3720.00,1.6874
3719.00,1.6948
3718.00,1.7022
3717.00,1.7098
3716.00,1.7180
3715.00,1.7267
3714.00,1.7359
3713.00,1.7459
3712.00,1.7565
3711.00,1.7675
3710.00,1.7784
3709.00,1.7893
3708.00,1.8001
3707.00,1.8106
3706.00,1.8204
3705.00,1.8297
3704.00,1.8381
3703.00,1.8453
3702.00,1.8516
3701.00,1.8573
3700.00,1.8623
3699.00,1.8662
3698.00,1.8691
3697.00,1.8711
3696.00,1.8725
3695.00,1.8730
3694.00,1.8729
3693.00,1.8729
3692.00,1.8733
3691.00,1.8735
3690.00,1.8730
3689.00,1.8718
3688.00,1.8696
3687.00,1.8662
3686.00,1.8619
3685.00,1.8576
3684.00,1.8533
3683.00,1.8484
3682.00,1.8425
3681.00,1.8358
3680.00,1.8289
3679.00,1.8218
3678.00,1.8137
3677.00,1.8038
3676.00,1.7922
3675.00,1.7795
3674.00,1.7667
3673.00,1.7546
3672.00,1.7425
3671.00,1.7295
3670.00,1.7149
3669.00,1.6991
3668.00,1.6828
3667.00,1.6666
3666.00,1.6503
3665.00,1.6337
3664.00,1.6165
3663.00,1.5982
3662.00,1.5792
3661.00,1.5600
3660.00,1.5408
3659.00,1.5214
3658.00,1.5010
3657.00,1.4793
3656.00,1.4569
3655.00,1.4347
3654.00,1.4138
3653.00,1.3947
3652.00,1.3769
3651.00,1.3597
3650.00,1.3420
3649.00,1.3237
3648.00,1.3053
3647.00,1.2879
3646.00,1.2722
3645.00,1.2586
3644.00,1.2470
3643.00,1.2369
3642.00,1.2280
3641.00,1.2202
3640.00,1.2136
3639.00,1.2085
3638.00,1.2052
3637.00,1.2035
3636.00,1.2036
3635.00,1.2060
3634.00,1.2113
3633.00,1.2195
3632.00,1.2303
3631.00,1.2432
3630.00,1.2586
3629.00,1.2770
3628.00,1.2977
3627.00,1.3195
3626.00,1.3417
3625.00,1.3648
3624.00,1.3889
3623.00,1.4132
3622.00,1.4361
3621.00,1.4560
3620.00,1.4728
3619.00,1.4876
3618.00,1.5018
3617.00,1.5162
3616.00,1.5309
3615.00,1.5460
3614.00,1.5618
3613.00,1.5786
3612.00,1.5961
3611.00,1.6139
3610.00,1.6319
3609.00,1.6502
3608.00,1.6690
3607.00,1.6876
3606.00,1.7059
3605.00,1.7239
3604.00,1.7416
3603.00,1.7591
3602.00,1.7764
3601.00,1.7933
3600.00,1.8096
3599.00,1.8251
3598.00,1.8401
3597.00,1.8547
3596.00,1.8688
3595.00,1.8821
3594.00,1.8948
3593.00,1.9072
3592.00,1.9194
3591.00,1.9311
3590.00,1.9422
3589.00,1.9528
3588.00,1.9628
3587.00,1.9720
3586.00,1.9804
3585.00,1.9886
3584.00,1.9966
3583.00,2.0043
3582.00,2.0116
3581.00,2.0187
3580.00,2.0256
3579.00,2.0321
3578.00,2.0378
3577.00,2.0423
3576.00,2.0455
3575.00,2.0477
3574.00,2.0492
3573.00,2.0508
3572.00,2.0526
3571.00,2.0544
3570.00,2.0560
3569.00,2.0573
3568.00,2.0583
3567.00,2.0591
3566.00,2.0596
3565.00,2.0599
3564.00,2.0599
3563.00,2.0596
3562.00,2.0591
3561.00,2.0581
3560.00,2.0564
3559.00,2.0539
3558.00,2.0510
3557.00,2.0484
3556.00,2.0459
3555.00,2.0428
3554.00,2.0390
3553.00,2.0344
3552.00,2.0291
3551.00,2.0231
3550.00,2.0165
3549.00,2.0097
3548.00,2.0031
3547.00,1.9967
3546.00,1.9901
3545.00,1.9831
3544.00,1.9761
3543.00,1.9691
3542.00,1.9624
3541.00,1.9557
3540.00,1.9488
3539.00,1.9411
3538.00,1.9326
3537.00,1.9235
3536.00,1.9141
3535.00,1.9044
3534.00,1.8944
3533.00,1.8840
3532.00,1.8733
3531.00,1.8626
3530.00,1.8521
3529.00,1.8419
3528.00,1.8317
3527.00,1.8212
3526.00,1.8105
3525.00,1.8000
3524.00,1.7898
3523.00,1.7796
3522.00,1.7694
3521.00,1.7592
3520.00,1.7491
3519.00,1.7392
3518.00,1.7293
3517.00,1.7196
3516.00,1.7100
3515.00,1.7005
3514.00,1.6911
3513.00,1.6820
3512.00,1.6733
3511.00,1.6650
3510.00,1.6569
3509.00,1.6491
3508.00,1.6419
3507.00,1.6353
3506.00,1.6294
3505.00,1.6242
3504.00,1.6196
3503.00,1.6156
3502.00,1.6123
3501.00,1.6097
3500.00,1.6081
3499.00,1.6074
3498.00,1.6075
3497.00,1.6085
3496.00,1.6104
3495.00,1.6131
3494.00,1.6166
3493.00,1.6209
3492.00,1.6260
3491.00,1.6319
3490.00,1.6387
3489.00,1.6463
3488.00,1.6546
3487.00,1.6633
3486.00,1.6724
3485.00,1.6821
3484.00,1.6924
3483.00,1.7034
3482.00,1.7151
3481.00,1.7274
3480.00,1.7400
3479.00,1.7527
3478.00,1.7653
3477.00,1.7779
3476.00,1.7909
3475.00,1.8042
3474.00,1.8178
3473.00,1.8313
3472.00,1.8444
3471.00,1.8572
3470.00,1.8698
3469.00,1.8826
3468.00,1.8956
3467.00,1.9083
3466.00,1.9204
3465.00,1.9316
3464.00,1.9424
3463.00,1.9531
3462.00,1.9640
3461.00,1.9751
3460.00,1.9860
3459.00,1.9967
3458.00,2.0071
3457.00,2.0170
3456.00,2.0261
3455.00,2.0343
3454.00,2.0419
3453.00,2.0492
3452.00,2.0562
3451.00,2.0628
3450.00,2.0689
3449.00,2.0753
3448.00,2.0819
3447.00,2.0882
3446.00,2.0936
3445.00,2.0980
3444.00,2.1020
3443.00,2.1061
3442.00,2.1106
3441.00,2.1153
3440.00,2.1197
3439.00,2.1230
3438.00,2.1251
3437.00,2.1265
3436.00,2.1276
3435.00,2.1287
3434.00,2.1294
3433.00,2.1296
3432.00,2.1292
3431.00,2.1284
3430.00,2.1274
3429.00,2.1264
3428.00,2.1252
3427.00,2.1236
3426.00,2.1218
3425.00,2.1201
3424.00,2.1180
3423.00,2.1153
3422.00,2.1118
3421.00,2.1079
3420.00,2.1037
3419.00,2.0993
3418.00,2.0950
3417.00,2.0907
3416.00,2.0864
3415.00,2.0818
3414.00,2.0770
3413.00,2.0719
3412.00,2.0666
3411.00,2.0608
3410.00,2.0544
3409.00,2.0476
3408.00,2.0403
3407.00,2.0328
3406.00,2.0252
3405.00,2.0175
3404.00,2.0093
3403.00,2.0002
3402.00,1.9900
3401.00,1.9787
3400.00,1.9667
3399.00,1.9538
3398.00,1.9402
3397.00,1.9258
3396.00,1.9106
3395.00,1.8949
3394.00,1.8787
3393.00,1.8619
3392.00,1.8445
3391.00,1.8265
3390.00,1.8081
3389.00,1.7896
3388.00,1.7709
3387.00,1.7519
3386.00,1.7327
3385.00,1.7134
3384.00,1.6938
3383.00,1.6740
3382.00,1.6544
3381.00,1.6352
3380.00,1.6166
3379.00,1.5985
3378.00,1.5809
3377.00,1.5639
3376.00,1.5477
3375.00,1.5327
3374.00,1.5190
3373.00,1.5066
3372.00,1.4955
3371.00,1.4858
3370.00,1.4778
3369.00,1.4714
3368.00,1.4669
3367.00,1.4640
3366.00,1.4630
3365.00,1.4638
3364.00,1.4665
3363.00,1.4710
3362.00,1.4772
3361.00,1.4851
3360.00,1.4947
3359.00,1.5057
3358.00,1.5182
3357.00,1.5318
3356.00,1.5465
3355.00,1.5622
3354.00,1.5787
3353.00,1.5960
3352.00,1.6139
3351.00,1.6322
3350.00,1.6508
3349.00,1.6697
3348.00,1.6890
3347.00,1.7085
3346.00,1.7279
3345.00,1.7470
3344.00,1.7658
3343.00,1.7843
3342.00,1.8024
3341.00,1.8200
3340.00,1.8372
3339.00,1.8542
3338.00,1.8709
3337.00,1.8873
3336.00,1.9035
3335.00,1.9194
3334.00,1.9348
3333.00,1.9497
3332.00,1.9638
3331.00,1.9770
3330.00,1.9893
3329.00,2.0012
3328.00,2.0127
3327.00,2.0242
3326.00,2.0355
3325.00,2.0463
3324.00,2.0563
3323.00,2.0655
3322.00,2.0736
3321.00,2.0807
3320.00,2.0871
3319.00,2.0933
3318.00,2.0998
3317.00,2.1063
3316.00,2.1123
3315.00,2.1176
3314.00,2.1224
3313.00,2.1272
3312.00,2.1317
3311.00,2.1352
3310.00,2.1376
3309.00,2.1393
3308.00,2.1408
3307.00,2.1423
3306.00,2.1436
3305.00,2.1441
3304.00,2.1435
3303.00,2.1421
3302.00,2.1404
3301.00,2.1390
3300.00,2.1375
3299.00,2.1351
3298.00,2.1318
3297.00,2.1283
3296.00,2.1247
3295.00,2.1210
3294.00,2.1166
3293.00,2.1113
3292.00,2.1050
3291.00,2.0982
3290.00,2.0912
3289.00,2.0840
3288.00,2.0764
3287.00,2.0681
3286.00,2.0594
3285.00,2.0503
3284.00,2.0409
3283.00,2.0309
3282.00,2.0202
3281.00,2.0088
3280.00,1.9968
3279.00,1.9841
3278.00,1.9710
3277.00,1.9578
3276.00,1.9444
3275.00,1.9306
3274.00,1.9161
3273.00,1.9009
3272.00,1.8849
3271.00,1.8683
3270.00,1.8514
3269.00,1.8344
3268.00,1.8173
3267.00,1.8001
3266.00,1.7826
3265.00,1.7647
3264.00,1.7463
3263.00,1.7276
3262.00,1.7090
3261.00,1.6906
3260.00,1.6728
3259.00,1.6554
3258.00,1.6385
3257.00,1.6221
3256.00,1.6064
3255.00,1.5913
3254.00,1.5770
3253.00,1.5636
3252.00,1.5513
3251.00,1.5400
3250.00,1.5301
3249.00,1.5215
3248.00,1.5143
3247.00,1.5087
3246.00,1.5047
3245.00,1.5023
3244.00,1.5018
3243.00,1.5030
3242.00,1.5058
3241.00,1.5103
3240.00,1.5164
3239.00,1.5238
3238.00,1.5326
3237.00,1.5428
3236.00,1.5543
3235.00,1.5671
3234.00,1.5809
3233.00,1.5956
3232.00,1.6112
3231.00,1.6275
3230.00,1.6446
3229.00,1.6623
3228.00,1.6805
3227.00,1.6990
3226.00,1.7178
3225.00,1.7368
3224.00,1.7560
3223.00,1.7752
3222.00,1.7945
3221.00,1.8137
3220.00,1.8326
3219.00,1.8512
3218.00,1.8691
3217.00,1.8865
3216.00,1.9033
3215.00,1.9198
3214.00,1.9362
3213.00,1.9523
3212.00,1.9680
3211.00,1.9832
3210.00,1.9981
3209.00,2.0128
3208.00,2.0270
3207.00,2.0404
3206.00,2.0529
3205.00,2.0647
3204.00,2.0759
3203.00,2.0869
3202.00,2.0976
3201.00,2.1081
3200.00,2.1180
3199.00,2.1272
3198.00,2.1361
3197.00,2.1449
3196.00,2.1534
3195.00,2.1609
3194.00,2.1672
3193.00,2.1727
3192.00,2.1776
3191.00,2.1823
3190.00,2.1871
3189.00,2.1921
3188.00,2.1970
3187.00,2.2010
3186.00,2.2043
3185.00,2.2071
3184.00,2.2098
3183.00,2.2122
3182.00,2.2136
3181.00,2.2139
3180.00,2.2134
3179.00,2.2127
3178.00,2.2124
3177.00,2.2123
3176.00,2.2120
3175.00,2.2107
3174.00,2.2085
3173.00,2.2060
3172.00,2.2034
3171.00,2.2002
3170.00,2.1960
3169.00,2.1906
3168.00,2.1843
3167.00,2.1775
3166.00,2.1706
3165.00,2.1640
3164.00,2.1574
3163.00,2.1503
3162.00,2.1425
3161.00,2.1338
3160.00,2.1241
3159.00,2.1134
3158.00,2.1020
3157.00,2.0904
3156.00,2.0786
3155.00,2.0664
3154.00,2.0537
3153.00,2.0407
3152.00,2.0277
3151.00,2.0143
3150.00,2.0000
3149.00,1.9848
3148.00,1.9686
3147.00,1.9518
3146.00,1.9346
3145.00,1.9173
3144.00,1.8998
3143.00,1.8817
3142.00,1.8630
3141.00,1.8437
3140.00,1.8243
3139.00,1.8048
3138.00,1.7855
3137.00,1.7660
3136.00,1.7464
3135.00,1.7268
3134.00,1.7076
3133.00,1.6893
3132.00,1.6719
3131.00,1.6551
3130.00,1.6388
3129.00,1.6234
3128.00,1.6093
3127.00,1.5966
3126.00,1.5854
3125.00,1.5758
3124.00,1.5679
3123.00,1.5620
3122.00,1.5580
3121.00,1.5561
3120.00,1.5560
3119.00,1.5578
3118.00,1.5614
3117.00,1.5670
3116.00,1.5744
3115.00,1.5835
3114.00,1.5946
3113.00,1.6075
3112.00,1.6221
3111.00,1.6381
3110.00,1.6551
3109.00,1.6728
3108.00,1.6912
3107.00,1.7103
3106.00,1.7299
3105.00,1.7499
3104.00,1.7702
3103.00,1.7907
3102.00,1.8113
3101.00,1.8320
3100.00,1.8528
3099.00,1.8735
3098.00,1.8941
3097.00,1.9144
3096.00,1.9341
3095.00,1.9534
3094.00,1.9722
3093.00,1.9905
3092.00,2.0082
3091.00,2.0253
3090.00,2.0418
3089.00,2.0579
3088.00,2.0735
3087.00,2.0885
3086.00,2.1029
3085.00,2.1168
3084.00,2.1297
3083.00,2.1415
3082.00,2.1527
3081.00,2.1640
3080.00,2.1756
3079.00,2.1870
3078.00,2.1976
3077.00,2.2068
3076.00,2.2148
3075.00,2.2221
3074.00,2.2292
3073.00,2.2364
3072.00,2.2429
3071.00,2.2480
3070.00,2.2520
3069.00,2.2559
3068.00,2.2605
3067.00,2.2653
3066.00,2.2696
3065.00,2.2727
3064.00,2.2746
3063.00,2.2752
3062.00,2.2747
3061.00,2.2738
3060.00,2.2729
3059.00,2.2722
3058.00,2.2712
3057.00,2.2695
3056.00,2.2666
3055.00,2.2624
3054.00,2.2571
3053.00,2.2512
3052.00,2.2450
3051.00,2.2384
3050.00,2.2311
3049.00,2.2231
3048.00,2.2142
3047.00,2.2045
3046.00,2.1938
3045.00,2.1822
3044.00,2.1698
3043.00,2.1566
3042.00,2.1424
3041.00,2.1269
3040.00,2.1104
3039.00,2.0932
3038.00,2.0754
3037.00,2.0572
3036.00,2.0385
3035.00,2.0190
3034.00,1.9984
3033.00,1.9771
3032.00,1.9554
3031.00,1.9334
3030.00,1.9115
3029.00,1.8897
3028.00,1.8679
3027.00,1.8462
3026.00,1.8248
3025.00,1.8041
3024.00,1.7843
3023.00,1.7658
3022.00,1.7488
3021.00,1.7337
3020.00,1.7210
3019.00,1.7110
3018.00,1.7039
3017.00,1.7000
3016.00,1.6994
3015.00,1.7023
3014.00,1.7087
3013.00,1.7186
3012.00,1.7321
3011.00,1.7489
3010.00,1.7688
3009.00,1.7916
3008.00,1.8170
3007.00,1.8446
3006.00,1.8741
3005.00,1.9054
3004.00,1.9383
3003.00,1.9722
3002.00,2.0063
3001.00,2.0402
3000.00,2.0736
2999.00,2.1065
2998.00,2.1387
2997.00,2.1704
2996.00,2.2014
2995.00,2.2316
2994.00,2.2608
2993.00,2.2891
2992.00,2.3165
2991.00,2.3426
2990.00,2.3664
2989.00,2.3876
2988.00,2.4068
2987.00,2.4254
2986.00,2.4443
2985.00,2.4634
2984.00,2.4818
2983.00,2.4989
2982.00,2.5151
2981.00,2.5314
2980.00,2.5489
2979.00,2.5689
2978.00,2.5929
2977.00,2.6227
2976.00,2.6590
2975.00,2.7019
2974.00,2.7508
2973.00,2.8060
2972.00,2.8674
2971.00,2.9338
2970.00,3.0026
2969.00,3.0728
2968.00,3.1468
2967.00,3.2310
2966.00,3.3310
2965.00,3.4464
2964.00,3.5676
2963.00,3.6787
2962.00,3.7698
2961.00,3.8475
2960.00,3.9281
2959.00,4.0211
2958.00,4.1173
2957.00,4.1873
2956.00,4.2139
2955.00,4.2225
2954.00,4.2543
2953.00,4.3088
2952.00,4.3196
2951.00,4.2592
2950.00,4.1903
2949.00,4.1638
2948.00,4.1841
2947.00,4.2422
2946.00,4.3345
2945.00,4.4174
2944.00,4.4333
2943.00,4.4167
2942.00,4.4095
2941.00,4.3693
2940.00,4.2634
2939.00,4.1638
2938.00,4.1290
2937.00,4.1664
2936.00,4.2529
2935.00,4.3563
2934.00,4.4445
2933.00,4.4633
2932.00,4.3950
2931.00,4.2953
2930.00,4.2231
2929.00,4.2021
2928.00,4.2359
2927.00,4.2980
2926.00,4.2954
2925.00,4.2170
2924.00,4.1395
2923.00,4.0954
2922.00,4.0555
2921.00,3.9923
2920.00,3.9129
2919.00,3.8296
2918.00,3.7522
2917.00,3.6814
2916.00,3.6098
2915.00,3.5327
2914.00,3.4536
2913.00,3.3795
2912.00,3.3152
2911.00,3.2631
2910.00,3.2241
2909.00,3.1967
2908.00,3.1761
2907.00,3.1556
2906.00,3.1298
2905.00,3.0985
2904.00,3.0645
2903.00,3.0320
2902.00,3.0042
2901.00,2.9824
2900.00,2.9661
2899.00,2.9534
2898.00,2.9424
2897.00,2.9314
2896.00,2.9192
2895.00,2.9054
2894.00,2.8914
2893.00,2.8796
2892.00,2.8719
2891.00,2.8688
2890.00,2.8693
2889.00,2.8721
2888.00,2.8759
2887.00,2.8802
2886.00,2.8844
2885.00,2.8884
2884.00,2.8931
2883.00,2.9003
2882.00,2.9116
2881.00,2.9276
2880.00,2.9487
2879.00,2.9756
2878.00,3.0086
2877.00,3.0468
2876.00,3.0880
2875.00,3.1321
2874.00,3.1825
2873.00,3.2441
2872.00,3.3191
2871.00,3.4054
2870.00,3.4971
2869.00,3.5862
2868.00,3.6624
2867.00,3.7175
2866.00,3.7529
2865.00,3.7787
2864.00,3.8033
2863.00,3.8237
2862.00,3.8270
2861.00,3.8018
2860.00,3.7475
2859.00,3.6724
2858.00,3.5863
2857.00,3.4953
2856.00,3.4018
2855.00,3.3062
2854.00,3.2093
2853.00,3.1129
2852.00,3.0205
2851.00,2.9365
2850.00,2.8641
2849.00,2.8032
2848.00,2.7513
2847.00,2.7064
2846.00,2.6677
2845.00,2.6357
2844.00,2.6101
2843.00,2.5893
2842.00,2.5716
2841.00,2.5553
2840.00,2.5402
2839.00,2.5261
2838.00,2.5129
2837.00,2.5002
2836.00,2.4873
2835.00,2.4736
2834.00,2.4586
2833.00,2.4427
2832.00,2.4262
2831.00,2.4094
2830.00,2.3923
2829.00,2.3745
2828.00,2.3564
2827.00,2.3380
2826.00,2.3185
2825.00,2.2968
2824.00,2.2721
2823.00,2.2450
2822.00,2.2160
2821.00,2.1855
2820.00,2.1531
2819.00,2.1183
2818.00,2.0816
2817.00,2.0432
2816.00,2.0036
2815.00,1.9631
2814.00,1.9222
2813.00,1.8814
2812.00,1.8412
2811.00,1.8023
2810.00,1.7652
2809.00,1.7305
2808.00,1.6986
2807.00,1.6702
2806.00,1.6461
2805.00,1.6274
2804.00,1.6146
2803.00,1.6077
2802.00,1.6067
2801.00,1.6111
2800.00,1.6202
2799.00,1.6331
2798.00,1.6489
2797.00,1.6668
2796.00,1.6861
2795.00,1.7063
2794.00,1.7273
2793.00,1.7492
2792.00,1.7725
2791.00,1.7975
2790.00,1.8243
2789.00,1.8526
2788.00,1.8817
2787.00,1.9113
2786.00,1.9411
2785.00,1.9710
2784.00,2.0009
2783.00,2.0304
2782.00,2.0592
2781.00,2.0868
2780.00,2.1129
2779.00,2.1371
2778.00,2.1591
2777.00,2.1796
2776.00,2.1994
2775.00,2.2189
2774.00,2.2379
2773.00,2.2557
2772.00,2.2721
2771.00,2.2876
2770.00,2.3027
2769.00,2.3172
2768.00,2.3301
2767.00,2.3413
2766.00,2.3516
2765.00,2.3614
2764.00,2.3702
2763.00,2.3775
2762.00,2.3836
2761.00,2.3893
2760.00,2.3946
2759.00,2.3994
2758.00,2.4037
2757.00,2.4081
2756.00,2.4125
2755.00,2.4159
2754.00,2.4178
2753.00,2.4183
2752.00,2.4179
2751.00,2.4166
2750.00,2.4148
2749.00,2.4128
2748.00,2.4107
2747.00,2.4079
2746.00,2.4043
2745.00,2.3998
2744.00,2.3949
2743.00,2.3896
2742.00,2.3839
2741.00,2.3772
2740.00,2.3694
2739.00,2.3604
2738.00,2.3507
2737.00,2.3404
2736.00,2.3294
2735.00,2.3173
2734.00,2.3043
2733.00,2.2907
2732.00,2.2766
2731.00,2.2616
2730.00,2.2453
2729.00,2.2280
2728.00,2.2100
2727.00,2.1910
2726.00,2.1708
2725.00,2.1492
2724.00,2.1263
2723.00,2.1021
2722.00,2.0766
2721.00,2.0496
2720.00,2.0214
2719.00,1.9922
2718.00,1.9621
2717.00,1.9309
2716.00,1.8985
2715.00,1.8645
2714.00,1.8290
2713.00,1.7921
2712.00,1.7541
2711.00,1.7155
2710.00,1.6768
2709.00,1.6383
2708.00,1.6006
2707.00,1.5637
2706.00,1.5282
2705.00,1.4948
2704.00,1.4641
2703.00,1.4369
2702.00,1.4136
2701.00,1.3947
2700.00,1.3807
2699.00,1.3719
2698.00,1.3683
2697.00,1.3702
2696.00,1.3775
2695.00,1.3899
2694.00,1.4073
2693.00,1.4293
2692.00,1.4554
2691.00,1.4851
2690.00,1.5180
2689.00,1.5537
2688.00,1.5917
2687.00,1.6314
2686.00,1.6724
2685.00,1.7140
2684.00,1.7556
2683.00,1.7966
2682.00,1.8363
2681.00,1.8744
2680.00,1.9107
2679.00,1.9447
2678.00,1.9764
2677.00,2.0054
2676.00,2.0320
2675.00,2.0563
2674.00,2.0788
2673.00,2.1001
2672.00,2.1206
2671.00,2.1406
2670.00,2.1597
2669.00,2.1777
2668.00,2.1947
2667.00,2.2105
2666.00,2.2255
2665.00,2.2399
2664.00,2.2543
2663.00,2.2686
2662.00,2.2829
2661.00,2.2973
2660.00,2.3118
2659.00,2.3265
2658.00,2.3409
2657.00,2.3548
2656.00,2.3679
2655.00,2.3804
2654.00,2.3920
2653.00,2.4027
2652.00,2.4124
2651.00,2.4214
2650.00,2.4303
2649.00,2.4393
2648.00,2.4480
2647.00,2.4561
2646.00,2.4636
2645.00,2.4703
2644.00,2.4760
2643.00,2.4801
2642.00,2.4823
2641.00,2.4834
2640.00,2.4847
2639.00,2.4873
2638.00,2.4907
2637.00,2.4938
2636.00,2.4958
2635.00,2.4964
2634.00,2.4958
2633.00,2.4943
2632.00,2.4919
2631.00,2.4890
2630.00,2.4859
2629.00,2.4828
2628.00,2.4797
2627.00,2.4766
2626.00,2.4734
2625.00,2.4698
2624.00,2.4653
2623.00,2.4593
2622.00,2.4522
2621.00,2.4440
2620.00,2.4350
2619.00,2.4257
2618.00,2.4163
2617.00,2.4071
2616.00,2.3975
2615.00,2.3872
2614.00,2.3764
2613.00,2.3654
2612.00,2.3539
2611.00,2.3417
2610.00,2.3285
2609.00,2.3140
2608.00,2.2980
2607.00,2.2803
2606.00,2.2612
2605.00,2.2411
2604.00,2.2203
2603.00,2.1986
2602.00,2.1763
2601.00,2.1530
2600.00,2.1285
2599.00,2.1018
2598.00,2.0730
2597.00,2.0426
2596.00,2.0112
2595.00,1.9789
2594.00,1.9455
2593.00,1.9110
2592.00,1.8751
2591.00,1.8379
2590.00,1.7997
2589.00,1.7611
2588.00,1.7224
2587.00,1.6837
2586.00,1.6452
2585.00,1.6071
2584.00,1.5700
2583.00,1.5344
2582.00,1.5008
2581.00,1.4699
2580.00,1.4423
2579.00,1.4185
2578.00,1.3991
2577.00,1.3844
2576.00,1.3746
2575.00,1.3700
2574.00,1.3705
2573.00,1.3763
2572.00,1.3871
2571.00,1.4026
2570.00,1.4225
2569.00,1.4460
2568.00,1.4729
2567.00,1.5027
2566.00,1.5350
2565.00,1.5694
2564.00,1.6055
2563.00,1.6427
2562.00,1.6809
2561.00,1.7198
2560.00,1.7591
2559.00,1.7983
2558.00,1.8367
2557.00,1.8743
2556.00,1.9111
2555.00,1.9470
2554.00,1.9820
2553.00,2.0155
2552.00,2.0477
2551.00,2.0786
2550.00,2.1084
2549.00,2.1373
2548.00,2.1647
2547.00,2.1906
2546.00,2.2152
2545.00,2.2389
2544.00,2.2619
2543.00,2.2837
2542.00,2.3042
2541.00,2.3236
2540.00,2.3419
2539.00,2.3592
2538.00,2.3753
2537.00,2.3903
2536.00,2.4046
2535.00,2.4185
2534.00,2.4319
2533.00,2.4446
2532.00,2.4566
2531.00,2.4677
2530.00,2.4775
2529.00,2.4860
2528.00,2.4939
2527.00,2.5020
2526.00,2.5107
2525.00,2.5195
2524.00,2.5274
2523.00,2.5341
2522.00,2.5398
2521.00,2.5447
2520.00,2.5485
2519.00,2.5514
2518.00,2.5543
2517.00,2.5583
2516.00,2.5629
2515.00,2.5667
2514.00,2.5684
2513.00,2.5686
2512.00,2.5684
2511.00,2.5686
2510.00,2.5688
2509.00,2.5684
2508.00,2.5668
2507.00,2.5641
2506.00,2.5606
2505.00,2.5571
2504.00,2.5535
2503.00,2.5497
2502.00,2.5454
2501.00,2.5409
2500.00,2.5366
2499.00,2.5321
2498.00,2.5265
2497.00,2.5190
2496.00,2.5091
2495.00,2.4976
2494.00,2.4851
2493.00,2.4725
2492.00,2.4604
2491.00,2.4489
2490.00,2.4375
2489.00,2.4254
2488.00,2.4117
2487.00,2.3964
2486.00,2.3803
2485.00,2.3640
2484.00,2.3475
2483.00,2.3300
2482.00,2.3108
2481.00,2.2898
2480.00,2.2675
2479.00,2.2442
2478.00,2.2201
2477.00,2.1948
2476.00,2.1679
2475.00,2.1396
2474.00,2.1098
2473.00,2.0790
2472.00,2.0469
2471.00,2.0134
2470.00,1.9782
2469.00,1.9413
2468.00,1.9026
2467.00,1.8623
2466.00,1.8206
2465.00,1.7777
2464.00,1.7338
2463.00,1.6890
2462.00,1.6438
2461.00,1.5987
2460.00,1.5544
2459.00,1.5116
2458.00,1.4710
2457.00,1.4335
2456.00,1.3997
2455.00,1.3704
2454.00,1.3464
2453.00,1.3282
2452.00,1.3163
2451.00,1.3108
2450.00,1.3119
2449.00,1.3195
2448.00,1.3336
2447.00,1.3537
2446.00,1.3795
2445.00,1.4104
2444.00,1.4456
2443.00,1.4844
2442.00,1.5260
2441.00,1.5699
2440.00,1.6155
2439.00,1.6622
2438.00,1.7097
2437.00,1.7574
2436.00,1.8046
2435.00,1.8506
2434.00,1.8948
2433.00,1.9374
2432.00,1.9783
2431.00,2.0174
2430.00,2.0546
2429.00,2.0898
2428.00,2.1234
2427.00,2.1557
2426.00,2.1865
2425.00,2.2154
2424.00,2.2424
2423.00,2.2677
2422.00,2.2919
2421.00,2.3151
2420.00,2.3370
2419.00,2.3575
2418.00,2.3768
2417.00,2.3955
2416.00,2.4133
2415.00,2.4298
2414.00,2.4456
2413.00,2.4615
2412.00,2.4779
2411.00,2.4936
2410.00,2.5076
2409.00,2.5198
2408.00,2.5311
2407.00,2.5422
2406.00,2.5536
2405.00,2.5651
2404.00,2.5759
2403.00,2.5852
2402.00,2.5930
2401.00,2.5998
2400.00,2.6061
2399.00,2.6118
2398.00,2.6172
2397.00,2.6237
2396.00,2.6326
2395.00,2.6446
2394.00,2.6599
2393.00,2.6787
2392.00,2.7011
2391.00,2.7253
2390.00,2.7566
2389.00,2.7841
2388.00,2.8329
2387.00,2.8545
2386.00,2.9465
2385.00,2.8686
2384.00,2.6338
2383.00,2.6622
2382.00,2.6458
2381.00,2.6527
2380.00,2.6475
2379.00,2.6481
2378.00,2.6453
2377.00,2.6435
2376.00,2.6408
2375.00,2.6372
2374.00,2.6327
2373.00,2.6279
2372.00,2.6235
2371.00,2.6192
2370.00,2.6145
2369.00,2.6087
2368.00,2.6013
2367.00,2.5924
2366.00,2.5823
2365.00,2.5713
2364.00,2.5588
2363.00,2.5445
2362.00,2.5286
2361.00,2.5119
2360.00,2.4943
2359.00,2.4776
2358.00,2.4565
2357.00,2.4381
2356.00,2.4080
2355.00,2.3915
2354.00,2.3372
2353.00,2.2274
2352.00,2.1883
2351.00,2.1366
2350.00,2.1124
2349.00,2.1062
2348.00,2.1020
2347.00,2.0923
2346.00,2.0777
2345.00,2.0587
2344.00,2.0349
2343.00,2.0108
2342.00,1.9934
2341.00,1.9851
2340.00,1.9832
2339.00,1.9815
2338.00,1.9769
2337.00,1.9705
2336.00,1.9657
2335.00,1.9588
2334.00,1.9522
2333.00,1.9446
2332.00,1.9425
2331.00,1.9433
2330.00,1.9445
2329.00,1.9428
2328.00,1.9386
2327.00,1.9377
2326.00,1.9423
2325.00,1.9524
2324.00,1.9639
2323.00,1.9727
2322.00,1.9777
2321.00,1.9783
2320.00,1.9783
2319.00,1.9794
2318.00,1.9861
2317.00,1.9979
2316.00,2.0162
2315.00,2.0379
2314.00,2.0636
2313.00,2.0912
2312.00,2.1210
2311.00,2.1497
2310.00,2.1761
2309.00,2.1983
2308.00,2.2177
2307.00,2.2356
2306.00,2.2544
2305.00,2.2735
2304.00,2.2931
2303.00,2.3113
2302.00,2.3292
2301.00,2.3466
2300.00,2.3650
2299.00,2.3836
2298.00,2.4019
2297.00,2.4193
2296.00,2.4366
2295.00,2.4551
2294.00,2.4750
2293.00,2.4956
2292.00,2.5154
2291.00,2.5339
2290.00,2.5506
2289.00,2.5651
2288.00,2.5765
2287.00,2.5848
2286.00,2.5907
2285.00,2.5955
2284.00,2.6008
2283.00,2.6073
2282.00,2.6143
2281.00,2.6208
2280.00,2.6268
2279.00,2.6334
2278.00,2.6416
2277.00,2.6506
2276.00,2.6591
2275.00,2.6664
2274.00,2.6726
2273.00,2.6782
2272.00,2.6836
2271.00,2.6892
2270.00,2.6950
2269.00,2.7006
2268.00,2.7055
2267.00,2.7094
2266.00,2.7127
2265.00,2.7167
2264.00,2.7215
2263.00,2.7266
2262.00,2.7303
2261.00,2.7313
2260.00,2.7302
2259.00,2.7282
2258.00,2.7261
2257.00,2.7238
2256.00,2.7215
2255.00,2.7200
2254.00,2.7193
2253.00,2.7181
2252.00,2.7150
2251.00,2.7100
2250.00,2.7044
2249.00,2.6983
2248.00,2.6911
2247.00,2.6820
2246.00,2.6716
2245.00,2.6608
2244.00,2.6499
2243.00,2.6394
2242.00,2.6294
2241.00,2.6190
2240.00,2.6067
2239.00,2.5920
2238.00,2.5760
2237.00,2.5599
2236.00,2.5439
2235.00,2.5269
2234.00,2.5083
2233.00,2.4879
2232.00,2.4661
2231.00,2.4436
2230.00,2.4208
2229.00,2.3977
2228.00,2.3738
2227.00,2.3482
2226.00,2.3206
2225.00,2.2907
2224.00,2.2587
2223.00,2.2249
2222.00,2.1897
2221.00,2.1531
2220.00,2.1147
2219.00,2.0738
2218.00,2.0306
2217.00,1.9853
2216.00,1.9383
2215.00,1.8896
2214.00,1.8396
2213.00,1.7888
2212.00,1.7376
2211.00,1.6868
2210.00,1.6370
2209.00,1.5895
2208.00,1.5451
2207.00,1.5051
2206.00,1.4701
2205.00,1.4413
2204.00,1.4192
2203.00,1.4047
2202.00,1.3981
2201.00,1.3999
2200.00,1.4099
2199.00,1.4280
2198.00,1.4534
2197.00,1.4855
2196.00,1.5236
2195.00,1.5666
2194.00,1.6135
2193.00,1.6635
2192.00,1.7158
2191.00,1.7697
2190.00,1.8238
2189.00,1.8772
2188.00,1.9291
2187.00,1.9792
2186.00,2.0273
2185.00,2.0734
2184.00,2.1175
2183.00,2.1596
2182.00,2.1997
2181.00,2.2374
2180.00,2.2722
2179.00,2.3043
2178.00,2.3341
2177.00,2.3619
2176.00,2.3883
2175.00,2.4137
2174.00,2.4384
2173.00,2.4622
2172.00,2.4846
2171.00,2.5057
2170.00,2.5264
2169.00,2.5468
2168.00,2.5662
2167.00,2.5838
2166.00,2.6004
2165.00,2.6173
2164.00,2.6343
2163.00,2.6506
2162.00,2.6654
2161.00,2.6797
2160.00,2.6940
2159.00,2.7081
2158.00,2.7205
2157.00,2.7311
2156.00,2.7406
2155.00,2.7501
2154.00,2.7595
2153.00,2.7682
2152.00,2.7758
2151.00,2.7826
2150.00,2.7889
2149.00,2.7950
2148.00,2.8006
2147.00,2.8057
2146.00,2.8102
2145.00,2.8139
2144.00,2.8168
2143.00,2.8188
2142.00,2.8199
2141.00,2.8205
2140.00,2.8218
2139.00,2.8247
2138.00,2.8285
2137.00,2.8305
2136.00,2.8288
2135.00,2.8251
2134.00,2.8226
2133.00,2.8228
2132.00,2.8241
2131.00,2.8239
2130.00,2.8207
2129.00,2.8152
2128.00,2.8083
2127.00,2.8008
2126.00,2.7928
2125.00,2.7843
2124.00,2.7755
2123.00,2.7670
2122.00,2.7590
2121.00,2.7504
2120.00,2.7400
2119.00,2.7280
2118.00,2.7154
2117.00,2.7032
2116.00,2.6916
2115.00,2.6804
2114.00,2.6689
2113.00,2.6558
2112.00,2.6403
2111.00,2.6224
2110.00,2.6034
2109.00,2.5835
2108.00,2.5624
2107.00,2.5403
2106.00,2.5183
2105.00,2.4967
2104.00,2.4744
2103.00,2.4499
2102.00,2.4226
2101.00,2.3932
2100.00,2.3623
2099.00,2.3304
2098.00,2.2973
2097.00,2.2628
2096.00,2.2262
2095.00,2.1870
2094.00,2.1449
2093.00,2.1004
2092.00,2.0544
2091.00,2.0071
2090.00,1.9584
2089.00,1.9078
2088.00,1.8553
2087.00,1.8015
2086.00,1.7477
2085.00,1.6952
2084.00,1.6450
2083.00,1.5983
2082.00,1.5568
2081.00,1.5221
2080.00,1.4956
2079.00,1.4782
2078.00,1.4704
2077.00,1.4728
2076.00,1.4853
2075.00,1.5077
2074.00,1.5390
2073.00,1.5779
2072.00,1.6228
2071.00,1.6723
2070.00,1.7242
2069.00,1.7768
2068.00,1.8291
2067.00,1.8818
2066.00,1.9350
2065.00,1.9874
2064.00,2.0368
2063.00,2.0823
2062.00,2.1245
2061.00,2.1646
2060.00,2.2032
2059.00,2.2404
2058.00,2.2762
2057.00,2.3109
2056.00,2.3446
2055.00,2.3774
2054.00,2.4096
2053.00,2.4413
2052.00,2.4717
2051.00,2.4998
2050.00,2.5260
2049.00,2.5514
2048.00,2.5770
2047.00,2.6027
2046.00,2.6270
2045.00,2.6489
2044.00,2.6687
2043.00,2.6876
2042.00,2.7059
2041.00,2.7235
2040.00,2.7401
2039.00,2.7556
2038.00,2.7699
2037.00,2.7830
2036.00,2.7951
2035.00,2.8067
2034.00,2.8178
2033.00,2.8283
2032.00,2.8381
2031.00,2.8475
2030.00,2.8564
2029.00,2.8641
2028.00,2.8703
2027.00,2.8760
2026.00,2.8822
2025.00,2.8888
2024.00,2.8953
2023.00,2.9013
2022.00,2.9066
2021.00,2.9109
2020.00,2.9140
2019.00,2.9168
2018.00,2.9202
2017.00,2.9234
2016.00,2.9244
2015.00,2.9224
2014.00,2.9184
2013.00,2.9145
2012.00,2.9126
2011.00,2.9132
2010.00,2.9159
2009.00,2.9184
2008.00,2.9187
2007.00,2.9159
2006.00,2.9110
2005.00,2.9051
2004.00,2.8993
2003.00,2.8932
2002.00,2.8862
2001.00,2.8772
2000.00,2.8663
1999.00,2.8555
1998.00,2.8467
1997.00,2.8377
1996.00,2.8244
1995.00,2.8070
1994.00,2.7910
1993.00,2.7802
1992.00,2.7719
1991.00,2.7605
1990.00,2.7445
1989.00,2.7264
1988.00,2.7085
1987.00,2.6899
1986.00,2.6692
1985.00,2.6461
1984.00,2.6216
1983.00,2.5964
1982.00,2.5713
1981.00,2.5465
1980.00,2.5210
1979.00,2.4934
1978.00,2.4634
1977.00,2.4316
1976.00,2.3980
1975.00,2.3626
1974.00,2.3260
1973.00,2.2881
1972.00,2.2472
1971.00,2.2009
1970.00,2.1502
1969.00,2.0983
1968.00,2.0482
1967.00,1.9982
1966.00,1.9454
1965.00,1.8891
1964.00,1.8321
1963.00,1.7777
1962.00,1.7277
1961.00,1.6827
1960.00,1.6434
1959.00,1.6109
1958.00,1.5867
1957.00,1.5724
1956.00,1.5693
1955.00,1.5770
1954.00,1.5945
1953.00,1.6205
1952.00,1.6549
1951.00,1.6959
1950.00,1.7418
1949.00,1.7922
1948.00,1.8467
1947.00,1.9019
1946.00,1.9540
1945.00,2.0035
1944.00,2.0556
1943.00,2.1126
1942.00,2.1695
1941.00,2.2200
1940.00,2.2639
1939.00,2.3056
1938.00,2.3475
1937.00,2.3884
1936.00,2.4266
1935.00,2.4630
1934.00,2.4983
1933.00,2.5322
1932.00,2.5649
1931.00,2.5956
1930.00,2.6249
1929.00,2.6525
1928.00,2.6779
1927.00,2.6993
1926.00,2.7163
1925.00,2.7344
1924.00,2.7609
1923.00,2.7944
1922.00,2.8245
1921.00,2.8439
1920.00,2.8573
1919.00,2.8741
1918.00,2.8935
1917.00,2.9074
1916.00,2.9139
1915.00,2.9198
1914.00,2.9303
1913.00,2.9426
1912.00,2.9522
1911.00,2.9594
1910.00,2.9675
1909.00,2.9757
1908.00,2.9820
1907.00,2.9867
1906.00,2.9906
1905.00,2.9938
1904.00,2.9961
1903.00,2.9980
1902.00,3.0005
1901.00,3.0033
1900.00,3.0055
1899.00,3.0082
1898.00,3.0111
1897.00,3.0138
1896.00,3.0166
1895.00,3.0196
1894.00,3.0194
1893.00,3.0130
1892.00,3.0036
1891.00,3.0003
1890.00,3.0053
1889.00,3.0093
1888.00,3.0039
1887.00,2.9924
1886.00,2.9827
1885.00,2.9755
1884.00,2.9661
1883.00,2.9537
1882.00,2.9432
1881.00,2.9366
1880.00,2.9305
1879.00,2.9214
1878.00,2.9086
1877.00,2.8928
1876.00,2.8767
1875.00,2.8628
1874.00,2.8495
1873.00,2.8325
1872.00,2.8103
1871.00,2.7889
1870.00,2.7745
1869.00,2.7629
1868.00,2.7435
1867.00,2.7131
1866.00,2.6772
1865.00,2.6408
1864.00,2.6043
1863.00,2.5665
1862.00,2.5272
1861.00,2.4859
1860.00,2.4416
1859.00,2.3941
1858.00,2.3439
1857.00,2.2900
1856.00,2.2321
1855.00,2.1702
1854.00,2.1070
1853.00,2.0421
1852.00,1.9736
1851.00,1.9056
1850.00,1.8461
1849.00,1.7983
1848.00,1.7589
1847.00,1.7258
1846.00,1.7057
1845.00,1.7059
1844.00,1.7207
1843.00,1.7392
1842.00,1.7604
1841.00,1.7910
1840.00,1.8367
1839.00,1.8957
1838.00,1.9614
1837.00,2.0308
1836.00,2.1037
1835.00,2.1778
1834.00,2.2486
1833.00,2.3126
1832.00,2.3729
1831.00,2.4379
1830.00,2.5039
1829.00,2.5568
1828.00,2.5921
1827.00,2.6208
1826.00,2.6567
1825.00,2.6998
1824.00,2.7401
1823.00,2.7724
1822.00,2.8004
1821.00,2.8276
1820.00,2.8543
1819.00,2.8809
1818.00,2.9096
1817.00,2.9419
1816.00,2.9714
1815.00,2.9909
1814.00,3.0019
1813.00,3.0130
1812.00,3.0306
1811.00,3.0509
1810.00,3.0673
1809.00,3.0806
1808.00,3.0933
1807.00,3.1039
1806.00,3.1096
1805.00,3.1129
1804.00,3.1159
1803.00,3.1199
1802.00,3.1252
1801.00,3.1300
1800.00,3.1320
1799.00,3.1318
1798.00,3.1349
1797.00,3.1451
1796.00,3.1556
1795.00,3.1570
1794.00,3.1504
1793.00,3.1449
1792.00,3.1433
1791.00,3.1384
1790.00,3.1253
1789.00,3.1062
1788.00,3.0856
1787.00,3.0670
1786.00,3.0520
1785.00,3.0396
1784.00,3.0212
1783.00,2.9934
1782.00,2.9638
1781.00,2.9373
1780.00,2.9108
1779.00,2.8801
1778.00,2.8498
1777.00,2.8250
1776.00,2.8020
1775.00,2.7785
1774.00,2.7629
1773.00,2.7580
1772.00,2.7496
1771.00,2.7272
1770.00,2.7021
1769.00,2.6957
1768.00,2.7131
1767.00,2.7364
1766.00,2.7478
1765.00,2.7487
1764.00,2.7541
1763.00,2.7770
1762.00,2.8142
1761.00,2.8523
1760.00,2.8861
1759.00,2.9227
1758.00,2.9781
1757.00,3.0548
1756.00,3.1323
1755.00,3.1915
1754.00,3.2348
1753.00,3.2815
1752.00,3.3442
1751.00,3.4134
1750.00,3.4763
1749.00,3.5368
1748.00,3.5924
1747.00,3.6276
1746.00,3.6425
1745.00,3.6693
1744.00,3.7382
1743.00,3.8426
1742.00,3.9440
1741.00,4.0167
1740.00,4.0753
1739.00,4.1376
1738.00,4.1915
1737.00,4.1969
1736.00,4.1587
1735.00,4.1610
1734.00,4.2426
1733.00,4.3831
1732.00,4.5658
1731.00,4.8180
1730.00,5.1364
1729.00,5.1309
1728.00,4.8371
1727.00,4.6153
1726.00,4.4863
1725.00,4.4678
1724.00,4.6029
1723.00,4.9391
1722.00,5.4719
1721.00,5.7392
1720.00,5.4930
1719.00,4.9895
1718.00,4.6330
1717.00,4.4394
1716.00,4.3314
1715.00,4.3004
1714.00,4.3485
1713.00,4.4981
1712.00,4.6324
1711.00,4.4344
1710.00,4.2552
1709.00,4.2161
1708.00,4.2738
1707.00,4.4315
1706.00,4.6722
1705.00,4.8343
1704.00,4.7131
1703.00,4.5993
1702.00,4.6413
1701.00,4.8972
1700.00,5.3687
1699.00,5.0776
1698.00,4.8610
1697.00,4.8220
1696.00,4.5776
1695.00,4.3508
1694.00,4.2586
1693.00,4.2474
1692.00,4.2241
1691.00,4.1369
1690.00,4.0391
1689.00,3.9576
1688.00,3.8848
1687.00,3.8138
1686.00,3.7485
1685.00,3.7044
1684.00,3.6590
1683.00,3.5858
1682.00,3.5077
1681.00,3.4590
1680.00,3.4480
1679.00,3.4570
1678.00,3.4664
1677.00,3.4745
1676.00,3.4834
1675.00,3.4858
1674.00,3.4756
1673.00,3.4600
1672.00,3.4486
1671.00,3.4401
1670.00,3.4272
1669.00,3.4076
1668.00,3.3898
1667.00,3.3841
1666.00,3.3885
1665.00,3.3940
1664.00,3.3919
1663.00,3.3744
1662.00,3.3430
1661.00,3.3079
1660.00,3.2800
1659.00,3.2669
1658.00,3.2676
1657.00,3.2730
1656.00,3.2733
1655.00,3.2776
1654.00,3.2927
1653.00,3.2829
1652.00,3.2157
1651.00,3.1454
1650.00,3.0649
1649.00,3.0339
1648.00,2.9456
1647.00,2.8743
1646.00,2.8526
1645.00,2.8169
1644.00,2.7956
1643.00,2.7735
1642.00,2.7556
1641.00,2.7320
1640.00,2.7132
1639.00,2.6834
1638.00,2.6742
1637.00,2.6344
1636.00,2.6980
1635.00,2.7554
1634.00,2.6890
1633.00,2.6561
1632.00,2.6183
1631.00,2.6043
1630.00,2.5964
1629.00,2.5995
1628.00,2.6084
1627.00,2.6196
1626.00,2.6312
1625.00,2.6471
1624.00,2.6725
1623.00,2.7043
1622.00,2.7358
1621.00,2.7649
1620.00,2.7939
1619.00,2.8284
1618.00,2.8736
1617.00,2.9242
1616.00,2.9624
1615.00,2.9793
1614.00,2.9830
1613.00,2.9896
1612.00,3.0072
1611.00,3.0307
1610.00,3.0531
1609.00,3.0736
1608.00,3.0928
1607.00,3.1084
1606.00,3.1212
1605.00,3.1337
1604.00,3.1483
1603.00,3.1663
1602.00,3.1863
1601.00,3.2071
1600.00,3.2255
1599.00,3.2362
1598.00,3.2374
1597.00,3.2364
1596.00,3.2435
1595.00,3.2602
1594.00,3.2770
1593.00,3.2836
1592.00,3.2797
1591.00,3.2729
1590.00,3.2707
1589.00,3.2744
1588.00,3.2803
1587.00,3.2839
1586.00,3.2863
1585.00,3.2908
1584.00,3.2935
1583.00,3.2897
1582.00,3.2827
1581.00,3.2783
1580.00,3.2760
1579.00,3.2730
1578.00,3.2716
1577.00,3.2771
1576.00,3.2814
1575.00,3.2719
1574.00,3.2514
1573.00,3.2298
1572.00,3.2147
1571.00,3.2058
1570.00,3.1956
1569.00,3.1739
1568.00,3.1401
1567.00,3.1051
1566.00,3.0817
1565.00,3.0724
1564.00,3.0666
1563.00,3.0549
1562.00,3.0426
1561.00,3.0345
1560.00,3.0404
1559.00,3.0349
1558.00,2.9668
1557.00,2.8618
1556.00,2.7632
1555.00,2.6868
1554.00,2.6238
1553.00,2.5536
1552.00,2.4770
1551.00,2.4099
1550.00,2.3570
1549.00,2.3056
1548.00,2.2454
1547.00,2.1830
1546.00,2.1361
1545.00,2.1142
1544.00,2.1111
1543.00,2.1128
1542.00,2.1083
1541.00,2.1045
1540.00,2.1058
1539.00,2.1062
1538.00,2.1093
1537.00,2.1209
1536.00,2.1449
1535.00,2.1906
1534.00,2.2604
1533.00,2.3342
1532.00,2.3958
1531.00,2.4491
1530.00,2.5008
1529.00,2.5551
1528.00,2.6158
1527.00,2.6877
1526.00,2.7663
1525.00,2.8335
1524.00,2.8777
1523.00,2.9116
1522.00,2.9578
1521.00,3.0088
1520.00,3.0388
1519.00,3.0458
1518.00,3.0517
1517.00,3.0737
1516.00,3.1027
1515.00,3.1236
1514.00,3.1370
1513.00,3.1529
1512.00,3.1784
1511.00,3.2091
1510.00,3.2373
1509.00,3.2654
1508.00,3.3165
1507.00,3.3817
1506.00,3.4099
1505.00,3.3925
1504.00,3.3560
1503.00,3.3269
1502.00,3.3220
1501.00,3.3408
1500.00,3.3724
1499.00,3.4065
1498.00,3.4325
1497.00,3.4387
1496.00,3.4256
1495.00,3.4084
1494.00,3.3986
1493.00,3.3939
1492.00,3.3903
1491.00,3.3902
1490.00,3.3914
1489.00,3.3859
1488.00,3.3768
1487.00,3.3698
1486.00,3.3661
1485.00,3.3627
1484.00,3.3561
1483.00,3.3527
1482.00,3.3566
1481.00,3.3598
1480.00,3.3521
1479.00,3.3370
1478.00,3.3250
1477.00,3.3196
1476.00,3.3143
1475.00,3.3025
1474.00,3.2892
1473.00,3.2759
1472.00,3.2531
1471.00,3.2197
1470.00,3.1893
1469.00,3.1746
1468.00,3.1793
1467.00,3.2002
1466.00,3.2355
1465.00,3.2774
1464.00,3.3095
1463.00,3.3242
1462.00,3.3281
1461.00,3.3300
1460.00,3.3314
1459.00,3.3391
1458.00,3.3740
1457.00,3.4455
1456.00,3.5427
1455.00,3.6602
1454.00,3.7998
1453.00,3.9553
1452.00,4.0935
1451.00,4.1772
1450.00,4.2251
1449.00,4.2182
1448.00,4.1102
1447.00,3.9675
1446.00,3.8494
1445.00,3.7596
1444.00,3.6903
1443.00,3.6357
1442.00,3.5925
1441.00,3.5545
1440.00,3.5169
1439.00,3.4849
1438.00,3.4705
1437.00,3.4792
1436.00,3.5007
1435.00,3.5278
1434.00,3.5660
1433.00,3.6180
1432.00,3.6726
1431.00,3.7168
1430.00,3.7529
1429.00,3.7910
1428.00,3.8246
1427.00,3.8329
1426.00,3.8158
1425.00,3.7970
1424.00,3.8010
1423.00,3.8381
1422.00,3.9046
1421.00,3.9704
1420.00,3.9687
1419.00,3.8767
1418.00,3.7546
1417.00,3.6501
1416.00,3.5665
1415.00,3.4918
1414.00,3.4235
1413.00,3.3640
1412.00,3.3102
1411.00,3.2542
1410.00,3.1894
1409.00,3.1185
1408.00,3.0505
1407.00,2.9932
1406.00,2.9527
1405.00,2.9280
1404.00,2.9108
1403.00,2.8943
1402.00,2.8794
1401.00,2.8729
1400.00,2.8795
1399.00,2.8948
1398.00,2.9097
1397.00,2.9244
1396.00,2.9458
1395.00,2.9735
1394.00,2.9992
1393.00,3.0178
1392.00,3.0328
1391.00,3.0490
1390.00,3.0672
1389.00,3.0887
1388.00,3.1172
1387.00,3.1508
1386.00,3.1830
1385.00,3.2118
1384.00,3.2395
1383.00,3.2652
1382.00,3.2827
1381.00,3.2931
1380.00,3.3048
1379.00,3.3231
1378.00,3.3459
1377.00,3.3727
1376.00,3.4081
1375.00,3.4521
1374.00,3.4892
1373.00,3.5057
1372.00,3.5119
1371.00,3.5266
1370.00,3.5544
1369.00,3.5805
1368.00,3.5904
1367.00,3.5876
1366.00,3.5831
1365.00,3.5805
1364.00,3.5788
1363.00,3.5804
1362.00,3.5892
1361.00,3.6041
1360.00,3.6178
1359.00,3.6196
1358.00,3.6031
1357.00,3.5738
1356.00,3.5474
1355.00,3.5395
1354.00,3.5560
1353.00,3.5922
1352.00,3.6398
1351.00,3.6946
1350.00,3.7646
1349.00,3.8612
1348.00,3.9825
1347.00,4.0925
1346.00,4.1052
1345.00,4.0267
1344.00,3.9469
1343.00,3.8898
1342.00,3.8630
1341.00,3.8818
1340.00,3.9498
1339.00,4.0316
1338.00,4.0403
1337.00,3.9487
1336.00,3.8334
1335.00,3.7480
1334.00,3.6986
1333.00,3.6767
1332.00,3.6719
1331.00,3.6702
1330.00,3.6614
1329.00,3.6368
1328.00,3.5902
1327.00,3.5330
1326.00,3.4856
1325.00,3.4584
1324.00,3.4531
1323.00,3.4678
1322.00,3.4961
1321.00,3.5301
1320.00,3.5711
1319.00,3.6312
1318.00,3.7250
1317.00,3.8613
1316.00,4.0315
1315.00,4.2029
1314.00,4.3392
1313.00,4.4569
1312.00,4.5956
1311.00,4.7283
1310.00,4.6986
1309.00,4.4081
1308.00,4.1525
1307.00,4.0152
1306.00,3.9604
1305.00,3.9382
1304.00,3.8976
1303.00,3.8203
1302.00,3.7367
1301.00,3.6734
1300.00,3.6262
1299.00,3.5784
1298.00,3.5221
1297.00,3.4624
1296.00,3.4070
1295.00,3.3580
1294.00,3.3106
1293.00,3.2578
1292.00,3.1987
1291.00,3.1398
1290.00,3.0879
1289.00,3.0438
1288.00,3.0038
1287.00,2.9660
1286.00,2.9322
1285.00,2.9045
1284.00,2.8840
1283.00,2.8722
1282.00,2.8716
1281.00,2.8834
1280.00,2.9053
1279.00,2.9331
1278.00,2.9644
1277.00,2.9993
1276.00,3.0383
1275.00,3.0816
1274.00,3.1311
1273.00,3.1887
1272.00,3.2513
1271.00,3.3104
1270.00,3.3599
1269.00,3.4019
1268.00,3.4410
1267.00,3.4763
1266.00,3.5021
1265.00,3.5140
1264.00,3.5126
1263.00,3.5028
1262.00,3.4917
1261.00,3.4852
1260.00,3.4874
1259.00,3.5005
1258.00,3.5246
1257.00,3.5587
1256.00,3.5986
1255.00,3.6358
1254.00,3.6635
1253.00,3.6799
1252.00,3.6898
1251.00,3.7095
1250.00,3.7609
1249.00,3.8516
1248.00,3.9545
1247.00,4.0180
1246.00,4.0099
1245.00,3.9351
1244.00,3.8388
1243.00,3.7662
1242.00,3.7406
1241.00,3.7655
1240.00,3.8241
1239.00,3.8929
1238.00,3.9696
1237.00,4.0568
1236.00,4.1149
1235.00,4.1006
1234.00,4.0591
1233.00,4.0614
1232.00,4.1272
1231.00,4.2172
1230.00,4.3069
1229.00,4.3926
1228.00,4.5512
1227.00,5.0583
1226.00,4.8772
1225.00,4.5906
1224.00,4.6585
1223.00,4.9145
1222.00,5.1022
1221.00,5.1503
1220.00,5.0131
1219.00,4.4853
1218.00,4.1735
1217.00,4.0205
1216.00,3.9770
1215.00,4.0044
1214.00,4.0551
1213.00,4.0755
1212.00,4.0362
1211.00,3.9539
1210.00,3.8728
1209.00,3.8260
1208.00,3.8206
1207.00,3.8443
1206.00,3.8790
1205.00,3.9220
1204.00,3.9845
1203.00,4.0683
1202.00,4.1559
1201.00,4.2140
1200.00,4.2057
1199.00,4.1301
1198.00,4.0358
1197.00,3.9642
1196.00,3.9236
1195.00,3.9071
1194.00,3.9107
1193.00,3.9264
1192.00,3.9257
1191.00,3.8873
1190.00,3.8388
1189.00,3.8199
1188.00,3.8357
1187.00,3.8536
1186.00,3.8384
1185.00,3.7960
1184.00,3.7546
1183.00,3.7343
1182.00,3.7483
1181.00,3.8078
1180.00,3.9055
1179.00,3.9811
1178.00,3.9590
1177.00,3.8812
1176.00,3.8217
1175.00,3.7865
1174.00,3.7475
1173.00,3.6917
1172.00,3.6399
1171.00,3.6136
1170.00,3.6119
1169.00,3.6167
1168.00,3.6099
1167.00,3.5892
1166.00,3.5674
1165.00,3.5568
1164.00,3.5521
1163.00,3.5367
1162.00,3.5109
1161.00,3.4929
1160.00,3.4877
1159.00,3.4786
1158.00,3.4520
1157.00,3.4190
1156.00,3.4001
1155.00,3.3999
1154.00,3.4035
1153.00,3.3958
1152.00,3.3777
1151.00,3.3575
1150.00,3.3439
1149.00,3.3439
1148.00,3.3615
1147.00,3.3943
1146.00,3.4319
1145.00,3.4668
1144.00,3.4999
1143.00,3.5330
1142.00,3.5606
1141.00,3.5726
1140.00,3.5682
1139.00,3.5621
1138.00,3.5728
1137.00,3.6169
1136.00,3.6994
1135.00,3.7952
1134.00,3.8610
1133.00,3.8945
1132.00,3.9355
1131.00,3.9974
1130.00,4.0551
1129.00,4.1128
1128.00,4.1757
1127.00,4.1818
1126.00,4.1827
1125.00,4.3613
1124.00,4.7044
1123.00,4.2994
1122.00,4.2301
1121.00,4.4011
1120.00,4.5795
1119.00,4.3863
1118.00,4.2479
1117.00,4.1358
1116.00,4.0431
1115.00,3.9748
1114.00,3.9026
1113.00,3.8305
1112.00,3.7897
1111.00,3.7814
1110.00,3.7669
1109.00,3.7226
1108.00,3.6727
1107.00,3.6499
1106.00,3.6736
1105.00,3.7550
1104.00,3.9008
1103.00,4.0917
1102.00,4.1687
1101.00,4.0303
1100.00,3.8982
1099.00,3.8533
1098.00,3.9047
1097.00,4.0480
1096.00,4.2565
1095.00,4.4109
1094.00,4.3736
1093.00,4.2968
1092.00,4.2563
1091.00,4.2444
1090.00,4.3107
1089.00,4.4979
1088.00,4.4667
1087.00,4.2089
1086.00,4.0392
1085.00,3.9361
1084.00,3.8903
1083.00,3.9060
1082.00,3.9820
1081.00,4.1063
1080.00,4.2956
1079.00,4.5616
1078.00,4.3435
1077.00,4.1265
1076.00,4.0721
1075.00,4.0752
1074.00,4.0197
1073.00,3.9591
1072.00,3.9801
1071.00,4.0849
1070.00,4.1549
1069.00,4.0992
1068.00,4.1274
1067.00,4.3396
1066.00,4.3242
1065.00,4.1488
1064.00,4.0979
1063.00,4.0961
1062.00,4.1162
1061.00,4.1834
1060.00,4.2719
1059.00,4.2977
1058.00,4.3393
1057.00,4.5190
1056.00,4.9668
1055.00,5.8623
1054.00,5.1364
1053.00,5.1323
1052.00,4.7009
1051.00,4.3155
1050.00,4.1273
1049.00,4.0552
1048.00,4.0771
1047.00,4.2287
1046.00,4.4705
1045.00,4.1787
1044.00,3.9468
1043.00,3.8607
1042.00,3.8758
1041.00,3.9342
1040.00,3.9261
1039.00,3.8564
1038.00,3.8142
1037.00,3.8042
1036.00,3.7884
1035.00,3.7465
1034.00,3.7008
1033.00,3.6770
1032.00,3.6739
1031.00,3.6684
1030.00,3.6440
1029.00,3.6091
1028.00,3.5813
1027.00,3.5675
1026.00,3.5637
1025.00,3.5673
1024.00,3.5837
1023.00,3.6215
1022.00,3.6843
1021.00,3.7705
1020.00,3.8707
1019.00,3.9645
1018.00,4.0341
1017.00,4.1346
1016.00,4.1785
1015.00,3.8848
1014.00,3.6669
1013.00,3.5558
1012.00,3.5123
1011.00,3.5109
1010.00,3.5295
1009.00,3.5464
1008.00,3.5518
1007.00,3.5584
1006.00,3.5912
1005.00,3.6718
1004.00,3.8105
1003.00,3.9980
1002.00,4.1893
1001.00,4.2870
1000.00,4.1850
999.00,4.0281
998.00,3.9240
997.00,3.8856
996.00,3.9120
995.00,3.9938
994.00,4.1141
993.00,4.2342
992.00,4.2593
991.00,4.1881
990.00,4.2099
989.00,4.3567
988.00,4.3622
987.00,4.2708
986.00,4.1479
985.00,4.0218
984.00,3.9543
983.00,3.9482
982.00,4.0069
981.00,4.1067
980.00,4.1595
979.00,4.1686
978.00,4.2101
977.00,4.3163
976.00,4.5032
975.00,4.5845
974.00,4.5299
973.00,4.5631
972.00,4.5351
971.00,4.5364
970.00,4.7645
969.00,4.8427
968.00,4.5476
967.00,4.4000
966.00,4.4071
965.00,4.4886
964.00,4.4115
963.00,4.3262
962.00,4.3043
961.00,4.2975
960.00,4.3085
959.00,4.3887
958.00,4.4487
957.00,4.2383
956.00,4.0618
955.00,4.0071
954.00,4.0725
953.00,4.2446
952.00,4.3524
951.00,4.3512
950.00,4.4773
949.00,4.7271
948.00,4.8028
947.00,4.8254
946.00,4.8832
945.00,4.7997
944.00,4.5991
943.00,4.4201
942.00,4.3435
941.00,4.4080
940.00,4.6335
939.00,4.7823
938.00,4.5753
937.00,4.3983
936.00,4.2438
935.00,4.1141
934.00,4.0761
933.00,4.1688
932.00,4.4220
931.00,4.8495
930.00,5.2898
929.00,5.1832
928.00,4.5463
927.00,4.2662
926.00,4.1418
925.00,4.1153
924.00,4.1405
923.00,4.1774
922.00,4.2666
921.00,4.5383
920.00,4.7088
919.00,4.4168
918.00,4.5362
917.00,4.8861
916.00,4.4221
915.00,4.3416
914.00,4.5332
913.00,4.8678
912.00,4.8340
911.00,4.7415
910.00,4.3391
909.00,4.0365
908.00,3.8579
907.00,3.7645
906.00,3.7392
905.00,3.7714
904.00,3.8525
903.00,3.9587
902.00,4.0346
901.00,4.0554
900.00,4.0835
899.00,4.1466
898.00,4.1849
897.00,4.1411
896.00,4.0688
895.00,4.0458
894.00,4.0961
893.00,4.1805
892.00,4.1881
891.00,4.1363
890.00,4.1420
889.00,4.2836
888.00,4.7008
887.00,4.5210
886.00,4.1578
885.00,4.0331
884.00,4.0944
883.00,4.3385
882.00,4.1355
881.00,3.9036
880.00,3.8553
879.00,3.9115
878.00,3.9786
877.00,4.0216
876.00,4.0881
875.00,4.1302
874.00,4.0746
873.00,3.9618
872.00,3.8993
871.00,3.9358
870.00,4.0450
869.00,4.1476
868.00,4.2086
867.00,4.2709
866.00,4.3569
865.00,4.2820
864.00,4.0463
863.00,3.8735
862.00,3.7842
861.00,3.7686
860.00,3.8162
859.00,3.9142
858.00,4.0475
857.00,4.2731
856.00,4.6281
855.00,4.4421
854.00,4.3586
853.00,4.6583
852.00,4.8991
851.00,4.3866
850.00,4.3332
849.00,4.5190
848.00,4.3969
847.00,4.2230
846.00,4.3740
845.00,4.6309
844.00,4.3079
843.00,4.1629
842.00,4.0980
841.00,4.0793
840.00,4.1311
839.00,4.2652
838.00,4.2656
837.00,4.1154
836.00,4.0548
835.00,4.0302
834.00,4.0103
833.00,4.0611
832.00,4.3843
831.00,4.4880
830.00,3.9778
829.00,3.8950
828.00,4.0711
827.00,4.6017
826.00,4.4694
825.00,4.3300
824.00,4.5904
823.00,4.5011
822.00,4.1012
821.00,3.8984
820.00,3.8055
819.00,3.8066
818.00,3.9178
817.00,4.2235
816.00,4.6061
815.00,4.2641
814.00,4.2154
813.00,4.4702
812.00,4.7323
811.00,4.2551
810.00,4.0664
809.00,4.0682
808.00,4.1242
807.00,4.1884
806.00,4.3522
805.00,4.2904
804.00,4.0282
803.00,3.9542
802.00,4.0326
801.00,4.2407
800.00,4.3625
799.00,4.1499
798.00,4.0125
797.00,3.9808
796.00,3.9590
795.00,3.9224
794.00,3.8995
793.00,3.8868
792.00,3.9136
791.00,3.9953
790.00,4.0525
789.00,4.0663
788.00,4.1127
787.00,4.3128
786.00,4.8030
785.00,4.7518
784.00,4.4007
783.00,4.1823
782.00,4.0693
781.00,4.0427
780.00,4.0670
779.00,4.0760
778.00,4.0337
777.00,4.0333
776.00,4.1546
775.00,4.5530
774.00,4.7242
773.00,4.2079
772.00,4.0427
771.00,4.0320
770.00,4.0630
769.00,4.0590
768.00,4.0276
767.00,4.0333
766.00,4.1068
765.00,4.1966
764.00,4.0873
763.00,3.8934
762.00,3.7463
761.00,3.6544
760.00,3.6293
759.00,3.6828
758.00,3.8075
757.00,3.9791
756.00,4.1404
755.00,4.1012
754.00,4.0065
753.00,4.0623
752.00,4.2751
751.00,4.5464
750.00,4.6174
749.00,4.4556
748.00,4.2193
747.00,4.0653
746.00,4.0279
745.00,4.1501
744.00,4.5964
743.00,4.7563
742.00,4.3199
741.00,4.2055
740.00,4.1456
739.00,4.0902
738.00,3.9970
737.00,4.0812
736.00,4.6343
735.00,4.2263
734.00,3.9429
733.00,3.9136
732.00,3.9825
731.00,4.1133
730.00,4.1077
729.00,3.9639
728.00,3.8478
727.00,3.8103
726.00,3.8339
725.00,3.8861
724.00,3.9685
723.00,4.1187
722.00,4.4688
721.00,5.1210
720.00,4.6816
719.00,4.4018
718.00,4.2010
717.00,4.0883
716.00,4.0369
715.00,3.9631
714.00,3.9032
713.00,3.9118
712.00,4.0347
711.00,4.4051
710.00,4.6108
709.00,4.1811
708.00,4.0691
707.00,4.1288
706.00,4.3178
705.00,4.7258
704.00,5.2007
703.00,4.9438
702.00,4.6642
701.00,4.4249
700.00,4.1710
