Created as New Dataset,Sample 079 By Administrator Date Wednesday, November 24 2021
cm-1,A
7502.00,0.8705
7501.00,0.8788
7500.00,0.8873
7499.00,0.8959
7498.00,0.9048
7497.00,0.9137
7496.00,0.9229
7495.00,0.9323
7494.00,0.9419
7493.00,0.9514
7492.00,0.9610
7491.00,0.9709
7490.00,0.9814
7489.00,0.9920
7488.00,1.0023
7487.00,1.0123
7486.00,1.0224
7485.00,1.0325
7484.00,1.0418
7483.00,1.0497
7482.00,1.0568
7481.00,1.0640
7480.00,1.0720
7479.00,1.0800
7478.00,1.0873
7477.00,1.0943
7476.00,1.1015
7475.00,1.1092
7474.00,1.1167
7473.00,1.1237
7472.00,1.1305
7471.00,1.1374
7470.00,1.1441
7469.00,1.1500
7468.00,1.1549
7467.00,1.1592
7466.00,1.1632
7465.00,1.1667
7464.00,1.1694
7463.00,1.1711
7462.00,1.1723
7461.00,1.1736
7460.00,1.1754
7459.00,1.1776
7458.00,1.1796
7457.00,1.1811
7456.00,1.1822
7455.00,1.1828
7454.00,1.1829
7453.00,1.1829
7452.00,1.1827
7451.00,1.1821
7450.00,1.1808
7449.00,1.1789
7448.00,1.1764
7447.00,1.1737
7446.00,1.1706
7445.00,1.1672
7444.00,1.1635
7443.00,1.1597
7442.00,1.1553
7441.00,1.1500
7440.00,1.1441
7439.00,1.1381
7438.00,1.1319
7437.00,1.1252
7436.00,1.1177
7435.00,1.1099
7434.00,1.1020
7433.00,1.0939
7432.00,1.0855
7431.00,1.0765
7430.00,1.0670
7429.00,1.0574
7428.00,1.0481
7427.00,1.0391
7426.00,1.0302
7425.00,1.0213
7424.00,1.0122
7423.00,1.0027
7422.00,0.9928
7421.00,0.9824
7420.00,0.9716
7419.00,0.9606
7418.00,0.9497
7417.00,0.9389
7416.00,0.9282
7415.00,0.9176
7414.00,0.9069
7413.00,0.8961
7412.00,0.8858
7411.00,0.8761
7410.00,0.8669
7409.00,0.8578
7408.00,0.8490
7407.00,0.8407
7406.00,0.8331
7405.00,0.8260
7404.00,0.8190
7403.00,0.8123
7402.00,0.8058
7401.00,0.7996
7400.00,0.7938
7399.00,0.7884
7398.00,0.7838
7397.00,0.7800
7396.00,0.7770
7395.00,0.7747
7394.00,0.7732
7393.00,0.7725
7392.00,0.7724
7391.00,0.7728
7390.00,0.7737
7389.00,0.7752
7388.00,0.7773
7387.00,0.7798
7386.00,0.7828
7385.00,0.7863
7384.00,0.7905
7383.00,0.7953
7382.00,0.8007
7381.00,0.8066
7380.00,0.8132
7379.00,0.8203
7378.00,0.8278
7377.00,0.8353
7376.00,0.8431
7375.00,0.8511
7374.00,0.8590
7373.00,0.8668
7372.00,0.8746
7371.00,0.8828
7370.00,0.8915
7369.00,0.9006
7368.00,0.9098
7367.00,0.9190
7366.00,0.9281
7365.00,0.9370
7364.00,0.9460
7363.00,0.9552
7362.00,0.9645
7361.00,0.9737
7360.00,0.9826
7359.00,0.9913
7358.00,1.0001
7357.00,1.0088
7356.00,1.0173
7355.00,1.0254
7354.00,1.0330
7353.00,1.0405
7352.00,1.0483
7351.00,1.0564
7350.00,1.0640
7349.00,1.0704
7348.00,1.0755
7347.00,1.0800
7346.00,1.0843
7345.00,1.0885
7344.00,1.0926
7343.00,1.0971
7342.00,1.1023
7341.00,1.1076
7340.00,1.1121
7339.00,1.1154
7338.00,1.1176
7337.00,1.1186
7336.00,1.1188
7335.00,1.1189
7334.00,1.1190
7333.00,1.1188
7332.00,1.1178
7331.00,1.1162
7330.00,1.1144
7329.00,1.1126
7328.00,1.1109
7327.00,1.1094
7326.00,1.1086
7325.00,1.1086
7324.00,1.1089
7323.00,1.1087
7322.00,1.1080
7321.00,1.1069
7320.00,1.1055
7319.00,1.1036
7318.00,1.1014
7317.00,1.0992
7316.00,1.0975
7315.00,1.0964
7314.00,1.0954
7313.00,1.0939
7312.00,1.0912
7311.00,1.0876
7310.00,1.0835
7309.00,1.0789
7308.00,1.0737
7307.00,1.0679
7306.00,1.0620
7305.00,1.0567
7304.00,1.0517
7303.00,1.0468
7302.00,1.0421
7301.00,1.0376
7300.00,1.0330
7299.00,1.0273
7298.00,1.0200
7297.00,1.0113
7296.00,1.0020
7295.00,0.9926
7294.00,0.9829
7293.00,0.9726
7292.00,0.9619
7291.00,0.9512
7290.00,0.9410
7289.00,0.9310
7288.00,0.9212
7287.00,0.9115
7286.00,0.9017
7285.00,0.8921
7284.00,0.8827
7283.00,0.8736
7282.00,0.8650
7281.00,0.8567
7280.00,0.8486
7279.00,0.8404
7278.00,0.8323
7277.00,0.8246
7276.00,0.8174
7275.00,0.8107
7274.00,0.8042
7273.00,0.7979
7272.00,0.7922
7271.00,0.7872
7270.00,0.7828
7269.00,0.7790
7268.00,0.7755
7267.00,0.7726
7266.00,0.7704
7265.00,0.7687
7264.00,0.7674
7263.00,0.7665
7262.00,0.7663
7261.00,0.7670
7260.00,0.7685
7259.00,0.7706
7258.00,0.7733
7257.00,0.7766
7256.00,0.7807
7255.00,0.7852
7254.00,0.7900
7253.00,0.7953
7252.00,0.8011
7251.00,0.8076
7250.00,0.8148
7249.00,0.8224
7248.00,0.8303
7247.00,0.8385
7246.00,0.8467
7245.00,0.8552
7244.00,0.8643
7243.00,0.8741
7242.00,0.8843
7241.00,0.8947
7240.00,0.9050
7239.00,0.9154
7238.00,0.9258
7237.00,0.9359
7236.00,0.9455
7235.00,0.9546
7234.00,0.9638
7233.00,0.9733
7232.00,0.9834
7231.00,0.9936
7230.00,1.0037
7229.00,1.0136
7228.00,1.0238
7227.00,1.0343
7226.00,1.0447
7225.00,1.0543
7224.00,1.0634
7223.00,1.0723
7222.00,1.0808
7221.00,1.0886
7220.00,1.0958
7219.00,1.1029
7218.00,1.1101
7217.00,1.1172
7216.00,1.1239
7215.00,1.1300
7214.00,1.1359
7213.00,1.1415
7212.00,1.1470
7211.00,1.1524
7210.00,1.1577
7209.00,1.1630
7208.00,1.1681
7207.00,1.1729
7206.00,1.1778
7205.00,1.1825
7204.00,1.1865
7203.00,1.1894
7202.00,1.1914
7201.00,1.1934
7200.00,1.1959
7199.00,1.1985
7198.00,1.2000
7197.00,1.2003
7196.00,1.2001
7195.00,1.2005
7194.00,1.2009
7193.00,1.2003
7192.00,1.1980
7191.00,1.1947
7190.00,1.1915
7189.00,1.1884
7188.00,1.1854
7187.00,1.1822
7186.00,1.1789
7185.00,1.1752
7184.00,1.1710
7183.00,1.1666
7182.00,1.1622
7181.00,1.1573
7180.00,1.1512
7179.00,1.1438
7178.00,1.1359
7177.00,1.1283
7176.00,1.1210
7175.00,1.1135
7174.00,1.1054
7173.00,1.0967
7172.00,1.0876
7171.00,1.0782
7170.00,1.0688
7169.00,1.0594
7168.00,1.0497
7167.00,1.0394
7166.00,1.0288
7165.00,1.0184
7164.00,1.0083
7163.00,0.9979
7162.00,0.9869
7161.00,0.9756
7160.00,0.9648
7159.00,0.9548
7158.00,0.9449
7157.00,0.9345
7156.00,0.9237
7155.00,0.9128
7154.00,0.9024
7153.00,0.8923
7152.00,0.8819
7151.00,0.8715
7150.00,0.8615
7149.00,0.8524
7148.00,0.8440
7147.00,0.8357
7146.00,0.8276
7145.00,0.8197
7144.00,0.8123
7143.00,0.8054
7142.00,0.7989
7141.00,0.7930
7140.00,0.7878
7139.00,0.7836
7138.00,0.7802
7137.00,0.7774
7136.00,0.7752
7135.00,0.7736
7134.00,0.7726
7133.00,0.7721
7132.00,0.7722
7131.00,0.7728
7130.00,0.7739
7129.00,0.7758
7128.00,0.7785
7127.00,0.7818
7126.00,0.7857
7125.00,0.7903
7124.00,0.7955
7123.00,0.8015
7122.00,0.8079
7121.00,0.8146
7120.00,0.8215
7119.00,0.8289
7118.00,0.8369
7117.00,0.8453
7116.00,0.8541
7115.00,0.8632
7114.00,0.8726
7113.00,0.8824
7112.00,0.8921
7111.00,0.9015
7110.00,0.9109
7109.00,0.9204
7108.00,0.9302
7107.00,0.9403
7106.00,0.9506
7105.00,0.9610
7104.00,0.9714
7103.00,0.9817
7102.00,0.9915
7101.00,1.0010
7100.00,1.0103
7099.00,1.0198
7098.00,1.0295
7097.00,1.0392
7096.00,1.0485
7095.00,1.0574
7094.00,1.0660
7093.00,1.0744
7092.00,1.0826
7091.00,1.0905
7090.00,1.0979
7089.00,1.1049
7088.00,1.1116
7087.00,1.1183
7086.00,1.1249
7085.00,1.1312
7084.00,1.1374
7083.00,1.1437
7082.00,1.1497
7081.00,1.1550
7080.00,1.1594
7079.00,1.1634
7078.00,1.1670
7077.00,1.1698
7076.00,1.1718
7075.00,1.1738
7074.00,1.1767
7073.00,1.1801
7072.00,1.1831
7071.00,1.1850
7070.00,1.1861
7069.00,1.1869
7068.00,1.1875
7067.00,1.1878
7066.00,1.1878
7065.00,1.1876
7064.00,1.1870
7063.00,1.1861
7062.00,1.1845
7061.00,1.1821
7060.00,1.1792
7059.00,1.1758
7058.00,1.1723
7057.00,1.1686
7056.00,1.1649
7055.00,1.1610
7054.00,1.1569
7053.00,1.1522
7052.00,1.1466
7051.00,1.1405
7050.00,1.1342
7049.00,1.1279
7048.00,1.1214
7047.00,1.1146
7046.00,1.1074
7045.00,1.0997
7044.00,1.0912
7043.00,1.0822
7042.00,1.0732
7041.00,1.0640
7040.00,1.0545
7039.00,1.0447
7038.00,1.0349
7037.00,1.0251
7036.00,1.0153
7035.00,1.0053
7034.00,0.9951
7033.00,0.9848
7032.00,0.9743
7031.00,0.9635
7030.00,0.9526
7029.00,0.9416
7028.00,0.9307
7027.00,0.9199
7026.00,0.9094
7025.00,0.8992
7024.00,0.8893
7023.00,0.8796
7022.00,0.8701
7021.00,0.8607
7020.00,0.8515
7019.00,0.8423
7018.00,0.8335
7017.00,0.8252
7016.00,0.8174
7015.00,0.8101
7014.00,0.8032
7013.00,0.7967
7012.00,0.7907
7011.00,0.7852
7010.00,0.7802
7009.00,0.7760
7008.00,0.7724
7007.00,0.7696
7006.00,0.7676
7005.00,0.7664
7004.00,0.7661
7003.00,0.7664
7002.00,0.7673
7001.00,0.7686
7000.00,0.7703
6999.00,0.7726
6998.00,0.7756
6997.00,0.7794
6996.00,0.7838
6995.00,0.7886
6994.00,0.7941
6993.00,0.8004
6992.00,0.8072
6991.00,0.8145
6990.00,0.8221
6989.00,0.8302
6988.00,0.8390
6987.00,0.8483
6986.00,0.8579
6985.00,0.8675
6984.00,0.8773
6983.00,0.8873
6982.00,0.8976
6981.00,0.9078
6980.00,0.9179
6979.00,0.9282
6978.00,0.9388
6977.00,0.9496
6976.00,0.9602
6975.00,0.9704
6974.00,0.9805
6973.00,0.9906
6972.00,1.0005
6971.00,1.0103
6970.00,1.0203
6969.00,1.0304
6968.00,1.0405
6967.00,1.0502
6966.00,1.0598
6965.00,1.0694
6964.00,1.0788
6963.00,1.0878
6962.00,1.0963
6961.00,1.1050
6960.00,1.1139
6959.00,1.1227
6958.00,1.1307
6957.00,1.1380
6956.00,1.1448
6955.00,1.1515
6954.00,1.1579
6953.00,1.1636
6952.00,1.1688
6951.00,1.1740
6950.00,1.1791
6949.00,1.1841
6948.00,1.1887
6947.00,1.1930
6946.00,1.1972
6945.00,1.2011
6944.00,1.2048
6943.00,1.2079
6942.00,1.2102
6941.00,1.2115
6940.00,1.2122
6939.00,1.2127
6938.00,1.2130
6937.00,1.2127
6936.00,1.2118
6935.00,1.2111
6934.00,1.2111
6933.00,1.2112
6932.00,1.2104
6931.00,1.2087
6930.00,1.2064
6929.00,1.2040
6928.00,1.2008
6927.00,1.1964
6926.00,1.1912
6925.00,1.1857
6924.00,1.1805
6923.00,1.1755
6922.00,1.1699
6921.00,1.1637
6920.00,1.1571
6919.00,1.1502
6918.00,1.1431
6917.00,1.1355
6916.00,1.1273
6915.00,1.1189
6914.00,1.1107
6913.00,1.1023
6912.00,1.0935
6911.00,1.0843
6910.00,1.0747
6909.00,1.0646
6908.00,1.0538
6907.00,1.0426
6906.00,1.0314
6905.00,1.0204
6904.00,1.0092
6903.00,0.9977
6902.00,0.9858
6901.00,0.9738
6900.00,0.9619
6899.00,0.9502
6898.00,0.9388
6897.00,0.9276
6896.00,0.9168
6895.00,0.9061
6894.00,0.8957
6893.00,0.8855
6892.00,0.8754
6891.00,0.8652
6890.00,0.8551
6889.00,0.8456
6888.00,0.8366
6887.00,0.8281
6886.00,0.8198
6885.00,0.8119
6884.00,0.8045
6883.00,0.7977
6882.00,0.7916
6881.00,0.7861
6880.00,0.7812
6879.00,0.7770
6878.00,0.7736
6877.00,0.7710
6876.00,0.7693
6875.00,0.7681
6874.00,0.7676
6873.00,0.7676
6872.00,0.7683
6871.00,0.7696
6870.00,0.7716
6869.00,0.7745
6868.00,0.7781
6867.00,0.7826
6866.00,0.7878
6865.00,0.7937
6864.00,0.8001
6863.00,0.8069
6862.00,0.8141
6861.00,0.8217
6860.00,0.8297
6859.00,0.8382
6858.00,0.8472
6857.00,0.8564
6856.00,0.8657
6855.00,0.8750
6854.00,0.8845
6853.00,0.8944
6852.00,0.9047
6851.00,0.9150
6850.00,0.9255
6849.00,0.9362
6848.00,0.9472
6847.00,0.9582
6846.00,0.9691
6845.00,0.9799
6844.00,0.9906
6843.00,1.0012
6842.00,1.0117
6841.00,1.0220
6840.00,1.0321
6839.00,1.0420
6838.00,1.0515
6837.00,1.0606
6836.00,1.0695
6835.00,1.0785
6834.00,1.0877
6833.00,1.0969
6832.00,1.1059
6831.00,1.1147
6830.00,1.1231
6829.00,1.1312
6828.00,1.1388
6827.00,1.1459
6826.00,1.1524
6825.00,1.1586
6824.00,1.1646
6823.00,1.1703
6822.00,1.1754
6821.00,1.1797
6820.00,1.1837
6819.00,1.1877
6818.00,1.1920
6817.00,1.1960
6816.00,1.1994
6815.00,1.2024
6814.00,1.2052
6813.00,1.2075
6812.00,1.2091
6811.00,1.2100
6810.00,1.2107
6809.00,1.2114
6808.00,1.2118
6807.00,1.2115
6806.00,1.2107
6805.00,1.2097
6804.00,1.2083
6803.00,1.2065
6802.00,1.2042
6801.00,1.2017
6800.00,1.1989
6799.00,1.1954
6798.00,1.1911
6797.00,1.1862
6796.00,1.1813
6795.00,1.1765
6794.00,1.1716
6793.00,1.1660
6792.00,1.1596
6791.00,1.1529
6790.00,1.1460
6789.00,1.1388
6788.00,1.1311
6787.00,1.1230
6786.00,1.1147
6785.00,1.1064
6784.00,1.0979
6783.00,1.0891
6782.00,1.0799
6781.00,1.0698
6780.00,1.0592
6779.00,1.0484
6778.00,1.0374
6777.00,1.0260
6776.00,1.0143
6775.00,1.0026
6774.00,0.9913
6773.00,0.9803
6772.00,0.9694
6771.00,0.9584
6770.00,0.9474
6769.00,0.9362
6768.00,0.9248
6767.00,0.9134
6766.00,0.9021
6765.00,0.8911
6764.00,0.8803
6763.00,0.8696
6762.00,0.8593
6761.00,0.8496
6760.00,0.8401
6759.00,0.8307
6758.00,0.8216
6757.00,0.8130
6756.00,0.8050
6755.00,0.7975
6754.00,0.7907
6753.00,0.7846
6752.00,0.7792
6751.00,0.7742
6750.00,0.7698
6749.00,0.7662
6748.00,0.7634
6747.00,0.7611
6746.00,0.7595
6745.00,0.7586
6744.00,0.7585
6743.00,0.7593
6742.00,0.7607
6741.00,0.7629
6740.00,0.7657
6739.00,0.7693
6738.00,0.7735
6737.00,0.7785
6736.00,0.7841
6735.00,0.7902
6734.00,0.7967
6733.00,0.8038
6732.00,0.8114
6731.00,0.8196
6730.00,0.8282
6729.00,0.8372
6728.00,0.8464
6727.00,0.8560
6726.00,0.8660
6725.00,0.8762
6724.00,0.8865
6723.00,0.8971
6722.00,0.9079
6721.00,0.9187
6720.00,0.9295
6719.00,0.9403
6718.00,0.9513
6717.00,0.9624
6716.00,0.9735
6715.00,0.9844
6714.00,0.9952
6713.00,1.0059
6712.00,1.0165
6711.00,1.0270
6710.00,1.0376
6709.00,1.0482
6708.00,1.0585
6707.00,1.0686
6706.00,1.0786
6705.00,1.0885
6704.00,1.0981
6703.00,1.1073
6702.00,1.1165
6701.00,1.1257
6700.00,1.1345
6699.00,1.1429
6698.00,1.1508
6697.00,1.1584
6696.00,1.1658
6695.00,1.1728
6694.00,1.1793
6693.00,1.1855
6692.00,1.1911
6691.00,1.1962
6690.00,1.2008
6689.00,1.2050
6688.00,1.2085
6687.00,1.2115
6686.00,1.2145
6685.00,1.2176
6684.00,1.2208
6683.00,1.2236
6682.00,1.2260
6681.00,1.2281
6680.00,1.2299
6679.00,1.2311
6678.00,1.2314
6677.00,1.2310
6676.00,1.2301
6675.00,1.2291
6674.00,1.2282
6673.00,1.2271
6672.00,1.2255
6671.00,1.2231
6670.00,1.2198
6669.00,1.2159
6668.00,1.2114
6667.00,1.2064
6666.00,1.2009
6665.00,1.1951
6664.00,1.1892
6663.00,1.1832
6662.00,1.1771
6661.00,1.1704
6660.00,1.1632
6659.00,1.1558
6658.00,1.1481
6657.00,1.1400
6656.00,1.1315
6655.00,1.1227
6654.00,1.1138
6653.00,1.1050
6652.00,1.0959
6651.00,1.0861
6650.00,1.0758
6649.00,1.0651
6648.00,1.0540
6647.00,1.0424
6646.00,1.0304
6645.00,1.0184
6644.00,1.0065
6643.00,0.9947
6642.00,0.9827
6641.00,0.9708
6640.00,0.9590
6639.00,0.9470
6638.00,0.9348
6637.00,0.9224
6636.00,0.9102
6635.00,0.8983
6634.00,0.8869
6633.00,0.8758
6632.00,0.8651
6631.00,0.8548
6630.00,0.8452
6629.00,0.8359
6628.00,0.8268
6627.00,0.8180
6626.00,0.8098
6625.00,0.8021
6624.00,0.7948
6623.00,0.7880
6622.00,0.7819
6621.00,0.7767
6620.00,0.7725
6619.00,0.7693
6618.00,0.7668
6617.00,0.7651
6616.00,0.7640
6615.00,0.7634
6614.00,0.7635
6613.00,0.7641
6612.00,0.7653
6611.00,0.7674
6610.00,0.7704
6609.00,0.7742
6608.00,0.7787
6607.00,0.7840
6606.00,0.7899
6605.00,0.7963
6604.00,0.8033
6603.00,0.8108
6602.00,0.8190
6601.00,0.8277
6600.00,0.8367
6599.00,0.8460
6598.00,0.8558
6597.00,0.8661
6596.00,0.8766
6595.00,0.8870
6594.00,0.8974
6593.00,0.9080
6592.00,0.9188
6591.00,0.9297
6590.00,0.9407
6589.00,0.9520
6588.00,0.9634
6587.00,0.9749
6586.00,0.9863
6585.00,0.9974
6584.00,1.0084
6583.00,1.0191
6582.00,1.0295
6581.00,1.0396
6580.00,1.0494
6579.00,1.0593
6578.00,1.0693
6577.00,1.0795
6576.00,1.0895
6575.00,1.0993
6574.00,1.1086
6573.00,1.1176
6572.00,1.1262
6571.00,1.1343
6570.00,1.1419
6569.00,1.1491
6568.00,1.1561
6567.00,1.1629
6566.00,1.1691
6565.00,1.1746
6564.00,1.1795
6563.00,1.1845
6562.00,1.1898
6561.00,1.1951
6560.00,1.2002
6559.00,1.2048
6558.00,1.2091
6557.00,1.2128
6556.00,1.2156
6555.00,1.2175
6554.00,1.2190
6553.00,1.2204
6552.00,1.2216
6551.00,1.2222
6550.00,1.2225
6549.00,1.2223
6548.00,1.2215
6547.00,1.2200
6546.00,1.2182
6545.00,1.2165
6544.00,1.2147
6543.00,1.2126
6542.00,1.2100
6541.00,1.2071
6540.00,1.2040
6539.00,1.2005
6538.00,1.1967
6537.00,1.1925
6536.00,1.1878
6535.00,1.1827
6534.00,1.1771
6533.00,1.1710
6532.00,1.1644
6531.00,1.1573
6530.00,1.1498
6529.00,1.1418
6528.00,1.1334
6527.00,1.1249
6526.00,1.1165
6525.00,1.1079
6524.00,1.0990
6523.00,1.0896
6522.00,1.0798
6521.00,1.0698
6520.00,1.0595
6519.00,1.0488
6518.00,1.0379
6517.00,1.0269
6516.00,1.0157
6515.00,1.0045
6514.00,0.9931
6513.00,0.9816
6512.00,0.9700
6511.00,0.9582
6510.00,0.9464
6509.00,0.9346
6508.00,0.9227
6507.00,0.9106
6506.00,0.8987
6505.00,0.8870
6504.00,0.8755
6503.00,0.8645
6502.00,0.8540
6501.00,0.8441
6500.00,0.8345
6499.00,0.8251
6498.00,0.8161
6497.00,0.8076
6496.00,0.7997
6495.00,0.7923
6494.00,0.7854
6493.00,0.7792
6492.00,0.7736
6491.00,0.7688
6490.00,0.7648
6489.00,0.7615
6488.00,0.7590
6487.00,0.7574
6486.00,0.7566
6485.00,0.7565
6484.00,0.7572
6483.00,0.7584
6482.00,0.7604
6481.00,0.7631
6480.00,0.7667
6479.00,0.7712
6478.00,0.7764
6477.00,0.7823
6476.00,0.7889
6475.00,0.7960
6474.00,0.8038
6473.00,0.8121
6472.00,0.8210
6471.00,0.8303
6470.00,0.8400
6469.00,0.8499
6468.00,0.8601
6467.00,0.8705
6466.00,0.8813
6465.00,0.8924
6464.00,0.9037
6463.00,0.9152
6462.00,0.9269
6461.00,0.9388
6460.00,0.9508
6459.00,0.9628
6458.00,0.9748
6457.00,0.9868
6456.00,0.9987
6455.00,1.0103
6454.00,1.0215
6453.00,1.0325
6452.00,1.0433
6451.00,1.0543
6450.00,1.0655
6449.00,1.0765
6448.00,1.0873
6447.00,1.0977
6446.00,1.1079
6445.00,1.1176
6444.00,1.1269
6443.00,1.1361
6442.00,1.1453
6441.00,1.1544
6440.00,1.1631
6439.00,1.1713
6438.00,1.1791
6437.00,1.1863
6436.00,1.1927
6435.00,1.1985
6434.00,1.2040
6433.00,1.2095
6432.00,1.2152
6431.00,1.2208
6430.00,1.2264
6429.00,1.2317
6428.00,1.2362
6427.00,1.2399
6426.00,1.2431
6425.00,1.2459
6424.00,1.2479
6423.00,1.2495
6422.00,1.2510
6421.00,1.2526
6420.00,1.2538
6419.00,1.2543
6418.00,1.2544
6417.00,1.2542
6416.00,1.2535
6415.00,1.2521
6414.00,1.2500
6413.00,1.2474
6412.00,1.2443
6411.00,1.2407
6410.00,1.2365
6409.00,1.2323
6408.00,1.2281
6407.00,1.2238
6406.00,1.2192
6405.00,1.2141
6404.00,1.2084
6403.00,1.2021
6402.00,1.1951
6401.00,1.1874
6400.00,1.1792
6399.00,1.1708
6398.00,1.1623
6397.00,1.1537
6396.00,1.1447
6395.00,1.1352
6394.00,1.1250
6393.00,1.1143
6392.00,1.1033
6391.00,1.0920
6390.00,1.0808
6389.00,1.0693
6388.00,1.0574
6387.00,1.0452
6386.00,1.0329
6385.00,1.0205
6384.00,1.0079
6383.00,0.9951
6382.00,0.9823
6381.00,0.9696
6380.00,0.9569
6379.00,0.9440
6378.00,0.9311
6377.00,0.9184
6376.00,0.9060
6375.00,0.8938
6374.00,0.8818
6373.00,0.8701
6372.00,0.8588
6371.00,0.8479
6370.00,0.8374
6369.00,0.8275
6368.00,0.8180
6367.00,0.8092
6366.00,0.8010
6365.00,0.7935
6364.00,0.7867
6363.00,0.7804
6362.00,0.7749
6361.00,0.7703
6360.00,0.7665
6359.00,0.7634
6358.00,0.7610
6357.00,0.7595
6356.00,0.7587
6355.00,0.7588
6354.00,0.7596
6353.00,0.7611
6352.00,0.7633
6351.00,0.7663
6350.00,0.7703
6349.00,0.7752
6348.00,0.7809
6347.00,0.7873
6346.00,0.7944
6345.00,0.8021
6344.00,0.8103
6343.00,0.8188
6342.00,0.8277
6341.00,0.8372
6340.00,0.8472
6339.00,0.8575
6338.00,0.8681
6337.00,0.8791
6336.00,0.8903
6335.00,0.9016
6334.00,0.9131
6333.00,0.9247
6332.00,0.9363
6331.00,0.9479
6330.00,0.9597
6329.00,0.9716
6328.00,0.9837
6327.00,0.9957
6326.00,1.0077
6325.00,1.0198
6324.00,1.0316
6323.00,1.0429
6322.00,1.0537
6321.00,1.0645
6320.00,1.0752
6319.00,1.0856
6318.00,1.0956
6317.00,1.1053
6316.00,1.1148
6315.00,1.1241
6314.00,1.1331
6313.00,1.1420
6312.00,1.1508
6311.00,1.1594
6310.00,1.1675
6309.00,1.1750
6308.00,1.1819
6307.00,1.1884
6306.00,1.1944
6305.00,1.2001
6304.00,1.2053
6303.00,1.2102
6302.00,1.2147
6301.00,1.2189
6300.00,1.2230
6299.00,1.2269
6298.00,1.2304
6297.00,1.2337
6296.00,1.2365
6295.00,1.2387
6294.00,1.2403
6293.00,1.2415
6292.00,1.2425
6291.00,1.2433
6290.00,1.2436
6289.00,1.2433
6288.00,1.2420
6287.00,1.2401
6286.00,1.2378
6285.00,1.2354
6284.00,1.2328
6283.00,1.2301
6282.00,1.2271
6281.00,1.2240
6280.00,1.2208
6279.00,1.2170
6278.00,1.2127
6277.00,1.2079
6276.00,1.2030
6275.00,1.1978
6274.00,1.1919
6273.00,1.1852
6272.00,1.1780
6271.00,1.1703
6270.00,1.1622
6269.00,1.1538
6268.00,1.1452
6267.00,1.1364
6266.00,1.1275
6265.00,1.1183
6264.00,1.1088
6263.00,1.0991
6262.00,1.0891
6261.00,1.0787
6260.00,1.0678
6259.00,1.0565
6258.00,1.0449
6257.00,1.0329
6256.00,1.0206
6255.00,1.0081
6254.00,0.9955
6253.00,0.9829
6252.00,0.9701
6251.00,0.9572
6250.00,0.9445
6249.00,0.9321
6248.00,0.9196
6247.00,0.9072
6246.00,0.8950
6245.00,0.8830
6244.00,0.8713
6243.00,0.8598
6242.00,0.8486
6241.00,0.8378
6240.00,0.8275
6239.00,0.8177
6238.00,0.8084
6237.00,0.7996
6236.00,0.7916
6235.00,0.7843
6234.00,0.7777
6233.00,0.7718
6232.00,0.7667
6231.00,0.7622
6230.00,0.7586
6229.00,0.7557
6228.00,0.7538
6227.00,0.7527
6226.00,0.7526
6225.00,0.7533
6224.00,0.7550
6223.00,0.7573
6222.00,0.7605
6221.00,0.7644
6220.00,0.7691
6219.00,0.7746
6218.00,0.7809
6217.00,0.7880
6216.00,0.7957
6215.00,0.8040
6214.00,0.8128
6213.00,0.8221
6212.00,0.8317
6211.00,0.8419
6210.00,0.8525
6209.00,0.8636
6208.00,0.8750
6207.00,0.8866
6206.00,0.8985
6205.00,0.9106
6204.00,0.9229
6203.00,0.9352
6202.00,0.9476
6201.00,0.9601
6200.00,0.9726
6199.00,0.9850
6198.00,0.9975
6197.00,1.0099
6196.00,1.0221
6195.00,1.0342
6194.00,1.0461
6193.00,1.0578
6192.00,1.0695
6191.00,1.0810
6190.00,1.0925
6189.00,1.1040
6188.00,1.1152
6187.00,1.1261
6186.00,1.1364
6185.00,1.1462
6184.00,1.1553
6183.00,1.1641
6182.00,1.1725
6181.00,1.1810
6180.00,1.1894
6179.00,1.1977
6178.00,1.2059
6177.00,1.2138
6176.00,1.2213
6175.00,1.2283
6174.00,1.2345
6173.00,1.2400
6172.00,1.2448
6171.00,1.2493
6170.00,1.2536
6169.00,1.2574
6168.00,1.2609
6167.00,1.2641
6166.00,1.2672
6165.00,1.2699
6164.00,1.2721
6163.00,1.2738
6162.00,1.2753
6161.00,1.2763
6160.00,1.2766
6159.00,1.2760
6158.00,1.2750
6157.00,1.2738
6156.00,1.2725
6155.00,1.2708
6154.00,1.2686
6153.00,1.2656
6152.00,1.2621
6151.00,1.2581
6150.00,1.2539
6149.00,1.2496
6148.00,1.2448
6147.00,1.2397
6146.00,1.2342
6145.00,1.2281
6144.00,1.2213
6143.00,1.2139
6142.00,1.2059
6141.00,1.1975
6140.00,1.1888
6139.00,1.1798
6138.00,1.1706
6137.00,1.1610
6136.00,1.1511
6135.00,1.1409
6134.00,1.1305
6133.00,1.1199
6132.00,1.1086
6131.00,1.0967
6130.00,1.0843
6129.00,1.0716
6128.00,1.0586
6127.00,1.0453
6126.00,1.0319
6125.00,1.0186
6124.00,1.0054
6123.00,0.9922
6122.00,0.9788
6121.00,0.9653
6120.00,0.9516
6119.00,0.9378
6118.00,0.9240
6117.00,0.9105
6116.00,0.8973
6115.00,0.8845
6114.00,0.8720
6113.00,0.8598
6112.00,0.8481
6111.00,0.8368
6110.00,0.8261
6109.00,0.8160
6108.00,0.8066
6107.00,0.7977
6106.00,0.7895
6105.00,0.7819
6104.00,0.7751
6103.00,0.7690
6102.00,0.7638
6101.00,0.7596
6100.00,0.7563
6099.00,0.7539
6098.00,0.7523
6097.00,0.7517
6096.00,0.7520
6095.00,0.7530
6094.00,0.7549
6093.00,0.7576
6092.00,0.7612
6091.00,0.7656
6090.00,0.7709
6089.00,0.7770
6088.00,0.7838
6087.00,0.7914
6086.00,0.7996
6085.00,0.8084
6084.00,0.8175
6083.00,0.8272
6082.00,0.8373
6081.00,0.8479
6080.00,0.8589
6079.00,0.8704
6078.00,0.8821
6077.00,0.8940
6076.00,0.9061
6075.00,0.9182
6074.00,0.9305
6073.00,0.9429
6072.00,0.9552
6071.00,0.9675
6070.00,0.9797
6069.00,0.9920
6068.00,1.0043
6067.00,1.0163
6066.00,1.0284
6065.00,1.0406
6064.00,1.0527
6063.00,1.0645
6062.00,1.0762
6061.00,1.0876
6060.00,1.0987
6059.00,1.1096
6058.00,1.1201
6057.00,1.1303
6056.00,1.1402
6055.00,1.1501
6054.00,1.1597
6053.00,1.1688
6052.00,1.1776
6051.00,1.1859
6050.00,1.1939
6049.00,1.2016
6048.00,1.2088
6047.00,1.2159
6046.00,1.2229
6045.00,1.2297
6044.00,1.2361
6043.00,1.2421
6042.00,1.2478
6041.00,1.2531
6040.00,1.2577
6039.00,1.2617
6038.00,1.2652
6037.00,1.2685
6036.00,1.2713
6035.00,1.2737
6034.00,1.2757
6033.00,1.2775
6032.00,1.2789
6031.00,1.2797
6030.00,1.2803
6029.00,1.2805
6028.00,1.2802
6027.00,1.2793
6026.00,1.2779
6025.00,1.2759
6024.00,1.2734
6023.00,1.2706
6022.00,1.2677
6021.00,1.2646
6020.00,1.2610
6019.00,1.2570
6018.00,1.2527
6017.00,1.2480
6016.00,1.2426
6015.00,1.2363
6014.00,1.2293
6013.00,1.2217
6012.00,1.2133
6011.00,1.2045
6010.00,1.1956
6009.00,1.1868
6008.00,1.1777
6007.00,1.1679
6006.00,1.1573
6005.00,1.1462
6004.00,1.1346
6003.00,1.1226
6002.00,1.1105
6001.00,1.0984
6000.00,1.0862
5999.00,1.0737
5998.00,1.0608
5997.00,1.0475
5996.00,1.0338
5995.00,1.0199
5994.00,1.0058
5993.00,0.9917
5992.00,0.9776
5991.00,0.9634
5990.00,0.9492
5989.00,0.9352
5988.00,0.9213
5987.00,0.9077
5986.00,0.8944
5985.00,0.8814
5984.00,0.8688
5983.00,0.8568
5982.00,0.8452
5981.00,0.8341
5980.00,0.8233
5979.00,0.8131
5978.00,0.8036
5977.00,0.7947
5976.00,0.7866
5975.00,0.7792
5974.00,0.7727
5973.00,0.7671
5972.00,0.7624
5971.00,0.7585
5970.00,0.7554
5969.00,0.7534
5968.00,0.7524
5967.00,0.7523
5966.00,0.7532
5965.00,0.7550
5964.00,0.7578
5963.00,0.7615
5962.00,0.7661
5961.00,0.7715
5960.00,0.7779
5959.00,0.7850
5958.00,0.7929
5957.00,0.8015
5956.00,0.8105
5955.00,0.8200
5954.00,0.8302
5953.00,0.8409
5952.00,0.8522
5951.00,0.8640
5950.00,0.8763
5949.00,0.8890
5948.00,0.9020
5947.00,0.9152
5946.00,0.9284
5945.00,0.9416
5944.00,0.9548
5943.00,0.9680
5942.00,0.9813
5941.00,0.9947
5940.00,1.0081
5939.00,1.0213
5938.00,1.0344
5937.00,1.0474
5936.00,1.0599
5935.00,1.0722
5934.00,1.0844
5933.00,1.0966
5932.00,1.1088
5931.00,1.1210
5930.00,1.1330
5929.00,1.1448
5928.00,1.1563
5927.00,1.1674
5926.00,1.1782
5925.00,1.1885
5924.00,1.1981
5923.00,1.2073
5922.00,1.2164
5921.00,1.2254
5920.00,1.2339
5919.00,1.2417
5918.00,1.2489
5917.00,1.2558
5916.00,1.2622
5915.00,1.2681
5914.00,1.2739
5913.00,1.2797
5912.00,1.2851
5911.00,1.2898
5910.00,1.2938
5909.00,1.2972
5908.00,1.3001
5907.00,1.3027
5906.00,1.3053
5905.00,1.3078
5904.00,1.3100
5903.00,1.3114
5902.00,1.3120
5901.00,1.3120
5900.00,1.3117
5899.00,1.3110
5898.00,1.3100
5897.00,1.3086
5896.00,1.3065
5895.00,1.3037
5894.00,1.3005
5893.00,1.2970
5892.00,1.2933
5891.00,1.2892
5890.00,1.2844
5889.00,1.2789
5888.00,1.2726
5887.00,1.2657
5886.00,1.2585
5885.00,1.2515
5884.00,1.2448
5883.00,1.2379
5882.00,1.2303
5881.00,1.2218
5880.00,1.2125
5879.00,1.2026
5878.00,1.1924
5877.00,1.1820
5876.00,1.1712
5875.00,1.1602
5874.00,1.1490
5873.00,1.1373
5872.00,1.1252
5871.00,1.1127
5870.00,1.1000
5869.00,1.0869
5868.00,1.0735
5867.00,1.0598
5866.00,1.0459
5865.00,1.0321
5864.00,1.0183
5863.00,1.0044
5862.00,0.9903
5861.00,0.9762
5860.00,0.9620
5859.00,0.9478
5858.00,0.9340
5857.00,0.9207
5856.00,0.9076
5855.00,0.8949
5854.00,0.8823
5853.00,0.8701
5852.00,0.8583
5851.00,0.8470
5850.00,0.8362
5849.00,0.8262
5848.00,0.8170
5847.00,0.8085
5846.00,0.8008
5845.00,0.7939
5844.00,0.7878
5843.00,0.7826
5842.00,0.7781
5841.00,0.7746
5840.00,0.7719
5839.00,0.7703
5838.00,0.7698
5837.00,0.7703
5836.00,0.7718
5835.00,0.7742
5834.00,0.7775
5833.00,0.7815
5832.00,0.7864
5831.00,0.7920
5830.00,0.7984
5829.00,0.8056
5828.00,0.8136
5827.00,0.8223
5826.00,0.8316
5825.00,0.8415
5824.00,0.8519
5823.00,0.8630
5822.00,0.8745
5821.00,0.8865
5820.00,0.8987
5819.00,0.9111
5818.00,0.9237
5817.00,0.9364
5816.00,0.9491
5815.00,0.9619
5814.00,0.9749
5813.00,0.9880
5812.00,1.0012
5811.00,1.0143
5810.00,1.0274
5809.00,1.0406
5808.00,1.0538
5807.00,1.0668
5806.00,1.0796
5805.00,1.0923
5804.00,1.1046
5803.00,1.1166
5802.00,1.1283
5801.00,1.1399
5800.00,1.1513
5799.00,1.1627
5798.00,1.1739
5797.00,1.1847
5796.00,1.1953
5795.00,1.2055
5794.00,1.2153
5793.00,1.2248
5792.00,1.2340
5791.00,1.2428
5790.00,1.2512
5789.00,1.2589
5788.00,1.2659
5787.00,1.2725
5786.00,1.2787
5785.00,1.2848
5784.00,1.2906
5783.00,1.2962
5782.00,1.3017
5781.00,1.3065
5780.00,1.3106
5779.00,1.3142
5778.00,1.3176
5777.00,1.3207
5776.00,1.3233
5775.00,1.3253
5774.00,1.3269
5773.00,1.3280
5772.00,1.3285
5771.00,1.3283
5770.00,1.3278
5769.00,1.3269
5768.00,1.3257
5767.00,1.3239
5766.00,1.3216
5765.00,1.3189
5764.00,1.3157
5763.00,1.3120
5762.00,1.3080
5761.00,1.3037
5760.00,1.2993
5759.00,1.2944
5758.00,1.2890
5757.00,1.2831
5756.00,1.2767
5755.00,1.2697
5754.00,1.2622
5753.00,1.2541
5752.00,1.2456
5751.00,1.2366
5750.00,1.2272
5749.00,1.2174
5748.00,1.2072
5747.00,1.1966
5746.00,1.1859
5745.00,1.1747
5744.00,1.1630
5743.00,1.1508
5742.00,1.1381
5741.00,1.1252
5740.00,1.1119
5739.00,1.0983
5738.00,1.0844
5737.00,1.0704
5736.00,1.0562
5735.00,1.0419
5734.00,1.0274
5733.00,1.0128
5732.00,0.9982
5731.00,0.9835
5730.00,0.9689
5729.00,0.9545
5728.00,0.9402
5727.00,0.9261
5726.00,0.9122
5725.00,0.8987
5724.00,0.8855
5723.00,0.8726
5722.00,0.8602
5721.00,0.8485
5720.00,0.8373
5719.00,0.8267
5718.00,0.8167
5717.00,0.8075
5716.00,0.7991
5715.00,0.7916
5714.00,0.7851
5713.00,0.7794
5712.00,0.7747
5711.00,0.7710
5710.00,0.7682
5709.00,0.7664
5708.00,0.7656
5707.00,0.7657
5706.00,0.7669
5705.00,0.7691
5704.00,0.7724
5703.00,0.7765
5702.00,0.7816
5701.00,0.7876
5700.00,0.7944
5699.00,0.8019
5698.00,0.8101
5697.00,0.8192
5696.00,0.8291
5695.00,0.8397
5694.00,0.8508
5693.00,0.8625
5692.00,0.8744
5691.00,0.8866
5690.00,0.8991
5689.00,0.9120
5688.00,0.9252
5687.00,0.9387
5686.00,0.9524
5685.00,0.9662
5684.00,0.9801
5683.00,0.9938
5682.00,1.0075
5681.00,1.0213
5680.00,1.0351
5679.00,1.0489
5678.00,1.0626
5677.00,1.0761
5676.00,1.0893
5675.00,1.1022
5674.00,1.1148
5673.00,1.1272
5672.00,1.1396
5671.00,1.1519
5670.00,1.1639
5669.00,1.1756
5668.00,1.1870
5667.00,1.1980
5666.00,1.2085
5665.00,1.2185
5664.00,1.2281
5663.00,1.2373
5662.00,1.2461
5661.00,1.2545
5660.00,1.2626
5659.00,1.2702
5658.00,1.2776
5657.00,1.2846
5656.00,1.2913
5655.00,1.2975
5654.00,1.3034
5653.00,1.3089
5652.00,1.3140
5651.00,1.3184
5650.00,1.3221
5649.00,1.3250
5648.00,1.3274
5647.00,1.3293
5646.00,1.3309
5645.00,1.3323
5644.00,1.3334
5643.00,1.3341
5642.00,1.3342
5641.00,1.3340
5640.00,1.3332
5639.00,1.3319
5638.00,1.3300
5637.00,1.3276
5636.00,1.3247
5635.00,1.3213
5634.00,1.3174
5633.00,1.3133
5632.00,1.3089
5631.00,1.3041
5630.00,1.2986
5629.00,1.2926
5628.00,1.2860
5627.00,1.2790
5626.00,1.2718
5625.00,1.2645
5624.00,1.2570
5623.00,1.2490
5622.00,1.2405
5621.00,1.2316
5620.00,1.2221
5619.00,1.2122
5618.00,1.2019
5617.00,1.1914
5616.00,1.1805
5615.00,1.1690
5614.00,1.1569
5613.00,1.1444
5612.00,1.1315
5611.00,1.1185
5610.00,1.1051
5609.00,1.0915
5608.00,1.0775
5607.00,1.0630
5606.00,1.0482
5605.00,1.0331
5604.00,1.0178
5603.00,1.0026
5602.00,0.9876
5601.00,0.9726
5600.00,0.9576
5599.00,0.9426
5598.00,0.9277
5597.00,0.9130
5596.00,0.8984
5595.00,0.8842
5594.00,0.8704
5593.00,0.8570
5592.00,0.8443
5591.00,0.8321
5590.00,0.8207
5589.00,0.8100
5588.00,0.8000
5587.00,0.7909
5586.00,0.7827
5585.00,0.7753
5584.00,0.7688
5583.00,0.7634
5582.00,0.7590
5581.00,0.7558
5580.00,0.7535
5579.00,0.7523
5578.00,0.7523
5577.00,0.7534
5576.00,0.7555
5575.00,0.7587
5574.00,0.7629
5573.00,0.7681
5572.00,0.7743
5571.00,0.7814
5570.00,0.7893
5569.00,0.7981
5568.00,0.8078
5567.00,0.8181
5566.00,0.8292
5565.00,0.8408
5564.00,0.8530
5563.00,0.8657
5562.00,0.8788
5561.00,0.8923
5560.00,0.9061
5559.00,0.9201
5558.00,0.9344
5557.00,0.9488
5556.00,0.9634
5555.00,0.9780
5554.00,0.9927
5553.00,1.0073
5552.00,1.0218
5551.00,1.0363
5550.00,1.0507
5549.00,1.0651
5548.00,1.0792
5547.00,1.0932
5546.00,1.1069
5545.00,1.1203
5544.00,1.1333
5543.00,1.1460
5542.00,1.1585
5541.00,1.1708
5540.00,1.1828
5539.00,1.1947
5538.00,1.2063
5537.00,1.2176
5536.00,1.2286
5535.00,1.2392
5534.00,1.2495
5533.00,1.2594
5532.00,1.2689
5531.00,1.2778
5530.00,1.2860
5529.00,1.2936
5528.00,1.3008
5527.00,1.3077
5526.00,1.3144
5525.00,1.3208
5524.00,1.3267
5523.00,1.3321
5522.00,1.3368
5521.00,1.3408
5520.00,1.3443
5519.00,1.3474
5518.00,1.3502
5517.00,1.3526
5516.00,1.3547
5515.00,1.3562
5514.00,1.3573
5513.00,1.3580
5512.00,1.3582
5511.00,1.3582
5510.00,1.3576
5509.00,1.3565
5508.00,1.3548
5507.00,1.3526
5506.00,1.3500
5505.00,1.3470
5504.00,1.3436
5503.00,1.3396
5502.00,1.3351
5501.00,1.3299
5500.00,1.3241
5499.00,1.3180
5498.00,1.3117
5497.00,1.3051
5496.00,1.2981
5495.00,1.2904
5494.00,1.2820
5493.00,1.2728
5492.00,1.2631
5491.00,1.2530
5490.00,1.2425
5489.00,1.2319
5488.00,1.2208
5487.00,1.2092
5486.00,1.1972
5485.00,1.1847
5484.00,1.1717
5483.00,1.1582
5482.00,1.1443
5481.00,1.1301
5480.00,1.1157
5479.00,1.1011
5478.00,1.0862
5477.00,1.0708
5476.00,1.0550
5475.00,1.0387
5474.00,1.0220
5473.00,1.0054
5472.00,0.9890
5471.00,0.9728
5470.00,0.9569
5469.00,0.9410
5468.00,0.9253
5467.00,0.9098
5466.00,0.8947
5465.00,0.8800
5464.00,0.8658
5463.00,0.8519
5462.00,0.8386
5461.00,0.8260
5460.00,0.8140
5459.00,0.8027
5458.00,0.7923
5457.00,0.7828
5456.00,0.7743
5455.00,0.7667
5454.00,0.7604
5453.00,0.7553
5452.00,0.7513
5451.00,0.7485
5450.00,0.7467
5449.00,0.7460
5448.00,0.7464
5447.00,0.7479
5446.00,0.7506
5445.00,0.7545
5444.00,0.7594
5443.00,0.7652
5442.00,0.7719
5441.00,0.7797
5440.00,0.7884
5439.00,0.7979
5438.00,0.8081
5437.00,0.8189
5436.00,0.8303
5435.00,0.8424
5434.00,0.8552
5433.00,0.8684
5432.00,0.8819
5431.00,0.8956
5430.00,0.9097
5429.00,0.9241
5428.00,0.9388
5427.00,0.9536
5426.00,0.9683
5425.00,0.9829
5424.00,0.9973
5423.00,1.0117
5422.00,1.0261
5421.00,1.0405
5420.00,1.0549
5419.00,1.0691
5418.00,1.0831
5417.00,1.0969
5416.00,1.1103
5415.00,1.1237
5414.00,1.1371
5413.00,1.1505
5412.00,1.1640
5411.00,1.1773
5410.00,1.1902
5409.00,1.2024
5408.00,1.2139
5407.00,1.2248
5406.00,1.2351
5405.00,1.2453
5404.00,1.2555
5403.00,1.2656
5402.00,1.2756
5401.00,1.2852
5400.00,1.2941
5399.00,1.3025
5398.00,1.3102
5397.00,1.3173
5396.00,1.3240
5395.00,1.3305
5394.00,1.3366
5393.00,1.3421
5392.00,1.3470
5391.00,1.3513
5390.00,1.3550
5389.00,1.3582
5388.00,1.3610
5387.00,1.3636
5386.00,1.3661
5385.00,1.3680
5384.00,1.3694
5383.00,1.3702
5382.00,1.3706
5381.00,1.3706
5380.00,1.3701
5379.00,1.3693
5378.00,1.3680
5377.00,1.3662
5376.00,1.3638
5375.00,1.3608
5374.00,1.3574
5373.00,1.3535
5372.00,1.3490
5371.00,1.3441
5370.00,1.3386
5369.00,1.3323
5368.00,1.3254
5367.00,1.3181
5366.00,1.3104
5365.00,1.3022
5364.00,1.2935
5363.00,1.2844
5362.00,1.2749
5361.00,1.2649
5360.00,1.2543
5359.00,1.2431
5358.00,1.2316
5357.00,1.2198
5356.00,1.2075
5355.00,1.1948
5354.00,1.1814
5353.00,1.1673
5352.00,1.1526
5351.00,1.1374
5350.00,1.1220
5349.00,1.1063
5348.00,1.0904
5347.00,1.0741
5346.00,1.0575
5345.00,1.0408
5344.00,1.0239
5343.00,1.0069
5342.00,0.9901
5341.00,0.9733
5340.00,0.9566
5339.00,0.9398
5338.00,0.9230
5337.00,0.9067
5336.00,0.8909
5335.00,0.8758
5334.00,0.8613
5333.00,0.8474
5332.00,0.8341
5331.00,0.8216
5330.00,0.8099
5329.00,0.7991
5328.00,0.7892
5327.00,0.7801
5326.00,0.7720
5325.00,0.7651
5324.00,0.7593
5323.00,0.7547
5322.00,0.7512
5321.00,0.7491
5320.00,0.7483
5319.00,0.7488
5318.00,0.7506
5317.00,0.7536
5316.00,0.7578
5315.00,0.7630
5314.00,0.7692
5313.00,0.7765
5312.00,0.7848
5311.00,0.7941
5310.00,0.8043
5309.00,0.8153
5308.00,0.8273
5307.00,0.8400
5306.00,0.8534
5305.00,0.8674
5304.00,0.8817
5303.00,0.8962
5302.00,0.9110
5301.00,0.9261
5300.00,0.9416
5299.00,0.9573
5298.00,0.9731
5297.00,0.9890
5296.00,1.0049
5295.00,1.0207
5294.00,1.0364
5293.00,1.0520
5292.00,1.0676
5291.00,1.0830
5290.00,1.0983
5289.00,1.1136
5288.00,1.1287
5287.00,1.1435
5286.00,1.1580
5285.00,1.1720
5284.00,1.1857
5283.00,1.1990
5282.00,1.2120
5281.00,1.2249
5280.00,1.2376
5279.00,1.2500
5278.00,1.2620
5277.00,1.2735
5276.00,1.2843
5275.00,1.2946
5274.00,1.3042
5273.00,1.3135
5272.00,1.3224
5271.00,1.3309
5270.00,1.3389
5269.00,1.3465
5268.00,1.3537
5267.00,1.3605
5266.00,1.3669
5265.00,1.3730
5264.00,1.3786
5263.00,1.3835
5262.00,1.3876
5261.00,1.3909
5260.00,1.3935
5259.00,1.3957
5258.00,1.3976
5257.00,1.3994
5256.00,1.4010
5255.00,1.4022
5254.00,1.4030
5253.00,1.4034
5252.00,1.4031
5251.00,1.4022
5250.00,1.4006
5249.00,1.3983
5248.00,1.3955
5247.00,1.3923
5246.00,1.3889
5245.00,1.3854
5244.00,1.3815
5243.00,1.3770
5242.00,1.3717
5241.00,1.3660
5240.00,1.3599
5239.00,1.3535
5238.00,1.3466
5237.00,1.3391
5236.00,1.3310
5235.00,1.3224
5234.00,1.3132
5233.00,1.3036
5232.00,1.2935
5231.00,1.2829
5230.00,1.2718
5229.00,1.2600
5228.00,1.2477
5227.00,1.2348
5226.00,1.2215
5225.00,1.2078
5224.00,1.1939
5223.00,1.1796
5222.00,1.1649
5221.00,1.1497
5220.00,1.1339
5219.00,1.1174
5218.00,1.1006
5217.00,1.0837
5216.00,1.0667
5215.00,1.0496
5214.00,1.0324
5213.00,1.0150
5212.00,0.9976
5211.00,0.9801
5210.00,0.9628
5209.00,0.9457
5208.00,0.9288
5207.00,0.9121
5206.00,0.8957
5205.00,0.8798
5204.00,0.8646
5203.00,0.8500
5202.00,0.8362
5201.00,0.8233
5200.00,0.8112
5199.00,0.8001
5198.00,0.7901
5197.00,0.7811
5196.00,0.7733
5195.00,0.7665
5194.00,0.7609
5193.00,0.7565
5192.00,0.7534
5191.00,0.7515
5190.00,0.7509
5189.00,0.7516
5188.00,0.7535
5187.00,0.7566
5186.00,0.7610
5185.00,0.7666
5184.00,0.7733
5183.00,0.7812
5182.00,0.7900
5181.00,0.7998
5180.00,0.8104
5179.00,0.8219
5178.00,0.8342
5177.00,0.8473
5176.00,0.8611
5175.00,0.8754
5174.00,0.8901
5173.00,0.9052
5172.00,0.9206
5171.00,0.9362
5170.00,0.9521
5169.00,0.9682
5168.00,0.9843
5167.00,1.0004
5166.00,1.0165
5165.00,1.0326
5164.00,1.0487
5163.00,1.0647
5162.00,1.0806
5161.00,1.0964
5160.00,1.1121
5159.00,1.1275
5158.00,1.1427
5157.00,1.1577
5156.00,1.1725
5155.00,1.1870
5154.00,1.2012
5153.00,1.2150
5152.00,1.2283
5151.00,1.2413
5150.00,1.2539
5149.00,1.2662
5148.00,1.2781
5147.00,1.2897
5146.00,1.3009
5145.00,1.3117
5144.00,1.3220
5143.00,1.3318
5142.00,1.3410
5141.00,1.3496
5140.00,1.3576
5139.00,1.3651
5138.00,1.3724
5137.00,1.3792
5136.00,1.3856
5135.00,1.3914
5134.00,1.3968
5133.00,1.4016
5132.00,1.4061
5131.00,1.4100
5130.00,1.4135
5129.00,1.4164
5128.00,1.4186
5127.00,1.4204
5126.00,1.4218
5125.00,1.4230
5124.00,1.4238
5123.00,1.4241
5122.00,1.4236
5121.00,1.4223
5120.00,1.4203
5119.00,1.4180
5118.00,1.4156
5117.00,1.4128
5116.00,1.4095
5115.00,1.4056
5114.00,1.4014
5113.00,1.3966
5112.00,1.3914
5111.00,1.3858
5110.00,1.3798
5109.00,1.3732
5108.00,1.3660
5107.00,1.3582
5106.00,1.3500
5105.00,1.3412
5104.00,1.3317
5103.00,1.3215
5102.00,1.3106
5101.00,1.2992
5100.00,1.2874
5099.00,1.2753
5098.00,1.2629
5097.00,1.2502
5096.00,1.2369
5095.00,1.2230
5094.00,1.2084
5093.00,1.1931
5092.00,1.1772
5091.00,1.1607
5090.00,1.1440
5089.00,1.1271
5088.00,1.1100
5087.00,1.0927
5086.00,1.0751
5085.00,1.0572
5084.00,1.0390
5083.00,1.0207
5082.00,1.0024
5081.00,0.9841
5080.00,0.9660
5079.00,0.9480
5078.00,0.9304
5077.00,0.9131
5076.00,0.8962
5075.00,0.8800
5074.00,0.8644
5073.00,0.8495
5072.00,0.8354
5071.00,0.8221
5070.00,0.8097
5069.00,0.7984
5068.00,0.7882
5067.00,0.7792
5066.00,0.7716
5065.00,0.7653
5064.00,0.7602
5063.00,0.7565
5062.00,0.7540
5061.00,0.7529
5060.00,0.7532
5059.00,0.7549
5058.00,0.7580
5057.00,0.7624
5056.00,0.7681
5055.00,0.7750
5054.00,0.7832
5053.00,0.7926
5052.00,0.8031
5051.00,0.8145
5050.00,0.8268
5049.00,0.8398
5048.00,0.8536
5047.00,0.8680
5046.00,0.8830
5045.00,0.8987
5044.00,0.9148
5043.00,0.9312
5042.00,0.9480
5041.00,0.9649
5040.00,0.9819
5039.00,0.9989
5038.00,1.0160
5037.00,1.0331
5036.00,1.0502
5035.00,1.0672
5034.00,1.0842
5033.00,1.1011
5032.00,1.1178
5031.00,1.1342
5030.00,1.1505
5029.00,1.1664
5028.00,1.1819
5027.00,1.1971
5026.00,1.2121
5025.00,1.2269
5024.00,1.2412
5023.00,1.2553
5022.00,1.2690
5021.00,1.2824
5020.00,1.2952
5019.00,1.3074
5018.00,1.3190
5017.00,1.3300
5016.00,1.3405
5015.00,1.3507
5014.00,1.3608
5013.00,1.3705
5012.00,1.3796
5011.00,1.3879
5010.00,1.3955
5009.00,1.4026
5008.00,1.4093
5007.00,1.4158
5006.00,1.4219
5005.00,1.4276
5004.00,1.4326
5003.00,1.4368
5002.00,1.4405
5001.00,1.4438
5000.00,1.4464
4999.00,1.4484
4998.00,1.4499
4997.00,1.4509
4996.00,1.4516
4995.00,1.4520
4994.00,1.4522
4993.00,1.4519
4992.00,1.4510
4991.00,1.4495
4990.00,1.4474
4989.00,1.4447
4988.00,1.4415
4987.00,1.4377
4986.00,1.4334
4985.00,1.4287
4984.00,1.4238
4983.00,1.4187
4982.00,1.4131
4981.00,1.4069
4980.00,1.4000
4979.00,1.3924
4978.00,1.3843
4977.00,1.3758
4976.00,1.3666
4975.00,1.3569
4974.00,1.3467
4973.00,1.3360
4972.00,1.3248
4971.00,1.3132
4970.00,1.3011
4969.00,1.2884
4968.00,1.2749
4967.00,1.2607
4966.00,1.2460
4965.00,1.2308
4964.00,1.2151
4963.00,1.1989
4962.00,1.1823
4961.00,1.1652
4960.00,1.1477
4959.00,1.1296
4958.00,1.1111
4957.00,1.0922
4956.00,1.0729
4955.00,1.0533
4954.00,1.0336
4953.00,1.0138
4952.00,0.9942
4951.00,0.9748
4950.00,0.9557
4949.00,0.9368
4948.00,0.9182
4947.00,0.8999
4946.00,0.8823
4945.00,0.8654
4944.00,0.8494
4943.00,0.8342
4942.00,0.8200
4941.00,0.8068
4940.00,0.7946
4939.00,0.7835
4938.00,0.7736
4937.00,0.7650
4936.00,0.7578
4935.00,0.7519
4934.00,0.7474
4933.00,0.7445
4932.00,0.7431
4931.00,0.7432
4930.00,0.7448
4929.00,0.7478
4928.00,0.7523
4927.00,0.7581
4926.00,0.7653
4925.00,0.7739
4924.00,0.7838
4923.00,0.7948
4922.00,0.8069
4921.00,0.8199
4920.00,0.8337
4919.00,0.8483
4918.00,0.8637
4917.00,0.8797
4916.00,0.8961
4915.00,0.9129
4914.00,0.9301
4913.00,0.9477
4912.00,0.9654
4911.00,0.9834
4910.00,1.0014
4909.00,1.0194
4908.00,1.0374
4907.00,1.0553
4906.00,1.0733
4905.00,1.0912
4904.00,1.1090
4903.00,1.1265
4902.00,1.1438
4901.00,1.1609
4900.00,1.1776
4899.00,1.1939
4898.00,1.2099
4897.00,1.2255
4896.00,1.2408
4895.00,1.2557
4894.00,1.2705
4893.00,1.2849
4892.00,1.2990
4891.00,1.3125
4890.00,1.3254
4889.00,1.3377
4888.00,1.3494
4887.00,1.3604
4886.00,1.3711
4885.00,1.3815
4884.00,1.3915
4883.00,1.4009
4882.00,1.4098
4881.00,1.4180
4880.00,1.4256
4879.00,1.4327
4878.00,1.4391
4877.00,1.4451
4876.00,1.4504
4875.00,1.4552
4874.00,1.4597
4873.00,1.4639
4872.00,1.4677
4871.00,1.4709
4870.00,1.4734
4869.00,1.4753
4868.00,1.4767
4867.00,1.4776
4866.00,1.4781
4865.00,1.4782
4864.00,1.4780
4863.00,1.4773
4862.00,1.4762
4861.00,1.4747
4860.00,1.4728
4859.00,1.4703
4858.00,1.4672
4857.00,1.4636
4856.00,1.4595
4855.00,1.4546
4854.00,1.4491
4853.00,1.4430
4852.00,1.4364
4851.00,1.4293
4850.00,1.4220
4849.00,1.4144
4848.00,1.4063
4847.00,1.3975
4846.00,1.3879
4845.00,1.3776
4844.00,1.3667
4843.00,1.3553
4842.00,1.3436
4841.00,1.3315
4840.00,1.3190
4839.00,1.3057
4838.00,1.2915
4837.00,1.2765
4836.00,1.2608
4835.00,1.2446
4834.00,1.2279
4833.00,1.2108
4832.00,1.1932
4831.00,1.1749
4830.00,1.1562
4829.00,1.1371
4828.00,1.1177
4827.00,1.0981
4826.00,1.0782
4825.00,1.0582
4824.00,1.0379
4823.00,1.0175
4822.00,0.9971
4821.00,0.9769
4820.00,0.9570
4819.00,0.9374
4818.00,0.9184
4817.00,0.8999
4816.00,0.8819
4815.00,0.8648
4814.00,0.8484
4813.00,0.8331
4812.00,0.8188
4811.00,0.8057
4810.00,0.7938
4809.00,0.7832
4808.00,0.7740
4807.00,0.7662
4806.00,0.7600
4805.00,0.7553
4804.00,0.7522
4803.00,0.7506
4802.00,0.7506
4801.00,0.7522
4800.00,0.7554
4799.00,0.7601
4798.00,0.7663
4797.00,0.7741
4796.00,0.7833
4795.00,0.7937
4794.00,0.8055
4793.00,0.8184
4792.00,0.8323
4791.00,0.8472
4790.00,0.8629
4789.00,0.8793
4788.00,0.8963
4787.00,0.9137
4786.00,0.9315
4785.00,0.9496
4784.00,0.9681
4783.00,0.9869
4782.00,1.0058
4781.00,1.0248
4780.00,1.0438
4779.00,1.0627
4778.00,1.0814
4777.00,1.1001
4776.00,1.1186
4775.00,1.1369
4774.00,1.1549
4773.00,1.1728
4772.00,1.1904
4771.00,1.2078
4770.00,1.2249
4769.00,1.2417
4768.00,1.2580
4767.00,1.2737
4766.00,1.2891
4765.00,1.3042
4764.00,1.3189
4763.00,1.3332
4762.00,1.3469
4761.00,1.3599
4760.00,1.3721
4759.00,1.3838
4758.00,1.3951
4757.00,1.4060
4756.00,1.4164
4755.00,1.4262
4754.00,1.4355
4753.00,1.4443
4752.00,1.4525
4751.00,1.4602
4750.00,1.4673
4749.00,1.4738
4748.00,1.4795
4747.00,1.4846
4746.00,1.4893
4745.00,1.4936
4744.00,1.4976
4743.00,1.5012
4742.00,1.5042
4741.00,1.5067
4740.00,1.5087
4739.00,1.5102
4738.00,1.5113
4737.00,1.5119
4736.00,1.5121
4735.00,1.5118
4734.00,1.5111
4733.00,1.5099
4732.00,1.5081
4731.00,1.5057
4730.00,1.5026
4729.00,1.4992
4728.00,1.4955
4727.00,1.4912
4726.00,1.4863
4725.00,1.4809
4724.00,1.4749
4723.00,1.4685
4722.00,1.4617
4721.00,1.4542
4720.00,1.4459
4719.00,1.4367
4718.00,1.4268
4717.00,1.4164
4716.00,1.4057
4715.00,1.3946
4714.00,1.3832
4713.00,1.3714
4712.00,1.3590
4711.00,1.3458
4710.00,1.3317
4709.00,1.3169
4708.00,1.3015
4707.00,1.2854
4706.00,1.2687
4705.00,1.2514
4704.00,1.2337
4703.00,1.2154
4702.00,1.1967
4701.00,1.1775
4700.00,1.1579
4699.00,1.1377
4698.00,1.1172
4697.00,1.0966
4696.00,1.0759
4695.00,1.0552
4694.00,1.0346
4693.00,1.0141
4692.00,0.9937
4691.00,0.9737
4690.00,0.9542
4689.00,0.9351
4688.00,0.9167
4687.00,0.8990
4686.00,0.8822
4685.00,0.8663
4684.00,0.8514
4683.00,0.8376
4682.00,0.8249
4681.00,0.8135
4680.00,0.8034
4679.00,0.7947
4678.00,0.7875
4677.00,0.7817
4676.00,0.7774
4675.00,0.7745
4674.00,0.7732
4673.00,0.7734
4672.00,0.7751
4671.00,0.7784
4670.00,0.7831
4669.00,0.7892
4668.00,0.7967
4667.00,0.8055
4666.00,0.8156
4665.00,0.8270
4664.00,0.8394
4663.00,0.8529
4662.00,0.8673
4661.00,0.8825
4660.00,0.8986
4659.00,0.9152
4658.00,0.9325
4657.00,0.9502
4656.00,0.9684
4655.00,0.9869
4654.00,1.0056
4653.00,1.0245
4652.00,1.0435
4651.00,1.0626
4650.00,1.0818
4649.00,1.1010
4648.00,1.1202
4647.00,1.1392
4646.00,1.1581
4645.00,1.1767
4644.00,1.1950
4643.00,1.2131
4642.00,1.2309
4641.00,1.2484
4640.00,1.2655
4639.00,1.2823
4638.00,1.2988
4637.00,1.3149
4636.00,1.3304
4635.00,1.3455
4634.00,1.3600
4633.00,1.3740
4632.00,1.3876
4631.00,1.4007
4630.00,1.4132
4629.00,1.4252
4628.00,1.4364
4627.00,1.4469
4626.00,1.4568
4625.00,1.4662
4624.00,1.4752
4623.00,1.4839
4622.00,1.4923
4621.00,1.5000
4620.00,1.5069
4619.00,1.5132
4618.00,1.5190
4617.00,1.5242
4616.00,1.5290
4615.00,1.5333
4614.00,1.5370
4613.00,1.5403
4612.00,1.5429
4611.00,1.5450
4610.00,1.5465
4609.00,1.5475
4608.00,1.5480
4607.00,1.5481
4606.00,1.5478
4605.00,1.5470
4604.00,1.5458
4603.00,1.5441
4602.00,1.5419
4601.00,1.5392
4600.00,1.5359
4599.00,1.5320
4598.00,1.5277
4597.00,1.5229
4596.00,1.5178
4595.00,1.5124
4594.00,1.5063
4593.00,1.4995
4592.00,1.4920
4591.00,1.4838
4590.00,1.4748
4589.00,1.4653
4588.00,1.4553
4587.00,1.4447
4586.00,1.4336
4585.00,1.4220
4584.00,1.4099
4583.00,1.3973
4582.00,1.3842
4581.00,1.3704
4580.00,1.3558
4579.00,1.3404
4578.00,1.3243
4577.00,1.3075
4576.00,1.2902
4575.00,1.2723
4574.00,1.2537
4573.00,1.2345
4572.00,1.2146
4571.00,1.1942
4570.00,1.1733
4569.00,1.1522
4568.00,1.1306
4567.00,1.1087
4566.00,1.0864
4565.00,1.0640
4564.00,1.0415
4563.00,1.0192
4562.00,0.9971
4561.00,0.9753
4560.00,0.9539
4559.00,0.9329
4558.00,0.9125
4557.00,0.8929
4556.00,0.8743
4555.00,0.8567
4554.00,0.8403
4553.00,0.8251
4552.00,0.8114
4551.00,0.7992
4550.00,0.7885
4549.00,0.7795
4548.00,0.7722
4547.00,0.7666
4546.00,0.7629
4545.00,0.7612
4544.00,0.7613
4543.00,0.7632
4542.00,0.7670
4541.00,0.7725
4540.00,0.7797
4539.00,0.7886
4538.00,0.7991
4537.00,0.8111
4536.00,0.8244
4535.00,0.8390
4534.00,0.8546
4533.00,0.8713
4532.00,0.8889
4531.00,0.9072
4530.00,0.9262
4529.00,0.9456
4528.00,0.9655
4527.00,0.9857
4526.00,1.0061
4525.00,1.0267
4524.00,1.0475
4523.00,1.0683
4522.00,1.0890
4521.00,1.1096
4520.00,1.1300
4519.00,1.1501
4518.00,1.1702
4517.00,1.1902
4516.00,1.2099
4515.00,1.2293
4514.00,1.2484
4513.00,1.2672
4512.00,1.2857
4511.00,1.3039
4510.00,1.3216
4509.00,1.3384
4508.00,1.3546
4507.00,1.3700
4506.00,1.3849
4505.00,1.3994
4504.00,1.4134
4503.00,1.4270
4502.00,1.4401
4501.00,1.4528
4500.00,1.4650
4499.00,1.4766
4498.00,1.4874
4497.00,1.4977
4496.00,1.5074
4495.00,1.5164
4494.00,1.5249
4493.00,1.5326
4492.00,1.5397
4491.00,1.5461
4490.00,1.5519
4489.00,1.5572
4488.00,1.5620
4487.00,1.5663
4486.00,1.5701
4485.00,1.5735
4484.00,1.5765
4483.00,1.5790
4482.00,1.5809
4481.00,1.5821
4480.00,1.5827
4479.00,1.5828
4478.00,1.5825
4477.00,1.5820
4476.00,1.5810
4475.00,1.5794
4474.00,1.5773
4473.00,1.5745
4472.00,1.5713
4471.00,1.5676
4470.00,1.5634
4469.00,1.5586
4468.00,1.5534
4467.00,1.5478
4466.00,1.5416
4465.00,1.5348
4464.00,1.5272
4463.00,1.5188
4462.00,1.5098
4461.00,1.5003
4460.00,1.4904
4459.00,1.4800
4458.00,1.4689
4457.00,1.4573
4456.00,1.4451
4455.00,1.4324
4454.00,1.4192
4453.00,1.4053
4452.00,1.3906
4451.00,1.3750
4450.00,1.3588
4449.00,1.3419
4448.00,1.3243
4447.00,1.3061
4446.00,1.2871
4445.00,1.2673
4444.00,1.2470
4443.00,1.2261
4442.00,1.2047
4441.00,1.1830
4440.00,1.1608
4439.00,1.1382
4438.00,1.1153
4437.00,1.0923
4436.00,1.0694
4435.00,1.0465
4434.00,1.0238
4433.00,1.0013
4432.00,0.9792
4431.00,0.9577
4430.00,0.9370
4429.00,0.9171
4428.00,0.8981
4427.00,0.8802
4426.00,0.8636
4425.00,0.8484
4424.00,0.8347
4423.00,0.8227
4422.00,0.8122
4421.00,0.8035
4420.00,0.7967
4419.00,0.7917
4418.00,0.7887
4417.00,0.7877
4416.00,0.7886
4415.00,0.7915
4414.00,0.7962
4413.00,0.8028
4412.00,0.8113
4411.00,0.8216
4410.00,0.8335
4409.00,0.8469
4408.00,0.8616
4407.00,0.8774
4406.00,0.8944
4405.00,0.9125
4404.00,0.9314
4403.00,0.9510
4402.00,0.9711
4401.00,0.9916
4400.00,1.0125
4399.00,1.0336
4398.00,1.0550
4397.00,1.0765
4396.00,1.0979
4395.00,1.1194
4394.00,1.1408
4393.00,1.1621
4392.00,1.1833
4391.00,1.2042
4390.00,1.2247
4389.00,1.2449
4388.00,1.2647
4387.00,1.2842
4386.00,1.3032
4385.00,1.3217
4384.00,1.3396
4383.00,1.3571
4382.00,1.3742
4381.00,1.3911
4380.00,1.4075
4379.00,1.4234
4378.00,1.4387
4377.00,1.4533
4376.00,1.4672
4375.00,1.4805
4374.00,1.4929
4373.00,1.5047
4372.00,1.5159
4371.00,1.5266
4370.00,1.5372
4369.00,1.5473
4368.00,1.5567
4367.00,1.5654
4366.00,1.5732
4365.00,1.5804
4364.00,1.5871
4363.00,1.5935
4362.00,1.5996
4361.00,1.6053
4360.00,1.6108
4359.00,1.6159
4358.00,1.6208
4357.00,1.6251
4356.00,1.6287
4355.00,1.6315
4354.00,1.6334
4353.00,1.6348
4352.00,1.6358
4351.00,1.6365
4350.00,1.6370
4349.00,1.6372
4348.00,1.6372
4347.00,1.6370
4346.00,1.6363
4345.00,1.6348
4344.00,1.6324
4343.00,1.6289
4342.00,1.6248
4341.00,1.6203
4340.00,1.6155
4339.00,1.6106
4338.00,1.6055
4337.00,1.5998
4336.00,1.5934
4335.00,1.5862
4334.00,1.5783
4333.00,1.5698
4332.00,1.5610
4331.00,1.5518
4330.00,1.5422
4329.00,1.5320
4328.00,1.5212
4327.00,1.5097
4326.00,1.4974
4325.00,1.4845
4324.00,1.4709
4323.00,1.4567
4322.00,1.4418
4321.00,1.4262
4320.00,1.4098
4319.00,1.3928
4318.00,1.3752
4317.00,1.3571
4316.00,1.3386
4315.00,1.3195
4314.00,1.2999
4313.00,1.2795
4312.00,1.2585
4311.00,1.2369
4310.00,1.2149
4309.00,1.1926
4308.00,1.1700
4307.00,1.1473
4306.00,1.1246
4305.00,1.1018
4304.00,1.0791
4303.00,1.0566
4302.00,1.0346
4301.00,1.0133
4300.00,0.9926
4299.00,0.9729
4298.00,0.9543
4297.00,0.9368
4296.00,0.9207
4295.00,0.9060
4294.00,0.8928
4293.00,0.8813
4292.00,0.8715
4291.00,0.8634
4290.00,0.8572
4289.00,0.8528
4288.00,0.8503
4287.00,0.8496
4286.00,0.8508
4285.00,0.8537
4284.00,0.8583
4283.00,0.8645
4282.00,0.8723
4281.00,0.8816
4280.00,0.8922
4279.00,0.9042
4278.00,0.9173
4277.00,0.9314
4276.00,0.9466
4275.00,0.9627
4274.00,0.9796
4273.00,0.9973
4272.00,1.0156
4271.00,1.0345
4270.00,1.0538
4269.00,1.0734
4268.00,1.0933
4267.00,1.1134
4266.00,1.1335
4265.00,1.1537
4264.00,1.1739
4263.00,1.1941
4262.00,1.2141
4261.00,1.2341
4260.00,1.2539
4259.00,1.2737
4258.00,1.2933
4257.00,1.3128
4256.00,1.3319
4255.00,1.3506
4254.00,1.3688
4253.00,1.3865
4252.00,1.4038
4251.00,1.4206
4250.00,1.4370
4249.00,1.4531
4248.00,1.4690
4247.00,1.4843
4246.00,1.4991
4245.00,1.5131
4244.00,1.5264
4243.00,1.5392
4242.00,1.5515
4241.00,1.5633
4240.00,1.5743
4239.00,1.5845
4238.00,1.5939
4237.00,1.6029
4236.00,1.6117
4235.00,1.6202
4234.00,1.6282
4233.00,1.6355
4232.00,1.6420
4231.00,1.6478
4230.00,1.6531
4229.00,1.6579
4228.00,1.6621
4227.00,1.6655
4226.00,1.6683
4225.00,1.6705
4224.00,1.6724
4223.00,1.6738
4222.00,1.6747
4221.00,1.6752
4220.00,1.6754
4219.00,1.6752
4218.00,1.6743
4217.00,1.6727
4216.00,1.6707
4215.00,1.6684
4214.00,1.6659
4213.00,1.6628
4212.00,1.6589
4211.00,1.6542
4210.00,1.6487
4209.00,1.6429
4208.00,1.6365
4207.00,1.6297
4206.00,1.6223
4205.00,1.6145
4204.00,1.6062
4203.00,1.5975
4202.00,1.5882
4201.00,1.5782
4200.00,1.5676
4199.00,1.5563
4198.00,1.5445
4197.00,1.5320
4196.00,1.5187
4195.00,1.5046
4194.00,1.4898
4193.00,1.4744
4192.00,1.4585
4191.00,1.4421
4190.00,1.4251
4189.00,1.4074
4188.00,1.3890
4187.00,1.3700
4186.00,1.3503
4185.00,1.3299
4184.00,1.3090
4183.00,1.2874
4182.00,1.2653
4181.00,1.2427
4180.00,1.2197
4179.00,1.1964
4178.00,1.1728
4177.00,1.1492
4176.00,1.1255
4175.00,1.1018
4174.00,1.0784
4173.00,1.0553
4172.00,1.0327
4171.00,1.0107
4170.00,0.9893
4169.00,0.9689
4168.00,0.9495
4167.00,0.9314
4166.00,0.9146
4165.00,0.8994
4164.00,0.8858
4163.00,0.8740
4162.00,0.8640
4161.00,0.8560
4160.00,0.8500
4159.00,0.8459
4158.00,0.8439
4157.00,0.8440
4156.00,0.8462
4155.00,0.8504
4154.00,0.8567
4153.00,0.8649
4152.00,0.8750
4151.00,0.8867
4150.00,0.9001
4149.00,0.9149
4148.00,0.9311
4147.00,0.9485
4146.00,0.9669
4145.00,0.9862
4144.00,1.0062
4143.00,1.0269
4142.00,1.0480
4141.00,1.0696
4140.00,1.0914
4139.00,1.1136
4138.00,1.1360
4137.00,1.1587
4136.00,1.1814
4135.00,1.2041
4134.00,1.2266
4133.00,1.2488
4132.00,1.2707
4131.00,1.2922
4130.00,1.3134
4129.00,1.3344
4128.00,1.3550
4127.00,1.3752
4126.00,1.3949
4125.00,1.4140
4124.00,1.4326
4123.00,1.4508
4122.00,1.4686
4121.00,1.4859
4120.00,1.5026
4119.00,1.5185
4118.00,1.5335
4117.00,1.5479
4116.00,1.5617
4115.00,1.5751
4114.00,1.5881
4113.00,1.6005
4112.00,1.6121
4111.00,1.6230
4110.00,1.6333
4109.00,1.6430
4108.00,1.6523
4107.00,1.6610
4106.00,1.6690
4105.00,1.6764
4104.00,1.6831
4103.00,1.6895
4102.00,1.6953
4101.00,1.7007
4100.00,1.7055
4099.00,1.7098
4098.00,1.7134
4097.00,1.7164
4096.00,1.7189
4095.00,1.7210
4094.00,1.7228
4093.00,1.7243
4092.00,1.7253
4091.00,1.7257
4090.00,1.7254
4089.00,1.7243
4088.00,1.7227
4087.00,1.7204
4086.00,1.7176
4085.00,1.7143
4084.00,1.7108
4083.00,1.7071
4082.00,1.7030
4081.00,1.6982
4080.00,1.6926
4079.00,1.6861
4078.00,1.6792
4077.00,1.6722
4076.00,1.6649
4075.00,1.6570
4074.00,1.6483
4073.00,1.6386
4072.00,1.6281
4071.00,1.6168
4070.00,1.6050
4069.00,1.5927
4068.00,1.5800
4067.00,1.5669
4066.00,1.5531
4065.00,1.5386
4064.00,1.5230
4063.00,1.5065
4062.00,1.4891
4061.00,1.4711
4060.00,1.4525
4059.00,1.4332
4058.00,1.4133
4057.00,1.3925
4056.00,1.3707
4055.00,1.3483
4054.00,1.3252
4053.00,1.3015
4052.00,1.2773
4051.00,1.2527
4050.00,1.2275
4049.00,1.2020
4048.00,1.1764
4047.00,1.1506
4046.00,1.1249
4045.00,1.0993
4044.00,1.0740
4043.00,1.0493
4042.00,1.0252
4041.00,1.0020
4040.00,0.9797
4039.00,0.9584
4038.00,0.9385
4037.00,0.9201
4036.00,0.9035
4035.00,0.8886
4034.00,0.8757
4033.00,0.8649
4032.00,0.8562
4031.00,0.8499
4030.00,0.8461
4029.00,0.8447
4028.00,0.8458
4027.00,0.8493
4026.00,0.8552
4025.00,0.8635
4024.00,0.8740
4023.00,0.8866
4022.00,0.9010
4021.00,0.9171
4020.00,0.9347
4019.00,0.9537
4018.00,0.9738
4017.00,0.9949
4016.00,1.0167
4015.00,1.0390
4014.00,1.0618
4013.00,1.0849
4012.00,1.1083
4011.00,1.1319
4010.00,1.1557
4009.00,1.1796
4008.00,1.2036
4007.00,1.2275
4006.00,1.2512
4005.00,1.2747
4004.00,1.2980
4003.00,1.3209
4002.00,1.3436
4001.00,1.3658
4000.00,1.3877
3999.00,1.4090
3998.00,1.4298
3997.00,1.4501
3996.00,1.4698
3995.00,1.4890
3994.00,1.5075
3993.00,1.5254
3992.00,1.5427
3991.00,1.5595
3990.00,1.5757
3989.00,1.5914
3988.00,1.6064
3987.00,1.6206
3986.00,1.6339
3985.00,1.6465
3984.00,1.6584
3983.00,1.6697
3982.00,1.6804
3981.00,1.6903
3980.00,1.6995
3979.00,1.7079
3978.00,1.7159
3977.00,1.7236
3976.00,1.7311
3975.00,1.7383
3974.00,1.7446
3973.00,1.7498
3972.00,1.7540
3971.00,1.7575
3970.00,1.7607
3969.00,1.7635
3968.00,1.7660
3967.00,1.7681
3966.00,1.7697
3965.00,1.7709
3964.00,1.7717
3963.00,1.7719
3962.00,1.7717
3961.00,1.7710
3960.00,1.7698
3959.00,1.7679
3958.00,1.7652
3957.00,1.7617
3956.00,1.7577
3955.00,1.7534
3954.00,1.7488
3953.00,1.7437
3952.00,1.7380
3951.00,1.7318
3950.00,1.7251
3949.00,1.7180
3948.00,1.7103
3947.00,1.7020
3946.00,1.6927
3945.00,1.6827
3944.00,1.6721
3943.00,1.6609
3942.00,1.6494
3941.00,1.6375
3940.00,1.6249
3939.00,1.6114
3938.00,1.5970
3937.00,1.5821
3936.00,1.5669
3935.00,1.5511
3934.00,1.5345
3933.00,1.5166
3932.00,1.4976
3931.00,1.4778
3930.00,1.4577
3929.00,1.4373
3928.00,1.4164
3927.00,1.3948
3926.00,1.3721
3925.00,1.3481
3924.00,1.3230
3923.00,1.2972
3922.00,1.2709
3921.00,1.2441
3920.00,1.2164
3919.00,1.1879
3918.00,1.1585
3917.00,1.1287
3916.00,1.0990
3915.00,1.0699
3914.00,1.0419
3913.00,1.0152
3912.00,0.9898
3911.00,0.9656
3910.00,0.9429
3909.00,0.9219
3908.00,0.9028
3907.00,0.8857
3906.00,0.8706
3905.00,0.8573
3904.00,0.8459
3903.00,0.8366
3902.00,0.8299
3901.00,0.8260
3900.00,0.8252
3899.00,0.8278
3898.00,0.8337
3897.00,0.8430
3896.00,0.8553
3895.00,0.8700
3894.00,0.8870
3893.00,0.9062
3892.00,0.9274
3891.00,0.9503
3890.00,0.9739
3889.00,0.9973
3888.00,1.0203
3887.00,1.0437
3886.00,1.0689
3885.00,1.0959
3884.00,1.1234
3883.00,1.1501
3882.00,1.1761
3881.00,1.2022
3880.00,1.2293
3879.00,1.2570
3878.00,1.2842
3877.00,1.3097
3876.00,1.3337
3875.00,1.3572
3874.00,1.3809
3873.00,1.4045
3872.00,1.4276
3871.00,1.4503
3870.00,1.4730
3869.00,1.4955
3868.00,1.5173
3867.00,1.5376
3866.00,1.5566
3865.00,1.5748
3864.00,1.5928
3863.00,1.6109
3862.00,1.6285
3861.00,1.6454
3860.00,1.6610
3859.00,1.6753
3858.00,1.6882
3857.00,1.6997
3856.00,1.7100
3855.00,1.7193
3854.00,1.7282
3853.00,1.7371
3852.00,1.7458
3851.00,1.7543
3850.00,1.7627
3849.00,1.7711
3848.00,1.7796
3847.00,1.7883
3846.00,1.7963
3845.00,1.8027
3844.00,1.8076
3843.00,1.8118
3842.00,1.8158
3841.00,1.8194
3840.00,1.8222
3839.00,1.8237
3838.00,1.8245
3837.00,1.8250
3836.00,1.8253
3835.00,1.8249
3834.00,1.8235
3833.00,1.8211
3832.00,1.8186
3831.00,1.8162
3830.00,1.8141
3829.00,1.8119
3828.00,1.8090
3827.00,1.8053
3826.00,1.8011
3825.00,1.7966
3824.00,1.7915
3823.00,1.7853
3822.00,1.7770
3821.00,1.7669
3820.00,1.7561
3819.00,1.7460
3818.00,1.7366
3817.00,1.7266
3816.00,1.7151
3815.00,1.7025
3814.00,1.6896
3813.00,1.6765
3812.00,1.6629
3811.00,1.6491
3810.00,1.6353
3809.00,1.6211
3808.00,1.6050
3807.00,1.5863
3806.00,1.5658
3805.00,1.5451
3804.00,1.5249
3803.00,1.5039
3802.00,1.4804
3801.00,1.4547
3800.00,1.4282
3799.00,1.4023
3798.00,1.3764
3797.00,1.3493
3796.00,1.3211
3795.00,1.2926
3794.00,1.2643
3793.00,1.2355
3792.00,1.2060
3791.00,1.1760
3790.00,1.1462
3789.00,1.1168
3788.00,1.0880
3787.00,1.0596
3786.00,1.0320
3785.00,1.0054
3784.00,0.9804
3783.00,0.9576
3782.00,0.9371
3781.00,0.9185
3780.00,0.9016
3779.00,0.8866
3778.00,0.8742
3777.00,0.8651
3776.00,0.8594
3775.00,0.8568
3774.00,0.8574
3773.00,0.8610
3772.00,0.8678
3771.00,0.8775
3770.00,0.8899
3769.00,0.9045
3768.00,0.9211
3767.00,0.9394
3766.00,0.9598
3765.00,0.9824
3764.00,1.0067
3763.00,1.0319
3762.00,1.0574
3761.00,1.0835
3760.00,1.1106
3759.00,1.1387
3758.00,1.1674
3757.00,1.1960
3756.00,1.2237
3755.00,1.2501
3754.00,1.2754
3753.00,1.3005
3752.00,1.3263
3751.00,1.3531
3750.00,1.3809
3749.00,1.4090
3748.00,1.4358
3747.00,1.4602
3746.00,1.4828
3745.00,1.5057
3744.00,1.5302
3743.00,1.5550
3742.00,1.5780
3741.00,1.5988
3740.00,1.6185
3739.00,1.6382
3738.00,1.6579
3737.00,1.6765
3736.00,1.6933
3735.00,1.7086
3734.00,1.7229
3733.00,1.7372
3732.00,1.7516
3731.00,1.7654
3730.00,1.7778
3729.00,1.7887
3728.00,1.7984
3727.00,1.8074
3726.00,1.8161
3725.00,1.8246
3724.00,1.8326
3723.00,1.8402
3722.00,1.8475
3721.00,1.8548
3720.00,1.8622
3719.00,1.8694
3718.00,1.8764
3717.00,1.8834
3716.00,1.8906
3715.00,1.8977
3714.00,1.9043
3713.00,1.9101
3712.00,1.9149
3711.00,1.9187
3710.00,1.9222
3709.00,1.9259
3708.00,1.9295
3707.00,1.9322
3706.00,1.9334
3705.00,1.9328
3704.00,1.9298
3703.00,1.9243
3702.00,1.9166
3701.00,1.9073
3700.00,1.8967
3699.00,1.8844
3698.00,1.8703
3697.00,1.8561
3696.00,1.8438
3695.00,1.8343
3694.00,1.8262
3693.00,1.8169
3692.00,1.8057
3691.00,1.7941
3690.00,1.7838
3689.00,1.7748
3688.00,1.7657
3687.00,1.7552
3686.00,1.7434
3685.00,1.7303
3684.00,1.7161
3683.00,1.7012
3682.00,1.6851
3681.00,1.6674
3680.00,1.6477
3679.00,1.6265
3678.00,1.6038
3677.00,1.5791
3676.00,1.5512
3675.00,1.5207
3674.00,1.4903
3673.00,1.4620
3672.00,1.4352
3671.00,1.4078
3670.00,1.3794
3669.00,1.3512
3668.00,1.3248
3667.00,1.3004
3666.00,1.2779
3665.00,1.2568
3664.00,1.2375
3663.00,1.2202
3662.00,1.2046
3661.00,1.1905
3660.00,1.1783
3659.00,1.1682
3658.00,1.1603
3657.00,1.1544
3656.00,1.1502
3655.00,1.1478
3654.00,1.1475
3653.00,1.1500
3652.00,1.1551
3651.00,1.1629
3650.00,1.1730
3649.00,1.1848
3648.00,1.1981
3647.00,1.2131
3646.00,1.2297
3645.00,1.2473
3644.00,1.2659
3643.00,1.2859
3642.00,1.3071
3641.00,1.3293
3640.00,1.3518
3639.00,1.3743
3638.00,1.3966
3637.00,1.4187
3636.00,1.4407
3635.00,1.4627
3634.00,1.4844
3633.00,1.5056
3632.00,1.5260
3631.00,1.5457
3630.00,1.5654
3629.00,1.5856
3628.00,1.6061
3627.00,1.6262
3626.00,1.6456
3625.00,1.6644
3624.00,1.6832
3623.00,1.7023
3622.00,1.7214
3621.00,1.7399
3620.00,1.7577
3619.00,1.7751
3618.00,1.7922
3617.00,1.8091
3616.00,1.8259
3615.00,1.8428
3614.00,1.8597
3613.00,1.8766
3612.00,1.8935
3611.00,1.9098
3610.00,1.9254
3609.00,1.9398
3608.00,1.9532
3607.00,1.9656
3606.00,1.9771
3605.00,1.9879
3604.00,1.9981
3603.00,2.0075
3602.00,2.0160
3601.00,2.0232
3600.00,2.0289
3599.00,2.0331
3598.00,2.0359
3597.00,2.0373
3596.00,2.0376
3595.00,2.0380
3594.00,2.0396
3593.00,2.0429
3592.00,2.0468
3591.00,2.0498
3590.00,2.0515
3589.00,2.0528
3588.00,2.0551
3587.00,2.0589
3586.00,2.0638
3585.00,2.0688
3584.00,2.0729
3583.00,2.0755
3582.00,2.0769
3581.00,2.0779
3580.00,2.0783
3579.00,2.0777
3578.00,2.0756
3577.00,2.0724
3576.00,2.0686
3575.00,2.0644
3574.00,2.0594
3573.00,2.0537
3572.00,2.0475
3571.00,2.0411
3570.00,2.0346
3569.00,2.0277
3568.00,2.0201
3567.00,2.0114
3566.00,2.0023
3565.00,1.9935
3564.00,1.9855
3563.00,1.9779
3562.00,1.9700
3561.00,1.9617
3560.00,1.9528
3559.00,1.9435
3558.00,1.9338
3557.00,1.9240
3556.00,1.9143
3555.00,1.9046
3554.00,1.8949
3553.00,1.8849
3552.00,1.8745
3551.00,1.8637
3550.00,1.8528
3549.00,1.8419
3548.00,1.8308
3547.00,1.8196
3546.00,1.8082
3545.00,1.7968
3544.00,1.7856
3543.00,1.7743
3542.00,1.7631
3541.00,1.7522
3540.00,1.7416
3539.00,1.7313
3538.00,1.7210
3537.00,1.7108
3536.00,1.7009
3535.00,1.6913
3534.00,1.6821
3533.00,1.6733
3532.00,1.6649
3531.00,1.6569
3530.00,1.6493
3529.00,1.6424
3528.00,1.6364
3527.00,1.6310
3526.00,1.6262
3525.00,1.6217
3524.00,1.6176
3523.00,1.6142
3522.00,1.6116
3521.00,1.6099
3520.00,1.6090
3519.00,1.6087
3518.00,1.6089
3517.00,1.6097
3516.00,1.6111
3515.00,1.6133
3514.00,1.6161
3513.00,1.6196
3512.00,1.6236
3511.00,1.6281
3510.00,1.6332
3509.00,1.6390
3508.00,1.6454
3507.00,1.6523
3506.00,1.6595
3505.00,1.6670
3504.00,1.6752
3503.00,1.6842
3502.00,1.6938
3501.00,1.7038
3500.00,1.7139
3499.00,1.7242
3498.00,1.7347
3497.00,1.7455
3496.00,1.7567
3495.00,1.7682
3494.00,1.7798
3493.00,1.7915
3492.00,1.8032
3491.00,1.8149
3490.00,1.8265
3489.00,1.8382
3488.00,1.8501
3487.00,1.8619
3486.00,1.8735
3485.00,1.8850
3484.00,1.8965
3483.00,1.9080
3482.00,1.9193
3481.00,1.9303
3480.00,1.9413
3479.00,1.9524
3478.00,1.9636
3477.00,1.9746
3476.00,1.9849
3475.00,1.9943
3474.00,2.0030
3473.00,2.0114
3472.00,2.0197
3471.00,2.0279
3470.00,2.0359
3469.00,2.0437
3468.00,2.0512
3467.00,2.0585
3466.00,2.0657
3465.00,2.0727
3464.00,2.0795
3463.00,2.0858
3462.00,2.0913
3461.00,2.0958
3460.00,2.0996
3459.00,2.1032
3458.00,2.1067
3457.00,2.1100
3456.00,2.1129
3455.00,2.1151
3454.00,2.1167
3453.00,2.1181
3452.00,2.1198
3451.00,2.1214
3450.00,2.1226
3449.00,2.1231
3448.00,2.1232
3447.00,2.1229
3446.00,2.1224
3445.00,2.1216
3444.00,2.1206
3443.00,2.1191
3442.00,2.1167
3441.00,2.1132
3440.00,2.1091
3439.00,2.1052
3438.00,2.1016
3437.00,2.0977
3436.00,2.0932
3435.00,2.0880
3434.00,2.0822
3433.00,2.0759
3432.00,2.0691
3431.00,2.0619
3430.00,2.0544
3429.00,2.0467
3428.00,2.0386
3427.00,2.0303
3426.00,2.0220
3425.00,2.0140
3424.00,2.0060
3423.00,1.9977
3422.00,1.9887
3421.00,1.9791
3420.00,1.9693
3419.00,1.9597
3418.00,1.9505
3417.00,1.9412
3416.00,1.9316
3415.00,1.9216
3414.00,1.9117
3413.00,1.9019
3412.00,1.8921
3411.00,1.8824
3410.00,1.8727
3409.00,1.8631
3408.00,1.8535
3407.00,1.8435
3406.00,1.8328
3405.00,1.8213
3404.00,1.8091
3403.00,1.7962
3402.00,1.7828
3401.00,1.7689
3400.00,1.7544
3399.00,1.7391
3398.00,1.7229
3397.00,1.7060
3396.00,1.6889
3395.00,1.6719
3394.00,1.6552
3393.00,1.6390
3392.00,1.6231
3391.00,1.6075
3390.00,1.5923
3389.00,1.5780
3388.00,1.5648
3387.00,1.5530
3386.00,1.5425
3385.00,1.5333
3384.00,1.5253
3383.00,1.5186
3382.00,1.5134
3381.00,1.5098
3380.00,1.5079
3379.00,1.5077
3378.00,1.5091
3377.00,1.5121
3376.00,1.5167
3375.00,1.5229
3374.00,1.5304
3373.00,1.5393
3372.00,1.5494
3371.00,1.5608
3370.00,1.5733
3369.00,1.5870
3368.00,1.6015
3367.00,1.6168
3366.00,1.6326
3365.00,1.6489
3364.00,1.6655
3363.00,1.6823
3362.00,1.6994
3361.00,1.7166
3360.00,1.7340
3359.00,1.7516
3358.00,1.7694
3357.00,1.7870
3356.00,1.8044
3355.00,1.8211
3354.00,1.8373
3353.00,1.8533
3352.00,1.8694
3351.00,1.8855
3350.00,1.9015
3349.00,1.9169
3348.00,1.9317
3347.00,1.9457
3346.00,1.9590
3345.00,1.9717
3344.00,1.9842
3343.00,1.9965
3342.00,2.0086
3341.00,2.0199
3340.00,2.0304
3339.00,2.0400
3338.00,2.0490
3337.00,2.0575
3336.00,2.0655
3335.00,2.0730
3334.00,2.0800
3333.00,2.0867
3332.00,2.0931
3331.00,2.0989
3330.00,2.1042
3329.00,2.1091
3328.00,2.1136
3327.00,2.1177
3326.00,2.1213
3325.00,2.1247
3324.00,2.1277
3323.00,2.1303
3322.00,2.1322
3321.00,2.1336
3320.00,2.1344
3319.00,2.1347
3318.00,2.1345
3317.00,2.1340
3316.00,2.1329
3315.00,2.1310
3314.00,2.1286
3313.00,2.1259
3312.00,2.1232
3311.00,2.1201
3310.00,2.1159
3309.00,2.1106
3308.00,2.1043
3307.00,2.0977
3306.00,2.0913
3305.00,2.0849
3304.00,2.0780
3303.00,2.0704
3302.00,2.0622
3301.00,2.0537
3300.00,2.0451
3299.00,2.0362
3298.00,2.0267
3297.00,2.0166
3296.00,2.0059
3295.00,1.9948
3294.00,1.9831
3293.00,1.9705
3292.00,1.9569
3291.00,1.9424
3290.00,1.9274
3289.00,1.9124
3288.00,1.8972
3287.00,1.8815
3286.00,1.8650
3285.00,1.8478
3284.00,1.8304
3283.00,1.8129
3282.00,1.7954
3281.00,1.7776
3280.00,1.7594
3279.00,1.7409
3278.00,1.7223
3277.00,1.7037
3276.00,1.6853
3275.00,1.6671
3274.00,1.6491
3273.00,1.6315
3272.00,1.6143
3271.00,1.5976
3270.00,1.5816
3269.00,1.5664
3268.00,1.5523
3267.00,1.5394
3266.00,1.5278
3265.00,1.5175
3264.00,1.5086
3263.00,1.5011
3262.00,1.4951
3261.00,1.4906
3260.00,1.4877
3259.00,1.4864
3258.00,1.4868
3257.00,1.4889
3256.00,1.4928
3255.00,1.4983
3254.00,1.5054
3253.00,1.5139
3252.00,1.5236
3251.00,1.5346
3250.00,1.5467
3249.00,1.5598
3248.00,1.5739
3247.00,1.5887
3246.00,1.6044
3245.00,1.6207
3244.00,1.6378
3243.00,1.6556
3242.00,1.6738
3241.00,1.6922
3240.00,1.7107
3239.00,1.7291
3238.00,1.7475
3237.00,1.7658
3236.00,1.7839
3235.00,1.8020
3234.00,1.8200
3233.00,1.8380
3232.00,1.8559
3231.00,1.8738
3230.00,1.8916
3229.00,1.9088
3228.00,1.9251
3227.00,1.9407
3226.00,1.9558
3225.00,1.9706
3224.00,1.9854
3223.00,2.0000
3222.00,2.0139
3221.00,2.0270
3220.00,2.0394
3219.00,2.0514
3218.00,2.0631
3217.00,2.0744
3216.00,2.0851
3215.00,2.0951
3214.00,2.1050
3213.00,2.1148
3212.00,2.1241
3211.00,2.1325
3210.00,2.1400
3209.00,2.1470
3208.00,2.1539
3207.00,2.1607
3206.00,2.1673
3205.00,2.1733
3204.00,2.1783
3203.00,2.1823
3202.00,2.1855
3201.00,2.1882
3200.00,2.1907
3199.00,2.1934
3198.00,2.1966
3197.00,2.2001
3196.00,2.2034
3195.00,2.2056
3194.00,2.2062
3193.00,2.2054
3192.00,2.2036
3191.00,2.2015
3190.00,2.1994
3189.00,2.1972
3188.00,2.1946
3187.00,2.1913
3186.00,2.1877
3185.00,2.1842
3184.00,2.1810
3183.00,2.1776
3182.00,2.1733
3181.00,2.1680
3180.00,2.1621
3179.00,2.1560
3178.00,2.1495
3177.00,2.1424
3176.00,2.1346
3175.00,2.1262
3174.00,2.1171
3173.00,2.1073
3172.00,2.0967
3171.00,2.0855
3170.00,2.0739
3169.00,2.0624
3168.00,2.0508
3167.00,2.0390
3166.00,2.0265
3165.00,2.0130
3164.00,1.9986
3163.00,1.9835
3162.00,1.9677
3161.00,1.9514
3160.00,1.9345
3159.00,1.9173
3158.00,1.8999
3157.00,1.8823
3156.00,1.8643
3155.00,1.8458
3154.00,1.8269
3153.00,1.8079
3152.00,1.7891
3151.00,1.7702
3150.00,1.7514
3149.00,1.7325
3148.00,1.7139
3147.00,1.6956
3146.00,1.6781
3145.00,1.6614
3144.00,1.6452
3143.00,1.6298
3142.00,1.6154
3141.00,1.6021
3140.00,1.5902
3139.00,1.5797
3138.00,1.5707
3137.00,1.5633
3136.00,1.5576
3135.00,1.5539
3134.00,1.5520
3133.00,1.5521
3132.00,1.5542
3131.00,1.5580
3130.00,1.5636
3129.00,1.5709
3128.00,1.5798
3127.00,1.5902
3126.00,1.6022
3125.00,1.6155
3124.00,1.6300
3123.00,1.6455
3122.00,1.6618
3121.00,1.6791
3120.00,1.6974
3119.00,1.7164
3118.00,1.7358
3117.00,1.7552
3116.00,1.7746
3115.00,1.7942
3114.00,1.8139
3113.00,1.8336
3112.00,1.8531
3111.00,1.8724
3110.00,1.8918
3109.00,1.9110
3108.00,1.9299
3107.00,1.9481
3106.00,1.9654
3105.00,1.9823
3104.00,1.9993
3103.00,2.0164
3102.00,2.0333
3101.00,2.0493
3100.00,2.0641
3099.00,2.0778
3098.00,2.0906
3097.00,2.1029
3096.00,2.1148
3095.00,2.1266
3094.00,2.1383
3093.00,2.1498
3092.00,2.1611
3091.00,2.1721
3090.00,2.1824
3089.00,2.1916
3088.00,2.1998
3087.00,2.2074
3086.00,2.2149
3085.00,2.2220
3084.00,2.2283
3083.00,2.2340
3082.00,2.2396
3081.00,2.2454
3080.00,2.2510
3079.00,2.2555
3078.00,2.2583
3077.00,2.2597
3076.00,2.2602
3075.00,2.2606
3074.00,2.2610
3073.00,2.2614
3072.00,2.2616
3071.00,2.2612
3070.00,2.2600
3069.00,2.2575
3068.00,2.2538
3067.00,2.2490
3066.00,2.2439
3065.00,2.2387
3064.00,2.2336
3063.00,2.2284
3062.00,2.2230
3061.00,2.2168
3060.00,2.2093
3059.00,2.2004
3058.00,2.1906
3057.00,2.1806
3056.00,2.1704
3055.00,2.1593
3054.00,2.1471
3053.00,2.1337
3052.00,2.1195
3051.00,2.1045
3050.00,2.0890
3049.00,2.0729
3048.00,2.0560
3047.00,2.0381
3046.00,2.0192
3045.00,1.9995
3044.00,1.9793
3043.00,1.9585
3042.00,1.9368
3041.00,1.9142
3040.00,1.8912
3039.00,1.8684
3038.00,1.8459
3037.00,1.8238
3036.00,1.8021
3035.00,1.7810
3034.00,1.7609
3033.00,1.7420
3032.00,1.7249
3031.00,1.7098
3030.00,1.6968
3029.00,1.6860
3028.00,1.6775
3027.00,1.6714
3026.00,1.6682
3025.00,1.6678
3024.00,1.6704
3023.00,1.6758
3022.00,1.6841
3021.00,1.6952
3020.00,1.7092
3019.00,1.7257
3018.00,1.7448
3017.00,1.7660
3016.00,1.7890
3015.00,1.8134
3014.00,1.8392
3013.00,1.8661
3012.00,1.8943
3011.00,1.9231
3010.00,1.9522
3009.00,1.9811
3008.00,2.0099
3007.00,2.0386
3006.00,2.0672
3005.00,2.0956
3004.00,2.1236
3003.00,2.1512
3002.00,2.1781
3001.00,2.2037
3000.00,2.2277
2999.00,2.2503
2998.00,2.2719
2997.00,2.2930
2996.00,2.3134
2995.00,2.3325
2994.00,2.3500
2993.00,2.3656
2992.00,2.3793
2991.00,2.3915
2990.00,2.4025
2989.00,2.4126
2988.00,2.4217
2987.00,2.4301
2986.00,2.4382
2985.00,2.4463
2984.00,2.4551
2983.00,2.4651
2982.00,2.4767
2981.00,2.4901
2980.00,2.5051
2979.00,2.5223
2978.00,2.5433
2977.00,2.5709
2976.00,2.6069
2975.00,2.6517
2974.00,2.7037
2973.00,2.7603
2972.00,2.8196
2971.00,2.8824
2970.00,2.9517
2969.00,3.0308
2968.00,3.1205
2967.00,3.2180
2966.00,3.3185
2965.00,3.4181
2964.00,3.5163
2963.00,3.6147
2962.00,3.7134
2961.00,3.8114
2960.00,3.9106
2959.00,4.0234
2958.00,4.1699
2957.00,4.3643
2956.00,4.5847
2955.00,4.6949
2954.00,4.5632
2953.00,4.3440
2952.00,4.1739
2951.00,4.0869
2950.00,4.0816
2949.00,4.1381
2948.00,4.2217
2947.00,4.3061
2946.00,4.3827
2945.00,4.4235
2944.00,4.4037
2943.00,4.3508
2942.00,4.2951
2941.00,4.2597
2940.00,4.2756
2939.00,4.3890
2938.00,4.6448
2937.00,4.8496
2936.00,4.6477
2935.00,4.4061
2934.00,4.2848
2933.00,4.2853
2932.00,4.3811
2931.00,4.5064
2930.00,4.4501
2929.00,4.2983
2928.00,4.2233
2927.00,4.2813
2926.00,4.4471
2925.00,4.6811
2924.00,4.7451
2923.00,4.4551
2922.00,4.1831
2921.00,3.9990
2920.00,3.8802
2919.00,3.7898
2918.00,3.7095
2917.00,3.6334
2916.00,3.5619
2915.00,3.4994
2914.00,3.4457
2913.00,3.3957
2912.00,3.3443
2911.00,3.2915
2910.00,3.2416
2909.00,3.1977
2908.00,3.1599
2907.00,3.1278
2906.00,3.1022
2905.00,3.0831
2904.00,3.0671
2903.00,3.0489
2902.00,3.0265
2901.00,3.0032
2900.00,2.9841
2899.00,2.9707
2898.00,2.9606
2897.00,2.9507
2896.00,2.9397
2895.00,2.9283
2894.00,2.9171
2893.00,2.9065
2892.00,2.8972
2891.00,2.8894
2890.00,2.8827
2889.00,2.8763
2888.00,2.8708
2887.00,2.8685
2886.00,2.8706
2885.00,2.8760
2884.00,2.8828
2883.00,2.8907
2882.00,2.9018
2881.00,2.9176
2880.00,2.9385
2879.00,2.9638
2878.00,2.9940
2877.00,3.0294
2876.00,3.0692
2875.00,3.1126
2874.00,3.1603
2873.00,3.2150
2872.00,3.2782
2871.00,3.3475
2870.00,3.4178
2869.00,3.4854
2868.00,3.5530
2867.00,3.6280
2866.00,3.7141
2865.00,3.8001
2864.00,3.8583
2863.00,3.8693
2862.00,3.8455
2861.00,3.8081
2860.00,3.7623
2859.00,3.7052
2858.00,3.6370
2857.00,3.5588
2856.00,3.4690
2855.00,3.3667
2854.00,3.2571
2853.00,3.1493
2852.00,3.0509
2851.00,2.9650
2850.00,2.8906
2849.00,2.8258
2848.00,2.7690
2847.00,2.7199
2846.00,2.6780
2845.00,2.6423
2844.00,2.6112
2843.00,2.5832
2842.00,2.5572
2841.00,2.5319
2840.00,2.5065
2839.00,2.4811
2838.00,2.4557
2837.00,2.4306
2836.00,2.4055
2835.00,2.3803
2834.00,2.3553
2833.00,2.3304
2832.00,2.3054
2831.00,2.2801
2830.00,2.2544
2829.00,2.2286
2828.00,2.2023
2827.00,2.1750
2826.00,2.1462
2825.00,2.1154
2824.00,2.0827
2823.00,2.0481
2822.00,2.0119
2821.00,1.9744
2820.00,1.9359
2819.00,1.8972
2818.00,1.8590
2817.00,1.8223
2816.00,1.7880
2815.00,1.7569
2814.00,1.7298
2813.00,1.7075
2812.00,1.6905
2811.00,1.6790
2810.00,1.6730
2809.00,1.6722
2808.00,1.6765
2807.00,1.6855
2806.00,1.6992
2805.00,1.7171
2804.00,1.7386
2803.00,1.7632
2802.00,1.7903
2801.00,1.8190
2800.00,1.8484
2799.00,1.8777
2798.00,1.9063
2797.00,1.9339
2796.00,1.9603
2795.00,1.9854
2794.00,2.0095
2793.00,2.0333
2792.00,2.0570
2791.00,2.0804
2790.00,2.1033
2789.00,2.1256
2788.00,2.1476
2787.00,2.1690
2786.00,2.1898
2785.00,2.2095
2784.00,2.2280
2783.00,2.2455
2782.00,2.2622
2781.00,2.2784
2780.00,2.2938
2779.00,2.3080
2778.00,2.3210
2777.00,2.3327
2776.00,2.3429
2775.00,2.3517
2774.00,2.3597
2773.00,2.3677
2772.00,2.3760
2771.00,2.3842
2770.00,2.3914
2769.00,2.3974
2768.00,2.4019
2767.00,2.4053
2766.00,2.4080
2765.00,2.4102
2764.00,2.4120
2763.00,2.4134
2762.00,2.4139
2761.00,2.4131
2760.00,2.4113
2759.00,2.4085
2758.00,2.4056
2757.00,2.4025
2756.00,2.3988
2755.00,2.3938
2754.00,2.3876
2753.00,2.3808
2752.00,2.3735
2751.00,2.3656
2750.00,2.3569
2749.00,2.3476
2748.00,2.3383
2747.00,2.3285
2746.00,2.3175
2745.00,2.3045
2744.00,2.2899
2743.00,2.2743
2742.00,2.2584
2741.00,2.2420
2740.00,2.2247
2739.00,2.2061
2738.00,2.1864
2737.00,2.1660
2736.00,2.1447
2735.00,2.1222
2734.00,2.0984
2733.00,2.0733
2732.00,2.0472
2731.00,2.0201
2730.00,1.9917
2729.00,1.9617
2728.00,1.9299
2727.00,1.8964
2726.00,1.8616
2725.00,1.8255
2724.00,1.7884
2723.00,1.7502
2722.00,1.7114
2721.00,1.6724
2720.00,1.6338
2719.00,1.5959
2718.00,1.5590
2717.00,1.5237
2716.00,1.4905
2715.00,1.4600
2714.00,1.4326
2713.00,1.4090
2712.00,1.3896
2711.00,1.3745
2710.00,1.3643
2709.00,1.3592
2708.00,1.3594
2707.00,1.3649
2706.00,1.3754
2705.00,1.3908
2704.00,1.4106
2703.00,1.4343
2702.00,1.4613
2701.00,1.4911
2700.00,1.5233
2699.00,1.5573
2698.00,1.5926
2697.00,1.6288
2696.00,1.6656
2695.00,1.7026
2694.00,1.7395
2693.00,1.7762
2692.00,1.8127
2691.00,1.8492
2690.00,1.8853
2689.00,1.9208
2688.00,1.9553
2687.00,1.9887
2686.00,2.0209
2685.00,2.0522
2684.00,2.0824
2683.00,2.1116
2682.00,2.1393
2681.00,2.1656
2680.00,2.1902
2679.00,2.2125
2678.00,2.2328
2677.00,2.2510
2676.00,2.2677
2675.00,2.2827
2674.00,2.2963
2673.00,2.3091
2672.00,2.3219
2671.00,2.3348
2670.00,2.3472
2669.00,2.3585
2668.00,2.3686
2667.00,2.3777
2666.00,2.3859
2665.00,2.3934
2664.00,2.4009
2663.00,2.4090
2662.00,2.4175
2661.00,2.4261
2660.00,2.4340
2659.00,2.4407
2658.00,2.4463
2657.00,2.4516
2656.00,2.4573
2655.00,2.4637
2654.00,2.4703
2653.00,2.4765
2652.00,2.4815
2651.00,2.4849
2650.00,2.4864
2649.00,2.4862
2648.00,2.4855
2647.00,2.4855
2646.00,2.4866
2645.00,2.4875
2644.00,2.4873
2643.00,2.4861
2642.00,2.4845
2641.00,2.4828
2640.00,2.4804
2639.00,2.4769
2638.00,2.4725
2637.00,2.4679
2636.00,2.4630
2635.00,2.4575
2634.00,2.4509
2633.00,2.4435
2632.00,2.4355
2631.00,2.4269
2630.00,2.4176
2629.00,2.4075
2628.00,2.3967
2627.00,2.3857
2626.00,2.3746
2625.00,2.3631
2624.00,2.3508
2623.00,2.3371
2622.00,2.3217
2621.00,2.3049
2620.00,2.2876
2619.00,2.2709
2618.00,2.2548
2617.00,2.2382
2616.00,2.2203
2615.00,2.2008
2614.00,2.1801
2613.00,2.1585
2612.00,2.1360
2611.00,2.1123
2610.00,2.0872
2609.00,2.0611
2608.00,2.0341
2607.00,2.0058
2606.00,1.9758
2605.00,1.9437
2604.00,1.9094
2603.00,1.8731
2602.00,1.8355
2601.00,1.7967
2600.00,1.7571
2599.00,1.7170
2598.00,1.6766
2597.00,1.6364
2596.00,1.5969
2595.00,1.5588
2594.00,1.5230
2593.00,1.4901
2592.00,1.4606
2591.00,1.4349
2590.00,1.4135
2589.00,1.3966
2588.00,1.3845
2587.00,1.3773
2586.00,1.3750
2585.00,1.3777
2584.00,1.3854
2583.00,1.3979
2582.00,1.4147
2581.00,1.4355
2580.00,1.4598
2579.00,1.4872
2578.00,1.5173
2577.00,1.5495
2576.00,1.5834
2575.00,1.6186
2574.00,1.6544
2573.00,1.6905
2572.00,1.7267
2571.00,1.7626
2570.00,1.7980
2569.00,1.8328
2568.00,1.8672
2567.00,1.9013
2566.00,1.9350
2565.00,1.9681
2564.00,2.0003
2563.00,2.0315
2562.00,2.0615
2561.00,2.0905
2560.00,2.1184
2559.00,2.1455
2558.00,2.1715
2557.00,2.1965
2556.00,2.2202
2555.00,2.2428
2554.00,2.2644
2553.00,2.2850
2552.00,2.3042
2551.00,2.3224
2550.00,2.3401
2549.00,2.3575
2548.00,2.3740
2547.00,2.3892
2546.00,2.4039
2545.00,2.4191
2544.00,2.4342
2543.00,2.4478
2542.00,2.4590
2541.00,2.4686
2540.00,2.4778
2539.00,2.4868
2538.00,2.4951
2537.00,2.5027
2536.00,2.5101
2535.00,2.5177
2534.00,2.5256
2533.00,2.5333
2532.00,2.5403
2531.00,2.5459
2530.00,2.5492
2529.00,2.5503
2528.00,2.5505
2527.00,2.5515
2526.00,2.5541
2525.00,2.5575
2524.00,2.5605
2523.00,2.5626
2522.00,2.5637
2521.00,2.5638
2520.00,2.5626
2519.00,2.5603
2518.00,2.5574
2517.00,2.5542
2516.00,2.5509
2515.00,2.5478
2514.00,2.5444
2513.00,2.5402
2512.00,2.5348
2511.00,2.5287
2510.00,2.5222
2509.00,2.5154
2508.00,2.5080
2507.00,2.4998
2506.00,2.4909
2505.00,2.4814
2504.00,2.4706
2503.00,2.4587
2502.00,2.4463
2501.00,2.4338
2500.00,2.4208
2499.00,2.4067
2498.00,2.3913
2497.00,2.3753
2496.00,2.3590
2495.00,2.3423
2494.00,2.3250
2493.00,2.3065
2492.00,2.2862
2491.00,2.2642
2490.00,2.2409
2489.00,2.2168
2488.00,2.1920
2487.00,2.1663
2486.00,2.1391
2485.00,2.1100
2484.00,2.0789
2483.00,2.0459
2482.00,2.0113
2481.00,1.9753
2480.00,1.9377
2479.00,1.8983
2478.00,1.8570
2477.00,1.8139
2476.00,1.7693
2475.00,1.7238
2474.00,1.6781
2473.00,1.6329
2472.00,1.5887
2471.00,1.5461
2470.00,1.5058
2469.00,1.4683
2468.00,1.4342
2467.00,1.4040
2466.00,1.3779
2465.00,1.3565
2464.00,1.3402
2463.00,1.3294
2462.00,1.3245
2461.00,1.3256
2460.00,1.3328
2459.00,1.3461
2458.00,1.3650
2457.00,1.3892
2456.00,1.4181
2455.00,1.4508
2454.00,1.4865
2453.00,1.5246
2452.00,1.5641
2451.00,1.6046
2450.00,1.6457
2449.00,1.6871
2448.00,1.7288
2447.00,1.7706
2446.00,1.8119
2445.00,1.8525
2444.00,1.8925
2443.00,1.9320
2442.00,1.9710
2441.00,2.0093
2440.00,2.0464
2439.00,2.0819
2438.00,2.1154
2437.00,2.1471
2436.00,2.1774
2435.00,2.2066
2434.00,2.2347
2433.00,2.2616
2432.00,2.2873
2431.00,2.3118
2430.00,2.3353
2429.00,2.3574
2428.00,2.3778
2427.00,2.3966
2426.00,2.4142
2425.00,2.4312
2424.00,2.4479
2423.00,2.4642
2422.00,2.4799
2421.00,2.4947
2420.00,2.5080
2419.00,2.5196
2418.00,2.5298
2417.00,2.5396
2416.00,2.5500
2415.00,2.5610
2414.00,2.5719
2413.00,2.5820
2412.00,2.5912
2411.00,2.5995
2410.00,2.6072
2409.00,2.6144
2408.00,2.6210
2407.00,2.6268
2406.00,2.6310
2405.00,2.6334
2404.00,2.6342
2403.00,2.6345
2402.00,2.6352
2401.00,2.6364
2400.00,2.6379
2399.00,2.6394
2398.00,2.6412
2397.00,2.6434
2396.00,2.6454
2395.00,2.6463
2394.00,2.6452
2393.00,2.6423
2392.00,2.6386
2391.00,2.6348
2390.00,2.6310
2389.00,2.6266
2388.00,2.6214
2387.00,2.6157
2386.00,2.6100
2385.00,2.6039
2384.00,2.5964
2383.00,2.5876
2382.00,2.5785
2381.00,2.5698
2380.00,2.5612
2379.00,2.5516
2378.00,2.5406
2377.00,2.5282
2376.00,2.5137
2375.00,2.4958
2374.00,2.4737
2373.00,2.4476
2372.00,2.4182
2371.00,2.3862
2370.00,2.3523
2369.00,2.3175
2368.00,2.2827
2367.00,2.2492
2366.00,2.2191
2365.00,2.1946
2364.00,2.1761
2363.00,2.1625
2362.00,2.1520
2361.00,2.1430
2360.00,2.1342
2359.00,2.1244
2358.00,2.1141
2357.00,2.1053
2356.00,2.0978
2355.00,2.0902
2354.00,2.0836
2353.00,2.0787
2352.00,2.0722
2351.00,2.0631
2350.00,2.0563
2349.00,2.0491
2348.00,2.0377
2347.00,2.0224
2346.00,2.0022
2345.00,1.9845
2344.00,1.9676
2343.00,1.9505
2342.00,1.9363
2341.00,1.9230
2340.00,1.9104
2339.00,1.9017
2338.00,1.9219
2337.00,1.9733
2336.00,2.0150
2335.00,2.0125
2334.00,1.9646
2333.00,1.9254
2332.00,1.9268
2331.00,1.9637
2330.00,2.0029
2329.00,2.0181
2328.00,2.0218
2327.00,2.0224
2326.00,2.0281
2325.00,2.0344
2324.00,2.0418
2323.00,2.0467
2322.00,2.0546
2321.00,2.0601
2320.00,2.0674
2319.00,2.0678
2318.00,2.0742
2317.00,2.0834
2316.00,2.0995
2315.00,2.1223
2314.00,2.1435
2313.00,2.1616
2312.00,2.1688
2311.00,2.1746
2310.00,2.1859
2309.00,2.2018
2308.00,2.2203
2307.00,2.2324
2306.00,2.2456
2305.00,2.2574
2304.00,2.2737
2303.00,2.2867
2302.00,2.3005
2301.00,2.3116
2300.00,2.3263
2299.00,2.3413
2298.00,2.3590
2297.00,2.3758
2296.00,2.3943
2295.00,2.4129
2294.00,2.4345
2293.00,2.4566
2292.00,2.4790
2291.00,2.4980
2290.00,2.5161
2289.00,2.5333
2288.00,2.5530
2287.00,2.5726
2286.00,2.5929
2285.00,2.6112
2284.00,2.6284
2283.00,2.6431
2282.00,2.6564
2281.00,2.6687
2280.00,2.6802
2279.00,2.6904
2278.00,2.6984
2277.00,2.7048
2276.00,2.7096
2275.00,2.7127
2274.00,2.7131
2273.00,2.7120
2272.00,2.7106
2271.00,2.7105
2270.00,2.7119
2269.00,2.7151
2268.00,2.7193
2267.00,2.7238
2266.00,2.7276
2265.00,2.7309
2264.00,2.7338
2263.00,2.7351
2262.00,2.7342
2261.00,2.7316
2260.00,2.7284
2259.00,2.7235
2258.00,2.7152
2257.00,2.7029
2256.00,2.6891
2255.00,2.6765
2254.00,2.6661
2253.00,2.6567
2252.00,2.6467
2251.00,2.6350
2250.00,2.6211
2249.00,2.6056
2248.00,2.5891
2247.00,2.5724
2246.00,2.5552
2245.00,2.5366
2244.00,2.5159
2243.00,2.4934
2242.00,2.4702
2241.00,2.4465
2240.00,2.4228
2239.00,2.3985
2238.00,2.3736
2237.00,2.3474
2236.00,2.3193
2235.00,2.2887
2234.00,2.2560
2233.00,2.2217
2232.00,2.1866
2231.00,2.1503
2230.00,2.1125
2229.00,2.0727
2228.00,2.0307
2227.00,1.9864
2226.00,1.9400
2225.00,1.8915
2224.00,1.8412
2223.00,1.7896
2222.00,1.7373
2221.00,1.6855
2220.00,1.6353
2219.00,1.5875
2218.00,1.5432
2217.00,1.5033
2216.00,1.4688
2215.00,1.4404
2214.00,1.4189
2213.00,1.4048
2212.00,1.3984
2211.00,1.3999
2210.00,1.4090
2209.00,1.4255
2208.00,1.4489
2207.00,1.4785
2206.00,1.5133
2205.00,1.5525
2204.00,1.5952
2203.00,1.6401
2202.00,1.6865
2201.00,1.7337
2200.00,1.7812
2199.00,1.8288
2198.00,1.8762
2197.00,1.9231
2196.00,1.9693
2195.00,2.0146
2194.00,2.0589
2193.00,2.1021
2192.00,2.1441
2191.00,2.1850
2190.00,2.2248
2189.00,2.2629
2188.00,2.2988
2187.00,2.3317
2186.00,2.3621
2185.00,2.3907
2184.00,2.4178
2183.00,2.4428
2182.00,2.4655
2181.00,2.4866
2180.00,2.5080
2179.00,2.5309
2178.00,2.5545
2177.00,2.5767
2176.00,2.5955
2175.00,2.6114
2174.00,2.6263
2173.00,2.6410
2172.00,2.6550
2171.00,2.6675
2170.00,2.6789
2169.00,2.6902
2168.00,2.7020
2167.00,2.7146
2166.00,2.7274
2165.00,2.7395
2164.00,2.7496
2163.00,2.7571
2162.00,2.7626
2161.00,2.7676
2160.00,2.7734
2159.00,2.7810
2158.00,2.7907
2157.00,2.8010
2156.00,2.8094
2155.00,2.8149
2154.00,2.8184
2153.00,2.8206
2152.00,2.8210
2151.00,2.8194
2150.00,2.8177
2149.00,2.8183
2148.00,2.8213
2147.00,2.8245
2146.00,2.8256
2145.00,2.8247
2144.00,2.8229
2143.00,2.8214
2142.00,2.8207
2141.00,2.8203
2140.00,2.8188
2139.00,2.8150
2138.00,2.8092
2137.00,2.8024
2136.00,2.7953
2135.00,2.7880
2134.00,2.7804
2133.00,2.7731
2132.00,2.7658
2131.00,2.7574
2130.00,2.7476
2129.00,2.7371
2128.00,2.7263
2127.00,2.7149
2126.00,2.7028
2125.00,2.6902
2124.00,2.6777
2123.00,2.6649
2122.00,2.6507
2121.00,2.6346
2120.00,2.6170
2119.00,2.5984
2118.00,2.5796
2117.00,2.5601
2116.00,2.5392
2115.00,2.5160
2114.00,2.4908
2113.00,2.4647
2112.00,2.4384
2111.00,2.4110
2110.00,2.3813
2109.00,2.3488
2108.00,2.3140
2107.00,2.2778
2106.00,2.2405
2105.00,2.2020
2104.00,2.1619
2103.00,2.1199
2102.00,2.0761
2101.00,2.0305
2100.00,1.9832
2099.00,1.9344
2098.00,1.8846
2097.00,1.8344
2096.00,1.7843
2095.00,1.7352
2094.00,1.6879
2093.00,1.6435
2092.00,1.6029
2091.00,1.5668
2090.00,1.5359
2089.00,1.5111
2088.00,1.4935
2087.00,1.4840
2086.00,1.4833
2085.00,1.4912
2084.00,1.5075
2083.00,1.5315
2082.00,1.5627
2081.00,1.6000
2080.00,1.6425
2079.00,1.6890
2078.00,1.7385
2077.00,1.7899
2076.00,1.8424
2075.00,1.8950
2074.00,1.9470
2073.00,1.9982
2072.00,2.0485
2071.00,2.0976
2070.00,2.1454
2069.00,2.1913
2068.00,2.2345
2067.00,2.2745
2066.00,2.3110
2065.00,2.3440
2064.00,2.3747
2063.00,2.4041
2062.00,2.4332
2061.00,2.4619
2060.00,2.4893
2059.00,2.5154
2058.00,2.5405
2057.00,2.5650
2056.00,2.5884
2055.00,2.6096
2054.00,2.6285
2053.00,2.6461
2052.00,2.6637
2051.00,2.6819
2050.00,2.7003
2049.00,2.7188
2048.00,2.7371
2047.00,2.7549
2046.00,2.7711
2045.00,2.7849
2044.00,2.7966
2043.00,2.8075
2042.00,2.8181
2041.00,2.8278
2040.00,2.8368
2039.00,2.8461
2038.00,2.8571
2037.00,2.8688
2036.00,2.8785
2035.00,2.8846
2034.00,2.8878
2033.00,2.8904
2032.00,2.8939
2031.00,2.8980
2030.00,2.9021
2029.00,2.9062
2028.00,2.9102
2027.00,2.9142
2026.00,2.9176
2025.00,2.9194
2024.00,2.9187
2023.00,2.9157
2022.00,2.9118
2021.00,2.9083
2020.00,2.9055
2019.00,2.9031
2018.00,2.9013
2017.00,2.9003
2016.00,2.8999
2015.00,2.8989
2014.00,2.8960
2013.00,2.8911
2012.00,2.8848
2011.00,2.8778
2010.00,2.8706
2009.00,2.8635
2008.00,2.8567
2007.00,2.8501
2006.00,2.8422
2005.00,2.8316
2004.00,2.8182
2003.00,2.8042
2002.00,2.7913
2001.00,2.7793
2000.00,2.7658
1999.00,2.7491
1998.00,2.7301
1997.00,2.7103
1996.00,2.6905
1995.00,2.6705
1994.00,2.6496
1993.00,2.6270
1992.00,2.6017
1991.00,2.5744
1990.00,2.5469
1989.00,2.5202
1988.00,2.4929
1987.00,2.4631
1986.00,2.4308
1985.00,2.3977
1984.00,2.3638
1983.00,2.3279
1982.00,2.2893
1981.00,2.2484
1980.00,2.2064
1979.00,2.1634
1978.00,2.1189
1977.00,2.0725
1976.00,2.0242
1975.00,1.9740
1974.00,1.9227
1973.00,1.8710
1972.00,1.8197
1971.00,1.7700
1970.00,1.7232
1969.00,1.6809
1968.00,1.6435
1967.00,1.6117
1966.00,1.5873
1965.00,1.5729
1964.00,1.5706
1963.00,1.5796
1962.00,1.5977
1961.00,1.6233
1960.00,1.6557
1959.00,1.6945
1958.00,1.7386
1957.00,1.7865
1956.00,1.8367
1955.00,1.8885
1954.00,1.9409
1953.00,1.9938
1952.00,2.0469
1951.00,2.0995
1950.00,2.1506
1949.00,2.1995
1948.00,2.2465
1947.00,2.2916
1946.00,2.3343
1945.00,2.3745
1944.00,2.4127
1943.00,2.4485
1942.00,2.4817
1941.00,2.5129
1940.00,2.5439
1939.00,2.5751
1938.00,2.6046
1937.00,2.6306
1936.00,2.6538
1935.00,2.6763
1934.00,2.6996
1933.00,2.7231
1932.00,2.7458
1931.00,2.7669
1930.00,2.7860
1929.00,2.8038
1928.00,2.8219
1927.00,2.8403
1926.00,2.8581
1925.00,2.8748
1924.00,2.8905
1923.00,2.9041
1922.00,2.9132
1921.00,2.9177
1920.00,2.9213
1919.00,2.9269
1918.00,2.9346
1917.00,2.9440
1916.00,2.9561
1915.00,2.9707
1914.00,2.9836
1913.00,2.9905
1912.00,2.9928
1911.00,2.9951
1910.00,2.9995
1909.00,3.0037
1908.00,3.0060
1907.00,3.0077
1906.00,3.0103
1905.00,3.0127
1904.00,3.0138
1903.00,3.0141
1902.00,3.0137
1901.00,3.0127
1900.00,3.0109
1899.00,3.0085
1898.00,3.0050
1897.00,2.9987
1896.00,2.9893
1895.00,2.9788
1894.00,2.9699
1893.00,2.9631
1892.00,2.9575
1891.00,2.9518
1890.00,2.9445
1889.00,2.9349
1888.00,2.9237
1887.00,2.9131
1886.00,2.9039
1885.00,2.8944
1884.00,2.8829
1883.00,2.8693
1882.00,2.8542
1881.00,2.8368
1880.00,2.8158
1879.00,2.7912
1878.00,2.7658
1877.00,2.7419
1876.00,2.7198
1875.00,2.6984
1874.00,2.6756
1873.00,2.6506
1872.00,2.6240
1871.00,2.5956
1870.00,2.5634
1869.00,2.5265
1868.00,2.4868
1867.00,2.4473
1866.00,2.4084
1865.00,2.3665
1864.00,2.3179
1863.00,2.2618
1862.00,2.2002
1861.00,2.1354
1860.00,2.0689
1859.00,2.0022
1858.00,1.9367
1857.00,1.8741
1856.00,1.8164
1855.00,1.7654
1854.00,1.7231
1853.00,1.6913
1852.00,1.6715
1851.00,1.6649
1850.00,1.6725
1849.00,1.6932
1848.00,1.7244
1847.00,1.7653
1846.00,1.8157
1845.00,1.8741
1844.00,1.9372
1843.00,2.0023
1842.00,2.0688
1841.00,2.1371
1840.00,2.2059
1839.00,2.2718
1838.00,2.3322
1837.00,2.3883
1836.00,2.4430
1835.00,2.4960
1834.00,2.5451
1833.00,2.5901
1832.00,2.6322
1831.00,2.6727
1830.00,2.7123
1829.00,2.7514
1828.00,2.7891
1827.00,2.8229
1826.00,2.8492
1825.00,2.8675
1824.00,2.8820
1823.00,2.8987
1822.00,2.9200
1821.00,2.9438
1820.00,2.9675
1819.00,2.9901
1818.00,3.0104
1817.00,3.0268
1816.00,3.0397
1815.00,3.0512
1814.00,3.0632
1813.00,3.0753
1812.00,3.0853
1811.00,3.0928
1810.00,3.1002
1809.00,3.1099
1808.00,3.1215
1807.00,3.1305
1806.00,3.1342
1805.00,3.1340
1804.00,3.1328
1803.00,3.1314
1802.00,3.1292
1801.00,3.1272
1800.00,3.1279
1799.00,3.1330
1798.00,3.1384
1797.00,3.1368
1796.00,3.1245
1795.00,3.1055
1794.00,3.0877
1793.00,3.0747
1792.00,3.0644
1791.00,3.0533
1790.00,3.0404
1789.00,3.0266
1788.00,3.0116
1787.00,2.9910
1786.00,2.9614
1785.00,2.9235
1784.00,2.8818
1783.00,2.8412
1782.00,2.8039
1781.00,2.7684
1780.00,2.7306
1779.00,2.6911
1778.00,2.6530
1777.00,2.6182
1776.00,2.5873
1775.00,2.5614
1774.00,2.5436
1773.00,2.5358
1772.00,2.5410
1771.00,2.5635
1770.00,2.6004
1769.00,2.6398
1768.00,2.6710
1767.00,2.6928
1766.00,2.7137
1765.00,2.7435
1764.00,2.7822
1763.00,2.8228
1762.00,2.8621
1761.00,2.9043
1760.00,2.9525
1759.00,3.0049
1758.00,3.0583
1757.00,3.1141
1756.00,3.1742
1755.00,3.2370
1754.00,3.3002
1753.00,3.3626
1752.00,3.4230
1751.00,3.4739
1750.00,3.5030
1749.00,3.5128
1748.00,3.5257
1747.00,3.5558
1746.00,3.5983
1745.00,3.6464
1744.00,3.7011
1743.00,3.7685
1742.00,3.8467
1741.00,3.9234
1740.00,3.9844
1739.00,4.0246
1738.00,4.0518
1737.00,4.0771
1736.00,4.1011
1735.00,4.1045
1734.00,4.0686
1733.00,4.0177
1732.00,3.9977
1731.00,4.0305
1730.00,4.1154
1729.00,4.2435
1728.00,4.3896
1727.00,4.4926
1726.00,4.5014
1725.00,4.4538
1724.00,4.3960
1723.00,4.3309
1722.00,4.2636
1721.00,4.2094
1720.00,4.1770
1719.00,4.1657
1718.00,4.1820
1717.00,4.2454
1716.00,4.3475
1715.00,4.4376
1714.00,4.5561
1713.00,4.8078
1712.00,4.9168
1711.00,4.7257
1710.00,4.7301
1709.00,4.8770
1708.00,4.7231
1707.00,4.5214
1706.00,4.5199
1705.00,4.8565
1704.00,4.9594
1703.00,4.4838
1702.00,4.3468
1701.00,4.3589
1700.00,4.5914
1699.00,4.8862
1698.00,4.5993
1697.00,4.5595
1696.00,4.8415
1695.00,4.8520
1694.00,4.4470
1693.00,4.2897
1692.00,4.1926
1691.00,4.0524
1690.00,3.9102
1689.00,3.7767
1688.00,3.6714
1687.00,3.6009
1686.00,3.5557
1685.00,3.5133
1684.00,3.4672
1683.00,3.4320
1682.00,3.4223
1681.00,3.4338
1680.00,3.4499
1679.00,3.4584
1678.00,3.4596
1677.00,3.4604
1676.00,3.4604
1675.00,3.4517
1674.00,3.4327
1673.00,3.4117
1672.00,3.3971
1671.00,3.3914
1670.00,3.3905
1669.00,3.3889
1668.00,3.3818
1667.00,3.3650
1666.00,3.3406
1665.00,3.3132
1664.00,3.2838
1663.00,3.2520
1662.00,3.2230
1661.00,3.2029
1660.00,3.1863
1659.00,3.1662
1658.00,3.1342
1657.00,3.1000
1656.00,3.0576
1655.00,3.0146
1654.00,2.9775
1653.00,2.9325
1652.00,2.8894
1651.00,2.8508
1650.00,2.8215
1649.00,2.7909
1648.00,2.7687
1647.00,2.7325
1646.00,2.7308
1645.00,2.7290
1644.00,2.6908
1643.00,2.6745
1642.00,2.6609
1641.00,2.6564
1640.00,2.6505
1639.00,2.6495
1638.00,2.6566
1637.00,2.6687
1636.00,2.6788
1635.00,2.6868
1634.00,2.6959
1633.00,2.7034
1632.00,2.7074
1631.00,2.7104
1630.00,2.7130
1629.00,2.7183
1628.00,2.7327
1627.00,2.7568
1626.00,2.7852
1625.00,2.8134
1624.00,2.8408
1623.00,2.8692
1622.00,2.8984
1621.00,2.9265
1620.00,2.9533
1619.00,2.9789
1618.00,2.9980
1617.00,3.0064
1616.00,3.0119
1615.00,3.0276
1614.00,3.0556
1613.00,3.0879
1612.00,3.1149
1611.00,3.1329
1610.00,3.1488
1609.00,3.1708
1608.00,3.1953
1607.00,3.2110
1606.00,3.2120
1605.00,3.2047
1604.00,3.1990
1603.00,3.2008
1602.00,3.2085
1601.00,3.2170
1600.00,3.2228
1599.00,3.2260
1598.00,3.2286
1597.00,3.2331
1596.00,3.2397
1595.00,3.2463
1594.00,3.2500
1593.00,3.2491
1592.00,3.2447
1591.00,3.2410
1590.00,3.2427
1589.00,3.2511
1588.00,3.2611
1587.00,3.2646
1586.00,3.2598
1585.00,3.2525
1584.00,3.2451
1583.00,3.2335
1582.00,3.2149
1581.00,3.1930
1580.00,3.1748
1579.00,3.1623
1578.00,3.1485
1577.00,3.1233
1576.00,3.0871
1575.00,3.0533
1574.00,3.0344
1573.00,3.0315
1572.00,3.0345
1571.00,3.0287
1570.00,3.0087
1569.00,2.9842
1568.00,2.9608
1567.00,2.9328
1566.00,2.8965
1565.00,2.8560
1564.00,2.8154
1563.00,2.7763
1562.00,2.7349
1561.00,2.6813
1560.00,2.6070
1559.00,2.5257
1558.00,2.4676
1557.00,2.4327
1556.00,2.3930
1555.00,2.3314
1554.00,2.2525
1553.00,2.1694
1552.00,2.0980
1551.00,2.0440
1550.00,1.9984
1549.00,1.9569
1548.00,1.9285
1547.00,1.9200
1546.00,1.9261
1545.00,1.9389
1544.00,1.9588
1543.00,1.9935
1542.00,2.0472
1541.00,2.1153
1540.00,2.1902
1539.00,2.2629
1538.00,2.3248
1537.00,2.3771
1536.00,2.4323
1535.00,2.4956
1534.00,2.5579
1533.00,2.6150
1532.00,2.6686
1531.00,2.7182
1530.00,2.7623
1529.00,2.8019
1528.00,2.8394
1527.00,2.8745
1526.00,2.9067
1525.00,2.9380
1524.00,2.9713
1523.00,3.0057
1522.00,3.0336
1521.00,3.0490
1520.00,3.0581
1519.00,3.0772
1518.00,3.1147
1517.00,3.1591
1516.00,3.1924
1515.00,3.2101
1514.00,3.2202
1513.00,3.2274
1512.00,3.2324
1511.00,3.2396
1510.00,3.2549
1509.00,3.2759
1508.00,3.2912
1507.00,3.2936
1506.00,3.2887
1505.00,3.2913
1504.00,3.3024
1503.00,3.3178
1502.00,3.3432
1501.00,3.3695
1500.00,3.3826
1499.00,3.3849
1498.00,3.3843
1497.00,3.3820
1496.00,3.3772
1495.00,3.3741
1494.00,3.3767
1493.00,3.3805
1492.00,3.3763
1491.00,3.3629
1490.00,3.3495
1489.00,3.3458
1488.00,3.3531
1487.00,3.3642
1486.00,3.3665
1485.00,3.3521
1484.00,3.3245
1483.00,3.2955
1482.00,3.2738
1481.00,3.2582
1480.00,3.2444
1479.00,3.2291
1478.00,3.2106
1477.00,3.1886
1476.00,3.1658
1475.00,3.1441
1474.00,3.1200
1473.00,3.0880
1472.00,3.0514
1471.00,3.0234
1470.00,3.0118
1469.00,3.0136
1468.00,3.0246
1467.00,3.0458
1466.00,3.0816
1465.00,3.1311
1464.00,3.1805
1463.00,3.2132
1462.00,3.2252
1461.00,3.2278
1460.00,3.2351
1459.00,3.2552
1458.00,3.2930
1457.00,3.3548
1456.00,3.4473
1455.00,3.5697
1454.00,3.7116
1453.00,3.8430
1452.00,3.9150
1451.00,3.9313
1450.00,3.9449
1449.00,3.9612
1448.00,3.9421
1447.00,3.8797
1446.00,3.8026
1445.00,3.7221
1444.00,3.6289
1443.00,3.5252
1442.00,3.4283
1441.00,3.3547
1440.00,3.3122
1439.00,3.3006
1438.00,3.3135
1437.00,3.3446
1436.00,3.3906
1435.00,3.4508
1434.00,3.5265
1433.00,3.6148
1432.00,3.7007
1431.00,3.7629
1430.00,3.7963
1429.00,3.8142
1428.00,3.8223
1427.00,3.8219
1426.00,3.8205
1425.00,3.8131
1424.00,3.7859
1423.00,3.7409
1422.00,3.7000
1421.00,3.6765
1420.00,3.6574
1419.00,3.6224
1418.00,3.5698
1417.00,3.5144
1416.00,3.4617
1415.00,3.4039
1414.00,3.3374
1413.00,3.2672
1412.00,3.1985
1411.00,3.1330
1410.00,3.0727
1409.00,3.0223
1408.00,2.9850
1407.00,2.9589
1406.00,2.9406
1405.00,2.9281
1404.00,2.9208
1403.00,2.9200
1402.00,2.9263
1401.00,2.9387
1400.00,2.9544
1399.00,2.9722
1398.00,2.9935
1397.00,3.0200
1396.00,3.0483
1395.00,3.0718
1394.00,3.0894
1393.00,3.1087
1392.00,3.1362
1391.00,3.1701
1390.00,3.2017
1389.00,3.2243
1388.00,3.2378
1387.00,3.2477
1386.00,3.2623
1385.00,3.2869
1384.00,3.3197
1383.00,3.3526
1382.00,3.3808
1381.00,3.4074
1380.00,3.4350
1379.00,3.4585
1378.00,3.4730
1377.00,3.4845
1376.00,3.5034
1375.00,3.5268
1374.00,3.5382
1373.00,3.5297
1372.00,3.5144
1371.00,3.5083
1370.00,3.5144
1369.00,3.5287
1368.00,3.5478
1367.00,3.5688
1366.00,3.5850
1365.00,3.5898
1364.00,3.5846
1363.00,3.5730
1362.00,3.5529
1361.00,3.5265
1360.00,3.5063
1359.00,3.5024
1358.00,3.5126
1357.00,3.5263
1356.00,3.5345
1355.00,3.5363
1354.00,3.5376
1353.00,3.5472
1352.00,3.5734
1351.00,3.6207
1350.00,3.6879
1349.00,3.7668
1348.00,3.8419
1347.00,3.8934
1346.00,3.9067
1345.00,3.8851
1344.00,3.8484
1343.00,3.8141
1342.00,3.7877
1341.00,3.7701
1340.00,3.7645
1339.00,3.7752
1338.00,3.7996
1337.00,3.8176
1336.00,3.8008
1335.00,3.7548
1334.00,3.7046
1333.00,3.6616
1332.00,3.6294
1331.00,3.6017
1330.00,3.5656
1329.00,3.5170
1328.00,3.4652
1327.00,3.4209
1326.00,3.3891
1325.00,3.3705
1324.00,3.3652
1323.00,3.3749
1322.00,3.3997
1321.00,3.4375
1320.00,3.4849
1319.00,3.5407
1318.00,3.6067
1317.00,3.6868
1316.00,3.7858
1315.00,3.9014
1314.00,4.0095
1313.00,4.0905
1312.00,4.1752
1311.00,4.2946
1310.00,4.4044
1309.00,4.3823
1308.00,4.2266
1307.00,4.0542
1306.00,3.9111
1305.00,3.7993
1304.00,3.7140
1303.00,3.6467
1302.00,3.5863
1301.00,3.5277
1300.00,3.4727
1299.00,3.4226
1298.00,3.3735
1297.00,3.3205
1296.00,3.2636
1295.00,3.2061
1294.00,3.1486
1293.00,3.0905
1292.00,3.0345
1291.00,2.9850
1290.00,2.9436
1289.00,2.9095
1288.00,2.8830
1287.00,2.8668
1286.00,2.8635
1285.00,2.8715
1284.00,2.8866
1283.00,2.9062
1282.00,2.9305
1281.00,2.9608
1280.00,2.9982
1279.00,3.0420
1278.00,3.0877
1277.00,3.1276
1276.00,3.1585
1275.00,3.1891
1274.00,3.2313
1273.00,3.2855
1272.00,3.3375
1271.00,3.3754
1270.00,3.4036
1269.00,3.4332
1268.00,3.4671
1267.00,3.5045
1266.00,3.5496
1265.00,3.6031
1264.00,3.6467
1263.00,3.6567
1262.00,3.6397
1261.00,3.6257
1260.00,3.6282
1259.00,3.6368
1258.00,3.6401
1257.00,3.6439
1256.00,3.6585
1255.00,3.6792
1254.00,3.6877
1253.00,3.6784
1252.00,3.6693
1251.00,3.6794
1250.00,3.7139
1249.00,3.7655
1248.00,3.8190
1247.00,3.8555
1246.00,3.8608
1245.00,3.8474
1244.00,3.8480
1243.00,3.8673
1242.00,3.8735
1241.00,3.8522
1240.00,3.8328
1239.00,3.8493
1238.00,3.9024
1237.00,3.9521
1236.00,3.9596
1235.00,3.9130
1234.00,3.8455
1233.00,3.8058
1232.00,3.8084
1231.00,3.8556
1230.00,3.9613
1229.00,4.1313
1228.00,4.3155
1227.00,4.4081
1226.00,4.3668
1225.00,4.3023
1224.00,4.2767
1223.00,4.2518
1222.00,4.2058
1221.00,4.1629
1220.00,4.1425
1219.00,4.1472
1218.00,4.1745
1217.00,4.1982
1216.00,4.1652
1215.00,4.0647
1214.00,3.9447
1213.00,3.8446
1212.00,3.7772
1211.00,3.7429
1210.00,3.7385
1209.00,3.7558
1208.00,3.7795
1207.00,3.7936
1206.00,3.7939
1205.00,3.7832
1204.00,3.7575
1203.00,3.7190
1202.00,3.6891
1201.00,3.6890
1200.00,3.7187
1199.00,3.7549
1198.00,3.7686
1197.00,3.7520
1196.00,3.7201
1195.00,3.6865
1194.00,3.6570
1193.00,3.6403
1192.00,3.6497
1191.00,3.6920
1190.00,3.7522
1189.00,3.7965
1188.00,3.8065
1187.00,3.7842
1186.00,3.7392
1185.00,3.6904
1184.00,3.6522
1183.00,3.6330
1182.00,3.6320
1181.00,3.6325
1180.00,3.6141
1179.00,3.5846
1178.00,3.5722
1177.00,3.5858
1176.00,3.6024
1175.00,3.5915
1174.00,3.5521
1173.00,3.5089
1172.00,3.4822
1171.00,3.4762
1170.00,3.4873
1169.00,3.5095
1168.00,3.5289
1167.00,3.5237
1166.00,3.4888
1165.00,3.4470
1164.00,3.4219
1163.00,3.4160
1162.00,3.4128
1161.00,3.3946
1160.00,3.3585
1159.00,3.3176
1158.00,3.2884
1157.00,3.2800
1156.00,3.2888
1155.00,3.2995
1154.00,3.2980
1153.00,3.2879
1152.00,3.2861
1151.00,3.3018
1150.00,3.3285
1149.00,3.3521
1148.00,3.3656
1147.00,3.3751
1146.00,3.3903
1145.00,3.4178
1144.00,3.4595
1143.00,3.5121
1142.00,3.5689
1141.00,3.6193
1140.00,3.6519
1139.00,3.6664
1138.00,3.6743
1137.00,3.6925
1136.00,3.7279
1135.00,3.7582
1134.00,3.7650
1133.00,3.7672
1132.00,3.7862
1131.00,3.8187
1130.00,3.8404
1129.00,3.8333
1128.00,3.8058
1127.00,3.7852
1126.00,3.7933
1125.00,3.8498
1124.00,3.9982
1123.00,4.3174
1122.00,4.6400
1121.00,4.3462
1120.00,4.2399
1119.00,4.2716
1118.00,4.3244
1117.00,4.3354
1116.00,4.2529
1115.00,4.1215
1114.00,4.1287
1113.00,4.2559
1112.00,4.1985
1111.00,4.1239
1110.00,4.0899
1109.00,4.0044
1108.00,3.9538
1107.00,3.9775
1106.00,4.0387
1105.00,4.0401
1104.00,3.9651
1103.00,3.8661
1102.00,3.7608
1101.00,3.6809
1100.00,3.6437
1099.00,3.6504
1098.00,3.6953
1097.00,3.7677
1096.00,3.8583
1095.00,3.9508
1094.00,4.0086
1093.00,4.0279
1092.00,4.0763
1091.00,4.1797
1090.00,4.2345
1089.00,4.2422
1088.00,4.3300
1087.00,4.4894
1086.00,4.5071
1085.00,4.3170
1084.00,4.1455
1083.00,4.0363
1082.00,3.9583
1081.00,3.9116
1080.00,3.9084
1079.00,3.9236
1078.00,3.9174
1077.00,3.9032
1076.00,3.9212
1075.00,3.9741
1074.00,4.0229
1073.00,4.0491
1072.00,4.0836
1071.00,4.1291
1070.00,4.1921
1069.00,4.2626
1068.00,4.0573
1067.00,3.8305
1066.00,3.7155
1065.00,3.6690
1064.00,3.6588
1063.00,3.6818
1062.00,3.7490
1061.00,3.8497
1060.00,3.9215
1059.00,3.8866
1058.00,3.7878
1057.00,3.7173
1056.00,3.7071
1055.00,3.7565
1054.00,3.8461
1053.00,3.9571
1052.00,4.0900
1051.00,4.0807
1050.00,3.9299
1049.00,3.8145
1048.00,3.7233
1047.00,3.6717
1046.00,3.6839
1045.00,3.7504
1044.00,3.8266
1043.00,3.8521
1042.00,3.8071
1041.00,3.7303
1040.00,3.6642
1039.00,3.6236
1038.00,3.6030
1037.00,3.5941
1036.00,3.5867
1035.00,3.5665
1034.00,3.5297
1033.00,3.4852
1032.00,3.4442
1031.00,3.4155
1030.00,3.4013
1029.00,3.3953
1028.00,3.3882
1027.00,3.3756
1026.00,3.3632
1025.00,3.3656
1024.00,3.4027
1023.00,3.4958
1022.00,3.6641
1021.00,3.9137
1020.00,4.1687
1019.00,4.1950
1018.00,4.0230
1017.00,3.8680
1016.00,3.7773
1015.00,3.7308
1014.00,3.7076
1013.00,3.7029
1012.00,3.7137
1011.00,3.7279
1010.00,3.7280
1009.00,3.7052
1008.00,3.6727
1007.00,3.6594
1006.00,3.6843
1005.00,3.7392
1004.00,3.7973
1003.00,3.8484
1002.00,3.9165
1001.00,4.0326
1000.00,4.1911
999.00,4.2884
998.00,4.1969
997.00,4.0795
996.00,4.0758
995.00,4.2503
994.00,4.8821
993.00,4.5046
992.00,4.2947
991.00,4.3678
990.00,4.7339
989.00,4.4852
988.00,4.1381
987.00,3.9877
986.00,3.9818
985.00,4.1419
984.00,4.5682
983.00,5.2851
982.00,4.9356
981.00,4.8917
980.00,4.8972
979.00,4.8987
978.00,4.5252
977.00,4.2393
976.00,4.0993
975.00,4.0983
974.00,4.2317
973.00,4.4410
972.00,4.5500
971.00,4.4380
970.00,4.2356
969.00,4.1347
968.00,4.1414
967.00,4.2517
966.00,4.5474
965.00,5.0672
964.00,4.4861
963.00,4.3177
962.00,4.3471
961.00,4.5585
960.00,5.1829
959.00,4.7601
958.00,4.4299
957.00,4.3228
956.00,4.3339
955.00,4.3177
954.00,4.1883
953.00,4.0961
952.00,4.1073
951.00,4.1747
950.00,4.1508
949.00,4.0970
948.00,4.1397
947.00,4.2051
946.00,4.0612
945.00,3.9171
944.00,3.8846
943.00,3.9458
942.00,4.0630
941.00,4.1818
940.00,4.2821
939.00,4.3669
938.00,4.4174
937.00,4.5255
936.00,4.6521
935.00,4.3679
934.00,4.1274
933.00,3.9937
932.00,3.9318
931.00,3.9329
930.00,4.0025
929.00,4.1726
928.00,4.5345
927.00,4.7395
926.00,4.6989
925.00,4.8396
924.00,4.3095
923.00,4.1338
922.00,4.0726
921.00,3.9905
920.00,3.9268
919.00,3.9514
918.00,4.0687
917.00,4.1844
916.00,4.1539
915.00,4.0319
914.00,3.9339
913.00,3.8846
912.00,3.8614
911.00,3.8400
910.00,3.8417
909.00,3.9223
908.00,4.1088
907.00,4.2669
906.00,4.2742
905.00,4.1274
904.00,3.9356
903.00,3.8624
902.00,3.8976
901.00,3.9961
900.00,4.1126
899.00,4.2280
898.00,4.3533
897.00,4.4668
896.00,4.4736
895.00,4.3168
894.00,4.1312
893.00,3.9926
892.00,3.8984
891.00,3.8462
890.00,3.8353
889.00,3.8526
888.00,3.8845
887.00,3.9316
886.00,4.0138
885.00,4.1557
884.00,4.3863
883.00,4.7609
882.00,4.7075
881.00,4.4866
880.00,4.5650
879.00,4.7309
878.00,4.4764
877.00,4.2754
876.00,4.1616
875.00,4.0985
874.00,4.0983
873.00,4.1441
872.00,4.1663
871.00,4.1391
870.00,4.1343
869.00,4.1677
868.00,4.1680
867.00,4.1487
866.00,4.1260
865.00,4.0738
864.00,4.0140
863.00,3.9571
862.00,3.9114
861.00,3.9037
860.00,3.9402
859.00,4.0060
858.00,4.1005
857.00,4.2826
856.00,4.6277
855.00,4.6484
854.00,4.7542
853.00,4.9270
852.00,4.3865
851.00,4.2741
850.00,4.2905
849.00,4.1994
848.00,4.1218
847.00,4.1409
846.00,4.2400
845.00,4.2628
844.00,4.0990
843.00,3.9675
842.00,3.9479
841.00,4.0442
840.00,4.2708
839.00,4.5179
838.00,4.5888
837.00,4.6358
836.00,4.3794
835.00,4.1633
834.00,4.0576
833.00,4.0021
832.00,3.9707
831.00,3.9332
830.00,3.9113
829.00,3.9453
828.00,4.0062
827.00,4.0389
826.00,4.0910
825.00,4.2263
824.00,4.4633
823.00,4.5933
822.00,4.4121
821.00,4.2335
820.00,4.0974
819.00,4.0172
818.00,3.9820
817.00,3.9569
816.00,3.9221
815.00,3.8962
814.00,3.9368
813.00,4.0659
812.00,4.1946
811.00,4.1736
810.00,4.0984
809.00,4.1337
808.00,4.3464
807.00,4.5000
806.00,4.3298
805.00,4.2595
804.00,4.3184
803.00,4.2242
802.00,3.9575
801.00,3.8334
800.00,3.8747
799.00,4.0915
798.00,4.3093
797.00,4.1209
796.00,4.0158
795.00,4.0437
794.00,4.1869
793.00,4.3459
792.00,4.5467
791.00,4.6007
790.00,4.0604
789.00,3.8604
788.00,3.8019
787.00,3.7582
786.00,3.6935
785.00,3.6353
784.00,3.6386
783.00,3.7267
782.00,3.9024
781.00,4.1320
780.00,4.2637
779.00,4.1317
778.00,3.9397
777.00,3.8113
776.00,3.7620
775.00,3.7878
774.00,3.8789
773.00,4.0153
772.00,4.1268
771.00,4.0946
770.00,3.9690
769.00,3.9035
768.00,3.9898
767.00,4.3845
766.00,4.7785
765.00,4.3052
764.00,4.1402
763.00,4.0733
762.00,4.1021
761.00,4.1322
760.00,4.0217
759.00,3.8848
758.00,3.7789
757.00,3.7338
756.00,3.7675
755.00,3.8756
754.00,4.0123
753.00,4.1185
752.00,4.2001
751.00,4.2591
750.00,4.1313
749.00,3.9326
748.00,3.8486
747.00,3.8876
746.00,4.0276
745.00,4.2270
744.00,4.4199
743.00,4.4756
742.00,4.3088
741.00,4.2117
740.00,4.2261
739.00,4.4329
738.00,5.0957
737.00,4.5270
736.00,4.1147
735.00,3.9098
734.00,3.8201
733.00,3.8264
732.00,3.9051
731.00,4.0269
730.00,4.1997
729.00,4.5926
728.00,4.5328
727.00,4.1869
726.00,4.0995
725.00,4.1099
724.00,4.1523
723.00,4.2524
722.00,4.2732
721.00,4.1666
720.00,4.0789
719.00,4.0751
718.00,4.1011
717.00,4.3027
716.00,4.8760
715.00,4.2979
714.00,4.0557
713.00,4.0233
712.00,4.0711
711.00,4.1384
710.00,4.0679
709.00,3.9964
708.00,4.0398
707.00,4.3276
706.00,4.5233
705.00,4.1473
704.00,4.0816
703.00,4.2486
702.00,4.1752
701.00,3.9514
700.00,3.8600
