Created as New Dataset,Sample 080 By Administrator Date Wednesday, November 24 2021
cm-1,A
7502.00,1.0561
7501.00,1.0647
7500.00,1.0733
7499.00,1.0816
7498.00,1.0894
7497.00,1.0970
7496.00,1.1047
7495.00,1.1125
7494.00,1.1200
7493.00,1.1274
7492.00,1.1344
7491.00,1.1409
7490.00,1.1465
7489.00,1.1518
7488.00,1.1573
7487.00,1.1628
7486.00,1.1675
7485.00,1.1710
7484.00,1.1740
7483.00,1.1771
7482.00,1.1804
7481.00,1.1834
7480.00,1.1861
7479.00,1.1884
7478.00,1.1905
7477.00,1.1921
7476.00,1.1930
7475.00,1.1931
7474.00,1.1928
7473.00,1.1923
7472.00,1.1916
7471.00,1.1902
7470.00,1.1879
7469.00,1.1849
7468.00,1.1822
7467.00,1.1804
7466.00,1.1786
7465.00,1.1757
7464.00,1.1712
7463.00,1.1659
7462.00,1.1609
7461.00,1.1560
7460.00,1.1506
7459.00,1.1447
7458.00,1.1386
7457.00,1.1325
7456.00,1.1262
7455.00,1.1191
7454.00,1.1113
7453.00,1.1028
7452.00,1.0940
7451.00,1.0847
7450.00,1.0750
7449.00,1.0652
7448.00,1.0559
7447.00,1.0470
7446.00,1.0382
7445.00,1.0289
7444.00,1.0191
7443.00,1.0092
7442.00,0.9991
7441.00,0.9887
7440.00,0.9782
7439.00,0.9676
7438.00,0.9573
7437.00,0.9470
7436.00,0.9365
7435.00,0.9257
7434.00,0.9150
7433.00,0.9048
7432.00,0.8946
7431.00,0.8842
7430.00,0.8738
7429.00,0.8639
7428.00,0.8550
7427.00,0.8470
7426.00,0.8392
7425.00,0.8313
7424.00,0.8233
7423.00,0.8155
7422.00,0.8082
7421.00,0.8014
7420.00,0.7954
7419.00,0.7900
7418.00,0.7853
7417.00,0.7811
7416.00,0.7774
7415.00,0.7743
7414.00,0.7718
7413.00,0.7700
7412.00,0.7686
7411.00,0.7677
7410.00,0.7676
7409.00,0.7683
7408.00,0.7700
7407.00,0.7726
7406.00,0.7757
7405.00,0.7793
7404.00,0.7833
7403.00,0.7877
7402.00,0.7926
7401.00,0.7981
7400.00,0.8043
7399.00,0.8110
7398.00,0.8181
7397.00,0.8253
7396.00,0.8327
7395.00,0.8404
7394.00,0.8483
7393.00,0.8566
7392.00,0.8653
7391.00,0.8743
7390.00,0.8832
7389.00,0.8918
7388.00,0.9005
7387.00,0.9099
7386.00,0.9199
7385.00,0.9297
7384.00,0.9390
7383.00,0.9483
7382.00,0.9581
7381.00,0.9686
7380.00,0.9794
7379.00,0.9899
7378.00,0.9998
7377.00,1.0089
7376.00,1.0175
7375.00,1.0255
7374.00,1.0331
7373.00,1.0402
7372.00,1.0467
7371.00,1.0526
7370.00,1.0583
7369.00,1.0640
7368.00,1.0698
7367.00,1.0756
7366.00,1.0811
7365.00,1.0861
7364.00,1.0903
7363.00,1.0941
7362.00,1.0978
7361.00,1.1018
7360.00,1.1055
7359.00,1.1085
7358.00,1.1108
7357.00,1.1131
7356.00,1.1161
7355.00,1.1197
7354.00,1.1237
7353.00,1.1276
7352.00,1.1311
7351.00,1.1342
7350.00,1.1362
7349.00,1.1362
7348.00,1.1337
7347.00,1.1293
7346.00,1.1247
7345.00,1.1214
7344.00,1.1198
7343.00,1.1193
7342.00,1.1192
7341.00,1.1190
7340.00,1.1183
7339.00,1.1168
7338.00,1.1139
7337.00,1.1093
7336.00,1.1034
7335.00,1.0971
7334.00,1.0909
7333.00,1.0850
7332.00,1.0794
7331.00,1.0742
7330.00,1.0697
7329.00,1.0659
7328.00,1.0622
7327.00,1.0582
7326.00,1.0542
7325.00,1.0502
7324.00,1.0460
7323.00,1.0413
7322.00,1.0358
7321.00,1.0298
7320.00,1.0233
7319.00,1.0168
7318.00,1.0103
7317.00,1.0041
7316.00,0.9977
7315.00,0.9909
7314.00,0.9835
7313.00,0.9759
7312.00,0.9681
7311.00,0.9599
7310.00,0.9509
7309.00,0.9411
7308.00,0.9309
7307.00,0.9208
7306.00,0.9112
7305.00,0.9020
7304.00,0.8929
7303.00,0.8838
7302.00,0.8746
7301.00,0.8658
7300.00,0.8576
7299.00,0.8496
7298.00,0.8415
7297.00,0.8332
7296.00,0.8252
7295.00,0.8176
7294.00,0.8103
7293.00,0.8029
7292.00,0.7954
7291.00,0.7882
7290.00,0.7820
7289.00,0.7768
7288.00,0.7726
7287.00,0.7691
7286.00,0.7663
7285.00,0.7643
7284.00,0.7630
7283.00,0.7622
7282.00,0.7618
7281.00,0.7619
7280.00,0.7627
7279.00,0.7642
7278.00,0.7662
7277.00,0.7686
7276.00,0.7717
7275.00,0.7757
7274.00,0.7805
7273.00,0.7856
7272.00,0.7909
7271.00,0.7967
7270.00,0.8035
7269.00,0.8111
7268.00,0.8193
7267.00,0.8277
7266.00,0.8359
7265.00,0.8443
7264.00,0.8531
7263.00,0.8623
7262.00,0.8718
7261.00,0.8811
7260.00,0.8904
7259.00,0.9002
7258.00,0.9109
7257.00,0.9221
7256.00,0.9331
7255.00,0.9434
7254.00,0.9532
7253.00,0.9631
7252.00,0.9733
7251.00,0.9837
7250.00,0.9939
7249.00,1.0038
7248.00,1.0135
7247.00,1.0230
7246.00,1.0325
7245.00,1.0419
7244.00,1.0515
7243.00,1.0609
7242.00,1.0701
7241.00,1.0793
7240.00,1.0889
7239.00,1.0988
7238.00,1.1080
7237.00,1.1157
7236.00,1.1224
7235.00,1.1291
7234.00,1.1362
7233.00,1.1432
7232.00,1.1496
7231.00,1.1553
7230.00,1.1607
7229.00,1.1660
7228.00,1.1712
7227.00,1.1761
7226.00,1.1806
7225.00,1.1845
7224.00,1.1876
7223.00,1.1900
7222.00,1.1922
7221.00,1.1944
7220.00,1.1967
7219.00,1.1989
7218.00,1.2011
7217.00,1.2035
7216.00,1.2058
7215.00,1.2074
7214.00,1.2074
7213.00,1.2058
7212.00,1.2034
7211.00,1.2012
7210.00,1.1993
7209.00,1.1974
7208.00,1.1953
7207.00,1.1928
7206.00,1.1898
7205.00,1.1861
7204.00,1.1817
7203.00,1.1765
7202.00,1.1708
7201.00,1.1649
7200.00,1.1591
7199.00,1.1535
7198.00,1.1479
7197.00,1.1420
7196.00,1.1356
7195.00,1.1286
7194.00,1.1211
7193.00,1.1131
7192.00,1.1045
7191.00,1.0952
7190.00,1.0854
7189.00,1.0751
7188.00,1.0648
7187.00,1.0548
7186.00,1.0452
7185.00,1.0356
7184.00,1.0259
7183.00,1.0159
7182.00,1.0057
7181.00,0.9953
7180.00,0.9845
7179.00,0.9733
7178.00,0.9619
7177.00,0.9503
7176.00,0.9386
7175.00,0.9270
7174.00,0.9155
7173.00,0.9045
7172.00,0.8941
7171.00,0.8841
7170.00,0.8743
7169.00,0.8648
7168.00,0.8556
7167.00,0.8464
7166.00,0.8374
7165.00,0.8286
7164.00,0.8199
7163.00,0.8119
7162.00,0.8048
7161.00,0.7984
7160.00,0.7927
7159.00,0.7873
7158.00,0.7823
7157.00,0.7779
7156.00,0.7743
7155.00,0.7713
7154.00,0.7692
7153.00,0.7678
7152.00,0.7672
7151.00,0.7674
7150.00,0.7684
7149.00,0.7700
7148.00,0.7720
7147.00,0.7745
7146.00,0.7776
7145.00,0.7814
7144.00,0.7856
7143.00,0.7904
7142.00,0.7957
7141.00,0.8016
7140.00,0.8081
7139.00,0.8151
7138.00,0.8224
7137.00,0.8303
7136.00,0.8386
7135.00,0.8472
7134.00,0.8561
7133.00,0.8653
7132.00,0.8748
7131.00,0.8846
7130.00,0.8944
7129.00,0.9044
7128.00,0.9144
7127.00,0.9246
7126.00,0.9348
7125.00,0.9449
7124.00,0.9549
7123.00,0.9649
7122.00,0.9751
7121.00,0.9855
7120.00,0.9959
7119.00,1.0063
7118.00,1.0169
7117.00,1.0274
7116.00,1.0375
7115.00,1.0470
7114.00,1.0559
7113.00,1.0645
7112.00,1.0729
7111.00,1.0812
7110.00,1.0894
7109.00,1.0975
7108.00,1.1056
7107.00,1.1136
7106.00,1.1213
7105.00,1.1284
7104.00,1.1350
7103.00,1.1408
7102.00,1.1462
7101.00,1.1511
7100.00,1.1558
7099.00,1.1607
7098.00,1.1658
7097.00,1.1707
7096.00,1.1750
7095.00,1.1789
7094.00,1.1827
7093.00,1.1862
7092.00,1.1886
7091.00,1.1897
7090.00,1.1904
7089.00,1.1911
7088.00,1.1920
7087.00,1.1926
7086.00,1.1927
7085.00,1.1924
7084.00,1.1916
7083.00,1.1903
7082.00,1.1886
7081.00,1.1864
7080.00,1.1839
7079.00,1.1810
7078.00,1.1780
7077.00,1.1751
7076.00,1.1723
7075.00,1.1696
7074.00,1.1668
7073.00,1.1635
7072.00,1.1591
7071.00,1.1535
7070.00,1.1471
7069.00,1.1403
7068.00,1.1334
7067.00,1.1263
7066.00,1.1190
7065.00,1.1116
7064.00,1.1043
7063.00,1.0969
7062.00,1.0890
7061.00,1.0807
7060.00,1.0720
7059.00,1.0631
7058.00,1.0537
7057.00,1.0439
7056.00,1.0341
7055.00,1.0244
7054.00,1.0147
7053.00,1.0044
7052.00,0.9934
7051.00,0.9821
7050.00,0.9710
7049.00,0.9601
7048.00,0.9490
7047.00,0.9377
7046.00,0.9266
7045.00,0.9159
7044.00,0.9057
7043.00,0.8957
7042.00,0.8857
7041.00,0.8756
7040.00,0.8656
7039.00,0.8559
7038.00,0.8467
7037.00,0.8380
7036.00,0.8295
7035.00,0.8213
7034.00,0.8134
7033.00,0.8060
7032.00,0.7990
7031.00,0.7924
7030.00,0.7863
7029.00,0.7809
7028.00,0.7763
7027.00,0.7724
7026.00,0.7691
7025.00,0.7663
7024.00,0.7643
7023.00,0.7629
7022.00,0.7622
7021.00,0.7621
7020.00,0.7627
7019.00,0.7641
7018.00,0.7663
7017.00,0.7692
7016.00,0.7727
7015.00,0.7767
7014.00,0.7813
7013.00,0.7865
7012.00,0.7924
7011.00,0.7987
7010.00,0.8055
7009.00,0.8130
7008.00,0.8211
7007.00,0.8297
7006.00,0.8387
7005.00,0.8480
7004.00,0.8578
7003.00,0.8679
7002.00,0.8780
7001.00,0.8882
7000.00,0.8987
6999.00,0.9094
6998.00,0.9202
6997.00,0.9308
6996.00,0.9413
6995.00,0.9516
6994.00,0.9620
6993.00,0.9725
6992.00,0.9830
6991.00,0.9935
6990.00,1.0041
6989.00,1.0150
6988.00,1.0262
6987.00,1.0374
6986.00,1.0481
6985.00,1.0580
6984.00,1.0675
6983.00,1.0769
6982.00,1.0863
6981.00,1.0956
6980.00,1.1045
6979.00,1.1134
6978.00,1.1225
6977.00,1.1316
6976.00,1.1403
6975.00,1.1485
6974.00,1.1560
6973.00,1.1630
6972.00,1.1694
6971.00,1.1748
6970.00,1.1793
6969.00,1.1832
6968.00,1.1871
6967.00,1.1910
6966.00,1.1948
6965.00,1.1983
6964.00,1.2018
6963.00,1.2054
6962.00,1.2088
6961.00,1.2115
6960.00,1.2134
6959.00,1.2149
6958.00,1.2163
6957.00,1.2176
6956.00,1.2187
6955.00,1.2196
6954.00,1.2201
6953.00,1.2199
6952.00,1.2188
6951.00,1.2169
6950.00,1.2147
6949.00,1.2119
6948.00,1.2086
6947.00,1.2048
6946.00,1.2009
6945.00,1.1971
6944.00,1.1931
6943.00,1.1884
6942.00,1.1834
6941.00,1.1781
6940.00,1.1725
6939.00,1.1666
6938.00,1.1602
6937.00,1.1531
6936.00,1.1457
6935.00,1.1380
6934.00,1.1301
6933.00,1.1220
6932.00,1.1135
6931.00,1.1048
6930.00,1.0959
6929.00,1.0866
6928.00,1.0768
6927.00,1.0666
6926.00,1.0558
6925.00,1.0448
6924.00,1.0336
6923.00,1.0222
6922.00,1.0108
6921.00,0.9992
6920.00,0.9876
6919.00,0.9760
6918.00,0.9646
6917.00,0.9535
6916.00,0.9425
6915.00,0.9316
6914.00,0.9204
6913.00,0.9091
6912.00,0.8978
6911.00,0.8866
6910.00,0.8756
6909.00,0.8650
6908.00,0.8547
6907.00,0.8449
6906.00,0.8355
6905.00,0.8268
6904.00,0.8186
6903.00,0.8110
6902.00,0.8038
6901.00,0.7970
6900.00,0.7906
6899.00,0.7849
6898.00,0.7799
6897.00,0.7755
6896.00,0.7715
6895.00,0.7682
6894.00,0.7658
6893.00,0.7644
6892.00,0.7639
6891.00,0.7641
6890.00,0.7651
6889.00,0.7667
6888.00,0.7689
6887.00,0.7717
6886.00,0.7752
6885.00,0.7794
6884.00,0.7843
6883.00,0.7897
6882.00,0.7958
6881.00,0.8025
6880.00,0.8097
6879.00,0.8171
6878.00,0.8249
6877.00,0.8329
6876.00,0.8413
6875.00,0.8502
6874.00,0.8598
6873.00,0.8698
6872.00,0.8803
6871.00,0.8910
6870.00,0.9019
6869.00,0.9128
6868.00,0.9238
6867.00,0.9346
6866.00,0.9453
6865.00,0.9562
6864.00,0.9671
6863.00,0.9780
6862.00,0.9888
6861.00,0.9998
6860.00,1.0108
6859.00,1.0216
6858.00,1.0320
6857.00,1.0423
6856.00,1.0527
6855.00,1.0630
6854.00,1.0731
6853.00,1.0826
6852.00,1.0916
6851.00,1.1005
6850.00,1.1094
6849.00,1.1180
6848.00,1.1265
6847.00,1.1348
6846.00,1.1430
6845.00,1.1508
6844.00,1.1578
6843.00,1.1638
6842.00,1.1694
6841.00,1.1750
6840.00,1.1806
6839.00,1.1858
6838.00,1.1906
6837.00,1.1949
6836.00,1.1991
6835.00,1.2030
6834.00,1.2063
6833.00,1.2087
6832.00,1.2104
6831.00,1.2120
6830.00,1.2137
6829.00,1.2155
6828.00,1.2167
6827.00,1.2171
6826.00,1.2166
6825.00,1.2158
6824.00,1.2149
6823.00,1.2136
6822.00,1.2117
6821.00,1.2093
6820.00,1.2067
6819.00,1.2042
6818.00,1.2015
6817.00,1.1983
6816.00,1.1946
6815.00,1.1905
6814.00,1.1862
6813.00,1.1818
6812.00,1.1771
6811.00,1.1722
6810.00,1.1668
6809.00,1.1607
6808.00,1.1535
6807.00,1.1457
6806.00,1.1377
6805.00,1.1298
6804.00,1.1217
6803.00,1.1132
6802.00,1.1042
6801.00,1.0951
6800.00,1.0858
6799.00,1.0763
6798.00,1.0662
6797.00,1.0557
6796.00,1.0451
6795.00,1.0346
6794.00,1.0238
6793.00,1.0127
6792.00,1.0011
6791.00,0.9895
6790.00,0.9780
6789.00,0.9665
6788.00,0.9549
6787.00,0.9432
6786.00,0.9316
6785.00,0.9199
6784.00,0.9081
6783.00,0.8964
6782.00,0.8851
6781.00,0.8743
6780.00,0.8639
6779.00,0.8537
6778.00,0.8439
6777.00,0.8343
6776.00,0.8250
6775.00,0.8160
6774.00,0.8075
6773.00,0.7998
6772.00,0.7926
6771.00,0.7861
6770.00,0.7802
6769.00,0.7750
6768.00,0.7703
6767.00,0.7660
6766.00,0.7622
6765.00,0.7591
6764.00,0.7569
6763.00,0.7554
6762.00,0.7548
6761.00,0.7550
6760.00,0.7560
6759.00,0.7578
6758.00,0.7603
6757.00,0.7636
6756.00,0.7675
6755.00,0.7720
6754.00,0.7771
6753.00,0.7827
6752.00,0.7891
6751.00,0.7961
6750.00,0.8037
6749.00,0.8119
6748.00,0.8206
6747.00,0.8297
6746.00,0.8391
6745.00,0.8487
6744.00,0.8584
6743.00,0.8684
6742.00,0.8787
6741.00,0.8894
6740.00,0.9004
6739.00,0.9115
6738.00,0.9228
6737.00,0.9342
6736.00,0.9457
6735.00,0.9572
6734.00,0.9686
6733.00,0.9802
6732.00,0.9920
6731.00,1.0040
6730.00,1.0159
6729.00,1.0273
6728.00,1.0383
6727.00,1.0488
6726.00,1.0592
6725.00,1.0693
6724.00,1.0790
6723.00,1.0884
6722.00,1.0976
6721.00,1.1071
6720.00,1.1168
6719.00,1.1263
6718.00,1.1355
6717.00,1.1442
6716.00,1.1526
6715.00,1.1605
6714.00,1.1679
6713.00,1.1749
6712.00,1.1818
6711.00,1.1885
6710.00,1.1947
6709.00,1.2003
6708.00,1.2055
6707.00,1.2100
6706.00,1.2140
6705.00,1.2176
6704.00,1.2209
6703.00,1.2239
6702.00,1.2266
6701.00,1.2293
6700.00,1.2321
6699.00,1.2343
6698.00,1.2353
6697.00,1.2349
6696.00,1.2344
6695.00,1.2343
6694.00,1.2343
6693.00,1.2338
6692.00,1.2327
6691.00,1.2315
6690.00,1.2302
6689.00,1.2285
6688.00,1.2256
6687.00,1.2216
6686.00,1.2170
6685.00,1.2122
6684.00,1.2074
6683.00,1.2024
6682.00,1.1969
6681.00,1.1909
6680.00,1.1845
6679.00,1.1778
6678.00,1.1707
6677.00,1.1631
6676.00,1.1552
6675.00,1.1472
6674.00,1.1391
6673.00,1.1306
6672.00,1.1219
6671.00,1.1129
6670.00,1.1037
6669.00,1.0939
6668.00,1.0835
6667.00,1.0726
6666.00,1.0615
6665.00,1.0503
6664.00,1.0388
6663.00,1.0270
6662.00,1.0151
6661.00,1.0031
6660.00,0.9911
6659.00,0.9789
6658.00,0.9667
6657.00,0.9544
6656.00,0.9423
6655.00,0.9305
6654.00,0.9190
6653.00,0.9076
6652.00,0.8963
6651.00,0.8851
6650.00,0.8741
6649.00,0.8633
6648.00,0.8527
6647.00,0.8424
6646.00,0.8326
6645.00,0.8234
6644.00,0.8147
6643.00,0.8063
6642.00,0.7986
6641.00,0.7915
6640.00,0.7851
6639.00,0.7791
6638.00,0.7737
6637.00,0.7692
6636.00,0.7656
6635.00,0.7628
6634.00,0.7606
6633.00,0.7591
6632.00,0.7585
6631.00,0.7589
6630.00,0.7600
6629.00,0.7617
6628.00,0.7641
6627.00,0.7672
6626.00,0.7712
6625.00,0.7760
6624.00,0.7812
6623.00,0.7871
6622.00,0.7937
6621.00,0.8009
6620.00,0.8088
6619.00,0.8170
6618.00,0.8258
6617.00,0.8350
6616.00,0.8446
6615.00,0.8545
6614.00,0.8647
6613.00,0.8751
6612.00,0.8857
6611.00,0.8964
6610.00,0.9074
6609.00,0.9187
6608.00,0.9302
6607.00,0.9417
6606.00,0.9532
6605.00,0.9649
6604.00,0.9765
6603.00,0.9879
6602.00,0.9991
6601.00,1.0102
6600.00,1.0213
6599.00,1.0326
6598.00,1.0439
6597.00,1.0550
6596.00,1.0658
6595.00,1.0764
6594.00,1.0869
6593.00,1.0970
6592.00,1.1066
6591.00,1.1157
6590.00,1.1247
6589.00,1.1335
6588.00,1.1421
6587.00,1.1502
6586.00,1.1578
6585.00,1.1651
6584.00,1.1721
6583.00,1.1785
6582.00,1.1845
6581.00,1.1898
6580.00,1.1946
6579.00,1.1991
6578.00,1.2034
6577.00,1.2074
6576.00,1.2111
6575.00,1.2143
6574.00,1.2172
6573.00,1.2197
6572.00,1.2216
6571.00,1.2231
6570.00,1.2243
6569.00,1.2252
6568.00,1.2257
6567.00,1.2257
6566.00,1.2253
6565.00,1.2245
6564.00,1.2232
6563.00,1.2213
6562.00,1.2192
6561.00,1.2170
6560.00,1.2147
6559.00,1.2120
6558.00,1.2091
6557.00,1.2059
6556.00,1.2022
6555.00,1.1979
6554.00,1.1932
6553.00,1.1883
6552.00,1.1831
6551.00,1.1773
6550.00,1.1711
6549.00,1.1646
6548.00,1.1578
6547.00,1.1504
6546.00,1.1424
6545.00,1.1341
6544.00,1.1260
6543.00,1.1181
6542.00,1.1098
6541.00,1.1011
6540.00,1.0919
6539.00,1.0822
6538.00,1.0723
6537.00,1.0621
6536.00,1.0513
6535.00,1.0400
6534.00,1.0285
6533.00,1.0170
6532.00,1.0056
6531.00,0.9939
6530.00,0.9820
6529.00,0.9699
6528.00,0.9579
6527.00,0.9460
6526.00,0.9340
6525.00,0.9220
6524.00,0.9101
6523.00,0.8984
6522.00,0.8871
6521.00,0.8762
6520.00,0.8655
6519.00,0.8551
6518.00,0.8448
6517.00,0.8350
6516.00,0.8255
6515.00,0.8162
6514.00,0.8072
6513.00,0.7986
6512.00,0.7904
6511.00,0.7830
6510.00,0.7764
6509.00,0.7707
6508.00,0.7658
6507.00,0.7615
6506.00,0.7582
6505.00,0.7556
6504.00,0.7538
6503.00,0.7527
6502.00,0.7525
6501.00,0.7532
6500.00,0.7547
6499.00,0.7569
6498.00,0.7597
6497.00,0.7631
6496.00,0.7672
6495.00,0.7721
6494.00,0.7775
6493.00,0.7837
6492.00,0.7905
6491.00,0.7980
6490.00,0.8061
6489.00,0.8148
6488.00,0.8239
6487.00,0.8336
6486.00,0.8438
6485.00,0.8543
6484.00,0.8651
6483.00,0.8762
6482.00,0.8877
6481.00,0.8996
6480.00,0.9117
6479.00,0.9239
6478.00,0.9361
6477.00,0.9484
6476.00,0.9606
6475.00,0.9727
6474.00,0.9846
6473.00,0.9964
6472.00,1.0082
6471.00,1.0200
6470.00,1.0318
6469.00,1.0434
6468.00,1.0549
6467.00,1.0663
6466.00,1.0778
6465.00,1.0893
6464.00,1.1002
6463.00,1.1104
6462.00,1.1203
6461.00,1.1302
6460.00,1.1401
6459.00,1.1498
6458.00,1.1592
6457.00,1.1683
6456.00,1.1769
6455.00,1.1848
6454.00,1.1919
6453.00,1.1986
6452.00,1.2051
6451.00,1.2115
6450.00,1.2177
6449.00,1.2231
6448.00,1.2279
6447.00,1.2322
6446.00,1.2361
6445.00,1.2396
6444.00,1.2427
6443.00,1.2459
6442.00,1.2490
6441.00,1.2518
6440.00,1.2540
6439.00,1.2557
6438.00,1.2570
6437.00,1.2578
6436.00,1.2577
6435.00,1.2571
6434.00,1.2561
6433.00,1.2550
6432.00,1.2536
6431.00,1.2521
6430.00,1.2505
6429.00,1.2488
6428.00,1.2465
6427.00,1.2431
6426.00,1.2387
6425.00,1.2336
6424.00,1.2281
6423.00,1.2227
6422.00,1.2172
6421.00,1.2116
6420.00,1.2055
6419.00,1.1989
6418.00,1.1916
6417.00,1.1837
6416.00,1.1754
6415.00,1.1667
6414.00,1.1577
6413.00,1.1487
6412.00,1.1394
6411.00,1.1298
6410.00,1.1197
6409.00,1.1090
6408.00,1.0978
6407.00,1.0863
6406.00,1.0746
6405.00,1.0629
6404.00,1.0509
6403.00,1.0386
6402.00,1.0261
6401.00,1.0135
6400.00,1.0007
6399.00,0.9876
6398.00,0.9745
6397.00,0.9615
6396.00,0.9487
6395.00,0.9361
6394.00,0.9236
6393.00,0.9113
6392.00,0.8992
6391.00,0.8872
6390.00,0.8754
6389.00,0.8639
6388.00,0.8526
6387.00,0.8417
6386.00,0.8312
6385.00,0.8213
6384.00,0.8119
6383.00,0.8030
6382.00,0.7948
6381.00,0.7875
6380.00,0.7808
6379.00,0.7748
6378.00,0.7695
6377.00,0.7650
6376.00,0.7614
6375.00,0.7585
6374.00,0.7562
6373.00,0.7549
6372.00,0.7544
6371.00,0.7547
6370.00,0.7558
6369.00,0.7576
6368.00,0.7604
6367.00,0.7640
6366.00,0.7685
6365.00,0.7737
6364.00,0.7797
6363.00,0.7865
6362.00,0.7940
6361.00,0.8020
6360.00,0.8105
6359.00,0.8196
6358.00,0.8291
6357.00,0.8391
6356.00,0.8495
6355.00,0.8602
6354.00,0.8712
6353.00,0.8825
6352.00,0.8940
6351.00,0.9056
6350.00,0.9174
6349.00,0.9294
6348.00,0.9417
6347.00,0.9541
6346.00,0.9666
6345.00,0.9791
6344.00,0.9915
6343.00,1.0037
6342.00,1.0157
6341.00,1.0275
6340.00,1.0390
6339.00,1.0504
6338.00,1.0616
6337.00,1.0727
6336.00,1.0839
6335.00,1.0950
6334.00,1.1059
6333.00,1.1164
6332.00,1.1265
6331.00,1.1362
6330.00,1.1455
6329.00,1.1544
6328.00,1.1628
6327.00,1.1709
6326.00,1.1786
6325.00,1.1857
6324.00,1.1923
6323.00,1.1986
6322.00,1.2049
6321.00,1.2108
6320.00,1.2162
6319.00,1.2213
6318.00,1.2261
6317.00,1.2303
6316.00,1.2339
6315.00,1.2370
6314.00,1.2396
6313.00,1.2420
6312.00,1.2439
6311.00,1.2455
6310.00,1.2466
6309.00,1.2470
6308.00,1.2469
6307.00,1.2466
6306.00,1.2464
6305.00,1.2458
6304.00,1.2445
6303.00,1.2428
6302.00,1.2411
6301.00,1.2393
6300.00,1.2369
6299.00,1.2336
6298.00,1.2298
6297.00,1.2258
6296.00,1.2218
6295.00,1.2175
6294.00,1.2129
6293.00,1.2077
6292.00,1.2020
6291.00,1.1960
6290.00,1.1896
6289.00,1.1829
6288.00,1.1756
6287.00,1.1681
6286.00,1.1603
6285.00,1.1523
6284.00,1.1438
6283.00,1.1349
6282.00,1.1258
6281.00,1.1165
6280.00,1.1068
6279.00,1.0969
6278.00,1.0865
6277.00,1.0756
6276.00,1.0641
6275.00,1.0522
6274.00,1.0404
6273.00,1.0286
6272.00,1.0167
6271.00,1.0044
6270.00,0.9922
6269.00,0.9798
6268.00,0.9672
6267.00,0.9545
6266.00,0.9417
6265.00,0.9292
6264.00,0.9167
6263.00,0.9042
6262.00,0.8918
6261.00,0.8798
6260.00,0.8680
6259.00,0.8566
6258.00,0.8454
6257.00,0.8347
6256.00,0.8243
6255.00,0.8145
6254.00,0.8052
6253.00,0.7966
6252.00,0.7884
6251.00,0.7808
6250.00,0.7740
6249.00,0.7681
6248.00,0.7629
6247.00,0.7585
6246.00,0.7550
6245.00,0.7524
6244.00,0.7507
6243.00,0.7497
6242.00,0.7495
6241.00,0.7501
6240.00,0.7516
6239.00,0.7539
6238.00,0.7572
6237.00,0.7613
6236.00,0.7663
6235.00,0.7721
6234.00,0.7786
6233.00,0.7857
6232.00,0.7935
6231.00,0.8017
6230.00,0.8106
6229.00,0.8200
6228.00,0.8300
6227.00,0.8404
6226.00,0.8514
6225.00,0.8628
6224.00,0.8745
6223.00,0.8864
6222.00,0.8985
6221.00,0.9110
6220.00,0.9238
6219.00,0.9365
6218.00,0.9494
6217.00,0.9624
6216.00,0.9754
6215.00,0.9883
6214.00,1.0011
6213.00,1.0138
6212.00,1.0266
6211.00,1.0393
6210.00,1.0518
6209.00,1.0641
6208.00,1.0763
6207.00,1.0883
6206.00,1.1001
6205.00,1.1117
6204.00,1.1228
6203.00,1.1335
6202.00,1.1437
6201.00,1.1536
6200.00,1.1632
6199.00,1.1725
6198.00,1.1817
6197.00,1.1907
6196.00,1.1994
6195.00,1.2076
6194.00,1.2153
6193.00,1.2225
6192.00,1.2293
6191.00,1.2358
6190.00,1.2420
6189.00,1.2479
6188.00,1.2533
6187.00,1.2580
6186.00,1.2621
6185.00,1.2656
6184.00,1.2688
6183.00,1.2714
6182.00,1.2735
6181.00,1.2753
6180.00,1.2768
6179.00,1.2780
6178.00,1.2787
6177.00,1.2791
6176.00,1.2791
6175.00,1.2790
6174.00,1.2784
6173.00,1.2770
6172.00,1.2748
6171.00,1.2722
6170.00,1.2694
6169.00,1.2665
6168.00,1.2634
6167.00,1.2599
6166.00,1.2561
6165.00,1.2520
6164.00,1.2472
6163.00,1.2416
6162.00,1.2353
6161.00,1.2286
6160.00,1.2216
6159.00,1.2146
6158.00,1.2074
6157.00,1.2000
6156.00,1.1921
6155.00,1.1835
6154.00,1.1743
6153.00,1.1646
6152.00,1.1543
6151.00,1.1434
6150.00,1.1322
6149.00,1.1207
6148.00,1.1091
6147.00,1.0972
6146.00,1.0850
6145.00,1.0726
6144.00,1.0601
6143.00,1.0475
6142.00,1.0347
6141.00,1.0217
6140.00,1.0084
6139.00,0.9948
6138.00,0.9813
6137.00,0.9678
6136.00,0.9542
6135.00,0.9405
6134.00,0.9269
6133.00,0.9135
6132.00,0.9003
6131.00,0.8873
6130.00,0.8746
6129.00,0.8623
6128.00,0.8504
6127.00,0.8389
6126.00,0.8278
6125.00,0.8173
6124.00,0.8074
6123.00,0.7981
6122.00,0.7896
6121.00,0.7818
6120.00,0.7748
6119.00,0.7685
6118.00,0.7630
6117.00,0.7583
6116.00,0.7545
6115.00,0.7516
6114.00,0.7495
6113.00,0.7484
6112.00,0.7482
6111.00,0.7490
6110.00,0.7507
6109.00,0.7534
6108.00,0.7569
6107.00,0.7612
6106.00,0.7663
6105.00,0.7722
6104.00,0.7788
6103.00,0.7862
6102.00,0.7945
6101.00,0.8034
6100.00,0.8129
6099.00,0.8227
6098.00,0.8330
6097.00,0.8437
6096.00,0.8547
6095.00,0.8662
6094.00,0.8781
6093.00,0.8903
6092.00,0.9027
6091.00,0.9152
6090.00,0.9276
6089.00,0.9402
6088.00,0.9529
6087.00,0.9657
6086.00,0.9786
6085.00,0.9916
6084.00,1.0046
6083.00,1.0174
6082.00,1.0299
6081.00,1.0422
6080.00,1.0545
6079.00,1.0668
6078.00,1.0789
6077.00,1.0908
6076.00,1.1026
6075.00,1.1141
6074.00,1.1250
6073.00,1.1353
6072.00,1.1451
6071.00,1.1546
6070.00,1.1640
6069.00,1.1731
6068.00,1.1817
6067.00,1.1900
6066.00,1.1981
6065.00,1.2058
6064.00,1.2133
6063.00,1.2203
6062.00,1.2272
6061.00,1.2337
6060.00,1.2398
6059.00,1.2453
6058.00,1.2501
6057.00,1.2543
6056.00,1.2583
6055.00,1.2623
6054.00,1.2661
6053.00,1.2696
6052.00,1.2727
6051.00,1.2752
6050.00,1.2772
6049.00,1.2787
6048.00,1.2798
6047.00,1.2805
6046.00,1.2809
6045.00,1.2810
6044.00,1.2807
6043.00,1.2802
6042.00,1.2791
6041.00,1.2775
6040.00,1.2753
6039.00,1.2726
6038.00,1.2692
6037.00,1.2652
6036.00,1.2606
6035.00,1.2556
6034.00,1.2506
6033.00,1.2454
6032.00,1.2401
6031.00,1.2345
6030.00,1.2286
6029.00,1.2219
6028.00,1.2144
6027.00,1.2061
6026.00,1.1974
6025.00,1.1883
6024.00,1.1789
6023.00,1.1692
6022.00,1.1594
6021.00,1.1491
6020.00,1.1382
6019.00,1.1270
6018.00,1.1156
6017.00,1.1038
6016.00,1.0916
6015.00,1.0789
6014.00,1.0659
6013.00,1.0526
6012.00,1.0390
6011.00,1.0251
6010.00,1.0113
6009.00,0.9975
6008.00,0.9837
6007.00,0.9699
6006.00,0.9560
6005.00,0.9421
6004.00,0.9283
6003.00,0.9146
6002.00,0.9011
6001.00,0.8878
6000.00,0.8748
5999.00,0.8623
5998.00,0.8502
5997.00,0.8387
5996.00,0.8276
5995.00,0.8170
5994.00,0.8069
5993.00,0.7975
5992.00,0.7887
5991.00,0.7807
5990.00,0.7735
5989.00,0.7673
5988.00,0.7619
5987.00,0.7574
5986.00,0.7538
5985.00,0.7511
5984.00,0.7493
5983.00,0.7484
5982.00,0.7485
5981.00,0.7496
5980.00,0.7517
5979.00,0.7548
5978.00,0.7589
5977.00,0.7640
5976.00,0.7700
5975.00,0.7766
5974.00,0.7840
5973.00,0.7921
5972.00,0.8009
5971.00,0.8104
5970.00,0.8205
5969.00,0.8312
5968.00,0.8424
5967.00,0.8539
5966.00,0.8658
5965.00,0.8781
5964.00,0.8907
5963.00,0.9036
5962.00,0.9167
5961.00,0.9301
5960.00,0.9437
5959.00,0.9573
5958.00,0.9709
5957.00,0.9846
5956.00,0.9982
5955.00,1.0120
5954.00,1.0258
5953.00,1.0396
5952.00,1.0534
5951.00,1.0672
5950.00,1.0807
5949.00,1.0938
5948.00,1.1065
5947.00,1.1188
5946.00,1.1311
5945.00,1.1432
5944.00,1.1550
5943.00,1.1664
5942.00,1.1773
5941.00,1.1878
5940.00,1.1979
5939.00,1.2076
5938.00,1.2169
5937.00,1.2259
5936.00,1.2344
5935.00,1.2427
5934.00,1.2508
5933.00,1.2584
5932.00,1.2655
5931.00,1.2718
5930.00,1.2776
5929.00,1.2829
5928.00,1.2878
5927.00,1.2923
5926.00,1.2966
5925.00,1.3005
5924.00,1.3039
5923.00,1.3067
5922.00,1.3090
5921.00,1.3109
5920.00,1.3124
5919.00,1.3136
5918.00,1.3144
5917.00,1.3147
5916.00,1.3145
5915.00,1.3138
5914.00,1.3127
5913.00,1.3113
5912.00,1.3094
5911.00,1.3071
5910.00,1.3044
5909.00,1.3012
5908.00,1.2973
5907.00,1.2929
5906.00,1.2881
5905.00,1.2828
5904.00,1.2773
5903.00,1.2714
5902.00,1.2652
5901.00,1.2584
5900.00,1.2509
5899.00,1.2428
5898.00,1.2343
5897.00,1.2255
5896.00,1.2165
5895.00,1.2074
5894.00,1.1982
5893.00,1.1885
5892.00,1.1781
5891.00,1.1670
5890.00,1.1556
5889.00,1.1438
5888.00,1.1317
5887.00,1.1191
5886.00,1.1062
5885.00,1.0932
5884.00,1.0802
5883.00,1.0669
5882.00,1.0534
5881.00,1.0397
5880.00,1.0258
5879.00,1.0117
5878.00,0.9974
5877.00,0.9832
5876.00,0.9691
5875.00,0.9551
5874.00,0.9414
5873.00,0.9278
5872.00,0.9144
5871.00,0.9012
5870.00,0.8883
5869.00,0.8759
5868.00,0.8640
5867.00,0.8525
5866.00,0.8416
5865.00,0.8313
5864.00,0.8215
5863.00,0.8124
5862.00,0.8039
5861.00,0.7962
5860.00,0.7893
5859.00,0.7832
5858.00,0.7781
5857.00,0.7738
5856.00,0.7704
5855.00,0.7680
5854.00,0.7665
5853.00,0.7661
5852.00,0.7665
5851.00,0.7680
5850.00,0.7704
5849.00,0.7738
5848.00,0.7780
5847.00,0.7830
5846.00,0.7888
5845.00,0.7955
5844.00,0.8030
5843.00,0.8113
5842.00,0.8203
5841.00,0.8300
5840.00,0.8405
5839.00,0.8514
5838.00,0.8627
5837.00,0.8745
5836.00,0.8866
5835.00,0.8989
5834.00,0.9115
5833.00,0.9243
5832.00,0.9374
5831.00,0.9509
5830.00,0.9646
5829.00,0.9785
5828.00,0.9924
5827.00,1.0063
5826.00,1.0201
5825.00,1.0339
5824.00,1.0477
5823.00,1.0614
5822.00,1.0749
5821.00,1.0882
5820.00,1.1013
5819.00,1.1140
5818.00,1.1266
5817.00,1.1389
5816.00,1.1511
5815.00,1.1631
5814.00,1.1748
5813.00,1.1862
5812.00,1.1971
5811.00,1.2076
5810.00,1.2177
5809.00,1.2272
5808.00,1.2361
5807.00,1.2444
5806.00,1.2525
5805.00,1.2603
5804.00,1.2678
5803.00,1.2750
5802.00,1.2820
5801.00,1.2887
5800.00,1.2948
5799.00,1.3001
5798.00,1.3049
5797.00,1.3093
5796.00,1.3134
5795.00,1.3171
5794.00,1.3204
5793.00,1.3233
5792.00,1.3256
5791.00,1.3276
5790.00,1.3292
5789.00,1.3305
5788.00,1.3313
5787.00,1.3318
5786.00,1.3320
5785.00,1.3318
5784.00,1.3309
5783.00,1.3293
5782.00,1.3271
5781.00,1.3247
5780.00,1.3217
5779.00,1.3182
5778.00,1.3142
5777.00,1.3097
5776.00,1.3048
5775.00,1.2996
5774.00,1.2942
5773.00,1.2886
5772.00,1.2826
5771.00,1.2759
5770.00,1.2687
5769.00,1.2610
5768.00,1.2527
5767.00,1.2439
5766.00,1.2348
5765.00,1.2256
5764.00,1.2161
5763.00,1.2059
5762.00,1.1952
5761.00,1.1839
5760.00,1.1722
5759.00,1.1601
5758.00,1.1478
5757.00,1.1355
5756.00,1.1229
5755.00,1.1101
5754.00,1.0968
5753.00,1.0832
5752.00,1.0691
5751.00,1.0547
5750.00,1.0401
5749.00,1.0255
5748.00,1.0110
5747.00,0.9965
5746.00,0.9821
5745.00,0.9678
5744.00,0.9536
5743.00,0.9395
5742.00,0.9255
5741.00,0.9118
5740.00,0.8985
5739.00,0.8855
5738.00,0.8730
5737.00,0.8609
5736.00,0.8492
5735.00,0.8379
5734.00,0.8272
5733.00,0.8172
5732.00,0.8080
5731.00,0.7997
5730.00,0.7923
5729.00,0.7858
5728.00,0.7803
5727.00,0.7755
5726.00,0.7716
5725.00,0.7686
5724.00,0.7667
5723.00,0.7656
5722.00,0.7655
5721.00,0.7664
5720.00,0.7683
5719.00,0.7713
5718.00,0.7753
5717.00,0.7802
5716.00,0.7860
5715.00,0.7927
5714.00,0.8001
5713.00,0.8083
5712.00,0.8172
5711.00,0.8269
5710.00,0.8373
5709.00,0.8484
5708.00,0.8601
5707.00,0.8722
5706.00,0.8846
5705.00,0.8973
5704.00,0.9103
5703.00,0.9236
5702.00,0.9371
5701.00,0.9511
5700.00,0.9652
5699.00,0.9794
5698.00,0.9935
5697.00,1.0077
5696.00,1.0220
5695.00,1.0364
5694.00,1.0507
5693.00,1.0650
5692.00,1.0791
5691.00,1.0930
5690.00,1.1066
5689.00,1.1198
5688.00,1.1329
5687.00,1.1459
5686.00,1.1585
5685.00,1.1707
5684.00,1.1825
5683.00,1.1939
5682.00,1.2050
5681.00,1.2158
5680.00,1.2262
5679.00,1.2362
5678.00,1.2457
5677.00,1.2547
5676.00,1.2632
5675.00,1.2710
5674.00,1.2785
5673.00,1.2856
5672.00,1.2924
5671.00,1.2990
5670.00,1.3053
5669.00,1.3110
5668.00,1.3162
5667.00,1.3209
5666.00,1.3250
5665.00,1.3285
5664.00,1.3315
5663.00,1.3341
5662.00,1.3364
5661.00,1.3383
5660.00,1.3395
5659.00,1.3402
5658.00,1.3405
5657.00,1.3406
5656.00,1.3405
5655.00,1.3398
5654.00,1.3386
5653.00,1.3369
5652.00,1.3346
5651.00,1.3318
5650.00,1.3286
5649.00,1.3252
5648.00,1.3215
5647.00,1.3175
5646.00,1.3130
5645.00,1.3077
5644.00,1.3018
5643.00,1.2954
5642.00,1.2885
5641.00,1.2812
5640.00,1.2735
5639.00,1.2656
5638.00,1.2574
5637.00,1.2489
5636.00,1.2398
5635.00,1.2303
5634.00,1.2202
5633.00,1.2094
5632.00,1.1980
5631.00,1.1861
5630.00,1.1741
5629.00,1.1620
5628.00,1.1498
5627.00,1.1374
5626.00,1.1246
5625.00,1.1115
5624.00,1.0979
5623.00,1.0839
5622.00,1.0695
5621.00,1.0549
5620.00,1.0401
5619.00,1.0251
5618.00,1.0099
5617.00,0.9946
5616.00,0.9793
5615.00,0.9641
5614.00,0.9490
5613.00,0.9342
5612.00,0.9194
5611.00,0.9049
5610.00,0.8906
5609.00,0.8767
5608.00,0.8631
5607.00,0.8501
5606.00,0.8377
5605.00,0.8258
5604.00,0.8146
5603.00,0.8040
5602.00,0.7943
5601.00,0.7854
5600.00,0.7774
5599.00,0.7703
5598.00,0.7641
5597.00,0.7589
5596.00,0.7547
5595.00,0.7517
5594.00,0.7498
5593.00,0.7492
5592.00,0.7496
5591.00,0.7510
5590.00,0.7535
5589.00,0.7571
5588.00,0.7617
5587.00,0.7675
5586.00,0.7742
5585.00,0.7818
5584.00,0.7902
5583.00,0.7994
5582.00,0.8094
5581.00,0.8201
5580.00,0.8314
5579.00,0.8434
5578.00,0.8559
5577.00,0.8689
5576.00,0.8822
5575.00,0.8959
5574.00,0.9099
5573.00,0.9244
5572.00,0.9392
5571.00,0.9541
5570.00,0.9693
5569.00,0.9845
5568.00,0.9999
5567.00,1.0151
5566.00,1.0303
5565.00,1.0453
5564.00,1.0603
5563.00,1.0751
5562.00,1.0898
5561.00,1.1043
5560.00,1.1187
5559.00,1.1329
5558.00,1.1466
5557.00,1.1598
5556.00,1.1727
5555.00,1.1852
5554.00,1.1974
5553.00,1.2094
5552.00,1.2211
5551.00,1.2325
5550.00,1.2434
5549.00,1.2537
5548.00,1.2632
5547.00,1.2722
5546.00,1.2807
5545.00,1.2887
5544.00,1.2965
5543.00,1.3041
5542.00,1.3114
5541.00,1.3180
5540.00,1.3239
5539.00,1.3292
5538.00,1.3342
5537.00,1.3389
5536.00,1.3433
5535.00,1.3472
5534.00,1.3506
5533.00,1.3533
5532.00,1.3555
5531.00,1.3574
5530.00,1.3591
5529.00,1.3605
5528.00,1.3612
5527.00,1.3611
5526.00,1.3604
5525.00,1.3594
5524.00,1.3582
5523.00,1.3569
5522.00,1.3554
5521.00,1.3535
5520.00,1.3511
5519.00,1.3481
5518.00,1.3443
5517.00,1.3397
5516.00,1.3346
5515.00,1.3290
5514.00,1.3233
5513.00,1.3171
5512.00,1.3107
5511.00,1.3040
5510.00,1.2969
5509.00,1.2892
5508.00,1.2809
5507.00,1.2719
5506.00,1.2623
5505.00,1.2523
5504.00,1.2418
5503.00,1.2310
5502.00,1.2198
5501.00,1.2083
5500.00,1.1962
5499.00,1.1837
5498.00,1.1705
5497.00,1.1568
5496.00,1.1427
5495.00,1.1281
5494.00,1.1133
5493.00,1.0981
5492.00,1.0826
5491.00,1.0668
5490.00,1.0508
5489.00,1.0348
5488.00,1.0187
5487.00,1.0026
5486.00,0.9864
5485.00,0.9704
5484.00,0.9544
5483.00,0.9385
5482.00,0.9228
5481.00,0.9074
5480.00,0.8922
5479.00,0.8773
5478.00,0.8629
5477.00,0.8490
5476.00,0.8356
5475.00,0.8229
5474.00,0.8109
5473.00,0.7999
5472.00,0.7896
5471.00,0.7803
5470.00,0.7719
5469.00,0.7645
5468.00,0.7580
5467.00,0.7526
5466.00,0.7484
5465.00,0.7454
5464.00,0.7435
5463.00,0.7427
5462.00,0.7431
5461.00,0.7447
5460.00,0.7475
5459.00,0.7513
5458.00,0.7563
5457.00,0.7623
5456.00,0.7694
5455.00,0.7774
5454.00,0.7863
5453.00,0.7960
5452.00,0.8064
5451.00,0.8174
5450.00,0.8290
5449.00,0.8412
5448.00,0.8539
5447.00,0.8672
5446.00,0.8810
5445.00,0.8952
5444.00,0.9096
5443.00,0.9242
5442.00,0.9389
5441.00,0.9539
5440.00,0.9690
5439.00,0.9841
5438.00,0.9992
5437.00,1.0143
5436.00,1.0295
5435.00,1.0447
5434.00,1.0599
5433.00,1.0750
5432.00,1.0897
5431.00,1.1040
5430.00,1.1180
5429.00,1.1318
5428.00,1.1454
5427.00,1.1589
5426.00,1.1722
5425.00,1.1853
5424.00,1.1981
5423.00,1.2106
5422.00,1.2226
5421.00,1.2341
5420.00,1.2450
5419.00,1.2552
5418.00,1.2650
5417.00,1.2743
5416.00,1.2832
5415.00,1.2917
5414.00,1.2998
5413.00,1.3075
5412.00,1.3148
5411.00,1.3218
5410.00,1.3285
5409.00,1.3349
5408.00,1.3409
5407.00,1.3463
5406.00,1.3510
5405.00,1.3551
5404.00,1.3587
5403.00,1.3618
5402.00,1.3645
5401.00,1.3668
5400.00,1.3686
5399.00,1.3700
5398.00,1.3708
5397.00,1.3712
5396.00,1.3713
5395.00,1.3711
5394.00,1.3705
5393.00,1.3694
5392.00,1.3676
5391.00,1.3653
5390.00,1.3625
5389.00,1.3593
5388.00,1.3557
5387.00,1.3518
5386.00,1.3475
5385.00,1.3425
5384.00,1.3370
5383.00,1.3309
5382.00,1.3244
5381.00,1.3177
5380.00,1.3106
5379.00,1.3031
5378.00,1.2951
5377.00,1.2863
5376.00,1.2768
5375.00,1.2665
5374.00,1.2555
5373.00,1.2442
5372.00,1.2326
5371.00,1.2207
5370.00,1.2082
5369.00,1.1953
5368.00,1.1820
5367.00,1.1682
5366.00,1.1539
5365.00,1.1391
5364.00,1.1238
5363.00,1.1081
5362.00,1.0922
5361.00,1.0761
5360.00,1.0597
5359.00,1.0432
5358.00,1.0266
5357.00,1.0099
5356.00,0.9930
5355.00,0.9760
5354.00,0.9591
5353.00,0.9423
5352.00,0.9258
5351.00,0.9097
5350.00,0.8940
5349.00,0.8787
5348.00,0.8638
5347.00,0.8494
5346.00,0.8355
5345.00,0.8224
5344.00,0.8100
5343.00,0.7986
5342.00,0.7881
5341.00,0.7788
5340.00,0.7705
5339.00,0.7632
5338.00,0.7570
5337.00,0.7519
5336.00,0.7478
5335.00,0.7449
5334.00,0.7434
5333.00,0.7432
5332.00,0.7445
5331.00,0.7470
5330.00,0.7508
5329.00,0.7557
5328.00,0.7618
5327.00,0.7690
5326.00,0.7773
5325.00,0.7865
5324.00,0.7966
5323.00,0.8075
5322.00,0.8192
5321.00,0.8317
5320.00,0.8449
5319.00,0.8587
5318.00,0.8730
5317.00,0.8879
5316.00,0.9031
5315.00,0.9187
5314.00,0.9346
5313.00,0.9508
5312.00,0.9670
5311.00,0.9832
5310.00,0.9995
5309.00,1.0160
5308.00,1.0326
5307.00,1.0493
5306.00,1.0658
5305.00,1.0821
5304.00,1.0982
5303.00,1.1141
5302.00,1.1300
5301.00,1.1457
5300.00,1.1609
5299.00,1.1757
5298.00,1.1899
5297.00,1.2037
5296.00,1.2171
5295.00,1.2302
5294.00,1.2430
5293.00,1.2555
5292.00,1.2676
5291.00,1.2792
5290.00,1.2903
5289.00,1.3008
5288.00,1.3107
5287.00,1.3199
5286.00,1.3285
5285.00,1.3365
5284.00,1.3439
5283.00,1.3509
5282.00,1.3575
5281.00,1.3638
5280.00,1.3697
5279.00,1.3753
5278.00,1.3804
5277.00,1.3849
5276.00,1.3888
5275.00,1.3922
5274.00,1.3952
5273.00,1.3978
5272.00,1.3999
5271.00,1.4015
5270.00,1.4030
5269.00,1.4042
5268.00,1.4050
5267.00,1.4051
5266.00,1.4044
5265.00,1.4032
5264.00,1.4014
5263.00,1.3992
5262.00,1.3968
5261.00,1.3941
5260.00,1.3909
5259.00,1.3871
5258.00,1.3828
5257.00,1.3784
5256.00,1.3736
5255.00,1.3683
5254.00,1.3626
5253.00,1.3561
5252.00,1.3489
5251.00,1.3412
5250.00,1.3332
5249.00,1.3248
5248.00,1.3159
5247.00,1.3064
5246.00,1.2963
5245.00,1.2858
5244.00,1.2747
5243.00,1.2632
5242.00,1.2513
5241.00,1.2391
5240.00,1.2266
5239.00,1.2136
5238.00,1.2000
5237.00,1.1857
5236.00,1.1708
5235.00,1.1555
5234.00,1.1398
5233.00,1.1239
5232.00,1.1077
5231.00,1.0912
5230.00,1.0743
5229.00,1.0573
5228.00,1.0400
5227.00,1.0225
5226.00,1.0050
5225.00,0.9876
5224.00,0.9702
5223.00,0.9530
5222.00,0.9361
5221.00,0.9196
5220.00,0.9033
5219.00,0.8875
5218.00,0.8722
5217.00,0.8575
5216.00,0.8434
5215.00,0.8300
5214.00,0.8173
5213.00,0.8054
5212.00,0.7945
5211.00,0.7845
5210.00,0.7756
5209.00,0.7678
5208.00,0.7612
5207.00,0.7557
5206.00,0.7516
5205.00,0.7489
5204.00,0.7475
5203.00,0.7474
5202.00,0.7486
5201.00,0.7510
5200.00,0.7546
5199.00,0.7595
5198.00,0.7657
5197.00,0.7730
5196.00,0.7814
5195.00,0.7908
5194.00,0.8010
5193.00,0.8121
5192.00,0.8240
5191.00,0.8367
5190.00,0.8500
5189.00,0.8640
5188.00,0.8785
5187.00,0.8935
5186.00,0.9090
5185.00,0.9250
5184.00,0.9414
5183.00,0.9579
5182.00,0.9746
5181.00,0.9913
5180.00,1.0081
5179.00,1.0249
5178.00,1.0419
5177.00,1.0588
5176.00,1.0756
5175.00,1.0922
5174.00,1.1087
5173.00,1.1251
5172.00,1.1413
5171.00,1.1572
5170.00,1.1728
5169.00,1.1879
5168.00,1.2023
5167.00,1.2161
5166.00,1.2297
5165.00,1.2431
5164.00,1.2563
5163.00,1.2690
5162.00,1.2812
5161.00,1.2927
5160.00,1.3036
5159.00,1.3138
5158.00,1.3236
5157.00,1.3330
5156.00,1.3420
5155.00,1.3508
5154.00,1.3593
5153.00,1.3674
5152.00,1.3750
5151.00,1.3820
5150.00,1.3882
5149.00,1.3939
5148.00,1.3990
5147.00,1.4034
5146.00,1.4074
5145.00,1.4108
5144.00,1.4140
5143.00,1.4168
5142.00,1.4194
5141.00,1.4217
5140.00,1.4236
5139.00,1.4248
5138.00,1.4253
5137.00,1.4252
5136.00,1.4246
5135.00,1.4238
5134.00,1.4227
5133.00,1.4213
5132.00,1.4195
5131.00,1.4170
5130.00,1.4139
5129.00,1.4101
5128.00,1.4058
5127.00,1.4013
5126.00,1.3965
5125.00,1.3913
5124.00,1.3854
5123.00,1.3786
5122.00,1.3713
5121.00,1.3634
5120.00,1.3551
5119.00,1.3465
5118.00,1.3376
5117.00,1.3282
5116.00,1.3182
5115.00,1.3075
5114.00,1.2963
5113.00,1.2845
5112.00,1.2723
5111.00,1.2598
5110.00,1.2467
5109.00,1.2330
5108.00,1.2187
5107.00,1.2038
5106.00,1.1885
5105.00,1.1727
5104.00,1.1566
5103.00,1.1400
5102.00,1.1231
5101.00,1.1057
5100.00,1.0880
5099.00,1.0702
5098.00,1.0523
5097.00,1.0342
5096.00,1.0162
5095.00,0.9980
5094.00,0.9798
5093.00,0.9618
5092.00,0.9439
5091.00,0.9264
5090.00,0.9093
5089.00,0.8927
5088.00,0.8765
5087.00,0.8610
5086.00,0.8461
5085.00,0.8320
5084.00,0.8188
5083.00,0.8066
5082.00,0.7953
5081.00,0.7852
5080.00,0.7763
5079.00,0.7685
5078.00,0.7621
5077.00,0.7569
5076.00,0.7531
5075.00,0.7507
5074.00,0.7496
5073.00,0.7499
5072.00,0.7515
5071.00,0.7545
5070.00,0.7590
5069.00,0.7648
5068.00,0.7718
5067.00,0.7801
5066.00,0.7896
5065.00,0.8001
5064.00,0.8116
5063.00,0.8240
5062.00,0.8372
5061.00,0.8512
5060.00,0.8659
5059.00,0.8812
5058.00,0.8970
5057.00,0.9134
5056.00,0.9301
5055.00,0.9473
5054.00,0.9648
5053.00,0.9826
5052.00,1.0005
5051.00,1.0184
5050.00,1.0362
5049.00,1.0541
5048.00,1.0718
5047.00,1.0894
5046.00,1.1068
5045.00,1.1240
5044.00,1.1411
5043.00,1.1580
5042.00,1.1747
5041.00,1.1911
5040.00,1.2070
5039.00,1.2224
5038.00,1.2373
5037.00,1.2518
5036.00,1.2658
5035.00,1.2795
5034.00,1.2926
5033.00,1.3051
5032.00,1.3171
5031.00,1.3286
5030.00,1.3397
5029.00,1.3502
5028.00,1.3601
5027.00,1.3694
5026.00,1.3781
5025.00,1.3864
5024.00,1.3942
5023.00,1.4016
5022.00,1.4086
5021.00,1.4151
5020.00,1.4211
5019.00,1.4265
5018.00,1.4314
5017.00,1.4357
5016.00,1.4394
5015.00,1.4426
5014.00,1.4454
5013.00,1.4478
5012.00,1.4498
5011.00,1.4515
5010.00,1.4530
5009.00,1.4541
5008.00,1.4545
5007.00,1.4541
5006.00,1.4529
5005.00,1.4513
5004.00,1.4495
5003.00,1.4474
5002.00,1.4451
5001.00,1.4423
5000.00,1.4388
4999.00,1.4346
4998.00,1.4298
4997.00,1.4246
4996.00,1.4189
4995.00,1.4127
4994.00,1.4060
4993.00,1.3989
4992.00,1.3914
4991.00,1.3835
4990.00,1.3751
4989.00,1.3662
4988.00,1.3569
4987.00,1.3470
4986.00,1.3367
4985.00,1.3257
4984.00,1.3140
4983.00,1.3014
4982.00,1.2883
4981.00,1.2746
4980.00,1.2606
4979.00,1.2461
4978.00,1.2313
4977.00,1.2158
4976.00,1.1997
4975.00,1.1829
4974.00,1.1657
4973.00,1.1482
4972.00,1.1304
4971.00,1.1123
4970.00,1.0938
4969.00,1.0750
4968.00,1.0558
4967.00,1.0364
4966.00,1.0170
4965.00,0.9976
4964.00,0.9783
4963.00,0.9591
4962.00,0.9402
4961.00,0.9217
4960.00,0.9035
4959.00,0.8859
4958.00,0.8688
4957.00,0.8523
4956.00,0.8366
4955.00,0.8216
4954.00,0.8077
4953.00,0.7947
4952.00,0.7829
4951.00,0.7722
4950.00,0.7629
4949.00,0.7549
4948.00,0.7483
4947.00,0.7432
4946.00,0.7396
4945.00,0.7375
4944.00,0.7370
4943.00,0.7380
4942.00,0.7406
4941.00,0.7447
4940.00,0.7503
4939.00,0.7572
4938.00,0.7655
4937.00,0.7751
4936.00,0.7859
4935.00,0.7977
4934.00,0.8106
4933.00,0.8244
4932.00,0.8390
4931.00,0.8543
4930.00,0.8703
4929.00,0.8871
4928.00,0.9044
4927.00,0.9221
4926.00,0.9401
4925.00,0.9584
4924.00,0.9769
4923.00,0.9956
4922.00,1.0144
4921.00,1.0334
4920.00,1.0524
4919.00,1.0712
4918.00,1.0898
4917.00,1.1084
4916.00,1.1268
4915.00,1.1451
4914.00,1.1630
4913.00,1.1805
4912.00,1.1975
4911.00,1.2141
4910.00,1.2303
4909.00,1.2461
4908.00,1.2615
4907.00,1.2765
4906.00,1.2911
4905.00,1.3050
4904.00,1.3182
4903.00,1.3308
4902.00,1.3428
4901.00,1.3543
4900.00,1.3655
4899.00,1.3761
4898.00,1.3864
4897.00,1.3960
4896.00,1.4048
4895.00,1.4131
4894.00,1.4210
4893.00,1.4285
4892.00,1.4356
4891.00,1.4421
4890.00,1.4480
4889.00,1.4533
4888.00,1.4578
4887.00,1.4619
4886.00,1.4658
4885.00,1.4696
4884.00,1.4731
4883.00,1.4760
4882.00,1.4781
4881.00,1.4796
4880.00,1.4806
4879.00,1.4811
4878.00,1.4813
4877.00,1.4812
4876.00,1.4806
4875.00,1.4791
4874.00,1.4770
4873.00,1.4743
4872.00,1.4714
4871.00,1.4683
4870.00,1.4650
4869.00,1.4613
4868.00,1.4570
4867.00,1.4521
4866.00,1.4464
4865.00,1.4400
4864.00,1.4329
4863.00,1.4254
4862.00,1.4174
4861.00,1.4091
4860.00,1.4005
4859.00,1.3913
4858.00,1.3815
4857.00,1.3710
4856.00,1.3598
4855.00,1.3480
4854.00,1.3358
4853.00,1.3231
4852.00,1.3099
4851.00,1.2961
4850.00,1.2816
4849.00,1.2665
4848.00,1.2509
4847.00,1.2347
4846.00,1.2180
4845.00,1.2009
4844.00,1.1833
4843.00,1.1652
4842.00,1.1465
4841.00,1.1275
4840.00,1.1080
4839.00,1.0883
4838.00,1.0682
4837.00,1.0479
4836.00,1.0276
4835.00,1.0073
4834.00,0.9873
4833.00,0.9675
4832.00,0.9479
4831.00,0.9286
4830.00,0.9097
4829.00,0.8914
4828.00,0.8737
4827.00,0.8567
4826.00,0.8406
4825.00,0.8253
4824.00,0.8112
4823.00,0.7981
4822.00,0.7864
4821.00,0.7759
4820.00,0.7669
4819.00,0.7594
4818.00,0.7534
4817.00,0.7491
4816.00,0.7463
4815.00,0.7452
4814.00,0.7458
4813.00,0.7480
4812.00,0.7518
4811.00,0.7572
4810.00,0.7640
4809.00,0.7723
4808.00,0.7819
4807.00,0.7928
4806.00,0.8049
4805.00,0.8183
4804.00,0.8326
4803.00,0.8479
4802.00,0.8640
4801.00,0.8808
4800.00,0.8983
4799.00,0.9162
4798.00,0.9346
4797.00,0.9534
4796.00,0.9726
4795.00,0.9922
4794.00,1.0119
4793.00,1.0318
4792.00,1.0517
4791.00,1.0716
4790.00,1.0914
4789.00,1.1111
4788.00,1.1305
4787.00,1.1498
4786.00,1.1686
4785.00,1.1871
4784.00,1.2052
4783.00,1.2229
4782.00,1.2402
4781.00,1.2572
4780.00,1.2737
4779.00,1.2896
4778.00,1.3048
4777.00,1.3194
4776.00,1.3336
4775.00,1.3474
4774.00,1.3609
4773.00,1.3737
4772.00,1.3858
4771.00,1.3972
4770.00,1.4077
4769.00,1.4177
4768.00,1.4271
4767.00,1.4360
4766.00,1.4444
4765.00,1.4522
4764.00,1.4594
4763.00,1.4663
4762.00,1.4730
4761.00,1.4794
4760.00,1.4853
4759.00,1.4906
4758.00,1.4952
4757.00,1.4990
4756.00,1.5024
4755.00,1.5052
4754.00,1.5076
4753.00,1.5096
4752.00,1.5112
4751.00,1.5124
4750.00,1.5132
4749.00,1.5135
4748.00,1.5134
4747.00,1.5128
4746.00,1.5116
4745.00,1.5098
4744.00,1.5073
4743.00,1.5043
4742.00,1.5010
4741.00,1.4973
4740.00,1.4933
4739.00,1.4888
4738.00,1.4838
4737.00,1.4781
4736.00,1.4719
4735.00,1.4651
4734.00,1.4577
4733.00,1.4498
4732.00,1.4416
4731.00,1.4329
4730.00,1.4239
4729.00,1.4141
4728.00,1.4034
4727.00,1.3919
4726.00,1.3797
4725.00,1.3670
4724.00,1.3539
4723.00,1.3404
4722.00,1.3265
4721.00,1.3120
4720.00,1.2968
4719.00,1.2810
4718.00,1.2645
4717.00,1.2474
4716.00,1.2299
4715.00,1.2118
4714.00,1.1933
4713.00,1.1743
4712.00,1.1547
4711.00,1.1346
4710.00,1.1141
4709.00,1.0933
4708.00,1.0724
4707.00,1.0514
4706.00,1.0303
4705.00,1.0093
4704.00,0.9884
4703.00,0.9677
4702.00,0.9474
4701.00,0.9276
4700.00,0.9084
4699.00,0.8900
4698.00,0.8724
4697.00,0.8557
4696.00,0.8400
4695.00,0.8254
4694.00,0.8122
4693.00,0.8003
4692.00,0.7899
4691.00,0.7810
4690.00,0.7737
4689.00,0.7681
4688.00,0.7641
4687.00,0.7619
4686.00,0.7613
4685.00,0.7625
4684.00,0.7652
4683.00,0.7695
4682.00,0.7754
4681.00,0.7827
4680.00,0.7914
4679.00,0.8013
4678.00,0.8125
4677.00,0.8249
4676.00,0.8385
4675.00,0.8530
4674.00,0.8683
4673.00,0.8843
4672.00,0.9010
4671.00,0.9183
4670.00,0.9361
4669.00,0.9544
4668.00,0.9731
4667.00,0.9922
4666.00,1.0115
4665.00,1.0311
4664.00,1.0507
4663.00,1.0704
4662.00,1.0902
4661.00,1.1099
4660.00,1.1295
4659.00,1.1490
4658.00,1.1683
4657.00,1.1872
4656.00,1.2059
4655.00,1.2244
4654.00,1.2426
4653.00,1.2605
4652.00,1.2780
4651.00,1.2948
4650.00,1.3110
4649.00,1.3267
4648.00,1.3420
4647.00,1.3567
4646.00,1.3708
4645.00,1.3843
4644.00,1.3972
4643.00,1.4097
4642.00,1.4217
4641.00,1.4331
4640.00,1.4440
4639.00,1.4542
4638.00,1.4636
4637.00,1.4724
4636.00,1.4806
4635.00,1.4885
4634.00,1.4959
4633.00,1.5028
4632.00,1.5093
4631.00,1.5152
4630.00,1.5207
4629.00,1.5257
4628.00,1.5304
4627.00,1.5347
4626.00,1.5383
4625.00,1.5412
4624.00,1.5435
4623.00,1.5453
4622.00,1.5467
4621.00,1.5479
4620.00,1.5487
4619.00,1.5489
4618.00,1.5486
4617.00,1.5475
4616.00,1.5460
4615.00,1.5441
4614.00,1.5418
4613.00,1.5391
4612.00,1.5358
4611.00,1.5320
4610.00,1.5276
4609.00,1.5228
4608.00,1.5175
4607.00,1.5118
4606.00,1.5055
4605.00,1.4987
4604.00,1.4913
4603.00,1.4835
4602.00,1.4751
4601.00,1.4662
4600.00,1.4566
4599.00,1.4463
4598.00,1.4356
4597.00,1.4242
4596.00,1.4121
4595.00,1.3992
4594.00,1.3856
4593.00,1.3714
4592.00,1.3566
4591.00,1.3414
4590.00,1.3257
4589.00,1.3096
4588.00,1.2929
4587.00,1.2754
4586.00,1.2572
4585.00,1.2383
4584.00,1.2189
4583.00,1.1988
4582.00,1.1783
4581.00,1.1573
4580.00,1.1358
4579.00,1.1139
4578.00,1.0919
4577.00,1.0698
4576.00,1.0475
4575.00,1.0253
4574.00,1.0032
4573.00,0.9812
4572.00,0.9596
4571.00,0.9385
4570.00,0.9179
4569.00,0.8980
4568.00,0.8790
4567.00,0.8609
4566.00,0.8439
4565.00,0.8281
4564.00,0.8135
4563.00,0.8004
4562.00,0.7888
4561.00,0.7788
4560.00,0.7704
4559.00,0.7639
4558.00,0.7591
4557.00,0.7564
4556.00,0.7556
4555.00,0.7567
4554.00,0.7597
4553.00,0.7645
4552.00,0.7711
4551.00,0.7794
4550.00,0.7893
4549.00,0.8008
4548.00,0.8137
4547.00,0.8279
4546.00,0.8433
4545.00,0.8597
4544.00,0.8772
4543.00,0.8956
4542.00,0.9148
4541.00,0.9347
4540.00,0.9551
4539.00,0.9760
4538.00,0.9971
4537.00,1.0184
4536.00,1.0400
4535.00,1.0617
4534.00,1.0836
4533.00,1.1054
4532.00,1.1271
4531.00,1.1486
4530.00,1.1698
4529.00,1.1907
4528.00,1.2113
4527.00,1.2314
4526.00,1.2511
4525.00,1.2703
4524.00,1.2890
4523.00,1.3071
4522.00,1.3248
4521.00,1.3418
4520.00,1.3583
4519.00,1.3742
4518.00,1.3896
4517.00,1.4043
4516.00,1.4185
4515.00,1.4320
4514.00,1.4447
4513.00,1.4568
4512.00,1.4683
4511.00,1.4793
4510.00,1.4897
4509.00,1.4994
4508.00,1.5085
4507.00,1.5170
4506.00,1.5251
4505.00,1.5327
4504.00,1.5398
4503.00,1.5462
4502.00,1.5520
4501.00,1.5574
4500.00,1.5625
4499.00,1.5671
4498.00,1.5710
4497.00,1.5742
4496.00,1.5767
4495.00,1.5788
4494.00,1.5806
4493.00,1.5820
4492.00,1.5828
4491.00,1.5831
4490.00,1.5828
4489.00,1.5820
4488.00,1.5808
4487.00,1.5791
4486.00,1.5771
4485.00,1.5746
4484.00,1.5717
4483.00,1.5683
4482.00,1.5644
4481.00,1.5598
4480.00,1.5547
4479.00,1.5491
4478.00,1.5429
4477.00,1.5363
4476.00,1.5290
4475.00,1.5211
4474.00,1.5126
4473.00,1.5034
4472.00,1.4936
4471.00,1.4833
4470.00,1.4727
4469.00,1.4617
4468.00,1.4501
4467.00,1.4379
4466.00,1.4250
4465.00,1.4112
4464.00,1.3966
4463.00,1.3814
4462.00,1.3656
4461.00,1.3491
4460.00,1.3321
4459.00,1.3145
4458.00,1.2962
4457.00,1.2771
4456.00,1.2573
4455.00,1.2368
4454.00,1.2157
4453.00,1.1942
4452.00,1.1724
4451.00,1.1502
4450.00,1.1278
4449.00,1.1050
4448.00,1.0820
4447.00,1.0588
4446.00,1.0357
4445.00,1.0128
4444.00,0.9902
4443.00,0.9681
4442.00,0.9465
4441.00,0.9255
4440.00,0.9054
4439.00,0.8863
4438.00,0.8682
4437.00,0.8514
4436.00,0.8358
4435.00,0.8217
4434.00,0.8093
4433.00,0.7986
4432.00,0.7896
4431.00,0.7826
4430.00,0.7775
4429.00,0.7743
4428.00,0.7732
4427.00,0.7741
4426.00,0.7771
4425.00,0.7821
4424.00,0.7889
4423.00,0.7976
4422.00,0.8081
4421.00,0.8202
4420.00,0.8339
4419.00,0.8490
4418.00,0.8653
4417.00,0.8829
4416.00,0.9015
4415.00,0.9210
4414.00,0.9413
4413.00,0.9621
4412.00,0.9834
4411.00,1.0052
4410.00,1.0273
4409.00,1.0498
4408.00,1.0725
4407.00,1.0953
4406.00,1.1182
4405.00,1.1410
4404.00,1.1635
4403.00,1.1856
4402.00,1.2074
4401.00,1.2289
4400.00,1.2503
4399.00,1.2713
4398.00,1.2920
4397.00,1.3121
4396.00,1.3314
4395.00,1.3501
4394.00,1.3681
4393.00,1.3855
4392.00,1.4021
4391.00,1.4180
4390.00,1.4334
4389.00,1.4484
4388.00,1.4630
4387.00,1.4770
4386.00,1.4902
4385.00,1.5023
4384.00,1.5135
4383.00,1.5241
4382.00,1.5346
4381.00,1.5449
4380.00,1.5548
4379.00,1.5639
4378.00,1.5722
4377.00,1.5799
4376.00,1.5871
4375.00,1.5939
4374.00,1.6003
4373.00,1.6061
4372.00,1.6115
4371.00,1.6163
4370.00,1.6207
4369.00,1.6247
4368.00,1.6284
4367.00,1.6316
4366.00,1.6343
4365.00,1.6362
4364.00,1.6375
4363.00,1.6382
4362.00,1.6384
4361.00,1.6383
4360.00,1.6380
4359.00,1.6376
4358.00,1.6367
4357.00,1.6352
4356.00,1.6329
4355.00,1.6298
4354.00,1.6262
4353.00,1.6224
4352.00,1.6183
4351.00,1.6139
4350.00,1.6091
4349.00,1.6041
4348.00,1.5986
4347.00,1.5926
4346.00,1.5858
4345.00,1.5782
4344.00,1.5698
4343.00,1.5608
4342.00,1.5512
4341.00,1.5411
4340.00,1.5305
4339.00,1.5194
4338.00,1.5079
4337.00,1.4958
4336.00,1.4829
4335.00,1.4694
4334.00,1.4552
4333.00,1.4404
4332.00,1.4249
4331.00,1.4087
4330.00,1.3916
4329.00,1.3738
4328.00,1.3552
4327.00,1.3361
4326.00,1.3163
4325.00,1.2960
4324.00,1.2753
4323.00,1.2542
4322.00,1.2327
4321.00,1.2107
4320.00,1.1884
4319.00,1.1658
4318.00,1.1430
4317.00,1.1202
4316.00,1.0975
4315.00,1.0749
4314.00,1.0524
4313.00,1.0303
4312.00,1.0087
4311.00,0.9878
4310.00,0.9678
4309.00,0.9486
4308.00,0.9304
4307.00,0.9133
4306.00,0.8975
4305.00,0.8831
4304.00,0.8703
4303.00,0.8592
4302.00,0.8499
4301.00,0.8425
4300.00,0.8372
4299.00,0.8338
4298.00,0.8326
4297.00,0.8335
4296.00,0.8364
4295.00,0.8412
4294.00,0.8481
4293.00,0.8568
4292.00,0.8672
4291.00,0.8792
4290.00,0.8927
4289.00,0.9075
4288.00,0.9234
4287.00,0.9404
4286.00,0.9583
4285.00,0.9770
4284.00,0.9964
4283.00,1.0162
4282.00,1.0364
4281.00,1.0569
4280.00,1.0778
4279.00,1.0988
4278.00,1.1201
4277.00,1.1415
4276.00,1.1628
4275.00,1.1840
4274.00,1.2051
4273.00,1.2261
4272.00,1.2471
4271.00,1.2678
4270.00,1.2883
4269.00,1.3083
4268.00,1.3279
4267.00,1.3470
4266.00,1.3655
4265.00,1.3836
4264.00,1.4010
4263.00,1.4180
4262.00,1.4345
4261.00,1.4504
4260.00,1.4658
4259.00,1.4807
4258.00,1.4948
4257.00,1.5082
4256.00,1.5209
4255.00,1.5332
4254.00,1.5452
4253.00,1.5567
4252.00,1.5677
4251.00,1.5781
4250.00,1.5879
4249.00,1.5972
4248.00,1.6060
4247.00,1.6145
4246.00,1.6224
4245.00,1.6297
4244.00,1.6360
4243.00,1.6416
4242.00,1.6466
4241.00,1.6514
4240.00,1.6560
4239.00,1.6603
4238.00,1.6639
4237.00,1.6667
4236.00,1.6688
4235.00,1.6702
4234.00,1.6713
4233.00,1.6721
4232.00,1.6727
4231.00,1.6728
4230.00,1.6723
4229.00,1.6713
4228.00,1.6697
4227.00,1.6677
4226.00,1.6652
4225.00,1.6623
4224.00,1.6589
4223.00,1.6551
4222.00,1.6507
4221.00,1.6459
4220.00,1.6403
4219.00,1.6340
4218.00,1.6272
4217.00,1.6201
4216.00,1.6128
4215.00,1.6051
4214.00,1.5967
4213.00,1.5876
4212.00,1.5777
4211.00,1.5671
4210.00,1.5558
4209.00,1.5440
4208.00,1.5316
4207.00,1.5187
4206.00,1.5051
4205.00,1.4907
4204.00,1.4756
4203.00,1.4599
4202.00,1.4434
4201.00,1.4264
4200.00,1.4086
4199.00,1.3901
4198.00,1.3710
4197.00,1.3512
4196.00,1.3309
4195.00,1.3100
4194.00,1.2886
4193.00,1.2666
4192.00,1.2442
4191.00,1.2213
4190.00,1.1981
4189.00,1.1747
4188.00,1.1512
4187.00,1.1277
4186.00,1.1042
4185.00,1.0809
4184.00,1.0579
4183.00,1.0353
4182.00,1.0132
4181.00,0.9917
4180.00,0.9710
4179.00,0.9513
4178.00,0.9326
4177.00,0.9153
4176.00,0.8993
4175.00,0.8849
4174.00,0.8721
4173.00,0.8611
4172.00,0.8520
4171.00,0.8449
4170.00,0.8399
4169.00,0.8369
4168.00,0.8361
4167.00,0.8375
4166.00,0.8409
4165.00,0.8465
4164.00,0.8541
4163.00,0.8637
4162.00,0.8751
4161.00,0.8882
4160.00,0.9029
4159.00,0.9189
4158.00,0.9363
4157.00,0.9547
4156.00,0.9742
4155.00,0.9946
4154.00,1.0159
4153.00,1.0377
4152.00,1.0601
4151.00,1.0828
4150.00,1.1059
4149.00,1.1292
4148.00,1.1528
4147.00,1.1764
4146.00,1.2000
4145.00,1.2234
4144.00,1.2465
4143.00,1.2694
4142.00,1.2921
4141.00,1.3143
4140.00,1.3361
4139.00,1.3574
4138.00,1.3781
4137.00,1.3983
4136.00,1.4179
4135.00,1.4369
4134.00,1.4553
4133.00,1.4728
4132.00,1.4896
4131.00,1.5056
4130.00,1.5210
4129.00,1.5358
4128.00,1.5500
4127.00,1.5636
4126.00,1.5767
4125.00,1.5892
4124.00,1.6010
4123.00,1.6122
4122.00,1.6225
4121.00,1.6322
4120.00,1.6415
4119.00,1.6504
4118.00,1.6589
4117.00,1.6670
4116.00,1.6747
4115.00,1.6818
4114.00,1.6883
4113.00,1.6939
4112.00,1.6987
4111.00,1.7028
4110.00,1.7063
4109.00,1.7095
4108.00,1.7125
4107.00,1.7154
4106.00,1.7181
4105.00,1.7203
4104.00,1.7215
4103.00,1.7219
4102.00,1.7218
4101.00,1.7213
4100.00,1.7205
4099.00,1.7192
4098.00,1.7173
4097.00,1.7151
4096.00,1.7126
4095.00,1.7096
4094.00,1.7061
4093.00,1.7018
4092.00,1.6969
4091.00,1.6916
4090.00,1.6859
4089.00,1.6798
4088.00,1.6731
4087.00,1.6659
4086.00,1.6579
4085.00,1.6493
4084.00,1.6400
4083.00,1.6301
4082.00,1.6196
4081.00,1.6086
4080.00,1.5970
4079.00,1.5846
4078.00,1.5717
4077.00,1.5581
4076.00,1.5439
4075.00,1.5291
4074.00,1.5137
4073.00,1.4974
4072.00,1.4802
4071.00,1.4621
4070.00,1.4430
4069.00,1.4230
4068.00,1.4023
4067.00,1.3809
4066.00,1.3590
4065.00,1.3364
4064.00,1.3132
4063.00,1.2893
4062.00,1.2648
4061.00,1.2398
4060.00,1.2142
4059.00,1.1883
4058.00,1.1623
4057.00,1.1362
4056.00,1.1104
4055.00,1.0848
4054.00,1.0597
4053.00,1.0351
4052.00,1.0113
4051.00,0.9885
4050.00,0.9667
4049.00,0.9463
4048.00,0.9271
4047.00,0.9095
4046.00,0.8935
4045.00,0.8794
4044.00,0.8672
4043.00,0.8571
4042.00,0.8493
4041.00,0.8437
4040.00,0.8404
4039.00,0.8394
4038.00,0.8408
4037.00,0.8445
4036.00,0.8504
4035.00,0.8587
4034.00,0.8691
4033.00,0.8816
4032.00,0.8961
4031.00,0.9124
4030.00,0.9303
4029.00,0.9497
4028.00,0.9703
4027.00,0.9920
4026.00,1.0147
4025.00,1.0383
4024.00,1.0625
4023.00,1.0872
4022.00,1.1122
4021.00,1.1375
4020.00,1.1629
4019.00,1.1885
4018.00,1.2141
4017.00,1.2395
4016.00,1.2647
4015.00,1.2894
4014.00,1.3137
4013.00,1.3373
4012.00,1.3603
4011.00,1.3826
4010.00,1.4044
4009.00,1.4256
4008.00,1.4463
4007.00,1.4664
4006.00,1.4858
4005.00,1.5045
4004.00,1.5224
4003.00,1.5395
4002.00,1.5558
4001.00,1.5714
4000.00,1.5864
3999.00,1.6010
3998.00,1.6150
3997.00,1.6283
3996.00,1.6409
3995.00,1.6526
3994.00,1.6636
3993.00,1.6739
3992.00,1.6837
3991.00,1.6930
3990.00,1.7017
3989.00,1.7099
3988.00,1.7178
3987.00,1.7251
3986.00,1.7317
3985.00,1.7376
3984.00,1.7426
3983.00,1.7470
3982.00,1.7509
3981.00,1.7546
3980.00,1.7581
3979.00,1.7612
3978.00,1.7640
3977.00,1.7663
3976.00,1.7679
3975.00,1.7688
3974.00,1.7689
3973.00,1.7684
3972.00,1.7675
3971.00,1.7662
3970.00,1.7645
3969.00,1.7623
3968.00,1.7593
3967.00,1.7558
3966.00,1.7518
3965.00,1.7475
3964.00,1.7429
3963.00,1.7377
3962.00,1.7318
3961.00,1.7250
3960.00,1.7178
3959.00,1.7102
3958.00,1.7024
3957.00,1.6941
3956.00,1.6850
3955.00,1.6752
3954.00,1.6647
3953.00,1.6538
3952.00,1.6425
3951.00,1.6307
3950.00,1.6182
3949.00,1.6049
3948.00,1.5911
3947.00,1.5766
3946.00,1.5615
3945.00,1.5456
3944.00,1.5289
3943.00,1.5113
3942.00,1.4932
3941.00,1.4744
3940.00,1.4551
3939.00,1.4350
3938.00,1.4142
3937.00,1.3927
3936.00,1.3707
3935.00,1.3477
3934.00,1.3235
3933.00,1.2981
3932.00,1.2717
3931.00,1.2447
3930.00,1.2175
3929.00,1.1902
3928.00,1.1630
3927.00,1.1355
3926.00,1.1079
3925.00,1.0802
3924.00,1.0529
3923.00,1.0263
3922.00,1.0007
3921.00,0.9761
3920.00,0.9527
3919.00,0.9305
3918.00,0.9096
3917.00,0.8903
3916.00,0.8729
3915.00,0.8580
3914.00,0.8459
3913.00,0.8367
3912.00,0.8305
3911.00,0.8274
3910.00,0.8272
3909.00,0.8299
3908.00,0.8353
3907.00,0.8433
3906.00,0.8538
3905.00,0.8669
3904.00,0.8824
3903.00,0.9000
3902.00,0.9192
3901.00,0.9398
3900.00,0.9621
3899.00,0.9861
3898.00,1.0114
3897.00,1.0375
3896.00,1.0639
3895.00,1.0905
3894.00,1.1174
3893.00,1.1447
3892.00,1.1728
3891.00,1.2019
3890.00,1.2312
3889.00,1.2595
3888.00,1.2864
3887.00,1.3124
3886.00,1.3386
3885.00,1.3652
3884.00,1.3915
3883.00,1.4166
3882.00,1.4403
3881.00,1.4633
3880.00,1.4860
3879.00,1.5080
3878.00,1.5289
3877.00,1.5486
3876.00,1.5672
3875.00,1.5853
3874.00,1.6027
3873.00,1.6190
3872.00,1.6339
3871.00,1.6481
3870.00,1.6623
3869.00,1.6766
3868.00,1.6901
3867.00,1.7023
3866.00,1.7135
3865.00,1.7245
3864.00,1.7355
3863.00,1.7459
3862.00,1.7553
3861.00,1.7634
3860.00,1.7707
3859.00,1.7774
3858.00,1.7839
3857.00,1.7900
3856.00,1.7957
3855.00,1.8010
3854.00,1.8054
3853.00,1.8088
3852.00,1.8109
3851.00,1.8121
3850.00,1.8134
3849.00,1.8153
3848.00,1.8178
3847.00,1.8205
3846.00,1.8226
3845.00,1.8236
3844.00,1.8236
3843.00,1.8229
3842.00,1.8215
3841.00,1.8194
3840.00,1.8163
3839.00,1.8123
3838.00,1.8076
3837.00,1.8023
3836.00,1.7969
3835.00,1.7914
3834.00,1.7855
3833.00,1.7790
3832.00,1.7719
3831.00,1.7644
3830.00,1.7564
3829.00,1.7481
3828.00,1.7390
3827.00,1.7292
3826.00,1.7189
3825.00,1.7085
3824.00,1.6977
3823.00,1.6860
3822.00,1.6725
3821.00,1.6570
3820.00,1.6404
3819.00,1.6232
3818.00,1.6057
3817.00,1.5874
3816.00,1.5677
3815.00,1.5470
3814.00,1.5258
3813.00,1.5046
3812.00,1.4836
3811.00,1.4626
3810.00,1.4411
3809.00,1.4182
3808.00,1.3928
3807.00,1.3648
3806.00,1.3355
3805.00,1.3065
3804.00,1.2781
3803.00,1.2490
3802.00,1.2178
3801.00,1.1850
3800.00,1.1524
3799.00,1.1213
3798.00,1.0919
3797.00,1.0633
3796.00,1.0355
3795.00,1.0086
3794.00,0.9831
3793.00,0.9594
3792.00,0.9376
3791.00,0.9178
3790.00,0.9000
3789.00,0.8847
3788.00,0.8719
3787.00,0.8617
3786.00,0.8544
3785.00,0.8500
3784.00,0.8487
3783.00,0.8505
3782.00,0.8552
3781.00,0.8630
3780.00,0.8738
3779.00,0.8873
3778.00,0.9031
3777.00,0.9208
3776.00,0.9405
3775.00,0.9622
3774.00,0.9857
3773.00,1.0106
3772.00,1.0364
3771.00,1.0633
3770.00,1.0916
3769.00,1.1210
3768.00,1.1507
3767.00,1.1802
3766.00,1.2096
3765.00,1.2393
3764.00,1.2692
3763.00,1.2985
3762.00,1.3269
3761.00,1.3547
3760.00,1.3823
3759.00,1.4097
3758.00,1.4364
3757.00,1.4623
3756.00,1.4871
3755.00,1.5104
3754.00,1.5323
3753.00,1.5534
3752.00,1.5742
3751.00,1.5947
3750.00,1.6151
3749.00,1.6349
3748.00,1.6530
3747.00,1.6688
3746.00,1.6828
3745.00,1.6968
3744.00,1.7116
3743.00,1.7260
3742.00,1.7386
3741.00,1.7493
3740.00,1.7592
3739.00,1.7690
3738.00,1.7785
3737.00,1.7875
3736.00,1.7957
3735.00,1.8032
3734.00,1.8099
3733.00,1.8164
3732.00,1.8233
3731.00,1.8309
3730.00,1.8389
3729.00,1.8467
3728.00,1.8542
3727.00,1.8612
3726.00,1.8680
3725.00,1.8743
3724.00,1.8797
3723.00,1.8839
3722.00,1.8871
3721.00,1.8898
3720.00,1.8916
3719.00,1.8921
3718.00,1.8911
3717.00,1.8886
3716.00,1.8846
3715.00,1.8793
3714.00,1.8727
3713.00,1.8652
3712.00,1.8574
3711.00,1.8500
3710.00,1.8432
3709.00,1.8362
3708.00,1.8287
3707.00,1.8213
3706.00,1.8149
3705.00,1.8096
3704.00,1.8042
3703.00,1.7973
3702.00,1.7886
3701.00,1.7784
3700.00,1.7670
3699.00,1.7547
3698.00,1.7416
3697.00,1.7278
3696.00,1.7134
3695.00,1.6981
3694.00,1.6819
3693.00,1.6647
3692.00,1.6463
3691.00,1.6264
3690.00,1.6049
3689.00,1.5814
3688.00,1.5565
3687.00,1.5311
3686.00,1.5064
3685.00,1.4825
3684.00,1.4590
3683.00,1.4356
3682.00,1.4118
3681.00,1.3876
3680.00,1.3630
3679.00,1.3388
3678.00,1.3147
3677.00,1.2898
3676.00,1.2631
3675.00,1.2356
3674.00,1.2093
3673.00,1.1863
3672.00,1.1663
3671.00,1.1483
3670.00,1.1318
3669.00,1.1166
3668.00,1.1035
3667.00,1.0932
3666.00,1.0862
3665.00,1.0824
3664.00,1.0815
3663.00,1.0832
3662.00,1.0872
3661.00,1.0935
3660.00,1.1022
3659.00,1.1129
3658.00,1.1257
3657.00,1.1407
3656.00,1.1578
3655.00,1.1765
3654.00,1.1961
3653.00,1.2159
3652.00,1.2364
3651.00,1.2581
3650.00,1.2815
3649.00,1.3063
3648.00,1.3320
3647.00,1.3576
3646.00,1.3827
3645.00,1.4072
3644.00,1.4312
3643.00,1.4551
3642.00,1.4789
3641.00,1.5025
3640.00,1.5257
3639.00,1.5484
3638.00,1.5705
3637.00,1.5920
3636.00,1.6129
3635.00,1.6334
3634.00,1.6537
3633.00,1.6736
3632.00,1.6928
3631.00,1.7112
3630.00,1.7293
3629.00,1.7477
3628.00,1.7663
3627.00,1.7842
3626.00,1.8013
3625.00,1.8181
3624.00,1.8350
3623.00,1.8518
3622.00,1.8677
3621.00,1.8823
3620.00,1.8957
3619.00,1.9081
3618.00,1.9198
3617.00,1.9306
3616.00,1.9406
3615.00,1.9497
3614.00,1.9579
3613.00,1.9654
3612.00,1.9719
3611.00,1.9775
3610.00,1.9829
3609.00,1.9888
3608.00,1.9954
3607.00,2.0015
3606.00,2.0067
3605.00,2.0111
3604.00,2.0158
3603.00,2.0207
3602.00,2.0253
3601.00,2.0292
3600.00,2.0329
3599.00,2.0365
3598.00,2.0395
3597.00,2.0414
3596.00,2.0421
3595.00,2.0418
3594.00,2.0411
3593.00,2.0403
3592.00,2.0397
3591.00,2.0387
3590.00,2.0369
3589.00,2.0340
3588.00,2.0304
3587.00,2.0267
3586.00,2.0234
3585.00,2.0204
3584.00,2.0176
3583.00,2.0145
3582.00,2.0109
3581.00,2.0069
3580.00,2.0028
3579.00,1.9985
3578.00,1.9933
3577.00,1.9872
3576.00,1.9803
3575.00,1.9731
3574.00,1.9662
3573.00,1.9596
3572.00,1.9532
3571.00,1.9462
3570.00,1.9381
3569.00,1.9288
3568.00,1.9188
3567.00,1.9086
3566.00,1.8986
3565.00,1.8886
3564.00,1.8786
3563.00,1.8686
3562.00,1.8584
3561.00,1.8479
3560.00,1.8371
3559.00,1.8258
3558.00,1.8145
3557.00,1.8033
3556.00,1.7923
3555.00,1.7810
3554.00,1.7695
3553.00,1.7578
3552.00,1.7462
3551.00,1.7346
3550.00,1.7231
3549.00,1.7117
3548.00,1.7004
3547.00,1.6893
3546.00,1.6785
3545.00,1.6682
3544.00,1.6584
3543.00,1.6490
3542.00,1.6399
3541.00,1.6315
3540.00,1.6239
3539.00,1.6170
3538.00,1.6107
3537.00,1.6049
3536.00,1.5998
3535.00,1.5956
3534.00,1.5923
3533.00,1.5896
3532.00,1.5877
3531.00,1.5865
3530.00,1.5861
3529.00,1.5864
3528.00,1.5874
3527.00,1.5892
3526.00,1.5917
3525.00,1.5949
3524.00,1.5989
3523.00,1.6037
3522.00,1.6093
3521.00,1.6154
3520.00,1.6221
3519.00,1.6294
3518.00,1.6372
3517.00,1.6456
3516.00,1.6544
3515.00,1.6634
3514.00,1.6725
3513.00,1.6817
3512.00,1.6912
3511.00,1.7012
3510.00,1.7118
3509.00,1.7230
3508.00,1.7345
3507.00,1.7462
3506.00,1.7578
3505.00,1.7691
3504.00,1.7804
3503.00,1.7918
3502.00,1.8034
3501.00,1.8152
3500.00,1.8271
3499.00,1.8391
3498.00,1.8511
3497.00,1.8633
3496.00,1.8754
3495.00,1.8875
3494.00,1.8992
3493.00,1.9104
3492.00,1.9213
3491.00,1.9320
3490.00,1.9426
3489.00,1.9531
3488.00,1.9631
3487.00,1.9729
3486.00,1.9826
3485.00,1.9922
3484.00,2.0017
3483.00,2.0107
3482.00,2.0190
3481.00,2.0270
3480.00,2.0350
3479.00,2.0429
3478.00,2.0505
3477.00,2.0573
3476.00,2.0636
3475.00,2.0696
3474.00,2.0753
3473.00,2.0808
3472.00,2.0860
3471.00,2.0910
3470.00,2.0956
3469.00,2.0998
3468.00,2.1036
3467.00,2.1071
3466.00,2.1103
3465.00,2.1134
3464.00,2.1163
3463.00,2.1189
3462.00,2.1210
3461.00,2.1223
3460.00,2.1231
3459.00,2.1234
3458.00,2.1234
3457.00,2.1233
3456.00,2.1231
3455.00,2.1228
3454.00,2.1219
3453.00,2.1204
3452.00,2.1180
3451.00,2.1149
3450.00,2.1114
3449.00,2.1078
3448.00,2.1043
3447.00,2.1007
3446.00,2.0966
3445.00,2.0919
3444.00,2.0867
3443.00,2.0808
3442.00,2.0741
3441.00,2.0671
3440.00,2.0600
3439.00,2.0528
3438.00,2.0452
3437.00,2.0374
3436.00,2.0295
3435.00,2.0212
3434.00,2.0121
3433.00,2.0021
3432.00,1.9915
3431.00,1.9805
3430.00,1.9692
3429.00,1.9577
3428.00,1.9464
3427.00,1.9355
3426.00,1.9247
3425.00,1.9137
3424.00,1.9023
3423.00,1.8904
3422.00,1.8782
3421.00,1.8660
3420.00,1.8540
3419.00,1.8422
3418.00,1.8309
3417.00,1.8200
3416.00,1.8095
3415.00,1.7995
3414.00,1.7898
3413.00,1.7804
3412.00,1.7710
3411.00,1.7616
3410.00,1.7523
3409.00,1.7432
3408.00,1.7342
3407.00,1.7251
3406.00,1.7156
3405.00,1.7057
3404.00,1.6954
3403.00,1.6846
3402.00,1.6733
3401.00,1.6616
3400.00,1.6495
3399.00,1.6374
3398.00,1.6254
3397.00,1.6136
3396.00,1.6019
3395.00,1.5907
3394.00,1.5803
3393.00,1.5708
3392.00,1.5623
3391.00,1.5551
3390.00,1.5492
3389.00,1.5450
3388.00,1.5426
3387.00,1.5416
3386.00,1.5422
3385.00,1.5442
3384.00,1.5478
3383.00,1.5529
3382.00,1.5593
3381.00,1.5669
3380.00,1.5757
3379.00,1.5857
3378.00,1.5969
3377.00,1.6091
3376.00,1.6225
3375.00,1.6369
3374.00,1.6520
3373.00,1.6675
3372.00,1.6834
3371.00,1.6996
3370.00,1.7162
3369.00,1.7332
3368.00,1.7503
3367.00,1.7673
3366.00,1.7842
3365.00,1.8009
3364.00,1.8175
3363.00,1.8339
3362.00,1.8499
3361.00,1.8657
3360.00,1.8813
3359.00,1.8969
3358.00,1.9125
3357.00,1.9278
3356.00,1.9425
3355.00,1.9564
3354.00,1.9694
3353.00,1.9817
3352.00,1.9935
3351.00,2.0047
3350.00,2.0152
3349.00,2.0251
3348.00,2.0346
3347.00,2.0439
3346.00,2.0529
3345.00,2.0617
3344.00,2.0701
3343.00,2.0780
3342.00,2.0851
3341.00,2.0915
3340.00,2.0974
3339.00,2.1028
3338.00,2.1078
3337.00,2.1124
3336.00,2.1166
3335.00,2.1203
3334.00,2.1235
3333.00,2.1263
3332.00,2.1285
3331.00,2.1299
3330.00,2.1308
3329.00,2.1316
3328.00,2.1331
3327.00,2.1347
3326.00,2.1356
3325.00,2.1352
3324.00,2.1334
3323.00,2.1306
3322.00,2.1271
3321.00,2.1235
3320.00,2.1199
3319.00,2.1164
3318.00,2.1125
3317.00,2.1082
3316.00,2.1032
3315.00,2.0973
3314.00,2.0902
3313.00,2.0822
3312.00,2.0741
3311.00,2.0662
3310.00,2.0585
3309.00,2.0506
3308.00,2.0420
3307.00,2.0326
3306.00,2.0223
3305.00,2.0113
3304.00,1.9999
3303.00,1.9880
3302.00,1.9756
3301.00,1.9626
3300.00,1.9490
3299.00,1.9349
3298.00,1.9202
3297.00,1.9051
3296.00,1.8898
3295.00,1.8741
3294.00,1.8578
3293.00,1.8408
3292.00,1.8234
3291.00,1.8056
3290.00,1.7875
3289.00,1.7689
3288.00,1.7498
3287.00,1.7306
3286.00,1.7113
3285.00,1.6922
3284.00,1.6735
3283.00,1.6551
3282.00,1.6371
3281.00,1.6195
3280.00,1.6023
3279.00,1.5856
3278.00,1.5696
3277.00,1.5545
3276.00,1.5403
3275.00,1.5272
3274.00,1.5154
3273.00,1.5048
3272.00,1.4957
3271.00,1.4880
3270.00,1.4819
3269.00,1.4774
3268.00,1.4746
3267.00,1.4735
3266.00,1.4742
3265.00,1.4767
3264.00,1.4808
3263.00,1.4867
3262.00,1.4942
3261.00,1.5032
3260.00,1.5137
3259.00,1.5255
3258.00,1.5383
3257.00,1.5521
3256.00,1.5669
3255.00,1.5827
3254.00,1.5994
3253.00,1.6168
3252.00,1.6347
3251.00,1.6530
3250.00,1.6715
3249.00,1.6904
3248.00,1.7096
3247.00,1.7289
3246.00,1.7481
3245.00,1.7673
3244.00,1.7865
3243.00,1.8057
3242.00,1.8246
3241.00,1.8429
3240.00,1.8608
3239.00,1.8784
3238.00,1.8957
3237.00,1.9127
3236.00,1.9290
3235.00,1.9449
3234.00,1.9601
3233.00,1.9746
3232.00,1.9883
3231.00,2.0016
3230.00,2.0147
3229.00,2.0281
3228.00,2.0414
3227.00,2.0543
3226.00,2.0664
3225.00,2.0775
3224.00,2.0880
3223.00,2.0981
3222.00,2.1077
3221.00,2.1169
3220.00,2.1255
3219.00,2.1337
3218.00,2.1415
3217.00,2.1488
3216.00,2.1557
3215.00,2.1623
3214.00,2.1687
3213.00,2.1749
3212.00,2.1802
3211.00,2.1840
3210.00,2.1865
3209.00,2.1886
3208.00,2.1910
3207.00,2.1940
3206.00,2.1969
3205.00,2.1992
3204.00,2.2004
3203.00,2.2006
3202.00,2.2003
3201.00,2.2000
3200.00,2.2000
3199.00,2.1998
3198.00,2.1990
3197.00,2.1976
3196.00,2.1956
3195.00,2.1931
3194.00,2.1899
3193.00,2.1863
3192.00,2.1824
3191.00,2.1781
3190.00,2.1734
3189.00,2.1680
3188.00,2.1621
3187.00,2.1556
3186.00,2.1482
3185.00,2.1400
3184.00,2.1314
3183.00,2.1226
3182.00,2.1136
3181.00,2.1042
3180.00,2.0946
3179.00,2.0845
3178.00,2.0738
3177.00,2.0623
3176.00,2.0504
3175.00,2.0379
3174.00,2.0247
3173.00,2.0107
3172.00,1.9959
3171.00,1.9807
3170.00,1.9652
3169.00,1.9497
3168.00,1.9342
3167.00,1.9186
3166.00,1.9024
3165.00,1.8854
3164.00,1.8677
3163.00,1.8497
3162.00,1.8313
3161.00,1.8126
3160.00,1.7938
3159.00,1.7750
3158.00,1.7563
3157.00,1.7376
3156.00,1.7189
3155.00,1.7005
3154.00,1.6826
3153.00,1.6654
3152.00,1.6489
3151.00,1.6333
3150.00,1.6187
3149.00,1.6051
3148.00,1.5928
3147.00,1.5818
3146.00,1.5722
3145.00,1.5640
3144.00,1.5575
3143.00,1.5528
3142.00,1.5498
3141.00,1.5487
3140.00,1.5494
3139.00,1.5518
3138.00,1.5560
3137.00,1.5621
3136.00,1.5700
3135.00,1.5796
3134.00,1.5907
3133.00,1.6034
3132.00,1.6174
3131.00,1.6326
3130.00,1.6487
3129.00,1.6656
3128.00,1.6834
3127.00,1.7018
3126.00,1.7208
3125.00,1.7403
3124.00,1.7605
3123.00,1.7810
3122.00,1.8017
3121.00,1.8222
3120.00,1.8424
3119.00,1.8623
3118.00,1.8818
3117.00,1.9008
3116.00,1.9194
3115.00,1.9376
3114.00,1.9553
3113.00,1.9727
3112.00,1.9900
3111.00,2.0072
3110.00,2.0240
3109.00,2.0400
3108.00,2.0549
3107.00,2.0689
3106.00,2.0821
3105.00,2.0947
3104.00,2.1067
3103.00,2.1181
3102.00,2.1291
3101.00,2.1396
3100.00,2.1498
3099.00,2.1600
3098.00,2.1700
3097.00,2.1795
3096.00,2.1882
3095.00,2.1963
3094.00,2.2039
3093.00,2.2114
3092.00,2.2189
3091.00,2.2261
3090.00,2.2324
3089.00,2.2374
3088.00,2.2415
3087.00,2.2457
3086.00,2.2503
3085.00,2.2547
3084.00,2.2579
3083.00,2.2596
3082.00,2.2608
3081.00,2.2620
3080.00,2.2629
3079.00,2.2623
3078.00,2.2599
3077.00,2.2564
3076.00,2.2530
3075.00,2.2502
3074.00,2.2481
3073.00,2.2460
3072.00,2.2431
3071.00,2.2384
3070.00,2.2319
3069.00,2.2241
3068.00,2.2158
3067.00,2.2074
3066.00,2.1984
3065.00,2.1887
3064.00,2.1784
3063.00,2.1676
3062.00,2.1565
3061.00,2.1449
3060.00,2.1328
3059.00,2.1204
3058.00,2.1077
3057.00,2.0942
3056.00,2.0795
3055.00,2.0634
3054.00,2.0463
3053.00,2.0284
3052.00,2.0100
3051.00,1.9911
3050.00,1.9717
3049.00,1.9518
3048.00,1.9311
3047.00,1.9096
3046.00,1.8874
3045.00,1.8650
3044.00,1.8425
3043.00,1.8201
3042.00,1.7983
3041.00,1.7770
3040.00,1.7565
3039.00,1.7368
3038.00,1.7183
3037.00,1.7014
3036.00,1.6865
3035.00,1.6738
3034.00,1.6634
3033.00,1.6556
3032.00,1.6507
3031.00,1.6487
3030.00,1.6498
3029.00,1.6539
3028.00,1.6608
3027.00,1.6703
3026.00,1.6822
3025.00,1.6965
3024.00,1.7133
3023.00,1.7324
3022.00,1.7536
3021.00,1.7766
3020.00,1.8011
3019.00,1.8267
3018.00,1.8531
3017.00,1.8799
3016.00,1.9071
3015.00,1.9346
3014.00,1.9624
3013.00,1.9904
3012.00,2.0185
3011.00,2.0463
3010.00,2.0735
3009.00,2.1002
3008.00,2.1266
3007.00,2.1522
3006.00,2.1766
3005.00,2.1993
3004.00,2.2206
3003.00,2.2410
3002.00,2.2604
3001.00,2.2787
3000.00,2.2960
2999.00,2.3122
2998.00,2.3270
2997.00,2.3402
2996.00,2.3519
2995.00,2.3628
2994.00,2.3736
2993.00,2.3842
2992.00,2.3934
2991.00,2.4004
2990.00,2.4051
2989.00,2.4082
2988.00,2.4109
2987.00,2.4137
2986.00,2.4163
2985.00,2.4184
2984.00,2.4208
2983.00,2.4249
2982.00,2.4320
2981.00,2.4432
2980.00,2.4587
2979.00,2.4789
2978.00,2.5045
2977.00,2.5366
2976.00,2.5760
2975.00,2.6232
2974.00,2.6776
2973.00,2.7386
2972.00,2.8062
2971.00,2.8809
2970.00,2.9628
2969.00,3.0492
2968.00,3.1360
2967.00,3.2218
2966.00,3.3116
2965.00,3.4103
2964.00,3.5130
2963.00,3.6077
2962.00,3.6935
2961.00,3.7917
2960.00,3.9262
2959.00,4.0969
2958.00,4.2571
2957.00,4.3309
2956.00,4.3031
2955.00,4.2308
2954.00,4.1674
2953.00,4.1407
2952.00,4.1515
2951.00,4.1766
2950.00,4.1936
2949.00,4.2088
2948.00,4.2413
2947.00,4.2786
2946.00,4.2773
2945.00,4.2284
2944.00,4.1714
2943.00,4.1434
2942.00,4.1702
2941.00,4.2656
2940.00,4.3647
2939.00,4.3639
2938.00,4.3120
2937.00,4.2938
2936.00,4.3250
2935.00,4.3762
2934.00,4.4577
2933.00,4.5340
2932.00,4.5246
2931.00,4.4891
2930.00,4.4689
2929.00,4.4097
2928.00,4.2942
2927.00,4.1864
2926.00,4.1306
2925.00,4.1267
2924.00,4.1609
2923.00,4.2157
2922.00,4.2483
2921.00,4.2010
2920.00,4.0723
2919.00,3.9149
2918.00,3.7680
2917.00,3.6394
2916.00,3.5290
2915.00,3.4397
2914.00,3.3735
2913.00,3.3265
2912.00,3.2895
2911.00,3.2546
2910.00,3.2200
2909.00,3.1881
2908.00,3.1608
2907.00,3.1394
2906.00,3.1243
2905.00,3.1133
2904.00,3.1008
2903.00,3.0817
2902.00,3.0566
2901.00,3.0299
2900.00,3.0052
2899.00,2.9839
2898.00,2.9667
2897.00,2.9537
2896.00,2.9436
2895.00,2.9345
2894.00,2.9253
2893.00,2.9165
2892.00,2.9083
2891.00,2.9002
2890.00,2.8923
2889.00,2.8851
2888.00,2.8785
2887.00,2.8724
2886.00,2.8672
2885.00,2.8640
2884.00,2.8630
2883.00,2.8644
2882.00,2.8695
2881.00,2.8813
2880.00,2.9019
2879.00,2.9312
2878.00,2.9681
2877.00,3.0110
2876.00,3.0588
2875.00,3.1098
2874.00,3.1627
2873.00,3.2175
2872.00,3.2748
2871.00,3.3356
2870.00,3.4021
2869.00,3.4764
2868.00,3.5587
2867.00,3.6469
2866.00,3.7427
2865.00,3.8479
2864.00,3.9387
2863.00,3.9588
2862.00,3.8970
2861.00,3.8100
2860.00,3.7330
2859.00,3.6606
2858.00,3.5817
2857.00,3.4968
2856.00,3.4096
2855.00,3.3197
2854.00,3.2268
2853.00,3.1345
2852.00,3.0470
2851.00,2.9670
2850.00,2.8957
2849.00,2.8334
2848.00,2.7783
2847.00,2.7274
2846.00,2.6791
2845.00,2.6340
2844.00,2.5939
2843.00,2.5583
2842.00,2.5254
2841.00,2.4934
2840.00,2.4622
2839.00,2.4316
2838.00,2.4005
2837.00,2.3682
2836.00,2.3351
2835.00,2.3028
2834.00,2.2722
2833.00,2.2431
2832.00,2.2145
2831.00,2.1859
2830.00,2.1571
2829.00,2.1283
2828.00,2.0996
2827.00,2.0708
2826.00,2.0415
2825.00,2.0112
2824.00,1.9797
2823.00,1.9470
2822.00,1.9138
2821.00,1.8806
2820.00,1.8483
2819.00,1.8179
2818.00,1.7904
2817.00,1.7667
2816.00,1.7478
2815.00,1.7344
2814.00,1.7266
2813.00,1.7245
2812.00,1.7278
2811.00,1.7361
2810.00,1.7490
2809.00,1.7660
2808.00,1.7865
2807.00,1.8099
2806.00,1.8358
2805.00,1.8640
2804.00,1.8937
2803.00,1.9243
2802.00,1.9549
2801.00,1.9850
2800.00,2.0142
2799.00,2.0421
2798.00,2.0686
2797.00,2.0934
2796.00,2.1162
2795.00,2.1372
2794.00,2.1565
2793.00,2.1746
2792.00,2.1920
2791.00,2.2092
2790.00,2.2263
2789.00,2.2434
2788.00,2.2600
2787.00,2.2758
2786.00,2.2907
2785.00,2.3044
2784.00,2.3172
2783.00,2.3291
2782.00,2.3403
2781.00,2.3508
2780.00,2.3600
2779.00,2.3680
2778.00,2.3752
2777.00,2.3822
2776.00,2.3892
2775.00,2.3954
2774.00,2.3999
2773.00,2.4030
2772.00,2.4053
2771.00,2.4075
2770.00,2.4095
2769.00,2.4110
2768.00,2.4114
2767.00,2.4111
2766.00,2.4102
2765.00,2.4090
2764.00,2.4067
2763.00,2.4027
2762.00,2.3972
2761.00,2.3912
2760.00,2.3850
2759.00,2.3786
2758.00,2.3716
2757.00,2.3641
2756.00,2.3562
2755.00,2.3475
2754.00,2.3376
2753.00,2.3262
2752.00,2.3133
2751.00,2.2992
2750.00,2.2843
2749.00,2.2690
2748.00,2.2536
2747.00,2.2377
2746.00,2.2208
2745.00,2.2027
2744.00,2.1833
2743.00,2.1626
2742.00,2.1405
2741.00,2.1174
2740.00,2.0932
2739.00,2.0678
2738.00,2.0410
2737.00,2.0132
2736.00,1.9844
2735.00,1.9544
2734.00,1.9230
2733.00,1.8902
2732.00,1.8560
2731.00,1.8205
2730.00,1.7836
2729.00,1.7456
2728.00,1.7068
2727.00,1.6677
2726.00,1.6286
2725.00,1.5900
2724.00,1.5525
2723.00,1.5165
2722.00,1.4827
2721.00,1.4518
2720.00,1.4243
2719.00,1.4006
2718.00,1.3812
2717.00,1.3665
2716.00,1.3567
2715.00,1.3520
2714.00,1.3523
2713.00,1.3578
2712.00,1.3683
2711.00,1.3836
2710.00,1.4034
2709.00,1.4272
2708.00,1.4545
2707.00,1.4850
2706.00,1.5181
2705.00,1.5532
2704.00,1.5898
2703.00,1.6275
2702.00,1.6657
2701.00,1.7042
2700.00,1.7428
2699.00,1.7811
2698.00,1.8187
2697.00,1.8555
2696.00,1.8916
2695.00,1.9267
2694.00,1.9605
2693.00,1.9929
2692.00,2.0239
2691.00,2.0538
2690.00,2.0826
2689.00,2.1104
2688.00,2.1372
2687.00,2.1631
2686.00,2.1879
2685.00,2.2115
2684.00,2.2339
2683.00,2.2547
2682.00,2.2736
2681.00,2.2905
2680.00,2.3060
2679.00,2.3209
2678.00,2.3358
2677.00,2.3503
2676.00,2.3638
2675.00,2.3760
2674.00,2.3870
2673.00,2.3968
2672.00,2.4057
2671.00,2.4137
2670.00,2.4213
2669.00,2.4287
2668.00,2.4355
2667.00,2.4407
2666.00,2.4444
2665.00,2.4475
2664.00,2.4514
2663.00,2.4562
2662.00,2.4608
2661.00,2.4643
2660.00,2.4671
2659.00,2.4704
2658.00,2.4753
2657.00,2.4812
2656.00,2.4862
2655.00,2.4886
2654.00,2.4886
2653.00,2.4881
2652.00,2.4883
2651.00,2.4888
2650.00,2.4886
2649.00,2.4871
2648.00,2.4841
2647.00,2.4800
2646.00,2.4754
2645.00,2.4713
2644.00,2.4679
2643.00,2.4647
2642.00,2.4605
2641.00,2.4548
2640.00,2.4477
2639.00,2.4396
2638.00,2.4310
2637.00,2.4223
2636.00,2.4140
2635.00,2.4053
2634.00,2.3955
2633.00,2.3841
2632.00,2.3711
2631.00,2.3572
2630.00,2.3427
2629.00,2.3277
2628.00,2.3122
2627.00,2.2958
2626.00,2.2785
2625.00,2.2606
2624.00,2.2422
2623.00,2.2232
2622.00,2.2035
2621.00,2.1829
2620.00,2.1612
2619.00,2.1383
2618.00,2.1142
2617.00,2.0897
2616.00,2.0647
2615.00,2.0389
2614.00,2.0120
2613.00,1.9837
2612.00,1.9544
2611.00,1.9240
2610.00,1.8924
2609.00,1.8593
2608.00,1.8248
2607.00,1.7889
2606.00,1.7517
2605.00,1.7134
2604.00,1.6744
2603.00,1.6350
2602.00,1.5959
2601.00,1.5580
2600.00,1.5218
2599.00,1.4881
2598.00,1.4574
2597.00,1.4304
2596.00,1.4077
2595.00,1.3897
2594.00,1.3768
2593.00,1.3694
2592.00,1.3676
2591.00,1.3714
2590.00,1.3806
2589.00,1.3948
2588.00,1.4137
2587.00,1.4366
2586.00,1.4629
2585.00,1.4921
2584.00,1.5238
2583.00,1.5575
2582.00,1.5929
2581.00,1.6296
2580.00,1.6675
2579.00,1.7059
2578.00,1.7445
2577.00,1.7827
2576.00,1.8204
2575.00,1.8571
2574.00,1.8927
2573.00,1.9273
2572.00,1.9611
2571.00,1.9940
2570.00,2.0257
2569.00,2.0560
2568.00,2.0851
2567.00,2.1131
2566.00,2.1400
2565.00,2.1656
2564.00,2.1898
2563.00,2.2126
2562.00,2.2343
2561.00,2.2553
2560.00,2.2761
2559.00,2.2965
2558.00,2.3159
2557.00,2.3342
2556.00,2.3513
2555.00,2.3672
2554.00,2.3820
2553.00,2.3957
2552.00,2.4088
2551.00,2.4215
2550.00,2.4341
2549.00,2.4466
2548.00,2.4589
2547.00,2.4702
2546.00,2.4799
2545.00,2.4881
2544.00,2.4955
2543.00,2.5028
2542.00,2.5101
2541.00,2.5172
2540.00,2.5236
2539.00,2.5289
2538.00,2.5332
2537.00,2.5373
2536.00,2.5419
2535.00,2.5470
2534.00,2.5513
2533.00,2.5543
2532.00,2.5561
2531.00,2.5572
2530.00,2.5578
2529.00,2.5576
2528.00,2.5565
2527.00,2.5546
2526.00,2.5524
2525.00,2.5506
2524.00,2.5495
2523.00,2.5487
2522.00,2.5473
2521.00,2.5450
2520.00,2.5421
2519.00,2.5390
2518.00,2.5356
2517.00,2.5311
2516.00,2.5248
2515.00,2.5165
2514.00,2.5070
2513.00,2.4973
2512.00,2.4876
2511.00,2.4771
2510.00,2.4650
2509.00,2.4520
2508.00,2.4395
2507.00,2.4281
2506.00,2.4173
2505.00,2.4053
2504.00,2.3908
2503.00,2.3738
2502.00,2.3556
2501.00,2.3374
2500.00,2.3193
2499.00,2.3005
2498.00,2.2800
2497.00,2.2580
2496.00,2.2350
2495.00,2.2112
2494.00,2.1864
2493.00,2.1601
2492.00,2.1320
2491.00,2.1019
2490.00,2.0701
2489.00,2.0369
2488.00,2.0024
2487.00,1.9663
2486.00,1.9283
2485.00,1.8883
2484.00,1.8465
2483.00,1.8034
2482.00,1.7592
2481.00,1.7143
2480.00,1.6690
2479.00,1.6236
2478.00,1.5786
2477.00,1.5349
2476.00,1.4932
2475.00,1.4543
2474.00,1.4189
2473.00,1.3879
2472.00,1.3618
2471.00,1.3414
2470.00,1.3268
2469.00,1.3185
2468.00,1.3164
2467.00,1.3203
2466.00,1.3299
2465.00,1.3449
2464.00,1.3651
2463.00,1.3899
2462.00,1.4191
2461.00,1.4520
2460.00,1.4882
2459.00,1.5271
2458.00,1.5682
2457.00,1.6110
2456.00,1.6549
2455.00,1.6993
2454.00,1.7437
2453.00,1.7876
2452.00,1.8306
2451.00,1.8726
2450.00,1.9132
2449.00,1.9525
2448.00,1.9905
2447.00,2.0270
2446.00,2.0620
2445.00,2.0953
2444.00,2.1270
2443.00,2.1575
2442.00,2.1870
2441.00,2.2158
2440.00,2.2437
2439.00,2.2701
2438.00,2.2943
2437.00,2.3166
2436.00,2.3376
2435.00,2.3582
2434.00,2.3784
2433.00,2.3979
2432.00,2.4162
2431.00,2.4332
2430.00,2.4492
2429.00,2.4647
2428.00,2.4797
2427.00,2.4942
2426.00,2.5081
2425.00,2.5212
2424.00,2.5330
2423.00,2.5430
2422.00,2.5511
2421.00,2.5581
2420.00,2.5651
2419.00,2.5725
2418.00,2.5802
2417.00,2.5881
2416.00,2.5960
2415.00,2.6032
2414.00,2.6091
2413.00,2.6144
2412.00,2.6202
2411.00,2.6263
2410.00,2.6315
2409.00,2.6345
2408.00,2.6360
2407.00,2.6375
2406.00,2.6394
2405.00,2.6411
2404.00,2.6413
2403.00,2.6396
2402.00,2.6366
2401.00,2.6335
2400.00,2.6313
2399.00,2.6298
2398.00,2.6281
2397.00,2.6257
2396.00,2.6225
2395.00,2.6185
2394.00,2.6137
2393.00,2.6084
2392.00,2.6033
2391.00,2.5986
2390.00,2.5936
2389.00,2.5869
2388.00,2.5783
2387.00,2.5681
2386.00,2.5574
2385.00,2.5464
2384.00,2.5347
2383.00,2.5223
2382.00,2.5092
2381.00,2.4960
2380.00,2.4851
2379.00,2.4643
2378.00,2.4672
2377.00,2.4195
2376.00,2.4596
2375.00,2.3459
2374.00,2.5288
2373.00,2.0253
2372.00,1.8170
2371.00,1.8436
2370.00,1.8010
2369.00,1.7958
2368.00,1.7684
2367.00,1.7483
2366.00,1.7214
2365.00,1.6944
2364.00,1.6665
2363.00,1.6397
2362.00,1.6133
2361.00,1.5872
2360.00,1.5642
2359.00,1.5427
2358.00,1.5196
2357.00,1.4953
2356.00,1.4706
2355.00,1.4516
2354.00,1.4390
2353.00,1.4300
2352.00,1.4246
2351.00,1.4179
2350.00,1.4049
2349.00,1.3827
2348.00,1.3657
2347.00,1.3670
2346.00,1.3743
2345.00,1.3696
2344.00,1.3440
2343.00,1.3169
2342.00,1.3083
2341.00,1.3216
2340.00,1.3454
2339.00,1.3601
2338.00,1.3671
2337.00,1.3708
2336.00,1.3782
2335.00,1.3829
2334.00,1.3979
2333.00,1.3958
2332.00,1.4287
2331.00,1.3961
2330.00,1.5846
2329.00,1.8802
2328.00,1.8140
2327.00,1.9174
2326.00,1.9225
2325.00,1.9861
2324.00,2.0137
2323.00,2.0580
2322.00,2.0932
2321.00,2.1289
2320.00,2.1638
2319.00,2.1979
2318.00,2.2308
2317.00,2.2622
2316.00,2.2916
2315.00,2.3189
2314.00,2.3444
2313.00,2.3685
2312.00,2.3915
2311.00,2.4135
2310.00,2.4345
2309.00,2.4547
2308.00,2.4742
2307.00,2.4925
2306.00,2.5094
2305.00,2.5257
2304.00,2.5418
2303.00,2.5572
2302.00,2.5713
2301.00,2.5848
2300.00,2.5986
2299.00,2.6123
2298.00,2.6245
2297.00,2.6346
2296.00,2.6438
2295.00,2.6533
2294.00,2.6638
2293.00,2.6748
2292.00,2.6847
2291.00,2.6936
2290.00,2.6963
2289.00,2.7030
2288.00,2.6991
2287.00,2.7171
2286.00,2.6755
2285.00,2.6462
2284.00,2.6677
2283.00,2.6692
2282.00,2.6808
2281.00,2.6858
2280.00,2.6929
2279.00,2.6977
2278.00,2.7034
2277.00,2.7097
2276.00,2.7165
2275.00,2.7216
2274.00,2.7233
2273.00,2.7220
2272.00,2.7202
2271.00,2.7187
2270.00,2.7164
2269.00,2.7121
2268.00,2.7064
2267.00,2.7007
2266.00,2.6956
2265.00,2.6902
2264.00,2.6833
2263.00,2.6739
2262.00,2.6620
2261.00,2.6491
2260.00,2.6367
2259.00,2.6253
2258.00,2.6136
2257.00,2.6012
2256.00,2.5887
2255.00,2.5765
2254.00,2.5640
2253.00,2.5502
2252.00,2.5348
2251.00,2.5182
2250.00,2.5008
2249.00,2.4822
2248.00,2.4624
2247.00,2.4416
2246.00,2.4198
2245.00,2.3971
2244.00,2.3734
2243.00,2.3483
2242.00,2.3215
2241.00,2.2927
2240.00,2.2622
2239.00,2.2301
2238.00,2.1966
2237.00,2.1615
2236.00,2.1246
2235.00,2.0857
2234.00,2.0445
2233.00,2.0010
2232.00,1.9555
2231.00,1.9080
2230.00,1.8589
2229.00,1.8086
2228.00,1.7576
2227.00,1.7065
2226.00,1.6559
2225.00,1.6068
2224.00,1.5602
2223.00,1.5172
2222.00,1.4786
2221.00,1.4455
2220.00,1.4188
2219.00,1.3995
2218.00,1.3880
2217.00,1.3848
2216.00,1.3899
2215.00,1.4031
2214.00,1.4238
2213.00,1.4512
2212.00,1.4845
2211.00,1.5226
2210.00,1.5646
2209.00,1.6098
2208.00,1.6574
2207.00,1.7067
2206.00,1.7571
2205.00,1.8079
2204.00,1.8585
2203.00,1.9083
2202.00,1.9569
2201.00,2.0043
2200.00,2.0502
2199.00,2.0941
2198.00,2.1355
2197.00,2.1747
2196.00,2.2122
2195.00,2.2483
2194.00,2.2826
2193.00,2.3148
2192.00,2.3452
2191.00,2.3741
2190.00,2.4016
2189.00,2.4281
2188.00,2.4536
2187.00,2.4779
2186.00,2.5006
2185.00,2.5219
2184.00,2.5423
2183.00,2.5620
2182.00,2.5804
2181.00,2.5973
2180.00,2.6136
2179.00,2.6299
2178.00,2.6459
2177.00,2.6605
2176.00,2.6735
2175.00,2.6856
2174.00,2.6972
2173.00,2.7085
2172.00,2.7193
2171.00,2.7299
2170.00,2.7399
2169.00,2.7488
2168.00,2.7564
2167.00,2.7632
2166.00,2.7701
2165.00,2.7777
2164.00,2.7858
2163.00,2.7935
2162.00,2.7998
2161.00,2.8044
2160.00,2.8077
2159.00,2.8100
2158.00,2.8118
2157.00,2.8139
2156.00,2.8171
2155.00,2.8203
2154.00,2.8213
2153.00,2.8190
2152.00,2.8151
2151.00,2.8119
2150.00,2.8099
2149.00,2.8079
2148.00,2.8053
2147.00,2.8025
2146.00,2.8006
2145.00,2.7998
2144.00,2.7996
2143.00,2.7989
2142.00,2.7956
2141.00,2.7889
2140.00,2.7795
2139.00,2.7698
2138.00,2.7618
2137.00,2.7559
2136.00,2.7506
2135.00,2.7439
2134.00,2.7342
2133.00,2.7220
2132.00,2.7085
2131.00,2.6943
2130.00,2.6791
2129.00,2.6632
2128.00,2.6479
2127.00,2.6339
2126.00,2.6200
2125.00,2.6044
2124.00,2.5863
2123.00,2.5663
2122.00,2.5449
2121.00,2.5225
2120.00,2.4995
2119.00,2.4762
2118.00,2.4524
2117.00,2.4272
2116.00,2.3998
2115.00,2.3697
2114.00,2.3376
2113.00,2.3040
2112.00,2.2690
2111.00,2.2320
2110.00,2.1926
2109.00,2.1510
2108.00,2.1075
2107.00,2.0620
2106.00,2.0143
2105.00,1.9649
2104.00,1.9144
2103.00,1.8635
2102.00,1.8124
2101.00,1.7619
2100.00,1.7129
2099.00,1.6667
2098.00,1.6242
2097.00,1.5862
2096.00,1.5532
2095.00,1.5259
2094.00,1.5047
2093.00,1.4906
2092.00,1.4839
2091.00,1.4851
2090.00,1.4941
2089.00,1.5110
2088.00,1.5352
2087.00,1.5659
2086.00,1.6022
2085.00,1.6433
2084.00,1.6884
2083.00,1.7369
2082.00,1.7879
2081.00,1.8404
2080.00,1.8938
2079.00,1.9474
2078.00,2.0006
2077.00,2.0528
2076.00,2.1034
2075.00,2.1516
2074.00,2.1974
2073.00,2.2407
2072.00,2.2819
2071.00,2.3209
2070.00,2.3572
2069.00,2.3904
2068.00,2.4205
2067.00,2.4488
2066.00,2.4765
2065.00,2.5038
2064.00,2.5299
2063.00,2.5546
2062.00,2.5781
2061.00,2.6003
2060.00,2.6202
2059.00,2.6370
2058.00,2.6515
2057.00,2.6654
2056.00,2.6807
2055.00,2.6982
2054.00,2.7170
2053.00,2.7352
2052.00,2.7514
2051.00,2.7655
2050.00,2.7786
2049.00,2.7912
2048.00,2.8032
2047.00,2.8142
2046.00,2.8240
2045.00,2.8319
2044.00,2.8377
2043.00,2.8431
2042.00,2.8502
2041.00,2.8603
2040.00,2.8717
2039.00,2.8817
2038.00,2.8888
2037.00,2.8938
2036.00,2.8981
2035.00,2.9019
2034.00,2.9043
2033.00,2.9047
2032.00,2.9044
2031.00,2.9052
2030.00,2.9081
2029.00,2.9122
2028.00,2.9155
2027.00,2.9172
2026.00,2.9176
2025.00,2.9176
2024.00,2.9177
2023.00,2.9173
2022.00,2.9151
2021.00,2.9094
2020.00,2.9000
2019.00,2.8886
2018.00,2.8782
2017.00,2.8711
2016.00,2.8670
2015.00,2.8636
2014.00,2.8593
2013.00,2.8538
2012.00,2.8472
2011.00,2.8388
2010.00,2.8272
2009.00,2.8121
2008.00,2.7958
2007.00,2.7811
2006.00,2.7693
2005.00,2.7591
2004.00,2.7474
2003.00,2.7322
2002.00,2.7138
2001.00,2.6933
2000.00,2.6715
1999.00,2.6486
1998.00,2.6253
1997.00,2.6021
1996.00,2.5789
1995.00,2.5548
1994.00,2.5285
1993.00,2.4995
1992.00,2.4679
1991.00,2.4341
1990.00,2.3988
1989.00,2.3628
1988.00,2.3263
1987.00,2.2887
1986.00,2.2490
1985.00,2.2068
1984.00,2.1619
1983.00,2.1150
1982.00,2.0665
1981.00,2.0173
1980.00,1.9679
1979.00,1.9186
1978.00,1.8698
1977.00,1.8221
1976.00,1.7763
1975.00,1.7328
1974.00,1.6926
1973.00,1.6566
1972.00,1.6259
1971.00,1.6011
1970.00,1.5835
1969.00,1.5743
1968.00,1.5746
1967.00,1.5849
1966.00,1.6050
1965.00,1.6340
1964.00,1.6705
1963.00,1.7131
1962.00,1.7603
1961.00,1.8108
1960.00,1.8639
1959.00,1.9186
1958.00,1.9738
1957.00,2.0288
1956.00,2.0830
1955.00,2.1363
1954.00,2.1883
1953.00,2.2382
1952.00,2.2851
1951.00,2.3289
1950.00,2.3697
1949.00,2.4085
1948.00,2.4456
1947.00,2.4802
1946.00,2.5116
1945.00,2.5402
1944.00,2.5671
1943.00,2.5932
1942.00,2.6185
1941.00,2.6430
1940.00,2.6676
1939.00,2.6923
1938.00,2.7153
1937.00,2.7351
1936.00,2.7526
1935.00,2.7706
1934.00,2.7900
1933.00,2.8093
1932.00,2.8276
1931.00,2.8453
1930.00,2.8627
1929.00,2.8788
1928.00,2.8917
1927.00,2.9013
1926.00,2.9083
1925.00,2.9139
1924.00,2.9196
1923.00,2.9264
1922.00,2.9351
1921.00,2.9458
1920.00,2.9584
1919.00,2.9716
1918.00,2.9821
1917.00,2.9877
1916.00,2.9909
1915.00,2.9955
1914.00,3.0016
1913.00,3.0054
1912.00,3.0052
1911.00,3.0032
1910.00,3.0021
1909.00,3.0011
1908.00,2.9989
1907.00,2.9968
1906.00,2.9968
1905.00,2.9983
1904.00,2.9984
1903.00,2.9950
1902.00,2.9893
1901.00,2.9831
1900.00,2.9773
1899.00,2.9719
1898.00,2.9669
1897.00,2.9624
1896.00,2.9575
1895.00,2.9503
1894.00,2.9397
1893.00,2.9272
1892.00,2.9161
1891.00,2.9072
1890.00,2.8979
1889.00,2.8850
1888.00,2.8687
1887.00,2.8520
1886.00,2.8366
1885.00,2.8209
1884.00,2.8027
1883.00,2.7820
1882.00,2.7601
1881.00,2.7373
1880.00,2.7133
1879.00,2.6883
1878.00,2.6626
1877.00,2.6355
1876.00,2.6066
1875.00,2.5754
1874.00,2.5419
1873.00,2.5064
1872.00,2.4701
1871.00,2.4336
1870.00,2.3950
1869.00,2.3514
1868.00,2.3023
1867.00,2.2502
1866.00,2.1971
1865.00,2.1424
1864.00,2.0849
1863.00,2.0240
1862.00,1.9604
1861.00,1.8969
1860.00,1.8363
1859.00,1.7812
1858.00,1.7342
1857.00,1.6974
1856.00,1.6722
1855.00,1.6596
1854.00,1.6603
1853.00,1.6745
1852.00,1.7006
1851.00,1.7374
1850.00,1.7834
1849.00,1.8357
1848.00,1.8919
1847.00,1.9519
1846.00,2.0182
1845.00,2.0915
1844.00,2.1652
1843.00,2.2325
1842.00,2.2947
1841.00,2.3555
1840.00,2.4142
1839.00,2.4679
1838.00,2.5154
1837.00,2.5591
1836.00,2.6017
1835.00,2.6421
1834.00,2.6786
1833.00,2.7129
1832.00,2.7489
1831.00,2.7867
1830.00,2.8190
1829.00,2.8404
1828.00,2.8554
1827.00,2.8741
1826.00,2.9011
1825.00,2.9301
1824.00,2.9530
1823.00,2.9689
1822.00,2.9834
1821.00,3.0009
1820.00,3.0211
1819.00,3.0416
1818.00,3.0597
1817.00,3.0738
1816.00,3.0835
1815.00,3.0901
1814.00,3.0958
1813.00,3.1013
1812.00,3.1069
1811.00,3.1133
1810.00,3.1212
1809.00,3.1300
1808.00,3.1374
1807.00,3.1414
1806.00,3.1412
1805.00,3.1377
1804.00,3.1314
1803.00,3.1241
1802.00,3.1184
1801.00,3.1149
1800.00,3.1110
1799.00,3.1042
1798.00,3.0940
1797.00,3.0815
1796.00,3.0672
1795.00,3.0523
1794.00,3.0389
1793.00,3.0256
1792.00,3.0076
1791.00,2.9849
1790.00,2.9626
1789.00,2.9425
1788.00,2.9209
1787.00,2.8942
1786.00,2.8615
1785.00,2.8250
1784.00,2.7863
1783.00,2.7465
1782.00,2.7065
1781.00,2.6641
1780.00,2.6184
1779.00,2.5722
1778.00,2.5309
1777.00,2.4968
1776.00,2.4677
1775.00,2.4450
1774.00,2.4387
1773.00,2.4556
1772.00,2.4893
1771.00,2.5285
1770.00,2.5686
1769.00,2.6113
1768.00,2.6580
1767.00,2.7052
1766.00,2.7479
1765.00,2.7862
1764.00,2.8246
1763.00,2.8659
1762.00,2.9077
1761.00,2.9476
1760.00,2.9898
1759.00,3.0404
1758.00,3.1005
1757.00,3.1632
1756.00,3.2169
1755.00,3.2577
1754.00,3.2932
1753.00,3.3333
1752.00,3.3802
1751.00,3.4243
1750.00,3.4592
1749.00,3.4939
1748.00,3.5348
1747.00,3.5748
1746.00,3.6095
1745.00,3.6465
1744.00,3.6960
1743.00,3.7648
1742.00,3.8529
1741.00,3.9466
1740.00,4.0190
1739.00,4.0446
1738.00,4.0422
1737.00,4.0576
1736.00,4.1166
1735.00,4.2133
1734.00,4.2781
1733.00,4.2954
1732.00,4.4100
1731.00,4.5987
1730.00,4.5542
1729.00,4.4437
1728.00,4.4208
1727.00,4.4525
1726.00,4.5120
1725.00,4.5708
1724.00,4.6286
1723.00,4.6864
1722.00,4.7175
1721.00,4.6937
1720.00,4.6830
1719.00,4.7311
1718.00,4.7411
1717.00,4.7227
1716.00,4.9275
1715.00,5.0790
1714.00,4.7716
1713.00,4.7353
1712.00,5.0570
1711.00,5.3635
1710.00,5.0083
1709.00,4.9032
1708.00,4.8900
1707.00,4.8021
1706.00,4.6508
1705.00,4.5240
1704.00,4.4678
1703.00,4.3709
1702.00,4.2239
1701.00,4.1393
1700.00,4.1348
1699.00,4.2051
1698.00,4.4611
1697.00,4.6163
1696.00,4.2995
1695.00,4.1214
1694.00,4.0293
1693.00,3.9732
1692.00,3.9442
1691.00,3.9134
1690.00,3.8684
1689.00,3.7969
1688.00,3.7037
1687.00,3.6060
1686.00,3.5316
1685.00,3.4953
1684.00,3.4803
1683.00,3.4674
1682.00,3.4572
1681.00,3.4519
1680.00,3.4480
1679.00,3.4451
1678.00,3.4485
1677.00,3.4616
1676.00,3.4760
1675.00,3.4704
1674.00,3.4393
1673.00,3.4060
1672.00,3.3918
1671.00,3.3959
1670.00,3.4014
1669.00,3.3891
1668.00,3.3553
1667.00,3.3166
1666.00,3.2888
1665.00,3.2737
1664.00,3.2629
1663.00,3.2438
1662.00,3.2116
1661.00,3.1722
1660.00,3.1335
1659.00,3.0936
1658.00,3.0593
1657.00,3.0102
1656.00,2.9635
1655.00,2.8862
1654.00,2.8713
1653.00,2.8742
1652.00,2.8071
1651.00,2.7744
1650.00,2.7443
1649.00,2.7222
1648.00,2.7008
1647.00,2.6770
1646.00,2.6630
1645.00,2.6357
1644.00,2.6093
1643.00,2.6149
1642.00,2.6189
1641.00,2.6263
1640.00,2.6319
1639.00,2.6373
1638.00,2.6429
1637.00,2.6577
1636.00,2.6845
1635.00,2.7106
1634.00,2.7247
1633.00,2.7354
1632.00,2.7498
1631.00,2.7655
1630.00,2.7831
1629.00,2.8037
1628.00,2.8248
1627.00,2.8445
1626.00,2.8656
1625.00,2.8925
1624.00,2.9231
1623.00,2.9478
1622.00,2.9615
1621.00,2.9695
1620.00,2.9764
1619.00,2.9819
1618.00,2.9899
1617.00,3.0068
1616.00,3.0333
1615.00,3.0684
1614.00,3.1087
1613.00,3.1463
1612.00,3.1750
1611.00,3.1914
1610.00,3.1949
1609.00,3.1904
1608.00,3.1859
1607.00,3.1870
1606.00,3.1956
1605.00,3.2092
1604.00,3.2220
1603.00,3.2293
1602.00,3.2312
1601.00,3.2332
1600.00,3.2385
1599.00,3.2445
1598.00,3.2472
1597.00,3.2471
1596.00,3.2472
1595.00,3.2472
1594.00,3.2461
1593.00,3.2441
1592.00,3.2416
1591.00,3.2376
1590.00,3.2328
1589.00,3.2302
1588.00,3.2304
1587.00,3.2303
1586.00,3.2277
1585.00,3.2234
1584.00,3.2150
1583.00,3.1978
1582.00,3.1727
1581.00,3.1467
1580.00,3.1202
1579.00,3.0856
1578.00,3.0410
1577.00,2.9999
1576.00,2.9754
1575.00,2.9661
1574.00,2.9650
1573.00,2.9640
1572.00,2.9562
1571.00,2.9403
1570.00,2.9140
1569.00,2.8758
1568.00,2.8307
1567.00,2.7864
1566.00,2.7437
1565.00,2.6987
1564.00,2.6432
1563.00,2.5741
1562.00,2.4947
1561.00,2.4266
1560.00,2.3784
1559.00,2.3201
1558.00,2.2422
1557.00,2.1628
1556.00,2.0983
1555.00,2.0465
1554.00,1.9980
1553.00,1.9547
1552.00,1.9228
1551.00,1.9053
1550.00,1.8997
1549.00,1.9041
1548.00,1.9179
1547.00,1.9424
1546.00,1.9781
1545.00,2.0206
1544.00,2.0664
1543.00,2.1156
1542.00,2.1680
1541.00,2.2236
1540.00,2.2865
1539.00,2.3570
1538.00,2.4304
1537.00,2.5074
1536.00,2.5819
1535.00,2.6493
1534.00,2.7122
1533.00,2.7646
1532.00,2.8036
1531.00,2.8348
1530.00,2.8657
1529.00,2.8971
1528.00,2.9253
1527.00,2.9516
1526.00,2.9792
1525.00,3.0031
1524.00,3.0171
1523.00,3.0253
1522.00,3.0398
1521.00,3.0664
1520.00,3.1023
1519.00,3.1436
1518.00,3.1827
1517.00,3.2085
1516.00,3.2186
1515.00,3.2210
1514.00,3.2264
1513.00,3.2378
1512.00,3.2511
1511.00,3.2608
1510.00,3.2624
1509.00,3.2558
1508.00,3.2474
1507.00,3.2515
1506.00,3.2654
1505.00,3.2697
1504.00,3.2807
1503.00,3.3115
1502.00,3.3436
1501.00,3.3616
1500.00,3.3588
1499.00,3.3415
1498.00,3.3208
1497.00,3.3077
1496.00,3.3060
1495.00,3.3111
1494.00,3.3185
1493.00,3.3256
1492.00,3.3322
1491.00,3.3351
1490.00,3.3277
1489.00,3.3123
1488.00,3.3017
1487.00,3.3022
1486.00,3.3073
1485.00,3.3052
1484.00,3.2909
1483.00,3.2721
1482.00,3.2540
1481.00,3.2327
1480.00,3.2064
1479.00,3.1810
1478.00,3.1598
1477.00,3.1350
1476.00,3.0974
1475.00,3.0504
1474.00,3.0074
1473.00,2.9743
1472.00,2.9466
1471.00,2.9228
1470.00,2.9097
1469.00,2.9147
1468.00,2.9390
1467.00,2.9817
1466.00,3.0388
1465.00,3.0994
1464.00,3.1493
1463.00,3.1840
1462.00,3.2098
1461.00,3.2307
1460.00,3.2443
1459.00,3.2563
1458.00,3.2891
1457.00,3.3637
1456.00,3.4727
1455.00,3.5926
1454.00,3.7206
1453.00,3.8659
1452.00,4.0324
1451.00,4.1907
1450.00,4.2705
1449.00,4.2889
1448.00,4.2655
1447.00,4.1547
1446.00,3.9892
1445.00,3.8214
1444.00,3.6754
1443.00,3.5554
1442.00,3.4606
1441.00,3.3914
1440.00,3.3463
1439.00,3.3225
1438.00,3.3195
1437.00,3.3372
1436.00,3.3721
1435.00,3.4208
1434.00,3.4781
1433.00,3.5384
1432.00,3.6030
1431.00,3.6706
1430.00,3.7218
1429.00,3.7319
1428.00,3.7068
1427.00,3.6791
1426.00,3.6718
1425.00,3.6852
1424.00,3.7065
1423.00,3.7263
1422.00,3.7415
1421.00,3.7433
1420.00,3.7110
1419.00,3.6420
1418.00,3.5649
1417.00,3.5009
1416.00,3.4464
1415.00,3.3903
1414.00,3.3279
1413.00,3.2596
1412.00,3.1885
1411.00,3.1203
1410.00,3.0605
1409.00,3.0123
1408.00,2.9776
1407.00,2.9563
1406.00,2.9477
1405.00,2.9493
1404.00,2.9581
1403.00,2.9716
1402.00,2.9887
1401.00,3.0096
1400.00,3.0325
1399.00,3.0534
1398.00,3.0703
1397.00,3.0864
1396.00,3.1066
1395.00,3.1314
1394.00,3.1567
1393.00,3.1799
1392.00,3.2051
1391.00,3.2352
1390.00,3.2649
1389.00,3.2853
1388.00,3.2956
1387.00,3.3065
1386.00,3.3281
1385.00,3.3579
1384.00,3.3847
1383.00,3.4003
1382.00,3.4062
1381.00,3.4117
1380.00,3.4246
1379.00,3.4435
1378.00,3.4581
1377.00,3.4621
1376.00,3.4628
1375.00,3.4706
1374.00,3.4858
1373.00,3.5019
1372.00,3.5171
1371.00,3.5371
1370.00,3.5630
1369.00,3.5826
1368.00,3.5838
1367.00,3.5734
1366.00,3.5667
1365.00,3.5672
1364.00,3.5661
1363.00,3.5593
1362.00,3.5528
1361.00,3.5478
1360.00,3.5372
1359.00,3.5183
1358.00,3.4978
1357.00,3.4849
1356.00,3.4849
1355.00,3.4973
1354.00,3.5163
1353.00,3.5373
1352.00,3.5650
1351.00,3.6098
1350.00,3.6744
1349.00,3.7422
1348.00,3.7859
1347.00,3.7975
1346.00,3.7972
1345.00,3.8051
1344.00,3.8232
1343.00,3.8417
1342.00,3.8526
1341.00,3.8545
1340.00,3.8490
1339.00,3.8420
1338.00,3.8355
1337.00,3.8168
1336.00,3.7743
1335.00,3.7142
1334.00,3.6518
1333.00,3.5987
1332.00,3.5588
1331.00,3.5269
1330.00,3.4942
1329.00,3.4572
1328.00,3.4207
1327.00,3.3911
1326.00,3.3717
1325.00,3.3616
1324.00,3.3600
1323.00,3.3691
1322.00,3.3932
1321.00,3.4338
1320.00,3.4889
1319.00,3.5568
1318.00,3.6382
1317.00,3.7344
1316.00,3.8437
1315.00,3.9633
1314.00,4.0836
1313.00,4.2155
1312.00,4.3429
1311.00,4.3434
1310.00,4.2825
1309.00,4.2252
1308.00,4.1228
1307.00,4.0009
1306.00,3.8889
1305.00,3.7863
1304.00,3.6933
1303.00,3.6126
1302.00,3.5431
1301.00,3.4796
1300.00,3.4164
1299.00,3.3513
1298.00,3.2863
1297.00,3.2248
1296.00,3.1694
1295.00,3.1203
1294.00,3.0742
1293.00,3.0267
1292.00,2.9771
1291.00,2.9300
1290.00,2.8919
1289.00,2.8673
1288.00,2.8580
1287.00,2.8629
1286.00,2.8782
1285.00,2.8996
1284.00,2.9244
1283.00,2.9517
1282.00,2.9814
1281.00,3.0138
1280.00,3.0499
1279.00,3.0908
1278.00,3.1352
1277.00,3.1801
1276.00,3.2250
1275.00,3.2720
1274.00,3.3206
1273.00,3.3648
1272.00,3.4000
1271.00,3.4291
1270.00,3.4569
1269.00,3.4819
1268.00,3.5018
1267.00,3.5219
1266.00,3.5487
1265.00,3.5780
1264.00,3.6001
1263.00,3.6162
1262.00,3.6352
1261.00,3.6571
1260.00,3.6701
1259.00,3.6654
1258.00,3.6503
1257.00,3.6431
1256.00,3.6588
1255.00,3.7033
1254.00,3.7652
1253.00,3.8124
1252.00,3.8221
1251.00,3.7962
1250.00,3.7524
1249.00,3.7190
1248.00,3.7103
1247.00,3.7251
1246.00,3.7612
1245.00,3.8127
1244.00,3.8619
1243.00,3.8859
1242.00,3.8760
1241.00,3.8432
1240.00,3.8103
1239.00,3.7967
1238.00,3.8115
1237.00,3.8561
1236.00,3.9281
1235.00,4.0157
1234.00,4.0786
1233.00,4.0772
1232.00,4.0421
1231.00,4.0399
1230.00,4.1064
1229.00,4.2405
1228.00,4.3483
1227.00,4.3317
1226.00,4.3623
1225.00,4.6771
1224.00,4.8727
1223.00,4.4618
1222.00,4.4378
1221.00,4.5850
1220.00,4.9039
1219.00,5.3624
1218.00,4.7344
1217.00,4.4941
1216.00,4.3406
1215.00,4.2210
1214.00,4.1353
1213.00,4.0400
1212.00,3.9482
1211.00,3.8841
1210.00,3.8619
1209.00,3.8848
1208.00,3.9273
1207.00,3.9350
1206.00,3.9181
1205.00,3.9147
1204.00,3.8997
1203.00,3.8683
1202.00,3.8533
1201.00,3.8528
1200.00,3.8561
1199.00,3.8731
1198.00,3.9020
1197.00,3.8927
1196.00,3.8357
1195.00,3.7854
1194.00,3.7510
1193.00,3.7215
1192.00,3.7020
1191.00,3.7027
1190.00,3.7256
1189.00,3.7585
1188.00,3.7767
1187.00,3.7596
1186.00,3.7144
1185.00,3.6646
1184.00,3.6252
1183.00,3.6011
1182.00,3.5914
1181.00,3.5919
1180.00,3.5999
1179.00,3.6173
1178.00,3.6387
1177.00,3.6409
1176.00,3.6039
1175.00,3.5415
1174.00,3.4859
1173.00,3.4545
1172.00,3.4422
1171.00,3.4339
1170.00,3.4240
1169.00,3.4223
1168.00,3.4358
1167.00,3.4554
1166.00,3.4651
1165.00,3.4580
1164.00,3.4403
1163.00,3.4228
1162.00,3.4110
1161.00,3.4016
1160.00,3.3915
1159.00,3.3816
1158.00,3.3717
1157.00,3.3565
1156.00,3.3325
1155.00,3.3052
1154.00,3.2857
1153.00,3.2829
1152.00,3.2998
1151.00,3.3319
1150.00,3.3657
1149.00,3.3849
1148.00,3.3857
1147.00,3.3850
1146.00,3.4046
1145.00,3.4520
1144.00,3.5160
1143.00,3.5767
1142.00,3.6225
1141.00,3.6589
1140.00,3.6971
1139.00,3.7412
1138.00,3.7980
1137.00,3.8854
1136.00,4.0092
1135.00,4.1353
1134.00,4.2085
1133.00,4.2307
1132.00,4.2152
1131.00,4.1609
1130.00,4.1198
1129.00,4.1381
1128.00,4.2127
1127.00,4.2685
1126.00,4.2226
1125.00,4.1427
1124.00,4.0992
1123.00,4.1045
1122.00,4.1827
1121.00,4.3294
1120.00,4.3826
1119.00,4.3875
1118.00,4.4968
1117.00,4.4007
1116.00,4.1241
1115.00,3.9161
1114.00,3.7788
1113.00,3.6991
1112.00,3.6729
1111.00,3.7029
1110.00,3.7757
1109.00,3.8420
1108.00,3.8681
1107.00,3.8768
1106.00,3.9171
1105.00,4.0359
1104.00,4.2380
1103.00,4.4288
1102.00,4.4232
1101.00,4.2463
1100.00,4.0622
1099.00,3.9308
1098.00,3.8702
1097.00,3.8872
1096.00,3.9780
1095.00,4.0809
1094.00,4.0972
1093.00,4.0852
1092.00,4.0927
1091.00,4.1012
1090.00,4.1159
1089.00,4.1134
1088.00,4.0803
1087.00,4.0619
1086.00,4.1036
1085.00,4.1974
1084.00,4.2453
1083.00,4.3427
1082.00,4.5410
1081.00,4.6358
1080.00,4.4944
1079.00,4.0966
1078.00,3.9313
1077.00,3.9462
1076.00,4.0387
1075.00,4.0884
1074.00,4.0504
1073.00,4.0053
1072.00,3.9695
1071.00,3.9185
1070.00,3.8694
1069.00,3.8664
1068.00,3.9230
1067.00,4.0198
1066.00,4.1188
1065.00,4.1518
1064.00,4.0735
1063.00,3.9829
1062.00,3.9552
1061.00,3.9761
1060.00,4.0153
1059.00,4.0933
1058.00,4.2866
1057.00,4.4442
1056.00,4.2523
1055.00,4.1131
1054.00,4.0468
1053.00,4.0128
1052.00,4.0143
1051.00,4.0288
1050.00,4.0441
1049.00,4.0448
1048.00,3.9867
1047.00,3.8990
1046.00,3.8465
1045.00,3.8347
1044.00,3.8366
1043.00,3.8222
1042.00,3.7811
1041.00,3.7242
1040.00,3.6628
1039.00,3.6041
1038.00,3.5518
1037.00,3.4993
1036.00,3.4414
1035.00,3.3856
1034.00,3.3444
1033.00,3.3236
1032.00,3.3201
1031.00,3.3283
1030.00,3.3477
1029.00,3.3821
1028.00,3.4329
1027.00,3.4908
1026.00,3.5385
1025.00,3.5634
1024.00,3.5736
1023.00,3.5925
1022.00,3.6298
1021.00,3.6690
1020.00,3.6876
1019.00,3.6898
1018.00,3.6988
1017.00,3.7210
1016.00,3.7354
1015.00,3.7194
1014.00,3.6883
1013.00,3.6715
1012.00,3.6726
1011.00,3.6737
1010.00,3.6624
1009.00,3.6613
1008.00,3.7072
1007.00,3.8080
1006.00,3.9088
1005.00,3.9192
1004.00,3.8516
1003.00,3.8062
1002.00,3.8507
1001.00,4.0087
1000.00,4.2646
999.00,4.5591
998.00,4.9928
997.00,4.8722
996.00,4.4113
995.00,4.2811
994.00,4.4008
993.00,4.6240
992.00,4.3453
991.00,4.1114
990.00,4.0265
989.00,4.0448
988.00,4.1278
987.00,4.1965
986.00,4.2326
985.00,4.2732
984.00,4.3316
983.00,4.3744
982.00,4.3770
981.00,4.3521
980.00,4.2630
979.00,4.1311
978.00,4.0342
977.00,3.9928
976.00,3.9866
975.00,4.0076
974.00,4.0702
973.00,4.2421
972.00,4.5936
971.00,4.5484
970.00,4.4797
969.00,4.6426
968.00,4.4580
967.00,4.2674
966.00,4.1743
965.00,4.1332
964.00,4.1542
963.00,4.1310
962.00,4.0501
961.00,4.0362
960.00,4.1145
959.00,4.2042
958.00,4.2213
957.00,4.2707
956.00,4.4217
955.00,4.5702
954.00,4.5996
953.00,4.5595
952.00,4.5445
951.00,4.6049
950.00,4.6393
949.00,4.5111
948.00,4.3074
947.00,4.1731
946.00,4.1106
945.00,4.0574
944.00,4.0081
943.00,4.0029
942.00,4.0351
941.00,4.0675
940.00,4.1001
939.00,4.1760
938.00,4.3433
937.00,4.6050
936.00,4.6106
935.00,4.3920
934.00,4.3656
933.00,4.3149
932.00,4.1191
931.00,4.0357
930.00,4.0763
929.00,4.2022
928.00,4.3924
927.00,4.5689
926.00,4.4728
925.00,4.3249
924.00,4.3028
923.00,4.4208
922.00,4.4783
921.00,4.2051
920.00,4.0202
919.00,3.9420
918.00,3.9297
917.00,3.9814
916.00,4.0966
915.00,4.2486
914.00,4.4140
913.00,4.5854
912.00,4.5755
911.00,4.5314
910.00,4.5778
909.00,4.3953
908.00,4.1447
907.00,4.0394
906.00,4.0205
905.00,4.0006
904.00,3.9998
903.00,4.0454
902.00,4.0852
901.00,4.0969
900.00,4.1721
899.00,4.3169
898.00,4.2815
897.00,4.1679
896.00,4.0743
895.00,3.9969
894.00,4.0055
893.00,4.1321
892.00,4.2386
891.00,4.2898
890.00,4.5917
889.00,4.4232
888.00,4.1477
887.00,4.1543
886.00,4.3147
885.00,4.5183
884.00,4.5281
883.00,4.4906
882.00,4.6161
881.00,5.0762
880.00,4.9104
879.00,4.3747
878.00,4.1171
877.00,3.9935
876.00,3.9505
875.00,3.9880
874.00,4.1910
873.00,4.4037
872.00,4.2199
871.00,4.1071
870.00,4.0334
869.00,4.0295
868.00,4.0601
867.00,4.0248
866.00,3.9054
865.00,3.7480
864.00,3.6464
863.00,3.6261
862.00,3.6811
861.00,3.8001
860.00,3.9566
859.00,4.0898
858.00,4.1409
857.00,4.1036
856.00,3.9959
855.00,3.8716
854.00,3.7808
853.00,3.7527
852.00,3.7956
851.00,3.8909
850.00,4.0008
849.00,4.0971
848.00,4.1479
847.00,4.1105
846.00,4.0419
845.00,4.0260
844.00,4.1170
843.00,4.3338
842.00,4.3980
841.00,4.2479
840.00,4.2081
839.00,4.2971
838.00,4.3441
837.00,4.1575
836.00,4.0507
835.00,4.0672
834.00,4.1156
833.00,4.1345
832.00,4.1594
831.00,4.2781
830.00,4.3716
829.00,4.2429
828.00,4.1905
827.00,4.2378
826.00,4.2648
825.00,4.2508
824.00,4.3346
823.00,4.4675
822.00,4.3945
821.00,4.2670
820.00,4.1054
819.00,3.9350
818.00,3.8142
817.00,3.7556
816.00,3.7470
815.00,3.7795
814.00,3.8707
813.00,4.0798
812.00,4.4954
811.00,5.0095
810.00,5.1981
809.00,4.6955
808.00,4.3310
807.00,4.1372
806.00,4.0494
805.00,4.1115
804.00,4.3610
803.00,4.2888
802.00,4.2657
801.00,4.7340
800.00,4.5253
799.00,4.2615
798.00,4.2519
797.00,4.1776
796.00,4.0785
795.00,4.0685
794.00,4.1502
793.00,4.2087
792.00,4.2082
791.00,4.3104
790.00,4.5772
789.00,5.0594
788.00,4.8937
787.00,4.4174
786.00,4.1432
785.00,3.9914
784.00,3.9669
783.00,4.0462
782.00,4.0617
781.00,3.9570
780.00,3.9359
779.00,4.0426
778.00,4.1917
777.00,4.2624
776.00,4.2739
775.00,4.2205
774.00,4.1961
773.00,4.3336
772.00,4.7673
771.00,5.4156
770.00,4.7033
769.00,4.4985
768.00,4.7582
767.00,4.5140
766.00,4.1050
765.00,3.9658
764.00,3.9548
763.00,4.0314
762.00,4.3086
761.00,4.7694
760.00,4.1726
759.00,4.0363
758.00,4.1357
757.00,4.4494
756.00,4.3538
755.00,4.0610
754.00,3.8966
753.00,3.8359
752.00,3.8695
751.00,3.9411
750.00,3.9735
749.00,3.9670
748.00,3.9855
747.00,4.0345
746.00,4.0749
745.00,4.1112
744.00,4.1947
743.00,4.3070
742.00,4.2932
741.00,4.1513
740.00,4.0125
739.00,3.9206
738.00,3.8570
737.00,3.7914
736.00,3.7211
735.00,3.6712
734.00,3.6635
733.00,3.7054
732.00,3.7917
731.00,3.8912
730.00,3.9253
729.00,3.8583
728.00,3.7618
727.00,3.6990
726.00,3.6934
725.00,3.7305
724.00,3.7645
723.00,3.7738
722.00,3.7789
721.00,3.7951
720.00,3.8283
719.00,3.8850
718.00,3.9648
717.00,4.0628
716.00,4.2282
715.00,4.5083
714.00,4.7620
713.00,4.8636
712.00,4.4007
711.00,4.0772
710.00,3.9273
709.00,3.9014
708.00,3.9439
707.00,3.9113
706.00,3.8366
705.00,3.8538
704.00,3.9642
703.00,4.0288
702.00,4.0034
701.00,3.9815
700.00,3.9191
