Created as New Dataset,Sample 081 By Administrator Date Wednesday, November 24 2021
cm-1,A
7502.00,1.1641
7501.00,1.1688
7500.00,1.1723
7499.00,1.1742
7498.00,1.1746
7497.00,1.1741
7496.00,1.1738
7495.00,1.1740
7494.00,1.1744
7493.00,1.1748
7492.00,1.1757
7491.00,1.1777
7490.00,1.1804
7489.00,1.1824
7488.00,1.1828
7487.00,1.1816
7486.00,1.1792
7485.00,1.1759
7484.00,1.1717
7483.00,1.1665
7482.00,1.1609
7481.00,1.1559
7480.00,1.1521
7479.00,1.1492
7478.00,1.1462
7477.00,1.1422
7476.00,1.1372
7475.00,1.1318
7474.00,1.1263
7473.00,1.1200
7472.00,1.1127
7471.00,1.1047
7470.00,1.0967
7469.00,1.0887
7468.00,1.0807
7467.00,1.0724
7466.00,1.0636
7465.00,1.0544
7464.00,1.0447
7463.00,1.0347
7462.00,1.0244
7461.00,1.0139
7460.00,1.0032
7459.00,0.9923
7458.00,0.9815
7457.00,0.9710
7456.00,0.9607
7455.00,0.9504
7454.00,0.9401
7453.00,0.9297
7452.00,0.9194
7451.00,0.9092
7450.00,0.8992
7449.00,0.8894
7448.00,0.8800
7447.00,0.8709
7446.00,0.8622
7445.00,0.8537
7444.00,0.8453
7443.00,0.8370
7442.00,0.8289
7441.00,0.8211
7440.00,0.8138
7439.00,0.8072
7438.00,0.8012
7437.00,0.7959
7436.00,0.7911
7435.00,0.7869
7434.00,0.7834
7433.00,0.7804
7432.00,0.7779
7431.00,0.7760
7430.00,0.7746
7429.00,0.7739
7428.00,0.7738
7427.00,0.7743
7426.00,0.7754
7425.00,0.7774
7424.00,0.7800
7423.00,0.7829
7422.00,0.7859
7421.00,0.7892
7420.00,0.7934
7419.00,0.7986
7418.00,0.8043
7417.00,0.8101
7416.00,0.8162
7415.00,0.8231
7414.00,0.8307
7413.00,0.8388
7412.00,0.8469
7411.00,0.8550
7410.00,0.8633
7409.00,0.8716
7408.00,0.8801
7407.00,0.8888
7406.00,0.8975
7405.00,0.9061
7404.00,0.9146
7403.00,0.9233
7402.00,0.9325
7401.00,0.9420
7400.00,0.9511
7399.00,0.9596
7398.00,0.9679
7397.00,0.9764
7396.00,0.9850
7395.00,0.9936
7394.00,1.0019
7393.00,1.0099
7392.00,1.0176
7391.00,1.0250
7390.00,1.0322
7389.00,1.0389
7388.00,1.0453
7387.00,1.0517
7386.00,1.0582
7385.00,1.0648
7384.00,1.0709
7383.00,1.0765
7382.00,1.0816
7381.00,1.0863
7380.00,1.0911
7379.00,1.0960
7378.00,1.1005
7377.00,1.1043
7376.00,1.1069
7375.00,1.1086
7374.00,1.1094
7373.00,1.1093
7372.00,1.1081
7371.00,1.1065
7370.00,1.1053
7369.00,1.1050
7368.00,1.1050
7367.00,1.1046
7366.00,1.1034
7365.00,1.1018
7364.00,1.1005
7363.00,1.0998
7362.00,1.0992
7361.00,1.0986
7360.00,1.0976
7359.00,1.0964
7358.00,1.0950
7357.00,1.0936
7356.00,1.0924
7355.00,1.0915
7354.00,1.0913
7353.00,1.0920
7352.00,1.0934
7351.00,1.0942
7350.00,1.0930
7349.00,1.0892
7348.00,1.0833
7347.00,1.0763
7346.00,1.0689
7345.00,1.0618
7344.00,1.0559
7343.00,1.0514
7342.00,1.0479
7341.00,1.0444
7340.00,1.0402
7339.00,1.0351
7338.00,1.0289
7337.00,1.0215
7336.00,1.0131
7335.00,1.0041
7334.00,0.9952
7333.00,0.9866
7332.00,0.9785
7331.00,0.9705
7330.00,0.9627
7329.00,0.9547
7328.00,0.9467
7327.00,0.9386
7326.00,0.9302
7325.00,0.9212
7324.00,0.9119
7323.00,0.9026
7322.00,0.8934
7321.00,0.8844
7320.00,0.8755
7319.00,0.8671
7318.00,0.8594
7317.00,0.8521
7316.00,0.8445
7315.00,0.8367
7314.00,0.8290
7313.00,0.8217
7312.00,0.8146
7311.00,0.8076
7310.00,0.8009
7309.00,0.7946
7308.00,0.7889
7307.00,0.7838
7306.00,0.7794
7305.00,0.7759
7304.00,0.7732
7303.00,0.7710
7302.00,0.7692
7301.00,0.7679
7300.00,0.7673
7299.00,0.7671
7298.00,0.7674
7297.00,0.7680
7296.00,0.7692
7295.00,0.7711
7294.00,0.7737
7293.00,0.7767
7292.00,0.7802
7291.00,0.7842
7290.00,0.7889
7289.00,0.7939
7288.00,0.7995
7287.00,0.8058
7286.00,0.8129
7285.00,0.8205
7284.00,0.8286
7283.00,0.8369
7282.00,0.8454
7281.00,0.8541
7280.00,0.8631
7279.00,0.8721
7278.00,0.8811
7277.00,0.8903
7276.00,0.8999
7275.00,0.9098
7274.00,0.9198
7273.00,0.9299
7272.00,0.9404
7271.00,0.9512
7270.00,0.9617
7269.00,0.9718
7268.00,0.9820
7267.00,0.9923
7266.00,1.0026
7265.00,1.0122
7264.00,1.0214
7263.00,1.0306
7262.00,1.0399
7261.00,1.0491
7260.00,1.0578
7259.00,1.0663
7258.00,1.0745
7257.00,1.0823
7256.00,1.0899
7255.00,1.0977
7254.00,1.1057
7253.00,1.1134
7252.00,1.1206
7251.00,1.1275
7250.00,1.1346
7249.00,1.1417
7248.00,1.1485
7247.00,1.1544
7246.00,1.1598
7245.00,1.1646
7244.00,1.1690
7243.00,1.1731
7242.00,1.1771
7241.00,1.1807
7240.00,1.1839
7239.00,1.1868
7238.00,1.1894
7237.00,1.1916
7236.00,1.1930
7235.00,1.1940
7234.00,1.1951
7233.00,1.1964
7232.00,1.1977
7231.00,1.1986
7230.00,1.1988
7229.00,1.1985
7228.00,1.1975
7227.00,1.1957
7226.00,1.1929
7225.00,1.1895
7224.00,1.1859
7223.00,1.1823
7222.00,1.1787
7221.00,1.1749
7220.00,1.1708
7219.00,1.1666
7218.00,1.1619
7217.00,1.1565
7216.00,1.1507
7215.00,1.1448
7214.00,1.1389
7213.00,1.1327
7212.00,1.1256
7211.00,1.1179
7210.00,1.1100
7209.00,1.1018
7208.00,1.0928
7207.00,1.0828
7206.00,1.0724
7205.00,1.0621
7204.00,1.0523
7203.00,1.0428
7202.00,1.0335
7201.00,1.0243
7200.00,1.0151
7199.00,1.0055
7198.00,0.9955
7197.00,0.9849
7196.00,0.9738
7195.00,0.9621
7194.00,0.9503
7193.00,0.9386
7192.00,0.9274
7191.00,0.9167
7190.00,0.9063
7189.00,0.8961
7188.00,0.8861
7187.00,0.8764
7186.00,0.8671
7185.00,0.8581
7184.00,0.8492
7183.00,0.8403
7182.00,0.8318
7181.00,0.8239
7180.00,0.8165
7179.00,0.8096
7178.00,0.8032
7177.00,0.7974
7176.00,0.7922
7175.00,0.7875
7174.00,0.7833
7173.00,0.7800
7172.00,0.7774
7171.00,0.7756
7170.00,0.7742
7169.00,0.7735
7168.00,0.7734
7167.00,0.7741
7166.00,0.7753
7165.00,0.7767
7164.00,0.7785
7163.00,0.7808
7162.00,0.7838
7161.00,0.7874
7160.00,0.7917
7159.00,0.7970
7158.00,0.8031
7157.00,0.8099
7156.00,0.8168
7155.00,0.8240
7154.00,0.8316
7153.00,0.8395
7152.00,0.8479
7151.00,0.8566
7150.00,0.8657
7149.00,0.8749
7148.00,0.8842
7147.00,0.8936
7146.00,0.9031
7145.00,0.9124
7144.00,0.9215
7143.00,0.9308
7142.00,0.9406
7141.00,0.9510
7140.00,0.9614
7139.00,0.9714
7138.00,0.9811
7137.00,0.9906
7136.00,1.0001
7135.00,1.0095
7134.00,1.0187
7133.00,1.0277
7132.00,1.0365
7131.00,1.0451
7130.00,1.0537
7129.00,1.0623
7128.00,1.0707
7127.00,1.0786
7126.00,1.0860
7125.00,1.0931
7124.00,1.1006
7123.00,1.1086
7122.00,1.1167
7121.00,1.1239
7120.00,1.1299
7119.00,1.1350
7118.00,1.1402
7117.00,1.1455
7116.00,1.1502
7115.00,1.1541
7114.00,1.1573
7113.00,1.1606
7112.00,1.1636
7111.00,1.1663
7110.00,1.1685
7109.00,1.1704
7108.00,1.1724
7107.00,1.1743
7106.00,1.1764
7105.00,1.1786
7104.00,1.1807
7103.00,1.1826
7102.00,1.1835
7101.00,1.1835
7100.00,1.1827
7099.00,1.1816
7098.00,1.1804
7097.00,1.1786
7096.00,1.1761
7095.00,1.1732
7094.00,1.1704
7093.00,1.1678
7092.00,1.1647
7091.00,1.1606
7090.00,1.1555
7089.00,1.1501
7088.00,1.1449
7087.00,1.1400
7086.00,1.1352
7085.00,1.1302
7084.00,1.1247
7083.00,1.1185
7082.00,1.1118
7081.00,1.1046
7080.00,1.0966
7079.00,1.0879
7078.00,1.0788
7077.00,1.0697
7076.00,1.0610
7075.00,1.0524
7074.00,1.0435
7073.00,1.0344
7072.00,1.0251
7071.00,1.0158
7070.00,1.0063
7069.00,0.9964
7068.00,0.9861
7067.00,0.9755
7066.00,0.9648
7065.00,0.9540
7064.00,0.9433
7063.00,0.9325
7062.00,0.9219
7061.00,0.9115
7060.00,0.9013
7059.00,0.8912
7058.00,0.8813
7057.00,0.8717
7056.00,0.8623
7055.00,0.8530
7054.00,0.8440
7053.00,0.8353
7052.00,0.8269
7051.00,0.8188
7050.00,0.8110
7049.00,0.8037
7048.00,0.7971
7047.00,0.7912
7046.00,0.7860
7045.00,0.7814
7044.00,0.7774
7043.00,0.7741
7042.00,0.7716
7041.00,0.7698
7040.00,0.7687
7039.00,0.7680
7038.00,0.7678
7037.00,0.7680
7036.00,0.7687
7035.00,0.7699
7034.00,0.7719
7033.00,0.7750
7032.00,0.7791
7031.00,0.7839
7030.00,0.7892
7029.00,0.7950
7028.00,0.8010
7027.00,0.8072
7026.00,0.8136
7025.00,0.8204
7024.00,0.8280
7023.00,0.8362
7022.00,0.8449
7021.00,0.8541
7020.00,0.8636
7019.00,0.8733
7018.00,0.8832
7017.00,0.8931
7016.00,0.9029
7015.00,0.9128
7014.00,0.9228
7013.00,0.9330
7012.00,0.9432
7011.00,0.9535
7010.00,0.9641
7009.00,0.9747
7008.00,0.9854
7007.00,0.9958
7006.00,1.0060
7005.00,1.0161
7004.00,1.0260
7003.00,1.0358
7002.00,1.0456
7001.00,1.0554
7000.00,1.0651
6999.00,1.0746
6998.00,1.0837
6997.00,1.0924
6996.00,1.1005
6995.00,1.1083
6994.00,1.1161
6993.00,1.1244
6992.00,1.1328
6991.00,1.1406
6990.00,1.1476
6989.00,1.1539
6988.00,1.1601
6987.00,1.1661
6986.00,1.1715
6985.00,1.1762
6984.00,1.1804
6983.00,1.1847
6982.00,1.1892
6981.00,1.1934
6980.00,1.1970
6979.00,1.2000
6978.00,1.2029
6977.00,1.2058
6976.00,1.2082
6975.00,1.2098
6974.00,1.2110
6973.00,1.2121
6972.00,1.2131
6971.00,1.2135
6970.00,1.2132
6969.00,1.2128
6968.00,1.2124
6967.00,1.2117
6966.00,1.2100
6965.00,1.2075
6964.00,1.2046
6963.00,1.2015
6962.00,1.1979
6961.00,1.1937
6960.00,1.1888
6959.00,1.1833
6958.00,1.1771
6957.00,1.1708
6956.00,1.1646
6955.00,1.1585
6954.00,1.1524
6953.00,1.1459
6952.00,1.1391
6951.00,1.1320
6950.00,1.1245
6949.00,1.1162
6948.00,1.1071
6947.00,1.0977
6946.00,1.0882
6945.00,1.0787
6944.00,1.0691
6943.00,1.0593
6942.00,1.0492
6941.00,1.0388
6940.00,1.0282
6939.00,1.0174
6938.00,1.0065
6937.00,0.9955
6936.00,0.9843
6935.00,0.9730
6934.00,0.9617
6933.00,0.9504
6932.00,0.9391
6931.00,0.9276
6930.00,0.9163
6929.00,0.9053
6928.00,0.8945
6927.00,0.8838
6926.00,0.8734
6925.00,0.8634
6924.00,0.8538
6923.00,0.8445
6922.00,0.8356
6921.00,0.8270
6920.00,0.8190
6919.00,0.8115
6918.00,0.8046
6917.00,0.7981
6916.00,0.7921
6915.00,0.7866
6914.00,0.7819
6913.00,0.7780
6912.00,0.7749
6911.00,0.7723
6910.00,0.7706
6909.00,0.7698
6908.00,0.7698
6907.00,0.7703
6906.00,0.7712
6905.00,0.7726
6904.00,0.7747
6903.00,0.7775
6902.00,0.7809
6901.00,0.7848
6900.00,0.7894
6899.00,0.7948
6898.00,0.8010
6897.00,0.8078
6896.00,0.8148
6895.00,0.8219
6894.00,0.8295
6893.00,0.8377
6892.00,0.8462
6891.00,0.8550
6890.00,0.8643
6889.00,0.8739
6888.00,0.8839
6887.00,0.8939
6886.00,0.9040
6885.00,0.9142
6884.00,0.9246
6883.00,0.9350
6882.00,0.9454
6881.00,0.9560
6880.00,0.9666
6879.00,0.9769
6878.00,0.9868
6877.00,0.9964
6876.00,1.0061
6875.00,1.0161
6874.00,1.0263
6873.00,1.0367
6872.00,1.0472
6871.00,1.0575
6870.00,1.0676
6869.00,1.0771
6868.00,1.0860
6867.00,1.0945
6866.00,1.1027
6865.00,1.1108
6864.00,1.1186
6863.00,1.1260
6862.00,1.1329
6861.00,1.1396
6860.00,1.1461
6859.00,1.1523
6858.00,1.1580
6857.00,1.1634
6856.00,1.1686
6855.00,1.1736
6854.00,1.1784
6853.00,1.1827
6852.00,1.1865
6851.00,1.1899
6850.00,1.1931
6849.00,1.1963
6848.00,1.1991
6847.00,1.2012
6846.00,1.2028
6845.00,1.2039
6844.00,1.2049
6843.00,1.2056
6842.00,1.2062
6841.00,1.2063
6840.00,1.2061
6839.00,1.2053
6838.00,1.2040
6837.00,1.2023
6836.00,1.1999
6835.00,1.1969
6834.00,1.1934
6833.00,1.1897
6832.00,1.1862
6831.00,1.1830
6830.00,1.1795
6829.00,1.1754
6828.00,1.1707
6827.00,1.1655
6826.00,1.1601
6825.00,1.1541
6824.00,1.1475
6823.00,1.1404
6822.00,1.1333
6821.00,1.1262
6820.00,1.1187
6819.00,1.1104
6818.00,1.1014
6817.00,1.0919
6816.00,1.0823
6815.00,1.0728
6814.00,1.0632
6813.00,1.0536
6812.00,1.0441
6811.00,1.0342
6810.00,1.0237
6809.00,1.0128
6808.00,1.0018
6807.00,0.9906
6806.00,0.9792
6805.00,0.9676
6804.00,0.9559
6803.00,0.9445
6802.00,0.9331
6801.00,0.9218
6800.00,0.9104
6799.00,0.8990
6798.00,0.8879
6797.00,0.8770
6796.00,0.8665
6795.00,0.8564
6794.00,0.8468
6793.00,0.8376
6792.00,0.8288
6791.00,0.8205
6790.00,0.8127
6789.00,0.8053
6788.00,0.7982
6787.00,0.7914
6786.00,0.7854
6785.00,0.7803
6784.00,0.7758
6783.00,0.7718
6782.00,0.7682
6781.00,0.7652
6780.00,0.7629
6779.00,0.7613
6778.00,0.7605
6777.00,0.7606
6776.00,0.7616
6775.00,0.7633
6774.00,0.7656
6773.00,0.7687
6772.00,0.7724
6771.00,0.7767
6770.00,0.7815
6769.00,0.7869
6768.00,0.7930
6767.00,0.7996
6766.00,0.8068
6765.00,0.8144
6764.00,0.8223
6763.00,0.8306
6762.00,0.8392
6761.00,0.8482
6760.00,0.8578
6759.00,0.8678
6758.00,0.8780
6757.00,0.8886
6756.00,0.8996
6755.00,0.9108
6754.00,0.9219
6753.00,0.9327
6752.00,0.9432
6751.00,0.9537
6750.00,0.9644
6749.00,0.9754
6748.00,0.9866
6747.00,0.9976
6746.00,1.0084
6745.00,1.0192
6744.00,1.0300
6743.00,1.0406
6742.00,1.0508
6741.00,1.0608
6740.00,1.0709
6739.00,1.0810
6738.00,1.0906
6737.00,1.0993
6736.00,1.1074
6735.00,1.1156
6734.00,1.1240
6733.00,1.1324
6732.00,1.1404
6731.00,1.1484
6730.00,1.1566
6729.00,1.1644
6728.00,1.1713
6727.00,1.1769
6726.00,1.1817
6725.00,1.1863
6724.00,1.1911
6723.00,1.1960
6722.00,1.2006
6721.00,1.2050
6720.00,1.2093
6719.00,1.2134
6718.00,1.2172
6717.00,1.2203
6716.00,1.2223
6715.00,1.2236
6714.00,1.2249
6713.00,1.2262
6712.00,1.2274
6711.00,1.2278
6710.00,1.2275
6709.00,1.2266
6708.00,1.2254
6707.00,1.2240
6706.00,1.2221
6705.00,1.2196
6704.00,1.2167
6703.00,1.2138
6702.00,1.2109
6701.00,1.2075
6700.00,1.2034
6699.00,1.1986
6698.00,1.1935
6697.00,1.1880
6696.00,1.1818
6695.00,1.1749
6694.00,1.1679
6693.00,1.1609
6692.00,1.1537
6691.00,1.1460
6690.00,1.1380
6689.00,1.1299
6688.00,1.1214
6687.00,1.1123
6686.00,1.1028
6685.00,1.0933
6684.00,1.0838
6683.00,1.0738
6682.00,1.0631
6681.00,1.0519
6680.00,1.0403
6679.00,1.0285
6678.00,1.0166
6677.00,1.0046
6676.00,0.9928
6675.00,0.9812
6674.00,0.9699
6673.00,0.9587
6672.00,0.9472
6671.00,0.9353
6670.00,0.9235
6669.00,0.9118
6668.00,0.9003
6667.00,0.8889
6666.00,0.8777
6665.00,0.8669
6664.00,0.8567
6663.00,0.8471
6662.00,0.8379
6661.00,0.8292
6660.00,0.8210
6659.00,0.8132
6658.00,0.8058
6657.00,0.7988
6656.00,0.7922
6655.00,0.7861
6654.00,0.7806
6653.00,0.7759
6652.00,0.7718
6651.00,0.7685
6650.00,0.7661
6649.00,0.7646
6648.00,0.7639
6647.00,0.7638
6646.00,0.7643
6645.00,0.7657
6644.00,0.7677
6643.00,0.7705
6642.00,0.7740
6641.00,0.7783
6640.00,0.7834
6639.00,0.7892
6638.00,0.7954
6637.00,0.8021
6636.00,0.8094
6635.00,0.8171
6634.00,0.8253
6633.00,0.8338
6632.00,0.8428
6631.00,0.8520
6630.00,0.8615
6629.00,0.8713
6628.00,0.8814
6627.00,0.8917
6626.00,0.9022
6625.00,0.9129
6624.00,0.9237
6623.00,0.9348
6622.00,0.9460
6621.00,0.9572
6620.00,0.9684
6619.00,0.9797
6618.00,0.9910
6617.00,1.0023
6616.00,1.0132
6615.00,1.0239
6614.00,1.0343
6613.00,1.0447
6612.00,1.0550
6611.00,1.0652
6610.00,1.0747
6609.00,1.0835
6608.00,1.0919
6607.00,1.1005
6606.00,1.1091
6605.00,1.1176
6604.00,1.1258
6603.00,1.1341
6602.00,1.1425
6601.00,1.1505
6600.00,1.1575
6599.00,1.1637
6598.00,1.1697
6597.00,1.1755
6596.00,1.1809
6595.00,1.1858
6594.00,1.1906
6593.00,1.1954
6592.00,1.1999
6591.00,1.2038
6590.00,1.2072
6589.00,1.2102
6588.00,1.2130
6587.00,1.2151
6586.00,1.2165
6585.00,1.2175
6584.00,1.2184
6583.00,1.2191
6582.00,1.2193
6581.00,1.2190
6580.00,1.2184
6579.00,1.2176
6578.00,1.2164
6577.00,1.2145
6576.00,1.2117
6575.00,1.2083
6574.00,1.2047
6573.00,1.2012
6572.00,1.1977
6571.00,1.1941
6570.00,1.1905
6569.00,1.1866
6568.00,1.1821
6567.00,1.1767
6566.00,1.1706
6565.00,1.1640
6564.00,1.1572
6563.00,1.1502
6562.00,1.1429
6561.00,1.1354
6560.00,1.1277
6559.00,1.1197
6558.00,1.1112
6557.00,1.1024
6556.00,1.0935
6555.00,1.0845
6554.00,1.0753
6553.00,1.0655
6552.00,1.0553
6551.00,1.0448
6550.00,1.0341
6549.00,1.0230
6548.00,1.0116
6547.00,0.9999
6546.00,0.9882
6545.00,0.9765
6544.00,0.9648
6543.00,0.9530
6542.00,0.9414
6541.00,0.9299
6540.00,0.9185
6539.00,0.9072
6538.00,0.8960
6537.00,0.8852
6536.00,0.8744
6535.00,0.8638
6534.00,0.8535
6533.00,0.8434
6532.00,0.8336
6531.00,0.8242
6530.00,0.8153
6529.00,0.8070
6528.00,0.7992
6527.00,0.7919
6526.00,0.7851
6525.00,0.7791
6524.00,0.7737
6523.00,0.7690
6522.00,0.7651
6521.00,0.7621
6520.00,0.7599
6519.00,0.7584
6518.00,0.7575
6517.00,0.7574
6516.00,0.7580
6515.00,0.7593
6514.00,0.7615
6513.00,0.7645
6512.00,0.7683
6511.00,0.7729
6510.00,0.7781
6509.00,0.7841
6508.00,0.7908
6507.00,0.7979
6506.00,0.8054
6505.00,0.8133
6504.00,0.8217
6503.00,0.8307
6502.00,0.8400
6501.00,0.8497
6500.00,0.8598
6499.00,0.8703
6498.00,0.8813
6497.00,0.8925
6496.00,0.9038
6495.00,0.9149
6494.00,0.9260
6493.00,0.9373
6492.00,0.9485
6491.00,0.9597
6490.00,0.9708
6489.00,0.9822
6488.00,0.9940
6487.00,1.0058
6486.00,1.0173
6485.00,1.0287
6484.00,1.0402
6483.00,1.0516
6482.00,1.0627
6481.00,1.0734
6480.00,1.0838
6479.00,1.0941
6478.00,1.1041
6477.00,1.1137
6476.00,1.1230
6475.00,1.1320
6474.00,1.1407
6473.00,1.1492
6472.00,1.1574
6471.00,1.1653
6470.00,1.1730
6469.00,1.1804
6468.00,1.1875
6467.00,1.1942
6466.00,1.2006
6465.00,1.2068
6464.00,1.2127
6463.00,1.2185
6462.00,1.2241
6461.00,1.2292
6460.00,1.2338
6459.00,1.2378
6458.00,1.2412
6457.00,1.2439
6456.00,1.2459
6455.00,1.2477
6454.00,1.2495
6453.00,1.2511
6452.00,1.2523
6451.00,1.2527
6450.00,1.2524
6449.00,1.2517
6448.00,1.2507
6447.00,1.2494
6446.00,1.2475
6445.00,1.2450
6444.00,1.2420
6443.00,1.2387
6442.00,1.2355
6441.00,1.2320
6440.00,1.2280
6439.00,1.2234
6438.00,1.2184
6437.00,1.2134
6436.00,1.2080
6435.00,1.2019
6434.00,1.1952
6433.00,1.1882
6432.00,1.1812
6431.00,1.1737
6430.00,1.1653
6429.00,1.1561
6428.00,1.1463
6427.00,1.1364
6426.00,1.1264
6425.00,1.1161
6424.00,1.1056
6423.00,1.0948
6422.00,1.0839
6421.00,1.0726
6420.00,1.0608
6419.00,1.0486
6418.00,1.0361
6417.00,1.0236
6416.00,1.0111
6415.00,0.9986
6414.00,0.9861
6413.00,0.9738
6412.00,0.9615
6411.00,0.9491
6410.00,0.9367
6409.00,0.9242
6408.00,0.9118
6407.00,0.8996
6406.00,0.8877
6405.00,0.8761
6404.00,0.8649
6403.00,0.8540
6402.00,0.8435
6401.00,0.8334
6400.00,0.8238
6399.00,0.8148
6398.00,0.8064
6397.00,0.7987
6396.00,0.7916
6395.00,0.7850
6394.00,0.7791
6393.00,0.7739
6392.00,0.7694
6391.00,0.7656
6390.00,0.7627
6389.00,0.7606
6388.00,0.7595
6387.00,0.7593
6386.00,0.7599
6385.00,0.7613
6384.00,0.7634
6383.00,0.7662
6382.00,0.7697
6381.00,0.7739
6380.00,0.7788
6379.00,0.7845
6378.00,0.7910
6377.00,0.7983
6376.00,0.8061
6375.00,0.8144
6374.00,0.8232
6373.00,0.8324
6372.00,0.8420
6371.00,0.8520
6370.00,0.8622
6369.00,0.8727
6368.00,0.8835
6367.00,0.8945
6366.00,0.9057
6365.00,0.9173
6364.00,0.9289
6363.00,0.9405
6362.00,0.9521
6361.00,0.9637
6360.00,0.9754
6359.00,0.9870
6358.00,0.9985
6357.00,1.0098
6356.00,1.0211
6355.00,1.0323
6354.00,1.0435
6353.00,1.0545
6352.00,1.0651
6351.00,1.0755
6350.00,1.0856
6349.00,1.0955
6348.00,1.1050
6347.00,1.1140
6346.00,1.1229
6345.00,1.1319
6344.00,1.1411
6343.00,1.1501
6342.00,1.1587
6341.00,1.1667
6340.00,1.1741
6339.00,1.1811
6338.00,1.1877
6337.00,1.1941
6336.00,1.2001
6335.00,1.2058
6334.00,1.2110
6333.00,1.2154
6332.00,1.2193
6331.00,1.2230
6330.00,1.2263
6329.00,1.2293
6328.00,1.2317
6327.00,1.2339
6326.00,1.2361
6325.00,1.2381
6324.00,1.2393
6323.00,1.2398
6322.00,1.2400
6321.00,1.2403
6320.00,1.2405
6319.00,1.2401
6318.00,1.2389
6317.00,1.2371
6316.00,1.2351
6315.00,1.2326
6314.00,1.2296
6313.00,1.2260
6312.00,1.2220
6311.00,1.2180
6310.00,1.2139
6309.00,1.2095
6308.00,1.2045
6307.00,1.1989
6306.00,1.1928
6305.00,1.1865
6304.00,1.1801
6303.00,1.1734
6302.00,1.1664
6301.00,1.1591
6300.00,1.1517
6299.00,1.1439
6298.00,1.1355
6297.00,1.1263
6296.00,1.1164
6295.00,1.1063
6294.00,1.0962
6293.00,1.0861
6292.00,1.0756
6291.00,1.0649
6290.00,1.0540
6289.00,1.0428
6288.00,1.0311
6287.00,1.0189
6286.00,1.0066
6285.00,0.9944
6284.00,0.9823
6283.00,0.9701
6282.00,0.9577
6281.00,0.9453
6280.00,0.9328
6279.00,0.9202
6278.00,0.9078
6277.00,0.8956
6276.00,0.8838
6275.00,0.8722
6274.00,0.8609
6273.00,0.8498
6272.00,0.8391
6271.00,0.8287
6270.00,0.8189
6269.00,0.8098
6268.00,0.8014
6267.00,0.7936
6266.00,0.7864
6265.00,0.7798
6264.00,0.7738
6263.00,0.7685
6262.00,0.7639
6261.00,0.7601
6260.00,0.7572
6259.00,0.7552
6258.00,0.7542
6257.00,0.7540
6256.00,0.7548
6255.00,0.7563
6254.00,0.7586
6253.00,0.7616
6252.00,0.7653
6251.00,0.7696
6250.00,0.7748
6249.00,0.7808
6248.00,0.7875
6247.00,0.7948
6246.00,0.8028
6245.00,0.8115
6244.00,0.8206
6243.00,0.8302
6242.00,0.8402
6241.00,0.8507
6240.00,0.8615
6239.00,0.8726
6238.00,0.8839
6237.00,0.8954
6236.00,0.9070
6235.00,0.9188
6234.00,0.9307
6233.00,0.9428
6232.00,0.9550
6231.00,0.9672
6230.00,0.9794
6229.00,0.9918
6228.00,1.0041
6227.00,1.0164
6226.00,1.0286
6225.00,1.0407
6224.00,1.0528
6223.00,1.0645
6222.00,1.0759
6221.00,1.0869
6220.00,1.0974
6219.00,1.1078
6218.00,1.1180
6217.00,1.1284
6216.00,1.1386
6215.00,1.1487
6214.00,1.1585
6213.00,1.1678
6212.00,1.1765
6211.00,1.1847
6210.00,1.1926
6209.00,1.2002
6208.00,1.2077
6207.00,1.2148
6206.00,1.2213
6205.00,1.2272
6204.00,1.2328
6203.00,1.2383
6202.00,1.2438
6201.00,1.2490
6200.00,1.2540
6199.00,1.2586
6198.00,1.2625
6197.00,1.2656
6196.00,1.2680
6195.00,1.2699
6194.00,1.2715
6193.00,1.2727
6192.00,1.2733
6191.00,1.2733
6190.00,1.2731
6189.00,1.2729
6188.00,1.2727
6187.00,1.2722
6186.00,1.2712
6185.00,1.2694
6184.00,1.2667
6183.00,1.2632
6182.00,1.2594
6181.00,1.2553
6180.00,1.2509
6179.00,1.2462
6178.00,1.2413
6177.00,1.2360
6176.00,1.2301
6175.00,1.2235
6174.00,1.2163
6173.00,1.2090
6172.00,1.2016
6171.00,1.1938
6170.00,1.1853
6169.00,1.1763
6168.00,1.1669
6167.00,1.1572
6166.00,1.1472
6165.00,1.1368
6164.00,1.1260
6163.00,1.1149
6162.00,1.1036
6161.00,1.0919
6160.00,1.0797
6159.00,1.0672
6158.00,1.0545
6157.00,1.0417
6156.00,1.0286
6155.00,1.0152
6154.00,1.0017
6153.00,0.9881
6152.00,0.9746
6151.00,0.9610
6150.00,0.9475
6149.00,0.9341
6148.00,0.9208
6147.00,0.9077
6146.00,0.8947
6145.00,0.8820
6144.00,0.8696
6143.00,0.8577
6142.00,0.8464
6141.00,0.8356
6140.00,0.8253
6139.00,0.8154
6138.00,0.8060
6137.00,0.7972
6136.00,0.7891
6135.00,0.7818
6134.00,0.7752
6133.00,0.7695
6132.00,0.7646
6131.00,0.7607
6130.00,0.7577
6129.00,0.7556
6128.00,0.7542
6127.00,0.7537
6126.00,0.7540
6125.00,0.7552
6124.00,0.7571
6123.00,0.7599
6122.00,0.7637
6121.00,0.7683
6120.00,0.7737
6119.00,0.7796
6118.00,0.7862
6117.00,0.7935
6116.00,0.8015
6115.00,0.8102
6114.00,0.8195
6113.00,0.8292
6112.00,0.8393
6111.00,0.8497
6110.00,0.8603
6109.00,0.8714
6108.00,0.8827
6107.00,0.8945
6106.00,0.9065
6105.00,0.9187
6104.00,0.9309
6103.00,0.9430
6102.00,0.9551
6101.00,0.9672
6100.00,0.9795
6099.00,0.9918
6098.00,1.0041
6097.00,1.0164
6096.00,1.0285
6095.00,1.0403
6094.00,1.0520
6093.00,1.0636
6092.00,1.0749
6091.00,1.0858
6090.00,1.0963
6089.00,1.1066
6088.00,1.1167
6087.00,1.1264
6086.00,1.1357
6085.00,1.1447
6084.00,1.1535
6083.00,1.1622
6082.00,1.1708
6081.00,1.1792
6080.00,1.1872
6079.00,1.1949
6078.00,1.2023
6077.00,1.2093
6076.00,1.2158
6075.00,1.2219
6074.00,1.2277
6073.00,1.2335
6072.00,1.2389
6071.00,1.2438
6070.00,1.2480
6069.00,1.2519
6068.00,1.2552
6067.00,1.2581
6066.00,1.2609
6065.00,1.2637
6064.00,1.2662
6063.00,1.2683
6062.00,1.2699
6061.00,1.2709
6060.00,1.2712
6059.00,1.2710
6058.00,1.2705
6057.00,1.2701
6056.00,1.2695
6055.00,1.2682
6054.00,1.2663
6053.00,1.2637
6052.00,1.2605
6051.00,1.2567
6050.00,1.2524
6049.00,1.2480
6048.00,1.2435
6047.00,1.2386
6046.00,1.2330
6045.00,1.2271
6044.00,1.2208
6043.00,1.2140
6042.00,1.2068
6041.00,1.1993
6040.00,1.1917
6039.00,1.1836
6038.00,1.1747
6037.00,1.1649
6036.00,1.1545
6035.00,1.1437
6034.00,1.1327
6033.00,1.1214
6032.00,1.1099
6031.00,1.0981
6030.00,1.0860
6029.00,1.0736
6028.00,1.0609
6027.00,1.0478
6026.00,1.0346
6025.00,1.0213
6024.00,1.0080
6023.00,0.9945
6022.00,0.9808
6021.00,0.9670
6020.00,0.9531
6019.00,0.9393
6018.00,0.9255
6017.00,0.9120
6016.00,0.8988
6015.00,0.8860
6014.00,0.8736
6013.00,0.8616
6012.00,0.8501
6011.00,0.8389
6010.00,0.8282
6009.00,0.8179
6008.00,0.8081
6007.00,0.7990
6006.00,0.7906
6005.00,0.7829
6004.00,0.7760
6003.00,0.7698
6002.00,0.7646
6001.00,0.7603
6000.00,0.7570
5999.00,0.7546
5998.00,0.7531
5997.00,0.7526
5996.00,0.7532
5995.00,0.7547
5994.00,0.7571
5993.00,0.7602
5992.00,0.7642
5991.00,0.7689
5990.00,0.7745
5989.00,0.7809
5988.00,0.7880
5987.00,0.7959
5986.00,0.8047
5985.00,0.8140
5984.00,0.8237
5983.00,0.8337
5982.00,0.8444
5981.00,0.8556
5980.00,0.8674
5979.00,0.8794
5978.00,0.8916
5977.00,0.9040
5976.00,0.9164
5975.00,0.9289
5974.00,0.9415
5973.00,0.9542
5972.00,0.9671
5971.00,0.9801
5970.00,0.9933
5969.00,1.0065
5968.00,1.0197
5967.00,1.0326
5966.00,1.0452
5965.00,1.0577
5964.00,1.0702
5963.00,1.0824
5962.00,1.0945
5961.00,1.1066
5960.00,1.1186
5959.00,1.1304
5958.00,1.1418
5957.00,1.1528
5956.00,1.1636
5955.00,1.1742
5954.00,1.1845
5953.00,1.1943
5952.00,1.2036
5951.00,1.2124
5950.00,1.2207
5949.00,1.2285
5948.00,1.2359
5947.00,1.2432
5946.00,1.2502
5945.00,1.2571
5944.00,1.2636
5943.00,1.2695
5942.00,1.2749
5941.00,1.2797
5940.00,1.2843
5939.00,1.2886
5938.00,1.2928
5937.00,1.2966
5936.00,1.2999
5935.00,1.3025
5934.00,1.3044
5933.00,1.3054
5932.00,1.3056
5931.00,1.3052
5930.00,1.3049
5929.00,1.3048
5928.00,1.3050
5927.00,1.3049
5926.00,1.3041
5925.00,1.3024
5924.00,1.2997
5923.00,1.2958
5922.00,1.2914
5921.00,1.2869
5920.00,1.2826
5919.00,1.2784
5918.00,1.2736
5917.00,1.2681
5916.00,1.2620
5915.00,1.2552
5914.00,1.2480
5913.00,1.2404
5912.00,1.2327
5911.00,1.2247
5910.00,1.2163
5909.00,1.2071
5908.00,1.1972
5907.00,1.1869
5906.00,1.1763
5905.00,1.1653
5904.00,1.1540
5903.00,1.1424
5902.00,1.1305
5901.00,1.1182
5900.00,1.1055
5899.00,1.0924
5898.00,1.0791
5897.00,1.0656
5896.00,1.0519
5895.00,1.0380
5894.00,1.0241
5893.00,1.0101
5892.00,0.9961
5891.00,0.9822
5890.00,0.9683
5889.00,0.9545
5888.00,0.9409
5887.00,0.9273
5886.00,0.9138
5885.00,0.9005
5884.00,0.8877
5883.00,0.8754
5882.00,0.8636
5881.00,0.8523
5880.00,0.8415
5879.00,0.8313
5878.00,0.8217
5877.00,0.8129
5876.00,0.8048
5875.00,0.7975
5874.00,0.7910
5873.00,0.7853
5872.00,0.7804
5871.00,0.7762
5870.00,0.7729
5869.00,0.7706
5868.00,0.7692
5867.00,0.7688
5866.00,0.7693
5865.00,0.7708
5864.00,0.7732
5863.00,0.7764
5862.00,0.7804
5861.00,0.7853
5860.00,0.7910
5859.00,0.7976
5858.00,0.8049
5857.00,0.8128
5856.00,0.8213
5855.00,0.8305
5854.00,0.8402
5853.00,0.8505
5852.00,0.8611
5851.00,0.8722
5850.00,0.8837
5849.00,0.8956
5848.00,0.9079
5847.00,0.9204
5846.00,0.9331
5845.00,0.9460
5844.00,0.9591
5843.00,0.9723
5842.00,0.9855
5841.00,0.9988
5840.00,1.0121
5839.00,1.0254
5838.00,1.0385
5837.00,1.0515
5836.00,1.0642
5835.00,1.0768
5834.00,1.0892
5833.00,1.1016
5832.00,1.1139
5831.00,1.1259
5830.00,1.1377
5829.00,1.1493
5828.00,1.1606
5827.00,1.1718
5826.00,1.1826
5825.00,1.1930
5824.00,1.2029
5823.00,1.2125
5822.00,1.2219
5821.00,1.2310
5820.00,1.2397
5819.00,1.2480
5818.00,1.2559
5817.00,1.2633
5816.00,1.2700
5815.00,1.2764
5814.00,1.2824
5813.00,1.2882
5812.00,1.2936
5811.00,1.2988
5810.00,1.3035
5809.00,1.3077
5808.00,1.3113
5807.00,1.3144
5806.00,1.3170
5805.00,1.3191
5804.00,1.3212
5803.00,1.3232
5802.00,1.3250
5801.00,1.3266
5800.00,1.3276
5799.00,1.3277
5798.00,1.3268
5797.00,1.3249
5796.00,1.3224
5795.00,1.3197
5794.00,1.3171
5793.00,1.3146
5792.00,1.3118
5791.00,1.3086
5790.00,1.3046
5789.00,1.2998
5788.00,1.2942
5787.00,1.2881
5786.00,1.2817
5785.00,1.2750
5784.00,1.2682
5783.00,1.2610
5782.00,1.2534
5781.00,1.2450
5780.00,1.2362
5779.00,1.2270
5778.00,1.2175
5777.00,1.2075
5776.00,1.1970
5775.00,1.1860
5774.00,1.1748
5773.00,1.1630
5772.00,1.1506
5771.00,1.1379
5770.00,1.1251
5769.00,1.1121
5768.00,1.0988
5767.00,1.0853
5766.00,1.0715
5765.00,1.0575
5764.00,1.0433
5763.00,1.0288
5762.00,1.0144
5761.00,1.0001
5760.00,0.9857
5759.00,0.9712
5758.00,0.9569
5757.00,0.9427
5756.00,0.9288
5755.00,0.9151
5754.00,0.9017
5753.00,0.8888
5752.00,0.8764
5751.00,0.8643
5750.00,0.8526
5749.00,0.8417
5748.00,0.8313
5747.00,0.8217
5746.00,0.8129
5745.00,0.8048
5744.00,0.7974
5743.00,0.7908
5742.00,0.7851
5741.00,0.7802
5740.00,0.7763
5739.00,0.7733
5738.00,0.7713
5737.00,0.7703
5736.00,0.7704
5735.00,0.7714
5734.00,0.7733
5733.00,0.7761
5732.00,0.7797
5731.00,0.7842
5730.00,0.7896
5729.00,0.7959
5728.00,0.8030
5727.00,0.8107
5726.00,0.8192
5725.00,0.8282
5724.00,0.8379
5723.00,0.8482
5722.00,0.8589
5721.00,0.8702
5720.00,0.8820
5719.00,0.8941
5718.00,0.9065
5717.00,0.9192
5716.00,0.9322
5715.00,0.9455
5714.00,0.9588
5713.00,0.9721
5712.00,0.9854
5711.00,0.9986
5710.00,1.0118
5709.00,1.0251
5708.00,1.0384
5707.00,1.0517
5706.00,1.0648
5705.00,1.0778
5704.00,1.0909
5703.00,1.1039
5702.00,1.1168
5701.00,1.1295
5700.00,1.1418
5699.00,1.1538
5698.00,1.1654
5697.00,1.1764
5696.00,1.1871
5695.00,1.1977
5694.00,1.2082
5693.00,1.2184
5692.00,1.2282
5691.00,1.2375
5690.00,1.2466
5689.00,1.2553
5688.00,1.2636
5687.00,1.2714
5686.00,1.2788
5685.00,1.2855
5684.00,1.2918
5683.00,1.2976
5682.00,1.3030
5681.00,1.3082
5680.00,1.3132
5679.00,1.3178
5678.00,1.3219
5677.00,1.3252
5676.00,1.3278
5675.00,1.3297
5674.00,1.3310
5673.00,1.3319
5672.00,1.3326
5671.00,1.3332
5670.00,1.3336
5669.00,1.3336
5668.00,1.3332
5667.00,1.3324
5666.00,1.3312
5665.00,1.3295
5664.00,1.3271
5663.00,1.3243
5662.00,1.3211
5661.00,1.3173
5660.00,1.3130
5659.00,1.3081
5658.00,1.3029
5657.00,1.2975
5656.00,1.2917
5655.00,1.2855
5654.00,1.2787
5653.00,1.2716
5652.00,1.2640
5651.00,1.2559
5650.00,1.2472
5649.00,1.2378
5648.00,1.2277
5647.00,1.2172
5646.00,1.2063
5645.00,1.1951
5644.00,1.1839
5643.00,1.1726
5642.00,1.1611
5641.00,1.1490
5640.00,1.1363
5639.00,1.1229
5638.00,1.1091
5637.00,1.0948
5636.00,1.0803
5635.00,1.0656
5634.00,1.0510
5633.00,1.0362
5632.00,1.0213
5631.00,1.0062
5630.00,0.9910
5629.00,0.9758
5628.00,0.9607
5627.00,0.9457
5626.00,0.9310
5625.00,0.9165
5624.00,0.9023
5623.00,0.8884
5622.00,0.8749
5621.00,0.8618
5620.00,0.8492
5619.00,0.8371
5618.00,0.8255
5617.00,0.8147
5616.00,0.8047
5615.00,0.7955
5614.00,0.7872
5613.00,0.7798
5612.00,0.7733
5611.00,0.7677
5610.00,0.7630
5609.00,0.7593
5608.00,0.7567
5607.00,0.7552
5606.00,0.7547
5605.00,0.7552
5604.00,0.7567
5603.00,0.7592
5602.00,0.7628
5601.00,0.7674
5600.00,0.7731
5599.00,0.7798
5598.00,0.7874
5597.00,0.7958
5596.00,0.8048
5595.00,0.8144
5594.00,0.8248
5593.00,0.8358
5592.00,0.8475
5591.00,0.8596
5590.00,0.8723
5589.00,0.8852
5588.00,0.8984
5587.00,0.9117
5586.00,0.9252
5585.00,0.9391
5584.00,0.9532
5583.00,0.9675
5582.00,0.9819
5581.00,0.9963
5580.00,1.0106
5579.00,1.0247
5578.00,1.0388
5577.00,1.0529
5576.00,1.0671
5575.00,1.0812
5574.00,1.0952
5573.00,1.1090
5572.00,1.1226
5571.00,1.1357
5570.00,1.1485
5569.00,1.1609
5568.00,1.1729
5567.00,1.1846
5566.00,1.1960
5565.00,1.2070
5564.00,1.2179
5563.00,1.2286
5562.00,1.2389
5561.00,1.2487
5560.00,1.2581
5559.00,1.2670
5558.00,1.2757
5557.00,1.2840
5556.00,1.2918
5555.00,1.2992
5554.00,1.3061
5553.00,1.3125
5552.00,1.3184
5551.00,1.3240
5550.00,1.3295
5549.00,1.3346
5548.00,1.3392
5547.00,1.3430
5546.00,1.3462
5545.00,1.3490
5544.00,1.3512
5543.00,1.3531
5542.00,1.3543
5541.00,1.3549
5540.00,1.3549
5539.00,1.3544
5538.00,1.3538
5537.00,1.3530
5536.00,1.3521
5535.00,1.3507
5534.00,1.3486
5533.00,1.3459
5532.00,1.3425
5531.00,1.3386
5530.00,1.3343
5529.00,1.3297
5528.00,1.3248
5527.00,1.3193
5526.00,1.3133
5525.00,1.3068
5524.00,1.2999
5523.00,1.2925
5522.00,1.2846
5521.00,1.2762
5520.00,1.2675
5519.00,1.2584
5518.00,1.2488
5517.00,1.2386
5516.00,1.2280
5515.00,1.2171
5514.00,1.2058
5513.00,1.1941
5512.00,1.1819
5511.00,1.1692
5510.00,1.1560
5509.00,1.1422
5508.00,1.1279
5507.00,1.1133
5506.00,1.0984
5505.00,1.0832
5504.00,1.0679
5503.00,1.0523
5502.00,1.0366
5501.00,1.0208
5500.00,1.0048
5499.00,0.9886
5498.00,0.9726
5497.00,0.9568
5496.00,0.9411
5495.00,0.9255
5494.00,0.9103
5493.00,0.8953
5492.00,0.8806
5491.00,0.8664
5490.00,0.8526
5489.00,0.8394
5488.00,0.8269
5487.00,0.8151
5486.00,0.8042
5485.00,0.7943
5484.00,0.7853
5483.00,0.7773
5482.00,0.7702
5481.00,0.7641
5480.00,0.7590
5479.00,0.7549
5478.00,0.7520
5477.00,0.7500
5476.00,0.7490
5475.00,0.7491
5474.00,0.7504
5473.00,0.7529
5472.00,0.7565
5471.00,0.7611
5470.00,0.7668
5469.00,0.7736
5468.00,0.7814
5467.00,0.7899
5466.00,0.7991
5465.00,0.8089
5464.00,0.8192
5463.00,0.8301
5462.00,0.8417
5461.00,0.8538
5460.00,0.8666
5459.00,0.8799
5458.00,0.8935
5457.00,0.9072
5456.00,0.9211
5455.00,0.9351
5454.00,0.9493
5453.00,0.9634
5452.00,0.9775
5451.00,0.9916
5450.00,1.0059
5449.00,1.0202
5448.00,1.0345
5447.00,1.0486
5446.00,1.0626
5445.00,1.0765
5444.00,1.0901
5443.00,1.1036
5442.00,1.1169
5441.00,1.1300
5440.00,1.1430
5439.00,1.1559
5438.00,1.1686
5437.00,1.1811
5436.00,1.1932
5435.00,1.2047
5434.00,1.2160
5433.00,1.2269
5432.00,1.2373
5431.00,1.2472
5430.00,1.2566
5429.00,1.2659
5428.00,1.2751
5427.00,1.2840
5426.00,1.2923
5425.00,1.2999
5424.00,1.3072
5423.00,1.3145
5422.00,1.3216
5421.00,1.3285
5420.00,1.3347
5419.00,1.3401
5418.00,1.3447
5417.00,1.3484
5416.00,1.3515
5415.00,1.3543
5414.00,1.3567
5413.00,1.3589
5412.00,1.3607
5411.00,1.3619
5410.00,1.3627
5409.00,1.3632
5408.00,1.3633
5407.00,1.3633
5406.00,1.3628
5405.00,1.3618
5404.00,1.3603
5403.00,1.3583
5402.00,1.3560
5401.00,1.3533
5400.00,1.3502
5399.00,1.3468
5398.00,1.3427
5397.00,1.3380
5396.00,1.3323
5395.00,1.3255
5394.00,1.3179
5393.00,1.3096
5392.00,1.3009
5391.00,1.2923
5390.00,1.2837
5389.00,1.2750
5388.00,1.2659
5387.00,1.2563
5386.00,1.2461
5385.00,1.2353
5384.00,1.2238
5383.00,1.2118
5382.00,1.1993
5381.00,1.1864
5380.00,1.1728
5379.00,1.1586
5378.00,1.1439
5377.00,1.1287
5376.00,1.1132
5375.00,1.0974
5374.00,1.0812
5373.00,1.0648
5372.00,1.0483
5371.00,1.0317
5370.00,1.0150
5369.00,0.9986
5368.00,0.9822
5367.00,0.9659
5366.00,0.9495
5365.00,0.9333
5364.00,0.9172
5363.00,0.9015
5362.00,0.8862
5361.00,0.8715
5360.00,0.8574
5359.00,0.8438
5358.00,0.8310
5357.00,0.8190
5356.00,0.8077
5355.00,0.7972
5354.00,0.7876
5353.00,0.7791
5352.00,0.7717
5351.00,0.7652
5350.00,0.7598
5349.00,0.7556
5348.00,0.7527
5347.00,0.7511
5346.00,0.7506
5345.00,0.7512
5344.00,0.7529
5343.00,0.7557
5342.00,0.7596
5341.00,0.7645
5340.00,0.7704
5339.00,0.7774
5338.00,0.7856
5337.00,0.7950
5336.00,0.8054
5335.00,0.8165
5334.00,0.8283
5333.00,0.8407
5332.00,0.8537
5331.00,0.8672
5330.00,0.8811
5329.00,0.8953
5328.00,0.9098
5327.00,0.9248
5326.00,0.9401
5325.00,0.9556
5324.00,0.9713
5323.00,0.9868
5322.00,1.0024
5321.00,1.0179
5320.00,1.0335
5319.00,1.0490
5318.00,1.0644
5317.00,1.0798
5316.00,1.0951
5315.00,1.1102
5314.00,1.1250
5313.00,1.1395
5312.00,1.1537
5311.00,1.1676
5310.00,1.1812
5309.00,1.1944
5308.00,1.2072
5307.00,1.2198
5306.00,1.2322
5305.00,1.2443
5304.00,1.2560
5303.00,1.2672
5302.00,1.2779
5301.00,1.2883
5300.00,1.2985
5299.00,1.3083
5298.00,1.3178
5297.00,1.3266
5296.00,1.3348
5295.00,1.3422
5294.00,1.3491
5293.00,1.3556
5292.00,1.3617
5291.00,1.3673
5290.00,1.3723
5289.00,1.3770
5288.00,1.3811
5287.00,1.3846
5286.00,1.3875
5285.00,1.3898
5284.00,1.3920
5283.00,1.3941
5282.00,1.3959
5281.00,1.3972
5280.00,1.3978
5279.00,1.3977
5278.00,1.3970
5277.00,1.3960
5276.00,1.3948
5275.00,1.3935
5274.00,1.3918
5273.00,1.3896
5272.00,1.3866
5271.00,1.3830
5270.00,1.3787
5269.00,1.3739
5268.00,1.3685
5267.00,1.3625
5266.00,1.3560
5265.00,1.3491
5264.00,1.3418
5263.00,1.3344
5262.00,1.3265
5261.00,1.3180
5260.00,1.3088
5259.00,1.2991
5258.00,1.2891
5257.00,1.2789
5256.00,1.2684
5255.00,1.2573
5254.00,1.2456
5253.00,1.2333
5252.00,1.2203
5251.00,1.2067
5250.00,1.1926
5249.00,1.1780
5248.00,1.1629
5247.00,1.1475
5246.00,1.1317
5245.00,1.1156
5244.00,1.0992
5243.00,1.0826
5242.00,1.0659
5241.00,1.0490
5240.00,1.0320
5239.00,1.0150
5238.00,0.9979
5237.00,0.9811
5236.00,0.9644
5235.00,0.9478
5234.00,0.9315
5233.00,0.9154
5232.00,0.8995
5231.00,0.8840
5230.00,0.8691
5229.00,0.8549
5228.00,0.8414
5227.00,0.8286
5226.00,0.8165
5225.00,0.8053
5224.00,0.7950
5223.00,0.7857
5222.00,0.7777
5221.00,0.7708
5220.00,0.7650
5219.00,0.7604
5218.00,0.7571
5217.00,0.7549
5216.00,0.7541
5215.00,0.7545
5214.00,0.7561
5213.00,0.7589
5212.00,0.7629
5211.00,0.7680
5210.00,0.7741
5209.00,0.7812
5208.00,0.7892
5207.00,0.7982
5206.00,0.8081
5205.00,0.8189
5204.00,0.8305
5203.00,0.8428
5202.00,0.8557
5201.00,0.8692
5200.00,0.8832
5199.00,0.8976
5198.00,0.9125
5197.00,0.9278
5196.00,0.9433
5195.00,0.9591
5194.00,0.9749
5193.00,0.9907
5192.00,1.0066
5191.00,1.0224
5190.00,1.0383
5189.00,1.0541
5188.00,1.0698
5187.00,1.0852
5186.00,1.1006
5185.00,1.1158
5184.00,1.1309
5183.00,1.1458
5182.00,1.1606
5181.00,1.1750
5180.00,1.1890
5179.00,1.2028
5178.00,1.2163
5177.00,1.2296
5176.00,1.2424
5175.00,1.2549
5174.00,1.2668
5173.00,1.2784
5172.00,1.2894
5171.00,1.3001
5170.00,1.3104
5169.00,1.3205
5168.00,1.3302
5167.00,1.3395
5166.00,1.3481
5165.00,1.3561
5164.00,1.3634
5163.00,1.3703
5162.00,1.3770
5161.00,1.3835
5160.00,1.3896
5159.00,1.3952
5158.00,1.3999
5157.00,1.4039
5156.00,1.4071
5155.00,1.4097
5154.00,1.4120
5153.00,1.4139
5152.00,1.4156
5151.00,1.4171
5150.00,1.4182
5149.00,1.4188
5148.00,1.4187
5147.00,1.4179
5146.00,1.4165
5145.00,1.4148
5144.00,1.4130
5143.00,1.4109
5142.00,1.4083
5141.00,1.4052
5140.00,1.4012
5139.00,1.3966
5138.00,1.3914
5137.00,1.3859
5136.00,1.3800
5135.00,1.3737
5134.00,1.3669
5133.00,1.3596
5132.00,1.3518
5131.00,1.3432
5130.00,1.3341
5129.00,1.3244
5128.00,1.3143
5127.00,1.3038
5126.00,1.2929
5125.00,1.2816
5124.00,1.2698
5123.00,1.2575
5122.00,1.2446
5121.00,1.2308
5120.00,1.2163
5119.00,1.2012
5118.00,1.1857
5117.00,1.1700
5116.00,1.1541
5115.00,1.1380
5114.00,1.1215
5113.00,1.1047
5112.00,1.0873
5111.00,1.0696
5110.00,1.0516
5109.00,1.0336
5108.00,1.0155
5107.00,0.9974
5106.00,0.9794
5105.00,0.9615
5104.00,0.9439
5103.00,0.9265
5102.00,0.9096
5101.00,0.8933
5100.00,0.8775
5099.00,0.8622
5098.00,0.8477
5097.00,0.8339
5096.00,0.8210
5095.00,0.8092
5094.00,0.7985
5093.00,0.7889
5092.00,0.7804
5091.00,0.7731
5090.00,0.7669
5089.00,0.7621
5088.00,0.7585
5087.00,0.7563
5086.00,0.7553
5085.00,0.7558
5084.00,0.7575
5083.00,0.7605
5082.00,0.7649
5081.00,0.7706
5080.00,0.7774
5079.00,0.7853
5078.00,0.7943
5077.00,0.8042
5076.00,0.8151
5075.00,0.8270
5074.00,0.8396
5073.00,0.8531
5072.00,0.8671
5071.00,0.8817
5070.00,0.8968
5069.00,0.9124
5068.00,0.9284
5067.00,0.9447
5066.00,0.9613
5065.00,0.9779
5064.00,0.9947
5063.00,1.0115
5062.00,1.0283
5061.00,1.0452
5060.00,1.0620
5059.00,1.0788
5058.00,1.0954
5057.00,1.1119
5056.00,1.1280
5055.00,1.1439
5054.00,1.1595
5053.00,1.1749
5052.00,1.1900
5051.00,1.2050
5050.00,1.2196
5049.00,1.2337
5048.00,1.2473
5047.00,1.2605
5046.00,1.2734
5045.00,1.2860
5044.00,1.2983
5043.00,1.3102
5042.00,1.3217
5041.00,1.3329
5040.00,1.3434
5039.00,1.3535
5038.00,1.3629
5037.00,1.3717
5036.00,1.3801
5035.00,1.3880
5034.00,1.3956
5033.00,1.4028
5032.00,1.4094
5031.00,1.4153
5030.00,1.4206
5029.00,1.4252
5028.00,1.4292
5027.00,1.4327
5026.00,1.4358
5025.00,1.4386
5024.00,1.4410
5023.00,1.4431
5022.00,1.4448
5021.00,1.4462
5020.00,1.4471
5019.00,1.4473
5018.00,1.4470
5017.00,1.4460
5016.00,1.4445
5015.00,1.4426
5014.00,1.4404
5013.00,1.4378
5012.00,1.4346
5011.00,1.4307
5010.00,1.4261
5009.00,1.4210
5008.00,1.4157
5007.00,1.4101
5006.00,1.4042
5005.00,1.3978
5004.00,1.3908
5003.00,1.3831
5002.00,1.3747
5001.00,1.3659
5000.00,1.3565
4999.00,1.3466
4998.00,1.3363
4997.00,1.3256
4996.00,1.3145
4995.00,1.3027
4994.00,1.2902
4993.00,1.2770
4992.00,1.2632
4991.00,1.2488
4990.00,1.2340
4989.00,1.2188
4988.00,1.2031
4987.00,1.1868
4986.00,1.1699
4985.00,1.1525
4984.00,1.1347
4983.00,1.1167
4982.00,1.0985
4981.00,1.0799
4980.00,1.0611
4979.00,1.0421
4978.00,1.0229
4977.00,1.0035
4976.00,0.9842
4975.00,0.9652
4974.00,0.9464
4973.00,0.9282
4972.00,0.9104
4971.00,0.8930
4970.00,0.8761
4969.00,0.8598
4968.00,0.8440
4967.00,0.8291
4966.00,0.8152
4965.00,0.8023
4964.00,0.7906
4963.00,0.7800
4962.00,0.7707
4961.00,0.7626
4960.00,0.7559
4959.00,0.7507
4958.00,0.7468
4957.00,0.7444
4956.00,0.7434
4955.00,0.7437
4954.00,0.7456
4953.00,0.7488
4952.00,0.7535
4951.00,0.7596
4950.00,0.7671
4949.00,0.7759
4948.00,0.7859
4947.00,0.7970
4946.00,0.8091
4945.00,0.8221
4944.00,0.8359
4943.00,0.8505
4942.00,0.8657
4941.00,0.8816
4940.00,0.8978
4939.00,0.9143
4938.00,0.9312
4937.00,0.9485
4936.00,0.9660
4935.00,0.9837
4934.00,1.0015
4933.00,1.0194
4932.00,1.0371
4931.00,1.0548
4930.00,1.0723
4929.00,1.0899
4928.00,1.1074
4927.00,1.1247
4926.00,1.1417
4925.00,1.1584
4924.00,1.1748
4923.00,1.1909
4922.00,1.2067
4921.00,1.2222
4920.00,1.2375
4919.00,1.2524
4918.00,1.2669
4917.00,1.2810
4916.00,1.2945
4915.00,1.3075
4914.00,1.3202
4913.00,1.3326
4912.00,1.3447
4911.00,1.3562
4910.00,1.3670
4909.00,1.3771
4908.00,1.3864
4907.00,1.3952
4906.00,1.4036
4905.00,1.4117
4904.00,1.4194
4903.00,1.4265
4902.00,1.4331
4901.00,1.4392
4900.00,1.4448
4899.00,1.4501
4898.00,1.4550
4897.00,1.4594
4896.00,1.4634
4895.00,1.4667
4894.00,1.4693
4893.00,1.4712
4892.00,1.4726
4891.00,1.4734
4890.00,1.4739
4889.00,1.4741
4888.00,1.4739
4887.00,1.4729
4886.00,1.4713
4885.00,1.4691
4884.00,1.4667
4883.00,1.4640
4882.00,1.4611
4881.00,1.4578
4880.00,1.4539
4879.00,1.4492
4878.00,1.4438
4877.00,1.4379
4876.00,1.4317
4875.00,1.4254
4874.00,1.4187
4873.00,1.4113
4872.00,1.4031
4871.00,1.3941
4870.00,1.3844
4869.00,1.3742
4868.00,1.3636
4867.00,1.3527
4866.00,1.3412
4865.00,1.3290
4864.00,1.3161
4863.00,1.3024
4862.00,1.2882
4861.00,1.2735
4860.00,1.2582
4859.00,1.2425
4858.00,1.2263
4857.00,1.2096
4856.00,1.1924
4855.00,1.1746
4854.00,1.1563
4853.00,1.1375
4852.00,1.1183
4851.00,1.0988
4850.00,1.0792
4849.00,1.0594
4848.00,1.0394
4847.00,1.0193
4846.00,0.9992
4845.00,0.9793
4844.00,0.9596
4843.00,0.9404
4842.00,0.9215
4841.00,0.9032
4840.00,0.8856
4839.00,0.8686
4838.00,0.8524
4837.00,0.8371
4836.00,0.8227
4835.00,0.8094
4834.00,0.7972
4833.00,0.7863
4832.00,0.7768
4831.00,0.7687
4830.00,0.7620
4829.00,0.7569
4828.00,0.7533
4827.00,0.7513
4826.00,0.7508
4825.00,0.7519
4824.00,0.7545
4823.00,0.7586
4822.00,0.7642
4821.00,0.7714
4820.00,0.7798
4819.00,0.7896
4818.00,0.8005
4817.00,0.8125
4816.00,0.8256
4815.00,0.8397
4814.00,0.8546
4813.00,0.8703
4812.00,0.8866
4811.00,0.9035
4810.00,0.9208
4809.00,0.9386
4808.00,0.9567
4807.00,0.9750
4806.00,0.9934
4805.00,1.0119
4804.00,1.0304
4803.00,1.0491
4802.00,1.0679
4801.00,1.0866
4800.00,1.1050
4799.00,1.1231
4798.00,1.1410
4797.00,1.1586
4796.00,1.1760
4795.00,1.1933
4794.00,1.2104
4793.00,1.2271
4792.00,1.2435
4791.00,1.2595
4790.00,1.2750
4789.00,1.2901
4788.00,1.3047
4787.00,1.3187
4786.00,1.3323
4785.00,1.3454
4784.00,1.3581
4783.00,1.3703
4782.00,1.3820
4781.00,1.3932
4780.00,1.4040
4779.00,1.4142
4778.00,1.4238
4777.00,1.4328
4776.00,1.4410
4775.00,1.4486
4774.00,1.4558
4773.00,1.4626
4772.00,1.4691
4771.00,1.4751
4770.00,1.4804
4769.00,1.4853
4768.00,1.4897
4767.00,1.4936
4766.00,1.4970
4765.00,1.4999
4764.00,1.5023
4763.00,1.5042
4762.00,1.5057
4761.00,1.5068
4760.00,1.5072
4759.00,1.5069
4758.00,1.5060
4757.00,1.5046
4756.00,1.5030
4755.00,1.5009
4754.00,1.4983
4753.00,1.4951
4752.00,1.4914
4751.00,1.4873
4750.00,1.4827
4749.00,1.4777
4748.00,1.4722
4747.00,1.4661
4746.00,1.4593
4745.00,1.4520
4744.00,1.4441
4743.00,1.4357
4742.00,1.4270
4741.00,1.4179
4740.00,1.4083
4739.00,1.3981
4738.00,1.3871
4737.00,1.3754
4736.00,1.3631
4735.00,1.3501
4734.00,1.3366
4733.00,1.3227
4732.00,1.3082
4731.00,1.2932
4730.00,1.2774
4729.00,1.2610
4728.00,1.2439
4727.00,1.2263
4726.00,1.2081
4725.00,1.1895
4724.00,1.1703
4723.00,1.1507
4722.00,1.1308
4721.00,1.1107
4720.00,1.0904
4719.00,1.0698
4718.00,1.0489
4717.00,1.0279
4716.00,1.0070
4715.00,0.9861
4714.00,0.9655
4713.00,0.9452
4712.00,0.9255
4711.00,0.9064
4710.00,0.8881
4709.00,0.8706
4708.00,0.8540
4707.00,0.8384
4706.00,0.8239
4705.00,0.8107
4704.00,0.7987
4703.00,0.7882
4702.00,0.7791
4701.00,0.7715
4700.00,0.7654
4699.00,0.7611
4698.00,0.7586
4697.00,0.7579
4696.00,0.7589
4695.00,0.7617
4694.00,0.7661
4693.00,0.7721
4692.00,0.7796
4691.00,0.7886
4690.00,0.7989
4689.00,0.8106
4688.00,0.8233
4687.00,0.8371
4686.00,0.8518
4685.00,0.8673
4684.00,0.8836
4683.00,0.9006
4682.00,0.9180
4681.00,0.9360
4680.00,0.9543
4679.00,0.9729
4678.00,0.9917
4677.00,1.0105
4676.00,1.0294
4675.00,1.0483
4674.00,1.0671
4673.00,1.0860
4672.00,1.1048
4671.00,1.1234
4670.00,1.1418
4669.00,1.1599
4668.00,1.1777
4667.00,1.1953
4666.00,1.2125
4665.00,1.2296
4664.00,1.2463
4663.00,1.2628
4662.00,1.2790
4661.00,1.2948
4660.00,1.3101
4659.00,1.3250
4658.00,1.3394
4657.00,1.3533
4656.00,1.3668
4655.00,1.3801
4654.00,1.3929
4653.00,1.4051
4652.00,1.4167
4651.00,1.4276
4650.00,1.4380
4649.00,1.4481
4648.00,1.4580
4647.00,1.4675
4646.00,1.4763
4645.00,1.4843
4644.00,1.4914
4643.00,1.4980
4642.00,1.5041
4641.00,1.5099
4640.00,1.5153
4639.00,1.5204
4638.00,1.5251
4637.00,1.5291
4636.00,1.5323
4635.00,1.5348
4634.00,1.5367
4633.00,1.5383
4632.00,1.5398
4631.00,1.5410
4630.00,1.5417
4629.00,1.5418
4628.00,1.5410
4627.00,1.5397
4626.00,1.5380
4625.00,1.5360
4624.00,1.5335
4623.00,1.5305
4622.00,1.5269
4621.00,1.5227
4620.00,1.5181
4619.00,1.5131
4618.00,1.5077
4617.00,1.5019
4616.00,1.4954
4615.00,1.4882
4614.00,1.4804
4613.00,1.4720
4612.00,1.4632
4611.00,1.4538
4610.00,1.4439
4609.00,1.4334
4608.00,1.4224
4607.00,1.4108
4606.00,1.3987
4605.00,1.3859
4604.00,1.3722
4603.00,1.3578
4602.00,1.3428
4601.00,1.3273
4600.00,1.3113
4599.00,1.2947
4598.00,1.2775
4597.00,1.2595
4596.00,1.2408
4595.00,1.2216
4594.00,1.2018
4593.00,1.1817
4592.00,1.1611
4591.00,1.1401
4590.00,1.1188
4589.00,1.0971
4588.00,1.0752
4587.00,1.0530
4586.00,1.0309
4585.00,1.0089
4584.00,0.9872
4583.00,0.9659
4582.00,0.9450
4581.00,0.9247
4580.00,0.9051
4579.00,0.8863
4578.00,0.8684
4577.00,0.8516
4576.00,0.8359
4575.00,0.8215
4574.00,0.8084
4573.00,0.7968
4572.00,0.7868
4571.00,0.7783
4570.00,0.7714
4569.00,0.7664
4568.00,0.7631
4567.00,0.7617
4566.00,0.7621
4565.00,0.7643
4564.00,0.7684
4563.00,0.7742
4562.00,0.7817
4561.00,0.7908
4560.00,0.8014
4559.00,0.8134
4558.00,0.8267
4557.00,0.8413
4556.00,0.8569
4555.00,0.8734
4554.00,0.8908
4553.00,0.9089
4552.00,0.9276
4551.00,0.9469
4550.00,0.9666
4549.00,0.9865
4548.00,1.0066
4547.00,1.0268
4546.00,1.0471
4545.00,1.0676
4544.00,1.0881
4543.00,1.1085
4542.00,1.1288
4541.00,1.1489
4540.00,1.1688
4539.00,1.1883
4538.00,1.2075
4537.00,1.2263
4536.00,1.2448
4535.00,1.2630
4534.00,1.2809
4533.00,1.2985
4532.00,1.3156
4531.00,1.3322
4530.00,1.3482
4529.00,1.3637
4528.00,1.3788
4527.00,1.3935
4526.00,1.4077
4525.00,1.4214
4524.00,1.4346
4523.00,1.4472
4522.00,1.4593
4521.00,1.4707
4520.00,1.4813
4519.00,1.4911
4518.00,1.5003
4517.00,1.5089
4516.00,1.5170
4515.00,1.5247
4514.00,1.5318
4513.00,1.5383
4512.00,1.5442
4511.00,1.5495
4510.00,1.5545
4509.00,1.5590
4508.00,1.5630
4507.00,1.5667
4506.00,1.5699
4505.00,1.5726
4504.00,1.5748
4503.00,1.5763
4502.00,1.5772
4501.00,1.5773
4500.00,1.5768
4499.00,1.5758
4498.00,1.5743
4497.00,1.5726
4496.00,1.5707
4495.00,1.5684
4494.00,1.5654
4493.00,1.5618
4492.00,1.5575
4491.00,1.5527
4490.00,1.5473
4489.00,1.5415
4488.00,1.5352
4487.00,1.5283
4486.00,1.5210
4485.00,1.5134
4484.00,1.5053
4483.00,1.4967
4482.00,1.4874
4481.00,1.4772
4480.00,1.4662
4479.00,1.4545
4478.00,1.4422
4477.00,1.4295
4476.00,1.4163
4475.00,1.4025
4474.00,1.3880
4473.00,1.3727
4472.00,1.3565
4471.00,1.3396
4470.00,1.3221
4469.00,1.3041
4468.00,1.2856
4467.00,1.2664
4466.00,1.2465
4465.00,1.2260
4464.00,1.2049
4463.00,1.1834
4462.00,1.1615
4461.00,1.1392
4460.00,1.1166
4459.00,1.0937
4458.00,1.0706
4457.00,1.0476
4456.00,1.0247
4455.00,1.0020
4454.00,0.9797
4453.00,0.9578
4452.00,0.9366
4451.00,0.9161
4450.00,0.8965
4449.00,0.8779
4448.00,0.8604
4447.00,0.8442
4446.00,0.8295
4445.00,0.8163
4444.00,0.8047
4443.00,0.7948
4442.00,0.7866
4441.00,0.7803
4440.00,0.7759
4439.00,0.7734
4438.00,0.7729
4437.00,0.7744
4436.00,0.7777
4435.00,0.7830
4434.00,0.7901
4433.00,0.7990
4432.00,0.8097
4431.00,0.8219
4430.00,0.8355
4429.00,0.8503
4428.00,0.8664
4427.00,0.8835
4426.00,0.9016
4425.00,0.9205
4424.00,0.9402
4423.00,0.9603
4422.00,0.9808
4421.00,1.0017
4420.00,1.0229
4419.00,1.0443
4418.00,1.0658
4417.00,1.0874
4416.00,1.1088
4415.00,1.1302
4414.00,1.1515
4413.00,1.1728
4412.00,1.1938
4411.00,1.2146
4410.00,1.2350
4409.00,1.2549
4408.00,1.2744
4407.00,1.2936
4406.00,1.3126
4405.00,1.3313
4404.00,1.3496
4403.00,1.3672
4402.00,1.3841
4401.00,1.4003
4400.00,1.4158
4399.00,1.4308
4398.00,1.4453
4397.00,1.4593
4396.00,1.4729
4395.00,1.4860
4394.00,1.4986
4393.00,1.5107
4392.00,1.5222
4391.00,1.5330
4390.00,1.5429
4389.00,1.5521
4388.00,1.5607
4387.00,1.5689
4386.00,1.5766
4385.00,1.5837
4384.00,1.5903
4383.00,1.5964
4382.00,1.6021
4381.00,1.6076
4380.00,1.6127
4379.00,1.6170
4378.00,1.6206
4377.00,1.6234
4376.00,1.6257
4375.00,1.6278
4374.00,1.6296
4373.00,1.6311
4372.00,1.6320
4371.00,1.6322
4370.00,1.6318
4369.00,1.6310
4368.00,1.6300
4367.00,1.6286
4366.00,1.6268
4365.00,1.6245
4364.00,1.6215
4363.00,1.6181
4362.00,1.6142
4361.00,1.6098
4360.00,1.6047
4359.00,1.5989
4358.00,1.5928
4357.00,1.5865
4356.00,1.5801
4355.00,1.5732
4354.00,1.5654
4353.00,1.5568
4352.00,1.5474
4351.00,1.5376
4350.00,1.5273
4349.00,1.5165
4348.00,1.5052
4347.00,1.4932
4346.00,1.4807
4345.00,1.4676
4344.00,1.4537
4343.00,1.4390
4342.00,1.4236
4341.00,1.4075
4340.00,1.3909
4339.00,1.3736
4338.00,1.3556
4337.00,1.3368
4336.00,1.3172
4335.00,1.2968
4334.00,1.2760
4333.00,1.2547
4332.00,1.2329
4331.00,1.2106
4330.00,1.1878
4329.00,1.1647
4328.00,1.1414
4327.00,1.1180
4326.00,1.0948
4325.00,1.0717
4324.00,1.0490
4323.00,1.0268
4322.00,1.0053
4321.00,0.9845
4320.00,0.9646
4319.00,0.9457
4318.00,0.9279
4317.00,0.9113
4316.00,0.8960
4315.00,0.8822
4314.00,0.8700
4313.00,0.8595
4312.00,0.8507
4311.00,0.8437
4310.00,0.8385
4309.00,0.8352
4308.00,0.8338
4307.00,0.8343
4306.00,0.8368
4305.00,0.8411
4304.00,0.8474
4303.00,0.8554
4302.00,0.8652
4301.00,0.8766
4300.00,0.8896
4299.00,0.9040
4298.00,0.9196
4297.00,0.9363
4296.00,0.9539
4295.00,0.9725
4294.00,0.9918
4293.00,1.0117
4292.00,1.0321
4291.00,1.0527
4290.00,1.0736
4289.00,1.0946
4288.00,1.1157
4287.00,1.1367
4286.00,1.1577
4285.00,1.1786
4284.00,1.1992
4283.00,1.2196
4282.00,1.2398
4281.00,1.2596
4280.00,1.2790
4279.00,1.2982
4278.00,1.3170
4277.00,1.3354
4276.00,1.3534
4275.00,1.3708
4274.00,1.3878
4273.00,1.4045
4272.00,1.4207
4271.00,1.4365
4270.00,1.4520
4269.00,1.4670
4268.00,1.4815
4267.00,1.4954
4266.00,1.5087
4265.00,1.5213
4264.00,1.5335
4263.00,1.5452
4262.00,1.5563
4261.00,1.5668
4260.00,1.5767
4259.00,1.5859
4258.00,1.5947
4257.00,1.6030
4256.00,1.6108
4255.00,1.6183
4254.00,1.6254
4253.00,1.6321
4252.00,1.6382
4251.00,1.6435
4250.00,1.6480
4249.00,1.6518
4248.00,1.6553
4247.00,1.6586
4246.00,1.6617
4245.00,1.6643
4244.00,1.6662
4243.00,1.6673
4242.00,1.6679
4241.00,1.6678
4240.00,1.6672
4239.00,1.6660
4238.00,1.6642
4237.00,1.6620
4236.00,1.6595
4235.00,1.6568
4234.00,1.6539
4233.00,1.6505
4232.00,1.6465
4231.00,1.6419
4230.00,1.6369
4229.00,1.6312
4228.00,1.6248
4227.00,1.6178
4226.00,1.6100
4225.00,1.6019
4224.00,1.5935
4223.00,1.5846
4222.00,1.5751
4221.00,1.5648
4220.00,1.5538
4219.00,1.5422
4218.00,1.5300
4217.00,1.5174
4216.00,1.5041
4215.00,1.4902
4214.00,1.4756
4213.00,1.4603
4212.00,1.4443
4211.00,1.4277
4210.00,1.4105
4209.00,1.3925
4208.00,1.3737
4207.00,1.3541
4206.00,1.3339
4205.00,1.3130
4204.00,1.2917
4203.00,1.2700
4202.00,1.2478
4201.00,1.2251
4200.00,1.2019
4199.00,1.1783
4198.00,1.1545
4197.00,1.1307
4196.00,1.1071
4195.00,1.0837
4194.00,1.0607
4193.00,1.0380
4192.00,1.0158
4191.00,0.9942
4190.00,0.9735
4189.00,0.9540
4188.00,0.9357
4187.00,0.9186
4186.00,0.9030
4185.00,0.8889
4184.00,0.8764
4183.00,0.8656
4182.00,0.8567
4181.00,0.8496
4180.00,0.8444
4179.00,0.8414
4178.00,0.8403
4177.00,0.8414
4176.00,0.8446
4175.00,0.8497
4174.00,0.8567
4173.00,0.8656
4172.00,0.8763
4171.00,0.8887
4170.00,0.9027
4169.00,0.9180
4168.00,0.9346
4167.00,0.9522
4166.00,0.9708
4165.00,0.9903
4164.00,1.0104
4163.00,1.0311
4162.00,1.0524
4161.00,1.0740
4160.00,1.0959
4159.00,1.1180
4158.00,1.1402
4157.00,1.1624
4156.00,1.1846
4155.00,1.2066
4154.00,1.2284
4153.00,1.2501
4152.00,1.2716
4151.00,1.2928
4150.00,1.3135
4149.00,1.3339
4148.00,1.3538
4147.00,1.3735
4146.00,1.3928
4145.00,1.4117
4144.00,1.4303
4143.00,1.4483
4142.00,1.4659
4141.00,1.4827
4140.00,1.4989
4139.00,1.5144
4138.00,1.5295
4137.00,1.5439
4136.00,1.5577
4135.00,1.5707
4134.00,1.5831
4133.00,1.5950
4132.00,1.6066
4131.00,1.6177
4130.00,1.6283
4129.00,1.6384
4128.00,1.6478
4127.00,1.6563
4126.00,1.6640
4125.00,1.6710
4124.00,1.6776
4123.00,1.6837
4122.00,1.6892
4121.00,1.6940
4120.00,1.6982
4119.00,1.7020
4118.00,1.7058
4117.00,1.7094
4116.00,1.7127
4115.00,1.7151
4114.00,1.7165
4113.00,1.7172
4112.00,1.7174
4111.00,1.7175
4110.00,1.7174
4109.00,1.7168
4108.00,1.7155
4107.00,1.7133
4106.00,1.7105
4105.00,1.7072
4104.00,1.7036
4103.00,1.6996
4102.00,1.6952
4101.00,1.6901
4100.00,1.6845
4099.00,1.6784
4098.00,1.6719
4097.00,1.6650
4096.00,1.6575
4095.00,1.6494
4094.00,1.6407
4093.00,1.6315
4092.00,1.6217
4091.00,1.6112
4090.00,1.6002
4089.00,1.5884
4088.00,1.5758
4087.00,1.5625
4086.00,1.5486
4085.00,1.5340
4084.00,1.5187
4083.00,1.5027
4082.00,1.4859
4081.00,1.4685
4080.00,1.4504
4079.00,1.4316
4078.00,1.4121
4077.00,1.3917
4076.00,1.3706
4075.00,1.3488
4074.00,1.3262
4073.00,1.3029
4072.00,1.2788
4071.00,1.2540
4070.00,1.2287
4069.00,1.2030
4068.00,1.1770
4067.00,1.1508
4066.00,1.1246
4065.00,1.0986
4064.00,1.0729
4063.00,1.0477
4062.00,1.0233
4061.00,0.9998
4060.00,0.9773
4059.00,0.9560
4058.00,0.9362
4057.00,0.9179
4056.00,0.9014
4055.00,0.8867
4054.00,0.8740
4053.00,0.8635
4052.00,0.8550
4051.00,0.8489
4050.00,0.8450
4049.00,0.8434
4048.00,0.8442
4047.00,0.8472
4046.00,0.8524
4045.00,0.8599
4044.00,0.8694
4043.00,0.8808
4042.00,0.8940
4041.00,0.9089
4040.00,0.9253
4039.00,0.9430
4038.00,0.9618
4037.00,0.9816
4036.00,1.0024
4035.00,1.0239
4034.00,1.0462
4033.00,1.0689
4032.00,1.0921
4031.00,1.1157
4030.00,1.1395
4029.00,1.1634
4028.00,1.1874
4027.00,1.2112
4026.00,1.2349
4025.00,1.2586
4024.00,1.2820
4023.00,1.3051
4022.00,1.3278
4021.00,1.3500
4020.00,1.3719
4019.00,1.3935
4018.00,1.4146
4017.00,1.4352
4016.00,1.4551
4015.00,1.4743
4014.00,1.4930
4013.00,1.5111
4012.00,1.5288
4011.00,1.5456
4010.00,1.5615
4009.00,1.5764
4008.00,1.5908
4007.00,1.6049
4006.00,1.6187
4005.00,1.6319
4004.00,1.6441
4003.00,1.6552
4002.00,1.6654
4001.00,1.6752
4000.00,1.6848
3999.00,1.6941
3998.00,1.7030
3997.00,1.7112
3996.00,1.7184
3995.00,1.7247
3994.00,1.7303
3993.00,1.7356
3992.00,1.7407
3991.00,1.7455
3990.00,1.7498
3989.00,1.7536
3988.00,1.7568
3987.00,1.7593
3986.00,1.7612
3985.00,1.7623
3984.00,1.7626
3983.00,1.7625
3982.00,1.7621
3981.00,1.7614
3980.00,1.7603
3979.00,1.7588
3978.00,1.7569
3977.00,1.7544
3976.00,1.7512
3975.00,1.7471
3974.00,1.7423
3973.00,1.7371
3972.00,1.7317
3971.00,1.7260
3970.00,1.7196
3969.00,1.7123
3968.00,1.7042
3967.00,1.6957
3966.00,1.6869
3965.00,1.6777
3964.00,1.6680
3963.00,1.6576
3962.00,1.6467
3961.00,1.6352
3960.00,1.6230
3959.00,1.6100
3958.00,1.5963
3957.00,1.5819
3956.00,1.5669
3955.00,1.5514
3954.00,1.5356
3953.00,1.5194
3952.00,1.5028
3951.00,1.4854
3950.00,1.4669
3949.00,1.4474
3948.00,1.4270
3947.00,1.4061
3946.00,1.3846
3945.00,1.3625
3944.00,1.3397
3943.00,1.3161
3942.00,1.2917
3941.00,1.2664
3940.00,1.2404
3939.00,1.2139
3938.00,1.1871
3937.00,1.1603
3936.00,1.1335
3935.00,1.1069
3934.00,1.0804
3933.00,1.0542
3932.00,1.0282
3931.00,1.0030
3930.00,0.9791
3929.00,0.9567
3928.00,0.9359
3927.00,0.9166
3926.00,0.8991
3925.00,0.8834
3924.00,0.8696
3923.00,0.8581
3922.00,0.8492
3921.00,0.8431
3920.00,0.8399
3919.00,0.8394
3918.00,0.8416
3917.00,0.8467
3916.00,0.8543
3915.00,0.8642
3914.00,0.8760
3913.00,0.8898
3912.00,0.9054
3911.00,0.9227
3910.00,0.9416
3909.00,0.9616
3908.00,0.9825
3907.00,1.0037
3906.00,1.0258
3905.00,1.0496
3904.00,1.0754
3903.00,1.1026
3902.00,1.1300
3901.00,1.1574
3900.00,1.1849
3899.00,1.2125
3898.00,1.2400
3897.00,1.2668
3896.00,1.2926
3895.00,1.3171
3894.00,1.3399
3893.00,1.3619
3892.00,1.3846
3891.00,1.4088
3890.00,1.4335
3889.00,1.4565
3888.00,1.4771
3887.00,1.4965
3886.00,1.5166
3885.00,1.5375
3884.00,1.5580
3883.00,1.5765
3882.00,1.5933
3881.00,1.6098
3880.00,1.6266
3879.00,1.6431
3878.00,1.6579
3877.00,1.6705
3876.00,1.6819
3875.00,1.6936
3874.00,1.7053
3873.00,1.7156
3872.00,1.7242
3871.00,1.7328
3870.00,1.7427
3869.00,1.7529
3868.00,1.7619
3867.00,1.7692
3866.00,1.7754
3865.00,1.7813
3864.00,1.7869
3863.00,1.7920
3862.00,1.7961
3861.00,1.7988
3860.00,1.8003
3859.00,1.8017
3858.00,1.8037
3857.00,1.8059
3856.00,1.8073
3855.00,1.8083
3854.00,1.8091
3853.00,1.8091
3852.00,1.8080
3851.00,1.8066
3850.00,1.8055
3849.00,1.8047
3848.00,1.8036
3847.00,1.8016
3846.00,1.7979
3845.00,1.7925
3844.00,1.7861
3843.00,1.7794
3842.00,1.7726
3841.00,1.7655
3840.00,1.7581
3839.00,1.7500
3838.00,1.7409
3837.00,1.7313
3836.00,1.7214
3835.00,1.7112
3834.00,1.7004
3833.00,1.6890
3832.00,1.6770
3831.00,1.6646
3830.00,1.6511
3829.00,1.6358
3828.00,1.6190
3827.00,1.6017
3826.00,1.5848
3825.00,1.5679
3824.00,1.5493
3823.00,1.5284
3822.00,1.5058
3821.00,1.4826
3820.00,1.4595
3819.00,1.4362
3818.00,1.4123
3817.00,1.3873
3816.00,1.3605
3815.00,1.3319
3814.00,1.3024
3813.00,1.2733
3812.00,1.2452
3811.00,1.2178
3810.00,1.1898
3809.00,1.1601
3808.00,1.1290
3807.00,1.0975
3806.00,1.0670
3805.00,1.0382
3804.00,1.0111
3803.00,0.9855
3802.00,0.9612
3801.00,0.9381
3800.00,0.9166
3799.00,0.8974
3798.00,0.8815
3797.00,0.8690
3796.00,0.8598
3795.00,0.8533
3794.00,0.8493
3793.00,0.8480
3792.00,0.8496
3791.00,0.8542
3790.00,0.8617
3789.00,0.8718
3788.00,0.8842
3787.00,0.8986
3786.00,0.9151
3785.00,0.9341
3784.00,0.9553
3783.00,0.9778
3782.00,1.0009
3781.00,1.0248
3780.00,1.0503
3779.00,1.0775
3778.00,1.1054
3777.00,1.1330
3776.00,1.1603
3775.00,1.1877
3774.00,1.2149
3773.00,1.2413
3772.00,1.2669
3771.00,1.2929
3770.00,1.3200
3769.00,1.3478
3768.00,1.3748
3767.00,1.4007
3766.00,1.4260
3765.00,1.4514
3764.00,1.4764
3763.00,1.4999
3762.00,1.5217
3761.00,1.5424
3760.00,1.5623
3759.00,1.5815
3758.00,1.6000
3757.00,1.6177
3756.00,1.6343
3755.00,1.6497
3754.00,1.6640
3753.00,1.6776
3752.00,1.6903
3751.00,1.7025
3750.00,1.7153
3749.00,1.7292
3748.00,1.7427
3747.00,1.7539
3746.00,1.7636
3745.00,1.7740
3744.00,1.7851
3743.00,1.7955
3742.00,1.8047
3741.00,1.8132
3740.00,1.8217
3739.00,1.8301
3738.00,1.8387
3737.00,1.8481
3736.00,1.8578
3735.00,1.8668
3734.00,1.8749
3733.00,1.8828
3732.00,1.8908
3731.00,1.8986
3730.00,1.9049
3729.00,1.9090
3728.00,1.9112
3727.00,1.9121
3726.00,1.9117
3725.00,1.9100
3724.00,1.9065
3723.00,1.9012
3722.00,1.8941
3721.00,1.8851
3720.00,1.8742
3719.00,1.8623
3718.00,1.8509
3717.00,1.8415
3716.00,1.8336
3715.00,1.8260
3714.00,1.8179
3713.00,1.8096
3712.00,1.8019
3711.00,1.7951
3710.00,1.7889
3709.00,1.7824
3708.00,1.7749
3707.00,1.7662
3706.00,1.7562
3705.00,1.7447
3704.00,1.7314
3703.00,1.7160
3702.00,1.6988
3701.00,1.6801
3700.00,1.6597
3699.00,1.6376
3698.00,1.6143
3697.00,1.5900
3696.00,1.5647
3695.00,1.5386
3694.00,1.5122
3693.00,1.4857
3692.00,1.4588
3691.00,1.4311
3690.00,1.4025
3689.00,1.3729
3688.00,1.3427
3687.00,1.3129
3686.00,1.2845
3685.00,1.2578
3684.00,1.2324
3683.00,1.2071
3682.00,1.1819
3681.00,1.1577
3680.00,1.1359
3679.00,1.1162
3678.00,1.0975
3677.00,1.0800
3676.00,1.0645
3675.00,1.0516
3674.00,1.0419
3673.00,1.0354
3672.00,1.0326
3671.00,1.0338
3670.00,1.0388
3669.00,1.0464
3668.00,1.0558
3667.00,1.0670
3666.00,1.0804
3665.00,1.0962
3664.00,1.1139
3663.00,1.1330
3662.00,1.1534
3661.00,1.1751
3660.00,1.1976
3659.00,1.2200
3658.00,1.2425
3657.00,1.2661
3656.00,1.2915
3655.00,1.3177
3654.00,1.3430
3653.00,1.3664
3652.00,1.3890
3651.00,1.4125
3650.00,1.4379
3649.00,1.4650
3648.00,1.4929
3647.00,1.5205
3646.00,1.5467
3645.00,1.5711
3644.00,1.5938
3643.00,1.6157
3642.00,1.6371
3641.00,1.6580
3640.00,1.6786
3639.00,1.6991
3638.00,1.7192
3637.00,1.7382
3636.00,1.7560
3635.00,1.7736
3634.00,1.7916
3633.00,1.8100
3632.00,1.8276
3631.00,1.8440
3630.00,1.8602
3629.00,1.8774
3628.00,1.8948
3627.00,1.9110
3626.00,1.9249
3625.00,1.9367
3624.00,1.9473
3623.00,1.9568
3622.00,1.9647
3621.00,1.9711
3620.00,1.9762
3619.00,1.9807
3618.00,1.9841
3617.00,1.9866
3616.00,1.9887
3615.00,1.9917
3614.00,1.9960
3613.00,2.0011
3612.00,2.0065
3611.00,2.0118
3610.00,2.0174
3609.00,2.0232
3608.00,2.0290
3607.00,2.0340
3606.00,2.0384
3605.00,2.0423
3604.00,2.0458
3603.00,2.0481
3602.00,2.0489
3601.00,2.0486
3600.00,2.0479
3599.00,2.0471
3598.00,2.0455
3597.00,2.0428
3596.00,2.0390
3595.00,2.0346
3594.00,2.0300
3593.00,2.0252
3592.00,2.0202
3591.00,2.0148
3590.00,2.0088
3589.00,2.0023
3588.00,1.9960
3587.00,1.9901
3586.00,1.9845
3585.00,1.9788
3584.00,1.9730
3583.00,1.9668
3582.00,1.9599
3581.00,1.9524
3580.00,1.9442
3579.00,1.9354
3578.00,1.9260
3577.00,1.9164
3576.00,1.9066
3575.00,1.8967
3574.00,1.8861
3573.00,1.8749
3572.00,1.8634
3571.00,1.8520
3570.00,1.8408
3569.00,1.8293
3568.00,1.8174
3567.00,1.8051
3566.00,1.7925
3565.00,1.7801
3564.00,1.7681
3563.00,1.7563
3562.00,1.7446
3561.00,1.7328
3560.00,1.7209
3559.00,1.7091
3558.00,1.6973
3557.00,1.6857
3556.00,1.6740
3555.00,1.6625
3554.00,1.6511
3553.00,1.6401
3552.00,1.6294
3551.00,1.6194
3550.00,1.6101
3549.00,1.6017
3548.00,1.5942
3547.00,1.5875
3546.00,1.5817
3545.00,1.5767
3544.00,1.5724
3543.00,1.5690
3542.00,1.5663
3541.00,1.5646
3540.00,1.5637
3539.00,1.5636
3538.00,1.5641
3537.00,1.5653
3536.00,1.5674
3535.00,1.5705
3534.00,1.5745
3533.00,1.5794
3532.00,1.5852
3531.00,1.5914
3530.00,1.5981
3529.00,1.6053
3528.00,1.6132
3527.00,1.6216
3526.00,1.6307
3525.00,1.6402
3524.00,1.6503
3523.00,1.6611
3522.00,1.6723
3521.00,1.6839
3520.00,1.6956
3519.00,1.7073
3518.00,1.7189
3517.00,1.7303
3516.00,1.7417
3515.00,1.7531
3514.00,1.7646
3513.00,1.7761
3512.00,1.7877
3511.00,1.7994
3510.00,1.8113
3509.00,1.8232
3508.00,1.8351
3507.00,1.8469
3506.00,1.8586
3505.00,1.8699
3504.00,1.8808
3503.00,1.8914
3502.00,1.9019
3501.00,1.9125
3500.00,1.9233
3499.00,1.9342
3498.00,1.9447
3497.00,1.9549
3496.00,1.9648
3495.00,1.9747
3494.00,1.9843
3493.00,1.9936
3492.00,2.0025
3491.00,2.0108
3490.00,2.0188
3489.00,2.0265
3488.00,2.0340
3487.00,2.0416
3486.00,2.0489
3485.00,2.0558
3484.00,2.0622
3483.00,2.0680
3482.00,2.0734
3481.00,2.0787
3480.00,2.0839
3479.00,2.0892
3478.00,2.0945
3477.00,2.0998
3476.00,2.1049
3475.00,2.1092
3474.00,2.1125
3473.00,2.1147
3472.00,2.1163
3471.00,2.1178
3470.00,2.1192
3469.00,2.1203
3468.00,2.1210
3467.00,2.1212
3466.00,2.1211
3465.00,2.1207
3464.00,2.1201
3463.00,2.1193
3462.00,2.1183
3461.00,2.1172
3460.00,2.1161
3459.00,2.1143
3458.00,2.1116
3457.00,2.1078
3456.00,2.1033
3455.00,2.0985
3454.00,2.0936
3453.00,2.0890
3452.00,2.0845
3451.00,2.0799
3450.00,2.0748
3449.00,2.0687
3448.00,2.0615
3447.00,2.0536
3446.00,2.0454
3445.00,2.0371
3444.00,2.0288
3443.00,2.0204
3442.00,2.0118
3441.00,2.0025
3440.00,1.9921
3439.00,1.9805
3438.00,1.9681
3437.00,1.9554
3436.00,1.9428
3435.00,1.9306
3434.00,1.9186
3433.00,1.9063
3432.00,1.8936
3431.00,1.8804
3430.00,1.8666
3429.00,1.8528
3428.00,1.8393
3427.00,1.8260
3426.00,1.8129
3425.00,1.7995
3424.00,1.7862
3423.00,1.7729
3422.00,1.7601
3421.00,1.7480
3420.00,1.7367
3419.00,1.7262
3418.00,1.7163
3417.00,1.7071
3416.00,1.6985
3415.00,1.6907
3414.00,1.6835
3413.00,1.6770
3412.00,1.6711
3411.00,1.6656
3410.00,1.6605
3409.00,1.6558
3408.00,1.6514
3407.00,1.6472
3406.00,1.6427
3405.00,1.6379
3404.00,1.6326
3403.00,1.6269
3402.00,1.6210
3401.00,1.6152
3400.00,1.6093
3399.00,1.6036
3398.00,1.5984
3397.00,1.5940
3396.00,1.5906
3395.00,1.5880
3394.00,1.5863
3393.00,1.5856
3392.00,1.5861
3391.00,1.5881
3390.00,1.5916
3389.00,1.5966
3388.00,1.6030
3387.00,1.6104
3386.00,1.6188
3385.00,1.6281
3384.00,1.6384
3383.00,1.6496
3382.00,1.6618
3381.00,1.6747
3380.00,1.6883
3379.00,1.7024
3378.00,1.7171
3377.00,1.7322
3376.00,1.7477
3375.00,1.7634
3374.00,1.7791
3373.00,1.7947
3372.00,1.8101
3371.00,1.8255
3370.00,1.8409
3369.00,1.8565
3368.00,1.8719
3367.00,1.8868
3366.00,1.9011
3365.00,1.9147
3364.00,1.9281
3363.00,1.9413
3362.00,1.9543
3361.00,1.9669
3360.00,1.9788
3359.00,1.9902
3358.00,2.0012
3357.00,2.0123
3356.00,2.0233
3355.00,2.0337
3354.00,2.0431
3353.00,2.0518
3352.00,2.0600
3351.00,2.0679
3350.00,2.0755
3349.00,2.0823
3348.00,2.0884
3347.00,2.0939
3346.00,2.0990
3345.00,2.1042
3344.00,2.1094
3343.00,2.1143
3342.00,2.1185
3341.00,2.1220
3340.00,2.1250
3339.00,2.1273
3338.00,2.1288
3337.00,2.1294
3336.00,2.1295
3335.00,2.1293
3334.00,2.1291
3333.00,2.1287
3332.00,2.1278
3331.00,2.1261
3330.00,2.1237
3329.00,2.1204
3328.00,2.1167
3327.00,2.1129
3326.00,2.1093
3325.00,2.1058
3324.00,2.1017
3323.00,2.0965
3322.00,2.0901
3321.00,2.0830
3320.00,2.0754
3319.00,2.0675
3318.00,2.0596
3317.00,2.0514
3316.00,2.0429
3315.00,2.0339
3314.00,2.0240
3313.00,2.0133
3312.00,2.0020
3311.00,1.9904
3310.00,1.9785
3309.00,1.9663
3308.00,1.9535
3307.00,1.9401
3306.00,1.9259
3305.00,1.9109
3304.00,1.8952
3303.00,1.8789
3302.00,1.8621
3301.00,1.8451
3300.00,1.8277
3299.00,1.8098
3298.00,1.7914
3297.00,1.7727
3296.00,1.7538
3295.00,1.7350
3294.00,1.7162
3293.00,1.6975
3292.00,1.6786
3291.00,1.6596
3290.00,1.6409
3289.00,1.6225
3288.00,1.6046
3287.00,1.5871
3286.00,1.5702
3285.00,1.5540
3284.00,1.5389
3283.00,1.5250
3282.00,1.5123
3281.00,1.5011
3280.00,1.4913
3279.00,1.4830
3278.00,1.4762
3277.00,1.4710
3276.00,1.4675
3275.00,1.4656
3274.00,1.4654
3273.00,1.4669
3272.00,1.4700
3271.00,1.4748
3270.00,1.4812
3269.00,1.4892
3268.00,1.4988
3267.00,1.5098
3266.00,1.5220
3265.00,1.5351
3264.00,1.5491
3263.00,1.5640
3262.00,1.5798
3261.00,1.5963
3260.00,1.6136
3259.00,1.6314
3258.00,1.6496
3257.00,1.6681
3256.00,1.6870
3255.00,1.7062
3254.00,1.7253
3253.00,1.7443
3252.00,1.7630
3251.00,1.7817
3250.00,1.8002
3249.00,1.8186
3248.00,1.8367
3247.00,1.8544
3246.00,1.8717
3245.00,1.8885
3244.00,1.9051
3243.00,1.9214
3242.00,1.9374
3241.00,1.9530
3240.00,1.9680
3239.00,1.9825
3238.00,1.9964
3237.00,2.0099
3236.00,2.0228
3235.00,2.0350
3234.00,2.0469
3233.00,2.0585
3232.00,2.0699
3231.00,2.0807
3230.00,2.0911
3229.00,2.1011
3228.00,2.1106
3227.00,2.1191
3226.00,2.1266
3225.00,2.1337
3224.00,2.1407
3223.00,2.1478
3222.00,2.1546
3221.00,2.1609
3220.00,2.1666
3219.00,2.1717
3218.00,2.1760
3217.00,2.1798
3216.00,2.1830
3215.00,2.1856
3214.00,2.1879
3213.00,2.1901
3212.00,2.1923
3211.00,2.1942
3210.00,2.1955
3209.00,2.1963
3208.00,2.1967
3207.00,2.1967
3206.00,2.1964
3205.00,2.1957
3204.00,2.1944
3203.00,2.1919
3202.00,2.1883
3201.00,2.1839
3200.00,2.1795
3199.00,2.1751
3198.00,2.1707
3197.00,2.1659
3196.00,2.1604
3195.00,2.1540
3194.00,2.1467
3193.00,2.1389
3192.00,2.1311
3191.00,2.1229
3190.00,2.1142
3189.00,2.1052
3188.00,2.0963
3187.00,2.0872
3186.00,2.0774
3185.00,2.0666
3184.00,2.0552
3183.00,2.0434
3182.00,2.0310
3181.00,2.0180
3180.00,2.0044
3179.00,1.9906
3178.00,1.9764
3177.00,1.9617
3176.00,1.9464
3175.00,1.9302
3174.00,1.9133
3173.00,1.8958
3172.00,1.8781
3171.00,1.8604
3170.00,1.8426
3169.00,1.8247
3168.00,1.8065
3167.00,1.7882
3166.00,1.7698
3165.00,1.7514
3164.00,1.7332
3163.00,1.7152
3162.00,1.6974
3161.00,1.6801
3160.00,1.6632
3159.00,1.6469
3158.00,1.6314
3157.00,1.6168
3156.00,1.6033
3155.00,1.5912
3154.00,1.5805
3153.00,1.5714
3152.00,1.5638
3151.00,1.5577
3150.00,1.5532
3149.00,1.5503
3148.00,1.5491
3147.00,1.5496
3146.00,1.5516
3145.00,1.5554
3144.00,1.5609
3143.00,1.5681
3142.00,1.5769
3141.00,1.5871
3140.00,1.5987
3139.00,1.6117
3138.00,1.6259
3137.00,1.6413
3136.00,1.6576
3135.00,1.6746
3134.00,1.6920
3133.00,1.7098
3132.00,1.7281
3131.00,1.7470
3130.00,1.7663
3129.00,1.7860
3128.00,1.8057
3127.00,1.8254
3126.00,1.8448
3125.00,1.8640
3124.00,1.8829
3123.00,1.9015
3122.00,1.9199
3121.00,1.9381
3120.00,1.9561
3119.00,1.9737
3118.00,1.9908
3117.00,2.0071
3116.00,2.0228
3115.00,2.0377
3114.00,2.0517
3113.00,2.0649
3112.00,2.0777
3111.00,2.0906
3110.00,2.1036
3109.00,2.1162
3108.00,2.1278
3107.00,2.1380
3106.00,2.1475
3105.00,2.1569
3104.00,2.1667
3103.00,2.1765
3102.00,2.1857
3101.00,2.1943
3100.00,2.2022
3099.00,2.2096
3098.00,2.2162
3097.00,2.2219
3096.00,2.2269
3095.00,2.2314
3094.00,2.2355
3093.00,2.2392
3092.00,2.2425
3091.00,2.2454
3090.00,2.2481
3089.00,2.2505
3088.00,2.2526
3087.00,2.2541
3086.00,2.2550
3085.00,2.2552
3084.00,2.2547
3083.00,2.2535
3082.00,2.2513
3081.00,2.2480
3080.00,2.2436
3079.00,2.2386
3078.00,2.2334
3077.00,2.2283
3076.00,2.2232
3075.00,2.2175
3074.00,2.2108
3073.00,2.2029
3072.00,2.1939
3071.00,2.1842
3070.00,2.1738
3069.00,2.1630
3068.00,2.1518
3067.00,2.1400
3066.00,2.1274
3065.00,2.1143
3064.00,2.1011
3063.00,2.0876
3062.00,2.0733
3061.00,2.0579
3060.00,2.0415
3059.00,2.0242
3058.00,2.0064
3057.00,1.9881
3056.00,1.9693
3055.00,1.9499
3054.00,1.9298
3053.00,1.9094
3052.00,1.8891
3051.00,1.8689
3050.00,1.8482
3049.00,1.8267
3048.00,1.8048
3047.00,1.7829
3046.00,1.7617
3045.00,1.7413
3044.00,1.7220
3043.00,1.7040
3042.00,1.6874
3041.00,1.6728
3040.00,1.6602
3039.00,1.6501
3038.00,1.6425
3037.00,1.6375
3036.00,1.6353
3035.00,1.6358
3034.00,1.6392
3033.00,1.6456
3032.00,1.6548
3031.00,1.6667
3030.00,1.6810
3029.00,1.6974
3028.00,1.7159
3027.00,1.7362
3026.00,1.7580
3025.00,1.7811
3024.00,1.8053
3023.00,1.8303
3022.00,1.8557
3021.00,1.8812
3020.00,1.9067
3019.00,1.9324
3018.00,1.9583
3017.00,1.9846
3016.00,2.0108
3015.00,2.0366
3014.00,2.0617
3013.00,2.0862
3012.00,2.1100
3011.00,2.1330
3010.00,2.1553
3009.00,2.1771
3008.00,2.1986
3007.00,2.2196
3006.00,2.2395
3005.00,2.2579
3004.00,2.2749
3003.00,2.2908
3002.00,2.3053
3001.00,2.3183
3000.00,2.3296
2999.00,2.3397
2998.00,2.3485
2997.00,2.3562
2996.00,2.3630
2995.00,2.3694
2994.00,2.3748
2993.00,2.3784
2992.00,2.3797
2991.00,2.3791
2990.00,2.3777
2989.00,2.3763
2988.00,2.3752
2987.00,2.3748
2986.00,2.3752
2985.00,2.3766
2984.00,2.3786
2983.00,2.3814
2982.00,2.3865
2981.00,2.3957
2980.00,2.4108
2979.00,2.4326
2978.00,2.4616
2977.00,2.4982
2976.00,2.5427
2975.00,2.5949
2974.00,2.6538
2973.00,2.7182
2972.00,2.7875
2971.00,2.8627
2970.00,2.9454
2969.00,3.0363
2968.00,3.1344
2967.00,3.2379
2966.00,3.3456
2965.00,3.4551
2964.00,3.5600
2963.00,3.6545
2962.00,3.7402
2961.00,3.8227
2960.00,3.8962
2959.00,3.9483
2958.00,3.9835
2957.00,4.0207
2956.00,4.0683
2955.00,4.1206
2954.00,4.1798
2953.00,4.2638
2952.00,4.3738
2951.00,4.4578
2950.00,4.4509
2949.00,4.3878
2948.00,4.3444
2947.00,4.3570
2946.00,4.4430
2945.00,4.6161
2944.00,4.8454
2943.00,4.9307
2942.00,4.7374
2941.00,4.4907
2940.00,4.2904
2939.00,4.1518
2938.00,4.0845
2937.00,4.0940
2936.00,4.1611
2935.00,4.2185
2934.00,4.1984
2933.00,4.1439
2932.00,4.1355
2931.00,4.2036
2930.00,4.3393
2929.00,4.5148
2928.00,4.6410
2927.00,4.5450
2926.00,4.3363
2925.00,4.1887
2924.00,4.1311
2923.00,4.1077
2922.00,4.0539
2921.00,3.9791
2920.00,3.9145
2919.00,3.8505
2918.00,3.7582
2917.00,3.6499
2916.00,3.5574
2915.00,3.4895
2914.00,3.4339
2913.00,3.3798
2912.00,3.3293
2911.00,3.2898
2910.00,3.2609
2909.00,3.2354
2908.00,3.2071
2907.00,3.1777
2906.00,3.1529
2905.00,3.1347
2904.00,3.1197
2903.00,3.1026
2902.00,3.0807
2901.00,3.0557
2900.00,3.0309
2899.00,3.0083
2898.00,2.9876
2897.00,2.9676
2896.00,2.9481
2895.00,2.9301
2894.00,2.9148
2893.00,2.9029
2892.00,2.8937
2891.00,2.8863
2890.00,2.8797
2889.00,2.8733
2888.00,2.8670
2887.00,2.8616
2886.00,2.8583
2885.00,2.8578
2884.00,2.8594
2883.00,2.8624
2882.00,2.8673
2881.00,2.8761
2880.00,2.8914
2879.00,2.9152
2878.00,2.9476
2877.00,2.9862
2876.00,3.0273
2875.00,3.0701
2874.00,3.1194
2873.00,3.1809
2872.00,3.2542
2871.00,3.3303
2870.00,3.4000
2869.00,3.4645
2868.00,3.5326
2867.00,3.6090
2866.00,3.6898
2865.00,3.7663
2864.00,3.8250
2863.00,3.8483
2862.00,3.8309
2861.00,3.7865
2860.00,3.7278
2859.00,3.6573
2858.00,3.5791
2857.00,3.5006
2856.00,3.4223
2855.00,3.3376
2854.00,3.2432
2853.00,3.1449
2852.00,3.0512
2851.00,2.9673
2850.00,2.8939
2849.00,2.8291
2848.00,2.7700
2847.00,2.7143
2846.00,2.6613
2845.00,2.6117
2844.00,2.5666
2843.00,2.5255
2842.00,2.4864
2841.00,2.4477
2840.00,2.4088
2839.00,2.3700
2838.00,2.3317
2837.00,2.2943
2836.00,2.2580
2835.00,2.2231
2834.00,2.1896
2833.00,2.1577
2832.00,2.1273
2831.00,2.0983
2830.00,2.0706
2829.00,2.0439
2828.00,2.0181
2827.00,1.9929
2826.00,1.9677
2825.00,1.9422
2824.00,1.9166
2823.00,1.8915
2822.00,1.8676
2821.00,1.8456
2820.00,1.8264
2819.00,1.8105
2818.00,1.7986
2817.00,1.7912
2816.00,1.7887
2815.00,1.7914
2814.00,1.7990
2813.00,1.8112
2812.00,1.8272
2811.00,1.8465
2810.00,1.8683
2809.00,1.8919
2808.00,1.9170
2807.00,1.9433
2806.00,1.9706
2805.00,1.9984
2804.00,2.0263
2803.00,2.0538
2802.00,2.0805
2801.00,2.1064
2800.00,2.1312
2799.00,2.1548
2798.00,2.1771
2797.00,2.1980
2796.00,2.2170
2795.00,2.2341
2794.00,2.2494
2793.00,2.2638
2792.00,2.2778
2791.00,2.2916
2790.00,2.3051
2789.00,2.3180
2788.00,2.3301
2787.00,2.3414
2786.00,2.3516
2785.00,2.3608
2784.00,2.3688
2783.00,2.3760
2782.00,2.3828
2781.00,2.3891
2780.00,2.3943
2779.00,2.3982
2778.00,2.4011
2777.00,2.4034
2776.00,2.4052
2775.00,2.4064
2774.00,2.4074
2773.00,2.4084
2772.00,2.4089
2771.00,2.4079
2770.00,2.4055
2769.00,2.4022
2768.00,2.3984
2767.00,2.3940
2766.00,2.3890
2765.00,2.3836
2764.00,2.3781
2763.00,2.3721
2762.00,2.3648
2761.00,2.3558
2760.00,2.3453
2759.00,2.3337
2758.00,2.3214
2757.00,2.3089
2756.00,2.2961
2755.00,2.2824
2754.00,2.2675
2753.00,2.2511
2752.00,2.2336
2751.00,2.2152
2750.00,2.1958
2749.00,2.1751
2748.00,2.1531
2747.00,2.1300
2746.00,2.1061
2745.00,2.0812
2744.00,2.0549
2743.00,2.0268
2742.00,1.9970
2741.00,1.9661
2740.00,1.9343
2739.00,1.9015
2738.00,1.8675
2737.00,1.8322
2736.00,1.7956
2735.00,1.7582
2734.00,1.7204
2733.00,1.6824
2732.00,1.6444
2731.00,1.6065
2730.00,1.5692
2729.00,1.5330
2728.00,1.4987
2727.00,1.4667
2726.00,1.4376
2725.00,1.4120
2724.00,1.3905
2723.00,1.3737
2722.00,1.3619
2721.00,1.3554
2720.00,1.3543
2719.00,1.3583
2718.00,1.3674
2717.00,1.3811
2716.00,1.3990
2715.00,1.4207
2714.00,1.4458
2713.00,1.4737
2712.00,1.5039
2711.00,1.5361
2710.00,1.5697
2709.00,1.6044
2708.00,1.6398
2707.00,1.6758
2706.00,1.7121
2705.00,1.7486
2704.00,1.7849
2703.00,1.8210
2702.00,1.8567
2701.00,1.8919
2700.00,1.9262
2699.00,1.9591
2698.00,1.9905
2697.00,2.0206
2696.00,2.0497
2695.00,2.0778
2694.00,2.1045
2693.00,2.1300
2692.00,2.1546
2691.00,2.1789
2690.00,2.2027
2689.00,2.2254
2688.00,2.2464
2687.00,2.2660
2686.00,2.2848
2685.00,2.3034
2684.00,2.3212
2683.00,2.3374
2682.00,2.3518
2681.00,2.3650
2680.00,2.3778
2679.00,2.3903
2678.00,2.4025
2677.00,2.4134
2676.00,2.4224
2675.00,2.4297
2674.00,2.4364
2673.00,2.4437
2672.00,2.4512
2671.00,2.4577
2670.00,2.4623
2669.00,2.4655
2668.00,2.4683
2667.00,2.4711
2666.00,2.4741
2665.00,2.4771
2664.00,2.4795
2663.00,2.4807
2662.00,2.4810
2661.00,2.4816
2660.00,2.4832
2659.00,2.4855
2658.00,2.4871
2657.00,2.4874
2656.00,2.4861
2655.00,2.4837
2654.00,2.4805
2653.00,2.4769
2652.00,2.4737
2651.00,2.4708
2650.00,2.4681
2649.00,2.4650
2648.00,2.4609
2647.00,2.4555
2646.00,2.4486
2645.00,2.4408
2644.00,2.4326
2643.00,2.4239
2642.00,2.4145
2641.00,2.4045
2640.00,2.3939
2639.00,2.3829
2638.00,2.3714
2637.00,2.3593
2636.00,2.3464
2635.00,2.3323
2634.00,2.3165
2633.00,2.2996
2632.00,2.2822
2631.00,2.2648
2630.00,2.2472
2629.00,2.2286
2628.00,2.2085
2627.00,2.1864
2626.00,2.1625
2625.00,2.1372
2624.00,2.1111
2623.00,2.0851
2622.00,2.0590
2621.00,2.0325
2620.00,2.0050
2619.00,1.9762
2618.00,1.9462
2617.00,1.9156
2616.00,1.8845
2615.00,1.8527
2614.00,1.8201
2613.00,1.7867
2612.00,1.7528
2611.00,1.7183
2610.00,1.6835
2609.00,1.6485
2608.00,1.6134
2607.00,1.5787
2606.00,1.5449
2605.00,1.5124
2604.00,1.4821
2603.00,1.4545
2602.00,1.4305
2601.00,1.4105
2600.00,1.3952
2599.00,1.3849
2598.00,1.3799
2597.00,1.3805
2596.00,1.3865
2595.00,1.3978
2594.00,1.4141
2593.00,1.4347
2592.00,1.4592
2591.00,1.4869
2590.00,1.5173
2589.00,1.5498
2588.00,1.5837
2587.00,1.6186
2586.00,1.6541
2585.00,1.6899
2584.00,1.7262
2583.00,1.7626
2582.00,1.7988
2581.00,1.8344
2580.00,1.8694
2579.00,1.9040
2578.00,1.9382
2577.00,1.9718
2576.00,2.0042
2575.00,2.0353
2574.00,2.0651
2573.00,2.0934
2572.00,2.1206
2571.00,2.1466
2570.00,2.1716
2569.00,2.1958
2568.00,2.2190
2567.00,2.2412
2566.00,2.2624
2565.00,2.2827
2564.00,2.3019
2563.00,2.3198
2562.00,2.3363
2561.00,2.3519
2560.00,2.3673
2559.00,2.3827
2558.00,2.3977
2557.00,2.4117
2556.00,2.4243
2555.00,2.4356
2554.00,2.4465
2553.00,2.4574
2552.00,2.4684
2551.00,2.4789
2550.00,2.4884
2549.00,2.4969
2548.00,2.5047
2547.00,2.5116
2546.00,2.5175
2545.00,2.5224
2544.00,2.5271
2543.00,2.5323
2542.00,2.5379
2541.00,2.5434
2540.00,2.5483
2539.00,2.5524
2538.00,2.5553
2537.00,2.5566
2536.00,2.5566
2535.00,2.5561
2534.00,2.5560
2533.00,2.5561
2532.00,2.5558
2531.00,2.5546
2530.00,2.5530
2529.00,2.5510
2528.00,2.5482
2527.00,2.5443
2526.00,2.5400
2525.00,2.5360
2524.00,2.5321
2523.00,2.5275
2522.00,2.5212
2521.00,2.5133
2520.00,2.5043
2519.00,2.4949
2518.00,2.4858
2517.00,2.4770
2516.00,2.4679
2515.00,2.4581
2514.00,2.4472
2513.00,2.4349
2512.00,2.4214
2511.00,2.4070
2510.00,2.3921
2509.00,2.3768
2508.00,2.3604
2507.00,2.3427
2506.00,2.3241
2505.00,2.3049
2504.00,2.2852
2503.00,2.2646
2502.00,2.2429
2501.00,2.2198
2500.00,2.1950
2499.00,2.1684
2498.00,2.1401
2497.00,2.1105
2496.00,2.0795
2495.00,2.0470
2494.00,2.0130
2493.00,1.9776
2492.00,1.9406
2491.00,1.9018
2490.00,1.8609
2489.00,1.8183
2488.00,1.7745
2487.00,1.7299
2486.00,1.6849
2485.00,1.6397
2484.00,1.5946
2483.00,1.5505
2482.00,1.5079
2481.00,1.4678
2480.00,1.4310
2479.00,1.3980
2478.00,1.3697
2477.00,1.3466
2476.00,1.3294
2475.00,1.3185
2474.00,1.3141
2473.00,1.3162
2472.00,1.3247
2471.00,1.3393
2470.00,1.3594
2469.00,1.3844
2468.00,1.4134
2467.00,1.4456
2466.00,1.4801
2465.00,1.5166
2464.00,1.5546
2463.00,1.5938
2462.00,1.6340
2461.00,1.6745
2460.00,1.7152
2459.00,1.7558
2458.00,1.7963
2457.00,1.8366
2456.00,1.8765
2455.00,1.9157
2454.00,1.9541
2453.00,1.9915
2452.00,2.0277
2451.00,2.0625
2450.00,2.0957
2449.00,2.1274
2448.00,2.1576
2447.00,2.1863
2446.00,2.2136
2445.00,2.2399
2444.00,2.2651
2443.00,2.2889
2442.00,2.3118
2441.00,2.3341
2440.00,2.3561
2439.00,2.3771
2438.00,2.3969
2437.00,2.4153
2436.00,2.4329
2435.00,2.4498
2434.00,2.4660
2433.00,2.4811
2432.00,2.4949
2431.00,2.5072
2430.00,2.5184
2429.00,2.5289
2428.00,2.5391
2427.00,2.5492
2426.00,2.5595
2425.00,2.5694
2424.00,2.5778
2423.00,2.5841
2422.00,2.5895
2421.00,2.5953
2420.00,2.6016
2419.00,2.6075
2418.00,2.6127
2417.00,2.6182
2416.00,2.6241
2415.00,2.6296
2414.00,2.6335
2413.00,2.6358
2412.00,2.6366
2411.00,2.6359
2410.00,2.6338
2409.00,2.6316
2408.00,2.6307
2407.00,2.6314
2406.00,2.6325
2405.00,2.6322
2404.00,2.6297
2403.00,2.6256
2402.00,2.6210
2401.00,2.6165
2400.00,2.6119
2399.00,2.6070
2398.00,2.6023
2397.00,2.5979
2396.00,2.5936
2395.00,2.5879
2394.00,2.5804
2393.00,2.5719
2392.00,2.5621
2391.00,2.5530
2390.00,2.5405
2389.00,2.5319
2388.00,2.5148
2387.00,2.5119
2386.00,2.4738
2385.00,2.3837
2384.00,2.3477
2383.00,2.2964
2382.00,2.2483
2381.00,2.1997
2380.00,2.1568
2379.00,2.1189
2378.00,2.0865
2377.00,2.0592
2376.00,2.0367
2375.00,2.0176
2374.00,1.9998
2373.00,1.9806
2372.00,1.9592
2371.00,1.9366
2370.00,1.9136
2369.00,1.8904
2368.00,1.8680
2367.00,1.8485
2366.00,1.8311
2365.00,1.8143
2364.00,1.7998
2363.00,1.7863
2362.00,1.7710
2361.00,1.7543
2360.00,1.7362
2359.00,1.7210
2358.00,1.7109
2357.00,1.7034
2356.00,1.6994
2355.00,1.6954
2354.00,1.6873
2353.00,1.6696
2352.00,1.6513
2351.00,1.6485
2350.00,1.6552
2349.00,1.6548
2348.00,1.6384
2347.00,1.6216
2346.00,1.6242
2345.00,1.6419
2344.00,1.6616
2343.00,1.6671
2342.00,1.6640
2341.00,1.6620
2340.00,1.6653
2339.00,1.6735
2338.00,1.6810
2337.00,1.6872
2336.00,1.6911
2335.00,1.6959
2334.00,1.7002
2333.00,1.7060
2332.00,1.7118
2331.00,1.7257
2330.00,1.7422
2329.00,1.7671
2328.00,1.7937
2327.00,1.8210
2326.00,1.8439
2325.00,1.8622
2324.00,1.8830
2323.00,1.9077
2322.00,1.9365
2321.00,1.9646
2320.00,1.9897
2319.00,2.0151
2318.00,2.0401
2317.00,2.0674
2316.00,2.0919
2315.00,2.1154
2314.00,2.1344
2313.00,2.1539
2312.00,2.1731
2311.00,2.1964
2310.00,2.2210
2309.00,2.2483
2308.00,2.2753
2307.00,2.3034
2306.00,2.3312
2305.00,2.3600
2304.00,2.3885
2303.00,2.4171
2302.00,2.4436
2301.00,2.4696
2300.00,2.4950
2299.00,2.5217
2298.00,2.5476
2297.00,2.5725
2296.00,2.5955
2295.00,2.6188
2294.00,2.6427
2293.00,2.6648
2292.00,2.6807
2291.00,2.6884
2290.00,2.6903
2289.00,2.6900
2288.00,2.6903
2287.00,2.6916
2286.00,2.6939
2285.00,2.6969
2284.00,2.7001
2283.00,2.7036
2282.00,2.7080
2281.00,2.7138
2280.00,2.7201
2279.00,2.7251
2278.00,2.7275
2277.00,2.7280
2276.00,2.7274
2275.00,2.7260
2274.00,2.7236
2273.00,2.7205
2272.00,2.7168
2271.00,2.7115
2270.00,2.7034
2269.00,2.6927
2268.00,2.6815
2267.00,2.6713
2266.00,2.6620
2265.00,2.6526
2264.00,2.6425
2263.00,2.6317
2262.00,2.6197
2261.00,2.6058
2260.00,2.5896
2259.00,2.5720
2258.00,2.5542
2257.00,2.5369
2256.00,2.5194
2255.00,2.5007
2254.00,2.4808
2253.00,2.4606
2252.00,2.4402
2251.00,2.4191
2250.00,2.3963
2249.00,2.3716
2248.00,2.3455
2247.00,2.3186
2246.00,2.2905
2245.00,2.2609
2244.00,2.2296
2243.00,2.1964
2242.00,2.1613
2241.00,2.1242
2240.00,2.0848
2239.00,2.0431
2238.00,1.9990
2237.00,1.9527
2236.00,1.9043
2235.00,1.8546
2234.00,1.8038
2233.00,1.7525
2232.00,1.7011
2231.00,1.6504
2230.00,1.6014
2229.00,1.5554
2228.00,1.5132
2227.00,1.4759
2226.00,1.4441
2225.00,1.4187
2224.00,1.4004
2223.00,1.3897
2222.00,1.3870
2221.00,1.3923
2220.00,1.4054
2219.00,1.4257
2218.00,1.4526
2217.00,1.4853
2216.00,1.5229
2215.00,1.5643
2214.00,1.6084
2213.00,1.6544
2212.00,1.7015
2211.00,1.7489
2210.00,1.7962
2209.00,1.8432
2208.00,1.8897
2207.00,1.9359
2206.00,1.9816
2205.00,2.0264
2204.00,2.0699
2203.00,2.1117
2202.00,2.1517
2201.00,2.1900
2200.00,2.2267
2199.00,2.2615
2198.00,2.2946
2197.00,2.3263
2196.00,2.3566
2195.00,2.3856
2194.00,2.4134
2193.00,2.4408
2192.00,2.4678
2191.00,2.4931
2190.00,2.5156
2189.00,2.5357
2188.00,2.5549
2187.00,2.5741
2186.00,2.5930
2185.00,2.6112
2184.00,2.6281
2183.00,2.6433
2182.00,2.6566
2181.00,2.6686
2180.00,2.6807
2179.00,2.6938
2178.00,2.7069
2177.00,2.7186
2176.00,2.7282
2175.00,2.7365
2174.00,2.7443
2173.00,2.7521
2172.00,2.7595
2171.00,2.7662
2170.00,2.7723
2169.00,2.7786
2168.00,2.7856
2167.00,2.7929
2166.00,2.7999
2165.00,2.8062
2164.00,2.8113
2163.00,2.8154
2162.00,2.8181
2161.00,2.8192
2160.00,2.8182
2159.00,2.8153
2158.00,2.8116
2157.00,2.8091
2156.00,2.8089
2155.00,2.8108
2154.00,2.8132
2153.00,2.8150
2152.00,2.8155
2151.00,2.8142
2150.00,2.8107
2149.00,2.8046
2148.00,2.7961
2147.00,2.7870
2146.00,2.7795
2145.00,2.7750
2144.00,2.7721
2143.00,2.7679
2142.00,2.7607
2141.00,2.7516
2140.00,2.7421
2139.00,2.7323
2138.00,2.7213
2137.00,2.7091
2136.00,2.6960
2135.00,2.6826
2134.00,2.6691
2133.00,2.6556
2132.00,2.6419
2131.00,2.6274
2130.00,2.6113
2129.00,2.5933
2128.00,2.5737
2127.00,2.5526
2126.00,2.5304
2125.00,2.5070
2124.00,2.4826
2123.00,2.4568
2122.00,2.4298
2121.00,2.4016
2120.00,2.3726
2119.00,2.3427
2118.00,2.3114
2117.00,2.2778
2116.00,2.2414
2115.00,2.2023
2114.00,2.1605
2113.00,2.1166
2112.00,2.0706
2111.00,2.0226
2110.00,1.9730
2109.00,1.9221
2108.00,1.8704
2107.00,1.8183
2106.00,1.7663
2105.00,1.7157
2104.00,1.6677
2103.00,1.6236
2102.00,1.5842
2101.00,1.5506
2100.00,1.5234
2099.00,1.5033
2098.00,1.4907
2097.00,1.4858
2096.00,1.4885
2095.00,1.4987
2094.00,1.5161
2093.00,1.5403
2092.00,1.5703
2091.00,1.6048
2090.00,1.6427
2089.00,1.6833
2088.00,1.7263
2087.00,1.7712
2086.00,1.8175
2085.00,1.8648
2084.00,1.9130
2083.00,1.9614
2082.00,2.0097
2081.00,2.0577
2080.00,2.1052
2079.00,2.1518
2078.00,2.1970
2077.00,2.2404
2076.00,2.2819
2075.00,2.3216
2074.00,2.3595
2073.00,2.3954
2072.00,2.4291
2071.00,2.4603
2070.00,2.4897
2069.00,2.5179
2068.00,2.5452
2067.00,2.5711
2066.00,2.5944
2065.00,2.6140
2064.00,2.6305
2063.00,2.6459
2062.00,2.6626
2061.00,2.6813
2060.00,2.7011
2059.00,2.7200
2058.00,2.7370
2057.00,2.7517
2056.00,2.7646
2055.00,2.7758
2054.00,2.7859
2053.00,2.7955
2052.00,2.8050
2051.00,2.8148
2050.00,2.8250
2049.00,2.8350
2048.00,2.8434
2047.00,2.8505
2046.00,2.8583
2045.00,2.8693
2044.00,2.8824
2043.00,2.8934
2042.00,2.8991
2041.00,2.9004
2040.00,2.9008
2039.00,2.9023
2038.00,2.9042
2037.00,2.9051
2036.00,2.9041
2035.00,2.9023
2034.00,2.9014
2033.00,2.9030
2032.00,2.9072
2031.00,2.9128
2030.00,2.9177
2029.00,2.9205
2028.00,2.9198
2027.00,2.9152
2026.00,2.9080
2025.00,2.9007
2024.00,2.8946
2023.00,2.8896
2022.00,2.8850
2021.00,2.8812
2020.00,2.8783
2019.00,2.8755
2018.00,2.8710
2017.00,2.8633
2016.00,2.8521
2015.00,2.8380
2014.00,2.8228
2013.00,2.8085
2012.00,2.7959
2011.00,2.7840
2010.00,2.7709
2009.00,2.7557
2008.00,2.7389
2007.00,2.7214
2006.00,2.7037
2005.00,2.6857
2004.00,2.6667
2003.00,2.6465
2002.00,2.6250
2001.00,2.6024
2000.00,2.5785
1999.00,2.5524
1998.00,2.5235
1997.00,2.4925
1996.00,2.4616
1995.00,2.4316
1994.00,2.4004
1993.00,2.3651
1992.00,2.3247
1991.00,2.2809
1990.00,2.2357
1989.00,2.1893
1988.00,2.1408
1987.00,2.0902
1986.00,2.0382
1985.00,1.9861
1984.00,1.9342
1983.00,1.8832
1982.00,1.8338
1981.00,1.7869
1980.00,1.7434
1979.00,1.7043
1978.00,1.6702
1977.00,1.6417
1976.00,1.6191
1975.00,1.6029
1974.00,1.5934
1973.00,1.5910
1972.00,1.5964
1971.00,1.6105
1970.00,1.6336
1969.00,1.6641
1968.00,1.6994
1967.00,1.7377
1966.00,1.7792
1965.00,1.8245
1964.00,1.8732
1963.00,1.9240
1962.00,1.9753
1961.00,2.0264
1960.00,2.0773
1959.00,2.1276
1958.00,2.1773
1957.00,2.2258
1956.00,2.2727
1955.00,2.3175
1954.00,2.3603
1953.00,2.4010
1952.00,2.4392
1951.00,2.4743
1950.00,2.5073
1949.00,2.5390
1948.00,2.5698
1947.00,2.5999
1946.00,2.6295
1945.00,2.6593
1944.00,2.6875
1943.00,2.7109
1942.00,2.7286
1941.00,2.7443
1940.00,2.7625
1939.00,2.7842
1938.00,2.8062
1937.00,2.8244
1936.00,2.8384
1935.00,2.8499
1934.00,2.8613
1933.00,2.8736
1932.00,2.8863
1931.00,2.8988
1930.00,2.9108
1929.00,2.9219
1928.00,2.9321
1927.00,2.9422
1926.00,2.9536
1925.00,2.9663
1924.00,2.9765
1923.00,2.9807
1922.00,2.9800
1921.00,2.9799
1920.00,2.9844
1919.00,2.9918
1918.00,2.9982
1917.00,3.0032
1916.00,3.0080
1915.00,3.0116
1914.00,3.0113
1913.00,3.0072
1912.00,3.0025
1911.00,2.9997
1910.00,2.9987
1909.00,2.9987
1908.00,3.0002
1907.00,3.0026
1906.00,3.0033
1905.00,3.0002
1904.00,2.9937
1903.00,2.9864
1902.00,2.9795
1901.00,2.9729
1900.00,2.9654
1899.00,2.9567
1898.00,2.9474
1897.00,2.9381
1896.00,2.9280
1895.00,2.9156
1894.00,2.9012
1893.00,2.8876
1892.00,2.8767
1891.00,2.8657
1890.00,2.8492
1889.00,2.8262
1888.00,2.8015
1887.00,2.7797
1886.00,2.7602
1885.00,2.7391
1884.00,2.7146
1883.00,2.6884
1882.00,2.6624
1881.00,2.6363
1880.00,2.6090
1879.00,2.5791
1878.00,2.5467
1877.00,2.5126
1876.00,2.4767
1875.00,2.4381
1874.00,2.3969
1873.00,2.3553
1872.00,2.3155
1871.00,2.2759
1870.00,2.2322
1869.00,2.1811
1868.00,2.1234
1867.00,2.0626
1866.00,2.0014
1865.00,1.9412
1864.00,1.8831
1863.00,1.8284
1862.00,1.7785
1861.00,1.7354
1860.00,1.7016
1859.00,1.6791
1858.00,1.6690
1857.00,1.6723
1856.00,1.6889
1855.00,1.7180
1854.00,1.7572
1853.00,1.8046
1852.00,1.8599
1851.00,1.9211
1850.00,1.9840
1849.00,2.0448
1848.00,2.1046
1847.00,2.1677
1846.00,2.2360
1845.00,2.3045
1844.00,2.3664
1843.00,2.4200
1842.00,2.4676
1841.00,2.5118
1840.00,2.5537
1839.00,2.5935
1838.00,2.6320
1837.00,2.6697
1836.00,2.7054
1835.00,2.7366
1834.00,2.7632
1833.00,2.7897
1832.00,2.8206
1831.00,2.8541
1830.00,2.8844
1829.00,2.9098
1828.00,2.9337
1827.00,2.9576
1826.00,2.9780
1825.00,2.9926
1824.00,3.0046
1823.00,3.0177
1822.00,3.0311
1821.00,3.0426
1820.00,3.0525
1819.00,3.0625
1818.00,3.0730
1817.00,3.0825
1816.00,3.0904
1815.00,3.0964
1814.00,3.1016
1813.00,3.1086
1812.00,3.1190
1811.00,3.1315
1810.00,3.1420
1809.00,3.1468
1808.00,3.1464
1807.00,3.1447
1806.00,3.1450
1805.00,3.1476
1804.00,3.1509
1803.00,3.1515
1802.00,3.1462
1801.00,3.1352
1800.00,3.1212
1799.00,3.1062
1798.00,3.0887
1797.00,3.0671
1796.00,3.0451
1795.00,3.0305
1794.00,3.0266
1793.00,3.0254
1792.00,3.0133
1791.00,2.9854
1790.00,2.9483
1789.00,2.9117
1788.00,2.8804
1787.00,2.8508
1786.00,2.8149
1785.00,2.7687
1784.00,2.7173
1783.00,2.6683
1782.00,2.6223
1781.00,2.5753
1780.00,2.5267
1779.00,2.4812
1778.00,2.4421
1777.00,2.4096
1776.00,2.3870
1775.00,2.3814
1774.00,2.3986
1773.00,2.4372
1772.00,2.4916
1771.00,2.5560
1770.00,2.6246
1769.00,2.6886
1768.00,2.7404
1767.00,2.7794
1766.00,2.8126
1765.00,2.8486
1764.00,2.8906
1763.00,2.9348
1762.00,2.9780
1761.00,3.0240
1760.00,3.0781
1759.00,3.1390
1758.00,3.1979
1757.00,3.2467
1756.00,3.2856
1755.00,3.3203
1754.00,3.3564
1753.00,3.3981
1752.00,3.4449
1751.00,3.4915
1750.00,3.5311
1749.00,3.5607
1748.00,3.5853
1747.00,3.6105
1746.00,3.6367
1745.00,3.6625
1744.00,3.6872
1743.00,3.7173
1742.00,3.7685
1741.00,3.8530
1740.00,3.9642
1739.00,4.0824
1738.00,4.1831
1737.00,4.2446
1736.00,4.3028
1735.00,4.4297
1734.00,4.5635
1733.00,4.5083
1732.00,4.4047
1731.00,4.3657
1730.00,4.3888
1729.00,4.5084
1728.00,4.7607
1727.00,5.1247
1726.00,5.1955
1725.00,5.0166
1724.00,4.9204
1723.00,5.1101
1722.00,5.3088
1721.00,4.7643
1720.00,4.5339
1719.00,4.5028
1718.00,4.5073
1717.00,4.4252
1716.00,4.3426
1715.00,4.3484
1714.00,4.4013
1713.00,4.4557
1712.00,4.4601
1711.00,4.3861
1710.00,4.3065
1709.00,4.2944
1708.00,4.3614
1707.00,4.4667
1706.00,4.6113
1705.00,4.8087
1704.00,4.7243
1703.00,4.5479
1702.00,4.4753
1701.00,4.4828
1700.00,4.5875
1699.00,4.5214
1698.00,4.3570
1697.00,4.3440
1696.00,4.4424
1695.00,4.7861
1694.00,5.0191
1693.00,4.4671
1692.00,4.2365
1691.00,4.1091
1690.00,3.9919
1689.00,3.8707
1688.00,3.7475
1687.00,3.6457
1686.00,3.5772
1685.00,3.5425
1684.00,3.5253
1683.00,3.5177
1682.00,3.5125
1681.00,3.4996
1680.00,3.4789
1679.00,3.4616
1678.00,3.4572
1677.00,3.4612
1676.00,3.4576
1675.00,3.4387
1674.00,3.4148
1673.00,3.3994
1672.00,3.3943
1671.00,3.3926
1670.00,3.3864
1669.00,3.3707
1668.00,3.3463
1667.00,3.3160
1666.00,3.2832
1665.00,3.2505
1664.00,3.2178
1663.00,3.1825
1662.00,3.1456
1661.00,3.1112
1660.00,3.0772
1659.00,3.0351
1658.00,2.9791
1657.00,2.9151
1656.00,2.8577
1655.00,2.8215
1654.00,2.8030
1653.00,2.7724
1652.00,2.7216
1651.00,2.6729
1650.00,2.6386
1649.00,2.6218
1648.00,2.6214
1647.00,2.6274
1646.00,2.6292
1645.00,2.6272
1644.00,2.6279
1643.00,2.6342
1642.00,2.6435
1641.00,2.6503
1640.00,2.6521
1639.00,2.6533
1638.00,2.6642
1637.00,2.6940
1636.00,2.7373
1635.00,2.7765
1634.00,2.8022
1633.00,2.8169
1632.00,2.8259
1631.00,2.8339
1630.00,2.8442
1629.00,2.8577
1628.00,2.8728
1627.00,2.8888
1626.00,2.9085
1625.00,2.9356
1624.00,2.9684
1623.00,2.9977
1622.00,3.0156
1621.00,3.0234
1620.00,3.0276
1619.00,3.0361
1618.00,3.0568
1617.00,3.0914
1616.00,3.1319
1615.00,3.1657
1614.00,3.1844
1613.00,3.1911
1612.00,3.1950
1611.00,3.2011
1610.00,3.2092
1609.00,3.2177
1608.00,3.2257
1607.00,3.2312
1606.00,3.2321
1605.00,3.2319
1604.00,3.2362
1603.00,3.2443
1602.00,3.2511
1601.00,3.2563
1600.00,3.2647
1599.00,3.2779
1598.00,3.2904
1597.00,3.2963
1596.00,3.2947
1595.00,3.2880
1594.00,3.2795
1593.00,3.2718
1592.00,3.2636
1591.00,3.2504
1590.00,3.2319
1589.00,3.2157
1588.00,3.2083
1587.00,3.2070
1586.00,3.2032
1585.00,3.1918
1584.00,3.1741
1583.00,3.1505
1582.00,3.1190
1581.00,3.0801
1580.00,3.0403
1579.00,3.0069
1578.00,2.9863
1577.00,2.9774
1576.00,2.9671
1575.00,2.9434
1574.00,2.9084
1573.00,2.8714
1572.00,2.8379
1571.00,2.8067
1570.00,2.7719
1569.00,2.7302
1568.00,2.6851
1567.00,2.6391
1566.00,2.5882
1565.00,2.5268
1564.00,2.4550
1563.00,2.3797
1562.00,2.3100
1561.00,2.2500
1560.00,2.1969
1559.00,2.1366
1558.00,2.0685
1557.00,2.0141
1556.00,1.9801
1555.00,1.9566
1554.00,1.9378
1553.00,1.9296
1552.00,1.9377
1551.00,1.9578
1550.00,1.9827
1549.00,2.0132
1548.00,2.0548
1547.00,2.1077
1546.00,2.1633
1545.00,2.2106
1544.00,2.2474
1543.00,2.2820
1542.00,2.3310
1541.00,2.4074
1540.00,2.4995
1539.00,2.5816
1538.00,2.6450
1537.00,2.6946
1536.00,2.7398
1535.00,2.7892
1534.00,2.8396
1533.00,2.8815
1532.00,2.9130
1531.00,2.9425
1530.00,2.9768
1529.00,3.0131
1528.00,3.0430
1527.00,3.0617
1526.00,3.0709
1525.00,3.0781
1524.00,3.0957
1523.00,3.1342
1522.00,3.1852
1521.00,3.2235
1520.00,3.2393
1519.00,3.2494
1518.00,3.2699
1517.00,3.2955
1516.00,3.3147
1515.00,3.3274
1514.00,3.3359
1513.00,3.3375
1512.00,3.3300
1511.00,3.3187
1510.00,3.3097
1509.00,3.3029
1508.00,3.2999
1507.00,3.3059
1506.00,3.3196
1505.00,3.3333
1504.00,3.3401
1503.00,3.3419
1502.00,3.3419
1501.00,3.3369
1500.00,3.3271
1499.00,3.3221
1498.00,3.3319
1497.00,3.3509
1496.00,3.3612
1495.00,3.3570
1494.00,3.3506
1493.00,3.3512
1492.00,3.3549
1491.00,3.3517
1490.00,3.3372
1489.00,3.3175
1488.00,3.3018
1487.00,3.2955
1486.00,3.2965
1485.00,3.2950
1484.00,3.2815
1483.00,3.2540
1482.00,3.2179
1481.00,3.1811
1480.00,3.1505
1479.00,3.1266
1478.00,3.1017
1477.00,3.0675
1476.00,3.0243
1475.00,2.9822
1474.00,2.9478
1473.00,2.9182
1472.00,2.8903
1471.00,2.8690
1470.00,2.8618
1469.00,2.8711
1468.00,2.8967
1467.00,2.9399
1466.00,2.9996
1465.00,3.0667
1464.00,3.1259
1463.00,3.1653
1462.00,3.1861
1461.00,3.2002
1460.00,3.2239
1459.00,3.2710
1458.00,3.3436
1457.00,3.4291
1456.00,3.5225
1455.00,3.6313
1454.00,3.7601
1453.00,3.9074
1452.00,4.0592
1451.00,4.1779
1450.00,4.2245
1449.00,4.2097
1448.00,4.1647
1447.00,4.0904
1446.00,3.9685
1445.00,3.8126
1444.00,3.6609
1443.00,3.5365
1442.00,3.4407
1441.00,3.3709
1440.00,3.3316
1439.00,3.3292
1438.00,3.3589
1437.00,3.4007
1436.00,3.4366
1435.00,3.4670
1434.00,3.5039
1433.00,3.5560
1432.00,3.6214
1431.00,3.6951
1430.00,3.7789
1429.00,3.8737
1428.00,3.9563
1427.00,3.9842
1426.00,3.9578
1425.00,3.9257
1424.00,3.9172
1423.00,3.9248
1422.00,3.9160
1421.00,3.8745
1420.00,3.8232
1419.00,3.7749
1418.00,3.7167
1417.00,3.6364
1416.00,3.5383
1415.00,3.4377
1414.00,3.3465
1413.00,3.2679
1412.00,3.1991
1411.00,3.1376
1410.00,3.0845
1409.00,3.0445
1408.00,3.0209
1407.00,3.0133
1406.00,3.0164
1405.00,3.0226
1404.00,3.0286
1403.00,3.0375
1402.00,3.0539
1401.00,3.0791
1400.00,3.1099
1399.00,3.1417
1398.00,3.1716
1397.00,3.1975
1396.00,3.2188
1395.00,3.2379
1394.00,3.2584
1393.00,3.2832
1392.00,3.3139
1391.00,3.3503
1390.00,3.3874
1389.00,3.4131
1388.00,3.4176
1387.00,3.4061
1386.00,3.3952
1385.00,3.3964
1384.00,3.4088
1383.00,3.4261
1382.00,3.4456
1381.00,3.4698
1380.00,3.5015
1379.00,3.5397
1378.00,3.5758
1377.00,3.5954
1376.00,3.5941
1375.00,3.5829
1374.00,3.5733
1373.00,3.5678
1372.00,3.5643
1371.00,3.5633
1370.00,3.5693
1369.00,3.5845
1368.00,3.6024
1367.00,3.6090
1366.00,3.5970
1365.00,3.5778
1364.00,3.5684
1363.00,3.5727
1362.00,3.5811
1361.00,3.5774
1360.00,3.5525
1359.00,3.5142
1358.00,3.4792
1357.00,3.4608
1356.00,3.4636
1355.00,3.4817
1354.00,3.5035
1353.00,3.5218
1352.00,3.5414
1351.00,3.5753
1350.00,3.6342
1349.00,3.7158
1348.00,3.8058
1347.00,3.8780
1346.00,3.8957
1345.00,3.8487
1344.00,3.7811
1343.00,3.7444
1342.00,3.7586
1341.00,3.8101
1340.00,3.8638
1339.00,3.8892
1338.00,3.8816
1337.00,3.8519
1336.00,3.8068
1335.00,3.7547
1334.00,3.7036
1333.00,3.6485
1332.00,3.5855
1331.00,3.5227
1330.00,3.4688
1329.00,3.4228
1328.00,3.3767
1327.00,3.3285
1326.00,3.2869
1325.00,3.2634
1324.00,3.2643
1323.00,3.2895
1322.00,3.3351
1321.00,3.3971
1320.00,3.4745
1319.00,3.5674
1318.00,3.6719
1317.00,3.7793
1316.00,3.8903
1315.00,4.0226
1314.00,4.1941
1313.00,4.3988
1312.00,4.5408
1311.00,4.5117
1310.00,4.4395
1309.00,4.3856
1308.00,4.2873
1307.00,4.1421
1306.00,4.0029
1305.00,3.8824
1304.00,3.7733
1303.00,3.6740
1302.00,3.5878
1301.00,3.5135
1300.00,3.4442
1299.00,3.3740
1298.00,3.3018
1297.00,3.2297
1296.00,3.1599
1295.00,3.0936
1294.00,3.0315
1293.00,2.9768
1292.00,2.9344
1291.00,2.9069
1290.00,2.8933
1289.00,2.8894
1288.00,2.8925
1287.00,2.9026
1286.00,2.9213
1285.00,2.9493
1284.00,2.9865
1283.00,3.0317
1282.00,3.0807
1281.00,3.1280
1280.00,3.1705
1279.00,3.2105
1278.00,3.2514
1277.00,3.2920
1276.00,3.3291
1275.00,3.3633
1274.00,3.3989
1273.00,3.4389
1272.00,3.4842
1271.00,3.5356
1270.00,3.5920
1269.00,3.6470
1268.00,3.6905
1267.00,3.7172
1266.00,3.7249
1265.00,3.7097
1264.00,3.6807
1263.00,3.6612
1262.00,3.6698
1261.00,3.7064
1260.00,3.7520
1259.00,3.7815
1258.00,3.7931
1257.00,3.8043
1256.00,3.8243
1255.00,3.8548
1254.00,3.8857
1253.00,3.8946
1252.00,3.8759
1251.00,3.8506
1250.00,3.8354
1249.00,3.8292
1248.00,3.8233
1247.00,3.8163
1246.00,3.8225
1245.00,3.8539
1244.00,3.8953
1243.00,3.9133
1242.00,3.9030
1241.00,3.8920
1240.00,3.8931
1239.00,3.9021
1238.00,3.9158
1237.00,3.9245
1236.00,3.9185
1235.00,3.9095
1234.00,3.9159
1233.00,3.9428
1232.00,3.9788
1231.00,4.0240
1230.00,4.1060
1229.00,4.2564
1228.00,4.4583
1227.00,4.5328
1226.00,4.4249
1225.00,4.3244
1224.00,4.3205
1223.00,4.4258
1222.00,4.6046
1221.00,4.8134
1220.00,4.5892
1219.00,4.3122
1218.00,4.1960
1217.00,4.1556
1216.00,4.1214
1215.00,4.0730
1214.00,4.0296
1213.00,3.9786
1212.00,3.9217
1211.00,3.8951
1210.00,3.8954
1209.00,3.8934
1208.00,3.8894
1207.00,3.9026
1206.00,3.9397
1205.00,3.9865
1204.00,4.0151
1203.00,4.0037
1202.00,3.9535
1201.00,3.8886
1200.00,3.8318
1199.00,3.8006
1198.00,3.8002
1197.00,3.8075
1196.00,3.7886
1195.00,3.7492
1194.00,3.7265
1193.00,3.7377
1192.00,3.7625
1191.00,3.7619
1190.00,3.7239
1189.00,3.6748
1188.00,3.6422
1187.00,3.6356
1186.00,3.6494
1185.00,3.6683
1184.00,3.6797
1183.00,3.6886
1182.00,3.6986
1181.00,3.6928
1180.00,3.6591
1179.00,3.6083
1178.00,3.5619
1177.00,3.5404
1176.00,3.5469
1175.00,3.5647
1174.00,3.5753
1173.00,3.5693
1172.00,3.5484
1171.00,3.5183
1170.00,3.4821
1169.00,3.4496
1168.00,3.4361
1167.00,3.4423
1166.00,3.4474
1165.00,3.4299
1164.00,3.3923
1163.00,3.3514
1162.00,3.3202
1161.00,3.3031
1160.00,3.2957
1159.00,3.2917
1158.00,3.2908
1157.00,3.2984
1156.00,3.3166
1155.00,3.3397
1154.00,3.3620
1153.00,3.3847
1152.00,3.4106
1151.00,3.4416
1150.00,3.4784
1149.00,3.5184
1148.00,3.5530
1147.00,3.5748
1146.00,3.5914
1145.00,3.6232
1144.00,3.6840
1143.00,3.7625
1142.00,3.8255
1141.00,3.8566
1140.00,3.8673
1139.00,3.8664
1138.00,3.8494
1137.00,3.8224
1136.00,3.7981
1135.00,3.7889
1134.00,3.8047
1133.00,3.8432
1132.00,3.8955
1131.00,3.9585
1130.00,4.0328
1129.00,4.1019
1128.00,4.1162
1127.00,4.0641
1126.00,3.9984
1125.00,3.9693
1124.00,4.0025
1123.00,4.0834
1122.00,4.1570
1121.00,4.1926
1120.00,4.1853
1119.00,4.1058
1118.00,3.9989
1117.00,3.9479
1116.00,3.9752
1115.00,4.0672
1114.00,4.1913
1113.00,4.2482
1112.00,4.1083
1111.00,3.9549
1110.00,3.8739
1109.00,3.8487
1108.00,3.8606
1107.00,3.8895
1106.00,3.9249
1105.00,3.9965
1104.00,4.0933
1103.00,4.1121
1102.00,4.0431
1101.00,3.9476
1100.00,3.8653
1099.00,3.8223
1098.00,3.8233
1097.00,3.8426
1096.00,3.8499
1095.00,3.8646
1094.00,3.9204
1093.00,4.0571
1092.00,4.4339
1091.00,4.8027
1090.00,4.4453
1089.00,4.9281
1088.00,4.2076
1087.00,3.9013
1086.00,3.8075
1085.00,3.8251
1084.00,3.8878
1083.00,3.9613
1082.00,4.0468
1081.00,4.1188
1080.00,4.1210
1079.00,4.0941
1078.00,4.0796
1077.00,4.0584
1076.00,4.0037
1075.00,3.9157
1074.00,3.8200
1073.00,3.7486
1072.00,3.7312
1071.00,3.7832
1070.00,3.8779
1069.00,3.9177
1068.00,3.8488
1067.00,3.7622
1066.00,3.7294
1065.00,3.7507
1064.00,3.7931
1063.00,3.8215
1062.00,3.8134
1061.00,3.7731
1060.00,3.7383
1059.00,3.7437
1058.00,3.8106
1057.00,3.9514
1056.00,4.1685
1055.00,4.3682
1054.00,4.2947
1053.00,4.1849
1052.00,4.1676
1051.00,4.2955
1050.00,4.8795
1049.00,4.1894
1048.00,3.9328
1047.00,3.8500
1046.00,3.8619
1045.00,3.8976
1044.00,3.9033
1043.00,3.8877
1042.00,3.8661
1041.00,3.8278
1040.00,3.7651
1039.00,3.6980
1038.00,3.6501
1037.00,3.6189
1036.00,3.5852
1035.00,3.5426
1034.00,3.5028
1033.00,3.4740
1032.00,3.4554
1031.00,3.4426
1030.00,3.4306
1029.00,3.4148
1028.00,3.3973
1027.00,3.3910
1026.00,3.4151
1025.00,3.4857
1024.00,3.6116
1023.00,3.7861
1022.00,3.9756
1021.00,4.1166
1020.00,4.0935
1019.00,3.9814
1018.00,3.9239
1017.00,3.9138
1016.00,3.9212
1015.00,3.9375
1014.00,3.9476
1013.00,3.9412
1012.00,3.9324
1011.00,3.9416
1010.00,3.9612
1009.00,3.9513
1008.00,3.9017
1007.00,3.8426
1006.00,3.7960
1005.00,3.7775
1004.00,3.7952
1003.00,3.8304
1002.00,3.8539
1001.00,3.8757
1000.00,3.9203
999.00,4.0019
998.00,4.1516
997.00,4.4159
996.00,4.4957
995.00,4.2258
994.00,4.1615
993.00,4.3717
992.00,4.8467
991.00,4.3867
990.00,4.3204
989.00,4.3418
988.00,4.3571
987.00,4.3924
986.00,4.4320
985.00,4.4376
984.00,4.5998
983.00,4.8322
982.00,4.2892
981.00,4.1733
980.00,4.3359
979.00,4.5370
978.00,4.2281
977.00,4.1247
976.00,4.0921
975.00,4.0529
974.00,4.0797
973.00,4.2109
972.00,4.3628
971.00,4.3083
970.00,4.1191
969.00,4.0098
968.00,4.0213
967.00,4.1472
966.00,4.4262
965.00,4.7605
964.00,4.4370
963.00,4.3526
962.00,4.3820
961.00,4.2958
960.00,4.2094
959.00,4.2190
958.00,4.2429
957.00,4.2138
956.00,4.1944
955.00,4.1772
954.00,4.1469
953.00,4.1593
952.00,4.2651
951.00,4.4725
950.00,4.6024
949.00,4.2819
948.00,4.0174
947.00,3.8947
946.00,3.8748
945.00,3.9339
944.00,4.0619
943.00,4.2373
942.00,4.3510
941.00,4.3059
940.00,4.2287
939.00,4.2073
938.00,4.2587
937.00,4.2959
936.00,4.2036
935.00,4.1363
934.00,4.1967
933.00,4.3348
932.00,4.2432
931.00,4.0829
930.00,4.0533
929.00,4.1910
928.00,4.5829
927.00,5.4611
926.00,5.6208
925.00,4.9674
924.00,4.8923
923.00,5.3898
922.00,5.0664
921.00,4.6237
920.00,4.3784
919.00,4.2590
918.00,4.2333
917.00,4.2638
916.00,4.2286
915.00,4.1220
914.00,4.0396
913.00,4.0417
912.00,4.1756
911.00,4.4242
910.00,4.5239
909.00,4.2295
908.00,3.9419
907.00,3.7894
906.00,3.7570
905.00,3.8326
904.00,4.0193
903.00,4.2729
902.00,4.3000
901.00,4.2796
900.00,4.4879
899.00,5.0531
898.00,5.0359
897.00,4.6164
896.00,4.3231
895.00,4.2452
894.00,4.4163
893.00,4.6573
892.00,4.3437
891.00,4.2949
890.00,4.5520
889.00,4.8238
888.00,4.2303
887.00,4.0002
886.00,3.9602
885.00,4.0691
884.00,4.3291
883.00,4.6927
882.00,4.8565
881.00,4.8899
880.00,5.1607
879.00,4.6932
878.00,4.3230
877.00,4.0709
876.00,3.9450
875.00,3.9429
874.00,4.1351
873.00,4.7781
872.00,4.2768
871.00,4.1079
870.00,4.1343
869.00,4.1188
868.00,4.1172
867.00,4.2336
866.00,4.3366
865.00,4.2901
864.00,4.3123
863.00,4.4998
862.00,4.6360
861.00,4.2756
860.00,4.0306
859.00,3.9089
858.00,3.8911
857.00,3.9902
856.00,4.2214
855.00,4.5429
854.00,4.5924
853.00,4.4044
852.00,4.2322
851.00,4.2364
850.00,4.5234
849.00,4.4387
848.00,4.1270
847.00,4.0127
846.00,3.9230
845.00,3.8313
844.00,3.7992
843.00,3.8571
842.00,4.0242
841.00,4.2561
840.00,4.3256
839.00,4.3026
838.00,4.2907
837.00,4.2819
836.00,4.3382
835.00,4.4380
834.00,4.4220
833.00,4.2561
832.00,4.2194
831.00,4.2425
830.00,4.1045
829.00,4.0550
828.00,4.2005
827.00,4.6632
826.00,4.5923
825.00,4.0676
824.00,3.8689
823.00,3.8117
822.00,3.8480
821.00,3.9269
820.00,3.9509
819.00,3.9180
818.00,3.9062
817.00,3.9339
816.00,3.9937
815.00,4.0901
814.00,4.1925
813.00,4.2054
812.00,4.1095
811.00,3.9846
810.00,3.9052
809.00,3.8961
808.00,4.0178
807.00,4.3671
806.00,4.3461
805.00,4.1962
804.00,4.2203
803.00,4.1275
802.00,4.1047
801.00,4.2072
800.00,4.2462
799.00,4.1456
798.00,4.0659
797.00,4.0898
796.00,4.1702
795.00,4.2130
794.00,4.2136
793.00,4.2308
792.00,4.2930
791.00,4.3759
790.00,4.4256
789.00,4.3817
788.00,4.2854
787.00,4.2588
786.00,4.3097
785.00,4.3225
784.00,4.3979
783.00,4.8252
782.00,4.6449
781.00,4.2285
780.00,4.1101
779.00,4.0903
778.00,4.1010
777.00,4.1274
776.00,4.1266
775.00,4.0909
774.00,4.0863
773.00,4.1545
772.00,4.2610
771.00,4.3764
770.00,4.5644
769.00,4.8302
768.00,4.8373
767.00,4.4314
766.00,4.1543
765.00,4.0283
764.00,3.9990
763.00,4.0481
762.00,4.1652
761.00,4.2894
760.00,4.3062
759.00,4.3462
758.00,4.7003
757.00,4.6100
756.00,4.1530
755.00,4.0318
754.00,4.0118
753.00,3.9722
752.00,3.9194
751.00,3.8959
750.00,3.9199
749.00,3.9515
748.00,3.9470
747.00,3.9543
746.00,4.0544
745.00,4.3511
744.00,5.0337
743.00,4.8823
742.00,4.4463
741.00,4.1611
740.00,3.9991
739.00,3.9503
738.00,3.9729
737.00,4.0661
736.00,4.1664
735.00,4.1427
734.00,4.0628
733.00,3.9715
732.00,3.9048
731.00,3.8910
730.00,3.9227
729.00,3.9885
728.00,4.2579
727.00,4.3283
726.00,3.9089
725.00,3.8006
724.00,3.9287
723.00,4.2654
722.00,4.1949
721.00,4.0097
720.00,4.0661
719.00,4.3029
718.00,4.5902
717.00,4.5849
716.00,4.4099
715.00,4.3946
714.00,4.9055
713.00,4.4345
712.00,4.0912
711.00,4.0619
710.00,4.2554
709.00,4.7882
708.00,4.5473
707.00,4.5477
706.00,4.7462
705.00,4.2333
704.00,4.0499
703.00,4.1474
702.00,4.2967
701.00,4.0504
700.00,3.8918
