Created as New Dataset,Sample 082 By Administrator Date Wednesday, November 24 2021
cm-1,A
7502.00,1.1915
7501.00,1.1868
7500.00,1.1823
7499.00,1.1777
7498.00,1.1732
7497.00,1.1688
7496.00,1.1644
7495.00,1.1599
7494.00,1.1553
7493.00,1.1507
7492.00,1.1461
7491.00,1.1412
7490.00,1.1360
7489.00,1.1304
7488.00,1.1239
7487.00,1.1162
7486.00,1.1075
7485.00,1.0987
7484.00,1.0904
7483.00,1.0825
7482.00,1.0746
7481.00,1.0659
7480.00,1.0563
7479.00,1.0464
7478.00,1.0367
7477.00,1.0273
7476.00,1.0178
7475.00,1.0078
7474.00,0.9971
7473.00,0.9865
7472.00,0.9765
7471.00,0.9671
7470.00,0.9574
7469.00,0.9472
7468.00,0.9365
7467.00,0.9258
7466.00,0.9153
7465.00,0.9051
7464.00,0.8950
7463.00,0.8850
7462.00,0.8749
7461.00,0.8649
7460.00,0.8551
7459.00,0.8459
7458.00,0.8373
7457.00,0.8293
7456.00,0.8218
7455.00,0.8147
7454.00,0.8079
7453.00,0.8017
7452.00,0.7961
7451.00,0.7912
7450.00,0.7869
7449.00,0.7831
7448.00,0.7796
7447.00,0.7768
7446.00,0.7746
7445.00,0.7733
7444.00,0.7728
7443.00,0.7727
7442.00,0.7729
7441.00,0.7735
7440.00,0.7748
7439.00,0.7770
7438.00,0.7799
7437.00,0.7834
7436.00,0.7875
7435.00,0.7922
7434.00,0.7971
7433.00,0.8024
7432.00,0.8081
7431.00,0.8143
7430.00,0.8211
7429.00,0.8283
7428.00,0.8358
7427.00,0.8438
7426.00,0.8522
7425.00,0.8609
7424.00,0.8697
7423.00,0.8785
7422.00,0.8875
7421.00,0.8964
7420.00,0.9051
7419.00,0.9135
7418.00,0.9222
7417.00,0.9313
7416.00,0.9404
7415.00,0.9491
7414.00,0.9574
7413.00,0.9659
7412.00,0.9750
7411.00,0.9843
7410.00,0.9934
7409.00,1.0019
7408.00,1.0103
7407.00,1.0187
7406.00,1.0270
7405.00,1.0350
7404.00,1.0428
7403.00,1.0504
7402.00,1.0575
7401.00,1.0641
7400.00,1.0698
7399.00,1.0747
7398.00,1.0788
7397.00,1.0827
7396.00,1.0871
7395.00,1.0918
7394.00,1.0961
7393.00,1.0996
7392.00,1.1024
7391.00,1.1051
7390.00,1.1071
7389.00,1.1080
7388.00,1.1082
7387.00,1.1086
7386.00,1.1097
7385.00,1.1118
7384.00,1.1145
7383.00,1.1168
7382.00,1.1182
7381.00,1.1186
7380.00,1.1189
7379.00,1.1194
7378.00,1.1198
7377.00,1.1189
7376.00,1.1164
7375.00,1.1124
7374.00,1.1075
7373.00,1.1022
7372.00,1.0965
7371.00,1.0905
7370.00,1.0843
7369.00,1.0783
7368.00,1.0729
7367.00,1.0687
7366.00,1.0652
7365.00,1.0617
7364.00,1.0576
7363.00,1.0534
7362.00,1.0501
7361.00,1.0482
7360.00,1.0470
7359.00,1.0453
7358.00,1.0424
7357.00,1.0385
7356.00,1.0343
7355.00,1.0306
7354.00,1.0274
7353.00,1.0241
7352.00,1.0199
7351.00,1.0151
7350.00,1.0095
7349.00,1.0029
7348.00,0.9948
7347.00,0.9856
7346.00,0.9760
7345.00,0.9671
7344.00,0.9590
7343.00,0.9515
7342.00,0.9444
7341.00,0.9371
7340.00,0.9292
7339.00,0.9204
7338.00,0.9106
7337.00,0.9003
7336.00,0.8898
7335.00,0.8796
7334.00,0.8700
7333.00,0.8613
7332.00,0.8531
7331.00,0.8452
7330.00,0.8373
7329.00,0.8295
7328.00,0.8221
7327.00,0.8149
7326.00,0.8077
7325.00,0.8005
7324.00,0.7937
7323.00,0.7877
7322.00,0.7827
7321.00,0.7782
7320.00,0.7742
7319.00,0.7706
7318.00,0.7677
7317.00,0.7657
7316.00,0.7645
7315.00,0.7638
7314.00,0.7635
7313.00,0.7634
7312.00,0.7640
7311.00,0.7653
7310.00,0.7672
7309.00,0.7694
7308.00,0.7719
7307.00,0.7749
7306.00,0.7788
7305.00,0.7837
7304.00,0.7893
7303.00,0.7952
7302.00,0.8014
7301.00,0.8081
7300.00,0.8155
7299.00,0.8234
7298.00,0.8315
7297.00,0.8393
7296.00,0.8473
7295.00,0.8557
7294.00,0.8647
7293.00,0.8740
7292.00,0.8835
7291.00,0.8932
7290.00,0.9031
7289.00,0.9130
7288.00,0.9230
7287.00,0.9332
7286.00,0.9436
7285.00,0.9538
7284.00,0.9638
7283.00,0.9737
7282.00,0.9839
7281.00,0.9945
7280.00,1.0049
7279.00,1.0149
7278.00,1.0245
7277.00,1.0341
7276.00,1.0437
7275.00,1.0530
7274.00,1.0616
7273.00,1.0696
7272.00,1.0779
7271.00,1.0867
7270.00,1.0956
7269.00,1.1043
7268.00,1.1130
7267.00,1.1218
7266.00,1.1300
7265.00,1.1371
7264.00,1.1433
7263.00,1.1494
7262.00,1.1554
7261.00,1.1611
7260.00,1.1663
7259.00,1.1717
7258.00,1.1779
7257.00,1.1840
7256.00,1.1887
7255.00,1.1915
7254.00,1.1931
7253.00,1.1944
7252.00,1.1955
7251.00,1.1962
7250.00,1.1964
7249.00,1.1964
7248.00,1.1965
7247.00,1.1969
7246.00,1.1976
7245.00,1.1982
7244.00,1.1982
7243.00,1.1973
7242.00,1.1962
7241.00,1.1953
7240.00,1.1944
7239.00,1.1925
7238.00,1.1892
7237.00,1.1849
7236.00,1.1804
7235.00,1.1758
7234.00,1.1708
7233.00,1.1650
7232.00,1.1586
7231.00,1.1523
7230.00,1.1462
7229.00,1.1404
7228.00,1.1344
7227.00,1.1279
7226.00,1.1210
7225.00,1.1138
7224.00,1.1064
7223.00,1.0985
7222.00,1.0896
7221.00,1.0798
7220.00,1.0695
7219.00,1.0592
7218.00,1.0492
7217.00,1.0396
7216.00,1.0300
7215.00,1.0201
7214.00,1.0098
7213.00,0.9994
7212.00,0.9892
7211.00,0.9792
7210.00,0.9688
7209.00,0.9579
7208.00,0.9468
7207.00,0.9362
7206.00,0.9261
7205.00,0.9160
7204.00,0.9055
7203.00,0.8946
7202.00,0.8840
7201.00,0.8740
7200.00,0.8644
7199.00,0.8549
7198.00,0.8455
7197.00,0.8366
7196.00,0.8284
7195.00,0.8209
7194.00,0.8138
7193.00,0.8072
7192.00,0.8011
7191.00,0.7954
7190.00,0.7901
7189.00,0.7853
7188.00,0.7811
7187.00,0.7775
7186.00,0.7745
7185.00,0.7721
7184.00,0.7704
7183.00,0.7697
7182.00,0.7700
7181.00,0.7711
7180.00,0.7727
7179.00,0.7747
7178.00,0.7775
7177.00,0.7807
7176.00,0.7845
7175.00,0.7885
7174.00,0.7931
7173.00,0.7983
7172.00,0.8041
7171.00,0.8103
7170.00,0.8171
7169.00,0.8245
7168.00,0.8325
7167.00,0.8406
7166.00,0.8485
7165.00,0.8565
7164.00,0.8650
7163.00,0.8741
7162.00,0.8832
7161.00,0.8922
7160.00,0.9012
7159.00,0.9107
7158.00,0.9204
7157.00,0.9302
7156.00,0.9401
7155.00,0.9503
7154.00,0.9609
7153.00,0.9718
7152.00,0.9827
7151.00,0.9932
7150.00,1.0035
7149.00,1.0132
7148.00,1.0223
7147.00,1.0310
7146.00,1.0397
7145.00,1.0485
7144.00,1.0574
7143.00,1.0663
7142.00,1.0751
7141.00,1.0836
7140.00,1.0917
7139.00,1.0995
7138.00,1.1067
7137.00,1.1134
7136.00,1.1200
7135.00,1.1266
7134.00,1.1332
7133.00,1.1394
7132.00,1.1449
7131.00,1.1499
7130.00,1.1547
7129.00,1.1591
7128.00,1.1627
7127.00,1.1654
7126.00,1.1677
7125.00,1.1701
7124.00,1.1729
7123.00,1.1757
7122.00,1.1779
7121.00,1.1795
7120.00,1.1810
7119.00,1.1826
7118.00,1.1840
7117.00,1.1848
7116.00,1.1849
7115.00,1.1844
7114.00,1.1838
7113.00,1.1828
7112.00,1.1813
7111.00,1.1793
7110.00,1.1767
7109.00,1.1738
7108.00,1.1707
7107.00,1.1675
7106.00,1.1641
7105.00,1.1604
7104.00,1.1563
7103.00,1.1518
7102.00,1.1470
7101.00,1.1416
7100.00,1.1360
7099.00,1.1301
7098.00,1.1241
7097.00,1.1175
7096.00,1.1103
7095.00,1.1028
7094.00,1.0950
7093.00,1.0866
7092.00,1.0777
7091.00,1.0686
7090.00,1.0596
7089.00,1.0508
7088.00,1.0420
7087.00,1.0330
7086.00,1.0238
7085.00,1.0145
7084.00,1.0048
7083.00,0.9948
7082.00,0.9845
7081.00,0.9742
7080.00,0.9639
7079.00,0.9534
7078.00,0.9428
7077.00,0.9321
7076.00,0.9213
7075.00,0.9107
7074.00,0.9000
7073.00,0.8894
7072.00,0.8791
7071.00,0.8693
7070.00,0.8599
7069.00,0.8508
7068.00,0.8417
7067.00,0.8331
7066.00,0.8251
7065.00,0.8177
7064.00,0.8107
7063.00,0.8039
7062.00,0.7973
7061.00,0.7913
7060.00,0.7859
7059.00,0.7811
7058.00,0.7767
7057.00,0.7727
7056.00,0.7694
7055.00,0.7669
7054.00,0.7652
7053.00,0.7642
7052.00,0.7638
7051.00,0.7642
7050.00,0.7654
7049.00,0.7675
7048.00,0.7702
7047.00,0.7735
7046.00,0.7775
7045.00,0.7818
7044.00,0.7865
7043.00,0.7915
7042.00,0.7973
7041.00,0.8038
7040.00,0.8108
7039.00,0.8179
7038.00,0.8255
7037.00,0.8338
7036.00,0.8427
7035.00,0.8518
7034.00,0.8611
7033.00,0.8707
7032.00,0.8807
7031.00,0.8912
7030.00,0.9018
7029.00,0.9125
7028.00,0.9230
7027.00,0.9331
7026.00,0.9431
7025.00,0.9533
7024.00,0.9637
7023.00,0.9742
7022.00,0.9846
7021.00,0.9950
7020.00,1.0055
7019.00,1.0160
7018.00,1.0265
7017.00,1.0367
7016.00,1.0463
7015.00,1.0558
7014.00,1.0656
7013.00,1.0759
7012.00,1.0863
7011.00,1.0961
7010.00,1.1049
7009.00,1.1131
7008.00,1.1210
7007.00,1.1288
7006.00,1.1361
7005.00,1.1432
7004.00,1.1501
7003.00,1.1573
7002.00,1.1643
7001.00,1.1706
7000.00,1.1759
6999.00,1.1806
6998.00,1.1853
6997.00,1.1901
6996.00,1.1948
6995.00,1.1991
6994.00,1.2030
6993.00,1.2065
6992.00,1.2096
6991.00,1.2120
6990.00,1.2135
6989.00,1.2143
6988.00,1.2146
6987.00,1.2147
6986.00,1.2147
6985.00,1.2149
6984.00,1.2149
6983.00,1.2146
6982.00,1.2137
6981.00,1.2126
6980.00,1.2111
6979.00,1.2090
6978.00,1.2065
6977.00,1.2035
6976.00,1.2001
6975.00,1.1962
6974.00,1.1918
6973.00,1.1869
6972.00,1.1816
6971.00,1.1760
6970.00,1.1699
6969.00,1.1634
6968.00,1.1565
6967.00,1.1495
6966.00,1.1424
6965.00,1.1353
6964.00,1.1277
6963.00,1.1193
6962.00,1.1104
6961.00,1.1013
6960.00,1.0922
6959.00,1.0826
6958.00,1.0723
6957.00,1.0615
6956.00,1.0509
6955.00,1.0405
6954.00,1.0300
6953.00,1.0190
6952.00,1.0077
6951.00,0.9965
6950.00,0.9853
6949.00,0.9739
6948.00,0.9624
6947.00,0.9508
6946.00,0.9395
6945.00,0.9285
6944.00,0.9175
6943.00,0.9067
6942.00,0.8960
6941.00,0.8855
6940.00,0.8752
6939.00,0.8650
6938.00,0.8552
6937.00,0.8459
6936.00,0.8368
6935.00,0.8280
6934.00,0.8197
6933.00,0.8119
6932.00,0.8047
6931.00,0.7980
6930.00,0.7919
6929.00,0.7866
6928.00,0.7821
6927.00,0.7782
6926.00,0.7747
6925.00,0.7718
6924.00,0.7695
6923.00,0.7677
6922.00,0.7667
6921.00,0.7665
6920.00,0.7670
6919.00,0.7684
6918.00,0.7705
6917.00,0.7734
6916.00,0.7770
6915.00,0.7811
6914.00,0.7856
6913.00,0.7905
6912.00,0.7961
6911.00,0.8024
6910.00,0.8094
6909.00,0.8169
6908.00,0.8251
6907.00,0.8336
6906.00,0.8426
6905.00,0.8518
6904.00,0.8612
6903.00,0.8704
6902.00,0.8797
6901.00,0.8890
6900.00,0.8987
6899.00,0.9088
6898.00,0.9194
6897.00,0.9304
6896.00,0.9414
6895.00,0.9523
6894.00,0.9631
6893.00,0.9738
6892.00,0.9846
6891.00,0.9952
6890.00,1.0058
6889.00,1.0164
6888.00,1.0270
6887.00,1.0375
6886.00,1.0477
6885.00,1.0575
6884.00,1.0667
6883.00,1.0755
6882.00,1.0843
6881.00,1.0931
6880.00,1.1016
6879.00,1.1098
6878.00,1.1178
6877.00,1.1257
6876.00,1.1334
6875.00,1.1407
6874.00,1.1476
6873.00,1.1545
6872.00,1.1609
6871.00,1.1667
6870.00,1.1718
6869.00,1.1767
6868.00,1.1816
6867.00,1.1863
6866.00,1.1906
6865.00,1.1944
6864.00,1.1979
6863.00,1.2010
6862.00,1.2035
6861.00,1.2052
6860.00,1.2061
6859.00,1.2069
6858.00,1.2078
6857.00,1.2086
6856.00,1.2090
6855.00,1.2091
6854.00,1.2088
6853.00,1.2086
6852.00,1.2079
6851.00,1.2062
6850.00,1.2035
6849.00,1.2002
6848.00,1.1968
6847.00,1.1934
6846.00,1.1900
6845.00,1.1864
6844.00,1.1829
6843.00,1.1792
6842.00,1.1753
6841.00,1.1706
6840.00,1.1649
6839.00,1.1582
6838.00,1.1505
6837.00,1.1427
6836.00,1.1351
6835.00,1.1278
6834.00,1.1204
6833.00,1.1127
6832.00,1.1047
6831.00,1.0964
6830.00,1.0878
6829.00,1.0787
6828.00,1.0690
6827.00,1.0589
6826.00,1.0488
6825.00,1.0386
6824.00,1.0283
6823.00,1.0177
6822.00,1.0066
6821.00,0.9953
6820.00,0.9840
6819.00,0.9726
6818.00,0.9611
6817.00,0.9496
6816.00,0.9381
6815.00,0.9267
6814.00,0.9155
6813.00,0.9046
6812.00,0.8938
6811.00,0.8832
6810.00,0.8728
6809.00,0.8626
6808.00,0.8527
6807.00,0.8431
6806.00,0.8338
6805.00,0.8249
6804.00,0.8164
6803.00,0.8084
6802.00,0.8009
6801.00,0.7939
6800.00,0.7874
6799.00,0.7816
6798.00,0.7764
6797.00,0.7719
6796.00,0.7680
6795.00,0.7648
6794.00,0.7624
6793.00,0.7607
6792.00,0.7598
6791.00,0.7595
6790.00,0.7598
6789.00,0.7610
6788.00,0.7628
6787.00,0.7651
6786.00,0.7679
6785.00,0.7715
6784.00,0.7760
6783.00,0.7813
6782.00,0.7872
6781.00,0.7938
6780.00,0.8009
6779.00,0.8086
6778.00,0.8167
6777.00,0.8252
6776.00,0.8339
6775.00,0.8428
6774.00,0.8519
6773.00,0.8613
6772.00,0.8710
6771.00,0.8811
6770.00,0.8916
6769.00,0.9023
6768.00,0.9131
6767.00,0.9241
6766.00,0.9353
6765.00,0.9466
6764.00,0.9578
6763.00,0.9687
6762.00,0.9796
6761.00,0.9906
6760.00,1.0017
6759.00,1.0129
6758.00,1.0240
6757.00,1.0352
6756.00,1.0464
6755.00,1.0574
6754.00,1.0680
6753.00,1.0780
6752.00,1.0875
6751.00,1.0966
6750.00,1.1054
6749.00,1.1140
6748.00,1.1225
6747.00,1.1310
6746.00,1.1394
6745.00,1.1474
6744.00,1.1551
6743.00,1.1625
6742.00,1.1697
6741.00,1.1766
6740.00,1.1831
6739.00,1.1893
6738.00,1.1949
6737.00,1.1997
6736.00,1.2037
6735.00,1.2074
6734.00,1.2110
6733.00,1.2145
6732.00,1.2177
6731.00,1.2205
6730.00,1.2229
6729.00,1.2248
6728.00,1.2263
6727.00,1.2276
6726.00,1.2288
6725.00,1.2299
6724.00,1.2305
6723.00,1.2307
6722.00,1.2302
6721.00,1.2288
6720.00,1.2265
6719.00,1.2241
6718.00,1.2217
6717.00,1.2193
6716.00,1.2166
6715.00,1.2135
6714.00,1.2098
6713.00,1.2053
6712.00,1.1998
6711.00,1.1936
6710.00,1.1872
6709.00,1.1806
6708.00,1.1737
6707.00,1.1666
6706.00,1.1594
6705.00,1.1520
6704.00,1.1439
6703.00,1.1353
6702.00,1.1266
6701.00,1.1179
6700.00,1.1090
6699.00,1.0996
6698.00,1.0896
6697.00,1.0794
6696.00,1.0688
6695.00,1.0578
6694.00,1.0467
6693.00,1.0357
6692.00,1.0248
6691.00,1.0141
6690.00,1.0032
6689.00,0.9919
6688.00,0.9799
6687.00,0.9675
6686.00,0.9552
6685.00,0.9432
6684.00,0.9313
6683.00,0.9193
6682.00,0.9075
6681.00,0.8963
6680.00,0.8856
6679.00,0.8749
6678.00,0.8642
6677.00,0.8538
6676.00,0.8440
6675.00,0.8347
6674.00,0.8259
6673.00,0.8174
6672.00,0.8093
6671.00,0.8016
6670.00,0.7945
6669.00,0.7879
6668.00,0.7820
6667.00,0.7768
6666.00,0.7724
6665.00,0.7689
6664.00,0.7662
6663.00,0.7642
6662.00,0.7629
6661.00,0.7622
6660.00,0.7621
6659.00,0.7627
6658.00,0.7639
6657.00,0.7659
6656.00,0.7689
6655.00,0.7725
6654.00,0.7769
6653.00,0.7819
6652.00,0.7876
6651.00,0.7938
6650.00,0.8006
6649.00,0.8080
6648.00,0.8160
6647.00,0.8245
6646.00,0.8333
6645.00,0.8426
6644.00,0.8521
6643.00,0.8619
6642.00,0.8718
6641.00,0.8818
6640.00,0.8921
6639.00,0.9028
6638.00,0.9139
6637.00,0.9254
6636.00,0.9369
6635.00,0.9483
6634.00,0.9595
6633.00,0.9707
6632.00,0.9818
6631.00,0.9928
6630.00,1.0034
6629.00,1.0139
6628.00,1.0245
6627.00,1.0351
6626.00,1.0459
6625.00,1.0568
6624.00,1.0677
6623.00,1.0785
6622.00,1.0890
6621.00,1.0990
6620.00,1.1084
6619.00,1.1171
6618.00,1.1253
6617.00,1.1332
6616.00,1.1409
6615.00,1.1484
6614.00,1.1556
6613.00,1.1623
6612.00,1.1687
6611.00,1.1748
6610.00,1.1807
6609.00,1.1864
6608.00,1.1916
6607.00,1.1963
6606.00,1.2006
6605.00,1.2046
6604.00,1.2082
6603.00,1.2113
6602.00,1.2139
6601.00,1.2160
6600.00,1.2179
6599.00,1.2194
6598.00,1.2206
6597.00,1.2214
6596.00,1.2220
6595.00,1.2225
6594.00,1.2228
6593.00,1.2227
6592.00,1.2218
6591.00,1.2200
6590.00,1.2174
6589.00,1.2144
6588.00,1.2113
6587.00,1.2077
6586.00,1.2038
6585.00,1.1995
6584.00,1.1953
6583.00,1.1912
6582.00,1.1873
6581.00,1.1830
6580.00,1.1779
6579.00,1.1720
6578.00,1.1653
6577.00,1.1581
6576.00,1.1505
6575.00,1.1424
6574.00,1.1341
6573.00,1.1260
6572.00,1.1183
6571.00,1.1105
6570.00,1.1019
6569.00,1.0925
6568.00,1.0825
6567.00,1.0724
6566.00,1.0622
6565.00,1.0519
6564.00,1.0415
6563.00,1.0310
6562.00,1.0205
6561.00,1.0097
6560.00,0.9987
6559.00,0.9873
6558.00,0.9757
6557.00,0.9639
6556.00,0.9521
6555.00,0.9404
6554.00,0.9287
6553.00,0.9171
6552.00,0.9056
6551.00,0.8944
6550.00,0.8834
6549.00,0.8725
6548.00,0.8616
6547.00,0.8510
6546.00,0.8408
6545.00,0.8309
6544.00,0.8215
6543.00,0.8126
6542.00,0.8045
6541.00,0.7970
6540.00,0.7901
6539.00,0.7836
6538.00,0.7777
6537.00,0.7725
6536.00,0.7678
6535.00,0.7638
6534.00,0.7604
6533.00,0.7579
6532.00,0.7562
6531.00,0.7553
6530.00,0.7551
6529.00,0.7558
6528.00,0.7572
6527.00,0.7595
6526.00,0.7624
6525.00,0.7660
6524.00,0.7702
6523.00,0.7750
6522.00,0.7806
6521.00,0.7868
6520.00,0.7936
6519.00,0.8009
6518.00,0.8088
6517.00,0.8174
6516.00,0.8264
6515.00,0.8358
6514.00,0.8455
6513.00,0.8556
6512.00,0.8663
6511.00,0.8772
6510.00,0.8883
6509.00,0.8996
6508.00,0.9110
6507.00,0.9228
6506.00,0.9346
6505.00,0.9463
6504.00,0.9579
6503.00,0.9695
6502.00,0.9812
6501.00,0.9931
6500.00,1.0050
6499.00,1.0167
6498.00,1.0285
6497.00,1.0401
6496.00,1.0516
6495.00,1.0627
6494.00,1.0736
6493.00,1.0841
6492.00,1.0946
6491.00,1.1051
6490.00,1.1156
6489.00,1.1259
6488.00,1.1355
6487.00,1.1447
6486.00,1.1538
6485.00,1.1625
6484.00,1.1707
6483.00,1.1785
6482.00,1.1862
6481.00,1.1938
6480.00,1.2009
6479.00,1.2071
6478.00,1.2126
6477.00,1.2175
6476.00,1.2221
6475.00,1.2265
6474.00,1.2309
6473.00,1.2353
6472.00,1.2393
6471.00,1.2427
6470.00,1.2455
6469.00,1.2480
6468.00,1.2498
6467.00,1.2510
6466.00,1.2518
6465.00,1.2526
6464.00,1.2534
6463.00,1.2538
6462.00,1.2534
6461.00,1.2521
6460.00,1.2501
6459.00,1.2480
6458.00,1.2459
6457.00,1.2436
6456.00,1.2407
6455.00,1.2375
6454.00,1.2343
6453.00,1.2311
6452.00,1.2273
6451.00,1.2222
6450.00,1.2162
6449.00,1.2099
6448.00,1.2035
6447.00,1.1965
6446.00,1.1888
6445.00,1.1807
6444.00,1.1726
6443.00,1.1643
6442.00,1.1557
6441.00,1.1466
6440.00,1.1373
6439.00,1.1277
6438.00,1.1179
6437.00,1.1078
6436.00,1.0974
6435.00,1.0864
6434.00,1.0750
6433.00,1.0633
6432.00,1.0514
6431.00,1.0394
6430.00,1.0273
6429.00,1.0151
6428.00,1.0027
6427.00,0.9900
6426.00,0.9771
6425.00,0.9643
6424.00,0.9514
6423.00,0.9385
6422.00,0.9258
6421.00,0.9136
6420.00,0.9016
6419.00,0.8898
6418.00,0.8782
6417.00,0.8669
6416.00,0.8560
6415.00,0.8456
6414.00,0.8356
6413.00,0.8261
6412.00,0.8169
6411.00,0.8082
6410.00,0.8001
6409.00,0.7926
6408.00,0.7857
6407.00,0.7793
6406.00,0.7737
6405.00,0.7690
6404.00,0.7652
6403.00,0.7621
6402.00,0.7597
6401.00,0.7582
6400.00,0.7575
6399.00,0.7576
6398.00,0.7585
6397.00,0.7601
6396.00,0.7625
6395.00,0.7657
6394.00,0.7699
6393.00,0.7747
6392.00,0.7802
6391.00,0.7863
6390.00,0.7931
6389.00,0.8005
6388.00,0.8084
6387.00,0.8168
6386.00,0.8258
6385.00,0.8354
6384.00,0.8455
6383.00,0.8559
6382.00,0.8665
6381.00,0.8775
6380.00,0.8887
6379.00,0.8999
6378.00,0.9112
6377.00,0.9226
6376.00,0.9343
6375.00,0.9463
6374.00,0.9584
6373.00,0.9705
6372.00,0.9825
6371.00,0.9944
6370.00,1.0061
6369.00,1.0175
6368.00,1.0289
6367.00,1.0402
6366.00,1.0517
6365.00,1.0632
6364.00,1.0746
6363.00,1.0857
6362.00,1.0964
6361.00,1.1068
6360.00,1.1167
6359.00,1.1261
6358.00,1.1350
6357.00,1.1436
6356.00,1.1521
6355.00,1.1604
6354.00,1.1683
6353.00,1.1758
6352.00,1.1828
6351.00,1.1895
6350.00,1.1958
6349.00,1.2019
6348.00,1.2077
6347.00,1.2131
6346.00,1.2180
6345.00,1.2224
6344.00,1.2261
6343.00,1.2294
6342.00,1.2323
6341.00,1.2351
6340.00,1.2379
6339.00,1.2405
6338.00,1.2426
6337.00,1.2441
6336.00,1.2450
6335.00,1.2453
6334.00,1.2450
6333.00,1.2442
6332.00,1.2428
6331.00,1.2413
6330.00,1.2395
6329.00,1.2376
6328.00,1.2354
6327.00,1.2327
6326.00,1.2296
6325.00,1.2260
6324.00,1.2218
6323.00,1.2174
6322.00,1.2128
6321.00,1.2081
6320.00,1.2031
6319.00,1.1976
6318.00,1.1915
6317.00,1.1848
6316.00,1.1776
6315.00,1.1701
6314.00,1.1626
6313.00,1.1549
6312.00,1.1467
6311.00,1.1382
6310.00,1.1295
6309.00,1.1206
6308.00,1.1113
6307.00,1.1014
6306.00,1.0911
6305.00,1.0807
6304.00,1.0699
6303.00,1.0586
6302.00,1.0470
6301.00,1.0352
6300.00,1.0236
6299.00,1.0119
6298.00,1.0001
6297.00,0.9879
6296.00,0.9755
6295.00,0.9630
6294.00,0.9506
6293.00,0.9383
6292.00,0.9259
6291.00,0.9135
6290.00,0.9012
6289.00,0.8892
6288.00,0.8775
6287.00,0.8658
6286.00,0.8545
6285.00,0.8437
6284.00,0.8335
6283.00,0.8237
6282.00,0.8142
6281.00,0.8053
6280.00,0.7968
6279.00,0.7889
6278.00,0.7817
6277.00,0.7753
6276.00,0.7697
6275.00,0.7649
6274.00,0.7608
6273.00,0.7576
6272.00,0.7550
6271.00,0.7530
6270.00,0.7519
6269.00,0.7517
6268.00,0.7525
6267.00,0.7542
6266.00,0.7568
6265.00,0.7602
6264.00,0.7645
6263.00,0.7695
6262.00,0.7751
6261.00,0.7813
6260.00,0.7882
6259.00,0.7957
6258.00,0.8038
6257.00,0.8125
6256.00,0.8217
6255.00,0.8314
6254.00,0.8416
6253.00,0.8523
6252.00,0.8632
6251.00,0.8742
6250.00,0.8854
6249.00,0.8971
6248.00,0.9091
6247.00,0.9212
6246.00,0.9333
6245.00,0.9456
6244.00,0.9581
6243.00,0.9708
6242.00,0.9835
6241.00,0.9963
6240.00,1.0091
6239.00,1.0218
6238.00,1.0342
6237.00,1.0461
6236.00,1.0577
6235.00,1.0691
6234.00,1.0804
6233.00,1.0918
6232.00,1.1033
6231.00,1.1146
6230.00,1.1255
6229.00,1.1362
6228.00,1.1465
6227.00,1.1564
6226.00,1.1656
6225.00,1.1742
6224.00,1.1825
6223.00,1.1906
6222.00,1.1983
6221.00,1.2058
6220.00,1.2134
6219.00,1.2210
6218.00,1.2283
6217.00,1.2349
6216.00,1.2410
6215.00,1.2465
6214.00,1.2515
6213.00,1.2558
6212.00,1.2595
6211.00,1.2630
6210.00,1.2661
6209.00,1.2688
6208.00,1.2711
6207.00,1.2733
6206.00,1.2752
6205.00,1.2763
6204.00,1.2767
6203.00,1.2767
6202.00,1.2763
6201.00,1.2755
6200.00,1.2740
6199.00,1.2721
6198.00,1.2701
6197.00,1.2680
6196.00,1.2653
6195.00,1.2619
6194.00,1.2580
6193.00,1.2537
6192.00,1.2492
6191.00,1.2445
6190.00,1.2393
6189.00,1.2336
6188.00,1.2276
6187.00,1.2213
6186.00,1.2146
6185.00,1.2073
6184.00,1.1991
6183.00,1.1906
6182.00,1.1817
6181.00,1.1726
6180.00,1.1630
6179.00,1.1532
6178.00,1.1433
6177.00,1.1333
6176.00,1.1229
6175.00,1.1119
6174.00,1.1005
6173.00,1.0885
6172.00,1.0761
6171.00,1.0633
6170.00,1.0503
6169.00,1.0374
6168.00,1.0243
6167.00,1.0110
6166.00,0.9975
6165.00,0.9840
6164.00,0.9704
6163.00,0.9570
6162.00,0.9436
6161.00,0.9304
6160.00,0.9174
6159.00,0.9045
6158.00,0.8918
6157.00,0.8794
6156.00,0.8671
6155.00,0.8552
6154.00,0.8437
6153.00,0.8328
6152.00,0.8224
6151.00,0.8125
6150.00,0.8033
6149.00,0.7949
6148.00,0.7871
6147.00,0.7799
6146.00,0.7734
6145.00,0.7676
6144.00,0.7626
6143.00,0.7586
6142.00,0.7555
6141.00,0.7534
6140.00,0.7523
6139.00,0.7518
6138.00,0.7521
6137.00,0.7532
6136.00,0.7551
6135.00,0.7579
6134.00,0.7616
6133.00,0.7664
6132.00,0.7719
6131.00,0.7782
6130.00,0.7852
6129.00,0.7928
6128.00,0.8011
6127.00,0.8097
6126.00,0.8188
6125.00,0.8284
6124.00,0.8384
6123.00,0.8489
6122.00,0.8597
6121.00,0.8709
6120.00,0.8825
6119.00,0.8943
6118.00,0.9064
6117.00,0.9185
6116.00,0.9309
6115.00,0.9434
6114.00,0.9560
6113.00,0.9688
6112.00,0.9814
6111.00,0.9939
6110.00,1.0062
6109.00,1.0182
6108.00,1.0301
6107.00,1.0420
6106.00,1.0540
6105.00,1.0661
6104.00,1.0779
6103.00,1.0893
6102.00,1.1004
6101.00,1.1110
6100.00,1.1214
6099.00,1.1314
6098.00,1.1412
6097.00,1.1508
6096.00,1.1602
6095.00,1.1693
6094.00,1.1781
6093.00,1.1866
6092.00,1.1949
6091.00,1.2028
6090.00,1.2102
6089.00,1.2169
6088.00,1.2228
6087.00,1.2283
6086.00,1.2335
6085.00,1.2384
6084.00,1.2430
6083.00,1.2475
6082.00,1.2516
6081.00,1.2553
6080.00,1.2586
6079.00,1.2616
6078.00,1.2645
6077.00,1.2670
6076.00,1.2688
6075.00,1.2699
6074.00,1.2705
6073.00,1.2709
6072.00,1.2710
6071.00,1.2707
6070.00,1.2702
6069.00,1.2695
6068.00,1.2688
6067.00,1.2677
6066.00,1.2663
6065.00,1.2642
6064.00,1.2613
6063.00,1.2578
6062.00,1.2536
6061.00,1.2487
6060.00,1.2430
6059.00,1.2368
6058.00,1.2307
6057.00,1.2245
6056.00,1.2182
6055.00,1.2116
6054.00,1.2046
6053.00,1.1974
6052.00,1.1898
6051.00,1.1816
6050.00,1.1728
6049.00,1.1635
6048.00,1.1537
6047.00,1.1434
6046.00,1.1327
6045.00,1.1216
6044.00,1.1101
6043.00,1.0983
6042.00,1.0861
6041.00,1.0736
6040.00,1.0608
6039.00,1.0478
6038.00,1.0346
6037.00,1.0213
6036.00,1.0077
6035.00,0.9941
6034.00,0.9804
6033.00,0.9666
6032.00,0.9530
6031.00,0.9394
6030.00,0.9260
6029.00,0.9128
6028.00,0.8998
6027.00,0.8870
6026.00,0.8744
6025.00,0.8621
6024.00,0.8502
6023.00,0.8387
6022.00,0.8277
6021.00,0.8171
6020.00,0.8072
6019.00,0.7979
6018.00,0.7894
6017.00,0.7817
6016.00,0.7748
6015.00,0.7687
6014.00,0.7635
6013.00,0.7592
6012.00,0.7557
6011.00,0.7531
6010.00,0.7515
6009.00,0.7509
6008.00,0.7512
6007.00,0.7523
6006.00,0.7544
6005.00,0.7574
6004.00,0.7612
6003.00,0.7658
6002.00,0.7710
6001.00,0.7772
6000.00,0.7843
5999.00,0.7922
5998.00,0.8007
5997.00,0.8099
5996.00,0.8197
5995.00,0.8300
5994.00,0.8408
5993.00,0.8519
5992.00,0.8632
5991.00,0.8747
5990.00,0.8866
5989.00,0.8990
5988.00,0.9116
5987.00,0.9245
5986.00,0.9375
5985.00,0.9507
5984.00,0.9640
5983.00,0.9774
5982.00,0.9907
5981.00,1.0040
5980.00,1.0173
5979.00,1.0304
5978.00,1.0432
5977.00,1.0557
5976.00,1.0680
5975.00,1.0803
5974.00,1.0930
5973.00,1.1061
5972.00,1.1190
5971.00,1.1313
5970.00,1.1428
5969.00,1.1537
5968.00,1.1641
5967.00,1.1742
5966.00,1.1841
5965.00,1.1940
5964.00,1.2037
5963.00,1.2129
5962.00,1.2216
5961.00,1.2297
5960.00,1.2374
5959.00,1.2447
5958.00,1.2518
5957.00,1.2587
5956.00,1.2653
5955.00,1.2713
5954.00,1.2764
5953.00,1.2809
5952.00,1.2850
5951.00,1.2887
5950.00,1.2923
5949.00,1.2957
5948.00,1.2989
5947.00,1.3015
5946.00,1.3037
5945.00,1.3054
5944.00,1.3066
5943.00,1.3074
5942.00,1.3076
5941.00,1.3076
5940.00,1.3073
5939.00,1.3065
5938.00,1.3051
5937.00,1.3032
5936.00,1.3007
5935.00,1.2979
5934.00,1.2943
5933.00,1.2902
5932.00,1.2855
5931.00,1.2807
5930.00,1.2757
5929.00,1.2703
5928.00,1.2643
5927.00,1.2578
5926.00,1.2509
5925.00,1.2434
5924.00,1.2353
5923.00,1.2268
5922.00,1.2181
5921.00,1.2092
5920.00,1.1999
5919.00,1.1901
5918.00,1.1798
5917.00,1.1690
5916.00,1.1576
5915.00,1.1458
5914.00,1.1335
5913.00,1.1209
5912.00,1.1081
5911.00,1.0951
5910.00,1.0819
5909.00,1.0686
5908.00,1.0551
5907.00,1.0415
5906.00,1.0277
5905.00,1.0136
5904.00,0.9993
5903.00,0.9849
5902.00,0.9706
5901.00,0.9564
5900.00,0.9425
5899.00,0.9287
5898.00,0.9153
5897.00,0.9021
5896.00,0.8892
5895.00,0.8765
5894.00,0.8642
5893.00,0.8525
5892.00,0.8414
5891.00,0.8310
5890.00,0.8212
5889.00,0.8120
5888.00,0.8035
5887.00,0.7956
5886.00,0.7884
5885.00,0.7821
5884.00,0.7767
5883.00,0.7722
5882.00,0.7687
5881.00,0.7661
5880.00,0.7643
5879.00,0.7634
5878.00,0.7635
5877.00,0.7646
5876.00,0.7668
5875.00,0.7700
5874.00,0.7743
5873.00,0.7794
5872.00,0.7852
5871.00,0.7915
5870.00,0.7986
5869.00,0.8064
5868.00,0.8149
5867.00,0.8241
5866.00,0.8340
5865.00,0.8444
5864.00,0.8552
5863.00,0.8664
5862.00,0.8778
5861.00,0.8896
5860.00,0.9017
5859.00,0.9141
5858.00,0.9268
5857.00,0.9399
5856.00,0.9532
5855.00,0.9668
5854.00,0.9804
5853.00,0.9941
5852.00,1.0076
5851.00,1.0211
5850.00,1.0343
5849.00,1.0475
5848.00,1.0606
5847.00,1.0736
5846.00,1.0864
5845.00,1.0991
5844.00,1.1117
5843.00,1.1241
5842.00,1.1365
5841.00,1.1490
5840.00,1.1612
5839.00,1.1729
5838.00,1.1839
5837.00,1.1945
5836.00,1.2046
5835.00,1.2143
5834.00,1.2238
5833.00,1.2330
5832.00,1.2421
5831.00,1.2510
5830.00,1.2593
5829.00,1.2671
5828.00,1.2742
5827.00,1.2809
5826.00,1.2871
5825.00,1.2928
5824.00,1.2981
5823.00,1.3030
5822.00,1.3076
5821.00,1.3118
5820.00,1.3156
5819.00,1.3188
5818.00,1.3213
5817.00,1.3233
5816.00,1.3249
5815.00,1.3264
5814.00,1.3277
5813.00,1.3286
5812.00,1.3291
5811.00,1.3290
5810.00,1.3285
5809.00,1.3272
5808.00,1.3253
5807.00,1.3230
5806.00,1.3206
5805.00,1.3178
5804.00,1.3144
5803.00,1.3105
5802.00,1.3061
5801.00,1.3015
5800.00,1.2967
5799.00,1.2916
5798.00,1.2861
5797.00,1.2801
5796.00,1.2735
5795.00,1.2664
5794.00,1.2587
5793.00,1.2506
5792.00,1.2421
5791.00,1.2331
5790.00,1.2237
5789.00,1.2139
5788.00,1.2037
5787.00,1.1930
5786.00,1.1819
5785.00,1.1705
5784.00,1.1587
5783.00,1.1464
5782.00,1.1336
5781.00,1.1204
5780.00,1.1070
5779.00,1.0933
5778.00,1.0794
5777.00,1.0652
5776.00,1.0507
5775.00,1.0361
5774.00,1.0213
5773.00,1.0066
5772.00,0.9918
5771.00,0.9771
5770.00,0.9627
5769.00,0.9483
5768.00,0.9341
5767.00,0.9201
5766.00,0.9064
5765.00,0.8931
5764.00,0.8802
5763.00,0.8677
5762.00,0.8557
5761.00,0.8443
5760.00,0.8334
5759.00,0.8232
5758.00,0.8136
5757.00,0.8048
5756.00,0.7967
5755.00,0.7895
5754.00,0.7832
5753.00,0.7778
5752.00,0.7735
5751.00,0.7702
5750.00,0.7679
5749.00,0.7665
5748.00,0.7661
5747.00,0.7666
5746.00,0.7681
5745.00,0.7706
5744.00,0.7741
5743.00,0.7784
5742.00,0.7836
5741.00,0.7897
5740.00,0.7965
5739.00,0.8040
5738.00,0.8121
5737.00,0.8211
5736.00,0.8307
5735.00,0.8409
5734.00,0.8516
5733.00,0.8627
5732.00,0.8743
5731.00,0.8863
5730.00,0.8986
5729.00,0.9114
5728.00,0.9245
5727.00,0.9377
5726.00,0.9510
5725.00,0.9643
5724.00,0.9777
5723.00,0.9912
5722.00,1.0049
5721.00,1.0188
5720.00,1.0328
5719.00,1.0467
5718.00,1.0604
5717.00,1.0740
5716.00,1.0873
5715.00,1.1006
5714.00,1.1137
5713.00,1.1267
5712.00,1.1394
5711.00,1.1518
5710.00,1.1640
5709.00,1.1761
5708.00,1.1879
5707.00,1.1992
5706.00,1.2099
5705.00,1.2200
5704.00,1.2297
5703.00,1.2389
5702.00,1.2478
5701.00,1.2564
5700.00,1.2647
5699.00,1.2726
5698.00,1.2800
5697.00,1.2869
5696.00,1.2937
5695.00,1.3003
5694.00,1.3066
5693.00,1.3122
5692.00,1.3170
5691.00,1.3209
5690.00,1.3241
5689.00,1.3270
5688.00,1.3298
5687.00,1.3326
5686.00,1.3353
5685.00,1.3375
5684.00,1.3392
5683.00,1.3403
5682.00,1.3407
5681.00,1.3407
5680.00,1.3401
5679.00,1.3392
5678.00,1.3379
5677.00,1.3363
5676.00,1.3343
5675.00,1.3319
5674.00,1.3288
5673.00,1.3251
5672.00,1.3205
5671.00,1.3152
5670.00,1.3095
5669.00,1.3038
5668.00,1.2981
5667.00,1.2922
5666.00,1.2861
5665.00,1.2793
5664.00,1.2717
5663.00,1.2633
5662.00,1.2546
5661.00,1.2456
5660.00,1.2364
5659.00,1.2268
5658.00,1.2167
5657.00,1.2060
5656.00,1.1950
5655.00,1.1835
5654.00,1.1716
5653.00,1.1594
5652.00,1.1469
5651.00,1.1340
5650.00,1.1207
5649.00,1.1070
5648.00,1.0930
5647.00,1.0787
5646.00,1.0643
5645.00,1.0495
5644.00,1.0345
5643.00,1.0195
5642.00,1.0044
5641.00,0.9894
5640.00,0.9743
5639.00,0.9592
5638.00,0.9442
5637.00,0.9294
5636.00,0.9148
5635.00,0.9004
5634.00,0.8864
5633.00,0.8729
5632.00,0.8598
5631.00,0.8472
5630.00,0.8352
5629.00,0.8238
5628.00,0.8131
5627.00,0.8031
5626.00,0.7939
5625.00,0.7855
5624.00,0.7780
5623.00,0.7715
5622.00,0.7659
5621.00,0.7614
5620.00,0.7578
5619.00,0.7552
5618.00,0.7537
5617.00,0.7531
5616.00,0.7536
5615.00,0.7552
5614.00,0.7580
5613.00,0.7618
5612.00,0.7666
5611.00,0.7723
5610.00,0.7788
5609.00,0.7862
5608.00,0.7944
5607.00,0.8033
5606.00,0.8129
5605.00,0.8233
5604.00,0.8344
5603.00,0.8461
5602.00,0.8583
5601.00,0.8709
5600.00,0.8838
5599.00,0.8970
5598.00,0.9105
5597.00,0.9244
5596.00,0.9386
5595.00,0.9532
5594.00,0.9680
5593.00,0.9829
5592.00,0.9979
5591.00,1.0128
5590.00,1.0276
5589.00,1.0424
5588.00,1.0569
5587.00,1.0712
5586.00,1.0851
5585.00,1.0990
5584.00,1.1129
5583.00,1.1267
5582.00,1.1403
5581.00,1.1537
5580.00,1.1668
5579.00,1.1793
5578.00,1.1912
5577.00,1.2028
5576.00,1.2141
5575.00,1.2252
5574.00,1.2359
5573.00,1.2461
5572.00,1.2559
5571.00,1.2652
5570.00,1.2741
5569.00,1.2824
5568.00,1.2903
5567.00,1.2979
5566.00,1.3049
5565.00,1.3115
5564.00,1.3178
5563.00,1.3236
5562.00,1.3290
5561.00,1.3338
5560.00,1.3381
5559.00,1.3421
5558.00,1.3457
5557.00,1.3488
5556.00,1.3515
5555.00,1.3538
5554.00,1.3554
5553.00,1.3563
5552.00,1.3565
5551.00,1.3562
5550.00,1.3557
5549.00,1.3552
5548.00,1.3546
5547.00,1.3538
5546.00,1.3524
5545.00,1.3504
5544.00,1.3475
5543.00,1.3437
5542.00,1.3394
5541.00,1.3347
5540.00,1.3300
5539.00,1.3252
5538.00,1.3199
5537.00,1.3140
5536.00,1.3074
5535.00,1.3001
5534.00,1.2923
5533.00,1.2841
5532.00,1.2756
5531.00,1.2671
5530.00,1.2583
5529.00,1.2490
5528.00,1.2392
5527.00,1.2287
5526.00,1.2176
5525.00,1.2060
5524.00,1.1940
5523.00,1.1816
5522.00,1.1690
5521.00,1.1559
5520.00,1.1422
5519.00,1.1280
5518.00,1.1135
5517.00,1.0987
5516.00,1.0836
5515.00,1.0683
5514.00,1.0528
5513.00,1.0372
5512.00,1.0213
5511.00,1.0054
5510.00,0.9895
5509.00,0.9737
5508.00,0.9578
5507.00,0.9421
5506.00,0.9264
5505.00,0.9111
5504.00,0.8961
5503.00,0.8815
5502.00,0.8673
5501.00,0.8537
5500.00,0.8406
5499.00,0.8281
5498.00,0.8164
5497.00,0.8054
5496.00,0.7953
5495.00,0.7860
5494.00,0.7776
5493.00,0.7701
5492.00,0.7635
5491.00,0.7579
5490.00,0.7534
5489.00,0.7499
5488.00,0.7476
5487.00,0.7464
5486.00,0.7464
5485.00,0.7476
5484.00,0.7501
5483.00,0.7536
5482.00,0.7583
5481.00,0.7640
5480.00,0.7706
5479.00,0.7779
5478.00,0.7861
5477.00,0.7951
5476.00,0.8049
5475.00,0.8154
5474.00,0.8265
5473.00,0.8382
5472.00,0.8503
5471.00,0.8628
5470.00,0.8757
5469.00,0.8890
5468.00,0.9028
5467.00,0.9168
5466.00,0.9311
5465.00,0.9456
5464.00,0.9601
5463.00,0.9747
5462.00,0.9893
5461.00,1.0039
5460.00,1.0185
5459.00,1.0328
5458.00,1.0471
5457.00,1.0614
5456.00,1.0758
5455.00,1.0903
5454.00,1.1047
5453.00,1.1188
5452.00,1.1324
5451.00,1.1454
5450.00,1.1579
5449.00,1.1700
5448.00,1.1820
5447.00,1.1938
5446.00,1.2054
5445.00,1.2167
5444.00,1.2276
5443.00,1.2382
5442.00,1.2485
5441.00,1.2584
5440.00,1.2679
5439.00,1.2769
5438.00,1.2854
5437.00,1.2935
5436.00,1.3012
5435.00,1.3086
5434.00,1.3158
5433.00,1.3224
5432.00,1.3285
5431.00,1.3340
5430.00,1.3392
5429.00,1.3438
5428.00,1.3480
5427.00,1.3516
5426.00,1.3547
5425.00,1.3573
5424.00,1.3596
5423.00,1.3616
5422.00,1.3633
5421.00,1.3646
5420.00,1.3654
5419.00,1.3655
5418.00,1.3651
5417.00,1.3642
5416.00,1.3629
5415.00,1.3612
5414.00,1.3590
5413.00,1.3564
5412.00,1.3531
5411.00,1.3494
5410.00,1.3452
5409.00,1.3406
5408.00,1.3356
5407.00,1.3303
5406.00,1.3248
5405.00,1.3187
5404.00,1.3121
5403.00,1.3048
5402.00,1.2968
5401.00,1.2882
5400.00,1.2790
5399.00,1.2694
5398.00,1.2594
5397.00,1.2488
5396.00,1.2377
5395.00,1.2261
5394.00,1.2141
5393.00,1.2015
5392.00,1.1883
5391.00,1.1747
5390.00,1.1607
5389.00,1.1463
5388.00,1.1316
5387.00,1.1165
5386.00,1.1011
5385.00,1.0855
5384.00,1.0696
5383.00,1.0535
5382.00,1.0374
5381.00,1.0213
5380.00,1.0051
5379.00,0.9887
5378.00,0.9721
5377.00,0.9555
5376.00,0.9389
5375.00,0.9225
5374.00,0.9064
5373.00,0.8907
5372.00,0.8756
5371.00,0.8610
5370.00,0.8471
5369.00,0.8338
5368.00,0.8213
5367.00,0.8096
5366.00,0.7986
5365.00,0.7886
5364.00,0.7794
5363.00,0.7713
5362.00,0.7642
5361.00,0.7583
5360.00,0.7535
5359.00,0.7499
5358.00,0.7474
5357.00,0.7462
5356.00,0.7462
5355.00,0.7475
5354.00,0.7500
5353.00,0.7537
5352.00,0.7585
5351.00,0.7641
5350.00,0.7708
5349.00,0.7785
5348.00,0.7872
5347.00,0.7969
5346.00,0.8076
5345.00,0.8190
5344.00,0.8312
5343.00,0.8438
5342.00,0.8568
5341.00,0.8704
5340.00,0.8844
5339.00,0.8990
5338.00,0.9142
5337.00,0.9299
5336.00,0.9457
5335.00,0.9616
5334.00,0.9777
5333.00,0.9939
5332.00,1.0102
5331.00,1.0265
5330.00,1.0427
5329.00,1.0588
5328.00,1.0747
5327.00,1.0905
5326.00,1.1062
5325.00,1.1216
5324.00,1.1367
5323.00,1.1514
5322.00,1.1657
5321.00,1.1797
5320.00,1.1936
5319.00,1.2072
5318.00,1.2204
5317.00,1.2332
5316.00,1.2454
5315.00,1.2569
5314.00,1.2680
5313.00,1.2788
5312.00,1.2894
5311.00,1.2998
5310.00,1.3096
5309.00,1.3189
5308.00,1.3275
5307.00,1.3356
5306.00,1.3433
5305.00,1.3505
5304.00,1.3571
5303.00,1.3631
5302.00,1.3684
5301.00,1.3733
5300.00,1.3779
5299.00,1.3822
5298.00,1.3862
5297.00,1.3897
5296.00,1.3927
5295.00,1.3950
5294.00,1.3967
5293.00,1.3980
5292.00,1.3988
5291.00,1.3994
5290.00,1.3995
5289.00,1.3990
5288.00,1.3981
5287.00,1.3969
5286.00,1.3953
5285.00,1.3933
5284.00,1.3908
5283.00,1.3877
5282.00,1.3838
5281.00,1.3794
5280.00,1.3746
5279.00,1.3696
5278.00,1.3643
5277.00,1.3588
5276.00,1.3529
5275.00,1.3464
5274.00,1.3392
5273.00,1.3313
5272.00,1.3228
5271.00,1.3139
5270.00,1.3045
5269.00,1.2946
5268.00,1.2843
5267.00,1.2736
5266.00,1.2623
5265.00,1.2506
5264.00,1.2383
5263.00,1.2255
5262.00,1.2124
5261.00,1.1988
5260.00,1.1848
5259.00,1.1702
5258.00,1.1550
5257.00,1.1394
5256.00,1.1235
5255.00,1.1074
5254.00,1.0910
5253.00,1.0745
5252.00,1.0579
5251.00,1.0412
5250.00,1.0244
5249.00,1.0074
5248.00,0.9903
5247.00,0.9732
5246.00,0.9563
5245.00,0.9395
5244.00,0.9231
5243.00,0.9070
5242.00,0.8913
5241.00,0.8761
5240.00,0.8615
5239.00,0.8476
5238.00,0.8344
5237.00,0.8220
5236.00,0.8104
5235.00,0.7997
5234.00,0.7899
5233.00,0.7810
5232.00,0.7732
5231.00,0.7666
5230.00,0.7613
5229.00,0.7571
5228.00,0.7542
5227.00,0.7524
5226.00,0.7518
5225.00,0.7524
5224.00,0.7542
5223.00,0.7572
5222.00,0.7614
5221.00,0.7668
5220.00,0.7733
5219.00,0.7809
5218.00,0.7895
5217.00,0.7991
5216.00,0.8094
5215.00,0.8205
5214.00,0.8323
5213.00,0.8447
5212.00,0.8578
5211.00,0.8713
5210.00,0.8853
5209.00,0.8998
5208.00,0.9147
5207.00,0.9300
5206.00,0.9457
5205.00,0.9618
5204.00,0.9780
5203.00,0.9943
5202.00,1.0107
5201.00,1.0271
5200.00,1.0434
5199.00,1.0597
5198.00,1.0759
5197.00,1.0919
5196.00,1.1077
5195.00,1.1234
5194.00,1.1390
5193.00,1.1544
5192.00,1.1696
5191.00,1.1844
5190.00,1.1989
5189.00,1.2127
5188.00,1.2260
5187.00,1.2388
5186.00,1.2512
5185.00,1.2634
5184.00,1.2754
5183.00,1.2872
5182.00,1.2985
5181.00,1.3092
5180.00,1.3192
5179.00,1.3285
5178.00,1.3373
5177.00,1.3458
5176.00,1.3540
5175.00,1.3621
5174.00,1.3698
5173.00,1.3767
5172.00,1.3829
5171.00,1.3884
5170.00,1.3932
5169.00,1.3975
5168.00,1.4015
5167.00,1.4053
5166.00,1.4088
5165.00,1.4119
5164.00,1.4146
5163.00,1.4167
5162.00,1.4183
5161.00,1.4193
5160.00,1.4198
5159.00,1.4198
5158.00,1.4193
5157.00,1.4182
5156.00,1.4165
5155.00,1.4144
5154.00,1.4119
5153.00,1.4092
5152.00,1.4062
5151.00,1.4029
5150.00,1.3992
5149.00,1.3950
5148.00,1.3900
5147.00,1.3842
5146.00,1.3778
5145.00,1.3709
5144.00,1.3637
5143.00,1.3562
5142.00,1.3485
5141.00,1.3405
5140.00,1.3318
5139.00,1.3225
5138.00,1.3125
5137.00,1.3018
5136.00,1.2905
5135.00,1.2786
5134.00,1.2664
5133.00,1.2536
5132.00,1.2403
5131.00,1.2265
5130.00,1.2123
5129.00,1.1977
5128.00,1.1828
5127.00,1.1674
5126.00,1.1515
5125.00,1.1351
5124.00,1.1183
5123.00,1.1012
5122.00,1.0838
5121.00,1.0662
5120.00,1.0485
5119.00,1.0306
5118.00,1.0127
5117.00,0.9948
5116.00,0.9770
5115.00,0.9593
5114.00,0.9418
5113.00,0.9246
5112.00,0.9077
5111.00,0.8913
5110.00,0.8753
5109.00,0.8601
5108.00,0.8455
5107.00,0.8318
5106.00,0.8189
5105.00,0.8071
5104.00,0.7962
5103.00,0.7863
5102.00,0.7776
5101.00,0.7702
5100.00,0.7641
5099.00,0.7592
5098.00,0.7556
5097.00,0.7534
5096.00,0.7524
5095.00,0.7528
5094.00,0.7546
5093.00,0.7578
5092.00,0.7623
5091.00,0.7680
5090.00,0.7750
5089.00,0.7830
5088.00,0.7922
5087.00,0.8023
5086.00,0.8135
5085.00,0.8254
5084.00,0.8381
5083.00,0.8515
5082.00,0.8656
5081.00,0.8803
5080.00,0.8956
5079.00,0.9114
5078.00,0.9277
5077.00,0.9441
5076.00,0.9608
5075.00,0.9776
5074.00,0.9947
5073.00,1.0119
5072.00,1.0293
5071.00,1.0467
5070.00,1.0640
5069.00,1.0810
5068.00,1.0980
5067.00,1.1148
5066.00,1.1316
5065.00,1.1482
5064.00,1.1646
5063.00,1.1807
5062.00,1.1965
5061.00,1.2119
5060.00,1.2269
5059.00,1.2415
5058.00,1.2555
5057.00,1.2689
5056.00,1.2818
5055.00,1.2942
5054.00,1.3062
5053.00,1.3178
5052.00,1.3288
5051.00,1.3395
5050.00,1.3497
5049.00,1.3595
5048.00,1.3689
5047.00,1.3778
5046.00,1.3860
5045.00,1.3935
5044.00,1.4002
5043.00,1.4065
5042.00,1.4123
5041.00,1.4180
5040.00,1.4233
5039.00,1.4283
5038.00,1.4328
5037.00,1.4366
5036.00,1.4397
5035.00,1.4423
5034.00,1.4445
5033.00,1.4464
5032.00,1.4480
5031.00,1.4491
5030.00,1.4495
5029.00,1.4493
5028.00,1.4485
5027.00,1.4472
5026.00,1.4455
5025.00,1.4434
5024.00,1.4408
5023.00,1.4378
5022.00,1.4345
5021.00,1.4306
5020.00,1.4264
5019.00,1.4216
5018.00,1.4163
5017.00,1.4104
5016.00,1.4039
5015.00,1.3970
5014.00,1.3897
5013.00,1.3820
5012.00,1.3740
5011.00,1.3655
5010.00,1.3566
5009.00,1.3470
5008.00,1.3367
5007.00,1.3258
5006.00,1.3144
5005.00,1.3025
5004.00,1.2902
5003.00,1.2775
5002.00,1.2644
5001.00,1.2507
5000.00,1.2363
4999.00,1.2213
4998.00,1.2056
4997.00,1.1894
4996.00,1.1727
4995.00,1.1556
4994.00,1.1382
4993.00,1.1204
4992.00,1.1022
4991.00,1.0837
4990.00,1.0649
4989.00,1.0459
4988.00,1.0267
4987.00,1.0074
4986.00,0.9882
4985.00,0.9691
4984.00,0.9503
4983.00,0.9319
4982.00,0.9139
4981.00,0.8962
4980.00,0.8791
4979.00,0.8626
4978.00,0.8468
4977.00,0.8319
4976.00,0.8178
4975.00,0.8048
4974.00,0.7928
4973.00,0.7819
4972.00,0.7723
4971.00,0.7639
4970.00,0.7568
4969.00,0.7509
4968.00,0.7465
4967.00,0.7435
4966.00,0.7420
4965.00,0.7420
4964.00,0.7434
4963.00,0.7463
4962.00,0.7505
4961.00,0.7561
4960.00,0.7632
4959.00,0.7715
4958.00,0.7811
4957.00,0.7918
4956.00,0.8035
4955.00,0.8161
4954.00,0.8295
4953.00,0.8437
4952.00,0.8587
4951.00,0.8743
4950.00,0.8904
4949.00,0.9071
4948.00,0.9243
4947.00,0.9418
4946.00,0.9597
4945.00,0.9777
4944.00,0.9958
4943.00,1.0140
4942.00,1.0323
4941.00,1.0505
4940.00,1.0686
4939.00,1.0867
4938.00,1.1047
4937.00,1.1225
4936.00,1.1402
4935.00,1.1577
4934.00,1.1748
4933.00,1.1916
4932.00,1.2081
4931.00,1.2241
4930.00,1.2398
4929.00,1.2551
4928.00,1.2698
4927.00,1.2840
4926.00,1.2978
4925.00,1.3111
4924.00,1.3239
4923.00,1.3362
4922.00,1.3478
4921.00,1.3589
4920.00,1.3693
4919.00,1.3793
4918.00,1.3888
4917.00,1.3978
4916.00,1.4063
4915.00,1.4143
4914.00,1.4220
4913.00,1.4291
4912.00,1.4357
4911.00,1.4416
4910.00,1.4468
4909.00,1.4516
4908.00,1.4560
4907.00,1.4602
4906.00,1.4641
4905.00,1.4676
4904.00,1.4703
4903.00,1.4721
4902.00,1.4734
4901.00,1.4742
4900.00,1.4746
4899.00,1.4746
4898.00,1.4742
4897.00,1.4733
4896.00,1.4719
4895.00,1.4702
4894.00,1.4684
4893.00,1.4662
4892.00,1.4634
4891.00,1.4599
4890.00,1.4558
4889.00,1.4509
4888.00,1.4456
4887.00,1.4398
4886.00,1.4337
4885.00,1.4273
4884.00,1.4203
4883.00,1.4127
4882.00,1.4046
4881.00,1.3961
4880.00,1.3871
4879.00,1.3775
4878.00,1.3672
4877.00,1.3561
4876.00,1.3443
4875.00,1.3321
4874.00,1.3194
4873.00,1.3062
4872.00,1.2925
4871.00,1.2781
4870.00,1.2631
4869.00,1.2475
4868.00,1.2314
4867.00,1.2149
4866.00,1.1979
4865.00,1.1804
4864.00,1.1624
4863.00,1.1441
4862.00,1.1253
4861.00,1.1062
4860.00,1.0868
4859.00,1.0671
4858.00,1.0472
4857.00,1.0273
4856.00,1.0073
4855.00,0.9875
4854.00,0.9678
4853.00,0.9485
4852.00,0.9294
4851.00,0.9109
4850.00,0.8929
4849.00,0.8755
4848.00,0.8589
4847.00,0.8431
4846.00,0.8282
4845.00,0.8143
4844.00,0.8015
4843.00,0.7899
4842.00,0.7796
4841.00,0.7706
4840.00,0.7630
4839.00,0.7569
4838.00,0.7524
4837.00,0.7494
4836.00,0.7480
4835.00,0.7482
4834.00,0.7500
4833.00,0.7533
4832.00,0.7581
4831.00,0.7644
4830.00,0.7721
4829.00,0.7812
4828.00,0.7915
4827.00,0.8029
4826.00,0.8154
4825.00,0.8290
4824.00,0.8434
4823.00,0.8587
4822.00,0.8747
4821.00,0.8913
4820.00,0.9085
4819.00,0.9262
4818.00,0.9444
4817.00,0.9630
4816.00,0.9819
4815.00,1.0010
4814.00,1.0201
4813.00,1.0393
4812.00,1.0583
4811.00,1.0773
4810.00,1.0962
4809.00,1.1151
4808.00,1.1338
4807.00,1.1525
4806.00,1.1710
4805.00,1.1894
4804.00,1.2073
4803.00,1.2248
4802.00,1.2417
4801.00,1.2580
4800.00,1.2738
4799.00,1.2892
4798.00,1.3042
4797.00,1.3187
4796.00,1.3326
4795.00,1.3458
4794.00,1.3582
4793.00,1.3702
4792.00,1.3818
4791.00,1.3932
4790.00,1.4042
4789.00,1.4146
4788.00,1.4243
4787.00,1.4334
4786.00,1.4420
4785.00,1.4499
4784.00,1.4571
4783.00,1.4636
4782.00,1.4695
4781.00,1.4750
4780.00,1.4802
4779.00,1.4852
4778.00,1.4897
4777.00,1.4937
4776.00,1.4970
4775.00,1.4998
4774.00,1.5021
4773.00,1.5038
4772.00,1.5049
4771.00,1.5055
4770.00,1.5057
4769.00,1.5055
4768.00,1.5052
4767.00,1.5045
4766.00,1.5034
4765.00,1.5017
4764.00,1.4992
4763.00,1.4959
4762.00,1.4921
4761.00,1.4877
4760.00,1.4831
4759.00,1.4783
4758.00,1.4734
4757.00,1.4679
4756.00,1.4618
4755.00,1.4550
4754.00,1.4475
4753.00,1.4394
4752.00,1.4308
4751.00,1.4218
4750.00,1.4124
4749.00,1.4025
4748.00,1.3920
4747.00,1.3808
4746.00,1.3689
4745.00,1.3564
4744.00,1.3433
4743.00,1.3297
4742.00,1.3156
4741.00,1.3009
4740.00,1.2856
4739.00,1.2696
4738.00,1.2531
4737.00,1.2361
4736.00,1.2186
4735.00,1.2006
4734.00,1.1820
4733.00,1.1629
4732.00,1.1432
4731.00,1.1232
4730.00,1.1030
4729.00,1.0826
4728.00,1.0619
4727.00,1.0412
4726.00,1.0203
4725.00,0.9996
4724.00,0.9790
4723.00,0.9587
4722.00,0.9388
4721.00,0.9193
4720.00,0.9004
4719.00,0.8822
4718.00,0.8648
4717.00,0.8483
4716.00,0.8328
4715.00,0.8184
4714.00,0.8051
4713.00,0.7931
4712.00,0.7824
4711.00,0.7732
4710.00,0.7655
4709.00,0.7596
4708.00,0.7553
4707.00,0.7527
4706.00,0.7519
4705.00,0.7528
4704.00,0.7553
4703.00,0.7596
4702.00,0.7654
4701.00,0.7728
4700.00,0.7817
4699.00,0.7920
4698.00,0.8037
4697.00,0.8166
4696.00,0.8307
4695.00,0.8458
4694.00,0.8617
4693.00,0.8785
4692.00,0.8960
4691.00,0.9141
4690.00,0.9327
4689.00,0.9518
4688.00,0.9711
4687.00,0.9908
4686.00,1.0107
4685.00,1.0308
4684.00,1.0509
4683.00,1.0709
4682.00,1.0908
4681.00,1.1106
4680.00,1.1302
4679.00,1.1497
4678.00,1.1689
4677.00,1.1878
4676.00,1.2064
4675.00,1.2245
4674.00,1.2422
4673.00,1.2594
4672.00,1.2760
4671.00,1.2922
4670.00,1.3080
4669.00,1.3235
4668.00,1.3384
4667.00,1.3526
4666.00,1.3662
4665.00,1.3792
4664.00,1.3918
4663.00,1.4042
4662.00,1.4161
4661.00,1.4275
4660.00,1.4381
4659.00,1.4479
4658.00,1.4569
4657.00,1.4656
4656.00,1.4740
4655.00,1.4821
4654.00,1.4898
4653.00,1.4970
4652.00,1.5034
4651.00,1.5091
4650.00,1.5145
4649.00,1.5195
4648.00,1.5243
4647.00,1.5286
4646.00,1.5324
4645.00,1.5356
4644.00,1.5382
4643.00,1.5402
4642.00,1.5414
4641.00,1.5420
4640.00,1.5422
4639.00,1.5421
4638.00,1.5417
4637.00,1.5411
4636.00,1.5400
4635.00,1.5384
4634.00,1.5363
4633.00,1.5338
4632.00,1.5307
4631.00,1.5270
4630.00,1.5226
4629.00,1.5177
4628.00,1.5123
4627.00,1.5065
4626.00,1.5002
4625.00,1.4934
4624.00,1.4860
4623.00,1.4780
4622.00,1.4695
4621.00,1.4605
4620.00,1.4510
4619.00,1.4409
4618.00,1.4304
4617.00,1.4194
4616.00,1.4078
4615.00,1.3957
4614.00,1.3831
4613.00,1.3696
4612.00,1.3555
4611.00,1.3406
4610.00,1.3251
4609.00,1.3091
4608.00,1.2925
4607.00,1.2752
4606.00,1.2573
4605.00,1.2387
4604.00,1.2195
4603.00,1.1999
4602.00,1.1798
4601.00,1.1592
4600.00,1.1383
4599.00,1.1170
4598.00,1.0955
4597.00,1.0738
4596.00,1.0519
4595.00,1.0301
4594.00,1.0084
4593.00,0.9869
4592.00,0.9658
4591.00,0.9450
4590.00,0.9248
4589.00,0.9052
4588.00,0.8863
4587.00,0.8683
4586.00,0.8513
4585.00,0.8354
4584.00,0.8208
4583.00,0.8074
4582.00,0.7955
4581.00,0.7852
4580.00,0.7765
4579.00,0.7694
4578.00,0.7642
4577.00,0.7608
4576.00,0.7592
4575.00,0.7594
4574.00,0.7614
4573.00,0.7652
4572.00,0.7708
4571.00,0.7781
4570.00,0.7870
4569.00,0.7974
4568.00,0.8093
4567.00,0.8224
4566.00,0.8367
4565.00,0.8522
4564.00,0.8686
4563.00,0.8859
4562.00,0.9041
4561.00,0.9229
4560.00,0.9424
4559.00,0.9622
4558.00,0.9825
4557.00,1.0030
4556.00,1.0238
4555.00,1.0447
4554.00,1.0658
4553.00,1.0869
4552.00,1.1080
4551.00,1.1289
4550.00,1.1497
4549.00,1.1705
4548.00,1.1910
4547.00,1.2112
4546.00,1.2310
4545.00,1.2502
4544.00,1.2690
4543.00,1.2874
4542.00,1.3053
4541.00,1.3227
4540.00,1.3395
4539.00,1.3558
4538.00,1.3715
4537.00,1.3866
4536.00,1.4010
4535.00,1.4148
4534.00,1.4278
4533.00,1.4400
4532.00,1.4516
4531.00,1.4626
4530.00,1.4733
4529.00,1.4837
4528.00,1.4937
4527.00,1.5030
4526.00,1.5116
4525.00,1.5194
4524.00,1.5268
4523.00,1.5337
4522.00,1.5402
4521.00,1.5460
4520.00,1.5513
4519.00,1.5560
4518.00,1.5603
4517.00,1.5642
4516.00,1.5676
4515.00,1.5704
4514.00,1.5725
4513.00,1.5742
4512.00,1.5754
4511.00,1.5761
4510.00,1.5762
4509.00,1.5757
4508.00,1.5747
4507.00,1.5733
4506.00,1.5717
4505.00,1.5698
4504.00,1.5675
4503.00,1.5648
4502.00,1.5616
4501.00,1.5578
4500.00,1.5534
4499.00,1.5481
4498.00,1.5421
4497.00,1.5354
4496.00,1.5283
4495.00,1.5208
4494.00,1.5131
4493.00,1.5050
4492.00,1.4964
4491.00,1.4870
4490.00,1.4769
4489.00,1.4661
4488.00,1.4546
4487.00,1.4426
4486.00,1.4300
4485.00,1.4169
4484.00,1.4031
4483.00,1.3888
4482.00,1.3738
4481.00,1.3581
4480.00,1.3417
4479.00,1.3246
4478.00,1.3069
4477.00,1.2886
4476.00,1.2697
4475.00,1.2501
4474.00,1.2300
4473.00,1.2092
4472.00,1.1877
4471.00,1.1657
4470.00,1.1433
4469.00,1.1206
4468.00,1.0978
4467.00,1.0749
4466.00,1.0520
4465.00,1.0293
4464.00,1.0066
4463.00,0.9841
4462.00,0.9619
4461.00,0.9404
4460.00,0.9195
4459.00,0.8995
4458.00,0.8805
4457.00,0.8625
4456.00,0.8457
4455.00,0.8301
4454.00,0.8161
4453.00,0.8035
4452.00,0.7925
4451.00,0.7833
4450.00,0.7759
4449.00,0.7704
4448.00,0.7670
4447.00,0.7655
4446.00,0.7660
4445.00,0.7684
4444.00,0.7728
4443.00,0.7791
4442.00,0.7872
4441.00,0.7970
4440.00,0.8084
4439.00,0.8214
4438.00,0.8358
4437.00,0.8514
4436.00,0.8682
4435.00,0.8859
4434.00,0.9045
4433.00,0.9239
4432.00,0.9439
4431.00,0.9645
4430.00,0.9857
4429.00,1.0074
4428.00,1.0295
4427.00,1.0518
4426.00,1.0742
4425.00,1.0965
4424.00,1.1187
4423.00,1.1409
4422.00,1.1629
4421.00,1.1848
4420.00,1.2067
4419.00,1.2282
4418.00,1.2494
4417.00,1.2700
4416.00,1.2900
4415.00,1.3094
4414.00,1.3282
4413.00,1.3467
4412.00,1.3646
4411.00,1.3820
4410.00,1.3988
4409.00,1.4149
4408.00,1.4303
4407.00,1.4450
4406.00,1.4590
4405.00,1.4722
4404.00,1.4848
4403.00,1.4969
4402.00,1.5084
4401.00,1.5194
4400.00,1.5299
4399.00,1.5398
4398.00,1.5493
4397.00,1.5582
4396.00,1.5667
4395.00,1.5745
4394.00,1.5817
4393.00,1.5881
4392.00,1.5939
4391.00,1.5991
4390.00,1.6041
4389.00,1.6087
4388.00,1.6131
4387.00,1.6170
4386.00,1.6204
4385.00,1.6231
4384.00,1.6251
4383.00,1.6266
4382.00,1.6277
4381.00,1.6284
4380.00,1.6285
4379.00,1.6281
4378.00,1.6275
4377.00,1.6268
4376.00,1.6259
4375.00,1.6246
4374.00,1.6226
4373.00,1.6198
4372.00,1.6163
4371.00,1.6122
4370.00,1.6076
4369.00,1.6026
4368.00,1.5972
4367.00,1.5915
4366.00,1.5855
4365.00,1.5791
4364.00,1.5722
4363.00,1.5646
4362.00,1.5564
4361.00,1.5475
4360.00,1.5381
4359.00,1.5282
4358.00,1.5177
4357.00,1.5066
4356.00,1.4949
4355.00,1.4826
4354.00,1.4697
4353.00,1.4563
4352.00,1.4423
4351.00,1.4278
4350.00,1.4126
4349.00,1.3967
4348.00,1.3802
4347.00,1.3630
4346.00,1.3452
4345.00,1.3269
4344.00,1.3079
4343.00,1.2882
4342.00,1.2678
4341.00,1.2468
4340.00,1.2252
4339.00,1.2032
4338.00,1.1807
4337.00,1.1578
4336.00,1.1346
4335.00,1.1113
4334.00,1.0880
4333.00,1.0648
4332.00,1.0420
4331.00,1.0195
4330.00,0.9975
4329.00,0.9762
4328.00,0.9558
4327.00,0.9364
4326.00,0.9183
4325.00,0.9015
4324.00,0.8861
4323.00,0.8723
4322.00,0.8602
4321.00,0.8498
4320.00,0.8414
4319.00,0.8348
4318.00,0.8302
4317.00,0.8276
4316.00,0.8271
4315.00,0.8284
4314.00,0.8318
4313.00,0.8370
4312.00,0.8439
4311.00,0.8526
4310.00,0.8628
4309.00,0.8745
4308.00,0.8877
4307.00,0.9023
4306.00,0.9181
4305.00,0.9350
4304.00,0.9529
4303.00,0.9717
4302.00,0.9912
4301.00,1.0113
4300.00,1.0319
4299.00,1.0531
4298.00,1.0746
4297.00,1.0964
4296.00,1.1185
4295.00,1.1407
4294.00,1.1630
4293.00,1.1852
4292.00,1.2071
4291.00,1.2288
4290.00,1.2501
4289.00,1.2713
4288.00,1.2920
4287.00,1.3124
4286.00,1.3321
4285.00,1.3514
4284.00,1.3699
4283.00,1.3879
4282.00,1.4052
4281.00,1.4219
4280.00,1.4380
4279.00,1.4535
4278.00,1.4683
4277.00,1.4825
4276.00,1.4962
4275.00,1.5092
4274.00,1.5216
4273.00,1.5336
4272.00,1.5452
4271.00,1.5562
4270.00,1.5667
4269.00,1.5766
4268.00,1.5859
4267.00,1.5946
4266.00,1.6028
4265.00,1.6106
4264.00,1.6180
4263.00,1.6248
4262.00,1.6310
4261.00,1.6366
4260.00,1.6415
4259.00,1.6458
4258.00,1.6497
4257.00,1.6532
4256.00,1.6564
4255.00,1.6594
4254.00,1.6619
4253.00,1.6640
4252.00,1.6654
4251.00,1.6663
4250.00,1.6666
4249.00,1.6664
4248.00,1.6655
4247.00,1.6640
4246.00,1.6619
4245.00,1.6595
4244.00,1.6570
4243.00,1.6544
4242.00,1.6512
4241.00,1.6473
4240.00,1.6426
4239.00,1.6374
4238.00,1.6318
4237.00,1.6258
4236.00,1.6193
4235.00,1.6122
4234.00,1.6043
4233.00,1.5958
4232.00,1.5867
4231.00,1.5771
4230.00,1.5670
4229.00,1.5564
4228.00,1.5452
4227.00,1.5335
4226.00,1.5214
4225.00,1.5086
4224.00,1.4952
4223.00,1.4811
4222.00,1.4666
4221.00,1.4515
4220.00,1.4358
4219.00,1.4192
4218.00,1.4018
4217.00,1.3837
4216.00,1.3649
4215.00,1.3456
4214.00,1.3257
4213.00,1.3051
4212.00,1.2839
4211.00,1.2622
4210.00,1.2400
4209.00,1.2173
4208.00,1.1943
4207.00,1.1711
4206.00,1.1477
4205.00,1.1241
4204.00,1.1005
4203.00,1.0770
4202.00,1.0538
4201.00,1.0310
4200.00,1.0088
4199.00,0.9874
4198.00,0.9668
4197.00,0.9472
4196.00,0.9287
4195.00,0.9114
4194.00,0.8954
4193.00,0.8811
4192.00,0.8686
4191.00,0.8579
4190.00,0.8492
4189.00,0.8424
4188.00,0.8376
4187.00,0.8350
4186.00,0.8344
4185.00,0.8360
4184.00,0.8395
4183.00,0.8451
4182.00,0.8525
4181.00,0.8619
4180.00,0.8730
4179.00,0.8858
4178.00,0.9000
4177.00,0.9156
4176.00,0.9323
4175.00,0.9501
4174.00,0.9689
4173.00,0.9887
4172.00,1.0092
4171.00,1.0303
4170.00,1.0520
4169.00,1.0741
4168.00,1.0966
4167.00,1.1194
4166.00,1.1423
4165.00,1.1652
4164.00,1.1882
4163.00,1.2112
4162.00,1.2341
4161.00,1.2569
4160.00,1.2792
4159.00,1.3011
4158.00,1.3224
4157.00,1.3434
4156.00,1.3640
4155.00,1.3842
4154.00,1.4040
4153.00,1.4233
4152.00,1.4417
4151.00,1.4594
4150.00,1.4763
4149.00,1.4925
4148.00,1.5081
4147.00,1.5233
4146.00,1.5380
4145.00,1.5521
4144.00,1.5653
4143.00,1.5774
4142.00,1.5888
4141.00,1.5995
4140.00,1.6101
4139.00,1.6204
4138.00,1.6303
4137.00,1.6398
4136.00,1.6487
4135.00,1.6571
4134.00,1.6650
4133.00,1.6722
4132.00,1.6788
4131.00,1.6846
4130.00,1.6896
4129.00,1.6940
4128.00,1.6979
4127.00,1.7016
4126.00,1.7051
4125.00,1.7082
4124.00,1.7109
4123.00,1.7129
4122.00,1.7142
4121.00,1.7149
4120.00,1.7150
4119.00,1.7145
4118.00,1.7137
4117.00,1.7127
4116.00,1.7114
4115.00,1.7096
4114.00,1.7071
4113.00,1.7039
4112.00,1.7003
4111.00,1.6965
4110.00,1.6926
4109.00,1.6881
4108.00,1.6829
4107.00,1.6768
4106.00,1.6700
4105.00,1.6627
4104.00,1.6548
4103.00,1.6464
4102.00,1.6373
4101.00,1.6276
4100.00,1.6174
4099.00,1.6068
4098.00,1.5959
4097.00,1.5844
4096.00,1.5723
4095.00,1.5594
4094.00,1.5454
4093.00,1.5305
4092.00,1.5150
4091.00,1.4990
4090.00,1.4825
4089.00,1.4653
4088.00,1.4472
4087.00,1.4284
4086.00,1.4087
4085.00,1.3884
4084.00,1.3674
4083.00,1.3457
4082.00,1.3233
4081.00,1.3003
4080.00,1.2766
4079.00,1.2523
4078.00,1.2276
4077.00,1.2025
4076.00,1.1772
4075.00,1.1517
4074.00,1.1261
4073.00,1.1005
4072.00,1.0751
4071.00,1.0500
4070.00,1.0253
4069.00,1.0014
4068.00,0.9783
4067.00,0.9564
4066.00,0.9358
4065.00,0.9167
4064.00,0.8993
4063.00,0.8837
4062.00,0.8700
4061.00,0.8585
4060.00,0.8492
4059.00,0.8422
4058.00,0.8376
4057.00,0.8355
4056.00,0.8358
4055.00,0.8385
4054.00,0.8435
4053.00,0.8509
4052.00,0.8604
4051.00,0.8719
4050.00,0.8853
4049.00,0.9003
4048.00,0.9169
4047.00,0.9348
4046.00,0.9540
4045.00,0.9742
4044.00,0.9955
4043.00,1.0175
4042.00,1.0402
4041.00,1.0634
4040.00,1.0871
4039.00,1.1112
4038.00,1.1355
4037.00,1.1600
4036.00,1.1846
4035.00,1.2091
4034.00,1.2336
4033.00,1.2580
4032.00,1.2823
4031.00,1.3062
4030.00,1.3297
4029.00,1.3526
4028.00,1.3750
4027.00,1.3969
4026.00,1.4184
4025.00,1.4393
4024.00,1.4596
4023.00,1.4792
4022.00,1.4980
4021.00,1.5158
4020.00,1.5329
4019.00,1.5492
4018.00,1.5648
4017.00,1.5798
4016.00,1.5942
4015.00,1.6079
4014.00,1.6208
4013.00,1.6330
4012.00,1.6444
4011.00,1.6552
4010.00,1.6656
4009.00,1.6755
4008.00,1.6849
4007.00,1.6937
4006.00,1.7019
4005.00,1.7097
4004.00,1.7171
4003.00,1.7238
4002.00,1.7298
4001.00,1.7351
4000.00,1.7399
3999.00,1.7441
3998.00,1.7478
3997.00,1.7508
3996.00,1.7534
3995.00,1.7554
3994.00,1.7571
3993.00,1.7582
3992.00,1.7590
3991.00,1.7595
3990.00,1.7596
3989.00,1.7591
3988.00,1.7580
3987.00,1.7563
3986.00,1.7540
3985.00,1.7513
3984.00,1.7479
3983.00,1.7439
3982.00,1.7393
3981.00,1.7341
3980.00,1.7286
3979.00,1.7227
3978.00,1.7165
3977.00,1.7097
3976.00,1.7023
3975.00,1.6943
3974.00,1.6856
3973.00,1.6763
3972.00,1.6665
3971.00,1.6562
3970.00,1.6453
3969.00,1.6339
3968.00,1.6217
3967.00,1.6087
3966.00,1.5950
3965.00,1.5807
3964.00,1.5661
3963.00,1.5510
3962.00,1.5354
3961.00,1.5190
3960.00,1.5017
3959.00,1.4838
3958.00,1.4654
3957.00,1.4466
3956.00,1.4273
3955.00,1.4072
3954.00,1.3863
3953.00,1.3646
3952.00,1.3421
3951.00,1.3190
3950.00,1.2953
3949.00,1.2710
3948.00,1.2462
3947.00,1.2208
3946.00,1.1952
3945.00,1.1694
3944.00,1.1433
3943.00,1.1171
3942.00,1.0908
3941.00,1.0649
3940.00,1.0397
3939.00,1.0155
3938.00,0.9923
3937.00,0.9700
3936.00,0.9491
3935.00,0.9296
3934.00,0.9119
3933.00,0.8958
3932.00,0.8816
3931.00,0.8695
3930.00,0.8597
3929.00,0.8526
3928.00,0.8480
3927.00,0.8459
3926.00,0.8465
3925.00,0.8496
3924.00,0.8552
3923.00,0.8632
3922.00,0.8735
3921.00,0.8859
3920.00,0.9005
3919.00,0.9169
3918.00,0.9352
3917.00,0.9554
3916.00,0.9773
3915.00,1.0004
3914.00,1.0242
3913.00,1.0486
3912.00,1.0736
3911.00,1.0991
3910.00,1.1250
3909.00,1.1511
3908.00,1.1770
3907.00,1.2027
3906.00,1.2282
3905.00,1.2540
3904.00,1.2803
3903.00,1.3071
3902.00,1.3340
3901.00,1.3606
3900.00,1.3869
3899.00,1.4127
3898.00,1.4375
3897.00,1.4610
3896.00,1.4833
3895.00,1.5041
3894.00,1.5236
3893.00,1.5421
3892.00,1.5604
3891.00,1.5787
3890.00,1.5967
3889.00,1.6135
3888.00,1.6289
3887.00,1.6435
3886.00,1.6576
3885.00,1.6715
3884.00,1.6848
3883.00,1.6973
3882.00,1.7089
3881.00,1.7199
3880.00,1.7300
3879.00,1.7392
3878.00,1.7475
3877.00,1.7555
3876.00,1.7632
3875.00,1.7706
3874.00,1.7771
3873.00,1.7828
3872.00,1.7878
3871.00,1.7927
3870.00,1.7977
3869.00,1.8022
3868.00,1.8059
3867.00,1.8087
3866.00,1.8110
3865.00,1.8130
3864.00,1.8144
3863.00,1.8154
3862.00,1.8161
3861.00,1.8163
3860.00,1.8159
3859.00,1.8148
3858.00,1.8131
3857.00,1.8110
3856.00,1.8084
3855.00,1.8055
3854.00,1.8021
3853.00,1.7980
3852.00,1.7929
3851.00,1.7873
3850.00,1.7815
3849.00,1.7751
3848.00,1.7677
3847.00,1.7595
3846.00,1.7510
3845.00,1.7420
3844.00,1.7325
3843.00,1.7223
3842.00,1.7113
3841.00,1.6998
3840.00,1.6877
3839.00,1.6749
3838.00,1.6612
3837.00,1.6463
3836.00,1.6302
3835.00,1.6133
3834.00,1.5959
3833.00,1.5777
3832.00,1.5589
3831.00,1.5394
3830.00,1.5192
3829.00,1.4985
3828.00,1.4770
3827.00,1.4543
3826.00,1.4306
3825.00,1.4063
3824.00,1.3817
3823.00,1.3559
3822.00,1.3280
3821.00,1.2976
3820.00,1.2666
3819.00,1.2367
3818.00,1.2082
3817.00,1.1795
3816.00,1.1493
3815.00,1.1179
3814.00,1.0871
3813.00,1.0582
3812.00,1.0311
3811.00,1.0055
3810.00,0.9811
3809.00,0.9581
3808.00,0.9361
3807.00,0.9150
3806.00,0.8952
3805.00,0.8783
3804.00,0.8652
3803.00,0.8558
3802.00,0.8492
3801.00,0.8448
3800.00,0.8428
3799.00,0.8436
3798.00,0.8479
3797.00,0.8557
3796.00,0.8663
3795.00,0.8793
3794.00,0.8945
3793.00,0.9121
3792.00,0.9319
3791.00,0.9535
3790.00,0.9765
3789.00,1.0006
3788.00,1.0257
3787.00,1.0518
3786.00,1.0787
3785.00,1.1065
3784.00,1.1349
3783.00,1.1636
3782.00,1.1920
3781.00,1.2204
3780.00,1.2491
3779.00,1.2781
3778.00,1.3071
3777.00,1.3359
3776.00,1.3642
3775.00,1.3916
3774.00,1.4179
3773.00,1.4428
3772.00,1.4666
3771.00,1.4899
3770.00,1.5131
3769.00,1.5361
3768.00,1.5583
3767.00,1.5795
3766.00,1.5997
3765.00,1.6193
3764.00,1.6380
3763.00,1.6555
3762.00,1.6718
3761.00,1.6873
3760.00,1.7020
3759.00,1.7159
3758.00,1.7290
3757.00,1.7415
3756.00,1.7532
3755.00,1.7637
3754.00,1.7731
3753.00,1.7820
3752.00,1.7909
3751.00,1.8001
3750.00,1.8096
3749.00,1.8192
3748.00,1.8280
3747.00,1.8358
3746.00,1.8434
3745.00,1.8517
3744.00,1.8609
3743.00,1.8705
3742.00,1.8802
3741.00,1.8903
3740.00,1.9003
3739.00,1.9092
3738.00,1.9172
3737.00,1.9248
3736.00,1.9318
3735.00,1.9378
3734.00,1.9429
3733.00,1.9468
3732.00,1.9491
3731.00,1.9497
3730.00,1.9483
3729.00,1.9451
3728.00,1.9396
3727.00,1.9315
3726.00,1.9210
3725.00,1.9083
3724.00,1.8936
3723.00,1.8772
3722.00,1.8603
3721.00,1.8446
3720.00,1.8314
3719.00,1.8203
3718.00,1.8099
3717.00,1.7997
3716.00,1.7904
3715.00,1.7832
3714.00,1.7779
3713.00,1.7727
3712.00,1.7652
3711.00,1.7549
3710.00,1.7426
3709.00,1.7287
3708.00,1.7132
3707.00,1.6957
3706.00,1.6765
3705.00,1.6556
3704.00,1.6329
3703.00,1.6079
3702.00,1.5807
3701.00,1.5516
3700.00,1.5214
3699.00,1.4907
3698.00,1.4598
3697.00,1.4285
3696.00,1.3965
3695.00,1.3646
3694.00,1.3329
3693.00,1.3020
3692.00,1.2715
3691.00,1.2415
3690.00,1.2119
3689.00,1.1827
3688.00,1.1544
3687.00,1.1282
3686.00,1.1049
3685.00,1.0845
3684.00,1.0665
3683.00,1.0506
3682.00,1.0369
3681.00,1.0257
3680.00,1.0173
3679.00,1.0117
3678.00,1.0090
3677.00,1.0096
3676.00,1.0135
3675.00,1.0202
3674.00,1.0289
3673.00,1.0395
3672.00,1.0528
3671.00,1.0697
3670.00,1.0900
3669.00,1.1126
3668.00,1.1360
3667.00,1.1599
3666.00,1.1843
3665.00,1.2094
3664.00,1.2352
3663.00,1.2617
3662.00,1.2887
3661.00,1.3159
3660.00,1.3431
3659.00,1.3700
3658.00,1.3967
3657.00,1.4239
3656.00,1.4516
3655.00,1.4793
3654.00,1.5056
3653.00,1.5301
3652.00,1.5531
3651.00,1.5755
3650.00,1.5979
3649.00,1.6210
3648.00,1.6448
3647.00,1.6690
3646.00,1.6925
3645.00,1.7145
3644.00,1.7352
3643.00,1.7554
3642.00,1.7752
3641.00,1.7948
3640.00,1.8141
3639.00,1.8334
3638.00,1.8527
3637.00,1.8715
3636.00,1.8897
3635.00,1.9074
3634.00,1.9242
3633.00,1.9398
3632.00,1.9541
3631.00,1.9672
3630.00,1.9795
3629.00,1.9911
3628.00,2.0019
3627.00,2.0111
3626.00,2.0182
3625.00,2.0232
3624.00,2.0264
3623.00,2.0280
3622.00,2.0284
3621.00,2.0277
3620.00,2.0264
3619.00,2.0251
3618.00,2.0248
3617.00,2.0258
3616.00,2.0279
3615.00,2.0305
3614.00,2.0338
3613.00,2.0381
3612.00,2.0437
3611.00,2.0499
3610.00,2.0557
3609.00,2.0603
3608.00,2.0634
3607.00,2.0648
3606.00,2.0649
3605.00,2.0642
3604.00,2.0631
3603.00,2.0612
3602.00,2.0584
3601.00,2.0547
3600.00,2.0503
3599.00,2.0453
3598.00,2.0392
3597.00,2.0320
3596.00,2.0243
3595.00,2.0166
3594.00,2.0087
3593.00,2.0006
3592.00,1.9920
3591.00,1.9830
3590.00,1.9738
3589.00,1.9645
3588.00,1.9551
3587.00,1.9452
3586.00,1.9349
3585.00,1.9244
3584.00,1.9140
3583.00,1.9036
3582.00,1.8929
3581.00,1.8819
3580.00,1.8706
3579.00,1.8591
3578.00,1.8474
3577.00,1.8356
3576.00,1.8237
3575.00,1.8116
3574.00,1.7993
3573.00,1.7867
3572.00,1.7740
3571.00,1.7612
3570.00,1.7481
3569.00,1.7348
3568.00,1.7212
3567.00,1.7074
3566.00,1.6937
3565.00,1.6807
3564.00,1.6682
3563.00,1.6562
3562.00,1.6445
3561.00,1.6329
3560.00,1.6217
3559.00,1.6110
3558.00,1.6007
3557.00,1.5908
3556.00,1.5815
3555.00,1.5731
3554.00,1.5659
3553.00,1.5597
3552.00,1.5545
3551.00,1.5500
3550.00,1.5462
3549.00,1.5432
3548.00,1.5411
3547.00,1.5400
3546.00,1.5401
3545.00,1.5414
3544.00,1.5437
3543.00,1.5469
3542.00,1.5510
3541.00,1.5557
3540.00,1.5612
3539.00,1.5674
3538.00,1.5745
3537.00,1.5823
3536.00,1.5910
3535.00,1.6004
3534.00,1.6103
3533.00,1.6206
3532.00,1.6312
3531.00,1.6422
3530.00,1.6534
3529.00,1.6649
3528.00,1.6768
3527.00,1.6892
3526.00,1.7018
3525.00,1.7146
3524.00,1.7273
3523.00,1.7403
3522.00,1.7533
3521.00,1.7662
3520.00,1.7790
3519.00,1.7918
3518.00,1.8044
3517.00,1.8170
3516.00,1.8293
3515.00,1.8413
3514.00,1.8533
3513.00,1.8652
3512.00,1.8771
3511.00,1.8888
3510.00,1.9002
3509.00,1.9114
3508.00,1.9225
3507.00,1.9332
3506.00,1.9434
3505.00,1.9534
3504.00,1.9632
3503.00,1.9728
3502.00,1.9819
3501.00,1.9907
3500.00,1.9993
3499.00,2.0081
3498.00,2.0167
3497.00,2.0249
3496.00,2.0326
3495.00,2.0398
3494.00,2.0465
3493.00,2.0529
3492.00,2.0592
3491.00,2.0654
3490.00,2.0717
3489.00,2.0780
3488.00,2.0839
3487.00,2.0893
3486.00,2.0940
3485.00,2.0982
3484.00,2.1019
3483.00,2.1050
3482.00,2.1077
3481.00,2.1100
3480.00,2.1123
3479.00,2.1146
3478.00,2.1167
3477.00,2.1186
3476.00,2.1203
3475.00,2.1214
3474.00,2.1219
3473.00,2.1219
3472.00,2.1217
3471.00,2.1214
3470.00,2.1210
3469.00,2.1205
3468.00,2.1196
3467.00,2.1179
3466.00,2.1148
3465.00,2.1107
3464.00,2.1063
3463.00,2.1020
3462.00,2.0979
3461.00,2.0939
3460.00,2.0901
3459.00,2.0861
3458.00,2.0815
3457.00,2.0762
3456.00,2.0702
3455.00,2.0635
3454.00,2.0560
3453.00,2.0479
3452.00,2.0393
3451.00,2.0304
3450.00,2.0208
3449.00,2.0109
3448.00,2.0009
3447.00,1.9908
3446.00,1.9806
3445.00,1.9700
3444.00,1.9591
3443.00,1.9477
3442.00,1.9356
3441.00,1.9229
3440.00,1.9098
3439.00,1.8964
3438.00,1.8826
3437.00,1.8685
3436.00,1.8542
3435.00,1.8400
3434.00,1.8257
3433.00,1.8114
3432.00,1.7969
3431.00,1.7824
3430.00,1.7678
3429.00,1.7534
3428.00,1.7392
3427.00,1.7255
3426.00,1.7123
3425.00,1.6998
3424.00,1.6880
3423.00,1.6769
3422.00,1.6668
3421.00,1.6576
3420.00,1.6496
3419.00,1.6426
3418.00,1.6366
3417.00,1.6314
3416.00,1.6272
3415.00,1.6240
3414.00,1.6215
3413.00,1.6200
3412.00,1.6192
3411.00,1.6193
3410.00,1.6198
3409.00,1.6205
3408.00,1.6212
3407.00,1.6217
3406.00,1.6223
3405.00,1.6228
3404.00,1.6232
3403.00,1.6235
3402.00,1.6236
3401.00,1.6239
3400.00,1.6245
3399.00,1.6256
3398.00,1.6274
3397.00,1.6300
3396.00,1.6332
3395.00,1.6371
3394.00,1.6416
3393.00,1.6472
3392.00,1.6539
3391.00,1.6620
3390.00,1.6710
3389.00,1.6809
3388.00,1.6916
3387.00,1.7032
3386.00,1.7155
3385.00,1.7283
3384.00,1.7415
3383.00,1.7552
3382.00,1.7692
3381.00,1.7835
3380.00,1.7978
3379.00,1.8121
3378.00,1.8265
3377.00,1.8412
3376.00,1.8561
3375.00,1.8711
3374.00,1.8858
3373.00,1.9000
3372.00,1.9139
3371.00,1.9273
3370.00,1.9404
3369.00,1.9530
3368.00,1.9650
3367.00,1.9765
3366.00,1.9878
3365.00,1.9991
3364.00,2.0103
3363.00,2.0212
3362.00,2.0314
3361.00,2.0410
3360.00,2.0499
3359.00,2.0584
3358.00,2.0665
3357.00,2.0741
3356.00,2.0812
3355.00,2.0875
3354.00,2.0930
3353.00,2.0982
3352.00,2.1033
3351.00,2.1082
3350.00,2.1124
3349.00,2.1160
3348.00,2.1191
3347.00,2.1219
3346.00,2.1246
3345.00,2.1271
3344.00,2.1288
3343.00,2.1294
3342.00,2.1289
3341.00,2.1282
3340.00,2.1279
3339.00,2.1279
3338.00,2.1272
3337.00,2.1254
3336.00,2.1223
3335.00,2.1185
3334.00,2.1146
3333.00,2.1107
3332.00,2.1068
3331.00,2.1025
3330.00,2.0975
3329.00,2.0919
3328.00,2.0861
3327.00,2.0800
3326.00,2.0734
3325.00,2.0662
3324.00,2.0582
3323.00,2.0494
3322.00,2.0400
3321.00,2.0300
3320.00,2.0197
3319.00,2.0089
3318.00,1.9974
3317.00,1.9853
3316.00,1.9729
3315.00,1.9604
3314.00,1.9473
3313.00,1.9333
3312.00,1.9186
3311.00,1.9034
3310.00,1.8878
3309.00,1.8719
3308.00,1.8555
3307.00,1.8385
3306.00,1.8210
3305.00,1.8032
3304.00,1.7851
3303.00,1.7667
3302.00,1.7478
3301.00,1.7284
3300.00,1.7087
3299.00,1.6892
3298.00,1.6698
3297.00,1.6507
3296.00,1.6319
3295.00,1.6133
3294.00,1.5951
3293.00,1.5774
3292.00,1.5605
3291.00,1.5445
3290.00,1.5295
3289.00,1.5155
3288.00,1.5027
3287.00,1.4912
3286.00,1.4811
3285.00,1.4728
3284.00,1.4661
3283.00,1.4611
3282.00,1.4577
3281.00,1.4560
3280.00,1.4560
3279.00,1.4578
3278.00,1.4613
3277.00,1.4664
3276.00,1.4732
3275.00,1.4816
3274.00,1.4915
3273.00,1.5028
3272.00,1.5155
3271.00,1.5293
3270.00,1.5442
3269.00,1.5600
3268.00,1.5765
3267.00,1.5938
3266.00,1.6117
3265.00,1.6302
3264.00,1.6491
3263.00,1.6684
3262.00,1.6879
3261.00,1.7075
3260.00,1.7271
3259.00,1.7465
3258.00,1.7658
3257.00,1.7849
3256.00,1.8037
3255.00,1.8222
3254.00,1.8405
3253.00,1.8585
3252.00,1.8763
3251.00,1.8936
3250.00,1.9105
3249.00,1.9267
3248.00,1.9424
3247.00,1.9576
3246.00,1.9721
3245.00,1.9862
3244.00,2.0001
3243.00,2.0136
3242.00,2.0267
3241.00,2.0394
3240.00,2.0517
3239.00,2.0635
3238.00,2.0746
3237.00,2.0850
3236.00,2.0948
3235.00,2.1042
3234.00,2.1128
3233.00,2.1207
3232.00,2.1282
3231.00,2.1355
3230.00,2.1428
3229.00,2.1499
3228.00,2.1567
3227.00,2.1629
3226.00,2.1683
3225.00,2.1731
3224.00,2.1773
3223.00,2.1807
3222.00,2.1833
3221.00,2.1851
3220.00,2.1869
3219.00,2.1889
3218.00,2.1910
3217.00,2.1932
3216.00,2.1951
3215.00,2.1962
3214.00,2.1961
3213.00,2.1951
3212.00,2.1938
3211.00,2.1924
3210.00,2.1907
3209.00,2.1886
3208.00,2.1861
3207.00,2.1831
3206.00,2.1794
3205.00,2.1751
3204.00,2.1701
3203.00,2.1646
3202.00,2.1583
3201.00,2.1515
3200.00,2.1444
3199.00,2.1374
3198.00,2.1302
3197.00,2.1226
3196.00,2.1146
3195.00,2.1059
3194.00,2.0964
3193.00,2.0860
3192.00,2.0750
3191.00,2.0636
3190.00,2.0519
3189.00,2.0398
3188.00,2.0273
3187.00,2.0145
3186.00,2.0014
3185.00,1.9880
3184.00,1.9742
3183.00,1.9597
3182.00,1.9443
3181.00,1.9282
3180.00,1.9116
3179.00,1.8945
3178.00,1.8770
3177.00,1.8593
3176.00,1.8414
3175.00,1.8235
3174.00,1.8053
3173.00,1.7867
3172.00,1.7678
3171.00,1.7489
3170.00,1.7303
3169.00,1.7122
3168.00,1.6948
3167.00,1.6779
3166.00,1.6616
3165.00,1.6458
3164.00,1.6308
3163.00,1.6165
3162.00,1.6033
3161.00,1.5912
3160.00,1.5803
3159.00,1.5707
3158.00,1.5626
3157.00,1.5560
3156.00,1.5511
3155.00,1.5477
3154.00,1.5461
3153.00,1.5462
3152.00,1.5483
3151.00,1.5522
3150.00,1.5579
3149.00,1.5652
3148.00,1.5739
3147.00,1.5840
3146.00,1.5952
3145.00,1.6077
3144.00,1.6214
3143.00,1.6362
3142.00,1.6519
3141.00,1.6686
3140.00,1.6859
3139.00,1.7040
3138.00,1.7227
3137.00,1.7418
3136.00,1.7612
3135.00,1.7807
3134.00,1.8003
3133.00,1.8200
3132.00,1.8396
3131.00,1.8592
3130.00,1.8787
3129.00,1.8979
3128.00,1.9165
3127.00,1.9344
3126.00,1.9518
3125.00,1.9689
3124.00,1.9857
3123.00,2.0022
3122.00,2.0183
3121.00,2.0342
3120.00,2.0494
3119.00,2.0637
3118.00,2.0771
3117.00,2.0900
3116.00,2.1024
3115.00,2.1141
3114.00,2.1248
3113.00,2.1348
3112.00,2.1447
3111.00,2.1547
3110.00,2.1646
3109.00,2.1739
3108.00,2.1822
3107.00,2.1896
3106.00,2.1969
3105.00,2.2044
3104.00,2.2119
3103.00,2.2186
3102.00,2.2242
3101.00,2.2290
3100.00,2.2335
3099.00,2.2379
3098.00,2.2418
3097.00,2.2451
3096.00,2.2474
3095.00,2.2488
3094.00,2.2495
3093.00,2.2500
3092.00,2.2506
3091.00,2.2510
3090.00,2.2506
3089.00,2.2492
3088.00,2.2469
3087.00,2.2444
3086.00,2.2420
3085.00,2.2393
3084.00,2.2355
3083.00,2.2304
3082.00,2.2244
3081.00,2.2183
3080.00,2.2123
3079.00,2.2059
3078.00,2.1984
3077.00,2.1898
3076.00,2.1801
3075.00,2.1697
3074.00,2.1590
3073.00,2.1480
3072.00,2.1369
3071.00,2.1251
3070.00,2.1124
3069.00,2.0988
3068.00,2.0844
3067.00,2.0691
3066.00,2.0530
3065.00,2.0360
3064.00,2.0185
3063.00,2.0006
3062.00,1.9825
3061.00,1.9643
3060.00,1.9459
3059.00,1.9267
3058.00,1.9067
3057.00,1.8859
3056.00,1.8649
3055.00,1.8442
3054.00,1.8237
3053.00,1.8036
3052.00,1.7836
3051.00,1.7637
3050.00,1.7440
3049.00,1.7250
3048.00,1.7070
3047.00,1.6902
3046.00,1.6748
3045.00,1.6609
3044.00,1.6489
3043.00,1.6391
3042.00,1.6318
3041.00,1.6271
3040.00,1.6254
3039.00,1.6265
3038.00,1.6306
3037.00,1.6374
3036.00,1.6469
3035.00,1.6588
3034.00,1.6731
3033.00,1.6897
3032.00,1.7085
3031.00,1.7293
3030.00,1.7515
3029.00,1.7749
3028.00,1.7990
3027.00,1.8238
3026.00,1.8493
3025.00,1.8753
3024.00,1.9017
3023.00,1.9281
3022.00,1.9541
3021.00,1.9798
3020.00,2.0051
3019.00,2.0303
3018.00,2.0551
3017.00,2.0793
3016.00,2.1025
3015.00,2.1247
3014.00,2.1459
3013.00,2.1663
3012.00,2.1858
3011.00,2.2043
3010.00,2.2219
3009.00,2.2389
3008.00,2.2550
3007.00,2.2699
3006.00,2.2833
3005.00,2.2957
3004.00,2.3078
3003.00,2.3195
3002.00,2.3301
3001.00,2.3388
3000.00,2.3456
2999.00,2.3510
2998.00,2.3557
2997.00,2.3599
2996.00,2.3631
2995.00,2.3649
2994.00,2.3646
2993.00,2.3627
2992.00,2.3596
2991.00,2.3559
2990.00,2.3517
2989.00,2.3475
2988.00,2.3434
2987.00,2.3396
2986.00,2.3364
2985.00,2.3342
2984.00,2.3336
2983.00,2.3361
2982.00,2.3433
2981.00,2.3568
2980.00,2.3774
2979.00,2.4051
2978.00,2.4396
2977.00,2.4809
2976.00,2.5292
2975.00,2.5844
2974.00,2.6463
2973.00,2.7152
2972.00,2.7911
2971.00,2.8729
2970.00,2.9586
2969.00,3.0466
2968.00,3.1367
2967.00,3.2287
2966.00,3.3206
2965.00,3.4093
2964.00,3.4918
2963.00,3.5678
2962.00,3.6438
2961.00,3.7347
2960.00,3.8508
2959.00,3.9754
2958.00,4.0529
2957.00,4.0483
2956.00,4.0056
2955.00,3.9821
2954.00,3.9997
2953.00,4.0510
2952.00,4.1019
2951.00,4.1176
2950.00,4.1136
2949.00,4.1296
2948.00,4.1772
2947.00,4.2311
2946.00,4.2709
2945.00,4.3016
2944.00,4.3158
2943.00,4.2962
2942.00,4.2555
2941.00,4.2167
2940.00,4.1888
2939.00,4.1639
2938.00,4.1264
2937.00,4.0709
2936.00,4.0162
2935.00,4.0040
2934.00,4.0637
2933.00,4.1869
2932.00,4.3172
2931.00,4.3974
2930.00,4.4286
2929.00,4.4321
2928.00,4.3932
2927.00,4.3282
2926.00,4.2479
2925.00,4.1521
2924.00,4.0740
2923.00,4.0328
2922.00,4.0076
2921.00,3.9548
2920.00,3.8676
2919.00,3.7794
2918.00,3.7115
2917.00,3.6587
2916.00,3.6028
2915.00,3.5349
2914.00,3.4646
2913.00,3.4046
2912.00,3.3564
2911.00,3.3125
2910.00,3.2692
2909.00,3.2305
2908.00,3.2012
2907.00,3.1789
2906.00,3.1568
2905.00,3.1306
2904.00,3.1021
2903.00,3.0750
2902.00,3.0517
2901.00,3.0325
2900.00,3.0165
2899.00,3.0026
2898.00,2.9892
2897.00,2.9749
2896.00,2.9582
2895.00,2.9387
2894.00,2.9184
2893.00,2.9006
2892.00,2.8874
2891.00,2.8770
2890.00,2.8663
2889.00,2.8539
2888.00,2.8416
2887.00,2.8315
2886.00,2.8246
2885.00,2.8215
2884.00,2.8231
2883.00,2.8303
2882.00,2.8433
2881.00,2.8614
2880.00,2.8839
2879.00,2.9098
2878.00,2.9387
2877.00,2.9724
2876.00,3.0141
2875.00,3.0645
2874.00,3.1199
2873.00,3.1757
2872.00,3.2320
2871.00,3.2936
2870.00,3.3625
2869.00,3.4361
2868.00,3.5140
2867.00,3.6017
2866.00,3.6991
2865.00,3.7925
2864.00,3.8662
2863.00,3.9063
2862.00,3.9018
2861.00,3.8606
2860.00,3.8030
2859.00,3.7364
2858.00,3.6539
2857.00,3.5557
2856.00,3.4488
2855.00,3.3410
2854.00,3.2381
2853.00,3.1416
2852.00,3.0508
2851.00,2.9658
2850.00,2.8881
2849.00,2.8184
2848.00,2.7560
2847.00,2.6985
2846.00,2.6438
2845.00,2.5914
2844.00,2.5414
2843.00,2.4939
2842.00,2.4479
2841.00,2.4029
2840.00,2.3584
2839.00,2.3148
2838.00,2.2727
2837.00,2.2324
2836.00,2.1942
2835.00,2.1578
2834.00,2.1237
2833.00,2.0923
2832.00,2.0637
2831.00,2.0376
2830.00,2.0135
2829.00,1.9911
2828.00,1.9703
2827.00,1.9508
2826.00,1.9325
2825.00,1.9152
2824.00,1.8989
2823.00,1.8840
2822.00,1.8709
2821.00,1.8602
2820.00,1.8526
2819.00,1.8487
2818.00,1.8490
2817.00,1.8536
2816.00,1.8626
2815.00,1.8758
2814.00,1.8925
2813.00,1.9120
2812.00,1.9336
2811.00,1.9568
2810.00,1.9814
2809.00,2.0071
2808.00,2.0333
2807.00,2.0595
2806.00,2.0853
2805.00,2.1105
2804.00,2.1352
2803.00,2.1592
2802.00,2.1824
2801.00,2.2049
2800.00,2.2264
2799.00,2.2461
2798.00,2.2636
2797.00,2.2785
2796.00,2.2918
2795.00,2.3042
2794.00,2.3164
2793.00,2.3279
2792.00,2.3383
2791.00,2.3475
2790.00,2.3560
2789.00,2.3646
2788.00,2.3732
2787.00,2.3811
2786.00,2.3874
2785.00,2.3920
2784.00,2.3954
2783.00,2.3982
2782.00,2.4007
2781.00,2.4029
2780.00,2.4048
2779.00,2.4063
2778.00,2.4074
2777.00,2.4075
2776.00,2.4064
2775.00,2.4042
2774.00,2.4011
2773.00,2.3973
2772.00,2.3926
2771.00,2.3872
2770.00,2.3813
2769.00,2.3751
2768.00,2.3685
2767.00,2.3613
2766.00,2.3535
2765.00,2.3454
2764.00,2.3366
2763.00,2.3267
2762.00,2.3151
2761.00,2.3019
2760.00,2.2875
2759.00,2.2724
2758.00,2.2568
2757.00,2.2408
2756.00,2.2239
2755.00,2.2054
2754.00,2.1851
2753.00,2.1632
2752.00,2.1404
2751.00,2.1167
2750.00,2.0919
2749.00,2.0657
2748.00,2.0379
2747.00,2.0086
2746.00,1.9781
2745.00,1.9466
2744.00,1.9138
2743.00,1.8798
2742.00,1.8445
2741.00,1.8080
2740.00,1.7707
2739.00,1.7327
2738.00,1.6942
2737.00,1.6555
2736.00,1.6172
2735.00,1.5798
2734.00,1.5437
2733.00,1.5094
2732.00,1.4772
2731.00,1.4477
2730.00,1.4212
2729.00,1.3982
2728.00,1.3794
2727.00,1.3652
2726.00,1.3559
2725.00,1.3517
2724.00,1.3528
2723.00,1.3592
2722.00,1.3706
2721.00,1.3868
2720.00,1.4072
2719.00,1.4316
2718.00,1.4592
2717.00,1.4897
2716.00,1.5223
2715.00,1.5565
2714.00,1.5919
2713.00,1.6282
2712.00,1.6649
2711.00,1.7020
2710.00,1.7392
2709.00,1.7764
2708.00,1.8134
2707.00,1.8499
2706.00,1.8856
2705.00,1.9201
2704.00,1.9532
2703.00,1.9848
2702.00,2.0151
2701.00,2.0444
2700.00,2.0725
2699.00,2.0994
2698.00,2.1250
2697.00,2.1494
2696.00,2.1728
2695.00,2.1954
2694.00,2.2170
2693.00,2.2371
2692.00,2.2557
2691.00,2.2733
2690.00,2.2903
2689.00,2.3071
2688.00,2.3236
2687.00,2.3394
2686.00,2.3544
2685.00,2.3686
2684.00,2.3821
2683.00,2.3953
2682.00,2.4082
2681.00,2.4204
2680.00,2.4307
2679.00,2.4389
2678.00,2.4457
2677.00,2.4522
2676.00,2.4587
2675.00,2.4646
2674.00,2.4692
2673.00,2.4725
2672.00,2.4750
2671.00,2.4771
2670.00,2.4790
2669.00,2.4807
2668.00,2.4819
2667.00,2.4823
2666.00,2.4824
2665.00,2.4827
2664.00,2.4831
2663.00,2.4832
2662.00,2.4827
2661.00,2.4816
2660.00,2.4802
2659.00,2.4780
2658.00,2.4747
2657.00,2.4704
2656.00,2.4660
2655.00,2.4620
2654.00,2.4582
2653.00,2.4537
2652.00,2.4481
2651.00,2.4417
2650.00,2.4353
2649.00,2.4289
2648.00,2.4216
2647.00,2.4126
2646.00,2.4022
2645.00,2.3913
2644.00,2.3806
2643.00,2.3695
2642.00,2.3576
2641.00,2.3449
2640.00,2.3313
2639.00,2.3167
2638.00,2.3009
2637.00,2.2836
2636.00,2.2653
2635.00,2.2461
2634.00,2.2264
2633.00,2.2060
2632.00,2.1847
2631.00,2.1622
2630.00,2.1384
2629.00,2.1134
2628.00,2.0872
2627.00,2.0601
2626.00,2.0320
2625.00,2.0028
2624.00,1.9726
2623.00,1.9413
2622.00,1.9091
2621.00,1.8764
2620.00,1.8431
2619.00,1.8095
2618.00,1.7755
2617.00,1.7417
2616.00,1.7082
2615.00,1.6751
2614.00,1.6426
2613.00,1.6108
2612.00,1.5799
2611.00,1.5501
2610.00,1.5217
2609.00,1.4950
2608.00,1.4703
2607.00,1.4478
2606.00,1.4282
2605.00,1.4120
2604.00,1.3999
2603.00,1.3925
2602.00,1.3901
2601.00,1.3929
2600.00,1.4008
2599.00,1.4135
2598.00,1.4310
2597.00,1.4528
2596.00,1.4785
2595.00,1.5076
2594.00,1.5393
2593.00,1.5732
2592.00,1.6087
2591.00,1.6454
2590.00,1.6829
2589.00,1.7208
2588.00,1.7588
2587.00,1.7964
2586.00,1.8334
2585.00,1.8697
2584.00,1.9054
2583.00,1.9402
2582.00,1.9739
2581.00,2.0064
2580.00,2.0377
2579.00,2.0677
2578.00,2.0963
2577.00,2.1233
2576.00,2.1488
2575.00,2.1731
2574.00,2.1966
2573.00,2.2195
2572.00,2.2417
2571.00,2.2627
2570.00,2.2823
2569.00,2.3007
2568.00,2.3184
2567.00,2.3360
2566.00,2.3535
2565.00,2.3703
2564.00,2.3860
2563.00,2.4003
2562.00,2.4140
2561.00,2.4273
2560.00,2.4395
2559.00,2.4499
2558.00,2.4589
2557.00,2.4677
2556.00,2.4768
2555.00,2.4855
2554.00,2.4935
2553.00,2.5006
2552.00,2.5071
2551.00,2.5127
2550.00,2.5175
2549.00,2.5222
2548.00,2.5277
2547.00,2.5338
2546.00,2.5392
2545.00,2.5438
2544.00,2.5480
2543.00,2.5520
2542.00,2.5550
2541.00,2.5560
2540.00,2.5550
2539.00,2.5534
2538.00,2.5523
2537.00,2.5519
2536.00,2.5516
2535.00,2.5503
2534.00,2.5479
2533.00,2.5445
2532.00,2.5403
2531.00,2.5355
2530.00,2.5308
2529.00,2.5270
2528.00,2.5234
2527.00,2.5187
2526.00,2.5116
2525.00,2.5028
2524.00,2.4936
2523.00,2.4847
2522.00,2.4757
2521.00,2.4660
2520.00,2.4555
2519.00,2.4443
2518.00,2.4324
2517.00,2.4201
2516.00,2.4071
2515.00,2.3928
2514.00,2.3770
2513.00,2.3598
2512.00,2.3419
2511.00,2.3242
2510.00,2.3064
2509.00,2.2879
2508.00,2.2678
2507.00,2.2458
2506.00,2.2223
2505.00,2.1974
2504.00,2.1714
2503.00,2.1439
2502.00,2.1151
2501.00,2.0851
2500.00,2.0538
2499.00,2.0209
2498.00,1.9860
2497.00,1.9491
2496.00,1.9105
2495.00,1.8705
2494.00,1.8292
2493.00,1.7865
2492.00,1.7425
2491.00,1.6975
2490.00,1.6518
2489.00,1.6062
2488.00,1.5615
2487.00,1.5184
2486.00,1.4775
2485.00,1.4395
2484.00,1.4051
2483.00,1.3748
2482.00,1.3493
2481.00,1.3292
2480.00,1.3150
2479.00,1.3071
2478.00,1.3057
2477.00,1.3109
2476.00,1.3226
2475.00,1.3404
2474.00,1.3637
2473.00,1.3919
2472.00,1.4242
2471.00,1.4598
2470.00,1.4978
2469.00,1.5378
2468.00,1.5792
2467.00,1.6214
2466.00,1.6640
2465.00,1.7068
2464.00,1.7494
2463.00,1.7917
2462.00,1.8333
2461.00,1.8740
2460.00,1.9136
2459.00,1.9518
2458.00,1.9888
2457.00,2.0244
2456.00,2.0588
2455.00,2.0917
2454.00,2.1234
2453.00,2.1540
2452.00,2.1833
2451.00,2.2111
2450.00,2.2374
2449.00,2.2625
2448.00,2.2867
2447.00,2.3102
2446.00,2.3329
2445.00,2.3548
2444.00,2.3756
2443.00,2.3946
2442.00,2.4113
2441.00,2.4261
2440.00,2.4403
2439.00,2.4547
2438.00,2.4694
2437.00,2.4838
2436.00,2.4974
2435.00,2.5099
2434.00,2.5212
2433.00,2.5314
2432.00,2.5414
2431.00,2.5519
2430.00,2.5625
2429.00,2.5718
2428.00,2.5788
2427.00,2.5842
2426.00,2.5897
2425.00,2.5963
2424.00,2.6032
2423.00,2.6090
2422.00,2.6130
2421.00,2.6155
2420.00,2.6172
2419.00,2.6187
2418.00,2.6208
2417.00,2.6237
2416.00,2.6263
2415.00,2.6280
2414.00,2.6291
2413.00,2.6306
2412.00,2.6325
2411.00,2.6333
2410.00,2.6316
2409.00,2.6280
2408.00,2.6240
2407.00,2.6200
2406.00,2.6155
2405.00,2.6101
2404.00,2.6041
2403.00,2.5982
2402.00,2.5925
2401.00,2.5871
2400.00,2.5818
2399.00,2.5762
2398.00,2.5695
2397.00,2.5607
2396.00,2.5496
2395.00,2.5364
2394.00,2.5215
2393.00,2.5055
2392.00,2.4886
2391.00,2.4704
2390.00,2.4500
2389.00,2.4263
2388.00,2.3986
2387.00,2.3676
2386.00,2.3352
2385.00,2.3036
2384.00,2.2751
2383.00,2.2520
2382.00,2.2364
2381.00,2.2292
2380.00,2.2290
2379.00,2.2333
2378.00,2.2395
2377.00,2.2447
2376.00,2.2465
2375.00,2.2428
2374.00,2.2341
2373.00,2.2232
2372.00,2.2120
2371.00,2.2004
2370.00,2.1902
2369.00,2.1841
2368.00,2.1805
2367.00,2.1765
2366.00,2.1754
2365.00,2.1757
2364.00,2.1730
2363.00,2.1680
2362.00,2.1600
2361.00,2.1546
2360.00,2.1533
2359.00,2.1517
2358.00,2.1517
2357.00,2.1482
2356.00,2.1373
2355.00,2.1146
2354.00,2.0997
2353.00,2.1160
2352.00,2.1451
2351.00,2.1565
2350.00,2.1366
2349.00,2.1170
2348.00,2.1307
2347.00,2.1680
2346.00,2.2036
2345.00,2.2084
2344.00,2.1943
2343.00,2.1781
2342.00,2.1690
2341.00,2.1668
2340.00,2.1662
2339.00,2.1649
2338.00,2.1631
2337.00,2.1629
2336.00,2.1642
2335.00,2.1660
2334.00,2.1668
2333.00,2.1744
2332.00,2.1819
2331.00,2.1989
2330.00,2.2171
2329.00,2.2362
2328.00,2.2508
2327.00,2.2602
2326.00,2.2746
2325.00,2.2912
2324.00,2.3094
2323.00,2.3215
2322.00,2.3282
2321.00,2.3346
2320.00,2.3424
2319.00,2.3539
2318.00,2.3642
2317.00,2.3753
2316.00,2.3845
2315.00,2.3955
2314.00,2.4052
2313.00,2.4156
2312.00,2.4249
2311.00,2.4348
2310.00,2.4448
2309.00,2.4559
2308.00,2.4690
2307.00,2.4855
2306.00,2.5055
2305.00,2.5282
2304.00,2.5505
2303.00,2.5712
2302.00,2.5891
2301.00,2.6061
2300.00,2.6226
2299.00,2.6392
2298.00,2.6544
2297.00,2.6682
2296.00,2.6801
2295.00,2.6893
2294.00,2.6951
2293.00,2.6978
2292.00,2.6998
2291.00,2.7028
2290.00,2.7067
2289.00,2.7098
2288.00,2.7118
2287.00,2.7133
2286.00,2.7152
2285.00,2.7170
2284.00,2.7185
2283.00,2.7199
2282.00,2.7218
2281.00,2.7240
2280.00,2.7260
2279.00,2.7273
2278.00,2.7274
2277.00,2.7265
2276.00,2.7243
2275.00,2.7206
2274.00,2.7151
2273.00,2.7078
2272.00,2.6987
2271.00,2.6885
2270.00,2.6778
2269.00,2.6664
2268.00,2.6542
2267.00,2.6414
2266.00,2.6282
2265.00,2.6143
2264.00,2.5991
2263.00,2.5815
2262.00,2.5617
2261.00,2.5405
2260.00,2.5189
2259.00,2.4974
2258.00,2.4759
2257.00,2.4542
2256.00,2.4320
2255.00,2.4090
2254.00,2.3850
2253.00,2.3605
2252.00,2.3358
2251.00,2.3104
2250.00,2.2834
2249.00,2.2537
2248.00,2.2214
2247.00,2.1867
2246.00,2.1501
2245.00,2.1116
2244.00,2.0712
2243.00,2.0286
2242.00,1.9841
2241.00,1.9375
2240.00,1.8892
2239.00,1.8393
2238.00,1.7885
2237.00,1.7372
2236.00,1.6862
2235.00,1.6361
2234.00,1.5877
2233.00,1.5422
2232.00,1.5005
2231.00,1.4636
2230.00,1.4323
2229.00,1.4076
2228.00,1.3903
2227.00,1.3807
2226.00,1.3793
2225.00,1.3859
2224.00,1.4002
2223.00,1.4218
2222.00,1.4497
2221.00,1.4833
2220.00,1.5214
2219.00,1.5634
2218.00,1.6084
2217.00,1.6556
2216.00,1.7043
2215.00,1.7539
2214.00,1.8036
2213.00,1.8531
2212.00,1.9021
2211.00,1.9502
2210.00,1.9971
2209.00,2.0424
2208.00,2.0862
2207.00,2.1281
2206.00,2.1680
2205.00,2.2057
2204.00,2.2416
2203.00,2.2757
2202.00,2.3080
2201.00,2.3381
2200.00,2.3664
2199.00,2.3938
2198.00,2.4209
2197.00,2.4474
2196.00,2.4720
2195.00,2.4939
2194.00,2.5138
2193.00,2.5334
2192.00,2.5541
2191.00,2.5753
2190.00,2.5954
2189.00,2.6128
2188.00,2.6274
2187.00,2.6405
2186.00,2.6536
2185.00,2.6668
2184.00,2.6798
2183.00,2.6925
2182.00,2.7049
2181.00,2.7170
2180.00,2.7289
2179.00,2.7404
2178.00,2.7513
2177.00,2.7609
2176.00,2.7687
2175.00,2.7747
2174.00,2.7798
2173.00,2.7845
2172.00,2.7888
2171.00,2.7926
2170.00,2.7964
2169.00,2.8006
2168.00,2.8051
2167.00,2.8090
2166.00,2.8116
2165.00,2.8130
2164.00,2.8136
2163.00,2.8138
2162.00,2.8140
2161.00,2.8141
2160.00,2.8136
2159.00,2.8119
2158.00,2.8092
2157.00,2.8057
2156.00,2.8024
2155.00,2.7998
2154.00,2.7980
2153.00,2.7954
2152.00,2.7904
2151.00,2.7828
2150.00,2.7748
2149.00,2.7688
2148.00,2.7649
2147.00,2.7610
2146.00,2.7544
2145.00,2.7445
2144.00,2.7328
2143.00,2.7207
2142.00,2.7090
2141.00,2.6972
2140.00,2.6846
2139.00,2.6712
2138.00,2.6580
2137.00,2.6456
2136.00,2.6332
2135.00,2.6191
2134.00,2.6022
2133.00,2.5829
2132.00,2.5627
2131.00,2.5421
2130.00,2.5211
2129.00,2.4992
2128.00,2.4761
2127.00,2.4515
2126.00,2.4257
2125.00,2.3988
2124.00,2.3703
2123.00,2.3399
2122.00,2.3076
2121.00,2.2735
2120.00,2.2377
2119.00,2.1997
2118.00,2.1590
2117.00,2.1157
2116.00,2.0697
2115.00,2.0212
2114.00,1.9707
2113.00,1.9190
2112.00,1.8668
2111.00,1.8143
2110.00,1.7619
2109.00,1.7105
2108.00,1.6615
2107.00,1.6158
2106.00,1.5748
2105.00,1.5394
2104.00,1.5108
2103.00,1.4895
2102.00,1.4762
2101.00,1.4710
2100.00,1.4741
2099.00,1.4851
2098.00,1.5033
2097.00,1.5283
2096.00,1.5592
2095.00,1.5951
2094.00,1.6351
2093.00,1.6783
2092.00,1.7237
2091.00,1.7706
2090.00,1.8181
2089.00,1.8662
2088.00,1.9150
2087.00,1.9642
2086.00,2.0133
2085.00,2.0615
2084.00,2.1083
2083.00,2.1533
2082.00,2.1962
2081.00,2.2374
2080.00,2.2773
2079.00,2.3161
2078.00,2.3534
2077.00,2.3885
2076.00,2.4216
2075.00,2.4531
2074.00,2.4831
2073.00,2.5114
2072.00,2.5378
2071.00,2.5630
2070.00,2.5875
2069.00,2.6114
2068.00,2.6336
2067.00,2.6532
2066.00,2.6695
2065.00,2.6832
2064.00,2.6961
2063.00,2.7098
2062.00,2.7244
2061.00,2.7389
2060.00,2.7529
2059.00,2.7668
2058.00,2.7805
2057.00,2.7936
2056.00,2.8057
2055.00,2.8168
2054.00,2.8262
2053.00,2.8332
2052.00,2.8384
2051.00,2.8436
2050.00,2.8502
2049.00,2.8582
2048.00,2.8670
2047.00,2.8760
2046.00,2.8839
2045.00,2.8902
2044.00,2.8954
2043.00,2.9000
2042.00,2.9032
2041.00,2.9036
2040.00,2.9017
2039.00,2.9001
2038.00,2.9005
2037.00,2.9022
2036.00,2.9041
2035.00,2.9060
2034.00,2.9082
2033.00,2.9093
2032.00,2.9086
2031.00,2.9073
2030.00,2.9071
2029.00,2.9068
2028.00,2.9033
2027.00,2.8961
2026.00,2.8879
2025.00,2.8806
2024.00,2.8729
2023.00,2.8628
2022.00,2.8513
2021.00,2.8417
2020.00,2.8353
2019.00,2.8292
2018.00,2.8192
2017.00,2.8038
2016.00,2.7856
2015.00,2.7684
2014.00,2.7543
2013.00,2.7428
2012.00,2.7319
2011.00,2.7197
2010.00,2.7055
2009.00,2.6897
2008.00,2.6723
2007.00,2.6533
2006.00,2.6321
2005.00,2.6082
2004.00,2.5820
2003.00,2.5543
2002.00,2.5262
2001.00,2.4979
2000.00,2.4688
1999.00,2.4377
1998.00,2.4040
1997.00,2.3679
1996.00,2.3299
1995.00,2.2905
1994.00,2.2484
1993.00,2.2013
1992.00,2.1487
1991.00,2.0935
1990.00,2.0397
1989.00,1.9883
1988.00,1.9372
1987.00,1.8849
1986.00,1.8328
1985.00,1.7836
1984.00,1.7384
1983.00,1.6972
1982.00,1.6608
1981.00,1.6307
1980.00,1.6078
1979.00,1.5923
1978.00,1.5844
1977.00,1.5838
1976.00,1.5904
1975.00,1.6036
1974.00,1.6235
1973.00,1.6498
1972.00,1.6818
1971.00,1.7190
1970.00,1.7605
1969.00,1.8050
1968.00,1.8511
1967.00,1.8982
1966.00,1.9477
1965.00,2.0005
1964.00,2.0556
1963.00,2.1102
1962.00,2.1621
1961.00,2.2112
1960.00,2.2584
1959.00,2.3036
1958.00,2.3467
1957.00,2.3873
1956.00,2.4253
1955.00,2.4607
1954.00,2.4943
1953.00,2.5271
1952.00,2.5588
1951.00,2.5878
1950.00,2.6133
1949.00,2.6371
1948.00,2.6609
1947.00,2.6842
1946.00,2.7057
1945.00,2.7250
1944.00,2.7423
1943.00,2.7567
1942.00,2.7687
1941.00,2.7815
1940.00,2.7989
1939.00,2.8205
1938.00,2.8420
1937.00,2.8605
1936.00,2.8757
1935.00,2.8887
1934.00,2.8991
1933.00,2.9071
1932.00,2.9147
1931.00,2.9245
1930.00,2.9370
1929.00,2.9505
1928.00,2.9621
1927.00,2.9698
1926.00,2.9738
1925.00,2.9761
1924.00,2.9772
1923.00,2.9765
1922.00,2.9758
1921.00,2.9789
1920.00,2.9868
1919.00,2.9948
1918.00,2.9984
1917.00,2.9993
1916.00,3.0017
1915.00,3.0054
1914.00,3.0060
1913.00,3.0019
1912.00,2.9966
1911.00,2.9932
1910.00,2.9917
1909.00,2.9914
1908.00,2.9917
1907.00,2.9910
1906.00,2.9870
1905.00,2.9794
1904.00,2.9719
1903.00,2.9660
1902.00,2.9599
1901.00,2.9508
1900.00,2.9384
1899.00,2.9241
1898.00,2.9087
1897.00,2.8917
1896.00,2.8737
1895.00,2.8564
1894.00,2.8409
1893.00,2.8274
1892.00,2.8133
1891.00,2.7946
1890.00,2.7694
1889.00,2.7407
1888.00,2.7146
1887.00,2.6934
1886.00,2.6741
1885.00,2.6523
1884.00,2.6267
1883.00,2.5985
1882.00,2.5683
1881.00,2.5355
1880.00,2.4996
1879.00,2.4610
1878.00,2.4210
1877.00,2.3803
1876.00,2.3393
1875.00,2.2974
1874.00,2.2533
1873.00,2.2071
1872.00,2.1589
1871.00,2.1068
1870.00,2.0482
1869.00,1.9860
1868.00,1.9288
1867.00,1.8820
1866.00,1.8417
1865.00,1.8011
1864.00,1.7591
1863.00,1.7200
1862.00,1.6898
1861.00,1.6727
1860.00,1.6702
1859.00,1.6819
1858.00,1.7072
1857.00,1.7444
1856.00,1.7911
1855.00,1.8450
1854.00,1.9038
1853.00,1.9660
1852.00,2.0302
1851.00,2.0950
1850.00,2.1588
1849.00,2.2187
1848.00,2.2748
1847.00,2.3290
1846.00,2.3812
1845.00,2.4282
1844.00,2.4700
1843.00,2.5129
1842.00,2.5625
1841.00,2.6165
1840.00,2.6660
1839.00,2.7056
1838.00,2.7372
1837.00,2.7662
1836.00,2.7949
1835.00,2.8201
1834.00,2.8404
1833.00,2.8588
1832.00,2.8782
1831.00,2.8992
1830.00,2.9221
1829.00,2.9483
1828.00,2.9767
1827.00,2.9987
1826.00,3.0066
1825.00,3.0031
1824.00,3.0017
1823.00,3.0146
1822.00,3.0386
1821.00,3.0611
1820.00,3.0747
1819.00,3.0808
1818.00,3.0839
1817.00,3.0872
1816.00,3.0941
1815.00,3.1061
1814.00,3.1200
1813.00,3.1293
1812.00,3.1306
1811.00,3.1271
1810.00,3.1232
1809.00,3.1207
1808.00,3.1187
1807.00,3.1170
1806.00,3.1178
1805.00,3.1206
1804.00,3.1202
1803.00,3.1095
1802.00,3.0875
1801.00,3.0627
1800.00,3.0471
1799.00,3.0445
1798.00,3.0444
1797.00,3.0353
1796.00,3.0170
1795.00,2.9975
1794.00,2.9803
1793.00,2.9592
1792.00,2.9277
1791.00,2.8892
1790.00,2.8515
1789.00,2.8194
1788.00,2.7911
1787.00,2.7585
1786.00,2.7129
1785.00,2.6537
1784.00,2.5913
1783.00,2.5378
1782.00,2.4959
1781.00,2.4578
1780.00,2.4196
1779.00,2.3875
1778.00,2.3681
1777.00,2.3626
1776.00,2.3690
1775.00,2.3882
1774.00,2.4227
1773.00,2.4727
1772.00,2.5384
1771.00,2.6163
1770.00,2.6897
1769.00,2.7407
1768.00,2.7693
1767.00,2.7897
1766.00,2.8200
1765.00,2.8666
1764.00,2.9177
1763.00,2.9597
1762.00,2.9937
1761.00,3.0330
1760.00,3.0856
1759.00,3.1442
1758.00,3.1964
1757.00,3.2386
1756.00,3.2765
1755.00,3.3182
1754.00,3.3642
1753.00,3.4053
1752.00,3.4323
1751.00,3.4468
1750.00,3.4635
1749.00,3.4980
1748.00,3.5488
1747.00,3.6031
1746.00,3.6586
1745.00,3.7210
1744.00,3.7897
1743.00,3.8577
1742.00,3.9290
1741.00,4.0209
1740.00,4.1274
1739.00,4.1995
1738.00,4.2127
1737.00,4.1989
1736.00,4.1863
1735.00,4.1860
1734.00,4.1874
1733.00,4.1895
1732.00,4.2468
1731.00,4.3839
1730.00,4.5561
1729.00,4.6773
1728.00,4.6814
1727.00,4.6305
1726.00,4.6047
1725.00,4.5946
1724.00,4.5246
1723.00,4.4093
1722.00,4.3302
1721.00,4.3349
1720.00,4.4121
1719.00,4.5930
1718.00,5.1565
1717.00,5.0000
1716.00,4.7203
1715.00,4.8693
1714.00,5.1261
1713.00,5.1652
1712.00,5.1089
1711.00,5.5286
1710.00,5.4011
1709.00,5.1879
1708.00,5.7544
1707.00,5.2313
1706.00,4.8189
1705.00,4.6336
1704.00,4.5462
1703.00,4.5979
1702.00,4.8167
1701.00,4.7327
1700.00,4.4020
1699.00,4.3304
1698.00,4.4925
1697.00,4.7605
1696.00,4.6054
1695.00,4.3848
1694.00,4.2502
1693.00,4.1358
1692.00,4.0489
1691.00,3.9783
1690.00,3.9155
1689.00,3.8542
1688.00,3.7837
1687.00,3.7062
1686.00,3.6319
1685.00,3.5672
1684.00,3.5228
1683.00,3.5111
1682.00,3.5182
1681.00,3.5208
1680.00,3.5128
1679.00,3.4989
1678.00,3.4912
1677.00,3.4903
1676.00,3.4814
1675.00,3.4599
1674.00,3.4461
1673.00,3.4547
1672.00,3.4693
1671.00,3.4624
1670.00,3.4279
1669.00,3.3846
1668.00,3.3478
1667.00,3.3197
1666.00,3.2984
1665.00,3.2776
1664.00,3.2473
1663.00,3.2046
1662.00,3.1610
1661.00,3.1251
1660.00,3.0896
1659.00,3.0456
1658.00,2.9927
1657.00,2.9395
1656.00,2.8914
1655.00,2.8434
1654.00,2.7882
1653.00,2.7415
1652.00,2.7322
1651.00,2.7423
1650.00,2.7447
1649.00,2.7347
1648.00,2.7120
1647.00,2.6939
1646.00,2.6933
1645.00,2.7023
1644.00,2.7088
1643.00,2.7136
1642.00,2.7200
1641.00,2.7292
1640.00,2.7449
1639.00,2.7698
1638.00,2.8009
1637.00,2.8348
1636.00,2.8709
1635.00,2.9096
1634.00,2.9402
1633.00,2.9549
1632.00,2.9606
1631.00,2.9611
1630.00,2.9607
1629.00,2.9678
1628.00,2.9884
1627.00,3.0195
1626.00,3.0513
1625.00,3.0760
1624.00,3.0935
1623.00,3.1102
1622.00,3.1319
1621.00,3.1572
1620.00,3.1793
1619.00,3.1922
1618.00,3.1959
1617.00,3.2012
1616.00,3.2204
1615.00,3.2468
1614.00,3.2624
1613.00,3.2631
1612.00,3.2572
1611.00,3.2506
1610.00,3.2463
1609.00,3.2447
1608.00,3.2467
1607.00,3.2532
1606.00,3.2647
1605.00,3.2780
1604.00,3.2869
1603.00,3.2871
1602.00,3.2803
1601.00,3.2739
1600.00,3.2734
1599.00,3.2781
1598.00,3.2839
1597.00,3.2870
1596.00,3.2840
1595.00,3.2735
1594.00,3.2596
1593.00,3.2476
1592.00,3.2367
1591.00,3.2218
1590.00,3.2029
1589.00,3.1866
1588.00,3.1759
1587.00,3.1664
1586.00,3.1536
1585.00,3.1379
1584.00,3.1204
1583.00,3.1009
1582.00,3.0801
1581.00,3.0605
1580.00,3.0436
1579.00,3.0259
1578.00,3.0036
1577.00,2.9788
1576.00,2.9594
1575.00,2.9453
1574.00,2.9246
1573.00,2.8905
1572.00,2.8442
1571.00,2.7865
1570.00,2.7238
1569.00,2.6692
1568.00,2.6240
1567.00,2.5767
1566.00,2.5194
1565.00,2.4530
1564.00,2.3838
1563.00,2.3199
1562.00,2.2596
1561.00,2.1904
1560.00,2.1065
1559.00,2.0317
1558.00,2.0149
1557.00,2.0240
1556.00,2.0087
1555.00,1.9847
1554.00,1.9631
1553.00,1.9577
1552.00,1.9769
1551.00,2.0123
1550.00,2.0514
1549.00,2.0980
1548.00,2.1597
1547.00,2.2313
1546.00,2.2979
1545.00,2.3534
1544.00,2.4098
1543.00,2.4816
1542.00,2.5689
1541.00,2.6629
1540.00,2.7588
1539.00,2.8442
1538.00,2.8942
1537.00,2.9147
1536.00,2.9277
1535.00,2.9363
1534.00,2.9440
1533.00,2.9597
1532.00,2.9882
1531.00,3.0223
1530.00,3.0528
1529.00,3.0755
1528.00,3.0888
1527.00,3.0982
1526.00,3.1130
1525.00,3.1393
1524.00,3.1764
1523.00,3.2147
1522.00,3.2405
1521.00,3.2515
1520.00,3.2593
1519.00,3.2794
1518.00,3.3121
1517.00,3.3402
1516.00,3.3508
1515.00,3.3442
1514.00,3.3280
1513.00,3.3071
1512.00,3.2864
1511.00,3.2757
1510.00,3.2795
1509.00,3.2887
1508.00,3.2948
1507.00,3.3081
1506.00,3.3468
1505.00,3.3904
1504.00,3.4144
1503.00,3.4230
1502.00,3.4165
1501.00,3.4015
1500.00,3.3904
1499.00,3.3902
1498.00,3.3950
1497.00,3.3920
1496.00,3.3776
1495.00,3.3616
1494.00,3.3569
1493.00,3.3627
1492.00,3.3654
1491.00,3.3532
1490.00,3.3259
1489.00,3.2937
1488.00,3.2669
1487.00,3.2491
1486.00,3.2381
1485.00,3.2266
1484.00,3.2073
1483.00,3.1802
1482.00,3.1472
1481.00,3.1116
1480.00,3.0785
1479.00,3.0485
1478.00,3.0149
1477.00,2.9723
1476.00,2.9253
1475.00,2.8825
1474.00,2.8467
1473.00,2.8155
1472.00,2.7934
1471.00,2.7884
1470.00,2.8034
1469.00,2.8367
1468.00,2.8825
1467.00,2.9362
1466.00,2.9963
1465.00,3.0597
1464.00,3.1197
1463.00,3.1690
1462.00,3.2038
1461.00,3.2268
1460.00,3.2430
1459.00,3.2608
1458.00,3.2941
1457.00,3.3655
1456.00,3.4966
1455.00,3.6904
1454.00,3.9183
1453.00,4.1221
1452.00,4.2668
1451.00,4.3614
1450.00,4.3605
1449.00,4.2168
1448.00,4.0324
1447.00,3.8922
1446.00,3.8081
1445.00,3.7460
1444.00,3.6698
1443.00,3.5720
1442.00,3.4687
1441.00,3.3824
1440.00,3.3254
1439.00,3.2949
1438.00,3.2790
1437.00,3.2754
1436.00,3.3007
1435.00,3.3755
1434.00,3.4942
1433.00,3.6232
1432.00,3.7241
1431.00,3.7731
1430.00,3.7767
1429.00,3.7655
1428.00,3.7625
1427.00,3.7672
1426.00,3.7660
1425.00,3.7513
1424.00,3.7364
1423.00,3.7389
1422.00,3.7502
1421.00,3.7362
1420.00,3.6762
1419.00,3.5926
1418.00,3.5220
1417.00,3.4707
1416.00,3.4193
1415.00,3.3562
1414.00,3.2868
1413.00,3.2200
1412.00,3.1597
1411.00,3.1065
1410.00,3.0623
1409.00,3.0315
1408.00,3.0165
1407.00,3.0142
1406.00,3.0197
1405.00,3.0293
1404.00,3.0446
1403.00,3.0695
1402.00,3.1031
1401.00,3.1368
1400.00,3.1622
1399.00,3.1803
1398.00,3.2000
1397.00,3.2257
1396.00,3.2513
1395.00,3.2693
1394.00,3.2801
1393.00,3.2931
1392.00,3.3165
1391.00,3.3480
1390.00,3.3778
1389.00,3.3978
1388.00,3.4053
1387.00,3.4054
1386.00,3.4104
1385.00,3.4294
1384.00,3.4605
1383.00,3.4912
1382.00,3.5071
1381.00,3.5039
1380.00,3.4926
1379.00,3.4880
1378.00,3.4958
1377.00,3.5118
1376.00,3.5314
1375.00,3.5545
1374.00,3.5759
1373.00,3.5819
1372.00,3.5696
1371.00,3.5566
1370.00,3.5564
1369.00,3.5643
1368.00,3.5690
1367.00,3.5682
1366.00,3.5659
1365.00,3.5611
1364.00,3.5500
1363.00,3.5362
1362.00,3.5275
1361.00,3.5236
1360.00,3.5174
1359.00,3.5062
1358.00,3.4942
1357.00,3.4831
1356.00,3.4703
1355.00,3.4565
1354.00,3.4495
1353.00,3.4590
1352.00,3.4928
1351.00,3.5542
1350.00,3.6373
1349.00,3.7214
1348.00,3.7812
1347.00,3.8050
1346.00,3.8063
1345.00,3.8047
1344.00,3.8053
1343.00,3.8020
1342.00,3.7899
1341.00,3.7781
1340.00,3.7865
1339.00,3.8283
1338.00,3.8847
1337.00,3.9011
1336.00,3.8490
1335.00,3.7629
1334.00,3.6805
1333.00,3.6109
1332.00,3.5479
1331.00,3.4867
1330.00,3.4285
1329.00,3.3775
1328.00,3.3364
1327.00,3.3054
1326.00,3.2835
1325.00,3.2713
1324.00,3.2730
1323.00,3.2940
1322.00,3.3366
1321.00,3.3970
1320.00,3.4679
1319.00,3.5448
1318.00,3.6297
1317.00,3.7240
1316.00,3.8223
1315.00,3.9165
1314.00,3.9950
1313.00,4.0481
1312.00,4.0716
1311.00,4.0557
1310.00,4.0008
1309.00,3.9320
1308.00,3.8984
1307.00,3.9096
1306.00,3.9079
1305.00,3.8394
1304.00,3.7295
1303.00,3.6217
1302.00,3.5307
1301.00,3.4526
1300.00,3.3816
1299.00,3.3125
1298.00,3.2404
1297.00,3.1644
1296.00,3.0902
1295.00,3.0254
1294.00,2.9738
1293.00,2.9340
1292.00,2.9041
1291.00,2.8849
1290.00,2.8776
1289.00,2.8813
1288.00,2.8937
1287.00,2.9140
1286.00,2.9422
1285.00,2.9770
1284.00,3.0152
1283.00,3.0545
1282.00,3.0954
1281.00,3.1391
1280.00,3.1858
1279.00,3.2352
1278.00,3.2869
1277.00,3.3403
1276.00,3.3918
1275.00,3.4358
1274.00,3.4680
1273.00,3.4905
1272.00,3.5103
1271.00,3.5323
1270.00,3.5553
1269.00,3.5749
1268.00,3.5920
1267.00,3.6163
1266.00,3.6514
1265.00,3.6781
1264.00,3.6715
1263.00,3.6432
1262.00,3.6312
1261.00,3.6560
1260.00,3.7122
1259.00,3.7839
1258.00,3.8668
1257.00,3.9579
1256.00,4.0133
1255.00,3.9843
1254.00,3.9066
1253.00,3.8435
1252.00,3.8304
1251.00,3.8738
1250.00,3.9554
1249.00,4.0200
1248.00,3.9961
1247.00,3.9034
1246.00,3.8221
1245.00,3.7969
1244.00,3.8354
1243.00,3.9191
1242.00,4.0107
1241.00,4.0731
1240.00,4.0902
1239.00,4.0695
1238.00,4.0352
1237.00,4.0162
1236.00,4.0299
1235.00,4.0467
1234.00,4.0285
1233.00,4.0102
1232.00,4.0454
1231.00,4.1503
1230.00,4.2460
1229.00,4.2290
1228.00,4.1956
1227.00,4.2354
1226.00,4.3538
1225.00,4.4978
1224.00,4.7141
1223.00,4.7857
1222.00,4.5561
1221.00,4.5242
1220.00,4.6361
1219.00,4.6935
1218.00,4.5764
1217.00,4.4804
1216.00,4.3497
1215.00,4.1374
1214.00,3.9872
1213.00,3.9315
1212.00,3.9391
1211.00,3.9710
1210.00,3.9900
1209.00,3.9530
1208.00,3.8861
1207.00,3.8551
1206.00,3.8748
1205.00,3.9234
1204.00,3.9640
1203.00,3.9530
1202.00,3.8916
1201.00,3.8135
1200.00,3.7461
1199.00,3.7085
1198.00,3.7046
1197.00,3.7261
1196.00,3.7566
1195.00,3.7752
1194.00,3.7693
1193.00,3.7467
1192.00,3.7297
1191.00,3.7264
1190.00,3.7242
1189.00,3.7111
1188.00,3.6887
1187.00,3.6618
1186.00,3.6341
1185.00,3.6100
1184.00,3.5929
1183.00,3.5824
1182.00,3.5734
1181.00,3.5597
1180.00,3.5447
1179.00,3.5377
1178.00,3.5368
1177.00,3.5280
1176.00,3.5142
1175.00,3.5134
1174.00,3.5184
1173.00,3.5051
1172.00,3.4812
1171.00,3.4665
1170.00,3.4603
1169.00,3.4540
1168.00,3.4452
1167.00,3.4364
1166.00,3.4268
1165.00,3.4099
1164.00,3.3834
1163.00,3.3510
1162.00,3.3207
1161.00,3.3043
1160.00,3.3111
1159.00,3.3424
1158.00,3.3848
1157.00,3.4079
1156.00,3.3934
1155.00,3.3609
1154.00,3.3408
1153.00,3.3460
1152.00,3.3706
1151.00,3.4022
1150.00,3.4358
1149.00,3.4764
1148.00,3.5298
1147.00,3.5932
1146.00,3.6478
1145.00,3.6657
1144.00,3.6430
1143.00,3.6112
1142.00,3.6063
1141.00,3.6447
1140.00,3.7185
1139.00,3.8027
1138.00,3.8736
1137.00,3.9218
1136.00,3.9476
1135.00,3.9613
1134.00,3.9814
1133.00,4.0242
1132.00,4.0848
1131.00,4.1260
1130.00,4.1171
1129.00,4.0771
1128.00,4.0365
1127.00,3.9912
1126.00,3.9392
1125.00,3.9167
1124.00,3.9576
1123.00,4.0753
1122.00,4.2768
1121.00,4.5308
1120.00,4.5642
1119.00,4.4109
1118.00,4.3500
1117.00,4.3897
1116.00,4.4294
1115.00,4.3143
1114.00,4.1336
1113.00,4.0387
1112.00,4.0682
1111.00,4.1616
1110.00,4.1862
1109.00,4.2167
1108.00,4.3822
1107.00,4.6235
1106.00,4.5015
1105.00,4.2815
1104.00,4.1597
1103.00,4.1169
1102.00,4.1425
1101.00,4.2315
1100.00,4.2699
1099.00,4.1524
1098.00,4.0230
1097.00,3.9686
1096.00,3.9807
1095.00,4.1431
1094.00,4.7212
1093.00,4.4638
1092.00,4.2498
1091.00,4.3291
1090.00,4.2574
1089.00,4.1216
1088.00,4.1597
1087.00,4.3506
1086.00,4.5014
1085.00,4.5111
1084.00,4.4915
1083.00,4.5466
1082.00,4.8477
1081.00,4.9865
1080.00,4.3711
1079.00,4.1644
1078.00,4.1235
1077.00,4.2982
1076.00,5.1658
1075.00,4.4088
1074.00,4.1258
1073.00,4.0400
1072.00,4.0454
1071.00,4.1278
1070.00,4.2256
1069.00,4.3387
1068.00,4.4080
1067.00,4.4458
1066.00,4.4323
1065.00,4.3434
1064.00,4.2484
1063.00,4.1414
1062.00,4.0252
1061.00,3.9405
1060.00,3.9118
1059.00,3.9366
1058.00,3.9740
1057.00,3.9550
1056.00,3.8773
1055.00,3.8176
1054.00,3.8292
1053.00,3.9069
1052.00,4.0214
1051.00,4.1415
1050.00,4.3670
1049.00,4.9142
1048.00,4.6861
1047.00,4.4015
1046.00,4.1822
1045.00,3.9577
1044.00,3.7950
1043.00,3.6896
1042.00,3.6319
1041.00,3.5974
1040.00,3.5609
1039.00,3.5145
1038.00,3.4703
1037.00,3.4403
1036.00,3.4184
1035.00,3.3845
1034.00,3.3330
1033.00,3.2817
1032.00,3.2486
1031.00,3.2390
1030.00,3.2483
1029.00,3.2732
1028.00,3.3151
1027.00,3.3736
1026.00,3.4426
1025.00,3.5153
1024.00,3.5913
1023.00,3.6750
1022.00,3.7631
1021.00,3.8437
1020.00,3.9113
1019.00,3.9637
1018.00,3.9963
1017.00,3.9997
1016.00,3.9570
1015.00,3.8662
1014.00,3.7570
1013.00,3.6682
1012.00,3.6248
1011.00,3.6398
1010.00,3.7167
1009.00,3.8377
1008.00,3.9398
1007.00,3.9582
1006.00,3.9302
1005.00,3.9183
1004.00,3.9292
1003.00,3.9400
1002.00,3.9579
1001.00,4.0106
1000.00,4.0964
999.00,4.1707
998.00,4.1603
997.00,4.0788
996.00,4.0547
995.00,4.1701
994.00,4.5705
993.00,4.9657
992.00,4.3947
991.00,4.1850
990.00,4.1028
989.00,4.1599
988.00,4.3786
987.00,4.3903
986.00,4.2201
985.00,4.1474
984.00,4.1443
983.00,4.1344
982.00,4.1066
981.00,4.1152
980.00,4.1867
979.00,4.3450
978.00,4.5712
977.00,4.5591
976.00,4.3375
975.00,4.1288
974.00,4.0059
973.00,3.9981
972.00,4.1129
971.00,4.3264
970.00,4.6023
969.00,4.8761
968.00,4.6965
967.00,4.4404
966.00,4.4295
965.00,4.5400
964.00,4.3120
963.00,4.0964
962.00,4.0602
961.00,4.1463
960.00,4.3843
959.00,4.6138
958.00,4.3241
957.00,4.1388
956.00,4.0750
955.00,4.0367
954.00,4.0088
953.00,4.0093
952.00,4.0680
951.00,4.1822
950.00,4.3889
949.00,4.5116
948.00,4.3220
947.00,4.2027
946.00,4.1565
945.00,4.1343
944.00,4.1492
943.00,4.2094
942.00,4.2954
941.00,4.6240
940.00,4.9641
939.00,4.3857
938.00,4.2790
937.00,4.2267
936.00,4.1498
935.00,4.1666
934.00,4.2155
933.00,4.2963
932.00,4.4068
931.00,4.6873
930.00,5.2673
929.00,4.8305
928.00,4.5887
927.00,4.8013
926.00,4.8394
925.00,4.3283
924.00,4.1095
923.00,4.0178
922.00,3.9762
921.00,3.9561
920.00,3.9421
919.00,3.9571
918.00,3.9516
917.00,3.9083
916.00,3.8883
915.00,3.9324
914.00,4.0418
913.00,4.2060
912.00,4.4337
911.00,4.6968
910.00,4.7497
909.00,4.6403
908.00,4.5253
907.00,4.4399
906.00,4.3988
905.00,4.6083
904.00,4.8095
903.00,4.3857
902.00,4.2049
901.00,4.1790
900.00,4.2125
899.00,4.4966
898.00,5.4411
897.00,4.7225
896.00,4.6900
895.00,4.8724
894.00,4.5919
893.00,4.3497
892.00,4.1548
891.00,4.0291
890.00,3.9665
889.00,3.9953
888.00,4.0846
887.00,4.0943
886.00,4.0740
885.00,4.1633
884.00,4.4565
883.00,4.9027
882.00,4.8316
881.00,4.9736
880.00,5.4052
879.00,5.2561
878.00,4.6981
877.00,4.4060
876.00,4.3450
875.00,4.4031
874.00,4.4680
873.00,4.4399
872.00,4.3885
871.00,4.3953
870.00,4.4624
869.00,4.4702
868.00,4.5197
867.00,4.8654
866.00,5.5047
865.00,4.8551
864.00,4.3787
863.00,4.1586
862.00,4.0835
861.00,4.0686
860.00,4.0846
859.00,4.0947
858.00,4.0351
857.00,3.9732
856.00,3.9652
855.00,4.0152
854.00,4.1306
853.00,4.3661
852.00,4.6689
851.00,4.6971
850.00,4.6131
849.00,4.3323
848.00,4.0969
847.00,3.9974
846.00,4.0272
845.00,4.1246
844.00,4.1678
843.00,4.2078
842.00,4.0679
841.00,3.8804
840.00,3.8463
839.00,3.9698
838.00,4.1440
837.00,4.1057
836.00,4.0208
835.00,4.0486
834.00,4.1460
833.00,4.3188
832.00,4.4295
831.00,4.2027
830.00,4.0198
829.00,4.0102
828.00,4.1031
827.00,4.1976
826.00,4.1172
825.00,4.2685
824.00,4.7789
823.00,4.1697
822.00,3.9515
821.00,3.9225
820.00,3.9564
819.00,4.1226
818.00,4.5087
817.00,4.7354
816.00,4.3269
815.00,4.1965
814.00,4.1462
813.00,4.1086
812.00,4.1021
811.00,4.1100
810.00,4.0733
809.00,3.9836
808.00,3.9336
807.00,3.9760
806.00,4.0927
805.00,4.1637
804.00,4.1667
803.00,4.1580
802.00,4.0475
801.00,3.8763
800.00,3.7351
799.00,3.6717
798.00,3.7142
797.00,3.8932
796.00,4.0637
795.00,4.0018
794.00,4.0254
793.00,4.2877
792.00,4.7119
791.00,4.9760
790.00,4.7206
789.00,4.2520
788.00,4.0411
787.00,3.9694
786.00,3.9250
785.00,3.9018
784.00,3.9288
783.00,4.0572
782.00,4.2244
781.00,4.2106
780.00,4.1163
779.00,4.0720
778.00,4.0539
777.00,4.0556
776.00,4.0675
775.00,4.0419
774.00,3.9815
773.00,3.9531
772.00,4.0633
771.00,4.3346
770.00,4.3491
769.00,4.3618
768.00,4.8061
767.00,4.9433
766.00,4.4608
765.00,4.4866
764.00,4.7119
763.00,4.4595
762.00,4.2533
761.00,4.3300
760.00,4.7612
759.00,4.4355
758.00,4.2780
757.00,4.5142
756.00,4.4709
755.00,4.2395
754.00,4.0490
753.00,3.9631
752.00,3.9535
751.00,4.0214
750.00,4.1137
749.00,4.4049
748.00,4.8447
747.00,4.2153
746.00,4.0690
745.00,4.1106
744.00,4.1096
743.00,4.0501
742.00,3.9481
741.00,3.9610
740.00,3.9885
739.00,4.2450
738.00,4.7261
737.00,4.0513
736.00,3.8773
735.00,3.9050
734.00,3.9643
733.00,4.0738
732.00,4.1361
731.00,4.3565
730.00,4.8277
729.00,4.4854
728.00,4.2546
727.00,4.2244
726.00,4.2575
725.00,4.3054
724.00,4.1111
723.00,3.9708
722.00,3.9793
721.00,4.2106
720.00,4.5160
719.00,4.2621
718.00,4.2882
717.00,4.5573
716.00,4.4941
715.00,4.4347
714.00,4.3918
713.00,4.2047
712.00,4.0162
711.00,3.9173
710.00,3.9067
709.00,3.9650
708.00,3.9867
707.00,3.9043
706.00,3.8581
705.00,3.9296
704.00,4.1442
703.00,4.4391
702.00,4.4566
701.00,4.4278
700.00,4.4979
