Created as New Dataset,Sample 083 By Administrator Date Wednesday, November 24 2021
cm-1,A
7502.00,1.0832
7501.00,1.0762
7500.00,1.0685
7499.00,1.0601
7498.00,1.0511
7497.00,1.0417
7496.00,1.0321
7495.00,1.0224
7494.00,1.0122
7493.00,1.0016
7492.00,0.9912
7491.00,0.9813
7490.00,0.9719
7489.00,0.9622
7488.00,0.9520
7487.00,0.9414
7486.00,0.9310
7485.00,0.9209
7484.00,0.9113
7483.00,0.9021
7482.00,0.8928
7481.00,0.8835
7480.00,0.8743
7479.00,0.8656
7478.00,0.8574
7477.00,0.8493
7476.00,0.8412
7475.00,0.8334
7474.00,0.8260
7473.00,0.8193
7472.00,0.8131
7471.00,0.8076
7470.00,0.8025
7469.00,0.7978
7468.00,0.7934
7467.00,0.7895
7466.00,0.7862
7465.00,0.7837
7464.00,0.7816
7463.00,0.7798
7462.00,0.7786
7461.00,0.7781
7460.00,0.7785
7459.00,0.7796
7458.00,0.7811
7457.00,0.7832
7456.00,0.7858
7455.00,0.7891
7454.00,0.7929
7453.00,0.7971
7452.00,0.8017
7451.00,0.8069
7450.00,0.8126
7449.00,0.8186
7448.00,0.8248
7447.00,0.8313
7446.00,0.8384
7445.00,0.8460
7444.00,0.8538
7443.00,0.8614
7442.00,0.8686
7441.00,0.8761
7440.00,0.8841
7439.00,0.8925
7438.00,0.9012
7437.00,0.9102
7436.00,0.9198
7435.00,0.9299
7434.00,0.9398
7433.00,0.9488
7432.00,0.9570
7431.00,0.9650
7430.00,0.9732
7429.00,0.9816
7428.00,0.9900
7427.00,0.9987
7426.00,1.0079
7425.00,1.0173
7424.00,1.0263
7423.00,1.0346
7422.00,1.0421
7421.00,1.0489
7420.00,1.0547
7419.00,1.0597
7418.00,1.0642
7417.00,1.0688
7416.00,1.0736
7415.00,1.0778
7414.00,1.0811
7413.00,1.0838
7412.00,1.0865
7411.00,1.0894
7410.00,1.0925
7409.00,1.0952
7408.00,1.0972
7407.00,1.0988
7406.00,1.1004
7405.00,1.1022
7404.00,1.1036
7403.00,1.1039
7402.00,1.1031
7401.00,1.1018
7400.00,1.1005
7399.00,1.0986
7398.00,1.0956
7397.00,1.0915
7396.00,1.0870
7395.00,1.0830
7394.00,1.0795
7393.00,1.0760
7392.00,1.0726
7391.00,1.0696
7390.00,1.0672
7389.00,1.0650
7388.00,1.0624
7387.00,1.0592
7386.00,1.0562
7385.00,1.0545
7384.00,1.0541
7383.00,1.0538
7382.00,1.0527
7381.00,1.0513
7380.00,1.0506
7379.00,1.0505
7378.00,1.0494
7377.00,1.0459
7376.00,1.0403
7375.00,1.0341
7374.00,1.0280
7373.00,1.0216
7372.00,1.0142
7371.00,1.0063
7370.00,0.9987
7369.00,0.9921
7368.00,0.9864
7367.00,0.9812
7366.00,0.9758
7365.00,0.9698
7364.00,0.9629
7363.00,0.9553
7362.00,0.9478
7361.00,0.9405
7360.00,0.9335
7359.00,0.9262
7358.00,0.9183
7357.00,0.9101
7356.00,0.9022
7355.00,0.8947
7354.00,0.8874
7353.00,0.8800
7352.00,0.8722
7351.00,0.8646
7350.00,0.8572
7349.00,0.8499
7348.00,0.8422
7347.00,0.8339
7346.00,0.8255
7345.00,0.8177
7344.00,0.8108
7343.00,0.8048
7342.00,0.7992
7341.00,0.7940
7340.00,0.7891
7339.00,0.7847
7338.00,0.7807
7337.00,0.7769
7336.00,0.7732
7335.00,0.7699
7334.00,0.7673
7333.00,0.7655
7332.00,0.7648
7331.00,0.7649
7330.00,0.7655
7329.00,0.7667
7328.00,0.7685
7327.00,0.7708
7326.00,0.7736
7325.00,0.7770
7324.00,0.7809
7323.00,0.7854
7322.00,0.7903
7321.00,0.7955
7320.00,0.8011
7319.00,0.8073
7318.00,0.8143
7317.00,0.8216
7316.00,0.8292
7315.00,0.8372
7314.00,0.8458
7313.00,0.8550
7312.00,0.8645
7311.00,0.8738
7310.00,0.8828
7309.00,0.8918
7308.00,0.9011
7307.00,0.9105
7306.00,0.9201
7305.00,0.9298
7304.00,0.9399
7303.00,0.9504
7302.00,0.9606
7301.00,0.9702
7300.00,0.9795
7299.00,0.9889
7298.00,0.9987
7297.00,1.0084
7296.00,1.0178
7295.00,1.0270
7294.00,1.0360
7293.00,1.0450
7292.00,1.0538
7291.00,1.0623
7290.00,1.0704
7289.00,1.0784
7288.00,1.0867
7287.00,1.0953
7286.00,1.1040
7285.00,1.1121
7284.00,1.1194
7283.00,1.1261
7282.00,1.1326
7281.00,1.1390
7280.00,1.1450
7279.00,1.1505
7278.00,1.1556
7277.00,1.1604
7276.00,1.1649
7275.00,1.1688
7274.00,1.1720
7273.00,1.1746
7272.00,1.1770
7271.00,1.1797
7270.00,1.1828
7269.00,1.1862
7268.00,1.1892
7267.00,1.1913
7266.00,1.1921
7265.00,1.1921
7264.00,1.1917
7263.00,1.1910
7262.00,1.1898
7261.00,1.1882
7260.00,1.1865
7259.00,1.1852
7258.00,1.1841
7257.00,1.1826
7256.00,1.1803
7255.00,1.1775
7254.00,1.1749
7253.00,1.1723
7252.00,1.1692
7251.00,1.1651
7250.00,1.1600
7249.00,1.1543
7248.00,1.1481
7247.00,1.1416
7246.00,1.1346
7245.00,1.1271
7244.00,1.1193
7243.00,1.1115
7242.00,1.1036
7241.00,1.0954
7240.00,1.0866
7239.00,1.0775
7238.00,1.0682
7237.00,1.0590
7236.00,1.0498
7235.00,1.0405
7234.00,1.0309
7233.00,1.0212
7232.00,1.0112
7231.00,1.0009
7230.00,0.9905
7229.00,0.9800
7228.00,0.9693
7227.00,0.9584
7226.00,0.9475
7225.00,0.9367
7224.00,0.9262
7223.00,0.9160
7222.00,0.9060
7221.00,0.8963
7220.00,0.8872
7219.00,0.8783
7218.00,0.8696
7217.00,0.8608
7216.00,0.8521
7215.00,0.8438
7214.00,0.8358
7213.00,0.8282
7212.00,0.8208
7211.00,0.8139
7210.00,0.8076
7209.00,0.8019
7208.00,0.7967
7207.00,0.7920
7206.00,0.7879
7205.00,0.7843
7204.00,0.7814
7203.00,0.7792
7202.00,0.7776
7201.00,0.7766
7200.00,0.7761
7199.00,0.7761
7198.00,0.7768
7197.00,0.7782
7196.00,0.7802
7195.00,0.7827
7194.00,0.7859
7193.00,0.7899
7192.00,0.7944
7191.00,0.7992
7190.00,0.8043
7189.00,0.8099
7188.00,0.8161
7187.00,0.8229
7186.00,0.8301
7185.00,0.8375
7184.00,0.8453
7183.00,0.8535
7182.00,0.8619
7181.00,0.8705
7180.00,0.8792
7179.00,0.8883
7178.00,0.8975
7177.00,0.9071
7176.00,0.9170
7175.00,0.9272
7174.00,0.9374
7173.00,0.9473
7172.00,0.9568
7171.00,0.9661
7170.00,0.9754
7169.00,0.9843
7168.00,0.9928
7167.00,1.0013
7166.00,1.0101
7165.00,1.0190
7164.00,1.0278
7163.00,1.0367
7162.00,1.0456
7161.00,1.0546
7160.00,1.0630
7159.00,1.0710
7158.00,1.0786
7157.00,1.0862
7156.00,1.0934
7155.00,1.1000
7154.00,1.1061
7153.00,1.1120
7152.00,1.1177
7151.00,1.1233
7150.00,1.1286
7149.00,1.1338
7148.00,1.1385
7147.00,1.1428
7146.00,1.1470
7145.00,1.1516
7144.00,1.1564
7143.00,1.1607
7142.00,1.1637
7141.00,1.1655
7140.00,1.1671
7139.00,1.1691
7138.00,1.1711
7137.00,1.1725
7136.00,1.1733
7135.00,1.1739
7134.00,1.1749
7133.00,1.1757
7132.00,1.1757
7131.00,1.1746
7130.00,1.1728
7129.00,1.1709
7128.00,1.1689
7127.00,1.1663
7126.00,1.1627
7125.00,1.1585
7124.00,1.1543
7123.00,1.1507
7122.00,1.1475
7121.00,1.1443
7120.00,1.1407
7119.00,1.1366
7118.00,1.1322
7117.00,1.1272
7116.00,1.1213
7115.00,1.1143
7114.00,1.1066
7113.00,1.0987
7112.00,1.0912
7111.00,1.0841
7110.00,1.0770
7109.00,1.0696
7108.00,1.0614
7107.00,1.0527
7106.00,1.0440
7105.00,1.0354
7104.00,1.0268
7103.00,1.0176
7102.00,1.0079
7101.00,0.9981
7100.00,0.9885
7099.00,0.9790
7098.00,0.9691
7097.00,0.9587
7096.00,0.9478
7095.00,0.9369
7094.00,0.9263
7093.00,0.9160
7092.00,0.9060
7091.00,0.8961
7090.00,0.8864
7089.00,0.8772
7088.00,0.8684
7087.00,0.8597
7086.00,0.8513
7085.00,0.8431
7084.00,0.8348
7083.00,0.8267
7082.00,0.8190
7081.00,0.8117
7080.00,0.8051
7079.00,0.7991
7078.00,0.7935
7077.00,0.7884
7076.00,0.7839
7075.00,0.7801
7074.00,0.7770
7073.00,0.7746
7072.00,0.7728
7071.00,0.7714
7070.00,0.7705
7069.00,0.7703
7068.00,0.7709
7067.00,0.7721
7066.00,0.7739
7065.00,0.7761
7064.00,0.7790
7063.00,0.7826
7062.00,0.7869
7061.00,0.7919
7060.00,0.7974
7059.00,0.8032
7058.00,0.8095
7057.00,0.8161
7056.00,0.8231
7055.00,0.8303
7054.00,0.8378
7053.00,0.8459
7052.00,0.8545
7051.00,0.8636
7050.00,0.8730
7049.00,0.8829
7048.00,0.8931
7047.00,0.9035
7046.00,0.9137
7045.00,0.9238
7044.00,0.9339
7043.00,0.9442
7042.00,0.9545
7041.00,0.9646
7040.00,0.9747
7039.00,0.9848
7038.00,0.9949
7037.00,1.0047
7036.00,1.0142
7035.00,1.0237
7034.00,1.0334
7033.00,1.0431
7032.00,1.0525
7031.00,1.0612
7030.00,1.0697
7029.00,1.0784
7028.00,1.0874
7027.00,1.0963
7026.00,1.1048
7025.00,1.1130
7024.00,1.1212
7023.00,1.1297
7022.00,1.1379
7021.00,1.1450
7020.00,1.1509
7019.00,1.1562
7018.00,1.1616
7017.00,1.1674
7016.00,1.1733
7015.00,1.1788
7014.00,1.1839
7013.00,1.1886
7012.00,1.1930
7011.00,1.1968
7010.00,1.1993
7009.00,1.2008
7008.00,1.2020
7007.00,1.2037
7006.00,1.2061
7005.00,1.2081
7004.00,1.2093
7003.00,1.2099
7002.00,1.2101
7001.00,1.2101
7000.00,1.2093
6999.00,1.2077
6998.00,1.2059
6997.00,1.2043
6996.00,1.2026
6995.00,1.2003
6994.00,1.1968
6993.00,1.1926
6992.00,1.1884
6991.00,1.1843
6990.00,1.1802
6989.00,1.1760
6988.00,1.1715
6987.00,1.1668
6986.00,1.1613
6985.00,1.1551
6984.00,1.1480
6983.00,1.1405
6982.00,1.1322
6981.00,1.1234
6980.00,1.1143
6979.00,1.1053
6978.00,1.0963
6977.00,1.0870
6976.00,1.0773
6975.00,1.0676
6974.00,1.0580
6973.00,1.0482
6972.00,1.0381
6971.00,1.0277
6970.00,1.0173
6969.00,1.0066
6968.00,0.9955
6967.00,0.9843
6966.00,0.9732
6965.00,0.9623
6964.00,0.9513
6963.00,0.9402
6962.00,0.9293
6961.00,0.9187
6960.00,0.9083
6959.00,0.8978
6958.00,0.8872
6957.00,0.8770
6956.00,0.8672
6955.00,0.8578
6954.00,0.8488
6953.00,0.8403
6952.00,0.8323
6951.00,0.8247
6950.00,0.8174
6949.00,0.8103
6948.00,0.8037
6947.00,0.7979
6946.00,0.7928
6945.00,0.7881
6944.00,0.7840
6943.00,0.7806
6942.00,0.7778
6941.00,0.7755
6940.00,0.7735
6939.00,0.7719
6938.00,0.7712
6937.00,0.7717
6936.00,0.7733
6935.00,0.7755
6934.00,0.7784
6933.00,0.7819
6932.00,0.7861
6931.00,0.7908
6930.00,0.7957
6929.00,0.8010
6928.00,0.8067
6927.00,0.8132
6926.00,0.8202
6925.00,0.8276
6924.00,0.8354
6923.00,0.8435
6922.00,0.8520
6921.00,0.8608
6920.00,0.8700
6919.00,0.8794
6918.00,0.8890
6917.00,0.8988
6916.00,0.9088
6915.00,0.9188
6914.00,0.9289
6913.00,0.9389
6912.00,0.9489
6911.00,0.9588
6910.00,0.9689
6909.00,0.9791
6908.00,0.9893
6907.00,0.9994
6906.00,1.0092
6905.00,1.0189
6904.00,1.0287
6903.00,1.0385
6902.00,1.0483
6901.00,1.0580
6900.00,1.0674
6899.00,1.0765
6898.00,1.0853
6897.00,1.0937
6896.00,1.1019
6895.00,1.1099
6894.00,1.1177
6893.00,1.1252
6892.00,1.1323
6891.00,1.1391
6890.00,1.1457
6889.00,1.1518
6888.00,1.1575
6887.00,1.1625
6886.00,1.1673
6885.00,1.1720
6884.00,1.1768
6883.00,1.1816
6882.00,1.1858
6881.00,1.1892
6880.00,1.1918
6879.00,1.1940
6878.00,1.1959
6877.00,1.1973
6876.00,1.1981
6875.00,1.1988
6874.00,1.1999
6873.00,1.2011
6872.00,1.2016
6871.00,1.2013
6870.00,1.2004
6869.00,1.1995
6868.00,1.1984
6867.00,1.1964
6866.00,1.1933
6865.00,1.1896
6864.00,1.1858
6863.00,1.1820
6862.00,1.1779
6861.00,1.1734
6860.00,1.1688
6859.00,1.1644
6858.00,1.1600
6857.00,1.1552
6856.00,1.1497
6855.00,1.1434
6854.00,1.1369
6853.00,1.1300
6852.00,1.1229
6851.00,1.1155
6850.00,1.1077
6849.00,1.0998
6848.00,1.0917
6847.00,1.0835
6846.00,1.0751
6845.00,1.0663
6844.00,1.0570
6843.00,1.0474
6842.00,1.0377
6841.00,1.0277
6840.00,1.0172
6839.00,1.0061
6838.00,0.9949
6837.00,0.9840
6836.00,0.9734
6835.00,0.9628
6834.00,0.9518
6833.00,0.9408
6832.00,0.9300
6831.00,0.9194
6830.00,0.9087
6829.00,0.8980
6828.00,0.8873
6827.00,0.8769
6826.00,0.8669
6825.00,0.8575
6824.00,0.8486
6823.00,0.8401
6822.00,0.8318
6821.00,0.8239
6820.00,0.8162
6819.00,0.8088
6818.00,0.8016
6817.00,0.7950
6816.00,0.7890
6815.00,0.7836
6814.00,0.7790
6813.00,0.7751
6812.00,0.7721
6811.00,0.7698
6810.00,0.7681
6809.00,0.7669
6808.00,0.7662
6807.00,0.7661
6806.00,0.7668
6805.00,0.7682
6804.00,0.7702
6803.00,0.7729
6802.00,0.7763
6801.00,0.7806
6800.00,0.7854
6799.00,0.7907
6798.00,0.7966
6797.00,0.8031
6796.00,0.8101
6795.00,0.8175
6794.00,0.8253
6793.00,0.8336
6792.00,0.8423
6791.00,0.8510
6790.00,0.8598
6789.00,0.8689
6788.00,0.8786
6787.00,0.8887
6786.00,0.8992
6785.00,0.9099
6784.00,0.9209
6783.00,0.9320
6782.00,0.9430
6781.00,0.9536
6780.00,0.9639
6779.00,0.9740
6778.00,0.9842
6777.00,0.9945
6776.00,1.0048
6775.00,1.0152
6774.00,1.0257
6773.00,1.0364
6772.00,1.0468
6771.00,1.0567
6770.00,1.0661
6769.00,1.0751
6768.00,1.0839
6767.00,1.0928
6766.00,1.1018
6765.00,1.1107
6764.00,1.1192
6763.00,1.1272
6762.00,1.1348
6761.00,1.1421
6760.00,1.1491
6759.00,1.1554
6758.00,1.1615
6757.00,1.1675
6756.00,1.1739
6755.00,1.1806
6754.00,1.1870
6753.00,1.1928
6752.00,1.1979
6751.00,1.2025
6750.00,1.2066
6749.00,1.2103
6748.00,1.2135
6747.00,1.2165
6746.00,1.2190
6745.00,1.2210
6744.00,1.2225
6743.00,1.2236
6742.00,1.2243
6741.00,1.2245
6740.00,1.2240
6739.00,1.2231
6738.00,1.2224
6737.00,1.2218
6736.00,1.2209
6735.00,1.2192
6734.00,1.2163
6733.00,1.2127
6732.00,1.2089
6731.00,1.2049
6730.00,1.2006
6729.00,1.1960
6728.00,1.1912
6727.00,1.1862
6726.00,1.1809
6725.00,1.1752
6724.00,1.1688
6723.00,1.1620
6722.00,1.1545
6721.00,1.1465
6720.00,1.1379
6719.00,1.1292
6718.00,1.1203
6717.00,1.1115
6716.00,1.1028
6715.00,1.0941
6714.00,1.0852
6713.00,1.0759
6712.00,1.0659
6711.00,1.0553
6710.00,1.0443
6709.00,1.0328
6708.00,1.0211
6707.00,1.0091
6706.00,0.9971
6705.00,0.9852
6704.00,0.9735
6703.00,0.9618
6702.00,0.9502
6701.00,0.9386
6700.00,0.9272
6699.00,0.9161
6698.00,0.9052
6697.00,0.8945
6696.00,0.8840
6695.00,0.8737
6694.00,0.8639
6693.00,0.8544
6692.00,0.8450
6691.00,0.8359
6690.00,0.8271
6689.00,0.8189
6688.00,0.8112
6687.00,0.8041
6686.00,0.7975
6685.00,0.7917
6684.00,0.7865
6683.00,0.7818
6682.00,0.7777
6681.00,0.7743
6680.00,0.7713
6679.00,0.7690
6678.00,0.7675
6677.00,0.7669
6676.00,0.7671
6675.00,0.7680
6674.00,0.7697
6673.00,0.7722
6672.00,0.7755
6671.00,0.7794
6670.00,0.7838
6669.00,0.7886
6668.00,0.7942
6667.00,0.8004
6666.00,0.8071
6665.00,0.8142
6664.00,0.8217
6663.00,0.8297
6662.00,0.8382
6661.00,0.8471
6660.00,0.8562
6659.00,0.8657
6658.00,0.8756
6657.00,0.8858
6656.00,0.8962
6655.00,0.9065
6654.00,0.9169
6653.00,0.9273
6652.00,0.9377
6651.00,0.9481
6650.00,0.9589
6649.00,0.9696
6648.00,0.9803
6647.00,0.9908
6646.00,1.0013
6645.00,1.0119
6644.00,1.0224
6643.00,1.0325
6642.00,1.0425
6641.00,1.0526
6640.00,1.0628
6639.00,1.0729
6638.00,1.0825
6637.00,1.0918
6636.00,1.1007
6635.00,1.1093
6634.00,1.1175
6633.00,1.1253
6632.00,1.1331
6631.00,1.1407
6630.00,1.1479
6629.00,1.1547
6628.00,1.1612
6627.00,1.1674
6626.00,1.1733
6625.00,1.1787
6624.00,1.1835
6623.00,1.1882
6622.00,1.1927
6621.00,1.1970
6620.00,1.2006
6619.00,1.2036
6618.00,1.2062
6617.00,1.2085
6616.00,1.2105
6615.00,1.2121
6614.00,1.2134
6613.00,1.2142
6612.00,1.2146
6611.00,1.2145
6610.00,1.2140
6609.00,1.2131
6608.00,1.2118
6607.00,1.2102
6606.00,1.2086
6605.00,1.2067
6604.00,1.2044
6603.00,1.2016
6602.00,1.1984
6601.00,1.1949
6600.00,1.1908
6599.00,1.1862
6598.00,1.1812
6597.00,1.1760
6596.00,1.1704
6595.00,1.1643
6594.00,1.1579
6593.00,1.1513
6592.00,1.1446
6591.00,1.1377
6590.00,1.1304
6589.00,1.1227
6588.00,1.1144
6587.00,1.1056
6586.00,1.0967
6585.00,1.0879
6584.00,1.0787
6583.00,1.0690
6582.00,1.0589
6581.00,1.0488
6580.00,1.0387
6579.00,1.0285
6578.00,1.0177
6577.00,1.0067
6576.00,0.9956
6575.00,0.9844
6574.00,0.9731
6573.00,0.9617
6572.00,0.9503
6571.00,0.9390
6570.00,0.9279
6569.00,0.9169
6568.00,0.9060
6567.00,0.8951
6566.00,0.8842
6565.00,0.8736
6564.00,0.8633
6563.00,0.8534
6562.00,0.8440
6561.00,0.8348
6560.00,0.8259
6559.00,0.8174
6558.00,0.8093
6557.00,0.8017
6556.00,0.7946
6555.00,0.7880
6554.00,0.7819
6553.00,0.7765
6552.00,0.7719
6551.00,0.7680
6550.00,0.7647
6549.00,0.7623
6548.00,0.7608
6547.00,0.7602
6546.00,0.7603
6545.00,0.7611
6544.00,0.7624
6543.00,0.7645
6542.00,0.7673
6541.00,0.7708
6540.00,0.7749
6539.00,0.7795
6538.00,0.7847
6537.00,0.7907
6536.00,0.7974
6535.00,0.8046
6534.00,0.8123
6533.00,0.8204
6532.00,0.8290
6531.00,0.8381
6530.00,0.8476
6529.00,0.8574
6528.00,0.8675
6527.00,0.8778
6526.00,0.8882
6525.00,0.8989
6524.00,0.9099
6523.00,0.9209
6522.00,0.9320
6521.00,0.9431
6520.00,0.9544
6519.00,0.9657
6518.00,0.9772
6517.00,0.9887
6516.00,1.0001
6515.00,1.0117
6514.00,1.0232
6513.00,1.0346
6512.00,1.0455
6511.00,1.0561
6510.00,1.0662
6509.00,1.0761
6508.00,1.0859
6507.00,1.0957
6506.00,1.1053
6505.00,1.1150
6504.00,1.1245
6503.00,1.1339
6502.00,1.1429
6501.00,1.1515
6500.00,1.1597
6499.00,1.1677
6498.00,1.1752
6497.00,1.1822
6496.00,1.1887
6495.00,1.1951
6494.00,1.2014
6493.00,1.2072
6492.00,1.2124
6491.00,1.2170
6490.00,1.2212
6489.00,1.2253
6488.00,1.2292
6487.00,1.2327
6486.00,1.2360
6485.00,1.2391
6484.00,1.2419
6483.00,1.2440
6482.00,1.2457
6481.00,1.2469
6480.00,1.2476
6479.00,1.2476
6478.00,1.2469
6477.00,1.2456
6476.00,1.2440
6475.00,1.2423
6474.00,1.2405
6473.00,1.2385
6472.00,1.2362
6471.00,1.2336
6470.00,1.2306
6469.00,1.2270
6468.00,1.2226
6467.00,1.2174
6466.00,1.2118
6465.00,1.2060
6464.00,1.2000
6463.00,1.1936
6462.00,1.1868
6461.00,1.1794
6460.00,1.1716
6459.00,1.1634
6458.00,1.1549
6457.00,1.1460
6456.00,1.1365
6455.00,1.1265
6454.00,1.1164
6453.00,1.1064
6452.00,1.0961
6451.00,1.0856
6450.00,1.0747
6449.00,1.0635
6448.00,1.0520
6447.00,1.0403
6446.00,1.0283
6445.00,1.0161
6444.00,1.0040
6443.00,0.9919
6442.00,0.9801
6441.00,0.9683
6440.00,0.9563
6439.00,0.9440
6438.00,0.9316
6437.00,0.9192
6436.00,0.9070
6435.00,0.8952
6434.00,0.8837
6433.00,0.8726
6432.00,0.8619
6431.00,0.8515
6430.00,0.8416
6429.00,0.8322
6428.00,0.8232
6427.00,0.8147
6426.00,0.8068
6425.00,0.7995
6424.00,0.7928
6423.00,0.7865
6422.00,0.7808
6421.00,0.7759
6420.00,0.7720
6419.00,0.7689
6418.00,0.7666
6417.00,0.7649
6416.00,0.7640
6415.00,0.7638
6414.00,0.7643
6413.00,0.7656
6412.00,0.7675
6411.00,0.7702
6410.00,0.7739
6409.00,0.7785
6408.00,0.7837
6407.00,0.7893
6406.00,0.7954
6405.00,0.8021
6404.00,0.8094
6403.00,0.8172
6402.00,0.8256
6401.00,0.8346
6400.00,0.8443
6399.00,0.8544
6398.00,0.8648
6397.00,0.8753
6396.00,0.8859
6395.00,0.8965
6394.00,0.9072
6393.00,0.9182
6392.00,0.9293
6391.00,0.9406
6390.00,0.9520
6389.00,0.9636
6388.00,0.9752
6387.00,0.9867
6386.00,0.9980
6385.00,1.0089
6384.00,1.0195
6383.00,1.0298
6382.00,1.0402
6381.00,1.0507
6380.00,1.0613
6379.00,1.0717
6378.00,1.0819
6377.00,1.0921
6376.00,1.1020
6375.00,1.1112
6374.00,1.1200
6373.00,1.1286
6372.00,1.1374
6371.00,1.1460
6370.00,1.1543
6369.00,1.1620
6368.00,1.1692
6367.00,1.1759
6366.00,1.1820
6365.00,1.1878
6364.00,1.1937
6363.00,1.1996
6362.00,1.2054
6361.00,1.2106
6360.00,1.2151
6359.00,1.2191
6358.00,1.2225
6357.00,1.2255
6356.00,1.2282
6355.00,1.2309
6354.00,1.2333
6353.00,1.2352
6352.00,1.2364
6351.00,1.2370
6350.00,1.2370
6349.00,1.2365
6348.00,1.2356
6347.00,1.2344
6346.00,1.2332
6345.00,1.2318
6344.00,1.2301
6343.00,1.2282
6342.00,1.2262
6341.00,1.2238
6340.00,1.2208
6339.00,1.2169
6338.00,1.2124
6337.00,1.2075
6336.00,1.2023
6335.00,1.1968
6334.00,1.1909
6333.00,1.1846
6332.00,1.1780
6331.00,1.1709
6330.00,1.1633
6329.00,1.1551
6328.00,1.1469
6327.00,1.1388
6326.00,1.1309
6325.00,1.1228
6324.00,1.1140
6323.00,1.1045
6322.00,1.0944
6321.00,1.0838
6320.00,1.0728
6319.00,1.0617
6318.00,1.0506
6317.00,1.0395
6316.00,1.0282
6315.00,1.0167
6314.00,1.0051
6313.00,0.9933
6312.00,0.9814
6311.00,0.9695
6310.00,0.9576
6309.00,0.9458
6308.00,0.9340
6307.00,0.9221
6306.00,0.9099
6305.00,0.8978
6304.00,0.8858
6303.00,0.8744
6302.00,0.8634
6301.00,0.8529
6300.00,0.8428
6299.00,0.8331
6298.00,0.8238
6297.00,0.8148
6296.00,0.8061
6295.00,0.7978
6294.00,0.7903
6293.00,0.7836
6292.00,0.7778
6291.00,0.7726
6290.00,0.7683
6289.00,0.7647
6288.00,0.7618
6287.00,0.7595
6286.00,0.7580
6285.00,0.7574
6284.00,0.7578
6283.00,0.7590
6282.00,0.7610
6281.00,0.7637
6280.00,0.7671
6279.00,0.7710
6278.00,0.7757
6277.00,0.7811
6276.00,0.7872
6275.00,0.7940
6274.00,0.8015
6273.00,0.8097
6272.00,0.8183
6271.00,0.8274
6270.00,0.8369
6269.00,0.8467
6268.00,0.8567
6267.00,0.8671
6266.00,0.8779
6265.00,0.8890
6264.00,0.9002
6263.00,0.9117
6262.00,0.9236
6261.00,0.9359
6260.00,0.9482
6259.00,0.9602
6258.00,0.9721
6257.00,0.9841
6256.00,0.9961
6255.00,1.0080
6254.00,1.0198
6253.00,1.0314
6252.00,1.0428
6251.00,1.0541
6250.00,1.0652
6249.00,1.0761
6248.00,1.0870
6247.00,1.0979
6246.00,1.1089
6245.00,1.1197
6244.00,1.1300
6243.00,1.1398
6242.00,1.1493
6241.00,1.1585
6240.00,1.1674
6239.00,1.1760
6238.00,1.1845
6237.00,1.1926
6236.00,1.2002
6235.00,1.2070
6234.00,1.2131
6233.00,1.2191
6232.00,1.2250
6231.00,1.2308
6230.00,1.2365
6229.00,1.2421
6228.00,1.2475
6227.00,1.2522
6226.00,1.2559
6225.00,1.2588
6224.00,1.2613
6223.00,1.2637
6222.00,1.2660
6221.00,1.2678
6220.00,1.2692
6219.00,1.2702
6218.00,1.2707
6217.00,1.2707
6216.00,1.2700
6215.00,1.2689
6214.00,1.2675
6213.00,1.2658
6212.00,1.2635
6211.00,1.2608
6210.00,1.2576
6209.00,1.2539
6208.00,1.2496
6207.00,1.2449
6206.00,1.2400
6205.00,1.2351
6204.00,1.2300
6203.00,1.2245
6202.00,1.2184
6201.00,1.2117
6200.00,1.2042
6199.00,1.1958
6198.00,1.1868
6197.00,1.1775
6196.00,1.1680
6195.00,1.1582
6194.00,1.1483
6193.00,1.1381
6192.00,1.1277
6191.00,1.1174
6190.00,1.1068
6189.00,1.0958
6188.00,1.0842
6187.00,1.0720
6186.00,1.0596
6185.00,1.0470
6184.00,1.0342
6183.00,1.0212
6182.00,1.0082
6181.00,0.9953
6180.00,0.9824
6179.00,0.9694
6178.00,0.9562
6177.00,0.9431
6176.00,0.9301
6175.00,0.9173
6174.00,0.9047
6173.00,0.8924
6172.00,0.8803
6171.00,0.8686
6170.00,0.8573
6169.00,0.8463
6168.00,0.8357
6167.00,0.8257
6166.00,0.8162
6165.00,0.8074
6164.00,0.7992
6163.00,0.7918
6162.00,0.7850
6161.00,0.7789
6160.00,0.7734
6159.00,0.7686
6158.00,0.7647
6157.00,0.7617
6156.00,0.7594
6155.00,0.7578
6154.00,0.7572
6153.00,0.7575
6152.00,0.7587
6151.00,0.7608
6150.00,0.7638
6149.00,0.7676
6148.00,0.7721
6147.00,0.7772
6146.00,0.7829
6145.00,0.7894
6144.00,0.7965
6143.00,0.8043
6142.00,0.8127
6141.00,0.8219
6140.00,0.8314
6139.00,0.8411
6138.00,0.8512
6137.00,0.8616
6136.00,0.8723
6135.00,0.8834
6134.00,0.8947
6133.00,0.9064
6132.00,0.9182
6131.00,0.9300
6130.00,0.9420
6129.00,0.9541
6128.00,0.9661
6127.00,0.9779
6126.00,0.9897
6125.00,1.0015
6124.00,1.0132
6123.00,1.0248
6122.00,1.0363
6121.00,1.0480
6120.00,1.0595
6119.00,1.0709
6118.00,1.0820
6117.00,1.0927
6116.00,1.1030
6115.00,1.1129
6114.00,1.1224
6113.00,1.1317
6112.00,1.1409
6111.00,1.1499
6110.00,1.1587
6109.00,1.1673
6108.00,1.1757
6107.00,1.1836
6106.00,1.1912
6105.00,1.1984
6104.00,1.2052
6103.00,1.2116
6102.00,1.2176
6101.00,1.2232
6100.00,1.2285
6099.00,1.2333
6098.00,1.2378
6097.00,1.2420
6096.00,1.2459
6095.00,1.2493
6094.00,1.2525
6093.00,1.2552
6092.00,1.2573
6091.00,1.2586
6090.00,1.2597
6089.00,1.2607
6088.00,1.2616
6087.00,1.2622
6086.00,1.2624
6085.00,1.2624
6084.00,1.2620
6083.00,1.2611
6082.00,1.2597
6081.00,1.2578
6080.00,1.2555
6079.00,1.2527
6078.00,1.2495
6077.00,1.2459
6076.00,1.2420
6075.00,1.2376
6074.00,1.2327
6073.00,1.2273
6072.00,1.2215
6071.00,1.2150
6070.00,1.2078
6069.00,1.2003
6068.00,1.1928
6067.00,1.1851
6066.00,1.1771
6065.00,1.1686
6064.00,1.1597
6063.00,1.1501
6062.00,1.1402
6061.00,1.1299
6060.00,1.1196
6059.00,1.1090
6058.00,1.0978
6057.00,1.0861
6056.00,1.0739
6055.00,1.0612
6054.00,1.0482
6053.00,1.0349
6052.00,1.0216
6051.00,1.0083
6050.00,0.9952
6049.00,0.9819
6048.00,0.9687
6047.00,0.9553
6046.00,0.9419
6045.00,0.9284
6044.00,0.9151
6043.00,0.9021
6042.00,0.8895
6041.00,0.8774
6040.00,0.8656
6039.00,0.8543
6038.00,0.8434
6037.00,0.8329
6036.00,0.8227
6035.00,0.8130
6034.00,0.8041
6033.00,0.7959
6032.00,0.7884
6031.00,0.7815
6030.00,0.7754
6029.00,0.7702
6028.00,0.7659
6027.00,0.7624
6026.00,0.7597
6025.00,0.7578
6024.00,0.7568
6023.00,0.7566
6022.00,0.7573
6021.00,0.7589
6020.00,0.7615
6019.00,0.7649
6018.00,0.7692
6017.00,0.7742
6016.00,0.7799
6015.00,0.7863
6014.00,0.7934
6013.00,0.8013
6012.00,0.8097
6011.00,0.8186
6010.00,0.8282
6009.00,0.8384
6008.00,0.8491
6007.00,0.8601
6006.00,0.8715
6005.00,0.8833
6004.00,0.8953
6003.00,0.9074
6002.00,0.9197
6001.00,0.9322
6000.00,0.9449
5999.00,0.9576
5998.00,0.9703
5997.00,0.9830
5996.00,0.9957
5995.00,1.0083
5994.00,1.0208
5993.00,1.0333
5992.00,1.0457
5991.00,1.0580
5990.00,1.0701
5989.00,1.0821
5988.00,1.0940
5987.00,1.1057
5986.00,1.1171
5985.00,1.1282
5984.00,1.1391
5983.00,1.1495
5982.00,1.1596
5981.00,1.1693
5980.00,1.1786
5979.00,1.1876
5978.00,1.1965
5977.00,1.2053
5976.00,1.2137
5975.00,1.2217
5974.00,1.2292
5973.00,1.2363
5972.00,1.2429
5971.00,1.2489
5970.00,1.2548
5969.00,1.2606
5968.00,1.2661
5967.00,1.2710
5966.00,1.2755
5965.00,1.2797
5964.00,1.2835
5963.00,1.2865
5962.00,1.2890
5961.00,1.2913
5960.00,1.2932
5959.00,1.2947
5958.00,1.2957
5957.00,1.2968
5956.00,1.2978
5955.00,1.2982
5954.00,1.2978
5953.00,1.2965
5952.00,1.2946
5951.00,1.2922
5950.00,1.2892
5949.00,1.2858
5948.00,1.2824
5947.00,1.2789
5946.00,1.2751
5945.00,1.2705
5944.00,1.2654
5943.00,1.2597
5942.00,1.2537
5941.00,1.2473
5940.00,1.2406
5939.00,1.2336
5938.00,1.2262
5937.00,1.2183
5936.00,1.2097
5935.00,1.2005
5934.00,1.1905
5933.00,1.1800
5932.00,1.1692
5931.00,1.1581
5930.00,1.1467
5929.00,1.1351
5928.00,1.1231
5927.00,1.1109
5926.00,1.0983
5925.00,1.0856
5924.00,1.0726
5923.00,1.0596
5922.00,1.0464
5921.00,1.0329
5920.00,1.0191
5919.00,1.0050
5918.00,0.9907
5917.00,0.9765
5916.00,0.9625
5915.00,0.9486
5914.00,0.9349
5913.00,0.9215
5912.00,0.9084
5911.00,0.8956
5910.00,0.8830
5909.00,0.8709
5908.00,0.8591
5907.00,0.8479
5906.00,0.8373
5905.00,0.8272
5904.00,0.8178
5903.00,0.8090
5902.00,0.8009
5901.00,0.7935
5900.00,0.7869
5899.00,0.7812
5898.00,0.7764
5897.00,0.7726
5896.00,0.7696
5895.00,0.7675
5894.00,0.7661
5893.00,0.7656
5892.00,0.7660
5891.00,0.7673
5890.00,0.7696
5889.00,0.7729
5888.00,0.7771
5887.00,0.7821
5886.00,0.7878
5885.00,0.7944
5884.00,0.8016
5883.00,0.8096
5882.00,0.8182
5881.00,0.8275
5880.00,0.8373
5879.00,0.8474
5878.00,0.8581
5877.00,0.8691
5876.00,0.8806
5875.00,0.8924
5874.00,0.9046
5873.00,0.9171
5872.00,0.9298
5871.00,0.9427
5870.00,0.9557
5869.00,0.9689
5868.00,0.9821
5867.00,0.9951
5866.00,1.0080
5865.00,1.0209
5864.00,1.0337
5863.00,1.0465
5862.00,1.0593
5861.00,1.0721
5860.00,1.0846
5859.00,1.0968
5858.00,1.1086
5857.00,1.1201
5856.00,1.1315
5855.00,1.1429
5854.00,1.1541
5853.00,1.1651
5852.00,1.1759
5851.00,1.1865
5850.00,1.1967
5849.00,1.2063
5848.00,1.2155
5847.00,1.2244
5846.00,1.2330
5845.00,1.2415
5844.00,1.2497
5843.00,1.2577
5842.00,1.2653
5841.00,1.2724
5840.00,1.2789
5839.00,1.2849
5838.00,1.2904
5837.00,1.2955
5836.00,1.3003
5835.00,1.3045
5834.00,1.3082
5833.00,1.3111
5832.00,1.3135
5831.00,1.3157
5830.00,1.3176
5829.00,1.3192
5828.00,1.3206
5827.00,1.3216
5826.00,1.3224
5825.00,1.3226
5824.00,1.3222
5823.00,1.3211
5822.00,1.3194
5821.00,1.3171
5820.00,1.3145
5819.00,1.3117
5818.00,1.3087
5817.00,1.3052
5816.00,1.3012
5815.00,1.2966
5814.00,1.2915
5813.00,1.2861
5812.00,1.2805
5811.00,1.2745
5810.00,1.2682
5809.00,1.2614
5808.00,1.2541
5807.00,1.2464
5806.00,1.2383
5805.00,1.2297
5804.00,1.2206
5803.00,1.2109
5802.00,1.2008
5801.00,1.1901
5800.00,1.1788
5799.00,1.1672
5798.00,1.1554
5797.00,1.1433
5796.00,1.1306
5795.00,1.1176
5794.00,1.1043
5793.00,1.0908
5792.00,1.0770
5791.00,1.0630
5790.00,1.0487
5789.00,1.0344
5788.00,1.0198
5787.00,1.0052
5786.00,0.9907
5785.00,0.9764
5784.00,0.9621
5783.00,0.9480
5782.00,0.9340
5781.00,0.9202
5780.00,0.9067
5779.00,0.8933
5778.00,0.8802
5777.00,0.8678
5776.00,0.8559
5775.00,0.8445
5774.00,0.8337
5773.00,0.8235
5772.00,0.8141
5771.00,0.8056
5770.00,0.7978
5769.00,0.7910
5768.00,0.7850
5767.00,0.7798
5766.00,0.7754
5765.00,0.7719
5764.00,0.7694
5763.00,0.7679
5762.00,0.7674
5761.00,0.7680
5760.00,0.7695
5759.00,0.7719
5758.00,0.7753
5757.00,0.7795
5756.00,0.7847
5755.00,0.7907
5754.00,0.7976
5753.00,0.8051
5752.00,0.8133
5751.00,0.8221
5750.00,0.8316
5749.00,0.8416
5748.00,0.8522
5747.00,0.8633
5746.00,0.8749
5745.00,0.8868
5744.00,0.8990
5743.00,0.9115
5742.00,0.9244
5741.00,0.9374
5740.00,0.9504
5739.00,0.9635
5738.00,0.9766
5737.00,0.9898
5736.00,1.0033
5735.00,1.0169
5734.00,1.0305
5733.00,1.0439
5732.00,1.0570
5731.00,1.0698
5730.00,1.0823
5729.00,1.0946
5728.00,1.1067
5727.00,1.1187
5726.00,1.1308
5725.00,1.1428
5724.00,1.1547
5723.00,1.1663
5722.00,1.1775
5721.00,1.1884
5720.00,1.1990
5719.00,1.2091
5718.00,1.2187
5717.00,1.2279
5716.00,1.2370
5715.00,1.2459
5714.00,1.2545
5713.00,1.2625
5712.00,1.2701
5711.00,1.2774
5710.00,1.2843
5709.00,1.2907
5708.00,1.2967
5707.00,1.3026
5706.00,1.3083
5705.00,1.3136
5704.00,1.3186
5703.00,1.3228
5702.00,1.3263
5701.00,1.3288
5700.00,1.3305
5699.00,1.3320
5698.00,1.3334
5697.00,1.3346
5696.00,1.3354
5695.00,1.3357
5694.00,1.3354
5693.00,1.3346
5692.00,1.3333
5691.00,1.3316
5690.00,1.3298
5689.00,1.3277
5688.00,1.3251
5687.00,1.3218
5686.00,1.3177
5685.00,1.3129
5684.00,1.3077
5683.00,1.3023
5682.00,1.2967
5681.00,1.2908
5680.00,1.2844
5679.00,1.2772
5678.00,1.2693
5677.00,1.2611
5676.00,1.2526
5675.00,1.2442
5674.00,1.2356
5673.00,1.2264
5672.00,1.2164
5671.00,1.2056
5670.00,1.1944
5669.00,1.1828
5668.00,1.1710
5667.00,1.1588
5666.00,1.1465
5665.00,1.1337
5664.00,1.1206
5663.00,1.1069
5662.00,1.0931
5661.00,1.0791
5660.00,1.0650
5659.00,1.0506
5658.00,1.0361
5657.00,1.0215
5656.00,1.0069
5655.00,0.9922
5654.00,0.9774
5653.00,0.9626
5652.00,0.9478
5651.00,0.9332
5650.00,0.9189
5649.00,0.9050
5648.00,0.8914
5647.00,0.8782
5646.00,0.8655
5645.00,0.8533
5644.00,0.8416
5643.00,0.8303
5642.00,0.8197
5641.00,0.8098
5640.00,0.8006
5639.00,0.7922
5638.00,0.7848
5637.00,0.7783
5636.00,0.7728
5635.00,0.7681
5634.00,0.7643
5633.00,0.7614
5632.00,0.7596
5631.00,0.7589
5630.00,0.7592
5629.00,0.7607
5628.00,0.7630
5627.00,0.7663
5626.00,0.7705
5625.00,0.7756
5624.00,0.7816
5623.00,0.7885
5622.00,0.7963
5621.00,0.8048
5620.00,0.8140
5619.00,0.8239
5618.00,0.8343
5617.00,0.8453
5616.00,0.8570
5615.00,0.8691
5614.00,0.8816
5613.00,0.8944
5612.00,0.9074
5611.00,0.9206
5610.00,0.9341
5609.00,0.9479
5608.00,0.9618
5607.00,0.9758
5606.00,0.9898
5605.00,1.0038
5604.00,1.0178
5603.00,1.0318
5602.00,1.0458
5601.00,1.0597
5600.00,1.0734
5599.00,1.0868
5598.00,1.1001
5597.00,1.1131
5596.00,1.1260
5595.00,1.1388
5594.00,1.1514
5593.00,1.1637
5592.00,1.1754
5591.00,1.1867
5590.00,1.1978
5589.00,1.2086
5588.00,1.2192
5587.00,1.2294
5586.00,1.2394
5585.00,1.2490
5584.00,1.2583
5583.00,1.2672
5582.00,1.2757
5581.00,1.2838
5580.00,1.2913
5579.00,1.2983
5578.00,1.3048
5577.00,1.3109
5576.00,1.3164
5575.00,1.3215
5574.00,1.3262
5573.00,1.3305
5572.00,1.3343
5571.00,1.3377
5570.00,1.3408
5569.00,1.3437
5568.00,1.3461
5567.00,1.3477
5566.00,1.3486
5565.00,1.3492
5564.00,1.3497
5563.00,1.3501
5562.00,1.3503
5561.00,1.3498
5560.00,1.3486
5559.00,1.3464
5558.00,1.3436
5557.00,1.3401
5556.00,1.3362
5555.00,1.3317
5554.00,1.3270
5553.00,1.3220
5552.00,1.3167
5551.00,1.3111
5550.00,1.3053
5549.00,1.2990
5548.00,1.2921
5547.00,1.2843
5546.00,1.2759
5545.00,1.2673
5544.00,1.2583
5543.00,1.2492
5542.00,1.2396
5541.00,1.2294
5540.00,1.2187
5539.00,1.2075
5538.00,1.1958
5537.00,1.1838
5536.00,1.1712
5535.00,1.1582
5534.00,1.1448
5533.00,1.1310
5532.00,1.1170
5531.00,1.1027
5530.00,1.0880
5529.00,1.0731
5528.00,1.0580
5527.00,1.0424
5526.00,1.0267
5525.00,1.0111
5524.00,0.9956
5523.00,0.9803
5522.00,0.9650
5521.00,0.9497
5520.00,0.9346
5519.00,0.9196
5518.00,0.9048
5517.00,0.8903
5516.00,0.8763
5515.00,0.8628
5514.00,0.8499
5513.00,0.8376
5512.00,0.8260
5511.00,0.8152
5510.00,0.8051
5509.00,0.7958
5508.00,0.7873
5507.00,0.7796
5506.00,0.7728
5505.00,0.7669
5504.00,0.7620
5503.00,0.7581
5502.00,0.7553
5501.00,0.7535
5500.00,0.7529
5499.00,0.7533
5498.00,0.7549
5497.00,0.7575
5496.00,0.7610
5495.00,0.7655
5494.00,0.7710
5493.00,0.7776
5492.00,0.7851
5491.00,0.7934
5490.00,0.8025
5489.00,0.8123
5488.00,0.8226
5487.00,0.8335
5486.00,0.8449
5485.00,0.8569
5484.00,0.8692
5483.00,0.8819
5482.00,0.8948
5481.00,0.9079
5480.00,0.9213
5479.00,0.9349
5478.00,0.9486
5477.00,0.9623
5476.00,0.9759
5475.00,0.9896
5474.00,1.0035
5473.00,1.0175
5472.00,1.0316
5471.00,1.0457
5470.00,1.0596
5469.00,1.0734
5468.00,1.0868
5467.00,1.1000
5466.00,1.1128
5465.00,1.1254
5464.00,1.1377
5463.00,1.1497
5462.00,1.1617
5461.00,1.1736
5460.00,1.1855
5459.00,1.1974
5458.00,1.2089
5457.00,1.2199
5456.00,1.2304
5455.00,1.2404
5454.00,1.2500
5453.00,1.2592
5452.00,1.2678
5451.00,1.2760
5450.00,1.2839
5449.00,1.2915
5448.00,1.2988
5447.00,1.3059
5446.00,1.3126
5445.00,1.3191
5444.00,1.3251
5443.00,1.3307
5442.00,1.3357
5441.00,1.3401
5440.00,1.3440
5439.00,1.3473
5438.00,1.3502
5437.00,1.3527
5436.00,1.3549
5435.00,1.3566
5434.00,1.3578
5433.00,1.3583
5432.00,1.3581
5431.00,1.3573
5430.00,1.3560
5429.00,1.3543
5428.00,1.3523
5427.00,1.3500
5426.00,1.3475
5425.00,1.3448
5424.00,1.3417
5423.00,1.3383
5422.00,1.3343
5421.00,1.3299
5420.00,1.3249
5419.00,1.3193
5418.00,1.3132
5417.00,1.3065
5416.00,1.2992
5415.00,1.2910
5414.00,1.2821
5413.00,1.2725
5412.00,1.2623
5411.00,1.2518
5410.00,1.2408
5409.00,1.2294
5408.00,1.2177
5407.00,1.2057
5406.00,1.1935
5405.00,1.1808
5404.00,1.1678
5403.00,1.1544
5402.00,1.1408
5401.00,1.1269
5400.00,1.1126
5399.00,1.0977
5398.00,1.0825
5397.00,1.0668
5396.00,1.0506
5395.00,1.0339
5394.00,1.0171
5393.00,1.0005
5392.00,0.9839
5391.00,0.9676
5390.00,0.9517
5389.00,0.9361
5388.00,0.9209
5387.00,0.9058
5386.00,0.8910
5385.00,0.8768
5384.00,0.8630
5383.00,0.8496
5382.00,0.8369
5381.00,0.8248
5380.00,0.8135
5379.00,0.8029
5378.00,0.7930
5377.00,0.7841
5376.00,0.7761
5375.00,0.7692
5374.00,0.7633
5373.00,0.7585
5372.00,0.7550
5371.00,0.7526
5370.00,0.7514
5369.00,0.7516
5368.00,0.7530
5367.00,0.7556
5366.00,0.7592
5365.00,0.7639
5364.00,0.7696
5363.00,0.7763
5362.00,0.7839
5361.00,0.7922
5360.00,0.8014
5359.00,0.8114
5358.00,0.8222
5357.00,0.8338
5356.00,0.8459
5355.00,0.8587
5354.00,0.8721
5353.00,0.8861
5352.00,0.9006
5351.00,0.9153
5350.00,0.9301
5349.00,0.9451
5348.00,0.9602
5347.00,0.9755
5346.00,0.9909
5345.00,1.0065
5344.00,1.0220
5343.00,1.0373
5342.00,1.0523
5341.00,1.0670
5340.00,1.0813
5339.00,1.0957
5338.00,1.1103
5337.00,1.1252
5336.00,1.1399
5335.00,1.1543
5334.00,1.1683
5333.00,1.1818
5332.00,1.1949
5331.00,1.2075
5330.00,1.2197
5329.00,1.2314
5328.00,1.2429
5327.00,1.2542
5326.00,1.2655
5325.00,1.2765
5324.00,1.2871
5323.00,1.2969
5322.00,1.3061
5321.00,1.3145
5320.00,1.3224
5319.00,1.3299
5318.00,1.3372
5317.00,1.3444
5316.00,1.3512
5315.00,1.3572
5314.00,1.3625
5313.00,1.3673
5312.00,1.3719
5311.00,1.3763
5310.00,1.3805
5309.00,1.3840
5308.00,1.3868
5307.00,1.3887
5306.00,1.3899
5305.00,1.3906
5304.00,1.3912
5303.00,1.3917
5302.00,1.3919
5301.00,1.3917
5300.00,1.3909
5299.00,1.3897
5298.00,1.3879
5297.00,1.3854
5296.00,1.3822
5295.00,1.3785
5294.00,1.3742
5293.00,1.3696
5292.00,1.3646
5291.00,1.3594
5290.00,1.3538
5289.00,1.3478
5288.00,1.3415
5287.00,1.3347
5286.00,1.3272
5285.00,1.3191
5284.00,1.3103
5283.00,1.3011
5282.00,1.2915
5281.00,1.2816
5280.00,1.2712
5279.00,1.2602
5278.00,1.2485
5277.00,1.2362
5276.00,1.2235
5275.00,1.2103
5274.00,1.1966
5273.00,1.1827
5272.00,1.1686
5271.00,1.1541
5270.00,1.1392
5269.00,1.1238
5268.00,1.1080
5267.00,1.0920
5266.00,1.0756
5265.00,1.0587
5264.00,1.0416
5263.00,1.0246
5262.00,1.0076
5261.00,0.9906
5260.00,0.9738
5259.00,0.9574
5258.00,0.9413
5257.00,0.9255
5256.00,0.9100
5255.00,0.8948
5254.00,0.8800
5253.00,0.8656
5252.00,0.8518
5251.00,0.8388
5250.00,0.8264
5249.00,0.8149
5248.00,0.8043
5247.00,0.7946
5246.00,0.7859
5245.00,0.7783
5244.00,0.7717
5243.00,0.7663
5242.00,0.7621
5241.00,0.7590
5240.00,0.7572
5239.00,0.7565
5238.00,0.7570
5237.00,0.7585
5236.00,0.7612
5235.00,0.7650
5234.00,0.7700
5233.00,0.7760
5232.00,0.7831
5231.00,0.7913
5230.00,0.8003
5229.00,0.8102
5228.00,0.8208
5227.00,0.8321
5226.00,0.8441
5225.00,0.8568
5224.00,0.8701
5223.00,0.8839
5222.00,0.8980
5221.00,0.9123
5220.00,0.9269
5219.00,0.9417
5218.00,0.9568
5217.00,0.9721
5216.00,0.9874
5215.00,1.0027
5214.00,1.0180
5213.00,1.0332
5212.00,1.0485
5211.00,1.0638
5210.00,1.0791
5209.00,1.0944
5208.00,1.1096
5207.00,1.1246
5206.00,1.1395
5205.00,1.1542
5204.00,1.1683
5203.00,1.1821
5202.00,1.1955
5201.00,1.2086
5200.00,1.2212
5199.00,1.2335
5198.00,1.2458
5197.00,1.2579
5196.00,1.2697
5195.00,1.2812
5194.00,1.2922
5193.00,1.3027
5192.00,1.3126
5191.00,1.3220
5190.00,1.3311
5189.00,1.3398
5188.00,1.3479
5187.00,1.3553
5186.00,1.3620
5185.00,1.3682
5184.00,1.3739
5183.00,1.3793
5182.00,1.3845
5181.00,1.3895
5180.00,1.3940
5179.00,1.3981
5178.00,1.4017
5177.00,1.4049
5176.00,1.4076
5175.00,1.4098
5174.00,1.4116
5173.00,1.4127
5172.00,1.4132
5171.00,1.4129
5170.00,1.4120
5169.00,1.4108
5168.00,1.4095
5167.00,1.4080
5166.00,1.4063
5165.00,1.4041
5164.00,1.4013
5163.00,1.3977
5162.00,1.3933
5161.00,1.3882
5160.00,1.3826
5159.00,1.3766
5158.00,1.3700
5157.00,1.3630
5156.00,1.3556
5155.00,1.3478
5154.00,1.3397
5153.00,1.3312
5152.00,1.3223
5151.00,1.3129
5150.00,1.3027
5149.00,1.2918
5148.00,1.2801
5147.00,1.2681
5146.00,1.2556
5145.00,1.2428
5144.00,1.2295
5143.00,1.2156
5142.00,1.2012
5141.00,1.1864
5140.00,1.1711
5139.00,1.1554
5138.00,1.1393
5137.00,1.1229
5136.00,1.1061
5135.00,1.0890
5134.00,1.0717
5133.00,1.0544
5132.00,1.0370
5131.00,1.0195
5130.00,1.0020
5129.00,0.9846
5128.00,0.9672
5127.00,0.9500
5126.00,0.9330
5125.00,0.9164
5124.00,0.9002
5123.00,0.8844
5122.00,0.8693
5121.00,0.8550
5120.00,0.8416
5119.00,0.8290
5118.00,0.8172
5117.00,0.8062
5116.00,0.7962
5115.00,0.7871
5114.00,0.7792
5113.00,0.7725
5112.00,0.7671
5111.00,0.7630
5110.00,0.7602
5109.00,0.7586
5108.00,0.7583
5107.00,0.7593
5106.00,0.7617
5105.00,0.7653
5104.00,0.7701
5103.00,0.7760
5102.00,0.7830
5101.00,0.7911
5100.00,0.8003
5099.00,0.8105
5098.00,0.8216
5097.00,0.8336
5096.00,0.8463
5095.00,0.8596
5094.00,0.8734
5093.00,0.8878
5092.00,0.9026
5091.00,0.9178
5090.00,0.9335
5089.00,0.9495
5088.00,0.9657
5087.00,0.9821
5086.00,0.9986
5085.00,1.0151
5084.00,1.0317
5083.00,1.0482
5082.00,1.0647
5081.00,1.0811
5080.00,1.0973
5079.00,1.1133
5078.00,1.1291
5077.00,1.1447
5076.00,1.1600
5075.00,1.1750
5074.00,1.1899
5073.00,1.2046
5072.00,1.2191
5071.00,1.2333
5070.00,1.2470
5069.00,1.2602
5068.00,1.2728
5067.00,1.2849
5066.00,1.2967
5065.00,1.3081
5064.00,1.3192
5063.00,1.3300
5062.00,1.3402
5061.00,1.3498
5060.00,1.3589
5059.00,1.3676
5058.00,1.3761
5057.00,1.3843
5056.00,1.3919
5055.00,1.3990
5054.00,1.4055
5053.00,1.4112
5052.00,1.4164
5051.00,1.4211
5050.00,1.4253
5049.00,1.4291
5048.00,1.4325
5047.00,1.4354
5046.00,1.4380
5045.00,1.4401
5044.00,1.4415
5043.00,1.4424
5042.00,1.4427
5041.00,1.4423
5040.00,1.4414
5039.00,1.4400
5038.00,1.4384
5037.00,1.4365
5036.00,1.4343
5035.00,1.4317
5034.00,1.4288
5033.00,1.4252
5032.00,1.4209
5031.00,1.4161
5030.00,1.4108
5029.00,1.4050
5028.00,1.3987
5027.00,1.3917
5026.00,1.3841
5025.00,1.3762
5024.00,1.3679
5023.00,1.3592
5022.00,1.3501
5021.00,1.3406
5020.00,1.3303
5019.00,1.3193
5018.00,1.3076
5017.00,1.2955
5016.00,1.2829
5015.00,1.2700
5014.00,1.2567
5013.00,1.2429
5012.00,1.2286
5011.00,1.2136
5010.00,1.1981
5009.00,1.1821
5008.00,1.1657
5007.00,1.1488
5006.00,1.1315
5005.00,1.1137
5004.00,1.0957
5003.00,1.0775
5002.00,1.0592
5001.00,1.0408
5000.00,1.0222
4999.00,1.0036
4998.00,0.9850
4997.00,0.9664
4996.00,0.9480
4995.00,0.9298
4994.00,0.9120
4993.00,0.8947
4992.00,0.8780
4991.00,0.8620
4990.00,0.8469
4989.00,0.8326
4988.00,0.8193
4987.00,0.8068
4986.00,0.7954
4985.00,0.7852
4984.00,0.7761
4983.00,0.7683
4982.00,0.7617
4981.00,0.7565
4980.00,0.7526
4979.00,0.7500
4978.00,0.7488
4977.00,0.7489
4976.00,0.7503
4975.00,0.7532
4974.00,0.7576
4973.00,0.7632
4972.00,0.7702
4971.00,0.7782
4970.00,0.7874
4969.00,0.7975
4968.00,0.8087
4967.00,0.8208
4966.00,0.8339
4965.00,0.8478
4964.00,0.8624
4963.00,0.8775
4962.00,0.8931
4961.00,0.9092
4960.00,0.9256
4959.00,0.9423
4958.00,0.9592
4957.00,0.9763
4956.00,0.9935
4955.00,1.0107
4954.00,1.0280
4953.00,1.0453
4952.00,1.0626
4951.00,1.0797
4950.00,1.0968
4949.00,1.1137
4948.00,1.1305
4947.00,1.1471
4946.00,1.1636
4945.00,1.1798
4944.00,1.1956
4943.00,1.2111
4942.00,1.2262
4941.00,1.2409
4940.00,1.2553
4939.00,1.2694
4938.00,1.2831
4937.00,1.2965
4936.00,1.3094
4935.00,1.3218
4934.00,1.3336
4933.00,1.3449
4932.00,1.3557
4931.00,1.3661
4930.00,1.3760
4929.00,1.3853
4928.00,1.3941
4927.00,1.4023
4926.00,1.4103
4925.00,1.4179
4924.00,1.4251
4923.00,1.4316
4922.00,1.4373
4921.00,1.4423
4920.00,1.4467
4919.00,1.4508
4918.00,1.4547
4917.00,1.4581
4916.00,1.4610
4915.00,1.4633
4914.00,1.4651
4913.00,1.4664
4912.00,1.4675
4911.00,1.4683
4910.00,1.4688
4909.00,1.4687
4908.00,1.4680
4907.00,1.4664
4906.00,1.4641
4905.00,1.4613
4904.00,1.4581
4903.00,1.4546
4902.00,1.4508
4901.00,1.4465
4900.00,1.4417
4899.00,1.4363
4898.00,1.4304
4897.00,1.4240
4896.00,1.4170
4895.00,1.4092
4894.00,1.4009
4893.00,1.3919
4892.00,1.3825
4891.00,1.3725
4890.00,1.3621
4889.00,1.3512
4888.00,1.3397
4887.00,1.3278
4886.00,1.3154
4885.00,1.3024
4884.00,1.2890
4883.00,1.2751
4882.00,1.2606
4881.00,1.2456
4880.00,1.2299
4879.00,1.2137
4878.00,1.1969
4877.00,1.1795
4876.00,1.1617
4875.00,1.1434
4874.00,1.1247
4873.00,1.1057
4872.00,1.0866
4871.00,1.0673
4870.00,1.0479
4869.00,1.0284
4868.00,1.0089
4867.00,0.9894
4866.00,0.9701
4865.00,0.9511
4864.00,0.9324
4863.00,0.9141
4862.00,0.8963
4861.00,0.8793
4860.00,0.8630
4859.00,0.8475
4858.00,0.8331
4857.00,0.8196
4856.00,0.8072
4855.00,0.7960
4854.00,0.7860
4853.00,0.7774
4852.00,0.7701
4851.00,0.7641
4850.00,0.7595
4849.00,0.7564
4848.00,0.7547
4847.00,0.7546
4846.00,0.7559
4845.00,0.7588
4844.00,0.7631
4843.00,0.7688
4842.00,0.7759
4841.00,0.7842
4840.00,0.7938
4839.00,0.8045
4838.00,0.8163
4837.00,0.8291
4836.00,0.8427
4835.00,0.8572
4834.00,0.8724
4833.00,0.8883
4832.00,0.9047
4831.00,0.9217
4830.00,0.9390
4829.00,0.9567
4828.00,0.9746
4827.00,0.9927
4826.00,1.0108
4825.00,1.0291
4824.00,1.0473
4823.00,1.0656
4822.00,1.0838
4821.00,1.1018
4820.00,1.1198
4819.00,1.1374
4818.00,1.1548
4817.00,1.1719
4816.00,1.1886
4815.00,1.2051
4814.00,1.2214
4813.00,1.2376
4812.00,1.2536
4811.00,1.2692
4810.00,1.2844
4809.00,1.2990
4808.00,1.3130
4807.00,1.3265
4806.00,1.3395
4805.00,1.3519
4804.00,1.3638
4803.00,1.3752
4802.00,1.3861
4801.00,1.3967
4800.00,1.4069
4799.00,1.4166
4798.00,1.4259
4797.00,1.4345
4796.00,1.4424
4795.00,1.4495
4794.00,1.4559
4793.00,1.4619
4792.00,1.4676
4791.00,1.4730
4790.00,1.4781
4789.00,1.4827
4788.00,1.4869
4787.00,1.4905
4786.00,1.4935
4785.00,1.4959
4784.00,1.4976
4783.00,1.4989
4782.00,1.4998
4781.00,1.5001
4780.00,1.4998
4779.00,1.4987
4778.00,1.4971
4777.00,1.4951
4776.00,1.4930
4775.00,1.4906
4774.00,1.4880
4773.00,1.4847
4772.00,1.4809
4771.00,1.4764
4770.00,1.4713
4769.00,1.4654
4768.00,1.4589
4767.00,1.4520
4766.00,1.4447
4765.00,1.4373
4764.00,1.4295
4763.00,1.4211
4762.00,1.4120
4761.00,1.4021
4760.00,1.3916
4759.00,1.3804
4758.00,1.3688
4757.00,1.3566
4756.00,1.3439
4755.00,1.3306
4754.00,1.3167
4753.00,1.3022
4752.00,1.2871
4751.00,1.2715
4750.00,1.2554
4749.00,1.2389
4748.00,1.2217
4747.00,1.2040
4746.00,1.1857
4745.00,1.1669
4744.00,1.1476
4743.00,1.1280
4742.00,1.1081
4741.00,1.0879
4740.00,1.0676
4739.00,1.0473
4738.00,1.0270
4737.00,1.0067
4736.00,0.9864
4735.00,0.9664
4734.00,0.9467
4733.00,0.9274
4732.00,0.9087
4731.00,0.8906
4730.00,0.8733
4729.00,0.8569
4728.00,0.8414
4727.00,0.8271
4726.00,0.8139
4725.00,0.8019
4724.00,0.7911
4723.00,0.7816
4722.00,0.7736
4721.00,0.7671
4720.00,0.7621
4719.00,0.7587
4718.00,0.7569
4717.00,0.7567
4716.00,0.7581
4715.00,0.7611
4714.00,0.7657
4713.00,0.7718
4712.00,0.7794
4711.00,0.7883
4710.00,0.7985
4709.00,0.8100
4708.00,0.8226
4707.00,0.8363
4706.00,0.8511
4705.00,0.8666
4704.00,0.8829
4703.00,0.8997
4702.00,0.9171
4701.00,0.9350
4700.00,0.9534
4699.00,0.9722
4698.00,0.9911
4697.00,1.0103
4696.00,1.0295
4695.00,1.0488
4694.00,1.0682
4693.00,1.0876
4692.00,1.1068
4691.00,1.1259
4690.00,1.1448
4689.00,1.1635
4688.00,1.1819
4687.00,1.2000
4686.00,1.2177
4685.00,1.2350
4684.00,1.2519
4683.00,1.2685
4682.00,1.2847
4681.00,1.3005
4680.00,1.3158
4679.00,1.3306
4678.00,1.3449
4677.00,1.3587
4676.00,1.3719
4675.00,1.3846
4674.00,1.3970
4673.00,1.4090
4672.00,1.4206
4671.00,1.4317
4670.00,1.4421
4669.00,1.4516
4668.00,1.4603
4667.00,1.4685
4666.00,1.4762
4665.00,1.4837
4664.00,1.4906
4663.00,1.4972
4662.00,1.5032
4661.00,1.5088
4660.00,1.5137
4659.00,1.5181
4658.00,1.5218
4657.00,1.5250
4656.00,1.5278
4655.00,1.5304
4654.00,1.5327
4653.00,1.5346
4652.00,1.5358
4651.00,1.5363
4650.00,1.5361
4649.00,1.5355
4648.00,1.5346
4647.00,1.5334
4646.00,1.5320
4645.00,1.5299
4644.00,1.5270
4643.00,1.5235
4642.00,1.5195
4641.00,1.5152
4640.00,1.5105
4639.00,1.5054
4638.00,1.4996
4637.00,1.4932
4636.00,1.4863
4635.00,1.4789
4634.00,1.4711
4633.00,1.4628
4632.00,1.4540
4631.00,1.4445
4630.00,1.4344
4629.00,1.4237
4628.00,1.4124
4627.00,1.4006
4626.00,1.3883
4625.00,1.3753
4624.00,1.3616
4623.00,1.3472
4622.00,1.3320
4621.00,1.3162
4620.00,1.2999
4619.00,1.2831
4618.00,1.2656
4617.00,1.2476
4616.00,1.2290
4615.00,1.2100
4614.00,1.1906
4613.00,1.1709
4612.00,1.1507
4611.00,1.1302
4610.00,1.1092
4609.00,1.0880
4608.00,1.0667
4607.00,1.0455
4606.00,1.0242
4605.00,1.0032
4604.00,0.9823
4603.00,0.9618
4602.00,0.9418
4601.00,0.9223
4600.00,0.9036
4599.00,0.8857
4598.00,0.8687
4597.00,0.8528
4596.00,0.8379
4595.00,0.8241
4594.00,0.8116
4593.00,0.8005
4592.00,0.7908
4591.00,0.7827
4590.00,0.7762
4589.00,0.7713
4588.00,0.7682
4587.00,0.7668
4586.00,0.7672
4585.00,0.7693
4584.00,0.7731
4583.00,0.7786
4582.00,0.7857
4581.00,0.7943
4580.00,0.8044
4579.00,0.8158
4578.00,0.8286
4577.00,0.8425
4576.00,0.8574
4575.00,0.8732
4574.00,0.8899
4573.00,0.9072
4572.00,0.9252
4571.00,0.9437
4570.00,0.9627
4569.00,0.9821
4568.00,1.0018
4567.00,1.0216
4566.00,1.0416
4565.00,1.0616
4564.00,1.0816
4563.00,1.1015
4562.00,1.1214
4561.00,1.1412
4560.00,1.1607
4559.00,1.1799
4558.00,1.1989
4557.00,1.2176
4556.00,1.2361
4555.00,1.2541
4554.00,1.2717
4553.00,1.2889
4552.00,1.3057
4551.00,1.3222
4550.00,1.3385
4549.00,1.3545
4548.00,1.3701
4547.00,1.3850
4546.00,1.3992
4545.00,1.4125
4544.00,1.4251
4543.00,1.4372
4542.00,1.4489
4541.00,1.4602
4540.00,1.4711
4539.00,1.4813
4538.00,1.4907
4537.00,1.4993
4536.00,1.5073
4535.00,1.5148
4534.00,1.5219
4533.00,1.5287
4532.00,1.5354
4531.00,1.5417
4530.00,1.5475
4529.00,1.5525
4528.00,1.5567
4527.00,1.5600
4526.00,1.5628
4525.00,1.5650
4524.00,1.5667
4523.00,1.5679
4522.00,1.5686
4521.00,1.5690
4520.00,1.5691
4519.00,1.5689
4518.00,1.5682
4517.00,1.5670
4516.00,1.5652
4515.00,1.5631
4514.00,1.5605
4513.00,1.5574
4512.00,1.5536
4511.00,1.5489
4510.00,1.5434
4509.00,1.5374
4508.00,1.5310
4507.00,1.5244
4506.00,1.5174
4505.00,1.5098
4504.00,1.5016
4503.00,1.4928
4502.00,1.4834
4501.00,1.4736
4500.00,1.4632
4499.00,1.4522
4498.00,1.4405
4497.00,1.4281
4496.00,1.4149
4495.00,1.4011
4494.00,1.3865
4493.00,1.3715
4492.00,1.3559
4491.00,1.3398
4490.00,1.3231
4489.00,1.3057
4488.00,1.2874
4487.00,1.2685
4486.00,1.2489
4485.00,1.2289
4484.00,1.2083
4483.00,1.1872
4482.00,1.1655
4481.00,1.1435
4480.00,1.1211
4479.00,1.0986
4478.00,1.0760
4477.00,1.0534
4476.00,1.0309
4475.00,1.0085
4474.00,0.9864
4473.00,0.9647
4472.00,0.9434
4471.00,0.9229
4470.00,0.9032
4469.00,0.8845
4468.00,0.8667
4467.00,0.8502
4466.00,0.8349
4465.00,0.8209
4464.00,0.8085
4463.00,0.7976
4462.00,0.7883
4461.00,0.7808
4460.00,0.7751
4459.00,0.7711
4458.00,0.7691
4457.00,0.7689
4456.00,0.7706
4455.00,0.7742
4454.00,0.7797
4453.00,0.7869
4452.00,0.7958
4451.00,0.8063
4450.00,0.8183
4449.00,0.8316
4448.00,0.8462
4447.00,0.8619
4446.00,0.8787
4445.00,0.8964
4444.00,0.9149
4443.00,0.9341
4442.00,0.9539
4441.00,0.9741
4440.00,0.9947
4439.00,1.0155
4438.00,1.0366
4437.00,1.0578
4436.00,1.0792
4435.00,1.1004
4434.00,1.1216
4433.00,1.1426
4432.00,1.1635
4431.00,1.1842
4430.00,1.2047
4429.00,1.2248
4428.00,1.2446
4427.00,1.2639
4426.00,1.2830
4425.00,1.3018
4424.00,1.3202
4423.00,1.3381
4422.00,1.3553
4421.00,1.3720
4420.00,1.3883
4419.00,1.4043
4418.00,1.4198
4417.00,1.4348
4416.00,1.4493
4415.00,1.4632
4414.00,1.4763
4413.00,1.4888
4412.00,1.5004
4411.00,1.5114
4410.00,1.5216
4409.00,1.5311
4408.00,1.5403
4407.00,1.5492
4406.00,1.5578
4405.00,1.5662
4404.00,1.5739
4403.00,1.5808
4402.00,1.5869
4401.00,1.5923
4400.00,1.5972
4399.00,1.6017
4398.00,1.6057
4397.00,1.6092
4396.00,1.6122
4395.00,1.6147
4394.00,1.6168
4393.00,1.6183
4392.00,1.6195
4391.00,1.6203
4390.00,1.6207
4389.00,1.6205
4388.00,1.6196
4387.00,1.6178
4386.00,1.6154
4385.00,1.6126
4384.00,1.6097
4383.00,1.6067
4382.00,1.6035
4381.00,1.5998
4380.00,1.5954
4379.00,1.5904
4378.00,1.5846
4377.00,1.5782
4376.00,1.5715
4375.00,1.5646
4374.00,1.5575
4373.00,1.5500
4372.00,1.5418
4371.00,1.5329
4370.00,1.5234
4369.00,1.5134
4368.00,1.5029
4367.00,1.4919
4366.00,1.4803
4365.00,1.4681
4364.00,1.4554
4363.00,1.4422
4362.00,1.4283
4361.00,1.4137
4360.00,1.3983
4359.00,1.3821
4358.00,1.3654
4357.00,1.3481
4356.00,1.3303
4355.00,1.3120
4354.00,1.2931
4353.00,1.2736
4352.00,1.2536
4351.00,1.2330
4350.00,1.2121
4349.00,1.1909
4348.00,1.1695
4347.00,1.1479
4346.00,1.1262
4345.00,1.1045
4344.00,1.0827
4343.00,1.0609
4342.00,1.0394
4341.00,1.0182
4340.00,0.9974
4339.00,0.9773
4338.00,0.9579
4337.00,0.9394
4336.00,0.9219
4335.00,0.9054
4334.00,0.8903
4333.00,0.8766
4332.00,0.8646
4331.00,0.8543
4330.00,0.8458
4329.00,0.8392
4328.00,0.8346
4327.00,0.8319
4326.00,0.8314
4325.00,0.8329
4324.00,0.8365
4323.00,0.8420
4322.00,0.8493
4321.00,0.8584
4320.00,0.8691
4319.00,0.8813
4318.00,0.8948
4317.00,0.9095
4316.00,0.9253
4315.00,0.9421
4314.00,0.9598
4313.00,0.9782
4312.00,0.9972
4311.00,1.0169
4310.00,1.0369
4309.00,1.0574
4308.00,1.0780
4307.00,1.0987
4306.00,1.1195
4305.00,1.1403
4304.00,1.1611
4303.00,1.1819
4302.00,1.2026
4301.00,1.2233
4300.00,1.2438
4299.00,1.2641
4298.00,1.2842
4297.00,1.3038
4296.00,1.3231
4295.00,1.3419
4294.00,1.3603
4293.00,1.3782
4292.00,1.3956
4291.00,1.4126
4290.00,1.4290
4289.00,1.4450
4288.00,1.4604
4287.00,1.4752
4286.00,1.4895
4285.00,1.5031
4284.00,1.5161
4283.00,1.5287
4282.00,1.5409
4281.00,1.5525
4280.00,1.5634
4279.00,1.5734
4278.00,1.5826
4277.00,1.5911
4276.00,1.5991
4275.00,1.6068
4274.00,1.6141
4273.00,1.6210
4272.00,1.6275
4271.00,1.6334
4270.00,1.6387
4269.00,1.6433
4268.00,1.6472
4267.00,1.6505
4266.00,1.6533
4265.00,1.6557
4264.00,1.6578
4263.00,1.6597
4262.00,1.6614
4261.00,1.6627
4260.00,1.6633
4259.00,1.6632
4258.00,1.6622
4257.00,1.6608
4256.00,1.6590
4255.00,1.6568
4254.00,1.6540
4253.00,1.6505
4252.00,1.6465
4251.00,1.6422
4250.00,1.6377
4249.00,1.6329
4248.00,1.6276
4247.00,1.6215
4246.00,1.6147
4245.00,1.6071
4244.00,1.5990
4243.00,1.5904
4242.00,1.5814
4241.00,1.5719
4240.00,1.5618
4239.00,1.5511
4238.00,1.5398
4237.00,1.5278
4236.00,1.5151
4235.00,1.5018
4234.00,1.4879
4233.00,1.4733
4232.00,1.4581
4231.00,1.4423
4230.00,1.4258
4229.00,1.4087
4228.00,1.3909
4227.00,1.3725
4226.00,1.3536
4225.00,1.3342
4224.00,1.3143
4223.00,1.2938
4222.00,1.2728
4221.00,1.2514
4220.00,1.2296
4219.00,1.2075
4218.00,1.1852
4217.00,1.1626
4216.00,1.1398
4215.00,1.1171
4214.00,1.0945
4213.00,1.0720
4212.00,1.0499
4211.00,1.0280
4210.00,1.0066
4209.00,0.9859
4208.00,0.9660
4207.00,0.9472
4206.00,0.9295
4205.00,0.9130
4204.00,0.8978
4203.00,0.8841
4202.00,0.8720
4201.00,0.8616
4200.00,0.8530
4199.00,0.8463
4198.00,0.8417
4197.00,0.8392
4196.00,0.8387
4195.00,0.8403
4194.00,0.8439
4193.00,0.8495
4192.00,0.8570
4191.00,0.8663
4190.00,0.8774
4189.00,0.8900
4188.00,0.9041
4187.00,0.9195
4186.00,0.9362
4185.00,0.9539
4184.00,0.9725
4183.00,0.9918
4182.00,1.0118
4181.00,1.0324
4180.00,1.0534
4179.00,1.0747
4178.00,1.0962
4177.00,1.1178
4176.00,1.1396
4175.00,1.1614
4174.00,1.1833
4173.00,1.2051
4172.00,1.2267
4171.00,1.2481
4170.00,1.2693
4169.00,1.2901
4168.00,1.3107
4167.00,1.3310
4166.00,1.3510
4165.00,1.3707
4164.00,1.3900
4163.00,1.4088
4162.00,1.4271
4161.00,1.4448
4160.00,1.4618
4159.00,1.4782
4158.00,1.4941
4157.00,1.5094
4156.00,1.5242
4155.00,1.5385
4154.00,1.5522
4153.00,1.5652
4152.00,1.5776
4151.00,1.5893
4150.00,1.6006
4149.00,1.6114
4148.00,1.6216
4147.00,1.6312
4146.00,1.6401
4145.00,1.6483
4144.00,1.6560
4143.00,1.6633
4142.00,1.6702
4141.00,1.6765
4140.00,1.6821
4139.00,1.6872
4138.00,1.6919
4137.00,1.6963
4136.00,1.7002
4135.00,1.7034
4134.00,1.7059
4133.00,1.7078
4132.00,1.7092
4131.00,1.7103
4130.00,1.7109
4129.00,1.7109
4128.00,1.7105
4127.00,1.7095
4126.00,1.7081
4125.00,1.7063
4124.00,1.7040
4123.00,1.7011
4122.00,1.6976
4121.00,1.6938
4120.00,1.6896
4119.00,1.6850
4118.00,1.6797
4117.00,1.6736
4116.00,1.6666
4115.00,1.6589
4114.00,1.6509
4113.00,1.6427
4112.00,1.6341
4111.00,1.6248
4110.00,1.6147
4109.00,1.6040
4108.00,1.5928
4107.00,1.5813
4106.00,1.5692
4105.00,1.5564
4104.00,1.5429
4103.00,1.5288
4102.00,1.5137
4101.00,1.4977
4100.00,1.4808
4099.00,1.4632
4098.00,1.4451
4097.00,1.4264
4096.00,1.4069
4095.00,1.3866
4094.00,1.3655
4093.00,1.3437
4092.00,1.3215
4091.00,1.2988
4090.00,1.2755
4089.00,1.2517
4088.00,1.2274
4087.00,1.2027
4086.00,1.1777
4085.00,1.1525
4084.00,1.1275
4083.00,1.1027
4082.00,1.0782
4081.00,1.0541
4080.00,1.0305
4079.00,1.0077
4078.00,0.9858
4077.00,0.9649
4076.00,0.9451
4075.00,0.9265
4074.00,0.9095
4073.00,0.8940
4072.00,0.8804
4071.00,0.8686
4070.00,0.8589
4069.00,0.8512
4068.00,0.8458
4067.00,0.8426
4066.00,0.8418
4065.00,0.8433
4064.00,0.8470
4063.00,0.8530
4062.00,0.8613
4061.00,0.8716
4060.00,0.8840
4059.00,0.8981
4058.00,0.9139
4057.00,0.9311
4056.00,0.9495
4055.00,0.9691
4054.00,0.9897
4053.00,1.0111
4052.00,1.0332
4051.00,1.0558
4050.00,1.0788
4049.00,1.1020
4048.00,1.1254
4047.00,1.1488
4046.00,1.1722
4045.00,1.1955
4044.00,1.2188
4043.00,1.2421
4042.00,1.2651
4041.00,1.2879
4040.00,1.3104
4039.00,1.3324
4038.00,1.3539
4037.00,1.3750
4036.00,1.3958
4035.00,1.4162
4034.00,1.4362
4033.00,1.4558
4032.00,1.4749
4031.00,1.4933
4030.00,1.5111
4029.00,1.5281
4028.00,1.5444
4027.00,1.5602
4026.00,1.5754
4025.00,1.5902
4024.00,1.6043
4023.00,1.6177
4022.00,1.6302
4021.00,1.6418
4020.00,1.6527
4019.00,1.6632
4018.00,1.6733
4017.00,1.6829
4016.00,1.6919
4015.00,1.7001
4014.00,1.7076
4013.00,1.7144
4012.00,1.7207
4011.00,1.7265
4010.00,1.7320
4009.00,1.7370
4008.00,1.7414
4007.00,1.7451
4006.00,1.7481
4005.00,1.7506
4004.00,1.7528
4003.00,1.7546
4002.00,1.7559
4001.00,1.7566
4000.00,1.7568
3999.00,1.7564
3998.00,1.7554
3997.00,1.7535
3996.00,1.7508
3995.00,1.7476
3994.00,1.7442
3993.00,1.7406
3992.00,1.7367
3991.00,1.7323
3990.00,1.7276
3989.00,1.7225
3988.00,1.7168
3987.00,1.7103
3986.00,1.7029
3985.00,1.6947
3984.00,1.6858
3983.00,1.6765
3982.00,1.6669
3981.00,1.6567
3980.00,1.6460
3979.00,1.6344
3978.00,1.6220
3977.00,1.6090
3976.00,1.5955
3975.00,1.5814
3974.00,1.5668
3973.00,1.5516
3972.00,1.5359
3971.00,1.5197
3970.00,1.5027
3969.00,1.4851
3968.00,1.4666
3967.00,1.4476
3966.00,1.4280
3965.00,1.4078
3964.00,1.3869
3963.00,1.3652
3962.00,1.3428
3961.00,1.3198
3960.00,1.2963
3959.00,1.2723
3958.00,1.2480
3957.00,1.2233
3956.00,1.1983
3955.00,1.1732
3954.00,1.1481
3953.00,1.1232
3952.00,1.0986
3951.00,1.0742
3950.00,1.0504
3949.00,1.0271
3948.00,1.0049
3947.00,0.9837
3946.00,0.9639
3945.00,0.9454
3944.00,0.9283
3943.00,0.9129
3942.00,0.8992
3941.00,0.8873
3940.00,0.8774
3939.00,0.8697
3938.00,0.8644
3937.00,0.8614
3936.00,0.8609
3935.00,0.8626
3934.00,0.8668
3933.00,0.8733
3932.00,0.8821
3931.00,0.8929
3930.00,0.9058
3929.00,0.9203
3928.00,0.9364
3927.00,0.9538
3926.00,0.9727
3925.00,0.9931
3924.00,1.0147
3923.00,1.0369
3922.00,1.0596
3921.00,1.0827
3920.00,1.1064
3919.00,1.1306
3918.00,1.1556
3917.00,1.1813
3916.00,1.2074
3915.00,1.2334
3914.00,1.2588
3913.00,1.2834
3912.00,1.3074
3911.00,1.3308
3910.00,1.3536
3909.00,1.3758
3908.00,1.3972
3907.00,1.4176
3906.00,1.4374
3905.00,1.4574
3904.00,1.4780
3903.00,1.4989
3902.00,1.5198
3901.00,1.5402
3900.00,1.5602
3899.00,1.5795
3898.00,1.5979
3897.00,1.6151
3896.00,1.6309
3895.00,1.6453
3894.00,1.6584
3893.00,1.6706
3892.00,1.6829
3891.00,1.6956
3890.00,1.7078
3889.00,1.7184
3888.00,1.7272
3887.00,1.7351
3886.00,1.7433
3885.00,1.7519
3884.00,1.7601
3883.00,1.7670
3882.00,1.7729
3881.00,1.7784
3880.00,1.7839
3879.00,1.7893
3878.00,1.7938
3877.00,1.7968
3876.00,1.7988
3875.00,1.8009
3874.00,1.8030
3873.00,1.8043
3872.00,1.8045
3871.00,1.8040
3870.00,1.8036
3869.00,1.8032
3868.00,1.8022
3867.00,1.8005
3866.00,1.7985
3865.00,1.7963
3864.00,1.7935
3863.00,1.7900
3862.00,1.7855
3861.00,1.7803
3860.00,1.7743
3859.00,1.7681
3858.00,1.7616
3857.00,1.7546
3856.00,1.7468
3855.00,1.7381
3854.00,1.7285
3853.00,1.7174
3852.00,1.7054
3851.00,1.6937
3850.00,1.6827
3849.00,1.6722
3848.00,1.6614
3847.00,1.6495
3846.00,1.6361
3845.00,1.6211
3844.00,1.6049
3843.00,1.5877
3842.00,1.5700
3841.00,1.5514
3840.00,1.5317
3839.00,1.5106
3838.00,1.4879
3837.00,1.4640
3836.00,1.4397
3835.00,1.4155
3834.00,1.3910
3833.00,1.3660
3832.00,1.3399
3831.00,1.3130
3830.00,1.2853
3829.00,1.2568
3828.00,1.2275
3827.00,1.1977
3826.00,1.1679
3825.00,1.1388
3824.00,1.1101
3823.00,1.0813
3822.00,1.0522
3821.00,1.0232
3820.00,0.9956
3819.00,0.9703
3818.00,0.9476
3817.00,0.9270
3816.00,0.9080
3815.00,0.8901
3814.00,0.8742
3813.00,0.8613
3812.00,0.8519
3811.00,0.8457
3810.00,0.8422
3809.00,0.8410
3808.00,0.8426
3807.00,0.8475
3806.00,0.8550
3805.00,0.8639
3804.00,0.8740
3803.00,0.8869
3802.00,0.9045
3801.00,0.9262
3800.00,0.9496
3799.00,0.9725
3798.00,0.9952
3797.00,1.0195
3796.00,1.0461
3795.00,1.0741
3794.00,1.1022
3793.00,1.1297
3792.00,1.1568
3791.00,1.1838
3790.00,1.2110
3789.00,1.2381
3788.00,1.2651
3787.00,1.2915
3786.00,1.3176
3785.00,1.3436
3784.00,1.3696
3783.00,1.3951
3782.00,1.4197
3781.00,1.4437
3780.00,1.4677
3779.00,1.4917
3778.00,1.5153
3777.00,1.5380
3776.00,1.5595
3775.00,1.5800
3774.00,1.5994
3773.00,1.6174
3772.00,1.6342
3771.00,1.6507
3770.00,1.6672
3769.00,1.6836
3768.00,1.6990
3767.00,1.7131
3766.00,1.7266
3765.00,1.7396
3764.00,1.7520
3763.00,1.7631
3762.00,1.7730
3761.00,1.7821
3760.00,1.7904
3759.00,1.7979
3758.00,1.8051
3757.00,1.8121
3756.00,1.8189
3755.00,1.8251
3754.00,1.8308
3753.00,1.8362
3752.00,1.8417
3751.00,1.8476
3750.00,1.8545
3749.00,1.8624
3748.00,1.8707
3747.00,1.8787
3746.00,1.8868
3745.00,1.8956
3744.00,1.9043
3743.00,1.9125
3742.00,1.9202
3741.00,1.9275
3740.00,1.9338
3739.00,1.9386
3738.00,1.9414
3737.00,1.9423
3736.00,1.9411
3735.00,1.9378
3734.00,1.9321
3733.00,1.9240
3732.00,1.9138
3731.00,1.9015
3730.00,1.8870
3729.00,1.8705
3728.00,1.8520
3727.00,1.8324
3726.00,1.8138
3725.00,1.7977
3724.00,1.7844
3723.00,1.7720
3722.00,1.7590
3721.00,1.7456
3720.00,1.7333
3719.00,1.7234
3718.00,1.7150
3717.00,1.7062
3716.00,1.6958
3715.00,1.6835
3714.00,1.6686
3713.00,1.6506
3712.00,1.6292
3711.00,1.6048
3710.00,1.5783
3709.00,1.5506
3708.00,1.5220
3707.00,1.4927
3706.00,1.4625
3705.00,1.4313
3704.00,1.3988
3703.00,1.3648
3702.00,1.3297
3701.00,1.2940
3700.00,1.2586
3699.00,1.2242
3698.00,1.1910
3697.00,1.1594
3696.00,1.1293
3695.00,1.1014
3694.00,1.0761
3693.00,1.0537
3692.00,1.0343
3691.00,1.0177
3690.00,1.0041
3689.00,0.9932
3688.00,0.9851
3687.00,0.9797
3686.00,0.9773
3685.00,0.9783
3684.00,0.9826
3683.00,0.9896
3682.00,0.9988
3681.00,1.0102
3680.00,1.0238
3679.00,1.0391
3678.00,1.0555
3677.00,1.0740
3676.00,1.0965
3675.00,1.1227
3674.00,1.1500
3673.00,1.1757
3672.00,1.2003
3671.00,1.2265
3670.00,1.2560
3669.00,1.2878
3668.00,1.3193
3667.00,1.3493
3666.00,1.3777
3665.00,1.4049
3664.00,1.4315
3663.00,1.4576
3662.00,1.4832
3661.00,1.5084
3660.00,1.5330
3659.00,1.5566
3658.00,1.5792
3657.00,1.6014
3656.00,1.6239
3655.00,1.6462
3654.00,1.6672
3653.00,1.6862
3652.00,1.7041
3651.00,1.7224
3650.00,1.7420
3649.00,1.7630
3648.00,1.7852
3647.00,1.8077
3646.00,1.8294
3645.00,1.8497
3644.00,1.8688
3643.00,1.8873
3642.00,1.9051
3641.00,1.9222
3640.00,1.9387
3639.00,1.9545
3638.00,1.9693
3637.00,1.9829
3636.00,1.9951
3635.00,2.0058
3634.00,2.0149
3633.00,2.0225
3632.00,2.0283
3631.00,2.0324
3630.00,2.0354
3629.00,2.0376
3628.00,2.0390
3627.00,2.0388
3626.00,2.0364
3625.00,2.0323
3624.00,2.0282
3623.00,2.0258
3622.00,2.0254
3621.00,2.0261
3620.00,2.0271
3619.00,2.0284
3618.00,2.0308
3617.00,2.0346
3616.00,2.0395
3615.00,2.0439
3614.00,2.0471
3613.00,2.0492
3612.00,2.0504
3611.00,2.0505
3610.00,2.0494
3609.00,2.0476
3608.00,2.0454
3607.00,2.0426
3606.00,2.0387
3605.00,2.0333
3604.00,2.0267
3603.00,2.0193
3602.00,2.0111
3601.00,2.0023
3600.00,1.9930
3599.00,1.9829
3598.00,1.9722
3597.00,1.9612
3596.00,1.9501
3595.00,1.9389
3594.00,1.9273
3593.00,1.9154
3592.00,1.9035
3591.00,1.8913
3590.00,1.8789
3589.00,1.8662
3588.00,1.8535
3587.00,1.8408
3586.00,1.8280
3585.00,1.8152
3584.00,1.8026
3583.00,1.7899
3582.00,1.7770
3581.00,1.7638
3580.00,1.7504
3579.00,1.7371
3578.00,1.7237
3577.00,1.7103
3576.00,1.6968
3575.00,1.6833
3574.00,1.6695
3573.00,1.6556
3572.00,1.6420
3571.00,1.6290
3570.00,1.6165
3569.00,1.6044
3568.00,1.5926
3567.00,1.5811
3566.00,1.5701
3565.00,1.5598
3564.00,1.5508
3563.00,1.5429
3562.00,1.5362
3561.00,1.5304
3560.00,1.5254
3559.00,1.5212
3558.00,1.5180
3557.00,1.5158
3556.00,1.5148
3555.00,1.5149
3554.00,1.5160
3553.00,1.5180
3552.00,1.5209
3551.00,1.5246
3550.00,1.5293
3549.00,1.5349
3548.00,1.5416
3547.00,1.5492
3546.00,1.5577
3545.00,1.5669
3544.00,1.5767
3543.00,1.5871
3542.00,1.5980
3541.00,1.6096
3540.00,1.6218
3539.00,1.6343
3538.00,1.6470
3537.00,1.6599
3536.00,1.6728
3535.00,1.6860
3534.00,1.6992
3533.00,1.7125
3532.00,1.7259
3531.00,1.7392
3530.00,1.7526
3529.00,1.7660
3528.00,1.7796
3527.00,1.7932
3526.00,1.8065
3525.00,1.8196
3524.00,1.8326
3523.00,1.8458
3522.00,1.8589
3521.00,1.8716
3520.00,1.8839
3519.00,1.8958
3518.00,1.9074
3517.00,1.9188
3516.00,1.9299
3515.00,1.9407
3514.00,1.9511
3513.00,1.9609
3512.00,1.9702
3511.00,1.9792
3510.00,1.9881
3509.00,1.9969
3508.00,2.0057
3507.00,2.0143
3506.00,2.0223
3505.00,2.0298
3504.00,2.0367
3503.00,2.0431
3502.00,2.0489
3501.00,2.0548
3500.00,2.0612
3499.00,2.0681
3498.00,2.0748
3497.00,2.0809
3496.00,2.0861
3495.00,2.0904
3494.00,2.0937
3493.00,2.0964
3492.00,2.0994
3491.00,2.1031
3490.00,2.1073
3489.00,2.1115
3488.00,2.1148
3487.00,2.1170
3486.00,2.1182
3485.00,2.1188
3484.00,2.1195
3483.00,2.1203
3482.00,2.1212
3481.00,2.1216
3480.00,2.1213
3479.00,2.1203
3478.00,2.1190
3477.00,2.1178
3476.00,2.1163
3475.00,2.1142
3474.00,2.1114
3473.00,2.1081
3472.00,2.1046
3471.00,2.1007
3470.00,2.0960
3469.00,2.0909
3468.00,2.0858
3467.00,2.0807
3466.00,2.0753
3465.00,2.0693
3464.00,2.0628
3463.00,2.0559
3462.00,2.0488
3461.00,2.0412
3460.00,2.0332
3459.00,2.0249
3458.00,2.0163
3457.00,2.0076
3456.00,1.9985
3455.00,1.9886
3454.00,1.9779
3453.00,1.9665
3452.00,1.9549
3451.00,1.9432
3450.00,1.9312
3449.00,1.9189
3448.00,1.9062
3447.00,1.8928
3446.00,1.8789
3445.00,1.8648
3444.00,1.8506
3443.00,1.8362
3442.00,1.8214
3441.00,1.8062
3440.00,1.7909
3439.00,1.7755
3438.00,1.7602
3437.00,1.7449
3436.00,1.7299
3435.00,1.7151
3434.00,1.7005
3433.00,1.6863
3432.00,1.6727
3431.00,1.6598
3430.00,1.6476
3429.00,1.6362
3428.00,1.6257
3427.00,1.6162
3426.00,1.6079
3425.00,1.6006
3424.00,1.5947
3423.00,1.5902
3422.00,1.5871
3421.00,1.5853
3420.00,1.5849
3419.00,1.5858
3418.00,1.5881
3417.00,1.5914
3416.00,1.5956
3415.00,1.6005
3414.00,1.6061
3413.00,1.6125
3412.00,1.6194
3411.00,1.6268
3410.00,1.6345
3409.00,1.6423
3408.00,1.6502
3407.00,1.6580
3406.00,1.6653
3405.00,1.6721
3404.00,1.6783
3403.00,1.6841
3402.00,1.6898
3401.00,1.6956
3400.00,1.7018
3399.00,1.7084
3398.00,1.7152
3397.00,1.7224
3396.00,1.7301
3395.00,1.7384
3394.00,1.7474
3393.00,1.7569
3392.00,1.7671
3391.00,1.7779
3390.00,1.7891
3389.00,1.8006
3388.00,1.8124
3387.00,1.8247
3386.00,1.8373
3385.00,1.8500
3384.00,1.8629
3383.00,1.8757
3382.00,1.8885
3381.00,1.9010
3380.00,1.9135
3379.00,1.9257
3378.00,1.9378
3377.00,1.9499
3376.00,1.9620
3375.00,1.9740
3374.00,1.9857
3373.00,1.9972
3372.00,2.0084
3371.00,2.0189
3370.00,2.0283
3369.00,2.0368
3368.00,2.0450
3367.00,2.0530
3366.00,2.0607
3365.00,2.0677
3364.00,2.0741
3363.00,2.0801
3362.00,2.0863
3361.00,2.0929
3360.00,2.0995
3359.00,2.1053
3358.00,2.1098
3357.00,2.1134
3356.00,2.1166
3355.00,2.1195
3354.00,2.1219
3353.00,2.1235
3352.00,2.1246
3351.00,2.1253
3350.00,2.1256
3349.00,2.1252
3348.00,2.1242
3347.00,2.1232
3346.00,2.1226
3345.00,2.1223
3344.00,2.1215
3343.00,2.1195
3342.00,2.1163
3341.00,2.1123
3340.00,2.1080
3339.00,2.1033
3338.00,2.0983
3337.00,2.0931
3336.00,2.0874
3335.00,2.0809
3334.00,2.0732
3333.00,2.0645
3332.00,2.0555
3331.00,2.0464
3330.00,2.0376
3329.00,2.0288
3328.00,2.0196
3327.00,2.0096
3326.00,1.9985
3325.00,1.9867
3324.00,1.9743
3323.00,1.9616
3322.00,1.9481
3321.00,1.9340
3320.00,1.9194
3319.00,1.9044
3318.00,1.8890
3317.00,1.8730
3316.00,1.8565
3315.00,1.8395
3314.00,1.8219
3313.00,1.8038
3312.00,1.7854
3311.00,1.7668
3310.00,1.7479
3309.00,1.7287
3308.00,1.7094
3307.00,1.6899
3306.00,1.6704
3305.00,1.6510
3304.00,1.6317
3303.00,1.6128
3302.00,1.5944
3301.00,1.5766
3300.00,1.5594
3299.00,1.5430
3298.00,1.5275
3297.00,1.5130
3296.00,1.4999
3295.00,1.4880
3294.00,1.4775
3293.00,1.4685
3292.00,1.4611
3291.00,1.4552
3290.00,1.4510
3289.00,1.4485
3288.00,1.4478
3287.00,1.4490
3286.00,1.4518
3285.00,1.4564
3284.00,1.4628
3283.00,1.4708
3282.00,1.4803
3281.00,1.4912
3280.00,1.5032
3279.00,1.5162
3278.00,1.5303
3277.00,1.5453
3276.00,1.5613
3275.00,1.5781
3274.00,1.5957
3273.00,1.6139
3272.00,1.6326
3271.00,1.6515
3270.00,1.6706
3269.00,1.6897
3268.00,1.7088
3267.00,1.7278
3266.00,1.7468
3265.00,1.7658
3264.00,1.7847
3263.00,1.8035
3262.00,1.8220
3261.00,1.8402
3260.00,1.8580
3259.00,1.8754
3258.00,1.8924
3257.00,1.9088
3256.00,1.9247
3255.00,1.9403
3254.00,1.9557
3253.00,1.9708
3252.00,1.9855
3251.00,1.9992
3250.00,2.0118
3249.00,2.0242
3248.00,2.0370
3247.00,2.0502
3246.00,2.0627
3245.00,2.0738
3244.00,2.0836
3243.00,2.0930
3242.00,2.1022
3241.00,2.1110
3240.00,2.1192
3239.00,2.1264
3238.00,2.1329
3237.00,2.1388
3236.00,2.1447
3235.00,2.1506
3234.00,2.1567
3233.00,2.1628
3232.00,2.1684
3231.00,2.1728
3230.00,2.1756
3229.00,2.1775
3228.00,2.1795
3227.00,2.1822
3226.00,2.1848
3225.00,2.1867
3224.00,2.1878
3223.00,2.1885
3222.00,2.1891
3221.00,2.1892
3220.00,2.1886
3219.00,2.1872
3218.00,2.1856
3217.00,2.1839
3216.00,2.1819
3215.00,2.1792
3214.00,2.1756
3213.00,2.1711
3212.00,2.1660
3211.00,2.1606
3210.00,2.1549
3209.00,2.1491
3208.00,2.1430
3207.00,2.1362
3206.00,2.1288
3205.00,2.1210
3204.00,2.1129
3203.00,2.1044
3202.00,2.0954
3201.00,2.0861
3200.00,2.0767
3199.00,2.0667
3198.00,2.0556
3197.00,2.0432
3196.00,2.0300
3195.00,2.0167
3194.00,2.0033
3193.00,1.9898
3192.00,1.9758
3191.00,1.9612
3190.00,1.9459
3189.00,1.9303
3188.00,1.9144
3187.00,1.8981
3186.00,1.8812
3185.00,1.8639
3184.00,1.8461
3183.00,1.8279
3182.00,1.8095
3181.00,1.7911
3180.00,1.7729
3179.00,1.7549
3178.00,1.7371
3177.00,1.7194
3176.00,1.7018
3175.00,1.6845
3174.00,1.6677
3173.00,1.6515
3172.00,1.6362
3171.00,1.6217
3170.00,1.6082
3169.00,1.5958
3168.00,1.5847
3167.00,1.5749
3166.00,1.5664
3165.00,1.5592
3164.00,1.5533
3163.00,1.5489
3162.00,1.5462
3161.00,1.5454
3160.00,1.5464
3159.00,1.5491
3158.00,1.5534
3157.00,1.5592
3156.00,1.5664
3155.00,1.5751
3154.00,1.5851
3153.00,1.5965
3152.00,1.6092
3151.00,1.6229
3150.00,1.6373
3149.00,1.6525
3148.00,1.6684
3147.00,1.6851
3146.00,1.7025
3145.00,1.7205
3144.00,1.7390
3143.00,1.7577
3142.00,1.7765
3141.00,1.7955
3140.00,1.8145
3139.00,1.8335
3138.00,1.8522
3137.00,1.8707
3136.00,1.8890
3135.00,1.9072
3134.00,1.9249
3133.00,1.9423
3132.00,1.9594
3131.00,1.9764
3130.00,1.9930
3129.00,2.0088
3128.00,2.0235
3127.00,2.0372
3126.00,2.0504
3125.00,2.0635
3124.00,2.0766
3123.00,2.0898
3122.00,2.1029
3121.00,2.1158
3120.00,2.1280
3119.00,2.1394
3118.00,2.1501
3117.00,2.1602
3116.00,2.1696
3115.00,2.1779
3114.00,2.1849
3113.00,2.1913
3112.00,2.1977
3111.00,2.2045
3110.00,2.2111
3109.00,2.2170
3108.00,2.2220
3107.00,2.2263
3106.00,2.2301
3105.00,2.2335
3104.00,2.2367
3103.00,2.2396
3102.00,2.2424
3101.00,2.2448
3100.00,2.2466
3099.00,2.2474
3098.00,2.2472
3097.00,2.2461
3096.00,2.2444
3095.00,2.2424
3094.00,2.2405
3093.00,2.2383
3092.00,2.2352
3091.00,2.2310
3090.00,2.2265
3089.00,2.2224
3088.00,2.2186
3087.00,2.2142
3086.00,2.2084
3085.00,2.2010
3084.00,2.1924
3083.00,2.1827
3082.00,2.1721
3081.00,2.1612
3080.00,2.1504
3079.00,2.1394
3078.00,2.1274
3077.00,2.1143
3076.00,2.1004
3075.00,2.0861
3074.00,2.0715
3073.00,2.0565
3072.00,2.0409
3071.00,2.0246
3070.00,2.0074
3069.00,1.9894
3068.00,1.9706
3067.00,1.9514
3066.00,1.9318
3065.00,1.9120
3064.00,1.8920
3063.00,1.8720
3062.00,1.8518
3061.00,1.8318
3060.00,1.8121
3059.00,1.7926
3058.00,1.7732
3057.00,1.7540
3056.00,1.7353
3055.00,1.7174
3054.00,1.7007
3053.00,1.6852
3052.00,1.6711
3051.00,1.6585
3050.00,1.6474
3049.00,1.6380
3048.00,1.6303
3047.00,1.6248
3046.00,1.6215
3045.00,1.6207
3044.00,1.6224
3043.00,1.6268
3042.00,1.6337
3041.00,1.6431
3040.00,1.6550
3039.00,1.6691
3038.00,1.6853
3037.00,1.7034
3036.00,1.7233
3035.00,1.7447
3034.00,1.7674
3033.00,1.7909
3032.00,1.8152
3031.00,1.8399
3030.00,1.8648
3029.00,1.8897
3028.00,1.9147
3027.00,1.9396
3026.00,1.9644
3025.00,1.9887
3024.00,2.0127
3023.00,2.0363
3022.00,2.0594
3021.00,2.0818
3020.00,2.1033
3019.00,2.1241
3018.00,2.1442
3017.00,2.1638
3016.00,2.1830
3015.00,2.2013
3014.00,2.2182
3013.00,2.2340
3012.00,2.2491
3011.00,2.2634
3010.00,2.2766
3009.00,2.2886
3008.00,2.2996
3007.00,2.3098
3006.00,2.3190
3005.00,2.3268
3004.00,2.3332
3003.00,2.3383
3002.00,2.3428
3001.00,2.3467
3000.00,2.3497
2999.00,2.3512
2998.00,2.3507
2997.00,2.3485
2996.00,2.3451
2995.00,2.3413
2994.00,2.3370
2993.00,2.3320
2992.00,2.3253
2991.00,2.3167
2990.00,2.3065
2989.00,2.2961
2988.00,2.2870
2987.00,2.2798
2986.00,2.2748
2985.00,2.2725
2984.00,2.2737
2983.00,2.2796
2982.00,2.2912
2981.00,2.3095
2980.00,2.3352
2979.00,2.3687
2978.00,2.4096
2977.00,2.4571
2976.00,2.5111
2975.00,2.5720
2974.00,2.6399
2973.00,2.7143
2972.00,2.7939
2971.00,2.8771
2970.00,2.9623
2969.00,3.0480
2968.00,3.1338
2967.00,3.2204
2966.00,3.3112
2965.00,3.4104
2964.00,3.5198
2963.00,3.6380
2962.00,3.7618
2961.00,3.8932
2960.00,4.0391
2959.00,4.1919
2958.00,4.2620
2957.00,4.1785
2956.00,4.0552
2955.00,3.9843
2954.00,3.9893
2953.00,4.0611
2952.00,4.1784
2951.00,4.2615
2950.00,4.2177
2949.00,4.1226
2948.00,4.0821
2947.00,4.1306
2946.00,4.2281
2945.00,4.2337
2944.00,4.1252
2943.00,4.0225
2942.00,3.9929
2941.00,4.0286
2940.00,4.0866
2939.00,4.1079
2938.00,4.0618
2937.00,4.0031
2936.00,3.9897
2935.00,4.0370
2934.00,4.1259
2933.00,4.1886
2932.00,4.1771
2931.00,4.1395
2930.00,4.1273
2929.00,4.1551
2928.00,4.2169
2927.00,4.3042
2926.00,4.3705
2925.00,4.3561
2924.00,4.2884
2923.00,4.2083
2922.00,4.1122
2921.00,4.0038
2920.00,3.9014
2919.00,3.8135
2918.00,3.7342
2917.00,3.6559
2916.00,3.5760
2915.00,3.4963
2914.00,3.4227
2913.00,3.3631
2912.00,3.3210
2911.00,3.2916
2910.00,3.2659
2909.00,3.2371
2908.00,3.2048
2907.00,3.1728
2906.00,3.1455
2905.00,3.1251
2904.00,3.1099
2903.00,3.0943
2902.00,3.0741
2901.00,3.0511
2900.00,3.0310
2899.00,3.0157
2898.00,3.0004
2897.00,2.9793
2896.00,2.9523
2895.00,2.9252
2894.00,2.9034
2893.00,2.8880
2892.00,2.8765
2891.00,2.8659
2890.00,2.8536
2889.00,2.8389
2888.00,2.8231
2887.00,2.8089
2886.00,2.7991
2885.00,2.7952
2884.00,2.7976
2883.00,2.8063
2882.00,2.8205
2881.00,2.8388
2880.00,2.8609
2879.00,2.8875
2878.00,2.9205
2877.00,2.9606
2876.00,3.0072
2875.00,3.0591
2874.00,3.1150
2873.00,3.1730
2872.00,3.2319
2871.00,3.2948
2870.00,3.3691
2869.00,3.4597
2868.00,3.5605
2867.00,3.6538
2866.00,3.7250
2865.00,3.7766
2864.00,3.8168
2863.00,3.8434
2862.00,3.8501
2861.00,3.8339
2860.00,3.7895
2859.00,3.7139
2858.00,3.6205
2857.00,3.5269
2856.00,3.4361
2855.00,3.3415
2854.00,3.2418
2853.00,3.1431
2852.00,3.0507
2851.00,2.9655
2850.00,2.8860
2849.00,2.8113
2848.00,2.7412
2847.00,2.6753
2846.00,2.6128
2845.00,2.5530
2844.00,2.4952
2843.00,2.4394
2842.00,2.3858
2841.00,2.3348
2840.00,2.2859
2839.00,2.2395
2838.00,2.1960
2837.00,2.1564
2836.00,2.1208
2835.00,2.0886
2834.00,2.0595
2833.00,2.0336
2832.00,2.0113
2831.00,1.9929
2830.00,1.9781
2829.00,1.9663
2828.00,1.9568
2827.00,1.9489
2826.00,1.9420
2825.00,1.9361
2824.00,1.9316
2823.00,1.9286
2822.00,1.9275
2821.00,1.9285
2820.00,1.9321
2819.00,1.9389
2818.00,1.9488
2817.00,1.9616
2816.00,1.9770
2815.00,1.9946
2814.00,2.0143
2813.00,2.0358
2812.00,2.0585
2811.00,2.0818
2810.00,2.1048
2809.00,2.1274
2808.00,2.1497
2807.00,2.1721
2806.00,2.1942
2805.00,2.2156
2804.00,2.2355
2803.00,2.2539
2802.00,2.2710
2801.00,2.2873
2800.00,2.3029
2799.00,2.3175
2798.00,2.3307
2797.00,2.3422
2796.00,2.3521
2795.00,2.3609
2794.00,2.3693
2793.00,2.3771
2792.00,2.3839
2791.00,2.3892
2790.00,2.3931
2789.00,2.3963
2788.00,2.3991
2787.00,2.4021
2786.00,2.4054
2785.00,2.4083
2784.00,2.4098
2783.00,2.4091
2782.00,2.4069
2781.00,2.4045
2780.00,2.4024
2779.00,2.3998
2778.00,2.3959
2777.00,2.3910
2776.00,2.3857
2775.00,2.3802
2774.00,2.3738
2773.00,2.3660
2772.00,2.3568
2771.00,2.3469
2770.00,2.3369
2769.00,2.3266
2768.00,2.3158
2767.00,2.3039
2766.00,2.2908
2765.00,2.2764
2764.00,2.2610
2763.00,2.2447
2762.00,2.2278
2761.00,2.2103
2760.00,2.1919
2759.00,2.1723
2758.00,2.1514
2757.00,2.1290
2756.00,2.1050
2755.00,2.0789
2754.00,2.0508
2753.00,2.0213
2752.00,1.9905
2751.00,1.9587
2750.00,1.9256
2749.00,1.8914
2748.00,1.8559
2747.00,1.8191
2746.00,1.7812
2745.00,1.7425
2744.00,1.7034
2743.00,1.6643
2742.00,1.6255
2741.00,1.5876
2740.00,1.5509
2739.00,1.5161
2738.00,1.4837
2737.00,1.4543
2736.00,1.4285
2735.00,1.4067
2734.00,1.3889
2733.00,1.3754
2732.00,1.3665
2731.00,1.3620
2730.00,1.3623
2729.00,1.3673
2728.00,1.3769
2727.00,1.3908
2726.00,1.4088
2725.00,1.4307
2724.00,1.4559
2723.00,1.4841
2722.00,1.5148
2721.00,1.5473
2720.00,1.5813
2719.00,1.6163
2718.00,1.6518
2717.00,1.6875
2716.00,1.7231
2715.00,1.7586
2714.00,1.7937
2713.00,1.8286
2712.00,1.8629
2711.00,1.8963
2710.00,1.9285
2709.00,1.9599
2708.00,1.9906
2707.00,2.0207
2706.00,2.0502
2705.00,2.0788
2704.00,2.1062
2703.00,2.1319
2702.00,2.1559
2701.00,2.1786
2700.00,2.2003
2699.00,2.2212
2698.00,2.2412
2697.00,2.2604
2696.00,2.2788
2695.00,2.2961
2694.00,2.3120
2693.00,2.3265
2692.00,2.3399
2691.00,2.3530
2690.00,2.3656
2689.00,2.3779
2688.00,2.3896
2687.00,2.4007
2686.00,2.4112
2685.00,2.4207
2684.00,2.4290
2683.00,2.4358
2682.00,2.4414
2681.00,2.4471
2680.00,2.4536
2679.00,2.4609
2678.00,2.4681
2677.00,2.4748
2676.00,2.4804
2675.00,2.4847
2674.00,2.4875
2673.00,2.4891
2672.00,2.4902
2671.00,2.4908
2670.00,2.4906
2669.00,2.4895
2668.00,2.4878
2667.00,2.4858
2666.00,2.4833
2665.00,2.4804
2664.00,2.4773
2663.00,2.4740
2662.00,2.4705
2661.00,2.4664
2660.00,2.4614
2659.00,2.4553
2658.00,2.4484
2657.00,2.4413
2656.00,2.4343
2655.00,2.4269
2654.00,2.4186
2653.00,2.4091
2652.00,2.3988
2651.00,2.3883
2650.00,2.3778
2649.00,2.3675
2648.00,2.3568
2647.00,2.3451
2646.00,2.3321
2645.00,2.3181
2644.00,2.3031
2643.00,2.2869
2642.00,2.2693
2641.00,2.2503
2640.00,2.2306
2639.00,2.2102
2638.00,2.1888
2637.00,2.1660
2636.00,2.1417
2635.00,2.1160
2634.00,2.0890
2633.00,2.0606
2632.00,2.0311
2631.00,2.0006
2630.00,1.9692
2629.00,1.9369
2628.00,1.9036
2627.00,1.8693
2626.00,1.8339
2625.00,1.7978
2624.00,1.7614
2623.00,1.7254
2622.00,1.6900
2621.00,1.6558
2620.00,1.6230
2619.00,1.5919
2618.00,1.5627
2617.00,1.5356
2616.00,1.5108
2615.00,1.4886
2614.00,1.4693
2613.00,1.4532
2612.00,1.4402
2611.00,1.4305
2610.00,1.4240
2609.00,1.4205
2608.00,1.4203
2607.00,1.4235
2606.00,1.4303
2605.00,1.4407
2604.00,1.4550
2603.00,1.4731
2602.00,1.4946
2601.00,1.5194
2600.00,1.5469
2599.00,1.5770
2598.00,1.6090
2597.00,1.6427
2596.00,1.6773
2595.00,1.7126
2594.00,1.7482
2593.00,1.7840
2592.00,1.8197
2591.00,1.8553
2590.00,1.8903
2589.00,1.9246
2588.00,1.9579
2587.00,1.9900
2586.00,2.0209
2585.00,2.0508
2584.00,2.0798
2583.00,2.1080
2582.00,2.1356
2581.00,2.1621
2580.00,2.1869
2579.00,2.2096
2578.00,2.2308
2577.00,2.2515
2576.00,2.2724
2575.00,2.2932
2574.00,2.3130
2573.00,2.3313
2572.00,2.3477
2571.00,2.3624
2570.00,2.3758
2569.00,2.3886
2568.00,2.4016
2567.00,2.4150
2566.00,2.4284
2565.00,2.4414
2564.00,2.4536
2563.00,2.4644
2562.00,2.4735
2561.00,2.4813
2560.00,2.4887
2559.00,2.4964
2558.00,2.5039
2557.00,2.5110
2556.00,2.5173
2555.00,2.5223
2554.00,2.5256
2553.00,2.5281
2552.00,2.5314
2551.00,2.5362
2550.00,2.5414
2549.00,2.5451
2548.00,2.5466
2547.00,2.5466
2546.00,2.5463
2545.00,2.5461
2544.00,2.5457
2543.00,2.5451
2542.00,2.5444
2541.00,2.5439
2540.00,2.5437
2539.00,2.5433
2538.00,2.5414
2537.00,2.5374
2536.00,2.5317
2535.00,2.5254
2534.00,2.5189
2533.00,2.5122
2532.00,2.5051
2531.00,2.4976
2530.00,2.4901
2529.00,2.4824
2528.00,2.4741
2527.00,2.4649
2526.00,2.4549
2525.00,2.4445
2524.00,2.4334
2523.00,2.4213
2522.00,2.4076
2521.00,2.3923
2520.00,2.3760
2519.00,2.3596
2518.00,2.3433
2517.00,2.3267
2516.00,2.3090
2515.00,2.2897
2514.00,2.2689
2513.00,2.2470
2512.00,2.2243
2511.00,2.2005
2510.00,2.1753
2509.00,2.1486
2508.00,2.1202
2507.00,2.0901
2506.00,2.0585
2505.00,2.0254
2504.00,1.9906
2503.00,1.9540
2502.00,1.9155
2501.00,1.8753
2500.00,1.8334
2499.00,1.7903
2498.00,1.7461
2497.00,1.7012
2496.00,1.6562
2495.00,1.6114
2494.00,1.5672
2493.00,1.5245
2492.00,1.4840
2491.00,1.4463
2490.00,1.4122
2489.00,1.3821
2488.00,1.3569
2487.00,1.3369
2486.00,1.3225
2485.00,1.3141
2484.00,1.3119
2483.00,1.3158
2482.00,1.3257
2481.00,1.3412
2480.00,1.3620
2479.00,1.3876
2478.00,1.4173
2477.00,1.4505
2476.00,1.4865
2475.00,1.5246
2474.00,1.5644
2473.00,1.6054
2472.00,1.6472
2471.00,1.6892
2470.00,1.7308
2469.00,1.7719
2468.00,1.8124
2467.00,1.8523
2466.00,1.8914
2465.00,1.9295
2464.00,1.9664
2463.00,2.0024
2462.00,2.0373
2461.00,2.0710
2460.00,2.1033
2459.00,2.1341
2458.00,2.1633
2457.00,2.1911
2456.00,2.2176
2455.00,2.2435
2454.00,2.2688
2453.00,2.2932
2452.00,2.3162
2451.00,2.3378
2450.00,2.3581
2449.00,2.3774
2448.00,2.3956
2447.00,2.4128
2446.00,2.4294
2445.00,2.4457
2444.00,2.4618
2443.00,2.4774
2442.00,2.4921
2441.00,2.5054
2440.00,2.5174
2439.00,2.5282
2438.00,2.5384
2437.00,2.5481
2436.00,2.5572
2435.00,2.5657
2434.00,2.5736
2433.00,2.5810
2432.00,2.5882
2431.00,2.5955
2430.00,2.6025
2429.00,2.6089
2428.00,2.6141
2427.00,2.6185
2426.00,2.6227
2425.00,2.6269
2424.00,2.6303
2423.00,2.6321
2422.00,2.6322
2421.00,2.6309
2420.00,2.6294
2419.00,2.6294
2418.00,2.6317
2417.00,2.6352
2416.00,2.6370
2415.00,2.6354
2414.00,2.6309
2413.00,2.6255
2412.00,2.6204
2411.00,2.6155
2410.00,2.6108
2409.00,2.6062
2408.00,2.6016
2407.00,2.5965
2406.00,2.5902
2405.00,2.5829
2404.00,2.5744
2403.00,2.5643
2402.00,2.5525
2401.00,2.5401
2400.00,2.5279
2399.00,2.5166
2398.00,2.5055
2397.00,2.4935
2396.00,2.4797
2395.00,2.4636
2394.00,2.4452
2393.00,2.4252
2392.00,2.4045
2391.00,2.3844
2390.00,2.3661
2389.00,2.3510
2388.00,2.3401
2387.00,2.3343
2386.00,2.3346
2385.00,2.3412
2384.00,2.3533
2383.00,2.3678
2382.00,2.3812
2381.00,2.3908
2380.00,2.3957
2379.00,2.3960
2378.00,2.3918
2377.00,2.3852
2376.00,2.3797
2375.00,2.3774
2374.00,2.3769
2373.00,2.3784
2372.00,2.3842
2371.00,2.3915
2370.00,2.3963
2369.00,2.4019
2368.00,2.4079
2367.00,2.4092
2366.00,2.4072
2365.00,2.4002
2364.00,2.3925
2363.00,2.3858
2362.00,2.3742
2361.00,2.3618
2360.00,2.3469
2359.00,2.3307
2358.00,2.3142
2357.00,2.3191
2356.00,2.3694
2355.00,2.4354
2354.00,2.4685
2353.00,2.4462
2352.00,2.4059
2351.00,2.4046
2350.00,2.4434
2349.00,2.4950
2348.00,2.5169
2347.00,2.5126
2346.00,2.5027
2345.00,2.4966
2344.00,2.4981
2343.00,2.5002
2342.00,2.5037
2341.00,2.5067
2340.00,2.5150
2339.00,2.5241
2338.00,2.5352
2337.00,2.5389
2336.00,2.5471
2335.00,2.5489
2334.00,2.5574
2333.00,2.5671
2332.00,2.5785
2331.00,2.5885
2330.00,2.5932
2329.00,2.6044
2328.00,2.6199
2327.00,2.6362
2326.00,2.6441
2325.00,2.6391
2324.00,2.6305
2323.00,2.6202
2322.00,2.6180
2321.00,2.6182
2320.00,2.6262
2319.00,2.6347
2318.00,2.6464
2317.00,2.6538
2316.00,2.6597
2315.00,2.6612
2314.00,2.6621
2313.00,2.6610
2312.00,2.6604
2311.00,2.6599
2310.00,2.6623
2309.00,2.6672
2308.00,2.6760
2307.00,2.6849
2306.00,2.6939
2305.00,2.7005
2304.00,2.7072
2303.00,2.7141
2302.00,2.7231
2301.00,2.7319
2300.00,2.7391
2299.00,2.7434
2298.00,2.7447
2297.00,2.7445
2296.00,2.7429
2295.00,2.7406
2294.00,2.7377
2293.00,2.7357
2292.00,2.7343
2291.00,2.7322
2290.00,2.7275
2289.00,2.7216
2288.00,2.7174
2287.00,2.7173
2286.00,2.7206
2285.00,2.7250
2284.00,2.7282
2283.00,2.7293
2282.00,2.7284
2281.00,2.7259
2280.00,2.7232
2279.00,2.7213
2278.00,2.7195
2277.00,2.7157
2276.00,2.7082
2275.00,2.6972
2274.00,2.6839
2273.00,2.6696
2272.00,2.6543
2271.00,2.6381
2270.00,2.6213
2269.00,2.6044
2268.00,2.5869
2267.00,2.5685
2266.00,2.5485
2265.00,2.5271
2264.00,2.5051
2263.00,2.4830
2262.00,2.4604
2261.00,2.4366
2260.00,2.4109
2259.00,2.3833
2258.00,2.3546
2257.00,2.3256
2256.00,2.2964
2255.00,2.2668
2254.00,2.2365
2253.00,2.2054
2252.00,2.1731
2251.00,2.1388
2250.00,2.1019
2249.00,2.0623
2248.00,2.0200
2247.00,1.9752
2246.00,1.9278
2245.00,1.8785
2244.00,1.8276
2243.00,1.7758
2242.00,1.7238
2241.00,1.6724
2240.00,1.6226
2239.00,1.5754
2238.00,1.5314
2237.00,1.4918
2236.00,1.4573
2235.00,1.4287
2234.00,1.4065
2233.00,1.3915
2232.00,1.3840
2231.00,1.3843
2230.00,1.3924
2229.00,1.4080
2228.00,1.4304
2227.00,1.4589
2226.00,1.4926
2225.00,1.5305
2224.00,1.5718
2223.00,1.6156
2222.00,1.6611
2221.00,1.7077
2220.00,1.7548
2219.00,1.8022
2218.00,1.8494
2217.00,1.8964
2216.00,1.9427
2215.00,1.9883
2214.00,2.0326
2213.00,2.0755
2212.00,2.1167
2211.00,2.1560
2210.00,2.1939
2209.00,2.2304
2208.00,2.2653
2207.00,2.2985
2206.00,2.3296
2205.00,2.3589
2204.00,2.3866
2203.00,2.4131
2202.00,2.4390
2201.00,2.4643
2200.00,2.4887
2199.00,2.5120
2198.00,2.5337
2197.00,2.5537
2196.00,2.5717
2195.00,2.5886
2194.00,2.6050
2193.00,2.6216
2192.00,2.6381
2191.00,2.6543
2190.00,2.6696
2189.00,2.6830
2188.00,2.6941
2187.00,2.7035
2186.00,2.7132
2185.00,2.7243
2184.00,2.7360
2183.00,2.7467
2182.00,2.7553
2181.00,2.7622
2180.00,2.7679
2179.00,2.7733
2178.00,2.7795
2177.00,2.7864
2176.00,2.7926
2175.00,2.7966
2174.00,2.7987
2173.00,2.8007
2172.00,2.8038
2171.00,2.8080
2170.00,2.8122
2169.00,2.8154
2168.00,2.8168
2167.00,2.8161
2166.00,2.8136
2165.00,2.8109
2164.00,2.8096
2163.00,2.8105
2162.00,2.8123
2161.00,2.8130
2160.00,2.8112
2159.00,2.8066
2158.00,2.8002
2157.00,2.7931
2156.00,2.7856
2155.00,2.7779
2154.00,2.7706
2153.00,2.7641
2152.00,2.7582
2151.00,2.7517
2150.00,2.7438
2149.00,2.7345
2148.00,2.7246
2147.00,2.7149
2146.00,2.7054
2145.00,2.6951
2144.00,2.6826
2143.00,2.6679
2142.00,2.6521
2141.00,2.6364
2140.00,2.6205
2139.00,2.6034
2138.00,2.5851
2137.00,2.5660
2136.00,2.5462
2135.00,2.5252
2134.00,2.5025
2133.00,2.4785
2132.00,2.4539
2131.00,2.4288
2130.00,2.4023
2129.00,2.3736
2128.00,2.3422
2127.00,2.3089
2126.00,2.2742
2125.00,2.2379
2124.00,2.1996
2123.00,2.1587
2122.00,2.1155
2121.00,2.0701
2120.00,2.0225
2119.00,1.9729
2118.00,1.9213
2117.00,1.8687
2116.00,1.8156
2115.00,1.7628
2114.00,1.7110
2113.00,1.6614
2112.00,1.6151
2111.00,1.5733
2110.00,1.5371
2109.00,1.5073
2108.00,1.4848
2107.00,1.4703
2106.00,1.4641
2105.00,1.4663
2104.00,1.4769
2103.00,1.4953
2102.00,1.5208
2101.00,1.5523
2100.00,1.5889
2099.00,1.6293
2098.00,1.6727
2097.00,1.7180
2096.00,1.7646
2095.00,1.8117
2094.00,1.8587
2093.00,1.9054
2092.00,1.9518
2091.00,1.9978
2090.00,2.0431
2089.00,2.0879
2088.00,2.1318
2087.00,2.1747
2086.00,2.2161
2085.00,2.2561
2084.00,2.2952
2083.00,2.3332
2082.00,2.3693
2081.00,2.4027
2080.00,2.4334
2079.00,2.4624
2078.00,2.4907
2077.00,2.5188
2076.00,2.5466
2075.00,2.5735
2074.00,2.5992
2073.00,2.6230
2072.00,2.6452
2071.00,2.6662
2070.00,2.6860
2069.00,2.7040
2068.00,2.7195
2067.00,2.7328
2066.00,2.7453
2065.00,2.7578
2064.00,2.7700
2063.00,2.7815
2062.00,2.7921
2061.00,2.8026
2060.00,2.8135
2059.00,2.8244
2058.00,2.8343
2057.00,2.8426
2056.00,2.8493
2055.00,2.8555
2054.00,2.8624
2053.00,2.8693
2052.00,2.8743
2051.00,2.8760
2050.00,2.8756
2049.00,2.8755
2048.00,2.8774
2047.00,2.8808
2046.00,2.8841
2045.00,2.8873
2044.00,2.8917
2043.00,2.8984
2042.00,2.9066
2041.00,2.9141
2040.00,2.9189
2039.00,2.9206
2038.00,2.9197
2037.00,2.9172
2036.00,2.9136
2035.00,2.9081
2034.00,2.9004
2033.00,2.8909
2032.00,2.8810
2031.00,2.8724
2030.00,2.8662
2029.00,2.8629
2028.00,2.8615
2027.00,2.8591
2026.00,2.8533
2025.00,2.8436
2024.00,2.8317
2023.00,2.8195
2022.00,2.8068
2021.00,2.7930
2020.00,2.7785
2019.00,2.7647
2018.00,2.7520
2017.00,2.7391
2016.00,2.7247
2015.00,2.7083
2014.00,2.6902
2013.00,2.6710
2012.00,2.6514
2011.00,2.6316
2010.00,2.6109
2009.00,2.5884
2008.00,2.5639
2007.00,2.5384
2006.00,2.5123
2005.00,2.4850
2004.00,2.4553
2003.00,2.4231
2002.00,2.3888
2001.00,2.3524
2000.00,2.3132
1999.00,2.2712
1998.00,2.2274
1997.00,2.1814
1996.00,2.1313
1995.00,2.0766
1994.00,2.0201
1993.00,1.9649
1992.00,1.9110
1991.00,1.8565
1990.00,1.8014
1989.00,1.7485
1988.00,1.7008
1987.00,1.6592
1986.00,1.6239
1985.00,1.5959
1984.00,1.5769
1983.00,1.5670
1982.00,1.5657
1981.00,1.5730
1980.00,1.5882
1979.00,1.6106
1978.00,1.6389
1977.00,1.6721
1976.00,1.7091
1975.00,1.7488
1974.00,1.7908
1973.00,1.8351
1972.00,1.8808
1971.00,1.9269
1970.00,1.9731
1969.00,2.0210
1968.00,2.0714
1967.00,2.1227
1966.00,2.1719
1965.00,2.2175
1964.00,2.2606
1963.00,2.3025
1962.00,2.3434
1961.00,2.3827
1960.00,2.4201
1959.00,2.4560
1958.00,2.4910
1957.00,2.5262
1956.00,2.5609
1955.00,2.5929
1954.00,2.6201
1953.00,2.6429
1952.00,2.6642
1951.00,2.6856
1950.00,2.7066
1949.00,2.7271
1948.00,2.7477
1947.00,2.7674
1946.00,2.7843
1945.00,2.7997
1944.00,2.8169
1943.00,2.8363
1942.00,2.8538
1941.00,2.8660
1940.00,2.8750
1939.00,2.8857
1938.00,2.9005
1937.00,2.9171
1936.00,2.9317
1935.00,2.9419
1934.00,2.9476
1933.00,2.9508
1932.00,2.9547
1931.00,2.9602
1930.00,2.9671
1929.00,2.9750
1928.00,2.9835
1927.00,2.9902
1926.00,2.9925
1925.00,2.9934
1924.00,2.9980
1923.00,3.0046
1922.00,3.0053
1921.00,2.9974
1920.00,2.9887
1919.00,2.9882
1918.00,2.9936
1917.00,2.9975
1916.00,2.9979
1915.00,2.9987
1914.00,3.0006
1913.00,2.9996
1912.00,2.9941
1911.00,2.9867
1910.00,2.9811
1909.00,2.9769
1908.00,2.9720
1907.00,2.9653
1906.00,2.9559
1905.00,2.9444
1904.00,2.9330
1903.00,2.9222
1902.00,2.9116
1901.00,2.9001
1900.00,2.8876
1899.00,2.8748
1898.00,2.8604
1897.00,2.8439
1896.00,2.8259
1895.00,2.8068
1894.00,2.7847
1893.00,2.7581
1892.00,2.7299
1891.00,2.7046
1890.00,2.6827
1889.00,2.6600
1888.00,2.6326
1887.00,2.6005
1886.00,2.5661
1885.00,2.5308
1884.00,2.4945
1883.00,2.4559
1882.00,2.4152
1881.00,2.3733
1880.00,2.3300
1879.00,2.2856
1878.00,2.2394
1877.00,2.1912
1876.00,2.1424
1875.00,2.0945
1874.00,2.0460
1873.00,1.9945
1872.00,1.9419
1871.00,1.8955
1870.00,1.8599
1869.00,1.8299
1868.00,1.7982
1867.00,1.7637
1866.00,1.7318
1865.00,1.7091
1864.00,1.6991
1863.00,1.7019
1862.00,1.7169
1861.00,1.7439
1860.00,1.7813
1859.00,1.8268
1858.00,1.8785
1857.00,1.9348
1856.00,1.9937
1855.00,2.0532
1854.00,2.1135
1853.00,2.1746
1852.00,2.2331
1851.00,2.2892
1850.00,2.3461
1849.00,2.4025
1848.00,2.4505
1847.00,2.4863
1846.00,2.5207
1845.00,2.5680
1844.00,2.6266
1843.00,2.6802
1842.00,2.7186
1841.00,2.7459
1840.00,2.7709
1839.00,2.7968
1838.00,2.8206
1837.00,2.8423
1836.00,2.8653
1835.00,2.8890
1834.00,2.9102
1833.00,2.9283
1832.00,2.9493
1831.00,2.9781
1830.00,3.0084
1829.00,3.0279
1828.00,3.0323
1827.00,3.0321
1826.00,3.0420
1825.00,3.0629
1824.00,3.0830
1823.00,3.0929
1822.00,3.0935
1821.00,3.0906
1820.00,3.0887
1819.00,3.0910
1818.00,3.0989
1817.00,3.1119
1816.00,3.1254
1815.00,3.1343
1814.00,3.1381
1813.00,3.1391
1812.00,3.1397
1811.00,3.1391
1810.00,3.1350
1809.00,3.1299
1808.00,3.1278
1807.00,3.1278
1806.00,3.1232
1805.00,3.1101
1804.00,3.0926
1803.00,3.0797
1802.00,3.0762
1801.00,3.0763
1800.00,3.0715
1799.00,3.0585
1798.00,3.0398
1797.00,3.0180
1796.00,2.9917
1795.00,2.9610
1794.00,2.9310
1793.00,2.9044
1792.00,2.8774
1791.00,2.8449
1790.00,2.8043
1789.00,2.7548
1788.00,2.6990
1787.00,2.6426
1786.00,2.5915
1785.00,2.5470
1784.00,2.5026
1783.00,2.4537
1782.00,2.4065
1781.00,2.3681
1780.00,2.3409
1779.00,2.3247
1778.00,2.3229
1777.00,2.3389
1776.00,2.3677
1775.00,2.4064
1774.00,2.4625
1773.00,2.5362
1772.00,2.6096
1771.00,2.6667
1770.00,2.7095
1769.00,2.7566
1768.00,2.8190
1767.00,2.8836
1766.00,2.9301
1765.00,2.9565
1764.00,2.9792
1763.00,3.0148
1762.00,3.0629
1761.00,3.1110
1760.00,3.1511
1759.00,3.1856
1758.00,3.2271
1757.00,3.2799
1756.00,3.3273
1755.00,3.3499
1754.00,3.3510
1753.00,3.3590
1752.00,3.4011
1751.00,3.4747
1750.00,3.5530
1749.00,3.6145
1748.00,3.6541
1747.00,3.6784
1746.00,3.7007
1745.00,3.7319
1744.00,3.7762
1743.00,3.8277
1742.00,3.8833
1741.00,3.9588
1740.00,4.0723
1739.00,4.2114
1738.00,4.3401
1737.00,4.4506
1736.00,4.5356
1735.00,4.6233
1734.00,4.7003
1733.00,4.6312
1732.00,4.5533
1731.00,4.5793
1730.00,4.6456
1729.00,4.6505
1728.00,4.5632
1727.00,4.4657
1726.00,4.4382
1725.00,4.5122
1724.00,4.6333
1723.00,4.6526
1722.00,4.6009
1721.00,4.6042
1720.00,4.7257
1719.00,4.7077
1718.00,4.5360
1717.00,4.4815
1716.00,4.5945
1715.00,5.0497
1714.00,5.1586
1713.00,4.9393
1712.00,4.9985
1711.00,4.7205
1710.00,4.5574
1709.00,4.5134
1708.00,4.4865
1707.00,4.5038
1706.00,4.5629
1705.00,4.6363
1704.00,4.6993
1703.00,4.7410
1702.00,4.6766
1701.00,4.6713
1700.00,4.7472
1699.00,4.6860
1698.00,4.5640
1697.00,4.5102
1696.00,4.5486
1695.00,4.6820
1694.00,4.7362
1693.00,4.5290
1692.00,4.3097
1691.00,4.1431
1690.00,4.0103
1689.00,3.9088
1688.00,3.8278
1687.00,3.7556
1686.00,3.6999
1685.00,3.6702
1684.00,3.6527
1683.00,3.6315
1682.00,3.6022
1681.00,3.5767
1680.00,3.5652
1679.00,3.5566
1678.00,3.5367
1677.00,3.5175
1676.00,3.5203
1675.00,3.5337
1674.00,3.5249
1673.00,3.4856
1672.00,3.4405
1671.00,3.4110
1670.00,3.3930
1669.00,3.3730
1668.00,3.3460
1667.00,3.3146
1666.00,3.2793
1665.00,3.2412
1664.00,3.2032
1663.00,3.1622
1662.00,3.1162
1661.00,3.0666
1660.00,3.0165
1659.00,2.9691
1658.00,2.9219
1657.00,2.8663
1656.00,2.8014
1655.00,2.7564
1654.00,2.7462
1653.00,2.7515
1652.00,2.7501
1651.00,2.7303
1650.00,2.7023
1649.00,2.6861
1648.00,2.6870
1647.00,2.6970
1646.00,2.7102
1645.00,2.7248
1644.00,2.7383
1643.00,2.7519
1642.00,2.7730
1641.00,2.8044
1640.00,2.8390
1639.00,2.8673
1638.00,2.8892
1637.00,2.9123
1636.00,2.9384
1635.00,2.9659
1634.00,2.9847
1633.00,2.9909
1632.00,2.9929
1631.00,2.9990
1630.00,3.0135
1629.00,3.0363
1628.00,3.0624
1627.00,3.0837
1626.00,3.0975
1625.00,3.1115
1624.00,3.1349
1623.00,3.1652
1622.00,3.1916
1621.00,3.2055
1620.00,3.2110
1619.00,3.2229
1618.00,3.2509
1617.00,3.2851
1616.00,3.3049
1615.00,3.3021
1614.00,3.2850
1613.00,3.2686
1612.00,3.2611
1611.00,3.2609
1610.00,3.2661
1609.00,3.2776
1608.00,3.2915
1607.00,3.2967
1606.00,3.2898
1605.00,3.2793
1604.00,3.2754
1603.00,3.2804
1602.00,3.2869
1601.00,3.2868
1600.00,3.2780
1599.00,3.2659
1598.00,3.2566
1597.00,3.2517
1596.00,3.2479
1595.00,3.2406
1594.00,3.2289
1593.00,3.2164
1592.00,3.2060
1591.00,3.1963
1590.00,3.1852
1589.00,3.1726
1588.00,3.1588
1587.00,3.1408
1586.00,3.1168
1585.00,3.0915
1584.00,3.0691
1583.00,3.0517
1582.00,3.0391
1581.00,3.0266
1580.00,3.0071
1579.00,2.9797
1578.00,2.9503
1577.00,2.9204
1576.00,2.8844
1575.00,2.8385
1574.00,2.7845
1573.00,2.7264
1572.00,2.6726
1571.00,2.6267
1570.00,2.5802
1569.00,2.5236
1568.00,2.4563
1567.00,2.3839
1566.00,2.3147
1565.00,2.2538
1564.00,2.1909
1563.00,2.1190
1562.00,2.0402
1561.00,1.9984
1560.00,2.0093
1559.00,2.0185
1558.00,2.0101
1557.00,1.9956
1556.00,1.9831
1555.00,1.9952
1554.00,2.0352
1553.00,2.0842
1552.00,2.1287
1551.00,2.1798
1550.00,2.2454
1549.00,2.3160
1548.00,2.3760
1547.00,2.4291
1546.00,2.4937
1545.00,2.5741
1544.00,2.6563
1543.00,2.7332
1542.00,2.8073
1541.00,2.8687
1540.00,2.9121
1539.00,2.9513
1538.00,2.9821
1537.00,2.9942
1536.00,2.9968
1535.00,3.0120
1534.00,3.0490
1533.00,3.0903
1532.00,3.1195
1531.00,3.1360
1530.00,3.1462
1529.00,3.1581
1528.00,3.1783
1527.00,3.2120
1526.00,3.2537
1525.00,3.2828
1524.00,3.2886
1523.00,3.2866
1522.00,3.2979
1521.00,3.3215
1520.00,3.3374
1519.00,3.3397
1518.00,3.3408
1517.00,3.3454
1516.00,3.3460
1515.00,3.3377
1514.00,3.3270
1513.00,3.3225
1512.00,3.3255
1511.00,3.3339
1510.00,3.3491
1509.00,3.3793
1508.00,3.4155
1507.00,3.4343
1506.00,3.4439
1505.00,3.4486
1504.00,3.4400
1503.00,3.4239
1502.00,3.4095
1501.00,3.3994
1500.00,3.3882
1499.00,3.3767
1498.00,3.3714
1497.00,3.3769
1496.00,3.3869
1495.00,3.3835
1494.00,3.3580
1493.00,3.3233
1492.00,3.3026
1491.00,3.3050
1490.00,3.3097
1489.00,3.2921
1488.00,3.2554
1487.00,3.2169
1486.00,3.1871
1485.00,3.1657
1484.00,3.1463
1483.00,3.1282
1482.00,3.1117
1481.00,3.0896
1480.00,3.0521
1479.00,3.0014
1478.00,2.9501
1477.00,2.9063
1476.00,2.8663
1475.00,2.8246
1474.00,2.7871
1473.00,2.7628
1472.00,2.7555
1471.00,2.7630
1470.00,2.7799
1469.00,2.8057
1468.00,2.8438
1467.00,2.8970
1466.00,2.9667
1465.00,3.0466
1464.00,3.1202
1463.00,3.1733
1462.00,3.2037
1461.00,3.2215
1460.00,3.2372
1459.00,3.2619
1458.00,3.3100
1457.00,3.3969
1456.00,3.5176
1455.00,3.6441
1454.00,3.7674
1453.00,3.9008
1452.00,4.0513
1451.00,4.2056
1450.00,4.2847
1449.00,4.2344
1448.00,4.1405
1447.00,4.0301
1446.00,3.9058
1445.00,3.7772
1444.00,3.6480
1443.00,3.5277
1442.00,3.4280
1441.00,3.3527
1440.00,3.2982
1439.00,3.2666
1438.00,3.2704
1437.00,3.3160
1436.00,3.3861
1435.00,3.4554
1434.00,3.5121
1433.00,3.5595
1432.00,3.6081
1431.00,3.6648
1430.00,3.7267
1429.00,3.7821
1428.00,3.8150
1427.00,3.8150
1426.00,3.7955
1425.00,3.7728
1424.00,3.7530
1423.00,3.7431
1422.00,3.7548
1421.00,3.8001
1420.00,3.8547
1419.00,3.8391
1418.00,3.7368
1417.00,3.6133
1416.00,3.5041
1415.00,3.4113
1414.00,3.3293
1413.00,3.2564
1412.00,3.1968
1411.00,3.1540
1410.00,3.1246
1409.00,3.1024
1408.00,3.0875
1407.00,3.0827
1406.00,3.0904
1405.00,3.1093
1404.00,3.1348
1403.00,3.1614
1402.00,3.1837
1401.00,3.2026
1400.00,3.2231
1399.00,3.2473
1398.00,3.2722
1397.00,3.2965
1396.00,3.3236
1395.00,3.3553
1394.00,3.3861
1393.00,3.4065
1392.00,3.4128
1391.00,3.4105
1390.00,3.4083
1389.00,3.4143
1388.00,3.4330
1387.00,3.4592
1386.00,3.4785
1385.00,3.4818
1384.00,3.4780
1383.00,3.4841
1382.00,3.5036
1381.00,3.5247
1380.00,3.5385
1379.00,3.5474
1378.00,3.5557
1377.00,3.5628
1376.00,3.5666
1375.00,3.5678
1374.00,3.5725
1373.00,3.5859
1372.00,3.6045
1371.00,3.6190
1370.00,3.6202
1369.00,3.6016
1368.00,3.5678
1367.00,3.5348
1366.00,3.5162
1365.00,3.5165
1364.00,3.5290
1363.00,3.5378
1362.00,3.5332
1361.00,3.5199
1360.00,3.5059
1359.00,3.4960
1358.00,3.4910
1357.00,3.4844
1356.00,3.4697
1355.00,3.4512
1354.00,3.4414
1353.00,3.4495
1352.00,3.4787
1351.00,3.5310
1350.00,3.6127
1349.00,3.7268
1348.00,3.8516
1347.00,3.9270
1346.00,3.9153
1345.00,3.8623
1344.00,3.8182
1343.00,3.7914
1342.00,3.7721
1341.00,3.7605
1340.00,3.7696
1339.00,3.8067
1338.00,3.8520
1337.00,3.8555
1336.00,3.7887
1335.00,3.6855
1334.00,3.5897
1333.00,3.5161
1332.00,3.4582
1331.00,3.4058
1330.00,3.3551
1329.00,3.3100
1328.00,3.2756
1327.00,3.2544
1326.00,3.2472
1325.00,3.2537
1324.00,3.2715
1323.00,3.2969
1322.00,3.3299
1321.00,3.3779
1320.00,3.4522
1319.00,3.5574
1318.00,3.6831
1317.00,3.8032
1316.00,3.9131
1315.00,4.0524
1314.00,4.3211
1313.00,4.6950
1312.00,4.5098
1311.00,4.4666
1310.00,4.7348
1309.00,4.7536
1308.00,4.3616
1307.00,4.1430
1306.00,4.0054
1305.00,3.8985
1304.00,3.8067
1303.00,3.7119
1302.00,3.6060
1301.00,3.4936
1300.00,3.3858
1299.00,3.2869
1298.00,3.1970
1297.00,3.1169
1296.00,3.0493
1295.00,2.9953
1294.00,2.9540
1293.00,2.9244
1292.00,2.9074
1291.00,2.9034
1290.00,2.9124
1289.00,2.9340
1288.00,2.9672
1287.00,3.0079
1286.00,3.0488
1285.00,3.0853
1284.00,3.1205
1283.00,3.1603
1282.00,3.2034
1281.00,3.2416
1280.00,3.2719
1279.00,3.3020
1278.00,3.3408
1277.00,3.3881
1276.00,3.4376
1275.00,3.4825
1274.00,3.5157
1273.00,3.5319
1272.00,3.5383
1271.00,3.5525
1270.00,3.5860
1269.00,3.6326
1268.00,3.6798
1267.00,3.7280
1266.00,3.7872
1265.00,3.8491
1264.00,3.8753
1263.00,3.8471
1262.00,3.7952
1261.00,3.7543
1260.00,3.7438
1259.00,3.7694
1258.00,3.8119
1257.00,3.8249
1256.00,3.7930
1255.00,3.7597
1254.00,3.7631
1253.00,3.8075
1252.00,3.8712
1251.00,3.9179
1250.00,3.9231
1249.00,3.8964
1248.00,3.8656
1247.00,3.8596
1246.00,3.8926
1245.00,3.9473
1244.00,3.9729
1243.00,3.9450
1242.00,3.8872
1241.00,3.8279
1240.00,3.7990
1239.00,3.8126
1238.00,3.8477
1237.00,3.8729
1236.00,3.8806
1235.00,3.8886
1234.00,3.9122
1233.00,3.9485
1232.00,3.9870
1231.00,4.0370
1230.00,4.1211
1229.00,4.2391
1228.00,4.3565
1227.00,4.4094
1226.00,4.3507
1225.00,4.2731
1224.00,4.2826
1223.00,4.3931
1222.00,4.5027
1221.00,4.5021
1220.00,4.4361
1219.00,4.3467
1218.00,4.2419
1217.00,4.1224
1216.00,4.0297
1215.00,3.9932
1214.00,4.0095
1213.00,4.0569
1212.00,4.1072
1211.00,4.1320
1210.00,4.1080
1209.00,4.0294
1208.00,3.9457
1207.00,3.9136
1206.00,3.9371
1205.00,3.9845
1204.00,4.0148
1203.00,4.0104
1202.00,3.9948
1201.00,3.9923
1200.00,4.0008
1199.00,3.9892
1198.00,3.9288
1197.00,3.8421
1196.00,3.7751
1195.00,3.7485
1194.00,3.7510
1193.00,3.7552
1192.00,3.7489
1191.00,3.7421
1190.00,3.7396
1189.00,3.7315
1188.00,3.7126
1187.00,3.6939
1186.00,3.6804
1185.00,3.6575
1184.00,3.6192
1183.00,3.5826
1182.00,3.5654
1181.00,3.5672
1180.00,3.5688
1179.00,3.5515
1178.00,3.5183
1177.00,3.4872
1176.00,3.4700
1175.00,3.4674
1174.00,3.4687
1173.00,3.4594
1172.00,3.4425
1171.00,3.4294
1170.00,3.4181
1169.00,3.4004
1168.00,3.3788
1167.00,3.3655
1166.00,3.3649
1165.00,3.3670
1164.00,3.3607
1163.00,3.3478
1162.00,3.3393
1161.00,3.3440
1160.00,3.3687
1159.00,3.4180
1158.00,3.4824
1157.00,3.5335
1156.00,3.5475
1155.00,3.5376
1154.00,3.5375
1153.00,3.5659
1152.00,3.6154
1151.00,3.6562
1150.00,3.6690
1149.00,3.6791
1148.00,3.7161
1147.00,3.7866
1146.00,3.8689
1145.00,3.9138
1144.00,3.9078
1143.00,3.8973
1142.00,3.9125
1141.00,3.9295
1140.00,3.9021
1139.00,3.8430
1138.00,3.8134
1137.00,3.8547
1136.00,3.9864
1135.00,4.1944
1134.00,4.3023
1133.00,4.3326
1132.00,4.5948
1131.00,4.8225
1130.00,4.4335
1129.00,4.3259
1128.00,4.2149
1127.00,4.0814
1126.00,3.9885
1125.00,3.9477
1124.00,3.9535
1123.00,3.9918
1122.00,4.0370
1121.00,4.0615
1120.00,4.0580
1119.00,4.0438
1118.00,4.0240
1117.00,3.9874
1116.00,3.9567
1115.00,3.9591
1114.00,3.9740
1113.00,3.9658
1112.00,3.9531
1111.00,3.9431
1110.00,3.8892
1109.00,3.8033
1108.00,3.7589
1107.00,3.8105
1106.00,3.9662
1105.00,4.0982
1104.00,4.0997
1103.00,4.0401
1102.00,4.0063
1101.00,4.0731
1100.00,4.1780
1099.00,4.1778
1098.00,4.1301
1097.00,4.1235
1096.00,4.1521
1095.00,4.2168
1094.00,4.3173
1093.00,4.3550
1092.00,4.2834
1091.00,4.1755
1090.00,4.0816
1089.00,4.0756
1088.00,4.1665
1087.00,4.2659
1086.00,4.2699
1085.00,4.2193
1084.00,4.1516
1083.00,4.1009
1082.00,4.1001
1081.00,4.1481
1080.00,4.2165
1079.00,4.2980
1078.00,4.4453
1077.00,4.6860
1076.00,4.5664
1075.00,4.2599
1074.00,4.0186
1073.00,3.9281
1072.00,3.9948
1071.00,4.2161
1070.00,4.5404
1069.00,4.5231
1068.00,4.4021
1067.00,4.4183
1066.00,4.3671
1065.00,4.1772
1064.00,4.0221
1063.00,3.9035
1062.00,3.8285
1061.00,3.8245
1060.00,3.8982
1059.00,4.0052
1058.00,4.0502
1057.00,4.0084
1056.00,3.9330
1055.00,3.8538
1054.00,3.7714
1053.00,3.6934
1052.00,3.6523
1051.00,3.6856
1050.00,3.7978
1049.00,3.9403
1048.00,4.0779
1047.00,4.2452
1046.00,4.2618
1045.00,4.0645
1044.00,3.9142
1043.00,3.8290
1042.00,3.7798
1041.00,3.7280
1040.00,3.6660
1039.00,3.6124
1038.00,3.5772
1037.00,3.5500
1036.00,3.5189
1035.00,3.4885
1034.00,3.4655
1033.00,3.4440
1032.00,3.4158
1031.00,3.3838
1030.00,3.3625
1029.00,3.3675
1028.00,3.4067
1027.00,3.4735
1026.00,3.5469
1025.00,3.6050
1024.00,3.6413
1023.00,3.6623
1022.00,3.6855
1021.00,3.7259
1020.00,3.7770
1019.00,3.8333
1018.00,3.9022
1017.00,3.9756
1016.00,4.0329
1015.00,4.0562
1014.00,4.0523
1013.00,4.0336
1012.00,3.9887
1011.00,3.9605
1010.00,4.0118
1009.00,4.1650
1008.00,4.3722
1007.00,4.4485
1006.00,4.2969
1005.00,4.1252
1004.00,4.0433
1003.00,4.0348
1002.00,4.0442
1001.00,4.0453
1000.00,4.0969
999.00,4.2663
998.00,4.5660
997.00,4.4949
996.00,4.2459
995.00,4.1739
994.00,4.2486
993.00,4.3956
992.00,4.4286
991.00,4.2765
990.00,4.1414
989.00,4.0982
988.00,4.1373
987.00,4.1555
986.00,4.1092
985.00,4.1299
984.00,4.2669
983.00,4.5101
982.00,4.7537
981.00,4.6795
980.00,4.4341
979.00,4.2502
978.00,4.1969
977.00,4.3471
976.00,4.9516
975.00,4.5340
974.00,4.3951
973.00,4.4417
972.00,4.5150
971.00,4.5324
970.00,4.5038
969.00,4.5183
968.00,4.3891
967.00,4.2308
966.00,4.1218
965.00,4.0413
964.00,3.9974
963.00,3.9976
962.00,4.0381
961.00,4.1134
960.00,4.2013
959.00,4.2388
958.00,4.2344
957.00,4.3014
956.00,4.4284
955.00,4.3627
954.00,4.2608
953.00,4.1802
952.00,4.0710
951.00,4.0271
950.00,4.0397
949.00,3.9706
948.00,3.8693
947.00,3.8495
946.00,3.9222
945.00,4.0409
944.00,4.0723
943.00,3.9666
942.00,3.8669
941.00,3.8395
940.00,3.8884
939.00,4.0096
938.00,4.2029
937.00,4.4103
936.00,4.3799
935.00,4.1822
934.00,4.0473
933.00,4.0421
932.00,4.1759
931.00,4.3999
930.00,4.5530
929.00,4.4441
928.00,4.3512
927.00,4.3771
926.00,4.3735
925.00,4.2333
924.00,4.0813
923.00,4.0065
922.00,4.0022
921.00,4.0187
920.00,4.0249
919.00,4.0369
918.00,4.0454
917.00,4.0362
916.00,4.0523
915.00,4.1364
914.00,4.2547
913.00,4.3588
912.00,4.4797
911.00,4.2812
910.00,4.0595
909.00,3.9695
908.00,3.9413
907.00,3.9052
906.00,3.8436
905.00,3.8342
904.00,3.9480
903.00,4.2211
902.00,4.5333
901.00,4.3682
900.00,4.1347
899.00,4.0456
898.00,4.1243
897.00,4.4388
896.00,4.4258
895.00,4.1513
894.00,4.1499
893.00,4.3842
892.00,4.5058
891.00,4.5050
890.00,4.7427
889.00,4.3380
888.00,4.1934
887.00,4.2057
886.00,4.1534
885.00,4.1143
884.00,4.1646
883.00,4.2905
882.00,4.3779
881.00,4.1237
880.00,3.9137
879.00,3.8374
878.00,3.8589
877.00,3.9382
876.00,3.9733
875.00,3.8808
874.00,3.7646
873.00,3.7351
872.00,3.8300
871.00,4.0504
870.00,4.2144
869.00,4.0743
868.00,3.9768
867.00,4.0063
866.00,4.0978
865.00,4.1622
864.00,4.1741
863.00,4.1512
862.00,4.1338
861.00,4.2000
860.00,4.3827
859.00,4.4288
858.00,4.2899
857.00,4.1778
856.00,4.0958
855.00,4.0747
854.00,4.0932
853.00,4.0957
852.00,4.0531
851.00,3.9907
850.00,3.9530
849.00,3.9297
848.00,3.8893
847.00,3.8741
846.00,3.9397
845.00,4.0901
844.00,4.2424
843.00,4.2547
842.00,4.1487
841.00,3.9901
840.00,3.8449
839.00,3.7668
838.00,3.7674
837.00,3.8292
836.00,3.9345
835.00,4.0763
834.00,4.1858
833.00,4.1758
832.00,4.0842
831.00,4.0160
830.00,3.9982
829.00,3.9348
828.00,3.7891
827.00,3.6477
826.00,3.5616
825.00,3.5391
824.00,3.5701
823.00,3.6339
822.00,3.7091
821.00,3.7833
820.00,3.8539
819.00,3.9157
818.00,3.9608
817.00,3.9682
816.00,3.9128
815.00,3.8511
814.00,3.8509
813.00,3.9276
812.00,4.0345
811.00,4.0654
810.00,4.0527
809.00,4.1447
808.00,4.3615
807.00,4.4151
806.00,4.2747
805.00,4.0872
804.00,3.9710
803.00,3.9656
802.00,4.0562
801.00,4.2484
800.00,4.4130
799.00,4.2612
798.00,4.0689
797.00,3.9500
796.00,3.9155
795.00,3.9622
794.00,4.0400
793.00,4.0897
792.00,4.1353
791.00,4.1257
790.00,3.9785
789.00,3.8591
788.00,3.8090
787.00,3.7896
786.00,3.8021
785.00,3.8597
784.00,3.9006
783.00,3.8914
782.00,3.9265
781.00,4.0726
780.00,4.3937
779.00,4.6817
778.00,4.5343
777.00,4.3467
776.00,4.2040
775.00,4.1967
774.00,4.2618
773.00,4.2907
772.00,4.3098
771.00,4.2835
770.00,4.2821
769.00,4.2671
768.00,4.0386
767.00,3.8782
766.00,3.8551
765.00,3.9351
764.00,4.1021
763.00,4.3188
762.00,4.4403
761.00,4.6155
760.00,4.5855
759.00,4.1155
758.00,3.8921
757.00,3.7970
756.00,3.7706
755.00,3.8031
754.00,3.8688
753.00,3.9277
752.00,3.9420
751.00,3.9465
750.00,3.9953
749.00,4.1025
748.00,4.2626
747.00,4.4415
746.00,4.4617
745.00,4.3189
744.00,4.1322
743.00,3.9909
742.00,3.9423
741.00,3.9877
740.00,4.0750
739.00,4.2213
738.00,4.4863
737.00,4.3728
736.00,4.2257
735.00,4.1389
734.00,4.2342
733.00,4.7450
732.00,4.2610
731.00,3.9914
730.00,3.9003
729.00,3.8419
728.00,3.8292
727.00,3.8521
726.00,3.9020
725.00,3.9857
724.00,4.1188
723.00,4.4419
722.00,5.0510
721.00,4.3645
720.00,4.1893
719.00,4.1909
718.00,4.1363
717.00,4.0178
716.00,3.8951
715.00,3.8498
714.00,3.9096
713.00,4.0575
712.00,4.1006
711.00,4.0552
710.00,4.1330
709.00,4.2692
708.00,4.1989
707.00,4.0687
706.00,3.9862
705.00,3.9214
704.00,3.8828
703.00,3.8892
702.00,3.9468
701.00,4.0474
700.00,4.1365
