Created as New Dataset,Sample 084 By Administrator Date Wednesday, November 24 2021
cm-1,A
7502.00,0.9557
7501.00,0.9447
7500.00,0.9335
7499.00,0.9222
7498.00,0.9113
7497.00,0.9010
7496.00,0.8917
7495.00,0.8830
7494.00,0.8746
7493.00,0.8662
7492.00,0.8576
7491.00,0.8492
7490.00,0.8411
7489.00,0.8334
7488.00,0.8261
7487.00,0.8191
7486.00,0.8128
7485.00,0.8072
7484.00,0.8022
7483.00,0.7974
7482.00,0.7928
7481.00,0.7885
7480.00,0.7848
7479.00,0.7820
7478.00,0.7799
7477.00,0.7783
7476.00,0.7773
7475.00,0.7770
7474.00,0.7777
7473.00,0.7792
7472.00,0.7813
7471.00,0.7835
7470.00,0.7861
7469.00,0.7890
7468.00,0.7924
7467.00,0.7964
7466.00,0.8009
7465.00,0.8059
7464.00,0.8115
7463.00,0.8176
7462.00,0.8242
7461.00,0.8310
7460.00,0.8380
7459.00,0.8452
7458.00,0.8526
7457.00,0.8604
7456.00,0.8685
7455.00,0.8769
7454.00,0.8854
7453.00,0.8940
7452.00,0.9027
7451.00,0.9119
7450.00,0.9212
7449.00,0.9304
7448.00,0.9394
7447.00,0.9485
7446.00,0.9577
7445.00,0.9669
7444.00,0.9756
7443.00,0.9838
7442.00,0.9917
7441.00,0.9999
7440.00,1.0085
7439.00,1.0173
7438.00,1.0258
7437.00,1.0337
7436.00,1.0416
7435.00,1.0495
7434.00,1.0571
7433.00,1.0638
7432.00,1.0693
7431.00,1.0741
7430.00,1.0789
7429.00,1.0838
7428.00,1.0888
7427.00,1.0938
7426.00,1.0990
7425.00,1.1043
7424.00,1.1097
7423.00,1.1149
7422.00,1.1192
7421.00,1.1221
7420.00,1.1231
7419.00,1.1227
7418.00,1.1214
7417.00,1.1198
7416.00,1.1183
7415.00,1.1167
7414.00,1.1147
7413.00,1.1121
7412.00,1.1091
7411.00,1.1053
7410.00,1.1010
7409.00,1.0965
7408.00,1.0925
7407.00,1.0893
7406.00,1.0867
7405.00,1.0845
7404.00,1.0823
7403.00,1.0796
7402.00,1.0759
7401.00,1.0709
7400.00,1.0650
7399.00,1.0588
7398.00,1.0527
7397.00,1.0468
7396.00,1.0416
7395.00,1.0377
7394.00,1.0349
7393.00,1.0325
7392.00,1.0300
7391.00,1.0270
7390.00,1.0236
7389.00,1.0199
7388.00,1.0159
7387.00,1.0116
7386.00,1.0073
7385.00,1.0030
7384.00,0.9987
7383.00,0.9944
7382.00,0.9901
7381.00,0.9858
7380.00,0.9814
7379.00,0.9770
7378.00,0.9720
7377.00,0.9660
7376.00,0.9587
7375.00,0.9504
7374.00,0.9416
7373.00,0.9324
7372.00,0.9229
7371.00,0.9130
7370.00,0.9032
7369.00,0.8937
7368.00,0.8846
7367.00,0.8758
7366.00,0.8674
7365.00,0.8591
7364.00,0.8507
7363.00,0.8421
7362.00,0.8339
7361.00,0.8266
7360.00,0.8201
7359.00,0.8138
7358.00,0.8075
7357.00,0.8012
7356.00,0.7953
7355.00,0.7902
7354.00,0.7858
7353.00,0.7818
7352.00,0.7780
7351.00,0.7746
7350.00,0.7716
7349.00,0.7689
7348.00,0.7665
7347.00,0.7644
7346.00,0.7627
7345.00,0.7617
7344.00,0.7618
7343.00,0.7632
7342.00,0.7656
7341.00,0.7687
7340.00,0.7719
7339.00,0.7752
7338.00,0.7787
7337.00,0.7825
7336.00,0.7864
7335.00,0.7909
7334.00,0.7960
7333.00,0.8020
7332.00,0.8088
7331.00,0.8162
7330.00,0.8241
7329.00,0.8323
7328.00,0.8407
7327.00,0.8492
7326.00,0.8578
7325.00,0.8667
7324.00,0.8760
7323.00,0.8855
7322.00,0.8949
7321.00,0.9044
7320.00,0.9142
7319.00,0.9242
7318.00,0.9341
7317.00,0.9437
7316.00,0.9534
7315.00,0.9634
7314.00,0.9739
7313.00,0.9842
7312.00,0.9941
7311.00,1.0036
7310.00,1.0129
7309.00,1.0223
7308.00,1.0316
7307.00,1.0408
7306.00,1.0503
7305.00,1.0602
7304.00,1.0702
7303.00,1.0802
7302.00,1.0897
7301.00,1.0982
7300.00,1.1058
7299.00,1.1127
7298.00,1.1194
7297.00,1.1260
7296.00,1.1326
7295.00,1.1386
7294.00,1.1440
7293.00,1.1491
7292.00,1.1545
7291.00,1.1601
7290.00,1.1657
7289.00,1.1708
7288.00,1.1753
7287.00,1.1795
7286.00,1.1832
7285.00,1.1859
7284.00,1.1875
7283.00,1.1886
7282.00,1.1901
7281.00,1.1924
7280.00,1.1951
7279.00,1.1978
7278.00,1.2002
7277.00,1.2017
7276.00,1.2020
7275.00,1.2010
7274.00,1.1995
7273.00,1.1977
7272.00,1.1955
7271.00,1.1924
7270.00,1.1890
7269.00,1.1858
7268.00,1.1825
7267.00,1.1787
7266.00,1.1739
7265.00,1.1686
7264.00,1.1635
7263.00,1.1588
7262.00,1.1542
7261.00,1.1490
7260.00,1.1432
7259.00,1.1367
7258.00,1.1296
7257.00,1.1223
7256.00,1.1148
7255.00,1.1071
7254.00,1.0989
7253.00,1.0898
7252.00,1.0801
7251.00,1.0702
7250.00,1.0603
7249.00,1.0502
7248.00,1.0396
7247.00,1.0289
7246.00,1.0185
7245.00,1.0084
7244.00,0.9983
7243.00,0.9878
7242.00,0.9770
7241.00,0.9661
7240.00,0.9553
7239.00,0.9446
7238.00,0.9337
7237.00,0.9229
7236.00,0.9125
7235.00,0.9023
7234.00,0.8923
7233.00,0.8823
7232.00,0.8725
7231.00,0.8632
7230.00,0.8546
7229.00,0.8465
7228.00,0.8386
7227.00,0.8306
7226.00,0.8229
7225.00,0.8156
7224.00,0.8089
7223.00,0.8028
7222.00,0.7971
7221.00,0.7916
7220.00,0.7869
7219.00,0.7830
7218.00,0.7801
7217.00,0.7779
7216.00,0.7762
7215.00,0.7748
7214.00,0.7740
7213.00,0.7739
7212.00,0.7745
7211.00,0.7755
7210.00,0.7770
7209.00,0.7789
7208.00,0.7815
7207.00,0.7850
7206.00,0.7893
7205.00,0.7942
7204.00,0.7996
7203.00,0.8055
7202.00,0.8118
7201.00,0.8184
7200.00,0.8252
7199.00,0.8323
7198.00,0.8398
7197.00,0.8478
7196.00,0.8562
7195.00,0.8650
7194.00,0.8742
7193.00,0.8834
7192.00,0.8925
7191.00,0.9015
7190.00,0.9102
7189.00,0.9190
7188.00,0.9278
7187.00,0.9370
7186.00,0.9465
7185.00,0.9563
7184.00,0.9663
7183.00,0.9764
7182.00,0.9867
7181.00,0.9971
7180.00,1.0072
7179.00,1.0171
7178.00,1.0268
7177.00,1.0362
7176.00,1.0453
7175.00,1.0539
7174.00,1.0619
7173.00,1.0695
7172.00,1.0766
7171.00,1.0837
7170.00,1.0907
7169.00,1.0978
7168.00,1.1049
7167.00,1.1116
7166.00,1.1179
7165.00,1.1239
7164.00,1.1296
7163.00,1.1349
7162.00,1.1400
7161.00,1.1451
7160.00,1.1501
7159.00,1.1547
7158.00,1.1589
7157.00,1.1627
7156.00,1.1663
7155.00,1.1694
7154.00,1.1718
7153.00,1.1737
7152.00,1.1754
7151.00,1.1769
7150.00,1.1779
7149.00,1.1782
7148.00,1.1776
7147.00,1.1765
7146.00,1.1752
7145.00,1.1744
7144.00,1.1739
7143.00,1.1733
7142.00,1.1719
7141.00,1.1697
7140.00,1.1672
7139.00,1.1646
7138.00,1.1621
7137.00,1.1592
7136.00,1.1559
7135.00,1.1524
7134.00,1.1489
7133.00,1.1453
7132.00,1.1409
7131.00,1.1351
7130.00,1.1285
7129.00,1.1217
7128.00,1.1152
7127.00,1.1086
7126.00,1.1017
7125.00,1.0943
7124.00,1.0867
7123.00,1.0790
7122.00,1.0709
7121.00,1.0622
7120.00,1.0531
7119.00,1.0439
7118.00,1.0347
7117.00,1.0254
7116.00,1.0159
7115.00,1.0061
7114.00,0.9963
7113.00,0.9865
7112.00,0.9767
7111.00,0.9666
7110.00,0.9563
7109.00,0.9462
7108.00,0.9362
7107.00,0.9264
7106.00,0.9166
7105.00,0.9065
7104.00,0.8961
7103.00,0.8854
7102.00,0.8749
7101.00,0.8649
7100.00,0.8556
7099.00,0.8468
7098.00,0.8384
7097.00,0.8305
7096.00,0.8231
7095.00,0.8161
7094.00,0.8095
7093.00,0.8030
7092.00,0.7970
7091.00,0.7915
7090.00,0.7866
7089.00,0.7822
7088.00,0.7783
7087.00,0.7749
7086.00,0.7722
7085.00,0.7700
7084.00,0.7686
7083.00,0.7680
7082.00,0.7681
7081.00,0.7691
7080.00,0.7708
7079.00,0.7729
7078.00,0.7752
7077.00,0.7779
7076.00,0.7814
7075.00,0.7859
7074.00,0.7910
7073.00,0.7965
7072.00,0.8025
7071.00,0.8091
7070.00,0.8164
7069.00,0.8241
7068.00,0.8319
7067.00,0.8398
7066.00,0.8480
7065.00,0.8567
7064.00,0.8658
7063.00,0.8751
7062.00,0.8846
7061.00,0.8942
7060.00,0.9038
7059.00,0.9136
7058.00,0.9237
7057.00,0.9341
7056.00,0.9444
7055.00,0.9546
7054.00,0.9647
7053.00,0.9750
7052.00,0.9855
7051.00,0.9961
7050.00,1.0066
7049.00,1.0170
7048.00,1.0272
7047.00,1.0371
7046.00,1.0468
7045.00,1.0563
7044.00,1.0657
7043.00,1.0750
7042.00,1.0842
7041.00,1.0932
7040.00,1.1019
7039.00,1.1106
7038.00,1.1193
7037.00,1.1276
7036.00,1.1355
7035.00,1.1429
7034.00,1.1499
7033.00,1.1565
7032.00,1.1626
7031.00,1.1682
7030.00,1.1736
7029.00,1.1789
7028.00,1.1839
7027.00,1.1886
7026.00,1.1929
7025.00,1.1971
7024.00,1.2010
7023.00,1.2044
7022.00,1.2071
7021.00,1.2094
7020.00,1.2115
7019.00,1.2137
7018.00,1.2155
7017.00,1.2168
7016.00,1.2172
7015.00,1.2169
7014.00,1.2160
7013.00,1.2145
7012.00,1.2123
7011.00,1.2095
7010.00,1.2066
7009.00,1.2036
7008.00,1.2008
7007.00,1.1983
7006.00,1.1960
7005.00,1.1934
7004.00,1.1900
7003.00,1.1857
7002.00,1.1805
7001.00,1.1745
7000.00,1.1678
6999.00,1.1610
6998.00,1.1546
6997.00,1.1486
6996.00,1.1423
6995.00,1.1355
6994.00,1.1281
6993.00,1.1202
6992.00,1.1118
6991.00,1.1026
6990.00,1.0930
6989.00,1.0833
6988.00,1.0735
6987.00,1.0637
6986.00,1.0535
6985.00,1.0428
6984.00,1.0317
6983.00,1.0205
6982.00,1.0094
6981.00,0.9984
6980.00,0.9872
6979.00,0.9760
6978.00,0.9649
6977.00,0.9539
6976.00,0.9426
6975.00,0.9310
6974.00,0.9194
6973.00,0.9081
6972.00,0.8975
6971.00,0.8871
6970.00,0.8771
6969.00,0.8674
6968.00,0.8581
6967.00,0.8492
6966.00,0.8406
6965.00,0.8323
6964.00,0.8242
6963.00,0.8164
6962.00,0.8091
6961.00,0.8023
6960.00,0.7961
6959.00,0.7906
6958.00,0.7859
6957.00,0.7821
6956.00,0.7789
6955.00,0.7761
6954.00,0.7739
6953.00,0.7723
6952.00,0.7715
6951.00,0.7712
6950.00,0.7714
6949.00,0.7721
6948.00,0.7736
6947.00,0.7761
6946.00,0.7794
6945.00,0.7833
6944.00,0.7878
6943.00,0.7928
6942.00,0.7983
6941.00,0.8045
6940.00,0.8109
6939.00,0.8175
6938.00,0.8244
6937.00,0.8319
6936.00,0.8401
6935.00,0.8489
6934.00,0.8580
6933.00,0.8673
6932.00,0.8769
6931.00,0.8867
6930.00,0.8967
6929.00,0.9066
6928.00,0.9163
6927.00,0.9260
6926.00,0.9361
6925.00,0.9467
6924.00,0.9572
6923.00,0.9675
6922.00,0.9776
6921.00,0.9879
6920.00,0.9986
6919.00,1.0094
6918.00,1.0200
6917.00,1.0301
6916.00,1.0398
6915.00,1.0493
6914.00,1.0588
6913.00,1.0683
6912.00,1.0773
6911.00,1.0858
6910.00,1.0943
6909.00,1.1033
6908.00,1.1125
6907.00,1.1212
6906.00,1.1291
6905.00,1.1364
6904.00,1.1433
6903.00,1.1496
6902.00,1.1553
6901.00,1.1608
6900.00,1.1665
6899.00,1.1722
6898.00,1.1775
6897.00,1.1824
6896.00,1.1871
6895.00,1.1915
6894.00,1.1951
6893.00,1.1977
6892.00,1.1996
6891.00,1.2015
6890.00,1.2037
6889.00,1.2059
6888.00,1.2075
6887.00,1.2081
6886.00,1.2081
6885.00,1.2074
6884.00,1.2063
6883.00,1.2048
6882.00,1.2032
6881.00,1.2015
6880.00,1.1997
6879.00,1.1978
6878.00,1.1958
6877.00,1.1934
6876.00,1.1907
6875.00,1.1874
6874.00,1.1837
6873.00,1.1795
6872.00,1.1745
6871.00,1.1686
6870.00,1.1622
6869.00,1.1556
6868.00,1.1489
6867.00,1.1423
6866.00,1.1357
6865.00,1.1293
6864.00,1.1227
6863.00,1.1153
6862.00,1.1069
6861.00,1.0977
6860.00,1.0883
6859.00,1.0789
6858.00,1.0698
6857.00,1.0607
6856.00,1.0516
6855.00,1.0424
6854.00,1.0328
6853.00,1.0227
6852.00,1.0121
6851.00,1.0012
6850.00,0.9901
6849.00,0.9790
6848.00,0.9677
6847.00,0.9561
6846.00,0.9444
6845.00,0.9329
6844.00,0.9218
6843.00,0.9109
6842.00,0.9003
6841.00,0.8899
6840.00,0.8798
6839.00,0.8700
6838.00,0.8604
6837.00,0.8509
6836.00,0.8416
6835.00,0.8325
6834.00,0.8239
6833.00,0.8159
6832.00,0.8085
6831.00,0.8017
6830.00,0.7952
6829.00,0.7893
6828.00,0.7841
6827.00,0.7793
6826.00,0.7751
6825.00,0.7712
6824.00,0.7680
6823.00,0.7657
6822.00,0.7644
6821.00,0.7639
6820.00,0.7641
6819.00,0.7651
6818.00,0.7667
6817.00,0.7687
6816.00,0.7712
6815.00,0.7743
6814.00,0.7781
6813.00,0.7826
6812.00,0.7877
6811.00,0.7935
6810.00,0.7999
6809.00,0.8067
6808.00,0.8138
6807.00,0.8213
6806.00,0.8294
6805.00,0.8380
6804.00,0.8469
6803.00,0.8562
6802.00,0.8658
6801.00,0.8756
6800.00,0.8855
6799.00,0.8955
6798.00,0.9056
6797.00,0.9160
6796.00,0.9266
6795.00,0.9374
6794.00,0.9484
6793.00,0.9596
6792.00,0.9707
6791.00,0.9818
6790.00,0.9929
6789.00,1.0038
6788.00,1.0145
6787.00,1.0247
6786.00,1.0347
6785.00,1.0447
6784.00,1.0546
6783.00,1.0645
6782.00,1.0743
6781.00,1.0841
6780.00,1.0937
6779.00,1.1028
6778.00,1.1112
6777.00,1.1193
6776.00,1.1273
6775.00,1.1352
6774.00,1.1431
6773.00,1.1511
6772.00,1.1591
6771.00,1.1668
6770.00,1.1739
6769.00,1.1803
6768.00,1.1860
6767.00,1.1909
6766.00,1.1951
6765.00,1.1990
6764.00,1.2029
6763.00,1.2069
6762.00,1.2110
6761.00,1.2151
6760.00,1.2191
6759.00,1.2226
6758.00,1.2254
6757.00,1.2272
6756.00,1.2281
6755.00,1.2283
6754.00,1.2283
6753.00,1.2280
6752.00,1.2274
6751.00,1.2266
6750.00,1.2256
6749.00,1.2245
6748.00,1.2230
6747.00,1.2210
6746.00,1.2184
6745.00,1.2152
6744.00,1.2115
6743.00,1.2076
6742.00,1.2036
6741.00,1.1994
6740.00,1.1945
6739.00,1.1888
6738.00,1.1826
6737.00,1.1762
6736.00,1.1692
6735.00,1.1617
6734.00,1.1536
6733.00,1.1453
6732.00,1.1368
6731.00,1.1280
6730.00,1.1190
6729.00,1.1099
6728.00,1.1004
6727.00,1.0906
6726.00,1.0806
6725.00,1.0703
6724.00,1.0598
6723.00,1.0489
6722.00,1.0376
6721.00,1.0260
6720.00,1.0147
6719.00,1.0037
6718.00,0.9927
6717.00,0.9816
6716.00,0.9702
6715.00,0.9585
6714.00,0.9468
6713.00,0.9352
6712.00,0.9238
6711.00,0.9125
6710.00,0.9012
6709.00,0.8901
6708.00,0.8795
6707.00,0.8691
6706.00,0.8589
6705.00,0.8490
6704.00,0.8393
6703.00,0.8303
6702.00,0.8218
6701.00,0.8137
6700.00,0.8060
6699.00,0.7988
6698.00,0.7922
6697.00,0.7863
6696.00,0.7812
6695.00,0.7768
6694.00,0.7732
6693.00,0.7703
6692.00,0.7680
6691.00,0.7665
6690.00,0.7657
6689.00,0.7656
6688.00,0.7661
6687.00,0.7670
6686.00,0.7687
6685.00,0.7713
6684.00,0.7747
6683.00,0.7788
6682.00,0.7834
6681.00,0.7888
6680.00,0.7948
6679.00,0.8013
6678.00,0.8081
6677.00,0.8153
6676.00,0.8231
6675.00,0.8315
6674.00,0.8404
6673.00,0.8496
6672.00,0.8589
6671.00,0.8685
6670.00,0.8785
6669.00,0.8886
6668.00,0.8989
6667.00,0.9092
6666.00,0.9198
6665.00,0.9305
6664.00,0.9413
6663.00,0.9521
6662.00,0.9631
6661.00,0.9742
6660.00,0.9854
6659.00,0.9967
6658.00,1.0080
6657.00,1.0190
6656.00,1.0298
6655.00,1.0402
6654.00,1.0502
6653.00,1.0602
6652.00,1.0700
6651.00,1.0796
6650.00,1.0892
6649.00,1.0988
6648.00,1.1082
6647.00,1.1172
6646.00,1.1259
6645.00,1.1343
6644.00,1.1422
6643.00,1.1496
6642.00,1.1564
6641.00,1.1628
6640.00,1.1687
6639.00,1.1745
6638.00,1.1801
6637.00,1.1856
6636.00,1.1910
6635.00,1.1958
6634.00,1.1997
6633.00,1.2028
6632.00,1.2056
6631.00,1.2084
6630.00,1.2109
6629.00,1.2131
6628.00,1.2154
6627.00,1.2177
6626.00,1.2197
6625.00,1.2208
6624.00,1.2207
6623.00,1.2198
6622.00,1.2185
6621.00,1.2170
6620.00,1.2156
6619.00,1.2142
6618.00,1.2127
6617.00,1.2106
6616.00,1.2078
6615.00,1.2045
6614.00,1.2009
6613.00,1.1968
6612.00,1.1922
6611.00,1.1873
6610.00,1.1823
6609.00,1.1773
6608.00,1.1718
6607.00,1.1658
6606.00,1.1591
6605.00,1.1522
6604.00,1.1451
6603.00,1.1380
6602.00,1.1307
6601.00,1.1230
6600.00,1.1148
6599.00,1.1062
6598.00,1.0974
6597.00,1.0883
6596.00,1.0788
6595.00,1.0689
6594.00,1.0588
6593.00,1.0486
6592.00,1.0380
6591.00,1.0270
6590.00,1.0157
6589.00,1.0045
6588.00,0.9934
6587.00,0.9823
6586.00,0.9712
6585.00,0.9600
6584.00,0.9487
6583.00,0.9372
6582.00,0.9255
6581.00,0.9139
6580.00,0.9025
6579.00,0.8914
6578.00,0.8806
6577.00,0.8702
6576.00,0.8600
6575.00,0.8500
6574.00,0.8403
6573.00,0.8309
6572.00,0.8220
6571.00,0.8135
6570.00,0.8055
6569.00,0.7981
6568.00,0.7914
6567.00,0.7852
6566.00,0.7796
6565.00,0.7746
6564.00,0.7702
6563.00,0.7663
6562.00,0.7630
6561.00,0.7605
6560.00,0.7586
6559.00,0.7574
6558.00,0.7572
6557.00,0.7580
6556.00,0.7597
6555.00,0.7622
6554.00,0.7653
6553.00,0.7689
6552.00,0.7731
6551.00,0.7780
6550.00,0.7835
6549.00,0.7898
6548.00,0.7966
6547.00,0.8040
6546.00,0.8119
6545.00,0.8204
6544.00,0.8291
6543.00,0.8381
6542.00,0.8472
6541.00,0.8568
6540.00,0.8668
6539.00,0.8773
6538.00,0.8880
6537.00,0.8990
6536.00,0.9102
6535.00,0.9215
6534.00,0.9328
6533.00,0.9442
6532.00,0.9557
6531.00,0.9672
6530.00,0.9787
6529.00,0.9904
6528.00,1.0019
6527.00,1.0134
6526.00,1.0245
6525.00,1.0356
6524.00,1.0467
6523.00,1.0579
6522.00,1.0693
6521.00,1.0805
6520.00,1.0913
6519.00,1.1015
6518.00,1.1113
6517.00,1.1206
6516.00,1.1294
6515.00,1.1380
6514.00,1.1464
6513.00,1.1549
6512.00,1.1633
6511.00,1.1713
6510.00,1.1789
6509.00,1.1860
6508.00,1.1929
6507.00,1.1994
6506.00,1.2056
6505.00,1.2113
6504.00,1.2165
6503.00,1.2212
6502.00,1.2255
6501.00,1.2296
6500.00,1.2335
6499.00,1.2370
6498.00,1.2401
6497.00,1.2429
6496.00,1.2457
6495.00,1.2482
6494.00,1.2500
6493.00,1.2508
6492.00,1.2511
6491.00,1.2512
6490.00,1.2511
6489.00,1.2503
6488.00,1.2488
6487.00,1.2467
6486.00,1.2445
6485.00,1.2421
6484.00,1.2395
6483.00,1.2363
6482.00,1.2328
6481.00,1.2290
6480.00,1.2249
6479.00,1.2201
6478.00,1.2143
6477.00,1.2080
6476.00,1.2016
6475.00,1.1953
6474.00,1.1890
6473.00,1.1824
6472.00,1.1752
6471.00,1.1673
6470.00,1.1587
6469.00,1.1493
6468.00,1.1395
6467.00,1.1295
6466.00,1.1195
6465.00,1.1091
6464.00,1.0984
6463.00,1.0878
6462.00,1.0770
6461.00,1.0658
6460.00,1.0543
6459.00,1.0428
6458.00,1.0312
6457.00,1.0193
6456.00,1.0071
6455.00,0.9946
6454.00,0.9821
6453.00,0.9694
6452.00,0.9565
6451.00,0.9436
6450.00,0.9310
6449.00,0.9187
6448.00,0.9066
6447.00,0.8947
6446.00,0.8833
6445.00,0.8723
6444.00,0.8615
6443.00,0.8511
6442.00,0.8410
6441.00,0.8314
6440.00,0.8222
6439.00,0.8136
6438.00,0.8055
6437.00,0.7979
6436.00,0.7910
6435.00,0.7846
6434.00,0.7790
6433.00,0.7742
6432.00,0.7703
6431.00,0.7670
6430.00,0.7644
6429.00,0.7626
6428.00,0.7615
6427.00,0.7611
6426.00,0.7615
6425.00,0.7627
6424.00,0.7647
6423.00,0.7675
6422.00,0.7711
6421.00,0.7755
6420.00,0.7807
6419.00,0.7864
6418.00,0.7928
6417.00,0.7998
6416.00,0.8074
6415.00,0.8154
6414.00,0.8239
6413.00,0.8327
6412.00,0.8419
6411.00,0.8515
6410.00,0.8615
6409.00,0.8719
6408.00,0.8825
6407.00,0.8932
6406.00,0.9042
6405.00,0.9155
6404.00,0.9269
6403.00,0.9382
6402.00,0.9495
6401.00,0.9609
6400.00,0.9723
6399.00,0.9836
6398.00,0.9950
6397.00,1.0067
6396.00,1.0185
6395.00,1.0303
6394.00,1.0420
6393.00,1.0533
6392.00,1.0642
6391.00,1.0747
6390.00,1.0848
6389.00,1.0946
6388.00,1.1042
6387.00,1.1138
6386.00,1.1234
6385.00,1.1330
6384.00,1.1421
6383.00,1.1505
6382.00,1.1585
6381.00,1.1663
6380.00,1.1737
6379.00,1.1806
6378.00,1.1869
6377.00,1.1928
6376.00,1.1983
6375.00,1.2037
6374.00,1.2089
6373.00,1.2139
6372.00,1.2183
6371.00,1.2223
6370.00,1.2259
6369.00,1.2292
6368.00,1.2321
6367.00,1.2346
6366.00,1.2365
6365.00,1.2381
6364.00,1.2394
6363.00,1.2404
6362.00,1.2409
6361.00,1.2409
6360.00,1.2402
6359.00,1.2390
6358.00,1.2374
6357.00,1.2357
6356.00,1.2337
6355.00,1.2312
6354.00,1.2285
6353.00,1.2257
6352.00,1.2227
6351.00,1.2193
6350.00,1.2153
6349.00,1.2107
6348.00,1.2057
6347.00,1.2002
6346.00,1.1944
6345.00,1.1884
6344.00,1.1818
6343.00,1.1747
6342.00,1.1673
6341.00,1.1601
6340.00,1.1529
6339.00,1.1453
6338.00,1.1372
6337.00,1.1285
6336.00,1.1195
6335.00,1.1101
6334.00,1.1003
6333.00,1.0902
6332.00,1.0797
6331.00,1.0689
6330.00,1.0579
6329.00,1.0464
6328.00,1.0344
6327.00,1.0222
6326.00,1.0099
6325.00,0.9977
6324.00,0.9854
6323.00,0.9731
6322.00,0.9609
6321.00,0.9489
6320.00,0.9367
6319.00,0.9245
6318.00,0.9123
6317.00,0.9003
6316.00,0.8887
6315.00,0.8774
6314.00,0.8664
6313.00,0.8557
6312.00,0.8453
6311.00,0.8352
6310.00,0.8254
6309.00,0.8160
6308.00,0.8071
6307.00,0.7987
6306.00,0.7912
6305.00,0.7844
6304.00,0.7783
6303.00,0.7728
6302.00,0.7680
6301.00,0.7639
6300.00,0.7606
6299.00,0.7580
6298.00,0.7563
6297.00,0.7554
6296.00,0.7553
6295.00,0.7560
6294.00,0.7575
6293.00,0.7599
6292.00,0.7631
6291.00,0.7669
6290.00,0.7714
6289.00,0.7766
6288.00,0.7825
6287.00,0.7891
6286.00,0.7964
6285.00,0.8044
6284.00,0.8128
6283.00,0.8218
6282.00,0.8312
6281.00,0.8411
6280.00,0.8513
6279.00,0.8618
6278.00,0.8727
6277.00,0.8838
6276.00,0.8952
6275.00,0.9069
6274.00,0.9189
6273.00,0.9310
6272.00,0.9432
6271.00,0.9554
6270.00,0.9674
6269.00,0.9794
6268.00,0.9911
6267.00,1.0028
6266.00,1.0145
6265.00,1.0265
6264.00,1.0386
6263.00,1.0508
6262.00,1.0627
6261.00,1.0742
6260.00,1.0854
6259.00,1.0964
6258.00,1.1074
6257.00,1.1183
6256.00,1.1290
6255.00,1.1393
6254.00,1.1494
6253.00,1.1594
6252.00,1.1689
6251.00,1.1781
6250.00,1.1869
6249.00,1.1954
6248.00,1.2036
6247.00,1.2112
6246.00,1.2182
6245.00,1.2247
6244.00,1.2306
6243.00,1.2358
6242.00,1.2408
6241.00,1.2458
6240.00,1.2510
6239.00,1.2558
6238.00,1.2599
6237.00,1.2629
6236.00,1.2652
6235.00,1.2669
6234.00,1.2684
6233.00,1.2698
6232.00,1.2712
6231.00,1.2724
6230.00,1.2734
6229.00,1.2738
6228.00,1.2733
6227.00,1.2718
6226.00,1.2699
6225.00,1.2680
6224.00,1.2661
6223.00,1.2641
6222.00,1.2616
6221.00,1.2587
6220.00,1.2552
6219.00,1.2512
6218.00,1.2465
6217.00,1.2412
6216.00,1.2353
6215.00,1.2288
6214.00,1.2217
6213.00,1.2145
6212.00,1.2074
6211.00,1.2005
6210.00,1.1933
6209.00,1.1854
6208.00,1.1768
6207.00,1.1677
6206.00,1.1582
6205.00,1.1483
6204.00,1.1378
6203.00,1.1270
6202.00,1.1160
6201.00,1.1048
6200.00,1.0931
6199.00,1.0810
6198.00,1.0685
6197.00,1.0560
6196.00,1.0434
6195.00,1.0307
6194.00,1.0178
6193.00,1.0048
6192.00,0.9914
6191.00,0.9779
6190.00,0.9645
6189.00,0.9511
6188.00,0.9379
6187.00,0.9248
6186.00,0.9118
6185.00,0.8993
6184.00,0.8871
6183.00,0.8750
6182.00,0.8631
6181.00,0.8516
6180.00,0.8405
6179.00,0.8300
6178.00,0.8201
6177.00,0.8108
6176.00,0.8022
6175.00,0.7943
6174.00,0.7870
6173.00,0.7804
6172.00,0.7745
6171.00,0.7692
6170.00,0.7647
6169.00,0.7611
6168.00,0.7583
6167.00,0.7565
6166.00,0.7556
6165.00,0.7556
6164.00,0.7566
6163.00,0.7583
6162.00,0.7607
6161.00,0.7637
6160.00,0.7674
6159.00,0.7719
6158.00,0.7771
6157.00,0.7831
6156.00,0.7899
6155.00,0.7974
6154.00,0.8056
6153.00,0.8144
6152.00,0.8236
6151.00,0.8333
6150.00,0.8435
6149.00,0.8541
6148.00,0.8649
6147.00,0.8759
6146.00,0.8870
6145.00,0.8985
6144.00,0.9102
6143.00,0.9221
6142.00,0.9341
6141.00,0.9462
6140.00,0.9584
6139.00,0.9706
6138.00,0.9826
6137.00,0.9946
6136.00,1.0066
6135.00,1.0188
6134.00,1.0311
6133.00,1.0432
6132.00,1.0550
6131.00,1.0666
6130.00,1.0779
6129.00,1.0889
6128.00,1.0993
6127.00,1.1093
6126.00,1.1191
6125.00,1.1290
6124.00,1.1389
6123.00,1.1485
6122.00,1.1577
6121.00,1.1665
6120.00,1.1751
6119.00,1.1832
6118.00,1.1909
6117.00,1.1981
6116.00,1.2049
6115.00,1.2116
6114.00,1.2180
6113.00,1.2241
6112.00,1.2295
6111.00,1.2344
6110.00,1.2391
6109.00,1.2435
6108.00,1.2475
6107.00,1.2509
6106.00,1.2541
6105.00,1.2571
6104.00,1.2597
6103.00,1.2618
6102.00,1.2633
6101.00,1.2645
6100.00,1.2653
6099.00,1.2658
6098.00,1.2658
6097.00,1.2655
6096.00,1.2647
6095.00,1.2636
6094.00,1.2621
6093.00,1.2604
6092.00,1.2585
6091.00,1.2565
6090.00,1.2542
6089.00,1.2512
6088.00,1.2473
6087.00,1.2426
6086.00,1.2374
6085.00,1.2319
6084.00,1.2261
6083.00,1.2201
6082.00,1.2139
6081.00,1.2077
6080.00,1.2011
6079.00,1.1939
6078.00,1.1859
6077.00,1.1772
6076.00,1.1681
6075.00,1.1587
6074.00,1.1491
6073.00,1.1391
6072.00,1.1287
6071.00,1.1179
6070.00,1.1068
6069.00,1.0953
6068.00,1.0834
6067.00,1.0711
6066.00,1.0587
6065.00,1.0460
6064.00,1.0332
6063.00,1.0200
6062.00,1.0066
6061.00,0.9931
6060.00,0.9797
6059.00,0.9665
6058.00,0.9533
6057.00,0.9401
6056.00,0.9269
6055.00,0.9138
6054.00,0.9009
6053.00,0.8883
6052.00,0.8758
6051.00,0.8637
6050.00,0.8520
6049.00,0.8407
6048.00,0.8299
6047.00,0.8197
6046.00,0.8101
6045.00,0.8012
6044.00,0.7929
6043.00,0.7852
6042.00,0.7782
6041.00,0.7721
6040.00,0.7667
6039.00,0.7621
6038.00,0.7585
6037.00,0.7558
6036.00,0.7540
6035.00,0.7530
6034.00,0.7530
6033.00,0.7539
6032.00,0.7558
6031.00,0.7587
6030.00,0.7625
6029.00,0.7671
6028.00,0.7725
6027.00,0.7784
6026.00,0.7849
6025.00,0.7921
6024.00,0.8001
6023.00,0.8087
6022.00,0.8179
6021.00,0.8278
6020.00,0.8382
6019.00,0.8491
6018.00,0.8603
6017.00,0.8717
6016.00,0.8834
6015.00,0.8953
6014.00,0.9075
6013.00,0.9198
6012.00,0.9323
6011.00,0.9449
6010.00,0.9577
6009.00,0.9706
6008.00,0.9835
6007.00,0.9965
6006.00,1.0096
6005.00,1.0227
6004.00,1.0358
6003.00,1.0488
6002.00,1.0616
6001.00,1.0742
6000.00,1.0864
5999.00,1.0980
5998.00,1.1095
5997.00,1.1210
5996.00,1.1326
5995.00,1.1441
5994.00,1.1553
5993.00,1.1663
5992.00,1.1769
5991.00,1.1866
5990.00,1.1955
5989.00,1.2037
5988.00,1.2117
5987.00,1.2197
5986.00,1.2276
5985.00,1.2352
5984.00,1.2424
5983.00,1.2491
5982.00,1.2553
5981.00,1.2609
5980.00,1.2660
5979.00,1.2709
5978.00,1.2755
5977.00,1.2798
5976.00,1.2838
5975.00,1.2874
5974.00,1.2904
5973.00,1.2928
5972.00,1.2949
5971.00,1.2966
5970.00,1.2981
5969.00,1.2989
5968.00,1.2991
5967.00,1.2986
5966.00,1.2978
5965.00,1.2966
5964.00,1.2950
5963.00,1.2932
5962.00,1.2911
5961.00,1.2889
5960.00,1.2862
5959.00,1.2830
5958.00,1.2791
5957.00,1.2749
5956.00,1.2702
5955.00,1.2652
5954.00,1.2599
5953.00,1.2542
5952.00,1.2481
5951.00,1.2414
5950.00,1.2341
5949.00,1.2262
5948.00,1.2179
5947.00,1.2092
5946.00,1.2002
5945.00,1.1909
5944.00,1.1813
5943.00,1.1712
5942.00,1.1604
5941.00,1.1491
5940.00,1.1374
5939.00,1.1254
5938.00,1.1131
5937.00,1.1004
5936.00,1.0873
5935.00,1.0739
5934.00,1.0603
5933.00,1.0467
5932.00,1.0329
5931.00,1.0190
5930.00,1.0051
5929.00,0.9913
5928.00,0.9774
5927.00,0.9633
5926.00,0.9492
5925.00,0.9354
5924.00,0.9218
5923.00,0.9085
5922.00,0.8954
5921.00,0.8827
5920.00,0.8703
5919.00,0.8583
5918.00,0.8465
5917.00,0.8353
5916.00,0.8248
5915.00,0.8149
5914.00,0.8059
5913.00,0.7977
5912.00,0.7903
5911.00,0.7837
5910.00,0.7779
5909.00,0.7728
5908.00,0.7684
5907.00,0.7649
5906.00,0.7624
5905.00,0.7609
5904.00,0.7603
5903.00,0.7608
5902.00,0.7623
5901.00,0.7648
5900.00,0.7682
5899.00,0.7724
5898.00,0.7774
5897.00,0.7832
5896.00,0.7897
5895.00,0.7969
5894.00,0.8048
5893.00,0.8133
5892.00,0.8225
5891.00,0.8322
5890.00,0.8426
5889.00,0.8534
5888.00,0.8647
5887.00,0.8765
5886.00,0.8886
5885.00,0.9010
5884.00,0.9137
5883.00,0.9266
5882.00,0.9396
5881.00,0.9527
5880.00,0.9658
5879.00,0.9789
5878.00,0.9920
5877.00,1.0053
5876.00,1.0185
5875.00,1.0318
5874.00,1.0452
5873.00,1.0584
5872.00,1.0714
5871.00,1.0842
5870.00,1.0970
5869.00,1.1097
5868.00,1.1220
5867.00,1.1341
5866.00,1.1459
5865.00,1.1575
5864.00,1.1688
5863.00,1.1797
5862.00,1.1903
5861.00,1.2006
5860.00,1.2105
5859.00,1.2200
5858.00,1.2290
5857.00,1.2378
5856.00,1.2462
5855.00,1.2542
5854.00,1.2619
5853.00,1.2693
5852.00,1.2764
5851.00,1.2829
5850.00,1.2889
5849.00,1.2941
5848.00,1.2988
5847.00,1.3030
5846.00,1.3070
5845.00,1.3109
5844.00,1.3145
5843.00,1.3178
5842.00,1.3205
5841.00,1.3226
5840.00,1.3240
5839.00,1.3247
5838.00,1.3251
5837.00,1.3254
5836.00,1.3256
5835.00,1.3253
5834.00,1.3245
5833.00,1.3233
5832.00,1.3215
5831.00,1.3192
5830.00,1.3161
5829.00,1.3127
5828.00,1.3091
5827.00,1.3056
5826.00,1.3019
5825.00,1.2976
5824.00,1.2927
5823.00,1.2872
5822.00,1.2811
5821.00,1.2742
5820.00,1.2667
5819.00,1.2588
5818.00,1.2506
5817.00,1.2421
5816.00,1.2331
5815.00,1.2238
5814.00,1.2141
5813.00,1.2042
5812.00,1.1939
5811.00,1.1833
5810.00,1.1721
5809.00,1.1604
5808.00,1.1482
5807.00,1.1357
5806.00,1.1229
5805.00,1.1099
5804.00,1.0967
5803.00,1.0834
5802.00,1.0698
5801.00,1.0559
5800.00,1.0418
5799.00,1.0275
5798.00,1.0130
5797.00,0.9984
5796.00,0.9837
5795.00,0.9691
5794.00,0.9546
5793.00,0.9402
5792.00,0.9261
5791.00,0.9124
5790.00,0.8991
5789.00,0.8861
5788.00,0.8735
5787.00,0.8611
5786.00,0.8493
5785.00,0.8380
5784.00,0.8271
5783.00,0.8168
5782.00,0.8073
5781.00,0.7987
5780.00,0.7910
5779.00,0.7843
5778.00,0.7786
5777.00,0.7738
5776.00,0.7700
5775.00,0.7670
5774.00,0.7649
5773.00,0.7637
5772.00,0.7637
5771.00,0.7646
5770.00,0.7665
5769.00,0.7695
5768.00,0.7733
5767.00,0.7781
5766.00,0.7837
5765.00,0.7902
5764.00,0.7976
5763.00,0.8057
5762.00,0.8146
5761.00,0.8240
5760.00,0.8340
5759.00,0.8445
5758.00,0.8555
5757.00,0.8669
5756.00,0.8788
5755.00,0.8911
5754.00,0.9038
5753.00,0.9169
5752.00,0.9302
5751.00,0.9436
5750.00,0.9572
5749.00,0.9708
5748.00,0.9843
5747.00,0.9980
5746.00,1.0117
5745.00,1.0255
5744.00,1.0393
5743.00,1.0531
5742.00,1.0669
5741.00,1.0805
5740.00,1.0940
5739.00,1.1071
5738.00,1.1200
5737.00,1.1326
5736.00,1.1447
5735.00,1.1566
5734.00,1.1683
5733.00,1.1798
5732.00,1.1910
5731.00,1.2021
5730.00,1.2129
5729.00,1.2235
5728.00,1.2336
5727.00,1.2431
5726.00,1.2523
5725.00,1.2609
5724.00,1.2691
5723.00,1.2767
5722.00,1.2837
5721.00,1.2903
5720.00,1.2963
5719.00,1.3019
5718.00,1.3071
5717.00,1.3122
5716.00,1.3171
5715.00,1.3217
5714.00,1.3259
5713.00,1.3295
5712.00,1.3325
5711.00,1.3350
5710.00,1.3369
5709.00,1.3383
5708.00,1.3393
5707.00,1.3399
5706.00,1.3401
5705.00,1.3398
5704.00,1.3391
5703.00,1.3383
5702.00,1.3376
5701.00,1.3367
5700.00,1.3352
5699.00,1.3329
5698.00,1.3298
5697.00,1.3259
5696.00,1.3212
5695.00,1.3160
5694.00,1.3106
5693.00,1.3050
5692.00,1.2992
5691.00,1.2929
5690.00,1.2860
5689.00,1.2785
5688.00,1.2706
5687.00,1.2624
5686.00,1.2537
5685.00,1.2447
5684.00,1.2353
5683.00,1.2255
5682.00,1.2153
5681.00,1.2046
5680.00,1.1936
5679.00,1.1822
5678.00,1.1703
5677.00,1.1579
5676.00,1.1449
5675.00,1.1315
5674.00,1.1178
5673.00,1.1038
5672.00,1.0896
5671.00,1.0751
5670.00,1.0604
5669.00,1.0455
5668.00,1.0305
5667.00,1.0154
5666.00,1.0003
5665.00,0.9855
5664.00,0.9708
5663.00,0.9561
5662.00,0.9416
5661.00,0.9272
5660.00,0.9131
5659.00,0.8992
5658.00,0.8856
5657.00,0.8725
5656.00,0.8596
5655.00,0.8471
5654.00,0.8352
5653.00,0.8240
5652.00,0.8135
5651.00,0.8039
5650.00,0.7953
5649.00,0.7875
5648.00,0.7806
5647.00,0.7744
5646.00,0.7691
5645.00,0.7647
5644.00,0.7613
5643.00,0.7588
5642.00,0.7575
5641.00,0.7572
5640.00,0.7580
5639.00,0.7597
5638.00,0.7624
5637.00,0.7661
5636.00,0.7708
5635.00,0.7764
5634.00,0.7830
5633.00,0.7904
5632.00,0.7985
5631.00,0.8073
5630.00,0.8167
5629.00,0.8267
5628.00,0.8374
5627.00,0.8486
5626.00,0.8603
5625.00,0.8725
5624.00,0.8851
5623.00,0.8981
5622.00,0.9114
5621.00,0.9251
5620.00,0.9390
5619.00,0.9531
5618.00,0.9673
5617.00,0.9816
5616.00,0.9958
5615.00,1.0099
5614.00,1.0241
5613.00,1.0382
5612.00,1.0523
5611.00,1.0663
5610.00,1.0802
5609.00,1.0941
5608.00,1.1076
5607.00,1.1210
5606.00,1.1341
5605.00,1.1471
5604.00,1.1599
5603.00,1.1725
5602.00,1.1847
5601.00,1.1965
5600.00,1.2079
5599.00,1.2189
5598.00,1.2295
5597.00,1.2395
5596.00,1.2490
5595.00,1.2582
5594.00,1.2670
5593.00,1.2755
5592.00,1.2835
5591.00,1.2911
5590.00,1.2983
5589.00,1.3052
5588.00,1.3118
5587.00,1.3179
5586.00,1.3234
5585.00,1.3283
5584.00,1.3326
5583.00,1.3364
5582.00,1.3400
5581.00,1.3435
5580.00,1.3469
5579.00,1.3499
5578.00,1.3521
5577.00,1.3534
5576.00,1.3541
5575.00,1.3544
5574.00,1.3546
5573.00,1.3544
5572.00,1.3536
5571.00,1.3522
5570.00,1.3500
5569.00,1.3474
5568.00,1.3443
5567.00,1.3410
5566.00,1.3374
5565.00,1.3335
5564.00,1.3292
5563.00,1.3246
5562.00,1.3194
5561.00,1.3137
5560.00,1.3074
5559.00,1.3006
5558.00,1.2933
5557.00,1.2854
5556.00,1.2770
5555.00,1.2682
5554.00,1.2590
5553.00,1.2493
5552.00,1.2390
5551.00,1.2285
5550.00,1.2176
5549.00,1.2064
5548.00,1.1947
5547.00,1.1825
5546.00,1.1700
5545.00,1.1572
5544.00,1.1440
5543.00,1.1303
5542.00,1.1161
5541.00,1.1015
5540.00,1.0865
5539.00,1.0713
5538.00,1.0560
5537.00,1.0407
5536.00,1.0254
5535.00,1.0099
5534.00,0.9943
5533.00,0.9785
5532.00,0.9626
5531.00,0.9468
5530.00,0.9313
5529.00,0.9162
5528.00,0.9014
5527.00,0.8870
5526.00,0.8731
5525.00,0.8596
5524.00,0.8467
5523.00,0.8344
5522.00,0.8228
5521.00,0.8119
5520.00,0.8018
5519.00,0.7925
5518.00,0.7839
5517.00,0.7762
5516.00,0.7695
5515.00,0.7638
5514.00,0.7591
5513.00,0.7556
5512.00,0.7532
5511.00,0.7518
5510.00,0.7516
5509.00,0.7523
5508.00,0.7541
5507.00,0.7569
5506.00,0.7607
5505.00,0.7656
5504.00,0.7714
5503.00,0.7781
5502.00,0.7857
5501.00,0.7941
5500.00,0.8032
5499.00,0.8129
5498.00,0.8233
5497.00,0.8343
5496.00,0.8458
5495.00,0.8578
5494.00,0.8703
5493.00,0.8833
5492.00,0.8966
5491.00,0.9101
5490.00,0.9239
5489.00,0.9378
5488.00,0.9517
5487.00,0.9656
5486.00,0.9797
5485.00,0.9940
5484.00,1.0082
5483.00,1.0225
5482.00,1.0366
5481.00,1.0507
5480.00,1.0645
5479.00,1.0779
5478.00,1.0911
5477.00,1.1042
5476.00,1.1172
5475.00,1.1301
5474.00,1.1431
5473.00,1.1560
5472.00,1.1686
5471.00,1.1808
5470.00,1.1925
5469.00,1.2037
5468.00,1.2145
5467.00,1.2250
5466.00,1.2352
5465.00,1.2453
5464.00,1.2551
5463.00,1.2645
5462.00,1.2733
5461.00,1.2815
5460.00,1.2892
5459.00,1.2965
5458.00,1.3033
5457.00,1.3099
5456.00,1.3162
5455.00,1.3223
5454.00,1.3279
5453.00,1.3330
5452.00,1.3374
5451.00,1.3412
5450.00,1.3446
5449.00,1.3476
5448.00,1.3504
5447.00,1.3531
5446.00,1.3555
5445.00,1.3571
5444.00,1.3579
5443.00,1.3579
5442.00,1.3574
5441.00,1.3567
5440.00,1.3559
5439.00,1.3549
5438.00,1.3537
5437.00,1.3520
5436.00,1.3495
5435.00,1.3464
5434.00,1.3428
5433.00,1.3387
5432.00,1.3339
5431.00,1.3284
5430.00,1.3225
5429.00,1.3163
5428.00,1.3098
5427.00,1.3030
5426.00,1.2960
5425.00,1.2885
5424.00,1.2805
5423.00,1.2718
5422.00,1.2624
5421.00,1.2527
5420.00,1.2423
5419.00,1.2313
5418.00,1.2197
5417.00,1.2076
5416.00,1.1952
5415.00,1.1822
5414.00,1.1687
5413.00,1.1549
5412.00,1.1408
5411.00,1.1263
5410.00,1.1115
5409.00,1.0963
5408.00,1.0809
5407.00,1.0653
5406.00,1.0495
5405.00,1.0335
5404.00,1.0174
5403.00,1.0012
5402.00,0.9849
5401.00,0.9686
5400.00,0.9523
5399.00,0.9362
5398.00,0.9203
5397.00,0.9049
5396.00,0.8898
5395.00,0.8752
5394.00,0.8610
5393.00,0.8473
5392.00,0.8342
5391.00,0.8219
5390.00,0.8104
5389.00,0.7998
5388.00,0.7902
5387.00,0.7814
5386.00,0.7735
5385.00,0.7667
5384.00,0.7608
5383.00,0.7560
5382.00,0.7522
5381.00,0.7497
5380.00,0.7484
5379.00,0.7483
5378.00,0.7495
5377.00,0.7520
5376.00,0.7556
5375.00,0.7602
5374.00,0.7659
5373.00,0.7726
5372.00,0.7802
5371.00,0.7888
5370.00,0.7983
5369.00,0.8086
5368.00,0.8195
5367.00,0.8310
5366.00,0.8432
5365.00,0.8559
5364.00,0.8693
5363.00,0.8832
5362.00,0.8975
5361.00,0.9122
5360.00,0.9271
5359.00,0.9421
5358.00,0.9572
5357.00,0.9722
5356.00,0.9874
5355.00,1.0028
5354.00,1.0184
5353.00,1.0342
5352.00,1.0500
5351.00,1.0658
5350.00,1.0814
5349.00,1.0967
5348.00,1.1116
5347.00,1.1262
5346.00,1.1406
5345.00,1.1546
5344.00,1.1684
5343.00,1.1820
5342.00,1.1953
5341.00,1.2084
5340.00,1.2211
5339.00,1.2335
5338.00,1.2457
5337.00,1.2575
5336.00,1.2688
5335.00,1.2795
5334.00,1.2896
5333.00,1.2993
5332.00,1.3086
5331.00,1.3175
5330.00,1.3257
5329.00,1.3332
5328.00,1.3403
5327.00,1.3470
5326.00,1.3535
5325.00,1.3595
5324.00,1.3648
5323.00,1.3695
5322.00,1.3736
5321.00,1.3772
5320.00,1.3805
5319.00,1.3838
5318.00,1.3869
5317.00,1.3896
5316.00,1.3917
5315.00,1.3932
5314.00,1.3938
5313.00,1.3938
5312.00,1.3934
5311.00,1.3927
5310.00,1.3919
5309.00,1.3907
5308.00,1.3890
5307.00,1.3865
5306.00,1.3834
5305.00,1.3798
5304.00,1.3759
5303.00,1.3718
5302.00,1.3674
5301.00,1.3625
5300.00,1.3570
5299.00,1.3509
5298.00,1.3442
5297.00,1.3370
5296.00,1.3293
5295.00,1.3212
5294.00,1.3126
5293.00,1.3036
5292.00,1.2941
5291.00,1.2840
5290.00,1.2735
5289.00,1.2625
5288.00,1.2510
5287.00,1.2391
5286.00,1.2267
5285.00,1.2137
5284.00,1.2003
5283.00,1.1863
5282.00,1.1720
5281.00,1.1572
5280.00,1.1422
5279.00,1.1269
5278.00,1.1113
5277.00,1.0953
5276.00,1.0790
5275.00,1.0623
5274.00,1.0455
5273.00,1.0284
5272.00,1.0114
5271.00,0.9944
5270.00,0.9776
5269.00,0.9610
5268.00,0.9444
5267.00,0.9281
5266.00,0.9122
5265.00,0.8965
5264.00,0.8813
5263.00,0.8667
5262.00,0.8527
5261.00,0.8394
5260.00,0.8268
5259.00,0.8151
5258.00,0.8043
5257.00,0.7944
5256.00,0.7854
5255.00,0.7774
5254.00,0.7704
5253.00,0.7644
5252.00,0.7596
5251.00,0.7560
5250.00,0.7535
5249.00,0.7523
5248.00,0.7524
5247.00,0.7537
5246.00,0.7563
5245.00,0.7602
5244.00,0.7651
5243.00,0.7710
5242.00,0.7778
5241.00,0.7856
5240.00,0.7943
5239.00,0.8038
5238.00,0.8144
5237.00,0.8257
5236.00,0.8378
5235.00,0.8505
5234.00,0.8636
5233.00,0.8772
5232.00,0.8913
5231.00,0.9057
5230.00,0.9205
5229.00,0.9355
5228.00,0.9507
5227.00,0.9660
5226.00,0.9816
5225.00,0.9974
5224.00,1.0133
5223.00,1.0294
5222.00,1.0454
5221.00,1.0612
5220.00,1.0770
5219.00,1.0926
5218.00,1.1081
5217.00,1.1235
5216.00,1.1387
5215.00,1.1536
5214.00,1.1682
5213.00,1.1825
5212.00,1.1965
5211.00,1.2099
5210.00,1.2230
5209.00,1.2357
5208.00,1.2478
5207.00,1.2596
5206.00,1.2709
5205.00,1.2820
5204.00,1.2928
5203.00,1.3033
5202.00,1.3134
5201.00,1.3230
5200.00,1.3321
5199.00,1.3408
5198.00,1.3491
5197.00,1.3570
5196.00,1.3644
5195.00,1.3711
5194.00,1.3773
5193.00,1.3828
5192.00,1.3878
5191.00,1.3924
5190.00,1.3968
5189.00,1.4007
5188.00,1.4040
5187.00,1.4068
5186.00,1.4091
5185.00,1.4109
5184.00,1.4124
5183.00,1.4137
5182.00,1.4149
5181.00,1.4158
5180.00,1.4160
5179.00,1.4154
5178.00,1.4141
5177.00,1.4123
5176.00,1.4099
5175.00,1.4072
5174.00,1.4041
5173.00,1.4005
5172.00,1.3963
5171.00,1.3916
5170.00,1.3865
5169.00,1.3812
5168.00,1.3754
5167.00,1.3690
5166.00,1.3619
5165.00,1.3541
5164.00,1.3458
5163.00,1.3369
5162.00,1.3277
5161.00,1.3182
5160.00,1.3083
5159.00,1.2978
5158.00,1.2868
5157.00,1.2752
5156.00,1.2632
5155.00,1.2506
5154.00,1.2376
5153.00,1.2240
5152.00,1.2100
5151.00,1.1955
5150.00,1.1803
5149.00,1.1645
5148.00,1.1483
5147.00,1.1319
5146.00,1.1153
5145.00,1.0986
5144.00,1.0818
5143.00,1.0648
5142.00,1.0475
5141.00,1.0299
5140.00,1.0122
5139.00,0.9945
5138.00,0.9770
5137.00,0.9596
5136.00,0.9425
5135.00,0.9257
5134.00,0.9092
5133.00,0.8932
5132.00,0.8777
5131.00,0.8627
5130.00,0.8484
5129.00,0.8348
5128.00,0.8221
5127.00,0.8103
5126.00,0.7995
5125.00,0.7899
5124.00,0.7813
5123.00,0.7738
5122.00,0.7675
5121.00,0.7624
5120.00,0.7586
5119.00,0.7561
5118.00,0.7550
5117.00,0.7553
5116.00,0.7569
5115.00,0.7598
5114.00,0.7640
5113.00,0.7693
5112.00,0.7759
5111.00,0.7835
5110.00,0.7922
5109.00,0.8018
5108.00,0.8124
5107.00,0.8238
5106.00,0.8361
5105.00,0.8490
5104.00,0.8627
5103.00,0.8769
5102.00,0.8918
5101.00,0.9071
5100.00,0.9228
5099.00,0.9388
5098.00,0.9550
5097.00,0.9715
5096.00,0.9882
5095.00,1.0051
5094.00,1.0221
5093.00,1.0390
5092.00,1.0558
5091.00,1.0725
5090.00,1.0891
5089.00,1.1057
5088.00,1.1222
5087.00,1.1386
5086.00,1.1547
5085.00,1.1705
5084.00,1.1859
5083.00,1.2010
5082.00,1.2158
5081.00,1.2303
5080.00,1.2444
5079.00,1.2581
5078.00,1.2713
5077.00,1.2840
5076.00,1.2963
5075.00,1.3081
5074.00,1.3194
5073.00,1.3302
5072.00,1.3405
5071.00,1.3501
5070.00,1.3593
5069.00,1.3681
5068.00,1.3765
5067.00,1.3844
5066.00,1.3919
5065.00,1.3989
5064.00,1.4053
5063.00,1.4113
5062.00,1.4169
5061.00,1.4220
5060.00,1.4266
5059.00,1.4305
5058.00,1.4339
5057.00,1.4368
5056.00,1.4393
5055.00,1.4413
5054.00,1.4429
5053.00,1.4439
5052.00,1.4444
5051.00,1.4445
5050.00,1.4442
5049.00,1.4435
5048.00,1.4424
5047.00,1.4407
5046.00,1.4385
5045.00,1.4359
5044.00,1.4327
5043.00,1.4289
5042.00,1.4248
5041.00,1.4204
5040.00,1.4155
5039.00,1.4100
5038.00,1.4042
5037.00,1.3981
5036.00,1.3915
5035.00,1.3843
5034.00,1.3765
5033.00,1.3679
5032.00,1.3586
5031.00,1.3487
5030.00,1.3385
5029.00,1.3279
5028.00,1.3170
5027.00,1.3055
5026.00,1.2934
5025.00,1.2808
5024.00,1.2677
5023.00,1.2541
5022.00,1.2401
5021.00,1.2256
5020.00,1.2106
5019.00,1.1950
5018.00,1.1788
5017.00,1.1622
5016.00,1.1453
5015.00,1.1280
5014.00,1.1105
5013.00,1.0927
5012.00,1.0748
5011.00,1.0566
5010.00,1.0384
5009.00,1.0199
5008.00,1.0014
5007.00,0.9827
5006.00,0.9641
5005.00,0.9457
5004.00,0.9276
5003.00,0.9098
5002.00,0.8926
5001.00,0.8758
5000.00,0.8596
4999.00,0.8441
4998.00,0.8295
4997.00,0.8158
4996.00,0.8032
4995.00,0.7916
4994.00,0.7812
4993.00,0.7721
4992.00,0.7643
4991.00,0.7578
4990.00,0.7529
4989.00,0.7493
4988.00,0.7471
4987.00,0.7462
4986.00,0.7468
4985.00,0.7487
4984.00,0.7520
4983.00,0.7566
4982.00,0.7625
4981.00,0.7696
4980.00,0.7779
4979.00,0.7874
4978.00,0.7979
4977.00,0.8093
4976.00,0.8215
4975.00,0.8346
4974.00,0.8484
4973.00,0.8631
4972.00,0.8783
4971.00,0.8941
4970.00,0.9103
4969.00,0.9269
4968.00,0.9438
4967.00,0.9609
4966.00,0.9783
4965.00,0.9957
4964.00,1.0132
4963.00,1.0309
4962.00,1.0486
4961.00,1.0664
4960.00,1.0841
4959.00,1.1017
4958.00,1.1191
4957.00,1.1363
4956.00,1.1532
4955.00,1.1699
4954.00,1.1864
4953.00,1.2024
4952.00,1.2181
4951.00,1.2335
4950.00,1.2486
4949.00,1.2634
4948.00,1.2777
4947.00,1.2914
4946.00,1.3045
4945.00,1.3171
4944.00,1.3292
4943.00,1.3409
4942.00,1.3522
4941.00,1.3629
4940.00,1.3729
4939.00,1.3822
4938.00,1.3910
4937.00,1.3994
4936.00,1.4075
4935.00,1.4153
4934.00,1.4227
4933.00,1.4296
4932.00,1.4358
4931.00,1.4416
4930.00,1.4470
4929.00,1.4518
4928.00,1.4560
4927.00,1.4595
4926.00,1.4622
4925.00,1.4642
4924.00,1.4657
4923.00,1.4669
4922.00,1.4679
4921.00,1.4687
4920.00,1.4692
4919.00,1.4692
4918.00,1.4689
4917.00,1.4680
4916.00,1.4664
4915.00,1.4642
4914.00,1.4616
4913.00,1.4585
4912.00,1.4550
4911.00,1.4510
4910.00,1.4465
4909.00,1.4415
4908.00,1.4360
4907.00,1.4299
4906.00,1.4232
4905.00,1.4161
4904.00,1.4085
4903.00,1.4004
4902.00,1.3919
4901.00,1.3830
4900.00,1.3735
4899.00,1.3635
4898.00,1.3530
4897.00,1.3420
4896.00,1.3303
4895.00,1.3180
4894.00,1.3049
4893.00,1.2911
4892.00,1.2767
4891.00,1.2619
4890.00,1.2466
4889.00,1.2309
4888.00,1.2147
4887.00,1.1980
4886.00,1.1809
4885.00,1.1633
4884.00,1.1452
4883.00,1.1266
4882.00,1.1076
4881.00,1.0884
4880.00,1.0689
4879.00,1.0493
4878.00,1.0297
4877.00,1.0100
4876.00,0.9903
4875.00,0.9708
4874.00,0.9516
4873.00,0.9329
4872.00,0.9146
4871.00,0.8968
4870.00,0.8797
4869.00,0.8632
4868.00,0.8476
4867.00,0.8328
4866.00,0.8190
4865.00,0.8063
4864.00,0.7947
4863.00,0.7843
4862.00,0.7753
4861.00,0.7676
4860.00,0.7614
4859.00,0.7567
4858.00,0.7533
4857.00,0.7516
4856.00,0.7513
4855.00,0.7526
4854.00,0.7554
4853.00,0.7597
4852.00,0.7653
4851.00,0.7723
4850.00,0.7806
4849.00,0.7902
4848.00,0.8009
4847.00,0.8126
4846.00,0.8254
4845.00,0.8389
4844.00,0.8534
4843.00,0.8685
4842.00,0.8844
4841.00,0.9009
4840.00,0.9178
4839.00,0.9353
4838.00,0.9531
4837.00,0.9712
4836.00,0.9895
4835.00,1.0080
4834.00,1.0265
4833.00,1.0453
4832.00,1.0640
4831.00,1.0827
4830.00,1.1013
4829.00,1.1197
4828.00,1.1379
4827.00,1.1559
4826.00,1.1738
4825.00,1.1914
4824.00,1.2086
4823.00,1.2254
4822.00,1.2418
4821.00,1.2580
4820.00,1.2738
4819.00,1.2891
4818.00,1.3040
4817.00,1.3183
4816.00,1.3321
4815.00,1.3452
4814.00,1.3578
4813.00,1.3698
4812.00,1.3811
4811.00,1.3919
4810.00,1.4021
4809.00,1.4118
4808.00,1.4209
4807.00,1.4295
4806.00,1.4377
4805.00,1.4455
4804.00,1.4529
4803.00,1.4599
4802.00,1.4664
4801.00,1.4723
4800.00,1.4775
4799.00,1.4821
4798.00,1.4861
4797.00,1.4895
4796.00,1.4924
4795.00,1.4948
4794.00,1.4968
4793.00,1.4984
4792.00,1.4997
4791.00,1.5005
4790.00,1.5010
4789.00,1.5010
4788.00,1.5006
4787.00,1.4996
4786.00,1.4978
4785.00,1.4953
4784.00,1.4924
4783.00,1.4891
4782.00,1.4857
4781.00,1.4821
4780.00,1.4780
4779.00,1.4734
4778.00,1.4682
4777.00,1.4622
4776.00,1.4555
4775.00,1.4481
4774.00,1.4402
4773.00,1.4320
4772.00,1.4236
4771.00,1.4147
4770.00,1.4054
4769.00,1.3953
4768.00,1.3844
4767.00,1.3728
4766.00,1.3607
4765.00,1.3480
4764.00,1.3349
4763.00,1.3212
4762.00,1.3070
4761.00,1.2922
4760.00,1.2768
4759.00,1.2608
4758.00,1.2442
4757.00,1.2271
4756.00,1.2095
4755.00,1.1915
4754.00,1.1730
4753.00,1.1540
4752.00,1.1344
4751.00,1.1145
4750.00,1.0943
4749.00,1.0739
4748.00,1.0534
4747.00,1.0328
4746.00,1.0123
4745.00,0.9919
4744.00,0.9717
4743.00,0.9518
4742.00,0.9323
4741.00,0.9133
4740.00,0.8949
4739.00,0.8771
4738.00,0.8602
4737.00,0.8441
4736.00,0.8291
4735.00,0.8152
4734.00,0.8024
4733.00,0.7909
4732.00,0.7807
4731.00,0.7719
4730.00,0.7647
4729.00,0.7591
4728.00,0.7551
4727.00,0.7527
4726.00,0.7519
4725.00,0.7527
4724.00,0.7552
4723.00,0.7593
4722.00,0.7650
4721.00,0.7722
4720.00,0.7808
4719.00,0.7907
4718.00,0.8019
4717.00,0.8142
4716.00,0.8275
4715.00,0.8418
4714.00,0.8570
4713.00,0.8730
4712.00,0.8897
4711.00,0.9071
4710.00,0.9250
4709.00,0.9434
4708.00,0.9621
4707.00,0.9810
4706.00,1.0002
4705.00,1.0195
4704.00,1.0390
4703.00,1.0587
4702.00,1.0785
4701.00,1.0985
4700.00,1.1183
4699.00,1.1378
4698.00,1.1568
4697.00,1.1756
4696.00,1.1941
4695.00,1.2125
4694.00,1.2308
4693.00,1.2487
4692.00,1.2661
4691.00,1.2829
4690.00,1.2991
4689.00,1.3149
4688.00,1.3301
4687.00,1.3449
4686.00,1.3593
4685.00,1.3731
4684.00,1.3863
4683.00,1.3988
4682.00,1.4107
4681.00,1.4220
4680.00,1.4328
4679.00,1.4430
4678.00,1.4527
4677.00,1.4619
4676.00,1.4707
4675.00,1.4789
4674.00,1.4865
4673.00,1.4934
4672.00,1.4999
4671.00,1.5058
4670.00,1.5111
4669.00,1.5159
4668.00,1.5201
4667.00,1.5240
4666.00,1.5277
4665.00,1.5311
4664.00,1.5340
4663.00,1.5360
4662.00,1.5372
4661.00,1.5376
4660.00,1.5377
4659.00,1.5375
4658.00,1.5371
4657.00,1.5364
4656.00,1.5355
4655.00,1.5342
4654.00,1.5324
4653.00,1.5299
4652.00,1.5266
4651.00,1.5228
4650.00,1.5186
4649.00,1.5141
4648.00,1.5092
4647.00,1.5038
4646.00,1.4976
4645.00,1.4907
4644.00,1.4832
4643.00,1.4752
4642.00,1.4668
4641.00,1.4578
4640.00,1.4484
4639.00,1.4388
4638.00,1.4288
4637.00,1.4183
4636.00,1.4072
4635.00,1.3952
4634.00,1.3824
4633.00,1.3689
4632.00,1.3548
4631.00,1.3401
4630.00,1.3248
4629.00,1.3088
4628.00,1.2922
4627.00,1.2752
4626.00,1.2578
4625.00,1.2399
4624.00,1.2213
4623.00,1.2021
4622.00,1.1824
4621.00,1.1622
4620.00,1.1415
4619.00,1.1206
4618.00,1.0995
4617.00,1.0783
4616.00,1.0569
4615.00,1.0356
4614.00,1.0145
4613.00,0.9935
4612.00,0.9728
4611.00,0.9524
4610.00,0.9326
4609.00,0.9135
4608.00,0.8950
4607.00,0.8774
4606.00,0.8606
4605.00,0.8449
4604.00,0.8303
4603.00,0.8169
4602.00,0.8049
4601.00,0.7943
4600.00,0.7852
4599.00,0.7777
4598.00,0.7718
4597.00,0.7677
4596.00,0.7652
4595.00,0.7646
4594.00,0.7657
4593.00,0.7686
4592.00,0.7731
4591.00,0.7793
4590.00,0.7870
4589.00,0.7962
4588.00,0.8067
4587.00,0.8185
4586.00,0.8316
4585.00,0.8459
4584.00,0.8612
4583.00,0.8774
4582.00,0.8944
4581.00,0.9122
4580.00,0.9305
4579.00,0.9493
4578.00,0.9685
4577.00,0.9881
4576.00,1.0080
4575.00,1.0282
4574.00,1.0487
4573.00,1.0693
4572.00,1.0899
4571.00,1.1104
4570.00,1.1307
4569.00,1.1508
4568.00,1.1709
4567.00,1.1909
4566.00,1.2106
4565.00,1.2299
4564.00,1.2486
4563.00,1.2669
4562.00,1.2847
4561.00,1.3021
4560.00,1.3191
4559.00,1.3357
4558.00,1.3518
4557.00,1.3674
4556.00,1.3825
4555.00,1.3969
4554.00,1.4105
4553.00,1.4235
4552.00,1.4359
4551.00,1.4478
4550.00,1.4592
4549.00,1.4700
4548.00,1.4801
4547.00,1.4895
4546.00,1.4982
4545.00,1.5063
4544.00,1.5139
4543.00,1.5212
4542.00,1.5283
4541.00,1.5351
4540.00,1.5413
4539.00,1.5467
4538.00,1.5515
4537.00,1.5555
4536.00,1.5590
4535.00,1.5620
4534.00,1.5644
4533.00,1.5663
4532.00,1.5676
4531.00,1.5687
4530.00,1.5696
4529.00,1.5701
4528.00,1.5702
4527.00,1.5696
4526.00,1.5685
4525.00,1.5669
4524.00,1.5649
4523.00,1.5623
4522.00,1.5590
4521.00,1.5551
4520.00,1.5507
4519.00,1.5461
4518.00,1.5411
4517.00,1.5356
4516.00,1.5294
4515.00,1.5226
4514.00,1.5154
4513.00,1.5079
4512.00,1.4998
4511.00,1.4910
4510.00,1.4813
4509.00,1.4709
4508.00,1.4601
4507.00,1.4488
4506.00,1.4372
4505.00,1.4250
4504.00,1.4122
4503.00,1.3986
4502.00,1.3843
4501.00,1.3693
4500.00,1.3535
4499.00,1.3370
4498.00,1.3200
4497.00,1.3024
4496.00,1.2841
4495.00,1.2651
4494.00,1.2455
4493.00,1.2254
4492.00,1.2047
4491.00,1.1837
4490.00,1.1622
4489.00,1.1403
4488.00,1.1180
4487.00,1.0955
4486.00,1.0727
4485.00,1.0499
4484.00,1.0271
4483.00,1.0045
4482.00,0.9823
4481.00,0.9606
4480.00,0.9394
4479.00,0.9188
4478.00,0.8991
4477.00,0.8802
4476.00,0.8622
4475.00,0.8454
4474.00,0.8299
4473.00,0.8157
4472.00,0.8031
4471.00,0.7920
4470.00,0.7827
4469.00,0.7751
4468.00,0.7694
4467.00,0.7655
4466.00,0.7636
4465.00,0.7636
4464.00,0.7654
4463.00,0.7692
4462.00,0.7748
4461.00,0.7821
4460.00,0.7912
4459.00,0.8018
4458.00,0.8139
4457.00,0.8274
4456.00,0.8421
4455.00,0.8580
4454.00,0.8749
4453.00,0.8927
4452.00,0.9114
4451.00,0.9308
4450.00,0.9508
4449.00,0.9713
4448.00,0.9921
4447.00,1.0133
4446.00,1.0347
4445.00,1.0564
4444.00,1.0782
4443.00,1.1001
4442.00,1.1220
4441.00,1.1437
4440.00,1.1652
4439.00,1.1864
4438.00,1.2073
4437.00,1.2281
4436.00,1.2486
4435.00,1.2687
4434.00,1.2885
4433.00,1.3077
4432.00,1.3264
4431.00,1.3445
4430.00,1.3620
4429.00,1.3790
4428.00,1.3953
4427.00,1.4110
4426.00,1.4262
4425.00,1.4408
4424.00,1.4548
4423.00,1.4683
4422.00,1.4810
4421.00,1.4930
4420.00,1.5044
4419.00,1.5151
4418.00,1.5252
4417.00,1.5347
4416.00,1.5437
4415.00,1.5522
4414.00,1.5601
4413.00,1.5674
4412.00,1.5743
4411.00,1.5807
4410.00,1.5867
4409.00,1.5924
4408.00,1.5974
4407.00,1.6018
4406.00,1.6054
4405.00,1.6083
4404.00,1.6107
4403.00,1.6128
4402.00,1.6146
4401.00,1.6161
4400.00,1.6173
4399.00,1.6179
4398.00,1.6179
4397.00,1.6172
4396.00,1.6159
4395.00,1.6144
4394.00,1.6125
4393.00,1.6103
4392.00,1.6075
4391.00,1.6041
4390.00,1.6001
4389.00,1.5957
4388.00,1.5910
4387.00,1.5861
4386.00,1.5808
4385.00,1.5748
4384.00,1.5680
4383.00,1.5606
4382.00,1.5528
4381.00,1.5446
4380.00,1.5362
4379.00,1.5273
4378.00,1.5180
4377.00,1.5081
4376.00,1.4975
4375.00,1.4862
4374.00,1.4745
4373.00,1.4622
4372.00,1.4496
4371.00,1.4364
4370.00,1.4226
4369.00,1.4081
4368.00,1.3931
4367.00,1.3776
4366.00,1.3616
4365.00,1.3449
4364.00,1.3277
4363.00,1.3098
4362.00,1.2914
4361.00,1.2723
4360.00,1.2527
4359.00,1.2327
4358.00,1.2123
4357.00,1.1915
4356.00,1.1704
4355.00,1.1491
4354.00,1.1277
4353.00,1.1062
4352.00,1.0849
4351.00,1.0637
4350.00,1.0427
4349.00,1.0223
4348.00,1.0023
4347.00,0.9829
4346.00,0.9643
4345.00,0.9464
4344.00,0.9293
4343.00,0.9132
4342.00,0.8983
4341.00,0.8847
4340.00,0.8724
4339.00,0.8616
4338.00,0.8524
4337.00,0.8448
4336.00,0.8391
4335.00,0.8352
4334.00,0.8333
4333.00,0.8334
4332.00,0.8355
4331.00,0.8396
4330.00,0.8457
4329.00,0.8537
4328.00,0.8635
4327.00,0.8748
4326.00,0.8877
4325.00,0.9019
4324.00,0.9174
4323.00,0.9341
4322.00,0.9517
4321.00,0.9703
4320.00,0.9896
4319.00,1.0094
4318.00,1.0298
4317.00,1.0505
4316.00,1.0715
4315.00,1.0928
4314.00,1.1142
4313.00,1.1358
4312.00,1.1573
4311.00,1.1787
4310.00,1.2000
4309.00,1.2211
4308.00,1.2422
4307.00,1.2630
4306.00,1.2834
4305.00,1.3035
4304.00,1.3233
4303.00,1.3425
4302.00,1.3614
4301.00,1.3796
4300.00,1.3974
4299.00,1.4147
4298.00,1.4314
4297.00,1.4476
4296.00,1.4629
4295.00,1.4775
4294.00,1.4915
4293.00,1.5050
4292.00,1.5182
4291.00,1.5309
4290.00,1.5430
4289.00,1.5542
4288.00,1.5646
4287.00,1.5743
4286.00,1.5835
4285.00,1.5922
4284.00,1.6006
4283.00,1.6085
4282.00,1.6158
4281.00,1.6225
4280.00,1.6285
4279.00,1.6338
4278.00,1.6386
4277.00,1.6430
4276.00,1.6472
4275.00,1.6510
4274.00,1.6543
4273.00,1.6570
4272.00,1.6592
4271.00,1.6610
4270.00,1.6625
4269.00,1.6635
4268.00,1.6640
4267.00,1.6638
4266.00,1.6630
4265.00,1.6616
4264.00,1.6597
4263.00,1.6576
4262.00,1.6551
4261.00,1.6521
4260.00,1.6486
4259.00,1.6445
4258.00,1.6400
4257.00,1.6352
4256.00,1.6300
4255.00,1.6241
4254.00,1.6172
4253.00,1.6096
4252.00,1.6013
4251.00,1.5927
4250.00,1.5837
4249.00,1.5742
4248.00,1.5641
4247.00,1.5534
4246.00,1.5423
4245.00,1.5305
4244.00,1.5182
4243.00,1.5052
4242.00,1.4915
4241.00,1.4772
4240.00,1.4622
4239.00,1.4465
4238.00,1.4299
4237.00,1.4127
4236.00,1.3949
4235.00,1.3765
4234.00,1.3574
4233.00,1.3378
4232.00,1.3177
4231.00,1.2972
4230.00,1.2763
4229.00,1.2550
4228.00,1.2331
4227.00,1.2108
4226.00,1.1882
4225.00,1.1656
4224.00,1.1429
4223.00,1.1202
4222.00,1.0976
4221.00,1.0753
4220.00,1.0533
4219.00,1.0318
4218.00,1.0107
4217.00,0.9902
4216.00,0.9704
4215.00,0.9514
4214.00,0.9333
4213.00,0.9165
4212.00,0.9009
4211.00,0.8868
4210.00,0.8741
4209.00,0.8631
4208.00,0.8538
4207.00,0.8463
4206.00,0.8406
4205.00,0.8370
4204.00,0.8354
4203.00,0.8358
4202.00,0.8383
4201.00,0.8428
4200.00,0.8492
4199.00,0.8576
4198.00,0.8679
4197.00,0.8799
4196.00,0.8934
4195.00,0.9084
4194.00,0.9245
4193.00,0.9418
4192.00,0.9601
4191.00,0.9794
4190.00,0.9995
4189.00,1.0202
4188.00,1.0415
4187.00,1.0632
4186.00,1.0853
4185.00,1.1077
4184.00,1.1303
4183.00,1.1530
4182.00,1.1756
4181.00,1.1981
4180.00,1.2203
4179.00,1.2423
4178.00,1.2643
4177.00,1.2861
4176.00,1.3077
4175.00,1.3288
4174.00,1.3495
4173.00,1.3696
4172.00,1.3892
4171.00,1.4082
4170.00,1.4267
4169.00,1.4445
4168.00,1.4616
4167.00,1.4782
4166.00,1.4942
4165.00,1.5097
4164.00,1.5245
4163.00,1.5386
4162.00,1.5521
4161.00,1.5651
4160.00,1.5774
4159.00,1.5892
4158.00,1.6003
4157.00,1.6107
4156.00,1.6205
4155.00,1.6296
4154.00,1.6382
4153.00,1.6464
4152.00,1.6542
4151.00,1.6614
4150.00,1.6680
4149.00,1.6740
4148.00,1.6796
4147.00,1.6850
4146.00,1.6899
4145.00,1.6941
4144.00,1.6975
4143.00,1.7001
4142.00,1.7024
4141.00,1.7045
4140.00,1.7064
4139.00,1.7078
4138.00,1.7087
4137.00,1.7088
4136.00,1.7083
4135.00,1.7072
4134.00,1.7057
4133.00,1.7040
4132.00,1.7021
4131.00,1.7000
4130.00,1.6976
4129.00,1.6945
4128.00,1.6906
4127.00,1.6857
4126.00,1.6800
4125.00,1.6738
4124.00,1.6672
4123.00,1.6604
4122.00,1.6533
4121.00,1.6455
4120.00,1.6370
4119.00,1.6277
4118.00,1.6178
4117.00,1.6075
4116.00,1.5969
4115.00,1.5857
4114.00,1.5738
4113.00,1.5611
4112.00,1.5478
4111.00,1.5339
4110.00,1.5194
4109.00,1.5041
4108.00,1.4880
4107.00,1.4713
4106.00,1.4539
4105.00,1.4357
4104.00,1.4167
4103.00,1.3969
4102.00,1.3762
4101.00,1.3550
4100.00,1.3331
4099.00,1.3107
4098.00,1.2876
4097.00,1.2639
4096.00,1.2397
4095.00,1.2150
4094.00,1.1902
4093.00,1.1654
4092.00,1.1405
4091.00,1.1156
4090.00,1.0908
4089.00,1.0664
4088.00,1.0423
4087.00,1.0189
4086.00,0.9964
4085.00,0.9748
4084.00,0.9544
4083.00,0.9352
4082.00,0.9174
4081.00,0.9011
4080.00,0.8865
4079.00,0.8736
4078.00,0.8627
4077.00,0.8537
4076.00,0.8470
4075.00,0.8424
4074.00,0.8400
4073.00,0.8399
4072.00,0.8420
4071.00,0.8463
4070.00,0.8528
4069.00,0.8614
4068.00,0.8721
4067.00,0.8846
4066.00,0.8989
4065.00,0.9147
4064.00,0.9320
4063.00,0.9506
4062.00,0.9704
4061.00,0.9912
4060.00,1.0129
4059.00,1.0354
4058.00,1.0584
4057.00,1.0820
4056.00,1.1060
4055.00,1.1302
4054.00,1.1545
4053.00,1.1789
4052.00,1.2033
4051.00,1.2277
4050.00,1.2519
4049.00,1.2759
4048.00,1.2996
4047.00,1.3228
4046.00,1.3455
4045.00,1.3676
4044.00,1.3891
4043.00,1.4099
4042.00,1.4303
4041.00,1.4501
4040.00,1.4695
4039.00,1.4882
4038.00,1.5063
4037.00,1.5233
4036.00,1.5395
4035.00,1.5548
4034.00,1.5696
4033.00,1.5838
4032.00,1.5974
4031.00,1.6103
4030.00,1.6228
4029.00,1.6348
4028.00,1.6464
4027.00,1.6573
4026.00,1.6676
4025.00,1.6771
4024.00,1.6862
4023.00,1.6949
4022.00,1.7029
4021.00,1.7101
4020.00,1.7165
4019.00,1.7223
4018.00,1.7277
4017.00,1.7326
4016.00,1.7369
4015.00,1.7406
4014.00,1.7437
4013.00,1.7467
4012.00,1.7494
4011.00,1.7516
4010.00,1.7530
4009.00,1.7534
4008.00,1.7533
4007.00,1.7528
4006.00,1.7521
4005.00,1.7512
4004.00,1.7499
4003.00,1.7482
4002.00,1.7460
4001.00,1.7430
4000.00,1.7391
3999.00,1.7346
3998.00,1.7297
3997.00,1.7245
3996.00,1.7189
3995.00,1.7129
3994.00,1.7062
3993.00,1.6989
3992.00,1.6909
3991.00,1.6821
3990.00,1.6726
3989.00,1.6623
3988.00,1.6516
3987.00,1.6406
3986.00,1.6292
3985.00,1.6174
3984.00,1.6048
3983.00,1.5912
3982.00,1.5767
3981.00,1.5617
3980.00,1.5463
3979.00,1.5304
3978.00,1.5138
3977.00,1.4965
3976.00,1.4785
3975.00,1.4600
3974.00,1.4408
3973.00,1.4209
3972.00,1.4003
3971.00,1.3789
3970.00,1.3568
3969.00,1.3340
3968.00,1.3107
3967.00,1.2868
3966.00,1.2626
3965.00,1.2380
3964.00,1.2129
3963.00,1.1874
3962.00,1.1619
3961.00,1.1365
3960.00,1.1115
3959.00,1.0870
3958.00,1.0630
3957.00,1.0396
3956.00,1.0171
3955.00,0.9957
3954.00,0.9756
3953.00,0.9568
3952.00,0.9394
3951.00,0.9234
3950.00,0.9089
3949.00,0.8960
3948.00,0.8849
3947.00,0.8760
3946.00,0.8694
3945.00,0.8652
3944.00,0.8632
3943.00,0.8633
3942.00,0.8657
3941.00,0.8703
3940.00,0.8773
3939.00,0.8863
3938.00,0.8973
3937.00,0.9102
3936.00,0.9248
3935.00,0.9409
3934.00,0.9587
3933.00,0.9779
3932.00,0.9985
3931.00,1.0203
3930.00,1.0430
3929.00,1.0662
3928.00,1.0899
3927.00,1.1140
3926.00,1.1383
3925.00,1.1628
3924.00,1.1876
3923.00,1.2125
3922.00,1.2374
3921.00,1.2621
3920.00,1.2868
3919.00,1.3114
3918.00,1.3360
3917.00,1.3605
3916.00,1.3850
3915.00,1.4092
3914.00,1.4328
3913.00,1.4555
3912.00,1.4772
3911.00,1.4979
3910.00,1.5175
3909.00,1.5359
3908.00,1.5532
3907.00,1.5693
3906.00,1.5845
3905.00,1.5991
3904.00,1.6135
3903.00,1.6280
3902.00,1.6426
3901.00,1.6569
3900.00,1.6709
3899.00,1.6844
3898.00,1.6975
3897.00,1.7096
3896.00,1.7203
3895.00,1.7298
3894.00,1.7383
3893.00,1.7461
3892.00,1.7531
3891.00,1.7595
3890.00,1.7656
3889.00,1.7714
3888.00,1.7770
3887.00,1.7821
3886.00,1.7867
3885.00,1.7908
3884.00,1.7946
3883.00,1.7979
3882.00,1.8003
3881.00,1.8016
3880.00,1.8025
3879.00,1.8034
3878.00,1.8046
3877.00,1.8055
3876.00,1.8054
3875.00,1.8038
3874.00,1.8011
3873.00,1.7983
3872.00,1.7954
3871.00,1.7918
3870.00,1.7868
3869.00,1.7814
3868.00,1.7763
3867.00,1.7716
3866.00,1.7664
3865.00,1.7599
3864.00,1.7524
3863.00,1.7445
3862.00,1.7365
3861.00,1.7284
3860.00,1.7196
3859.00,1.7095
3858.00,1.6981
3857.00,1.6861
3856.00,1.6742
3855.00,1.6621
3854.00,1.6478
3853.00,1.6309
3852.00,1.6132
3851.00,1.5962
3850.00,1.5803
3849.00,1.5649
3848.00,1.5492
3847.00,1.5328
3846.00,1.5149
3845.00,1.4952
3844.00,1.4733
3843.00,1.4499
3842.00,1.4256
3841.00,1.4009
3840.00,1.3752
3839.00,1.3477
3838.00,1.3181
3837.00,1.2871
3836.00,1.2561
3835.00,1.2262
3834.00,1.1972
3833.00,1.1684
3832.00,1.1394
3831.00,1.1105
3830.00,1.0822
3829.00,1.0550
3828.00,1.0282
3827.00,1.0014
3826.00,0.9748
3825.00,0.9500
3824.00,0.9280
3823.00,0.9087
3822.00,0.8904
3821.00,0.8727
3820.00,0.8574
3819.00,0.8461
3818.00,0.8389
3817.00,0.8349
3816.00,0.8336
3815.00,0.8349
3814.00,0.8391
3813.00,0.8457
3812.00,0.8545
3811.00,0.8658
3810.00,0.8797
3809.00,0.8961
3808.00,0.9149
3807.00,0.9357
3806.00,0.9581
3805.00,0.9812
3804.00,1.0047
3803.00,1.0288
3802.00,1.0545
3801.00,1.0829
3800.00,1.1132
3799.00,1.1435
3798.00,1.1725
3797.00,1.2006
3796.00,1.2291
3795.00,1.2584
3794.00,1.2877
3793.00,1.3161
3792.00,1.3436
3791.00,1.3704
3790.00,1.3966
3789.00,1.4223
3788.00,1.4477
3787.00,1.4725
3786.00,1.4962
3785.00,1.5187
3784.00,1.5402
3783.00,1.5609
3782.00,1.5810
3781.00,1.6003
3780.00,1.6190
3779.00,1.6371
3778.00,1.6546
3777.00,1.6714
3776.00,1.6870
3775.00,1.7014
3774.00,1.7146
3773.00,1.7269
3772.00,1.7384
3771.00,1.7491
3770.00,1.7594
3769.00,1.7697
3768.00,1.7801
3767.00,1.7900
3766.00,1.7988
3765.00,1.8067
3764.00,1.8139
3763.00,1.8207
3762.00,1.8270
3761.00,1.8329
3760.00,1.8387
3759.00,1.8444
3758.00,1.8500
3757.00,1.8556
3756.00,1.8613
3755.00,1.8674
3754.00,1.8737
3753.00,1.8801
3752.00,1.8863
3751.00,1.8923
3750.00,1.8985
3749.00,1.9051
3748.00,1.9122
3747.00,1.9200
3746.00,1.9277
3745.00,1.9345
3744.00,1.9405
3743.00,1.9460
3742.00,1.9502
3741.00,1.9519
3740.00,1.9507
3739.00,1.9468
3738.00,1.9400
3737.00,1.9296
3736.00,1.9151
3735.00,1.8973
3734.00,1.8776
3733.00,1.8562
3732.00,1.8329
3731.00,1.8091
3730.00,1.7872
3729.00,1.7685
3728.00,1.7525
3727.00,1.7380
3726.00,1.7247
3725.00,1.7133
3724.00,1.7043
3723.00,1.6966
3722.00,1.6887
3721.00,1.6790
3720.00,1.6668
3719.00,1.6520
3718.00,1.6342
3717.00,1.6137
3716.00,1.5907
3715.00,1.5658
3714.00,1.5388
3713.00,1.5090
3712.00,1.4758
3711.00,1.4401
3710.00,1.4034
3709.00,1.3669
3708.00,1.3307
3707.00,1.2949
3706.00,1.2596
3705.00,1.2250
3704.00,1.1910
3703.00,1.1575
3702.00,1.1245
3701.00,1.0928
3700.00,1.0634
3699.00,1.0373
3698.00,1.0143
3697.00,0.9943
3696.00,0.9774
3695.00,0.9639
3694.00,0.9540
3693.00,0.9479
3692.00,0.9457
3691.00,0.9472
3690.00,0.9522
3689.00,0.9605
3688.00,0.9723
3687.00,0.9869
3686.00,1.0036
3685.00,1.0218
3684.00,1.0417
3683.00,1.0634
3682.00,1.0864
3681.00,1.1099
3680.00,1.1335
3679.00,1.1572
3678.00,1.1818
3677.00,1.2078
3676.00,1.2356
3675.00,1.2658
3674.00,1.2974
3673.00,1.3281
3672.00,1.3572
3671.00,1.3856
3670.00,1.4147
3669.00,1.4452
3668.00,1.4760
3667.00,1.5057
3666.00,1.5334
3665.00,1.5594
3664.00,1.5844
3663.00,1.6084
3662.00,1.6313
3661.00,1.6529
3660.00,1.6735
3659.00,1.6933
3658.00,1.7126
3657.00,1.7315
3656.00,1.7503
3655.00,1.7689
3654.00,1.7866
3653.00,1.8035
3652.00,1.8204
3651.00,1.8377
3650.00,1.8553
3649.00,1.8734
3648.00,1.8922
3647.00,1.9116
3646.00,1.9309
3645.00,1.9497
3644.00,1.9679
3643.00,1.9851
3642.00,2.0006
3641.00,2.0143
3640.00,2.0262
3639.00,2.0366
3638.00,2.0452
3637.00,2.0521
3636.00,2.0569
3635.00,2.0594
3634.00,2.0590
3633.00,2.0560
3632.00,2.0513
3631.00,2.0457
3630.00,2.0391
3629.00,2.0320
3628.00,2.0262
3627.00,2.0225
3626.00,2.0206
3625.00,2.0197
3624.00,2.0199
3623.00,2.0216
3622.00,2.0253
3621.00,2.0307
3620.00,2.0367
3619.00,2.0420
3618.00,2.0459
3617.00,2.0482
3616.00,2.0490
3615.00,2.0479
3614.00,2.0448
3613.00,2.0402
3612.00,2.0350
3611.00,2.0300
3610.00,2.0247
3609.00,2.0184
3608.00,2.0106
3607.00,2.0017
3606.00,1.9922
3605.00,1.9823
3604.00,1.9723
3603.00,1.9620
3602.00,1.9512
3601.00,1.9396
3600.00,1.9270
3599.00,1.9137
3598.00,1.9001
3597.00,1.8865
3596.00,1.8729
3595.00,1.8590
3594.00,1.8448
3593.00,1.8304
3592.00,1.8161
3591.00,1.8021
3590.00,1.7884
3589.00,1.7746
3588.00,1.7602
3587.00,1.7455
3586.00,1.7310
3585.00,1.7170
3584.00,1.7035
3583.00,1.6901
3582.00,1.6769
3581.00,1.6638
3580.00,1.6506
3579.00,1.6374
3578.00,1.6241
3577.00,1.6109
3576.00,1.5980
3575.00,1.5856
3574.00,1.5736
3573.00,1.5622
3572.00,1.5514
3571.00,1.5414
3570.00,1.5324
3569.00,1.5242
3568.00,1.5165
3567.00,1.5093
3566.00,1.5033
3565.00,1.4988
3564.00,1.4957
3563.00,1.4940
3562.00,1.4933
3561.00,1.4939
3560.00,1.4957
3559.00,1.4985
3558.00,1.5022
3557.00,1.5067
3556.00,1.5122
3555.00,1.5188
3554.00,1.5266
3553.00,1.5352
3552.00,1.5445
3551.00,1.5544
3550.00,1.5647
3549.00,1.5757
3548.00,1.5875
3547.00,1.6002
3546.00,1.6133
3545.00,1.6267
3544.00,1.6402
3543.00,1.6541
3542.00,1.6681
3541.00,1.6824
3540.00,1.6968
3539.00,1.7113
3538.00,1.7260
3537.00,1.7407
3536.00,1.7552
3535.00,1.7696
3534.00,1.7839
3533.00,1.7981
3532.00,1.8122
3531.00,1.8259
3530.00,1.8391
3529.00,1.8521
3528.00,1.8650
3527.00,1.8778
3526.00,1.8904
3525.00,1.9025
3524.00,1.9143
3523.00,1.9260
3522.00,1.9375
3521.00,1.9489
3520.00,1.9598
3519.00,1.9703
3518.00,1.9800
3517.00,1.9892
3516.00,1.9980
3515.00,2.0066
3514.00,2.0149
3513.00,2.0228
3512.00,2.0303
3511.00,2.0375
3510.00,2.0444
3509.00,2.0512
3508.00,2.0579
3507.00,2.0643
3506.00,2.0702
3505.00,2.0756
3504.00,2.0804
3503.00,2.0848
3502.00,2.0892
3501.00,2.0936
3500.00,2.0981
3499.00,2.1021
3498.00,2.1053
3497.00,2.1078
3496.00,2.1101
3495.00,2.1123
3494.00,2.1144
3493.00,2.1162
3492.00,2.1177
3491.00,2.1190
3490.00,2.1201
3489.00,2.1208
3488.00,2.1210
3487.00,2.1206
3486.00,2.1197
3485.00,2.1184
3484.00,2.1172
3483.00,2.1158
3482.00,2.1139
3481.00,2.1113
3480.00,2.1084
3479.00,2.1055
3478.00,2.1024
3477.00,2.0987
3476.00,2.0942
3475.00,2.0890
3474.00,2.0834
3473.00,2.0779
3472.00,2.0724
3471.00,2.0666
3470.00,2.0601
3469.00,2.0530
3468.00,2.0456
3467.00,2.0378
3466.00,2.0296
3465.00,2.0210
3464.00,2.0120
3463.00,2.0031
3462.00,1.9942
3461.00,1.9851
3460.00,1.9753
3459.00,1.9645
3458.00,1.9528
3457.00,1.9407
3456.00,1.9284
3455.00,1.9157
3454.00,1.9024
3453.00,1.8888
3452.00,1.8752
3451.00,1.8616
3450.00,1.8479
3449.00,1.8336
3448.00,1.8185
3447.00,1.8030
3446.00,1.7874
3445.00,1.7720
3444.00,1.7565
3443.00,1.7408
3442.00,1.7251
3441.00,1.7097
3440.00,1.6951
3439.00,1.6810
3438.00,1.6673
3437.00,1.6539
3436.00,1.6410
3435.00,1.6288
3434.00,1.6174
3433.00,1.6068
3432.00,1.5972
3431.00,1.5887
3430.00,1.5811
3429.00,1.5748
3428.00,1.5698
3427.00,1.5662
3426.00,1.5640
3425.00,1.5632
3424.00,1.5640
3423.00,1.5663
3422.00,1.5700
3421.00,1.5750
3420.00,1.5811
3419.00,1.5884
3418.00,1.5969
3417.00,1.6064
3416.00,1.6167
3415.00,1.6274
3414.00,1.6385
3413.00,1.6499
3412.00,1.6616
3411.00,1.6735
3410.00,1.6852
3409.00,1.6968
3408.00,1.7080
3407.00,1.7188
3406.00,1.7292
3405.00,1.7392
3404.00,1.7485
3403.00,1.7572
3402.00,1.7655
3401.00,1.7738
3400.00,1.7824
3399.00,1.7913
3398.00,1.8005
3397.00,1.8098
3396.00,1.8194
3395.00,1.8291
3394.00,1.8391
3393.00,1.8494
3392.00,1.8601
3391.00,1.8709
3390.00,1.8816
3389.00,1.8923
3388.00,1.9033
3387.00,1.9149
3386.00,1.9270
3385.00,1.9393
3384.00,1.9512
3383.00,1.9625
3382.00,1.9731
3381.00,1.9834
3380.00,1.9935
3379.00,2.0035
3378.00,2.0134
3377.00,2.0229
3376.00,2.0317
3375.00,2.0399
3374.00,2.0476
3373.00,2.0553
3372.00,2.0632
3371.00,2.0709
3370.00,2.0782
3369.00,2.0848
3368.00,2.0906
3367.00,2.0957
3366.00,2.1003
3365.00,2.1049
3364.00,2.1093
3363.00,2.1133
3362.00,2.1166
3361.00,2.1193
3360.00,2.1218
3359.00,2.1237
3358.00,2.1249
3357.00,2.1256
3356.00,2.1264
3355.00,2.1274
3354.00,2.1280
3353.00,2.1277
3352.00,2.1263
3351.00,2.1240
3350.00,2.1213
3349.00,2.1187
3348.00,2.1162
3347.00,2.1132
3346.00,2.1091
3345.00,2.1040
3344.00,2.0985
3343.00,2.0927
3342.00,2.0866
3341.00,2.0800
3340.00,2.0730
3339.00,2.0659
3338.00,2.0584
3337.00,2.0503
3336.00,2.0414
3335.00,2.0316
3334.00,2.0211
3333.00,2.0102
3332.00,1.9992
3331.00,1.9880
3330.00,1.9766
3329.00,1.9646
3328.00,1.9517
3327.00,1.9379
3326.00,1.9233
3325.00,1.9081
3324.00,1.8925
3323.00,1.8761
3322.00,1.8590
3321.00,1.8415
3320.00,1.8238
3319.00,1.8060
3318.00,1.7877
3317.00,1.7690
3316.00,1.7499
3315.00,1.7307
3314.00,1.7112
3313.00,1.6917
3312.00,1.6721
3311.00,1.6526
3310.00,1.6333
3309.00,1.6143
3308.00,1.5955
3307.00,1.5772
3306.00,1.5593
3305.00,1.5422
3304.00,1.5259
3303.00,1.5108
3302.00,1.4970
3301.00,1.4846
3300.00,1.4736
3299.00,1.4640
3298.00,1.4558
3297.00,1.4492
3296.00,1.4444
3295.00,1.4415
3294.00,1.4405
3293.00,1.4413
3292.00,1.4438
3291.00,1.4479
3290.00,1.4537
3289.00,1.4611
3288.00,1.4701
3287.00,1.4805
3286.00,1.4922
3285.00,1.5052
3284.00,1.5195
3283.00,1.5350
3282.00,1.5514
3281.00,1.5686
3280.00,1.5865
3279.00,1.6050
3278.00,1.6239
3277.00,1.6430
3276.00,1.6623
3275.00,1.6820
3274.00,1.7018
3273.00,1.7217
3272.00,1.7415
3271.00,1.7610
3270.00,1.7803
3269.00,1.7993
3268.00,1.8182
3267.00,1.8366
3266.00,1.8546
3265.00,1.8723
3264.00,1.8895
3263.00,1.9061
3262.00,1.9221
3261.00,1.9375
3260.00,1.9528
3259.00,1.9678
3258.00,1.9826
3257.00,1.9970
3256.00,2.0110
3255.00,2.0246
3254.00,2.0373
3253.00,2.0492
3252.00,2.0602
3251.00,2.0704
3250.00,2.0802
3249.00,2.0896
3248.00,2.0988
3247.00,2.1078
3246.00,2.1163
3245.00,2.1241
3244.00,2.1312
3243.00,2.1378
3242.00,2.1442
3241.00,2.1503
3240.00,2.1558
3239.00,2.1604
3238.00,2.1641
3237.00,2.1675
3236.00,2.1712
3235.00,2.1751
3234.00,2.1788
3233.00,2.1818
3232.00,2.1840
3231.00,2.1855
3230.00,2.1868
3229.00,2.1879
3228.00,2.1888
3227.00,2.1891
3226.00,2.1887
3225.00,2.1876
3224.00,2.1855
3223.00,2.1826
3222.00,2.1794
3221.00,2.1765
3220.00,2.1739
3219.00,2.1709
3218.00,2.1665
3217.00,2.1606
3216.00,2.1538
3215.00,2.1468
3214.00,2.1402
3213.00,2.1343
3212.00,2.1286
3211.00,2.1227
3210.00,2.1157
3209.00,2.1075
3208.00,2.0981
3207.00,2.0878
3206.00,2.0770
3205.00,2.0659
3204.00,2.0549
3203.00,2.0435
3202.00,2.0315
3201.00,2.0189
3200.00,2.0062
3199.00,1.9932
3198.00,1.9798
3197.00,1.9657
3196.00,1.9510
3195.00,1.9357
3194.00,1.9199
3193.00,1.9035
3192.00,1.8865
3191.00,1.8690
3190.00,1.8513
3189.00,1.8336
3188.00,1.8159
3187.00,1.7979
3186.00,1.7796
3185.00,1.7609
3184.00,1.7423
3183.00,1.7240
3182.00,1.7062
3181.00,1.6890
3180.00,1.6724
3179.00,1.6562
3178.00,1.6403
3177.00,1.6249
3176.00,1.6105
3175.00,1.5975
3174.00,1.5858
3173.00,1.5754
3172.00,1.5663
3171.00,1.5585
3170.00,1.5523
3169.00,1.5477
3168.00,1.5448
3167.00,1.5435
3166.00,1.5436
3165.00,1.5452
3164.00,1.5485
3163.00,1.5535
3162.00,1.5600
3161.00,1.5680
3160.00,1.5773
3159.00,1.5879
3158.00,1.5997
3157.00,1.6127
3156.00,1.6272
3155.00,1.6427
3154.00,1.6591
3153.00,1.6760
3152.00,1.6933
3151.00,1.7110
3150.00,1.7291
3149.00,1.7477
3148.00,1.7667
3147.00,1.7860
3146.00,1.8054
3145.00,1.8245
3144.00,1.8431
3143.00,1.8614
3142.00,1.8795
3141.00,1.8977
3140.00,1.9159
3139.00,1.9336
3138.00,1.9507
3137.00,1.9673
3136.00,1.9835
3135.00,1.9994
3134.00,2.0146
3133.00,2.0292
3132.00,2.0434
3131.00,2.0572
3130.00,2.0704
3129.00,2.0828
3128.00,2.0943
3127.00,2.1049
3126.00,2.1152
3125.00,2.1254
3124.00,2.1359
3123.00,2.1466
3122.00,2.1575
3121.00,2.1681
3120.00,2.1780
3119.00,2.1867
3118.00,2.1942
3117.00,2.2010
3116.00,2.2072
3115.00,2.2125
3114.00,2.2167
3113.00,2.2201
3112.00,2.2238
3111.00,2.2282
3110.00,2.2330
3109.00,2.2372
3108.00,2.2400
3107.00,2.2415
3106.00,2.2426
3105.00,2.2435
3104.00,2.2443
3103.00,2.2444
3102.00,2.2435
3101.00,2.2419
3100.00,2.2399
3099.00,2.2379
3098.00,2.2356
3097.00,2.2331
3096.00,2.2301
3095.00,2.2264
3094.00,2.2218
3093.00,2.2163
3092.00,2.2100
3091.00,2.2032
3090.00,2.1958
3089.00,2.1877
3088.00,2.1791
3087.00,2.1698
3086.00,2.1599
3085.00,2.1497
3084.00,2.1393
3083.00,2.1286
3082.00,2.1171
3081.00,2.1046
3080.00,2.0907
3079.00,2.0759
3078.00,2.0605
3077.00,2.0448
3076.00,2.0287
3075.00,2.0117
3074.00,1.9937
3073.00,1.9749
3072.00,1.9554
3071.00,1.9354
3070.00,1.9150
3069.00,1.8946
3068.00,1.8743
3067.00,1.8540
3066.00,1.8335
3065.00,1.8129
3064.00,1.7924
3063.00,1.7725
3062.00,1.7533
3061.00,1.7349
3060.00,1.7171
3059.00,1.7003
3058.00,1.6846
3057.00,1.6702
3056.00,1.6573
3055.00,1.6459
3054.00,1.6363
3053.00,1.6283
3052.00,1.6222
3051.00,1.6181
3050.00,1.6163
3049.00,1.6167
3048.00,1.6195
3047.00,1.6245
3046.00,1.6317
3045.00,1.6411
3044.00,1.6527
3043.00,1.6665
3042.00,1.6822
3041.00,1.6996
3040.00,1.7189
3039.00,1.7398
3038.00,1.7620
3037.00,1.7851
3036.00,1.8089
3035.00,1.8333
3034.00,1.8581
3033.00,1.8831
3032.00,1.9084
3031.00,1.9336
3030.00,1.9585
3029.00,1.9830
3028.00,2.0069
3027.00,2.0305
3026.00,2.0539
3025.00,2.0765
3024.00,2.0982
3023.00,2.1186
3022.00,2.1378
3021.00,2.1564
3020.00,2.1746
3019.00,2.1922
3018.00,2.2087
3017.00,2.2234
3016.00,2.2366
3015.00,2.2493
3014.00,2.2620
3013.00,2.2745
3012.00,2.2863
3011.00,2.2968
3010.00,2.3061
3009.00,2.3143
3008.00,2.3211
3007.00,2.3267
3006.00,2.3312
3005.00,2.3349
3004.00,2.3378
3003.00,2.3400
3002.00,2.3409
3001.00,2.3403
3000.00,2.3378
2999.00,2.3338
2998.00,2.3290
2997.00,2.3238
2996.00,2.3177
2995.00,2.3099
2994.00,2.3004
2993.00,2.2898
2992.00,2.2790
2991.00,2.2680
2990.00,2.2571
2989.00,2.2467
2988.00,2.2372
2987.00,2.2296
2986.00,2.2247
2985.00,2.2237
2984.00,2.2276
2983.00,2.2374
2982.00,2.2540
2981.00,2.2776
2980.00,2.3083
2979.00,2.3458
2978.00,2.3904
2977.00,2.4424
2976.00,2.5013
2975.00,2.5664
2974.00,2.6369
2973.00,2.7116
2972.00,2.7886
2971.00,2.8659
2970.00,2.9435
2969.00,3.0237
2968.00,3.1102
2967.00,3.2047
2966.00,3.3072
2965.00,3.4153
2964.00,3.5231
2963.00,3.6232
2962.00,3.7126
2961.00,3.7916
2960.00,3.8473
2959.00,3.8623
2958.00,3.8517
2957.00,3.8525
2956.00,3.8797
2955.00,3.9224
2954.00,3.9740
2953.00,4.0492
2952.00,4.1614
2951.00,4.2792
2950.00,4.3213
2949.00,4.2676
2948.00,4.1901
2947.00,4.1324
2946.00,4.0914
2945.00,4.0551
2944.00,4.0199
2943.00,3.9885
2942.00,3.9693
2941.00,3.9752
2940.00,4.0156
2939.00,4.0903
2938.00,4.1912
2937.00,4.3032
2936.00,4.3962
2935.00,4.4320
2934.00,4.4090
2933.00,4.3699
2932.00,4.3554
2931.00,4.3569
2930.00,4.3311
2929.00,4.2827
2928.00,4.2566
2927.00,4.2804
2926.00,4.3507
2925.00,4.4115
2924.00,4.3478
2923.00,4.1678
2922.00,3.9921
2921.00,3.8692
2920.00,3.7856
2919.00,3.7194
2918.00,3.6616
2917.00,3.6118
2916.00,3.5688
2915.00,3.5249
2914.00,3.4730
2913.00,3.4136
2912.00,3.3524
2911.00,3.2945
2910.00,3.2438
2909.00,3.2041
2908.00,3.1767
2907.00,3.1586
2906.00,3.1430
2905.00,3.1245
2904.00,3.1022
2903.00,3.0785
2902.00,3.0547
2901.00,3.0303
2900.00,3.0050
2899.00,2.9797
2898.00,2.9562
2897.00,2.9356
2896.00,2.9179
2895.00,2.9025
2894.00,2.8883
2893.00,2.8742
2892.00,2.8592
2891.00,2.8439
2890.00,2.8301
2889.00,2.8190
2888.00,2.8102
2887.00,2.8023
2886.00,2.7956
2885.00,2.7924
2884.00,2.7949
2883.00,2.8030
2882.00,2.8153
2881.00,2.8317
2880.00,2.8533
2879.00,2.8810
2878.00,2.9146
2877.00,2.9533
2876.00,2.9971
2875.00,3.0466
2874.00,3.1012
2873.00,3.1596
2872.00,3.2210
2871.00,3.2868
2870.00,3.3595
2869.00,3.4415
2868.00,3.5333
2867.00,3.6318
2866.00,3.7244
2865.00,3.7880
2864.00,3.8060
2863.00,3.7865
2862.00,3.7521
2861.00,3.7168
2860.00,3.6803
2859.00,3.6356
2858.00,3.5757
2857.00,3.4984
2856.00,3.4075
2855.00,3.3112
2854.00,3.2151
2853.00,3.1202
2852.00,3.0270
2851.00,2.9382
2850.00,2.8568
2849.00,2.7819
2848.00,2.7104
2847.00,2.6402
2846.00,2.5725
2845.00,2.5088
2844.00,2.4492
2843.00,2.3923
2842.00,2.3373
2841.00,2.2845
2840.00,2.2346
2839.00,2.1881
2838.00,2.1456
2837.00,2.1081
2836.00,2.0760
2835.00,2.0490
2834.00,2.0268
2833.00,2.0091
2832.00,1.9958
2831.00,1.9865
2830.00,1.9806
2829.00,1.9772
2828.00,1.9755
2827.00,1.9751
2826.00,1.9759
2825.00,1.9781
2824.00,1.9816
2823.00,1.9866
2822.00,1.9930
2821.00,2.0013
2820.00,2.0117
2819.00,2.0241
2818.00,2.0382
2817.00,2.0538
2816.00,2.0710
2815.00,2.0897
2814.00,2.1098
2813.00,2.1307
2812.00,2.1521
2811.00,2.1733
2810.00,2.1938
2809.00,2.2132
2808.00,2.2314
2807.00,2.2487
2806.00,2.2655
2805.00,2.2821
2804.00,2.2984
2803.00,2.3142
2802.00,2.3289
2801.00,2.3424
2800.00,2.3545
2799.00,2.3650
2798.00,2.3737
2797.00,2.3808
2796.00,2.3870
2795.00,2.3923
2794.00,2.3965
2793.00,2.3996
2792.00,2.4021
2791.00,2.4044
2790.00,2.4064
2789.00,2.4076
2788.00,2.4079
2787.00,2.4076
2786.00,2.4072
2785.00,2.4067
2784.00,2.4056
2783.00,2.4029
2782.00,2.3982
2781.00,2.3921
2780.00,2.3855
2779.00,2.3794
2778.00,2.3735
2777.00,2.3665
2776.00,2.3577
2775.00,2.3472
2774.00,2.3357
2773.00,2.3235
2772.00,2.3106
2771.00,2.2968
2770.00,2.2823
2769.00,2.2675
2768.00,2.2525
2767.00,2.2372
2766.00,2.2212
2765.00,2.2041
2764.00,2.1853
2763.00,2.1649
2762.00,2.1434
2761.00,2.1213
2760.00,2.0981
2759.00,2.0733
2758.00,2.0468
2757.00,2.0185
2756.00,1.9887
2755.00,1.9570
2754.00,1.9236
2753.00,1.8887
2752.00,1.8526
2751.00,1.8155
2750.00,1.7774
2749.00,1.7385
2748.00,1.6990
2747.00,1.6593
2746.00,1.6198
2745.00,1.5810
2744.00,1.5436
2743.00,1.5082
2742.00,1.4754
2741.00,1.4457
2740.00,1.4198
2739.00,1.3980
2738.00,1.3807
2737.00,1.3683
2736.00,1.3609
2735.00,1.3585
2734.00,1.3610
2733.00,1.3683
2732.00,1.3800
2731.00,1.3960
2730.00,1.4157
2729.00,1.4388
2728.00,1.4648
2727.00,1.4935
2726.00,1.5245
2725.00,1.5574
2724.00,1.5920
2723.00,1.6278
2722.00,1.6643
2721.00,1.7014
2720.00,1.7386
2719.00,1.7757
2718.00,1.8121
2717.00,1.8476
2716.00,1.8821
2715.00,1.9155
2714.00,1.9477
2713.00,1.9788
2712.00,2.0087
2711.00,2.0377
2710.00,2.0658
2709.00,2.0931
2708.00,2.1193
2707.00,2.1444
2706.00,2.1681
2705.00,2.1902
2704.00,2.2109
2703.00,2.2303
2702.00,2.2485
2701.00,2.2657
2700.00,2.2819
2699.00,2.2974
2698.00,2.3124
2697.00,2.3269
2696.00,2.3405
2695.00,2.3531
2694.00,2.3649
2693.00,2.3765
2692.00,2.3881
2691.00,2.3989
2690.00,2.4083
2689.00,2.4162
2688.00,2.4236
2687.00,2.4309
2686.00,2.4381
2685.00,2.4451
2684.00,2.4520
2683.00,2.4587
2682.00,2.4642
2681.00,2.4680
2680.00,2.4706
2679.00,2.4729
2678.00,2.4755
2677.00,2.4782
2676.00,2.4801
2675.00,2.4810
2674.00,2.4813
2673.00,2.4816
2672.00,2.4822
2671.00,2.4827
2670.00,2.4820
2669.00,2.4789
2668.00,2.4735
2667.00,2.4674
2666.00,2.4623
2665.00,2.4586
2664.00,2.4547
2663.00,2.4491
2662.00,2.4416
2661.00,2.4333
2660.00,2.4253
2659.00,2.4172
2658.00,2.4086
2657.00,2.3996
2656.00,2.3904
2655.00,2.3807
2654.00,2.3701
2653.00,2.3583
2652.00,2.3457
2651.00,2.3329
2650.00,2.3197
2649.00,2.3057
2648.00,2.2905
2647.00,2.2740
2646.00,2.2565
2645.00,2.2382
2644.00,2.2192
2643.00,2.1993
2642.00,2.1782
2641.00,2.1556
2640.00,2.1313
2639.00,2.1054
2638.00,2.0783
2637.00,2.0501
2636.00,2.0206
2635.00,1.9893
2634.00,1.9561
2633.00,1.9216
2632.00,1.8865
2631.00,1.8508
2630.00,1.8144
2629.00,1.7774
2628.00,1.7399
2627.00,1.7024
2626.00,1.6654
2625.00,1.6297
2624.00,1.5957
2623.00,1.5637
2622.00,1.5340
2621.00,1.5070
2620.00,1.4832
2619.00,1.4629
2618.00,1.4462
2617.00,1.4333
2616.00,1.4242
2615.00,1.4190
2614.00,1.4174
2613.00,1.4196
2612.00,1.4252
2611.00,1.4342
2610.00,1.4463
2609.00,1.4612
2608.00,1.4786
2607.00,1.4984
2606.00,1.5207
2605.00,1.5454
2604.00,1.5725
2603.00,1.6016
2602.00,1.6325
2601.00,1.6651
2600.00,1.6991
2599.00,1.7342
2598.00,1.7699
2597.00,1.8059
2596.00,1.8419
2595.00,1.8775
2594.00,1.9124
2593.00,1.9465
2592.00,1.9798
2591.00,2.0121
2590.00,2.0429
2589.00,2.0722
2588.00,2.0997
2587.00,2.1258
2586.00,2.1509
2585.00,2.1754
2584.00,2.1994
2583.00,2.2228
2582.00,2.2455
2581.00,2.2673
2580.00,2.2877
2579.00,2.3062
2578.00,2.3227
2577.00,2.3382
2576.00,2.3537
2575.00,2.3692
2574.00,2.3842
2573.00,2.3981
2572.00,2.4109
2571.00,2.4231
2570.00,2.4347
2569.00,2.4458
2568.00,2.4561
2567.00,2.4656
2566.00,2.4745
2565.00,2.4830
2564.00,2.4909
2563.00,2.4980
2562.00,2.5040
2561.00,2.5091
2560.00,2.5136
2559.00,2.5182
2558.00,2.5227
2557.00,2.5271
2556.00,2.5313
2555.00,2.5353
2554.00,2.5390
2553.00,2.5419
2552.00,2.5439
2551.00,2.5454
2550.00,2.5469
2549.00,2.5479
2548.00,2.5476
2547.00,2.5453
2546.00,2.5417
2545.00,2.5379
2544.00,2.5343
2543.00,2.5312
2542.00,2.5285
2541.00,2.5261
2540.00,2.5227
2539.00,2.5176
2538.00,2.5106
2537.00,2.5027
2536.00,2.4950
2535.00,2.4878
2534.00,2.4805
2533.00,2.4727
2532.00,2.4640
2531.00,2.4543
2530.00,2.4441
2529.00,2.4335
2528.00,2.4222
2527.00,2.4097
2526.00,2.3961
2525.00,2.3819
2524.00,2.3669
2523.00,2.3510
2522.00,2.3339
2521.00,2.3160
2520.00,2.2976
2519.00,2.2788
2518.00,2.2588
2517.00,2.2372
2516.00,2.2139
2515.00,2.1892
2514.00,2.1632
2513.00,2.1359
2512.00,2.1069
2511.00,2.0761
2510.00,2.0436
2509.00,2.0099
2508.00,1.9749
2507.00,1.9383
2506.00,1.9000
2505.00,1.8599
2504.00,1.8182
2503.00,1.7751
2502.00,1.7309
2501.00,1.6861
2500.00,1.6411
2499.00,1.5964
2498.00,1.5525
2497.00,1.5100
2496.00,1.4698
2495.00,1.4324
2494.00,1.3988
2493.00,1.3695
2492.00,1.3452
2491.00,1.3264
2490.00,1.3135
2489.00,1.3068
2488.00,1.3064
2487.00,1.3123
2486.00,1.3241
2485.00,1.3416
2484.00,1.3642
2483.00,1.3914
2482.00,1.4225
2481.00,1.4568
2480.00,1.4937
2479.00,1.5327
2478.00,1.5733
2477.00,1.6152
2476.00,1.6582
2475.00,1.7019
2474.00,1.7456
2473.00,1.7889
2472.00,1.8314
2471.00,1.8727
2470.00,1.9127
2469.00,1.9514
2468.00,1.9890
2467.00,2.0251
2466.00,2.0597
2465.00,2.0924
2464.00,2.1232
2463.00,2.1527
2462.00,2.1810
2461.00,2.2086
2460.00,2.2352
2459.00,2.2604
2458.00,2.2839
2457.00,2.3058
2456.00,2.3265
2455.00,2.3463
2454.00,2.3654
2453.00,2.3839
2452.00,2.4020
2451.00,2.4192
2450.00,2.4355
2449.00,2.4508
2448.00,2.4653
2447.00,2.4789
2446.00,2.4915
2445.00,2.5031
2444.00,2.5145
2443.00,2.5259
2442.00,2.5365
2441.00,2.5458
2440.00,2.5541
2439.00,2.5619
2438.00,2.5692
2437.00,2.5759
2436.00,2.5821
2435.00,2.5886
2434.00,2.5963
2433.00,2.6047
2432.00,2.6121
2431.00,2.6170
2430.00,2.6196
2429.00,2.6211
2428.00,2.6223
2427.00,2.6230
2426.00,2.6229
2425.00,2.6223
2424.00,2.6218
2423.00,2.6215
2422.00,2.6212
2421.00,2.6203
2420.00,2.6186
2419.00,2.6160
2418.00,2.6133
2417.00,2.6109
2416.00,2.6086
2415.00,2.6057
2414.00,2.6020
2413.00,2.5981
2412.00,2.5943
2411.00,2.5897
2410.00,2.5830
2409.00,2.5742
2408.00,2.5650
2407.00,2.5566
2406.00,2.5486
2405.00,2.5395
2404.00,2.5279
2403.00,2.5138
2402.00,2.4988
2401.00,2.4842
2400.00,2.4703
2399.00,2.4561
2398.00,2.4401
2397.00,2.4216
2396.00,2.4009
2395.00,2.3796
2394.00,2.3594
2393.00,2.3421
2392.00,2.3290
2391.00,2.3219
2390.00,2.3228
2389.00,2.3330
2388.00,2.3518
2387.00,2.3770
2386.00,2.4047
2385.00,2.4306
2384.00,2.4513
2383.00,2.4647
2382.00,2.4707
2381.00,2.4700
2380.00,2.4654
2379.00,2.4610
2378.00,2.4598
2377.00,2.4618
2376.00,2.4669
2375.00,2.4766
2374.00,2.4900
2373.00,2.5033
2372.00,2.5174
2371.00,2.5326
2370.00,2.5447
2369.00,2.5541
2368.00,2.5602
2367.00,2.5638
2366.00,2.5687
2365.00,2.5714
2364.00,2.5747
2363.00,2.5778
2362.00,2.5785
2361.00,2.5725
2360.00,2.5638
2359.00,2.5752
2358.00,2.6042
2357.00,2.6279
2356.00,2.6335
2355.00,2.6387
2354.00,2.6775
2353.00,2.7377
2352.00,2.7871
2351.00,2.7982
2350.00,2.7768
2349.00,2.7488
2348.00,2.7244
2347.00,2.7102
2346.00,2.7006
2345.00,2.6947
2344.00,2.6889
2343.00,2.6888
2342.00,2.6937
2341.00,2.7071
2340.00,2.7190
2339.00,2.7322
2338.00,2.7371
2337.00,2.7378
2336.00,2.7379
2335.00,2.7373
2334.00,2.7414
2333.00,2.7459
2332.00,2.7583
2331.00,2.7759
2330.00,2.7914
2329.00,2.7984
2328.00,2.7902
2327.00,2.7752
2326.00,2.7564
2325.00,2.7443
2324.00,2.7390
2323.00,2.7434
2322.00,2.7529
2321.00,2.7644
2320.00,2.7723
2319.00,2.7736
2318.00,2.7681
2317.00,2.7580
2316.00,2.7471
2315.00,2.7368
2314.00,2.7280
2313.00,2.7215
2312.00,2.7196
2311.00,2.7237
2310.00,2.7316
2309.00,2.7396
2308.00,2.7455
2307.00,2.7494
2306.00,2.7530
2305.00,2.7567
2304.00,2.7610
2303.00,2.7638
2302.00,2.7647
2301.00,2.7625
2300.00,2.7592
2299.00,2.7556
2298.00,2.7527
2297.00,2.7489
2296.00,2.7438
2295.00,2.7369
2294.00,2.7289
2293.00,2.7209
2292.00,2.7145
2291.00,2.7112
2290.00,2.7114
2289.00,2.7142
2288.00,2.7178
2287.00,2.7207
2286.00,2.7215
2285.00,2.7204
2284.00,2.7181
2283.00,2.7150
2282.00,2.7106
2281.00,2.7044
2280.00,2.6970
2279.00,2.6886
2278.00,2.6787
2277.00,2.6669
2276.00,2.6541
2275.00,2.6409
2274.00,2.6274
2273.00,2.6125
2272.00,2.5961
2271.00,2.5786
2270.00,2.5603
2269.00,2.5402
2268.00,2.5178
2267.00,2.4934
2266.00,2.4677
2265.00,2.4413
2264.00,2.4141
2263.00,2.3864
2262.00,2.3584
2261.00,2.3299
2260.00,2.3002
2259.00,2.2684
2258.00,2.2345
2257.00,2.1990
2256.00,2.1629
2255.00,2.1264
2254.00,2.0898
2253.00,2.0524
2252.00,2.0136
2251.00,1.9722
2250.00,1.9277
2249.00,1.8803
2248.00,1.8306
2247.00,1.7795
2246.00,1.7279
2245.00,1.6764
2244.00,1.6260
2243.00,1.5775
2242.00,1.5321
2241.00,1.4909
2240.00,1.4550
2239.00,1.4252
2238.00,1.4022
2237.00,1.3865
2236.00,1.3783
2235.00,1.3779
2234.00,1.3851
2233.00,1.3997
2232.00,1.4213
2231.00,1.4493
2230.00,1.4827
2229.00,1.5207
2228.00,1.5624
2227.00,1.6068
2226.00,1.6532
2225.00,1.7009
2224.00,1.7493
2223.00,1.7979
2222.00,1.8464
2221.00,1.8944
2220.00,1.9418
2219.00,1.9882
2218.00,2.0335
2217.00,2.0774
2216.00,2.1198
2215.00,2.1603
2214.00,2.1989
2213.00,2.2355
2212.00,2.2701
2211.00,2.3028
2210.00,2.3337
2209.00,2.3630
2208.00,2.3903
2207.00,2.4156
2206.00,2.4394
2205.00,2.4624
2204.00,2.4849
2203.00,2.5065
2202.00,2.5271
2201.00,2.5465
2200.00,2.5645
2199.00,2.5808
2198.00,2.5957
2197.00,2.6102
2196.00,2.6254
2195.00,2.6412
2194.00,2.6567
2193.00,2.6707
2192.00,2.6826
2191.00,2.6923
2190.00,2.7005
2189.00,2.7086
2188.00,2.7180
2187.00,2.7288
2186.00,2.7396
2185.00,2.7488
2184.00,2.7560
2183.00,2.7621
2182.00,2.7683
2181.00,2.7755
2180.00,2.7836
2179.00,2.7919
2178.00,2.7990
2177.00,2.8041
2176.00,2.8079
2175.00,2.8110
2174.00,2.8133
2173.00,2.8134
2172.00,2.8105
2171.00,2.8064
2170.00,2.8033
2169.00,2.8019
2168.00,2.8013
2167.00,2.8006
2166.00,2.7999
2165.00,2.7990
2164.00,2.7975
2163.00,2.7949
2162.00,2.7911
2161.00,2.7862
2160.00,2.7797
2159.00,2.7718
2158.00,2.7639
2157.00,2.7576
2156.00,2.7524
2155.00,2.7460
2154.00,2.7364
2153.00,2.7248
2152.00,2.7132
2151.00,2.7029
2150.00,2.6929
2149.00,2.6817
2148.00,2.6690
2147.00,2.6554
2146.00,2.6412
2145.00,2.6265
2144.00,2.6110
2143.00,2.5946
2142.00,2.5772
2141.00,2.5586
2140.00,2.5388
2139.00,2.5180
2138.00,2.4967
2137.00,2.4751
2136.00,2.4525
2135.00,2.4281
2134.00,2.4015
2133.00,2.3732
2132.00,2.3436
2131.00,2.3123
2130.00,2.2793
2129.00,2.2444
2128.00,2.2078
2127.00,2.1690
2126.00,2.1273
2125.00,2.0829
2124.00,2.0362
2123.00,1.9874
2122.00,1.9367
2121.00,1.8845
2120.00,1.8312
2119.00,1.7778
2118.00,1.7248
2117.00,1.6734
2116.00,1.6249
2115.00,1.5804
2114.00,1.5413
2113.00,1.5081
2112.00,1.4818
2111.00,1.4630
2110.00,1.4526
2109.00,1.4510
2108.00,1.4582
2107.00,1.4737
2106.00,1.4970
2105.00,1.5271
2104.00,1.5630
2103.00,1.6033
2102.00,1.6471
2101.00,1.6935
2100.00,1.7419
2099.00,1.7915
2098.00,1.8417
2097.00,1.8917
2096.00,1.9408
2095.00,1.9889
2094.00,2.0359
2093.00,2.0816
2092.00,2.1261
2091.00,2.1689
2090.00,2.2099
2089.00,2.2489
2088.00,2.2859
2087.00,2.3212
2086.00,2.3553
2085.00,2.3882
2084.00,2.4201
2083.00,2.4504
2082.00,2.4790
2081.00,2.5062
2080.00,2.5321
2079.00,2.5567
2078.00,2.5796
2077.00,2.6006
2076.00,2.6206
2075.00,2.6409
2074.00,2.6617
2073.00,2.6813
2072.00,2.6981
2071.00,2.7128
2070.00,2.7268
2069.00,2.7407
2068.00,2.7526
2067.00,2.7622
2066.00,2.7716
2065.00,2.7833
2064.00,2.7968
2063.00,2.8096
2062.00,2.8201
2061.00,2.8295
2060.00,2.8396
2059.00,2.8506
2058.00,2.8610
2057.00,2.8695
2056.00,2.8755
2055.00,2.8792
2054.00,2.8815
2053.00,2.8839
2052.00,2.8873
2051.00,2.8916
2050.00,2.8953
2049.00,2.8972
2048.00,2.8969
2047.00,2.8952
2046.00,2.8931
2045.00,2.8912
2044.00,2.8897
2043.00,2.8894
2042.00,2.8907
2041.00,2.8930
2040.00,2.8944
2039.00,2.8938
2038.00,2.8910
2037.00,2.8869
2036.00,2.8821
2035.00,2.8770
2034.00,2.8717
2033.00,2.8665
2032.00,2.8613
2031.00,2.8552
2030.00,2.8479
2029.00,2.8394
2028.00,2.8298
2027.00,2.8187
2026.00,2.8061
2025.00,2.7931
2024.00,2.7813
2023.00,2.7711
2022.00,2.7607
2021.00,2.7473
2020.00,2.7302
2019.00,2.7117
2018.00,2.6947
2017.00,2.6796
2016.00,2.6639
2015.00,2.6447
2014.00,2.6214
2013.00,2.5960
2012.00,2.5706
2011.00,2.5462
2010.00,2.5222
2009.00,2.4971
2008.00,2.4698
2007.00,2.4392
2006.00,2.4057
2005.00,2.3698
2004.00,2.3323
2003.00,2.2930
2002.00,2.2514
2001.00,2.2074
2000.00,2.1606
1999.00,2.1109
1998.00,2.0589
1997.00,2.0054
1996.00,1.9497
1995.00,1.8904
1994.00,1.8285
1993.00,1.7689
1992.00,1.7158
1991.00,1.6696
1990.00,1.6287
1989.00,1.5932
1988.00,1.5658
1987.00,1.5485
1986.00,1.5410
1985.00,1.5424
1984.00,1.5528
1983.00,1.5721
1982.00,1.5991
1981.00,1.6326
1980.00,1.6713
1979.00,1.7140
1978.00,1.7593
1977.00,1.8064
1976.00,1.8549
1975.00,1.9039
1974.00,1.9530
1973.00,2.0023
1972.00,2.0514
1971.00,2.0991
1970.00,2.1440
1969.00,2.1866
1968.00,2.2297
1967.00,2.2749
1966.00,2.3208
1965.00,2.3638
1964.00,2.4023
1963.00,2.4368
1962.00,2.4695
1961.00,2.5020
1960.00,2.5349
1959.00,2.5675
1958.00,2.5984
1957.00,2.6270
1956.00,2.6537
1955.00,2.6789
1954.00,2.7021
1953.00,2.7227
1952.00,2.7418
1951.00,2.7605
1950.00,2.7777
1949.00,2.7925
1948.00,2.8064
1947.00,2.8214
1946.00,2.8358
1945.00,2.8463
1944.00,2.8540
1943.00,2.8646
1942.00,2.8814
1941.00,2.9007
1940.00,2.9163
1939.00,2.9253
1938.00,2.9292
1937.00,2.9311
1936.00,2.9340
1935.00,2.9401
1934.00,2.9499
1933.00,2.9614
1932.00,2.9719
1931.00,2.9799
1930.00,2.9855
1929.00,2.9913
1928.00,2.9991
1927.00,3.0079
1926.00,3.0118
1925.00,3.0074
1924.00,2.9995
1923.00,2.9952
1922.00,2.9945
1921.00,2.9912
1920.00,2.9833
1919.00,2.9771
1918.00,2.9774
1917.00,2.9807
1916.00,2.9803
1915.00,2.9761
1914.00,2.9720
1913.00,2.9689
1912.00,2.9641
1911.00,2.9563
1910.00,2.9475
1909.00,2.9398
1908.00,2.9314
1907.00,2.9206
1906.00,2.9072
1905.00,2.8927
1904.00,2.8790
1903.00,2.8664
1902.00,2.8531
1901.00,2.8385
1900.00,2.8225
1899.00,2.8051
1898.00,2.7853
1897.00,2.7624
1896.00,2.7391
1895.00,2.7189
1894.00,2.7014
1893.00,2.6811
1892.00,2.6537
1891.00,2.6207
1890.00,2.5882
1889.00,2.5591
1888.00,2.5295
1887.00,2.4944
1886.00,2.4534
1885.00,2.4103
1884.00,2.3679
1883.00,2.3250
1882.00,2.2792
1881.00,2.2307
1880.00,2.1804
1879.00,2.1294
1878.00,2.0788
1877.00,2.0290
1876.00,1.9803
1875.00,1.9347
1874.00,1.8943
1873.00,1.8582
1872.00,1.8236
1871.00,1.7889
1870.00,1.7579
1869.00,1.7361
1868.00,1.7247
1867.00,1.7205
1866.00,1.7219
1865.00,1.7307
1864.00,1.7490
1863.00,1.7772
1862.00,1.8145
1861.00,1.8601
1860.00,1.9129
1859.00,1.9707
1858.00,2.0314
1857.00,2.0934
1856.00,2.1550
1855.00,2.2143
1854.00,2.2710
1853.00,2.3270
1852.00,2.3810
1851.00,2.4297
1850.00,2.4757
1849.00,2.5247
1848.00,2.5767
1847.00,2.6228
1846.00,2.6560
1845.00,2.6812
1844.00,2.7096
1843.00,2.7434
1842.00,2.7764
1841.00,2.8056
1840.00,2.8324
1839.00,2.8589
1838.00,2.8828
1837.00,2.9012
1836.00,2.9164
1835.00,2.9339
1834.00,2.9554
1833.00,2.9779
1832.00,2.9956
1831.00,3.0092
1830.00,3.0239
1829.00,3.0391
1828.00,3.0477
1827.00,3.0471
1826.00,3.0457
1825.00,3.0529
1824.00,3.0673
1823.00,3.0802
1822.00,3.0867
1821.00,3.0879
1820.00,3.0870
1819.00,3.0882
1818.00,3.0937
1817.00,3.1028
1816.00,3.1128
1815.00,3.1200
1814.00,3.1230
1813.00,3.1216
1812.00,3.1171
1811.00,3.1120
1810.00,3.1064
1809.00,3.1001
1808.00,3.0966
1807.00,3.0984
1806.00,3.1013
1805.00,3.0959
1804.00,3.0791
1803.00,3.0575
1802.00,3.0419
1801.00,3.0329
1800.00,3.0219
1799.00,3.0044
1798.00,2.9850
1797.00,2.9696
1796.00,2.9567
1795.00,2.9362
1794.00,2.9010
1793.00,2.8543
1792.00,2.8060
1791.00,2.7616
1790.00,2.7191
1789.00,2.6730
1788.00,2.6200
1787.00,2.5604
1786.00,2.4997
1785.00,2.4451
1784.00,2.3992
1783.00,2.3554
1782.00,2.3133
1781.00,2.2812
1780.00,2.2672
1779.00,2.2721
1778.00,2.2941
1777.00,2.3365
1776.00,2.3983
1775.00,2.4687
1774.00,2.5379
1773.00,2.6064
1772.00,2.6740
1771.00,2.7326
1770.00,2.7764
1769.00,2.8136
1768.00,2.8608
1767.00,2.9213
1766.00,2.9814
1765.00,3.0272
1764.00,3.0565
1763.00,3.0780
1762.00,3.1041
1761.00,3.1375
1760.00,3.1720
1759.00,3.2016
1758.00,3.2294
1757.00,3.2670
1756.00,3.3130
1755.00,3.3520
1754.00,3.3737
1753.00,3.3841
1752.00,3.3982
1751.00,3.4279
1750.00,3.4715
1749.00,3.5201
1748.00,3.5641
1747.00,3.5951
1746.00,3.6170
1745.00,3.6466
1744.00,3.7000
1743.00,3.7756
1742.00,3.8511
1741.00,3.9065
1740.00,3.9573
1739.00,4.0368
1738.00,4.1459
1737.00,4.2436
1736.00,4.2842
1735.00,4.2806
1734.00,4.2974
1733.00,4.3565
1732.00,4.4121
1731.00,4.4134
1730.00,4.3700
1729.00,4.3307
1728.00,4.3228
1727.00,4.3549
1726.00,4.4287
1725.00,4.4516
1724.00,4.3830
1723.00,4.4165
1722.00,4.7294
1721.00,4.9388
1720.00,4.5816
1719.00,4.5716
1718.00,4.8893
1717.00,5.1229
1716.00,4.8770
1715.00,5.2456
1714.00,4.9557
1713.00,4.5671
1712.00,4.5046
1711.00,4.5700
1710.00,4.6651
1709.00,4.6326
1708.00,4.5238
1707.00,4.4466
1706.00,4.4582
1705.00,4.6351
1704.00,5.0570
1703.00,5.1558
1702.00,4.8738
1701.00,4.7822
1700.00,4.7553
1699.00,4.8205
1698.00,5.0891
1697.00,5.3327
1696.00,4.8248
1695.00,4.7203
1694.00,4.6845
1693.00,4.4125
1692.00,4.1776
1691.00,4.0258
1690.00,3.9217
1689.00,3.8522
1688.00,3.8101
1687.00,3.7818
1686.00,3.7449
1685.00,3.6902
1684.00,3.6350
1683.00,3.5902
1682.00,3.5532
1681.00,3.5312
1680.00,3.5336
1679.00,3.5519
1678.00,3.5641
1677.00,3.5551
1676.00,3.5305
1675.00,3.5052
1674.00,3.4864
1673.00,3.4687
1672.00,3.4451
1671.00,3.4122
1670.00,3.3719
1669.00,3.3316
1668.00,3.2978
1667.00,3.2696
1666.00,3.2415
1665.00,3.2064
1664.00,3.1643
1663.00,3.1164
1662.00,3.0629
1661.00,3.0043
1660.00,2.9449
1659.00,2.8948
1658.00,2.8652
1657.00,2.8576
1656.00,2.8568
1655.00,2.8424
1654.00,2.8056
1653.00,2.7637
1652.00,2.7403
1651.00,2.7349
1650.00,2.7361
1649.00,2.7377
1648.00,2.7379
1647.00,2.7392
1646.00,2.7454
1645.00,2.7570
1644.00,2.7721
1643.00,2.7890
1642.00,2.8108
1641.00,2.8453
1640.00,2.8936
1639.00,2.9490
1638.00,2.9987
1637.00,3.0329
1636.00,3.0482
1635.00,3.0520
1634.00,3.0526
1633.00,3.0537
1632.00,3.0591
1631.00,3.0694
1630.00,3.0816
1629.00,3.0935
1628.00,3.1077
1627.00,3.1270
1626.00,3.1512
1625.00,3.1750
1624.00,3.1934
1623.00,3.2064
1622.00,3.2211
1621.00,3.2443
1620.00,3.2726
1619.00,3.2950
1618.00,3.3017
1617.00,3.2941
1616.00,3.2815
1615.00,3.2708
1614.00,3.2641
1613.00,3.2639
1612.00,3.2708
1611.00,3.2792
1610.00,3.2824
1609.00,3.2797
1608.00,3.2742
1607.00,3.2652
1606.00,3.2523
1605.00,3.2398
1604.00,3.2306
1603.00,3.2232
1602.00,3.2166
1601.00,3.2128
1600.00,3.2137
1599.00,3.2173
1598.00,3.2199
1597.00,3.2186
1596.00,3.2133
1595.00,3.2051
1594.00,3.1953
1593.00,3.1843
1592.00,3.1705
1591.00,3.1526
1590.00,3.1322
1589.00,3.1125
1588.00,3.0937
1587.00,3.0734
1586.00,3.0498
1585.00,3.0267
1584.00,3.0059
1583.00,2.9845
1582.00,2.9623
1581.00,2.9445
1580.00,2.9331
1579.00,2.9216
1578.00,2.8983
1577.00,2.8543
1576.00,2.7945
1575.00,2.7333
1574.00,2.6796
1573.00,2.6321
1572.00,2.5834
1571.00,2.5266
1570.00,2.4582
1569.00,2.3839
1568.00,2.3094
1567.00,2.2370
1566.00,2.1685
1565.00,2.1128
1564.00,2.0783
1563.00,2.0655
1562.00,2.0666
1561.00,2.0727
1560.00,2.0780
1559.00,2.0818
1558.00,2.0874
1557.00,2.0918
1556.00,2.0955
1555.00,2.1118
1554.00,2.1533
1553.00,2.2105
1552.00,2.2626
1551.00,2.3109
1550.00,2.3719
1549.00,2.4484
1548.00,2.5238
1547.00,2.5852
1546.00,2.6417
1545.00,2.7129
1544.00,2.8039
1543.00,2.9026
1542.00,2.9875
1541.00,3.0363
1540.00,3.0485
1539.00,3.0526
1538.00,3.0657
1537.00,3.0800
1536.00,3.0875
1535.00,3.0891
1534.00,3.0952
1533.00,3.1113
1532.00,3.1325
1531.00,3.1558
1530.00,3.1804
1529.00,3.2030
1528.00,3.2207
1527.00,3.2382
1526.00,3.2651
1525.00,3.2994
1524.00,3.3253
1523.00,3.3327
1522.00,3.3332
1521.00,3.3486
1520.00,3.3750
1519.00,3.3877
1518.00,3.3787
1517.00,3.3630
1516.00,3.3589
1515.00,3.3659
1514.00,3.3711
1513.00,3.3661
1512.00,3.3566
1511.00,3.3558
1510.00,3.3692
1509.00,3.3896
1508.00,3.4065
1507.00,3.4120
1506.00,3.4032
1505.00,3.3853
1504.00,3.3683
1503.00,3.3627
1502.00,3.3739
1501.00,3.3974
1500.00,3.4181
1499.00,3.4211
1498.00,3.4032
1497.00,3.3720
1496.00,3.3449
1495.00,3.3340
1494.00,3.3329
1493.00,3.3226
1492.00,3.2916
1491.00,3.2496
1490.00,3.2157
1489.00,3.1942
1488.00,3.1766
1487.00,3.1571
1486.00,3.1330
1485.00,3.1054
1484.00,3.0743
1483.00,3.0412
1482.00,3.0116
1481.00,2.9874
1480.00,2.9623
1479.00,2.9284
1478.00,2.8865
1477.00,2.8440
1476.00,2.8072
1475.00,2.7730
1474.00,2.7373
1473.00,2.7064
1472.00,2.6919
1471.00,2.6990
1470.00,2.7269
1469.00,2.7748
1468.00,2.8415
1467.00,2.9201
1466.00,3.0003
1465.00,3.0766
1464.00,3.1435
1463.00,3.1957
1462.00,3.2356
1461.00,3.2728
1460.00,3.3119
1459.00,3.3494
1458.00,3.3902
1457.00,3.4612
1456.00,3.5762
1455.00,3.6997
1454.00,3.7880
1453.00,3.8492
1452.00,3.9181
1451.00,4.0107
1450.00,4.1168
1449.00,4.1990
1448.00,4.1792
1447.00,4.0342
1446.00,3.8653
1445.00,3.7289
1444.00,3.6199
1443.00,3.5279
1442.00,3.4515
1441.00,3.3912
1440.00,3.3424
1439.00,3.3038
1438.00,3.2842
1437.00,3.3024
1436.00,3.3649
1435.00,3.4484
1434.00,3.5227
1433.00,3.5787
1432.00,3.6237
1431.00,3.6662
1430.00,3.7130
1429.00,3.7673
1428.00,3.8181
1427.00,3.8327
1426.00,3.7995
1425.00,3.7545
1424.00,3.7374
1423.00,3.7542
1422.00,3.7748
1421.00,3.7579
1420.00,3.6884
1419.00,3.5995
1418.00,3.5284
1417.00,3.4736
1416.00,3.4161
1415.00,3.3501
1414.00,3.2844
1413.00,3.2276
1412.00,3.1820
1411.00,3.1475
1410.00,3.1255
1409.00,3.1152
1408.00,3.1141
1407.00,3.1191
1406.00,3.1293
1405.00,3.1492
1404.00,3.1802
1403.00,3.2156
1402.00,3.2426
1401.00,3.2556
1400.00,3.2626
1399.00,3.2744
1398.00,3.2895
1397.00,3.2986
1396.00,3.3034
1395.00,3.3157
1394.00,3.3423
1393.00,3.3738
1392.00,3.3957
1391.00,3.4055
1390.00,3.4104
1389.00,3.4172
1388.00,3.4284
1387.00,3.4431
1386.00,3.4575
1385.00,3.4699
1384.00,3.4826
1383.00,3.4969
1382.00,3.5128
1381.00,3.5292
1380.00,3.5439
1379.00,3.5595
1378.00,3.5836
1377.00,3.6133
1376.00,3.6319
1375.00,3.6277
1374.00,3.6117
1373.00,3.6004
1372.00,3.5934
1371.00,3.5804
1370.00,3.5640
1369.00,3.5594
1368.00,3.5693
1367.00,3.5741
1366.00,3.5534
1365.00,3.5098
1364.00,3.4608
1363.00,3.4216
1362.00,3.4010
1361.00,3.3999
1360.00,3.4109
1359.00,3.4215
1358.00,3.4199
1357.00,3.4012
1356.00,3.3715
1355.00,3.3448
1354.00,3.3366
1353.00,3.3571
1352.00,3.4085
1351.00,3.4863
1350.00,3.5859
1349.00,3.7078
1348.00,3.8372
1347.00,3.9179
1346.00,3.9031
1345.00,3.8332
1344.00,3.7641
1343.00,3.7076
1342.00,3.6617
1341.00,3.6387
1340.00,3.6552
1339.00,3.7065
1338.00,3.7570
1337.00,3.7675
1336.00,3.7346
1335.00,3.6760
1334.00,3.6048
1333.00,3.5321
1332.00,3.4677
1331.00,3.4121
1330.00,3.3585
1329.00,3.3029
1328.00,3.2511
1327.00,3.2125
1326.00,3.1935
1325.00,3.1964
1324.00,3.2210
1323.00,3.2635
1322.00,3.3167
1321.00,3.3740
1320.00,3.4369
1319.00,3.5162
1318.00,3.6205
1317.00,3.7436
1316.00,3.8610
1315.00,3.9523
1314.00,4.0341
1313.00,4.1554
1312.00,4.3532
1311.00,4.5494
1310.00,4.4689
1309.00,4.2042
1308.00,3.9973
1307.00,3.8802
1306.00,3.8156
1305.00,3.7542
1304.00,3.6658
1303.00,3.5568
1302.00,3.4495
1301.00,3.3553
1300.00,3.2724
1299.00,3.1960
1298.00,3.1255
1297.00,3.0632
1296.00,3.0105
1295.00,2.9674
1294.00,2.9333
1293.00,2.9091
1292.00,2.8967
1291.00,2.8969
1290.00,2.9099
1289.00,2.9358
1288.00,2.9743
1287.00,3.0212
1286.00,3.0688
1285.00,3.1116
1284.00,3.1532
1283.00,3.2010
1282.00,3.2550
1281.00,3.3041
1280.00,3.3381
1279.00,3.3594
1278.00,3.3780
1277.00,3.3989
1276.00,3.4224
1275.00,3.4513
1274.00,3.4901
1273.00,3.5358
1272.00,3.5751
1271.00,3.5959
1270.00,3.6037
1269.00,3.6146
1268.00,3.6379
1267.00,3.6708
1266.00,3.7007
1265.00,3.7136
1264.00,3.7072
1263.00,3.6939
1262.00,3.6847
1261.00,3.6805
1260.00,3.6811
1259.00,3.6908
1258.00,3.7096
1257.00,3.7271
1256.00,3.7247
1255.00,3.6948
1254.00,3.6606
1253.00,3.6491
1252.00,3.6692
1251.00,3.7164
1250.00,3.7750
1249.00,3.8190
1248.00,3.8366
1247.00,3.8434
1246.00,3.8564
1245.00,3.8782
1244.00,3.9023
1243.00,3.9158
1242.00,3.9109
1241.00,3.9023
1240.00,3.9069
1239.00,3.9198
1238.00,3.9247
1237.00,3.9194
1236.00,3.9199
1235.00,3.9366
1234.00,3.9541
1233.00,3.9537
1232.00,3.9521
1231.00,3.9844
1230.00,4.0812
1229.00,4.2433
1228.00,4.4089
1227.00,4.4857
1226.00,4.4596
1225.00,4.4636
1224.00,4.4517
1223.00,4.3479
1222.00,4.3180
1221.00,4.3887
1220.00,4.4649
1219.00,4.4400
1218.00,4.3043
1217.00,4.1499
1216.00,4.0375
1215.00,3.9763
1214.00,3.9412
1213.00,3.9091
1212.00,3.8790
1211.00,3.8594
1210.00,3.8528
1209.00,3.8567
1208.00,3.8705
1207.00,3.8910
1206.00,3.8996
1205.00,3.8771
1204.00,3.8384
1203.00,3.8145
1202.00,3.8176
1201.00,3.8316
1200.00,3.8216
1199.00,3.7752
1198.00,3.7228
1197.00,3.6945
1196.00,3.6907
1195.00,3.6868
1194.00,3.6592
1193.00,3.6146
1192.00,3.5818
1191.00,3.5779
1190.00,3.5916
1189.00,3.5948
1188.00,3.5737
1187.00,3.5397
1186.00,3.5116
1185.00,3.4949
1184.00,3.4829
1183.00,3.4724
1182.00,3.4653
1181.00,3.4614
1180.00,3.4574
1179.00,3.4531
1178.00,3.4498
1177.00,3.4440
1176.00,3.4316
1175.00,3.4168
1174.00,3.4079
1173.00,3.4057
1172.00,3.4033
1171.00,3.3952
1170.00,3.3855
1169.00,3.3819
1168.00,3.3856
1167.00,3.3937
1166.00,3.4021
1165.00,3.4039
1164.00,3.3975
1163.00,3.3865
1162.00,3.3749
1161.00,3.3666
1160.00,3.3664
1159.00,3.3774
1158.00,3.3994
1157.00,3.4291
1156.00,3.4623
1155.00,3.4985
1154.00,3.5414
1153.00,3.5871
1152.00,3.6154
1151.00,3.6145
1150.00,3.6059
1149.00,3.6170
1148.00,3.6511
1147.00,3.6922
1146.00,3.7257
1145.00,3.7452
1144.00,3.7492
1143.00,3.7493
1142.00,3.7571
1141.00,3.7783
1140.00,3.8069
1139.00,3.8223
1138.00,3.8250
1137.00,3.8387
1136.00,3.8801
1135.00,3.9653
1134.00,4.1120
1133.00,4.3634
1132.00,4.6668
1131.00,4.5895
1130.00,4.3375
1129.00,4.1234
1128.00,3.9900
1127.00,3.9587
1126.00,4.0248
1125.00,4.1496
1124.00,4.2598
1123.00,4.3543
1122.00,4.6505
1121.00,4.9651
1120.00,4.4968
1119.00,4.3307
1118.00,4.3082
1117.00,4.2681
1116.00,4.2327
1115.00,4.2619
1114.00,4.2460
1113.00,4.0896
1112.00,3.9907
1111.00,3.9612
1110.00,3.9429
1109.00,3.9353
1108.00,3.9761
1107.00,4.0880
1106.00,4.2273
1105.00,4.2582
1104.00,4.1007
1103.00,3.9135
1102.00,3.7829
1101.00,3.7679
1100.00,3.8754
1099.00,4.2000
1098.00,4.8765
1097.00,4.7384
1096.00,4.9399
1095.00,4.6671
1094.00,4.2293
1093.00,4.0740
1092.00,4.0258
1091.00,4.0232
1090.00,3.9571
1089.00,3.8976
1088.00,3.9188
1087.00,4.0134
1086.00,4.0838
1085.00,4.0608
1084.00,4.0203
1083.00,4.0115
1082.00,4.0176
1081.00,4.0014
1080.00,3.9765
1079.00,3.9977
1078.00,4.0585
1077.00,4.1391
1076.00,4.1716
1075.00,4.0468
1074.00,3.9355
1073.00,3.9147
1072.00,3.9250
1071.00,3.9082
1070.00,3.8650
1069.00,3.8341
1068.00,3.8233
1067.00,3.8234
1066.00,3.8236
1065.00,3.8148
1064.00,3.7971
1063.00,3.7746
1062.00,3.7526
1061.00,3.7370
1060.00,3.7380
1059.00,3.7728
1058.00,3.8496
1057.00,3.9464
1056.00,4.0108
1055.00,4.0060
1054.00,3.9606
1053.00,3.9315
1052.00,3.9654
1051.00,4.0189
1050.00,3.9907
1049.00,3.9741
1048.00,4.0066
1047.00,3.9535
1046.00,3.8336
1045.00,3.7363
1044.00,3.6673
1043.00,3.6129
1042.00,3.5644
1041.00,3.5163
1040.00,3.4710
1039.00,3.4365
1038.00,3.4098
1037.00,3.3822
1036.00,3.3583
1035.00,3.3510
1034.00,3.3677
1033.00,3.4005
1032.00,3.4314
1031.00,3.4518
1030.00,3.4675
1029.00,3.4830
1028.00,3.4995
1027.00,3.5237
1026.00,3.5604
1025.00,3.5962
1024.00,3.6302
1023.00,3.6918
1022.00,3.7815
1021.00,3.8610
1020.00,3.9206
1019.00,3.9764
1018.00,4.0291
1017.00,4.0554
1016.00,4.0265
1015.00,3.9734
1014.00,3.9314
1013.00,3.8993
1012.00,3.8806
1011.00,3.8764
1010.00,3.9089
1009.00,4.0066
1008.00,4.2269
1007.00,4.4610
1006.00,4.2566
1005.00,4.0448
1004.00,3.9605
1003.00,3.9915
1002.00,4.0832
1001.00,4.1071
1000.00,4.1422
999.00,4.2704
998.00,4.4665
997.00,4.6140
996.00,4.7012
995.00,4.8552
994.00,5.1521
993.00,5.4290
992.00,5.0635
991.00,4.8134
990.00,4.8097
989.00,4.8066
988.00,4.4359
987.00,4.1340
986.00,3.9503
985.00,3.8931
984.00,3.9587
983.00,4.2114
982.00,4.6935
981.00,4.5023
980.00,4.3520
979.00,4.3464
978.00,4.3093
977.00,4.3356
976.00,4.3593
975.00,4.4143
974.00,4.3562
973.00,4.0963
972.00,3.9331
971.00,3.9006
970.00,3.9543
969.00,4.0860
968.00,4.2042
967.00,4.1734
966.00,4.1444
965.00,4.1747
964.00,4.1940
963.00,4.1994
962.00,4.3030
961.00,4.6206
960.00,4.5744
959.00,4.3058
958.00,4.2476
957.00,4.2878
956.00,4.4443
955.00,4.7528
954.00,4.6520
953.00,4.4472
952.00,4.3550
951.00,4.4578
950.00,4.9139
949.00,4.5591
948.00,4.2396
947.00,4.1921
946.00,4.2484
945.00,4.2998
944.00,4.2285
943.00,4.1384
942.00,4.1422
941.00,4.2264
940.00,4.2856
939.00,4.2932
938.00,4.2945
937.00,4.3554
936.00,4.3942
935.00,4.2667
934.00,4.1872
933.00,4.1635
932.00,4.1191
931.00,4.0908
930.00,4.1117
929.00,4.1355
928.00,4.0398
927.00,3.9158
926.00,3.8537
925.00,3.8628
924.00,3.9502
923.00,4.1106
922.00,4.2650
921.00,4.3432
920.00,4.3934
919.00,4.2794
918.00,4.1213
917.00,4.0575
916.00,4.0638
915.00,4.1264
914.00,4.2779
913.00,4.5521
912.00,4.7619
911.00,4.6827
910.00,4.5083
909.00,4.3867
908.00,4.3792
907.00,4.4207
906.00,4.4639
905.00,4.5455
904.00,4.5904
903.00,4.5531
902.00,4.4163
901.00,4.2240
900.00,4.1065
899.00,4.0754
898.00,4.0975
897.00,4.1667
896.00,4.1759
895.00,4.0409
894.00,3.9350
893.00,3.9115
892.00,3.9623
891.00,4.0808
890.00,4.3955
889.00,4.6099
888.00,4.1726
887.00,4.0055
886.00,3.9623
885.00,3.9806
884.00,4.0620
883.00,4.1158
882.00,4.0429
881.00,3.9566
880.00,3.9448
879.00,4.1400
878.00,4.7721
877.00,4.7882
876.00,4.5598
875.00,4.2112
874.00,3.9728
873.00,3.9195
872.00,3.9542
871.00,4.0599
870.00,4.1897
869.00,4.3437
868.00,4.4158
867.00,4.2874
866.00,4.1226
865.00,4.0297
864.00,4.0256
863.00,4.1448
862.00,4.4415
861.00,4.5313
860.00,4.2927
859.00,4.2268
858.00,4.2872
857.00,4.3901
856.00,4.4752
855.00,4.4954
854.00,4.4349
853.00,4.3400
852.00,4.3351
851.00,4.3785
850.00,4.1745
849.00,3.9091
848.00,3.7826
847.00,3.7922
846.00,3.9456
845.00,4.2790
844.00,4.4567
843.00,4.4510
842.00,4.7570
841.00,4.7129
840.00,4.4400
839.00,4.2177
838.00,4.0451
837.00,3.9847
836.00,4.0253
835.00,4.1203
834.00,4.1886
833.00,4.1551
832.00,4.2634
831.00,4.7304
830.00,4.4115
829.00,4.1109
828.00,4.0539
827.00,4.0332
826.00,3.9845
825.00,3.9255
824.00,3.9168
823.00,3.9629
822.00,4.0241
821.00,4.0433
820.00,4.0234
819.00,4.0108
818.00,4.0370
817.00,4.1226
816.00,4.2446
815.00,4.2556
814.00,4.1202
813.00,3.9893
812.00,3.9354
811.00,3.9543
810.00,3.9873
809.00,3.9821
808.00,3.9459
807.00,3.9206
806.00,3.9035
805.00,3.8994
804.00,3.9220
803.00,4.0509
802.00,4.3807
801.00,4.2994
800.00,4.0488
799.00,4.0249
798.00,4.2911
797.00,4.4708
796.00,3.9819
795.00,3.7628
794.00,3.6858
793.00,3.6942
792.00,3.7923
791.00,3.9418
790.00,4.1621
789.00,4.3790
788.00,4.3304
787.00,4.2877
786.00,4.2354
785.00,4.2370
784.00,4.5421
783.00,4.3499
782.00,4.0369
781.00,3.9898
780.00,4.1780
779.00,4.5056
778.00,4.4343
777.00,4.6602
776.00,4.5769
775.00,4.1608
774.00,4.0795
773.00,4.0771
772.00,4.0352
771.00,4.0088
770.00,4.1363
769.00,4.4030
768.00,4.2218
767.00,4.1696
766.00,4.5297
765.00,4.4721
764.00,4.1306
763.00,4.2513
762.00,4.9293
761.00,4.6057
760.00,4.4049
759.00,4.4831
758.00,4.7169
757.00,4.6707
756.00,4.3476
755.00,4.2953
754.00,4.6319
753.00,4.5843
752.00,4.0954
751.00,3.9862
750.00,4.1165
749.00,4.2201
748.00,4.0575
747.00,4.0297
746.00,4.1987
745.00,4.5690
744.00,4.6380
743.00,4.1632
742.00,3.9801
741.00,3.9571
740.00,3.9896
739.00,3.9836
738.00,3.9377
737.00,3.9453
736.00,4.0449
735.00,4.2098
734.00,4.3537
733.00,4.4997
732.00,4.4217
731.00,4.0956
730.00,3.8744
729.00,3.7811
728.00,3.7969
727.00,3.9070
726.00,4.0477
725.00,4.0584
724.00,4.0353
723.00,4.1304
722.00,4.4014
721.00,4.7660
720.00,4.8732
719.00,5.2140
718.00,4.6795
717.00,4.3133
716.00,4.2565
715.00,4.2299
714.00,4.1042
713.00,4.0301
712.00,4.0723
711.00,4.1579
710.00,4.3119
709.00,4.7754
708.00,4.6518
707.00,4.3083
706.00,4.3468
705.00,4.6038
704.00,4.6441
703.00,4.5381
702.00,4.6318
701.00,4.4828
700.00,4.1389
