Created as New Dataset,Sample 085 By Administrator Date Wednesday, November 24 2021
cm-1,A
7502.00,0.8211
7501.00,0.8150
7500.00,0.8095
7499.00,0.8046
7498.00,0.8001
7497.00,0.7960
7496.00,0.7924
7495.00,0.7894
7494.00,0.7870
7493.00,0.7853
7492.00,0.7840
7491.00,0.7831
7490.00,0.7826
7489.00,0.7828
7488.00,0.7839
7487.00,0.7856
7486.00,0.7878
7485.00,0.7902
7484.00,0.7929
7483.00,0.7961
7482.00,0.7998
7481.00,0.8041
7480.00,0.8090
7479.00,0.8144
7478.00,0.8203
7477.00,0.8267
7476.00,0.8337
7475.00,0.8412
7474.00,0.8489
7473.00,0.8564
7472.00,0.8636
7471.00,0.8710
7470.00,0.8788
7469.00,0.8873
7468.00,0.8963
7467.00,0.9055
7466.00,0.9147
7465.00,0.9238
7464.00,0.9327
7463.00,0.9415
7462.00,0.9500
7461.00,0.9581
7460.00,0.9660
7459.00,0.9743
7458.00,0.9833
7457.00,0.9926
7456.00,1.0013
7455.00,1.0091
7454.00,1.0161
7453.00,1.0227
7452.00,1.0292
7451.00,1.0355
7450.00,1.0419
7449.00,1.0484
7448.00,1.0553
7447.00,1.0623
7446.00,1.0692
7445.00,1.0759
7444.00,1.0817
7443.00,1.0863
7442.00,1.0897
7441.00,1.0927
7440.00,1.0958
7439.00,1.0989
7438.00,1.1011
7437.00,1.1023
7436.00,1.1028
7435.00,1.1036
7434.00,1.1049
7433.00,1.1061
7432.00,1.1062
7431.00,1.1052
7430.00,1.1038
7429.00,1.1030
7428.00,1.1032
7427.00,1.1037
7426.00,1.1039
7425.00,1.1037
7424.00,1.1034
7423.00,1.1029
7422.00,1.1014
7421.00,1.0979
7420.00,1.0924
7419.00,1.0852
7418.00,1.0774
7417.00,1.0695
7416.00,1.0619
7415.00,1.0549
7414.00,1.0483
7413.00,1.0421
7412.00,1.0364
7411.00,1.0312
7410.00,1.0264
7409.00,1.0219
7408.00,1.0180
7407.00,1.0151
7406.00,1.0134
7405.00,1.0119
7404.00,1.0096
7403.00,1.0061
7402.00,1.0018
7401.00,0.9973
7400.00,0.9923
7399.00,0.9865
7398.00,0.9800
7397.00,0.9734
7396.00,0.9674
7395.00,0.9621
7394.00,0.9571
7393.00,0.9514
7392.00,0.9450
7391.00,0.9382
7390.00,0.9315
7389.00,0.9251
7388.00,0.9185
7387.00,0.9117
7386.00,0.9049
7385.00,0.8984
7384.00,0.8923
7383.00,0.8859
7382.00,0.8788
7381.00,0.8713
7380.00,0.8641
7379.00,0.8572
7378.00,0.8503
7377.00,0.8430
7376.00,0.8353
7375.00,0.8277
7374.00,0.8204
7373.00,0.8133
7372.00,0.8063
7371.00,0.7996
7370.00,0.7934
7369.00,0.7878
7368.00,0.7828
7367.00,0.7786
7366.00,0.7751
7365.00,0.7721
7364.00,0.7697
7363.00,0.7678
7362.00,0.7666
7361.00,0.7661
7360.00,0.7661
7359.00,0.7666
7358.00,0.7674
7357.00,0.7686
7356.00,0.7704
7355.00,0.7728
7354.00,0.7759
7353.00,0.7797
7352.00,0.7843
7351.00,0.7893
7350.00,0.7947
7349.00,0.8004
7348.00,0.8064
7347.00,0.8127
7346.00,0.8194
7345.00,0.8268
7344.00,0.8347
7343.00,0.8432
7342.00,0.8520
7341.00,0.8609
7340.00,0.8699
7339.00,0.8789
7338.00,0.8880
7337.00,0.8972
7336.00,0.9061
7335.00,0.9146
7334.00,0.9231
7333.00,0.9321
7332.00,0.9416
7331.00,0.9510
7330.00,0.9600
7329.00,0.9687
7328.00,0.9778
7327.00,0.9874
7326.00,0.9972
7325.00,1.0067
7324.00,1.0159
7323.00,1.0250
7322.00,1.0341
7321.00,1.0433
7320.00,1.0526
7319.00,1.0621
7318.00,1.0714
7317.00,1.0802
7316.00,1.0884
7315.00,1.0962
7314.00,1.1039
7313.00,1.1109
7312.00,1.1170
7311.00,1.1220
7310.00,1.1266
7309.00,1.1317
7308.00,1.1374
7307.00,1.1431
7306.00,1.1484
7305.00,1.1534
7304.00,1.1585
7303.00,1.1636
7302.00,1.1683
7301.00,1.1725
7300.00,1.1766
7299.00,1.1805
7298.00,1.1838
7297.00,1.1863
7296.00,1.1883
7295.00,1.1899
7294.00,1.1910
7293.00,1.1913
7292.00,1.1909
7291.00,1.1903
7290.00,1.1897
7289.00,1.1890
7288.00,1.1880
7287.00,1.1866
7286.00,1.1848
7285.00,1.1825
7284.00,1.1795
7283.00,1.1756
7282.00,1.1709
7281.00,1.1659
7280.00,1.1606
7279.00,1.1555
7278.00,1.1504
7277.00,1.1451
7276.00,1.1396
7275.00,1.1338
7274.00,1.1278
7273.00,1.1214
7272.00,1.1143
7271.00,1.1066
7270.00,1.0986
7269.00,1.0904
7268.00,1.0822
7267.00,1.0737
7266.00,1.0652
7265.00,1.0565
7264.00,1.0476
7263.00,1.0383
7262.00,1.0288
7261.00,1.0193
7260.00,1.0097
7259.00,0.9996
7258.00,0.9889
7257.00,0.9780
7256.00,0.9672
7255.00,0.9565
7254.00,0.9459
7253.00,0.9356
7252.00,0.9258
7251.00,0.9164
7250.00,0.9070
7249.00,0.8975
7248.00,0.8880
7247.00,0.8786
7246.00,0.8694
7245.00,0.8604
7244.00,0.8518
7243.00,0.8438
7242.00,0.8363
7241.00,0.8292
7240.00,0.8224
7239.00,0.8161
7238.00,0.8101
7237.00,0.8043
7236.00,0.7989
7235.00,0.7940
7234.00,0.7897
7233.00,0.7863
7232.00,0.7835
7231.00,0.7814
7230.00,0.7797
7229.00,0.7783
7228.00,0.7773
7227.00,0.7771
7226.00,0.7778
7225.00,0.7794
7224.00,0.7816
7223.00,0.7844
7222.00,0.7879
7221.00,0.7923
7220.00,0.7973
7219.00,0.8023
7218.00,0.8072
7217.00,0.8123
7216.00,0.8180
7215.00,0.8243
7214.00,0.8311
7213.00,0.8384
7212.00,0.8460
7211.00,0.8540
7210.00,0.8622
7209.00,0.8707
7208.00,0.8796
7207.00,0.8888
7206.00,0.8980
7205.00,0.9074
7204.00,0.9170
7203.00,0.9267
7202.00,0.9359
7201.00,0.9445
7200.00,0.9528
7199.00,0.9613
7198.00,0.9701
7197.00,0.9789
7196.00,0.9877
7195.00,0.9970
7194.00,1.0066
7193.00,1.0163
7192.00,1.0255
7191.00,1.0344
7190.00,1.0430
7189.00,1.0514
7188.00,1.0595
7187.00,1.0671
7186.00,1.0742
7185.00,1.0809
7184.00,1.0874
7183.00,1.0939
7182.00,1.1005
7181.00,1.1074
7180.00,1.1144
7179.00,1.1212
7178.00,1.1273
7177.00,1.1325
7176.00,1.1370
7175.00,1.1410
7174.00,1.1449
7173.00,1.1484
7172.00,1.1515
7171.00,1.1540
7170.00,1.1562
7169.00,1.1582
7168.00,1.1601
7167.00,1.1618
7166.00,1.1634
7165.00,1.1646
7164.00,1.1658
7163.00,1.1670
7162.00,1.1681
7161.00,1.1689
7160.00,1.1690
7159.00,1.1684
7158.00,1.1672
7157.00,1.1656
7156.00,1.1636
7155.00,1.1611
7154.00,1.1583
7153.00,1.1553
7152.00,1.1522
7151.00,1.1486
7150.00,1.1444
7149.00,1.1396
7148.00,1.1346
7147.00,1.1297
7146.00,1.1249
7145.00,1.1199
7144.00,1.1144
7143.00,1.1088
7142.00,1.1032
7141.00,1.0973
7140.00,1.0908
7139.00,1.0839
7138.00,1.0766
7137.00,1.0690
7136.00,1.0607
7135.00,1.0520
7134.00,1.0431
7133.00,1.0343
7132.00,1.0254
7131.00,1.0160
7130.00,1.0064
7129.00,0.9970
7128.00,0.9878
7127.00,0.9787
7126.00,0.9693
7125.00,0.9595
7124.00,0.9495
7123.00,0.9396
7122.00,0.9299
7121.00,0.9204
7120.00,0.9108
7119.00,0.9009
7118.00,0.8910
7117.00,0.8813
7116.00,0.8718
7115.00,0.8624
7114.00,0.8533
7113.00,0.8447
7112.00,0.8366
7111.00,0.8292
7110.00,0.8221
7109.00,0.8154
7108.00,0.8091
7107.00,0.8032
7106.00,0.7978
7105.00,0.7929
7104.00,0.7884
7103.00,0.7845
7102.00,0.7812
7101.00,0.7785
7100.00,0.7765
7099.00,0.7749
7098.00,0.7739
7097.00,0.7735
7096.00,0.7738
7095.00,0.7748
7094.00,0.7764
7093.00,0.7784
7092.00,0.7809
7091.00,0.7838
7090.00,0.7873
7089.00,0.7916
7088.00,0.7966
7087.00,0.8021
7086.00,0.8081
7085.00,0.8148
7084.00,0.8219
7083.00,0.8294
7082.00,0.8371
7081.00,0.8450
7080.00,0.8532
7079.00,0.8618
7078.00,0.8705
7077.00,0.8795
7076.00,0.8888
7075.00,0.8984
7074.00,0.9083
7073.00,0.9181
7072.00,0.9278
7071.00,0.9376
7070.00,0.9475
7069.00,0.9573
7068.00,0.9669
7067.00,0.9764
7066.00,0.9861
7065.00,0.9964
7064.00,1.0071
7063.00,1.0178
7062.00,1.0282
7061.00,1.0382
7060.00,1.0475
7059.00,1.0562
7058.00,1.0641
7057.00,1.0719
7056.00,1.0799
7055.00,1.0883
7054.00,1.0967
7053.00,1.1051
7052.00,1.1135
7051.00,1.1219
7050.00,1.1299
7049.00,1.1371
7048.00,1.1435
7047.00,1.1499
7046.00,1.1563
7045.00,1.1626
7044.00,1.1682
7043.00,1.1732
7042.00,1.1777
7041.00,1.1819
7040.00,1.1856
7039.00,1.1888
7038.00,1.1918
7037.00,1.1946
7036.00,1.1972
7035.00,1.1995
7034.00,1.2014
7033.00,1.2030
7032.00,1.2043
7031.00,1.2050
7030.00,1.2053
7029.00,1.2057
7028.00,1.2063
7027.00,1.2065
7026.00,1.2058
7025.00,1.2043
7024.00,1.2021
7023.00,1.1995
7022.00,1.1967
7021.00,1.1938
7020.00,1.1907
7019.00,1.1873
7018.00,1.1833
7017.00,1.1789
7016.00,1.1740
7015.00,1.1686
7014.00,1.1628
7013.00,1.1566
7012.00,1.1501
7011.00,1.1433
7010.00,1.1361
7009.00,1.1287
7008.00,1.1208
7007.00,1.1124
7006.00,1.1034
7005.00,1.0942
7004.00,1.0852
7003.00,1.0765
7002.00,1.0676
7001.00,1.0581
7000.00,1.0479
6999.00,1.0374
6998.00,1.0265
6997.00,1.0153
6996.00,1.0038
6995.00,0.9924
6994.00,0.9813
6993.00,0.9706
6992.00,0.9600
6991.00,0.9495
6990.00,0.9391
6989.00,0.9287
6988.00,0.9183
6987.00,0.9077
6986.00,0.8972
6985.00,0.8869
6984.00,0.8769
6983.00,0.8673
6982.00,0.8583
6981.00,0.8498
6980.00,0.8416
6979.00,0.8336
6978.00,0.8258
6977.00,0.8185
6976.00,0.8118
6975.00,0.8055
6974.00,0.7998
6973.00,0.7945
6972.00,0.7900
6971.00,0.7864
6970.00,0.7834
6969.00,0.7810
6968.00,0.7790
6967.00,0.7774
6966.00,0.7764
6965.00,0.7759
6964.00,0.7760
6963.00,0.7766
6962.00,0.7780
6961.00,0.7803
6960.00,0.7836
6959.00,0.7877
6958.00,0.7923
6957.00,0.7975
6956.00,0.8030
6955.00,0.8088
6954.00,0.8150
6953.00,0.8217
6952.00,0.8289
6951.00,0.8365
6950.00,0.8445
6949.00,0.8529
6948.00,0.8616
6947.00,0.8706
6946.00,0.8798
6945.00,0.8892
6944.00,0.8985
6943.00,0.9079
6942.00,0.9175
6941.00,0.9275
6940.00,0.9378
6939.00,0.9480
6938.00,0.9581
6937.00,0.9681
6936.00,0.9782
6935.00,0.9883
6934.00,0.9981
6933.00,1.0076
6932.00,1.0168
6931.00,1.0261
6930.00,1.0356
6929.00,1.0452
6928.00,1.0543
6927.00,1.0631
6926.00,1.0717
6925.00,1.0803
6924.00,1.0886
6923.00,1.0965
6922.00,1.1041
6921.00,1.1118
6920.00,1.1196
6919.00,1.1272
6918.00,1.1346
6917.00,1.1416
6916.00,1.1482
6915.00,1.1541
6914.00,1.1592
6913.00,1.1638
6912.00,1.1679
6911.00,1.1719
6910.00,1.1760
6909.00,1.1804
6908.00,1.1848
6907.00,1.1885
6906.00,1.1911
6905.00,1.1929
6904.00,1.1944
6903.00,1.1956
6902.00,1.1964
6901.00,1.1966
6900.00,1.1967
6899.00,1.1968
6898.00,1.1970
6897.00,1.1972
6896.00,1.1969
6895.00,1.1962
6894.00,1.1948
6893.00,1.1929
6892.00,1.1903
6891.00,1.1870
6890.00,1.1830
6889.00,1.1785
6888.00,1.1734
6887.00,1.1680
6886.00,1.1628
6885.00,1.1576
6884.00,1.1522
6883.00,1.1464
6882.00,1.1404
6881.00,1.1346
6880.00,1.1288
6879.00,1.1225
6878.00,1.1155
6877.00,1.1079
6876.00,1.1001
6875.00,1.0918
6874.00,1.0830
6873.00,1.0739
6872.00,1.0648
6871.00,1.0558
6870.00,1.0467
6869.00,1.0372
6868.00,1.0273
6867.00,1.0172
6866.00,1.0068
6865.00,0.9964
6864.00,0.9858
6863.00,0.9753
6862.00,0.9648
6861.00,0.9544
6860.00,0.9440
6859.00,0.9335
6858.00,0.9228
6857.00,0.9121
6856.00,0.9016
6855.00,0.8913
6854.00,0.8813
6853.00,0.8714
6852.00,0.8619
6851.00,0.8525
6850.00,0.8436
6849.00,0.8350
6848.00,0.8266
6847.00,0.8188
6846.00,0.8116
6845.00,0.8051
6844.00,0.7992
6843.00,0.7938
6842.00,0.7888
6841.00,0.7844
6840.00,0.7805
6839.00,0.7770
6838.00,0.7739
6837.00,0.7713
6836.00,0.7695
6835.00,0.7684
6834.00,0.7681
6833.00,0.7686
6832.00,0.7699
6831.00,0.7717
6830.00,0.7743
6829.00,0.7775
6828.00,0.7814
6827.00,0.7857
6826.00,0.7905
6825.00,0.7958
6824.00,0.8018
6823.00,0.8086
6822.00,0.8159
6821.00,0.8236
6820.00,0.8315
6819.00,0.8398
6818.00,0.8483
6817.00,0.8570
6816.00,0.8659
6815.00,0.8750
6814.00,0.8844
6813.00,0.8945
6812.00,0.9049
6811.00,0.9154
6810.00,0.9257
6809.00,0.9358
6808.00,0.9460
6807.00,0.9563
6806.00,0.9667
6805.00,0.9772
6804.00,0.9879
6803.00,0.9987
6802.00,1.0094
6801.00,1.0197
6800.00,1.0293
6799.00,1.0387
6798.00,1.0480
6797.00,1.0576
6796.00,1.0672
6795.00,1.0768
6794.00,1.0862
6793.00,1.0956
6792.00,1.1049
6791.00,1.1137
6790.00,1.1219
6789.00,1.1295
6788.00,1.1368
6787.00,1.1441
6786.00,1.1512
6785.00,1.1579
6784.00,1.1643
6783.00,1.1704
6782.00,1.1764
6781.00,1.1821
6780.00,1.1875
6779.00,1.1924
6778.00,1.1970
6777.00,1.2014
6776.00,1.2057
6775.00,1.2099
6774.00,1.2135
6773.00,1.2162
6772.00,1.2181
6771.00,1.2194
6770.00,1.2203
6769.00,1.2208
6768.00,1.2209
6767.00,1.2207
6766.00,1.2201
6765.00,1.2194
6764.00,1.2183
6763.00,1.2170
6762.00,1.2152
6761.00,1.2128
6760.00,1.2100
6759.00,1.2074
6758.00,1.2048
6757.00,1.2016
6756.00,1.1977
6755.00,1.1931
6754.00,1.1884
6753.00,1.1836
6752.00,1.1782
6751.00,1.1719
6750.00,1.1649
6749.00,1.1577
6748.00,1.1502
6747.00,1.1425
6746.00,1.1344
6745.00,1.1260
6744.00,1.1172
6743.00,1.1081
6742.00,1.0988
6741.00,1.0891
6740.00,1.0791
6739.00,1.0689
6738.00,1.0586
6737.00,1.0484
6736.00,1.0381
6735.00,1.0275
6734.00,1.0166
6733.00,1.0055
6732.00,0.9942
6731.00,0.9829
6730.00,0.9715
6729.00,0.9601
6728.00,0.9488
6727.00,0.9377
6726.00,0.9266
6725.00,0.9157
6724.00,0.9047
6723.00,0.8939
6722.00,0.8834
6721.00,0.8733
6720.00,0.8635
6719.00,0.8538
6718.00,0.8444
6717.00,0.8357
6716.00,0.8275
6715.00,0.8197
6714.00,0.8124
6713.00,0.8054
6712.00,0.7990
6711.00,0.7932
6710.00,0.7880
6709.00,0.7834
6708.00,0.7795
6707.00,0.7762
6706.00,0.7736
6705.00,0.7720
6704.00,0.7711
6703.00,0.7708
6702.00,0.7710
6701.00,0.7717
6700.00,0.7732
6699.00,0.7752
6698.00,0.7780
6697.00,0.7814
6696.00,0.7856
6695.00,0.7904
6694.00,0.7958
6693.00,0.8018
6692.00,0.8084
6691.00,0.8156
6690.00,0.8232
6689.00,0.8311
6688.00,0.8394
6687.00,0.8482
6686.00,0.8575
6685.00,0.8670
6684.00,0.8765
6683.00,0.8861
6682.00,0.8959
6681.00,0.9061
6680.00,0.9163
6679.00,0.9263
6678.00,0.9362
6677.00,0.9463
6676.00,0.9567
6675.00,0.9675
6674.00,0.9783
6673.00,0.9892
6672.00,1.0000
6671.00,1.0107
6670.00,1.0210
6669.00,1.0310
6668.00,1.0407
6667.00,1.0503
6666.00,1.0599
6665.00,1.0692
6664.00,1.0782
6663.00,1.0871
6662.00,1.0961
6661.00,1.1050
6660.00,1.1137
6659.00,1.1217
6658.00,1.1295
6657.00,1.1371
6656.00,1.1447
6655.00,1.1517
6654.00,1.1582
6653.00,1.1644
6652.00,1.1704
6651.00,1.1759
6650.00,1.1807
6649.00,1.1850
6648.00,1.1888
6647.00,1.1923
6646.00,1.1955
6645.00,1.1986
6644.00,1.2014
6643.00,1.2038
6642.00,1.2058
6641.00,1.2076
6640.00,1.2092
6639.00,1.2104
6638.00,1.2111
6637.00,1.2116
6636.00,1.2116
6635.00,1.2107
6634.00,1.2091
6633.00,1.2071
6632.00,1.2054
6631.00,1.2039
6630.00,1.2021
6629.00,1.1997
6628.00,1.1968
6627.00,1.1933
6626.00,1.1893
6625.00,1.1848
6624.00,1.1799
6623.00,1.1745
6622.00,1.1688
6621.00,1.1628
6620.00,1.1567
6619.00,1.1504
6618.00,1.1436
6617.00,1.1362
6616.00,1.1287
6615.00,1.1210
6614.00,1.1131
6613.00,1.1046
6612.00,1.0958
6611.00,1.0869
6610.00,1.0780
6609.00,1.0689
6608.00,1.0593
6607.00,1.0491
6606.00,1.0386
6605.00,1.0280
6604.00,1.0173
6603.00,1.0065
6602.00,0.9957
6601.00,0.9849
6600.00,0.9741
6599.00,0.9633
6598.00,0.9525
6597.00,0.9418
6596.00,0.9310
6595.00,0.9201
6594.00,0.9093
6593.00,0.8985
6592.00,0.8877
6591.00,0.8771
6590.00,0.8669
6589.00,0.8572
6588.00,0.8478
6587.00,0.8388
6586.00,0.8301
6585.00,0.8217
6584.00,0.8137
6583.00,0.8062
6582.00,0.7992
6581.00,0.7930
6580.00,0.7872
6579.00,0.7819
6578.00,0.7772
6577.00,0.7732
6576.00,0.7699
6575.00,0.7672
6574.00,0.7652
6573.00,0.7639
6572.00,0.7634
6571.00,0.7636
6570.00,0.7643
6569.00,0.7658
6568.00,0.7679
6567.00,0.7709
6566.00,0.7746
6565.00,0.7789
6564.00,0.7838
6563.00,0.7892
6562.00,0.7952
6561.00,0.8017
6560.00,0.8089
6559.00,0.8167
6558.00,0.8249
6557.00,0.8337
6556.00,0.8429
6555.00,0.8525
6554.00,0.8624
6553.00,0.8724
6552.00,0.8825
6551.00,0.8926
6550.00,0.9031
6549.00,0.9138
6548.00,0.9248
6547.00,0.9359
6546.00,0.9471
6545.00,0.9582
6544.00,0.9692
6543.00,0.9800
6542.00,0.9911
6541.00,1.0025
6540.00,1.0139
6539.00,1.0252
6538.00,1.0364
6537.00,1.0473
6536.00,1.0578
6535.00,1.0678
6534.00,1.0774
6533.00,1.0869
6532.00,1.0965
6531.00,1.1059
6530.00,1.1152
6529.00,1.1243
6528.00,1.1334
6527.00,1.1423
6526.00,1.1508
6525.00,1.1589
6524.00,1.1665
6523.00,1.1738
6522.00,1.1807
6521.00,1.1872
6520.00,1.1933
6519.00,1.1991
6518.00,1.2051
6517.00,1.2112
6516.00,1.2168
6515.00,1.2213
6514.00,1.2248
6513.00,1.2280
6512.00,1.2309
6511.00,1.2335
6510.00,1.2359
6509.00,1.2384
6508.00,1.2408
6507.00,1.2425
6506.00,1.2434
6505.00,1.2436
6504.00,1.2436
6503.00,1.2431
6502.00,1.2421
6501.00,1.2407
6500.00,1.2392
6499.00,1.2374
6498.00,1.2351
6497.00,1.2322
6496.00,1.2288
6495.00,1.2252
6494.00,1.2212
6493.00,1.2172
6492.00,1.2130
6491.00,1.2082
6490.00,1.2024
6489.00,1.1957
6488.00,1.1886
6487.00,1.1811
6486.00,1.1732
6485.00,1.1650
6484.00,1.1567
6483.00,1.1488
6482.00,1.1411
6481.00,1.1329
6480.00,1.1239
6479.00,1.1141
6478.00,1.1035
6477.00,1.0926
6476.00,1.0813
6475.00,1.0699
6474.00,1.0586
6473.00,1.0476
6472.00,1.0365
6471.00,1.0253
6470.00,1.0137
6469.00,1.0020
6468.00,0.9901
6467.00,0.9782
6466.00,0.9662
6465.00,0.9543
6464.00,0.9424
6463.00,0.9305
6462.00,0.9187
6461.00,0.9068
6460.00,0.8951
6459.00,0.8837
6458.00,0.8729
6457.00,0.8626
6456.00,0.8527
6455.00,0.8431
6454.00,0.8339
6453.00,0.8252
6452.00,0.8167
6451.00,0.8086
6450.00,0.8011
6449.00,0.7942
6448.00,0.7882
6447.00,0.7830
6446.00,0.7785
6445.00,0.7746
6444.00,0.7714
6443.00,0.7690
6442.00,0.7674
6441.00,0.7665
6440.00,0.7664
6439.00,0.7669
6438.00,0.7682
6437.00,0.7702
6436.00,0.7727
6435.00,0.7759
6434.00,0.7799
6433.00,0.7847
6432.00,0.7901
6431.00,0.7962
6430.00,0.8029
6429.00,0.8103
6428.00,0.8181
6427.00,0.8263
6426.00,0.8348
6425.00,0.8439
6424.00,0.8534
6423.00,0.8633
6422.00,0.8734
6421.00,0.8838
6420.00,0.8943
6419.00,0.9049
6418.00,0.9155
6417.00,0.9263
6416.00,0.9374
6415.00,0.9487
6414.00,0.9602
6413.00,0.9718
6412.00,0.9835
6411.00,0.9951
6410.00,1.0063
6409.00,1.0173
6408.00,1.0281
6407.00,1.0388
6406.00,1.0493
6405.00,1.0597
6404.00,1.0699
6403.00,1.0798
6402.00,1.0893
6401.00,1.0985
6400.00,1.1075
6399.00,1.1163
6398.00,1.1250
6397.00,1.1337
6396.00,1.1423
6395.00,1.1506
6394.00,1.1585
6393.00,1.1660
6392.00,1.1729
6391.00,1.1790
6390.00,1.1848
6389.00,1.1905
6388.00,1.1963
6387.00,1.2021
6386.00,1.2076
6385.00,1.2127
6384.00,1.2170
6383.00,1.2206
6382.00,1.2233
6381.00,1.2254
6380.00,1.2272
6379.00,1.2287
6378.00,1.2301
6377.00,1.2314
6376.00,1.2325
6375.00,1.2331
6374.00,1.2332
6373.00,1.2329
6372.00,1.2325
6371.00,1.2320
6370.00,1.2311
6369.00,1.2295
6368.00,1.2274
6367.00,1.2248
6366.00,1.2216
6365.00,1.2179
6364.00,1.2139
6363.00,1.2098
6362.00,1.2053
6361.00,1.2004
6360.00,1.1952
6359.00,1.1894
6358.00,1.1831
6357.00,1.1763
6356.00,1.1695
6355.00,1.1627
6354.00,1.1557
6353.00,1.1481
6352.00,1.1401
6351.00,1.1318
6350.00,1.1233
6349.00,1.1144
6348.00,1.1048
6347.00,1.0947
6346.00,1.0845
6345.00,1.0742
6344.00,1.0635
6343.00,1.0524
6342.00,1.0412
6341.00,1.0302
6340.00,1.0192
6339.00,1.0079
6338.00,0.9962
6337.00,0.9844
6336.00,0.9729
6335.00,0.9614
6334.00,0.9498
6333.00,0.9382
6332.00,0.9266
6331.00,0.9150
6330.00,0.9032
6329.00,0.8915
6328.00,0.8799
6327.00,0.8688
6326.00,0.8583
6325.00,0.8482
6324.00,0.8384
6323.00,0.8291
6322.00,0.8202
6321.00,0.8118
6320.00,0.8039
6319.00,0.7964
6318.00,0.7896
6317.00,0.7834
6316.00,0.7780
6315.00,0.7732
6314.00,0.7693
6313.00,0.7662
6312.00,0.7637
6311.00,0.7620
6310.00,0.7609
6309.00,0.7605
6308.00,0.7608
6307.00,0.7619
6306.00,0.7638
6305.00,0.7668
6304.00,0.7706
6303.00,0.7751
6302.00,0.7802
6301.00,0.7859
6300.00,0.7922
6299.00,0.7990
6298.00,0.8063
6297.00,0.8140
6296.00,0.8223
6295.00,0.8314
6294.00,0.8410
6293.00,0.8511
6292.00,0.8616
6291.00,0.8722
6290.00,0.8831
6289.00,0.8943
6288.00,0.9055
6287.00,0.9168
6286.00,0.9281
6285.00,0.9396
6284.00,0.9513
6283.00,0.9631
6282.00,0.9749
6281.00,0.9866
6280.00,0.9983
6279.00,1.0099
6278.00,1.0216
6277.00,1.0333
6276.00,1.0449
6275.00,1.0563
6274.00,1.0675
6273.00,1.0784
6272.00,1.0892
6271.00,1.0996
6270.00,1.1098
6269.00,1.1196
6268.00,1.1293
6267.00,1.1390
6266.00,1.1487
6265.00,1.1581
6264.00,1.1671
6263.00,1.1754
6262.00,1.1833
6261.00,1.1908
6260.00,1.1979
6259.00,1.2045
6258.00,1.2107
6257.00,1.2169
6256.00,1.2231
6255.00,1.2290
6254.00,1.2343
6253.00,1.2391
6252.00,1.2435
6251.00,1.2477
6250.00,1.2516
6249.00,1.2551
6248.00,1.2582
6247.00,1.2608
6246.00,1.2629
6245.00,1.2645
6244.00,1.2655
6243.00,1.2658
6242.00,1.2659
6241.00,1.2658
6240.00,1.2654
6239.00,1.2647
6238.00,1.2636
6237.00,1.2620
6236.00,1.2601
6235.00,1.2578
6234.00,1.2549
6233.00,1.2515
6232.00,1.2474
6231.00,1.2427
6230.00,1.2376
6229.00,1.2323
6228.00,1.2265
6227.00,1.2204
6226.00,1.2139
6225.00,1.2072
6224.00,1.2000
6223.00,1.1921
6222.00,1.1835
6221.00,1.1745
6220.00,1.1652
6219.00,1.1556
6218.00,1.1457
6217.00,1.1356
6216.00,1.1255
6215.00,1.1150
6214.00,1.1038
6213.00,1.0921
6212.00,1.0799
6211.00,1.0677
6210.00,1.0555
6209.00,1.0432
6208.00,1.0308
6207.00,1.0184
6206.00,1.0059
6205.00,0.9933
6204.00,0.9805
6203.00,0.9674
6202.00,0.9543
6201.00,0.9414
6200.00,0.9287
6199.00,0.9163
6198.00,0.9042
6197.00,0.8922
6196.00,0.8806
6195.00,0.8692
6194.00,0.8581
6193.00,0.8472
6192.00,0.8367
6191.00,0.8269
6190.00,0.8178
6189.00,0.8093
6188.00,0.8013
6187.00,0.7939
6186.00,0.7872
6185.00,0.7811
6184.00,0.7756
6183.00,0.7708
6182.00,0.7670
6181.00,0.7641
6180.00,0.7620
6179.00,0.7607
6178.00,0.7602
6177.00,0.7607
6176.00,0.7619
6175.00,0.7639
6174.00,0.7666
6173.00,0.7699
6172.00,0.7740
6171.00,0.7788
6170.00,0.7844
6169.00,0.7906
6168.00,0.7975
6167.00,0.8050
6166.00,0.8130
6165.00,0.8216
6164.00,0.8308
6163.00,0.8404
6162.00,0.8504
6161.00,0.8608
6160.00,0.8714
6159.00,0.8823
6158.00,0.8933
6157.00,0.9045
6156.00,0.9161
6155.00,0.9278
6154.00,0.9395
6153.00,0.9512
6152.00,0.9628
6151.00,0.9744
6150.00,0.9861
6149.00,0.9979
6148.00,1.0098
6147.00,1.0218
6146.00,1.0337
6145.00,1.0451
6144.00,1.0561
6143.00,1.0667
6142.00,1.0773
6141.00,1.0879
6140.00,1.0985
6139.00,1.1090
6138.00,1.1192
6137.00,1.1288
6136.00,1.1379
6135.00,1.1464
6134.00,1.1547
6133.00,1.1626
6132.00,1.1703
6131.00,1.1779
6130.00,1.1854
6129.00,1.1928
6128.00,1.1997
6127.00,1.2060
6126.00,1.2118
6125.00,1.2172
6124.00,1.2223
6123.00,1.2269
6122.00,1.2314
6121.00,1.2357
6120.00,1.2399
6119.00,1.2439
6118.00,1.2475
6117.00,1.2504
6116.00,1.2528
6115.00,1.2549
6114.00,1.2565
6113.00,1.2577
6112.00,1.2584
6111.00,1.2586
6110.00,1.2583
6109.00,1.2576
6108.00,1.2563
6107.00,1.2548
6106.00,1.2532
6105.00,1.2516
6104.00,1.2498
6103.00,1.2477
6102.00,1.2451
6101.00,1.2420
6100.00,1.2384
6099.00,1.2341
6098.00,1.2293
6097.00,1.2238
6096.00,1.2178
6095.00,1.2114
6094.00,1.2045
6093.00,1.1974
6092.00,1.1901
6091.00,1.1827
6090.00,1.1749
6089.00,1.1666
6088.00,1.1577
6087.00,1.1483
6086.00,1.1385
6085.00,1.1283
6084.00,1.1179
6083.00,1.1073
6082.00,1.0964
6081.00,1.0852
6080.00,1.0735
6079.00,1.0613
6078.00,1.0490
6077.00,1.0364
6076.00,1.0236
6075.00,1.0108
6074.00,0.9979
6073.00,0.9849
6072.00,0.9719
6071.00,0.9589
6070.00,0.9458
6069.00,0.9329
6068.00,0.9200
6067.00,0.9075
6066.00,0.8952
6065.00,0.8832
6064.00,0.8715
6063.00,0.8602
6062.00,0.8493
6061.00,0.8388
6060.00,0.8286
6059.00,0.8190
6058.00,0.8099
6057.00,0.8015
6056.00,0.7937
6055.00,0.7865
6054.00,0.7801
6053.00,0.7745
6052.00,0.7697
6051.00,0.7656
6050.00,0.7625
6049.00,0.7602
6048.00,0.7588
6047.00,0.7582
6046.00,0.7585
6045.00,0.7596
6044.00,0.7617
6043.00,0.7645
6042.00,0.7682
6041.00,0.7726
6040.00,0.7777
6039.00,0.7836
6038.00,0.7902
6037.00,0.7975
6036.00,0.8053
6035.00,0.8138
6034.00,0.8227
6033.00,0.8322
6032.00,0.8420
6031.00,0.8523
6030.00,0.8630
6029.00,0.8742
6028.00,0.8857
6027.00,0.8975
6026.00,0.9096
6025.00,0.9218
6024.00,0.9340
6023.00,0.9462
6022.00,0.9586
6021.00,0.9712
6020.00,0.9838
6019.00,0.9963
6018.00,1.0089
6017.00,1.0215
6016.00,1.0341
6015.00,1.0465
6014.00,1.0588
6013.00,1.0710
6012.00,1.0829
6011.00,1.0943
6010.00,1.1054
6009.00,1.1161
6008.00,1.1266
6007.00,1.1369
6006.00,1.1471
6005.00,1.1573
6004.00,1.1674
6003.00,1.1772
6002.00,1.1867
6001.00,1.1958
6000.00,1.2047
5999.00,1.2131
5998.00,1.2209
5997.00,1.2280
5996.00,1.2347
5995.00,1.2410
5994.00,1.2467
5993.00,1.2521
5992.00,1.2573
5991.00,1.2624
5990.00,1.2672
5989.00,1.2716
5988.00,1.2756
5987.00,1.2791
5986.00,1.2820
5985.00,1.2842
5984.00,1.2859
5983.00,1.2873
5982.00,1.2889
5981.00,1.2904
5980.00,1.2914
5979.00,1.2914
5978.00,1.2906
5977.00,1.2890
5976.00,1.2870
5975.00,1.2846
5974.00,1.2820
5973.00,1.2795
5972.00,1.2769
5971.00,1.2739
5970.00,1.2701
5969.00,1.2655
5968.00,1.2604
5967.00,1.2551
5966.00,1.2495
5965.00,1.2435
5964.00,1.2371
5963.00,1.2303
5962.00,1.2233
5961.00,1.2159
5960.00,1.2081
5959.00,1.1997
5958.00,1.1908
5957.00,1.1814
5956.00,1.1715
5955.00,1.1611
5954.00,1.1506
5953.00,1.1398
5952.00,1.1287
5951.00,1.1171
5950.00,1.1052
5949.00,1.0929
5948.00,1.0804
5947.00,1.0674
5946.00,1.0542
5945.00,1.0409
5944.00,1.0277
5943.00,1.0144
5942.00,1.0008
5941.00,0.9870
5940.00,0.9731
5939.00,0.9593
5938.00,0.9456
5937.00,0.9322
5936.00,0.9189
5935.00,0.9061
5934.00,0.8936
5933.00,0.8813
5932.00,0.8694
5931.00,0.8577
5930.00,0.8465
5929.00,0.8360
5928.00,0.8260
5927.00,0.8166
5926.00,0.8078
5925.00,0.7997
5924.00,0.7922
5923.00,0.7856
5922.00,0.7798
5921.00,0.7749
5920.00,0.7708
5919.00,0.7676
5918.00,0.7653
5917.00,0.7639
5916.00,0.7634
5915.00,0.7637
5914.00,0.7649
5913.00,0.7670
5912.00,0.7700
5911.00,0.7738
5910.00,0.7786
5909.00,0.7841
5908.00,0.7905
5907.00,0.7976
5906.00,0.8055
5905.00,0.8138
5904.00,0.8227
5903.00,0.8320
5902.00,0.8420
5901.00,0.8526
5900.00,0.8635
5899.00,0.8748
5898.00,0.8864
5897.00,0.8984
5896.00,0.9106
5895.00,0.9230
5894.00,0.9357
5893.00,0.9487
5892.00,0.9617
5891.00,0.9748
5890.00,0.9880
5889.00,1.0011
5888.00,1.0140
5887.00,1.0266
5886.00,1.0392
5885.00,1.0521
5884.00,1.0650
5883.00,1.0777
5882.00,1.0902
5881.00,1.1025
5880.00,1.1143
5879.00,1.1256
5878.00,1.1364
5877.00,1.1472
5876.00,1.1581
5875.00,1.1691
5874.00,1.1798
5873.00,1.1902
5872.00,1.2002
5871.00,1.2098
5870.00,1.2190
5869.00,1.2279
5868.00,1.2366
5867.00,1.2450
5866.00,1.2533
5865.00,1.2610
5864.00,1.2680
5863.00,1.2742
5862.00,1.2800
5861.00,1.2854
5860.00,1.2904
5859.00,1.2949
5858.00,1.2990
5857.00,1.3029
5856.00,1.3065
5855.00,1.3095
5854.00,1.3121
5853.00,1.3144
5852.00,1.3166
5851.00,1.3183
5850.00,1.3193
5849.00,1.3195
5848.00,1.3192
5847.00,1.3184
5846.00,1.3172
5845.00,1.3157
5844.00,1.3139
5843.00,1.3117
5842.00,1.3092
5841.00,1.3062
5840.00,1.3028
5839.00,1.2990
5838.00,1.2950
5837.00,1.2905
5836.00,1.2857
5835.00,1.2803
5834.00,1.2743
5833.00,1.2677
5832.00,1.2604
5831.00,1.2529
5830.00,1.2451
5829.00,1.2370
5828.00,1.2284
5827.00,1.2193
5826.00,1.2098
5825.00,1.2002
5824.00,1.1901
5823.00,1.1795
5822.00,1.1685
5821.00,1.1571
5820.00,1.1454
5819.00,1.1331
5818.00,1.1206
5817.00,1.1077
5816.00,1.0947
5815.00,1.0816
5814.00,1.0682
5813.00,1.0547
5812.00,1.0408
5811.00,1.0267
5810.00,1.0125
5809.00,0.9983
5808.00,0.9842
5807.00,0.9702
5806.00,0.9564
5805.00,0.9428
5804.00,0.9295
5803.00,0.9164
5802.00,0.9035
5801.00,0.8910
5800.00,0.8788
5799.00,0.8669
5798.00,0.8554
5797.00,0.8444
5796.00,0.8340
5795.00,0.8242
5794.00,0.8151
5793.00,0.8068
5792.00,0.7993
5791.00,0.7925
5790.00,0.7865
5789.00,0.7813
5788.00,0.7770
5787.00,0.7736
5786.00,0.7710
5785.00,0.7694
5784.00,0.7688
5783.00,0.7692
5782.00,0.7705
5781.00,0.7729
5780.00,0.7761
5779.00,0.7802
5778.00,0.7852
5777.00,0.7910
5776.00,0.7976
5775.00,0.8049
5774.00,0.8129
5773.00,0.8217
5772.00,0.8311
5771.00,0.8412
5770.00,0.8518
5769.00,0.8629
5768.00,0.8743
5767.00,0.8861
5766.00,0.8983
5765.00,0.9108
5764.00,0.9236
5763.00,0.9366
5762.00,0.9497
5761.00,0.9629
5760.00,0.9762
5759.00,0.9896
5758.00,1.0031
5757.00,1.0167
5756.00,1.0301
5755.00,1.0433
5754.00,1.0563
5753.00,1.0691
5752.00,1.0820
5751.00,1.0948
5750.00,1.1074
5749.00,1.1198
5748.00,1.1320
5747.00,1.1440
5746.00,1.1559
5745.00,1.1675
5744.00,1.1788
5743.00,1.1900
5742.00,1.2009
5741.00,1.2114
5740.00,1.2213
5739.00,1.2306
5738.00,1.2395
5737.00,1.2480
5736.00,1.2560
5735.00,1.2637
5734.00,1.2713
5733.00,1.2787
5732.00,1.2857
5731.00,1.2918
5730.00,1.2974
5729.00,1.3026
5728.00,1.3075
5727.00,1.3121
5726.00,1.3166
5725.00,1.3210
5724.00,1.3249
5723.00,1.3280
5722.00,1.3303
5721.00,1.3319
5720.00,1.3330
5719.00,1.3336
5718.00,1.3336
5717.00,1.3332
5716.00,1.3327
5715.00,1.3321
5714.00,1.3314
5713.00,1.3307
5712.00,1.3296
5711.00,1.3280
5710.00,1.3256
5709.00,1.3222
5708.00,1.3180
5707.00,1.3133
5706.00,1.3084
5705.00,1.3033
5704.00,1.2980
5703.00,1.2922
5702.00,1.2857
5701.00,1.2785
5700.00,1.2706
5699.00,1.2624
5698.00,1.2540
5697.00,1.2455
5696.00,1.2367
5695.00,1.2274
5694.00,1.2172
5693.00,1.2063
5692.00,1.1949
5691.00,1.1832
5690.00,1.1714
5689.00,1.1595
5688.00,1.1472
5687.00,1.1346
5686.00,1.1213
5685.00,1.1075
5684.00,1.0933
5683.00,1.0790
5682.00,1.0647
5681.00,1.0504
5680.00,1.0360
5679.00,1.0214
5678.00,1.0068
5677.00,0.9920
5676.00,0.9773
5675.00,0.9626
5674.00,0.9480
5673.00,0.9336
5672.00,0.9195
5671.00,0.9057
5670.00,0.8923
5669.00,0.8794
5668.00,0.8669
5667.00,0.8548
5666.00,0.8432
5665.00,0.8321
5664.00,0.8218
5663.00,0.8122
5662.00,0.8034
5661.00,0.7954
5660.00,0.7881
5659.00,0.7817
5658.00,0.7760
5657.00,0.7713
5656.00,0.7674
5655.00,0.7646
5654.00,0.7628
5653.00,0.7621
5652.00,0.7624
5651.00,0.7637
5650.00,0.7659
5649.00,0.7690
5648.00,0.7730
5647.00,0.7778
5646.00,0.7835
5645.00,0.7901
5644.00,0.7976
5643.00,0.8059
5642.00,0.8148
5641.00,0.8243
5640.00,0.8344
5639.00,0.8449
5638.00,0.8558
5637.00,0.8674
5636.00,0.8795
5635.00,0.8922
5634.00,0.9052
5633.00,0.9185
5632.00,0.9318
5631.00,0.9452
5630.00,0.9586
5629.00,0.9719
5628.00,0.9854
5627.00,0.9989
5626.00,1.0127
5625.00,1.0265
5624.00,1.0403
5623.00,1.0539
5622.00,1.0673
5621.00,1.0806
5620.00,1.0936
5619.00,1.1065
5618.00,1.1194
5617.00,1.1323
5616.00,1.1451
5615.00,1.1575
5614.00,1.1695
5613.00,1.1811
5612.00,1.1924
5611.00,1.2031
5610.00,1.2133
5609.00,1.2232
5608.00,1.2328
5607.00,1.2423
5606.00,1.2514
5605.00,1.2604
5604.00,1.2691
5603.00,1.2774
5602.00,1.2852
5601.00,1.2923
5600.00,1.2989
5599.00,1.3052
5598.00,1.3110
5597.00,1.3166
5596.00,1.3218
5595.00,1.3267
5594.00,1.3311
5593.00,1.3348
5592.00,1.3380
5591.00,1.3407
5590.00,1.3429
5589.00,1.3446
5588.00,1.3460
5587.00,1.3470
5586.00,1.3474
5585.00,1.3472
5584.00,1.3464
5583.00,1.3453
5582.00,1.3437
5581.00,1.3418
5580.00,1.3394
5579.00,1.3367
5578.00,1.3337
5577.00,1.3303
5576.00,1.3263
5575.00,1.3218
5574.00,1.3168
5573.00,1.3115
5572.00,1.3058
5571.00,1.2998
5570.00,1.2933
5569.00,1.2861
5568.00,1.2783
5567.00,1.2697
5566.00,1.2604
5565.00,1.2507
5564.00,1.2408
5563.00,1.2307
5562.00,1.2203
5561.00,1.2094
5560.00,1.1980
5559.00,1.1861
5558.00,1.1736
5557.00,1.1608
5556.00,1.1478
5555.00,1.1346
5554.00,1.1211
5553.00,1.1073
5552.00,1.0930
5551.00,1.0784
5550.00,1.0634
5549.00,1.0482
5548.00,1.0329
5547.00,1.0176
5546.00,1.0023
5545.00,0.9869
5544.00,0.9714
5543.00,0.9560
5542.00,0.9409
5541.00,0.9262
5540.00,0.9118
5539.00,0.8977
5538.00,0.8840
5537.00,0.8708
5536.00,0.8579
5535.00,0.8454
5534.00,0.8336
5533.00,0.8224
5532.00,0.8121
5531.00,0.8024
5530.00,0.7937
5529.00,0.7859
5528.00,0.7790
5527.00,0.7730
5526.00,0.7680
5525.00,0.7638
5524.00,0.7606
5523.00,0.7583
5522.00,0.7571
5521.00,0.7570
5520.00,0.7579
5519.00,0.7599
5518.00,0.7629
5517.00,0.7668
5516.00,0.7716
5515.00,0.7773
5514.00,0.7840
5513.00,0.7916
5512.00,0.8000
5511.00,0.8091
5510.00,0.8188
5509.00,0.8291
5508.00,0.8399
5507.00,0.8511
5506.00,0.8629
5505.00,0.8751
5504.00,0.8876
5503.00,0.9005
5502.00,0.9136
5501.00,0.9268
5500.00,0.9402
5499.00,0.9538
5498.00,0.9675
5497.00,0.9812
5496.00,0.9948
5495.00,1.0082
5494.00,1.0216
5493.00,1.0350
5492.00,1.0483
5491.00,1.0615
5490.00,1.0746
5489.00,1.0876
5488.00,1.1004
5487.00,1.1130
5486.00,1.1253
5485.00,1.1375
5484.00,1.1495
5483.00,1.1613
5482.00,1.1731
5481.00,1.1847
5480.00,1.1961
5479.00,1.2071
5478.00,1.2176
5477.00,1.2276
5476.00,1.2373
5475.00,1.2466
5474.00,1.2557
5473.00,1.2645
5472.00,1.2730
5471.00,1.2809
5470.00,1.2886
5469.00,1.2958
5468.00,1.3026
5467.00,1.3089
5466.00,1.3149
5465.00,1.3205
5464.00,1.3255
5463.00,1.3298
5462.00,1.3338
5461.00,1.3375
5460.00,1.3409
5459.00,1.3439
5458.00,1.3463
5457.00,1.3484
5456.00,1.3500
5455.00,1.3512
5454.00,1.3521
5453.00,1.3526
5452.00,1.3527
5451.00,1.3523
5450.00,1.3513
5449.00,1.3497
5448.00,1.3476
5447.00,1.3448
5446.00,1.3416
5445.00,1.3380
5444.00,1.3338
5443.00,1.3291
5442.00,1.3239
5441.00,1.3182
5440.00,1.3122
5439.00,1.3056
5438.00,1.2985
5437.00,1.2911
5436.00,1.2831
5435.00,1.2745
5434.00,1.2654
5433.00,1.2559
5432.00,1.2460
5431.00,1.2357
5430.00,1.2249
5429.00,1.2136
5428.00,1.2017
5427.00,1.1893
5426.00,1.1764
5425.00,1.1633
5424.00,1.1498
5423.00,1.1360
5422.00,1.1218
5421.00,1.1073
5420.00,1.0924
5419.00,1.0772
5418.00,1.0618
5417.00,1.0462
5416.00,1.0304
5415.00,1.0146
5414.00,0.9985
5413.00,0.9825
5412.00,0.9664
5411.00,0.9505
5410.00,0.9348
5409.00,0.9194
5408.00,0.9044
5407.00,0.8896
5406.00,0.8754
5405.00,0.8618
5404.00,0.8488
5403.00,0.8365
5402.00,0.8250
5401.00,0.8142
5400.00,0.8042
5399.00,0.7948
5398.00,0.7863
5397.00,0.7787
5396.00,0.7720
5395.00,0.7664
5394.00,0.7619
5393.00,0.7584
5392.00,0.7560
5391.00,0.7548
5390.00,0.7546
5389.00,0.7556
5388.00,0.7576
5387.00,0.7608
5386.00,0.7651
5385.00,0.7704
5384.00,0.7768
5383.00,0.7840
5382.00,0.7921
5381.00,0.8010
5380.00,0.8106
5379.00,0.8210
5378.00,0.8320
5377.00,0.8438
5376.00,0.8562
5375.00,0.8692
5374.00,0.8827
5373.00,0.8965
5372.00,0.9105
5371.00,0.9249
5370.00,0.9396
5369.00,0.9545
5368.00,0.9695
5367.00,0.9846
5366.00,0.9997
5365.00,1.0149
5364.00,1.0301
5363.00,1.0451
5362.00,1.0599
5361.00,1.0747
5360.00,1.0893
5359.00,1.1038
5358.00,1.1182
5357.00,1.1324
5356.00,1.1462
5355.00,1.1598
5354.00,1.1733
5353.00,1.1865
5352.00,1.1994
5351.00,1.2119
5350.00,1.2240
5349.00,1.2359
5348.00,1.2473
5347.00,1.2582
5346.00,1.2688
5345.00,1.2788
5344.00,1.2885
5343.00,1.2977
5342.00,1.3064
5341.00,1.3148
5340.00,1.3228
5339.00,1.3305
5338.00,1.3378
5337.00,1.3449
5336.00,1.3513
5335.00,1.3570
5334.00,1.3620
5333.00,1.3663
5332.00,1.3701
5331.00,1.3737
5330.00,1.3770
5329.00,1.3799
5328.00,1.3822
5327.00,1.3841
5326.00,1.3855
5325.00,1.3865
5324.00,1.3870
5323.00,1.3872
5322.00,1.3870
5321.00,1.3864
5320.00,1.3854
5319.00,1.3840
5318.00,1.3821
5317.00,1.3795
5316.00,1.3763
5315.00,1.3723
5314.00,1.3677
5313.00,1.3628
5312.00,1.3578
5311.00,1.3524
5310.00,1.3465
5309.00,1.3403
5308.00,1.3337
5307.00,1.3265
5306.00,1.3185
5305.00,1.3097
5304.00,1.3003
5303.00,1.2903
5302.00,1.2799
5301.00,1.2693
5300.00,1.2585
5299.00,1.2475
5298.00,1.2360
5297.00,1.2239
5296.00,1.2112
5295.00,1.1981
5294.00,1.1845
5293.00,1.1705
5292.00,1.1559
5291.00,1.1408
5290.00,1.1252
5289.00,1.1093
5288.00,1.0934
5287.00,1.0774
5286.00,1.0614
5285.00,1.0452
5284.00,1.0289
5283.00,1.0125
5282.00,0.9960
5281.00,0.9796
5280.00,0.9632
5279.00,0.9471
5278.00,0.9312
5277.00,0.9156
5276.00,0.9005
5275.00,0.8859
5274.00,0.8717
5273.00,0.8579
5272.00,0.8447
5271.00,0.8323
5270.00,0.8207
5269.00,0.8100
5268.00,0.8002
5267.00,0.7914
5266.00,0.7835
5265.00,0.7766
5264.00,0.7705
5263.00,0.7654
5262.00,0.7614
5261.00,0.7586
5260.00,0.7570
5259.00,0.7566
5258.00,0.7576
5257.00,0.7598
5256.00,0.7632
5255.00,0.7676
5254.00,0.7730
5253.00,0.7794
5252.00,0.7865
5251.00,0.7945
5250.00,0.8033
5249.00,0.8132
5248.00,0.8240
5247.00,0.8355
5246.00,0.8476
5245.00,0.8603
5244.00,0.8735
5243.00,0.8870
5242.00,0.9009
5241.00,0.9152
5240.00,0.9299
5239.00,0.9448
5238.00,0.9600
5237.00,0.9753
5236.00,0.9906
5235.00,1.0059
5234.00,1.0212
5233.00,1.0364
5232.00,1.0517
5231.00,1.0671
5230.00,1.0824
5229.00,1.0975
5228.00,1.1122
5227.00,1.1267
5226.00,1.1410
5225.00,1.1552
5224.00,1.1692
5223.00,1.1828
5222.00,1.1962
5221.00,1.2092
5220.00,1.2218
5219.00,1.2341
5218.00,1.2462
5217.00,1.2580
5216.00,1.2694
5215.00,1.2803
5214.00,1.2909
5213.00,1.3011
5212.00,1.3108
5211.00,1.3199
5210.00,1.3285
5209.00,1.3367
5208.00,1.3446
5207.00,1.3520
5206.00,1.3592
5205.00,1.3659
5204.00,1.3720
5203.00,1.3774
5202.00,1.3824
5201.00,1.3870
5200.00,1.3914
5199.00,1.3954
5198.00,1.3988
5197.00,1.4017
5196.00,1.4041
5195.00,1.4061
5194.00,1.4076
5193.00,1.4085
5192.00,1.4089
5191.00,1.4087
5190.00,1.4082
5189.00,1.4074
5188.00,1.4063
5187.00,1.4047
5186.00,1.4025
5185.00,1.3996
5184.00,1.3961
5183.00,1.3922
5182.00,1.3879
5181.00,1.3833
5180.00,1.3781
5179.00,1.3721
5178.00,1.3655
5177.00,1.3585
5176.00,1.3510
5175.00,1.3433
5174.00,1.3353
5173.00,1.3268
5172.00,1.3177
5171.00,1.3080
5170.00,1.2977
5169.00,1.2869
5168.00,1.2757
5167.00,1.2638
5166.00,1.2515
5165.00,1.2388
5164.00,1.2255
5163.00,1.2118
5162.00,1.1975
5161.00,1.1829
5160.00,1.1679
5159.00,1.1525
5158.00,1.1366
5157.00,1.1203
5156.00,1.1036
5155.00,1.0867
5154.00,1.0696
5153.00,1.0526
5152.00,1.0355
5151.00,1.0184
5150.00,1.0012
5149.00,0.9838
5148.00,0.9666
5147.00,0.9497
5146.00,0.9331
5145.00,0.9170
5144.00,0.9012
5143.00,0.8858
5142.00,0.8709
5141.00,0.8568
5140.00,0.8434
5139.00,0.8308
5138.00,0.8191
5137.00,0.8083
5136.00,0.7984
5135.00,0.7894
5134.00,0.7815
5133.00,0.7749
5132.00,0.7694
5131.00,0.7652
5130.00,0.7622
5129.00,0.7605
5128.00,0.7600
5127.00,0.7607
5126.00,0.7627
5125.00,0.7659
5124.00,0.7703
5123.00,0.7759
5122.00,0.7827
5121.00,0.7905
5120.00,0.7993
5119.00,0.8090
5118.00,0.8196
5117.00,0.8312
5116.00,0.8435
5115.00,0.8564
5114.00,0.8699
5113.00,0.8839
5112.00,0.8984
5111.00,0.9132
5110.00,0.9284
5109.00,0.9439
5108.00,0.9597
5107.00,0.9758
5106.00,0.9919
5105.00,1.0082
5104.00,1.0245
5103.00,1.0408
5102.00,1.0571
5101.00,1.0735
5100.00,1.0899
5099.00,1.1062
5098.00,1.1221
5097.00,1.1377
5096.00,1.1528
5095.00,1.1677
5094.00,1.1825
5093.00,1.1971
5092.00,1.2115
5091.00,1.2256
5090.00,1.2392
5089.00,1.2524
5088.00,1.2652
5087.00,1.2778
5086.00,1.2899
5085.00,1.3017
5084.00,1.3130
5083.00,1.3238
5082.00,1.3341
5081.00,1.3439
5080.00,1.3532
5079.00,1.3619
5078.00,1.3701
5077.00,1.3778
5076.00,1.3849
5075.00,1.3916
5074.00,1.3979
5073.00,1.4039
5072.00,1.4095
5071.00,1.4148
5070.00,1.4196
5069.00,1.4237
5068.00,1.4273
5067.00,1.4304
5066.00,1.4331
5065.00,1.4354
5064.00,1.4373
5063.00,1.4385
5062.00,1.4389
5061.00,1.4388
5060.00,1.4381
5059.00,1.4372
5058.00,1.4360
5057.00,1.4345
5056.00,1.4324
5055.00,1.4297
5054.00,1.4265
5053.00,1.4228
5052.00,1.4188
5051.00,1.4143
5050.00,1.4093
5049.00,1.4035
5048.00,1.3972
5047.00,1.3904
5046.00,1.3833
5045.00,1.3759
5044.00,1.3680
5043.00,1.3595
5042.00,1.3505
5041.00,1.3407
5040.00,1.3303
5039.00,1.3195
5038.00,1.3082
5037.00,1.2965
5036.00,1.2844
5035.00,1.2719
5034.00,1.2588
5033.00,1.2451
5032.00,1.2308
5031.00,1.2160
5030.00,1.2008
5029.00,1.1851
5028.00,1.1690
5027.00,1.1524
5026.00,1.1353
5025.00,1.1180
5024.00,1.1004
5023.00,1.0826
5022.00,1.0646
5021.00,1.0465
5020.00,1.0282
5019.00,1.0098
5018.00,0.9914
5017.00,0.9733
5016.00,0.9554
5015.00,0.9378
5014.00,0.9205
5013.00,0.9035
5012.00,0.8870
5011.00,0.8710
5010.00,0.8557
5009.00,0.8411
5008.00,0.8275
5007.00,0.8149
5006.00,0.8033
5005.00,0.7927
5004.00,0.7831
5003.00,0.7746
5002.00,0.7672
5001.00,0.7611
5000.00,0.7563
4999.00,0.7530
4998.00,0.7510
4997.00,0.7504
4996.00,0.7511
4995.00,0.7531
4994.00,0.7564
4993.00,0.7610
4992.00,0.7668
4991.00,0.7739
4990.00,0.7821
4989.00,0.7913
4988.00,0.8016
4987.00,0.8127
4986.00,0.8248
4985.00,0.8377
4984.00,0.8513
4983.00,0.8656
4982.00,0.8805
4981.00,0.8958
4980.00,0.9115
4979.00,0.9275
4978.00,0.9439
4977.00,0.9606
4976.00,0.9776
4975.00,0.9947
4974.00,1.0119
4973.00,1.0291
4972.00,1.0462
4971.00,1.0632
4970.00,1.0801
4969.00,1.0969
4968.00,1.1137
4967.00,1.1304
4966.00,1.1471
4965.00,1.1636
4964.00,1.1796
4963.00,1.1951
4962.00,1.2102
4961.00,1.2251
4960.00,1.2398
4959.00,1.2541
4958.00,1.2680
4957.00,1.2816
4956.00,1.2946
4955.00,1.3070
4954.00,1.3191
4953.00,1.3307
4952.00,1.3419
4951.00,1.3524
4950.00,1.3623
4949.00,1.3718
4948.00,1.3811
4947.00,1.3902
4946.00,1.3991
4945.00,1.4075
4944.00,1.4152
4943.00,1.4220
4942.00,1.4281
4941.00,1.4337
4940.00,1.4389
4939.00,1.4437
4938.00,1.4480
4937.00,1.4519
4936.00,1.4552
4935.00,1.4579
4934.00,1.4602
4933.00,1.4618
4932.00,1.4629
4931.00,1.4636
4930.00,1.4637
4929.00,1.4635
4928.00,1.4629
4927.00,1.4616
4926.00,1.4598
4925.00,1.4573
4924.00,1.4544
4923.00,1.4510
4922.00,1.4473
4921.00,1.4434
4920.00,1.4394
4919.00,1.4349
4918.00,1.4299
4917.00,1.4242
4916.00,1.4177
4915.00,1.4106
4914.00,1.4029
4913.00,1.3948
4912.00,1.3863
4911.00,1.3772
4910.00,1.3676
4909.00,1.3576
4908.00,1.3471
4907.00,1.3362
4906.00,1.3245
4905.00,1.3121
4904.00,1.2990
4903.00,1.2854
4902.00,1.2713
4901.00,1.2568
4900.00,1.2418
4899.00,1.2262
4898.00,1.2099
4897.00,1.1931
4896.00,1.1757
4895.00,1.1580
4894.00,1.1398
4893.00,1.1213
4892.00,1.1026
4891.00,1.0837
4890.00,1.0647
4889.00,1.0457
4888.00,1.0267
4887.00,1.0076
4886.00,0.9886
4885.00,0.9698
4884.00,0.9513
4883.00,0.9331
4882.00,0.9153
4881.00,0.8979
4880.00,0.8812
4879.00,0.8652
4878.00,0.8502
4877.00,0.8360
4876.00,0.8228
4875.00,0.8105
4874.00,0.7993
4873.00,0.7893
4872.00,0.7806
4871.00,0.7731
4870.00,0.7670
4869.00,0.7622
4868.00,0.7589
4867.00,0.7569
4866.00,0.7565
4865.00,0.7575
4864.00,0.7600
4863.00,0.7638
4862.00,0.7690
4861.00,0.7756
4860.00,0.7834
4859.00,0.7924
4858.00,0.8025
4857.00,0.8137
4856.00,0.8260
4855.00,0.8391
4854.00,0.8532
4853.00,0.8680
4852.00,0.8834
4851.00,0.8994
4850.00,0.9158
4849.00,0.9327
4848.00,0.9500
4847.00,0.9675
4846.00,0.9851
4845.00,1.0029
4844.00,1.0207
4843.00,1.0386
4842.00,1.0565
4841.00,1.0745
4840.00,1.0923
4839.00,1.1101
4838.00,1.1277
4837.00,1.1450
4836.00,1.1622
4835.00,1.1791
4834.00,1.1959
4833.00,1.2125
4832.00,1.2287
4831.00,1.2445
4830.00,1.2597
4829.00,1.2746
4828.00,1.2890
4827.00,1.3029
4826.00,1.3166
4825.00,1.3299
4824.00,1.3426
4823.00,1.3549
4822.00,1.3665
4821.00,1.3777
4820.00,1.3885
4819.00,1.3988
4818.00,1.4086
4817.00,1.4180
4816.00,1.4268
4815.00,1.4351
4814.00,1.4430
4813.00,1.4504
4812.00,1.4571
4811.00,1.4631
4810.00,1.4684
4809.00,1.4733
4808.00,1.4777
4807.00,1.4817
4806.00,1.4852
4805.00,1.4882
4804.00,1.4907
4803.00,1.4926
4802.00,1.4940
4801.00,1.4948
4800.00,1.4951
4799.00,1.4950
4798.00,1.4948
4797.00,1.4943
4796.00,1.4934
4795.00,1.4917
4794.00,1.4894
4793.00,1.4864
4792.00,1.4830
4791.00,1.4790
4790.00,1.4745
4789.00,1.4694
4788.00,1.4639
4787.00,1.4580
4786.00,1.4517
4785.00,1.4448
4784.00,1.4373
4783.00,1.4292
4782.00,1.4205
4781.00,1.4114
4780.00,1.4019
4779.00,1.3918
4778.00,1.3811
4777.00,1.3699
4776.00,1.3581
4775.00,1.3458
4774.00,1.3329
4773.00,1.3194
4772.00,1.3053
4771.00,1.2905
4770.00,1.2752
4769.00,1.2592
4768.00,1.2428
4767.00,1.2259
4766.00,1.2086
4765.00,1.1908
4764.00,1.1725
4763.00,1.1537
4762.00,1.1344
4761.00,1.1148
4760.00,1.0950
4759.00,1.0751
4758.00,1.0551
4757.00,1.0351
4756.00,1.0150
4755.00,0.9950
4754.00,0.9752
4753.00,0.9557
4752.00,0.9366
4751.00,0.9180
4750.00,0.8999
4749.00,0.8825
4748.00,0.8659
4747.00,0.8500
4746.00,0.8351
4745.00,0.8213
4744.00,0.8086
4743.00,0.7971
4742.00,0.7869
4741.00,0.7781
4740.00,0.7707
4739.00,0.7648
4738.00,0.7604
4737.00,0.7575
4736.00,0.7562
4735.00,0.7564
4734.00,0.7581
4733.00,0.7614
4732.00,0.7662
4731.00,0.7724
4730.00,0.7800
4729.00,0.7890
4728.00,0.7992
4727.00,0.8107
4726.00,0.8233
4725.00,0.8369
4724.00,0.8513
4723.00,0.8665
4722.00,0.8825
4721.00,0.8990
4720.00,0.9161
4719.00,0.9336
4718.00,0.9515
4717.00,0.9698
4716.00,0.9884
4715.00,1.0072
4714.00,1.0263
4713.00,1.0453
4712.00,1.0642
4711.00,1.0830
4710.00,1.1017
4709.00,1.1204
4708.00,1.1389
4707.00,1.1574
4706.00,1.1756
4705.00,1.1936
4704.00,1.2111
4703.00,1.2281
4702.00,1.2446
4701.00,1.2609
4700.00,1.2768
4699.00,1.2926
4698.00,1.3081
4697.00,1.3231
4696.00,1.3377
4695.00,1.3517
4694.00,1.3654
4693.00,1.3788
4692.00,1.3919
4691.00,1.4043
4690.00,1.4161
4689.00,1.4272
4688.00,1.4376
4687.00,1.4473
4686.00,1.4563
4685.00,1.4647
4684.00,1.4725
4683.00,1.4799
4682.00,1.4870
4681.00,1.4940
4680.00,1.5004
4679.00,1.5061
4678.00,1.5109
4677.00,1.5152
4676.00,1.5189
4675.00,1.5223
4674.00,1.5252
4673.00,1.5277
4672.00,1.5297
4671.00,1.5312
4670.00,1.5322
4669.00,1.5329
4668.00,1.5332
4667.00,1.5332
4666.00,1.5328
4665.00,1.5319
4664.00,1.5301
4663.00,1.5274
4662.00,1.5240
4661.00,1.5203
4660.00,1.5165
4659.00,1.5125
4658.00,1.5081
4657.00,1.5029
4656.00,1.4971
4655.00,1.4906
4654.00,1.4837
4653.00,1.4763
4652.00,1.4683
4651.00,1.4598
4650.00,1.4507
4649.00,1.4410
4648.00,1.4308
4647.00,1.4201
4646.00,1.4088
4645.00,1.3971
4644.00,1.3848
4643.00,1.3718
4642.00,1.3580
4641.00,1.3434
4640.00,1.3281
4639.00,1.3124
4638.00,1.2962
4637.00,1.2797
4636.00,1.2626
4635.00,1.2449
4634.00,1.2265
4633.00,1.2076
4632.00,1.1882
4631.00,1.1685
4630.00,1.1484
4629.00,1.1281
4628.00,1.1076
4627.00,1.0868
4626.00,1.0658
4625.00,1.0448
4624.00,1.0238
4623.00,1.0030
4622.00,0.9825
4621.00,0.9624
4620.00,0.9429
4619.00,0.9239
4618.00,0.9056
4617.00,0.8881
4616.00,0.8715
4615.00,0.8559
4614.00,0.8414
4613.00,0.8280
4612.00,0.8158
4611.00,0.8050
4610.00,0.7955
4609.00,0.7876
4608.00,0.7811
4607.00,0.7762
4606.00,0.7728
4605.00,0.7712
4604.00,0.7712
4603.00,0.7728
4602.00,0.7761
4601.00,0.7809
4600.00,0.7873
4599.00,0.7952
4598.00,0.8045
4597.00,0.8152
4596.00,0.8270
4595.00,0.8400
4594.00,0.8540
4593.00,0.8691
4592.00,0.8850
4591.00,0.9017
4590.00,0.9191
4589.00,0.9370
4588.00,0.9553
4587.00,0.9741
4586.00,0.9933
4585.00,1.0127
4584.00,1.0322
4583.00,1.0518
4582.00,1.0713
4581.00,1.0907
4580.00,1.1101
4579.00,1.1295
4578.00,1.1487
4577.00,1.1678
4576.00,1.1867
4575.00,1.2054
4574.00,1.2239
4573.00,1.2419
4572.00,1.2596
4571.00,1.2768
4570.00,1.2938
4569.00,1.3105
4568.00,1.3269
4567.00,1.3427
4566.00,1.3579
4565.00,1.3724
4564.00,1.3864
4563.00,1.3999
4562.00,1.4131
4561.00,1.4258
4560.00,1.4379
4559.00,1.4494
4558.00,1.4602
4557.00,1.4704
4556.00,1.4800
4555.00,1.4890
4554.00,1.4973
4553.00,1.5052
4552.00,1.5127
4551.00,1.5200
4550.00,1.5270
4549.00,1.5336
4548.00,1.5394
4547.00,1.5443
4546.00,1.5484
4545.00,1.5520
4544.00,1.5552
4543.00,1.5581
4542.00,1.5605
4541.00,1.5623
4540.00,1.5634
4539.00,1.5639
4538.00,1.5641
4537.00,1.5640
4536.00,1.5637
4535.00,1.5628
4534.00,1.5613
4533.00,1.5592
4532.00,1.5567
4531.00,1.5537
4530.00,1.5502
4529.00,1.5462
4528.00,1.5415
4527.00,1.5360
4526.00,1.5298
4525.00,1.5232
4524.00,1.5163
4523.00,1.5091
4522.00,1.5014
4521.00,1.4931
4520.00,1.4840
4519.00,1.4744
4518.00,1.4643
4517.00,1.4537
4516.00,1.4425
4515.00,1.4305
4514.00,1.4177
4513.00,1.4042
4512.00,1.3902
4511.00,1.3757
4510.00,1.3606
4509.00,1.3449
4508.00,1.3286
4507.00,1.3117
4506.00,1.2940
4505.00,1.2757
4504.00,1.2566
4503.00,1.2371
4502.00,1.2172
4501.00,1.1969
4500.00,1.1761
4499.00,1.1548
4498.00,1.1330
4497.00,1.1110
4496.00,1.0887
4495.00,1.0663
4494.00,1.0440
4493.00,1.0218
4492.00,0.9999
4491.00,0.9783
4490.00,0.9571
4489.00,0.9365
4488.00,0.9165
4487.00,0.8973
4486.00,0.8791
4485.00,0.8619
4484.00,0.8458
4483.00,0.8311
4482.00,0.8177
4481.00,0.8058
4480.00,0.7954
4479.00,0.7865
4478.00,0.7792
4477.00,0.7736
4476.00,0.7698
4475.00,0.7679
4474.00,0.7678
4473.00,0.7695
4472.00,0.7731
4471.00,0.7784
4470.00,0.7854
4469.00,0.7940
4468.00,0.8043
4467.00,0.8159
4466.00,0.8290
4465.00,0.8432
4464.00,0.8585
4463.00,0.8749
4462.00,0.8922
4461.00,0.9103
4460.00,0.9290
4459.00,0.9484
4458.00,0.9682
4457.00,0.9883
4456.00,1.0088
4455.00,1.0295
4454.00,1.0504
4453.00,1.0714
4452.00,1.0923
4451.00,1.1132
4450.00,1.1340
4449.00,1.1546
4448.00,1.1750
4447.00,1.1952
4446.00,1.2151
4445.00,1.2346
4444.00,1.2539
4443.00,1.2729
4442.00,1.2916
4441.00,1.3099
4440.00,1.3280
4439.00,1.3456
4438.00,1.3627
4437.00,1.3792
4436.00,1.3952
4435.00,1.4105
4434.00,1.4252
4433.00,1.4392
4432.00,1.4526
4431.00,1.4654
4430.00,1.4778
4429.00,1.4899
4428.00,1.5015
4427.00,1.5124
4426.00,1.5227
4425.00,1.5322
4424.00,1.5409
4423.00,1.5490
4422.00,1.5565
4421.00,1.5636
4420.00,1.5702
4419.00,1.5765
4418.00,1.5824
4417.00,1.5880
4416.00,1.5930
4415.00,1.5973
4414.00,1.6008
4413.00,1.6034
4412.00,1.6055
4411.00,1.6073
4410.00,1.6088
4409.00,1.6101
4408.00,1.6107
4407.00,1.6107
4406.00,1.6102
4405.00,1.6093
4404.00,1.6079
4403.00,1.6060
4402.00,1.6036
4401.00,1.6006
4400.00,1.5972
4399.00,1.5934
4398.00,1.5890
4397.00,1.5842
4396.00,1.5789
4395.00,1.5733
4394.00,1.5671
4393.00,1.5604
4392.00,1.5531
4391.00,1.5451
4390.00,1.5365
4389.00,1.5273
4388.00,1.5177
4387.00,1.5078
4386.00,1.4976
4385.00,1.4868
4384.00,1.4755
4383.00,1.4634
4382.00,1.4507
4381.00,1.4376
4380.00,1.4241
4379.00,1.4101
4378.00,1.3957
4377.00,1.3808
4376.00,1.3653
4375.00,1.3492
4374.00,1.3325
4373.00,1.3154
4372.00,1.2978
4371.00,1.2800
4370.00,1.2620
4369.00,1.2436
4368.00,1.2247
4367.00,1.2054
4366.00,1.1858
4365.00,1.1660
4364.00,1.1460
4363.00,1.1259
4362.00,1.1058
4361.00,1.0856
4360.00,1.0656
4359.00,1.0459
4358.00,1.0266
4357.00,1.0077
4356.00,0.9893
4355.00,0.9715
4354.00,0.9546
4353.00,0.9386
4352.00,0.9237
4351.00,0.9100
4350.00,0.8975
4349.00,0.8864
4348.00,0.8767
4347.00,0.8685
4346.00,0.8618
4345.00,0.8567
4344.00,0.8531
4343.00,0.8511
4342.00,0.8506
4341.00,0.8518
4340.00,0.8547
4339.00,0.8593
4338.00,0.8655
4337.00,0.8732
4336.00,0.8825
4335.00,0.8932
4334.00,0.9054
4333.00,0.9189
4332.00,0.9337
4331.00,0.9496
4330.00,0.9665
4329.00,0.9843
4328.00,1.0029
4327.00,1.0220
4326.00,1.0416
4325.00,1.0617
4324.00,1.0821
4323.00,1.1027
4322.00,1.1235
4321.00,1.1444
4320.00,1.1652
4319.00,1.1858
4318.00,1.2063
4317.00,1.2265
4316.00,1.2467
4315.00,1.2668
4314.00,1.2866
4313.00,1.3061
4312.00,1.3251
4311.00,1.3436
4310.00,1.3615
4309.00,1.3791
4308.00,1.3962
4307.00,1.4130
4306.00,1.4293
4305.00,1.4451
4304.00,1.4602
4303.00,1.4746
4302.00,1.4884
4301.00,1.5017
4300.00,1.5146
4299.00,1.5270
4298.00,1.5387
4297.00,1.5497
4296.00,1.5601
4295.00,1.5699
4294.00,1.5792
4293.00,1.5881
4292.00,1.5965
4291.00,1.6045
4290.00,1.6121
4289.00,1.6191
4288.00,1.6256
4287.00,1.6313
4286.00,1.6361
4285.00,1.6403
4284.00,1.6438
4283.00,1.6468
4282.00,1.6494
4281.00,1.6518
4280.00,1.6539
4279.00,1.6558
4278.00,1.6573
4277.00,1.6581
4276.00,1.6581
4275.00,1.6576
4274.00,1.6568
4273.00,1.6556
4272.00,1.6540
4271.00,1.6515
4270.00,1.6484
4269.00,1.6450
4268.00,1.6413
4267.00,1.6373
4266.00,1.6328
4265.00,1.6276
4264.00,1.6216
4263.00,1.6151
4262.00,1.6082
4261.00,1.6009
4260.00,1.5933
4259.00,1.5850
4258.00,1.5758
4257.00,1.5658
4256.00,1.5553
4255.00,1.5443
4254.00,1.5330
4253.00,1.5209
4252.00,1.5081
4251.00,1.4943
4250.00,1.4800
4249.00,1.4651
4248.00,1.4497
4247.00,1.4337
4246.00,1.4170
4245.00,1.3996
4244.00,1.3815
4243.00,1.3627
4242.00,1.3432
4241.00,1.3230
4240.00,1.3022
4239.00,1.2809
4238.00,1.2592
4237.00,1.2371
4236.00,1.2147
4235.00,1.1920
4234.00,1.1692
4233.00,1.1462
4232.00,1.1234
4231.00,1.1007
4230.00,1.0783
4229.00,1.0563
4228.00,1.0348
4227.00,1.0139
4226.00,0.9937
4225.00,0.9745
4224.00,0.9562
4223.00,0.9390
4222.00,0.9228
4221.00,0.9079
4220.00,0.8944
4219.00,0.8823
4218.00,0.8718
4217.00,0.8628
4216.00,0.8555
4215.00,0.8499
4214.00,0.8460
4213.00,0.8438
4212.00,0.8435
4211.00,0.8449
4210.00,0.8482
4209.00,0.8534
4208.00,0.8603
4207.00,0.8691
4206.00,0.8794
4205.00,0.8913
4204.00,0.9047
4203.00,0.9195
4202.00,0.9355
4201.00,0.9525
4200.00,0.9705
4199.00,0.9893
4198.00,1.0088
4197.00,1.0289
4196.00,1.0497
4195.00,1.0708
4194.00,1.0924
4193.00,1.1141
4192.00,1.1359
4191.00,1.1578
4190.00,1.1796
4189.00,1.2014
4188.00,1.2230
4187.00,1.2444
4186.00,1.2654
4185.00,1.2861
4184.00,1.3066
4183.00,1.3268
4182.00,1.3467
4181.00,1.3663
4180.00,1.3854
4179.00,1.4038
4178.00,1.4217
4177.00,1.4391
4176.00,1.4561
4175.00,1.4726
4174.00,1.4887
4173.00,1.5041
4172.00,1.5188
4171.00,1.5328
4170.00,1.5464
4169.00,1.5594
4168.00,1.5720
4167.00,1.5840
4166.00,1.5955
4165.00,1.6064
4164.00,1.6168
4163.00,1.6265
4162.00,1.6355
4161.00,1.6439
4160.00,1.6516
4159.00,1.6585
4158.00,1.6646
4157.00,1.6701
4156.00,1.6753
4155.00,1.6804
4154.00,1.6854
4153.00,1.6901
4152.00,1.6942
4151.00,1.6974
4150.00,1.6998
4149.00,1.7018
4148.00,1.7035
4147.00,1.7048
4146.00,1.7056
4145.00,1.7057
4144.00,1.7050
4143.00,1.7037
4142.00,1.7022
4141.00,1.7003
4140.00,1.6980
4139.00,1.6950
4138.00,1.6914
4137.00,1.6874
4136.00,1.6833
4135.00,1.6789
4134.00,1.6739
4133.00,1.6680
4132.00,1.6612
4131.00,1.6538
4130.00,1.6459
4129.00,1.6379
4128.00,1.6296
4127.00,1.6207
4126.00,1.6111
4125.00,1.6009
4124.00,1.5899
4123.00,1.5782
4122.00,1.5660
4121.00,1.5532
4120.00,1.5397
4119.00,1.5254
4118.00,1.5101
4117.00,1.4940
4116.00,1.4774
4115.00,1.4602
4114.00,1.4426
4113.00,1.4244
4112.00,1.4054
4111.00,1.3856
4110.00,1.3650
4109.00,1.3436
4108.00,1.3216
4107.00,1.2991
4106.00,1.2761
4105.00,1.2526
4104.00,1.2286
4103.00,1.2042
4102.00,1.1797
4101.00,1.1550
4100.00,1.1304
4099.00,1.1060
4098.00,1.0818
4097.00,1.0580
4096.00,1.0346
4095.00,1.0120
4094.00,0.9903
4093.00,0.9697
4092.00,0.9504
4091.00,0.9323
4090.00,0.9157
4089.00,0.9006
4088.00,0.8873
4087.00,0.8758
4086.00,0.8663
4085.00,0.8587
4084.00,0.8531
4083.00,0.8495
4082.00,0.8480
4081.00,0.8487
4080.00,0.8514
4079.00,0.8561
4078.00,0.8629
4077.00,0.8716
4076.00,0.8821
4075.00,0.8944
4074.00,0.9083
4073.00,0.9236
4072.00,0.9403
4071.00,0.9582
4070.00,0.9771
4069.00,0.9970
4068.00,1.0177
4067.00,1.0391
4066.00,1.0611
4065.00,1.0836
4064.00,1.1065
4063.00,1.1296
4062.00,1.1530
4061.00,1.1764
4060.00,1.1999
4059.00,1.2233
4058.00,1.2467
4057.00,1.2697
4056.00,1.2924
4055.00,1.3147
4054.00,1.3366
4053.00,1.3581
4052.00,1.3792
4051.00,1.3998
4050.00,1.4199
4049.00,1.4396
4048.00,1.4590
4047.00,1.4779
4046.00,1.4961
4045.00,1.5135
4044.00,1.5301
4043.00,1.5460
4042.00,1.5615
4041.00,1.5764
4040.00,1.5907
4039.00,1.6042
4038.00,1.6170
4037.00,1.6289
4036.00,1.6402
4035.00,1.6509
4034.00,1.6609
4033.00,1.6704
4032.00,1.6793
4031.00,1.6879
4030.00,1.6960
4029.00,1.7036
4028.00,1.7105
4027.00,1.7168
4026.00,1.7224
4025.00,1.7276
4024.00,1.7323
4023.00,1.7366
4022.00,1.7403
4021.00,1.7433
4020.00,1.7454
4019.00,1.7470
4018.00,1.7482
4017.00,1.7492
4016.00,1.7500
4015.00,1.7503
4014.00,1.7501
4013.00,1.7494
4012.00,1.7481
4011.00,1.7462
4010.00,1.7436
4009.00,1.7404
4008.00,1.7366
4007.00,1.7323
4006.00,1.7276
4005.00,1.7224
4004.00,1.7166
4003.00,1.7102
4002.00,1.7032
4001.00,1.6956
4000.00,1.6871
3999.00,1.6780
3998.00,1.6683
3997.00,1.6583
3996.00,1.6480
3995.00,1.6373
3994.00,1.6259
3993.00,1.6136
3992.00,1.6004
3991.00,1.5865
3990.00,1.5718
3989.00,1.5566
3988.00,1.5408
3987.00,1.5246
3986.00,1.5078
3985.00,1.4905
3984.00,1.4725
3983.00,1.4536
3982.00,1.4341
3981.00,1.4139
3980.00,1.3931
3979.00,1.3717
3978.00,1.3497
3977.00,1.3271
3976.00,1.3039
3975.00,1.2802
3974.00,1.2559
3973.00,1.2311
3972.00,1.2060
3971.00,1.1806
3970.00,1.1551
3969.00,1.1297
3968.00,1.1046
3967.00,1.0801
3966.00,1.0562
3965.00,1.0331
3964.00,1.0110
3963.00,0.9900
3962.00,0.9702
3961.00,0.9520
3960.00,0.9353
3959.00,0.9205
3958.00,0.9074
3957.00,0.8963
3956.00,0.8872
3955.00,0.8801
3954.00,0.8751
3953.00,0.8723
3952.00,0.8715
3951.00,0.8729
3950.00,0.8764
3949.00,0.8819
3948.00,0.8892
3947.00,0.8982
3946.00,0.9088
3945.00,0.9213
3944.00,0.9356
3943.00,0.9516
3942.00,0.9691
3941.00,0.9877
3940.00,1.0072
3939.00,1.0275
3938.00,1.0486
3937.00,1.0703
3936.00,1.0926
3935.00,1.1153
3934.00,1.1383
3933.00,1.1619
3932.00,1.1860
3931.00,1.2104
3930.00,1.2348
3929.00,1.2589
3928.00,1.2825
3927.00,1.3056
3926.00,1.3286
3925.00,1.3513
3924.00,1.3737
3923.00,1.3956
3922.00,1.4169
3921.00,1.4378
3920.00,1.4584
3919.00,1.4790
3918.00,1.4993
3917.00,1.5193
3916.00,1.5387
3915.00,1.5574
3914.00,1.5752
3913.00,1.5922
3912.00,1.6086
3911.00,1.6242
3910.00,1.6388
3909.00,1.6521
3908.00,1.6642
3907.00,1.6752
3906.00,1.6857
3905.00,1.6957
3904.00,1.7054
3903.00,1.7151
3902.00,1.7248
3901.00,1.7346
3900.00,1.7439
3899.00,1.7525
3898.00,1.7603
3897.00,1.7672
3896.00,1.7732
3895.00,1.7784
3894.00,1.7829
3893.00,1.7871
3892.00,1.7910
3891.00,1.7944
3890.00,1.7970
3889.00,1.7987
3888.00,1.7999
3887.00,1.8008
3886.00,1.8016
3885.00,1.8018
3884.00,1.8013
3883.00,1.8001
3882.00,1.7984
3881.00,1.7964
3880.00,1.7943
3879.00,1.7918
3878.00,1.7888
3877.00,1.7851
3876.00,1.7807
3875.00,1.7755
3874.00,1.7694
3873.00,1.7627
3872.00,1.7558
3871.00,1.7483
3870.00,1.7397
3869.00,1.7300
3868.00,1.7197
3867.00,1.7095
3866.00,1.6989
3865.00,1.6876
3864.00,1.6756
3863.00,1.6629
3862.00,1.6499
3861.00,1.6365
3860.00,1.6224
3859.00,1.6074
3858.00,1.5915
3857.00,1.5748
3856.00,1.5574
3855.00,1.5389
3854.00,1.5179
3853.00,1.4934
3852.00,1.4673
3851.00,1.4423
3850.00,1.4190
3849.00,1.3967
3848.00,1.3743
3847.00,1.3511
3846.00,1.3267
3845.00,1.3008
3844.00,1.2732
3843.00,1.2442
3842.00,1.2146
3841.00,1.1850
3840.00,1.1555
3839.00,1.1255
3838.00,1.0946
3837.00,1.0633
3836.00,1.0333
3835.00,1.0055
3834.00,0.9803
3833.00,0.9572
3832.00,0.9358
3831.00,0.9159
3830.00,0.8980
3829.00,0.8825
3828.00,0.8696
3827.00,0.8589
3826.00,0.8502
3825.00,0.8436
3824.00,0.8399
3823.00,0.8396
3822.00,0.8429
3821.00,0.8488
3820.00,0.8562
3819.00,0.8649
3818.00,0.8760
3817.00,0.8909
3816.00,0.9099
3815.00,0.9317
3814.00,0.9542
3813.00,0.9766
3812.00,0.9989
3811.00,1.0216
3810.00,1.0449
3809.00,1.0692
3808.00,1.0951
3807.00,1.1229
3806.00,1.1516
3805.00,1.1792
3804.00,1.2050
3803.00,1.2300
3802.00,1.2564
3801.00,1.2850
3800.00,1.3146
3799.00,1.3433
3798.00,1.3701
3797.00,1.3956
3796.00,1.4206
3795.00,1.4453
3794.00,1.4692
3793.00,1.4923
3792.00,1.5146
3791.00,1.5363
3790.00,1.5573
3789.00,1.5775
3788.00,1.5969
3787.00,1.6155
3786.00,1.6335
3785.00,1.6506
3784.00,1.6666
3783.00,1.6816
3782.00,1.6958
3781.00,1.7097
3780.00,1.7234
3779.00,1.7368
3778.00,1.7494
3777.00,1.7610
3776.00,1.7716
3775.00,1.7811
3774.00,1.7898
3773.00,1.7977
3772.00,1.8051
3771.00,1.8121
3770.00,1.8185
3769.00,1.8240
3768.00,1.8286
3767.00,1.8328
3766.00,1.8368
3765.00,1.8407
3764.00,1.8443
3763.00,1.8472
3762.00,1.8494
3761.00,1.8510
3760.00,1.8520
3759.00,1.8523
3758.00,1.8520
3757.00,1.8508
3756.00,1.8487
3755.00,1.8457
3754.00,1.8419
3753.00,1.8377
3752.00,1.8334
3751.00,1.8289
3750.00,1.8241
3749.00,1.8189
3748.00,1.8140
3747.00,1.8098
3746.00,1.8062
3745.00,1.8028
3744.00,1.7991
3743.00,1.7955
3742.00,1.7926
3741.00,1.7900
3740.00,1.7868
3739.00,1.7825
3738.00,1.7769
3737.00,1.7697
3736.00,1.7608
3735.00,1.7505
3734.00,1.7393
3733.00,1.7271
3732.00,1.7140
3731.00,1.6998
3730.00,1.6848
3729.00,1.6688
3728.00,1.6511
3727.00,1.6311
3726.00,1.6086
3725.00,1.5841
3724.00,1.5580
3723.00,1.5303
3722.00,1.5012
3721.00,1.4709
3720.00,1.4395
3719.00,1.4070
3718.00,1.3734
3717.00,1.3392
3716.00,1.3052
3715.00,1.2724
3714.00,1.2405
3713.00,1.2089
3712.00,1.1771
3711.00,1.1458
3710.00,1.1163
3709.00,1.0898
3708.00,1.0662
3707.00,1.0452
3706.00,1.0264
3705.00,1.0098
3704.00,0.9952
3703.00,0.9827
3702.00,0.9722
3701.00,0.9639
3700.00,0.9582
3699.00,0.9558
3698.00,0.9570
3697.00,0.9615
3696.00,0.9692
3695.00,0.9795
3694.00,0.9923
3693.00,1.0074
3692.00,1.0247
3691.00,1.0443
3690.00,1.0662
3689.00,1.0906
3688.00,1.1171
3687.00,1.1446
3686.00,1.1717
3685.00,1.1978
3684.00,1.2235
3683.00,1.2493
3682.00,1.2754
3681.00,1.3015
3680.00,1.3270
3679.00,1.3514
3678.00,1.3751
3677.00,1.3994
3676.00,1.4258
3675.00,1.4539
3674.00,1.4819
3673.00,1.5081
3672.00,1.5324
3671.00,1.5566
3670.00,1.5816
3669.00,1.6071
3668.00,1.6316
3667.00,1.6543
3666.00,1.6753
3665.00,1.6954
3664.00,1.7149
3663.00,1.7337
3662.00,1.7515
3661.00,1.7681
3660.00,1.7833
3659.00,1.7975
3658.00,1.8111
3657.00,1.8244
3656.00,1.8376
3655.00,1.8501
3654.00,1.8615
3653.00,1.8716
3652.00,1.8812
3651.00,1.8907
3650.00,1.9003
3649.00,1.9098
3648.00,1.9193
3647.00,1.9285
3646.00,1.9371
3645.00,1.9451
3644.00,1.9529
3643.00,1.9609
3642.00,1.9691
3641.00,1.9771
3640.00,1.9844
3639.00,1.9907
3638.00,1.9959
3637.00,2.0004
3636.00,2.0048
3635.00,2.0091
3634.00,2.0127
3633.00,2.0153
3632.00,2.0168
3631.00,2.0176
3630.00,2.0183
3629.00,2.0187
3628.00,2.0183
3627.00,2.0174
3626.00,2.0160
3625.00,2.0143
3624.00,2.0119
3623.00,2.0086
3622.00,2.0041
3621.00,1.9988
3620.00,1.9927
3619.00,1.9859
3618.00,1.9783
3617.00,1.9702
3616.00,1.9618
3615.00,1.9529
3614.00,1.9435
3613.00,1.9340
3612.00,1.9248
3611.00,1.9161
3610.00,1.9080
3609.00,1.9004
3608.00,1.8934
3607.00,1.8867
3606.00,1.8802
3605.00,1.8736
3604.00,1.8669
3603.00,1.8598
3602.00,1.8518
3601.00,1.8426
3600.00,1.8320
3599.00,1.8205
3598.00,1.8084
3597.00,1.7959
3596.00,1.7832
3595.00,1.7700
3594.00,1.7563
3593.00,1.7421
3592.00,1.7276
3591.00,1.7130
3590.00,1.6986
3589.00,1.6841
3588.00,1.6692
3587.00,1.6535
3586.00,1.6376
3585.00,1.6222
3584.00,1.6077
3583.00,1.5941
3582.00,1.5813
3581.00,1.5689
3580.00,1.5570
3579.00,1.5457
3578.00,1.5351
3577.00,1.5255
3576.00,1.5169
3575.00,1.5092
3574.00,1.5026
3573.00,1.4971
3572.00,1.4925
3571.00,1.4888
3570.00,1.4862
3569.00,1.4849
3568.00,1.4850
3567.00,1.4861
3566.00,1.4881
3565.00,1.4909
3564.00,1.4950
3563.00,1.5003
3562.00,1.5071
3561.00,1.5150
3560.00,1.5239
3559.00,1.5335
3558.00,1.5439
3557.00,1.5550
3556.00,1.5666
3555.00,1.5786
3554.00,1.5912
3553.00,1.6043
3552.00,1.6179
3551.00,1.6319
3550.00,1.6460
3549.00,1.6601
3548.00,1.6745
3547.00,1.6892
3546.00,1.7040
3545.00,1.7189
3544.00,1.7338
3543.00,1.7487
3542.00,1.7633
3541.00,1.7776
3540.00,1.7916
3539.00,1.8055
3538.00,1.8193
3537.00,1.8332
3536.00,1.8469
3535.00,1.8603
3534.00,1.8734
3533.00,1.8863
3532.00,1.8990
3531.00,1.9114
3530.00,1.9235
3529.00,1.9349
3528.00,1.9458
3527.00,1.9561
3526.00,1.9660
3525.00,1.9757
3524.00,1.9854
3523.00,1.9950
3522.00,2.0041
3521.00,2.0125
3520.00,2.0205
3519.00,2.0284
3518.00,2.0362
3517.00,2.0435
3516.00,2.0503
3515.00,2.0568
3514.00,2.0634
3513.00,2.0699
3512.00,2.0759
3511.00,2.0808
3510.00,2.0848
3509.00,2.0883
3508.00,2.0920
3507.00,2.0959
3506.00,2.1001
3505.00,2.1045
3504.00,2.1087
3503.00,2.1118
3502.00,2.1135
3501.00,2.1144
3500.00,2.1152
3499.00,2.1164
3498.00,2.1178
3497.00,2.1188
3496.00,2.1195
3495.00,2.1198
3494.00,2.1197
3493.00,2.1192
3492.00,2.1182
3491.00,2.1167
3490.00,2.1148
3489.00,2.1124
3488.00,2.1094
3487.00,2.1059
3486.00,2.1023
3485.00,2.0992
3484.00,2.0963
3483.00,2.0928
3482.00,2.0878
3481.00,2.0818
3480.00,2.0756
3479.00,2.0697
3478.00,2.0642
3477.00,2.0584
3476.00,2.0520
3475.00,2.0447
3474.00,2.0367
3473.00,2.0282
3472.00,2.0196
3471.00,2.0107
3470.00,2.0014
3469.00,1.9916
3468.00,1.9814
3467.00,1.9708
3466.00,1.9600
3465.00,1.9490
3464.00,1.9377
3463.00,1.9260
3462.00,1.9137
3461.00,1.9010
3460.00,1.8879
3459.00,1.8747
3458.00,1.8612
3457.00,1.8474
3456.00,1.8333
3455.00,1.8186
3454.00,1.8035
3453.00,1.7882
3452.00,1.7730
3451.00,1.7581
3450.00,1.7433
3449.00,1.7286
3448.00,1.7140
3447.00,1.6993
3446.00,1.6846
3445.00,1.6701
3444.00,1.6561
3443.00,1.6426
3442.00,1.6298
3441.00,1.6178
3440.00,1.6064
3439.00,1.5958
3438.00,1.5861
3437.00,1.5774
3436.00,1.5701
3435.00,1.5640
3434.00,1.5593
3433.00,1.5558
3432.00,1.5534
3431.00,1.5522
3430.00,1.5523
3429.00,1.5539
3428.00,1.5570
3427.00,1.5615
3426.00,1.5674
3425.00,1.5745
3424.00,1.5828
3423.00,1.5923
3422.00,1.6028
3421.00,1.6142
3420.00,1.6265
3419.00,1.6395
3418.00,1.6534
3417.00,1.6676
3416.00,1.6819
3415.00,1.6963
3414.00,1.7108
3413.00,1.7253
3412.00,1.7396
3411.00,1.7535
3410.00,1.7669
3409.00,1.7799
3408.00,1.7925
3407.00,1.8046
3406.00,1.8162
3405.00,1.8273
3404.00,1.8377
3403.00,1.8473
3402.00,1.8562
3401.00,1.8650
3400.00,1.8739
3399.00,1.8831
3398.00,1.8924
3397.00,1.9016
3396.00,1.9106
3395.00,1.9194
3394.00,1.9282
3393.00,1.9371
3392.00,1.9464
3391.00,1.9558
3390.00,1.9653
3389.00,1.9750
3388.00,1.9847
3387.00,1.9945
3386.00,2.0042
3385.00,2.0136
3384.00,2.0225
3383.00,2.0310
3382.00,2.0391
3381.00,2.0469
3380.00,2.0543
3379.00,2.0612
3378.00,2.0679
3377.00,2.0747
3376.00,2.0817
3375.00,2.0883
3374.00,2.0936
3373.00,2.0978
3372.00,2.1016
3371.00,2.1054
3370.00,2.1092
3369.00,2.1125
3368.00,2.1152
3367.00,2.1175
3366.00,2.1194
3365.00,2.1211
3364.00,2.1226
3363.00,2.1238
3362.00,2.1245
3361.00,2.1248
3360.00,2.1246
3359.00,2.1241
3358.00,2.1228
3357.00,2.1206
3356.00,2.1175
3355.00,2.1141
3354.00,2.1107
3353.00,2.1073
3352.00,2.1036
3351.00,2.0991
3350.00,2.0935
3349.00,2.0872
3348.00,2.0808
3347.00,2.0744
3346.00,2.0678
3345.00,2.0609
3344.00,2.0532
3343.00,2.0447
3342.00,2.0355
3341.00,2.0259
3340.00,2.0157
3339.00,2.0050
3338.00,1.9934
3337.00,1.9811
3336.00,1.9682
3335.00,1.9549
3334.00,1.9411
3333.00,1.9268
3332.00,1.9119
3331.00,1.8967
3330.00,1.8810
3329.00,1.8648
3328.00,1.8478
3327.00,1.8302
3326.00,1.8121
3325.00,1.7938
3324.00,1.7755
3323.00,1.7569
3322.00,1.7378
3321.00,1.7183
3320.00,1.6986
3319.00,1.6790
3318.00,1.6594
3317.00,1.6398
3316.00,1.6203
3315.00,1.6012
3314.00,1.5825
3313.00,1.5645
3312.00,1.5473
3311.00,1.5309
3310.00,1.5155
3309.00,1.5010
3308.00,1.4877
3307.00,1.4757
3306.00,1.4651
3305.00,1.4561
3304.00,1.4487
3303.00,1.4428
3302.00,1.4387
3301.00,1.4364
3300.00,1.4359
3299.00,1.4373
3298.00,1.4403
3297.00,1.4449
3296.00,1.4512
3295.00,1.4591
3294.00,1.4686
3293.00,1.4795
3292.00,1.4916
3291.00,1.5049
3290.00,1.5193
3289.00,1.5348
3288.00,1.5512
3287.00,1.5683
3286.00,1.5860
3285.00,1.6043
3284.00,1.6231
3283.00,1.6423
3282.00,1.6617
3281.00,1.6810
3280.00,1.7003
3279.00,1.7198
3278.00,1.7393
3277.00,1.7587
3276.00,1.7775
3275.00,1.7958
3274.00,1.8139
3273.00,1.8321
3272.00,1.8505
3271.00,1.8687
3270.00,1.8863
3269.00,1.9031
3268.00,1.9192
3267.00,1.9348
3266.00,1.9501
3265.00,1.9652
3264.00,1.9797
3263.00,1.9934
3262.00,2.0065
3261.00,2.0194
3260.00,2.0319
3259.00,2.0440
3258.00,2.0553
3257.00,2.0658
3256.00,2.0759
3255.00,2.0858
3254.00,2.0953
3253.00,2.1040
3252.00,2.1120
3251.00,2.1194
3250.00,2.1267
3249.00,2.1338
3248.00,2.1405
3247.00,2.1465
3246.00,2.1515
3245.00,2.1559
3244.00,2.1600
3243.00,2.1641
3242.00,2.1683
3241.00,2.1724
3240.00,2.1762
3239.00,2.1795
3238.00,2.1818
3237.00,2.1830
3236.00,2.1833
3235.00,2.1829
3234.00,2.1823
3233.00,2.1814
3232.00,2.1804
3231.00,2.1793
3230.00,2.1779
3229.00,2.1761
3228.00,2.1737
3227.00,2.1708
3226.00,2.1674
3225.00,2.1636
3224.00,2.1594
3223.00,2.1545
3222.00,2.1493
3221.00,2.1439
3220.00,2.1384
3219.00,2.1322
3218.00,2.1249
3217.00,2.1164
3216.00,2.1070
3215.00,2.0971
3214.00,2.0871
3213.00,2.0775
3212.00,2.0682
3211.00,2.0588
3210.00,2.0488
3209.00,2.0377
3208.00,2.0257
3207.00,2.0129
3206.00,1.9994
3205.00,1.9853
3204.00,1.9709
3203.00,1.9561
3202.00,1.9411
3201.00,1.9257
3200.00,1.9100
3199.00,1.8937
3198.00,1.8768
3197.00,1.8593
3196.00,1.8412
3195.00,1.8229
3194.00,1.8046
3193.00,1.7867
3192.00,1.7691
3191.00,1.7515
3190.00,1.7339
3189.00,1.7162
3188.00,1.6985
3187.00,1.6810
3186.00,1.6640
3185.00,1.6476
3184.00,1.6321
3183.00,1.6176
3182.00,1.6042
3181.00,1.5917
3180.00,1.5803
3179.00,1.5702
3178.00,1.5615
3177.00,1.5543
3176.00,1.5487
3175.00,1.5445
3174.00,1.5417
3173.00,1.5404
3172.00,1.5407
3171.00,1.5427
3170.00,1.5466
3169.00,1.5521
3168.00,1.5590
3167.00,1.5673
3166.00,1.5768
3165.00,1.5875
3164.00,1.5995
3163.00,1.6125
3162.00,1.6264
3161.00,1.6411
3160.00,1.6566
3159.00,1.6727
3158.00,1.6896
3157.00,1.7070
3156.00,1.7248
3155.00,1.7428
3154.00,1.7610
3153.00,1.7794
3152.00,1.7979
3151.00,1.8164
3150.00,1.8347
3149.00,1.8530
3148.00,1.8712
3147.00,1.8894
3146.00,1.9072
3145.00,1.9247
3144.00,1.9417
3143.00,1.9584
3142.00,1.9748
3141.00,1.9908
3140.00,2.0063
3139.00,2.0210
3138.00,2.0350
3137.00,2.0482
3136.00,2.0608
3135.00,2.0729
3134.00,2.0845
3133.00,2.0959
3132.00,2.1074
3131.00,2.1188
3130.00,2.1298
3129.00,2.1400
3128.00,2.1490
3127.00,2.1566
3126.00,2.1634
3125.00,2.1701
3124.00,2.1775
3123.00,2.1853
3122.00,2.1934
3121.00,2.2012
3120.00,2.2086
3119.00,2.2151
3118.00,2.2206
3117.00,2.2250
3116.00,2.2282
3115.00,2.2298
3114.00,2.2304
3113.00,2.2310
3112.00,2.2327
3111.00,2.2352
3110.00,2.2374
3109.00,2.2383
3108.00,2.2379
3107.00,2.2368
3106.00,2.2356
3105.00,2.2342
3104.00,2.2324
3103.00,2.2298
3102.00,2.2263
3101.00,2.2219
3100.00,2.2170
3099.00,2.2118
3098.00,2.2063
3097.00,2.2003
3096.00,2.1934
3095.00,2.1857
3094.00,2.1779
3093.00,2.1702
3092.00,2.1621
3091.00,2.1526
3090.00,2.1416
3089.00,2.1294
3088.00,2.1167
3087.00,2.1036
3086.00,2.0900
3085.00,2.0757
3084.00,2.0609
3083.00,2.0459
3082.00,2.0307
3081.00,2.0153
3080.00,1.9991
3079.00,1.9817
3078.00,1.9629
3077.00,1.9430
3076.00,1.9227
3075.00,1.9023
3074.00,1.8817
3073.00,1.8610
3072.00,1.8402
3071.00,1.8194
3070.00,1.7988
3069.00,1.7785
3068.00,1.7586
3067.00,1.7392
3066.00,1.7204
3065.00,1.7025
3064.00,1.6859
3063.00,1.6708
3062.00,1.6573
3061.00,1.6453
3060.00,1.6348
3059.00,1.6261
3058.00,1.6192
3057.00,1.6142
3056.00,1.6113
3055.00,1.6106
3054.00,1.6119
3053.00,1.6151
3052.00,1.6203
3051.00,1.6274
3050.00,1.6365
3049.00,1.6476
3048.00,1.6605
3047.00,1.6752
3046.00,1.6915
3045.00,1.7093
3044.00,1.7284
3043.00,1.7487
3042.00,1.7699
3041.00,1.7917
3040.00,1.8141
3039.00,1.8372
3038.00,1.8609
3037.00,1.8852
3036.00,1.9099
3035.00,1.9345
3034.00,1.9588
3033.00,1.9826
3032.00,2.0059
3031.00,2.0286
3030.00,2.0509
3029.00,2.0727
3028.00,2.0936
3027.00,2.1132
3026.00,2.1314
3025.00,2.1489
3024.00,2.1661
3023.00,2.1830
3022.00,2.1994
3021.00,2.2149
3020.00,2.2295
3019.00,2.2430
3018.00,2.2552
3017.00,2.2660
3016.00,2.2754
3015.00,2.2838
3014.00,2.2915
3013.00,2.2990
3012.00,2.3066
3011.00,2.3136
3010.00,2.3194
3009.00,2.3239
3008.00,2.3272
3007.00,2.3293
3006.00,2.3303
3005.00,2.3303
3004.00,2.3295
3003.00,2.3275
3002.00,2.3239
3001.00,2.3186
3000.00,2.3121
2999.00,2.3048
2998.00,2.2964
2997.00,2.2864
2996.00,2.2746
2995.00,2.2612
2994.00,2.2471
2993.00,2.2333
2992.00,2.2202
2991.00,2.2077
2990.00,2.1957
2989.00,2.1845
2988.00,2.1748
2987.00,2.1683
2986.00,2.1666
2985.00,2.1710
2984.00,2.1818
2983.00,2.1988
2982.00,2.2220
2981.00,2.2519
2980.00,2.2894
2979.00,2.3343
2978.00,2.3860
2977.00,2.4435
2976.00,2.5057
2975.00,2.5718
2974.00,2.6413
2973.00,2.7144
2972.00,2.7914
2971.00,2.8714
2970.00,2.9534
2969.00,3.0383
2968.00,3.1285
2967.00,3.2251
2966.00,3.3242
2965.00,3.4175
2964.00,3.4980
2963.00,3.5670
2962.00,3.6343
2961.00,3.7129
2960.00,3.8085
2959.00,3.9095
2958.00,3.9820
2957.00,4.0026
2956.00,3.9917
2955.00,3.9791
2954.00,3.9741
2953.00,3.9728
2952.00,3.9751
2951.00,3.9749
2950.00,3.9578
2949.00,3.9249
2948.00,3.8945
2947.00,3.8786
2946.00,3.8735
2945.00,3.8701
2944.00,3.8623
2943.00,3.8489
2942.00,3.8363
2941.00,3.8365
2940.00,3.8546
2939.00,3.8786
2938.00,3.8942
2937.00,3.9091
2936.00,3.9440
2935.00,4.0004
2934.00,4.0489
2933.00,4.0664
2932.00,4.0787
2931.00,4.1249
2930.00,4.2092
2929.00,4.3016
2928.00,4.3633
2927.00,4.3707
2926.00,4.3197
2925.00,4.2318
2924.00,4.1510
2923.00,4.1024
2922.00,4.0763
2921.00,4.0342
2920.00,3.9467
2919.00,3.8322
2918.00,3.7227
2917.00,3.6309
2916.00,3.5556
2915.00,3.4938
2914.00,3.4423
2913.00,3.3970
2912.00,3.3537
2911.00,3.3110
2910.00,3.2704
2909.00,3.2333
2908.00,3.1993
2907.00,3.1670
2906.00,3.1369
2905.00,3.1114
2904.00,3.0927
2903.00,3.0789
2902.00,3.0646
2901.00,3.0451
2900.00,3.0196
2899.00,2.9911
2898.00,2.9623
2897.00,2.9350
2896.00,2.9109
2895.00,2.8915
2894.00,2.8757
2893.00,2.8602
2892.00,2.8429
2891.00,2.8255
2890.00,2.8113
2889.00,2.8008
2888.00,2.7918
2887.00,2.7828
2886.00,2.7755
2885.00,2.7732
2884.00,2.7774
2883.00,2.7868
2882.00,2.7997
2881.00,2.8158
2880.00,2.8362
2879.00,2.8625
2878.00,2.8960
2877.00,2.9370
2876.00,2.9848
2875.00,3.0390
2874.00,3.0997
2873.00,3.1658
2872.00,3.2333
2871.00,3.2977
2870.00,3.3600
2869.00,3.4274
2868.00,3.5068
2867.00,3.5977
2866.00,3.6918
2865.00,3.7783
2864.00,3.8455
2863.00,3.8752
2862.00,3.8539
2861.00,3.7912
2860.00,3.7105
2859.00,3.6295
2858.00,3.5535
2857.00,3.4773
2856.00,3.3922
2855.00,3.2956
2854.00,3.1935
2853.00,3.0931
2852.00,2.9985
2851.00,2.9105
2850.00,2.8286
2849.00,2.7513
2848.00,2.6771
2847.00,2.6052
2846.00,2.5355
2845.00,2.4685
2844.00,2.4043
2843.00,2.3432
2842.00,2.2860
2841.00,2.2332
2840.00,2.1855
2839.00,2.1432
2838.00,2.1066
2837.00,2.0762
2836.00,2.0519
2835.00,2.0338
2834.00,2.0216
2833.00,2.0147
2832.00,2.0120
2831.00,2.0124
2830.00,2.0151
2829.00,2.0195
2828.00,2.0254
2827.00,2.0325
2826.00,2.0404
2825.00,2.0488
2824.00,2.0577
2823.00,2.0669
2822.00,2.0766
2821.00,2.0869
2820.00,2.0981
2819.00,2.1108
2818.00,2.1257
2817.00,2.1427
2816.00,2.1611
2815.00,2.1798
2814.00,2.1980
2813.00,2.2158
2812.00,2.2336
2811.00,2.2511
2810.00,2.2678
2809.00,2.2832
2808.00,2.2975
2807.00,2.3111
2806.00,2.3241
2805.00,2.3364
2804.00,2.3477
2803.00,2.3585
2802.00,2.3689
2801.00,2.3786
2800.00,2.3865
2799.00,2.3919
2798.00,2.3959
2797.00,2.3999
2796.00,2.4043
2795.00,2.4083
2794.00,2.4107
2793.00,2.4111
2792.00,2.4099
2791.00,2.4078
2790.00,2.4057
2789.00,2.4041
2788.00,2.4026
2787.00,2.4000
2786.00,2.3952
2785.00,2.3886
2784.00,2.3811
2783.00,2.3735
2782.00,2.3659
2781.00,2.3579
2780.00,2.3488
2779.00,2.3387
2778.00,2.3278
2777.00,2.3164
2776.00,2.3044
2775.00,2.2913
2774.00,2.2769
2773.00,2.2610
2772.00,2.2438
2771.00,2.2257
2770.00,2.2067
2769.00,2.1871
2768.00,2.1668
2767.00,2.1456
2766.00,2.1234
2765.00,2.1002
2764.00,2.0759
2763.00,2.0505
2762.00,2.0238
2761.00,1.9956
2760.00,1.9657
2759.00,1.9341
2758.00,1.9008
2757.00,1.8662
2756.00,1.8302
2755.00,1.7927
2754.00,1.7536
2753.00,1.7135
2752.00,1.6732
2751.00,1.6331
2750.00,1.5939
2749.00,1.5561
2748.00,1.5203
2747.00,1.4870
2746.00,1.4568
2745.00,1.4300
2744.00,1.4071
2743.00,1.3886
2742.00,1.3748
2741.00,1.3660
2740.00,1.3625
2739.00,1.3641
2738.00,1.3706
2737.00,1.3817
2736.00,1.3972
2735.00,1.4166
2734.00,1.4393
2733.00,1.4650
2732.00,1.4932
2731.00,1.5234
2730.00,1.5552
2729.00,1.5882
2728.00,1.6222
2727.00,1.6567
2726.00,1.6915
2725.00,1.7263
2724.00,1.7610
2723.00,1.7957
2722.00,1.8302
2721.00,1.8645
2720.00,1.8982
2719.00,1.9312
2718.00,1.9631
2717.00,1.9934
2716.00,2.0223
2715.00,2.0499
2714.00,2.0767
2713.00,2.1028
2712.00,2.1280
2711.00,2.1516
2710.00,2.1738
2709.00,2.1951
2708.00,2.2158
2707.00,2.2359
2706.00,2.2549
2705.00,2.2725
2704.00,2.2890
2703.00,2.3050
2702.00,2.3204
2701.00,2.3350
2700.00,2.3483
2699.00,2.3601
2698.00,2.3705
2697.00,2.3801
2696.00,2.3894
2695.00,2.3987
2694.00,2.4078
2693.00,2.4165
2692.00,2.4244
2691.00,2.4316
2690.00,2.4384
2689.00,2.4446
2688.00,2.4499
2687.00,2.4541
2686.00,2.4569
2685.00,2.4585
2684.00,2.4596
2683.00,2.4610
2682.00,2.4635
2681.00,2.4669
2680.00,2.4700
2679.00,2.4716
2678.00,2.4718
2677.00,2.4716
2676.00,2.4719
2675.00,2.4724
2674.00,2.4719
2673.00,2.4697
2672.00,2.4658
2671.00,2.4613
2670.00,2.4575
2669.00,2.4548
2668.00,2.4519
2667.00,2.4474
2666.00,2.4404
2665.00,2.4317
2664.00,2.4224
2663.00,2.4126
2662.00,2.4022
2661.00,2.3909
2660.00,2.3790
2659.00,2.3669
2658.00,2.3544
2657.00,2.3413
2656.00,2.3275
2655.00,2.3132
2654.00,2.2983
2653.00,2.2828
2652.00,2.2667
2651.00,2.2500
2650.00,2.2329
2649.00,2.2153
2648.00,2.1966
2647.00,2.1763
2646.00,2.1541
2645.00,2.1301
2644.00,2.1048
2643.00,2.0783
2642.00,2.0508
2641.00,2.0219
2640.00,1.9914
2639.00,1.9592
2638.00,1.9251
2637.00,1.8896
2636.00,1.8529
2635.00,1.8155
2634.00,1.7775
2633.00,1.7392
2632.00,1.7008
2631.00,1.6628
2630.00,1.6257
2629.00,1.5899
2628.00,1.5559
2627.00,1.5244
2626.00,1.4960
2625.00,1.4712
2624.00,1.4505
2623.00,1.4339
2622.00,1.4216
2621.00,1.4137
2620.00,1.4102
2619.00,1.4110
2618.00,1.4159
2617.00,1.4248
2616.00,1.4372
2615.00,1.4527
2614.00,1.4709
2613.00,1.4916
2612.00,1.5143
2611.00,1.5390
2610.00,1.5652
2609.00,1.5924
2608.00,1.6205
2607.00,1.6493
2606.00,1.6788
2605.00,1.7093
2604.00,1.7406
2603.00,1.7724
2602.00,1.8044
2601.00,1.8368
2600.00,1.8695
2599.00,1.9023
2598.00,1.9346
2597.00,1.9663
2596.00,1.9973
2595.00,2.0277
2594.00,2.0575
2593.00,2.0866
2592.00,2.1147
2591.00,2.1418
2590.00,2.1678
2589.00,2.1926
2588.00,2.2161
2587.00,2.2385
2586.00,2.2596
2585.00,2.2792
2584.00,2.2974
2583.00,2.3145
2582.00,2.3315
2581.00,2.3486
2580.00,2.3655
2579.00,2.3807
2578.00,2.3935
2577.00,2.4047
2576.00,2.4162
2575.00,2.4293
2574.00,2.4430
2573.00,2.4550
2572.00,2.4641
2571.00,2.4711
2570.00,2.4780
2569.00,2.4855
2568.00,2.4933
2567.00,2.5007
2566.00,2.5076
2565.00,2.5143
2564.00,2.5206
2563.00,2.5256
2562.00,2.5293
2561.00,2.5323
2560.00,2.5353
2559.00,2.5382
2558.00,2.5403
2557.00,2.5413
2556.00,2.5416
2555.00,2.5420
2554.00,2.5428
2553.00,2.5432
2552.00,2.5421
2551.00,2.5395
2550.00,2.5366
2549.00,2.5346
2548.00,2.5331
2547.00,2.5306
2546.00,2.5263
2545.00,2.5207
2544.00,2.5148
2543.00,2.5084
2542.00,2.5013
2541.00,2.4940
2540.00,2.4869
2539.00,2.4799
2538.00,2.4719
2537.00,2.4623
2536.00,2.4513
2535.00,2.4396
2534.00,2.4279
2533.00,2.4167
2532.00,2.4056
2531.00,2.3942
2530.00,2.3813
2529.00,2.3664
2528.00,2.3493
2527.00,2.3309
2526.00,2.3122
2525.00,2.2939
2524.00,2.2757
2523.00,2.2568
2522.00,2.2361
2521.00,2.2133
2520.00,2.1886
2519.00,2.1625
2518.00,2.1351
2517.00,2.1067
2516.00,2.0772
2515.00,2.0460
2514.00,2.0129
2513.00,1.9778
2512.00,1.9409
2511.00,1.9024
2510.00,1.8623
2509.00,1.8208
2508.00,1.7781
2507.00,1.7342
2506.00,1.6897
2505.00,1.6451
2504.00,1.6008
2503.00,1.5576
2502.00,1.5158
2501.00,1.4762
2500.00,1.4395
2499.00,1.4063
2498.00,1.3773
2497.00,1.3531
2496.00,1.3341
2495.00,1.3208
2494.00,1.3133
2493.00,1.3120
2492.00,1.3168
2491.00,1.3274
2490.00,1.3435
2489.00,1.3647
2488.00,1.3906
2487.00,1.4205
2486.00,1.4539
2485.00,1.4898
2484.00,1.5277
2483.00,1.5668
2482.00,1.6068
2481.00,1.6474
2480.00,1.6884
2479.00,1.7296
2478.00,1.7708
2477.00,1.8118
2476.00,1.8523
2475.00,1.8920
2474.00,1.9307
2473.00,1.9684
2472.00,2.0048
2471.00,2.0400
2470.00,2.0738
2469.00,2.1061
2468.00,2.1370
2467.00,2.1666
2466.00,2.1949
2465.00,2.2215
2464.00,2.2463
2463.00,2.2699
2462.00,2.2928
2461.00,2.3155
2460.00,2.3373
2459.00,2.3577
2458.00,2.3762
2457.00,2.3929
2456.00,2.4085
2455.00,2.4237
2454.00,2.4392
2453.00,2.4549
2452.00,2.4698
2451.00,2.4834
2450.00,2.4960
2449.00,2.5079
2448.00,2.5193
2447.00,2.5303
2446.00,2.5411
2445.00,2.5518
2444.00,2.5616
2443.00,2.5695
2442.00,2.5753
2441.00,2.5799
2440.00,2.5846
2439.00,2.5900
2438.00,2.5958
2437.00,2.6014
2436.00,2.6058
2435.00,2.6089
2434.00,2.6112
2433.00,2.6137
2432.00,2.6168
2431.00,2.6201
2430.00,2.6224
2429.00,2.6230
2428.00,2.6219
2427.00,2.6200
2426.00,2.6187
2425.00,2.6189
2424.00,2.6203
2423.00,2.6207
2422.00,2.6188
2421.00,2.6143
2420.00,2.6086
2419.00,2.6029
2418.00,2.5975
2417.00,2.5925
2416.00,2.5878
2415.00,2.5827
2414.00,2.5761
2413.00,2.5674
2412.00,2.5572
2411.00,2.5469
2410.00,2.5374
2409.00,2.5279
2408.00,2.5170
2407.00,2.5038
2406.00,2.4892
2405.00,2.4744
2404.00,2.4599
2403.00,2.4448
2402.00,2.4285
2401.00,2.4110
2400.00,2.3926
2399.00,2.3731
2398.00,2.3524
2397.00,2.3305
2396.00,2.3078
2395.00,2.2844
2394.00,2.2599
2393.00,2.2342
2392.00,2.2075
2391.00,2.1802
2390.00,2.1529
2389.00,2.1261
2388.00,2.1008
2387.00,2.0782
2386.00,2.0602
2385.00,2.0484
2384.00,2.0450
2383.00,2.0512
2382.00,2.0676
2381.00,2.0934
2380.00,2.1264
2379.00,2.1628
2378.00,2.1978
2377.00,2.2266
2376.00,2.2454
2375.00,2.2525
2374.00,2.2487
2373.00,2.2374
2372.00,2.2231
2371.00,2.2106
2370.00,2.2042
2369.00,2.2064
2368.00,2.2178
2367.00,2.2378
2366.00,2.2656
2365.00,2.2998
2364.00,2.3373
2363.00,2.3767
2362.00,2.4170
2361.00,2.4569
2360.00,2.4964
2359.00,2.5335
2358.00,2.5647
2357.00,2.5881
2356.00,2.6023
2355.00,2.6101
2354.00,2.6140
2353.00,2.6186
2352.00,2.6296
2351.00,2.6514
2350.00,2.6860
2349.00,2.7236
2348.00,2.7526
2347.00,2.7711
2346.00,2.7902
2345.00,2.8241
2344.00,2.8686
2343.00,2.9092
2342.00,2.9361
2341.00,2.9527
2340.00,2.9672
2339.00,2.9816
2338.00,2.9972
2337.00,3.0144
2336.00,3.0344
2335.00,3.0575
2334.00,3.0858
2333.00,3.1219
2332.00,3.1665
2331.00,3.2141
2330.00,3.2571
2329.00,3.2875
2328.00,3.3046
2327.00,3.3147
2326.00,3.3242
2325.00,3.3404
2324.00,3.3633
2323.00,3.3913
2322.00,3.4168
2321.00,3.4326
2320.00,3.4347
2319.00,3.4234
2318.00,3.4036
2317.00,3.3797
2316.00,3.3582
2315.00,3.3441
2314.00,3.3410
2313.00,3.3451
2312.00,3.3485
2311.00,3.3433
2310.00,3.3272
2309.00,3.3027
2308.00,3.2730
2307.00,3.2404
2306.00,3.2066
2305.00,3.1733
2304.00,3.1415
2303.00,3.1109
2302.00,3.0808
2301.00,3.0506
2300.00,3.0205
2299.00,2.9918
2298.00,2.9663
2297.00,2.9440
2296.00,2.9223
2295.00,2.8982
2294.00,2.8716
2293.00,2.8462
2292.00,2.8255
2291.00,2.8094
2290.00,2.7946
2289.00,2.7784
2288.00,2.7602
2287.00,2.7412
2286.00,2.7213
2285.00,2.7004
2284.00,2.6790
2283.00,2.6594
2282.00,2.6440
2281.00,2.6324
2280.00,2.6218
2279.00,2.6096
2278.00,2.5955
2277.00,2.5809
2276.00,2.5662
2275.00,2.5505
2274.00,2.5331
2273.00,2.5142
2272.00,2.4944
2271.00,2.4743
2270.00,2.4537
2269.00,2.4324
2268.00,2.4097
2267.00,2.3847
2266.00,2.3573
2265.00,2.3282
2264.00,2.2978
2263.00,2.2663
2262.00,2.2329
2261.00,2.1974
2260.00,2.1598
2259.00,2.1204
2258.00,2.0794
2257.00,2.0372
2256.00,1.9941
2255.00,1.9502
2254.00,1.9059
2253.00,1.8614
2252.00,1.8163
2251.00,1.7696
2250.00,1.7211
2249.00,1.6716
2248.00,1.6225
2247.00,1.5754
2246.00,1.5316
2245.00,1.4920
2244.00,1.4575
2243.00,1.4292
2242.00,1.4077
2241.00,1.3938
2240.00,1.3878
2239.00,1.3896
2238.00,1.3990
2237.00,1.4157
2236.00,1.4390
2235.00,1.4681
2234.00,1.5021
2233.00,1.5400
2232.00,1.5811
2231.00,1.6244
2230.00,1.6694
2229.00,1.7156
2228.00,1.7625
2227.00,1.8096
2226.00,1.8563
2225.00,1.9022
2224.00,1.9472
2223.00,1.9915
2222.00,2.0351
2221.00,2.0778
2220.00,2.1193
2219.00,2.1592
2218.00,2.1969
2217.00,2.2323
2216.00,2.2659
2215.00,2.2985
2214.00,2.3302
2213.00,2.3608
2212.00,2.3897
2211.00,2.4165
2210.00,2.4412
2209.00,2.4642
2208.00,2.4863
2207.00,2.5085
2206.00,2.5306
2205.00,2.5517
2204.00,2.5702
2203.00,2.5860
2202.00,2.6001
2201.00,2.6140
2200.00,2.6283
2199.00,2.6427
2198.00,2.6565
2197.00,2.6694
2196.00,2.6817
2195.00,2.6940
2194.00,2.7063
2193.00,2.7176
2192.00,2.7273
2191.00,2.7362
2190.00,2.7455
2189.00,2.7552
2188.00,2.7639
2187.00,2.7707
2186.00,2.7761
2185.00,2.7811
2184.00,2.7858
2183.00,2.7893
2182.00,2.7914
2181.00,2.7931
2180.00,2.7958
2179.00,2.8002
2178.00,2.8058
2177.00,2.8109
2176.00,2.8133
2175.00,2.8125
2174.00,2.8098
2173.00,2.8072
2172.00,2.8057
2171.00,2.8048
2170.00,2.8035
2169.00,2.8019
2168.00,2.8003
2167.00,2.7988
2166.00,2.7965
2165.00,2.7919
2164.00,2.7843
2163.00,2.7747
2162.00,2.7654
2161.00,2.7578
2160.00,2.7514
2159.00,2.7446
2158.00,2.7363
2157.00,2.7269
2156.00,2.7166
2155.00,2.7058
2154.00,2.6950
2153.00,2.6846
2152.00,2.6739
2151.00,2.6614
2150.00,2.6461
2149.00,2.6284
2148.00,2.6098
2147.00,2.5912
2146.00,2.5721
2145.00,2.5519
2144.00,2.5305
2143.00,2.5087
2142.00,2.4872
2141.00,2.4659
2140.00,2.4436
2139.00,2.4192
2138.00,2.3922
2137.00,2.3633
2136.00,2.3330
2135.00,2.3013
2134.00,2.2680
2133.00,2.2332
2132.00,2.1966
2131.00,2.1577
2130.00,2.1162
2129.00,2.0719
2128.00,2.0251
2127.00,1.9762
2126.00,1.9255
2125.00,1.8734
2124.00,1.8207
2123.00,1.7679
2122.00,1.7160
2121.00,1.6659
2120.00,1.6188
2119.00,1.5758
2118.00,1.5377
2117.00,1.5054
2116.00,1.4800
2115.00,1.4624
2114.00,1.4530
2113.00,1.4521
2112.00,1.4593
2111.00,1.4743
2110.00,1.4967
2109.00,1.5260
2108.00,1.5612
2107.00,1.6012
2106.00,1.6450
2105.00,1.6914
2104.00,1.7395
2103.00,1.7884
2102.00,1.8377
2101.00,1.8869
2100.00,1.9357
2099.00,1.9839
2098.00,2.0311
2097.00,2.0770
2096.00,2.1213
2095.00,2.1640
2094.00,2.2048
2093.00,2.2433
2092.00,2.2795
2091.00,2.3139
2090.00,2.3471
2089.00,2.3789
2088.00,2.4091
2087.00,2.4377
2086.00,2.4657
2085.00,2.4935
2084.00,2.5200
2083.00,2.5439
2082.00,2.5653
2081.00,2.5858
2080.00,2.6071
2079.00,2.6293
2078.00,2.6513
2077.00,2.6719
2076.00,2.6909
2075.00,2.7088
2074.00,2.7256
2073.00,2.7409
2072.00,2.7542
2071.00,2.7660
2070.00,2.7773
2069.00,2.7886
2068.00,2.7992
2067.00,2.8081
2066.00,2.8155
2065.00,2.8235
2064.00,2.8337
2063.00,2.8453
2062.00,2.8557
2061.00,2.8635
2060.00,2.8689
2059.00,2.8731
2058.00,2.8768
2057.00,2.8801
2056.00,2.8833
2055.00,2.8870
2054.00,2.8909
2053.00,2.8942
2052.00,2.8958
2051.00,2.8960
2050.00,2.8959
2049.00,2.8961
2048.00,2.8961
2047.00,2.8952
2046.00,2.8938
2045.00,2.8929
2044.00,2.8922
2043.00,2.8906
2042.00,2.8872
2041.00,2.8820
2040.00,2.8756
2039.00,2.8692
2038.00,2.8642
2037.00,2.8612
2036.00,2.8592
2035.00,2.8550
2034.00,2.8467
2033.00,2.8348
2032.00,2.8223
2031.00,2.8109
2030.00,2.8007
2029.00,2.7907
2028.00,2.7804
2027.00,2.7696
2026.00,2.7571
2025.00,2.7417
2024.00,2.7239
2023.00,2.7060
2022.00,2.6899
2021.00,2.6748
2020.00,2.6577
2019.00,2.6370
2018.00,2.6142
2017.00,2.5922
2016.00,2.5716
2015.00,2.5496
2014.00,2.5241
2013.00,2.4958
2012.00,2.4667
2011.00,2.4370
2010.00,2.4053
2009.00,2.3709
2008.00,2.3345
2007.00,2.2967
2006.00,2.2570
2005.00,2.2146
2004.00,2.1688
2003.00,2.1198
2002.00,2.0679
2001.00,2.0135
2000.00,1.9578
1999.00,1.9012
1998.00,1.8447
1997.00,1.7897
1996.00,1.7370
1995.00,1.6860
1994.00,1.6370
1993.00,1.5939
1992.00,1.5617
1991.00,1.5416
1990.00,1.5307
1989.00,1.5273
1988.00,1.5328
1987.00,1.5490
1986.00,1.5750
1985.00,1.6080
1984.00,1.6465
1983.00,1.6899
1982.00,1.7371
1981.00,1.7863
1980.00,1.8365
1979.00,1.8870
1978.00,1.9370
1977.00,1.9861
1976.00,2.0342
1975.00,2.0811
1974.00,2.1267
1973.00,2.1717
1972.00,2.2168
1971.00,2.2609
1970.00,2.3013
1969.00,2.3370
1968.00,2.3707
1967.00,2.4062
1966.00,2.4438
1965.00,2.4805
1964.00,2.5138
1963.00,2.5445
1962.00,2.5740
1961.00,2.6024
1960.00,2.6286
1959.00,2.6522
1958.00,2.6739
1957.00,2.6946
1956.00,2.7151
1955.00,2.7361
1954.00,2.7571
1953.00,2.7771
1952.00,2.7951
1951.00,2.8122
1950.00,2.8295
1949.00,2.8466
1948.00,2.8630
1947.00,2.8780
1946.00,2.8897
1945.00,2.8963
1944.00,2.9004
1943.00,2.9079
1942.00,2.9227
1941.00,2.9414
1940.00,2.9565
1939.00,2.9639
1938.00,2.9648
1937.00,2.9634
1936.00,2.9632
1935.00,2.9653
1934.00,2.9699
1933.00,2.9767
1932.00,2.9845
1931.00,2.9916
1930.00,2.9949
1929.00,2.9943
1928.00,2.9944
1927.00,2.9992
1926.00,3.0064
1925.00,3.0081
1924.00,3.0033
1923.00,3.0002
1922.00,3.0032
1921.00,3.0056
1920.00,2.9987
1919.00,2.9847
1918.00,2.9738
1917.00,2.9702
1916.00,2.9684
1915.00,2.9629
1914.00,2.9544
1913.00,2.9453
1912.00,2.9347
1911.00,2.9218
1910.00,2.9075
1909.00,2.8945
1908.00,2.8825
1907.00,2.8698
1906.00,2.8567
1905.00,2.8434
1904.00,2.8298
1903.00,2.8145
1902.00,2.7967
1901.00,2.7781
1900.00,2.7603
1899.00,2.7422
1898.00,2.7214
1897.00,2.6966
1896.00,2.6693
1895.00,2.6428
1894.00,2.6177
1893.00,2.5906
1892.00,2.5578
1891.00,2.5196
1890.00,2.4807
1889.00,2.4443
1888.00,2.4073
1887.00,2.3640
1886.00,2.3137
1885.00,2.2603
1884.00,2.2078
1883.00,2.1561
1882.00,2.1031
1881.00,2.0489
1880.00,1.9956
1879.00,1.9443
1878.00,1.8966
1877.00,1.8539
1876.00,1.8164
1875.00,1.7856
1874.00,1.7636
1873.00,1.7507
1872.00,1.7438
1871.00,1.7399
1870.00,1.7404
1869.00,1.7502
1868.00,1.7705
1867.00,1.7959
1866.00,1.8223
1865.00,1.8512
1864.00,1.8863
1863.00,1.9286
1862.00,1.9766
1861.00,2.0292
1860.00,2.0852
1859.00,2.1430
1858.00,2.2010
1857.00,2.2588
1856.00,2.3153
1855.00,2.3687
1854.00,2.4180
1853.00,2.4648
1852.00,2.5099
1851.00,2.5507
1850.00,2.5881
1849.00,2.6282
1848.00,2.6735
1847.00,2.7170
1846.00,2.7505
1845.00,2.7752
1844.00,2.8006
1843.00,2.8299
1842.00,2.8562
1841.00,2.8743
1840.00,2.8867
1839.00,2.9003
1838.00,2.9193
1837.00,2.9406
1836.00,2.9603
1835.00,2.9794
1834.00,3.0009
1833.00,3.0244
1832.00,3.0436
1831.00,3.0541
1830.00,3.0627
1829.00,3.0747
1828.00,3.0833
1827.00,3.0811
1826.00,3.0742
1825.00,3.0761
1824.00,3.0890
1823.00,3.1016
1822.00,3.1055
1821.00,3.1030
1820.00,3.0995
1819.00,3.0977
1818.00,3.0985
1817.00,3.1018
1816.00,3.1064
1815.00,3.1081
1814.00,3.1038
1813.00,3.0953
1812.00,3.0865
1811.00,3.0824
1810.00,3.0831
1809.00,3.0838
1808.00,3.0807
1807.00,3.0737
1806.00,3.0641
1805.00,3.0523
1804.00,3.0395
1803.00,3.0265
1802.00,3.0144
1801.00,3.0037
1800.00,2.9902
1799.00,2.9688
1798.00,2.9397
1797.00,2.9092
1796.00,2.8844
1795.00,2.8628
1794.00,2.8351
1793.00,2.7950
1792.00,2.7454
1791.00,2.6933
1790.00,2.6406
1789.00,2.5844
1788.00,2.5228
1787.00,2.4566
1786.00,2.3915
1785.00,2.3362
1784.00,2.2970
1783.00,2.2687
1782.00,2.2452
1781.00,2.2327
1780.00,2.2388
1779.00,2.2642
1778.00,2.3041
1777.00,2.3590
1776.00,2.4309
1775.00,2.5120
1774.00,2.5934
1773.00,2.6763
1772.00,2.7610
1771.00,2.8332
1770.00,2.8787
1769.00,2.9037
1768.00,2.9312
1767.00,2.9747
1766.00,3.0252
1765.00,3.0680
1764.00,3.0987
1763.00,3.1251
1762.00,3.1584
1761.00,3.1996
1760.00,3.2355
1759.00,3.2550
1758.00,3.2608
1757.00,3.2747
1756.00,3.3124
1755.00,3.3647
1754.00,3.4120
1753.00,3.4466
1752.00,3.4752
1751.00,3.5089
1750.00,3.5504
1749.00,3.5894
1748.00,3.6172
1747.00,3.6325
1746.00,3.6486
1745.00,3.6826
1744.00,3.7340
1743.00,3.7795
1742.00,3.7989
1741.00,3.8010
1740.00,3.8129
1739.00,3.8587
1738.00,3.9421
1737.00,4.0529
1736.00,4.1776
1735.00,4.2690
1734.00,4.2911
1733.00,4.3161
1732.00,4.3758
1731.00,4.4294
1730.00,4.4832
1729.00,4.5139
1728.00,4.4523
1727.00,4.3586
1726.00,4.2990
1725.00,4.2946
1724.00,4.3621
1723.00,4.4476
1722.00,4.4565
1721.00,4.4542
1720.00,4.5131
1719.00,4.6488
1718.00,4.7868
1717.00,4.6851
1716.00,4.5264
1715.00,4.4906
1714.00,4.5945
1713.00,4.9090
1712.00,5.1969
1711.00,4.9556
1710.00,4.8475
1709.00,4.8459
1708.00,4.9620
1707.00,5.0542
1706.00,4.7960
1705.00,4.6467
1704.00,4.7076
1703.00,4.9406
1702.00,5.2121
1701.00,5.1620
1700.00,5.0751
1699.00,5.1364
1698.00,5.0958
1697.00,4.8766
1696.00,4.6823
1695.00,4.5055
1694.00,4.3414
1693.00,4.2058
1692.00,4.0912
1691.00,4.0017
1690.00,3.9349
1689.00,3.8762
1688.00,3.8225
1687.00,3.7821
1686.00,3.7537
1685.00,3.7297
1684.00,3.7098
1683.00,3.6780
1682.00,3.6174
1681.00,3.5464
1680.00,3.4994
1679.00,3.4916
1678.00,3.5065
1677.00,3.5170
1676.00,3.5161
1675.00,3.5128
1674.00,3.5090
1673.00,3.4950
1672.00,3.4648
1671.00,3.4256
1670.00,3.3852
1669.00,3.3460
1668.00,3.3061
1667.00,3.2653
1666.00,3.2251
1665.00,3.1826
1664.00,3.1350
1663.00,3.0825
1662.00,3.0248
1661.00,2.9627
1660.00,2.8987
1659.00,2.8400
1658.00,2.7983
1657.00,2.7792
1656.00,2.7739
1655.00,2.7680
1654.00,2.7584
1653.00,2.7535
1652.00,2.7549
1651.00,2.7586
1650.00,2.7643
1649.00,2.7698
1648.00,2.7786
1647.00,2.7956
1646.00,2.8170
1645.00,2.8331
1644.00,2.8446
1643.00,2.8573
1642.00,2.8743
1641.00,2.9031
1640.00,2.9459
1639.00,2.9960
1638.00,3.0441
1637.00,3.0851
1636.00,3.1189
1635.00,3.1401
1634.00,3.1440
1633.00,3.1348
1632.00,3.1260
1631.00,3.1267
1630.00,3.1368
1629.00,3.1510
1628.00,3.1680
1627.00,3.1882
1626.00,3.2091
1625.00,3.2271
1624.00,3.2392
1623.00,3.2464
1622.00,3.2512
1621.00,3.2580
1620.00,3.2701
1619.00,3.2872
1618.00,3.3064
1617.00,3.3223
1616.00,3.3270
1615.00,3.3137
1614.00,3.2867
1613.00,3.2598
1612.00,3.2483
1611.00,3.2559
1610.00,3.2696
1609.00,3.2746
1608.00,3.2699
1607.00,3.2632
1606.00,3.2584
1605.00,3.2559
1604.00,3.2527
1603.00,3.2468
1602.00,3.2374
1601.00,3.2238
1600.00,3.2072
1599.00,3.1912
1598.00,3.1801
1597.00,3.1742
1596.00,3.1709
1595.00,3.1668
1594.00,3.1585
1593.00,3.1441
1592.00,3.1245
1591.00,3.1031
1590.00,3.0821
1589.00,3.0612
1588.00,3.0395
1587.00,3.0174
1586.00,2.9943
1585.00,2.9700
1584.00,2.9438
1583.00,2.9122
1582.00,2.8767
1581.00,2.8453
1580.00,2.8232
1579.00,2.8044
1578.00,2.7784
1577.00,2.7370
1576.00,2.6815
1575.00,2.6198
1574.00,2.5577
1573.00,2.4972
1572.00,2.4363
1571.00,2.3736
1570.00,2.3065
1569.00,2.2359
1568.00,2.1648
1567.00,2.0964
1566.00,2.0368
1565.00,1.9955
1564.00,1.9807
1563.00,1.9900
1562.00,2.0177
1561.00,2.0631
1560.00,2.1238
1559.00,2.1951
1558.00,2.2615
1557.00,2.2926
1556.00,2.2961
1555.00,2.3010
1554.00,2.3302
1553.00,2.3818
1552.00,2.4311
1551.00,2.4713
1550.00,2.5193
1549.00,2.5840
1548.00,2.6523
1547.00,2.7085
1546.00,2.7571
1545.00,2.8156
1544.00,2.8915
1543.00,2.9748
1542.00,3.0503
1541.00,3.1025
1540.00,3.1288
1539.00,3.1395
1538.00,3.1454
1537.00,3.1498
1536.00,3.1529
1535.00,3.1578
1534.00,3.1735
1533.00,3.2023
1532.00,3.2266
1531.00,3.2339
1530.00,3.2310
1529.00,3.2272
1528.00,3.2283
1527.00,3.2404
1526.00,3.2709
1525.00,3.3163
1524.00,3.3555
1523.00,3.3710
1522.00,3.3711
1521.00,3.3806
1520.00,3.4035
1519.00,3.4198
1518.00,3.4193
1517.00,3.4108
1516.00,3.4049
1515.00,3.3964
1514.00,3.3793
1513.00,3.3623
1512.00,3.3597
1511.00,3.3775
1510.00,3.4046
1509.00,3.4239
1508.00,3.4292
1507.00,3.4350
1506.00,3.4430
1505.00,3.4334
1504.00,3.4018
1503.00,3.3589
1502.00,3.3246
1501.00,3.3167
1500.00,3.3349
1499.00,3.3591
1498.00,3.3691
1497.00,3.3578
1496.00,3.3355
1495.00,3.3174
1494.00,3.3072
1493.00,3.2969
1492.00,3.2766
1491.00,3.2439
1490.00,3.2089
1489.00,3.1814
1488.00,3.1587
1487.00,3.1356
1486.00,3.1072
1485.00,3.0731
1484.00,3.0354
1483.00,2.9934
1482.00,2.9504
1481.00,2.9109
1480.00,2.8746
1479.00,2.8354
1478.00,2.7921
1477.00,2.7504
1476.00,2.7176
1475.00,2.6932
1474.00,2.6719
1473.00,2.6585
1472.00,2.6619
1471.00,2.6832
1470.00,2.7197
1469.00,2.7730
1468.00,2.8455
1467.00,2.9329
1466.00,3.0226
1465.00,3.1033
1464.00,3.1658
1463.00,3.2084
1462.00,3.2437
1461.00,3.2887
1460.00,3.3491
1459.00,3.4146
1458.00,3.4761
1457.00,3.5436
1456.00,3.6315
1455.00,3.7330
1454.00,3.8381
1453.00,3.9519
1452.00,4.0786
1451.00,4.1918
1450.00,4.2360
1449.00,4.1898
1448.00,4.0931
1447.00,3.9843
1446.00,3.8679
1445.00,3.7401
1444.00,3.6073
1443.00,3.4868
1442.00,3.3949
1441.00,3.3385
1440.00,3.3117
1439.00,3.3046
1438.00,3.3154
1437.00,3.3532
1436.00,3.4227
1435.00,3.5028
1434.00,3.5627
1433.00,3.5923
1432.00,3.6047
1431.00,3.6166
1430.00,3.6360
1429.00,3.6593
1428.00,3.6796
1427.00,3.6958
1426.00,3.7135
1425.00,3.7423
1424.00,3.7787
1423.00,3.8059
1422.00,3.8123
1421.00,3.7967
1420.00,3.7556
1419.00,3.6882
1418.00,3.6059
1417.00,3.5172
1416.00,3.4276
1415.00,3.3467
1414.00,3.2814
1413.00,3.2311
1412.00,3.1920
1411.00,3.1637
1410.00,3.1488
1409.00,3.1444
1408.00,3.1449
1407.00,3.1477
1406.00,3.1536
1405.00,3.1685
1404.00,3.1940
1403.00,3.2244
1402.00,3.2514
1401.00,3.2696
1400.00,3.2814
1399.00,3.2951
1398.00,3.3152
1397.00,3.3349
1396.00,3.3463
1395.00,3.3518
1394.00,3.3626
1393.00,3.3854
1392.00,3.4127
1391.00,3.4311
1390.00,3.4333
1389.00,3.4234
1388.00,3.4146
1387.00,3.4211
1386.00,3.4461
1385.00,3.4818
1384.00,3.5184
1383.00,3.5495
1382.00,3.5693
1381.00,3.5735
1380.00,3.5690
1379.00,3.5689
1378.00,3.5762
1377.00,3.5804
1376.00,3.5690
1375.00,3.5447
1374.00,3.5293
1373.00,3.5373
1372.00,3.5572
1371.00,3.5634
1370.00,3.5442
1369.00,3.5138
1368.00,3.4903
1367.00,3.4788
1366.00,3.4763
1365.00,3.4789
1364.00,3.4802
1363.00,3.4709
1362.00,3.4471
1361.00,3.4167
1360.00,3.3921
1359.00,3.3778
1358.00,3.3692
1357.00,3.3595
1356.00,3.3479
1355.00,3.3415
1354.00,3.3476
1353.00,3.3682
1352.00,3.4041
1351.00,3.4607
1350.00,3.5447
1349.00,3.6533
1348.00,3.7569
1347.00,3.8087
1346.00,3.8000
1345.00,3.7725
1344.00,3.7597
1343.00,3.7680
1342.00,3.7917
1341.00,3.8261
1340.00,3.8635
1339.00,3.8796
1338.00,3.8469
1337.00,3.7717
1336.00,3.6838
1335.00,3.6050
1334.00,3.5393
1333.00,3.4788
1332.00,3.4161
1331.00,3.3525
1330.00,3.2942
1329.00,3.2449
1328.00,3.2056
1327.00,3.1777
1326.00,3.1648
1325.00,3.1710
1324.00,3.1975
1323.00,3.2423
1322.00,3.3011
1321.00,3.3681
1320.00,3.4341
1319.00,3.4942
1318.00,3.5605
1317.00,3.6538
1316.00,3.7793
1315.00,3.9160
1314.00,4.0231
1313.00,4.0872
1312.00,4.1496
1311.00,4.2298
1310.00,4.2678
1309.00,4.1867
1308.00,4.0250
1307.00,3.8599
1306.00,3.7267
1305.00,3.6253
1304.00,3.5389
1303.00,3.4522
1302.00,3.3631
1301.00,3.2796
1300.00,3.2080
1299.00,3.1462
1298.00,3.0890
1297.00,3.0337
1296.00,2.9825
1295.00,2.9401
1294.00,2.9113
1293.00,2.8991
1292.00,2.9034
1291.00,2.9206
1290.00,2.9464
1289.00,2.9786
1288.00,3.0171
1287.00,3.0611
1286.00,3.1070
1285.00,3.1515
1284.00,3.1936
1283.00,3.2328
1282.00,3.2681
1281.00,3.3017
1280.00,3.3382
1279.00,3.3792
1278.00,3.4196
1277.00,3.4555
1276.00,3.4935
1275.00,3.5431
1274.00,3.5987
1273.00,3.6355
1272.00,3.6356
1271.00,3.6159
1270.00,3.6081
1269.00,3.6278
1268.00,3.6686
1267.00,3.7115
1266.00,3.7410
1265.00,3.7531
1264.00,3.7489
1263.00,3.7328
1262.00,3.7073
1261.00,3.6755
1260.00,3.6506
1259.00,3.6502
1258.00,3.6847
1257.00,3.7521
1256.00,3.8334
1255.00,3.8994
1254.00,3.9363
1253.00,3.9424
1252.00,3.9069
1251.00,3.8397
1250.00,3.7773
1249.00,3.7449
1248.00,3.7477
1247.00,3.7782
1246.00,3.8245
1245.00,3.8749
1244.00,3.9155
1243.00,3.9323
1242.00,3.9282
1241.00,3.9212
1240.00,3.9311
1239.00,3.9727
1238.00,4.0469
1237.00,4.1309
1236.00,4.1665
1235.00,4.1281
1234.00,4.0755
1233.00,4.0510
1232.00,4.0630
1231.00,4.1180
1230.00,4.2100
1229.00,4.3263
1228.00,4.3984
1227.00,4.2905
1226.00,4.1478
1225.00,4.0672
1224.00,4.0186
1223.00,4.0049
1222.00,4.0553
1221.00,4.1618
1220.00,4.2237
1219.00,4.1823
1218.00,4.1416
1217.00,4.1378
1216.00,4.1496
1215.00,4.1550
1214.00,4.1473
1213.00,4.1483
1212.00,4.1498
1211.00,4.1187
1210.00,4.0482
1209.00,3.9632
1208.00,3.8925
1207.00,3.8456
1206.00,3.8212
1205.00,3.8162
1204.00,3.8183
1203.00,3.8072
1202.00,3.7909
1201.00,3.7895
1200.00,3.7890
1199.00,3.7743
1198.00,3.7542
1197.00,3.7302
1196.00,3.7014
1195.00,3.6746
1194.00,3.6544
1193.00,3.6381
1192.00,3.6219
1191.00,3.6070
1190.00,3.5935
1189.00,3.5793
1188.00,3.5628
1187.00,3.5392
1186.00,3.5054
1185.00,3.4652
1184.00,3.4254
1183.00,3.3955
1182.00,3.3830
1181.00,3.3863
1180.00,3.3960
1179.00,3.4056
1178.00,3.4138
1177.00,3.4167
1176.00,3.4051
1175.00,3.3788
1174.00,3.3521
1173.00,3.3378
1172.00,3.3327
1171.00,3.3241
1170.00,3.3081
1169.00,3.2947
1168.00,3.2918
1167.00,3.2973
1166.00,3.3080
1165.00,3.3286
1164.00,3.3657
1163.00,3.4135
1162.00,3.4518
1161.00,3.4637
1160.00,3.4536
1159.00,3.4377
1158.00,3.4304
1157.00,3.4407
1156.00,3.4726
1155.00,3.5211
1154.00,3.5680
1153.00,3.5946
1152.00,3.6066
1151.00,3.6252
1150.00,3.6609
1149.00,3.7138
1148.00,3.7754
1147.00,3.8224
1146.00,3.8256
1145.00,3.7844
1144.00,3.7409
1143.00,3.7394
1142.00,3.8013
1141.00,3.9084
1140.00,3.9713
1139.00,3.9225
1138.00,3.8338
1137.00,3.7900
1136.00,3.8103
1135.00,3.8609
1134.00,3.8863
1133.00,3.8729
1132.00,3.8840
1131.00,3.9781
1130.00,4.1455
1129.00,4.3030
1128.00,4.4068
1127.00,4.4576
1126.00,4.4157
1125.00,4.3286
1124.00,4.2685
1123.00,4.2583
1122.00,4.2784
1121.00,4.3047
1120.00,4.3450
1119.00,4.4224
1118.00,4.4268
1117.00,4.2676
1116.00,4.1544
1115.00,4.1272
1114.00,4.1217
1113.00,4.0660
1112.00,3.9475
1111.00,3.8258
1110.00,3.7538
1109.00,3.7540
1108.00,3.8338
1107.00,3.9739
1106.00,4.1814
1105.00,4.3925
1104.00,4.2302
1103.00,4.0814
1102.00,4.0242
1101.00,3.9584
1100.00,3.9014
1099.00,3.8650
1098.00,3.8551
1097.00,3.9017
1096.00,3.9991
1095.00,4.1064
1094.00,4.2047
1093.00,4.2315
1092.00,4.1768
1091.00,4.1135
1090.00,4.0931
1089.00,4.1265
1088.00,4.1169
1087.00,4.0670
1086.00,4.1468
1085.00,4.3316
1084.00,4.4988
1083.00,4.8781
1082.00,4.5134
1081.00,4.0888
1080.00,3.8750
1079.00,3.7770
1078.00,3.7902
1077.00,3.8934
1076.00,4.0499
1075.00,4.1817
1074.00,4.1336
1073.00,4.0755
1072.00,4.1522
1071.00,4.3113
1070.00,4.3390
1069.00,4.1710
1068.00,3.9962
1067.00,3.8811
1066.00,3.8287
1065.00,3.8249
1064.00,3.8482
1063.00,3.8703
1062.00,3.8588
1061.00,3.8054
1060.00,3.7426
1059.00,3.6984
1058.00,3.6714
1057.00,3.6478
1056.00,3.6274
1055.00,3.6328
1054.00,3.6830
1053.00,3.7554
1052.00,3.7842
1051.00,3.7504
1050.00,3.7070
1049.00,3.7031
1048.00,3.7364
1047.00,3.7586
1046.00,3.7240
1045.00,3.6391
1044.00,3.5483
1043.00,3.4853
1042.00,3.4613
1041.00,3.4668
1040.00,3.4737
1039.00,3.4579
1038.00,3.4242
1037.00,3.3928
1036.00,3.3756
1035.00,3.3732
1034.00,3.3828
1033.00,3.4012
1032.00,3.4210
1031.00,3.4369
1030.00,3.4518
1029.00,3.4715
1028.00,3.4955
1027.00,3.5225
1026.00,3.5638
1025.00,3.6384
1024.00,3.7544
1023.00,3.8951
1022.00,4.0176
1021.00,4.0795
1020.00,4.0637
1019.00,3.9959
1018.00,3.9309
1017.00,3.8913
1016.00,3.8677
1015.00,3.8407
1014.00,3.8022
1013.00,3.7957
1012.00,3.8599
1011.00,3.9622
1010.00,4.0289
1009.00,4.0520
1008.00,4.0290
1007.00,3.9758
1006.00,3.9682
1005.00,4.0713
1004.00,4.3579
1003.00,4.5569
1002.00,4.4580
1001.00,4.6803
1000.00,4.5748
999.00,4.2356
998.00,4.1094
997.00,4.0929
996.00,4.2197
995.00,4.4988
994.00,4.3993
993.00,4.4021
992.00,4.7013
991.00,4.3544
990.00,4.1927
989.00,4.2333
988.00,4.3199
987.00,4.3072
986.00,4.4157
985.00,5.1418
984.00,4.5959
983.00,4.2903
982.00,4.2455
981.00,4.3272
980.00,4.4548
979.00,4.4811
978.00,4.4217
977.00,4.3020
976.00,4.2453
975.00,4.3192
974.00,4.5150
973.00,4.7252
972.00,4.6080
971.00,4.3767
970.00,4.2699
969.00,4.3645
968.00,4.8559
967.00,4.6554
966.00,4.2644
965.00,4.1817
964.00,4.2436
963.00,4.4201
962.00,4.6642
961.00,4.9334
960.00,5.1729
959.00,4.8076
958.00,4.9578
957.00,4.8964
956.00,4.3112
955.00,4.1396
954.00,4.1635
953.00,4.3743
952.00,4.7924
951.00,4.6793
950.00,4.6220
949.00,4.8682
948.00,5.3047
947.00,4.6740
946.00,4.1921
945.00,3.9800
944.00,3.9442
943.00,4.0453
942.00,4.1666
941.00,4.1842
940.00,4.2551
939.00,4.4724
938.00,4.5412
937.00,4.4156
936.00,4.5002
935.00,4.7431
934.00,4.5655
933.00,4.3529
932.00,4.1873
931.00,4.0529
930.00,3.9919
929.00,3.9876
928.00,3.9903
927.00,3.9637
926.00,3.9125
925.00,3.8530
924.00,3.8015
923.00,3.7727
922.00,3.7686
921.00,3.7837
920.00,3.8220
919.00,3.9152
918.00,4.1040
917.00,4.4010
916.00,4.7001
915.00,4.3777
914.00,4.0520
913.00,3.9212
912.00,3.8983
911.00,3.9255
910.00,3.9767
909.00,4.0424
908.00,4.0767
907.00,4.0273
906.00,3.9514
905.00,3.9403
904.00,4.0205
903.00,4.1259
902.00,4.1274
901.00,4.0487
900.00,3.9974
899.00,3.9705
898.00,3.9476
897.00,3.9618
896.00,4.0918
895.00,4.3358
894.00,4.1329
893.00,3.8853
892.00,3.7889
891.00,3.7918
890.00,3.8700
889.00,3.9904
888.00,4.1028
887.00,4.1601
886.00,4.1612
885.00,4.1435
884.00,4.1576
883.00,4.2015
882.00,4.2980
881.00,4.4280
880.00,4.6500
879.00,4.9133
878.00,4.2772
877.00,4.0745
876.00,4.0530
875.00,4.0761
874.00,4.0616
873.00,3.9901
872.00,3.9377
871.00,3.9464
870.00,4.0128
869.00,4.0693
868.00,4.0400
867.00,4.0045
866.00,4.0592
865.00,4.2907
864.00,4.6542
863.00,4.7548
862.00,4.9757
861.00,4.4343
860.00,4.2434
859.00,4.2305
858.00,4.3083
857.00,4.4575
856.00,4.3063
855.00,4.0640
854.00,3.9794
853.00,4.0451
852.00,4.2273
851.00,4.3672
850.00,4.3207
849.00,4.2568
848.00,4.3238
847.00,4.7015
846.00,4.7797
845.00,4.2315
844.00,4.0653
843.00,4.0698
842.00,4.2905
841.00,4.9337
840.00,4.9161
839.00,4.9489
838.00,4.5295
837.00,4.2827
836.00,4.1724
835.00,4.1122
834.00,4.1453
833.00,4.3029
832.00,4.4833
831.00,4.4240
830.00,4.3165
829.00,4.1887
828.00,4.0372
827.00,3.9114
826.00,3.8425
825.00,3.8482
824.00,3.9338
823.00,4.0886
822.00,4.1836
821.00,4.0879
820.00,3.9953
819.00,3.9705
818.00,4.0083
817.00,4.0943
816.00,4.2813
815.00,4.7813
814.00,4.7810
813.00,4.8404
812.00,4.8050
811.00,4.3672
810.00,4.2369
809.00,4.1143
808.00,4.0045
807.00,3.9480
806.00,3.8704
805.00,3.8010
804.00,3.7992
803.00,3.8501
802.00,3.8914
801.00,3.8887
800.00,3.8894
799.00,3.9489
798.00,4.1236
797.00,4.5562
796.00,4.6357
795.00,4.3812
794.00,4.3780
793.00,4.2843
792.00,4.1593
791.00,4.1070
790.00,4.0618
789.00,3.9881
788.00,3.9224
787.00,3.8913
786.00,3.8901
785.00,3.8968
784.00,3.8841
783.00,3.8525
782.00,3.8341
781.00,3.8548
780.00,3.9030
779.00,3.9419
778.00,3.9623
777.00,3.9462
776.00,3.8923
775.00,3.8555
774.00,3.8551
773.00,3.8783
772.00,3.9154
771.00,3.9613
770.00,3.9928
769.00,3.9663
768.00,3.8891
767.00,3.8098
766.00,3.7792
765.00,3.8315
764.00,4.0199
763.00,4.3612
762.00,4.2023
761.00,3.9942
760.00,3.9100
759.00,3.8607
758.00,3.8381
757.00,3.8623
756.00,3.9586
755.00,4.1365
754.00,4.3021
753.00,4.3530
752.00,4.4847
751.00,4.7515
750.00,4.6337
749.00,4.3335
748.00,4.1930
747.00,4.1346
746.00,4.0759
745.00,4.0726
744.00,4.1650
743.00,4.2216
742.00,4.2266
741.00,4.3631
740.00,4.4880
739.00,4.3749
738.00,4.3900
737.00,4.4671
736.00,4.2899
735.00,4.1588
734.00,4.1992
733.00,4.4918
732.00,4.8127
731.00,4.3960
730.00,4.3962
729.00,4.4610
728.00,4.3106
727.00,4.2805
726.00,4.4272
725.00,4.6519
724.00,4.3474
723.00,4.0650
722.00,3.9799
721.00,4.0645
720.00,4.2763
719.00,4.3797
718.00,4.3864
717.00,4.3797
716.00,4.2478
715.00,4.1198
714.00,4.0268
713.00,3.9945
712.00,4.1269
711.00,4.6930
710.00,4.6546
709.00,4.3727
708.00,4.2903
707.00,4.1542
706.00,4.0316
705.00,4.0479
704.00,4.3983
703.00,4.5161
702.00,4.0569
701.00,3.9670
700.00,4.0395
