Created as New Dataset,Sample 086 By Administrator Date Wednesday, November 24 2021
cm-1,A
7502.00,0.7815
7501.00,0.7835
7500.00,0.7861
7499.00,0.7894
7498.00,0.7933
7497.00,0.7976
7496.00,0.8021
7495.00,0.8070
7494.00,0.8124
7493.00,0.8183
7492.00,0.8247
7491.00,0.8316
7490.00,0.8387
7489.00,0.8462
7488.00,0.8538
7487.00,0.8618
7486.00,0.8698
7485.00,0.8778
7484.00,0.8858
7483.00,0.8941
7482.00,0.9027
7481.00,0.9117
7480.00,0.9208
7479.00,0.9300
7478.00,0.9393
7477.00,0.9485
7476.00,0.9577
7475.00,0.9670
7474.00,0.9766
7473.00,0.9860
7472.00,0.9948
7471.00,1.0030
7470.00,1.0112
7469.00,1.0197
7468.00,1.0281
7467.00,1.0363
7466.00,1.0442
7465.00,1.0520
7464.00,1.0593
7463.00,1.0655
7462.00,1.0707
7461.00,1.0755
7460.00,1.0803
7459.00,1.0848
7458.00,1.0887
7457.00,1.0925
7456.00,1.0968
7455.00,1.1014
7454.00,1.1052
7453.00,1.1081
7452.00,1.1108
7451.00,1.1140
7450.00,1.1171
7449.00,1.1192
7448.00,1.1205
7447.00,1.1218
7446.00,1.1233
7445.00,1.1238
7444.00,1.1220
7443.00,1.1184
7442.00,1.1143
7441.00,1.1110
7440.00,1.1082
7439.00,1.1049
7438.00,1.1008
7437.00,1.0962
7436.00,1.0915
7435.00,1.0871
7434.00,1.0827
7433.00,1.0781
7432.00,1.0733
7431.00,1.0684
7430.00,1.0636
7429.00,1.0592
7428.00,1.0558
7427.00,1.0537
7426.00,1.0525
7425.00,1.0510
7424.00,1.0482
7423.00,1.0445
7422.00,1.0400
7421.00,1.0349
7420.00,1.0285
7419.00,1.0207
7418.00,1.0123
7417.00,1.0043
7416.00,0.9970
7415.00,0.9905
7414.00,0.9843
7413.00,0.9783
7412.00,0.9722
7411.00,0.9656
7410.00,0.9586
7409.00,0.9518
7408.00,0.9458
7407.00,0.9410
7406.00,0.9369
7405.00,0.9324
7404.00,0.9269
7403.00,0.9203
7402.00,0.9132
7401.00,0.9056
7400.00,0.8975
7399.00,0.8888
7398.00,0.8801
7397.00,0.8719
7396.00,0.8641
7395.00,0.8565
7394.00,0.8489
7393.00,0.8414
7392.00,0.8340
7391.00,0.8265
7390.00,0.8190
7389.00,0.8119
7388.00,0.8057
7387.00,0.8002
7386.00,0.7952
7385.00,0.7906
7384.00,0.7862
7383.00,0.7821
7382.00,0.7784
7381.00,0.7752
7380.00,0.7725
7379.00,0.7702
7378.00,0.7682
7377.00,0.7664
7376.00,0.7649
7375.00,0.7637
7374.00,0.7630
7373.00,0.7630
7372.00,0.7639
7371.00,0.7658
7370.00,0.7685
7369.00,0.7717
7368.00,0.7753
7367.00,0.7795
7366.00,0.7842
7365.00,0.7891
7364.00,0.7941
7363.00,0.7992
7362.00,0.8048
7361.00,0.8114
7360.00,0.8189
7359.00,0.8270
7358.00,0.8351
7357.00,0.8433
7356.00,0.8516
7355.00,0.8605
7354.00,0.8697
7353.00,0.8791
7352.00,0.8885
7351.00,0.8981
7350.00,0.9080
7349.00,0.9181
7348.00,0.9280
7347.00,0.9375
7346.00,0.9468
7345.00,0.9561
7344.00,0.9654
7343.00,0.9747
7342.00,0.9840
7341.00,0.9929
7340.00,1.0016
7339.00,1.0104
7338.00,1.0195
7337.00,1.0286
7336.00,1.0377
7335.00,1.0471
7334.00,1.0570
7333.00,1.0670
7332.00,1.0764
7331.00,1.0852
7330.00,1.0937
7329.00,1.1019
7328.00,1.1092
7327.00,1.1152
7326.00,1.1204
7325.00,1.1258
7324.00,1.1320
7323.00,1.1390
7322.00,1.1461
7321.00,1.1525
7320.00,1.1579
7319.00,1.1630
7318.00,1.1683
7317.00,1.1737
7316.00,1.1781
7315.00,1.1812
7314.00,1.1834
7313.00,1.1857
7312.00,1.1884
7311.00,1.1908
7310.00,1.1921
7309.00,1.1922
7308.00,1.1914
7307.00,1.1908
7306.00,1.1911
7305.00,1.1922
7304.00,1.1932
7303.00,1.1933
7302.00,1.1922
7301.00,1.1897
7300.00,1.1864
7299.00,1.1825
7298.00,1.1789
7297.00,1.1757
7296.00,1.1725
7295.00,1.1691
7294.00,1.1655
7293.00,1.1618
7292.00,1.1577
7291.00,1.1528
7290.00,1.1468
7289.00,1.1399
7288.00,1.1324
7287.00,1.1246
7286.00,1.1166
7285.00,1.1085
7284.00,1.1000
7283.00,1.0912
7282.00,1.0825
7281.00,1.0741
7280.00,1.0659
7279.00,1.0573
7278.00,1.0481
7277.00,1.0384
7276.00,1.0284
7275.00,1.0181
7274.00,1.0073
7273.00,0.9965
7272.00,0.9863
7271.00,0.9766
7270.00,0.9668
7269.00,0.9567
7268.00,0.9465
7267.00,0.9362
7266.00,0.9259
7265.00,0.9151
7264.00,0.9041
7263.00,0.8934
7262.00,0.8833
7261.00,0.8737
7260.00,0.8645
7259.00,0.8555
7258.00,0.8470
7257.00,0.8388
7256.00,0.8310
7255.00,0.8234
7254.00,0.8161
7253.00,0.8091
7252.00,0.8026
7251.00,0.7970
7250.00,0.7925
7249.00,0.7888
7248.00,0.7857
7247.00,0.7830
7246.00,0.7807
7245.00,0.7791
7244.00,0.7780
7243.00,0.7774
7242.00,0.7772
7241.00,0.7773
7240.00,0.7780
7239.00,0.7795
7238.00,0.7816
7237.00,0.7842
7236.00,0.7872
7235.00,0.7907
7234.00,0.7949
7233.00,0.7999
7232.00,0.8056
7231.00,0.8119
7230.00,0.8186
7229.00,0.8254
7228.00,0.8325
7227.00,0.8399
7226.00,0.8478
7225.00,0.8559
7224.00,0.8642
7223.00,0.8727
7222.00,0.8817
7221.00,0.8911
7220.00,0.9007
7219.00,0.9101
7218.00,0.9193
7217.00,0.9283
7216.00,0.9372
7215.00,0.9461
7214.00,0.9552
7213.00,0.9645
7212.00,0.9740
7211.00,0.9835
7210.00,0.9931
7209.00,1.0026
7208.00,1.0119
7207.00,1.0206
7206.00,1.0290
7205.00,1.0374
7204.00,1.0460
7203.00,1.0548
7202.00,1.0633
7201.00,1.0715
7200.00,1.0793
7199.00,1.0869
7198.00,1.0943
7197.00,1.1014
7196.00,1.1080
7195.00,1.1144
7194.00,1.1209
7193.00,1.1274
7192.00,1.1334
7191.00,1.1385
7190.00,1.1426
7189.00,1.1462
7188.00,1.1494
7187.00,1.1523
7186.00,1.1549
7185.00,1.1571
7184.00,1.1595
7183.00,1.1623
7182.00,1.1656
7181.00,1.1689
7180.00,1.1717
7179.00,1.1739
7178.00,1.1755
7177.00,1.1765
7176.00,1.1770
7175.00,1.1771
7174.00,1.1766
7173.00,1.1754
7172.00,1.1733
7171.00,1.1707
7170.00,1.1679
7169.00,1.1651
7168.00,1.1618
7167.00,1.1579
7166.00,1.1540
7165.00,1.1504
7164.00,1.1471
7163.00,1.1437
7162.00,1.1398
7161.00,1.1354
7160.00,1.1302
7159.00,1.1244
7158.00,1.1186
7157.00,1.1129
7156.00,1.1072
7155.00,1.1008
7154.00,1.0934
7153.00,1.0853
7152.00,1.0771
7151.00,1.0690
7150.00,1.0609
7149.00,1.0525
7148.00,1.0437
7147.00,1.0350
7146.00,1.0266
7145.00,1.0182
7144.00,1.0090
7143.00,0.9990
7142.00,0.9884
7141.00,0.9780
7140.00,0.9681
7139.00,0.9582
7138.00,0.9481
7137.00,0.9378
7136.00,0.9276
7135.00,0.9174
7134.00,0.9072
7133.00,0.8971
7132.00,0.8872
7131.00,0.8776
7130.00,0.8685
7129.00,0.8596
7128.00,0.8509
7127.00,0.8424
7126.00,0.8342
7125.00,0.8266
7124.00,0.8194
7123.00,0.8123
7122.00,0.8054
7121.00,0.7989
7120.00,0.7932
7119.00,0.7883
7118.00,0.7840
7117.00,0.7801
7116.00,0.7767
7115.00,0.7740
7114.00,0.7722
7113.00,0.7711
7112.00,0.7704
7111.00,0.7699
7110.00,0.7700
7109.00,0.7711
7108.00,0.7729
7107.00,0.7753
7106.00,0.7779
7105.00,0.7809
7104.00,0.7847
7103.00,0.7891
7102.00,0.7942
7101.00,0.7999
7100.00,0.8062
7099.00,0.8130
7098.00,0.8202
7097.00,0.8275
7096.00,0.8350
7095.00,0.8428
7094.00,0.8509
7093.00,0.8593
7092.00,0.8680
7091.00,0.8769
7090.00,0.8860
7089.00,0.8954
7088.00,0.9050
7087.00,0.9148
7086.00,0.9246
7085.00,0.9346
7084.00,0.9449
7083.00,0.9553
7082.00,0.9658
7081.00,0.9761
7080.00,0.9862
7079.00,0.9963
7078.00,1.0068
7077.00,1.0174
7076.00,1.0276
7075.00,1.0373
7074.00,1.0470
7073.00,1.0568
7072.00,1.0661
7071.00,1.0746
7070.00,1.0826
7069.00,1.0905
7068.00,1.0988
7067.00,1.1071
7066.00,1.1150
7065.00,1.1230
7064.00,1.1311
7063.00,1.1390
7062.00,1.1462
7061.00,1.1526
7060.00,1.1584
7059.00,1.1639
7058.00,1.1688
7057.00,1.1734
7056.00,1.1779
7055.00,1.1824
7054.00,1.1869
7053.00,1.1912
7052.00,1.1950
7051.00,1.1982
7050.00,1.2007
7049.00,1.2027
7048.00,1.2048
7047.00,1.2067
7046.00,1.2084
7045.00,1.2097
7044.00,1.2109
7043.00,1.2118
7042.00,1.2119
7041.00,1.2112
7040.00,1.2097
7039.00,1.2078
7038.00,1.2058
7037.00,1.2032
7036.00,1.2004
7035.00,1.1975
7034.00,1.1949
7033.00,1.1921
7032.00,1.1884
7031.00,1.1838
7030.00,1.1789
7029.00,1.1740
7028.00,1.1689
7027.00,1.1630
7026.00,1.1560
7025.00,1.1482
7024.00,1.1402
7023.00,1.1321
7022.00,1.1237
7021.00,1.1148
7020.00,1.1058
7019.00,1.0972
7018.00,1.0890
7017.00,1.0806
7016.00,1.0715
7015.00,1.0617
7014.00,1.0513
7013.00,1.0407
7012.00,1.0299
7011.00,1.0190
7010.00,1.0083
7009.00,0.9976
7008.00,0.9868
7007.00,0.9760
7006.00,0.9651
7005.00,0.9540
7004.00,0.9427
7003.00,0.9313
7002.00,0.9202
7001.00,0.9096
7000.00,0.8992
6999.00,0.8890
6998.00,0.8789
6997.00,0.8691
6996.00,0.8596
6995.00,0.8504
6994.00,0.8414
6993.00,0.8329
6992.00,0.8250
6991.00,0.8175
6990.00,0.8107
6989.00,0.8045
6988.00,0.7989
6987.00,0.7938
6986.00,0.7892
6985.00,0.7853
6984.00,0.7818
6983.00,0.7788
6982.00,0.7762
6981.00,0.7744
6980.00,0.7733
6979.00,0.7728
6978.00,0.7729
6977.00,0.7738
6976.00,0.7755
6975.00,0.7779
6974.00,0.7809
6973.00,0.7846
6972.00,0.7890
6971.00,0.7941
6970.00,0.7996
6969.00,0.8056
6968.00,0.8119
6967.00,0.8186
6966.00,0.8256
6965.00,0.8330
6964.00,0.8408
6963.00,0.8491
6962.00,0.8578
6961.00,0.8668
6960.00,0.8761
6959.00,0.8856
6958.00,0.8951
6957.00,0.9046
6956.00,0.9141
6955.00,0.9238
6954.00,0.9339
6953.00,0.9442
6952.00,0.9545
6951.00,0.9647
6950.00,0.9747
6949.00,0.9847
6948.00,0.9946
6947.00,1.0046
6946.00,1.0147
6945.00,1.0247
6944.00,1.0347
6943.00,1.0447
6942.00,1.0544
6941.00,1.0637
6940.00,1.0725
6939.00,1.0809
6938.00,1.0891
6937.00,1.0975
6936.00,1.1060
6935.00,1.1142
6934.00,1.1218
6933.00,1.1289
6932.00,1.1355
6931.00,1.1418
6930.00,1.1478
6929.00,1.1535
6928.00,1.1592
6927.00,1.1649
6926.00,1.1705
6925.00,1.1757
6924.00,1.1803
6923.00,1.1846
6922.00,1.1885
6921.00,1.1918
6920.00,1.1942
6919.00,1.1962
6918.00,1.1983
6917.00,1.2004
6916.00,1.2020
6915.00,1.2030
6914.00,1.2035
6913.00,1.2037
6912.00,1.2037
6911.00,1.2033
6910.00,1.2024
6909.00,1.2009
6908.00,1.1988
6907.00,1.1963
6906.00,1.1938
6905.00,1.1911
6904.00,1.1878
6903.00,1.1840
6902.00,1.1798
6901.00,1.1758
6900.00,1.1716
6899.00,1.1669
6898.00,1.1616
6897.00,1.1560
6896.00,1.1501
6895.00,1.1441
6894.00,1.1377
6893.00,1.1310
6892.00,1.1241
6891.00,1.1170
6890.00,1.1095
6889.00,1.1015
6888.00,1.0928
6887.00,1.0836
6886.00,1.0743
6885.00,1.0646
6884.00,1.0546
6883.00,1.0441
6882.00,1.0337
6881.00,1.0235
6880.00,1.0134
6879.00,1.0030
6878.00,0.9923
6877.00,0.9813
6876.00,0.9702
6875.00,0.9593
6874.00,0.9486
6873.00,0.9381
6872.00,0.9274
6871.00,0.9167
6870.00,0.9061
6869.00,0.8957
6868.00,0.8852
6867.00,0.8746
6866.00,0.8641
6865.00,0.8543
6864.00,0.8450
6863.00,0.8362
6862.00,0.8276
6861.00,0.8194
6860.00,0.8116
6859.00,0.8044
6858.00,0.7978
6857.00,0.7917
6856.00,0.7862
6855.00,0.7813
6854.00,0.7773
6853.00,0.7738
6852.00,0.7709
6851.00,0.7685
6850.00,0.7669
6849.00,0.7660
6848.00,0.7656
6847.00,0.7657
6846.00,0.7663
6845.00,0.7677
6844.00,0.7699
6843.00,0.7727
6842.00,0.7762
6841.00,0.7805
6840.00,0.7854
6839.00,0.7908
6838.00,0.7965
6837.00,0.8028
6836.00,0.8095
6835.00,0.8167
6834.00,0.8242
6833.00,0.8321
6832.00,0.8407
6831.00,0.8497
6830.00,0.8591
6829.00,0.8686
6828.00,0.8780
6827.00,0.8877
6826.00,0.8976
6825.00,0.9079
6824.00,0.9182
6823.00,0.9286
6822.00,0.9389
6821.00,0.9496
6820.00,0.9606
6819.00,0.9718
6818.00,0.9829
6817.00,0.9937
6816.00,1.0043
6815.00,1.0148
6814.00,1.0251
6813.00,1.0355
6812.00,1.0458
6811.00,1.0557
6810.00,1.0651
6809.00,1.0744
6808.00,1.0836
6807.00,1.0928
6806.00,1.1016
6805.00,1.1099
6804.00,1.1181
6803.00,1.1264
6802.00,1.1347
6801.00,1.1428
6800.00,1.1504
6799.00,1.1576
6798.00,1.1647
6797.00,1.1718
6796.00,1.1784
6795.00,1.1846
6794.00,1.1901
6793.00,1.1949
6792.00,1.1987
6791.00,1.2018
6790.00,1.2050
6789.00,1.2085
6788.00,1.2120
6787.00,1.2149
6786.00,1.2174
6785.00,1.2202
6784.00,1.2231
6783.00,1.2252
6782.00,1.2263
6781.00,1.2268
6780.00,1.2270
6779.00,1.2269
6778.00,1.2258
6777.00,1.2239
6776.00,1.2216
6775.00,1.2191
6774.00,1.2167
6773.00,1.2140
6772.00,1.2108
6771.00,1.2072
6770.00,1.2033
6769.00,1.1991
6768.00,1.1946
6767.00,1.1899
6766.00,1.1850
6765.00,1.1797
6764.00,1.1738
6763.00,1.1672
6762.00,1.1602
6761.00,1.1530
6760.00,1.1454
6759.00,1.1374
6758.00,1.1292
6757.00,1.1207
6756.00,1.1118
6755.00,1.1020
6754.00,1.0916
6753.00,1.0810
6752.00,1.0704
6751.00,1.0601
6750.00,1.0497
6749.00,1.0390
6748.00,1.0277
6747.00,1.0159
6746.00,1.0040
6745.00,0.9922
6744.00,0.9804
6743.00,0.9685
6742.00,0.9569
6741.00,0.9457
6740.00,0.9347
6739.00,0.9236
6738.00,0.9124
6737.00,0.9012
6736.00,0.8903
6735.00,0.8797
6734.00,0.8694
6733.00,0.8593
6732.00,0.8496
6731.00,0.8401
6730.00,0.8311
6729.00,0.8228
6728.00,0.8150
6727.00,0.8076
6726.00,0.8006
6725.00,0.7944
6724.00,0.7886
6723.00,0.7834
6722.00,0.7788
6721.00,0.7750
6720.00,0.7721
6719.00,0.7699
6718.00,0.7684
6717.00,0.7676
6716.00,0.7675
6715.00,0.7679
6714.00,0.7688
6713.00,0.7703
6712.00,0.7727
6711.00,0.7758
6710.00,0.7797
6709.00,0.7843
6708.00,0.7894
6707.00,0.7952
6706.00,0.8016
6705.00,0.8084
6704.00,0.8155
6703.00,0.8229
6702.00,0.8306
6701.00,0.8389
6700.00,0.8476
6699.00,0.8567
6698.00,0.8660
6697.00,0.8755
6696.00,0.8853
6695.00,0.8953
6694.00,0.9055
6693.00,0.9159
6692.00,0.9264
6691.00,0.9372
6690.00,0.9482
6689.00,0.9593
6688.00,0.9705
6687.00,0.9815
6686.00,0.9923
6685.00,1.0028
6684.00,1.0133
6683.00,1.0237
6682.00,1.0342
6681.00,1.0446
6680.00,1.0546
6679.00,1.0641
6678.00,1.0731
6677.00,1.0818
6676.00,1.0902
6675.00,1.0984
6674.00,1.1066
6673.00,1.1152
6672.00,1.1241
6671.00,1.1328
6670.00,1.1408
6669.00,1.1484
6668.00,1.1557
6667.00,1.1625
6666.00,1.1688
6665.00,1.1744
6664.00,1.1796
6663.00,1.1844
6662.00,1.1887
6661.00,1.1925
6660.00,1.1959
6659.00,1.1991
6658.00,1.2022
6657.00,1.2051
6656.00,1.2081
6655.00,1.2111
6654.00,1.2139
6653.00,1.2165
6652.00,1.2183
6651.00,1.2192
6650.00,1.2189
6649.00,1.2179
6648.00,1.2164
6647.00,1.2146
6646.00,1.2126
6645.00,1.2104
6644.00,1.2082
6643.00,1.2059
6642.00,1.2032
6641.00,1.1998
6640.00,1.1959
6639.00,1.1920
6638.00,1.1883
6637.00,1.1846
6636.00,1.1803
6635.00,1.1751
6634.00,1.1692
6633.00,1.1625
6632.00,1.1551
6631.00,1.1475
6630.00,1.1398
6629.00,1.1322
6628.00,1.1245
6627.00,1.1165
6626.00,1.1083
6625.00,1.0998
6624.00,1.0907
6623.00,1.0810
6622.00,1.0711
6621.00,1.0614
6620.00,1.0517
6619.00,1.0418
6618.00,1.0314
6617.00,1.0208
6616.00,1.0098
6615.00,0.9986
6614.00,0.9872
6613.00,0.9758
6612.00,0.9643
6611.00,0.9530
6610.00,0.9420
6609.00,0.9311
6608.00,0.9201
6607.00,0.9090
6606.00,0.8979
6605.00,0.8869
6604.00,0.8762
6603.00,0.8658
6602.00,0.8558
6601.00,0.8461
6600.00,0.8367
6599.00,0.8279
6598.00,0.8195
6597.00,0.8115
6596.00,0.8039
6595.00,0.7965
6594.00,0.7897
6593.00,0.7837
6592.00,0.7785
6591.00,0.7738
6590.00,0.7698
6589.00,0.7665
6588.00,0.7640
6587.00,0.7621
6586.00,0.7607
6585.00,0.7599
6584.00,0.7598
6583.00,0.7605
6582.00,0.7620
6581.00,0.7644
6580.00,0.7675
6579.00,0.7713
6578.00,0.7759
6577.00,0.7813
6576.00,0.7872
6575.00,0.7933
6574.00,0.7998
6573.00,0.8068
6572.00,0.8145
6571.00,0.8227
6570.00,0.8315
6569.00,0.8406
6568.00,0.8501
6567.00,0.8598
6566.00,0.8696
6565.00,0.8796
6564.00,0.8898
6563.00,0.9002
6562.00,0.9108
6561.00,0.9217
6560.00,0.9329
6559.00,0.9441
6558.00,0.9551
6557.00,0.9660
6556.00,0.9771
6555.00,0.9884
6554.00,0.9997
6553.00,1.0109
6552.00,1.0219
6551.00,1.0330
6550.00,1.0441
6549.00,1.0550
6548.00,1.0655
6547.00,1.0757
6546.00,1.0858
6545.00,1.0960
6544.00,1.1059
6543.00,1.1155
6542.00,1.1249
6541.00,1.1341
6540.00,1.1430
6539.00,1.1515
6538.00,1.1595
6537.00,1.1671
6536.00,1.1745
6535.00,1.1817
6534.00,1.1885
6533.00,1.1950
6532.00,1.2010
6531.00,1.2067
6530.00,1.2123
6529.00,1.2177
6528.00,1.2225
6527.00,1.2266
6526.00,1.2302
6525.00,1.2334
6524.00,1.2363
6523.00,1.2389
6522.00,1.2413
6521.00,1.2435
6520.00,1.2455
6519.00,1.2468
6518.00,1.2475
6517.00,1.2475
6516.00,1.2472
6515.00,1.2466
6514.00,1.2458
6513.00,1.2448
6512.00,1.2432
6511.00,1.2407
6510.00,1.2371
6509.00,1.2329
6508.00,1.2284
6507.00,1.2237
6506.00,1.2189
6505.00,1.2139
6504.00,1.2090
6503.00,1.2042
6502.00,1.1993
6501.00,1.1938
6500.00,1.1875
6499.00,1.1807
6498.00,1.1734
6497.00,1.1656
6496.00,1.1571
6495.00,1.1481
6494.00,1.1389
6493.00,1.1295
6492.00,1.1199
6491.00,1.1101
6490.00,1.0996
6489.00,1.0885
6488.00,1.0771
6487.00,1.0655
6486.00,1.0540
6485.00,1.0422
6484.00,1.0302
6483.00,1.0182
6482.00,1.0063
6481.00,0.9944
6480.00,0.9823
6479.00,0.9698
6478.00,0.9573
6477.00,0.9449
6476.00,0.9326
6475.00,0.9204
6474.00,0.9084
6473.00,0.8970
6472.00,0.8860
6471.00,0.8752
6470.00,0.8645
6469.00,0.8540
6468.00,0.8438
6467.00,0.8340
6466.00,0.8247
6465.00,0.8159
6464.00,0.8078
6463.00,0.8004
6462.00,0.7935
6461.00,0.7873
6460.00,0.7815
6459.00,0.7764
6458.00,0.7720
6457.00,0.7685
6456.00,0.7660
6455.00,0.7643
6454.00,0.7632
6453.00,0.7628
6452.00,0.7632
6451.00,0.7642
6450.00,0.7659
6449.00,0.7684
6448.00,0.7717
6447.00,0.7759
6446.00,0.7807
6445.00,0.7862
6444.00,0.7923
6443.00,0.7989
6442.00,0.8059
6441.00,0.8134
6440.00,0.8214
6439.00,0.8299
6438.00,0.8389
6437.00,0.8483
6436.00,0.8580
6435.00,0.8680
6434.00,0.8783
6433.00,0.8890
6432.00,0.9000
6431.00,0.9110
6430.00,0.9223
6429.00,0.9337
6428.00,0.9451
6427.00,0.9565
6426.00,0.9677
6425.00,0.9790
6424.00,0.9904
6423.00,1.0018
6422.00,1.0134
6421.00,1.0249
6420.00,1.0361
6419.00,1.0469
6418.00,1.0573
6417.00,1.0675
6416.00,1.0774
6415.00,1.0872
6414.00,1.0969
6413.00,1.1066
6412.00,1.1163
6411.00,1.1258
6410.00,1.1348
6409.00,1.1433
6408.00,1.1516
6407.00,1.1596
6406.00,1.1672
6405.00,1.1743
6404.00,1.1808
6403.00,1.1870
6402.00,1.1929
6401.00,1.1986
6400.00,1.2039
6399.00,1.2089
6398.00,1.2135
6397.00,1.2180
6396.00,1.2220
6395.00,1.2255
6394.00,1.2284
6393.00,1.2309
6392.00,1.2330
6391.00,1.2347
6390.00,1.2359
6389.00,1.2371
6388.00,1.2384
6387.00,1.2394
6386.00,1.2397
6385.00,1.2389
6384.00,1.2372
6383.00,1.2351
6382.00,1.2326
6381.00,1.2298
6380.00,1.2268
6379.00,1.2238
6378.00,1.2210
6377.00,1.2178
6376.00,1.2137
6375.00,1.2090
6374.00,1.2042
6373.00,1.1995
6372.00,1.1947
6371.00,1.1893
6370.00,1.1834
6369.00,1.1769
6368.00,1.1698
6367.00,1.1622
6366.00,1.1544
6365.00,1.1467
6364.00,1.1386
6363.00,1.1301
6362.00,1.1213
6361.00,1.1122
6360.00,1.1027
6359.00,1.0927
6358.00,1.0824
6357.00,1.0721
6356.00,1.0617
6355.00,1.0508
6354.00,1.0393
6353.00,1.0274
6352.00,1.0155
6351.00,1.0036
6350.00,0.9916
6349.00,0.9796
6348.00,0.9679
6347.00,0.9563
6346.00,0.9447
6345.00,0.9329
6344.00,0.9209
6343.00,0.9088
6342.00,0.8968
6341.00,0.8849
6340.00,0.8733
6339.00,0.8621
6338.00,0.8513
6337.00,0.8410
6336.00,0.8314
6335.00,0.8223
6334.00,0.8138
6333.00,0.8056
6332.00,0.7978
6331.00,0.7905
6330.00,0.7839
6329.00,0.7779
6328.00,0.7726
6327.00,0.7680
6326.00,0.7642
6325.00,0.7612
6324.00,0.7590
6323.00,0.7575
6322.00,0.7569
6321.00,0.7570
6320.00,0.7580
6319.00,0.7597
6318.00,0.7622
6317.00,0.7655
6316.00,0.7694
6315.00,0.7740
6314.00,0.7793
6313.00,0.7854
6312.00,0.7922
6311.00,0.7995
6310.00,0.8072
6309.00,0.8155
6308.00,0.8243
6307.00,0.8336
6306.00,0.8433
6305.00,0.8533
6304.00,0.8637
6303.00,0.8743
6302.00,0.8852
6301.00,0.8962
6300.00,0.9073
6299.00,0.9187
6298.00,0.9303
6297.00,0.9421
6296.00,0.9540
6295.00,0.9661
6294.00,0.9785
6293.00,0.9908
6292.00,1.0031
6291.00,1.0151
6290.00,1.0270
6289.00,1.0388
6288.00,1.0503
6287.00,1.0616
6286.00,1.0726
6285.00,1.0837
6284.00,1.0947
6283.00,1.1055
6282.00,1.1162
6281.00,1.1267
6280.00,1.1369
6279.00,1.1467
6278.00,1.1561
6277.00,1.1650
6276.00,1.1734
6275.00,1.1812
6274.00,1.1887
6273.00,1.1962
6272.00,1.2037
6271.00,1.2111
6270.00,1.2181
6269.00,1.2246
6268.00,1.2304
6267.00,1.2358
6266.00,1.2409
6265.00,1.2457
6264.00,1.2501
6263.00,1.2539
6262.00,1.2572
6261.00,1.2601
6260.00,1.2625
6259.00,1.2641
6258.00,1.2652
6257.00,1.2661
6256.00,1.2671
6255.00,1.2681
6254.00,1.2688
6253.00,1.2688
6252.00,1.2684
6251.00,1.2676
6250.00,1.2664
6249.00,1.2646
6248.00,1.2622
6247.00,1.2591
6246.00,1.2557
6245.00,1.2519
6244.00,1.2477
6243.00,1.2430
6242.00,1.2379
6241.00,1.2323
6240.00,1.2263
6239.00,1.2199
6238.00,1.2134
6237.00,1.2066
6236.00,1.1994
6235.00,1.1918
6234.00,1.1836
6233.00,1.1750
6232.00,1.1658
6231.00,1.1561
6230.00,1.1462
6229.00,1.1360
6228.00,1.1257
6227.00,1.1149
6226.00,1.1036
6225.00,1.0920
6224.00,1.0800
6223.00,1.0677
6222.00,1.0553
6221.00,1.0429
6220.00,1.0304
6219.00,1.0178
6218.00,1.0050
6217.00,0.9920
6216.00,0.9789
6215.00,0.9657
6214.00,0.9525
6213.00,0.9395
6212.00,0.9266
6211.00,0.9140
6210.00,0.9015
6209.00,0.8893
6208.00,0.8772
6207.00,0.8653
6206.00,0.8539
6205.00,0.8431
6204.00,0.8327
6203.00,0.8230
6202.00,0.8138
6201.00,0.8053
6200.00,0.7974
6199.00,0.7900
6198.00,0.7833
6197.00,0.7773
6196.00,0.7719
6195.00,0.7673
6194.00,0.7635
6193.00,0.7607
6192.00,0.7587
6191.00,0.7574
6190.00,0.7570
6189.00,0.7576
6188.00,0.7590
6187.00,0.7611
6186.00,0.7639
6185.00,0.7675
6184.00,0.7719
6183.00,0.7769
6182.00,0.7826
6181.00,0.7891
6180.00,0.7962
6179.00,0.8039
6178.00,0.8122
6177.00,0.8211
6176.00,0.8305
6175.00,0.8403
6174.00,0.8504
6173.00,0.8608
6172.00,0.8714
6171.00,0.8821
6170.00,0.8931
6169.00,0.9043
6168.00,0.9159
6167.00,0.9277
6166.00,0.9396
6165.00,0.9516
6164.00,0.9637
6163.00,0.9758
6162.00,0.9879
6161.00,1.0000
6160.00,1.0120
6159.00,1.0239
6158.00,1.0357
6157.00,1.0474
6156.00,1.0588
6155.00,1.0700
6154.00,1.0810
6153.00,1.0917
6152.00,1.1021
6151.00,1.1120
6150.00,1.1216
6149.00,1.1309
6148.00,1.1403
6147.00,1.1499
6146.00,1.1593
6145.00,1.1683
6144.00,1.1768
6143.00,1.1847
6142.00,1.1923
6141.00,1.1993
6140.00,1.2058
6139.00,1.2120
6138.00,1.2182
6137.00,1.2242
6136.00,1.2300
6135.00,1.2350
6134.00,1.2392
6133.00,1.2428
6132.00,1.2460
6131.00,1.2487
6130.00,1.2510
6129.00,1.2531
6128.00,1.2552
6127.00,1.2574
6126.00,1.2592
6125.00,1.2605
6124.00,1.2611
6123.00,1.2613
6122.00,1.2612
6121.00,1.2609
6120.00,1.2603
6119.00,1.2593
6118.00,1.2579
6117.00,1.2560
6116.00,1.2533
6115.00,1.2500
6114.00,1.2468
6113.00,1.2436
6112.00,1.2404
6111.00,1.2368
6110.00,1.2328
6109.00,1.2280
6108.00,1.2223
6107.00,1.2156
6106.00,1.2083
6105.00,1.2007
6104.00,1.1930
6103.00,1.1851
6102.00,1.1770
6101.00,1.1686
6100.00,1.1597
6099.00,1.1503
6098.00,1.1403
6097.00,1.1301
6096.00,1.1194
6095.00,1.1085
6094.00,1.0973
6093.00,1.0859
6092.00,1.0744
6091.00,1.0627
6090.00,1.0507
6089.00,1.0385
6088.00,1.0260
6087.00,1.0131
6086.00,1.0001
6085.00,0.9870
6084.00,0.9739
6083.00,0.9607
6082.00,0.9474
6081.00,0.9342
6080.00,0.9210
6079.00,0.9080
6078.00,0.8953
6077.00,0.8829
6076.00,0.8710
6075.00,0.8596
6074.00,0.8485
6073.00,0.8378
6072.00,0.8275
6071.00,0.8176
6070.00,0.8083
6069.00,0.7998
6068.00,0.7920
6067.00,0.7847
6066.00,0.7781
6065.00,0.7723
6064.00,0.7672
6063.00,0.7629
6062.00,0.7595
6061.00,0.7570
6060.00,0.7555
6059.00,0.7548
6058.00,0.7550
6057.00,0.7559
6056.00,0.7577
6055.00,0.7604
6054.00,0.7640
6053.00,0.7685
6052.00,0.7739
6051.00,0.7799
6050.00,0.7867
6049.00,0.7940
6048.00,0.8020
6047.00,0.8105
6046.00,0.8195
6045.00,0.8291
6044.00,0.8390
6043.00,0.8494
6042.00,0.8601
6041.00,0.8712
6040.00,0.8827
6039.00,0.8943
6038.00,0.9060
6037.00,0.9181
6036.00,0.9304
6035.00,0.9428
6034.00,0.9555
6033.00,0.9682
6032.00,0.9810
6031.00,0.9939
6030.00,1.0067
6029.00,1.0194
6028.00,1.0319
6027.00,1.0445
6026.00,1.0571
6025.00,1.0695
6024.00,1.0816
6023.00,1.0935
6022.00,1.1053
6021.00,1.1169
6020.00,1.1281
6019.00,1.1390
6018.00,1.1497
6017.00,1.1601
6016.00,1.1702
6015.00,1.1799
6014.00,1.1893
6013.00,1.1983
6012.00,1.2068
6011.00,1.2148
6010.00,1.2222
6009.00,1.2294
6008.00,1.2365
6007.00,1.2432
6006.00,1.2494
6005.00,1.2551
6004.00,1.2602
6003.00,1.2648
6002.00,1.2691
6001.00,1.2732
6000.00,1.2771
5999.00,1.2811
5998.00,1.2848
5997.00,1.2880
5996.00,1.2904
5995.00,1.2920
5994.00,1.2928
5993.00,1.2930
5992.00,1.2930
5991.00,1.2928
5990.00,1.2921
5989.00,1.2908
5988.00,1.2889
5987.00,1.2865
5986.00,1.2838
5985.00,1.2808
5984.00,1.2774
5983.00,1.2739
5982.00,1.2704
5981.00,1.2666
5980.00,1.2624
5979.00,1.2575
5978.00,1.2522
5977.00,1.2466
5976.00,1.2408
5975.00,1.2345
5974.00,1.2276
5973.00,1.2201
5972.00,1.2121
5971.00,1.2036
5970.00,1.1948
5969.00,1.1855
5968.00,1.1758
5967.00,1.1657
5966.00,1.1554
5965.00,1.1446
5964.00,1.1334
5963.00,1.1217
5962.00,1.1097
5961.00,1.0976
5960.00,1.0851
5959.00,1.0723
5958.00,1.0591
5957.00,1.0458
5956.00,1.0323
5955.00,1.0187
5954.00,1.0050
5953.00,0.9913
5952.00,0.9774
5951.00,0.9634
5950.00,0.9495
5949.00,0.9358
5948.00,0.9223
5947.00,0.9090
5946.00,0.8961
5945.00,0.8834
5944.00,0.8712
5943.00,0.8595
5942.00,0.8482
5941.00,0.8373
5940.00,0.8269
5939.00,0.8170
5938.00,0.8076
5937.00,0.7988
5936.00,0.7907
5935.00,0.7836
5934.00,0.7775
5933.00,0.7723
5932.00,0.7679
5931.00,0.7642
5930.00,0.7613
5929.00,0.7593
5928.00,0.7584
5927.00,0.7585
5926.00,0.7595
5925.00,0.7615
5924.00,0.7643
5923.00,0.7678
5922.00,0.7721
5921.00,0.7773
5920.00,0.7834
5919.00,0.7903
5918.00,0.7980
5917.00,0.8063
5916.00,0.8152
5915.00,0.8246
5914.00,0.8344
5913.00,0.8449
5912.00,0.8559
5911.00,0.8672
5910.00,0.8788
5909.00,0.8908
5908.00,0.9030
5907.00,0.9153
5906.00,0.9277
5905.00,0.9403
5904.00,0.9531
5903.00,0.9660
5902.00,0.9790
5901.00,0.9921
5900.00,1.0054
5899.00,1.0189
5898.00,1.0323
5897.00,1.0455
5896.00,1.0584
5895.00,1.0712
5894.00,1.0839
5893.00,1.0966
5892.00,1.1092
5891.00,1.1218
5890.00,1.1341
5889.00,1.1461
5888.00,1.1574
5887.00,1.1680
5886.00,1.1784
5885.00,1.1884
5884.00,1.1982
5883.00,1.2077
5882.00,1.2170
5881.00,1.2260
5880.00,1.2347
5879.00,1.2431
5878.00,1.2510
5877.00,1.2588
5876.00,1.2663
5875.00,1.2734
5874.00,1.2800
5873.00,1.2861
5872.00,1.2916
5871.00,1.2963
5870.00,1.3003
5869.00,1.3038
5868.00,1.3071
5867.00,1.3103
5866.00,1.3133
5865.00,1.3161
5864.00,1.3183
5863.00,1.3198
5862.00,1.3208
5861.00,1.3213
5860.00,1.3215
5859.00,1.3213
5858.00,1.3210
5857.00,1.3206
5856.00,1.3197
5855.00,1.3180
5854.00,1.3155
5853.00,1.3124
5852.00,1.3090
5851.00,1.3049
5850.00,1.3004
5849.00,1.2957
5848.00,1.2907
5847.00,1.2854
5846.00,1.2795
5845.00,1.2731
5844.00,1.2663
5843.00,1.2591
5842.00,1.2515
5841.00,1.2437
5840.00,1.2355
5839.00,1.2268
5838.00,1.2175
5837.00,1.2076
5836.00,1.1974
5835.00,1.1868
5834.00,1.1760
5833.00,1.1650
5832.00,1.1536
5831.00,1.1419
5830.00,1.1297
5829.00,1.1171
5828.00,1.1042
5827.00,1.0912
5826.00,1.0780
5825.00,1.0648
5824.00,1.0512
5823.00,1.0374
5822.00,1.0232
5821.00,1.0088
5820.00,0.9944
5819.00,0.9802
5818.00,0.9660
5817.00,0.9519
5816.00,0.9380
5815.00,0.9245
5814.00,0.9112
5813.00,0.8984
5812.00,0.8860
5811.00,0.8739
5810.00,0.8624
5809.00,0.8512
5808.00,0.8405
5807.00,0.8303
5806.00,0.8208
5805.00,0.8121
5804.00,0.8041
5803.00,0.7968
5802.00,0.7904
5801.00,0.7847
5800.00,0.7797
5799.00,0.7756
5798.00,0.7724
5797.00,0.7701
5796.00,0.7688
5795.00,0.7684
5794.00,0.7691
5793.00,0.7707
5792.00,0.7732
5791.00,0.7767
5790.00,0.7810
5789.00,0.7864
5788.00,0.7926
5787.00,0.7995
5786.00,0.8071
5785.00,0.8152
5784.00,0.8240
5783.00,0.8332
5782.00,0.8431
5781.00,0.8535
5780.00,0.8644
5779.00,0.8758
5778.00,0.8875
5777.00,0.8996
5776.00,0.9121
5775.00,0.9247
5774.00,0.9375
5773.00,0.9506
5772.00,0.9639
5771.00,0.9773
5770.00,0.9909
5769.00,1.0047
5768.00,1.0186
5767.00,1.0325
5766.00,1.0464
5765.00,1.0601
5764.00,1.0735
5763.00,1.0867
5762.00,1.0998
5761.00,1.1128
5760.00,1.1255
5759.00,1.1380
5758.00,1.1502
5757.00,1.1622
5756.00,1.1740
5755.00,1.1853
5754.00,1.1963
5753.00,1.2070
5752.00,1.2172
5751.00,1.2270
5750.00,1.2362
5749.00,1.2452
5748.00,1.2539
5747.00,1.2624
5746.00,1.2704
5745.00,1.2779
5744.00,1.2849
5743.00,1.2914
5742.00,1.2973
5741.00,1.3027
5740.00,1.3078
5739.00,1.3123
5738.00,1.3162
5737.00,1.3196
5736.00,1.3229
5735.00,1.3263
5734.00,1.3296
5733.00,1.3327
5732.00,1.3353
5731.00,1.3372
5730.00,1.3384
5729.00,1.3391
5728.00,1.3394
5727.00,1.3393
5726.00,1.3388
5725.00,1.3375
5724.00,1.3354
5723.00,1.3329
5722.00,1.3302
5721.00,1.3274
5720.00,1.3243
5719.00,1.3208
5718.00,1.3168
5717.00,1.3119
5716.00,1.3062
5715.00,1.3000
5714.00,1.2935
5713.00,1.2870
5712.00,1.2802
5711.00,1.2729
5710.00,1.2653
5709.00,1.2572
5708.00,1.2485
5707.00,1.2392
5706.00,1.2293
5705.00,1.2189
5704.00,1.2083
5703.00,1.1973
5702.00,1.1860
5701.00,1.1744
5700.00,1.1624
5699.00,1.1501
5698.00,1.1373
5697.00,1.1242
5696.00,1.1106
5695.00,1.0967
5694.00,1.0825
5693.00,1.0681
5692.00,1.0534
5691.00,1.0386
5690.00,1.0236
5689.00,1.0086
5688.00,0.9936
5687.00,0.9785
5686.00,0.9635
5685.00,0.9486
5684.00,0.9340
5683.00,0.9194
5682.00,0.9051
5681.00,0.8913
5680.00,0.8780
5679.00,0.8654
5678.00,0.8532
5677.00,0.8416
5676.00,0.8304
5675.00,0.8198
5674.00,0.8098
5673.00,0.8006
5672.00,0.7924
5671.00,0.7850
5670.00,0.7786
5669.00,0.7730
5668.00,0.7684
5667.00,0.7646
5666.00,0.7618
5665.00,0.7600
5664.00,0.7593
5663.00,0.7597
5662.00,0.7611
5661.00,0.7635
5660.00,0.7668
5659.00,0.7710
5658.00,0.7761
5657.00,0.7822
5656.00,0.7890
5655.00,0.7968
5654.00,0.8052
5653.00,0.8143
5652.00,0.8239
5651.00,0.8339
5650.00,0.8446
5649.00,0.8557
5648.00,0.8674
5647.00,0.8795
5646.00,0.8921
5645.00,0.9051
5644.00,0.9183
5643.00,0.9316
5642.00,0.9453
5641.00,0.9592
5640.00,0.9731
5639.00,0.9870
5638.00,1.0009
5637.00,1.0147
5636.00,1.0284
5635.00,1.0420
5634.00,1.0554
5633.00,1.0688
5632.00,1.0822
5631.00,1.0957
5630.00,1.1090
5629.00,1.1223
5628.00,1.1355
5627.00,1.1485
5626.00,1.1611
5625.00,1.1732
5624.00,1.1849
5623.00,1.1962
5622.00,1.2072
5621.00,1.2177
5620.00,1.2277
5619.00,1.2374
5618.00,1.2468
5617.00,1.2559
5616.00,1.2647
5615.00,1.2731
5614.00,1.2812
5613.00,1.2891
5612.00,1.2965
5611.00,1.3034
5610.00,1.3096
5609.00,1.3152
5608.00,1.3202
5607.00,1.3247
5606.00,1.3287
5605.00,1.3325
5604.00,1.3363
5603.00,1.3399
5602.00,1.3431
5601.00,1.3454
5600.00,1.3469
5599.00,1.3477
5598.00,1.3481
5597.00,1.3482
5596.00,1.3480
5595.00,1.3475
5594.00,1.3467
5593.00,1.3456
5592.00,1.3439
5591.00,1.3418
5590.00,1.3393
5589.00,1.3363
5588.00,1.3330
5587.00,1.3290
5586.00,1.3243
5585.00,1.3190
5584.00,1.3132
5583.00,1.3069
5582.00,1.3004
5581.00,1.2935
5580.00,1.2863
5579.00,1.2786
5578.00,1.2706
5577.00,1.2623
5576.00,1.2536
5575.00,1.2443
5574.00,1.2346
5573.00,1.2244
5572.00,1.2136
5571.00,1.2020
5570.00,1.1898
5569.00,1.1771
5568.00,1.1642
5567.00,1.1510
5566.00,1.1376
5565.00,1.1238
5564.00,1.1099
5563.00,1.0957
5562.00,1.0813
5561.00,1.0666
5560.00,1.0516
5559.00,1.0364
5558.00,1.0211
5557.00,1.0057
5556.00,0.9903
5555.00,0.9748
5554.00,0.9594
5553.00,0.9441
5552.00,0.9289
5551.00,0.9140
5550.00,0.8994
5549.00,0.8853
5548.00,0.8717
5547.00,0.8585
5546.00,0.8459
5545.00,0.8338
5544.00,0.8223
5543.00,0.8116
5542.00,0.8017
5541.00,0.7926
5540.00,0.7845
5539.00,0.7772
5538.00,0.7708
5537.00,0.7654
5536.00,0.7609
5535.00,0.7574
5534.00,0.7551
5533.00,0.7539
5532.00,0.7538
5531.00,0.7547
5530.00,0.7567
5529.00,0.7597
5528.00,0.7637
5527.00,0.7686
5526.00,0.7745
5525.00,0.7813
5524.00,0.7889
5523.00,0.7972
5522.00,0.8062
5521.00,0.8159
5520.00,0.8261
5519.00,0.8368
5518.00,0.8480
5517.00,0.8599
5516.00,0.8722
5515.00,0.8849
5514.00,0.8978
5513.00,0.9110
5512.00,0.9242
5511.00,0.9375
5510.00,0.9510
5509.00,0.9648
5508.00,0.9788
5507.00,0.9929
5506.00,1.0070
5505.00,1.0211
5504.00,1.0349
5503.00,1.0485
5502.00,1.0618
5501.00,1.0750
5500.00,1.0881
5499.00,1.1012
5498.00,1.1141
5497.00,1.1267
5496.00,1.1389
5495.00,1.1508
5494.00,1.1625
5493.00,1.1739
5492.00,1.1852
5491.00,1.1964
5490.00,1.2073
5489.00,1.2178
5488.00,1.2278
5487.00,1.2375
5486.00,1.2469
5485.00,1.2562
5484.00,1.2652
5483.00,1.2737
5482.00,1.2815
5481.00,1.2888
5480.00,1.2957
5479.00,1.3022
5478.00,1.3083
5477.00,1.3143
5476.00,1.3201
5475.00,1.3255
5474.00,1.3304
5473.00,1.3348
5472.00,1.3387
5471.00,1.3422
5470.00,1.3451
5469.00,1.3473
5468.00,1.3492
5467.00,1.3507
5466.00,1.3520
5465.00,1.3529
5464.00,1.3534
5463.00,1.3534
5462.00,1.3530
5461.00,1.3521
5460.00,1.3504
5459.00,1.3481
5458.00,1.3452
5457.00,1.3420
5456.00,1.3385
5455.00,1.3348
5454.00,1.3309
5453.00,1.3265
5452.00,1.3215
5451.00,1.3155
5450.00,1.3089
5449.00,1.3019
5448.00,1.2949
5447.00,1.2876
5446.00,1.2800
5445.00,1.2718
5444.00,1.2626
5443.00,1.2525
5442.00,1.2418
5441.00,1.2307
5440.00,1.2194
5439.00,1.2079
5438.00,1.1963
5437.00,1.1843
5436.00,1.1718
5435.00,1.1585
5434.00,1.1446
5433.00,1.1303
5432.00,1.1158
5431.00,1.1009
5430.00,1.0856
5429.00,1.0699
5428.00,1.0539
5427.00,1.0375
5426.00,1.0212
5425.00,1.0050
5424.00,0.9890
5423.00,0.9731
5422.00,0.9573
5421.00,0.9418
5420.00,0.9267
5419.00,0.9117
5418.00,0.8971
5417.00,0.8829
5416.00,0.8692
5415.00,0.8557
5414.00,0.8426
5413.00,0.8298
5412.00,0.8178
5411.00,0.8066
5410.00,0.7962
5409.00,0.7869
5408.00,0.7786
5407.00,0.7714
5406.00,0.7653
5405.00,0.7604
5404.00,0.7565
5403.00,0.7538
5402.00,0.7522
5401.00,0.7519
5400.00,0.7527
5399.00,0.7546
5398.00,0.7575
5397.00,0.7613
5396.00,0.7662
5395.00,0.7719
5394.00,0.7786
5393.00,0.7862
5392.00,0.7947
5391.00,0.8041
5390.00,0.8144
5389.00,0.8254
5388.00,0.8370
5387.00,0.8493
5386.00,0.8621
5385.00,0.8754
5384.00,0.8891
5383.00,0.9031
5382.00,0.9174
5381.00,0.9320
5380.00,0.9467
5379.00,0.9616
5378.00,0.9766
5377.00,0.9917
5376.00,1.0069
5375.00,1.0221
5374.00,1.0374
5373.00,1.0526
5372.00,1.0678
5371.00,1.0829
5370.00,1.0980
5369.00,1.1131
5368.00,1.1279
5367.00,1.1424
5366.00,1.1565
5365.00,1.1702
5364.00,1.1835
5363.00,1.1965
5362.00,1.2091
5361.00,1.2214
5360.00,1.2333
5359.00,1.2449
5358.00,1.2560
5357.00,1.2668
5356.00,1.2771
5355.00,1.2871
5354.00,1.2967
5353.00,1.3058
5352.00,1.3145
5351.00,1.3226
5350.00,1.3303
5349.00,1.3375
5348.00,1.3442
5347.00,1.3505
5346.00,1.3561
5345.00,1.3612
5344.00,1.3658
5343.00,1.3702
5342.00,1.3743
5341.00,1.3781
5340.00,1.3813
5339.00,1.3841
5338.00,1.3863
5337.00,1.3879
5336.00,1.3890
5335.00,1.3896
5334.00,1.3899
5333.00,1.3897
5332.00,1.3888
5331.00,1.3873
5330.00,1.3856
5329.00,1.3835
5328.00,1.3811
5327.00,1.3782
5326.00,1.3750
5325.00,1.3712
5324.00,1.3670
5323.00,1.3623
5322.00,1.3571
5321.00,1.3515
5320.00,1.3453
5319.00,1.3386
5318.00,1.3315
5317.00,1.3241
5316.00,1.3161
5315.00,1.3074
5314.00,1.2981
5313.00,1.2881
5312.00,1.2776
5311.00,1.2668
5310.00,1.2557
5309.00,1.2442
5308.00,1.2324
5307.00,1.2202
5306.00,1.2075
5305.00,1.1943
5304.00,1.1806
5303.00,1.1664
5302.00,1.1516
5301.00,1.1364
5300.00,1.1208
5299.00,1.1050
5298.00,1.0890
5297.00,1.0729
5296.00,1.0567
5295.00,1.0403
5294.00,1.0240
5293.00,1.0076
5292.00,0.9911
5291.00,0.9746
5290.00,0.9579
5289.00,0.9414
5288.00,0.9252
5287.00,0.9093
5286.00,0.8938
5285.00,0.8789
5284.00,0.8644
5283.00,0.8506
5282.00,0.8375
5281.00,0.8252
5280.00,0.8137
5279.00,0.8030
5278.00,0.7931
5277.00,0.7843
5276.00,0.7765
5275.00,0.7698
5274.00,0.7643
5273.00,0.7600
5272.00,0.7569
5271.00,0.7549
5270.00,0.7540
5269.00,0.7542
5268.00,0.7556
5267.00,0.7580
5266.00,0.7616
5265.00,0.7662
5264.00,0.7718
5263.00,0.7784
5262.00,0.7860
5261.00,0.7945
5260.00,0.8039
5259.00,0.8140
5258.00,0.8250
5257.00,0.8366
5256.00,0.8488
5255.00,0.8617
5254.00,0.8751
5253.00,0.8891
5252.00,0.9034
5251.00,0.9180
5250.00,0.9327
5249.00,0.9476
5248.00,0.9626
5247.00,0.9778
5246.00,0.9933
5245.00,1.0090
5244.00,1.0247
5243.00,1.0404
5242.00,1.0561
5241.00,1.0717
5240.00,1.0871
5239.00,1.1024
5238.00,1.1176
5237.00,1.1325
5236.00,1.1472
5235.00,1.1616
5234.00,1.1758
5233.00,1.1895
5232.00,1.2029
5231.00,1.2160
5230.00,1.2288
5229.00,1.2412
5228.00,1.2532
5227.00,1.2650
5226.00,1.2765
5225.00,1.2875
5224.00,1.2979
5223.00,1.3077
5222.00,1.3169
5221.00,1.3257
5220.00,1.3340
5219.00,1.3418
5218.00,1.3494
5217.00,1.3566
5216.00,1.3634
5215.00,1.3696
5214.00,1.3754
5213.00,1.3809
5212.00,1.3860
5211.00,1.3907
5210.00,1.3951
5209.00,1.3989
5208.00,1.4020
5207.00,1.4044
5206.00,1.4061
5205.00,1.4076
5204.00,1.4089
5203.00,1.4099
5202.00,1.4105
5201.00,1.4107
5200.00,1.4104
5199.00,1.4095
5198.00,1.4080
5197.00,1.4060
5196.00,1.4035
5195.00,1.4006
5194.00,1.3972
5193.00,1.3933
5192.00,1.3891
5191.00,1.3843
5190.00,1.3791
5189.00,1.3733
5188.00,1.3667
5187.00,1.3596
5186.00,1.3521
5185.00,1.3441
5184.00,1.3357
5183.00,1.3269
5182.00,1.3177
5181.00,1.3080
5180.00,1.2978
5179.00,1.2871
5178.00,1.2758
5177.00,1.2640
5176.00,1.2517
5175.00,1.2389
5174.00,1.2256
5173.00,1.2119
5172.00,1.1978
5171.00,1.1832
5170.00,1.1681
5169.00,1.1526
5168.00,1.1368
5167.00,1.1206
5166.00,1.1042
5165.00,1.0875
5164.00,1.0705
5163.00,1.0532
5162.00,1.0357
5161.00,1.0180
5160.00,1.0004
5159.00,0.9828
5158.00,0.9654
5157.00,0.9483
5156.00,0.9316
5155.00,0.9152
5154.00,0.8992
5153.00,0.8837
5152.00,0.8687
5151.00,0.8542
5150.00,0.8405
5149.00,0.8276
5148.00,0.8156
5147.00,0.8046
5146.00,0.7947
5145.00,0.7858
5144.00,0.7780
5143.00,0.7714
5142.00,0.7660
5141.00,0.7619
5140.00,0.7591
5139.00,0.7574
5138.00,0.7570
5137.00,0.7577
5136.00,0.7598
5135.00,0.7630
5134.00,0.7675
5133.00,0.7732
5132.00,0.7800
5131.00,0.7878
5130.00,0.7965
5129.00,0.8063
5128.00,0.8170
5127.00,0.8286
5126.00,0.8410
5125.00,0.8541
5124.00,0.8677
5123.00,0.8818
5122.00,0.8963
5121.00,0.9111
5120.00,0.9264
5119.00,0.9420
5118.00,0.9580
5117.00,0.9742
5116.00,0.9906
5115.00,1.0070
5114.00,1.0235
5113.00,1.0400
5112.00,1.0566
5111.00,1.0732
5110.00,1.0898
5109.00,1.1062
5108.00,1.1223
5107.00,1.1382
5106.00,1.1539
5105.00,1.1693
5104.00,1.1846
5103.00,1.1995
5102.00,1.2142
5101.00,1.2283
5100.00,1.2420
5099.00,1.2552
5098.00,1.2680
5097.00,1.2803
5096.00,1.2922
5095.00,1.3038
5094.00,1.3151
5093.00,1.3260
5092.00,1.3363
5091.00,1.3461
5090.00,1.3553
5089.00,1.3638
5088.00,1.3717
5087.00,1.3792
5086.00,1.3864
5085.00,1.3934
5084.00,1.4001
5083.00,1.4065
5082.00,1.4122
5081.00,1.4172
5080.00,1.4214
5079.00,1.4251
5078.00,1.4285
5077.00,1.4315
5076.00,1.4342
5075.00,1.4366
5074.00,1.4384
5073.00,1.4397
5072.00,1.4404
5071.00,1.4406
5070.00,1.4403
5069.00,1.4394
5068.00,1.4381
5067.00,1.4362
5066.00,1.4338
5065.00,1.4310
5064.00,1.4277
5063.00,1.4240
5062.00,1.4199
5061.00,1.4154
5060.00,1.4105
5059.00,1.4050
5058.00,1.3991
5057.00,1.3926
5056.00,1.3856
5055.00,1.3781
5054.00,1.3703
5053.00,1.3620
5052.00,1.3531
5051.00,1.3436
5050.00,1.3337
5049.00,1.3231
5048.00,1.3118
5047.00,1.3001
5046.00,1.2881
5045.00,1.2757
5044.00,1.2628
5043.00,1.2494
5042.00,1.2354
5041.00,1.2209
5040.00,1.2058
5039.00,1.1901
5038.00,1.1741
5037.00,1.1576
5036.00,1.1406
5035.00,1.1232
5034.00,1.1055
5033.00,1.0877
5032.00,1.0696
5031.00,1.0514
5030.00,1.0330
5029.00,1.0146
5028.00,0.9962
5027.00,0.9780
5026.00,0.9600
5025.00,0.9421
5024.00,0.9244
5023.00,0.9070
5022.00,0.8901
5021.00,0.8737
5020.00,0.8580
5019.00,0.8431
5018.00,0.8290
5017.00,0.8158
5016.00,0.8036
5015.00,0.7924
5014.00,0.7822
5013.00,0.7733
5012.00,0.7655
5011.00,0.7589
5010.00,0.7537
5009.00,0.7499
5008.00,0.7475
5007.00,0.7465
5006.00,0.7468
5005.00,0.7484
5004.00,0.7514
5003.00,0.7557
5002.00,0.7612
5001.00,0.7681
5000.00,0.7761
4999.00,0.7852
4998.00,0.7953
4997.00,0.8064
4996.00,0.8182
4995.00,0.8308
4994.00,0.8442
4993.00,0.8582
4992.00,0.8730
4991.00,0.8883
4990.00,0.9041
4989.00,0.9203
4988.00,0.9368
4987.00,0.9535
4986.00,0.9705
4985.00,0.9878
4984.00,1.0051
4983.00,1.0225
4982.00,1.0399
4981.00,1.0572
4980.00,1.0744
4979.00,1.0916
4978.00,1.1088
4977.00,1.1259
4976.00,1.1428
4975.00,1.1594
4974.00,1.1758
4973.00,1.1919
4972.00,1.2076
4971.00,1.2229
4970.00,1.2379
4969.00,1.2524
4968.00,1.2664
4967.00,1.2799
4966.00,1.2930
4965.00,1.3059
4964.00,1.3185
4963.00,1.3306
4962.00,1.3421
4961.00,1.3527
4960.00,1.3626
4959.00,1.3720
4958.00,1.3811
4957.00,1.3899
4956.00,1.3982
4955.00,1.4059
4954.00,1.4131
4953.00,1.4198
4952.00,1.4262
4951.00,1.4321
4950.00,1.4376
4949.00,1.4425
4948.00,1.4467
4947.00,1.4505
4946.00,1.4538
4945.00,1.4566
4944.00,1.4590
4943.00,1.4609
4942.00,1.4624
4941.00,1.4636
4940.00,1.4645
4939.00,1.4650
4938.00,1.4648
4937.00,1.4639
4936.00,1.4623
4935.00,1.4603
4934.00,1.4578
4933.00,1.4550
4932.00,1.4517
4931.00,1.4479
4930.00,1.4436
4929.00,1.4388
4928.00,1.4335
4927.00,1.4278
4926.00,1.4218
4925.00,1.4153
4924.00,1.4083
4923.00,1.4006
4922.00,1.3923
4921.00,1.3835
4920.00,1.3740
4919.00,1.3640
4918.00,1.3535
4917.00,1.3423
4916.00,1.3306
4915.00,1.3183
4914.00,1.3056
4913.00,1.2925
4912.00,1.2789
4911.00,1.2648
4910.00,1.2501
4909.00,1.2348
4908.00,1.2189
4907.00,1.2024
4906.00,1.1853
4905.00,1.1680
4904.00,1.1502
4903.00,1.1321
4902.00,1.1136
4901.00,1.0948
4900.00,1.0756
4899.00,1.0562
4898.00,1.0368
4897.00,1.0174
4896.00,0.9982
4895.00,0.9790
4894.00,0.9601
4893.00,0.9414
4892.00,0.9232
4891.00,0.9054
4890.00,0.8880
4889.00,0.8713
4888.00,0.8554
4887.00,0.8404
4886.00,0.8263
4885.00,0.8133
4884.00,0.8014
4883.00,0.7906
4882.00,0.7810
4881.00,0.7726
4880.00,0.7656
4879.00,0.7601
4878.00,0.7560
4877.00,0.7535
4876.00,0.7524
4875.00,0.7527
4874.00,0.7545
4873.00,0.7577
4872.00,0.7623
4871.00,0.7683
4870.00,0.7756
4869.00,0.7842
4868.00,0.7940
4867.00,0.8048
4866.00,0.8166
4865.00,0.8293
4864.00,0.8429
4863.00,0.8572
4862.00,0.8724
4861.00,0.8881
4860.00,0.9044
4859.00,0.9211
4858.00,0.9382
4857.00,0.9556
4856.00,0.9732
4855.00,0.9911
4854.00,1.0092
4853.00,1.0274
4852.00,1.0458
4851.00,1.0641
4850.00,1.0824
4849.00,1.1006
4848.00,1.1187
4847.00,1.1367
4846.00,1.1545
4845.00,1.1720
4844.00,1.1892
4843.00,1.2060
4842.00,1.2225
4841.00,1.2386
4840.00,1.2541
4839.00,1.2692
4838.00,1.2838
4837.00,1.2979
4836.00,1.3116
4835.00,1.3249
4834.00,1.3381
4833.00,1.3509
4832.00,1.3632
4831.00,1.3748
4830.00,1.3858
4829.00,1.3962
4828.00,1.4060
4827.00,1.4152
4826.00,1.4239
4825.00,1.4322
4824.00,1.4401
4823.00,1.4474
4822.00,1.4541
4821.00,1.4602
4820.00,1.4657
4819.00,1.4707
4818.00,1.4752
4817.00,1.4793
4816.00,1.4829
4815.00,1.4861
4814.00,1.4889
4813.00,1.4914
4812.00,1.4933
4811.00,1.4947
4810.00,1.4953
4809.00,1.4955
4808.00,1.4954
4807.00,1.4950
4806.00,1.4940
4805.00,1.4926
4804.00,1.4906
4803.00,1.4880
4802.00,1.4849
4801.00,1.4812
4800.00,1.4770
4799.00,1.4723
4798.00,1.4672
4797.00,1.4620
4796.00,1.4563
4795.00,1.4502
4794.00,1.4433
4793.00,1.4359
4792.00,1.4280
4791.00,1.4195
4790.00,1.4104
4789.00,1.4005
4788.00,1.3901
4787.00,1.3792
4786.00,1.3679
4785.00,1.3561
4784.00,1.3437
4783.00,1.3307
4782.00,1.3171
4781.00,1.3030
4780.00,1.2883
4779.00,1.2730
4778.00,1.2571
4777.00,1.2406
4776.00,1.2235
4775.00,1.2060
4774.00,1.1879
4773.00,1.1694
4772.00,1.1505
4771.00,1.1312
4770.00,1.1115
4769.00,1.0916
4768.00,1.0715
4767.00,1.0513
4766.00,1.0310
4765.00,1.0106
4764.00,0.9903
4763.00,0.9700
4762.00,0.9501
4761.00,0.9307
4760.00,0.9120
4759.00,0.8939
4758.00,0.8764
4757.00,0.8596
4756.00,0.8435
4755.00,0.8283
4754.00,0.8143
4753.00,0.8015
4752.00,0.7900
4751.00,0.7800
4750.00,0.7713
4749.00,0.7641
4748.00,0.7584
4747.00,0.7542
4746.00,0.7516
4745.00,0.7506
4744.00,0.7512
4743.00,0.7534
4742.00,0.7572
4741.00,0.7625
4740.00,0.7692
4739.00,0.7773
4738.00,0.7866
4737.00,0.7972
4736.00,0.8090
4735.00,0.8218
4734.00,0.8356
4733.00,0.8503
4732.00,0.8657
4731.00,0.8819
4730.00,0.8986
4729.00,0.9159
4728.00,0.9337
4727.00,0.9520
4726.00,0.9705
4725.00,0.9893
4724.00,1.0082
4723.00,1.0272
4722.00,1.0463
4721.00,1.0655
4720.00,1.0848
4719.00,1.1041
4718.00,1.1233
4717.00,1.1422
4716.00,1.1608
4715.00,1.1792
4714.00,1.1974
4713.00,1.2154
4712.00,1.2330
4711.00,1.2502
4710.00,1.2670
4709.00,1.2833
4708.00,1.2992
4707.00,1.3145
4706.00,1.3294
4705.00,1.3437
4704.00,1.3574
4703.00,1.3706
4702.00,1.3834
4701.00,1.3956
4700.00,1.4073
4699.00,1.4185
4698.00,1.4291
4697.00,1.4392
4696.00,1.4488
4695.00,1.4579
4694.00,1.4664
4693.00,1.4743
4692.00,1.4815
4691.00,1.4881
4690.00,1.4943
4689.00,1.5002
4688.00,1.5058
4687.00,1.5112
4686.00,1.5160
4685.00,1.5201
4684.00,1.5234
4683.00,1.5262
4682.00,1.5286
4681.00,1.5306
4680.00,1.5322
4679.00,1.5332
4678.00,1.5336
4677.00,1.5335
4676.00,1.5329
4675.00,1.5321
4674.00,1.5309
4673.00,1.5293
4672.00,1.5270
4671.00,1.5241
4670.00,1.5206
4669.00,1.5168
4668.00,1.5128
4667.00,1.5085
4666.00,1.5038
4665.00,1.4982
4664.00,1.4917
4663.00,1.4845
4662.00,1.4769
4661.00,1.4690
4660.00,1.4607
4659.00,1.4519
4658.00,1.4424
4657.00,1.4323
4656.00,1.4217
4655.00,1.4104
4654.00,1.3986
4653.00,1.3861
4652.00,1.3730
4651.00,1.3593
4650.00,1.3451
4649.00,1.3303
4648.00,1.3150
4647.00,1.2991
4646.00,1.2826
4645.00,1.2654
4644.00,1.2477
4643.00,1.2294
4642.00,1.2105
4641.00,1.1911
4640.00,1.1713
4639.00,1.1510
4638.00,1.1304
4637.00,1.1096
4636.00,1.0886
4635.00,1.0676
4634.00,1.0464
4633.00,1.0252
4632.00,1.0041
4631.00,0.9832
4630.00,0.9626
4629.00,0.9425
4628.00,0.9229
4627.00,0.9042
4626.00,0.8863
4625.00,0.8693
4624.00,0.8532
4623.00,0.8382
4622.00,0.8244
4621.00,0.8118
4620.00,0.8007
4619.00,0.7910
4618.00,0.7828
4617.00,0.7764
4616.00,0.7715
4615.00,0.7683
4614.00,0.7668
4613.00,0.7670
4612.00,0.7688
4611.00,0.7723
4610.00,0.7774
4609.00,0.7841
4608.00,0.7922
4607.00,0.8017
4606.00,0.8124
4605.00,0.8244
4604.00,0.8374
4603.00,0.8515
4602.00,0.8665
4601.00,0.8824
4600.00,0.8990
4599.00,0.9164
4598.00,0.9344
4597.00,0.9527
4596.00,0.9714
4595.00,0.9904
4594.00,1.0097
4593.00,1.0292
4592.00,1.0489
4591.00,1.0688
4590.00,1.0887
4589.00,1.1086
4588.00,1.1285
4587.00,1.1482
4586.00,1.1677
4585.00,1.1870
4584.00,1.2061
4583.00,1.2249
4582.00,1.2434
4581.00,1.2617
4580.00,1.2794
4579.00,1.2966
4578.00,1.3132
4577.00,1.3292
4576.00,1.3448
4575.00,1.3599
4574.00,1.3747
4573.00,1.3891
4572.00,1.4030
4571.00,1.4162
4570.00,1.4287
4569.00,1.4406
4568.00,1.4517
4567.00,1.4623
4566.00,1.4723
4565.00,1.4816
4564.00,1.4904
4563.00,1.4986
4562.00,1.5065
4561.00,1.5139
4560.00,1.5210
4559.00,1.5276
4558.00,1.5336
4557.00,1.5390
4556.00,1.5439
4555.00,1.5481
4554.00,1.5519
4553.00,1.5552
4552.00,1.5579
4551.00,1.5601
4550.00,1.5618
4549.00,1.5633
4548.00,1.5644
4547.00,1.5652
4546.00,1.5654
4545.00,1.5650
4544.00,1.5639
4543.00,1.5621
4542.00,1.5596
4541.00,1.5568
4540.00,1.5536
4539.00,1.5501
4538.00,1.5462
4537.00,1.5418
4536.00,1.5368
4535.00,1.5311
4534.00,1.5248
4533.00,1.5180
4532.00,1.5107
4531.00,1.5030
4530.00,1.4949
4529.00,1.4862
4528.00,1.4769
4527.00,1.4673
4526.00,1.4570
4525.00,1.4461
4524.00,1.4343
4523.00,1.4218
4522.00,1.4087
4521.00,1.3949
4520.00,1.3807
4519.00,1.3659
4518.00,1.3504
4517.00,1.3343
4516.00,1.3174
4515.00,1.3000
4514.00,1.2820
4513.00,1.2635
4512.00,1.2444
4511.00,1.2248
4510.00,1.2046
4509.00,1.1839
4508.00,1.1625
4507.00,1.1407
4506.00,1.1187
4505.00,1.0965
4504.00,1.0742
4503.00,1.0519
4502.00,1.0296
4501.00,1.0074
4500.00,0.9854
4499.00,0.9638
4498.00,0.9426
4497.00,0.9220
4496.00,0.9020
4495.00,0.8830
4494.00,0.8649
4493.00,0.8479
4492.00,0.8323
4491.00,0.8180
4490.00,0.8052
4489.00,0.7940
4488.00,0.7843
4487.00,0.7764
4486.00,0.7701
4485.00,0.7657
4484.00,0.7631
4483.00,0.7624
4482.00,0.7635
4481.00,0.7664
4480.00,0.7711
4479.00,0.7776
4478.00,0.7858
4477.00,0.7956
4476.00,0.8069
4475.00,0.8195
4474.00,0.8334
4473.00,0.8484
4472.00,0.8644
4471.00,0.8814
4470.00,0.8991
4469.00,0.9177
4468.00,0.9368
4467.00,0.9566
4466.00,0.9768
4465.00,0.9974
4464.00,1.0182
4463.00,1.0392
4462.00,1.0603
4461.00,1.0815
4460.00,1.1027
4459.00,1.1239
4458.00,1.1452
4457.00,1.1662
4456.00,1.1871
4455.00,1.2077
4454.00,1.2280
4453.00,1.2480
4452.00,1.2675
4451.00,1.2865
4450.00,1.3051
4449.00,1.3231
4448.00,1.3409
4447.00,1.3582
4446.00,1.3750
4445.00,1.3913
4444.00,1.4067
4443.00,1.4214
4442.00,1.4355
4441.00,1.4491
4440.00,1.4622
4439.00,1.4748
4438.00,1.4869
4437.00,1.4983
4436.00,1.5091
4435.00,1.5192
4434.00,1.5285
4433.00,1.5371
4432.00,1.5451
4431.00,1.5526
4430.00,1.5597
4429.00,1.5664
4428.00,1.5727
4427.00,1.5787
4426.00,1.5843
4425.00,1.5891
4424.00,1.5933
4423.00,1.5968
4422.00,1.5999
4421.00,1.6025
4420.00,1.6046
4419.00,1.6061
4418.00,1.6072
4417.00,1.6079
4416.00,1.6082
4415.00,1.6080
4414.00,1.6074
4413.00,1.6062
4412.00,1.6046
4411.00,1.6025
4410.00,1.5997
4409.00,1.5963
4408.00,1.5925
4407.00,1.5883
4406.00,1.5838
4405.00,1.5786
4404.00,1.5727
4403.00,1.5662
4402.00,1.5594
4401.00,1.5524
4400.00,1.5449
4399.00,1.5368
4398.00,1.5279
4397.00,1.5183
4396.00,1.5084
4395.00,1.4980
4394.00,1.4873
4393.00,1.4761
4392.00,1.4642
4391.00,1.4517
4390.00,1.4387
4389.00,1.4252
4388.00,1.4111
4387.00,1.3965
4386.00,1.3814
4385.00,1.3657
4384.00,1.3493
4383.00,1.3324
4382.00,1.3150
4381.00,1.2973
4380.00,1.2792
4379.00,1.2609
4378.00,1.2423
4377.00,1.2235
4376.00,1.2045
4375.00,1.1854
4374.00,1.1661
4373.00,1.1468
4372.00,1.1274
4371.00,1.1080
4370.00,1.0888
4369.00,1.0696
4368.00,1.0507
4367.00,1.0321
4366.00,1.0139
4365.00,0.9961
4364.00,0.9790
4363.00,0.9625
4362.00,0.9469
4361.00,0.9321
4360.00,0.9183
4359.00,0.9055
4358.00,0.8939
4357.00,0.8837
4356.00,0.8749
4355.00,0.8676
4354.00,0.8619
4353.00,0.8579
4352.00,0.8555
4351.00,0.8548
4350.00,0.8557
4349.00,0.8583
4348.00,0.8626
4347.00,0.8684
4346.00,0.8757
4345.00,0.8844
4344.00,0.8944
4343.00,0.9055
4342.00,0.9179
4341.00,0.9313
4340.00,0.9457
4339.00,0.9610
4338.00,0.9773
4337.00,0.9943
4336.00,1.0120
4335.00,1.0303
4334.00,1.0491
4333.00,1.0685
4332.00,1.0884
4331.00,1.1086
4330.00,1.1290
4329.00,1.1498
4328.00,1.1706
4327.00,1.1916
4326.00,1.2125
4325.00,1.2331
4324.00,1.2535
4323.00,1.2737
4322.00,1.2935
4321.00,1.3131
4320.00,1.3323
4319.00,1.3510
4318.00,1.3693
4317.00,1.3871
4316.00,1.4046
4315.00,1.4215
4314.00,1.4376
4313.00,1.4528
4312.00,1.4671
4311.00,1.4809
4310.00,1.4943
4309.00,1.5073
4308.00,1.5199
4307.00,1.5318
4306.00,1.5430
4305.00,1.5534
4304.00,1.5633
4303.00,1.5729
4302.00,1.5821
4301.00,1.5908
4300.00,1.5990
4299.00,1.6065
4298.00,1.6133
4297.00,1.6193
4296.00,1.6248
4295.00,1.6298
4294.00,1.6346
4293.00,1.6392
4292.00,1.6435
4291.00,1.6471
4290.00,1.6499
4289.00,1.6519
4288.00,1.6535
4287.00,1.6548
4286.00,1.6557
4285.00,1.6560
4284.00,1.6558
4283.00,1.6551
4282.00,1.6542
4281.00,1.6532
4280.00,1.6518
4279.00,1.6499
4278.00,1.6473
4277.00,1.6439
4276.00,1.6397
4275.00,1.6349
4274.00,1.6297
4273.00,1.6244
4272.00,1.6187
4271.00,1.6127
4270.00,1.6061
4269.00,1.5988
4268.00,1.5908
4267.00,1.5821
4266.00,1.5726
4265.00,1.5626
4264.00,1.5521
4263.00,1.5413
4262.00,1.5302
4261.00,1.5186
4260.00,1.5061
4259.00,1.4927
4258.00,1.4786
4257.00,1.4640
4256.00,1.4487
4255.00,1.4328
4254.00,1.4161
4253.00,1.3987
4252.00,1.3806
4251.00,1.3619
4250.00,1.3425
4249.00,1.3223
4248.00,1.3015
4247.00,1.2801
4246.00,1.2582
4245.00,1.2360
4244.00,1.2135
4243.00,1.1906
4242.00,1.1673
4241.00,1.1439
4240.00,1.1204
4239.00,1.0970
4238.00,1.0739
4237.00,1.0511
4236.00,1.0287
4235.00,1.0069
4234.00,0.9858
4233.00,0.9657
4232.00,0.9467
4231.00,0.9288
4230.00,0.9122
4229.00,0.8970
4228.00,0.8834
4227.00,0.8714
4226.00,0.8610
4225.00,0.8524
4224.00,0.8457
4223.00,0.8408
4222.00,0.8378
4221.00,0.8368
4220.00,0.8377
4219.00,0.8404
4218.00,0.8450
4217.00,0.8512
4216.00,0.8591
4215.00,0.8685
4214.00,0.8794
4213.00,0.8917
4212.00,0.9053
4211.00,0.9202
4210.00,0.9363
4209.00,0.9534
4208.00,0.9713
4207.00,0.9901
4206.00,1.0095
4205.00,1.0295
4204.00,1.0500
4203.00,1.0711
4202.00,1.0925
4201.00,1.1141
4200.00,1.1360
4199.00,1.1581
4198.00,1.1802
4197.00,1.2023
4196.00,1.2243
4195.00,1.2461
4194.00,1.2676
4193.00,1.2888
4192.00,1.3097
4191.00,1.3303
4190.00,1.3505
4189.00,1.3704
4188.00,1.3897
4187.00,1.4086
4186.00,1.4270
4185.00,1.4448
4184.00,1.4620
4183.00,1.4783
4182.00,1.4938
4181.00,1.5086
4180.00,1.5229
4179.00,1.5367
4178.00,1.5501
4177.00,1.5629
4176.00,1.5750
4175.00,1.5862
4174.00,1.5968
4173.00,1.6068
4172.00,1.6166
4171.00,1.6261
4170.00,1.6350
4169.00,1.6431
4168.00,1.6503
4167.00,1.6567
4166.00,1.6628
4165.00,1.6687
4164.00,1.6743
4163.00,1.6795
4162.00,1.6841
4161.00,1.6883
4160.00,1.6920
4159.00,1.6952
4158.00,1.6978
4157.00,1.6999
4156.00,1.7013
4155.00,1.7023
4154.00,1.7027
4153.00,1.7024
4152.00,1.7017
4151.00,1.7007
4150.00,1.6995
4149.00,1.6978
4148.00,1.6954
4147.00,1.6924
4146.00,1.6888
4145.00,1.6847
4144.00,1.6802
4143.00,1.6755
4142.00,1.6704
4141.00,1.6650
4140.00,1.6591
4139.00,1.6524
4138.00,1.6449
4137.00,1.6366
4136.00,1.6277
4135.00,1.6184
4134.00,1.6088
4133.00,1.5988
4132.00,1.5883
4131.00,1.5769
4130.00,1.5646
4129.00,1.5514
4128.00,1.5376
4127.00,1.5233
4126.00,1.5086
4125.00,1.4933
4124.00,1.4774
4123.00,1.4607
4122.00,1.4431
4121.00,1.4249
4120.00,1.4061
4119.00,1.3865
4118.00,1.3662
4117.00,1.3451
4116.00,1.3233
4115.00,1.3008
4114.00,1.2778
4113.00,1.2542
4112.00,1.2303
4111.00,1.2060
4110.00,1.1816
4109.00,1.1570
4108.00,1.1323
4107.00,1.1076
4106.00,1.0832
4105.00,1.0592
4104.00,1.0356
4103.00,1.0127
4102.00,0.9907
4101.00,0.9695
4100.00,0.9496
4099.00,0.9309
4098.00,0.9137
4097.00,0.8980
4096.00,0.8840
4095.00,0.8719
4094.00,0.8617
4093.00,0.8537
4092.00,0.8478
4091.00,0.8442
4090.00,0.8427
4089.00,0.8435
4088.00,0.8463
4087.00,0.8513
4086.00,0.8582
4085.00,0.8671
4084.00,0.8779
4083.00,0.8903
4082.00,0.9043
4081.00,0.9197
4080.00,0.9363
4079.00,0.9541
4078.00,0.9729
4077.00,0.9926
4076.00,1.0130
4075.00,1.0342
4074.00,1.0561
4073.00,1.0784
4072.00,1.1012
4071.00,1.1243
4070.00,1.1477
4069.00,1.1712
4068.00,1.1947
4067.00,1.2182
4066.00,1.2415
4065.00,1.2647
4064.00,1.2877
4063.00,1.3104
4062.00,1.3327
4061.00,1.3547
4060.00,1.3764
4059.00,1.3977
4058.00,1.4184
4057.00,1.4384
4056.00,1.4579
4055.00,1.4768
4054.00,1.4951
4053.00,1.5127
4052.00,1.5296
4051.00,1.5457
4050.00,1.5611
4049.00,1.5756
4048.00,1.5894
4047.00,1.6024
4046.00,1.6148
4045.00,1.6268
4044.00,1.6381
4043.00,1.6487
4042.00,1.6586
4041.00,1.6679
4040.00,1.6768
4039.00,1.6854
4038.00,1.6936
4037.00,1.7011
4036.00,1.7076
4035.00,1.7133
4034.00,1.7183
4033.00,1.7229
4032.00,1.7274
4031.00,1.7317
4030.00,1.7356
4029.00,1.7389
4028.00,1.7414
4027.00,1.7433
4026.00,1.7449
4025.00,1.7464
4024.00,1.7475
4023.00,1.7478
4022.00,1.7471
4021.00,1.7455
4020.00,1.7436
4019.00,1.7416
4018.00,1.7395
4017.00,1.7369
4016.00,1.7336
4015.00,1.7296
4014.00,1.7248
4013.00,1.7197
4012.00,1.7142
4011.00,1.7084
4010.00,1.7022
4009.00,1.6956
4008.00,1.6882
4007.00,1.6801
4006.00,1.6712
4005.00,1.6614
4004.00,1.6509
4003.00,1.6399
4002.00,1.6282
4001.00,1.6161
4000.00,1.6033
3999.00,1.5900
3998.00,1.5761
3997.00,1.5616
3996.00,1.5464
3995.00,1.5304
3994.00,1.5137
3993.00,1.4961
3992.00,1.4776
3991.00,1.4586
3990.00,1.4392
3989.00,1.4193
3988.00,1.3989
3987.00,1.3778
3986.00,1.3559
3985.00,1.3332
3984.00,1.3099
3983.00,1.2861
3982.00,1.2619
3981.00,1.2372
3980.00,1.2121
3979.00,1.1867
3978.00,1.1611
3977.00,1.1355
3976.00,1.1101
3975.00,1.0849
3974.00,1.0603
3973.00,1.0363
3972.00,1.0131
3971.00,0.9909
3970.00,0.9699
3969.00,0.9502
3968.00,0.9320
3967.00,0.9156
3966.00,0.9011
3965.00,0.8886
3964.00,0.8783
3963.00,0.8702
3962.00,0.8644
3961.00,0.8611
3960.00,0.8601
3959.00,0.8615
3958.00,0.8651
3957.00,0.8709
3956.00,0.8788
3955.00,0.8887
3954.00,0.9002
3953.00,0.9134
3952.00,0.9281
3951.00,0.9441
3950.00,0.9614
3949.00,0.9800
3948.00,0.9996
3947.00,1.0201
3946.00,1.0411
3945.00,1.0625
3944.00,1.0845
3943.00,1.1074
3942.00,1.1311
3941.00,1.1553
3940.00,1.1796
3939.00,1.2037
3938.00,1.2277
3937.00,1.2516
3936.00,1.2751
3935.00,1.2981
3934.00,1.3209
3933.00,1.3437
3932.00,1.3668
3931.00,1.3899
3930.00,1.4126
3929.00,1.4347
3928.00,1.4559
3927.00,1.4761
3926.00,1.4955
3925.00,1.5146
3924.00,1.5332
3923.00,1.5511
3922.00,1.5680
3921.00,1.5840
3920.00,1.5993
3919.00,1.6141
3918.00,1.6285
3917.00,1.6428
3916.00,1.6568
3915.00,1.6703
3914.00,1.6832
3913.00,1.6953
3912.00,1.7065
3911.00,1.7165
3910.00,1.7253
3909.00,1.7328
3908.00,1.7395
3907.00,1.7453
3906.00,1.7505
3905.00,1.7554
3904.00,1.7605
3903.00,1.7658
3902.00,1.7710
3901.00,1.7757
3900.00,1.7800
3899.00,1.7843
3898.00,1.7884
3897.00,1.7919
3896.00,1.7945
3895.00,1.7961
3894.00,1.7969
3893.00,1.7969
3892.00,1.7963
3891.00,1.7952
3890.00,1.7935
3889.00,1.7912
3888.00,1.7881
3887.00,1.7848
3886.00,1.7816
3885.00,1.7784
3884.00,1.7745
3883.00,1.7694
3882.00,1.7634
3881.00,1.7574
3880.00,1.7518
3879.00,1.7461
3878.00,1.7395
3877.00,1.7315
3876.00,1.7219
3875.00,1.7114
3874.00,1.7005
3873.00,1.6893
3872.00,1.6773
3871.00,1.6646
3870.00,1.6513
3869.00,1.6377
3868.00,1.6236
3867.00,1.6088
3866.00,1.5933
3865.00,1.5774
3864.00,1.5609
3863.00,1.5434
3862.00,1.5249
3861.00,1.5050
3860.00,1.4837
3859.00,1.4610
3858.00,1.4377
3857.00,1.4143
3856.00,1.3905
3855.00,1.3656
3854.00,1.3386
3853.00,1.3093
3852.00,1.2790
3851.00,1.2496
3850.00,1.2216
3849.00,1.1946
3848.00,1.1680
3847.00,1.1412
3846.00,1.1139
3845.00,1.0856
3844.00,1.0568
3843.00,1.0281
3842.00,1.0003
3841.00,0.9738
3840.00,0.9488
3839.00,0.9254
3838.00,0.9036
3837.00,0.8836
3836.00,0.8662
3835.00,0.8520
3834.00,0.8412
3833.00,0.8336
3832.00,0.8293
3831.00,0.8281
3830.00,0.8295
3829.00,0.8331
3828.00,0.8390
3827.00,0.8473
3826.00,0.8579
3825.00,0.8705
3824.00,0.8844
3823.00,0.9000
3822.00,0.9186
3821.00,0.9411
3820.00,0.9658
3819.00,0.9902
3818.00,1.0136
3817.00,1.0381
3816.00,1.0662
3815.00,1.0972
3814.00,1.1283
3813.00,1.1573
3812.00,1.1842
3811.00,1.2099
3810.00,1.2350
3809.00,1.2596
3808.00,1.2847
3807.00,1.3114
3806.00,1.3393
3805.00,1.3666
3804.00,1.3913
3803.00,1.4143
3802.00,1.4381
3801.00,1.4641
3800.00,1.4906
3799.00,1.5155
3798.00,1.5381
3797.00,1.5594
3796.00,1.5804
3795.00,1.6008
3794.00,1.6201
3793.00,1.6381
3792.00,1.6550
3791.00,1.6710
3790.00,1.6862
3789.00,1.7006
3788.00,1.7141
3787.00,1.7267
3786.00,1.7384
3785.00,1.7494
3784.00,1.7598
3783.00,1.7694
3782.00,1.7780
3781.00,1.7862
3780.00,1.7946
3779.00,1.8033
3778.00,1.8117
3777.00,1.8187
3776.00,1.8239
3775.00,1.8282
3774.00,1.8322
3773.00,1.8358
3772.00,1.8384
3771.00,1.8404
3770.00,1.8421
3769.00,1.8437
3768.00,1.8450
3767.00,1.8454
3766.00,1.8453
3765.00,1.8448
3764.00,1.8442
3763.00,1.8432
3762.00,1.8416
3761.00,1.8394
3760.00,1.8366
3759.00,1.8330
3758.00,1.8284
3757.00,1.8229
3756.00,1.8165
3755.00,1.8092
3754.00,1.8015
3753.00,1.7934
3752.00,1.7852
3751.00,1.7765
3750.00,1.7675
3749.00,1.7587
3748.00,1.7504
3747.00,1.7423
3746.00,1.7339
3745.00,1.7254
3744.00,1.7167
3743.00,1.7075
3742.00,1.6976
3741.00,1.6869
3740.00,1.6756
3739.00,1.6634
3738.00,1.6494
3737.00,1.6332
3736.00,1.6148
3735.00,1.5949
3734.00,1.5740
3733.00,1.5518
3732.00,1.5284
3731.00,1.5037
3730.00,1.4780
3729.00,1.4508
3728.00,1.4218
3727.00,1.3913
3726.00,1.3595
3725.00,1.3267
3724.00,1.2932
3723.00,1.2594
3722.00,1.2256
3721.00,1.1924
3720.00,1.1601
3719.00,1.1288
3718.00,1.0986
3717.00,1.0699
3716.00,1.0433
3715.00,1.0188
3714.00,0.9961
3713.00,0.9744
3712.00,0.9534
3711.00,0.9336
3710.00,0.9160
3709.00,0.9011
3708.00,0.8892
3707.00,0.8800
3706.00,0.8735
3705.00,0.8701
3704.00,0.8703
3703.00,0.8746
3702.00,0.8830
3701.00,0.8955
3700.00,0.9114
3699.00,0.9300
3698.00,0.9509
3697.00,0.9743
3696.00,0.9999
3695.00,1.0268
3694.00,1.0544
3693.00,1.0824
3692.00,1.1112
3691.00,1.1412
3690.00,1.1730
3689.00,1.2074
3688.00,1.2441
3687.00,1.2811
3686.00,1.3163
3685.00,1.3485
3684.00,1.3784
3683.00,1.4067
3682.00,1.4335
3681.00,1.4590
3680.00,1.4836
3679.00,1.5072
3678.00,1.5296
3677.00,1.5515
3676.00,1.5747
3675.00,1.6002
3674.00,1.6259
3673.00,1.6494
3672.00,1.6703
3671.00,1.6903
3670.00,1.7111
3669.00,1.7325
3668.00,1.7529
3667.00,1.7715
3666.00,1.7881
3665.00,1.8033
3664.00,1.8174
3663.00,1.8304
3662.00,1.8425
3661.00,1.8539
3660.00,1.8647
3659.00,1.8747
3658.00,1.8836
3657.00,1.8919
3656.00,1.9000
3655.00,1.9076
3654.00,1.9140
3653.00,1.9190
3652.00,1.9231
3651.00,1.9271
3650.00,1.9317
3649.00,1.9370
3648.00,1.9429
3647.00,1.9494
3646.00,1.9559
3645.00,1.9617
3644.00,1.9667
3643.00,1.9710
3642.00,1.9747
3641.00,1.9776
3640.00,1.9798
3639.00,1.9810
3638.00,1.9814
3637.00,1.9811
3636.00,1.9798
3635.00,1.9774
3634.00,1.9743
3633.00,1.9707
3632.00,1.9666
3631.00,1.9618
3630.00,1.9567
3629.00,1.9517
3628.00,1.9466
3627.00,1.9408
3626.00,1.9340
3625.00,1.9265
3624.00,1.9187
3623.00,1.9109
3622.00,1.9030
3621.00,1.8950
3620.00,1.8867
3619.00,1.8782
3618.00,1.8696
3617.00,1.8613
3616.00,1.8535
3615.00,1.8459
3614.00,1.8383
3613.00,1.8308
3612.00,1.8233
3611.00,1.8155
3610.00,1.8071
3609.00,1.7978
3608.00,1.7876
3607.00,1.7765
3606.00,1.7647
3605.00,1.7521
3604.00,1.7387
3603.00,1.7249
3602.00,1.7108
3601.00,1.6965
3600.00,1.6821
3599.00,1.6679
3598.00,1.6539
3597.00,1.6403
3596.00,1.6269
3595.00,1.6137
3594.00,1.6007
3593.00,1.5880
3592.00,1.5757
3591.00,1.5636
3590.00,1.5518
3589.00,1.5402
3588.00,1.5292
3587.00,1.5191
3586.00,1.5099
3585.00,1.5016
3584.00,1.4942
3583.00,1.4875
3582.00,1.4814
3581.00,1.4761
3580.00,1.4715
3579.00,1.4678
3578.00,1.4651
3577.00,1.4634
3576.00,1.4628
3575.00,1.4631
3574.00,1.4641
3573.00,1.4660
3572.00,1.4687
3571.00,1.4724
3570.00,1.4771
3569.00,1.4830
3568.00,1.4905
3567.00,1.4996
3566.00,1.5101
3565.00,1.5213
3564.00,1.5329
3563.00,1.5451
3562.00,1.5580
3561.00,1.5715
3560.00,1.5855
3559.00,1.5998
3558.00,1.6143
3557.00,1.6291
3556.00,1.6443
3555.00,1.6595
3554.00,1.6748
3553.00,1.6900
3552.00,1.7054
3551.00,1.7208
3550.00,1.7361
3549.00,1.7510
3548.00,1.7656
3547.00,1.7803
3546.00,1.7952
3545.00,1.8103
3544.00,1.8252
3543.00,1.8397
3542.00,1.8536
3541.00,1.8671
3540.00,1.8801
3539.00,1.8928
3538.00,1.9052
3537.00,1.9175
3536.00,1.9296
3535.00,1.9414
3534.00,1.9524
3533.00,1.9628
3532.00,1.9726
3531.00,1.9821
3530.00,1.9913
3529.00,2.0005
3528.00,2.0096
3527.00,2.0184
3526.00,2.0268
3525.00,2.0350
3524.00,2.0429
3523.00,2.0503
3522.00,2.0571
3521.00,2.0631
3520.00,2.0686
3519.00,2.0740
3518.00,2.0794
3517.00,2.0847
3516.00,2.0898
3515.00,2.0944
3514.00,2.0987
3513.00,2.1026
3512.00,2.1059
3511.00,2.1087
3510.00,2.1109
3509.00,2.1128
3508.00,2.1142
3507.00,2.1153
3506.00,2.1163
3505.00,2.1172
3504.00,2.1178
3503.00,2.1179
3502.00,2.1173
3501.00,2.1165
3500.00,2.1158
3499.00,2.1148
3498.00,2.1133
3497.00,2.1113
3496.00,2.1093
3495.00,2.1074
3494.00,2.1054
3493.00,2.1029
3492.00,2.0998
3491.00,2.0960
3490.00,2.0917
3489.00,2.0870
3488.00,2.0821
3487.00,2.0770
3486.00,2.0715
3485.00,2.0654
3484.00,2.0584
3483.00,2.0507
3482.00,2.0428
3481.00,2.0354
3480.00,2.0283
3479.00,2.0209
3478.00,2.0126
3477.00,2.0033
3476.00,1.9936
3475.00,1.9838
3474.00,1.9740
3473.00,1.9641
3472.00,1.9537
3471.00,1.9428
3470.00,1.9312
3469.00,1.9190
3468.00,1.9064
3467.00,1.8936
3466.00,1.8806
3465.00,1.8674
3464.00,1.8535
3463.00,1.8391
3462.00,1.8244
3461.00,1.8096
3460.00,1.7948
3459.00,1.7801
3458.00,1.7654
3457.00,1.7506
3456.00,1.7357
3455.00,1.7208
3454.00,1.7061
3453.00,1.6915
3452.00,1.6770
3451.00,1.6628
3450.00,1.6490
3449.00,1.6358
3448.00,1.6233
3447.00,1.6115
3446.00,1.6004
3445.00,1.5902
3444.00,1.5807
3443.00,1.5722
3442.00,1.5648
3441.00,1.5585
3440.00,1.5533
3439.00,1.5493
3438.00,1.5468
3437.00,1.5456
3436.00,1.5458
3435.00,1.5471
3434.00,1.5496
3433.00,1.5534
3432.00,1.5586
3431.00,1.5651
3430.00,1.5727
3429.00,1.5817
3428.00,1.5920
3427.00,1.6035
3426.00,1.6158
3425.00,1.6288
3424.00,1.6424
3423.00,1.6565
3422.00,1.6712
3421.00,1.6865
3420.00,1.7022
3419.00,1.7182
3418.00,1.7343
3417.00,1.7502
3416.00,1.7661
3415.00,1.7820
3414.00,1.7977
3413.00,1.8129
3412.00,1.8274
3411.00,1.8414
3410.00,1.8551
3409.00,1.8687
3408.00,1.8817
3407.00,1.8938
3406.00,1.9048
3405.00,1.9152
3404.00,1.9250
3403.00,1.9344
3402.00,1.9432
3401.00,1.9515
3400.00,1.9593
3399.00,1.9669
3398.00,1.9744
3397.00,1.9823
3396.00,1.9905
3395.00,1.9988
3394.00,2.0069
3393.00,2.0144
3392.00,2.0214
3391.00,2.0284
3390.00,2.0358
3389.00,2.0436
3388.00,2.0514
3387.00,2.0587
3386.00,2.0654
3385.00,2.0718
3384.00,2.0780
3383.00,2.0842
3382.00,2.0900
3381.00,2.0953
3380.00,2.1002
3379.00,2.1048
3378.00,2.1091
3377.00,2.1130
3376.00,2.1164
3375.00,2.1191
3374.00,2.1211
3373.00,2.1227
3372.00,2.1239
3371.00,2.1250
3370.00,2.1260
3369.00,2.1265
3368.00,2.1265
3367.00,2.1259
3366.00,2.1249
3365.00,2.1236
3364.00,2.1218
3363.00,2.1194
3362.00,2.1167
3361.00,2.1140
3360.00,2.1113
3359.00,2.1083
3358.00,2.1046
3357.00,2.1001
3356.00,2.0948
3355.00,2.0888
3354.00,2.0820
3353.00,2.0746
3352.00,2.0668
3351.00,2.0590
3350.00,2.0510
3349.00,2.0426
3348.00,2.0333
3347.00,2.0231
3346.00,2.0122
3345.00,2.0010
3344.00,1.9898
3343.00,1.9783
3342.00,1.9659
3341.00,1.9525
3340.00,1.9383
3339.00,1.9240
3338.00,1.9095
3337.00,1.8946
3336.00,1.8791
3335.00,1.8631
3334.00,1.8468
3333.00,1.8298
3332.00,1.8121
3331.00,1.7937
3330.00,1.7747
3329.00,1.7555
3328.00,1.7362
3327.00,1.7166
3326.00,1.6968
3325.00,1.6769
3324.00,1.6569
3323.00,1.6369
3322.00,1.6173
3321.00,1.5980
3320.00,1.5791
3319.00,1.5608
3318.00,1.5430
3317.00,1.5261
3316.00,1.5103
3315.00,1.4956
3314.00,1.4821
3313.00,1.4698
3312.00,1.4589
3311.00,1.4495
3310.00,1.4418
3309.00,1.4360
3308.00,1.4320
3307.00,1.4298
3306.00,1.4294
3305.00,1.4308
3304.00,1.4339
3303.00,1.4387
3302.00,1.4451
3301.00,1.4531
3300.00,1.4627
3299.00,1.4737
3298.00,1.4861
3297.00,1.4998
3296.00,1.5146
3295.00,1.5302
3294.00,1.5467
3293.00,1.5639
3292.00,1.5818
3291.00,1.6004
3290.00,1.6197
3289.00,1.6393
3288.00,1.6591
3287.00,1.6790
3286.00,1.6987
3285.00,1.7185
3284.00,1.7381
3283.00,1.7577
3282.00,1.7770
3281.00,1.7961
3280.00,1.8151
3279.00,1.8339
3278.00,1.8525
3277.00,1.8708
3276.00,1.8884
3275.00,1.9052
3274.00,1.9212
3273.00,1.9366
3272.00,1.9517
3271.00,1.9664
3270.00,1.9806
3269.00,1.9940
3268.00,2.0066
3267.00,2.0186
3266.00,2.0308
3265.00,2.0430
3264.00,2.0549
3263.00,2.0659
3262.00,2.0756
3261.00,2.0848
3260.00,2.0939
3259.00,2.1030
3258.00,2.1118
3257.00,2.1200
3256.00,2.1276
3255.00,2.1347
3254.00,2.1413
3253.00,2.1473
3252.00,2.1523
3251.00,2.1567
3250.00,2.1610
3249.00,2.1652
3248.00,2.1689
3247.00,2.1716
3246.00,2.1738
3245.00,2.1761
3244.00,2.1784
3243.00,2.1802
3242.00,2.1811
3241.00,2.1811
3240.00,2.1805
3239.00,2.1795
3238.00,2.1783
3237.00,2.1773
3236.00,2.1764
3235.00,2.1748
3234.00,2.1722
3233.00,2.1689
3232.00,2.1654
3231.00,2.1614
3230.00,2.1567
3229.00,2.1512
3228.00,2.1453
3227.00,2.1394
3226.00,2.1334
3225.00,2.1272
3224.00,2.1205
3223.00,2.1131
3222.00,2.1048
3221.00,2.0955
3220.00,2.0859
3219.00,2.0762
3218.00,2.0665
3217.00,2.0565
3216.00,2.0457
3215.00,2.0337
3214.00,2.0209
3213.00,2.0079
3212.00,1.9950
3211.00,1.9821
3210.00,1.9690
3209.00,1.9556
3208.00,1.9417
3207.00,1.9268
3206.00,1.9110
3205.00,1.8942
3204.00,1.8769
3203.00,1.8593
3202.00,1.8416
3201.00,1.8235
3200.00,1.8053
3199.00,1.7869
3198.00,1.7685
3197.00,1.7504
3196.00,1.7327
3195.00,1.7152
3194.00,1.6977
3193.00,1.6802
3192.00,1.6629
3191.00,1.6463
3190.00,1.6305
3189.00,1.6156
3188.00,1.6016
3187.00,1.5887
3186.00,1.5770
3185.00,1.5667
3184.00,1.5577
3183.00,1.5502
3182.00,1.5442
3181.00,1.5397
3180.00,1.5368
3179.00,1.5354
3178.00,1.5357
3177.00,1.5376
3176.00,1.5412
3175.00,1.5464
3174.00,1.5533
3173.00,1.5616
3172.00,1.5712
3171.00,1.5820
3170.00,1.5939
3169.00,1.6071
3168.00,1.6212
3167.00,1.6362
3166.00,1.6518
3165.00,1.6681
3164.00,1.6852
3163.00,1.7030
3162.00,1.7212
3161.00,1.7397
3160.00,1.7584
3159.00,1.7772
3158.00,1.7958
3157.00,1.8142
3156.00,1.8323
3155.00,1.8504
3154.00,1.8685
3153.00,1.8866
3152.00,1.9048
3151.00,1.9226
3150.00,1.9400
3149.00,1.9569
3148.00,1.9732
3147.00,1.9890
3146.00,2.0042
3145.00,2.0190
3144.00,2.0333
3143.00,2.0470
3142.00,2.0599
3141.00,2.0723
3140.00,2.0842
3139.00,2.0956
3138.00,2.1061
3137.00,2.1155
3136.00,2.1243
3135.00,2.1330
3134.00,2.1419
3133.00,2.1507
3132.00,2.1594
3131.00,2.1680
3130.00,2.1764
3129.00,2.1838
3128.00,2.1900
3127.00,2.1953
3126.00,2.2004
3125.00,2.2059
3124.00,2.2118
3123.00,2.2176
3122.00,2.2228
3121.00,2.2273
3120.00,2.2311
3119.00,2.2341
3118.00,2.2365
3117.00,2.2382
3116.00,2.2394
3115.00,2.2400
3114.00,2.2401
3113.00,2.2396
3112.00,2.2383
3111.00,2.2363
3110.00,2.2336
3109.00,2.2304
3108.00,2.2270
3107.00,2.2233
3106.00,2.2197
3105.00,2.2160
3104.00,2.2116
3103.00,2.2059
3102.00,2.1985
3101.00,2.1904
3100.00,2.1820
3099.00,2.1735
3098.00,2.1647
3097.00,2.1557
3096.00,2.1465
3095.00,2.1368
3094.00,2.1262
3093.00,2.1143
3092.00,2.1015
3091.00,2.0879
3090.00,2.0739
3089.00,2.0595
3088.00,2.0446
3087.00,2.0290
3086.00,2.0125
3085.00,1.9952
3084.00,1.9773
3083.00,1.9589
3082.00,1.9400
3081.00,1.9205
3080.00,1.9005
3079.00,1.8800
3078.00,1.8589
3077.00,1.8375
3076.00,1.8163
3075.00,1.7955
3074.00,1.7752
3073.00,1.7550
3072.00,1.7349
3071.00,1.7154
3070.00,1.6968
3069.00,1.6795
3068.00,1.6635
3067.00,1.6489
3066.00,1.6359
3065.00,1.6247
3064.00,1.6156
3063.00,1.6085
3062.00,1.6036
3061.00,1.6009
3060.00,1.6002
3059.00,1.6016
3058.00,1.6051
3057.00,1.6109
3056.00,1.6188
3055.00,1.6285
3054.00,1.6400
3053.00,1.6530
3052.00,1.6674
3051.00,1.6833
3050.00,1.7006
3049.00,1.7190
3048.00,1.7384
3047.00,1.7586
3046.00,1.7797
3045.00,1.8017
3044.00,1.8242
3043.00,1.8470
3042.00,1.8698
3041.00,1.8929
3040.00,1.9161
3039.00,1.9395
3038.00,1.9627
3037.00,1.9852
3036.00,2.0071
3035.00,2.0285
3034.00,2.0499
3033.00,2.0711
3032.00,2.0919
3031.00,2.1120
3030.00,2.1313
3029.00,2.1501
3028.00,2.1683
3027.00,2.1854
3026.00,2.2010
3025.00,2.2147
3024.00,2.2272
3023.00,2.2391
3022.00,2.2510
3021.00,2.2627
3020.00,2.2737
3019.00,2.2837
3018.00,2.2924
3017.00,2.3000
3016.00,2.3066
3015.00,2.3122
3014.00,2.3172
3013.00,2.3215
3012.00,2.3249
3011.00,2.3273
3010.00,2.3292
3009.00,2.3307
3008.00,2.3310
3007.00,2.3294
3006.00,2.3256
3005.00,2.3201
3004.00,2.3136
3003.00,2.3061
3002.00,2.2975
3001.00,2.2880
3000.00,2.2778
2999.00,2.2666
2998.00,2.2542
2997.00,2.2401
2996.00,2.2246
2995.00,2.2080
2994.00,2.1910
2993.00,2.1742
2992.00,2.1580
2991.00,2.1433
2990.00,2.1306
2989.00,2.1209
2988.00,2.1150
2987.00,2.1137
2986.00,2.1178
2985.00,2.1280
2984.00,2.1447
2983.00,2.1687
2982.00,2.2003
2981.00,2.2395
2980.00,2.2857
2979.00,2.3376
2978.00,2.3942
2977.00,2.4549
2976.00,2.5193
2975.00,2.5868
2974.00,2.6571
2973.00,2.7310
2972.00,2.8092
2971.00,2.8915
2970.00,2.9768
2969.00,3.0644
2968.00,3.1553
2967.00,3.2505
2966.00,3.3493
2965.00,3.4468
2964.00,3.5336
2963.00,3.6036
2962.00,3.6639
2961.00,3.7311
2960.00,3.8133
2959.00,3.8983
2958.00,3.9607
2957.00,3.9945
2956.00,4.0166
2955.00,4.0325
2954.00,4.0261
2953.00,3.9913
2952.00,3.9461
2951.00,3.9061
2950.00,3.8763
2949.00,3.8620
2948.00,3.8696
2947.00,3.8960
2946.00,3.9242
2945.00,3.9381
2944.00,3.9394
2943.00,3.9363
2942.00,3.9278
2941.00,3.9125
2940.00,3.9008
2939.00,3.9059
2938.00,3.9318
2937.00,3.9772
2936.00,4.0419
2935.00,4.1170
2934.00,4.1723
2933.00,4.1850
2932.00,4.1720
2931.00,4.1652
2930.00,4.1769
2929.00,4.2164
2928.00,4.2980
2927.00,4.3903
2926.00,4.3604
2925.00,4.2016
2924.00,4.0528
2923.00,3.9756
2922.00,3.9570
2921.00,3.9569
2920.00,3.9282
2919.00,3.8532
2918.00,3.7593
2917.00,3.6704
2916.00,3.5868
2915.00,3.5039
2914.00,3.4269
2913.00,3.3643
2912.00,3.3171
2911.00,3.2799
2910.00,3.2465
2909.00,3.2144
2908.00,3.1842
2907.00,3.1566
2906.00,3.1309
2905.00,3.1064
2904.00,3.0831
2903.00,3.0614
2902.00,3.0411
2901.00,3.0212
2900.00,3.0005
2899.00,2.9784
2898.00,2.9548
2897.00,2.9305
2896.00,2.9063
2895.00,2.8830
2894.00,2.8613
2893.00,2.8413
2892.00,2.8229
2891.00,2.8059
2890.00,2.7904
2889.00,2.7772
2888.00,2.7666
2887.00,2.7588
2886.00,2.7545
2885.00,2.7550
2884.00,2.7607
2883.00,2.7712
2882.00,2.7861
2881.00,2.8056
2880.00,2.8301
2879.00,2.8595
2878.00,2.8943
2877.00,2.9360
2876.00,2.9866
2875.00,3.0456
2874.00,3.1101
2873.00,3.1769
2872.00,3.2451
2871.00,3.3165
2870.00,3.3936
2869.00,3.4773
2868.00,3.5644
2867.00,3.6480
2866.00,3.7231
2865.00,3.7946
2864.00,3.8663
2863.00,3.9151
2862.00,3.9007
2861.00,3.8266
2860.00,3.7340
2859.00,3.6430
2858.00,3.5525
2857.00,3.4631
2856.00,3.3786
2855.00,3.2962
2854.00,3.2074
2853.00,3.1091
2852.00,3.0072
2851.00,2.9096
2850.00,2.8190
2849.00,2.7339
2848.00,2.6522
2847.00,2.5735
2846.00,2.4986
2845.00,2.4281
2844.00,2.3622
2843.00,2.3010
2842.00,2.2449
2841.00,2.1951
2840.00,2.1526
2839.00,2.1177
2838.00,2.0900
2837.00,2.0692
2836.00,2.0548
2835.00,2.0462
2834.00,2.0429
2833.00,2.0443
2832.00,2.0496
2831.00,2.0578
2830.00,2.0677
2829.00,2.0786
2828.00,2.0900
2827.00,2.1019
2826.00,2.1140
2825.00,2.1259
2824.00,2.1371
2823.00,2.1481
2822.00,2.1595
2821.00,2.1717
2820.00,2.1848
2819.00,2.1986
2818.00,2.2129
2817.00,2.2274
2816.00,2.2423
2815.00,2.2576
2814.00,2.2733
2813.00,2.2890
2812.00,2.3036
2811.00,2.3168
2810.00,2.3284
2809.00,2.3391
2808.00,2.3494
2807.00,2.3591
2806.00,2.3681
2805.00,2.3761
2804.00,2.3835
2803.00,2.3905
2802.00,2.3969
2801.00,2.4022
2800.00,2.4065
2799.00,2.4096
2798.00,2.4116
2797.00,2.4130
2796.00,2.4143
2795.00,2.4155
2794.00,2.4153
2793.00,2.4128
2792.00,2.4081
2791.00,2.4025
2790.00,2.3968
2789.00,2.3908
2788.00,2.3841
2787.00,2.3768
2786.00,2.3690
2785.00,2.3603
2784.00,2.3506
2783.00,2.3401
2782.00,2.3291
2781.00,2.3176
2780.00,2.3048
2779.00,2.2904
2778.00,2.2746
2777.00,2.2576
2776.00,2.2400
2775.00,2.2218
2774.00,2.2030
2773.00,2.1837
2772.00,2.1633
2771.00,2.1417
2770.00,2.1187
2769.00,2.0942
2768.00,2.0684
2767.00,2.0415
2766.00,2.0137
2765.00,1.9847
2764.00,1.9544
2763.00,1.9226
2762.00,1.8897
2761.00,1.8559
2760.00,1.8209
2759.00,1.7846
2758.00,1.7469
2757.00,1.7080
2756.00,1.6683
2755.00,1.6283
2754.00,1.5888
2753.00,1.5504
2752.00,1.5140
2751.00,1.4802
2750.00,1.4496
2749.00,1.4228
2748.00,1.4004
2747.00,1.3828
2746.00,1.3704
2745.00,1.3633
2744.00,1.3615
2743.00,1.3650
2742.00,1.3734
2741.00,1.3866
2740.00,1.4042
2739.00,1.4257
2738.00,1.4506
2737.00,1.4785
2736.00,1.5087
2735.00,1.5407
2734.00,1.5742
2733.00,1.6087
2732.00,1.6440
2731.00,1.6797
2730.00,1.7155
2729.00,1.7510
2728.00,1.7862
2727.00,1.8211
2726.00,1.8556
2725.00,1.8895
2724.00,1.9226
2723.00,1.9548
2722.00,1.9861
2721.00,2.0162
2720.00,2.0449
2719.00,2.0718
2718.00,2.0971
2717.00,2.1214
2716.00,2.1451
2715.00,2.1682
2714.00,2.1903
2713.00,2.2109
2712.00,2.2300
2711.00,2.2481
2710.00,2.2659
2709.00,2.2835
2708.00,2.3003
2707.00,2.3156
2706.00,2.3295
2705.00,2.3426
2704.00,2.3554
2703.00,2.3675
2702.00,2.3783
2701.00,2.3875
2700.00,2.3955
2699.00,2.4032
2698.00,2.4114
2697.00,2.4201
2696.00,2.4284
2695.00,2.4353
2694.00,2.4403
2693.00,2.4442
2692.00,2.4476
2691.00,2.4507
2690.00,2.4534
2689.00,2.4559
2688.00,2.4585
2687.00,2.4611
2686.00,2.4630
2685.00,2.4636
2684.00,2.4628
2683.00,2.4612
2682.00,2.4595
2681.00,2.4584
2680.00,2.4579
2679.00,2.4576
2678.00,2.4567
2677.00,2.4550
2676.00,2.4525
2675.00,2.4491
2674.00,2.4450
2673.00,2.4402
2672.00,2.4351
2671.00,2.4302
2670.00,2.4255
2669.00,2.4206
2668.00,2.4143
2667.00,2.4059
2666.00,2.3955
2665.00,2.3843
2664.00,2.3730
2663.00,2.3616
2662.00,2.3496
2661.00,2.3364
2660.00,2.3216
2659.00,2.3052
2658.00,2.2873
2657.00,2.2689
2656.00,2.2505
2655.00,2.2323
2654.00,2.2137
2653.00,2.1944
2652.00,2.1742
2651.00,2.1529
2650.00,2.1305
2649.00,2.1073
2648.00,2.0832
2647.00,2.0582
2646.00,2.0318
2645.00,2.0038
2644.00,1.9739
2643.00,1.9424
2642.00,1.9090
2641.00,1.8740
2640.00,1.8376
2639.00,1.8000
2638.00,1.7613
2637.00,1.7220
2636.00,1.6825
2635.00,1.6434
2634.00,1.6051
2633.00,1.5683
2632.00,1.5335
2631.00,1.5013
2630.00,1.4725
2629.00,1.4476
2628.00,1.4270
2627.00,1.4111
2626.00,1.4001
2625.00,1.3942
2624.00,1.3933
2623.00,1.3973
2622.00,1.4059
2621.00,1.4188
2620.00,1.4358
2619.00,1.4562
2618.00,1.4795
2617.00,1.5051
2616.00,1.5324
2615.00,1.5610
2614.00,1.5906
2613.00,1.6213
2612.00,1.6528
2611.00,1.6848
2610.00,1.7169
2609.00,1.7489
2608.00,1.7805
2607.00,1.8118
2606.00,1.8430
2605.00,1.8743
2604.00,1.9055
2603.00,1.9366
2602.00,1.9673
2601.00,1.9976
2600.00,2.0274
2599.00,2.0565
2598.00,2.0849
2597.00,2.1123
2596.00,2.1385
2595.00,2.1632
2594.00,2.1867
2593.00,2.2095
2592.00,2.2322
2591.00,2.2545
2590.00,2.2754
2589.00,2.2945
2588.00,2.3122
2587.00,2.3290
2586.00,2.3452
2585.00,2.3610
2584.00,2.3758
2583.00,2.3895
2582.00,2.4018
2581.00,2.4133
2580.00,2.4245
2579.00,2.4360
2578.00,2.4474
2577.00,2.4581
2576.00,2.4677
2575.00,2.4762
2574.00,2.4836
2573.00,2.4902
2572.00,2.4963
2571.00,2.5020
2570.00,2.5078
2569.00,2.5137
2568.00,2.5195
2567.00,2.5244
2566.00,2.5279
2565.00,2.5303
2564.00,2.5321
2563.00,2.5338
2562.00,2.5354
2561.00,2.5369
2560.00,2.5381
2559.00,2.5384
2558.00,2.5373
2557.00,2.5353
2556.00,2.5332
2555.00,2.5318
2554.00,2.5303
2553.00,2.5279
2552.00,2.5244
2551.00,2.5201
2550.00,2.5157
2549.00,2.5109
2548.00,2.5056
2547.00,2.4996
2546.00,2.4928
2545.00,2.4849
2544.00,2.4761
2543.00,2.4669
2542.00,2.4579
2541.00,2.4485
2540.00,2.4382
2539.00,2.4264
2538.00,2.4139
2537.00,2.4016
2536.00,2.3895
2535.00,2.3769
2534.00,2.3633
2533.00,2.3482
2532.00,2.3318
2531.00,2.3141
2530.00,2.2953
2529.00,2.2758
2528.00,2.2558
2527.00,2.2353
2526.00,2.2139
2525.00,2.1912
2524.00,2.1671
2523.00,2.1416
2522.00,2.1146
2521.00,2.0862
2520.00,2.0563
2519.00,2.0248
2518.00,1.9913
2517.00,1.9559
2516.00,1.9187
2515.00,1.8798
2514.00,1.8392
2513.00,1.7972
2512.00,1.7542
2511.00,1.7103
2510.00,1.6658
2509.00,1.6212
2508.00,1.5770
2507.00,1.5340
2506.00,1.4930
2505.00,1.4546
2504.00,1.4194
2503.00,1.3880
2502.00,1.3609
2501.00,1.3389
2500.00,1.3225
2499.00,1.3121
2498.00,1.3079
2497.00,1.3099
2496.00,1.3181
2495.00,1.3320
2494.00,1.3513
2493.00,1.3754
2492.00,1.4036
2491.00,1.4354
2490.00,1.4703
2489.00,1.5077
2488.00,1.5471
2487.00,1.5878
2486.00,1.6293
2485.00,1.6712
2484.00,1.7132
2483.00,1.7552
2482.00,1.7972
2481.00,1.8388
2480.00,1.8796
2479.00,1.9193
2478.00,1.9577
2477.00,1.9950
2476.00,2.0308
2475.00,2.0653
2474.00,2.0983
2473.00,2.1300
2472.00,2.1604
2471.00,2.1893
2470.00,2.2166
2469.00,2.2423
2468.00,2.2665
2467.00,2.2892
2466.00,2.3106
2465.00,2.3307
2464.00,2.3494
2463.00,2.3668
2462.00,2.3837
2461.00,2.4008
2460.00,2.4181
2459.00,2.4346
2458.00,2.4496
2457.00,2.4629
2456.00,2.4753
2455.00,2.4874
2454.00,2.4993
2453.00,2.5113
2452.00,2.5234
2451.00,2.5354
2450.00,2.5463
2449.00,2.5553
2448.00,2.5629
2447.00,2.5701
2446.00,2.5776
2445.00,2.5846
2444.00,2.5900
2443.00,2.5941
2442.00,2.5976
2441.00,2.6005
2440.00,2.6025
2439.00,2.6038
2438.00,2.6052
2437.00,2.6073
2436.00,2.6096
2435.00,2.6115
2434.00,2.6134
2433.00,2.6162
2432.00,2.6192
2431.00,2.6209
2430.00,2.6201
2429.00,2.6173
2428.00,2.6133
2427.00,2.6090
2426.00,2.6048
2425.00,2.6007
2424.00,2.5965
2423.00,2.5918
2422.00,2.5869
2421.00,2.5819
2420.00,2.5765
2419.00,2.5700
2418.00,2.5620
2417.00,2.5533
2416.00,2.5445
2415.00,2.5357
2414.00,2.5261
2413.00,2.5153
2412.00,2.5035
2411.00,2.4911
2410.00,2.4782
2409.00,2.4646
2408.00,2.4503
2407.00,2.4353
2406.00,2.4191
2405.00,2.4014
2404.00,2.3822
2403.00,2.3616
2402.00,2.3403
2401.00,2.3185
2400.00,2.2960
2399.00,2.2728
2398.00,2.2485
2397.00,2.2229
2396.00,2.1954
2395.00,2.1659
2394.00,2.1345
2393.00,2.1014
2392.00,2.0665
2391.00,2.0299
2390.00,1.9921
2389.00,1.9537
2388.00,1.9153
2387.00,1.8776
2386.00,1.8416
2385.00,1.8089
2384.00,1.7812
2383.00,1.7596
2382.00,1.7455
2381.00,1.7395
2380.00,1.7414
2379.00,1.7505
2378.00,1.7649
2377.00,1.7820
2376.00,1.7991
2375.00,1.8138
2374.00,1.8248
2373.00,1.8319
2372.00,1.8355
2371.00,1.8373
2370.00,1.8390
2369.00,1.8420
2368.00,1.8468
2367.00,1.8535
2366.00,1.8621
2365.00,1.8726
2364.00,1.8839
2363.00,1.8958
2362.00,1.9093
2361.00,1.9234
2360.00,1.9384
2359.00,1.9564
2358.00,1.9775
2357.00,2.0010
2356.00,2.0242
2355.00,2.0447
2354.00,2.0640
2353.00,2.0815
2352.00,2.0981
2351.00,2.1163
2350.00,2.1417
2349.00,2.1733
2348.00,2.2009
2347.00,2.2226
2346.00,2.2454
2345.00,2.2761
2344.00,2.3095
2343.00,2.3350
2342.00,2.3535
2341.00,2.3715
2340.00,2.3980
2339.00,2.4334
2338.00,2.4721
2337.00,2.5113
2336.00,2.5488
2335.00,2.5873
2334.00,2.6285
2333.00,2.6741
2332.00,2.7239
2331.00,2.7774
2330.00,2.8328
2329.00,2.8873
2328.00,2.9353
2327.00,2.9756
2326.00,3.0059
2325.00,3.0299
2324.00,3.0541
2323.00,3.0833
2322.00,3.1188
2321.00,3.1524
2320.00,3.1796
2319.00,3.1985
2318.00,3.2118
2317.00,3.2205
2316.00,3.2230
2315.00,3.2197
2314.00,3.2124
2313.00,3.2059
2312.00,3.2020
2311.00,3.2011
2310.00,3.1998
2309.00,3.1952
2308.00,3.1850
2307.00,3.1692
2306.00,3.1488
2305.00,3.1253
2304.00,3.0998
2303.00,3.0732
2302.00,3.0465
2301.00,3.0200
2300.00,2.9932
2299.00,2.9658
2298.00,2.9379
2297.00,2.9103
2296.00,2.8828
2295.00,2.8558
2294.00,2.8298
2293.00,2.8060
2292.00,2.7839
2291.00,2.7619
2290.00,2.7392
2289.00,2.7166
2288.00,2.6961
2287.00,2.6785
2286.00,2.6623
2285.00,2.6458
2284.00,2.6285
2283.00,2.6105
2282.00,2.5922
2281.00,2.5732
2280.00,2.5532
2279.00,2.5323
2278.00,2.5107
2277.00,2.4882
2276.00,2.4647
2275.00,2.4402
2274.00,2.4152
2273.00,2.3900
2272.00,2.3648
2271.00,2.3393
2270.00,2.3128
2269.00,2.2848
2268.00,2.2547
2267.00,2.2228
2266.00,2.1891
2265.00,2.1542
2264.00,2.1180
2263.00,2.0804
2262.00,2.0410
2261.00,1.9995
2260.00,1.9557
2259.00,1.9101
2258.00,1.8636
2257.00,1.8167
2256.00,1.7705
2255.00,1.7256
2254.00,1.6825
2253.00,1.6412
2252.00,1.6009
2251.00,1.5611
2250.00,1.5219
2249.00,1.4848
2248.00,1.4517
2247.00,1.4243
2246.00,1.4038
2245.00,1.3906
2244.00,1.3851
2243.00,1.3875
2242.00,1.3976
2241.00,1.4150
2240.00,1.4391
2239.00,1.4691
2238.00,1.5039
2237.00,1.5427
2236.00,1.5847
2235.00,1.6289
2234.00,1.6747
2233.00,1.7214
2232.00,1.7687
2231.00,1.8163
2230.00,1.8638
2229.00,1.9107
2228.00,1.9568
2227.00,2.0018
2226.00,2.0457
2225.00,2.0884
2224.00,2.1295
2223.00,2.1686
2222.00,2.2053
2221.00,2.2397
2220.00,2.2724
2219.00,2.3044
2218.00,2.3355
2217.00,2.3650
2216.00,2.3924
2215.00,2.4181
2214.00,2.4430
2213.00,2.4672
2212.00,2.4904
2211.00,2.5118
2210.00,2.5317
2209.00,2.5508
2208.00,2.5691
2207.00,2.5862
2206.00,2.6021
2205.00,2.6171
2204.00,2.6321
2203.00,2.6469
2202.00,2.6612
2201.00,2.6742
2200.00,2.6856
2199.00,2.6953
2198.00,2.7040
2197.00,2.7125
2196.00,2.7219
2195.00,2.7328
2194.00,2.7445
2193.00,2.7557
2192.00,2.7646
2191.00,2.7703
2190.00,2.7736
2189.00,2.7760
2188.00,2.7789
2187.00,2.7821
2186.00,2.7853
2185.00,2.7883
2184.00,2.7916
2183.00,2.7952
2182.00,2.7986
2181.00,2.8012
2180.00,2.8028
2179.00,2.8033
2178.00,2.8027
2177.00,2.8017
2176.00,2.8008
2175.00,2.8002
2174.00,2.7991
2173.00,2.7968
2172.00,2.7932
2171.00,2.7889
2170.00,2.7840
2169.00,2.7779
2168.00,2.7706
2167.00,2.7626
2166.00,2.7546
2165.00,2.7475
2164.00,2.7410
2163.00,2.7348
2162.00,2.7278
2161.00,2.7197
2160.00,2.7106
2159.00,2.7006
2158.00,2.6895
2157.00,2.6769
2156.00,2.6636
2155.00,2.6503
2154.00,2.6373
2153.00,2.6233
2152.00,2.6070
2151.00,2.5886
2150.00,2.5693
2149.00,2.5501
2148.00,2.5306
2147.00,2.5094
2146.00,2.4863
2145.00,2.4619
2144.00,2.4367
2143.00,2.4107
2142.00,2.3837
2141.00,2.3556
2140.00,2.3264
2139.00,2.2957
2138.00,2.2630
2137.00,2.2283
2136.00,2.1915
2135.00,2.1526
2134.00,2.1114
2133.00,2.0682
2132.00,2.0233
2131.00,1.9768
2130.00,1.9287
2129.00,1.8786
2128.00,1.8270
2127.00,1.7744
2126.00,1.7218
2125.00,1.6706
2124.00,1.6219
2123.00,1.5771
2122.00,1.5373
2121.00,1.5036
2120.00,1.4767
2119.00,1.4574
2118.00,1.4462
2117.00,1.4434
2116.00,1.4492
2115.00,1.4632
2114.00,1.4848
2113.00,1.5131
2112.00,1.5474
2111.00,1.5866
2110.00,1.6298
2109.00,1.6760
2108.00,1.7246
2107.00,1.7747
2106.00,1.8257
2105.00,1.8770
2104.00,1.9280
2103.00,1.9782
2102.00,2.0270
2101.00,2.0741
2100.00,2.1194
2099.00,2.1628
2098.00,2.2045
2097.00,2.2443
2096.00,2.2821
2095.00,2.3180
2094.00,2.3521
2093.00,2.3844
2092.00,2.4149
2091.00,2.4435
2090.00,2.4702
2089.00,2.4953
2088.00,2.5192
2087.00,2.5428
2086.00,2.5665
2085.00,2.5897
2084.00,2.6116
2083.00,2.6316
2082.00,2.6504
2081.00,2.6687
2080.00,2.6864
2079.00,2.7031
2078.00,2.7184
2077.00,2.7327
2076.00,2.7467
2075.00,2.7602
2074.00,2.7727
2073.00,2.7833
2072.00,2.7925
2071.00,2.8015
2070.00,2.8112
2069.00,2.8212
2068.00,2.8307
2067.00,2.8397
2066.00,2.8483
2065.00,2.8564
2064.00,2.8635
2063.00,2.8692
2062.00,2.8741
2061.00,2.8790
2060.00,2.8840
2059.00,2.8887
2058.00,2.8928
2057.00,2.8953
2056.00,2.8953
2055.00,2.8928
2054.00,2.8892
2053.00,2.8871
2052.00,2.8880
2051.00,2.8914
2050.00,2.8944
2049.00,2.8943
2048.00,2.8907
2047.00,2.8858
2046.00,2.8812
2045.00,2.8766
2044.00,2.8716
2043.00,2.8664
2042.00,2.8622
2041.00,2.8587
2040.00,2.8542
2039.00,2.8477
2038.00,2.8396
2037.00,2.8311
2036.00,2.8228
2035.00,2.8148
2034.00,2.8063
2033.00,2.7966
2032.00,2.7853
2031.00,2.7729
2030.00,2.7600
2029.00,2.7466
2028.00,2.7324
2027.00,2.7168
2026.00,2.7004
2025.00,2.6838
2024.00,2.6670
2023.00,2.6495
2022.00,2.6298
2021.00,2.6068
2020.00,2.5804
2019.00,2.5526
2018.00,2.5252
2017.00,2.4988
2016.00,2.4722
2015.00,2.4439
2014.00,2.4130
2013.00,2.3795
2012.00,2.3438
2011.00,2.3064
2010.00,2.2674
2009.00,2.2266
2008.00,2.1836
2007.00,2.1378
2006.00,2.0891
2005.00,2.0375
2004.00,1.9834
2003.00,1.9274
2002.00,1.8704
2001.00,1.8136
2000.00,1.7581
1999.00,1.7053
1998.00,1.6570
1997.00,1.6142
1996.00,1.5771
1995.00,1.5464
1994.00,1.5243
1993.00,1.5133
1992.00,1.5141
1991.00,1.5249
1990.00,1.5441
1989.00,1.5715
1988.00,1.6071
1987.00,1.6493
1986.00,1.6961
1985.00,1.7461
1984.00,1.7987
1983.00,1.8528
1982.00,1.9071
1981.00,1.9610
1980.00,2.0141
1979.00,2.0658
1978.00,2.1157
1977.00,2.1635
1976.00,2.2090
1975.00,2.2521
1974.00,2.2927
1973.00,2.3315
1972.00,2.3690
1971.00,2.4046
1970.00,2.4377
1969.00,2.4692
1968.00,2.5006
1967.00,2.5324
1966.00,2.5633
1965.00,2.5920
1964.00,2.6186
1963.00,2.6439
1962.00,2.6687
1961.00,2.6929
1960.00,2.7160
1959.00,2.7369
1958.00,2.7553
1957.00,2.7719
1956.00,2.7879
1955.00,2.8034
1954.00,2.8180
1953.00,2.8322
1952.00,2.8470
1951.00,2.8626
1950.00,2.8775
1949.00,2.8907
1948.00,2.9023
1947.00,2.9117
1946.00,2.9179
1945.00,2.9222
1944.00,2.9274
1943.00,2.9355
1942.00,2.9457
1941.00,2.9560
1940.00,2.9649
1939.00,2.9712
1938.00,2.9749
1937.00,2.9783
1936.00,2.9848
1935.00,2.9938
1934.00,3.0001
1933.00,2.9999
1932.00,2.9965
1931.00,2.9957
1930.00,2.9985
1929.00,3.0006
1928.00,2.9972
1927.00,2.9882
1926.00,2.9769
1925.00,2.9684
1924.00,2.9671
1923.00,2.9718
1922.00,2.9763
1921.00,2.9748
1920.00,2.9679
1919.00,2.9598
1918.00,2.9525
1917.00,2.9449
1916.00,2.9361
1915.00,2.9267
1914.00,2.9166
1913.00,2.9056
1912.00,2.8945
1911.00,2.8843
1910.00,2.8742
1909.00,2.8620
1908.00,2.8465
1907.00,2.8295
1906.00,2.8120
1905.00,2.7943
1904.00,2.7756
1903.00,2.7548
1902.00,2.7322
1901.00,2.7091
1900.00,2.6870
1899.00,2.6654
1898.00,2.6415
1897.00,2.6133
1896.00,2.5817
1895.00,2.5484
1894.00,2.5135
1893.00,2.4750
1892.00,2.4327
1891.00,2.3889
1890.00,2.3449
1889.00,2.2999
1888.00,2.2515
1887.00,2.1990
1886.00,2.1441
1885.00,2.0886
1884.00,2.0334
1883.00,1.9785
1882.00,1.9249
1881.00,1.8748
1880.00,1.8294
1879.00,1.7901
1878.00,1.7579
1877.00,1.7335
1876.00,1.7179
1875.00,1.7121
1874.00,1.7156
1873.00,1.7260
1872.00,1.7407
1871.00,1.7602
1870.00,1.7875
1869.00,1.8230
1868.00,1.8634
1867.00,1.9047
1866.00,1.9466
1865.00,1.9913
1864.00,2.0400
1863.00,2.0919
1862.00,2.1453
1861.00,2.1994
1860.00,2.2535
1859.00,2.3069
1858.00,2.3593
1857.00,2.4105
1856.00,2.4595
1855.00,2.5047
1854.00,2.5460
1853.00,2.5849
1852.00,2.6207
1851.00,2.6529
1850.00,2.6840
1849.00,2.7170
1848.00,2.7511
1847.00,2.7827
1846.00,2.8109
1845.00,2.8394
1844.00,2.8687
1843.00,2.8929
1842.00,2.9085
1841.00,2.9188
1840.00,2.9299
1839.00,2.9454
1838.00,2.9636
1837.00,2.9820
1836.00,2.9998
1835.00,3.0175
1834.00,3.0348
1833.00,3.0498
1832.00,3.0615
1831.00,3.0718
1830.00,3.0813
1829.00,3.0872
1828.00,3.0880
1827.00,3.0878
1826.00,3.0920
1825.00,3.0998
1824.00,3.1044
1823.00,3.1015
1822.00,3.0934
1821.00,3.0854
1820.00,3.0815
1819.00,3.0833
1818.00,3.0879
1817.00,3.0905
1816.00,3.0873
1815.00,3.0789
1814.00,3.0699
1813.00,3.0641
1812.00,3.0634
1811.00,3.0657
1810.00,3.0663
1809.00,3.0623
1808.00,3.0542
1807.00,3.0435
1806.00,3.0300
1805.00,3.0135
1804.00,2.9961
1803.00,2.9805
1802.00,2.9676
1801.00,2.9539
1800.00,2.9351
1799.00,2.9105
1798.00,2.8825
1797.00,2.8536
1796.00,2.8229
1795.00,2.7866
1794.00,2.7426
1793.00,2.6926
1792.00,2.6391
1791.00,2.5835
1790.00,2.5260
1789.00,2.4664
1788.00,2.4054
1787.00,2.3454
1786.00,2.2912
1785.00,2.2479
1784.00,2.2169
1783.00,2.1969
1782.00,2.1910
1781.00,2.2030
1780.00,2.2328
1779.00,2.2767
1778.00,2.3329
1777.00,2.4017
1776.00,2.4781
1775.00,2.5538
1774.00,2.6271
1773.00,2.7014
1772.00,2.7743
1771.00,2.8371
1770.00,2.8867
1769.00,2.9302
1768.00,2.9763
1767.00,3.0222
1766.00,3.0596
1765.00,3.0868
1764.00,3.1109
1763.00,3.1411
1762.00,3.1781
1761.00,3.2113
1760.00,3.2322
1759.00,3.2428
1758.00,3.2558
1757.00,3.2822
1756.00,3.3208
1755.00,3.3632
1754.00,3.4027
1753.00,3.4370
1752.00,3.4665
1751.00,3.4919
1750.00,3.5143
1749.00,3.5365
1748.00,3.5579
1747.00,3.5755
1746.00,3.5909
1745.00,3.6101
1744.00,3.6421
1743.00,3.6932
1742.00,3.7625
1741.00,3.8404
1740.00,3.9093
1739.00,3.9524
1738.00,3.9746
1737.00,3.9911
1736.00,4.0128
1735.00,4.0543
1734.00,4.1220
1733.00,4.1883
1732.00,4.2278
1731.00,4.2684
1730.00,4.3469
1729.00,4.4747
1728.00,4.6904
1727.00,4.9958
1726.00,4.9393
1725.00,4.7733
1724.00,4.7339
1723.00,4.8115
1722.00,5.0533
1721.00,4.8396
1720.00,4.5572
1719.00,4.4846
1718.00,4.5224
1717.00,4.5688
1716.00,4.5631
1715.00,4.6123
1714.00,4.7700
1713.00,4.9352
1712.00,4.9005
1711.00,4.7732
1710.00,4.6829
1709.00,4.6315
1708.00,4.6401
1707.00,4.7886
1706.00,5.3233
1705.00,5.6528
1704.00,5.4642
1703.00,5.7447
1702.00,5.1675
1701.00,4.9672
1700.00,4.8456
1699.00,4.6634
1698.00,4.5182
1697.00,4.4739
1696.00,4.6228
1695.00,5.0888
1694.00,4.8167
1693.00,4.4539
1692.00,4.2650
1691.00,4.1190
1690.00,4.0093
1689.00,3.9281
1688.00,3.8661
1687.00,3.8144
1686.00,3.7641
1685.00,3.7146
1684.00,3.6627
1683.00,3.6109
1682.00,3.5746
1681.00,3.5614
1680.00,3.5637
1679.00,3.5669
1678.00,3.5591
1677.00,3.5390
1676.00,3.5151
1675.00,3.4882
1674.00,3.4542
1673.00,3.4164
1672.00,3.3803
1671.00,3.3474
1670.00,3.3192
1669.00,3.2939
1668.00,3.2646
1667.00,3.2250
1666.00,3.1750
1665.00,3.1190
1664.00,3.0625
1663.00,3.0048
1662.00,2.9437
1661.00,2.8803
1660.00,2.8199
1659.00,2.7697
1658.00,2.7357
1657.00,2.7170
1656.00,2.7046
1655.00,2.6923
1654.00,2.6869
1653.00,2.6926
1652.00,2.7005
1651.00,2.7066
1650.00,2.7169
1649.00,2.7360
1648.00,2.7637
1647.00,2.7956
1646.00,2.8255
1645.00,2.8503
1644.00,2.8726
1643.00,2.8951
1642.00,2.9214
1641.00,2.9549
1640.00,2.9945
1639.00,3.0342
1638.00,3.0657
1637.00,3.0873
1636.00,3.1031
1635.00,3.1161
1634.00,3.1230
1633.00,3.1245
1632.00,3.1264
1631.00,3.1329
1630.00,3.1447
1629.00,3.1600
1628.00,3.1761
1627.00,3.1896
1626.00,3.2002
1625.00,3.2094
1624.00,3.2185
1623.00,3.2257
1622.00,3.2303
1621.00,3.2360
1620.00,3.2465
1619.00,3.2602
1618.00,3.2727
1617.00,3.2801
1616.00,3.2791
1615.00,3.2703
1614.00,3.2594
1613.00,3.2535
1612.00,3.2550
1611.00,3.2599
1610.00,3.2630
1609.00,3.2631
1608.00,3.2607
1607.00,3.2533
1606.00,3.2398
1605.00,3.2236
1604.00,3.2105
1603.00,3.2030
1602.00,3.1988
1601.00,3.1959
1600.00,3.1939
1599.00,3.1911
1598.00,3.1829
1597.00,3.1662
1596.00,3.1451
1595.00,3.1265
1594.00,3.1125
1593.00,3.0998
1592.00,3.0852
1591.00,3.0681
1590.00,3.0481
1589.00,3.0244
1588.00,2.9972
1587.00,2.9676
1586.00,2.9359
1585.00,2.9024
1584.00,2.8664
1583.00,2.8289
1582.00,2.7925
1581.00,2.7593
1580.00,2.7286
1579.00,2.6969
1578.00,2.6574
1577.00,2.6034
1576.00,2.5342
1575.00,2.4566
1574.00,2.3808
1573.00,2.3107
1572.00,2.2437
1571.00,2.1775
1570.00,2.1125
1569.00,2.0517
1568.00,1.9979
1567.00,1.9554
1566.00,1.9302
1565.00,1.9282
1564.00,1.9484
1563.00,1.9840
1562.00,2.0251
1561.00,2.0692
1560.00,2.1251
1559.00,2.1929
1558.00,2.2599
1557.00,2.3127
1556.00,2.3535
1555.00,2.3968
1554.00,2.4504
1553.00,2.5060
1552.00,2.5550
1551.00,2.6024
1550.00,2.6553
1549.00,2.7109
1548.00,2.7589
1547.00,2.7973
1546.00,2.8361
1545.00,2.8853
1544.00,2.9432
1543.00,3.0019
1542.00,3.0518
1541.00,3.0856
1540.00,3.1051
1539.00,3.1190
1538.00,3.1297
1537.00,3.1381
1536.00,3.1457
1535.00,3.1557
1534.00,3.1720
1533.00,3.1899
1532.00,3.2043
1531.00,3.2174
1530.00,3.2329
1529.00,3.2488
1528.00,3.2591
1527.00,3.2642
1526.00,3.2724
1525.00,3.2869
1524.00,3.3015
1523.00,3.3123
1522.00,3.3250
1521.00,3.3414
1520.00,3.3488
1519.00,3.3409
1518.00,3.3290
1517.00,3.3280
1516.00,3.3388
1515.00,3.3489
1514.00,3.3495
1513.00,3.3440
1512.00,3.3431
1511.00,3.3510
1510.00,3.3640
1509.00,3.3765
1508.00,3.3880
1507.00,3.3988
1506.00,3.4054
1505.00,3.3960
1504.00,3.3685
1503.00,3.3369
1502.00,3.3140
1501.00,3.3019
1500.00,3.2945
1499.00,3.2871
1498.00,3.2787
1497.00,3.2692
1496.00,3.2580
1495.00,3.2449
1494.00,3.2323
1493.00,3.2197
1492.00,3.2014
1491.00,3.1743
1490.00,3.1417
1489.00,3.1093
1488.00,3.0811
1487.00,3.0548
1486.00,3.0257
1485.00,2.9925
1484.00,2.9540
1483.00,2.9106
1482.00,2.8648
1481.00,2.8188
1480.00,2.7725
1479.00,2.7252
1478.00,2.6796
1477.00,2.6404
1476.00,2.6100
1475.00,2.5862
1474.00,2.5710
1473.00,2.5715
1472.00,2.5929
1471.00,2.6328
1470.00,2.6871
1469.00,2.7541
1468.00,2.8328
1467.00,2.9184
1466.00,3.0054
1465.00,3.0879
1464.00,3.1566
1463.00,3.2052
1462.00,3.2383
1461.00,3.2695
1460.00,3.3072
1459.00,3.3526
1458.00,3.4084
1457.00,3.4807
1456.00,3.5676
1455.00,3.6640
1454.00,3.7734
1453.00,3.8982
1452.00,4.0163
1451.00,4.1148
1450.00,4.2420
1449.00,4.4284
1448.00,4.4867
1447.00,4.2391
1446.00,3.9734
1445.00,3.7680
1444.00,3.6099
1443.00,3.4892
1442.00,3.4049
1441.00,3.3540
1440.00,3.3265
1439.00,3.3129
1438.00,3.3154
1437.00,3.3470
1436.00,3.4100
1435.00,3.4879
1434.00,3.5627
1433.00,3.6312
1432.00,3.6969
1431.00,3.7538
1430.00,3.7878
1429.00,3.7997
1428.00,3.8056
1427.00,3.8142
1426.00,3.8212
1425.00,3.8129
1424.00,3.7818
1423.00,3.7394
1422.00,3.6978
1421.00,3.6563
1420.00,3.6130
1419.00,3.5724
1418.00,3.5367
1417.00,3.4998
1416.00,3.4509
1415.00,3.3871
1414.00,3.3168
1413.00,3.2506
1412.00,3.1973
1411.00,3.1644
1410.00,3.1555
1409.00,3.1668
1408.00,3.1907
1407.00,3.2187
1406.00,3.2467
1405.00,3.2707
1404.00,3.2825
1403.00,3.2786
1402.00,3.2698
1401.00,3.2728
1400.00,3.2954
1399.00,3.3282
1398.00,3.3523
1397.00,3.3610
1396.00,3.3661
1395.00,3.3806
1394.00,3.4063
1393.00,3.4338
1392.00,3.4540
1391.00,3.4669
1390.00,3.4743
1389.00,3.4752
1388.00,3.4731
1387.00,3.4778
1386.00,3.4940
1385.00,3.5151
1384.00,3.5276
1383.00,3.5255
1382.00,3.5154
1381.00,3.5091
1380.00,3.5113
1379.00,3.5166
1378.00,3.5171
1377.00,3.5124
1376.00,3.5095
1375.00,3.5176
1374.00,3.5387
1373.00,3.5549
1372.00,3.5433
1371.00,3.5072
1370.00,3.4735
1369.00,3.4627
1368.00,3.4698
1367.00,3.4712
1366.00,3.4543
1365.00,3.4312
1364.00,3.4188
1363.00,3.4184
1362.00,3.4151
1361.00,3.3972
1360.00,3.3690
1359.00,3.3398
1358.00,3.3131
1357.00,3.2909
1356.00,3.2776
1355.00,3.2769
1354.00,3.2905
1353.00,3.3205
1352.00,3.3699
1351.00,3.4398
1350.00,3.5258
1349.00,3.6171
1348.00,3.6959
1347.00,3.7430
1346.00,3.7493
1345.00,3.7212
1344.00,3.6750
1343.00,3.6299
1342.00,3.6020
1341.00,3.6012
1340.00,3.6281
1339.00,3.6714
1338.00,3.7064
1337.00,3.7051
1336.00,3.6590
1335.00,3.5883
1334.00,3.5176
1333.00,3.4534
1332.00,3.3870
1331.00,3.3140
1330.00,3.2449
1329.00,3.1936
1328.00,3.1650
1327.00,3.1542
1326.00,3.1546
1325.00,3.1662
1324.00,3.1941
1323.00,3.2420
1322.00,3.3089
1321.00,3.3896
1320.00,3.4763
1319.00,3.5653
1318.00,3.6615
1317.00,3.7756
1316.00,3.9136
1315.00,4.0625
1314.00,4.1713
1313.00,4.1860
1312.00,4.1358
1311.00,4.0845
1310.00,4.0577
1309.00,4.0448
1308.00,4.0211
1307.00,3.9586
1306.00,3.8461
1305.00,3.7199
1304.00,3.6100
1303.00,3.5144
1302.00,3.4216
1301.00,3.3277
1300.00,3.2364
1299.00,3.1539
1298.00,3.0842
1297.00,3.0286
1296.00,2.9868
1295.00,2.9586
1294.00,2.9450
1293.00,2.9462
1292.00,2.9606
1291.00,2.9852
1290.00,3.0178
1289.00,3.0576
1288.00,3.1033
1287.00,3.1506
1286.00,3.1938
1285.00,3.2307
1284.00,3.2629
1283.00,3.2944
1282.00,3.3315
1281.00,3.3786
1280.00,3.4312
1279.00,3.4764
1278.00,3.5044
1277.00,3.5199
1276.00,3.5350
1275.00,3.5554
1274.00,3.5788
1273.00,3.6031
1272.00,3.6297
1271.00,3.6588
1270.00,3.6899
1269.00,3.7248
1268.00,3.7593
1267.00,3.7711
1266.00,3.7480
1265.00,3.7155
1264.00,3.7015
1263.00,3.7109
1262.00,3.7282
1261.00,3.7304
1260.00,3.7116
1259.00,3.6881
1258.00,3.6773
1257.00,3.6842
1256.00,3.7002
1255.00,3.7120
1254.00,3.7175
1253.00,3.7238
1252.00,3.7273
1251.00,3.7088
1250.00,3.6645
1249.00,3.6222
1248.00,3.6099
1247.00,3.6320
1246.00,3.6724
1245.00,3.7121
1244.00,3.7443
1243.00,3.7674
1242.00,3.7752
1241.00,3.7688
1240.00,3.7647
1239.00,3.7803
1238.00,3.8196
1237.00,3.8654
1236.00,3.8835
1235.00,3.8565
1234.00,3.8136
1233.00,3.8035
1232.00,3.8570
1231.00,3.9763
1230.00,4.1319
1229.00,4.2924
1228.00,4.4393
1227.00,4.5322
1226.00,4.6813
1225.00,5.0170
1224.00,5.0327
1223.00,4.5871
1222.00,4.2605
1221.00,4.0917
1220.00,4.0431
1219.00,4.0667
1218.00,4.0936
1217.00,4.0850
1216.00,4.0626
1215.00,4.0270
1214.00,3.9722
1213.00,3.9186
1212.00,3.8786
1211.00,3.8544
1210.00,3.8394
1209.00,3.8154
1208.00,3.7777
1207.00,3.7464
1206.00,3.7382
1205.00,3.7498
1204.00,3.7634
1203.00,3.7560
1202.00,3.7200
1201.00,3.6714
1200.00,3.6240
1199.00,3.5845
1198.00,3.5610
1197.00,3.5576
1196.00,3.5716
1195.00,3.5952
1194.00,3.6139
1193.00,3.6131
1192.00,3.5971
1191.00,3.5783
1190.00,3.5570
1189.00,3.5311
1188.00,3.5065
1187.00,3.4896
1186.00,3.4772
1185.00,3.4589
1184.00,3.4310
1183.00,3.4041
1182.00,3.3893
1181.00,3.3839
1180.00,3.3766
1179.00,3.3635
1178.00,3.3506
1177.00,3.3425
1176.00,3.3368
1175.00,3.3271
1174.00,3.3117
1173.00,3.3015
1172.00,3.3094
1171.00,3.3384
1170.00,3.3758
1169.00,3.3985
1168.00,3.3949
1167.00,3.3800
1166.00,3.3765
1165.00,3.3917
1164.00,3.4149
1163.00,3.4283
1162.00,3.4258
1161.00,3.4190
1160.00,3.4195
1159.00,3.4301
1158.00,3.4471
1157.00,3.4618
1156.00,3.4694
1155.00,3.4784
1154.00,3.5043
1153.00,3.5568
1152.00,3.6313
1151.00,3.7085
1150.00,3.7633
1149.00,3.7807
1148.00,3.7690
1147.00,3.7442
1146.00,3.7129
1145.00,3.6823
1144.00,3.6606
1143.00,3.6578
1142.00,3.6916
1141.00,3.7802
1140.00,3.9238
1139.00,4.0754
1138.00,4.1237
1137.00,4.0356
1136.00,3.9309
1135.00,3.8725
1134.00,3.8624
1133.00,3.8912
1132.00,3.9445
1131.00,4.0003
1130.00,4.0544
1129.00,4.1241
1128.00,4.1510
1127.00,4.0857
1126.00,4.0285
1125.00,3.9929
1124.00,3.9423
1123.00,3.8824
1122.00,3.8367
1121.00,3.8202
1120.00,3.8427
1119.00,3.9043
1118.00,4.0524
1117.00,4.4014
1116.00,4.3915
1115.00,4.1189
1114.00,4.0620
1113.00,4.0891
1112.00,4.1420
1111.00,4.2947
1110.00,4.3048
1109.00,4.0155
1108.00,3.8329
1107.00,3.7354
1106.00,3.6945
1105.00,3.7064
1104.00,3.7505
1103.00,3.7896
1102.00,3.8017
1101.00,3.8056
1100.00,3.8165
1099.00,3.8434
1098.00,3.8931
1097.00,3.9628
1096.00,4.0604
1095.00,4.1752
1094.00,4.1902
1093.00,4.0736
1092.00,3.9622
1091.00,3.9177
1090.00,3.9698
1089.00,4.1197
1088.00,4.4349
1087.00,4.9012
1086.00,4.2983
1085.00,4.0117
1084.00,3.9013
1083.00,3.9471
1082.00,4.1568
1081.00,4.0517
1080.00,3.8172
1079.00,3.7447
1078.00,3.7927
1077.00,3.9650
1076.00,4.1790
1075.00,4.0482
1074.00,3.9138
1073.00,3.9177
1072.00,3.9854
1071.00,4.0252
1070.00,3.9655
1069.00,3.8466
1068.00,3.7668
1067.00,3.7460
1066.00,3.7413
1065.00,3.7168
1064.00,3.6681
1063.00,3.6072
1062.00,3.5572
1061.00,3.5392
1060.00,3.5600
1059.00,3.6086
1058.00,3.6620
1057.00,3.7120
1056.00,3.7624
1055.00,3.7891
1054.00,3.7568
1053.00,3.6867
1052.00,3.6330
1051.00,3.6183
1050.00,3.6272
1049.00,3.6334
1048.00,3.6344
1047.00,3.6438
1046.00,3.6523
1045.00,3.6281
1044.00,3.5637
1043.00,3.4879
1042.00,3.4309
1041.00,3.4076
1040.00,3.4188
1039.00,3.4453
1038.00,3.4489
1037.00,3.4110
1036.00,3.3574
1035.00,3.3214
1034.00,3.3179
1033.00,3.3444
1032.00,3.3918
1031.00,3.4527
1030.00,3.5210
1029.00,3.5887
1028.00,3.6470
1027.00,3.6942
1026.00,3.7422
1025.00,3.8017
1024.00,3.8660
1023.00,3.8975
1022.00,3.8735
1021.00,3.8507
1020.00,3.8515
1019.00,3.8371
1018.00,3.8203
1017.00,3.8526
1016.00,3.9562
1015.00,4.0934
1014.00,4.1291
1013.00,4.0163
1012.00,3.8738
1011.00,3.7837
1010.00,3.7604
1009.00,3.7841
1008.00,3.8289
1007.00,3.8775
1006.00,3.9216
1005.00,3.9537
1004.00,3.9657
1003.00,3.9768
1002.00,4.0295
1001.00,4.1517
1000.00,4.3230
999.00,4.4165
998.00,4.3587
997.00,4.2897
996.00,4.3197
995.00,4.4552
994.00,4.5574
993.00,4.5027
992.00,4.3221
991.00,4.1446
990.00,4.0674
989.00,4.0855
988.00,4.1505
987.00,4.1948
986.00,4.1733
985.00,4.0891
984.00,3.9833
983.00,3.9079
982.00,3.8941
981.00,3.9476
980.00,4.0470
979.00,4.1504
978.00,4.2322
977.00,4.3012
976.00,4.3504
975.00,4.3533
974.00,4.3291
973.00,4.2524
972.00,4.0967
971.00,3.9606
970.00,3.8937
969.00,3.8878
968.00,3.9204
967.00,3.9932
966.00,4.0856
965.00,4.0586
964.00,3.9611
963.00,3.9147
962.00,3.9271
961.00,4.0149
960.00,4.1395
959.00,4.1723
958.00,4.1400
957.00,4.0932
956.00,4.0258
955.00,3.9860
954.00,4.0231
953.00,4.2294
952.00,4.5861
951.00,4.5267
950.00,4.2569
949.00,4.0114
948.00,3.8906
947.00,3.8749
946.00,3.9115
945.00,3.9720
944.00,4.0358
943.00,4.1361
942.00,4.2787
941.00,4.4296
940.00,4.4417
939.00,4.2792
938.00,4.1509
937.00,4.0902
936.00,4.0591
935.00,4.0123
934.00,3.9450
933.00,3.9003
932.00,3.8992
931.00,3.9115
930.00,3.9347
929.00,3.9738
928.00,4.0364
927.00,4.1259
926.00,4.4004
925.00,5.0322
924.00,4.4699
923.00,4.2611
922.00,4.2568
921.00,4.3246
920.00,4.4463
919.00,4.3100
918.00,4.1684
917.00,4.1492
916.00,4.2584
915.00,4.4472
914.00,4.3197
913.00,4.1370
912.00,4.1041
911.00,4.1264
910.00,4.1231
909.00,4.0863
908.00,4.0617
907.00,4.0324
906.00,3.9739
905.00,3.9480
904.00,4.0098
903.00,4.1060
902.00,4.1010
901.00,4.0339
900.00,4.0138
899.00,4.0516
898.00,4.1045
897.00,4.1548
896.00,4.3304
895.00,4.5774
894.00,4.4229
893.00,4.6010
892.00,4.5703
891.00,4.0283
890.00,3.8579
889.00,3.8382
888.00,3.8795
887.00,3.9291
886.00,3.9488
885.00,3.9551
884.00,3.9283
883.00,3.9060
882.00,3.9269
881.00,3.9967
880.00,4.0487
879.00,4.0763
878.00,4.2399
877.00,4.6553
876.00,4.8135
875.00,4.4761
874.00,4.1867
873.00,4.0026
872.00,3.9479
871.00,4.0051
870.00,4.1521
869.00,4.3135
868.00,4.3319
867.00,4.1864
866.00,4.0056
865.00,3.8808
864.00,3.8216
863.00,3.8058
862.00,3.8294
861.00,3.9014
860.00,4.0479
859.00,4.1877
858.00,4.1244
857.00,4.0582
856.00,4.0823
855.00,4.1811
854.00,4.2604
853.00,4.0538
852.00,3.8284
851.00,3.7282
850.00,3.7300
849.00,3.7926
848.00,3.8834
847.00,4.0283
846.00,4.2202
845.00,4.3070
844.00,4.2440
843.00,4.1690
842.00,4.1688
841.00,4.2146
840.00,4.2222
839.00,4.2301
838.00,4.2341
837.00,4.1644
836.00,4.0938
835.00,4.0766
834.00,4.0831
833.00,4.0612
832.00,3.9977
831.00,3.9441
830.00,3.9433
829.00,3.9844
828.00,4.0024
827.00,3.9891
826.00,3.9977
825.00,4.0980
824.00,4.1815
823.00,3.9915
822.00,3.8245
821.00,3.7956
820.00,3.8967
819.00,4.1228
818.00,4.3540
817.00,4.4127
816.00,4.1772
815.00,3.9024
814.00,3.7506
813.00,3.6945
812.00,3.6914
811.00,3.7044
810.00,3.7191
809.00,3.7548
808.00,3.8104
807.00,3.8229
806.00,3.7797
805.00,3.7689
804.00,3.8344
803.00,3.9868
802.00,4.2106
801.00,4.3780
800.00,4.4761
799.00,4.4100
798.00,4.2379
797.00,4.3085
796.00,4.3479
795.00,4.1451
794.00,4.1370
793.00,4.3266
792.00,4.6673
791.00,4.6399
790.00,4.1963
789.00,3.9403
788.00,3.8274
787.00,3.8202
786.00,3.8901
785.00,3.9678
784.00,3.9214
783.00,3.8122
782.00,3.7847
781.00,3.8303
780.00,3.8716
779.00,3.9296
778.00,4.0650
777.00,4.2199
776.00,4.2140
775.00,4.0206
774.00,3.8347
773.00,3.7292
772.00,3.6896
771.00,3.7033
770.00,3.7768
769.00,3.9076
768.00,3.9419
767.00,3.9293
766.00,3.9801
765.00,4.2434
764.00,5.1187
763.00,4.6999
762.00,4.7667
761.00,4.6660
760.00,4.3275
759.00,4.3166
758.00,4.2176
757.00,4.0523
756.00,3.9439
755.00,3.9058
754.00,3.9391
753.00,4.0669
752.00,4.2694
751.00,4.4601
750.00,4.3918
749.00,4.2502
748.00,4.1993
747.00,4.4152
746.00,4.9927
745.00,4.8068
744.00,4.4819
743.00,4.1317
742.00,4.0182
741.00,4.0811
740.00,4.0591
739.00,3.9162
738.00,3.8180
737.00,3.8242
736.00,3.8750
735.00,3.8987
734.00,3.8910
733.00,3.9432
732.00,4.1735
731.00,4.2348
730.00,3.9639
729.00,3.9124
728.00,3.9055
727.00,3.7640
726.00,3.6702
725.00,3.6794
724.00,3.7725
723.00,3.9242
722.00,4.1746
721.00,4.2759
720.00,4.4275
719.00,4.3930
718.00,4.0286
717.00,3.8618
716.00,4.0340
715.00,4.7641
714.00,4.0463
713.00,3.8297
712.00,3.8141
711.00,3.7774
710.00,3.8037
709.00,3.8315
708.00,3.8919
707.00,3.9224
706.00,3.9238
705.00,3.9225
704.00,3.9400
703.00,3.9519
702.00,3.9490
701.00,3.9342
700.00,3.9462
