Created as New Dataset,Sample 087 By Administrator Date Wednesday, November 24 2021
cm-1,A
7502.00,0.8492
7501.00,0.8567
7500.00,0.8643
7499.00,0.8719
7498.00,0.8794
7497.00,0.8867
7496.00,0.8941
7495.00,0.9016
7494.00,0.9095
7493.00,0.9178
7492.00,0.9266
7491.00,0.9359
7490.00,0.9455
7489.00,0.9550
7488.00,0.9643
7487.00,0.9733
7486.00,0.9818
7485.00,0.9898
7484.00,0.9974
7483.00,1.0048
7482.00,1.0124
7481.00,1.0207
7480.00,1.0298
7479.00,1.0391
7478.00,1.0478
7477.00,1.0553
7476.00,1.0617
7475.00,1.0673
7474.00,1.0726
7473.00,1.0779
7472.00,1.0834
7471.00,1.0888
7470.00,1.0938
7469.00,1.0982
7468.00,1.1015
7467.00,1.1042
7466.00,1.1068
7465.00,1.1096
7464.00,1.1118
7463.00,1.1126
7462.00,1.1117
7461.00,1.1104
7460.00,1.1098
7459.00,1.1097
7458.00,1.1090
7457.00,1.1072
7456.00,1.1055
7455.00,1.1048
7454.00,1.1048
7453.00,1.1039
7452.00,1.1011
7451.00,1.0968
7450.00,1.0919
7449.00,1.0873
7448.00,1.0832
7447.00,1.0794
7446.00,1.0758
7445.00,1.0721
7444.00,1.0679
7443.00,1.0631
7442.00,1.0578
7441.00,1.0522
7440.00,1.0464
7439.00,1.0401
7438.00,1.0336
7437.00,1.0273
7436.00,1.0215
7435.00,1.0159
7434.00,1.0100
7433.00,1.0037
7432.00,0.9974
7431.00,0.9917
7430.00,0.9867
7429.00,0.9827
7428.00,0.9798
7427.00,0.9781
7426.00,0.9767
7425.00,0.9746
7424.00,0.9715
7423.00,0.9676
7422.00,0.9631
7421.00,0.9577
7420.00,0.9510
7419.00,0.9430
7418.00,0.9348
7417.00,0.9268
7416.00,0.9191
7415.00,0.9113
7414.00,0.9036
7413.00,0.8962
7412.00,0.8894
7411.00,0.8829
7410.00,0.8759
7409.00,0.8685
7408.00,0.8610
7407.00,0.8538
7406.00,0.8468
7405.00,0.8399
7404.00,0.8328
7403.00,0.8260
7402.00,0.8197
7401.00,0.8137
7400.00,0.8078
7399.00,0.8018
7398.00,0.7959
7397.00,0.7903
7396.00,0.7854
7395.00,0.7813
7394.00,0.7779
7393.00,0.7748
7392.00,0.7720
7391.00,0.7696
7390.00,0.7679
7389.00,0.7668
7388.00,0.7663
7387.00,0.7663
7386.00,0.7668
7385.00,0.7681
7384.00,0.7699
7383.00,0.7721
7382.00,0.7746
7381.00,0.7775
7380.00,0.7811
7379.00,0.7853
7378.00,0.7900
7377.00,0.7949
7376.00,0.8003
7375.00,0.8062
7374.00,0.8127
7373.00,0.8195
7372.00,0.8265
7371.00,0.8335
7370.00,0.8407
7369.00,0.8484
7368.00,0.8569
7367.00,0.8659
7366.00,0.8750
7365.00,0.8842
7364.00,0.8938
7363.00,0.9037
7362.00,0.9133
7361.00,0.9223
7360.00,0.9308
7359.00,0.9391
7358.00,0.9476
7357.00,0.9567
7356.00,0.9666
7355.00,0.9771
7354.00,0.9879
7353.00,0.9986
7352.00,1.0090
7351.00,1.0191
7350.00,1.0287
7349.00,1.0375
7348.00,1.0455
7347.00,1.0534
7346.00,1.0616
7345.00,1.0698
7344.00,1.0777
7343.00,1.0853
7342.00,1.0926
7341.00,1.0997
7340.00,1.1068
7339.00,1.1137
7338.00,1.1205
7337.00,1.1273
7336.00,1.1340
7335.00,1.1406
7334.00,1.1465
7333.00,1.1514
7332.00,1.1556
7331.00,1.1599
7330.00,1.1644
7329.00,1.1686
7328.00,1.1720
7327.00,1.1747
7326.00,1.1773
7325.00,1.1799
7324.00,1.1821
7323.00,1.1836
7322.00,1.1843
7321.00,1.1845
7320.00,1.1848
7319.00,1.1853
7318.00,1.1859
7317.00,1.1863
7316.00,1.1861
7315.00,1.1856
7314.00,1.1846
7313.00,1.1829
7312.00,1.1805
7311.00,1.1774
7310.00,1.1737
7309.00,1.1695
7308.00,1.1648
7307.00,1.1599
7306.00,1.1553
7305.00,1.1506
7304.00,1.1455
7303.00,1.1398
7302.00,1.1337
7301.00,1.1272
7300.00,1.1203
7299.00,1.1130
7298.00,1.1055
7297.00,1.0982
7296.00,1.0908
7295.00,1.0827
7294.00,1.0738
7293.00,1.0642
7292.00,1.0546
7291.00,1.0452
7290.00,1.0360
7289.00,1.0266
7288.00,1.0167
7287.00,1.0068
7286.00,0.9972
7285.00,0.9880
7284.00,0.9789
7283.00,0.9695
7282.00,0.9598
7281.00,0.9500
7280.00,0.9401
7279.00,0.9303
7278.00,0.9206
7277.00,0.9110
7276.00,0.9012
7275.00,0.8913
7274.00,0.8814
7273.00,0.8721
7272.00,0.8632
7271.00,0.8547
7270.00,0.8464
7269.00,0.8384
7268.00,0.8309
7267.00,0.8242
7266.00,0.8181
7265.00,0.8125
7264.00,0.8070
7263.00,0.8018
7262.00,0.7971
7261.00,0.7930
7260.00,0.7897
7259.00,0.7871
7258.00,0.7850
7257.00,0.7832
7256.00,0.7817
7255.00,0.7807
7254.00,0.7802
7253.00,0.7803
7252.00,0.7811
7251.00,0.7827
7250.00,0.7851
7249.00,0.7884
7248.00,0.7922
7247.00,0.7964
7246.00,0.8009
7245.00,0.8057
7244.00,0.8109
7243.00,0.8164
7242.00,0.8224
7241.00,0.8292
7240.00,0.8366
7239.00,0.8445
7238.00,0.8526
7237.00,0.8605
7236.00,0.8684
7235.00,0.8763
7234.00,0.8842
7233.00,0.8924
7232.00,0.9009
7231.00,0.9097
7230.00,0.9187
7229.00,0.9280
7228.00,0.9376
7227.00,0.9476
7226.00,0.9578
7225.00,0.9678
7224.00,0.9770
7223.00,0.9857
7222.00,0.9944
7221.00,1.0033
7220.00,1.0123
7219.00,1.0210
7218.00,1.0293
7217.00,1.0373
7216.00,1.0454
7215.00,1.0538
7214.00,1.0619
7213.00,1.0694
7212.00,1.0761
7211.00,1.0822
7210.00,1.0883
7209.00,1.0948
7208.00,1.1012
7207.00,1.1070
7206.00,1.1121
7205.00,1.1170
7204.00,1.1225
7203.00,1.1284
7202.00,1.1342
7201.00,1.1391
7200.00,1.1429
7199.00,1.1461
7198.00,1.1491
7197.00,1.1521
7196.00,1.1549
7195.00,1.1572
7194.00,1.1591
7193.00,1.1610
7192.00,1.1627
7191.00,1.1639
7190.00,1.1642
7189.00,1.1638
7188.00,1.1634
7187.00,1.1630
7186.00,1.1627
7185.00,1.1622
7184.00,1.1612
7183.00,1.1598
7182.00,1.1579
7181.00,1.1555
7180.00,1.1529
7179.00,1.1504
7178.00,1.1480
7177.00,1.1456
7176.00,1.1426
7175.00,1.1389
7174.00,1.1344
7173.00,1.1291
7172.00,1.1229
7171.00,1.1160
7170.00,1.1087
7169.00,1.1017
7168.00,1.0951
7167.00,1.0884
7166.00,1.0811
7165.00,1.0733
7164.00,1.0654
7163.00,1.0577
7162.00,1.0501
7161.00,1.0424
7160.00,1.0343
7159.00,1.0260
7158.00,1.0178
7157.00,1.0093
7156.00,1.0002
7155.00,0.9904
7154.00,0.9803
7153.00,0.9704
7152.00,0.9609
7151.00,0.9516
7150.00,0.9425
7149.00,0.9333
7148.00,0.9240
7147.00,0.9144
7146.00,0.9045
7145.00,0.8947
7144.00,0.8851
7143.00,0.8759
7142.00,0.8672
7141.00,0.8589
7140.00,0.8511
7139.00,0.8435
7138.00,0.8359
7137.00,0.8282
7136.00,0.8210
7135.00,0.8144
7134.00,0.8085
7133.00,0.8031
7132.00,0.7981
7131.00,0.7935
7130.00,0.7892
7129.00,0.7853
7128.00,0.7818
7127.00,0.7788
7126.00,0.7765
7125.00,0.7750
7124.00,0.7742
7123.00,0.7741
7122.00,0.7746
7121.00,0.7756
7120.00,0.7771
7119.00,0.7791
7118.00,0.7819
7117.00,0.7853
7116.00,0.7892
7115.00,0.7935
7114.00,0.7984
7113.00,0.8037
7112.00,0.8095
7111.00,0.8156
7110.00,0.8222
7109.00,0.8294
7108.00,0.8374
7107.00,0.8459
7106.00,0.8545
7105.00,0.8634
7104.00,0.8725
7103.00,0.8821
7102.00,0.8919
7101.00,0.9014
7100.00,0.9104
7099.00,0.9192
7098.00,0.9281
7097.00,0.9373
7096.00,0.9467
7095.00,0.9563
7094.00,0.9662
7093.00,0.9764
7092.00,0.9868
7091.00,0.9969
7090.00,1.0068
7089.00,1.0165
7088.00,1.0260
7087.00,1.0355
7086.00,1.0452
7085.00,1.0550
7084.00,1.0645
7083.00,1.0734
7082.00,1.0818
7081.00,1.0899
7080.00,1.0979
7079.00,1.1056
7078.00,1.1130
7077.00,1.1201
7076.00,1.1269
7075.00,1.1336
7074.00,1.1401
7073.00,1.1465
7072.00,1.1529
7071.00,1.1594
7070.00,1.1657
7069.00,1.1713
7068.00,1.1763
7067.00,1.1808
7066.00,1.1847
7065.00,1.1879
7064.00,1.1905
7063.00,1.1931
7062.00,1.1959
7061.00,1.1985
7060.00,1.2004
7059.00,1.2010
7058.00,1.2007
7057.00,1.2001
7056.00,1.1998
7055.00,1.1998
7054.00,1.2000
7053.00,1.2001
7052.00,1.2004
7051.00,1.2011
7050.00,1.2016
7049.00,1.2011
7048.00,1.1989
7047.00,1.1953
7046.00,1.1908
7045.00,1.1861
7044.00,1.1811
7043.00,1.1757
7042.00,1.1698
7041.00,1.1636
7040.00,1.1576
7039.00,1.1518
7038.00,1.1459
7037.00,1.1393
7036.00,1.1317
7035.00,1.1238
7034.00,1.1163
7033.00,1.1091
7032.00,1.1015
7031.00,1.0932
7030.00,1.0841
7029.00,1.0746
7028.00,1.0649
7027.00,1.0550
7026.00,1.0448
7025.00,1.0344
7024.00,1.0239
7023.00,1.0134
7022.00,1.0033
7021.00,0.9934
7020.00,0.9833
7019.00,0.9730
7018.00,0.9625
7017.00,0.9521
7016.00,0.9417
7015.00,0.9313
7014.00,0.9211
7013.00,0.9109
7012.00,0.9007
7011.00,0.8906
7010.00,0.8807
7009.00,0.8712
7008.00,0.8620
7007.00,0.8533
7006.00,0.8448
7005.00,0.8368
7004.00,0.8293
7003.00,0.8223
7002.00,0.8159
7001.00,0.8098
7000.00,0.8041
6999.00,0.7987
6998.00,0.7938
6997.00,0.7897
6996.00,0.7863
6995.00,0.7836
6994.00,0.7815
6993.00,0.7800
6992.00,0.7789
6991.00,0.7785
6990.00,0.7787
6989.00,0.7797
6988.00,0.7813
6987.00,0.7834
6986.00,0.7862
6985.00,0.7897
6984.00,0.7935
6983.00,0.7978
6982.00,0.8025
6981.00,0.8079
6980.00,0.8138
6979.00,0.8202
6978.00,0.8270
6977.00,0.8345
6976.00,0.8423
6975.00,0.8502
6974.00,0.8582
6973.00,0.8666
6972.00,0.8756
6971.00,0.8852
6970.00,0.8952
6969.00,0.9053
6968.00,0.9154
6967.00,0.9252
6966.00,0.9350
6965.00,0.9447
6964.00,0.9543
6963.00,0.9641
6962.00,0.9741
6961.00,0.9845
6960.00,0.9948
6959.00,1.0045
6958.00,1.0137
6957.00,1.0227
6956.00,1.0316
6955.00,1.0405
6954.00,1.0495
6953.00,1.0588
6952.00,1.0682
6951.00,1.0774
6950.00,1.0861
6949.00,1.0943
6948.00,1.1021
6947.00,1.1096
6946.00,1.1169
6945.00,1.1242
6944.00,1.1315
6943.00,1.1383
6942.00,1.1446
6941.00,1.1503
6940.00,1.1557
6939.00,1.1608
6938.00,1.1658
6937.00,1.1707
6936.00,1.1754
6935.00,1.1796
6934.00,1.1832
6933.00,1.1862
6932.00,1.1888
6931.00,1.1909
6930.00,1.1928
6929.00,1.1948
6928.00,1.1965
6927.00,1.1976
6926.00,1.1979
6925.00,1.1977
6924.00,1.1970
6923.00,1.1958
6922.00,1.1942
6921.00,1.1926
6920.00,1.1910
6919.00,1.1894
6918.00,1.1877
6917.00,1.1856
6916.00,1.1828
6915.00,1.1793
6914.00,1.1755
6913.00,1.1716
6912.00,1.1675
6911.00,1.1627
6910.00,1.1571
6909.00,1.1508
6908.00,1.1443
6907.00,1.1375
6906.00,1.1303
6905.00,1.1227
6904.00,1.1153
6903.00,1.1083
6902.00,1.1014
6901.00,1.0942
6900.00,1.0864
6899.00,1.0780
6898.00,1.0691
6897.00,1.0598
6896.00,1.0501
6895.00,1.0402
6894.00,1.0304
6893.00,1.0205
6892.00,1.0104
6891.00,1.0001
6890.00,0.9899
6889.00,0.9795
6888.00,0.9689
6887.00,0.9580
6886.00,0.9473
6885.00,0.9370
6884.00,0.9269
6883.00,0.9167
6882.00,0.9065
6881.00,0.8966
6880.00,0.8872
6879.00,0.8781
6878.00,0.8690
6877.00,0.8599
6876.00,0.8511
6875.00,0.8425
6874.00,0.8341
6873.00,0.8262
6872.00,0.8188
6871.00,0.8117
6870.00,0.8052
6869.00,0.7992
6868.00,0.7940
6867.00,0.7894
6866.00,0.7851
6865.00,0.7811
6864.00,0.7777
6863.00,0.7751
6862.00,0.7732
6861.00,0.7719
6860.00,0.7712
6859.00,0.7709
6858.00,0.7713
6857.00,0.7723
6856.00,0.7740
6855.00,0.7764
6854.00,0.7794
6853.00,0.7831
6852.00,0.7874
6851.00,0.7925
6850.00,0.7980
6849.00,0.8038
6848.00,0.8100
6847.00,0.8167
6846.00,0.8239
6845.00,0.8317
6844.00,0.8400
6843.00,0.8487
6842.00,0.8577
6841.00,0.8671
6840.00,0.8766
6839.00,0.8862
6838.00,0.8959
6837.00,0.9058
6836.00,0.9158
6835.00,0.9260
6834.00,0.9364
6833.00,0.9469
6832.00,0.9573
6831.00,0.9677
6830.00,0.9782
6829.00,0.9888
6828.00,0.9993
6827.00,1.0097
6826.00,1.0200
6825.00,1.0302
6824.00,1.0404
6823.00,1.0504
6822.00,1.0600
6821.00,1.0694
6820.00,1.0786
6819.00,1.0877
6818.00,1.0965
6817.00,1.1050
6816.00,1.1132
6815.00,1.1213
6814.00,1.1295
6813.00,1.1376
6812.00,1.1454
6811.00,1.1529
6810.00,1.1601
6809.00,1.1669
6808.00,1.1731
6807.00,1.1785
6806.00,1.1835
6805.00,1.1883
6804.00,1.1930
6803.00,1.1975
6802.00,1.2015
6801.00,1.2048
6800.00,1.2075
6799.00,1.2097
6798.00,1.2118
6797.00,1.2136
6796.00,1.2152
6795.00,1.2167
6794.00,1.2179
6793.00,1.2190
6792.00,1.2195
6791.00,1.2196
6790.00,1.2192
6789.00,1.2183
6788.00,1.2168
6787.00,1.2148
6786.00,1.2122
6785.00,1.2092
6784.00,1.2057
6783.00,1.2019
6782.00,1.1980
6781.00,1.1940
6780.00,1.1898
6779.00,1.1850
6778.00,1.1800
6777.00,1.1747
6776.00,1.1690
6775.00,1.1625
6774.00,1.1554
6773.00,1.1479
6772.00,1.1402
6771.00,1.1322
6770.00,1.1237
6769.00,1.1149
6768.00,1.1058
6767.00,1.0966
6766.00,1.0873
6765.00,1.0779
6764.00,1.0684
6763.00,1.0585
6762.00,1.0482
6761.00,1.0376
6760.00,1.0271
6759.00,1.0167
6758.00,1.0061
6757.00,0.9952
6756.00,0.9842
6755.00,0.9733
6754.00,0.9625
6753.00,0.9515
6752.00,0.9403
6751.00,0.9289
6750.00,0.9177
6749.00,0.9068
6748.00,0.8963
6747.00,0.8861
6746.00,0.8764
6745.00,0.8671
6744.00,0.8580
6743.00,0.8492
6742.00,0.8406
6741.00,0.8323
6740.00,0.8243
6739.00,0.8166
6738.00,0.8094
6737.00,0.8028
6736.00,0.7969
6735.00,0.7916
6734.00,0.7871
6733.00,0.7832
6732.00,0.7801
6731.00,0.7774
6730.00,0.7753
6729.00,0.7738
6728.00,0.7728
6727.00,0.7723
6726.00,0.7724
6725.00,0.7732
6724.00,0.7749
6723.00,0.7777
6722.00,0.7812
6721.00,0.7854
6720.00,0.7900
6719.00,0.7951
6718.00,0.8008
6717.00,0.8070
6716.00,0.8137
6715.00,0.8207
6714.00,0.8282
6713.00,0.8362
6712.00,0.8447
6711.00,0.8535
6710.00,0.8624
6709.00,0.8716
6708.00,0.8811
6707.00,0.8910
6706.00,0.9012
6705.00,0.9115
6704.00,0.9217
6703.00,0.9320
6702.00,0.9424
6701.00,0.9530
6700.00,0.9638
6699.00,0.9745
6698.00,0.9850
6697.00,0.9954
6696.00,1.0059
6695.00,1.0163
6694.00,1.0263
6693.00,1.0360
6692.00,1.0456
6691.00,1.0555
6690.00,1.0656
6689.00,1.0756
6688.00,1.0850
6687.00,1.0937
6686.00,1.1022
6685.00,1.1103
6684.00,1.1178
6683.00,1.1247
6682.00,1.1315
6681.00,1.1386
6680.00,1.1459
6679.00,1.1531
6678.00,1.1599
6677.00,1.1661
6676.00,1.1717
6675.00,1.1768
6674.00,1.1814
6673.00,1.1858
6672.00,1.1897
6671.00,1.1932
6670.00,1.1966
6669.00,1.1999
6668.00,1.2028
6667.00,1.2052
6666.00,1.2070
6665.00,1.2085
6664.00,1.2095
6663.00,1.2100
6662.00,1.2102
6661.00,1.2101
6660.00,1.2095
6659.00,1.2083
6658.00,1.2067
6657.00,1.2050
6656.00,1.2033
6655.00,1.2014
6654.00,1.1990
6653.00,1.1959
6652.00,1.1923
6651.00,1.1884
6650.00,1.1842
6649.00,1.1794
6648.00,1.1739
6647.00,1.1682
6646.00,1.1627
6645.00,1.1573
6644.00,1.1515
6643.00,1.1451
6642.00,1.1381
6641.00,1.1308
6640.00,1.1233
6639.00,1.1155
6638.00,1.1072
6637.00,1.0986
6636.00,1.0898
6635.00,1.0810
6634.00,1.0720
6633.00,1.0629
6632.00,1.0534
6631.00,1.0436
6630.00,1.0335
6629.00,1.0232
6628.00,1.0127
6627.00,1.0020
6626.00,0.9914
6625.00,0.9809
6624.00,0.9703
6623.00,0.9596
6622.00,0.9488
6621.00,0.9381
6620.00,0.9272
6619.00,0.9160
6618.00,0.9050
6617.00,0.8944
6616.00,0.8842
6615.00,0.8743
6614.00,0.8648
6613.00,0.8555
6612.00,0.8466
6611.00,0.8378
6610.00,0.8293
6609.00,0.8209
6608.00,0.8128
6607.00,0.8053
6606.00,0.7985
6605.00,0.7925
6604.00,0.7871
6603.00,0.7822
6602.00,0.7779
6601.00,0.7743
6600.00,0.7711
6599.00,0.7684
6598.00,0.7662
6597.00,0.7648
6596.00,0.7643
6595.00,0.7645
6594.00,0.7654
6593.00,0.7671
6592.00,0.7695
6591.00,0.7725
6590.00,0.7762
6589.00,0.7805
6588.00,0.7854
6587.00,0.7908
6586.00,0.7967
6585.00,0.8031
6584.00,0.8101
6583.00,0.8179
6582.00,0.8263
6581.00,0.8353
6580.00,0.8446
6579.00,0.8540
6578.00,0.8635
6577.00,0.8731
6576.00,0.8828
6575.00,0.8926
6574.00,0.9028
6573.00,0.9134
6572.00,0.9245
6571.00,0.9357
6570.00,0.9469
6569.00,0.9579
6568.00,0.9690
6567.00,0.9800
6566.00,0.9910
6565.00,1.0019
6564.00,1.0128
6563.00,1.0234
6562.00,1.0340
6561.00,1.0448
6560.00,1.0557
6559.00,1.0666
6558.00,1.0773
6557.00,1.0879
6556.00,1.0983
6555.00,1.1082
6554.00,1.1175
6553.00,1.1261
6552.00,1.1345
6551.00,1.1429
6550.00,1.1512
6549.00,1.1590
6548.00,1.1662
6547.00,1.1728
6546.00,1.1791
6545.00,1.1850
6544.00,1.1908
6543.00,1.1965
6542.00,1.2024
6541.00,1.2084
6540.00,1.2142
6539.00,1.2196
6538.00,1.2245
6537.00,1.2285
6536.00,1.2314
6535.00,1.2335
6534.00,1.2352
6533.00,1.2365
6532.00,1.2374
6531.00,1.2379
6530.00,1.2383
6529.00,1.2391
6528.00,1.2399
6527.00,1.2404
6526.00,1.2403
6525.00,1.2395
6524.00,1.2380
6523.00,1.2358
6522.00,1.2330
6521.00,1.2297
6520.00,1.2261
6519.00,1.2222
6518.00,1.2183
6517.00,1.2143
6516.00,1.2100
6515.00,1.2050
6514.00,1.1993
6513.00,1.1928
6512.00,1.1857
6511.00,1.1781
6510.00,1.1704
6509.00,1.1628
6508.00,1.1552
6507.00,1.1472
6506.00,1.1388
6505.00,1.1301
6504.00,1.1211
6503.00,1.1116
6502.00,1.1013
6501.00,1.0905
6500.00,1.0795
6499.00,1.0687
6498.00,1.0579
6497.00,1.0470
6496.00,1.0359
6495.00,1.0247
6494.00,1.0133
6493.00,1.0016
6492.00,0.9896
6491.00,0.9773
6490.00,0.9651
6489.00,0.9531
6488.00,0.9414
6487.00,0.9301
6486.00,0.9190
6485.00,0.9082
6484.00,0.8973
6483.00,0.8864
6482.00,0.8755
6481.00,0.8651
6480.00,0.8550
6479.00,0.8454
6478.00,0.8363
6477.00,0.8277
6476.00,0.8195
6475.00,0.8118
6474.00,0.8047
6473.00,0.7982
6472.00,0.7921
6471.00,0.7866
6470.00,0.7818
6469.00,0.7778
6468.00,0.7745
6467.00,0.7717
6466.00,0.7697
6465.00,0.7685
6464.00,0.7681
6463.00,0.7683
6462.00,0.7692
6461.00,0.7708
6460.00,0.7733
6459.00,0.7765
6458.00,0.7804
6457.00,0.7850
6456.00,0.7902
6455.00,0.7962
6454.00,0.8027
6453.00,0.8097
6452.00,0.8170
6451.00,0.8246
6450.00,0.8327
6449.00,0.8413
6448.00,0.8503
6447.00,0.8597
6446.00,0.8696
6445.00,0.8799
6444.00,0.8905
6443.00,0.9012
6442.00,0.9120
6441.00,0.9229
6440.00,0.9337
6439.00,0.9445
6438.00,0.9554
6437.00,0.9667
6436.00,0.9780
6435.00,0.9892
6434.00,1.0003
6433.00,1.0113
6432.00,1.0221
6431.00,1.0325
6430.00,1.0426
6429.00,1.0528
6428.00,1.0631
6427.00,1.0735
6426.00,1.0838
6425.00,1.0939
6424.00,1.1038
6423.00,1.1134
6422.00,1.1225
6421.00,1.1312
6420.00,1.1396
6419.00,1.1478
6418.00,1.1556
6417.00,1.1629
6416.00,1.1698
6415.00,1.1763
6414.00,1.1824
6413.00,1.1879
6412.00,1.1930
6411.00,1.1979
6410.00,1.2028
6409.00,1.2076
6408.00,1.2122
6407.00,1.2163
6406.00,1.2199
6405.00,1.2228
6404.00,1.2249
6403.00,1.2264
6402.00,1.2277
6401.00,1.2291
6400.00,1.2305
6399.00,1.2317
6398.00,1.2326
6397.00,1.2328
6396.00,1.2322
6395.00,1.2308
6394.00,1.2289
6393.00,1.2268
6392.00,1.2247
6391.00,1.2224
6390.00,1.2198
6389.00,1.2169
6388.00,1.2134
6387.00,1.2093
6386.00,1.2049
6385.00,1.2003
6384.00,1.1953
6383.00,1.1898
6382.00,1.1839
6381.00,1.1776
6380.00,1.1710
6379.00,1.1639
6378.00,1.1562
6377.00,1.1480
6376.00,1.1397
6375.00,1.1312
6374.00,1.1224
6373.00,1.1134
6372.00,1.1044
6371.00,1.0954
6370.00,1.0861
6369.00,1.0765
6368.00,1.0663
6367.00,1.0559
6366.00,1.0453
6365.00,1.0347
6364.00,1.0239
6363.00,1.0129
6362.00,1.0018
6361.00,0.9904
6360.00,0.9788
6359.00,0.9670
6358.00,0.9553
6357.00,0.9438
6356.00,0.9325
6355.00,0.9213
6354.00,0.9100
6353.00,0.8988
6352.00,0.8875
6351.00,0.8762
6350.00,0.8653
6349.00,0.8550
6348.00,0.8453
6347.00,0.8361
6346.00,0.8271
6345.00,0.8186
6344.00,0.8106
6343.00,0.8030
6342.00,0.7959
6341.00,0.7895
6340.00,0.7838
6339.00,0.7788
6338.00,0.7745
6337.00,0.7708
6336.00,0.7676
6335.00,0.7652
6334.00,0.7634
6333.00,0.7625
6332.00,0.7623
6331.00,0.7628
6330.00,0.7641
6329.00,0.7661
6328.00,0.7689
6327.00,0.7723
6326.00,0.7765
6325.00,0.7815
6324.00,0.7872
6323.00,0.7937
6322.00,0.8007
6321.00,0.8084
6320.00,0.8164
6319.00,0.8250
6318.00,0.8341
6317.00,0.8436
6316.00,0.8534
6315.00,0.8633
6314.00,0.8734
6313.00,0.8839
6312.00,0.8946
6311.00,0.9055
6310.00,0.9167
6309.00,0.9283
6308.00,0.9402
6307.00,0.9521
6306.00,0.9638
6305.00,0.9753
6304.00,0.9868
6303.00,0.9984
6302.00,1.0099
6301.00,1.0216
6300.00,1.0331
6299.00,1.0445
6298.00,1.0557
6297.00,1.0667
6296.00,1.0777
6295.00,1.0886
6294.00,1.0992
6293.00,1.1097
6292.00,1.1197
6291.00,1.1293
6290.00,1.1388
6289.00,1.1482
6288.00,1.1576
6287.00,1.1668
6286.00,1.1754
6285.00,1.1836
6284.00,1.1914
6283.00,1.1984
6282.00,1.2048
6281.00,1.2111
6280.00,1.2175
6279.00,1.2239
6278.00,1.2298
6277.00,1.2349
6276.00,1.2394
6275.00,1.2434
6274.00,1.2472
6273.00,1.2507
6272.00,1.2539
6271.00,1.2569
6270.00,1.2596
6269.00,1.2618
6268.00,1.2635
6267.00,1.2644
6266.00,1.2647
6265.00,1.2646
6264.00,1.2641
6263.00,1.2634
6262.00,1.2623
6261.00,1.2609
6260.00,1.2591
6259.00,1.2570
6258.00,1.2545
6257.00,1.2515
6256.00,1.2479
6255.00,1.2439
6254.00,1.2393
6253.00,1.2342
6252.00,1.2286
6251.00,1.2226
6250.00,1.2166
6249.00,1.2101
6248.00,1.2031
6247.00,1.1954
6246.00,1.1875
6245.00,1.1795
6244.00,1.1712
6243.00,1.1626
6242.00,1.1536
6241.00,1.1443
6240.00,1.1345
6239.00,1.1241
6238.00,1.1131
6237.00,1.1015
6236.00,1.0897
6235.00,1.0778
6234.00,1.0661
6233.00,1.0545
6232.00,1.0428
6231.00,1.0309
6230.00,1.0186
6229.00,1.0060
6228.00,0.9932
6227.00,0.9803
6226.00,0.9674
6225.00,0.9546
6224.00,0.9422
6223.00,0.9301
6222.00,0.9182
6221.00,0.9065
6220.00,0.8949
6219.00,0.8833
6218.00,0.8720
6217.00,0.8610
6216.00,0.8503
6215.00,0.8399
6214.00,0.8300
6213.00,0.8207
6212.00,0.8122
6211.00,0.8045
6210.00,0.7974
6209.00,0.7910
6208.00,0.7850
6207.00,0.7797
6206.00,0.7750
6205.00,0.7711
6204.00,0.7678
6203.00,0.7654
6202.00,0.7638
6201.00,0.7630
6200.00,0.7628
6199.00,0.7633
6198.00,0.7646
6197.00,0.7667
6196.00,0.7697
6195.00,0.7735
6194.00,0.7782
6193.00,0.7836
6192.00,0.7898
6191.00,0.7965
6190.00,0.8037
6189.00,0.8114
6188.00,0.8197
6187.00,0.8285
6186.00,0.8377
6185.00,0.8474
6184.00,0.8574
6183.00,0.8677
6182.00,0.8783
6181.00,0.8891
6180.00,0.9001
6179.00,0.9113
6178.00,0.9228
6177.00,0.9346
6176.00,0.9466
6175.00,0.9585
6174.00,0.9703
6173.00,0.9820
6172.00,0.9935
6171.00,1.0047
6170.00,1.0159
6169.00,1.0272
6168.00,1.0387
6167.00,1.0501
6166.00,1.0613
6165.00,1.0723
6164.00,1.0831
6163.00,1.0937
6162.00,1.1040
6161.00,1.1140
6160.00,1.1236
6159.00,1.1331
6158.00,1.1425
6157.00,1.1516
6156.00,1.1602
6155.00,1.1682
6154.00,1.1755
6153.00,1.1825
6152.00,1.1892
6151.00,1.1954
6150.00,1.2013
6149.00,1.2071
6148.00,1.2130
6147.00,1.2185
6146.00,1.2234
6145.00,1.2277
6144.00,1.2317
6143.00,1.2357
6142.00,1.2395
6141.00,1.2430
6140.00,1.2460
6139.00,1.2486
6138.00,1.2510
6137.00,1.2532
6136.00,1.2547
6135.00,1.2554
6134.00,1.2555
6133.00,1.2553
6132.00,1.2547
6131.00,1.2537
6130.00,1.2523
6129.00,1.2508
6128.00,1.2492
6127.00,1.2470
6126.00,1.2442
6125.00,1.2409
6124.00,1.2374
6123.00,1.2340
6122.00,1.2302
6121.00,1.2258
6120.00,1.2209
6119.00,1.2155
6118.00,1.2098
6117.00,1.2037
6116.00,1.1972
6115.00,1.1903
6114.00,1.1830
6113.00,1.1753
6112.00,1.1670
6111.00,1.1583
6110.00,1.1493
6109.00,1.1400
6108.00,1.1302
6107.00,1.1201
6106.00,1.1096
6105.00,1.0988
6104.00,1.0877
6103.00,1.0763
6102.00,1.0644
6101.00,1.0522
6100.00,1.0397
6099.00,1.0271
6098.00,1.0146
6097.00,1.0021
6096.00,0.9895
6095.00,0.9768
6094.00,0.9642
6093.00,0.9516
6092.00,0.9391
6091.00,0.9266
6090.00,0.9142
6089.00,0.9022
6088.00,0.8905
6087.00,0.8790
6086.00,0.8677
6085.00,0.8568
6084.00,0.8463
6083.00,0.8363
6082.00,0.8267
6081.00,0.8177
6080.00,0.8090
6079.00,0.8009
6078.00,0.7935
6077.00,0.7868
6076.00,0.7806
6075.00,0.7753
6074.00,0.7708
6073.00,0.7673
6072.00,0.7646
6071.00,0.7625
6070.00,0.7612
6069.00,0.7606
6068.00,0.7608
6067.00,0.7618
6066.00,0.7637
6065.00,0.7665
6064.00,0.7701
6063.00,0.7745
6062.00,0.7796
6061.00,0.7855
6060.00,0.7920
6059.00,0.7990
6058.00,0.8068
6057.00,0.8152
6056.00,0.8242
6055.00,0.8337
6054.00,0.8438
6053.00,0.8544
6052.00,0.8655
6051.00,0.8767
6050.00,0.8879
6049.00,0.8992
6048.00,0.9107
6047.00,0.9224
6046.00,0.9346
6045.00,0.9472
6044.00,0.9599
6043.00,0.9726
6042.00,0.9852
6041.00,0.9976
6040.00,1.0099
6039.00,1.0220
6038.00,1.0343
6037.00,1.0467
6036.00,1.0592
6035.00,1.0713
6034.00,1.0831
6033.00,1.0944
6032.00,1.1053
6031.00,1.1159
6030.00,1.1262
6029.00,1.1364
6028.00,1.1465
6027.00,1.1565
6026.00,1.1663
6025.00,1.1762
6024.00,1.1861
6023.00,1.1959
6022.00,1.2054
6021.00,1.2141
6020.00,1.2220
6019.00,1.2293
6018.00,1.2361
6017.00,1.2424
6016.00,1.2481
6015.00,1.2534
6014.00,1.2583
6013.00,1.2630
6012.00,1.2672
6011.00,1.2711
6010.00,1.2747
6009.00,1.2782
6008.00,1.2812
6007.00,1.2836
6006.00,1.2856
6005.00,1.2871
6004.00,1.2879
6003.00,1.2880
6002.00,1.2879
6001.00,1.2876
6000.00,1.2869
5999.00,1.2857
5998.00,1.2840
5997.00,1.2821
5996.00,1.2798
5995.00,1.2769
5994.00,1.2735
5993.00,1.2697
5992.00,1.2655
5991.00,1.2606
5990.00,1.2554
5989.00,1.2498
5988.00,1.2441
5987.00,1.2379
5986.00,1.2314
5985.00,1.2245
5984.00,1.2171
5983.00,1.2092
5982.00,1.2006
5981.00,1.1918
5980.00,1.1827
5979.00,1.1735
5978.00,1.1639
5977.00,1.1540
5976.00,1.1438
5975.00,1.1331
5974.00,1.1221
5973.00,1.1106
5972.00,1.0988
5971.00,1.0866
5970.00,1.0741
5969.00,1.0615
5968.00,1.0488
5967.00,1.0360
5966.00,1.0231
5965.00,1.0101
5964.00,0.9971
5963.00,0.9840
5962.00,0.9707
5961.00,0.9573
5960.00,0.9440
5959.00,0.9310
5958.00,0.9182
5957.00,0.9057
5956.00,0.8934
5955.00,0.8813
5954.00,0.8697
5953.00,0.8585
5952.00,0.8476
5951.00,0.8371
5950.00,0.8272
5949.00,0.8180
5948.00,0.8094
5947.00,0.8015
5946.00,0.7941
5945.00,0.7876
5944.00,0.7817
5943.00,0.7765
5942.00,0.7721
5941.00,0.7685
5940.00,0.7658
5939.00,0.7640
5938.00,0.7630
5937.00,0.7631
5936.00,0.7640
5935.00,0.7657
5934.00,0.7684
5933.00,0.7719
5932.00,0.7762
5931.00,0.7812
5930.00,0.7870
5929.00,0.7935
5928.00,0.8007
5927.00,0.8086
5926.00,0.8171
5925.00,0.8264
5924.00,0.8363
5923.00,0.8466
5922.00,0.8573
5921.00,0.8683
5920.00,0.8795
5919.00,0.8911
5918.00,0.9029
5917.00,0.9151
5916.00,0.9277
5915.00,0.9406
5914.00,0.9536
5913.00,0.9667
5912.00,0.9797
5911.00,0.9927
5910.00,1.0056
5909.00,1.0185
5908.00,1.0313
5907.00,1.0440
5906.00,1.0566
5905.00,1.0692
5904.00,1.0816
5903.00,1.0938
5902.00,1.1057
5901.00,1.1174
5900.00,1.1289
5899.00,1.1403
5898.00,1.1516
5897.00,1.1628
5896.00,1.1735
5895.00,1.1838
5894.00,1.1938
5893.00,1.2036
5892.00,1.2131
5891.00,1.2221
5890.00,1.2306
5889.00,1.2387
5888.00,1.2464
5887.00,1.2537
5886.00,1.2608
5885.00,1.2677
5884.00,1.2743
5883.00,1.2803
5882.00,1.2855
5881.00,1.2900
5880.00,1.2940
5879.00,1.2977
5878.00,1.3011
5877.00,1.3042
5876.00,1.3070
5875.00,1.3095
5874.00,1.3115
5873.00,1.3133
5872.00,1.3147
5871.00,1.3156
5870.00,1.3158
5869.00,1.3153
5868.00,1.3142
5867.00,1.3125
5866.00,1.3107
5865.00,1.3089
5864.00,1.3069
5863.00,1.3045
5862.00,1.3015
5861.00,1.2980
5860.00,1.2938
5859.00,1.2892
5858.00,1.2841
5857.00,1.2788
5856.00,1.2731
5855.00,1.2669
5854.00,1.2603
5853.00,1.2531
5852.00,1.2453
5851.00,1.2370
5850.00,1.2283
5849.00,1.2196
5848.00,1.2106
5847.00,1.2012
5846.00,1.1912
5845.00,1.1807
5844.00,1.1698
5843.00,1.1583
5842.00,1.1465
5841.00,1.1344
5840.00,1.1222
5839.00,1.1098
5838.00,1.0972
5837.00,1.0846
5836.00,1.0717
5835.00,1.0587
5834.00,1.0454
5833.00,1.0319
5832.00,1.0183
5831.00,1.0045
5830.00,0.9908
5829.00,0.9772
5828.00,0.9638
5827.00,0.9506
5826.00,0.9376
5825.00,0.9247
5824.00,0.9119
5823.00,0.8995
5822.00,0.8875
5821.00,0.8759
5820.00,0.8648
5819.00,0.8541
5818.00,0.8440
5817.00,0.8343
5816.00,0.8252
5815.00,0.8168
5814.00,0.8090
5813.00,0.8020
5812.00,0.7958
5811.00,0.7904
5810.00,0.7859
5809.00,0.7822
5808.00,0.7793
5807.00,0.7772
5806.00,0.7760
5805.00,0.7756
5804.00,0.7761
5803.00,0.7775
5802.00,0.7798
5801.00,0.7830
5800.00,0.7870
5799.00,0.7917
5798.00,0.7973
5797.00,0.8036
5796.00,0.8106
5795.00,0.8183
5794.00,0.8267
5793.00,0.8358
5792.00,0.8454
5791.00,0.8554
5790.00,0.8658
5789.00,0.8766
5788.00,0.8878
5787.00,0.8995
5786.00,0.9116
5785.00,0.9241
5784.00,0.9368
5783.00,0.9496
5782.00,0.9626
5781.00,0.9755
5780.00,0.9885
5779.00,1.0016
5778.00,1.0147
5777.00,1.0277
5776.00,1.0408
5775.00,1.0538
5774.00,1.0669
5773.00,1.0798
5772.00,1.0926
5771.00,1.1052
5770.00,1.1178
5769.00,1.1302
5768.00,1.1424
5767.00,1.1545
5766.00,1.1663
5765.00,1.1778
5764.00,1.1888
5763.00,1.1992
5762.00,1.2093
5761.00,1.2191
5760.00,1.2285
5759.00,1.2375
5758.00,1.2459
5757.00,1.2540
5756.00,1.2618
5755.00,1.2693
5754.00,1.2764
5753.00,1.2833
5752.00,1.2898
5751.00,1.2957
5750.00,1.3011
5749.00,1.3058
5748.00,1.3099
5747.00,1.3138
5746.00,1.3177
5745.00,1.3215
5744.00,1.3247
5743.00,1.3272
5742.00,1.3291
5741.00,1.3306
5740.00,1.3316
5739.00,1.3321
5738.00,1.3325
5737.00,1.3326
5736.00,1.3323
5735.00,1.3312
5734.00,1.3295
5733.00,1.3271
5732.00,1.3243
5731.00,1.3212
5730.00,1.3178
5729.00,1.3142
5728.00,1.3104
5727.00,1.3064
5726.00,1.3019
5725.00,1.2967
5724.00,1.2906
5723.00,1.2839
5722.00,1.2768
5721.00,1.2693
5720.00,1.2614
5719.00,1.2532
5718.00,1.2446
5717.00,1.2354
5716.00,1.2255
5715.00,1.2151
5714.00,1.2044
5713.00,1.1934
5712.00,1.1820
5711.00,1.1703
5710.00,1.1583
5709.00,1.1463
5708.00,1.1340
5707.00,1.1215
5706.00,1.1087
5705.00,1.0954
5704.00,1.0817
5703.00,1.0676
5702.00,1.0534
5701.00,1.0392
5700.00,1.0248
5699.00,1.0104
5698.00,0.9960
5697.00,0.9816
5696.00,0.9671
5695.00,0.9528
5694.00,0.9388
5693.00,0.9251
5692.00,0.9118
5691.00,0.8986
5690.00,0.8856
5689.00,0.8730
5688.00,0.8607
5687.00,0.8490
5686.00,0.8379
5685.00,0.8275
5684.00,0.8178
5683.00,0.8088
5682.00,0.8004
5681.00,0.7930
5680.00,0.7863
5679.00,0.7805
5678.00,0.7756
5677.00,0.7716
5676.00,0.7685
5675.00,0.7663
5674.00,0.7650
5673.00,0.7649
5672.00,0.7657
5671.00,0.7675
5670.00,0.7702
5669.00,0.7739
5668.00,0.7784
5667.00,0.7837
5666.00,0.7900
5665.00,0.7971
5664.00,0.8050
5663.00,0.8135
5662.00,0.8227
5661.00,0.8324
5660.00,0.8426
5659.00,0.8534
5658.00,0.8646
5657.00,0.8763
5656.00,0.8885
5655.00,0.9011
5654.00,0.9139
5653.00,0.9270
5652.00,0.9402
5651.00,0.9535
5650.00,0.9670
5649.00,0.9807
5648.00,0.9944
5647.00,1.0083
5646.00,1.0221
5645.00,1.0359
5644.00,1.0495
5643.00,1.0629
5642.00,1.0762
5641.00,1.0894
5640.00,1.1025
5639.00,1.1153
5638.00,1.1279
5637.00,1.1404
5636.00,1.1525
5635.00,1.1645
5634.00,1.1762
5633.00,1.1876
5632.00,1.1985
5631.00,1.2089
5630.00,1.2191
5629.00,1.2289
5628.00,1.2383
5627.00,1.2474
5626.00,1.2563
5625.00,1.2650
5624.00,1.2733
5623.00,1.2812
5622.00,1.2886
5621.00,1.2956
5620.00,1.3022
5619.00,1.3082
5618.00,1.3134
5617.00,1.3180
5616.00,1.3222
5615.00,1.3262
5614.00,1.3299
5613.00,1.3333
5612.00,1.3363
5611.00,1.3390
5610.00,1.3412
5609.00,1.3428
5608.00,1.3436
5607.00,1.3439
5606.00,1.3439
5605.00,1.3434
5604.00,1.3424
5603.00,1.3409
5602.00,1.3391
5601.00,1.3370
5600.00,1.3345
5599.00,1.3312
5598.00,1.3274
5597.00,1.3234
5596.00,1.3191
5595.00,1.3147
5594.00,1.3097
5593.00,1.3044
5592.00,1.2985
5591.00,1.2921
5590.00,1.2850
5589.00,1.2774
5588.00,1.2691
5587.00,1.2603
5586.00,1.2512
5585.00,1.2418
5584.00,1.2320
5583.00,1.2218
5582.00,1.2112
5581.00,1.1999
5580.00,1.1881
5579.00,1.1757
5578.00,1.1633
5577.00,1.1508
5576.00,1.1382
5575.00,1.1252
5574.00,1.1117
5573.00,1.0976
5572.00,1.0833
5571.00,1.0686
5570.00,1.0538
5569.00,1.0390
5568.00,1.0240
5567.00,1.0089
5566.00,0.9936
5565.00,0.9784
5564.00,0.9634
5563.00,0.9486
5562.00,0.9341
5561.00,0.9199
5560.00,0.9059
5559.00,0.8923
5558.00,0.8791
5557.00,0.8664
5556.00,0.8541
5555.00,0.8423
5554.00,0.8310
5553.00,0.8204
5552.00,0.8104
5551.00,0.8011
5550.00,0.7927
5549.00,0.7852
5548.00,0.7787
5547.00,0.7731
5546.00,0.7684
5545.00,0.7646
5544.00,0.7618
5543.00,0.7599
5542.00,0.7590
5541.00,0.7592
5540.00,0.7604
5539.00,0.7625
5538.00,0.7656
5537.00,0.7696
5536.00,0.7746
5535.00,0.7805
5534.00,0.7873
5533.00,0.7949
5532.00,0.8033
5531.00,0.8123
5530.00,0.8220
5529.00,0.8323
5528.00,0.8433
5527.00,0.8548
5526.00,0.8668
5525.00,0.8792
5524.00,0.8919
5523.00,0.9048
5522.00,0.9178
5521.00,0.9310
5520.00,0.9443
5519.00,0.9577
5518.00,0.9712
5517.00,0.9849
5516.00,0.9985
5515.00,1.0121
5514.00,1.0258
5513.00,1.0393
5512.00,1.0527
5511.00,1.0658
5510.00,1.0786
5509.00,1.0912
5508.00,1.1037
5507.00,1.1160
5506.00,1.1282
5505.00,1.1403
5504.00,1.1522
5503.00,1.1637
5502.00,1.1748
5501.00,1.1858
5500.00,1.1966
5499.00,1.2072
5498.00,1.2175
5497.00,1.2275
5496.00,1.2370
5495.00,1.2461
5494.00,1.2548
5493.00,1.2631
5492.00,1.2709
5491.00,1.2782
5490.00,1.2851
5489.00,1.2918
5488.00,1.2983
5487.00,1.3047
5486.00,1.3108
5485.00,1.3165
5484.00,1.3218
5483.00,1.3265
5482.00,1.3306
5481.00,1.3340
5480.00,1.3371
5479.00,1.3398
5478.00,1.3422
5477.00,1.3442
5476.00,1.3458
5475.00,1.3469
5474.00,1.3475
5473.00,1.3476
5472.00,1.3472
5471.00,1.3464
5470.00,1.3453
5469.00,1.3439
5468.00,1.3420
5467.00,1.3396
5466.00,1.3367
5465.00,1.3334
5464.00,1.3295
5463.00,1.3250
5462.00,1.3198
5461.00,1.3140
5460.00,1.3077
5459.00,1.3009
5458.00,1.2938
5457.00,1.2863
5456.00,1.2785
5455.00,1.2703
5454.00,1.2616
5453.00,1.2524
5452.00,1.2427
5451.00,1.2325
5450.00,1.2216
5449.00,1.2103
5448.00,1.1983
5447.00,1.1858
5446.00,1.1728
5445.00,1.1595
5444.00,1.1458
5443.00,1.1318
5442.00,1.1175
5441.00,1.1029
5440.00,1.0882
5439.00,1.0733
5438.00,1.0584
5437.00,1.0433
5436.00,1.0281
5435.00,1.0126
5434.00,0.9970
5433.00,0.9815
5432.00,0.9662
5431.00,0.9510
5430.00,0.9359
5429.00,0.9209
5428.00,0.9061
5427.00,0.8915
5426.00,0.8774
5425.00,0.8639
5424.00,0.8510
5423.00,0.8389
5422.00,0.8276
5421.00,0.8171
5420.00,0.8074
5419.00,0.7984
5418.00,0.7902
5417.00,0.7829
5416.00,0.7764
5415.00,0.7708
5414.00,0.7661
5413.00,0.7622
5412.00,0.7594
5411.00,0.7577
5410.00,0.7571
5409.00,0.7576
5408.00,0.7593
5407.00,0.7620
5406.00,0.7658
5405.00,0.7706
5404.00,0.7764
5403.00,0.7832
5402.00,0.7910
5401.00,0.7996
5400.00,0.8090
5399.00,0.8190
5398.00,0.8297
5397.00,0.8409
5396.00,0.8527
5395.00,0.8652
5394.00,0.8783
5393.00,0.8920
5392.00,0.9060
5391.00,0.9202
5390.00,0.9346
5389.00,0.9490
5388.00,0.9634
5387.00,0.9781
5386.00,0.9930
5385.00,1.0083
5384.00,1.0235
5383.00,1.0385
5382.00,1.0534
5381.00,1.0681
5380.00,1.0827
5379.00,1.0972
5378.00,1.1116
5377.00,1.1258
5376.00,1.1398
5375.00,1.1536
5374.00,1.1671
5373.00,1.1805
5372.00,1.1936
5371.00,1.2064
5370.00,1.2188
5369.00,1.2306
5368.00,1.2421
5367.00,1.2532
5366.00,1.2640
5365.00,1.2744
5364.00,1.2841
5363.00,1.2933
5362.00,1.3019
5361.00,1.3103
5360.00,1.3184
5359.00,1.3264
5358.00,1.3340
5357.00,1.3410
5356.00,1.3473
5355.00,1.3530
5354.00,1.3581
5353.00,1.3626
5352.00,1.3666
5351.00,1.3701
5350.00,1.3731
5349.00,1.3759
5348.00,1.3784
5347.00,1.3806
5346.00,1.3824
5345.00,1.3835
5344.00,1.3840
5343.00,1.3840
5342.00,1.3835
5341.00,1.3826
5340.00,1.3813
5339.00,1.3797
5338.00,1.3778
5337.00,1.3754
5336.00,1.3725
5335.00,1.3691
5334.00,1.3652
5333.00,1.3608
5332.00,1.3561
5331.00,1.3510
5330.00,1.3456
5329.00,1.3397
5328.00,1.3330
5327.00,1.3256
5326.00,1.3176
5325.00,1.3089
5324.00,1.2997
5323.00,1.2901
5322.00,1.2802
5321.00,1.2700
5320.00,1.2594
5319.00,1.2486
5318.00,1.2373
5317.00,1.2254
5316.00,1.2128
5315.00,1.1997
5314.00,1.1861
5313.00,1.1721
5312.00,1.1577
5311.00,1.1432
5310.00,1.1284
5309.00,1.1134
5308.00,1.0980
5307.00,1.0823
5306.00,1.0664
5305.00,1.0501
5304.00,1.0337
5303.00,1.0173
5302.00,1.0010
5301.00,0.9848
5300.00,0.9685
5299.00,0.9524
5298.00,0.9366
5297.00,0.9211
5296.00,0.9061
5295.00,0.8915
5294.00,0.8775
5293.00,0.8640
5292.00,0.8510
5291.00,0.8385
5290.00,0.8267
5289.00,0.8157
5288.00,0.8055
5287.00,0.7962
5286.00,0.7877
5285.00,0.7803
5284.00,0.7740
5283.00,0.7686
5282.00,0.7642
5281.00,0.7608
5280.00,0.7586
5279.00,0.7575
5278.00,0.7576
5277.00,0.7589
5276.00,0.7613
5275.00,0.7648
5274.00,0.7692
5273.00,0.7747
5272.00,0.7811
5271.00,0.7884
5270.00,0.7966
5269.00,0.8058
5268.00,0.8157
5267.00,0.8262
5266.00,0.8375
5265.00,0.8495
5264.00,0.8620
5263.00,0.8752
5262.00,0.8888
5261.00,0.9027
5260.00,0.9169
5259.00,0.9313
5258.00,0.9460
5257.00,0.9608
5256.00,0.9760
5255.00,0.9915
5254.00,1.0072
5253.00,1.0229
5252.00,1.0384
5251.00,1.0537
5250.00,1.0687
5249.00,1.0837
5248.00,1.0986
5247.00,1.1133
5246.00,1.1279
5245.00,1.1422
5244.00,1.1562
5243.00,1.1699
5242.00,1.1833
5241.00,1.1965
5240.00,1.2097
5239.00,1.2227
5238.00,1.2356
5237.00,1.2481
5236.00,1.2601
5235.00,1.2713
5234.00,1.2819
5233.00,1.2920
5232.00,1.3017
5231.00,1.3111
5230.00,1.3203
5229.00,1.3291
5228.00,1.3375
5227.00,1.3453
5226.00,1.3526
5225.00,1.3594
5224.00,1.3657
5223.00,1.3717
5222.00,1.3773
5221.00,1.3824
5220.00,1.3870
5219.00,1.3907
5218.00,1.3937
5217.00,1.3961
5216.00,1.3981
5215.00,1.3997
5214.00,1.4013
5213.00,1.4029
5212.00,1.4045
5211.00,1.4057
5210.00,1.4062
5209.00,1.4060
5208.00,1.4049
5207.00,1.4031
5206.00,1.4006
5205.00,1.3975
5204.00,1.3941
5203.00,1.3905
5202.00,1.3867
5201.00,1.3825
5200.00,1.3778
5199.00,1.3726
5198.00,1.3670
5197.00,1.3609
5196.00,1.3543
5195.00,1.3473
5194.00,1.3397
5193.00,1.3315
5192.00,1.3228
5191.00,1.3135
5190.00,1.3037
5189.00,1.2934
5188.00,1.2827
5187.00,1.2715
5186.00,1.2597
5185.00,1.2473
5184.00,1.2344
5183.00,1.2208
5182.00,1.2068
5181.00,1.1924
5180.00,1.1777
5179.00,1.1629
5178.00,1.1478
5177.00,1.1325
5176.00,1.1168
5175.00,1.1007
5174.00,1.0842
5173.00,1.0675
5172.00,1.0506
5171.00,1.0335
5170.00,1.0164
5169.00,0.9994
5168.00,0.9826
5167.00,0.9659
5166.00,0.9495
5165.00,0.9335
5164.00,0.9177
5163.00,0.9024
5162.00,0.8875
5161.00,0.8731
5160.00,0.8593
5159.00,0.8462
5158.00,0.8337
5157.00,0.8221
5156.00,0.8114
5155.00,0.8016
5154.00,0.7928
5153.00,0.7851
5152.00,0.7784
5151.00,0.7728
5150.00,0.7685
5149.00,0.7653
5148.00,0.7633
5147.00,0.7625
5146.00,0.7630
5145.00,0.7646
5144.00,0.7675
5143.00,0.7714
5142.00,0.7765
5141.00,0.7826
5140.00,0.7897
5139.00,0.7979
5138.00,0.8070
5137.00,0.8172
5136.00,0.8281
5135.00,0.8399
5134.00,0.8524
5133.00,0.8656
5132.00,0.8793
5131.00,0.8935
5130.00,0.9080
5129.00,0.9230
5128.00,0.9383
5127.00,0.9539
5126.00,0.9698
5125.00,0.9860
5124.00,1.0022
5123.00,1.0184
5122.00,1.0345
5121.00,1.0506
5120.00,1.0666
5119.00,1.0826
5118.00,1.0985
5117.00,1.1144
5116.00,1.1302
5115.00,1.1458
5114.00,1.1612
5113.00,1.1763
5112.00,1.1910
5111.00,1.2053
5110.00,1.2194
5109.00,1.2331
5108.00,1.2465
5107.00,1.2594
5106.00,1.2717
5105.00,1.2836
5104.00,1.2951
5103.00,1.3062
5102.00,1.3170
5101.00,1.3274
5100.00,1.3374
5099.00,1.3470
5098.00,1.3561
5097.00,1.3648
5096.00,1.3731
5095.00,1.3808
5094.00,1.3879
5093.00,1.3943
5092.00,1.4001
5091.00,1.4053
5090.00,1.4101
5089.00,1.4145
5088.00,1.4186
5087.00,1.4222
5086.00,1.4255
5085.00,1.4284
5084.00,1.4308
5083.00,1.4327
5082.00,1.4340
5081.00,1.4347
5080.00,1.4349
5079.00,1.4346
5078.00,1.4340
5077.00,1.4330
5076.00,1.4315
5075.00,1.4297
5074.00,1.4274
5073.00,1.4245
5072.00,1.4210
5071.00,1.4171
5070.00,1.4127
5069.00,1.4077
5068.00,1.4022
5067.00,1.3962
5066.00,1.3898
5065.00,1.3828
5064.00,1.3752
5063.00,1.3672
5062.00,1.3589
5061.00,1.3501
5060.00,1.3408
5059.00,1.3310
5058.00,1.3207
5057.00,1.3099
5056.00,1.2986
5055.00,1.2867
5054.00,1.2743
5053.00,1.2614
5052.00,1.2479
5051.00,1.2338
5050.00,1.2192
5049.00,1.2042
5048.00,1.1888
5047.00,1.1731
5046.00,1.1569
5045.00,1.1404
5044.00,1.1233
5043.00,1.1059
5042.00,1.0883
5041.00,1.0705
5040.00,1.0527
5039.00,1.0348
5038.00,1.0169
5037.00,0.9990
5036.00,0.9812
5035.00,0.9636
5034.00,0.9463
5033.00,0.9293
5032.00,0.9127
5031.00,0.8965
5030.00,0.8807
5029.00,0.8655
5028.00,0.8510
5027.00,0.8371
5026.00,0.8241
5025.00,0.8120
5024.00,0.8009
5023.00,0.7908
5022.00,0.7818
5021.00,0.7739
5020.00,0.7671
5019.00,0.7615
5018.00,0.7572
5017.00,0.7541
5016.00,0.7524
5015.00,0.7519
5014.00,0.7528
5013.00,0.7551
5012.00,0.7586
5011.00,0.7634
5010.00,0.7694
5009.00,0.7765
5008.00,0.7846
5007.00,0.7937
5006.00,0.8038
5005.00,0.8148
5004.00,0.8268
5003.00,0.8396
5002.00,0.8532
5001.00,0.8675
5000.00,0.8824
4999.00,0.8976
4998.00,0.9132
4997.00,0.9293
4996.00,0.9456
4995.00,0.9621
4994.00,0.9788
4993.00,0.9956
4992.00,1.0125
4991.00,1.0295
4990.00,1.0467
4989.00,1.0639
4988.00,1.0811
4987.00,1.0980
4986.00,1.1146
4985.00,1.1310
4984.00,1.1470
4983.00,1.1629
4982.00,1.1786
4981.00,1.1942
4980.00,1.2096
4979.00,1.2247
4978.00,1.2394
4977.00,1.2538
4976.00,1.2676
4975.00,1.2808
4974.00,1.2936
4973.00,1.3060
4972.00,1.3181
4971.00,1.3298
4970.00,1.3410
4969.00,1.3517
4968.00,1.3618
4967.00,1.3713
4966.00,1.3804
4965.00,1.3890
4964.00,1.3971
4963.00,1.4046
4962.00,1.4115
4961.00,1.4180
4960.00,1.4240
4959.00,1.4296
4958.00,1.4348
4957.00,1.4395
4956.00,1.4440
4955.00,1.4479
4954.00,1.4511
4953.00,1.4537
4952.00,1.4555
4951.00,1.4570
4950.00,1.4583
4949.00,1.4596
4948.00,1.4607
4947.00,1.4609
4946.00,1.4602
4945.00,1.4587
4944.00,1.4565
4943.00,1.4540
4942.00,1.4511
4941.00,1.4480
4940.00,1.4445
4939.00,1.4405
4938.00,1.4361
4937.00,1.4311
4936.00,1.4255
4935.00,1.4193
4934.00,1.4126
4933.00,1.4055
4932.00,1.3979
4931.00,1.3898
4930.00,1.3811
4929.00,1.3719
4928.00,1.3623
4927.00,1.3522
4926.00,1.3416
4925.00,1.3304
4924.00,1.3187
4923.00,1.3064
4922.00,1.2934
4921.00,1.2799
4920.00,1.2658
4919.00,1.2511
4918.00,1.2359
4917.00,1.2203
4916.00,1.2042
4915.00,1.1877
4914.00,1.1708
4913.00,1.1534
4912.00,1.1357
4911.00,1.1177
4910.00,1.0993
4909.00,1.0808
4908.00,1.0621
4907.00,1.0434
4906.00,1.0246
4905.00,1.0060
4904.00,0.9874
4903.00,0.9690
4902.00,0.9508
4901.00,0.9330
4900.00,0.9155
4899.00,0.8986
4898.00,0.8822
4897.00,0.8665
4896.00,0.8516
4895.00,0.8375
4894.00,0.8245
4893.00,0.8126
4892.00,0.8017
4891.00,0.7919
4890.00,0.7832
4889.00,0.7756
4888.00,0.7694
4887.00,0.7644
4886.00,0.7609
4885.00,0.7587
4884.00,0.7580
4883.00,0.7586
4882.00,0.7606
4881.00,0.7640
4880.00,0.7687
4879.00,0.7748
4878.00,0.7821
4877.00,0.7907
4876.00,0.8004
4875.00,0.8113
4874.00,0.8231
4873.00,0.8358
4872.00,0.8493
4871.00,0.8635
4870.00,0.8784
4869.00,0.8939
4868.00,0.9100
4867.00,0.9265
4866.00,0.9433
4865.00,0.9606
4864.00,0.9781
4863.00,0.9958
4862.00,1.0136
4861.00,1.0316
4860.00,1.0496
4859.00,1.0675
4858.00,1.0855
4857.00,1.1033
4856.00,1.1209
4855.00,1.1383
4854.00,1.1556
4853.00,1.1727
4852.00,1.1895
4851.00,1.2061
4850.00,1.2221
4849.00,1.2378
4848.00,1.2531
4847.00,1.2682
4846.00,1.2829
4845.00,1.2970
4844.00,1.3105
4843.00,1.3235
4842.00,1.3360
4841.00,1.3482
4840.00,1.3602
4839.00,1.3719
4838.00,1.3831
4837.00,1.3937
4836.00,1.4037
4835.00,1.4131
4834.00,1.4221
4833.00,1.4303
4832.00,1.4379
4831.00,1.4447
4830.00,1.4508
4829.00,1.4564
4828.00,1.4616
4827.00,1.4666
4826.00,1.4713
4825.00,1.4756
4824.00,1.4793
4823.00,1.4825
4822.00,1.4853
4821.00,1.4877
4820.00,1.4898
4819.00,1.4915
4818.00,1.4926
4817.00,1.4929
4816.00,1.4924
4815.00,1.4912
4814.00,1.4895
4813.00,1.4877
4812.00,1.4856
4811.00,1.4832
4810.00,1.4803
4809.00,1.4768
4808.00,1.4726
4807.00,1.4678
4806.00,1.4625
4805.00,1.4567
4804.00,1.4503
4803.00,1.4433
4802.00,1.4358
4801.00,1.4279
4800.00,1.4196
4799.00,1.4108
4798.00,1.4015
4797.00,1.3917
4796.00,1.3812
4795.00,1.3702
4794.00,1.3586
4793.00,1.3465
4792.00,1.3339
4791.00,1.3208
4790.00,1.3072
4789.00,1.2931
4788.00,1.2782
4787.00,1.2625
4786.00,1.2462
4785.00,1.2293
4784.00,1.2121
4783.00,1.1945
4782.00,1.1767
4781.00,1.1584
4780.00,1.1398
4779.00,1.1208
4778.00,1.1014
4777.00,1.0819
4776.00,1.0621
4775.00,1.0422
4774.00,1.0224
4773.00,1.0026
4772.00,0.9830
4771.00,0.9637
4770.00,0.9446
4769.00,0.9260
4768.00,0.9080
4767.00,0.8905
4766.00,0.8737
4765.00,0.8577
4764.00,0.8426
4763.00,0.8284
4762.00,0.8153
4761.00,0.8033
4760.00,0.7926
4759.00,0.7830
4758.00,0.7748
4757.00,0.7678
4756.00,0.7623
4755.00,0.7584
4754.00,0.7559
4753.00,0.7551
4752.00,0.7557
4751.00,0.7578
4750.00,0.7613
4749.00,0.7663
4748.00,0.7728
4747.00,0.7806
4746.00,0.7899
4745.00,0.8003
4744.00,0.8118
4743.00,0.8243
4742.00,0.8377
4741.00,0.8520
4740.00,0.8671
4739.00,0.8829
4738.00,0.8994
4737.00,0.9166
4736.00,0.9341
4735.00,0.9521
4734.00,0.9704
4733.00,0.9889
4732.00,1.0075
4731.00,1.0262
4730.00,1.0450
4729.00,1.0639
4728.00,1.0827
4727.00,1.1016
4726.00,1.1203
4725.00,1.1388
4724.00,1.1570
4723.00,1.1749
4722.00,1.1927
4721.00,1.2103
4720.00,1.2277
4719.00,1.2449
4718.00,1.2615
4717.00,1.2776
4716.00,1.2931
4715.00,1.3080
4714.00,1.3226
4713.00,1.3369
4712.00,1.3508
4711.00,1.3641
4710.00,1.3769
4709.00,1.3891
4708.00,1.4008
4707.00,1.4120
4706.00,1.4228
4705.00,1.4330
4704.00,1.4427
4703.00,1.4520
4702.00,1.4609
4701.00,1.4693
4700.00,1.4770
4699.00,1.4841
4698.00,1.4905
4697.00,1.4961
4696.00,1.5011
4695.00,1.5057
4694.00,1.5101
4693.00,1.5142
4692.00,1.5178
4691.00,1.5210
4690.00,1.5235
4689.00,1.5256
4688.00,1.5270
4687.00,1.5280
4686.00,1.5284
4685.00,1.5285
4684.00,1.5281
4683.00,1.5272
4682.00,1.5257
4681.00,1.5238
4680.00,1.5213
4679.00,1.5183
4678.00,1.5149
4677.00,1.5111
4676.00,1.5068
4675.00,1.5021
4674.00,1.4969
4673.00,1.4911
4672.00,1.4846
4671.00,1.4777
4670.00,1.4703
4669.00,1.4626
4668.00,1.4543
4667.00,1.4454
4666.00,1.4359
4665.00,1.4261
4664.00,1.4157
4663.00,1.4050
4662.00,1.3937
4661.00,1.3816
4660.00,1.3686
4659.00,1.3547
4658.00,1.3403
4657.00,1.3255
4656.00,1.3101
4655.00,1.2942
4654.00,1.2776
4653.00,1.2604
4652.00,1.2425
4651.00,1.2241
4650.00,1.2052
4649.00,1.1858
4648.00,1.1661
4647.00,1.1461
4646.00,1.1258
4645.00,1.1055
4644.00,1.0850
4643.00,1.0644
4642.00,1.0436
4641.00,1.0229
4640.00,1.0023
4639.00,0.9820
4638.00,0.9622
4637.00,0.9429
4636.00,0.9241
4635.00,0.9060
4634.00,0.8887
4633.00,0.8722
4632.00,0.8567
4631.00,0.8422
4630.00,0.8288
4629.00,0.8167
4628.00,0.8059
4627.00,0.7964
4626.00,0.7884
4625.00,0.7819
4624.00,0.7770
4623.00,0.7736
4622.00,0.7718
4621.00,0.7716
4620.00,0.7730
4619.00,0.7761
4618.00,0.7807
4617.00,0.7868
4616.00,0.7944
4615.00,0.8034
4614.00,0.8137
4613.00,0.8252
4612.00,0.8379
4611.00,0.8517
4610.00,0.8663
4609.00,0.8818
4608.00,0.8981
4607.00,0.9151
4606.00,0.9327
4605.00,0.9508
4604.00,0.9692
4603.00,0.9880
4602.00,1.0070
4601.00,1.0261
4600.00,1.0454
4599.00,1.0648
4598.00,1.0841
4597.00,1.1035
4596.00,1.1227
4595.00,1.1419
4594.00,1.1611
4593.00,1.1801
4592.00,1.1990
4591.00,1.2176
4590.00,1.2358
4589.00,1.2536
4588.00,1.2710
4587.00,1.2879
4586.00,1.3044
4585.00,1.3205
4584.00,1.3362
4583.00,1.3514
4582.00,1.3660
4581.00,1.3802
4580.00,1.3940
4579.00,1.4073
4578.00,1.4202
4577.00,1.4325
4576.00,1.4441
4575.00,1.4549
4574.00,1.4648
4573.00,1.4743
4572.00,1.4833
4571.00,1.4921
4570.00,1.5005
4569.00,1.5085
4568.00,1.5157
4567.00,1.5221
4566.00,1.5278
4565.00,1.5331
4564.00,1.5381
4563.00,1.5427
4562.00,1.5469
4561.00,1.5506
4560.00,1.5537
4559.00,1.5561
4558.00,1.5579
4557.00,1.5591
4556.00,1.5596
4555.00,1.5597
4554.00,1.5594
4553.00,1.5588
4552.00,1.5578
4551.00,1.5564
4550.00,1.5546
4549.00,1.5524
4548.00,1.5498
4547.00,1.5468
4546.00,1.5432
4545.00,1.5388
4544.00,1.5337
4543.00,1.5278
4542.00,1.5214
4541.00,1.5145
4540.00,1.5074
4539.00,1.4997
4538.00,1.4915
4537.00,1.4826
4536.00,1.4731
4535.00,1.4632
4534.00,1.4528
4533.00,1.4420
4532.00,1.4305
4531.00,1.4182
4530.00,1.4054
4529.00,1.3919
4528.00,1.3779
4527.00,1.3632
4526.00,1.3479
4525.00,1.3319
4524.00,1.3151
4523.00,1.2977
4522.00,1.2796
4521.00,1.2610
4520.00,1.2419
4519.00,1.2224
4518.00,1.2025
4517.00,1.1821
4516.00,1.1612
4515.00,1.1399
4514.00,1.1183
4513.00,1.0966
4512.00,1.0748
4511.00,1.0529
4510.00,1.0311
4509.00,1.0095
4508.00,0.9882
4507.00,0.9673
4506.00,0.9469
4505.00,0.9271
4504.00,0.9080
4503.00,0.8897
4502.00,0.8723
4501.00,0.8559
4500.00,0.8407
4499.00,0.8266
4498.00,0.8138
4497.00,0.8024
4496.00,0.7925
4495.00,0.7842
4494.00,0.7775
4493.00,0.7725
4492.00,0.7692
4491.00,0.7676
4490.00,0.7678
4489.00,0.7697
4488.00,0.7733
4487.00,0.7787
4486.00,0.7857
4485.00,0.7943
4484.00,0.8045
4483.00,0.8162
4482.00,0.8292
4481.00,0.8434
4480.00,0.8587
4479.00,0.8750
4478.00,0.8922
4477.00,0.9101
4476.00,0.9286
4475.00,0.9477
4474.00,0.9673
4473.00,0.9872
4472.00,1.0075
4471.00,1.0280
4470.00,1.0487
4469.00,1.0695
4468.00,1.0903
4467.00,1.1111
4466.00,1.1319
4465.00,1.1525
4464.00,1.1730
4463.00,1.1933
4462.00,1.2133
4461.00,1.2331
4460.00,1.2525
4459.00,1.2715
4458.00,1.2900
4457.00,1.3080
4456.00,1.3256
4455.00,1.3426
4454.00,1.3593
4453.00,1.3755
4452.00,1.3914
4451.00,1.4068
4450.00,1.4216
4449.00,1.4358
4448.00,1.4493
4447.00,1.4620
4446.00,1.4741
4445.00,1.4856
4444.00,1.4968
4443.00,1.5074
4442.00,1.5173
4441.00,1.5264
4440.00,1.5348
4439.00,1.5429
4438.00,1.5508
4437.00,1.5583
4436.00,1.5652
4435.00,1.5713
4434.00,1.5765
4433.00,1.5810
4432.00,1.5853
4431.00,1.5894
4430.00,1.5933
4429.00,1.5966
4428.00,1.5992
4427.00,1.6010
4426.00,1.6024
4425.00,1.6033
4424.00,1.6037
4423.00,1.6038
4422.00,1.6033
4421.00,1.6024
4420.00,1.6010
4419.00,1.5992
4418.00,1.5968
4417.00,1.5936
4416.00,1.5897
4415.00,1.5852
4414.00,1.5805
4413.00,1.5756
4412.00,1.5702
4411.00,1.5642
4410.00,1.5574
4409.00,1.5501
4408.00,1.5423
4407.00,1.5343
4406.00,1.5257
4405.00,1.5163
4404.00,1.5062
4403.00,1.4953
4402.00,1.4840
4401.00,1.4724
4400.00,1.4605
4399.00,1.4481
4398.00,1.4353
4397.00,1.4219
4396.00,1.4077
4395.00,1.3929
4394.00,1.3774
4393.00,1.3613
4392.00,1.3446
4391.00,1.3274
4390.00,1.3098
4389.00,1.2918
4388.00,1.2735
4387.00,1.2550
4386.00,1.2361
4385.00,1.2170
4384.00,1.1978
4383.00,1.1785
4382.00,1.1591
4381.00,1.1398
4380.00,1.1206
4379.00,1.1015
4378.00,1.0827
4377.00,1.0644
4376.00,1.0465
4375.00,1.0291
4374.00,1.0123
4373.00,0.9960
4372.00,0.9804
4371.00,0.9655
4370.00,0.9514
4369.00,0.9383
4368.00,0.9261
4367.00,0.9149
4366.00,0.9047
4365.00,0.8956
4364.00,0.8875
4363.00,0.8807
4362.00,0.8751
4361.00,0.8709
4360.00,0.8680
4359.00,0.8667
4358.00,0.8669
4357.00,0.8686
4356.00,0.8718
4355.00,0.8766
4354.00,0.8828
4353.00,0.8904
4352.00,0.8994
4351.00,0.9096
4350.00,0.9211
4349.00,0.9337
4348.00,0.9474
4347.00,0.9619
4346.00,0.9773
4345.00,0.9934
4344.00,1.0101
4343.00,1.0274
4342.00,1.0451
4341.00,1.0634
4340.00,1.0819
4339.00,1.1008
4338.00,1.1198
4337.00,1.1390
4336.00,1.1584
4335.00,1.1779
4334.00,1.1975
4333.00,1.2172
4332.00,1.2367
4331.00,1.2561
4330.00,1.2753
4329.00,1.2944
4328.00,1.3133
4327.00,1.3319
4326.00,1.3501
4325.00,1.3679
4324.00,1.3852
4323.00,1.4020
4322.00,1.4184
4321.00,1.4344
4320.00,1.4501
4319.00,1.4652
4318.00,1.4796
4317.00,1.4933
4316.00,1.5062
4315.00,1.5186
4314.00,1.5306
4313.00,1.5420
4312.00,1.5530
4311.00,1.5632
4310.00,1.5726
4309.00,1.5814
4308.00,1.5894
4307.00,1.5970
4306.00,1.6041
4305.00,1.6108
4304.00,1.6170
4303.00,1.6227
4302.00,1.6278
4301.00,1.6326
4300.00,1.6369
4299.00,1.6407
4298.00,1.6438
4297.00,1.6462
4296.00,1.6483
4295.00,1.6500
4294.00,1.6514
4293.00,1.6521
4292.00,1.6522
4291.00,1.6517
4290.00,1.6509
4289.00,1.6498
4288.00,1.6482
4287.00,1.6460
4286.00,1.6433
4285.00,1.6400
4284.00,1.6363
4283.00,1.6323
4282.00,1.6278
4281.00,1.6228
4280.00,1.6174
4279.00,1.6116
4278.00,1.6053
4277.00,1.5984
4276.00,1.5908
4275.00,1.5825
4274.00,1.5737
4273.00,1.5645
4272.00,1.5548
4271.00,1.5444
4270.00,1.5332
4269.00,1.5214
4268.00,1.5091
4267.00,1.4962
4266.00,1.4829
4265.00,1.4689
4264.00,1.4543
4263.00,1.4390
4262.00,1.4229
4261.00,1.4061
4260.00,1.3886
4259.00,1.3705
4258.00,1.3517
4257.00,1.3323
4256.00,1.3123
4255.00,1.2917
4254.00,1.2705
4253.00,1.2487
4252.00,1.2266
4251.00,1.2041
4250.00,1.1815
4249.00,1.1587
4248.00,1.1359
4247.00,1.1131
4246.00,1.0904
4245.00,1.0678
4244.00,1.0455
4243.00,1.0236
4242.00,1.0023
4241.00,0.9818
4240.00,0.9623
4239.00,0.9437
4238.00,0.9263
4237.00,0.9102
4236.00,0.8955
4235.00,0.8822
4234.00,0.8705
4233.00,0.8605
4232.00,0.8523
4231.00,0.8459
4230.00,0.8414
4229.00,0.8388
4228.00,0.8381
4227.00,0.8393
4226.00,0.8424
4225.00,0.8475
4224.00,0.8543
4223.00,0.8628
4222.00,0.8728
4221.00,0.8843
4220.00,0.8971
4219.00,0.9111
4218.00,0.9263
4217.00,0.9425
4216.00,0.9596
4215.00,0.9776
4214.00,0.9962
4213.00,1.0154
4212.00,1.0351
4211.00,1.0553
4210.00,1.0758
4209.00,1.0966
4208.00,1.1176
4207.00,1.1387
4206.00,1.1599
4205.00,1.1813
4204.00,1.2026
4203.00,1.2239
4202.00,1.2451
4201.00,1.2661
4200.00,1.2869
4199.00,1.3076
4198.00,1.3280
4197.00,1.3480
4196.00,1.3675
4195.00,1.3866
4194.00,1.4051
4193.00,1.4231
4192.00,1.4405
4191.00,1.4573
4190.00,1.4736
4189.00,1.4893
4188.00,1.5044
4187.00,1.5189
4186.00,1.5328
4185.00,1.5461
4184.00,1.5587
4183.00,1.5707
4182.00,1.5822
4181.00,1.5934
4180.00,1.6041
4179.00,1.6141
4178.00,1.6234
4177.00,1.6318
4176.00,1.6396
4175.00,1.6469
4174.00,1.6538
4173.00,1.6602
4172.00,1.6662
4171.00,1.6718
4170.00,1.6771
4169.00,1.6822
4168.00,1.6868
4167.00,1.6905
4166.00,1.6932
4165.00,1.6952
4164.00,1.6967
4163.00,1.6978
4162.00,1.6986
4161.00,1.6988
4160.00,1.6985
4159.00,1.6977
4158.00,1.6967
4157.00,1.6956
4156.00,1.6944
4155.00,1.6927
4154.00,1.6903
4153.00,1.6869
4152.00,1.6827
4151.00,1.6778
4150.00,1.6726
4149.00,1.6672
4148.00,1.6614
4147.00,1.6552
4146.00,1.6483
4145.00,1.6407
4144.00,1.6323
4143.00,1.6233
4142.00,1.6138
4141.00,1.6039
4140.00,1.5934
4139.00,1.5825
4138.00,1.5708
4137.00,1.5584
4136.00,1.5454
4135.00,1.5316
4134.00,1.5173
4133.00,1.5023
4132.00,1.4868
4131.00,1.4706
4130.00,1.4537
4129.00,1.4361
4128.00,1.4178
4127.00,1.3989
4126.00,1.3795
4125.00,1.3593
4124.00,1.3384
4123.00,1.3166
4122.00,1.2942
4121.00,1.2711
4120.00,1.2477
4119.00,1.2240
4118.00,1.2001
4117.00,1.1760
4116.00,1.1519
4115.00,1.1278
4114.00,1.1038
4113.00,1.0802
4112.00,1.0570
4111.00,1.0345
4110.00,1.0128
4109.00,0.9918
4108.00,0.9717
4107.00,0.9526
4106.00,0.9347
4105.00,0.9183
4104.00,0.9035
4103.00,0.8902
4102.00,0.8787
4101.00,0.8689
4100.00,0.8609
4099.00,0.8550
4098.00,0.8510
4097.00,0.8492
4096.00,0.8495
4095.00,0.8519
4094.00,0.8563
4093.00,0.8628
4092.00,0.8711
4091.00,0.8813
4090.00,0.8933
4089.00,0.9068
4088.00,0.9219
4087.00,0.9383
4086.00,0.9558
4085.00,0.9743
4084.00,0.9938
4083.00,1.0140
4082.00,1.0349
4081.00,1.0564
4080.00,1.0783
4079.00,1.1007
4078.00,1.1233
4077.00,1.1461
4076.00,1.1689
4075.00,1.1917
4074.00,1.2143
4073.00,1.2368
4072.00,1.2593
4071.00,1.2816
4070.00,1.3038
4069.00,1.3257
4068.00,1.3474
4067.00,1.3686
4066.00,1.3895
4065.00,1.4099
4064.00,1.4298
4063.00,1.4490
4062.00,1.4675
4061.00,1.4855
4060.00,1.5031
4059.00,1.5202
4058.00,1.5367
4057.00,1.5525
4056.00,1.5677
4055.00,1.5820
4054.00,1.5956
4053.00,1.6083
4052.00,1.6205
4051.00,1.6323
4050.00,1.6438
4049.00,1.6547
4048.00,1.6646
4047.00,1.6736
4046.00,1.6818
4045.00,1.6896
4044.00,1.6972
4043.00,1.7044
4042.00,1.7108
4041.00,1.7164
4040.00,1.7214
4039.00,1.7257
4038.00,1.7294
4037.00,1.7326
4036.00,1.7356
4035.00,1.7385
4034.00,1.7413
4033.00,1.7435
4032.00,1.7449
4031.00,1.7455
4030.00,1.7456
4029.00,1.7454
4028.00,1.7448
4027.00,1.7435
4026.00,1.7415
4025.00,1.7388
4024.00,1.7355
4023.00,1.7318
4022.00,1.7278
4021.00,1.7233
4020.00,1.7182
4019.00,1.7123
4018.00,1.7057
4017.00,1.6988
4016.00,1.6917
4015.00,1.6843
4014.00,1.6764
4013.00,1.6679
4012.00,1.6586
4011.00,1.6487
4010.00,1.6379
4009.00,1.6265
4008.00,1.6143
4007.00,1.6016
4006.00,1.5884
4005.00,1.5747
4004.00,1.5604
4003.00,1.5454
4002.00,1.5295
4001.00,1.5128
4000.00,1.4953
3999.00,1.4772
3998.00,1.4585
3997.00,1.4392
3996.00,1.4192
3995.00,1.3985
3994.00,1.3771
3993.00,1.3549
3992.00,1.3321
3991.00,1.3087
3990.00,1.2848
3989.00,1.2605
3988.00,1.2358
3987.00,1.2110
3986.00,1.1859
3985.00,1.1608
3984.00,1.1356
3983.00,1.1106
3982.00,1.0859
3981.00,1.0618
3980.00,1.0383
3979.00,1.0158
3978.00,0.9943
3977.00,0.9740
3976.00,0.9550
3975.00,0.9373
3974.00,0.9211
3973.00,0.9066
3972.00,0.8938
3971.00,0.8831
3970.00,0.8744
3969.00,0.8680
3968.00,0.8638
3967.00,0.8619
3966.00,0.8623
3965.00,0.8649
3964.00,0.8697
3963.00,0.8767
3962.00,0.8859
3961.00,0.8972
3960.00,0.9103
3959.00,0.9251
3958.00,0.9413
3957.00,0.9590
3956.00,0.9778
3955.00,0.9977
3954.00,1.0182
3953.00,1.0394
3952.00,1.0610
3951.00,1.0830
3950.00,1.1054
3949.00,1.1282
3948.00,1.1515
3947.00,1.1750
3946.00,1.1985
3945.00,1.2217
3944.00,1.2449
3943.00,1.2682
3942.00,1.2919
3941.00,1.3155
3940.00,1.3386
3939.00,1.3611
3938.00,1.3830
3937.00,1.4044
3936.00,1.4253
3935.00,1.4455
3934.00,1.4651
3933.00,1.4845
3932.00,1.5038
3931.00,1.5229
3930.00,1.5416
3929.00,1.5598
3928.00,1.5771
3927.00,1.5932
3926.00,1.6079
3925.00,1.6218
3924.00,1.6353
3923.00,1.6483
3922.00,1.6606
3921.00,1.6723
3920.00,1.6833
3919.00,1.6940
3918.00,1.7046
3917.00,1.7151
3916.00,1.7253
3915.00,1.7349
3914.00,1.7435
3913.00,1.7513
3912.00,1.7585
3911.00,1.7650
3910.00,1.7704
3909.00,1.7747
3908.00,1.7778
3907.00,1.7796
3906.00,1.7807
3905.00,1.7817
3904.00,1.7831
3903.00,1.7850
3902.00,1.7867
3901.00,1.7881
3900.00,1.7898
3899.00,1.7917
3898.00,1.7932
3897.00,1.7934
3896.00,1.7920
3895.00,1.7896
3894.00,1.7865
3893.00,1.7830
3892.00,1.7793
3891.00,1.7752
3890.00,1.7704
3889.00,1.7649
3888.00,1.7588
3887.00,1.7521
3886.00,1.7451
3885.00,1.7378
3884.00,1.7299
3883.00,1.7210
3882.00,1.7111
3881.00,1.7007
3880.00,1.6905
3879.00,1.6803
3878.00,1.6698
3877.00,1.6582
3876.00,1.6449
3875.00,1.6301
3874.00,1.6145
3873.00,1.5986
3872.00,1.5817
3871.00,1.5636
3870.00,1.5445
3869.00,1.5252
3868.00,1.5058
3867.00,1.4858
3866.00,1.4648
3865.00,1.4426
3864.00,1.4196
3863.00,1.3960
3862.00,1.3718
3861.00,1.3466
3860.00,1.3202
3859.00,1.2924
3858.00,1.2641
3857.00,1.2362
3856.00,1.2088
3855.00,1.1805
3854.00,1.1503
3853.00,1.1187
3852.00,1.0875
3851.00,1.0585
3850.00,1.0325
3849.00,1.0088
3848.00,0.9867
3847.00,0.9657
3846.00,0.9454
3845.00,0.9258
3844.00,0.9070
3843.00,0.8896
3842.00,0.8740
3841.00,0.8603
3840.00,0.8488
3839.00,0.8401
3838.00,0.8346
3837.00,0.8321
3836.00,0.8326
3835.00,0.8360
3834.00,0.8425
3833.00,0.8521
3832.00,0.8650
3831.00,0.8807
3830.00,0.8981
3829.00,0.9165
3828.00,0.9357
3827.00,0.9559
3826.00,0.9775
3825.00,0.9999
3824.00,1.0224
3823.00,1.0449
3822.00,1.0693
3821.00,1.0972
3820.00,1.1273
3819.00,1.1563
3818.00,1.1826
3817.00,1.2084
3816.00,1.2368
3815.00,1.2681
3814.00,1.2993
3813.00,1.3279
3812.00,1.3535
3811.00,1.3769
3810.00,1.3991
3809.00,1.4204
3808.00,1.4420
3807.00,1.4652
3806.00,1.4896
3805.00,1.5132
3804.00,1.5340
3803.00,1.5525
3802.00,1.5715
3801.00,1.5923
3800.00,1.6135
3799.00,1.6331
3798.00,1.6505
3797.00,1.6669
3796.00,1.6831
3795.00,1.6988
3794.00,1.7136
3793.00,1.7271
3792.00,1.7396
3791.00,1.7511
3790.00,1.7618
3789.00,1.7719
3788.00,1.7813
3787.00,1.7899
3786.00,1.7975
3785.00,1.8042
3784.00,1.8104
3783.00,1.8162
3782.00,1.8214
3781.00,1.8260
3780.00,1.8303
3779.00,1.8346
3778.00,1.8391
3777.00,1.8429
3776.00,1.8456
3775.00,1.8472
3774.00,1.8479
3773.00,1.8477
3772.00,1.8464
3771.00,1.8446
3770.00,1.8427
3769.00,1.8409
3768.00,1.8387
3767.00,1.8360
3766.00,1.8328
3765.00,1.8295
3764.00,1.8257
3763.00,1.8215
3762.00,1.8167
3761.00,1.8114
3760.00,1.8057
3759.00,1.7993
3758.00,1.7919
3757.00,1.7835
3756.00,1.7745
3755.00,1.7650
3754.00,1.7551
3753.00,1.7445
3752.00,1.7330
3751.00,1.7207
3750.00,1.7078
3749.00,1.6947
3748.00,1.6821
3747.00,1.6701
3746.00,1.6583
3745.00,1.6461
3744.00,1.6331
3743.00,1.6186
3742.00,1.6028
3741.00,1.5856
3740.00,1.5671
3739.00,1.5471
3738.00,1.5245
3737.00,1.4986
3736.00,1.4698
3735.00,1.4394
3734.00,1.4085
3733.00,1.3771
3732.00,1.3449
3731.00,1.3125
3730.00,1.2802
3729.00,1.2482
3728.00,1.2159
3727.00,1.1833
3726.00,1.1508
3725.00,1.1191
3724.00,1.0887
3723.00,1.0600
3722.00,1.0333
3721.00,1.0090
3720.00,0.9869
3719.00,0.9670
3718.00,0.9486
3717.00,0.9314
3716.00,0.9156
3715.00,0.9018
3714.00,0.8904
3713.00,0.8813
3712.00,0.8741
3711.00,0.8691
3710.00,0.8670
3709.00,0.8684
3708.00,0.8737
3707.00,0.8826
3706.00,0.8948
3705.00,0.9099
3704.00,0.9281
3703.00,0.9495
3702.00,0.9742
3701.00,1.0020
3700.00,1.0317
3699.00,1.0621
3698.00,1.0927
3697.00,1.1238
3696.00,1.1553
3695.00,1.1869
3694.00,1.2179
3693.00,1.2481
3692.00,1.2777
3691.00,1.3069
3690.00,1.3373
3689.00,1.3700
3688.00,1.4050
3687.00,1.4402
3686.00,1.4731
3685.00,1.5024
3684.00,1.5289
3683.00,1.5534
3682.00,1.5762
3681.00,1.5973
3680.00,1.6169
3679.00,1.6357
3678.00,1.6532
3677.00,1.6701
3676.00,1.6884
3675.00,1.7090
3674.00,1.7298
3673.00,1.7485
3672.00,1.7644
3671.00,1.7793
3670.00,1.7953
3669.00,1.8123
3668.00,1.8287
3667.00,1.8434
3666.00,1.8564
3665.00,1.8681
3664.00,1.8789
3663.00,1.8887
3662.00,1.8973
3661.00,1.9048
3660.00,1.9114
3659.00,1.9175
3658.00,1.9231
3657.00,1.9288
3656.00,1.9346
3655.00,1.9397
3654.00,1.9437
3653.00,1.9467
3652.00,1.9494
3651.00,1.9516
3650.00,1.9536
3649.00,1.9556
3648.00,1.9580
3647.00,1.9608
3646.00,1.9637
3645.00,1.9663
3644.00,1.9682
3643.00,1.9695
3642.00,1.9701
3641.00,1.9701
3640.00,1.9692
3639.00,1.9673
3638.00,1.9643
3637.00,1.9603
3636.00,1.9549
3635.00,1.9481
3634.00,1.9400
3633.00,1.9313
3632.00,1.9223
3631.00,1.9130
3630.00,1.9036
3629.00,1.8947
3628.00,1.8866
3627.00,1.8789
3626.00,1.8711
3625.00,1.8630
3624.00,1.8546
3623.00,1.8461
3622.00,1.8376
3621.00,1.8289
3620.00,1.8200
3619.00,1.8111
3618.00,1.8024
3617.00,1.7941
3616.00,1.7855
3615.00,1.7759
3614.00,1.7650
3613.00,1.7534
3612.00,1.7416
3611.00,1.7297
3610.00,1.7170
3609.00,1.7032
3608.00,1.6887
3607.00,1.6743
3606.00,1.6604
3605.00,1.6473
3604.00,1.6345
3603.00,1.6216
3602.00,1.6083
3601.00,1.5949
3600.00,1.5818
3599.00,1.5694
3598.00,1.5575
3597.00,1.5460
3596.00,1.5347
3595.00,1.5237
3594.00,1.5130
3593.00,1.5027
3592.00,1.4930
3591.00,1.4843
3590.00,1.4765
3589.00,1.4695
3588.00,1.4633
3587.00,1.4583
3586.00,1.4545
3585.00,1.4517
3584.00,1.4498
3583.00,1.4489
3582.00,1.4492
3581.00,1.4504
3580.00,1.4527
3579.00,1.4559
3578.00,1.4600
3577.00,1.4651
3576.00,1.4710
3575.00,1.4778
3574.00,1.4854
3573.00,1.4937
3572.00,1.5027
3571.00,1.5124
3570.00,1.5230
3569.00,1.5342
3568.00,1.5462
3567.00,1.5593
3566.00,1.5734
3565.00,1.5881
3564.00,1.6032
3563.00,1.6186
3562.00,1.6340
3561.00,1.6496
3560.00,1.6653
3559.00,1.6811
3558.00,1.6969
3557.00,1.7126
3556.00,1.7281
3555.00,1.7434
3554.00,1.7584
3553.00,1.7735
3552.00,1.7888
3551.00,1.8039
3550.00,1.8184
3549.00,1.8323
3548.00,1.8458
3547.00,1.8591
3546.00,1.8726
3545.00,1.8863
3544.00,1.8996
3543.00,1.9123
3542.00,1.9242
3541.00,1.9357
3540.00,1.9468
3539.00,1.9578
3538.00,1.9685
3537.00,1.9790
3536.00,1.9892
3535.00,1.9989
3534.00,2.0076
3533.00,2.0155
3532.00,2.0227
3531.00,2.0299
3530.00,2.0373
3529.00,2.0449
3528.00,2.0524
3527.00,2.0596
3526.00,2.0661
3525.00,2.0719
3524.00,2.0771
3523.00,2.0818
3522.00,2.0864
3521.00,2.0910
3520.00,2.0955
3519.00,2.0995
3518.00,2.1028
3517.00,2.1055
3516.00,2.1078
3515.00,2.1099
3514.00,2.1117
3513.00,2.1132
3512.00,2.1144
3511.00,2.1150
3510.00,2.1153
3509.00,2.1153
3508.00,2.1153
3507.00,2.1150
3506.00,2.1144
3505.00,2.1134
3504.00,2.1121
3503.00,2.1102
3502.00,2.1077
3501.00,2.1049
3500.00,2.1020
3499.00,2.0992
3498.00,2.0962
3497.00,2.0928
3496.00,2.0887
3495.00,2.0840
3494.00,2.0789
3493.00,2.0736
3492.00,2.0682
3491.00,2.0625
3490.00,2.0561
3489.00,2.0492
3488.00,2.0421
3487.00,2.0347
3486.00,2.0271
3485.00,2.0189
3484.00,2.0103
3483.00,2.0012
3482.00,1.9919
3481.00,1.9824
3480.00,1.9723
3479.00,1.9617
3478.00,1.9505
3477.00,1.9392
3476.00,1.9276
3475.00,1.9157
3474.00,1.9034
3473.00,1.8908
3472.00,1.8780
3471.00,1.8647
3470.00,1.8508
3469.00,1.8365
3468.00,1.8222
3467.00,1.8081
3466.00,1.7940
3465.00,1.7798
3464.00,1.7653
3463.00,1.7508
3462.00,1.7364
3461.00,1.7221
3460.00,1.7080
3459.00,1.6940
3458.00,1.6800
3457.00,1.6664
3456.00,1.6531
3455.00,1.6404
3454.00,1.6283
3453.00,1.6169
3452.00,1.6062
3451.00,1.5963
3450.00,1.5870
3449.00,1.5783
3448.00,1.5703
3447.00,1.5634
3446.00,1.5578
3445.00,1.5534
3444.00,1.5501
3443.00,1.5481
3442.00,1.5472
3441.00,1.5477
3440.00,1.5495
3439.00,1.5524
3438.00,1.5564
3437.00,1.5615
3436.00,1.5679
3435.00,1.5754
3434.00,1.5840
3433.00,1.5934
3432.00,1.6037
3431.00,1.6150
3430.00,1.6274
3429.00,1.6408
3428.00,1.6550
3427.00,1.6698
3426.00,1.6849
3425.00,1.7001
3424.00,1.7154
3423.00,1.7312
3422.00,1.7477
3421.00,1.7646
3420.00,1.7816
3419.00,1.7981
3418.00,1.8142
3417.00,1.8299
3416.00,1.8455
3415.00,1.8609
3414.00,1.8757
3413.00,1.8898
3412.00,1.9032
3411.00,1.9158
3410.00,1.9277
3409.00,1.9392
3408.00,1.9504
3407.00,1.9614
3406.00,1.9719
3405.00,1.9817
3404.00,1.9904
3403.00,1.9984
3402.00,2.0059
3401.00,2.0132
3400.00,2.0202
3399.00,2.0272
3398.00,2.0341
3397.00,2.0407
3396.00,2.0469
3395.00,2.0528
3394.00,2.0585
3393.00,2.0642
3392.00,2.0701
3391.00,2.0763
3390.00,2.0826
3389.00,2.0886
3388.00,2.0938
3387.00,2.0983
3386.00,2.1026
3385.00,2.1068
3384.00,2.1107
3383.00,2.1142
3382.00,2.1173
3381.00,2.1201
3380.00,2.1225
3379.00,2.1243
3378.00,2.1256
3377.00,2.1265
3376.00,2.1272
3375.00,2.1278
3374.00,2.1282
3373.00,2.1281
3372.00,2.1274
3371.00,2.1261
3370.00,2.1244
3369.00,2.1225
3368.00,2.1203
3367.00,2.1176
3366.00,2.1141
3365.00,2.1100
3364.00,2.1052
3363.00,2.0999
3362.00,2.0943
3361.00,2.0886
3360.00,2.0829
3359.00,2.0768
3358.00,2.0698
3357.00,2.0617
3356.00,2.0523
3355.00,2.0422
3354.00,2.0320
3353.00,2.0221
3352.00,2.0124
3351.00,2.0026
3350.00,1.9923
3349.00,1.9812
3348.00,1.9692
3347.00,1.9565
3346.00,1.9431
3345.00,1.9291
3344.00,1.9144
3343.00,1.8992
3342.00,1.8836
3341.00,1.8676
3340.00,1.8513
3339.00,1.8344
3338.00,1.8169
3337.00,1.7988
3336.00,1.7804
3335.00,1.7616
3334.00,1.7426
3333.00,1.7235
3332.00,1.7042
3331.00,1.6849
3330.00,1.6654
3329.00,1.6459
3328.00,1.6263
3327.00,1.6068
3326.00,1.5875
3325.00,1.5688
3324.00,1.5509
3323.00,1.5340
3322.00,1.5179
3321.00,1.5027
3320.00,1.4885
3319.00,1.4755
3318.00,1.4638
3317.00,1.4537
3316.00,1.4452
3315.00,1.4384
3314.00,1.4333
3313.00,1.4298
3312.00,1.4280
3311.00,1.4280
3310.00,1.4297
3309.00,1.4332
3308.00,1.4386
3307.00,1.4457
3306.00,1.4542
3305.00,1.4643
3304.00,1.4758
3303.00,1.4885
3302.00,1.5023
3301.00,1.5171
3300.00,1.5329
3299.00,1.5495
3298.00,1.5670
3297.00,1.5849
3296.00,1.6032
3295.00,1.6219
3294.00,1.6409
3293.00,1.6604
3292.00,1.6803
3291.00,1.7004
3290.00,1.7203
3289.00,1.7401
3288.00,1.7595
3287.00,1.7787
3286.00,1.7976
3285.00,1.8161
3284.00,1.8342
3283.00,1.8520
3282.00,1.8697
3281.00,1.8872
3280.00,1.9042
3279.00,1.9205
3278.00,1.9362
3277.00,1.9516
3276.00,1.9666
3275.00,1.9812
3274.00,1.9949
3273.00,2.0080
3272.00,2.0203
3271.00,2.0320
3270.00,2.0433
3269.00,2.0542
3268.00,2.0649
3267.00,2.0752
3266.00,2.0851
3265.00,2.0944
3264.00,2.1031
3263.00,2.1111
3262.00,2.1186
3261.00,2.1256
3260.00,2.1324
3259.00,2.1387
3258.00,2.1443
3257.00,2.1493
3256.00,2.1538
3255.00,2.1580
3254.00,2.1618
3253.00,2.1648
3252.00,2.1670
3251.00,2.1690
3250.00,2.1711
3249.00,2.1733
3248.00,2.1749
3247.00,2.1756
3246.00,2.1757
3245.00,2.1757
3244.00,2.1755
3243.00,2.1750
3242.00,2.1738
3241.00,2.1716
3240.00,2.1684
3239.00,2.1644
3238.00,2.1605
3237.00,2.1570
3236.00,2.1537
3235.00,2.1498
3234.00,2.1451
3233.00,2.1394
3232.00,2.1332
3231.00,2.1268
3230.00,2.1203
3229.00,2.1135
3228.00,2.1057
3227.00,2.0967
3226.00,2.0870
3225.00,2.0770
3224.00,2.0672
3223.00,2.0574
3222.00,2.0473
3221.00,2.0366
3220.00,2.0250
3219.00,2.0125
3218.00,1.9993
3217.00,1.9857
3216.00,1.9719
3215.00,1.9580
3214.00,1.9437
3213.00,1.9289
3212.00,1.9133
3211.00,1.8970
3210.00,1.8802
3209.00,1.8632
3208.00,1.8461
3207.00,1.8289
3206.00,1.8117
3205.00,1.7943
3204.00,1.7766
3203.00,1.7587
3202.00,1.7406
3201.00,1.7228
3200.00,1.7053
3199.00,1.6881
3198.00,1.6712
3197.00,1.6544
3196.00,1.6381
3195.00,1.6226
3194.00,1.6080
3193.00,1.5946
3192.00,1.5823
3191.00,1.5713
3190.00,1.5616
3189.00,1.5533
3188.00,1.5464
3187.00,1.5409
3186.00,1.5368
3185.00,1.5344
3184.00,1.5335
3183.00,1.5343
3182.00,1.5366
3181.00,1.5404
3180.00,1.5458
3179.00,1.5528
3178.00,1.5611
3177.00,1.5706
3176.00,1.5815
3175.00,1.5936
3174.00,1.6069
3173.00,1.6212
3172.00,1.6363
3171.00,1.6520
3170.00,1.6682
3169.00,1.6850
3168.00,1.7023
3167.00,1.7202
3166.00,1.7383
3165.00,1.7565
3164.00,1.7747
3163.00,1.7929
3162.00,1.8112
3161.00,1.8294
3160.00,1.8474
3159.00,1.8651
3158.00,1.8828
3157.00,1.9005
3156.00,1.9183
3155.00,1.9359
3154.00,1.9532
3153.00,1.9698
3152.00,1.9859
3151.00,2.0013
3150.00,2.0160
3149.00,2.0297
3148.00,2.0426
3147.00,2.0546
3146.00,2.0662
3145.00,2.0774
3144.00,2.0883
3143.00,2.0990
3142.00,2.1098
3141.00,2.1206
3140.00,2.1312
3139.00,2.1412
3138.00,2.1501
3137.00,2.1580
3136.00,2.1646
3135.00,2.1704
3134.00,2.1759
3133.00,2.1821
3132.00,2.1889
3131.00,2.1959
3130.00,2.2024
3129.00,2.2081
3128.00,2.2128
3127.00,2.2165
3126.00,2.2195
3125.00,2.2220
3124.00,2.2246
3123.00,2.2274
3122.00,2.2306
3121.00,2.2338
3120.00,2.2363
3119.00,2.2374
3118.00,2.2370
3117.00,2.2355
3116.00,2.2334
3115.00,2.2309
3114.00,2.2279
3113.00,2.2242
3112.00,2.2200
3111.00,2.2156
3110.00,2.2112
3109.00,2.2064
3108.00,2.2007
3107.00,2.1939
3106.00,2.1864
3105.00,2.1785
3104.00,2.1702
3103.00,2.1611
3102.00,2.1513
3101.00,2.1409
3100.00,2.1304
3099.00,2.1195
3098.00,2.1081
3097.00,2.0960
3096.00,2.0833
3095.00,2.0699
3094.00,2.0561
3093.00,2.0419
3092.00,2.0271
3091.00,2.0113
3090.00,1.9945
3089.00,1.9767
3088.00,1.9585
3087.00,1.9400
3086.00,1.9213
3085.00,1.9022
3084.00,1.8827
3083.00,1.8627
3082.00,1.8423
3081.00,1.8214
3080.00,1.8004
3079.00,1.7794
3078.00,1.7589
3077.00,1.7390
3076.00,1.7198
3075.00,1.7011
3074.00,1.6829
3073.00,1.6657
3072.00,1.6499
3071.00,1.6359
3070.00,1.6236
3069.00,1.6132
3068.00,1.6047
3067.00,1.5981
3066.00,1.5937
3065.00,1.5916
3064.00,1.5918
3063.00,1.5943
3062.00,1.5989
3061.00,1.6054
3060.00,1.6140
3059.00,1.6245
3058.00,1.6367
3057.00,1.6504
3056.00,1.6654
3055.00,1.6816
3054.00,1.6990
3053.00,1.7174
3052.00,1.7366
3051.00,1.7565
3050.00,1.7769
3049.00,1.7979
3048.00,1.8197
3047.00,1.8421
3046.00,1.8648
3045.00,1.8875
3044.00,1.9101
3043.00,1.9327
3042.00,1.9549
3041.00,1.9766
3040.00,1.9977
3039.00,2.0187
3038.00,2.0395
3037.00,2.0602
3036.00,2.0805
3035.00,2.1003
3034.00,2.1191
3033.00,2.1366
3032.00,2.1532
3031.00,2.1693
3030.00,2.1849
3029.00,2.1997
3028.00,2.2133
3027.00,2.2259
3026.00,2.2379
3025.00,2.2495
3024.00,2.2606
3023.00,2.2708
3022.00,2.2797
3021.00,2.2870
3020.00,2.2927
3019.00,2.2972
3018.00,2.3011
3017.00,2.3052
3016.00,2.3096
3015.00,2.3139
3014.00,2.3170
3013.00,2.3184
3012.00,2.3181
3011.00,2.3167
3010.00,2.3144
3009.00,2.3112
3008.00,2.3070
3007.00,2.3017
3006.00,2.2953
3005.00,2.2875
3004.00,2.2786
3003.00,2.2684
3002.00,2.2568
3001.00,2.2440
3000.00,2.2301
2999.00,2.2153
2998.00,2.1995
2997.00,2.1826
2996.00,2.1647
2995.00,2.1464
2994.00,2.1288
2993.00,2.1124
2992.00,2.0978
2991.00,2.0852
2990.00,2.0752
2989.00,2.0690
2988.00,2.0678
2987.00,2.0726
2986.00,2.0839
2985.00,2.1022
2984.00,2.1276
2983.00,2.1601
2982.00,2.1990
2981.00,2.2432
2980.00,2.2917
2979.00,2.3441
2978.00,2.4007
2977.00,2.4622
2976.00,2.5283
2975.00,2.5980
2974.00,2.6704
2973.00,2.7452
2972.00,2.8218
2971.00,2.8995
2970.00,2.9780
2969.00,3.0582
2968.00,3.1417
2967.00,3.2292
2966.00,3.3200
2965.00,3.4106
2964.00,3.4977
2963.00,3.5808
2962.00,3.6620
2961.00,3.7409
2960.00,3.8084
2959.00,3.8508
2958.00,3.8639
2957.00,3.8574
2956.00,3.8440
2955.00,3.8316
2954.00,3.8263
2953.00,3.8320
2952.00,3.8426
2951.00,3.8431
2950.00,3.8305
2949.00,3.8277
2948.00,3.8608
2947.00,3.9362
2946.00,4.0292
2945.00,4.0859
2944.00,4.0692
2943.00,4.0156
2942.00,3.9820
2941.00,3.9921
2940.00,4.0306
2939.00,4.0612
2938.00,4.0672
2937.00,4.0747
2936.00,4.1266
2935.00,4.2451
2934.00,4.4113
2933.00,4.5832
2932.00,4.7324
2931.00,4.8078
2930.00,4.9162
2929.00,5.2117
2928.00,4.9751
2927.00,4.6907
2926.00,4.4473
2925.00,4.3746
2924.00,4.2989
2923.00,4.1729
2922.00,4.0316
2921.00,3.9067
2920.00,3.8190
2919.00,3.7524
2918.00,3.6872
2917.00,3.6192
2916.00,3.5512
2915.00,3.4886
2914.00,3.4343
2913.00,3.3863
2912.00,3.3421
2911.00,3.3017
2910.00,3.2666
2909.00,3.2369
2908.00,3.2107
2907.00,3.1858
2906.00,3.1612
2905.00,3.1361
2904.00,3.1098
2903.00,3.0816
2902.00,3.0506
2901.00,3.0174
2900.00,2.9836
2899.00,2.9522
2898.00,2.9260
2897.00,2.9051
2896.00,2.8862
2895.00,2.8657
2894.00,2.8436
2893.00,2.8234
2892.00,2.8076
2891.00,2.7949
2890.00,2.7824
2889.00,2.7689
2888.00,2.7566
2887.00,2.7482
2886.00,2.7452
2885.00,2.7476
2884.00,2.7549
2883.00,2.7669
2882.00,2.7837
2881.00,2.8060
2880.00,2.8346
2879.00,2.8700
2878.00,2.9118
2877.00,2.9580
2876.00,3.0073
2875.00,3.0610
2874.00,3.1223
2873.00,3.1920
2872.00,3.2656
2871.00,3.3370
2870.00,3.4061
2869.00,3.4804
2868.00,3.5671
2867.00,3.6659
2866.00,3.7668
2865.00,3.8478
2864.00,3.8785
2863.00,3.8550
2862.00,3.8109
2861.00,3.7760
2860.00,3.7462
2859.00,3.6962
2858.00,3.6141
2857.00,3.5127
2856.00,3.4080
2855.00,3.3039
2854.00,3.1974
2853.00,3.0884
2852.00,2.9814
2851.00,2.8814
2850.00,2.7896
2849.00,2.7036
2848.00,2.6210
2847.00,2.5417
2846.00,2.4666
2845.00,2.3969
2844.00,2.3331
2843.00,2.2752
2842.00,2.2238
2841.00,2.1797
2840.00,2.1438
2839.00,2.1160
2838.00,2.0961
2837.00,2.0835
2836.00,2.0773
2835.00,2.0767
2834.00,2.0808
2833.00,2.0887
2832.00,2.0996
2831.00,2.1127
2830.00,2.1269
2829.00,2.1411
2828.00,2.1546
2827.00,2.1672
2826.00,2.1792
2825.00,2.1909
2824.00,2.2023
2823.00,2.2135
2822.00,2.2246
2821.00,2.2358
2820.00,2.2470
2819.00,2.2587
2818.00,2.2714
2817.00,2.2851
2816.00,2.2989
2815.00,2.3118
2814.00,2.3235
2813.00,2.3340
2812.00,2.3440
2811.00,2.3536
2810.00,2.3627
2809.00,2.3714
2808.00,2.3796
2807.00,2.3873
2806.00,2.3943
2805.00,2.4004
2804.00,2.4052
2803.00,2.4087
2802.00,2.4111
2801.00,2.4125
2800.00,2.4129
2799.00,2.4125
2798.00,2.4115
2797.00,2.4101
2796.00,2.4077
2795.00,2.4039
2794.00,2.3989
2793.00,2.3935
2792.00,2.3881
2791.00,2.3823
2790.00,2.3753
2789.00,2.3665
2788.00,2.3562
2787.00,2.3447
2786.00,2.3323
2785.00,2.3193
2784.00,2.3056
2783.00,2.2911
2782.00,2.2756
2781.00,2.2593
2780.00,2.2425
2779.00,2.2251
2778.00,2.2068
2777.00,2.1873
2776.00,2.1665
2775.00,2.1440
2774.00,2.1201
2773.00,2.0948
2772.00,2.0685
2771.00,2.0411
2770.00,2.0126
2769.00,1.9829
2768.00,1.9519
2767.00,1.9196
2766.00,1.8860
2765.00,1.8514
2764.00,1.8164
2763.00,1.7812
2762.00,1.7457
2761.00,1.7096
2760.00,1.6728
2759.00,1.6356
2758.00,1.5985
2757.00,1.5621
2756.00,1.5270
2755.00,1.4938
2754.00,1.4634
2753.00,1.4364
2752.00,1.4134
2751.00,1.3951
2750.00,1.3816
2749.00,1.3733
2748.00,1.3704
2747.00,1.3726
2746.00,1.3800
2745.00,1.3922
2744.00,1.4088
2743.00,1.4295
2742.00,1.4536
2741.00,1.4808
2740.00,1.5105
2739.00,1.5422
2738.00,1.5755
2737.00,1.6099
2736.00,1.6450
2735.00,1.6806
2734.00,1.7162
2733.00,1.7516
2732.00,1.7866
2731.00,1.8210
2730.00,1.8550
2729.00,1.8885
2728.00,1.9212
2727.00,1.9527
2726.00,1.9830
2725.00,2.0121
2724.00,2.0402
2723.00,2.0673
2722.00,2.0934
2721.00,2.1184
2720.00,2.1424
2719.00,2.1651
2718.00,2.1863
2717.00,2.2063
2716.00,2.2254
2715.00,2.2438
2714.00,2.2612
2713.00,2.2775
2712.00,2.2929
2711.00,2.3083
2710.00,2.3241
2709.00,2.3395
2708.00,2.3533
2707.00,2.3650
2706.00,2.3745
2705.00,2.3824
2704.00,2.3895
2703.00,2.3966
2702.00,2.4045
2701.00,2.4134
2700.00,2.4223
2699.00,2.4299
2698.00,2.4354
2697.00,2.4387
2696.00,2.4411
2695.00,2.4437
2694.00,2.4470
2693.00,2.4503
2692.00,2.4527
2691.00,2.4541
2690.00,2.4552
2689.00,2.4566
2688.00,2.4582
2687.00,2.4591
2686.00,2.4588
2685.00,2.4572
2684.00,2.4547
2683.00,2.4517
2682.00,2.4484
2681.00,2.4449
2680.00,2.4410
2679.00,2.4369
2678.00,2.4325
2677.00,2.4279
2676.00,2.4232
2675.00,2.4184
2674.00,2.4134
2673.00,2.4075
2672.00,2.4004
2671.00,2.3921
2670.00,2.3831
2669.00,2.3738
2668.00,2.3640
2667.00,2.3535
2666.00,2.3419
2665.00,2.3291
2664.00,2.3146
2663.00,2.2985
2662.00,2.2810
2661.00,2.2626
2660.00,2.2435
2659.00,2.2235
2658.00,2.2027
2657.00,2.1814
2656.00,2.1596
2655.00,2.1373
2654.00,2.1143
2653.00,2.0905
2652.00,2.0659
2651.00,2.0407
2650.00,2.0146
2649.00,1.9873
2648.00,1.9586
2647.00,1.9286
2646.00,1.8972
2645.00,1.8643
2644.00,1.8297
2643.00,1.7937
2642.00,1.7567
2641.00,1.7189
2640.00,1.6807
2639.00,1.6425
2638.00,1.6048
2637.00,1.5684
2636.00,1.5339
2635.00,1.5021
2634.00,1.4735
2633.00,1.4485
2632.00,1.4276
2631.00,1.4111
2630.00,1.3995
2629.00,1.3928
2628.00,1.3912
2627.00,1.3947
2626.00,1.4032
2625.00,1.4164
2624.00,1.4338
2623.00,1.4549
2622.00,1.4791
2621.00,1.5061
2620.00,1.5352
2619.00,1.5659
2618.00,1.5977
2617.00,1.6303
2616.00,1.6634
2615.00,1.6968
2614.00,1.7302
2613.00,1.7631
2612.00,1.7955
2611.00,1.8274
2610.00,1.8589
2609.00,1.8898
2608.00,1.9201
2607.00,1.9494
2606.00,1.9780
2605.00,2.0059
2604.00,2.0332
2603.00,2.0601
2602.00,2.0867
2601.00,2.1130
2600.00,2.1389
2599.00,2.1641
2598.00,2.1884
2597.00,2.2115
2596.00,2.2332
2595.00,2.2538
2594.00,2.2736
2593.00,2.2931
2592.00,2.3121
2591.00,2.3299
2590.00,2.3461
2589.00,2.3610
2588.00,2.3753
2587.00,2.3891
2586.00,2.4024
2585.00,2.4147
2584.00,2.4265
2583.00,2.4381
2582.00,2.4495
2581.00,2.4599
2580.00,2.4687
2579.00,2.4761
2578.00,2.4835
2577.00,2.4915
2576.00,2.4992
2575.00,2.5056
2574.00,2.5104
2573.00,2.5142
2572.00,2.5178
2571.00,2.5215
2570.00,2.5256
2569.00,2.5299
2568.00,2.5334
2567.00,2.5351
2566.00,2.5350
2565.00,2.5343
2564.00,2.5342
2563.00,2.5348
2562.00,2.5356
2561.00,2.5358
2560.00,2.5348
2559.00,2.5330
2558.00,2.5308
2557.00,2.5280
2556.00,2.5237
2555.00,2.5175
2554.00,2.5102
2553.00,2.5032
2552.00,2.4975
2551.00,2.4927
2550.00,2.4878
2549.00,2.4816
2548.00,2.4736
2547.00,2.4643
2546.00,2.4550
2545.00,2.4460
2544.00,2.4362
2543.00,2.4240
2542.00,2.4099
2541.00,2.3952
2540.00,2.3812
2539.00,2.3675
2538.00,2.3533
2537.00,2.3380
2536.00,2.3217
2535.00,2.3041
2534.00,2.2853
2533.00,2.2658
2532.00,2.2458
2531.00,2.2252
2530.00,2.2030
2529.00,2.1791
2528.00,2.1538
2527.00,2.1275
2526.00,2.1004
2525.00,2.0722
2524.00,2.0428
2523.00,2.0119
2522.00,1.9791
2521.00,1.9443
2520.00,1.9074
2519.00,1.8689
2518.00,1.8289
2517.00,1.7878
2516.00,1.7456
2515.00,1.7025
2514.00,1.6588
2513.00,1.6152
2512.00,1.5724
2511.00,1.5309
2510.00,1.4914
2509.00,1.4544
2508.00,1.4208
2507.00,1.3912
2506.00,1.3661
2505.00,1.3457
2504.00,1.3305
2503.00,1.3208
2502.00,1.3168
2501.00,1.3187
2500.00,1.3265
2499.00,1.3400
2498.00,1.3588
2497.00,1.3824
2496.00,1.4101
2495.00,1.4414
2494.00,1.4756
2493.00,1.5123
2492.00,1.5507
2491.00,1.5905
2490.00,1.6311
2489.00,1.6722
2488.00,1.7137
2487.00,1.7551
2486.00,1.7962
2485.00,1.8369
2484.00,1.8769
2483.00,1.9161
2482.00,1.9541
2481.00,1.9910
2480.00,2.0265
2479.00,2.0606
2478.00,2.0933
2477.00,2.1247
2476.00,2.1550
2475.00,2.1836
2474.00,2.2105
2473.00,2.2362
2472.00,2.2612
2471.00,2.2858
2470.00,2.3094
2469.00,2.3311
2468.00,2.3506
2467.00,2.3683
2466.00,2.3851
2465.00,2.4016
2464.00,2.4179
2463.00,2.4337
2462.00,2.4489
2461.00,2.4636
2460.00,2.4777
2459.00,2.4912
2458.00,2.5037
2457.00,2.5149
2456.00,2.5247
2455.00,2.5340
2454.00,2.5438
2453.00,2.5541
2452.00,2.5639
2451.00,2.5722
2450.00,2.5792
2449.00,2.5856
2448.00,2.5917
2447.00,2.5973
2446.00,2.6021
2445.00,2.6062
2444.00,2.6096
2443.00,2.6123
2442.00,2.6146
2441.00,2.6170
2440.00,2.6193
2439.00,2.6209
2438.00,2.6214
2437.00,2.6209
2436.00,2.6193
2435.00,2.6167
2434.00,2.6133
2433.00,2.6099
2432.00,2.6072
2431.00,2.6049
2430.00,2.6026
2429.00,2.6002
2428.00,2.5972
2427.00,2.5929
2426.00,2.5870
2425.00,2.5807
2424.00,2.5749
2423.00,2.5696
2422.00,2.5634
2421.00,2.5552
2420.00,2.5452
2419.00,2.5345
2418.00,2.5241
2417.00,2.5140
2416.00,2.5032
2415.00,2.4910
2414.00,2.4771
2413.00,2.4619
2412.00,2.4461
2411.00,2.4297
2410.00,2.4128
2409.00,2.3955
2408.00,2.3777
2407.00,2.3587
2406.00,2.3385
2405.00,2.3171
2404.00,2.2950
2403.00,2.2718
2402.00,2.2469
2401.00,2.2200
2400.00,2.1914
2399.00,2.1612
2398.00,2.1295
2397.00,2.0961
2396.00,2.0610
2395.00,2.0243
2394.00,1.9861
2393.00,1.9465
2392.00,1.9059
2391.00,1.8649
2390.00,1.8247
2389.00,1.7864
2388.00,1.7517
2387.00,1.7227
2386.00,1.7009
2385.00,1.6875
2384.00,1.6833
2383.00,1.6879
2382.00,1.7003
2381.00,1.7183
2380.00,1.7391
2379.00,1.7597
2378.00,1.7774
2377.00,1.7909
2376.00,1.7999
2375.00,1.8049
2374.00,1.8075
2373.00,1.8099
2372.00,1.8137
2371.00,1.8193
2370.00,1.8266
2369.00,1.8359
2368.00,1.8470
2367.00,1.8588
2366.00,1.8709
2365.00,1.8847
2364.00,1.8992
2363.00,1.9139
2362.00,1.9313
2361.00,1.9520
2360.00,1.9754
2359.00,1.9985
2358.00,2.0180
2357.00,2.0361
2356.00,2.0530
2355.00,2.0700
2354.00,2.0902
2353.00,2.1187
2352.00,2.1539
2351.00,2.1818
2350.00,2.1997
2349.00,2.2177
2348.00,2.2461
2347.00,2.2820
2346.00,2.3107
2345.00,2.3298
2344.00,2.3448
2343.00,2.3672
2342.00,2.3998
2341.00,2.4364
2340.00,2.4737
2339.00,2.5090
2338.00,2.5453
2337.00,2.5845
2336.00,2.6286
2335.00,2.6748
2334.00,2.7317
2333.00,2.7793
2332.00,2.8597
2331.00,2.8682
2330.00,3.0175
2329.00,2.7024
2328.00,2.6165
2327.00,2.6193
2326.00,2.8529
2325.00,3.1889
2324.00,3.0743
2323.00,3.1778
2322.00,3.1504
2321.00,3.1848
2320.00,3.1807
2319.00,3.1885
2318.00,3.1860
2317.00,3.1822
2316.00,3.1819
2315.00,3.1860
2314.00,3.1933
2313.00,3.1973
2312.00,3.1942
2311.00,3.1822
2310.00,3.1643
2309.00,3.1436
2308.00,3.1223
2307.00,3.0996
2306.00,3.0737
2305.00,3.0443
2304.00,3.0140
2303.00,2.9859
2302.00,2.9614
2301.00,2.9379
2300.00,2.9128
2299.00,2.8848
2298.00,2.8557
2297.00,2.8275
2296.00,2.8013
2295.00,2.7777
2294.00,2.7568
2293.00,2.7381
2292.00,2.7191
2291.00,2.6977
2290.00,2.6741
2289.00,2.6511
2288.00,2.6311
2287.00,2.6144
2286.00,2.5987
2285.00,2.5820
2284.00,2.5632
2283.00,2.5425
2282.00,2.5204
2281.00,2.4971
2280.00,2.4728
2279.00,2.4476
2278.00,2.4219
2277.00,2.3961
2276.00,2.3699
2275.00,2.3429
2274.00,2.3147
2273.00,2.2851
2272.00,2.2544
2271.00,2.2224
2270.00,2.1894
2269.00,2.1554
2268.00,2.1203
2267.00,2.0835
2266.00,2.0446
2265.00,2.0033
2264.00,1.9597
2263.00,1.9140
2262.00,1.8665
2261.00,1.8180
2260.00,1.7692
2259.00,1.7207
2258.00,1.6735
2257.00,1.6285
2256.00,1.5871
2255.00,1.5501
2254.00,1.5179
2253.00,1.4899
2252.00,1.4651
2251.00,1.4429
2250.00,1.4237
2249.00,1.4088
2248.00,1.3998
2247.00,1.3981
2246.00,1.4041
2245.00,1.4175
2244.00,1.4379
2243.00,1.4644
2242.00,1.4963
2241.00,1.5326
2240.00,1.5725
2239.00,1.6151
2238.00,1.6596
2237.00,1.7054
2236.00,1.7521
2235.00,1.7991
2234.00,1.8461
2233.00,1.8927
2232.00,1.9388
2231.00,1.9840
2230.00,2.0277
2229.00,2.0695
2228.00,2.1097
2227.00,2.1487
2226.00,2.1867
2225.00,2.2233
2224.00,2.2581
2223.00,2.2912
2222.00,2.3229
2221.00,2.3529
2220.00,2.3808
2219.00,2.4067
2218.00,2.4312
2217.00,2.4551
2216.00,2.4784
2215.00,2.5006
2214.00,2.5217
2213.00,2.5420
2212.00,2.5613
2211.00,2.5792
2210.00,2.5957
2209.00,2.6112
2208.00,2.6263
2207.00,2.6407
2206.00,2.6535
2205.00,2.6640
2204.00,2.6730
2203.00,2.6820
2202.00,2.6928
2201.00,2.7062
2200.00,2.7211
2199.00,2.7346
2198.00,2.7448
2197.00,2.7521
2196.00,2.7585
2195.00,2.7655
2194.00,2.7724
2193.00,2.7777
2192.00,2.7810
2191.00,2.7836
2190.00,2.7867
2189.00,2.7904
2188.00,2.7932
2187.00,2.7944
2186.00,2.7950
2185.00,2.7971
2184.00,2.8014
2183.00,2.8053
2182.00,2.8056
2181.00,2.8019
2180.00,2.7971
2179.00,2.7941
2178.00,2.7931
2177.00,2.7925
2176.00,2.7912
2175.00,2.7890
2174.00,2.7857
2173.00,2.7808
2172.00,2.7744
2171.00,2.7676
2170.00,2.7616
2169.00,2.7569
2168.00,2.7527
2167.00,2.7473
2166.00,2.7394
2165.00,2.7296
2164.00,2.7195
2163.00,2.7098
2162.00,2.6996
2161.00,2.6874
2160.00,2.6733
2159.00,2.6587
2158.00,2.6448
2157.00,2.6310
2156.00,2.6162
2155.00,2.5998
2154.00,2.5824
2153.00,2.5641
2152.00,2.5445
2151.00,2.5229
2150.00,2.4996
2149.00,2.4751
2148.00,2.4499
2147.00,2.4239
2146.00,2.3970
2145.00,2.3689
2144.00,2.3393
2143.00,2.3079
2142.00,2.2744
2141.00,2.2389
2140.00,2.2016
2139.00,2.1624
2138.00,2.1215
2137.00,2.0791
2136.00,2.0351
2135.00,1.9895
2134.00,1.9421
2133.00,1.8934
2132.00,1.8437
2131.00,1.7936
2130.00,1.7436
2129.00,1.6944
2128.00,1.6469
2127.00,1.6022
2126.00,1.5611
2125.00,1.5249
2124.00,1.4947
2123.00,1.4713
2122.00,1.4555
2121.00,1.4479
2120.00,1.4486
2119.00,1.4575
2118.00,1.4741
2117.00,1.4980
2116.00,1.5283
2115.00,1.5642
2114.00,1.6045
2113.00,1.6485
2112.00,1.6951
2111.00,1.7435
2110.00,1.7929
2109.00,1.8429
2108.00,1.8929
2107.00,1.9425
2106.00,1.9914
2105.00,2.0393
2104.00,2.0861
2103.00,2.1315
2102.00,2.1753
2101.00,2.2170
2100.00,2.2567
2099.00,2.2947
2098.00,2.3311
2097.00,2.3656
2096.00,2.3978
2095.00,2.4277
2094.00,2.4559
2093.00,2.4825
2092.00,2.5076
2091.00,2.5311
2090.00,2.5531
2089.00,2.5740
2088.00,2.5943
2087.00,2.6145
2086.00,2.6346
2085.00,2.6539
2084.00,2.6719
2083.00,2.6889
2082.00,2.7049
2081.00,2.7203
2080.00,2.7354
2079.00,2.7508
2078.00,2.7661
2077.00,2.7796
2076.00,2.7903
2075.00,2.7997
2074.00,2.8099
2073.00,2.8216
2072.00,2.8334
2071.00,2.8436
2070.00,2.8523
2069.00,2.8600
2068.00,2.8664
2067.00,2.8714
2066.00,2.8756
2065.00,2.8807
2064.00,2.8871
2063.00,2.8934
2062.00,2.8974
2061.00,2.8981
2060.00,2.8971
2059.00,2.8969
2058.00,2.8980
2057.00,2.8989
2056.00,2.8987
2055.00,2.8988
2054.00,2.9012
2053.00,2.9045
2052.00,2.9055
2051.00,2.9026
2050.00,2.8973
2049.00,2.8919
2048.00,2.8872
2047.00,2.8822
2046.00,2.8763
2045.00,2.8686
2044.00,2.8595
2043.00,2.8502
2042.00,2.8422
2041.00,2.8362
2040.00,2.8311
2039.00,2.8254
2038.00,2.8182
2037.00,2.8091
2036.00,2.7977
2035.00,2.7847
2034.00,2.7712
2033.00,2.7573
2032.00,2.7418
2031.00,2.7241
2030.00,2.7054
2029.00,2.6870
2028.00,2.6686
2027.00,2.6491
2026.00,2.6282
2025.00,2.6074
2024.00,2.5873
2023.00,2.5674
2022.00,2.5460
2021.00,2.5221
2020.00,2.4954
2019.00,2.4661
2018.00,2.4348
2017.00,2.4018
2016.00,2.3674
2015.00,2.3312
2014.00,2.2928
2013.00,2.2520
2012.00,2.2091
2011.00,2.1644
2010.00,2.1177
2009.00,2.0690
2008.00,2.0180
2007.00,1.9650
2006.00,1.9105
2005.00,1.8553
2004.00,1.8004
2003.00,1.7469
2002.00,1.6962
2001.00,1.6495
2000.00,1.6081
1999.00,1.5731
1998.00,1.5457
1997.00,1.5265
1996.00,1.5163
1995.00,1.5151
1994.00,1.5235
1993.00,1.5416
1992.00,1.5691
1991.00,1.6043
1990.00,1.6457
1989.00,1.6918
1988.00,1.7415
1987.00,1.7939
1986.00,1.8478
1985.00,1.9026
1984.00,1.9575
1983.00,2.0117
1982.00,2.0644
1981.00,2.1153
1980.00,2.1645
1979.00,2.2118
1978.00,2.2567
1977.00,2.2989
1976.00,2.3383
1975.00,2.3748
1974.00,2.4088
1973.00,2.4415
1972.00,2.4740
1971.00,2.5053
1970.00,2.5342
1969.00,2.5610
1968.00,2.5876
1967.00,2.6148
1966.00,2.6417
1965.00,2.6677
1964.00,2.6927
1963.00,2.7169
1962.00,2.7396
1961.00,2.7607
1960.00,2.7801
1959.00,2.7967
1958.00,2.8094
1957.00,2.8196
1956.00,2.8303
1955.00,2.8433
1954.00,2.8579
1953.00,2.8724
1952.00,2.8860
1951.00,2.8973
1950.00,2.9058
1949.00,2.9129
1948.00,2.9208
1947.00,2.9299
1946.00,2.9390
1945.00,2.9478
1944.00,2.9577
1943.00,2.9681
1942.00,2.9764
1941.00,2.9807
1940.00,2.9822
1939.00,2.9827
1938.00,2.9824
1937.00,2.9821
1936.00,2.9832
1935.00,2.9865
1934.00,2.9906
1933.00,2.9933
1932.00,2.9934
1931.00,2.9904
1930.00,2.9850
1929.00,2.9802
1928.00,2.9787
1927.00,2.9794
1926.00,2.9780
1925.00,2.9726
1924.00,2.9660
1923.00,2.9607
1922.00,2.9559
1921.00,2.9494
1920.00,2.9416
1919.00,2.9345
1918.00,2.9282
1917.00,2.9214
1916.00,2.9131
1915.00,2.9028
1914.00,2.8900
1913.00,2.8745
1912.00,2.8578
1911.00,2.8417
1910.00,2.8270
1909.00,2.8133
1908.00,2.7991
1907.00,2.7822
1906.00,2.7617
1905.00,2.7385
1904.00,2.7149
1903.00,2.6914
1902.00,2.6673
1901.00,2.6416
1900.00,2.6139
1899.00,2.5842
1898.00,2.5515
1897.00,2.5159
1896.00,2.4778
1895.00,2.4378
1894.00,2.3958
1893.00,2.3516
1892.00,2.3050
1891.00,2.2553
1890.00,2.2020
1889.00,2.1463
1888.00,2.0896
1887.00,2.0329
1886.00,1.9767
1885.00,1.9222
1884.00,1.8708
1883.00,1.8239
1882.00,1.7824
1881.00,1.7475
1880.00,1.7207
1879.00,1.7026
1878.00,1.6938
1877.00,1.6944
1876.00,1.7040
1875.00,1.7216
1874.00,1.7461
1873.00,1.7761
1872.00,1.8106
1871.00,1.8489
1870.00,1.8909
1869.00,1.9365
1868.00,1.9848
1867.00,2.0342
1866.00,2.0834
1865.00,2.1327
1864.00,2.1822
1863.00,2.2317
1862.00,2.2812
1861.00,2.3305
1860.00,2.3796
1859.00,2.4274
1858.00,2.4729
1857.00,2.5158
1856.00,2.5567
1855.00,2.5955
1854.00,2.6320
1853.00,2.6657
1852.00,2.6976
1851.00,2.7289
1850.00,2.7592
1849.00,2.7873
1848.00,2.8130
1847.00,2.8378
1846.00,2.8632
1845.00,2.8884
1844.00,2.9116
1843.00,2.9320
1842.00,2.9509
1841.00,2.9692
1840.00,2.9857
1839.00,2.9988
1838.00,3.0087
1837.00,3.0168
1836.00,3.0251
1835.00,3.0346
1834.00,3.0444
1833.00,3.0530
1832.00,3.0599
1831.00,3.0664
1830.00,3.0738
1829.00,3.0820
1828.00,3.0907
1827.00,3.0984
1826.00,3.1025
1825.00,3.1008
1824.00,3.0951
1823.00,3.0908
1822.00,3.0918
1821.00,3.0957
1820.00,3.0982
1819.00,3.0975
1818.00,3.0957
1817.00,3.0941
1816.00,3.0916
1815.00,3.0862
1814.00,3.0774
1813.00,3.0659
1812.00,3.0528
1811.00,3.0398
1810.00,3.0290
1809.00,3.0212
1808.00,3.0157
1807.00,3.0093
1806.00,2.9985
1805.00,2.9826
1804.00,2.9634
1803.00,2.9430
1802.00,2.9207
1801.00,2.8953
1800.00,2.8671
1799.00,2.8376
1798.00,2.8070
1797.00,2.7739
1796.00,2.7376
1795.00,2.6973
1794.00,2.6508
1793.00,2.5968
1792.00,2.5367
1791.00,2.4749
1790.00,2.4147
1789.00,2.3574
1788.00,2.3031
1787.00,2.2536
1786.00,2.2117
1785.00,2.1814
1784.00,2.1654
1783.00,2.1651
1782.00,2.1807
1781.00,2.2120
1780.00,2.2578
1779.00,2.3153
1778.00,2.3809
1777.00,2.4524
1776.00,2.5277
1775.00,2.6029
1774.00,2.6745
1773.00,2.7417
1772.00,2.8058
1771.00,2.8665
1770.00,2.9220
1769.00,2.9721
1768.00,3.0183
1767.00,3.0604
1766.00,3.0978
1765.00,3.1302
1764.00,3.1566
1763.00,3.1762
1762.00,3.1917
1761.00,3.2098
1760.00,3.2352
1759.00,3.2660
1758.00,3.2957
1757.00,3.3197
1756.00,3.3380
1755.00,3.3539
1754.00,3.3717
1753.00,3.3960
1752.00,3.4296
1751.00,3.4678
1750.00,3.5006
1749.00,3.5265
1748.00,3.5551
1747.00,3.5940
1746.00,3.6389
1745.00,3.6815
1744.00,3.7252
1743.00,3.7842
1742.00,3.8674
1741.00,3.9650
1740.00,4.0526
1739.00,4.1125
1738.00,4.1550
1737.00,4.2082
1736.00,4.2889
1735.00,4.3324
1734.00,4.2731
1733.00,4.2421
1732.00,4.3310
1731.00,4.5235
1730.00,4.8324
1729.00,5.1711
1728.00,4.7690
1727.00,4.5235
1726.00,4.4667
1725.00,4.4880
1724.00,4.5227
1723.00,4.5274
1722.00,4.5322
1721.00,4.5561
1720.00,4.4731
1719.00,4.3353
1718.00,4.3088
1717.00,4.4584
1716.00,4.8948
1715.00,5.1415
1714.00,4.8598
1713.00,4.7593
1712.00,4.6267
1711.00,4.5349
1710.00,4.5020
1709.00,4.5223
1708.00,4.6481
1707.00,4.9767
1706.00,4.8696
1705.00,4.5927
1704.00,4.5881
1703.00,4.6876
1702.00,4.7795
1701.00,4.7579
1700.00,4.7071
1699.00,4.7904
1698.00,5.0089
1697.00,5.0516
1696.00,4.8423
1695.00,4.6806
1694.00,4.5132
1693.00,4.3322
1692.00,4.1747
1691.00,4.0310
1690.00,3.9002
1689.00,3.8038
1688.00,3.7497
1687.00,3.7206
1686.00,3.6870
1685.00,3.6326
1684.00,3.5746
1683.00,3.5451
1682.00,3.5521
1681.00,3.5736
1680.00,3.5797
1679.00,3.5583
1678.00,3.5220
1677.00,3.4883
1676.00,3.4633
1675.00,3.4421
1674.00,3.4169
1673.00,3.3879
1672.00,3.3601
1671.00,3.3345
1670.00,3.3054
1669.00,3.2677
1668.00,3.2225
1667.00,3.1752
1666.00,3.1278
1665.00,3.0771
1664.00,3.0194
1663.00,2.9541
1662.00,2.8852
1661.00,2.8190
1660.00,2.7593
1659.00,2.7083
1658.00,2.6690
1657.00,2.6468
1656.00,2.6426
1655.00,2.6508
1654.00,2.6621
1653.00,2.6695
1652.00,2.6745
1651.00,2.6846
1650.00,2.7064
1649.00,2.7398
1648.00,2.7788
1647.00,2.8166
1646.00,2.8493
1645.00,2.8762
1644.00,2.9007
1643.00,2.9272
1642.00,2.9578
1641.00,2.9915
1640.00,3.0259
1639.00,3.0581
1638.00,3.0851
1637.00,3.1046
1636.00,3.1167
1635.00,3.1254
1634.00,3.1354
1633.00,3.1486
1632.00,3.1640
1631.00,3.1798
1630.00,3.1935
1629.00,3.2025
1628.00,3.2055
1627.00,3.2053
1626.00,3.2076
1625.00,3.2154
1624.00,3.2271
1623.00,3.2392
1622.00,3.2504
1621.00,3.2631
1620.00,3.2792
1619.00,3.2945
1618.00,3.3008
1617.00,3.2938
1616.00,3.2780
1615.00,3.2615
1614.00,3.2490
1613.00,3.2421
1612.00,3.2415
1611.00,3.2467
1610.00,3.2550
1609.00,3.2633
1608.00,3.2701
1607.00,3.2726
1606.00,3.2671
1605.00,3.2530
1604.00,3.2353
1603.00,3.2190
1602.00,3.2037
1601.00,3.1868
1600.00,3.1701
1599.00,3.1582
1598.00,3.1515
1597.00,3.1451
1596.00,3.1338
1595.00,3.1165
1594.00,3.0954
1593.00,3.0723
1592.00,3.0480
1591.00,3.0226
1590.00,2.9956
1589.00,2.9671
1588.00,2.9377
1587.00,2.9070
1586.00,2.8731
1585.00,2.8350
1584.00,2.7940
1583.00,2.7511
1582.00,2.7056
1581.00,2.6582
1580.00,2.6125
1579.00,2.5691
1578.00,2.5210
1577.00,2.4569
1576.00,2.3750
1575.00,2.2879
1574.00,2.2106
1573.00,2.1467
1572.00,2.0910
1571.00,2.0381
1570.00,1.9882
1569.00,1.9461
1568.00,1.9179
1567.00,1.9068
1566.00,1.9128
1565.00,1.9345
1564.00,1.9708
1563.00,2.0199
1562.00,2.0768
1561.00,2.1360
1560.00,2.1979
1559.00,2.2638
1558.00,2.3332
1557.00,2.3991
1556.00,2.4565
1555.00,2.5087
1554.00,2.5590
1553.00,2.6081
1552.00,2.6544
1551.00,2.6985
1550.00,2.7425
1549.00,2.7868
1548.00,2.8280
1547.00,2.8634
1546.00,2.8952
1545.00,2.9297
1544.00,2.9707
1543.00,3.0167
1542.00,3.0615
1541.00,3.0973
1540.00,3.1197
1539.00,3.1331
1538.00,3.1432
1537.00,3.1524
1536.00,3.1599
1535.00,3.1665
1534.00,3.1765
1533.00,3.1954
1532.00,3.2230
1531.00,3.2519
1530.00,3.2749
1529.00,3.2916
1528.00,3.3077
1527.00,3.3265
1526.00,3.3442
1525.00,3.3538
1524.00,3.3540
1523.00,3.3523
1522.00,3.3577
1521.00,3.3717
1520.00,3.3832
1519.00,3.3801
1518.00,3.3656
1517.00,3.3524
1516.00,3.3518
1515.00,3.3675
1514.00,3.3912
1513.00,3.4052
1512.00,3.3981
1511.00,3.3779
1510.00,3.3630
1509.00,3.3630
1508.00,3.3721
1507.00,3.3741
1506.00,3.3586
1505.00,3.3305
1504.00,3.3048
1503.00,3.2914
1502.00,3.2902
1501.00,3.2968
1500.00,3.3065
1499.00,3.3139
1498.00,3.3100
1497.00,3.2861
1496.00,3.2461
1495.00,3.2062
1494.00,3.1778
1493.00,3.1577
1492.00,3.1367
1491.00,3.1117
1490.00,3.0848
1489.00,3.0577
1488.00,3.0283
1487.00,2.9942
1486.00,2.9556
1485.00,2.9144
1484.00,2.8722
1483.00,2.8292
1482.00,2.7841
1481.00,2.7353
1480.00,2.6836
1479.00,2.6321
1478.00,2.5852
1477.00,2.5480
1476.00,2.5240
1475.00,2.5145
1474.00,2.5187
1473.00,2.5373
1472.00,2.5717
1471.00,2.6218
1470.00,2.6862
1469.00,2.7640
1468.00,2.8528
1467.00,2.9477
1466.00,3.0440
1465.00,3.1363
1464.00,3.2129
1463.00,3.2599
1462.00,3.2796
1461.00,3.2925
1460.00,3.3154
1459.00,3.3528
1458.00,3.4074
1457.00,3.4904
1456.00,3.6167
1455.00,3.7897
1454.00,3.9831
1453.00,4.1438
1452.00,4.2566
1451.00,4.3538
1450.00,4.4347
1449.00,4.4199
1448.00,4.2434
1447.00,4.0052
1446.00,3.8029
1445.00,3.6510
1444.00,3.5355
1443.00,3.4460
1442.00,3.3816
1441.00,3.3433
1440.00,3.3263
1439.00,3.3222
1438.00,3.3287
1437.00,3.3552
1436.00,3.4110
1435.00,3.4909
1434.00,3.5760
1433.00,3.6511
1432.00,3.7150
1431.00,3.7740
1430.00,3.8228
1429.00,3.8447
1428.00,3.8346
1427.00,3.8068
1426.00,3.7851
1425.00,3.7901
1424.00,3.8306
1423.00,3.8965
1422.00,3.9469
1421.00,3.9293
1420.00,3.8385
1419.00,3.7155
1418.00,3.6022
1417.00,3.5161
1416.00,3.4525
1415.00,3.3986
1414.00,3.3445
1413.00,3.2894
1412.00,3.2423
1411.00,3.2132
1410.00,3.2044
1409.00,3.2086
1408.00,3.2172
1407.00,3.2282
1406.00,3.2455
1405.00,3.2710
1404.00,3.3020
1403.00,3.3336
1402.00,3.3617
1401.00,3.3840
1400.00,3.4024
1399.00,3.4215
1398.00,3.4415
1397.00,3.4534
1396.00,3.4497
1395.00,3.4396
1394.00,3.4412
1393.00,3.4611
1392.00,3.4871
1391.00,3.5011
1390.00,3.4976
1389.00,3.4854
1388.00,3.4776
1387.00,3.4840
1386.00,3.5066
1385.00,3.5357
1384.00,3.5552
1383.00,3.5566
1382.00,3.5457
1381.00,3.5319
1380.00,3.5244
1379.00,3.5302
1378.00,3.5462
1377.00,3.5590
1376.00,3.5599
1375.00,3.5563
1374.00,3.5584
1373.00,3.5612
1372.00,3.5512
1371.00,3.5290
1370.00,3.5099
1369.00,3.5057
1368.00,3.5136
1367.00,3.5212
1366.00,3.5158
1365.00,3.4935
1364.00,3.4619
1363.00,3.4326
1362.00,3.4090
1361.00,3.3844
1360.00,3.3535
1359.00,3.3217
1358.00,3.2991
1357.00,3.2877
1356.00,3.2810
1355.00,3.2757
1354.00,3.2784
1353.00,3.2984
1352.00,3.3409
1351.00,3.4092
1350.00,3.5062
1349.00,3.6248
1348.00,3.7325
1347.00,3.7891
1346.00,3.7971
1345.00,3.7827
1344.00,3.7507
1343.00,3.7026
1342.00,3.6635
1341.00,3.6636
1340.00,3.7093
1339.00,3.7748
1338.00,3.8194
1337.00,3.8188
1336.00,3.7697
1335.00,3.6787
1334.00,3.5653
1333.00,3.4544
1332.00,3.3603
1331.00,3.2846
1330.00,3.2236
1329.00,3.1746
1328.00,3.1393
1327.00,3.1227
1326.00,3.1282
1325.00,3.1553
1324.00,3.2000
1323.00,3.2568
1322.00,3.3231
1321.00,3.4001
1320.00,3.4901
1319.00,3.5946
1318.00,3.7169
1317.00,3.8595
1316.00,4.0082
1315.00,4.1155
1314.00,4.1343
1313.00,4.1044
1312.00,4.1091
1311.00,4.1746
1310.00,4.2518
1309.00,4.2461
1308.00,4.1440
1307.00,4.0106
1306.00,3.8728
1305.00,3.7299
1304.00,3.5897
1303.00,3.4649
1302.00,3.3619
1301.00,3.2768
1300.00,3.2013
1299.00,3.1313
1298.00,3.0701
1297.00,3.0230
1296.00,2.9924
1295.00,2.9775
1294.00,2.9745
1293.00,2.9797
1292.00,2.9920
1291.00,3.0137
1290.00,3.0475
1289.00,3.0922
1288.00,3.1428
1287.00,3.1943
1286.00,3.2458
1285.00,3.2970
1284.00,3.3438
1283.00,3.3798
1282.00,3.4047
1281.00,3.4265
1280.00,3.4530
1279.00,3.4834
1278.00,3.5096
1277.00,3.5253
1276.00,3.5328
1275.00,3.5424
1274.00,3.5637
1273.00,3.5974
1272.00,3.6353
1271.00,3.6707
1270.00,3.7035
1269.00,3.7309
1268.00,3.7430
1267.00,3.7450
1266.00,3.7559
1265.00,3.7800
1264.00,3.7993
1263.00,3.7996
1262.00,3.7872
1261.00,3.7688
1260.00,3.7414
1259.00,3.7060
1258.00,3.6796
1257.00,3.6798
1256.00,3.7051
1255.00,3.7373
1254.00,3.7651
1253.00,3.7909
1252.00,3.8115
1251.00,3.8227
1250.00,3.8258
1249.00,3.8256
1248.00,3.8334
1247.00,3.8582
1246.00,3.8901
1245.00,3.9011
1244.00,3.8770
1243.00,3.8354
1242.00,3.8062
1241.00,3.8044
1240.00,3.8212
1239.00,3.8387
1238.00,3.8489
1237.00,3.8540
1236.00,3.8544
1235.00,3.8422
1234.00,3.8225
1233.00,3.8204
1232.00,3.8418
1231.00,3.8665
1230.00,3.8880
1229.00,3.9292
1228.00,4.0154
1227.00,4.1483
1226.00,4.2903
1225.00,4.3901
1224.00,4.4452
1223.00,4.4531
1222.00,4.4073
1221.00,4.3453
1220.00,4.3337
1219.00,4.4395
1218.00,4.6627
1217.00,4.5532
1216.00,4.2237
1215.00,4.0251
1214.00,3.9365
1213.00,3.9267
1212.00,3.9777
1211.00,4.0590
1210.00,4.0898
1209.00,4.0303
1208.00,3.9655
1207.00,3.9447
1206.00,3.9374
1205.00,3.9054
1204.00,3.8563
1203.00,3.8119
1202.00,3.7793
1201.00,3.7511
1200.00,3.7284
1199.00,3.7266
1198.00,3.7483
1197.00,3.7639
1196.00,3.7421
1195.00,3.6979
1194.00,3.6592
1193.00,3.6292
1192.00,3.5992
1191.00,3.5692
1190.00,3.5477
1189.00,3.5400
1188.00,3.5377
1187.00,3.5228
1186.00,3.4869
1185.00,3.4420
1184.00,3.4062
1183.00,3.3883
1182.00,3.3841
1181.00,3.3813
1180.00,3.3732
1179.00,3.3673
1178.00,3.3742
1177.00,3.3893
1176.00,3.3936
1175.00,3.3811
1174.00,3.3672
1173.00,3.3617
1172.00,3.3583
1171.00,3.3491
1170.00,3.3390
1169.00,3.3400
1168.00,3.3582
1167.00,3.3904
1166.00,3.4294
1165.00,3.4685
1164.00,3.5031
1163.00,3.5277
1162.00,3.5347
1161.00,3.5200
1160.00,3.4928
1159.00,3.4722
1158.00,3.4764
1157.00,3.5143
1156.00,3.5787
1155.00,3.6435
1154.00,3.6781
1153.00,3.6717
1152.00,3.6366
1151.00,3.5954
1150.00,3.5746
1149.00,3.5947
1148.00,3.6633
1147.00,3.7774
1146.00,3.9268
1145.00,4.0854
1144.00,4.1891
1143.00,4.1695
1142.00,4.1426
1141.00,4.1735
1140.00,4.1451
1139.00,4.0501
1138.00,3.9516
1137.00,3.8462
1136.00,3.7696
1135.00,3.7408
1134.00,3.7397
1133.00,3.7501
1132.00,3.7764
1131.00,3.8196
1130.00,3.8738
1129.00,3.9342
1128.00,3.9915
1127.00,4.0523
1126.00,4.1441
1125.00,4.2363
1124.00,4.2731
1123.00,4.3404
1122.00,4.4800
1121.00,4.6509
1120.00,4.8433
1119.00,5.0977
1118.00,5.4108
1117.00,4.7415
1116.00,4.3263
1115.00,4.0803
1114.00,3.9524
1113.00,3.9185
1112.00,3.9519
1111.00,4.0416
1110.00,4.1926
1109.00,4.3674
1108.00,4.4729
1107.00,4.4907
1106.00,4.4128
1105.00,4.4051
1104.00,4.5089
1103.00,4.4829
1102.00,4.2817
1101.00,4.1339
1100.00,4.0907
1099.00,4.1210
1098.00,4.0996
1097.00,3.9627
1096.00,3.8441
1095.00,3.8054
1094.00,3.8408
1093.00,3.9231
1092.00,4.0219
1091.00,4.1538
1090.00,4.3743
1089.00,4.4422
1088.00,4.2303
1087.00,4.0899
1086.00,3.9931
1085.00,3.9176
1084.00,3.8941
1083.00,3.9124
1082.00,3.9255
1081.00,3.9367
1080.00,3.9726
1079.00,4.0094
1078.00,3.9868
1077.00,3.8848
1076.00,3.7979
1075.00,3.8090
1074.00,3.9176
1073.00,4.0075
1072.00,4.0357
1071.00,4.0788
1070.00,4.0777
1069.00,4.0213
1068.00,3.9655
1067.00,3.9491
1066.00,3.9802
1065.00,4.0191
1064.00,4.0014
1063.00,3.9162
1062.00,3.8217
1061.00,3.7555
1060.00,3.7170
1059.00,3.6903
1058.00,3.6799
1057.00,3.7174
1056.00,3.8522
1055.00,4.1156
1054.00,4.3128
1053.00,4.3922
1052.00,4.3549
1051.00,4.0857
1050.00,3.9450
1049.00,3.8807
1048.00,3.8083
1047.00,3.7082
1046.00,3.6113
1045.00,3.5529
1044.00,3.5336
1043.00,3.5351
1042.00,3.5316
1041.00,3.5075
1040.00,3.4669
1039.00,3.4251
1038.00,3.3947
1037.00,3.3797
1036.00,3.3768
1035.00,3.3794
1034.00,3.3850
1033.00,3.3985
1032.00,3.4283
1031.00,3.4813
1030.00,3.5592
1029.00,3.6571
1028.00,3.7636
1027.00,3.8621
1026.00,3.9394
1025.00,4.0007
1024.00,4.0557
1023.00,4.1024
1022.00,4.1627
1021.00,4.2638
1020.00,4.2869
1019.00,4.1474
1018.00,4.0245
1017.00,3.9820
1016.00,3.9988
1015.00,4.0092
1014.00,3.9719
1013.00,3.9291
1012.00,3.9111
1011.00,3.9237
1010.00,3.9802
1009.00,4.0861
1008.00,4.2149
1007.00,4.2724
1006.00,4.1364
1005.00,3.9732
1004.00,3.9013
1003.00,3.8999
1002.00,3.9237
1001.00,3.9476
1000.00,3.9836
999.00,4.0597
998.00,4.1642
997.00,4.1952
996.00,4.1278
995.00,4.1071
994.00,4.1854
993.00,4.4588
992.00,4.7433
991.00,4.2940
990.00,4.0523
989.00,3.9496
988.00,3.9400
987.00,4.0244
986.00,4.1456
985.00,4.2360
984.00,4.2825
983.00,4.3824
982.00,4.6441
981.00,4.6364
980.00,4.2992
979.00,4.1257
978.00,4.0595
977.00,4.0757
976.00,4.1462
975.00,4.1766
974.00,4.0993
973.00,3.9830
972.00,3.9208
971.00,3.9344
970.00,4.0081
969.00,4.1266
968.00,4.3176
967.00,4.6414
966.00,5.2576
965.00,5.2052
964.00,4.4835
963.00,4.1833
962.00,4.0795
961.00,4.1099
960.00,4.2509
959.00,4.3476
958.00,4.2890
957.00,4.2643
956.00,4.3496
955.00,4.4357
954.00,4.4516
953.00,4.4648
952.00,4.2676
951.00,4.0716
950.00,4.0395
949.00,4.1737
948.00,4.5103
947.00,5.0145
946.00,4.8805
945.00,4.4362
944.00,4.1778
943.00,4.0507
942.00,4.0014
941.00,4.0043
940.00,4.0506
939.00,4.1184
938.00,4.1527
937.00,4.1404
936.00,4.1187
935.00,4.1153
934.00,4.1431
933.00,4.1992
932.00,4.2265
931.00,4.1727
930.00,4.1565
929.00,4.2907
928.00,4.7155
927.00,5.0863
926.00,4.4856
925.00,4.2175
924.00,4.1311
923.00,4.1987
922.00,4.4004
921.00,4.4944
920.00,4.5816
919.00,4.7661
918.00,4.5122
917.00,4.2909
916.00,4.1968
915.00,4.1240
914.00,4.0742
913.00,4.0994
912.00,4.3015
911.00,4.4329
910.00,4.1778
909.00,4.0485
908.00,4.0270
907.00,4.0561
906.00,4.1170
905.00,4.1686
904.00,4.2466
903.00,4.3927
902.00,4.4598
901.00,4.3287
900.00,4.2447
899.00,4.2727
898.00,4.3443
897.00,4.3883
896.00,4.3499
895.00,4.1262
894.00,3.9381
893.00,3.8912
892.00,3.9547
891.00,4.0569
890.00,4.1307
889.00,4.1703
888.00,4.1718
887.00,4.1582
886.00,4.2055
885.00,4.2975
884.00,4.2004
883.00,4.0355
882.00,3.9872
881.00,4.0567
880.00,4.1929
879.00,4.2787
878.00,4.2661
877.00,4.3205
876.00,4.5599
875.00,4.5255
874.00,4.2684
873.00,4.1570
872.00,4.1425
871.00,4.2104
870.00,4.4740
869.00,4.6594
868.00,4.2886
867.00,4.1791
866.00,4.2525
865.00,4.2977
864.00,4.2993
863.00,4.2166
862.00,4.0169
861.00,3.9037
860.00,3.9272
859.00,4.0774
858.00,4.3163
857.00,4.5677
856.00,5.0590
855.00,4.7511
854.00,4.3735
853.00,4.3833
852.00,4.3581
851.00,4.0956
850.00,3.9376
849.00,3.9057
848.00,3.9800
847.00,4.1396
846.00,4.1841
845.00,4.0689
844.00,3.9730
843.00,3.9790
842.00,4.0856
841.00,4.3338
840.00,4.9217
839.00,4.7310
838.00,4.3785
837.00,4.3315
836.00,4.4215
835.00,4.5181
834.00,4.3863
833.00,4.2116
832.00,4.1127
831.00,4.0959
830.00,4.1287
829.00,4.1440
828.00,4.1150
827.00,4.0683
826.00,4.0411
825.00,4.0819
824.00,4.2092
823.00,4.3126
822.00,4.2512
821.00,4.2928
820.00,4.7118
819.00,4.6454
818.00,4.1851
817.00,3.9568
816.00,3.7757
815.00,3.6524
814.00,3.6220
813.00,3.7002
812.00,3.8944
811.00,4.1835
810.00,4.4044
809.00,4.3186
808.00,4.1462
807.00,4.0332
806.00,3.9913
805.00,3.9584
804.00,3.9157
803.00,3.9188
802.00,3.9664
801.00,4.0455
800.00,4.1694
799.00,4.3158
798.00,4.3615
797.00,4.1977
796.00,3.9907
795.00,3.8528
794.00,3.8024
793.00,3.8440
792.00,3.9905
791.00,4.1769
790.00,4.2675
789.00,4.3848
788.00,4.5356
787.00,4.4615
786.00,4.2850
785.00,4.2079
784.00,4.2425
783.00,4.2803
782.00,4.1928
781.00,4.0386
780.00,3.9222
779.00,3.8947
778.00,3.9415
777.00,4.0906
776.00,4.2921
775.00,4.5467
774.00,5.2152
773.00,4.5193
772.00,4.1403
771.00,4.0243
770.00,3.9597
769.00,3.8932
768.00,3.8764
767.00,4.0040
766.00,4.2616
765.00,4.4814
764.00,4.6419
763.00,4.4975
762.00,4.2027
761.00,4.0696
760.00,4.0563
759.00,4.2170
758.00,4.4355
757.00,4.4155
756.00,4.5081
755.00,4.5602
754.00,4.3376
753.00,4.3590
752.00,4.5561
751.00,4.3161
750.00,4.1428
749.00,4.1338
748.00,4.1596
747.00,4.1613
746.00,4.0647
745.00,4.0329
744.00,4.0731
743.00,4.2479
742.00,4.7301
741.00,4.4169
740.00,4.0978
739.00,4.0037
738.00,3.9533
737.00,3.9291
736.00,3.9102
735.00,3.8704
734.00,3.8179
733.00,3.8085
732.00,3.8897
731.00,4.0329
730.00,4.1309
729.00,4.2282
728.00,4.4503
727.00,4.5181
726.00,4.1868
725.00,3.9505
724.00,3.8672
723.00,3.9014
722.00,4.0244
721.00,4.1016
720.00,3.9979
719.00,3.9201
718.00,3.9793
717.00,4.1763
716.00,4.3967
715.00,4.2354
714.00,3.9898
713.00,3.8579
712.00,3.8086
711.00,3.8333
710.00,3.9537
709.00,4.1053
708.00,4.0878
707.00,4.0132
706.00,4.0074
705.00,4.0313
704.00,4.0466
703.00,4.0775
702.00,4.1255
701.00,4.1042
700.00,4.0359
