Created as New Dataset,Sample 088 By Administrator Date Wednesday, November 24 2021
cm-1,A
7502.00,0.9437
7501.00,0.9529
7500.00,0.9621
7499.00,0.9708
7498.00,0.9785
7497.00,0.9857
7496.00,0.9934
7495.00,1.0019
7494.00,1.0109
7493.00,1.0196
7492.00,1.0278
7491.00,1.0358
7490.00,1.0444
7489.00,1.0533
7488.00,1.0616
7487.00,1.0685
7486.00,1.0743
7485.00,1.0798
7484.00,1.0853
7483.00,1.0898
7482.00,1.0927
7481.00,1.0947
7480.00,1.0972
7479.00,1.1007
7478.00,1.1046
7477.00,1.1080
7476.00,1.1111
7475.00,1.1145
7474.00,1.1184
7473.00,1.1227
7472.00,1.1268
7471.00,1.1298
7470.00,1.1312
7469.00,1.1312
7468.00,1.1303
7467.00,1.1288
7466.00,1.1265
7465.00,1.1231
7464.00,1.1187
7463.00,1.1139
7462.00,1.1092
7461.00,1.1049
7460.00,1.1005
7459.00,1.0954
7458.00,1.0895
7457.00,1.0838
7456.00,1.0791
7455.00,1.0755
7454.00,1.0720
7453.00,1.0674
7452.00,1.0618
7451.00,1.0555
7450.00,1.0491
7449.00,1.0427
7448.00,1.0367
7447.00,1.0311
7446.00,1.0256
7445.00,1.0198
7444.00,1.0143
7443.00,1.0091
7442.00,1.0043
7441.00,0.9989
7440.00,0.9927
7439.00,0.9859
7438.00,0.9792
7437.00,0.9731
7436.00,0.9676
7435.00,0.9622
7434.00,0.9567
7433.00,0.9509
7432.00,0.9451
7431.00,0.9394
7430.00,0.9335
7429.00,0.9273
7428.00,0.9210
7427.00,0.9150
7426.00,0.9096
7425.00,0.9039
7424.00,0.8976
7423.00,0.8909
7422.00,0.8842
7421.00,0.8774
7420.00,0.8699
7419.00,0.8615
7418.00,0.8524
7417.00,0.8433
7416.00,0.8346
7415.00,0.8266
7414.00,0.8192
7413.00,0.8121
7412.00,0.8051
7411.00,0.7986
7410.00,0.7926
7409.00,0.7873
7408.00,0.7824
7407.00,0.7778
7406.00,0.7737
7405.00,0.7704
7404.00,0.7677
7403.00,0.7655
7402.00,0.7636
7401.00,0.7622
7400.00,0.7616
7399.00,0.7615
7398.00,0.7617
7397.00,0.7620
7396.00,0.7628
7395.00,0.7644
7394.00,0.7666
7393.00,0.7695
7392.00,0.7730
7391.00,0.7773
7390.00,0.7822
7389.00,0.7877
7388.00,0.7934
7387.00,0.7994
7386.00,0.8056
7385.00,0.8121
7384.00,0.8191
7383.00,0.8264
7382.00,0.8343
7381.00,0.8425
7380.00,0.8509
7379.00,0.8595
7378.00,0.8683
7377.00,0.8771
7376.00,0.8858
7375.00,0.8946
7374.00,0.9035
7373.00,0.9127
7372.00,0.9223
7371.00,0.9320
7370.00,0.9419
7369.00,0.9520
7368.00,0.9621
7367.00,0.9721
7366.00,0.9818
7365.00,0.9910
7364.00,0.9998
7363.00,1.0085
7362.00,1.0173
7361.00,1.0263
7360.00,1.0355
7359.00,1.0448
7358.00,1.0539
7357.00,1.0627
7356.00,1.0710
7355.00,1.0789
7354.00,1.0865
7353.00,1.0943
7352.00,1.1026
7351.00,1.1112
7350.00,1.1196
7349.00,1.1271
7348.00,1.1335
7347.00,1.1390
7346.00,1.1438
7345.00,1.1480
7344.00,1.1519
7343.00,1.1559
7342.00,1.1604
7341.00,1.1652
7340.00,1.1699
7339.00,1.1742
7338.00,1.1779
7337.00,1.1815
7336.00,1.1849
7335.00,1.1881
7334.00,1.1905
7333.00,1.1918
7332.00,1.1921
7331.00,1.1917
7330.00,1.1909
7329.00,1.1895
7328.00,1.1875
7327.00,1.1855
7326.00,1.1839
7325.00,1.1831
7324.00,1.1826
7323.00,1.1818
7322.00,1.1802
7321.00,1.1779
7320.00,1.1751
7319.00,1.1719
7318.00,1.1680
7317.00,1.1636
7316.00,1.1588
7315.00,1.1535
7314.00,1.1475
7313.00,1.1406
7312.00,1.1330
7311.00,1.1254
7310.00,1.1176
7309.00,1.1095
7308.00,1.1014
7307.00,1.0938
7306.00,1.0866
7305.00,1.0794
7304.00,1.0712
7303.00,1.0619
7302.00,1.0519
7301.00,1.0420
7300.00,1.0326
7299.00,1.0233
7298.00,1.0136
7297.00,1.0035
7296.00,0.9930
7295.00,0.9825
7294.00,0.9719
7293.00,0.9610
7292.00,0.9496
7291.00,0.9383
7290.00,0.9276
7289.00,0.9176
7288.00,0.9077
7287.00,0.8978
7286.00,0.8880
7285.00,0.8784
7284.00,0.8690
7283.00,0.8596
7282.00,0.8506
7281.00,0.8423
7280.00,0.8347
7279.00,0.8276
7278.00,0.8209
7277.00,0.8146
7276.00,0.8088
7275.00,0.8033
7274.00,0.7981
7273.00,0.7935
7272.00,0.7894
7271.00,0.7859
7270.00,0.7829
7269.00,0.7805
7268.00,0.7788
7267.00,0.7779
7266.00,0.7778
7265.00,0.7783
7264.00,0.7795
7263.00,0.7810
7262.00,0.7830
7261.00,0.7854
7260.00,0.7884
7259.00,0.7918
7258.00,0.7956
7257.00,0.7997
7256.00,0.8044
7255.00,0.8098
7254.00,0.8160
7253.00,0.8226
7252.00,0.8296
7251.00,0.8369
7250.00,0.8444
7249.00,0.8520
7248.00,0.8597
7247.00,0.8676
7246.00,0.8758
7245.00,0.8842
7244.00,0.8929
7243.00,0.9017
7242.00,0.9108
7241.00,0.9200
7240.00,0.9294
7239.00,0.9389
7238.00,0.9482
7237.00,0.9573
7236.00,0.9659
7235.00,0.9743
7234.00,0.9828
7233.00,0.9913
7232.00,0.9997
7231.00,1.0083
7230.00,1.0174
7229.00,1.0273
7228.00,1.0373
7227.00,1.0468
7226.00,1.0553
7225.00,1.0631
7224.00,1.0705
7223.00,1.0775
7222.00,1.0841
7221.00,1.0903
7220.00,1.0966
7219.00,1.1033
7218.00,1.1104
7217.00,1.1174
7216.00,1.1238
7215.00,1.1292
7214.00,1.1337
7213.00,1.1376
7212.00,1.1418
7211.00,1.1462
7210.00,1.1504
7209.00,1.1536
7208.00,1.1560
7207.00,1.1581
7206.00,1.1605
7205.00,1.1628
7204.00,1.1643
7203.00,1.1649
7202.00,1.1650
7201.00,1.1655
7200.00,1.1662
7199.00,1.1667
7198.00,1.1665
7197.00,1.1657
7196.00,1.1649
7195.00,1.1643
7194.00,1.1634
7193.00,1.1619
7192.00,1.1597
7191.00,1.1574
7190.00,1.1548
7189.00,1.1515
7188.00,1.1473
7187.00,1.1428
7186.00,1.1387
7185.00,1.1347
7184.00,1.1303
7183.00,1.1252
7182.00,1.1200
7181.00,1.1151
7180.00,1.1103
7179.00,1.1047
7178.00,1.0981
7177.00,1.0911
7176.00,1.0843
7175.00,1.0774
7174.00,1.0697
7173.00,1.0608
7172.00,1.0509
7171.00,1.0409
7170.00,1.0313
7169.00,1.0222
7168.00,1.0131
7167.00,1.0036
7166.00,0.9938
7165.00,0.9839
7164.00,0.9739
7163.00,0.9639
7162.00,0.9536
7161.00,0.9433
7160.00,0.9332
7159.00,0.9235
7158.00,0.9141
7157.00,0.9049
7156.00,0.8957
7155.00,0.8862
7154.00,0.8765
7153.00,0.8669
7152.00,0.8576
7151.00,0.8490
7150.00,0.8409
7149.00,0.8331
7148.00,0.8255
7147.00,0.8183
7146.00,0.8117
7145.00,0.8057
7144.00,0.7999
7143.00,0.7944
7142.00,0.7895
7141.00,0.7855
7140.00,0.7821
7139.00,0.7790
7138.00,0.7761
7137.00,0.7739
7136.00,0.7724
7135.00,0.7716
7134.00,0.7713
7133.00,0.7715
7132.00,0.7723
7131.00,0.7738
7130.00,0.7762
7129.00,0.7791
7128.00,0.7826
7127.00,0.7864
7126.00,0.7909
7125.00,0.7959
7124.00,0.8015
7123.00,0.8076
7122.00,0.8142
7121.00,0.8212
7120.00,0.8286
7119.00,0.8361
7118.00,0.8440
7117.00,0.8522
7116.00,0.8609
7115.00,0.8699
7114.00,0.8790
7113.00,0.8881
7112.00,0.8973
7111.00,0.9066
7110.00,0.9160
7109.00,0.9253
7108.00,0.9347
7107.00,0.9441
7106.00,0.9538
7105.00,0.9640
7104.00,0.9747
7103.00,0.9855
7102.00,0.9960
7101.00,1.0061
7100.00,1.0158
7099.00,1.0256
7098.00,1.0355
7097.00,1.0451
7096.00,1.0544
7095.00,1.0636
7094.00,1.0727
7093.00,1.0815
7092.00,1.0898
7091.00,1.0976
7090.00,1.1053
7089.00,1.1131
7088.00,1.1208
7087.00,1.1283
7086.00,1.1358
7085.00,1.1430
7084.00,1.1497
7083.00,1.1555
7082.00,1.1607
7081.00,1.1656
7080.00,1.1705
7079.00,1.1753
7078.00,1.1801
7077.00,1.1848
7076.00,1.1895
7075.00,1.1943
7074.00,1.1986
7073.00,1.2023
7072.00,1.2048
7071.00,1.2063
7070.00,1.2071
7069.00,1.2076
7068.00,1.2078
7067.00,1.2082
7066.00,1.2086
7065.00,1.2090
7064.00,1.2093
7063.00,1.2092
7062.00,1.2087
7061.00,1.2077
7060.00,1.2059
7059.00,1.2028
7058.00,1.1989
7057.00,1.1947
7056.00,1.1905
7055.00,1.1861
7054.00,1.1810
7053.00,1.1750
7052.00,1.1687
7051.00,1.1627
7050.00,1.1570
7049.00,1.1515
7048.00,1.1457
7047.00,1.1396
7046.00,1.1330
7045.00,1.1258
7044.00,1.1178
7043.00,1.1091
7042.00,1.1000
7041.00,1.0907
7040.00,1.0811
7039.00,1.0714
7038.00,1.0616
7037.00,1.0517
7036.00,1.0417
7035.00,1.0314
7034.00,1.0208
7033.00,1.0102
7032.00,0.9995
7031.00,0.9888
7030.00,0.9780
7029.00,0.9670
7028.00,0.9557
7027.00,0.9443
7026.00,0.9330
7025.00,0.9220
7024.00,0.9113
7023.00,0.9009
7022.00,0.8907
7021.00,0.8807
7020.00,0.8709
7019.00,0.8615
7018.00,0.8524
7017.00,0.8439
7016.00,0.8359
7015.00,0.8286
7014.00,0.8218
7013.00,0.8153
7012.00,0.8089
7011.00,0.8028
7010.00,0.7971
7009.00,0.7920
7008.00,0.7877
7007.00,0.7840
7006.00,0.7810
7005.00,0.7787
7004.00,0.7770
7003.00,0.7757
7002.00,0.7751
7001.00,0.7754
7000.00,0.7765
6999.00,0.7782
6998.00,0.7804
6997.00,0.7831
6996.00,0.7864
6995.00,0.7900
6994.00,0.7939
6993.00,0.7981
6992.00,0.8029
6991.00,0.8086
6990.00,0.8153
6989.00,0.8227
6988.00,0.8304
6987.00,0.8384
6986.00,0.8467
6985.00,0.8553
6984.00,0.8642
6983.00,0.8734
6982.00,0.8828
6981.00,0.8924
6980.00,0.9018
6979.00,0.9113
6978.00,0.9211
6977.00,0.9311
6976.00,0.9412
6975.00,0.9512
6974.00,0.9609
6973.00,0.9706
6972.00,0.9802
6971.00,0.9898
6970.00,0.9993
6969.00,1.0088
6968.00,1.0184
6967.00,1.0283
6966.00,1.0383
6965.00,1.0480
6964.00,1.0571
6963.00,1.0657
6962.00,1.0741
6961.00,1.0823
6960.00,1.0903
6959.00,1.0985
6958.00,1.1071
6957.00,1.1157
6956.00,1.1237
6955.00,1.1308
6954.00,1.1374
6953.00,1.1437
6952.00,1.1495
6951.00,1.1548
6950.00,1.1599
6949.00,1.1652
6948.00,1.1704
6947.00,1.1755
6946.00,1.1802
6945.00,1.1845
6944.00,1.1881
6943.00,1.1907
6942.00,1.1926
6941.00,1.1945
6940.00,1.1965
6939.00,1.1983
6938.00,1.1998
6937.00,1.2009
6936.00,1.2016
6935.00,1.2020
6934.00,1.2020
6933.00,1.2017
6932.00,1.2006
6931.00,1.1985
6930.00,1.1957
6929.00,1.1929
6928.00,1.1903
6927.00,1.1875
6926.00,1.1842
6925.00,1.1806
6924.00,1.1771
6923.00,1.1735
6922.00,1.1691
6921.00,1.1637
6920.00,1.1578
6919.00,1.1519
6918.00,1.1462
6917.00,1.1405
6916.00,1.1348
6915.00,1.1285
6914.00,1.1215
6913.00,1.1138
6912.00,1.1055
6911.00,1.0968
6910.00,1.0878
6909.00,1.0785
6908.00,1.0689
6907.00,1.0592
6906.00,1.0494
6905.00,1.0395
6904.00,1.0294
6903.00,1.0191
6902.00,1.0085
6901.00,0.9980
6900.00,0.9875
6899.00,0.9770
6898.00,0.9664
6897.00,0.9556
6896.00,0.9446
6895.00,0.9336
6894.00,0.9227
6893.00,0.9120
6892.00,0.9014
6891.00,0.8910
6890.00,0.8807
6889.00,0.8708
6888.00,0.8612
6887.00,0.8519
6886.00,0.8430
6885.00,0.8345
6884.00,0.8264
6883.00,0.8186
6882.00,0.8112
6881.00,0.8044
6880.00,0.7981
6879.00,0.7923
6878.00,0.7869
6877.00,0.7822
6876.00,0.7780
6875.00,0.7746
6874.00,0.7718
6873.00,0.7697
6872.00,0.7681
6871.00,0.7671
6870.00,0.7667
6869.00,0.7670
6868.00,0.7679
6867.00,0.7694
6866.00,0.7716
6865.00,0.7745
6864.00,0.7783
6863.00,0.7826
6862.00,0.7876
6861.00,0.7929
6860.00,0.7986
6859.00,0.8047
6858.00,0.8114
6857.00,0.8186
6856.00,0.8263
6855.00,0.8344
6854.00,0.8431
6853.00,0.8523
6852.00,0.8618
6851.00,0.8712
6850.00,0.8804
6849.00,0.8896
6848.00,0.8989
6847.00,0.9083
6846.00,0.9180
6845.00,0.9280
6844.00,0.9384
6843.00,0.9490
6842.00,0.9597
6841.00,0.9704
6840.00,0.9812
6839.00,0.9919
6838.00,1.0025
6837.00,1.0131
6836.00,1.0233
6835.00,1.0334
6834.00,1.0432
6833.00,1.0529
6832.00,1.0624
6831.00,1.0717
6830.00,1.0810
6829.00,1.0901
6828.00,1.0990
6827.00,1.1075
6826.00,1.1157
6825.00,1.1240
6824.00,1.1320
6823.00,1.1395
6822.00,1.1466
6821.00,1.1537
6820.00,1.1609
6819.00,1.1680
6818.00,1.1744
6817.00,1.1803
6816.00,1.1860
6815.00,1.1916
6814.00,1.1968
6813.00,1.2014
6812.00,1.2051
6811.00,1.2084
6810.00,1.2115
6809.00,1.2146
6808.00,1.2175
6807.00,1.2199
6806.00,1.2219
6805.00,1.2236
6804.00,1.2248
6803.00,1.2249
6802.00,1.2242
6801.00,1.2232
6800.00,1.2223
6799.00,1.2213
6798.00,1.2202
6797.00,1.2188
6796.00,1.2172
6795.00,1.2150
6794.00,1.2121
6793.00,1.2084
6792.00,1.2040
6791.00,1.1992
6790.00,1.1940
6789.00,1.1889
6788.00,1.1837
6787.00,1.1785
6786.00,1.1729
6785.00,1.1668
6784.00,1.1600
6783.00,1.1524
6782.00,1.1441
6781.00,1.1355
6780.00,1.1270
6779.00,1.1186
6778.00,1.1100
6777.00,1.1009
6776.00,1.0913
6775.00,1.0812
6774.00,1.0709
6773.00,1.0604
6772.00,1.0496
6771.00,1.0384
6770.00,1.0272
6769.00,1.0161
6768.00,1.0049
6767.00,0.9934
6766.00,0.9817
6765.00,0.9699
6764.00,0.9584
6763.00,0.9471
6762.00,0.9359
6761.00,0.9249
6760.00,0.9138
6759.00,0.9028
6758.00,0.8919
6757.00,0.8813
6756.00,0.8710
6755.00,0.8612
6754.00,0.8518
6753.00,0.8427
6752.00,0.8339
6751.00,0.8255
6750.00,0.8176
6749.00,0.8102
6748.00,0.8033
6747.00,0.7969
6746.00,0.7913
6745.00,0.7864
6744.00,0.7821
6743.00,0.7782
6742.00,0.7749
6741.00,0.7723
6740.00,0.7706
6739.00,0.7694
6738.00,0.7690
6737.00,0.7692
6736.00,0.7702
6735.00,0.7720
6734.00,0.7744
6733.00,0.7774
6732.00,0.7810
6731.00,0.7853
6730.00,0.7903
6729.00,0.7959
6728.00,0.8019
6727.00,0.8083
6726.00,0.8151
6725.00,0.8224
6724.00,0.8301
6723.00,0.8380
6722.00,0.8463
6721.00,0.8551
6720.00,0.8644
6719.00,0.8740
6718.00,0.8837
6717.00,0.8934
6716.00,0.9033
6715.00,0.9134
6714.00,0.9237
6713.00,0.9341
6712.00,0.9446
6711.00,0.9552
6710.00,0.9659
6709.00,0.9767
6708.00,0.9874
6707.00,0.9980
6706.00,1.0085
6705.00,1.0189
6704.00,1.0293
6703.00,1.0396
6702.00,1.0496
6701.00,1.0593
6700.00,1.0687
6699.00,1.0780
6698.00,1.0872
6697.00,1.0960
6696.00,1.1046
6695.00,1.1129
6694.00,1.1208
6693.00,1.1283
6692.00,1.1356
6691.00,1.1428
6690.00,1.1500
6689.00,1.1571
6688.00,1.1641
6687.00,1.1707
6686.00,1.1767
6685.00,1.1821
6684.00,1.1869
6683.00,1.1911
6682.00,1.1950
6681.00,1.1985
6680.00,1.2018
6679.00,1.2048
6678.00,1.2075
6677.00,1.2098
6676.00,1.2116
6675.00,1.2128
6674.00,1.2138
6673.00,1.2144
6672.00,1.2147
6671.00,1.2146
6670.00,1.2141
6669.00,1.2133
6668.00,1.2122
6667.00,1.2106
6666.00,1.2085
6665.00,1.2059
6664.00,1.2029
6663.00,1.1996
6662.00,1.1962
6661.00,1.1925
6660.00,1.1884
6659.00,1.1838
6658.00,1.1789
6657.00,1.1736
6656.00,1.1679
6655.00,1.1616
6654.00,1.1552
6653.00,1.1488
6652.00,1.1426
6651.00,1.1362
6650.00,1.1291
6649.00,1.1213
6648.00,1.1129
6647.00,1.1039
6646.00,1.0945
6645.00,1.0850
6644.00,1.0753
6643.00,1.0656
6642.00,1.0557
6641.00,1.0455
6640.00,1.0351
6639.00,1.0247
6638.00,1.0141
6637.00,1.0034
6636.00,0.9926
6635.00,0.9818
6634.00,0.9709
6633.00,0.9599
6632.00,0.9485
6631.00,0.9370
6630.00,0.9255
6629.00,0.9142
6628.00,0.9031
6627.00,0.8921
6626.00,0.8814
6625.00,0.8712
6624.00,0.8614
6623.00,0.8518
6622.00,0.8425
6621.00,0.8335
6620.00,0.8248
6619.00,0.8165
6618.00,0.8086
6617.00,0.8013
6616.00,0.7944
6615.00,0.7882
6614.00,0.7826
6613.00,0.7777
6612.00,0.7735
6611.00,0.7698
6610.00,0.7666
6609.00,0.7642
6608.00,0.7625
6607.00,0.7616
6606.00,0.7613
6605.00,0.7617
6604.00,0.7629
6603.00,0.7648
6602.00,0.7675
6601.00,0.7708
6600.00,0.7748
6599.00,0.7792
6598.00,0.7842
6597.00,0.7897
6596.00,0.7958
6595.00,0.8025
6594.00,0.8098
6593.00,0.8177
6592.00,0.8262
6591.00,0.8350
6590.00,0.8442
6589.00,0.8537
6588.00,0.8633
6587.00,0.8731
6586.00,0.8829
6585.00,0.8932
6584.00,0.9039
6583.00,0.9147
6582.00,0.9256
6581.00,0.9364
6580.00,0.9474
6579.00,0.9585
6578.00,0.9697
6577.00,0.9809
6576.00,0.9921
6575.00,1.0031
6574.00,1.0141
6573.00,1.0249
6572.00,1.0356
6571.00,1.0460
6570.00,1.0565
6569.00,1.0669
6568.00,1.0773
6567.00,1.0875
6566.00,1.0974
6565.00,1.1070
6564.00,1.1162
6563.00,1.1252
6562.00,1.1341
6561.00,1.1427
6560.00,1.1511
6559.00,1.1590
6558.00,1.1667
6557.00,1.1739
6556.00,1.1808
6555.00,1.1873
6554.00,1.1935
6553.00,1.1997
6552.00,1.2057
6551.00,1.2112
6550.00,1.2162
6549.00,1.2209
6548.00,1.2252
6547.00,1.2292
6546.00,1.2325
6545.00,1.2353
6544.00,1.2377
6543.00,1.2399
6542.00,1.2417
6541.00,1.2429
6540.00,1.2436
6539.00,1.2441
6538.00,1.2442
6537.00,1.2438
6536.00,1.2429
6535.00,1.2417
6534.00,1.2403
6533.00,1.2389
6532.00,1.2372
6531.00,1.2350
6530.00,1.2322
6529.00,1.2289
6528.00,1.2248
6527.00,1.2202
6526.00,1.2149
6525.00,1.2091
6524.00,1.2032
6523.00,1.1970
6522.00,1.1905
6521.00,1.1837
6520.00,1.1765
6519.00,1.1692
6518.00,1.1615
6517.00,1.1533
6516.00,1.1447
6515.00,1.1356
6514.00,1.1262
6513.00,1.1166
6512.00,1.1066
6511.00,1.0964
6510.00,1.0862
6509.00,1.0759
6508.00,1.0653
6507.00,1.0541
6506.00,1.0423
6505.00,1.0303
6504.00,1.0181
6503.00,1.0057
6502.00,0.9932
6501.00,0.9807
6500.00,0.9684
6499.00,0.9564
6498.00,0.9446
6497.00,0.9328
6496.00,0.9209
6495.00,0.9090
6494.00,0.8973
6493.00,0.8858
6492.00,0.8747
6491.00,0.8639
6490.00,0.8536
6489.00,0.8437
6488.00,0.8345
6487.00,0.8259
6486.00,0.8176
6485.00,0.8098
6484.00,0.8024
6483.00,0.7957
6482.00,0.7896
6481.00,0.7842
6480.00,0.7793
6479.00,0.7751
6478.00,0.7716
6477.00,0.7689
6476.00,0.7669
6475.00,0.7657
6474.00,0.7651
6473.00,0.7654
6472.00,0.7665
6471.00,0.7684
6470.00,0.7711
6469.00,0.7745
6468.00,0.7785
6467.00,0.7831
6466.00,0.7883
6465.00,0.7941
6464.00,0.8002
6463.00,0.8067
6462.00,0.8139
6461.00,0.8217
6460.00,0.8302
6459.00,0.8391
6458.00,0.8485
6457.00,0.8582
6456.00,0.8682
6455.00,0.8783
6454.00,0.8884
6453.00,0.8984
6452.00,0.9087
6451.00,0.9194
6450.00,0.9305
6449.00,0.9418
6448.00,0.9531
6447.00,0.9645
6446.00,0.9760
6445.00,0.9875
6444.00,0.9987
6443.00,1.0097
6442.00,1.0206
6441.00,1.0315
6440.00,1.0423
6439.00,1.0530
6438.00,1.0637
6437.00,1.0743
6436.00,1.0847
6435.00,1.0946
6434.00,1.1040
6433.00,1.1130
6432.00,1.1218
6431.00,1.1301
6430.00,1.1385
6429.00,1.1470
6428.00,1.1556
6427.00,1.1636
6426.00,1.1708
6425.00,1.1771
6424.00,1.1828
6423.00,1.1883
6422.00,1.1936
6421.00,1.1989
6420.00,1.2042
6419.00,1.2095
6418.00,1.2146
6417.00,1.2189
6416.00,1.2223
6415.00,1.2248
6414.00,1.2269
6413.00,1.2288
6412.00,1.2306
6411.00,1.2321
6410.00,1.2335
6409.00,1.2349
6408.00,1.2360
6407.00,1.2363
6406.00,1.2358
6405.00,1.2349
6404.00,1.2337
6403.00,1.2321
6402.00,1.2299
6401.00,1.2271
6400.00,1.2240
6399.00,1.2206
6398.00,1.2171
6397.00,1.2133
6396.00,1.2095
6395.00,1.2055
6394.00,1.2012
6393.00,1.1963
6392.00,1.1906
6391.00,1.1839
6390.00,1.1765
6389.00,1.1689
6388.00,1.1615
6387.00,1.1543
6386.00,1.1469
6385.00,1.1391
6384.00,1.1311
6383.00,1.1228
6382.00,1.1140
6381.00,1.1044
6380.00,1.0942
6379.00,1.0838
6378.00,1.0734
6377.00,1.0629
6376.00,1.0520
6375.00,1.0409
6374.00,1.0296
6373.00,1.0182
6372.00,1.0068
6371.00,0.9955
6370.00,0.9840
6369.00,0.9723
6368.00,0.9604
6367.00,0.9486
6366.00,0.9367
6365.00,0.9249
6364.00,0.9130
6363.00,0.9011
6362.00,0.8896
6361.00,0.8783
6360.00,0.8674
6359.00,0.8567
6358.00,0.8465
6357.00,0.8367
6356.00,0.8274
6355.00,0.8185
6354.00,0.8100
6353.00,0.8021
6352.00,0.7946
6351.00,0.7878
6350.00,0.7817
6349.00,0.7764
6348.00,0.7718
6347.00,0.7679
6346.00,0.7646
6345.00,0.7619
6344.00,0.7601
6343.00,0.7591
6342.00,0.7589
6341.00,0.7595
6340.00,0.7608
6339.00,0.7629
6338.00,0.7658
6337.00,0.7694
6336.00,0.7736
6335.00,0.7783
6334.00,0.7837
6333.00,0.7899
6332.00,0.7968
6331.00,0.8043
6330.00,0.8125
6329.00,0.8213
6328.00,0.8304
6327.00,0.8398
6326.00,0.8493
6325.00,0.8591
6324.00,0.8691
6323.00,0.8795
6322.00,0.8903
6321.00,0.9015
6320.00,0.9130
6319.00,0.9245
6318.00,0.9361
6317.00,0.9475
6316.00,0.9590
6315.00,0.9706
6314.00,0.9823
6313.00,0.9941
6312.00,1.0059
6311.00,1.0177
6310.00,1.0295
6309.00,1.0413
6308.00,1.0528
6307.00,1.0639
6306.00,1.0749
6305.00,1.0858
6304.00,1.0963
6303.00,1.1065
6302.00,1.1165
6301.00,1.1267
6300.00,1.1373
6299.00,1.1477
6298.00,1.1575
6297.00,1.1667
6296.00,1.1754
6295.00,1.1836
6294.00,1.1912
6293.00,1.1981
6292.00,1.2047
6291.00,1.2113
6290.00,1.2177
6289.00,1.2236
6288.00,1.2287
6287.00,1.2334
6286.00,1.2379
6285.00,1.2423
6284.00,1.2462
6283.00,1.2497
6282.00,1.2531
6281.00,1.2562
6280.00,1.2589
6279.00,1.2611
6278.00,1.2631
6277.00,1.2648
6276.00,1.2662
6275.00,1.2670
6274.00,1.2672
6273.00,1.2669
6272.00,1.2663
6271.00,1.2651
6270.00,1.2633
6269.00,1.2610
6268.00,1.2582
6267.00,1.2551
6266.00,1.2517
6265.00,1.2479
6264.00,1.2438
6263.00,1.2394
6262.00,1.2349
6261.00,1.2300
6260.00,1.2245
6259.00,1.2185
6258.00,1.2119
6257.00,1.2048
6256.00,1.1972
6255.00,1.1890
6254.00,1.1805
6253.00,1.1715
6252.00,1.1621
6251.00,1.1525
6250.00,1.1428
6249.00,1.1329
6248.00,1.1226
6247.00,1.1118
6246.00,1.1007
6245.00,1.0892
6244.00,1.0772
6243.00,1.0650
6242.00,1.0528
6241.00,1.0406
6240.00,1.0283
6239.00,1.0158
6238.00,1.0031
6237.00,0.9904
6236.00,0.9773
6235.00,0.9639
6234.00,0.9505
6233.00,0.9374
6232.00,0.9246
6231.00,0.9120
6230.00,0.8996
6229.00,0.8877
6228.00,0.8761
6227.00,0.8648
6226.00,0.8538
6225.00,0.8432
6224.00,0.8330
6223.00,0.8234
6222.00,0.8143
6221.00,0.8059
6220.00,0.7981
6219.00,0.7910
6218.00,0.7846
6217.00,0.7789
6216.00,0.7738
6215.00,0.7694
6214.00,0.7658
6213.00,0.7631
6212.00,0.7612
6211.00,0.7602
6210.00,0.7601
6209.00,0.7608
6208.00,0.7622
6207.00,0.7641
6206.00,0.7667
6205.00,0.7701
6204.00,0.7744
6203.00,0.7794
6202.00,0.7851
6201.00,0.7914
6200.00,0.7985
6199.00,0.8061
6198.00,0.8143
6197.00,0.8231
6196.00,0.8323
6195.00,0.8420
6194.00,0.8521
6193.00,0.8625
6192.00,0.8732
6191.00,0.8839
6190.00,0.8947
6189.00,0.9058
6188.00,0.9170
6187.00,0.9282
6186.00,0.9395
6185.00,0.9510
6184.00,0.9626
6183.00,0.9744
6182.00,0.9862
6181.00,0.9982
6180.00,1.0100
6179.00,1.0215
6178.00,1.0330
6177.00,1.0444
6176.00,1.0559
6175.00,1.0671
6174.00,1.0781
6173.00,1.0889
6172.00,1.0994
6171.00,1.1096
6170.00,1.1194
6169.00,1.1290
6168.00,1.1385
6167.00,1.1477
6166.00,1.1564
6165.00,1.1646
6164.00,1.1722
6163.00,1.1795
6162.00,1.1865
6161.00,1.1932
6160.00,1.1997
6159.00,1.2062
6158.00,1.2127
6157.00,1.2189
6156.00,1.2244
6155.00,1.2291
6154.00,1.2331
6153.00,1.2368
6152.00,1.2402
6151.00,1.2432
6150.00,1.2458
6149.00,1.2483
6148.00,1.2508
6147.00,1.2529
6146.00,1.2544
6145.00,1.2552
6144.00,1.2557
6143.00,1.2562
6142.00,1.2564
6141.00,1.2562
6140.00,1.2556
6139.00,1.2545
6138.00,1.2529
6137.00,1.2506
6136.00,1.2478
6135.00,1.2448
6134.00,1.2418
6133.00,1.2388
6132.00,1.2354
6131.00,1.2316
6130.00,1.2274
6129.00,1.2227
6128.00,1.2174
6127.00,1.2114
6126.00,1.2051
6125.00,1.1985
6124.00,1.1913
6123.00,1.1836
6122.00,1.1754
6121.00,1.1672
6120.00,1.1587
6119.00,1.1500
6118.00,1.1409
6117.00,1.1313
6116.00,1.1211
6115.00,1.1102
6114.00,1.0988
6113.00,1.0872
6112.00,1.0755
6111.00,1.0637
6110.00,1.0519
6109.00,1.0399
6108.00,1.0276
6107.00,1.0150
6106.00,1.0021
6105.00,0.9890
6104.00,0.9757
6103.00,0.9625
6102.00,0.9494
6101.00,0.9365
6100.00,0.9237
6099.00,0.9112
6098.00,0.8988
6097.00,0.8866
6096.00,0.8746
6095.00,0.8629
6094.00,0.8516
6093.00,0.8408
6092.00,0.8306
6091.00,0.8210
6090.00,0.8119
6089.00,0.8034
6088.00,0.7953
6087.00,0.7879
6086.00,0.7813
6085.00,0.7754
6084.00,0.7703
6083.00,0.7660
6082.00,0.7626
6081.00,0.7600
6080.00,0.7582
6079.00,0.7572
6078.00,0.7571
6077.00,0.7579
6076.00,0.7595
6075.00,0.7619
6074.00,0.7651
6073.00,0.7692
6072.00,0.7740
6071.00,0.7796
6070.00,0.7858
6069.00,0.7927
6068.00,0.8002
6067.00,0.8082
6066.00,0.8168
6065.00,0.8258
6064.00,0.8353
6063.00,0.8453
6062.00,0.8557
6061.00,0.8666
6060.00,0.8779
6059.00,0.8893
6058.00,0.9011
6057.00,0.9132
6056.00,0.9255
6055.00,0.9378
6054.00,0.9500
6053.00,0.9622
6052.00,0.9746
6051.00,0.9869
6050.00,0.9994
6049.00,1.0120
6048.00,1.0246
6047.00,1.0373
6046.00,1.0498
6045.00,1.0620
6044.00,1.0738
6043.00,1.0854
6042.00,1.0967
6041.00,1.1079
6040.00,1.1189
6039.00,1.1296
6038.00,1.1400
6037.00,1.1503
6036.00,1.1603
6035.00,1.1703
6034.00,1.1798
6033.00,1.1889
6032.00,1.1975
6031.00,1.2059
6030.00,1.2142
6029.00,1.2224
6028.00,1.2301
6027.00,1.2374
6026.00,1.2443
6025.00,1.2506
6024.00,1.2560
6023.00,1.2605
6022.00,1.2644
6021.00,1.2682
6020.00,1.2720
6019.00,1.2757
6018.00,1.2791
6017.00,1.2822
6016.00,1.2850
6015.00,1.2873
6014.00,1.2889
6013.00,1.2897
6012.00,1.2899
6011.00,1.2899
6010.00,1.2898
6009.00,1.2894
6008.00,1.2885
6007.00,1.2868
6006.00,1.2847
6005.00,1.2823
6004.00,1.2796
6003.00,1.2763
6002.00,1.2726
6001.00,1.2687
6000.00,1.2643
5999.00,1.2593
5998.00,1.2537
5997.00,1.2478
5996.00,1.2418
5995.00,1.2356
5994.00,1.2290
5993.00,1.2219
5992.00,1.2140
5991.00,1.2056
5990.00,1.1967
5989.00,1.1876
5988.00,1.1781
5987.00,1.1682
5986.00,1.1579
5985.00,1.1471
5984.00,1.1360
5983.00,1.1245
5982.00,1.1125
5981.00,1.1005
5980.00,1.0885
5979.00,1.0761
5978.00,1.0632
5977.00,1.0499
5976.00,1.0365
5975.00,1.0232
5974.00,1.0097
5973.00,0.9963
5972.00,0.9829
5971.00,0.9696
5970.00,0.9561
5969.00,0.9425
5968.00,0.9290
5967.00,0.9158
5966.00,0.9029
5965.00,0.8904
5964.00,0.8782
5963.00,0.8664
5962.00,0.8550
5961.00,0.8440
5960.00,0.8333
5959.00,0.8232
5958.00,0.8136
5957.00,0.8047
5956.00,0.7965
5955.00,0.7891
5954.00,0.7826
5953.00,0.7770
5952.00,0.7721
5951.00,0.7680
5950.00,0.7646
5949.00,0.7621
5948.00,0.7604
5947.00,0.7596
5946.00,0.7597
5945.00,0.7607
5944.00,0.7626
5943.00,0.7652
5942.00,0.7688
5941.00,0.7733
5940.00,0.7786
5939.00,0.7848
5938.00,0.7916
5937.00,0.7992
5936.00,0.8072
5935.00,0.8158
5934.00,0.8249
5933.00,0.8346
5932.00,0.8448
5931.00,0.8554
5930.00,0.8664
5929.00,0.8778
5928.00,0.8895
5927.00,0.9016
5926.00,0.9139
5925.00,0.9265
5924.00,0.9392
5923.00,0.9521
5922.00,0.9651
5921.00,0.9783
5920.00,0.9916
5919.00,1.0047
5918.00,1.0178
5917.00,1.0309
5916.00,1.0439
5915.00,1.0567
5914.00,1.0695
5913.00,1.0820
5912.00,1.0942
5911.00,1.1063
5910.00,1.1183
5909.00,1.1301
5908.00,1.1416
5907.00,1.1528
5906.00,1.1638
5905.00,1.1745
5904.00,1.1848
5903.00,1.1945
5902.00,1.2039
5901.00,1.2131
5900.00,1.2219
5899.00,1.2303
5898.00,1.2383
5897.00,1.2462
5896.00,1.2540
5895.00,1.2615
5894.00,1.2685
5893.00,1.2750
5892.00,1.2810
5891.00,1.2866
5890.00,1.2918
5889.00,1.2964
5888.00,1.3003
5887.00,1.3037
5886.00,1.3067
5885.00,1.3091
5884.00,1.3111
5883.00,1.3128
5882.00,1.3144
5881.00,1.3158
5880.00,1.3166
5879.00,1.3168
5878.00,1.3166
5877.00,1.3160
5876.00,1.3150
5875.00,1.3134
5874.00,1.3115
5873.00,1.3091
5872.00,1.3062
5871.00,1.3028
5870.00,1.2994
5869.00,1.2959
5868.00,1.2920
5867.00,1.2876
5866.00,1.2824
5865.00,1.2766
5864.00,1.2702
5863.00,1.2634
5862.00,1.2561
5861.00,1.2485
5860.00,1.2407
5859.00,1.2324
5858.00,1.2235
5857.00,1.2141
5856.00,1.2043
5855.00,1.1943
5854.00,1.1841
5853.00,1.1736
5852.00,1.1627
5851.00,1.1514
5850.00,1.1397
5849.00,1.1276
5848.00,1.1150
5847.00,1.1021
5846.00,1.0888
5845.00,1.0754
5844.00,1.0620
5843.00,1.0485
5842.00,1.0349
5841.00,1.0212
5840.00,1.0075
5839.00,0.9938
5838.00,0.9802
5837.00,0.9665
5836.00,0.9527
5835.00,0.9389
5834.00,0.9254
5833.00,0.9121
5832.00,0.8992
5831.00,0.8868
5830.00,0.8749
5829.00,0.8637
5828.00,0.8530
5827.00,0.8426
5826.00,0.8329
5825.00,0.8238
5824.00,0.8154
5823.00,0.8078
5822.00,0.8008
5821.00,0.7945
5820.00,0.7889
5819.00,0.7842
5818.00,0.7805
5817.00,0.7777
5816.00,0.7758
5815.00,0.7748
5814.00,0.7746
5813.00,0.7751
5812.00,0.7765
5811.00,0.7788
5810.00,0.7820
5809.00,0.7863
5808.00,0.7914
5807.00,0.7971
5806.00,0.8035
5805.00,0.8106
5804.00,0.8183
5803.00,0.8264
5802.00,0.8352
5801.00,0.8446
5800.00,0.8545
5799.00,0.8650
5798.00,0.8760
5797.00,0.8875
5796.00,0.8993
5795.00,0.9111
5794.00,0.9230
5793.00,0.9351
5792.00,0.9473
5791.00,0.9598
5790.00,0.9727
5789.00,0.9858
5788.00,0.9990
5787.00,1.0121
5786.00,1.0251
5785.00,1.0380
5784.00,1.0512
5783.00,1.0644
5782.00,1.0776
5781.00,1.0907
5780.00,1.1035
5779.00,1.1159
5778.00,1.1278
5777.00,1.1396
5776.00,1.1512
5775.00,1.1629
5774.00,1.1744
5773.00,1.1856
5772.00,1.1962
5771.00,1.2062
5770.00,1.2156
5769.00,1.2247
5768.00,1.2338
5767.00,1.2427
5766.00,1.2515
5765.00,1.2602
5764.00,1.2684
5763.00,1.2760
5762.00,1.2829
5761.00,1.2894
5760.00,1.2956
5759.00,1.3014
5758.00,1.3068
5757.00,1.3116
5756.00,1.3157
5755.00,1.3192
5754.00,1.3221
5753.00,1.3246
5752.00,1.3270
5751.00,1.3292
5750.00,1.3311
5749.00,1.3326
5748.00,1.3336
5747.00,1.3343
5746.00,1.3345
5745.00,1.3340
5744.00,1.3329
5743.00,1.3312
5742.00,1.3293
5741.00,1.3272
5740.00,1.3249
5739.00,1.3221
5738.00,1.3190
5737.00,1.3155
5736.00,1.3114
5735.00,1.3064
5734.00,1.3005
5733.00,1.2943
5732.00,1.2878
5731.00,1.2812
5730.00,1.2742
5729.00,1.2669
5728.00,1.2592
5727.00,1.2512
5726.00,1.2426
5725.00,1.2334
5724.00,1.2238
5723.00,1.2137
5722.00,1.2031
5721.00,1.1919
5720.00,1.1802
5719.00,1.1682
5718.00,1.1559
5717.00,1.1435
5716.00,1.1307
5715.00,1.1176
5714.00,1.1041
5713.00,1.0904
5712.00,1.0764
5711.00,1.0624
5710.00,1.0483
5709.00,1.0340
5708.00,1.0196
5707.00,1.0051
5706.00,0.9905
5705.00,0.9758
5704.00,0.9612
5703.00,0.9467
5702.00,0.9323
5701.00,0.9181
5700.00,0.9043
5699.00,0.8908
5698.00,0.8777
5697.00,0.8653
5696.00,0.8534
5695.00,0.8421
5694.00,0.8313
5693.00,0.8211
5692.00,0.8116
5691.00,0.8028
5690.00,0.7948
5689.00,0.7876
5688.00,0.7813
5687.00,0.7759
5686.00,0.7715
5685.00,0.7681
5684.00,0.7656
5683.00,0.7641
5682.00,0.7636
5681.00,0.7641
5680.00,0.7654
5679.00,0.7676
5678.00,0.7707
5677.00,0.7749
5676.00,0.7800
5675.00,0.7861
5674.00,0.7930
5673.00,0.8007
5672.00,0.8091
5671.00,0.8181
5670.00,0.8277
5669.00,0.8379
5668.00,0.8485
5667.00,0.8597
5666.00,0.8714
5665.00,0.8835
5664.00,0.8959
5663.00,0.9086
5662.00,0.9216
5661.00,0.9348
5660.00,0.9481
5659.00,0.9615
5658.00,0.9749
5657.00,0.9884
5656.00,1.0021
5655.00,1.0158
5654.00,1.0296
5653.00,1.0434
5652.00,1.0570
5651.00,1.0705
5650.00,1.0839
5649.00,1.0972
5648.00,1.1104
5647.00,1.1234
5646.00,1.1361
5645.00,1.1485
5644.00,1.1606
5643.00,1.1724
5642.00,1.1840
5641.00,1.1951
5640.00,1.2057
5639.00,1.2160
5638.00,1.2261
5637.00,1.2358
5636.00,1.2450
5635.00,1.2539
5634.00,1.2627
5633.00,1.2710
5632.00,1.2788
5631.00,1.2861
5630.00,1.2932
5629.00,1.3000
5628.00,1.3061
5627.00,1.3116
5626.00,1.3166
5625.00,1.3212
5624.00,1.3255
5623.00,1.3293
5622.00,1.3327
5621.00,1.3357
5620.00,1.3382
5619.00,1.3404
5618.00,1.3423
5617.00,1.3441
5616.00,1.3455
5615.00,1.3465
5614.00,1.3467
5613.00,1.3463
5612.00,1.3454
5611.00,1.3439
5610.00,1.3420
5609.00,1.3396
5608.00,1.3366
5607.00,1.3333
5606.00,1.3295
5605.00,1.3254
5604.00,1.3209
5603.00,1.3161
5602.00,1.3108
5601.00,1.3049
5600.00,1.2985
5599.00,1.2918
5598.00,1.2849
5597.00,1.2775
5596.00,1.2696
5595.00,1.2612
5594.00,1.2521
5593.00,1.2426
5592.00,1.2325
5591.00,1.2219
5590.00,1.2111
5589.00,1.1999
5588.00,1.1881
5587.00,1.1759
5586.00,1.1633
5585.00,1.1504
5584.00,1.1371
5583.00,1.1233
5582.00,1.1093
5581.00,1.0951
5580.00,1.0808
5579.00,1.0662
5578.00,1.0513
5577.00,1.0362
5576.00,1.0208
5575.00,1.0053
5574.00,0.9897
5573.00,0.9743
5572.00,0.9591
5571.00,0.9441
5570.00,0.9292
5569.00,0.9146
5568.00,0.9002
5567.00,0.8862
5566.00,0.8726
5565.00,0.8594
5564.00,0.8469
5563.00,0.8350
5562.00,0.8239
5561.00,0.8134
5560.00,0.8037
5559.00,0.7947
5558.00,0.7867
5557.00,0.7795
5556.00,0.7732
5555.00,0.7679
5554.00,0.7636
5553.00,0.7603
5552.00,0.7580
5551.00,0.7566
5550.00,0.7563
5549.00,0.7570
5548.00,0.7588
5547.00,0.7617
5546.00,0.7655
5545.00,0.7703
5544.00,0.7760
5543.00,0.7824
5542.00,0.7896
5541.00,0.7976
5540.00,0.8063
5539.00,0.8157
5538.00,0.8258
5537.00,0.8366
5536.00,0.8478
5535.00,0.8593
5534.00,0.8712
5533.00,0.8836
5532.00,0.8963
5531.00,0.9093
5530.00,0.9225
5529.00,0.9359
5528.00,0.9495
5527.00,0.9633
5526.00,0.9772
5525.00,0.9911
5524.00,1.0050
5523.00,1.0188
5522.00,1.0324
5521.00,1.0459
5520.00,1.0592
5519.00,1.0724
5518.00,1.0856
5517.00,1.0985
5516.00,1.1110
5515.00,1.1232
5514.00,1.1350
5513.00,1.1468
5512.00,1.1584
5511.00,1.1699
5510.00,1.1811
5509.00,1.1920
5508.00,1.2025
5507.00,1.2125
5506.00,1.2221
5505.00,1.2315
5504.00,1.2406
5503.00,1.2495
5502.00,1.2580
5501.00,1.2662
5500.00,1.2739
5499.00,1.2813
5498.00,1.2884
5497.00,1.2952
5496.00,1.3017
5495.00,1.3078
5494.00,1.3134
5493.00,1.3187
5492.00,1.3236
5491.00,1.3281
5490.00,1.3321
5489.00,1.3357
5488.00,1.3385
5487.00,1.3408
5486.00,1.3428
5485.00,1.3447
5484.00,1.3465
5483.00,1.3482
5482.00,1.3493
5481.00,1.3497
5480.00,1.3492
5479.00,1.3479
5478.00,1.3459
5477.00,1.3437
5476.00,1.3414
5475.00,1.3389
5474.00,1.3361
5473.00,1.3328
5472.00,1.3290
5471.00,1.3245
5470.00,1.3195
5469.00,1.3139
5468.00,1.3079
5467.00,1.3014
5466.00,1.2945
5465.00,1.2871
5464.00,1.2791
5463.00,1.2706
5462.00,1.2615
5461.00,1.2520
5460.00,1.2422
5459.00,1.2319
5458.00,1.2213
5457.00,1.2103
5456.00,1.1988
5455.00,1.1870
5454.00,1.1746
5453.00,1.1618
5452.00,1.1485
5451.00,1.1346
5450.00,1.1203
5449.00,1.1056
5448.00,1.0904
5447.00,1.0749
5446.00,1.0591
5445.00,1.0432
5444.00,1.0271
5443.00,1.0109
5442.00,0.9948
5441.00,0.9788
5440.00,0.9630
5439.00,0.9474
5438.00,0.9321
5437.00,0.9173
5436.00,0.9026
5435.00,0.8882
5434.00,0.8740
5433.00,0.8603
5432.00,0.8472
5431.00,0.8349
5430.00,0.8233
5429.00,0.8124
5428.00,0.8021
5427.00,0.7924
5426.00,0.7837
5425.00,0.7760
5424.00,0.7695
5423.00,0.7640
5422.00,0.7598
5421.00,0.7568
5420.00,0.7549
5419.00,0.7541
5418.00,0.7544
5417.00,0.7558
5416.00,0.7581
5415.00,0.7614
5414.00,0.7658
5413.00,0.7709
5412.00,0.7768
5411.00,0.7836
5410.00,0.7913
5409.00,0.8001
5408.00,0.8096
5407.00,0.8199
5406.00,0.8309
5405.00,0.8426
5404.00,0.8548
5403.00,0.8675
5402.00,0.8806
5401.00,0.8941
5400.00,0.9078
5399.00,0.9218
5398.00,0.9361
5397.00,0.9506
5396.00,0.9654
5395.00,0.9803
5394.00,0.9955
5393.00,1.0106
5392.00,1.0257
5391.00,1.0408
5390.00,1.0558
5389.00,1.0708
5388.00,1.0856
5387.00,1.1003
5386.00,1.1148
5385.00,1.1291
5384.00,1.1431
5383.00,1.1567
5382.00,1.1702
5381.00,1.1834
5380.00,1.1962
5379.00,1.2087
5378.00,1.2208
5377.00,1.2325
5376.00,1.2438
5375.00,1.2546
5374.00,1.2651
5373.00,1.2754
5372.00,1.2854
5371.00,1.2948
5370.00,1.3038
5369.00,1.3122
5368.00,1.3201
5367.00,1.3276
5366.00,1.3347
5365.00,1.3415
5364.00,1.3477
5363.00,1.3534
5362.00,1.3585
5361.00,1.3631
5360.00,1.3674
5359.00,1.3712
5358.00,1.3745
5357.00,1.3772
5356.00,1.3792
5355.00,1.3806
5354.00,1.3817
5353.00,1.3829
5352.00,1.3839
5351.00,1.3845
5350.00,1.3846
5349.00,1.3841
5348.00,1.3830
5347.00,1.3815
5346.00,1.3796
5345.00,1.3774
5344.00,1.3746
5343.00,1.3711
5342.00,1.3670
5341.00,1.3623
5340.00,1.3573
5339.00,1.3519
5338.00,1.3459
5337.00,1.3395
5336.00,1.3326
5335.00,1.3253
5334.00,1.3176
5333.00,1.3093
5332.00,1.3004
5331.00,1.2910
5330.00,1.2814
5329.00,1.2714
5328.00,1.2610
5327.00,1.2503
5326.00,1.2391
5325.00,1.2276
5324.00,1.2154
5323.00,1.2027
5322.00,1.1896
5321.00,1.1759
5320.00,1.1617
5319.00,1.1470
5318.00,1.1319
5317.00,1.1165
5316.00,1.1007
5315.00,1.0845
5314.00,1.0682
5313.00,1.0518
5312.00,1.0354
5311.00,1.0188
5310.00,1.0022
5309.00,0.9855
5308.00,0.9689
5307.00,0.9523
5306.00,0.9360
5305.00,0.9201
5304.00,0.9045
5303.00,0.8895
5302.00,0.8749
5301.00,0.8610
5300.00,0.8476
5299.00,0.8348
5298.00,0.8228
5297.00,0.8115
5296.00,0.8011
5295.00,0.7915
5294.00,0.7830
5293.00,0.7756
5292.00,0.7693
5291.00,0.7640
5290.00,0.7599
5289.00,0.7567
5288.00,0.7547
5287.00,0.7537
5286.00,0.7540
5285.00,0.7554
5284.00,0.7580
5283.00,0.7617
5282.00,0.7663
5281.00,0.7720
5280.00,0.7787
5279.00,0.7862
5278.00,0.7947
5277.00,0.8041
5276.00,0.8142
5275.00,0.8249
5274.00,0.8363
5273.00,0.8483
5272.00,0.8608
5271.00,0.8738
5270.00,0.8873
5269.00,0.9012
5268.00,0.9154
5267.00,0.9300
5266.00,0.9447
5265.00,0.9597
5264.00,0.9748
5263.00,0.9901
5262.00,1.0055
5261.00,1.0211
5260.00,1.0366
5259.00,1.0520
5258.00,1.0672
5257.00,1.0822
5256.00,1.0970
5255.00,1.1117
5254.00,1.1265
5253.00,1.1411
5252.00,1.1554
5251.00,1.1693
5250.00,1.1829
5249.00,1.1963
5248.00,1.2095
5247.00,1.2224
5246.00,1.2350
5245.00,1.2471
5244.00,1.2587
5243.00,1.2697
5242.00,1.2802
5241.00,1.2903
5240.00,1.3003
5239.00,1.3101
5238.00,1.3198
5237.00,1.3289
5236.00,1.3374
5235.00,1.3451
5234.00,1.3521
5233.00,1.3585
5232.00,1.3644
5231.00,1.3700
5230.00,1.3753
5229.00,1.3803
5228.00,1.3848
5227.00,1.3891
5226.00,1.3930
5225.00,1.3965
5224.00,1.3994
5223.00,1.4016
5222.00,1.4033
5221.00,1.4046
5220.00,1.4055
5219.00,1.4060
5218.00,1.4059
5217.00,1.4055
5216.00,1.4045
5215.00,1.4031
5214.00,1.4013
5213.00,1.3992
5212.00,1.3966
5211.00,1.3935
5210.00,1.3898
5209.00,1.3856
5208.00,1.3809
5207.00,1.3756
5206.00,1.3699
5205.00,1.3637
5204.00,1.3571
5203.00,1.3502
5202.00,1.3427
5201.00,1.3347
5200.00,1.3261
5199.00,1.3170
5198.00,1.3075
5197.00,1.2976
5196.00,1.2874
5195.00,1.2767
5194.00,1.2656
5193.00,1.2537
5192.00,1.2408
5191.00,1.2272
5190.00,1.2130
5189.00,1.1986
5188.00,1.1840
5187.00,1.1694
5186.00,1.1545
5185.00,1.1390
5184.00,1.1230
5183.00,1.1065
5182.00,1.0896
5181.00,1.0727
5180.00,1.0557
5179.00,1.0386
5178.00,1.0215
5177.00,1.0044
5176.00,0.9874
5175.00,0.9703
5174.00,0.9534
5173.00,0.9367
5172.00,0.9203
5171.00,0.9043
5170.00,0.8887
5169.00,0.8739
5168.00,0.8597
5167.00,0.8463
5166.00,0.8335
5165.00,0.8216
5164.00,0.8105
5163.00,0.8003
5162.00,0.7912
5161.00,0.7832
5160.00,0.7764
5159.00,0.7707
5158.00,0.7662
5157.00,0.7628
5156.00,0.7606
5155.00,0.7596
5154.00,0.7599
5153.00,0.7615
5152.00,0.7643
5151.00,0.7682
5150.00,0.7733
5149.00,0.7794
5148.00,0.7866
5147.00,0.7947
5146.00,0.8040
5145.00,0.8141
5144.00,0.8250
5143.00,0.8366
5142.00,0.8489
5141.00,0.8618
5140.00,0.8752
5139.00,0.8893
5138.00,0.9040
5137.00,0.9192
5136.00,0.9347
5135.00,0.9502
5134.00,0.9660
5133.00,0.9818
5132.00,0.9978
5131.00,1.0139
5130.00,1.0301
5129.00,1.0464
5128.00,1.0625
5127.00,1.0785
5126.00,1.0945
5125.00,1.1106
5124.00,1.1264
5123.00,1.1421
5122.00,1.1574
5121.00,1.1723
5120.00,1.1868
5119.00,1.2010
5118.00,1.2150
5117.00,1.2289
5116.00,1.2425
5115.00,1.2557
5114.00,1.2684
5113.00,1.2807
5112.00,1.2924
5111.00,1.3036
5110.00,1.3142
5109.00,1.3245
5108.00,1.3345
5107.00,1.3440
5106.00,1.3531
5105.00,1.3618
5104.00,1.3699
5103.00,1.3775
5102.00,1.3847
5101.00,1.3914
5100.00,1.3976
5099.00,1.4033
5098.00,1.4084
5097.00,1.4131
5096.00,1.4174
5095.00,1.4211
5094.00,1.4244
5093.00,1.4273
5092.00,1.4294
5091.00,1.4310
5090.00,1.4322
5089.00,1.4331
5088.00,1.4337
5087.00,1.4339
5086.00,1.4338
5085.00,1.4332
5084.00,1.4322
5083.00,1.4307
5082.00,1.4287
5081.00,1.4263
5080.00,1.4233
5079.00,1.4196
5078.00,1.4154
5077.00,1.4106
5076.00,1.4053
5075.00,1.3996
5074.00,1.3934
5073.00,1.3867
5072.00,1.3794
5071.00,1.3716
5070.00,1.3635
5069.00,1.3553
5068.00,1.3467
5067.00,1.3377
5066.00,1.3282
5065.00,1.3179
5064.00,1.3068
5063.00,1.2949
5062.00,1.2824
5061.00,1.2694
5060.00,1.2560
5059.00,1.2423
5058.00,1.2282
5057.00,1.2137
5056.00,1.1986
5055.00,1.1829
5054.00,1.1669
5053.00,1.1505
5052.00,1.1339
5051.00,1.1169
5050.00,1.0994
5049.00,1.0816
5048.00,1.0634
5047.00,1.0450
5046.00,1.0266
5045.00,1.0084
5044.00,0.9903
5043.00,0.9724
5042.00,0.9547
5041.00,0.9371
5040.00,0.9198
5039.00,0.9029
5038.00,0.8865
5037.00,0.8706
5036.00,0.8555
5035.00,0.8410
5034.00,0.8273
5033.00,0.8146
5032.00,0.8028
5031.00,0.7920
5030.00,0.7824
5029.00,0.7739
5028.00,0.7666
5027.00,0.7605
5026.00,0.7557
5025.00,0.7522
5024.00,0.7500
5023.00,0.7492
5022.00,0.7497
5021.00,0.7515
5020.00,0.7545
5019.00,0.7588
5018.00,0.7643
5017.00,0.7710
5016.00,0.7790
5015.00,0.7880
5014.00,0.7980
5013.00,0.8089
5012.00,0.8207
5011.00,0.8331
5010.00,0.8464
5009.00,0.8603
5008.00,0.8749
5007.00,0.8900
5006.00,0.9055
5005.00,0.9213
5004.00,0.9374
5003.00,0.9538
5002.00,0.9704
5001.00,0.9871
5000.00,1.0040
4999.00,1.0209
4998.00,1.0378
4997.00,1.0547
4996.00,1.0717
4995.00,1.0886
4994.00,1.1054
4993.00,1.1222
4992.00,1.1388
4991.00,1.1552
4990.00,1.1712
4989.00,1.1869
4988.00,1.2022
4987.00,1.2173
4986.00,1.2320
4985.00,1.2466
4984.00,1.2607
4983.00,1.2743
4982.00,1.2875
4981.00,1.3002
4980.00,1.3123
4979.00,1.3239
4978.00,1.3349
4977.00,1.3454
4976.00,1.3555
4975.00,1.3650
4974.00,1.3741
4973.00,1.3828
4972.00,1.3911
4971.00,1.3990
4970.00,1.4066
4969.00,1.4138
4968.00,1.4206
4967.00,1.4266
4966.00,1.4319
4965.00,1.4365
4964.00,1.4408
4963.00,1.4447
4962.00,1.4483
4961.00,1.4515
4960.00,1.4541
4959.00,1.4562
4958.00,1.4578
4957.00,1.4592
4956.00,1.4602
4955.00,1.4608
4954.00,1.4607
4953.00,1.4598
4952.00,1.4582
4951.00,1.4562
4950.00,1.4539
4949.00,1.4512
4948.00,1.4480
4947.00,1.4442
4946.00,1.4397
4945.00,1.4347
4944.00,1.4292
4943.00,1.4235
4942.00,1.4175
4941.00,1.4112
4940.00,1.4044
4939.00,1.3971
4938.00,1.3892
4937.00,1.3806
4936.00,1.3714
4935.00,1.3616
4934.00,1.3511
4933.00,1.3401
4932.00,1.3286
4931.00,1.3166
4930.00,1.3042
4929.00,1.2912
4928.00,1.2776
4927.00,1.2634
4926.00,1.2487
4925.00,1.2336
4924.00,1.2179
4923.00,1.2018
4922.00,1.1851
4921.00,1.1679
4920.00,1.1501
4919.00,1.1320
4918.00,1.1136
4917.00,1.0951
4916.00,1.0764
4915.00,1.0576
4914.00,1.0386
4913.00,1.0194
4912.00,1.0002
4911.00,0.9812
4910.00,0.9624
4909.00,0.9439
4908.00,0.9258
4907.00,0.9081
4906.00,0.8910
4905.00,0.8745
4904.00,0.8588
4903.00,0.8438
4902.00,0.8298
4901.00,0.8168
4900.00,0.8048
4899.00,0.7938
4898.00,0.7842
4897.00,0.7757
4896.00,0.7687
4895.00,0.7629
4894.00,0.7586
4893.00,0.7557
4892.00,0.7543
4891.00,0.7542
4890.00,0.7556
4889.00,0.7584
4888.00,0.7626
4887.00,0.7681
4886.00,0.7750
4885.00,0.7831
4884.00,0.7924
4883.00,0.8027
4882.00,0.8140
4881.00,0.8262
4880.00,0.8392
4879.00,0.8531
4878.00,0.8677
4877.00,0.8830
4876.00,0.8988
4875.00,0.9150
4874.00,0.9316
4873.00,0.9485
4872.00,0.9656
4871.00,0.9830
4870.00,1.0008
4869.00,1.0187
4868.00,1.0368
4867.00,1.0549
4866.00,1.0730
4865.00,1.0909
4864.00,1.1088
4863.00,1.1265
4862.00,1.1439
4861.00,1.1611
4860.00,1.1780
4859.00,1.1946
4858.00,1.2109
4857.00,1.2270
4856.00,1.2427
4855.00,1.2581
4854.00,1.2731
4853.00,1.2876
4852.00,1.3017
4851.00,1.3153
4850.00,1.3283
4849.00,1.3409
4848.00,1.3529
4847.00,1.3645
4846.00,1.3755
4845.00,1.3861
4844.00,1.3962
4843.00,1.4058
4842.00,1.4149
4841.00,1.4235
4840.00,1.4314
4839.00,1.4387
4838.00,1.4454
4837.00,1.4518
4836.00,1.4576
4835.00,1.4631
4834.00,1.4682
4833.00,1.4728
4832.00,1.4770
4831.00,1.4806
4830.00,1.4836
4829.00,1.4861
4828.00,1.4881
4827.00,1.4897
4826.00,1.4910
4825.00,1.4920
4824.00,1.4925
4823.00,1.4924
4822.00,1.4917
4821.00,1.4903
4820.00,1.4882
4819.00,1.4856
4818.00,1.4826
4817.00,1.4792
4816.00,1.4755
4815.00,1.4713
4814.00,1.4667
4813.00,1.4616
4812.00,1.4560
4811.00,1.4499
4810.00,1.4434
4809.00,1.4365
4808.00,1.4291
4807.00,1.4210
4806.00,1.4124
4805.00,1.4032
4804.00,1.3934
4803.00,1.3831
4802.00,1.3721
4801.00,1.3605
4800.00,1.3483
4799.00,1.3355
4798.00,1.3220
4797.00,1.3081
4796.00,1.2935
4795.00,1.2785
4794.00,1.2629
4793.00,1.2468
4792.00,1.2303
4791.00,1.2133
4790.00,1.1958
4789.00,1.1779
4788.00,1.1595
4787.00,1.1406
4786.00,1.1213
4785.00,1.1017
4784.00,1.0818
4783.00,1.0617
4782.00,1.0416
4781.00,1.0214
4780.00,1.0013
4779.00,0.9813
4778.00,0.9615
4777.00,0.9421
4776.00,0.9230
4775.00,0.9044
4774.00,0.8865
4773.00,0.8693
4772.00,0.8530
4771.00,0.8376
4770.00,0.8231
4769.00,0.8097
4768.00,0.7975
4767.00,0.7866
4766.00,0.7771
4765.00,0.7690
4764.00,0.7623
4763.00,0.7572
4762.00,0.7535
4761.00,0.7513
4760.00,0.7507
4759.00,0.7517
4758.00,0.7543
4757.00,0.7583
4756.00,0.7638
4755.00,0.7706
4754.00,0.7788
4753.00,0.7883
4752.00,0.7991
4751.00,0.8110
4750.00,0.8239
4749.00,0.8378
4748.00,0.8523
4747.00,0.8676
4746.00,0.8835
4745.00,0.9001
4744.00,0.9173
4743.00,0.9350
4742.00,0.9530
4741.00,0.9713
4740.00,0.9898
4739.00,1.0085
4738.00,1.0271
4737.00,1.0459
4736.00,1.0646
4735.00,1.0833
4734.00,1.1019
4733.00,1.1206
4732.00,1.1392
4731.00,1.1578
4730.00,1.1762
4729.00,1.1943
4728.00,1.2120
4727.00,1.2292
4726.00,1.2460
4725.00,1.2624
4724.00,1.2786
4723.00,1.2944
4722.00,1.3099
4721.00,1.3249
4720.00,1.3392
4719.00,1.3529
4718.00,1.3659
4717.00,1.3785
4716.00,1.3905
4715.00,1.4021
4714.00,1.4131
4713.00,1.4236
4712.00,1.4335
4711.00,1.4427
4710.00,1.4515
4709.00,1.4598
4708.00,1.4677
4707.00,1.4752
4706.00,1.4822
4705.00,1.4885
4704.00,1.4942
4703.00,1.4993
4702.00,1.5040
4701.00,1.5083
4700.00,1.5123
4699.00,1.5158
4698.00,1.5187
4697.00,1.5212
4696.00,1.5233
4695.00,1.5249
4694.00,1.5260
4693.00,1.5268
4692.00,1.5270
4691.00,1.5267
4690.00,1.5258
4689.00,1.5244
4688.00,1.5225
4687.00,1.5200
4686.00,1.5171
4685.00,1.5138
4684.00,1.5103
4683.00,1.5064
4682.00,1.5019
4681.00,1.4966
4680.00,1.4907
4679.00,1.4843
4678.00,1.4777
4677.00,1.4708
4676.00,1.4636
4675.00,1.4557
4674.00,1.4471
4673.00,1.4379
4672.00,1.4281
4671.00,1.4177
4670.00,1.4066
4669.00,1.3949
4668.00,1.3826
4667.00,1.3698
4666.00,1.3565
4665.00,1.3428
4664.00,1.3285
4663.00,1.3137
4662.00,1.2982
4661.00,1.2820
4660.00,1.2651
4659.00,1.2476
4658.00,1.2295
4657.00,1.2109
4656.00,1.1919
4655.00,1.1724
4654.00,1.1525
4653.00,1.1321
4652.00,1.1115
4651.00,1.0905
4650.00,1.0694
4649.00,1.0483
4648.00,1.0272
4647.00,1.0063
4646.00,0.9856
4645.00,0.9652
4644.00,0.9453
4643.00,0.9258
4642.00,0.9070
4641.00,0.8890
4640.00,0.8718
4639.00,0.8557
4638.00,0.8406
4637.00,0.8267
4636.00,0.8140
4635.00,0.8026
4634.00,0.7927
4633.00,0.7844
4632.00,0.7776
4631.00,0.7725
4630.00,0.7691
4629.00,0.7673
4628.00,0.7672
4627.00,0.7688
4626.00,0.7720
4625.00,0.7769
4624.00,0.7832
4623.00,0.7911
4622.00,0.8003
4621.00,0.8107
4620.00,0.8224
4619.00,0.8353
4618.00,0.8491
4617.00,0.8639
4616.00,0.8796
4615.00,0.8959
4614.00,0.9129
4613.00,0.9305
4612.00,0.9485
4611.00,0.9670
4610.00,0.9858
4609.00,1.0048
4608.00,1.0241
4607.00,1.0435
4606.00,1.0630
4605.00,1.0824
4604.00,1.1019
4603.00,1.1213
4602.00,1.1407
4601.00,1.1599
4600.00,1.1790
4599.00,1.1978
4598.00,1.2163
4597.00,1.2345
4596.00,1.2522
4595.00,1.2694
4594.00,1.2861
4593.00,1.3025
4592.00,1.3184
4591.00,1.3341
4590.00,1.3494
4589.00,1.3643
4588.00,1.3787
4587.00,1.3925
4586.00,1.4057
4585.00,1.4182
4584.00,1.4301
4583.00,1.4415
4582.00,1.4525
4581.00,1.4630
4580.00,1.4730
4579.00,1.4824
4578.00,1.4911
4577.00,1.4993
4576.00,1.5069
4575.00,1.5140
4574.00,1.5205
4573.00,1.5265
4572.00,1.5320
4571.00,1.5372
4570.00,1.5417
4569.00,1.5457
4568.00,1.5489
4567.00,1.5517
4566.00,1.5543
4565.00,1.5568
4564.00,1.5589
4563.00,1.5605
4562.00,1.5611
4561.00,1.5609
4560.00,1.5601
4559.00,1.5589
4558.00,1.5574
4557.00,1.5556
4556.00,1.5533
4555.00,1.5505
4554.00,1.5472
4553.00,1.5435
4552.00,1.5393
4551.00,1.5346
4550.00,1.5294
4549.00,1.5236
4548.00,1.5173
4547.00,1.5106
4546.00,1.5035
4545.00,1.4957
4544.00,1.4872
4543.00,1.4779
4542.00,1.4681
4541.00,1.4576
4540.00,1.4467
4539.00,1.4354
4538.00,1.4235
4537.00,1.4112
4536.00,1.3981
4535.00,1.3844
4534.00,1.3700
4533.00,1.3550
4532.00,1.3393
4531.00,1.3230
4530.00,1.3059
4529.00,1.2882
4528.00,1.2699
4527.00,1.2511
4526.00,1.2320
4525.00,1.2122
4524.00,1.1919
4523.00,1.1709
4522.00,1.1495
4521.00,1.1277
4520.00,1.1056
4519.00,1.0833
4518.00,1.0610
4517.00,1.0387
4516.00,1.0166
4515.00,0.9947
4514.00,0.9732
4513.00,0.9520
4512.00,0.9314
4511.00,0.9115
4510.00,0.8924
4509.00,0.8742
4508.00,0.8571
4507.00,0.8411
4506.00,0.8263
4505.00,0.8128
4504.00,0.8008
4503.00,0.7902
4502.00,0.7814
4501.00,0.7742
4500.00,0.7688
4499.00,0.7651
4498.00,0.7632
4497.00,0.7631
4496.00,0.7648
4495.00,0.7683
4494.00,0.7736
4493.00,0.7805
4492.00,0.7890
4491.00,0.7989
4490.00,0.8102
4489.00,0.8229
4488.00,0.8368
4487.00,0.8519
4486.00,0.8679
4485.00,0.8848
4484.00,0.9025
4483.00,0.9208
4482.00,0.9398
4481.00,0.9593
4480.00,0.9791
4479.00,0.9994
4478.00,1.0199
4477.00,1.0406
4476.00,1.0613
4475.00,1.0821
4474.00,1.1030
4473.00,1.1238
4472.00,1.1445
4471.00,1.1652
4470.00,1.1857
4469.00,1.2060
4468.00,1.2259
4467.00,1.2454
4466.00,1.2645
4465.00,1.2831
4464.00,1.3013
4463.00,1.3190
4462.00,1.3363
4461.00,1.3532
4460.00,1.3696
4459.00,1.3855
4458.00,1.4010
4457.00,1.4160
4456.00,1.4304
4455.00,1.4440
4454.00,1.4568
4453.00,1.4688
4452.00,1.4802
4451.00,1.4911
4450.00,1.5016
4449.00,1.5117
4448.00,1.5212
4447.00,1.5302
4446.00,1.5386
4445.00,1.5464
4444.00,1.5537
4443.00,1.5603
4442.00,1.5665
4441.00,1.5721
4440.00,1.5774
4439.00,1.5823
4438.00,1.5868
4437.00,1.5908
4436.00,1.5943
4435.00,1.5971
4434.00,1.5991
4433.00,1.6004
4432.00,1.6012
4431.00,1.6017
4430.00,1.6019
4429.00,1.6017
4428.00,1.6010
4427.00,1.5998
4426.00,1.5981
4425.00,1.5960
4424.00,1.5933
4423.00,1.5899
4422.00,1.5860
4421.00,1.5817
4420.00,1.5771
4419.00,1.5720
4418.00,1.5662
4417.00,1.5596
4416.00,1.5524
4415.00,1.5449
4414.00,1.5369
4413.00,1.5286
4412.00,1.5198
4411.00,1.5104
4410.00,1.5005
4409.00,1.4900
4408.00,1.4788
4407.00,1.4669
4406.00,1.4543
4405.00,1.4412
4404.00,1.4276
4403.00,1.4134
4402.00,1.3985
4401.00,1.3830
4400.00,1.3669
4399.00,1.3502
4398.00,1.3330
4397.00,1.3155
4396.00,1.2976
4395.00,1.2792
4394.00,1.2605
4393.00,1.2414
4392.00,1.2219
4391.00,1.2021
4390.00,1.1820
4389.00,1.1618
4388.00,1.1415
4387.00,1.1213
4386.00,1.1012
4385.00,1.0815
4384.00,1.0622
4383.00,1.0433
4382.00,1.0249
4381.00,1.0072
4380.00,0.9901
4379.00,0.9739
4378.00,0.9586
4377.00,0.9443
4376.00,0.9310
4375.00,0.9188
4374.00,0.9077
4373.00,0.8980
4372.00,0.8895
4371.00,0.8824
4370.00,0.8765
4369.00,0.8719
4368.00,0.8687
4367.00,0.8668
4366.00,0.8662
4365.00,0.8671
4364.00,0.8692
4363.00,0.8727
4362.00,0.8776
4361.00,0.8837
4360.00,0.8911
4359.00,0.8997
4358.00,0.9095
4357.00,0.9205
4356.00,0.9327
4355.00,0.9459
4354.00,0.9602
4353.00,0.9753
4352.00,0.9910
4351.00,1.0074
4350.00,1.0243
4349.00,1.0417
4348.00,1.0596
4347.00,1.0780
4346.00,1.0966
4345.00,1.1154
4344.00,1.1345
4343.00,1.1538
4342.00,1.1731
4341.00,1.1923
4340.00,1.2114
4339.00,1.2303
4338.00,1.2490
4337.00,1.2677
4336.00,1.2863
4335.00,1.3047
4334.00,1.3230
4333.00,1.3410
4332.00,1.3586
4331.00,1.3757
4330.00,1.3924
4329.00,1.4085
4328.00,1.4244
4327.00,1.4399
4326.00,1.4550
4325.00,1.4695
4324.00,1.4835
4323.00,1.4968
4322.00,1.5095
4321.00,1.5217
4320.00,1.5332
4319.00,1.5441
4318.00,1.5545
4317.00,1.5644
4316.00,1.5738
4315.00,1.5828
4314.00,1.5912
4313.00,1.5990
4312.00,1.6062
4311.00,1.6127
4310.00,1.6185
4309.00,1.6238
4308.00,1.6284
4307.00,1.6326
4306.00,1.6362
4305.00,1.6395
4304.00,1.6422
4303.00,1.6444
4302.00,1.6462
4301.00,1.6477
4300.00,1.6489
4299.00,1.6496
4298.00,1.6498
4297.00,1.6493
4296.00,1.6482
4295.00,1.6465
4294.00,1.6445
4293.00,1.6421
4292.00,1.6393
4291.00,1.6360
4290.00,1.6321
4289.00,1.6278
4288.00,1.6233
4287.00,1.6185
4286.00,1.6135
4285.00,1.6078
4284.00,1.6014
4283.00,1.5942
4282.00,1.5863
4281.00,1.5779
4280.00,1.5688
4279.00,1.5591
4278.00,1.5489
4277.00,1.5384
4276.00,1.5276
4275.00,1.5161
4274.00,1.5041
4273.00,1.4915
4272.00,1.4783
4271.00,1.4647
4270.00,1.4504
4269.00,1.4354
4268.00,1.4196
4267.00,1.4029
4266.00,1.3854
4265.00,1.3673
4264.00,1.3487
4263.00,1.3296
4262.00,1.3100
4261.00,1.2897
4260.00,1.2687
4259.00,1.2470
4258.00,1.2248
4257.00,1.2023
4256.00,1.1795
4255.00,1.1566
4254.00,1.1335
4253.00,1.1104
4252.00,1.0874
4251.00,1.0644
4250.00,1.0417
4249.00,1.0194
4248.00,0.9977
4247.00,0.9767
4246.00,0.9567
4245.00,0.9377
4244.00,0.9198
4243.00,0.9031
4242.00,0.8880
4241.00,0.8744
4240.00,0.8625
4239.00,0.8523
4238.00,0.8441
4237.00,0.8377
4236.00,0.8333
4235.00,0.8310
4234.00,0.8307
4233.00,0.8325
4232.00,0.8363
4231.00,0.8421
4230.00,0.8497
4229.00,0.8590
4228.00,0.8699
4227.00,0.8823
4226.00,0.8961
4225.00,0.9111
4224.00,0.9272
4223.00,0.9442
4222.00,0.9622
4221.00,0.9809
4220.00,1.0002
4219.00,1.0200
4218.00,1.0402
4217.00,1.0609
4216.00,1.0818
4215.00,1.1028
4214.00,1.1240
4213.00,1.1452
4212.00,1.1664
4211.00,1.1878
4210.00,1.2091
4209.00,1.2304
4208.00,1.2515
4207.00,1.2723
4206.00,1.2929
4205.00,1.3132
4204.00,1.3331
4203.00,1.3526
4202.00,1.3717
4201.00,1.3902
4200.00,1.4083
4199.00,1.4260
4198.00,1.4432
4197.00,1.4600
4196.00,1.4761
4195.00,1.4915
4194.00,1.5063
4193.00,1.5206
4192.00,1.5344
4191.00,1.5474
4190.00,1.5597
4189.00,1.5713
4188.00,1.5825
4187.00,1.5934
4186.00,1.6040
4185.00,1.6139
4184.00,1.6230
4183.00,1.6314
4182.00,1.6391
4181.00,1.6463
4180.00,1.6531
4179.00,1.6595
4178.00,1.6655
4177.00,1.6712
4176.00,1.6764
4175.00,1.6811
4174.00,1.6850
4173.00,1.6881
4172.00,1.6904
4171.00,1.6922
4170.00,1.6937
4169.00,1.6950
4168.00,1.6960
4167.00,1.6968
4166.00,1.6970
4165.00,1.6967
4164.00,1.6958
4163.00,1.6944
4162.00,1.6926
4161.00,1.6901
4160.00,1.6869
4159.00,1.6830
4158.00,1.6784
4157.00,1.6734
4156.00,1.6682
4155.00,1.6629
4154.00,1.6575
4153.00,1.6516
4152.00,1.6449
4151.00,1.6373
4150.00,1.6289
4149.00,1.6197
4148.00,1.6101
4147.00,1.6002
4146.00,1.5901
4145.00,1.5796
4144.00,1.5685
4143.00,1.5565
4142.00,1.5437
4141.00,1.5300
4140.00,1.5158
4139.00,1.5010
4138.00,1.4857
4137.00,1.4696
4136.00,1.4528
4135.00,1.4352
4134.00,1.4169
4133.00,1.3979
4132.00,1.3781
4131.00,1.3574
4130.00,1.3361
4129.00,1.3143
4128.00,1.2921
4127.00,1.2695
4126.00,1.2465
4125.00,1.2230
4124.00,1.1992
4123.00,1.1751
4122.00,1.1507
4121.00,1.1262
4120.00,1.1018
4119.00,1.0777
4118.00,1.0541
4117.00,1.0311
4116.00,1.0088
4115.00,0.9873
4114.00,0.9668
4113.00,0.9474
4112.00,0.9292
4111.00,0.9126
4110.00,0.8976
4109.00,0.8843
4108.00,0.8729
4107.00,0.8634
4106.00,0.8558
4105.00,0.8503
4104.00,0.8468
4103.00,0.8454
4102.00,0.8461
4101.00,0.8489
4100.00,0.8537
4099.00,0.8606
4098.00,0.8694
4097.00,0.8800
4096.00,0.8922
4095.00,0.9060
4094.00,0.9212
4093.00,0.9378
4092.00,0.9555
4091.00,0.9742
4090.00,0.9939
4089.00,1.0142
4088.00,1.0353
4087.00,1.0569
4086.00,1.0789
4085.00,1.1013
4084.00,1.1240
4083.00,1.1469
4082.00,1.1698
4081.00,1.1927
4080.00,1.2155
4079.00,1.2382
4078.00,1.2609
4077.00,1.2833
4076.00,1.3055
4075.00,1.3273
4074.00,1.3487
4073.00,1.3696
4072.00,1.3900
4071.00,1.4099
4070.00,1.4292
4069.00,1.4482
4068.00,1.4668
4067.00,1.4849
4066.00,1.5024
4065.00,1.5191
4064.00,1.5350
4063.00,1.5503
4062.00,1.5652
4061.00,1.5796
4060.00,1.5933
4059.00,1.6063
4058.00,1.6184
4057.00,1.6298
4056.00,1.6407
4055.00,1.6511
4054.00,1.6609
4053.00,1.6701
4052.00,1.6787
4051.00,1.6867
4050.00,1.6940
4049.00,1.7008
4048.00,1.7069
4047.00,1.7125
4046.00,1.7178
4045.00,1.7228
4044.00,1.7273
4043.00,1.7313
4042.00,1.7346
4041.00,1.7370
4040.00,1.7388
4039.00,1.7401
4038.00,1.7411
4037.00,1.7416
4036.00,1.7417
4035.00,1.7415
4034.00,1.7409
4033.00,1.7398
4032.00,1.7380
4031.00,1.7356
4030.00,1.7327
4029.00,1.7295
4028.00,1.7258
4027.00,1.7215
4026.00,1.7164
4025.00,1.7104
4024.00,1.7038
4023.00,1.6970
4022.00,1.6902
4021.00,1.6830
4020.00,1.6753
4019.00,1.6668
4018.00,1.6575
4017.00,1.6476
4016.00,1.6373
4015.00,1.6264
4014.00,1.6150
4013.00,1.6029
4012.00,1.5900
4011.00,1.5762
4010.00,1.5618
4009.00,1.5469
4008.00,1.5315
4007.00,1.5154
4006.00,1.4986
4005.00,1.4809
4004.00,1.4625
4003.00,1.4434
4002.00,1.4237
4001.00,1.4032
4000.00,1.3821
3999.00,1.3603
3998.00,1.3379
3997.00,1.3147
3996.00,1.2908
3995.00,1.2663
3994.00,1.2413
3993.00,1.2158
3992.00,1.1901
3991.00,1.1641
3990.00,1.1381
3989.00,1.1122
3988.00,1.0868
3987.00,1.0619
3986.00,1.0377
3985.00,1.0143
3984.00,0.9918
3983.00,0.9704
3982.00,0.9504
3981.00,0.9319
3980.00,0.9151
3979.00,0.9002
3978.00,0.8873
3977.00,0.8764
3976.00,0.8676
3975.00,0.8610
3974.00,0.8566
3973.00,0.8545
3972.00,0.8546
3971.00,0.8571
3970.00,0.8619
3969.00,0.8688
3968.00,0.8779
3967.00,0.8889
3966.00,0.9018
3965.00,0.9165
3964.00,0.9329
3963.00,0.9507
3962.00,0.9698
3961.00,0.9899
3960.00,1.0110
3959.00,1.0328
3958.00,1.0553
3957.00,1.0784
3956.00,1.1019
3955.00,1.1256
3954.00,1.1494
3953.00,1.1730
3952.00,1.1966
3951.00,1.2201
3950.00,1.2436
3949.00,1.2670
3948.00,1.2904
3947.00,1.3136
3946.00,1.3365
3945.00,1.3588
3944.00,1.3806
3943.00,1.4021
3942.00,1.4234
3941.00,1.4446
3940.00,1.4653
3939.00,1.4852
3938.00,1.5042
3937.00,1.5223
3936.00,1.5396
3935.00,1.5562
3934.00,1.5722
3933.00,1.5879
3932.00,1.6034
3931.00,1.6186
3930.00,1.6330
3929.00,1.6467
3928.00,1.6596
3927.00,1.6720
3926.00,1.6835
3925.00,1.6941
3924.00,1.7040
3923.00,1.7134
3922.00,1.7222
3921.00,1.7304
3920.00,1.7378
3919.00,1.7445
3918.00,1.7509
3917.00,1.7572
3916.00,1.7635
3915.00,1.7696
3914.00,1.7752
3913.00,1.7802
3912.00,1.7845
3911.00,1.7881
3910.00,1.7905
3909.00,1.7915
3908.00,1.7911
3907.00,1.7901
3906.00,1.7889
3905.00,1.7879
3904.00,1.7870
3903.00,1.7863
3902.00,1.7854
3901.00,1.7841
3900.00,1.7823
3899.00,1.7801
3898.00,1.7778
3897.00,1.7750
3896.00,1.7714
3895.00,1.7668
3894.00,1.7614
3893.00,1.7549
3892.00,1.7473
3891.00,1.7387
3890.00,1.7298
3889.00,1.7211
3888.00,1.7128
3887.00,1.7041
3886.00,1.6942
3885.00,1.6833
3884.00,1.6717
3883.00,1.6598
3882.00,1.6472
3881.00,1.6334
3880.00,1.6187
3879.00,1.6037
3878.00,1.5888
3877.00,1.5738
3876.00,1.5578
3875.00,1.5396
3874.00,1.5195
3873.00,1.4986
3872.00,1.4773
3871.00,1.4547
3870.00,1.4302
3869.00,1.4048
3868.00,1.3801
3867.00,1.3561
3866.00,1.3316
3865.00,1.3057
3864.00,1.2785
3863.00,1.2507
3862.00,1.2226
3861.00,1.1942
3860.00,1.1653
3859.00,1.1354
3858.00,1.1049
3857.00,1.0749
3856.00,1.0470
3855.00,1.0207
3854.00,0.9939
3853.00,0.9665
3852.00,0.9410
3851.00,0.9190
3850.00,0.9004
3849.00,0.8845
3848.00,0.8711
3847.00,0.8601
3846.00,0.8512
3845.00,0.8441
3844.00,0.8388
3843.00,0.8352
3842.00,0.8335
3841.00,0.8343
3840.00,0.8379
3839.00,0.8449
3838.00,0.8553
3837.00,0.8689
3836.00,0.8848
3835.00,0.9023
3834.00,0.9215
3833.00,0.9425
3832.00,0.9654
3831.00,0.9900
3830.00,1.0155
3829.00,1.0415
3828.00,1.0675
3827.00,1.0933
3826.00,1.1188
3825.00,1.1440
3824.00,1.1691
3823.00,1.1946
3822.00,1.2209
3821.00,1.2481
3820.00,1.2761
3819.00,1.3035
3818.00,1.3295
3817.00,1.3550
3816.00,1.3815
3815.00,1.4095
3814.00,1.4376
3813.00,1.4636
3812.00,1.4868
3811.00,1.5076
3810.00,1.5269
3809.00,1.5456
3808.00,1.5642
3807.00,1.5828
3806.00,1.6016
3805.00,1.6195
3804.00,1.6360
3803.00,1.6510
3802.00,1.6656
3801.00,1.6808
3800.00,1.6968
3799.00,1.7121
3798.00,1.7259
3797.00,1.7382
3796.00,1.7496
3795.00,1.7605
3794.00,1.7712
3793.00,1.7811
3792.00,1.7903
3791.00,1.7987
3790.00,1.8062
3789.00,1.8128
3788.00,1.8185
3787.00,1.8236
3786.00,1.8282
3785.00,1.8320
3784.00,1.8352
3783.00,1.8381
3782.00,1.8407
3781.00,1.8429
3780.00,1.8441
3779.00,1.8445
3778.00,1.8448
3777.00,1.8450
3776.00,1.8448
3775.00,1.8438
3774.00,1.8420
3773.00,1.8392
3772.00,1.8355
3771.00,1.8309
3770.00,1.8259
3769.00,1.8213
3768.00,1.8170
3767.00,1.8125
3766.00,1.8073
3765.00,1.8012
3764.00,1.7945
3763.00,1.7877
3762.00,1.7808
3761.00,1.7737
3760.00,1.7660
3759.00,1.7577
3758.00,1.7482
3757.00,1.7373
3756.00,1.7252
3755.00,1.7125
3754.00,1.6996
3753.00,1.6865
3752.00,1.6727
3751.00,1.6578
3750.00,1.6415
3749.00,1.6237
3748.00,1.6052
3747.00,1.5868
3746.00,1.5683
3745.00,1.5484
3744.00,1.5269
3743.00,1.5047
3742.00,1.4817
3741.00,1.4568
3740.00,1.4294
3739.00,1.4001
3738.00,1.3693
3737.00,1.3365
3736.00,1.3012
3735.00,1.2644
3734.00,1.2276
3733.00,1.1914
3732.00,1.1560
3731.00,1.1219
3730.00,1.0899
3729.00,1.0603
3728.00,1.0325
3727.00,1.0063
3726.00,0.9820
3725.00,0.9601
3724.00,0.9408
3723.00,0.9240
3722.00,0.9091
3721.00,0.8954
3720.00,0.8827
3719.00,0.8716
3718.00,0.8632
3717.00,0.8576
3716.00,0.8544
3715.00,0.8530
3714.00,0.8541
3713.00,0.8584
3712.00,0.8663
3711.00,0.8775
3710.00,0.8918
3709.00,0.9095
3708.00,0.9301
3707.00,0.9534
3706.00,0.9785
3705.00,1.0053
3704.00,1.0336
3703.00,1.0637
3702.00,1.0955
3701.00,1.1289
3700.00,1.1633
3699.00,1.1979
3698.00,1.2320
3697.00,1.2654
3696.00,1.2982
3695.00,1.3302
3694.00,1.3610
3693.00,1.3905
3692.00,1.4189
3691.00,1.4465
3690.00,1.4739
3689.00,1.5023
3688.00,1.5323
3687.00,1.5629
3686.00,1.5918
3685.00,1.6178
3684.00,1.6411
3683.00,1.6626
3682.00,1.6827
3681.00,1.7009
3680.00,1.7170
3679.00,1.7313
3678.00,1.7451
3677.00,1.7590
3676.00,1.7730
3675.00,1.7872
3674.00,1.8017
3673.00,1.8157
3672.00,1.8289
3671.00,1.8414
3670.00,1.8535
3669.00,1.8656
3668.00,1.8774
3667.00,1.8884
3666.00,1.8985
3665.00,1.9076
3664.00,1.9160
3663.00,1.9234
3662.00,1.9294
3661.00,1.9336
3660.00,1.9366
3659.00,1.9390
3658.00,1.9417
3657.00,1.9447
3656.00,1.9476
3655.00,1.9499
3654.00,1.9511
3653.00,1.9515
3652.00,1.9518
3651.00,1.9523
3650.00,1.9529
3649.00,1.9533
3648.00,1.9536
3647.00,1.9537
3646.00,1.9534
3645.00,1.9528
3644.00,1.9516
3643.00,1.9497
3642.00,1.9468
3641.00,1.9430
3640.00,1.9380
3639.00,1.9316
3638.00,1.9240
3637.00,1.9155
3636.00,1.9061
3635.00,1.8957
3634.00,1.8840
3633.00,1.8713
3632.00,1.8586
3631.00,1.8468
3630.00,1.8358
3629.00,1.8251
3628.00,1.8154
3627.00,1.8071
3626.00,1.7996
3625.00,1.7921
3624.00,1.7845
3623.00,1.7770
3622.00,1.7698
3621.00,1.7626
3620.00,1.7546
3619.00,1.7450
3618.00,1.7338
3617.00,1.7217
3616.00,1.7094
3615.00,1.6969
3614.00,1.6832
3613.00,1.6678
3612.00,1.6512
3611.00,1.6348
3610.00,1.6194
3609.00,1.6048
3608.00,1.5905
3607.00,1.5767
3606.00,1.5638
3605.00,1.5517
3604.00,1.5404
3603.00,1.5296
3602.00,1.5188
3601.00,1.5081
3600.00,1.4976
3599.00,1.4877
3598.00,1.4786
3597.00,1.4703
3596.00,1.4628
3595.00,1.4559
3594.00,1.4495
3593.00,1.4436
3592.00,1.4382
3591.00,1.4339
3590.00,1.4312
3589.00,1.4298
3588.00,1.4295
3587.00,1.4301
3586.00,1.4319
3585.00,1.4351
3584.00,1.4394
3583.00,1.4447
3582.00,1.4510
3581.00,1.4583
3580.00,1.4666
3579.00,1.4756
3578.00,1.4852
3577.00,1.4954
3576.00,1.5063
3575.00,1.5178
3574.00,1.5298
3573.00,1.5420
3572.00,1.5545
3571.00,1.5673
3570.00,1.5807
3569.00,1.5950
3568.00,1.6100
3567.00,1.6255
3566.00,1.6416
3565.00,1.6579
3564.00,1.6742
3563.00,1.6904
3562.00,1.7063
3561.00,1.7222
3560.00,1.7383
3559.00,1.7545
3558.00,1.7706
3557.00,1.7862
3556.00,1.8013
3555.00,1.8158
3554.00,1.8299
3553.00,1.8434
3552.00,1.8567
3551.00,1.8698
3550.00,1.8830
3549.00,1.8960
3548.00,1.9086
3547.00,1.9206
3546.00,1.9323
3545.00,1.9440
3544.00,1.9556
3543.00,1.9670
3542.00,1.9776
3541.00,1.9875
3540.00,1.9966
3539.00,2.0050
3538.00,2.0130
3537.00,2.0208
3536.00,2.0286
3535.00,2.0364
3534.00,2.0441
3533.00,2.0517
3532.00,2.0588
3531.00,2.0653
3530.00,2.0710
3529.00,2.0760
3528.00,2.0804
3527.00,2.0843
3526.00,2.0880
3525.00,2.0914
3524.00,2.0948
3523.00,2.0984
3522.00,2.1020
3521.00,2.1055
3520.00,2.1083
3519.00,2.1100
3518.00,2.1110
3517.00,2.1119
3516.00,2.1133
3515.00,2.1150
3514.00,2.1164
3513.00,2.1172
3512.00,2.1169
3511.00,2.1157
3510.00,2.1137
3509.00,2.1116
3508.00,2.1096
3507.00,2.1077
3506.00,2.1053
3505.00,2.1021
3504.00,2.0980
3503.00,2.0937
3502.00,2.0895
3501.00,2.0856
3500.00,2.0819
3499.00,2.0779
3498.00,2.0733
3497.00,2.0678
3496.00,2.0613
3495.00,2.0543
3494.00,2.0470
3493.00,2.0397
3492.00,2.0323
3491.00,2.0246
3490.00,2.0168
3489.00,2.0088
3488.00,2.0003
3487.00,1.9913
3486.00,1.9816
3485.00,1.9716
3484.00,1.9612
3483.00,1.9503
3482.00,1.9389
3481.00,1.9270
3480.00,1.9146
3479.00,1.9018
3478.00,1.8888
3477.00,1.8759
3476.00,1.8631
3475.00,1.8501
3474.00,1.8367
3473.00,1.8230
3472.00,1.8090
3471.00,1.7949
3470.00,1.7804
3469.00,1.7657
3468.00,1.7509
3467.00,1.7363
3466.00,1.7220
3465.00,1.7081
3464.00,1.6944
3463.00,1.6809
3462.00,1.6674
3461.00,1.6540
3460.00,1.6411
3459.00,1.6289
3458.00,1.6175
3457.00,1.6068
3456.00,1.5967
3455.00,1.5872
3454.00,1.5785
3453.00,1.5707
3452.00,1.5642
3451.00,1.5588
3450.00,1.5548
3449.00,1.5518
3448.00,1.5498
3447.00,1.5487
3446.00,1.5487
3445.00,1.5500
3444.00,1.5525
3443.00,1.5562
3442.00,1.5612
3441.00,1.5673
3440.00,1.5745
3439.00,1.5826
3438.00,1.5916
3437.00,1.6015
3436.00,1.6123
3435.00,1.6240
3434.00,1.6366
3433.00,1.6499
3432.00,1.6638
3431.00,1.6781
3430.00,1.6929
3429.00,1.7083
3428.00,1.7242
3427.00,1.7404
3426.00,1.7569
3425.00,1.7734
3424.00,1.7898
3423.00,1.8060
3422.00,1.8218
3421.00,1.8374
3420.00,1.8530
3419.00,1.8686
3418.00,1.8842
3417.00,1.8995
3416.00,1.9144
3415.00,1.9285
3414.00,1.9421
3413.00,1.9552
3412.00,1.9678
3411.00,1.9797
3410.00,1.9906
3409.00,2.0004
3408.00,2.0097
3407.00,2.0187
3406.00,2.0276
3405.00,2.0359
3404.00,2.0435
3403.00,2.0501
3402.00,2.0559
3401.00,2.0614
3400.00,2.0668
3399.00,2.0720
3398.00,2.0770
3397.00,2.0819
3396.00,2.0869
3395.00,2.0916
3394.00,2.0959
3393.00,2.1000
3392.00,2.1041
3391.00,2.1084
3390.00,2.1127
3389.00,2.1166
3388.00,2.1197
3387.00,2.1221
3386.00,2.1240
3385.00,2.1258
3384.00,2.1277
3383.00,2.1295
3382.00,2.1312
3381.00,2.1326
3380.00,2.1335
3379.00,2.1336
3378.00,2.1329
3377.00,2.1315
3376.00,2.1299
3375.00,2.1284
3374.00,2.1268
3373.00,2.1245
3372.00,2.1211
3371.00,2.1169
3370.00,2.1124
3369.00,2.1080
3368.00,2.1035
3367.00,2.0986
3366.00,2.0932
3365.00,2.0874
3364.00,2.0812
3363.00,2.0740
3362.00,2.0656
3361.00,2.0565
3360.00,2.0475
3359.00,2.0387
3358.00,2.0297
3357.00,2.0199
3356.00,2.0095
3355.00,1.9987
3354.00,1.9875
3353.00,1.9757
3352.00,1.9631
3351.00,1.9496
3350.00,1.9356
3349.00,1.9212
3348.00,1.9067
3347.00,1.8919
3346.00,1.8765
3345.00,1.8602
3344.00,1.8429
3343.00,1.8249
3342.00,1.8066
3341.00,1.7883
3340.00,1.7698
3339.00,1.7509
3338.00,1.7318
3337.00,1.7123
3336.00,1.6926
3335.00,1.6727
3334.00,1.6528
3333.00,1.6329
3332.00,1.6134
3331.00,1.5943
3330.00,1.5756
3329.00,1.5574
3328.00,1.5397
3327.00,1.5228
3326.00,1.5068
3325.00,1.4919
3324.00,1.4784
3323.00,1.4661
3322.00,1.4553
3321.00,1.4459
3320.00,1.4381
3319.00,1.4321
3318.00,1.4278
3317.00,1.4254
3316.00,1.4250
3315.00,1.4263
3314.00,1.4295
3313.00,1.4342
3312.00,1.4405
3311.00,1.4483
3310.00,1.4576
3309.00,1.4684
3308.00,1.4807
3307.00,1.4942
3306.00,1.5089
3305.00,1.5245
3304.00,1.5409
3303.00,1.5582
3302.00,1.5761
3301.00,1.5945
3300.00,1.6134
3299.00,1.6326
3298.00,1.6522
3297.00,1.6719
3296.00,1.6917
3295.00,1.7116
3294.00,1.7313
3293.00,1.7508
3292.00,1.7701
3291.00,1.7892
3290.00,1.8080
3289.00,1.8265
3288.00,1.8446
3287.00,1.8623
3286.00,1.8798
3285.00,1.8968
3284.00,1.9132
3283.00,1.9291
3282.00,1.9447
3281.00,1.9600
3280.00,1.9747
3279.00,1.9884
3278.00,2.0013
3277.00,2.0136
3276.00,2.0259
3275.00,2.0381
3274.00,2.0501
3273.00,2.0615
3272.00,2.0722
3271.00,2.0820
3270.00,2.0907
3269.00,2.0984
3268.00,2.1052
3267.00,2.1119
3266.00,2.1191
3265.00,2.1269
3264.00,2.1346
3263.00,2.1413
3262.00,2.1468
3261.00,2.1513
3260.00,2.1554
3259.00,2.1594
3258.00,2.1631
3257.00,2.1666
3256.00,2.1696
3255.00,2.1718
3254.00,2.1730
3253.00,2.1736
3252.00,2.1742
3251.00,2.1747
3250.00,2.1749
3249.00,2.1745
3248.00,2.1737
3247.00,2.1725
3246.00,2.1708
3245.00,2.1686
3244.00,2.1657
3243.00,2.1620
3242.00,2.1576
3241.00,2.1527
3240.00,2.1476
3239.00,2.1425
3238.00,2.1375
3237.00,2.1323
3236.00,2.1268
3235.00,2.1210
3234.00,2.1147
3233.00,2.1075
3232.00,2.0994
3231.00,2.0907
3230.00,2.0817
3229.00,2.0722
3228.00,2.0621
3227.00,2.0513
3226.00,2.0400
3225.00,2.0285
3224.00,2.0166
3223.00,2.0041
3222.00,1.9911
3221.00,1.9777
3220.00,1.9638
3219.00,1.9494
3218.00,1.9346
3217.00,1.9196
3216.00,1.9044
3215.00,1.8885
3214.00,1.8716
3213.00,1.8539
3212.00,1.8360
3211.00,1.8183
3210.00,1.8007
3209.00,1.7831
3208.00,1.7652
3207.00,1.7473
3206.00,1.7293
3205.00,1.7115
3204.00,1.6938
3203.00,1.6765
3202.00,1.6596
3201.00,1.6434
3200.00,1.6279
3199.00,1.6131
3198.00,1.5990
3197.00,1.5859
3196.00,1.5742
3195.00,1.5637
3194.00,1.5545
3193.00,1.5464
3192.00,1.5398
3191.00,1.5347
3190.00,1.5314
3189.00,1.5298
3188.00,1.5298
3187.00,1.5313
3186.00,1.5345
3185.00,1.5395
3184.00,1.5460
3183.00,1.5541
3182.00,1.5633
3181.00,1.5737
3180.00,1.5854
3179.00,1.5984
3178.00,1.6125
3177.00,1.6274
3176.00,1.6430
3175.00,1.6592
3174.00,1.6760
3173.00,1.6933
3172.00,1.7108
3171.00,1.7285
3170.00,1.7463
3169.00,1.7644
3168.00,1.7827
3167.00,1.8013
3166.00,1.8200
3165.00,1.8387
3164.00,1.8571
3163.00,1.8752
3162.00,1.8928
3161.00,1.9100
3160.00,1.9270
3159.00,1.9439
3158.00,1.9607
3157.00,1.9771
3156.00,1.9930
3155.00,2.0082
3154.00,2.0225
3153.00,2.0357
3152.00,2.0480
3151.00,2.0599
3150.00,2.0718
3149.00,2.0838
3148.00,2.0954
3147.00,2.1060
3146.00,2.1156
3145.00,2.1243
3144.00,2.1326
3143.00,2.1408
3142.00,2.1489
3141.00,2.1568
3140.00,2.1647
3139.00,2.1726
3138.00,2.1803
3137.00,2.1873
3136.00,2.1930
3135.00,2.1977
3134.00,2.2020
3133.00,2.2064
3132.00,2.2110
3131.00,2.2152
3130.00,2.2193
3129.00,2.2230
3128.00,2.2261
3127.00,2.2283
3126.00,2.2295
3125.00,2.2302
3124.00,2.2308
3123.00,2.2314
3122.00,2.2320
3121.00,2.2323
3120.00,2.2322
3119.00,2.2311
3118.00,2.2287
3117.00,2.2250
3116.00,2.2204
3115.00,2.2155
3114.00,2.2105
3113.00,2.2053
3112.00,2.1994
3111.00,2.1929
3110.00,2.1857
3109.00,2.1781
3108.00,2.1701
3107.00,2.1616
3106.00,2.1525
3105.00,2.1429
3104.00,2.1327
3103.00,2.1218
3102.00,2.1102
3101.00,2.0977
3100.00,2.0845
3099.00,2.0704
3098.00,2.0557
3097.00,2.0406
3096.00,2.0255
3095.00,2.0102
3094.00,1.9943
3093.00,1.9775
3092.00,1.9600
3091.00,1.9419
3090.00,1.9232
3089.00,1.9037
3088.00,1.8835
3087.00,1.8630
3086.00,1.8423
3085.00,1.8216
3084.00,1.8009
3083.00,1.7804
3082.00,1.7598
3081.00,1.7394
3080.00,1.7193
3079.00,1.6999
3078.00,1.6816
3077.00,1.6645
3076.00,1.6486
3075.00,1.6339
3074.00,1.6207
3073.00,1.6092
3072.00,1.5995
3071.00,1.5919
3070.00,1.5865
3069.00,1.5834
3068.00,1.5828
3067.00,1.5845
3066.00,1.5887
3065.00,1.5953
3064.00,1.6040
3063.00,1.6146
3062.00,1.6268
3061.00,1.6405
3060.00,1.6556
3059.00,1.6721
3058.00,1.6896
3057.00,1.7080
3056.00,1.7271
3055.00,1.7470
3054.00,1.7679
3053.00,1.7895
3052.00,1.8116
3051.00,1.8340
3050.00,1.8563
3049.00,1.8784
3048.00,1.9003
3047.00,1.9221
3046.00,1.9437
3045.00,1.9650
3044.00,1.9861
3043.00,2.0068
3042.00,2.0274
3041.00,2.0477
3040.00,2.0675
3039.00,2.0866
3038.00,2.1051
3037.00,2.1229
3036.00,2.1400
3035.00,2.1562
3034.00,2.1717
3033.00,2.1863
3032.00,2.2000
3031.00,2.2128
3030.00,2.2248
3029.00,2.2363
3028.00,2.2469
3027.00,2.2564
3026.00,2.2654
3025.00,2.2744
3024.00,2.2835
3023.00,2.2921
3022.00,2.2993
3021.00,2.3046
3020.00,2.3083
3019.00,2.3110
3018.00,2.3132
3017.00,2.3152
3016.00,2.3167
3015.00,2.3171
3014.00,2.3162
3013.00,2.3137
3012.00,2.3095
3011.00,2.3038
3010.00,2.2975
3009.00,2.2912
3008.00,2.2850
3007.00,2.2779
3006.00,2.2691
3005.00,2.2585
3004.00,2.2463
3003.00,2.2331
3002.00,2.2191
3001.00,2.2043
3000.00,2.1883
2999.00,2.1709
2998.00,2.1520
2997.00,2.1322
2996.00,2.1125
2995.00,2.0934
2994.00,2.0756
2993.00,2.0593
2992.00,2.0456
2991.00,2.0353
2990.00,2.0294
2989.00,2.0287
2988.00,2.0339
2987.00,2.0454
2986.00,2.0640
2985.00,2.0896
2984.00,2.1219
2983.00,2.1598
2982.00,2.2025
2981.00,2.2496
2980.00,2.3013
2979.00,2.3577
2978.00,2.4186
2977.00,2.4829
2976.00,2.5488
2975.00,2.6151
2974.00,2.6820
2973.00,2.7509
2972.00,2.8233
2971.00,2.8998
2970.00,2.9806
2969.00,3.0655
2968.00,3.1549
2967.00,3.2490
2966.00,3.3473
2965.00,3.4440
2964.00,3.5267
2963.00,3.5856
2962.00,3.6255
2961.00,3.6595
2960.00,3.6901
2959.00,3.7097
2958.00,3.7164
2957.00,3.7190
2956.00,3.7274
2955.00,3.7466
2954.00,3.7772
2953.00,3.8156
2952.00,3.8544
2951.00,3.8877
2950.00,3.9151
2949.00,3.9407
2948.00,3.9722
2947.00,4.0175
2946.00,4.0713
2945.00,4.1046
2944.00,4.0888
2943.00,4.0420
2942.00,4.0075
2941.00,4.0065
2940.00,4.0382
2939.00,4.0968
2938.00,4.1619
2937.00,4.1991
2936.00,4.2051
2935.00,4.2143
2934.00,4.2667
2933.00,4.3614
2932.00,4.4298
2931.00,4.4041
2930.00,4.3316
2929.00,4.3023
2928.00,4.3279
2927.00,4.3367
2926.00,4.2726
2925.00,4.1763
2924.00,4.1048
2923.00,4.0649
2922.00,4.0337
2921.00,4.0008
2920.00,3.9579
2919.00,3.8803
2918.00,3.7631
2917.00,3.6392
2916.00,3.5385
2915.00,3.4655
2914.00,3.4101
2913.00,3.3630
2912.00,3.3213
2911.00,3.2849
2910.00,3.2525
2909.00,3.2218
2908.00,3.1915
2907.00,3.1615
2906.00,3.1320
2905.00,3.1034
2904.00,3.0754
2903.00,3.0477
2902.00,3.0202
2901.00,2.9934
2900.00,2.9676
2899.00,2.9419
2898.00,2.9157
2897.00,2.8901
2896.00,2.8676
2895.00,2.8486
2894.00,2.8313
2893.00,2.8131
2892.00,2.7939
2891.00,2.7760
2890.00,2.7613
2889.00,2.7498
2888.00,2.7403
2887.00,2.7327
2886.00,2.7281
2885.00,2.7289
2884.00,2.7368
2883.00,2.7520
2882.00,2.7738
2881.00,2.8009
2880.00,2.8331
2879.00,2.8703
2878.00,2.9126
2877.00,2.9587
2876.00,3.0077
2875.00,3.0595
2874.00,3.1152
2873.00,3.1754
2872.00,3.2395
2871.00,3.3058
2870.00,3.3729
2869.00,3.4409
2868.00,3.5126
2867.00,3.5902
2866.00,3.6679
2865.00,3.7277
2864.00,3.7542
2863.00,3.7544
2862.00,3.7438
2861.00,3.7234
2860.00,3.6828
2859.00,3.6186
2858.00,3.5381
2857.00,3.4483
2856.00,3.3526
2855.00,3.2543
2854.00,3.1573
2853.00,3.0632
2852.00,2.9705
2851.00,2.8772
2850.00,2.7833
2849.00,2.6909
2848.00,2.6027
2847.00,2.5206
2846.00,2.4453
2845.00,2.3767
2844.00,2.3147
2843.00,2.2599
2842.00,2.2134
2841.00,2.1758
2840.00,2.1471
2839.00,2.1266
2838.00,2.1135
2837.00,2.1073
2836.00,2.1073
2835.00,2.1125
2834.00,2.1217
2833.00,2.1337
2832.00,2.1476
2831.00,2.1626
2830.00,2.1783
2829.00,2.1941
2828.00,2.2092
2827.00,2.2229
2826.00,2.2353
2825.00,2.2468
2824.00,2.2580
2823.00,2.2686
2822.00,2.2787
2821.00,2.2888
2820.00,2.2994
2819.00,2.3104
2818.00,2.3212
2817.00,2.3313
2816.00,2.3406
2815.00,2.3495
2814.00,2.3586
2813.00,2.3677
2812.00,2.3769
2811.00,2.3854
2810.00,2.3927
2809.00,2.3985
2808.00,2.4028
2807.00,2.4056
2806.00,2.4073
2805.00,2.4088
2804.00,2.4103
2803.00,2.4112
2802.00,2.4111
2801.00,2.4102
2800.00,2.4097
2799.00,2.4095
2798.00,2.4081
2797.00,2.4039
2796.00,2.3968
2795.00,2.3885
2794.00,2.3803
2793.00,2.3720
2792.00,2.3631
2791.00,2.3532
2790.00,2.3425
2789.00,2.3310
2788.00,2.3191
2787.00,2.3065
2786.00,2.2930
2785.00,2.2780
2784.00,2.2613
2783.00,2.2431
2782.00,2.2238
2781.00,2.2040
2780.00,2.1838
2779.00,2.1629
2778.00,2.1408
2777.00,2.1171
2776.00,2.0916
2775.00,2.0643
2774.00,2.0355
2773.00,2.0054
2772.00,1.9744
2771.00,1.9425
2770.00,1.9099
2769.00,1.8764
2768.00,1.8419
2767.00,1.8067
2766.00,1.7708
2765.00,1.7346
2764.00,1.6983
2763.00,1.6621
2762.00,1.6264
2761.00,1.5913
2760.00,1.5571
2759.00,1.5241
2758.00,1.4929
2757.00,1.4641
2756.00,1.4381
2755.00,1.4157
2754.00,1.3977
2753.00,1.3846
2752.00,1.3769
2751.00,1.3747
2750.00,1.3780
2749.00,1.3867
2748.00,1.4003
2747.00,1.4185
2746.00,1.4405
2745.00,1.4659
2744.00,1.4941
2743.00,1.5246
2742.00,1.5570
2741.00,1.5909
2740.00,1.6258
2739.00,1.6614
2738.00,1.6974
2737.00,1.7337
2736.00,1.7699
2735.00,1.8055
2734.00,1.8403
2733.00,1.8742
2732.00,1.9070
2731.00,1.9386
2730.00,1.9689
2729.00,1.9980
2728.00,2.0262
2727.00,2.0534
2726.00,2.0799
2725.00,2.1056
2724.00,2.1303
2723.00,2.1539
2722.00,2.1765
2721.00,2.1979
2720.00,2.2178
2719.00,2.2360
2718.00,2.2529
2717.00,2.2688
2716.00,2.2839
2715.00,2.2981
2714.00,2.3116
2713.00,2.3249
2712.00,2.3378
2711.00,2.3501
2710.00,2.3617
2709.00,2.3723
2708.00,2.3819
2707.00,2.3907
2706.00,2.3993
2705.00,2.4081
2704.00,2.4162
2703.00,2.4227
2702.00,2.4279
2701.00,2.4328
2700.00,2.4377
2699.00,2.4418
2698.00,2.4447
2697.00,2.4468
2696.00,2.4488
2695.00,2.4502
2694.00,2.4507
2693.00,2.4505
2692.00,2.4502
2691.00,2.4500
2690.00,2.4496
2689.00,2.4486
2688.00,2.4468
2687.00,2.4440
2686.00,2.4406
2685.00,2.4370
2684.00,2.4334
2683.00,2.4290
2682.00,2.4236
2681.00,2.4176
2680.00,2.4118
2679.00,2.4063
2678.00,2.4008
2677.00,2.3949
2676.00,2.3887
2675.00,2.3820
2674.00,2.3745
2673.00,2.3658
2672.00,2.3564
2671.00,2.3464
2670.00,2.3360
2669.00,2.3252
2668.00,2.3136
2667.00,2.3012
2666.00,2.2875
2665.00,2.2721
2664.00,2.2547
2663.00,2.2356
2662.00,2.2153
2661.00,2.1942
2660.00,2.1723
2659.00,2.1492
2658.00,2.1249
2657.00,2.0997
2656.00,2.0740
2655.00,2.0479
2654.00,2.0212
2653.00,1.9938
2652.00,1.9656
2651.00,1.9365
2650.00,1.9066
2649.00,1.8759
2648.00,1.8442
2647.00,1.8113
2646.00,1.7770
2645.00,1.7416
2644.00,1.7054
2643.00,1.6687
2642.00,1.6317
2641.00,1.5949
2640.00,1.5589
2639.00,1.5248
2638.00,1.4932
2637.00,1.4649
2636.00,1.4403
2635.00,1.4200
2634.00,1.4042
2633.00,1.3934
2632.00,1.3879
2631.00,1.3878
2630.00,1.3930
2629.00,1.4034
2628.00,1.4184
2627.00,1.4378
2626.00,1.4607
2625.00,1.4868
2624.00,1.5156
2623.00,1.5466
2622.00,1.5791
2621.00,1.6128
2620.00,1.6473
2619.00,1.6823
2618.00,1.7175
2617.00,1.7525
2616.00,1.7871
2615.00,1.8210
2614.00,1.8542
2613.00,1.8865
2612.00,1.9178
2611.00,1.9479
2610.00,1.9767
2609.00,2.0043
2608.00,2.0309
2607.00,2.0569
2606.00,2.0824
2605.00,2.1074
2604.00,2.1322
2603.00,2.1564
2602.00,2.1800
2601.00,2.2027
2600.00,2.2243
2599.00,2.2446
2598.00,2.2637
2597.00,2.2819
2596.00,2.2998
2595.00,2.3172
2594.00,2.3336
2593.00,2.3487
2592.00,2.3632
2591.00,2.3781
2590.00,2.3932
2589.00,2.4076
2588.00,2.4201
2587.00,2.4303
2586.00,2.4389
2585.00,2.4472
2584.00,2.4560
2583.00,2.4651
2582.00,2.4737
2581.00,2.4814
2580.00,2.4883
2579.00,2.4948
2578.00,2.5008
2577.00,2.5065
2576.00,2.5120
2575.00,2.5178
2574.00,2.5240
2573.00,2.5299
2572.00,2.5344
2571.00,2.5364
2570.00,2.5361
2569.00,2.5349
2568.00,2.5338
2567.00,2.5334
2566.00,2.5333
2565.00,2.5329
2564.00,2.5322
2563.00,2.5308
2562.00,2.5284
2561.00,2.5251
2560.00,2.5215
2559.00,2.5182
2558.00,2.5148
2557.00,2.5107
2556.00,2.5053
2555.00,2.4987
2554.00,2.4914
2553.00,2.4838
2552.00,2.4759
2551.00,2.4674
2550.00,2.4582
2549.00,2.4482
2548.00,2.4376
2547.00,2.4266
2546.00,2.4150
2545.00,2.4025
2544.00,2.3888
2543.00,2.3741
2542.00,2.3587
2541.00,2.3432
2540.00,2.3276
2539.00,2.3110
2538.00,2.2926
2537.00,2.2723
2536.00,2.2510
2535.00,2.2298
2534.00,2.2090
2533.00,2.1875
2532.00,2.1644
2531.00,2.1393
2530.00,2.1123
2529.00,2.0838
2528.00,2.0540
2527.00,2.0229
2526.00,1.9906
2525.00,1.9570
2524.00,1.9221
2523.00,1.8858
2522.00,1.8478
2521.00,1.8083
2520.00,1.7675
2519.00,1.7255
2518.00,1.6826
2517.00,1.6393
2516.00,1.5962
2515.00,1.5539
2514.00,1.5131
2513.00,1.4743
2512.00,1.4384
2511.00,1.4060
2510.00,1.3778
2509.00,1.3543
2508.00,1.3360
2507.00,1.3233
2506.00,1.3166
2505.00,1.3160
2504.00,1.3214
2503.00,1.3325
2502.00,1.3491
2501.00,1.3706
2500.00,1.3965
2499.00,1.4261
2498.00,1.4588
2497.00,1.4941
2496.00,1.5316
2495.00,1.5709
2494.00,1.6115
2493.00,1.6527
2492.00,1.6942
2491.00,1.7356
2490.00,1.7767
2489.00,1.8175
2488.00,1.8580
2487.00,1.8976
2486.00,1.9362
2485.00,1.9734
2484.00,2.0092
2483.00,2.0435
2482.00,2.0764
2481.00,2.1080
2480.00,2.1383
2479.00,2.1675
2478.00,2.1955
2477.00,2.2221
2476.00,2.2470
2475.00,2.2706
2474.00,2.2933
2473.00,2.3155
2472.00,2.3371
2471.00,2.3574
2470.00,2.3760
2469.00,2.3928
2468.00,2.4085
2467.00,2.4236
2466.00,2.4383
2465.00,2.4527
2464.00,2.4664
2463.00,2.4797
2462.00,2.4923
2461.00,2.5038
2460.00,2.5139
2459.00,2.5234
2458.00,2.5329
2457.00,2.5427
2456.00,2.5520
2455.00,2.5605
2454.00,2.5680
2453.00,2.5750
2452.00,2.5818
2451.00,2.5883
2450.00,2.5947
2449.00,2.6001
2448.00,2.6043
2447.00,2.6074
2446.00,2.6105
2445.00,2.6135
2444.00,2.6157
2443.00,2.6167
2442.00,2.6173
2441.00,2.6183
2440.00,2.6191
2439.00,2.6183
2438.00,2.6157
2437.00,2.6123
2436.00,2.6090
2435.00,2.6060
2434.00,2.6032
2433.00,2.6009
2432.00,2.5986
2431.00,2.5950
2430.00,2.5893
2429.00,2.5825
2428.00,2.5758
2427.00,2.5692
2426.00,2.5620
2425.00,2.5537
2424.00,2.5446
2423.00,2.5352
2422.00,2.5255
2421.00,2.5153
2420.00,2.5046
2419.00,2.4931
2418.00,2.4807
2417.00,2.4674
2416.00,2.4532
2415.00,2.4382
2414.00,2.4224
2413.00,2.4060
2412.00,2.3890
2411.00,2.3710
2410.00,2.3515
2409.00,2.3303
2408.00,2.3078
2407.00,2.2844
2406.00,2.2603
2405.00,2.2350
2404.00,2.2081
2403.00,2.1790
2402.00,2.1481
2401.00,2.1155
2400.00,2.0817
2399.00,2.0463
2398.00,2.0091
2397.00,1.9700
2396.00,1.9290
2395.00,1.8868
2394.00,1.8439
2393.00,1.8014
2392.00,1.7602
2391.00,1.7217
2390.00,1.6873
2389.00,1.6586
2388.00,1.6372
2387.00,1.6241
2386.00,1.6192
2385.00,1.6219
2384.00,1.6301
2383.00,1.6415
2382.00,1.6531
2381.00,1.6623
2380.00,1.6677
2379.00,1.6687
2378.00,1.6659
2377.00,1.6606
2376.00,1.6551
2375.00,1.6518
2374.00,1.6517
2373.00,1.6542
2372.00,1.6591
2371.00,1.6667
2370.00,1.6758
2369.00,1.6843
2368.00,1.6935
2367.00,1.7045
2366.00,1.7150
2365.00,1.7263
2364.00,1.7417
2363.00,1.7603
2362.00,1.7816
2361.00,1.8005
2360.00,1.8156
2359.00,1.8330
2358.00,1.8484
2357.00,1.8736
2356.00,1.8972
2355.00,1.9561
2354.00,2.2203
2353.00,2.2243
2352.00,2.2629
2351.00,2.2831
2350.00,2.3112
2349.00,2.3328
2348.00,2.3573
2347.00,2.3811
2346.00,2.4052
2345.00,2.4281
2344.00,2.4493
2343.00,2.4690
2342.00,2.4883
2341.00,2.5069
2340.00,2.5239
2339.00,2.5381
2338.00,2.5500
2337.00,2.5611
2336.00,2.5731
2335.00,2.5860
2334.00,2.5984
2333.00,2.6092
2332.00,2.6185
2331.00,2.6267
2330.00,2.6344
2329.00,2.6418
2328.00,2.6475
2327.00,2.6544
2326.00,2.6567
2325.00,2.6662
2324.00,2.6628
2323.00,2.6927
2322.00,3.0877
2321.00,3.0540
2320.00,3.0770
2319.00,3.0729
2318.00,3.0885
2317.00,3.0965
2316.00,3.1094
2315.00,3.1121
2314.00,3.1103
2313.00,3.1001
2312.00,3.0887
2311.00,3.0739
2310.00,3.0584
2309.00,3.0376
2308.00,3.0133
2307.00,2.9851
2306.00,2.9578
2305.00,2.9314
2304.00,2.9077
2303.00,2.8833
2302.00,2.8591
2301.00,2.8334
2300.00,2.8085
2299.00,2.7830
2298.00,2.7587
2297.00,2.7349
2296.00,2.7131
2295.00,2.6929
2294.00,2.6744
2293.00,2.6572
2292.00,2.6412
2291.00,2.6259
2290.00,2.6097
2289.00,2.5920
2288.00,2.5726
2287.00,2.5530
2286.00,2.5330
2285.00,2.5122
2284.00,2.4891
2283.00,2.4639
2282.00,2.4375
2281.00,2.4110
2280.00,2.3847
2279.00,2.3578
2278.00,2.3296
2277.00,2.2997
2276.00,2.2687
2275.00,2.2370
2274.00,2.2050
2273.00,2.1722
2272.00,2.1382
2271.00,2.1028
2270.00,2.0656
2269.00,2.0265
2268.00,1.9856
2267.00,1.9426
2266.00,1.8975
2265.00,1.8504
2264.00,1.8016
2263.00,1.7520
2262.00,1.7022
2261.00,1.6532
2260.00,1.6059
2259.00,1.5613
2258.00,1.5206
2257.00,1.4849
2256.00,1.4553
2255.00,1.4325
2254.00,1.4164
2253.00,1.4064
2252.00,1.4012
2251.00,1.4001
2250.00,1.4031
2249.00,1.4113
2248.00,1.4255
2247.00,1.4461
2246.00,1.4726
2245.00,1.5045
2244.00,1.5408
2243.00,1.5805
2242.00,1.6230
2241.00,1.6675
2240.00,1.7134
2239.00,1.7600
2238.00,1.8069
2237.00,1.8538
2236.00,1.9003
2235.00,1.9460
2234.00,1.9907
2233.00,2.0339
2232.00,2.0758
2231.00,2.1162
2230.00,2.1553
2229.00,2.1928
2228.00,2.2287
2227.00,2.2629
2226.00,2.2953
2225.00,2.3255
2224.00,2.3537
2223.00,2.3805
2222.00,2.4067
2221.00,2.4323
2220.00,2.4572
2219.00,2.4812
2218.00,2.5039
2217.00,2.5248
2216.00,2.5435
2215.00,2.5601
2214.00,2.5752
2213.00,2.5896
2212.00,2.6045
2211.00,2.6208
2210.00,2.6380
2209.00,2.6543
2208.00,2.6684
2207.00,2.6806
2206.00,2.6920
2205.00,2.7023
2204.00,2.7108
2203.00,2.7176
2202.00,2.7240
2201.00,2.7310
2200.00,2.7387
2199.00,2.7466
2198.00,2.7544
2197.00,2.7615
2196.00,2.7674
2195.00,2.7722
2194.00,2.7764
2193.00,2.7808
2192.00,2.7854
2191.00,2.7902
2190.00,2.7943
2189.00,2.7967
2188.00,2.7973
2187.00,2.7970
2186.00,2.7965
2185.00,2.7955
2184.00,2.7935
2183.00,2.7913
2182.00,2.7902
2181.00,2.7897
2180.00,2.7883
2179.00,2.7852
2178.00,2.7814
2177.00,2.7781
2176.00,2.7758
2175.00,2.7740
2174.00,2.7719
2173.00,2.7680
2172.00,2.7607
2171.00,2.7498
2170.00,2.7373
2169.00,2.7258
2168.00,2.7163
2167.00,2.7082
2166.00,2.7004
2165.00,2.6914
2164.00,2.6801
2163.00,2.6665
2162.00,2.6520
2161.00,2.6382
2160.00,2.6251
2159.00,2.6113
2158.00,2.5957
2157.00,2.5782
2156.00,2.5592
2155.00,2.5390
2154.00,2.5178
2153.00,2.4962
2152.00,2.4739
2151.00,2.4499
2150.00,2.4239
2149.00,2.3962
2148.00,2.3677
2147.00,2.3380
2146.00,2.3064
2145.00,2.2724
2144.00,2.2361
2143.00,2.1982
2142.00,2.1589
2141.00,2.1180
2140.00,2.0753
2139.00,2.0304
2138.00,1.9835
2137.00,1.9352
2136.00,1.8862
2135.00,1.8370
2134.00,1.7878
2133.00,1.7389
2132.00,1.6908
2131.00,1.6443
2130.00,1.6003
2129.00,1.5598
2128.00,1.5238
2127.00,1.4933
2126.00,1.4694
2125.00,1.4528
2124.00,1.4444
2123.00,1.4444
2122.00,1.4530
2121.00,1.4696
2120.00,1.4937
2119.00,1.5242
2118.00,1.5600
2117.00,1.6000
2116.00,1.6435
2115.00,1.6899
2114.00,1.7384
2113.00,1.7881
2112.00,1.8383
2111.00,1.8882
2110.00,1.9378
2109.00,1.9868
2108.00,2.0348
2107.00,2.0815
2106.00,2.1268
2105.00,2.1711
2104.00,2.2141
2103.00,2.2549
2102.00,2.2929
2101.00,2.3281
2100.00,2.3611
2099.00,2.3924
2098.00,2.4223
2097.00,2.4511
2096.00,2.4785
2095.00,2.5043
2094.00,2.5283
2093.00,2.5509
2092.00,2.5728
2091.00,2.5940
2090.00,2.6144
2089.00,2.6338
2088.00,2.6522
2087.00,2.6700
2086.00,2.6871
2085.00,2.7031
2084.00,2.7183
2083.00,2.7327
2082.00,2.7460
2081.00,2.7573
2080.00,2.7668
2079.00,2.7758
2078.00,2.7859
2077.00,2.7977
2076.00,2.8103
2075.00,2.8224
2074.00,2.8332
2073.00,2.8423
2072.00,2.8504
2071.00,2.8583
2070.00,2.8663
2069.00,2.8738
2068.00,2.8798
2067.00,2.8834
2066.00,2.8851
2065.00,2.8861
2064.00,2.8880
2063.00,2.8912
2062.00,2.8950
2061.00,2.8984
2060.00,2.9006
2059.00,2.9013
2058.00,2.9004
2057.00,2.8981
2056.00,2.8955
2055.00,2.8935
2054.00,2.8920
2053.00,2.8900
2052.00,2.8866
2051.00,2.8828
2050.00,2.8792
2049.00,2.8752
2048.00,2.8689
2047.00,2.8592
2046.00,2.8481
2045.00,2.8390
2044.00,2.8333
2043.00,2.8290
2042.00,2.8230
2041.00,2.8141
2040.00,2.8040
2039.00,2.7940
2038.00,2.7831
2037.00,2.7698
2036.00,2.7546
2035.00,2.7394
2034.00,2.7250
2033.00,2.7105
2032.00,2.6944
2031.00,2.6762
2030.00,2.6566
2029.00,2.6360
2028.00,2.6146
2027.00,2.5922
2026.00,2.5684
2025.00,2.5431
2024.00,2.5167
2023.00,2.4899
2022.00,2.4624
2021.00,2.4333
2020.00,2.4016
2019.00,2.3674
2018.00,2.3313
2017.00,2.2941
2016.00,2.2557
2015.00,2.2154
2014.00,2.1727
2013.00,2.1273
2012.00,2.0792
2011.00,2.0288
2010.00,1.9765
2009.00,1.9228
2008.00,1.8683
2007.00,1.8138
2006.00,1.7600
2005.00,1.7080
2004.00,1.6594
2003.00,1.6155
2002.00,1.5778
2001.00,1.5476
2000.00,1.5256
1999.00,1.5129
1998.00,1.5095
1997.00,1.5152
1996.00,1.5297
1995.00,1.5523
1994.00,1.5823
1993.00,1.6190
1992.00,1.6618
1991.00,1.7099
1990.00,1.7621
1989.00,1.8171
1988.00,1.8735
1987.00,1.9305
1986.00,1.9872
1985.00,2.0429
1984.00,2.0966
1983.00,2.1479
1982.00,2.1966
1981.00,2.2426
1980.00,2.2860
1979.00,2.3268
1978.00,2.3656
1977.00,2.4027
1976.00,2.4379
1975.00,2.4705
1974.00,2.5004
1973.00,2.5281
1972.00,2.5543
1971.00,2.5788
1970.00,2.6011
1969.00,2.6221
1968.00,2.6438
1967.00,2.6669
1966.00,2.6906
1965.00,2.7136
1964.00,2.7360
1963.00,2.7575
1962.00,2.7772
1961.00,2.7945
1960.00,2.8110
1959.00,2.8280
1958.00,2.8443
1957.00,2.8580
1956.00,2.8693
1955.00,2.8801
1954.00,2.8922
1953.00,2.9055
1952.00,2.9190
1951.00,2.9312
1950.00,2.9410
1949.00,2.9481
1948.00,2.9528
1947.00,2.9558
1946.00,2.9580
1945.00,2.9604
1944.00,2.9638
1943.00,2.9681
1942.00,2.9722
1941.00,2.9750
1940.00,2.9766
1939.00,2.9775
1938.00,2.9778
1937.00,2.9786
1936.00,2.9820
1935.00,2.9880
1934.00,2.9931
1933.00,2.9947
1932.00,2.9924
1931.00,2.9871
1930.00,2.9798
1929.00,2.9723
1928.00,2.9683
1927.00,2.9689
1926.00,2.9705
1925.00,2.9671
1924.00,2.9565
1923.00,2.9422
1922.00,2.9293
1921.00,2.9199
1920.00,2.9127
1919.00,2.9041
1918.00,2.8916
1917.00,2.8771
1916.00,2.8644
1915.00,2.8546
1914.00,2.8449
1913.00,2.8317
1912.00,2.8149
1911.00,2.7968
1910.00,2.7786
1909.00,2.7599
1908.00,2.7409
1907.00,2.7218
1906.00,2.7021
1905.00,2.6801
1904.00,2.6546
1903.00,2.6257
1902.00,2.5952
1901.00,2.5643
1900.00,2.5328
1899.00,2.4988
1898.00,2.4606
1897.00,2.4188
1896.00,2.3746
1895.00,2.3290
1894.00,2.2814
1893.00,2.2314
1892.00,2.1786
1891.00,2.1216
1890.00,2.0608
1889.00,1.9990
1888.00,1.9399
1887.00,1.8855
1886.00,1.8356
1885.00,1.7900
1884.00,1.7498
1883.00,1.7170
1882.00,1.6929
1881.00,1.6778
1880.00,1.6721
1879.00,1.6762
1878.00,1.6897
1877.00,1.7122
1876.00,1.7427
1875.00,1.7788
1874.00,1.8182
1873.00,1.8603
1872.00,1.9043
1871.00,1.9478
1870.00,1.9887
1869.00,2.0297
1868.00,2.0760
1867.00,2.1288
1866.00,2.1852
1865.00,2.2411
1864.00,2.2943
1863.00,2.3444
1862.00,2.3920
1861.00,2.4370
1860.00,2.4790
1859.00,2.5184
1858.00,2.5562
1857.00,2.5930
1856.00,2.6286
1855.00,2.6626
1854.00,2.6955
1853.00,2.7265
1852.00,2.7548
1851.00,2.7804
1850.00,2.8028
1849.00,2.8225
1848.00,2.8419
1847.00,2.8646
1846.00,2.8899
1845.00,2.9126
1844.00,2.9287
1843.00,2.9415
1842.00,2.9563
1841.00,2.9736
1840.00,2.9893
1839.00,3.0009
1838.00,3.0117
1837.00,3.0255
1836.00,3.0404
1835.00,3.0519
1834.00,3.0598
1833.00,3.0661
1832.00,3.0704
1831.00,3.0699
1830.00,3.0656
1829.00,3.0626
1828.00,3.0647
1827.00,3.0705
1826.00,3.0750
1825.00,3.0755
1824.00,3.0749
1823.00,3.0768
1822.00,3.0802
1821.00,3.0810
1820.00,3.0768
1819.00,3.0694
1818.00,3.0615
1817.00,3.0541
1816.00,3.0465
1815.00,3.0391
1814.00,3.0318
1813.00,3.0240
1812.00,3.0149
1811.00,3.0052
1810.00,2.9977
1809.00,2.9933
1808.00,2.9896
1807.00,2.9819
1806.00,2.9676
1805.00,2.9477
1804.00,2.9253
1803.00,2.9021
1802.00,2.8760
1801.00,2.8444
1800.00,2.8081
1799.00,2.7697
1798.00,2.7304
1797.00,2.6908
1796.00,2.6518
1795.00,2.6129
1794.00,2.5677
1793.00,2.5090
1792.00,2.4400
1791.00,2.3717
1790.00,2.3123
1789.00,2.2633
1788.00,2.2223
1787.00,2.1876
1786.00,2.1596
1785.00,2.1414
1784.00,2.1365
1783.00,2.1485
1782.00,2.1776
1781.00,2.2217
1780.00,2.2793
1779.00,2.3470
1778.00,2.4195
1777.00,2.4915
1776.00,2.5617
1775.00,2.6312
1774.00,2.6964
1773.00,2.7528
1772.00,2.8046
1771.00,2.8593
1770.00,2.9194
1769.00,2.9808
1768.00,3.0343
1767.00,3.0729
1766.00,3.0999
1765.00,3.1257
1764.00,3.1561
1763.00,3.1880
1762.00,3.2161
1761.00,3.2385
1760.00,3.2557
1759.00,3.2700
1758.00,3.2843
1757.00,3.3007
1756.00,3.3229
1755.00,3.3540
1754.00,3.3900
1753.00,3.4199
1752.00,3.4340
1751.00,3.4365
1750.00,3.4435
1749.00,3.4641
1748.00,3.4904
1747.00,3.5138
1746.00,3.5380
1745.00,3.5733
1744.00,3.6204
1743.00,3.6678
1742.00,3.7093
1741.00,3.7583
1740.00,3.8359
1739.00,3.9555
1738.00,4.1047
1737.00,4.2305
1736.00,4.2820
1735.00,4.2576
1734.00,4.1953
1733.00,4.1413
1732.00,4.1182
1731.00,4.1287
1730.00,4.1647
1729.00,4.2106
1728.00,4.2578
1727.00,4.3214
1726.00,4.4439
1725.00,4.6730
1724.00,4.9617
1723.00,5.1053
1722.00,4.9649
1721.00,4.7674
1720.00,4.7306
1719.00,4.7266
1718.00,4.6620
1717.00,4.7080
1716.00,4.9089
1715.00,5.1129
1714.00,5.1476
1713.00,4.7533
1712.00,4.4809
1711.00,4.3611
1710.00,4.3421
1709.00,4.3979
1708.00,4.4683
1707.00,4.4658
1706.00,4.3661
1705.00,4.2494
1704.00,4.2045
1703.00,4.2686
1702.00,4.4448
1701.00,4.7145
1700.00,4.9625
1699.00,5.1793
1698.00,5.0595
1697.00,4.5383
1696.00,4.2479
1695.00,4.0999
1694.00,4.0624
1693.00,4.1034
1692.00,4.1447
1691.00,4.0979
1690.00,3.9728
1689.00,3.8407
1688.00,3.7414
1687.00,3.6779
1686.00,3.6298
1685.00,3.5754
1684.00,3.5234
1683.00,3.4903
1682.00,3.4769
1681.00,3.4779
1680.00,3.4859
1679.00,3.4938
1678.00,3.4972
1677.00,3.4916
1676.00,3.4713
1675.00,3.4356
1674.00,3.3924
1673.00,3.3530
1672.00,3.3210
1671.00,3.2884
1670.00,3.2483
1669.00,3.2027
1668.00,3.1561
1667.00,3.1107
1666.00,3.0654
1665.00,3.0165
1664.00,2.9589
1663.00,2.8929
1662.00,2.8260
1661.00,2.7651
1660.00,2.7132
1659.00,2.6689
1658.00,2.6312
1657.00,2.6057
1656.00,2.6012
1655.00,2.6118
1654.00,2.6198
1653.00,2.6260
1652.00,2.6330
1651.00,2.6488
1650.00,2.6827
1649.00,2.7264
1648.00,2.7682
1647.00,2.8086
1646.00,2.8510
1645.00,2.8935
1644.00,2.9354
1643.00,2.9758
1642.00,3.0090
1641.00,3.0304
1640.00,3.0443
1639.00,3.0606
1638.00,3.0836
1637.00,3.1062
1636.00,3.1232
1635.00,3.1357
1634.00,3.1477
1633.00,3.1644
1632.00,3.1821
1631.00,3.1940
1630.00,3.1985
1629.00,3.2001
1628.00,3.2043
1627.00,3.2130
1626.00,3.2240
1625.00,3.2325
1624.00,3.2364
1623.00,3.2389
1622.00,3.2432
1621.00,3.2493
1620.00,3.2576
1619.00,3.2671
1618.00,3.2725
1617.00,3.2702
1616.00,3.2640
1615.00,3.2604
1614.00,3.2625
1613.00,3.2660
1612.00,3.2624
1611.00,3.2485
1610.00,3.2292
1609.00,3.2115
1608.00,3.2002
1607.00,3.1966
1606.00,3.1962
1605.00,3.1913
1604.00,3.1800
1603.00,3.1687
1602.00,3.1629
1601.00,3.1603
1600.00,3.1546
1599.00,3.1421
1598.00,3.1237
1597.00,3.1011
1596.00,3.0756
1595.00,3.0496
1594.00,3.0252
1593.00,3.0034
1592.00,2.9830
1591.00,2.9613
1590.00,2.9354
1589.00,2.9046
1588.00,2.8706
1587.00,2.8356
1586.00,2.7998
1585.00,2.7610
1584.00,2.7181
1583.00,2.6715
1582.00,2.6190
1581.00,2.5592
1580.00,2.4964
1579.00,2.4357
1578.00,2.3733
1577.00,2.2993
1576.00,2.2135
1575.00,2.1288
1574.00,2.0599
1573.00,2.0110
1572.00,1.9743
1571.00,1.9381
1570.00,1.9026
1569.00,1.8788
1568.00,1.8749
1567.00,1.8915
1566.00,1.9234
1565.00,1.9639
1564.00,2.0108
1563.00,2.0692
1562.00,2.1393
1561.00,2.2080
1560.00,2.2484
1559.00,2.2887
1558.00,2.3574
1557.00,2.4314
1556.00,2.5001
1555.00,2.5638
1554.00,2.6186
1553.00,2.6655
1552.00,2.7088
1551.00,2.7503
1550.00,2.7901
1549.00,2.8290
1548.00,2.8665
1547.00,2.9000
1546.00,2.9258
1545.00,2.9442
1544.00,2.9621
1543.00,2.9825
1542.00,2.9995
1541.00,3.0116
1540.00,3.0304
1539.00,3.0561
1538.00,3.0824
1537.00,3.1138
1536.00,3.1491
1535.00,3.1794
1534.00,3.2013
1533.00,3.2221
1532.00,3.2444
1531.00,3.2595
1530.00,3.2628
1529.00,3.2568
1528.00,3.2471
1527.00,3.2397
1526.00,3.2372
1525.00,3.2385
1524.00,3.2436
1523.00,3.2527
1522.00,3.2661
1521.00,3.2823
1520.00,3.2947
1519.00,3.2999
1518.00,3.3019
1517.00,3.3072
1516.00,3.3172
1515.00,3.3259
1514.00,3.3262
1513.00,3.3153
1512.00,3.2959
1511.00,3.2779
1510.00,3.2692
1509.00,3.2668
1508.00,3.2609
1507.00,3.2604
1506.00,3.2659
1505.00,3.2620
1504.00,3.2550
1503.00,3.2520
1502.00,3.2486
1501.00,3.2412
1500.00,3.2297
1499.00,3.2172
1498.00,3.2046
1497.00,3.1920
1496.00,3.1765
1495.00,3.1547
1494.00,3.1275
1493.00,3.0986
1492.00,3.0669
1491.00,3.0290
1490.00,2.9891
1489.00,2.9548
1488.00,2.9268
1487.00,2.9004
1486.00,2.8723
1485.00,2.8392
1484.00,2.7997
1483.00,2.7533
1482.00,2.7006
1481.00,2.6460
1480.00,2.5956
1479.00,2.5519
1478.00,2.5116
1477.00,2.4740
1476.00,2.4452
1475.00,2.4346
1474.00,2.4458
1473.00,2.4792
1472.00,2.5341
1471.00,2.6051
1470.00,2.6863
1469.00,2.7750
1468.00,2.8668
1467.00,2.9562
1466.00,3.0398
1465.00,3.1151
1464.00,3.1773
1463.00,3.2204
1462.00,3.2507
1461.00,3.2809
1460.00,3.3186
1459.00,3.3654
1458.00,3.4273
1457.00,3.5131
1456.00,3.6115
1455.00,3.7058
1454.00,3.8056
1453.00,3.9264
1452.00,4.0565
1451.00,4.1648
1450.00,4.2456
1449.00,4.2966
1448.00,4.2603
1447.00,4.1090
1446.00,3.9199
1445.00,3.7466
1444.00,3.5965
1443.00,3.4721
1442.00,3.3819
1441.00,3.3328
1440.00,3.3241
1439.00,3.3453
1438.00,3.3798
1437.00,3.4183
1436.00,3.4672
1435.00,3.5364
1434.00,3.6258
1433.00,3.7171
1432.00,3.7709
1431.00,3.7641
1430.00,3.7274
1429.00,3.7076
1428.00,3.7205
1427.00,3.7526
1426.00,3.7803
1425.00,3.7928
1424.00,3.7978
1423.00,3.8033
1422.00,3.8098
1421.00,3.8019
1420.00,3.7545
1419.00,3.6724
1418.00,3.5878
1417.00,3.5179
1416.00,3.4562
1415.00,3.3935
1414.00,3.3331
1413.00,3.2842
1412.00,3.2521
1411.00,3.2349
1410.00,3.2278
1409.00,3.2292
1408.00,3.2398
1407.00,3.2598
1406.00,3.2857
1405.00,3.3103
1404.00,3.3292
1403.00,3.3465
1402.00,3.3689
1401.00,3.3930
1400.00,3.4050
1399.00,3.3979
1398.00,3.3819
1397.00,3.3733
1396.00,3.3816
1395.00,3.4101
1394.00,3.4555
1393.00,3.5051
1392.00,3.5424
1391.00,3.5598
1390.00,3.5611
1389.00,3.5534
1388.00,3.5414
1387.00,3.5340
1386.00,3.5419
1385.00,3.5644
1384.00,3.5833
1383.00,3.5779
1382.00,3.5492
1381.00,3.5186
1380.00,3.5058
1379.00,3.5162
1378.00,3.5399
1377.00,3.5552
1376.00,3.5442
1375.00,3.5145
1374.00,3.4885
1373.00,3.4737
1372.00,3.4621
1371.00,3.4494
1370.00,3.4411
1369.00,3.4411
1368.00,3.4449
1367.00,3.4442
1366.00,3.4359
1365.00,3.4199
1364.00,3.3963
1363.00,3.3687
1362.00,3.3434
1361.00,3.3214
1360.00,3.2998
1359.00,3.2781
1358.00,3.2588
1357.00,3.2415
1356.00,3.2223
1355.00,3.2026
1354.00,3.1948
1353.00,3.2136
1352.00,3.2671
1351.00,3.3555
1350.00,3.4732
1349.00,3.6065
1348.00,3.7286
1347.00,3.8026
1346.00,3.8095
1345.00,3.7665
1344.00,3.7062
1343.00,3.6559
1342.00,3.6322
1341.00,3.6431
1340.00,3.6886
1339.00,3.7479
1338.00,3.7694
1337.00,3.7248
1336.00,3.6438
1335.00,3.5600
1334.00,3.4841
1333.00,3.4096
1332.00,3.3298
1331.00,3.2508
1330.00,3.1850
1329.00,3.1403
1328.00,3.1173
1327.00,3.1140
1326.00,3.1292
1325.00,3.1620
1324.00,3.2112
1323.00,3.2754
1322.00,3.3538
1321.00,3.4424
1320.00,3.5338
1319.00,3.6258
1318.00,3.7315
1317.00,3.8709
1316.00,4.0509
1315.00,4.2470
1314.00,4.3774
1313.00,4.3852
1312.00,4.3612
1311.00,4.3630
1310.00,4.3597
1309.00,4.3082
1308.00,4.1736
1307.00,3.9730
1306.00,3.7796
1305.00,3.6289
1304.00,3.5150
1303.00,3.4237
1302.00,3.3453
1301.00,3.2731
1300.00,3.2008
1299.00,3.1288
1298.00,3.0654
1297.00,3.0196
1296.00,2.9952
1295.00,2.9906
1294.00,3.0015
1293.00,3.0233
1292.00,3.0520
1291.00,3.0854
1290.00,3.1232
1289.00,3.1657
1288.00,3.2122
1287.00,3.2597
1286.00,3.3046
1285.00,3.3429
1284.00,3.3713
1283.00,3.3929
1282.00,3.4177
1281.00,3.4558
1280.00,3.5105
1279.00,3.5749
1278.00,3.6331
1277.00,3.6651
1276.00,3.6620
1275.00,3.6378
1274.00,3.6202
1273.00,3.6244
1272.00,3.6415
1271.00,3.6555
1270.00,3.6713
1269.00,3.7056
1268.00,3.7560
1267.00,3.7924
1266.00,3.7964
1265.00,3.8021
1264.00,3.8392
1263.00,3.8742
1262.00,3.8617
1261.00,3.8177
1260.00,3.7710
1259.00,3.7391
1258.00,3.7281
1257.00,3.7247
1256.00,3.7148
1255.00,3.6969
1254.00,3.6807
1253.00,3.6822
1252.00,3.7073
1251.00,3.7440
1250.00,3.7784
1249.00,3.8064
1248.00,3.8273
1247.00,3.8340
1246.00,3.8188
1245.00,3.7793
1244.00,3.7231
1243.00,3.6747
1242.00,3.6648
1241.00,3.7070
1240.00,3.7783
1239.00,3.8190
1238.00,3.8008
1237.00,3.7660
1236.00,3.7530
1235.00,3.7734
1234.00,3.8384
1233.00,3.9704
1232.00,4.1740
1231.00,4.3858
1230.00,4.4929
1229.00,4.5026
1228.00,4.5053
1227.00,4.4518
1226.00,4.3470
1225.00,4.2552
1224.00,4.1905
1223.00,4.1750
1222.00,4.2355
1221.00,4.3807
1220.00,4.6520
1219.00,5.0238
1218.00,4.7532
1217.00,4.4207
1216.00,4.2604
1215.00,4.1669
1214.00,4.0872
1213.00,4.0207
1212.00,3.9820
1211.00,3.9690
1210.00,3.9774
1209.00,3.9926
1208.00,3.9837
1207.00,3.9375
1206.00,3.8863
1205.00,3.8653
1204.00,3.8711
1203.00,3.8723
1202.00,3.8519
1201.00,3.8266
1200.00,3.8167
1199.00,3.8153
1198.00,3.7892
1197.00,3.7281
1196.00,3.6615
1195.00,3.6101
1194.00,3.5727
1193.00,3.5430
1192.00,3.5187
1191.00,3.5033
1190.00,3.4984
1189.00,3.4965
1188.00,3.4869
1187.00,3.4664
1186.00,3.4424
1185.00,3.4228
1184.00,3.4078
1183.00,3.3921
1182.00,3.3744
1181.00,3.3606
1180.00,3.3558
1179.00,3.3606
1178.00,3.3735
1177.00,3.3919
1176.00,3.4067
1175.00,3.4064
1174.00,3.3942
1173.00,3.3885
1172.00,3.4016
1171.00,3.4261
1170.00,3.4429
1169.00,3.4461
1168.00,3.4507
1167.00,3.4686
1166.00,3.4894
1165.00,3.4928
1164.00,3.4806
1163.00,3.4767
1162.00,3.4968
1161.00,3.5334
1160.00,3.5671
1159.00,3.5894
1158.00,3.6113
1157.00,3.6459
1156.00,3.6857
1155.00,3.7103
1154.00,3.7166
1153.00,3.7186
1152.00,3.7321
1151.00,3.7665
1150.00,3.8219
1149.00,3.8721
1148.00,3.8714
1147.00,3.8428
1146.00,3.8489
1145.00,3.9109
1144.00,3.9924
1143.00,4.0103
1142.00,3.9351
1141.00,3.8561
1140.00,3.8471
1139.00,3.9069
1138.00,3.9870
1137.00,4.0441
1136.00,4.0745
1135.00,4.0657
1134.00,4.0144
1133.00,3.9760
1132.00,3.9957
1131.00,4.0409
1130.00,4.0690
1129.00,4.1362
1128.00,4.2577
1127.00,4.3485
1126.00,4.2551
1125.00,4.1592
1124.00,4.1371
1123.00,4.3423
1122.00,5.0360
1121.00,4.6335
1120.00,4.3807
1119.00,4.3989
1118.00,4.4899
1117.00,4.2631
1116.00,3.9741
1115.00,3.8633
1114.00,3.8614
1113.00,3.9299
1112.00,3.9996
1111.00,4.0030
1110.00,3.9432
1109.00,3.8775
1108.00,3.8396
1107.00,3.8352
1106.00,3.8680
1105.00,3.9317
1104.00,3.9861
1103.00,3.9847
1102.00,3.9492
1101.00,3.9236
1100.00,3.9123
1099.00,3.9029
1098.00,3.8902
1097.00,3.8886
1096.00,3.9318
1095.00,4.0447
1094.00,4.2126
1093.00,4.3139
1092.00,4.2407
1091.00,4.1249
1090.00,4.0746
1089.00,4.0805
1088.00,4.1384
1087.00,4.1953
1086.00,4.1191
1085.00,4.0254
1084.00,3.9803
1083.00,3.9246
1082.00,3.8570
1081.00,3.8331
1080.00,3.8969
1079.00,4.0564
1078.00,4.2389
1077.00,4.2602
1076.00,4.1165
1075.00,3.9752
1074.00,3.9343
1073.00,4.0086
1072.00,4.1529
1071.00,4.3076
1070.00,4.3490
1069.00,4.2590
1068.00,4.1830
1067.00,4.0768
1066.00,3.9237
1065.00,3.8035
1064.00,3.7520
1063.00,3.7647
1062.00,3.8339
1061.00,3.9583
1060.00,4.0939
1059.00,4.1290
1058.00,4.0411
1057.00,3.9396
1056.00,3.8832
1055.00,3.8731
1054.00,3.8932
1053.00,3.9256
1052.00,3.9714
1051.00,4.0451
1050.00,4.1677
1049.00,4.3359
1048.00,4.3949
1047.00,4.2429
1046.00,4.0166
1045.00,3.8122
1044.00,3.6601
1043.00,3.5513
1042.00,3.4777
1041.00,3.4361
1040.00,3.4196
1039.00,3.4182
1038.00,3.4251
1037.00,3.4397
1036.00,3.4596
1035.00,3.4772
1034.00,3.4863
1033.00,3.4854
1032.00,3.4753
1031.00,3.4643
1030.00,3.4712
1029.00,3.5111
1028.00,3.5805
1027.00,3.6616
1026.00,3.7424
1025.00,3.8292
1024.00,3.9124
1023.00,3.9800
1022.00,4.0043
1021.00,3.9503
1020.00,3.9069
1019.00,3.9189
1018.00,3.9577
1017.00,4.0060
1016.00,4.0402
1015.00,4.0438
1014.00,4.0055
1013.00,3.9392
1012.00,3.8890
1011.00,3.8679
1010.00,3.8742
1009.00,3.9147
1008.00,4.0051
1007.00,4.1718
1006.00,4.2889
1005.00,4.1833
1004.00,4.1610
1003.00,4.2455
1002.00,4.4981
1001.00,4.9635
1000.00,4.4236
999.00,4.1670
998.00,4.1252
997.00,4.1788
996.00,4.3719
995.00,4.7708
994.00,4.8347
993.00,4.4826
992.00,4.3535
991.00,4.3452
990.00,4.4663
989.00,4.5635
988.00,4.4637
987.00,4.4925
986.00,4.6754
985.00,4.8240
984.00,4.9454
983.00,4.7352
982.00,4.4437
981.00,4.3619
980.00,4.3388
979.00,4.4823
978.00,4.7742
977.00,4.3592
976.00,4.1133
975.00,4.0745
974.00,4.0906
973.00,4.0318
972.00,3.9622
971.00,3.9906
970.00,4.0972
969.00,4.2144
968.00,4.4371
967.00,4.6878
966.00,4.3485
965.00,4.1446
964.00,4.1085
963.00,4.1823
962.00,4.4273
961.00,4.7964
960.00,4.6972
959.00,4.6904
958.00,4.9387
957.00,4.9321
956.00,5.0008
955.00,4.7706
954.00,4.5477
953.00,4.3756
952.00,4.1922
951.00,4.0934
950.00,4.0852
949.00,4.1586
948.00,4.3234
947.00,4.4864
946.00,4.4950
945.00,4.4760
944.00,4.3273
943.00,4.1544
942.00,4.1075
941.00,4.1445
940.00,4.1675
939.00,4.1242
938.00,4.0429
937.00,4.0165
936.00,4.0561
935.00,4.2558
934.00,4.5903
933.00,4.3003
932.00,4.1078
931.00,4.1180
930.00,4.2635
929.00,4.6145
928.00,5.0809
927.00,5.1511
926.00,4.9576
925.00,4.6733
924.00,4.4143
923.00,4.2918
922.00,4.3257
921.00,4.5816
920.00,5.2806
919.00,5.3524
918.00,4.5418
917.00,4.1887
916.00,4.0117
915.00,3.9198
914.00,3.8753
913.00,3.8544
912.00,3.8576
911.00,3.9176
910.00,4.0784
909.00,4.3713
908.00,4.7584
907.00,4.7411
906.00,4.3712
905.00,4.1542
904.00,4.0811
903.00,4.0803
902.00,4.0470
901.00,3.9886
900.00,4.0170
899.00,4.1714
898.00,4.2430
897.00,4.2893
896.00,4.5967
895.00,4.4611
894.00,4.2054
893.00,4.1878
892.00,4.3113
891.00,4.4759
890.00,4.4234
889.00,4.3290
888.00,4.2995
887.00,4.2841
886.00,4.2232
885.00,4.1498
884.00,4.1380
883.00,4.2664
882.00,4.4705
881.00,4.3345
880.00,4.3062
879.00,4.5213
878.00,4.3644
877.00,4.1515
876.00,4.1216
875.00,4.1380
874.00,4.1326
873.00,4.1530
872.00,4.1946
871.00,4.2003
870.00,4.1793
869.00,4.2236
868.00,4.4599
867.00,4.5179
866.00,4.2350
865.00,4.1617
864.00,4.2291
863.00,4.3973
862.00,4.4861
861.00,4.3645
860.00,4.3305
859.00,4.4759
858.00,4.8152
857.00,4.5697
856.00,4.3340
855.00,4.2722
854.00,4.1961
853.00,4.1739
852.00,4.3620
851.00,4.7732
850.00,4.6295
849.00,4.7195
848.00,4.7838
847.00,4.2800
846.00,4.1181
845.00,4.1598
844.00,4.2902
843.00,4.3663
842.00,4.3221
841.00,4.2745
840.00,4.2724
839.00,4.4581
838.00,4.5069
837.00,4.1431
836.00,3.9657
835.00,3.9247
834.00,3.9582
833.00,4.0874
832.00,4.2992
831.00,4.4677
830.00,4.3788
829.00,4.1136
828.00,3.9287
827.00,3.8800
826.00,3.9441
825.00,4.0486
824.00,4.1092
823.00,4.1953
822.00,4.4605
821.00,4.7957
820.00,4.6467
819.00,4.6037
818.00,4.6967
817.00,4.7065
816.00,4.6539
815.00,4.4469
814.00,4.1362
813.00,3.9568
812.00,3.9587
811.00,4.1133
810.00,4.4265
809.00,4.6853
808.00,4.5850
807.00,4.4888
806.00,4.1628
805.00,3.9194
804.00,3.8472
803.00,3.8937
802.00,4.0290
801.00,4.1860
800.00,4.3016
799.00,4.3592
798.00,4.5085
797.00,4.5120
796.00,4.1407
795.00,3.9341
794.00,3.8910
793.00,3.9994
792.00,4.3243
791.00,4.5536
790.00,4.3225
789.00,4.2027
788.00,4.1813
787.00,4.2620
786.00,4.3242
785.00,4.2072
784.00,4.1195
783.00,4.1344
782.00,4.1953
781.00,4.1143
780.00,3.9541
779.00,3.8474
778.00,3.8058
777.00,3.8364
776.00,3.9397
775.00,4.1083
774.00,4.3965
773.00,4.8831
772.00,5.1680
771.00,5.4090
770.00,5.1141
769.00,4.8755
768.00,4.6385
767.00,4.6872
766.00,4.9528
765.00,4.3134
764.00,4.0726
763.00,4.0354
762.00,4.0753
761.00,4.1538
760.00,4.1938
759.00,4.2070
758.00,4.1914
757.00,4.2727
756.00,4.5193
755.00,4.5074
754.00,4.4171
753.00,4.5926
752.00,4.6406
751.00,4.3785
750.00,4.1861
749.00,4.0425
748.00,3.9523
747.00,3.9506
746.00,4.0579
745.00,4.2563
744.00,4.4759
743.00,4.5933
742.00,4.8192
741.00,5.1021
740.00,4.4927
739.00,4.2102
738.00,4.1598
737.00,4.1738
736.00,4.0476
735.00,3.9203
734.00,3.9310
733.00,4.0457
732.00,4.2625
731.00,4.7696
730.00,4.6178
729.00,4.2046
728.00,4.0909
727.00,4.1529
726.00,4.2937
725.00,4.1384
724.00,3.9496
723.00,3.8860
722.00,3.9250
721.00,4.0706
720.00,4.3633
719.00,4.6166
718.00,4.2998
717.00,4.1111
716.00,4.0778
715.00,4.2117
714.00,4.5469
713.00,4.3900
712.00,4.3983
711.00,4.6907
710.00,4.2076
709.00,3.9334
708.00,3.8316
707.00,3.8394
706.00,3.9675
705.00,4.1361
704.00,4.2096
703.00,4.1352
702.00,3.9796
701.00,3.8676
700.00,3.8116
