Created as New Dataset,Sample 089 By Administrator Date Wednesday, November 24 2021
cm-1,A
7502.00,1.0386
7501.00,1.0456
7500.00,1.0530
7499.00,1.0601
7498.00,1.0664
7497.00,1.0716
7496.00,1.0763
7495.00,1.0810
7494.00,1.0858
7493.00,1.0907
7492.00,1.0960
7491.00,1.1023
7490.00,1.1098
7489.00,1.1172
7488.00,1.1227
7487.00,1.1254
7486.00,1.1258
7485.00,1.1250
7484.00,1.1236
7483.00,1.1215
7482.00,1.1183
7481.00,1.1141
7480.00,1.1102
7479.00,1.1077
7478.00,1.1068
7477.00,1.1067
7476.00,1.1065
7475.00,1.1061
7474.00,1.1060
7473.00,1.1064
7472.00,1.1068
7471.00,1.1058
7470.00,1.1028
7469.00,1.0977
7468.00,1.0915
7467.00,1.0853
7466.00,1.0794
7465.00,1.0733
7464.00,1.0661
7463.00,1.0580
7462.00,1.0496
7461.00,1.0412
7460.00,1.0327
7459.00,1.0239
7458.00,1.0157
7457.00,1.0089
7456.00,1.0038
7455.00,0.9999
7454.00,0.9961
7453.00,0.9922
7452.00,0.9880
7451.00,0.9831
7450.00,0.9773
7449.00,0.9706
7448.00,0.9638
7447.00,0.9575
7446.00,0.9521
7445.00,0.9470
7444.00,0.9419
7443.00,0.9366
7442.00,0.9311
7441.00,0.9253
7440.00,0.9188
7439.00,0.9117
7438.00,0.9044
7437.00,0.8975
7436.00,0.8909
7435.00,0.8845
7434.00,0.8782
7433.00,0.8719
7432.00,0.8657
7431.00,0.8590
7430.00,0.8518
7429.00,0.8444
7428.00,0.8376
7427.00,0.8318
7426.00,0.8267
7425.00,0.8216
7424.00,0.8161
7423.00,0.8107
7422.00,0.8058
7421.00,0.8012
7420.00,0.7963
7419.00,0.7910
7418.00,0.7855
7417.00,0.7806
7416.00,0.7767
7415.00,0.7735
7414.00,0.7705
7413.00,0.7678
7412.00,0.7658
7411.00,0.7651
7410.00,0.7655
7409.00,0.7664
7408.00,0.7676
7407.00,0.7690
7406.00,0.7709
7405.00,0.7734
7404.00,0.7761
7403.00,0.7791
7402.00,0.7827
7401.00,0.7871
7400.00,0.7925
7399.00,0.7985
7398.00,0.8046
7397.00,0.8109
7396.00,0.8174
7395.00,0.8242
7394.00,0.8312
7393.00,0.8383
7392.00,0.8459
7391.00,0.8540
7390.00,0.8627
7389.00,0.8717
7388.00,0.8808
7387.00,0.8901
7386.00,0.8994
7385.00,0.9089
7384.00,0.9188
7383.00,0.9288
7382.00,0.9386
7381.00,0.9482
7380.00,0.9577
7379.00,0.9672
7378.00,0.9768
7377.00,0.9860
7376.00,0.9949
7375.00,1.0036
7374.00,1.0125
7373.00,1.0214
7372.00,1.0303
7371.00,1.0389
7370.00,1.0473
7369.00,1.0557
7368.00,1.0644
7367.00,1.0731
7366.00,1.0816
7365.00,1.0896
7364.00,1.0973
7363.00,1.1046
7362.00,1.1114
7361.00,1.1175
7360.00,1.1232
7359.00,1.1289
7358.00,1.1351
7357.00,1.1415
7356.00,1.1477
7355.00,1.1535
7354.00,1.1588
7353.00,1.1638
7352.00,1.1683
7351.00,1.1723
7350.00,1.1760
7349.00,1.1792
7348.00,1.1818
7347.00,1.1838
7346.00,1.1855
7345.00,1.1870
7344.00,1.1882
7343.00,1.1886
7342.00,1.1883
7341.00,1.1875
7340.00,1.1866
7339.00,1.1856
7338.00,1.1841
7337.00,1.1819
7336.00,1.1786
7335.00,1.1746
7334.00,1.1705
7333.00,1.1667
7332.00,1.1631
7331.00,1.1598
7330.00,1.1569
7329.00,1.1544
7328.00,1.1514
7327.00,1.1470
7326.00,1.1414
7325.00,1.1352
7324.00,1.1288
7323.00,1.1219
7322.00,1.1140
7321.00,1.1056
7320.00,1.0976
7319.00,1.0902
7318.00,1.0827
7317.00,1.0747
7316.00,1.0663
7315.00,1.0576
7314.00,1.0488
7313.00,1.0395
7312.00,1.0297
7311.00,1.0196
7310.00,1.0094
7309.00,0.9993
7308.00,0.9891
7307.00,0.9790
7306.00,0.9694
7305.00,0.9603
7304.00,0.9512
7303.00,0.9419
7302.00,0.9325
7301.00,0.9231
7300.00,0.9136
7299.00,0.9038
7298.00,0.8939
7297.00,0.8845
7296.00,0.8758
7295.00,0.8677
7294.00,0.8598
7293.00,0.8519
7292.00,0.8443
7291.00,0.8370
7290.00,0.8300
7289.00,0.8232
7288.00,0.8166
7287.00,0.8103
7286.00,0.8046
7285.00,0.7995
7284.00,0.7952
7283.00,0.7915
7282.00,0.7883
7281.00,0.7857
7280.00,0.7835
7279.00,0.7818
7278.00,0.7808
7277.00,0.7805
7276.00,0.7810
7275.00,0.7820
7274.00,0.7832
7273.00,0.7849
7272.00,0.7874
7271.00,0.7908
7270.00,0.7947
7269.00,0.7989
7268.00,0.8032
7267.00,0.8081
7266.00,0.8135
7265.00,0.8193
7264.00,0.8252
7263.00,0.8313
7262.00,0.8379
7261.00,0.8451
7260.00,0.8530
7259.00,0.8612
7258.00,0.8698
7257.00,0.8786
7256.00,0.8875
7255.00,0.8964
7254.00,0.9052
7253.00,0.9139
7252.00,0.9225
7251.00,0.9310
7250.00,0.9395
7249.00,0.9484
7248.00,0.9577
7247.00,0.9671
7246.00,0.9763
7245.00,0.9853
7244.00,0.9940
7243.00,1.0028
7242.00,1.0117
7241.00,1.0206
7240.00,1.0292
7239.00,1.0377
7238.00,1.0461
7237.00,1.0545
7236.00,1.0626
7235.00,1.0699
7234.00,1.0763
7233.00,1.0821
7232.00,1.0879
7231.00,1.0938
7230.00,1.0997
7229.00,1.1056
7228.00,1.1115
7227.00,1.1173
7226.00,1.1230
7225.00,1.1284
7224.00,1.1329
7223.00,1.1366
7222.00,1.1400
7221.00,1.1437
7220.00,1.1477
7219.00,1.1514
7218.00,1.1544
7217.00,1.1569
7216.00,1.1592
7215.00,1.1611
7214.00,1.1619
7213.00,1.1616
7212.00,1.1607
7211.00,1.1598
7210.00,1.1590
7209.00,1.1579
7208.00,1.1566
7207.00,1.1551
7206.00,1.1537
7205.00,1.1522
7204.00,1.1505
7203.00,1.1484
7202.00,1.1459
7201.00,1.1433
7200.00,1.1405
7199.00,1.1374
7198.00,1.1338
7197.00,1.1295
7196.00,1.1247
7195.00,1.1195
7194.00,1.1140
7193.00,1.1086
7192.00,1.1031
7191.00,1.0976
7190.00,1.0919
7189.00,1.0858
7188.00,1.0791
7187.00,1.0717
7186.00,1.0635
7185.00,1.0547
7184.00,1.0454
7183.00,1.0360
7182.00,1.0269
7181.00,1.0184
7180.00,1.0104
7179.00,1.0026
7178.00,0.9946
7177.00,0.9862
7176.00,0.9775
7175.00,0.9686
7174.00,0.9595
7173.00,0.9503
7172.00,0.9408
7171.00,0.9314
7170.00,0.9222
7169.00,0.9132
7168.00,0.9040
7167.00,0.8946
7166.00,0.8852
7165.00,0.8761
7164.00,0.8674
7163.00,0.8588
7162.00,0.8505
7161.00,0.8424
7160.00,0.8348
7159.00,0.8277
7158.00,0.8211
7157.00,0.8148
7156.00,0.8088
7155.00,0.8032
7154.00,0.7980
7153.00,0.7935
7152.00,0.7895
7151.00,0.7860
7150.00,0.7829
7149.00,0.7803
7148.00,0.7782
7147.00,0.7767
7146.00,0.7755
7145.00,0.7751
7144.00,0.7754
7143.00,0.7767
7142.00,0.7785
7141.00,0.7808
7140.00,0.7835
7139.00,0.7868
7138.00,0.7905
7137.00,0.7946
7136.00,0.7992
7135.00,0.8042
7134.00,0.8098
7133.00,0.8160
7132.00,0.8228
7131.00,0.8302
7130.00,0.8380
7129.00,0.8462
7128.00,0.8545
7127.00,0.8629
7126.00,0.8714
7125.00,0.8800
7124.00,0.8888
7123.00,0.8980
7122.00,0.9073
7121.00,0.9167
7120.00,0.9262
7119.00,0.9360
7118.00,0.9461
7117.00,0.9561
7116.00,0.9657
7115.00,0.9749
7114.00,0.9841
7113.00,0.9937
7112.00,1.0038
7111.00,1.0140
7110.00,1.0240
7109.00,1.0338
7108.00,1.0432
7107.00,1.0524
7106.00,1.0614
7105.00,1.0702
7104.00,1.0789
7103.00,1.0877
7102.00,1.0966
7101.00,1.1054
7100.00,1.1137
7099.00,1.1209
7098.00,1.1271
7097.00,1.1329
7096.00,1.1388
7095.00,1.1447
7094.00,1.1506
7093.00,1.1564
7092.00,1.1626
7091.00,1.1690
7090.00,1.1751
7089.00,1.1805
7088.00,1.1852
7087.00,1.1891
7086.00,1.1922
7085.00,1.1946
7084.00,1.1966
7083.00,1.1984
7082.00,1.1999
7081.00,1.2009
7080.00,1.2016
7079.00,1.2024
7078.00,1.2036
7077.00,1.2050
7076.00,1.2055
7075.00,1.2047
7074.00,1.2029
7073.00,1.2008
7072.00,1.1989
7071.00,1.1965
7070.00,1.1932
7069.00,1.1888
7068.00,1.1840
7067.00,1.1796
7066.00,1.1758
7065.00,1.1721
7064.00,1.1680
7063.00,1.1632
7062.00,1.1580
7061.00,1.1526
7060.00,1.1469
7059.00,1.1406
7058.00,1.1337
7057.00,1.1261
7056.00,1.1181
7055.00,1.1101
7054.00,1.1019
7053.00,1.0934
7052.00,1.0844
7051.00,1.0748
7050.00,1.0651
7049.00,1.0554
7048.00,1.0456
7047.00,1.0357
7046.00,1.0257
7045.00,1.0156
7044.00,1.0055
7043.00,0.9952
7042.00,0.9848
7041.00,0.9744
7040.00,0.9642
7039.00,0.9541
7038.00,0.9438
7037.00,0.9335
7036.00,0.9232
7035.00,0.9131
7034.00,0.9032
7033.00,0.8936
7032.00,0.8840
7031.00,0.8747
7030.00,0.8658
7029.00,0.8574
7028.00,0.8493
7027.00,0.8414
7026.00,0.8338
7025.00,0.8265
7024.00,0.8196
7023.00,0.8131
7022.00,0.8070
7021.00,0.8017
7020.00,0.7970
7019.00,0.7928
7018.00,0.7894
7017.00,0.7867
7016.00,0.7847
7015.00,0.7831
7014.00,0.7817
7013.00,0.7809
7012.00,0.7807
7011.00,0.7813
7010.00,0.7824
7009.00,0.7841
7008.00,0.7865
7007.00,0.7897
7006.00,0.7934
7005.00,0.7976
7004.00,0.8024
7003.00,0.8077
7002.00,0.8135
7001.00,0.8197
7000.00,0.8263
6999.00,0.8334
6998.00,0.8408
6997.00,0.8486
6996.00,0.8568
6995.00,0.8652
6994.00,0.8737
6993.00,0.8825
6992.00,0.8916
6991.00,0.9008
6990.00,0.9100
6989.00,0.9191
6988.00,0.9285
6987.00,0.9382
6986.00,0.9482
6985.00,0.9581
6984.00,0.9678
6983.00,0.9775
6982.00,0.9874
6981.00,0.9974
6980.00,1.0074
6979.00,1.0170
6978.00,1.0263
6977.00,1.0355
6976.00,1.0448
6975.00,1.0540
6974.00,1.0629
6973.00,1.0713
6972.00,1.0796
6971.00,1.0880
6970.00,1.0965
6969.00,1.1046
6968.00,1.1121
6967.00,1.1193
6966.00,1.1264
6965.00,1.1334
6964.00,1.1402
6963.00,1.1465
6962.00,1.1525
6961.00,1.1580
6960.00,1.1629
6959.00,1.1669
6958.00,1.1704
6957.00,1.1738
6956.00,1.1775
6955.00,1.1814
6954.00,1.1850
6953.00,1.1880
6952.00,1.1905
6951.00,1.1926
6950.00,1.1945
6949.00,1.1960
6948.00,1.1970
6947.00,1.1976
6946.00,1.1977
6945.00,1.1973
6944.00,1.1962
6943.00,1.1946
6942.00,1.1926
6941.00,1.1901
6940.00,1.1874
6939.00,1.1847
6938.00,1.1819
6937.00,1.1787
6936.00,1.1749
6935.00,1.1705
6934.00,1.1660
6933.00,1.1617
6932.00,1.1574
6931.00,1.1530
6930.00,1.1481
6929.00,1.1426
6928.00,1.1363
6927.00,1.1294
6926.00,1.1218
6925.00,1.1136
6924.00,1.1050
6923.00,1.0965
6922.00,1.0882
6921.00,1.0797
6920.00,1.0708
6919.00,1.0615
6918.00,1.0523
6917.00,1.0431
6916.00,1.0336
6915.00,1.0236
6914.00,1.0134
6913.00,1.0035
6912.00,0.9937
6911.00,0.9841
6910.00,0.9745
6909.00,0.9650
6908.00,0.9553
6907.00,0.9453
6906.00,0.9350
6905.00,0.9244
6904.00,0.9140
6903.00,0.9039
6902.00,0.8939
6901.00,0.8842
6900.00,0.8748
6899.00,0.8657
6898.00,0.8571
6897.00,0.8489
6896.00,0.8407
6895.00,0.8325
6894.00,0.8247
6893.00,0.8176
6892.00,0.8110
6891.00,0.8046
6890.00,0.7985
6889.00,0.7930
6888.00,0.7883
6887.00,0.7844
6886.00,0.7810
6885.00,0.7781
6884.00,0.7759
6883.00,0.7743
6882.00,0.7732
6881.00,0.7726
6880.00,0.7725
6879.00,0.7731
6878.00,0.7744
6877.00,0.7763
6876.00,0.7788
6875.00,0.7820
6874.00,0.7857
6873.00,0.7900
6872.00,0.7949
6871.00,0.8001
6870.00,0.8057
6869.00,0.8118
6868.00,0.8186
6867.00,0.8261
6866.00,0.8339
6865.00,0.8419
6864.00,0.8501
6863.00,0.8587
6862.00,0.8677
6861.00,0.8770
6860.00,0.8864
6859.00,0.8962
6858.00,0.9063
6857.00,0.9166
6856.00,0.9269
6855.00,0.9371
6854.00,0.9474
6853.00,0.9578
6852.00,0.9682
6851.00,0.9785
6850.00,0.9887
6849.00,0.9989
6848.00,1.0090
6847.00,1.0190
6846.00,1.0292
6845.00,1.0394
6844.00,1.0494
6843.00,1.0591
6842.00,1.0685
6841.00,1.0776
6840.00,1.0866
6839.00,1.0953
6838.00,1.1038
6837.00,1.1120
6836.00,1.1202
6835.00,1.1282
6834.00,1.1360
6833.00,1.1434
6832.00,1.1503
6831.00,1.1568
6830.00,1.1632
6829.00,1.1697
6828.00,1.1762
6827.00,1.1825
6826.00,1.1882
6825.00,1.1932
6824.00,1.1974
6823.00,1.2010
6822.00,1.2041
6821.00,1.2070
6820.00,1.2094
6819.00,1.2112
6818.00,1.2126
6817.00,1.2139
6816.00,1.2153
6815.00,1.2168
6814.00,1.2177
6813.00,1.2180
6812.00,1.2177
6811.00,1.2174
6810.00,1.2169
6809.00,1.2159
6808.00,1.2139
6807.00,1.2112
6806.00,1.2081
6805.00,1.2045
6804.00,1.2003
6803.00,1.1959
6802.00,1.1918
6801.00,1.1880
6800.00,1.1840
6799.00,1.1793
6798.00,1.1742
6797.00,1.1687
6796.00,1.1626
6795.00,1.1554
6794.00,1.1473
6793.00,1.1390
6792.00,1.1309
6791.00,1.1228
6790.00,1.1144
6789.00,1.1055
6788.00,1.0960
6787.00,1.0864
6786.00,1.0769
6785.00,1.0673
6784.00,1.0575
6783.00,1.0472
6782.00,1.0366
6781.00,1.0258
6780.00,1.0150
6779.00,1.0042
6778.00,0.9933
6777.00,0.9825
6776.00,0.9715
6775.00,0.9605
6774.00,0.9496
6773.00,0.9387
6772.00,0.9279
6771.00,0.9173
6770.00,0.9070
6769.00,0.8972
6768.00,0.8875
6767.00,0.8779
6766.00,0.8683
6765.00,0.8589
6764.00,0.8497
6763.00,0.8409
6762.00,0.8326
6761.00,0.8250
6760.00,0.8182
6759.00,0.8118
6758.00,0.8059
6757.00,0.8003
6756.00,0.7951
6755.00,0.7903
6754.00,0.7860
6753.00,0.7825
6752.00,0.7796
6751.00,0.7773
6750.00,0.7756
6749.00,0.7748
6748.00,0.7748
6747.00,0.7755
6746.00,0.7766
6745.00,0.7783
6744.00,0.7805
6743.00,0.7832
6742.00,0.7866
6741.00,0.7906
6740.00,0.7952
6739.00,0.8005
6738.00,0.8064
6737.00,0.8131
6736.00,0.8203
6735.00,0.8277
6734.00,0.8353
6733.00,0.8432
6732.00,0.8516
6731.00,0.8604
6730.00,0.8695
6729.00,0.8790
6728.00,0.8887
6727.00,0.8986
6726.00,0.9086
6725.00,0.9186
6724.00,0.9286
6723.00,0.9387
6722.00,0.9492
6721.00,0.9600
6720.00,0.9709
6719.00,0.9816
6718.00,0.9919
6717.00,1.0017
6716.00,1.0114
6715.00,1.0210
6714.00,1.0308
6713.00,1.0407
6712.00,1.0506
6711.00,1.0604
6710.00,1.0700
6709.00,1.0796
6708.00,1.0888
6707.00,1.0974
6706.00,1.1056
6705.00,1.1133
6704.00,1.1209
6703.00,1.1283
6702.00,1.1358
6701.00,1.1432
6700.00,1.1502
6699.00,1.1570
6698.00,1.1636
6697.00,1.1702
6696.00,1.1764
6695.00,1.1816
6694.00,1.1855
6693.00,1.1889
6692.00,1.1923
6691.00,1.1958
6690.00,1.1991
6689.00,1.2018
6688.00,1.2041
6687.00,1.2062
6686.00,1.2081
6685.00,1.2093
6684.00,1.2095
6683.00,1.2090
6682.00,1.2082
6681.00,1.2073
6680.00,1.2065
6679.00,1.2057
6678.00,1.2048
6677.00,1.2038
6676.00,1.2024
6675.00,1.2001
6674.00,1.1970
6673.00,1.1931
6672.00,1.1888
6671.00,1.1839
6670.00,1.1788
6669.00,1.1739
6668.00,1.1690
6667.00,1.1638
6666.00,1.1578
6665.00,1.1513
6664.00,1.1445
6663.00,1.1376
6662.00,1.1304
6661.00,1.1229
6660.00,1.1151
6659.00,1.1071
6658.00,1.0988
6657.00,1.0902
6656.00,1.0812
6655.00,1.0720
6654.00,1.0627
6653.00,1.0533
6652.00,1.0438
6651.00,1.0342
6650.00,1.0244
6649.00,1.0145
6648.00,1.0046
6647.00,0.9945
6646.00,0.9843
6645.00,0.9738
6644.00,0.9632
6643.00,0.9525
6642.00,0.9420
6641.00,0.9315
6640.00,0.9211
6639.00,0.9107
6638.00,0.9002
6637.00,0.8898
6636.00,0.8795
6635.00,0.8693
6634.00,0.8596
6633.00,0.8504
6632.00,0.8417
6631.00,0.8334
6630.00,0.8255
6629.00,0.8179
6628.00,0.8108
6627.00,0.8039
6626.00,0.7975
6625.00,0.7916
6624.00,0.7863
6623.00,0.7815
6622.00,0.7773
6621.00,0.7737
6620.00,0.7706
6619.00,0.7683
6618.00,0.7668
6617.00,0.7661
6616.00,0.7660
6615.00,0.7666
6614.00,0.7678
6613.00,0.7698
6612.00,0.7725
6611.00,0.7759
6610.00,0.7801
6609.00,0.7849
6608.00,0.7902
6607.00,0.7958
6606.00,0.8017
6605.00,0.8081
6604.00,0.8148
6603.00,0.8220
6602.00,0.8296
6601.00,0.8378
6600.00,0.8466
6599.00,0.8559
6598.00,0.8655
6597.00,0.8755
6596.00,0.8858
6595.00,0.8964
6594.00,0.9071
6593.00,0.9179
6592.00,0.9288
6591.00,0.9397
6590.00,0.9505
6589.00,0.9613
6588.00,0.9722
6587.00,0.9831
6586.00,0.9939
6585.00,1.0048
6584.00,1.0156
6583.00,1.0263
6582.00,1.0371
6581.00,1.0479
6580.00,1.0587
6579.00,1.0693
6578.00,1.0795
6577.00,1.0895
6576.00,1.0991
6575.00,1.1085
6574.00,1.1175
6573.00,1.1262
6572.00,1.1345
6571.00,1.1425
6570.00,1.1504
6569.00,1.1583
6568.00,1.1661
6567.00,1.1734
6566.00,1.1801
6565.00,1.1864
6564.00,1.1922
6563.00,1.1975
6562.00,1.2023
6561.00,1.2070
6560.00,1.2120
6559.00,1.2169
6558.00,1.2216
6557.00,1.2259
6556.00,1.2296
6555.00,1.2324
6554.00,1.2341
6553.00,1.2350
6552.00,1.2357
6551.00,1.2363
6550.00,1.2370
6549.00,1.2376
6548.00,1.2379
6547.00,1.2376
6546.00,1.2367
6545.00,1.2354
6544.00,1.2336
6543.00,1.2315
6542.00,1.2289
6541.00,1.2257
6540.00,1.2223
6539.00,1.2187
6538.00,1.2147
6537.00,1.2103
6536.00,1.2056
6535.00,1.2005
6534.00,1.1952
6533.00,1.1895
6532.00,1.1834
6531.00,1.1770
6530.00,1.1701
6529.00,1.1625
6528.00,1.1543
6527.00,1.1457
6526.00,1.1367
6525.00,1.1271
6524.00,1.1171
6523.00,1.1071
6522.00,1.0973
6521.00,1.0877
6520.00,1.0778
6519.00,1.0673
6518.00,1.0564
6517.00,1.0451
6516.00,1.0336
6515.00,1.0219
6514.00,1.0101
6513.00,0.9985
6512.00,0.9872
6511.00,0.9759
6510.00,0.9645
6509.00,0.9532
6508.00,0.9417
6507.00,0.9302
6506.00,0.9188
6505.00,0.9076
6504.00,0.8967
6503.00,0.8861
6502.00,0.8757
6501.00,0.8656
6500.00,0.8559
6499.00,0.8465
6498.00,0.8375
6497.00,0.8288
6496.00,0.8206
6495.00,0.8130
6494.00,0.8059
6493.00,0.7995
6492.00,0.7938
6491.00,0.7887
6490.00,0.7842
6489.00,0.7802
6488.00,0.7767
6487.00,0.7740
6486.00,0.7719
6485.00,0.7706
6484.00,0.7700
6483.00,0.7701
6482.00,0.7711
6481.00,0.7729
6480.00,0.7753
6479.00,0.7783
6478.00,0.7819
6477.00,0.7862
6476.00,0.7912
6475.00,0.7969
6474.00,0.8033
6473.00,0.8103
6472.00,0.8176
6471.00,0.8253
6470.00,0.8335
6469.00,0.8423
6468.00,0.8515
6467.00,0.8609
6466.00,0.8707
6465.00,0.8806
6464.00,0.8907
6463.00,0.9007
6462.00,0.9109
6461.00,0.9211
6460.00,0.9315
6459.00,0.9421
6458.00,0.9530
6457.00,0.9642
6456.00,0.9753
6455.00,0.9863
6454.00,0.9972
6453.00,1.0082
6452.00,1.0195
6451.00,1.0306
6450.00,1.0414
6449.00,1.0519
6448.00,1.0622
6447.00,1.0723
6446.00,1.0821
6445.00,1.0916
6444.00,1.1009
6443.00,1.1102
6442.00,1.1195
6441.00,1.1287
6440.00,1.1373
6439.00,1.1453
6438.00,1.1527
6437.00,1.1598
6436.00,1.1665
6435.00,1.1729
6434.00,1.1791
6433.00,1.1853
6432.00,1.1914
6431.00,1.1970
6430.00,1.2021
6429.00,1.2068
6428.00,1.2112
6427.00,1.2152
6426.00,1.2189
6425.00,1.2222
6424.00,1.2250
6423.00,1.2271
6422.00,1.2285
6421.00,1.2293
6420.00,1.2298
6419.00,1.2302
6418.00,1.2305
6417.00,1.2305
6416.00,1.2301
6415.00,1.2291
6414.00,1.2277
6413.00,1.2259
6412.00,1.2239
6411.00,1.2217
6410.00,1.2194
6409.00,1.2167
6408.00,1.2133
6407.00,1.2093
6406.00,1.2044
6405.00,1.1991
6404.00,1.1935
6403.00,1.1877
6402.00,1.1818
6401.00,1.1754
6400.00,1.1687
6399.00,1.1617
6398.00,1.1545
6397.00,1.1471
6396.00,1.1392
6395.00,1.1310
6394.00,1.1226
6393.00,1.1140
6392.00,1.1050
6391.00,1.0955
6390.00,1.0857
6389.00,1.0758
6388.00,1.0657
6387.00,1.0555
6386.00,1.0450
6385.00,1.0343
6384.00,1.0235
6383.00,1.0126
6382.00,1.0017
6381.00,0.9909
6380.00,0.9800
6379.00,0.9690
6378.00,0.9577
6377.00,0.9464
6376.00,0.9350
6375.00,0.9235
6374.00,0.9120
6373.00,0.9008
6372.00,0.8900
6371.00,0.8796
6370.00,0.8695
6369.00,0.8597
6368.00,0.8500
6367.00,0.8407
6366.00,0.8317
6365.00,0.8231
6364.00,0.8147
6363.00,0.8068
6362.00,0.7995
6361.00,0.7930
6360.00,0.7872
6359.00,0.7820
6358.00,0.7774
6357.00,0.7735
6356.00,0.7702
6355.00,0.7676
6354.00,0.7656
6353.00,0.7642
6352.00,0.7636
6351.00,0.7637
6350.00,0.7648
6349.00,0.7667
6348.00,0.7694
6347.00,0.7729
6346.00,0.7770
6345.00,0.7819
6344.00,0.7874
6343.00,0.7933
6342.00,0.7996
6341.00,0.8065
6340.00,0.8139
6339.00,0.8217
6338.00,0.8299
6337.00,0.8388
6336.00,0.8482
6335.00,0.8580
6334.00,0.8681
6333.00,0.8785
6332.00,0.8892
6331.00,0.9000
6330.00,0.9109
6329.00,0.9220
6328.00,0.9331
6327.00,0.9445
6326.00,0.9560
6325.00,0.9677
6324.00,0.9794
6323.00,0.9911
6322.00,1.0029
6321.00,1.0147
6320.00,1.0263
6319.00,1.0379
6318.00,1.0494
6317.00,1.0607
6316.00,1.0719
6315.00,1.0828
6314.00,1.0934
6313.00,1.1036
6312.00,1.1134
6311.00,1.1229
6310.00,1.1323
6309.00,1.1417
6308.00,1.1511
6307.00,1.1604
6306.00,1.1695
6305.00,1.1783
6304.00,1.1866
6303.00,1.1941
6302.00,1.2009
6301.00,1.2071
6300.00,1.2131
6299.00,1.2189
6298.00,1.2244
6297.00,1.2295
6296.00,1.2342
6295.00,1.2387
6294.00,1.2428
6293.00,1.2463
6292.00,1.2493
6291.00,1.2522
6290.00,1.2551
6289.00,1.2577
6288.00,1.2599
6287.00,1.2617
6286.00,1.2631
6285.00,1.2637
6284.00,1.2634
6283.00,1.2624
6282.00,1.2613
6281.00,1.2600
6280.00,1.2582
6279.00,1.2557
6278.00,1.2527
6277.00,1.2497
6276.00,1.2464
6275.00,1.2426
6274.00,1.2384
6273.00,1.2341
6272.00,1.2296
6271.00,1.2246
6270.00,1.2190
6269.00,1.2126
6268.00,1.2056
6267.00,1.1981
6266.00,1.1904
6265.00,1.1824
6264.00,1.1741
6263.00,1.1655
6262.00,1.1565
6261.00,1.1472
6260.00,1.1377
6259.00,1.1278
6258.00,1.1175
6257.00,1.1069
6256.00,1.0960
6255.00,1.0848
6254.00,1.0733
6253.00,1.0615
6252.00,1.0496
6251.00,1.0375
6250.00,1.0254
6249.00,1.0132
6248.00,1.0010
6247.00,0.9888
6246.00,0.9765
6245.00,0.9641
6244.00,0.9518
6243.00,0.9395
6242.00,0.9274
6241.00,0.9156
6240.00,0.9040
6239.00,0.8925
6238.00,0.8813
6237.00,0.8703
6236.00,0.8597
6235.00,0.8494
6234.00,0.8395
6233.00,0.8301
6232.00,0.8213
6231.00,0.8129
6230.00,0.8051
6229.00,0.7978
6228.00,0.7912
6227.00,0.7853
6226.00,0.7801
6225.00,0.7756
6224.00,0.7720
6223.00,0.7692
6222.00,0.7672
6221.00,0.7660
6220.00,0.7656
6219.00,0.7658
6218.00,0.7667
6217.00,0.7682
6216.00,0.7704
6215.00,0.7733
6214.00,0.7769
6213.00,0.7813
6212.00,0.7865
6211.00,0.7924
6210.00,0.7990
6209.00,0.8063
6208.00,0.8141
6207.00,0.8223
6206.00,0.8308
6205.00,0.8398
6204.00,0.8491
6203.00,0.8588
6202.00,0.8688
6201.00,0.8792
6200.00,0.8899
6199.00,0.9010
6198.00,0.9122
6197.00,0.9234
6196.00,0.9347
6195.00,0.9460
6194.00,0.9575
6193.00,0.9694
6192.00,0.9815
6191.00,0.9934
6190.00,1.0052
6189.00,1.0168
6188.00,1.0284
6187.00,1.0397
6186.00,1.0509
6185.00,1.0619
6184.00,1.0727
6183.00,1.0832
6182.00,1.0934
6181.00,1.1031
6180.00,1.1124
6179.00,1.1215
6178.00,1.1307
6177.00,1.1399
6176.00,1.1491
6175.00,1.1578
6174.00,1.1663
6173.00,1.1743
6172.00,1.1819
6171.00,1.1888
6170.00,1.1954
6169.00,1.2016
6168.00,1.2077
6167.00,1.2133
6166.00,1.2184
6165.00,1.2229
6164.00,1.2271
6163.00,1.2311
6162.00,1.2349
6161.00,1.2383
6160.00,1.2413
6159.00,1.2441
6158.00,1.2469
6157.00,1.2494
6156.00,1.2513
6155.00,1.2523
6154.00,1.2527
6153.00,1.2527
6152.00,1.2522
6151.00,1.2513
6150.00,1.2502
6149.00,1.2492
6148.00,1.2483
6147.00,1.2470
6146.00,1.2452
6145.00,1.2425
6144.00,1.2391
6143.00,1.2352
6142.00,1.2310
6141.00,1.2268
6140.00,1.2223
6139.00,1.2174
6138.00,1.2121
6137.00,1.2063
6136.00,1.2002
6135.00,1.1936
6134.00,1.1865
6133.00,1.1790
6132.00,1.1710
6131.00,1.1626
6130.00,1.1539
6129.00,1.1450
6128.00,1.1361
6127.00,1.1270
6126.00,1.1176
6125.00,1.1078
6124.00,1.0974
6123.00,1.0863
6122.00,1.0748
6121.00,1.0629
6120.00,1.0509
6119.00,1.0387
6118.00,1.0265
6117.00,1.0142
6116.00,1.0018
6115.00,0.9891
6114.00,0.9764
6113.00,0.9638
6112.00,0.9515
6111.00,0.9392
6110.00,0.9271
6109.00,0.9152
6108.00,0.9035
6107.00,0.8920
6106.00,0.8807
6105.00,0.8697
6104.00,0.8589
6103.00,0.8483
6102.00,0.8381
6101.00,0.8285
6100.00,0.8195
6099.00,0.8109
6098.00,0.8029
6097.00,0.7955
6096.00,0.7887
6095.00,0.7826
6094.00,0.7771
6093.00,0.7724
6092.00,0.7686
6091.00,0.7658
6090.00,0.7638
6089.00,0.7626
6088.00,0.7621
6087.00,0.7623
6086.00,0.7632
6085.00,0.7648
6084.00,0.7673
6083.00,0.7706
6082.00,0.7748
6081.00,0.7798
6080.00,0.7856
6079.00,0.7919
6078.00,0.7987
6077.00,0.8061
6076.00,0.8139
6075.00,0.8224
6074.00,0.8315
6073.00,0.8413
6072.00,0.8516
6071.00,0.8622
6070.00,0.8729
6069.00,0.8838
6068.00,0.8950
6067.00,0.9063
6066.00,0.9179
6065.00,0.9299
6064.00,0.9421
6063.00,0.9545
6062.00,0.9670
6061.00,0.9795
6060.00,0.9919
6059.00,1.0042
6058.00,1.0163
6057.00,1.0284
6056.00,1.0405
6055.00,1.0525
6054.00,1.0645
6053.00,1.0764
6052.00,1.0884
6051.00,1.1003
6050.00,1.1119
6049.00,1.1233
6048.00,1.1344
6047.00,1.1449
6046.00,1.1548
6045.00,1.1641
6044.00,1.1732
6043.00,1.1821
6042.00,1.1909
6041.00,1.1994
6040.00,1.2080
6039.00,1.2165
6038.00,1.2243
6037.00,1.2313
6036.00,1.2376
6035.00,1.2435
6034.00,1.2493
6033.00,1.2548
6032.00,1.2599
6031.00,1.2646
6030.00,1.2688
6029.00,1.2725
6028.00,1.2756
6027.00,1.2781
6026.00,1.2799
6025.00,1.2814
6024.00,1.2828
6023.00,1.2838
6022.00,1.2846
6021.00,1.2851
6020.00,1.2852
6019.00,1.2850
6018.00,1.2842
6017.00,1.2828
6016.00,1.2809
6015.00,1.2785
6014.00,1.2756
6013.00,1.2724
6012.00,1.2692
6011.00,1.2657
6010.00,1.2617
6009.00,1.2572
6008.00,1.2521
6007.00,1.2465
6006.00,1.2405
6005.00,1.2341
6004.00,1.2272
6003.00,1.2199
6002.00,1.2121
6001.00,1.2040
6000.00,1.1953
5999.00,1.1859
5998.00,1.1760
5997.00,1.1659
5996.00,1.1555
5995.00,1.1448
5994.00,1.1338
5993.00,1.1228
5992.00,1.1118
5991.00,1.1005
5990.00,1.0889
5989.00,1.0769
5988.00,1.0645
5987.00,1.0519
5986.00,1.0390
5985.00,1.0260
5984.00,1.0130
5983.00,0.9999
5982.00,0.9869
5981.00,0.9739
5980.00,0.9609
5979.00,0.9478
5978.00,0.9347
5977.00,0.9219
5976.00,0.9094
5975.00,0.8971
5974.00,0.8851
5973.00,0.8733
5972.00,0.8620
5971.00,0.8512
5970.00,0.8409
5969.00,0.8311
5968.00,0.8218
5967.00,0.8131
5966.00,0.8051
5965.00,0.7977
5964.00,0.7908
5963.00,0.7845
5962.00,0.7789
5961.00,0.7741
5960.00,0.7701
5959.00,0.7668
5958.00,0.7644
5957.00,0.7630
5956.00,0.7626
5955.00,0.7630
5954.00,0.7642
5953.00,0.7662
5952.00,0.7690
5951.00,0.7726
5950.00,0.7771
5949.00,0.7822
5948.00,0.7881
5947.00,0.7946
5946.00,0.8019
5945.00,0.8098
5944.00,0.8183
5943.00,0.8273
5942.00,0.8368
5941.00,0.8469
5940.00,0.8574
5939.00,0.8682
5938.00,0.8795
5937.00,0.8913
5936.00,0.9034
5935.00,0.9156
5934.00,0.9281
5933.00,0.9407
5932.00,0.9534
5931.00,0.9662
5930.00,0.9790
5929.00,0.9919
5928.00,1.0048
5927.00,1.0176
5926.00,1.0303
5925.00,1.0431
5924.00,1.0559
5923.00,1.0687
5922.00,1.0813
5921.00,1.0939
5920.00,1.1061
5919.00,1.1180
5918.00,1.1295
5917.00,1.1406
5916.00,1.1515
5915.00,1.1621
5914.00,1.1724
5913.00,1.1826
5912.00,1.1928
5911.00,1.2028
5910.00,1.2123
5909.00,1.2215
5908.00,1.2302
5907.00,1.2384
5906.00,1.2461
5905.00,1.2534
5904.00,1.2603
5903.00,1.2670
5902.00,1.2730
5901.00,1.2785
5900.00,1.2833
5899.00,1.2876
5898.00,1.2914
5897.00,1.2949
5896.00,1.2983
5895.00,1.3014
5894.00,1.3042
5893.00,1.3065
5892.00,1.3085
5891.00,1.3104
5890.00,1.3119
5889.00,1.3130
5888.00,1.3136
5887.00,1.3137
5886.00,1.3130
5885.00,1.3113
5884.00,1.3089
5883.00,1.3062
5882.00,1.3035
5881.00,1.3005
5880.00,1.2972
5879.00,1.2933
5878.00,1.2889
5877.00,1.2841
5876.00,1.2790
5875.00,1.2734
5874.00,1.2674
5873.00,1.2609
5872.00,1.2540
5871.00,1.2466
5870.00,1.2387
5869.00,1.2304
5868.00,1.2219
5867.00,1.2132
5866.00,1.2042
5865.00,1.1946
5864.00,1.1843
5863.00,1.1735
5862.00,1.1627
5861.00,1.1517
5860.00,1.1404
5859.00,1.1287
5858.00,1.1167
5857.00,1.1045
5856.00,1.0921
5855.00,1.0794
5854.00,1.0666
5853.00,1.0538
5852.00,1.0406
5851.00,1.0272
5850.00,1.0137
5849.00,1.0001
5848.00,0.9866
5847.00,0.9731
5846.00,0.9598
5845.00,0.9468
5844.00,0.9339
5843.00,0.9212
5842.00,0.9087
5841.00,0.8967
5840.00,0.8852
5839.00,0.8741
5838.00,0.8635
5837.00,0.8534
5836.00,0.8437
5835.00,0.8345
5834.00,0.8259
5833.00,0.8179
5832.00,0.8106
5831.00,0.8039
5830.00,0.7981
5829.00,0.7931
5828.00,0.7889
5827.00,0.7854
5826.00,0.7827
5825.00,0.7810
5824.00,0.7800
5823.00,0.7798
5822.00,0.7804
5821.00,0.7819
5820.00,0.7842
5819.00,0.7874
5818.00,0.7914
5817.00,0.7962
5816.00,0.8017
5815.00,0.8080
5814.00,0.8150
5813.00,0.8226
5812.00,0.8307
5811.00,0.8394
5810.00,0.8487
5809.00,0.8585
5808.00,0.8687
5807.00,0.8792
5806.00,0.8901
5805.00,0.9014
5804.00,0.9131
5803.00,0.9251
5802.00,0.9374
5801.00,0.9500
5800.00,0.9628
5799.00,0.9756
5798.00,0.9883
5797.00,1.0010
5796.00,1.0136
5795.00,1.0263
5794.00,1.0392
5793.00,1.0520
5792.00,1.0648
5791.00,1.0775
5790.00,1.0901
5789.00,1.1026
5788.00,1.1147
5787.00,1.1265
5786.00,1.1382
5785.00,1.1497
5784.00,1.1612
5783.00,1.1725
5782.00,1.1835
5781.00,1.1943
5780.00,1.2046
5779.00,1.2144
5778.00,1.2235
5777.00,1.2322
5776.00,1.2406
5775.00,1.2488
5774.00,1.2570
5773.00,1.2649
5772.00,1.2725
5771.00,1.2798
5770.00,1.2866
5769.00,1.2928
5768.00,1.2983
5767.00,1.3031
5766.00,1.3073
5765.00,1.3113
5764.00,1.3151
5763.00,1.3186
5762.00,1.3215
5761.00,1.3238
5760.00,1.3254
5759.00,1.3265
5758.00,1.3272
5757.00,1.3278
5756.00,1.3283
5755.00,1.3283
5754.00,1.3277
5753.00,1.3263
5752.00,1.3242
5751.00,1.3218
5750.00,1.3192
5749.00,1.3165
5748.00,1.3138
5747.00,1.3109
5746.00,1.3075
5745.00,1.3035
5744.00,1.2988
5743.00,1.2936
5742.00,1.2878
5741.00,1.2815
5740.00,1.2748
5739.00,1.2676
5738.00,1.2601
5737.00,1.2523
5736.00,1.2440
5735.00,1.2353
5734.00,1.2261
5733.00,1.2163
5732.00,1.2060
5731.00,1.1952
5730.00,1.1839
5729.00,1.1723
5728.00,1.1604
5727.00,1.1482
5726.00,1.1358
5725.00,1.1234
5724.00,1.1107
5723.00,1.0978
5722.00,1.0846
5721.00,1.0711
5720.00,1.0574
5719.00,1.0436
5718.00,1.0297
5717.00,1.0157
5716.00,1.0018
5715.00,0.9879
5714.00,0.9741
5713.00,0.9602
5712.00,0.9464
5711.00,0.9327
5710.00,0.9194
5709.00,0.9063
5708.00,0.8936
5707.00,0.8813
5706.00,0.8694
5705.00,0.8580
5704.00,0.8471
5703.00,0.8366
5702.00,0.8268
5701.00,0.8178
5700.00,0.8095
5699.00,0.8020
5698.00,0.7952
5697.00,0.7891
5696.00,0.7838
5695.00,0.7793
5694.00,0.7757
5693.00,0.7731
5692.00,0.7713
5691.00,0.7705
5690.00,0.7707
5689.00,0.7717
5688.00,0.7736
5687.00,0.7763
5686.00,0.7799
5685.00,0.7843
5684.00,0.7896
5683.00,0.7957
5682.00,0.8027
5681.00,0.8105
5680.00,0.8191
5679.00,0.8283
5678.00,0.8381
5677.00,0.8484
5676.00,0.8591
5675.00,0.8701
5674.00,0.8816
5673.00,0.8935
5672.00,0.9058
5671.00,0.9185
5670.00,0.9315
5669.00,0.9448
5668.00,0.9582
5667.00,0.9717
5666.00,0.9853
5665.00,0.9990
5664.00,1.0127
5663.00,1.0263
5662.00,1.0398
5661.00,1.0532
5660.00,1.0666
5659.00,1.0801
5658.00,1.0935
5657.00,1.1068
5656.00,1.1199
5655.00,1.1325
5654.00,1.1447
5653.00,1.1563
5652.00,1.1676
5651.00,1.1787
5650.00,1.1898
5649.00,1.2007
5648.00,1.2113
5647.00,1.2215
5646.00,1.2313
5645.00,1.2408
5644.00,1.2501
5643.00,1.2591
5642.00,1.2678
5641.00,1.2760
5640.00,1.2834
5639.00,1.2901
5638.00,1.2962
5637.00,1.3020
5636.00,1.3075
5635.00,1.3127
5634.00,1.3176
5633.00,1.3222
5632.00,1.3265
5631.00,1.3303
5630.00,1.3335
5629.00,1.3360
5628.00,1.3379
5627.00,1.3391
5626.00,1.3398
5625.00,1.3401
5624.00,1.3403
5623.00,1.3402
5622.00,1.3399
5621.00,1.3391
5620.00,1.3379
5619.00,1.3363
5618.00,1.3341
5617.00,1.3313
5616.00,1.3280
5615.00,1.3245
5614.00,1.3206
5613.00,1.3161
5612.00,1.3110
5611.00,1.3053
5610.00,1.2994
5609.00,1.2929
5608.00,1.2860
5607.00,1.2785
5606.00,1.2707
5605.00,1.2624
5604.00,1.2536
5603.00,1.2445
5602.00,1.2351
5601.00,1.2255
5600.00,1.2156
5599.00,1.2053
5598.00,1.1943
5597.00,1.1827
5596.00,1.1705
5595.00,1.1578
5594.00,1.1449
5593.00,1.1318
5592.00,1.1185
5591.00,1.1050
5590.00,1.0913
5589.00,1.0773
5588.00,1.0630
5587.00,1.0484
5586.00,1.0337
5585.00,1.0189
5584.00,1.0041
5583.00,0.9894
5582.00,0.9747
5581.00,0.9601
5580.00,0.9457
5579.00,0.9314
5578.00,0.9174
5577.00,0.9037
5576.00,0.8903
5575.00,0.8774
5574.00,0.8649
5573.00,0.8529
5572.00,0.8415
5571.00,0.8306
5570.00,0.8203
5569.00,0.8107
5568.00,0.8017
5567.00,0.7936
5566.00,0.7863
5565.00,0.7799
5564.00,0.7743
5563.00,0.7696
5562.00,0.7659
5561.00,0.7632
5560.00,0.7614
5559.00,0.7606
5558.00,0.7609
5557.00,0.7621
5556.00,0.7643
5555.00,0.7675
5554.00,0.7716
5553.00,0.7766
5552.00,0.7826
5551.00,0.7894
5550.00,0.7970
5549.00,0.8052
5548.00,0.8141
5547.00,0.8235
5546.00,0.8336
5545.00,0.8443
5544.00,0.8555
5543.00,0.8671
5542.00,0.8792
5541.00,0.8917
5540.00,0.9046
5539.00,0.9176
5538.00,0.9308
5537.00,0.9442
5536.00,0.9577
5535.00,0.9711
5534.00,0.9846
5533.00,0.9982
5532.00,1.0118
5531.00,1.0253
5530.00,1.0388
5529.00,1.0521
5528.00,1.0654
5527.00,1.0786
5526.00,1.0916
5525.00,1.1043
5524.00,1.1167
5523.00,1.1287
5522.00,1.1405
5521.00,1.1520
5520.00,1.1634
5519.00,1.1746
5518.00,1.1857
5517.00,1.1965
5516.00,1.2068
5515.00,1.2166
5514.00,1.2261
5513.00,1.2353
5512.00,1.2441
5511.00,1.2525
5510.00,1.2606
5509.00,1.2683
5508.00,1.2754
5507.00,1.2821
5506.00,1.2886
5505.00,1.2951
5504.00,1.3012
5503.00,1.3069
5502.00,1.3122
5501.00,1.3172
5500.00,1.3218
5499.00,1.3261
5498.00,1.3301
5497.00,1.3338
5496.00,1.3368
5495.00,1.3389
5494.00,1.3404
5493.00,1.3415
5492.00,1.3423
5491.00,1.3427
5490.00,1.3428
5489.00,1.3428
5488.00,1.3422
5487.00,1.3410
5486.00,1.3393
5485.00,1.3372
5484.00,1.3348
5483.00,1.3318
5482.00,1.3282
5481.00,1.3243
5480.00,1.3200
5479.00,1.3152
5478.00,1.3097
5477.00,1.3036
5476.00,1.2971
5475.00,1.2903
5474.00,1.2832
5473.00,1.2758
5472.00,1.2678
5471.00,1.2590
5470.00,1.2493
5469.00,1.2391
5468.00,1.2284
5467.00,1.2176
5466.00,1.2067
5465.00,1.1955
5464.00,1.1839
5463.00,1.1716
5462.00,1.1587
5461.00,1.1452
5460.00,1.1315
5459.00,1.1174
5458.00,1.1031
5457.00,1.0885
5456.00,1.0737
5455.00,1.0588
5454.00,1.0438
5453.00,1.0287
5452.00,1.0136
5451.00,0.9983
5450.00,0.9830
5449.00,0.9677
5448.00,0.9525
5447.00,0.9374
5446.00,0.9224
5445.00,0.9079
5444.00,0.8938
5443.00,0.8801
5442.00,0.8668
5441.00,0.8541
5440.00,0.8420
5439.00,0.8307
5438.00,0.8201
5437.00,0.8103
5436.00,0.8012
5435.00,0.7926
5434.00,0.7848
5433.00,0.7781
5432.00,0.7723
5431.00,0.7676
5430.00,0.7639
5429.00,0.7612
5428.00,0.7594
5427.00,0.7585
5426.00,0.7587
5425.00,0.7600
5424.00,0.7624
5423.00,0.7659
5422.00,0.7703
5421.00,0.7757
5420.00,0.7820
5419.00,0.7892
5418.00,0.7974
5417.00,0.8063
5416.00,0.8159
5415.00,0.8261
5414.00,0.8371
5413.00,0.8487
5412.00,0.8608
5411.00,0.8734
5410.00,0.8865
5409.00,0.8999
5408.00,0.9138
5407.00,0.9279
5406.00,0.9423
5405.00,0.9569
5404.00,0.9716
5403.00,0.9864
5402.00,1.0012
5401.00,1.0160
5400.00,1.0307
5399.00,1.0453
5398.00,1.0600
5397.00,1.0746
5396.00,1.0892
5395.00,1.1036
5394.00,1.1179
5393.00,1.1320
5392.00,1.1459
5391.00,1.1595
5390.00,1.1727
5389.00,1.1855
5388.00,1.1979
5387.00,1.2101
5386.00,1.2221
5385.00,1.2338
5384.00,1.2453
5383.00,1.2565
5382.00,1.2672
5381.00,1.2772
5380.00,1.2866
5379.00,1.2956
5378.00,1.3042
5377.00,1.3122
5376.00,1.3194
5375.00,1.3262
5374.00,1.3327
5373.00,1.3392
5372.00,1.3455
5371.00,1.3516
5370.00,1.3573
5369.00,1.3623
5368.00,1.3662
5367.00,1.3693
5366.00,1.3720
5365.00,1.3742
5364.00,1.3761
5363.00,1.3777
5362.00,1.3789
5361.00,1.3798
5360.00,1.3801
5359.00,1.3798
5358.00,1.3792
5357.00,1.3782
5356.00,1.3769
5355.00,1.3751
5354.00,1.3731
5353.00,1.3706
5352.00,1.3675
5351.00,1.3636
5350.00,1.3592
5349.00,1.3544
5348.00,1.3495
5347.00,1.3442
5346.00,1.3382
5345.00,1.3316
5344.00,1.3243
5343.00,1.3165
5342.00,1.3082
5341.00,1.2996
5340.00,1.2906
5339.00,1.2810
5338.00,1.2707
5337.00,1.2601
5336.00,1.2492
5335.00,1.2381
5334.00,1.2266
5333.00,1.2145
5332.00,1.2020
5331.00,1.1891
5330.00,1.1759
5329.00,1.1623
5328.00,1.1482
5327.00,1.1337
5326.00,1.1186
5325.00,1.1032
5324.00,1.0876
5323.00,1.0719
5322.00,1.0561
5321.00,1.0402
5320.00,1.0241
5319.00,1.0080
5318.00,0.9919
5317.00,0.9758
5316.00,0.9599
5315.00,0.9441
5314.00,0.9287
5313.00,0.9136
5312.00,0.8989
5311.00,0.8847
5310.00,0.8710
5309.00,0.8578
5308.00,0.8451
5307.00,0.8329
5306.00,0.8215
5305.00,0.8109
5304.00,0.8012
5303.00,0.7924
5302.00,0.7846
5301.00,0.7776
5300.00,0.7717
5299.00,0.7667
5298.00,0.7627
5297.00,0.7598
5296.00,0.7578
5295.00,0.7570
5294.00,0.7574
5293.00,0.7589
5292.00,0.7615
5291.00,0.7652
5290.00,0.7699
5289.00,0.7757
5288.00,0.7823
5287.00,0.7899
5286.00,0.7983
5285.00,0.8075
5284.00,0.8176
5283.00,0.8284
5282.00,0.8397
5281.00,0.8517
5280.00,0.8642
5279.00,0.8772
5278.00,0.8907
5277.00,0.9045
5276.00,0.9185
5275.00,0.9328
5274.00,0.9473
5273.00,0.9621
5272.00,0.9770
5271.00,0.9920
5270.00,1.0073
5269.00,1.0226
5268.00,1.0379
5267.00,1.0530
5266.00,1.0679
5265.00,1.0827
5264.00,1.0976
5263.00,1.1125
5262.00,1.1273
5261.00,1.1419
5260.00,1.1560
5259.00,1.1697
5258.00,1.1830
5257.00,1.1959
5256.00,1.2087
5255.00,1.2213
5254.00,1.2335
5253.00,1.2454
5252.00,1.2570
5251.00,1.2681
5250.00,1.2787
5249.00,1.2890
5248.00,1.2991
5247.00,1.3088
5246.00,1.3180
5245.00,1.3266
5244.00,1.3347
5243.00,1.3424
5242.00,1.3498
5241.00,1.3566
5240.00,1.3627
5239.00,1.3683
5238.00,1.3732
5237.00,1.3778
5236.00,1.3821
5235.00,1.3861
5234.00,1.3897
5233.00,1.3928
5232.00,1.3952
5231.00,1.3970
5230.00,1.3984
5229.00,1.3995
5228.00,1.4004
5227.00,1.4009
5226.00,1.4012
5225.00,1.4011
5224.00,1.4004
5223.00,1.3990
5222.00,1.3969
5221.00,1.3940
5220.00,1.3905
5219.00,1.3865
5218.00,1.3822
5217.00,1.3778
5216.00,1.3729
5215.00,1.3676
5214.00,1.3618
5213.00,1.3557
5212.00,1.3493
5211.00,1.3423
5210.00,1.3347
5209.00,1.3265
5208.00,1.3175
5207.00,1.3077
5206.00,1.2974
5205.00,1.2868
5204.00,1.2761
5203.00,1.2652
5202.00,1.2538
5201.00,1.2419
5200.00,1.2295
5199.00,1.2165
5198.00,1.2029
5197.00,1.1888
5196.00,1.1743
5195.00,1.1595
5194.00,1.1442
5193.00,1.1286
5192.00,1.1128
5191.00,1.0968
5190.00,1.0805
5189.00,1.0641
5188.00,1.0476
5187.00,1.0311
5186.00,1.0146
5185.00,0.9981
5184.00,0.9816
5183.00,0.9651
5182.00,0.9488
5181.00,0.9327
5180.00,0.9171
5179.00,0.9021
5178.00,0.8877
5177.00,0.8739
5176.00,0.8606
5175.00,0.8479
5174.00,0.8358
5173.00,0.8244
5172.00,0.8139
5171.00,0.8043
5170.00,0.7956
5169.00,0.7879
5168.00,0.7812
5167.00,0.7755
5166.00,0.7710
5165.00,0.7677
5164.00,0.7655
5163.00,0.7646
5162.00,0.7648
5161.00,0.7661
5160.00,0.7686
5159.00,0.7721
5158.00,0.7769
5157.00,0.7827
5156.00,0.7896
5155.00,0.7975
5154.00,0.8065
5153.00,0.8164
5152.00,0.8271
5151.00,0.8385
5150.00,0.8506
5149.00,0.8634
5148.00,0.8767
5147.00,0.8906
5146.00,0.9049
5145.00,0.9196
5144.00,0.9347
5143.00,0.9499
5142.00,0.9654
5141.00,0.9811
5140.00,0.9969
5139.00,1.0129
5138.00,1.0291
5137.00,1.0452
5136.00,1.0613
5135.00,1.0774
5134.00,1.0934
5133.00,1.1093
5132.00,1.1250
5131.00,1.1404
5130.00,1.1555
5129.00,1.1704
5128.00,1.1849
5127.00,1.1993
5126.00,1.2134
5125.00,1.2273
5124.00,1.2408
5123.00,1.2539
5122.00,1.2664
5121.00,1.2785
5120.00,1.2902
5119.00,1.3015
5118.00,1.3125
5117.00,1.3230
5116.00,1.3329
5115.00,1.3422
5114.00,1.3511
5113.00,1.3595
5112.00,1.3675
5111.00,1.3751
5110.00,1.3823
5109.00,1.3890
5108.00,1.3952
5107.00,1.4008
5106.00,1.4061
5105.00,1.4109
5104.00,1.4152
5103.00,1.4188
5102.00,1.4218
5101.00,1.4244
5100.00,1.4267
5099.00,1.4287
5098.00,1.4303
5097.00,1.4312
5096.00,1.4315
5095.00,1.4312
5094.00,1.4302
5093.00,1.4290
5092.00,1.4276
5091.00,1.4259
5090.00,1.4238
5089.00,1.4210
5088.00,1.4176
5087.00,1.4136
5086.00,1.4090
5085.00,1.4042
5084.00,1.3990
5083.00,1.3935
5082.00,1.3877
5081.00,1.3814
5080.00,1.3745
5079.00,1.3669
5078.00,1.3588
5077.00,1.3502
5076.00,1.3410
5075.00,1.3312
5074.00,1.3210
5073.00,1.3102
5072.00,1.2989
5071.00,1.2871
5070.00,1.2747
5069.00,1.2617
5068.00,1.2484
5067.00,1.2347
5066.00,1.2206
5065.00,1.2062
5064.00,1.1914
5063.00,1.1760
5062.00,1.1602
5061.00,1.1440
5060.00,1.1274
5059.00,1.1105
5058.00,1.0933
5057.00,1.0759
5056.00,1.0584
5055.00,1.0408
5054.00,1.0232
5053.00,1.0057
5052.00,0.9882
5051.00,0.9707
5050.00,0.9534
5049.00,0.9363
5048.00,0.9196
5047.00,0.9033
5046.00,0.8877
5045.00,0.8727
5044.00,0.8583
5043.00,0.8446
5042.00,0.8317
5041.00,0.8195
5040.00,0.8081
5039.00,0.7977
5038.00,0.7882
5037.00,0.7799
5036.00,0.7726
5035.00,0.7665
5034.00,0.7616
5033.00,0.7579
5032.00,0.7555
5031.00,0.7543
5030.00,0.7545
5029.00,0.7559
5028.00,0.7586
5027.00,0.7625
5026.00,0.7675
5025.00,0.7738
5024.00,0.7811
5023.00,0.7896
5022.00,0.7990
5021.00,0.8094
5020.00,0.8207
5019.00,0.8328
5018.00,0.8456
5017.00,0.8591
5016.00,0.8731
5015.00,0.8877
5014.00,0.9028
5013.00,0.9184
5012.00,0.9344
5011.00,0.9507
5010.00,0.9672
5009.00,0.9839
5008.00,1.0008
5007.00,1.0177
5006.00,1.0346
5005.00,1.0516
5004.00,1.0684
5003.00,1.0851
5002.00,1.1015
5001.00,1.1178
5000.00,1.1340
4999.00,1.1501
4998.00,1.1661
4997.00,1.1819
4996.00,1.1975
4995.00,1.2125
4994.00,1.2270
4993.00,1.2411
4992.00,1.2548
4991.00,1.2682
4990.00,1.2813
4989.00,1.2940
4988.00,1.3064
4987.00,1.3184
4986.00,1.3300
4985.00,1.3411
4984.00,1.3516
4983.00,1.3616
4982.00,1.3709
4981.00,1.3797
4980.00,1.3882
4979.00,1.3964
4978.00,1.4042
4977.00,1.4113
4976.00,1.4176
4975.00,1.4233
4974.00,1.4284
4973.00,1.4332
4972.00,1.4377
4971.00,1.4418
4970.00,1.4453
4969.00,1.4482
4968.00,1.4506
4967.00,1.4527
4966.00,1.4545
4965.00,1.4557
4964.00,1.4564
4963.00,1.4563
4962.00,1.4557
4961.00,1.4545
4960.00,1.4530
4959.00,1.4512
4958.00,1.4491
4957.00,1.4466
4956.00,1.4435
4955.00,1.4398
4954.00,1.4356
4953.00,1.4310
4952.00,1.4258
4951.00,1.4203
4950.00,1.4142
4949.00,1.4078
4948.00,1.4007
4947.00,1.3930
4946.00,1.3846
4945.00,1.3758
4944.00,1.3664
4943.00,1.3566
4942.00,1.3461
4941.00,1.3350
4940.00,1.3234
4939.00,1.3113
4938.00,1.2988
4937.00,1.2859
4936.00,1.2725
4935.00,1.2584
4934.00,1.2437
4933.00,1.2285
4932.00,1.2128
4931.00,1.1967
4930.00,1.1804
4929.00,1.1636
4928.00,1.1464
4927.00,1.1288
4926.00,1.1109
4925.00,1.0926
4924.00,1.0742
4923.00,1.0558
4922.00,1.0374
4921.00,1.0191
4920.00,1.0009
4919.00,0.9827
4918.00,0.9646
4917.00,0.9468
4916.00,0.9294
4915.00,0.9124
4914.00,0.8960
4913.00,0.8802
4912.00,0.8650
4911.00,0.8505
4910.00,0.8368
4909.00,0.8241
4908.00,0.8124
4907.00,0.8017
4906.00,0.7921
4905.00,0.7836
4904.00,0.7763
4903.00,0.7702
4902.00,0.7654
4901.00,0.7619
4900.00,0.7598
4899.00,0.7592
4898.00,0.7599
4897.00,0.7619
4896.00,0.7652
4895.00,0.7698
4894.00,0.7758
4893.00,0.7830
4892.00,0.7914
4891.00,0.8010
4890.00,0.8116
4889.00,0.8232
4888.00,0.8356
4887.00,0.8489
4886.00,0.8629
4885.00,0.8775
4884.00,0.8928
4883.00,0.9086
4882.00,0.9249
4881.00,0.9415
4880.00,0.9586
4879.00,0.9759
4878.00,0.9934
4877.00,1.0111
4876.00,1.0290
4875.00,1.0469
4874.00,1.0647
4873.00,1.0825
4872.00,1.1001
4871.00,1.1176
4870.00,1.1350
4869.00,1.1523
4868.00,1.1694
4867.00,1.1862
4866.00,1.2027
4865.00,1.2187
4864.00,1.2342
4863.00,1.2493
4862.00,1.2642
4861.00,1.2788
4860.00,1.2930
4859.00,1.3069
4858.00,1.3203
4857.00,1.3332
4856.00,1.3455
4855.00,1.3571
4854.00,1.3683
4853.00,1.3789
4852.00,1.3891
4851.00,1.3989
4850.00,1.4082
4849.00,1.4171
4848.00,1.4254
4847.00,1.4332
4846.00,1.4404
4845.00,1.4470
4844.00,1.4529
4843.00,1.4583
4842.00,1.4632
4841.00,1.4678
4840.00,1.4721
4839.00,1.4759
4838.00,1.4792
4837.00,1.4819
4836.00,1.4840
4835.00,1.4857
4834.00,1.4868
4833.00,1.4874
4832.00,1.4874
4831.00,1.4870
4830.00,1.4863
4829.00,1.4852
4828.00,1.4837
4827.00,1.4818
4826.00,1.4792
4825.00,1.4761
4824.00,1.4724
4823.00,1.4684
4822.00,1.4640
4821.00,1.4591
4820.00,1.4536
4819.00,1.4476
4818.00,1.4411
4817.00,1.4339
4816.00,1.4261
4815.00,1.4176
4814.00,1.4084
4813.00,1.3988
4812.00,1.3889
4811.00,1.3785
4810.00,1.3678
4809.00,1.3564
4808.00,1.3445
4807.00,1.3319
4806.00,1.3188
4805.00,1.3051
4804.00,1.2910
4803.00,1.2763
4802.00,1.2612
4801.00,1.2455
4800.00,1.2293
4799.00,1.2126
4798.00,1.1953
4797.00,1.1775
4796.00,1.1593
4795.00,1.1408
4794.00,1.1221
4793.00,1.1032
4792.00,1.0840
4791.00,1.0646
4790.00,1.0450
4789.00,1.0253
4788.00,1.0058
4787.00,0.9865
4786.00,0.9676
4785.00,0.9489
4784.00,0.9306
4783.00,0.9127
4782.00,0.8953
4781.00,0.8786
4780.00,0.8626
4779.00,0.8474
4778.00,0.8331
4777.00,0.8198
4776.00,0.8076
4775.00,0.7964
4774.00,0.7865
4773.00,0.7778
4772.00,0.7704
4771.00,0.7645
4770.00,0.7600
4769.00,0.7570
4768.00,0.7555
4767.00,0.7553
4766.00,0.7566
4765.00,0.7594
4764.00,0.7637
4763.00,0.7695
4762.00,0.7766
4761.00,0.7851
4760.00,0.7947
4759.00,0.8055
4758.00,0.8174
4757.00,0.8302
4756.00,0.8439
4755.00,0.8584
4754.00,0.8736
4753.00,0.8895
4752.00,0.9060
4751.00,0.9231
4750.00,0.9406
4749.00,0.9585
4748.00,0.9767
4747.00,0.9951
4746.00,1.0138
4745.00,1.0326
4744.00,1.0515
4743.00,1.0704
4742.00,1.0891
4741.00,1.1076
4740.00,1.1260
4739.00,1.1443
4738.00,1.1626
4737.00,1.1806
4736.00,1.1983
4735.00,1.2156
4734.00,1.2325
4733.00,1.2490
4732.00,1.2652
4731.00,1.2811
4730.00,1.2966
4729.00,1.3119
4728.00,1.3266
4727.00,1.3408
4726.00,1.3544
4725.00,1.3675
4724.00,1.3800
4723.00,1.3921
4722.00,1.4036
4721.00,1.4145
4720.00,1.4248
4719.00,1.4344
4718.00,1.4436
4717.00,1.4524
4716.00,1.4607
4715.00,1.4685
4714.00,1.4757
4713.00,1.4824
4712.00,1.4886
4711.00,1.4943
4710.00,1.4994
4709.00,1.5037
4708.00,1.5073
4707.00,1.5104
4706.00,1.5135
4705.00,1.5164
4704.00,1.5188
4703.00,1.5205
4702.00,1.5215
4701.00,1.5220
4700.00,1.5221
4699.00,1.5221
4698.00,1.5217
4697.00,1.5209
4696.00,1.5194
4695.00,1.5173
4694.00,1.5144
4693.00,1.5110
4692.00,1.5071
4691.00,1.5028
4690.00,1.4983
4689.00,1.4936
4688.00,1.4885
4687.00,1.4829
4686.00,1.4767
4685.00,1.4698
4684.00,1.4620
4683.00,1.4536
4682.00,1.4447
4681.00,1.4353
4680.00,1.4255
4679.00,1.4152
4678.00,1.4044
4677.00,1.3931
4676.00,1.3813
4675.00,1.3690
4674.00,1.3563
4673.00,1.3430
4672.00,1.3290
4671.00,1.3143
4670.00,1.2990
4669.00,1.2832
4668.00,1.2669
4667.00,1.2502
4666.00,1.2330
4665.00,1.2152
4664.00,1.1970
4663.00,1.1782
4662.00,1.1591
4661.00,1.1397
4660.00,1.1200
4659.00,1.1000
4658.00,1.0799
4657.00,1.0595
4656.00,1.0392
4655.00,1.0189
4654.00,0.9988
4653.00,0.9791
4652.00,0.9598
4651.00,0.9409
4650.00,0.9224
4649.00,0.9046
4648.00,0.8875
4647.00,0.8713
4646.00,0.8561
4645.00,0.8419
4644.00,0.8288
4643.00,0.8170
4642.00,0.8064
4641.00,0.7972
4640.00,0.7893
4639.00,0.7829
4638.00,0.7780
4637.00,0.7748
4636.00,0.7731
4635.00,0.7730
4634.00,0.7744
4633.00,0.7774
4632.00,0.7820
4631.00,0.7880
4630.00,0.7956
4629.00,0.8046
4628.00,0.8149
4627.00,0.8264
4626.00,0.8391
4625.00,0.8528
4624.00,0.8675
4623.00,0.8829
4622.00,0.8991
4621.00,0.9159
4620.00,0.9333
4619.00,0.9513
4618.00,0.9697
4617.00,0.9885
4616.00,1.0075
4615.00,1.0266
4614.00,1.0459
4613.00,1.0652
4612.00,1.0847
4611.00,1.1041
4610.00,1.1235
4609.00,1.1428
4608.00,1.1619
4607.00,1.1807
4606.00,1.1993
4605.00,1.2175
4604.00,1.2355
4603.00,1.2532
4602.00,1.2706
4601.00,1.2877
4600.00,1.3042
4599.00,1.3202
4598.00,1.3357
4597.00,1.3507
4596.00,1.3653
4595.00,1.3793
4594.00,1.3929
4593.00,1.4058
4592.00,1.4182
4591.00,1.4301
4590.00,1.4415
4589.00,1.4525
4588.00,1.4628
4587.00,1.4724
4586.00,1.4813
4585.00,1.4896
4584.00,1.4976
4583.00,1.5052
4582.00,1.5124
4581.00,1.5192
4580.00,1.5252
4579.00,1.5304
4578.00,1.5350
4577.00,1.5392
4576.00,1.5431
4575.00,1.5466
4574.00,1.5497
4573.00,1.5521
4572.00,1.5540
4571.00,1.5553
4570.00,1.5561
4569.00,1.5565
4568.00,1.5564
4567.00,1.5558
4566.00,1.5547
4565.00,1.5533
4564.00,1.5515
4563.00,1.5492
4562.00,1.5464
4561.00,1.5430
4560.00,1.5391
4559.00,1.5346
4558.00,1.5296
4557.00,1.5239
4556.00,1.5178
4555.00,1.5113
4554.00,1.5043
4553.00,1.4967
4552.00,1.4885
4551.00,1.4797
4550.00,1.4703
4549.00,1.4604
4548.00,1.4500
4547.00,1.4388
4546.00,1.4270
4545.00,1.4145
4544.00,1.4014
4543.00,1.3879
4542.00,1.3739
4541.00,1.3594
4540.00,1.3443
4539.00,1.3286
4538.00,1.3122
4537.00,1.2952
4536.00,1.2776
4535.00,1.2592
4534.00,1.2402
4533.00,1.2206
4532.00,1.2007
4531.00,1.1805
4530.00,1.1599
4529.00,1.1391
4528.00,1.1179
4527.00,1.0965
4526.00,1.0749
4525.00,1.0534
4524.00,1.0320
4523.00,1.0108
4522.00,0.9898
4521.00,0.9691
4520.00,0.9488
4519.00,0.9292
4518.00,0.9103
4517.00,0.8921
4516.00,0.8749
4515.00,0.8586
4514.00,0.8434
4513.00,0.8293
4512.00,0.8165
4511.00,0.8050
4510.00,0.7949
4509.00,0.7864
4508.00,0.7794
4507.00,0.7740
4506.00,0.7704
4505.00,0.7684
4504.00,0.7681
4503.00,0.7694
4502.00,0.7725
4501.00,0.7773
4500.00,0.7838
4499.00,0.7918
4498.00,0.8013
4497.00,0.8122
4496.00,0.8244
4495.00,0.8377
4494.00,0.8522
4493.00,0.8677
4492.00,0.8842
4491.00,0.9015
4490.00,0.9196
4489.00,0.9384
4488.00,0.9576
4487.00,0.9773
4486.00,0.9972
4485.00,1.0174
4484.00,1.0378
4483.00,1.0583
4482.00,1.0788
4481.00,1.0994
4480.00,1.1199
4479.00,1.1405
4478.00,1.1610
4477.00,1.1814
4476.00,1.2014
4475.00,1.2212
4474.00,1.2405
4473.00,1.2595
4472.00,1.2781
4471.00,1.2964
4470.00,1.3143
4469.00,1.3320
4468.00,1.3492
4467.00,1.3660
4466.00,1.3822
4465.00,1.3976
4464.00,1.4122
4463.00,1.4261
4462.00,1.4394
4461.00,1.4522
4460.00,1.4645
4459.00,1.4764
4458.00,1.4878
4457.00,1.4986
4456.00,1.5088
4455.00,1.5183
4454.00,1.5273
4453.00,1.5357
4452.00,1.5437
4451.00,1.5511
4450.00,1.5578
4449.00,1.5638
4448.00,1.5692
4447.00,1.5741
4446.00,1.5786
4445.00,1.5829
4444.00,1.5867
4443.00,1.5901
4442.00,1.5929
4441.00,1.5952
4440.00,1.5967
4439.00,1.5975
4438.00,1.5976
4437.00,1.5972
4436.00,1.5965
4435.00,1.5957
4434.00,1.5946
4433.00,1.5928
4432.00,1.5904
4431.00,1.5873
4430.00,1.5839
4429.00,1.5803
4428.00,1.5763
4427.00,1.5718
4426.00,1.5668
4425.00,1.5610
4424.00,1.5545
4423.00,1.5473
4422.00,1.5395
4421.00,1.5312
4420.00,1.5226
4419.00,1.5135
4418.00,1.5039
4417.00,1.4939
4416.00,1.4832
4415.00,1.4717
4414.00,1.4595
4413.00,1.4466
4412.00,1.4331
4411.00,1.4191
4410.00,1.4047
4409.00,1.3899
4408.00,1.3744
4407.00,1.3583
4406.00,1.3413
4405.00,1.3238
4404.00,1.3057
4403.00,1.2873
4402.00,1.2686
4401.00,1.2497
4400.00,1.2305
4399.00,1.2108
4398.00,1.1908
4397.00,1.1706
4396.00,1.1502
4395.00,1.1298
4394.00,1.1096
4393.00,1.0896
4392.00,1.0699
4391.00,1.0507
4390.00,1.0321
4389.00,1.0141
4388.00,0.9967
4387.00,0.9800
4386.00,0.9642
4385.00,0.9493
4384.00,0.9355
4383.00,0.9227
4382.00,0.9112
4381.00,0.9008
4380.00,0.8917
4379.00,0.8839
4378.00,0.8775
4377.00,0.8725
4376.00,0.8689
4375.00,0.8668
4374.00,0.8660
4373.00,0.8665
4372.00,0.8685
4371.00,0.8717
4370.00,0.8763
4369.00,0.8821
4368.00,0.8890
4367.00,0.8971
4366.00,0.9062
4365.00,0.9164
4364.00,0.9275
4363.00,0.9395
4362.00,0.9524
4361.00,0.9661
4360.00,0.9805
4359.00,0.9956
4358.00,1.0114
4357.00,1.0278
4356.00,1.0448
4355.00,1.0623
4354.00,1.0801
4353.00,1.0983
4352.00,1.1168
4351.00,1.1354
4350.00,1.1542
4349.00,1.1731
4348.00,1.1921
4347.00,1.2110
4346.00,1.2298
4345.00,1.2484
4344.00,1.2669
4343.00,1.2852
4342.00,1.3034
4341.00,1.3212
4340.00,1.3386
4339.00,1.3554
4338.00,1.3719
4337.00,1.3882
4336.00,1.4043
4335.00,1.4201
4334.00,1.4354
4333.00,1.4502
4332.00,1.4644
4331.00,1.4782
4330.00,1.4915
4329.00,1.5042
4328.00,1.5165
4327.00,1.5283
4326.00,1.5396
4325.00,1.5501
4324.00,1.5599
4323.00,1.5691
4322.00,1.5778
4321.00,1.5861
4320.00,1.5938
4319.00,1.6009
4318.00,1.6074
4317.00,1.6135
4316.00,1.6193
4315.00,1.6245
4314.00,1.6292
4313.00,1.6333
4312.00,1.6369
4311.00,1.6401
4310.00,1.6428
4309.00,1.6448
4308.00,1.6461
4307.00,1.6470
4306.00,1.6474
4305.00,1.6475
4304.00,1.6469
4303.00,1.6457
4302.00,1.6439
4301.00,1.6417
4300.00,1.6394
4299.00,1.6366
4298.00,1.6334
4297.00,1.6296
4296.00,1.6252
4295.00,1.6203
4294.00,1.6150
4293.00,1.6092
4292.00,1.6028
4291.00,1.5959
4290.00,1.5886
4289.00,1.5808
4288.00,1.5727
4287.00,1.5642
4286.00,1.5550
4285.00,1.5452
4284.00,1.5348
4283.00,1.5237
4282.00,1.5122
4281.00,1.5000
4280.00,1.4873
4279.00,1.4741
4278.00,1.4603
4277.00,1.4457
4276.00,1.4305
4275.00,1.4146
4274.00,1.3981
4273.00,1.3811
4272.00,1.3636
4271.00,1.3454
4270.00,1.3267
4269.00,1.3076
4268.00,1.2879
4267.00,1.2677
4266.00,1.2471
4265.00,1.2261
4264.00,1.2047
4263.00,1.1829
4262.00,1.1609
4261.00,1.1389
4260.00,1.1168
4259.00,1.0948
4258.00,1.0729
4257.00,1.0512
4256.00,1.0297
4255.00,1.0088
4254.00,0.9886
4253.00,0.9692
4252.00,0.9507
4251.00,0.9330
4250.00,0.9165
4249.00,0.9011
4248.00,0.8870
4247.00,0.8745
4246.00,0.8636
4245.00,0.8543
4244.00,0.8469
4243.00,0.8413
4242.00,0.8375
4241.00,0.8357
4240.00,0.8359
4239.00,0.8381
4238.00,0.8421
4237.00,0.8480
4236.00,0.8556
4235.00,0.8650
4234.00,0.8761
4233.00,0.8887
4232.00,0.9028
4231.00,0.9180
4230.00,0.9343
4229.00,0.9517
4228.00,0.9700
4227.00,0.9891
4226.00,1.0089
4225.00,1.0292
4224.00,1.0499
4223.00,1.0710
4222.00,1.0923
4221.00,1.1138
4220.00,1.1354
4219.00,1.1570
4218.00,1.1785
4217.00,1.1999
4216.00,1.2212
4215.00,1.2423
4214.00,1.2629
4213.00,1.2833
4212.00,1.3033
4211.00,1.3230
4210.00,1.3423
4209.00,1.3614
4208.00,1.3802
4207.00,1.3985
4206.00,1.4164
4205.00,1.4339
4204.00,1.4508
4203.00,1.4671
4202.00,1.4829
4201.00,1.4981
4200.00,1.5126
4199.00,1.5264
4198.00,1.5396
4197.00,1.5524
4196.00,1.5647
4195.00,1.5767
4194.00,1.5882
4193.00,1.5991
4192.00,1.6091
4191.00,1.6182
4190.00,1.6265
4189.00,1.6343
4188.00,1.6416
4187.00,1.6486
4186.00,1.6552
4185.00,1.6613
4184.00,1.6668
4183.00,1.6717
4182.00,1.6760
4181.00,1.6798
4180.00,1.6831
4179.00,1.6859
4178.00,1.6884
4177.00,1.6904
4176.00,1.6921
4175.00,1.6932
4174.00,1.6939
4173.00,1.6940
4172.00,1.6935
4171.00,1.6924
4170.00,1.6909
4169.00,1.6889
4168.00,1.6866
4167.00,1.6838
4166.00,1.6805
4165.00,1.6769
4164.00,1.6728
4163.00,1.6682
4162.00,1.6630
4161.00,1.6572
4160.00,1.6506
4159.00,1.6435
4158.00,1.6359
4157.00,1.6279
4156.00,1.6195
4155.00,1.6105
4154.00,1.6011
4153.00,1.5910
4152.00,1.5803
4151.00,1.5689
4150.00,1.5570
4149.00,1.5444
4148.00,1.5311
4147.00,1.5170
4146.00,1.5022
4145.00,1.4867
4144.00,1.4706
4143.00,1.4539
4142.00,1.4366
4141.00,1.4185
4140.00,1.3995
4139.00,1.3798
4138.00,1.3595
4137.00,1.3389
4136.00,1.3177
4135.00,1.2961
4134.00,1.2738
4133.00,1.2511
4132.00,1.2280
4131.00,1.2048
4130.00,1.1816
4129.00,1.1583
4128.00,1.1348
4127.00,1.1114
4126.00,1.0881
4125.00,1.0652
4124.00,1.0429
4123.00,1.0212
4122.00,1.0003
4121.00,0.9802
4120.00,0.9611
4119.00,0.9431
4118.00,0.9264
4117.00,0.9111
4116.00,0.8974
4115.00,0.8854
4114.00,0.8751
4113.00,0.8666
4112.00,0.8599
4111.00,0.8551
4110.00,0.8524
4109.00,0.8516
4108.00,0.8529
4107.00,0.8562
4106.00,0.8615
4105.00,0.8686
4104.00,0.8775
4103.00,0.8882
4102.00,0.9004
4101.00,0.9142
4100.00,0.9294
4099.00,0.9459
4098.00,0.9635
4097.00,0.9822
4096.00,1.0017
4095.00,1.0220
4094.00,1.0430
4093.00,1.0645
4092.00,1.0865
4091.00,1.1087
4090.00,1.1313
4089.00,1.1540
4088.00,1.1769
4087.00,1.1997
4086.00,1.2224
4085.00,1.2450
4084.00,1.2673
4083.00,1.2894
4082.00,1.3113
4081.00,1.3330
4080.00,1.3543
4079.00,1.3752
4078.00,1.3954
4077.00,1.4150
4076.00,1.4342
4075.00,1.4529
4074.00,1.4714
4073.00,1.4893
4072.00,1.5065
4071.00,1.5229
4070.00,1.5386
4069.00,1.5537
4068.00,1.5680
4067.00,1.5817
4066.00,1.5949
4065.00,1.6076
4064.00,1.6197
4063.00,1.6312
4062.00,1.6420
4061.00,1.6522
4060.00,1.6617
4059.00,1.6706
4058.00,1.6790
4057.00,1.6869
4056.00,1.6943
4055.00,1.7014
4054.00,1.7079
4053.00,1.7137
4052.00,1.7187
4051.00,1.7231
4050.00,1.7271
4049.00,1.7306
4048.00,1.7335
4047.00,1.7357
4046.00,1.7375
4045.00,1.7389
4044.00,1.7400
4043.00,1.7405
4042.00,1.7403
4041.00,1.7396
4040.00,1.7387
4039.00,1.7375
4038.00,1.7358
4037.00,1.7333
4036.00,1.7301
4035.00,1.7261
4034.00,1.7218
4033.00,1.7169
4032.00,1.7116
4031.00,1.7058
4030.00,1.6994
4029.00,1.6926
4028.00,1.6853
4027.00,1.6776
4026.00,1.6694
4025.00,1.6604
4024.00,1.6507
4023.00,1.6403
4022.00,1.6293
4021.00,1.6176
4020.00,1.6053
4019.00,1.5924
4018.00,1.5790
4017.00,1.5650
4016.00,1.5504
4015.00,1.5353
4014.00,1.5198
4013.00,1.5037
4012.00,1.4868
4011.00,1.4690
4010.00,1.4504
4009.00,1.4311
4008.00,1.4111
4007.00,1.3904
4006.00,1.3691
4005.00,1.3471
4004.00,1.3246
4003.00,1.3017
4002.00,1.2782
4001.00,1.2543
4000.00,1.2300
3999.00,1.2052
3998.00,1.1802
3997.00,1.1549
3996.00,1.1296
3995.00,1.1045
3994.00,1.0797
3993.00,1.0555
3992.00,1.0319
3991.00,1.0092
3990.00,0.9875
3989.00,0.9670
3988.00,0.9480
3987.00,0.9304
3986.00,0.9144
3985.00,0.9002
3984.00,0.8877
3983.00,0.8773
3982.00,0.8689
3981.00,0.8627
3980.00,0.8587
3979.00,0.8570
3978.00,0.8576
3977.00,0.8603
3976.00,0.8653
3975.00,0.8723
3974.00,0.8813
3973.00,0.8921
3972.00,0.9048
3971.00,0.9191
3970.00,0.9351
3969.00,0.9525
3968.00,0.9712
3967.00,0.9910
3966.00,1.0118
3965.00,1.0334
3964.00,1.0556
3963.00,1.0785
3962.00,1.1020
3961.00,1.1260
3960.00,1.1503
3959.00,1.1747
3958.00,1.1992
3957.00,1.2236
3956.00,1.2479
3955.00,1.2720
3954.00,1.2958
3953.00,1.3190
3952.00,1.3417
3951.00,1.3638
3950.00,1.3855
3949.00,1.4069
3948.00,1.4279
3947.00,1.4485
3946.00,1.4682
3945.00,1.4873
3944.00,1.5060
3943.00,1.5243
3942.00,1.5423
3941.00,1.5597
3940.00,1.5763
3939.00,1.5919
3938.00,1.6068
3937.00,1.6210
3936.00,1.6345
3935.00,1.6472
3934.00,1.6594
3933.00,1.6712
3932.00,1.6827
3931.00,1.6940
3930.00,1.7048
3929.00,1.7150
3928.00,1.7243
3927.00,1.7328
3926.00,1.7403
3925.00,1.7472
3924.00,1.7535
3923.00,1.7593
3922.00,1.7646
3921.00,1.7692
3920.00,1.7733
3919.00,1.7770
3918.00,1.7806
3917.00,1.7839
3916.00,1.7870
3915.00,1.7898
3914.00,1.7919
3913.00,1.7934
3912.00,1.7942
3911.00,1.7946
3910.00,1.7944
3909.00,1.7936
3908.00,1.7916
3907.00,1.7882
3906.00,1.7836
3905.00,1.7782
3904.00,1.7728
3903.00,1.7677
3902.00,1.7628
3901.00,1.7581
3900.00,1.7534
3899.00,1.7485
3898.00,1.7432
3897.00,1.7371
3896.00,1.7299
3895.00,1.7216
3894.00,1.7122
3893.00,1.7020
3892.00,1.6912
3891.00,1.6798
3890.00,1.6675
3889.00,1.6542
3888.00,1.6404
3887.00,1.6265
3886.00,1.6124
3885.00,1.5978
3884.00,1.5823
3883.00,1.5658
3882.00,1.5482
3881.00,1.5296
3880.00,1.5103
3879.00,1.4904
3878.00,1.4700
3877.00,1.4490
3876.00,1.4273
3875.00,1.4044
3874.00,1.3799
3873.00,1.3542
3872.00,1.3276
3871.00,1.3001
3870.00,1.2714
3869.00,1.2423
3868.00,1.2138
3867.00,1.1864
3866.00,1.1594
3865.00,1.1321
3864.00,1.1045
3863.00,1.0771
3862.00,1.0507
3861.00,1.0257
3860.00,1.0017
3859.00,0.9784
3858.00,0.9555
3857.00,0.9335
3856.00,0.9136
3855.00,0.8967
3854.00,0.8818
3853.00,0.8678
3852.00,0.8555
3851.00,0.8461
3850.00,0.8402
3849.00,0.8379
3848.00,0.8386
3847.00,0.8421
3846.00,0.8479
3845.00,0.8558
3844.00,0.8659
3843.00,0.8777
3842.00,0.8909
3841.00,0.9050
3840.00,0.9205
3839.00,0.9386
3838.00,0.9599
3837.00,0.9841
3836.00,1.0097
3835.00,1.0351
3834.00,1.0602
3833.00,1.0858
3832.00,1.1128
3831.00,1.1409
3830.00,1.1692
3829.00,1.1970
3828.00,1.2242
3827.00,1.2511
3826.00,1.2774
3825.00,1.3024
3824.00,1.3260
3823.00,1.3494
3822.00,1.3740
3821.00,1.4003
3820.00,1.4269
3819.00,1.4517
3818.00,1.4739
3817.00,1.4953
3816.00,1.5179
3815.00,1.5418
3814.00,1.5653
3813.00,1.5866
3812.00,1.6052
3811.00,1.6217
3810.00,1.6366
3809.00,1.6510
3808.00,1.6659
3807.00,1.6815
3806.00,1.6969
3805.00,1.7105
3804.00,1.7218
3803.00,1.7320
3802.00,1.7426
3801.00,1.7541
3800.00,1.7655
3799.00,1.7756
3798.00,1.7844
3797.00,1.7923
3796.00,1.7999
3795.00,1.8071
3794.00,1.8137
3793.00,1.8197
3792.00,1.8251
3791.00,1.8300
3790.00,1.8343
3789.00,1.8377
3788.00,1.8403
3787.00,1.8423
3786.00,1.8439
3785.00,1.8449
3784.00,1.8451
3783.00,1.8447
3782.00,1.8440
3781.00,1.8428
3780.00,1.8409
3779.00,1.8382
3778.00,1.8351
3777.00,1.8318
3776.00,1.8281
3775.00,1.8238
3774.00,1.8186
3773.00,1.8125
3772.00,1.8058
3771.00,1.7988
3770.00,1.7917
3769.00,1.7844
3768.00,1.7769
3767.00,1.7692
3766.00,1.7613
3765.00,1.7533
3764.00,1.7449
3763.00,1.7357
3762.00,1.7257
3761.00,1.7148
3760.00,1.7028
3759.00,1.6900
3758.00,1.6766
3757.00,1.6623
3756.00,1.6470
3755.00,1.6309
3754.00,1.6141
3753.00,1.5962
3752.00,1.5765
3751.00,1.5547
3750.00,1.5315
3749.00,1.5074
3748.00,1.4827
3747.00,1.4577
3746.00,1.4321
3745.00,1.4056
3744.00,1.3778
3743.00,1.3493
3742.00,1.3210
3741.00,1.2923
3740.00,1.2624
3739.00,1.2311
3738.00,1.1986
3737.00,1.1647
3736.00,1.1291
3735.00,1.0926
3734.00,1.0568
3733.00,1.0230
3732.00,0.9915
3731.00,0.9626
3730.00,0.9363
3729.00,0.9129
3728.00,0.8926
3727.00,0.8757
3726.00,0.8621
3725.00,0.8519
3724.00,0.8451
3723.00,0.8420
3722.00,0.8426
3721.00,0.8466
3720.00,0.8526
3719.00,0.8596
3718.00,0.8674
3717.00,0.8774
3716.00,0.8904
3715.00,0.9064
3714.00,0.9245
3713.00,0.9437
3712.00,0.9640
3711.00,0.9860
3710.00,1.0100
3709.00,1.0357
3708.00,1.0630
3707.00,1.0913
3706.00,1.1202
3705.00,1.1493
3704.00,1.1788
3703.00,1.2093
3702.00,1.2413
3701.00,1.2748
3700.00,1.3090
3699.00,1.3428
3698.00,1.3756
3697.00,1.4075
3696.00,1.4385
3695.00,1.4685
3694.00,1.4971
3693.00,1.5242
3692.00,1.5498
3691.00,1.5739
3690.00,1.5973
3689.00,1.6214
3688.00,1.6471
3687.00,1.6730
3686.00,1.6971
3685.00,1.7184
3684.00,1.7371
3683.00,1.7540
3682.00,1.7697
3681.00,1.7843
3680.00,1.7975
3679.00,1.8090
3678.00,1.8192
3677.00,1.8292
3676.00,1.8401
3675.00,1.8518
3674.00,1.8630
3673.00,1.8723
3672.00,1.8803
3671.00,1.8880
3670.00,1.8963
3669.00,1.9051
3668.00,1.9139
3667.00,1.9221
3666.00,1.9291
3665.00,1.9347
3664.00,1.9390
3663.00,1.9426
3662.00,1.9457
3661.00,1.9481
3660.00,1.9495
3659.00,1.9499
3658.00,1.9501
3657.00,1.9508
3656.00,1.9517
3655.00,1.9518
3654.00,1.9502
3653.00,1.9475
3652.00,1.9448
3651.00,1.9425
3650.00,1.9394
3649.00,1.9353
3648.00,1.9308
3647.00,1.9271
3646.00,1.9240
3645.00,1.9210
3644.00,1.9175
3643.00,1.9130
3642.00,1.9076
3641.00,1.9013
3640.00,1.8942
3639.00,1.8863
3638.00,1.8774
3637.00,1.8672
3636.00,1.8558
3635.00,1.8434
3634.00,1.8298
3633.00,1.8149
3632.00,1.7991
3631.00,1.7835
3630.00,1.7690
3629.00,1.7555
3628.00,1.7428
3627.00,1.7309
3626.00,1.7198
3625.00,1.7095
3624.00,1.6996
3623.00,1.6898
3622.00,1.6799
3621.00,1.6698
3620.00,1.6595
3619.00,1.6488
3618.00,1.6372
3617.00,1.6244
3616.00,1.6107
3615.00,1.5969
3614.00,1.5836
3613.00,1.5707
3612.00,1.5572
3611.00,1.5429
3610.00,1.5280
3609.00,1.5135
3608.00,1.4997
3607.00,1.4868
3606.00,1.4750
3605.00,1.4646
3604.00,1.4555
3603.00,1.4475
3602.00,1.4402
3601.00,1.4335
3600.00,1.4273
3599.00,1.4218
3598.00,1.4173
3597.00,1.4139
3596.00,1.4118
3595.00,1.4109
3594.00,1.4109
3593.00,1.4116
3592.00,1.4129
3591.00,1.4148
3590.00,1.4181
3589.00,1.4231
3588.00,1.4298
3587.00,1.4377
3586.00,1.4466
3585.00,1.4562
3584.00,1.4663
3583.00,1.4771
3582.00,1.4887
3581.00,1.5009
3580.00,1.5137
3579.00,1.5269
3578.00,1.5406
3577.00,1.5546
3576.00,1.5690
3575.00,1.5836
3574.00,1.5984
3573.00,1.6131
3572.00,1.6276
3571.00,1.6417
3570.00,1.6559
3569.00,1.6710
3568.00,1.6872
3567.00,1.7042
3566.00,1.7215
3565.00,1.7385
3564.00,1.7549
3563.00,1.7707
3562.00,1.7860
3561.00,1.8010
3560.00,1.8158
3559.00,1.8304
3558.00,1.8449
3557.00,1.8588
3556.00,1.8721
3555.00,1.8849
3554.00,1.8976
3553.00,1.9104
3552.00,1.9231
3551.00,1.9353
3550.00,1.9467
3549.00,1.9575
3548.00,1.9678
3547.00,1.9778
3546.00,1.9873
3545.00,1.9964
3544.00,2.0053
3543.00,2.0143
3542.00,2.0232
3541.00,2.0318
3540.00,2.0393
3539.00,2.0457
3538.00,2.0514
3537.00,2.0568
3536.00,2.0622
3535.00,2.0675
3534.00,2.0731
3533.00,2.0793
3532.00,2.0856
3531.00,2.0910
3530.00,2.0947
3529.00,2.0970
3528.00,2.0986
3527.00,2.1001
3526.00,2.1017
3525.00,2.1033
3524.00,2.1046
3523.00,2.1057
3522.00,2.1065
3521.00,2.1072
3520.00,2.1077
3519.00,2.1084
3518.00,2.1090
3517.00,2.1096
3516.00,2.1096
3515.00,2.1090
3514.00,2.1075
3513.00,2.1052
3512.00,2.1023
3511.00,2.0986
3510.00,2.0946
3509.00,2.0907
3508.00,2.0868
3507.00,2.0828
3506.00,2.0785
3505.00,2.0738
3504.00,2.0689
3503.00,2.0637
3502.00,2.0580
3501.00,2.0519
3500.00,2.0452
3499.00,2.0382
3498.00,2.0309
3497.00,2.0233
3496.00,2.0155
3495.00,2.0073
3494.00,1.9986
3493.00,1.9896
3492.00,1.9802
3491.00,1.9705
3490.00,1.9602
3489.00,1.9494
3488.00,1.9383
3487.00,1.9270
3486.00,1.9157
3485.00,1.9043
3484.00,1.8924
3483.00,1.8800
3482.00,1.8671
3481.00,1.8541
3480.00,1.8413
3479.00,1.8286
3478.00,1.8156
3477.00,1.8020
3476.00,1.7876
3475.00,1.7728
3474.00,1.7582
3473.00,1.7441
3472.00,1.7304
3471.00,1.7167
3470.00,1.7030
3469.00,1.6895
3468.00,1.6762
3467.00,1.6635
3466.00,1.6513
3465.00,1.6396
3464.00,1.6283
3463.00,1.6172
3462.00,1.6065
3461.00,1.5965
3460.00,1.5877
3459.00,1.5800
3458.00,1.5733
3457.00,1.5676
3456.00,1.5627
3455.00,1.5587
3454.00,1.5557
3453.00,1.5538
3452.00,1.5529
3451.00,1.5532
3450.00,1.5547
3449.00,1.5574
3448.00,1.5612
3447.00,1.5660
3446.00,1.5717
3445.00,1.5786
3444.00,1.5865
3443.00,1.5955
3442.00,1.6053
3441.00,1.6159
3440.00,1.6271
3439.00,1.6389
3438.00,1.6512
3437.00,1.6642
3436.00,1.6779
3435.00,1.6923
3434.00,1.7073
3433.00,1.7226
3432.00,1.7380
3431.00,1.7535
3430.00,1.7692
3429.00,1.7851
3428.00,1.8011
3427.00,1.8171
3426.00,1.8330
3425.00,1.8488
3424.00,1.8646
3423.00,1.8801
3422.00,1.8951
3421.00,1.9094
3420.00,1.9234
3419.00,1.9372
3418.00,1.9507
3417.00,1.9639
3416.00,1.9767
3415.00,1.9890
3414.00,2.0009
3413.00,2.0120
3412.00,2.0224
3411.00,2.0322
3410.00,2.0416
3409.00,2.0508
3408.00,2.0593
3407.00,2.0668
3406.00,2.0734
3405.00,2.0795
3404.00,2.0854
3403.00,2.0912
3402.00,2.0964
3401.00,2.1011
3400.00,2.1051
3399.00,2.1086
3398.00,2.1119
3397.00,2.1149
3396.00,2.1175
3395.00,2.1198
3394.00,2.1221
3393.00,2.1245
3392.00,2.1266
3391.00,2.1283
3390.00,2.1295
3389.00,2.1303
3388.00,2.1308
3387.00,2.1312
3386.00,2.1315
3385.00,2.1318
3384.00,2.1320
3383.00,2.1318
3382.00,2.1310
3381.00,2.1295
3380.00,2.1275
3379.00,2.1251
3378.00,2.1223
3377.00,2.1189
3376.00,2.1150
3375.00,2.1106
3374.00,2.1060
3373.00,2.1012
3372.00,2.0961
3371.00,2.0904
3370.00,2.0841
3369.00,2.0776
3368.00,2.0708
3367.00,2.0635
3366.00,2.0554
3365.00,2.0465
3364.00,2.0368
3363.00,2.0267
3362.00,2.0164
3361.00,2.0059
3360.00,1.9951
3359.00,1.9837
3358.00,1.9715
3357.00,1.9586
3356.00,1.9451
3355.00,1.9310
3354.00,1.9165
3353.00,1.9014
3352.00,1.8859
3351.00,1.8700
3350.00,1.8536
3349.00,1.8367
3348.00,1.8192
3347.00,1.8014
3346.00,1.7834
3345.00,1.7652
3344.00,1.7467
3343.00,1.7278
3342.00,1.7086
3341.00,1.6891
3340.00,1.6695
3339.00,1.6498
3338.00,1.6303
3337.00,1.6112
3336.00,1.5925
3335.00,1.5741
3334.00,1.5562
3333.00,1.5388
3332.00,1.5222
3331.00,1.5067
3330.00,1.4923
3329.00,1.4791
3328.00,1.4671
3327.00,1.4564
3326.00,1.4471
3325.00,1.4394
3324.00,1.4335
3323.00,1.4292
3322.00,1.4266
3321.00,1.4257
3320.00,1.4265
3319.00,1.4290
3318.00,1.4332
3317.00,1.4390
3316.00,1.4464
3315.00,1.4554
3314.00,1.4660
3313.00,1.4780
3312.00,1.4912
3311.00,1.5054
3310.00,1.5205
3309.00,1.5365
3308.00,1.5534
3307.00,1.5711
3306.00,1.5895
3305.00,1.6085
3304.00,1.6277
3303.00,1.6471
3302.00,1.6665
3301.00,1.6861
3300.00,1.7058
3299.00,1.7255
3298.00,1.7452
3297.00,1.7648
3296.00,1.7841
3295.00,1.8032
3294.00,1.8221
3293.00,1.8406
3292.00,1.8586
3291.00,1.8761
3290.00,1.8928
3289.00,1.9090
3288.00,1.9248
3287.00,1.9402
3286.00,1.9553
3285.00,1.9696
3284.00,1.9833
3283.00,1.9964
3282.00,2.0091
3281.00,2.0215
3280.00,2.0336
3279.00,2.0455
3278.00,2.0568
3277.00,2.0672
3276.00,2.0765
3275.00,2.0850
3274.00,2.0932
3273.00,2.1013
3272.00,2.1091
3271.00,2.1165
3270.00,2.1233
3269.00,2.1295
3268.00,2.1348
3267.00,2.1394
3266.00,2.1436
3265.00,2.1480
3264.00,2.1527
3263.00,2.1572
3262.00,2.1611
3261.00,2.1640
3260.00,2.1657
3259.00,2.1664
3258.00,2.1668
3257.00,2.1676
3256.00,2.1690
3255.00,2.1705
3254.00,2.1710
3253.00,2.1702
3252.00,2.1682
3251.00,2.1657
3250.00,2.1632
3249.00,2.1609
3248.00,2.1585
3247.00,2.1553
3246.00,2.1511
3245.00,2.1462
3244.00,2.1409
3243.00,2.1354
3242.00,2.1296
3241.00,2.1233
3240.00,2.1167
3239.00,2.1099
3238.00,2.1028
3237.00,2.0949
3236.00,2.0860
3235.00,2.0761
3234.00,2.0658
3233.00,2.0555
3232.00,2.0451
3231.00,2.0343
3230.00,2.0228
3229.00,2.0106
3228.00,1.9979
3227.00,1.9849
3226.00,1.9716
3225.00,1.9579
3224.00,1.9436
3223.00,1.9287
3222.00,1.9132
3221.00,1.8974
3220.00,1.8813
3219.00,1.8650
3218.00,1.8484
3217.00,1.8315
3216.00,1.8143
3215.00,1.7967
3214.00,1.7790
3213.00,1.7613
3212.00,1.7438
3211.00,1.7263
3210.00,1.7089
3209.00,1.6915
3208.00,1.6741
3207.00,1.6572
3206.00,1.6409
3205.00,1.6257
3204.00,1.6114
3203.00,1.5979
3202.00,1.5853
3201.00,1.5738
3200.00,1.5635
3199.00,1.5545
3198.00,1.5467
3197.00,1.5400
3196.00,1.5347
3195.00,1.5308
3194.00,1.5285
3193.00,1.5279
3192.00,1.5291
3191.00,1.5319
3190.00,1.5364
3189.00,1.5423
3188.00,1.5497
3187.00,1.5584
3186.00,1.5684
3185.00,1.5797
3184.00,1.5920
3183.00,1.6054
3182.00,1.6196
3181.00,1.6347
3180.00,1.6505
3179.00,1.6670
3178.00,1.6841
3177.00,1.7018
3176.00,1.7199
3175.00,1.7383
3174.00,1.7566
3173.00,1.7749
3172.00,1.7933
3171.00,1.8120
3170.00,1.8308
3169.00,1.8492
3168.00,1.8670
3167.00,1.8842
3166.00,1.9011
3165.00,1.9177
3164.00,1.9342
3163.00,1.9504
3162.00,1.9662
3161.00,1.9814
3160.00,1.9962
3159.00,2.0110
3158.00,2.0258
3157.00,2.0406
3156.00,2.0547
3155.00,2.0678
3154.00,2.0799
3153.00,2.0914
3152.00,2.1023
3151.00,2.1126
3150.00,2.1218
3149.00,2.1299
3148.00,2.1375
3147.00,2.1448
3146.00,2.1521
3145.00,2.1591
3144.00,2.1662
3143.00,2.1734
3142.00,2.1806
3141.00,2.1875
3140.00,2.1938
3139.00,2.1997
3138.00,2.2050
3137.00,2.2094
3136.00,2.2129
3135.00,2.2159
3134.00,2.2187
3133.00,2.2215
3132.00,2.2238
3131.00,2.2253
3130.00,2.2262
3129.00,2.2267
3128.00,2.2267
3127.00,2.2261
3126.00,2.2249
3125.00,2.2236
3124.00,2.2224
3123.00,2.2209
3122.00,2.2186
3121.00,2.2151
3120.00,2.2106
3119.00,2.2056
3118.00,2.2005
3117.00,2.1954
3116.00,2.1900
3115.00,2.1839
3114.00,2.1771
3113.00,2.1695
3112.00,2.1610
3111.00,2.1515
3110.00,2.1414
3109.00,2.1308
3108.00,2.1198
3107.00,2.1083
3106.00,2.0965
3105.00,2.0845
3104.00,2.0722
3103.00,2.0595
3102.00,2.0463
3101.00,2.0324
3100.00,2.0175
3099.00,2.0016
3098.00,1.9845
3097.00,1.9666
3096.00,1.9482
3095.00,1.9295
3094.00,1.9104
3093.00,1.8910
3092.00,1.8710
3091.00,1.8505
3090.00,1.8300
3089.00,1.8097
3088.00,1.7898
3087.00,1.7702
3086.00,1.7506
3085.00,1.7311
3084.00,1.7118
3083.00,1.6932
3082.00,1.6753
3081.00,1.6585
3080.00,1.6429
3079.00,1.6285
3078.00,1.6155
3077.00,1.6042
3076.00,1.5948
3075.00,1.5875
3074.00,1.5823
3073.00,1.5791
3072.00,1.5781
3071.00,1.5793
3070.00,1.5828
3069.00,1.5886
3068.00,1.5965
3067.00,1.6063
3066.00,1.6178
3065.00,1.6310
3064.00,1.6460
3063.00,1.6624
3062.00,1.6800
3061.00,1.6988
3060.00,1.7186
3059.00,1.7394
3058.00,1.7607
3057.00,1.7823
3056.00,1.8040
3055.00,1.8259
3054.00,1.8476
3053.00,1.8693
3052.00,1.8909
3051.00,1.9125
3050.00,1.9340
3049.00,1.9553
3048.00,1.9763
3047.00,1.9970
3046.00,2.0173
3045.00,2.0372
3044.00,2.0567
3043.00,2.0757
3042.00,2.0940
3041.00,2.1113
3040.00,2.1278
3039.00,2.1439
3038.00,2.1593
3037.00,2.1737
3036.00,2.1873
3035.00,2.2006
3034.00,2.2136
3033.00,2.2261
3032.00,2.2374
3031.00,2.2478
3030.00,2.2574
3029.00,2.2663
3028.00,2.2745
3027.00,2.2816
3026.00,2.2878
3025.00,2.2933
3024.00,2.2983
3023.00,2.3033
3022.00,2.3079
3021.00,2.3115
3020.00,2.3136
3019.00,2.3137
3018.00,2.3119
3017.00,2.3091
3016.00,2.3059
3015.00,2.3027
3014.00,2.2993
3013.00,2.2948
3012.00,2.2890
3011.00,2.2816
3010.00,2.2728
3009.00,2.2629
3008.00,2.2520
3007.00,2.2404
3006.00,2.2279
3005.00,2.2142
3004.00,2.1990
3003.00,2.1822
3002.00,2.1642
3001.00,2.1456
3000.00,2.1268
2999.00,2.1078
2998.00,2.0885
2997.00,2.0691
2996.00,2.0501
2995.00,2.0324
2994.00,2.0169
2993.00,2.0043
2992.00,1.9951
2991.00,1.9900
2990.00,1.9899
2989.00,1.9955
2988.00,2.0077
2987.00,2.0269
2986.00,2.0529
2985.00,2.0855
2984.00,2.1240
2983.00,2.1679
2982.00,2.2165
2981.00,2.2690
2980.00,2.3245
2979.00,2.3819
2978.00,2.4404
2977.00,2.4998
2976.00,2.5610
2975.00,2.6251
2974.00,2.6924
2973.00,2.7621
2972.00,2.8332
2971.00,2.9063
2970.00,2.9836
2969.00,3.0666
2968.00,3.1536
2967.00,3.2401
2966.00,3.3228
2965.00,3.4019
2964.00,3.4802
2963.00,3.5587
2962.00,3.6323
2961.00,3.6908
2960.00,3.7256
2959.00,3.7366
2958.00,3.7293
2957.00,3.7099
2956.00,3.6893
2955.00,3.6827
2954.00,3.7006
2953.00,3.7382
2952.00,3.7783
2951.00,3.8076
2950.00,3.8310
2949.00,3.8617
2948.00,3.9026
2947.00,3.9434
2946.00,3.9733
2945.00,3.9963
2944.00,4.0267
2943.00,4.0613
2942.00,4.0751
2941.00,4.0643
2940.00,4.0510
2939.00,4.0535
2938.00,4.0745
2937.00,4.1134
2936.00,4.1673
2935.00,4.2254
2934.00,4.2924
2933.00,4.3790
2932.00,4.4437
2931.00,4.4414
2930.00,4.4110
2929.00,4.4094
2928.00,4.4342
2927.00,4.4499
2926.00,4.4276
2925.00,4.3224
2924.00,4.1665
2923.00,4.0338
2922.00,3.9525
2921.00,3.9059
2920.00,3.8609
2919.00,3.8017
2918.00,3.7321
2917.00,3.6588
2916.00,3.5825
2915.00,3.5056
2914.00,3.4356
2913.00,3.3776
2912.00,3.3289
2911.00,3.2835
2910.00,3.2392
2909.00,3.1996
2908.00,3.1691
2907.00,3.1473
2906.00,3.1284
2905.00,3.1049
2904.00,3.0748
2903.00,3.0424
2902.00,3.0129
2901.00,2.9878
2900.00,2.9652
2899.00,2.9423
2898.00,2.9175
2897.00,2.8908
2896.00,2.8639
2895.00,2.8391
2894.00,2.8177
2893.00,2.7993
2892.00,2.7826
2891.00,2.7677
2890.00,2.7555
2889.00,2.7473
2888.00,2.7430
2887.00,2.7418
2886.00,2.7433
2885.00,2.7481
2884.00,2.7577
2883.00,2.7729
2882.00,2.7935
2881.00,2.8176
2880.00,2.8439
2879.00,2.8735
2878.00,2.9084
2877.00,2.9501
2876.00,2.9994
2875.00,3.0574
2874.00,3.1248
2873.00,3.1993
2872.00,3.2746
2871.00,3.3464
2870.00,3.4166
2869.00,3.4888
2868.00,3.5626
2867.00,3.6370
2866.00,3.7126
2865.00,3.7852
2864.00,3.8425
2863.00,3.8719
2862.00,3.8661
2861.00,3.8207
2860.00,3.7398
2859.00,3.6436
2858.00,3.5513
2857.00,3.4658
2856.00,3.3748
2855.00,3.2681
2854.00,3.1513
2853.00,3.0374
2852.00,2.9344
2851.00,2.8417
2850.00,2.7548
2849.00,2.6700
2848.00,2.5866
2847.00,2.5069
2846.00,2.4330
2845.00,2.3663
2844.00,2.3074
2843.00,2.2569
2842.00,2.2157
2841.00,2.1841
2840.00,2.1622
2839.00,2.1491
2838.00,2.1434
2837.00,2.1438
2836.00,2.1490
2835.00,2.1582
2834.00,2.1706
2833.00,2.1854
2832.00,2.2014
2831.00,2.2177
2830.00,2.2337
2829.00,2.2489
2828.00,2.2630
2827.00,2.2761
2826.00,2.2884
2825.00,2.2999
2824.00,2.3100
2823.00,2.3185
2822.00,2.3260
2821.00,2.3338
2820.00,2.3420
2819.00,2.3505
2818.00,2.3587
2817.00,2.3667
2816.00,2.3749
2815.00,2.3831
2814.00,2.3908
2813.00,2.3974
2812.00,2.4021
2811.00,2.4050
2810.00,2.4066
2809.00,2.4080
2808.00,2.4099
2807.00,2.4118
2806.00,2.4126
2805.00,2.4116
2804.00,2.4090
2803.00,2.4057
2802.00,2.4025
2801.00,2.3993
2800.00,2.3954
2799.00,2.3905
2798.00,2.3852
2797.00,2.3800
2796.00,2.3746
2795.00,2.3678
2794.00,2.3587
2793.00,2.3471
2792.00,2.3333
2791.00,2.3183
2790.00,2.3026
2789.00,2.2863
2788.00,2.2696
2787.00,2.2525
2786.00,2.2348
2785.00,2.2160
2784.00,2.1956
2783.00,2.1737
2782.00,2.1507
2781.00,2.1270
2780.00,2.1023
2779.00,2.0762
2778.00,2.0484
2777.00,2.0190
2776.00,1.9883
2775.00,1.9566
2774.00,1.9237
2773.00,1.8897
2772.00,1.8545
2771.00,1.8183
2770.00,1.7816
2769.00,1.7447
2768.00,1.7083
2767.00,1.6724
2766.00,1.6372
2765.00,1.6030
2764.00,1.5704
2763.00,1.5398
2762.00,1.5116
2761.00,1.4857
2760.00,1.4622
2759.00,1.4412
2758.00,1.4231
2757.00,1.4086
2756.00,1.3983
2755.00,1.3927
2754.00,1.3921
2753.00,1.3965
2752.00,1.4059
2751.00,1.4201
2750.00,1.4389
2749.00,1.4616
2748.00,1.4877
2747.00,1.5164
2746.00,1.5471
2745.00,1.5797
2744.00,1.6137
2743.00,1.6486
2742.00,1.6841
2741.00,1.7199
2740.00,1.7556
2739.00,1.7912
2738.00,1.8264
2737.00,1.8610
2736.00,1.8950
2735.00,1.9280
2734.00,1.9599
2733.00,1.9905
2732.00,2.0196
2731.00,2.0475
2730.00,2.0742
2729.00,2.1001
2728.00,2.1248
2727.00,2.1481
2726.00,2.1697
2725.00,2.1903
2724.00,2.2104
2723.00,2.2302
2722.00,2.2491
2721.00,2.2666
2720.00,2.2825
2719.00,2.2972
2718.00,2.3113
2717.00,2.3246
2716.00,2.3370
2715.00,2.3483
2714.00,2.3589
2713.00,2.3691
2712.00,2.3786
2711.00,2.3871
2710.00,2.3948
2709.00,2.4021
2708.00,2.4094
2707.00,2.4165
2706.00,2.4230
2705.00,2.4286
2704.00,2.4336
2703.00,2.4380
2702.00,2.4420
2701.00,2.4456
2700.00,2.4485
2699.00,2.4503
2698.00,2.4506
2697.00,2.4499
2696.00,2.4489
2695.00,2.4483
2694.00,2.4478
2693.00,2.4466
2692.00,2.4440
2691.00,2.4398
2690.00,2.4350
2689.00,2.4301
2688.00,2.4253
2687.00,2.4204
2686.00,2.4153
2685.00,2.4098
2684.00,2.4037
2683.00,2.3968
2682.00,2.3890
2681.00,2.3809
2680.00,2.3729
2679.00,2.3654
2678.00,2.3581
2677.00,2.3504
2676.00,2.3418
2675.00,2.3324
2674.00,2.3227
2673.00,2.3128
2672.00,2.3023
2671.00,2.2908
2670.00,2.2779
2669.00,2.2640
2668.00,2.2492
2667.00,2.2336
2666.00,2.2167
2665.00,2.1982
2664.00,2.1776
2663.00,2.1549
2662.00,2.1303
2661.00,2.1041
2660.00,2.0767
2659.00,2.0484
2658.00,2.0193
2657.00,1.9898
2656.00,1.9597
2655.00,1.9292
2654.00,1.8982
2653.00,1.8670
2652.00,1.8355
2651.00,1.8037
2650.00,1.7715
2649.00,1.7390
2648.00,1.7063
2647.00,1.6736
2646.00,1.6409
2645.00,1.6085
2644.00,1.5763
2643.00,1.5447
2642.00,1.5145
2641.00,1.4864
2640.00,1.4612
2639.00,1.4394
2638.00,1.4217
2637.00,1.4085
2636.00,1.4002
2635.00,1.3970
2634.00,1.3990
2633.00,1.4060
2632.00,1.4178
2631.00,1.4341
2630.00,1.4546
2629.00,1.4787
2628.00,1.5062
2627.00,1.5363
2626.00,1.5685
2625.00,1.6022
2624.00,1.6371
2623.00,1.6727
2622.00,1.7085
2621.00,1.7442
2620.00,1.7796
2619.00,1.8143
2618.00,1.8483
2617.00,1.8817
2616.00,1.9144
2615.00,1.9460
2614.00,1.9764
2613.00,2.0056
2612.00,2.0338
2611.00,2.0611
2610.00,2.0872
2609.00,2.1122
2608.00,2.1364
2607.00,2.1597
2606.00,2.1819
2605.00,2.2031
2604.00,2.2236
2603.00,2.2434
2602.00,2.2626
2601.00,2.2807
2600.00,2.2977
2599.00,2.3138
2598.00,2.3293
2597.00,2.3446
2596.00,2.3601
2595.00,2.3758
2594.00,2.3911
2593.00,2.4053
2592.00,2.4178
2591.00,2.4288
2590.00,2.4389
2589.00,2.4486
2588.00,2.4581
2587.00,2.4674
2586.00,2.4759
2585.00,2.4833
2584.00,2.4894
2583.00,2.4949
2582.00,2.5004
2581.00,2.5062
2580.00,2.5121
2579.00,2.5179
2578.00,2.5229
2577.00,2.5269
2576.00,2.5293
2575.00,2.5307
2574.00,2.5316
2573.00,2.5327
2572.00,2.5337
2571.00,2.5344
2570.00,2.5348
2569.00,2.5350
2568.00,2.5347
2567.00,2.5327
2566.00,2.5285
2565.00,2.5230
2564.00,2.5180
2563.00,2.5143
2562.00,2.5108
2561.00,2.5065
2560.00,2.5010
2559.00,2.4944
2558.00,2.4869
2557.00,2.4783
2556.00,2.4689
2555.00,2.4595
2554.00,2.4506
2553.00,2.4417
2552.00,2.4320
2551.00,2.4207
2550.00,2.4080
2549.00,2.3947
2548.00,2.3811
2547.00,2.3672
2546.00,2.3530
2545.00,2.3387
2544.00,2.3238
2543.00,2.3076
2542.00,2.2898
2541.00,2.2707
2540.00,2.2506
2539.00,2.2298
2538.00,2.2076
2537.00,2.1839
2536.00,2.1586
2535.00,2.1324
2534.00,2.1057
2533.00,2.0783
2532.00,2.0498
2531.00,2.0197
2530.00,1.9877
2529.00,1.9538
2528.00,1.9184
2527.00,1.8817
2526.00,1.8440
2525.00,1.8054
2524.00,1.7661
2523.00,1.7262
2522.00,1.6855
2521.00,1.6445
2520.00,1.6036
2519.00,1.5633
2518.00,1.5244
2517.00,1.4872
2516.00,1.4526
2515.00,1.4211
2514.00,1.3933
2513.00,1.3696
2512.00,1.3507
2511.00,1.3368
2510.00,1.3284
2509.00,1.3258
2508.00,1.3289
2507.00,1.3378
2506.00,1.3519
2505.00,1.3711
2504.00,1.3947
2503.00,1.4224
2502.00,1.4534
2501.00,1.4874
2500.00,1.5237
2499.00,1.5619
2498.00,1.6014
2497.00,1.6419
2496.00,1.6831
2495.00,1.7247
2494.00,1.7661
2493.00,1.8070
2492.00,1.8470
2491.00,1.8861
2490.00,1.9243
2489.00,1.9617
2488.00,1.9981
2487.00,2.0331
2486.00,2.0664
2485.00,2.0983
2484.00,2.1291
2483.00,2.1588
2482.00,2.1872
2481.00,2.2139
2480.00,2.2392
2479.00,2.2633
2478.00,2.2864
2477.00,2.3085
2476.00,2.3291
2475.00,2.3483
2474.00,2.3667
2473.00,2.3847
2472.00,2.4025
2471.00,2.4196
2470.00,2.4358
2469.00,2.4508
2468.00,2.4642
2467.00,2.4761
2466.00,2.4873
2465.00,2.4990
2464.00,2.5118
2463.00,2.5248
2462.00,2.5366
2461.00,2.5466
2460.00,2.5551
2459.00,2.5627
2458.00,2.5690
2457.00,2.5738
2456.00,2.5775
2455.00,2.5813
2454.00,2.5860
2453.00,2.5915
2452.00,2.5971
2451.00,2.6018
2450.00,2.6051
2449.00,2.6070
2448.00,2.6082
2447.00,2.6090
2446.00,2.6092
2445.00,2.6089
2444.00,2.6082
2443.00,2.6074
2442.00,2.6064
2441.00,2.6047
2440.00,2.6025
2439.00,2.6003
2438.00,2.5981
2437.00,2.5955
2436.00,2.5920
2435.00,2.5874
2434.00,2.5819
2433.00,2.5762
2432.00,2.5706
2431.00,2.5652
2430.00,2.5594
2429.00,2.5527
2428.00,2.5446
2427.00,2.5355
2426.00,2.5259
2425.00,2.5162
2424.00,2.5064
2423.00,2.4961
2422.00,2.4851
2421.00,2.4727
2420.00,2.4588
2419.00,2.4437
2418.00,2.4277
2417.00,2.4110
2416.00,2.3936
2415.00,2.3750
2414.00,2.3550
2413.00,2.3337
2412.00,2.3114
2411.00,2.2881
2410.00,2.2638
2409.00,2.2382
2408.00,2.2116
2407.00,2.1839
2406.00,2.1549
2405.00,2.1242
2404.00,2.0911
2403.00,2.0553
2402.00,2.0171
2401.00,1.9767
2400.00,1.9348
2399.00,1.8917
2398.00,1.8472
2397.00,1.8015
2396.00,1.7549
2395.00,1.7077
2394.00,1.6607
2393.00,1.6148
2392.00,1.5713
2391.00,1.5315
2390.00,1.4969
2389.00,1.4688
2388.00,1.4483
2387.00,1.4362
2386.00,1.4327
2385.00,1.4375
2384.00,1.4494
2383.00,1.4662
2382.00,1.4850
2381.00,1.5026
2380.00,1.5162
2379.00,1.5243
2378.00,1.5268
2377.00,1.5243
2376.00,1.5189
2375.00,1.5130
2374.00,1.5098
2373.00,1.5108
2372.00,1.5155
2371.00,1.5233
2370.00,1.5345
2369.00,1.5472
2368.00,1.5588
2367.00,1.5709
2366.00,1.5836
2365.00,1.5965
2364.00,1.6038
2363.00,1.6231
2362.00,1.6275
2361.00,1.6783
2360.00,2.1773
2359.00,2.1424
2358.00,2.2033
2357.00,2.2169
2356.00,2.2554
2355.00,2.2776
2354.00,2.3071
2353.00,2.3316
2352.00,2.3557
2351.00,2.3783
2350.00,2.3999
2349.00,2.4208
2348.00,2.4409
2347.00,2.4605
2346.00,2.4796
2345.00,2.4982
2344.00,2.5160
2343.00,2.5333
2342.00,2.5501
2341.00,2.5655
2340.00,2.5781
2339.00,2.5882
2338.00,2.5980
2337.00,2.6092
2336.00,2.6222
2335.00,2.6348
2334.00,2.6450
2333.00,2.6520
2332.00,2.6571
2331.00,2.6617
2330.00,2.6665
2329.00,2.6712
2328.00,2.6757
2327.00,2.6804
2326.00,2.6857
2325.00,2.6911
2324.00,2.6963
2323.00,2.6998
2322.00,2.7030
2321.00,2.7026
2320.00,2.7051
2319.00,2.7001
2318.00,2.7129
2317.00,2.8799
2316.00,2.8843
2315.00,2.9097
2314.00,2.9181
2313.00,2.9269
2312.00,2.9246
2311.00,2.9236
2310.00,2.9177
2309.00,2.9112
2308.00,2.8987
2307.00,2.8843
2306.00,2.8665
2305.00,2.8497
2304.00,2.8312
2303.00,2.8129
2302.00,2.7909
2301.00,2.7681
2300.00,2.7433
2299.00,2.7204
2298.00,2.6976
2297.00,2.6766
2296.00,2.6554
2295.00,2.6350
2294.00,2.6144
2293.00,2.5942
2292.00,2.5745
2291.00,2.5561
2290.00,2.5382
2289.00,2.5194
2288.00,2.4992
2287.00,2.4778
2286.00,2.4563
2285.00,2.4339
2284.00,2.4101
2283.00,2.3839
2282.00,2.3551
2281.00,2.3240
2280.00,2.2910
2279.00,2.2570
2278.00,2.2222
2277.00,2.1870
2276.00,2.1511
2275.00,2.1143
2274.00,2.0758
2273.00,2.0358
2272.00,1.9942
2271.00,1.9511
2270.00,1.9067
2269.00,1.8607
2268.00,1.8129
2267.00,1.7639
2266.00,1.7142
2265.00,1.6650
2264.00,1.6170
2263.00,1.5711
2262.00,1.5283
2261.00,1.4894
2260.00,1.4556
2259.00,1.4276
2258.00,1.4060
2257.00,1.3914
2256.00,1.3843
2255.00,1.3849
2254.00,1.3923
2253.00,1.4055
2252.00,1.4229
2251.00,1.4438
2250.00,1.4677
2249.00,1.4951
2248.00,1.5265
2247.00,1.5618
2246.00,1.6007
2245.00,1.6423
2244.00,1.6860
2243.00,1.7312
2242.00,1.7774
2241.00,1.8239
2240.00,1.8704
2239.00,1.9165
2238.00,1.9617
2237.00,2.0061
2236.00,2.0492
2235.00,2.0909
2234.00,2.1308
2233.00,2.1688
2232.00,2.2047
2231.00,2.2387
2230.00,2.2713
2229.00,2.3026
2228.00,2.3326
2227.00,2.3611
2226.00,2.3877
2225.00,2.4126
2224.00,2.4365
2223.00,2.4601
2222.00,2.4840
2221.00,2.5073
2220.00,2.5287
2219.00,2.5482
2218.00,2.5667
2217.00,2.5851
2216.00,2.6028
2215.00,2.6184
2214.00,2.6312
2213.00,2.6415
2212.00,2.6511
2211.00,2.6617
2210.00,2.6742
2209.00,2.6873
2208.00,2.6989
2207.00,2.7085
2206.00,2.7170
2205.00,2.7253
2204.00,2.7327
2203.00,2.7381
2202.00,2.7421
2201.00,2.7469
2200.00,2.7543
2199.00,2.7644
2198.00,2.7750
2197.00,2.7837
2196.00,2.7891
2195.00,2.7917
2194.00,2.7926
2193.00,2.7926
2192.00,2.7920
2191.00,2.7910
2190.00,2.7904
2189.00,2.7904
2188.00,2.7906
2187.00,2.7905
2186.00,2.7900
2185.00,2.7896
2184.00,2.7890
2183.00,2.7877
2182.00,2.7851
2181.00,2.7807
2180.00,2.7748
2179.00,2.7681
2178.00,2.7615
2177.00,2.7552
2176.00,2.7494
2175.00,2.7441
2174.00,2.7389
2173.00,2.7330
2172.00,2.7260
2171.00,2.7185
2170.00,2.7108
2169.00,2.7026
2168.00,2.6927
2167.00,2.6805
2166.00,2.6668
2165.00,2.6521
2164.00,2.6365
2163.00,2.6195
2162.00,2.6015
2161.00,2.5837
2160.00,2.5665
2159.00,2.5492
2158.00,2.5305
2157.00,2.5092
2156.00,2.4855
2155.00,2.4604
2154.00,2.4350
2153.00,2.4094
2152.00,2.3830
2151.00,2.3548
2150.00,2.3243
2149.00,2.2912
2148.00,2.2558
2147.00,2.2188
2146.00,2.1807
2145.00,2.1411
2144.00,2.0995
2143.00,2.0555
2142.00,2.0093
2141.00,1.9612
2140.00,1.9118
2139.00,1.8616
2138.00,1.8115
2137.00,1.7623
2136.00,1.7148
2135.00,1.6694
2134.00,1.6268
2133.00,1.5875
2132.00,1.5520
2131.00,1.5208
2130.00,1.4945
2129.00,1.4740
2128.00,1.4599
2127.00,1.4529
2126.00,1.4534
2125.00,1.4618
2124.00,1.4780
2123.00,1.5014
2122.00,1.5314
2121.00,1.5668
2120.00,1.6068
2119.00,1.6503
2118.00,1.6964
2117.00,1.7442
2116.00,1.7932
2115.00,1.8429
2114.00,1.8929
2113.00,1.9425
2112.00,1.9912
2111.00,2.0390
2110.00,2.0860
2109.00,2.1319
2108.00,2.1762
2107.00,2.2184
2106.00,2.2582
2105.00,2.2958
2104.00,2.3315
2103.00,2.3652
2102.00,2.3967
2101.00,2.4259
2100.00,2.4534
2099.00,2.4799
2098.00,2.5062
2097.00,2.5326
2096.00,2.5586
2095.00,2.5832
2094.00,2.6054
2093.00,2.6252
2092.00,2.6431
2091.00,2.6598
2090.00,2.6757
2089.00,2.6909
2088.00,2.7059
2087.00,2.7208
2086.00,2.7346
2085.00,2.7466
2084.00,2.7571
2083.00,2.7676
2082.00,2.7792
2081.00,2.7919
2080.00,2.8049
2079.00,2.8179
2078.00,2.8310
2077.00,2.8430
2076.00,2.8520
2075.00,2.8576
2074.00,2.8612
2073.00,2.8648
2072.00,2.8689
2071.00,2.8730
2070.00,2.8773
2069.00,2.8823
2068.00,2.8877
2067.00,2.8924
2066.00,2.8963
2065.00,2.9000
2064.00,2.9037
2063.00,2.9056
2062.00,2.9045
2061.00,2.9011
2060.00,2.8975
2059.00,2.8951
2058.00,2.8930
2057.00,2.8903
2056.00,2.8870
2055.00,2.8836
2054.00,2.8803
2053.00,2.8769
2052.00,2.8729
2051.00,2.8670
2050.00,2.8582
2049.00,2.8479
2048.00,2.8390
2047.00,2.8332
2046.00,2.8282
2045.00,2.8208
2044.00,2.8102
2043.00,2.7983
2042.00,2.7867
2041.00,2.7746
2040.00,2.7612
2039.00,2.7474
2038.00,2.7344
2037.00,2.7216
2036.00,2.7074
2035.00,2.6911
2034.00,2.6732
2033.00,2.6550
2032.00,2.6368
2031.00,2.6178
2030.00,2.5966
2029.00,2.5726
2028.00,2.5465
2027.00,2.5196
2026.00,2.4926
2025.00,2.4645
2024.00,2.4343
2023.00,2.4018
2022.00,2.3670
2021.00,2.3300
2020.00,2.2905
2019.00,2.2485
2018.00,2.2046
2017.00,2.1596
2016.00,2.1139
2015.00,2.0669
2014.00,2.0178
2013.00,1.9666
2012.00,1.9139
2011.00,1.8605
2010.00,1.8076
2009.00,1.7562
2008.00,1.7072
2007.00,1.6617
2006.00,1.6207
2005.00,1.5850
2004.00,1.5558
2003.00,1.5339
2002.00,1.5201
2001.00,1.5149
2000.00,1.5188
1999.00,1.5317
1998.00,1.5533
1997.00,1.5826
1996.00,1.6180
1995.00,1.6580
1994.00,1.7016
1993.00,1.7488
1992.00,1.7999
1991.00,1.8545
1990.00,1.9108
1989.00,1.9675
1988.00,2.0237
1987.00,2.0789
1986.00,2.1322
1985.00,2.1829
1984.00,2.2306
1983.00,2.2755
1982.00,2.3185
1981.00,2.3596
1980.00,2.3981
1979.00,2.4336
1978.00,2.4664
1977.00,2.4977
1976.00,2.5281
1975.00,2.5574
1974.00,2.5850
1973.00,2.6107
1972.00,2.6350
1971.00,2.6576
1970.00,2.6783
1969.00,2.6965
1968.00,2.7126
1967.00,2.7285
1966.00,2.7464
1965.00,2.7671
1964.00,2.7891
1963.00,2.8093
1962.00,2.8258
1961.00,2.8395
1960.00,2.8519
1959.00,2.8636
1958.00,2.8740
1957.00,2.8830
1956.00,2.8922
1955.00,2.9030
1954.00,2.9155
1953.00,2.9284
1952.00,2.9395
1951.00,2.9478
1950.00,2.9540
1949.00,2.9595
1948.00,2.9641
1947.00,2.9665
1946.00,2.9665
1945.00,2.9664
1944.00,2.9689
1943.00,2.9744
1942.00,2.9808
1941.00,2.9861
1940.00,2.9895
1939.00,2.9913
1938.00,2.9920
1937.00,2.9923
1936.00,2.9933
1935.00,2.9944
1934.00,2.9940
1933.00,2.9910
1932.00,2.9860
1931.00,2.9804
1930.00,2.9755
1929.00,2.9717
1928.00,2.9678
1927.00,2.9615
1926.00,2.9505
1925.00,2.9359
1924.00,2.9211
1923.00,2.9090
1922.00,2.9000
1921.00,2.8924
1920.00,2.8843
1919.00,2.8734
1918.00,2.8591
1917.00,2.8440
1916.00,2.8313
1915.00,2.8205
1914.00,2.8080
1913.00,2.7909
1912.00,2.7700
1911.00,2.7474
1910.00,2.7242
1909.00,2.7008
1908.00,2.6781
1907.00,2.6560
1906.00,2.6327
1905.00,2.6066
1904.00,2.5776
1903.00,2.5460
1902.00,2.5121
1901.00,2.4756
1900.00,2.4365
1899.00,2.3947
1898.00,2.3496
1897.00,2.3009
1896.00,2.2492
1895.00,2.1953
1894.00,2.1402
1893.00,2.0841
1892.00,2.0264
1891.00,1.9660
1890.00,1.9043
1889.00,1.8456
1888.00,1.7938
1887.00,1.7500
1886.00,1.7142
1885.00,1.6862
1884.00,1.6671
1883.00,1.6576
1882.00,1.6576
1881.00,1.6670
1880.00,1.6856
1879.00,1.7130
1878.00,1.7481
1877.00,1.7894
1876.00,1.8351
1875.00,1.8832
1874.00,1.9325
1873.00,1.9826
1872.00,2.0329
1871.00,2.0811
1870.00,2.1249
1869.00,2.1665
1868.00,2.2107
1867.00,2.2591
1866.00,2.3094
1865.00,2.3588
1864.00,2.4056
1863.00,2.4495
1862.00,2.4914
1861.00,2.5318
1860.00,2.5702
1859.00,2.6060
1858.00,2.6395
1857.00,2.6718
1856.00,2.7038
1855.00,2.7347
1854.00,2.7637
1853.00,2.7893
1852.00,2.8116
1851.00,2.8316
1850.00,2.8500
1849.00,2.8674
1848.00,2.8846
1847.00,2.9023
1846.00,2.9184
1845.00,2.9300
1844.00,2.9379
1843.00,2.9482
1842.00,2.9649
1841.00,2.9852
1840.00,3.0044
1839.00,3.0204
1838.00,3.0339
1837.00,3.0456
1836.00,3.0550
1835.00,3.0631
1834.00,3.0721
1833.00,3.0817
1832.00,3.0878
1831.00,3.0865
1830.00,3.0803
1829.00,3.0759
1828.00,3.0759
1827.00,3.0780
1826.00,3.0779
1825.00,3.0740
1824.00,3.0698
1823.00,3.0690
1822.00,3.0713
1821.00,3.0715
1820.00,3.0653
1819.00,3.0538
1818.00,3.0414
1817.00,3.0317
1816.00,3.0239
1815.00,3.0156
1814.00,3.0052
1813.00,2.9936
1812.00,2.9829
1811.00,2.9745
1810.00,2.9670
1809.00,2.9577
1808.00,2.9458
1807.00,2.9326
1806.00,2.9183
1805.00,2.9016
1804.00,2.8804
1803.00,2.8543
1802.00,2.8240
1801.00,2.7904
1800.00,2.7540
1799.00,2.7139
1798.00,2.6698
1797.00,2.6233
1796.00,2.5774
1795.00,2.5319
1794.00,2.4807
1793.00,2.4178
1792.00,2.3476
1791.00,2.2822
1790.00,2.2293
1789.00,2.1887
1788.00,2.1575
1787.00,2.1343
1786.00,2.1211
1785.00,2.1216
1784.00,2.1387
1783.00,2.1721
1782.00,2.2186
1781.00,2.2755
1780.00,2.3416
1779.00,2.4139
1778.00,2.4880
1777.00,2.5607
1776.00,2.6317
1775.00,2.7013
1774.00,2.7677
1773.00,2.8279
1772.00,2.8831
1771.00,2.9354
1770.00,2.9828
1769.00,3.0232
1768.00,3.0562
1767.00,3.0840
1766.00,3.1125
1765.00,3.1467
1764.00,3.1838
1763.00,3.2165
1762.00,3.2406
1761.00,3.2590
1760.00,3.2750
1759.00,3.2896
1758.00,3.3043
1757.00,3.3227
1756.00,3.3465
1755.00,3.3724
1754.00,3.3939
1753.00,3.4076
1752.00,3.4148
1751.00,3.4218
1750.00,3.4383
1749.00,3.4685
1748.00,3.5052
1747.00,3.5354
1746.00,3.5541
1745.00,3.5740
1744.00,3.6134
1743.00,3.6804
1742.00,3.7722
1741.00,3.8821
1740.00,4.0015
1739.00,4.1164
1738.00,4.1959
1737.00,4.2049
1736.00,4.1645
1735.00,4.1160
1734.00,4.0814
1733.00,4.0822
1732.00,4.1231
1731.00,4.1974
1730.00,4.3188
1729.00,4.4975
1728.00,4.6600
1727.00,4.9628
1726.00,5.0898
1725.00,4.5188
1724.00,4.3449
1723.00,4.3462
1722.00,4.5066
1721.00,4.6640
1720.00,4.5656
1719.00,4.5579
1718.00,4.9551
1717.00,4.9145
1716.00,4.5111
1715.00,4.4772
1714.00,4.5421
1713.00,4.6959
1712.00,4.7919
1711.00,4.5477
1710.00,4.3794
1709.00,4.3561
1708.00,4.4032
1707.00,4.4614
1706.00,4.5273
1705.00,4.7246
1704.00,5.2145
1703.00,4.7555
1702.00,4.4812
1701.00,4.4139
1700.00,4.3905
1699.00,4.3568
1698.00,4.3346
1697.00,4.3697
1696.00,4.4387
1695.00,4.4507
1694.00,4.3568
1693.00,4.2331
1692.00,4.1306
1691.00,4.0441
1690.00,3.9583
1689.00,3.8718
1688.00,3.7938
1687.00,3.7249
1686.00,3.6544
1685.00,3.5759
1684.00,3.5141
1683.00,3.4899
1682.00,3.4864
1681.00,3.4822
1680.00,3.4779
1679.00,3.4860
1678.00,3.5060
1677.00,3.5182
1676.00,3.5010
1675.00,3.4562
1674.00,3.4077
1673.00,3.3716
1672.00,3.3441
1671.00,3.3114
1670.00,3.2645
1669.00,3.2055
1668.00,3.1433
1667.00,3.0857
1666.00,3.0341
1665.00,2.9829
1664.00,2.9234
1663.00,2.8532
1662.00,2.7813
1661.00,2.7188
1660.00,2.6708
1659.00,2.6367
1658.00,2.6148
1657.00,2.6035
1656.00,2.6027
1655.00,2.6092
1654.00,2.6140
1653.00,2.6222
1652.00,2.6466
1651.00,2.6933
1650.00,2.7517
1649.00,2.8003
1648.00,2.8322
1647.00,2.8590
1646.00,2.8911
1645.00,2.9269
1644.00,2.9636
1643.00,2.9992
1642.00,3.0310
1641.00,3.0572
1640.00,3.0776
1639.00,3.0934
1638.00,3.1069
1637.00,3.1185
1636.00,3.1294
1635.00,3.1397
1634.00,3.1498
1633.00,3.1638
1632.00,3.1807
1631.00,3.1958
1630.00,3.2065
1629.00,3.2127
1628.00,3.2185
1627.00,3.2279
1626.00,3.2399
1625.00,3.2490
1624.00,3.2521
1623.00,3.2534
1622.00,3.2569
1621.00,3.2605
1620.00,3.2612
1619.00,3.2589
1618.00,3.2528
1617.00,3.2421
1616.00,3.2323
1615.00,3.2308
1614.00,3.2369
1613.00,3.2426
1612.00,3.2415
1611.00,3.2348
1610.00,3.2257
1609.00,3.2148
1608.00,3.2035
1607.00,3.1955
1606.00,3.1915
1605.00,3.1860
1604.00,3.1745
1603.00,3.1571
1602.00,3.1364
1601.00,3.1148
1600.00,3.0952
1599.00,3.0795
1598.00,3.0650
1597.00,3.0465
1596.00,3.0239
1595.00,3.0021
1594.00,2.9833
1593.00,2.9627
1592.00,2.9360
1591.00,2.9045
1590.00,2.8716
1589.00,2.8377
1588.00,2.8017
1587.00,2.7631
1586.00,2.7215
1585.00,2.6754
1584.00,2.6244
1583.00,2.5692
1582.00,2.5094
1581.00,2.4447
1580.00,2.3772
1579.00,2.3077
1578.00,2.2334
1577.00,2.1515
1576.00,2.0697
1575.00,2.0034
1574.00,1.9614
1573.00,1.9392
1572.00,1.9272
1571.00,1.9181
1570.00,1.9118
1569.00,1.9164
1568.00,1.9374
1567.00,1.9746
1566.00,2.0237
1565.00,2.0789
1564.00,2.1362
1563.00,2.1957
1562.00,2.2591
1561.00,2.3269
1560.00,2.3770
1559.00,2.4206
1558.00,2.4830
1557.00,2.5466
1556.00,2.6031
1555.00,2.6545
1554.00,2.7017
1553.00,2.7466
1552.00,2.7873
1551.00,2.8229
1550.00,2.8577
1549.00,2.8967
1548.00,2.9364
1547.00,2.9689
1546.00,2.9897
1545.00,3.0035
1544.00,3.0209
1543.00,3.0441
1542.00,3.0635
1541.00,3.0718
1540.00,3.0801
1539.00,3.0976
1538.00,3.1267
1537.00,3.1681
1536.00,3.2089
1535.00,3.2345
1534.00,3.2427
1533.00,3.2452
1532.00,3.2521
1531.00,3.2628
1530.00,3.2764
1529.00,3.2903
1528.00,3.2981
1527.00,3.2956
1526.00,3.2874
1525.00,3.2828
1524.00,3.2850
1523.00,3.2894
1522.00,3.2927
1521.00,3.2981
1520.00,3.3049
1519.00,3.3070
1518.00,3.3006
1517.00,3.2900
1516.00,3.2838
1515.00,3.2848
1514.00,3.2893
1513.00,3.2918
1512.00,3.2880
1511.00,3.2801
1510.00,3.2707
1509.00,3.2589
1508.00,3.2409
1507.00,3.2326
1506.00,3.2378
1505.00,3.2413
1504.00,3.2457
1503.00,3.2483
1502.00,3.2414
1501.00,3.2268
1500.00,3.2077
1499.00,3.1850
1498.00,3.1580
1497.00,3.1288
1496.00,3.1005
1495.00,3.0772
1494.00,3.0616
1493.00,3.0482
1492.00,3.0259
1491.00,2.9882
1490.00,2.9450
1489.00,2.9112
1488.00,2.8855
1487.00,2.8563
1486.00,2.8181
1485.00,2.7730
1484.00,2.7244
1483.00,2.6725
1482.00,2.6169
1481.00,2.5616
1480.00,2.5128
1479.00,2.4732
1478.00,2.4420
1477.00,2.4189
1476.00,2.4075
1475.00,2.4128
1474.00,2.4374
1473.00,2.4838
1472.00,2.5541
1471.00,2.6416
1470.00,2.7364
1469.00,2.8331
1468.00,2.9280
1467.00,3.0163
1466.00,3.0944
1465.00,3.1626
1464.00,3.2206
1463.00,3.2630
1462.00,3.2893
1461.00,3.3082
1460.00,3.3293
1459.00,3.3609
1458.00,3.4158
1457.00,3.5094
1456.00,3.6336
1455.00,3.7613
1454.00,3.8797
1453.00,3.9896
1452.00,4.0901
1451.00,4.1731
1450.00,4.2206
1449.00,4.2074
1448.00,4.1105
1447.00,3.9449
1446.00,3.7696
1445.00,3.6255
1444.00,3.5183
1443.00,3.4406
1442.00,3.3853
1441.00,3.3491
1440.00,3.3312
1439.00,3.3315
1438.00,3.3491
1437.00,3.3837
1436.00,3.4332
1435.00,3.4861
1434.00,3.5325
1433.00,3.5782
1432.00,3.6305
1431.00,3.6874
1430.00,3.7420
1429.00,3.7887
1428.00,3.8264
1427.00,3.8536
1426.00,3.8653
1425.00,3.8621
1424.00,3.8589
1423.00,3.8704
1422.00,3.8912
1421.00,3.8865
1420.00,3.8213
1419.00,3.7168
1418.00,3.6259
1417.00,3.5667
1416.00,3.5218
1415.00,3.4723
1414.00,3.4157
1413.00,3.3600
1412.00,3.3141
1411.00,3.2829
1410.00,3.2670
1409.00,3.2640
1408.00,3.2721
1407.00,3.2916
1406.00,3.3212
1405.00,3.3522
1404.00,3.3727
1403.00,3.3803
1402.00,3.3842
1401.00,3.3916
1400.00,3.4010
1399.00,3.4094
1398.00,3.4155
1397.00,3.4198
1396.00,3.4274
1395.00,3.4441
1394.00,3.4693
1393.00,3.4946
1392.00,3.5123
1391.00,3.5248
1390.00,3.5393
1389.00,3.5542
1388.00,3.5581
1387.00,3.5485
1386.00,3.5405
1385.00,3.5431
1384.00,3.5480
1383.00,3.5426
1382.00,3.5273
1381.00,3.5137
1380.00,3.5097
1379.00,3.5160
1378.00,3.5301
1377.00,3.5470
1376.00,3.5585
1375.00,3.5589
1374.00,3.5546
1373.00,3.5564
1372.00,3.5611
1371.00,3.5534
1370.00,3.5288
1369.00,3.5016
1368.00,3.4873
1367.00,3.4868
1366.00,3.4855
1365.00,3.4654
1364.00,3.4234
1363.00,3.3748
1362.00,3.3354
1361.00,3.3071
1360.00,3.2832
1359.00,3.2606
1358.00,3.2409
1357.00,3.2250
1356.00,3.2120
1355.00,3.2044
1354.00,3.2105
1353.00,3.2406
1352.00,3.2997
1351.00,3.3851
1350.00,3.4861
1349.00,3.5830
1348.00,3.6534
1347.00,3.6880
1346.00,3.6938
1345.00,3.6849
1344.00,3.6743
1343.00,3.6725
1342.00,3.6893
1341.00,3.7297
1340.00,3.7873
1339.00,3.8357
1338.00,3.8376
1337.00,3.7747
1336.00,3.6637
1335.00,3.5403
1334.00,3.4307
1333.00,3.3425
1332.00,3.2729
1331.00,3.2180
1330.00,3.1763
1329.00,3.1470
1328.00,3.1291
1327.00,3.1231
1326.00,3.1324
1325.00,3.1612
1324.00,3.2111
1323.00,3.2798
1322.00,3.3622
1321.00,3.4539
1320.00,3.5520
1319.00,3.6532
1318.00,3.7544
1317.00,3.8572
1316.00,3.9687
1315.00,4.1016
1314.00,4.2754
1313.00,4.5020
1312.00,4.6930
1311.00,4.6493
1310.00,4.5027
1309.00,4.3836
1308.00,4.2508
1307.00,4.0681
1306.00,3.8665
1305.00,3.6861
1304.00,3.5404
1303.00,3.4244
1302.00,3.3277
1301.00,3.2427
1300.00,3.1673
1299.00,3.1032
1298.00,3.0527
1297.00,3.0177
1296.00,3.0002
1295.00,3.0019
1294.00,3.0213
1293.00,3.0521
1292.00,3.0860
1291.00,3.1188
1290.00,3.1530
1289.00,3.1945
1288.00,3.2446
1287.00,3.2972
1286.00,3.3432
1285.00,3.3791
1284.00,3.4071
1283.00,3.4306
1282.00,3.4517
1281.00,3.4708
1280.00,3.4895
1279.00,3.5124
1278.00,3.5454
1277.00,3.5887
1276.00,3.6332
1275.00,3.6664
1274.00,3.6833
1273.00,3.6912
1272.00,3.6998
1271.00,3.7105
1270.00,3.7191
1269.00,3.7224
1268.00,3.7200
1267.00,3.7168
1266.00,3.7217
1265.00,3.7405
1264.00,3.7686
1263.00,3.7904
1262.00,3.8004
1261.00,3.8076
1260.00,3.8174
1259.00,3.8279
1258.00,3.8362
1257.00,3.8431
1256.00,3.8503
1255.00,3.8500
1254.00,3.8316
1253.00,3.7972
1252.00,3.7619
1251.00,3.7437
1250.00,3.7477
1249.00,3.7591
1248.00,3.7600
1247.00,3.7576
1246.00,3.7770
1245.00,3.8290
1244.00,3.8924
1243.00,3.9299
1242.00,3.9337
1241.00,3.9289
1240.00,3.9295
1239.00,3.9231
1238.00,3.8903
1237.00,3.8329
1236.00,3.7796
1235.00,3.7666
1234.00,3.8109
1233.00,3.9066
1232.00,4.0170
1231.00,4.1070
1230.00,4.2018
1229.00,4.3848
1228.00,4.8464
1227.00,4.8296
1226.00,4.3424
1225.00,4.1921
1224.00,4.1926
1223.00,4.3272
1222.00,4.5386
1221.00,4.4780
1220.00,4.3902
1219.00,4.4360
1218.00,4.4611
1217.00,4.3256
1216.00,4.1528
1215.00,4.0473
1214.00,4.0243
1213.00,4.0629
1212.00,4.1096
1211.00,4.1155
1210.00,4.0804
1209.00,4.0363
1208.00,4.0088
1207.00,4.0069
1206.00,4.0204
1205.00,4.0216
1204.00,3.9876
1203.00,3.9355
1202.00,3.8974
1201.00,3.8769
1200.00,3.8516
1199.00,3.7938
1198.00,3.7143
1197.00,3.6520
1196.00,3.6190
1195.00,3.6019
1194.00,3.5838
1193.00,3.5540
1192.00,3.5088
1191.00,3.4551
1190.00,3.4065
1189.00,3.3709
1188.00,3.3481
1187.00,3.3356
1186.00,3.3320
1185.00,3.3356
1184.00,3.3427
1183.00,3.3497
1182.00,3.3557
1181.00,3.3604
1180.00,3.3616
1179.00,3.3581
1178.00,3.3526
1177.00,3.3495
1176.00,3.3490
1175.00,3.3492
1174.00,3.3521
1173.00,3.3629
1172.00,3.3823
1171.00,3.4029
1170.00,3.4121
1169.00,3.4060
1168.00,3.3950
1167.00,3.3931
1166.00,3.4076
1165.00,3.4346
1164.00,3.4614
1163.00,3.4854
1162.00,3.5233
1161.00,3.5890
1160.00,3.6521
1159.00,3.6524
1158.00,3.6035
1157.00,3.5705
1156.00,3.5869
1155.00,3.6464
1154.00,3.7124
1153.00,3.7581
1152.00,3.8004
1151.00,3.8589
1150.00,3.9180
1149.00,3.9400
1148.00,3.8944
1147.00,3.8011
1146.00,3.7119
1145.00,3.6579
1144.00,3.6464
1143.00,3.6763
1142.00,3.7433
1141.00,3.8444
1140.00,3.9779
1139.00,4.1334
1138.00,4.3033
1137.00,4.4972
1136.00,4.6118
1135.00,4.4518
1134.00,4.2143
1133.00,4.0528
1132.00,3.9822
1131.00,3.9979
1130.00,4.0749
1129.00,4.2070
1128.00,4.3408
1127.00,4.2953
1126.00,4.1982
1125.00,4.1775
1124.00,4.1923
1123.00,4.1955
1122.00,4.1971
1121.00,4.2518
1120.00,4.3934
1119.00,4.4687
1118.00,4.3267
1117.00,4.2046
1116.00,4.1748
1115.00,4.2201
1114.00,4.2942
1113.00,4.3340
1112.00,4.2602
1111.00,4.0794
1110.00,3.9360
1109.00,3.8792
1108.00,3.9016
1107.00,3.9787
1106.00,4.0629
1105.00,4.1131
1104.00,4.1648
1103.00,4.2986
1102.00,4.5875
1101.00,4.9314
1100.00,4.6482
1099.00,4.3484
1098.00,4.2596
1097.00,4.2966
1096.00,4.2952
1095.00,4.1594
1094.00,4.0190
1093.00,3.9404
1092.00,3.9060
1091.00,3.8925
1090.00,3.9045
1089.00,3.9422
1088.00,3.9962
1087.00,4.0895
1086.00,4.2200
1085.00,4.2704
1084.00,4.1793
1083.00,4.0184
1082.00,3.8762
1081.00,3.8013
1080.00,3.8218
1079.00,3.9378
1078.00,4.1988
1077.00,4.5941
1076.00,4.6002
1075.00,4.6935
1074.00,4.5188
1073.00,4.1581
1072.00,4.0196
1071.00,3.9634
1070.00,3.9367
1069.00,3.9376
1068.00,3.9871
1067.00,4.0901
1066.00,4.1425
1065.00,4.0563
1064.00,3.9089
1063.00,3.7788
1062.00,3.7029
1061.00,3.6898
1060.00,3.7320
1059.00,3.8233
1058.00,3.9481
1057.00,4.0114
1056.00,3.9907
1055.00,3.9814
1054.00,3.9577
1053.00,3.9287
1052.00,3.9736
1051.00,4.0823
1050.00,4.2437
1049.00,4.3767
1048.00,4.1449
1047.00,3.8677
1046.00,3.6897
1045.00,3.5737
1044.00,3.5000
1043.00,3.4487
1042.00,3.4042
1041.00,3.3647
1040.00,3.3440
1039.00,3.3538
1038.00,3.3897
1037.00,3.4323
1036.00,3.4658
1035.00,3.4949
1034.00,3.5341
1033.00,3.5838
1032.00,3.6177
1031.00,3.6164
1030.00,3.6031
1029.00,3.6169
1028.00,3.6776
1027.00,3.7899
1026.00,3.9303
1025.00,4.0826
1024.00,4.2638
1023.00,4.5930
1022.00,5.0820
1021.00,4.5638
1020.00,4.2159
1019.00,4.0477
1018.00,3.9894
1017.00,4.0209
1016.00,4.0640
1015.00,4.0706
1014.00,4.0655
1013.00,4.0803
1012.00,4.1030
1011.00,4.1267
1010.00,4.1520
1009.00,4.1846
1008.00,4.2409
1007.00,4.3151
1006.00,4.3506
1005.00,4.3608
1004.00,4.3817
1003.00,4.4113
1002.00,4.4105
1001.00,4.2931
1000.00,4.2196
999.00,4.2778
998.00,4.5753
997.00,5.0476
996.00,4.7607
995.00,4.7381
994.00,4.8871
993.00,4.8983
992.00,4.6941
991.00,4.4870
990.00,4.4332
989.00,4.5031
988.00,4.5648
987.00,4.4350
986.00,4.3070
985.00,4.2695
984.00,4.3244
983.00,4.4434
982.00,4.5148
981.00,4.4779
980.00,4.4499
979.00,4.4690
978.00,4.4434
977.00,4.3659
976.00,4.2703
975.00,4.1765
974.00,4.1183
973.00,4.0845
972.00,4.0166
971.00,3.9095
970.00,3.8302
969.00,3.8273
968.00,3.8982
967.00,4.0083
966.00,4.1240
965.00,4.2229
964.00,4.2861
963.00,4.2056
962.00,4.0421
961.00,3.9551
960.00,3.9614
959.00,4.0392
958.00,4.1686
957.00,4.2890
956.00,4.3878
955.00,4.4387
954.00,4.2689
953.00,4.0831
952.00,3.9987
951.00,3.9829
950.00,4.0046
949.00,4.0457
948.00,4.0997
947.00,4.1504
946.00,4.1822
945.00,4.2426
944.00,4.2952
943.00,4.1859
942.00,4.0637
941.00,4.0309
940.00,4.0490
939.00,4.0587
938.00,4.0124
937.00,3.9443
936.00,3.9185
935.00,3.9665
934.00,4.0622
933.00,4.0839
932.00,4.0095
931.00,3.9451
930.00,3.9303
929.00,3.9804
928.00,4.0809
927.00,4.1815
926.00,4.2741
925.00,4.3236
924.00,4.2556
923.00,4.1603
922.00,4.1283
921.00,4.1461
920.00,4.1282
919.00,4.0775
918.00,4.1154
917.00,4.3732
916.00,4.6085
915.00,4.5013
914.00,4.7760
913.00,4.8485
912.00,4.4309
911.00,4.2516
910.00,4.0856
909.00,3.9399
908.00,3.8615
907.00,3.8731
906.00,3.9843
905.00,4.1705
904.00,4.3545
903.00,4.3312
902.00,4.1533
901.00,4.0553
900.00,4.0607
899.00,4.1633
898.00,4.3026
897.00,4.2691
896.00,4.1095
895.00,3.9966
894.00,4.0053
893.00,4.1170
892.00,4.1498
891.00,4.0396
890.00,3.9452
889.00,3.9133
888.00,3.9344
887.00,3.9826
886.00,4.0394
885.00,4.1208
884.00,4.3199
883.00,4.5868
882.00,4.4900
881.00,4.3680
880.00,4.3273
879.00,4.2996
878.00,4.2516
877.00,4.1672
876.00,4.1169
875.00,4.1696
874.00,4.4184
873.00,4.5145
872.00,4.2832
871.00,4.2908
870.00,4.2453
869.00,4.0194
868.00,3.9170
867.00,3.9350
866.00,4.0389
865.00,4.1961
864.00,4.2859
863.00,4.2356
862.00,4.1476
861.00,4.1034
860.00,4.1261
859.00,4.1921
858.00,4.1489
857.00,4.0353
856.00,3.9896
855.00,4.1074
854.00,4.3988
853.00,4.2826
852.00,4.1279
851.00,4.1791
850.00,4.0934
849.00,3.9220
848.00,3.8867
847.00,3.9756
846.00,4.0018
845.00,3.8883
844.00,3.8048
843.00,3.7888
842.00,3.8249
841.00,3.9156
840.00,4.0622
839.00,4.2462
838.00,4.3444
837.00,4.2627
836.00,4.1441
835.00,4.0568
834.00,3.9733
833.00,3.8880
832.00,3.8326
831.00,3.7990
830.00,3.7573
829.00,3.7433
828.00,3.7924
827.00,3.8476
826.00,3.8346
825.00,3.7870
824.00,3.7645
823.00,3.8195
822.00,3.9756
821.00,4.1541
820.00,4.2506
819.00,4.2751
818.00,4.1245
817.00,3.9286
816.00,3.8379
815.00,3.8616
814.00,3.9763
813.00,4.0656
812.00,4.0208
811.00,3.9750
810.00,4.0321
809.00,4.1917
808.00,4.2675
807.00,4.1632
806.00,4.0664
805.00,4.0187
804.00,4.0285
803.00,4.1237
802.00,4.3090
801.00,4.5875
800.00,4.8512
799.00,4.6530
798.00,4.4700
797.00,4.3123
796.00,4.1716
795.00,4.1694
794.00,4.3095
793.00,4.4969
792.00,4.5295
791.00,4.4967
790.00,4.5187
789.00,4.5580
788.00,4.5660
787.00,4.4380
786.00,4.1924
785.00,4.0025
784.00,3.9408
783.00,3.9982
782.00,4.0782
781.00,4.0021
780.00,3.8242
779.00,3.7090
778.00,3.6938
777.00,3.7448
776.00,3.7890
775.00,3.7782
774.00,3.7401
773.00,3.7378
772.00,3.8100
771.00,4.0018
770.00,4.3615
769.00,4.7360
768.00,4.8445
767.00,4.4165
766.00,4.1413
765.00,4.0957
764.00,4.2562
763.00,4.5204
762.00,4.3627
761.00,4.1949
760.00,4.2272
759.00,4.3722
758.00,4.2237
757.00,4.0038
756.00,3.9603
755.00,4.0143
754.00,4.2083
753.00,4.6796
752.00,4.4280
751.00,4.0871
750.00,4.1216
749.00,4.3815
748.00,4.1983
747.00,4.0030
746.00,3.9825
745.00,3.9891
744.00,3.9607
743.00,3.9687
742.00,4.1278
741.00,4.4703
740.00,4.5662
739.00,4.1918
738.00,3.9057
737.00,3.7922
736.00,3.7965
735.00,3.9699
734.00,4.5392
733.00,4.4886
732.00,4.2175
731.00,4.2322
730.00,4.1721
729.00,4.0953
728.00,4.0847
727.00,4.1750
726.00,4.2469
725.00,4.2847
724.00,4.5130
723.00,4.3406
722.00,3.9755
721.00,3.8125
720.00,3.7363
719.00,3.7375
718.00,3.8068
717.00,4.0378
716.00,4.6895
715.00,4.6835
714.00,4.4220
713.00,4.1105
712.00,3.8879
711.00,3.8391
710.00,3.9088
709.00,4.1044
708.00,4.5206
707.00,4.7283
706.00,4.2192
705.00,4.0486
704.00,4.0111
703.00,4.0832
702.00,4.2719
701.00,4.5877
700.00,5.1427
