Created as New Dataset,Sample 090 By Administrator Date Wednesday, November 24 2021
cm-1,A
7502.00,1.1258
7501.00,1.1256
7500.00,1.1254
7499.00,1.1252
7498.00,1.1250
7497.00,1.1247
7496.00,1.1245
7495.00,1.1243
7494.00,1.1241
7493.00,1.1247
7492.00,1.1268
7491.00,1.1302
7490.00,1.1339
7489.00,1.1363
7488.00,1.1367
7487.00,1.1352
7486.00,1.1322
7485.00,1.1276
7484.00,1.1213
7483.00,1.1136
7482.00,1.1054
7481.00,1.0978
7480.00,1.0913
7479.00,1.0859
7478.00,1.0811
7477.00,1.0766
7476.00,1.0727
7475.00,1.0697
7474.00,1.0674
7473.00,1.0651
7472.00,1.0622
7471.00,1.0583
7470.00,1.0532
7469.00,1.0473
7468.00,1.0409
7467.00,1.0346
7466.00,1.0284
7465.00,1.0219
7464.00,1.0151
7463.00,1.0077
7462.00,1.0000
7461.00,0.9920
7460.00,0.9840
7459.00,0.9758
7458.00,0.9676
7457.00,0.9598
7456.00,0.9530
7455.00,0.9471
7454.00,0.9418
7453.00,0.9361
7452.00,0.9301
7451.00,0.9239
7450.00,0.9177
7449.00,0.9113
7448.00,0.9044
7447.00,0.8975
7446.00,0.8908
7445.00,0.8841
7444.00,0.8772
7443.00,0.8699
7442.00,0.8625
7441.00,0.8551
7440.00,0.8475
7439.00,0.8397
7438.00,0.8319
7437.00,0.8243
7436.00,0.8170
7435.00,0.8103
7434.00,0.8039
7433.00,0.7978
7432.00,0.7920
7431.00,0.7866
7430.00,0.7817
7429.00,0.7774
7428.00,0.7737
7427.00,0.7707
7426.00,0.7685
7425.00,0.7669
7424.00,0.7660
7423.00,0.7653
7422.00,0.7649
7421.00,0.7645
7420.00,0.7644
7419.00,0.7646
7418.00,0.7653
7417.00,0.7663
7416.00,0.7678
7415.00,0.7701
7414.00,0.7732
7413.00,0.7770
7412.00,0.7813
7411.00,0.7862
7410.00,0.7916
7409.00,0.7974
7408.00,0.8035
7407.00,0.8099
7406.00,0.8168
7405.00,0.8243
7404.00,0.8322
7403.00,0.8401
7402.00,0.8481
7401.00,0.8562
7400.00,0.8647
7399.00,0.8735
7398.00,0.8823
7397.00,0.8913
7396.00,0.9003
7395.00,0.9097
7394.00,0.9194
7393.00,0.9297
7392.00,0.9401
7391.00,0.9503
7390.00,0.9597
7389.00,0.9685
7388.00,0.9773
7387.00,0.9863
7386.00,0.9954
7385.00,1.0046
7384.00,1.0140
7383.00,1.0240
7382.00,1.0342
7381.00,1.0439
7380.00,1.0531
7379.00,1.0621
7378.00,1.0705
7377.00,1.0779
7376.00,1.0841
7375.00,1.0899
7374.00,1.0964
7373.00,1.1038
7372.00,1.1114
7371.00,1.1187
7370.00,1.1257
7369.00,1.1327
7368.00,1.1395
7367.00,1.1458
7366.00,1.1514
7365.00,1.1562
7364.00,1.1604
7363.00,1.1642
7362.00,1.1678
7361.00,1.1716
7360.00,1.1755
7359.00,1.1791
7358.00,1.1817
7357.00,1.1831
7356.00,1.1837
7355.00,1.1844
7354.00,1.1857
7353.00,1.1872
7352.00,1.1884
7351.00,1.1888
7350.00,1.1886
7349.00,1.1879
7348.00,1.1867
7347.00,1.1847
7346.00,1.1822
7345.00,1.1796
7344.00,1.1772
7343.00,1.1748
7342.00,1.1724
7341.00,1.1696
7340.00,1.1661
7339.00,1.1617
7338.00,1.1563
7337.00,1.1505
7336.00,1.1448
7335.00,1.1391
7334.00,1.1329
7333.00,1.1259
7332.00,1.1187
7331.00,1.1115
7330.00,1.1041
7329.00,1.0960
7328.00,1.0869
7327.00,1.0776
7326.00,1.0686
7325.00,1.0601
7324.00,1.0515
7323.00,1.0422
7322.00,1.0322
7321.00,1.0219
7320.00,1.0118
7319.00,1.0019
7318.00,0.9918
7317.00,0.9813
7316.00,0.9708
7315.00,0.9606
7314.00,0.9507
7313.00,0.9405
7312.00,0.9300
7311.00,0.9195
7310.00,0.9092
7309.00,0.8994
7308.00,0.8900
7307.00,0.8807
7306.00,0.8720
7305.00,0.8639
7304.00,0.8560
7303.00,0.8480
7302.00,0.8398
7301.00,0.8316
7300.00,0.8239
7299.00,0.8169
7298.00,0.8107
7297.00,0.8050
7296.00,0.7999
7295.00,0.7954
7294.00,0.7915
7293.00,0.7879
7292.00,0.7847
7291.00,0.7820
7290.00,0.7800
7289.00,0.7786
7288.00,0.7778
7287.00,0.7776
7286.00,0.7781
7285.00,0.7793
7284.00,0.7811
7283.00,0.7834
7282.00,0.7860
7281.00,0.7893
7280.00,0.7932
7279.00,0.7976
7278.00,0.8024
7277.00,0.8074
7276.00,0.8127
7275.00,0.8185
7274.00,0.8250
7273.00,0.8321
7272.00,0.8397
7271.00,0.8475
7270.00,0.8556
7269.00,0.8641
7268.00,0.8727
7267.00,0.8812
7266.00,0.8893
7265.00,0.8973
7264.00,0.9055
7263.00,0.9144
7262.00,0.9239
7261.00,0.9335
7260.00,0.9429
7259.00,0.9521
7258.00,0.9613
7257.00,0.9707
7256.00,0.9802
7255.00,0.9891
7254.00,0.9973
7253.00,1.0053
7252.00,1.0137
7251.00,1.0226
7250.00,1.0311
7249.00,1.0386
7248.00,1.0454
7247.00,1.0520
7246.00,1.0591
7245.00,1.0665
7244.00,1.0738
7243.00,1.0810
7242.00,1.0882
7241.00,1.0955
7240.00,1.1026
7239.00,1.1092
7238.00,1.1150
7237.00,1.1200
7236.00,1.1243
7235.00,1.1281
7234.00,1.1317
7233.00,1.1356
7232.00,1.1395
7231.00,1.1430
7230.00,1.1464
7229.00,1.1500
7228.00,1.1539
7227.00,1.1573
7226.00,1.1597
7225.00,1.1609
7224.00,1.1618
7223.00,1.1625
7222.00,1.1631
7221.00,1.1637
7220.00,1.1644
7219.00,1.1651
7218.00,1.1657
7217.00,1.1660
7216.00,1.1657
7215.00,1.1641
7214.00,1.1610
7213.00,1.1565
7212.00,1.1520
7211.00,1.1480
7210.00,1.1445
7209.00,1.1409
7208.00,1.1369
7207.00,1.1330
7206.00,1.1292
7205.00,1.1252
7204.00,1.1205
7203.00,1.1150
7202.00,1.1089
7201.00,1.1027
7200.00,1.0965
7199.00,1.0904
7198.00,1.0838
7197.00,1.0767
7196.00,1.0690
7195.00,1.0610
7194.00,1.0529
7193.00,1.0446
7192.00,1.0358
7191.00,1.0266
7190.00,1.0174
7189.00,1.0086
7188.00,0.9998
7187.00,0.9905
7186.00,0.9804
7185.00,0.9701
7184.00,0.9601
7183.00,0.9503
7182.00,0.9405
7181.00,0.9304
7180.00,0.9205
7179.00,0.9111
7178.00,0.9021
7177.00,0.8930
7176.00,0.8837
7175.00,0.8746
7174.00,0.8659
7173.00,0.8573
7172.00,0.8489
7171.00,0.8406
7170.00,0.8327
7169.00,0.8251
7168.00,0.8179
7167.00,0.8111
7166.00,0.8047
7165.00,0.7989
7164.00,0.7936
7163.00,0.7888
7162.00,0.7845
7161.00,0.7807
7160.00,0.7776
7159.00,0.7751
7158.00,0.7733
7157.00,0.7721
7156.00,0.7714
7155.00,0.7712
7154.00,0.7716
7153.00,0.7729
7152.00,0.7748
7151.00,0.7773
7150.00,0.7801
7149.00,0.7834
7148.00,0.7872
7147.00,0.7918
7146.00,0.7968
7145.00,0.8020
7144.00,0.8077
7143.00,0.8140
7142.00,0.8211
7141.00,0.8288
7140.00,0.8369
7139.00,0.8453
7138.00,0.8538
7137.00,0.8623
7136.00,0.8708
7135.00,0.8793
7134.00,0.8879
7133.00,0.8967
7132.00,0.9055
7131.00,0.9146
7130.00,0.9240
7129.00,0.9336
7128.00,0.9434
7127.00,0.9533
7126.00,0.9634
7125.00,0.9736
7124.00,0.9840
7123.00,0.9945
7122.00,1.0048
7121.00,1.0146
7120.00,1.0237
7119.00,1.0321
7118.00,1.0405
7117.00,1.0494
7116.00,1.0586
7115.00,1.0677
7114.00,1.0763
7113.00,1.0847
7112.00,1.0928
7111.00,1.1007
7110.00,1.1081
7109.00,1.1154
7108.00,1.1226
7107.00,1.1300
7106.00,1.1374
7105.00,1.1446
7104.00,1.1515
7103.00,1.1579
7102.00,1.1638
7101.00,1.1689
7100.00,1.1734
7099.00,1.1774
7098.00,1.1812
7097.00,1.1851
7096.00,1.1888
7095.00,1.1923
7094.00,1.1953
7093.00,1.1983
7092.00,1.2014
7091.00,1.2044
7090.00,1.2065
7089.00,1.2072
7088.00,1.2072
7087.00,1.2071
7086.00,1.2070
7085.00,1.2066
7084.00,1.2058
7083.00,1.2048
7082.00,1.2034
7081.00,1.2014
7080.00,1.1986
7079.00,1.1953
7078.00,1.1916
7077.00,1.1876
7076.00,1.1834
7075.00,1.1792
7074.00,1.1753
7073.00,1.1714
7072.00,1.1670
7071.00,1.1619
7070.00,1.1561
7069.00,1.1495
7068.00,1.1419
7067.00,1.1334
7066.00,1.1243
7065.00,1.1155
7064.00,1.1070
7063.00,1.0987
7062.00,1.0902
7061.00,1.0815
7060.00,1.0725
7059.00,1.0632
7058.00,1.0535
7057.00,1.0432
7056.00,1.0325
7055.00,1.0214
7054.00,1.0102
7053.00,0.9990
7052.00,0.9881
7051.00,0.9774
7050.00,0.9666
7049.00,0.9556
7048.00,0.9448
7047.00,0.9342
7046.00,0.9240
7045.00,0.9138
7044.00,0.9036
7043.00,0.8933
7042.00,0.8834
7041.00,0.8739
7040.00,0.8648
7039.00,0.8559
7038.00,0.8473
7037.00,0.8389
7036.00,0.8311
7035.00,0.8237
7034.00,0.8169
7033.00,0.8105
7032.00,0.8046
7031.00,0.7991
7030.00,0.7942
7029.00,0.7900
7028.00,0.7864
7027.00,0.7832
7026.00,0.7804
7025.00,0.7784
7024.00,0.7773
7023.00,0.7769
7022.00,0.7772
7021.00,0.7781
7020.00,0.7797
7019.00,0.7818
7018.00,0.7846
7017.00,0.7877
7016.00,0.7912
7015.00,0.7952
7014.00,0.7996
7013.00,0.8046
7012.00,0.8102
7011.00,0.8163
7010.00,0.8230
7009.00,0.8304
7008.00,0.8383
7007.00,0.8465
7006.00,0.8546
7005.00,0.8627
7004.00,0.8710
7003.00,0.8796
7002.00,0.8883
7001.00,0.8972
7000.00,0.9065
6999.00,0.9162
6998.00,0.9262
6997.00,0.9364
6996.00,0.9466
6995.00,0.9565
6994.00,0.9663
6993.00,0.9761
6992.00,0.9861
6991.00,0.9960
6990.00,1.0057
6989.00,1.0151
6988.00,1.0242
6987.00,1.0332
6986.00,1.0419
6985.00,1.0504
6984.00,1.0590
6983.00,1.0678
6982.00,1.0768
6981.00,1.0856
6980.00,1.0939
6979.00,1.1019
6978.00,1.1097
6977.00,1.1170
6976.00,1.1235
6975.00,1.1294
6974.00,1.1352
6973.00,1.1415
6972.00,1.1480
6971.00,1.1545
6970.00,1.1606
6969.00,1.1665
6968.00,1.1722
6967.00,1.1774
6966.00,1.1819
6965.00,1.1855
6964.00,1.1882
6963.00,1.1902
6962.00,1.1917
6961.00,1.1930
6960.00,1.1943
6959.00,1.1955
6958.00,1.1963
6957.00,1.1970
6956.00,1.1974
6955.00,1.1972
6954.00,1.1965
6953.00,1.1958
6952.00,1.1954
6951.00,1.1951
6950.00,1.1943
6949.00,1.1928
6948.00,1.1907
6947.00,1.1882
6946.00,1.1850
6945.00,1.1808
6944.00,1.1757
6943.00,1.1703
6942.00,1.1650
6941.00,1.1598
6940.00,1.1545
6939.00,1.1489
6938.00,1.1427
6937.00,1.1361
6936.00,1.1293
6935.00,1.1221
6934.00,1.1143
6933.00,1.1061
6932.00,1.0976
6931.00,1.0892
6930.00,1.0808
6929.00,1.0722
6928.00,1.0633
6927.00,1.0543
6926.00,1.0449
6925.00,1.0351
6924.00,1.0249
6923.00,1.0141
6922.00,1.0031
6921.00,0.9921
6920.00,0.9812
6919.00,0.9706
6918.00,0.9601
6917.00,0.9495
6916.00,0.9389
6915.00,0.9285
6914.00,0.9183
6913.00,0.9080
6912.00,0.8975
6911.00,0.8870
6910.00,0.8770
6909.00,0.8674
6908.00,0.8583
6907.00,0.8492
6906.00,0.8404
6905.00,0.8320
6904.00,0.8241
6903.00,0.8166
6902.00,0.8095
6901.00,0.8028
6900.00,0.7965
6899.00,0.7908
6898.00,0.7857
6897.00,0.7813
6896.00,0.7776
6895.00,0.7746
6894.00,0.7721
6893.00,0.7701
6892.00,0.7688
6891.00,0.7683
6890.00,0.7686
6889.00,0.7695
6888.00,0.7707
6887.00,0.7723
6886.00,0.7748
6885.00,0.7781
6884.00,0.7819
6883.00,0.7859
6882.00,0.7905
6881.00,0.7957
6880.00,0.8016
6879.00,0.8081
6878.00,0.8151
6877.00,0.8224
6876.00,0.8301
6875.00,0.8382
6874.00,0.8465
6873.00,0.8552
6872.00,0.8642
6871.00,0.8734
6870.00,0.8827
6869.00,0.8922
6868.00,0.9020
6867.00,0.9123
6866.00,0.9228
6865.00,0.9331
6864.00,0.9432
6863.00,0.9535
6862.00,0.9639
6861.00,0.9744
6860.00,0.9846
6859.00,0.9946
6858.00,1.0047
6857.00,1.0148
6856.00,1.0249
6855.00,1.0347
6854.00,1.0444
6853.00,1.0542
6852.00,1.0639
6851.00,1.0735
6850.00,1.0825
6849.00,1.0910
6848.00,1.0991
6847.00,1.1071
6846.00,1.1152
6845.00,1.1231
6844.00,1.1309
6843.00,1.1388
6842.00,1.1467
6841.00,1.1544
6840.00,1.1612
6839.00,1.1671
6838.00,1.1726
6837.00,1.1779
6836.00,1.1832
6835.00,1.1886
6834.00,1.1939
6833.00,1.1988
6832.00,1.2030
6831.00,1.2063
6830.00,1.2091
6829.00,1.2114
6828.00,1.2134
6827.00,1.2152
6826.00,1.2170
6825.00,1.2189
6824.00,1.2206
6823.00,1.2216
6822.00,1.2219
6821.00,1.2218
6820.00,1.2213
6819.00,1.2206
6818.00,1.2197
6817.00,1.2184
6816.00,1.2168
6815.00,1.2145
6814.00,1.2115
6813.00,1.2075
6812.00,1.2029
6811.00,1.1979
6810.00,1.1928
6809.00,1.1878
6808.00,1.1828
6807.00,1.1777
6806.00,1.1722
6805.00,1.1660
6804.00,1.1591
6803.00,1.1515
6802.00,1.1436
6801.00,1.1353
6800.00,1.1266
6799.00,1.1175
6798.00,1.1081
6797.00,1.0985
6796.00,1.0888
6795.00,1.0787
6794.00,1.0684
6793.00,1.0579
6792.00,1.0471
6791.00,1.0362
6790.00,1.0252
6789.00,1.0141
6788.00,1.0031
6787.00,0.9919
6786.00,0.9808
6785.00,0.9695
6784.00,0.9581
6783.00,0.9467
6782.00,0.9353
6781.00,0.9241
6780.00,0.9130
6779.00,0.9022
6778.00,0.8917
6777.00,0.8815
6776.00,0.8714
6775.00,0.8615
6774.00,0.8519
6773.00,0.8426
6772.00,0.8338
6771.00,0.8253
6770.00,0.8174
6769.00,0.8101
6768.00,0.8035
6767.00,0.7974
6766.00,0.7918
6765.00,0.7869
6764.00,0.7827
6763.00,0.7792
6762.00,0.7763
6761.00,0.7739
6760.00,0.7721
6759.00,0.7710
6758.00,0.7706
6757.00,0.7709
6756.00,0.7721
6755.00,0.7741
6754.00,0.7768
6753.00,0.7798
6752.00,0.7833
6751.00,0.7873
6750.00,0.7918
6749.00,0.7969
6748.00,0.8025
6747.00,0.8086
6746.00,0.8153
6745.00,0.8225
6744.00,0.8302
6743.00,0.8381
6742.00,0.8462
6741.00,0.8547
6740.00,0.8635
6739.00,0.8729
6738.00,0.8827
6737.00,0.8928
6736.00,0.9029
6735.00,0.9128
6734.00,0.9229
6733.00,0.9332
6732.00,0.9435
6731.00,0.9537
6730.00,0.9640
6729.00,0.9744
6728.00,0.9851
6727.00,0.9957
6726.00,1.0061
6725.00,1.0165
6724.00,1.0268
6723.00,1.0368
6722.00,1.0467
6721.00,1.0563
6720.00,1.0655
6719.00,1.0745
6718.00,1.0831
6717.00,1.0918
6716.00,1.1002
6715.00,1.1086
6714.00,1.1168
6713.00,1.1251
6712.00,1.1335
6711.00,1.1418
6710.00,1.1495
6709.00,1.1567
6708.00,1.1632
6707.00,1.1691
6706.00,1.1743
6705.00,1.1790
6704.00,1.1833
6703.00,1.1876
6702.00,1.1918
6701.00,1.1957
6700.00,1.1992
6699.00,1.2020
6698.00,1.2044
6697.00,1.2064
6696.00,1.2081
6695.00,1.2095
6694.00,1.2107
6693.00,1.2117
6692.00,1.2125
6691.00,1.2129
6690.00,1.2131
6689.00,1.2126
6688.00,1.2115
6687.00,1.2098
6686.00,1.2077
6685.00,1.2054
6684.00,1.2028
6683.00,1.1996
6682.00,1.1957
6681.00,1.1917
6680.00,1.1877
6679.00,1.1834
6678.00,1.1787
6677.00,1.1734
6676.00,1.1677
6675.00,1.1618
6674.00,1.1556
6673.00,1.1491
6672.00,1.1423
6671.00,1.1355
6670.00,1.1284
6669.00,1.1210
6668.00,1.1131
6667.00,1.1044
6666.00,1.0953
6665.00,1.0860
6664.00,1.0765
6663.00,1.0671
6662.00,1.0576
6661.00,1.0480
6660.00,1.0380
6659.00,1.0275
6658.00,1.0165
6657.00,1.0054
6656.00,0.9944
6655.00,0.9833
6654.00,0.9723
6653.00,0.9612
6652.00,0.9502
6651.00,0.9393
6650.00,0.9283
6649.00,0.9172
6648.00,0.9062
6647.00,0.8955
6646.00,0.8851
6645.00,0.8751
6644.00,0.8652
6643.00,0.8552
6642.00,0.8454
6641.00,0.8360
6640.00,0.8273
6639.00,0.8192
6638.00,0.8116
6637.00,0.8044
6636.00,0.7976
6635.00,0.7913
6634.00,0.7857
6633.00,0.7806
6632.00,0.7759
6631.00,0.7718
6630.00,0.7686
6629.00,0.7663
6628.00,0.7647
6627.00,0.7637
6626.00,0.7632
6625.00,0.7634
6624.00,0.7643
6623.00,0.7660
6622.00,0.7683
6621.00,0.7711
6620.00,0.7746
6619.00,0.7786
6618.00,0.7834
6617.00,0.7890
6616.00,0.7951
6615.00,0.8015
6614.00,0.8085
6613.00,0.8159
6612.00,0.8237
6611.00,0.8319
6610.00,0.8404
6609.00,0.8492
6608.00,0.8584
6607.00,0.8680
6606.00,0.8780
6605.00,0.8882
6604.00,0.8986
6603.00,0.9089
6602.00,0.9194
6601.00,0.9302
6600.00,0.9410
6599.00,0.9519
6598.00,0.9628
6597.00,0.9737
6596.00,0.9847
6595.00,0.9954
6594.00,1.0059
6593.00,1.0161
6592.00,1.0263
6591.00,1.0367
6590.00,1.0473
6589.00,1.0580
6588.00,1.0685
6587.00,1.0788
6586.00,1.0888
6585.00,1.0985
6584.00,1.1079
6583.00,1.1172
6582.00,1.1262
6581.00,1.1349
6580.00,1.1432
6579.00,1.1513
6578.00,1.1590
6577.00,1.1661
6576.00,1.1727
6575.00,1.1793
6574.00,1.1862
6573.00,1.1933
6572.00,1.2000
6571.00,1.2057
6570.00,1.2107
6569.00,1.2152
6568.00,1.2193
6567.00,1.2229
6566.00,1.2263
6565.00,1.2300
6564.00,1.2337
6563.00,1.2368
6562.00,1.2390
6561.00,1.2405
6560.00,1.2414
6559.00,1.2419
6558.00,1.2419
6557.00,1.2416
6556.00,1.2413
6555.00,1.2409
6554.00,1.2399
6553.00,1.2383
6552.00,1.2360
6551.00,1.2333
6550.00,1.2306
6549.00,1.2276
6548.00,1.2242
6547.00,1.2200
6546.00,1.2152
6545.00,1.2101
6544.00,1.2050
6543.00,1.1996
6542.00,1.1938
6541.00,1.1876
6540.00,1.1810
6539.00,1.1741
6538.00,1.1664
6537.00,1.1581
6536.00,1.1494
6535.00,1.1407
6534.00,1.1319
6533.00,1.1226
6532.00,1.1126
6531.00,1.1022
6530.00,1.0916
6529.00,1.0810
6528.00,1.0702
6527.00,1.0592
6526.00,1.0479
6525.00,1.0365
6524.00,1.0249
6523.00,1.0131
6522.00,1.0013
6521.00,0.9893
6520.00,0.9772
6519.00,0.9652
6518.00,0.9532
6517.00,0.9412
6516.00,0.9291
6515.00,0.9171
6514.00,0.9054
6513.00,0.8940
6512.00,0.8828
6511.00,0.8719
6510.00,0.8615
6509.00,0.8515
6508.00,0.8420
6507.00,0.8329
6506.00,0.8243
6505.00,0.8162
6504.00,0.8085
6503.00,0.8014
6502.00,0.7948
6501.00,0.7890
6500.00,0.7837
6499.00,0.7791
6498.00,0.7752
6497.00,0.7720
6496.00,0.7695
6495.00,0.7676
6494.00,0.7666
6493.00,0.7665
6492.00,0.7672
6491.00,0.7685
6490.00,0.7704
6489.00,0.7730
6488.00,0.7762
6487.00,0.7800
6486.00,0.7844
6485.00,0.7896
6484.00,0.7956
6483.00,0.8021
6482.00,0.8093
6481.00,0.8168
6480.00,0.8248
6479.00,0.8331
6478.00,0.8419
6477.00,0.8511
6476.00,0.8604
6475.00,0.8700
6474.00,0.8800
6473.00,0.8904
6472.00,0.9010
6471.00,0.9116
6470.00,0.9222
6469.00,0.9330
6468.00,0.9437
6467.00,0.9544
6466.00,0.9651
6465.00,0.9758
6464.00,0.9867
6463.00,0.9977
6462.00,1.0087
6461.00,1.0196
6460.00,1.0303
6459.00,1.0407
6458.00,1.0510
6457.00,1.0611
6456.00,1.0711
6455.00,1.0811
6454.00,1.0909
6453.00,1.1005
6452.00,1.1098
6451.00,1.1188
6450.00,1.1276
6449.00,1.1363
6448.00,1.1448
6447.00,1.1529
6446.00,1.1606
6445.00,1.1676
6444.00,1.1741
6443.00,1.1799
6442.00,1.1852
6441.00,1.1903
6440.00,1.1953
6439.00,1.2003
6438.00,1.2053
6437.00,1.2105
6436.00,1.2152
6435.00,1.2194
6434.00,1.2230
6433.00,1.2262
6432.00,1.2288
6431.00,1.2308
6430.00,1.2321
6429.00,1.2331
6428.00,1.2339
6427.00,1.2345
6426.00,1.2344
6425.00,1.2337
6424.00,1.2326
6423.00,1.2310
6422.00,1.2291
6421.00,1.2267
6420.00,1.2238
6419.00,1.2206
6418.00,1.2174
6417.00,1.2142
6416.00,1.2109
6415.00,1.2071
6414.00,1.2026
6413.00,1.1977
6412.00,1.1924
6411.00,1.1868
6410.00,1.1806
6409.00,1.1741
6408.00,1.1674
6407.00,1.1607
6406.00,1.1537
6405.00,1.1462
6404.00,1.1381
6403.00,1.1300
6402.00,1.1218
6401.00,1.1135
6400.00,1.1045
6399.00,1.0949
6398.00,1.0848
6397.00,1.0744
6396.00,1.0635
6395.00,1.0522
6394.00,1.0408
6393.00,1.0294
6392.00,1.0181
6391.00,1.0067
6390.00,0.9951
6389.00,0.9833
6388.00,0.9714
6387.00,0.9595
6386.00,0.9477
6385.00,0.9360
6384.00,0.9244
6383.00,0.9128
6382.00,0.9013
6381.00,0.8902
6380.00,0.8793
6379.00,0.8684
6378.00,0.8578
6377.00,0.8475
6376.00,0.8378
6375.00,0.8285
6374.00,0.8198
6373.00,0.8116
6372.00,0.8039
6371.00,0.7969
6370.00,0.7903
6369.00,0.7841
6368.00,0.7785
6367.00,0.7737
6366.00,0.7698
6365.00,0.7666
6364.00,0.7641
6363.00,0.7622
6362.00,0.7611
6361.00,0.7607
6360.00,0.7610
6359.00,0.7620
6358.00,0.7637
6357.00,0.7664
6356.00,0.7700
6355.00,0.7742
6354.00,0.7790
6353.00,0.7844
6352.00,0.7904
6351.00,0.7969
6350.00,0.8041
6349.00,0.8118
6348.00,0.8199
6347.00,0.8283
6346.00,0.8374
6345.00,0.8469
6344.00,0.8568
6343.00,0.8668
6342.00,0.8772
6341.00,0.8879
6340.00,0.8988
6339.00,0.9098
6338.00,0.9208
6337.00,0.9320
6336.00,0.9432
6335.00,0.9546
6334.00,0.9661
6333.00,0.9776
6332.00,0.9892
6331.00,1.0006
6330.00,1.0119
6329.00,1.0232
6328.00,1.0343
6327.00,1.0453
6326.00,1.0562
6325.00,1.0673
6324.00,1.0785
6323.00,1.0895
6322.00,1.1003
6321.00,1.1109
6320.00,1.1211
6319.00,1.1308
6318.00,1.1402
6317.00,1.1492
6316.00,1.1580
6315.00,1.1664
6314.00,1.1744
6313.00,1.1823
6312.00,1.1900
6311.00,1.1975
6310.00,1.2048
6309.00,1.2118
6308.00,1.2182
6307.00,1.2241
6306.00,1.2294
6305.00,1.2340
6304.00,1.2383
6303.00,1.2424
6302.00,1.2463
6301.00,1.2500
6300.00,1.2532
6299.00,1.2558
6298.00,1.2581
6297.00,1.2600
6296.00,1.2618
6295.00,1.2632
6294.00,1.2645
6293.00,1.2653
6292.00,1.2655
6291.00,1.2646
6290.00,1.2630
6289.00,1.2608
6288.00,1.2584
6287.00,1.2559
6286.00,1.2534
6285.00,1.2508
6284.00,1.2476
6283.00,1.2439
6282.00,1.2397
6281.00,1.2351
6280.00,1.2301
6279.00,1.2245
6278.00,1.2184
6277.00,1.2122
6276.00,1.2054
6275.00,1.1980
6274.00,1.1901
6273.00,1.1819
6272.00,1.1735
6271.00,1.1648
6270.00,1.1557
6269.00,1.1462
6268.00,1.1363
6267.00,1.1261
6266.00,1.1155
6265.00,1.1045
6264.00,1.0931
6263.00,1.0815
6262.00,1.0696
6261.00,1.0575
6260.00,1.0452
6259.00,1.0328
6258.00,1.0203
6257.00,1.0078
6256.00,0.9952
6255.00,0.9825
6254.00,0.9698
6253.00,0.9573
6252.00,0.9446
6251.00,0.9320
6250.00,0.9196
6249.00,0.9074
6248.00,0.8954
6247.00,0.8835
6246.00,0.8719
6245.00,0.8607
6244.00,0.8498
6243.00,0.8394
6242.00,0.8294
6241.00,0.8200
6240.00,0.8114
6239.00,0.8034
6238.00,0.7961
6237.00,0.7894
6236.00,0.7834
6235.00,0.7779
6234.00,0.7733
6233.00,0.7695
6232.00,0.7665
6231.00,0.7641
6230.00,0.7624
6229.00,0.7617
6228.00,0.7617
6227.00,0.7625
6226.00,0.7639
6225.00,0.7661
6224.00,0.7691
6223.00,0.7730
6222.00,0.7777
6221.00,0.7831
6220.00,0.7892
6219.00,0.7959
6218.00,0.8032
6217.00,0.8111
6216.00,0.8195
6215.00,0.8281
6214.00,0.8372
6213.00,0.8466
6212.00,0.8562
6211.00,0.8662
6210.00,0.8765
6209.00,0.8872
6208.00,0.8981
6207.00,0.9093
6206.00,0.9207
6205.00,0.9323
6204.00,0.9438
6203.00,0.9554
6202.00,0.9670
6201.00,0.9787
6200.00,0.9906
6199.00,1.0024
6198.00,1.0142
6197.00,1.0257
6196.00,1.0368
6195.00,1.0476
6194.00,1.0582
6193.00,1.0687
6192.00,1.0790
6191.00,1.0893
6190.00,1.0994
6189.00,1.1094
6188.00,1.1192
6187.00,1.1288
6186.00,1.1382
6185.00,1.1475
6184.00,1.1564
6183.00,1.1647
6182.00,1.1727
6181.00,1.1803
6180.00,1.1874
6179.00,1.1940
6178.00,1.2003
6177.00,1.2066
6176.00,1.2131
6175.00,1.2191
6174.00,1.2244
6173.00,1.2288
6172.00,1.2326
6171.00,1.2359
6170.00,1.2387
6169.00,1.2414
6168.00,1.2440
6167.00,1.2465
6166.00,1.2486
6165.00,1.2503
6164.00,1.2517
6163.00,1.2526
6162.00,1.2532
6161.00,1.2535
6160.00,1.2535
6159.00,1.2531
6158.00,1.2523
6157.00,1.2510
6156.00,1.2493
6155.00,1.2473
6154.00,1.2447
6153.00,1.2417
6152.00,1.2384
6151.00,1.2349
6150.00,1.2313
6149.00,1.2275
6148.00,1.2232
6147.00,1.2183
6146.00,1.2128
6145.00,1.2068
6144.00,1.2003
6143.00,1.1936
6142.00,1.1866
6141.00,1.1795
6140.00,1.1719
6139.00,1.1636
6138.00,1.1546
6137.00,1.1451
6136.00,1.1354
6135.00,1.1255
6134.00,1.1154
6133.00,1.1051
6132.00,1.0946
6131.00,1.0837
6130.00,1.0723
6129.00,1.0605
6128.00,1.0487
6127.00,1.0367
6126.00,1.0245
6125.00,1.0120
6124.00,0.9994
6123.00,0.9866
6122.00,0.9736
6121.00,0.9605
6120.00,0.9474
6119.00,0.9343
6118.00,0.9215
6117.00,0.9091
6116.00,0.8970
6115.00,0.8852
6114.00,0.8737
6113.00,0.8625
6112.00,0.8516
6111.00,0.8409
6110.00,0.8306
6109.00,0.8209
6108.00,0.8118
6107.00,0.8034
6106.00,0.7955
6105.00,0.7884
6104.00,0.7820
6103.00,0.7764
6102.00,0.7714
6101.00,0.7672
6100.00,0.7638
6099.00,0.7612
6098.00,0.7594
6097.00,0.7585
6096.00,0.7584
6095.00,0.7592
6094.00,0.7608
6093.00,0.7632
6092.00,0.7665
6091.00,0.7705
6090.00,0.7751
6089.00,0.7805
6088.00,0.7867
6087.00,0.7936
6086.00,0.8011
6085.00,0.8092
6084.00,0.8177
6083.00,0.8268
6082.00,0.8362
6081.00,0.8461
6080.00,0.8563
6079.00,0.8669
6078.00,0.8779
6077.00,0.8892
6076.00,0.9008
6075.00,0.9125
6074.00,0.9244
6073.00,0.9363
6072.00,0.9483
6071.00,0.9603
6070.00,0.9723
6069.00,0.9844
6068.00,0.9965
6067.00,1.0086
6066.00,1.0208
6065.00,1.0330
6064.00,1.0451
6063.00,1.0569
6062.00,1.0687
6061.00,1.0803
6060.00,1.0919
6059.00,1.1033
6058.00,1.1146
6057.00,1.1254
6056.00,1.1359
6055.00,1.1461
6054.00,1.1559
6053.00,1.1655
6052.00,1.1751
6051.00,1.1846
6050.00,1.1940
6049.00,1.2029
6048.00,1.2111
6047.00,1.2186
6046.00,1.2256
6045.00,1.2322
6044.00,1.2385
6043.00,1.2446
6042.00,1.2506
6041.00,1.2565
6040.00,1.2619
6039.00,1.2666
6038.00,1.2706
6037.00,1.2743
6036.00,1.2774
6035.00,1.2801
6034.00,1.2824
6033.00,1.2846
6032.00,1.2867
6031.00,1.2884
6030.00,1.2895
6029.00,1.2898
6028.00,1.2896
6027.00,1.2889
6026.00,1.2877
6025.00,1.2862
6024.00,1.2845
6023.00,1.2827
6022.00,1.2803
6021.00,1.2771
6020.00,1.2731
6019.00,1.2685
6018.00,1.2636
6017.00,1.2585
6016.00,1.2533
6015.00,1.2481
6014.00,1.2423
6013.00,1.2360
6012.00,1.2290
6011.00,1.2217
6010.00,1.2139
6009.00,1.2057
6008.00,1.1974
6007.00,1.1889
6006.00,1.1800
6005.00,1.1704
6004.00,1.1599
6003.00,1.1489
6002.00,1.1378
6001.00,1.1263
6000.00,1.1145
5999.00,1.1023
5998.00,1.0901
5997.00,1.0778
5996.00,1.0654
5995.00,1.0527
5994.00,1.0397
5993.00,1.0263
5992.00,1.0126
5991.00,0.9987
5990.00,0.9847
5989.00,0.9709
5988.00,0.9573
5987.00,0.9439
5986.00,0.9307
5985.00,0.9177
5984.00,0.9048
5983.00,0.8920
5982.00,0.8796
5981.00,0.8676
5980.00,0.8562
5979.00,0.8451
5978.00,0.8344
5977.00,0.8243
5976.00,0.8148
5975.00,0.8059
5974.00,0.7977
5973.00,0.7902
5972.00,0.7833
5971.00,0.7771
5970.00,0.7718
5969.00,0.7674
5968.00,0.7639
5967.00,0.7613
5966.00,0.7595
5965.00,0.7586
5964.00,0.7586
5963.00,0.7593
5962.00,0.7608
5961.00,0.7632
5960.00,0.7664
5959.00,0.7706
5958.00,0.7757
5957.00,0.7815
5956.00,0.7880
5955.00,0.7951
5954.00,0.8028
5953.00,0.8111
5952.00,0.8200
5951.00,0.8293
5950.00,0.8391
5949.00,0.8495
5948.00,0.8605
5947.00,0.8718
5946.00,0.8835
5945.00,0.8953
5944.00,0.9073
5943.00,0.9194
5942.00,0.9315
5941.00,0.9438
5940.00,0.9563
5939.00,0.9689
5938.00,0.9816
5937.00,0.9944
5936.00,1.0072
5935.00,1.0200
5934.00,1.0328
5933.00,1.0456
5932.00,1.0583
5931.00,1.0711
5930.00,1.0837
5929.00,1.0960
5928.00,1.1079
5927.00,1.1196
5926.00,1.1312
5925.00,1.1425
5924.00,1.1535
5923.00,1.1641
5922.00,1.1742
5921.00,1.1840
5920.00,1.1937
5919.00,1.2031
5918.00,1.2121
5917.00,1.2207
5916.00,1.2291
5915.00,1.2372
5914.00,1.2449
5913.00,1.2520
5912.00,1.2586
5911.00,1.2649
5910.00,1.2710
5909.00,1.2768
5908.00,1.2822
5907.00,1.2872
5906.00,1.2917
5905.00,1.2958
5904.00,1.2993
5903.00,1.3023
5902.00,1.3050
5901.00,1.3077
5900.00,1.3101
5899.00,1.3121
5898.00,1.3135
5897.00,1.3143
5896.00,1.3145
5895.00,1.3141
5894.00,1.3132
5893.00,1.3119
5892.00,1.3102
5891.00,1.3079
5890.00,1.3051
5889.00,1.3019
5888.00,1.2983
5887.00,1.2945
5886.00,1.2903
5885.00,1.2855
5884.00,1.2802
5883.00,1.2744
5882.00,1.2682
5881.00,1.2618
5880.00,1.2551
5879.00,1.2481
5878.00,1.2408
5877.00,1.2330
5876.00,1.2247
5875.00,1.2158
5874.00,1.2065
5873.00,1.1967
5872.00,1.1867
5871.00,1.1765
5870.00,1.1660
5869.00,1.1550
5868.00,1.1434
5867.00,1.1312
5866.00,1.1187
5865.00,1.1061
5864.00,1.0935
5863.00,1.0809
5862.00,1.0680
5861.00,1.0549
5860.00,1.0415
5859.00,1.0278
5858.00,1.0139
5857.00,1.0001
5856.00,0.9863
5855.00,0.9727
5854.00,0.9591
5853.00,0.9456
5852.00,0.9324
5851.00,0.9194
5850.00,0.9067
5849.00,0.8943
5848.00,0.8822
5847.00,0.8706
5846.00,0.8594
5845.00,0.8487
5844.00,0.8386
5843.00,0.8291
5842.00,0.8204
5841.00,0.8124
5840.00,0.8051
5839.00,0.7987
5838.00,0.7930
5837.00,0.7882
5836.00,0.7841
5835.00,0.7808
5834.00,0.7784
5833.00,0.7770
5832.00,0.7765
5831.00,0.7769
5830.00,0.7782
5829.00,0.7802
5828.00,0.7829
5827.00,0.7865
5826.00,0.7909
5825.00,0.7961
5824.00,0.8019
5823.00,0.8085
5822.00,0.8157
5821.00,0.8236
5820.00,0.8321
5819.00,0.8412
5818.00,0.8508
5817.00,0.8608
5816.00,0.8713
5815.00,0.8821
5814.00,0.8932
5813.00,0.9046
5812.00,0.9163
5811.00,0.9284
5810.00,0.9407
5809.00,0.9530
5808.00,0.9654
5807.00,0.9779
5806.00,0.9905
5805.00,1.0033
5804.00,1.0160
5803.00,1.0286
5802.00,1.0415
5801.00,1.0543
5800.00,1.0671
5799.00,1.0796
5798.00,1.0920
5797.00,1.1042
5796.00,1.1162
5795.00,1.1278
5794.00,1.1391
5793.00,1.1502
5792.00,1.1611
5791.00,1.1718
5790.00,1.1824
5789.00,1.1927
5788.00,1.2028
5787.00,1.2125
5786.00,1.2220
5785.00,1.2311
5784.00,1.2395
5783.00,1.2472
5782.00,1.2547
5781.00,1.2621
5780.00,1.2693
5779.00,1.2762
5778.00,1.2830
5777.00,1.2893
5776.00,1.2951
5775.00,1.3001
5774.00,1.3046
5773.00,1.3088
5772.00,1.3126
5771.00,1.3160
5770.00,1.3190
5769.00,1.3217
5768.00,1.3242
5767.00,1.3265
5766.00,1.3283
5765.00,1.3295
5764.00,1.3300
5763.00,1.3296
5762.00,1.3285
5761.00,1.3271
5760.00,1.3254
5759.00,1.3235
5758.00,1.3216
5757.00,1.3194
5756.00,1.3166
5755.00,1.3132
5754.00,1.3094
5753.00,1.3052
5752.00,1.3005
5751.00,1.2954
5750.00,1.2897
5749.00,1.2835
5748.00,1.2769
5747.00,1.2699
5746.00,1.2626
5745.00,1.2549
5744.00,1.2468
5743.00,1.2382
5742.00,1.2291
5741.00,1.2197
5740.00,1.2098
5739.00,1.1996
5738.00,1.1890
5737.00,1.1781
5736.00,1.1667
5735.00,1.1547
5734.00,1.1424
5733.00,1.1298
5732.00,1.1170
5731.00,1.1036
5730.00,1.0900
5729.00,1.0761
5728.00,1.0622
5727.00,1.0482
5726.00,1.0341
5725.00,1.0198
5724.00,1.0054
5723.00,0.9910
5722.00,0.9765
5721.00,0.9623
5720.00,0.9482
5719.00,0.9344
5718.00,0.9209
5717.00,0.9077
5716.00,0.8946
5715.00,0.8819
5714.00,0.8697
5713.00,0.8581
5712.00,0.8469
5711.00,0.8363
5710.00,0.8263
5709.00,0.8171
5708.00,0.8085
5707.00,0.8007
5706.00,0.7937
5705.00,0.7876
5704.00,0.7823
5703.00,0.7778
5702.00,0.7743
5701.00,0.7717
5700.00,0.7702
5699.00,0.7696
5698.00,0.7698
5697.00,0.7710
5696.00,0.7731
5695.00,0.7761
5694.00,0.7801
5693.00,0.7848
5692.00,0.7904
5691.00,0.7968
5690.00,0.8039
5689.00,0.8116
5688.00,0.8200
5687.00,0.8290
5686.00,0.8385
5685.00,0.8486
5684.00,0.8591
5683.00,0.8701
5682.00,0.8816
5681.00,0.8936
5680.00,0.9059
5679.00,0.9185
5678.00,0.9312
5677.00,0.9441
5676.00,0.9571
5675.00,0.9703
5674.00,0.9836
5673.00,0.9972
5672.00,1.0108
5671.00,1.0243
5670.00,1.0378
5669.00,1.0513
5668.00,1.0647
5667.00,1.0779
5666.00,1.0908
5665.00,1.1036
5664.00,1.1162
5663.00,1.1284
5662.00,1.1404
5661.00,1.1522
5660.00,1.1639
5659.00,1.1754
5658.00,1.1866
5657.00,1.1977
5656.00,1.2084
5655.00,1.2188
5654.00,1.2289
5653.00,1.2387
5652.00,1.2481
5651.00,1.2571
5650.00,1.2655
5649.00,1.2736
5648.00,1.2811
5647.00,1.2880
5646.00,1.2943
5645.00,1.3002
5644.00,1.3060
5643.00,1.3114
5642.00,1.3165
5641.00,1.3211
5640.00,1.3252
5639.00,1.3288
5638.00,1.3318
5637.00,1.3345
5636.00,1.3370
5635.00,1.3392
5634.00,1.3408
5633.00,1.3418
5632.00,1.3422
5631.00,1.3423
5630.00,1.3422
5629.00,1.3417
5628.00,1.3409
5627.00,1.3395
5626.00,1.3374
5625.00,1.3346
5624.00,1.3310
5623.00,1.3271
5622.00,1.3229
5621.00,1.3188
5620.00,1.3144
5619.00,1.3097
5618.00,1.3046
5617.00,1.2989
5616.00,1.2926
5615.00,1.2855
5614.00,1.2779
5613.00,1.2699
5612.00,1.2617
5611.00,1.2530
5610.00,1.2438
5609.00,1.2340
5608.00,1.2239
5607.00,1.2134
5606.00,1.2026
5605.00,1.1913
5604.00,1.1796
5603.00,1.1673
5602.00,1.1544
5601.00,1.1410
5600.00,1.1274
5599.00,1.1135
5598.00,1.0996
5597.00,1.0855
5596.00,1.0712
5595.00,1.0566
5594.00,1.0418
5593.00,1.0268
5592.00,1.0117
5591.00,0.9965
5590.00,0.9813
5589.00,0.9661
5588.00,0.9512
5587.00,0.9364
5586.00,0.9218
5585.00,0.9075
5584.00,0.8936
5583.00,0.8801
5582.00,0.8670
5581.00,0.8544
5580.00,0.8424
5579.00,0.8310
5578.00,0.8201
5577.00,0.8100
5576.00,0.8007
5575.00,0.7921
5574.00,0.7845
5573.00,0.7779
5572.00,0.7721
5571.00,0.7673
5570.00,0.7635
5569.00,0.7607
5568.00,0.7590
5567.00,0.7582
5566.00,0.7585
5565.00,0.7598
5564.00,0.7619
5563.00,0.7650
5562.00,0.7690
5561.00,0.7739
5560.00,0.7798
5559.00,0.7866
5558.00,0.7941
5557.00,0.8024
5556.00,0.8113
5555.00,0.8208
5554.00,0.8308
5553.00,0.8414
5552.00,0.8526
5551.00,0.8643
5550.00,0.8765
5549.00,0.8891
5548.00,0.9020
5547.00,0.9150
5546.00,0.9281
5545.00,0.9413
5544.00,0.9546
5543.00,0.9681
5542.00,0.9817
5541.00,0.9953
5540.00,1.0088
5539.00,1.0223
5538.00,1.0357
5537.00,1.0489
5536.00,1.0619
5535.00,1.0748
5534.00,1.0876
5533.00,1.1002
5532.00,1.1125
5531.00,1.1246
5530.00,1.1364
5529.00,1.1478
5528.00,1.1590
5527.00,1.1698
5526.00,1.1806
5525.00,1.1912
5524.00,1.2019
5523.00,1.2124
5522.00,1.2227
5521.00,1.2323
5520.00,1.2410
5519.00,1.2490
5518.00,1.2566
5517.00,1.2640
5516.00,1.2712
5515.00,1.2782
5514.00,1.2851
5513.00,1.2920
5512.00,1.2984
5511.00,1.3043
5510.00,1.3097
5509.00,1.3148
5508.00,1.3194
5507.00,1.3236
5506.00,1.3275
5505.00,1.3312
5504.00,1.3346
5503.00,1.3375
5502.00,1.3395
5501.00,1.3407
5500.00,1.3416
5499.00,1.3424
5498.00,1.3431
5497.00,1.3435
5496.00,1.3435
5495.00,1.3428
5494.00,1.3416
5493.00,1.3400
5492.00,1.3381
5491.00,1.3357
5490.00,1.3328
5489.00,1.3293
5488.00,1.3251
5487.00,1.3202
5486.00,1.3150
5485.00,1.3095
5484.00,1.3038
5483.00,1.2977
5482.00,1.2910
5481.00,1.2836
5480.00,1.2758
5479.00,1.2674
5478.00,1.2587
5477.00,1.2495
5476.00,1.2397
5475.00,1.2291
5474.00,1.2177
5473.00,1.2057
5472.00,1.1934
5471.00,1.1808
5470.00,1.1680
5469.00,1.1551
5468.00,1.1420
5467.00,1.1288
5466.00,1.1151
5465.00,1.1011
5464.00,1.0865
5463.00,1.0715
5462.00,1.0560
5461.00,1.0401
5460.00,1.0240
5459.00,1.0078
5458.00,0.9917
5457.00,0.9758
5456.00,0.9600
5455.00,0.9445
5454.00,0.9293
5453.00,0.9145
5452.00,0.9001
5451.00,0.8860
5450.00,0.8722
5449.00,0.8591
5448.00,0.8464
5447.00,0.8342
5446.00,0.8225
5445.00,0.8114
5444.00,0.8012
5443.00,0.7918
5442.00,0.7835
5441.00,0.7761
5440.00,0.7699
5439.00,0.7647
5438.00,0.7606
5437.00,0.7576
5436.00,0.7557
5435.00,0.7548
5434.00,0.7550
5433.00,0.7562
5432.00,0.7583
5431.00,0.7614
5430.00,0.7657
5429.00,0.7711
5428.00,0.7776
5427.00,0.7849
5426.00,0.7928
5425.00,0.8014
5424.00,0.8107
5423.00,0.8208
5422.00,0.8317
5421.00,0.8433
5420.00,0.8556
5419.00,0.8681
5418.00,0.8810
5417.00,0.8941
5416.00,0.9075
5415.00,0.9212
5414.00,0.9353
5413.00,0.9496
5412.00,0.9642
5411.00,0.9788
5410.00,0.9936
5409.00,1.0084
5408.00,1.0233
5407.00,1.0382
5406.00,1.0531
5405.00,1.0678
5404.00,1.0823
5403.00,1.0966
5402.00,1.1107
5401.00,1.1246
5400.00,1.1382
5399.00,1.1515
5398.00,1.1645
5397.00,1.1772
5396.00,1.1895
5395.00,1.2017
5394.00,1.2136
5393.00,1.2256
5392.00,1.2372
5391.00,1.2485
5390.00,1.2591
5389.00,1.2691
5388.00,1.2785
5387.00,1.2876
5386.00,1.2965
5385.00,1.3050
5384.00,1.3130
5383.00,1.3205
5382.00,1.3277
5381.00,1.3347
5380.00,1.3415
5379.00,1.3478
5378.00,1.3535
5377.00,1.3585
5376.00,1.3628
5375.00,1.3664
5374.00,1.3695
5373.00,1.3724
5372.00,1.3750
5371.00,1.3772
5370.00,1.3789
5369.00,1.3801
5368.00,1.3808
5367.00,1.3811
5366.00,1.3811
5365.00,1.3808
5364.00,1.3801
5363.00,1.3789
5362.00,1.3771
5361.00,1.3747
5360.00,1.3719
5359.00,1.3685
5358.00,1.3647
5357.00,1.3605
5356.00,1.3557
5355.00,1.3505
5354.00,1.3446
5353.00,1.3382
5352.00,1.3315
5351.00,1.3243
5350.00,1.3167
5349.00,1.3087
5348.00,1.3002
5347.00,1.2912
5346.00,1.2817
5345.00,1.2717
5344.00,1.2611
5343.00,1.2502
5342.00,1.2388
5341.00,1.2270
5340.00,1.2147
5339.00,1.2019
5338.00,1.1886
5337.00,1.1750
5336.00,1.1611
5335.00,1.1470
5334.00,1.1325
5333.00,1.1178
5332.00,1.1026
5331.00,1.0870
5330.00,1.0711
5329.00,1.0548
5328.00,1.0383
5327.00,1.0216
5326.00,1.0050
5325.00,0.9883
5324.00,0.9718
5323.00,0.9554
5322.00,0.9392
5321.00,0.9234
5320.00,0.9079
5319.00,0.8930
5318.00,0.8785
5317.00,0.8645
5316.00,0.8510
5315.00,0.8380
5314.00,0.8258
5313.00,0.8143
5312.00,0.8037
5311.00,0.7940
5310.00,0.7853
5309.00,0.7775
5308.00,0.7708
5307.00,0.7649
5306.00,0.7602
5305.00,0.7566
5304.00,0.7542
5303.00,0.7531
5302.00,0.7532
5301.00,0.7544
5300.00,0.7567
5299.00,0.7601
5298.00,0.7645
5297.00,0.7700
5296.00,0.7764
5295.00,0.7837
5294.00,0.7918
5293.00,0.8006
5292.00,0.8102
5291.00,0.8206
5290.00,0.8317
5289.00,0.8434
5288.00,0.8556
5287.00,0.8682
5286.00,0.8812
5285.00,0.8947
5284.00,0.9086
5283.00,0.9229
5282.00,0.9374
5281.00,0.9520
5280.00,0.9667
5279.00,0.9817
5278.00,0.9969
5277.00,1.0122
5276.00,1.0275
5275.00,1.0427
5274.00,1.0577
5273.00,1.0725
5272.00,1.0871
5271.00,1.1016
5270.00,1.1161
5269.00,1.1306
5268.00,1.1449
5267.00,1.1588
5266.00,1.1723
5265.00,1.1853
5264.00,1.1980
5263.00,1.2105
5262.00,1.2228
5261.00,1.2350
5260.00,1.2468
5259.00,1.2583
5258.00,1.2693
5257.00,1.2798
5256.00,1.2900
5255.00,1.2998
5254.00,1.3092
5253.00,1.3181
5252.00,1.3265
5251.00,1.3344
5250.00,1.3417
5249.00,1.3486
5248.00,1.3552
5247.00,1.3615
5246.00,1.3674
5245.00,1.3729
5244.00,1.3778
5243.00,1.3822
5242.00,1.3861
5241.00,1.3896
5240.00,1.3926
5239.00,1.3953
5238.00,1.3975
5237.00,1.3994
5236.00,1.4008
5235.00,1.4017
5234.00,1.4021
5233.00,1.4021
5232.00,1.4017
5231.00,1.4008
5230.00,1.3992
5229.00,1.3969
5228.00,1.3942
5227.00,1.3911
5226.00,1.3876
5225.00,1.3837
5224.00,1.3793
5223.00,1.3745
5222.00,1.3692
5221.00,1.3635
5220.00,1.3573
5219.00,1.3506
5218.00,1.3437
5217.00,1.3362
5216.00,1.3280
5215.00,1.3193
5214.00,1.3101
5213.00,1.3005
5212.00,1.2905
5211.00,1.2801
5210.00,1.2692
5209.00,1.2577
5208.00,1.2455
5207.00,1.2326
5206.00,1.2190
5205.00,1.2049
5204.00,1.1905
5203.00,1.1758
5202.00,1.1610
5201.00,1.1462
5200.00,1.1311
5199.00,1.1156
5198.00,1.0996
5197.00,1.0831
5196.00,1.0661
5195.00,1.0489
5194.00,1.0317
5193.00,1.0146
5192.00,0.9977
5191.00,0.9808
5190.00,0.9640
5189.00,0.9473
5188.00,0.9310
5187.00,0.9151
5186.00,0.8996
5185.00,0.8846
5184.00,0.8701
5183.00,0.8562
5182.00,0.8429
5181.00,0.8305
5180.00,0.8189
5179.00,0.8084
5178.00,0.7989
5177.00,0.7905
5176.00,0.7830
5175.00,0.7766
5174.00,0.7712
5173.00,0.7671
5172.00,0.7642
5171.00,0.7624
5170.00,0.7619
5169.00,0.7625
5168.00,0.7643
5167.00,0.7672
5166.00,0.7713
5165.00,0.7765
5164.00,0.7828
5163.00,0.7902
5162.00,0.7985
5161.00,0.8077
5160.00,0.8177
5159.00,0.8286
5158.00,0.8401
5157.00,0.8524
5156.00,0.8653
5155.00,0.8788
5154.00,0.8927
5153.00,0.9071
5152.00,0.9218
5151.00,0.9369
5150.00,0.9521
5149.00,0.9676
5148.00,0.9832
5147.00,0.9990
5146.00,1.0148
5145.00,1.0307
5144.00,1.0466
5143.00,1.0625
5142.00,1.0784
5141.00,1.0942
5140.00,1.1099
5139.00,1.1255
5138.00,1.1408
5137.00,1.1557
5136.00,1.1704
5135.00,1.1848
5134.00,1.1989
5133.00,1.2128
5132.00,1.2264
5131.00,1.2397
5130.00,1.2526
5129.00,1.2652
5128.00,1.2774
5127.00,1.2892
5126.00,1.3005
5125.00,1.3113
5124.00,1.3215
5123.00,1.3313
5122.00,1.3408
5121.00,1.3500
5120.00,1.3587
5119.00,1.3668
5118.00,1.3743
5117.00,1.3812
5116.00,1.3874
5115.00,1.3931
5114.00,1.3986
5113.00,1.4040
5112.00,1.4091
5111.00,1.4139
5110.00,1.4181
5109.00,1.4217
5108.00,1.4247
5107.00,1.4270
5106.00,1.4287
5105.00,1.4301
5104.00,1.4311
5103.00,1.4315
5102.00,1.4314
5101.00,1.4308
5100.00,1.4299
5099.00,1.4287
5098.00,1.4272
5097.00,1.4253
5096.00,1.4229
5095.00,1.4198
5094.00,1.4159
5093.00,1.4114
5092.00,1.4065
5091.00,1.4015
5090.00,1.3963
5089.00,1.3908
5088.00,1.3848
5087.00,1.3779
5086.00,1.3703
5085.00,1.3620
5084.00,1.3532
5083.00,1.3440
5082.00,1.3345
5081.00,1.3248
5080.00,1.3147
5079.00,1.3040
5078.00,1.2926
5077.00,1.2806
5076.00,1.2679
5075.00,1.2548
5074.00,1.2411
5073.00,1.2270
5072.00,1.2125
5071.00,1.1976
5070.00,1.1823
5069.00,1.1664
5068.00,1.1501
5067.00,1.1333
5066.00,1.1162
5065.00,1.0988
5064.00,1.0812
5063.00,1.0634
5062.00,1.0454
5061.00,1.0274
5060.00,1.0094
5059.00,0.9914
5058.00,0.9735
5057.00,0.9558
5056.00,0.9382
5055.00,0.9209
5054.00,0.9041
5053.00,0.8879
5052.00,0.8723
5051.00,0.8573
5050.00,0.8430
5049.00,0.8295
5048.00,0.8169
5047.00,0.8052
5046.00,0.7945
5045.00,0.7849
5044.00,0.7764
5043.00,0.7691
5042.00,0.7629
5041.00,0.7581
5040.00,0.7546
5039.00,0.7524
5038.00,0.7514
5037.00,0.7518
5036.00,0.7535
5035.00,0.7563
5034.00,0.7605
5033.00,0.7658
5032.00,0.7724
5031.00,0.7799
5030.00,0.7886
5029.00,0.7982
5028.00,0.8086
5027.00,0.8200
5026.00,0.8321
5025.00,0.8450
5024.00,0.8586
5023.00,0.8726
5022.00,0.8872
5021.00,0.9023
5020.00,0.9177
5019.00,0.9335
5018.00,0.9496
5017.00,0.9659
5016.00,0.9823
5015.00,0.9988
5014.00,1.0154
5013.00,1.0321
5012.00,1.0489
5011.00,1.0655
5010.00,1.0821
5009.00,1.0984
5008.00,1.1147
5007.00,1.1308
5006.00,1.1468
5005.00,1.1629
5004.00,1.1787
5003.00,1.1942
5002.00,1.2092
5001.00,1.2236
5000.00,1.2375
4999.00,1.2512
4998.00,1.2646
4997.00,1.2778
4996.00,1.2908
4995.00,1.3033
4994.00,1.3153
4993.00,1.3268
4992.00,1.3379
4991.00,1.3486
4990.00,1.3588
4989.00,1.3684
4988.00,1.3774
4987.00,1.3858
4986.00,1.3936
4985.00,1.4011
4984.00,1.4083
4983.00,1.4149
4982.00,1.4209
4981.00,1.4264
4980.00,1.4313
4979.00,1.4358
4978.00,1.4399
4977.00,1.4436
4976.00,1.4468
4975.00,1.4496
4974.00,1.4520
4973.00,1.4541
4972.00,1.4556
4971.00,1.4566
4970.00,1.4568
4969.00,1.4564
4968.00,1.4555
4967.00,1.4543
4966.00,1.4528
4965.00,1.4509
4964.00,1.4486
4963.00,1.4458
4962.00,1.4422
4961.00,1.4379
4960.00,1.4331
4959.00,1.4277
4958.00,1.4219
4957.00,1.4159
4956.00,1.4098
4955.00,1.4032
4954.00,1.3962
4953.00,1.3885
4952.00,1.3803
4951.00,1.3716
4950.00,1.3622
4949.00,1.3522
4948.00,1.3415
4947.00,1.3301
4946.00,1.3183
4945.00,1.3059
4944.00,1.2932
4943.00,1.2800
4942.00,1.2663
4941.00,1.2520
4940.00,1.2371
4939.00,1.2217
4938.00,1.2059
4937.00,1.1896
4936.00,1.1729
4935.00,1.1556
4934.00,1.1380
4933.00,1.1200
4932.00,1.1016
4931.00,1.0830
4930.00,1.0643
4929.00,1.0454
4928.00,1.0266
4927.00,1.0078
4926.00,0.9890
4925.00,0.9704
4924.00,0.9519
4923.00,0.9337
4922.00,0.9160
4921.00,0.8988
4920.00,0.8823
4919.00,0.8664
4918.00,0.8513
4917.00,0.8370
4916.00,0.8236
4915.00,0.8113
4914.00,0.8000
4913.00,0.7899
4912.00,0.7810
4911.00,0.7734
4910.00,0.7671
4909.00,0.7621
4908.00,0.7585
4907.00,0.7564
4906.00,0.7556
4905.00,0.7563
4904.00,0.7583
4903.00,0.7617
4902.00,0.7664
4901.00,0.7725
4900.00,0.7797
4899.00,0.7880
4898.00,0.7975
4897.00,0.8080
4896.00,0.8195
4895.00,0.8319
4894.00,0.8452
4893.00,0.8592
4892.00,0.8738
4891.00,0.8890
4890.00,0.9046
4889.00,0.9208
4888.00,0.9373
4887.00,0.9542
4886.00,0.9713
4885.00,0.9887
4884.00,1.0062
4883.00,1.0238
4882.00,1.0413
4881.00,1.0589
4880.00,1.0764
4879.00,1.0938
4878.00,1.1111
4877.00,1.1283
4876.00,1.1454
4875.00,1.1624
4874.00,1.1792
4873.00,1.1957
4872.00,1.2118
4871.00,1.2274
4870.00,1.2426
4869.00,1.2574
4868.00,1.2719
4867.00,1.2861
4866.00,1.2998
4865.00,1.3132
4864.00,1.3261
4863.00,1.3387
4862.00,1.3507
4861.00,1.3622
4860.00,1.3733
4859.00,1.3839
4858.00,1.3940
4857.00,1.4036
4856.00,1.4125
4855.00,1.4206
4854.00,1.4281
4853.00,1.4349
4852.00,1.4414
4851.00,1.4476
4850.00,1.4536
4849.00,1.4593
4848.00,1.4645
4847.00,1.4690
4846.00,1.4728
4845.00,1.4762
4844.00,1.4791
4843.00,1.4816
4842.00,1.4837
4841.00,1.4853
4840.00,1.4863
4839.00,1.4869
4838.00,1.4872
4837.00,1.4871
4836.00,1.4865
4835.00,1.4854
4834.00,1.4835
4833.00,1.4810
4832.00,1.4782
4831.00,1.4751
4830.00,1.4717
4829.00,1.4677
4828.00,1.4629
4827.00,1.4574
4826.00,1.4513
4825.00,1.4450
4824.00,1.4386
4823.00,1.4319
4822.00,1.4246
4821.00,1.4165
4820.00,1.4075
4819.00,1.3979
4818.00,1.3879
4817.00,1.3776
4816.00,1.3667
4815.00,1.3551
4814.00,1.3426
4813.00,1.3294
4812.00,1.3159
4811.00,1.3020
4810.00,1.2879
4809.00,1.2734
4808.00,1.2582
4807.00,1.2424
4806.00,1.2260
4805.00,1.2090
4804.00,1.1914
4803.00,1.1732
4802.00,1.1545
4801.00,1.1355
4800.00,1.1163
4799.00,1.0968
4798.00,1.0772
4797.00,1.0575
4796.00,1.0375
4795.00,1.0175
4794.00,0.9974
4793.00,0.9775
4792.00,0.9580
4791.00,0.9388
4790.00,0.9201
4789.00,0.9019
4788.00,0.8844
4787.00,0.8675
4786.00,0.8514
4785.00,0.8361
4784.00,0.8219
4783.00,0.8087
4782.00,0.7968
4781.00,0.7862
4780.00,0.7768
4779.00,0.7689
4778.00,0.7623
4777.00,0.7572
4776.00,0.7537
4775.00,0.7517
4774.00,0.7512
4773.00,0.7523
4772.00,0.7548
4771.00,0.7588
4770.00,0.7643
4769.00,0.7711
4768.00,0.7792
4767.00,0.7885
4766.00,0.7990
4765.00,0.8105
4764.00,0.8231
4763.00,0.8366
4762.00,0.8509
4761.00,0.8659
4760.00,0.8816
4759.00,0.8979
4758.00,0.9147
4757.00,0.9319
4756.00,0.9494
4755.00,0.9673
4754.00,0.9854
4753.00,1.0037
4752.00,1.0222
4751.00,1.0407
4750.00,1.0592
4749.00,1.0777
4748.00,1.0961
4747.00,1.1146
4746.00,1.1329
4745.00,1.1511
4744.00,1.1690
4743.00,1.1866
4742.00,1.2039
4741.00,1.2210
4740.00,1.2378
4739.00,1.2543
4738.00,1.2704
4737.00,1.2860
4736.00,1.3013
4735.00,1.3161
4734.00,1.3305
4733.00,1.3444
4732.00,1.3577
4731.00,1.3703
4730.00,1.3823
4729.00,1.3938
4728.00,1.4048
4727.00,1.4154
4726.00,1.4255
4725.00,1.4352
4724.00,1.4445
4723.00,1.4534
4722.00,1.4618
4721.00,1.4696
4720.00,1.4767
4719.00,1.4832
4718.00,1.4890
4717.00,1.4943
4716.00,1.4991
4715.00,1.5036
4714.00,1.5079
4713.00,1.5120
4712.00,1.5156
4711.00,1.5183
4710.00,1.5203
4709.00,1.5214
4708.00,1.5221
4707.00,1.5226
4706.00,1.5228
4705.00,1.5227
4704.00,1.5218
4703.00,1.5202
4702.00,1.5181
4701.00,1.5154
4700.00,1.5124
4699.00,1.5089
4698.00,1.5050
4697.00,1.5007
4696.00,1.4962
4695.00,1.4914
4694.00,1.4863
4693.00,1.4807
4692.00,1.4742
4691.00,1.4669
4690.00,1.4588
4689.00,1.4502
4688.00,1.4411
4687.00,1.4318
4686.00,1.4220
4685.00,1.4119
4684.00,1.4013
4683.00,1.3902
4682.00,1.3785
4681.00,1.3661
4680.00,1.3532
4679.00,1.3396
4678.00,1.3256
4677.00,1.3112
4676.00,1.2962
4675.00,1.2807
4674.00,1.2645
4673.00,1.2478
4672.00,1.2306
4671.00,1.2130
4670.00,1.1948
4669.00,1.1760
4668.00,1.1568
4667.00,1.1371
4666.00,1.1171
4665.00,1.0968
4664.00,1.0764
4663.00,1.0560
4662.00,1.0355
4661.00,1.0152
4660.00,0.9949
4659.00,0.9748
4658.00,0.9551
4657.00,0.9358
4656.00,0.9171
4655.00,0.8989
4654.00,0.8816
4653.00,0.8652
4652.00,0.8498
4651.00,0.8355
4650.00,0.8224
4649.00,0.8106
4648.00,0.8002
4647.00,0.7912
4646.00,0.7837
4645.00,0.7778
4644.00,0.7735
4643.00,0.7708
4642.00,0.7698
4641.00,0.7704
4640.00,0.7727
4639.00,0.7765
4638.00,0.7820
4637.00,0.7890
4636.00,0.7975
4635.00,0.8072
4634.00,0.8181
4633.00,0.8301
4632.00,0.8431
4631.00,0.8571
4630.00,0.8721
4629.00,0.8878
4628.00,0.9043
4627.00,0.9213
4626.00,0.9389
4625.00,0.9569
4624.00,0.9753
4623.00,0.9940
4622.00,1.0129
4621.00,1.0320
4620.00,1.0513
4619.00,1.0707
4618.00,1.0901
4617.00,1.1094
4616.00,1.1286
4615.00,1.1475
4614.00,1.1663
4613.00,1.1848
4612.00,1.2030
4611.00,1.2210
4610.00,1.2387
4609.00,1.2561
4608.00,1.2731
4607.00,1.2897
4606.00,1.3060
4605.00,1.3219
4604.00,1.3374
4603.00,1.3521
4602.00,1.3662
4601.00,1.3798
4600.00,1.3930
4599.00,1.4059
4598.00,1.4185
4597.00,1.4306
4596.00,1.4420
4595.00,1.4524
4594.00,1.4621
4593.00,1.4713
4592.00,1.4800
4591.00,1.4885
4590.00,1.4968
4589.00,1.5047
4588.00,1.5121
4587.00,1.5187
4586.00,1.5248
4585.00,1.5304
4584.00,1.5354
4583.00,1.5397
4582.00,1.5434
4581.00,1.5466
4580.00,1.5493
4579.00,1.5514
4578.00,1.5530
4577.00,1.5540
4576.00,1.5546
4575.00,1.5550
4574.00,1.5552
4573.00,1.5553
4572.00,1.5549
4571.00,1.5538
4570.00,1.5521
4569.00,1.5497
4568.00,1.5467
4567.00,1.5432
4566.00,1.5391
4565.00,1.5347
4564.00,1.5297
4563.00,1.5243
4562.00,1.5183
4561.00,1.5118
4560.00,1.5045
4559.00,1.4965
4558.00,1.4880
4557.00,1.4791
4556.00,1.4699
4555.00,1.4601
4554.00,1.4499
4553.00,1.4390
4552.00,1.4276
4551.00,1.4155
4550.00,1.4029
4549.00,1.3896
4548.00,1.3757
4547.00,1.3612
4546.00,1.3461
4545.00,1.3305
4544.00,1.3142
4543.00,1.2973
4542.00,1.2797
4541.00,1.2614
4540.00,1.2425
4539.00,1.2230
4538.00,1.2030
4537.00,1.1826
4536.00,1.1618
4535.00,1.1406
4534.00,1.1191
4533.00,1.0973
4532.00,1.0754
4531.00,1.0535
4530.00,1.0315
4529.00,1.0097
4528.00,0.9880
4527.00,0.9667
4526.00,0.9458
4525.00,0.9255
4524.00,0.9059
4523.00,0.8872
4522.00,0.8695
4521.00,0.8528
4520.00,0.8372
4519.00,0.8228
4518.00,0.8099
4517.00,0.7984
4516.00,0.7885
4515.00,0.7802
4514.00,0.7735
4513.00,0.7686
4512.00,0.7654
4511.00,0.7639
4510.00,0.7641
4509.00,0.7661
4508.00,0.7699
4507.00,0.7754
4506.00,0.7825
4505.00,0.7911
4504.00,0.8012
4503.00,0.8125
4502.00,0.8251
4501.00,0.8389
4500.00,0.8537
4499.00,0.8696
4498.00,0.8863
4497.00,0.9038
4496.00,0.9219
4495.00,0.9405
4494.00,0.9595
4493.00,0.9791
4492.00,0.9989
4491.00,1.0190
4490.00,1.0394
4489.00,1.0599
4488.00,1.0805
4487.00,1.1011
4486.00,1.1214
4485.00,1.1416
4484.00,1.1616
4483.00,1.1815
4482.00,1.2012
4481.00,1.2207
4480.00,1.2400
4479.00,1.2589
4478.00,1.2776
4477.00,1.2958
4476.00,1.3136
4475.00,1.3308
4474.00,1.3474
4473.00,1.3633
4472.00,1.3788
4471.00,1.3937
4470.00,1.4082
4469.00,1.4223
4468.00,1.4358
4467.00,1.4487
4466.00,1.4610
4465.00,1.4728
4464.00,1.4843
4463.00,1.4953
4462.00,1.5057
4461.00,1.5153
4460.00,1.5241
4459.00,1.5322
4458.00,1.5397
4457.00,1.5469
4456.00,1.5538
4455.00,1.5602
4454.00,1.5660
4453.00,1.5712
4452.00,1.5759
4451.00,1.5802
4450.00,1.5841
4449.00,1.5876
4448.00,1.5906
4447.00,1.5929
4446.00,1.5945
4445.00,1.5955
4444.00,1.5960
4443.00,1.5961
4442.00,1.5960
4441.00,1.5955
4440.00,1.5945
4439.00,1.5929
4438.00,1.5908
4437.00,1.5882
4436.00,1.5853
4435.00,1.5820
4434.00,1.5781
4433.00,1.5735
4432.00,1.5679
4431.00,1.5615
4430.00,1.5546
4429.00,1.5474
4428.00,1.5399
4427.00,1.5321
4426.00,1.5241
4425.00,1.5155
4424.00,1.5061
4423.00,1.4959
4422.00,1.4850
4421.00,1.4735
4420.00,1.4614
4419.00,1.4488
4418.00,1.4356
4417.00,1.4218
4416.00,1.4075
4415.00,1.3927
4414.00,1.3773
4413.00,1.3612
4412.00,1.3445
4411.00,1.3272
4410.00,1.3092
4409.00,1.2905
4408.00,1.2711
4407.00,1.2512
4406.00,1.2311
4405.00,1.2109
4404.00,1.1905
4403.00,1.1699
4402.00,1.1490
4401.00,1.1279
4400.00,1.1068
4399.00,1.0857
4398.00,1.0649
4397.00,1.0445
4396.00,1.0247
4395.00,1.0055
4394.00,0.9870
4393.00,0.9693
4392.00,0.9523
4391.00,0.9365
4390.00,0.9218
4389.00,0.9084
4388.00,0.8962
4387.00,0.8855
4386.00,0.8761
4385.00,0.8683
4384.00,0.8619
4383.00,0.8572
4382.00,0.8541
4381.00,0.8525
4380.00,0.8526
4379.00,0.8542
4378.00,0.8574
4377.00,0.8620
4376.00,0.8680
4375.00,0.8752
4374.00,0.8838
4373.00,0.8934
4372.00,0.9041
4371.00,0.9157
4370.00,0.9282
4369.00,0.9414
4368.00,0.9553
4367.00,0.9699
4366.00,0.9852
4365.00,1.0010
4364.00,1.0173
4363.00,1.0339
4362.00,1.0508
4361.00,1.0679
4360.00,1.0853
4359.00,1.1031
4358.00,1.1212
4357.00,1.1396
4356.00,1.1579
4355.00,1.1763
4354.00,1.1947
4353.00,1.2132
4352.00,1.2316
4351.00,1.2499
4350.00,1.2681
4349.00,1.2860
4348.00,1.3037
4347.00,1.3211
4346.00,1.3382
4345.00,1.3549
4344.00,1.3711
4343.00,1.3870
4342.00,1.4025
4341.00,1.4175
4340.00,1.4321
4339.00,1.4463
4338.00,1.4600
4337.00,1.4736
4336.00,1.4868
4335.00,1.4996
4334.00,1.5116
4333.00,1.5230
4332.00,1.5338
4331.00,1.5442
4330.00,1.5543
4329.00,1.5639
4328.00,1.5728
4327.00,1.5810
4326.00,1.5885
4325.00,1.5957
4324.00,1.6025
4323.00,1.6089
4322.00,1.6148
4321.00,1.6201
4320.00,1.6248
4319.00,1.6288
4318.00,1.6324
4317.00,1.6355
4316.00,1.6381
4315.00,1.6401
4314.00,1.6416
4313.00,1.6427
4312.00,1.6435
4311.00,1.6439
4310.00,1.6440
4309.00,1.6436
4308.00,1.6426
4307.00,1.6408
4306.00,1.6385
4305.00,1.6355
4304.00,1.6320
4303.00,1.6281
4302.00,1.6237
4301.00,1.6190
4300.00,1.6140
4299.00,1.6085
4298.00,1.6025
4297.00,1.5961
4296.00,1.5891
4295.00,1.5815
4294.00,1.5734
4293.00,1.5646
4292.00,1.5553
4291.00,1.5454
4290.00,1.5350
4289.00,1.5240
4288.00,1.5125
4287.00,1.5004
4286.00,1.4880
4285.00,1.4753
4284.00,1.4621
4283.00,1.4484
4282.00,1.4338
4281.00,1.4185
4280.00,1.4024
4279.00,1.3859
4278.00,1.3689
4277.00,1.3513
4276.00,1.3331
4275.00,1.3141
4274.00,1.2946
4273.00,1.2745
4272.00,1.2541
4271.00,1.2333
4270.00,1.2122
4269.00,1.1907
4268.00,1.1690
4267.00,1.1472
4266.00,1.1252
4265.00,1.1032
4264.00,1.0812
4263.00,1.0594
4262.00,1.0378
4261.00,1.0166
4260.00,0.9958
4259.00,0.9756
4258.00,0.9563
4257.00,0.9380
4256.00,0.9207
4255.00,0.9047
4254.00,0.8900
4253.00,0.8768
4252.00,0.8652
4251.00,0.8552
4250.00,0.8471
4249.00,0.8407
4248.00,0.8363
4247.00,0.8338
4246.00,0.8333
4245.00,0.8349
4244.00,0.8385
4243.00,0.8439
4242.00,0.8512
4241.00,0.8602
4240.00,0.8709
4239.00,0.8831
4238.00,0.8967
4237.00,0.9115
4236.00,0.9276
4235.00,0.9446
4234.00,0.9626
4233.00,0.9814
4232.00,1.0009
4231.00,1.0211
4230.00,1.0417
4229.00,1.0627
4228.00,1.0839
4227.00,1.1053
4226.00,1.1267
4225.00,1.1484
4224.00,1.1701
4223.00,1.1918
4222.00,1.2132
4221.00,1.2343
4220.00,1.2551
4219.00,1.2756
4218.00,1.2957
4217.00,1.3156
4216.00,1.3351
4215.00,1.3542
4214.00,1.3730
4213.00,1.3913
4212.00,1.4090
4211.00,1.4261
4210.00,1.4427
4209.00,1.4589
4208.00,1.4747
4207.00,1.4898
4206.00,1.5043
4205.00,1.5181
4204.00,1.5312
4203.00,1.5439
4202.00,1.5563
4201.00,1.5684
4200.00,1.5801
4199.00,1.5910
4198.00,1.6010
4197.00,1.6102
4196.00,1.6188
4195.00,1.6270
4194.00,1.6347
4193.00,1.6420
4192.00,1.6488
4191.00,1.6552
4190.00,1.6612
4189.00,1.6668
4188.00,1.6718
4187.00,1.6760
4186.00,1.6794
4185.00,1.6823
4184.00,1.6848
4183.00,1.6870
4182.00,1.6890
4181.00,1.6907
4180.00,1.6919
4179.00,1.6923
4178.00,1.6919
4177.00,1.6910
4176.00,1.6897
4175.00,1.6881
4174.00,1.6860
4173.00,1.6835
4172.00,1.6804
4171.00,1.6769
4170.00,1.6730
4169.00,1.6687
4168.00,1.6638
4167.00,1.6583
4166.00,1.6522
4165.00,1.6457
4164.00,1.6387
4163.00,1.6314
4162.00,1.6235
4161.00,1.6150
4160.00,1.6056
4159.00,1.5954
4158.00,1.5846
4157.00,1.5732
4156.00,1.5614
4155.00,1.5492
4154.00,1.5366
4153.00,1.5235
4152.00,1.5096
4151.00,1.4949
4150.00,1.4793
4149.00,1.4629
4148.00,1.4459
4147.00,1.4283
4146.00,1.4100
4145.00,1.3911
4144.00,1.3715
4143.00,1.3511
4142.00,1.3300
4141.00,1.3084
4140.00,1.2862
4139.00,1.2636
4138.00,1.2405
4137.00,1.2171
4136.00,1.1934
4135.00,1.1694
4134.00,1.1454
4133.00,1.1214
4132.00,1.0975
4131.00,1.0740
4130.00,1.0508
4129.00,1.0283
4128.00,1.0065
4127.00,0.9857
4126.00,0.9658
4125.00,0.9470
4124.00,0.9295
4123.00,0.9133
4122.00,0.8986
4121.00,0.8856
4120.00,0.8744
4119.00,0.8650
4118.00,0.8576
4117.00,0.8522
4116.00,0.8489
4115.00,0.8476
4114.00,0.8485
4113.00,0.8514
4112.00,0.8563
4111.00,0.8631
4110.00,0.8717
4109.00,0.8821
4108.00,0.8941
4107.00,0.9076
4106.00,0.9225
4105.00,0.9387
4104.00,0.9559
4103.00,0.9741
4102.00,0.9932
4101.00,1.0130
4100.00,1.0336
4099.00,1.0547
4098.00,1.0762
4097.00,1.0982
4096.00,1.1204
4095.00,1.1429
4094.00,1.1654
4093.00,1.1879
4092.00,1.2102
4091.00,1.2326
4090.00,1.2549
4089.00,1.2772
4088.00,1.2992
4087.00,1.3209
4086.00,1.3420
4085.00,1.3626
4084.00,1.3828
4083.00,1.4026
4082.00,1.4221
4081.00,1.4411
4080.00,1.4595
4079.00,1.4771
4078.00,1.4940
4077.00,1.5103
4076.00,1.5261
4075.00,1.5414
4074.00,1.5561
4073.00,1.5703
4072.00,1.5837
4071.00,1.5965
4070.00,1.6088
4069.00,1.6206
4068.00,1.6318
4067.00,1.6425
4066.00,1.6525
4065.00,1.6618
4064.00,1.6704
4063.00,1.6785
4062.00,1.6860
4061.00,1.6930
4060.00,1.6994
4059.00,1.7054
4058.00,1.7107
4057.00,1.7155
4056.00,1.7198
4055.00,1.7237
4054.00,1.7272
4053.00,1.7301
4052.00,1.7323
4051.00,1.7340
4050.00,1.7352
4049.00,1.7359
4048.00,1.7362
4047.00,1.7359
4046.00,1.7351
4045.00,1.7338
4044.00,1.7322
4043.00,1.7304
4042.00,1.7282
4041.00,1.7254
4040.00,1.7220
4039.00,1.7180
4038.00,1.7134
4037.00,1.7081
4036.00,1.7021
4035.00,1.6956
4034.00,1.6886
4033.00,1.6812
4032.00,1.6733
4031.00,1.6648
4030.00,1.6557
4029.00,1.6459
4028.00,1.6355
4027.00,1.6244
4026.00,1.6126
4025.00,1.6002
4024.00,1.5873
4023.00,1.5737
4022.00,1.5596
4021.00,1.5449
4020.00,1.5298
4019.00,1.5140
4018.00,1.4974
4017.00,1.4800
4016.00,1.4621
4015.00,1.4436
4014.00,1.4248
4013.00,1.4053
4012.00,1.3850
4011.00,1.3638
4010.00,1.3419
4009.00,1.3193
4008.00,1.2962
4007.00,1.2724
4006.00,1.2480
4005.00,1.2232
4004.00,1.1981
4003.00,1.1729
4002.00,1.1476
4001.00,1.1223
4000.00,1.0969
3999.00,1.0719
3998.00,1.0472
3997.00,1.0232
3996.00,1.0000
3995.00,0.9777
3994.00,0.9567
3993.00,0.9372
3992.00,0.9192
3991.00,0.9030
3990.00,0.8888
3989.00,0.8766
3988.00,0.8666
3987.00,0.8588
3986.00,0.8533
3985.00,0.8502
3984.00,0.8494
3983.00,0.8511
3982.00,0.8551
3981.00,0.8613
3980.00,0.8696
3979.00,0.8799
3978.00,0.8920
3977.00,0.9060
3976.00,0.9216
3975.00,0.9386
3974.00,0.9568
3973.00,0.9761
3972.00,0.9962
3971.00,1.0172
3970.00,1.0389
3969.00,1.0614
3968.00,1.0845
3967.00,1.1081
3966.00,1.1320
3965.00,1.1560
3964.00,1.1801
3963.00,1.2043
3962.00,1.2285
3961.00,1.2527
3960.00,1.2767
3959.00,1.3003
3958.00,1.3235
3957.00,1.3464
3956.00,1.3687
3955.00,1.3905
3954.00,1.4118
3953.00,1.4325
3952.00,1.4528
3951.00,1.4726
3950.00,1.4917
3949.00,1.5103
3948.00,1.5282
3947.00,1.5456
3946.00,1.5623
3945.00,1.5784
3944.00,1.5939
3943.00,1.6090
3942.00,1.6234
3941.00,1.6372
3940.00,1.6502
3939.00,1.6626
3938.00,1.6746
3937.00,1.6858
3936.00,1.6962
3935.00,1.7055
3934.00,1.7143
3933.00,1.7229
3932.00,1.7313
3931.00,1.7392
3930.00,1.7463
3929.00,1.7525
3928.00,1.7581
3927.00,1.7633
3926.00,1.7682
3925.00,1.7730
3924.00,1.7776
3923.00,1.7815
3922.00,1.7845
3921.00,1.7866
3920.00,1.7884
3919.00,1.7902
3918.00,1.7918
3917.00,1.7928
3916.00,1.7932
3915.00,1.7930
3914.00,1.7921
3913.00,1.7907
3912.00,1.7887
3911.00,1.7861
3910.00,1.7827
3909.00,1.7786
3908.00,1.7744
3907.00,1.7699
3906.00,1.7649
3905.00,1.7593
3904.00,1.7532
3903.00,1.7468
3902.00,1.7397
3901.00,1.7318
3900.00,1.7234
3899.00,1.7147
3898.00,1.7054
3897.00,1.6950
3896.00,1.6835
3895.00,1.6715
3894.00,1.6590
3893.00,1.6459
3892.00,1.6318
3891.00,1.6170
3890.00,1.6017
3889.00,1.5859
3888.00,1.5695
3887.00,1.5524
3886.00,1.5345
3885.00,1.5155
3884.00,1.4955
3883.00,1.4746
3882.00,1.4526
3881.00,1.4299
3880.00,1.4064
3879.00,1.3818
3878.00,1.3564
3877.00,1.3304
3876.00,1.3043
3875.00,1.2777
3874.00,1.2507
3873.00,1.2232
3872.00,1.1949
3871.00,1.1657
3870.00,1.1360
3869.00,1.1069
3868.00,1.0790
3867.00,1.0519
3866.00,1.0258
3865.00,1.0010
3864.00,0.9773
3863.00,0.9542
3862.00,0.9321
3861.00,0.9120
3860.00,0.8946
3859.00,0.8803
3858.00,0.8688
3857.00,0.8602
3856.00,0.8544
3855.00,0.8515
3854.00,0.8510
3853.00,0.8526
3852.00,0.8559
3851.00,0.8603
3850.00,0.8657
3849.00,0.8735
3848.00,0.8844
3847.00,0.8973
3846.00,0.9117
3845.00,0.9283
3844.00,0.9474
3843.00,0.9684
3842.00,0.9904
3841.00,1.0129
3840.00,1.0362
3839.00,1.0610
3838.00,1.0880
3837.00,1.1167
3836.00,1.1455
3835.00,1.1734
3834.00,1.2004
3833.00,1.2269
3832.00,1.2534
3831.00,1.2800
3830.00,1.3061
3829.00,1.3315
3828.00,1.3563
3827.00,1.3808
3826.00,1.4050
3825.00,1.4282
3824.00,1.4497
3823.00,1.4704
3822.00,1.4921
3821.00,1.5155
3820.00,1.5393
3819.00,1.5608
3818.00,1.5795
3817.00,1.5976
3816.00,1.6171
3815.00,1.6369
3814.00,1.6550
3813.00,1.6705
3812.00,1.6844
3811.00,1.6977
3810.00,1.7099
3809.00,1.7206
3808.00,1.7309
3807.00,1.7420
3806.00,1.7538
3805.00,1.7647
3804.00,1.7735
3803.00,1.7810
3802.00,1.7890
3801.00,1.7976
3800.00,1.8052
3799.00,1.8108
3798.00,1.8153
3797.00,1.8205
3796.00,1.8264
3795.00,1.8313
3794.00,1.8346
3793.00,1.8366
3792.00,1.8381
3791.00,1.8395
3790.00,1.8405
3789.00,1.8408
3788.00,1.8404
3787.00,1.8397
3786.00,1.8389
3785.00,1.8376
3784.00,1.8354
3783.00,1.8321
3782.00,1.8280
3781.00,1.8236
3780.00,1.8194
3779.00,1.8151
3778.00,1.8102
3777.00,1.8043
3776.00,1.7976
3775.00,1.7909
3774.00,1.7845
3773.00,1.7779
3772.00,1.7703
3771.00,1.7620
3770.00,1.7534
3769.00,1.7443
3768.00,1.7343
3767.00,1.7234
3766.00,1.7122
3765.00,1.7010
3764.00,1.6894
3763.00,1.6769
3762.00,1.6635
3761.00,1.6493
3760.00,1.6342
3759.00,1.6178
3758.00,1.6000
3757.00,1.5811
3756.00,1.5619
3755.00,1.5426
3754.00,1.5229
3753.00,1.5020
3752.00,1.4795
3751.00,1.4548
3750.00,1.4279
3749.00,1.4000
3748.00,1.3723
3747.00,1.3454
3746.00,1.3180
3745.00,1.2881
3744.00,1.2557
3743.00,1.2229
3742.00,1.1912
3741.00,1.1608
3740.00,1.1315
3739.00,1.1030
3738.00,1.0740
3737.00,1.0447
3736.00,1.0164
3735.00,0.9903
3734.00,0.9665
3733.00,0.9445
3732.00,0.9245
3731.00,0.9070
3730.00,0.8923
3729.00,0.8805
3728.00,0.8717
3727.00,0.8663
3726.00,0.8640
3725.00,0.8646
3724.00,0.8678
3723.00,0.8739
3722.00,0.8830
3721.00,0.8948
3720.00,0.9087
3719.00,0.9247
3718.00,0.9431
3717.00,0.9637
3716.00,0.9857
3715.00,1.0086
3714.00,1.0330
3713.00,1.0598
3712.00,1.0895
3711.00,1.1213
3710.00,1.1539
3709.00,1.1858
3708.00,1.2170
3707.00,1.2480
3706.00,1.2788
3705.00,1.3090
3704.00,1.3384
3703.00,1.3672
3702.00,1.3959
3701.00,1.4248
3700.00,1.4537
3699.00,1.4821
3698.00,1.5095
3697.00,1.5357
3696.00,1.5604
3695.00,1.5832
3694.00,1.6043
3693.00,1.6244
3692.00,1.6441
3691.00,1.6635
3690.00,1.6829
3689.00,1.7024
3688.00,1.7220
3687.00,1.7410
3686.00,1.7584
3685.00,1.7742
3684.00,1.7889
3683.00,1.8023
3682.00,1.8142
3681.00,1.8250
3680.00,1.8353
3679.00,1.8452
3678.00,1.8546
3677.00,1.8635
3676.00,1.8731
3675.00,1.8840
3674.00,1.8948
3673.00,1.9037
3672.00,1.9105
3671.00,1.9171
3670.00,1.9241
3669.00,1.9303
3668.00,1.9349
3667.00,1.9379
3666.00,1.9403
3665.00,1.9427
3664.00,1.9445
3663.00,1.9452
3662.00,1.9451
3661.00,1.9448
3660.00,1.9448
3659.00,1.9447
3658.00,1.9441
3657.00,1.9430
3656.00,1.9417
3655.00,1.9403
3654.00,1.9382
3653.00,1.9350
3652.00,1.9312
3651.00,1.9269
3650.00,1.9222
3649.00,1.9170
3648.00,1.9111
3647.00,1.9044
3646.00,1.8972
3645.00,1.8898
3644.00,1.8823
3643.00,1.8742
3642.00,1.8655
3641.00,1.8565
3640.00,1.8474
3639.00,1.8380
3638.00,1.8282
3637.00,1.8179
3636.00,1.8072
3635.00,1.7962
3634.00,1.7852
3633.00,1.7741
3632.00,1.7626
3631.00,1.7506
3630.00,1.7383
3629.00,1.7256
3628.00,1.7126
3627.00,1.6990
3626.00,1.6847
3625.00,1.6702
3624.00,1.6559
3623.00,1.6412
3622.00,1.6260
3621.00,1.6107
3620.00,1.5957
3619.00,1.5810
3618.00,1.5663
3617.00,1.5516
3616.00,1.5373
3615.00,1.5236
3614.00,1.5105
3613.00,1.4980
3612.00,1.4860
3611.00,1.4745
3610.00,1.4639
3609.00,1.4544
3608.00,1.4458
3607.00,1.4381
3606.00,1.4309
3605.00,1.4244
3604.00,1.4189
3603.00,1.4146
3602.00,1.4112
3601.00,1.4085
3600.00,1.4061
3599.00,1.4045
3598.00,1.4041
3597.00,1.4053
3596.00,1.4081
3595.00,1.4117
3594.00,1.4160
3593.00,1.4208
3592.00,1.4264
3591.00,1.4327
3590.00,1.4403
3589.00,1.4493
3588.00,1.4599
3587.00,1.4719
3586.00,1.4844
3585.00,1.4968
3584.00,1.5092
3583.00,1.5221
3582.00,1.5356
3581.00,1.5496
3580.00,1.5639
3579.00,1.5786
3578.00,1.5938
3577.00,1.6095
3576.00,1.6253
3575.00,1.6412
3574.00,1.6569
3573.00,1.6727
3572.00,1.6887
3571.00,1.7048
3570.00,1.7208
3569.00,1.7367
3568.00,1.7527
3567.00,1.7690
3566.00,1.7855
3565.00,1.8015
3564.00,1.8166
3563.00,1.8309
3562.00,1.8450
3561.00,1.8589
3560.00,1.8725
3559.00,1.8857
3558.00,1.8987
3557.00,1.9113
3556.00,1.9237
3555.00,1.9357
3554.00,1.9473
3553.00,1.9584
3552.00,1.9689
3551.00,1.9784
3550.00,1.9870
3549.00,1.9953
3548.00,2.0038
3547.00,2.0126
3546.00,2.0214
3545.00,2.0296
3544.00,2.0370
3543.00,2.0436
3542.00,2.0494
3541.00,2.0550
3540.00,2.0605
3539.00,2.0656
3538.00,2.0705
3537.00,2.0752
3536.00,2.0800
3535.00,2.0845
3534.00,2.0880
3533.00,2.0907
3532.00,2.0928
3531.00,2.0950
3530.00,2.0975
3529.00,2.0998
3528.00,2.1013
3527.00,2.1018
3526.00,2.1016
3525.00,2.1015
3524.00,2.1019
3523.00,2.1029
3522.00,2.1039
3521.00,2.1041
3520.00,2.1032
3519.00,2.1012
3518.00,2.0991
3517.00,2.0972
3516.00,2.0953
3515.00,2.0930
3514.00,2.0897
3513.00,2.0858
3512.00,2.0814
3511.00,2.0768
3510.00,2.0723
3509.00,2.0678
3508.00,2.0634
3507.00,2.0585
3506.00,2.0528
3505.00,2.0462
3504.00,2.0391
3503.00,2.0317
3502.00,2.0243
3501.00,2.0170
3500.00,2.0096
3499.00,2.0017
3498.00,1.9933
3497.00,1.9845
3496.00,1.9752
3495.00,1.9655
3494.00,1.9552
3493.00,1.9444
3492.00,1.9332
3491.00,1.9216
3490.00,1.9098
3489.00,1.8976
3488.00,1.8851
3487.00,1.8721
3486.00,1.8589
3485.00,1.8454
3484.00,1.8320
3483.00,1.8186
3482.00,1.8051
3481.00,1.7914
3480.00,1.7775
3479.00,1.7635
3478.00,1.7496
3477.00,1.7360
3476.00,1.7225
3475.00,1.7088
3474.00,1.6952
3473.00,1.6820
3472.00,1.6693
3471.00,1.6571
3470.00,1.6451
3469.00,1.6335
3468.00,1.6223
3467.00,1.6118
3466.00,1.6020
3465.00,1.5930
3464.00,1.5849
3463.00,1.5777
3462.00,1.5715
3461.00,1.5663
3460.00,1.5620
3459.00,1.5588
3458.00,1.5567
3457.00,1.5559
3456.00,1.5560
3455.00,1.5570
3454.00,1.5588
3453.00,1.5617
3452.00,1.5657
3451.00,1.5711
3450.00,1.5776
3449.00,1.5852
3448.00,1.5935
3447.00,1.6026
3446.00,1.6124
3445.00,1.6229
3444.00,1.6342
3443.00,1.6463
3442.00,1.6592
3441.00,1.6726
3440.00,1.6863
3439.00,1.7001
3438.00,1.7141
3437.00,1.7286
3436.00,1.7434
3435.00,1.7584
3434.00,1.7734
3433.00,1.7884
3432.00,1.8034
3431.00,1.8186
3430.00,1.8340
3429.00,1.8495
3428.00,1.8651
3427.00,1.8804
3426.00,1.8954
3425.00,1.9100
3424.00,1.9242
3423.00,1.9379
3422.00,1.9514
3421.00,1.9648
3420.00,1.9780
3419.00,1.9907
3418.00,2.0026
3417.00,2.0139
3416.00,2.0246
3415.00,2.0351
3414.00,2.0453
3413.00,2.0552
3412.00,2.0645
3411.00,2.0730
3410.00,2.0804
3409.00,2.0872
3408.00,2.0935
3407.00,2.0995
3406.00,2.1049
3405.00,2.1097
3404.00,2.1139
3403.00,2.1179
3402.00,2.1215
3401.00,2.1248
3400.00,2.1274
3399.00,2.1295
3398.00,2.1312
3397.00,2.1330
3396.00,2.1348
3395.00,2.1362
3394.00,2.1371
3393.00,2.1376
3392.00,2.1381
3391.00,2.1381
3390.00,2.1374
3389.00,2.1360
3388.00,2.1343
3387.00,2.1329
3386.00,2.1316
3385.00,2.1301
3384.00,2.1279
3383.00,2.1248
3382.00,2.1215
3381.00,2.1187
3380.00,2.1161
3379.00,2.1132
3378.00,2.1092
3377.00,2.1039
3376.00,2.0978
3375.00,2.0911
3374.00,2.0842
3373.00,2.0772
3372.00,2.0700
3371.00,2.0625
3370.00,2.0546
3369.00,2.0463
3368.00,2.0376
3367.00,2.0282
3366.00,2.0180
3365.00,2.0068
3364.00,1.9948
3363.00,1.9824
3362.00,1.9698
3361.00,1.9570
3360.00,1.9439
3359.00,1.9303
3358.00,1.9160
3357.00,1.9012
3356.00,1.8859
3355.00,1.8700
3354.00,1.8535
3353.00,1.8364
3352.00,1.8185
3351.00,1.8001
3350.00,1.7814
3349.00,1.7626
3348.00,1.7439
3347.00,1.7250
3346.00,1.7058
3345.00,1.6862
3344.00,1.6664
3343.00,1.6467
3342.00,1.6270
3341.00,1.6076
3340.00,1.5885
3339.00,1.5698
3338.00,1.5519
3337.00,1.5348
3336.00,1.5186
3335.00,1.5033
3334.00,1.4889
3333.00,1.4757
3332.00,1.4639
3331.00,1.4535
3330.00,1.4446
3329.00,1.4371
3328.00,1.4313
3327.00,1.4273
3326.00,1.4249
3325.00,1.4244
3324.00,1.4257
3323.00,1.4287
3322.00,1.4335
3321.00,1.4398
3320.00,1.4477
3319.00,1.4571
3318.00,1.4680
3317.00,1.4803
3316.00,1.4938
3315.00,1.5085
3314.00,1.5241
3313.00,1.5405
3312.00,1.5575
3311.00,1.5752
3310.00,1.5936
3309.00,1.6124
3308.00,1.6315
3307.00,1.6507
3306.00,1.6700
3305.00,1.6893
3304.00,1.7087
3303.00,1.7283
3302.00,1.7481
3301.00,1.7678
3300.00,1.7871
3299.00,1.8058
3298.00,1.8240
3297.00,1.8418
3296.00,1.8592
3295.00,1.8764
3294.00,1.8934
3293.00,1.9102
3292.00,1.9266
3291.00,1.9422
3290.00,1.9567
3289.00,1.9703
3288.00,1.9834
3287.00,1.9963
3286.00,2.0091
3285.00,2.0214
3284.00,2.0330
3283.00,2.0441
3282.00,2.0549
3281.00,2.0655
3280.00,2.0756
3279.00,2.0847
3278.00,2.0928
3277.00,2.1004
3276.00,2.1079
3275.00,2.1153
3274.00,2.1223
3273.00,2.1288
3272.00,2.1347
3271.00,2.1402
3270.00,2.1450
3269.00,2.1492
3268.00,2.1527
3267.00,2.1558
3266.00,2.1585
3265.00,2.1604
3264.00,2.1615
3263.00,2.1624
3262.00,2.1633
3261.00,2.1644
3260.00,2.1653
3259.00,2.1655
3258.00,2.1649
3257.00,2.1637
3256.00,2.1620
3255.00,2.1603
3254.00,2.1585
3253.00,2.1563
3252.00,2.1535
3251.00,2.1502
3250.00,2.1463
3249.00,2.1416
3248.00,2.1358
3247.00,2.1292
3246.00,2.1225
3245.00,2.1164
3244.00,2.1104
3243.00,2.1040
3242.00,2.0967
3241.00,2.0886
3240.00,2.0799
3239.00,2.0707
3238.00,2.0611
3237.00,2.0511
3236.00,2.0406
3235.00,2.0300
3234.00,2.0193
3233.00,2.0082
3232.00,1.9963
3231.00,1.9833
3230.00,1.9693
3229.00,1.9546
3228.00,1.9395
3227.00,1.9244
3226.00,1.9095
3225.00,1.8943
3224.00,1.8786
3223.00,1.8622
3222.00,1.8452
3221.00,1.8279
3220.00,1.8104
3219.00,1.7926
3218.00,1.7747
3217.00,1.7569
3216.00,1.7392
3215.00,1.7216
3214.00,1.7042
3213.00,1.6869
3212.00,1.6699
3211.00,1.6533
3210.00,1.6374
3209.00,1.6222
3208.00,1.6077
3207.00,1.5941
3206.00,1.5814
3205.00,1.5697
3204.00,1.5593
3203.00,1.5503
3202.00,1.5428
3201.00,1.5366
3200.00,1.5318
3199.00,1.5285
3198.00,1.5266
3197.00,1.5263
3196.00,1.5277
3195.00,1.5306
3194.00,1.5351
3193.00,1.5413
3192.00,1.5490
3191.00,1.5581
3190.00,1.5684
3189.00,1.5798
3188.00,1.5922
3187.00,1.6057
3186.00,1.6201
3185.00,1.6354
3184.00,1.6515
3183.00,1.6684
3182.00,1.6859
3181.00,1.7036
3180.00,1.7216
3179.00,1.7398
3178.00,1.7582
3177.00,1.7767
3176.00,1.7950
3175.00,1.8133
3174.00,1.8317
3173.00,1.8501
3172.00,1.8684
3171.00,1.8862
3170.00,1.9035
3169.00,1.9203
3168.00,1.9367
3167.00,1.9525
3166.00,1.9679
3165.00,1.9829
3164.00,1.9975
3163.00,2.0119
3162.00,2.0261
3161.00,2.0400
3160.00,2.0532
3159.00,2.0658
3158.00,2.0779
3157.00,2.0894
3156.00,2.1002
3155.00,2.1102
3154.00,2.1200
3153.00,2.1297
3152.00,2.1390
3151.00,2.1472
3150.00,2.1543
3149.00,2.1606
3148.00,2.1666
3147.00,2.1725
3146.00,2.1786
3145.00,2.1846
3144.00,2.1896
3143.00,2.1934
3142.00,2.1969
3141.00,2.2010
3140.00,2.2058
3139.00,2.2104
3138.00,2.2139
3137.00,2.2162
3136.00,2.2178
3135.00,2.2193
3134.00,2.2211
3133.00,2.2231
3132.00,2.2247
3131.00,2.2253
3130.00,2.2245
3129.00,2.2224
3128.00,2.2198
3127.00,2.2174
3126.00,2.2153
3125.00,2.2130
3124.00,2.2100
3123.00,2.2062
3122.00,2.2019
3121.00,2.1972
3120.00,2.1918
3119.00,2.1855
3118.00,2.1784
3117.00,2.1709
3116.00,2.1633
3115.00,2.1551
3114.00,2.1462
3113.00,2.1366
3112.00,2.1262
3111.00,2.1151
3110.00,2.1035
3109.00,2.0914
3108.00,2.0790
3107.00,2.0658
3106.00,2.0517
3105.00,2.0369
3104.00,2.0218
3103.00,2.0060
3102.00,1.9892
3101.00,1.9714
3100.00,1.9533
3099.00,1.9353
3098.00,1.9171
3097.00,1.8985
3096.00,1.8792
3095.00,1.8594
3094.00,1.8393
3093.00,1.8190
3092.00,1.7987
3091.00,1.7785
3090.00,1.7584
3089.00,1.7384
3088.00,1.7185
3087.00,1.6991
3086.00,1.6806
3085.00,1.6633
3084.00,1.6472
3083.00,1.6323
3082.00,1.6186
3081.00,1.6063
3080.00,1.5958
3079.00,1.5872
3078.00,1.5807
3077.00,1.5763
3076.00,1.5738
3075.00,1.5735
3074.00,1.5756
3073.00,1.5799
3072.00,1.5864
3071.00,1.5950
3070.00,1.6055
3069.00,1.6179
3068.00,1.6323
3067.00,1.6483
3066.00,1.6655
3065.00,1.6837
3064.00,1.7029
3063.00,1.7231
3062.00,1.7440
3061.00,1.7654
3060.00,1.7872
3059.00,1.8093
3058.00,1.8317
3057.00,1.8540
3056.00,1.8758
3055.00,1.8973
3054.00,1.9187
3053.00,1.9403
3052.00,1.9619
3051.00,1.9832
3050.00,2.0035
3049.00,2.0226
3048.00,2.0407
3047.00,2.0584
3046.00,2.0762
3045.00,2.0938
3044.00,2.1106
3043.00,2.1262
3042.00,2.1411
3041.00,2.1554
3040.00,2.1694
3039.00,2.1831
3038.00,2.1965
3037.00,2.2095
3036.00,2.2221
3035.00,2.2340
3034.00,2.2451
3033.00,2.2555
3032.00,2.2652
3031.00,2.2740
3030.00,2.2816
3029.00,2.2878
3028.00,2.2931
3027.00,2.2976
3026.00,2.3014
3025.00,2.3040
3024.00,2.3054
3023.00,2.3059
3022.00,2.3061
3021.00,2.3064
3020.00,2.3064
3019.00,2.3059
3018.00,2.3043
3017.00,2.3012
3016.00,2.2963
3015.00,2.2899
3014.00,2.2827
3013.00,2.2749
3012.00,2.2664
3011.00,2.2570
3010.00,2.2465
3009.00,2.2351
3008.00,2.2225
3007.00,2.2083
3006.00,2.1924
3005.00,2.1749
3004.00,2.1564
3003.00,2.1372
3002.00,2.1177
3001.00,2.0975
3000.00,2.0766
2999.00,2.0554
2998.00,2.0347
2997.00,2.0153
2996.00,1.9980
2995.00,1.9833
2994.00,1.9715
2993.00,1.9630
2992.00,1.9586
2991.00,1.9593
2990.00,1.9657
2989.00,1.9785
2988.00,1.9981
2987.00,2.0245
2986.00,2.0570
2985.00,2.0949
2984.00,2.1375
2983.00,2.1842
2982.00,2.2347
2981.00,2.2880
2980.00,2.3430
2979.00,2.3994
2978.00,2.4576
2977.00,2.5183
2976.00,2.5817
2975.00,2.6471
2974.00,2.7139
2973.00,2.7818
2972.00,2.8505
2971.00,2.9204
2970.00,2.9915
2969.00,3.0626
2968.00,3.1313
2967.00,3.1971
2966.00,3.2644
2965.00,3.3397
2964.00,3.4259
2963.00,3.5159
2962.00,3.5918
2961.00,3.6374
2960.00,3.6581
2959.00,3.6767
2958.00,3.7095
2957.00,3.7542
2956.00,3.7983
2955.00,3.8280
2954.00,3.8342
2953.00,3.8211
2952.00,3.7993
2951.00,3.7797
2950.00,3.7733
2949.00,3.7897
2948.00,3.8303
2947.00,3.8798
2946.00,3.9207
2945.00,3.9538
2944.00,3.9872
2943.00,4.0176
2942.00,4.0397
2941.00,4.0649
2940.00,4.1171
2939.00,4.2122
2938.00,4.3371
2937.00,4.4330
2936.00,4.4760
2935.00,4.5431
2934.00,4.6283
2933.00,4.6139
2932.00,4.5163
2931.00,4.4566
2930.00,4.4522
2929.00,4.5452
2928.00,4.8144
2927.00,4.7352
2926.00,4.4813
2925.00,4.2589
2924.00,4.1533
2923.00,4.0606
2922.00,3.9672
2921.00,3.8861
2920.00,3.7967
2919.00,3.7161
2918.00,3.6503
2917.00,3.5896
2916.00,3.5279
2915.00,3.4694
2914.00,3.4197
2913.00,3.3776
2912.00,3.3366
2911.00,3.2933
2910.00,3.2500
2909.00,3.2104
2908.00,3.1752
2907.00,3.1435
2906.00,3.1148
2905.00,3.0885
2904.00,3.0632
2903.00,3.0374
2902.00,3.0100
2901.00,2.9820
2900.00,2.9553
2899.00,2.9308
2898.00,2.9075
2897.00,2.8834
2896.00,2.8573
2895.00,2.8304
2894.00,2.8048
2893.00,2.7828
2892.00,2.7659
2891.00,2.7545
2890.00,2.7473
2889.00,2.7417
2888.00,2.7362
2887.00,2.7322
2886.00,2.7328
2885.00,2.7403
2884.00,2.7548
2883.00,2.7749
2882.00,2.7995
2881.00,2.8280
2880.00,2.8602
2879.00,2.8960
2878.00,2.9350
2877.00,2.9764
2876.00,3.0201
2875.00,3.0675
2874.00,3.1219
2873.00,3.1860
2872.00,3.2579
2871.00,3.3307
2870.00,3.3960
2869.00,3.4510
2868.00,3.5024
2867.00,3.5614
2866.00,3.6357
2865.00,3.7212
2864.00,3.8001
2863.00,3.8485
2862.00,3.8562
2861.00,3.8333
2860.00,3.7898
2859.00,3.7239
2858.00,3.6324
2857.00,3.5229
2856.00,3.4079
2855.00,3.2935
2854.00,3.1788
2853.00,3.0630
2852.00,2.9496
2851.00,2.8430
2850.00,2.7452
2849.00,2.6548
2848.00,2.5704
2847.00,2.4923
2846.00,2.4216
2845.00,2.3593
2844.00,2.3058
2843.00,2.2614
2842.00,2.2263
2841.00,2.2006
2840.00,2.1839
2839.00,2.1757
2838.00,2.1748
2837.00,2.1797
2836.00,2.1891
2835.00,2.2018
2834.00,2.2169
2833.00,2.2334
2832.00,2.2500
2831.00,2.2658
2830.00,2.2803
2829.00,2.2936
2828.00,2.3058
2827.00,2.3175
2826.00,2.3291
2825.00,2.3406
2824.00,2.3515
2823.00,2.3608
2822.00,2.3683
2821.00,2.3747
2820.00,2.3804
2819.00,2.3855
2818.00,2.3903
2817.00,2.3954
2816.00,2.4009
2815.00,2.4064
2814.00,2.4106
2813.00,2.4131
2812.00,2.4145
2811.00,2.4152
2810.00,2.4153
2809.00,2.4145
2808.00,2.4127
2807.00,2.4104
2806.00,2.4080
2805.00,2.4054
2804.00,2.4021
2803.00,2.3977
2802.00,2.3925
2801.00,2.3863
2800.00,2.3795
2799.00,2.3719
2798.00,2.3639
2797.00,2.3553
2796.00,2.3462
2795.00,2.3364
2794.00,2.3254
2793.00,2.3125
2792.00,2.2972
2791.00,2.2800
2790.00,2.2617
2789.00,2.2432
2788.00,2.2241
2787.00,2.2041
2786.00,2.1824
2785.00,2.1590
2784.00,2.1343
2783.00,2.1084
2782.00,2.0816
2781.00,2.0539
2780.00,2.0254
2779.00,1.9958
2778.00,1.9646
2777.00,1.9318
2776.00,1.8976
2775.00,1.8624
2774.00,1.8265
2773.00,1.7897
2772.00,1.7522
2771.00,1.7143
2770.00,1.6767
2769.00,1.6400
2768.00,1.6047
2767.00,1.5712
2766.00,1.5400
2765.00,1.5113
2764.00,1.4855
2763.00,1.4630
2762.00,1.4440
2761.00,1.4286
2760.00,1.4167
2759.00,1.4084
2758.00,1.4041
2757.00,1.4041
2756.00,1.4086
2755.00,1.4177
2754.00,1.4312
2753.00,1.4489
2752.00,1.4705
2751.00,1.4954
2750.00,1.5234
2749.00,1.5538
2748.00,1.5862
2747.00,1.6200
2746.00,1.6546
2745.00,1.6898
2744.00,1.7255
2743.00,1.7612
2742.00,1.7967
2741.00,1.8315
2740.00,1.8656
2739.00,1.8988
2738.00,1.9311
2737.00,1.9623
2736.00,1.9925
2735.00,2.0217
2734.00,2.0497
2733.00,2.0764
2732.00,2.1015
2731.00,2.1251
2730.00,2.1476
2729.00,2.1695
2728.00,2.1911
2727.00,2.2120
2726.00,2.2318
2725.00,2.2502
2724.00,2.2673
2723.00,2.2834
2722.00,2.2984
2721.00,2.3125
2720.00,2.3255
2719.00,2.3376
2718.00,2.3488
2717.00,2.3591
2716.00,2.3687
2715.00,2.3778
2714.00,2.3869
2713.00,2.3964
2712.00,2.4060
2711.00,2.4149
2710.00,2.4218
2709.00,2.4262
2708.00,2.4285
2707.00,2.4300
2706.00,2.4319
2705.00,2.4354
2704.00,2.4401
2703.00,2.4446
2702.00,2.4478
2701.00,2.4494
2700.00,2.4502
2699.00,2.4502
2698.00,2.4490
2697.00,2.4466
2696.00,2.4439
2695.00,2.4414
2694.00,2.4384
2693.00,2.4339
2692.00,2.4277
2691.00,2.4213
2690.00,2.4153
2689.00,2.4095
2688.00,2.4030
2687.00,2.3959
2686.00,2.3885
2685.00,2.3807
2684.00,2.3723
2683.00,2.3630
2682.00,2.3531
2681.00,2.3433
2680.00,2.3339
2679.00,2.3250
2678.00,2.3163
2677.00,2.3070
2676.00,2.2966
2675.00,2.2849
2674.00,2.2722
2673.00,2.2587
2672.00,2.2447
2671.00,2.2308
2670.00,2.2173
2669.00,2.2033
2668.00,2.1877
2667.00,2.1697
2666.00,2.1491
2665.00,2.1263
2664.00,2.1015
2663.00,2.0751
2662.00,2.0471
2661.00,2.0175
2660.00,1.9866
2659.00,1.9547
2658.00,1.9225
2657.00,1.8901
2656.00,1.8577
2655.00,1.8252
2654.00,1.7926
2653.00,1.7599
2652.00,1.7274
2651.00,1.6953
2650.00,1.6636
2649.00,1.6326
2648.00,1.6022
2647.00,1.5726
2646.00,1.5439
2645.00,1.5165
2644.00,1.4908
2643.00,1.4674
2642.00,1.4468
2641.00,1.4299
2640.00,1.4170
2639.00,1.4086
2638.00,1.4051
2637.00,1.4066
2636.00,1.4133
2635.00,1.4249
2634.00,1.4410
2633.00,1.4613
2632.00,1.4853
2631.00,1.5125
2630.00,1.5422
2629.00,1.5739
2628.00,1.6072
2627.00,1.6419
2626.00,1.6773
2625.00,1.7131
2624.00,1.7490
2623.00,1.7847
2622.00,1.8203
2621.00,1.8555
2620.00,1.8900
2619.00,1.9233
2618.00,1.9554
2617.00,1.9861
2616.00,2.0155
2615.00,2.0440
2614.00,2.0715
2613.00,2.0978
2612.00,2.1228
2611.00,2.1467
2610.00,2.1698
2609.00,2.1920
2608.00,2.2130
2607.00,2.2324
2606.00,2.2506
2605.00,2.2682
2604.00,2.2854
2603.00,2.3022
2602.00,2.3183
2601.00,2.3335
2600.00,2.3480
2599.00,2.3624
2598.00,2.3770
2597.00,2.3912
2596.00,2.4041
2595.00,2.4159
2594.00,2.4270
2593.00,2.4378
2592.00,2.4476
2591.00,2.4565
2590.00,2.4652
2589.00,2.4740
2588.00,2.4820
2587.00,2.4889
2586.00,2.4951
2585.00,2.5012
2584.00,2.5068
2583.00,2.5112
2582.00,2.5147
2581.00,2.5184
2580.00,2.5227
2579.00,2.5269
2578.00,2.5302
2577.00,2.5320
2576.00,2.5319
2575.00,2.5308
2574.00,2.5295
2573.00,2.5286
2572.00,2.5276
2571.00,2.5258
2570.00,2.5232
2569.00,2.5204
2568.00,2.5173
2567.00,2.5139
2566.00,2.5103
2565.00,2.5064
2564.00,2.5021
2563.00,2.4971
2562.00,2.4914
2561.00,2.4847
2560.00,2.4768
2559.00,2.4675
2558.00,2.4573
2557.00,2.4469
2556.00,2.4363
2555.00,2.4256
2554.00,2.4147
2553.00,2.4036
2552.00,2.3920
2551.00,2.3792
2550.00,2.3651
2549.00,2.3497
2548.00,2.3331
2547.00,2.3157
2546.00,2.2979
2545.00,2.2801
2544.00,2.2616
2543.00,2.2420
2542.00,2.2211
2541.00,2.1991
2540.00,2.1762
2539.00,2.1521
2538.00,2.1267
2537.00,2.0999
2536.00,2.0717
2535.00,2.0421
2534.00,2.0112
2533.00,1.9789
2532.00,1.9451
2531.00,1.9097
2530.00,1.8728
2529.00,1.8348
2528.00,1.7958
2527.00,1.7563
2526.00,1.7163
2525.00,1.6762
2524.00,1.6362
2523.00,1.5964
2522.00,1.5571
2521.00,1.5189
2520.00,1.4824
2519.00,1.4485
2518.00,1.4175
2517.00,1.3902
2516.00,1.3671
2515.00,1.3490
2514.00,1.3362
2513.00,1.3291
2512.00,1.3280
2511.00,1.3326
2510.00,1.3428
2509.00,1.3583
2508.00,1.3786
2507.00,1.4032
2506.00,1.4316
2505.00,1.4631
2504.00,1.4973
2503.00,1.5336
2502.00,1.5714
2501.00,1.6104
2500.00,1.6502
2499.00,1.6905
2498.00,1.7311
2497.00,1.7717
2496.00,1.8120
2495.00,1.8518
2494.00,1.8908
2493.00,1.9287
2492.00,1.9654
2491.00,2.0008
2490.00,2.0352
2489.00,2.0684
2488.00,2.1003
2487.00,2.1308
2486.00,2.1600
2485.00,2.1881
2484.00,2.2151
2483.00,2.2408
2482.00,2.2649
2481.00,2.2878
2480.00,2.3098
2479.00,2.3311
2478.00,2.3511
2477.00,2.3692
2476.00,2.3855
2475.00,2.4009
2474.00,2.4165
2473.00,2.4327
2472.00,2.4486
2471.00,2.4639
2470.00,2.4783
2469.00,2.4914
2468.00,2.5025
2467.00,2.5119
2466.00,2.5206
2465.00,2.5296
2464.00,2.5389
2463.00,2.5478
2462.00,2.5560
2461.00,2.5637
2460.00,2.5710
2459.00,2.5775
2458.00,2.5831
2457.00,2.5878
2456.00,2.5918
2455.00,2.5951
2454.00,2.5981
2453.00,2.6008
2452.00,2.6035
2451.00,2.6062
2450.00,2.6085
2449.00,2.6099
2448.00,2.6103
2447.00,2.6100
2446.00,2.6093
2445.00,2.6081
2444.00,2.6063
2443.00,2.6045
2442.00,2.6027
2441.00,2.6007
2440.00,2.5973
2439.00,2.5926
2438.00,2.5873
2437.00,2.5821
2436.00,2.5769
2435.00,2.5714
2434.00,2.5650
2433.00,2.5578
2432.00,2.5497
2431.00,2.5406
2430.00,2.5308
2429.00,2.5211
2428.00,2.5123
2427.00,2.5037
2426.00,2.4935
2425.00,2.4802
2424.00,2.4645
2423.00,2.4485
2422.00,2.4335
2421.00,2.4194
2420.00,2.4046
2419.00,2.3882
2418.00,2.3698
2417.00,2.3497
2416.00,2.3281
2415.00,2.3057
2414.00,2.2826
2413.00,2.2587
2412.00,2.2340
2411.00,2.2082
2410.00,2.1812
2409.00,2.1523
2408.00,2.1210
2407.00,2.0875
2406.00,2.0521
2405.00,2.0151
2404.00,1.9763
2403.00,1.9354
2402.00,1.8927
2401.00,1.8480
2400.00,1.8016
2399.00,1.7539
2398.00,1.7053
2397.00,1.6566
2396.00,1.6083
2395.00,1.5611
2394.00,1.5159
2393.00,1.4733
2392.00,1.4342
2391.00,1.3994
2390.00,1.3696
2389.00,1.3456
2388.00,1.3277
2387.00,1.3164
2386.00,1.3118
2385.00,1.3139
2384.00,1.3223
2383.00,1.3367
2382.00,1.3565
2381.00,1.3811
2380.00,1.4098
2379.00,1.4417
2378.00,1.4760
2377.00,1.5118
2376.00,1.5482
2375.00,1.5846
2374.00,1.6201
2373.00,1.6538
2372.00,1.6851
2371.00,1.7135
2370.00,1.7393
2369.00,1.7630
2368.00,1.7854
2367.00,1.8067
2366.00,1.8273
2365.00,1.8477
2364.00,1.8689
2363.00,1.8915
2362.00,1.9154
2361.00,1.9403
2360.00,1.9655
2359.00,1.9901
2358.00,2.0126
2357.00,2.0327
2356.00,2.0522
2355.00,2.0706
2354.00,2.0876
2353.00,2.1007
2352.00,2.1183
2351.00,2.1265
2350.00,2.1540
2349.00,2.1420
2348.00,2.4034
2347.00,2.5260
2346.00,2.4977
2345.00,2.5370
2344.00,2.5390
2343.00,2.5614
2342.00,2.5721
2341.00,2.5888
2340.00,2.6031
2339.00,2.6158
2338.00,2.6250
2337.00,2.6313
2336.00,2.6361
2335.00,2.6412
2334.00,2.6477
2333.00,2.6555
2332.00,2.6639
2331.00,2.6714
2330.00,2.6768
2329.00,2.6803
2328.00,2.6832
2327.00,2.6846
2326.00,2.6889
2325.00,2.6869
2324.00,2.6950
2323.00,2.6827
2322.00,2.7133
2321.00,2.5247
2320.00,2.4937
2319.00,2.5102
2318.00,2.5071
2317.00,2.5133
2316.00,2.5134
2315.00,2.5131
2314.00,2.5084
2313.00,2.5045
2312.00,2.5036
2311.00,2.5081
2310.00,2.5130
2309.00,2.5170
2308.00,2.5172
2307.00,2.5167
2306.00,2.5148
2305.00,2.5136
2304.00,2.5120
2303.00,2.5122
2302.00,2.5127
2301.00,2.5133
2300.00,2.5115
2299.00,2.5078
2298.00,2.5019
2297.00,2.4951
2296.00,2.4872
2295.00,2.4799
2294.00,2.4724
2293.00,2.4647
2292.00,2.4543
2291.00,2.4412
2290.00,2.4251
2289.00,2.4078
2288.00,2.3890
2287.00,2.3692
2286.00,2.3477
2285.00,2.3248
2284.00,2.3007
2283.00,2.2757
2282.00,2.2498
2281.00,2.2225
2280.00,2.1933
2279.00,2.1617
2278.00,2.1277
2277.00,2.0914
2276.00,2.0531
2275.00,2.0126
2274.00,1.9702
2273.00,1.9258
2272.00,1.8793
2271.00,1.8308
2270.00,1.7803
2269.00,1.7287
2268.00,1.6768
2267.00,1.6255
2266.00,1.5758
2265.00,1.5288
2264.00,1.4856
2263.00,1.4471
2262.00,1.4143
2261.00,1.3882
2260.00,1.3695
2259.00,1.3588
2258.00,1.3564
2257.00,1.3623
2256.00,1.3762
2255.00,1.3973
2254.00,1.4244
2253.00,1.4557
2252.00,1.4897
2251.00,1.5251
2250.00,1.5617
2249.00,1.5998
2248.00,1.6397
2247.00,1.6815
2246.00,1.7249
2245.00,1.7695
2244.00,1.8146
2243.00,1.8596
2242.00,1.9043
2241.00,1.9487
2240.00,1.9924
2239.00,2.0350
2238.00,2.0763
2237.00,2.1166
2236.00,2.1558
2235.00,2.1936
2234.00,2.2293
2233.00,2.2627
2232.00,2.2942
2231.00,2.3242
2230.00,2.3527
2229.00,2.3799
2228.00,2.4057
2227.00,2.4303
2226.00,2.4536
2225.00,2.4757
2224.00,2.4969
2223.00,2.5176
2222.00,2.5377
2221.00,2.5570
2220.00,2.5751
2219.00,2.5917
2218.00,2.6071
2217.00,2.6221
2216.00,2.6365
2215.00,2.6495
2214.00,2.6606
2213.00,2.6703
2212.00,2.6800
2211.00,2.6901
2210.00,2.7000
2209.00,2.7089
2208.00,2.7172
2207.00,2.7259
2206.00,2.7352
2205.00,2.7443
2204.00,2.7522
2203.00,2.7583
2202.00,2.7631
2201.00,2.7674
2200.00,2.7720
2199.00,2.7764
2198.00,2.7794
2197.00,2.7806
2196.00,2.7814
2195.00,2.7830
2194.00,2.7853
2193.00,2.7871
2192.00,2.7876
2191.00,2.7871
2190.00,2.7864
2189.00,2.7861
2188.00,2.7861
2187.00,2.7861
2186.00,2.7849
2185.00,2.7823
2184.00,2.7788
2183.00,2.7757
2182.00,2.7731
2181.00,2.7698
2180.00,2.7647
2179.00,2.7585
2178.00,2.7524
2177.00,2.7468
2176.00,2.7404
2175.00,2.7317
2174.00,2.7203
2173.00,2.7077
2172.00,2.6953
2171.00,2.6839
2170.00,2.6730
2169.00,2.6615
2168.00,2.6491
2167.00,2.6357
2166.00,2.6211
2165.00,2.6054
2164.00,2.5888
2163.00,2.5712
2162.00,2.5526
2161.00,2.5326
2160.00,2.5115
2159.00,2.4895
2158.00,2.4665
2157.00,2.4423
2156.00,2.4168
2155.00,2.3899
2154.00,2.3613
2153.00,2.3313
2152.00,2.3000
2151.00,2.2672
2150.00,2.2323
2149.00,2.1949
2148.00,2.1549
2147.00,2.1128
2146.00,2.0685
2145.00,2.0221
2144.00,1.9738
2143.00,1.9239
2142.00,1.8730
2141.00,1.8218
2140.00,1.7708
2139.00,1.7209
2138.00,1.6730
2137.00,1.6281
2136.00,1.5868
2135.00,1.5498
2134.00,1.5179
2133.00,1.4919
2132.00,1.4721
2131.00,1.4588
2130.00,1.4521
2129.00,1.4523
2128.00,1.4596
2127.00,1.4743
2126.00,1.4958
2125.00,1.5237
2124.00,1.5571
2123.00,1.5952
2122.00,1.6371
2121.00,1.6819
2120.00,1.7288
2119.00,1.7770
2118.00,1.8258
2117.00,1.8748
2116.00,1.9234
2115.00,1.9713
2114.00,2.0186
2113.00,2.0651
2112.00,2.1107
2111.00,2.1550
2110.00,2.1976
2109.00,2.2377
2108.00,2.2754
2107.00,2.3111
2106.00,2.3455
2105.00,2.3784
2104.00,2.4094
2103.00,2.4391
2102.00,2.4678
2101.00,2.4950
2100.00,2.5198
2099.00,2.5427
2098.00,2.5655
2097.00,2.5891
2096.00,2.6124
2095.00,2.6335
2094.00,2.6515
2093.00,2.6667
2092.00,2.6806
2091.00,2.6948
2090.00,2.7097
2089.00,2.7242
2088.00,2.7369
2087.00,2.7485
2086.00,2.7609
2085.00,2.7741
2084.00,2.7860
2083.00,2.7958
2082.00,2.8050
2081.00,2.8152
2080.00,2.8255
2079.00,2.8342
2078.00,2.8407
2077.00,2.8460
2076.00,2.8512
2075.00,2.8568
2074.00,2.8630
2073.00,2.8689
2072.00,2.8735
2071.00,2.8766
2070.00,2.8791
2069.00,2.8823
2068.00,2.8868
2067.00,2.8920
2066.00,2.8954
2065.00,2.8944
2064.00,2.8889
2063.00,2.8829
2062.00,2.8800
2061.00,2.8804
2060.00,2.8809
2059.00,2.8798
2058.00,2.8785
2057.00,2.8777
2056.00,2.8765
2055.00,2.8736
2054.00,2.8690
2053.00,2.8635
2052.00,2.8569
2051.00,2.8488
2050.00,2.8400
2049.00,2.8309
2048.00,2.8212
2047.00,2.8101
2046.00,2.7979
2045.00,2.7852
2044.00,2.7720
2043.00,2.7582
2042.00,2.7441
2041.00,2.7306
2040.00,2.7179
2039.00,2.7049
2038.00,2.6905
2037.00,2.6746
2036.00,2.6576
2035.00,2.6400
2034.00,2.6211
2033.00,2.6004
2032.00,2.5780
2031.00,2.5547
2030.00,2.5303
2029.00,2.5039
2028.00,2.4751
2027.00,2.4444
2026.00,2.4125
2025.00,2.3795
2024.00,2.3450
2023.00,2.3086
2022.00,2.2702
2021.00,2.2296
2020.00,2.1864
2019.00,2.1402
2018.00,2.0904
2017.00,2.0371
2016.00,1.9821
2015.00,1.9281
2014.00,1.8765
2013.00,1.8269
2012.00,1.7778
2011.00,1.7289
2010.00,1.6814
2009.00,1.6374
2008.00,1.5984
2007.00,1.5654
2006.00,1.5396
2005.00,1.5220
2004.00,1.5132
2003.00,1.5133
2002.00,1.5223
2001.00,1.5400
2000.00,1.5658
1999.00,1.5987
1998.00,1.6376
1997.00,1.6813
1996.00,1.7285
1995.00,1.7782
1994.00,1.8291
1993.00,1.8798
1992.00,1.9291
1991.00,1.9779
1990.00,2.0284
1989.00,2.0814
1988.00,2.1356
1987.00,2.1881
1986.00,2.2379
1985.00,2.2852
1984.00,2.3298
1983.00,2.3712
1982.00,2.4091
1981.00,2.4445
1980.00,2.4783
1979.00,2.5103
1978.00,2.5399
1977.00,2.5671
1976.00,2.5926
1975.00,2.6171
1974.00,2.6408
1973.00,2.6634
1972.00,2.6845
1971.00,2.7040
1970.00,2.7222
1969.00,2.7391
1968.00,2.7541
1967.00,2.7668
1966.00,2.7792
1965.00,2.7940
1964.00,2.8129
1963.00,2.8338
1962.00,2.8532
1961.00,2.8683
1960.00,2.8794
1959.00,2.8886
1958.00,2.8980
1957.00,2.9080
1956.00,2.9170
1955.00,2.9239
1954.00,2.9295
1953.00,2.9362
1952.00,2.9447
1951.00,2.9534
1950.00,2.9600
1949.00,2.9650
1948.00,2.9696
1947.00,2.9739
1946.00,2.9766
1945.00,2.9779
1944.00,2.9783
1943.00,2.9771
1942.00,2.9735
1941.00,2.9705
1940.00,2.9725
1939.00,2.9797
1938.00,2.9871
1937.00,2.9900
1936.00,2.9891
1935.00,2.9870
1934.00,2.9843
1933.00,2.9800
1932.00,2.9744
1931.00,2.9686
1930.00,2.9623
1929.00,2.9546
1928.00,2.9453
1927.00,2.9344
1926.00,2.9223
1925.00,2.9095
1924.00,2.8967
1923.00,2.8837
1922.00,2.8699
1921.00,2.8568
1920.00,2.8462
1919.00,2.8357
1918.00,2.8203
1917.00,2.7991
1916.00,2.7780
1915.00,2.7629
1914.00,2.7521
1913.00,2.7397
1912.00,2.7225
1911.00,2.7016
1910.00,2.6780
1909.00,2.6516
1908.00,2.6227
1907.00,2.5932
1906.00,2.5638
1905.00,2.5336
1904.00,2.5014
1903.00,2.4664
1902.00,2.4287
1901.00,2.3882
1900.00,2.3448
1899.00,2.2985
1898.00,2.2491
1897.00,2.1961
1896.00,2.1392
1895.00,2.0784
1894.00,2.0159
1893.00,1.9545
1892.00,1.8962
1891.00,1.8398
1890.00,1.7838
1889.00,1.7303
1888.00,1.6853
1887.00,1.6542
1886.00,1.6380
1885.00,1.6335
1884.00,1.6380
1883.00,1.6510
1882.00,1.6731
1881.00,1.7039
1880.00,1.7415
1879.00,1.7839
1878.00,1.8303
1877.00,1.8804
1876.00,1.9333
1875.00,1.9875
1874.00,2.0412
1873.00,2.0933
1872.00,2.1430
1871.00,2.1893
1870.00,2.2315
1869.00,2.2709
1868.00,2.3102
1867.00,2.3524
1866.00,2.3985
1865.00,2.4462
1864.00,2.4923
1863.00,2.5343
1862.00,2.5715
1861.00,2.6042
1860.00,2.6336
1859.00,2.6616
1858.00,2.6904
1857.00,2.7207
1856.00,2.7515
1855.00,2.7812
1854.00,2.8088
1853.00,2.8344
1852.00,2.8578
1851.00,2.8796
1850.00,2.8991
1849.00,2.9141
1848.00,2.9236
1847.00,2.9311
1846.00,2.9406
1845.00,2.9513
1844.00,2.9593
1843.00,2.9648
1842.00,2.9733
1841.00,2.9881
1840.00,3.0057
1839.00,3.0201
1838.00,3.0295
1837.00,3.0367
1836.00,3.0444
1835.00,3.0531
1834.00,3.0625
1833.00,3.0718
1832.00,3.0786
1831.00,3.0803
1830.00,3.0767
1829.00,3.0721
1828.00,3.0711
1827.00,3.0731
1826.00,3.0718
1825.00,3.0623
1824.00,3.0484
1823.00,3.0392
1822.00,3.0386
1821.00,3.0405
1820.00,3.0373
1819.00,3.0274
1818.00,3.0136
1817.00,2.9996
1816.00,2.9884
1815.00,2.9818
1814.00,2.9781
1813.00,2.9723
1812.00,2.9609
1811.00,2.9457
1810.00,2.9306
1809.00,2.9168
1808.00,2.9031
1807.00,2.8884
1806.00,2.8734
1805.00,2.8578
1804.00,2.8382
1803.00,2.8094
1802.00,2.7689
1801.00,2.7204
1800.00,2.6734
1799.00,2.6343
1798.00,2.6000
1797.00,2.5614
1796.00,2.5135
1795.00,2.4584
1794.00,2.3996
1793.00,2.3377
1792.00,2.2724
1791.00,2.2078
1790.00,2.1525
1789.00,2.1154
1788.00,2.0986
1787.00,2.0971
1786.00,2.1045
1785.00,2.1190
1784.00,2.1451
1783.00,2.1879
1782.00,2.2481
1781.00,2.3197
1780.00,2.3945
1779.00,2.4686
1778.00,2.5421
1777.00,2.6151
1776.00,2.6852
1775.00,2.7498
1774.00,2.8096
1773.00,2.8667
1772.00,2.9222
1771.00,2.9746
1770.00,3.0193
1769.00,3.0527
1768.00,3.0762
1767.00,3.0959
1766.00,3.1205
1765.00,3.1547
1764.00,3.1908
1763.00,3.2176
1762.00,3.2326
1761.00,3.2435
1760.00,3.2579
1759.00,3.2759
1758.00,3.2916
1757.00,3.3015
1756.00,3.3081
1755.00,3.3192
1754.00,3.3406
1753.00,3.3679
1752.00,3.3909
1751.00,3.4054
1750.00,3.4185
1749.00,3.4411
1748.00,3.4748
1747.00,3.5088
1746.00,3.5362
1745.00,3.5627
1744.00,3.6019
1743.00,3.6688
1742.00,3.7737
1741.00,3.9151
1740.00,4.0635
1739.00,4.1557
1738.00,4.1639
1737.00,4.1335
1736.00,4.1100
1735.00,4.1162
1734.00,4.1654
1733.00,4.2517
1732.00,4.3272
1731.00,4.3404
1730.00,4.3135
1729.00,4.2847
1728.00,4.3063
1727.00,4.4272
1726.00,4.7407
1725.00,5.4858
1724.00,5.1157
1723.00,4.6656
1722.00,4.5039
1721.00,4.4860
1720.00,4.6029
1719.00,4.9232
1718.00,5.4117
1717.00,5.1865
1716.00,4.6891
1715.00,4.3543
1714.00,4.2170
1713.00,4.2197
1712.00,4.3063
1711.00,4.4210
1710.00,4.5742
1709.00,4.8136
1708.00,4.8029
1707.00,4.6527
1706.00,4.6470
1705.00,4.7021
1704.00,4.7643
1703.00,4.6242
1702.00,4.3924
1701.00,4.2803
1700.00,4.2713
1699.00,4.3271
1698.00,4.3893
1697.00,4.4656
1696.00,4.5754
1695.00,4.7229
1694.00,4.8307
1693.00,4.4773
1692.00,4.1535
1691.00,3.9676
1690.00,3.8496
1689.00,3.7765
1688.00,3.7330
1687.00,3.7066
1686.00,3.6818
1685.00,3.6436
1684.00,3.5944
1683.00,3.5504
1682.00,3.5246
1681.00,3.5208
1680.00,3.5329
1679.00,3.5454
1678.00,3.5457
1677.00,3.5325
1676.00,3.5087
1675.00,3.4751
1674.00,3.4326
1673.00,3.3875
1672.00,3.3477
1671.00,3.3120
1670.00,3.2709
1669.00,3.2180
1668.00,3.1555
1667.00,3.0901
1666.00,3.0256
1665.00,2.9601
1664.00,2.8920
1663.00,2.8243
1662.00,2.7631
1661.00,2.7119
1660.00,2.6703
1659.00,2.6389
1658.00,2.6196
1657.00,2.6133
1656.00,2.6191
1655.00,2.6345
1654.00,2.6582
1653.00,2.6946
1652.00,2.7445
1651.00,2.7931
1650.00,2.8346
1649.00,2.8788
1648.00,2.9235
1647.00,2.9635
1646.00,2.9983
1645.00,3.0264
1644.00,3.0485
1643.00,3.0703
1642.00,3.0937
1641.00,3.1139
1640.00,3.1278
1639.00,3.1398
1638.00,3.1554
1637.00,3.1739
1636.00,3.1913
1635.00,3.2066
1634.00,3.2191
1633.00,3.2271
1632.00,3.2334
1631.00,3.2402
1630.00,3.2454
1629.00,3.2486
1628.00,3.2534
1627.00,3.2649
1626.00,3.2829
1625.00,3.3006
1624.00,3.3106
1623.00,3.3120
1622.00,3.3087
1621.00,3.3034
1620.00,3.2972
1619.00,3.2935
1618.00,3.2931
1617.00,3.2925
1616.00,3.2885
1615.00,3.2811
1614.00,3.2720
1613.00,3.2630
1612.00,3.2539
1611.00,3.2453
1610.00,3.2388
1609.00,3.2319
1608.00,3.2204
1607.00,3.2050
1606.00,3.1892
1605.00,3.1733
1604.00,3.1555
1603.00,3.1373
1602.00,3.1221
1601.00,3.1093
1600.00,3.0949
1599.00,3.0762
1598.00,3.0543
1597.00,3.0307
1596.00,3.0067
1595.00,2.9832
1594.00,2.9591
1593.00,2.9317
1592.00,2.8991
1591.00,2.8623
1590.00,2.8233
1589.00,2.7833
1588.00,2.7429
1587.00,2.7012
1586.00,2.6559
1585.00,2.6046
1584.00,2.5475
1583.00,2.4867
1582.00,2.4230
1581.00,2.3565
1580.00,2.2900
1579.00,2.2265
1578.00,2.1644
1577.00,2.0996
1576.00,2.0353
1575.00,1.9819
1574.00,1.9455
1573.00,1.9261
1572.00,1.9219
1571.00,1.9307
1570.00,1.9528
1569.00,1.9891
1568.00,2.0345
1567.00,2.0840
1566.00,2.1380
1565.00,2.1980
1564.00,2.2620
1563.00,2.3256
1562.00,2.3841
1561.00,2.4345
1560.00,2.4801
1559.00,2.5337
1558.00,2.6047
1557.00,2.6770
1556.00,2.7307
1555.00,2.7677
1554.00,2.7957
1553.00,2.8226
1552.00,2.8536
1551.00,2.8853
1550.00,2.9119
1549.00,2.9355
1548.00,2.9638
1547.00,2.9970
1546.00,3.0261
1545.00,3.0431
1544.00,3.0499
1543.00,3.0574
1542.00,3.0768
1541.00,3.1103
1540.00,3.1501
1539.00,3.1843
1538.00,3.2045
1537.00,3.2161
1536.00,3.2296
1535.00,3.2434
1534.00,3.2530
1533.00,3.2602
1532.00,3.2686
1531.00,3.2797
1530.00,3.2957
1529.00,3.3165
1528.00,3.3337
1527.00,3.3363
1526.00,3.3235
1525.00,3.3095
1524.00,3.3094
1523.00,3.3224
1522.00,3.3323
1521.00,3.3253
1520.00,3.3051
1519.00,3.2909
1518.00,3.2916
1517.00,3.2942
1516.00,3.2854
1515.00,3.2698
1514.00,3.2619
1513.00,3.2643
1512.00,3.2665
1511.00,3.2618
1510.00,3.2548
1509.00,3.2502
1508.00,3.2443
1507.00,3.2295
1506.00,3.2110
1505.00,3.2034
1504.00,3.2059
1503.00,3.2098
1502.00,3.2114
1501.00,3.2068
1500.00,3.1953
1499.00,3.1812
1498.00,3.1661
1497.00,3.1435
1496.00,3.1066
1495.00,3.0629
1494.00,3.0282
1493.00,3.0069
1492.00,2.9875
1491.00,2.9555
1490.00,2.9069
1489.00,2.8503
1488.00,2.7989
1487.00,2.7581
1486.00,2.7227
1485.00,2.6859
1484.00,2.6439
1483.00,2.5961
1482.00,2.5435
1481.00,2.4902
1480.00,2.4439
1479.00,2.4106
1478.00,2.3901
1477.00,2.3795
1476.00,2.3792
1475.00,2.3936
1474.00,2.4268
1473.00,2.4797
1472.00,2.5516
1471.00,2.6404
1470.00,2.7420
1469.00,2.8491
1468.00,2.9518
1467.00,3.0413
1466.00,3.1161
1465.00,3.1817
1464.00,3.2425
1463.00,3.2960
1462.00,3.3388
1461.00,3.3731
1460.00,3.4029
1459.00,3.4314
1458.00,3.4677
1457.00,3.5294
1456.00,3.6289
1455.00,3.7559
1454.00,3.8812
1453.00,3.9808
1452.00,4.0575
1451.00,4.1448
1450.00,4.2839
1449.00,4.4435
1448.00,4.3787
1447.00,4.0897
1446.00,3.8374
1445.00,3.6643
1444.00,3.5432
1443.00,3.4538
1442.00,3.3898
1441.00,3.3505
1440.00,3.3327
1439.00,3.3317
1438.00,3.3454
1437.00,3.3779
1436.00,3.4338
1435.00,3.5076
1434.00,3.5859
1433.00,3.6594
1432.00,3.7242
1431.00,3.7754
1430.00,3.8074
1429.00,3.8236
1428.00,3.8366
1427.00,3.8533
1426.00,3.8686
1425.00,3.8731
1424.00,3.8640
1423.00,3.8458
1422.00,3.8262
1421.00,3.8053
1420.00,3.7647
1419.00,3.6898
1418.00,3.5993
1417.00,3.5259
1416.00,3.4785
1415.00,3.4433
1414.00,3.4096
1413.00,3.3781
1412.00,3.3525
1411.00,3.3338
1410.00,3.3213
1409.00,3.3147
1408.00,3.3137
1407.00,3.3177
1406.00,3.3284
1405.00,3.3475
1404.00,3.3745
1403.00,3.4056
1402.00,3.4319
1401.00,3.4445
1400.00,3.4416
1399.00,3.4313
1398.00,3.4280
1397.00,3.4413
1396.00,3.4637
1395.00,3.4793
1394.00,3.4833
1393.00,3.4847
1392.00,3.4901
1391.00,3.4945
1390.00,3.4903
1389.00,3.4764
1388.00,3.4583
1387.00,3.4441
1386.00,3.4434
1385.00,3.4611
1384.00,3.4907
1383.00,3.5159
1382.00,3.5250
1381.00,3.5238
1380.00,3.5260
1379.00,3.5348
1378.00,3.5381
1377.00,3.5230
1376.00,3.4950
1375.00,3.4715
1374.00,3.4631
1373.00,3.4666
1372.00,3.4729
1371.00,3.4784
1370.00,3.4844
1369.00,3.4863
1368.00,3.4749
1367.00,3.4492
1366.00,3.4189
1365.00,3.3893
1364.00,3.3548
1363.00,3.3102
1362.00,3.2626
1361.00,3.2263
1360.00,3.2073
1359.00,3.1964
1358.00,3.1815
1357.00,3.1610
1356.00,3.1438
1355.00,3.1400
1354.00,3.1561
1353.00,3.1948
1352.00,3.2578
1351.00,3.3462
1350.00,3.4592
1349.00,3.5842
1348.00,3.6908
1347.00,3.7497
1346.00,3.7643
1345.00,3.7537
1344.00,3.7270
1343.00,3.6956
1342.00,3.6762
1341.00,3.6768
1340.00,3.6914
1339.00,3.7064
1338.00,3.7074
1337.00,3.6814
1336.00,3.6219
1335.00,3.5355
1334.00,3.4376
1333.00,3.3437
1332.00,3.2635
1331.00,3.2012
1330.00,3.1572
1329.00,3.1300
1328.00,3.1183
1327.00,3.1233
1326.00,3.1475
1325.00,3.1908
1324.00,3.2477
1323.00,3.3099
1322.00,3.3719
1321.00,3.4340
1320.00,3.5025
1319.00,3.5861
1318.00,3.6902
1317.00,3.8074
1316.00,3.9187
1315.00,4.0223
1314.00,4.1352
1313.00,4.2617
1312.00,4.3675
1311.00,4.3500
1310.00,4.2342
1309.00,4.1230
1308.00,4.0218
1307.00,3.9130
1306.00,3.7925
1305.00,3.6675
1304.00,3.5462
1303.00,3.4332
1302.00,3.3316
1301.00,3.2428
1300.00,3.1675
1299.00,3.1082
1298.00,3.0676
1297.00,3.0453
1296.00,3.0389
1295.00,3.0451
1294.00,3.0616
1293.00,3.0872
1292.00,3.1210
1291.00,3.1610
1290.00,3.2010
1289.00,3.2326
1288.00,3.2546
1287.00,3.2767
1286.00,3.3104
1285.00,3.3571
1284.00,3.4094
1283.00,3.4622
1282.00,3.5172
1281.00,3.5720
1280.00,3.6124
1279.00,3.6265
1278.00,3.6233
1277.00,3.6207
1276.00,3.6259
1275.00,3.6381
1274.00,3.6547
1273.00,3.6733
1272.00,3.6963
1271.00,3.7339
1270.00,3.7942
1269.00,3.8586
1268.00,3.8792
1267.00,3.8432
1266.00,3.8007
1265.00,3.7932
1264.00,3.8220
1263.00,3.8609
1262.00,3.8852
1261.00,3.8946
1260.00,3.9070
1259.00,3.9450
1258.00,3.9971
1257.00,3.9965
1256.00,3.9170
1255.00,3.8141
1254.00,3.7408
1253.00,3.7087
1252.00,3.7009
1251.00,3.7041
1250.00,3.7207
1249.00,3.7498
1248.00,3.7734
1247.00,3.7706
1246.00,3.7458
1245.00,3.7269
1244.00,3.7401
1243.00,3.7972
1242.00,3.8880
1241.00,3.9713
1240.00,3.9930
1239.00,3.9382
1238.00,3.8703
1237.00,3.8461
1236.00,3.8556
1235.00,3.8596
1234.00,3.8439
1233.00,3.8313
1232.00,3.8482
1231.00,3.8989
1230.00,3.9683
1229.00,4.0339
1228.00,4.0926
1227.00,4.1772
1226.00,4.3589
1225.00,4.6220
1224.00,4.6169
1223.00,4.8450
1222.00,4.8406
1221.00,4.3377
1220.00,4.2604
1219.00,4.3450
1218.00,4.3878
1217.00,4.3066
1216.00,4.1939
1215.00,4.0788
1214.00,3.9837
1213.00,3.9168
1212.00,3.8999
1211.00,3.9370
1210.00,3.9541
1209.00,3.8848
1208.00,3.8041
1207.00,3.7775
1206.00,3.8181
1205.00,3.9005
1204.00,3.9522
1203.00,3.9190
1202.00,3.8441
1201.00,3.7767
1200.00,3.7199
1199.00,3.6685
1198.00,3.6284
1197.00,3.6042
1196.00,3.5886
1195.00,3.5690
1194.00,3.5427
1193.00,3.5164
1192.00,3.4938
1191.00,3.4701
1190.00,3.4382
1189.00,3.3981
1188.00,3.3592
1187.00,3.3346
1186.00,3.3340
1185.00,3.3561
1184.00,3.3851
1183.00,3.4016
1182.00,3.4020
1181.00,3.3983
1180.00,3.4013
1179.00,3.4103
1178.00,3.4155
1177.00,3.4091
1176.00,3.3956
1175.00,3.3889
1174.00,3.4006
1173.00,3.4309
1172.00,3.4695
1171.00,3.5056
1170.00,3.5345
1169.00,3.5507
1168.00,3.5433
1167.00,3.5119
1166.00,3.4812
1165.00,3.4787
1164.00,3.5118
1163.00,3.5662
1162.00,3.6140
1161.00,3.6323
1160.00,3.6242
1159.00,3.6165
1158.00,3.6331
1157.00,3.6740
1156.00,3.7113
1155.00,3.7145
1154.00,3.6907
1153.00,3.6773
1152.00,3.6994
1151.00,3.7564
1150.00,3.8376
1149.00,3.9257
1148.00,3.9913
1147.00,4.0183
1146.00,3.9948
1145.00,3.9240
1144.00,3.8456
1143.00,3.7997
1142.00,3.8066
1141.00,3.8634
1140.00,3.9423
1139.00,3.9998
1138.00,4.0149
1137.00,4.0088
1136.00,4.0027
1135.00,3.9915
1134.00,3.9592
1133.00,3.9186
1132.00,3.9123
1131.00,3.9651
1130.00,4.0571
1129.00,4.1273
1128.00,4.1099
1127.00,4.0366
1126.00,4.0139
1125.00,4.0782
1124.00,4.1163
1123.00,4.0354
1122.00,4.0237
1121.00,4.1487
1120.00,4.3156
1119.00,4.2817
1118.00,4.1644
1117.00,4.0943
1116.00,4.0996
1115.00,4.1505
1114.00,4.1685
1113.00,4.1204
1112.00,4.0681
1111.00,4.0697
1110.00,4.1454
1109.00,4.2363
1108.00,4.2026
1107.00,4.0803
1106.00,4.0064
1105.00,4.0384
1104.00,4.1621
1103.00,4.3017
1102.00,4.4284
1101.00,4.6756
1100.00,4.6573
1099.00,4.3385
1098.00,4.2077
1097.00,4.1555
1096.00,4.1048
1095.00,4.0363
1094.00,4.0001
1093.00,4.0468
1092.00,4.1899
1091.00,4.1779
1090.00,3.9491
1089.00,3.8451
1088.00,3.8668
1087.00,3.9386
1086.00,3.9409
1085.00,3.8775
1084.00,3.8226
1083.00,3.8140
1082.00,3.8668
1081.00,3.9644
1080.00,4.0227
1079.00,3.9651
1078.00,3.8702
1077.00,3.8303
1076.00,3.8789
1075.00,4.0213
1074.00,4.1971
1073.00,4.2033
1072.00,4.1553
1071.00,4.1510
1070.00,4.0627
1069.00,3.9575
1068.00,3.9272
1067.00,3.9435
1066.00,3.9511
1065.00,3.9287
1064.00,3.9049
1063.00,3.8939
1062.00,3.8561
1061.00,3.7720
1060.00,3.6966
1059.00,3.6946
1058.00,3.7995
1057.00,4.0032
1056.00,4.1733
1055.00,4.1093
1054.00,3.9510
1053.00,3.8575
1052.00,3.8349
1051.00,3.8636
1050.00,3.9263
1049.00,3.9304
1048.00,3.8386
1047.00,3.7537
1046.00,3.6994
1045.00,3.6678
1044.00,3.6493
1043.00,3.6327
1042.00,3.6124
1041.00,3.5898
1040.00,3.5644
1039.00,3.5327
1038.00,3.5053
1037.00,3.5042
1036.00,3.5412
1035.00,3.6105
1034.00,3.6904
1033.00,3.7414
1032.00,3.7358
1031.00,3.7072
1030.00,3.7084
1029.00,3.7608
1028.00,3.8605
1027.00,3.9957
1026.00,4.1416
1025.00,4.2603
1024.00,4.3642
1023.00,4.5971
1022.00,5.2517
1021.00,4.4958
1020.00,4.3604
1019.00,4.3172
1018.00,4.2554
1017.00,4.1498
1016.00,4.1056
1015.00,4.1056
1014.00,4.0034
1013.00,3.9304
1012.00,3.9443
1011.00,3.9992
1010.00,4.0672
1009.00,4.0985
1008.00,4.0438
1007.00,3.9846
1006.00,3.9982
1005.00,4.1273
1004.00,4.3997
1003.00,4.4919
1002.00,4.3626
1001.00,4.3026
1000.00,4.2518
999.00,4.2846
998.00,4.2480
997.00,4.1046
996.00,4.0589
995.00,4.1085
994.00,4.1985
993.00,4.2867
992.00,4.3556
991.00,4.3512
990.00,4.2867
989.00,4.2690
988.00,4.3417
987.00,4.3354
986.00,4.2208
985.00,4.2318
984.00,4.3292
983.00,4.3176
982.00,4.2401
981.00,4.2109
980.00,4.2634
979.00,4.3434
978.00,4.3195
977.00,4.1814
976.00,4.0509
975.00,3.9910
974.00,4.0181
973.00,4.1359
972.00,4.3251
971.00,4.5988
970.00,4.7181
969.00,4.2992
968.00,4.1064
967.00,4.0616
966.00,4.1346
965.00,4.3494
964.00,4.7989
963.00,5.5031
962.00,4.6328
961.00,4.3431
960.00,4.1937
959.00,4.1127
958.00,4.0621
957.00,4.0355
956.00,4.0659
955.00,4.1975
954.00,4.4601
953.00,4.7831
952.00,4.7495
951.00,4.3869
950.00,4.1638
949.00,4.1204
948.00,4.2468
947.00,4.4099
946.00,4.4433
945.00,4.3349
944.00,4.0852
943.00,3.9784
942.00,4.0398
941.00,4.2925
940.00,4.6857
939.00,4.8038
938.00,5.3973
937.00,4.6617
936.00,4.3577
935.00,4.1691
934.00,4.0207
933.00,3.9394
932.00,3.9383
931.00,4.0260
930.00,4.1871
929.00,4.3105
928.00,4.2469
927.00,4.1385
926.00,4.1459
925.00,4.3471
924.00,4.7934
923.00,4.5092
922.00,4.2293
921.00,4.1385
920.00,4.2146
919.00,4.4352
918.00,4.7009
917.00,4.8007
916.00,4.6838
915.00,4.4149
914.00,4.1577
913.00,4.0465
912.00,4.0906
911.00,4.2833
910.00,4.4828
909.00,4.4065
908.00,4.2711
907.00,4.2155
906.00,4.2015
905.00,4.1877
904.00,4.1442
903.00,4.0229
902.00,3.9396
901.00,3.9582
900.00,4.0681
899.00,4.2551
898.00,4.5418
897.00,5.0558
896.00,5.1846
895.00,4.7505
894.00,4.5077
893.00,4.2050
892.00,3.9652
891.00,3.8442
890.00,3.8359
889.00,3.9272
888.00,4.1037
887.00,4.3343
886.00,4.6844
885.00,5.1414
884.00,4.3746
883.00,4.1628
882.00,4.1385
881.00,4.3051
880.00,4.9044
879.00,4.4817
878.00,4.2194
877.00,4.1820
876.00,4.2444
875.00,4.3677
874.00,4.4789
873.00,4.3377
872.00,4.0895
871.00,3.9557
870.00,3.9596
869.00,4.1244
868.00,4.3301
867.00,4.2357
866.00,4.1641
865.00,4.2006
864.00,4.2811
863.00,4.4552
862.00,4.7520
861.00,4.2618
860.00,4.0537
859.00,4.0417
858.00,4.0987
857.00,4.1214
856.00,4.0981
855.00,4.0934
854.00,4.1458
853.00,4.2529
852.00,4.3045
851.00,4.1855
850.00,3.9926
849.00,3.8774
848.00,3.8896
847.00,4.1012
846.00,4.7383
845.00,4.5266
844.00,4.2074
843.00,4.1183
842.00,4.2350
841.00,4.5425
840.00,4.2293
839.00,3.9829
838.00,3.9102
837.00,3.9488
836.00,4.1027
835.00,4.2222
834.00,4.0872
833.00,4.0107
832.00,4.0583
831.00,4.2634
830.00,4.4079
829.00,4.1450
828.00,4.0830
827.00,4.2937
826.00,4.6925
825.00,4.3043
824.00,4.0723
823.00,3.9663
822.00,3.9492
821.00,4.1391
820.00,4.3227
819.00,3.9555
818.00,3.7886
817.00,3.7895
816.00,3.9181
815.00,4.0494
814.00,3.9690
813.00,3.9580
812.00,4.1057
811.00,4.2788
810.00,4.2938
809.00,4.2296
808.00,4.0410
807.00,3.8360
806.00,3.7063
805.00,3.6594
804.00,3.6824
803.00,3.7530
802.00,3.8494
801.00,3.9829
800.00,4.0681
799.00,3.9177
798.00,3.7647
797.00,3.7054
796.00,3.7125
795.00,3.7302
794.00,3.7010
793.00,3.6905
792.00,3.7654
791.00,3.9993
790.00,4.4739
789.00,4.2956
788.00,4.0483
787.00,3.9603
786.00,3.9389
785.00,3.9413
784.00,3.8934
783.00,3.8248
782.00,3.8078
781.00,3.8839
780.00,4.0459
779.00,4.1792
778.00,4.1155
777.00,3.9785
776.00,3.8963
775.00,3.8957
774.00,4.0023
773.00,4.1446
772.00,4.1305
771.00,4.1345
770.00,4.3224
769.00,4.4342
768.00,4.1775
767.00,3.9837
766.00,3.8714
765.00,3.8246
764.00,3.8487
763.00,3.9380
762.00,4.1056
761.00,4.3689
760.00,4.6713
759.00,4.7020
758.00,4.4736
757.00,4.3670
756.00,4.4573
755.00,4.6874
754.00,4.9473
753.00,5.4018
752.00,5.3268
751.00,4.5944
750.00,4.1999
749.00,4.0186
748.00,4.0359
747.00,4.3237
746.00,4.5881
745.00,4.4475
744.00,4.3890
743.00,4.0770
742.00,3.8997
741.00,3.8790
740.00,4.0779
739.00,4.6212
738.00,4.3858
737.00,4.3415
736.00,4.5259
735.00,4.6145
734.00,4.4520
733.00,4.1932
732.00,4.0853
731.00,4.0310
730.00,3.9771
729.00,3.9390
728.00,3.9648
727.00,4.1136
726.00,4.4291
725.00,4.6271
724.00,4.6223
723.00,4.8970
722.00,4.6199
721.00,4.1000
720.00,3.9384
719.00,3.9634
718.00,4.2530
717.00,4.9254
716.00,4.2325
715.00,4.0683
714.00,4.1260
713.00,4.3772
712.00,4.6014
711.00,4.3433
710.00,4.3507
709.00,4.5949
708.00,5.1088
707.00,4.6559
706.00,4.3521
705.00,4.2168
704.00,4.2158
703.00,4.2558
702.00,4.0390
701.00,3.8797
700.00,3.8817
