Created as New Dataset,Sample 091 By Administrator Date Wednesday, November 24 2021
cm-1,A
7502.00,1.1563
7501.00,1.1503
7500.00,1.1445
7499.00,1.1388
7498.00,1.1331
7497.00,1.1275
7496.00,1.1219
7495.00,1.1165
7494.00,1.1111
7493.00,1.1069
7492.00,1.1044
7491.00,1.1034
7490.00,1.1028
7489.00,1.1018
7488.00,1.0995
7487.00,1.0951
7486.00,1.0880
7485.00,1.0778
7484.00,1.0654
7483.00,1.0525
7482.00,1.0409
7481.00,1.0314
7480.00,1.0242
7479.00,1.0185
7478.00,1.0137
7477.00,1.0098
7476.00,1.0064
7475.00,1.0032
7474.00,1.0000
7473.00,0.9967
7472.00,0.9934
7471.00,0.9899
7470.00,0.9856
7469.00,0.9801
7468.00,0.9739
7467.00,0.9676
7466.00,0.9613
7465.00,0.9547
7464.00,0.9476
7463.00,0.9400
7462.00,0.9320
7461.00,0.9238
7460.00,0.9156
7459.00,0.9076
7458.00,0.8999
7457.00,0.8927
7456.00,0.8857
7455.00,0.8792
7454.00,0.8730
7453.00,0.8669
7452.00,0.8607
7451.00,0.8541
7450.00,0.8471
7449.00,0.8398
7448.00,0.8327
7447.00,0.8260
7446.00,0.8196
7445.00,0.8134
7444.00,0.8073
7443.00,0.8015
7442.00,0.7962
7441.00,0.7915
7440.00,0.7871
7439.00,0.7832
7438.00,0.7795
7437.00,0.7760
7436.00,0.7727
7435.00,0.7696
7434.00,0.7669
7433.00,0.7649
7432.00,0.7639
7431.00,0.7638
7430.00,0.7643
7429.00,0.7655
7428.00,0.7674
7427.00,0.7701
7426.00,0.7732
7425.00,0.7761
7424.00,0.7789
7423.00,0.7819
7422.00,0.7857
7421.00,0.7903
7420.00,0.7955
7419.00,0.8009
7418.00,0.8065
7417.00,0.8126
7416.00,0.8193
7415.00,0.8264
7414.00,0.8338
7413.00,0.8413
7412.00,0.8490
7411.00,0.8568
7410.00,0.8650
7409.00,0.8736
7408.00,0.8825
7407.00,0.8917
7406.00,0.9011
7405.00,0.9112
7404.00,0.9221
7403.00,0.9332
7402.00,0.9440
7401.00,0.9540
7400.00,0.9636
7399.00,0.9727
7398.00,0.9815
7397.00,0.9899
7396.00,0.9982
7395.00,1.0069
7394.00,1.0157
7393.00,1.0244
7392.00,1.0327
7391.00,1.0409
7390.00,1.0491
7389.00,1.0572
7388.00,1.0650
7387.00,1.0727
7386.00,1.0806
7385.00,1.0891
7384.00,1.0980
7383.00,1.1068
7382.00,1.1149
7381.00,1.1221
7380.00,1.1287
7379.00,1.1351
7378.00,1.1417
7377.00,1.1477
7376.00,1.1527
7375.00,1.1565
7374.00,1.1599
7373.00,1.1631
7372.00,1.1662
7371.00,1.1688
7370.00,1.1709
7369.00,1.1727
7368.00,1.1747
7367.00,1.1771
7366.00,1.1796
7365.00,1.1817
7364.00,1.1827
7363.00,1.1825
7362.00,1.1818
7361.00,1.1812
7360.00,1.1809
7359.00,1.1806
7358.00,1.1799
7357.00,1.1787
7356.00,1.1773
7355.00,1.1754
7354.00,1.1729
7353.00,1.1696
7352.00,1.1658
7351.00,1.1619
7350.00,1.1579
7349.00,1.1534
7348.00,1.1483
7347.00,1.1423
7346.00,1.1360
7345.00,1.1296
7344.00,1.1234
7343.00,1.1174
7342.00,1.1112
7341.00,1.1043
7340.00,1.0967
7339.00,1.0884
7338.00,1.0796
7337.00,1.0705
7336.00,1.0611
7335.00,1.0517
7334.00,1.0427
7333.00,1.0340
7332.00,1.0253
7331.00,1.0163
7330.00,1.0071
7329.00,0.9979
7328.00,0.9887
7327.00,0.9788
7326.00,0.9685
7325.00,0.9582
7324.00,0.9481
7323.00,0.9383
7322.00,0.9281
7321.00,0.9177
7320.00,0.9075
7319.00,0.8979
7318.00,0.8893
7317.00,0.8813
7316.00,0.8736
7315.00,0.8660
7314.00,0.8583
7313.00,0.8507
7312.00,0.8430
7311.00,0.8354
7310.00,0.8280
7309.00,0.8212
7308.00,0.8151
7307.00,0.8098
7306.00,0.8051
7305.00,0.8008
7304.00,0.7969
7303.00,0.7933
7302.00,0.7901
7301.00,0.7872
7300.00,0.7848
7299.00,0.7829
7298.00,0.7817
7297.00,0.7813
7296.00,0.7818
7295.00,0.7828
7294.00,0.7841
7293.00,0.7856
7292.00,0.7877
7291.00,0.7905
7290.00,0.7940
7289.00,0.7981
7288.00,0.8026
7287.00,0.8077
7286.00,0.8135
7285.00,0.8198
7284.00,0.8267
7283.00,0.8337
7282.00,0.8407
7281.00,0.8478
7280.00,0.8552
7279.00,0.8631
7278.00,0.8712
7277.00,0.8791
7276.00,0.8869
7275.00,0.8953
7274.00,0.9041
7273.00,0.9131
7272.00,0.9219
7271.00,0.9306
7270.00,0.9395
7269.00,0.9487
7268.00,0.9578
7267.00,0.9669
7266.00,0.9760
7265.00,0.9851
7264.00,0.9939
7263.00,1.0025
7262.00,1.0109
7261.00,1.0196
7260.00,1.0286
7259.00,1.0376
7258.00,1.0466
7257.00,1.0552
7256.00,1.0633
7255.00,1.0707
7254.00,1.0776
7253.00,1.0842
7252.00,1.0902
7251.00,1.0957
7250.00,1.1009
7249.00,1.1061
7248.00,1.1112
7247.00,1.1161
7246.00,1.1204
7245.00,1.1243
7244.00,1.1280
7243.00,1.1321
7242.00,1.1365
7241.00,1.1414
7240.00,1.1460
7239.00,1.1499
7238.00,1.1526
7237.00,1.1545
7236.00,1.1559
7235.00,1.1573
7234.00,1.1584
7233.00,1.1590
7232.00,1.1593
7231.00,1.1595
7230.00,1.1597
7229.00,1.1595
7228.00,1.1589
7227.00,1.1580
7226.00,1.1570
7225.00,1.1552
7224.00,1.1525
7223.00,1.1491
7222.00,1.1457
7221.00,1.1428
7220.00,1.1398
7219.00,1.1362
7218.00,1.1321
7217.00,1.1281
7216.00,1.1243
7215.00,1.1202
7214.00,1.1149
7213.00,1.1083
7212.00,1.1012
7211.00,1.0944
7210.00,1.0879
7209.00,1.0813
7208.00,1.0744
7207.00,1.0673
7206.00,1.0599
7205.00,1.0523
7204.00,1.0443
7203.00,1.0361
7202.00,1.0280
7201.00,1.0199
7200.00,1.0118
7199.00,1.0034
7198.00,0.9947
7197.00,0.9857
7196.00,0.9763
7195.00,0.9669
7194.00,0.9575
7193.00,0.9482
7192.00,0.9389
7191.00,0.9296
7190.00,0.9203
7189.00,0.9112
7188.00,0.9021
7187.00,0.8930
7186.00,0.8840
7185.00,0.8753
7184.00,0.8672
7183.00,0.8596
7182.00,0.8525
7181.00,0.8454
7180.00,0.8381
7179.00,0.8308
7178.00,0.8237
7177.00,0.8169
7176.00,0.8107
7175.00,0.8050
7174.00,0.7999
7173.00,0.7953
7172.00,0.7910
7171.00,0.7871
7170.00,0.7837
7169.00,0.7811
7168.00,0.7790
7167.00,0.7772
7166.00,0.7760
7165.00,0.7758
7164.00,0.7765
7163.00,0.7778
7162.00,0.7794
7161.00,0.7815
7160.00,0.7839
7159.00,0.7868
7158.00,0.7904
7157.00,0.7947
7156.00,0.7997
7155.00,0.8051
7154.00,0.8105
7153.00,0.8162
7152.00,0.8223
7151.00,0.8289
7150.00,0.8360
7149.00,0.8435
7148.00,0.8513
7147.00,0.8594
7146.00,0.8680
7145.00,0.8770
7144.00,0.8861
7143.00,0.8951
7142.00,0.9043
7141.00,0.9138
7140.00,0.9238
7139.00,0.9340
7138.00,0.9439
7137.00,0.9537
7136.00,0.9632
7135.00,0.9726
7134.00,0.9818
7133.00,0.9910
7132.00,1.0003
7131.00,1.0099
7130.00,1.0198
7129.00,1.0297
7128.00,1.0396
7127.00,1.0493
7126.00,1.0588
7125.00,1.0679
7124.00,1.0766
7123.00,1.0850
7122.00,1.0932
7121.00,1.1012
7120.00,1.1091
7119.00,1.1167
7118.00,1.1242
7117.00,1.1314
7116.00,1.1380
7115.00,1.1437
7114.00,1.1487
7113.00,1.1535
7112.00,1.1584
7111.00,1.1636
7110.00,1.1690
7109.00,1.1741
7108.00,1.1785
7107.00,1.1822
7106.00,1.1856
7105.00,1.1889
7104.00,1.1918
7103.00,1.1942
7102.00,1.1964
7101.00,1.1988
7100.00,1.2012
7099.00,1.2030
7098.00,1.2035
7097.00,1.2029
7096.00,1.2017
7095.00,1.2004
7094.00,1.1992
7093.00,1.1979
7092.00,1.1962
7091.00,1.1941
7090.00,1.1915
7089.00,1.1888
7088.00,1.1857
7087.00,1.1824
7086.00,1.1787
7085.00,1.1747
7084.00,1.1702
7083.00,1.1652
7082.00,1.1596
7081.00,1.1534
7080.00,1.1465
7079.00,1.1392
7078.00,1.1319
7077.00,1.1246
7076.00,1.1171
7075.00,1.1092
7074.00,1.1010
7073.00,1.0928
7072.00,1.0845
7071.00,1.0761
7070.00,1.0673
7069.00,1.0581
7068.00,1.0484
7067.00,1.0385
7066.00,1.0284
7065.00,1.0182
7064.00,1.0080
7063.00,0.9980
7062.00,0.9882
7061.00,0.9785
7060.00,0.9686
7059.00,0.9583
7058.00,0.9479
7057.00,0.9375
7056.00,0.9274
7055.00,0.9176
7054.00,0.9080
7053.00,0.8985
7052.00,0.8891
7051.00,0.8800
7050.00,0.8712
7049.00,0.8625
7048.00,0.8538
7047.00,0.8452
7046.00,0.8373
7045.00,0.8300
7044.00,0.8232
7043.00,0.8169
7042.00,0.8112
7041.00,0.8061
7040.00,0.8014
7039.00,0.7971
7038.00,0.7933
7037.00,0.7900
7036.00,0.7872
7035.00,0.7848
7034.00,0.7827
7033.00,0.7814
7032.00,0.7809
7031.00,0.7814
7030.00,0.7825
7029.00,0.7840
7028.00,0.7859
7027.00,0.7884
7026.00,0.7916
7025.00,0.7955
7024.00,0.7999
7023.00,0.8047
7022.00,0.8101
7021.00,0.8161
7020.00,0.8227
7019.00,0.8297
7018.00,0.8370
7017.00,0.8445
7016.00,0.8523
7015.00,0.8603
7014.00,0.8688
7013.00,0.8778
7012.00,0.8870
7011.00,0.8959
7010.00,0.9047
7009.00,0.9135
7008.00,0.9227
7007.00,0.9320
7006.00,0.9416
7005.00,0.9513
7004.00,0.9612
7003.00,0.9710
7002.00,0.9810
7001.00,0.9912
7000.00,1.0014
6999.00,1.0114
6998.00,1.0211
6997.00,1.0309
6996.00,1.0406
6995.00,1.0501
6994.00,1.0589
6993.00,1.0671
6992.00,1.0747
6991.00,1.0822
6990.00,1.0898
6989.00,1.0976
6988.00,1.1056
6987.00,1.1134
6986.00,1.1210
6985.00,1.1282
6984.00,1.1351
6983.00,1.1414
6982.00,1.1468
6981.00,1.1517
6980.00,1.1565
6979.00,1.1614
6978.00,1.1664
6977.00,1.1711
6976.00,1.1752
6975.00,1.1787
6974.00,1.1818
6973.00,1.1844
6972.00,1.1866
6971.00,1.1884
6970.00,1.1899
6969.00,1.1913
6968.00,1.1929
6967.00,1.1941
6966.00,1.1947
6965.00,1.1945
6964.00,1.1937
6963.00,1.1926
6962.00,1.1913
6961.00,1.1898
6960.00,1.1881
6959.00,1.1864
6958.00,1.1844
6957.00,1.1819
6956.00,1.1786
6955.00,1.1747
6954.00,1.1704
6953.00,1.1655
6952.00,1.1604
6951.00,1.1550
6950.00,1.1495
6949.00,1.1436
6948.00,1.1371
6947.00,1.1302
6946.00,1.1233
6945.00,1.1163
6944.00,1.1089
6943.00,1.1012
6942.00,1.0935
6941.00,1.0860
6940.00,1.0783
6939.00,1.0700
6938.00,1.0610
6937.00,1.0519
6936.00,1.0427
6935.00,1.0331
6934.00,1.0232
6933.00,1.0132
6932.00,1.0034
6931.00,0.9933
6930.00,0.9830
6929.00,0.9725
6928.00,0.9622
6927.00,0.9522
6926.00,0.9422
6925.00,0.9322
6924.00,0.9222
6923.00,0.9123
6922.00,0.9024
6921.00,0.8927
6920.00,0.8830
6919.00,0.8735
6918.00,0.8645
6917.00,0.8559
6916.00,0.8477
6915.00,0.8398
6914.00,0.8321
6913.00,0.8249
6912.00,0.8179
6911.00,0.8113
6910.00,0.8051
6909.00,0.7995
6908.00,0.7944
6907.00,0.7897
6906.00,0.7855
6905.00,0.7818
6904.00,0.7787
6903.00,0.7760
6902.00,0.7740
6901.00,0.7728
6900.00,0.7724
6899.00,0.7726
6898.00,0.7734
6897.00,0.7749
6896.00,0.7770
6895.00,0.7796
6894.00,0.7830
6893.00,0.7869
6892.00,0.7915
6891.00,0.7966
6890.00,0.8021
6889.00,0.8081
6888.00,0.8145
6887.00,0.8213
6886.00,0.8284
6885.00,0.8358
6884.00,0.8437
6883.00,0.8520
6882.00,0.8607
6881.00,0.8698
6880.00,0.8792
6879.00,0.8887
6878.00,0.8983
6877.00,0.9079
6876.00,0.9175
6875.00,0.9273
6874.00,0.9374
6873.00,0.9474
6872.00,0.9575
6871.00,0.9675
6870.00,0.9776
6869.00,0.9879
6868.00,0.9982
6867.00,1.0084
6866.00,1.0183
6865.00,1.0281
6864.00,1.0379
6863.00,1.0477
6862.00,1.0576
6861.00,1.0673
6860.00,1.0767
6859.00,1.0861
6858.00,1.0952
6857.00,1.1040
6856.00,1.1123
6855.00,1.1203
6854.00,1.1281
6853.00,1.1359
6852.00,1.1436
6851.00,1.1512
6850.00,1.1588
6849.00,1.1662
6848.00,1.1729
6847.00,1.1784
6846.00,1.1829
6845.00,1.1870
6844.00,1.1908
6843.00,1.1945
6842.00,1.1984
6841.00,1.2022
6840.00,1.2058
6839.00,1.2091
6838.00,1.2118
6837.00,1.2141
6836.00,1.2158
6835.00,1.2168
6834.00,1.2172
6833.00,1.2175
6832.00,1.2175
6831.00,1.2170
6830.00,1.2160
6829.00,1.2144
6828.00,1.2127
6827.00,1.2109
6826.00,1.2093
6825.00,1.2077
6824.00,1.2056
6823.00,1.2028
6822.00,1.1990
6821.00,1.1945
6820.00,1.1897
6819.00,1.1846
6818.00,1.1791
6817.00,1.1733
6816.00,1.1672
6815.00,1.1610
6814.00,1.1544
6813.00,1.1473
6812.00,1.1397
6811.00,1.1316
6810.00,1.1232
6809.00,1.1145
6808.00,1.1055
6807.00,1.0963
6806.00,1.0870
6805.00,1.0773
6804.00,1.0675
6803.00,1.0575
6802.00,1.0476
6801.00,1.0375
6800.00,1.0271
6799.00,1.0165
6798.00,1.0060
6797.00,0.9953
6796.00,0.9845
6795.00,0.9736
6794.00,0.9626
6793.00,0.9516
6792.00,0.9407
6791.00,0.9298
6790.00,0.9191
6789.00,0.9088
6788.00,0.8989
6787.00,0.8892
6786.00,0.8798
6785.00,0.8705
6784.00,0.8611
6783.00,0.8520
6782.00,0.8433
6781.00,0.8351
6780.00,0.8273
6779.00,0.8198
6778.00,0.8129
6777.00,0.8066
6776.00,0.8010
6775.00,0.7959
6774.00,0.7913
6773.00,0.7872
6772.00,0.7837
6771.00,0.7808
6770.00,0.7787
6769.00,0.7773
6768.00,0.7763
6767.00,0.7759
6766.00,0.7760
6765.00,0.7769
6764.00,0.7783
6763.00,0.7804
6762.00,0.7830
6761.00,0.7864
6760.00,0.7904
6759.00,0.7950
6758.00,0.8003
6757.00,0.8061
6756.00,0.8124
6755.00,0.8190
6754.00,0.8261
6753.00,0.8338
6752.00,0.8421
6751.00,0.8505
6750.00,0.8592
6749.00,0.8681
6748.00,0.8773
6747.00,0.8866
6746.00,0.8960
6745.00,0.9057
6744.00,0.9156
6743.00,0.9256
6742.00,0.9359
6741.00,0.9464
6740.00,0.9569
6739.00,0.9672
6738.00,0.9773
6737.00,0.9875
6736.00,0.9977
6735.00,1.0080
6734.00,1.0181
6733.00,1.0283
6732.00,1.0385
6731.00,1.0486
6730.00,1.0583
6729.00,1.0675
6728.00,1.0764
6727.00,1.0851
6726.00,1.0938
6725.00,1.1022
6724.00,1.1103
6723.00,1.1180
6722.00,1.1257
6721.00,1.1335
6720.00,1.1412
6719.00,1.1485
6718.00,1.1554
6717.00,1.1618
6716.00,1.1676
6715.00,1.1726
6714.00,1.1769
6713.00,1.1810
6712.00,1.1852
6711.00,1.1898
6710.00,1.1945
6709.00,1.1990
6708.00,1.2029
6707.00,1.2057
6706.00,1.2073
6705.00,1.2081
6704.00,1.2083
6703.00,1.2084
6702.00,1.2083
6701.00,1.2082
6700.00,1.2081
6699.00,1.2077
6698.00,1.2070
6697.00,1.2059
6696.00,1.2045
6695.00,1.2029
6694.00,1.2008
6693.00,1.1979
6692.00,1.1942
6691.00,1.1901
6690.00,1.1856
6689.00,1.1808
6688.00,1.1757
6687.00,1.1702
6686.00,1.1645
6685.00,1.1589
6684.00,1.1531
6683.00,1.1469
6682.00,1.1401
6681.00,1.1330
6680.00,1.1258
6679.00,1.1183
6678.00,1.1106
6677.00,1.1027
6676.00,1.0942
6675.00,1.0856
6674.00,1.0769
6673.00,1.0682
6672.00,1.0593
6671.00,1.0497
6670.00,1.0399
6669.00,1.0300
6668.00,1.0200
6667.00,1.0095
6666.00,0.9988
6665.00,0.9883
6664.00,0.9779
6663.00,0.9674
6662.00,0.9567
6661.00,0.9459
6660.00,0.9354
6659.00,0.9250
6658.00,0.9148
6657.00,0.9046
6656.00,0.8946
6655.00,0.8847
6654.00,0.8750
6653.00,0.8654
6652.00,0.8560
6651.00,0.8470
6650.00,0.8385
6649.00,0.8304
6648.00,0.8227
6647.00,0.8153
6646.00,0.8082
6645.00,0.8016
6644.00,0.7954
6643.00,0.7896
6642.00,0.7845
6641.00,0.7801
6640.00,0.7764
6639.00,0.7734
6638.00,0.7709
6637.00,0.7690
6636.00,0.7678
6635.00,0.7672
6634.00,0.7673
6633.00,0.7680
6632.00,0.7695
6631.00,0.7717
6630.00,0.7746
6629.00,0.7781
6628.00,0.7821
6627.00,0.7866
6626.00,0.7919
6625.00,0.7978
6624.00,0.8042
6623.00,0.8109
6622.00,0.8181
6621.00,0.8258
6620.00,0.8341
6619.00,0.8429
6618.00,0.8518
6617.00,0.8609
6616.00,0.8702
6615.00,0.8796
6614.00,0.8892
6613.00,0.8990
6612.00,0.9090
6611.00,0.9195
6610.00,0.9303
6609.00,0.9412
6608.00,0.9520
6607.00,0.9629
6606.00,0.9739
6605.00,0.9848
6604.00,0.9956
6603.00,1.0064
6602.00,1.0172
6601.00,1.0282
6600.00,1.0390
6599.00,1.0494
6598.00,1.0595
6597.00,1.0695
6596.00,1.0793
6595.00,1.0891
6594.00,1.0988
6593.00,1.1085
6592.00,1.1178
6591.00,1.1268
6590.00,1.1356
6589.00,1.1443
6588.00,1.1526
6587.00,1.1601
6586.00,1.1671
6585.00,1.1738
6584.00,1.1803
6583.00,1.1866
6582.00,1.1926
6581.00,1.1981
6580.00,1.2033
6579.00,1.2081
6578.00,1.2128
6577.00,1.2172
6576.00,1.2213
6575.00,1.2251
6574.00,1.2285
6573.00,1.2314
6572.00,1.2336
6571.00,1.2349
6570.00,1.2357
6569.00,1.2361
6568.00,1.2363
6567.00,1.2362
6566.00,1.2361
6565.00,1.2361
6564.00,1.2360
6563.00,1.2353
6562.00,1.2340
6561.00,1.2323
6560.00,1.2303
6559.00,1.2276
6558.00,1.2243
6557.00,1.2205
6556.00,1.2164
6555.00,1.2114
6554.00,1.2055
6553.00,1.1989
6552.00,1.1920
6551.00,1.1849
6550.00,1.1777
6549.00,1.1706
6548.00,1.1637
6547.00,1.1569
6546.00,1.1499
6545.00,1.1423
6544.00,1.1339
6543.00,1.1246
6542.00,1.1147
6541.00,1.1044
6540.00,1.0940
6539.00,1.0835
6538.00,1.0731
6537.00,1.0629
6536.00,1.0527
6535.00,1.0423
6534.00,1.0314
6533.00,1.0203
6532.00,1.0089
6531.00,0.9973
6530.00,0.9856
6529.00,0.9740
6528.00,0.9623
6527.00,0.9507
6526.00,0.9393
6525.00,0.9281
6524.00,0.9170
6523.00,0.9062
6522.00,0.8955
6521.00,0.8850
6520.00,0.8748
6519.00,0.8648
6518.00,0.8550
6517.00,0.8456
6516.00,0.8367
6515.00,0.8285
6514.00,0.8210
6513.00,0.8140
6512.00,0.8074
6511.00,0.8012
6510.00,0.7955
6509.00,0.7903
6508.00,0.7855
6507.00,0.7812
6506.00,0.7776
6505.00,0.7749
6504.00,0.7730
6503.00,0.7718
6502.00,0.7712
6501.00,0.7713
6500.00,0.7722
6499.00,0.7739
6498.00,0.7763
6497.00,0.7794
6496.00,0.7831
6495.00,0.7874
6494.00,0.7923
6493.00,0.7977
6492.00,0.8036
6491.00,0.8101
6490.00,0.8172
6489.00,0.8250
6488.00,0.8332
6487.00,0.8418
6486.00,0.8506
6485.00,0.8598
6484.00,0.8693
6483.00,0.8791
6482.00,0.8892
6481.00,0.8996
6480.00,0.9103
6479.00,0.9210
6478.00,0.9317
6477.00,0.9423
6476.00,0.9527
6475.00,0.9632
6474.00,0.9739
6473.00,0.9849
6472.00,0.9957
6471.00,1.0063
6470.00,1.0169
6469.00,1.0278
6468.00,1.0387
6467.00,1.0493
6466.00,1.0596
6465.00,1.0699
6464.00,1.0804
6463.00,1.0908
6462.00,1.1007
6461.00,1.1102
6460.00,1.1192
6459.00,1.1277
6458.00,1.1357
6457.00,1.1433
6456.00,1.1509
6455.00,1.1584
6454.00,1.1658
6453.00,1.1732
6452.00,1.1803
6451.00,1.1869
6450.00,1.1928
6449.00,1.1979
6448.00,1.2022
6447.00,1.2060
6446.00,1.2095
6445.00,1.2131
6444.00,1.2167
6443.00,1.2202
6442.00,1.2232
6441.00,1.2256
6440.00,1.2274
6439.00,1.2286
6438.00,1.2291
6437.00,1.2292
6436.00,1.2289
6435.00,1.2284
6434.00,1.2278
6433.00,1.2271
6432.00,1.2261
6431.00,1.2246
6430.00,1.2226
6429.00,1.2200
6428.00,1.2173
6427.00,1.2144
6426.00,1.2114
6425.00,1.2077
6424.00,1.2035
6423.00,1.1989
6422.00,1.1942
6421.00,1.1890
6420.00,1.1831
6419.00,1.1764
6418.00,1.1695
6417.00,1.1625
6416.00,1.1553
6415.00,1.1476
6414.00,1.1395
6413.00,1.1314
6412.00,1.1231
6411.00,1.1146
6410.00,1.1057
6409.00,1.0964
6408.00,1.0870
6407.00,1.0775
6406.00,1.0676
6405.00,1.0573
6404.00,1.0467
6403.00,1.0359
6402.00,1.0250
6401.00,1.0141
6400.00,1.0032
6399.00,0.9923
6398.00,0.9814
6397.00,0.9704
6396.00,0.9592
6395.00,0.9479
6394.00,0.9365
6393.00,0.9253
6392.00,0.9144
6391.00,0.9036
6390.00,0.8929
6389.00,0.8825
6388.00,0.8722
6387.00,0.8621
6386.00,0.8522
6385.00,0.8427
6384.00,0.8336
6383.00,0.8249
6382.00,0.8168
6381.00,0.8093
6380.00,0.8022
6379.00,0.7956
6378.00,0.7896
6377.00,0.7842
6376.00,0.7796
6375.00,0.7756
6374.00,0.7723
6373.00,0.7697
6372.00,0.7677
6371.00,0.7664
6370.00,0.7657
6369.00,0.7656
6368.00,0.7662
6367.00,0.7675
6366.00,0.7696
6365.00,0.7724
6364.00,0.7760
6363.00,0.7801
6362.00,0.7850
6361.00,0.7905
6360.00,0.7966
6359.00,0.8034
6358.00,0.8107
6357.00,0.8185
6356.00,0.8268
6355.00,0.8355
6354.00,0.8446
6353.00,0.8541
6352.00,0.8640
6351.00,0.8743
6350.00,0.8848
6349.00,0.8955
6348.00,0.9063
6347.00,0.9173
6346.00,0.9284
6345.00,0.9397
6344.00,0.9511
6343.00,0.9626
6342.00,0.9742
6341.00,0.9859
6340.00,0.9975
6339.00,1.0090
6338.00,1.0204
6337.00,1.0317
6336.00,1.0427
6335.00,1.0536
6334.00,1.0643
6333.00,1.0749
6332.00,1.0856
6331.00,1.0961
6330.00,1.1064
6329.00,1.1164
6328.00,1.1262
6327.00,1.1358
6326.00,1.1453
6325.00,1.1546
6324.00,1.1636
6323.00,1.1722
6322.00,1.1805
6321.00,1.1884
6320.00,1.1960
6319.00,1.2033
6318.00,1.2103
6317.00,1.2169
6316.00,1.2230
6315.00,1.2284
6314.00,1.2331
6313.00,1.2373
6312.00,1.2413
6311.00,1.2451
6310.00,1.2487
6309.00,1.2520
6308.00,1.2548
6307.00,1.2572
6306.00,1.2592
6305.00,1.2607
6304.00,1.2616
6303.00,1.2620
6302.00,1.2620
6301.00,1.2618
6300.00,1.2611
6299.00,1.2599
6298.00,1.2585
6297.00,1.2570
6296.00,1.2552
6295.00,1.2526
6294.00,1.2491
6293.00,1.2451
6292.00,1.2407
6291.00,1.2361
6290.00,1.2312
6289.00,1.2263
6288.00,1.2210
6287.00,1.2151
6286.00,1.2084
6285.00,1.2013
6284.00,1.1938
6283.00,1.1859
6282.00,1.1776
6281.00,1.1688
6280.00,1.1599
6279.00,1.1509
6278.00,1.1416
6277.00,1.1321
6276.00,1.1222
6275.00,1.1119
6274.00,1.1014
6273.00,1.0906
6272.00,1.0792
6271.00,1.0674
6270.00,1.0553
6269.00,1.0433
6268.00,1.0314
6267.00,1.0196
6266.00,1.0076
6265.00,0.9955
6264.00,0.9833
6263.00,0.9710
6262.00,0.9587
6261.00,0.9464
6260.00,0.9343
6259.00,0.9223
6258.00,0.9106
6257.00,0.8992
6256.00,0.8880
6255.00,0.8772
6254.00,0.8666
6253.00,0.8564
6252.00,0.8465
6251.00,0.8368
6250.00,0.8276
6249.00,0.8189
6248.00,0.8108
6247.00,0.8033
6246.00,0.7964
6245.00,0.7903
6244.00,0.7849
6243.00,0.7802
6242.00,0.7761
6241.00,0.7726
6240.00,0.7698
6239.00,0.7678
6238.00,0.7666
6237.00,0.7661
6236.00,0.7663
6235.00,0.7671
6234.00,0.7688
6233.00,0.7715
6232.00,0.7748
6231.00,0.7788
6230.00,0.7834
6229.00,0.7887
6228.00,0.7947
6227.00,0.8012
6226.00,0.8084
6225.00,0.8161
6224.00,0.8245
6223.00,0.8334
6222.00,0.8427
6221.00,0.8523
6220.00,0.8621
6219.00,0.8722
6218.00,0.8828
6217.00,0.8937
6216.00,0.9049
6215.00,0.9161
6214.00,0.9273
6213.00,0.9384
6212.00,0.9494
6211.00,0.9605
6210.00,0.9716
6209.00,0.9831
6208.00,0.9948
6207.00,1.0066
6206.00,1.0183
6205.00,1.0299
6204.00,1.0411
6203.00,1.0520
6202.00,1.0627
6201.00,1.0733
6200.00,1.0838
6199.00,1.0942
6198.00,1.1045
6197.00,1.1147
6196.00,1.1247
6195.00,1.1342
6194.00,1.1433
6193.00,1.1521
6192.00,1.1605
6191.00,1.1684
6190.00,1.1759
6189.00,1.1832
6188.00,1.1901
6187.00,1.1967
6186.00,1.2029
6185.00,1.2089
6184.00,1.2146
6183.00,1.2199
6182.00,1.2248
6181.00,1.2293
6180.00,1.2333
6179.00,1.2367
6178.00,1.2393
6177.00,1.2416
6176.00,1.2436
6175.00,1.2455
6174.00,1.2471
6173.00,1.2484
6172.00,1.2492
6171.00,1.2496
6170.00,1.2495
6169.00,1.2492
6168.00,1.2485
6167.00,1.2477
6166.00,1.2467
6165.00,1.2455
6164.00,1.2438
6163.00,1.2413
6162.00,1.2384
6161.00,1.2352
6160.00,1.2318
6159.00,1.2279
6158.00,1.2237
6157.00,1.2190
6156.00,1.2140
6155.00,1.2083
6154.00,1.2022
6153.00,1.1957
6152.00,1.1889
6151.00,1.1819
6150.00,1.1745
6149.00,1.1667
6148.00,1.1585
6147.00,1.1501
6146.00,1.1414
6145.00,1.1326
6144.00,1.1234
6143.00,1.1138
6142.00,1.1037
6141.00,1.0932
6140.00,1.0824
6139.00,1.0711
6138.00,1.0595
6137.00,1.0477
6136.00,1.0360
6135.00,1.0241
6134.00,1.0121
6133.00,0.9999
6132.00,0.9877
6131.00,0.9754
6130.00,0.9630
6129.00,0.9508
6128.00,0.9386
6127.00,0.9266
6126.00,0.9147
6125.00,0.9030
6124.00,0.8914
6123.00,0.8800
6122.00,0.8689
6121.00,0.8582
6120.00,0.8481
6119.00,0.8384
6118.00,0.8291
6117.00,0.8203
6116.00,0.8119
6115.00,0.8040
6114.00,0.7965
6113.00,0.7896
6112.00,0.7835
6111.00,0.7783
6110.00,0.7739
6109.00,0.7703
6108.00,0.7674
6107.00,0.7653
6106.00,0.7638
6105.00,0.7630
6104.00,0.7631
6103.00,0.7640
6102.00,0.7658
6101.00,0.7685
6100.00,0.7718
6099.00,0.7758
6098.00,0.7804
6097.00,0.7857
6096.00,0.7917
6095.00,0.7983
6094.00,0.8056
6093.00,0.8135
6092.00,0.8219
6091.00,0.8307
6090.00,0.8400
6089.00,0.8497
6088.00,0.8599
6087.00,0.8705
6086.00,0.8815
6085.00,0.8928
6084.00,0.9042
6083.00,0.9156
6082.00,0.9271
6081.00,0.9388
6080.00,0.9506
6079.00,0.9628
6078.00,0.9753
6077.00,0.9881
6076.00,1.0010
6075.00,1.0138
6074.00,1.0264
6073.00,1.0389
6072.00,1.0510
6071.00,1.0627
6070.00,1.0741
6069.00,1.0853
6068.00,1.0965
6067.00,1.1075
6066.00,1.1185
6065.00,1.1294
6064.00,1.1403
6063.00,1.1508
6062.00,1.1609
6061.00,1.1706
6060.00,1.1798
6059.00,1.1886
6058.00,1.1971
6057.00,1.2052
6056.00,1.2130
6055.00,1.2206
6054.00,1.2278
6053.00,1.2345
6052.00,1.2404
6051.00,1.2459
6050.00,1.2512
6049.00,1.2565
6048.00,1.2618
6047.00,1.2668
6046.00,1.2713
6045.00,1.2753
6044.00,1.2785
6043.00,1.2809
6042.00,1.2826
6041.00,1.2838
6040.00,1.2844
6039.00,1.2846
6038.00,1.2846
6037.00,1.2842
6036.00,1.2835
6035.00,1.2822
6034.00,1.2808
6033.00,1.2794
6032.00,1.2778
6031.00,1.2757
6030.00,1.2730
6029.00,1.2699
6028.00,1.2666
6027.00,1.2629
6026.00,1.2584
6025.00,1.2532
6024.00,1.2472
6023.00,1.2408
6022.00,1.2342
6021.00,1.2275
6020.00,1.2204
6019.00,1.2129
6018.00,1.2050
6017.00,1.1966
6016.00,1.1878
6015.00,1.1784
6014.00,1.1686
6013.00,1.1586
6012.00,1.1482
6011.00,1.1374
6010.00,1.1261
6009.00,1.1145
6008.00,1.1027
6007.00,1.0910
6006.00,1.0793
6005.00,1.0676
6004.00,1.0556
6003.00,1.0431
6002.00,1.0302
6001.00,1.0170
6000.00,1.0039
5999.00,0.9907
5998.00,0.9775
5997.00,0.9643
5996.00,0.9511
5995.00,0.9380
5994.00,0.9251
5993.00,0.9124
5992.00,0.9000
5991.00,0.8879
5990.00,0.8763
5989.00,0.8650
5988.00,0.8541
5987.00,0.8435
5986.00,0.8334
5985.00,0.8239
5984.00,0.8149
5983.00,0.8065
5982.00,0.7987
5981.00,0.7916
5980.00,0.7852
5979.00,0.7795
5978.00,0.7746
5977.00,0.7705
5976.00,0.7671
5975.00,0.7644
5974.00,0.7625
5973.00,0.7614
5972.00,0.7613
5971.00,0.7620
5970.00,0.7636
5969.00,0.7661
5968.00,0.7695
5967.00,0.7736
5966.00,0.7784
5965.00,0.7839
5964.00,0.7900
5963.00,0.7968
5962.00,0.8042
5961.00,0.8124
5960.00,0.8211
5959.00,0.8304
5958.00,0.8402
5957.00,0.8505
5956.00,0.8611
5955.00,0.8721
5954.00,0.8834
5953.00,0.8951
5952.00,0.9072
5951.00,0.9195
5950.00,0.9321
5949.00,0.9448
5948.00,0.9574
5947.00,0.9700
5946.00,0.9826
5945.00,0.9954
5944.00,1.0084
5943.00,1.0214
5942.00,1.0344
5941.00,1.0472
5940.00,1.0597
5939.00,1.0721
5938.00,1.0843
5937.00,1.0965
5936.00,1.1087
5935.00,1.1206
5934.00,1.1322
5933.00,1.1436
5932.00,1.1547
5931.00,1.1657
5930.00,1.1764
5929.00,1.1867
5928.00,1.1966
5927.00,1.2059
5926.00,1.2148
5925.00,1.2233
5924.00,1.2315
5923.00,1.2394
5922.00,1.2468
5921.00,1.2537
5920.00,1.2602
5919.00,1.2662
5918.00,1.2718
5917.00,1.2773
5916.00,1.2826
5915.00,1.2876
5914.00,1.2921
5913.00,1.2963
5912.00,1.3000
5911.00,1.3032
5910.00,1.3058
5909.00,1.3078
5908.00,1.3090
5907.00,1.3096
5906.00,1.3098
5905.00,1.3100
5904.00,1.3099
5903.00,1.3096
5902.00,1.3087
5901.00,1.3073
5900.00,1.3053
5899.00,1.3029
5898.00,1.3001
5897.00,1.2970
5896.00,1.2934
5895.00,1.2891
5894.00,1.2844
5893.00,1.2791
5892.00,1.2734
5891.00,1.2674
5890.00,1.2612
5889.00,1.2547
5888.00,1.2478
5887.00,1.2402
5886.00,1.2322
5885.00,1.2237
5884.00,1.2149
5883.00,1.2057
5882.00,1.1962
5881.00,1.1864
5880.00,1.1762
5879.00,1.1658
5878.00,1.1550
5877.00,1.1439
5876.00,1.1326
5875.00,1.1209
5874.00,1.1088
5873.00,1.0965
5872.00,1.0840
5871.00,1.0714
5870.00,1.0587
5869.00,1.0459
5868.00,1.0330
5867.00,1.0201
5866.00,1.0071
5865.00,0.9941
5864.00,0.9809
5863.00,0.9678
5862.00,0.9548
5861.00,0.9419
5860.00,0.9292
5859.00,0.9167
5858.00,0.9045
5857.00,0.8928
5856.00,0.8814
5855.00,0.8705
5854.00,0.8600
5853.00,0.8501
5852.00,0.8406
5851.00,0.8316
5850.00,0.8232
5849.00,0.8155
5848.00,0.8086
5847.00,0.8023
5846.00,0.7967
5845.00,0.7919
5844.00,0.7879
5843.00,0.7846
5842.00,0.7820
5841.00,0.7804
5840.00,0.7796
5839.00,0.7797
5838.00,0.7808
5837.00,0.7829
5836.00,0.7857
5835.00,0.7894
5834.00,0.7938
5833.00,0.7989
5832.00,0.8046
5831.00,0.8109
5830.00,0.8178
5829.00,0.8255
5828.00,0.8338
5827.00,0.8427
5826.00,0.8522
5825.00,0.8621
5824.00,0.8725
5823.00,0.8833
5822.00,0.8943
5821.00,0.9056
5820.00,0.9174
5819.00,0.9295
5818.00,0.9418
5817.00,0.9542
5816.00,0.9667
5815.00,0.9792
5814.00,0.9918
5813.00,1.0045
5812.00,1.0172
5811.00,1.0298
5810.00,1.0423
5809.00,1.0547
5808.00,1.0670
5807.00,1.0793
5806.00,1.0917
5805.00,1.1041
5804.00,1.1166
5803.00,1.1289
5802.00,1.1409
5801.00,1.1524
5800.00,1.1634
5799.00,1.1738
5798.00,1.1840
5797.00,1.1941
5796.00,1.2040
5795.00,1.2137
5794.00,1.2232
5793.00,1.2324
5792.00,1.2411
5791.00,1.2494
5790.00,1.2573
5789.00,1.2650
5788.00,1.2724
5787.00,1.2791
5786.00,1.2851
5785.00,1.2903
5784.00,1.2948
5783.00,1.2989
5782.00,1.3027
5781.00,1.3066
5780.00,1.3104
5779.00,1.3140
5778.00,1.3171
5777.00,1.3197
5776.00,1.3219
5775.00,1.3237
5774.00,1.3250
5773.00,1.3260
5772.00,1.3267
5771.00,1.3268
5770.00,1.3262
5769.00,1.3248
5768.00,1.3228
5767.00,1.3203
5766.00,1.3174
5765.00,1.3144
5764.00,1.3114
5763.00,1.3082
5762.00,1.3045
5761.00,1.3000
5760.00,1.2950
5759.00,1.2896
5758.00,1.2839
5757.00,1.2776
5756.00,1.2710
5755.00,1.2639
5754.00,1.2563
5753.00,1.2482
5752.00,1.2396
5751.00,1.2305
5750.00,1.2208
5749.00,1.2108
5748.00,1.2006
5747.00,1.1902
5746.00,1.1795
5745.00,1.1685
5744.00,1.1571
5743.00,1.1454
5742.00,1.1333
5741.00,1.1208
5740.00,1.1081
5739.00,1.0954
5738.00,1.0826
5737.00,1.0696
5736.00,1.0563
5735.00,1.0428
5734.00,1.0294
5733.00,1.0160
5732.00,1.0024
5731.00,0.9888
5730.00,0.9751
5729.00,0.9615
5728.00,0.9479
5727.00,0.9346
5726.00,0.9215
5725.00,0.9089
5724.00,0.8966
5723.00,0.8846
5722.00,0.8730
5721.00,0.8619
5720.00,0.8513
5719.00,0.8412
5718.00,0.8318
5717.00,0.8230
5716.00,0.8148
5715.00,0.8073
5714.00,0.8004
5713.00,0.7945
5712.00,0.7893
5711.00,0.7848
5710.00,0.7812
5709.00,0.7786
5708.00,0.7767
5707.00,0.7757
5706.00,0.7755
5705.00,0.7762
5704.00,0.7779
5703.00,0.7804
5702.00,0.7837
5701.00,0.7880
5700.00,0.7931
5699.00,0.7991
5698.00,0.8058
5697.00,0.8132
5696.00,0.8212
5695.00,0.8299
5694.00,0.8392
5693.00,0.8491
5692.00,0.8596
5691.00,0.8705
5690.00,0.8818
5689.00,0.8934
5688.00,0.9054
5687.00,0.9175
5686.00,0.9299
5685.00,0.9424
5684.00,0.9552
5683.00,0.9681
5682.00,0.9814
5681.00,0.9948
5680.00,1.0085
5679.00,1.0222
5678.00,1.0359
5677.00,1.0496
5676.00,1.0629
5675.00,1.0760
5674.00,1.0888
5673.00,1.1015
5672.00,1.1141
5671.00,1.1266
5670.00,1.1390
5669.00,1.1512
5668.00,1.1632
5667.00,1.1748
5666.00,1.1861
5665.00,1.1970
5664.00,1.2076
5663.00,1.2178
5662.00,1.2275
5661.00,1.2370
5660.00,1.2462
5659.00,1.2552
5658.00,1.2638
5657.00,1.2721
5656.00,1.2798
5655.00,1.2870
5654.00,1.2936
5653.00,1.2996
5652.00,1.3051
5651.00,1.3103
5650.00,1.3152
5649.00,1.3196
5648.00,1.3235
5647.00,1.3270
5646.00,1.3301
5645.00,1.3326
5644.00,1.3347
5643.00,1.3363
5642.00,1.3376
5641.00,1.3387
5640.00,1.3396
5639.00,1.3403
5638.00,1.3404
5637.00,1.3398
5636.00,1.3385
5635.00,1.3365
5634.00,1.3341
5633.00,1.3312
5632.00,1.3281
5631.00,1.3248
5630.00,1.3211
5629.00,1.3170
5628.00,1.3122
5627.00,1.3068
5626.00,1.3010
5625.00,1.2948
5624.00,1.2880
5623.00,1.2807
5622.00,1.2728
5621.00,1.2643
5620.00,1.2557
5619.00,1.2470
5618.00,1.2381
5617.00,1.2289
5616.00,1.2191
5615.00,1.2087
5614.00,1.1976
5613.00,1.1859
5612.00,1.1737
5611.00,1.1611
5610.00,1.1485
5609.00,1.1358
5608.00,1.1229
5607.00,1.1095
5606.00,1.0959
5605.00,1.0820
5604.00,1.0679
5603.00,1.0536
5602.00,1.0393
5601.00,1.0250
5600.00,1.0107
5599.00,0.9962
5598.00,0.9817
5597.00,0.9671
5596.00,0.9525
5595.00,0.9381
5594.00,0.9241
5593.00,0.9104
5592.00,0.8971
5591.00,0.8842
5590.00,0.8717
5589.00,0.8596
5588.00,0.8480
5587.00,0.8368
5586.00,0.8263
5585.00,0.8165
5584.00,0.8074
5583.00,0.7991
5582.00,0.7916
5581.00,0.7849
5580.00,0.7790
5579.00,0.7739
5578.00,0.7697
5577.00,0.7664
5576.00,0.7640
5575.00,0.7627
5574.00,0.7623
5573.00,0.7631
5572.00,0.7649
5571.00,0.7676
5570.00,0.7712
5569.00,0.7755
5568.00,0.7807
5567.00,0.7867
5566.00,0.7935
5565.00,0.8011
5564.00,0.8094
5563.00,0.8184
5562.00,0.8281
5561.00,0.8384
5560.00,0.8493
5559.00,0.8606
5558.00,0.8723
5557.00,0.8845
5556.00,0.8970
5555.00,0.9097
5554.00,0.9226
5553.00,0.9356
5552.00,0.9489
5551.00,0.9622
5550.00,0.9757
5549.00,0.9894
5548.00,1.0032
5547.00,1.0171
5546.00,1.0308
5545.00,1.0443
5544.00,1.0575
5543.00,1.0704
5542.00,1.0831
5541.00,1.0957
5540.00,1.1083
5539.00,1.1208
5538.00,1.1331
5537.00,1.1452
5536.00,1.1569
5535.00,1.1681
5534.00,1.1788
5533.00,1.1891
5532.00,1.1991
5531.00,1.2089
5530.00,1.2187
5529.00,1.2284
5528.00,1.2377
5527.00,1.2465
5526.00,1.2548
5525.00,1.2628
5524.00,1.2703
5523.00,1.2772
5522.00,1.2837
5521.00,1.2898
5520.00,1.2956
5519.00,1.3012
5518.00,1.3065
5517.00,1.3116
5516.00,1.3163
5515.00,1.3206
5514.00,1.3245
5513.00,1.3282
5512.00,1.3316
5511.00,1.3348
5510.00,1.3374
5509.00,1.3392
5508.00,1.3402
5507.00,1.3404
5506.00,1.3402
5505.00,1.3400
5504.00,1.3396
5503.00,1.3390
5502.00,1.3379
5501.00,1.3362
5500.00,1.3339
5499.00,1.3311
5498.00,1.3278
5497.00,1.3241
5496.00,1.3201
5495.00,1.3156
5494.00,1.3107
5493.00,1.3053
5492.00,1.2995
5491.00,1.2930
5490.00,1.2859
5489.00,1.2784
5488.00,1.2704
5487.00,1.2620
5486.00,1.2531
5485.00,1.2437
5484.00,1.2340
5483.00,1.2238
5482.00,1.2132
5481.00,1.2023
5480.00,1.1911
5479.00,1.1794
5478.00,1.1672
5477.00,1.1545
5476.00,1.1411
5475.00,1.1272
5474.00,1.1130
5473.00,1.0988
5472.00,1.0844
5471.00,1.0698
5470.00,1.0550
5469.00,1.0400
5468.00,1.0250
5467.00,1.0100
5466.00,0.9952
5465.00,0.9804
5464.00,0.9655
5463.00,0.9506
5462.00,0.9357
5461.00,0.9211
5460.00,0.9067
5459.00,0.8927
5458.00,0.8791
5457.00,0.8661
5456.00,0.8537
5455.00,0.8418
5454.00,0.8306
5453.00,0.8202
5452.00,0.8105
5451.00,0.8015
5450.00,0.7933
5449.00,0.7858
5448.00,0.7792
5447.00,0.7734
5446.00,0.7685
5445.00,0.7645
5444.00,0.7615
5443.00,0.7595
5442.00,0.7587
5441.00,0.7590
5440.00,0.7604
5439.00,0.7629
5438.00,0.7663
5437.00,0.7708
5436.00,0.7763
5435.00,0.7826
5434.00,0.7899
5433.00,0.7979
5432.00,0.8067
5431.00,0.8162
5430.00,0.8264
5429.00,0.8372
5428.00,0.8487
5427.00,0.8608
5426.00,0.8735
5425.00,0.8866
5424.00,0.9001
5423.00,0.9137
5422.00,0.9276
5421.00,0.9417
5420.00,0.9560
5419.00,0.9705
5418.00,0.9850
5417.00,0.9994
5416.00,1.0138
5415.00,1.0283
5414.00,1.0429
5413.00,1.0577
5412.00,1.0725
5411.00,1.0872
5410.00,1.1018
5409.00,1.1164
5408.00,1.1308
5407.00,1.1449
5406.00,1.1588
5405.00,1.1724
5404.00,1.1855
5403.00,1.1981
5402.00,1.2103
5401.00,1.2222
5400.00,1.2337
5399.00,1.2447
5398.00,1.2550
5397.00,1.2647
5396.00,1.2740
5395.00,1.2831
5394.00,1.2921
5393.00,1.3009
5392.00,1.3093
5391.00,1.3172
5390.00,1.3244
5389.00,1.3310
5388.00,1.3372
5387.00,1.3431
5386.00,1.3487
5385.00,1.3540
5384.00,1.3587
5383.00,1.3629
5382.00,1.3667
5381.00,1.3702
5380.00,1.3731
5379.00,1.3754
5378.00,1.3773
5377.00,1.3786
5376.00,1.3793
5375.00,1.3793
5374.00,1.3788
5373.00,1.3780
5372.00,1.3771
5371.00,1.3758
5370.00,1.3740
5369.00,1.3719
5368.00,1.3694
5367.00,1.3664
5366.00,1.3629
5365.00,1.3588
5364.00,1.3542
5363.00,1.3489
5362.00,1.3428
5361.00,1.3361
5360.00,1.3290
5359.00,1.3217
5358.00,1.3143
5357.00,1.3067
5356.00,1.2985
5355.00,1.2897
5354.00,1.2803
5353.00,1.2704
5352.00,1.2600
5351.00,1.2493
5350.00,1.2384
5349.00,1.2270
5348.00,1.2150
5347.00,1.2023
5346.00,1.1891
5345.00,1.1756
5344.00,1.1616
5343.00,1.1474
5342.00,1.1330
5341.00,1.1185
5340.00,1.1037
5339.00,1.0884
5338.00,1.0726
5337.00,1.0564
5336.00,1.0403
5335.00,1.0245
5334.00,1.0090
5333.00,0.9935
5332.00,0.9781
5331.00,0.9626
5330.00,0.9473
5329.00,0.9321
5328.00,0.9171
5327.00,0.9023
5326.00,0.8879
5325.00,0.8740
5324.00,0.8606
5323.00,0.8480
5322.00,0.8360
5321.00,0.8246
5320.00,0.8138
5319.00,0.8039
5318.00,0.7949
5317.00,0.7868
5316.00,0.7795
5315.00,0.7731
5314.00,0.7677
5313.00,0.7634
5312.00,0.7601
5311.00,0.7580
5310.00,0.7569
5309.00,0.7569
5308.00,0.7580
5307.00,0.7602
5306.00,0.7634
5305.00,0.7677
5304.00,0.7730
5303.00,0.7793
5302.00,0.7865
5301.00,0.7945
5300.00,0.8033
5299.00,0.8130
5298.00,0.8234
5297.00,0.8346
5296.00,0.8464
5295.00,0.8586
5294.00,0.8712
5293.00,0.8842
5292.00,0.8976
5291.00,0.9114
5290.00,0.9256
5289.00,0.9403
5288.00,0.9552
5287.00,0.9703
5286.00,0.9855
5285.00,1.0007
5284.00,1.0158
5283.00,1.0308
5282.00,1.0458
5281.00,1.0609
5280.00,1.0762
5279.00,1.0914
5278.00,1.1064
5277.00,1.1211
5276.00,1.1354
5275.00,1.1493
5274.00,1.1629
5273.00,1.1763
5272.00,1.1895
5271.00,1.2025
5270.00,1.2153
5269.00,1.2277
5268.00,1.2398
5267.00,1.2513
5266.00,1.2624
5265.00,1.2733
5264.00,1.2838
5263.00,1.2939
5262.00,1.3036
5261.00,1.3128
5260.00,1.3214
5259.00,1.3294
5258.00,1.3369
5257.00,1.3440
5256.00,1.3507
5255.00,1.3570
5254.00,1.3629
5253.00,1.3685
5252.00,1.3736
5251.00,1.3783
5250.00,1.3824
5249.00,1.3862
5248.00,1.3895
5247.00,1.3922
5246.00,1.3945
5245.00,1.3963
5244.00,1.3978
5243.00,1.3988
5242.00,1.3993
5241.00,1.3994
5240.00,1.3991
5239.00,1.3984
5238.00,1.3971
5237.00,1.3952
5236.00,1.3927
5235.00,1.3895
5234.00,1.3858
5233.00,1.3819
5232.00,1.3777
5231.00,1.3732
5230.00,1.3683
5229.00,1.3629
5228.00,1.3572
5227.00,1.3508
5226.00,1.3437
5225.00,1.3359
5224.00,1.3276
5223.00,1.3188
5222.00,1.3096
5221.00,1.3002
5220.00,1.2904
5219.00,1.2802
5218.00,1.2693
5217.00,1.2578
5216.00,1.2459
5215.00,1.2335
5214.00,1.2209
5213.00,1.2078
5212.00,1.1943
5211.00,1.1804
5210.00,1.1661
5209.00,1.1513
5208.00,1.1360
5207.00,1.1202
5206.00,1.1040
5205.00,1.0876
5204.00,1.0711
5203.00,1.0546
5202.00,1.0383
5201.00,1.0220
5200.00,1.0059
5199.00,0.9899
5198.00,0.9739
5197.00,0.9581
5196.00,0.9423
5195.00,0.9267
5194.00,0.9115
5193.00,0.8969
5192.00,0.8829
5191.00,0.8693
5190.00,0.8563
5189.00,0.8439
5188.00,0.8324
5187.00,0.8216
5186.00,0.8116
5185.00,0.8025
5184.00,0.7942
5183.00,0.7868
5182.00,0.7804
5181.00,0.7751
5180.00,0.7710
5179.00,0.7681
5178.00,0.7664
5177.00,0.7659
5176.00,0.7665
5175.00,0.7683
5174.00,0.7711
5173.00,0.7750
5172.00,0.7800
5171.00,0.7860
5170.00,0.7932
5169.00,0.8013
5168.00,0.8103
5167.00,0.8202
5166.00,0.8308
5165.00,0.8421
5164.00,0.8542
5163.00,0.8670
5162.00,0.8804
5161.00,0.8943
5160.00,0.9085
5159.00,0.9229
5158.00,0.9377
5157.00,0.9528
5156.00,0.9683
5155.00,0.9841
5154.00,1.0002
5153.00,1.0163
5152.00,1.0324
5151.00,1.0485
5150.00,1.0645
5149.00,1.0804
5148.00,1.0962
5147.00,1.1118
5146.00,1.1273
5145.00,1.1427
5144.00,1.1578
5143.00,1.1727
5142.00,1.1874
5141.00,1.2017
5140.00,1.2155
5139.00,1.2290
5138.00,1.2423
5137.00,1.2553
5136.00,1.2679
5135.00,1.2801
5134.00,1.2918
5133.00,1.3029
5132.00,1.3134
5131.00,1.3235
5130.00,1.3333
5129.00,1.3427
5128.00,1.3517
5127.00,1.3602
5126.00,1.3682
5125.00,1.3755
5124.00,1.3824
5123.00,1.3887
5122.00,1.3948
5121.00,1.4003
5120.00,1.4053
5119.00,1.4097
5118.00,1.4136
5117.00,1.4170
5116.00,1.4199
5115.00,1.4222
5114.00,1.4242
5113.00,1.4259
5112.00,1.4271
5111.00,1.4279
5110.00,1.4283
5109.00,1.4284
5108.00,1.4280
5107.00,1.4270
5106.00,1.4255
5105.00,1.4238
5104.00,1.4216
5103.00,1.4188
5102.00,1.4154
5101.00,1.4113
5100.00,1.4066
5099.00,1.4013
5098.00,1.3956
5097.00,1.3896
5096.00,1.3833
5095.00,1.3765
5094.00,1.3693
5093.00,1.3618
5092.00,1.3539
5091.00,1.3456
5090.00,1.3366
5089.00,1.3271
5088.00,1.3168
5087.00,1.3060
5086.00,1.2947
5085.00,1.2831
5084.00,1.2710
5083.00,1.2585
5082.00,1.2454
5081.00,1.2319
5080.00,1.2179
5079.00,1.2033
5078.00,1.1882
5077.00,1.1726
5076.00,1.1567
5075.00,1.1406
5074.00,1.1243
5073.00,1.1078
5072.00,1.0911
5071.00,1.0740
5070.00,1.0567
5069.00,1.0393
5068.00,1.0218
5067.00,1.0045
5066.00,0.9872
5065.00,0.9701
5064.00,0.9532
5063.00,0.9366
5062.00,0.9202
5061.00,0.9043
5060.00,0.8889
5059.00,0.8739
5058.00,0.8596
5057.00,0.8460
5056.00,0.8331
5055.00,0.8211
5054.00,0.8099
5053.00,0.7995
5052.00,0.7901
5051.00,0.7817
5050.00,0.7744
5049.00,0.7683
5048.00,0.7634
5047.00,0.7597
5046.00,0.7573
5045.00,0.7561
5044.00,0.7561
5043.00,0.7573
5042.00,0.7598
5041.00,0.7635
5040.00,0.7685
5039.00,0.7745
5038.00,0.7816
5037.00,0.7898
5036.00,0.7989
5035.00,0.8091
5034.00,0.8201
5033.00,0.8320
5032.00,0.8447
5031.00,0.8580
5030.00,0.8718
5029.00,0.8862
5028.00,0.9010
5027.00,0.9163
5026.00,0.9319
5025.00,0.9479
5024.00,0.9642
5023.00,0.9807
5022.00,0.9973
5021.00,1.0138
5020.00,1.0304
5019.00,1.0471
5018.00,1.0639
5017.00,1.0807
5016.00,1.0975
5015.00,1.1142
5014.00,1.1306
5013.00,1.1469
5012.00,1.1629
5011.00,1.1787
5010.00,1.1940
5009.00,1.2091
5008.00,1.2238
5007.00,1.2382
5006.00,1.2521
5005.00,1.2656
5004.00,1.2787
5003.00,1.2914
5002.00,1.3037
5001.00,1.3156
5000.00,1.3273
4999.00,1.3384
4998.00,1.3488
4997.00,1.3587
4996.00,1.3679
4995.00,1.3766
4994.00,1.3847
4993.00,1.3925
4992.00,1.4000
4991.00,1.4072
4990.00,1.4138
4989.00,1.4199
4988.00,1.4254
4987.00,1.4303
4986.00,1.4347
4985.00,1.4386
4984.00,1.4421
4983.00,1.4453
4982.00,1.4480
4981.00,1.4501
4980.00,1.4517
4979.00,1.4528
4978.00,1.4532
4977.00,1.4533
4976.00,1.4530
4975.00,1.4522
4974.00,1.4511
4973.00,1.4495
4972.00,1.4474
4971.00,1.4448
4970.00,1.4416
4969.00,1.4379
4968.00,1.4337
4967.00,1.4290
4966.00,1.4240
4965.00,1.4185
4964.00,1.4127
4963.00,1.4064
4962.00,1.3993
4961.00,1.3916
4960.00,1.3832
4959.00,1.3742
4958.00,1.3648
4957.00,1.3551
4956.00,1.3452
4955.00,1.3348
4954.00,1.3238
4953.00,1.3120
4952.00,1.2994
4951.00,1.2861
4950.00,1.2726
4949.00,1.2587
4948.00,1.2446
4947.00,1.2300
4946.00,1.2150
4945.00,1.1994
4944.00,1.1833
4943.00,1.1668
4942.00,1.1499
4941.00,1.1325
4940.00,1.1148
4939.00,1.0967
4938.00,1.0786
4937.00,1.0605
4936.00,1.0424
4935.00,1.0242
4934.00,1.0059
4933.00,0.9878
4932.00,0.9698
4931.00,0.9521
4930.00,0.9347
4929.00,0.9178
4928.00,0.9014
4927.00,0.8856
4926.00,0.8704
4925.00,0.8560
4924.00,0.8422
4923.00,0.8293
4922.00,0.8173
4921.00,0.8063
4920.00,0.7963
4919.00,0.7875
4918.00,0.7798
4917.00,0.7733
4916.00,0.7680
4915.00,0.7640
4914.00,0.7613
4913.00,0.7599
4912.00,0.7599
4911.00,0.7612
4910.00,0.7639
4909.00,0.7680
4908.00,0.7734
4907.00,0.7800
4906.00,0.7878
4905.00,0.7967
4904.00,0.8066
4903.00,0.8175
4902.00,0.8294
4901.00,0.8421
4900.00,0.8556
4899.00,0.8698
4898.00,0.8846
4897.00,0.8999
4896.00,0.9158
4895.00,0.9320
4894.00,0.9487
4893.00,0.9658
4892.00,0.9831
4891.00,1.0006
4890.00,1.0182
4889.00,1.0358
4888.00,1.0535
4887.00,1.0713
4886.00,1.0890
4885.00,1.1066
4884.00,1.1240
4883.00,1.1412
4882.00,1.1581
4881.00,1.1748
4880.00,1.1913
4879.00,1.2077
4878.00,1.2238
4877.00,1.2396
4876.00,1.2549
4875.00,1.2697
4874.00,1.2840
4873.00,1.2978
4872.00,1.3113
4871.00,1.3244
4870.00,1.3371
4869.00,1.3494
4868.00,1.3611
4867.00,1.3721
4866.00,1.3823
4865.00,1.3919
4864.00,1.4009
4863.00,1.4097
4862.00,1.4181
4861.00,1.4261
4860.00,1.4336
4859.00,1.4404
4858.00,1.4467
4857.00,1.4524
4856.00,1.4577
4855.00,1.4626
4854.00,1.4669
4853.00,1.4707
4852.00,1.4739
4851.00,1.4766
4850.00,1.4791
4849.00,1.4814
4848.00,1.4834
4847.00,1.4847
4846.00,1.4853
4845.00,1.4853
4844.00,1.4846
4843.00,1.4837
4842.00,1.4824
4841.00,1.4807
4840.00,1.4786
4839.00,1.4758
4838.00,1.4724
4837.00,1.4684
4836.00,1.4638
4835.00,1.4588
4834.00,1.4534
4833.00,1.4479
4832.00,1.4419
4831.00,1.4355
4830.00,1.4282
4829.00,1.4202
4828.00,1.4116
4827.00,1.4026
4826.00,1.3933
4825.00,1.3834
4824.00,1.3729
4823.00,1.3617
4822.00,1.3501
4821.00,1.3381
4820.00,1.3257
4819.00,1.3128
4818.00,1.2991
4817.00,1.2847
4816.00,1.2697
4815.00,1.2541
4814.00,1.2381
4813.00,1.2216
4812.00,1.2046
4811.00,1.1871
4810.00,1.1694
4809.00,1.1514
4808.00,1.1331
4807.00,1.1144
4806.00,1.0956
4805.00,1.0766
4804.00,1.0574
4803.00,1.0382
4802.00,1.0189
4801.00,0.9996
4800.00,0.9805
4799.00,0.9617
4798.00,0.9433
4797.00,0.9252
4796.00,0.9077
4795.00,0.8906
4794.00,0.8743
4793.00,0.8587
4792.00,0.8439
4791.00,0.8300
4790.00,0.8171
4789.00,0.8052
4788.00,0.7945
4787.00,0.7849
4786.00,0.7766
4785.00,0.7696
4784.00,0.7639
4783.00,0.7596
4782.00,0.7567
4781.00,0.7554
4780.00,0.7555
4779.00,0.7571
4778.00,0.7600
4777.00,0.7644
4776.00,0.7701
4775.00,0.7772
4774.00,0.7855
4773.00,0.7951
4772.00,0.8059
4771.00,0.8177
4770.00,0.8304
4769.00,0.8441
4768.00,0.8585
4767.00,0.8737
4766.00,0.8896
4765.00,0.9060
4764.00,0.9230
4763.00,0.9404
4762.00,0.9581
4761.00,0.9761
4760.00,0.9943
4759.00,1.0127
4758.00,1.0314
4757.00,1.0502
4756.00,1.0691
4755.00,1.0879
4754.00,1.1066
4753.00,1.1251
4752.00,1.1433
4751.00,1.1614
4750.00,1.1793
4749.00,1.1969
4748.00,1.2142
4747.00,1.2311
4746.00,1.2477
4745.00,1.2640
4744.00,1.2798
4743.00,1.2951
4742.00,1.3099
4741.00,1.3243
4740.00,1.3383
4739.00,1.3520
4738.00,1.3652
4737.00,1.3779
4736.00,1.3900
4735.00,1.4014
4734.00,1.4122
4733.00,1.4224
4732.00,1.4319
4731.00,1.4409
4730.00,1.4493
4729.00,1.4574
4728.00,1.4652
4727.00,1.4726
4726.00,1.4795
4725.00,1.4859
4724.00,1.4917
4723.00,1.4969
4722.00,1.5017
4721.00,1.5058
4720.00,1.5095
4719.00,1.5125
4718.00,1.5151
4717.00,1.5173
4716.00,1.5190
4715.00,1.5202
4714.00,1.5207
4713.00,1.5207
4712.00,1.5200
4711.00,1.5189
4710.00,1.5171
4709.00,1.5150
4708.00,1.5124
4707.00,1.5096
4706.00,1.5064
4705.00,1.5028
4704.00,1.4989
4703.00,1.4945
4702.00,1.4895
4701.00,1.4839
4700.00,1.4776
4699.00,1.4707
4698.00,1.4633
4697.00,1.4555
4696.00,1.4473
4695.00,1.4385
4694.00,1.4292
4693.00,1.4193
4692.00,1.4090
4691.00,1.3981
4690.00,1.3868
4689.00,1.3749
4688.00,1.3624
4687.00,1.3495
4686.00,1.3360
4685.00,1.3221
4684.00,1.3075
4683.00,1.2922
4682.00,1.2764
4681.00,1.2601
4680.00,1.2435
4679.00,1.2266
4678.00,1.2094
4677.00,1.1920
4676.00,1.1741
4675.00,1.1558
4674.00,1.1372
4673.00,1.1181
4672.00,1.0989
4671.00,1.0796
4670.00,1.0603
4669.00,1.0410
4668.00,1.0217
4667.00,1.0025
4666.00,0.9836
4665.00,0.9649
4664.00,0.9466
4663.00,0.9288
4662.00,0.9115
4661.00,0.8949
4660.00,0.8789
4659.00,0.8637
4658.00,0.8495
4657.00,0.8363
4656.00,0.8243
4655.00,0.8135
4654.00,0.8040
4653.00,0.7958
4652.00,0.7889
4651.00,0.7835
4650.00,0.7795
4649.00,0.7771
4648.00,0.7763
4647.00,0.7770
4646.00,0.7793
4645.00,0.7831
4644.00,0.7884
4643.00,0.7951
4642.00,0.8033
4641.00,0.8129
4640.00,0.8237
4639.00,0.8358
4638.00,0.8489
4637.00,0.8630
4636.00,0.8778
4635.00,0.8935
4634.00,0.9099
4633.00,0.9270
4632.00,0.9448
4631.00,0.9629
4630.00,0.9814
4629.00,1.0001
4628.00,1.0191
4627.00,1.0383
4626.00,1.0576
4625.00,1.0771
4624.00,1.0965
4623.00,1.1158
4622.00,1.1350
4621.00,1.1540
4620.00,1.1730
4619.00,1.1918
4618.00,1.2104
4617.00,1.2286
4616.00,1.2465
4615.00,1.2639
4614.00,1.2809
4613.00,1.2975
4612.00,1.3137
4611.00,1.3294
4610.00,1.3447
4609.00,1.3595
4608.00,1.3740
4607.00,1.3878
4606.00,1.4010
4605.00,1.4135
4604.00,1.4252
4603.00,1.4364
4602.00,1.4471
4601.00,1.4574
4600.00,1.4672
4599.00,1.4764
4598.00,1.4851
4597.00,1.4933
4596.00,1.5008
4595.00,1.5079
4594.00,1.5144
4593.00,1.5206
4592.00,1.5263
4591.00,1.5314
4590.00,1.5359
4589.00,1.5398
4588.00,1.5432
4587.00,1.5461
4586.00,1.5485
4585.00,1.5505
4584.00,1.5521
4583.00,1.5534
4582.00,1.5543
4581.00,1.5547
4580.00,1.5546
4579.00,1.5538
4578.00,1.5522
4577.00,1.5499
4576.00,1.5473
4575.00,1.5442
4574.00,1.5409
4573.00,1.5371
4572.00,1.5328
4571.00,1.5279
4570.00,1.5224
4569.00,1.5165
4568.00,1.5102
4567.00,1.5036
4566.00,1.4964
4565.00,1.4886
4564.00,1.4802
4563.00,1.4712
4562.00,1.4616
4561.00,1.4512
4560.00,1.4401
4559.00,1.4285
4558.00,1.4165
4557.00,1.4039
4556.00,1.3909
4555.00,1.3773
4554.00,1.3629
4553.00,1.3478
4552.00,1.3320
4551.00,1.3156
4550.00,1.2987
4549.00,1.2815
4548.00,1.2639
4547.00,1.2458
4546.00,1.2270
4545.00,1.2076
4544.00,1.1876
4543.00,1.1673
4542.00,1.1467
4541.00,1.1260
4540.00,1.1051
4539.00,1.0840
4538.00,1.0628
4537.00,1.0416
4536.00,1.0204
4535.00,0.9995
4534.00,0.9789
4533.00,0.9588
4532.00,0.9392
4531.00,0.9202
4530.00,0.9018
4529.00,0.8842
4528.00,0.8676
4527.00,0.8520
4526.00,0.8374
4525.00,0.8241
4524.00,0.8119
4523.00,0.8010
4522.00,0.7916
4521.00,0.7836
4520.00,0.7772
4519.00,0.7725
4518.00,0.7694
4517.00,0.7680
4516.00,0.7682
4515.00,0.7701
4514.00,0.7738
4513.00,0.7790
4512.00,0.7859
4511.00,0.7942
4510.00,0.8040
4509.00,0.8152
4508.00,0.8277
4507.00,0.8414
4506.00,0.8562
4505.00,0.8720
4504.00,0.8886
4503.00,0.9060
4502.00,0.9239
4501.00,0.9425
4500.00,0.9616
4499.00,0.9811
4498.00,1.0010
4497.00,1.0211
4496.00,1.0415
4495.00,1.0619
4494.00,1.0825
4493.00,1.1030
4492.00,1.1235
4491.00,1.1441
4490.00,1.1645
4489.00,1.1848
4488.00,1.2049
4487.00,1.2247
4486.00,1.2440
4485.00,1.2629
4484.00,1.2813
4483.00,1.2993
4482.00,1.3168
4481.00,1.3341
4480.00,1.3510
4479.00,1.3673
4478.00,1.3831
4477.00,1.3982
4476.00,1.4127
4475.00,1.4266
4474.00,1.4399
4473.00,1.4528
4472.00,1.4651
4471.00,1.4768
4470.00,1.4878
4469.00,1.4981
4468.00,1.5079
4467.00,1.5171
4466.00,1.5258
4465.00,1.5339
4464.00,1.5414
4463.00,1.5485
4462.00,1.5552
4461.00,1.5615
4460.00,1.5672
4459.00,1.5722
4458.00,1.5766
4457.00,1.5805
4456.00,1.5839
4455.00,1.5867
4454.00,1.5890
4453.00,1.5908
4452.00,1.5922
4451.00,1.5934
4450.00,1.5943
4449.00,1.5947
4448.00,1.5944
4447.00,1.5934
4446.00,1.5919
4445.00,1.5898
4444.00,1.5872
4443.00,1.5840
4442.00,1.5803
4441.00,1.5762
4440.00,1.5715
4439.00,1.5664
4438.00,1.5609
4437.00,1.5549
4436.00,1.5482
4435.00,1.5409
4434.00,1.5330
4433.00,1.5247
4432.00,1.5162
4431.00,1.5073
4430.00,1.4979
4429.00,1.4876
4428.00,1.4764
4427.00,1.4645
4426.00,1.4521
4425.00,1.4393
4424.00,1.4259
4423.00,1.4120
4422.00,1.3973
4421.00,1.3820
4420.00,1.3660
4419.00,1.3493
4418.00,1.3320
4417.00,1.3142
4416.00,1.2959
4415.00,1.2771
4414.00,1.2579
4413.00,1.2383
4412.00,1.2183
4411.00,1.1979
4410.00,1.1773
4409.00,1.1567
4408.00,1.1360
4407.00,1.1154
4406.00,1.0947
4405.00,1.0742
4404.00,1.0539
4403.00,1.0339
4402.00,1.0145
4401.00,0.9957
4400.00,0.9776
4399.00,0.9602
4398.00,0.9437
4397.00,0.9281
4396.00,0.9137
4395.00,0.9005
4394.00,0.8886
4393.00,0.8781
4392.00,0.8691
4391.00,0.8615
4390.00,0.8553
4389.00,0.8508
4388.00,0.8477
4387.00,0.8462
4386.00,0.8463
4385.00,0.8480
4384.00,0.8512
4383.00,0.8560
4382.00,0.8622
4381.00,0.8698
4380.00,0.8787
4379.00,0.8889
4378.00,0.9002
4377.00,0.9126
4376.00,0.9259
4375.00,0.9400
4374.00,0.9549
4373.00,0.9704
4372.00,0.9866
4371.00,1.0033
4370.00,1.0204
4369.00,1.0378
4368.00,1.0555
4367.00,1.0734
4366.00,1.0914
4365.00,1.1095
4364.00,1.1277
4363.00,1.1460
4362.00,1.1644
4361.00,1.1829
4360.00,1.2014
4359.00,1.2197
4358.00,1.2379
4357.00,1.2561
4356.00,1.2741
4355.00,1.2921
4354.00,1.3097
4353.00,1.3270
4352.00,1.3439
4351.00,1.3603
4350.00,1.3764
4349.00,1.3923
4348.00,1.4078
4347.00,1.4230
4346.00,1.4377
4345.00,1.4519
4344.00,1.4656
4343.00,1.4787
4342.00,1.4913
4341.00,1.5034
4340.00,1.5149
4339.00,1.5259
4338.00,1.5365
4337.00,1.5466
4336.00,1.5562
4335.00,1.5654
4334.00,1.5741
4333.00,1.5823
4332.00,1.5899
4331.00,1.5968
4330.00,1.6031
4329.00,1.6087
4328.00,1.6138
4327.00,1.6184
4326.00,1.6227
4325.00,1.6267
4324.00,1.6305
4323.00,1.6338
4322.00,1.6365
4321.00,1.6387
4320.00,1.6402
4319.00,1.6412
4318.00,1.6419
4317.00,1.6422
4316.00,1.6419
4315.00,1.6410
4314.00,1.6395
4313.00,1.6375
4312.00,1.6351
4311.00,1.6322
4310.00,1.6288
4309.00,1.6249
4308.00,1.6206
4307.00,1.6159
4306.00,1.6107
4305.00,1.6049
4304.00,1.5984
4303.00,1.5912
4302.00,1.5837
4301.00,1.5757
4300.00,1.5674
4299.00,1.5585
4298.00,1.5492
4297.00,1.5393
4296.00,1.5287
4295.00,1.5175
4294.00,1.5057
4293.00,1.4932
4292.00,1.4804
4291.00,1.4670
4290.00,1.4531
4289.00,1.4387
4288.00,1.4237
4287.00,1.4081
4286.00,1.3920
4285.00,1.3755
4284.00,1.3585
4283.00,1.3409
4282.00,1.3227
4281.00,1.3039
4280.00,1.2846
4279.00,1.2648
4278.00,1.2448
4277.00,1.2247
4276.00,1.2044
4275.00,1.1839
4274.00,1.1631
4273.00,1.1422
4272.00,1.1212
4271.00,1.1004
4270.00,1.0797
4269.00,1.0593
4268.00,1.0392
4267.00,1.0194
4266.00,1.0002
4265.00,0.9817
4264.00,0.9639
4263.00,0.9468
4262.00,0.9306
4261.00,0.9154
4260.00,0.9013
4259.00,0.8885
4258.00,0.8771
4257.00,0.8671
4256.00,0.8587
4255.00,0.8520
4254.00,0.8469
4253.00,0.8436
4252.00,0.8421
4251.00,0.8424
4250.00,0.8447
4249.00,0.8488
4248.00,0.8548
4247.00,0.8625
4246.00,0.8719
4245.00,0.8829
4244.00,0.8953
4243.00,0.9092
4242.00,0.9243
4241.00,0.9406
4240.00,0.9579
4239.00,0.9762
4238.00,0.9952
4237.00,1.0148
4236.00,1.0350
4235.00,1.0557
4234.00,1.0769
4233.00,1.0985
4232.00,1.1202
4231.00,1.1420
4230.00,1.1637
4229.00,1.1855
4228.00,1.2073
4227.00,1.2290
4226.00,1.2505
4225.00,1.2718
4224.00,1.2928
4223.00,1.3134
4222.00,1.3335
4221.00,1.3531
4220.00,1.3723
4219.00,1.3909
4218.00,1.4090
4217.00,1.4267
4216.00,1.4437
4215.00,1.4603
4214.00,1.4761
4213.00,1.4913
4212.00,1.5057
4211.00,1.5193
4210.00,1.5323
4209.00,1.5447
4208.00,1.5567
4207.00,1.5684
4206.00,1.5796
4205.00,1.5903
4204.00,1.6001
4203.00,1.6093
4202.00,1.6179
4201.00,1.6261
4200.00,1.6339
4199.00,1.6413
4198.00,1.6481
4197.00,1.6542
4196.00,1.6596
4195.00,1.6646
4194.00,1.6693
4193.00,1.6737
4192.00,1.6779
4191.00,1.6817
4190.00,1.6848
4189.00,1.6871
4188.00,1.6888
4187.00,1.6900
4186.00,1.6907
4185.00,1.6908
4184.00,1.6902
4183.00,1.6891
4182.00,1.6876
4181.00,1.6857
4180.00,1.6837
4179.00,1.6813
4178.00,1.6785
4177.00,1.6752
4176.00,1.6712
4175.00,1.6667
4174.00,1.6616
4173.00,1.6560
4172.00,1.6498
4171.00,1.6432
4170.00,1.6361
4169.00,1.6286
4168.00,1.6206
4167.00,1.6118
4166.00,1.6021
4165.00,1.5917
4164.00,1.5808
4163.00,1.5697
4162.00,1.5583
4161.00,1.5463
4160.00,1.5335
4159.00,1.5198
4158.00,1.5052
4157.00,1.4901
4156.00,1.4746
4155.00,1.4585
4154.00,1.4417
4153.00,1.4242
4152.00,1.4061
4151.00,1.3873
4150.00,1.3679
4149.00,1.3479
4148.00,1.3271
4147.00,1.3057
4146.00,1.2838
4145.00,1.2617
4144.00,1.2392
4143.00,1.2164
4142.00,1.1932
4141.00,1.1699
4140.00,1.1464
4139.00,1.1231
4138.00,1.1000
4137.00,1.0773
4136.00,1.0550
4135.00,1.0333
4134.00,1.0123
4133.00,0.9922
4132.00,0.9730
4131.00,0.9548
4130.00,0.9377
4129.00,0.9220
4128.00,0.9077
4127.00,0.8950
4126.00,0.8838
4125.00,0.8743
4124.00,0.8665
4123.00,0.8604
4122.00,0.8562
4121.00,0.8540
4120.00,0.8537
4119.00,0.8554
4118.00,0.8590
4117.00,0.8646
4116.00,0.8720
4115.00,0.8812
4114.00,0.8922
4113.00,0.9047
4112.00,0.9187
4111.00,0.9340
4110.00,0.9504
4109.00,0.9680
4108.00,0.9866
4107.00,1.0060
4106.00,1.0261
4105.00,1.0469
4104.00,1.0682
4103.00,1.0899
4102.00,1.1120
4101.00,1.1344
4100.00,1.1569
4099.00,1.1796
4098.00,1.2023
4097.00,1.2251
4096.00,1.2477
4095.00,1.2702
4094.00,1.2924
4093.00,1.3144
4092.00,1.3363
4091.00,1.3577
4090.00,1.3787
4089.00,1.3992
4088.00,1.4189
4087.00,1.4379
4086.00,1.4561
4085.00,1.4738
4084.00,1.4910
4083.00,1.5076
4082.00,1.5236
4081.00,1.5388
4080.00,1.5533
4079.00,1.5674
4078.00,1.5812
4077.00,1.5946
4076.00,1.6075
4075.00,1.6196
4074.00,1.6308
4073.00,1.6412
4072.00,1.6509
4071.00,1.6598
4070.00,1.6682
4069.00,1.6760
4068.00,1.6834
4067.00,1.6902
4066.00,1.6964
4065.00,1.7022
4064.00,1.7078
4063.00,1.7132
4062.00,1.7181
4061.00,1.7224
4060.00,1.7260
4059.00,1.7289
4058.00,1.7312
4057.00,1.7330
4056.00,1.7342
4055.00,1.7348
4054.00,1.7350
4053.00,1.7349
4052.00,1.7345
4051.00,1.7337
4050.00,1.7320
4049.00,1.7297
4048.00,1.7270
4047.00,1.7242
4046.00,1.7211
4045.00,1.7173
4044.00,1.7127
4043.00,1.7070
4042.00,1.7008
4041.00,1.6943
4040.00,1.6878
4039.00,1.6809
4038.00,1.6733
4037.00,1.6647
4036.00,1.6553
4035.00,1.6453
4034.00,1.6349
4033.00,1.6242
4032.00,1.6127
4031.00,1.6005
4030.00,1.5876
4029.00,1.5742
4028.00,1.5603
4027.00,1.5457
4026.00,1.5304
4025.00,1.5143
4024.00,1.4976
4023.00,1.4802
4022.00,1.4622
4021.00,1.4436
4020.00,1.4244
4019.00,1.4046
4018.00,1.3845
4017.00,1.3638
4016.00,1.3425
4015.00,1.3205
4014.00,1.2979
4013.00,1.2749
4012.00,1.2515
4011.00,1.2279
4010.00,1.2039
4009.00,1.1795
4008.00,1.1550
4007.00,1.1304
4006.00,1.1060
4005.00,1.0820
4004.00,1.0584
4003.00,1.0354
4002.00,1.0130
4001.00,0.9914
4000.00,0.9708
3999.00,0.9514
3998.00,0.9333
3997.00,0.9169
3996.00,0.9020
3995.00,0.8888
3994.00,0.8775
3993.00,0.8682
3992.00,0.8611
3991.00,0.8562
3990.00,0.8535
3989.00,0.8533
3988.00,0.8553
3987.00,0.8595
3986.00,0.8659
3985.00,0.8744
3984.00,0.8848
3983.00,0.8972
3982.00,0.9114
3981.00,0.9272
3980.00,0.9444
3979.00,0.9629
3978.00,0.9826
3977.00,1.0031
3976.00,1.0246
3975.00,1.0469
3974.00,1.0697
3973.00,1.0930
3972.00,1.1166
3971.00,1.1405
3970.00,1.1646
3969.00,1.1889
3968.00,1.2134
3967.00,1.2379
3966.00,1.2623
3965.00,1.2865
3964.00,1.3104
3963.00,1.3340
3962.00,1.3574
3961.00,1.3803
3960.00,1.4028
3959.00,1.4246
3958.00,1.4455
3957.00,1.4658
3956.00,1.4854
3955.00,1.5046
3954.00,1.5231
3953.00,1.5409
3952.00,1.5579
3951.00,1.5741
3950.00,1.5896
3949.00,1.6046
3948.00,1.6190
3947.00,1.6329
3946.00,1.6461
3945.00,1.6584
3944.00,1.6701
3943.00,1.6814
3942.00,1.6924
3941.00,1.7030
3940.00,1.7129
3939.00,1.7219
3938.00,1.7299
3937.00,1.7371
3936.00,1.7437
3935.00,1.7501
3934.00,1.7563
3933.00,1.7623
3932.00,1.7677
3931.00,1.7727
3930.00,1.7771
3929.00,1.7808
3928.00,1.7837
3927.00,1.7857
3926.00,1.7870
3925.00,1.7880
3924.00,1.7888
3923.00,1.7895
3922.00,1.7900
3921.00,1.7901
3920.00,1.7899
3919.00,1.7893
3918.00,1.7880
3917.00,1.7860
3916.00,1.7834
3915.00,1.7804
3914.00,1.7768
3913.00,1.7722
3912.00,1.7667
3911.00,1.7605
3910.00,1.7541
3909.00,1.7475
3908.00,1.7405
3907.00,1.7332
3906.00,1.7251
3905.00,1.7162
3904.00,1.7064
3903.00,1.6961
3902.00,1.6853
3901.00,1.6740
3900.00,1.6618
3899.00,1.6488
3898.00,1.6349
3897.00,1.6204
3896.00,1.6055
3895.00,1.5900
3894.00,1.5736
3893.00,1.5561
3892.00,1.5373
3891.00,1.5177
3890.00,1.4976
3889.00,1.4775
3888.00,1.4571
3887.00,1.4354
3886.00,1.4116
3885.00,1.3866
3884.00,1.3615
3883.00,1.3369
3882.00,1.3116
3881.00,1.2848
3880.00,1.2567
3879.00,1.2288
3878.00,1.2019
3877.00,1.1759
3876.00,1.1496
3875.00,1.1224
3874.00,1.0951
3873.00,1.0688
3872.00,1.0439
3871.00,1.0191
3870.00,0.9937
3869.00,0.9688
3868.00,0.9462
3867.00,0.9268
3866.00,0.9098
3865.00,0.8943
3864.00,0.8803
3863.00,0.8683
3862.00,0.8588
3861.00,0.8517
3860.00,0.8471
3859.00,0.8453
3858.00,0.8462
3857.00,0.8496
3856.00,0.8554
3855.00,0.8640
3854.00,0.8757
3853.00,0.8901
3852.00,0.9062
3851.00,0.9228
3850.00,0.9390
3849.00,0.9553
3848.00,0.9733
3847.00,0.9936
3846.00,1.0160
3845.00,1.0400
3844.00,1.0651
3843.00,1.0910
3842.00,1.1170
3841.00,1.1427
3840.00,1.1681
3839.00,1.1941
3838.00,1.2212
3837.00,1.2496
3836.00,1.2781
3835.00,1.3059
3834.00,1.3326
3833.00,1.3587
3832.00,1.3845
3831.00,1.4101
3830.00,1.4351
3829.00,1.4590
3828.00,1.4818
3827.00,1.5037
3826.00,1.5250
3825.00,1.5453
3824.00,1.5644
3823.00,1.5823
3822.00,1.5999
3821.00,1.6181
3820.00,1.6363
3819.00,1.6533
3818.00,1.6683
3817.00,1.6815
3816.00,1.6942
3815.00,1.7072
3814.00,1.7203
3813.00,1.7330
3812.00,1.7446
3811.00,1.7550
3810.00,1.7646
3809.00,1.7737
3808.00,1.7823
3807.00,1.7905
3806.00,1.7980
3805.00,1.8044
3804.00,1.8096
3803.00,1.8140
3802.00,1.8182
3801.00,1.8223
3800.00,1.8257
3799.00,1.8279
3798.00,1.8294
3797.00,1.8307
3796.00,1.8323
3795.00,1.8342
3794.00,1.8360
3793.00,1.8371
3792.00,1.8373
3791.00,1.8366
3790.00,1.8354
3789.00,1.8335
3788.00,1.8306
3787.00,1.8268
3786.00,1.8224
3785.00,1.8174
3784.00,1.8120
3783.00,1.8065
3782.00,1.8007
3781.00,1.7944
3780.00,1.7872
3779.00,1.7794
3778.00,1.7715
3777.00,1.7635
3776.00,1.7550
3775.00,1.7460
3774.00,1.7366
3773.00,1.7268
3772.00,1.7165
3771.00,1.7056
3770.00,1.6940
3769.00,1.6817
3768.00,1.6686
3767.00,1.6545
3766.00,1.6395
3765.00,1.6236
3764.00,1.6073
3763.00,1.5907
3762.00,1.5732
3761.00,1.5539
3760.00,1.5329
3759.00,1.5106
3758.00,1.4875
3757.00,1.4638
3756.00,1.4397
3755.00,1.4156
3754.00,1.3911
3753.00,1.3650
3752.00,1.3365
3751.00,1.3052
3750.00,1.2721
3749.00,1.2390
3748.00,1.2079
3747.00,1.1793
3746.00,1.1516
3745.00,1.1217
3744.00,1.0895
3743.00,1.0585
3742.00,1.0316
3741.00,1.0084
3740.00,0.9863
3739.00,0.9650
3738.00,0.9451
3737.00,0.9270
3736.00,0.9104
3735.00,0.8957
3734.00,0.8837
3733.00,0.8746
3732.00,0.8678
3731.00,0.8635
3730.00,0.8619
3729.00,0.8633
3728.00,0.8678
3727.00,0.8755
3726.00,0.8865
3725.00,0.9003
3724.00,0.9165
3723.00,0.9346
3722.00,0.9544
3721.00,0.9759
3720.00,0.9990
3719.00,1.0237
3718.00,1.0497
3717.00,1.0767
3716.00,1.1042
3715.00,1.1321
3714.00,1.1605
3713.00,1.1903
3712.00,1.2222
3711.00,1.2561
3710.00,1.2906
3709.00,1.3245
3708.00,1.3566
3707.00,1.3870
3706.00,1.4157
3705.00,1.4431
3704.00,1.4698
3703.00,1.4963
3702.00,1.5228
3701.00,1.5487
3700.00,1.5734
3699.00,1.5966
3698.00,1.6180
3697.00,1.6381
3696.00,1.6573
3695.00,1.6758
3694.00,1.6933
3693.00,1.7101
3692.00,1.7262
3691.00,1.7419
3690.00,1.7573
3689.00,1.7725
3688.00,1.7873
3687.00,1.8011
3686.00,1.8138
3685.00,1.8259
3684.00,1.8376
3683.00,1.8486
3682.00,1.8587
3681.00,1.8681
3680.00,1.8771
3679.00,1.8854
3678.00,1.8931
3677.00,1.8999
3676.00,1.9061
3675.00,1.9118
3674.00,1.9169
3673.00,1.9212
3672.00,1.9246
3671.00,1.9273
3670.00,1.9295
3669.00,1.9316
3668.00,1.9338
3667.00,1.9354
3666.00,1.9364
3665.00,1.9368
3664.00,1.9369
3663.00,1.9365
3662.00,1.9355
3661.00,1.9339
3660.00,1.9315
3659.00,1.9286
3658.00,1.9251
3657.00,1.9212
3656.00,1.9169
3655.00,1.9121
3654.00,1.9068
3653.00,1.9007
3652.00,1.8939
3651.00,1.8863
3650.00,1.8783
3649.00,1.8700
3648.00,1.8610
3647.00,1.8510
3646.00,1.8402
3645.00,1.8299
3644.00,1.8208
3643.00,1.8118
3642.00,1.8023
3641.00,1.7920
3640.00,1.7809
3639.00,1.7691
3638.00,1.7568
3637.00,1.7442
3636.00,1.7314
3635.00,1.7182
3634.00,1.7047
3633.00,1.6912
3632.00,1.6779
3631.00,1.6643
3630.00,1.6493
3629.00,1.6329
3628.00,1.6162
3627.00,1.6006
3626.00,1.5859
3625.00,1.5714
3624.00,1.5567
3623.00,1.5422
3622.00,1.5281
3621.00,1.5146
3620.00,1.5013
3619.00,1.4880
3618.00,1.4751
3617.00,1.4630
3616.00,1.4518
3615.00,1.4414
3614.00,1.4318
3613.00,1.4232
3612.00,1.4158
3611.00,1.4098
3610.00,1.4050
3609.00,1.4013
3608.00,1.3985
3607.00,1.3967
3606.00,1.3954
3605.00,1.3943
3604.00,1.3934
3603.00,1.3935
3602.00,1.3952
3601.00,1.3984
3600.00,1.4023
3599.00,1.4065
3598.00,1.4109
3597.00,1.4162
3596.00,1.4227
3595.00,1.4306
3594.00,1.4397
3593.00,1.4497
3592.00,1.4604
3591.00,1.4714
3590.00,1.4829
3589.00,1.4955
3588.00,1.5096
3587.00,1.5253
3586.00,1.5417
3585.00,1.5578
3584.00,1.5730
3583.00,1.5877
3582.00,1.6025
3581.00,1.6178
3580.00,1.6337
3579.00,1.6499
3578.00,1.6661
3577.00,1.6822
3576.00,1.6983
3575.00,1.7146
3574.00,1.7310
3573.00,1.7475
3572.00,1.7636
3571.00,1.7790
3570.00,1.7936
3569.00,1.8079
3568.00,1.8224
3567.00,1.8375
3566.00,1.8530
3565.00,1.8681
3564.00,1.8821
3563.00,1.8946
3562.00,1.9061
3561.00,1.9171
3560.00,1.9281
3559.00,1.9391
3558.00,1.9498
3557.00,1.9601
3556.00,1.9698
3555.00,1.9791
3554.00,1.9882
3553.00,1.9974
3552.00,2.0064
3551.00,2.0148
3550.00,2.0224
3549.00,2.0295
3548.00,2.0366
3547.00,2.0439
3546.00,2.0510
3545.00,2.0574
3544.00,2.0627
3543.00,2.0669
3542.00,2.0705
3541.00,2.0742
3540.00,2.0779
3539.00,2.0815
3538.00,2.0851
3537.00,2.0886
3536.00,2.0919
3535.00,2.0943
3534.00,2.0958
3533.00,2.0966
3532.00,2.0971
3531.00,2.0972
3530.00,2.0971
3529.00,2.0968
3528.00,2.0964
3527.00,2.0958
3526.00,2.0948
3525.00,2.0938
3524.00,2.0925
3523.00,2.0912
3522.00,2.0898
3521.00,2.0882
3520.00,2.0859
3519.00,2.0827
3518.00,2.0789
3517.00,2.0753
3516.00,2.0720
3515.00,2.0683
3514.00,2.0637
3513.00,2.0584
3512.00,2.0526
3511.00,2.0466
3510.00,2.0401
3509.00,2.0334
3508.00,2.0267
3507.00,2.0199
3506.00,2.0127
3505.00,2.0047
3504.00,1.9958
3503.00,1.9861
3502.00,1.9761
3501.00,1.9661
3500.00,1.9563
3499.00,1.9467
3498.00,1.9370
3497.00,1.9270
3496.00,1.9164
3495.00,1.9051
3494.00,1.8931
3493.00,1.8808
3492.00,1.8683
3491.00,1.8559
3490.00,1.8435
3489.00,1.8310
3488.00,1.8181
3487.00,1.8047
3486.00,1.7911
3485.00,1.7773
3484.00,1.7635
3483.00,1.7496
3482.00,1.7359
3481.00,1.7225
3480.00,1.7093
3479.00,1.6963
3478.00,1.6838
3477.00,1.6717
3476.00,1.6599
3475.00,1.6483
3474.00,1.6371
3473.00,1.6264
3472.00,1.6164
3471.00,1.6071
3470.00,1.5985
3469.00,1.5908
3468.00,1.5839
3467.00,1.5778
3466.00,1.5726
3465.00,1.5682
3464.00,1.5649
3463.00,1.5625
3462.00,1.5610
3461.00,1.5606
3460.00,1.5611
3459.00,1.5629
3458.00,1.5660
3457.00,1.5704
3456.00,1.5758
3455.00,1.5820
3454.00,1.5887
3453.00,1.5963
3452.00,1.6046
3451.00,1.6135
3450.00,1.6231
3449.00,1.6335
3448.00,1.6447
3447.00,1.6568
3446.00,1.6696
3445.00,1.6830
3444.00,1.6967
3443.00,1.7108
3442.00,1.7251
3441.00,1.7396
3440.00,1.7542
3439.00,1.7687
3438.00,1.7831
3437.00,1.7979
3436.00,1.8132
3435.00,1.8288
3434.00,1.8443
3433.00,1.8593
3432.00,1.8736
3431.00,1.8875
3430.00,1.9011
3429.00,1.9147
3428.00,1.9282
3427.00,1.9413
3426.00,1.9544
3425.00,1.9675
3424.00,1.9807
3423.00,1.9934
3422.00,2.0054
3421.00,2.0166
3420.00,2.0270
3419.00,2.0369
3418.00,2.0464
3417.00,2.0559
3416.00,2.0655
3415.00,2.0748
3414.00,2.0833
3413.00,2.0911
3412.00,2.0982
3411.00,2.1047
3410.00,2.1108
3409.00,2.1166
3408.00,2.1220
3407.00,2.1269
3406.00,2.1314
3405.00,2.1353
3404.00,2.1385
3403.00,2.1405
3402.00,2.1418
3401.00,2.1426
3400.00,2.1432
3399.00,2.1437
3398.00,2.1442
3397.00,2.1446
3396.00,2.1446
3395.00,2.1439
3394.00,2.1423
3393.00,2.1400
3392.00,2.1376
3391.00,2.1355
3390.00,2.1338
3389.00,2.1321
3388.00,2.1301
3387.00,2.1273
3386.00,2.1240
3385.00,2.1202
3384.00,2.1161
3383.00,2.1115
3382.00,2.1064
3381.00,2.1009
3380.00,2.0949
3379.00,2.0884
3378.00,2.0814
3377.00,2.0743
3376.00,2.0667
3375.00,2.0583
3374.00,2.0489
3373.00,2.0390
3372.00,2.0292
3371.00,2.0194
3370.00,2.0092
3369.00,1.9983
3368.00,1.9865
3367.00,1.9743
3366.00,1.9620
3365.00,1.9495
3364.00,1.9364
3363.00,1.9221
3362.00,1.9068
3361.00,1.8907
3360.00,1.8742
3359.00,1.8574
3358.00,1.8405
3357.00,1.8235
3356.00,1.8064
3355.00,1.7889
3354.00,1.7708
3353.00,1.7521
3352.00,1.7331
3351.00,1.7138
3350.00,1.6946
3349.00,1.6754
3348.00,1.6562
3347.00,1.6369
3346.00,1.6176
3345.00,1.5983
3344.00,1.5796
3343.00,1.5615
3342.00,1.5444
3341.00,1.5283
3340.00,1.5130
3339.00,1.4984
3338.00,1.4847
3337.00,1.4720
3336.00,1.4606
3335.00,1.4508
3334.00,1.4427
3333.00,1.4363
3332.00,1.4314
3331.00,1.4281
3330.00,1.4265
3329.00,1.4266
3328.00,1.4284
3327.00,1.4318
3326.00,1.4367
3325.00,1.4433
3324.00,1.4514
3323.00,1.4611
3322.00,1.4722
3321.00,1.4847
3320.00,1.4984
3319.00,1.5131
3318.00,1.5287
3317.00,1.5450
3316.00,1.5621
3315.00,1.5798
3314.00,1.5982
3313.00,1.6171
3312.00,1.6362
3311.00,1.6555
3310.00,1.6749
3309.00,1.6946
3308.00,1.7146
3307.00,1.7346
3306.00,1.7544
3305.00,1.7737
3304.00,1.7925
3303.00,1.8109
3302.00,1.8288
3301.00,1.8463
3300.00,1.8636
3299.00,1.8807
3298.00,1.8977
3297.00,1.9141
3296.00,1.9299
3295.00,1.9448
3294.00,1.9591
3293.00,1.9729
3292.00,1.9864
3291.00,1.9995
3290.00,2.0123
3289.00,2.0245
3288.00,2.0360
3287.00,2.0468
3286.00,2.0570
3285.00,2.0665
3284.00,2.0756
3283.00,2.0843
3282.00,2.0929
3281.00,2.1013
3280.00,2.1095
3279.00,2.1170
3278.00,2.1239
3277.00,2.1298
3276.00,2.1348
3275.00,2.1391
3274.00,2.1434
3273.00,2.1477
3272.00,2.1519
3271.00,2.1557
3270.00,2.1591
3269.00,2.1618
3268.00,2.1634
3267.00,2.1639
3266.00,2.1637
3265.00,2.1633
3264.00,2.1630
3263.00,2.1625
3262.00,2.1620
3261.00,2.1612
3260.00,2.1599
3259.00,2.1575
3258.00,2.1542
3257.00,2.1507
3256.00,2.1471
3255.00,2.1434
3254.00,2.1391
3253.00,2.1340
3252.00,2.1284
3251.00,2.1227
3250.00,2.1173
3249.00,2.1118
3248.00,2.1055
3247.00,2.0980
3246.00,2.0897
3245.00,2.0810
3244.00,2.0720
3243.00,2.0625
3242.00,2.0524
3241.00,2.0419
3240.00,2.0309
3239.00,2.0195
3238.00,2.0077
3237.00,1.9954
3236.00,1.9827
3235.00,1.9694
3234.00,1.9555
3233.00,1.9412
3232.00,1.9266
3231.00,1.9118
3230.00,1.8966
3229.00,1.8810
3228.00,1.8647
3227.00,1.8478
3226.00,1.8305
3225.00,1.8130
3224.00,1.7956
3223.00,1.7783
3222.00,1.7613
3221.00,1.7443
3220.00,1.7272
3219.00,1.7100
3218.00,1.6927
3217.00,1.6755
3216.00,1.6588
3215.00,1.6427
3214.00,1.6273
3213.00,1.6128
3212.00,1.5992
3211.00,1.5865
3210.00,1.5746
3209.00,1.5637
3208.00,1.5539
3207.00,1.5453
3206.00,1.5381
3205.00,1.5325
3204.00,1.5284
3203.00,1.5259
3202.00,1.5248
3201.00,1.5252
3200.00,1.5270
3199.00,1.5302
3198.00,1.5350
3197.00,1.5413
3196.00,1.5490
3195.00,1.5582
3194.00,1.5686
3193.00,1.5802
3192.00,1.5930
3191.00,1.6067
3190.00,1.6213
3189.00,1.6367
3188.00,1.6528
3187.00,1.6695
3186.00,1.6868
3185.00,1.7047
3184.00,1.7230
3183.00,1.7417
3182.00,1.7603
3181.00,1.7786
3180.00,1.7967
3179.00,1.8148
3178.00,1.8330
3177.00,1.8513
3176.00,1.8695
3175.00,1.8874
3174.00,1.9051
3173.00,1.9225
3172.00,1.9393
3171.00,1.9554
3170.00,1.9710
3169.00,1.9863
3168.00,2.0013
3167.00,2.0157
3166.00,2.0294
3165.00,2.0426
3164.00,2.0556
3163.00,2.0682
3162.00,2.0801
3161.00,2.0911
3160.00,2.1013
3159.00,2.1107
3158.00,2.1197
3157.00,2.1286
3156.00,2.1376
3155.00,2.1464
3154.00,2.1548
3153.00,2.1624
3152.00,2.1691
3151.00,2.1747
3150.00,2.1791
3149.00,2.1830
3148.00,2.1871
3147.00,2.1916
3146.00,2.1963
3145.00,2.2007
3144.00,2.2045
3143.00,2.2080
3142.00,2.2115
3141.00,2.2149
3140.00,2.2177
3139.00,2.2195
3138.00,2.2203
3137.00,2.2207
3136.00,2.2209
3135.00,2.2210
3134.00,2.2206
3133.00,2.2193
3132.00,2.2174
3131.00,2.2149
3130.00,2.2122
3129.00,2.2090
3128.00,2.2051
3127.00,2.2006
3126.00,2.1959
3125.00,2.1911
3124.00,2.1860
3123.00,2.1805
3122.00,2.1744
3121.00,2.1676
3120.00,2.1600
3119.00,2.1515
3118.00,2.1424
3117.00,2.1327
3116.00,2.1224
3115.00,2.1111
3114.00,2.0988
3113.00,2.0860
3112.00,2.0728
3111.00,2.0594
3110.00,2.0456
3109.00,2.0311
3108.00,2.0157
3107.00,1.9994
3106.00,1.9827
3105.00,1.9657
3104.00,1.9486
3103.00,1.9312
3102.00,1.9133
3101.00,1.8947
3100.00,1.8756
3099.00,1.8561
3098.00,1.8363
3097.00,1.8165
3096.00,1.7965
3095.00,1.7763
3094.00,1.7560
3093.00,1.7361
3092.00,1.7168
3091.00,1.6984
3090.00,1.6808
3089.00,1.6639
3088.00,1.6478
3087.00,1.6327
3086.00,1.6189
3085.00,1.6067
3084.00,1.5960
3083.00,1.5870
3082.00,1.5798
3081.00,1.5744
3080.00,1.5711
3079.00,1.5699
3078.00,1.5709
3077.00,1.5740
3076.00,1.5794
3075.00,1.5869
3074.00,1.5963
3073.00,1.6075
3072.00,1.6202
3071.00,1.6346
3070.00,1.6507
3069.00,1.6683
3068.00,1.6873
3067.00,1.7071
3066.00,1.7276
3065.00,1.7486
3064.00,1.7701
3063.00,1.7921
3062.00,1.8145
3061.00,1.8371
3060.00,1.8597
3059.00,1.8820
3058.00,1.9039
3057.00,1.9255
3056.00,1.9468
3055.00,1.9677
3054.00,1.9880
3053.00,2.0074
3052.00,2.0264
3051.00,2.0452
3050.00,2.0638
3049.00,2.0821
3048.00,2.0996
3047.00,2.1161
3046.00,2.1318
3045.00,2.1469
3044.00,2.1615
3043.00,2.1755
3042.00,2.1888
3041.00,2.2013
3040.00,2.2128
3039.00,2.2232
3038.00,2.2330
3037.00,2.2425
3036.00,2.2519
3035.00,2.2609
3034.00,2.2692
3033.00,2.2769
3032.00,2.2837
3031.00,2.2894
3030.00,2.2938
3029.00,2.2970
3028.00,2.2995
3027.00,2.3019
3026.00,2.3041
3025.00,2.3057
3024.00,2.3061
3023.00,2.3054
3022.00,2.3038
3021.00,2.3016
3020.00,2.2987
3019.00,2.2950
3018.00,2.2902
3017.00,2.2838
3016.00,2.2760
3015.00,2.2673
3014.00,2.2578
3013.00,2.2474
3012.00,2.2355
3011.00,2.2224
3010.00,2.2083
3009.00,2.1936
3008.00,2.1780
3007.00,2.1608
3006.00,2.1421
3005.00,2.1220
3004.00,2.1012
3003.00,2.0798
3002.00,2.0583
3001.00,2.0370
3000.00,2.0160
2999.00,1.9957
2998.00,1.9766
2997.00,1.9595
2996.00,1.9450
2995.00,1.9336
2994.00,1.9262
2993.00,1.9236
2992.00,1.9264
2991.00,1.9352
2990.00,1.9503
2989.00,1.9718
2988.00,1.9992
2987.00,2.0318
2986.00,2.0691
2985.00,2.1107
2984.00,2.1559
2983.00,2.2040
2982.00,2.2546
2981.00,2.3078
2980.00,2.3631
2979.00,2.4198
2978.00,2.4775
2977.00,2.5362
2976.00,2.5962
2975.00,2.6577
2974.00,2.7208
2973.00,2.7863
2972.00,2.8546
2971.00,2.9252
2970.00,2.9971
2969.00,3.0706
2968.00,3.1463
2967.00,3.2232
2966.00,3.2997
2965.00,3.3739
2964.00,3.4405
2963.00,3.4918
2962.00,3.5267
2961.00,3.5547
2960.00,3.5866
2959.00,3.6254
2958.00,3.6688
2957.00,3.7138
2956.00,3.7541
2955.00,3.7818
2954.00,3.7967
2953.00,3.8058
2952.00,3.8106
2951.00,3.8061
2950.00,3.7954
2949.00,3.7943
2948.00,3.8180
2947.00,3.8689
2946.00,3.9372
2945.00,4.0075
2944.00,4.0609
2943.00,4.0856
2942.00,4.0929
2941.00,4.0969
2940.00,4.0995
2939.00,4.1065
2938.00,4.1400
2937.00,4.2243
2936.00,4.3632
2935.00,4.5126
2934.00,4.5571
2933.00,4.5792
2932.00,4.7170
2931.00,4.6984
2930.00,4.4585
2929.00,4.2687
2928.00,4.2428
2927.00,4.3166
2926.00,4.3154
2925.00,4.2075
2924.00,4.0845
2923.00,4.0084
2922.00,3.9631
2921.00,3.9070
2920.00,3.8339
2919.00,3.7489
2918.00,3.6630
2917.00,3.5863
2916.00,3.5214
2915.00,3.4688
2914.00,3.4257
2913.00,3.3835
2912.00,3.3330
2911.00,3.2752
2910.00,3.2213
2909.00,3.1812
2908.00,3.1547
2907.00,3.1339
2906.00,3.1109
2905.00,3.0833
2904.00,3.0532
2903.00,3.0230
2902.00,2.9938
2901.00,2.9660
2900.00,2.9400
2899.00,2.9160
2898.00,2.8936
2897.00,2.8716
2896.00,2.8486
2895.00,2.8249
2894.00,2.8023
2893.00,2.7821
2892.00,2.7638
2891.00,2.7469
2890.00,2.7331
2889.00,2.7250
2888.00,2.7234
2887.00,2.7267
2886.00,2.7329
2885.00,2.7416
2884.00,2.7537
2883.00,2.7702
2882.00,2.7919
2881.00,2.8197
2880.00,2.8541
2879.00,2.8936
2878.00,2.9365
2877.00,2.9818
2876.00,3.0295
2875.00,3.0786
2874.00,3.1280
2873.00,3.1785
2872.00,3.2346
2871.00,3.3016
2870.00,3.3828
2869.00,3.4773
2868.00,3.5784
2867.00,3.6716
2866.00,3.7380
2865.00,3.7676
2864.00,3.7700
2863.00,3.7637
2862.00,3.7594
2861.00,3.7532
2860.00,3.7287
2859.00,3.6701
2858.00,3.5788
2857.00,3.4709
2856.00,3.3597
2855.00,3.2498
2854.00,3.1417
2853.00,3.0356
2852.00,2.9320
2851.00,2.8324
2850.00,2.7377
2849.00,2.6487
2848.00,2.5659
2847.00,2.4901
2846.00,2.4224
2845.00,2.3638
2844.00,2.3151
2843.00,2.2763
2842.00,2.2472
2841.00,2.2277
2840.00,2.2170
2839.00,2.2141
2838.00,2.2175
2837.00,2.2254
2836.00,2.2361
2835.00,2.2487
2834.00,2.2627
2833.00,2.2776
2832.00,2.2927
2831.00,2.3073
2830.00,2.3211
2829.00,2.3340
2828.00,2.3458
2827.00,2.3563
2826.00,2.3655
2825.00,2.3738
2824.00,2.3816
2823.00,2.3889
2822.00,2.3954
2821.00,2.4010
2820.00,2.4053
2819.00,2.4081
2818.00,2.4099
2817.00,2.4114
2816.00,2.4135
2815.00,2.4160
2814.00,2.4179
2813.00,2.4184
2812.00,2.4179
2811.00,2.4169
2810.00,2.4157
2809.00,2.4138
2808.00,2.4106
2807.00,2.4063
2806.00,2.4010
2805.00,2.3949
2804.00,2.3881
2803.00,2.3808
2802.00,2.3731
2801.00,2.3644
2800.00,2.3546
2799.00,2.3439
2798.00,2.3325
2797.00,2.3208
2796.00,2.3084
2795.00,2.2950
2794.00,2.2803
2793.00,2.2642
2792.00,2.2465
2791.00,2.2272
2790.00,2.2066
2789.00,2.1844
2788.00,2.1606
2787.00,2.1352
2786.00,2.1082
2785.00,2.0801
2784.00,2.0511
2783.00,2.0213
2782.00,1.9906
2781.00,1.9588
2780.00,1.9257
2779.00,1.8915
2778.00,1.8563
2777.00,1.8204
2776.00,1.7839
2775.00,1.7470
2774.00,1.7098
2773.00,1.6728
2772.00,1.6366
2771.00,1.6016
2770.00,1.5684
2769.00,1.5376
2768.00,1.5097
2767.00,1.4851
2766.00,1.4643
2765.00,1.4473
2764.00,1.4343
2763.00,1.4251
2762.00,1.4197
2761.00,1.4182
2760.00,1.4203
2759.00,1.4260
2758.00,1.4354
2757.00,1.4484
2756.00,1.4652
2755.00,1.4856
2754.00,1.5094
2753.00,1.5361
2752.00,1.5653
2751.00,1.5965
2750.00,1.6295
2749.00,1.6639
2748.00,1.6992
2747.00,1.7350
2746.00,1.7710
2745.00,1.8067
2744.00,1.8419
2743.00,1.8763
2742.00,1.9094
2741.00,1.9414
2740.00,1.9723
2739.00,2.0021
2738.00,2.0308
2737.00,2.0584
2736.00,2.0851
2735.00,2.1107
2734.00,2.1353
2733.00,2.1585
2732.00,2.1801
2731.00,2.2002
2730.00,2.2189
2729.00,2.2371
2728.00,2.2550
2727.00,2.2723
2726.00,2.2883
2725.00,2.3023
2724.00,2.3145
2723.00,2.3258
2722.00,2.3372
2721.00,2.3491
2720.00,2.3611
2719.00,2.3726
2718.00,2.3831
2717.00,2.3921
2716.00,2.3998
2715.00,2.4066
2714.00,2.4132
2713.00,2.4197
2712.00,2.4257
2711.00,2.4311
2710.00,2.4358
2709.00,2.4394
2708.00,2.4417
2707.00,2.4428
2706.00,2.4439
2705.00,2.4455
2704.00,2.4473
2703.00,2.4487
2702.00,2.4489
2701.00,2.4478
2700.00,2.4450
2699.00,2.4408
2698.00,2.4359
2697.00,2.4311
2696.00,2.4271
2695.00,2.4231
2694.00,2.4185
2693.00,2.4125
2692.00,2.4049
2691.00,2.3963
2690.00,2.3877
2689.00,2.3794
2688.00,2.3710
2687.00,2.3616
2686.00,2.3513
2685.00,2.3407
2684.00,2.3300
2683.00,2.3189
2682.00,2.3069
2681.00,2.2944
2680.00,2.2816
2679.00,2.2692
2678.00,2.2573
2677.00,2.2459
2676.00,2.2343
2675.00,2.2215
2674.00,2.2070
2673.00,2.1914
2672.00,2.1753
2671.00,2.1591
2670.00,2.1428
2669.00,2.1258
2668.00,2.1074
2667.00,2.0865
2666.00,2.0628
2665.00,2.0364
2664.00,2.0076
2663.00,1.9768
2662.00,1.9443
2661.00,1.9104
2660.00,1.8758
2659.00,1.8409
2658.00,1.8061
2657.00,1.7716
2656.00,1.7379
2655.00,1.7053
2654.00,1.6736
2653.00,1.6432
2652.00,1.6140
2651.00,1.5863
2650.00,1.5601
2649.00,1.5356
2648.00,1.5130
2647.00,1.4924
2646.00,1.4739
2645.00,1.4579
2644.00,1.4445
2643.00,1.4340
2642.00,1.4271
2641.00,1.4243
2640.00,1.4259
2639.00,1.4320
2638.00,1.4427
2637.00,1.4578
2636.00,1.4770
2635.00,1.5000
2634.00,1.5261
2633.00,1.5550
2632.00,1.5860
2631.00,1.6189
2630.00,1.6533
2629.00,1.6888
2628.00,1.7250
2627.00,1.7614
2626.00,1.7977
2625.00,1.8336
2624.00,1.8689
2623.00,1.9035
2622.00,1.9373
2621.00,1.9700
2620.00,2.0014
2619.00,2.0312
2618.00,2.0594
2617.00,2.0862
2616.00,2.1120
2615.00,2.1367
2614.00,2.1603
2613.00,2.1829
2612.00,2.2045
2611.00,2.2251
2610.00,2.2446
2609.00,2.2632
2608.00,2.2813
2607.00,2.2993
2606.00,2.3168
2605.00,2.3332
2604.00,2.3482
2603.00,2.3616
2602.00,2.3741
2601.00,2.3861
2600.00,2.3982
2599.00,2.4107
2598.00,2.4233
2597.00,2.4349
2596.00,2.4448
2595.00,2.4533
2594.00,2.4613
2593.00,2.4691
2592.00,2.4766
2591.00,2.4838
2590.00,2.4904
2589.00,2.4966
2588.00,2.5022
2587.00,2.5075
2586.00,2.5127
2585.00,2.5178
2584.00,2.5219
2583.00,2.5245
2582.00,2.5257
2581.00,2.5261
2580.00,2.5265
2579.00,2.5274
2578.00,2.5289
2577.00,2.5305
2576.00,2.5318
2575.00,2.5318
2574.00,2.5301
2573.00,2.5266
2572.00,2.5221
2571.00,2.5174
2570.00,2.5134
2569.00,2.5098
2568.00,2.5054
2567.00,2.4995
2566.00,2.4921
2565.00,2.4843
2564.00,2.4767
2563.00,2.4697
2562.00,2.4625
2561.00,2.4544
2560.00,2.4447
2559.00,2.4334
2558.00,2.4209
2557.00,2.4080
2556.00,2.3949
2555.00,2.3816
2554.00,2.3681
2553.00,2.3543
2552.00,2.3397
2551.00,2.3238
2550.00,2.3063
2549.00,2.2874
2548.00,2.2674
2547.00,2.2467
2546.00,2.2254
2545.00,2.2036
2544.00,2.1811
2543.00,2.1574
2542.00,2.1323
2541.00,2.1057
2540.00,2.0776
2539.00,2.0482
2538.00,2.0176
2537.00,1.9857
2536.00,1.9526
2535.00,1.9184
2534.00,1.8830
2533.00,1.8463
2532.00,1.8087
2531.00,1.7703
2530.00,1.7312
2529.00,1.6919
2528.00,1.6527
2527.00,1.6141
2526.00,1.5765
2525.00,1.5401
2524.00,1.5055
2523.00,1.4730
2522.00,1.4429
2521.00,1.4158
2520.00,1.3921
2519.00,1.3723
2518.00,1.3568
2517.00,1.3460
2516.00,1.3405
2515.00,1.3403
2514.00,1.3456
2513.00,1.3563
2512.00,1.3722
2511.00,1.3927
2510.00,1.4174
2509.00,1.4459
2508.00,1.4775
2507.00,1.5118
2506.00,1.5483
2505.00,1.5863
2504.00,1.6255
2503.00,1.6657
2502.00,1.7066
2501.00,1.7479
2500.00,1.7890
2499.00,1.8294
2498.00,1.8689
2497.00,1.9075
2496.00,1.9455
2495.00,1.9826
2494.00,2.0184
2493.00,2.0525
2492.00,2.0851
2491.00,2.1164
2490.00,2.1467
2489.00,2.1754
2488.00,2.2023
2487.00,2.2277
2486.00,2.2524
2485.00,2.2769
2484.00,2.3006
2483.00,2.3225
2482.00,2.3421
2481.00,2.3597
2480.00,2.3761
2479.00,2.3922
2478.00,2.4084
2477.00,2.4249
2476.00,2.4413
2475.00,2.4570
2474.00,2.4713
2473.00,2.4840
2472.00,2.4954
2471.00,2.5059
2470.00,2.5160
2469.00,2.5256
2468.00,2.5341
2467.00,2.5413
2466.00,2.5474
2465.00,2.5536
2464.00,2.5614
2463.00,2.5711
2462.00,2.5814
2461.00,2.5897
2460.00,2.5944
2459.00,2.5962
2458.00,2.5975
2457.00,2.5996
2456.00,2.6023
2455.00,2.6050
2454.00,2.6073
2453.00,2.6091
2452.00,2.6101
2451.00,2.6094
2450.00,2.6071
2449.00,2.6041
2448.00,2.6016
2447.00,2.6001
2446.00,2.5994
2445.00,2.5986
2444.00,2.5969
2443.00,2.5940
2442.00,2.5898
2441.00,2.5845
2440.00,2.5783
2439.00,2.5717
2438.00,2.5649
2437.00,2.5574
2436.00,2.5491
2435.00,2.5402
2434.00,2.5311
2433.00,2.5219
2432.00,2.5121
2431.00,2.5011
2430.00,2.4895
2429.00,2.4776
2428.00,2.4656
2427.00,2.4533
2426.00,2.4404
2425.00,2.4265
2424.00,2.4111
2423.00,2.3940
2422.00,2.3757
2421.00,2.3568
2420.00,2.3374
2419.00,2.3172
2418.00,2.2957
2417.00,2.2731
2416.00,2.2492
2415.00,2.2237
2414.00,2.1964
2413.00,2.1673
2412.00,2.1367
2411.00,2.1045
2410.00,2.0706
2409.00,2.0349
2408.00,1.9974
2407.00,1.9582
2406.00,1.9169
2405.00,1.8737
2404.00,1.8287
2403.00,1.7822
2402.00,1.7349
2401.00,1.6870
2400.00,1.6393
2399.00,1.5922
2398.00,1.5465
2397.00,1.5031
2396.00,1.4627
2395.00,1.4260
2394.00,1.3935
2393.00,1.3657
2392.00,1.3432
2391.00,1.3266
2390.00,1.3162
2389.00,1.3124
2388.00,1.3153
2387.00,1.3247
2386.00,1.3403
2385.00,1.3614
2384.00,1.3872
2383.00,1.4169
2382.00,1.4496
2381.00,1.4844
2380.00,1.5205
2379.00,1.5568
2378.00,1.5924
2377.00,1.6265
2376.00,1.6584
2375.00,1.6874
2374.00,1.7135
2373.00,1.7366
2372.00,1.7574
2371.00,1.7766
2370.00,1.7952
2369.00,1.8141
2368.00,1.8337
2367.00,1.8549
2366.00,1.8781
2365.00,1.9027
2364.00,1.9277
2363.00,1.9523
2362.00,1.9760
2361.00,1.9978
2360.00,2.0174
2359.00,2.0356
2358.00,2.0547
2357.00,2.0688
2356.00,2.0871
2355.00,2.0919
2354.00,2.1160
2353.00,2.0947
2352.00,2.3923
2351.00,2.5418
2350.00,2.4964
2349.00,2.5379
2348.00,2.5332
2347.00,2.5580
2346.00,2.5715
2345.00,2.5929
2344.00,2.6089
2343.00,2.6212
2342.00,2.6305
2341.00,2.6395
2340.00,2.6498
2339.00,2.6603
2338.00,2.6686
2337.00,2.6736
2336.00,2.6767
2335.00,2.6800
2334.00,2.6846
2333.00,2.6898
2332.00,2.6948
2331.00,2.6995
2330.00,2.7042
2329.00,2.7066
2328.00,2.7117
2327.00,2.7069
2326.00,2.7149
2325.00,2.6953
2324.00,2.7335
2323.00,2.4960
2322.00,2.4578
2321.00,2.4767
2320.00,2.4699
2319.00,2.4746
2318.00,2.4700
2317.00,2.4652
2316.00,2.4575
2315.00,2.4517
2314.00,2.4518
2313.00,2.4563
2312.00,2.4639
2311.00,2.4702
2310.00,2.4748
2309.00,2.4765
2308.00,2.4767
2307.00,2.4763
2306.00,2.4761
2305.00,2.4760
2304.00,2.4754
2303.00,2.4743
2302.00,2.4728
2301.00,2.4705
2300.00,2.4671
2299.00,2.4618
2298.00,2.4547
2297.00,2.4457
2296.00,2.4349
2295.00,2.4219
2294.00,2.4072
2293.00,2.3917
2292.00,2.3768
2291.00,2.3627
2290.00,2.3479
2289.00,2.3305
2288.00,2.3096
2287.00,2.2864
2286.00,2.2622
2285.00,2.2371
2284.00,2.2099
2283.00,2.1801
2282.00,2.1477
2281.00,2.1134
2280.00,2.0773
2279.00,2.0391
2278.00,1.9985
2277.00,1.9557
2276.00,1.9107
2275.00,1.8638
2274.00,1.8154
2273.00,1.7660
2272.00,1.7162
2271.00,1.6665
2270.00,1.6177
2269.00,1.5704
2268.00,1.5255
2267.00,1.4838
2266.00,1.4463
2265.00,1.4140
2264.00,1.3878
2263.00,1.3682
2262.00,1.3560
2261.00,1.3514
2260.00,1.3548
2259.00,1.3660
2258.00,1.3847
2257.00,1.4102
2256.00,1.4417
2255.00,1.4783
2254.00,1.5185
2253.00,1.5609
2252.00,1.6040
2251.00,1.6469
2250.00,1.6896
2249.00,1.7325
2248.00,1.7759
2247.00,1.8200
2246.00,1.8645
2245.00,1.9091
2244.00,1.9534
2243.00,1.9972
2242.00,2.0403
2241.00,2.0823
2240.00,2.1229
2239.00,2.1618
2238.00,2.1991
2237.00,2.2347
2236.00,2.2684
2235.00,2.2998
2234.00,2.3290
2233.00,2.3563
2232.00,2.3825
2231.00,2.4078
2230.00,2.4321
2229.00,2.4552
2228.00,2.4774
2227.00,2.4990
2226.00,2.5200
2225.00,2.5400
2224.00,2.5586
2223.00,2.5761
2222.00,2.5930
2221.00,2.6096
2220.00,2.6255
2219.00,2.6396
2218.00,2.6512
2217.00,2.6610
2216.00,2.6711
2215.00,2.6827
2214.00,2.6952
2213.00,2.7068
2212.00,2.7164
2211.00,2.7244
2210.00,2.7317
2209.00,2.7387
2208.00,2.7454
2207.00,2.7518
2206.00,2.7579
2205.00,2.7633
2204.00,2.7672
2203.00,2.7696
2202.00,2.7710
2201.00,2.7723
2200.00,2.7741
2199.00,2.7767
2198.00,2.7797
2197.00,2.7824
2196.00,2.7845
2195.00,2.7866
2194.00,2.7885
2193.00,2.7892
2192.00,2.7880
2191.00,2.7854
2190.00,2.7824
2189.00,2.7794
2188.00,2.7763
2187.00,2.7734
2186.00,2.7707
2185.00,2.7674
2184.00,2.7628
2183.00,2.7574
2182.00,2.7523
2181.00,2.7478
2180.00,2.7425
2179.00,2.7351
2178.00,2.7250
2177.00,2.7133
2176.00,2.7015
2175.00,2.6910
2174.00,2.6820
2173.00,2.6736
2172.00,2.6640
2171.00,2.6526
2170.00,2.6403
2169.00,2.6275
2168.00,2.6133
2167.00,2.5966
2166.00,2.5775
2165.00,2.5571
2164.00,2.5362
2163.00,2.5146
2162.00,2.4917
2161.00,2.4678
2160.00,2.4432
2159.00,2.4178
2158.00,2.3911
2157.00,2.3625
2156.00,2.3321
2155.00,2.3003
2154.00,2.2671
2153.00,2.2320
2152.00,2.1945
2151.00,2.1544
2150.00,2.1120
2149.00,2.0674
2148.00,2.0209
2147.00,1.9725
2146.00,1.9224
2145.00,1.8711
2144.00,1.8195
2143.00,1.7681
2142.00,1.7181
2141.00,1.6702
2140.00,1.6256
2139.00,1.5849
2138.00,1.5490
2137.00,1.5184
2136.00,1.4936
2135.00,1.4749
2134.00,1.4624
2133.00,1.4563
2132.00,1.4568
2131.00,1.4640
2130.00,1.4777
2129.00,1.4977
2128.00,1.5238
2127.00,1.5552
2126.00,1.5915
2125.00,1.6318
2124.00,1.6752
2123.00,1.7210
2122.00,1.7686
2121.00,1.8176
2120.00,1.8673
2119.00,1.9168
2118.00,1.9657
2117.00,2.0139
2116.00,2.0611
2115.00,2.1070
2114.00,2.1512
2113.00,2.1938
2112.00,2.2348
2111.00,2.2741
2110.00,2.3115
2109.00,2.3468
2108.00,2.3799
2107.00,2.4104
2106.00,2.4388
2105.00,2.4659
2104.00,2.4925
2103.00,2.5184
2102.00,2.5431
2101.00,2.5665
2100.00,2.5894
2099.00,2.6118
2098.00,2.6320
2097.00,2.6490
2096.00,2.6636
2095.00,2.6779
2094.00,2.6929
2093.00,2.7082
2092.00,2.7235
2091.00,2.7387
2090.00,2.7537
2089.00,2.7669
2088.00,2.7773
2087.00,2.7857
2086.00,2.7936
2085.00,2.8025
2084.00,2.8126
2083.00,2.8232
2082.00,2.8331
2081.00,2.8413
2080.00,2.8474
2079.00,2.8520
2078.00,2.8555
2077.00,2.8586
2076.00,2.8620
2075.00,2.8662
2074.00,2.8705
2073.00,2.8739
2072.00,2.8765
2071.00,2.8790
2070.00,2.8818
2069.00,2.8845
2068.00,2.8872
2067.00,2.8903
2066.00,2.8926
2065.00,2.8917
2064.00,2.8868
2063.00,2.8802
2062.00,2.8749
2061.00,2.8719
2060.00,2.8700
2059.00,2.8678
2058.00,2.8645
2057.00,2.8600
2056.00,2.8553
2055.00,2.8515
2054.00,2.8485
2053.00,2.8445
2052.00,2.8375
2051.00,2.8277
2050.00,2.8168
2049.00,2.8058
2048.00,2.7945
2047.00,2.7819
2046.00,2.7680
2045.00,2.7535
2044.00,2.7395
2043.00,2.7263
2042.00,2.7130
2041.00,2.6981
2040.00,2.6809
2039.00,2.6618
2038.00,2.6422
2037.00,2.6229
2036.00,2.6032
2035.00,2.5819
2034.00,2.5580
2033.00,2.5318
2032.00,2.5043
2031.00,2.4767
2030.00,2.4488
2029.00,2.4196
2028.00,2.3878
2027.00,2.3530
2026.00,2.3158
2025.00,2.2768
2024.00,2.2363
2023.00,2.1939
2022.00,2.1494
2021.00,2.1025
2020.00,2.0532
2019.00,2.0016
2018.00,1.9482
2017.00,1.8937
2016.00,1.8392
2015.00,1.7863
2014.00,1.7364
2013.00,1.6905
2012.00,1.6489
2011.00,1.6117
2010.00,1.5794
2009.00,1.5529
2008.00,1.5334
2007.00,1.5216
2006.00,1.5178
2005.00,1.5225
2004.00,1.5357
2003.00,1.5570
2002.00,1.5857
2001.00,1.6210
2000.00,1.6617
1999.00,1.7067
1998.00,1.7551
1997.00,1.8061
1996.00,1.8589
1995.00,1.9127
1994.00,1.9665
1993.00,2.0194
1992.00,2.0710
1991.00,2.1209
1990.00,2.1694
1989.00,2.2172
1988.00,2.2643
1987.00,2.3104
1986.00,2.3546
1985.00,2.3962
1984.00,2.4347
1983.00,2.4696
1982.00,2.5011
1981.00,2.5303
1980.00,2.5584
1979.00,2.5859
1978.00,2.6122
1977.00,2.6366
1976.00,2.6591
1975.00,2.6808
1974.00,2.7020
1973.00,2.7228
1972.00,2.7425
1971.00,2.7612
1970.00,2.7790
1969.00,2.7958
1968.00,2.8112
1967.00,2.8239
1966.00,2.8334
1965.00,2.8412
1964.00,2.8506
1963.00,2.8636
1962.00,2.8791
1961.00,2.8940
1960.00,2.9060
1959.00,2.9144
1958.00,2.9196
1957.00,2.9224
1956.00,2.9253
1955.00,2.9306
1954.00,2.9387
1953.00,2.9478
1952.00,2.9562
1951.00,2.9636
1950.00,2.9699
1949.00,2.9748
1948.00,2.9790
1947.00,2.9830
1946.00,2.9857
1945.00,2.9853
1944.00,2.9819
1943.00,2.9771
1942.00,2.9717
1941.00,2.9657
1940.00,2.9618
1939.00,2.9635
1938.00,2.9703
1937.00,2.9768
1936.00,2.9781
1935.00,2.9742
1934.00,2.9690
1933.00,2.9651
1932.00,2.9616
1931.00,2.9560
1930.00,2.9460
1929.00,2.9317
1928.00,2.9155
1927.00,2.9008
1926.00,2.8893
1925.00,2.8806
1924.00,2.8726
1923.00,2.8630
1922.00,2.8501
1921.00,2.8346
1920.00,2.8190
1919.00,2.8043
1918.00,2.7885
1917.00,2.7690
1916.00,2.7464
1915.00,2.7245
1914.00,2.7052
1913.00,2.6868
1912.00,2.6659
1911.00,2.6403
1910.00,2.6100
1909.00,2.5769
1908.00,2.5433
1907.00,2.5104
1906.00,2.4781
1905.00,2.4445
1904.00,2.4080
1903.00,2.3672
1902.00,2.3226
1901.00,2.2750
1900.00,2.2251
1899.00,2.1729
1898.00,2.1180
1897.00,2.0602
1896.00,1.9995
1895.00,1.9366
1894.00,1.8739
1893.00,1.8152
1892.00,1.7635
1891.00,1.7188
1890.00,1.6796
1889.00,1.6456
1888.00,1.6205
1887.00,1.6092
1886.00,1.6139
1885.00,1.6323
1884.00,1.6598
1883.00,1.6939
1882.00,1.7337
1881.00,1.7794
1880.00,1.8298
1879.00,1.8832
1878.00,1.9381
1877.00,1.9938
1876.00,2.0496
1875.00,2.1044
1874.00,2.1576
1873.00,2.2086
1872.00,2.2567
1871.00,2.3017
1870.00,2.3434
1869.00,2.3808
1868.00,2.4123
1867.00,2.4402
1866.00,2.4716
1865.00,2.5107
1864.00,2.5551
1863.00,2.5997
1862.00,2.6403
1861.00,2.6749
1860.00,2.7041
1859.00,2.7309
1858.00,2.7581
1857.00,2.7861
1856.00,2.8126
1855.00,2.8364
1854.00,2.8580
1853.00,2.8782
1852.00,2.8968
1851.00,2.9138
1850.00,2.9302
1849.00,2.9458
1848.00,2.9587
1847.00,2.9686
1846.00,2.9788
1845.00,2.9917
1844.00,3.0050
1843.00,3.0141
1842.00,3.0202
1841.00,3.0281
1840.00,3.0378
1839.00,3.0468
1838.00,3.0539
1837.00,3.0579
1836.00,3.0590
1835.00,3.0608
1834.00,3.0662
1833.00,3.0739
1832.00,3.0797
1831.00,3.0796
1830.00,3.0723
1829.00,3.0593
1828.00,3.0470
1827.00,3.0427
1826.00,3.0452
1825.00,3.0460
1824.00,3.0408
1823.00,3.0323
1822.00,3.0261
1821.00,3.0224
1820.00,3.0182
1819.00,3.0125
1818.00,3.0066
1817.00,3.0001
1816.00,2.9916
1815.00,2.9805
1814.00,2.9676
1813.00,2.9520
1812.00,2.9312
1811.00,2.9053
1810.00,2.8781
1809.00,2.8554
1808.00,2.8398
1807.00,2.8289
1806.00,2.8181
1805.00,2.8042
1804.00,2.7856
1803.00,2.7607
1802.00,2.7272
1801.00,2.6837
1800.00,2.6321
1799.00,2.5765
1798.00,2.5213
1797.00,2.4680
1796.00,2.4159
1795.00,2.3630
1794.00,2.3083
1793.00,2.2519
1792.00,2.1945
1791.00,2.1395
1790.00,2.0961
1789.00,2.0737
1788.00,2.0728
1787.00,2.0886
1786.00,2.1174
1785.00,2.1569
1784.00,2.2056
1783.00,2.2617
1782.00,2.3237
1781.00,2.3899
1780.00,2.4578
1779.00,2.5260
1778.00,2.5960
1777.00,2.6680
1776.00,2.7377
1775.00,2.7992
1774.00,2.8534
1773.00,2.9059
1772.00,2.9562
1771.00,2.9977
1770.00,3.0325
1769.00,3.0684
1768.00,3.1058
1767.00,3.1405
1766.00,3.1705
1765.00,3.1963
1764.00,3.2184
1763.00,3.2361
1762.00,3.2480
1761.00,3.2543
1760.00,3.2593
1759.00,3.2687
1758.00,3.2843
1757.00,3.3048
1756.00,3.3266
1755.00,3.3446
1754.00,3.3587
1753.00,3.3732
1752.00,3.3910
1751.00,3.4098
1750.00,3.4227
1749.00,3.4272
1748.00,3.4304
1747.00,3.4440
1746.00,3.4758
1745.00,3.5243
1744.00,3.5839
1743.00,3.6544
1742.00,3.7406
1741.00,3.8424
1740.00,3.9486
1739.00,4.0372
1738.00,4.0789
1737.00,4.0622
1736.00,4.0242
1735.00,4.0223
1734.00,4.0884
1733.00,4.2175
1732.00,4.3769
1731.00,4.5038
1730.00,4.5952
1729.00,4.7244
1728.00,4.8102
1727.00,4.7296
1726.00,4.6222
1725.00,4.5959
1724.00,4.6291
1723.00,4.6425
1722.00,4.5851
1721.00,4.4484
1720.00,4.3014
1719.00,4.2416
1718.00,4.3087
1717.00,4.5321
1716.00,4.9139
1715.00,4.9485
1714.00,4.6515
1713.00,4.4377
1712.00,4.3335
1711.00,4.3487
1710.00,4.4449
1709.00,4.5706
1708.00,4.6094
1707.00,4.5132
1706.00,4.4204
1705.00,4.4356
1704.00,4.5258
1703.00,4.4702
1702.00,4.3527
1701.00,4.3973
1700.00,4.6543
1699.00,4.7384
1698.00,4.6747
1697.00,4.7079
1696.00,4.4903
1695.00,4.3966
1694.00,4.4010
1693.00,4.2630
1692.00,4.0881
1691.00,3.9504
1690.00,3.8517
1689.00,3.7827
1688.00,3.7339
1687.00,3.7008
1686.00,3.6825
1685.00,3.6709
1684.00,3.6449
1683.00,3.5883
1682.00,3.5311
1681.00,3.5064
1680.00,3.5043
1679.00,3.5065
1678.00,3.5018
1677.00,3.4812
1676.00,3.4460
1675.00,3.4015
1674.00,3.3537
1673.00,3.3108
1672.00,3.2745
1671.00,3.2331
1670.00,3.1752
1669.00,3.1019
1668.00,3.0277
1667.00,2.9702
1666.00,2.9285
1665.00,2.8871
1664.00,2.8361
1663.00,2.7753
1662.00,2.7104
1661.00,2.6540
1660.00,2.6185
1659.00,2.6043
1658.00,2.6046
1657.00,2.6130
1656.00,2.6275
1655.00,2.6542
1654.00,2.7021
1653.00,2.7610
1652.00,2.8014
1651.00,2.8356
1650.00,2.8759
1649.00,2.8924
1648.00,2.8954
1647.00,2.9096
1646.00,2.9342
1645.00,2.9693
1644.00,3.0188
1643.00,3.0707
1642.00,3.1085
1641.00,3.1319
1640.00,3.1458
1639.00,3.1528
1638.00,3.1561
1637.00,3.1597
1636.00,3.1648
1635.00,3.1682
1634.00,3.1756
1633.00,3.1949
1632.00,3.2144
1631.00,3.2218
1630.00,3.2228
1629.00,3.2221
1628.00,3.2175
1627.00,3.2093
1626.00,3.2039
1625.00,3.2066
1624.00,3.2161
1623.00,3.2268
1622.00,3.2343
1621.00,3.2390
1620.00,3.2435
1619.00,3.2494
1618.00,3.2588
1617.00,3.2682
1616.00,3.2668
1615.00,3.2533
1614.00,3.2383
1613.00,3.2250
1612.00,3.2129
1611.00,3.2058
1610.00,3.2029
1609.00,3.1960
1608.00,3.1800
1607.00,3.1591
1606.00,3.1404
1605.00,3.1254
1604.00,3.1110
1603.00,3.0951
1602.00,3.0781
1601.00,3.0609
1600.00,3.0434
1599.00,3.0251
1598.00,3.0036
1597.00,2.9768
1596.00,2.9459
1595.00,2.9148
1594.00,2.8847
1593.00,2.8530
1592.00,2.8178
1591.00,2.7809
1590.00,2.7434
1589.00,2.7032
1588.00,2.6592
1587.00,2.6120
1586.00,2.5618
1585.00,2.5064
1584.00,2.4450
1583.00,2.3789
1582.00,2.3100
1581.00,2.2406
1580.00,2.1730
1579.00,2.1096
1578.00,2.0542
1577.00,2.0091
1576.00,1.9716
1575.00,1.9388
1574.00,1.9170
1573.00,1.9108
1572.00,1.9176
1571.00,1.9395
1570.00,1.9760
1569.00,2.0174
1568.00,2.0622
1567.00,2.1196
1566.00,2.1889
1565.00,2.2601
1564.00,2.3264
1563.00,2.3870
1562.00,2.4466
1561.00,2.5150
1560.00,2.5919
1559.00,2.6560
1558.00,2.6734
1557.00,2.6811
1556.00,2.7289
1555.00,2.7876
1554.00,2.8362
1553.00,2.8830
1552.00,2.9236
1551.00,2.9524
1550.00,2.9715
1549.00,2.9910
1548.00,3.0164
1547.00,3.0459
1546.00,3.0728
1545.00,3.0910
1544.00,3.0992
1543.00,3.1021
1542.00,3.1102
1541.00,3.1272
1540.00,3.1444
1539.00,3.1534
1538.00,3.1684
1537.00,3.1967
1536.00,3.2183
1535.00,3.2285
1534.00,3.2382
1533.00,3.2452
1532.00,3.2474
1531.00,3.2570
1530.00,3.2767
1529.00,3.2914
1528.00,3.2906
1527.00,3.2804
1526.00,3.2746
1525.00,3.2780
1524.00,3.2836
1523.00,3.2861
1522.00,3.2894
1521.00,3.2953
1520.00,3.2988
1519.00,3.2997
1518.00,3.2976
1517.00,3.2907
1516.00,3.2797
1515.00,3.2697
1514.00,3.2674
1513.00,3.2711
1512.00,3.2732
1511.00,3.2690
1510.00,3.2585
1509.00,3.2458
1508.00,3.2294
1507.00,3.2018
1506.00,3.1607
1505.00,3.1359
1504.00,3.1475
1503.00,3.1639
1502.00,3.1602
1501.00,3.1455
1500.00,3.1256
1499.00,3.1001
1498.00,3.0725
1497.00,3.0489
1496.00,3.0298
1495.00,3.0125
1494.00,2.9941
1493.00,2.9697
1492.00,2.9362
1491.00,2.8927
1490.00,2.8376
1489.00,2.7725
1488.00,2.7084
1487.00,2.6559
1486.00,2.6153
1485.00,2.5812
1484.00,2.5475
1483.00,2.5094
1482.00,2.4659
1481.00,2.4216
1480.00,2.3841
1479.00,2.3600
1478.00,2.3518
1477.00,2.3580
1476.00,2.3763
1475.00,2.4080
1474.00,2.4578
1473.00,2.5264
1472.00,2.6058
1471.00,2.6891
1470.00,2.7765
1469.00,2.8665
1468.00,2.9557
1467.00,3.0435
1466.00,3.1287
1465.00,3.2055
1464.00,3.2629
1463.00,3.2950
1462.00,3.3133
1461.00,3.3327
1460.00,3.3606
1459.00,3.3996
1458.00,3.4549
1457.00,3.5304
1456.00,3.6216
1455.00,3.7226
1454.00,3.8379
1453.00,3.9921
1452.00,4.2145
1451.00,4.4092
1450.00,4.3339
1449.00,4.1317
1448.00,3.9699
1447.00,3.8470
1446.00,3.7358
1445.00,3.6288
1444.00,3.5313
1443.00,3.4488
1442.00,3.3858
1441.00,3.3438
1440.00,3.3223
1439.00,3.3234
1438.00,3.3538
1437.00,3.4176
1436.00,3.5056
1435.00,3.5996
1434.00,3.6858
1433.00,3.7562
1432.00,3.8014
1431.00,3.8132
1430.00,3.8008
1429.00,3.7878
1428.00,3.7906
1427.00,3.8114
1426.00,3.8478
1425.00,3.8961
1424.00,3.9348
1423.00,3.9254
1422.00,3.8636
1421.00,3.7892
1420.00,3.7272
1419.00,3.6723
1418.00,3.6112
1417.00,3.5452
1416.00,3.4843
1415.00,3.4361
1414.00,3.4051
1413.00,3.3886
1412.00,3.3749
1411.00,3.3551
1410.00,3.3334
1409.00,3.3213
1408.00,3.3240
1407.00,3.3383
1406.00,3.3588
1405.00,3.3834
1404.00,3.4088
1403.00,3.4279
1402.00,3.4364
1401.00,3.4390
1400.00,3.4424
1399.00,3.4456
1398.00,3.4455
1397.00,3.4465
1396.00,3.4558
1395.00,3.4729
1394.00,3.4889
1393.00,3.4965
1392.00,3.4942
1391.00,3.4841
1390.00,3.4714
1389.00,3.4622
1388.00,3.4589
1387.00,3.4600
1386.00,3.4629
1385.00,3.4678
1384.00,3.4754
1383.00,3.4837
1382.00,3.4917
1381.00,3.4990
1380.00,3.5034
1379.00,3.5007
1378.00,3.4895
1377.00,3.4725
1376.00,3.4539
1375.00,3.4375
1374.00,3.4272
1373.00,3.4256
1372.00,3.4299
1371.00,3.4308
1370.00,3.4221
1369.00,3.4069
1368.00,3.3920
1367.00,3.3795
1366.00,3.3656
1365.00,3.3470
1364.00,3.3241
1363.00,3.2982
1362.00,3.2693
1361.00,3.2387
1360.00,3.2086
1359.00,3.1801
1358.00,3.1544
1357.00,3.1335
1356.00,3.1208
1355.00,3.1217
1354.00,3.1436
1353.00,3.1938
1352.00,3.2751
1351.00,3.3819
1350.00,3.4983
1349.00,3.5998
1348.00,3.6620
1347.00,3.6796
1346.00,3.6697
1345.00,3.6534
1344.00,3.6441
1343.00,3.6476
1342.00,3.6659
1341.00,3.6971
1340.00,3.7330
1339.00,3.7535
1338.00,3.7333
1337.00,3.6653
1336.00,3.5706
1335.00,3.4727
1334.00,3.3820
1333.00,3.3006
1332.00,3.2294
1331.00,3.1711
1330.00,3.1295
1329.00,3.1070
1328.00,3.1017
1327.00,3.1105
1326.00,3.1326
1325.00,3.1713
1324.00,3.2299
1323.00,3.3082
1322.00,3.4003
1321.00,3.4990
1320.00,3.6040
1319.00,3.7251
1318.00,3.8730
1317.00,4.0363
1316.00,4.1645
1315.00,4.2121
1314.00,4.2008
1313.00,4.1899
1312.00,4.2171
1311.00,4.2783
1310.00,4.3211
1309.00,4.2772
1308.00,4.1481
1307.00,3.9811
1306.00,3.8115
1305.00,3.6588
1304.00,3.5300
1303.00,3.4231
1302.00,3.3312
1301.00,3.2493
1300.00,3.1785
1299.00,3.1223
1298.00,3.0833
1297.00,3.0611
1296.00,3.0550
1295.00,3.0649
1294.00,3.0908
1293.00,3.1300
1292.00,3.1780
1291.00,3.2305
1290.00,3.2822
1289.00,3.3255
1288.00,3.3540
1287.00,3.3703
1286.00,3.3875
1285.00,3.4166
1284.00,3.4566
1283.00,3.4961
1282.00,3.5257
1281.00,3.5443
1280.00,3.5546
1279.00,3.5617
1278.00,3.5723
1277.00,3.5912
1276.00,3.6156
1275.00,3.6347
1274.00,3.6420
1273.00,3.6491
1272.00,3.6725
1271.00,3.7128
1270.00,3.7468
1269.00,3.7463
1268.00,3.7175
1267.00,3.6918
1266.00,3.6937
1265.00,3.7291
1264.00,3.7811
1263.00,3.8149
1262.00,3.8042
1261.00,3.7621
1260.00,3.7264
1259.00,3.7231
1258.00,3.7544
1257.00,3.8065
1256.00,3.8656
1255.00,3.9224
1254.00,3.9508
1253.00,3.9110
1252.00,3.8198
1251.00,3.7364
1250.00,3.6913
1249.00,3.6829
1248.00,3.6990
1247.00,3.7308
1246.00,3.7695
1245.00,3.7974
1244.00,3.7946
1243.00,3.7646
1242.00,3.7315
1241.00,3.7100
1240.00,3.7002
1239.00,3.6982
1238.00,3.7032
1237.00,3.7153
1236.00,3.7314
1235.00,3.7481
1234.00,3.7656
1233.00,3.7908
1232.00,3.8364
1231.00,3.9124
1230.00,4.0090
1229.00,4.0887
1228.00,4.1349
1227.00,4.1774
1226.00,4.2199
1225.00,4.2658
1224.00,4.3631
1223.00,4.4874
1222.00,4.5095
1221.00,4.4238
1220.00,4.3690
1219.00,4.4095
1218.00,4.5841
1217.00,4.7018
1216.00,4.2705
1215.00,4.0127
1214.00,3.9099
1213.00,3.9081
1212.00,3.9488
1211.00,3.9744
1210.00,3.9861
1209.00,4.0025
1208.00,4.0446
1207.00,4.1178
1206.00,4.1720
1205.00,4.1537
1204.00,4.0663
1203.00,3.9513
1202.00,3.8526
1201.00,3.7850
1200.00,3.7386
1199.00,3.6949
1198.00,3.6478
1197.00,3.6112
1196.00,3.5971
1195.00,3.5956
1194.00,3.5790
1193.00,3.5342
1192.00,3.4789
1191.00,3.4350
1190.00,3.4052
1189.00,3.3789
1188.00,3.3516
1187.00,3.3286
1186.00,3.3146
1185.00,3.3085
1184.00,3.3087
1183.00,3.3151
1182.00,3.3235
1181.00,3.3246
1180.00,3.3149
1179.00,3.3030
1178.00,3.2992
1177.00,3.3059
1176.00,3.3216
1175.00,3.3465
1174.00,3.3793
1173.00,3.4122
1172.00,3.4379
1171.00,3.4605
1170.00,3.4875
1169.00,3.5140
1168.00,3.5297
1167.00,3.5349
1166.00,3.5349
1165.00,3.5289
1164.00,3.5171
1163.00,3.5123
1162.00,3.5317
1161.00,3.5739
1160.00,3.6122
1159.00,3.6253
1158.00,3.6287
1157.00,3.6514
1156.00,3.7040
1155.00,3.7813
1154.00,3.8625
1153.00,3.8802
1152.00,3.8052
1151.00,3.7333
1150.00,3.7195
1149.00,3.7606
1148.00,3.8252
1147.00,3.8907
1146.00,3.9872
1145.00,4.1943
1144.00,4.5379
1143.00,4.3670
1142.00,4.2482
1141.00,4.2015
1140.00,4.0761
1139.00,3.9527
1138.00,3.8944
1137.00,3.9034
1136.00,3.9621
1135.00,4.0619
1134.00,4.2125
1133.00,4.4204
1132.00,4.5738
1131.00,4.4224
1130.00,4.1584
1129.00,3.9783
1128.00,3.8939
1127.00,3.8764
1126.00,3.9001
1125.00,3.9386
1124.00,3.9579
1123.00,3.9651
1122.00,3.9967
1121.00,4.0549
1120.00,4.1057
1119.00,4.1199
1118.00,4.1215
1117.00,4.1670
1116.00,4.2697
1115.00,4.2482
1114.00,4.0572
1113.00,3.9233
1112.00,3.8766
1111.00,3.8910
1110.00,3.9309
1109.00,3.9870
1108.00,4.0635
1107.00,4.0958
1106.00,4.0199
1105.00,3.9481
1104.00,3.9635
1103.00,4.0842
1102.00,4.2925
1101.00,4.4536
1100.00,4.3842
1099.00,4.2113
1098.00,4.1094
1097.00,4.1297
1096.00,4.2653
1095.00,4.3978
1094.00,4.3019
1093.00,4.1604
1092.00,4.0693
1091.00,4.0180
1090.00,3.9997
1089.00,4.0118
1088.00,4.0453
1087.00,4.0923
1086.00,4.1469
1085.00,4.1900
1084.00,4.1973
1083.00,4.1854
1082.00,4.2084
1081.00,4.2948
1080.00,4.4111
1079.00,4.4600
1078.00,4.4064
1077.00,4.3087
1076.00,4.1679
1075.00,3.9724
1074.00,3.7842
1073.00,3.6683
1072.00,3.6428
1071.00,3.6771
1070.00,3.7033
1069.00,3.7023
1068.00,3.6948
1067.00,3.6680
1066.00,3.6256
1065.00,3.6007
1064.00,3.6105
1063.00,3.6420
1062.00,3.6748
1061.00,3.7139
1060.00,3.7716
1059.00,3.8648
1058.00,4.0126
1057.00,4.1932
1056.00,4.3272
1055.00,4.3460
1054.00,4.3206
1053.00,4.3906
1052.00,4.4474
1051.00,4.1645
1050.00,3.9599
1049.00,3.8313
1048.00,3.7197
1047.00,3.6132
1046.00,3.5336
1045.00,3.4959
1044.00,3.4959
1043.00,3.5138
1042.00,3.5224
1041.00,3.5025
1040.00,3.4587
1039.00,3.4190
1038.00,3.4124
1037.00,3.4522
1036.00,3.5284
1035.00,3.6070
1034.00,3.6570
1033.00,3.6905
1032.00,3.7417
1031.00,3.8288
1030.00,3.9345
1029.00,3.9687
1028.00,3.9113
1027.00,3.8948
1026.00,3.9701
1025.00,4.1359
1024.00,4.4421
1023.00,4.7520
1022.00,4.4176
1021.00,4.4046
1020.00,4.8315
1019.00,4.4489
1018.00,4.1928
1017.00,4.2093
1016.00,4.6639
1015.00,4.5477
1014.00,4.1467
1013.00,4.0813
1012.00,4.1624
1011.00,4.2680
1010.00,4.2727
1009.00,4.2022
1008.00,4.1453
1007.00,4.1216
1006.00,4.1064
1005.00,4.0703
1004.00,4.0261
1003.00,4.0144
1002.00,4.0797
1001.00,4.2793
1000.00,4.5956
999.00,4.4043
998.00,4.3132
997.00,4.3971
996.00,4.3949
995.00,4.2424
994.00,4.1612
993.00,4.1826
992.00,4.2231
991.00,4.2064
990.00,4.1396
989.00,4.0553
988.00,4.0533
987.00,4.1642
986.00,4.2900
985.00,4.2394
984.00,4.1526
983.00,4.1203
982.00,4.1744
981.00,4.3312
980.00,4.5134
979.00,4.5026
978.00,4.3357
977.00,4.1953
976.00,4.0996
975.00,4.0456
974.00,4.0399
973.00,4.0752
972.00,4.1230
971.00,4.1733
970.00,4.2828
969.00,4.4918
968.00,4.5871
967.00,4.3490
966.00,4.1103
965.00,4.0435
964.00,4.1391
963.00,4.3199
962.00,4.4076
961.00,4.3219
960.00,4.2548
959.00,4.3183
958.00,4.3632
957.00,4.2513
956.00,4.2016
955.00,4.2395
954.00,4.2675
953.00,4.1705
952.00,4.0470
951.00,4.0095
950.00,4.0812
949.00,4.2277
948.00,4.3327
947.00,4.3350
946.00,4.3393
945.00,4.3361
944.00,4.1680
943.00,3.9828
942.00,3.8604
941.00,3.7992
940.00,3.7956
939.00,3.8412
938.00,3.9238
937.00,4.0294
936.00,4.1317
935.00,4.1905
934.00,4.1859
933.00,4.1588
932.00,4.2038
931.00,4.3485
930.00,4.3998
929.00,4.3338
928.00,4.3166
927.00,4.2873
926.00,4.2087
925.00,4.1500
924.00,4.0597
923.00,3.9751
922.00,3.9872
921.00,4.1738
920.00,4.7500
919.00,4.2832
918.00,4.0045
917.00,3.9087
916.00,3.8536
915.00,3.8342
914.00,3.9015
913.00,4.1000
912.00,4.3615
911.00,4.4653
910.00,4.6629
909.00,4.8817
908.00,4.9209
907.00,4.9552
906.00,4.5893
905.00,4.4158
904.00,4.2920
903.00,4.1414
902.00,4.0114
901.00,3.9338
900.00,3.9058
899.00,3.9072
898.00,3.9234
897.00,3.9513
896.00,3.9890
895.00,4.0418
894.00,4.1219
893.00,4.2338
892.00,4.3983
891.00,4.6346
890.00,4.8492
889.00,4.9976
888.00,4.8097
887.00,4.6426
886.00,4.5512
885.00,4.3208
884.00,4.0828
883.00,3.9285
882.00,3.8992
881.00,4.0277
880.00,4.3548
879.00,4.8943
878.00,4.7866
877.00,4.2252
876.00,3.9891
875.00,3.9061
874.00,3.9031
873.00,3.9334
872.00,3.9311
871.00,3.9169
870.00,3.9917
869.00,4.2727
868.00,4.6657
867.00,4.3064
866.00,4.1002
865.00,4.0469
864.00,4.1263
863.00,4.1968
862.00,4.2088
861.00,4.3513
860.00,4.5596
859.00,4.5545
858.00,4.4439
857.00,4.3535
856.00,4.3236
855.00,4.2618
854.00,4.1169
853.00,4.0167
852.00,4.0004
851.00,4.0677
850.00,4.2244
849.00,4.4528
848.00,4.5388
847.00,4.3998
846.00,4.3318
845.00,4.3189
844.00,4.2584
843.00,4.1781
842.00,4.1230
841.00,4.1262
840.00,4.2047
839.00,4.3674
838.00,4.5356
837.00,4.3233
836.00,4.1255
835.00,4.0925
834.00,4.1796
833.00,4.3582
832.00,4.3605
831.00,4.1205
830.00,4.0120
829.00,4.0136
828.00,4.0087
827.00,3.9891
826.00,3.9719
825.00,3.9306
824.00,3.9022
823.00,3.9406
822.00,4.1370
821.00,4.7073
820.00,4.9305
819.00,4.5796
818.00,4.6025
817.00,4.7935
816.00,4.9902
815.00,4.8633
814.00,4.7341
813.00,4.9334
812.00,4.7938
811.00,4.4849
810.00,4.4074
809.00,4.3808
808.00,4.3143
807.00,4.2689
806.00,4.3458
805.00,4.5450
804.00,4.4326
803.00,4.2806
802.00,4.2394
801.00,4.1636
800.00,4.1067
799.00,4.1776
798.00,4.2929
797.00,4.1364
796.00,4.0285
795.00,4.1095
794.00,4.3076
793.00,4.3878
792.00,4.2603
791.00,4.0911
790.00,3.8949
789.00,3.7810
788.00,3.8065
787.00,3.9685
786.00,4.1921
785.00,4.4189
784.00,4.5109
783.00,4.5571
782.00,4.9451
781.00,4.3995
780.00,4.0962
779.00,3.9896
778.00,3.9854
777.00,4.0595
776.00,4.1757
775.00,4.3761
774.00,4.4861
773.00,4.2843
772.00,4.0209
771.00,3.8279
770.00,3.7236
769.00,3.6990
768.00,3.7366
767.00,3.8100
766.00,3.9006
765.00,3.9955
764.00,4.0744
763.00,4.1501
762.00,4.2699
761.00,4.3462
760.00,4.1898
759.00,3.9905
758.00,3.8624
757.00,3.8147
756.00,3.8304
755.00,3.8533
754.00,3.8299
753.00,3.8037
752.00,3.8646
751.00,4.0541
750.00,4.4616
749.00,4.9659
748.00,4.4580
747.00,4.2210
746.00,4.1568
745.00,4.1669
744.00,4.1456
743.00,4.0646
742.00,3.9881
741.00,3.8897
740.00,3.7835
739.00,3.7111
738.00,3.7022
737.00,3.7671
736.00,3.8808
735.00,3.9828
734.00,4.0318
733.00,3.9983
732.00,3.9519
731.00,3.9734
730.00,4.1754
729.00,4.7277
728.00,4.5548
727.00,4.2403
726.00,4.1900
725.00,4.3727
724.00,4.5010
723.00,4.3798
722.00,4.2614
721.00,4.0650
720.00,3.9950
719.00,4.0009
718.00,3.9407
717.00,3.8452
716.00,3.7771
715.00,3.7664
714.00,3.8388
713.00,4.0124
712.00,4.0878
711.00,3.9215
710.00,3.7835
709.00,3.7254
708.00,3.7693
707.00,3.9417
706.00,4.2406
705.00,4.5198
704.00,4.4030
703.00,4.1785
702.00,4.2951
701.00,4.6406
700.00,4.2327
