Created as New Dataset,Sample 092 By Administrator Date Wednesday, November 24 2021
cm-1,A
7502.00,1.1441
7501.00,1.1343
7500.00,1.1247
7499.00,1.1154
7498.00,1.1062
7497.00,1.0972
7496.00,1.0885
7495.00,1.0798
7494.00,1.0714
7493.00,1.0640
7492.00,1.0592
7491.00,1.0574
7490.00,1.0572
7489.00,1.0564
7488.00,1.0532
7487.00,1.0471
7486.00,1.0383
7485.00,1.0272
7484.00,1.0145
7483.00,1.0014
7482.00,0.9889
7481.00,0.9783
7480.00,0.9701
7479.00,0.9640
7478.00,0.9591
7477.00,0.9543
7476.00,0.9495
7475.00,0.9452
7474.00,0.9415
7473.00,0.9381
7472.00,0.9344
7471.00,0.9300
7470.00,0.9243
7469.00,0.9173
7468.00,0.9096
7467.00,0.9018
7466.00,0.8944
7465.00,0.8869
7464.00,0.8791
7463.00,0.8712
7462.00,0.8633
7461.00,0.8555
7460.00,0.8475
7459.00,0.8390
7458.00,0.8301
7457.00,0.8215
7456.00,0.8137
7455.00,0.8070
7454.00,0.8013
7453.00,0.7960
7452.00,0.7910
7451.00,0.7864
7450.00,0.7823
7449.00,0.7788
7448.00,0.7757
7447.00,0.7730
7446.00,0.7705
7445.00,0.7682
7444.00,0.7658
7443.00,0.7637
7442.00,0.7623
7441.00,0.7617
7440.00,0.7619
7439.00,0.7627
7438.00,0.7641
7437.00,0.7663
7436.00,0.7692
7435.00,0.7728
7434.00,0.7766
7433.00,0.7803
7432.00,0.7840
7431.00,0.7883
7430.00,0.7937
7429.00,0.8001
7428.00,0.8070
7427.00,0.8142
7426.00,0.8216
7425.00,0.8296
7424.00,0.8379
7423.00,0.8461
7422.00,0.8538
7421.00,0.8610
7420.00,0.8681
7419.00,0.8758
7418.00,0.8841
7417.00,0.8928
7416.00,0.9016
7415.00,0.9107
7414.00,0.9202
7413.00,0.9301
7412.00,0.9402
7411.00,0.9503
7410.00,0.9605
7409.00,0.9705
7408.00,0.9802
7407.00,0.9898
7406.00,0.9995
7405.00,1.0096
7404.00,1.0193
7403.00,1.0280
7402.00,1.0358
7401.00,1.0434
7400.00,1.0514
7399.00,1.0596
7398.00,1.0678
7397.00,1.0754
7396.00,1.0828
7395.00,1.0903
7394.00,1.0980
7393.00,1.1056
7392.00,1.1126
7391.00,1.1188
7390.00,1.1245
7389.00,1.1302
7388.00,1.1357
7387.00,1.1407
7386.00,1.1454
7385.00,1.1501
7384.00,1.1548
7383.00,1.1594
7382.00,1.1638
7381.00,1.1681
7380.00,1.1725
7379.00,1.1767
7378.00,1.1804
7377.00,1.1831
7376.00,1.1848
7375.00,1.1854
7374.00,1.1852
7373.00,1.1850
7372.00,1.1850
7371.00,1.1847
7370.00,1.1837
7369.00,1.1821
7368.00,1.1808
7367.00,1.1802
7366.00,1.1794
7365.00,1.1777
7364.00,1.1750
7363.00,1.1723
7362.00,1.1695
7361.00,1.1660
7360.00,1.1614
7359.00,1.1563
7358.00,1.1511
7357.00,1.1456
7356.00,1.1398
7355.00,1.1342
7354.00,1.1292
7353.00,1.1245
7352.00,1.1188
7351.00,1.1115
7350.00,1.1034
7349.00,1.0953
7348.00,1.0871
7347.00,1.0783
7346.00,1.0687
7345.00,1.0588
7344.00,1.0493
7343.00,1.0399
7342.00,1.0304
7341.00,1.0205
7340.00,1.0101
7339.00,0.9997
7338.00,0.9894
7337.00,0.9791
7336.00,0.9687
7335.00,0.9580
7334.00,0.9474
7333.00,0.9370
7332.00,0.9267
7331.00,0.9166
7330.00,0.9069
7329.00,0.8978
7328.00,0.8889
7327.00,0.8800
7326.00,0.8709
7325.00,0.8622
7324.00,0.8541
7323.00,0.8465
7322.00,0.8387
7321.00,0.8310
7320.00,0.8236
7319.00,0.8173
7318.00,0.8118
7317.00,0.8067
7316.00,0.8018
7315.00,0.7971
7314.00,0.7930
7313.00,0.7896
7312.00,0.7869
7311.00,0.7847
7310.00,0.7827
7309.00,0.7812
7308.00,0.7803
7307.00,0.7800
7306.00,0.7807
7305.00,0.7820
7304.00,0.7837
7303.00,0.7857
7302.00,0.7880
7301.00,0.7909
7300.00,0.7944
7299.00,0.7985
7298.00,0.8032
7297.00,0.8087
7296.00,0.8149
7295.00,0.8214
7294.00,0.8280
7293.00,0.8347
7292.00,0.8417
7291.00,0.8489
7290.00,0.8560
7289.00,0.8628
7288.00,0.8697
7287.00,0.8772
7286.00,0.8854
7285.00,0.8941
7284.00,0.9030
7283.00,0.9122
7282.00,0.9215
7281.00,0.9308
7280.00,0.9401
7279.00,0.9495
7278.00,0.9590
7277.00,0.9683
7276.00,0.9772
7275.00,0.9857
7274.00,0.9944
7273.00,1.0032
7272.00,1.0116
7271.00,1.0195
7270.00,1.0272
7269.00,1.0349
7268.00,1.0424
7267.00,1.0496
7266.00,1.0567
7265.00,1.0643
7264.00,1.0723
7263.00,1.0801
7262.00,1.0874
7261.00,1.0945
7260.00,1.1015
7259.00,1.1085
7258.00,1.1149
7257.00,1.1207
7256.00,1.1258
7255.00,1.1301
7254.00,1.1337
7253.00,1.1367
7252.00,1.1393
7251.00,1.1415
7250.00,1.1435
7249.00,1.1453
7248.00,1.1471
7247.00,1.1491
7246.00,1.1512
7245.00,1.1533
7244.00,1.1553
7243.00,1.1569
7242.00,1.1584
7241.00,1.1599
7240.00,1.1611
7239.00,1.1614
7238.00,1.1605
7237.00,1.1589
7236.00,1.1571
7235.00,1.1551
7234.00,1.1527
7233.00,1.1497
7232.00,1.1463
7231.00,1.1427
7230.00,1.1392
7229.00,1.1361
7228.00,1.1333
7227.00,1.1304
7226.00,1.1268
7225.00,1.1222
7224.00,1.1172
7223.00,1.1122
7222.00,1.1072
7221.00,1.1019
7220.00,1.0959
7219.00,1.0893
7218.00,1.0825
7217.00,1.0757
7216.00,1.0686
7215.00,1.0609
7214.00,1.0526
7213.00,1.0439
7212.00,1.0350
7211.00,1.0263
7210.00,1.0176
7209.00,1.0086
7208.00,0.9993
7207.00,0.9894
7206.00,0.9796
7205.00,0.9700
7204.00,0.9607
7203.00,0.9515
7202.00,0.9421
7201.00,0.9326
7200.00,0.9233
7199.00,0.9139
7198.00,0.9043
7197.00,0.8946
7196.00,0.8850
7195.00,0.8758
7194.00,0.8669
7193.00,0.8581
7192.00,0.8494
7191.00,0.8411
7190.00,0.8333
7189.00,0.8261
7188.00,0.8195
7187.00,0.8133
7186.00,0.8075
7185.00,0.8021
7184.00,0.7970
7183.00,0.7925
7182.00,0.7886
7181.00,0.7852
7180.00,0.7822
7179.00,0.7796
7178.00,0.7775
7177.00,0.7760
7176.00,0.7750
7175.00,0.7745
7174.00,0.7745
7173.00,0.7753
7172.00,0.7769
7171.00,0.7792
7170.00,0.7822
7169.00,0.7855
7168.00,0.7892
7167.00,0.7933
7166.00,0.7980
7165.00,0.8032
7164.00,0.8090
7163.00,0.8152
7162.00,0.8218
7161.00,0.8287
7160.00,0.8361
7159.00,0.8437
7158.00,0.8517
7157.00,0.8599
7156.00,0.8683
7155.00,0.8768
7154.00,0.8856
7153.00,0.8947
7152.00,0.9041
7151.00,0.9135
7150.00,0.9228
7149.00,0.9320
7148.00,0.9414
7147.00,0.9511
7146.00,0.9611
7145.00,0.9710
7144.00,0.9806
7143.00,0.9900
7142.00,0.9996
7141.00,1.0093
7140.00,1.0189
7139.00,1.0281
7138.00,1.0373
7137.00,1.0462
7136.00,1.0550
7135.00,1.0634
7134.00,1.0718
7133.00,1.0803
7132.00,1.0890
7131.00,1.0976
7130.00,1.1056
7129.00,1.1132
7128.00,1.1206
7127.00,1.1280
7126.00,1.1351
7125.00,1.1417
7124.00,1.1478
7123.00,1.1537
7122.00,1.1596
7121.00,1.1654
7120.00,1.1704
7119.00,1.1743
7118.00,1.1776
7117.00,1.1808
7116.00,1.1846
7115.00,1.1888
7114.00,1.1930
7113.00,1.1964
7112.00,1.1985
7111.00,1.1997
7110.00,1.2004
7109.00,1.2011
7108.00,1.2014
7107.00,1.2009
7106.00,1.2003
7105.00,1.2001
7104.00,1.2004
7103.00,1.2007
7102.00,1.2005
7101.00,1.1997
7100.00,1.1984
7099.00,1.1966
7098.00,1.1941
7097.00,1.1907
7096.00,1.1864
7095.00,1.1813
7094.00,1.1755
7093.00,1.1696
7092.00,1.1640
7091.00,1.1588
7090.00,1.1536
7089.00,1.1482
7088.00,1.1420
7087.00,1.1350
7086.00,1.1274
7085.00,1.1192
7084.00,1.1107
7083.00,1.1018
7082.00,1.0926
7081.00,1.0833
7080.00,1.0742
7079.00,1.0652
7078.00,1.0563
7077.00,1.0471
7076.00,1.0374
7075.00,1.0272
7074.00,1.0166
7073.00,1.0057
7072.00,0.9948
7071.00,0.9838
7070.00,0.9727
7069.00,0.9617
7068.00,0.9509
7067.00,0.9404
7066.00,0.9303
7065.00,0.9204
7064.00,0.9105
7063.00,0.9006
7062.00,0.8908
7061.00,0.8810
7060.00,0.8714
7059.00,0.8621
7058.00,0.8531
7057.00,0.8444
7056.00,0.8362
7055.00,0.8286
7054.00,0.8216
7053.00,0.8152
7052.00,0.8093
7051.00,0.8040
7050.00,0.7993
7049.00,0.7951
7048.00,0.7914
7047.00,0.7879
7046.00,0.7848
7045.00,0.7824
7044.00,0.7806
7043.00,0.7794
7042.00,0.7791
7041.00,0.7796
7040.00,0.7809
7039.00,0.7830
7038.00,0.7855
7037.00,0.7884
7036.00,0.7915
7035.00,0.7950
7034.00,0.7991
7033.00,0.8037
7032.00,0.8090
7031.00,0.8147
7030.00,0.8210
7029.00,0.8278
7028.00,0.8352
7027.00,0.8429
7026.00,0.8508
7025.00,0.8588
7024.00,0.8668
7023.00,0.8749
7022.00,0.8833
7021.00,0.8924
7020.00,0.9019
7019.00,0.9115
7018.00,0.9208
7017.00,0.9301
7016.00,0.9398
7015.00,0.9498
7014.00,0.9597
7013.00,0.9693
7012.00,0.9787
7011.00,0.9880
7010.00,0.9975
7009.00,1.0070
7008.00,1.0165
7007.00,1.0256
7006.00,1.0345
7005.00,1.0437
7004.00,1.0532
7003.00,1.0628
7002.00,1.0718
7001.00,1.0801
7000.00,1.0880
6999.00,1.0957
6998.00,1.1033
6997.00,1.1106
6996.00,1.1179
6995.00,1.1253
6994.00,1.1326
6993.00,1.1397
6992.00,1.1465
6991.00,1.1528
6990.00,1.1583
6989.00,1.1630
6988.00,1.1671
6987.00,1.1706
6986.00,1.1737
6985.00,1.1764
6984.00,1.1790
6983.00,1.1818
6982.00,1.1848
6981.00,1.1879
6980.00,1.1906
6979.00,1.1928
6978.00,1.1944
6977.00,1.1956
6976.00,1.1964
6975.00,1.1970
6974.00,1.1973
6973.00,1.1970
6972.00,1.1962
6971.00,1.1950
6970.00,1.1936
6969.00,1.1917
6968.00,1.1891
6967.00,1.1856
6966.00,1.1817
6965.00,1.1780
6964.00,1.1748
6963.00,1.1718
6962.00,1.1682
6961.00,1.1635
6960.00,1.1582
6959.00,1.1527
6958.00,1.1470
6957.00,1.1407
6956.00,1.1337
6955.00,1.1267
6954.00,1.1198
6953.00,1.1128
6952.00,1.1051
6951.00,1.0966
6950.00,1.0878
6949.00,1.0788
6948.00,1.0694
6947.00,1.0599
6946.00,1.0504
6945.00,1.0411
6944.00,1.0318
6943.00,1.0223
6942.00,1.0123
6941.00,1.0020
6940.00,0.9914
6939.00,0.9806
6938.00,0.9697
6937.00,0.9590
6936.00,0.9481
6935.00,0.9374
6934.00,0.9270
6933.00,0.9170
6932.00,0.9072
6931.00,0.8971
6930.00,0.8870
6929.00,0.8771
6928.00,0.8678
6927.00,0.8589
6926.00,0.8501
6925.00,0.8416
6924.00,0.8333
6923.00,0.8255
6922.00,0.8182
6921.00,0.8115
6920.00,0.8052
6919.00,0.7993
6918.00,0.7941
6917.00,0.7896
6916.00,0.7856
6915.00,0.7819
6914.00,0.7787
6913.00,0.7761
6912.00,0.7743
6911.00,0.7732
6910.00,0.7724
6909.00,0.7721
6908.00,0.7724
6907.00,0.7735
6906.00,0.7752
6905.00,0.7774
6904.00,0.7803
6903.00,0.7838
6902.00,0.7880
6901.00,0.7930
6900.00,0.7985
6899.00,0.8042
6898.00,0.8102
6897.00,0.8166
6896.00,0.8236
6895.00,0.8314
6894.00,0.8396
6893.00,0.8482
6892.00,0.8570
6891.00,0.8660
6890.00,0.8751
6889.00,0.8843
6888.00,0.8936
6887.00,0.9028
6886.00,0.9120
6885.00,0.9214
6884.00,0.9314
6883.00,0.9419
6882.00,0.9526
6881.00,0.9631
6880.00,0.9732
6879.00,0.9832
6878.00,0.9932
6877.00,1.0030
6876.00,1.0125
6875.00,1.0220
6874.00,1.0316
6873.00,1.0416
6872.00,1.0515
6871.00,1.0611
6870.00,1.0704
6869.00,1.0793
6868.00,1.0882
6867.00,1.0969
6866.00,1.1054
6865.00,1.1137
6864.00,1.1217
6863.00,1.1297
6862.00,1.1375
6861.00,1.1447
6860.00,1.1512
6859.00,1.1573
6858.00,1.1633
6857.00,1.1691
6856.00,1.1746
6855.00,1.1797
6854.00,1.1849
6853.00,1.1906
6852.00,1.1964
6851.00,1.2016
6850.00,1.2056
6849.00,1.2085
6848.00,1.2108
6847.00,1.2127
6846.00,1.2142
6845.00,1.2153
6844.00,1.2161
6843.00,1.2167
6842.00,1.2173
6841.00,1.2177
6840.00,1.2178
6839.00,1.2173
6838.00,1.2163
6837.00,1.2151
6836.00,1.2136
6835.00,1.2119
6834.00,1.2098
6833.00,1.2072
6832.00,1.2040
6831.00,1.2002
6830.00,1.1963
6829.00,1.1923
6828.00,1.1878
6827.00,1.1824
6826.00,1.1762
6825.00,1.1696
6824.00,1.1627
6823.00,1.1555
6822.00,1.1480
6821.00,1.1403
6820.00,1.1323
6819.00,1.1242
6818.00,1.1160
6817.00,1.1078
6816.00,1.0995
6815.00,1.0907
6814.00,1.0811
6813.00,1.0708
6812.00,1.0601
6811.00,1.0494
6810.00,1.0387
6809.00,1.0280
6808.00,1.0172
6807.00,1.0064
6806.00,0.9954
6805.00,0.9842
6804.00,0.9728
6803.00,0.9611
6802.00,0.9496
6801.00,0.9383
6800.00,0.9274
6799.00,0.9167
6798.00,0.9061
6797.00,0.8956
6796.00,0.8853
6795.00,0.8751
6794.00,0.8654
6793.00,0.8562
6792.00,0.8476
6791.00,0.8392
6790.00,0.8311
6789.00,0.8232
6788.00,0.8158
6787.00,0.8090
6786.00,0.8028
6785.00,0.7971
6784.00,0.7922
6783.00,0.7880
6782.00,0.7846
6781.00,0.7816
6780.00,0.7789
6779.00,0.7766
6778.00,0.7750
6777.00,0.7741
6776.00,0.7739
6775.00,0.7744
6774.00,0.7757
6773.00,0.7777
6772.00,0.7804
6771.00,0.7837
6770.00,0.7876
6769.00,0.7921
6768.00,0.7972
6767.00,0.8027
6766.00,0.8086
6765.00,0.8151
6764.00,0.8220
6763.00,0.8293
6762.00,0.8370
6761.00,0.8451
6760.00,0.8536
6759.00,0.8623
6758.00,0.8713
6757.00,0.8805
6756.00,0.8900
6755.00,0.8997
6754.00,0.9095
6753.00,0.9195
6752.00,0.9294
6751.00,0.9395
6750.00,0.9498
6749.00,0.9600
6748.00,0.9701
6747.00,0.9801
6746.00,0.9901
6745.00,1.0002
6744.00,1.0104
6743.00,1.0206
6742.00,1.0307
6741.00,1.0404
6740.00,1.0497
6739.00,1.0589
6738.00,1.0682
6737.00,1.0774
6736.00,1.0863
6735.00,1.0948
6734.00,1.1032
6733.00,1.1117
6732.00,1.1198
6731.00,1.1275
6730.00,1.1346
6729.00,1.1413
6728.00,1.1479
6727.00,1.1544
6726.00,1.1607
6725.00,1.1669
6724.00,1.1726
6723.00,1.1776
6722.00,1.1822
6721.00,1.1865
6720.00,1.1902
6719.00,1.1937
6718.00,1.1973
6717.00,1.2009
6716.00,1.2043
6715.00,1.2070
6714.00,1.2090
6713.00,1.2105
6712.00,1.2115
6711.00,1.2119
6710.00,1.2119
6709.00,1.2117
6708.00,1.2112
6707.00,1.2105
6706.00,1.2093
6705.00,1.2076
6704.00,1.2054
6703.00,1.2031
6702.00,1.2006
6701.00,1.1979
6700.00,1.1946
6699.00,1.1906
6698.00,1.1863
6697.00,1.1814
6696.00,1.1760
6695.00,1.1700
6694.00,1.1639
6693.00,1.1578
6692.00,1.1516
6691.00,1.1451
6690.00,1.1382
6689.00,1.1309
6688.00,1.1233
6687.00,1.1154
6686.00,1.1071
6685.00,1.0985
6684.00,1.0898
6683.00,1.0809
6682.00,1.0718
6681.00,1.0623
6680.00,1.0524
6679.00,1.0422
6678.00,1.0319
6677.00,1.0215
6676.00,1.0110
6675.00,1.0002
6674.00,0.9893
6673.00,0.9785
6672.00,0.9679
6671.00,0.9571
6670.00,0.9461
6669.00,0.9351
6668.00,0.9243
6667.00,0.9135
6666.00,0.9028
6665.00,0.8921
6664.00,0.8816
6663.00,0.8715
6662.00,0.8617
6661.00,0.8523
6660.00,0.8432
6659.00,0.8346
6658.00,0.8264
6657.00,0.8186
6656.00,0.8111
6655.00,0.8042
6654.00,0.7978
6653.00,0.7921
6652.00,0.7868
6651.00,0.7819
6650.00,0.7775
6649.00,0.7738
6648.00,0.7708
6647.00,0.7684
6646.00,0.7666
6645.00,0.7657
6644.00,0.7656
6643.00,0.7662
6642.00,0.7675
6641.00,0.7691
6640.00,0.7713
6639.00,0.7741
6638.00,0.7777
6637.00,0.7820
6636.00,0.7868
6635.00,0.7922
6634.00,0.7983
6633.00,0.8050
6632.00,0.8121
6631.00,0.8195
6630.00,0.8272
6629.00,0.8354
6628.00,0.8440
6627.00,0.8529
6626.00,0.8621
6625.00,0.8717
6624.00,0.8816
6623.00,0.8915
6622.00,0.9016
6621.00,0.9119
6620.00,0.9225
6619.00,0.9330
6618.00,0.9437
6617.00,0.9543
6616.00,0.9648
6615.00,0.9752
6614.00,0.9856
6613.00,0.9963
6612.00,1.0071
6611.00,1.0178
6610.00,1.0284
6609.00,1.0388
6608.00,1.0493
6607.00,1.0596
6606.00,1.0696
6605.00,1.0792
6604.00,1.0885
6603.00,1.0977
6602.00,1.1070
6601.00,1.1161
6600.00,1.1249
6599.00,1.1332
6598.00,1.1413
6597.00,1.1492
6596.00,1.1568
6595.00,1.1639
6594.00,1.1707
6593.00,1.1771
6592.00,1.1833
6591.00,1.1891
6590.00,1.1950
6589.00,1.2011
6588.00,1.2073
6587.00,1.2130
6586.00,1.2180
6585.00,1.2222
6584.00,1.2258
6583.00,1.2288
6582.00,1.2312
6581.00,1.2332
6580.00,1.2347
6579.00,1.2362
6578.00,1.2377
6577.00,1.2391
6576.00,1.2400
6575.00,1.2400
6574.00,1.2391
6573.00,1.2379
6572.00,1.2366
6571.00,1.2351
6570.00,1.2331
6569.00,1.2306
6568.00,1.2277
6567.00,1.2241
6566.00,1.2198
6565.00,1.2149
6564.00,1.2097
6563.00,1.2047
6562.00,1.1998
6561.00,1.1949
6560.00,1.1899
6559.00,1.1845
6558.00,1.1785
6557.00,1.1718
6556.00,1.1644
6555.00,1.1564
6554.00,1.1481
6553.00,1.1396
6552.00,1.1308
6551.00,1.1215
6550.00,1.1116
6549.00,1.1012
6548.00,1.0906
6547.00,1.0798
6546.00,1.0692
6545.00,1.0584
6544.00,1.0474
6543.00,1.0360
6542.00,1.0243
6541.00,1.0125
6540.00,1.0006
6539.00,0.9886
6538.00,0.9766
6537.00,0.9647
6536.00,0.9528
6535.00,0.9410
6534.00,0.9293
6533.00,0.9177
6532.00,0.9064
6531.00,0.8953
6530.00,0.8847
6529.00,0.8744
6528.00,0.8643
6527.00,0.8545
6526.00,0.8449
6525.00,0.8357
6524.00,0.8269
6523.00,0.8185
6522.00,0.8106
6521.00,0.8033
6520.00,0.7967
6519.00,0.7908
6518.00,0.7857
6517.00,0.7812
6516.00,0.7773
6515.00,0.7741
6514.00,0.7717
6513.00,0.7703
6512.00,0.7695
6511.00,0.7694
6510.00,0.7701
6509.00,0.7716
6508.00,0.7738
6507.00,0.7764
6506.00,0.7795
6505.00,0.7832
6504.00,0.7877
6503.00,0.7927
6502.00,0.7982
6501.00,0.8042
6500.00,0.8106
6499.00,0.8175
6498.00,0.8251
6497.00,0.8331
6496.00,0.8416
6495.00,0.8504
6494.00,0.8596
6493.00,0.8691
6492.00,0.8788
6491.00,0.8888
6490.00,0.8991
6489.00,0.9097
6488.00,0.9204
6487.00,0.9310
6486.00,0.9415
6485.00,0.9520
6484.00,0.9625
6483.00,0.9731
6482.00,0.9837
6481.00,0.9945
6480.00,1.0055
6479.00,1.0165
6478.00,1.0271
6477.00,1.0374
6476.00,1.0476
6475.00,1.0578
6474.00,1.0681
6473.00,1.0782
6472.00,1.0881
6471.00,1.0976
6470.00,1.1069
6469.00,1.1157
6468.00,1.1239
6467.00,1.1315
6466.00,1.1389
6465.00,1.1465
6464.00,1.1541
6463.00,1.1614
6462.00,1.1686
6461.00,1.1756
6460.00,1.1825
6459.00,1.1886
6458.00,1.1939
6457.00,1.1987
6456.00,1.2033
6455.00,1.2078
6454.00,1.2119
6453.00,1.2153
6452.00,1.2183
6451.00,1.2212
6450.00,1.2240
6449.00,1.2264
6448.00,1.2282
6447.00,1.2296
6446.00,1.2306
6445.00,1.2311
6444.00,1.2310
6443.00,1.2304
6442.00,1.2293
6441.00,1.2280
6440.00,1.2265
6439.00,1.2250
6438.00,1.2233
6437.00,1.2212
6436.00,1.2187
6435.00,1.2158
6434.00,1.2126
6433.00,1.2090
6432.00,1.2045
6431.00,1.1994
6430.00,1.1939
6429.00,1.1884
6428.00,1.1829
6427.00,1.1769
6426.00,1.1705
6425.00,1.1639
6424.00,1.1569
6423.00,1.1492
6422.00,1.1410
6421.00,1.1325
6420.00,1.1237
6419.00,1.1145
6418.00,1.1052
6417.00,1.0957
6416.00,1.0862
6415.00,1.0765
6414.00,1.0664
6413.00,1.0560
6412.00,1.0453
6411.00,1.0342
6410.00,1.0228
6409.00,1.0110
6408.00,0.9991
6407.00,0.9872
6406.00,0.9755
6405.00,0.9639
6404.00,0.9523
6403.00,0.9408
6402.00,0.9292
6401.00,0.9177
6400.00,0.9062
6399.00,0.8948
6398.00,0.8838
6397.00,0.8731
6396.00,0.8628
6395.00,0.8528
6394.00,0.8433
6393.00,0.8342
6392.00,0.8255
6391.00,0.8170
6390.00,0.8089
6389.00,0.8014
6388.00,0.7947
6387.00,0.7887
6386.00,0.7833
6385.00,0.7786
6384.00,0.7746
6383.00,0.7710
6382.00,0.7681
6381.00,0.7659
6380.00,0.7645
6379.00,0.7637
6378.00,0.7637
6377.00,0.7645
6376.00,0.7660
6375.00,0.7682
6374.00,0.7710
6373.00,0.7747
6372.00,0.7792
6371.00,0.7843
6370.00,0.7900
6369.00,0.7963
6368.00,0.8030
6367.00,0.8101
6366.00,0.8177
6365.00,0.8257
6364.00,0.8343
6363.00,0.8434
6362.00,0.8528
6361.00,0.8625
6360.00,0.8724
6359.00,0.8828
6358.00,0.8934
6357.00,0.9041
6356.00,0.9150
6355.00,0.9260
6354.00,0.9373
6353.00,0.9486
6352.00,0.9599
6351.00,0.9711
6350.00,0.9824
6349.00,0.9938
6348.00,1.0052
6347.00,1.0164
6346.00,1.0276
6345.00,1.0387
6344.00,1.0497
6343.00,1.0606
6342.00,1.0714
6341.00,1.0820
6340.00,1.0925
6339.00,1.1027
6338.00,1.1126
6337.00,1.1224
6336.00,1.1319
6335.00,1.1412
6334.00,1.1501
6333.00,1.1585
6332.00,1.1666
6331.00,1.1745
6330.00,1.1821
6329.00,1.1894
6328.00,1.1965
6327.00,1.2033
6326.00,1.2099
6325.00,1.2162
6324.00,1.2221
6323.00,1.2277
6322.00,1.2328
6321.00,1.2375
6320.00,1.2418
6319.00,1.2459
6318.00,1.2496
6317.00,1.2528
6316.00,1.2552
6315.00,1.2572
6314.00,1.2590
6313.00,1.2606
6312.00,1.2619
6311.00,1.2626
6310.00,1.2628
6309.00,1.2626
6308.00,1.2619
6307.00,1.2607
6306.00,1.2589
6305.00,1.2564
6304.00,1.2535
6303.00,1.2505
6302.00,1.2475
6301.00,1.2444
6300.00,1.2410
6299.00,1.2370
6298.00,1.2324
6297.00,1.2272
6296.00,1.2213
6295.00,1.2149
6294.00,1.2080
6293.00,1.2008
6292.00,1.1933
6291.00,1.1855
6290.00,1.1775
6289.00,1.1692
6288.00,1.1605
6287.00,1.1512
6286.00,1.1416
6285.00,1.1318
6284.00,1.1219
6283.00,1.1116
6282.00,1.1009
6281.00,1.0898
6280.00,1.0781
6279.00,1.0661
6278.00,1.0538
6277.00,1.0414
6276.00,1.0291
6275.00,1.0168
6274.00,1.0043
6273.00,0.9918
6272.00,0.9791
6271.00,0.9662
6270.00,0.9533
6269.00,0.9405
6268.00,0.9281
6267.00,0.9159
6266.00,0.9040
6265.00,0.8923
6264.00,0.8809
6263.00,0.8698
6262.00,0.8591
6261.00,0.8488
6260.00,0.8389
6259.00,0.8295
6258.00,0.8207
6257.00,0.8124
6256.00,0.8047
6255.00,0.7976
6254.00,0.7912
6253.00,0.7855
6252.00,0.7804
6251.00,0.7758
6250.00,0.7719
6249.00,0.7690
6248.00,0.7668
6247.00,0.7655
6246.00,0.7650
6245.00,0.7653
6244.00,0.7662
6243.00,0.7678
6242.00,0.7701
6241.00,0.7732
6240.00,0.7770
6239.00,0.7815
6238.00,0.7867
6237.00,0.7926
6236.00,0.7991
6235.00,0.8061
6234.00,0.8136
6233.00,0.8217
6232.00,0.8303
6231.00,0.8394
6230.00,0.8489
6229.00,0.8588
6228.00,0.8689
6227.00,0.8791
6226.00,0.8896
6225.00,0.9004
6224.00,0.9115
6223.00,0.9229
6222.00,0.9343
6221.00,0.9457
6220.00,0.9570
6219.00,0.9681
6218.00,0.9793
6217.00,0.9904
6216.00,1.0016
6215.00,1.0128
6214.00,1.0242
6213.00,1.0356
6212.00,1.0468
6211.00,1.0579
6210.00,1.0688
6209.00,1.0796
6208.00,1.0900
6207.00,1.1002
6206.00,1.1099
6205.00,1.1193
6204.00,1.1283
6203.00,1.1370
6202.00,1.1454
6201.00,1.1538
6200.00,1.1621
6199.00,1.1701
6198.00,1.1777
6197.00,1.1848
6196.00,1.1914
6195.00,1.1976
6194.00,1.2034
6193.00,1.2089
6192.00,1.2143
6191.00,1.2196
6190.00,1.2246
6189.00,1.2292
6188.00,1.2330
6187.00,1.2362
6186.00,1.2392
6185.00,1.2418
6184.00,1.2441
6183.00,1.2461
6182.00,1.2478
6181.00,1.2493
6180.00,1.2503
6179.00,1.2507
6178.00,1.2505
6177.00,1.2501
6176.00,1.2495
6175.00,1.2484
6174.00,1.2471
6173.00,1.2455
6172.00,1.2437
6171.00,1.2414
6170.00,1.2387
6169.00,1.2354
6168.00,1.2318
6167.00,1.2279
6166.00,1.2237
6165.00,1.2191
6164.00,1.2143
6163.00,1.2092
6162.00,1.2037
6161.00,1.1977
6160.00,1.1912
6159.00,1.1843
6158.00,1.1770
6157.00,1.1694
6156.00,1.1614
6155.00,1.1526
6154.00,1.1432
6153.00,1.1334
6152.00,1.1233
6151.00,1.1130
6150.00,1.1026
6149.00,1.0921
6148.00,1.0814
6147.00,1.0703
6146.00,1.0590
6145.00,1.0473
6144.00,1.0353
6143.00,1.0229
6142.00,1.0104
6141.00,0.9978
6140.00,0.9852
6139.00,0.9726
6138.00,0.9600
6137.00,0.9475
6136.00,0.9352
6135.00,0.9229
6134.00,0.9107
6133.00,0.8987
6132.00,0.8869
6131.00,0.8752
6130.00,0.8638
6129.00,0.8529
6128.00,0.8425
6127.00,0.8325
6126.00,0.8231
6125.00,0.8143
6124.00,0.8061
6123.00,0.7984
6122.00,0.7913
6121.00,0.7849
6120.00,0.7794
6119.00,0.7746
6118.00,0.7706
6117.00,0.7674
6116.00,0.7650
6115.00,0.7632
6114.00,0.7621
6113.00,0.7616
6112.00,0.7620
6111.00,0.7633
6110.00,0.7655
6109.00,0.7685
6108.00,0.7723
6107.00,0.7767
6106.00,0.7819
6105.00,0.7877
6104.00,0.7940
6103.00,0.8010
6102.00,0.8086
6101.00,0.8168
6100.00,0.8256
6099.00,0.8347
6098.00,0.8440
6097.00,0.8537
6096.00,0.8639
6095.00,0.8745
6094.00,0.8858
6093.00,0.8974
6092.00,0.9093
6091.00,0.9212
6090.00,0.9330
6089.00,0.9448
6088.00,0.9567
6087.00,0.9685
6086.00,0.9804
6085.00,0.9925
6084.00,1.0048
6083.00,1.0168
6082.00,1.0284
6081.00,1.0399
6080.00,1.0514
6079.00,1.0631
6078.00,1.0748
6077.00,1.0864
6076.00,1.0978
6075.00,1.1088
6074.00,1.1194
6073.00,1.1294
6072.00,1.1392
6071.00,1.1490
6070.00,1.1588
6069.00,1.1685
6068.00,1.1780
6067.00,1.1872
6066.00,1.1961
6065.00,1.2046
6064.00,1.2128
6063.00,1.2205
6062.00,1.2278
6061.00,1.2347
6060.00,1.2409
6059.00,1.2465
6058.00,1.2515
6057.00,1.2563
6056.00,1.2610
6055.00,1.2655
6054.00,1.2696
6053.00,1.2732
6052.00,1.2762
6051.00,1.2788
6050.00,1.2809
6049.00,1.2826
6048.00,1.2838
6047.00,1.2846
6046.00,1.2852
6045.00,1.2855
6044.00,1.2853
6043.00,1.2847
6042.00,1.2837
6041.00,1.2823
6040.00,1.2806
6039.00,1.2784
6038.00,1.2759
6037.00,1.2728
6036.00,1.2691
6035.00,1.2647
6034.00,1.2598
6033.00,1.2545
6032.00,1.2490
6031.00,1.2432
6030.00,1.2371
6029.00,1.2307
6028.00,1.2238
6027.00,1.2165
6026.00,1.2088
6025.00,1.2007
6024.00,1.1922
6023.00,1.1832
6022.00,1.1736
6021.00,1.1633
6020.00,1.1525
6019.00,1.1415
6018.00,1.1305
6017.00,1.1195
6016.00,1.1083
6015.00,1.0966
6014.00,1.0843
6013.00,1.0714
6012.00,1.0581
6011.00,1.0446
6010.00,1.0310
6009.00,1.0177
6008.00,1.0044
6007.00,0.9911
6006.00,0.9777
6005.00,0.9642
6004.00,0.9507
6003.00,0.9373
6002.00,0.9240
6001.00,0.9109
6000.00,0.8981
5999.00,0.8857
5998.00,0.8737
5997.00,0.8623
5996.00,0.8513
5995.00,0.8407
5994.00,0.8305
5993.00,0.8206
5992.00,0.8113
5991.00,0.8025
5990.00,0.7947
5989.00,0.7877
5988.00,0.7815
5987.00,0.7761
5986.00,0.7714
5985.00,0.7673
5984.00,0.7639
5983.00,0.7613
5982.00,0.7596
5981.00,0.7590
5980.00,0.7593
5979.00,0.7605
5978.00,0.7626
5977.00,0.7654
5976.00,0.7691
5975.00,0.7734
5974.00,0.7784
5973.00,0.7843
5972.00,0.7908
5971.00,0.7981
5970.00,0.8059
5969.00,0.8143
5968.00,0.8233
5967.00,0.8328
5966.00,0.8426
5965.00,0.8528
5964.00,0.8634
5963.00,0.8742
5962.00,0.8855
5961.00,0.8970
5960.00,0.9087
5959.00,0.9206
5958.00,0.9328
5957.00,0.9453
5956.00,0.9579
5955.00,0.9705
5954.00,0.9831
5953.00,0.9958
5952.00,1.0085
5951.00,1.0210
5950.00,1.0335
5949.00,1.0459
5948.00,1.0584
5947.00,1.0708
5946.00,1.0829
5945.00,1.0949
5944.00,1.1067
5943.00,1.1184
5942.00,1.1298
5941.00,1.1409
5940.00,1.1518
5939.00,1.1624
5938.00,1.1729
5937.00,1.1828
5936.00,1.1924
5935.00,1.2018
5934.00,1.2110
5933.00,1.2200
5932.00,1.2285
5931.00,1.2363
5930.00,1.2438
5929.00,1.2511
5928.00,1.2580
5927.00,1.2643
5926.00,1.2702
5925.00,1.2756
5924.00,1.2806
5923.00,1.2851
5922.00,1.2894
5921.00,1.2932
5920.00,1.2968
5919.00,1.3001
5918.00,1.3033
5917.00,1.3062
5916.00,1.3086
5915.00,1.3103
5914.00,1.3114
5913.00,1.3119
5912.00,1.3117
5911.00,1.3106
5910.00,1.3091
5909.00,1.3073
5908.00,1.3054
5907.00,1.3033
5906.00,1.3010
5905.00,1.2985
5904.00,1.2956
5903.00,1.2921
5902.00,1.2878
5901.00,1.2829
5900.00,1.2776
5899.00,1.2718
5898.00,1.2656
5897.00,1.2591
5896.00,1.2523
5895.00,1.2453
5894.00,1.2376
5893.00,1.2292
5892.00,1.2201
5891.00,1.2107
5890.00,1.2011
5889.00,1.1913
5888.00,1.1810
5887.00,1.1705
5886.00,1.1597
5885.00,1.1486
5884.00,1.1370
5883.00,1.1251
5882.00,1.1129
5881.00,1.1004
5880.00,1.0875
5879.00,1.0742
5878.00,1.0606
5877.00,1.0472
5876.00,1.0338
5875.00,1.0206
5874.00,1.0075
5873.00,0.9942
5872.00,0.9807
5871.00,0.9669
5870.00,0.9533
5869.00,0.9400
5868.00,0.9271
5867.00,0.9146
5866.00,0.9026
5865.00,0.8911
5864.00,0.8798
5863.00,0.8688
5862.00,0.8580
5861.00,0.8478
5860.00,0.8381
5859.00,0.8289
5858.00,0.8205
5857.00,0.8129
5856.00,0.8060
5855.00,0.7998
5854.00,0.7943
5853.00,0.7897
5852.00,0.7859
5851.00,0.7829
5850.00,0.7807
5849.00,0.7795
5848.00,0.7790
5847.00,0.7793
5846.00,0.7802
5845.00,0.7820
5844.00,0.7848
5843.00,0.7885
5842.00,0.7931
5841.00,0.7986
5840.00,0.8048
5839.00,0.8115
5838.00,0.8187
5837.00,0.8264
5836.00,0.8346
5835.00,0.8434
5834.00,0.8529
5833.00,0.8631
5832.00,0.8737
5831.00,0.8845
5830.00,0.8956
5829.00,0.9070
5828.00,0.9187
5827.00,0.9306
5826.00,0.9427
5825.00,0.9550
5824.00,0.9676
5823.00,0.9803
5822.00,0.9929
5821.00,1.0054
5820.00,1.0181
5819.00,1.0306
5818.00,1.0431
5817.00,1.0554
5816.00,1.0676
5815.00,1.0796
5814.00,1.0915
5813.00,1.1034
5812.00,1.1151
5811.00,1.1266
5810.00,1.1378
5809.00,1.1489
5808.00,1.1598
5807.00,1.1705
5806.00,1.1810
5805.00,1.1912
5804.00,1.2012
5803.00,1.2109
5802.00,1.2201
5801.00,1.2290
5800.00,1.2376
5799.00,1.2459
5798.00,1.2538
5797.00,1.2612
5796.00,1.2681
5795.00,1.2744
5794.00,1.2802
5793.00,1.2856
5792.00,1.2909
5791.00,1.2960
5790.00,1.3009
5789.00,1.3054
5788.00,1.3094
5787.00,1.3131
5786.00,1.3166
5785.00,1.3196
5784.00,1.3220
5783.00,1.3236
5782.00,1.3246
5781.00,1.3252
5780.00,1.3253
5779.00,1.3250
5778.00,1.3247
5777.00,1.3243
5776.00,1.3239
5775.00,1.3227
5774.00,1.3205
5773.00,1.3173
5772.00,1.3136
5771.00,1.3096
5770.00,1.3054
5769.00,1.3011
5768.00,1.2966
5767.00,1.2919
5766.00,1.2866
5765.00,1.2805
5764.00,1.2736
5763.00,1.2662
5762.00,1.2585
5761.00,1.2504
5760.00,1.2421
5759.00,1.2336
5758.00,1.2249
5757.00,1.2157
5756.00,1.2060
5755.00,1.1958
5754.00,1.1851
5753.00,1.1741
5752.00,1.1627
5751.00,1.1510
5750.00,1.1390
5749.00,1.1268
5748.00,1.1142
5747.00,1.1014
5746.00,1.0882
5745.00,1.0750
5744.00,1.0615
5743.00,1.0479
5742.00,1.0341
5741.00,1.0203
5740.00,1.0065
5739.00,0.9925
5738.00,0.9784
5737.00,0.9644
5736.00,0.9506
5735.00,0.9370
5734.00,0.9238
5733.00,0.9109
5732.00,0.8984
5731.00,0.8861
5730.00,0.8743
5729.00,0.8629
5728.00,0.8521
5727.00,0.8418
5726.00,0.8322
5725.00,0.8233
5724.00,0.8150
5723.00,0.8074
5722.00,0.8006
5721.00,0.7948
5720.00,0.7897
5719.00,0.7854
5718.00,0.7819
5717.00,0.7792
5716.00,0.7774
5715.00,0.7764
5714.00,0.7765
5713.00,0.7774
5712.00,0.7793
5711.00,0.7820
5710.00,0.7855
5709.00,0.7897
5708.00,0.7948
5707.00,0.8006
5706.00,0.8072
5705.00,0.8144
5704.00,0.8224
5703.00,0.8310
5702.00,0.8401
5701.00,0.8498
5700.00,0.8600
5699.00,0.8706
5698.00,0.8817
5697.00,0.8932
5696.00,0.9050
5695.00,0.9171
5694.00,0.9294
5693.00,0.9420
5692.00,0.9548
5691.00,0.9677
5690.00,0.9806
5689.00,0.9935
5688.00,1.0064
5687.00,1.0193
5686.00,1.0324
5685.00,1.0454
5684.00,1.0585
5683.00,1.0715
5682.00,1.0845
5681.00,1.0972
5680.00,1.1096
5679.00,1.1217
5678.00,1.1338
5677.00,1.1458
5676.00,1.1576
5675.00,1.1689
5674.00,1.1798
5673.00,1.1904
5672.00,1.2009
5671.00,1.2111
5670.00,1.2209
5669.00,1.2303
5668.00,1.2395
5667.00,1.2486
5666.00,1.2573
5665.00,1.2655
5664.00,1.2733
5663.00,1.2806
5662.00,1.2873
5661.00,1.2935
5660.00,1.2991
5659.00,1.3043
5658.00,1.3091
5657.00,1.3137
5656.00,1.3181
5655.00,1.3222
5654.00,1.3260
5653.00,1.3296
5652.00,1.3327
5651.00,1.3354
5650.00,1.3375
5649.00,1.3389
5648.00,1.3398
5647.00,1.3404
5646.00,1.3406
5645.00,1.3403
5644.00,1.3395
5643.00,1.3382
5642.00,1.3362
5641.00,1.3336
5640.00,1.3303
5639.00,1.3268
5638.00,1.3231
5637.00,1.3194
5636.00,1.3153
5635.00,1.3105
5634.00,1.3049
5633.00,1.2988
5632.00,1.2925
5631.00,1.2859
5630.00,1.2791
5629.00,1.2719
5628.00,1.2644
5627.00,1.2562
5626.00,1.2473
5625.00,1.2379
5624.00,1.2280
5623.00,1.2178
5622.00,1.2073
5621.00,1.1963
5620.00,1.1848
5619.00,1.1728
5618.00,1.1605
5617.00,1.1477
5616.00,1.1346
5615.00,1.1212
5614.00,1.1075
5613.00,1.0935
5612.00,1.0792
5611.00,1.0647
5610.00,1.0499
5609.00,1.0350
5608.00,1.0200
5607.00,1.0050
5606.00,0.9900
5605.00,0.9752
5604.00,0.9603
5603.00,0.9456
5602.00,0.9310
5601.00,0.9167
5600.00,0.9026
5599.00,0.8890
5598.00,0.8759
5597.00,0.8633
5596.00,0.8513
5595.00,0.8399
5594.00,0.8291
5593.00,0.8190
5592.00,0.8096
5591.00,0.8008
5590.00,0.7928
5589.00,0.7858
5588.00,0.7797
5587.00,0.7744
5586.00,0.7701
5585.00,0.7667
5584.00,0.7642
5583.00,0.7626
5582.00,0.7620
5581.00,0.7626
5580.00,0.7641
5579.00,0.7667
5578.00,0.7701
5577.00,0.7744
5576.00,0.7795
5575.00,0.7854
5574.00,0.7920
5573.00,0.7994
5572.00,0.8076
5571.00,0.8165
5570.00,0.8260
5569.00,0.8361
5568.00,0.8467
5567.00,0.8578
5566.00,0.8694
5565.00,0.8813
5564.00,0.8936
5563.00,0.9061
5562.00,0.9190
5561.00,0.9321
5560.00,0.9453
5559.00,0.9587
5558.00,0.9720
5557.00,0.9853
5556.00,0.9985
5555.00,1.0117
5554.00,1.0250
5553.00,1.0383
5552.00,1.0516
5551.00,1.0647
5550.00,1.0776
5549.00,1.0902
5548.00,1.1025
5547.00,1.1147
5546.00,1.1267
5545.00,1.1387
5544.00,1.1503
5543.00,1.1614
5542.00,1.1721
5541.00,1.1825
5540.00,1.1927
5539.00,1.2025
5538.00,1.2120
5537.00,1.2213
5536.00,1.2303
5535.00,1.2390
5534.00,1.2472
5533.00,1.2551
5532.00,1.2628
5531.00,1.2704
5530.00,1.2777
5529.00,1.2846
5528.00,1.2910
5527.00,1.2969
5526.00,1.3024
5525.00,1.3076
5524.00,1.3126
5523.00,1.3172
5522.00,1.3214
5521.00,1.3252
5520.00,1.3285
5519.00,1.3313
5518.00,1.3336
5517.00,1.3355
5516.00,1.3371
5515.00,1.3384
5514.00,1.3393
5513.00,1.3398
5512.00,1.3399
5511.00,1.3398
5510.00,1.3392
5509.00,1.3378
5508.00,1.3356
5507.00,1.3328
5506.00,1.3295
5505.00,1.3260
5504.00,1.3223
5503.00,1.3185
5502.00,1.3143
5501.00,1.3096
5500.00,1.3043
5499.00,1.2983
5498.00,1.2920
5497.00,1.2853
5496.00,1.2782
5495.00,1.2705
5494.00,1.2624
5493.00,1.2537
5492.00,1.2447
5491.00,1.2350
5490.00,1.2248
5489.00,1.2139
5488.00,1.2027
5487.00,1.1910
5486.00,1.1789
5485.00,1.1664
5484.00,1.1535
5483.00,1.1402
5482.00,1.1266
5481.00,1.1127
5480.00,1.0986
5479.00,1.0842
5478.00,1.0696
5477.00,1.0545
5476.00,1.0390
5475.00,1.0232
5474.00,1.0072
5473.00,0.9913
5472.00,0.9756
5471.00,0.9600
5470.00,0.9446
5469.00,0.9296
5468.00,0.9149
5467.00,0.9007
5466.00,0.8868
5465.00,0.8734
5464.00,0.8606
5463.00,0.8482
5462.00,0.8364
5461.00,0.8251
5460.00,0.8146
5459.00,0.8047
5458.00,0.7956
5457.00,0.7874
5456.00,0.7801
5455.00,0.7739
5454.00,0.7687
5453.00,0.7646
5452.00,0.7615
5451.00,0.7595
5450.00,0.7586
5449.00,0.7587
5448.00,0.7599
5447.00,0.7621
5446.00,0.7653
5445.00,0.7693
5444.00,0.7743
5443.00,0.7801
5442.00,0.7867
5441.00,0.7943
5440.00,0.8026
5439.00,0.8117
5438.00,0.8213
5437.00,0.8316
5436.00,0.8426
5435.00,0.8544
5434.00,0.8669
5433.00,0.8798
5432.00,0.8929
5431.00,0.9061
5430.00,0.9195
5429.00,0.9334
5428.00,0.9478
5427.00,0.9627
5426.00,0.9777
5425.00,0.9924
5424.00,1.0068
5423.00,1.0210
5422.00,1.0351
5421.00,1.0493
5420.00,1.0635
5419.00,1.0777
5418.00,1.0920
5417.00,1.1061
5416.00,1.1199
5415.00,1.1334
5414.00,1.1468
5413.00,1.1601
5412.00,1.1731
5411.00,1.1857
5410.00,1.1980
5409.00,1.2098
5408.00,1.2212
5407.00,1.2324
5406.00,1.2434
5405.00,1.2539
5404.00,1.2639
5403.00,1.2735
5402.00,1.2829
5401.00,1.2919
5400.00,1.3005
5399.00,1.3087
5398.00,1.3165
5397.00,1.3239
5396.00,1.3309
5395.00,1.3373
5394.00,1.3432
5393.00,1.3486
5392.00,1.3535
5391.00,1.3578
5390.00,1.3616
5389.00,1.3650
5388.00,1.3682
5387.00,1.3710
5386.00,1.3734
5385.00,1.3753
5384.00,1.3768
5383.00,1.3779
5382.00,1.3785
5381.00,1.3786
5380.00,1.3782
5379.00,1.3773
5378.00,1.3758
5377.00,1.3739
5376.00,1.3715
5375.00,1.3687
5374.00,1.3655
5373.00,1.3619
5372.00,1.3578
5371.00,1.3533
5370.00,1.3484
5369.00,1.3430
5368.00,1.3372
5367.00,1.3310
5366.00,1.3244
5365.00,1.3174
5364.00,1.3098
5363.00,1.3018
5362.00,1.2933
5361.00,1.2842
5360.00,1.2744
5359.00,1.2641
5358.00,1.2532
5357.00,1.2419
5356.00,1.2302
5355.00,1.2179
5354.00,1.2053
5353.00,1.1924
5352.00,1.1791
5351.00,1.1653
5350.00,1.1510
5349.00,1.1364
5348.00,1.1216
5347.00,1.1064
5346.00,1.0909
5345.00,1.0750
5344.00,1.0588
5343.00,1.0425
5342.00,1.0260
5341.00,1.0096
5340.00,0.9931
5339.00,0.9768
5338.00,0.9605
5337.00,0.9444
5336.00,0.9287
5335.00,0.9133
5334.00,0.8984
5333.00,0.8838
5332.00,0.8697
5331.00,0.8562
5330.00,0.8433
5329.00,0.8311
5328.00,0.8195
5327.00,0.8087
5326.00,0.7988
5325.00,0.7897
5324.00,0.7816
5323.00,0.7745
5322.00,0.7685
5321.00,0.7636
5320.00,0.7597
5319.00,0.7570
5318.00,0.7554
5317.00,0.7550
5316.00,0.7557
5315.00,0.7574
5314.00,0.7600
5313.00,0.7637
5312.00,0.7683
5311.00,0.7739
5310.00,0.7805
5309.00,0.7881
5308.00,0.7966
5307.00,0.8060
5306.00,0.8162
5305.00,0.8268
5304.00,0.8379
5303.00,0.8495
5302.00,0.8616
5301.00,0.8743
5300.00,0.8876
5299.00,0.9013
5298.00,0.9154
5297.00,0.9296
5296.00,0.9439
5295.00,0.9583
5294.00,0.9728
5293.00,0.9875
5292.00,1.0024
5291.00,1.0174
5290.00,1.0325
5289.00,1.0476
5288.00,1.0626
5287.00,1.0772
5286.00,1.0915
5285.00,1.1056
5284.00,1.1195
5283.00,1.1333
5282.00,1.1470
5281.00,1.1606
5280.00,1.1741
5279.00,1.1874
5278.00,1.2005
5277.00,1.2132
5276.00,1.2254
5275.00,1.2369
5274.00,1.2480
5273.00,1.2587
5272.00,1.2693
5271.00,1.2798
5270.00,1.2901
5269.00,1.3001
5268.00,1.3094
5267.00,1.3180
5266.00,1.3261
5265.00,1.3336
5264.00,1.3409
5263.00,1.3478
5262.00,1.3545
5261.00,1.3606
5260.00,1.3660
5259.00,1.3708
5258.00,1.3753
5257.00,1.3795
5256.00,1.3835
5255.00,1.3870
5254.00,1.3901
5253.00,1.3928
5252.00,1.3949
5251.00,1.3963
5250.00,1.3974
5249.00,1.3982
5248.00,1.3987
5247.00,1.3987
5246.00,1.3980
5245.00,1.3967
5244.00,1.3949
5243.00,1.3925
5242.00,1.3897
5241.00,1.3865
5240.00,1.3830
5239.00,1.3789
5238.00,1.3744
5237.00,1.3696
5236.00,1.3645
5235.00,1.3591
5234.00,1.3532
5233.00,1.3464
5232.00,1.3389
5231.00,1.3307
5230.00,1.3219
5229.00,1.3130
5228.00,1.3038
5227.00,1.2943
5226.00,1.2845
5225.00,1.2741
5224.00,1.2630
5223.00,1.2512
5222.00,1.2386
5221.00,1.2255
5220.00,1.2118
5219.00,1.1979
5218.00,1.1837
5217.00,1.1694
5216.00,1.1548
5215.00,1.1397
5214.00,1.1242
5213.00,1.1082
5212.00,1.0920
5211.00,1.0755
5210.00,1.0590
5209.00,1.0425
5208.00,1.0259
5207.00,1.0091
5206.00,0.9922
5205.00,0.9753
5204.00,0.9585
5203.00,0.9420
5202.00,0.9260
5201.00,0.9104
5200.00,0.8953
5199.00,0.8809
5198.00,0.8671
5197.00,0.8540
5196.00,0.8416
5195.00,0.8298
5194.00,0.8189
5193.00,0.8089
5192.00,0.7998
5191.00,0.7916
5190.00,0.7843
5189.00,0.7783
5188.00,0.7734
5187.00,0.7697
5186.00,0.7673
5185.00,0.7659
5184.00,0.7657
5183.00,0.7665
5182.00,0.7684
5181.00,0.7713
5180.00,0.7754
5179.00,0.7807
5178.00,0.7870
5177.00,0.7945
5176.00,0.8028
5175.00,0.8121
5174.00,0.8220
5173.00,0.8328
5172.00,0.8442
5171.00,0.8562
5170.00,0.8689
5169.00,0.8822
5168.00,0.8960
5167.00,0.9102
5166.00,0.9247
5165.00,0.9394
5164.00,0.9543
5163.00,0.9695
5162.00,0.9850
5161.00,1.0006
5160.00,1.0164
5159.00,1.0321
5158.00,1.0479
5157.00,1.0635
5156.00,1.0791
5155.00,1.0946
5154.00,1.1099
5153.00,1.1251
5152.00,1.1401
5151.00,1.1548
5150.00,1.1693
5149.00,1.1835
5148.00,1.1974
5147.00,1.2110
5146.00,1.2243
5145.00,1.2373
5144.00,1.2499
5143.00,1.2623
5142.00,1.2743
5141.00,1.2858
5140.00,1.2969
5139.00,1.3075
5138.00,1.3178
5137.00,1.3278
5136.00,1.3375
5135.00,1.3467
5134.00,1.3552
5133.00,1.3631
5132.00,1.3703
5131.00,1.3771
5130.00,1.3835
5129.00,1.3896
5128.00,1.3954
5127.00,1.4008
5126.00,1.4058
5125.00,1.4104
5124.00,1.4143
5123.00,1.4176
5122.00,1.4203
5121.00,1.4226
5120.00,1.4245
5119.00,1.4260
5118.00,1.4271
5117.00,1.4280
5116.00,1.4284
5115.00,1.4282
5114.00,1.4275
5113.00,1.4263
5112.00,1.4244
5111.00,1.4220
5110.00,1.4189
5109.00,1.4154
5108.00,1.4114
5107.00,1.4073
5106.00,1.4029
5105.00,1.3982
5104.00,1.3930
5103.00,1.3871
5102.00,1.3808
5101.00,1.3739
5100.00,1.3666
5099.00,1.3590
5098.00,1.3509
5097.00,1.3423
5096.00,1.3331
5095.00,1.3233
5094.00,1.3128
5093.00,1.3016
5092.00,1.2899
5091.00,1.2778
5090.00,1.2652
5089.00,1.2522
5088.00,1.2388
5087.00,1.2247
5086.00,1.2102
5085.00,1.1953
5084.00,1.1801
5083.00,1.1645
5082.00,1.1487
5081.00,1.1324
5080.00,1.1156
5079.00,1.0984
5078.00,1.0809
5077.00,1.0631
5076.00,1.0454
5075.00,1.0278
5074.00,1.0102
5073.00,0.9926
5072.00,0.9750
5071.00,0.9574
5070.00,0.9402
5069.00,0.9233
5068.00,0.9070
5067.00,0.8912
5066.00,0.8759
5065.00,0.8612
5064.00,0.8471
5063.00,0.8337
5062.00,0.8211
5061.00,0.8095
5060.00,0.7989
5059.00,0.7894
5058.00,0.7810
5057.00,0.7738
5056.00,0.7677
5055.00,0.7628
5054.00,0.7592
5053.00,0.7567
5052.00,0.7555
5051.00,0.7556
5050.00,0.7569
5049.00,0.7594
5048.00,0.7632
5047.00,0.7681
5046.00,0.7741
5045.00,0.7813
5044.00,0.7894
5043.00,0.7986
5042.00,0.8086
5041.00,0.8196
5040.00,0.8314
5039.00,0.8438
5038.00,0.8569
5037.00,0.8706
5036.00,0.8847
5035.00,0.8993
5034.00,0.9144
5033.00,0.9298
5032.00,0.9455
5031.00,0.9615
5030.00,0.9776
5029.00,0.9940
5028.00,1.0104
5027.00,1.0269
5026.00,1.0435
5025.00,1.0600
5024.00,1.0764
5023.00,1.0926
5022.00,1.1087
5021.00,1.1246
5020.00,1.1402
5019.00,1.1556
5018.00,1.1707
5017.00,1.1858
5016.00,1.2007
5015.00,1.2154
5014.00,1.2299
5013.00,1.2439
5012.00,1.2574
5011.00,1.2702
5010.00,1.2827
5009.00,1.2948
5008.00,1.3066
5007.00,1.3181
5006.00,1.3291
5005.00,1.3397
5004.00,1.3500
5003.00,1.3597
5002.00,1.3688
5001.00,1.3775
5000.00,1.3857
4999.00,1.3935
4998.00,1.4009
4997.00,1.4080
4996.00,1.4147
4995.00,1.4209
4994.00,1.4263
4993.00,1.4312
4992.00,1.4356
4991.00,1.4397
4990.00,1.4431
4989.00,1.4459
4988.00,1.4481
4987.00,1.4496
4986.00,1.4507
4985.00,1.4515
4984.00,1.4520
4983.00,1.4520
4982.00,1.4515
4981.00,1.4505
4980.00,1.4491
4979.00,1.4474
4978.00,1.4453
4977.00,1.4427
4976.00,1.4397
4975.00,1.4361
4974.00,1.4320
4973.00,1.4274
4972.00,1.4222
4971.00,1.4165
4970.00,1.4102
4969.00,1.4034
4968.00,1.3963
4967.00,1.3888
4966.00,1.3808
4965.00,1.3722
4964.00,1.3630
4963.00,1.3532
4962.00,1.3428
4961.00,1.3318
4960.00,1.3202
4959.00,1.3082
4958.00,1.2956
4957.00,1.2827
4956.00,1.2693
4955.00,1.2554
4954.00,1.2408
4953.00,1.2257
4952.00,1.2101
4951.00,1.1941
4950.00,1.1777
4949.00,1.1607
4948.00,1.1433
4947.00,1.1255
4946.00,1.1075
4945.00,1.0893
4944.00,1.0709
4943.00,1.0524
4942.00,1.0338
4941.00,1.0151
4940.00,0.9964
4939.00,0.9778
4938.00,0.9594
4937.00,0.9414
4936.00,0.9237
4935.00,0.9067
4934.00,0.8902
4933.00,0.8745
4932.00,0.8594
4931.00,0.8450
4930.00,0.8315
4929.00,0.8188
4928.00,0.8072
4927.00,0.7967
4926.00,0.7875
4925.00,0.7794
4924.00,0.7726
4923.00,0.7671
4922.00,0.7629
4921.00,0.7601
4920.00,0.7586
4919.00,0.7585
4918.00,0.7598
4917.00,0.7625
4916.00,0.7664
4915.00,0.7716
4914.00,0.7780
4913.00,0.7856
4912.00,0.7943
4911.00,0.8041
4910.00,0.8148
4909.00,0.8263
4908.00,0.8387
4907.00,0.8519
4906.00,0.8657
4905.00,0.8802
4904.00,0.8953
4903.00,0.9110
4902.00,0.9272
4901.00,0.9436
4900.00,0.9602
4899.00,0.9770
4898.00,0.9938
4897.00,1.0108
4896.00,1.0280
4895.00,1.0453
4894.00,1.0626
4893.00,1.0800
4892.00,1.0973
4891.00,1.1144
4890.00,1.1314
4889.00,1.1484
4888.00,1.1651
4887.00,1.1816
4886.00,1.1977
4885.00,1.2135
4884.00,1.2288
4883.00,1.2438
4882.00,1.2584
4881.00,1.2727
4880.00,1.2866
4879.00,1.3001
4878.00,1.3131
4877.00,1.3257
4876.00,1.3378
4875.00,1.3495
4874.00,1.3607
4873.00,1.3715
4872.00,1.3819
4871.00,1.3917
4870.00,1.4010
4869.00,1.4097
4868.00,1.4179
4867.00,1.4256
4866.00,1.4329
4865.00,1.4399
4864.00,1.4464
4863.00,1.4523
4862.00,1.4576
4861.00,1.4622
4860.00,1.4663
4859.00,1.4700
4858.00,1.4734
4857.00,1.4764
4856.00,1.4789
4855.00,1.4807
4854.00,1.4822
4853.00,1.4832
4852.00,1.4837
4851.00,1.4836
4850.00,1.4830
4849.00,1.4820
4848.00,1.4807
4847.00,1.4790
4846.00,1.4768
4845.00,1.4739
4844.00,1.4705
4843.00,1.4666
4842.00,1.4625
4841.00,1.4581
4840.00,1.4530
4839.00,1.4471
4838.00,1.4405
4837.00,1.4336
4836.00,1.4264
4835.00,1.4190
4834.00,1.4110
4833.00,1.4023
4832.00,1.3929
4831.00,1.3829
4830.00,1.3722
4829.00,1.3609
4828.00,1.3489
4827.00,1.3364
4826.00,1.3234
4825.00,1.3100
4824.00,1.2962
4823.00,1.2819
4822.00,1.2671
4821.00,1.2517
4820.00,1.2358
4819.00,1.2194
4818.00,1.2024
4817.00,1.1850
4816.00,1.1670
4815.00,1.1487
4814.00,1.1300
4813.00,1.1110
4812.00,1.0917
4811.00,1.0720
4810.00,1.0523
4809.00,1.0325
4808.00,1.0129
4807.00,0.9934
4806.00,0.9742
4805.00,0.9553
4804.00,0.9366
4803.00,0.9181
4802.00,0.9002
4801.00,0.8828
4800.00,0.8662
4799.00,0.8505
4798.00,0.8357
4797.00,0.8218
4796.00,0.8090
4795.00,0.7973
4794.00,0.7870
4793.00,0.7780
4792.00,0.7704
4791.00,0.7642
4790.00,0.7595
4789.00,0.7561
4788.00,0.7542
4787.00,0.7537
4786.00,0.7548
4785.00,0.7572
4784.00,0.7610
4783.00,0.7663
4782.00,0.7728
4781.00,0.7808
4780.00,0.7900
4779.00,0.8003
4778.00,0.8117
4777.00,0.8240
4776.00,0.8372
4775.00,0.8512
4774.00,0.8660
4773.00,0.8815
4772.00,0.8976
4771.00,0.9141
4770.00,0.9310
4769.00,0.9482
4768.00,0.9657
4767.00,0.9834
4766.00,1.0015
4765.00,1.0198
4764.00,1.0382
4763.00,1.0567
4762.00,1.0751
4761.00,1.0932
4760.00,1.1112
4759.00,1.1290
4758.00,1.1466
4757.00,1.1641
4756.00,1.1815
4755.00,1.1987
4754.00,1.2155
4753.00,1.2320
4752.00,1.2481
4751.00,1.2639
4750.00,1.2794
4749.00,1.2946
4748.00,1.3094
4747.00,1.3238
4746.00,1.3377
4745.00,1.3511
4744.00,1.3641
4743.00,1.3766
4742.00,1.3885
4741.00,1.3998
4740.00,1.4104
4739.00,1.4205
4738.00,1.4301
4737.00,1.4392
4736.00,1.4478
4735.00,1.4560
4734.00,1.4637
4733.00,1.4709
4732.00,1.4775
4731.00,1.4834
4730.00,1.4889
4729.00,1.4938
4728.00,1.4983
4727.00,1.5024
4726.00,1.5062
4725.00,1.5095
4724.00,1.5124
4723.00,1.5146
4722.00,1.5163
4721.00,1.5175
4720.00,1.5180
4719.00,1.5180
4718.00,1.5174
4717.00,1.5165
4716.00,1.5151
4715.00,1.5133
4714.00,1.5113
4713.00,1.5090
4712.00,1.5065
4711.00,1.5033
4710.00,1.4993
4709.00,1.4947
4708.00,1.4894
4707.00,1.4836
4706.00,1.4775
4705.00,1.4709
4704.00,1.4637
4703.00,1.4557
4702.00,1.4472
4701.00,1.4384
4700.00,1.4293
4699.00,1.4197
4698.00,1.4095
4697.00,1.3986
4696.00,1.3869
4695.00,1.3746
4694.00,1.3619
4693.00,1.3487
4692.00,1.3352
4691.00,1.3209
4690.00,1.3060
4689.00,1.2905
4688.00,1.2744
4687.00,1.2578
4686.00,1.2410
4685.00,1.2238
4684.00,1.2063
4683.00,1.1884
4682.00,1.1701
4681.00,1.1514
4680.00,1.1325
4679.00,1.1135
4678.00,1.0943
4677.00,1.0751
4676.00,1.0557
4675.00,1.0362
4674.00,1.0167
4673.00,0.9975
4672.00,0.9786
4671.00,0.9600
4670.00,0.9419
4669.00,0.9242
4668.00,0.9071
4667.00,0.8907
4666.00,0.8751
4665.00,0.8603
4664.00,0.8464
4663.00,0.8335
4662.00,0.8217
4661.00,0.8113
4660.00,0.8022
4659.00,0.7945
4658.00,0.7883
4657.00,0.7835
4656.00,0.7802
4655.00,0.7784
4654.00,0.7781
4653.00,0.7794
4652.00,0.7823
4651.00,0.7866
4650.00,0.7924
4649.00,0.7997
4648.00,0.8083
4647.00,0.8183
4646.00,0.8294
4645.00,0.8417
4644.00,0.8549
4643.00,0.8690
4642.00,0.8839
4641.00,0.8995
4640.00,0.9158
4639.00,0.9327
4638.00,0.9501
4637.00,0.9678
4636.00,0.9859
4635.00,1.0043
4634.00,1.0228
4633.00,1.0416
4632.00,1.0605
4631.00,1.0795
4630.00,1.0985
4629.00,1.1174
4628.00,1.1361
4627.00,1.1547
4626.00,1.1731
4625.00,1.1915
4624.00,1.2097
4623.00,1.2276
4622.00,1.2450
4621.00,1.2619
4620.00,1.2785
4619.00,1.2947
4618.00,1.3105
4617.00,1.3261
4616.00,1.3412
4615.00,1.3558
4614.00,1.3700
4613.00,1.3837
4612.00,1.3967
4611.00,1.4090
4610.00,1.4208
4609.00,1.4322
4608.00,1.4432
4607.00,1.4539
4606.00,1.4641
4605.00,1.4735
4604.00,1.4823
4603.00,1.4903
4602.00,1.4977
4601.00,1.5049
4600.00,1.5117
4599.00,1.5181
4598.00,1.5239
4597.00,1.5291
4596.00,1.5335
4595.00,1.5373
4594.00,1.5406
4593.00,1.5435
4592.00,1.5460
4591.00,1.5482
4590.00,1.5501
4589.00,1.5517
4588.00,1.5530
4587.00,1.5536
4586.00,1.5533
4585.00,1.5522
4584.00,1.5505
4583.00,1.5484
4582.00,1.5461
4581.00,1.5434
4580.00,1.5404
4579.00,1.5369
4578.00,1.5329
4577.00,1.5283
4576.00,1.5232
4575.00,1.5175
4574.00,1.5112
4573.00,1.5044
4572.00,1.4972
4571.00,1.4895
4570.00,1.4812
4569.00,1.4722
4568.00,1.4625
4567.00,1.4523
4566.00,1.4416
4565.00,1.4307
4564.00,1.4193
4563.00,1.4072
4562.00,1.3943
4561.00,1.3807
4560.00,1.3664
4559.00,1.3515
4558.00,1.3360
4557.00,1.3199
4556.00,1.3032
4555.00,1.2860
4554.00,1.2682
4553.00,1.2499
4552.00,1.2311
4551.00,1.2118
4550.00,1.1919
4549.00,1.1716
4548.00,1.1508
4547.00,1.1296
4546.00,1.1081
4545.00,1.0865
4544.00,1.0649
4543.00,1.0433
4542.00,1.0218
4541.00,1.0005
4540.00,0.9794
4539.00,0.9586
4538.00,0.9383
4537.00,0.9186
4536.00,0.8998
4535.00,0.8818
4534.00,0.8648
4533.00,0.8489
4532.00,0.8340
4531.00,0.8204
4530.00,0.8082
4529.00,0.7973
4528.00,0.7880
4527.00,0.7803
4526.00,0.7742
4525.00,0.7699
4524.00,0.7672
4523.00,0.7663
4522.00,0.7671
4521.00,0.7695
4520.00,0.7736
4519.00,0.7792
4518.00,0.7864
4517.00,0.7951
4516.00,0.8052
4515.00,0.8167
4514.00,0.8295
4513.00,0.8433
4512.00,0.8582
4511.00,0.8739
4510.00,0.8904
4509.00,0.9076
4508.00,0.9254
4507.00,0.9438
4506.00,0.9627
4505.00,0.9820
4504.00,1.0017
4503.00,1.0216
4502.00,1.0416
4501.00,1.0616
4500.00,1.0817
4499.00,1.1017
4498.00,1.1216
4497.00,1.1415
4496.00,1.1614
4495.00,1.1811
4494.00,1.2006
4493.00,1.2198
4492.00,1.2386
4491.00,1.2570
4490.00,1.2751
4489.00,1.2928
4488.00,1.3102
4487.00,1.3273
4486.00,1.3438
4485.00,1.3598
4484.00,1.3752
4483.00,1.3902
4482.00,1.4047
4481.00,1.4187
4480.00,1.4323
4479.00,1.4454
4478.00,1.4578
4477.00,1.4697
4476.00,1.4810
4475.00,1.4917
4474.00,1.5019
4473.00,1.5115
4472.00,1.5206
4471.00,1.5291
4470.00,1.5371
4469.00,1.5444
4468.00,1.5512
4467.00,1.5573
4466.00,1.5630
4465.00,1.5682
4464.00,1.5730
4463.00,1.5774
4462.00,1.5811
4461.00,1.5841
4460.00,1.5865
4459.00,1.5884
4458.00,1.5901
4457.00,1.5915
4456.00,1.5923
4455.00,1.5925
4454.00,1.5920
4453.00,1.5909
4452.00,1.5896
4451.00,1.5882
4450.00,1.5864
4449.00,1.5841
4448.00,1.5810
4447.00,1.5770
4446.00,1.5723
4445.00,1.5672
4444.00,1.5617
4443.00,1.5559
4442.00,1.5496
4441.00,1.5428
4440.00,1.5354
4439.00,1.5275
4438.00,1.5192
4437.00,1.5104
4436.00,1.5010
4435.00,1.4911
4434.00,1.4804
4433.00,1.4689
4432.00,1.4567
4431.00,1.4438
4430.00,1.4303
4429.00,1.4163
4428.00,1.4019
4427.00,1.3870
4426.00,1.3714
4425.00,1.3549
4424.00,1.3378
4423.00,1.3200
4422.00,1.3018
4421.00,1.2831
4420.00,1.2639
4419.00,1.2441
4418.00,1.2239
4417.00,1.2033
4416.00,1.1824
4415.00,1.1613
4414.00,1.1399
4413.00,1.1184
4412.00,1.0968
4411.00,1.0753
4410.00,1.0539
4409.00,1.0329
4408.00,1.0123
4407.00,0.9923
4406.00,0.9730
4405.00,0.9546
4404.00,0.9371
4403.00,0.9207
4402.00,0.9054
4401.00,0.8913
4400.00,0.8786
4399.00,0.8673
4398.00,0.8576
4397.00,0.8495
4396.00,0.8430
4395.00,0.8382
4394.00,0.8350
4393.00,0.8336
4392.00,0.8339
4391.00,0.8359
4390.00,0.8396
4389.00,0.8448
4388.00,0.8515
4387.00,0.8596
4386.00,0.8690
4385.00,0.8797
4384.00,0.8916
4383.00,0.9046
4382.00,0.9187
4381.00,0.9336
4380.00,0.9492
4379.00,0.9654
4378.00,0.9822
4377.00,0.9996
4376.00,1.0174
4375.00,1.0355
4374.00,1.0538
4373.00,1.0722
4372.00,1.0907
4371.00,1.1091
4370.00,1.1277
4369.00,1.1463
4368.00,1.1650
4367.00,1.1835
4366.00,1.2018
4365.00,1.2199
4364.00,1.2377
4363.00,1.2553
4362.00,1.2726
4361.00,1.2896
4360.00,1.3063
4359.00,1.3229
4358.00,1.3393
4357.00,1.3555
4356.00,1.3716
4355.00,1.3873
4354.00,1.4026
4353.00,1.4175
4352.00,1.4319
4351.00,1.4459
4350.00,1.4595
4349.00,1.4727
4348.00,1.4853
4347.00,1.4973
4346.00,1.5088
4345.00,1.5198
4344.00,1.5304
4343.00,1.5405
4342.00,1.5501
4341.00,1.5593
4340.00,1.5680
4339.00,1.5761
4338.00,1.5835
4337.00,1.5903
4336.00,1.5964
4335.00,1.6021
4334.00,1.6075
4333.00,1.6126
4332.00,1.6177
4331.00,1.6226
4330.00,1.6272
4329.00,1.6311
4328.00,1.6341
4327.00,1.6362
4326.00,1.6376
4325.00,1.6384
4324.00,1.6390
4323.00,1.6394
4322.00,1.6394
4321.00,1.6391
4320.00,1.6382
4319.00,1.6366
4318.00,1.6342
4317.00,1.6315
4316.00,1.6284
4315.00,1.6250
4314.00,1.6210
4313.00,1.6165
4312.00,1.6114
4311.00,1.6059
4310.00,1.6001
4309.00,1.5940
4308.00,1.5874
4307.00,1.5800
4306.00,1.5717
4305.00,1.5628
4304.00,1.5532
4303.00,1.5430
4302.00,1.5324
4301.00,1.5212
4300.00,1.5095
4299.00,1.4971
4298.00,1.4843
4297.00,1.4711
4296.00,1.4575
4295.00,1.4434
4294.00,1.4286
4293.00,1.4131
4292.00,1.3969
4291.00,1.3802
4290.00,1.3630
4289.00,1.3454
4288.00,1.3273
4287.00,1.3089
4286.00,1.2902
4285.00,1.2711
4284.00,1.2516
4283.00,1.2317
4282.00,1.2113
4281.00,1.1907
4280.00,1.1699
4279.00,1.1490
4278.00,1.1280
4277.00,1.1071
4276.00,1.0861
4275.00,1.0654
4274.00,1.0449
4273.00,1.0250
4272.00,1.0056
4271.00,0.9870
4270.00,0.9691
4269.00,0.9520
4268.00,0.9358
4267.00,0.9206
4266.00,0.9066
4265.00,0.8938
4264.00,0.8824
4263.00,0.8723
4262.00,0.8638
4261.00,0.8568
4260.00,0.8515
4259.00,0.8479
4258.00,0.8461
4257.00,0.8461
4256.00,0.8478
4255.00,0.8514
4254.00,0.8567
4253.00,0.8636
4252.00,0.8723
4251.00,0.8826
4250.00,0.8944
4249.00,0.9075
4248.00,0.9219
4247.00,0.9373
4246.00,0.9538
4245.00,0.9711
4244.00,0.9893
4243.00,1.0081
4242.00,1.0276
4241.00,1.0477
4240.00,1.0683
4239.00,1.0893
4238.00,1.1104
4237.00,1.1316
4236.00,1.1528
4235.00,1.1741
4234.00,1.1953
4233.00,1.2163
4232.00,1.2371
4231.00,1.2579
4230.00,1.2785
4229.00,1.2990
4228.00,1.3190
4227.00,1.3385
4226.00,1.3574
4225.00,1.3758
4224.00,1.3939
4223.00,1.4117
4222.00,1.4291
4221.00,1.4459
4220.00,1.4621
4219.00,1.4777
4218.00,1.4926
4217.00,1.5069
4216.00,1.5205
4215.00,1.5336
4214.00,1.5460
4213.00,1.5580
4212.00,1.5695
4211.00,1.5804
4210.00,1.5906
4209.00,1.6001
4208.00,1.6090
4207.00,1.6177
4206.00,1.6261
4205.00,1.6341
4204.00,1.6415
4203.00,1.6481
4202.00,1.6539
4201.00,1.6592
4200.00,1.6640
4199.00,1.6686
4198.00,1.6728
4197.00,1.6765
4196.00,1.6798
4195.00,1.6825
4194.00,1.6846
4193.00,1.6861
4192.00,1.6871
4191.00,1.6878
4190.00,1.6880
4189.00,1.6877
4188.00,1.6868
4187.00,1.6853
4186.00,1.6834
4185.00,1.6812
4184.00,1.6786
4183.00,1.6754
4182.00,1.6716
4181.00,1.6671
4180.00,1.6621
4179.00,1.6569
4178.00,1.6515
4177.00,1.6457
4176.00,1.6391
4175.00,1.6316
4174.00,1.6232
4173.00,1.6143
4172.00,1.6050
4171.00,1.5953
4170.00,1.5852
4169.00,1.5746
4168.00,1.5634
4167.00,1.5517
4166.00,1.5393
4165.00,1.5263
4164.00,1.5126
4163.00,1.4984
4162.00,1.4834
4161.00,1.4677
4160.00,1.4515
4159.00,1.4347
4158.00,1.4171
4157.00,1.3989
4156.00,1.3799
4155.00,1.3602
4154.00,1.3400
4153.00,1.3192
4152.00,1.2978
4151.00,1.2759
4150.00,1.2535
4149.00,1.2307
4148.00,1.2074
4147.00,1.1839
4146.00,1.1603
4145.00,1.1366
4144.00,1.1129
4143.00,1.0895
4142.00,1.0664
4141.00,1.0439
4140.00,1.0220
4139.00,1.0008
4138.00,0.9805
4137.00,0.9612
4136.00,0.9431
4135.00,0.9263
4134.00,0.9110
4133.00,0.8972
4132.00,0.8852
4131.00,0.8749
4130.00,0.8666
4129.00,0.8601
4128.00,0.8557
4127.00,0.8531
4126.00,0.8524
4125.00,0.8536
4124.00,0.8568
4123.00,0.8618
4122.00,0.8687
4121.00,0.8774
4120.00,0.8876
4119.00,0.8994
4118.00,0.9127
4117.00,0.9273
4116.00,0.9432
4115.00,0.9603
4114.00,0.9783
4113.00,0.9972
4112.00,1.0169
4111.00,1.0372
4110.00,1.0580
4109.00,1.0791
4108.00,1.1005
4107.00,1.1224
4106.00,1.1446
4105.00,1.1669
4104.00,1.1891
4103.00,1.2111
4102.00,1.2329
4101.00,1.2545
4100.00,1.2760
4099.00,1.2973
4098.00,1.3183
4097.00,1.3391
4096.00,1.3596
4095.00,1.3797
4094.00,1.3994
4093.00,1.4186
4092.00,1.4372
4091.00,1.4554
4090.00,1.4731
4089.00,1.4902
4088.00,1.5067
4087.00,1.5225
4086.00,1.5376
4085.00,1.5521
4084.00,1.5659
4083.00,1.5791
4082.00,1.5919
4081.00,1.6043
4080.00,1.6163
4079.00,1.6275
4078.00,1.6380
4077.00,1.6479
4076.00,1.6574
4075.00,1.6665
4074.00,1.6751
4073.00,1.6829
4072.00,1.6896
4071.00,1.6955
4070.00,1.7007
4069.00,1.7055
4068.00,1.7101
4067.00,1.7144
4066.00,1.7185
4065.00,1.7221
4064.00,1.7251
4063.00,1.7272
4062.00,1.7286
4061.00,1.7296
4060.00,1.7305
4059.00,1.7312
4058.00,1.7315
4057.00,1.7312
4056.00,1.7303
4055.00,1.7287
4054.00,1.7266
4053.00,1.7240
4052.00,1.7208
4051.00,1.7171
4050.00,1.7127
4049.00,1.7079
4048.00,1.7026
4047.00,1.6969
4046.00,1.6907
4045.00,1.6839
4044.00,1.6764
4043.00,1.6683
4042.00,1.6597
4041.00,1.6509
4040.00,1.6417
4039.00,1.6320
4038.00,1.6214
4037.00,1.6100
4036.00,1.5980
4035.00,1.5853
4034.00,1.5719
4033.00,1.5577
4032.00,1.5426
4031.00,1.5269
4030.00,1.5107
4029.00,1.4940
4028.00,1.4768
4027.00,1.4588
4026.00,1.4401
4025.00,1.4208
4024.00,1.4008
4023.00,1.3803
4022.00,1.3592
4021.00,1.3376
4020.00,1.3155
4019.00,1.2929
4018.00,1.2697
4017.00,1.2460
4016.00,1.2220
4015.00,1.1976
4014.00,1.1731
4013.00,1.1486
4012.00,1.1241
4011.00,1.0997
4010.00,1.0754
4009.00,1.0515
4008.00,1.0282
4007.00,1.0057
4006.00,0.9841
4005.00,0.9636
4004.00,0.9444
4003.00,0.9266
4002.00,0.9104
4001.00,0.8959
4000.00,0.8833
3999.00,0.8726
3998.00,0.8639
3997.00,0.8575
3996.00,0.8533
3995.00,0.8513
3994.00,0.8517
3993.00,0.8542
3992.00,0.8590
3991.00,0.8661
3990.00,0.8753
3989.00,0.8865
3988.00,0.8995
3987.00,0.9141
3986.00,0.9303
3985.00,0.9479
3984.00,0.9667
3983.00,0.9866
3982.00,1.0074
3981.00,1.0289
3980.00,1.0511
3979.00,1.0738
3978.00,1.0969
3977.00,1.1203
3976.00,1.1440
3975.00,1.1678
3974.00,1.1917
3973.00,1.2156
3972.00,1.2394
3971.00,1.2630
3970.00,1.2864
3969.00,1.3094
3968.00,1.3322
3967.00,1.3547
3966.00,1.3768
3965.00,1.3985
3964.00,1.4195
3963.00,1.4400
3962.00,1.4601
3961.00,1.4799
3960.00,1.4994
3959.00,1.5182
3958.00,1.5363
3957.00,1.5536
3956.00,1.5701
3955.00,1.5859
3954.00,1.6010
3953.00,1.6155
3952.00,1.6294
3951.00,1.6425
3950.00,1.6548
3949.00,1.6663
3948.00,1.6774
3947.00,1.6882
3946.00,1.6986
3945.00,1.7082
3944.00,1.7170
3943.00,1.7251
3942.00,1.7328
3941.00,1.7400
3940.00,1.7468
3939.00,1.7533
3938.00,1.7594
3937.00,1.7653
3936.00,1.7707
3935.00,1.7753
3934.00,1.7787
3933.00,1.7812
3932.00,1.7831
3931.00,1.7848
3930.00,1.7863
3929.00,1.7876
3928.00,1.7883
3927.00,1.7884
3926.00,1.7878
3925.00,1.7865
3924.00,1.7849
3923.00,1.7828
3922.00,1.7802
3921.00,1.7772
3920.00,1.7740
3919.00,1.7708
3918.00,1.7674
3917.00,1.7635
3916.00,1.7590
3915.00,1.7537
3914.00,1.7474
3913.00,1.7403
3912.00,1.7326
3911.00,1.7242
3910.00,1.7153
3909.00,1.7058
3908.00,1.6959
3907.00,1.6853
3906.00,1.6738
3905.00,1.6615
3904.00,1.6485
3903.00,1.6349
3902.00,1.6208
3901.00,1.6060
3900.00,1.5903
3899.00,1.5739
3898.00,1.5566
3897.00,1.5386
3896.00,1.5201
3895.00,1.5008
3894.00,1.4807
3893.00,1.4593
3892.00,1.4365
3891.00,1.4126
3890.00,1.3882
3889.00,1.3641
3888.00,1.3399
3887.00,1.3146
3886.00,1.2877
3885.00,1.2595
3884.00,1.2316
3883.00,1.2043
3882.00,1.1767
3881.00,1.1481
3880.00,1.1189
3879.00,1.0904
3878.00,1.0636
3877.00,1.0385
3876.00,1.0143
3875.00,0.9904
3874.00,0.9672
3873.00,0.9457
3872.00,0.9263
3871.00,0.9081
3870.00,0.8909
3869.00,0.8754
3868.00,0.8627
3867.00,0.8535
3866.00,0.8476
3865.00,0.8443
3864.00,0.8433
3863.00,0.8445
3862.00,0.8480
3861.00,0.8539
3860.00,0.8623
3859.00,0.8731
3858.00,0.8860
3857.00,0.9003
3856.00,0.9161
3855.00,0.9343
3854.00,0.9559
3853.00,0.9805
3852.00,1.0063
3851.00,1.0310
3850.00,1.0536
3849.00,1.0751
3848.00,1.0973
3847.00,1.1204
3846.00,1.1445
3845.00,1.1694
3844.00,1.1950
3843.00,1.2210
3842.00,1.2467
3841.00,1.2717
3840.00,1.2962
3839.00,1.3206
3838.00,1.3457
3837.00,1.3715
3836.00,1.3971
3835.00,1.4219
3834.00,1.4457
3833.00,1.4689
3832.00,1.4917
3831.00,1.5138
3830.00,1.5351
3829.00,1.5552
3828.00,1.5742
3827.00,1.5925
3826.00,1.6102
3825.00,1.6270
3824.00,1.6425
3823.00,1.6568
3822.00,1.6711
3821.00,1.6857
3820.00,1.7003
3819.00,1.7137
3818.00,1.7255
3817.00,1.7362
3816.00,1.7465
3815.00,1.7564
3814.00,1.7657
3813.00,1.7745
3812.00,1.7828
3811.00,1.7905
3810.00,1.7976
3809.00,1.8039
3808.00,1.8096
3807.00,1.8147
3806.00,1.8194
3805.00,1.8233
3804.00,1.8260
3803.00,1.8279
3802.00,1.8295
3801.00,1.8309
3800.00,1.8316
3799.00,1.8314
3798.00,1.8307
3797.00,1.8299
3796.00,1.8293
3795.00,1.8285
3794.00,1.8275
3793.00,1.8262
3792.00,1.8242
3791.00,1.8214
3790.00,1.8176
3789.00,1.8127
3788.00,1.8068
3787.00,1.8003
3786.00,1.7936
3785.00,1.7864
3784.00,1.7786
3783.00,1.7703
3782.00,1.7620
3781.00,1.7536
3780.00,1.7448
3779.00,1.7357
3778.00,1.7261
3777.00,1.7158
3776.00,1.7047
3775.00,1.6932
3774.00,1.6815
3773.00,1.6693
3772.00,1.6559
3771.00,1.6414
3770.00,1.6259
3769.00,1.6097
3768.00,1.5927
3767.00,1.5749
3766.00,1.5560
3765.00,1.5359
3764.00,1.5151
3763.00,1.4939
3762.00,1.4721
3761.00,1.4489
3760.00,1.4239
3759.00,1.3975
3758.00,1.3701
3757.00,1.3420
3756.00,1.3139
3755.00,1.2862
3754.00,1.2585
3753.00,1.2298
3752.00,1.1994
3751.00,1.1668
3750.00,1.1330
3749.00,1.0996
3748.00,1.0687
3747.00,1.0415
3746.00,1.0165
3745.00,0.9912
3744.00,0.9652
3743.00,0.9411
3742.00,0.9212
3741.00,0.9052
3740.00,0.8916
3739.00,0.8798
3738.00,0.8706
3737.00,0.8644
3736.00,0.8609
3735.00,0.8601
3734.00,0.8622
3733.00,0.8670
3732.00,0.8745
3731.00,0.8846
3730.00,0.8969
3729.00,0.9113
3728.00,0.9279
3727.00,0.9471
3726.00,0.9688
3725.00,0.9923
3724.00,1.0172
3723.00,1.0429
3722.00,1.0694
3721.00,1.0965
3720.00,1.1244
3719.00,1.1528
3718.00,1.1819
3717.00,1.2114
3716.00,1.2407
3715.00,1.2695
3714.00,1.2979
3713.00,1.3271
3712.00,1.3576
3711.00,1.3889
3710.00,1.4193
3709.00,1.4475
3708.00,1.4741
3707.00,1.5002
3706.00,1.5260
3705.00,1.5505
3704.00,1.5730
3703.00,1.5938
3702.00,1.6138
3701.00,1.6338
3700.00,1.6539
3699.00,1.6737
3698.00,1.6927
3697.00,1.7108
3696.00,1.7280
3695.00,1.7440
3694.00,1.7585
3693.00,1.7720
3692.00,1.7850
3691.00,1.7977
3690.00,1.8102
3689.00,1.8225
3688.00,1.8343
3687.00,1.8449
3686.00,1.8546
3685.00,1.8641
3684.00,1.8733
3683.00,1.8818
3682.00,1.8892
3681.00,1.8958
3680.00,1.9019
3679.00,1.9072
3678.00,1.9118
3677.00,1.9156
3676.00,1.9191
3675.00,1.9221
3674.00,1.9245
3673.00,1.9261
3672.00,1.9270
3671.00,1.9273
3670.00,1.9273
3669.00,1.9270
3668.00,1.9267
3667.00,1.9260
3666.00,1.9249
3665.00,1.9234
3664.00,1.9214
3663.00,1.9187
3662.00,1.9151
3661.00,1.9110
3660.00,1.9065
3659.00,1.9015
3658.00,1.8957
3657.00,1.8893
3656.00,1.8824
3655.00,1.8752
3654.00,1.8678
3653.00,1.8601
3652.00,1.8517
3651.00,1.8422
3650.00,1.8314
3649.00,1.8197
3648.00,1.8074
3647.00,1.7945
3646.00,1.7817
3645.00,1.7699
3644.00,1.7590
3643.00,1.7480
3642.00,1.7359
3641.00,1.7229
3640.00,1.7093
3639.00,1.6952
3638.00,1.6809
3637.00,1.6664
3636.00,1.6517
3635.00,1.6368
3634.00,1.6219
3633.00,1.6074
3632.00,1.5933
3631.00,1.5790
3630.00,1.5638
3629.00,1.5475
3628.00,1.5308
3627.00,1.5148
3626.00,1.4999
3625.00,1.4857
3624.00,1.4721
3623.00,1.4592
3622.00,1.4472
3621.00,1.4362
3620.00,1.4258
3619.00,1.4160
3618.00,1.4070
3617.00,1.3990
3616.00,1.3922
3615.00,1.3865
3614.00,1.3821
3613.00,1.3790
3612.00,1.3772
3611.00,1.3768
3610.00,1.3775
3609.00,1.3791
3608.00,1.3812
3607.00,1.3837
3606.00,1.3870
3605.00,1.3911
3604.00,1.3961
3603.00,1.4018
3602.00,1.4081
3601.00,1.4150
3600.00,1.4230
3599.00,1.4318
3598.00,1.4413
3597.00,1.4515
3596.00,1.4626
3595.00,1.4748
3594.00,1.4880
3593.00,1.5019
3592.00,1.5161
3591.00,1.5305
3590.00,1.5449
3589.00,1.5598
3588.00,1.5756
3587.00,1.5925
3586.00,1.6098
3585.00,1.6268
3584.00,1.6431
3583.00,1.6588
3582.00,1.6741
3581.00,1.6893
3580.00,1.7046
3579.00,1.7200
3578.00,1.7356
3577.00,1.7513
3576.00,1.7668
3575.00,1.7820
3574.00,1.7968
3573.00,1.8112
3572.00,1.8251
3571.00,1.8384
3570.00,1.8514
3569.00,1.8644
3568.00,1.8778
3567.00,1.8913
3566.00,1.9044
3565.00,1.9169
3564.00,1.9285
3563.00,1.9394
3562.00,1.9502
3561.00,1.9609
3560.00,1.9713
3559.00,1.9810
3558.00,1.9898
3557.00,1.9981
3556.00,2.0058
3555.00,2.0128
3554.00,2.0194
3553.00,2.0261
3552.00,2.0332
3551.00,2.0404
3550.00,2.0471
3549.00,2.0532
3548.00,2.0588
3547.00,2.0640
3546.00,2.0688
3545.00,2.0731
3544.00,2.0767
3543.00,2.0796
3542.00,2.0820
3541.00,2.0841
3540.00,2.0861
3539.00,2.0877
3538.00,2.0893
3537.00,2.0911
3536.00,2.0930
3535.00,2.0941
3534.00,2.0938
3533.00,2.0925
3532.00,2.0911
3531.00,2.0902
3530.00,2.0894
3529.00,2.0880
3528.00,2.0857
3527.00,2.0828
3526.00,2.0803
3525.00,2.0785
3524.00,2.0771
3523.00,2.0751
3522.00,2.0722
3521.00,2.0683
3520.00,2.0636
3519.00,2.0585
3518.00,2.0535
3517.00,2.0487
3516.00,2.0438
3515.00,2.0386
3514.00,2.0328
3513.00,2.0266
3512.00,2.0197
3511.00,2.0119
3510.00,2.0036
3509.00,1.9952
3508.00,1.9870
3507.00,1.9785
3506.00,1.9693
3505.00,1.9595
3504.00,1.9493
3503.00,1.9388
3502.00,1.9281
3501.00,1.9174
3500.00,1.9067
3499.00,1.8958
3498.00,1.8846
3497.00,1.8728
3496.00,1.8606
3495.00,1.8480
3494.00,1.8354
3493.00,1.8227
3492.00,1.8099
3491.00,1.7969
3490.00,1.7838
3489.00,1.7705
3488.00,1.7570
3487.00,1.7433
3486.00,1.7297
3485.00,1.7165
3484.00,1.7038
3483.00,1.6913
3482.00,1.6791
3481.00,1.6671
3480.00,1.6554
3479.00,1.6442
3478.00,1.6336
3477.00,1.6239
3476.00,1.6148
3475.00,1.6062
3474.00,1.5984
3473.00,1.5912
3472.00,1.5848
3471.00,1.5791
3470.00,1.5742
3469.00,1.5704
3468.00,1.5676
3467.00,1.5657
3466.00,1.5651
3465.00,1.5656
3464.00,1.5674
3463.00,1.5701
3462.00,1.5735
3461.00,1.5778
3460.00,1.5829
3459.00,1.5888
3458.00,1.5957
3457.00,1.6036
3456.00,1.6128
3455.00,1.6228
3454.00,1.6334
3453.00,1.6444
3452.00,1.6557
3451.00,1.6673
3450.00,1.6794
3449.00,1.6921
3448.00,1.7054
3447.00,1.7192
3446.00,1.7331
3445.00,1.7472
3444.00,1.7613
3443.00,1.7756
3442.00,1.7900
3441.00,1.8043
3440.00,1.8186
3439.00,1.8329
3438.00,1.8471
3437.00,1.8615
3436.00,1.8757
3435.00,1.8897
3434.00,1.9036
3433.00,1.9173
3432.00,1.9306
3431.00,1.9433
3430.00,1.9555
3429.00,1.9673
3428.00,1.9790
3427.00,1.9905
3426.00,2.0017
3425.00,2.0126
3424.00,2.0234
3423.00,2.0341
3422.00,2.0443
3421.00,2.0537
3420.00,2.0624
3419.00,2.0710
3418.00,2.0796
3417.00,2.0881
3416.00,2.0957
3415.00,2.1024
3414.00,2.1086
3413.00,2.1149
3412.00,2.1213
3411.00,2.1270
3410.00,2.1316
3409.00,2.1353
3408.00,2.1385
3407.00,2.1416
3406.00,2.1446
3405.00,2.1475
3404.00,2.1501
3403.00,2.1517
3402.00,2.1522
3401.00,2.1518
3400.00,2.1507
3399.00,2.1494
3398.00,2.1481
3397.00,2.1469
3396.00,2.1455
3395.00,2.1435
3394.00,2.1410
3393.00,2.1382
3392.00,2.1351
3391.00,2.1318
3390.00,2.1281
3389.00,2.1241
3388.00,2.1198
3387.00,2.1150
3386.00,2.1095
3385.00,2.1035
3384.00,2.0974
3383.00,2.0914
3382.00,2.0852
3381.00,2.0784
3380.00,2.0707
3379.00,2.0620
3378.00,2.0526
3377.00,2.0426
3376.00,2.0325
3375.00,2.0222
3374.00,2.0118
3373.00,2.0012
3372.00,1.9900
3371.00,1.9782
3370.00,1.9657
3369.00,1.9523
3368.00,1.9379
3367.00,1.9229
3366.00,1.9074
3365.00,1.8915
3364.00,1.8750
3363.00,1.8581
3362.00,1.8412
3361.00,1.8243
3360.00,1.8072
3359.00,1.7893
3358.00,1.7707
3357.00,1.7517
3356.00,1.7327
3355.00,1.7138
3354.00,1.6949
3353.00,1.6757
3352.00,1.6561
3351.00,1.6364
3350.00,1.6169
3349.00,1.5979
3348.00,1.5796
3347.00,1.5621
3346.00,1.5452
3345.00,1.5289
3344.00,1.5131
3343.00,1.4983
3342.00,1.4846
3341.00,1.4722
3340.00,1.4612
3339.00,1.4517
3338.00,1.4437
3337.00,1.4374
3336.00,1.4328
3335.00,1.4298
3334.00,1.4286
3333.00,1.4291
3332.00,1.4313
3331.00,1.4352
3330.00,1.4407
3329.00,1.4478
3328.00,1.4563
3327.00,1.4661
3326.00,1.4771
3325.00,1.4893
3324.00,1.5026
3323.00,1.5170
3322.00,1.5325
3321.00,1.5488
3320.00,1.5658
3319.00,1.5833
3318.00,1.6012
3317.00,1.6195
3316.00,1.6383
3315.00,1.6576
3314.00,1.6773
3313.00,1.6970
3312.00,1.7165
3311.00,1.7356
3310.00,1.7545
3309.00,1.7734
3308.00,1.7921
3307.00,1.8105
3306.00,1.8284
3305.00,1.8459
3304.00,1.8631
3303.00,1.8800
3302.00,1.8966
3301.00,1.9128
3300.00,1.9285
3299.00,1.9437
3298.00,1.9585
3297.00,1.9726
3296.00,1.9859
3295.00,1.9985
3294.00,2.0107
3293.00,2.0229
3292.00,2.0350
3291.00,2.0465
3290.00,2.0574
3289.00,2.0675
3288.00,2.0766
3287.00,2.0847
3286.00,2.0924
3285.00,2.1000
3284.00,2.1073
3283.00,2.1144
3282.00,2.1213
3281.00,2.1281
3280.00,2.1344
3279.00,2.1396
3278.00,2.1437
3277.00,2.1471
3276.00,2.1504
3275.00,2.1533
3274.00,2.1559
3273.00,2.1577
3272.00,2.1588
3271.00,2.1597
3270.00,2.1611
3269.00,2.1629
3268.00,2.1642
3267.00,2.1641
3266.00,2.1625
3265.00,2.1603
3264.00,2.1579
3263.00,2.1555
3262.00,2.1530
3261.00,2.1500
3260.00,2.1461
3259.00,2.1413
3258.00,2.1365
3257.00,2.1321
3256.00,2.1280
3255.00,2.1233
3254.00,2.1176
3253.00,2.1111
3252.00,2.1040
3251.00,2.0963
3250.00,2.0879
3249.00,2.0792
3248.00,2.0701
3247.00,2.0608
3246.00,2.0509
3245.00,2.0405
3244.00,2.0298
3243.00,2.0185
3242.00,2.0068
3241.00,1.9947
3240.00,1.9822
3239.00,1.9689
3238.00,1.9549
3237.00,1.9402
3236.00,1.9249
3235.00,1.9094
3234.00,1.8937
3233.00,1.8778
3232.00,1.8618
3231.00,1.8455
3230.00,1.8290
3229.00,1.8121
3228.00,1.7948
3227.00,1.7772
3226.00,1.7595
3225.00,1.7418
3224.00,1.7242
3223.00,1.7069
3222.00,1.6899
3221.00,1.6731
3220.00,1.6567
3219.00,1.6405
3218.00,1.6249
3217.00,1.6102
3216.00,1.5965
3215.00,1.5839
3214.00,1.5724
3213.00,1.5618
3212.00,1.5524
3211.00,1.5441
3210.00,1.5370
3209.00,1.5314
3208.00,1.5273
3207.00,1.5248
3206.00,1.5239
3205.00,1.5246
3204.00,1.5269
3203.00,1.5308
3202.00,1.5361
3201.00,1.5427
3200.00,1.5506
3199.00,1.5597
3198.00,1.5700
3197.00,1.5816
3196.00,1.5942
3195.00,1.6079
3194.00,1.6224
3193.00,1.6378
3192.00,1.6539
3191.00,1.6705
3190.00,1.6877
3189.00,1.7054
3188.00,1.7234
3187.00,1.7415
3186.00,1.7594
3185.00,1.7773
3184.00,1.7953
3183.00,1.8134
3182.00,1.8318
3181.00,1.8502
3180.00,1.8683
3179.00,1.8857
3178.00,1.9026
3177.00,1.9195
3176.00,1.9363
3175.00,1.9529
3174.00,1.9688
3173.00,1.9840
3172.00,1.9987
3171.00,2.0128
3170.00,2.0265
3169.00,2.0399
3168.00,2.0531
3167.00,2.0656
3166.00,2.0772
3165.00,2.0879
3164.00,2.0981
3163.00,2.1080
3162.00,2.1179
3161.00,2.1276
3160.00,2.1367
3159.00,2.1445
3158.00,2.1512
3157.00,2.1579
3156.00,2.1652
3155.00,2.1729
3154.00,2.1802
3153.00,2.1863
3152.00,2.1911
3151.00,2.1950
3150.00,2.1983
3149.00,2.2011
3148.00,2.2037
3147.00,2.2062
3146.00,2.2088
3145.00,2.2116
3144.00,2.2146
3143.00,2.2174
3142.00,2.2198
3141.00,2.2219
3140.00,2.2236
3139.00,2.2248
3138.00,2.2253
3137.00,2.2247
3136.00,2.2227
3135.00,2.2193
3134.00,2.2151
3133.00,2.2109
3132.00,2.2069
3131.00,2.2029
3130.00,2.1985
3129.00,2.1932
3128.00,2.1870
3127.00,2.1801
3126.00,2.1731
3125.00,2.1661
3124.00,2.1589
3123.00,2.1513
3122.00,2.1432
3121.00,2.1343
3120.00,2.1245
3119.00,2.1137
3118.00,2.1024
3117.00,2.0909
3116.00,2.0791
3115.00,2.0662
3114.00,2.0520
3113.00,2.0369
3112.00,2.0214
3111.00,2.0058
3110.00,1.9899
3109.00,1.9737
3108.00,1.9570
3107.00,1.9395
3106.00,1.9214
3105.00,1.9028
3104.00,1.8839
3103.00,1.8646
3102.00,1.8451
3101.00,1.8255
3100.00,1.8058
3099.00,1.7859
3098.00,1.7659
3097.00,1.7459
3096.00,1.7264
3095.00,1.7074
3094.00,1.6892
3093.00,1.6716
3092.00,1.6548
3091.00,1.6389
3090.00,1.6241
3089.00,1.6109
3088.00,1.5995
3087.00,1.5898
3086.00,1.5819
3085.00,1.5756
3084.00,1.5713
3083.00,1.5690
3082.00,1.5689
3081.00,1.5709
3080.00,1.5750
3079.00,1.5812
3078.00,1.5893
3077.00,1.5994
3076.00,1.6113
3075.00,1.6249
3074.00,1.6397
3073.00,1.6559
3072.00,1.6734
3071.00,1.6921
3070.00,1.7121
3069.00,1.7329
3068.00,1.7544
3067.00,1.7761
3066.00,1.7979
3065.00,1.8197
3064.00,1.8417
3063.00,1.8638
3062.00,1.8859
3061.00,1.9078
3060.00,1.9292
3059.00,1.9501
3058.00,1.9704
3057.00,1.9902
3056.00,2.0097
3055.00,2.0288
3054.00,2.0474
3053.00,2.0656
3052.00,2.0835
3051.00,2.1011
3050.00,2.1178
3049.00,2.1332
3048.00,2.1473
3047.00,2.1609
3046.00,2.1742
3045.00,2.1872
3044.00,2.1992
3043.00,2.2102
3042.00,2.2203
3041.00,2.2301
3040.00,2.2399
3039.00,2.2496
3038.00,2.2589
3037.00,2.2672
3036.00,2.2742
3035.00,2.2800
3034.00,2.2849
3033.00,2.2890
3032.00,2.2927
3031.00,2.2960
3030.00,2.2989
3029.00,2.3012
3028.00,2.3030
3027.00,2.3044
3026.00,2.3053
3025.00,2.3050
3024.00,2.3029
3023.00,2.2992
3022.00,2.2948
3021.00,2.2898
3020.00,2.2835
3019.00,2.2757
3018.00,2.2670
3017.00,2.2580
3016.00,2.2489
3015.00,2.2391
3014.00,2.2281
3013.00,2.2157
3012.00,2.2019
3011.00,2.1866
3010.00,2.1702
3009.00,2.1528
3008.00,2.1346
3007.00,2.1152
3006.00,2.0944
3005.00,2.0723
3004.00,2.0498
3003.00,2.0274
3002.00,2.0055
3001.00,1.9842
3000.00,1.9637
2999.00,1.9447
2998.00,1.9279
2997.00,1.9142
2996.00,1.9042
2995.00,1.8983
2994.00,1.8972
2993.00,1.9013
2992.00,1.9113
2991.00,1.9272
2990.00,1.9491
2989.00,1.9768
2988.00,2.0099
2987.00,2.0480
2986.00,2.0902
2985.00,2.1357
2984.00,2.1835
2983.00,2.2332
2982.00,2.2848
2981.00,2.3384
2980.00,2.3939
2979.00,2.4506
2978.00,2.5076
2977.00,2.5640
2976.00,2.6198
2975.00,2.6764
2974.00,2.7362
2973.00,2.8006
2972.00,2.8683
2971.00,2.9368
2970.00,3.0056
2969.00,3.0754
2968.00,3.1454
2967.00,3.2126
2966.00,3.2753
2965.00,3.3348
2964.00,3.3916
2963.00,3.4456
2962.00,3.4987
2961.00,3.5528
2960.00,3.6031
2959.00,3.6399
2958.00,3.6625
2957.00,3.6842
2956.00,3.7192
2955.00,3.7708
2954.00,3.8291
2953.00,3.8763
2952.00,3.8949
2951.00,3.8812
2950.00,3.8550
2949.00,3.8467
2948.00,3.8759
2947.00,3.9396
2946.00,4.0143
2945.00,4.0856
2944.00,4.1739
2943.00,4.3048
2942.00,4.4434
2941.00,4.4664
2940.00,4.3705
2939.00,4.2920
2938.00,4.2991
2937.00,4.3988
2936.00,4.5443
2935.00,4.6192
2934.00,4.5329
2933.00,4.3992
2932.00,4.3324
2931.00,4.3541
2930.00,4.4366
2929.00,4.4864
2928.00,4.4032
2927.00,4.2835
2926.00,4.2143
2925.00,4.2017
2924.00,4.1895
2923.00,4.1351
2922.00,4.0647
2921.00,4.0033
2920.00,3.9483
2919.00,3.8779
2918.00,3.7819
2917.00,3.6750
2916.00,3.5774
2915.00,3.4998
2914.00,3.4421
2913.00,3.3965
2912.00,3.3514
2911.00,3.2991
2910.00,3.2422
2909.00,3.1891
2908.00,3.1467
2907.00,3.1159
2906.00,3.0927
2905.00,3.0703
2904.00,3.0440
2903.00,3.0135
2902.00,2.9816
2901.00,2.9511
2900.00,2.9227
2899.00,2.8963
2898.00,2.8720
2897.00,2.8502
2896.00,2.8301
2895.00,2.8109
2894.00,2.7924
2893.00,2.7754
2892.00,2.7611
2891.00,2.7504
2890.00,2.7431
2889.00,2.7384
2888.00,2.7355
2887.00,2.7350
2886.00,2.7387
2885.00,2.7475
2884.00,2.7612
2883.00,2.7789
2882.00,2.8007
2881.00,2.8273
2880.00,2.8594
2879.00,2.8971
2878.00,2.9393
2877.00,2.9839
2876.00,3.0282
2875.00,3.0726
2874.00,3.1214
2873.00,3.1803
2872.00,3.2506
2871.00,3.3268
2870.00,3.4006
2869.00,3.4683
2868.00,3.5340
2867.00,3.6023
2866.00,3.6703
2865.00,3.7334
2864.00,3.7923
2863.00,3.8476
2862.00,3.8910
2861.00,3.9026
2860.00,3.8578
2859.00,3.7596
2858.00,3.6375
2857.00,3.5125
2856.00,3.3902
2855.00,3.2726
2854.00,3.1617
2853.00,3.0554
2852.00,2.9505
2851.00,2.8469
2850.00,2.7473
2849.00,2.6544
2848.00,2.5699
2847.00,2.4945
2846.00,2.4288
2845.00,2.3732
2844.00,2.3280
2843.00,2.2935
2842.00,2.2696
2841.00,2.2556
2840.00,2.2502
2839.00,2.2513
2838.00,2.2572
2837.00,2.2663
2836.00,2.2778
2835.00,2.2911
2834.00,2.3056
2833.00,2.3206
2832.00,2.3350
2831.00,2.3482
2830.00,2.3600
2829.00,2.3707
2828.00,2.3805
2827.00,2.3897
2826.00,2.3984
2825.00,2.4064
2824.00,2.4132
2823.00,2.4181
2822.00,2.4215
2821.00,2.4242
2820.00,2.4267
2819.00,2.4288
2818.00,2.4300
2817.00,2.4301
2816.00,2.4293
2815.00,2.4283
2814.00,2.4272
2813.00,2.4260
2812.00,2.4239
2811.00,2.4204
2810.00,2.4154
2809.00,2.4090
2808.00,2.4016
2807.00,2.3935
2806.00,2.3854
2805.00,2.3774
2804.00,2.3690
2803.00,2.3596
2802.00,2.3489
2801.00,2.3375
2800.00,2.3254
2799.00,2.3127
2798.00,2.2994
2797.00,2.2855
2796.00,2.2708
2795.00,2.2546
2794.00,2.2368
2793.00,2.2174
2792.00,2.1966
2791.00,2.1745
2790.00,2.1509
2789.00,2.1257
2788.00,2.0989
2787.00,2.0705
2786.00,2.0406
2785.00,2.0090
2784.00,1.9758
2783.00,1.9412
2782.00,1.9057
2781.00,1.8698
2780.00,1.8335
2779.00,1.7969
2778.00,1.7598
2777.00,1.7224
2776.00,1.6849
2775.00,1.6480
2774.00,1.6122
2773.00,1.5781
2772.00,1.5461
2771.00,1.5168
2770.00,1.4908
2769.00,1.4686
2768.00,1.4506
2767.00,1.4371
2766.00,1.4282
2765.00,1.4238
2764.00,1.4239
2763.00,1.4282
2762.00,1.4362
2761.00,1.4477
2760.00,1.4624
2759.00,1.4800
2758.00,1.5002
2757.00,1.5231
2756.00,1.5484
2755.00,1.5762
2754.00,1.6058
2753.00,1.6370
2752.00,1.6692
2751.00,1.7025
2750.00,1.7365
2749.00,1.7710
2748.00,1.8058
2747.00,1.8402
2746.00,1.8741
2745.00,1.9073
2744.00,1.9395
2743.00,1.9704
2742.00,1.9999
2741.00,2.0280
2740.00,2.0549
2739.00,2.0810
2738.00,2.1063
2737.00,2.1308
2736.00,2.1543
2735.00,2.1769
2734.00,2.1984
2733.00,2.2186
2732.00,2.2370
2731.00,2.2539
2730.00,2.2699
2729.00,2.2855
2728.00,2.3007
2727.00,2.3153
2726.00,2.3289
2725.00,2.3415
2724.00,2.3532
2723.00,2.3643
2722.00,2.3750
2721.00,2.3847
2720.00,2.3927
2719.00,2.3989
2718.00,2.4039
2717.00,2.4087
2716.00,2.4136
2715.00,2.4190
2714.00,2.4247
2713.00,2.4304
2712.00,2.4350
2711.00,2.4379
2710.00,2.4396
2709.00,2.4410
2708.00,2.4431
2707.00,2.4456
2706.00,2.4475
2705.00,2.4473
2704.00,2.4440
2703.00,2.4386
2702.00,2.4329
2701.00,2.4285
2700.00,2.4250
2699.00,2.4214
2698.00,2.4175
2697.00,2.4132
2696.00,2.4084
2695.00,2.4024
2694.00,2.3953
2693.00,2.3875
2692.00,2.3789
2691.00,2.3694
2690.00,2.3585
2689.00,2.3467
2688.00,2.3346
2687.00,2.3224
2686.00,2.3103
2685.00,2.2978
2684.00,2.2849
2683.00,2.2714
2682.00,2.2572
2681.00,2.2429
2680.00,2.2285
2679.00,2.2144
2678.00,2.2008
2677.00,2.1872
2676.00,2.1733
2675.00,2.1588
2674.00,2.1434
2673.00,2.1268
2672.00,2.1089
2671.00,2.0898
2670.00,2.0701
2669.00,2.0500
2668.00,2.0288
2667.00,2.0052
2666.00,1.9785
2665.00,1.9488
2664.00,1.9165
2663.00,1.8823
2662.00,1.8467
2661.00,1.8104
2660.00,1.7739
2659.00,1.7376
2658.00,1.7023
2657.00,1.6683
2656.00,1.6362
2655.00,1.6063
2654.00,1.5786
2653.00,1.5532
2652.00,1.5302
2651.00,1.5095
2650.00,1.4914
2649.00,1.4760
2648.00,1.4633
2647.00,1.4534
2646.00,1.4464
2645.00,1.4424
2644.00,1.4416
2643.00,1.4443
2642.00,1.4507
2641.00,1.4609
2640.00,1.4749
2639.00,1.4927
2638.00,1.5139
2637.00,1.5382
2636.00,1.5654
2635.00,1.5950
2634.00,1.6266
2633.00,1.6597
2632.00,1.6938
2631.00,1.7284
2630.00,1.7633
2629.00,1.7983
2628.00,1.8332
2627.00,1.8677
2626.00,1.9016
2625.00,1.9348
2624.00,1.9672
2623.00,1.9988
2622.00,2.0294
2621.00,2.0588
2620.00,2.0868
2619.00,2.1133
2618.00,2.1386
2617.00,2.1629
2616.00,2.1864
2615.00,2.2088
2614.00,2.2301
2613.00,2.2500
2612.00,2.2685
2611.00,2.2856
2610.00,2.3018
2609.00,2.3175
2608.00,2.3322
2607.00,2.3458
2606.00,2.3584
2605.00,2.3708
2604.00,2.3836
2603.00,2.3965
2602.00,2.4088
2601.00,2.4201
2600.00,2.4306
2599.00,2.4406
2598.00,2.4506
2597.00,2.4599
2596.00,2.4679
2595.00,2.4745
2594.00,2.4808
2593.00,2.4873
2592.00,2.4933
2591.00,2.4984
2590.00,2.5031
2589.00,2.5084
2588.00,2.5140
2587.00,2.5190
2586.00,2.5229
2585.00,2.5261
2584.00,2.5287
2583.00,2.5303
2582.00,2.5309
2581.00,2.5305
2580.00,2.5295
2579.00,2.5277
2578.00,2.5250
2577.00,2.5218
2576.00,2.5188
2575.00,2.5161
2574.00,2.5139
2573.00,2.5117
2572.00,2.5088
2571.00,2.5041
2570.00,2.4977
2569.00,2.4907
2568.00,2.4841
2567.00,2.4774
2566.00,2.4698
2565.00,2.4606
2564.00,2.4500
2563.00,2.4387
2562.00,2.4273
2561.00,2.4159
2560.00,2.4044
2559.00,2.3926
2558.00,2.3807
2557.00,2.3685
2556.00,2.3554
2555.00,2.3404
2554.00,2.3230
2553.00,2.3037
2552.00,2.2837
2551.00,2.2634
2550.00,2.2429
2549.00,2.2217
2548.00,2.1993
2547.00,2.1756
2546.00,2.1509
2545.00,2.1254
2544.00,2.0990
2543.00,2.0716
2542.00,2.0427
2541.00,2.0123
2540.00,1.9803
2539.00,1.9468
2538.00,1.9122
2537.00,1.8765
2536.00,1.8398
2535.00,1.8020
2534.00,1.7633
2533.00,1.7242
2532.00,1.6849
2531.00,1.6457
2530.00,1.6068
2529.00,1.5688
2528.00,1.5324
2527.00,1.4981
2526.00,1.4664
2525.00,1.4378
2524.00,1.4123
2523.00,1.3906
2522.00,1.3728
2521.00,1.3593
2520.00,1.3506
2519.00,1.3469
2518.00,1.3482
2517.00,1.3547
2516.00,1.3662
2515.00,1.3825
2514.00,1.4033
2513.00,1.4282
2512.00,1.4565
2511.00,1.4879
2510.00,1.5217
2509.00,1.5574
2508.00,1.5945
2507.00,1.6327
2506.00,1.6716
2505.00,1.7107
2504.00,1.7501
2503.00,1.7895
2502.00,1.8287
2501.00,1.8674
2500.00,1.9053
2499.00,1.9421
2498.00,1.9780
2497.00,2.0130
2496.00,2.0470
2495.00,2.0795
2494.00,2.1103
2493.00,2.1397
2492.00,2.1679
2491.00,2.1951
2490.00,2.2214
2489.00,2.2465
2488.00,2.2703
2487.00,2.2928
2486.00,2.3141
2485.00,2.3347
2484.00,2.3547
2483.00,2.3742
2482.00,2.3927
2481.00,2.4095
2480.00,2.4248
2479.00,2.4391
2478.00,2.4531
2477.00,2.4665
2476.00,2.4790
2475.00,2.4903
2474.00,2.5007
2473.00,2.5100
2472.00,2.5185
2471.00,2.5270
2470.00,2.5366
2469.00,2.5470
2468.00,2.5570
2467.00,2.5650
2466.00,2.5709
2465.00,2.5752
2464.00,2.5791
2463.00,2.5834
2462.00,2.5888
2461.00,2.5947
2460.00,2.5998
2459.00,2.6028
2458.00,2.6045
2457.00,2.6058
2456.00,2.6072
2455.00,2.6081
2454.00,2.6082
2453.00,2.6073
2452.00,2.6058
2451.00,2.6041
2450.00,2.6024
2449.00,2.6002
2448.00,2.5973
2447.00,2.5938
2446.00,2.5903
2445.00,2.5867
2444.00,2.5821
2443.00,2.5766
2442.00,2.5707
2441.00,2.5646
2440.00,2.5576
2439.00,2.5495
2438.00,2.5409
2437.00,2.5326
2436.00,2.5243
2435.00,2.5150
2434.00,2.5042
2433.00,2.4921
2432.00,2.4792
2431.00,2.4658
2430.00,2.4523
2429.00,2.4386
2428.00,2.4239
2427.00,2.4076
2426.00,2.3896
2425.00,2.3708
2424.00,2.3516
2423.00,2.3324
2422.00,2.3129
2421.00,2.2927
2420.00,2.2716
2419.00,2.2488
2418.00,2.2238
2417.00,2.1968
2416.00,2.1679
2415.00,2.1376
2414.00,2.1059
2413.00,2.0724
2412.00,2.0371
2411.00,1.9997
2410.00,1.9605
2409.00,1.9195
2408.00,1.8766
2407.00,1.8319
2406.00,1.7856
2405.00,1.7380
2404.00,1.6896
2403.00,1.6410
2402.00,1.5930
2401.00,1.5462
2400.00,1.5016
2399.00,1.4600
2398.00,1.4220
2397.00,1.3885
2396.00,1.3601
2395.00,1.3374
2394.00,1.3209
2393.00,1.3110
2392.00,1.3079
2391.00,1.3115
2390.00,1.3216
2389.00,1.3379
2388.00,1.3598
2387.00,1.3865
2386.00,1.4172
2385.00,1.4510
2384.00,1.4868
2383.00,1.5236
2382.00,1.5605
2381.00,1.5967
2380.00,1.6314
2379.00,1.6638
2378.00,1.6934
2377.00,1.7201
2376.00,1.7439
2375.00,1.7653
2374.00,1.7852
2373.00,1.8045
2372.00,1.8241
2371.00,1.8442
2370.00,1.8649
2369.00,1.8869
2368.00,1.9105
2367.00,1.9350
2366.00,1.9592
2365.00,1.9825
2364.00,2.0057
2363.00,2.0286
2362.00,2.0503
2361.00,2.0704
2360.00,2.0875
2359.00,2.1017
2358.00,2.1107
2357.00,2.1250
2356.00,2.1276
2355.00,2.1524
2354.00,2.1330
2353.00,2.4288
2352.00,2.5765
2351.00,2.5312
2350.00,2.5721
2349.00,2.5663
2348.00,2.5873
2347.00,2.5953
2346.00,2.6115
2345.00,2.6256
2344.00,2.6399
2343.00,2.6530
2342.00,2.6645
2341.00,2.6747
2340.00,2.6841
2339.00,2.6925
2338.00,2.6983
2337.00,2.7010
2336.00,2.7018
2335.00,2.7031
2334.00,2.7064
2333.00,2.7086
2332.00,2.7140
2331.00,2.7105
2330.00,2.7223
2329.00,2.7067
2328.00,2.7508
2327.00,2.5071
2326.00,2.4657
2325.00,2.4833
2324.00,2.4754
2323.00,2.4802
2322.00,2.4771
2321.00,2.4777
2320.00,2.4741
2319.00,2.4676
2318.00,2.4612
2317.00,2.4578
2316.00,2.4603
2315.00,2.4653
2314.00,2.4703
2313.00,2.4720
2312.00,2.4715
2311.00,2.4697
2310.00,2.4674
2309.00,2.4636
2308.00,2.4584
2307.00,2.4534
2306.00,2.4503
2305.00,2.4490
2304.00,2.4476
2303.00,2.4456
2302.00,2.4431
2301.00,2.4403
2300.00,2.4358
2299.00,2.4283
2298.00,2.4183
2297.00,2.4066
2296.00,2.3938
2295.00,2.3799
2294.00,2.3652
2293.00,2.3494
2292.00,2.3316
2291.00,2.3109
2290.00,2.2873
2289.00,2.2620
2288.00,2.2359
2287.00,2.2088
2286.00,2.1802
2285.00,2.1499
2284.00,2.1177
2283.00,2.0834
2282.00,2.0465
2281.00,2.0067
2280.00,1.9643
2279.00,1.9195
2278.00,1.8727
2277.00,1.8242
2276.00,1.7745
2275.00,1.7240
2274.00,1.6738
2273.00,1.6244
2272.00,1.5767
2271.00,1.5312
2270.00,1.4889
2269.00,1.4505
2268.00,1.4170
2267.00,1.3891
2266.00,1.3677
2265.00,1.3534
2264.00,1.3469
2263.00,1.3483
2262.00,1.3576
2261.00,1.3744
2260.00,1.3982
2259.00,1.4283
2258.00,1.4637
2257.00,1.5035
2256.00,1.5466
2255.00,1.5921
2254.00,1.6390
2253.00,1.6860
2252.00,1.7323
2251.00,1.7769
2250.00,1.8202
2249.00,1.8625
2248.00,1.9043
2247.00,1.9459
2246.00,1.9871
2245.00,2.0279
2244.00,2.0680
2243.00,2.1072
2242.00,2.1452
2241.00,2.1817
2240.00,2.2165
2239.00,2.2496
2238.00,2.2816
2237.00,2.3128
2236.00,2.3430
2235.00,2.3720
2234.00,2.3992
2233.00,2.4250
2232.00,2.4494
2231.00,2.4726
2230.00,2.4943
2229.00,2.5141
2228.00,2.5322
2227.00,2.5489
2226.00,2.5651
2225.00,2.5815
2224.00,2.5981
2223.00,2.6150
2222.00,2.6315
2221.00,2.6466
2220.00,2.6599
2219.00,2.6717
2218.00,2.6832
2217.00,2.6946
2216.00,2.7046
2215.00,2.7121
2214.00,2.7185
2213.00,2.7256
2212.00,2.7340
2211.00,2.7426
2210.00,2.7493
2209.00,2.7535
2208.00,2.7565
2207.00,2.7605
2206.00,2.7672
2205.00,2.7756
2204.00,2.7834
2203.00,2.7891
2202.00,2.7931
2201.00,2.7956
2200.00,2.7958
2199.00,2.7922
2198.00,2.7857
2197.00,2.7792
2196.00,2.7752
2195.00,2.7744
2194.00,2.7761
2193.00,2.7785
2192.00,2.7799
2191.00,2.7792
2190.00,2.7761
2189.00,2.7710
2188.00,2.7645
2187.00,2.7575
2186.00,2.7511
2185.00,2.7464
2184.00,2.7426
2183.00,2.7384
2182.00,2.7322
2181.00,2.7234
2180.00,2.7132
2179.00,2.7032
2178.00,2.6939
2177.00,2.6846
2176.00,2.6737
2175.00,2.6608
2174.00,2.6473
2173.00,2.6349
2172.00,2.6237
2171.00,2.6122
2170.00,2.5982
2169.00,2.5809
2168.00,2.5611
2167.00,2.5406
2166.00,2.5204
2165.00,2.4999
2164.00,2.4780
2163.00,2.4541
2162.00,2.4282
2161.00,2.4009
2160.00,2.3724
2159.00,2.3425
2158.00,2.3114
2157.00,2.2790
2156.00,2.2446
2155.00,2.2078
2154.00,2.1683
2153.00,2.1264
2152.00,2.0825
2151.00,2.0371
2150.00,1.9900
2149.00,1.9411
2148.00,1.8904
2147.00,1.8381
2146.00,1.7853
2145.00,1.7330
2144.00,1.6824
2143.00,1.6345
2142.00,1.5903
2141.00,1.5507
2140.00,1.5168
2139.00,1.4892
2138.00,1.4685
2137.00,1.4549
2136.00,1.4486
2135.00,1.4496
2134.00,1.4576
2133.00,1.4723
2132.00,1.4931
2131.00,1.5193
2130.00,1.5501
2129.00,1.5849
2128.00,1.6231
2127.00,1.6641
2126.00,1.7076
2125.00,1.7529
2124.00,1.7994
2123.00,1.8466
2122.00,1.8941
2121.00,1.9419
2120.00,1.9896
2119.00,2.0365
2118.00,2.0820
2117.00,2.1260
2116.00,2.1684
2115.00,2.2094
2114.00,2.2490
2113.00,2.2870
2112.00,2.3231
2111.00,2.3572
2110.00,2.3893
2109.00,2.4198
2108.00,2.4489
2107.00,2.4770
2106.00,2.5042
2105.00,2.5299
2104.00,2.5533
2103.00,2.5746
2102.00,2.5947
2101.00,2.6145
2100.00,2.6339
2099.00,2.6526
2098.00,2.6707
2097.00,2.6879
2096.00,2.7037
2095.00,2.7175
2094.00,2.7299
2093.00,2.7414
2092.00,2.7526
2091.00,2.7635
2090.00,2.7750
2089.00,2.7870
2088.00,2.7988
2087.00,2.8094
2086.00,2.8187
2085.00,2.8276
2084.00,2.8366
2083.00,2.8448
2082.00,2.8515
2081.00,2.8562
2080.00,2.8592
2079.00,2.8613
2078.00,2.8635
2077.00,2.8667
2076.00,2.8708
2075.00,2.8752
2074.00,2.8787
2073.00,2.8811
2072.00,2.8827
2071.00,2.8845
2070.00,2.8866
2069.00,2.8878
2068.00,2.8869
2067.00,2.8840
2066.00,2.8805
2065.00,2.8774
2064.00,2.8747
2063.00,2.8716
2062.00,2.8678
2061.00,2.8634
2060.00,2.8588
2059.00,2.8548
2058.00,2.8512
2057.00,2.8476
2056.00,2.8425
2055.00,2.8351
2054.00,2.8256
2053.00,2.8147
2052.00,2.8028
2051.00,2.7909
2050.00,2.7802
2049.00,2.7712
2048.00,2.7625
2047.00,2.7522
2046.00,2.7395
2045.00,2.7251
2044.00,2.7099
2043.00,2.6942
2042.00,2.6774
2041.00,2.6590
2040.00,2.6388
2039.00,2.6169
2038.00,2.5941
2037.00,2.5706
2036.00,2.5464
2035.00,2.5207
2034.00,2.4929
2033.00,2.4633
2032.00,2.4325
2031.00,2.4007
2030.00,2.3678
2029.00,2.3337
2028.00,2.2978
2027.00,2.2594
2026.00,2.2183
2025.00,2.1742
2024.00,2.1278
2023.00,2.0794
2022.00,2.0292
2021.00,1.9774
2020.00,1.9241
2019.00,1.8697
2018.00,1.8153
2017.00,1.7623
2016.00,1.7121
2015.00,1.6658
2014.00,1.6242
2013.00,1.5884
2012.00,1.5598
2011.00,1.5384
2010.00,1.5245
2009.00,1.5181
2008.00,1.5197
2007.00,1.5294
2006.00,1.5470
2005.00,1.5718
2004.00,1.6032
2003.00,1.6402
2002.00,1.6819
2001.00,1.7273
2000.00,1.7755
1999.00,1.8262
1998.00,1.8782
1997.00,1.9310
1996.00,1.9834
1995.00,2.0338
1994.00,2.0816
1993.00,2.1280
1992.00,2.1743
1991.00,2.2206
1990.00,2.2653
1989.00,2.3081
1988.00,2.3504
1987.00,2.3933
1986.00,2.4355
1985.00,2.4745
1984.00,2.5091
1983.00,2.5399
1982.00,2.5681
1981.00,2.5947
1980.00,2.6197
1979.00,2.6433
1978.00,2.6654
1977.00,2.6866
1976.00,2.7074
1975.00,2.7273
1974.00,2.7453
1973.00,2.7611
1972.00,2.7759
1971.00,2.7899
1970.00,2.8026
1969.00,2.8132
1968.00,2.8229
1967.00,2.8334
1966.00,2.8459
1965.00,2.8599
1964.00,2.8745
1963.00,2.8891
1962.00,2.9025
1961.00,2.9129
1960.00,2.9200
1959.00,2.9259
1958.00,2.9329
1957.00,2.9414
1956.00,2.9500
1955.00,2.9572
1954.00,2.9627
1953.00,2.9669
1952.00,2.9707
1951.00,2.9744
1950.00,2.9782
1949.00,2.9804
1948.00,2.9803
1947.00,2.9791
1946.00,2.9781
1945.00,2.9762
1944.00,2.9717
1943.00,2.9651
1942.00,2.9587
1941.00,2.9532
1940.00,2.9484
1939.00,2.9456
1938.00,2.9482
1937.00,2.9560
1936.00,2.9639
1935.00,2.9665
1934.00,2.9629
1933.00,2.9552
1932.00,2.9452
1931.00,2.9333
1930.00,2.9213
1929.00,2.9107
1928.00,2.9016
1927.00,2.8919
1926.00,2.8789
1925.00,2.8623
1924.00,2.8440
1923.00,2.8274
1922.00,2.8128
1921.00,2.7967
1920.00,2.7761
1919.00,2.7534
1918.00,2.7329
1917.00,2.7149
1916.00,2.6951
1915.00,2.6712
1914.00,2.6465
1913.00,2.6244
1912.00,2.6029
1911.00,2.5775
1910.00,2.5469
1909.00,2.5131
1908.00,2.4780
1907.00,2.4412
1906.00,2.4018
1905.00,2.3608
1904.00,2.3179
1903.00,2.2722
1902.00,2.2230
1901.00,2.1700
1900.00,2.1140
1899.00,2.0556
1898.00,1.9950
1897.00,1.9329
1896.00,1.8709
1895.00,1.8115
1894.00,1.7575
1893.00,1.7097
1892.00,1.6681
1891.00,1.6339
1890.00,1.6104
1889.00,1.6004
1888.00,1.6033
1887.00,1.6171
1886.00,1.6417
1885.00,1.6777
1884.00,1.7232
1883.00,1.7737
1882.00,1.8259
1881.00,1.8792
1880.00,1.9343
1879.00,1.9906
1878.00,2.0469
1877.00,2.1028
1876.00,2.1576
1875.00,2.2104
1874.00,2.2611
1873.00,2.3083
1872.00,2.3495
1871.00,2.3840
1870.00,2.4151
1869.00,2.4476
1868.00,2.4825
1867.00,2.5169
1866.00,2.5496
1865.00,2.5840
1864.00,2.6224
1863.00,2.6621
1862.00,2.6988
1861.00,2.7310
1860.00,2.7599
1859.00,2.7863
1858.00,2.8098
1857.00,2.8304
1856.00,2.8491
1855.00,2.8674
1854.00,2.8865
1853.00,2.9062
1852.00,2.9249
1851.00,2.9409
1850.00,2.9527
1849.00,2.9625
1848.00,2.9709
1847.00,2.9770
1846.00,2.9817
1845.00,2.9891
1844.00,3.0013
1843.00,3.0145
1842.00,3.0230
1841.00,3.0260
1840.00,3.0295
1839.00,3.0377
1838.00,3.0490
1837.00,3.0589
1836.00,3.0650
1835.00,3.0706
1834.00,3.0777
1833.00,3.0829
1832.00,3.0813
1831.00,3.0727
1830.00,3.0631
1829.00,3.0585
1828.00,3.0561
1827.00,3.0504
1826.00,3.0427
1825.00,3.0368
1824.00,3.0316
1823.00,3.0238
1822.00,3.0148
1821.00,3.0091
1820.00,3.0064
1819.00,3.0008
1818.00,2.9885
1817.00,2.9718
1816.00,2.9547
1815.00,2.9394
1814.00,2.9240
1813.00,2.9065
1812.00,2.8868
1811.00,2.8660
1810.00,2.8462
1809.00,2.8276
1808.00,2.8099
1807.00,2.7926
1806.00,2.7739
1805.00,2.7513
1804.00,2.7237
1803.00,2.6911
1802.00,2.6525
1801.00,2.6087
1800.00,2.5619
1799.00,2.5124
1798.00,2.4602
1797.00,2.4056
1796.00,2.3493
1795.00,2.2911
1794.00,2.2306
1793.00,2.1716
1792.00,2.1208
1791.00,2.0822
1790.00,2.0574
1789.00,2.0485
1788.00,2.0592
1787.00,2.0887
1786.00,2.1319
1785.00,2.1842
1784.00,2.2434
1783.00,2.3073
1782.00,2.3737
1781.00,2.4440
1780.00,2.5194
1779.00,2.5929
1778.00,2.6598
1777.00,2.7213
1776.00,2.7806
1775.00,2.8358
1774.00,2.8859
1773.00,2.9367
1772.00,2.9889
1771.00,3.0314
1770.00,3.0558
1769.00,3.0721
1768.00,3.0966
1767.00,3.1313
1766.00,3.1646
1765.00,3.1881
1764.00,3.2047
1763.00,3.2214
1762.00,3.2404
1761.00,3.2585
1760.00,3.2719
1759.00,3.2814
1758.00,3.2931
1757.00,3.3088
1756.00,3.3243
1755.00,3.3319
1754.00,3.3337
1753.00,3.3424
1752.00,3.3667
1751.00,3.3998
1750.00,3.4282
1749.00,3.4490
1748.00,3.4734
1747.00,3.5106
1746.00,3.5535
1745.00,3.5915
1744.00,3.6223
1743.00,3.6502
1742.00,3.6814
1741.00,3.7234
1740.00,3.7906
1739.00,3.9031
1738.00,4.0780
1737.00,4.3065
1736.00,4.4275
1735.00,4.3676
1734.00,4.3594
1733.00,4.4259
1732.00,4.5169
1731.00,4.6186
1730.00,4.7968
1729.00,5.0528
1728.00,5.1302
1727.00,5.3947
1726.00,5.0718
1725.00,4.6925
1724.00,4.6599
1723.00,4.8030
1722.00,5.0919
1721.00,5.1476
1720.00,4.8587
1719.00,4.7282
1718.00,4.7170
1717.00,4.7550
1716.00,5.0153
1715.00,5.4078
1714.00,4.9898
1713.00,4.9767
1712.00,5.4012
1711.00,5.2197
1710.00,4.8136
1709.00,4.6705
1708.00,4.6725
1707.00,4.8735
1706.00,5.2896
1705.00,4.9763
1704.00,4.8022
1703.00,4.7579
1702.00,4.5378
1701.00,4.4111
1700.00,4.4003
1699.00,4.3566
1698.00,4.3003
1697.00,4.3217
1696.00,4.4471
1695.00,4.6406
1694.00,4.6946
1693.00,4.5209
1692.00,4.3064
1691.00,4.1208
1690.00,3.9744
1689.00,3.8580
1688.00,3.7660
1687.00,3.6981
1686.00,3.6515
1685.00,3.6149
1684.00,3.5807
1683.00,3.5530
1682.00,3.5248
1681.00,3.5000
1680.00,3.4917
1679.00,3.4952
1678.00,3.4962
1677.00,3.4816
1676.00,3.4481
1675.00,3.4033
1674.00,3.3534
1673.00,3.2945
1672.00,3.2240
1671.00,3.1519
1670.00,3.0898
1669.00,3.0378
1668.00,2.9890
1667.00,2.9385
1666.00,2.8869
1665.00,2.8343
1664.00,2.7793
1663.00,2.7261
1662.00,2.6796
1661.00,2.6423
1660.00,2.6176
1659.00,2.6087
1658.00,2.6161
1657.00,2.6304
1656.00,2.6385
1655.00,2.6421
1654.00,2.6632
1653.00,2.7215
1652.00,2.8036
1651.00,2.8635
1650.00,2.8824
1649.00,2.8819
1648.00,2.8902
1647.00,2.9252
1646.00,2.9810
1645.00,3.0360
1644.00,3.0747
1643.00,3.1004
1642.00,3.1198
1641.00,3.1395
1640.00,3.1610
1639.00,3.1761
1638.00,3.1815
1637.00,3.1821
1636.00,3.1850
1635.00,3.1928
1634.00,3.2018
1633.00,3.2093
1632.00,3.2188
1631.00,3.2339
1630.00,3.2510
1629.00,3.2626
1628.00,3.2645
1627.00,3.2613
1626.00,3.2573
1625.00,3.2520
1624.00,3.2438
1623.00,3.2366
1622.00,3.2357
1621.00,3.2383
1620.00,3.2394
1619.00,3.2406
1618.00,3.2486
1617.00,3.2626
1616.00,3.2716
1615.00,3.2663
1614.00,3.2489
1613.00,3.2309
1612.00,3.2194
1611.00,3.2126
1610.00,3.2055
1609.00,3.1960
1608.00,3.1835
1607.00,3.1669
1606.00,3.1452
1605.00,3.1210
1604.00,3.0988
1603.00,3.0799
1602.00,3.0628
1601.00,3.0433
1600.00,3.0189
1599.00,2.9913
1598.00,2.9630
1597.00,2.9332
1596.00,2.9005
1595.00,2.8668
1594.00,2.8336
1593.00,2.7993
1592.00,2.7615
1591.00,2.7217
1590.00,2.6814
1589.00,2.6391
1588.00,2.5923
1587.00,2.5400
1586.00,2.4825
1585.00,2.4194
1584.00,2.3524
1583.00,2.2828
1582.00,2.2132
1581.00,2.1473
1580.00,2.0851
1579.00,2.0252
1578.00,1.9735
1577.00,1.9417
1576.00,1.9344
1575.00,1.9422
1574.00,1.9479
1573.00,1.9485
1572.00,1.9582
1571.00,1.9891
1570.00,2.0417
1569.00,2.1059
1568.00,2.1705
1567.00,2.2305
1566.00,2.2911
1565.00,2.3580
1564.00,2.4267
1563.00,2.4856
1562.00,2.5296
1561.00,2.5683
1560.00,2.6114
1559.00,2.6551
1558.00,2.6977
1557.00,2.7290
1556.00,2.7518
1555.00,2.7893
1554.00,2.8399
1553.00,2.8938
1552.00,2.9364
1551.00,2.9628
1550.00,2.9862
1549.00,3.0153
1548.00,3.0457
1547.00,3.0687
1546.00,3.0822
1545.00,3.0907
1544.00,3.0947
1543.00,3.0920
1542.00,3.0893
1541.00,3.1011
1540.00,3.1366
1539.00,3.1869
1538.00,3.2264
1537.00,3.2446
1536.00,3.2490
1535.00,3.2498
1534.00,3.2550
1533.00,3.2655
1532.00,3.2722
1531.00,3.2677
1530.00,3.2588
1529.00,3.2522
1528.00,3.2482
1527.00,3.2497
1526.00,3.2626
1525.00,3.2874
1524.00,3.3109
1523.00,3.3184
1522.00,3.3155
1521.00,3.3181
1520.00,3.3229
1519.00,3.3099
1518.00,3.2794
1517.00,3.2544
1516.00,3.2481
1515.00,3.2499
1514.00,3.2455
1513.00,3.2389
1512.00,3.2382
1511.00,3.2395
1510.00,3.2292
1509.00,3.2017
1508.00,3.1689
1507.00,3.1509
1506.00,3.1575
1505.00,3.1703
1504.00,3.1730
1503.00,3.1640
1502.00,3.1443
1501.00,3.1220
1500.00,3.0992
1499.00,3.0712
1498.00,3.0400
1497.00,3.0147
1496.00,2.9993
1495.00,2.9877
1494.00,2.9674
1493.00,2.9315
1492.00,2.8817
1491.00,2.8225
1490.00,2.7579
1489.00,2.6938
1488.00,2.6364
1487.00,2.5906
1486.00,2.5545
1485.00,2.5195
1484.00,2.4812
1483.00,2.4389
1482.00,2.3973
1481.00,2.3631
1480.00,2.3394
1479.00,2.3263
1478.00,2.3249
1477.00,2.3369
1476.00,2.3614
1475.00,2.3979
1474.00,2.4491
1473.00,2.5211
1472.00,2.6138
1471.00,2.7145
1470.00,2.8135
1469.00,2.9116
1468.00,3.0110
1467.00,3.1068
1466.00,3.1910
1465.00,3.2571
1464.00,3.3019
1463.00,3.3262
1462.00,3.3414
1461.00,3.3553
1460.00,3.3662
1459.00,3.3756
1458.00,3.4027
1457.00,3.4771
1456.00,3.6054
1455.00,3.7601
1454.00,3.9158
1453.00,4.0754
1452.00,4.2300
1451.00,4.3165
1450.00,4.2902
1449.00,4.2063
1448.00,4.1334
1447.00,4.0601
1446.00,3.9196
1445.00,3.7453
1444.00,3.5903
1443.00,3.4654
1442.00,3.3790
1441.00,3.3360
1440.00,3.3315
1439.00,3.3534
1438.00,3.3932
1437.00,3.4486
1436.00,3.5171
1435.00,3.5889
1434.00,3.6584
1433.00,3.7379
1432.00,3.8371
1431.00,3.9294
1430.00,3.9561
1429.00,3.9099
1428.00,3.8517
1427.00,3.8253
1426.00,3.8343
1425.00,3.8665
1424.00,3.9010
1423.00,3.9110
1422.00,3.8856
1421.00,3.8335
1420.00,3.7630
1419.00,3.6777
1418.00,3.5913
1417.00,3.5159
1416.00,3.4553
1415.00,3.4096
1414.00,3.3778
1413.00,3.3586
1412.00,3.3512
1411.00,3.3549
1410.00,3.3652
1409.00,3.3735
1408.00,3.3755
1407.00,3.3762
1406.00,3.3826
1405.00,3.3979
1404.00,3.4175
1403.00,3.4310
1402.00,3.4324
1401.00,3.4216
1400.00,3.4026
1399.00,3.3838
1398.00,3.3737
1397.00,3.3758
1396.00,3.3892
1395.00,3.4139
1394.00,3.4505
1393.00,3.4940
1392.00,3.5302
1391.00,3.5486
1390.00,3.5540
1389.00,3.5560
1388.00,3.5558
1387.00,3.5522
1386.00,3.5514
1385.00,3.5585
1384.00,3.5640
1383.00,3.5549
1382.00,3.5366
1381.00,3.5254
1380.00,3.5281
1379.00,3.5367
1378.00,3.5396
1377.00,3.5319
1376.00,3.5127
1375.00,3.4837
1374.00,3.4544
1373.00,3.4365
1372.00,3.4304
1371.00,3.4245
1370.00,3.4084
1369.00,3.3842
1368.00,3.3586
1367.00,3.3349
1366.00,3.3143
1365.00,3.2966
1364.00,3.2781
1363.00,3.2528
1362.00,3.2197
1361.00,3.1860
1360.00,3.1593
1359.00,3.1403
1358.00,3.1254
1357.00,3.1130
1356.00,3.1059
1355.00,3.1091
1354.00,3.1282
1353.00,3.1692
1352.00,3.2377
1351.00,3.3350
1350.00,3.4532
1349.00,3.5746
1348.00,3.6767
1347.00,3.7407
1346.00,3.7515
1345.00,3.7090
1344.00,3.6495
1343.00,3.6122
1342.00,3.6128
1341.00,3.6479
1340.00,3.6982
1339.00,3.7332
1338.00,3.7271
1337.00,3.6760
1336.00,3.5938
1335.00,3.4966
1334.00,3.3983
1333.00,3.3083
1332.00,3.2317
1331.00,3.1710
1330.00,3.1286
1329.00,3.1061
1328.00,3.1039
1327.00,3.1213
1326.00,3.1558
1325.00,3.2043
1324.00,3.2644
1323.00,3.3348
1322.00,3.4137
1321.00,3.4968
1320.00,3.5823
1319.00,3.6800
1318.00,3.8135
1317.00,4.0093
1316.00,4.2361
1315.00,4.3407
1314.00,4.3309
1313.00,4.3027
1312.00,4.2959
1311.00,4.3174
1310.00,4.3235
1309.00,4.2931
1308.00,4.1739
1307.00,3.9694
1306.00,3.7718
1305.00,3.6118
1304.00,3.4840
1303.00,3.3812
1302.00,3.2980
1301.00,3.2290
1300.00,3.1708
1299.00,3.1241
1298.00,3.0922
1297.00,3.0775
1296.00,3.0790
1295.00,3.0942
1294.00,3.1208
1293.00,3.1568
1292.00,3.1981
1291.00,3.2400
1290.00,3.2806
1289.00,3.3220
1288.00,3.3662
1287.00,3.4128
1286.00,3.4615
1285.00,3.5111
1284.00,3.5550
1283.00,3.5813
1282.00,3.5855
1281.00,3.5752
1280.00,3.5610
1279.00,3.5520
1278.00,3.5584
1277.00,3.5876
1276.00,3.6359
1275.00,3.6838
1274.00,3.7062
1273.00,3.7015
1272.00,3.6916
1271.00,3.6948
1270.00,3.7179
1269.00,3.7548
1268.00,3.7829
1267.00,3.7783
1266.00,3.7468
1265.00,3.7161
1264.00,3.7034
1263.00,3.7046
1262.00,3.7083
1261.00,3.7119
1260.00,3.7228
1259.00,3.7453
1258.00,3.7722
1257.00,3.7873
1256.00,3.7800
1255.00,3.7590
1254.00,3.7393
1253.00,3.7233
1252.00,3.7073
1251.00,3.6905
1250.00,3.6779
1249.00,3.6808
1248.00,3.7061
1247.00,3.7444
1246.00,3.7715
1245.00,3.7629
1244.00,3.7229
1243.00,3.6872
1242.00,3.6777
1241.00,3.6892
1240.00,3.7016
1239.00,3.6987
1238.00,3.6879
1237.00,3.6884
1236.00,3.7100
1235.00,3.7561
1234.00,3.8257
1233.00,3.9061
1232.00,3.9828
1231.00,4.0592
1230.00,4.1352
1229.00,4.1828
1228.00,4.1867
1227.00,4.1990
1226.00,4.2351
1225.00,4.2451
1224.00,4.2237
1223.00,4.2205
1222.00,4.2457
1221.00,4.2559
1220.00,4.2379
1219.00,4.2496
1218.00,4.3505
1217.00,4.5495
1216.00,4.6609
1215.00,4.4779
1214.00,4.2552
1213.00,4.0919
1212.00,3.9824
1211.00,3.9119
1210.00,3.8815
1209.00,3.8953
1208.00,3.9354
1207.00,3.9653
1206.00,3.9594
1205.00,3.9101
1204.00,3.8311
1203.00,3.7547
1202.00,3.7001
1201.00,3.6643
1200.00,3.6346
1199.00,3.6041
1198.00,3.5739
1197.00,3.5423
1196.00,3.5052
1195.00,3.4678
1194.00,3.4416
1193.00,3.4319
1192.00,3.4337
1191.00,3.4350
1190.00,3.4262
1189.00,3.4058
1188.00,3.3788
1187.00,3.3532
1186.00,3.3371
1185.00,3.3330
1184.00,3.3345
1183.00,3.3324
1182.00,3.3239
1181.00,3.3136
1180.00,3.3098
1179.00,3.3188
1178.00,3.3397
1177.00,3.3631
1176.00,3.3799
1175.00,3.3930
1174.00,3.4151
1173.00,3.4540
1172.00,3.4979
1171.00,3.5206
1170.00,3.5119
1169.00,3.4892
1168.00,3.4747
1167.00,3.4801
1166.00,3.5086
1165.00,3.5564
1164.00,3.6167
1163.00,3.6822
1162.00,3.7363
1161.00,3.7536
1160.00,3.7217
1159.00,3.6573
1158.00,3.5964
1157.00,3.5668
1156.00,3.5780
1155.00,3.6285
1154.00,3.7080
1153.00,3.7853
1152.00,3.8214
1151.00,3.8204
1150.00,3.8251
1149.00,3.8559
1148.00,3.8900
1147.00,3.8940
1146.00,3.8622
1145.00,3.8085
1144.00,3.7622
1143.00,3.7529
1142.00,3.8001
1141.00,3.9153
1140.00,4.0867
1139.00,4.2242
1138.00,4.2340
1137.00,4.1579
1136.00,4.0691
1135.00,4.0233
1134.00,4.0108
1133.00,3.9875
1132.00,3.9426
1131.00,3.9100
1130.00,3.9287
1129.00,4.0286
1128.00,4.2337
1127.00,4.5750
1126.00,4.8336
1125.00,4.4762
1124.00,4.2285
1123.00,4.1177
1122.00,4.1264
1121.00,4.2086
1120.00,4.2180
1119.00,4.1403
1118.00,4.1359
1117.00,4.2748
1116.00,4.6061
1115.00,4.9306
1114.00,4.5640
1113.00,4.1831
1112.00,3.9637
1111.00,3.8614
1110.00,3.8392
1109.00,3.8730
1108.00,3.9365
1107.00,3.9730
1106.00,3.9351
1105.00,3.8782
1104.00,3.8573
1103.00,3.8726
1102.00,3.9045
1101.00,3.9346
1100.00,3.9505
1099.00,3.9494
1098.00,3.9321
1097.00,3.9118
1096.00,3.9241
1095.00,3.9921
1094.00,4.1008
1093.00,4.2017
1092.00,4.2490
1091.00,4.2547
1090.00,4.2556
1089.00,4.2054
1088.00,4.0500
1087.00,3.9044
1086.00,3.8425
1085.00,3.8664
1084.00,3.9449
1083.00,4.0025
1082.00,3.9610
1081.00,3.8660
1080.00,3.7912
1079.00,3.7526
1078.00,3.7397
1077.00,3.7433
1076.00,3.7706
1075.00,3.8259
1074.00,3.8642
1073.00,3.8225
1072.00,3.7354
1071.00,3.6574
1070.00,3.6140
1069.00,3.6120
1068.00,3.6448
1067.00,3.7011
1066.00,3.7646
1065.00,3.8031
1064.00,3.7851
1063.00,3.7283
1062.00,3.6847
1061.00,3.6796
1060.00,3.6953
1059.00,3.7000
1058.00,3.6921
1057.00,3.7016
1056.00,3.7414
1055.00,3.7788
1054.00,3.7692
1053.00,3.7319
1052.00,3.7264
1051.00,3.7735
1050.00,3.8470
1049.00,3.8895
1048.00,3.8600
1047.00,3.7899
1046.00,3.7080
1045.00,3.6288
1044.00,3.5650
1043.00,3.5208
1042.00,3.4923
1041.00,3.4765
1040.00,3.4744
1039.00,3.4860
1038.00,3.5112
1037.00,3.5506
1036.00,3.6009
1035.00,3.6500
1034.00,3.6805
1033.00,3.6857
1032.00,3.6956
1031.00,3.7456
1030.00,3.8394
1029.00,3.9580
1028.00,4.0845
1027.00,4.2031
1026.00,4.2621
1025.00,4.2933
1024.00,4.3869
1023.00,4.4777
1022.00,4.4446
1021.00,4.4388
1020.00,4.4807
1019.00,4.4852
1018.00,4.4051
1017.00,4.3190
1016.00,4.2793
1015.00,4.2220
1014.00,4.1677
1013.00,4.1868
1012.00,4.3534
1011.00,4.8239
1010.00,4.6084
1009.00,4.3130
1008.00,4.1425
1007.00,4.0388
1006.00,4.0322
1005.00,4.1483
1004.00,4.3149
1003.00,4.2354
1002.00,4.1296
1001.00,4.1141
1000.00,4.1647
999.00,4.3066
998.00,4.5361
997.00,4.3795
996.00,4.1730
995.00,4.0793
994.00,4.0538
993.00,4.0819
992.00,4.1867
991.00,4.4392
990.00,4.7478
989.00,4.5495
988.00,4.4270
987.00,4.3440
986.00,4.2665
985.00,4.2346
984.00,4.2706
983.00,4.3908
982.00,4.4644
981.00,4.3674
980.00,4.2838
979.00,4.2230
978.00,4.2170
977.00,4.2936
976.00,4.3950
975.00,4.4413
974.00,4.4120
973.00,4.3129
972.00,4.2094
971.00,4.1924
970.00,4.3402
969.00,4.8880
968.00,4.5665
967.00,4.3015
966.00,4.2389
965.00,4.2448
964.00,4.2674
963.00,4.3245
962.00,4.3470
961.00,4.2084
960.00,4.0915
959.00,4.0735
958.00,4.1136
957.00,4.1345
956.00,4.1001
955.00,4.0595
954.00,4.0724
953.00,4.0868
952.00,4.0537
951.00,4.0437
950.00,4.0709
949.00,4.0843
948.00,4.0488
947.00,3.9981
946.00,3.9969
945.00,4.0863
944.00,4.2402
943.00,4.2873
942.00,4.2300
941.00,4.2027
940.00,4.1975
939.00,4.1972
938.00,4.2062
937.00,4.2081
936.00,4.2110
935.00,4.2633
934.00,4.4861
933.00,4.8517
932.00,4.5630
931.00,4.7254
930.00,4.2897
929.00,3.9869
928.00,3.9047
927.00,3.9421
926.00,4.0188
925.00,4.0615
924.00,4.0920
923.00,4.1156
922.00,4.0726
921.00,3.9869
920.00,3.9472
919.00,3.9735
918.00,3.9951
917.00,3.9980
916.00,4.0662
915.00,4.1349
914.00,4.0510
913.00,3.9251
912.00,3.8373
911.00,3.7973
910.00,3.7933
909.00,3.8139
908.00,3.8714
907.00,4.0031
906.00,4.2673
905.00,4.5726
904.00,4.3653
903.00,4.1150
902.00,3.9703
901.00,3.9230
900.00,3.9480
899.00,3.9999
898.00,4.0119
897.00,3.9689
896.00,3.9543
895.00,4.0310
894.00,4.2226
893.00,4.3911
892.00,4.2536
891.00,4.1260
890.00,4.0593
889.00,4.0230
888.00,4.0453
887.00,4.0614
886.00,3.9529
885.00,3.8476
884.00,3.8404
883.00,3.9669
882.00,4.3272
881.00,4.7813
880.00,4.5210
879.00,4.5320
878.00,4.4920
877.00,4.4046
876.00,4.3411
875.00,4.3482
874.00,4.5062
873.00,4.5960
872.00,4.4412
871.00,4.2737
870.00,4.1262
869.00,4.0445
868.00,4.0255
867.00,4.0557
866.00,4.1668
865.00,4.4700
864.00,4.7952
863.00,4.4688
862.00,4.4007
861.00,4.3826
860.00,4.3620
859.00,4.3832
858.00,4.5864
857.00,4.7701
856.00,4.1991
855.00,3.9915
854.00,3.9336
853.00,3.9481
852.00,4.0115
851.00,4.1071
850.00,4.3011
849.00,4.7373
848.00,4.6939
847.00,4.4154
846.00,4.3351
845.00,4.2599
844.00,4.2837
843.00,4.5192
842.00,4.7457
841.00,4.5602
840.00,4.3044
839.00,4.1301
838.00,4.0331
837.00,3.9646
836.00,3.9350
835.00,3.9880
834.00,4.1350
833.00,4.3467
832.00,4.2547
831.00,3.9497
830.00,3.8490
829.00,3.9381
828.00,4.2932
827.00,4.9490
826.00,4.3634
825.00,4.2041
824.00,4.1367
823.00,4.1079
822.00,4.0732
821.00,4.0075
820.00,3.9817
819.00,4.0117
818.00,4.0856
817.00,4.1318
816.00,4.1911
815.00,4.3385
814.00,4.3926
813.00,4.3333
812.00,4.2536
811.00,4.1742
810.00,4.1485
809.00,4.0984
808.00,3.9982
807.00,3.9399
806.00,3.9511
805.00,3.9751
804.00,3.9895
803.00,4.0726
802.00,4.2416
801.00,4.3069
800.00,4.1321
799.00,3.9681
798.00,3.9096
797.00,3.9370
796.00,3.9939
795.00,4.0512
794.00,4.1235
793.00,4.1463
792.00,4.1085
791.00,4.1061
790.00,4.1549
789.00,4.1762
788.00,4.1937
787.00,4.2706
786.00,4.5448
785.00,4.7102
784.00,4.1564
783.00,3.9502
782.00,3.9044
781.00,3.9097
780.00,3.9445
779.00,4.0382
778.00,4.2150
777.00,4.2874
776.00,4.1868
775.00,4.1007
774.00,4.0410
773.00,3.9838
772.00,3.9319
771.00,3.8981
770.00,3.8916
769.00,3.9089
768.00,3.9408
767.00,4.0133
766.00,4.0687
765.00,3.9406
764.00,3.8055
763.00,3.7742
762.00,3.8265
761.00,3.9144
760.00,4.0186
759.00,4.1976
758.00,4.5274
757.00,4.7863
756.00,4.4901
755.00,4.3077
754.00,4.2092
753.00,4.0931
752.00,4.0212
751.00,4.1122
750.00,4.5860
749.00,4.5508
748.00,4.0535
747.00,3.9274
746.00,3.9911
745.00,4.2263
744.00,4.3659
743.00,4.1756
742.00,4.1731
741.00,4.4584
740.00,4.3801
739.00,4.0159
738.00,3.8443
737.00,3.7392
736.00,3.6995
735.00,3.7513
734.00,3.8633
733.00,3.9438
732.00,3.9071
731.00,3.8773
730.00,3.9773
729.00,4.1631
728.00,4.2757
727.00,4.4605
726.00,4.3420
725.00,4.0104
724.00,3.9281
723.00,4.0416
722.00,4.2741
721.00,4.5074
720.00,4.4133
719.00,4.1424
718.00,4.0647
717.00,4.1976
716.00,4.2908
715.00,4.2244
714.00,4.2524
713.00,4.1584
712.00,4.0045
711.00,3.9474
710.00,3.9628
709.00,4.0340
708.00,4.2696
707.00,4.4597
706.00,4.1158
705.00,4.0592
704.00,4.2746
703.00,4.3508
702.00,4.1561
701.00,4.0508
700.00,3.9979
