Created as New Dataset,Sample 093 By Administrator Date Wednesday, November 24 2021
cm-1,A
7502.00,1.0960
7501.00,1.0855
7500.00,1.0752
7499.00,1.0651
7498.00,1.0552
7497.00,1.0456
7496.00,1.0362
7495.00,1.0269
7494.00,1.0179
7493.00,1.0104
7492.00,1.0053
7491.00,1.0024
7490.00,1.0007
7489.00,0.9985
7488.00,0.9949
7487.00,0.9892
7486.00,0.9816
7485.00,0.9719
7484.00,0.9610
7483.00,0.9499
7482.00,0.9400
7481.00,0.9321
7480.00,0.9260
7479.00,0.9206
7478.00,0.9152
7477.00,0.9098
7476.00,0.9046
7475.00,0.8996
7474.00,0.8941
7473.00,0.8881
7472.00,0.8821
7471.00,0.8762
7470.00,0.8701
7469.00,0.8632
7468.00,0.8555
7467.00,0.8477
7466.00,0.8405
7465.00,0.8340
7464.00,0.8278
7463.00,0.8216
7462.00,0.8151
7461.00,0.8085
7460.00,0.8024
7459.00,0.7969
7458.00,0.7921
7457.00,0.7876
7456.00,0.7832
7455.00,0.7795
7454.00,0.7768
7453.00,0.7749
7452.00,0.7733
7451.00,0.7716
7450.00,0.7699
7449.00,0.7688
7448.00,0.7686
7447.00,0.7691
7446.00,0.7700
7445.00,0.7712
7444.00,0.7729
7443.00,0.7751
7442.00,0.7780
7441.00,0.7814
7440.00,0.7853
7439.00,0.7898
7438.00,0.7948
7437.00,0.8004
7436.00,0.8063
7435.00,0.8125
7434.00,0.8189
7433.00,0.8255
7432.00,0.8323
7431.00,0.8394
7430.00,0.8467
7429.00,0.8543
7428.00,0.8625
7427.00,0.8714
7426.00,0.8809
7425.00,0.8904
7424.00,0.8997
7423.00,0.9089
7422.00,0.9179
7421.00,0.9270
7420.00,0.9362
7419.00,0.9455
7418.00,0.9548
7417.00,0.9641
7416.00,0.9736
7415.00,0.9836
7414.00,0.9939
7413.00,1.0034
7412.00,1.0117
7411.00,1.0194
7410.00,1.0276
7409.00,1.0364
7408.00,1.0450
7407.00,1.0530
7406.00,1.0609
7405.00,1.0693
7404.00,1.0779
7403.00,1.0860
7402.00,1.0933
7401.00,1.1001
7400.00,1.1070
7399.00,1.1140
7398.00,1.1207
7397.00,1.1269
7396.00,1.1326
7395.00,1.1382
7394.00,1.1440
7393.00,1.1498
7392.00,1.1551
7391.00,1.1595
7390.00,1.1628
7389.00,1.1659
7388.00,1.1694
7387.00,1.1730
7386.00,1.1757
7385.00,1.1774
7384.00,1.1790
7383.00,1.1816
7382.00,1.1846
7381.00,1.1867
7380.00,1.1867
7379.00,1.1852
7378.00,1.1833
7377.00,1.1815
7376.00,1.1800
7375.00,1.1786
7374.00,1.1773
7373.00,1.1757
7372.00,1.1733
7371.00,1.1704
7370.00,1.1668
7369.00,1.1626
7368.00,1.1576
7367.00,1.1522
7366.00,1.1470
7365.00,1.1421
7364.00,1.1371
7363.00,1.1317
7362.00,1.1258
7361.00,1.1193
7360.00,1.1120
7359.00,1.1039
7358.00,1.0957
7357.00,1.0881
7356.00,1.0812
7355.00,1.0744
7354.00,1.0669
7353.00,1.0587
7352.00,1.0500
7351.00,1.0411
7350.00,1.0319
7349.00,1.0226
7348.00,1.0131
7347.00,1.0032
7346.00,0.9928
7345.00,0.9825
7344.00,0.9729
7343.00,0.9640
7342.00,0.9552
7341.00,0.9460
7340.00,0.9362
7339.00,0.9265
7338.00,0.9172
7337.00,0.9081
7336.00,0.8987
7335.00,0.8891
7334.00,0.8795
7333.00,0.8706
7332.00,0.8624
7331.00,0.8549
7330.00,0.8479
7329.00,0.8411
7328.00,0.8342
7327.00,0.8274
7326.00,0.8208
7325.00,0.8148
7324.00,0.8092
7323.00,0.8040
7322.00,0.7993
7321.00,0.7951
7320.00,0.7915
7319.00,0.7886
7318.00,0.7864
7317.00,0.7851
7316.00,0.7844
7315.00,0.7842
7314.00,0.7845
7313.00,0.7854
7312.00,0.7869
7311.00,0.7889
7310.00,0.7911
7309.00,0.7935
7308.00,0.7960
7307.00,0.7989
7306.00,0.8025
7305.00,0.8068
7304.00,0.8116
7303.00,0.8168
7302.00,0.8225
7301.00,0.8292
7300.00,0.8365
7299.00,0.8439
7298.00,0.8512
7297.00,0.8584
7296.00,0.8658
7295.00,0.8735
7294.00,0.8815
7293.00,0.8897
7292.00,0.8981
7291.00,0.9066
7290.00,0.9152
7289.00,0.9241
7288.00,0.9328
7287.00,0.9412
7286.00,0.9493
7285.00,0.9576
7284.00,0.9663
7283.00,0.9753
7282.00,0.9841
7281.00,0.9928
7280.00,1.0016
7279.00,1.0106
7278.00,1.0191
7277.00,1.0270
7276.00,1.0349
7275.00,1.0431
7274.00,1.0515
7273.00,1.0592
7272.00,1.0656
7271.00,1.0713
7270.00,1.0771
7269.00,1.0833
7268.00,1.0893
7267.00,1.0947
7266.00,1.0994
7265.00,1.1041
7264.00,1.1093
7263.00,1.1147
7262.00,1.1201
7261.00,1.1253
7260.00,1.1309
7259.00,1.1372
7258.00,1.1438
7257.00,1.1495
7256.00,1.1533
7255.00,1.1548
7254.00,1.1547
7253.00,1.1538
7252.00,1.1526
7251.00,1.1511
7250.00,1.1496
7249.00,1.1488
7248.00,1.1488
7247.00,1.1493
7246.00,1.1493
7245.00,1.1486
7244.00,1.1477
7243.00,1.1474
7242.00,1.1477
7241.00,1.1477
7240.00,1.1468
7239.00,1.1450
7238.00,1.1425
7237.00,1.1393
7236.00,1.1348
7235.00,1.1293
7234.00,1.1234
7233.00,1.1178
7232.00,1.1126
7231.00,1.1074
7230.00,1.1018
7229.00,1.0959
7228.00,1.0898
7227.00,1.0837
7226.00,1.0774
7225.00,1.0709
7224.00,1.0640
7223.00,1.0569
7222.00,1.0498
7221.00,1.0427
7220.00,1.0352
7219.00,1.0275
7218.00,1.0196
7217.00,1.0116
7216.00,1.0033
7215.00,0.9945
7214.00,0.9851
7213.00,0.9754
7212.00,0.9659
7211.00,0.9565
7210.00,0.9471
7209.00,0.9376
7208.00,0.9283
7207.00,0.9195
7206.00,0.9111
7205.00,0.9027
7204.00,0.8940
7203.00,0.8851
7202.00,0.8764
7201.00,0.8683
7200.00,0.8605
7199.00,0.8527
7198.00,0.8451
7197.00,0.8376
7196.00,0.8304
7195.00,0.8236
7194.00,0.8173
7193.00,0.8115
7192.00,0.8061
7191.00,0.8010
7190.00,0.7963
7189.00,0.7922
7188.00,0.7888
7187.00,0.7860
7186.00,0.7837
7185.00,0.7818
7184.00,0.7802
7183.00,0.7791
7182.00,0.7784
7181.00,0.7784
7180.00,0.7788
7179.00,0.7799
7178.00,0.7818
7177.00,0.7844
7176.00,0.7875
7175.00,0.7908
7174.00,0.7946
7173.00,0.7989
7172.00,0.8040
7171.00,0.8095
7170.00,0.8154
7169.00,0.8218
7168.00,0.8289
7167.00,0.8367
7166.00,0.8447
7165.00,0.8526
7164.00,0.8605
7163.00,0.8686
7162.00,0.8771
7161.00,0.8859
7160.00,0.8949
7159.00,0.9040
7158.00,0.9133
7157.00,0.9229
7156.00,0.9330
7155.00,0.9431
7154.00,0.9528
7153.00,0.9618
7152.00,0.9707
7151.00,0.9801
7150.00,0.9903
7149.00,1.0007
7148.00,1.0109
7147.00,1.0206
7146.00,1.0299
7145.00,1.0390
7144.00,1.0478
7143.00,1.0563
7142.00,1.0647
7141.00,1.0732
7140.00,1.0816
7139.00,1.0899
7138.00,1.0981
7137.00,1.1061
7136.00,1.1135
7135.00,1.1202
7134.00,1.1266
7133.00,1.1331
7132.00,1.1396
7131.00,1.1462
7130.00,1.1525
7129.00,1.1586
7128.00,1.1643
7127.00,1.1694
7126.00,1.1741
7125.00,1.1785
7124.00,1.1829
7123.00,1.1871
7122.00,1.1908
7121.00,1.1932
7120.00,1.1945
7119.00,1.1951
7118.00,1.1960
7117.00,1.1973
7116.00,1.1986
7115.00,1.1995
7114.00,1.2002
7113.00,1.2009
7112.00,1.2013
7111.00,1.2009
7110.00,1.1994
7109.00,1.1972
7108.00,1.1947
7107.00,1.1920
7106.00,1.1890
7105.00,1.1856
7104.00,1.1815
7103.00,1.1765
7102.00,1.1712
7101.00,1.1662
7100.00,1.1617
7099.00,1.1572
7098.00,1.1520
7097.00,1.1462
7096.00,1.1399
7095.00,1.1333
7094.00,1.1264
7093.00,1.1188
7092.00,1.1107
7091.00,1.1025
7090.00,1.0946
7089.00,1.0866
7088.00,1.0784
7087.00,1.0696
7086.00,1.0603
7085.00,1.0507
7084.00,1.0410
7083.00,1.0312
7082.00,1.0213
7081.00,1.0114
7080.00,1.0012
7079.00,0.9909
7078.00,0.9805
7077.00,0.9703
7076.00,0.9604
7075.00,0.9505
7074.00,0.9403
7073.00,0.9301
7072.00,0.9200
7071.00,0.9102
7070.00,0.9006
7069.00,0.8912
7068.00,0.8820
7067.00,0.8731
7066.00,0.8647
7065.00,0.8565
7064.00,0.8486
7063.00,0.8411
7062.00,0.8339
7061.00,0.8270
7060.00,0.8204
7059.00,0.8142
7058.00,0.8087
7057.00,0.8041
7056.00,0.8000
7055.00,0.7963
7054.00,0.7930
7053.00,0.7901
7052.00,0.7876
7051.00,0.7856
7050.00,0.7841
7049.00,0.7832
7048.00,0.7831
7047.00,0.7839
7046.00,0.7854
7045.00,0.7876
7044.00,0.7902
7043.00,0.7934
7042.00,0.7971
7041.00,0.8013
7040.00,0.8060
7039.00,0.8113
7038.00,0.8170
7037.00,0.8232
7036.00,0.8296
7035.00,0.8361
7034.00,0.8430
7033.00,0.8503
7032.00,0.8579
7031.00,0.8659
7030.00,0.8743
7029.00,0.8835
7028.00,0.8931
7027.00,0.9026
7026.00,0.9120
7025.00,0.9215
7024.00,0.9312
7023.00,0.9409
7022.00,0.9503
7021.00,0.9593
7020.00,0.9684
7019.00,0.9778
7018.00,0.9876
7017.00,0.9973
7016.00,1.0068
7015.00,1.0163
7014.00,1.0260
7013.00,1.0359
7012.00,1.0453
7011.00,1.0539
7010.00,1.0622
7009.00,1.0706
7008.00,1.0790
7007.00,1.0871
7006.00,1.0947
7005.00,1.1021
7004.00,1.1095
7003.00,1.1167
7002.00,1.1234
7001.00,1.1299
7000.00,1.1363
6999.00,1.1427
6998.00,1.1490
6997.00,1.1551
6996.00,1.1607
6995.00,1.1656
6994.00,1.1696
6993.00,1.1733
6992.00,1.1768
6991.00,1.1800
6990.00,1.1826
6989.00,1.1849
6988.00,1.1875
6987.00,1.1904
6986.00,1.1929
6985.00,1.1942
6984.00,1.1944
6983.00,1.1941
6982.00,1.1938
6981.00,1.1933
6980.00,1.1924
6979.00,1.1911
6978.00,1.1898
6977.00,1.1887
6976.00,1.1877
6975.00,1.1861
6974.00,1.1835
6973.00,1.1798
6972.00,1.1754
6971.00,1.1711
6970.00,1.1670
6969.00,1.1630
6968.00,1.1588
6967.00,1.1540
6966.00,1.1487
6965.00,1.1428
6964.00,1.1359
6963.00,1.1283
6962.00,1.1206
6961.00,1.1131
6960.00,1.1054
6959.00,1.0974
6958.00,1.0891
6957.00,1.0809
6956.00,1.0729
6955.00,1.0644
6954.00,1.0555
6953.00,1.0461
6952.00,1.0368
6951.00,1.0275
6950.00,1.0181
6949.00,1.0085
6948.00,0.9988
6947.00,0.9891
6946.00,0.9796
6945.00,0.9701
6944.00,0.9604
6943.00,0.9503
6942.00,0.9397
6941.00,0.9292
6940.00,0.9190
6939.00,0.9092
6938.00,0.8996
6937.00,0.8903
6936.00,0.8813
6935.00,0.8726
6934.00,0.8640
6933.00,0.8554
6932.00,0.8470
6931.00,0.8388
6930.00,0.8310
6929.00,0.8238
6928.00,0.8172
6927.00,0.8110
6926.00,0.8052
6925.00,0.7998
6924.00,0.7949
6923.00,0.7906
6922.00,0.7868
6921.00,0.7834
6920.00,0.7805
6919.00,0.7782
6918.00,0.7767
6917.00,0.7759
6916.00,0.7757
6915.00,0.7761
6914.00,0.7770
6913.00,0.7784
6912.00,0.7806
6911.00,0.7833
6910.00,0.7866
6909.00,0.7905
6908.00,0.7950
6907.00,0.8000
6906.00,0.8054
6905.00,0.8111
6904.00,0.8172
6903.00,0.8237
6902.00,0.8308
6901.00,0.8383
6900.00,0.8463
6899.00,0.8546
6898.00,0.8632
6897.00,0.8721
6896.00,0.8811
6895.00,0.8903
6894.00,0.8997
6893.00,0.9097
6892.00,0.9199
6891.00,0.9302
6890.00,0.9404
6889.00,0.9505
6888.00,0.9606
6887.00,0.9708
6886.00,0.9809
6885.00,0.9911
6884.00,1.0015
6883.00,1.0122
6882.00,1.0228
6881.00,1.0330
6880.00,1.0428
6879.00,1.0521
6878.00,1.0612
6877.00,1.0699
6876.00,1.0784
6875.00,1.0868
6874.00,1.0955
6873.00,1.1044
6872.00,1.1133
6871.00,1.1215
6870.00,1.1292
6869.00,1.1365
6868.00,1.1438
6867.00,1.1508
6866.00,1.1573
6865.00,1.1634
6864.00,1.1692
6863.00,1.1748
6862.00,1.1802
6861.00,1.1853
6860.00,1.1898
6859.00,1.1939
6858.00,1.1976
6857.00,1.2014
6856.00,1.2053
6855.00,1.2088
6854.00,1.2116
6853.00,1.2135
6852.00,1.2148
6851.00,1.2158
6850.00,1.2168
6849.00,1.2176
6848.00,1.2179
6847.00,1.2174
6846.00,1.2163
6845.00,1.2151
6844.00,1.2136
6843.00,1.2115
6842.00,1.2086
6841.00,1.2054
6840.00,1.2022
6839.00,1.1991
6838.00,1.1957
6837.00,1.1916
6836.00,1.1869
6835.00,1.1816
6834.00,1.1761
6833.00,1.1702
6832.00,1.1640
6831.00,1.1576
6830.00,1.1508
6829.00,1.1436
6828.00,1.1360
6827.00,1.1279
6826.00,1.1194
6825.00,1.1107
6824.00,1.1018
6823.00,1.0929
6822.00,1.0842
6821.00,1.0753
6820.00,1.0662
6819.00,1.0566
6818.00,1.0465
6817.00,1.0362
6816.00,1.0257
6815.00,1.0149
6814.00,1.0039
6813.00,0.9931
6812.00,0.9828
6811.00,0.9729
6810.00,0.9631
6809.00,0.9530
6808.00,0.9426
6807.00,0.9319
6806.00,0.9211
6805.00,0.9104
6804.00,0.8999
6803.00,0.8897
6802.00,0.8800
6801.00,0.8709
6800.00,0.8623
6799.00,0.8540
6798.00,0.8458
6797.00,0.8378
6796.00,0.8301
6795.00,0.8228
6794.00,0.8159
6793.00,0.8094
6792.00,0.8032
6791.00,0.7975
6790.00,0.7927
6789.00,0.7887
6788.00,0.7855
6787.00,0.7828
6786.00,0.7808
6785.00,0.7794
6784.00,0.7786
6783.00,0.7784
6782.00,0.7787
6781.00,0.7797
6780.00,0.7810
6779.00,0.7828
6778.00,0.7852
6777.00,0.7884
6776.00,0.7922
6775.00,0.7966
6774.00,0.8016
6773.00,0.8074
6772.00,0.8140
6771.00,0.8211
6770.00,0.8284
6769.00,0.8360
6768.00,0.8438
6767.00,0.8517
6766.00,0.8599
6765.00,0.8683
6764.00,0.8770
6763.00,0.8860
6762.00,0.8953
6761.00,0.9049
6760.00,0.9151
6759.00,0.9256
6758.00,0.9364
6757.00,0.9472
6756.00,0.9579
6755.00,0.9684
6754.00,0.9788
6753.00,0.9891
6752.00,0.9992
6751.00,1.0092
6750.00,1.0191
6749.00,1.0289
6748.00,1.0387
6747.00,1.0483
6746.00,1.0576
6745.00,1.0668
6744.00,1.0759
6743.00,1.0846
6742.00,1.0930
6741.00,1.1013
6740.00,1.1097
6739.00,1.1180
6738.00,1.1261
6737.00,1.1337
6736.00,1.1412
6735.00,1.1484
6734.00,1.1551
6733.00,1.1611
6732.00,1.1667
6731.00,1.1721
6730.00,1.1774
6729.00,1.1821
6728.00,1.1861
6727.00,1.1897
6726.00,1.1932
6725.00,1.1967
6724.00,1.1998
6723.00,1.2020
6722.00,1.2037
6721.00,1.2051
6720.00,1.2062
6719.00,1.2070
6718.00,1.2075
6717.00,1.2081
6716.00,1.2087
6715.00,1.2091
6714.00,1.2088
6713.00,1.2079
6712.00,1.2063
6711.00,1.2042
6710.00,1.2013
6709.00,1.1976
6708.00,1.1936
6707.00,1.1894
6706.00,1.1851
6705.00,1.1806
6704.00,1.1760
6703.00,1.1714
6702.00,1.1667
6701.00,1.1616
6700.00,1.1558
6699.00,1.1491
6698.00,1.1418
6697.00,1.1340
6696.00,1.1263
6695.00,1.1186
6694.00,1.1109
6693.00,1.1030
6692.00,1.0946
6691.00,1.0859
6690.00,1.0768
6689.00,1.0676
6688.00,1.0582
6687.00,1.0487
6686.00,1.0391
6685.00,1.0295
6684.00,1.0199
6683.00,1.0099
6682.00,0.9997
6681.00,0.9893
6680.00,0.9790
6679.00,0.9688
6678.00,0.9586
6677.00,0.9483
6676.00,0.9379
6675.00,0.9277
6674.00,0.9176
6673.00,0.9077
6672.00,0.8978
6671.00,0.8879
6670.00,0.8783
6669.00,0.8690
6668.00,0.8599
6667.00,0.8509
6666.00,0.8421
6665.00,0.8337
6664.00,0.8258
6663.00,0.8184
6662.00,0.8114
6661.00,0.8048
6660.00,0.7987
6659.00,0.7932
6658.00,0.7883
6657.00,0.7839
6656.00,0.7800
6655.00,0.7766
6654.00,0.7739
6653.00,0.7719
6652.00,0.7706
6651.00,0.7699
6650.00,0.7697
6649.00,0.7700
6648.00,0.7711
6647.00,0.7727
6646.00,0.7751
6645.00,0.7781
6644.00,0.7819
6643.00,0.7864
6642.00,0.7916
6641.00,0.7973
6640.00,0.8034
6639.00,0.8099
6638.00,0.8168
6637.00,0.8239
6636.00,0.8313
6635.00,0.8392
6634.00,0.8477
6633.00,0.8567
6632.00,0.8662
6631.00,0.8762
6630.00,0.8864
6629.00,0.8968
6628.00,0.9071
6627.00,0.9174
6626.00,0.9278
6625.00,0.9382
6624.00,0.9486
6623.00,0.9591
6622.00,0.9699
6621.00,0.9810
6620.00,0.9921
6619.00,1.0030
6618.00,1.0136
6617.00,1.0239
6616.00,1.0342
6615.00,1.0444
6614.00,1.0545
6613.00,1.0643
6612.00,1.0740
6611.00,1.0839
6610.00,1.0941
6609.00,1.1042
6608.00,1.1138
6607.00,1.1227
6606.00,1.1314
6605.00,1.1400
6604.00,1.1485
6603.00,1.1565
6602.00,1.1642
6601.00,1.1717
6600.00,1.1790
6599.00,1.1858
6598.00,1.1921
6597.00,1.1977
6596.00,1.2029
6595.00,1.2078
6594.00,1.2124
6593.00,1.2169
6592.00,1.2210
6591.00,1.2245
6590.00,1.2275
6589.00,1.2300
6588.00,1.2322
6587.00,1.2341
6586.00,1.2355
6585.00,1.2363
6584.00,1.2365
6583.00,1.2366
6582.00,1.2365
6581.00,1.2361
6580.00,1.2353
6579.00,1.2340
6578.00,1.2322
6577.00,1.2302
6576.00,1.2277
6575.00,1.2247
6574.00,1.2215
6573.00,1.2181
6572.00,1.2144
6571.00,1.2101
6570.00,1.2054
6569.00,1.2002
6568.00,1.1947
6567.00,1.1886
6566.00,1.1819
6565.00,1.1748
6564.00,1.1675
6563.00,1.1600
6562.00,1.1521
6561.00,1.1438
6560.00,1.1353
6559.00,1.1266
6558.00,1.1176
6557.00,1.1083
6556.00,1.0987
6555.00,1.0891
6554.00,1.0792
6553.00,1.0689
6552.00,1.0585
6551.00,1.0479
6550.00,1.0371
6549.00,1.0259
6548.00,1.0143
6547.00,1.0026
6546.00,0.9911
6545.00,0.9797
6544.00,0.9684
6543.00,0.9570
6542.00,0.9458
6541.00,0.9347
6540.00,0.9237
6539.00,0.9129
6538.00,0.9024
6537.00,0.8922
6536.00,0.8822
6535.00,0.8723
6534.00,0.8626
6533.00,0.8532
6532.00,0.8442
6531.00,0.8355
6530.00,0.8274
6529.00,0.8198
6528.00,0.8128
6527.00,0.8064
6526.00,0.8005
6525.00,0.7951
6524.00,0.7900
6523.00,0.7854
6522.00,0.7816
6521.00,0.7786
6520.00,0.7764
6519.00,0.7748
6518.00,0.7739
6517.00,0.7737
6516.00,0.7742
6515.00,0.7752
6514.00,0.7769
6513.00,0.7794
6512.00,0.7827
6511.00,0.7866
6510.00,0.7912
6509.00,0.7964
6508.00,0.8020
6507.00,0.8081
6506.00,0.8145
6505.00,0.8215
6504.00,0.8291
6503.00,0.8373
6502.00,0.8460
6501.00,0.8550
6500.00,0.8645
6499.00,0.8741
6498.00,0.8840
6497.00,0.8940
6496.00,0.9042
6495.00,0.9146
6494.00,0.9250
6493.00,0.9355
6492.00,0.9460
6491.00,0.9567
6490.00,0.9675
6489.00,0.9784
6488.00,0.9893
6487.00,1.0003
6486.00,1.0112
6485.00,1.0221
6484.00,1.0329
6483.00,1.0434
6482.00,1.0538
6481.00,1.0639
6480.00,1.0738
6479.00,1.0837
6478.00,1.0933
6477.00,1.1025
6476.00,1.1115
6475.00,1.1206
6474.00,1.1295
6473.00,1.1380
6472.00,1.1459
6471.00,1.1532
6470.00,1.1601
6469.00,1.1668
6468.00,1.1731
6467.00,1.1792
6466.00,1.1849
6465.00,1.1906
6464.00,1.1963
6463.00,1.2017
6462.00,1.2066
6461.00,1.2108
6460.00,1.2144
6459.00,1.2177
6458.00,1.2208
6457.00,1.2233
6456.00,1.2251
6455.00,1.2264
6454.00,1.2274
6453.00,1.2281
6452.00,1.2284
6451.00,1.2284
6450.00,1.2280
6449.00,1.2272
6448.00,1.2261
6447.00,1.2246
6446.00,1.2225
6445.00,1.2200
6444.00,1.2172
6443.00,1.2143
6442.00,1.2113
6441.00,1.2081
6440.00,1.2045
6439.00,1.2004
6438.00,1.1955
6437.00,1.1898
6436.00,1.1838
6435.00,1.1778
6434.00,1.1719
6433.00,1.1658
6432.00,1.1594
6431.00,1.1528
6430.00,1.1459
6429.00,1.1384
6428.00,1.1303
6427.00,1.1216
6426.00,1.1126
6425.00,1.1033
6424.00,1.0938
6423.00,1.0841
6422.00,1.0744
6421.00,1.0647
6420.00,1.0550
6419.00,1.0450
6418.00,1.0348
6417.00,1.0244
6416.00,1.0138
6415.00,1.0028
6414.00,0.9915
6413.00,0.9801
6412.00,0.9688
6411.00,0.9575
6410.00,0.9463
6409.00,0.9350
6408.00,0.9239
6407.00,0.9131
6406.00,0.9026
6405.00,0.8921
6404.00,0.8817
6403.00,0.8714
6402.00,0.8614
6401.00,0.8518
6400.00,0.8426
6399.00,0.8337
6398.00,0.8253
6397.00,0.8175
6396.00,0.8102
6395.00,0.8034
6394.00,0.7969
6393.00,0.7911
6392.00,0.7859
6391.00,0.7814
6390.00,0.7775
6389.00,0.7741
6388.00,0.7714
6387.00,0.7692
6386.00,0.7679
6385.00,0.7671
6384.00,0.7670
6383.00,0.7677
6382.00,0.7693
6381.00,0.7717
6380.00,0.7747
6379.00,0.7782
6378.00,0.7822
6377.00,0.7869
6376.00,0.7923
6375.00,0.7984
6374.00,0.8052
6373.00,0.8126
6372.00,0.8206
6371.00,0.8291
6370.00,0.8380
6369.00,0.8471
6368.00,0.8564
6367.00,0.8660
6366.00,0.8759
6365.00,0.8861
6364.00,0.8965
6363.00,0.9072
6362.00,0.9182
6361.00,0.9294
6360.00,0.9407
6359.00,0.9521
6358.00,0.9636
6357.00,0.9751
6356.00,0.9865
6355.00,0.9979
6354.00,1.0093
6353.00,1.0208
6352.00,1.0322
6351.00,1.0433
6350.00,1.0542
6349.00,1.0649
6348.00,1.0756
6347.00,1.0861
6346.00,1.0967
6345.00,1.1070
6344.00,1.1171
6343.00,1.1268
6342.00,1.1363
6341.00,1.1455
6340.00,1.1545
6339.00,1.1633
6338.00,1.1719
6337.00,1.1802
6336.00,1.1881
6335.00,1.1954
6334.00,1.2020
6333.00,1.2081
6332.00,1.2137
6331.00,1.2192
6330.00,1.2246
6329.00,1.2297
6328.00,1.2343
6327.00,1.2384
6326.00,1.2424
6325.00,1.2464
6324.00,1.2501
6323.00,1.2531
6322.00,1.2556
6321.00,1.2575
6320.00,1.2588
6319.00,1.2595
6318.00,1.2598
6317.00,1.2599
6316.00,1.2598
6315.00,1.2595
6314.00,1.2587
6313.00,1.2570
6312.00,1.2546
6311.00,1.2515
6310.00,1.2481
6309.00,1.2446
6308.00,1.2410
6307.00,1.2374
6306.00,1.2338
6305.00,1.2299
6304.00,1.2253
6303.00,1.2200
6302.00,1.2140
6301.00,1.2076
6300.00,1.2006
6299.00,1.1930
6298.00,1.1850
6297.00,1.1769
6296.00,1.1685
6295.00,1.1597
6294.00,1.1508
6293.00,1.1417
6292.00,1.1322
6291.00,1.1224
6290.00,1.1124
6289.00,1.1022
6288.00,1.0916
6287.00,1.0804
6286.00,1.0689
6285.00,1.0572
6284.00,1.0453
6283.00,1.0331
6282.00,1.0206
6281.00,1.0081
6280.00,0.9958
6279.00,0.9838
6278.00,0.9719
6277.00,0.9601
6276.00,0.9482
6275.00,0.9364
6274.00,0.9248
6273.00,0.9133
6272.00,0.9020
6271.00,0.8910
6270.00,0.8803
6269.00,0.8698
6268.00,0.8597
6267.00,0.8499
6266.00,0.8406
6265.00,0.8317
6264.00,0.8233
6263.00,0.8153
6262.00,0.8079
6261.00,0.8011
6260.00,0.7946
6259.00,0.7887
6258.00,0.7835
6257.00,0.7792
6256.00,0.7756
6255.00,0.7726
6254.00,0.7704
6253.00,0.7689
6252.00,0.7682
6251.00,0.7683
6250.00,0.7692
6249.00,0.7709
6248.00,0.7734
6247.00,0.7767
6246.00,0.7806
6245.00,0.7852
6244.00,0.7904
6243.00,0.7962
6242.00,0.8025
6241.00,0.8094
6240.00,0.8166
6239.00,0.8242
6238.00,0.8323
6237.00,0.8411
6236.00,0.8504
6235.00,0.8600
6234.00,0.8700
6233.00,0.8803
6232.00,0.8908
6231.00,0.9014
6230.00,0.9123
6229.00,0.9235
6228.00,0.9350
6227.00,0.9468
6226.00,0.9585
6225.00,0.9702
6224.00,0.9816
6223.00,0.9929
6222.00,1.0041
6221.00,1.0154
6220.00,1.0267
6219.00,1.0380
6218.00,1.0492
6217.00,1.0602
6216.00,1.0709
6215.00,1.0814
6214.00,1.0917
6213.00,1.1020
6212.00,1.1122
6211.00,1.1222
6210.00,1.1317
6209.00,1.1408
6208.00,1.1492
6207.00,1.1572
6206.00,1.1649
6205.00,1.1725
6204.00,1.1798
6203.00,1.1870
6202.00,1.1938
6201.00,1.2002
6200.00,1.2061
6199.00,1.2116
6198.00,1.2168
6197.00,1.2218
6196.00,1.2265
6195.00,1.2309
6194.00,1.2349
6193.00,1.2385
6192.00,1.2416
6191.00,1.2444
6190.00,1.2466
6189.00,1.2481
6188.00,1.2486
6187.00,1.2487
6186.00,1.2487
6185.00,1.2487
6184.00,1.2486
6183.00,1.2484
6182.00,1.2481
6181.00,1.2475
6180.00,1.2461
6179.00,1.2437
6178.00,1.2406
6177.00,1.2374
6176.00,1.2345
6175.00,1.2314
6174.00,1.2281
6173.00,1.2244
6172.00,1.2201
6171.00,1.2151
6170.00,1.2093
6169.00,1.2031
6168.00,1.1967
6167.00,1.1901
6166.00,1.1833
6165.00,1.1761
6164.00,1.1687
6163.00,1.1609
6162.00,1.1527
6161.00,1.1440
6160.00,1.1348
6159.00,1.1253
6158.00,1.1156
6157.00,1.1058
6156.00,1.0956
6155.00,1.0851
6154.00,1.0744
6153.00,1.0634
6152.00,1.0522
6151.00,1.0406
6150.00,1.0287
6149.00,1.0168
6148.00,1.0048
6147.00,0.9927
6146.00,0.9806
6145.00,0.9684
6144.00,0.9561
6143.00,0.9439
6142.00,0.9318
6141.00,0.9200
6140.00,0.9086
6139.00,0.8972
6138.00,0.8861
6137.00,0.8751
6136.00,0.8644
6135.00,0.8540
6134.00,0.8440
6133.00,0.8345
6132.00,0.8256
6131.00,0.8174
6130.00,0.8097
6129.00,0.8025
6128.00,0.7957
6127.00,0.7892
6126.00,0.7834
6125.00,0.7783
6124.00,0.7741
6123.00,0.7707
6122.00,0.7680
6121.00,0.7663
6120.00,0.7653
6119.00,0.7650
6118.00,0.7654
6117.00,0.7666
6116.00,0.7685
6115.00,0.7712
6114.00,0.7747
6113.00,0.7791
6112.00,0.7842
6111.00,0.7900
6110.00,0.7963
6109.00,0.8032
6108.00,0.8108
6107.00,0.8188
6106.00,0.8273
6105.00,0.8363
6104.00,0.8456
6103.00,0.8554
6102.00,0.8655
6101.00,0.8760
6100.00,0.8868
6099.00,0.8980
6098.00,0.9094
6097.00,0.9210
6096.00,0.9327
6095.00,0.9444
6094.00,0.9562
6093.00,0.9683
6092.00,0.9805
6091.00,0.9928
6090.00,1.0053
6089.00,1.0179
6088.00,1.0302
6087.00,1.0422
6086.00,1.0539
6085.00,1.0655
6084.00,1.0770
6083.00,1.0883
6082.00,1.0994
6081.00,1.1105
6080.00,1.1216
6079.00,1.1325
6078.00,1.1430
6077.00,1.1530
6076.00,1.1626
6075.00,1.1718
6074.00,1.1811
6073.00,1.1902
6072.00,1.1990
6071.00,1.2075
6070.00,1.2155
6069.00,1.2229
6068.00,1.2297
6067.00,1.2359
6066.00,1.2417
6065.00,1.2474
6064.00,1.2528
6063.00,1.2578
6062.00,1.2624
6061.00,1.2666
6060.00,1.2704
6059.00,1.2736
6058.00,1.2763
6057.00,1.2784
6056.00,1.2800
6055.00,1.2812
6054.00,1.2823
6053.00,1.2831
6052.00,1.2837
6051.00,1.2839
6050.00,1.2838
6049.00,1.2834
6048.00,1.2824
6047.00,1.2806
6046.00,1.2782
6045.00,1.2751
6044.00,1.2715
6043.00,1.2677
6042.00,1.2637
6041.00,1.2593
6040.00,1.2546
6039.00,1.2495
6038.00,1.2439
6037.00,1.2379
6036.00,1.2314
6035.00,1.2246
6034.00,1.2174
6033.00,1.2100
6032.00,1.2022
6031.00,1.1939
6030.00,1.1852
6029.00,1.1759
6028.00,1.1662
6027.00,1.1560
6026.00,1.1453
6025.00,1.1343
6024.00,1.1230
6023.00,1.1117
6022.00,1.1002
6021.00,1.0887
6020.00,1.0769
6019.00,1.0647
6018.00,1.0523
6017.00,1.0398
6016.00,1.0272
6015.00,1.0144
6014.00,1.0015
6013.00,0.9884
6012.00,0.9753
6011.00,0.9620
6010.00,0.9488
6009.00,0.9360
6008.00,0.9236
6007.00,0.9114
6006.00,0.8993
6005.00,0.8874
6004.00,0.8757
6003.00,0.8643
6002.00,0.8533
6001.00,0.8429
6000.00,0.8330
5999.00,0.8237
5998.00,0.8149
5997.00,0.8067
5996.00,0.7989
5995.00,0.7917
5994.00,0.7853
5993.00,0.7797
5992.00,0.7748
5991.00,0.7706
5990.00,0.7673
5989.00,0.7648
5988.00,0.7631
5987.00,0.7622
5986.00,0.7621
5985.00,0.7629
5984.00,0.7644
5983.00,0.7668
5982.00,0.7699
5981.00,0.7739
5980.00,0.7785
5979.00,0.7839
5978.00,0.7900
5977.00,0.7968
5976.00,0.8042
5975.00,0.8122
5974.00,0.8209
5973.00,0.8304
5972.00,0.8403
5971.00,0.8505
5970.00,0.8610
5969.00,0.8719
5968.00,0.8831
5967.00,0.8945
5966.00,0.9063
5965.00,0.9186
5964.00,0.9313
5963.00,0.9441
5962.00,0.9568
5961.00,0.9696
5960.00,0.9824
5959.00,0.9952
5958.00,1.0078
5957.00,1.0204
5956.00,1.0329
5955.00,1.0456
5954.00,1.0581
5953.00,1.0704
5952.00,1.0826
5951.00,1.0947
5950.00,1.1066
5949.00,1.1184
5948.00,1.1301
5947.00,1.1416
5946.00,1.1529
5945.00,1.1637
5944.00,1.1741
5943.00,1.1839
5942.00,1.1933
5941.00,1.2023
5940.00,1.2111
5939.00,1.2198
5938.00,1.2282
5937.00,1.2364
5936.00,1.2440
5935.00,1.2512
5934.00,1.2580
5933.00,1.2644
5932.00,1.2707
5931.00,1.2767
5930.00,1.2823
5929.00,1.2872
5928.00,1.2914
5927.00,1.2951
5926.00,1.2983
5925.00,1.3010
5924.00,1.3033
5923.00,1.3053
5922.00,1.3070
5921.00,1.3082
5920.00,1.3089
5919.00,1.3090
5918.00,1.3087
5917.00,1.3081
5916.00,1.3070
5915.00,1.3053
5914.00,1.3031
5913.00,1.3007
5912.00,1.2982
5911.00,1.2955
5910.00,1.2923
5909.00,1.2885
5908.00,1.2842
5907.00,1.2794
5906.00,1.2741
5905.00,1.2683
5904.00,1.2618
5903.00,1.2550
5902.00,1.2476
5901.00,1.2396
5900.00,1.2310
5899.00,1.2221
5898.00,1.2130
5897.00,1.2039
5896.00,1.1945
5895.00,1.1847
5894.00,1.1745
5893.00,1.1640
5892.00,1.1531
5891.00,1.1417
5890.00,1.1300
5889.00,1.1179
5888.00,1.1055
5887.00,1.0930
5886.00,1.0805
5885.00,1.0680
5884.00,1.0555
5883.00,1.0429
5882.00,1.0302
5881.00,1.0174
5880.00,1.0043
5879.00,0.9912
5878.00,0.9780
5877.00,0.9650
5876.00,0.9522
5875.00,0.9396
5874.00,0.9274
5873.00,0.9154
5872.00,0.9037
5871.00,0.8922
5870.00,0.8812
5869.00,0.8707
5868.00,0.8606
5867.00,0.8509
5866.00,0.8416
5865.00,0.8329
5864.00,0.8248
5863.00,0.8171
5862.00,0.8102
5861.00,0.8041
5860.00,0.7988
5859.00,0.7941
5858.00,0.7902
5857.00,0.7870
5856.00,0.7844
5855.00,0.7827
5854.00,0.7817
5853.00,0.7816
5852.00,0.7824
5851.00,0.7841
5850.00,0.7867
5849.00,0.7900
5848.00,0.7941
5847.00,0.7990
5846.00,0.8044
5845.00,0.8105
5844.00,0.8173
5843.00,0.8247
5842.00,0.8329
5841.00,0.8418
5840.00,0.8512
5839.00,0.8610
5838.00,0.8713
5837.00,0.8818
5836.00,0.8927
5835.00,0.9039
5834.00,0.9155
5833.00,0.9276
5832.00,0.9398
5831.00,0.9521
5830.00,0.9645
5829.00,0.9769
5828.00,0.9894
5827.00,1.0020
5826.00,1.0147
5825.00,1.0274
5824.00,1.0403
5823.00,1.0531
5822.00,1.0658
5821.00,1.0784
5820.00,1.0909
5819.00,1.1033
5818.00,1.1155
5817.00,1.1273
5816.00,1.1388
5815.00,1.1500
5814.00,1.1612
5813.00,1.1722
5812.00,1.1829
5811.00,1.1933
5810.00,1.2033
5809.00,1.2128
5808.00,1.2218
5807.00,1.2306
5806.00,1.2391
5805.00,1.2474
5804.00,1.2552
5803.00,1.2626
5802.00,1.2695
5801.00,1.2760
5800.00,1.2818
5799.00,1.2873
5798.00,1.2926
5797.00,1.2978
5796.00,1.3026
5795.00,1.3067
5794.00,1.3104
5793.00,1.3138
5792.00,1.3170
5791.00,1.3197
5790.00,1.3218
5789.00,1.3234
5788.00,1.3245
5787.00,1.3250
5786.00,1.3249
5785.00,1.3244
5784.00,1.3235
5783.00,1.3224
5782.00,1.3211
5781.00,1.3195
5780.00,1.3174
5779.00,1.3147
5778.00,1.3115
5777.00,1.3077
5776.00,1.3035
5775.00,1.2986
5774.00,1.2933
5773.00,1.2879
5772.00,1.2826
5771.00,1.2770
5770.00,1.2710
5769.00,1.2643
5768.00,1.2570
5767.00,1.2490
5766.00,1.2402
5765.00,1.2309
5764.00,1.2212
5763.00,1.2113
5762.00,1.2011
5761.00,1.1907
5760.00,1.1800
5759.00,1.1692
5758.00,1.1581
5757.00,1.1466
5756.00,1.1349
5755.00,1.1227
5754.00,1.1101
5753.00,1.0972
5752.00,1.0841
5751.00,1.0710
5750.00,1.0579
5749.00,1.0447
5748.00,1.0314
5747.00,1.0180
5746.00,1.0046
5745.00,0.9913
5744.00,0.9781
5743.00,0.9648
5742.00,0.9517
5741.00,0.9388
5740.00,0.9261
5739.00,0.9137
5738.00,0.9017
5737.00,0.8900
5736.00,0.8788
5735.00,0.8679
5734.00,0.8574
5733.00,0.8473
5732.00,0.8378
5731.00,0.8290
5730.00,0.8209
5729.00,0.8136
5728.00,0.8070
5727.00,0.8009
5726.00,0.7956
5725.00,0.7911
5724.00,0.7874
5723.00,0.7844
5722.00,0.7823
5721.00,0.7811
5720.00,0.7808
5719.00,0.7812
5718.00,0.7824
5717.00,0.7844
5716.00,0.7872
5715.00,0.7909
5714.00,0.7955
5713.00,0.8010
5712.00,0.8073
5711.00,0.8143
5710.00,0.8220
5709.00,0.8304
5708.00,0.8393
5707.00,0.8486
5706.00,0.8585
5705.00,0.8688
5704.00,0.8795
5703.00,0.8906
5702.00,0.9021
5701.00,0.9140
5700.00,0.9262
5699.00,0.9389
5698.00,0.9517
5697.00,0.9645
5696.00,0.9774
5695.00,0.9903
5694.00,1.0033
5693.00,1.0165
5692.00,1.0297
5691.00,1.0429
5690.00,1.0560
5689.00,1.0690
5688.00,1.0819
5687.00,1.0946
5686.00,1.1071
5685.00,1.1194
5684.00,1.1316
5683.00,1.1435
5682.00,1.1551
5681.00,1.1664
5680.00,1.1776
5679.00,1.1887
5678.00,1.1996
5677.00,1.2102
5676.00,1.2204
5675.00,1.2303
5674.00,1.2398
5673.00,1.2488
5672.00,1.2572
5671.00,1.2652
5670.00,1.2729
5669.00,1.2803
5668.00,1.2874
5667.00,1.2939
5666.00,1.2999
5665.00,1.3054
5664.00,1.3103
5663.00,1.3148
5662.00,1.3190
5661.00,1.3229
5660.00,1.3262
5659.00,1.3291
5658.00,1.3316
5657.00,1.3338
5656.00,1.3355
5655.00,1.3368
5654.00,1.3376
5653.00,1.3378
5652.00,1.3376
5651.00,1.3367
5650.00,1.3355
5649.00,1.3341
5648.00,1.3324
5647.00,1.3303
5646.00,1.3277
5645.00,1.3246
5644.00,1.3211
5643.00,1.3172
5642.00,1.3128
5641.00,1.3080
5640.00,1.3029
5639.00,1.2972
5638.00,1.2909
5637.00,1.2840
5636.00,1.2766
5635.00,1.2687
5634.00,1.2605
5633.00,1.2521
5632.00,1.2434
5631.00,1.2342
5630.00,1.2243
5629.00,1.2140
5628.00,1.2033
5627.00,1.1923
5626.00,1.1811
5625.00,1.1696
5624.00,1.1578
5623.00,1.1457
5622.00,1.1331
5621.00,1.1200
5620.00,1.1065
5619.00,1.0926
5618.00,1.0784
5617.00,1.0640
5616.00,1.0495
5615.00,1.0349
5614.00,1.0205
5613.00,1.0062
5612.00,0.9919
5611.00,0.9776
5610.00,0.9633
5609.00,0.9493
5608.00,0.9355
5607.00,0.9220
5606.00,0.9087
5605.00,0.8957
5604.00,0.8830
5603.00,0.8705
5602.00,0.8585
5601.00,0.8470
5600.00,0.8361
5599.00,0.8259
5598.00,0.8164
5597.00,0.8077
5596.00,0.7998
5595.00,0.7926
5594.00,0.7862
5593.00,0.7806
5592.00,0.7759
5591.00,0.7720
5590.00,0.7690
5589.00,0.7669
5588.00,0.7657
5587.00,0.7655
5586.00,0.7663
5585.00,0.7680
5584.00,0.7707
5583.00,0.7742
5582.00,0.7787
5581.00,0.7840
5580.00,0.7901
5579.00,0.7967
5578.00,0.8042
5577.00,0.8124
5576.00,0.8214
5575.00,0.8311
5574.00,0.8415
5573.00,0.8524
5572.00,0.8637
5571.00,0.8753
5570.00,0.8873
5569.00,0.8997
5568.00,0.9124
5567.00,0.9255
5566.00,0.9387
5565.00,0.9520
5564.00,0.9654
5563.00,0.9786
5562.00,0.9919
5561.00,1.0052
5560.00,1.0187
5559.00,1.0322
5558.00,1.0456
5557.00,1.0590
5556.00,1.0722
5555.00,1.0851
5554.00,1.0978
5553.00,1.1101
5552.00,1.1220
5551.00,1.1337
5550.00,1.1453
5549.00,1.1569
5548.00,1.1683
5547.00,1.1794
5546.00,1.1902
5545.00,1.2004
5544.00,1.2103
5543.00,1.2197
5542.00,1.2289
5541.00,1.2378
5540.00,1.2465
5539.00,1.2548
5538.00,1.2628
5537.00,1.2703
5536.00,1.2775
5535.00,1.2842
5534.00,1.2904
5533.00,1.2961
5532.00,1.3015
5531.00,1.3067
5530.00,1.3115
5529.00,1.3160
5528.00,1.3202
5527.00,1.3239
5526.00,1.3273
5525.00,1.3302
5524.00,1.3327
5523.00,1.3346
5522.00,1.3360
5521.00,1.3369
5520.00,1.3372
5519.00,1.3370
5518.00,1.3365
5517.00,1.3359
5516.00,1.3352
5515.00,1.3342
5514.00,1.3328
5513.00,1.3310
5512.00,1.3286
5511.00,1.3256
5510.00,1.3219
5509.00,1.3177
5508.00,1.3131
5507.00,1.3082
5506.00,1.3029
5505.00,1.2970
5504.00,1.2906
5503.00,1.2836
5502.00,1.2762
5501.00,1.2683
5500.00,1.2601
5499.00,1.2515
5498.00,1.2424
5497.00,1.2328
5496.00,1.2226
5495.00,1.2120
5494.00,1.2008
5493.00,1.1893
5492.00,1.1773
5491.00,1.1652
5490.00,1.1527
5489.00,1.1397
5488.00,1.1263
5487.00,1.1124
5486.00,1.0983
5485.00,1.0839
5484.00,1.0695
5483.00,1.0548
5482.00,1.0401
5481.00,1.0254
5480.00,1.0106
5479.00,0.9958
5478.00,0.9810
5477.00,0.9661
5476.00,0.9512
5475.00,0.9364
5474.00,0.9220
5473.00,0.9081
5472.00,0.8947
5471.00,0.8815
5470.00,0.8687
5469.00,0.8563
5468.00,0.8444
5467.00,0.8333
5466.00,0.8230
5465.00,0.8135
5464.00,0.8045
5463.00,0.7962
5462.00,0.7885
5461.00,0.7817
5460.00,0.7758
5459.00,0.7709
5458.00,0.7671
5457.00,0.7644
5456.00,0.7627
5455.00,0.7619
5454.00,0.7621
5453.00,0.7634
5452.00,0.7656
5451.00,0.7688
5450.00,0.7729
5449.00,0.7780
5448.00,0.7840
5447.00,0.7908
5446.00,0.7985
5445.00,0.8069
5444.00,0.8160
5443.00,0.8258
5442.00,0.8362
5441.00,0.8474
5440.00,0.8591
5439.00,0.8713
5438.00,0.8841
5437.00,0.8973
5436.00,0.9107
5435.00,0.9244
5434.00,0.9383
5433.00,0.9526
5432.00,0.9670
5431.00,0.9813
5430.00,0.9957
5429.00,1.0101
5428.00,1.0247
5427.00,1.0395
5426.00,1.0545
5425.00,1.0692
5424.00,1.0837
5423.00,1.0978
5422.00,1.1119
5421.00,1.1260
5420.00,1.1399
5419.00,1.1534
5418.00,1.1665
5417.00,1.1792
5416.00,1.1918
5415.00,1.2042
5414.00,1.2163
5413.00,1.2280
5412.00,1.2394
5411.00,1.2502
5410.00,1.2606
5409.00,1.2704
5408.00,1.2798
5407.00,1.2889
5406.00,1.2976
5405.00,1.3059
5404.00,1.3136
5403.00,1.3208
5402.00,1.3277
5401.00,1.3343
5400.00,1.3404
5399.00,1.3461
5398.00,1.3513
5397.00,1.3560
5396.00,1.3602
5395.00,1.3640
5394.00,1.3673
5393.00,1.3701
5392.00,1.3726
5391.00,1.3745
5390.00,1.3759
5389.00,1.3768
5388.00,1.3773
5387.00,1.3773
5386.00,1.3769
5385.00,1.3759
5384.00,1.3746
5383.00,1.3728
5382.00,1.3704
5381.00,1.3675
5380.00,1.3642
5379.00,1.3607
5378.00,1.3567
5377.00,1.3523
5376.00,1.3474
5375.00,1.3419
5374.00,1.3360
5373.00,1.3296
5372.00,1.3228
5371.00,1.3155
5370.00,1.3079
5369.00,1.2998
5368.00,1.2911
5367.00,1.2818
5366.00,1.2721
5365.00,1.2621
5364.00,1.2517
5363.00,1.2408
5362.00,1.2295
5361.00,1.2176
5360.00,1.2051
5359.00,1.1922
5358.00,1.1789
5357.00,1.1654
5356.00,1.1516
5355.00,1.1375
5354.00,1.1230
5353.00,1.1079
5352.00,1.0927
5351.00,1.0773
5350.00,1.0619
5349.00,1.0465
5348.00,1.0309
5347.00,1.0152
5346.00,0.9995
5345.00,0.9837
5344.00,0.9677
5343.00,0.9519
5342.00,0.9366
5341.00,0.9219
5340.00,0.9074
5339.00,0.8930
5338.00,0.8787
5337.00,0.8651
5336.00,0.8524
5335.00,0.8404
5334.00,0.8291
5333.00,0.8183
5332.00,0.8082
5331.00,0.7990
5330.00,0.7908
5329.00,0.7834
5328.00,0.7769
5327.00,0.7712
5326.00,0.7664
5325.00,0.7627
5324.00,0.7601
5323.00,0.7585
5322.00,0.7578
5321.00,0.7582
5320.00,0.7597
5319.00,0.7623
5318.00,0.7660
5317.00,0.7708
5316.00,0.7765
5315.00,0.7831
5314.00,0.7906
5313.00,0.7988
5312.00,0.8079
5311.00,0.8176
5310.00,0.8280
5309.00,0.8393
5308.00,0.8513
5307.00,0.8639
5306.00,0.8771
5305.00,0.8906
5304.00,0.9043
5303.00,0.9182
5302.00,0.9324
5301.00,0.9468
5300.00,0.9616
5299.00,0.9766
5298.00,0.9917
5297.00,1.0067
5296.00,1.0218
5295.00,1.0369
5294.00,1.0520
5293.00,1.0671
5292.00,1.0819
5291.00,1.0965
5290.00,1.1110
5289.00,1.1253
5288.00,1.1395
5287.00,1.1534
5286.00,1.1671
5285.00,1.1805
5284.00,1.1937
5283.00,1.2065
5282.00,1.2190
5281.00,1.2311
5280.00,1.2428
5279.00,1.2542
5278.00,1.2652
5277.00,1.2760
5276.00,1.2863
5275.00,1.2961
5274.00,1.3055
5273.00,1.3144
5272.00,1.3229
5271.00,1.3308
5270.00,1.3380
5269.00,1.3448
5268.00,1.3513
5267.00,1.3575
5266.00,1.3634
5265.00,1.3689
5264.00,1.3738
5263.00,1.3782
5262.00,1.3821
5261.00,1.3857
5260.00,1.3887
5259.00,1.3909
5258.00,1.3924
5257.00,1.3935
5256.00,1.3944
5255.00,1.3954
5254.00,1.3961
5253.00,1.3965
5252.00,1.3961
5251.00,1.3948
5250.00,1.3928
5249.00,1.3902
5248.00,1.3874
5247.00,1.3846
5246.00,1.3817
5245.00,1.3785
5244.00,1.3746
5243.00,1.3699
5242.00,1.3646
5241.00,1.3589
5240.00,1.3529
5239.00,1.3465
5238.00,1.3395
5237.00,1.3319
5236.00,1.3237
5235.00,1.3149
5234.00,1.3056
5233.00,1.2960
5232.00,1.2859
5231.00,1.2752
5230.00,1.2640
5229.00,1.2523
5228.00,1.2402
5227.00,1.2278
5226.00,1.2147
5225.00,1.2010
5224.00,1.1868
5223.00,1.1722
5222.00,1.1575
5221.00,1.1426
5220.00,1.1277
5219.00,1.1125
5218.00,1.0971
5217.00,1.0815
5216.00,1.0656
5215.00,1.0494
5214.00,1.0332
5213.00,1.0170
5212.00,1.0009
5211.00,0.9851
5210.00,0.9694
5209.00,0.9540
5208.00,0.9385
5207.00,0.9232
5206.00,0.9081
5205.00,0.8934
5204.00,0.8793
5203.00,0.8659
5202.00,0.8532
5201.00,0.8413
5200.00,0.8301
5199.00,0.8198
5198.00,0.8104
5197.00,0.8018
5196.00,0.7942
5195.00,0.7875
5194.00,0.7818
5193.00,0.7771
5192.00,0.7734
5191.00,0.7707
5190.00,0.7692
5189.00,0.7688
5188.00,0.7696
5187.00,0.7715
5186.00,0.7745
5185.00,0.7785
5184.00,0.7835
5183.00,0.7896
5182.00,0.7967
5181.00,0.8048
5180.00,0.8139
5179.00,0.8238
5178.00,0.8345
5177.00,0.8460
5176.00,0.8581
5175.00,0.8707
5174.00,0.8838
5173.00,0.8974
5172.00,0.9114
5171.00,0.9259
5170.00,0.9408
5169.00,0.9560
5168.00,0.9715
5167.00,0.9872
5166.00,1.0029
5165.00,1.0187
5164.00,1.0345
5163.00,1.0503
5162.00,1.0661
5161.00,1.0819
5160.00,1.0975
5159.00,1.1129
5158.00,1.1282
5157.00,1.1434
5156.00,1.1585
5155.00,1.1733
5154.00,1.1878
5153.00,1.2020
5152.00,1.2159
5151.00,1.2294
5150.00,1.2427
5149.00,1.2556
5148.00,1.2681
5147.00,1.2802
5146.00,1.2917
5145.00,1.3028
5144.00,1.3133
5143.00,1.3233
5142.00,1.3328
5141.00,1.3417
5140.00,1.3503
5139.00,1.3585
5138.00,1.3664
5137.00,1.3739
5136.00,1.3810
5135.00,1.3876
5134.00,1.3937
5133.00,1.3991
5132.00,1.4040
5131.00,1.4083
5130.00,1.4121
5129.00,1.4154
5128.00,1.4184
5127.00,1.4209
5126.00,1.4230
5125.00,1.4247
5124.00,1.4260
5123.00,1.4268
5122.00,1.4272
5121.00,1.4271
5120.00,1.4264
5119.00,1.4250
5118.00,1.4231
5117.00,1.4209
5116.00,1.4184
5115.00,1.4155
5114.00,1.4123
5113.00,1.4085
5112.00,1.4043
5111.00,1.3996
5110.00,1.3942
5109.00,1.3883
5108.00,1.3820
5107.00,1.3753
5106.00,1.3681
5105.00,1.3603
5104.00,1.3519
5103.00,1.3431
5102.00,1.3338
5101.00,1.3240
5100.00,1.3138
5099.00,1.3031
5098.00,1.2919
5097.00,1.2801
5096.00,1.2677
5095.00,1.2549
5094.00,1.2419
5093.00,1.2285
5092.00,1.2146
5091.00,1.2003
5090.00,1.1854
5089.00,1.1702
5088.00,1.1546
5087.00,1.1386
5086.00,1.1224
5085.00,1.1059
5084.00,1.0892
5083.00,1.0723
5082.00,1.0552
5081.00,1.0382
5080.00,1.0211
5079.00,1.0040
5078.00,0.9871
5077.00,0.9703
5076.00,0.9537
5075.00,0.9374
5074.00,0.9215
5073.00,0.9059
5072.00,0.8908
5071.00,0.8762
5070.00,0.8622
5069.00,0.8488
5068.00,0.8362
5067.00,0.8242
5066.00,0.8130
5065.00,0.8027
5064.00,0.7934
5063.00,0.7851
5062.00,0.7779
5061.00,0.7718
5060.00,0.7669
5059.00,0.7631
5058.00,0.7605
5057.00,0.7591
5056.00,0.7589
5055.00,0.7599
5054.00,0.7621
5053.00,0.7656
5052.00,0.7702
5051.00,0.7759
5050.00,0.7828
5049.00,0.7907
5048.00,0.7996
5047.00,0.8095
5046.00,0.8202
5045.00,0.8317
5044.00,0.8440
5043.00,0.8569
5042.00,0.8705
5041.00,0.8847
5040.00,0.8994
5039.00,0.9146
5038.00,0.9302
5037.00,0.9461
5036.00,0.9622
5035.00,0.9784
5034.00,0.9947
5033.00,1.0112
5032.00,1.0277
5031.00,1.0442
5030.00,1.0608
5029.00,1.0773
5028.00,1.0937
5027.00,1.1101
5026.00,1.1263
5025.00,1.1424
5024.00,1.1583
5023.00,1.1739
5022.00,1.1893
5021.00,1.2043
5020.00,1.2190
5019.00,1.2333
5018.00,1.2473
5017.00,1.2609
5016.00,1.2742
5015.00,1.2870
5014.00,1.2994
5013.00,1.3115
5012.00,1.3231
5011.00,1.3341
5010.00,1.3444
5009.00,1.3542
5008.00,1.3634
5007.00,1.3722
5006.00,1.3808
5005.00,1.3890
5004.00,1.3965
5003.00,1.4034
5002.00,1.4095
5001.00,1.4152
5000.00,1.4207
4999.00,1.4260
4998.00,1.4312
4997.00,1.4358
4996.00,1.4399
4995.00,1.4432
4994.00,1.4459
4993.00,1.4482
4992.00,1.4500
4991.00,1.4512
4990.00,1.4519
4989.00,1.4520
4988.00,1.4518
4987.00,1.4511
4986.00,1.4499
4985.00,1.4481
4984.00,1.4457
4983.00,1.4429
4982.00,1.4399
4981.00,1.4368
4980.00,1.4335
4979.00,1.4297
4978.00,1.4251
4977.00,1.4197
4976.00,1.4137
4975.00,1.4070
4974.00,1.3999
4973.00,1.3923
4972.00,1.3841
4971.00,1.3755
4970.00,1.3665
4969.00,1.3569
4968.00,1.3469
4967.00,1.3365
4966.00,1.3255
4965.00,1.3139
4964.00,1.3016
4963.00,1.2886
4962.00,1.2750
4961.00,1.2611
4960.00,1.2468
4959.00,1.2323
4958.00,1.2174
4957.00,1.2021
4956.00,1.1863
4955.00,1.1700
4954.00,1.1533
4953.00,1.1363
4952.00,1.1188
4951.00,1.1012
4950.00,1.0834
4949.00,1.0656
4948.00,1.0476
4947.00,1.0296
4946.00,1.0116
4945.00,0.9936
4944.00,0.9757
4943.00,0.9581
4942.00,0.9408
4941.00,0.9239
4940.00,0.9075
4939.00,0.8915
4938.00,0.8762
4937.00,0.8617
4936.00,0.8479
4935.00,0.8350
4934.00,0.8230
4933.00,0.8118
4932.00,0.8016
4931.00,0.7923
4930.00,0.7842
4929.00,0.7774
4928.00,0.7718
4927.00,0.7674
4926.00,0.7643
4925.00,0.7624
4924.00,0.7618
4923.00,0.7625
4922.00,0.7645
4921.00,0.7679
4920.00,0.7725
4919.00,0.7784
4918.00,0.7856
4917.00,0.7939
4916.00,0.8033
4915.00,0.8137
4914.00,0.8249
4913.00,0.8371
4912.00,0.8501
4911.00,0.8639
4910.00,0.8785
4909.00,0.8936
4908.00,0.9091
4907.00,0.9250
4906.00,0.9413
4905.00,0.9579
4904.00,0.9747
4903.00,0.9918
4902.00,1.0092
4901.00,1.0267
4900.00,1.0442
4899.00,1.0617
4898.00,1.0791
4897.00,1.0966
4896.00,1.1140
4895.00,1.1313
4894.00,1.1485
4893.00,1.1655
4892.00,1.1822
4891.00,1.1985
4890.00,1.2144
4889.00,1.2302
4888.00,1.2457
4887.00,1.2610
4886.00,1.2758
4885.00,1.2899
4884.00,1.3034
4883.00,1.3162
4882.00,1.3285
4881.00,1.3406
4880.00,1.3524
4879.00,1.3639
4878.00,1.3750
4877.00,1.3855
4876.00,1.3954
4875.00,1.4045
4874.00,1.4130
4873.00,1.4209
4872.00,1.4284
4871.00,1.4356
4870.00,1.4423
4869.00,1.4485
4868.00,1.4541
4867.00,1.4590
4866.00,1.4632
4865.00,1.4669
4864.00,1.4701
4863.00,1.4732
4862.00,1.4760
4861.00,1.4785
4860.00,1.4805
4859.00,1.4818
4858.00,1.4824
4857.00,1.4823
4856.00,1.4819
4855.00,1.4814
4854.00,1.4806
4853.00,1.4793
4852.00,1.4773
4851.00,1.4745
4850.00,1.4713
4849.00,1.4678
4848.00,1.4641
4847.00,1.4599
4846.00,1.4551
4845.00,1.4495
4844.00,1.4432
4843.00,1.4364
4842.00,1.4293
4841.00,1.4219
4840.00,1.4140
4839.00,1.4055
4838.00,1.3964
4837.00,1.3868
4836.00,1.3767
4835.00,1.3660
4834.00,1.3549
4833.00,1.3434
4832.00,1.3313
4831.00,1.3185
4830.00,1.3051
4829.00,1.2911
4828.00,1.2766
4827.00,1.2616
4826.00,1.2461
4825.00,1.2302
4824.00,1.2138
4823.00,1.1968
4822.00,1.1794
4821.00,1.1615
4820.00,1.1432
4819.00,1.1247
4818.00,1.1060
4817.00,1.0873
4816.00,1.0685
4815.00,1.0497
4814.00,1.0307
4813.00,1.0117
4812.00,0.9928
4811.00,0.9740
4810.00,0.9555
4809.00,0.9376
4808.00,0.9200
4807.00,0.9029
4806.00,0.8864
4805.00,0.8705
4804.00,0.8553
4803.00,0.8409
4802.00,0.8273
4801.00,0.8148
4800.00,0.8034
4799.00,0.7930
4798.00,0.7839
4797.00,0.7760
4796.00,0.7695
4795.00,0.7642
4794.00,0.7603
4793.00,0.7579
4792.00,0.7570
4791.00,0.7574
4790.00,0.7592
4789.00,0.7624
4788.00,0.7670
4787.00,0.7729
4786.00,0.7801
4785.00,0.7885
4784.00,0.7981
4783.00,0.8088
4782.00,0.8206
4781.00,0.8333
4780.00,0.8469
4779.00,0.8614
4778.00,0.8766
4777.00,0.8924
4776.00,0.9087
4775.00,0.9255
4774.00,0.9428
4773.00,0.9603
4772.00,0.9782
4771.00,0.9963
4770.00,1.0145
4769.00,1.0329
4768.00,1.0514
4767.00,1.0700
4766.00,1.0886
4765.00,1.1071
4764.00,1.1254
4763.00,1.1437
4762.00,1.1617
4761.00,1.1796
4760.00,1.1971
4759.00,1.2142
4758.00,1.2310
4757.00,1.2474
4756.00,1.2635
4755.00,1.2793
4754.00,1.2948
4753.00,1.3099
4752.00,1.3244
4751.00,1.3384
4750.00,1.3518
4749.00,1.3647
4748.00,1.3771
4747.00,1.3889
4746.00,1.4003
4745.00,1.4111
4744.00,1.4213
4743.00,1.4307
4742.00,1.4395
4741.00,1.4477
4740.00,1.4554
4739.00,1.4629
4738.00,1.4701
4737.00,1.4770
4736.00,1.4834
4735.00,1.4892
4734.00,1.4943
4733.00,1.4988
4732.00,1.5027
4731.00,1.5059
4730.00,1.5087
4729.00,1.5111
4728.00,1.5131
4727.00,1.5148
4726.00,1.5159
4725.00,1.5164
4724.00,1.5164
4723.00,1.5159
4722.00,1.5151
4721.00,1.5140
4720.00,1.5123
4719.00,1.5101
4718.00,1.5072
4717.00,1.5038
4716.00,1.5001
4715.00,1.4959
4714.00,1.4913
4713.00,1.4861
4712.00,1.4804
4711.00,1.4742
4710.00,1.4674
4709.00,1.4601
4708.00,1.4521
4707.00,1.4436
4706.00,1.4345
4705.00,1.4249
4704.00,1.4149
4703.00,1.4045
4702.00,1.3935
4701.00,1.3820
4700.00,1.3698
4699.00,1.3571
4698.00,1.3439
4697.00,1.3301
4696.00,1.3158
4695.00,1.3009
4694.00,1.2856
4693.00,1.2698
4692.00,1.2535
4691.00,1.2366
4690.00,1.2192
4689.00,1.2015
4688.00,1.1835
4687.00,1.1652
4686.00,1.1468
4685.00,1.1283
4684.00,1.1096
4683.00,1.0909
4682.00,1.0721
4681.00,1.0533
4680.00,1.0345
4679.00,1.0158
4678.00,0.9973
4677.00,0.9792
4676.00,0.9616
4675.00,0.9444
4674.00,0.9278
4673.00,0.9117
4672.00,0.8962
4671.00,0.8814
4670.00,0.8674
4669.00,0.8542
4668.00,0.8420
4667.00,0.8308
4666.00,0.8207
4665.00,0.8118
4664.00,0.8039
4663.00,0.7973
4662.00,0.7920
4661.00,0.7880
4660.00,0.7855
4659.00,0.7844
4658.00,0.7848
4657.00,0.7867
4656.00,0.7900
4655.00,0.7947
4654.00,0.8008
4653.00,0.8083
4652.00,0.8172
4651.00,0.8273
4650.00,0.8386
4649.00,0.8510
4648.00,0.8643
4647.00,0.8785
4646.00,0.8936
4645.00,0.9094
4644.00,0.9259
4643.00,0.9430
4642.00,0.9607
4641.00,0.9788
4640.00,0.9972
4639.00,1.0158
4638.00,1.0346
4637.00,1.0535
4636.00,1.0726
4635.00,1.0917
4634.00,1.1109
4633.00,1.1301
4632.00,1.1491
4631.00,1.1680
4630.00,1.1867
4629.00,1.2052
4628.00,1.2234
4627.00,1.2412
4626.00,1.2587
4625.00,1.2759
4624.00,1.2928
4623.00,1.3092
4622.00,1.3250
4621.00,1.3402
4620.00,1.3548
4619.00,1.3690
4618.00,1.3828
4617.00,1.3963
4616.00,1.4091
4615.00,1.4213
4614.00,1.4327
4613.00,1.4435
4612.00,1.4537
4611.00,1.4634
4610.00,1.4726
4609.00,1.4813
4608.00,1.4895
4607.00,1.4973
4606.00,1.5045
4605.00,1.5113
4604.00,1.5174
4603.00,1.5230
4602.00,1.5280
4601.00,1.5325
4600.00,1.5366
4599.00,1.5402
4598.00,1.5434
4597.00,1.5461
4596.00,1.5485
4595.00,1.5503
4594.00,1.5517
4593.00,1.5524
4592.00,1.5524
4591.00,1.5517
4590.00,1.5506
4589.00,1.5493
4588.00,1.5478
4587.00,1.5459
4586.00,1.5434
4585.00,1.5404
4584.00,1.5368
4583.00,1.5327
4582.00,1.5281
4581.00,1.5230
4580.00,1.5174
4579.00,1.5111
4578.00,1.5042
4577.00,1.4967
4576.00,1.4887
4575.00,1.4802
4574.00,1.4713
4573.00,1.4619
4572.00,1.4518
4571.00,1.4410
4570.00,1.4295
4569.00,1.4175
4568.00,1.4050
4567.00,1.3921
4566.00,1.3786
4565.00,1.3645
4564.00,1.3497
4563.00,1.3343
4562.00,1.3182
4561.00,1.3017
4560.00,1.2846
4559.00,1.2671
4558.00,1.2490
4557.00,1.2303
4556.00,1.2112
4555.00,1.1916
4554.00,1.1716
4553.00,1.1513
4552.00,1.1307
4551.00,1.1098
4550.00,1.0888
4549.00,1.0678
4548.00,1.0468
4547.00,1.0259
4546.00,1.0053
4545.00,0.9849
4544.00,0.9649
4543.00,0.9454
4542.00,0.9265
4541.00,0.9082
4540.00,0.8907
4539.00,0.8739
4538.00,0.8581
4537.00,0.8434
4536.00,0.8298
4535.00,0.8175
4534.00,0.8065
4533.00,0.7968
4532.00,0.7885
4531.00,0.7817
4530.00,0.7763
4529.00,0.7726
4528.00,0.7704
4527.00,0.7699
4526.00,0.7710
4525.00,0.7738
4524.00,0.7782
4523.00,0.7843
4522.00,0.7918
4521.00,0.8008
4520.00,0.8112
4519.00,0.8228
4518.00,0.8357
4517.00,0.8498
4516.00,0.8648
4515.00,0.8807
4514.00,0.8975
4513.00,0.9149
4512.00,0.9330
4511.00,0.9516
4510.00,0.9707
4509.00,0.9903
4508.00,1.0103
4507.00,1.0305
4506.00,1.0508
4505.00,1.0711
4504.00,1.0913
4503.00,1.1115
4502.00,1.1318
4501.00,1.1522
4500.00,1.1725
4499.00,1.1926
4498.00,1.2123
4497.00,1.2317
4496.00,1.2508
4495.00,1.2697
4494.00,1.2883
4493.00,1.3064
4492.00,1.3239
4491.00,1.3407
4490.00,1.3569
4489.00,1.3727
4488.00,1.3881
4487.00,1.4031
4486.00,1.4176
4485.00,1.4313
4484.00,1.4443
4483.00,1.4565
4482.00,1.4681
4481.00,1.4791
4480.00,1.4896
4479.00,1.4996
4478.00,1.5092
4477.00,1.5183
4476.00,1.5268
4475.00,1.5347
4474.00,1.5420
4473.00,1.5488
4472.00,1.5551
4471.00,1.5607
4470.00,1.5657
4469.00,1.5702
4468.00,1.5744
4467.00,1.5782
4466.00,1.5817
4465.00,1.5847
4464.00,1.5873
4463.00,1.5894
4462.00,1.5909
4461.00,1.5919
4460.00,1.5921
4459.00,1.5916
4458.00,1.5903
4457.00,1.5886
4456.00,1.5865
4455.00,1.5843
4454.00,1.5817
4453.00,1.5786
4452.00,1.5750
4451.00,1.5708
4450.00,1.5663
4449.00,1.5614
4448.00,1.5562
4447.00,1.5503
4446.00,1.5438
4445.00,1.5364
4444.00,1.5284
4443.00,1.5197
4442.00,1.5105
4441.00,1.5008
4440.00,1.4907
4439.00,1.4801
4438.00,1.4689
4437.00,1.4572
4436.00,1.4447
4435.00,1.4314
4434.00,1.4175
4433.00,1.4030
4432.00,1.3879
4431.00,1.3721
4430.00,1.3557
4429.00,1.3387
4428.00,1.3212
4427.00,1.3031
4426.00,1.2845
4425.00,1.2655
4424.00,1.2461
4423.00,1.2263
4422.00,1.2062
4421.00,1.1856
4420.00,1.1648
4419.00,1.1438
4418.00,1.1227
4417.00,1.1017
4416.00,1.0806
4415.00,1.0597
4414.00,1.0390
4413.00,1.0187
4412.00,0.9991
4411.00,0.9801
4410.00,0.9618
4409.00,0.9443
4408.00,0.9277
4407.00,0.9120
4406.00,0.8974
4405.00,0.8841
4404.00,0.8720
4403.00,0.8613
4402.00,0.8521
4401.00,0.8445
4400.00,0.8384
4399.00,0.8340
4398.00,0.8312
4397.00,0.8301
4396.00,0.8306
4395.00,0.8327
4394.00,0.8365
4393.00,0.8419
4392.00,0.8488
4391.00,0.8572
4390.00,0.8670
4389.00,0.8782
4388.00,0.8905
4387.00,0.9038
4386.00,0.9182
4385.00,0.9336
4384.00,0.9497
4383.00,0.9666
4382.00,0.9841
4381.00,1.0021
4380.00,1.0205
4379.00,1.0392
4378.00,1.0581
4377.00,1.0772
4376.00,1.0965
4375.00,1.1160
4374.00,1.1354
4373.00,1.1547
4372.00,1.1740
4371.00,1.1931
4370.00,1.2122
4369.00,1.2311
4368.00,1.2496
4367.00,1.2677
4366.00,1.2853
4365.00,1.3028
4364.00,1.3201
4363.00,1.3371
4362.00,1.3537
4361.00,1.3697
4360.00,1.3852
4359.00,1.4004
4358.00,1.4154
4357.00,1.4301
4356.00,1.4446
4355.00,1.4586
4354.00,1.4720
4353.00,1.4847
4352.00,1.4968
4351.00,1.5083
4350.00,1.5193
4349.00,1.5298
4348.00,1.5398
4347.00,1.5493
4346.00,1.5586
4345.00,1.5674
4344.00,1.5755
4343.00,1.5829
4342.00,1.5897
4341.00,1.5962
4340.00,1.6026
4339.00,1.6087
4338.00,1.6140
4337.00,1.6185
4336.00,1.6224
4335.00,1.6259
4334.00,1.6290
4333.00,1.6317
4332.00,1.6341
4331.00,1.6362
4330.00,1.6379
4329.00,1.6393
4328.00,1.6400
4327.00,1.6399
4326.00,1.6390
4325.00,1.6375
4324.00,1.6356
4323.00,1.6335
4322.00,1.6313
4321.00,1.6286
4320.00,1.6254
4319.00,1.6215
4318.00,1.6170
4317.00,1.6121
4316.00,1.6069
4315.00,1.6013
4314.00,1.5952
4313.00,1.5886
4312.00,1.5814
4311.00,1.5733
4310.00,1.5646
4309.00,1.5552
4308.00,1.5454
4307.00,1.5351
4306.00,1.5243
4305.00,1.5130
4304.00,1.5009
4303.00,1.4882
4302.00,1.4747
4301.00,1.4607
4300.00,1.4461
4299.00,1.4310
4298.00,1.4156
4297.00,1.3997
4296.00,1.3831
4295.00,1.3660
4294.00,1.3482
4293.00,1.3300
4292.00,1.3114
4291.00,1.2925
4290.00,1.2732
4289.00,1.2538
4288.00,1.2342
4287.00,1.2143
4286.00,1.1943
4285.00,1.1742
4284.00,1.1541
4283.00,1.1341
4282.00,1.1141
4281.00,1.0943
4280.00,1.0745
4279.00,1.0551
4278.00,1.0360
4277.00,1.0175
4276.00,0.9995
4275.00,0.9821
4274.00,0.9654
4273.00,0.9495
4272.00,0.9346
4271.00,0.9207
4270.00,0.9079
4269.00,0.8963
4268.00,0.8860
4267.00,0.8770
4266.00,0.8695
4265.00,0.8633
4264.00,0.8586
4263.00,0.8554
4262.00,0.8538
4261.00,0.8539
4260.00,0.8557
4259.00,0.8592
4258.00,0.8644
4257.00,0.8712
4256.00,0.8796
4255.00,0.8895
4254.00,0.9009
4253.00,0.9137
4252.00,0.9278
4251.00,0.9430
4250.00,0.9592
4249.00,0.9763
4248.00,0.9942
4247.00,1.0128
4246.00,1.0321
4245.00,1.0521
4244.00,1.0726
4243.00,1.0935
4242.00,1.1147
4241.00,1.1361
4240.00,1.1576
4239.00,1.1791
4238.00,1.2006
4237.00,1.2220
4236.00,1.2434
4235.00,1.2646
4234.00,1.2855
4233.00,1.3062
4232.00,1.3265
4231.00,1.3465
4230.00,1.3660
4229.00,1.3849
4228.00,1.4032
4227.00,1.4208
4226.00,1.4378
4225.00,1.4544
4224.00,1.4704
4223.00,1.4861
4222.00,1.5012
4221.00,1.5154
4220.00,1.5288
4219.00,1.5413
4218.00,1.5532
4217.00,1.5647
4216.00,1.5759
4215.00,1.5867
4214.00,1.5968
4213.00,1.6063
4212.00,1.6152
4211.00,1.6235
4210.00,1.6315
4209.00,1.6391
4208.00,1.6460
4207.00,1.6521
4206.00,1.6574
4205.00,1.6621
4204.00,1.6663
4203.00,1.6701
4202.00,1.6736
4201.00,1.6768
4200.00,1.6797
4199.00,1.6821
4198.00,1.6840
4197.00,1.6853
4196.00,1.6859
4195.00,1.6860
4194.00,1.6857
4193.00,1.6851
4192.00,1.6842
4191.00,1.6827
4190.00,1.6806
4189.00,1.6780
4188.00,1.6752
4187.00,1.6722
4186.00,1.6687
4185.00,1.6646
4184.00,1.6599
4183.00,1.6543
4182.00,1.6481
4181.00,1.6412
4180.00,1.6339
4179.00,1.6261
4178.00,1.6178
4177.00,1.6089
4176.00,1.5995
4175.00,1.5897
4174.00,1.5793
4173.00,1.5684
4172.00,1.5567
4171.00,1.5443
4170.00,1.5312
4169.00,1.5176
4168.00,1.5034
4167.00,1.4887
4166.00,1.4732
4165.00,1.4571
4164.00,1.4404
4163.00,1.4231
4162.00,1.4052
4161.00,1.3867
4160.00,1.3676
4159.00,1.3479
4158.00,1.3276
4157.00,1.3068
4156.00,1.2854
4155.00,1.2635
4154.00,1.2414
4153.00,1.2190
4152.00,1.1964
4151.00,1.1736
4150.00,1.1507
4149.00,1.1279
4148.00,1.1053
4147.00,1.0831
4146.00,1.0612
4145.00,1.0397
4144.00,1.0188
4143.00,0.9986
4142.00,0.9793
4141.00,0.9611
4140.00,0.9439
4139.00,0.9279
4138.00,0.9133
4137.00,0.9001
4136.00,0.8885
4135.00,0.8786
4134.00,0.8704
4133.00,0.8640
4132.00,0.8595
4131.00,0.8569
4130.00,0.8563
4129.00,0.8575
4128.00,0.8607
4127.00,0.8656
4126.00,0.8723
4125.00,0.8808
4124.00,0.8908
4123.00,0.9024
4122.00,0.9155
4121.00,0.9299
4120.00,0.9456
4119.00,0.9624
4118.00,0.9803
4117.00,0.9991
4116.00,1.0188
4115.00,1.0390
4114.00,1.0599
4113.00,1.0812
4112.00,1.1029
4111.00,1.1248
4110.00,1.1470
4109.00,1.1694
4108.00,1.1919
4107.00,1.2145
4106.00,1.2369
4105.00,1.2591
4104.00,1.2811
4103.00,1.3029
4102.00,1.3246
4101.00,1.3460
4100.00,1.3671
4099.00,1.3876
4098.00,1.4075
4097.00,1.4268
4096.00,1.4456
4095.00,1.4637
4094.00,1.4812
4093.00,1.4981
4092.00,1.5143
4091.00,1.5300
4090.00,1.5452
4089.00,1.5599
4088.00,1.5737
4087.00,1.5868
4086.00,1.5993
4085.00,1.6113
4084.00,1.6227
4083.00,1.6336
4082.00,1.6437
4081.00,1.6531
4080.00,1.6618
4079.00,1.6697
4078.00,1.6771
4077.00,1.6840
4076.00,1.6908
4075.00,1.6974
4074.00,1.7036
4073.00,1.7091
4072.00,1.7138
4071.00,1.7177
4070.00,1.7210
4069.00,1.7238
4068.00,1.7263
4067.00,1.7283
4066.00,1.7299
4065.00,1.7309
4064.00,1.7315
4063.00,1.7315
4062.00,1.7312
4061.00,1.7307
4060.00,1.7297
4059.00,1.7283
4058.00,1.7264
4057.00,1.7238
4056.00,1.7205
4055.00,1.7166
4054.00,1.7120
4053.00,1.7069
4052.00,1.7012
4051.00,1.6950
4050.00,1.6884
4049.00,1.6812
4048.00,1.6736
4047.00,1.6653
4046.00,1.6566
4045.00,1.6474
4044.00,1.6377
4043.00,1.6275
4042.00,1.6164
4041.00,1.6043
4040.00,1.5916
4039.00,1.5783
4038.00,1.5648
4037.00,1.5508
4036.00,1.5362
4035.00,1.5209
4034.00,1.5048
4033.00,1.4879
4032.00,1.4702
4031.00,1.4516
4030.00,1.4324
4029.00,1.4125
4028.00,1.3921
4027.00,1.3713
4026.00,1.3501
4025.00,1.3283
4024.00,1.3061
4023.00,1.2835
4022.00,1.2605
4021.00,1.2373
4020.00,1.2138
4019.00,1.1901
4018.00,1.1663
4017.00,1.1425
4016.00,1.1189
4015.00,1.0954
4014.00,1.0724
4013.00,1.0498
4012.00,1.0279
4011.00,1.0067
4010.00,0.9863
4009.00,0.9669
4008.00,0.9486
4007.00,0.9316
4006.00,0.9160
4005.00,0.9020
4004.00,0.8898
4003.00,0.8793
4002.00,0.8707
4001.00,0.8640
4000.00,0.8594
3999.00,0.8569
3998.00,0.8565
3997.00,0.8583
3996.00,0.8623
3995.00,0.8685
3994.00,0.8768
3993.00,0.8871
3992.00,0.8992
3991.00,0.9132
3990.00,0.9288
3989.00,0.9458
3988.00,0.9643
3987.00,0.9839
3986.00,1.0045
3985.00,1.0259
3984.00,1.0480
3983.00,1.0707
3982.00,1.0941
3981.00,1.1180
3980.00,1.1423
3979.00,1.1666
3978.00,1.1910
3977.00,1.2153
3976.00,1.2396
3975.00,1.2638
3974.00,1.2878
3973.00,1.3116
3972.00,1.3352
3971.00,1.3584
3970.00,1.3813
3969.00,1.4035
3968.00,1.4252
3967.00,1.4463
3966.00,1.4667
3965.00,1.4865
3964.00,1.5056
3963.00,1.5240
3962.00,1.5419
3961.00,1.5591
3960.00,1.5757
3959.00,1.5915
3958.00,1.6067
3957.00,1.6212
3956.00,1.6350
3955.00,1.6481
3954.00,1.6605
3953.00,1.6722
3952.00,1.6833
3951.00,1.6939
3950.00,1.7038
3949.00,1.7130
3948.00,1.7216
3947.00,1.7295
3946.00,1.7369
3945.00,1.7438
3944.00,1.7502
3943.00,1.7561
3942.00,1.7616
3941.00,1.7666
3940.00,1.7712
3939.00,1.7753
3938.00,1.7789
3937.00,1.7818
3936.00,1.7842
3935.00,1.7862
3934.00,1.7879
3933.00,1.7894
3932.00,1.7906
3931.00,1.7912
3930.00,1.7911
3929.00,1.7901
3928.00,1.7885
3927.00,1.7864
3926.00,1.7839
3925.00,1.7810
3924.00,1.7776
3923.00,1.7735
3922.00,1.7686
3921.00,1.7633
3920.00,1.7578
3919.00,1.7520
3918.00,1.7457
3917.00,1.7388
3916.00,1.7311
3915.00,1.7229
3914.00,1.7139
3913.00,1.7042
3912.00,1.6937
3911.00,1.6826
3910.00,1.6709
3909.00,1.6589
3908.00,1.6464
3907.00,1.6334
3906.00,1.6195
3905.00,1.6044
3904.00,1.5881
3903.00,1.5710
3902.00,1.5533
3901.00,1.5348
3900.00,1.5154
3899.00,1.4951
3898.00,1.4739
3897.00,1.4522
3896.00,1.4301
3895.00,1.4075
3894.00,1.3842
3893.00,1.3597
3892.00,1.3339
3891.00,1.3070
3890.00,1.2801
3889.00,1.2539
3888.00,1.2281
3887.00,1.2016
3886.00,1.1739
3885.00,1.1455
3884.00,1.1179
3883.00,1.0916
3882.00,1.0657
3881.00,1.0400
3880.00,1.0147
3879.00,0.9911
3878.00,0.9696
3877.00,0.9500
3876.00,0.9316
3875.00,0.9141
3874.00,0.8982
3873.00,0.8845
3872.00,0.8731
3871.00,0.8636
3870.00,0.8557
3869.00,0.8498
3868.00,0.8465
3867.00,0.8461
3866.00,0.8487
3865.00,0.8542
3864.00,0.8623
3863.00,0.8727
3862.00,0.8850
3861.00,0.8991
3860.00,0.9150
3859.00,0.9325
3858.00,0.9507
3857.00,0.9690
3856.00,0.9878
3855.00,1.0085
3854.00,1.0329
3853.00,1.0617
3852.00,1.0928
3851.00,1.1222
3850.00,1.1482
3849.00,1.1723
3848.00,1.1962
3847.00,1.2207
3846.00,1.2458
3845.00,1.2711
3844.00,1.2966
3843.00,1.3224
3842.00,1.3478
3841.00,1.3726
3840.00,1.3965
3839.00,1.4200
3838.00,1.4438
3837.00,1.4679
3836.00,1.4914
3835.00,1.5138
3834.00,1.5352
3833.00,1.5558
3832.00,1.5759
3831.00,1.5952
3830.00,1.6136
3829.00,1.6307
3828.00,1.6466
3827.00,1.6615
3826.00,1.6758
3825.00,1.6894
3824.00,1.7018
3823.00,1.7131
3822.00,1.7243
3821.00,1.7359
3820.00,1.7477
3819.00,1.7582
3818.00,1.7670
3817.00,1.7745
3816.00,1.7815
3815.00,1.7884
3814.00,1.7951
3813.00,1.8013
3812.00,1.8068
3811.00,1.8121
3810.00,1.8173
3809.00,1.8219
3808.00,1.8258
3807.00,1.8289
3806.00,1.8317
3805.00,1.8337
3804.00,1.8345
3803.00,1.8339
3802.00,1.8325
3801.00,1.8308
3800.00,1.8286
3799.00,1.8263
3798.00,1.8239
3797.00,1.8215
3796.00,1.8187
3795.00,1.8158
3794.00,1.8127
3793.00,1.8092
3792.00,1.8047
3791.00,1.7993
3790.00,1.7932
3789.00,1.7863
3788.00,1.7789
3787.00,1.7712
3786.00,1.7631
3785.00,1.7544
3784.00,1.7451
3783.00,1.7354
3782.00,1.7254
3781.00,1.7149
3780.00,1.7037
3779.00,1.6918
3778.00,1.6795
3777.00,1.6664
3776.00,1.6526
3775.00,1.6384
3774.00,1.6240
3773.00,1.6089
3772.00,1.5927
3771.00,1.5750
3770.00,1.5557
3769.00,1.5351
3768.00,1.5136
3767.00,1.4915
3766.00,1.4685
3765.00,1.4446
3764.00,1.4202
3763.00,1.3956
3762.00,1.3705
3761.00,1.3440
3760.00,1.3160
3759.00,1.2868
3758.00,1.2572
3757.00,1.2276
3756.00,1.1988
3755.00,1.1712
3754.00,1.1443
3753.00,1.1169
3752.00,1.0883
3751.00,1.0583
3750.00,1.0278
3749.00,0.9986
3748.00,0.9730
3747.00,0.9520
3746.00,0.9344
3745.00,0.9179
3744.00,0.9017
3743.00,0.8872
3742.00,0.8762
3741.00,0.8683
3740.00,0.8632
3739.00,0.8611
3738.00,0.8624
3737.00,0.8669
3736.00,0.8742
3735.00,0.8839
3734.00,0.8960
3733.00,0.9103
3732.00,0.9270
3731.00,0.9458
3730.00,0.9660
3729.00,0.9869
3728.00,1.0090
3727.00,1.0331
3726.00,1.0594
3725.00,1.0875
3724.00,1.1162
3723.00,1.1450
3722.00,1.1740
3721.00,1.2034
3720.00,1.2333
3719.00,1.2634
3718.00,1.2934
3717.00,1.3230
3716.00,1.3518
3715.00,1.3795
3714.00,1.4065
3713.00,1.4338
3712.00,1.4618
3711.00,1.4902
3710.00,1.5176
3709.00,1.5434
3708.00,1.5683
3707.00,1.5925
3706.00,1.6154
3705.00,1.6367
3704.00,1.6563
3703.00,1.6748
3702.00,1.6928
3701.00,1.7106
3700.00,1.7280
3699.00,1.7446
3698.00,1.7597
3697.00,1.7739
3696.00,1.7874
3695.00,1.8002
3694.00,1.8120
3693.00,1.8228
3692.00,1.8329
3691.00,1.8424
3690.00,1.8513
3689.00,1.8600
3688.00,1.8683
3687.00,1.8761
3686.00,1.8833
3685.00,1.8903
3684.00,1.8969
3683.00,1.9030
3682.00,1.9083
3681.00,1.9131
3680.00,1.9172
3679.00,1.9204
3678.00,1.9228
3677.00,1.9247
3676.00,1.9260
3675.00,1.9267
3674.00,1.9266
3673.00,1.9260
3672.00,1.9249
3671.00,1.9235
3670.00,1.9215
3669.00,1.9194
3668.00,1.9172
3667.00,1.9147
3666.00,1.9115
3665.00,1.9078
3664.00,1.9036
3663.00,1.8986
3662.00,1.8929
3661.00,1.8866
3660.00,1.8798
3659.00,1.8726
3658.00,1.8649
3657.00,1.8563
3656.00,1.8469
3655.00,1.8368
3654.00,1.8267
3653.00,1.8168
3652.00,1.8068
3651.00,1.7960
3650.00,1.7839
3649.00,1.7703
3648.00,1.7554
3647.00,1.7395
3646.00,1.7242
3645.00,1.7104
3644.00,1.6976
3643.00,1.6845
3642.00,1.6707
3641.00,1.6566
3640.00,1.6423
3639.00,1.6276
3638.00,1.6125
3637.00,1.5970
3636.00,1.5813
3635.00,1.5657
3634.00,1.5504
3633.00,1.5359
3632.00,1.5221
3631.00,1.5085
3630.00,1.4944
3629.00,1.4796
3628.00,1.4650
3627.00,1.4513
3626.00,1.4386
3625.00,1.4270
3624.00,1.4164
3623.00,1.4070
3622.00,1.3989
3621.00,1.3918
3620.00,1.3855
3619.00,1.3799
3618.00,1.3751
3617.00,1.3712
3616.00,1.3683
3615.00,1.3665
3614.00,1.3659
3613.00,1.3667
3612.00,1.3690
3611.00,1.3724
3610.00,1.3768
3609.00,1.3819
3608.00,1.3877
3607.00,1.3941
3606.00,1.4014
3605.00,1.4093
3604.00,1.4180
3603.00,1.4273
3602.00,1.4373
3601.00,1.4482
3600.00,1.4598
3599.00,1.4719
3598.00,1.4843
3597.00,1.4972
3596.00,1.5109
3595.00,1.5254
3594.00,1.5404
3593.00,1.5556
3592.00,1.5708
3591.00,1.5857
3590.00,1.6008
3589.00,1.6165
3588.00,1.6333
3587.00,1.6512
3586.00,1.6692
3585.00,1.6863
3584.00,1.7021
3583.00,1.7167
3582.00,1.7308
3581.00,1.7452
3580.00,1.7600
3579.00,1.7752
3578.00,1.7902
3577.00,1.8050
3576.00,1.8194
3575.00,1.8333
3574.00,1.8469
3573.00,1.8603
3572.00,1.8735
3571.00,1.8861
3570.00,1.8980
3569.00,1.9097
3568.00,1.9216
3567.00,1.9337
3566.00,1.9455
3565.00,1.9564
3564.00,1.9664
3563.00,1.9756
3562.00,1.9845
3561.00,1.9931
3560.00,2.0018
3559.00,2.0104
3558.00,2.0188
3557.00,2.0268
3556.00,2.0341
3555.00,2.0405
3554.00,2.0460
3553.00,2.0509
3552.00,2.0553
3551.00,2.0592
3550.00,2.0631
3549.00,2.0673
3548.00,2.0717
3547.00,2.0756
3546.00,2.0787
3545.00,2.0814
3544.00,2.0840
3543.00,2.0867
3542.00,2.0890
3541.00,2.0909
3540.00,2.0919
3539.00,2.0919
3538.00,2.0914
3537.00,2.0908
3536.00,2.0902
3535.00,2.0896
3534.00,2.0886
3533.00,2.0874
3532.00,2.0856
3531.00,2.0830
3530.00,2.0798
3529.00,2.0764
3528.00,2.0731
3527.00,2.0696
3526.00,2.0656
3525.00,2.0613
3524.00,2.0569
3523.00,2.0525
3522.00,2.0480
3521.00,2.0434
3520.00,2.0384
3519.00,2.0328
3518.00,2.0268
3517.00,2.0209
3516.00,2.0148
3515.00,2.0080
3514.00,2.0005
3513.00,1.9925
3512.00,1.9840
3511.00,1.9752
3510.00,1.9662
3509.00,1.9572
3508.00,1.9481
3507.00,1.9384
3506.00,1.9281
3505.00,1.9173
3504.00,1.9063
3503.00,1.8952
3502.00,1.8839
3501.00,1.8723
3500.00,1.8605
3499.00,1.8484
3498.00,1.8362
3497.00,1.8241
3496.00,1.8118
3495.00,1.7992
3494.00,1.7862
3493.00,1.7733
3492.00,1.7604
3491.00,1.7473
3490.00,1.7341
3489.00,1.7211
3488.00,1.7084
3487.00,1.6959
3486.00,1.6838
3485.00,1.6722
3484.00,1.6612
3483.00,1.6507
3482.00,1.6404
3481.00,1.6304
3480.00,1.6208
3479.00,1.6119
3478.00,1.6037
3477.00,1.5963
3476.00,1.5898
3475.00,1.5840
3474.00,1.5792
3473.00,1.5754
3472.00,1.5726
3471.00,1.5707
3470.00,1.5697
3469.00,1.5695
3468.00,1.5703
3467.00,1.5721
3466.00,1.5749
3465.00,1.5788
3464.00,1.5836
3463.00,1.5895
3462.00,1.5962
3461.00,1.6039
3460.00,1.6123
3459.00,1.6213
3458.00,1.6308
3457.00,1.6411
3456.00,1.6521
3455.00,1.6636
3454.00,1.6755
3453.00,1.6879
3452.00,1.7007
3451.00,1.7139
3450.00,1.7273
3449.00,1.7408
3448.00,1.7548
3447.00,1.7691
3446.00,1.7837
3445.00,1.7984
3444.00,1.8128
3443.00,1.8269
3442.00,1.8408
3441.00,1.8547
3440.00,1.8685
3439.00,1.8822
3438.00,1.8956
3437.00,1.9090
3436.00,1.9223
3435.00,1.9353
3434.00,1.9478
3433.00,1.9599
3432.00,1.9717
3431.00,1.9831
3430.00,1.9942
3429.00,2.0053
3428.00,2.0163
3427.00,2.0271
3426.00,2.0373
3425.00,2.0469
3424.00,2.0559
3423.00,2.0641
3422.00,2.0716
3421.00,2.0786
3420.00,2.0852
3419.00,2.0920
3418.00,2.0990
3417.00,2.1063
3416.00,2.1133
3415.00,2.1195
3414.00,2.1247
3413.00,2.1290
3412.00,2.1327
3411.00,2.1361
3410.00,2.1396
3409.00,2.1436
3408.00,2.1474
3407.00,2.1503
3406.00,2.1523
3405.00,2.1536
3404.00,2.1548
3403.00,2.1556
3402.00,2.1558
3401.00,2.1552
3400.00,2.1536
3399.00,2.1512
3398.00,2.1484
3397.00,2.1455
3396.00,2.1426
3395.00,2.1393
3394.00,2.1357
3393.00,2.1320
3392.00,2.1280
3391.00,2.1234
3390.00,2.1178
3389.00,2.1113
3388.00,2.1044
3387.00,2.0973
3386.00,2.0904
3385.00,2.0836
3384.00,2.0764
3383.00,2.0684
3382.00,2.0595
3381.00,2.0502
3380.00,2.0404
3379.00,2.0300
3378.00,2.0189
3377.00,2.0076
3376.00,1.9964
3375.00,1.9849
3374.00,1.9728
3373.00,1.9598
3372.00,1.9458
3371.00,1.9310
3370.00,1.9157
3369.00,1.9002
3368.00,1.8845
3367.00,1.8683
3366.00,1.8514
3365.00,1.8342
3364.00,1.8169
3363.00,1.7996
3362.00,1.7820
3361.00,1.7637
3360.00,1.7447
3359.00,1.7252
3358.00,1.7057
3357.00,1.6865
3356.00,1.6674
3355.00,1.6483
3354.00,1.6293
3353.00,1.6105
3352.00,1.5920
3351.00,1.5741
3350.00,1.5568
3349.00,1.5403
3348.00,1.5247
3347.00,1.5099
3346.00,1.4960
3345.00,1.4831
3344.00,1.4713
3343.00,1.4609
3342.00,1.4519
3341.00,1.4443
3340.00,1.4382
3339.00,1.4338
3338.00,1.4309
3337.00,1.4297
3336.00,1.4302
3335.00,1.4325
3334.00,1.4363
3333.00,1.4419
3332.00,1.4491
3331.00,1.4578
3330.00,1.4678
3329.00,1.4790
3328.00,1.4914
3327.00,1.5048
3326.00,1.5192
3325.00,1.5348
3324.00,1.5513
3323.00,1.5687
3322.00,1.5865
3321.00,1.6046
3320.00,1.6229
3319.00,1.6417
3318.00,1.6607
3317.00,1.6801
3316.00,1.6997
3315.00,1.7195
3314.00,1.7390
3313.00,1.7583
3312.00,1.7773
3311.00,1.7960
3310.00,1.8144
3309.00,1.8324
3308.00,1.8498
3307.00,1.8666
3306.00,1.8830
3305.00,1.8995
3304.00,1.9158
3303.00,1.9317
3302.00,1.9470
3301.00,1.9618
3300.00,1.9762
3299.00,1.9899
3298.00,2.0028
3297.00,2.0145
3296.00,2.0252
3295.00,2.0352
3294.00,2.0453
3293.00,2.0558
3292.00,2.0661
3291.00,2.0758
3290.00,2.0846
3289.00,2.0928
3288.00,2.1004
3287.00,2.1072
3286.00,2.1130
3285.00,2.1181
3284.00,2.1230
3283.00,2.1279
3282.00,2.1330
3281.00,2.1382
3280.00,2.1431
3279.00,2.1474
3278.00,2.1510
3277.00,2.1541
3276.00,2.1568
3275.00,2.1590
3274.00,2.1605
3273.00,2.1612
3272.00,2.1608
3271.00,2.1596
3270.00,2.1580
3269.00,2.1566
3268.00,2.1554
3267.00,2.1541
3266.00,2.1521
3265.00,2.1496
3264.00,2.1465
3263.00,2.1429
3262.00,2.1387
3261.00,2.1340
3260.00,2.1290
3259.00,2.1234
3258.00,2.1172
3257.00,2.1104
3256.00,2.1030
3255.00,2.0953
3254.00,2.0873
3253.00,2.0791
3252.00,2.0709
3251.00,2.0623
3250.00,2.0535
3249.00,2.0439
3248.00,2.0335
3247.00,2.0220
3246.00,2.0098
3245.00,1.9971
3244.00,1.9843
3243.00,1.9715
3242.00,1.9585
3241.00,1.9452
3240.00,1.9310
3239.00,1.9160
3238.00,1.9004
3237.00,1.8845
3236.00,1.8685
3235.00,1.8523
3234.00,1.8359
3233.00,1.8192
3232.00,1.8022
3231.00,1.7849
3230.00,1.7675
3229.00,1.7502
3228.00,1.7330
3227.00,1.7158
3226.00,1.6986
3225.00,1.6817
3224.00,1.6651
3223.00,1.6490
3222.00,1.6337
3221.00,1.6190
3220.00,1.6050
3219.00,1.5918
3218.00,1.5794
3217.00,1.5681
3216.00,1.5578
3215.00,1.5487
3214.00,1.5407
3213.00,1.5341
3212.00,1.5289
3211.00,1.5254
3210.00,1.5233
3209.00,1.5227
3208.00,1.5234
3207.00,1.5254
3206.00,1.5288
3205.00,1.5339
3204.00,1.5406
3203.00,1.5488
3202.00,1.5584
3201.00,1.5691
3200.00,1.5807
3199.00,1.5933
3198.00,1.6068
3197.00,1.6212
3196.00,1.6364
3195.00,1.6524
3194.00,1.6689
3193.00,1.6861
3192.00,1.7038
3191.00,1.7218
3190.00,1.7402
3189.00,1.7587
3188.00,1.7773
3187.00,1.7956
3186.00,1.8137
3185.00,1.8314
3184.00,1.8490
3183.00,1.8666
3182.00,1.8845
3181.00,1.9024
3180.00,1.9201
3179.00,1.9368
3178.00,1.9527
3177.00,1.9681
3176.00,1.9834
3175.00,1.9986
3174.00,2.0134
3173.00,2.0277
3172.00,2.0413
3171.00,2.0541
3170.00,2.0663
3169.00,2.0780
3168.00,2.0893
3167.00,2.0999
3166.00,2.1099
3165.00,2.1190
3164.00,2.1272
3163.00,2.1346
3162.00,2.1417
3161.00,2.1489
3160.00,2.1562
3159.00,2.1631
3158.00,2.1690
3157.00,2.1742
3156.00,2.1793
3155.00,2.1847
3154.00,2.1908
3153.00,2.1971
3152.00,2.2025
3151.00,2.2064
3150.00,2.2088
3149.00,2.2102
3148.00,2.2111
3147.00,2.2117
3146.00,2.2122
3145.00,2.2132
3144.00,2.2149
3143.00,2.2169
3142.00,2.2184
3141.00,2.2190
3140.00,2.2185
3139.00,2.2168
3138.00,2.2141
3137.00,2.2106
3136.00,2.2067
3135.00,2.2030
3134.00,2.1995
3133.00,2.1959
3132.00,2.1919
3131.00,2.1869
3130.00,2.1810
3129.00,2.1741
3128.00,2.1663
3127.00,2.1577
3126.00,2.1488
3125.00,2.1396
3124.00,2.1301
3123.00,2.1198
3122.00,2.1087
3121.00,2.0971
3120.00,2.0850
3119.00,2.0723
3118.00,2.0589
3117.00,2.0450
3116.00,2.0305
3115.00,2.0159
3114.00,2.0010
3113.00,1.9857
3112.00,1.9695
3111.00,1.9525
3110.00,1.9349
3109.00,1.9169
3108.00,1.8985
3107.00,1.8796
3106.00,1.8605
3105.00,1.8413
3104.00,1.8220
3103.00,1.8025
3102.00,1.7828
3101.00,1.7630
3100.00,1.7435
3099.00,1.7243
3098.00,1.7057
3097.00,1.6879
3096.00,1.6707
3095.00,1.6543
3094.00,1.6388
3093.00,1.6245
3092.00,1.6115
3091.00,1.5999
3090.00,1.5900
3089.00,1.5818
3088.00,1.5754
3087.00,1.5708
3086.00,1.5680
3085.00,1.5671
3084.00,1.5680
3083.00,1.5710
3082.00,1.5762
3081.00,1.5835
3080.00,1.5928
3079.00,1.6038
3078.00,1.6163
3077.00,1.6303
3076.00,1.6457
3075.00,1.6624
3074.00,1.6805
3073.00,1.6998
3072.00,1.7199
3071.00,1.7407
3070.00,1.7620
3069.00,1.7837
3068.00,1.8058
3067.00,1.8283
3066.00,1.8508
3065.00,1.8732
3064.00,1.8954
3063.00,1.9171
3062.00,1.9385
3061.00,1.9592
3060.00,1.9792
3059.00,1.9988
3058.00,2.0183
3057.00,2.0379
3056.00,2.0571
3055.00,2.0752
3054.00,2.0920
3053.00,2.1076
3052.00,2.1224
3051.00,2.1369
3050.00,2.1511
3049.00,2.1648
3048.00,2.1776
3047.00,2.1896
3046.00,2.2011
3045.00,2.2124
3044.00,2.2234
3043.00,2.2336
3042.00,2.2431
3041.00,2.2518
3040.00,2.2597
3039.00,2.2667
3038.00,2.2727
3037.00,2.2782
3036.00,2.2832
3035.00,2.2876
3034.00,2.2913
3033.00,2.2944
3032.00,2.2972
3031.00,2.2996
3030.00,2.3016
3029.00,2.3029
3028.00,2.3032
3027.00,2.3019
3026.00,2.2991
3025.00,2.2948
3024.00,2.2894
3023.00,2.2835
3022.00,2.2773
3021.00,2.2709
3020.00,2.2638
3019.00,2.2556
3018.00,2.2460
3017.00,2.2352
3016.00,2.2233
3015.00,2.2104
3014.00,2.1963
3013.00,2.1809
3012.00,2.1642
3011.00,2.1465
3010.00,2.1279
3009.00,2.1085
3008.00,2.0880
3007.00,2.0668
3006.00,2.0454
3005.00,2.0238
3004.00,2.0020
3003.00,1.9801
3002.00,1.9585
3001.00,1.9381
3000.00,1.9195
2999.00,1.9033
2998.00,1.8902
2997.00,1.8809
2996.00,1.8759
2995.00,1.8756
2994.00,1.8806
2993.00,1.8910
2992.00,1.9071
2991.00,1.9287
2990.00,1.9555
2989.00,1.9872
2988.00,2.0235
2987.00,2.0639
2986.00,2.1076
2985.00,2.1540
2984.00,2.2019
2983.00,2.2511
2982.00,2.3018
2981.00,2.3543
2980.00,2.4082
2979.00,2.4625
2978.00,2.5168
2977.00,2.5712
2976.00,2.6255
2975.00,2.6797
2974.00,2.7355
2973.00,2.7954
2972.00,2.8602
2971.00,2.9281
2970.00,2.9961
2969.00,3.0625
2968.00,3.1273
2967.00,3.1917
2966.00,3.2585
2965.00,3.3292
2964.00,3.4000
2963.00,3.4622
2962.00,3.5092
2961.00,3.5407
2960.00,3.5608
2959.00,3.5753
2958.00,3.5907
2957.00,3.6132
2956.00,3.6484
2955.00,3.6976
2954.00,3.7524
2953.00,3.7923
2952.00,3.8027
2951.00,3.8050
2950.00,3.8362
2949.00,3.9174
2948.00,4.0391
2947.00,4.1719
2946.00,4.3131
2945.00,4.5043
2944.00,4.7559
2943.00,4.8494
2942.00,4.6429
2941.00,4.4432
2940.00,4.3293
2939.00,4.2737
2938.00,4.2424
2937.00,4.2374
2936.00,4.2732
2935.00,4.3473
2934.00,4.4534
2933.00,4.6124
2932.00,4.7583
2931.00,4.6360
2930.00,4.4640
2929.00,4.3592
2928.00,4.3308
2927.00,4.3026
2926.00,4.2989
2925.00,4.3332
2924.00,4.3408
2923.00,4.2799
2922.00,4.1781
2921.00,4.0468
2920.00,3.8923
2919.00,3.7475
2918.00,3.6439
2917.00,3.5836
2916.00,3.5446
2915.00,3.5008
2914.00,3.4402
2913.00,3.3703
2912.00,3.3052
2911.00,3.2528
2910.00,3.2131
2909.00,3.1816
2908.00,3.1533
2907.00,3.1257
2906.00,3.0989
2905.00,3.0735
2904.00,3.0482
2903.00,3.0203
2902.00,2.9884
2901.00,2.9540
2900.00,2.9213
2899.00,2.8938
2898.00,2.8723
2897.00,2.8540
2896.00,2.8353
2895.00,2.8143
2894.00,2.7921
2893.00,2.7714
2892.00,2.7546
2891.00,2.7428
2890.00,2.7363
2889.00,2.7339
2888.00,2.7342
2887.00,2.7365
2886.00,2.7415
2885.00,2.7505
2884.00,2.7646
2883.00,2.7840
2882.00,2.8078
2881.00,2.8348
2880.00,2.8642
2879.00,2.8975
2878.00,2.9367
2877.00,2.9814
2876.00,3.0285
2875.00,3.0768
2874.00,3.1291
2873.00,3.1885
2872.00,3.2545
2871.00,3.3251
2870.00,3.4018
2869.00,3.4867
2868.00,3.5755
2867.00,3.6589
2866.00,3.7312
2865.00,3.7865
2864.00,3.8078
2863.00,3.7863
2862.00,3.7437
2861.00,3.7050
2860.00,3.6707
2859.00,3.6248
2858.00,3.5568
2857.00,3.4675
2856.00,3.3633
2855.00,3.2524
2854.00,3.1414
2853.00,3.0333
2852.00,2.9284
2851.00,2.8276
2850.00,2.7322
2849.00,2.6433
2848.00,2.5619
2847.00,2.4893
2846.00,2.4271
2845.00,2.3763
2844.00,2.3367
2843.00,2.3077
2842.00,2.2888
2841.00,2.2791
2840.00,2.2769
2839.00,2.2801
2838.00,2.2871
2837.00,2.2970
2836.00,2.3091
2835.00,2.3226
2834.00,2.3365
2833.00,2.3503
2832.00,2.3635
2831.00,2.3758
2830.00,2.3872
2829.00,2.3974
2828.00,2.4059
2827.00,2.4128
2826.00,2.4190
2825.00,2.4247
2824.00,2.4286
2823.00,2.4298
2822.00,2.4293
2821.00,2.4289
2820.00,2.4296
2819.00,2.4312
2818.00,2.4323
2817.00,2.4323
2816.00,2.4304
2815.00,2.4268
2814.00,2.4220
2813.00,2.4170
2812.00,2.4120
2811.00,2.4067
2810.00,2.4010
2809.00,2.3946
2808.00,2.3873
2807.00,2.3786
2806.00,2.3688
2805.00,2.3579
2804.00,2.3460
2803.00,2.3335
2802.00,2.3208
2801.00,2.3082
2800.00,2.2952
2799.00,2.2807
2798.00,2.2647
2797.00,2.2477
2796.00,2.2298
2795.00,2.2108
2794.00,2.1902
2793.00,2.1682
2792.00,2.1447
2791.00,2.1196
2790.00,2.0925
2789.00,2.0635
2788.00,2.0329
2787.00,2.0009
2786.00,1.9674
2785.00,1.9327
2784.00,1.8970
2783.00,1.8606
2782.00,1.8238
2781.00,1.7866
2780.00,1.7494
2779.00,1.7123
2778.00,1.6759
2777.00,1.6405
2776.00,1.6064
2775.00,1.5738
2774.00,1.5431
2773.00,1.5149
2772.00,1.4900
2771.00,1.4687
2770.00,1.4516
2769.00,1.4389
2768.00,1.4310
2767.00,1.4277
2766.00,1.4291
2765.00,1.4347
2764.00,1.4444
2763.00,1.4578
2762.00,1.4745
2761.00,1.4939
2760.00,1.5157
2759.00,1.5396
2758.00,1.5654
2757.00,1.5931
2756.00,1.6225
2755.00,1.6535
2754.00,1.6857
2753.00,1.7190
2752.00,1.7531
2751.00,1.7873
2750.00,1.8215
2749.00,1.8553
2748.00,1.8887
2747.00,1.9215
2746.00,1.9536
2745.00,1.9846
2744.00,2.0143
2743.00,2.0427
2742.00,2.0697
2741.00,2.0952
2740.00,2.1194
2739.00,2.1425
2738.00,2.1650
2737.00,2.1869
2736.00,2.2080
2735.00,2.2278
2734.00,2.2464
2733.00,2.2636
2732.00,2.2794
2731.00,2.2938
2730.00,2.3072
2729.00,2.3199
2728.00,2.3319
2727.00,2.3433
2726.00,2.3545
2725.00,2.3659
2724.00,2.3771
2723.00,2.3872
2722.00,2.3954
2721.00,2.4022
2720.00,2.4083
2719.00,2.4142
2718.00,2.4198
2717.00,2.4249
2716.00,2.4295
2715.00,2.4334
2714.00,2.4370
2713.00,2.4404
2712.00,2.4432
2711.00,2.4444
2710.00,2.4440
2709.00,2.4426
2708.00,2.4414
2707.00,2.4407
2706.00,2.4402
2705.00,2.4395
2704.00,2.4382
2703.00,2.4352
2702.00,2.4303
2701.00,2.4237
2700.00,2.4166
2699.00,2.4096
2698.00,2.4028
2697.00,2.3960
2696.00,2.3887
2695.00,2.3806
2694.00,2.3713
2693.00,2.3610
2692.00,2.3501
2691.00,2.3387
2690.00,2.3265
2689.00,2.3134
2688.00,2.2999
2687.00,2.2862
2686.00,2.2722
2685.00,2.2574
2684.00,2.2419
2683.00,2.2259
2682.00,2.2096
2681.00,2.1931
2680.00,2.1763
2679.00,2.1594
2678.00,2.1431
2677.00,2.1271
2676.00,2.1111
2675.00,2.0943
2674.00,2.0767
2673.00,2.0583
2672.00,2.0393
2671.00,2.0195
2670.00,1.9985
2669.00,1.9762
2668.00,1.9522
2667.00,1.9259
2666.00,1.8972
2665.00,1.8659
2664.00,1.8321
2663.00,1.7965
2662.00,1.7599
2661.00,1.7235
2660.00,1.6878
2659.00,1.6534
2658.00,1.6209
2657.00,1.5907
2656.00,1.5634
2655.00,1.5392
2654.00,1.5183
2653.00,1.5004
2652.00,1.4854
2651.00,1.4732
2650.00,1.4638
2649.00,1.4573
2648.00,1.4537
2647.00,1.4532
2646.00,1.4557
2645.00,1.4612
2644.00,1.4697
2643.00,1.4812
2642.00,1.4959
2641.00,1.5138
2640.00,1.5348
2639.00,1.5589
2638.00,1.5856
2637.00,1.6147
2636.00,1.6457
2635.00,1.6783
2634.00,1.7121
2633.00,1.7468
2632.00,1.7819
2631.00,1.8171
2630.00,1.8521
2629.00,1.8869
2628.00,1.9213
2627.00,1.9549
2626.00,1.9874
2625.00,2.0187
2624.00,2.0489
2623.00,2.0778
2622.00,2.1057
2621.00,2.1323
2620.00,2.1574
2619.00,2.1809
2618.00,2.2030
2617.00,2.2243
2616.00,2.2449
2615.00,2.2646
2614.00,2.2834
2613.00,2.3014
2612.00,2.3188
2611.00,2.3349
2610.00,2.3493
2609.00,2.3619
2608.00,2.3734
2607.00,2.3847
2606.00,2.3963
2605.00,2.4080
2604.00,2.4190
2603.00,2.4288
2602.00,2.4377
2601.00,2.4464
2600.00,2.4552
2599.00,2.4639
2598.00,2.4716
2597.00,2.4784
2596.00,2.4843
2595.00,2.4897
2594.00,2.4949
2593.00,2.5001
2592.00,2.5052
2591.00,2.5096
2590.00,2.5132
2589.00,2.5160
2588.00,2.5185
2587.00,2.5208
2586.00,2.5230
2585.00,2.5250
2584.00,2.5267
2583.00,2.5278
2582.00,2.5282
2581.00,2.5273
2580.00,2.5245
2579.00,2.5199
2578.00,2.5147
2577.00,2.5101
2576.00,2.5062
2575.00,2.5027
2574.00,2.4993
2573.00,2.4955
2572.00,2.4909
2571.00,2.4850
2570.00,2.4778
2569.00,2.4701
2568.00,2.4620
2567.00,2.4530
2566.00,2.4431
2565.00,2.4325
2564.00,2.4217
2563.00,2.4105
2562.00,2.3987
2561.00,2.3856
2560.00,2.3713
2559.00,2.3561
2558.00,2.3407
2557.00,2.3251
2556.00,2.3088
2555.00,2.2910
2554.00,2.2713
2553.00,2.2503
2552.00,2.2287
2551.00,2.2067
2550.00,2.1840
2549.00,2.1600
2548.00,2.1345
2547.00,2.1076
2546.00,2.0794
2545.00,2.0500
2544.00,2.0194
2543.00,1.9875
2542.00,1.9545
2541.00,1.9204
2540.00,1.8853
2539.00,1.8491
2538.00,1.8118
2537.00,1.7736
2536.00,1.7350
2535.00,1.6962
2534.00,1.6579
2533.00,1.6201
2532.00,1.5834
2531.00,1.5479
2530.00,1.5140
2529.00,1.4823
2528.00,1.4533
2527.00,1.4275
2526.00,1.4052
2525.00,1.3869
2524.00,1.3726
2523.00,1.3626
2522.00,1.3570
2521.00,1.3559
2520.00,1.3595
2519.00,1.3677
2518.00,1.3805
2517.00,1.3978
2516.00,1.4194
2515.00,1.4449
2514.00,1.4739
2513.00,1.5058
2512.00,1.5400
2511.00,1.5760
2510.00,1.6136
2509.00,1.6524
2508.00,1.6922
2507.00,1.7324
2506.00,1.7728
2505.00,1.8130
2504.00,1.8527
2503.00,1.8917
2502.00,1.9297
2501.00,1.9665
2500.00,2.0021
2499.00,2.0362
2498.00,2.0689
2497.00,2.1003
2496.00,2.1305
2495.00,2.1597
2494.00,2.1877
2493.00,2.2141
2492.00,2.2388
2491.00,2.2621
2490.00,2.2848
2489.00,2.3074
2488.00,2.3292
2487.00,2.3494
2486.00,2.3678
2485.00,2.3851
2484.00,2.4015
2483.00,2.4172
2482.00,2.4324
2481.00,2.4474
2480.00,2.4622
2479.00,2.4763
2478.00,2.4888
2477.00,2.4996
2476.00,2.5091
2475.00,2.5178
2474.00,2.5264
2473.00,2.5351
2472.00,2.5438
2471.00,2.5520
2470.00,2.5593
2469.00,2.5657
2468.00,2.5712
2467.00,2.5765
2466.00,2.5819
2465.00,2.5868
2464.00,2.5904
2463.00,2.5923
2462.00,2.5938
2461.00,2.5964
2460.00,2.6008
2459.00,2.6060
2458.00,2.6106
2457.00,2.6134
2456.00,2.6144
2455.00,2.6136
2454.00,2.6113
2453.00,2.6076
2452.00,2.6031
2451.00,2.5988
2450.00,2.5956
2449.00,2.5936
2448.00,2.5916
2447.00,2.5881
2446.00,2.5822
2445.00,2.5745
2444.00,2.5658
2443.00,2.5572
2442.00,2.5489
2441.00,2.5411
2440.00,2.5336
2439.00,2.5262
2438.00,2.5181
2437.00,2.5087
2436.00,2.4977
2435.00,2.4854
2434.00,2.4725
2433.00,2.4591
2432.00,2.4453
2431.00,2.4309
2430.00,2.4159
2429.00,2.3999
2428.00,2.3827
2427.00,2.3640
2426.00,2.3442
2425.00,2.3235
2424.00,2.3019
2423.00,2.2792
2422.00,2.2556
2421.00,2.2310
2420.00,2.2053
2419.00,2.1782
2418.00,2.1492
2417.00,2.1184
2416.00,2.0860
2415.00,2.0520
2414.00,2.0161
2413.00,1.9779
2412.00,1.9377
2411.00,1.8957
2410.00,1.8523
2409.00,1.8075
2408.00,1.7613
2407.00,1.7141
2406.00,1.6665
2405.00,1.6192
2404.00,1.5729
2403.00,1.5283
2402.00,1.4860
2401.00,1.4468
2400.00,1.4114
2399.00,1.3805
2398.00,1.3546
2397.00,1.3342
2396.00,1.3199
2395.00,1.3118
2394.00,1.3102
2393.00,1.3151
2392.00,1.3263
2391.00,1.3436
2390.00,1.3664
2389.00,1.3942
2388.00,1.4262
2387.00,1.4616
2386.00,1.4995
2385.00,1.5391
2384.00,1.5796
2383.00,1.6201
2382.00,1.6598
2381.00,1.6980
2380.00,1.7342
2379.00,1.7679
2378.00,1.7991
2377.00,1.8275
2376.00,1.8535
2375.00,1.8774
2374.00,1.9000
2373.00,1.9224
2372.00,1.9452
2371.00,1.9687
2370.00,1.9931
2369.00,2.0182
2368.00,2.0436
2367.00,2.0691
2366.00,2.0946
2365.00,2.1200
2364.00,2.1441
2363.00,2.1655
2362.00,2.1848
2361.00,2.2036
2360.00,2.2222
2359.00,2.2403
2358.00,2.2581
2357.00,2.2749
2356.00,2.2906
2355.00,2.3051
2354.00,2.3183
2353.00,2.3323
2352.00,2.3431
2351.00,2.3590
2350.00,2.3682
2349.00,2.3994
2348.00,2.3956
2347.00,2.4815
2346.00,2.6711
2345.00,2.6372
2344.00,2.6711
2343.00,2.6659
2342.00,2.6793
2341.00,2.6805
2340.00,2.6868
2339.00,2.6911
2338.00,2.6954
2337.00,2.7037
2336.00,2.7046
2335.00,2.7174
2334.00,2.7048
2333.00,2.7383
2332.00,2.6586
2331.00,2.5466
2330.00,2.5698
2329.00,2.5553
2328.00,2.5565
2327.00,2.5457
2326.00,2.5416
2325.00,2.5373
2324.00,2.5349
2323.00,2.5313
2322.00,2.5258
2321.00,2.5209
2320.00,2.5154
2319.00,2.5092
2318.00,2.5021
2317.00,2.4962
2316.00,2.4932
2315.00,2.4923
2314.00,2.4921
2313.00,2.4906
2312.00,2.4873
2311.00,2.4821
2310.00,2.4762
2309.00,2.4704
2308.00,2.4645
2307.00,2.4585
2306.00,2.4523
2305.00,2.4463
2304.00,2.4403
2303.00,2.4334
2302.00,2.4251
2301.00,2.4155
2300.00,2.4045
2299.00,2.3920
2298.00,2.3783
2297.00,2.3632
2296.00,2.3468
2295.00,2.3286
2294.00,2.3090
2293.00,2.2888
2292.00,2.2681
2291.00,2.2464
2290.00,2.2225
2289.00,2.1961
2288.00,2.1672
2287.00,2.1359
2286.00,2.1022
2285.00,2.0660
2284.00,2.0273
2283.00,1.9864
2282.00,1.9432
2281.00,1.8980
2280.00,1.8514
2279.00,1.8035
2278.00,1.7549
2277.00,1.7058
2276.00,1.6570
2275.00,1.6096
2274.00,1.5643
2273.00,1.5220
2272.00,1.4831
2271.00,1.4481
2270.00,1.4176
2269.00,1.3923
2268.00,1.3728
2267.00,1.3597
2266.00,1.3536
2265.00,1.3548
2264.00,1.3635
2263.00,1.3796
2262.00,1.4026
2261.00,1.4320
2260.00,1.4669
2259.00,1.5063
2258.00,1.5492
2257.00,1.5948
2256.00,1.6423
2255.00,1.6911
2254.00,1.7404
2253.00,1.7891
2252.00,1.8362
2251.00,1.8810
2250.00,1.9241
2249.00,1.9661
2248.00,2.0073
2247.00,2.0477
2246.00,2.0870
2245.00,2.1251
2244.00,2.1619
2243.00,2.1973
2242.00,2.2312
2241.00,2.2640
2240.00,2.2955
2239.00,2.3259
2238.00,2.3553
2237.00,2.3832
2236.00,2.4088
2235.00,2.4318
2234.00,2.4531
2233.00,2.4744
2232.00,2.4963
2231.00,2.5184
2230.00,2.5396
2229.00,2.5588
2228.00,2.5753
2227.00,2.5894
2226.00,2.6026
2225.00,2.6163
2224.00,2.6305
2223.00,2.6441
2222.00,2.6565
2221.00,2.6679
2220.00,2.6784
2219.00,2.6883
2218.00,2.6979
2217.00,2.7071
2216.00,2.7159
2215.00,2.7245
2214.00,2.7334
2213.00,2.7426
2212.00,2.7506
2211.00,2.7564
2210.00,2.7607
2209.00,2.7650
2208.00,2.7695
2207.00,2.7737
2206.00,2.7778
2205.00,2.7826
2204.00,2.7878
2203.00,2.7918
2202.00,2.7932
2201.00,2.7923
2200.00,2.7899
2199.00,2.7871
2198.00,2.7848
2197.00,2.7834
2196.00,2.7830
2195.00,2.7824
2194.00,2.7803
2193.00,2.7761
2192.00,2.7708
2191.00,2.7659
2190.00,2.7623
2189.00,2.7591
2188.00,2.7546
2187.00,2.7482
2186.00,2.7413
2185.00,2.7346
2184.00,2.7272
2183.00,2.7180
2182.00,2.7070
2181.00,2.6954
2180.00,2.6843
2179.00,2.6740
2178.00,2.6648
2177.00,2.6560
2176.00,2.6461
2175.00,2.6340
2174.00,2.6199
2173.00,2.6050
2172.00,2.5898
2171.00,2.5739
2170.00,2.5565
2169.00,2.5374
2168.00,2.5166
2167.00,2.4943
2166.00,2.4710
2165.00,2.4469
2164.00,2.4219
2163.00,2.3953
2162.00,2.3670
2161.00,2.3370
2160.00,2.3053
2159.00,2.2719
2158.00,2.2369
2157.00,2.1999
2156.00,2.1605
2155.00,2.1183
2154.00,2.0736
2153.00,2.0267
2152.00,1.9780
2151.00,1.9278
2150.00,1.8764
2149.00,1.8248
2148.00,1.7734
2147.00,1.7228
2146.00,1.6736
2145.00,1.6268
2144.00,1.5834
2143.00,1.5445
2142.00,1.5112
2141.00,1.4843
2140.00,1.4643
2139.00,1.4514
2138.00,1.4458
2137.00,1.4476
2136.00,1.4565
2135.00,1.4721
2134.00,1.4938
2133.00,1.5210
2132.00,1.5529
2131.00,1.5887
2130.00,1.6279
2129.00,1.6699
2128.00,1.7141
2127.00,1.7599
2126.00,1.8068
2125.00,1.8544
2124.00,1.9026
2123.00,1.9510
2122.00,1.9991
2121.00,2.0462
2120.00,2.0920
2119.00,2.1362
2118.00,2.1787
2117.00,2.2195
2116.00,2.2583
2115.00,2.2950
2114.00,2.3295
2113.00,2.3626
2112.00,2.3950
2111.00,2.4268
2110.00,2.4576
2109.00,2.4862
2108.00,2.5125
2107.00,2.5364
2106.00,2.5584
2105.00,2.5790
2104.00,2.5989
2103.00,2.6189
2102.00,2.6387
2101.00,2.6570
2100.00,2.6728
2099.00,2.6871
2098.00,2.7016
2097.00,2.7167
2096.00,2.7309
2095.00,2.7436
2094.00,2.7558
2093.00,2.7683
2092.00,2.7801
2091.00,2.7893
2090.00,2.7958
2089.00,2.8011
2088.00,2.8071
2087.00,2.8143
2086.00,2.8220
2085.00,2.8293
2084.00,2.8357
2083.00,2.8425
2082.00,2.8521
2081.00,2.8651
2080.00,2.8784
2079.00,2.8866
2078.00,2.8871
2077.00,2.8828
2076.00,2.8789
2075.00,2.8785
2074.00,2.8812
2073.00,2.8844
2072.00,2.8866
2071.00,2.8880
2070.00,2.8894
2069.00,2.8901
2068.00,2.8887
2067.00,2.8848
2066.00,2.8791
2065.00,2.8731
2064.00,2.8681
2063.00,2.8645
2062.00,2.8618
2061.00,2.8586
2060.00,2.8531
2059.00,2.8453
2058.00,2.8366
2057.00,2.8285
2056.00,2.8218
2055.00,2.8165
2054.00,2.8115
2053.00,2.8043
2052.00,2.7927
2051.00,2.7771
2050.00,2.7603
2049.00,2.7442
2048.00,2.7291
2047.00,2.7143
2046.00,2.6996
2045.00,2.6845
2044.00,2.6679
2043.00,2.6491
2042.00,2.6285
2041.00,2.6072
2040.00,2.5859
2039.00,2.5646
2038.00,2.5433
2037.00,2.5209
2036.00,2.4961
2035.00,2.4675
2034.00,2.4355
2033.00,2.4011
2032.00,2.3653
2031.00,2.3288
2030.00,2.2914
2029.00,2.2527
2028.00,2.2117
2027.00,2.1677
2026.00,2.1208
2025.00,2.0716
2024.00,2.0209
2023.00,1.9691
2022.00,1.9169
2021.00,1.8647
2020.00,1.8128
2019.00,1.7615
2018.00,1.7114
2017.00,1.6643
2016.00,1.6221
2015.00,1.5867
2014.00,1.5589
2013.00,1.5387
2012.00,1.5257
2011.00,1.5197
2010.00,1.5211
2009.00,1.5301
2008.00,1.5468
2007.00,1.5707
2006.00,1.6011
2005.00,1.6373
2004.00,1.6785
2003.00,1.7234
2002.00,1.7711
2001.00,1.8209
2000.00,1.8726
1999.00,1.9255
1998.00,1.9789
1997.00,2.0321
1996.00,2.0844
1995.00,2.1349
1994.00,2.1827
1993.00,2.2275
1992.00,2.2698
1991.00,2.3107
1990.00,2.3516
1989.00,2.3927
1988.00,2.4328
1987.00,2.4702
1986.00,2.5040
1985.00,2.5356
1984.00,2.5660
1983.00,2.5947
1982.00,2.6199
1981.00,2.6413
1980.00,2.6611
1979.00,2.6817
1978.00,2.7035
1977.00,2.7251
1976.00,2.7449
1975.00,2.7620
1974.00,2.7766
1973.00,2.7900
1972.00,2.8042
1971.00,2.8197
1970.00,2.8350
1969.00,2.8474
1968.00,2.8558
1967.00,2.8615
1966.00,2.8679
1965.00,2.8769
1964.00,2.8885
1963.00,2.9006
1962.00,2.9115
1961.00,2.9202
1960.00,2.9269
1959.00,2.9328
1958.00,2.9389
1957.00,2.9465
1956.00,2.9557
1955.00,2.9655
1954.00,2.9741
1953.00,2.9799
1952.00,2.9826
1951.00,2.9829
1950.00,2.9815
1949.00,2.9785
1948.00,2.9751
1947.00,2.9730
1946.00,2.9727
1945.00,2.9727
1944.00,2.9707
1943.00,2.9658
1942.00,2.9603
1941.00,2.9570
1940.00,2.9567
1939.00,2.9580
1938.00,2.9590
1937.00,2.9588
1936.00,2.9561
1935.00,2.9494
1934.00,2.9389
1933.00,2.9277
1932.00,2.9184
1931.00,2.9110
1930.00,2.9030
1929.00,2.8925
1928.00,2.8803
1927.00,2.8676
1926.00,2.8546
1925.00,2.8403
1924.00,2.8235
1923.00,2.8042
1922.00,2.7836
1921.00,2.7640
1920.00,2.7464
1919.00,2.7290
1918.00,2.7084
1917.00,2.6836
1916.00,2.6575
1915.00,2.6329
1914.00,2.6096
1913.00,2.5849
1912.00,2.5561
1911.00,2.5228
1910.00,2.4861
1909.00,2.4474
1908.00,2.4077
1907.00,2.3667
1906.00,2.3241
1905.00,2.2791
1904.00,2.2311
1903.00,2.1795
1902.00,2.1245
1901.00,2.0668
1900.00,2.0076
1899.00,1.9479
1898.00,1.8885
1897.00,1.8305
1896.00,1.7751
1895.00,1.7239
1894.00,1.6796
1893.00,1.6447
1892.00,1.6202
1891.00,1.6057
1890.00,1.6006
1889.00,1.6056
1888.00,1.6224
1887.00,1.6518
1886.00,1.6922
1885.00,1.7408
1884.00,1.7941
1883.00,1.8499
1882.00,1.9071
1881.00,1.9651
1880.00,2.0231
1879.00,2.0802
1878.00,2.1361
1877.00,2.1909
1876.00,2.2438
1875.00,2.2944
1874.00,2.3425
1873.00,2.3876
1872.00,2.4285
1871.00,2.4645
1870.00,2.4962
1869.00,2.5246
1868.00,2.5515
1867.00,2.5798
1866.00,2.6124
1865.00,2.6487
1864.00,2.6852
1863.00,2.7185
1862.00,2.7477
1861.00,2.7740
1860.00,2.7989
1859.00,2.8221
1858.00,2.8430
1857.00,2.8613
1856.00,2.8776
1855.00,2.8930
1854.00,2.9090
1853.00,2.9258
1852.00,2.9430
1851.00,2.9595
1850.00,2.9749
1849.00,2.9881
1848.00,2.9977
1847.00,3.0051
1846.00,3.0147
1845.00,3.0274
1844.00,3.0381
1843.00,3.0415
1842.00,3.0399
1841.00,3.0411
1840.00,3.0488
1839.00,3.0601
1838.00,3.0680
1837.00,3.0688
1836.00,3.0660
1835.00,3.0654
1834.00,3.0685
1833.00,3.0721
1832.00,3.0735
1831.00,3.0722
1830.00,3.0690
1829.00,3.0631
1828.00,3.0538
1827.00,3.0422
1826.00,3.0298
1825.00,3.0175
1824.00,3.0066
1823.00,2.9989
1822.00,2.9937
1821.00,2.9877
1820.00,2.9783
1819.00,2.9663
1818.00,2.9539
1817.00,2.9416
1816.00,2.9284
1815.00,2.9134
1814.00,2.8959
1813.00,2.8757
1812.00,2.8539
1811.00,2.8325
1810.00,2.8127
1809.00,2.7939
1808.00,2.7758
1807.00,2.7582
1806.00,2.7399
1805.00,2.7179
1804.00,2.6892
1803.00,2.6530
1802.00,2.6093
1801.00,2.5606
1800.00,2.5099
1799.00,2.4591
1798.00,2.4074
1797.00,2.3526
1796.00,2.2956
1795.00,2.2401
1794.00,2.1898
1793.00,2.1453
1792.00,2.1053
1791.00,2.0724
1790.00,2.0550
1789.00,2.0597
1788.00,2.0857
1787.00,2.1268
1786.00,2.1769
1785.00,2.2329
1784.00,2.2945
1783.00,2.3612
1782.00,2.4314
1781.00,2.5037
1780.00,2.5755
1779.00,2.6439
1778.00,2.7084
1777.00,2.7692
1776.00,2.8264
1775.00,2.8812
1774.00,2.9381
1773.00,2.9978
1772.00,3.0495
1771.00,3.0808
1770.00,3.0956
1769.00,3.1085
1768.00,3.1289
1767.00,3.1556
1766.00,3.1841
1765.00,3.2119
1764.00,3.2365
1763.00,3.2546
1762.00,3.2650
1761.00,3.2710
1760.00,3.2766
1759.00,3.2847
1758.00,3.2969
1757.00,3.3129
1756.00,3.3275
1755.00,3.3366
1754.00,3.3443
1753.00,3.3564
1752.00,3.3707
1751.00,3.3819
1750.00,3.3940
1749.00,3.4187
1748.00,3.4584
1747.00,3.4990
1746.00,3.5287
1745.00,3.5551
1744.00,3.5928
1743.00,3.6487
1742.00,3.7196
1741.00,3.7979
1740.00,3.8750
1739.00,3.9405
1738.00,3.9918
1737.00,4.0441
1736.00,4.1143
1735.00,4.2057
1734.00,4.3157
1733.00,4.4381
1732.00,4.5126
1731.00,4.4905
1730.00,4.4661
1729.00,4.5267
1728.00,4.8436
1727.00,5.1760
1726.00,4.7166
1725.00,4.6371
1724.00,4.7133
1723.00,4.8220
1722.00,5.0906
1721.00,5.2902
1720.00,4.8145
1719.00,4.7227
1718.00,4.8771
1717.00,4.9324
1716.00,4.9223
1715.00,5.2835
1714.00,5.1363
1713.00,4.6301
1712.00,4.4005
1711.00,4.2805
1710.00,4.2461
1709.00,4.2957
1708.00,4.4424
1707.00,4.6894
1706.00,4.8650
1705.00,4.7629
1704.00,4.7019
1703.00,4.7154
1702.00,4.6534
1701.00,4.6373
1700.00,4.7531
1699.00,5.0831
1698.00,5.2731
1697.00,4.7479
1696.00,4.5709
1695.00,4.5122
1694.00,4.4449
1693.00,4.3213
1692.00,4.1706
1691.00,4.0278
1690.00,3.9013
1689.00,3.7951
1688.00,3.7171
1687.00,3.6742
1686.00,3.6591
1685.00,3.6446
1684.00,3.6034
1683.00,3.5403
1682.00,3.4855
1681.00,3.4549
1680.00,3.4447
1679.00,3.4469
1678.00,3.4548
1677.00,3.4614
1676.00,3.4576
1675.00,3.4351
1674.00,3.3935
1673.00,3.3403
1672.00,3.2817
1671.00,3.2206
1670.00,3.1556
1669.00,3.0851
1668.00,3.0129
1667.00,2.9468
1666.00,2.8896
1665.00,2.8382
1664.00,2.7882
1663.00,2.7381
1662.00,2.6905
1661.00,2.6533
1660.00,2.6325
1659.00,2.6291
1658.00,2.6401
1657.00,2.6596
1656.00,2.6856
1655.00,2.7252
1654.00,2.7852
1653.00,2.8542
1652.00,2.9097
1651.00,2.9397
1650.00,2.9468
1649.00,2.9498
1648.00,2.9663
1647.00,2.9973
1646.00,3.0358
1645.00,3.0749
1644.00,3.1071
1643.00,3.1285
1642.00,3.1448
1641.00,3.1633
1640.00,3.1823
1639.00,3.1971
1638.00,3.2095
1637.00,3.2231
1636.00,3.2354
1635.00,3.2415
1634.00,3.2446
1633.00,3.2498
1632.00,3.2590
1631.00,3.2719
1630.00,3.2842
1629.00,3.2886
1628.00,3.2834
1627.00,3.2757
1626.00,3.2747
1625.00,3.2816
1624.00,3.2888
1623.00,3.2878
1622.00,3.2773
1621.00,3.2638
1620.00,3.2558
1619.00,3.2616
1618.00,3.2828
1617.00,3.3045
1616.00,3.3045
1615.00,3.2789
1614.00,3.2448
1613.00,3.2171
1612.00,3.1985
1611.00,3.1842
1610.00,3.1700
1609.00,3.1549
1608.00,3.1396
1607.00,3.1257
1606.00,3.1139
1605.00,3.1029
1604.00,3.0876
1603.00,3.0648
1602.00,3.0359
1601.00,3.0057
1600.00,2.9778
1599.00,2.9528
1598.00,2.9272
1597.00,2.8962
1596.00,2.8598
1595.00,2.8222
1594.00,2.7861
1593.00,2.7492
1592.00,2.7089
1591.00,2.6658
1590.00,2.6214
1589.00,2.5746
1588.00,2.5233
1587.00,2.4671
1586.00,2.4061
1585.00,2.3412
1584.00,2.2738
1583.00,2.2059
1582.00,2.1406
1581.00,2.0803
1580.00,2.0266
1579.00,1.9843
1578.00,1.9602
1577.00,1.9556
1576.00,1.9625
1575.00,1.9714
1574.00,1.9811
1573.00,1.9990
1572.00,2.0330
1571.00,2.0849
1570.00,2.1468
1569.00,2.2094
1568.00,2.2700
1567.00,2.3309
1566.00,2.3937
1565.00,2.4576
1564.00,2.5184
1563.00,2.5728
1562.00,2.6252
1561.00,2.6838
1560.00,2.7470
1559.00,2.7970
1558.00,2.8258
1557.00,2.8510
1556.00,2.8794
1555.00,2.9074
1554.00,2.9357
1553.00,2.9626
1552.00,2.9844
1551.00,3.0018
1550.00,3.0202
1549.00,3.0443
1548.00,3.0732
1547.00,3.0998
1546.00,3.1171
1545.00,3.1239
1544.00,3.1244
1543.00,3.1269
1542.00,3.1402
1541.00,3.1656
1540.00,3.1951
1539.00,3.2173
1538.00,3.2291
1537.00,3.2334
1536.00,3.2371
1535.00,3.2475
1534.00,3.2630
1533.00,3.2762
1532.00,3.2858
1531.00,3.2980
1530.00,3.3152
1529.00,3.3330
1528.00,3.3444
1527.00,3.3434
1526.00,3.3300
1525.00,3.3107
1524.00,3.2947
1523.00,3.2890
1522.00,3.2936
1521.00,3.2984
1520.00,3.2931
1519.00,3.2797
1518.00,3.2683
1517.00,3.2646
1516.00,3.2657
1515.00,3.2670
1514.00,3.2691
1513.00,3.2732
1512.00,3.2744
1511.00,3.2653
1510.00,3.2456
1509.00,3.2228
1508.00,3.2000
1507.00,3.1769
1506.00,3.1623
1505.00,3.1654
1504.00,3.1713
1503.00,3.1642
1502.00,3.1486
1501.00,3.1323
1500.00,3.1148
1499.00,3.0923
1498.00,3.0645
1497.00,3.0326
1496.00,2.9964
1495.00,2.9566
1494.00,2.9161
1493.00,2.8775
1492.00,2.8388
1491.00,2.7916
1490.00,2.7302
1489.00,2.6624
1488.00,2.6021
1487.00,2.5533
1486.00,2.5098
1485.00,2.4672
1484.00,2.4255
1483.00,2.3857
1482.00,2.3501
1481.00,2.3226
1480.00,2.3079
1479.00,2.3089
1478.00,2.3251
1477.00,2.3544
1476.00,2.3962
1475.00,2.4511
1474.00,2.5195
1473.00,2.5991
1472.00,2.6858
1471.00,2.7776
1470.00,2.8722
1469.00,2.9655
1468.00,3.0533
1467.00,3.1325
1466.00,3.2021
1465.00,3.2619
1464.00,3.3087
1463.00,3.3409
1462.00,3.3644
1461.00,3.3863
1460.00,3.4097
1459.00,3.4368
1458.00,3.4760
1457.00,3.5405
1456.00,3.6376
1455.00,3.7530
1454.00,3.8543
1453.00,3.9251
1452.00,3.9743
1451.00,4.0219
1450.00,4.0787
1449.00,4.1191
1448.00,4.0797
1447.00,3.9528
1446.00,3.7974
1445.00,3.6500
1444.00,3.5192
1443.00,3.4136
1442.00,3.3431
1441.00,3.3104
1440.00,3.3091
1439.00,3.3307
1438.00,3.3708
1437.00,3.4269
1436.00,3.4934
1435.00,3.5593
1434.00,3.6157
1433.00,3.6631
1432.00,3.7062
1431.00,3.7480
1430.00,3.7910
1429.00,3.8333
1428.00,3.8557
1427.00,3.8408
1426.00,3.8087
1425.00,3.7942
1424.00,3.8082
1423.00,3.8397
1422.00,3.8701
1421.00,3.8766
1420.00,3.8344
1419.00,3.7354
1418.00,3.6078
1417.00,3.4956
1416.00,3.4199
1415.00,3.3766
1414.00,3.3528
1413.00,3.3384
1412.00,3.3307
1411.00,3.3332
1410.00,3.3471
1409.00,3.3666
1408.00,3.3825
1407.00,3.3913
1406.00,3.3953
1405.00,3.3988
1404.00,3.4046
1403.00,3.4172
1402.00,3.4405
1401.00,3.4707
1400.00,3.4943
1399.00,3.4986
1398.00,3.4857
1397.00,3.4669
1396.00,3.4482
1395.00,3.4339
1394.00,3.4336
1393.00,3.4546
1392.00,3.4887
1391.00,3.5183
1390.00,3.5355
1389.00,3.5478
1388.00,3.5636
1387.00,3.5806
1386.00,3.5894
1385.00,3.5842
1384.00,3.5673
1383.00,3.5474
1382.00,3.5329
1381.00,3.5240
1380.00,3.5139
1379.00,3.4980
1378.00,3.4828
1377.00,3.4775
1376.00,3.4833
1375.00,3.4919
1374.00,3.4948
1373.00,3.4905
1372.00,3.4796
1371.00,3.4612
1370.00,3.4372
1369.00,3.4122
1368.00,3.3891
1367.00,3.3702
1366.00,3.3538
1365.00,3.3321
1364.00,3.2956
1363.00,3.2450
1362.00,3.1937
1361.00,3.1545
1360.00,3.1281
1359.00,3.1082
1358.00,3.0910
1357.00,3.0778
1356.00,3.0719
1355.00,3.0786
1354.00,3.1052
1353.00,3.1562
1352.00,3.2297
1351.00,3.3187
1350.00,3.4199
1349.00,3.5347
1348.00,3.6486
1347.00,3.7132
1346.00,3.6995
1345.00,3.6487
1344.00,3.6083
1343.00,3.5949
1342.00,3.6067
1341.00,3.6352
1340.00,3.6670
1339.00,3.6863
1338.00,3.6758
1337.00,3.6251
1336.00,3.5443
1335.00,3.4502
1334.00,3.3543
1333.00,3.2648
1332.00,3.1878
1331.00,3.1287
1330.00,3.0913
1329.00,3.0763
1328.00,3.0804
1327.00,3.1002
1326.00,3.1358
1325.00,3.1894
1324.00,3.2594
1323.00,3.3368
1322.00,3.4104
1321.00,3.4755
1320.00,3.5344
1319.00,3.5879
1318.00,3.6360
1317.00,3.6880
1316.00,3.7616
1315.00,3.8704
1314.00,4.0227
1313.00,4.2281
1312.00,4.4371
1311.00,4.4663
1310.00,4.3260
1309.00,4.1356
1308.00,3.9588
1307.00,3.8033
1306.00,3.6687
1305.00,3.5531
1304.00,3.4494
1303.00,3.3548
1302.00,3.2740
1301.00,3.2101
1300.00,3.1601
1299.00,3.1198
1298.00,3.0897
1297.00,3.0735
1296.00,3.0727
1295.00,3.0857
1294.00,3.1112
1293.00,3.1486
1292.00,3.1943
1291.00,3.2397
1290.00,3.2774
1289.00,3.3074
1288.00,3.3360
1287.00,3.3659
1286.00,3.3947
1285.00,3.4216
1284.00,3.4489
1283.00,3.4776
1282.00,3.5069
1281.00,3.5360
1280.00,3.5640
1279.00,3.5886
1278.00,3.6096
1277.00,3.6295
1276.00,3.6491
1275.00,3.6650
1274.00,3.6720
1273.00,3.6725
1272.00,3.6781
1271.00,3.6896
1270.00,3.6942
1269.00,3.6880
1268.00,3.6850
1267.00,3.7024
1266.00,3.7436
1265.00,3.7890
1264.00,3.8104
1263.00,3.7999
1262.00,3.7734
1261.00,3.7475
1260.00,3.7272
1259.00,3.7233
1258.00,3.7592
1257.00,3.8437
1256.00,3.9282
1255.00,3.9261
1254.00,3.8598
1253.00,3.8062
1252.00,3.7911
1251.00,3.8016
1250.00,3.8202
1249.00,3.8462
1248.00,3.8793
1247.00,3.8948
1246.00,3.8650
1245.00,3.8037
1244.00,3.7479
1243.00,3.7158
1242.00,3.7054
1241.00,3.7101
1240.00,3.7264
1239.00,3.7474
1238.00,3.7672
1237.00,3.7920
1236.00,3.8292
1235.00,3.8810
1234.00,3.9557
1233.00,4.0609
1232.00,4.1856
1231.00,4.3029
1230.00,4.3795
1229.00,4.3878
1228.00,4.3841
1227.00,4.4334
1226.00,4.4974
1225.00,4.4888
1224.00,4.4507
1223.00,4.4141
1222.00,4.3213
1221.00,4.2405
1220.00,4.2611
1219.00,4.4922
1218.00,5.1590
1217.00,4.5332
1216.00,4.3347
1215.00,4.2619
1214.00,4.1931
1213.00,4.0852
1212.00,3.9663
1211.00,3.8817
1210.00,3.8373
1209.00,3.8165
1208.00,3.7970
1207.00,3.7722
1206.00,3.7459
1205.00,3.7273
1204.00,3.7277
1203.00,3.7465
1202.00,3.7610
1201.00,3.7403
1200.00,3.6815
1199.00,3.6142
1198.00,3.5660
1197.00,3.5440
1196.00,3.5363
1195.00,3.5259
1194.00,3.5051
1193.00,3.4767
1192.00,3.4400
1191.00,3.3935
1190.00,3.3510
1189.00,3.3317
1188.00,3.3393
1187.00,3.3571
1186.00,3.3602
1185.00,3.3420
1184.00,3.3203
1183.00,3.3121
1182.00,3.3196
1181.00,3.3355
1180.00,3.3536
1179.00,3.3738
1178.00,3.3961
1177.00,3.4153
1176.00,3.4240
1175.00,3.4193
1174.00,3.4051
1173.00,3.3894
1172.00,3.3815
1171.00,3.3899
1170.00,3.4192
1169.00,3.4663
1168.00,3.5173
1167.00,3.5544
1166.00,3.5709
1165.00,3.5737
1164.00,3.5689
1163.00,3.5604
1162.00,3.5581
1161.00,3.5717
1160.00,3.5987
1159.00,3.6277
1158.00,3.6521
1157.00,3.6749
1156.00,3.6940
1155.00,3.6956
1154.00,3.6804
1153.00,3.6784
1152.00,3.7175
1151.00,3.8021
1150.00,3.8983
1149.00,3.9334
1148.00,3.8759
1147.00,3.7844
1146.00,3.7251
1145.00,3.7215
1144.00,3.7583
1143.00,3.7894
1142.00,3.7819
1141.00,3.7610
1140.00,3.7697
1139.00,3.8229
1138.00,3.9078
1137.00,4.0069
1136.00,4.1156
1135.00,4.2273
1134.00,4.3173
1133.00,4.3288
1132.00,4.2633
1131.00,4.2378
1130.00,4.3083
1129.00,4.4438
1128.00,4.5392
1127.00,4.4941
1126.00,4.4260
1125.00,4.4298
1124.00,4.3314
1123.00,4.1609
1122.00,4.0829
1121.00,4.1051
1120.00,4.1957
1119.00,4.4003
1118.00,4.6616
1117.00,4.3961
1116.00,4.2667
1115.00,4.3205
1114.00,4.3872
1113.00,4.3866
1112.00,4.4655
1111.00,4.5435
1110.00,4.3810
1109.00,4.3804
1108.00,4.7725
1107.00,4.5098
1106.00,4.1531
1105.00,4.1275
1104.00,4.3064
1103.00,4.5897
1102.00,4.5738
1101.00,4.3597
1100.00,4.1996
1099.00,4.1372
1098.00,4.1264
1097.00,4.1138
1096.00,4.0730
1095.00,4.0100
1094.00,3.9736
1093.00,3.9801
1092.00,4.0082
1091.00,4.0179
1090.00,3.9932
1089.00,3.9923
1088.00,4.0797
1087.00,4.2864
1086.00,4.5032
1085.00,4.4817
1084.00,4.4775
1083.00,4.4996
1082.00,4.3361
1081.00,4.1149
1080.00,3.9353
1079.00,3.8218
1078.00,3.7733
1077.00,3.7701
1076.00,3.7934
1075.00,3.8445
1074.00,3.9285
1073.00,4.0153
1072.00,4.0302
1071.00,3.9416
1070.00,3.8319
1069.00,3.7645
1068.00,3.7406
1067.00,3.7368
1066.00,3.7277
1065.00,3.6975
1064.00,3.6565
1063.00,3.6323
1062.00,3.6415
1061.00,3.6764
1060.00,3.7121
1059.00,3.7329
1058.00,3.7526
1057.00,3.7939
1056.00,3.8626
1055.00,3.9409
1054.00,3.9896
1053.00,3.9805
1052.00,3.9159
1051.00,3.8229
1050.00,3.7438
1049.00,3.6917
1048.00,3.6528
1047.00,3.6170
1046.00,3.5926
1045.00,3.5899
1044.00,3.5958
1043.00,3.5750
1042.00,3.5139
1041.00,3.4447
1040.00,3.4053
1039.00,3.4101
1038.00,3.4492
1037.00,3.4980
1036.00,3.5352
1035.00,3.5581
1034.00,3.5736
1033.00,3.5808
1032.00,3.5779
1031.00,3.5788
1030.00,3.6029
1029.00,3.6561
1028.00,3.7276
1027.00,3.7988
1026.00,3.8544
1025.00,3.8888
1024.00,3.9099
1023.00,3.9361
1022.00,3.9597
1021.00,3.9539
1020.00,3.9438
1019.00,3.9460
1018.00,3.9370
1017.00,3.9346
1016.00,3.9764
1015.00,4.0609
1014.00,4.1399
1013.00,4.1221
1012.00,4.0110
1011.00,3.9283
1010.00,3.9195
1009.00,3.9623
1008.00,4.0168
1007.00,4.0570
1006.00,4.0640
1005.00,4.0603
1004.00,4.0905
1003.00,4.1227
1002.00,4.1367
1001.00,4.1243
1000.00,4.1028
999.00,4.1170
998.00,4.2793
997.00,4.6899
996.00,4.4755
995.00,4.2859
994.00,4.3078
993.00,4.5552
992.00,5.4431
991.00,4.6926
990.00,4.4126
989.00,4.2921
988.00,4.2255
987.00,4.2118
986.00,4.2058
985.00,4.2260
984.00,4.2693
983.00,4.3404
982.00,4.4019
981.00,4.4280
980.00,4.4653
979.00,4.5449
978.00,4.6898
977.00,4.8470
976.00,4.7398
975.00,4.5684
974.00,4.4169
973.00,4.2652
972.00,4.1547
971.00,4.1092
970.00,4.1409
969.00,4.2133
968.00,4.2181
967.00,4.1551
966.00,4.1171
965.00,4.1473
964.00,4.2407
963.00,4.4091
962.00,4.6051
961.00,4.7154
960.00,4.9921
959.00,4.9931
958.00,4.7101
957.00,4.5454
956.00,4.3711
955.00,4.2562
954.00,4.2069
953.00,4.2483
952.00,4.3589
951.00,4.3133
950.00,4.2203
949.00,4.2450
948.00,4.3299
947.00,4.4886
946.00,4.7393
945.00,4.5553
944.00,4.3005
943.00,4.2212
942.00,4.2804
941.00,4.4797
940.00,4.5061
939.00,4.2687
938.00,4.1565
937.00,4.1401
936.00,4.1609
935.00,4.2121
934.00,4.3104
933.00,4.4352
932.00,4.3751
931.00,4.2913
930.00,4.2730
929.00,4.1432
928.00,4.0708
927.00,4.1445
926.00,4.4193
925.00,4.7202
924.00,4.3197
923.00,4.1635
922.00,4.1978
921.00,4.3521
920.00,4.5955
919.00,4.8191
918.00,5.1091
917.00,4.7777
916.00,4.4685
915.00,4.2830
914.00,4.2001
913.00,4.2314
912.00,4.3595
911.00,4.5814
910.00,4.5712
909.00,4.3249
908.00,4.2130
907.00,4.1993
906.00,4.1402
905.00,4.0329
904.00,3.9997
903.00,4.0612
902.00,4.1920
901.00,4.2649
900.00,4.1647
899.00,4.0185
898.00,3.9900
897.00,4.0425
896.00,4.3468
895.00,5.2130
894.00,4.5687
893.00,4.6512
892.00,4.3011
891.00,4.0276
890.00,3.9958
889.00,4.0264
888.00,4.0858
887.00,4.0918
886.00,4.0949
885.00,4.1347
884.00,4.2145
883.00,4.2593
882.00,4.1896
881.00,4.0911
880.00,4.0614
879.00,4.1689
878.00,4.4745
877.00,4.5286
876.00,4.3549
875.00,4.3082
874.00,4.1474
873.00,3.9433
872.00,3.8219
871.00,3.7942
870.00,3.8399
869.00,3.9432
868.00,4.0908
867.00,4.2250
866.00,4.2625
865.00,4.1597
864.00,4.0745
863.00,4.1646
862.00,4.2567
861.00,4.1084
860.00,4.0169
859.00,4.0114
858.00,4.0431
857.00,4.1664
856.00,4.5574
855.00,4.7042
854.00,4.1455
853.00,3.9401
852.00,3.8932
851.00,4.0263
850.00,4.5395
849.00,4.4746
848.00,4.1315
847.00,4.0935
846.00,4.1161
845.00,4.1317
844.00,4.1848
843.00,4.3396
842.00,4.5087
841.00,4.4407
840.00,4.3838
839.00,4.3859
838.00,4.2879
837.00,4.2055
836.00,4.2405
835.00,4.2883
834.00,4.1345
833.00,3.9786
832.00,3.9387
831.00,3.9832
830.00,4.0852
829.00,4.1958
828.00,4.1975
827.00,4.0998
826.00,4.0274
825.00,4.0069
824.00,4.0315
823.00,4.0992
822.00,4.2672
821.00,4.5272
820.00,4.6235
819.00,4.4324
818.00,4.1037
817.00,3.9817
816.00,4.0155
815.00,4.2449
814.00,4.8845
813.00,4.4987
812.00,4.2901
811.00,4.3576
810.00,4.3290
809.00,4.3057
808.00,4.3020
807.00,4.0994
806.00,3.9226
805.00,3.8966
804.00,3.9749
803.00,4.1111
802.00,4.4346
801.00,4.6321
800.00,4.2214
799.00,4.0497
798.00,3.9233
797.00,3.8403
796.00,3.8583
795.00,3.9811
794.00,4.1886
793.00,4.2136
792.00,4.0819
791.00,3.9973
790.00,4.0064
789.00,4.0783
788.00,4.0990
787.00,4.1222
786.00,4.2430
785.00,4.3790
784.00,4.3700
783.00,4.2292
782.00,4.0881
781.00,4.0092
780.00,3.9565
779.00,3.8886
778.00,3.8533
777.00,3.8861
776.00,3.9751
775.00,4.0979
774.00,4.2131
773.00,4.2796
772.00,4.3054
771.00,4.2855
770.00,4.2833
769.00,4.2569
768.00,4.1596
767.00,4.1442
766.00,4.1638
765.00,4.1471
764.00,4.1702
763.00,4.1657
762.00,4.0385
761.00,3.9271
760.00,3.9533
759.00,4.1755
758.00,4.7238
757.00,4.6611
756.00,4.2490
755.00,4.0794
754.00,4.1951
753.00,4.8333
752.00,4.5277
751.00,4.5811
750.00,4.7115
749.00,4.6073
748.00,5.1133
747.00,4.2618
746.00,4.0323
745.00,3.9790
744.00,3.9257
743.00,3.9027
742.00,3.8923
741.00,3.9588
740.00,4.0288
739.00,4.0148
738.00,4.0045
737.00,4.0762
736.00,4.1599
735.00,4.1527
734.00,4.1119
733.00,4.0986
732.00,4.0368
731.00,3.9320
730.00,3.9177
729.00,4.0357
728.00,4.3504
727.00,4.7026
726.00,4.3470
725.00,4.1552
724.00,4.1094
723.00,4.1203
722.00,4.2378
721.00,4.3335
720.00,4.2524
719.00,4.2153
718.00,4.2142
717.00,4.1388
716.00,4.0908
715.00,4.1553
714.00,4.3253
713.00,4.6665
712.00,4.8268
711.00,4.3209
710.00,4.0283
709.00,3.9197
708.00,3.9307
707.00,4.1155
706.00,4.6572
705.00,4.5207
704.00,4.1886
703.00,4.1435
702.00,4.3309
701.00,4.8033
700.00,4.5571
