Created as New Dataset,Sample 094 By Administrator Date Wednesday, November 24 2021
cm-1,A
7502.00,1.0600
7501.00,1.0491
7500.00,1.0384
7499.00,1.0280
7498.00,1.0178
7497.00,1.0079
7496.00,0.9982
7495.00,0.9888
7494.00,0.9803
7493.00,0.9733
7492.00,0.9686
7491.00,0.9654
7490.00,0.9626
7489.00,0.9588
7488.00,0.9538
7487.00,0.9475
7486.00,0.9396
7485.00,0.9296
7484.00,0.9179
7483.00,0.9060
7482.00,0.8954
7481.00,0.8866
7480.00,0.8791
7479.00,0.8720
7478.00,0.8651
7477.00,0.8585
7476.00,0.8523
7475.00,0.8466
7474.00,0.8409
7473.00,0.8349
7472.00,0.8288
7471.00,0.8227
7470.00,0.8166
7469.00,0.8105
7468.00,0.8044
7467.00,0.7987
7466.00,0.7935
7465.00,0.7887
7464.00,0.7841
7463.00,0.7796
7462.00,0.7756
7461.00,0.7722
7460.00,0.7691
7459.00,0.7661
7458.00,0.7636
7457.00,0.7623
7456.00,0.7623
7455.00,0.7633
7454.00,0.7647
7453.00,0.7664
7452.00,0.7684
7451.00,0.7709
7450.00,0.7738
7449.00,0.7772
7448.00,0.7809
7447.00,0.7851
7446.00,0.7898
7445.00,0.7951
7444.00,0.8008
7443.00,0.8065
7442.00,0.8121
7441.00,0.8178
7440.00,0.8238
7439.00,0.8305
7438.00,0.8379
7437.00,0.8460
7436.00,0.8546
7435.00,0.8637
7434.00,0.8729
7433.00,0.8819
7432.00,0.8908
7431.00,0.8998
7430.00,0.9089
7429.00,0.9177
7428.00,0.9264
7427.00,0.9352
7426.00,0.9448
7425.00,0.9553
7424.00,0.9660
7423.00,0.9759
7422.00,0.9850
7421.00,0.9942
7420.00,1.0039
7419.00,1.0136
7418.00,1.0223
7417.00,1.0299
7416.00,1.0372
7415.00,1.0451
7414.00,1.0538
7413.00,1.0628
7412.00,1.0713
7411.00,1.0793
7410.00,1.0868
7409.00,1.0940
7408.00,1.1010
7407.00,1.1079
7406.00,1.1144
7405.00,1.1209
7404.00,1.1273
7403.00,1.1339
7402.00,1.1406
7401.00,1.1470
7400.00,1.1527
7399.00,1.1570
7398.00,1.1602
7397.00,1.1630
7396.00,1.1659
7395.00,1.1689
7394.00,1.1719
7393.00,1.1747
7392.00,1.1776
7391.00,1.1803
7390.00,1.1822
7389.00,1.1829
7388.00,1.1827
7387.00,1.1822
7386.00,1.1817
7385.00,1.1813
7384.00,1.1811
7383.00,1.1809
7382.00,1.1802
7381.00,1.1791
7380.00,1.1778
7379.00,1.1763
7378.00,1.1743
7377.00,1.1712
7376.00,1.1673
7375.00,1.1633
7374.00,1.1594
7373.00,1.1553
7372.00,1.1503
7371.00,1.1443
7370.00,1.1378
7369.00,1.1312
7368.00,1.1246
7367.00,1.1174
7366.00,1.1096
7365.00,1.1013
7364.00,1.0930
7363.00,1.0850
7362.00,1.0771
7361.00,1.0693
7360.00,1.0615
7359.00,1.0534
7358.00,1.0446
7357.00,1.0350
7356.00,1.0252
7355.00,1.0158
7354.00,1.0066
7353.00,0.9970
7352.00,0.9869
7351.00,0.9766
7350.00,0.9665
7349.00,0.9566
7348.00,0.9464
7347.00,0.9358
7346.00,0.9248
7345.00,0.9139
7344.00,0.9035
7343.00,0.8940
7342.00,0.8850
7341.00,0.8762
7340.00,0.8676
7339.00,0.8591
7338.00,0.8509
7337.00,0.8428
7336.00,0.8349
7335.00,0.8275
7334.00,0.8208
7333.00,0.8148
7332.00,0.8093
7331.00,0.8043
7330.00,0.7998
7329.00,0.7959
7328.00,0.7925
7327.00,0.7896
7326.00,0.7872
7325.00,0.7854
7324.00,0.7841
7323.00,0.7831
7322.00,0.7824
7321.00,0.7822
7320.00,0.7825
7319.00,0.7834
7318.00,0.7848
7317.00,0.7867
7316.00,0.7894
7315.00,0.7927
7314.00,0.7966
7313.00,0.8010
7312.00,0.8058
7311.00,0.8108
7310.00,0.8161
7309.00,0.8217
7308.00,0.8278
7307.00,0.8346
7306.00,0.8422
7305.00,0.8505
7304.00,0.8590
7303.00,0.8675
7302.00,0.8756
7301.00,0.8837
7300.00,0.8920
7299.00,0.9004
7298.00,0.9086
7297.00,0.9164
7296.00,0.9241
7295.00,0.9326
7294.00,0.9418
7293.00,0.9513
7292.00,0.9604
7291.00,0.9690
7290.00,0.9771
7289.00,0.9852
7288.00,0.9931
7287.00,1.0013
7286.00,1.0096
7285.00,1.0179
7284.00,1.0260
7283.00,1.0340
7282.00,1.0419
7281.00,1.0497
7280.00,1.0571
7279.00,1.0638
7278.00,1.0700
7277.00,1.0761
7276.00,1.0826
7275.00,1.0890
7274.00,1.0949
7273.00,1.1003
7272.00,1.1055
7271.00,1.1105
7270.00,1.1154
7269.00,1.1199
7268.00,1.1239
7267.00,1.1273
7266.00,1.1305
7265.00,1.1337
7264.00,1.1367
7263.00,1.1394
7262.00,1.1420
7261.00,1.1448
7260.00,1.1479
7259.00,1.1514
7258.00,1.1549
7257.00,1.1575
7256.00,1.1587
7255.00,1.1583
7254.00,1.1568
7253.00,1.1548
7252.00,1.1525
7251.00,1.1498
7250.00,1.1469
7249.00,1.1444
7248.00,1.1423
7247.00,1.1403
7246.00,1.1378
7245.00,1.1350
7244.00,1.1320
7243.00,1.1295
7242.00,1.1277
7241.00,1.1263
7240.00,1.1246
7239.00,1.1217
7238.00,1.1178
7237.00,1.1130
7236.00,1.1074
7235.00,1.1009
7234.00,1.0935
7233.00,1.0857
7232.00,1.0778
7231.00,1.0702
7230.00,1.0628
7229.00,1.0553
7228.00,1.0476
7227.00,1.0396
7226.00,1.0312
7225.00,1.0227
7224.00,1.0143
7223.00,1.0063
7222.00,0.9981
7221.00,0.9895
7220.00,0.9804
7219.00,0.9709
7218.00,0.9612
7217.00,0.9511
7216.00,0.9407
7215.00,0.9303
7214.00,0.9201
7213.00,0.9103
7212.00,0.9009
7211.00,0.8918
7210.00,0.8829
7209.00,0.8741
7208.00,0.8655
7207.00,0.8572
7206.00,0.8492
7205.00,0.8414
7204.00,0.8338
7203.00,0.8263
7202.00,0.8192
7201.00,0.8127
7200.00,0.8068
7199.00,0.8012
7198.00,0.7961
7197.00,0.7917
7196.00,0.7880
7195.00,0.7848
7194.00,0.7817
7193.00,0.7789
7192.00,0.7768
7191.00,0.7754
7190.00,0.7746
7189.00,0.7744
7188.00,0.7747
7187.00,0.7757
7186.00,0.7774
7185.00,0.7798
7184.00,0.7827
7183.00,0.7861
7182.00,0.7901
7181.00,0.7948
7180.00,0.7998
7179.00,0.8050
7178.00,0.8103
7177.00,0.8161
7176.00,0.8226
7175.00,0.8299
7174.00,0.8377
7173.00,0.8455
7172.00,0.8533
7171.00,0.8611
7170.00,0.8693
7169.00,0.8780
7168.00,0.8869
7167.00,0.8956
7166.00,0.9043
7165.00,0.9132
7164.00,0.9225
7163.00,0.9320
7162.00,0.9415
7161.00,0.9509
7160.00,0.9603
7159.00,0.9698
7158.00,0.9794
7157.00,0.9889
7156.00,0.9982
7155.00,1.0073
7154.00,1.0162
7153.00,1.0254
7152.00,1.0348
7151.00,1.0442
7150.00,1.0533
7149.00,1.0622
7148.00,1.0708
7147.00,1.0795
7146.00,1.0882
7145.00,1.0965
7144.00,1.1044
7143.00,1.1118
7142.00,1.1187
7141.00,1.1254
7140.00,1.1318
7139.00,1.1382
7138.00,1.1444
7137.00,1.1501
7136.00,1.1555
7135.00,1.1610
7134.00,1.1668
7133.00,1.1725
7132.00,1.1775
7131.00,1.1817
7130.00,1.1852
7129.00,1.1884
7128.00,1.1913
7127.00,1.1936
7126.00,1.1955
7125.00,1.1970
7124.00,1.1985
7123.00,1.1998
7122.00,1.2006
7121.00,1.2011
7120.00,1.2011
7119.00,1.2007
7118.00,1.2003
7117.00,1.2001
7116.00,1.1996
7115.00,1.1982
7114.00,1.1956
7113.00,1.1922
7112.00,1.1886
7111.00,1.1849
7110.00,1.1807
7109.00,1.1758
7108.00,1.1706
7107.00,1.1657
7106.00,1.1611
7105.00,1.1563
7104.00,1.1511
7103.00,1.1453
7102.00,1.1388
7101.00,1.1319
7100.00,1.1247
7099.00,1.1172
7098.00,1.1093
7097.00,1.1010
7096.00,1.0926
7095.00,1.0842
7094.00,1.0758
7093.00,1.0672
7092.00,1.0583
7091.00,1.0488
7090.00,1.0386
7089.00,1.0280
7088.00,1.0171
7087.00,1.0063
7086.00,0.9955
7085.00,0.9846
7084.00,0.9738
7083.00,0.9631
7082.00,0.9524
7081.00,0.9417
7080.00,0.9312
7079.00,0.9212
7078.00,0.9115
7077.00,0.9017
7076.00,0.8915
7075.00,0.8815
7074.00,0.8721
7073.00,0.8631
7072.00,0.8543
7071.00,0.8457
7070.00,0.8377
7069.00,0.8306
7068.00,0.8240
7067.00,0.8177
7066.00,0.8115
7065.00,0.8056
7064.00,0.8003
7063.00,0.7957
7062.00,0.7917
7061.00,0.7886
7060.00,0.7862
7059.00,0.7844
7058.00,0.7831
7057.00,0.7821
7056.00,0.7815
7055.00,0.7815
7054.00,0.7822
7053.00,0.7835
7052.00,0.7854
7051.00,0.7879
7050.00,0.7910
7049.00,0.7947
7048.00,0.7992
7047.00,0.8044
7046.00,0.8102
7045.00,0.8164
7044.00,0.8227
7043.00,0.8291
7042.00,0.8359
7041.00,0.8431
7040.00,0.8505
7039.00,0.8577
7038.00,0.8649
7037.00,0.8727
7036.00,0.8811
7035.00,0.8901
7034.00,0.8992
7033.00,0.9085
7032.00,0.9180
7031.00,0.9278
7030.00,0.9376
7029.00,0.9475
7028.00,0.9573
7027.00,0.9669
7026.00,0.9763
7025.00,0.9856
7024.00,0.9951
7023.00,1.0047
7022.00,1.0143
7021.00,1.0235
7020.00,1.0324
7019.00,1.0413
7018.00,1.0503
7017.00,1.0592
7016.00,1.0676
7015.00,1.0755
7014.00,1.0834
7013.00,1.0915
7012.00,1.0995
7011.00,1.1068
7010.00,1.1134
7009.00,1.1200
7008.00,1.1268
7007.00,1.1337
7006.00,1.1402
7005.00,1.1462
7004.00,1.1518
7003.00,1.1574
7002.00,1.1629
7001.00,1.1681
7000.00,1.1725
6999.00,1.1761
6998.00,1.1794
6997.00,1.1828
6996.00,1.1861
6995.00,1.1890
6994.00,1.1913
6993.00,1.1936
6992.00,1.1959
6991.00,1.1979
6990.00,1.1990
6989.00,1.1992
6988.00,1.1989
6987.00,1.1984
6986.00,1.1974
6985.00,1.1955
6984.00,1.1928
6983.00,1.1900
6982.00,1.1875
6981.00,1.1852
6980.00,1.1824
6979.00,1.1789
6978.00,1.1749
6977.00,1.1710
6976.00,1.1673
6975.00,1.1631
6974.00,1.1582
6973.00,1.1527
6972.00,1.1469
6971.00,1.1414
6970.00,1.1359
6969.00,1.1299
6968.00,1.1231
6967.00,1.1159
6966.00,1.1084
6965.00,1.1007
6964.00,1.0923
6963.00,1.0831
6962.00,1.0736
6961.00,1.0642
6960.00,1.0547
6959.00,1.0449
6958.00,1.0348
6957.00,1.0247
6956.00,1.0146
6955.00,1.0043
6954.00,0.9937
6953.00,0.9833
6952.00,0.9732
6951.00,0.9633
6950.00,0.9535
6949.00,0.9436
6948.00,0.9335
6947.00,0.9232
6946.00,0.9128
6945.00,0.9025
6944.00,0.8923
6943.00,0.8821
6942.00,0.8722
6941.00,0.8627
6940.00,0.8537
6939.00,0.8450
6938.00,0.8367
6937.00,0.8287
6936.00,0.8212
6935.00,0.8145
6934.00,0.8082
6933.00,0.8024
6932.00,0.7969
6931.00,0.7919
6930.00,0.7876
6929.00,0.7839
6928.00,0.7806
6927.00,0.7778
6926.00,0.7755
6925.00,0.7740
6924.00,0.7733
6923.00,0.7732
6922.00,0.7735
6921.00,0.7745
6920.00,0.7762
6919.00,0.7786
6918.00,0.7815
6917.00,0.7848
6916.00,0.7884
6915.00,0.7924
6914.00,0.7970
6913.00,0.8021
6912.00,0.8077
6911.00,0.8139
6910.00,0.8209
6909.00,0.8286
6908.00,0.8367
6907.00,0.8449
6906.00,0.8532
6905.00,0.8619
6904.00,0.8707
6903.00,0.8795
6902.00,0.8882
6901.00,0.8971
6900.00,0.9066
6899.00,0.9164
6898.00,0.9263
6897.00,0.9365
6896.00,0.9467
6895.00,0.9571
6894.00,0.9675
6893.00,0.9777
6892.00,0.9877
6891.00,0.9976
6890.00,1.0076
6889.00,1.0177
6888.00,1.0279
6887.00,1.0377
6886.00,1.0469
6885.00,1.0559
6884.00,1.0647
6883.00,1.0735
6882.00,1.0822
6881.00,1.0910
6880.00,1.0997
6879.00,1.1080
6878.00,1.1159
6877.00,1.1235
6876.00,1.1307
6875.00,1.1374
6874.00,1.1436
6873.00,1.1502
6872.00,1.1574
6871.00,1.1649
6870.00,1.1716
6869.00,1.1774
6868.00,1.1826
6867.00,1.1873
6866.00,1.1916
6865.00,1.1953
6864.00,1.1985
6863.00,1.2018
6862.00,1.2050
6861.00,1.2083
6860.00,1.2113
6859.00,1.2141
6858.00,1.2163
6857.00,1.2177
6856.00,1.2185
6855.00,1.2187
6854.00,1.2184
6853.00,1.2174
6852.00,1.2157
6851.00,1.2139
6850.00,1.2123
6849.00,1.2108
6848.00,1.2091
6847.00,1.2070
6846.00,1.2046
6845.00,1.2016
6844.00,1.1978
6843.00,1.1934
6842.00,1.1885
6841.00,1.1835
6840.00,1.1780
6839.00,1.1722
6838.00,1.1662
6837.00,1.1599
6836.00,1.1529
6835.00,1.1452
6834.00,1.1370
6833.00,1.1286
6832.00,1.1203
6831.00,1.1117
6830.00,1.1029
6829.00,1.0938
6828.00,1.0843
6827.00,1.0747
6826.00,1.0649
6825.00,1.0549
6824.00,1.0442
6823.00,1.0329
6822.00,1.0215
6821.00,1.0106
6820.00,1.0000
6819.00,0.9892
6818.00,0.9784
6817.00,0.9676
6816.00,0.9570
6815.00,0.9462
6814.00,0.9352
6813.00,0.9243
6812.00,0.9137
6811.00,0.9033
6810.00,0.8929
6809.00,0.8826
6808.00,0.8726
6807.00,0.8631
6806.00,0.8539
6805.00,0.8450
6804.00,0.8366
6803.00,0.8287
6802.00,0.8213
6801.00,0.8143
6800.00,0.8077
6799.00,0.8016
6798.00,0.7961
6797.00,0.7913
6796.00,0.7872
6795.00,0.7837
6794.00,0.7809
6793.00,0.7788
6792.00,0.7772
6791.00,0.7760
6790.00,0.7755
6789.00,0.7758
6788.00,0.7768
6787.00,0.7785
6786.00,0.7808
6785.00,0.7837
6784.00,0.7873
6783.00,0.7912
6782.00,0.7957
6781.00,0.8006
6780.00,0.8060
6779.00,0.8119
6778.00,0.8184
6777.00,0.8255
6776.00,0.8329
6775.00,0.8406
6774.00,0.8487
6773.00,0.8573
6772.00,0.8661
6771.00,0.8750
6770.00,0.8840
6769.00,0.8932
6768.00,0.9027
6767.00,0.9123
6766.00,0.9221
6765.00,0.9321
6764.00,0.9422
6763.00,0.9522
6762.00,0.9620
6761.00,0.9721
6760.00,0.9825
6759.00,0.9928
6758.00,1.0030
6757.00,1.0131
6756.00,1.0233
6755.00,1.0333
6754.00,1.0430
6753.00,1.0522
6752.00,1.0612
6751.00,1.0702
6750.00,1.0792
6749.00,1.0882
6748.00,1.0968
6747.00,1.1050
6746.00,1.1130
6745.00,1.1209
6744.00,1.1286
6743.00,1.1359
6742.00,1.1430
6741.00,1.1499
6740.00,1.1565
6739.00,1.1623
6738.00,1.1672
6737.00,1.1719
6736.00,1.1768
6735.00,1.1817
6734.00,1.1860
6733.00,1.1899
6732.00,1.1935
6731.00,1.1969
6730.00,1.1997
6729.00,1.2022
6728.00,1.2046
6727.00,1.2068
6726.00,1.2087
6725.00,1.2101
6724.00,1.2113
6723.00,1.2119
6722.00,1.2117
6721.00,1.2109
6720.00,1.2099
6719.00,1.2087
6718.00,1.2072
6717.00,1.2050
6716.00,1.2023
6715.00,1.1993
6714.00,1.1961
6713.00,1.1925
6712.00,1.1884
6711.00,1.1837
6710.00,1.1786
6709.00,1.1732
6708.00,1.1677
6707.00,1.1620
6706.00,1.1561
6705.00,1.1502
6704.00,1.1443
6703.00,1.1381
6702.00,1.1313
6701.00,1.1239
6700.00,1.1160
6699.00,1.1077
6698.00,1.0990
6697.00,1.0901
6696.00,1.0810
6695.00,1.0719
6694.00,1.0624
6693.00,1.0526
6692.00,1.0423
6691.00,1.0319
6690.00,1.0213
6689.00,1.0106
6688.00,0.9996
6687.00,0.9882
6686.00,0.9769
6685.00,0.9659
6684.00,0.9552
6683.00,0.9444
6682.00,0.9336
6681.00,0.9227
6680.00,0.9119
6679.00,0.9014
6678.00,0.8910
6677.00,0.8808
6676.00,0.8708
6675.00,0.8610
6674.00,0.8517
6673.00,0.8430
6672.00,0.8346
6671.00,0.8263
6670.00,0.8182
6669.00,0.8106
6668.00,0.8037
6667.00,0.7975
6666.00,0.7917
6665.00,0.7864
6664.00,0.7817
6663.00,0.7775
6662.00,0.7739
6661.00,0.7709
6660.00,0.7685
6659.00,0.7668
6658.00,0.7658
6657.00,0.7657
6656.00,0.7664
6655.00,0.7677
6654.00,0.7697
6653.00,0.7721
6652.00,0.7753
6651.00,0.7790
6650.00,0.7833
6649.00,0.7882
6648.00,0.7936
6647.00,0.7995
6646.00,0.8059
6645.00,0.8128
6644.00,0.8201
6643.00,0.8278
6642.00,0.8360
6641.00,0.8447
6640.00,0.8537
6639.00,0.8630
6638.00,0.8725
6637.00,0.8821
6636.00,0.8919
6635.00,0.9018
6634.00,0.9117
6633.00,0.9218
6632.00,0.9322
6631.00,0.9426
6630.00,0.9531
6629.00,0.9637
6628.00,0.9743
6627.00,0.9850
6626.00,0.9956
6625.00,1.0061
6624.00,1.0167
6623.00,1.0274
6622.00,1.0380
6621.00,1.0484
6620.00,1.0585
6619.00,1.0685
6618.00,1.0784
6617.00,1.0882
6616.00,1.0976
6615.00,1.1065
6614.00,1.1149
6613.00,1.1230
6612.00,1.1309
6611.00,1.1387
6610.00,1.1463
6609.00,1.1536
6608.00,1.1607
6607.00,1.1680
6606.00,1.1753
6605.00,1.1822
6604.00,1.1886
6603.00,1.1945
6602.00,1.2000
6601.00,1.2052
6600.00,1.2098
6599.00,1.2137
6598.00,1.2173
6597.00,1.2209
6596.00,1.2245
6595.00,1.2280
6594.00,1.2308
6593.00,1.2331
6592.00,1.2348
6591.00,1.2361
6590.00,1.2370
6589.00,1.2373
6588.00,1.2373
6587.00,1.2371
6586.00,1.2367
6585.00,1.2358
6584.00,1.2343
6583.00,1.2322
6582.00,1.2297
6581.00,1.2271
6580.00,1.2241
6579.00,1.2207
6578.00,1.2165
6577.00,1.2119
6576.00,1.2069
6575.00,1.2017
6574.00,1.1958
6573.00,1.1894
6572.00,1.1826
6571.00,1.1756
6570.00,1.1687
6569.00,1.1617
6568.00,1.1546
6567.00,1.1471
6566.00,1.1391
6565.00,1.1304
6564.00,1.1211
6563.00,1.1112
6562.00,1.1009
6561.00,1.0903
6560.00,1.0800
6559.00,1.0698
6558.00,1.0593
6557.00,1.0481
6556.00,1.0364
6555.00,1.0244
6554.00,1.0124
6553.00,1.0003
6552.00,0.9883
6551.00,0.9764
6550.00,0.9646
6549.00,0.9528
6548.00,0.9412
6547.00,0.9295
6546.00,0.9181
6545.00,0.9071
6544.00,0.8964
6543.00,0.8861
6542.00,0.8759
6541.00,0.8658
6540.00,0.8559
6539.00,0.8462
6538.00,0.8369
6537.00,0.8281
6536.00,0.8199
6535.00,0.8124
6534.00,0.8055
6533.00,0.7992
6532.00,0.7935
6531.00,0.7884
6530.00,0.7839
6529.00,0.7800
6528.00,0.7767
6527.00,0.7740
6526.00,0.7722
6525.00,0.7712
6524.00,0.7710
6523.00,0.7714
6522.00,0.7725
6521.00,0.7744
6520.00,0.7769
6519.00,0.7799
6518.00,0.7836
6517.00,0.7879
6516.00,0.7929
6515.00,0.7984
6514.00,0.8046
6513.00,0.8112
6512.00,0.8183
6511.00,0.8258
6510.00,0.8336
6509.00,0.8418
6508.00,0.8504
6507.00,0.8592
6506.00,0.8682
6505.00,0.8775
6504.00,0.8872
6503.00,0.8972
6502.00,0.9074
6501.00,0.9178
6500.00,0.9283
6499.00,0.9390
6498.00,0.9496
6497.00,0.9604
6496.00,0.9712
6495.00,0.9820
6494.00,0.9929
6493.00,1.0037
6492.00,1.0144
6491.00,1.0248
6490.00,1.0351
6489.00,1.0453
6488.00,1.0551
6487.00,1.0647
6486.00,1.0743
6485.00,1.0840
6484.00,1.0937
6483.00,1.1033
6482.00,1.1124
6481.00,1.1212
6480.00,1.1296
6479.00,1.1378
6478.00,1.1458
6477.00,1.1533
6476.00,1.1603
6475.00,1.1669
6474.00,1.1733
6473.00,1.1793
6472.00,1.1849
6471.00,1.1899
6470.00,1.1946
6469.00,1.1992
6468.00,1.2037
6467.00,1.2081
6466.00,1.2119
6465.00,1.2153
6464.00,1.2182
6463.00,1.2208
6462.00,1.2231
6461.00,1.2253
6460.00,1.2272
6459.00,1.2285
6458.00,1.2290
6457.00,1.2292
6456.00,1.2292
6455.00,1.2289
6454.00,1.2282
6453.00,1.2269
6452.00,1.2256
6451.00,1.2241
6450.00,1.2224
6449.00,1.2199
6448.00,1.2168
6447.00,1.2133
6446.00,1.2094
6445.00,1.2051
6444.00,1.2002
6443.00,1.1946
6442.00,1.1887
6441.00,1.1824
6440.00,1.1761
6439.00,1.1697
6438.00,1.1631
6437.00,1.1562
6436.00,1.1490
6435.00,1.1416
6434.00,1.1339
6433.00,1.1257
6432.00,1.1168
6431.00,1.1078
6430.00,1.0987
6429.00,1.0892
6428.00,1.0793
6427.00,1.0689
6426.00,1.0584
6425.00,1.0478
6424.00,1.0370
6423.00,1.0260
6422.00,1.0148
6421.00,1.0034
6420.00,0.9919
6419.00,0.9803
6418.00,0.9688
6417.00,0.9572
6416.00,0.9458
6415.00,0.9343
6414.00,0.9229
6413.00,0.9116
6412.00,0.9004
6411.00,0.8893
6410.00,0.8782
6409.00,0.8676
6408.00,0.8574
6407.00,0.8475
6406.00,0.8381
6405.00,0.8292
6404.00,0.8207
6403.00,0.8126
6402.00,0.8049
6401.00,0.7977
6400.00,0.7913
6399.00,0.7855
6398.00,0.7804
6397.00,0.7760
6396.00,0.7722
6395.00,0.7691
6394.00,0.7667
6393.00,0.7650
6392.00,0.7641
6391.00,0.7639
6390.00,0.7645
6389.00,0.7660
6388.00,0.7683
6387.00,0.7711
6386.00,0.7744
6385.00,0.7784
6384.00,0.7831
6383.00,0.7882
6382.00,0.7938
6381.00,0.8001
6380.00,0.8070
6379.00,0.8144
6378.00,0.8223
6377.00,0.8308
6376.00,0.8397
6375.00,0.8489
6374.00,0.8583
6373.00,0.8680
6372.00,0.8779
6371.00,0.8883
6370.00,0.8990
6369.00,0.9099
6368.00,0.9209
6367.00,0.9319
6366.00,0.9428
6365.00,0.9537
6364.00,0.9647
6363.00,0.9757
6362.00,0.9867
6361.00,0.9980
6360.00,1.0094
6359.00,1.0207
6358.00,1.0318
6357.00,1.0429
6356.00,1.0541
6355.00,1.0652
6354.00,1.0761
6353.00,1.0868
6352.00,1.0973
6351.00,1.1075
6350.00,1.1172
6349.00,1.1268
6348.00,1.1361
6347.00,1.1452
6346.00,1.1538
6345.00,1.1620
6344.00,1.1697
6343.00,1.1771
6342.00,1.1842
6341.00,1.1913
6340.00,1.1984
6339.00,1.2054
6338.00,1.2120
6337.00,1.2178
6336.00,1.2232
6335.00,1.2280
6334.00,1.2322
6333.00,1.2359
6332.00,1.2393
6331.00,1.2426
6330.00,1.2460
6329.00,1.2493
6328.00,1.2523
6327.00,1.2549
6326.00,1.2571
6325.00,1.2588
6324.00,1.2599
6323.00,1.2602
6322.00,1.2597
6321.00,1.2589
6320.00,1.2580
6319.00,1.2571
6318.00,1.2560
6317.00,1.2543
6316.00,1.2520
6315.00,1.2490
6314.00,1.2456
6313.00,1.2416
6312.00,1.2372
6311.00,1.2323
6310.00,1.2272
6309.00,1.2219
6308.00,1.2161
6307.00,1.2098
6306.00,1.2030
6305.00,1.1963
6304.00,1.1894
6303.00,1.1822
6302.00,1.1744
6301.00,1.1661
6300.00,1.1576
6299.00,1.1487
6298.00,1.1390
6297.00,1.1287
6296.00,1.1179
6295.00,1.1069
6294.00,1.0956
6293.00,1.0839
6292.00,1.0722
6291.00,1.0604
6290.00,1.0486
6289.00,1.0366
6288.00,1.0243
6287.00,1.0118
6286.00,0.9992
6285.00,0.9865
6284.00,0.9739
6283.00,0.9615
6282.00,0.9491
6281.00,0.9369
6280.00,0.9246
6279.00,0.9124
6278.00,0.9004
6277.00,0.8887
6276.00,0.8771
6275.00,0.8660
6274.00,0.8553
6273.00,0.8451
6272.00,0.8354
6271.00,0.8262
6270.00,0.8176
6269.00,0.8096
6268.00,0.8024
6267.00,0.7959
6266.00,0.7900
6265.00,0.7848
6264.00,0.7801
6263.00,0.7758
6262.00,0.7723
6261.00,0.7694
6260.00,0.7675
6259.00,0.7664
6258.00,0.7662
6257.00,0.7668
6256.00,0.7681
6255.00,0.7699
6254.00,0.7724
6253.00,0.7757
6252.00,0.7797
6251.00,0.7843
6250.00,0.7897
6249.00,0.7959
6248.00,0.8026
6247.00,0.8097
6246.00,0.8171
6245.00,0.8250
6244.00,0.8336
6243.00,0.8427
6242.00,0.8523
6241.00,0.8621
6240.00,0.8721
6239.00,0.8823
6238.00,0.8928
6237.00,0.9034
6236.00,0.9140
6235.00,0.9249
6234.00,0.9360
6233.00,0.9475
6232.00,0.9590
6231.00,0.9704
6230.00,0.9817
6229.00,0.9930
6228.00,1.0043
6227.00,1.0155
6226.00,1.0266
6225.00,1.0375
6224.00,1.0482
6223.00,1.0588
6222.00,1.0692
6221.00,1.0797
6220.00,1.0901
6219.00,1.1004
6218.00,1.1103
6217.00,1.1198
6216.00,1.1289
6215.00,1.1377
6214.00,1.1460
6213.00,1.1541
6212.00,1.1622
6211.00,1.1703
6210.00,1.1782
6209.00,1.1857
6208.00,1.1928
6207.00,1.1992
6206.00,1.2051
6205.00,1.2104
6204.00,1.2154
6203.00,1.2201
6202.00,1.2246
6201.00,1.2286
6200.00,1.2324
6199.00,1.2360
6198.00,1.2392
6197.00,1.2419
6196.00,1.2442
6195.00,1.2463
6194.00,1.2480
6193.00,1.2491
6192.00,1.2494
6191.00,1.2493
6190.00,1.2490
6189.00,1.2485
6188.00,1.2477
6187.00,1.2465
6186.00,1.2451
6185.00,1.2436
6184.00,1.2417
6183.00,1.2395
6182.00,1.2368
6181.00,1.2339
6180.00,1.2306
6179.00,1.2268
6178.00,1.2227
6177.00,1.2184
6176.00,1.2137
6175.00,1.2084
6174.00,1.2027
6173.00,1.1964
6172.00,1.1897
6171.00,1.1824
6170.00,1.1748
6169.00,1.1671
6168.00,1.1593
6167.00,1.1511
6166.00,1.1422
6165.00,1.1326
6164.00,1.1225
6163.00,1.1120
6162.00,1.1013
6161.00,1.0904
6160.00,1.0795
6159.00,1.0684
6158.00,1.0569
6157.00,1.0451
6156.00,1.0330
6155.00,1.0209
6154.00,1.0087
6153.00,0.9965
6152.00,0.9841
6151.00,0.9715
6150.00,0.9587
6149.00,0.9458
6148.00,0.9330
6147.00,0.9204
6146.00,0.9082
6145.00,0.8964
6144.00,0.8848
6143.00,0.8736
6142.00,0.8627
6141.00,0.8522
6140.00,0.8420
6139.00,0.8322
6138.00,0.8230
6137.00,0.8144
6136.00,0.8064
6135.00,0.7988
6134.00,0.7918
6133.00,0.7854
6132.00,0.7797
6131.00,0.7747
6130.00,0.7705
6129.00,0.7671
6128.00,0.7645
6127.00,0.7629
6126.00,0.7622
6125.00,0.7622
6124.00,0.7630
6123.00,0.7645
6122.00,0.7668
6121.00,0.7698
6120.00,0.7735
6119.00,0.7779
6118.00,0.7830
6117.00,0.7889
6116.00,0.7953
6115.00,0.8024
6114.00,0.8099
6113.00,0.8179
6112.00,0.8263
6111.00,0.8354
6110.00,0.8449
6109.00,0.8549
6108.00,0.8652
6107.00,0.8758
6106.00,0.8867
6105.00,0.8978
6104.00,0.9091
6103.00,0.9204
6102.00,0.9320
6101.00,0.9437
6100.00,0.9557
6099.00,0.9678
6098.00,0.9800
6097.00,0.9922
6096.00,1.0044
6095.00,1.0164
6094.00,1.0282
6093.00,1.0397
6092.00,1.0511
6091.00,1.0624
6090.00,1.0737
6089.00,1.0850
6088.00,1.0963
6087.00,1.1073
6086.00,1.1180
6085.00,1.1283
6084.00,1.1384
6083.00,1.1482
6082.00,1.1578
6081.00,1.1670
6080.00,1.1760
6079.00,1.1848
6078.00,1.1935
6077.00,1.2019
6076.00,1.2098
6075.00,1.2174
6074.00,1.2248
6073.00,1.2317
6072.00,1.2380
6071.00,1.2435
6070.00,1.2486
6069.00,1.2535
6068.00,1.2579
6067.00,1.2616
6066.00,1.2651
6065.00,1.2687
6064.00,1.2725
6063.00,1.2760
6062.00,1.2790
6061.00,1.2813
6060.00,1.2828
6059.00,1.2835
6058.00,1.2834
6057.00,1.2828
6056.00,1.2820
6055.00,1.2813
6054.00,1.2807
6053.00,1.2799
6052.00,1.2788
6051.00,1.2771
6050.00,1.2749
6049.00,1.2721
6048.00,1.2687
6047.00,1.2647
6046.00,1.2602
6045.00,1.2553
6044.00,1.2498
6043.00,1.2437
6042.00,1.2371
6041.00,1.2301
6040.00,1.2229
6039.00,1.2155
6038.00,1.2079
6037.00,1.2001
6036.00,1.1918
6035.00,1.1828
6034.00,1.1732
6033.00,1.1631
6032.00,1.1527
6031.00,1.1421
6030.00,1.1314
6029.00,1.1204
6028.00,1.1091
6027.00,1.0975
6026.00,1.0855
6025.00,1.0731
6024.00,1.0605
6023.00,1.0475
6022.00,1.0343
6021.00,1.0209
6020.00,1.0074
6019.00,0.9939
6018.00,0.9804
6017.00,0.9670
6016.00,0.9536
6015.00,0.9404
6014.00,0.9273
6013.00,0.9145
6012.00,0.9019
6011.00,0.8894
6010.00,0.8772
6009.00,0.8654
6008.00,0.8540
6007.00,0.8430
6006.00,0.8325
6005.00,0.8226
6004.00,0.8134
6003.00,0.8048
6002.00,0.7968
6001.00,0.7895
6000.00,0.7830
5999.00,0.7773
5998.00,0.7724
5997.00,0.7683
5996.00,0.7649
5995.00,0.7623
5994.00,0.7604
5993.00,0.7594
5992.00,0.7591
5991.00,0.7597
5990.00,0.7612
5989.00,0.7637
5988.00,0.7671
5987.00,0.7714
5986.00,0.7763
5985.00,0.7819
5984.00,0.7882
5983.00,0.7949
5982.00,0.8023
5981.00,0.8103
5980.00,0.8191
5979.00,0.8286
5978.00,0.8386
5977.00,0.8489
5976.00,0.8595
5975.00,0.8703
5974.00,0.8812
5973.00,0.8925
5972.00,0.9041
5971.00,0.9160
5970.00,0.9282
5969.00,0.9404
5968.00,0.9528
5967.00,0.9653
5966.00,0.9779
5965.00,0.9905
5964.00,1.0031
5963.00,1.0156
5962.00,1.0280
5961.00,1.0401
5960.00,1.0522
5959.00,1.0643
5958.00,1.0764
5957.00,1.0886
5956.00,1.1006
5955.00,1.1122
5954.00,1.1234
5953.00,1.1343
5952.00,1.1450
5951.00,1.1557
5950.00,1.1665
5949.00,1.1772
5948.00,1.1874
5947.00,1.1970
5946.00,1.2059
5945.00,1.2144
5944.00,1.2226
5943.00,1.2306
5942.00,1.2382
5941.00,1.2455
5940.00,1.2523
5939.00,1.2585
5938.00,1.2642
5937.00,1.2695
5936.00,1.2747
5935.00,1.2798
5934.00,1.2847
5933.00,1.2892
5932.00,1.2930
5931.00,1.2962
5930.00,1.2988
5929.00,1.3011
5928.00,1.3031
5927.00,1.3047
5926.00,1.3060
5925.00,1.3072
5924.00,1.3081
5923.00,1.3087
5922.00,1.3087
5921.00,1.3079
5920.00,1.3063
5919.00,1.3038
5918.00,1.3005
5917.00,1.2970
5916.00,1.2933
5915.00,1.2896
5914.00,1.2858
5913.00,1.2815
5912.00,1.2766
5911.00,1.2710
5910.00,1.2648
5909.00,1.2583
5908.00,1.2516
5907.00,1.2448
5906.00,1.2378
5905.00,1.2303
5904.00,1.2222
5903.00,1.2135
5902.00,1.2044
5901.00,1.1949
5900.00,1.1848
5899.00,1.1743
5898.00,1.1634
5897.00,1.1522
5896.00,1.1406
5895.00,1.1286
5894.00,1.1162
5893.00,1.1038
5892.00,1.0913
5891.00,1.0785
5890.00,1.0654
5889.00,1.0520
5888.00,1.0384
5887.00,1.0245
5886.00,1.0106
5885.00,0.9968
5884.00,0.9832
5883.00,0.9697
5882.00,0.9564
5881.00,0.9434
5880.00,0.9306
5879.00,0.9179
5878.00,0.9055
5877.00,0.8934
5876.00,0.8816
5875.00,0.8704
5874.00,0.8597
5873.00,0.8496
5872.00,0.8401
5871.00,0.8312
5870.00,0.8228
5869.00,0.8151
5868.00,0.8079
5867.00,0.8014
5866.00,0.7957
5865.00,0.7909
5864.00,0.7868
5863.00,0.7837
5862.00,0.7815
5861.00,0.7802
5860.00,0.7796
5859.00,0.7797
5858.00,0.7806
5857.00,0.7822
5856.00,0.7847
5855.00,0.7880
5854.00,0.7922
5853.00,0.7973
5852.00,0.8031
5851.00,0.8094
5850.00,0.8161
5849.00,0.8234
5848.00,0.8312
5847.00,0.8397
5846.00,0.8489
5845.00,0.8587
5844.00,0.8690
5843.00,0.8797
5842.00,0.8907
5841.00,0.9020
5840.00,0.9135
5839.00,0.9252
5838.00,0.9368
5837.00,0.9486
5836.00,0.9606
5835.00,0.9729
5834.00,0.9856
5833.00,0.9985
5832.00,1.0114
5831.00,1.0241
5830.00,1.0365
5829.00,1.0487
5828.00,1.0608
5827.00,1.0728
5826.00,1.0850
5825.00,1.0974
5824.00,1.1096
5823.00,1.1215
5822.00,1.1328
5821.00,1.1436
5820.00,1.1542
5819.00,1.1646
5818.00,1.1747
5817.00,1.1847
5816.00,1.1945
5815.00,1.2042
5814.00,1.2137
5813.00,1.2229
5812.00,1.2315
5811.00,1.2397
5810.00,1.2476
5809.00,1.2551
5808.00,1.2622
5807.00,1.2690
5806.00,1.2757
5805.00,1.2823
5804.00,1.2885
5803.00,1.2941
5802.00,1.2990
5801.00,1.3032
5800.00,1.3067
5799.00,1.3098
5798.00,1.3126
5797.00,1.3151
5796.00,1.3174
5795.00,1.3193
5794.00,1.3212
5793.00,1.3228
5792.00,1.3240
5791.00,1.3247
5790.00,1.3247
5789.00,1.3239
5788.00,1.3226
5787.00,1.3208
5786.00,1.3189
5785.00,1.3168
5784.00,1.3144
5783.00,1.3115
5782.00,1.3079
5781.00,1.3039
5780.00,1.2994
5779.00,1.2944
5778.00,1.2891
5777.00,1.2834
5776.00,1.2771
5775.00,1.2702
5774.00,1.2628
5773.00,1.2552
5772.00,1.2473
5771.00,1.2390
5770.00,1.2302
5769.00,1.2209
5768.00,1.2111
5767.00,1.2007
5766.00,1.1899
5765.00,1.1788
5764.00,1.1676
5763.00,1.1562
5762.00,1.1444
5761.00,1.1322
5760.00,1.1199
5759.00,1.1075
5758.00,1.0948
5757.00,1.0817
5756.00,1.0681
5755.00,1.0543
5754.00,1.0404
5753.00,1.0265
5752.00,1.0126
5751.00,0.9987
5750.00,0.9848
5749.00,0.9710
5748.00,0.9574
5747.00,0.9438
5746.00,0.9305
5745.00,0.9177
5744.00,0.9051
5743.00,0.8929
5742.00,0.8810
5741.00,0.8695
5740.00,0.8586
5739.00,0.8482
5738.00,0.8385
5737.00,0.8294
5736.00,0.8210
5735.00,0.8131
5734.00,0.8060
5733.00,0.7998
5732.00,0.7943
5731.00,0.7897
5730.00,0.7860
5729.00,0.7831
5728.00,0.7810
5727.00,0.7798
5726.00,0.7794
5725.00,0.7799
5724.00,0.7812
5723.00,0.7834
5722.00,0.7865
5721.00,0.7904
5720.00,0.7951
5719.00,0.8006
5718.00,0.8068
5717.00,0.8137
5716.00,0.8212
5715.00,0.8292
5714.00,0.8377
5713.00,0.8468
5712.00,0.8562
5711.00,0.8663
5710.00,0.8768
5709.00,0.8878
5708.00,0.8992
5707.00,0.9109
5706.00,0.9230
5705.00,0.9353
5704.00,0.9477
5703.00,0.9603
5702.00,0.9730
5701.00,0.9858
5700.00,0.9987
5699.00,1.0115
5698.00,1.0243
5697.00,1.0370
5696.00,1.0496
5695.00,1.0621
5694.00,1.0745
5693.00,1.0868
5692.00,1.0990
5691.00,1.1110
5690.00,1.1230
5689.00,1.1347
5688.00,1.1462
5687.00,1.1574
5686.00,1.1684
5685.00,1.1792
5684.00,1.1898
5683.00,1.2002
5682.00,1.2102
5681.00,1.2200
5680.00,1.2296
5679.00,1.2387
5678.00,1.2474
5677.00,1.2557
5676.00,1.2635
5675.00,1.2709
5674.00,1.2780
5673.00,1.2849
5672.00,1.2914
5671.00,1.2975
5670.00,1.3031
5669.00,1.3082
5668.00,1.3129
5667.00,1.3172
5666.00,1.3210
5665.00,1.3244
5664.00,1.3274
5663.00,1.3301
5662.00,1.3322
5661.00,1.3337
5660.00,1.3350
5659.00,1.3362
5658.00,1.3372
5657.00,1.3374
5656.00,1.3370
5655.00,1.3361
5654.00,1.3347
5653.00,1.3329
5652.00,1.3307
5651.00,1.3281
5650.00,1.3253
5649.00,1.3220
5648.00,1.3181
5647.00,1.3136
5646.00,1.3090
5645.00,1.3042
5644.00,1.2991
5643.00,1.2935
5642.00,1.2873
5641.00,1.2804
5640.00,1.2728
5639.00,1.2643
5638.00,1.2552
5637.00,1.2456
5636.00,1.2357
5635.00,1.2256
5634.00,1.2151
5633.00,1.2043
5632.00,1.1931
5631.00,1.1817
5630.00,1.1700
5629.00,1.1579
5628.00,1.1454
5627.00,1.1327
5626.00,1.1195
5625.00,1.1058
5624.00,1.0917
5623.00,1.0774
5622.00,1.0630
5621.00,1.0485
5620.00,1.0338
5619.00,1.0191
5618.00,1.0043
5617.00,0.9895
5616.00,0.9747
5615.00,0.9599
5614.00,0.9453
5613.00,0.9309
5612.00,0.9168
5611.00,0.9029
5610.00,0.8894
5609.00,0.8764
5608.00,0.8639
5607.00,0.8519
5606.00,0.8405
5605.00,0.8298
5604.00,0.8198
5603.00,0.8104
5602.00,0.8017
5601.00,0.7939
5600.00,0.7869
5599.00,0.7808
5598.00,0.7757
5597.00,0.7715
5596.00,0.7682
5595.00,0.7659
5594.00,0.7646
5593.00,0.7641
5592.00,0.7646
5591.00,0.7660
5590.00,0.7683
5589.00,0.7716
5588.00,0.7757
5587.00,0.7807
5586.00,0.7865
5585.00,0.7932
5584.00,0.8008
5583.00,0.8090
5582.00,0.8178
5581.00,0.8272
5580.00,0.8372
5579.00,0.8476
5578.00,0.8584
5577.00,0.8697
5576.00,0.8814
5575.00,0.8934
5574.00,0.9057
5573.00,0.9183
5572.00,0.9311
5571.00,0.9442
5570.00,0.9576
5569.00,0.9712
5568.00,0.9846
5567.00,0.9977
5566.00,1.0105
5565.00,1.0232
5564.00,1.0360
5563.00,1.0490
5562.00,1.0622
5561.00,1.0754
5560.00,1.0883
5559.00,1.1007
5558.00,1.1126
5557.00,1.1242
5556.00,1.1356
5555.00,1.1469
5554.00,1.1579
5553.00,1.1686
5552.00,1.1791
5551.00,1.1894
5550.00,1.1994
5549.00,1.2091
5548.00,1.2186
5547.00,1.2279
5546.00,1.2367
5545.00,1.2451
5544.00,1.2530
5543.00,1.2604
5542.00,1.2675
5541.00,1.2742
5540.00,1.2804
5539.00,1.2863
5538.00,1.2921
5537.00,1.2977
5536.00,1.3031
5535.00,1.3082
5534.00,1.3131
5533.00,1.3175
5532.00,1.3215
5531.00,1.3250
5530.00,1.3280
5529.00,1.3305
5528.00,1.3326
5527.00,1.3341
5526.00,1.3351
5525.00,1.3357
5524.00,1.3358
5523.00,1.3356
5522.00,1.3353
5521.00,1.3348
5520.00,1.3340
5519.00,1.3327
5518.00,1.3307
5517.00,1.3282
5516.00,1.3253
5515.00,1.3219
5514.00,1.3183
5513.00,1.3142
5512.00,1.3095
5511.00,1.3042
5510.00,1.2983
5509.00,1.2917
5508.00,1.2848
5507.00,1.2775
5506.00,1.2701
5505.00,1.2623
5504.00,1.2540
5503.00,1.2451
5502.00,1.2355
5501.00,1.2254
5500.00,1.2148
5499.00,1.2038
5498.00,1.1925
5497.00,1.1807
5496.00,1.1683
5495.00,1.1555
5494.00,1.1421
5493.00,1.1285
5492.00,1.1146
5491.00,1.1004
5490.00,1.0859
5489.00,1.0713
5488.00,1.0566
5487.00,1.0415
5486.00,1.0262
5485.00,1.0106
5484.00,0.9951
5483.00,0.9797
5482.00,0.9644
5481.00,0.9493
5480.00,0.9344
5479.00,0.9197
5478.00,0.9054
5477.00,0.8914
5476.00,0.8778
5475.00,0.8648
5474.00,0.8524
5473.00,0.8405
5472.00,0.8293
5471.00,0.8188
5470.00,0.8091
5469.00,0.7999
5468.00,0.7912
5467.00,0.7834
5466.00,0.7767
5465.00,0.7711
5464.00,0.7668
5463.00,0.7637
5462.00,0.7616
5461.00,0.7606
5460.00,0.7605
5459.00,0.7614
5458.00,0.7632
5457.00,0.7660
5456.00,0.7696
5455.00,0.7742
5454.00,0.7796
5453.00,0.7859
5452.00,0.7930
5451.00,0.8012
5450.00,0.8103
5449.00,0.8200
5448.00,0.8303
5447.00,0.8411
5446.00,0.8525
5445.00,0.8645
5444.00,0.8768
5443.00,0.8894
5442.00,0.9024
5441.00,0.9159
5440.00,0.9296
5439.00,0.9434
5438.00,0.9572
5437.00,0.9711
5436.00,0.9853
5435.00,0.9999
5434.00,1.0145
5433.00,1.0290
5432.00,1.0432
5431.00,1.0573
5430.00,1.0713
5429.00,1.0855
5428.00,1.0995
5427.00,1.1131
5426.00,1.1266
5425.00,1.1399
5424.00,1.1531
5423.00,1.1659
5422.00,1.1785
5421.00,1.1906
5420.00,1.2025
5419.00,1.2141
5418.00,1.2253
5417.00,1.2361
5416.00,1.2464
5415.00,1.2565
5414.00,1.2663
5413.00,1.2758
5412.00,1.2848
5411.00,1.2935
5410.00,1.3020
5409.00,1.3102
5408.00,1.3179
5407.00,1.3250
5406.00,1.3317
5405.00,1.3381
5404.00,1.3439
5403.00,1.3491
5402.00,1.3538
5401.00,1.3581
5400.00,1.3620
5399.00,1.3653
5398.00,1.3682
5397.00,1.3706
5396.00,1.3725
5395.00,1.3740
5394.00,1.3750
5393.00,1.3759
5392.00,1.3763
5391.00,1.3762
5390.00,1.3757
5389.00,1.3748
5388.00,1.3735
5387.00,1.3717
5386.00,1.3695
5385.00,1.3669
5384.00,1.3636
5383.00,1.3595
5382.00,1.3550
5381.00,1.3503
5380.00,1.3453
5379.00,1.3398
5378.00,1.3336
5377.00,1.3269
5376.00,1.3198
5375.00,1.3120
5374.00,1.3036
5373.00,1.2948
5372.00,1.2857
5371.00,1.2761
5370.00,1.2659
5369.00,1.2552
5368.00,1.2443
5367.00,1.2330
5366.00,1.2214
5365.00,1.2093
5364.00,1.1968
5363.00,1.1838
5362.00,1.1703
5361.00,1.1564
5360.00,1.1422
5359.00,1.1275
5358.00,1.1124
5357.00,1.0970
5356.00,1.0813
5355.00,1.0654
5354.00,1.0494
5353.00,1.0334
5352.00,1.0173
5351.00,1.0010
5350.00,0.9849
5349.00,0.9689
5348.00,0.9532
5347.00,0.9376
5346.00,0.9220
5345.00,0.9068
5344.00,0.8921
5343.00,0.8778
5342.00,0.8639
5341.00,0.8508
5340.00,0.8384
5339.00,0.8268
5338.00,0.8157
5337.00,0.8052
5336.00,0.7954
5335.00,0.7866
5334.00,0.7790
5333.00,0.7726
5332.00,0.7674
5331.00,0.7630
5330.00,0.7595
5329.00,0.7573
5328.00,0.7562
5327.00,0.7563
5326.00,0.7573
5325.00,0.7592
5324.00,0.7621
5323.00,0.7661
5322.00,0.7712
5321.00,0.7773
5320.00,0.7843
5319.00,0.7921
5318.00,0.8007
5317.00,0.8100
5316.00,0.8200
5315.00,0.8306
5314.00,0.8418
5313.00,0.8536
5312.00,0.8660
5311.00,0.8788
5310.00,0.8920
5309.00,0.9056
5308.00,0.9195
5307.00,0.9336
5306.00,0.9480
5305.00,0.9625
5304.00,0.9772
5303.00,0.9919
5302.00,1.0067
5301.00,1.0216
5300.00,1.0364
5299.00,1.0512
5298.00,1.0659
5297.00,1.0805
5296.00,1.0948
5295.00,1.1089
5294.00,1.1227
5293.00,1.1362
5292.00,1.1496
5291.00,1.1630
5290.00,1.1762
5289.00,1.1893
5288.00,1.2020
5287.00,1.2143
5286.00,1.2263
5285.00,1.2379
5284.00,1.2490
5283.00,1.2594
5282.00,1.2695
5281.00,1.2795
5280.00,1.2894
5279.00,1.2990
5278.00,1.3081
5277.00,1.3168
5276.00,1.3250
5275.00,1.3328
5274.00,1.3403
5273.00,1.3475
5272.00,1.3541
5271.00,1.3597
5270.00,1.3645
5269.00,1.3688
5268.00,1.3729
5267.00,1.3767
5266.00,1.3804
5265.00,1.3840
5264.00,1.3874
5263.00,1.3903
5262.00,1.3924
5261.00,1.3940
5260.00,1.3950
5259.00,1.3955
5258.00,1.3954
5257.00,1.3948
5256.00,1.3939
5255.00,1.3927
5254.00,1.3911
5253.00,1.3890
5252.00,1.3864
5251.00,1.3834
5250.00,1.3801
5249.00,1.3763
5248.00,1.3720
5247.00,1.3670
5246.00,1.3615
5245.00,1.3554
5244.00,1.3488
5243.00,1.3416
5242.00,1.3338
5241.00,1.3255
5240.00,1.3169
5239.00,1.3081
5238.00,1.2990
5237.00,1.2893
5236.00,1.2788
5235.00,1.2677
5234.00,1.2563
5233.00,1.2444
5232.00,1.2321
5231.00,1.2193
5230.00,1.2061
5229.00,1.1925
5228.00,1.1784
5227.00,1.1641
5226.00,1.1495
5225.00,1.1345
5224.00,1.1189
5223.00,1.1028
5222.00,1.0865
5221.00,1.0701
5220.00,1.0536
5219.00,1.0370
5218.00,1.0203
5217.00,1.0037
5216.00,0.9871
5215.00,0.9705
5214.00,0.9543
5213.00,0.9383
5212.00,0.9227
5211.00,0.9075
5210.00,0.8928
5209.00,0.8787
5208.00,0.8653
5207.00,0.8525
5206.00,0.8404
5205.00,0.8290
5204.00,0.8184
5203.00,0.8086
5202.00,0.7998
5201.00,0.7919
5200.00,0.7849
5199.00,0.7789
5198.00,0.7741
5197.00,0.7707
5196.00,0.7684
5195.00,0.7673
5194.00,0.7671
5193.00,0.7682
5192.00,0.7704
5191.00,0.7736
5190.00,0.7780
5189.00,0.7834
5188.00,0.7898
5187.00,0.7971
5186.00,0.8054
5185.00,0.8147
5184.00,0.8249
5183.00,0.8358
5182.00,0.8473
5181.00,0.8594
5180.00,0.8721
5179.00,0.8852
5178.00,0.8987
5177.00,0.9126
5176.00,0.9268
5175.00,0.9413
5174.00,0.9561
5173.00,0.9712
5172.00,0.9866
5171.00,1.0021
5170.00,1.0177
5169.00,1.0334
5168.00,1.0490
5167.00,1.0646
5166.00,1.0800
5165.00,1.0954
5164.00,1.1105
5163.00,1.1253
5162.00,1.1399
5161.00,1.1544
5160.00,1.1686
5159.00,1.1827
5158.00,1.1966
5157.00,1.2102
5156.00,1.2235
5155.00,1.2365
5154.00,1.2491
5153.00,1.2613
5152.00,1.2731
5151.00,1.2844
5150.00,1.2953
5149.00,1.3059
5148.00,1.3161
5147.00,1.3259
5146.00,1.3353
5145.00,1.3442
5144.00,1.3527
5143.00,1.3607
5142.00,1.3682
5141.00,1.3752
5140.00,1.3816
5139.00,1.3874
5138.00,1.3926
5137.00,1.3976
5136.00,1.4025
5135.00,1.4073
5134.00,1.4117
5133.00,1.4155
5132.00,1.4186
5131.00,1.4209
5130.00,1.4226
5129.00,1.4239
5128.00,1.4249
5127.00,1.4256
5126.00,1.4256
5125.00,1.4251
5124.00,1.4242
5123.00,1.4229
5122.00,1.4211
5121.00,1.4187
5120.00,1.4161
5119.00,1.4133
5118.00,1.4103
5117.00,1.4069
5116.00,1.4031
5115.00,1.3984
5114.00,1.3927
5113.00,1.3861
5112.00,1.3791
5111.00,1.3719
5110.00,1.3644
5109.00,1.3565
5108.00,1.3482
5107.00,1.3395
5106.00,1.3302
5105.00,1.3205
5104.00,1.3101
5103.00,1.2990
5102.00,1.2873
5101.00,1.2751
5100.00,1.2626
5099.00,1.2497
5098.00,1.2364
5097.00,1.2227
5096.00,1.2086
5095.00,1.1940
5094.00,1.1790
5093.00,1.1635
5092.00,1.1475
5091.00,1.1312
5090.00,1.1144
5089.00,1.0975
5088.00,1.0804
5087.00,1.0631
5086.00,1.0456
5085.00,1.0279
5084.00,1.0102
5083.00,0.9925
5082.00,0.9750
5081.00,0.9577
5080.00,0.9407
5079.00,0.9241
5078.00,0.9079
5077.00,0.8923
5076.00,0.8772
5075.00,0.8627
5074.00,0.8488
5073.00,0.8356
5072.00,0.8232
5071.00,0.8117
5070.00,0.8011
5069.00,0.7917
5068.00,0.7833
5067.00,0.7760
5066.00,0.7699
5065.00,0.7650
5064.00,0.7613
5063.00,0.7587
5062.00,0.7575
5061.00,0.7575
5060.00,0.7587
5059.00,0.7613
5058.00,0.7650
5057.00,0.7698
5056.00,0.7757
5055.00,0.7826
5054.00,0.7906
5053.00,0.7995
5052.00,0.8094
5051.00,0.8200
5050.00,0.8314
5049.00,0.8435
5048.00,0.8562
5047.00,0.8697
5046.00,0.8838
5045.00,0.8983
5044.00,0.9132
5043.00,0.9283
5042.00,0.9438
5041.00,0.9595
5040.00,0.9754
5039.00,0.9916
5038.00,1.0078
5037.00,1.0240
5036.00,1.0402
5035.00,1.0564
5034.00,1.0726
5033.00,1.0886
5032.00,1.1045
5031.00,1.1201
5030.00,1.1355
5029.00,1.1507
5028.00,1.1657
5027.00,1.1805
5026.00,1.1951
5025.00,1.2095
5024.00,1.2237
5023.00,1.2376
5022.00,1.2514
5021.00,1.2647
5020.00,1.2776
5019.00,1.2900
5018.00,1.3018
5017.00,1.3132
5016.00,1.3242
5015.00,1.3348
5014.00,1.3451
5013.00,1.3549
5012.00,1.3644
5011.00,1.3735
5010.00,1.3821
5009.00,1.3902
5008.00,1.3977
5007.00,1.4046
5006.00,1.4110
5005.00,1.4168
5004.00,1.4222
5003.00,1.4271
5002.00,1.4315
5001.00,1.4354
5000.00,1.4388
4999.00,1.4417
4998.00,1.4444
4997.00,1.4467
4996.00,1.4484
4995.00,1.4496
4994.00,1.4501
4993.00,1.4501
4992.00,1.4498
4991.00,1.4492
4990.00,1.4482
4989.00,1.4467
4988.00,1.4448
4987.00,1.4423
4986.00,1.4393
4985.00,1.4358
4984.00,1.4318
4983.00,1.4271
4982.00,1.4218
4981.00,1.4160
4980.00,1.4097
4979.00,1.4030
4978.00,1.3960
4977.00,1.3885
4976.00,1.3807
4975.00,1.3725
4974.00,1.3639
4973.00,1.3547
4972.00,1.3448
4971.00,1.3342
4970.00,1.3229
4969.00,1.3109
4968.00,1.2983
4967.00,1.2853
4966.00,1.2719
4965.00,1.2579
4964.00,1.2435
4963.00,1.2286
4962.00,1.2133
4961.00,1.1975
4960.00,1.1812
4959.00,1.1643
4958.00,1.1471
4957.00,1.1297
4956.00,1.1120
4955.00,1.0941
4954.00,1.0760
4953.00,1.0575
4952.00,1.0389
4951.00,1.0202
4950.00,1.0015
4949.00,0.9830
4948.00,0.9647
4947.00,0.9466
4946.00,0.9289
4945.00,0.9117
4944.00,0.8951
4943.00,0.8791
4942.00,0.8638
4941.00,0.8493
4940.00,0.8357
4939.00,0.8230
4938.00,0.8113
4937.00,0.8007
4936.00,0.7910
4935.00,0.7826
4934.00,0.7753
4933.00,0.7695
4932.00,0.7650
4931.00,0.7618
4930.00,0.7599
4929.00,0.7594
4928.00,0.7602
4927.00,0.7623
4926.00,0.7656
4925.00,0.7703
4924.00,0.7761
4923.00,0.7832
4922.00,0.7915
4921.00,0.8008
4920.00,0.8113
4919.00,0.8226
4918.00,0.8347
4917.00,0.8476
4916.00,0.8611
4915.00,0.8753
4914.00,0.8901
4913.00,0.9054
4912.00,0.9211
4911.00,0.9371
4910.00,0.9535
4909.00,0.9701
4908.00,0.9869
4907.00,1.0038
4906.00,1.0208
4905.00,1.0379
4904.00,1.0550
4903.00,1.0720
4902.00,1.0890
4901.00,1.1060
4900.00,1.1228
4899.00,1.1394
4898.00,1.1558
4897.00,1.1720
4896.00,1.1879
4895.00,1.2036
4894.00,1.2189
4893.00,1.2340
4892.00,1.2488
4891.00,1.2632
4890.00,1.2772
4889.00,1.2908
4888.00,1.3040
4887.00,1.3169
4886.00,1.3294
4885.00,1.3415
4884.00,1.3532
4883.00,1.3644
4882.00,1.3750
4881.00,1.3850
4880.00,1.3943
4879.00,1.4033
4878.00,1.4118
4877.00,1.4200
4876.00,1.4275
4875.00,1.4344
4874.00,1.4406
4873.00,1.4463
4872.00,1.4516
4871.00,1.4567
4870.00,1.4614
4869.00,1.4656
4868.00,1.4692
4867.00,1.4724
4866.00,1.4750
4865.00,1.4772
4864.00,1.4791
4863.00,1.4806
4862.00,1.4816
4861.00,1.4820
4860.00,1.4819
4859.00,1.4811
4858.00,1.4797
4857.00,1.4778
4856.00,1.4755
4855.00,1.4729
4854.00,1.4701
4853.00,1.4668
4852.00,1.4628
4851.00,1.4582
4850.00,1.4530
4849.00,1.4472
4848.00,1.4408
4847.00,1.4340
4846.00,1.4267
4845.00,1.4190
4844.00,1.4110
4843.00,1.4028
4842.00,1.3943
4841.00,1.3852
4840.00,1.3753
4839.00,1.3647
4838.00,1.3535
4837.00,1.3418
4836.00,1.3295
4835.00,1.3167
4834.00,1.3033
4833.00,1.2893
4832.00,1.2746
4831.00,1.2594
4830.00,1.2436
4829.00,1.2273
4828.00,1.2106
4827.00,1.1934
4826.00,1.1759
4825.00,1.1580
4824.00,1.1395
4823.00,1.1206
4822.00,1.1015
4821.00,1.0821
4820.00,1.0627
4819.00,1.0431
4818.00,1.0236
4817.00,1.0040
4816.00,0.9845
4815.00,0.9653
4814.00,0.9464
4813.00,0.9279
4812.00,0.9099
4811.00,0.8924
4810.00,0.8756
4809.00,0.8595
4808.00,0.8444
4807.00,0.8302
4806.00,0.8170
4805.00,0.8049
4804.00,0.7939
4803.00,0.7841
4802.00,0.7757
4801.00,0.7686
4800.00,0.7630
4799.00,0.7587
4798.00,0.7559
4797.00,0.7545
4796.00,0.7546
4795.00,0.7561
4794.00,0.7591
4793.00,0.7635
4792.00,0.7694
4791.00,0.7765
4790.00,0.7848
4789.00,0.7943
4788.00,0.8048
4787.00,0.8163
4786.00,0.8287
4785.00,0.8421
4784.00,0.8563
4783.00,0.8712
4782.00,0.8867
4781.00,0.9027
4780.00,0.9191
4779.00,0.9358
4778.00,0.9527
4777.00,0.9700
4776.00,0.9876
4775.00,1.0054
4774.00,1.0234
4773.00,1.0414
4772.00,1.0596
4771.00,1.0776
4770.00,1.0957
4769.00,1.1136
4768.00,1.1313
4767.00,1.1487
4766.00,1.1660
4765.00,1.1831
4764.00,1.2000
4763.00,1.2166
4762.00,1.2329
4761.00,1.2489
4760.00,1.2646
4759.00,1.2799
4758.00,1.2948
4757.00,1.3093
4756.00,1.3232
4755.00,1.3366
4754.00,1.3495
4753.00,1.3622
4752.00,1.3745
4751.00,1.3864
4750.00,1.3979
4749.00,1.4088
4748.00,1.4190
4747.00,1.4286
4746.00,1.4376
4745.00,1.4461
4744.00,1.4542
4743.00,1.4617
4742.00,1.4687
4741.00,1.4752
4740.00,1.4812
4739.00,1.4867
4738.00,1.4918
4737.00,1.4965
4736.00,1.5009
4735.00,1.5047
4734.00,1.5080
4733.00,1.5107
4732.00,1.5127
4731.00,1.5141
4730.00,1.5148
4729.00,1.5150
4728.00,1.5148
4727.00,1.5144
4726.00,1.5138
4725.00,1.5128
4724.00,1.5114
4723.00,1.5094
4722.00,1.5066
4721.00,1.5032
4720.00,1.4994
4719.00,1.4952
4718.00,1.4905
4717.00,1.4853
4716.00,1.4794
4715.00,1.4728
4714.00,1.4656
4713.00,1.4582
4712.00,1.4505
4711.00,1.4425
4710.00,1.4339
4709.00,1.4243
4708.00,1.4141
4707.00,1.4034
4706.00,1.3925
4705.00,1.3813
4704.00,1.3696
4703.00,1.3570
4702.00,1.3434
4701.00,1.3293
4700.00,1.3147
4699.00,1.2998
4698.00,1.2845
4697.00,1.2687
4696.00,1.2521
4695.00,1.2349
4694.00,1.2171
4693.00,1.1989
4692.00,1.1804
4691.00,1.1615
4690.00,1.1424
4689.00,1.1231
4688.00,1.1037
4687.00,1.0842
4686.00,1.0647
4685.00,1.0453
4684.00,1.0260
4683.00,1.0070
4682.00,0.9882
4681.00,0.9697
4680.00,0.9517
4679.00,0.9343
4678.00,0.9174
4677.00,0.9013
4676.00,0.8859
4675.00,0.8713
4674.00,0.8576
4673.00,0.8449
4672.00,0.8332
4671.00,0.8227
4670.00,0.8134
4669.00,0.8052
4668.00,0.7984
4667.00,0.7928
4666.00,0.7886
4665.00,0.7859
4664.00,0.7846
4663.00,0.7847
4662.00,0.7863
4661.00,0.7893
4660.00,0.7937
4659.00,0.7995
4658.00,0.8067
4657.00,0.8151
4656.00,0.8247
4655.00,0.8354
4654.00,0.8472
4653.00,0.8600
4652.00,0.8737
4651.00,0.8882
4650.00,0.9034
4649.00,0.9194
4648.00,0.9359
4647.00,0.9528
4646.00,0.9702
4645.00,0.9878
4644.00,1.0057
4643.00,1.0238
4642.00,1.0422
4641.00,1.0607
4640.00,1.0793
4639.00,1.0978
4638.00,1.1163
4637.00,1.1347
4636.00,1.1530
4635.00,1.1712
4634.00,1.1891
4633.00,1.2067
4632.00,1.2241
4631.00,1.2412
4630.00,1.2581
4629.00,1.2748
4628.00,1.2911
4627.00,1.3069
4626.00,1.3223
4625.00,1.3372
4624.00,1.3517
4623.00,1.3658
4622.00,1.3793
4621.00,1.3923
4620.00,1.4048
4619.00,1.4168
4618.00,1.4282
4617.00,1.4392
4616.00,1.4496
4615.00,1.4595
4614.00,1.4689
4613.00,1.4778
4612.00,1.4863
4611.00,1.4942
4610.00,1.5017
4609.00,1.5085
4608.00,1.5149
4607.00,1.5208
4606.00,1.5262
4605.00,1.5309
4604.00,1.5350
4603.00,1.5384
4602.00,1.5414
4601.00,1.5440
4600.00,1.5463
4599.00,1.5482
4598.00,1.5495
4597.00,1.5503
4596.00,1.5505
4595.00,1.5501
4594.00,1.5492
4593.00,1.5478
4592.00,1.5459
4591.00,1.5437
4590.00,1.5411
4589.00,1.5381
4588.00,1.5345
4587.00,1.5305
4586.00,1.5260
4585.00,1.5210
4584.00,1.5155
4583.00,1.5094
4582.00,1.5027
4581.00,1.4956
4580.00,1.4880
4579.00,1.4799
4578.00,1.4712
4577.00,1.4618
4576.00,1.4518
4575.00,1.4413
4574.00,1.4304
4573.00,1.4190
4572.00,1.4069
4571.00,1.3942
4570.00,1.3806
4569.00,1.3663
4568.00,1.3513
4567.00,1.3357
4566.00,1.3196
4565.00,1.3032
4564.00,1.2863
4563.00,1.2689
4562.00,1.2509
4561.00,1.2321
4560.00,1.2126
4559.00,1.1926
4558.00,1.1721
4557.00,1.1512
4556.00,1.1302
4555.00,1.1089
4554.00,1.0874
4553.00,1.0658
4552.00,1.0442
4551.00,1.0227
4550.00,1.0014
4549.00,0.9806
4548.00,0.9600
4547.00,0.9400
4546.00,0.9205
4545.00,0.9016
4544.00,0.8836
4543.00,0.8666
4542.00,0.8507
4541.00,0.8360
4540.00,0.8225
4539.00,0.8102
4538.00,0.7994
4537.00,0.7901
4536.00,0.7823
4535.00,0.7761
4534.00,0.7715
4533.00,0.7687
4532.00,0.7674
4531.00,0.7678
4530.00,0.7699
4529.00,0.7736
4528.00,0.7789
4527.00,0.7858
4526.00,0.7941
4525.00,0.8039
4524.00,0.8150
4523.00,0.8273
4522.00,0.8407
4521.00,0.8551
4520.00,0.8704
4519.00,0.8865
4518.00,0.9034
4517.00,0.9210
4516.00,0.9391
4515.00,0.9577
4514.00,0.9767
4513.00,0.9959
4512.00,1.0153
4511.00,1.0349
4510.00,1.0547
4509.00,1.0746
4508.00,1.0946
4507.00,1.1145
4506.00,1.1345
4505.00,1.1543
4504.00,1.1738
4503.00,1.1931
4502.00,1.2120
4501.00,1.2306
4500.00,1.2489
4499.00,1.2669
4498.00,1.2846
4497.00,1.3019
4496.00,1.3187
4495.00,1.3351
4494.00,1.3509
4493.00,1.3664
4492.00,1.3815
4491.00,1.3963
4490.00,1.4107
4489.00,1.4245
4488.00,1.4377
4487.00,1.4501
4486.00,1.4619
4485.00,1.4731
4484.00,1.4839
4483.00,1.4942
4482.00,1.5040
4481.00,1.5132
4480.00,1.5218
4479.00,1.5296
4478.00,1.5368
4477.00,1.5436
4476.00,1.5503
4475.00,1.5569
4474.00,1.5629
4473.00,1.5681
4472.00,1.5724
4471.00,1.5759
4470.00,1.5789
4469.00,1.5815
4468.00,1.5837
4467.00,1.5854
4466.00,1.5868
4465.00,1.5880
4464.00,1.5888
4463.00,1.5889
4462.00,1.5883
4461.00,1.5869
4460.00,1.5851
4459.00,1.5829
4458.00,1.5805
4457.00,1.5777
4456.00,1.5744
4455.00,1.5705
4454.00,1.5660
4453.00,1.5611
4452.00,1.5557
4451.00,1.5498
4450.00,1.5434
4449.00,1.5365
4448.00,1.5289
4447.00,1.5205
4446.00,1.5114
4445.00,1.5017
4444.00,1.4915
4443.00,1.4808
4442.00,1.4696
4441.00,1.4579
4440.00,1.4457
4439.00,1.4329
4438.00,1.4193
4437.00,1.4050
4436.00,1.3900
4435.00,1.3744
4434.00,1.3585
4433.00,1.3421
4432.00,1.3249
4431.00,1.3068
4430.00,1.2880
4429.00,1.2686
4428.00,1.2488
4427.00,1.2286
4426.00,1.2081
4425.00,1.1871
4424.00,1.1657
4423.00,1.1440
4422.00,1.1221
4421.00,1.1004
4420.00,1.0787
4419.00,1.0572
4418.00,1.0358
4417.00,1.0147
4416.00,0.9941
4415.00,0.9740
4414.00,0.9547
4413.00,0.9364
4412.00,0.9191
4411.00,0.9029
4410.00,0.8879
4409.00,0.8741
4408.00,0.8616
4407.00,0.8506
4406.00,0.8413
4405.00,0.8337
4404.00,0.8278
4403.00,0.8237
4402.00,0.8214
4401.00,0.8207
4400.00,0.8217
4399.00,0.8243
4398.00,0.8287
4397.00,0.8348
4396.00,0.8425
4395.00,0.8517
4394.00,0.8623
4393.00,0.8740
4392.00,0.8869
4391.00,0.9009
4390.00,0.9158
4389.00,0.9316
4388.00,0.9481
4387.00,0.9652
4386.00,0.9829
4385.00,1.0011
4384.00,1.0197
4383.00,1.0387
4382.00,1.0580
4381.00,1.0774
4380.00,1.0969
4379.00,1.1164
4378.00,1.1358
4377.00,1.1550
4376.00,1.1742
4375.00,1.1932
4374.00,1.2120
4373.00,1.2306
4372.00,1.2490
4371.00,1.2672
4370.00,1.2849
4369.00,1.3023
4368.00,1.3192
4367.00,1.3358
4366.00,1.3521
4365.00,1.3682
4364.00,1.3838
4363.00,1.3988
4362.00,1.4133
4361.00,1.4273
4360.00,1.4408
4359.00,1.4538
4358.00,1.4664
4357.00,1.4785
4356.00,1.4904
4355.00,1.5020
4354.00,1.5134
4353.00,1.5244
4352.00,1.5350
4351.00,1.5452
4350.00,1.5547
4349.00,1.5637
4348.00,1.5719
4347.00,1.5793
4346.00,1.5861
4345.00,1.5925
4344.00,1.5987
4343.00,1.6048
4342.00,1.6107
4341.00,1.6162
4340.00,1.6210
4339.00,1.6250
4338.00,1.6283
4337.00,1.6309
4336.00,1.6331
4335.00,1.6346
4334.00,1.6358
4333.00,1.6365
4332.00,1.6370
4331.00,1.6371
4330.00,1.6368
4329.00,1.6360
4328.00,1.6348
4327.00,1.6331
4326.00,1.6310
4325.00,1.6284
4324.00,1.6253
4323.00,1.6217
4322.00,1.6174
4321.00,1.6124
4320.00,1.6068
4319.00,1.6007
4318.00,1.5942
4317.00,1.5874
4316.00,1.5802
4315.00,1.5725
4314.00,1.5642
4313.00,1.5554
4312.00,1.5462
4311.00,1.5363
4310.00,1.5258
4309.00,1.5147
4308.00,1.5030
4307.00,1.4907
4306.00,1.4778
4305.00,1.4642
4304.00,1.4498
4303.00,1.4348
4302.00,1.4191
4301.00,1.4029
4300.00,1.3861
4299.00,1.3688
4298.00,1.3510
4297.00,1.3327
4296.00,1.3141
4295.00,1.2950
4294.00,1.2756
4293.00,1.2558
4292.00,1.2356
4291.00,1.2151
4290.00,1.1944
4289.00,1.1737
4288.00,1.1530
4287.00,1.1324
4286.00,1.1119
4285.00,1.0916
4284.00,1.0716
4283.00,1.0519
4282.00,1.0327
4281.00,1.0139
4280.00,0.9957
4279.00,0.9782
4278.00,0.9615
4277.00,0.9456
4276.00,0.9307
4275.00,0.9169
4274.00,0.9042
4273.00,0.8928
4272.00,0.8828
4271.00,0.8743
4270.00,0.8673
4269.00,0.8619
4268.00,0.8580
4267.00,0.8556
4266.00,0.8549
4265.00,0.8558
4264.00,0.8583
4263.00,0.8624
4262.00,0.8680
4261.00,0.8752
4260.00,0.8838
4259.00,0.8939
4258.00,0.9052
4257.00,0.9179
4256.00,0.9318
4255.00,0.9467
4254.00,0.9626
4253.00,0.9794
4252.00,0.9969
4251.00,1.0152
4250.00,1.0341
4249.00,1.0534
4248.00,1.0732
4247.00,1.0933
4246.00,1.1136
4245.00,1.1341
4244.00,1.1547
4243.00,1.1754
4242.00,1.1962
4241.00,1.2169
4240.00,1.2375
4239.00,1.2579
4238.00,1.2779
4237.00,1.2978
4236.00,1.3176
4235.00,1.3370
4234.00,1.3561
4233.00,1.3746
4232.00,1.3926
4231.00,1.4103
4230.00,1.4275
4229.00,1.4442
4228.00,1.4604
4227.00,1.4759
4226.00,1.4908
4225.00,1.5052
4224.00,1.5191
4223.00,1.5324
4222.00,1.5452
4221.00,1.5573
4220.00,1.5685
4219.00,1.5791
4218.00,1.5890
4217.00,1.5986
4216.00,1.6079
4215.00,1.6169
4214.00,1.6254
4213.00,1.6332
4212.00,1.6401
4211.00,1.6462
4210.00,1.6515
4209.00,1.6565
4208.00,1.6614
4207.00,1.6660
4206.00,1.6701
4205.00,1.6737
4204.00,1.6767
4203.00,1.6791
4202.00,1.6811
4201.00,1.6825
4200.00,1.6833
4199.00,1.6836
4198.00,1.6837
4197.00,1.6834
4196.00,1.6828
4195.00,1.6816
4194.00,1.6800
4193.00,1.6778
4192.00,1.6752
4191.00,1.6719
4190.00,1.6680
4189.00,1.6637
4188.00,1.6589
4187.00,1.6536
4186.00,1.6479
4185.00,1.6417
4184.00,1.6349
4183.00,1.6276
4182.00,1.6195
4181.00,1.6108
4180.00,1.6015
4179.00,1.5917
4178.00,1.5815
4177.00,1.5709
4176.00,1.5598
4175.00,1.5480
4174.00,1.5355
4173.00,1.5222
4172.00,1.5081
4171.00,1.4935
4170.00,1.4783
4169.00,1.4627
4168.00,1.4464
4167.00,1.4294
4166.00,1.4115
4165.00,1.3930
4164.00,1.3738
4163.00,1.3541
4162.00,1.3338
4161.00,1.3130
4160.00,1.2918
4159.00,1.2699
4158.00,1.2475
4157.00,1.2247
4156.00,1.2016
4155.00,1.1784
4154.00,1.1552
4153.00,1.1321
4152.00,1.1091
4151.00,1.0862
4150.00,1.0637
4149.00,1.0415
4148.00,1.0200
4147.00,0.9992
4146.00,0.9792
4145.00,0.9603
4144.00,0.9426
4143.00,0.9261
4142.00,0.9111
4141.00,0.8976
4140.00,0.8857
4139.00,0.8755
4138.00,0.8671
4137.00,0.8606
4136.00,0.8561
4135.00,0.8536
4134.00,0.8531
4133.00,0.8546
4132.00,0.8580
4131.00,0.8634
4130.00,0.8706
4129.00,0.8795
4128.00,0.8899
4127.00,0.9018
4126.00,0.9152
4125.00,0.9298
4124.00,0.9456
4123.00,0.9623
4122.00,0.9800
4121.00,0.9984
4120.00,1.0176
4119.00,1.0375
4118.00,1.0579
4117.00,1.0789
4116.00,1.1001
4115.00,1.1214
4114.00,1.1429
4113.00,1.1645
4112.00,1.1862
4111.00,1.2079
4110.00,1.2295
4109.00,1.2511
4108.00,1.2726
4107.00,1.2939
4106.00,1.3149
4105.00,1.3356
4104.00,1.3558
4103.00,1.3755
4102.00,1.3948
4101.00,1.4136
4100.00,1.4321
4099.00,1.4502
4098.00,1.4677
4097.00,1.4847
4096.00,1.5011
4095.00,1.5170
4094.00,1.5324
4093.00,1.5474
4092.00,1.5618
4091.00,1.5755
4090.00,1.5886
4089.00,1.6009
4088.00,1.6125
4087.00,1.6233
4086.00,1.6336
4085.00,1.6433
4084.00,1.6526
4083.00,1.6613
4082.00,1.6694
4081.00,1.6769
4080.00,1.6841
4079.00,1.6911
4078.00,1.6978
4077.00,1.7036
4076.00,1.7084
4075.00,1.7122
4074.00,1.7153
4073.00,1.7182
4072.00,1.7211
4071.00,1.7239
4070.00,1.7264
4069.00,1.7283
4068.00,1.7294
4067.00,1.7297
4066.00,1.7293
4065.00,1.7282
4064.00,1.7267
4063.00,1.7250
4062.00,1.7232
4061.00,1.7211
4060.00,1.7183
4059.00,1.7148
4058.00,1.7105
4057.00,1.7056
4056.00,1.7002
4055.00,1.6944
4054.00,1.6881
4053.00,1.6813
4052.00,1.6739
4051.00,1.6661
4050.00,1.6580
4049.00,1.6494
4048.00,1.6402
4047.00,1.6303
4046.00,1.6196
4045.00,1.6080
4044.00,1.5958
4043.00,1.5832
4042.00,1.5701
4041.00,1.5567
4040.00,1.5425
4039.00,1.5276
4038.00,1.5117
4037.00,1.4951
4036.00,1.4778
4035.00,1.4601
4034.00,1.4419
4033.00,1.4228
4032.00,1.4030
4031.00,1.3822
4030.00,1.3608
4029.00,1.3388
4028.00,1.3164
4027.00,1.2935
4026.00,1.2702
4025.00,1.2465
4024.00,1.2224
4023.00,1.1981
4022.00,1.1737
4021.00,1.1493
4020.00,1.1249
4019.00,1.1008
4018.00,1.0771
4017.00,1.0538
4016.00,1.0313
4015.00,1.0094
4014.00,0.9884
4013.00,0.9684
4012.00,0.9496
4011.00,0.9321
4010.00,0.9161
4009.00,0.9017
4008.00,0.8890
4007.00,0.8782
4006.00,0.8694
4005.00,0.8626
4004.00,0.8578
4003.00,0.8553
4002.00,0.8549
4001.00,0.8567
4000.00,0.8607
3999.00,0.8667
3998.00,0.8747
3997.00,0.8846
3996.00,0.8964
3995.00,0.9099
3994.00,0.9250
3993.00,0.9416
3992.00,0.9595
3991.00,0.9786
3990.00,0.9987
3989.00,1.0196
3988.00,1.0413
3987.00,1.0636
3986.00,1.0863
3985.00,1.1095
3984.00,1.1330
3983.00,1.1566
3982.00,1.1803
3981.00,1.2041
3980.00,1.2278
3979.00,1.2514
3978.00,1.2748
3977.00,1.2978
3976.00,1.3206
3975.00,1.3430
3974.00,1.3651
3973.00,1.3868
3972.00,1.4080
3971.00,1.4286
3970.00,1.4488
3969.00,1.4685
3968.00,1.4878
3967.00,1.5065
3966.00,1.5246
3965.00,1.5419
3964.00,1.5587
3963.00,1.5748
3962.00,1.5905
3961.00,1.6056
3960.00,1.6202
3959.00,1.6340
3958.00,1.6472
3957.00,1.6596
3956.00,1.6713
3955.00,1.6822
3954.00,1.6924
3953.00,1.7021
3952.00,1.7112
3951.00,1.7196
3950.00,1.7272
3949.00,1.7344
3948.00,1.7413
3947.00,1.7479
3946.00,1.7538
3945.00,1.7591
3944.00,1.7639
3943.00,1.7684
3942.00,1.7726
3941.00,1.7764
3940.00,1.7796
3939.00,1.7821
3938.00,1.7841
3937.00,1.7857
3936.00,1.7868
3935.00,1.7871
3934.00,1.7868
3933.00,1.7858
3932.00,1.7845
3931.00,1.7829
3930.00,1.7808
3929.00,1.7782
3928.00,1.7751
3927.00,1.7715
3926.00,1.7676
3925.00,1.7632
3924.00,1.7582
3923.00,1.7527
3922.00,1.7464
3921.00,1.7394
3920.00,1.7318
3919.00,1.7239
3918.00,1.7156
3917.00,1.7067
3916.00,1.6971
3915.00,1.6868
3914.00,1.6758
3913.00,1.6641
3912.00,1.6519
3911.00,1.6392
3910.00,1.6259
3909.00,1.6118
3908.00,1.5968
3907.00,1.5809
3906.00,1.5641
3905.00,1.5462
3904.00,1.5273
3903.00,1.5075
3902.00,1.4868
3901.00,1.4651
3900.00,1.4425
3899.00,1.4192
3898.00,1.3956
3897.00,1.3718
3896.00,1.3477
3895.00,1.3230
3894.00,1.2975
3893.00,1.2710
3892.00,1.2433
3891.00,1.2145
3890.00,1.1859
3889.00,1.1582
3888.00,1.1313
3887.00,1.1040
3886.00,1.0762
3885.00,1.0487
3884.00,1.0227
3883.00,0.9984
3882.00,0.9752
3881.00,0.9528
3880.00,0.9317
3879.00,0.9128
3878.00,0.8965
3877.00,0.8825
3876.00,0.8703
3875.00,0.8602
3874.00,0.8524
3873.00,0.8472
3872.00,0.8446
3871.00,0.8442
3870.00,0.8461
3869.00,0.8502
3868.00,0.8567
3867.00,0.8654
3866.00,0.8764
3865.00,0.8900
3864.00,0.9062
3863.00,0.9244
3862.00,0.9438
3861.00,0.9642
3860.00,0.9854
3859.00,1.0071
3858.00,1.0289
3857.00,1.0502
3856.00,1.0713
3855.00,1.0937
3854.00,1.1192
3853.00,1.1486
3852.00,1.1801
3851.00,1.2102
3850.00,1.2370
3849.00,1.2614
3848.00,1.2846
3847.00,1.3078
3846.00,1.3309
3845.00,1.3541
3844.00,1.3773
3843.00,1.4005
3842.00,1.4233
3841.00,1.4452
3840.00,1.4662
3839.00,1.4867
3838.00,1.5075
3837.00,1.5288
3836.00,1.5501
3835.00,1.5706
3834.00,1.5900
3833.00,1.6086
3832.00,1.6263
3831.00,1.6432
3830.00,1.6591
3829.00,1.6738
3828.00,1.6874
3827.00,1.7002
3826.00,1.7126
3825.00,1.7244
3824.00,1.7349
3823.00,1.7440
3822.00,1.7524
3821.00,1.7609
3820.00,1.7696
3819.00,1.7778
3818.00,1.7852
3817.00,1.7916
3816.00,1.7975
3815.00,1.8033
3814.00,1.8089
3813.00,1.8140
3812.00,1.8183
3811.00,1.8221
3810.00,1.8256
3809.00,1.8282
3808.00,1.8294
3807.00,1.8297
3806.00,1.8298
3805.00,1.8296
3804.00,1.8287
3803.00,1.8267
3802.00,1.8240
3801.00,1.8211
3800.00,1.8182
3799.00,1.8152
3798.00,1.8117
3797.00,1.8075
3796.00,1.8027
3795.00,1.7977
3794.00,1.7926
3793.00,1.7869
3792.00,1.7806
3791.00,1.7737
3790.00,1.7665
3789.00,1.7588
3788.00,1.7502
3787.00,1.7409
3786.00,1.7311
3785.00,1.7208
3784.00,1.7102
3783.00,1.6994
3782.00,1.6881
3781.00,1.6757
3780.00,1.6621
3779.00,1.6478
3778.00,1.6333
3777.00,1.6181
3776.00,1.6019
3775.00,1.5850
3774.00,1.5675
3773.00,1.5493
3772.00,1.5300
3771.00,1.5092
3770.00,1.4869
3769.00,1.4635
3768.00,1.4392
3767.00,1.4142
3766.00,1.3883
3765.00,1.3616
3764.00,1.3345
3763.00,1.3074
3762.00,1.2798
3761.00,1.2512
3760.00,1.2214
3759.00,1.1911
3758.00,1.1608
3757.00,1.1310
3756.00,1.1022
3755.00,1.0751
3754.00,1.0491
3753.00,1.0235
3752.00,0.9977
3751.00,0.9718
3750.00,0.9467
3749.00,0.9236
3748.00,0.9042
3747.00,0.8893
3746.00,0.8782
3745.00,0.8696
3744.00,0.8629
3743.00,0.8587
3742.00,0.8576
3741.00,0.8595
3740.00,0.8644
3739.00,0.8727
3738.00,0.8844
3737.00,0.8989
3736.00,0.9156
3735.00,0.9341
3734.00,0.9542
3733.00,0.9757
3732.00,0.9989
3731.00,1.0236
3730.00,1.0489
3729.00,1.0742
3728.00,1.0998
3727.00,1.1264
3726.00,1.1546
3725.00,1.1837
3724.00,1.2129
3723.00,1.2417
3722.00,1.2701
3721.00,1.2985
3720.00,1.3270
3719.00,1.3553
3718.00,1.3830
3717.00,1.4101
3716.00,1.4363
3715.00,1.4613
3714.00,1.4851
3713.00,1.5085
3712.00,1.5325
3711.00,1.5572
3710.00,1.5818
3709.00,1.6057
3708.00,1.6285
3707.00,1.6498
3706.00,1.6695
3705.00,1.6878
3704.00,1.7054
3703.00,1.7223
3702.00,1.7387
3701.00,1.7546
3700.00,1.7698
3699.00,1.7839
3698.00,1.7968
3697.00,1.8091
3696.00,1.8207
3695.00,1.8312
3694.00,1.8407
3693.00,1.8495
3692.00,1.8581
3691.00,1.8663
3690.00,1.8739
3689.00,1.8809
3688.00,1.8874
3687.00,1.8932
3686.00,1.8983
3685.00,1.9030
3684.00,1.9075
3683.00,1.9114
3682.00,1.9145
3681.00,1.9169
3680.00,1.9190
3679.00,1.9206
3678.00,1.9215
3677.00,1.9216
3676.00,1.9208
3675.00,1.9192
3674.00,1.9174
3673.00,1.9153
3672.00,1.9127
3671.00,1.9093
3670.00,1.9054
3669.00,1.9014
3668.00,1.8975
3667.00,1.8933
3666.00,1.8889
3665.00,1.8844
3664.00,1.8795
3663.00,1.8735
3662.00,1.8662
3661.00,1.8579
3660.00,1.8492
3659.00,1.8403
3658.00,1.8309
3657.00,1.8206
3656.00,1.8095
3655.00,1.7979
3654.00,1.7863
3653.00,1.7743
3652.00,1.7617
3651.00,1.7479
3650.00,1.7332
3649.00,1.7181
3648.00,1.7026
3647.00,1.6868
3646.00,1.6712
3645.00,1.6563
3644.00,1.6421
3643.00,1.6280
3642.00,1.6136
3641.00,1.5988
3640.00,1.5833
3639.00,1.5673
3638.00,1.5511
3637.00,1.5351
3636.00,1.5196
3635.00,1.5044
3634.00,1.4896
3633.00,1.4754
3632.00,1.4622
3631.00,1.4494
3630.00,1.4363
3629.00,1.4230
3628.00,1.4101
3627.00,1.3985
3626.00,1.3884
3625.00,1.3798
3624.00,1.3727
3623.00,1.3673
3622.00,1.3632
3621.00,1.3600
3620.00,1.3574
3619.00,1.3554
3618.00,1.3544
3617.00,1.3544
3616.00,1.3556
3615.00,1.3580
3614.00,1.3616
3613.00,1.3666
3612.00,1.3726
3611.00,1.3794
3610.00,1.3868
3609.00,1.3952
3608.00,1.4045
3607.00,1.4147
3606.00,1.4256
3605.00,1.4370
3604.00,1.4489
3603.00,1.4613
3602.00,1.4741
3601.00,1.4876
3600.00,1.5016
3599.00,1.5159
3598.00,1.5304
3597.00,1.5449
3596.00,1.5597
3595.00,1.5748
3594.00,1.5904
3593.00,1.6066
3592.00,1.6227
3591.00,1.6382
3590.00,1.6530
3589.00,1.6679
3588.00,1.6833
3587.00,1.6994
3586.00,1.7156
3585.00,1.7314
3584.00,1.7466
3583.00,1.7612
3582.00,1.7754
3581.00,1.7895
3580.00,1.8035
3579.00,1.8174
3578.00,1.8311
3577.00,1.8447
3576.00,1.8581
3575.00,1.8711
3574.00,1.8839
3573.00,1.8965
3572.00,1.9088
3571.00,1.9205
3570.00,1.9314
3569.00,1.9417
3568.00,1.9517
3567.00,1.9615
3566.00,1.9712
3565.00,1.9808
3564.00,1.9899
3563.00,1.9980
3562.00,2.0051
3561.00,2.0121
3560.00,2.0196
3559.00,2.0270
3558.00,2.0338
3557.00,2.0400
3556.00,2.0455
3555.00,2.0505
3554.00,2.0552
3553.00,2.0593
3552.00,2.0629
3551.00,2.0659
3550.00,2.0688
3549.00,2.0718
3548.00,2.0747
3547.00,2.0772
3546.00,2.0796
3545.00,2.0821
3544.00,2.0844
3543.00,2.0857
3542.00,2.0858
3541.00,2.0856
3540.00,2.0856
3539.00,2.0857
3538.00,2.0853
3537.00,2.0841
3536.00,2.0821
3535.00,2.0796
3534.00,2.0771
3533.00,2.0747
3532.00,2.0721
3531.00,2.0689
3530.00,2.0649
3529.00,2.0605
3528.00,2.0560
3527.00,2.0518
3526.00,2.0478
3525.00,2.0439
3524.00,2.0392
3523.00,2.0333
3522.00,2.0265
3521.00,2.0197
3520.00,2.0133
3519.00,2.0072
3518.00,2.0009
3517.00,1.9941
3516.00,1.9864
3515.00,1.9780
3514.00,1.9692
3513.00,1.9606
3512.00,1.9520
3511.00,1.9429
3510.00,1.9328
3509.00,1.9223
3508.00,1.9117
3507.00,1.9013
3506.00,1.8908
3505.00,1.8803
3504.00,1.8695
3503.00,1.8581
3502.00,1.8462
3501.00,1.8341
3500.00,1.8217
3499.00,1.8092
3498.00,1.7965
3497.00,1.7839
3496.00,1.7712
3495.00,1.7584
3494.00,1.7455
3493.00,1.7326
3492.00,1.7199
3491.00,1.7073
3490.00,1.6949
3489.00,1.6829
3488.00,1.6712
3487.00,1.6599
3486.00,1.6492
3485.00,1.6391
3484.00,1.6296
3483.00,1.6205
3482.00,1.6120
3481.00,1.6041
3480.00,1.5971
3479.00,1.5910
3478.00,1.5859
3477.00,1.5817
3476.00,1.5785
3475.00,1.5760
3474.00,1.5742
3473.00,1.5734
3472.00,1.5734
3471.00,1.5742
3470.00,1.5761
3469.00,1.5789
3468.00,1.5828
3467.00,1.5878
3466.00,1.5938
3465.00,1.6008
3464.00,1.6086
3463.00,1.6169
3462.00,1.6258
3461.00,1.6354
3460.00,1.6456
3459.00,1.6564
3458.00,1.6677
3457.00,1.6794
3456.00,1.6916
3455.00,1.7042
3454.00,1.7172
3453.00,1.7305
3452.00,1.7441
3451.00,1.7578
3450.00,1.7715
3449.00,1.7852
3448.00,1.7990
3447.00,1.8128
3446.00,1.8265
3445.00,1.8401
3444.00,1.8538
3443.00,1.8674
3442.00,1.8811
3441.00,1.8948
3440.00,1.9084
3439.00,1.9216
3438.00,1.9342
3437.00,1.9464
3436.00,1.9582
3435.00,1.9694
3434.00,1.9803
3433.00,1.9912
3432.00,2.0023
3431.00,2.0133
3430.00,2.0238
3429.00,2.0335
3428.00,2.0424
3427.00,2.0508
3426.00,2.0591
3425.00,2.0676
3424.00,2.0758
3423.00,2.0836
3422.00,2.0910
3421.00,2.0981
3420.00,2.1049
3419.00,2.1111
3418.00,2.1165
3417.00,2.1215
3416.00,2.1263
3415.00,2.1310
3414.00,2.1353
3413.00,2.1391
3412.00,2.1424
3411.00,2.1448
3410.00,2.1465
3409.00,2.1480
3408.00,2.1496
3407.00,2.1511
3406.00,2.1523
3405.00,2.1526
3404.00,2.1523
3403.00,2.1513
3402.00,2.1502
3401.00,2.1490
3400.00,2.1470
3399.00,2.1442
3398.00,2.1410
3397.00,2.1378
3396.00,2.1345
3395.00,2.1303
3394.00,2.1251
3393.00,2.1194
3392.00,2.1138
3391.00,2.1083
3390.00,2.1025
3389.00,2.0963
3388.00,2.0895
3387.00,2.0819
3386.00,2.0736
3385.00,2.0647
3384.00,2.0551
3383.00,2.0448
3382.00,2.0343
3381.00,2.0238
3380.00,2.0135
3379.00,2.0026
3378.00,1.9909
3377.00,1.9783
3376.00,1.9648
3375.00,1.9505
3374.00,1.9358
3373.00,1.9211
3372.00,1.9065
3371.00,1.8916
3370.00,1.8759
3369.00,1.8593
3368.00,1.8421
3367.00,1.8245
3366.00,1.8067
3365.00,1.7887
3364.00,1.7701
3363.00,1.7510
3362.00,1.7316
3361.00,1.7122
3360.00,1.6928
3359.00,1.6733
3358.00,1.6537
3357.00,1.6342
3356.00,1.6149
3355.00,1.5960
3354.00,1.5778
3353.00,1.5604
3352.00,1.5436
3351.00,1.5274
3350.00,1.5121
3349.00,1.4978
3348.00,1.4848
3347.00,1.4731
3346.00,1.4627
3345.00,1.4536
3344.00,1.4459
3343.00,1.4399
3342.00,1.4356
3341.00,1.4330
3340.00,1.4320
3339.00,1.4325
3338.00,1.4346
3337.00,1.4385
3336.00,1.4439
3335.00,1.4509
3334.00,1.4593
3333.00,1.4689
3332.00,1.4799
3331.00,1.4920
3330.00,1.5055
3329.00,1.5201
3328.00,1.5357
3327.00,1.5519
3326.00,1.5686
3325.00,1.5858
3324.00,1.6034
3323.00,1.6214
3322.00,1.6399
3321.00,1.6588
3320.00,1.6778
3319.00,1.6966
3318.00,1.7154
3317.00,1.7341
3316.00,1.7528
3315.00,1.7714
3314.00,1.7898
3313.00,1.8080
3312.00,1.8260
3311.00,1.8438
3310.00,1.8613
3309.00,1.8784
3308.00,1.8949
3307.00,1.9108
3306.00,1.9260
3305.00,1.9409
3304.00,1.9556
3303.00,1.9699
3302.00,1.9836
3301.00,1.9969
3300.00,2.0096
3299.00,2.0217
3298.00,2.0333
3297.00,2.0445
3296.00,2.0552
3295.00,2.0652
3294.00,2.0746
3293.00,2.0834
3292.00,2.0916
3291.00,2.0990
3290.00,2.1057
3289.00,2.1121
3288.00,2.1180
3287.00,2.1231
3286.00,2.1275
3285.00,2.1320
3284.00,2.1369
3283.00,2.1419
3282.00,2.1463
3281.00,2.1497
3280.00,2.1521
3279.00,2.1539
3278.00,2.1555
3277.00,2.1567
3276.00,2.1572
3275.00,2.1567
3274.00,2.1557
3273.00,2.1548
3272.00,2.1541
3271.00,2.1532
3270.00,2.1517
3269.00,2.1498
3268.00,2.1473
3267.00,2.1442
3266.00,2.1406
3265.00,2.1366
3264.00,2.1323
3263.00,2.1274
3262.00,2.1219
3261.00,2.1161
3260.00,2.1101
3259.00,2.1040
3258.00,2.0977
3257.00,2.0907
3256.00,2.0826
3255.00,2.0732
3254.00,2.0631
3253.00,2.0529
3252.00,2.0429
3251.00,2.0328
3250.00,2.0221
3249.00,2.0105
3248.00,1.9982
3247.00,1.9854
3246.00,1.9725
3245.00,1.9596
3244.00,1.9463
3243.00,1.9324
3242.00,1.9178
3241.00,1.9028
3240.00,1.8876
3239.00,1.8718
3238.00,1.8555
3237.00,1.8389
3236.00,1.8219
3235.00,1.8047
3234.00,1.7872
3233.00,1.7698
3232.00,1.7527
3231.00,1.7355
3230.00,1.7182
3229.00,1.7007
3228.00,1.6832
3227.00,1.6661
3226.00,1.6496
3225.00,1.6339
3224.00,1.6189
3223.00,1.6047
3222.00,1.5911
3221.00,1.5786
3220.00,1.5673
3219.00,1.5571
3218.00,1.5481
3217.00,1.5405
3216.00,1.5342
3215.00,1.5292
3214.00,1.5254
3213.00,1.5228
3212.00,1.5219
3211.00,1.5226
3210.00,1.5249
3209.00,1.5287
3208.00,1.5338
3207.00,1.5402
3206.00,1.5480
3205.00,1.5573
3204.00,1.5680
3203.00,1.5798
3202.00,1.5924
3201.00,1.6059
3200.00,1.6201
3199.00,1.6351
3198.00,1.6507
3197.00,1.6670
3196.00,1.6837
3195.00,1.7009
3194.00,1.7184
3193.00,1.7363
3192.00,1.7543
3191.00,1.7725
3190.00,1.7909
3189.00,1.8093
3188.00,1.8275
3187.00,1.8453
3186.00,1.8628
3185.00,1.8801
3184.00,1.8974
3183.00,1.9147
3182.00,1.9318
3181.00,1.9487
3180.00,1.9649
3179.00,1.9803
3178.00,1.9948
3177.00,2.0088
3176.00,2.0223
3175.00,2.0354
3174.00,2.0481
3173.00,2.0604
3172.00,2.0724
3171.00,2.0839
3170.00,2.0948
3169.00,2.1052
3168.00,2.1150
3167.00,2.1242
3166.00,2.1329
3165.00,2.1411
3164.00,2.1488
3163.00,2.1558
3162.00,2.1624
3161.00,2.1685
3160.00,2.1739
3159.00,2.1784
3158.00,2.1821
3157.00,2.1859
3156.00,2.1905
3155.00,2.1960
3154.00,2.2021
3153.00,2.2077
3152.00,2.2119
3151.00,2.2143
3150.00,2.2152
3149.00,2.2151
3148.00,2.2146
3147.00,2.2145
3146.00,2.2150
3145.00,2.2156
3144.00,2.2155
3143.00,2.2148
3142.00,2.2140
3141.00,2.2131
3140.00,2.2115
3139.00,2.2086
3138.00,2.2046
3137.00,2.2002
3136.00,2.1956
3135.00,2.1907
3134.00,2.1854
3133.00,2.1797
3132.00,2.1731
3131.00,2.1656
3130.00,2.1576
3129.00,2.1496
3128.00,2.1415
3127.00,2.1327
3126.00,2.1230
3125.00,2.1129
3124.00,2.1023
3123.00,2.0911
3122.00,2.0793
3121.00,2.0670
3120.00,2.0542
3119.00,2.0408
3118.00,2.0264
3117.00,2.0110
3116.00,1.9949
3115.00,1.9784
3114.00,1.9618
3113.00,1.9450
3112.00,1.9278
3111.00,1.9100
3110.00,1.8918
3109.00,1.8731
3108.00,1.8540
3107.00,1.8343
3106.00,1.8143
3105.00,1.7943
3104.00,1.7743
3103.00,1.7545
3102.00,1.7348
3101.00,1.7154
3100.00,1.6964
3099.00,1.6782
3098.00,1.6610
3097.00,1.6449
3096.00,1.6299
3095.00,1.6163
3094.00,1.6041
3093.00,1.5935
3092.00,1.5846
3091.00,1.5774
3090.00,1.5719
3089.00,1.5683
3088.00,1.5666
3087.00,1.5669
3086.00,1.5693
3085.00,1.5738
3084.00,1.5801
3083.00,1.5881
3082.00,1.5977
3081.00,1.6090
3080.00,1.6219
3079.00,1.6363
3078.00,1.6522
3077.00,1.6694
3076.00,1.6878
3075.00,1.7072
3074.00,1.7272
3073.00,1.7479
3072.00,1.7693
3071.00,1.7911
3070.00,1.8129
3069.00,1.8346
3068.00,1.8563
3067.00,1.8779
3066.00,1.8995
3065.00,1.9212
3064.00,1.9425
3063.00,1.9631
3062.00,1.9828
3061.00,2.0020
3060.00,2.0208
3059.00,2.0392
3058.00,2.0574
3057.00,2.0752
3056.00,2.0927
3055.00,2.1095
3054.00,2.1255
3053.00,2.1405
3052.00,2.1543
3051.00,2.1673
3050.00,2.1797
3049.00,2.1920
3048.00,2.2039
3047.00,2.2149
3046.00,2.2250
3045.00,2.2345
3044.00,2.2434
3043.00,2.2514
3042.00,2.2585
3041.00,2.2650
3040.00,2.2710
3039.00,2.2766
3038.00,2.2820
3037.00,2.2875
3036.00,2.2927
3035.00,2.2968
3034.00,2.2992
3033.00,2.3002
3032.00,2.3004
3031.00,2.2999
3030.00,2.2989
3029.00,2.2972
3028.00,2.2948
3027.00,2.2915
3026.00,2.2876
3025.00,2.2829
3024.00,2.2771
3023.00,2.2697
3022.00,2.2616
3021.00,2.2535
3020.00,2.2452
3019.00,2.2359
3018.00,2.2251
3017.00,2.2127
3016.00,2.1992
3015.00,2.1848
3014.00,2.1695
3013.00,2.1534
3012.00,2.1362
3011.00,2.1176
3010.00,2.0979
3009.00,2.0773
3008.00,2.0558
3007.00,2.0335
3006.00,2.0106
3005.00,1.9877
3004.00,1.9652
3003.00,1.9434
3002.00,1.9229
3001.00,1.9041
3000.00,1.8878
2999.00,1.8743
2998.00,1.8644
2997.00,1.8589
2996.00,1.8583
2995.00,1.8630
2994.00,1.8732
2993.00,1.8891
2992.00,1.9104
2991.00,1.9369
2990.00,1.9682
2989.00,2.0040
2988.00,2.0437
2987.00,2.0863
2986.00,2.1309
2985.00,2.1768
2984.00,2.2240
2983.00,2.2729
2982.00,2.3237
2981.00,2.3759
2980.00,2.4283
2979.00,2.4799
2978.00,2.5307
2977.00,2.5817
2976.00,2.6337
2975.00,2.6866
2974.00,2.7411
2973.00,2.7988
2972.00,2.8602
2971.00,2.9251
2970.00,2.9937
2969.00,3.0667
2968.00,3.1436
2967.00,3.2209
2966.00,3.2941
2965.00,3.3621
2964.00,3.4265
2963.00,3.4871
2962.00,3.5362
2961.00,3.5619
2960.00,3.5624
2959.00,3.5539
2958.00,3.5558
2957.00,3.5771
2956.00,3.6174
2955.00,3.6729
2954.00,3.7361
2953.00,3.7892
2952.00,3.8128
2951.00,3.8083
2950.00,3.8022
2949.00,3.8234
2948.00,3.8876
2947.00,3.9969
2946.00,4.1476
2945.00,4.3236
2944.00,4.4197
2943.00,4.3856
2942.00,4.3414
2941.00,4.3857
2940.00,4.4906
2939.00,4.5932
2938.00,4.8133
2937.00,4.9208
2936.00,4.6293
2935.00,4.4406
2934.00,4.4322
2933.00,4.6130
2932.00,4.6966
2931.00,4.6490
2930.00,4.5729
2929.00,4.5198
2928.00,4.5472
2927.00,4.6533
2926.00,4.5482
2925.00,4.3144
2924.00,4.1255
2923.00,4.0488
2922.00,4.0142
2921.00,3.9610
2920.00,3.8790
2919.00,3.7749
2918.00,3.6726
2917.00,3.5865
2916.00,3.5186
2915.00,3.4659
2914.00,3.4211
2913.00,3.3759
2912.00,3.3252
2911.00,3.2712
2910.00,3.2225
2909.00,3.1850
2908.00,3.1556
2907.00,3.1267
2906.00,3.0954
2905.00,3.0651
2904.00,3.0385
2903.00,3.0127
2902.00,2.9835
2901.00,2.9506
2900.00,2.9183
2899.00,2.8905
2898.00,2.8686
2897.00,2.8507
2896.00,2.8336
2895.00,2.8154
2894.00,2.7966
2893.00,2.7796
2892.00,2.7661
2891.00,2.7560
2890.00,2.7484
2889.00,2.7430
2888.00,2.7410
2887.00,2.7432
2886.00,2.7500
2885.00,2.7609
2884.00,2.7754
2883.00,2.7938
2882.00,2.8165
2881.00,2.8436
2880.00,2.8745
2879.00,2.9095
2878.00,2.9494
2877.00,2.9940
2876.00,3.0415
2875.00,3.0904
2874.00,3.1415
2873.00,3.1961
2872.00,3.2541
2871.00,3.3154
2870.00,3.3837
2869.00,3.4630
2868.00,3.5486
2867.00,3.6256
2866.00,3.6855
2865.00,3.7326
2864.00,3.7625
2863.00,3.7637
2862.00,3.7420
2861.00,3.7149
2860.00,3.6841
2859.00,3.6363
2858.00,3.5645
2857.00,3.4720
2856.00,3.3665
2855.00,3.2548
2854.00,3.1423
2853.00,3.0329
2852.00,2.9276
2851.00,2.8269
2850.00,2.7322
2849.00,2.6450
2848.00,2.5667
2847.00,2.4979
2846.00,2.4395
2845.00,2.3922
2844.00,2.3562
2843.00,2.3305
2842.00,2.3136
2841.00,2.3048
2840.00,2.3031
2839.00,2.3075
2838.00,2.3160
2837.00,2.3271
2836.00,2.3393
2835.00,2.3519
2834.00,2.3642
2833.00,2.3757
2832.00,2.3866
2831.00,2.3976
2830.00,2.4086
2829.00,2.4190
2828.00,2.4277
2827.00,2.4339
2826.00,2.4376
2825.00,2.4393
2824.00,2.4398
2823.00,2.4398
2822.00,2.4398
2821.00,2.4395
2820.00,2.4388
2819.00,2.4379
2818.00,2.4370
2817.00,2.4355
2816.00,2.4326
2815.00,2.4282
2814.00,2.4230
2813.00,2.4177
2812.00,2.4117
2811.00,2.4041
2810.00,2.3951
2809.00,2.3853
2808.00,2.3750
2807.00,2.3639
2806.00,2.3517
2805.00,2.3387
2804.00,2.3250
2803.00,2.3107
2802.00,2.2957
2801.00,2.2802
2800.00,2.2646
2799.00,2.2489
2798.00,2.2326
2797.00,2.2152
2796.00,2.1964
2795.00,2.1760
2794.00,2.1539
2793.00,2.1297
2792.00,2.1032
2791.00,2.0745
2790.00,2.0441
2789.00,2.0123
2788.00,1.9790
2787.00,1.9443
2786.00,1.9084
2785.00,1.8717
2784.00,1.8343
2783.00,1.7963
2782.00,1.7580
2781.00,1.7200
2780.00,1.6829
2779.00,1.6468
2778.00,1.6121
2777.00,1.5789
2776.00,1.5478
2775.00,1.5191
2774.00,1.4936
2773.00,1.4719
2772.00,1.4544
2771.00,1.4416
2770.00,1.4336
2769.00,1.4306
2768.00,1.4324
2767.00,1.4388
2766.00,1.4496
2765.00,1.4642
2764.00,1.4821
2763.00,1.5027
2762.00,1.5256
2761.00,1.5505
2760.00,1.5769
2759.00,1.6044
2758.00,1.6330
2757.00,1.6627
2756.00,1.6935
2755.00,1.7252
2754.00,1.7576
2753.00,1.7903
2752.00,1.8229
2751.00,1.8554
2750.00,1.8878
2749.00,1.9199
2748.00,1.9515
2747.00,1.9822
2746.00,2.0115
2745.00,2.0399
2744.00,2.0673
2743.00,2.0938
2742.00,2.1192
2741.00,2.1437
2740.00,2.1670
2739.00,2.1888
2738.00,2.2085
2737.00,2.2262
2736.00,2.2426
2735.00,2.2585
2734.00,2.2741
2733.00,2.2891
2732.00,2.3035
2731.00,2.3172
2730.00,2.3304
2729.00,2.3430
2728.00,2.3546
2727.00,2.3649
2726.00,2.3745
2725.00,2.3838
2724.00,2.3924
2723.00,2.4002
2722.00,2.4069
2721.00,2.4128
2720.00,2.4177
2719.00,2.4218
2718.00,2.4252
2717.00,2.4284
2716.00,2.4315
2715.00,2.4343
2714.00,2.4371
2713.00,2.4397
2712.00,2.4416
2711.00,2.4421
2710.00,2.4413
2709.00,2.4397
2708.00,2.4376
2707.00,2.4351
2706.00,2.4322
2705.00,2.4285
2704.00,2.4239
2703.00,2.4183
2702.00,2.4122
2701.00,2.4061
2700.00,2.3998
2699.00,2.3931
2698.00,2.3857
2697.00,2.3774
2696.00,2.3678
2695.00,2.3569
2694.00,2.3452
2693.00,2.3336
2692.00,2.3221
2691.00,2.3102
2690.00,2.2974
2689.00,2.2831
2688.00,2.2676
2687.00,2.2512
2686.00,2.2346
2685.00,2.2176
2684.00,2.2002
2683.00,2.1820
2682.00,2.1637
2681.00,2.1458
2680.00,2.1287
2679.00,2.1116
2678.00,2.0943
2677.00,2.0765
2676.00,2.0583
2675.00,2.0397
2674.00,2.0206
2673.00,2.0011
2672.00,1.9810
2671.00,1.9601
2670.00,1.9383
2669.00,1.9153
2668.00,1.8907
2667.00,1.8636
2666.00,1.8337
2665.00,1.8009
2664.00,1.7659
2663.00,1.7294
2662.00,1.6927
2661.00,1.6566
2660.00,1.6219
2659.00,1.5896
2658.00,1.5602
2657.00,1.5343
2656.00,1.5122
2655.00,1.4940
2654.00,1.4796
2653.00,1.4689
2652.00,1.4618
2651.00,1.4580
2650.00,1.4574
2649.00,1.4598
2648.00,1.4651
2647.00,1.4732
2646.00,1.4839
2645.00,1.4973
2644.00,1.5132
2643.00,1.5315
2642.00,1.5523
2641.00,1.5754
2640.00,1.6009
2639.00,1.6285
2638.00,1.6579
2637.00,1.6888
2636.00,1.7208
2635.00,1.7536
2634.00,1.7867
2633.00,1.8201
2632.00,1.8537
2631.00,1.8871
2630.00,1.9200
2629.00,1.9523
2628.00,1.9840
2627.00,2.0148
2626.00,2.0446
2625.00,2.0733
2624.00,2.1012
2623.00,2.1284
2622.00,2.1546
2621.00,2.1792
2620.00,2.2021
2619.00,2.2239
2618.00,2.2451
2617.00,2.2657
2616.00,2.2848
2615.00,2.3020
2614.00,2.3176
2613.00,2.3323
2612.00,2.3464
2611.00,2.3600
2610.00,2.3730
2609.00,2.3858
2608.00,2.3983
2607.00,2.4099
2606.00,2.4201
2605.00,2.4291
2604.00,2.4374
2603.00,2.4455
2602.00,2.4534
2601.00,2.4613
2600.00,2.4689
2599.00,2.4761
2598.00,2.4832
2597.00,2.4905
2596.00,2.4978
2595.00,2.5044
2594.00,2.5100
2593.00,2.5144
2592.00,2.5174
2591.00,2.5191
2590.00,2.5199
2589.00,2.5209
2588.00,2.5225
2587.00,2.5237
2586.00,2.5236
2585.00,2.5220
2584.00,2.5192
2583.00,2.5158
2582.00,2.5123
2581.00,2.5093
2580.00,2.5075
2579.00,2.5062
2578.00,2.5039
2577.00,2.4994
2576.00,2.4936
2575.00,2.4882
2574.00,2.4840
2573.00,2.4799
2572.00,2.4741
2571.00,2.4661
2570.00,2.4569
2569.00,2.4473
2568.00,2.4377
2567.00,2.4281
2566.00,2.4182
2565.00,2.4076
2564.00,2.3956
2563.00,2.3822
2562.00,2.3678
2561.00,2.3525
2560.00,2.3362
2559.00,2.3190
2558.00,2.3010
2557.00,2.2827
2556.00,2.2641
2555.00,2.2449
2554.00,2.2250
2553.00,2.2038
2552.00,2.1812
2551.00,2.1569
2550.00,2.1311
2549.00,2.1038
2548.00,2.0753
2547.00,2.0459
2546.00,2.0155
2545.00,1.9838
2544.00,1.9506
2543.00,1.9157
2542.00,1.8795
2541.00,1.8424
2540.00,1.8047
2539.00,1.7664
2538.00,1.7276
2537.00,1.6886
2536.00,1.6499
2535.00,1.6116
2534.00,1.5744
2533.00,1.5387
2532.00,1.5047
2531.00,1.4732
2530.00,1.4446
2529.00,1.4196
2528.00,1.3985
2527.00,1.3816
2526.00,1.3691
2525.00,1.3612
2524.00,1.3580
2523.00,1.3594
2522.00,1.3655
2521.00,1.3760
2520.00,1.3908
2519.00,1.4097
2518.00,1.4322
2517.00,1.4581
2516.00,1.4870
2515.00,1.5185
2514.00,1.5521
2513.00,1.5874
2512.00,1.6241
2511.00,1.6615
2510.00,1.6995
2509.00,1.7377
2508.00,1.7761
2507.00,1.8142
2506.00,1.8518
2505.00,1.8889
2504.00,1.9253
2503.00,1.9612
2502.00,1.9963
2501.00,2.0307
2500.00,2.0641
2499.00,2.0961
2498.00,2.1266
2497.00,2.1554
2496.00,2.1828
2495.00,2.2093
2494.00,2.2350
2493.00,2.2598
2492.00,2.2831
2491.00,2.3047
2490.00,2.3246
2489.00,2.3431
2488.00,2.3609
2487.00,2.3784
2486.00,2.3959
2485.00,2.4133
2484.00,2.4298
2483.00,2.4453
2482.00,2.4596
2481.00,2.4726
2480.00,2.4840
2479.00,2.4937
2478.00,2.5023
2477.00,2.5111
2476.00,2.5207
2475.00,2.5310
2474.00,2.5410
2473.00,2.5496
2472.00,2.5560
2471.00,2.5610
2470.00,2.5662
2469.00,2.5725
2468.00,2.5795
2467.00,2.5855
2466.00,2.5897
2465.00,2.5929
2464.00,2.5965
2463.00,2.6011
2462.00,2.6055
2461.00,2.6079
2460.00,2.6071
2459.00,2.6041
2458.00,2.6017
2457.00,2.6012
2456.00,2.6016
2455.00,2.6006
2454.00,2.5978
2453.00,2.5941
2452.00,2.5908
2451.00,2.5878
2450.00,2.5843
2449.00,2.5798
2448.00,2.5743
2447.00,2.5681
2446.00,2.5617
2445.00,2.5558
2444.00,2.5503
2443.00,2.5444
2442.00,2.5376
2441.00,2.5297
2440.00,2.5207
2439.00,2.5104
2438.00,2.4982
2437.00,2.4843
2436.00,2.4696
2435.00,2.4551
2434.00,2.4408
2433.00,2.4259
2432.00,2.4099
2431.00,2.3930
2430.00,2.3759
2429.00,2.3586
2428.00,2.3403
2427.00,2.3203
2426.00,2.2985
2425.00,2.2755
2424.00,2.2517
2423.00,2.2273
2422.00,2.2020
2421.00,2.1754
2420.00,2.1470
2419.00,2.1167
2418.00,2.0846
2417.00,2.0508
2416.00,2.0152
2415.00,1.9774
2414.00,1.9374
2413.00,1.8954
2412.00,1.8519
2411.00,1.8070
2410.00,1.7608
2409.00,1.7136
2408.00,1.6656
2407.00,1.6177
2406.00,1.5705
2405.00,1.5249
2404.00,1.4817
2403.00,1.4416
2402.00,1.4053
2401.00,1.3738
2400.00,1.3476
2399.00,1.3275
2398.00,1.3139
2397.00,1.3070
2396.00,1.3069
2395.00,1.3135
2394.00,1.3264
2393.00,1.3453
2392.00,1.3694
2391.00,1.3983
2390.00,1.4311
2389.00,1.4672
2388.00,1.5057
2387.00,1.5461
2386.00,1.5876
2385.00,1.6295
2384.00,1.6714
2383.00,1.7125
2382.00,1.7524
2381.00,1.7908
2380.00,1.8274
2379.00,1.8618
2378.00,1.8938
2377.00,1.9235
2376.00,1.9513
2375.00,1.9777
2374.00,2.0032
2373.00,2.0281
2372.00,2.0528
2371.00,2.0780
2370.00,2.1041
2369.00,2.1311
2368.00,2.1583
2367.00,2.1850
2366.00,2.2110
2365.00,2.2361
2364.00,2.2601
2363.00,2.2820
2362.00,2.3016
2361.00,2.3194
2360.00,2.3368
2359.00,2.3543
2358.00,2.3718
2357.00,2.3880
2356.00,2.4017
2355.00,2.4134
2354.00,2.4253
2353.00,2.4390
2352.00,2.4543
2351.00,2.4696
2350.00,2.4846
2349.00,2.4993
2348.00,2.5133
2347.00,2.5252
2346.00,2.5345
2345.00,2.5432
2344.00,2.5526
2343.00,2.5621
2342.00,2.5701
2341.00,2.5755
2340.00,2.5798
2339.00,2.5852
2338.00,2.5934
2337.00,2.6022
2336.00,2.6087
2335.00,2.6114
2334.00,2.6113
2333.00,2.6106
2332.00,2.6100
2331.00,2.6088
2330.00,2.6060
2329.00,2.6011
2328.00,2.5949
2327.00,2.5890
2326.00,2.5847
2325.00,2.5824
2324.00,2.5797
2323.00,2.5753
2322.00,2.5688
2321.00,2.5618
2320.00,2.5550
2319.00,2.5480
2318.00,2.5409
2317.00,2.5338
2316.00,2.5274
2315.00,2.5218
2314.00,2.5169
2313.00,2.5122
2312.00,2.5062
2311.00,2.4984
2310.00,2.4893
2309.00,2.4803
2308.00,2.4719
2307.00,2.4633
2306.00,2.4535
2305.00,2.4429
2304.00,2.4323
2303.00,2.4220
2302.00,2.4111
2301.00,2.3984
2300.00,2.3836
2299.00,2.3670
2298.00,2.3496
2297.00,2.3318
2296.00,2.3130
2295.00,2.2925
2294.00,2.2697
2293.00,2.2450
2292.00,2.2191
2291.00,2.1925
2290.00,2.1648
2289.00,2.1352
2288.00,2.1031
2287.00,2.0683
2286.00,2.0309
2285.00,1.9911
2284.00,1.9488
2283.00,1.9041
2282.00,1.8571
2281.00,1.8084
2280.00,1.7586
2279.00,1.7086
2278.00,1.6590
2277.00,1.6106
2276.00,1.5641
2275.00,1.5205
2274.00,1.4807
2273.00,1.4454
2272.00,1.4152
2271.00,1.3905
2270.00,1.3717
2269.00,1.3596
2268.00,1.3544
2267.00,1.3565
2266.00,1.3658
2265.00,1.3821
2264.00,1.4050
2263.00,1.4339
2262.00,1.4679
2261.00,1.5063
2260.00,1.5482
2259.00,1.5929
2258.00,1.6394
2257.00,1.6871
2256.00,1.7354
2255.00,1.7838
2254.00,1.8313
2253.00,1.8774
2252.00,1.9215
2251.00,1.9635
2250.00,2.0038
2249.00,2.0425
2248.00,2.0798
2247.00,2.1160
2246.00,2.1516
2245.00,2.1868
2244.00,2.2217
2243.00,2.2556
2242.00,2.2880
2241.00,2.3184
2240.00,2.3466
2239.00,2.3734
2238.00,2.3999
2237.00,2.4261
2236.00,2.4510
2235.00,2.4737
2234.00,2.4944
2233.00,2.5136
2232.00,2.5317
2231.00,2.5487
2230.00,2.5655
2229.00,2.5827
2228.00,2.5997
2227.00,2.6153
2226.00,2.6289
2225.00,2.6413
2224.00,2.6535
2223.00,2.6659
2222.00,2.6778
2221.00,2.6880
2220.00,2.6958
2219.00,2.7022
2218.00,2.7092
2217.00,2.7182
2216.00,2.7284
2215.00,2.7380
2214.00,2.7462
2213.00,2.7535
2212.00,2.7601
2211.00,2.7650
2210.00,2.7675
2209.00,2.7689
2208.00,2.7703
2207.00,2.7719
2206.00,2.7736
2205.00,2.7757
2204.00,2.7790
2203.00,2.7832
2202.00,2.7870
2201.00,2.7890
2200.00,2.7887
2199.00,2.7865
2198.00,2.7829
2197.00,2.7783
2196.00,2.7732
2195.00,2.7683
2194.00,2.7640
2193.00,2.7599
2192.00,2.7549
2191.00,2.7489
2190.00,2.7432
2189.00,2.7393
2188.00,2.7369
2187.00,2.7337
2186.00,2.7274
2185.00,2.7175
2184.00,2.7058
2183.00,2.6942
2182.00,2.6839
2181.00,2.6748
2180.00,2.6662
2179.00,2.6570
2178.00,2.6458
2177.00,2.6319
2176.00,2.6162
2175.00,2.6002
2174.00,2.5852
2173.00,2.5706
2172.00,2.5553
2171.00,2.5382
2170.00,2.5191
2169.00,2.4983
2168.00,2.4761
2167.00,2.4525
2166.00,2.4277
2165.00,2.4017
2164.00,2.3744
2163.00,2.3454
2162.00,2.3140
2161.00,2.2801
2160.00,2.2439
2159.00,2.2060
2158.00,2.1668
2157.00,2.1261
2156.00,2.0830
2155.00,2.0373
2154.00,1.9890
2153.00,1.9388
2152.00,1.8873
2151.00,1.8351
2150.00,1.7826
2149.00,1.7305
2148.00,1.6796
2147.00,1.6309
2146.00,1.5854
2145.00,1.5444
2144.00,1.5089
2143.00,1.4797
2142.00,1.4578
2141.00,1.4436
2140.00,1.4373
2139.00,1.4389
2138.00,1.4481
2137.00,1.4644
2136.00,1.4872
2135.00,1.5156
2134.00,1.5488
2133.00,1.5859
2132.00,1.6259
2131.00,1.6679
2130.00,1.7113
2129.00,1.7556
2128.00,1.8009
2127.00,1.8470
2126.00,1.8934
2125.00,1.9399
2124.00,1.9860
2123.00,2.0312
2122.00,2.0756
2121.00,2.1190
2120.00,2.1610
2119.00,2.2014
2118.00,2.2402
2117.00,2.2774
2116.00,2.3129
2115.00,2.3466
2114.00,2.3788
2113.00,2.4100
2112.00,2.4402
2111.00,2.4689
2110.00,2.4955
2109.00,2.5200
2108.00,2.5429
2107.00,2.5650
2106.00,2.5866
2105.00,2.6072
2104.00,2.6258
2103.00,2.6430
2102.00,2.6605
2101.00,2.6786
2100.00,2.6951
2099.00,2.7083
2098.00,2.7199
2097.00,2.7329
2096.00,2.7474
2095.00,2.7604
2094.00,2.7698
2093.00,2.7769
2092.00,2.7844
2091.00,2.7932
2090.00,2.8023
2089.00,2.8111
2088.00,2.8201
2087.00,2.8296
2086.00,2.8387
2085.00,2.8453
2084.00,2.8491
2083.00,2.8518
2082.00,2.8556
2081.00,2.8605
2080.00,2.8647
2079.00,2.8671
2078.00,2.8692
2077.00,2.8727
2076.00,2.8779
2075.00,2.8832
2074.00,2.8876
2073.00,2.8910
2072.00,2.8925
2071.00,2.8910
2070.00,2.8866
2069.00,2.8814
2068.00,2.8765
2067.00,2.8717
2066.00,2.8661
2065.00,2.8604
2064.00,2.8562
2063.00,2.8537
2062.00,2.8512
2061.00,2.8469
2060.00,2.8408
2059.00,2.8342
2058.00,2.8274
2057.00,2.8203
2056.00,2.8122
2055.00,2.8031
2054.00,2.7931
2053.00,2.7820
2052.00,2.7694
2051.00,2.7556
2050.00,2.7414
2049.00,2.7273
2048.00,2.7133
2047.00,2.6991
2046.00,2.6832
2045.00,2.6641
2044.00,2.6416
2043.00,2.6169
2042.00,2.5919
2041.00,2.5674
2040.00,2.5433
2039.00,2.5194
2038.00,2.4954
2037.00,2.4703
2036.00,2.4427
2035.00,2.4120
2034.00,2.3788
2033.00,2.3439
2032.00,2.3073
2031.00,2.2685
2030.00,2.2269
2029.00,2.1828
2028.00,2.1363
2027.00,2.0876
2026.00,2.0370
2025.00,1.9849
2024.00,1.9318
2023.00,1.8785
2022.00,1.8254
2021.00,1.7730
2020.00,1.7215
2019.00,1.6713
2018.00,1.6240
2017.00,1.5827
2016.00,1.5502
2015.00,1.5279
2014.00,1.5154
2013.00,1.5116
2012.00,1.5151
2011.00,1.5251
2010.00,1.5417
2009.00,1.5648
2008.00,1.5941
2007.00,1.6287
2006.00,1.6679
2005.00,1.7111
2004.00,1.7575
2003.00,1.8062
2002.00,1.8562
2001.00,1.9070
2000.00,1.9582
1999.00,2.0094
1998.00,2.0601
1997.00,2.1100
1996.00,2.1581
1995.00,2.2026
1994.00,2.2425
1993.00,2.2785
1992.00,2.3131
1991.00,2.3490
1990.00,2.3874
1989.00,2.4278
1988.00,2.4683
1987.00,2.5065
1986.00,2.5416
1985.00,2.5737
1984.00,2.6034
1983.00,2.6306
1982.00,2.6552
1981.00,2.6777
1980.00,2.6984
1979.00,2.7171
1978.00,2.7337
1977.00,2.7489
1976.00,2.7639
1975.00,2.7796
1974.00,2.7958
1973.00,2.8120
1972.00,2.8270
1971.00,2.8398
1970.00,2.8503
1969.00,2.8592
1968.00,2.8674
1967.00,2.8757
1966.00,2.8852
1965.00,2.8964
1964.00,2.9082
1963.00,2.9193
1962.00,2.9296
1961.00,2.9405
1960.00,2.9526
1959.00,2.9644
1958.00,2.9728
1957.00,2.9765
1956.00,2.9763
1955.00,2.9741
1954.00,2.9722
1953.00,2.9718
1952.00,2.9729
1951.00,2.9742
1950.00,2.9744
1949.00,2.9731
1948.00,2.9712
1947.00,2.9696
1946.00,2.9681
1945.00,2.9654
1944.00,2.9605
1943.00,2.9533
1942.00,2.9453
1941.00,2.9393
1940.00,2.9374
1939.00,2.9385
1938.00,2.9389
1937.00,2.9354
1936.00,2.9283
1935.00,2.9197
1934.00,2.9117
1933.00,2.9039
1932.00,2.8954
1931.00,2.8864
1930.00,2.8774
1929.00,2.8682
1928.00,2.8581
1927.00,2.8448
1926.00,2.8271
1925.00,2.8050
1924.00,2.7805
1923.00,2.7556
1922.00,2.7306
1921.00,2.7053
1920.00,2.6810
1919.00,2.6588
1918.00,2.6379
1917.00,2.6161
1916.00,2.5931
1915.00,2.5713
1914.00,2.5515
1913.00,2.5303
1912.00,2.5025
1911.00,2.4666
1910.00,2.4249
1909.00,2.3817
1908.00,2.3390
1907.00,2.2963
1906.00,2.2526
1905.00,2.2059
1904.00,2.1550
1903.00,2.0998
1902.00,2.0408
1901.00,1.9803
1900.00,1.9201
1899.00,1.8609
1898.00,1.8029
1897.00,1.7475
1896.00,1.6972
1895.00,1.6551
1894.00,1.6227
1893.00,1.6001
1892.00,1.5873
1891.00,1.5854
1890.00,1.5957
1889.00,1.6183
1888.00,1.6519
1887.00,1.6953
1886.00,1.7475
1885.00,1.8059
1884.00,1.8662
1883.00,1.9253
1882.00,1.9829
1881.00,2.0396
1880.00,2.0956
1879.00,2.1502
1878.00,2.2036
1877.00,2.2559
1876.00,2.3063
1875.00,2.3542
1874.00,2.3988
1873.00,2.4375
1872.00,2.4680
1871.00,2.4918
1870.00,2.5147
1869.00,2.5416
1868.00,2.5722
1867.00,2.6041
1866.00,2.6370
1865.00,2.6722
1864.00,2.7078
1863.00,2.7406
1862.00,2.7688
1861.00,2.7923
1860.00,2.8121
1859.00,2.8309
1858.00,2.8516
1857.00,2.8745
1856.00,2.8973
1855.00,2.9178
1854.00,2.9363
1853.00,2.9534
1852.00,2.9689
1851.00,2.9814
1850.00,2.9905
1849.00,2.9934
1848.00,2.9864
1847.00,2.9731
1846.00,2.9648
1845.00,2.9700
1844.00,2.9853
1843.00,2.9993
1842.00,3.0084
1841.00,3.0205
1840.00,3.0395
1839.00,3.0598
1838.00,3.0746
1837.00,3.0799
1836.00,3.0776
1835.00,3.0712
1834.00,3.0619
1833.00,3.0509
1832.00,3.0405
1831.00,3.0343
1830.00,3.0342
1829.00,3.0328
1828.00,3.0214
1827.00,3.0044
1826.00,2.9926
1825.00,2.9886
1824.00,2.9860
1823.00,2.9804
1822.00,2.9746
1821.00,2.9713
1820.00,2.9667
1819.00,2.9558
1818.00,2.9375
1817.00,2.9142
1816.00,2.8906
1815.00,2.8691
1814.00,2.8491
1813.00,2.8293
1812.00,2.8097
1811.00,2.7923
1810.00,2.7763
1809.00,2.7584
1808.00,2.7387
1807.00,2.7197
1806.00,2.7013
1805.00,2.6775
1804.00,2.6408
1803.00,2.5888
1802.00,2.5288
1801.00,2.4736
1800.00,2.4286
1799.00,2.3885
1798.00,2.3431
1797.00,2.2879
1796.00,2.2269
1795.00,2.1679
1794.00,2.1170
1793.00,2.0771
1792.00,2.0463
1791.00,2.0238
1790.00,2.0168
1789.00,2.0357
1788.00,2.0784
1787.00,2.1315
1786.00,2.1848
1785.00,2.2390
1784.00,2.3011
1783.00,2.3724
1782.00,2.4495
1781.00,2.5288
1780.00,2.6042
1779.00,2.6714
1778.00,2.7326
1777.00,2.7908
1776.00,2.8441
1775.00,2.8889
1774.00,2.9311
1773.00,2.9832
1772.00,3.0438
1771.00,3.0909
1770.00,3.1115
1769.00,3.1161
1768.00,3.1199
1767.00,3.1292
1766.00,3.1444
1765.00,3.1638
1764.00,3.1843
1763.00,3.2038
1762.00,3.2215
1761.00,3.2360
1760.00,3.2454
1759.00,3.2530
1758.00,3.2620
1757.00,3.2729
1756.00,3.2811
1755.00,3.2836
1754.00,3.2862
1753.00,3.2943
1752.00,3.3065
1751.00,3.3190
1750.00,3.3342
1749.00,3.3594
1748.00,3.3991
1747.00,3.4460
1746.00,3.4914
1745.00,3.5331
1744.00,3.5750
1743.00,3.6292
1742.00,3.7059
1741.00,3.8021
1740.00,3.8983
1739.00,3.9753
1738.00,4.0368
1737.00,4.1057
1736.00,4.1896
1735.00,4.2363
1734.00,4.1956
1733.00,4.1423
1732.00,4.1343
1731.00,4.1696
1730.00,4.2550
1729.00,4.4316
1728.00,4.8108
1727.00,4.8735
1726.00,4.4767
1725.00,4.3620
1724.00,4.4150
1723.00,4.5796
1722.00,4.7338
1721.00,4.7095
1720.00,4.5758
1719.00,4.4323
1718.00,4.3391
1717.00,4.3326
1716.00,4.4499
1715.00,4.8235
1714.00,5.0461
1713.00,4.6793
1712.00,4.5747
1711.00,4.6472
1710.00,5.1170
1709.00,4.9041
1708.00,4.5228
1707.00,4.4095
1706.00,4.3320
1705.00,4.3144
1704.00,4.3606
1703.00,4.4530
1702.00,4.5168
1701.00,4.4002
1700.00,4.2736
1699.00,4.2179
1698.00,4.2037
1697.00,4.2498
1696.00,4.4009
1695.00,4.6311
1694.00,4.5385
1693.00,4.2567
1692.00,4.0598
1691.00,3.9218
1690.00,3.8198
1689.00,3.7345
1688.00,3.6579
1687.00,3.5995
1686.00,3.5740
1685.00,3.5788
1684.00,3.5856
1683.00,3.5508
1682.00,3.4836
1681.00,3.4379
1680.00,3.4239
1679.00,3.4219
1678.00,3.4186
1677.00,3.4104
1676.00,3.3947
1675.00,3.3668
1674.00,3.3241
1673.00,3.2726
1672.00,3.2222
1671.00,3.1773
1670.00,3.1323
1669.00,3.0777
1668.00,3.0080
1667.00,2.9333
1666.00,2.8682
1665.00,2.8152
1664.00,2.7708
1663.00,2.7323
1662.00,2.6954
1661.00,2.6616
1660.00,2.6407
1659.00,2.6407
1658.00,2.6570
1657.00,2.6740
1656.00,2.6806
1655.00,2.6890
1654.00,2.7290
1653.00,2.8194
1652.00,2.8826
1651.00,2.9300
1650.00,2.9738
1649.00,3.0080
1648.00,3.0386
1647.00,3.0637
1646.00,3.0858
1645.00,3.1051
1644.00,3.1242
1643.00,3.1436
1642.00,3.1667
1641.00,3.1791
1640.00,3.1989
1639.00,3.2093
1638.00,3.2105
1637.00,3.2188
1636.00,3.2428
1635.00,3.2702
1634.00,3.2807
1633.00,3.2821
1632.00,3.2933
1631.00,3.3118
1630.00,3.3256
1629.00,3.3292
1628.00,3.3262
1627.00,3.3202
1626.00,3.3108
1625.00,3.2994
1624.00,3.2892
1623.00,3.2843
1622.00,3.2803
1621.00,3.2711
1620.00,3.2597
1619.00,3.2543
1618.00,3.2605
1617.00,3.2740
1616.00,3.2769
1615.00,3.2551
1614.00,3.2263
1613.00,3.2140
1612.00,3.2183
1611.00,3.2229
1610.00,3.2124
1609.00,3.1849
1608.00,3.1504
1607.00,3.1191
1606.00,3.0933
1605.00,3.0701
1604.00,3.0460
1603.00,3.0231
1602.00,3.0035
1601.00,2.9826
1600.00,2.9557
1599.00,2.9236
1598.00,2.8901
1597.00,2.8557
1596.00,2.8194
1595.00,2.7822
1594.00,2.7447
1593.00,2.7057
1592.00,2.6641
1591.00,2.6210
1590.00,2.5759
1589.00,2.5264
1588.00,2.4708
1587.00,2.4106
1586.00,2.3474
1585.00,2.2816
1584.00,2.2141
1583.00,2.1472
1582.00,2.0867
1581.00,2.0344
1580.00,1.9879
1579.00,1.9494
1578.00,1.9306
1577.00,1.9417
1576.00,1.9766
1575.00,2.0086
1574.00,2.0246
1573.00,2.0441
1572.00,2.0832
1571.00,2.1443
1570.00,2.2203
1569.00,2.2959
1568.00,2.3561
1567.00,2.4062
1566.00,2.4624
1565.00,2.5272
1564.00,2.5882
1563.00,2.6296
1562.00,2.6507
1561.00,2.6647
1560.00,2.6923
1559.00,2.7510
1558.00,2.8102
1557.00,2.8258
1556.00,2.8382
1555.00,2.8697
1554.00,2.9098
1553.00,2.9475
1552.00,2.9738
1551.00,2.9894
1550.00,3.0012
1549.00,3.0163
1548.00,3.0375
1547.00,3.0590
1546.00,3.0747
1545.00,3.0827
1544.00,3.0843
1543.00,3.0851
1542.00,3.0972
1541.00,3.1317
1540.00,3.1864
1539.00,3.2288
1538.00,3.2362
1537.00,3.2327
1536.00,3.2374
1535.00,3.2462
1534.00,3.2540
1533.00,3.2586
1532.00,3.2574
1531.00,3.2622
1530.00,3.2820
1529.00,3.3075
1528.00,3.3223
1527.00,3.3162
1526.00,3.2955
1525.00,3.2768
1524.00,3.2694
1523.00,3.2741
1522.00,3.2859
1521.00,3.2897
1520.00,3.2704
1519.00,3.2406
1518.00,3.2257
1517.00,3.2290
1516.00,3.2343
1515.00,3.2281
1514.00,3.2139
1513.00,3.1982
1512.00,3.1763
1511.00,3.1442
1510.00,3.1050
1509.00,3.0700
1508.00,3.0493
1507.00,3.0513
1506.00,3.0683
1505.00,3.0787
1504.00,3.0835
1503.00,3.0886
1502.00,3.0906
1501.00,3.0851
1500.00,3.0695
1499.00,3.0447
1498.00,3.0164
1497.00,2.9873
1496.00,2.9528
1495.00,2.9094
1494.00,2.8617
1493.00,2.8151
1492.00,2.7642
1491.00,2.7009
1490.00,2.6256
1489.00,2.5525
1488.00,2.4970
1487.00,2.4610
1486.00,2.4309
1485.00,2.3986
1484.00,2.3650
1483.00,2.3328
1482.00,2.3069
1481.00,2.2901
1480.00,2.2847
1479.00,2.2903
1478.00,2.3052
1477.00,2.3279
1476.00,2.3604
1475.00,2.4059
1474.00,2.4684
1473.00,2.5525
1472.00,2.6526
1471.00,2.7576
1470.00,2.8621
1469.00,2.9633
1468.00,3.0530
1467.00,3.1241
1466.00,3.1800
1465.00,3.2335
1464.00,3.2888
1463.00,3.3375
1462.00,3.3741
1461.00,3.4004
1460.00,3.4198
1459.00,3.4353
1458.00,3.4571
1457.00,3.4997
1456.00,3.5683
1455.00,3.6592
1454.00,3.7902
1453.00,4.0134
1452.00,4.4239
1451.00,4.9855
1450.00,4.6458
1449.00,4.2082
1448.00,3.9584
1447.00,3.8276
1446.00,3.7339
1445.00,3.6314
1444.00,3.5197
1443.00,3.4217
1442.00,3.3544
1441.00,3.3210
1440.00,3.3137
1439.00,3.3217
1438.00,3.3395
1437.00,3.3677
1436.00,3.4097
1435.00,3.4680
1434.00,3.5495
1433.00,3.6550
1432.00,3.7707
1431.00,3.8582
1430.00,3.8767
1429.00,3.8465
1428.00,3.8198
1427.00,3.8189
1426.00,3.8425
1425.00,3.8822
1424.00,3.9217
1423.00,3.9446
1422.00,3.9428
1421.00,3.9048
1420.00,3.8127
1419.00,3.6820
1418.00,3.5619
1417.00,3.4844
1416.00,3.4467
1415.00,3.4270
1414.00,3.4100
1413.00,3.3927
1412.00,3.3776
1411.00,3.3688
1410.00,3.3703
1409.00,3.3852
1408.00,3.4113
1407.00,3.4377
1406.00,3.4513
1405.00,3.4521
1404.00,3.4510
1403.00,3.4579
1402.00,3.4721
1401.00,3.4805
1400.00,3.4671
1399.00,3.4340
1398.00,3.4056
1397.00,3.4035
1396.00,3.4275
1395.00,3.4560
1394.00,3.4666
1393.00,3.4646
1392.00,3.4703
1391.00,3.4889
1390.00,3.5101
1389.00,3.5189
1388.00,3.5075
1387.00,3.4888
1386.00,3.4876
1385.00,3.5145
1384.00,3.5490
1383.00,3.5588
1382.00,3.5388
1381.00,3.5095
1380.00,3.4875
1379.00,3.4764
1378.00,3.4730
1377.00,3.4736
1376.00,3.4759
1375.00,3.4737
1374.00,3.4591
1373.00,3.4338
1372.00,3.4068
1371.00,3.3837
1370.00,3.3654
1369.00,3.3531
1368.00,3.3470
1367.00,3.3434
1366.00,3.3337
1365.00,3.3082
1364.00,3.2626
1363.00,3.2037
1362.00,3.1479
1361.00,3.1092
1360.00,3.0887
1359.00,3.0777
1358.00,3.0690
1357.00,3.0623
1356.00,3.0615
1355.00,3.0723
1354.00,3.1013
1353.00,3.1538
1352.00,3.2316
1351.00,3.3295
1350.00,3.4349
1349.00,3.5330
1348.00,3.6134
1347.00,3.6702
1346.00,3.6982
1345.00,3.6966
1344.00,3.6733
1343.00,3.6422
1342.00,3.6173
1341.00,3.6110
1340.00,3.6316
1339.00,3.6734
1338.00,3.6986
1337.00,3.6653
1336.00,3.5783
1335.00,3.4686
1334.00,3.3636
1333.00,3.2759
1332.00,3.2069
1331.00,3.1546
1330.00,3.1181
1329.00,3.0991
1328.00,3.0999
1327.00,3.1206
1326.00,3.1581
1325.00,3.2088
1324.00,3.2720
1323.00,3.3490
1322.00,3.4389
1321.00,3.5353
1320.00,3.6280
1319.00,3.7051
1318.00,3.7591
1317.00,3.8003
1316.00,3.8461
1315.00,3.9112
1314.00,4.0039
1313.00,4.1074
1312.00,4.1763
1311.00,4.1596
1310.00,4.0990
1309.00,4.0432
1308.00,3.9703
1307.00,3.8657
1306.00,3.7468
1305.00,3.6291
1304.00,3.5175
1303.00,3.4151
1302.00,3.3242
1301.00,3.2454
1300.00,3.1815
1299.00,3.1383
1298.00,3.1206
1297.00,3.1269
1296.00,3.1498
1295.00,3.1795
1294.00,3.2114
1293.00,3.2451
1292.00,3.2795
1291.00,3.3105
1290.00,3.3361
1289.00,3.3594
1288.00,3.3847
1287.00,3.4123
1286.00,3.4402
1285.00,3.4676
1284.00,3.4935
1283.00,3.5179
1282.00,3.5440
1281.00,3.5756
1280.00,3.6172
1279.00,3.6745
1278.00,3.7485
1277.00,3.8249
1276.00,3.8646
1275.00,3.8508
1274.00,3.8353
1273.00,3.8535
1272.00,3.8812
1271.00,3.8797
1270.00,3.8549
1269.00,3.8454
1268.00,3.8720
1267.00,3.9125
1266.00,3.9273
1265.00,3.9125
1264.00,3.8863
1263.00,3.8506
1262.00,3.8069
1261.00,3.7688
1260.00,3.7523
1259.00,3.7619
1258.00,3.7775
1257.00,3.7749
1256.00,3.7558
1255.00,3.7419
1254.00,3.7516
1253.00,3.7792
1252.00,3.7962
1251.00,3.7774
1250.00,3.7416
1249.00,3.7339
1248.00,3.7652
1247.00,3.8052
1246.00,3.8213
1245.00,3.8094
1244.00,3.7836
1243.00,3.7668
1242.00,3.7783
1241.00,3.8184
1240.00,3.8671
1239.00,3.9031
1238.00,3.9200
1237.00,3.9220
1236.00,3.9145
1235.00,3.9027
1234.00,3.9042
1233.00,3.9479
1232.00,4.0537
1231.00,4.2058
1230.00,4.3040
1229.00,4.2664
1228.00,4.2083
1227.00,4.2031
1226.00,4.2423
1225.00,4.2991
1224.00,4.3743
1223.00,4.4913
1222.00,4.5546
1221.00,4.4887
1220.00,4.4900
1219.00,4.5710
1218.00,4.5620
1217.00,4.3957
1216.00,4.2440
1215.00,4.1548
1214.00,4.0978
1213.00,4.0526
1212.00,4.0175
1211.00,4.0106
1210.00,4.0509
1209.00,4.1306
1208.00,4.1714
1207.00,4.0724
1206.00,3.8914
1205.00,3.7426
1204.00,3.6674
1203.00,3.6601
1202.00,3.6980
1201.00,3.7509
1200.00,3.7814
1199.00,3.7538
1198.00,3.6705
1197.00,3.5711
1196.00,3.4868
1195.00,3.4281
1194.00,3.3927
1193.00,3.3742
1192.00,3.3677
1191.00,3.3688
1190.00,3.3706
1189.00,3.3644
1188.00,3.3461
1187.00,3.3207
1186.00,3.2996
1185.00,3.2935
1184.00,3.3066
1183.00,3.3323
1182.00,3.3549
1181.00,3.3620
1180.00,3.3601
1179.00,3.3669
1178.00,3.3907
1177.00,3.4256
1176.00,3.4607
1175.00,3.4919
1174.00,3.5192
1173.00,3.5329
1172.00,3.5207
1171.00,3.4922
1170.00,3.4749
1169.00,3.4891
1168.00,3.5303
1167.00,3.5707
1166.00,3.5873
1165.00,3.5875
1164.00,3.5957
1163.00,3.6305
1162.00,3.6851
1161.00,3.7247
1160.00,3.7231
1159.00,3.7008
1158.00,3.6925
1157.00,3.7120
1156.00,3.7492
1155.00,3.7806
1154.00,3.7928
1153.00,3.8004
1152.00,3.8296
1151.00,3.9049
1150.00,4.0362
1149.00,4.2265
1148.00,4.3493
1147.00,4.1183
1146.00,3.9127
1145.00,3.8286
1144.00,3.8339
1143.00,3.9073
1142.00,3.9960
1141.00,4.0202
1140.00,4.0157
1139.00,4.0118
1138.00,3.9785
1137.00,3.9535
1136.00,3.9693
1135.00,4.0449
1134.00,4.2138
1133.00,4.5227
1132.00,4.7228
1131.00,4.3962
1130.00,4.1545
1129.00,4.0767
1128.00,4.1492
1127.00,4.3566
1126.00,4.5288
1125.00,4.5369
1124.00,4.7103
1123.00,4.6702
1122.00,4.3755
1121.00,4.2739
1120.00,4.1892
1119.00,4.0973
1118.00,4.0833
1117.00,4.2107
1116.00,4.5865
1115.00,4.6162
1114.00,4.2790
1113.00,4.0826
1112.00,3.9863
1111.00,4.0250
1110.00,4.2709
1109.00,4.7633
1108.00,4.4763
1107.00,4.3167
1106.00,4.3770
1105.00,4.5776
1104.00,4.4082
1103.00,4.1207
1102.00,3.9677
1101.00,3.8851
1100.00,3.8687
1099.00,3.9324
1098.00,4.1006
1097.00,4.3614
1096.00,4.5013
1095.00,4.4672
1094.00,4.6549
1093.00,4.8791
1092.00,4.3791
1091.00,4.2516
1090.00,4.2821
1089.00,4.1992
1088.00,4.0548
1087.00,4.0068
1086.00,4.0619
1085.00,4.1728
1084.00,4.2739
1083.00,4.2801
1082.00,4.1793
1081.00,4.0504
1080.00,3.9650
1079.00,3.9385
1078.00,3.9345
1077.00,3.8889
1076.00,3.8095
1075.00,3.7480
1074.00,3.7191
1073.00,3.7173
1072.00,3.7275
1071.00,3.7253
1070.00,3.7155
1069.00,3.7293
1068.00,3.7740
1067.00,3.8155
1066.00,3.8186
1065.00,3.7998
1064.00,3.7870
1063.00,3.7851
1062.00,3.7900
1061.00,3.8081
1060.00,3.8578
1059.00,3.9442
1058.00,3.9797
1057.00,3.9073
1056.00,3.8308
1055.00,3.7764
1054.00,3.7523
1053.00,3.7787
1052.00,3.8415
1051.00,3.9023
1050.00,3.9197
1049.00,3.8726
1048.00,3.7873
1047.00,3.7006
1046.00,3.6250
1045.00,3.5616
1044.00,3.5117
1043.00,3.4783
1042.00,3.4640
1041.00,3.4665
1040.00,3.4761
1039.00,3.4824
1038.00,3.4804
1037.00,3.4735
1036.00,3.4807
1035.00,3.5213
1034.00,3.5939
1033.00,3.6747
1032.00,3.7352
1031.00,3.7642
1030.00,3.7720
1029.00,3.7779
1028.00,3.7950
1027.00,3.8318
1026.00,3.9064
1025.00,4.0694
1024.00,4.2696
1023.00,4.2100
1022.00,4.0979
1021.00,4.1211
1020.00,4.2417
1019.00,4.3041
1018.00,4.2859
1017.00,4.4782
1016.00,4.8935
1015.00,4.3968
1014.00,4.1657
1013.00,4.1300
1012.00,4.1166
1011.00,4.0923
1010.00,4.1242
1009.00,4.2583
1008.00,4.4721
1007.00,4.7829
1006.00,5.2968
1005.00,5.4507
1004.00,5.1643
1003.00,4.8218
1002.00,4.5142
1001.00,4.3305
1000.00,4.2375
999.00,4.2140
998.00,4.2387
997.00,4.2862
996.00,4.3550
995.00,4.4408
994.00,4.4671
993.00,4.4217
992.00,4.3813
991.00,4.3537
990.00,4.2570
989.00,4.0789
988.00,3.9318
987.00,3.8660
986.00,3.8864
985.00,3.9849
984.00,4.1337
983.00,4.2352
982.00,4.2628
981.00,4.2802
980.00,4.4875
979.00,4.8431
978.00,4.8198
977.00,5.0849
976.00,4.4183
975.00,4.1569
974.00,4.1399
973.00,4.2506
972.00,4.5155
971.00,4.4820
970.00,4.1588
969.00,4.0256
968.00,4.0713
967.00,4.3872
966.00,4.7194
965.00,4.2482
964.00,4.1032
963.00,4.0702
962.00,4.0581
961.00,4.0597
960.00,4.0337
959.00,4.0007
958.00,3.9555
957.00,3.9137
956.00,3.8962
955.00,3.9293
954.00,4.0315
953.00,4.2341
952.00,4.5891
951.00,4.9145
950.00,4.7236
949.00,4.4833
948.00,4.3184
947.00,4.1894
946.00,4.0828
945.00,4.0187
944.00,4.0271
943.00,4.0698
942.00,4.0433
941.00,4.0020
940.00,4.0490
939.00,4.1728
938.00,4.2475
937.00,4.2154
936.00,4.1323
935.00,4.1110
934.00,4.1515
933.00,4.0060
932.00,3.8256
931.00,3.7676
930.00,3.8245
929.00,3.9625
928.00,4.0932
927.00,4.1698
926.00,4.3615
925.00,4.7519
924.00,4.5804
923.00,4.3705
922.00,4.4037
921.00,4.4290
920.00,4.2799
919.00,4.2553
918.00,4.3757
917.00,4.3029
916.00,4.1039
915.00,3.9537
914.00,3.8409
913.00,3.7736
912.00,3.7672
911.00,3.8131
910.00,3.8937
909.00,4.0121
908.00,4.2004
907.00,4.3686
906.00,4.3618
905.00,4.3053
904.00,4.3817
903.00,4.5642
902.00,4.4455
901.00,4.3094
900.00,4.4369
899.00,4.9183
898.00,4.6372
897.00,4.2766
896.00,4.1932
895.00,4.2323
894.00,4.2629
893.00,4.2541
892.00,4.2679
891.00,4.2498
890.00,4.1866
889.00,4.1068
888.00,4.0642
887.00,4.1200
886.00,4.2497
885.00,4.2921
884.00,4.2226
883.00,4.1475
882.00,4.0904
881.00,4.0806
880.00,4.1673
879.00,4.2248
878.00,4.1466
877.00,4.1763
876.00,4.3076
875.00,4.3024
874.00,4.2861
873.00,4.1705
872.00,3.9242
871.00,3.7991
870.00,3.7965
869.00,3.8630
868.00,3.9641
867.00,4.0523
866.00,4.0837
865.00,4.0199
864.00,3.9871
863.00,4.0391
862.00,4.2939
861.00,4.8795
860.00,4.4280
859.00,4.1664
858.00,4.1458
857.00,4.2100
856.00,4.4720
855.00,4.9633
854.00,4.4741
853.00,4.1837
852.00,4.1001
851.00,4.1140
850.00,4.1463
849.00,4.0306
848.00,3.8956
847.00,3.8587
846.00,3.9374
845.00,4.1311
844.00,4.3049
843.00,4.4252
842.00,4.5541
841.00,4.2108
840.00,3.9533
839.00,3.8559
838.00,3.8365
837.00,3.8633
836.00,3.8934
835.00,3.8841
834.00,3.8422
833.00,3.8306
832.00,3.8692
831.00,3.9338
830.00,3.9704
829.00,3.9816
828.00,4.0360
827.00,4.1791
826.00,4.2893
825.00,4.2038
824.00,4.1209
823.00,4.0291
822.00,3.8862
821.00,3.7930
820.00,3.7822
819.00,3.8364
818.00,3.8858
817.00,3.8403
816.00,3.7487
815.00,3.7069
814.00,3.7454
813.00,3.8535
812.00,3.9776
811.00,4.0753
810.00,4.1619
809.00,4.3454
808.00,4.8416
807.00,4.8265
806.00,4.3370
805.00,4.0851
804.00,3.9427
803.00,3.8895
802.00,3.8785
801.00,3.8851
800.00,3.9214
799.00,4.0226
798.00,4.2435
797.00,4.1863
796.00,3.9129
795.00,3.8286
794.00,3.9045
793.00,4.1234
792.00,4.3304
791.00,4.3329
790.00,4.2438
789.00,4.3878
788.00,4.6525
787.00,4.1460
786.00,3.9296
785.00,3.8434
784.00,3.7678
783.00,3.7244
782.00,3.7022
781.00,3.7121
780.00,3.7449
779.00,3.8090
778.00,3.9006
777.00,4.0007
776.00,4.1077
775.00,4.2253
774.00,4.3974
773.00,4.4105
772.00,4.5112
771.00,4.7990
770.00,4.2534
769.00,3.9875
768.00,3.9005
767.00,3.8398
766.00,3.7957
765.00,3.7476
764.00,3.7905
763.00,3.8884
762.00,4.1595
761.00,4.9401
760.00,4.2340
759.00,4.0158
758.00,4.0285
757.00,4.0508
756.00,4.2358
755.00,4.3199
754.00,4.0666
753.00,4.0157
752.00,4.3488
751.00,4.4884
750.00,4.0744
749.00,3.9134
748.00,3.8543
747.00,3.8516
746.00,3.9325
745.00,4.0661
744.00,4.2489
743.00,4.2987
742.00,4.1684
741.00,4.1237
740.00,4.1408
739.00,4.1658
738.00,4.1540
737.00,4.2613
736.00,4.7423
735.00,4.5353
734.00,4.2416
733.00,4.3535
732.00,4.7536
731.00,4.6544
730.00,4.4525
729.00,4.4600
728.00,4.6136
727.00,4.8536
726.00,4.5489
725.00,4.2896
724.00,4.1711
723.00,4.1877
722.00,4.3360
721.00,4.5364
720.00,4.5764
719.00,4.4449
718.00,4.5588
717.00,4.5534
716.00,4.1713
715.00,3.9781
714.00,3.8987
713.00,3.8576
712.00,3.8393
711.00,3.8304
710.00,3.8045
709.00,3.7500
708.00,3.7135
707.00,3.7326
706.00,3.8230
705.00,3.9566
704.00,4.0587
703.00,4.0934
702.00,4.0908
701.00,4.1131
700.00,4.1616
