Created as New Dataset,Sample 095 By Administrator Date Wednesday, November 24 2021
cm-1,A
7502.00,0.9894
7501.00,0.9860
7500.00,0.9811
7499.00,0.9737
7498.00,0.9643
7497.00,0.9543
7496.00,0.9450
7495.00,0.9365
7494.00,0.9286
7493.00,0.9216
7492.00,0.9162
7491.00,0.9125
7490.00,0.9096
7489.00,0.9059
7488.00,0.9005
7487.00,0.8933
7486.00,0.8846
7485.00,0.8749
7484.00,0.8651
7483.00,0.8557
7482.00,0.8471
7481.00,0.8393
7480.00,0.8325
7479.00,0.8266
7478.00,0.8213
7477.00,0.8162
7476.00,0.8112
7475.00,0.8066
7474.00,0.8025
7473.00,0.7988
7472.00,0.7951
7471.00,0.7913
7470.00,0.7874
7469.00,0.7835
7468.00,0.7802
7467.00,0.7775
7466.00,0.7754
7465.00,0.7738
7464.00,0.7727
7463.00,0.7720
7462.00,0.7717
7461.00,0.7716
7460.00,0.7718
7459.00,0.7724
7458.00,0.7736
7457.00,0.7753
7456.00,0.7777
7455.00,0.7813
7454.00,0.7859
7453.00,0.7910
7452.00,0.7961
7451.00,0.8013
7450.00,0.8070
7449.00,0.8132
7448.00,0.8199
7447.00,0.8270
7446.00,0.8345
7445.00,0.8423
7444.00,0.8504
7443.00,0.8589
7442.00,0.8678
7441.00,0.8767
7440.00,0.8853
7439.00,0.8934
7438.00,0.9016
7437.00,0.9105
7436.00,0.9200
7435.00,0.9297
7434.00,0.9389
7433.00,0.9480
7432.00,0.9574
7431.00,0.9672
7430.00,0.9766
7429.00,0.9852
7428.00,0.9932
7427.00,1.0018
7426.00,1.0115
7425.00,1.0216
7424.00,1.0310
7423.00,1.0398
7422.00,1.0485
7421.00,1.0573
7420.00,1.0656
7419.00,1.0728
7418.00,1.0791
7417.00,1.0854
7416.00,1.0919
7415.00,1.0987
7414.00,1.1056
7413.00,1.1127
7412.00,1.1198
7411.00,1.1266
7410.00,1.1326
7409.00,1.1382
7408.00,1.1438
7407.00,1.1497
7406.00,1.1555
7405.00,1.1604
7404.00,1.1642
7403.00,1.1674
7402.00,1.1703
7401.00,1.1729
7400.00,1.1746
7399.00,1.1755
7398.00,1.1760
7397.00,1.1771
7396.00,1.1787
7395.00,1.1804
7394.00,1.1814
7393.00,1.1818
7392.00,1.1819
7391.00,1.1816
7390.00,1.1805
7389.00,1.1784
7388.00,1.1758
7387.00,1.1731
7386.00,1.1701
7385.00,1.1664
7384.00,1.1620
7383.00,1.1573
7382.00,1.1526
7381.00,1.1480
7380.00,1.1436
7379.00,1.1394
7378.00,1.1353
7377.00,1.1308
7376.00,1.1257
7375.00,1.1201
7374.00,1.1140
7373.00,1.1073
7372.00,1.0999
7371.00,1.0919
7370.00,1.0832
7369.00,1.0743
7368.00,1.0652
7367.00,1.0562
7366.00,1.0473
7365.00,1.0381
7364.00,1.0282
7363.00,1.0178
7362.00,1.0075
7361.00,0.9980
7360.00,0.9894
7359.00,0.9809
7358.00,0.9723
7357.00,0.9633
7356.00,0.9539
7355.00,0.9443
7354.00,0.9345
7353.00,0.9248
7352.00,0.9152
7351.00,0.9056
7350.00,0.8962
7349.00,0.8871
7348.00,0.8788
7347.00,0.8709
7346.00,0.8628
7345.00,0.8543
7344.00,0.8459
7343.00,0.8385
7342.00,0.8320
7341.00,0.8260
7340.00,0.8199
7339.00,0.8141
7338.00,0.8090
7337.00,0.8045
7336.00,0.8003
7335.00,0.7960
7334.00,0.7919
7333.00,0.7887
7332.00,0.7867
7331.00,0.7857
7330.00,0.7848
7329.00,0.7838
7328.00,0.7832
7327.00,0.7836
7326.00,0.7849
7325.00,0.7866
7324.00,0.7883
7323.00,0.7904
7322.00,0.7931
7321.00,0.7969
7320.00,0.8015
7319.00,0.8066
7318.00,0.8120
7317.00,0.8177
7316.00,0.8237
7315.00,0.8302
7314.00,0.8371
7313.00,0.8440
7312.00,0.8508
7311.00,0.8576
7310.00,0.8648
7309.00,0.8726
7308.00,0.8808
7307.00,0.8891
7306.00,0.8975
7305.00,0.9063
7304.00,0.9158
7303.00,0.9257
7302.00,0.9357
7301.00,0.9454
7300.00,0.9547
7299.00,0.9637
7298.00,0.9724
7297.00,0.9809
7296.00,0.9888
7295.00,0.9961
7294.00,1.0033
7293.00,1.0106
7292.00,1.0181
7291.00,1.0254
7290.00,1.0324
7289.00,1.0393
7288.00,1.0462
7287.00,1.0530
7286.00,1.0598
7285.00,1.0666
7284.00,1.0735
7283.00,1.0804
7282.00,1.0868
7281.00,1.0925
7280.00,1.0975
7279.00,1.1023
7278.00,1.1072
7277.00,1.1119
7276.00,1.1163
7275.00,1.1202
7274.00,1.1240
7273.00,1.1280
7272.00,1.1318
7271.00,1.1350
7270.00,1.1376
7269.00,1.1396
7268.00,1.1409
7267.00,1.1415
7266.00,1.1418
7265.00,1.1425
7264.00,1.1441
7263.00,1.1461
7262.00,1.1480
7261.00,1.1495
7260.00,1.1512
7259.00,1.1529
7258.00,1.1540
7257.00,1.1535
7256.00,1.1510
7255.00,1.1474
7254.00,1.1435
7253.00,1.1395
7252.00,1.1352
7251.00,1.1304
7250.00,1.1259
7249.00,1.1217
7248.00,1.1176
7247.00,1.1132
7246.00,1.1085
7245.00,1.1034
7244.00,1.0980
7243.00,1.0921
7242.00,1.0861
7241.00,1.0803
7240.00,1.0745
7239.00,1.0687
7238.00,1.0628
7237.00,1.0569
7236.00,1.0507
7235.00,1.0438
7234.00,1.0360
7233.00,1.0275
7232.00,1.0188
7231.00,1.0097
7230.00,1.0002
7229.00,0.9907
7228.00,0.9815
7227.00,0.9724
7226.00,0.9632
7225.00,0.9541
7224.00,0.9454
7223.00,0.9370
7222.00,0.9285
7221.00,0.9199
7220.00,0.9113
7219.00,0.9030
7218.00,0.8948
7217.00,0.8865
7216.00,0.8781
7215.00,0.8696
7214.00,0.8614
7213.00,0.8534
7212.00,0.8455
7211.00,0.8377
7210.00,0.8302
7209.00,0.8232
7208.00,0.8168
7207.00,0.8109
7206.00,0.8054
7205.00,0.8005
7204.00,0.7964
7203.00,0.7930
7202.00,0.7899
7201.00,0.7870
7200.00,0.7843
7199.00,0.7819
7198.00,0.7800
7197.00,0.7788
7196.00,0.7784
7195.00,0.7788
7194.00,0.7797
7193.00,0.7811
7192.00,0.7829
7191.00,0.7853
7190.00,0.7881
7189.00,0.7913
7188.00,0.7952
7187.00,0.7998
7186.00,0.8051
7185.00,0.8108
7184.00,0.8168
7183.00,0.8232
7182.00,0.8299
7181.00,0.8370
7180.00,0.8444
7179.00,0.8522
7178.00,0.8605
7177.00,0.8691
7176.00,0.8777
7175.00,0.8860
7174.00,0.8943
7173.00,0.9026
7172.00,0.9114
7171.00,0.9207
7170.00,0.9305
7169.00,0.9406
7168.00,0.9507
7167.00,0.9608
7166.00,0.9703
7165.00,0.9793
7164.00,0.9880
7163.00,0.9970
7162.00,1.0065
7161.00,1.0161
7160.00,1.0256
7159.00,1.0353
7158.00,1.0452
7157.00,1.0551
7156.00,1.0643
7155.00,1.0723
7154.00,1.0797
7153.00,1.0869
7152.00,1.0944
7151.00,1.1018
7150.00,1.1089
7149.00,1.1158
7148.00,1.1231
7147.00,1.1310
7146.00,1.1391
7145.00,1.1466
7144.00,1.1530
7143.00,1.1585
7142.00,1.1633
7141.00,1.1676
7140.00,1.1716
7139.00,1.1755
7138.00,1.1797
7137.00,1.1840
7136.00,1.1878
7135.00,1.1911
7134.00,1.1937
7133.00,1.1956
7132.00,1.1966
7131.00,1.1968
7130.00,1.1965
7129.00,1.1963
7128.00,1.1963
7127.00,1.1963
7126.00,1.1964
7125.00,1.1964
7124.00,1.1960
7123.00,1.1950
7122.00,1.1931
7121.00,1.1906
7120.00,1.1879
7119.00,1.1849
7118.00,1.1814
7117.00,1.1772
7116.00,1.1723
7115.00,1.1672
7114.00,1.1623
7113.00,1.1573
7112.00,1.1519
7111.00,1.1458
7110.00,1.1390
7109.00,1.1322
7108.00,1.1253
7107.00,1.1183
7106.00,1.1107
7105.00,1.1027
7104.00,1.0945
7103.00,1.0864
7102.00,1.0783
7101.00,1.0696
7100.00,1.0601
7099.00,1.0501
7098.00,1.0401
7097.00,1.0306
7096.00,1.0213
7095.00,1.0117
7094.00,1.0018
7093.00,0.9920
7092.00,0.9825
7091.00,0.9731
7090.00,0.9632
7089.00,0.9529
7088.00,0.9422
7087.00,0.9319
7086.00,0.9221
7085.00,0.9126
7084.00,0.9030
7083.00,0.8933
7082.00,0.8840
7081.00,0.8755
7080.00,0.8677
7079.00,0.8597
7078.00,0.8515
7077.00,0.8433
7076.00,0.8359
7075.00,0.8292
7074.00,0.8230
7073.00,0.8169
7072.00,0.8112
7071.00,0.8062
7070.00,0.8019
7069.00,0.7980
7068.00,0.7944
7067.00,0.7913
7066.00,0.7891
7065.00,0.7877
7064.00,0.7869
7063.00,0.7862
7062.00,0.7858
7061.00,0.7859
7060.00,0.7868
7059.00,0.7883
7058.00,0.7903
7057.00,0.7929
7056.00,0.7964
7055.00,0.8006
7054.00,0.8053
7053.00,0.8100
7052.00,0.8147
7051.00,0.8201
7050.00,0.8261
7049.00,0.8327
7048.00,0.8396
7047.00,0.8469
7046.00,0.8548
7045.00,0.8631
7044.00,0.8716
7043.00,0.8799
7042.00,0.8884
7041.00,0.8975
7040.00,0.9071
7039.00,0.9167
7038.00,0.9260
7037.00,0.9351
7036.00,0.9443
7035.00,0.9539
7034.00,0.9636
7033.00,0.9730
7032.00,0.9821
7031.00,0.9913
7030.00,1.0011
7029.00,1.0113
7028.00,1.0214
7027.00,1.0312
7026.00,1.0407
7025.00,1.0500
7024.00,1.0590
7023.00,1.0674
7022.00,1.0751
7021.00,1.0822
7020.00,1.0891
7019.00,1.0964
7018.00,1.1038
7017.00,1.1112
7016.00,1.1182
7015.00,1.1249
7014.00,1.1316
7013.00,1.1380
7012.00,1.1441
7011.00,1.1500
7010.00,1.1557
7009.00,1.1614
7008.00,1.1665
7007.00,1.1706
7006.00,1.1737
7005.00,1.1765
7004.00,1.1793
7003.00,1.1824
7002.00,1.1855
7001.00,1.1887
7000.00,1.1916
6999.00,1.1936
6998.00,1.1945
6997.00,1.1944
6996.00,1.1936
6995.00,1.1923
6994.00,1.1905
6993.00,1.1885
6992.00,1.1866
6991.00,1.1849
6990.00,1.1832
6989.00,1.1813
6988.00,1.1794
6987.00,1.1775
6986.00,1.1752
6985.00,1.1722
6984.00,1.1687
6983.00,1.1644
6982.00,1.1594
6981.00,1.1535
6980.00,1.1474
6979.00,1.1411
6978.00,1.1347
6977.00,1.1280
6976.00,1.1213
6975.00,1.1146
6974.00,1.1077
6973.00,1.1001
6972.00,1.0918
6971.00,1.0835
6970.00,1.0753
6969.00,1.0671
6968.00,1.0585
6967.00,1.0496
6966.00,1.0404
6965.00,1.0310
6964.00,1.0214
6963.00,1.0116
6962.00,1.0018
6961.00,0.9917
6960.00,0.9816
6959.00,0.9715
6958.00,0.9619
6957.00,0.9526
6956.00,0.9432
6955.00,0.9335
6954.00,0.9239
6953.00,0.9144
6952.00,0.9052
6951.00,0.8959
6950.00,0.8865
6949.00,0.8772
6948.00,0.8681
6947.00,0.8596
6946.00,0.8513
6945.00,0.8431
6944.00,0.8352
6943.00,0.8276
6942.00,0.8207
6941.00,0.8143
6940.00,0.8083
6939.00,0.8027
6938.00,0.7977
6937.00,0.7933
6936.00,0.7894
6935.00,0.7859
6934.00,0.7829
6933.00,0.7805
6932.00,0.7786
6931.00,0.7772
6930.00,0.7764
6929.00,0.7762
6928.00,0.7765
6927.00,0.7775
6926.00,0.7793
6925.00,0.7818
6924.00,0.7849
6923.00,0.7885
6922.00,0.7927
6921.00,0.7975
6920.00,0.8028
6919.00,0.8083
6918.00,0.8142
6917.00,0.8204
6916.00,0.8271
6915.00,0.8340
6914.00,0.8413
6913.00,0.8493
6912.00,0.8579
6911.00,0.8669
6910.00,0.8760
6909.00,0.8852
6908.00,0.8947
6907.00,0.9044
6906.00,0.9138
6905.00,0.9229
6904.00,0.9321
6903.00,0.9418
6902.00,0.9519
6901.00,0.9622
6900.00,0.9723
6899.00,0.9823
6898.00,0.9924
6897.00,1.0025
6896.00,1.0125
6895.00,1.0223
6894.00,1.0319
6893.00,1.0412
6892.00,1.0506
6891.00,1.0603
6890.00,1.0700
6889.00,1.0794
6888.00,1.0884
6887.00,1.0975
6886.00,1.1066
6885.00,1.1155
6884.00,1.1235
6883.00,1.1309
6882.00,1.1383
6881.00,1.1458
6880.00,1.1531
6879.00,1.1595
6878.00,1.1652
6877.00,1.1706
6876.00,1.1761
6875.00,1.1812
6874.00,1.1859
6873.00,1.1900
6872.00,1.1939
6871.00,1.1980
6870.00,1.2019
6869.00,1.2054
6868.00,1.2083
6867.00,1.2109
6866.00,1.2131
6865.00,1.2147
6864.00,1.2154
6863.00,1.2155
6862.00,1.2154
6861.00,1.2151
6860.00,1.2144
6859.00,1.2133
6858.00,1.2122
6857.00,1.2112
6856.00,1.2098
6855.00,1.2076
6854.00,1.2048
6853.00,1.2014
6852.00,1.1972
6851.00,1.1921
6850.00,1.1861
6849.00,1.1800
6848.00,1.1742
6847.00,1.1690
6846.00,1.1641
6845.00,1.1590
6844.00,1.1535
6843.00,1.1475
6842.00,1.1409
6841.00,1.1336
6840.00,1.1255
6839.00,1.1169
6838.00,1.1080
6837.00,1.0993
6836.00,1.0904
6835.00,1.0812
6834.00,1.0713
6833.00,1.0609
6832.00,1.0502
6831.00,1.0397
6830.00,1.0297
6829.00,1.0199
6828.00,1.0101
6827.00,1.0001
6826.00,0.9901
6825.00,0.9799
6824.00,0.9694
6823.00,0.9583
6822.00,0.9473
6821.00,0.9366
6820.00,0.9264
6819.00,0.9165
6818.00,0.9068
6817.00,0.8973
6816.00,0.8881
6815.00,0.8791
6814.00,0.8701
6813.00,0.8611
6812.00,0.8524
6811.00,0.8439
6810.00,0.8360
6809.00,0.8285
6808.00,0.8213
6807.00,0.8146
6806.00,0.8086
6805.00,0.8033
6804.00,0.7986
6803.00,0.7942
6802.00,0.7902
6801.00,0.7867
6800.00,0.7841
6799.00,0.7820
6798.00,0.7803
6797.00,0.7794
6796.00,0.7792
6795.00,0.7797
6794.00,0.7806
6793.00,0.7820
6792.00,0.7840
6791.00,0.7868
6790.00,0.7903
6789.00,0.7946
6788.00,0.7993
6787.00,0.8045
6786.00,0.8101
6785.00,0.8161
6784.00,0.8225
6783.00,0.8293
6782.00,0.8366
6781.00,0.8444
6780.00,0.8526
6779.00,0.8611
6778.00,0.8698
6777.00,0.8786
6776.00,0.8875
6775.00,0.8967
6774.00,0.9063
6773.00,0.9163
6772.00,0.9264
6771.00,0.9365
6770.00,0.9466
6769.00,0.9568
6768.00,0.9672
6767.00,0.9775
6766.00,0.9877
6765.00,0.9977
6764.00,1.0078
6763.00,1.0178
6762.00,1.0276
6761.00,1.0373
6760.00,1.0471
6759.00,1.0569
6758.00,1.0667
6757.00,1.0763
6756.00,1.0854
6755.00,1.0941
6754.00,1.1022
6753.00,1.1098
6752.00,1.1172
6751.00,1.1247
6750.00,1.1325
6749.00,1.1403
6748.00,1.1474
6747.00,1.1538
6746.00,1.1599
6745.00,1.1657
6744.00,1.1709
6743.00,1.1753
6742.00,1.1793
6741.00,1.1836
6740.00,1.1883
6739.00,1.1929
6738.00,1.1970
6737.00,1.2004
6736.00,1.2031
6735.00,1.2054
6734.00,1.2071
6733.00,1.2083
6732.00,1.2088
6731.00,1.2086
6730.00,1.2079
6729.00,1.2070
6728.00,1.2060
6727.00,1.2049
6726.00,1.2034
6725.00,1.2018
6724.00,1.2004
6723.00,1.1990
6722.00,1.1970
6721.00,1.1940
6720.00,1.1901
6719.00,1.1857
6718.00,1.1809
6717.00,1.1758
6716.00,1.1705
6715.00,1.1653
6714.00,1.1601
6713.00,1.1547
6712.00,1.1486
6711.00,1.1417
6710.00,1.1343
6709.00,1.1266
6708.00,1.1189
6707.00,1.1111
6706.00,1.1031
6705.00,1.0949
6704.00,1.0863
6703.00,1.0772
6702.00,1.0678
6701.00,1.0581
6700.00,1.0481
6699.00,1.0382
6698.00,1.0283
6697.00,1.0186
6696.00,1.0089
6695.00,0.9988
6694.00,0.9885
6693.00,0.9781
6692.00,0.9679
6691.00,0.9579
6690.00,0.9480
6689.00,0.9382
6688.00,0.9284
6687.00,0.9185
6686.00,0.9086
6685.00,0.8985
6684.00,0.8885
6683.00,0.8784
6682.00,0.8687
6681.00,0.8594
6680.00,0.8505
6679.00,0.8420
6678.00,0.8339
6677.00,0.8263
6676.00,0.8191
6675.00,0.8123
6674.00,0.8059
6673.00,0.8001
6672.00,0.7947
6671.00,0.7897
6670.00,0.7852
6669.00,0.7811
6668.00,0.7775
6667.00,0.7746
6666.00,0.7724
6665.00,0.7708
6664.00,0.7701
6663.00,0.7701
6662.00,0.7708
6661.00,0.7721
6660.00,0.7737
6659.00,0.7758
6658.00,0.7786
6657.00,0.7821
6656.00,0.7864
6655.00,0.7911
6654.00,0.7963
6653.00,0.8023
6652.00,0.8089
6651.00,0.8160
6650.00,0.8234
6649.00,0.8311
6648.00,0.8393
6647.00,0.8479
6646.00,0.8567
6645.00,0.8656
6644.00,0.8748
6643.00,0.8844
6642.00,0.8942
6641.00,0.9044
6640.00,0.9147
6639.00,0.9252
6638.00,0.9357
6637.00,0.9461
6636.00,0.9566
6635.00,0.9672
6634.00,0.9777
6633.00,0.9883
6632.00,0.9989
6631.00,1.0096
6630.00,1.0203
6629.00,1.0309
6628.00,1.0413
6627.00,1.0517
6626.00,1.0622
6625.00,1.0725
6624.00,1.0824
6623.00,1.0921
6622.00,1.1017
6621.00,1.1110
6620.00,1.1199
6619.00,1.1283
6618.00,1.1366
6617.00,1.1448
6616.00,1.1528
6615.00,1.1605
6614.00,1.1677
6613.00,1.1746
6612.00,1.1809
6611.00,1.1865
6610.00,1.1915
6609.00,1.1963
6608.00,1.2012
6607.00,1.2061
6606.00,1.2109
6605.00,1.2154
6604.00,1.2196
6603.00,1.2234
6602.00,1.2264
6601.00,1.2286
6600.00,1.2302
6599.00,1.2319
6598.00,1.2336
6597.00,1.2352
6596.00,1.2365
6595.00,1.2374
6594.00,1.2377
6593.00,1.2374
6592.00,1.2362
6591.00,1.2341
6590.00,1.2313
6589.00,1.2280
6588.00,1.2245
6587.00,1.2211
6586.00,1.2177
6585.00,1.2137
6584.00,1.2092
6583.00,1.2046
6582.00,1.2001
6581.00,1.1952
6580.00,1.1898
6579.00,1.1836
6578.00,1.1769
6577.00,1.1698
6576.00,1.1620
6575.00,1.1538
6574.00,1.1453
6573.00,1.1365
6572.00,1.1277
6571.00,1.1187
6570.00,1.1097
6569.00,1.1005
6568.00,1.0909
6567.00,1.0807
6566.00,1.0699
6565.00,1.0590
6564.00,1.0483
6563.00,1.0378
6562.00,1.0273
6561.00,1.0168
6560.00,1.0060
6559.00,0.9950
6558.00,0.9837
6557.00,0.9723
6556.00,0.9608
6555.00,0.9493
6554.00,0.9378
6553.00,0.9266
6552.00,0.9154
6551.00,0.9045
6550.00,0.8939
6549.00,0.8837
6548.00,0.8738
6547.00,0.8643
6546.00,0.8553
6545.00,0.8466
6544.00,0.8381
6543.00,0.8299
6542.00,0.8221
6541.00,0.8149
6540.00,0.8084
6539.00,0.8024
6538.00,0.7968
6537.00,0.7918
6536.00,0.7872
6535.00,0.7833
6534.00,0.7800
6533.00,0.7774
6532.00,0.7755
6531.00,0.7744
6530.00,0.7741
6529.00,0.7748
6528.00,0.7761
6527.00,0.7778
6526.00,0.7800
6525.00,0.7828
6524.00,0.7861
6523.00,0.7899
6522.00,0.7944
6521.00,0.7995
6520.00,0.8054
6519.00,0.8120
6518.00,0.8192
6517.00,0.8267
6516.00,0.8344
6515.00,0.8422
6514.00,0.8505
6513.00,0.8592
6512.00,0.8685
6511.00,0.8785
6510.00,0.8889
6509.00,0.8997
6508.00,0.9103
6507.00,0.9208
6506.00,0.9313
6505.00,0.9416
6504.00,0.9518
6503.00,0.9618
6502.00,0.9721
6501.00,0.9828
6500.00,0.9936
6499.00,1.0044
6498.00,1.0152
6497.00,1.0260
6496.00,1.0367
6495.00,1.0468
6494.00,1.0567
6493.00,1.0666
6492.00,1.0767
6491.00,1.0868
6490.00,1.0967
6489.00,1.1065
6488.00,1.1162
6487.00,1.1253
6486.00,1.1337
6485.00,1.1413
6484.00,1.1485
6483.00,1.1554
6482.00,1.1623
6481.00,1.1691
6480.00,1.1758
6479.00,1.1822
6478.00,1.1880
6477.00,1.1931
6476.00,1.1975
6475.00,1.2014
6474.00,1.2054
6473.00,1.2093
6472.00,1.2130
6471.00,1.2165
6470.00,1.2197
6469.00,1.2223
6468.00,1.2241
6467.00,1.2251
6466.00,1.2258
6465.00,1.2264
6464.00,1.2269
6463.00,1.2270
6462.00,1.2266
6461.00,1.2256
6460.00,1.2239
6459.00,1.2216
6458.00,1.2191
6457.00,1.2168
6456.00,1.2146
6455.00,1.2121
6454.00,1.2090
6453.00,1.2056
6452.00,1.2016
6451.00,1.1969
6450.00,1.1915
6449.00,1.1860
6448.00,1.1805
6447.00,1.1749
6446.00,1.1689
6445.00,1.1623
6444.00,1.1551
6443.00,1.1477
6442.00,1.1401
6441.00,1.1321
6440.00,1.1239
6439.00,1.1155
6438.00,1.1070
6437.00,1.0982
6436.00,1.0889
6435.00,1.0791
6434.00,1.0691
6433.00,1.0592
6432.00,1.0493
6431.00,1.0392
6430.00,1.0289
6429.00,1.0186
6428.00,1.0081
6427.00,0.9972
6426.00,0.9862
6425.00,0.9752
6424.00,0.9643
6423.00,0.9532
6422.00,0.9420
6421.00,0.9308
6420.00,0.9198
6419.00,0.9087
6418.00,0.8978
6417.00,0.8871
6416.00,0.8768
6415.00,0.8670
6414.00,0.8576
6413.00,0.8485
6412.00,0.8397
6411.00,0.8312
6410.00,0.8231
6409.00,0.8155
6408.00,0.8083
6407.00,0.8014
6406.00,0.7950
6405.00,0.7895
6404.00,0.7846
6403.00,0.7803
6402.00,0.7764
6401.00,0.7731
6400.00,0.7706
6399.00,0.7688
6398.00,0.7677
6397.00,0.7672
6396.00,0.7675
6395.00,0.7686
6394.00,0.7704
6393.00,0.7730
6392.00,0.7763
6391.00,0.7802
6390.00,0.7847
6389.00,0.7898
6388.00,0.7954
6387.00,0.8016
6386.00,0.8082
6385.00,0.8154
6384.00,0.8231
6383.00,0.8313
6382.00,0.8401
6381.00,0.8493
6380.00,0.8589
6379.00,0.8689
6378.00,0.8790
6377.00,0.8894
6376.00,0.8998
6375.00,0.9104
6374.00,0.9211
6373.00,0.9320
6372.00,0.9429
6371.00,0.9540
6370.00,0.9653
6369.00,0.9768
6368.00,0.9882
6367.00,0.9994
6366.00,1.0106
6365.00,1.0218
6364.00,1.0331
6363.00,1.0442
6362.00,1.0551
6361.00,1.0660
6360.00,1.0768
6359.00,1.0873
6358.00,1.0974
6357.00,1.1070
6356.00,1.1166
6355.00,1.1261
6354.00,1.1357
6353.00,1.1451
6352.00,1.1541
6351.00,1.1627
6350.00,1.1709
6349.00,1.1786
6348.00,1.1861
6347.00,1.1933
6346.00,1.2003
6345.00,1.2072
6344.00,1.2137
6343.00,1.2197
6342.00,1.2252
6341.00,1.2303
6340.00,1.2350
6339.00,1.2394
6338.00,1.2434
6337.00,1.2469
6336.00,1.2498
6335.00,1.2522
6334.00,1.2540
6333.00,1.2553
6332.00,1.2563
6331.00,1.2571
6330.00,1.2577
6329.00,1.2581
6328.00,1.2580
6327.00,1.2576
6326.00,1.2568
6325.00,1.2554
6324.00,1.2535
6323.00,1.2509
6322.00,1.2478
6321.00,1.2443
6320.00,1.2404
6319.00,1.2360
6318.00,1.2313
6317.00,1.2262
6316.00,1.2211
6315.00,1.2158
6314.00,1.2102
6313.00,1.2043
6312.00,1.1979
6311.00,1.1908
6310.00,1.1832
6309.00,1.1750
6308.00,1.1662
6307.00,1.1571
6306.00,1.1478
6305.00,1.1383
6304.00,1.1285
6303.00,1.1184
6302.00,1.1084
6301.00,1.0982
6300.00,1.0877
6299.00,1.0767
6298.00,1.0655
6297.00,1.0542
6296.00,1.0426
6295.00,1.0304
6294.00,1.0181
6293.00,1.0059
6292.00,0.9939
6291.00,0.9819
6290.00,0.9699
6289.00,0.9580
6288.00,0.9462
6287.00,0.9345
6286.00,0.9230
6285.00,0.9117
6284.00,0.9007
6283.00,0.8897
6282.00,0.8789
6281.00,0.8684
6280.00,0.8583
6279.00,0.8487
6278.00,0.8395
6277.00,0.8308
6276.00,0.8225
6275.00,0.8146
6274.00,0.8072
6273.00,0.8004
6272.00,0.7942
6271.00,0.7887
6270.00,0.7839
6269.00,0.7798
6268.00,0.7765
6267.00,0.7739
6266.00,0.7718
6265.00,0.7704
6264.00,0.7696
6263.00,0.7697
6262.00,0.7705
6261.00,0.7721
6260.00,0.7743
6259.00,0.7772
6258.00,0.7808
6257.00,0.7853
6256.00,0.7905
6255.00,0.7963
6254.00,0.8027
6253.00,0.8097
6252.00,0.8173
6251.00,0.8253
6250.00,0.8335
6249.00,0.8422
6248.00,0.8513
6247.00,0.8608
6246.00,0.8707
6245.00,0.8810
6244.00,0.8914
6243.00,0.9020
6242.00,0.9127
6241.00,0.9236
6240.00,0.9347
6239.00,0.9460
6238.00,0.9574
6237.00,0.9690
6236.00,0.9807
6235.00,0.9922
6234.00,1.0034
6233.00,1.0146
6232.00,1.0257
6231.00,1.0369
6230.00,1.0480
6229.00,1.0589
6228.00,1.0696
6227.00,1.0802
6226.00,1.0905
6225.00,1.1006
6224.00,1.1105
6223.00,1.1202
6222.00,1.1296
6221.00,1.1388
6220.00,1.1476
6219.00,1.1561
6218.00,1.1644
6217.00,1.1723
6216.00,1.1796
6215.00,1.1864
6214.00,1.1925
6213.00,1.1983
6212.00,1.2039
6211.00,1.2093
6210.00,1.2147
6209.00,1.2201
6208.00,1.2254
6207.00,1.2303
6206.00,1.2343
6205.00,1.2375
6204.00,1.2400
6203.00,1.2420
6202.00,1.2436
6201.00,1.2447
6200.00,1.2456
6199.00,1.2464
6198.00,1.2469
6197.00,1.2470
6196.00,1.2468
6195.00,1.2464
6194.00,1.2458
6193.00,1.2448
6192.00,1.2433
6191.00,1.2415
6190.00,1.2396
6189.00,1.2374
6188.00,1.2345
6187.00,1.2309
6186.00,1.2266
6185.00,1.2221
6184.00,1.2173
6183.00,1.2122
6182.00,1.2068
6181.00,1.2010
6180.00,1.1949
6179.00,1.1884
6178.00,1.1814
6177.00,1.1741
6176.00,1.1664
6175.00,1.1586
6174.00,1.1505
6173.00,1.1421
6172.00,1.1332
6171.00,1.1239
6170.00,1.1143
6169.00,1.1045
6168.00,1.0944
6167.00,1.0842
6166.00,1.0737
6165.00,1.0630
6164.00,1.0518
6163.00,1.0403
6162.00,1.0287
6161.00,1.0171
6160.00,1.0054
6159.00,0.9934
6158.00,0.9812
6157.00,0.9690
6156.00,0.9570
6155.00,0.9449
6154.00,0.9327
6153.00,0.9208
6152.00,0.9092
6151.00,0.8981
6150.00,0.8871
6149.00,0.8763
6148.00,0.8657
6147.00,0.8554
6146.00,0.8455
6145.00,0.8361
6144.00,0.8270
6143.00,0.8184
6142.00,0.8104
6141.00,0.8032
6140.00,0.7967
6139.00,0.7906
6138.00,0.7850
6137.00,0.7799
6136.00,0.7756
6135.00,0.7718
6134.00,0.7688
6133.00,0.7667
6132.00,0.7654
6131.00,0.7651
6130.00,0.7656
6129.00,0.7668
6128.00,0.7687
6127.00,0.7713
6126.00,0.7748
6125.00,0.7790
6124.00,0.7838
6123.00,0.7893
6122.00,0.7954
6121.00,0.8020
6120.00,0.8091
6119.00,0.8166
6118.00,0.8247
6117.00,0.8334
6116.00,0.8427
6115.00,0.8524
6114.00,0.8625
6113.00,0.8730
6112.00,0.8839
6111.00,0.8950
6110.00,0.9062
6109.00,0.9175
6108.00,0.9291
6107.00,0.9409
6106.00,0.9529
6105.00,0.9649
6104.00,0.9770
6103.00,0.9891
6102.00,1.0012
6101.00,1.0132
6100.00,1.0252
6099.00,1.0372
6098.00,1.0494
6097.00,1.0616
6096.00,1.0736
6095.00,1.0853
6094.00,1.0965
6093.00,1.1073
6092.00,1.1177
6091.00,1.1279
6090.00,1.1379
6089.00,1.1480
6088.00,1.1580
6087.00,1.1678
6086.00,1.1771
6085.00,1.1860
6084.00,1.1946
6083.00,1.2028
6082.00,1.2106
6081.00,1.2180
6080.00,1.2251
6079.00,1.2318
6078.00,1.2379
6077.00,1.2434
6076.00,1.2485
6075.00,1.2534
6074.00,1.2583
6073.00,1.2630
6072.00,1.2671
6071.00,1.2707
6070.00,1.2738
6069.00,1.2763
6068.00,1.2783
6067.00,1.2795
6066.00,1.2804
6065.00,1.2810
6064.00,1.2815
6063.00,1.2815
6062.00,1.2809
6061.00,1.2800
6060.00,1.2788
6059.00,1.2774
6058.00,1.2755
6057.00,1.2730
6056.00,1.2701
6055.00,1.2666
6054.00,1.2629
6053.00,1.2588
6052.00,1.2543
6051.00,1.2495
6050.00,1.2443
6049.00,1.2386
6048.00,1.2323
6047.00,1.2255
6046.00,1.2183
6045.00,1.2107
6044.00,1.2028
6043.00,1.1945
6042.00,1.1859
6041.00,1.1769
6040.00,1.1677
6039.00,1.1583
6038.00,1.1483
6037.00,1.1377
6036.00,1.1267
6035.00,1.1154
6034.00,1.1039
6033.00,1.0921
6032.00,1.0802
6031.00,1.0682
6030.00,1.0560
6029.00,1.0436
6028.00,1.0309
6027.00,1.0182
6026.00,1.0055
6025.00,0.9929
6024.00,0.9801
6023.00,0.9671
6022.00,0.9541
6021.00,0.9413
6020.00,0.9287
6019.00,0.9162
6018.00,0.9040
6017.00,0.8923
6016.00,0.8808
6015.00,0.8695
6014.00,0.8584
6013.00,0.8477
6012.00,0.8375
6011.00,0.8278
6010.00,0.8186
6009.00,0.8100
6008.00,0.8020
6007.00,0.7947
6006.00,0.7881
6005.00,0.7822
6004.00,0.7770
6003.00,0.7726
6002.00,0.7690
6001.00,0.7662
6000.00,0.7641
5999.00,0.7627
5998.00,0.7621
5997.00,0.7622
5996.00,0.7633
5995.00,0.7651
5994.00,0.7677
5993.00,0.7712
5992.00,0.7755
5991.00,0.7805
5990.00,0.7862
5989.00,0.7926
5988.00,0.7996
5987.00,0.8074
5986.00,0.8157
5985.00,0.8247
5984.00,0.8340
5983.00,0.8438
5982.00,0.8539
5981.00,0.8643
5980.00,0.8752
5979.00,0.8864
5978.00,0.8981
5977.00,0.9101
5976.00,0.9223
5975.00,0.9346
5974.00,0.9470
5973.00,0.9596
5972.00,0.9721
5971.00,0.9847
5970.00,0.9974
5969.00,1.0101
5968.00,1.0227
5967.00,1.0352
5966.00,1.0477
5965.00,1.0603
5964.00,1.0729
5963.00,1.0853
5962.00,1.0977
5961.00,1.1098
5960.00,1.1216
5959.00,1.1330
5958.00,1.1440
5957.00,1.1547
5956.00,1.1653
5955.00,1.1756
5954.00,1.1857
5953.00,1.1955
5952.00,1.2050
5951.00,1.2142
5950.00,1.2228
5949.00,1.2309
5948.00,1.2387
5947.00,1.2461
5946.00,1.2532
5945.00,1.2597
5944.00,1.2657
5943.00,1.2712
5942.00,1.2763
5941.00,1.2811
5940.00,1.2855
5939.00,1.2896
5938.00,1.2933
5937.00,1.2967
5936.00,1.2994
5935.00,1.3017
5934.00,1.3036
5933.00,1.3052
5932.00,1.3062
5931.00,1.3066
5930.00,1.3065
5929.00,1.3058
5928.00,1.3048
5927.00,1.3034
5926.00,1.3017
5925.00,1.2996
5924.00,1.2968
5923.00,1.2935
5922.00,1.2897
5921.00,1.2856
5920.00,1.2811
5919.00,1.2765
5918.00,1.2716
5917.00,1.2665
5916.00,1.2609
5915.00,1.2546
5914.00,1.2477
5913.00,1.2402
5912.00,1.2324
5911.00,1.2241
5910.00,1.2158
5909.00,1.2072
5908.00,1.1982
5907.00,1.1887
5906.00,1.1786
5905.00,1.1681
5904.00,1.1571
5903.00,1.1457
5902.00,1.1341
5901.00,1.1225
5900.00,1.1107
5899.00,1.0986
5898.00,1.0860
5897.00,1.0732
5896.00,1.0604
5895.00,1.0475
5894.00,1.0345
5893.00,1.0215
5892.00,1.0086
5891.00,0.9957
5890.00,0.9829
5889.00,0.9702
5888.00,0.9575
5887.00,0.9450
5886.00,0.9326
5885.00,0.9204
5884.00,0.9083
5883.00,0.8965
5882.00,0.8850
5881.00,0.8740
5880.00,0.8635
5879.00,0.8535
5878.00,0.8439
5877.00,0.8349
5876.00,0.8265
5875.00,0.8187
5874.00,0.8115
5873.00,0.8051
5872.00,0.7994
5871.00,0.7944
5870.00,0.7902
5869.00,0.7867
5868.00,0.7841
5867.00,0.7823
5866.00,0.7813
5865.00,0.7812
5864.00,0.7818
5863.00,0.7831
5862.00,0.7851
5861.00,0.7879
5860.00,0.7914
5859.00,0.7957
5858.00,0.8008
5857.00,0.8066
5856.00,0.8131
5855.00,0.8202
5854.00,0.8279
5853.00,0.8361
5852.00,0.8449
5851.00,0.8542
5850.00,0.8640
5849.00,0.8741
5848.00,0.8847
5847.00,0.8955
5846.00,0.9069
5845.00,0.9186
5844.00,0.9307
5843.00,0.9429
5842.00,0.9553
5841.00,0.9678
5840.00,0.9804
5839.00,0.9929
5838.00,1.0055
5837.00,1.0181
5836.00,1.0308
5835.00,1.0433
5834.00,1.0558
5833.00,1.0683
5832.00,1.0807
5831.00,1.0930
5830.00,1.1052
5829.00,1.1173
5828.00,1.1293
5827.00,1.1410
5826.00,1.1523
5825.00,1.1632
5824.00,1.1740
5823.00,1.1845
5822.00,1.1944
5821.00,1.2039
5820.00,1.2131
5819.00,1.2221
5818.00,1.2308
5817.00,1.2394
5816.00,1.2478
5815.00,1.2561
5814.00,1.2642
5813.00,1.2716
5812.00,1.2784
5811.00,1.2845
5810.00,1.2900
5809.00,1.2949
5808.00,1.2993
5807.00,1.3033
5806.00,1.3070
5805.00,1.3102
5804.00,1.3128
5803.00,1.3152
5802.00,1.3173
5801.00,1.3194
5800.00,1.3212
5799.00,1.3228
5798.00,1.3239
5797.00,1.3245
5796.00,1.3244
5795.00,1.3237
5794.00,1.3223
5793.00,1.3204
5792.00,1.3181
5791.00,1.3155
5790.00,1.3126
5789.00,1.3091
5788.00,1.3052
5787.00,1.3010
5786.00,1.2966
5785.00,1.2918
5784.00,1.2864
5783.00,1.2802
5782.00,1.2736
5781.00,1.2667
5780.00,1.2595
5779.00,1.2519
5778.00,1.2439
5777.00,1.2355
5776.00,1.2266
5775.00,1.2173
5774.00,1.2076
5773.00,1.1978
5772.00,1.1875
5771.00,1.1769
5770.00,1.1657
5769.00,1.1541
5768.00,1.1420
5767.00,1.1297
5766.00,1.1172
5765.00,1.1047
5764.00,1.0921
5763.00,1.0793
5762.00,1.0662
5761.00,1.0531
5760.00,1.0400
5759.00,1.0268
5758.00,1.0133
5757.00,0.9998
5756.00,0.9863
5755.00,0.9730
5754.00,0.9599
5753.00,0.9470
5752.00,0.9344
5751.00,0.9221
5750.00,0.9099
5749.00,0.8980
5748.00,0.8864
5747.00,0.8753
5746.00,0.8648
5745.00,0.8547
5744.00,0.8451
5743.00,0.8360
5742.00,0.8275
5741.00,0.8196
5740.00,0.8125
5739.00,0.8061
5738.00,0.8004
5737.00,0.7955
5736.00,0.7913
5735.00,0.7877
5734.00,0.7849
5733.00,0.7830
5732.00,0.7820
5731.00,0.7820
5730.00,0.7828
5729.00,0.7845
5728.00,0.7870
5727.00,0.7903
5726.00,0.7943
5725.00,0.7991
5724.00,0.8047
5723.00,0.8109
5722.00,0.8177
5721.00,0.8251
5720.00,0.8331
5719.00,0.8417
5718.00,0.8511
5717.00,0.8611
5716.00,0.8715
5715.00,0.8823
5714.00,0.8934
5713.00,0.9047
5712.00,0.9163
5711.00,0.9283
5710.00,0.9406
5709.00,0.9532
5708.00,0.9660
5707.00,0.9788
5706.00,0.9917
5705.00,1.0045
5704.00,1.0175
5703.00,1.0306
5702.00,1.0436
5701.00,1.0567
5700.00,1.0696
5699.00,1.0825
5698.00,1.0952
5697.00,1.1078
5696.00,1.1202
5695.00,1.1325
5694.00,1.1444
5693.00,1.1559
5692.00,1.1671
5691.00,1.1780
5690.00,1.1888
5689.00,1.1995
5688.00,1.2098
5687.00,1.2197
5686.00,1.2293
5685.00,1.2385
5684.00,1.2472
5683.00,1.2555
5682.00,1.2634
5681.00,1.2710
5680.00,1.2783
5679.00,1.2852
5678.00,1.2919
5677.00,1.2982
5676.00,1.3040
5675.00,1.3094
5674.00,1.3141
5673.00,1.3181
5672.00,1.3216
5671.00,1.3248
5670.00,1.3278
5669.00,1.3307
5668.00,1.3333
5667.00,1.3355
5666.00,1.3371
5665.00,1.3378
5664.00,1.3377
5663.00,1.3370
5662.00,1.3360
5661.00,1.3348
5660.00,1.3335
5659.00,1.3319
5658.00,1.3298
5657.00,1.3272
5656.00,1.3240
5655.00,1.3201
5654.00,1.3158
5653.00,1.3110
5652.00,1.3059
5651.00,1.3007
5650.00,1.2953
5649.00,1.2898
5648.00,1.2838
5647.00,1.2771
5646.00,1.2695
5645.00,1.2612
5644.00,1.2525
5643.00,1.2434
5642.00,1.2341
5641.00,1.2246
5640.00,1.2149
5639.00,1.2045
5638.00,1.1935
5637.00,1.1818
5636.00,1.1699
5635.00,1.1577
5634.00,1.1451
5633.00,1.1322
5632.00,1.1189
5631.00,1.1055
5630.00,1.0920
5629.00,1.0785
5628.00,1.0648
5627.00,1.0510
5626.00,1.0370
5625.00,1.0230
5624.00,1.0088
5623.00,0.9946
5622.00,0.9803
5621.00,0.9661
5620.00,0.9519
5619.00,0.9380
5618.00,0.9243
5617.00,0.9109
5616.00,0.8979
5615.00,0.8852
5614.00,0.8729
5613.00,0.8610
5612.00,0.8496
5611.00,0.8388
5610.00,0.8287
5609.00,0.8193
5608.00,0.8106
5607.00,0.8025
5606.00,0.7952
5605.00,0.7887
5604.00,0.7828
5603.00,0.7778
5602.00,0.7736
5601.00,0.7705
5600.00,0.7682
5599.00,0.7669
5598.00,0.7665
5597.00,0.7671
5596.00,0.7686
5595.00,0.7709
5594.00,0.7742
5593.00,0.7783
5592.00,0.7834
5591.00,0.7892
5590.00,0.7959
5589.00,0.8034
5588.00,0.8115
5587.00,0.8203
5586.00,0.8297
5585.00,0.8397
5584.00,0.8502
5583.00,0.8613
5582.00,0.8728
5581.00,0.8847
5580.00,0.8970
5579.00,0.9095
5578.00,0.9222
5577.00,0.9352
5576.00,0.9484
5575.00,0.9616
5574.00,0.9749
5573.00,0.9883
5572.00,1.0017
5571.00,1.0152
5570.00,1.0287
5569.00,1.0421
5568.00,1.0555
5567.00,1.0686
5566.00,1.0816
5565.00,1.0943
5564.00,1.1069
5563.00,1.1193
5562.00,1.1314
5561.00,1.1431
5560.00,1.1544
5559.00,1.1654
5558.00,1.1760
5557.00,1.1863
5556.00,1.1963
5555.00,1.2059
5554.00,1.2155
5553.00,1.2248
5552.00,1.2340
5551.00,1.2429
5550.00,1.2513
5549.00,1.2592
5548.00,1.2664
5547.00,1.2730
5546.00,1.2793
5545.00,1.2854
5544.00,1.2914
5543.00,1.2971
5542.00,1.3023
5541.00,1.3070
5540.00,1.3112
5539.00,1.3151
5538.00,1.3188
5537.00,1.3223
5536.00,1.3258
5535.00,1.3289
5534.00,1.3313
5533.00,1.3330
5532.00,1.3343
5531.00,1.3351
5530.00,1.3355
5529.00,1.3355
5528.00,1.3352
5527.00,1.3345
5526.00,1.3333
5525.00,1.3314
5524.00,1.3289
5523.00,1.3259
5522.00,1.3227
5521.00,1.3192
5520.00,1.3154
5519.00,1.3114
5518.00,1.3071
5517.00,1.3023
5516.00,1.2967
5515.00,1.2904
5514.00,1.2836
5513.00,1.2764
5512.00,1.2688
5511.00,1.2608
5510.00,1.2524
5509.00,1.2435
5508.00,1.2341
5507.00,1.2243
5506.00,1.2139
5505.00,1.2030
5504.00,1.1916
5503.00,1.1797
5502.00,1.1674
5501.00,1.1549
5500.00,1.1421
5499.00,1.1290
5498.00,1.1157
5497.00,1.1021
5496.00,1.0882
5495.00,1.0739
5494.00,1.0594
5493.00,1.0447
5492.00,1.0299
5491.00,1.0149
5490.00,1.0000
5489.00,0.9851
5488.00,0.9704
5487.00,0.9558
5486.00,0.9415
5485.00,0.9275
5484.00,0.9139
5483.00,0.9006
5482.00,0.8876
5481.00,0.8749
5480.00,0.8625
5479.00,0.8505
5478.00,0.8391
5477.00,0.8283
5476.00,0.8182
5475.00,0.8088
5474.00,0.8003
5473.00,0.7925
5472.00,0.7855
5471.00,0.7792
5470.00,0.7739
5469.00,0.7697
5468.00,0.7666
5467.00,0.7644
5466.00,0.7633
5465.00,0.7630
5464.00,0.7636
5463.00,0.7652
5462.00,0.7677
5461.00,0.7712
5460.00,0.7757
5459.00,0.7812
5458.00,0.7876
5457.00,0.7949
5456.00,0.8030
5455.00,0.8119
5454.00,0.8214
5453.00,0.8315
5452.00,0.8422
5451.00,0.8535
5450.00,0.8653
5449.00,0.8775
5448.00,0.8902
5447.00,0.9032
5446.00,0.9166
5445.00,0.9303
5444.00,0.9442
5443.00,0.9582
5442.00,0.9724
5441.00,0.9868
5440.00,1.0013
5439.00,1.0160
5438.00,1.0307
5437.00,1.0454
5436.00,1.0599
5435.00,1.0743
5434.00,1.0887
5433.00,1.1030
5432.00,1.1171
5431.00,1.1309
5430.00,1.1442
5429.00,1.1575
5428.00,1.1708
5427.00,1.1841
5426.00,1.1972
5425.00,1.2097
5424.00,1.2216
5423.00,1.2329
5422.00,1.2435
5421.00,1.2538
5420.00,1.2639
5419.00,1.2737
5418.00,1.2832
5417.00,1.2920
5416.00,1.3002
5415.00,1.3078
5414.00,1.3148
5413.00,1.3216
5412.00,1.3283
5411.00,1.3348
5410.00,1.3408
5409.00,1.3464
5408.00,1.3516
5407.00,1.3565
5406.00,1.3608
5405.00,1.3647
5404.00,1.3680
5403.00,1.3708
5402.00,1.3728
5401.00,1.3739
5400.00,1.3744
5399.00,1.3744
5398.00,1.3741
5397.00,1.3737
5396.00,1.3731
5395.00,1.3721
5394.00,1.3706
5393.00,1.3686
5392.00,1.3662
5391.00,1.3634
5390.00,1.3603
5389.00,1.3568
5388.00,1.3530
5387.00,1.3487
5386.00,1.3437
5385.00,1.3381
5384.00,1.3319
5383.00,1.3253
5382.00,1.3181
5381.00,1.3106
5380.00,1.3026
5379.00,1.2942
5378.00,1.2855
5377.00,1.2763
5376.00,1.2667
5375.00,1.2566
5374.00,1.2458
5373.00,1.2344
5372.00,1.2225
5371.00,1.2103
5370.00,1.1977
5369.00,1.1848
5368.00,1.1716
5367.00,1.1580
5366.00,1.1441
5365.00,1.1299
5364.00,1.1154
5363.00,1.1007
5362.00,1.0858
5361.00,1.0707
5360.00,1.0554
5359.00,1.0400
5358.00,1.0245
5357.00,1.0089
5356.00,0.9933
5355.00,0.9776
5354.00,0.9620
5353.00,0.9467
5352.00,0.9318
5351.00,0.9171
5350.00,0.9027
5349.00,0.8886
5348.00,0.8749
5347.00,0.8618
5346.00,0.8492
5345.00,0.8371
5344.00,0.8257
5343.00,0.8151
5342.00,0.8054
5341.00,0.7965
5340.00,0.7884
5339.00,0.7812
5338.00,0.7749
5337.00,0.7696
5336.00,0.7652
5335.00,0.7617
5334.00,0.7593
5333.00,0.7580
5332.00,0.7579
5331.00,0.7588
5330.00,0.7607
5329.00,0.7636
5328.00,0.7675
5327.00,0.7724
5326.00,0.7782
5325.00,0.7849
5324.00,0.7924
5323.00,0.8007
5322.00,0.8098
5321.00,0.8197
5320.00,0.8305
5319.00,0.8418
5318.00,0.8537
5317.00,0.8660
5316.00,0.8788
5315.00,0.8920
5314.00,0.9056
5313.00,0.9195
5312.00,0.9338
5311.00,0.9482
5310.00,0.9628
5309.00,0.9775
5308.00,0.9924
5307.00,1.0074
5306.00,1.0224
5305.00,1.0376
5304.00,1.0527
5303.00,1.0677
5302.00,1.0825
5301.00,1.0973
5300.00,1.1119
5299.00,1.1262
5298.00,1.1404
5297.00,1.1545
5296.00,1.1684
5295.00,1.1819
5294.00,1.1949
5293.00,1.2075
5292.00,1.2196
5291.00,1.2314
5290.00,1.2429
5289.00,1.2542
5288.00,1.2652
5287.00,1.2757
5286.00,1.2856
5285.00,1.2949
5284.00,1.3038
5283.00,1.3122
5282.00,1.3204
5281.00,1.3283
5280.00,1.3359
5279.00,1.3431
5278.00,1.3498
5277.00,1.3559
5276.00,1.3616
5275.00,1.3669
5274.00,1.3719
5273.00,1.3766
5272.00,1.3808
5271.00,1.3845
5270.00,1.3874
5269.00,1.3895
5268.00,1.3911
5267.00,1.3923
5266.00,1.3934
5265.00,1.3942
5264.00,1.3948
5263.00,1.3947
5262.00,1.3940
5261.00,1.3927
5260.00,1.3909
5259.00,1.3886
5258.00,1.3859
5257.00,1.3830
5256.00,1.3796
5255.00,1.3756
5254.00,1.3712
5253.00,1.3666
5252.00,1.3617
5251.00,1.3562
5250.00,1.3499
5249.00,1.3427
5248.00,1.3349
5247.00,1.3266
5246.00,1.3180
5245.00,1.3091
5244.00,1.3000
5243.00,1.2905
5242.00,1.2805
5241.00,1.2699
5240.00,1.2588
5239.00,1.2471
5238.00,1.2350
5237.00,1.2225
5236.00,1.2095
5235.00,1.1962
5234.00,1.1826
5233.00,1.1686
5232.00,1.1541
5231.00,1.1391
5230.00,1.1238
5229.00,1.1084
5228.00,1.0929
5227.00,1.0773
5226.00,1.0615
5225.00,1.0456
5224.00,1.0296
5223.00,1.0136
5222.00,0.9975
5221.00,0.9816
5220.00,0.9660
5219.00,0.9506
5218.00,0.9355
5217.00,0.9207
5216.00,0.9064
5215.00,0.8924
5214.00,0.8789
5213.00,0.8659
5212.00,0.8535
5211.00,0.8417
5210.00,0.8306
5209.00,0.8203
5208.00,0.8107
5207.00,0.8019
5206.00,0.7941
5205.00,0.7873
5204.00,0.7815
5203.00,0.7767
5202.00,0.7731
5201.00,0.7706
5200.00,0.7692
5199.00,0.7691
5198.00,0.7701
5197.00,0.7721
5196.00,0.7752
5195.00,0.7792
5194.00,0.7843
5193.00,0.7903
5192.00,0.7974
5191.00,0.8054
5190.00,0.8144
5189.00,0.8242
5188.00,0.8347
5187.00,0.8460
5186.00,0.8579
5185.00,0.8705
5184.00,0.8836
5183.00,0.8971
5182.00,0.9111
5181.00,0.9253
5180.00,0.9399
5179.00,0.9549
5178.00,0.9702
5177.00,0.9856
5176.00,1.0012
5175.00,1.0169
5174.00,1.0326
5173.00,1.0484
5172.00,1.0641
5171.00,1.0798
5170.00,1.0954
5169.00,1.1109
5168.00,1.1261
5167.00,1.1412
5166.00,1.1560
5165.00,1.1707
5164.00,1.1853
5163.00,1.1996
5162.00,1.2136
5161.00,1.2271
5160.00,1.2401
5159.00,1.2526
5158.00,1.2647
5157.00,1.2765
5156.00,1.2878
5155.00,1.2988
5154.00,1.3094
5153.00,1.3197
5152.00,1.3296
5151.00,1.3391
5150.00,1.3483
5149.00,1.3569
5148.00,1.3650
5147.00,1.3724
5146.00,1.3791
5145.00,1.3851
5144.00,1.3905
5143.00,1.3955
5142.00,1.4002
5141.00,1.4045
5140.00,1.4086
5139.00,1.4124
5138.00,1.4157
5137.00,1.4184
5136.00,1.4204
5135.00,1.4219
5134.00,1.4231
5133.00,1.4240
5132.00,1.4246
5131.00,1.4249
5130.00,1.4246
5129.00,1.4237
5128.00,1.4222
5127.00,1.4201
5126.00,1.4174
5125.00,1.4142
5124.00,1.4105
5123.00,1.4064
5122.00,1.4019
5121.00,1.3971
5120.00,1.3922
5119.00,1.3872
5118.00,1.3817
5117.00,1.3755
5116.00,1.3683
5115.00,1.3602
5114.00,1.3513
5113.00,1.3419
5112.00,1.3322
5111.00,1.3224
5110.00,1.3124
5109.00,1.3020
5108.00,1.2912
5107.00,1.2797
5106.00,1.2676
5105.00,1.2550
5104.00,1.2419
5103.00,1.2284
5102.00,1.2146
5101.00,1.2004
5100.00,1.1858
5099.00,1.1707
5098.00,1.1551
5097.00,1.1393
5096.00,1.1232
5095.00,1.1069
5094.00,1.0905
5093.00,1.0737
5092.00,1.0567
5091.00,1.0397
5090.00,1.0227
5089.00,1.0058
5088.00,0.9891
5087.00,0.9725
5086.00,0.9561
5085.00,0.9399
5084.00,0.9240
5083.00,0.9085
5082.00,0.8935
5081.00,0.8790
5080.00,0.8651
5079.00,0.8517
5078.00,0.8391
5077.00,0.8271
5076.00,0.8160
5075.00,0.8057
5074.00,0.7965
5073.00,0.7882
5072.00,0.7809
5071.00,0.7746
5070.00,0.7694
5069.00,0.7654
5068.00,0.7626
5067.00,0.7609
5066.00,0.7604
5065.00,0.7611
5064.00,0.7629
5063.00,0.7659
5062.00,0.7701
5061.00,0.7755
5060.00,0.7821
5059.00,0.7897
5058.00,0.7982
5057.00,0.8075
5056.00,0.8178
5055.00,0.8288
5054.00,0.8406
5053.00,0.8533
5052.00,0.8666
5051.00,0.8805
5050.00,0.8949
5049.00,0.9098
5048.00,0.9250
5047.00,0.9405
5046.00,0.9564
5045.00,0.9725
5044.00,0.9889
5043.00,1.0052
5042.00,1.0216
5041.00,1.0380
5040.00,1.0545
5039.00,1.0709
5038.00,1.0874
5037.00,1.1039
5036.00,1.1202
5035.00,1.1362
5034.00,1.1520
5033.00,1.1676
5032.00,1.1829
5031.00,1.1979
5030.00,1.2125
5029.00,1.2268
5028.00,1.2407
5027.00,1.2543
5026.00,1.2677
5025.00,1.2806
5024.00,1.2931
5023.00,1.3051
5022.00,1.3165
5021.00,1.3275
5020.00,1.3380
5019.00,1.3480
5018.00,1.3577
5017.00,1.3669
5016.00,1.3757
5015.00,1.3838
5014.00,1.3915
5013.00,1.3988
5012.00,1.4056
5011.00,1.4120
5010.00,1.4179
5009.00,1.4230
5008.00,1.4275
5007.00,1.4313
5006.00,1.4349
5005.00,1.4384
5004.00,1.4420
5003.00,1.4452
5002.00,1.4476
5001.00,1.4491
5000.00,1.4499
4999.00,1.4500
4998.00,1.4498
4997.00,1.4493
4996.00,1.4485
4995.00,1.4473
4994.00,1.4455
4993.00,1.4432
4992.00,1.4404
4991.00,1.4372
4990.00,1.4335
4989.00,1.4293
4988.00,1.4244
4987.00,1.4188
4986.00,1.4126
4985.00,1.4058
4984.00,1.3987
4983.00,1.3915
4982.00,1.3840
4981.00,1.3762
4980.00,1.3677
4979.00,1.3585
4978.00,1.3486
4977.00,1.3382
4976.00,1.3274
4975.00,1.3161
4974.00,1.3044
4973.00,1.2920
4972.00,1.2790
4971.00,1.2654
4970.00,1.2514
4969.00,1.2370
4968.00,1.2221
4967.00,1.2067
4966.00,1.1909
4965.00,1.1747
4964.00,1.1581
4963.00,1.1414
4962.00,1.1245
4961.00,1.1073
4960.00,1.0898
4959.00,1.0721
4958.00,1.0542
4957.00,1.0361
4956.00,1.0181
4955.00,1.0002
4954.00,0.9825
4953.00,0.9650
4952.00,0.9479
4951.00,0.9310
4950.00,0.9146
4949.00,0.8987
4948.00,0.8834
4947.00,0.8686
4946.00,0.8546
4945.00,0.8414
4944.00,0.8290
4943.00,0.8174
4942.00,0.8068
4941.00,0.7971
4940.00,0.7885
4939.00,0.7809
4938.00,0.7746
4937.00,0.7695
4936.00,0.7658
4935.00,0.7633
4934.00,0.7622
4933.00,0.7623
4932.00,0.7638
4931.00,0.7664
4930.00,0.7703
4929.00,0.7755
4928.00,0.7819
4927.00,0.7895
4926.00,0.7982
4925.00,0.8079
4924.00,0.8186
4923.00,0.8302
4922.00,0.8426
4921.00,0.8558
4920.00,0.8696
4919.00,0.8840
4918.00,0.8990
4917.00,0.9144
4916.00,0.9302
4915.00,0.9465
4914.00,0.9632
4913.00,0.9802
4912.00,0.9973
4911.00,1.0147
4910.00,1.0322
4909.00,1.0497
4908.00,1.0673
4907.00,1.0848
4906.00,1.1022
4905.00,1.1194
4904.00,1.1365
4903.00,1.1533
4902.00,1.1699
4901.00,1.1864
4900.00,1.2026
4899.00,1.2185
4898.00,1.2342
4897.00,1.2495
4896.00,1.2646
4895.00,1.2791
4894.00,1.2931
4893.00,1.3064
4892.00,1.3190
4891.00,1.3311
4890.00,1.3428
4889.00,1.3543
4888.00,1.3656
4887.00,1.3765
4886.00,1.3869
4885.00,1.3967
4884.00,1.4058
4883.00,1.4143
4882.00,1.4220
4881.00,1.4290
4880.00,1.4353
4879.00,1.4412
4878.00,1.4468
4877.00,1.4524
4876.00,1.4577
4875.00,1.4624
4874.00,1.4665
4873.00,1.4698
4872.00,1.4725
4871.00,1.4746
4870.00,1.4762
4869.00,1.4777
4868.00,1.4791
4867.00,1.4803
4866.00,1.4809
4865.00,1.4808
4864.00,1.4798
4863.00,1.4782
4862.00,1.4762
4861.00,1.4741
4860.00,1.4716
4859.00,1.4685
4858.00,1.4647
4857.00,1.4603
4856.00,1.4556
4855.00,1.4507
4854.00,1.4456
4853.00,1.4399
4852.00,1.4334
4851.00,1.4259
4850.00,1.4178
4849.00,1.4093
4848.00,1.4005
4847.00,1.3914
4846.00,1.3818
4845.00,1.3717
4844.00,1.3609
4843.00,1.3495
4842.00,1.3375
4841.00,1.3249
4840.00,1.3116
4839.00,1.2979
4838.00,1.2837
4837.00,1.2691
4836.00,1.2541
4835.00,1.2386
4834.00,1.2226
4833.00,1.2059
4832.00,1.1888
4831.00,1.1714
4830.00,1.1536
4829.00,1.1356
4828.00,1.1173
4827.00,1.0988
4826.00,1.0801
4825.00,1.0613
4824.00,1.0424
4823.00,1.0235
4822.00,1.0048
4821.00,0.9863
4820.00,0.9681
4819.00,0.9501
4818.00,0.9324
4817.00,0.9150
4816.00,0.8980
4815.00,0.8816
4814.00,0.8659
4813.00,0.8510
4812.00,0.8370
4811.00,0.8240
4810.00,0.8120
4809.00,0.8011
4808.00,0.7912
4807.00,0.7824
4806.00,0.7748
4805.00,0.7685
4804.00,0.7635
4803.00,0.7599
4802.00,0.7577
4801.00,0.7570
4800.00,0.7576
4799.00,0.7597
4798.00,0.7632
4797.00,0.7680
4796.00,0.7741
4795.00,0.7815
4794.00,0.7901
4793.00,0.7998
4792.00,0.8106
4791.00,0.8224
4790.00,0.8351
4789.00,0.8487
4788.00,0.8631
4787.00,0.8782
4786.00,0.8940
4785.00,0.9103
4784.00,0.9271
4783.00,0.9442
4782.00,0.9618
4781.00,0.9796
4780.00,0.9977
4779.00,1.0158
4778.00,1.0339
4777.00,1.0522
4776.00,1.0706
4775.00,1.0889
4774.00,1.1074
4773.00,1.1257
4772.00,1.1439
4771.00,1.1618
4770.00,1.1795
4769.00,1.1969
4768.00,1.2140
4767.00,1.2307
4766.00,1.2470
4765.00,1.2630
4764.00,1.2785
4763.00,1.2937
4762.00,1.3085
4761.00,1.3228
4760.00,1.3366
4759.00,1.3500
4758.00,1.3627
4757.00,1.3749
4756.00,1.3864
4755.00,1.3973
4754.00,1.4078
4753.00,1.4180
4752.00,1.4278
4751.00,1.4371
4750.00,1.4458
4749.00,1.4538
4748.00,1.4612
4747.00,1.4680
4746.00,1.4743
4745.00,1.4802
4744.00,1.4858
4743.00,1.4911
4742.00,1.4959
4741.00,1.5001
4740.00,1.5036
4739.00,1.5064
4738.00,1.5086
4737.00,1.5103
4736.00,1.5116
4735.00,1.5127
4734.00,1.5135
4733.00,1.5140
4732.00,1.5138
4731.00,1.5131
4730.00,1.5117
4729.00,1.5098
4728.00,1.5074
4727.00,1.5045
4726.00,1.5012
4725.00,1.4973
4724.00,1.4930
4723.00,1.4884
4722.00,1.4835
4721.00,1.4782
4720.00,1.4721
4719.00,1.4653
4718.00,1.4576
4717.00,1.4493
4716.00,1.4407
4715.00,1.4317
4714.00,1.4222
4713.00,1.4121
4712.00,1.4012
4711.00,1.3896
4710.00,1.3774
4709.00,1.3650
4708.00,1.3525
4707.00,1.3396
4706.00,1.3262
4705.00,1.3121
4704.00,1.2971
4703.00,1.2814
4702.00,1.2652
4701.00,1.2484
4700.00,1.2313
4699.00,1.2138
4698.00,1.1960
4697.00,1.1779
4696.00,1.1595
4695.00,1.1408
4694.00,1.1219
4693.00,1.1029
4692.00,1.0839
4691.00,1.0648
4690.00,1.0458
4689.00,1.0270
4688.00,1.0084
4687.00,0.9901
4686.00,0.9722
4685.00,0.9548
4684.00,0.9379
4683.00,0.9216
4682.00,0.9060
4681.00,0.8912
4680.00,0.8771
4679.00,0.8637
4678.00,0.8513
4677.00,0.8399
4676.00,0.8296
4675.00,0.8203
4674.00,0.8121
4673.00,0.8051
4672.00,0.7993
4671.00,0.7948
4670.00,0.7917
4669.00,0.7899
4668.00,0.7893
4667.00,0.7901
4666.00,0.7921
4665.00,0.7954
4664.00,0.8000
4663.00,0.8060
4662.00,0.8133
4661.00,0.8219
4660.00,0.8316
4659.00,0.8425
4658.00,0.8544
4657.00,0.8672
4656.00,0.8809
4655.00,0.8955
4654.00,0.9107
4653.00,0.9267
4652.00,0.9432
4651.00,0.9602
4650.00,0.9776
4649.00,0.9955
4648.00,1.0138
4647.00,1.0322
4646.00,1.0509
4645.00,1.0696
4644.00,1.0885
4643.00,1.1074
4642.00,1.1263
4641.00,1.1452
4640.00,1.1639
4639.00,1.1825
4638.00,1.2009
4637.00,1.2190
4636.00,1.2369
4635.00,1.2544
4634.00,1.2715
4633.00,1.2881
4632.00,1.3043
4631.00,1.3200
4630.00,1.3354
4629.00,1.3503
4628.00,1.3648
4627.00,1.3789
4626.00,1.3922
4625.00,1.4049
4624.00,1.4170
4623.00,1.4285
4622.00,1.4394
4621.00,1.4498
4620.00,1.4597
4619.00,1.4691
4618.00,1.4778
4617.00,1.4858
4616.00,1.4933
4615.00,1.5003
4614.00,1.5071
4613.00,1.5138
4612.00,1.5201
4611.00,1.5257
4610.00,1.5305
4609.00,1.5343
4608.00,1.5373
4607.00,1.5396
4606.00,1.5417
4605.00,1.5437
4604.00,1.5457
4603.00,1.5475
4602.00,1.5487
4601.00,1.5494
4600.00,1.5493
4599.00,1.5486
4598.00,1.5474
4597.00,1.5457
4596.00,1.5437
4595.00,1.5413
4594.00,1.5384
4593.00,1.5349
4592.00,1.5307
4591.00,1.5259
4590.00,1.5206
4589.00,1.5149
4588.00,1.5087
4587.00,1.5020
4586.00,1.4947
4585.00,1.4869
4584.00,1.4787
4583.00,1.4700
4582.00,1.4609
4581.00,1.4513
4580.00,1.4410
4579.00,1.4300
4578.00,1.4182
4577.00,1.4059
4576.00,1.3930
4575.00,1.3796
4574.00,1.3657
4573.00,1.3511
4572.00,1.3359
4571.00,1.3200
4570.00,1.3035
4569.00,1.2864
4568.00,1.2688
4567.00,1.2508
4566.00,1.2323
4565.00,1.2134
4564.00,1.1939
4563.00,1.1740
4562.00,1.1538
4561.00,1.1334
4560.00,1.1128
4559.00,1.0920
4558.00,1.0711
4557.00,1.0502
4556.00,1.0295
4555.00,1.0089
4554.00,0.9886
4553.00,0.9687
4552.00,0.9492
4551.00,0.9303
4550.00,0.9121
4549.00,0.8946
4548.00,0.8779
4547.00,0.8621
4546.00,0.8473
4545.00,0.8336
4544.00,0.8210
4543.00,0.8096
4542.00,0.7996
4541.00,0.7909
4540.00,0.7837
4539.00,0.7780
4538.00,0.7739
4537.00,0.7713
4536.00,0.7703
4535.00,0.7709
4534.00,0.7732
4533.00,0.7771
4532.00,0.7824
4531.00,0.7893
4530.00,0.7976
4529.00,0.8073
4528.00,0.8184
4527.00,0.8308
4526.00,0.8443
4525.00,0.8589
4524.00,0.8743
4523.00,0.8906
4522.00,0.9076
4521.00,0.9252
4520.00,0.9434
4519.00,0.9621
4518.00,0.9813
4517.00,1.0008
4516.00,1.0206
4515.00,1.0407
4514.00,1.0609
4513.00,1.0810
4512.00,1.1013
4511.00,1.1215
4510.00,1.1418
4509.00,1.1620
4508.00,1.1820
4507.00,1.2019
4506.00,1.2216
4505.00,1.2410
4504.00,1.2598
4503.00,1.2781
4502.00,1.2958
4501.00,1.3130
4500.00,1.3299
4499.00,1.3465
4498.00,1.3627
4497.00,1.3783
4496.00,1.3934
4495.00,1.4079
4494.00,1.4219
4493.00,1.4352
4492.00,1.4479
4491.00,1.4599
4490.00,1.4713
4489.00,1.4821
4488.00,1.4924
4487.00,1.5024
4486.00,1.5118
4485.00,1.5206
4484.00,1.5287
4483.00,1.5360
4482.00,1.5428
4481.00,1.5493
4480.00,1.5554
4479.00,1.5611
4478.00,1.5660
4477.00,1.5702
4476.00,1.5739
4475.00,1.5772
4474.00,1.5800
4473.00,1.5824
4472.00,1.5843
4471.00,1.5856
4470.00,1.5863
4469.00,1.5867
4468.00,1.5867
4467.00,1.5865
4466.00,1.5858
4465.00,1.5845
4464.00,1.5825
4463.00,1.5801
4462.00,1.5774
4461.00,1.5744
4460.00,1.5709
4459.00,1.5667
4458.00,1.5617
4457.00,1.5560
4456.00,1.5498
4455.00,1.5433
4454.00,1.5363
4453.00,1.5287
4452.00,1.5204
4451.00,1.5116
4450.00,1.5023
4449.00,1.4924
4448.00,1.4819
4447.00,1.4708
4446.00,1.4590
4445.00,1.4466
4444.00,1.4336
4443.00,1.4201
4442.00,1.4061
4441.00,1.3915
4440.00,1.3761
4439.00,1.3601
4438.00,1.3435
4437.00,1.3264
4436.00,1.3089
4435.00,1.2908
4434.00,1.2721
4433.00,1.2527
4432.00,1.2328
4431.00,1.2125
4430.00,1.1919
4429.00,1.1711
4428.00,1.1502
4427.00,1.1292
4426.00,1.1082
4425.00,1.0872
4424.00,1.0662
4423.00,1.0452
4422.00,1.0245
4421.00,1.0041
4420.00,0.9842
4419.00,0.9651
4418.00,0.9468
4417.00,0.9294
4416.00,0.9130
4415.00,0.8976
4414.00,0.8833
4413.00,0.8702
4412.00,0.8583
4411.00,0.8478
4410.00,0.8388
4409.00,0.8313
4408.00,0.8254
4407.00,0.8212
4406.00,0.8186
4405.00,0.8179
4404.00,0.8188
4403.00,0.8214
4402.00,0.8257
4401.00,0.8315
4400.00,0.8389
4399.00,0.8477
4398.00,0.8581
4397.00,0.8698
4396.00,0.8828
4395.00,0.8969
4394.00,0.9120
4393.00,0.9280
4392.00,0.9449
4391.00,0.9624
4390.00,0.9805
4389.00,0.9991
4388.00,1.0181
4387.00,1.0374
4386.00,1.0572
4385.00,1.0771
4384.00,1.0972
4383.00,1.1174
4382.00,1.1376
4381.00,1.1577
4380.00,1.1777
4379.00,1.1975
4378.00,1.2171
4377.00,1.2366
4376.00,1.2558
4375.00,1.2748
4374.00,1.2935
4373.00,1.3117
4372.00,1.3294
4371.00,1.3466
4370.00,1.3634
4369.00,1.3796
4368.00,1.3951
4367.00,1.4100
4366.00,1.4244
4365.00,1.4386
4364.00,1.4524
4363.00,1.4658
4362.00,1.4784
4361.00,1.4905
4360.00,1.5022
4359.00,1.5135
4358.00,1.5244
4357.00,1.5348
4356.00,1.5447
4355.00,1.5539
4354.00,1.5624
4353.00,1.5704
4352.00,1.5780
4351.00,1.5852
4350.00,1.5921
4349.00,1.5987
4348.00,1.6050
4347.00,1.6107
4346.00,1.6158
4345.00,1.6200
4344.00,1.6236
4343.00,1.6265
4342.00,1.6290
4341.00,1.6313
4340.00,1.6334
4339.00,1.6351
4338.00,1.6363
4337.00,1.6370
4336.00,1.6373
4335.00,1.6372
4334.00,1.6367
4333.00,1.6359
4332.00,1.6344
4331.00,1.6321
4330.00,1.6290
4329.00,1.6255
4328.00,1.6217
4327.00,1.6177
4326.00,1.6132
4325.00,1.6084
4324.00,1.6031
4323.00,1.5973
4322.00,1.5909
4321.00,1.5838
4320.00,1.5759
4319.00,1.5673
4318.00,1.5583
4317.00,1.5487
4316.00,1.5387
4315.00,1.5283
4314.00,1.5174
4313.00,1.5060
4312.00,1.4940
4311.00,1.4811
4310.00,1.4675
4309.00,1.4532
4308.00,1.4385
4307.00,1.4233
4306.00,1.4077
4305.00,1.3915
4304.00,1.3744
4303.00,1.3567
4302.00,1.3385
4301.00,1.3199
4300.00,1.3010
4299.00,1.2816
4298.00,1.2618
4297.00,1.2416
4296.00,1.2212
4295.00,1.2008
4294.00,1.1804
4293.00,1.1600
4292.00,1.1396
4291.00,1.1193
4290.00,1.0993
4289.00,1.0797
4288.00,1.0605
4287.00,1.0418
4286.00,1.0236
4285.00,1.0061
4284.00,0.9893
4283.00,0.9732
4282.00,0.9580
4281.00,0.9435
4280.00,0.9298
4279.00,0.9172
4278.00,0.9056
4277.00,0.8952
4276.00,0.8860
4275.00,0.8782
4274.00,0.8717
4273.00,0.8666
4272.00,0.8631
4271.00,0.8610
4270.00,0.8605
4269.00,0.8616
4268.00,0.8641
4267.00,0.8682
4266.00,0.8738
4265.00,0.8810
4264.00,0.8896
4263.00,0.8995
4262.00,0.9106
4261.00,0.9229
4260.00,0.9364
4259.00,0.9509
4258.00,0.9665
4257.00,0.9830
4256.00,1.0003
4255.00,1.0182
4254.00,1.0367
4253.00,1.0559
4252.00,1.0755
4251.00,1.0957
4250.00,1.1162
4249.00,1.1370
4248.00,1.1578
4247.00,1.1787
4246.00,1.1995
4245.00,1.2204
4244.00,1.2413
4243.00,1.2621
4242.00,1.2826
4241.00,1.3030
4240.00,1.3231
4239.00,1.3428
4238.00,1.3622
4237.00,1.3811
4236.00,1.3996
4235.00,1.4175
4234.00,1.4349
4233.00,1.4517
4232.00,1.4678
4231.00,1.4832
4230.00,1.4979
4229.00,1.5121
4228.00,1.5257
4227.00,1.5387
4226.00,1.5512
4225.00,1.5630
4224.00,1.5743
4223.00,1.5849
4222.00,1.5950
4221.00,1.6044
4220.00,1.6132
4219.00,1.6216
4218.00,1.6293
4217.00,1.6364
4216.00,1.6428
4215.00,1.6487
4214.00,1.6542
4213.00,1.6593
4212.00,1.6641
4211.00,1.6686
4210.00,1.6727
4209.00,1.6761
4208.00,1.6786
4207.00,1.6804
4206.00,1.6816
4205.00,1.6826
4204.00,1.6836
4203.00,1.6841
4202.00,1.6841
4201.00,1.6836
4200.00,1.6825
4199.00,1.6809
4198.00,1.6787
4197.00,1.6759
4196.00,1.6728
4195.00,1.6696
4194.00,1.6660
4193.00,1.6618
4192.00,1.6568
4191.00,1.6509
4190.00,1.6446
4189.00,1.6379
4188.00,1.6308
4187.00,1.6232
4186.00,1.6149
4185.00,1.6060
4184.00,1.5966
4183.00,1.5867
4182.00,1.5762
4181.00,1.5651
4180.00,1.5533
4179.00,1.5409
4178.00,1.5279
4177.00,1.5143
4176.00,1.5000
4175.00,1.4852
4174.00,1.4697
4173.00,1.4536
4172.00,1.4368
4171.00,1.4194
4170.00,1.4015
4169.00,1.3829
4168.00,1.3636
4167.00,1.3437
4166.00,1.3232
4165.00,1.3023
4164.00,1.2812
4163.00,1.2596
4162.00,1.2377
4161.00,1.2155
4160.00,1.1931
4159.00,1.1705
4158.00,1.1480
4157.00,1.1256
4156.00,1.1032
4155.00,1.0812
4154.00,1.0596
4153.00,1.0386
4152.00,1.0182
4151.00,0.9986
4150.00,0.9797
4149.00,0.9618
4148.00,0.9449
4147.00,0.9291
4146.00,0.9147
4145.00,0.9017
4144.00,0.8902
4143.00,0.8802
4142.00,0.8720
4141.00,0.8654
4140.00,0.8607
4139.00,0.8578
4138.00,0.8568
4137.00,0.8577
4136.00,0.8604
4135.00,0.8651
4134.00,0.8715
4133.00,0.8798
4132.00,0.8898
4131.00,0.9014
4130.00,0.9144
4129.00,0.9287
4128.00,0.9442
4127.00,0.9608
4126.00,0.9784
4125.00,0.9969
4124.00,1.0161
4123.00,1.0360
4122.00,1.0565
4121.00,1.0775
4120.00,1.0989
4119.00,1.1206
4118.00,1.1425
4117.00,1.1646
4116.00,1.1869
4115.00,1.2092
4114.00,1.2316
4113.00,1.2539
4112.00,1.2760
4111.00,1.2977
4110.00,1.3191
4109.00,1.3401
4108.00,1.3608
4107.00,1.3812
4106.00,1.4011
4105.00,1.4205
4104.00,1.4392
4103.00,1.4573
4102.00,1.4749
4101.00,1.4920
4100.00,1.5085
4099.00,1.5245
4098.00,1.5396
4097.00,1.5539
4096.00,1.5676
4095.00,1.5808
4094.00,1.5936
4093.00,1.6058
4092.00,1.6175
4091.00,1.6285
4090.00,1.6387
4089.00,1.6483
4088.00,1.6570
4087.00,1.6651
4086.00,1.6727
4085.00,1.6800
4084.00,1.6872
4083.00,1.6940
4082.00,1.7001
4081.00,1.7055
4080.00,1.7101
4079.00,1.7142
4078.00,1.7178
4077.00,1.7208
4076.00,1.7230
4075.00,1.7246
4074.00,1.7257
4073.00,1.7269
4072.00,1.7281
4071.00,1.7292
4070.00,1.7296
4069.00,1.7290
4068.00,1.7274
4067.00,1.7250
4066.00,1.7223
4065.00,1.7194
4064.00,1.7163
4063.00,1.7128
4062.00,1.7087
4061.00,1.7037
4060.00,1.6981
4059.00,1.6921
4058.00,1.6859
4057.00,1.6794
4056.00,1.6723
4055.00,1.6646
4054.00,1.6560
4053.00,1.6465
4052.00,1.6363
4051.00,1.6256
4050.00,1.6143
4049.00,1.6025
4048.00,1.5904
4047.00,1.5778
4046.00,1.5647
4045.00,1.5510
4044.00,1.5364
4043.00,1.5210
4042.00,1.5049
4041.00,1.4882
4040.00,1.4708
4039.00,1.4529
4038.00,1.4344
4037.00,1.4152
4036.00,1.3955
4035.00,1.3751
4034.00,1.3540
4033.00,1.3323
4032.00,1.3101
4031.00,1.2874
4030.00,1.2642
4029.00,1.2407
4028.00,1.2169
4027.00,1.1931
4026.00,1.1693
4025.00,1.1456
4024.00,1.1220
4023.00,1.0986
4022.00,1.0757
4021.00,1.0533
4020.00,1.0317
4019.00,1.0107
4018.00,0.9907
4017.00,0.9716
4016.00,0.9537
4015.00,0.9370
4014.00,0.9216
4013.00,0.9077
4012.00,0.8954
4011.00,0.8847
4010.00,0.8758
4009.00,0.8687
4008.00,0.8636
4007.00,0.8605
4006.00,0.8595
4005.00,0.8605
4004.00,0.8635
4003.00,0.8686
4002.00,0.8757
4001.00,0.8847
4000.00,0.8956
3999.00,0.9082
3998.00,0.9223
3997.00,0.9380
3996.00,0.9551
3995.00,0.9735
3994.00,0.9931
3993.00,1.0137
3992.00,1.0351
3991.00,1.0574
3990.00,1.0802
3989.00,1.1036
3988.00,1.1273
3987.00,1.1512
3986.00,1.1754
3985.00,1.1998
3984.00,1.2242
3983.00,1.2487
3982.00,1.2731
3981.00,1.2974
3980.00,1.3213
3979.00,1.3447
3978.00,1.3674
3977.00,1.3896
3976.00,1.4114
3975.00,1.4327
3974.00,1.4536
3973.00,1.4738
3972.00,1.4930
3971.00,1.5114
3970.00,1.5291
3969.00,1.5463
3968.00,1.5631
3967.00,1.5795
3966.00,1.5952
3965.00,1.6102
3964.00,1.6245
3963.00,1.6381
3962.00,1.6510
3961.00,1.6632
3960.00,1.6747
3959.00,1.6856
3958.00,1.6957
3957.00,1.7051
3956.00,1.7140
3955.00,1.7225
3954.00,1.7305
3953.00,1.7379
3952.00,1.7446
3951.00,1.7507
3950.00,1.7563
3949.00,1.7616
3948.00,1.7663
3947.00,1.7704
3946.00,1.7739
3945.00,1.7769
3944.00,1.7794
3943.00,1.7815
3942.00,1.7831
3941.00,1.7841
3940.00,1.7850
3939.00,1.7856
3938.00,1.7861
3937.00,1.7860
3936.00,1.7852
3935.00,1.7837
3934.00,1.7817
3933.00,1.7791
3932.00,1.7761
3931.00,1.7726
3930.00,1.7686
3929.00,1.7640
3928.00,1.7588
3927.00,1.7531
3926.00,1.7467
3925.00,1.7398
3924.00,1.7320
3923.00,1.7236
3922.00,1.7147
3921.00,1.7055
3920.00,1.6959
3919.00,1.6857
3918.00,1.6747
3917.00,1.6630
3916.00,1.6504
3915.00,1.6372
3914.00,1.6234
3913.00,1.6090
3912.00,1.5941
3911.00,1.5785
3910.00,1.5621
3909.00,1.5449
3908.00,1.5270
3907.00,1.5083
3906.00,1.4886
3905.00,1.4677
3904.00,1.4453
3903.00,1.4213
3902.00,1.3959
3901.00,1.3697
3900.00,1.3431
3899.00,1.3166
3898.00,1.2902
3897.00,1.2642
3896.00,1.2387
3895.00,1.2133
3894.00,1.1876
3893.00,1.1614
3892.00,1.1347
3891.00,1.1076
3890.00,1.0806
3889.00,1.0546
3888.00,1.0300
3887.00,1.0067
3886.00,0.9842
3885.00,0.9621
3884.00,0.9406
3883.00,0.9210
3882.00,0.9041
3881.00,0.8898
3880.00,0.8777
3879.00,0.8672
3878.00,0.8584
3877.00,0.8518
3876.00,0.8482
3875.00,0.8477
3874.00,0.8497
3873.00,0.8530
3872.00,0.8578
3871.00,0.8655
3870.00,0.8767
3869.00,0.8899
3868.00,0.9037
3867.00,0.9181
3866.00,0.9344
3865.00,0.9537
3864.00,0.9755
3863.00,0.9986
3862.00,1.0224
3861.00,1.0469
3860.00,1.0721
3859.00,1.0979
3858.00,1.1233
3857.00,1.1468
3856.00,1.1684
3855.00,1.1903
3854.00,1.2160
3853.00,1.2459
3852.00,1.2775
3851.00,1.3079
3850.00,1.3358
3849.00,1.3614
3848.00,1.3853
3847.00,1.4081
3846.00,1.4300
3845.00,1.4517
3844.00,1.4734
3843.00,1.4949
3842.00,1.5159
3841.00,1.5360
3840.00,1.5552
3839.00,1.5739
3838.00,1.5925
3837.00,1.6108
3836.00,1.6282
3835.00,1.6444
3834.00,1.6596
3833.00,1.6741
3832.00,1.6882
3831.00,1.7017
3830.00,1.7144
3829.00,1.7262
3828.00,1.7372
3827.00,1.7479
3826.00,1.7580
3825.00,1.7668
3824.00,1.7740
3823.00,1.7803
3822.00,1.7874
3821.00,1.7949
3820.00,1.8014
3819.00,1.8066
3818.00,1.8111
3817.00,1.8160
3816.00,1.8211
3815.00,1.8253
3814.00,1.8281
3813.00,1.8300
3812.00,1.8314
3811.00,1.8325
3810.00,1.8328
3809.00,1.8325
3808.00,1.8318
3807.00,1.8310
3806.00,1.8294
3805.00,1.8263
3804.00,1.8220
3803.00,1.8177
3802.00,1.8142
3801.00,1.8103
3800.00,1.8046
3799.00,1.7975
3798.00,1.7904
3797.00,1.7837
3796.00,1.7772
3795.00,1.7707
3794.00,1.7640
3793.00,1.7567
3792.00,1.7489
3791.00,1.7406
3790.00,1.7318
3789.00,1.7221
3788.00,1.7115
3787.00,1.7000
3786.00,1.6881
3785.00,1.6756
3784.00,1.6624
3783.00,1.6484
3782.00,1.6338
3781.00,1.6183
3780.00,1.6022
3779.00,1.5851
3778.00,1.5668
3777.00,1.5474
3776.00,1.5273
3775.00,1.5070
3774.00,1.4861
3773.00,1.4643
3772.00,1.4414
3771.00,1.4173
3770.00,1.3919
3769.00,1.3649
3768.00,1.3370
3767.00,1.3090
3766.00,1.2810
3765.00,1.2529
3764.00,1.2247
3763.00,1.1967
3762.00,1.1690
3761.00,1.1413
3760.00,1.1134
3759.00,1.0856
3758.00,1.0586
3757.00,1.0333
3756.00,1.0101
3755.00,0.9891
3754.00,0.9697
3753.00,0.9511
3752.00,0.9329
3751.00,0.9153
3750.00,0.8993
3749.00,0.8858
3748.00,0.8753
3747.00,0.8680
3746.00,0.8648
3745.00,0.8660
3744.00,0.8698
3743.00,0.8744
3742.00,0.8803
3741.00,0.8892
3740.00,0.9016
3739.00,0.9169
3738.00,0.9342
3737.00,0.9538
3736.00,0.9758
3735.00,0.9997
3734.00,1.0246
3733.00,1.0508
3732.00,1.0788
3731.00,1.1078
3730.00,1.1365
3729.00,1.1642
3728.00,1.1916
3727.00,1.2196
3726.00,1.2485
3725.00,1.2779
3724.00,1.3074
3723.00,1.3369
3722.00,1.3664
3721.00,1.3957
3720.00,1.4245
3719.00,1.4528
3718.00,1.4804
3717.00,1.5072
3716.00,1.5324
3715.00,1.5556
3714.00,1.5769
3713.00,1.5976
3712.00,1.6187
3711.00,1.6398
3710.00,1.6603
3709.00,1.6800
3708.00,1.6989
3707.00,1.7165
3706.00,1.7322
3705.00,1.7463
3704.00,1.7594
3703.00,1.7719
3702.00,1.7842
3701.00,1.7969
3700.00,1.8096
3699.00,1.8217
3698.00,1.8327
3697.00,1.8430
3696.00,1.8526
3695.00,1.8612
3694.00,1.8689
3693.00,1.8760
3692.00,1.8828
3691.00,1.8893
3690.00,1.8953
3689.00,1.9007
3688.00,1.9052
3687.00,1.9084
3686.00,1.9108
3685.00,1.9133
3684.00,1.9162
3683.00,1.9188
3682.00,1.9206
3681.00,1.9219
3680.00,1.9229
3679.00,1.9226
3678.00,1.9208
3677.00,1.9184
3676.00,1.9163
3675.00,1.9134
3674.00,1.9090
3673.00,1.9037
3672.00,1.8984
3671.00,1.8931
3670.00,1.8873
3669.00,1.8805
3668.00,1.8732
3667.00,1.8659
3666.00,1.8588
3665.00,1.8516
3664.00,1.8441
3663.00,1.8360
3662.00,1.8273
3661.00,1.8182
3660.00,1.8083
3659.00,1.7972
3658.00,1.7852
3657.00,1.7727
3656.00,1.7598
3655.00,1.7463
3654.00,1.7324
3653.00,1.7184
3652.00,1.7042
3651.00,1.6891
3650.00,1.6728
3649.00,1.6551
3648.00,1.6366
3647.00,1.6181
3646.00,1.6004
3645.00,1.5838
3644.00,1.5681
3643.00,1.5529
3642.00,1.5379
3641.00,1.5227
3640.00,1.5074
3639.00,1.4921
3638.00,1.4769
3637.00,1.4621
3636.00,1.4478
3635.00,1.4344
3634.00,1.4220
3633.00,1.4104
3632.00,1.3992
3631.00,1.3885
3630.00,1.3784
3629.00,1.3689
3628.00,1.3593
3627.00,1.3504
3626.00,1.3435
3625.00,1.3393
3624.00,1.3375
3623.00,1.3371
3622.00,1.3375
3621.00,1.3386
3620.00,1.3407
3619.00,1.3437
3618.00,1.3473
3617.00,1.3515
3616.00,1.3567
3615.00,1.3634
3614.00,1.3717
3613.00,1.3811
3612.00,1.3908
3611.00,1.4005
3610.00,1.4106
3609.00,1.4217
3608.00,1.4338
3607.00,1.4465
3606.00,1.4596
3605.00,1.4729
3604.00,1.4867
3603.00,1.5008
3602.00,1.5155
3601.00,1.5307
3600.00,1.5465
3599.00,1.5624
3598.00,1.5781
3597.00,1.5937
3596.00,1.6094
3595.00,1.6255
3594.00,1.6421
3593.00,1.6590
3592.00,1.6756
3591.00,1.6911
3590.00,1.7055
3589.00,1.7198
3588.00,1.7348
3587.00,1.7507
3586.00,1.7668
3585.00,1.7825
3584.00,1.7973
3583.00,1.8113
3582.00,1.8250
3581.00,1.8387
3580.00,1.8524
3579.00,1.8656
3578.00,1.8780
3577.00,1.8900
3576.00,1.9017
3575.00,1.9132
3574.00,1.9244
3573.00,1.9355
3572.00,1.9462
3571.00,1.9560
3570.00,1.9647
3569.00,1.9731
3568.00,1.9818
3567.00,1.9904
3566.00,1.9984
3565.00,2.0058
3564.00,2.0128
3563.00,2.0197
3562.00,2.0265
3561.00,2.0332
3560.00,2.0396
3559.00,2.0455
3558.00,2.0506
3557.00,2.0550
3556.00,2.0587
3555.00,2.0618
3554.00,2.0648
3553.00,2.0680
3552.00,2.0712
3551.00,2.0738
3550.00,2.0755
3549.00,2.0769
3548.00,2.0782
3547.00,2.0791
3546.00,2.0792
3545.00,2.0786
3544.00,2.0779
3543.00,2.0775
3542.00,2.0774
3541.00,2.0773
3540.00,2.0762
3539.00,2.0740
3538.00,2.0713
3537.00,2.0689
3536.00,2.0667
3535.00,2.0641
3534.00,2.0609
3533.00,2.0570
3532.00,2.0526
3531.00,2.0475
3530.00,2.0424
3529.00,2.0376
3528.00,2.0328
3527.00,2.0276
3526.00,2.0218
3525.00,2.0159
3524.00,2.0101
3523.00,2.0041
3522.00,1.9976
3521.00,1.9907
3520.00,1.9832
3519.00,1.9752
3518.00,1.9665
3517.00,1.9574
3516.00,1.9482
3515.00,1.9387
3514.00,1.9293
3513.00,1.9199
3512.00,1.9105
3511.00,1.9006
3510.00,1.8902
3509.00,1.8794
3508.00,1.8682
3507.00,1.8568
3506.00,1.8454
3505.00,1.8341
3504.00,1.8226
3503.00,1.8107
3502.00,1.7983
3501.00,1.7858
3500.00,1.7734
3499.00,1.7609
3498.00,1.7484
3497.00,1.7361
3496.00,1.7241
3495.00,1.7124
3494.00,1.7007
3493.00,1.6892
3492.00,1.6777
3491.00,1.6664
3490.00,1.6555
3489.00,1.6452
3488.00,1.6356
3487.00,1.6266
3486.00,1.6183
3485.00,1.6104
3484.00,1.6032
3483.00,1.5965
3482.00,1.5907
3481.00,1.5858
3480.00,1.5819
3479.00,1.5789
3478.00,1.5770
3477.00,1.5761
3476.00,1.5761
3475.00,1.5769
3474.00,1.5787
3473.00,1.5814
3472.00,1.5849
3471.00,1.5891
3470.00,1.5942
3469.00,1.6002
3468.00,1.6072
3467.00,1.6149
3466.00,1.6233
3465.00,1.6323
3464.00,1.6421
3463.00,1.6528
3462.00,1.6642
3461.00,1.6760
3460.00,1.6879
3459.00,1.6999
3458.00,1.7123
3457.00,1.7252
3456.00,1.7385
3455.00,1.7520
3454.00,1.7656
3453.00,1.7794
3452.00,1.7932
3451.00,1.8068
3450.00,1.8204
3449.00,1.8340
3448.00,1.8478
3447.00,1.8614
3446.00,1.8748
3445.00,1.8880
3444.00,1.9012
3443.00,1.9140
3442.00,1.9265
3441.00,1.9385
3440.00,1.9503
3439.00,1.9617
3438.00,1.9726
3437.00,1.9830
3436.00,1.9931
3435.00,2.0031
3434.00,2.0132
3433.00,2.0236
3432.00,2.0339
3431.00,2.0437
3430.00,2.0527
3429.00,2.0612
3428.00,2.0693
3427.00,2.0772
3426.00,2.0845
3425.00,2.0913
3424.00,2.0974
3423.00,2.1027
3422.00,2.1079
3421.00,2.1133
3420.00,2.1185
3419.00,2.1233
3418.00,2.1275
3417.00,2.1313
3416.00,2.1346
3415.00,2.1375
3414.00,2.1406
3413.00,2.1443
3412.00,2.1481
3411.00,2.1510
3410.00,2.1525
3409.00,2.1529
3408.00,2.1527
3407.00,2.1519
3406.00,2.1506
3405.00,2.1490
3404.00,2.1475
3403.00,2.1460
3402.00,2.1441
3401.00,2.1415
3400.00,2.1382
3399.00,2.1342
3398.00,2.1299
3397.00,2.1256
3396.00,2.1209
3395.00,2.1154
3394.00,2.1089
3393.00,2.1015
3392.00,2.0936
3391.00,2.0855
3390.00,2.0777
3389.00,2.0701
3388.00,2.0624
3387.00,2.0540
3386.00,2.0445
3385.00,2.0342
3384.00,2.0231
3383.00,2.0113
3382.00,1.9992
3381.00,1.9869
3380.00,1.9746
3379.00,1.9618
3378.00,1.9480
3377.00,1.9333
3376.00,1.9180
3375.00,1.9027
3374.00,1.8873
3373.00,1.8716
3372.00,1.8551
3371.00,1.8377
3370.00,1.8198
3369.00,1.8017
3368.00,1.7833
3367.00,1.7646
3366.00,1.7455
3365.00,1.7262
3364.00,1.7068
3363.00,1.6875
3362.00,1.6684
3361.00,1.6496
3360.00,1.6308
3359.00,1.6123
3358.00,1.5939
3357.00,1.5761
3356.00,1.5589
3355.00,1.5424
3354.00,1.5265
3353.00,1.5115
3352.00,1.4975
3351.00,1.4846
3350.00,1.4731
3349.00,1.4630
3348.00,1.4545
3347.00,1.4474
3346.00,1.4418
3345.00,1.4376
3344.00,1.4348
3343.00,1.4336
3342.00,1.4339
3341.00,1.4360
3340.00,1.4397
3339.00,1.4450
3338.00,1.4519
3337.00,1.4602
3336.00,1.4700
3335.00,1.4811
3334.00,1.4934
3333.00,1.5069
3332.00,1.5214
3331.00,1.5368
3330.00,1.5530
3329.00,1.5698
3328.00,1.5872
3327.00,1.6050
3326.00,1.6232
3325.00,1.6418
3324.00,1.6607
3323.00,1.6798
3322.00,1.6990
3321.00,1.7183
3320.00,1.7374
3319.00,1.7563
3318.00,1.7751
3317.00,1.7938
3316.00,1.8122
3315.00,1.8302
3314.00,1.8479
3313.00,1.8655
3312.00,1.8827
3311.00,1.8990
3310.00,1.9144
3309.00,1.9290
3308.00,1.9433
3307.00,1.9577
3306.00,1.9722
3305.00,1.9864
3304.00,1.9999
3303.00,2.0123
3302.00,2.0238
3301.00,2.0347
3300.00,2.0450
3299.00,2.0544
3298.00,2.0632
3297.00,2.0719
3296.00,2.0805
3295.00,2.0887
3294.00,2.0962
3293.00,2.1033
3292.00,2.1102
3291.00,2.1169
3290.00,2.1233
3289.00,2.1289
3288.00,2.1334
3287.00,2.1366
3286.00,2.1394
3285.00,2.1426
3284.00,2.1462
3283.00,2.1494
3282.00,2.1516
3281.00,2.1531
3280.00,2.1543
3279.00,2.1551
3278.00,2.1554
3277.00,2.1549
3276.00,2.1540
3275.00,2.1527
3274.00,2.1512
3273.00,2.1495
3272.00,2.1472
3271.00,2.1442
3270.00,2.1406
3269.00,2.1366
3268.00,2.1320
3267.00,2.1268
3266.00,2.1213
3265.00,2.1156
3264.00,2.1097
3263.00,2.1034
3262.00,2.0966
3261.00,2.0895
3260.00,2.0823
3259.00,2.0747
3258.00,2.0664
3257.00,2.0573
3256.00,2.0473
3255.00,2.0369
3254.00,2.0262
3253.00,2.0155
3252.00,2.0042
3251.00,1.9921
3250.00,1.9794
3249.00,1.9664
3248.00,1.9532
3247.00,1.9394
3246.00,1.9248
3245.00,1.9095
3244.00,1.8941
3243.00,1.8785
3242.00,1.8627
3241.00,1.8467
3240.00,1.8303
3239.00,1.8136
3238.00,1.7966
3237.00,1.7796
3236.00,1.7626
3235.00,1.7455
3234.00,1.7282
3233.00,1.7108
3232.00,1.6933
3231.00,1.6761
3230.00,1.6594
3229.00,1.6433
3228.00,1.6279
3227.00,1.6132
3226.00,1.5993
3225.00,1.5862
3224.00,1.5740
3223.00,1.5629
3222.00,1.5529
3221.00,1.5440
3220.00,1.5365
3219.00,1.5303
3218.00,1.5254
3217.00,1.5219
3216.00,1.5198
3215.00,1.5192
3214.00,1.5201
3213.00,1.5224
3212.00,1.5261
3211.00,1.5313
3210.00,1.5379
3209.00,1.5459
3208.00,1.5552
3207.00,1.5656
3206.00,1.5771
3205.00,1.5897
3204.00,1.6032
3203.00,1.6175
3202.00,1.6325
3201.00,1.6482
3200.00,1.6647
3199.00,1.6819
3198.00,1.6996
3197.00,1.7176
3196.00,1.7354
3195.00,1.7531
3194.00,1.7708
3193.00,1.7887
3192.00,1.8068
3191.00,1.8251
3190.00,1.8435
3189.00,1.8617
3188.00,1.8796
3187.00,1.8970
3186.00,1.9143
3185.00,1.9313
3184.00,1.9481
3183.00,1.9642
3182.00,1.9796
3181.00,1.9945
3180.00,2.0088
3179.00,2.0225
3178.00,2.0357
3177.00,2.0484
3176.00,2.0608
3175.00,2.0728
3174.00,2.0843
3173.00,2.0953
3172.00,2.1057
3171.00,2.1155
3170.00,2.1249
3169.00,2.1338
3168.00,2.1419
3167.00,2.1492
3166.00,2.1560
3165.00,2.1627
3164.00,2.1689
3163.00,2.1743
3162.00,2.1786
3161.00,2.1822
3160.00,2.1858
3159.00,2.1898
3158.00,2.1943
3157.00,2.1989
3156.00,2.2031
3155.00,2.2069
3154.00,2.2105
3153.00,2.2140
3152.00,2.2168
3151.00,2.2184
3150.00,2.2186
3149.00,2.2178
3148.00,2.2165
3147.00,2.2152
3146.00,2.2142
3145.00,2.2130
3144.00,2.2110
3143.00,2.2079
3142.00,2.2045
3141.00,2.2015
3140.00,2.1986
3139.00,2.1951
3138.00,2.1904
3137.00,2.1845
3136.00,2.1778
3135.00,2.1708
3134.00,2.1638
3133.00,2.1566
3132.00,2.1485
3131.00,2.1390
3130.00,2.1288
3129.00,2.1187
3128.00,2.1087
3127.00,2.0983
3126.00,2.0875
3125.00,2.0764
3124.00,2.0647
3123.00,2.0519
3122.00,2.0378
3121.00,2.0227
3120.00,2.0071
3119.00,1.9912
3118.00,1.9751
3117.00,1.9585
3116.00,1.9413
3115.00,1.9237
3114.00,1.9060
3113.00,1.8880
3112.00,1.8694
3111.00,1.8499
3110.00,1.8299
3109.00,1.8100
3108.00,1.7905
3107.00,1.7716
3106.00,1.7530
3105.00,1.7345
3104.00,1.7160
3103.00,1.6977
3102.00,1.6797
3101.00,1.6626
3100.00,1.6464
3099.00,1.6314
3098.00,1.6175
3097.00,1.6050
3096.00,1.5940
3095.00,1.5845
3094.00,1.5767
3093.00,1.5707
3092.00,1.5664
3091.00,1.5640
3090.00,1.5634
3089.00,1.5649
3088.00,1.5685
3087.00,1.5740
3086.00,1.5813
3085.00,1.5904
3084.00,1.6012
3083.00,1.6136
3082.00,1.6274
3081.00,1.6424
3080.00,1.6585
3079.00,1.6756
3078.00,1.6938
3077.00,1.7132
3076.00,1.7335
3075.00,1.7548
3074.00,1.7766
3073.00,1.7987
3072.00,1.8209
3071.00,1.8428
3070.00,1.8644
3069.00,1.8859
3068.00,1.9073
3067.00,1.9286
3066.00,1.9497
3065.00,1.9706
3064.00,1.9909
3063.00,2.0106
3062.00,2.0295
3061.00,2.0477
3060.00,2.0656
3059.00,2.0832
3058.00,2.1003
3057.00,2.1166
3056.00,2.1318
3055.00,2.1457
3054.00,2.1588
3053.00,2.1717
3052.00,2.1842
3051.00,2.1961
3050.00,2.2072
3049.00,2.2176
3048.00,2.2274
3047.00,2.2363
3046.00,2.2445
3045.00,2.2520
3044.00,2.2590
3043.00,2.2654
3042.00,2.2714
3041.00,2.2767
3040.00,2.2813
3039.00,2.2851
3038.00,2.2885
3037.00,2.2915
3036.00,2.2939
3035.00,2.2955
3034.00,2.2967
3033.00,2.2977
3032.00,2.2979
3031.00,2.2962
3030.00,2.2927
3029.00,2.2880
3028.00,2.2829
3027.00,2.2775
3026.00,2.2717
3025.00,2.2653
3024.00,2.2584
3023.00,2.2508
3022.00,2.2421
3021.00,2.2319
3020.00,2.2204
3019.00,2.2078
3018.00,2.1946
3017.00,2.1805
3016.00,2.1649
3015.00,2.1476
3014.00,2.1291
3013.00,2.1102
3012.00,2.0910
3011.00,2.0714
3010.00,2.0508
3009.00,2.0291
3008.00,2.0065
3007.00,1.9836
3006.00,1.9609
3005.00,1.9391
3004.00,1.9184
3003.00,1.8989
3002.00,1.8810
3001.00,1.8654
3000.00,1.8526
2999.00,1.8435
2998.00,1.8388
2997.00,1.8390
2996.00,1.8445
2995.00,1.8550
2994.00,1.8706
2993.00,1.8911
2992.00,1.9168
2991.00,1.9473
2990.00,1.9822
2989.00,2.0206
2988.00,2.0619
2987.00,2.1056
2986.00,2.1512
2985.00,2.1985
2984.00,2.2468
2983.00,2.2955
2982.00,2.3443
2981.00,2.3933
2980.00,2.4427
2979.00,2.4925
2978.00,2.5425
2977.00,2.5922
2976.00,2.6418
2975.00,2.6920
2974.00,2.7441
2973.00,2.7990
2972.00,2.8563
2971.00,2.9159
2970.00,2.9783
2969.00,3.0451
2968.00,3.1177
2967.00,3.1956
2966.00,3.2750
2965.00,3.3490
2964.00,3.4129
2963.00,3.4693
2962.00,3.5202
2961.00,3.5602
2960.00,3.5835
2959.00,3.5973
2958.00,3.6152
2957.00,3.6446
2956.00,3.6863
2955.00,3.7416
2954.00,3.8092
2953.00,3.8731
2952.00,3.9117
2951.00,3.9318
2950.00,3.9652
2949.00,4.0341
2948.00,4.1353
2947.00,4.2415
2946.00,4.3065
2945.00,4.2841
2944.00,4.2099
2943.00,4.1715
2942.00,4.2191
2941.00,4.3515
2940.00,4.5213
2939.00,4.6480
2938.00,4.6346
2937.00,4.5222
2936.00,4.4330
2935.00,4.4433
2934.00,4.5755
2933.00,4.7396
2932.00,4.7405
2931.00,4.6274
2930.00,4.5844
2929.00,4.6207
2928.00,4.5613
2927.00,4.4133
2926.00,4.3268
2925.00,4.3105
2924.00,4.2540
2923.00,4.1232
2922.00,4.0037
2921.00,3.9217
2920.00,3.8493
2919.00,3.7734
2918.00,3.7091
2917.00,3.6558
2916.00,3.5922
2915.00,3.5088
2914.00,3.4206
2913.00,3.3451
2912.00,3.2863
2911.00,3.2400
2910.00,3.2024
2909.00,3.1712
2908.00,3.1433
2907.00,3.1161
2906.00,3.0893
2905.00,3.0624
2904.00,3.0339
2903.00,3.0030
2902.00,2.9719
2901.00,2.9432
2900.00,2.9167
2899.00,2.8913
2898.00,2.8668
2897.00,2.8440
2896.00,2.8231
2895.00,2.8039
2894.00,2.7867
2893.00,2.7717
2892.00,2.7589
2891.00,2.7490
2890.00,2.7433
2889.00,2.7419
2888.00,2.7428
2887.00,2.7443
2886.00,2.7473
2885.00,2.7545
2884.00,2.7672
2883.00,2.7854
2882.00,2.8088
2881.00,2.8374
2880.00,2.8701
2879.00,2.9055
2878.00,2.9435
2877.00,2.9860
2876.00,3.0347
2875.00,3.0898
2874.00,3.1505
2873.00,3.2159
2872.00,3.2839
2871.00,3.3526
2870.00,3.4230
2869.00,3.4980
2868.00,3.5759
2867.00,3.6484
2866.00,3.7076
2865.00,3.7515
2864.00,3.7781
2863.00,3.7860
2862.00,3.7779
2861.00,3.7561
2860.00,3.7161
2859.00,3.6532
2858.00,3.5706
2857.00,3.4745
2856.00,3.3678
2855.00,3.2532
2854.00,3.1374
2853.00,3.0266
2852.00,2.9232
2851.00,2.8260
2850.00,2.7341
2849.00,2.6484
2848.00,2.5708
2847.00,2.5036
2846.00,2.4482
2845.00,2.4048
2844.00,2.3728
2843.00,2.3506
2842.00,2.3366
2841.00,2.3296
2840.00,2.3287
2839.00,2.3333
2838.00,2.3420
2837.00,2.3530
2836.00,2.3644
2835.00,2.3758
2834.00,2.3873
2833.00,2.3986
2832.00,2.4085
2831.00,2.4166
2830.00,2.4237
2829.00,2.4310
2828.00,2.4384
2827.00,2.4445
2826.00,2.4485
2825.00,2.4505
2824.00,2.4511
2823.00,2.4506
2822.00,2.4495
2821.00,2.4480
2820.00,2.4458
2819.00,2.4427
2818.00,2.4388
2817.00,2.4342
2816.00,2.4288
2815.00,2.4222
2814.00,2.4149
2813.00,2.4074
2812.00,2.3991
2811.00,2.3892
2810.00,2.3774
2809.00,2.3646
2808.00,2.3516
2807.00,2.3386
2806.00,2.3250
2805.00,2.3104
2804.00,2.2949
2803.00,2.2788
2802.00,2.2623
2801.00,2.2452
2800.00,2.2270
2799.00,2.2076
2798.00,2.1872
2797.00,2.1662
2796.00,2.1445
2795.00,2.1216
2794.00,2.0971
2793.00,2.0704
2792.00,2.0413
2791.00,2.0097
2790.00,1.9764
2789.00,1.9417
2788.00,1.9059
2787.00,1.8692
2786.00,1.8315
2785.00,1.7932
2784.00,1.7547
2783.00,1.7165
2782.00,1.6793
2781.00,1.6435
2780.00,1.6093
2779.00,1.5771
2778.00,1.5473
2777.00,1.5202
2776.00,1.4962
2775.00,1.4757
2774.00,1.4591
2773.00,1.4469
2772.00,1.4392
2771.00,1.4362
2770.00,1.4380
2769.00,1.4443
2768.00,1.4552
2767.00,1.4700
2766.00,1.4886
2765.00,1.5102
2764.00,1.5344
2763.00,1.5605
2762.00,1.5881
2761.00,1.6171
2760.00,1.6471
2759.00,1.6779
2758.00,1.7094
2757.00,1.7413
2756.00,1.7735
2755.00,1.8060
2754.00,1.8388
2753.00,1.8718
2752.00,1.9047
2751.00,1.9366
2750.00,1.9674
2749.00,1.9972
2748.00,2.0261
2747.00,2.0541
2746.00,2.0812
2745.00,2.1073
2744.00,2.1320
2743.00,2.1549
2742.00,2.1761
2741.00,2.1961
2740.00,2.2153
2739.00,2.2341
2738.00,2.2522
2737.00,2.2693
2736.00,2.2850
2735.00,2.2992
2734.00,2.3123
2733.00,2.3250
2732.00,2.3371
2731.00,2.3481
2730.00,2.3581
2729.00,2.3675
2728.00,2.3762
2727.00,2.3841
2726.00,2.3917
2725.00,2.3998
2724.00,2.4088
2723.00,2.4175
2722.00,2.4244
2721.00,2.4290
2720.00,2.4316
2719.00,2.4330
2718.00,2.4339
2717.00,2.4347
2716.00,2.4355
2715.00,2.4361
2714.00,2.4362
2713.00,2.4357
2712.00,2.4344
2711.00,2.4327
2710.00,2.4314
2709.00,2.4307
2708.00,2.4295
2707.00,2.4268
2706.00,2.4221
2705.00,2.4160
2704.00,2.4093
2703.00,2.4023
2702.00,2.3949
2701.00,2.3866
2700.00,2.3774
2699.00,2.3675
2698.00,2.3573
2697.00,2.3472
2696.00,2.3368
2695.00,2.3255
2694.00,2.3131
2693.00,2.2994
2692.00,2.2847
2691.00,2.2691
2690.00,2.2527
2689.00,2.2360
2688.00,2.2186
2687.00,2.2004
2686.00,2.1816
2685.00,2.1625
2684.00,2.1433
2683.00,2.1238
2682.00,2.1042
2681.00,2.0845
2680.00,2.0648
2679.00,2.0452
2678.00,2.0260
2677.00,2.0071
2676.00,1.9882
2675.00,1.9688
2674.00,1.9487
2673.00,1.9281
2672.00,1.9069
2671.00,1.8850
2670.00,1.8623
2669.00,1.8383
2668.00,1.8127
2667.00,1.7848
2666.00,1.7543
2665.00,1.7216
2664.00,1.6874
2663.00,1.6526
2662.00,1.6186
2661.00,1.5863
2660.00,1.5567
2659.00,1.5305
2658.00,1.5082
2657.00,1.4902
2656.00,1.4764
2655.00,1.4670
2654.00,1.4615
2653.00,1.4599
2652.00,1.4617
2651.00,1.4667
2650.00,1.4747
2649.00,1.4854
2648.00,1.4986
2647.00,1.5140
2646.00,1.5315
2645.00,1.5510
2644.00,1.5727
2643.00,1.5963
2642.00,1.6219
2641.00,1.6492
2640.00,1.6782
2639.00,1.7084
2638.00,1.7399
2637.00,1.7724
2636.00,1.8057
2635.00,1.8395
2634.00,1.8734
2633.00,1.9071
2632.00,1.9403
2631.00,1.9726
2630.00,2.0040
2629.00,2.0343
2628.00,2.0638
2627.00,2.0925
2626.00,2.1203
2625.00,2.1469
2624.00,2.1721
2623.00,2.1957
2622.00,2.2181
2621.00,2.2393
2620.00,2.2591
2619.00,2.2773
2618.00,2.2940
2617.00,2.3101
2616.00,2.3261
2615.00,2.3419
2614.00,2.3569
2613.00,2.3703
2612.00,2.3822
2611.00,2.3928
2610.00,2.4032
2609.00,2.4137
2608.00,2.4238
2607.00,2.4332
2606.00,2.4417
2605.00,2.4498
2604.00,2.4577
2603.00,2.4655
2602.00,2.4732
2601.00,2.4805
2600.00,2.4865
2599.00,2.4911
2598.00,2.4951
2597.00,2.4994
2596.00,2.5042
2595.00,2.5085
2594.00,2.5120
2593.00,2.5150
2592.00,2.5178
2591.00,2.5201
2590.00,2.5214
2589.00,2.5218
2588.00,2.5217
2587.00,2.5215
2586.00,2.5209
2585.00,2.5195
2584.00,2.5174
2583.00,2.5149
2582.00,2.5125
2581.00,2.5097
2580.00,2.5058
2579.00,2.5007
2578.00,2.4952
2577.00,2.4898
2576.00,2.4839
2575.00,2.4770
2574.00,2.4694
2573.00,2.4616
2572.00,2.4534
2571.00,2.4443
2570.00,2.4343
2569.00,2.4239
2568.00,2.4131
2567.00,2.4016
2566.00,2.3894
2565.00,2.3761
2564.00,2.3615
2563.00,2.3453
2562.00,2.3277
2561.00,2.3094
2560.00,2.2908
2559.00,2.2720
2558.00,2.2529
2557.00,2.2331
2556.00,2.2120
2555.00,2.1892
2554.00,2.1648
2553.00,2.1389
2552.00,2.1117
2551.00,2.0833
2550.00,2.0539
2549.00,2.0235
2548.00,1.9920
2547.00,1.9590
2546.00,1.9245
2545.00,1.8889
2544.00,1.8525
2543.00,1.8157
2542.00,1.7783
2541.00,1.7404
2540.00,1.7022
2539.00,1.6640
2538.00,1.6263
2537.00,1.5894
2536.00,1.5539
2535.00,1.5201
2534.00,1.4887
2533.00,1.4601
2532.00,1.4347
2531.00,1.4126
2530.00,1.3940
2529.00,1.3794
2528.00,1.3692
2527.00,1.3635
2526.00,1.3624
2525.00,1.3661
2524.00,1.3744
2523.00,1.3869
2522.00,1.4034
2521.00,1.4235
2520.00,1.4469
2519.00,1.4734
2518.00,1.5026
2517.00,1.5345
2516.00,1.5686
2515.00,1.6044
2514.00,1.6413
2513.00,1.6793
2512.00,1.7179
2511.00,1.7572
2510.00,1.7966
2509.00,1.8359
2508.00,1.8746
2507.00,1.9124
2506.00,1.9495
2505.00,1.9856
2504.00,2.0207
2503.00,2.0544
2502.00,2.0865
2501.00,2.1173
2500.00,2.1469
2499.00,2.1749
2498.00,2.2014
2497.00,2.2265
2496.00,2.2506
2495.00,2.2738
2494.00,2.2963
2493.00,2.3179
2492.00,2.3385
2491.00,2.3580
2490.00,2.3763
2489.00,2.3932
2488.00,2.4086
2487.00,2.4228
2486.00,2.4365
2485.00,2.4505
2484.00,2.4646
2483.00,2.4779
2482.00,2.4901
2481.00,2.5013
2480.00,2.5113
2479.00,2.5199
2478.00,2.5273
2477.00,2.5345
2476.00,2.5423
2475.00,2.5503
2474.00,2.5579
2473.00,2.5648
2472.00,2.5708
2471.00,2.5757
2470.00,2.5797
2469.00,2.5840
2468.00,2.5890
2467.00,2.5942
2466.00,2.5982
2465.00,2.6003
2464.00,2.6012
2463.00,2.6017
2462.00,2.6021
2461.00,2.6026
2460.00,2.6031
2459.00,2.6032
2458.00,2.6019
2457.00,2.5989
2456.00,2.5949
2455.00,2.5911
2454.00,2.5877
2453.00,2.5846
2452.00,2.5811
2451.00,2.5768
2450.00,2.5719
2449.00,2.5665
2448.00,2.5607
2447.00,2.5546
2446.00,2.5480
2445.00,2.5403
2444.00,2.5311
2443.00,2.5208
2442.00,2.5101
2441.00,2.4995
2440.00,2.4886
2439.00,2.4767
2438.00,2.4634
2437.00,2.4488
2436.00,2.4336
2435.00,2.4185
2434.00,2.4031
2433.00,2.3866
2432.00,2.3687
2431.00,2.3495
2430.00,2.3292
2429.00,2.3076
2428.00,2.2846
2427.00,2.2606
2426.00,2.2361
2425.00,2.2107
2424.00,2.1841
2423.00,2.1562
2422.00,2.1270
2421.00,2.0965
2420.00,2.0643
2419.00,2.0299
2418.00,1.9935
2417.00,1.9552
2416.00,1.9151
2415.00,1.8733
2414.00,1.8298
2413.00,1.7849
2412.00,1.7391
2411.00,1.6926
2410.00,1.6461
2409.00,1.6000
2408.00,1.5551
2407.00,1.5119
2406.00,1.4711
2405.00,1.4334
2404.00,1.3995
2403.00,1.3701
2402.00,1.3458
2401.00,1.3273
2400.00,1.3149
2399.00,1.3089
2398.00,1.3095
2397.00,1.3165
2396.00,1.3298
2395.00,1.3490
2394.00,1.3735
2393.00,1.4028
2392.00,1.4362
2391.00,1.4729
2390.00,1.5120
2389.00,1.5528
2388.00,1.5945
2387.00,1.6365
2386.00,1.6779
2385.00,1.7182
2384.00,1.7566
2383.00,1.7924
2382.00,1.8254
2381.00,1.8554
2380.00,1.8828
2379.00,1.9081
2378.00,1.9320
2377.00,1.9550
2376.00,1.9776
2375.00,2.0002
2374.00,2.0235
2373.00,2.0481
2372.00,2.0740
2371.00,2.1002
2370.00,2.1256
2369.00,2.1497
2368.00,2.1730
2367.00,2.1960
2366.00,2.2187
2365.00,2.2409
2364.00,2.2613
2363.00,2.2788
2362.00,2.2943
2361.00,2.3093
2360.00,2.3238
2359.00,2.3378
2358.00,2.3512
2357.00,2.3650
2356.00,2.3803
2355.00,2.3964
2354.00,2.4134
2353.00,2.4305
2352.00,2.4470
2351.00,2.4603
2350.00,2.4697
2349.00,2.4778
2348.00,2.4866
2347.00,2.4967
2346.00,2.5062
2345.00,2.5137
2344.00,2.5201
2343.00,2.5265
2342.00,2.5350
2341.00,2.5439
2340.00,2.5524
2339.00,2.5596
2338.00,2.5659
2337.00,2.5717
2336.00,2.5763
2335.00,2.5783
2334.00,2.5765
2333.00,2.5717
2332.00,2.5655
2331.00,2.5607
2330.00,2.5578
2329.00,2.5573
2328.00,2.5555
2327.00,2.5519
2326.00,2.5459
2325.00,2.5401
2324.00,2.5348
2323.00,2.5293
2322.00,2.5234
2321.00,2.5169
2320.00,2.5111
2319.00,2.5062
2318.00,2.5027
2317.00,2.5006
2316.00,2.4984
2315.00,2.4954
2314.00,2.4903
2313.00,2.4836
2312.00,2.4748
2311.00,2.4656
2310.00,2.4559
2309.00,2.4471
2308.00,2.4386
2307.00,2.4306
2306.00,2.4221
2305.00,2.4127
2304.00,2.4013
2303.00,2.3883
2302.00,2.3735
2301.00,2.3574
2300.00,2.3400
2299.00,2.3217
2298.00,2.3024
2297.00,2.2820
2296.00,2.2599
2295.00,2.2365
2294.00,2.2122
2293.00,2.1865
2292.00,2.1582
2291.00,2.1263
2290.00,2.0914
2289.00,2.0543
2288.00,2.0155
2287.00,1.9746
2286.00,1.9317
2285.00,1.8871
2284.00,1.8408
2283.00,1.7929
2282.00,1.7438
2281.00,1.6941
2280.00,1.6451
2279.00,1.5974
2278.00,1.5522
2277.00,1.5101
2276.00,1.4720
2275.00,1.4385
2274.00,1.4102
2273.00,1.3873
2272.00,1.3704
2271.00,1.3597
2270.00,1.3555
2269.00,1.3580
2268.00,1.3673
2267.00,1.3832
2266.00,1.4055
2265.00,1.4336
2264.00,1.4671
2263.00,1.5051
2262.00,1.5468
2261.00,1.5914
2260.00,1.6383
2259.00,1.6867
2258.00,1.7362
2257.00,1.7861
2256.00,1.8358
2255.00,1.8847
2254.00,1.9322
2253.00,1.9779
2252.00,2.0212
2251.00,2.0617
2250.00,2.0994
2249.00,2.1350
2248.00,2.1692
2247.00,2.2026
2246.00,2.2355
2245.00,2.2676
2244.00,2.2985
2243.00,2.3277
2242.00,2.3555
2241.00,2.3824
2240.00,2.4085
2239.00,2.4332
2238.00,2.4559
2237.00,2.4771
2236.00,2.4976
2235.00,2.5178
2234.00,2.5376
2233.00,2.5567
2232.00,2.5744
2231.00,2.5903
2230.00,2.6043
2229.00,2.6169
2228.00,2.6289
2227.00,2.6415
2226.00,2.6551
2225.00,2.6691
2224.00,2.6818
2223.00,2.6920
2222.00,2.7004
2221.00,2.7089
2220.00,2.7182
2219.00,2.7272
2218.00,2.7340
2217.00,2.7386
2216.00,2.7426
2215.00,2.7474
2214.00,2.7532
2213.00,2.7595
2212.00,2.7655
2211.00,2.7709
2210.00,2.7754
2209.00,2.7789
2208.00,2.7815
2207.00,2.7837
2206.00,2.7852
2205.00,2.7851
2204.00,2.7833
2203.00,2.7809
2202.00,2.7796
2201.00,2.7795
2200.00,2.7794
2199.00,2.7785
2198.00,2.7774
2197.00,2.7766
2196.00,2.7753
2195.00,2.7725
2194.00,2.7681
2193.00,2.7628
2192.00,2.7570
2191.00,2.7505
2190.00,2.7428
2189.00,2.7343
2188.00,2.7258
2187.00,2.7178
2186.00,2.7104
2185.00,2.7022
2184.00,2.6915
2183.00,2.6780
2182.00,2.6633
2181.00,2.6490
2180.00,2.6355
2179.00,2.6222
2178.00,2.6090
2177.00,2.5959
2176.00,2.5826
2175.00,2.5678
2174.00,2.5504
2173.00,2.5309
2172.00,2.5104
2171.00,2.4895
2170.00,2.4680
2169.00,2.4450
2168.00,2.4202
2167.00,2.3935
2166.00,2.3652
2165.00,2.3354
2164.00,2.3042
2163.00,2.2709
2162.00,2.2353
2161.00,2.1973
2160.00,2.1573
2159.00,2.1155
2158.00,2.0720
2157.00,2.0263
2156.00,1.9786
2155.00,1.9289
2154.00,1.8779
2153.00,1.8261
2152.00,1.7743
2151.00,1.7231
2150.00,1.6735
2149.00,1.6264
2148.00,1.5825
2147.00,1.5429
2146.00,1.5082
2145.00,1.4794
2144.00,1.4573
2143.00,1.4425
2142.00,1.4354
2141.00,1.4362
2140.00,1.4447
2139.00,1.4606
2138.00,1.4832
2137.00,1.5119
2136.00,1.5457
2135.00,1.5836
2134.00,1.6248
2133.00,1.6683
2132.00,1.7133
2131.00,1.7592
2130.00,1.8058
2129.00,1.8528
2128.00,1.8998
2127.00,1.9465
2126.00,1.9930
2125.00,2.0391
2124.00,2.0847
2123.00,2.1295
2122.00,2.1731
2121.00,2.2150
2120.00,2.2542
2119.00,2.2903
2118.00,2.3238
2117.00,2.3554
2116.00,2.3858
2115.00,2.4153
2114.00,2.4442
2113.00,2.4724
2112.00,2.4990
2111.00,2.5238
2110.00,2.5474
2109.00,2.5705
2108.00,2.5930
2107.00,2.6141
2106.00,2.6332
2105.00,2.6505
2104.00,2.6663
2103.00,2.6815
2102.00,2.6968
2101.00,2.7129
2100.00,2.7290
2099.00,2.7443
2098.00,2.7585
2097.00,2.7714
2096.00,2.7826
2095.00,2.7923
2094.00,2.8015
2093.00,2.8110
2092.00,2.8199
2091.00,2.8271
2090.00,2.8329
2089.00,2.8392
2088.00,2.8469
2087.00,2.8550
2086.00,2.8610
2085.00,2.8633
2084.00,2.8630
2083.00,2.8627
2082.00,2.8644
2081.00,2.8674
2080.00,2.8698
2079.00,2.8716
2078.00,2.8744
2077.00,2.8785
2076.00,2.8816
2075.00,2.8822
2074.00,2.8812
2073.00,2.8803
2072.00,2.8791
2071.00,2.8766
2070.00,2.8733
2069.00,2.8709
2068.00,2.8695
2067.00,2.8673
2066.00,2.8626
2065.00,2.8556
2064.00,2.8481
2063.00,2.8417
2062.00,2.8368
2061.00,2.8321
2060.00,2.8256
2059.00,2.8167
2058.00,2.8068
2057.00,2.7974
2056.00,2.7879
2055.00,2.7766
2054.00,2.7628
2053.00,2.7479
2052.00,2.7337
2051.00,2.7204
2050.00,2.7069
2049.00,2.6920
2048.00,2.6749
2047.00,2.6558
2046.00,2.6357
2045.00,2.6154
2044.00,2.5951
2043.00,2.5741
2042.00,2.5514
2041.00,2.5268
2040.00,2.5004
2039.00,2.4725
2038.00,2.4428
2037.00,2.4110
2036.00,2.3771
2035.00,2.3415
2034.00,2.3042
2033.00,2.2649
2032.00,2.2234
2031.00,2.1796
2030.00,2.1337
2029.00,2.0855
2028.00,2.0352
2027.00,1.9832
2026.00,1.9302
2025.00,1.8770
2024.00,1.8244
2023.00,1.7728
2022.00,1.7231
2021.00,1.6762
2020.00,1.6333
2019.00,1.5954
2018.00,1.5636
2017.00,1.5388
2016.00,1.5220
2015.00,1.5139
2014.00,1.5144
2013.00,1.5227
2012.00,1.5381
2011.00,1.5602
2010.00,1.5885
2009.00,1.6225
2008.00,1.6613
2007.00,1.7042
2006.00,1.7504
2005.00,1.7991
2004.00,1.8496
2003.00,1.9010
2002.00,1.9528
2001.00,2.0045
2000.00,2.0557
1999.00,2.1062
1998.00,2.1554
1997.00,2.2024
1996.00,2.2468
1995.00,2.2887
1994.00,2.3285
1993.00,2.3663
1992.00,2.4023
1991.00,2.4376
1990.00,2.4727
1989.00,2.5069
1988.00,2.5394
1987.00,2.5701
1986.00,2.5996
1985.00,2.6274
1984.00,2.6520
1983.00,2.6731
1982.00,2.6926
1981.00,2.7119
1980.00,2.7308
1979.00,2.7491
1978.00,2.7668
1977.00,2.7844
1976.00,2.8006
1975.00,2.8145
1974.00,2.8268
1973.00,2.8389
1972.00,2.8504
1971.00,2.8604
1970.00,2.8689
1969.00,2.8769
1968.00,2.8852
1967.00,2.8934
1966.00,2.9018
1965.00,2.9111
1964.00,2.9208
1963.00,2.9296
1962.00,2.9374
1961.00,2.9456
1960.00,2.9547
1959.00,2.9641
1958.00,2.9721
1957.00,2.9781
1956.00,2.9811
1955.00,2.9805
1954.00,2.9771
1953.00,2.9737
1952.00,2.9724
1951.00,2.9729
1950.00,2.9745
1949.00,2.9762
1948.00,2.9765
1947.00,2.9738
1946.00,2.9681
1945.00,2.9609
1944.00,2.9535
1943.00,2.9464
1942.00,2.9408
1941.00,2.9377
1940.00,2.9369
1939.00,2.9368
1938.00,2.9356
1937.00,2.9335
1936.00,2.9307
1935.00,2.9255
1934.00,2.9155
1933.00,2.9009
1932.00,2.8842
1931.00,2.8673
1930.00,2.8522
1929.00,2.8391
1928.00,2.8270
1927.00,2.8137
1926.00,2.7974
1925.00,2.7780
1924.00,2.7553
1923.00,2.7302
1922.00,2.7064
1921.00,2.6874
1920.00,2.6711
1919.00,2.6498
1918.00,2.6193
1917.00,2.5849
1916.00,2.5544
1915.00,2.5287
1914.00,2.5020
1913.00,2.4694
1912.00,2.4314
1911.00,2.3904
1910.00,2.3479
1909.00,2.3036
1908.00,2.2581
1907.00,2.2114
1906.00,2.1623
1905.00,2.1102
1904.00,2.0546
1903.00,1.9963
1902.00,1.9372
1901.00,1.8786
1900.00,1.8219
1899.00,1.7678
1898.00,1.7177
1897.00,1.6741
1896.00,1.6384
1895.00,1.6110
1894.00,1.5929
1893.00,1.5866
1892.00,1.5931
1891.00,1.6104
1890.00,1.6366
1889.00,1.6717
1888.00,1.7170
1887.00,1.7712
1886.00,1.8303
1885.00,1.8906
1884.00,1.9505
1883.00,2.0106
1882.00,2.0709
1881.00,2.1301
1880.00,2.1868
1879.00,2.2408
1878.00,2.2917
1877.00,2.3404
1876.00,2.3869
1875.00,2.4291
1874.00,2.4659
1873.00,2.4988
1872.00,2.5299
1871.00,2.5584
1870.00,2.5815
1869.00,2.6003
1868.00,2.6212
1867.00,2.6504
1866.00,2.6881
1865.00,2.7279
1864.00,2.7626
1863.00,2.7901
1862.00,2.8131
1861.00,2.8347
1860.00,2.8545
1859.00,2.8720
1858.00,2.8889
1857.00,2.9070
1856.00,2.9259
1855.00,2.9424
1854.00,2.9554
1853.00,2.9651
1852.00,2.9743
1851.00,2.9854
1850.00,2.9953
1849.00,3.0002
1848.00,3.0029
1847.00,3.0114
1846.00,3.0275
1845.00,3.0410
1844.00,3.0431
1843.00,3.0402
1842.00,3.0451
1841.00,3.0589
1840.00,3.0711
1839.00,3.0736
1838.00,3.0709
1837.00,3.0719
1836.00,3.0762
1835.00,3.0766
1834.00,3.0704
1833.00,3.0609
1832.00,3.0516
1831.00,3.0411
1830.00,3.0266
1829.00,3.0116
1828.00,3.0024
1827.00,2.9997
1826.00,2.9968
1825.00,2.9890
1824.00,2.9803
1823.00,2.9755
1822.00,2.9728
1821.00,2.9658
1820.00,2.9532
1819.00,2.9381
1818.00,2.9232
1817.00,2.9068
1816.00,2.8847
1815.00,2.8572
1814.00,2.8280
1813.00,2.8012
1812.00,2.7783
1811.00,2.7573
1810.00,2.7370
1809.00,2.7175
1808.00,2.6991
1807.00,2.6802
1806.00,2.6579
1805.00,2.6292
1804.00,2.5924
1803.00,2.5494
1802.00,2.5019
1801.00,2.4512
1800.00,2.3992
1799.00,2.3460
1798.00,2.2908
1797.00,2.2346
1796.00,2.1824
1795.00,2.1396
1794.00,2.1044
1793.00,2.0719
1792.00,2.0455
1791.00,2.0362
1790.00,2.0515
1789.00,2.0887
1788.00,2.1393
1787.00,2.1960
1786.00,2.2553
1785.00,2.3168
1784.00,2.3800
1783.00,2.4471
1782.00,2.5162
1781.00,2.5834
1780.00,2.6476
1779.00,2.7086
1778.00,2.7649
1777.00,2.8148
1776.00,2.8620
1775.00,2.9136
1774.00,2.9665
1773.00,3.0090
1772.00,3.0385
1771.00,3.0666
1770.00,3.1027
1769.00,3.1443
1768.00,3.1794
1767.00,3.2025
1766.00,3.2202
1765.00,3.2385
1764.00,3.2520
1763.00,3.2536
1762.00,3.2461
1761.00,3.2426
1760.00,3.2513
1759.00,3.2701
1758.00,3.2914
1757.00,3.3048
1756.00,3.3073
1755.00,3.3066
1754.00,3.3136
1753.00,3.3295
1752.00,3.3452
1751.00,3.3541
1750.00,3.3625
1749.00,3.3784
1748.00,3.4004
1747.00,3.4276
1746.00,3.4664
1745.00,3.5254
1744.00,3.6015
1743.00,3.6749
1742.00,3.7300
1741.00,3.7763
1740.00,3.8309
1739.00,3.9051
1738.00,4.0057
1737.00,4.1203
1736.00,4.2177
1735.00,4.2646
1734.00,4.2532
1733.00,4.2378
1732.00,4.2787
1731.00,4.3815
1730.00,4.5317
1729.00,4.6980
1728.00,4.7823
1727.00,4.7401
1726.00,4.8561
1725.00,5.2499
1724.00,4.7092
1723.00,4.4847
1722.00,4.4661
1721.00,4.4167
1720.00,4.3208
1719.00,4.2621
1718.00,4.2900
1717.00,4.5411
1716.00,4.9984
1715.00,4.5315
1714.00,4.3674
1713.00,4.3907
1712.00,4.4398
1711.00,4.4545
1710.00,4.4631
1709.00,4.5098
1708.00,4.5869
1707.00,4.6427
1706.00,4.6506
1705.00,4.6916
1704.00,4.9318
1703.00,5.1706
1702.00,4.8331
1701.00,4.6999
1700.00,4.7383
1699.00,4.8329
1698.00,4.7312
1697.00,4.6049
1696.00,4.5099
1695.00,4.4094
1694.00,4.3401
1693.00,4.2921
1692.00,4.2268
1691.00,4.1193
1690.00,3.9796
1689.00,3.8374
1688.00,3.7262
1687.00,3.6629
1686.00,3.6369
1685.00,3.6178
1684.00,3.5847
1683.00,3.5434
1682.00,3.5111
1681.00,3.4948
1680.00,3.4841
1679.00,3.4696
1678.00,3.4516
1677.00,3.4290
1676.00,3.3915
1675.00,3.3363
1674.00,3.2755
1673.00,3.2221
1672.00,3.1758
1671.00,3.1261
1670.00,3.0663
1669.00,2.9995
1668.00,2.9337
1667.00,2.8762
1666.00,2.8288
1665.00,2.7873
1664.00,2.7421
1663.00,2.6918
1662.00,2.6496
1661.00,2.6279
1660.00,2.6291
1659.00,2.6434
1658.00,2.6613
1657.00,2.6858
1656.00,2.7302
1655.00,2.7923
1654.00,2.8452
1653.00,2.8699
1652.00,2.8753
1651.00,2.8852
1650.00,2.9158
1649.00,2.9622
1648.00,3.0065
1647.00,3.0389
1646.00,3.0634
1645.00,3.0869
1644.00,3.1133
1643.00,3.1466
1642.00,3.1824
1641.00,3.2057
1640.00,3.2109
1639.00,3.2106
1638.00,3.2208
1637.00,3.2377
1636.00,3.2452
1635.00,3.2398
1634.00,3.2370
1633.00,3.2488
1632.00,3.2666
1631.00,3.2769
1630.00,3.2786
1629.00,3.2783
1628.00,3.2777
1627.00,3.2738
1626.00,3.2645
1625.00,3.2511
1624.00,3.2355
1623.00,3.2209
1622.00,3.2126
1621.00,3.2139
1620.00,3.2277
1619.00,3.2523
1618.00,3.2743
1617.00,3.2735
1616.00,3.2455
1615.00,3.2107
1614.00,3.1896
1613.00,3.1820
1612.00,3.1729
1611.00,3.1545
1610.00,3.1316
1609.00,3.1095
1608.00,3.0882
1607.00,3.0688
1606.00,3.0523
1605.00,3.0348
1604.00,3.0129
1603.00,2.9871
1602.00,2.9597
1601.00,2.9324
1600.00,2.9055
1599.00,2.8777
1598.00,2.8462
1597.00,2.8083
1596.00,2.7658
1595.00,2.7232
1594.00,2.6830
1593.00,2.6429
1592.00,2.5992
1591.00,2.5515
1590.00,2.5014
1589.00,2.4486
1588.00,2.3924
1587.00,2.3318
1586.00,2.2686
1585.00,2.2032
1584.00,2.1385
1583.00,2.0795
1582.00,2.0264
1581.00,1.9786
1580.00,1.9434
1579.00,1.9320
1578.00,1.9433
1577.00,1.9627
1576.00,1.9776
1575.00,1.9936
1574.00,2.0251
1573.00,2.0776
1572.00,2.1435
1571.00,2.2080
1570.00,2.2651
1569.00,2.3208
1568.00,2.3825
1567.00,2.4494
1566.00,2.5139
1565.00,2.5681
1564.00,2.6130
1563.00,2.6594
1562.00,2.7122
1561.00,2.7584
1560.00,2.7751
1559.00,2.7729
1558.00,2.7835
1557.00,2.8188
1556.00,2.8750
1555.00,2.9348
1554.00,2.9786
1553.00,3.0009
1552.00,3.0238
1551.00,3.0408
1550.00,3.1044
1549.00,3.1420
1548.00,3.1537
1547.00,3.1696
1546.00,3.1844
1545.00,3.1937
1544.00,3.2268
1543.00,3.1573
1542.00,3.1439
1541.00,3.1785
1540.00,3.1975
1539.00,3.2181
1538.00,3.2208
1537.00,3.2286
1536.00,3.2447
1535.00,3.2622
1534.00,3.2673
1533.00,3.2656
1532.00,3.2728
1531.00,3.2867
1530.00,3.2939
1529.00,3.2884
1528.00,3.2745
1527.00,3.2609
1526.00,3.2530
1525.00,3.2509
1524.00,3.2506
1523.00,3.2444
1522.00,3.2283
1521.00,3.2085
1520.00,3.1960
1519.00,3.1937
1518.00,3.1946
1517.00,3.1938
1516.00,3.1943
1515.00,3.2018
1514.00,3.2133
1513.00,3.2174
1512.00,3.2024
1511.00,3.1685
1510.00,3.1290
1509.00,3.0987
1508.00,3.0838
1507.00,3.0845
1506.00,3.0892
1505.00,3.0824
1504.00,3.0701
1503.00,3.0635
1502.00,3.0611
1501.00,3.0538
1500.00,3.0372
1499.00,3.0139
1498.00,2.9855
1497.00,2.9508
1496.00,2.9070
1495.00,2.8568
1494.00,2.8095
1493.00,2.7666
1492.00,2.7176
1491.00,2.6528
1490.00,2.5805
1489.00,2.5192
1488.00,2.4746
1487.00,2.4369
1486.00,2.3999
1485.00,2.3624
1484.00,2.3274
1483.00,2.2983
1482.00,2.2767
1481.00,2.2664
1480.00,2.2715
1479.00,2.2920
1478.00,2.3226
1477.00,2.3609
1476.00,2.4101
1475.00,2.4746
1474.00,2.5530
1473.00,2.6403
1472.00,2.7342
1471.00,2.8309
1470.00,2.9240
1469.00,3.0103
1468.00,3.0887
1467.00,3.1601
1466.00,3.2280
1465.00,3.2922
1464.00,3.3453
1463.00,3.3735
1462.00,3.3785
1461.00,3.3798
1460.00,3.3942
1459.00,3.4260
1458.00,3.4730
1457.00,3.5407
1456.00,3.6388
1455.00,3.7696
1454.00,3.9078
1453.00,4.0099
1452.00,4.0715
1451.00,4.1019
1450.00,4.0960
1449.00,4.0829
1448.00,4.0501
1447.00,3.9422
1446.00,3.7870
1445.00,3.6478
1444.00,3.5468
1443.00,3.4799
1442.00,3.4386
1441.00,3.4155
1440.00,3.4056
1439.00,3.4034
1438.00,3.4062
1437.00,3.4191
1436.00,3.4530
1435.00,3.5135
1434.00,3.5960
1433.00,3.6890
1432.00,3.7734
1431.00,3.8294
1430.00,3.8597
1429.00,3.8852
1428.00,3.9113
1427.00,3.9235
1426.00,3.9119
1425.00,3.8837
1424.00,3.8505
1423.00,3.8223
1422.00,3.8063
1421.00,3.7937
1420.00,3.7599
1419.00,3.6903
1418.00,3.6039
1417.00,3.5310
1416.00,3.4803
1415.00,3.4430
1414.00,3.4119
1413.00,3.3882
1412.00,3.3770
1411.00,3.3797
1410.00,3.3936
1409.00,3.4134
1408.00,3.4300
1407.00,3.4378
1406.00,3.4404
1405.00,3.4458
1404.00,3.4565
1403.00,3.4656
1402.00,3.4659
1401.00,3.4568
1400.00,3.4437
1399.00,3.4342
1398.00,3.4351
1397.00,3.4481
1396.00,3.4673
1395.00,3.4827
1394.00,3.4879
1393.00,3.4867
1392.00,3.4871
1391.00,3.4913
1390.00,3.4957
1389.00,3.4951
1388.00,3.4887
1387.00,3.4832
1386.00,3.4878
1385.00,3.5007
1384.00,3.5109
1383.00,3.5098
1382.00,3.5008
1381.00,3.4939
1380.00,3.4900
1379.00,3.4823
1378.00,3.4687
1377.00,3.4511
1376.00,3.4285
1375.00,3.4017
1374.00,3.3775
1373.00,3.3639
1372.00,3.3605
1371.00,3.3587
1370.00,3.3509
1369.00,3.3366
1368.00,3.3195
1367.00,3.2987
1366.00,3.2703
1365.00,3.2332
1364.00,3.1927
1363.00,3.1561
1362.00,3.1269
1361.00,3.1026
1360.00,3.0790
1359.00,3.0553
1358.00,3.0340
1357.00,3.0198
1356.00,3.0184
1355.00,3.0352
1354.00,3.0740
1353.00,3.1359
1352.00,3.2176
1351.00,3.3137
1350.00,3.4179
1349.00,3.5217
1348.00,3.6074
1347.00,3.6505
1346.00,3.6400
1345.00,3.5927
1344.00,3.5393
1343.00,3.5073
1342.00,3.5126
1341.00,3.5576
1340.00,3.6242
1339.00,3.6710
1338.00,3.6634
1337.00,3.6075
1336.00,3.5262
1335.00,3.4336
1334.00,3.3392
1333.00,3.2529
1332.00,3.1827
1331.00,3.1333
1330.00,3.1052
1329.00,3.0960
1328.00,3.1024
1327.00,3.1235
1326.00,3.1618
1325.00,3.2206
1324.00,3.2997
1323.00,3.3928
1322.00,3.4891
1321.00,3.5768
1320.00,3.6491
1319.00,3.7094
1318.00,3.7735
1317.00,3.8604
1316.00,3.9804
1315.00,4.1301
1314.00,4.2835
1313.00,4.4147
1312.00,4.4380
1311.00,4.3016
1310.00,4.1546
1309.00,4.0276
1308.00,3.9060
1307.00,3.7946
1306.00,3.6906
1305.00,3.5881
1304.00,3.4845
1303.00,3.3848
1302.00,3.2968
1301.00,3.2261
1300.00,3.1762
1299.00,3.1495
1298.00,3.1447
1297.00,3.1551
1296.00,3.1702
1295.00,3.1833
1294.00,3.1972
1293.00,3.2204
1292.00,3.2570
1291.00,3.3028
1290.00,3.3483
1289.00,3.3856
1288.00,3.4125
1287.00,3.4314
1286.00,3.4456
1285.00,3.4573
1284.00,3.4689
1283.00,3.4845
1282.00,3.5115
1281.00,3.5547
1280.00,3.6070
1279.00,3.6479
1278.00,3.6661
1277.00,3.6775
1276.00,3.7017
1275.00,3.7381
1274.00,3.7685
1273.00,3.7732
1272.00,3.7526
1271.00,3.7277
1270.00,3.7199
1269.00,3.7332
1268.00,3.7548
1267.00,3.7716
1266.00,3.7815
1265.00,3.7887
1264.00,3.7926
1263.00,3.7864
1262.00,3.7716
1261.00,3.7573
1260.00,3.7487
1259.00,3.7445
1258.00,3.7412
1257.00,3.7382
1256.00,3.7378
1255.00,3.7461
1254.00,3.7684
1253.00,3.7972
1252.00,3.8108
1251.00,3.7969
1250.00,3.7692
1249.00,3.7466
1248.00,3.7333
1247.00,3.7245
1246.00,3.7189
1245.00,3.7186
1244.00,3.7252
1243.00,3.7411
1242.00,3.7644
1241.00,3.7850
1240.00,3.7921
1239.00,3.7864
1238.00,3.7803
1237.00,3.7805
1236.00,3.7785
1235.00,3.7682
1234.00,3.7638
1233.00,3.7847
1232.00,3.8309
1231.00,3.8771
1230.00,3.9055
1229.00,3.9375
1228.00,3.9983
1227.00,4.0854
1226.00,4.1869
1225.00,4.3088
1224.00,4.4695
1223.00,4.6532
1222.00,4.7387
1221.00,4.6373
1220.00,4.4981
1219.00,4.4147
1218.00,4.3596
1217.00,4.2797
1216.00,4.1850
1215.00,4.1106
1214.00,4.0468
1213.00,3.9798
1212.00,3.9230
1211.00,3.8751
1210.00,3.8296
1209.00,3.7970
1208.00,3.7743
1207.00,3.7444
1206.00,3.7093
1205.00,3.6848
1204.00,3.6713
1203.00,3.6512
1202.00,3.6145
1201.00,3.5794
1200.00,3.5706
1199.00,3.5903
1198.00,3.6089
1197.00,3.5894
1196.00,3.5309
1195.00,3.4661
1194.00,3.4206
1193.00,3.3940
1192.00,3.3702
1191.00,3.3386
1190.00,3.3031
1189.00,3.2739
1188.00,3.2566
1187.00,3.2504
1186.00,3.2524
1185.00,3.2622
1184.00,3.2806
1183.00,3.3054
1182.00,3.3308
1181.00,3.3516
1180.00,3.3665
1179.00,3.3781
1178.00,3.3885
1177.00,3.3937
1176.00,3.3885
1175.00,3.3788
1174.00,3.3810
1173.00,3.4063
1172.00,3.4491
1171.00,3.4888
1170.00,3.5113
1169.00,3.5270
1168.00,3.5486
1167.00,3.5703
1166.00,3.5869
1165.00,3.6090
1164.00,3.6454
1163.00,3.6834
1162.00,3.6970
1161.00,3.6882
1160.00,3.6840
1159.00,3.7032
1158.00,3.7552
1157.00,3.8410
1156.00,3.9375
1155.00,3.9998
1154.00,4.0081
1153.00,3.9858
1152.00,3.9612
1151.00,3.9320
1150.00,3.8884
1149.00,3.8505
1148.00,3.8431
1147.00,3.8607
1146.00,3.8760
1145.00,3.8774
1144.00,3.8763
1143.00,3.8684
1142.00,3.8482
1141.00,3.8305
1140.00,3.8121
1139.00,3.7881
1138.00,3.7782
1137.00,3.7893
1136.00,3.8155
1135.00,3.8624
1134.00,3.9290
1133.00,3.9770
1132.00,3.9576
1131.00,3.8903
1130.00,3.8369
1129.00,3.8327
1128.00,3.8837
1127.00,3.9821
1126.00,4.0702
1125.00,4.0759
1124.00,4.0693
1123.00,4.1037
1122.00,4.1148
1121.00,4.1030
1120.00,4.0901
1119.00,4.1347
1118.00,4.2327
1117.00,4.5111
1116.00,4.8278
1115.00,4.2571
1114.00,4.0122
1113.00,3.9485
1112.00,3.9752
1111.00,4.0648
1110.00,4.1026
1109.00,4.0752
1108.00,4.0169
1107.00,3.9996
1106.00,4.0158
1105.00,4.1087
1104.00,4.2734
1103.00,4.1361
1102.00,3.9293
1101.00,3.8510
1100.00,3.8463
1099.00,3.8902
1098.00,3.9551
1097.00,4.0098
1096.00,4.0109
1095.00,3.9628
1094.00,3.9439
1093.00,3.9631
1092.00,3.9821
1091.00,4.0080
1090.00,4.0258
1089.00,4.0090
1088.00,3.9816
1087.00,3.9772
1086.00,4.0144
1085.00,4.0666
1084.00,4.0626
1083.00,3.9847
1082.00,3.8742
1081.00,3.7722
1080.00,3.7184
1079.00,3.7433
1078.00,3.8599
1077.00,4.0397
1076.00,4.1913
1075.00,4.1862
1074.00,4.0415
1073.00,3.9043
1072.00,3.8238
1071.00,3.8092
1070.00,3.8168
1069.00,3.7620
1068.00,3.6643
1067.00,3.5839
1066.00,3.5471
1065.00,3.5491
1064.00,3.5594
1063.00,3.5613
1062.00,3.5636
1061.00,3.5702
1060.00,3.5766
1059.00,3.5812
1058.00,3.5893
1057.00,3.6224
1056.00,3.7042
1055.00,3.8350
1054.00,3.9526
1053.00,3.9667
1052.00,3.9183
1051.00,3.8494
1050.00,3.7689
1049.00,3.7049
1048.00,3.6627
1047.00,3.6342
1046.00,3.6125
1045.00,3.5893
1044.00,3.5527
1043.00,3.5039
1042.00,3.4610
1041.00,3.4364
1040.00,3.4321
1039.00,3.4478
1038.00,3.4798
1037.00,3.5171
1036.00,3.5418
1035.00,3.5427
1034.00,3.5295
1033.00,3.5262
1032.00,3.5505
1031.00,3.6079
1030.00,3.6968
1029.00,3.8189
1028.00,3.9642
1027.00,4.0711
1026.00,4.1192
1025.00,4.1586
1024.00,4.1926
1023.00,4.1811
1022.00,4.0803
1021.00,3.9467
1020.00,3.8779
1019.00,3.9175
1018.00,4.0705
1017.00,4.2419
1016.00,4.2479
1015.00,4.2051
1014.00,4.1549
1013.00,4.0359
1012.00,3.9551
1011.00,3.9690
1010.00,4.0395
1009.00,4.0893
1008.00,4.0878
1007.00,4.0837
1006.00,4.1278
1005.00,4.2158
1004.00,4.2597
1003.00,4.1845
1002.00,4.0954
1001.00,4.1036
1000.00,4.2555
999.00,4.5659
998.00,4.7487
997.00,4.6246
996.00,4.5300
995.00,4.4774
994.00,4.5577
993.00,4.5351
992.00,4.3197
991.00,4.2019
990.00,4.2475
989.00,4.4279
988.00,4.3231
987.00,4.1536
986.00,4.1307
985.00,4.1105
984.00,4.0840
983.00,4.0661
982.00,4.0776
981.00,4.2206
980.00,4.5044
979.00,4.6263
978.00,4.5381
977.00,4.4945
976.00,4.5339
975.00,4.5438
974.00,4.5700
973.00,4.8177
972.00,4.8280
971.00,4.5319
970.00,4.3862
969.00,4.2958
968.00,4.2861
967.00,4.3976
966.00,4.5001
965.00,4.4530
964.00,4.4316
963.00,4.4120
962.00,4.4094
961.00,4.4046
960.00,4.2928
959.00,4.1597
958.00,4.2870
957.00,4.6722
956.00,4.3310
955.00,4.1650
954.00,4.2738
953.00,4.5775
952.00,4.6997
951.00,4.5796
950.00,4.6937
949.00,4.5355
948.00,4.3025
947.00,4.1659
946.00,4.0805
945.00,4.0338
944.00,4.0294
943.00,4.0684
942.00,4.1080
941.00,4.1247
940.00,4.1692
939.00,4.2371
938.00,4.2336
937.00,4.1717
936.00,4.1742
935.00,4.2988
934.00,4.5506
933.00,4.8666
932.00,4.8379
931.00,4.5574
930.00,4.4683
929.00,4.5426
928.00,4.4939
927.00,4.4072
926.00,4.5696
925.00,4.6022
924.00,4.2815
923.00,4.1508
922.00,4.1437
921.00,4.1293
920.00,4.0614
919.00,3.9979
918.00,3.9967
917.00,4.0649
916.00,4.2615
915.00,4.6446
914.00,4.7187
913.00,4.4734
912.00,4.3136
911.00,4.2045
910.00,4.1390
909.00,4.1780
908.00,4.2251
907.00,4.0721
906.00,3.9776
905.00,4.0316
904.00,4.1979
903.00,4.3361
902.00,4.2435
901.00,4.1470
900.00,4.2387
899.00,4.5012
898.00,4.6213
897.00,4.5705
896.00,4.3229
895.00,4.1262
894.00,4.0850
893.00,4.1134
892.00,4.1582
891.00,4.2222
890.00,4.2402
889.00,4.1596
888.00,4.0948
887.00,4.0993
886.00,4.1568
885.00,4.2815
884.00,4.4387
883.00,4.4177
882.00,4.4539
881.00,4.4221
880.00,4.2008
879.00,4.1144
878.00,4.2452
877.00,4.6936
876.00,4.6858
875.00,4.2807
874.00,4.3249
873.00,4.8583
872.00,4.6402
871.00,4.3577
870.00,4.3855
869.00,4.6373
868.00,4.7253
867.00,4.2971
866.00,4.1802
865.00,4.2869
864.00,4.3248
863.00,4.4007
862.00,4.4015
861.00,4.0929
860.00,4.0383
859.00,4.2521
858.00,4.3669
857.00,4.2359
856.00,4.2331
855.00,4.2576
854.00,4.2077
853.00,4.1915
852.00,4.2652
851.00,4.5128
850.00,4.3697
849.00,4.0243
848.00,3.9105
847.00,3.9696
846.00,4.1931
845.00,4.5370
844.00,4.6934
843.00,4.7032
842.00,4.5150
841.00,4.4621
840.00,4.5954
839.00,4.5571
838.00,4.6235
837.00,4.9700
836.00,4.9889
835.00,4.4326
834.00,4.1231
833.00,4.0375
832.00,4.0162
831.00,3.9581
830.00,3.9004
829.00,3.9067
828.00,4.0281
827.00,4.3232
826.00,4.4238
825.00,4.1294
824.00,4.1019
823.00,4.2783
822.00,4.2029
821.00,4.0506
820.00,4.0301
819.00,4.0769
818.00,4.2290
817.00,4.3922
816.00,4.2868
815.00,4.2223
814.00,4.2570
813.00,4.3012
812.00,4.2090
811.00,3.9615
810.00,3.7845
809.00,3.7130
808.00,3.7491
807.00,3.8890
806.00,4.2312
805.00,4.8522
804.00,4.4518
803.00,4.5460
802.00,4.6968
801.00,4.2114
800.00,4.0333
799.00,4.0743
798.00,4.3733
797.00,4.3499
796.00,4.1036
795.00,4.1514
794.00,4.5205
793.00,4.7227
792.00,4.3190
791.00,4.2407
790.00,4.3124
789.00,4.4734
788.00,4.8694
787.00,4.6873
786.00,4.6160
785.00,4.9559
784.00,4.6157
783.00,4.6254
782.00,4.6150
781.00,4.3105
780.00,4.2753
779.00,4.5248
778.00,4.8432
777.00,4.3706
776.00,4.1509
775.00,4.0898
774.00,4.0790
773.00,4.1347
772.00,4.2881
771.00,4.4826
770.00,4.2413
769.00,3.8892
768.00,3.7088
767.00,3.6942
766.00,3.8164
765.00,3.9943
764.00,4.1593
763.00,4.4055
762.00,4.7454
761.00,4.8953
760.00,4.3968
759.00,4.0427
758.00,3.9006
757.00,3.8805
756.00,3.9381
755.00,4.0386
754.00,4.1469
753.00,4.2403
752.00,4.2646
751.00,4.3785
750.00,4.7592
749.00,4.5563
748.00,4.2913
747.00,4.2229
746.00,4.1078
745.00,3.9651
744.00,3.8591
743.00,3.7901
742.00,3.7599
741.00,3.7794
740.00,3.8692
739.00,4.0428
738.00,4.3390
737.00,4.6825
736.00,4.5514
735.00,4.4383
734.00,4.5560
733.00,4.5646
732.00,4.3217
731.00,4.1765
730.00,4.2737
729.00,4.7746
728.00,4.7267
727.00,4.7273
726.00,5.2330
725.00,4.6516
724.00,4.4375
723.00,4.4889
722.00,4.4339
721.00,4.1045
720.00,3.9517
719.00,3.9777
718.00,4.1489
717.00,4.5425
716.00,4.7232
715.00,4.3146
714.00,4.1689
713.00,4.2956
712.00,4.5089
711.00,4.4047
710.00,4.2064
709.00,4.0460
708.00,4.0273
707.00,4.1751
706.00,4.4034
705.00,4.4486
704.00,4.2169
703.00,3.9993
702.00,3.8714
701.00,3.8337
700.00,3.8772
