Created as New Dataset,Sample 096 By Administrator Date Wednesday, November 24 2021
cm-1,A
7502.00,0.9270
7501.00,0.9222
7500.00,0.9157
7499.00,0.9072
7498.00,0.8977
7497.00,0.8879
7496.00,0.8784
7495.00,0.8691
7494.00,0.8603
7493.00,0.8522
7492.00,0.8452
7491.00,0.8394
7490.00,0.8348
7489.00,0.8307
7488.00,0.8264
7487.00,0.8212
7486.00,0.8150
7485.00,0.8079
7484.00,0.8004
7483.00,0.7931
7482.00,0.7863
7481.00,0.7804
7480.00,0.7756
7479.00,0.7721
7478.00,0.7695
7477.00,0.7677
7476.00,0.7664
7475.00,0.7659
7474.00,0.7662
7473.00,0.7669
7472.00,0.7678
7471.00,0.7689
7470.00,0.7705
7469.00,0.7726
7468.00,0.7751
7467.00,0.7780
7466.00,0.7811
7465.00,0.7846
7464.00,0.7884
7463.00,0.7926
7462.00,0.7972
7461.00,0.8024
7460.00,0.8079
7459.00,0.8137
7458.00,0.8199
7457.00,0.8265
7456.00,0.8339
7455.00,0.8418
7454.00,0.8500
7453.00,0.8580
7452.00,0.8657
7451.00,0.8735
7450.00,0.8816
7449.00,0.8903
7448.00,0.8993
7447.00,0.9084
7446.00,0.9176
7445.00,0.9268
7444.00,0.9360
7443.00,0.9454
7442.00,0.9550
7441.00,0.9643
7440.00,0.9734
7439.00,0.9821
7438.00,0.9909
7437.00,0.9998
7436.00,1.0090
7435.00,1.0183
7434.00,1.0277
7433.00,1.0366
7432.00,1.0452
7431.00,1.0536
7430.00,1.0623
7429.00,1.0711
7428.00,1.0792
7427.00,1.0861
7426.00,1.0926
7425.00,1.0994
7424.00,1.1067
7423.00,1.1136
7422.00,1.1197
7421.00,1.1251
7420.00,1.1300
7419.00,1.1344
7418.00,1.1384
7417.00,1.1424
7416.00,1.1468
7415.00,1.1513
7414.00,1.1553
7413.00,1.1588
7412.00,1.1623
7411.00,1.1660
7410.00,1.1694
7409.00,1.1720
7408.00,1.1738
7407.00,1.1754
7406.00,1.1773
7405.00,1.1792
7404.00,1.1806
7403.00,1.1812
7402.00,1.1811
7401.00,1.1806
7400.00,1.1799
7399.00,1.1788
7398.00,1.1769
7397.00,1.1744
7396.00,1.1716
7395.00,1.1691
7394.00,1.1666
7393.00,1.1639
7392.00,1.1604
7391.00,1.1561
7390.00,1.1514
7389.00,1.1464
7388.00,1.1407
7387.00,1.1341
7386.00,1.1268
7385.00,1.1200
7384.00,1.1140
7383.00,1.1083
7382.00,1.1020
7381.00,1.0948
7380.00,1.0869
7379.00,1.0790
7378.00,1.0711
7377.00,1.0628
7376.00,1.0540
7375.00,1.0449
7374.00,1.0356
7373.00,1.0261
7372.00,1.0161
7371.00,1.0053
7370.00,0.9941
7369.00,0.9833
7368.00,0.9732
7367.00,0.9636
7366.00,0.9540
7365.00,0.9441
7364.00,0.9344
7363.00,0.9250
7362.00,0.9159
7361.00,0.9065
7360.00,0.8968
7359.00,0.8872
7358.00,0.8785
7357.00,0.8704
7356.00,0.8625
7355.00,0.8545
7354.00,0.8466
7353.00,0.8391
7352.00,0.8319
7351.00,0.8248
7350.00,0.8180
7349.00,0.8118
7348.00,0.8063
7347.00,0.8016
7346.00,0.7975
7345.00,0.7938
7344.00,0.7906
7343.00,0.7879
7342.00,0.7860
7341.00,0.7846
7340.00,0.7836
7339.00,0.7829
7338.00,0.7825
7337.00,0.7827
7336.00,0.7837
7335.00,0.7852
7334.00,0.7872
7333.00,0.7897
7332.00,0.7930
7331.00,0.7970
7330.00,0.8016
7329.00,0.8065
7328.00,0.8116
7327.00,0.8169
7326.00,0.8227
7325.00,0.8290
7324.00,0.8357
7323.00,0.8426
7322.00,0.8496
7321.00,0.8570
7320.00,0.8646
7319.00,0.8722
7318.00,0.8797
7317.00,0.8872
7316.00,0.8949
7315.00,0.9031
7314.00,0.9121
7313.00,0.9216
7312.00,0.9313
7311.00,0.9406
7310.00,0.9493
7309.00,0.9578
7308.00,0.9666
7307.00,0.9753
7306.00,0.9836
7305.00,0.9913
7304.00,0.9992
7303.00,1.0077
7302.00,1.0169
7301.00,1.0260
7300.00,1.0344
7299.00,1.0420
7298.00,1.0494
7297.00,1.0571
7296.00,1.0648
7295.00,1.0719
7294.00,1.0775
7293.00,1.0819
7292.00,1.0858
7291.00,1.0894
7290.00,1.0926
7289.00,1.0955
7288.00,1.0985
7287.00,1.1024
7286.00,1.1070
7285.00,1.1119
7284.00,1.1166
7283.00,1.1208
7282.00,1.1246
7281.00,1.1281
7280.00,1.1311
7279.00,1.1337
7278.00,1.1359
7277.00,1.1380
7276.00,1.1399
7275.00,1.1411
7274.00,1.1413
7273.00,1.1406
7272.00,1.1398
7271.00,1.1393
7270.00,1.1394
7269.00,1.1400
7268.00,1.1406
7267.00,1.1409
7266.00,1.1404
7265.00,1.1392
7264.00,1.1375
7263.00,1.1359
7262.00,1.1344
7261.00,1.1329
7260.00,1.1312
7259.00,1.1293
7258.00,1.1271
7257.00,1.1240
7256.00,1.1193
7255.00,1.1132
7254.00,1.1064
7253.00,1.0994
7252.00,1.0926
7251.00,1.0859
7250.00,1.0795
7249.00,1.0733
7248.00,1.0672
7247.00,1.0608
7246.00,1.0539
7245.00,1.0465
7244.00,1.0384
7243.00,1.0301
7242.00,1.0218
7241.00,1.0140
7240.00,1.0065
7239.00,0.9987
7238.00,0.9904
7237.00,0.9815
7236.00,0.9724
7235.00,0.9630
7234.00,0.9532
7233.00,0.9433
7232.00,0.9333
7231.00,0.9236
7230.00,0.9142
7229.00,0.9053
7228.00,0.8966
7227.00,0.8880
7226.00,0.8794
7225.00,0.8708
7224.00,0.8622
7223.00,0.8540
7222.00,0.8463
7221.00,0.8389
7220.00,0.8318
7219.00,0.8249
7218.00,0.8184
7217.00,0.8124
7216.00,0.8070
7215.00,0.8018
7214.00,0.7969
7213.00,0.7923
7212.00,0.7882
7211.00,0.7850
7210.00,0.7825
7209.00,0.7806
7208.00,0.7791
7207.00,0.7781
7206.00,0.7776
7205.00,0.7777
7204.00,0.7782
7203.00,0.7789
7202.00,0.7802
7201.00,0.7822
7200.00,0.7852
7199.00,0.7887
7198.00,0.7928
7197.00,0.7973
7196.00,0.8024
7195.00,0.8078
7194.00,0.8135
7193.00,0.8196
7192.00,0.8262
7191.00,0.8334
7190.00,0.8409
7189.00,0.8485
7188.00,0.8565
7187.00,0.8649
7186.00,0.8735
7185.00,0.8820
7184.00,0.8904
7183.00,0.8991
7182.00,0.9085
7181.00,0.9182
7180.00,0.9278
7179.00,0.9371
7178.00,0.9462
7177.00,0.9553
7176.00,0.9647
7175.00,0.9743
7174.00,0.9838
7173.00,0.9929
7172.00,1.0016
7171.00,1.0103
7170.00,1.0192
7169.00,1.0284
7168.00,1.0373
7167.00,1.0460
7166.00,1.0548
7165.00,1.0637
7164.00,1.0727
7163.00,1.0814
7162.00,1.0897
7161.00,1.0976
7160.00,1.1051
7159.00,1.1126
7158.00,1.1198
7157.00,1.1267
7156.00,1.1328
7155.00,1.1385
7154.00,1.1441
7153.00,1.1499
7152.00,1.1553
7151.00,1.1604
7150.00,1.1654
7149.00,1.1705
7148.00,1.1752
7147.00,1.1789
7146.00,1.1818
7145.00,1.1848
7144.00,1.1882
7143.00,1.1914
7142.00,1.1937
7141.00,1.1954
7140.00,1.1968
7139.00,1.1979
7138.00,1.1985
7137.00,1.1982
7136.00,1.1975
7135.00,1.1964
7134.00,1.1951
7133.00,1.1936
7132.00,1.1924
7131.00,1.1916
7130.00,1.1909
7129.00,1.1896
7128.00,1.1874
7127.00,1.1842
7126.00,1.1802
7125.00,1.1759
7124.00,1.1712
7123.00,1.1661
7122.00,1.1604
7121.00,1.1542
7120.00,1.1477
7119.00,1.1413
7118.00,1.1347
7117.00,1.1275
7116.00,1.1195
7115.00,1.1113
7114.00,1.1032
7113.00,1.0952
7112.00,1.0872
7111.00,1.0790
7110.00,1.0703
7109.00,1.0613
7108.00,1.0520
7107.00,1.0427
7106.00,1.0331
7105.00,1.0232
7104.00,1.0128
7103.00,1.0020
7102.00,0.9912
7101.00,0.9805
7100.00,0.9698
7099.00,0.9591
7098.00,0.9489
7097.00,0.9390
7096.00,0.9293
7095.00,0.9195
7094.00,0.9095
7093.00,0.8994
7092.00,0.8894
7091.00,0.8796
7090.00,0.8703
7089.00,0.8615
7088.00,0.8532
7087.00,0.8452
7086.00,0.8375
7085.00,0.8303
7084.00,0.8235
7083.00,0.8170
7082.00,0.8111
7081.00,0.8058
7080.00,0.8012
7079.00,0.7972
7078.00,0.7938
7077.00,0.7909
7076.00,0.7883
7075.00,0.7862
7074.00,0.7846
7073.00,0.7836
7072.00,0.7833
7071.00,0.7834
7070.00,0.7841
7069.00,0.7856
7068.00,0.7877
7067.00,0.7903
7066.00,0.7934
7065.00,0.7970
7064.00,0.8014
7063.00,0.8064
7062.00,0.8118
7061.00,0.8172
7060.00,0.8230
7059.00,0.8293
7058.00,0.8363
7057.00,0.8437
7056.00,0.8514
7055.00,0.8593
7054.00,0.8673
7053.00,0.8756
7052.00,0.8842
7051.00,0.8929
7050.00,0.9017
7049.00,0.9106
7048.00,0.9198
7047.00,0.9294
7046.00,0.9391
7045.00,0.9484
7044.00,0.9571
7043.00,0.9656
7042.00,0.9742
7041.00,0.9831
7040.00,0.9920
7039.00,1.0010
7038.00,1.0105
7037.00,1.0205
7036.00,1.0307
7035.00,1.0405
7034.00,1.0499
7033.00,1.0591
7032.00,1.0683
7031.00,1.0773
7030.00,1.0858
7029.00,1.0933
7028.00,1.1003
7027.00,1.1070
7026.00,1.1137
7025.00,1.1201
7024.00,1.1263
7023.00,1.1324
7022.00,1.1385
7021.00,1.1446
7020.00,1.1505
7019.00,1.1559
7018.00,1.1608
7017.00,1.1650
7016.00,1.1684
7015.00,1.1713
7014.00,1.1743
7013.00,1.1776
7012.00,1.1807
7011.00,1.1835
7010.00,1.1859
7009.00,1.1882
7008.00,1.1899
7007.00,1.1909
7006.00,1.1912
7005.00,1.1913
7004.00,1.1914
7003.00,1.1913
7002.00,1.1909
7001.00,1.1905
7000.00,1.1899
6999.00,1.1886
6998.00,1.1863
6997.00,1.1835
6996.00,1.1804
6995.00,1.1771
6994.00,1.1734
6993.00,1.1691
6992.00,1.1645
6991.00,1.1599
6990.00,1.1552
6989.00,1.1505
6988.00,1.1456
6987.00,1.1403
6986.00,1.1345
6985.00,1.1280
6984.00,1.1208
6983.00,1.1130
6982.00,1.1043
6981.00,1.0952
6980.00,1.0862
6979.00,1.0776
6978.00,1.0693
6977.00,1.0612
6976.00,1.0526
6975.00,1.0437
6974.00,1.0346
6973.00,1.0252
6972.00,1.0156
6971.00,1.0057
6970.00,0.9956
6969.00,0.9854
6968.00,0.9752
6967.00,0.9649
6966.00,0.9546
6965.00,0.9442
6964.00,0.9336
6963.00,0.9228
6962.00,0.9121
6961.00,0.9018
6960.00,0.8919
6959.00,0.8822
6958.00,0.8728
6957.00,0.8638
6956.00,0.8551
6955.00,0.8468
6954.00,0.8389
6953.00,0.8312
6952.00,0.8239
6951.00,0.8169
6950.00,0.8104
6949.00,0.8044
6948.00,0.7990
6947.00,0.7941
6946.00,0.7897
6945.00,0.7857
6944.00,0.7822
6943.00,0.7793
6942.00,0.7769
6941.00,0.7752
6940.00,0.7740
6939.00,0.7734
6938.00,0.7736
6937.00,0.7746
6936.00,0.7763
6935.00,0.7786
6934.00,0.7814
6933.00,0.7848
6932.00,0.7886
6931.00,0.7930
6930.00,0.7978
6929.00,0.8032
6928.00,0.8089
6927.00,0.8149
6926.00,0.8213
6925.00,0.8286
6924.00,0.8364
6923.00,0.8444
6922.00,0.8524
6921.00,0.8607
6920.00,0.8691
6919.00,0.8779
6918.00,0.8869
6917.00,0.8962
6916.00,0.9059
6915.00,0.9157
6914.00,0.9255
6913.00,0.9353
6912.00,0.9451
6911.00,0.9550
6910.00,0.9649
6909.00,0.9748
6908.00,0.9850
6907.00,0.9953
6906.00,1.0056
6905.00,1.0153
6904.00,1.0244
6903.00,1.0330
6902.00,1.0415
6901.00,1.0503
6900.00,1.0596
6899.00,1.0689
6898.00,1.0782
6897.00,1.0874
6896.00,1.0964
6895.00,1.1049
6894.00,1.1128
6893.00,1.1203
6892.00,1.1278
6891.00,1.1353
6890.00,1.1425
6889.00,1.1492
6888.00,1.1554
6887.00,1.1609
6886.00,1.1661
6885.00,1.1715
6884.00,1.1770
6883.00,1.1822
6882.00,1.1868
6881.00,1.1909
6880.00,1.1951
6879.00,1.1991
6878.00,1.2022
6877.00,1.2045
6876.00,1.2065
6875.00,1.2086
6874.00,1.2108
6873.00,1.2125
6872.00,1.2135
6871.00,1.2141
6870.00,1.2144
6869.00,1.2146
6868.00,1.2146
6867.00,1.2143
6866.00,1.2133
6865.00,1.2116
6864.00,1.2094
6863.00,1.2071
6862.00,1.2043
6861.00,1.2006
6860.00,1.1961
6859.00,1.1913
6858.00,1.1867
6857.00,1.1823
6856.00,1.1775
6855.00,1.1720
6854.00,1.1660
6853.00,1.1598
6852.00,1.1534
6851.00,1.1465
6850.00,1.1390
6849.00,1.1308
6848.00,1.1221
6847.00,1.1133
6846.00,1.1046
6845.00,1.0959
6844.00,1.0867
6843.00,1.0769
6842.00,1.0668
6841.00,1.0568
6840.00,1.0469
6839.00,1.0368
6838.00,1.0262
6837.00,1.0154
6836.00,1.0046
6835.00,0.9939
6834.00,0.9831
6833.00,0.9719
6832.00,0.9604
6831.00,0.9487
6830.00,0.9373
6829.00,0.9264
6828.00,0.9160
6827.00,0.9058
6826.00,0.8958
6825.00,0.8860
6824.00,0.8764
6823.00,0.8671
6822.00,0.8579
6821.00,0.8490
6820.00,0.8405
6819.00,0.8325
6818.00,0.8251
6817.00,0.8182
6816.00,0.8115
6815.00,0.8053
6814.00,0.7996
6813.00,0.7946
6812.00,0.7903
6811.00,0.7867
6810.00,0.7837
6809.00,0.7813
6808.00,0.7794
6807.00,0.7780
6806.00,0.7774
6805.00,0.7774
6804.00,0.7780
6803.00,0.7791
6802.00,0.7808
6801.00,0.7832
6800.00,0.7864
6799.00,0.7902
6798.00,0.7944
6797.00,0.7991
6796.00,0.8043
6795.00,0.8102
6794.00,0.8167
6793.00,0.8235
6792.00,0.8306
6791.00,0.8378
6790.00,0.8454
6789.00,0.8535
6788.00,0.8620
6787.00,0.8706
6786.00,0.8795
6785.00,0.8886
6784.00,0.8981
6783.00,0.9078
6782.00,0.9176
6781.00,0.9277
6780.00,0.9378
6779.00,0.9480
6778.00,0.9581
6777.00,0.9681
6776.00,0.9779
6775.00,0.9875
6774.00,0.9970
6773.00,1.0066
6772.00,1.0162
6771.00,1.0260
6770.00,1.0361
6769.00,1.0461
6768.00,1.0558
6767.00,1.0649
6766.00,1.0733
6765.00,1.0814
6764.00,1.0894
6763.00,1.0972
6762.00,1.1049
6761.00,1.1126
6760.00,1.1205
6759.00,1.1285
6758.00,1.1363
6757.00,1.1438
6756.00,1.1509
6755.00,1.1574
6754.00,1.1634
6753.00,1.1688
6752.00,1.1736
6751.00,1.1777
6750.00,1.1816
6749.00,1.1853
6748.00,1.1892
6747.00,1.1929
6746.00,1.1963
6745.00,1.1993
6744.00,1.2017
6743.00,1.2033
6742.00,1.2043
6741.00,1.2052
6740.00,1.2062
6739.00,1.2070
6738.00,1.2073
6737.00,1.2071
6736.00,1.2068
6735.00,1.2065
6734.00,1.2059
6733.00,1.2045
6732.00,1.2021
6731.00,1.1990
6730.00,1.1959
6729.00,1.1928
6728.00,1.1893
6727.00,1.1850
6726.00,1.1800
6725.00,1.1752
6724.00,1.1709
6723.00,1.1663
6722.00,1.1608
6721.00,1.1541
6720.00,1.1471
6719.00,1.1400
6718.00,1.1331
6717.00,1.1260
6716.00,1.1185
6715.00,1.1105
6714.00,1.1023
6713.00,1.0938
6712.00,1.0851
6711.00,1.0760
6710.00,1.0664
6709.00,1.0567
6708.00,1.0472
6707.00,1.0376
6706.00,1.0273
6705.00,1.0166
6704.00,1.0056
6703.00,0.9947
6702.00,0.9838
6701.00,0.9728
6700.00,0.9617
6699.00,0.9509
6698.00,0.9403
6697.00,0.9295
6696.00,0.9186
6695.00,0.9077
6694.00,0.8971
6693.00,0.8869
6692.00,0.8770
6691.00,0.8674
6690.00,0.8581
6689.00,0.8491
6688.00,0.8405
6687.00,0.8322
6686.00,0.8242
6685.00,0.8166
6684.00,0.8095
6683.00,0.8030
6682.00,0.7971
6681.00,0.7918
6680.00,0.7868
6679.00,0.7822
6678.00,0.7781
6677.00,0.7747
6676.00,0.7721
6675.00,0.7702
6674.00,0.7689
6673.00,0.7684
6672.00,0.7685
6671.00,0.7693
6670.00,0.7706
6669.00,0.7724
6668.00,0.7748
6667.00,0.7777
6666.00,0.7811
6665.00,0.7851
6664.00,0.7896
6663.00,0.7948
6662.00,0.8006
6661.00,0.8070
6660.00,0.8140
6659.00,0.8216
6658.00,0.8297
6657.00,0.8382
6656.00,0.8468
6655.00,0.8555
6654.00,0.8643
6653.00,0.8734
6652.00,0.8826
6651.00,0.8921
6650.00,0.9018
6649.00,0.9116
6648.00,0.9218
6647.00,0.9323
6646.00,0.9430
6645.00,0.9537
6644.00,0.9642
6643.00,0.9748
6642.00,0.9855
6641.00,0.9962
6640.00,1.0067
6639.00,1.0171
6638.00,1.0275
6637.00,1.0379
6636.00,1.0483
6635.00,1.0584
6634.00,1.0684
6633.00,1.0783
6632.00,1.0878
6631.00,1.0968
6630.00,1.1054
6629.00,1.1138
6628.00,1.1219
6627.00,1.1298
6626.00,1.1378
6625.00,1.1460
6624.00,1.1542
6623.00,1.1621
6622.00,1.1696
6621.00,1.1766
6620.00,1.1831
6619.00,1.1888
6618.00,1.1939
6617.00,1.1987
6616.00,1.2033
6615.00,1.2078
6614.00,1.2117
6613.00,1.2152
6612.00,1.2185
6611.00,1.2217
6610.00,1.2245
6609.00,1.2267
6608.00,1.2283
6607.00,1.2297
6606.00,1.2313
6605.00,1.2327
6604.00,1.2335
6603.00,1.2335
6602.00,1.2330
6601.00,1.2323
6600.00,1.2311
6599.00,1.2296
6598.00,1.2278
6597.00,1.2259
6596.00,1.2238
6595.00,1.2213
6594.00,1.2183
6593.00,1.2147
6592.00,1.2105
6591.00,1.2059
6590.00,1.2005
6589.00,1.1946
6588.00,1.1882
6587.00,1.1817
6586.00,1.1749
6585.00,1.1677
6584.00,1.1600
6583.00,1.1520
6582.00,1.1438
6581.00,1.1355
6580.00,1.1267
6579.00,1.1173
6578.00,1.1075
6577.00,1.0976
6576.00,1.0875
6575.00,1.0772
6574.00,1.0667
6573.00,1.0560
6572.00,1.0452
6571.00,1.0341
6570.00,1.0228
6569.00,1.0113
6568.00,0.9996
6567.00,0.9878
6566.00,0.9756
6565.00,0.9635
6564.00,0.9517
6563.00,0.9403
6562.00,0.9292
6561.00,0.9181
6560.00,0.9071
6559.00,0.8962
6558.00,0.8857
6557.00,0.8756
6556.00,0.8657
6555.00,0.8560
6554.00,0.8466
6553.00,0.8377
6552.00,0.8295
6551.00,0.8218
6550.00,0.8144
6549.00,0.8076
6548.00,0.8012
6547.00,0.7955
6546.00,0.7902
6545.00,0.7856
6544.00,0.7816
6543.00,0.7784
6542.00,0.7759
6541.00,0.7743
6540.00,0.7734
6539.00,0.7730
6538.00,0.7733
6537.00,0.7741
6536.00,0.7755
6535.00,0.7776
6534.00,0.7805
6533.00,0.7842
6532.00,0.7886
6531.00,0.7934
6530.00,0.7987
6529.00,0.8044
6528.00,0.8107
6527.00,0.8176
6526.00,0.8250
6525.00,0.8328
6524.00,0.8409
6523.00,0.8495
6522.00,0.8585
6521.00,0.8678
6520.00,0.8771
6519.00,0.8866
6518.00,0.8964
6517.00,0.9064
6516.00,0.9167
6515.00,0.9270
6514.00,0.9375
6513.00,0.9481
6512.00,0.9585
6511.00,0.9688
6510.00,0.9792
6509.00,0.9896
6508.00,0.9998
6507.00,1.0100
6506.00,1.0203
6505.00,1.0309
6504.00,1.0415
6503.00,1.0518
6502.00,1.0618
6501.00,1.0716
6500.00,1.0811
6499.00,1.0902
6498.00,1.0989
6497.00,1.1072
6496.00,1.1153
6495.00,1.1234
6494.00,1.1316
6493.00,1.1398
6492.00,1.1479
6491.00,1.1557
6490.00,1.1631
6489.00,1.1698
6488.00,1.1758
6487.00,1.1812
6486.00,1.1865
6485.00,1.1918
6484.00,1.1969
6483.00,1.2016
6482.00,1.2060
6481.00,1.2100
6480.00,1.2136
6479.00,1.2165
6478.00,1.2190
6477.00,1.2211
6476.00,1.2228
6475.00,1.2241
6474.00,1.2248
6473.00,1.2252
6472.00,1.2253
6471.00,1.2251
6470.00,1.2244
6469.00,1.2235
6468.00,1.2223
6467.00,1.2207
6466.00,1.2187
6465.00,1.2164
6464.00,1.2138
6463.00,1.2111
6462.00,1.2083
6461.00,1.2052
6460.00,1.2015
6459.00,1.1972
6458.00,1.1923
6457.00,1.1871
6456.00,1.1817
6455.00,1.1760
6454.00,1.1700
6453.00,1.1639
6452.00,1.1571
6451.00,1.1496
6450.00,1.1415
6449.00,1.1333
6448.00,1.1251
6447.00,1.1167
6446.00,1.1082
6445.00,1.0997
6444.00,1.0909
6443.00,1.0816
6442.00,1.0715
6441.00,1.0607
6440.00,1.0497
6439.00,1.0387
6438.00,1.0276
6437.00,1.0165
6436.00,1.0052
6435.00,0.9937
6434.00,0.9823
6433.00,0.9709
6432.00,0.9596
6431.00,0.9482
6430.00,0.9369
6429.00,0.9256
6428.00,0.9143
6427.00,0.9031
6426.00,0.8920
6425.00,0.8812
6424.00,0.8707
6423.00,0.8606
6422.00,0.8510
6421.00,0.8417
6420.00,0.8328
6419.00,0.8241
6418.00,0.8159
6417.00,0.8083
6416.00,0.8014
6415.00,0.7951
6414.00,0.7893
6413.00,0.7842
6412.00,0.7796
6411.00,0.7755
6410.00,0.7721
6409.00,0.7694
6408.00,0.7675
6407.00,0.7663
6406.00,0.7659
6405.00,0.7661
6404.00,0.7671
6403.00,0.7687
6402.00,0.7710
6401.00,0.7740
6400.00,0.7776
6399.00,0.7818
6398.00,0.7868
6397.00,0.7925
6396.00,0.7987
6395.00,0.8054
6394.00,0.8127
6393.00,0.8204
6392.00,0.8285
6391.00,0.8368
6390.00,0.8455
6389.00,0.8546
6388.00,0.8642
6387.00,0.8741
6386.00,0.8845
6385.00,0.8950
6384.00,0.9056
6383.00,0.9161
6382.00,0.9266
6381.00,0.9374
6380.00,0.9483
6379.00,0.9593
6378.00,0.9703
6377.00,0.9813
6376.00,0.9924
6375.00,1.0035
6374.00,1.0145
6373.00,1.0256
6372.00,1.0366
6371.00,1.0475
6370.00,1.0581
6369.00,1.0684
6368.00,1.0784
6367.00,1.0880
6366.00,1.0974
6365.00,1.1068
6364.00,1.1163
6363.00,1.1258
6362.00,1.1352
6361.00,1.1443
6360.00,1.1534
6359.00,1.1623
6358.00,1.1709
6357.00,1.1791
6356.00,1.1869
6355.00,1.1941
6354.00,1.2006
6353.00,1.2066
6352.00,1.2121
6351.00,1.2171
6350.00,1.2215
6349.00,1.2257
6348.00,1.2299
6347.00,1.2341
6346.00,1.2381
6345.00,1.2416
6344.00,1.2448
6343.00,1.2480
6342.00,1.2509
6341.00,1.2535
6340.00,1.2557
6339.00,1.2574
6338.00,1.2584
6337.00,1.2587
6336.00,1.2581
6335.00,1.2568
6334.00,1.2554
6333.00,1.2541
6332.00,1.2527
6331.00,1.2511
6330.00,1.2489
6329.00,1.2461
6328.00,1.2426
6327.00,1.2385
6326.00,1.2337
6325.00,1.2286
6324.00,1.2233
6323.00,1.2177
6322.00,1.2118
6321.00,1.2056
6320.00,1.1990
6319.00,1.1921
6318.00,1.1848
6317.00,1.1772
6316.00,1.1690
6315.00,1.1602
6314.00,1.1511
6313.00,1.1416
6312.00,1.1320
6311.00,1.1218
6310.00,1.1112
6309.00,1.1003
6308.00,1.0893
6307.00,1.0781
6306.00,1.0666
6305.00,1.0549
6304.00,1.0430
6303.00,1.0309
6302.00,1.0186
6301.00,1.0060
6300.00,0.9935
6299.00,0.9810
6298.00,0.9686
6297.00,0.9562
6296.00,0.9438
6295.00,0.9316
6294.00,0.9195
6293.00,0.9075
6292.00,0.8958
6291.00,0.8843
6290.00,0.8733
6289.00,0.8628
6288.00,0.8527
6287.00,0.8428
6286.00,0.8334
6285.00,0.8246
6284.00,0.8163
6283.00,0.8087
6282.00,0.8017
6281.00,0.7954
6280.00,0.7897
6279.00,0.7846
6278.00,0.7803
6277.00,0.7767
6276.00,0.7736
6275.00,0.7712
6274.00,0.7694
6273.00,0.7684
6272.00,0.7683
6271.00,0.7687
6270.00,0.7699
6269.00,0.7719
6268.00,0.7747
6267.00,0.7782
6266.00,0.7823
6265.00,0.7870
6264.00,0.7923
6263.00,0.7983
6262.00,0.8050
6261.00,0.8123
6260.00,0.8200
6259.00,0.8281
6258.00,0.8368
6257.00,0.8459
6256.00,0.8553
6255.00,0.8648
6254.00,0.8747
6253.00,0.8849
6252.00,0.8955
6251.00,0.9061
6250.00,0.9168
6249.00,0.9276
6248.00,0.9387
6247.00,0.9497
6246.00,0.9608
6245.00,0.9721
6244.00,0.9834
6243.00,0.9947
6242.00,1.0060
6241.00,1.0171
6240.00,1.0281
6239.00,1.0388
6238.00,1.0492
6237.00,1.0595
6236.00,1.0698
6235.00,1.0799
6234.00,1.0900
6233.00,1.1000
6232.00,1.1100
6231.00,1.1199
6230.00,1.1293
6229.00,1.1381
6228.00,1.1463
6227.00,1.1540
6226.00,1.1615
6225.00,1.1689
6224.00,1.1765
6223.00,1.1840
6222.00,1.1913
6221.00,1.1980
6220.00,1.2040
6219.00,1.2092
6218.00,1.2139
6217.00,1.2181
6216.00,1.2223
6215.00,1.2264
6214.00,1.2302
6213.00,1.2337
6212.00,1.2366
6211.00,1.2391
6210.00,1.2414
6209.00,1.2434
6208.00,1.2451
6207.00,1.2466
6206.00,1.2476
6205.00,1.2481
6204.00,1.2481
6203.00,1.2478
6202.00,1.2471
6201.00,1.2460
6200.00,1.2447
6199.00,1.2431
6198.00,1.2413
6197.00,1.2388
6196.00,1.2355
6195.00,1.2314
6194.00,1.2270
6193.00,1.2225
6192.00,1.2177
6191.00,1.2129
6190.00,1.2083
6189.00,1.2040
6188.00,1.1992
6187.00,1.1936
6186.00,1.1870
6185.00,1.1797
6184.00,1.1717
6183.00,1.1633
6182.00,1.1545
6181.00,1.1456
6180.00,1.1365
6179.00,1.1273
6178.00,1.1179
6177.00,1.1081
6176.00,1.0980
6175.00,1.0873
6174.00,1.0763
6173.00,1.0650
6172.00,1.0532
6171.00,1.0412
6170.00,1.0291
6169.00,1.0170
6168.00,1.0050
6167.00,0.9929
6166.00,0.9808
6165.00,0.9686
6164.00,0.9561
6163.00,0.9435
6162.00,0.9309
6161.00,0.9185
6160.00,0.9065
6159.00,0.8948
6158.00,0.8834
6157.00,0.8723
6156.00,0.8616
6155.00,0.8512
6154.00,0.8413
6153.00,0.8318
6152.00,0.8228
6151.00,0.8144
6150.00,0.8065
6149.00,0.7992
6148.00,0.7925
6147.00,0.7862
6146.00,0.7807
6145.00,0.7759
6144.00,0.7720
6143.00,0.7688
6142.00,0.7663
6141.00,0.7647
6140.00,0.7639
6139.00,0.7637
6138.00,0.7643
6137.00,0.7655
6136.00,0.7675
6135.00,0.7702
6134.00,0.7736
6133.00,0.7779
6132.00,0.7831
6131.00,0.7890
6130.00,0.7956
6129.00,0.8027
6128.00,0.8105
6127.00,0.8185
6126.00,0.8270
6125.00,0.8358
6124.00,0.8451
6123.00,0.8549
6122.00,0.8652
6121.00,0.8756
6120.00,0.8863
6119.00,0.8971
6118.00,0.9081
6117.00,0.9193
6116.00,0.9308
6115.00,0.9424
6114.00,0.9541
6113.00,0.9658
6112.00,0.9775
6111.00,0.9891
6110.00,1.0007
6109.00,1.0124
6108.00,1.0241
6107.00,1.0358
6106.00,1.0475
6105.00,1.0589
6104.00,1.0701
6103.00,1.0812
6102.00,1.0922
6101.00,1.1032
6100.00,1.1140
6099.00,1.1246
6098.00,1.1346
6097.00,1.1442
6096.00,1.1536
6095.00,1.1630
6094.00,1.1724
6093.00,1.1816
6092.00,1.1903
6091.00,1.1985
6090.00,1.2060
6089.00,1.2131
6088.00,1.2197
6087.00,1.2261
6086.00,1.2323
6085.00,1.2384
6084.00,1.2442
6083.00,1.2493
6082.00,1.2540
6081.00,1.2584
6080.00,1.2626
6079.00,1.2666
6078.00,1.2703
6077.00,1.2734
6076.00,1.2758
6075.00,1.2776
6074.00,1.2791
6073.00,1.2801
6072.00,1.2806
6071.00,1.2806
6070.00,1.2803
6069.00,1.2798
6068.00,1.2792
6067.00,1.2781
6066.00,1.2767
6065.00,1.2749
6064.00,1.2726
6063.00,1.2694
6062.00,1.2655
6061.00,1.2610
6060.00,1.2564
6059.00,1.2518
6058.00,1.2470
6057.00,1.2419
6056.00,1.2365
6055.00,1.2305
6054.00,1.2239
6053.00,1.2167
6052.00,1.2091
6051.00,1.2010
6050.00,1.1924
6049.00,1.1834
6048.00,1.1741
6047.00,1.1644
6046.00,1.1545
6045.00,1.1442
6044.00,1.1337
6043.00,1.1228
6042.00,1.1114
6041.00,1.0995
6040.00,1.0871
6039.00,1.0745
6038.00,1.0618
6037.00,1.0490
6036.00,1.0360
6035.00,1.0230
6034.00,1.0098
6033.00,0.9964
6032.00,0.9829
6031.00,0.9694
6030.00,0.9561
6029.00,0.9430
6028.00,0.9302
6027.00,0.9175
6026.00,0.9049
6025.00,0.8926
6024.00,0.8805
6023.00,0.8686
6022.00,0.8571
6021.00,0.8461
6020.00,0.8357
6019.00,0.8259
6018.00,0.8168
6017.00,0.8082
6016.00,0.8002
6015.00,0.7927
6014.00,0.7859
6013.00,0.7799
6012.00,0.7746
6011.00,0.7702
6010.00,0.7667
6009.00,0.7640
6008.00,0.7622
6007.00,0.7610
6006.00,0.7606
6005.00,0.7609
6004.00,0.7620
6003.00,0.7640
6002.00,0.7669
6001.00,0.7705
6000.00,0.7750
5999.00,0.7802
5998.00,0.7862
5997.00,0.7928
5996.00,0.8000
5995.00,0.8077
5994.00,0.8157
5993.00,0.8243
5992.00,0.8333
5991.00,0.8428
5990.00,0.8528
5989.00,0.8634
5988.00,0.8744
5987.00,0.8858
5986.00,0.8974
5985.00,0.9090
5984.00,0.9207
5983.00,0.9326
5982.00,0.9447
5981.00,0.9569
5980.00,0.9692
5979.00,0.9816
5978.00,0.9941
5977.00,1.0065
5976.00,1.0189
5975.00,1.0314
5974.00,1.0438
5973.00,1.0561
5972.00,1.0681
5971.00,1.0799
5970.00,1.0916
5969.00,1.1031
5968.00,1.1143
5967.00,1.1254
5966.00,1.1363
5965.00,1.1470
5964.00,1.1575
5963.00,1.1676
5962.00,1.1771
5961.00,1.1862
5960.00,1.1949
5959.00,1.2034
5958.00,1.2120
5957.00,1.2205
5956.00,1.2288
5955.00,1.2368
5954.00,1.2441
5953.00,1.2509
5952.00,1.2572
5951.00,1.2631
5950.00,1.2687
5949.00,1.2739
5948.00,1.2787
5947.00,1.2831
5946.00,1.2869
5945.00,1.2901
5944.00,1.2927
5943.00,1.2949
5942.00,1.2970
5941.00,1.2991
5940.00,1.3007
5939.00,1.3019
5938.00,1.3028
5937.00,1.3033
5936.00,1.3035
5935.00,1.3031
5934.00,1.3023
5933.00,1.3010
5932.00,1.2991
5931.00,1.2966
5930.00,1.2934
5929.00,1.2896
5928.00,1.2855
5927.00,1.2812
5926.00,1.2769
5925.00,1.2724
5924.00,1.2673
5923.00,1.2614
5922.00,1.2548
5921.00,1.2475
5920.00,1.2397
5919.00,1.2314
5918.00,1.2227
5917.00,1.2136
5916.00,1.2042
5915.00,1.1945
5914.00,1.1847
5913.00,1.1748
5912.00,1.1647
5911.00,1.1542
5910.00,1.1432
5909.00,1.1316
5908.00,1.1195
5907.00,1.1068
5906.00,1.0939
5905.00,1.0809
5904.00,1.0677
5903.00,1.0542
5902.00,1.0406
5901.00,1.0270
5900.00,1.0135
5899.00,1.0000
5898.00,0.9866
5897.00,0.9733
5896.00,0.9602
5895.00,0.9472
5894.00,0.9343
5893.00,0.9215
5892.00,0.9090
5891.00,0.8969
5890.00,0.8851
5889.00,0.8737
5888.00,0.8626
5887.00,0.8519
5886.00,0.8418
5885.00,0.8323
5884.00,0.8236
5883.00,0.8156
5882.00,0.8083
5881.00,0.8018
5880.00,0.7961
5879.00,0.7910
5878.00,0.7867
5877.00,0.7833
5876.00,0.7808
5875.00,0.7791
5874.00,0.7782
5873.00,0.7780
5872.00,0.7786
5871.00,0.7800
5870.00,0.7823
5869.00,0.7854
5868.00,0.7893
5867.00,0.7939
5866.00,0.7992
5865.00,0.8051
5864.00,0.8116
5863.00,0.8188
5862.00,0.8267
5861.00,0.8353
5860.00,0.8443
5859.00,0.8537
5858.00,0.8634
5857.00,0.8734
5856.00,0.8837
5855.00,0.8944
5854.00,0.9055
5853.00,0.9170
5852.00,0.9287
5851.00,0.9407
5850.00,0.9527
5849.00,0.9649
5848.00,0.9771
5847.00,0.9894
5846.00,1.0018
5845.00,1.0144
5844.00,1.0269
5843.00,1.0393
5842.00,1.0515
5841.00,1.0637
5840.00,1.0756
5839.00,1.0874
5838.00,1.0990
5837.00,1.1105
5836.00,1.1219
5835.00,1.1332
5834.00,1.1444
5833.00,1.1555
5832.00,1.1664
5831.00,1.1770
5830.00,1.1873
5829.00,1.1973
5828.00,1.2069
5827.00,1.2160
5826.00,1.2246
5825.00,1.2328
5824.00,1.2406
5823.00,1.2479
5822.00,1.2548
5821.00,1.2616
5820.00,1.2681
5819.00,1.2745
5818.00,1.2805
5817.00,1.2862
5816.00,1.2916
5815.00,1.2966
5814.00,1.3015
5813.00,1.3063
5812.00,1.3106
5811.00,1.3142
5810.00,1.3169
5809.00,1.3189
5808.00,1.3204
5807.00,1.3214
5806.00,1.3220
5805.00,1.3225
5804.00,1.3227
5803.00,1.3225
5802.00,1.3217
5801.00,1.3204
5800.00,1.3190
5799.00,1.3174
5798.00,1.3152
5797.00,1.3125
5796.00,1.3093
5795.00,1.3057
5794.00,1.3017
5793.00,1.2972
5792.00,1.2924
5791.00,1.2871
5790.00,1.2814
5789.00,1.2751
5788.00,1.2683
5787.00,1.2609
5786.00,1.2532
5785.00,1.2451
5784.00,1.2364
5783.00,1.2270
5782.00,1.2170
5781.00,1.2068
5780.00,1.1964
5779.00,1.1859
5778.00,1.1751
5777.00,1.1639
5776.00,1.1522
5775.00,1.1402
5774.00,1.1279
5773.00,1.1154
5772.00,1.1027
5771.00,1.0897
5770.00,1.0765
5769.00,1.0631
5768.00,1.0494
5767.00,1.0354
5766.00,1.0212
5765.00,1.0071
5764.00,0.9930
5763.00,0.9789
5762.00,0.9649
5761.00,0.9513
5760.00,0.9380
5759.00,0.9250
5758.00,0.9122
5757.00,0.8997
5756.00,0.8876
5755.00,0.8759
5754.00,0.8647
5753.00,0.8541
5752.00,0.8442
5751.00,0.8349
5750.00,0.8263
5749.00,0.8182
5748.00,0.8108
5747.00,0.8041
5746.00,0.7982
5745.00,0.7932
5744.00,0.7890
5743.00,0.7857
5742.00,0.7832
5741.00,0.7816
5740.00,0.7808
5739.00,0.7808
5738.00,0.7816
5737.00,0.7833
5736.00,0.7857
5735.00,0.7889
5734.00,0.7929
5733.00,0.7978
5732.00,0.8034
5731.00,0.8097
5730.00,0.8167
5729.00,0.8242
5728.00,0.8324
5727.00,0.8410
5726.00,0.8500
5725.00,0.8597
5724.00,0.8699
5723.00,0.8805
5722.00,0.8915
5721.00,0.9027
5720.00,0.9143
5719.00,0.9260
5718.00,0.9380
5717.00,0.9502
5716.00,0.9625
5715.00,0.9750
5714.00,0.9876
5713.00,1.0002
5712.00,1.0128
5711.00,1.0255
5710.00,1.0383
5709.00,1.0510
5708.00,1.0636
5707.00,1.0761
5706.00,1.0883
5705.00,1.1004
5704.00,1.1124
5703.00,1.1243
5702.00,1.1360
5701.00,1.1475
5700.00,1.1586
5699.00,1.1694
5698.00,1.1798
5697.00,1.1899
5696.00,1.1998
5695.00,1.2095
5694.00,1.2191
5693.00,1.2284
5692.00,1.2371
5691.00,1.2454
5690.00,1.2533
5689.00,1.2609
5688.00,1.2682
5687.00,1.2752
5686.00,1.2818
5685.00,1.2880
5684.00,1.2939
5683.00,1.2995
5682.00,1.3047
5681.00,1.3096
5680.00,1.3142
5679.00,1.3185
5678.00,1.3224
5677.00,1.3259
5676.00,1.3290
5675.00,1.3315
5674.00,1.3333
5673.00,1.3345
5672.00,1.3350
5671.00,1.3350
5670.00,1.3347
5669.00,1.3342
5668.00,1.3334
5667.00,1.3323
5666.00,1.3308
5665.00,1.3288
5664.00,1.3264
5663.00,1.3236
5662.00,1.3205
5661.00,1.3170
5660.00,1.3129
5659.00,1.3084
5658.00,1.3034
5657.00,1.2978
5656.00,1.2915
5655.00,1.2847
5654.00,1.2773
5653.00,1.2696
5652.00,1.2616
5651.00,1.2532
5650.00,1.2444
5649.00,1.2351
5648.00,1.2253
5647.00,1.2150
5646.00,1.2042
5645.00,1.1932
5644.00,1.1818
5643.00,1.1700
5642.00,1.1578
5641.00,1.1453
5640.00,1.1326
5639.00,1.1195
5638.00,1.1061
5637.00,1.0923
5636.00,1.0782
5635.00,1.0639
5634.00,1.0493
5633.00,1.0346
5632.00,1.0198
5631.00,1.0050
5630.00,0.9902
5629.00,0.9756
5628.00,0.9611
5627.00,0.9468
5626.00,0.9327
5625.00,0.9188
5624.00,0.9052
5623.00,0.8920
5622.00,0.8792
5621.00,0.8670
5620.00,0.8552
5619.00,0.8439
5618.00,0.8331
5617.00,0.8229
5616.00,0.8135
5615.00,0.8048
5614.00,0.7969
5613.00,0.7899
5612.00,0.7837
5611.00,0.7784
5610.00,0.7741
5609.00,0.7708
5608.00,0.7684
5607.00,0.7669
5606.00,0.7662
5605.00,0.7664
5604.00,0.7675
5603.00,0.7695
5602.00,0.7724
5601.00,0.7763
5600.00,0.7812
5599.00,0.7869
5598.00,0.7933
5597.00,0.8004
5596.00,0.8082
5595.00,0.8167
5594.00,0.8258
5593.00,0.8354
5592.00,0.8456
5591.00,0.8563
5590.00,0.8675
5589.00,0.8791
5588.00,0.8910
5587.00,0.9032
5586.00,0.9157
5585.00,0.9285
5584.00,0.9414
5583.00,0.9543
5582.00,0.9672
5581.00,0.9802
5580.00,0.9931
5579.00,1.0060
5578.00,1.0190
5577.00,1.0320
5576.00,1.0452
5575.00,1.0582
5574.00,1.0709
5573.00,1.0834
5572.00,1.0955
5571.00,1.1073
5570.00,1.1189
5569.00,1.1303
5568.00,1.1416
5567.00,1.1527
5566.00,1.1636
5565.00,1.1743
5564.00,1.1846
5563.00,1.1944
5562.00,1.2039
5561.00,1.2130
5560.00,1.2220
5559.00,1.2308
5558.00,1.2392
5557.00,1.2473
5556.00,1.2551
5555.00,1.2625
5554.00,1.2695
5553.00,1.2761
5552.00,1.2825
5551.00,1.2886
5550.00,1.2942
5549.00,1.2992
5548.00,1.3039
5547.00,1.3084
5546.00,1.3126
5545.00,1.3163
5544.00,1.3193
5543.00,1.3219
5542.00,1.3242
5541.00,1.3265
5540.00,1.3286
5539.00,1.3307
5538.00,1.3326
5537.00,1.3338
5536.00,1.3341
5535.00,1.3336
5534.00,1.3326
5533.00,1.3311
5532.00,1.3294
5531.00,1.3273
5530.00,1.3249
5529.00,1.3222
5528.00,1.3193
5527.00,1.3161
5526.00,1.3125
5525.00,1.3083
5524.00,1.3034
5523.00,1.2978
5522.00,1.2916
5521.00,1.2849
5520.00,1.2778
5519.00,1.2701
5518.00,1.2619
5517.00,1.2532
5516.00,1.2443
5515.00,1.2350
5514.00,1.2253
5513.00,1.2152
5512.00,1.2045
5511.00,1.1932
5510.00,1.1814
5509.00,1.1693
5508.00,1.1570
5507.00,1.1444
5506.00,1.1313
5505.00,1.1178
5504.00,1.1038
5503.00,1.0896
5502.00,1.0751
5501.00,1.0604
5500.00,1.0456
5499.00,1.0307
5498.00,1.0156
5497.00,1.0004
5496.00,0.9852
5495.00,0.9701
5494.00,0.9551
5493.00,0.9403
5492.00,0.9257
5491.00,0.9113
5490.00,0.8971
5489.00,0.8834
5488.00,0.8701
5487.00,0.8575
5486.00,0.8455
5485.00,0.8341
5484.00,0.8235
5483.00,0.8135
5482.00,0.8044
5481.00,0.7961
5480.00,0.7886
5479.00,0.7820
5478.00,0.7763
5477.00,0.7715
5476.00,0.7677
5475.00,0.7648
5474.00,0.7629
5473.00,0.7621
5472.00,0.7622
5471.00,0.7633
5470.00,0.7654
5469.00,0.7685
5468.00,0.7726
5467.00,0.7777
5466.00,0.7836
5465.00,0.7904
5464.00,0.7979
5463.00,0.8060
5462.00,0.8149
5461.00,0.8246
5460.00,0.8349
5459.00,0.8458
5458.00,0.8573
5457.00,0.8691
5456.00,0.8813
5455.00,0.8940
5454.00,0.9070
5453.00,0.9204
5452.00,0.9339
5451.00,0.9477
5450.00,0.9615
5449.00,0.9754
5448.00,0.9893
5447.00,1.0033
5446.00,1.0174
5445.00,1.0316
5444.00,1.0459
5443.00,1.0601
5442.00,1.0742
5441.00,1.0882
5440.00,1.1021
5439.00,1.1156
5438.00,1.1288
5437.00,1.1416
5436.00,1.1542
5435.00,1.1667
5434.00,1.1791
5433.00,1.1910
5432.00,1.2025
5431.00,1.2135
5430.00,1.2243
5429.00,1.2350
5428.00,1.2458
5427.00,1.2563
5426.00,1.2663
5425.00,1.2758
5424.00,1.2847
5423.00,1.2931
5422.00,1.3011
5421.00,1.3086
5420.00,1.3157
5419.00,1.3224
5418.00,1.3287
5417.00,1.3347
5416.00,1.3403
5415.00,1.3454
5414.00,1.3501
5413.00,1.3545
5412.00,1.3585
5411.00,1.3620
5410.00,1.3650
5409.00,1.3675
5408.00,1.3696
5407.00,1.3712
5406.00,1.3722
5405.00,1.3730
5404.00,1.3736
5403.00,1.3739
5402.00,1.3734
5401.00,1.3722
5400.00,1.3704
5399.00,1.3680
5398.00,1.3652
5397.00,1.3620
5396.00,1.3586
5395.00,1.3547
5394.00,1.3502
5393.00,1.3451
5392.00,1.3395
5391.00,1.3337
5390.00,1.3275
5389.00,1.3208
5388.00,1.3137
5387.00,1.3060
5386.00,1.2979
5385.00,1.2892
5384.00,1.2801
5383.00,1.2707
5382.00,1.2608
5381.00,1.2505
5380.00,1.2397
5379.00,1.2284
5378.00,1.2164
5377.00,1.2039
5376.00,1.1909
5375.00,1.1775
5374.00,1.1636
5373.00,1.1494
5372.00,1.1351
5371.00,1.1205
5370.00,1.1057
5369.00,1.0907
5368.00,1.0755
5367.00,1.0598
5366.00,1.0438
5365.00,1.0276
5364.00,1.0112
5363.00,0.9950
5362.00,0.9790
5361.00,0.9632
5360.00,0.9476
5359.00,0.9323
5358.00,0.9171
5357.00,0.9023
5356.00,0.8879
5355.00,0.8739
5354.00,0.8604
5353.00,0.8475
5352.00,0.8353
5351.00,0.8236
5350.00,0.8128
5349.00,0.8028
5348.00,0.7937
5347.00,0.7855
5346.00,0.7783
5345.00,0.7720
5344.00,0.7668
5343.00,0.7627
5342.00,0.7595
5341.00,0.7574
5340.00,0.7564
5339.00,0.7566
5338.00,0.7579
5337.00,0.7603
5336.00,0.7636
5335.00,0.7678
5334.00,0.7729
5333.00,0.7790
5332.00,0.7861
5331.00,0.7939
5330.00,0.8024
5329.00,0.8116
5328.00,0.8214
5327.00,0.8320
5326.00,0.8432
5325.00,0.8551
5324.00,0.8674
5323.00,0.8801
5322.00,0.8932
5321.00,0.9066
5320.00,0.9204
5319.00,0.9343
5318.00,0.9484
5317.00,0.9626
5316.00,0.9769
5315.00,0.9913
5314.00,1.0057
5313.00,1.0203
5312.00,1.0349
5311.00,1.0494
5310.00,1.0637
5309.00,1.0779
5308.00,1.0921
5307.00,1.1063
5306.00,1.1203
5305.00,1.1342
5304.00,1.1478
5303.00,1.1610
5302.00,1.1738
5301.00,1.1863
5300.00,1.1985
5299.00,1.2105
5298.00,1.2223
5297.00,1.2339
5296.00,1.2452
5295.00,1.2561
5294.00,1.2667
5293.00,1.2766
5292.00,1.2859
5291.00,1.2949
5290.00,1.3037
5289.00,1.3123
5288.00,1.3206
5287.00,1.3285
5286.00,1.3359
5285.00,1.3427
5284.00,1.3491
5283.00,1.3550
5282.00,1.3606
5281.00,1.3658
5280.00,1.3705
5279.00,1.3746
5278.00,1.3782
5277.00,1.3813
5276.00,1.3840
5275.00,1.3864
5274.00,1.3886
5273.00,1.3904
5272.00,1.3915
5271.00,1.3919
5270.00,1.3917
5269.00,1.3913
5268.00,1.3905
5267.00,1.3894
5266.00,1.3877
5265.00,1.3856
5264.00,1.3830
5263.00,1.3797
5262.00,1.3759
5261.00,1.3718
5260.00,1.3673
5259.00,1.3624
5258.00,1.3569
5257.00,1.3509
5256.00,1.3444
5255.00,1.3376
5254.00,1.3304
5253.00,1.3227
5252.00,1.3143
5251.00,1.3053
5250.00,1.2957
5249.00,1.2858
5248.00,1.2755
5247.00,1.2647
5246.00,1.2534
5245.00,1.2415
5244.00,1.2291
5243.00,1.2162
5242.00,1.2028
5241.00,1.1891
5240.00,1.1750
5239.00,1.1608
5238.00,1.1463
5237.00,1.1315
5236.00,1.1164
5235.00,1.1009
5234.00,1.0850
5233.00,1.0687
5232.00,1.0523
5231.00,1.0357
5230.00,1.0193
5229.00,1.0029
5228.00,0.9865
5227.00,0.9703
5226.00,0.9543
5225.00,0.9385
5224.00,0.9231
5223.00,0.9080
5222.00,0.8934
5221.00,0.8793
5220.00,0.8658
5219.00,0.8531
5218.00,0.8410
5217.00,0.8298
5216.00,0.8194
5215.00,0.8098
5214.00,0.8011
5213.00,0.7933
5212.00,0.7866
5211.00,0.7810
5210.00,0.7764
5209.00,0.7729
5208.00,0.7704
5207.00,0.7689
5206.00,0.7687
5205.00,0.7695
5204.00,0.7714
5203.00,0.7745
5202.00,0.7787
5201.00,0.7839
5200.00,0.7902
5199.00,0.7974
5198.00,0.8055
5197.00,0.8146
5196.00,0.8244
5195.00,0.8350
5194.00,0.8462
5193.00,0.8579
5192.00,0.8702
5191.00,0.8829
5190.00,0.8961
5189.00,0.9098
5188.00,0.9238
5187.00,0.9380
5186.00,0.9526
5185.00,0.9675
5184.00,0.9826
5183.00,0.9978
5182.00,1.0131
5181.00,1.0284
5180.00,1.0437
5179.00,1.0588
5178.00,1.0739
5177.00,1.0889
5176.00,1.1039
5175.00,1.1187
5174.00,1.1334
5173.00,1.1479
5172.00,1.1621
5171.00,1.1761
5170.00,1.1899
5169.00,1.2034
5168.00,1.2166
5167.00,1.2293
5166.00,1.2418
5165.00,1.2541
5164.00,1.2663
5163.00,1.2782
5162.00,1.2896
5161.00,1.3002
5160.00,1.3101
5159.00,1.3194
5158.00,1.3283
5157.00,1.3370
5156.00,1.3455
5155.00,1.3538
5154.00,1.3615
5153.00,1.3687
5152.00,1.3754
5151.00,1.3816
5150.00,1.3875
5149.00,1.3929
5148.00,1.3979
5147.00,1.4025
5146.00,1.4066
5145.00,1.4102
5144.00,1.4134
5143.00,1.4160
5142.00,1.4182
5141.00,1.4198
5140.00,1.4211
5139.00,1.4220
5138.00,1.4225
5137.00,1.4224
5136.00,1.4217
5135.00,1.4204
5134.00,1.4186
5133.00,1.4165
5132.00,1.4141
5131.00,1.4113
5130.00,1.4081
5129.00,1.4042
5128.00,1.3998
5127.00,1.3951
5126.00,1.3899
5125.00,1.3842
5124.00,1.3779
5123.00,1.3712
5122.00,1.3639
5121.00,1.3560
5120.00,1.3476
5119.00,1.3388
5118.00,1.3298
5117.00,1.3204
5116.00,1.3106
5115.00,1.3003
5114.00,1.2893
5113.00,1.2776
5112.00,1.2652
5111.00,1.2523
5110.00,1.2391
5109.00,1.2255
5108.00,1.2115
5107.00,1.1969
5106.00,1.1818
5105.00,1.1662
5104.00,1.1502
5103.00,1.1339
5102.00,1.1175
5101.00,1.1009
5100.00,1.0841
5099.00,1.0670
5098.00,1.0497
5097.00,1.0324
5096.00,1.0149
5095.00,0.9975
5094.00,0.9802
5093.00,0.9631
5092.00,0.9463
5091.00,0.9299
5090.00,0.9138
5089.00,0.8981
5088.00,0.8830
5087.00,0.8683
5086.00,0.8544
5085.00,0.8412
5084.00,0.8288
5083.00,0.8173
5082.00,0.8066
5081.00,0.7970
5080.00,0.7884
5079.00,0.7809
5078.00,0.7746
5077.00,0.7694
5076.00,0.7653
5075.00,0.7624
5074.00,0.7606
5073.00,0.7599
5072.00,0.7605
5071.00,0.7623
5070.00,0.7653
5069.00,0.7695
5068.00,0.7748
5067.00,0.7811
5066.00,0.7884
5065.00,0.7967
5064.00,0.8059
5063.00,0.8160
5062.00,0.8269
5061.00,0.8385
5060.00,0.8508
5059.00,0.8637
5058.00,0.8772
5057.00,0.8911
5056.00,0.9055
5055.00,0.9202
5054.00,0.9353
5053.00,0.9507
5052.00,0.9664
5051.00,0.9821
5050.00,0.9980
5049.00,1.0139
5048.00,1.0298
5047.00,1.0458
5046.00,1.0618
5045.00,1.0778
5044.00,1.0935
5043.00,1.1092
5042.00,1.1247
5041.00,1.1400
5040.00,1.1552
5039.00,1.1701
5038.00,1.1847
5037.00,1.1990
5036.00,1.2129
5035.00,1.2265
5034.00,1.2399
5033.00,1.2531
5032.00,1.2661
5031.00,1.2788
5030.00,1.2912
5029.00,1.3032
5028.00,1.3145
5027.00,1.3252
5026.00,1.3353
5025.00,1.3450
5024.00,1.3544
5023.00,1.3635
5022.00,1.3721
5021.00,1.3802
5020.00,1.3878
5019.00,1.3949
5018.00,1.4016
5017.00,1.4079
5016.00,1.4139
5015.00,1.4195
5014.00,1.4245
5013.00,1.4289
5012.00,1.4329
5011.00,1.4365
5010.00,1.4396
5009.00,1.4420
5008.00,1.4437
5007.00,1.4448
5006.00,1.4457
5005.00,1.4464
5004.00,1.4469
5003.00,1.4470
5002.00,1.4465
5001.00,1.4451
5000.00,1.4430
4999.00,1.4404
4998.00,1.4376
4997.00,1.4346
4996.00,1.4312
4995.00,1.4272
4994.00,1.4226
4993.00,1.4173
4992.00,1.4115
4991.00,1.4054
4990.00,1.3988
4989.00,1.3918
4988.00,1.3840
4987.00,1.3756
4986.00,1.3667
4985.00,1.3574
4984.00,1.3476
4983.00,1.3373
4982.00,1.3265
4981.00,1.3150
4980.00,1.3029
4979.00,1.2903
4978.00,1.2773
4977.00,1.2640
4976.00,1.2503
4975.00,1.2360
4974.00,1.2211
4973.00,1.2057
4972.00,1.1897
4971.00,1.1733
4970.00,1.1565
4969.00,1.1394
4968.00,1.1221
4967.00,1.1044
4966.00,1.0865
4965.00,1.0684
4964.00,1.0501
4963.00,1.0317
4962.00,1.0133
4961.00,0.9950
4960.00,0.9768
4959.00,0.9588
4958.00,0.9412
4957.00,0.9239
4956.00,0.9072
4955.00,0.8910
4954.00,0.8753
4953.00,0.8604
4952.00,0.8462
4951.00,0.8329
4950.00,0.8206
4949.00,0.8093
4948.00,0.7991
4947.00,0.7899
4946.00,0.7819
4945.00,0.7752
4944.00,0.7696
4943.00,0.7654
4942.00,0.7625
4941.00,0.7609
4940.00,0.7606
4939.00,0.7616
4938.00,0.7640
4937.00,0.7677
4936.00,0.7726
4935.00,0.7787
4934.00,0.7859
4933.00,0.7942
4932.00,0.8035
4931.00,0.8137
4930.00,0.8250
4929.00,0.8371
4928.00,0.8500
4927.00,0.8635
4926.00,0.8775
4925.00,0.8920
4924.00,0.9069
4923.00,0.9224
4922.00,0.9382
4921.00,0.9544
4920.00,0.9710
4919.00,0.9877
4918.00,1.0046
4917.00,1.0214
4916.00,1.0383
4915.00,1.0551
4914.00,1.0719
4913.00,1.0888
4912.00,1.1056
4911.00,1.1223
4910.00,1.1387
4909.00,1.1547
4908.00,1.1705
4907.00,1.1860
4906.00,1.2013
4905.00,1.2164
4904.00,1.2313
4903.00,1.2459
4902.00,1.2603
4901.00,1.2743
4900.00,1.2879
4899.00,1.3010
4898.00,1.3136
4897.00,1.3258
4896.00,1.3377
4895.00,1.3494
4894.00,1.3607
4893.00,1.3715
4892.00,1.3814
4891.00,1.3907
4890.00,1.3993
4889.00,1.4075
4888.00,1.4154
4887.00,1.4229
4886.00,1.4300
4885.00,1.4366
4884.00,1.4427
4883.00,1.4484
4882.00,1.4537
4881.00,1.4583
4880.00,1.4622
4879.00,1.4656
4878.00,1.4685
4877.00,1.4712
4876.00,1.4735
4875.00,1.4755
4874.00,1.4768
4873.00,1.4775
4872.00,1.4776
4871.00,1.4771
4870.00,1.4762
4869.00,1.4748
4868.00,1.4732
4867.00,1.4713
4866.00,1.4690
4865.00,1.4663
4864.00,1.4631
4863.00,1.4593
4862.00,1.4550
4861.00,1.4501
4860.00,1.4446
4859.00,1.4386
4858.00,1.4320
4857.00,1.4248
4856.00,1.4173
4855.00,1.4092
4854.00,1.4008
4853.00,1.3919
4852.00,1.3825
4851.00,1.3723
4850.00,1.3615
4849.00,1.3500
4848.00,1.3381
4847.00,1.3257
4846.00,1.3130
4845.00,1.2997
4844.00,1.2857
4843.00,1.2710
4842.00,1.2558
4841.00,1.2401
4840.00,1.2240
4839.00,1.2075
4838.00,1.1904
4837.00,1.1729
4836.00,1.1550
4835.00,1.1367
4834.00,1.1181
4833.00,1.0992
4832.00,1.0801
4831.00,1.0608
4830.00,1.0415
4829.00,1.0222
4828.00,1.0029
4827.00,0.9837
4826.00,0.9648
4825.00,0.9461
4824.00,0.9279
4823.00,0.9101
4822.00,0.8929
4821.00,0.8763
4820.00,0.8605
4819.00,0.8455
4818.00,0.8315
4817.00,0.8185
4816.00,0.8065
4815.00,0.7956
4814.00,0.7860
4813.00,0.7777
4812.00,0.7706
4811.00,0.7648
4810.00,0.7603
4809.00,0.7573
4808.00,0.7558
4807.00,0.7559
4806.00,0.7573
4805.00,0.7602
4804.00,0.7644
4803.00,0.7698
4802.00,0.7765
4801.00,0.7844
4800.00,0.7936
4799.00,0.8038
4798.00,0.8151
4797.00,0.8273
4796.00,0.8404
4795.00,0.8541
4794.00,0.8685
4793.00,0.8836
4792.00,0.8992
4791.00,0.9154
4790.00,0.9319
4789.00,0.9487
4788.00,0.9658
4787.00,0.9831
4786.00,1.0006
4785.00,1.0183
4784.00,1.0361
4783.00,1.0540
4782.00,1.0719
4781.00,1.0898
4780.00,1.1075
4779.00,1.1250
4778.00,1.1423
4777.00,1.1595
4776.00,1.1764
4775.00,1.1931
4774.00,1.2096
4773.00,1.2258
4772.00,1.2416
4771.00,1.2570
4770.00,1.2721
4769.00,1.2868
4768.00,1.3011
4767.00,1.3150
4766.00,1.3284
4765.00,1.3414
4764.00,1.3541
4763.00,1.3664
4762.00,1.3781
4761.00,1.3892
4760.00,1.3997
4759.00,1.4098
4758.00,1.4196
4757.00,1.4291
4756.00,1.4383
4755.00,1.4469
4754.00,1.4549
4753.00,1.4621
4752.00,1.4685
4751.00,1.4745
4750.00,1.4801
4749.00,1.4856
4748.00,1.4906
4747.00,1.4950
4746.00,1.4987
4745.00,1.5016
4744.00,1.5040
4743.00,1.5061
4742.00,1.5079
4741.00,1.5094
4740.00,1.5104
4739.00,1.5108
4738.00,1.5108
4737.00,1.5102
4736.00,1.5090
4735.00,1.5072
4734.00,1.5049
4733.00,1.5021
4732.00,1.4990
4731.00,1.4956
4730.00,1.4917
4729.00,1.4874
4728.00,1.4826
4727.00,1.4773
4726.00,1.4714
4725.00,1.4650
4724.00,1.4580
4723.00,1.4506
4722.00,1.4426
4721.00,1.4340
4720.00,1.4247
4719.00,1.4147
4718.00,1.4042
4717.00,1.3931
4716.00,1.3816
4715.00,1.3696
4714.00,1.3570
4713.00,1.3437
4712.00,1.3298
4711.00,1.3155
4710.00,1.3007
4709.00,1.2853
4708.00,1.2694
4707.00,1.2528
4706.00,1.2356
4705.00,1.2180
4704.00,1.2000
4703.00,1.1815
4702.00,1.1628
4701.00,1.1437
4700.00,1.1243
4699.00,1.1046
4698.00,1.0848
4697.00,1.0650
4696.00,1.0452
4695.00,1.0255
4694.00,1.0061
4693.00,0.9870
4692.00,0.9682
4691.00,0.9498
4690.00,0.9320
4689.00,0.9149
4688.00,0.8986
4687.00,0.8832
4686.00,0.8688
4685.00,0.8553
4684.00,0.8430
4683.00,0.8317
4682.00,0.8217
4681.00,0.8129
4680.00,0.8054
4679.00,0.7992
4678.00,0.7943
4677.00,0.7909
4676.00,0.7888
4675.00,0.7880
4674.00,0.7885
4673.00,0.7904
4672.00,0.7935
4671.00,0.7980
4670.00,0.8037
4669.00,0.8106
4668.00,0.8186
4667.00,0.8276
4666.00,0.8377
4665.00,0.8488
4664.00,0.8608
4663.00,0.8736
4662.00,0.8873
4661.00,0.9017
4660.00,0.9169
4659.00,0.9326
4658.00,0.9487
4657.00,0.9653
4656.00,0.9821
4655.00,0.9992
4654.00,1.0165
4653.00,1.0341
4652.00,1.0520
4651.00,1.0700
4650.00,1.0881
4649.00,1.1061
4648.00,1.1240
4647.00,1.1418
4646.00,1.1595
4645.00,1.1771
4644.00,1.1947
4643.00,1.2122
4642.00,1.2294
4641.00,1.2462
4640.00,1.2625
4639.00,1.2784
4638.00,1.2939
4637.00,1.3093
4636.00,1.3243
4635.00,1.3390
4634.00,1.3532
4633.00,1.3670
4632.00,1.3804
4631.00,1.3935
4630.00,1.4061
4629.00,1.4182
4628.00,1.4297
4627.00,1.4405
4626.00,1.4508
4625.00,1.4604
4624.00,1.4694
4623.00,1.4779
4622.00,1.4859
4621.00,1.4934
4620.00,1.5004
4619.00,1.5069
4618.00,1.5129
4617.00,1.5182
4616.00,1.5229
4615.00,1.5271
4614.00,1.5309
4613.00,1.5346
4612.00,1.5380
4611.00,1.5411
4610.00,1.5436
4609.00,1.5455
4608.00,1.5466
4607.00,1.5470
4606.00,1.5467
4605.00,1.5462
4604.00,1.5455
4603.00,1.5447
4602.00,1.5433
4601.00,1.5410
4600.00,1.5378
4599.00,1.5339
4598.00,1.5298
4597.00,1.5255
4596.00,1.5210
4595.00,1.5159
4594.00,1.5102
4593.00,1.5039
4592.00,1.4972
4591.00,1.4899
4590.00,1.4821
4589.00,1.4737
4588.00,1.4647
4587.00,1.4551
4586.00,1.4450
4585.00,1.4344
4584.00,1.4231
4583.00,1.4112
4582.00,1.3986
4581.00,1.3854
4580.00,1.3717
4579.00,1.3575
4578.00,1.3427
4577.00,1.3272
4576.00,1.3111
4575.00,1.2942
4574.00,1.2769
4573.00,1.2590
4572.00,1.2408
4571.00,1.2221
4570.00,1.2028
4569.00,1.1830
4568.00,1.1627
4567.00,1.1421
4566.00,1.1211
4565.00,1.0999
4564.00,1.0785
4563.00,1.0569
4562.00,1.0353
4561.00,1.0140
4560.00,0.9930
4559.00,0.9724
4558.00,0.9522
4557.00,0.9326
4556.00,0.9135
4555.00,0.8952
4554.00,0.8777
4553.00,0.8613
4552.00,0.8460
4551.00,0.8318
4550.00,0.8188
4549.00,0.8073
4548.00,0.7970
4547.00,0.7883
4546.00,0.7811
4545.00,0.7756
4544.00,0.7717
4543.00,0.7694
4542.00,0.7688
4541.00,0.7697
4540.00,0.7722
4539.00,0.7763
4538.00,0.7820
4537.00,0.7892
4536.00,0.7978
4535.00,0.8077
4534.00,0.8188
4533.00,0.8311
4532.00,0.8444
4531.00,0.8587
4530.00,0.8739
4529.00,0.8899
4528.00,0.9067
4527.00,0.9242
4526.00,0.9422
4525.00,0.9605
4524.00,0.9792
4523.00,0.9981
4522.00,1.0172
4521.00,1.0366
4520.00,1.0561
4519.00,1.0757
4518.00,1.0952
4517.00,1.1147
4516.00,1.1340
4515.00,1.1532
4514.00,1.1723
4513.00,1.1914
4512.00,1.2102
4511.00,1.2288
4510.00,1.2470
4509.00,1.2649
4508.00,1.2823
4507.00,1.2994
4506.00,1.3162
4505.00,1.3326
4504.00,1.3484
4503.00,1.3638
4502.00,1.3786
4501.00,1.3930
4500.00,1.4070
4499.00,1.4205
4498.00,1.4334
4497.00,1.4458
4496.00,1.4576
4495.00,1.4689
4494.00,1.4797
4493.00,1.4900
4492.00,1.4998
4491.00,1.5092
4490.00,1.5182
4489.00,1.5267
4488.00,1.5347
4487.00,1.5418
4486.00,1.5480
4485.00,1.5537
4484.00,1.5589
4483.00,1.5638
4482.00,1.5682
4481.00,1.5723
4480.00,1.5758
4479.00,1.5788
4478.00,1.5812
4477.00,1.5831
4476.00,1.5843
4475.00,1.5848
4474.00,1.5849
4473.00,1.5846
4472.00,1.5839
4471.00,1.5828
4470.00,1.5811
4469.00,1.5790
4468.00,1.5765
4467.00,1.5735
4466.00,1.5701
4465.00,1.5663
4464.00,1.5618
4463.00,1.5568
4462.00,1.5511
4461.00,1.5449
4460.00,1.5385
4459.00,1.5316
4458.00,1.5241
4457.00,1.5159
4456.00,1.5069
4455.00,1.4972
4454.00,1.4869
4453.00,1.4762
4452.00,1.4650
4451.00,1.4533
4450.00,1.4412
4449.00,1.4285
4448.00,1.4152
4447.00,1.4010
4446.00,1.3859
4445.00,1.3702
4444.00,1.3539
4443.00,1.3370
4442.00,1.3195
4441.00,1.3014
4440.00,1.2828
4439.00,1.2636
4438.00,1.2439
4437.00,1.2238
4436.00,1.2031
4435.00,1.1820
4434.00,1.1605
4433.00,1.1389
4432.00,1.1171
4431.00,1.0953
4430.00,1.0734
4429.00,1.0515
4428.00,1.0299
4427.00,1.0087
4426.00,0.9881
4425.00,0.9681
4424.00,0.9488
4423.00,0.9302
4422.00,0.9125
4421.00,0.8958
4420.00,0.8804
4419.00,0.8662
4418.00,0.8534
4417.00,0.8422
4416.00,0.8326
4415.00,0.8246
4414.00,0.8183
4413.00,0.8136
4412.00,0.8107
4411.00,0.8095
4410.00,0.8100
4409.00,0.8123
4408.00,0.8163
4407.00,0.8220
4406.00,0.8293
4405.00,0.8382
4404.00,0.8484
4403.00,0.8599
4402.00,0.8726
4401.00,0.8865
4400.00,0.9014
4399.00,0.9172
4398.00,0.9339
4397.00,0.9514
4396.00,0.9695
4395.00,0.9881
4394.00,1.0071
4393.00,1.0264
4392.00,1.0459
4391.00,1.0656
4390.00,1.0854
4389.00,1.1054
4388.00,1.1253
4387.00,1.1453
4386.00,1.1651
4385.00,1.1848
4384.00,1.2043
4383.00,1.2235
4382.00,1.2424
4381.00,1.2610
4380.00,1.2793
4379.00,1.2972
4378.00,1.3148
4377.00,1.3320
4376.00,1.3488
4375.00,1.3652
4374.00,1.3812
4373.00,1.3967
4372.00,1.4116
4371.00,1.4261
4370.00,1.4401
4369.00,1.4537
4368.00,1.4668
4367.00,1.4793
4366.00,1.4911
4365.00,1.5023
4364.00,1.5131
4363.00,1.5236
4362.00,1.5336
4361.00,1.5433
4360.00,1.5525
4359.00,1.5613
4358.00,1.5695
4357.00,1.5771
4356.00,1.5841
4355.00,1.5905
4354.00,1.5965
4353.00,1.6020
4352.00,1.6072
4351.00,1.6119
4350.00,1.6160
4349.00,1.6197
4348.00,1.6229
4347.00,1.6259
4346.00,1.6286
4345.00,1.6310
4344.00,1.6331
4343.00,1.6346
4342.00,1.6357
4341.00,1.6362
4340.00,1.6361
4339.00,1.6354
4338.00,1.6341
4337.00,1.6323
4336.00,1.6299
4335.00,1.6270
4334.00,1.6234
4333.00,1.6193
4332.00,1.6146
4331.00,1.6098
4330.00,1.6047
4329.00,1.5992
4328.00,1.5931
4327.00,1.5863
4326.00,1.5789
4325.00,1.5711
4324.00,1.5629
4323.00,1.5543
4322.00,1.5452
4321.00,1.5355
4320.00,1.5251
4319.00,1.5139
4318.00,1.5021
4317.00,1.4898
4316.00,1.4771
4315.00,1.4638
4314.00,1.4500
4313.00,1.4354
4312.00,1.4200
4311.00,1.4039
4310.00,1.3871
4309.00,1.3697
4308.00,1.3519
4307.00,1.3336
4306.00,1.3149
4305.00,1.2958
4304.00,1.2761
4303.00,1.2558
4302.00,1.2350
4301.00,1.2139
4300.00,1.1926
4299.00,1.1711
4298.00,1.1496
4297.00,1.1283
4296.00,1.1071
4295.00,1.0862
4294.00,1.0657
4293.00,1.0456
4292.00,1.0261
4291.00,1.0073
4290.00,0.9894
4289.00,0.9724
4288.00,0.9564
4287.00,0.9415
4286.00,0.9277
4285.00,0.9151
4284.00,0.9038
4283.00,0.8936
4282.00,0.8847
4281.00,0.8772
4280.00,0.8710
4279.00,0.8663
4278.00,0.8630
4277.00,0.8613
4276.00,0.8609
4275.00,0.8621
4274.00,0.8649
4273.00,0.8691
4272.00,0.8748
4271.00,0.8820
4270.00,0.8905
4269.00,0.9003
4268.00,0.9112
4267.00,0.9232
4266.00,0.9363
4265.00,0.9503
4264.00,0.9653
4263.00,0.9811
4262.00,0.9975
4261.00,1.0145
4260.00,1.0321
4259.00,1.0503
4258.00,1.0689
4257.00,1.0879
4256.00,1.1072
4255.00,1.1268
4254.00,1.1465
4253.00,1.1664
4252.00,1.1863
4251.00,1.2060
4250.00,1.2257
4249.00,1.2453
4248.00,1.2648
4247.00,1.2844
4246.00,1.3037
4245.00,1.3227
4244.00,1.3414
4243.00,1.3595
4242.00,1.3773
4241.00,1.3948
4240.00,1.4120
4239.00,1.4287
4238.00,1.4451
4237.00,1.4609
4236.00,1.4761
4235.00,1.4908
4234.00,1.5050
4233.00,1.5187
4232.00,1.5318
4231.00,1.5443
4230.00,1.5563
4229.00,1.5679
4228.00,1.5788
4227.00,1.5891
4226.00,1.5987
4225.00,1.6077
4224.00,1.6161
4223.00,1.6239
4222.00,1.6313
4221.00,1.6380
4220.00,1.6442
4219.00,1.6497
4218.00,1.6546
4217.00,1.6590
4216.00,1.6631
4215.00,1.6670
4214.00,1.6706
4213.00,1.6739
4212.00,1.6766
4211.00,1.6787
4210.00,1.6800
4209.00,1.6807
4208.00,1.6808
4207.00,1.6805
4206.00,1.6799
4205.00,1.6788
4204.00,1.6772
4203.00,1.6750
4202.00,1.6721
4201.00,1.6685
4200.00,1.6645
4199.00,1.6601
4198.00,1.6555
4197.00,1.6508
4196.00,1.6456
4195.00,1.6398
4194.00,1.6332
4193.00,1.6260
4192.00,1.6182
4191.00,1.6100
4190.00,1.6014
4189.00,1.5923
4188.00,1.5827
4187.00,1.5724
4186.00,1.5615
4185.00,1.5501
4184.00,1.5382
4183.00,1.5256
4182.00,1.5120
4181.00,1.4976
4180.00,1.4824
4179.00,1.4667
4178.00,1.4507
4177.00,1.4342
4176.00,1.4170
4175.00,1.3989
4174.00,1.3801
4173.00,1.3608
4172.00,1.3409
4171.00,1.3205
4170.00,1.2994
4169.00,1.2778
4168.00,1.2557
4167.00,1.2333
4166.00,1.2106
4165.00,1.1878
4164.00,1.1647
4163.00,1.1415
4162.00,1.1184
4161.00,1.0956
4160.00,1.0730
4159.00,1.0510
4158.00,1.0296
4157.00,1.0088
4156.00,0.9889
4155.00,0.9700
4154.00,0.9522
4153.00,0.9357
4152.00,0.9204
4151.00,0.9065
4150.00,0.8942
4149.00,0.8834
4148.00,0.8744
4147.00,0.8671
4146.00,0.8616
4145.00,0.8579
4144.00,0.8561
4143.00,0.8562
4142.00,0.8581
4141.00,0.8619
4140.00,0.8675
4139.00,0.8749
4138.00,0.8839
4137.00,0.8945
4136.00,0.9066
4135.00,0.9201
4134.00,0.9349
4133.00,0.9509
4132.00,0.9679
4131.00,0.9858
4130.00,1.0044
4129.00,1.0236
4128.00,1.0434
4127.00,1.0636
4126.00,1.0843
4125.00,1.1053
4124.00,1.1265
4123.00,1.1479
4122.00,1.1693
4121.00,1.1906
4120.00,1.2119
4119.00,1.2331
4118.00,1.2543
4117.00,1.2753
4116.00,1.2960
4115.00,1.3166
4114.00,1.3368
4113.00,1.3567
4112.00,1.3761
4111.00,1.3951
4110.00,1.4136
4109.00,1.4316
4108.00,1.4492
4107.00,1.4664
4106.00,1.4831
4105.00,1.4995
4104.00,1.5153
4103.00,1.5306
4102.00,1.5454
4101.00,1.5596
4100.00,1.5730
4099.00,1.5857
4098.00,1.5977
4097.00,1.6092
4096.00,1.6201
4095.00,1.6305
4094.00,1.6403
4093.00,1.6496
4092.00,1.6585
4091.00,1.6670
4090.00,1.6751
4089.00,1.6826
4088.00,1.6892
4087.00,1.6949
4086.00,1.6998
4085.00,1.7044
4084.00,1.7088
4083.00,1.7129
4082.00,1.7165
4081.00,1.7195
4080.00,1.7217
4079.00,1.7234
4078.00,1.7244
4077.00,1.7250
4076.00,1.7250
4075.00,1.7245
4074.00,1.7236
4073.00,1.7223
4072.00,1.7205
4071.00,1.7183
4070.00,1.7159
4069.00,1.7131
4068.00,1.7097
4067.00,1.7056
4066.00,1.7008
4065.00,1.6955
4064.00,1.6898
4063.00,1.6837
4062.00,1.6769
4061.00,1.6696
4060.00,1.6617
4059.00,1.6530
4058.00,1.6438
4057.00,1.6341
4056.00,1.6239
4055.00,1.6131
4054.00,1.6018
4053.00,1.5897
4052.00,1.5770
4051.00,1.5637
4050.00,1.5498
4049.00,1.5354
4048.00,1.5204
4047.00,1.5047
4046.00,1.4884
4045.00,1.4713
4044.00,1.4534
4043.00,1.4349
4042.00,1.4157
4041.00,1.3960
4040.00,1.3756
4039.00,1.3547
4038.00,1.3331
4037.00,1.3109
4036.00,1.2883
4035.00,1.2652
4034.00,1.2416
4033.00,1.2175
4032.00,1.1931
4031.00,1.1684
4030.00,1.1436
4029.00,1.1190
4028.00,1.0947
4027.00,1.0709
4026.00,1.0476
4025.00,1.0251
4024.00,1.0034
4023.00,0.9828
4022.00,0.9634
4021.00,0.9453
4020.00,0.9288
4019.00,0.9138
4018.00,0.9004
4017.00,0.8888
4016.00,0.8789
4015.00,0.8710
4014.00,0.8649
4013.00,0.8609
4012.00,0.8589
4011.00,0.8589
4010.00,0.8610
4009.00,0.8652
4008.00,0.8713
4007.00,0.8792
4006.00,0.8888
4005.00,0.9001
4004.00,0.9131
4003.00,0.9275
4002.00,0.9433
4001.00,0.9604
4000.00,0.9785
3999.00,0.9977
3998.00,1.0177
3997.00,1.0386
3996.00,1.0602
3995.00,1.0823
3994.00,1.1049
3993.00,1.1278
3992.00,1.1508
3991.00,1.1740
3990.00,1.1973
3989.00,1.2206
3988.00,1.2439
3987.00,1.2671
3986.00,1.2901
3985.00,1.3127
3984.00,1.3349
3983.00,1.3568
3982.00,1.3784
3981.00,1.3996
3980.00,1.4204
3979.00,1.4407
3978.00,1.4605
3977.00,1.4795
3976.00,1.4979
3975.00,1.5157
3974.00,1.5330
3973.00,1.5500
3972.00,1.5665
3971.00,1.5825
3970.00,1.5977
3969.00,1.6122
3968.00,1.6261
3967.00,1.6394
3966.00,1.6521
3965.00,1.6641
3964.00,1.6753
3963.00,1.6856
3962.00,1.6951
3961.00,1.7040
3960.00,1.7127
3959.00,1.7212
3958.00,1.7295
3957.00,1.7371
3956.00,1.7439
3955.00,1.7499
3954.00,1.7554
3953.00,1.7606
3952.00,1.7654
3951.00,1.7696
3950.00,1.7732
3949.00,1.7762
3948.00,1.7785
3947.00,1.7802
3946.00,1.7814
3945.00,1.7822
3944.00,1.7827
3943.00,1.7829
3942.00,1.7824
3941.00,1.7813
3940.00,1.7796
3939.00,1.7777
3938.00,1.7758
3937.00,1.7737
3936.00,1.7709
3935.00,1.7671
3934.00,1.7623
3933.00,1.7569
3932.00,1.7512
3931.00,1.7451
3930.00,1.7385
3929.00,1.7312
3928.00,1.7233
3927.00,1.7151
3926.00,1.7067
3925.00,1.6977
3924.00,1.6879
3923.00,1.6773
3922.00,1.6663
3921.00,1.6547
3920.00,1.6423
3919.00,1.6289
3918.00,1.6143
3917.00,1.5986
3916.00,1.5820
3915.00,1.5650
3914.00,1.5476
3913.00,1.5296
3912.00,1.5110
3911.00,1.4917
3910.00,1.4719
3909.00,1.4515
3908.00,1.4304
3907.00,1.4086
3906.00,1.3858
3905.00,1.3616
3904.00,1.3354
3903.00,1.3073
3902.00,1.2781
3901.00,1.2486
3900.00,1.2191
3899.00,1.1898
3898.00,1.1611
3897.00,1.1333
3896.00,1.1066
3895.00,1.0807
3894.00,1.0556
3893.00,1.0313
3892.00,1.0074
3891.00,0.9837
3890.00,0.9606
3889.00,0.9394
3888.00,0.9207
3887.00,0.9042
3886.00,0.8890
3885.00,0.8747
3884.00,0.8623
3883.00,0.8529
3882.00,0.8473
3881.00,0.8449
3880.00,0.8445
3879.00,0.8454
3878.00,0.8480
3877.00,0.8532
3876.00,0.8618
3875.00,0.8736
3874.00,0.8871
3873.00,0.9015
3872.00,0.9172
3871.00,0.9351
3870.00,0.9551
3869.00,0.9759
3868.00,0.9966
3867.00,1.0173
3866.00,1.0391
3865.00,1.0630
3864.00,1.0887
3863.00,1.1150
3862.00,1.1412
3861.00,1.1674
3860.00,1.1939
3859.00,1.2206
3858.00,1.2460
3857.00,1.2683
3856.00,1.2881
3855.00,1.3085
3854.00,1.3315
3853.00,1.3571
3852.00,1.3843
3851.00,1.4114
3850.00,1.4366
3849.00,1.4595
3848.00,1.4803
3847.00,1.4994
3846.00,1.5176
3845.00,1.5355
3844.00,1.5532
3843.00,1.5706
3842.00,1.5874
3841.00,1.6037
3840.00,1.6198
3839.00,1.6358
3838.00,1.6516
3837.00,1.6669
3836.00,1.6813
3835.00,1.6947
3834.00,1.7075
3833.00,1.7198
3832.00,1.7313
3831.00,1.7417
3830.00,1.7510
3829.00,1.7598
3828.00,1.7684
3827.00,1.7769
3826.00,1.7843
3825.00,1.7897
3824.00,1.7933
3823.00,1.7973
3822.00,1.8027
3821.00,1.8080
3820.00,1.8121
3819.00,1.8152
3818.00,1.8183
3817.00,1.8215
3816.00,1.8236
3815.00,1.8244
3814.00,1.8246
3813.00,1.8246
3812.00,1.8243
3811.00,1.8231
3810.00,1.8208
3809.00,1.8179
3808.00,1.8144
3807.00,1.8100
3806.00,1.8044
3805.00,1.7980
3804.00,1.7918
3803.00,1.7867
3802.00,1.7813
3801.00,1.7740
3800.00,1.7653
3799.00,1.7570
3798.00,1.7499
3797.00,1.7434
3796.00,1.7362
3795.00,1.7280
3794.00,1.7190
3793.00,1.7092
3792.00,1.6989
3791.00,1.6880
3790.00,1.6764
3789.00,1.6636
3788.00,1.6497
3787.00,1.6352
3786.00,1.6203
3785.00,1.6049
3784.00,1.5884
3783.00,1.5708
3782.00,1.5526
3781.00,1.5338
3780.00,1.5144
3779.00,1.4937
3778.00,1.4718
3777.00,1.4490
3776.00,1.4255
3775.00,1.4011
3774.00,1.3757
3773.00,1.3495
3772.00,1.3227
3771.00,1.2953
3770.00,1.2666
3769.00,1.2367
3768.00,1.2066
3767.00,1.1772
3766.00,1.1483
3765.00,1.1194
3764.00,1.0906
3763.00,1.0628
3762.00,1.0365
3761.00,1.0115
3760.00,0.9878
3759.00,0.9655
3758.00,0.9451
3757.00,0.9268
3756.00,0.9110
3755.00,0.8974
3754.00,0.8862
3753.00,0.8775
3752.00,0.8716
3751.00,0.8683
3750.00,0.8674
3749.00,0.8689
3748.00,0.8729
3747.00,0.8796
3746.00,0.8899
3745.00,0.9035
3744.00,0.9190
3743.00,0.9355
3742.00,0.9531
3741.00,0.9725
3740.00,0.9941
3739.00,1.0172
3738.00,1.0412
3737.00,1.0664
3736.00,1.0930
3735.00,1.1209
3734.00,1.1496
3733.00,1.1792
3732.00,1.2097
3731.00,1.2403
3730.00,1.2699
3729.00,1.2980
3728.00,1.3248
3727.00,1.3509
3726.00,1.3765
3725.00,1.4020
3724.00,1.4278
3723.00,1.4536
3722.00,1.4791
3721.00,1.5043
3720.00,1.5291
3719.00,1.5534
3718.00,1.5767
3717.00,1.5985
3716.00,1.6182
3715.00,1.6354
3714.00,1.6514
3713.00,1.6679
3712.00,1.6858
3711.00,1.7044
3710.00,1.7225
3709.00,1.7399
3708.00,1.7564
3707.00,1.7716
3706.00,1.7851
3705.00,1.7973
3704.00,1.8088
3703.00,1.8201
3702.00,1.8309
3701.00,1.8411
3700.00,1.8504
3699.00,1.8588
3698.00,1.8664
3697.00,1.8732
3696.00,1.8792
3695.00,1.8841
3694.00,1.8880
3693.00,1.8917
3692.00,1.8955
3691.00,1.8995
3690.00,1.9032
3689.00,1.9063
3688.00,1.9085
3687.00,1.9099
3686.00,1.9105
3685.00,1.9106
3684.00,1.9102
3683.00,1.9091
3682.00,1.9078
3681.00,1.9066
3680.00,1.9051
3679.00,1.9021
3678.00,1.8981
3677.00,1.8946
3676.00,1.8909
3675.00,1.8853
3674.00,1.8780
3673.00,1.8705
3672.00,1.8639
3671.00,1.8576
3670.00,1.8502
3669.00,1.8414
3668.00,1.8320
3667.00,1.8228
3666.00,1.8137
3665.00,1.8043
3664.00,1.7944
3663.00,1.7838
3662.00,1.7727
3661.00,1.7610
3660.00,1.7486
3659.00,1.7351
3658.00,1.7207
3657.00,1.7052
3656.00,1.6887
3655.00,1.6715
3654.00,1.6541
3653.00,1.6368
3652.00,1.6197
3651.00,1.6027
3650.00,1.5852
3649.00,1.5668
3648.00,1.5476
3647.00,1.5285
3646.00,1.5102
3645.00,1.4933
3644.00,1.4776
3643.00,1.4625
3642.00,1.4478
3641.00,1.4332
3640.00,1.4192
3639.00,1.4057
3638.00,1.3927
3637.00,1.3804
3636.00,1.3694
3635.00,1.3601
3634.00,1.3523
3633.00,1.3456
3632.00,1.3393
3631.00,1.3339
3630.00,1.3296
3629.00,1.3252
3628.00,1.3206
3627.00,1.3171
3626.00,1.3160
3625.00,1.3178
3624.00,1.3216
3623.00,1.3266
3622.00,1.3323
3621.00,1.3391
3620.00,1.3469
3619.00,1.3553
3618.00,1.3640
3617.00,1.3733
3616.00,1.3837
3615.00,1.3957
3614.00,1.4090
3613.00,1.4229
3612.00,1.4367
3611.00,1.4500
3610.00,1.4634
3609.00,1.4776
3608.00,1.4926
3607.00,1.5078
3606.00,1.5229
3605.00,1.5378
3604.00,1.5528
3603.00,1.5681
3602.00,1.5840
3601.00,1.6003
3600.00,1.6169
3599.00,1.6333
3598.00,1.6493
3597.00,1.6650
3596.00,1.6808
3595.00,1.6969
3594.00,1.7132
3593.00,1.7295
3592.00,1.7450
3591.00,1.7593
3590.00,1.7724
3589.00,1.7853
3588.00,1.7983
3587.00,1.8114
3586.00,1.8246
3585.00,1.8379
3584.00,1.8512
3583.00,1.8640
3582.00,1.8759
3581.00,1.8870
3580.00,1.8978
3579.00,1.9085
3578.00,1.9194
3577.00,1.9305
3576.00,1.9415
3575.00,1.9521
3574.00,1.9622
3573.00,1.9722
3572.00,1.9820
3571.00,1.9909
3570.00,1.9986
3569.00,2.0054
3568.00,2.0116
3567.00,2.0169
3566.00,2.0217
3565.00,2.0266
3564.00,2.0320
3563.00,2.0376
3562.00,2.0431
3561.00,2.0482
3560.00,2.0528
3559.00,2.0566
3558.00,2.0596
3557.00,2.0622
3556.00,2.0644
3555.00,2.0662
3554.00,2.0678
3553.00,2.0697
3552.00,2.0716
3551.00,2.0729
3550.00,2.0733
3549.00,2.0735
3548.00,2.0738
3547.00,2.0740
3546.00,2.0736
3545.00,2.0725
3544.00,2.0707
3543.00,2.0683
3542.00,2.0653
3541.00,2.0622
3540.00,2.0592
3539.00,2.0558
3538.00,2.0522
3537.00,2.0482
3536.00,2.0439
3535.00,2.0391
3534.00,2.0339
3533.00,2.0285
3532.00,2.0229
3531.00,2.0172
3530.00,2.0117
3529.00,2.0063
3528.00,2.0005
3527.00,1.9938
3526.00,1.9862
3525.00,1.9782
3524.00,1.9703
3523.00,1.9623
3522.00,1.9542
3521.00,1.9460
3520.00,1.9375
3519.00,1.9284
3518.00,1.9190
3517.00,1.9094
3516.00,1.8997
3515.00,1.8899
3514.00,1.8798
3513.00,1.8693
3512.00,1.8584
3511.00,1.8471
3510.00,1.8356
3509.00,1.8242
3508.00,1.8129
3507.00,1.8014
3506.00,1.7896
3505.00,1.7776
3504.00,1.7656
3503.00,1.7533
3502.00,1.7410
3501.00,1.7289
3500.00,1.7173
3499.00,1.7059
3498.00,1.6948
3497.00,1.6838
3496.00,1.6731
3495.00,1.6627
3494.00,1.6527
3493.00,1.6433
3492.00,1.6344
3491.00,1.6260
3490.00,1.6180
3489.00,1.6108
3488.00,1.6042
3487.00,1.5982
3486.00,1.5930
3485.00,1.5887
3484.00,1.5855
3483.00,1.5833
3482.00,1.5819
3481.00,1.5812
3480.00,1.5813
3479.00,1.5823
3478.00,1.5845
3477.00,1.5878
3476.00,1.5921
3475.00,1.5972
3474.00,1.6028
3473.00,1.6090
3472.00,1.6158
3471.00,1.6234
3470.00,1.6319
3469.00,1.6410
3468.00,1.6506
3467.00,1.6606
3466.00,1.6711
3465.00,1.6824
3464.00,1.6943
3463.00,1.7068
3462.00,1.7194
3461.00,1.7322
3460.00,1.7452
3459.00,1.7584
3458.00,1.7717
3457.00,1.7852
3456.00,1.7987
3455.00,1.8120
3454.00,1.8252
3453.00,1.8385
3452.00,1.8517
3451.00,1.8646
3450.00,1.8773
3449.00,1.8898
3448.00,1.9023
3447.00,1.9146
3446.00,1.9266
3445.00,1.9385
3444.00,1.9503
3443.00,1.9617
3442.00,1.9728
3441.00,1.9840
3440.00,1.9952
3439.00,2.0062
3438.00,2.0166
3437.00,2.0262
3436.00,2.0349
3435.00,2.0426
3434.00,2.0499
3433.00,2.0573
3432.00,2.0650
3431.00,2.0726
3430.00,2.0800
3429.00,2.0872
3428.00,2.0939
3427.00,2.0999
3426.00,2.1053
3425.00,2.1102
3424.00,2.1149
3423.00,2.1190
3422.00,2.1226
3421.00,2.1259
3420.00,2.1292
3419.00,2.1323
3418.00,2.1352
3417.00,2.1375
3416.00,2.1393
3415.00,2.1406
3414.00,2.1419
3413.00,2.1439
3412.00,2.1461
3411.00,2.1480
3410.00,2.1487
3409.00,2.1483
3408.00,2.1470
3407.00,2.1451
3406.00,2.1427
3405.00,2.1401
3404.00,2.1375
3403.00,2.1349
3402.00,2.1319
3401.00,2.1285
3400.00,2.1243
3399.00,2.1191
3398.00,2.1131
3397.00,2.1068
3396.00,2.1002
3395.00,2.0932
3394.00,2.0856
3393.00,2.0773
3392.00,2.0682
3391.00,2.0583
3390.00,2.0481
3389.00,2.0377
3388.00,2.0274
3387.00,2.0165
3386.00,2.0051
3385.00,1.9928
3384.00,1.9797
3383.00,1.9661
3382.00,1.9522
3381.00,1.9382
3380.00,1.9241
3379.00,1.9094
3378.00,1.8941
3377.00,1.8782
3376.00,1.8619
3375.00,1.8448
3374.00,1.8269
3373.00,1.8083
3372.00,1.7893
3371.00,1.7701
3370.00,1.7509
3369.00,1.7317
3368.00,1.7124
3367.00,1.6930
3366.00,1.6736
3365.00,1.6544
3364.00,1.6354
3363.00,1.6165
3362.00,1.5978
3361.00,1.5797
3360.00,1.5622
3359.00,1.5455
3358.00,1.5295
3357.00,1.5144
3356.00,1.5003
3355.00,1.4874
3354.00,1.4758
3353.00,1.4657
3352.00,1.4571
3351.00,1.4498
3350.00,1.4440
3349.00,1.4398
3348.00,1.4374
3347.00,1.4368
3346.00,1.4378
3345.00,1.4404
3344.00,1.4444
3343.00,1.4497
3342.00,1.4566
3341.00,1.4649
3340.00,1.4748
3339.00,1.4860
3338.00,1.4981
3337.00,1.5112
3336.00,1.5252
3335.00,1.5400
3334.00,1.5557
3333.00,1.5722
3332.00,1.5892
3331.00,1.6067
3330.00,1.6246
3329.00,1.6428
3328.00,1.6612
3327.00,1.6796
3326.00,1.6980
3325.00,1.7164
3324.00,1.7349
3323.00,1.7533
3322.00,1.7716
3321.00,1.7898
3320.00,1.8080
3319.00,1.8259
3318.00,1.8434
3317.00,1.8602
3316.00,1.8766
3315.00,1.8926
3314.00,1.9082
3313.00,1.9233
3312.00,1.9377
3311.00,1.9515
3310.00,1.9650
3309.00,1.9786
3308.00,1.9922
3307.00,2.0052
3306.00,2.0171
3305.00,2.0280
3304.00,2.0383
3303.00,2.0483
3302.00,2.0582
3301.00,2.0681
3300.00,2.0776
3299.00,2.0862
3298.00,2.0937
3297.00,2.1004
3296.00,2.1068
3295.00,2.1132
3294.00,2.1196
3293.00,2.1257
3292.00,2.1312
3291.00,2.1357
3290.00,2.1392
3289.00,2.1421
3288.00,2.1448
3287.00,2.1471
3286.00,2.1490
3285.00,2.1505
3284.00,2.1517
3283.00,2.1523
3282.00,2.1525
3281.00,2.1524
3280.00,2.1520
3279.00,2.1512
3278.00,2.1499
3277.00,2.1482
3276.00,2.1462
3275.00,2.1439
3274.00,2.1413
3273.00,2.1381
3272.00,2.1338
3271.00,2.1282
3270.00,2.1218
3269.00,2.1156
3268.00,2.1099
3267.00,2.1040
3266.00,2.0975
3265.00,2.0904
3264.00,2.0826
3263.00,2.0741
3262.00,2.0649
3261.00,2.0552
3260.00,2.0453
3259.00,2.0351
3258.00,2.0244
3257.00,2.0131
3256.00,2.0018
3255.00,1.9904
3254.00,1.9788
3253.00,1.9664
3252.00,1.9531
3251.00,1.9391
3250.00,1.9247
3249.00,1.9098
3248.00,1.8943
3247.00,1.8781
3246.00,1.8616
3245.00,1.8451
3244.00,1.8285
3243.00,1.8119
3242.00,1.7950
3241.00,1.7780
3240.00,1.7608
3239.00,1.7434
3238.00,1.7260
3237.00,1.7089
3236.00,1.6920
3235.00,1.6753
3234.00,1.6587
3233.00,1.6424
3232.00,1.6268
3231.00,1.6118
3230.00,1.5978
3229.00,1.5848
3228.00,1.5726
3227.00,1.5614
3226.00,1.5511
3225.00,1.5423
3224.00,1.5348
3223.00,1.5287
3222.00,1.5239
3221.00,1.5205
3220.00,1.5186
3219.00,1.5182
3218.00,1.5192
3217.00,1.5216
3216.00,1.5256
3215.00,1.5310
3214.00,1.5378
3213.00,1.5458
3212.00,1.5552
3211.00,1.5657
3210.00,1.5773
3209.00,1.5899
3208.00,1.6033
3207.00,1.6175
3206.00,1.6323
3205.00,1.6480
3204.00,1.6644
3203.00,1.6811
3202.00,1.6981
3201.00,1.7151
3200.00,1.7322
3199.00,1.7496
3198.00,1.7674
3197.00,1.7854
3196.00,1.8036
3195.00,1.8217
3194.00,1.8396
3193.00,1.8573
3192.00,1.8747
3191.00,1.8918
3190.00,1.9088
3189.00,1.9256
3188.00,1.9419
3187.00,1.9575
3186.00,1.9723
3185.00,1.9866
3184.00,2.0008
3183.00,2.0147
3182.00,2.0283
3181.00,2.0416
3180.00,2.0546
3179.00,2.0674
3178.00,2.0796
3177.00,2.0910
3176.00,2.1014
3175.00,2.1107
3174.00,2.1194
3173.00,2.1278
3172.00,2.1359
3171.00,2.1437
3170.00,2.1510
3169.00,2.1579
3168.00,2.1642
3167.00,2.1696
3166.00,2.1743
3165.00,2.1786
3164.00,2.1830
3163.00,2.1874
3162.00,2.1916
3161.00,2.1954
3160.00,2.1985
3159.00,2.2010
3158.00,2.2036
3157.00,2.2067
3156.00,2.2100
3155.00,2.2128
3154.00,2.2146
3153.00,2.2156
3152.00,2.2161
3151.00,2.2160
3150.00,2.2152
3149.00,2.2136
3148.00,2.2115
3147.00,2.2091
3146.00,2.2064
3145.00,2.2032
3144.00,2.1993
3143.00,2.1948
3142.00,2.1901
3141.00,2.1850
3140.00,2.1792
3139.00,2.1726
3138.00,2.1652
3137.00,2.1578
3136.00,2.1504
3135.00,2.1428
3134.00,2.1344
3133.00,2.1251
3132.00,2.1148
3131.00,2.1038
3130.00,2.0922
3129.00,2.0804
3128.00,2.0686
3127.00,2.0566
3126.00,2.0437
3125.00,2.0298
3124.00,2.0150
3123.00,1.9996
3122.00,1.9838
3121.00,1.9677
3120.00,1.9510
3119.00,1.9336
3118.00,1.9158
3117.00,1.8976
3116.00,1.8789
3115.00,1.8599
3114.00,1.8407
3113.00,1.8215
3112.00,1.8022
3111.00,1.7828
3110.00,1.7633
3109.00,1.7440
3108.00,1.7248
3107.00,1.7061
3106.00,1.6880
3105.00,1.6705
3104.00,1.6540
3103.00,1.6385
3102.00,1.6242
3101.00,1.6110
3100.00,1.5991
3099.00,1.5887
3098.00,1.5800
3097.00,1.5733
3096.00,1.5684
3095.00,1.5653
3094.00,1.5640
3093.00,1.5644
3092.00,1.5667
3091.00,1.5708
3090.00,1.5767
3089.00,1.5846
3088.00,1.5943
3087.00,1.6057
3086.00,1.6185
3085.00,1.6327
3084.00,1.6483
3083.00,1.6651
3082.00,1.6828
3081.00,1.7012
3080.00,1.7201
3079.00,1.7396
3078.00,1.7596
3077.00,1.7803
3076.00,1.8015
3075.00,1.8229
3074.00,1.8444
3073.00,1.8660
3072.00,1.8876
3071.00,1.9091
3070.00,1.9304
3069.00,1.9512
3068.00,1.9714
3067.00,1.9908
3066.00,2.0097
3065.00,2.0281
3064.00,2.0461
3063.00,2.0639
3062.00,2.0814
3061.00,2.0982
3060.00,2.1139
3059.00,2.1285
3058.00,2.1422
3057.00,2.1555
3056.00,2.1687
3055.00,2.1812
3054.00,2.1930
3053.00,2.2045
3052.00,2.2157
3051.00,2.2264
3050.00,2.2358
3049.00,2.2438
3048.00,2.2510
3047.00,2.2578
3046.00,2.2643
3045.00,2.2699
3044.00,2.2744
3043.00,2.2778
3042.00,2.2809
3041.00,2.2843
3040.00,2.2881
3039.00,2.2916
3038.00,2.2941
3037.00,2.2952
3036.00,2.2950
3035.00,2.2937
3034.00,2.2915
3033.00,2.2882
3032.00,2.2842
3031.00,2.2802
3030.00,2.2765
3029.00,2.2726
3028.00,2.2676
3027.00,2.2612
3026.00,2.2536
3025.00,2.2451
3024.00,2.2358
3023.00,2.2255
3022.00,2.2140
3021.00,2.2015
3020.00,2.1877
3019.00,2.1730
3018.00,2.1573
3017.00,2.1404
3016.00,2.1225
3015.00,2.1037
3014.00,2.0845
3013.00,2.0645
3012.00,2.0435
3011.00,2.0211
3010.00,1.9979
3009.00,1.9743
3008.00,1.9508
3007.00,1.9279
3006.00,1.9061
3005.00,1.8857
3004.00,1.8669
3003.00,1.8502
3002.00,1.8361
3001.00,1.8256
3000.00,1.8193
2999.00,1.8177
2998.00,1.8209
2997.00,1.8288
2996.00,1.8413
2995.00,1.8586
2994.00,1.8807
2993.00,1.9077
2992.00,1.9391
2991.00,1.9743
2990.00,2.0129
2989.00,2.0544
2988.00,2.0980
2987.00,2.1425
2986.00,2.1873
2985.00,2.2328
2984.00,2.2795
2983.00,2.3274
2982.00,2.3757
2981.00,2.4235
2980.00,2.4702
2979.00,2.5165
2978.00,2.5631
2977.00,2.6099
2976.00,2.6561
2975.00,2.7014
2974.00,2.7475
2973.00,2.7967
2972.00,2.8503
2971.00,2.9084
2970.00,2.9714
2969.00,3.0393
2968.00,3.1098
2967.00,3.1789
2966.00,3.2436
2965.00,3.3020
2964.00,3.3525
2963.00,3.3972
2962.00,3.4415
2961.00,3.4877
2960.00,3.5321
2959.00,3.5740
2958.00,3.6191
2957.00,3.6685
2956.00,3.7117
2955.00,3.7429
2954.00,3.7776
2953.00,3.8345
2952.00,3.9037
2951.00,3.9484
2950.00,3.9632
2949.00,3.9944
2948.00,4.0871
2947.00,4.2536
2946.00,4.4777
2945.00,4.6818
2944.00,4.6836
2943.00,4.5376
2942.00,4.4037
2941.00,4.3696
2940.00,4.4496
2939.00,4.6422
2938.00,4.8832
2937.00,5.2398
2936.00,4.7797
2935.00,4.3895
2934.00,4.1482
2933.00,4.0888
2932.00,4.1501
2931.00,4.2868
2930.00,4.4541
2929.00,4.5496
2928.00,4.5516
2927.00,4.5216
2926.00,4.4597
2925.00,4.3412
2924.00,4.1724
2923.00,4.0069
2922.00,3.8916
2921.00,3.8381
2920.00,3.8206
2919.00,3.7881
2918.00,3.7151
2917.00,3.6237
2916.00,3.5393
2915.00,3.4667
2914.00,3.4038
2913.00,3.3512
2912.00,3.3086
2911.00,3.2706
2910.00,3.2304
2909.00,3.1854
2908.00,3.1399
2907.00,3.1001
2906.00,3.0692
2905.00,3.0447
2904.00,3.0205
2903.00,2.9923
2902.00,2.9610
2901.00,2.9306
2900.00,2.9041
2899.00,2.8814
2898.00,2.8612
2897.00,2.8424
2896.00,2.8241
2895.00,2.8058
2894.00,2.7876
2893.00,2.7708
2892.00,2.7572
2891.00,2.7486
2890.00,2.7448
2889.00,2.7445
2888.00,2.7461
2887.00,2.7496
2886.00,2.7561
2885.00,2.7668
2884.00,2.7820
2883.00,2.8026
2882.00,2.8293
2881.00,2.8610
2880.00,2.8952
2879.00,2.9299
2878.00,2.9662
2877.00,3.0063
2876.00,3.0509
2875.00,3.0979
2874.00,3.1451
2873.00,3.1933
2872.00,3.2476
2871.00,3.3162
2870.00,3.4042
2869.00,3.5086
2868.00,3.6189
2867.00,3.7263
2866.00,3.8234
2865.00,3.8883
2864.00,3.8894
2863.00,3.8383
2862.00,3.7801
2861.00,3.7328
2860.00,3.6825
2859.00,3.6141
2858.00,3.5295
2857.00,3.4347
2856.00,3.3320
2855.00,3.2258
2854.00,3.1221
2853.00,3.0229
2852.00,2.9263
2851.00,2.8313
2850.00,2.7399
2849.00,2.6553
2848.00,2.5799
2847.00,2.5154
2846.00,2.4629
2845.00,2.4225
2844.00,2.3932
2843.00,2.3739
2842.00,2.3631
2841.00,2.3592
2840.00,2.3602
2839.00,2.3647
2838.00,2.3721
2837.00,2.3821
2836.00,2.3939
2835.00,2.4062
2834.00,2.4175
2833.00,2.4270
2832.00,2.4349
2831.00,2.4418
2830.00,2.4486
2829.00,2.4550
2828.00,2.4598
2827.00,2.4620
2826.00,2.4623
2825.00,2.4615
2824.00,2.4599
2823.00,2.4576
2822.00,2.4550
2821.00,2.4522
2820.00,2.4484
2819.00,2.4429
2818.00,2.4359
2817.00,2.4282
2816.00,2.4201
2815.00,2.4117
2814.00,2.4031
2813.00,2.3943
2812.00,2.3843
2811.00,2.3724
2810.00,2.3586
2809.00,2.3434
2808.00,2.3274
2807.00,2.3107
2806.00,2.2937
2805.00,2.2766
2804.00,2.2590
2803.00,2.2404
2802.00,2.2204
2801.00,2.1993
2800.00,2.1772
2799.00,2.1546
2798.00,2.1316
2797.00,2.1084
2796.00,2.0843
2795.00,2.0585
2794.00,2.0302
2793.00,1.9996
2792.00,1.9669
2791.00,1.9324
2790.00,1.8965
2789.00,1.8592
2788.00,1.8209
2787.00,1.7818
2786.00,1.7425
2785.00,1.7035
2784.00,1.6655
2783.00,1.6291
2782.00,1.5948
2781.00,1.5632
2780.00,1.5347
2779.00,1.5097
2778.00,1.4884
2777.00,1.4711
2776.00,1.4580
2775.00,1.4493
2774.00,1.4450
2773.00,1.4454
2772.00,1.4503
2771.00,1.4598
2770.00,1.4736
2769.00,1.4914
2768.00,1.5127
2767.00,1.5368
2766.00,1.5633
2765.00,1.5915
2764.00,1.6210
2763.00,1.6513
2762.00,1.6821
2761.00,1.7131
2760.00,1.7440
2759.00,1.7745
2758.00,1.8048
2757.00,1.8351
2756.00,1.8656
2755.00,1.8963
2754.00,1.9270
2753.00,1.9572
2752.00,1.9864
2751.00,2.0145
2750.00,2.0419
2749.00,2.0690
2748.00,2.0955
2747.00,2.1206
2746.00,2.1437
2745.00,2.1652
2744.00,2.1858
2743.00,2.2060
2742.00,2.2258
2741.00,2.2447
2740.00,2.2621
2739.00,2.2780
2738.00,2.2929
2737.00,2.3074
2736.00,2.3212
2735.00,2.3340
2734.00,2.3458
2733.00,2.3566
2732.00,2.3661
2731.00,2.3746
2730.00,2.3829
2729.00,2.3917
2728.00,2.4003
2727.00,2.4075
2726.00,2.4131
2725.00,2.4174
2724.00,2.4209
2723.00,2.4236
2722.00,2.4261
2721.00,2.4287
2720.00,2.4309
2719.00,2.4325
2718.00,2.4335
2717.00,2.4345
2716.00,2.4350
2715.00,2.4342
2714.00,2.4319
2713.00,2.4292
2712.00,2.4268
2711.00,2.4247
2710.00,2.4222
2709.00,2.4190
2708.00,2.4145
2707.00,2.4083
2706.00,2.4006
2705.00,2.3926
2704.00,2.3847
2703.00,2.3767
2702.00,2.3682
2701.00,2.3594
2700.00,2.3503
2699.00,2.3403
2698.00,2.3288
2697.00,2.3159
2696.00,2.3020
2695.00,2.2876
2694.00,2.2728
2693.00,2.2571
2692.00,2.2398
2691.00,2.2209
2690.00,2.2008
2689.00,2.1805
2688.00,2.1600
2687.00,2.1390
2686.00,2.1172
2685.00,2.0946
2684.00,2.0716
2683.00,2.0485
2682.00,2.0260
2681.00,2.0043
2680.00,1.9835
2679.00,1.9634
2678.00,1.9435
2677.00,1.9237
2676.00,1.9036
2675.00,1.8830
2674.00,1.8621
2673.00,1.8408
2672.00,1.8194
2671.00,1.7977
2670.00,1.7753
2669.00,1.7518
2668.00,1.7265
2667.00,1.6991
2666.00,1.6695
2665.00,1.6384
2664.00,1.6067
2663.00,1.5758
2662.00,1.5469
2661.00,1.5211
2660.00,1.4993
2659.00,1.4822
2658.00,1.4701
2657.00,1.4631
2656.00,1.4611
2655.00,1.4637
2654.00,1.4704
2653.00,1.4805
2652.00,1.4935
2651.00,1.5090
2650.00,1.5266
2649.00,1.5461
2648.00,1.5673
2647.00,1.5900
2646.00,1.6140
2645.00,1.6391
2644.00,1.6651
2643.00,1.6918
2642.00,1.7194
2641.00,1.7480
2640.00,1.7778
2639.00,1.8085
2638.00,1.8396
2637.00,1.8709
2636.00,1.9020
2635.00,1.9329
2634.00,1.9635
2633.00,1.9937
2632.00,2.0235
2631.00,2.0526
2630.00,2.0811
2629.00,2.1087
2628.00,2.1353
2627.00,2.1606
2626.00,2.1848
2625.00,2.2080
2624.00,2.2303
2623.00,2.2511
2622.00,2.2706
2621.00,2.2888
2620.00,2.3063
2619.00,2.3233
2618.00,2.3397
2617.00,2.3549
2616.00,2.3683
2615.00,2.3803
2614.00,2.3918
2613.00,2.4039
2612.00,2.4161
2611.00,2.4270
2610.00,2.4361
2609.00,2.4440
2608.00,2.4520
2607.00,2.4603
2606.00,2.4683
2605.00,2.4753
2604.00,2.4813
2603.00,2.4868
2602.00,2.4921
2601.00,2.4973
2600.00,2.5016
2599.00,2.5049
2598.00,2.5075
2597.00,2.5101
2596.00,2.5132
2595.00,2.5164
2594.00,2.5191
2593.00,2.5208
2592.00,2.5212
2591.00,2.5205
2590.00,2.5191
2589.00,2.5174
2588.00,2.5153
2587.00,2.5127
2586.00,2.5099
2585.00,2.5068
2584.00,2.5032
2583.00,2.4990
2582.00,2.4947
2581.00,2.4904
2580.00,2.4854
2579.00,2.4792
2578.00,2.4718
2577.00,2.4635
2576.00,2.4546
2575.00,2.4454
2574.00,2.4363
2573.00,2.4274
2572.00,2.4178
2571.00,2.4063
2570.00,2.3933
2569.00,2.3798
2568.00,2.3665
2567.00,2.3533
2566.00,2.3397
2565.00,2.3252
2564.00,2.3092
2563.00,2.2915
2562.00,2.2723
2561.00,2.2524
2560.00,2.2319
2559.00,2.2104
2558.00,2.1877
2557.00,2.1640
2556.00,2.1394
2555.00,2.1134
2554.00,2.0855
2553.00,2.0557
2552.00,2.0245
2551.00,1.9923
2550.00,1.9592
2549.00,1.9250
2548.00,1.8894
2547.00,1.8526
2546.00,1.8149
2545.00,1.7765
2544.00,1.7376
2543.00,1.6985
2542.00,1.6595
2541.00,1.6214
2540.00,1.5843
2539.00,1.5488
2538.00,1.5150
2537.00,1.4837
2536.00,1.4551
2535.00,1.4298
2534.00,1.4081
2533.00,1.3904
2532.00,1.3771
2531.00,1.3683
2530.00,1.3641
2529.00,1.3647
2528.00,1.3700
2527.00,1.3799
2526.00,1.3939
2525.00,1.4119
2524.00,1.4333
2523.00,1.4578
2522.00,1.4848
2521.00,1.5139
2520.00,1.5449
2519.00,1.5774
2518.00,1.6111
2517.00,1.6459
2516.00,1.6817
2515.00,1.7184
2514.00,1.7555
2513.00,1.7927
2512.00,1.8297
2511.00,1.8662
2510.00,1.9024
2509.00,1.9383
2508.00,1.9737
2507.00,2.0082
2506.00,2.0414
2505.00,2.0734
2504.00,2.1040
2503.00,2.1335
2502.00,2.1618
2501.00,2.1891
2500.00,2.2156
2499.00,2.2411
2498.00,2.2653
2497.00,2.2877
2496.00,2.3085
2495.00,2.3281
2494.00,2.3473
2493.00,2.3663
2492.00,2.3847
2491.00,2.4017
2490.00,2.4171
2489.00,2.4317
2488.00,2.4461
2487.00,2.4603
2486.00,2.4735
2485.00,2.4852
2484.00,2.4955
2483.00,2.5051
2482.00,2.5146
2481.00,2.5242
2480.00,2.5333
2479.00,2.5414
2478.00,2.5484
2477.00,2.5547
2476.00,2.5611
2475.00,2.5681
2474.00,2.5755
2473.00,2.5823
2472.00,2.5874
2471.00,2.5903
2470.00,2.5911
2469.00,2.5910
2468.00,2.5914
2467.00,2.5932
2466.00,2.5962
2465.00,2.5992
2464.00,2.6008
2463.00,2.6007
2462.00,2.5992
2461.00,2.5972
2460.00,2.5949
2459.00,2.5925
2458.00,2.5900
2457.00,2.5872
2456.00,2.5844
2455.00,2.5817
2454.00,2.5787
2453.00,2.5747
2452.00,2.5684
2451.00,2.5602
2450.00,2.5514
2449.00,2.5427
2448.00,2.5337
2447.00,2.5238
2446.00,2.5131
2445.00,2.5019
2444.00,2.4904
2443.00,2.4787
2442.00,2.4672
2441.00,2.4560
2440.00,2.4443
2439.00,2.4313
2438.00,2.4165
2437.00,2.4003
2436.00,2.3830
2435.00,2.3647
2434.00,2.3454
2433.00,2.3254
2432.00,2.3049
2431.00,2.2837
2430.00,2.2616
2429.00,2.2383
2428.00,2.2136
2427.00,2.1872
2426.00,2.1591
2425.00,2.1293
2424.00,2.0978
2423.00,2.0649
2422.00,2.0310
2421.00,1.9958
2420.00,1.9591
2419.00,1.9202
2418.00,1.8791
2417.00,1.8363
2416.00,1.7919
2415.00,1.7463
2414.00,1.6999
2413.00,1.6532
2412.00,1.6068
2411.00,1.5615
2410.00,1.5176
2409.00,1.4758
2408.00,1.4370
2407.00,1.4021
2406.00,1.3717
2405.00,1.3465
2404.00,1.3272
2403.00,1.3142
2402.00,1.3077
2401.00,1.3082
2400.00,1.3153
2399.00,1.3288
2398.00,1.3481
2397.00,1.3727
2396.00,1.4019
2395.00,1.4349
2394.00,1.4711
2393.00,1.5097
2392.00,1.5502
2391.00,1.5920
2390.00,1.6344
2389.00,1.6770
2388.00,1.7191
2387.00,1.7602
2386.00,1.7999
2385.00,1.8380
2384.00,1.8744
2383.00,1.9090
2382.00,1.9414
2381.00,1.9715
2380.00,1.9994
2379.00,2.0256
2378.00,2.0512
2377.00,2.0771
2376.00,2.1037
2375.00,2.1306
2374.00,2.1575
2373.00,2.1837
2372.00,2.2089
2371.00,2.2331
2370.00,2.2566
2369.00,2.2799
2368.00,2.3031
2367.00,2.3260
2366.00,2.3479
2365.00,2.3683
2364.00,2.3873
2363.00,2.4054
2362.00,2.4228
2361.00,2.4393
2360.00,2.4542
2359.00,2.4678
2358.00,2.4810
2357.00,2.4948
2356.00,2.5092
2355.00,2.5239
2354.00,2.5385
2353.00,2.5520
2352.00,2.5632
2351.00,2.5720
2350.00,2.5796
2349.00,2.5882
2348.00,2.5989
2347.00,2.6111
2346.00,2.6230
2345.00,2.6324
2344.00,2.6379
2343.00,2.6398
2342.00,2.6397
2341.00,2.6383
2340.00,2.6368
2339.00,2.6367
2338.00,2.6390
2337.00,2.6420
2336.00,2.6426
2335.00,2.6396
2334.00,2.6342
2333.00,2.6275
2332.00,2.6200
2331.00,2.6121
2330.00,2.6048
2329.00,2.5991
2328.00,2.5942
2327.00,2.5893
2326.00,2.5836
2325.00,2.5773
2324.00,2.5705
2323.00,2.5636
2322.00,2.5569
2321.00,2.5500
2320.00,2.5427
2319.00,2.5352
2318.00,2.5279
2317.00,2.5206
2316.00,2.5128
2315.00,2.5041
2314.00,2.4944
2313.00,2.4832
2312.00,2.4708
2311.00,2.4585
2310.00,2.4471
2309.00,2.4365
2308.00,2.4250
2307.00,2.4116
2306.00,2.3966
2305.00,2.3807
2304.00,2.3637
2303.00,2.3454
2302.00,2.3261
2301.00,2.3059
2300.00,2.2847
2299.00,2.2626
2298.00,2.2391
2297.00,2.2138
2296.00,2.1867
2295.00,2.1581
2294.00,2.1287
2293.00,2.0980
2292.00,2.0646
2291.00,2.0278
2290.00,1.9880
2289.00,1.9461
2288.00,1.9025
2287.00,1.8569
2286.00,1.8092
2285.00,1.7600
2284.00,1.7101
2283.00,1.6602
2282.00,1.6114
2281.00,1.5644
2280.00,1.5202
2279.00,1.4797
2278.00,1.4438
2277.00,1.4135
2276.00,1.3894
2275.00,1.3718
2274.00,1.3610
2273.00,1.3571
2272.00,1.3601
2271.00,1.3696
2270.00,1.3853
2269.00,1.4069
2268.00,1.4337
2267.00,1.4654
2266.00,1.5011
2265.00,1.5402
2264.00,1.5820
2263.00,1.6259
2262.00,1.6713
2261.00,1.7178
2260.00,1.7650
2259.00,1.8125
2258.00,1.8597
2257.00,1.9063
2256.00,1.9520
2255.00,1.9966
2254.00,2.0397
2253.00,2.0806
2252.00,2.1188
2251.00,2.1542
2250.00,2.1873
2249.00,2.2189
2248.00,2.2497
2247.00,2.2798
2246.00,2.3092
2245.00,2.3376
2244.00,2.3651
2243.00,2.3922
2242.00,2.4190
2241.00,2.4444
2240.00,2.4673
2239.00,2.4875
2238.00,2.5060
2237.00,2.5238
2236.00,2.5415
2235.00,2.5593
2234.00,2.5773
2233.00,2.5948
2232.00,2.6104
2231.00,2.6240
2230.00,2.6361
2229.00,2.6473
2228.00,2.6577
2227.00,2.6677
2226.00,2.6788
2225.00,2.6910
2224.00,2.7024
2223.00,2.7108
2222.00,2.7167
2221.00,2.7228
2220.00,2.7307
2219.00,2.7402
2218.00,2.7490
2217.00,2.7553
2216.00,2.7589
2215.00,2.7616
2214.00,2.7652
2213.00,2.7697
2212.00,2.7737
2211.00,2.7766
2210.00,2.7788
2209.00,2.7802
2208.00,2.7801
2207.00,2.7789
2206.00,2.7784
2205.00,2.7793
2204.00,2.7800
2203.00,2.7790
2202.00,2.7767
2201.00,2.7745
2200.00,2.7724
2199.00,2.7697
2198.00,2.7666
2197.00,2.7641
2196.00,2.7622
2195.00,2.7591
2194.00,2.7527
2193.00,2.7429
2192.00,2.7315
2191.00,2.7205
2190.00,2.7113
2189.00,2.7035
2188.00,2.6954
2187.00,2.6857
2186.00,2.6748
2185.00,2.6634
2184.00,2.6516
2183.00,2.6395
2182.00,2.6268
2181.00,2.6135
2180.00,2.5990
2179.00,2.5832
2178.00,2.5670
2177.00,2.5510
2176.00,2.5347
2175.00,2.5167
2174.00,2.4965
2173.00,2.4746
2172.00,2.4519
2171.00,2.4289
2170.00,2.4048
2169.00,2.3790
2168.00,2.3507
2167.00,2.3198
2166.00,2.2868
2165.00,2.2522
2164.00,2.2161
2163.00,2.1785
2162.00,2.1389
2161.00,2.0968
2160.00,2.0522
2159.00,2.0052
2158.00,1.9561
2157.00,1.9054
2156.00,1.8534
2155.00,1.8007
2154.00,1.7479
2153.00,1.6961
2152.00,1.6462
2151.00,1.5992
2150.00,1.5561
2149.00,1.5179
2148.00,1.4855
2147.00,1.4597
2146.00,1.4413
2145.00,1.4307
2144.00,1.4283
2143.00,1.4340
2142.00,1.4474
2141.00,1.4680
2140.00,1.4952
2139.00,1.5279
2138.00,1.5651
2137.00,1.6058
2136.00,1.6489
2135.00,1.6935
2134.00,1.7387
2133.00,1.7842
2132.00,1.8299
2131.00,1.8756
2130.00,1.9213
2129.00,1.9666
2128.00,2.0111
2127.00,2.0546
2126.00,2.0972
2125.00,2.1389
2124.00,2.1798
2123.00,2.2193
2122.00,2.2572
2121.00,2.2934
2120.00,2.3278
2119.00,2.3605
2118.00,2.3917
2117.00,2.4212
2116.00,2.4490
2115.00,2.4755
2114.00,2.5014
2113.00,2.5271
2112.00,2.5520
2111.00,2.5752
2110.00,2.5966
2109.00,2.6162
2108.00,2.6342
2107.00,2.6506
2106.00,2.6662
2105.00,2.6823
2104.00,2.6988
2103.00,2.7152
2102.00,2.7305
2101.00,2.7443
2100.00,2.7569
2099.00,2.7692
2098.00,2.7817
2097.00,2.7944
2096.00,2.8058
2095.00,2.8144
2094.00,2.8194
2093.00,2.8220
2092.00,2.8250
2091.00,2.8308
2090.00,2.8402
2089.00,2.8511
2088.00,2.8607
2087.00,2.8669
2086.00,2.8699
2085.00,2.8709
2084.00,2.8710
2083.00,2.8716
2082.00,2.8735
2081.00,2.8757
2080.00,2.8767
2079.00,2.8760
2078.00,2.8747
2077.00,2.8737
2076.00,2.8725
2075.00,2.8710
2074.00,2.8699
2073.00,2.8695
2072.00,2.8684
2071.00,2.8652
2070.00,2.8605
2069.00,2.8562
2068.00,2.8532
2067.00,2.8503
2066.00,2.8461
2065.00,2.8402
2064.00,2.8333
2063.00,2.8261
2062.00,2.8190
2061.00,2.8120
2060.00,2.8045
2059.00,2.7954
2058.00,2.7840
2057.00,2.7709
2056.00,2.7578
2055.00,2.7457
2054.00,2.7343
2053.00,2.7215
2052.00,2.7058
2051.00,2.6873
2050.00,2.6678
2049.00,2.6486
2048.00,2.6295
2047.00,2.6091
2046.00,2.5863
2045.00,2.5611
2044.00,2.5349
2043.00,2.5089
2042.00,2.4835
2041.00,2.4575
2040.00,2.4291
2039.00,2.3971
2038.00,2.3621
2037.00,2.3253
2036.00,2.2875
2035.00,2.2484
2034.00,2.2072
2033.00,2.1634
2032.00,2.1171
2031.00,2.0682
2030.00,2.0171
2029.00,1.9643
2028.00,1.9105
2027.00,1.8564
2026.00,1.8029
2025.00,1.7510
2024.00,1.7017
2023.00,1.6558
2022.00,1.6139
2021.00,1.5769
2020.00,1.5463
2019.00,1.5234
2018.00,1.5094
2017.00,1.5050
2016.00,1.5101
2015.00,1.5236
2014.00,1.5441
2013.00,1.5705
2012.00,1.6022
2011.00,1.6388
2010.00,1.6795
2009.00,1.7234
2008.00,1.7697
2007.00,1.8176
2006.00,1.8666
2005.00,1.9162
2004.00,1.9660
2003.00,2.0154
2002.00,2.0639
2001.00,2.1112
2000.00,2.1577
1999.00,2.2035
1998.00,2.2478
1997.00,2.2899
1996.00,2.3292
1995.00,2.3653
1994.00,2.3986
1993.00,2.4307
1992.00,2.4638
1991.00,2.4987
1990.00,2.5338
1989.00,2.5664
1988.00,2.5953
1987.00,2.6220
1986.00,2.6477
1985.00,2.6724
1984.00,2.6942
1983.00,2.7129
1982.00,2.7300
1981.00,2.7469
1980.00,2.7643
1979.00,2.7815
1978.00,2.7975
1977.00,2.8117
1976.00,2.8242
1975.00,2.8355
1974.00,2.8467
1973.00,2.8583
1972.00,2.8701
1971.00,2.8808
1970.00,2.8893
1969.00,2.8957
1968.00,2.9016
1967.00,2.9090
1966.00,2.9189
1965.00,2.9305
1964.00,2.9409
1963.00,2.9475
1962.00,2.9503
1961.00,2.9519
1960.00,2.9552
1959.00,2.9600
1958.00,2.9644
1957.00,2.9670
1956.00,2.9682
1955.00,2.9696
1954.00,2.9717
1953.00,2.9739
1952.00,2.9751
1951.00,2.9751
1950.00,2.9743
1949.00,2.9728
1948.00,2.9707
1947.00,2.9682
1946.00,2.9647
1945.00,2.9588
1944.00,2.9505
1943.00,2.9417
1942.00,2.9346
1941.00,2.9295
1940.00,2.9251
1939.00,2.9204
1938.00,2.9153
1937.00,2.9097
1936.00,2.9036
1935.00,2.8965
1934.00,2.8879
1933.00,2.8768
1932.00,2.8626
1931.00,2.8471
1930.00,2.8320
1929.00,2.8170
1928.00,2.7995
1927.00,2.7779
1926.00,2.7544
1925.00,2.7305
1924.00,2.7063
1923.00,2.6821
1922.00,2.6598
1921.00,2.6395
1920.00,2.6175
1919.00,2.5896
1918.00,2.5576
1917.00,2.5265
1916.00,2.4981
1915.00,2.4682
1914.00,2.4329
1913.00,2.3918
1912.00,2.3474
1911.00,2.3013
1910.00,2.2537
1909.00,2.2052
1908.00,2.1559
1907.00,2.1045
1906.00,2.0501
1905.00,1.9928
1904.00,1.9340
1903.00,1.8755
1902.00,1.8185
1901.00,1.7641
1900.00,1.7139
1899.00,1.6693
1898.00,1.6328
1897.00,1.6061
1896.00,1.5897
1895.00,1.5836
1894.00,1.5882
1893.00,1.6040
1892.00,1.6298
1891.00,1.6637
1890.00,1.7056
1889.00,1.7567
1888.00,1.8156
1887.00,1.8779
1886.00,1.9395
1885.00,1.9992
1884.00,2.0579
1883.00,2.1158
1882.00,2.1721
1881.00,2.2262
1880.00,2.2783
1879.00,2.3282
1878.00,2.3756
1877.00,2.4208
1876.00,2.4621
1875.00,2.4972
1874.00,2.5260
1873.00,2.5506
1872.00,2.5731
1871.00,2.5942
1870.00,2.6158
1869.00,2.6418
1868.00,2.6744
1867.00,2.7118
1866.00,2.7487
1865.00,2.7808
1864.00,2.8068
1863.00,2.8288
1862.00,2.8488
1861.00,2.8672
1860.00,2.8837
1859.00,2.8995
1858.00,2.9170
1857.00,2.9365
1856.00,2.9557
1855.00,2.9723
1854.00,2.9845
1853.00,2.9912
1852.00,2.9945
1851.00,2.9969
1850.00,2.9999
1849.00,3.0044
1848.00,3.0111
1847.00,3.0193
1846.00,3.0259
1845.00,3.0276
1844.00,3.0260
1843.00,3.0274
1842.00,3.0351
1841.00,3.0472
1840.00,3.0584
1839.00,3.0666
1838.00,3.0735
1837.00,3.0781
1836.00,3.0773
1835.00,3.0709
1834.00,3.0623
1833.00,3.0540
1832.00,3.0447
1831.00,3.0303
1830.00,3.0122
1829.00,2.9974
1828.00,2.9908
1827.00,2.9891
1826.00,2.9857
1825.00,2.9789
1824.00,2.9720
1823.00,2.9676
1822.00,2.9626
1821.00,2.9521
1820.00,2.9344
1819.00,2.9126
1818.00,2.8912
1817.00,2.8702
1816.00,2.8466
1815.00,2.8188
1814.00,2.7880
1813.00,2.7573
1812.00,2.7278
1811.00,2.7007
1810.00,2.6777
1809.00,2.6593
1808.00,2.6429
1807.00,2.6237
1806.00,2.5971
1805.00,2.5607
1804.00,2.5171
1803.00,2.4714
1802.00,2.4251
1801.00,2.3782
1800.00,2.3287
1799.00,2.2757
1798.00,2.2206
1797.00,2.1674
1796.00,2.1214
1795.00,2.0838
1794.00,2.0519
1793.00,2.0278
1792.00,2.0213
1791.00,2.0402
1790.00,2.0808
1789.00,2.1331
1788.00,2.1890
1787.00,2.2459
1786.00,2.3047
1785.00,2.3664
1784.00,2.4318
1783.00,2.4999
1782.00,2.5658
1781.00,2.6295
1780.00,2.6930
1779.00,2.7553
1778.00,2.8121
1777.00,2.8635
1776.00,2.9149
1775.00,2.9655
1774.00,3.0034
1773.00,3.0238
1772.00,3.0411
1771.00,3.0707
1770.00,3.1112
1769.00,3.1483
1768.00,3.1726
1767.00,3.1885
1766.00,3.2053
1765.00,3.2250
1764.00,3.2409
1763.00,3.2470
1762.00,3.2449
1761.00,3.2432
1760.00,3.2487
1759.00,3.2635
1758.00,3.2797
1757.00,3.2873
1756.00,3.2851
1755.00,3.2809
1754.00,3.2809
1753.00,3.2828
1752.00,3.2839
1751.00,3.2903
1750.00,3.3123
1749.00,3.3494
1748.00,3.3933
1747.00,3.4356
1746.00,3.4741
1745.00,3.5150
1744.00,3.5661
1743.00,3.6359
1742.00,3.7294
1741.00,3.8358
1740.00,3.9285
1739.00,3.9932
1738.00,4.0451
1737.00,4.1081
1736.00,4.1822
1735.00,4.2518
1734.00,4.3158
1733.00,4.3481
1732.00,4.3460
1731.00,4.3975
1730.00,4.5504
1729.00,4.8312
1728.00,4.9863
1727.00,4.7357
1726.00,4.5768
1725.00,4.5122
1724.00,4.5232
1723.00,4.6498
1722.00,4.9347
1721.00,5.2481
1720.00,5.0990
1719.00,4.9933
1718.00,5.3309
1717.00,5.0815
1716.00,4.6895
1715.00,4.6168
1714.00,4.6994
1713.00,4.9326
1712.00,4.6062
1711.00,4.2966
1710.00,4.1648
1709.00,4.1143
1708.00,4.1165
1707.00,4.1116
1706.00,4.0831
1705.00,4.1013
1704.00,4.1777
1703.00,4.2380
1702.00,4.2616
1701.00,4.2768
1700.00,4.3023
1699.00,4.4287
1698.00,4.7629
1697.00,4.6514
1696.00,4.3627
1695.00,4.3024
1694.00,4.3436
1693.00,4.3525
1692.00,4.2783
1691.00,4.1338
1690.00,3.9632
1689.00,3.8416
1688.00,3.7904
1687.00,3.7796
1686.00,3.7579
1685.00,3.6768
1684.00,3.5588
1683.00,3.4763
1682.00,3.4531
1681.00,3.4597
1680.00,3.4644
1679.00,3.4602
1678.00,3.4522
1677.00,3.4351
1676.00,3.3987
1675.00,3.3479
1674.00,3.2955
1673.00,3.2460
1672.00,3.1910
1671.00,3.1249
1670.00,3.0525
1669.00,2.9833
1668.00,2.9226
1667.00,2.8713
1666.00,2.8278
1665.00,2.7857
1664.00,2.7375
1663.00,2.6895
1662.00,2.6559
1661.00,2.6450
1660.00,2.6512
1659.00,2.6619
1658.00,2.6734
1657.00,2.6964
1656.00,2.7390
1655.00,2.7879
1654.00,2.8207
1653.00,2.8404
1652.00,2.8694
1651.00,2.9150
1650.00,2.9706
1649.00,3.0223
1648.00,3.0581
1647.00,3.0780
1646.00,3.0939
1645.00,3.1135
1644.00,3.1380
1643.00,3.1648
1642.00,3.1843
1641.00,3.1908
1640.00,3.1897
1639.00,3.1918
1638.00,3.2005
1637.00,3.2066
1636.00,3.2052
1635.00,3.2037
1634.00,3.2142
1633.00,3.2372
1632.00,3.2639
1631.00,3.2850
1630.00,3.2935
1629.00,3.2862
1628.00,3.2701
1627.00,3.2604
1626.00,3.2644
1625.00,3.2734
1624.00,3.2737
1623.00,3.2642
1622.00,3.2544
1621.00,3.2508
1620.00,3.2527
1619.00,3.2536
1618.00,3.2428
1617.00,3.2155
1616.00,3.1841
1615.00,3.1657
1614.00,3.1633
1613.00,3.1636
1612.00,3.1537
1611.00,3.1359
1610.00,3.1194
1609.00,3.1058
1608.00,3.0902
1607.00,3.0716
1606.00,3.0500
1605.00,3.0251
1604.00,2.9972
1603.00,2.9683
1602.00,2.9405
1601.00,2.9119
1600.00,2.8790
1599.00,2.8416
1598.00,2.8020
1597.00,2.7617
1596.00,2.7192
1595.00,2.6729
1594.00,2.6235
1593.00,2.5731
1592.00,2.5231
1591.00,2.4739
1590.00,2.4236
1589.00,2.3699
1588.00,2.3117
1587.00,2.2504
1586.00,2.1882
1585.00,2.1266
1584.00,2.0701
1583.00,2.0215
1582.00,1.9798
1581.00,1.9478
1580.00,1.9343
1579.00,1.9435
1578.00,1.9672
1577.00,1.9925
1576.00,2.0186
1575.00,2.0569
1574.00,2.1112
1573.00,2.1747
1572.00,2.2363
1571.00,2.2898
1570.00,2.3414
1569.00,2.4005
1568.00,2.4693
1567.00,2.5377
1566.00,2.5952
1565.00,2.6389
1564.00,2.6780
1563.00,2.7190
1562.00,2.7565
1561.00,2.7772
1560.00,2.7825
1559.00,2.7926
1558.00,2.8241
1557.00,2.8720
1556.00,2.9253
1555.00,2.9703
1554.00,2.9980
1553.00,3.0142
1552.00,3.0286
1551.00,3.0441
1550.00,3.0622
1549.00,3.0812
1548.00,3.0962
1547.00,3.1005
1546.00,3.0951
1545.00,3.0925
1544.00,3.1037
1543.00,3.1250
1542.00,3.1479
1541.00,3.1662
1540.00,3.1771
1539.00,3.1830
1538.00,3.1910
1537.00,3.2049
1536.00,3.2209
1535.00,3.2306
1534.00,3.2332
1533.00,3.2415
1532.00,3.2598
1531.00,3.2774
1530.00,3.2834
1529.00,3.2749
1528.00,3.2570
1527.00,3.2398
1526.00,3.2315
1525.00,3.2347
1524.00,3.2417
1523.00,3.2388
1522.00,3.2199
1521.00,3.1938
1520.00,3.1730
1519.00,3.1620
1518.00,3.1579
1517.00,3.1569
1516.00,3.1570
1515.00,3.1578
1514.00,3.1568
1513.00,3.1500
1512.00,3.1319
1511.00,3.1031
1510.00,3.0725
1509.00,3.0536
1508.00,3.0508
1507.00,3.0558
1506.00,3.0569
1505.00,3.0551
1504.00,3.0569
1503.00,3.0580
1502.00,3.0461
1501.00,3.0166
1500.00,2.9782
1499.00,2.9419
1498.00,2.9106
1497.00,2.8795
1496.00,2.8417
1495.00,2.7973
1494.00,2.7484
1493.00,2.6919
1492.00,2.6231
1491.00,2.5477
1490.00,2.4815
1489.00,2.4350
1488.00,2.4012
1487.00,2.3702
1486.00,2.3387
1485.00,2.3070
1484.00,2.2796
1483.00,2.2587
1482.00,2.2480
1481.00,2.2514
1480.00,2.2697
1479.00,2.2979
1478.00,2.3319
1477.00,2.3748
1476.00,2.4311
1475.00,2.5012
1474.00,2.5790
1473.00,2.6637
1472.00,2.7580
1471.00,2.8568
1470.00,2.9498
1469.00,3.0334
1468.00,3.1114
1467.00,3.1894
1466.00,3.2644
1465.00,3.3258
1464.00,3.3652
1463.00,3.3856
1462.00,3.3975
1461.00,3.4066
1460.00,3.4138
1459.00,3.4211
1458.00,3.4438
1457.00,3.5106
1456.00,3.6469
1455.00,3.8588
1454.00,4.1338
1453.00,4.4461
1452.00,4.7035
1451.00,4.7996
1450.00,4.8014
1449.00,4.6593
1448.00,4.3248
1447.00,4.0325
1446.00,3.8254
1445.00,3.6713
1444.00,3.5517
1443.00,3.4660
1442.00,3.4172
1441.00,3.4015
1440.00,3.4064
1439.00,3.4188
1438.00,3.4409
1437.00,3.4888
1436.00,3.5695
1435.00,3.6623
1434.00,3.7381
1433.00,3.7835
1432.00,3.8013
1431.00,3.8064
1430.00,3.8150
1429.00,3.8306
1428.00,3.8457
1427.00,3.8606
1426.00,3.8808
1425.00,3.9027
1424.00,3.9108
1423.00,3.9050
1422.00,3.9062
1421.00,3.9121
1420.00,3.8773
1419.00,3.7779
1418.00,3.6702
1417.00,3.5991
1416.00,3.5527
1415.00,3.5070
1414.00,3.4599
1413.00,3.4253
1412.00,3.4103
1411.00,3.4082
1410.00,3.4097
1409.00,3.4108
1408.00,3.4104
1407.00,3.4104
1406.00,3.4150
1405.00,3.4310
1404.00,3.4581
1403.00,3.4838
1402.00,3.4933
1401.00,3.4843
1400.00,3.4710
1399.00,3.4740
1398.00,3.5013
1397.00,3.5376
1396.00,3.5605
1395.00,3.5671
1394.00,3.5717
1393.00,3.5809
1392.00,3.5841
1391.00,3.5732
1390.00,3.5557
1389.00,3.5442
1388.00,3.5398
1387.00,3.5326
1386.00,3.5197
1385.00,3.5081
1384.00,3.5030
1383.00,3.5033
1382.00,3.5093
1381.00,3.5214
1380.00,3.5350
1379.00,3.5384
1378.00,3.5199
1377.00,3.4788
1376.00,3.4272
1375.00,3.3815
1374.00,3.3535
1373.00,3.3452
1372.00,3.3475
1371.00,3.3489
1370.00,3.3418
1369.00,3.3248
1368.00,3.2987
1367.00,3.2641
1366.00,3.2228
1365.00,3.1798
1364.00,3.1415
1363.00,3.1125
1362.00,3.0916
1361.00,3.0729
1360.00,3.0516
1359.00,3.0268
1358.00,3.0020
1357.00,2.9836
1356.00,2.9804
1355.00,3.0009
1354.00,3.0505
1353.00,3.1282
1352.00,3.2255
1351.00,3.3293
1350.00,3.4277
1349.00,3.5154
1348.00,3.5900
1347.00,3.6444
1346.00,3.6661
1345.00,3.6475
1344.00,3.5990
1343.00,3.5434
1342.00,3.5029
1341.00,3.4939
1340.00,3.5253
1339.00,3.5911
1338.00,3.6544
1337.00,3.6521
1336.00,3.5671
1335.00,3.4467
1334.00,3.3317
1333.00,3.2347
1332.00,3.1580
1331.00,3.1057
1330.00,3.0835
1329.00,3.0929
1328.00,3.1287
1327.00,3.1809
1326.00,3.2393
1325.00,3.2977
1324.00,3.3557
1323.00,3.4157
1322.00,3.4809
1321.00,3.5531
1320.00,3.6347
1319.00,3.7324
1318.00,3.8580
1317.00,4.0048
1316.00,4.1152
1315.00,4.1745
1314.00,4.2656
1313.00,4.3930
1312.00,4.4729
1311.00,4.5522
1310.00,4.4685
1309.00,4.2345
1308.00,4.0585
1307.00,3.9129
1306.00,3.7700
1305.00,3.6311
1304.00,3.5056
1303.00,3.3973
1302.00,3.3081
1301.00,3.2406
1300.00,3.1953
1299.00,3.1704
1298.00,3.1620
1297.00,3.1652
1296.00,3.1772
1295.00,3.1984
1294.00,3.2309
1293.00,3.2725
1292.00,3.3175
1291.00,3.3610
1290.00,3.4025
1289.00,3.4433
1288.00,3.4796
1287.00,3.5065
1286.00,3.5265
1285.00,3.5462
1284.00,3.5675
1283.00,3.5872
1282.00,3.6063
1281.00,3.6305
1280.00,3.6583
1279.00,3.6804
1278.00,3.6940
1277.00,3.7035
1276.00,3.7080
1275.00,3.7037
1274.00,3.6977
1273.00,3.7036
1272.00,3.7223
1271.00,3.7394
1270.00,3.7390
1269.00,3.7253
1268.00,3.7202
1267.00,3.7343
1266.00,3.7587
1265.00,3.7813
1264.00,3.7957
1263.00,3.8019
1262.00,3.8100
1261.00,3.8251
1260.00,3.8391
1259.00,3.8446
1258.00,3.8418
1257.00,3.8300
1256.00,3.8065
1255.00,3.7733
1254.00,3.7355
1253.00,3.6972
1252.00,3.6661
1251.00,3.6518
1250.00,3.6575
1249.00,3.6774
1248.00,3.6972
1247.00,3.6989
1246.00,3.6794
1245.00,3.6569
1244.00,3.6503
1243.00,3.6632
1242.00,3.6811
1241.00,3.6817
1240.00,3.6614
1239.00,3.6412
1238.00,3.6366
1237.00,3.6455
1236.00,3.6602
1235.00,3.6821
1234.00,3.7241
1233.00,3.7958
1232.00,3.8864
1231.00,3.9615
1230.00,4.0069
1229.00,4.0589
1228.00,4.1267
1227.00,4.2078
1226.00,4.3223
1225.00,4.4379
1224.00,4.5140
1223.00,4.6852
1222.00,5.0141
1221.00,4.5213
1220.00,4.3076
1219.00,4.3225
1218.00,4.6093
1217.00,4.7187
1216.00,4.2207
1215.00,3.9901
1214.00,3.8568
1213.00,3.7946
1212.00,3.7948
1211.00,3.8401
1210.00,3.9056
1209.00,3.9541
1208.00,3.9586
1207.00,3.9186
1206.00,3.8592
1205.00,3.8010
1204.00,3.7435
1203.00,3.6799
1202.00,3.6182
1201.00,3.5741
1200.00,3.5525
1199.00,3.5407
1198.00,3.5219
1197.00,3.4918
1196.00,3.4574
1195.00,3.4237
1194.00,3.3906
1193.00,3.3601
1192.00,3.3371
1191.00,3.3249
1190.00,3.3232
1189.00,3.3265
1188.00,3.3276
1187.00,3.3229
1186.00,3.3162
1185.00,3.3143
1184.00,3.3235
1183.00,3.3464
1182.00,3.3837
1181.00,3.4323
1180.00,3.4766
1179.00,3.4921
1178.00,3.4719
1177.00,3.4365
1176.00,3.4111
1175.00,3.4070
1174.00,3.4221
1173.00,3.4525
1172.00,3.4964
1171.00,3.5490
1170.00,3.6027
1169.00,3.6496
1168.00,3.6853
1167.00,3.7176
1166.00,3.7587
1165.00,3.7929
1164.00,3.7817
1163.00,3.7230
1162.00,3.6544
1161.00,3.6094
1160.00,3.6014
1159.00,3.6230
1158.00,3.6539
1157.00,3.6846
1156.00,3.7276
1155.00,3.8007
1154.00,3.9042
1153.00,4.0106
1152.00,4.0900
1151.00,4.1534
1150.00,4.2105
1149.00,4.2168
1148.00,4.1609
1147.00,4.0874
1146.00,4.0180
1145.00,3.9699
1144.00,3.9452
1143.00,3.9027
1142.00,3.8106
1141.00,3.7101
1140.00,3.6649
1139.00,3.7144
1138.00,3.8800
1137.00,4.1544
1136.00,4.4095
1135.00,4.4212
1134.00,4.2603
1133.00,4.1221
1132.00,4.0491
1131.00,4.0166
1130.00,3.9912
1129.00,3.9699
1128.00,3.9849
1127.00,4.0619
1126.00,4.2154
1125.00,4.3480
1124.00,4.2278
1123.00,4.0900
1122.00,4.0493
1121.00,4.0780
1120.00,4.1436
1119.00,4.1971
1118.00,4.2083
1117.00,4.2168
1116.00,4.2614
1115.00,4.1739
1114.00,3.9495
1113.00,3.8091
1112.00,3.7783
1111.00,3.8368
1110.00,3.9555
1109.00,4.1387
1108.00,4.3746
1107.00,4.3581
1106.00,4.2222
1105.00,4.1436
1104.00,4.0482
1103.00,3.9221
1102.00,3.8721
1101.00,3.9349
1100.00,4.1198
1099.00,4.3484
1098.00,4.2133
1097.00,4.0696
1096.00,4.0567
1095.00,4.0927
1094.00,4.0772
1093.00,3.9703
1092.00,3.8641
1091.00,3.8201
1090.00,3.8344
1089.00,3.8480
1088.00,3.8041
1087.00,3.7397
1086.00,3.7133
1085.00,3.7442
1084.00,3.8274
1083.00,3.9425
1082.00,4.0589
1081.00,4.1444
1080.00,4.1552
1079.00,4.0838
1078.00,3.9821
1077.00,3.8906
1076.00,3.8298
1075.00,3.8030
1074.00,3.8094
1073.00,3.8391
1072.00,3.8655
1071.00,3.8723
1070.00,3.8406
1069.00,3.7692
1068.00,3.7019
1067.00,3.6758
1066.00,3.6985
1065.00,3.7436
1064.00,3.7717
1063.00,3.7702
1062.00,3.7614
1061.00,3.7741
1060.00,3.8088
1059.00,3.8448
1058.00,3.8678
1057.00,3.8764
1056.00,3.8935
1055.00,3.9613
1054.00,4.1007
1053.00,4.2072
1052.00,4.2793
1051.00,4.4858
1050.00,4.3673
1049.00,4.0606
1048.00,3.8671
1047.00,3.7285
1046.00,3.6226
1045.00,3.5417
1044.00,3.4851
1043.00,3.4595
1042.00,3.4695
1041.00,3.5108
1040.00,3.5692
1039.00,3.6289
1038.00,3.6897
1037.00,3.7527
1036.00,3.7868
1035.00,3.7676
1034.00,3.7179
1033.00,3.6720
1032.00,3.6580
1031.00,3.6933
1030.00,3.7852
1029.00,3.9212
1028.00,4.0475
1027.00,4.0846
1026.00,4.0813
1025.00,4.1167
1024.00,4.3175
1023.00,4.7609
1022.00,4.6011
1021.00,4.7659
1020.00,4.7363
1019.00,4.2050
1018.00,4.0172
1017.00,3.9610
1016.00,3.9961
1015.00,4.1205
1014.00,4.1975
1013.00,4.1061
1012.00,4.0388
1011.00,4.0932
1010.00,4.2377
1009.00,4.2832
1008.00,4.3157
1007.00,4.5368
1006.00,4.4783
1005.00,4.3539
1004.00,4.5122
1003.00,4.4706
1002.00,4.2538
1001.00,4.2048
1000.00,4.2028
999.00,4.1447
998.00,4.0529
997.00,3.9859
996.00,3.9537
995.00,3.9582
994.00,4.0170
993.00,4.0890
992.00,4.1165
991.00,4.1153
990.00,4.0898
989.00,4.0686
988.00,4.0479
987.00,4.0040
986.00,3.9967
985.00,4.0743
984.00,4.2163
983.00,4.4074
982.00,4.8497
981.00,5.2805
980.00,5.0957
979.00,4.9541
978.00,4.3981
977.00,4.1707
976.00,4.1212
975.00,4.1742
974.00,4.2408
973.00,4.1867
972.00,4.1299
971.00,4.1581
970.00,4.3049
969.00,4.4609
968.00,4.3698
967.00,4.1693
966.00,3.9671
965.00,3.8395
964.00,3.8023
963.00,3.8347
962.00,3.9243
961.00,4.1223
960.00,4.5652
959.00,4.6938
958.00,4.3722
957.00,4.2276
956.00,4.1334
955.00,4.1018
954.00,4.1470
953.00,4.2175
952.00,4.2223
951.00,4.1454
950.00,4.0449
949.00,3.9562
948.00,3.9035
947.00,3.8839
946.00,3.8654
945.00,3.8278
944.00,3.7988
943.00,3.8175
942.00,3.9043
941.00,4.0674
940.00,4.3300
939.00,4.8107
938.00,5.0037
937.00,4.5467
936.00,4.3036
935.00,4.1578
934.00,4.0983
933.00,4.1522
932.00,4.2961
931.00,4.4578
930.00,4.6364
929.00,4.5593
928.00,4.3433
927.00,4.2189
926.00,4.1345
925.00,4.1239
924.00,4.1835
923.00,4.2137
922.00,4.1944
921.00,4.2044
920.00,4.3342
919.00,4.4474
918.00,4.2362
917.00,4.0719
916.00,4.0458
915.00,4.1036
914.00,4.1332
913.00,4.0806
912.00,4.0503
911.00,4.0818
910.00,4.1239
909.00,4.1060
908.00,4.1151
907.00,4.2663
906.00,4.3879
905.00,4.2250
904.00,4.1121
903.00,4.1224
902.00,4.2392
901.00,4.4339
900.00,4.5387
899.00,4.4765
898.00,4.4150
897.00,4.4610
896.00,4.5572
895.00,4.4771
894.00,4.2233
893.00,3.9997
892.00,3.8671
891.00,3.8056
890.00,3.7704
889.00,3.7579
888.00,3.8002
887.00,3.9164
886.00,4.0335
885.00,4.0366
884.00,4.0483
883.00,4.1420
882.00,4.1482
881.00,4.0402
880.00,4.0011
879.00,4.0770
878.00,4.1014
877.00,3.9744
876.00,3.9113
875.00,3.9945
874.00,4.3055
873.00,4.4302
872.00,4.0953
871.00,3.9835
870.00,3.9859
869.00,4.0517
868.00,4.1804
867.00,4.3081
866.00,4.3716
865.00,4.2291
864.00,4.0533
863.00,3.9695
862.00,3.9703
861.00,4.0331
860.00,4.1746
859.00,4.5529
858.00,4.6977
857.00,4.3176
856.00,4.2388
855.00,4.3823
854.00,4.6001
853.00,4.6877
852.00,4.4864
851.00,4.1040
850.00,3.9247
849.00,3.9119
848.00,3.9648
847.00,4.0159
846.00,4.0033
845.00,3.9576
844.00,3.8725
843.00,3.8614
842.00,3.9114
841.00,4.1382
840.00,4.8542
839.00,4.3207
838.00,4.1065
837.00,4.2191
836.00,4.4673
835.00,4.6595
834.00,4.4317
833.00,4.1855
832.00,4.0272
831.00,3.9554
830.00,3.9370
829.00,3.9938
828.00,4.0243
827.00,3.9298
826.00,3.8296
825.00,3.7773
824.00,3.7443
823.00,3.7105
822.00,3.7068
821.00,3.7509
820.00,3.8630
819.00,4.0335
818.00,4.3827
817.00,5.2216
816.00,4.7646
815.00,4.5709
814.00,4.3122
813.00,4.2735
812.00,4.4443
811.00,4.3397
810.00,4.3285
809.00,4.5978
808.00,5.0028
807.00,4.6648
806.00,4.3352
805.00,4.1277
804.00,4.0369
803.00,4.0767
802.00,4.1032
801.00,4.0036
800.00,3.9223
799.00,3.9285
798.00,3.9724
797.00,3.9756
796.00,3.9480
795.00,3.9437
794.00,3.9690
793.00,4.0633
792.00,4.2233
791.00,4.1915
790.00,4.0635
789.00,4.0386
788.00,4.1197
787.00,4.3293
786.00,4.3289
785.00,4.1203
784.00,4.0586
783.00,4.0706
782.00,4.0634
781.00,4.0455
780.00,4.0232
779.00,3.9476
778.00,3.8653
777.00,3.8155
776.00,3.8385
775.00,3.9417
774.00,4.2676
773.00,4.7499
772.00,4.2163
771.00,4.0583
770.00,4.0630
769.00,4.1354
768.00,4.2791
767.00,4.3026
766.00,4.3359
765.00,4.3386
764.00,4.2226
763.00,4.0838
762.00,4.0531
761.00,4.1357
760.00,4.1864
759.00,4.0840
758.00,4.0799
757.00,4.1300
756.00,4.3306
755.00,4.7744
754.00,4.1898
753.00,3.9340
752.00,3.8782
751.00,3.8825
750.00,3.9471
749.00,4.0413
748.00,4.2484
747.00,4.3876
746.00,4.1998
745.00,4.0350
744.00,3.9169
743.00,3.8407
742.00,3.8492
741.00,3.9593
740.00,4.0966
739.00,4.0402
738.00,3.9003
737.00,3.8173
736.00,3.8090
735.00,3.8580
734.00,3.9373
733.00,4.0336
732.00,4.2399
731.00,4.3677
730.00,4.0443
729.00,3.8287
728.00,3.7290
727.00,3.6992
726.00,3.7344
725.00,3.8343
724.00,4.0184
723.00,4.3667
722.00,4.9907
721.00,4.8138
720.00,4.4935
719.00,4.4488
718.00,4.4621
717.00,4.1933
716.00,4.0062
715.00,3.9696
714.00,3.9970
713.00,3.9456
712.00,3.8312
711.00,3.7835
710.00,3.9164
709.00,4.2805
708.00,4.2754
707.00,4.1770
706.00,4.4957
705.00,4.8652
704.00,4.4644
703.00,4.4558
702.00,4.4697
701.00,4.2597
700.00,4.1492
