Created as New Dataset,Sample 097 By Administrator Date Wednesday, November 24 2021
cm-1,A
7502.00,0.8622
7501.00,0.8566
7500.00,0.8507
7499.00,0.8445
7498.00,0.8383
7497.00,0.8320
7496.00,0.8255
7495.00,0.8188
7494.00,0.8122
7493.00,0.8063
7492.00,0.8012
7491.00,0.7969
7490.00,0.7933
7489.00,0.7903
7488.00,0.7879
7487.00,0.7852
7486.00,0.7819
7485.00,0.7779
7484.00,0.7742
7483.00,0.7715
7482.00,0.7698
7481.00,0.7690
7480.00,0.7689
7479.00,0.7696
7478.00,0.7712
7477.00,0.7735
7476.00,0.7765
7475.00,0.7801
7474.00,0.7843
7473.00,0.7889
7472.00,0.7937
7471.00,0.7988
7470.00,0.8039
7469.00,0.8091
7468.00,0.8144
7467.00,0.8200
7466.00,0.8260
7465.00,0.8323
7464.00,0.8388
7463.00,0.8455
7462.00,0.8528
7461.00,0.8606
7460.00,0.8688
7459.00,0.8770
7458.00,0.8851
7457.00,0.8935
7456.00,0.9028
7455.00,0.9130
7454.00,0.9233
7453.00,0.9329
7452.00,0.9418
7451.00,0.9507
7450.00,0.9599
7449.00,0.9691
7448.00,0.9779
7447.00,0.9861
7446.00,0.9944
7445.00,1.0033
7444.00,1.0126
7443.00,1.0221
7442.00,1.0312
7441.00,1.0399
7440.00,1.0481
7439.00,1.0556
7438.00,1.0627
7437.00,1.0696
7436.00,1.0767
7435.00,1.0840
7434.00,1.0914
7433.00,1.0985
7432.00,1.1051
7431.00,1.1116
7430.00,1.1183
7429.00,1.1250
7428.00,1.1314
7427.00,1.1373
7426.00,1.1432
7425.00,1.1493
7424.00,1.1551
7423.00,1.1598
7422.00,1.1634
7421.00,1.1665
7420.00,1.1695
7419.00,1.1721
7418.00,1.1738
7417.00,1.1750
7416.00,1.1759
7415.00,1.1762
7414.00,1.1756
7413.00,1.1740
7412.00,1.1721
7411.00,1.1705
7410.00,1.1693
7409.00,1.1681
7408.00,1.1668
7407.00,1.1658
7406.00,1.1652
7405.00,1.1645
7404.00,1.1631
7403.00,1.1608
7402.00,1.1577
7401.00,1.1540
7400.00,1.1497
7399.00,1.1446
7398.00,1.1390
7397.00,1.1332
7396.00,1.1274
7395.00,1.1214
7394.00,1.1152
7393.00,1.1088
7392.00,1.1021
7391.00,1.0951
7390.00,1.0878
7389.00,1.0802
7388.00,1.0726
7387.00,1.0648
7386.00,1.0567
7385.00,1.0483
7384.00,1.0399
7383.00,1.0315
7382.00,1.0233
7381.00,1.0150
7380.00,1.0061
7379.00,0.9970
7378.00,0.9879
7377.00,0.9790
7376.00,0.9702
7375.00,0.9609
7374.00,0.9511
7373.00,0.9411
7372.00,0.9315
7371.00,0.9224
7370.00,0.9137
7369.00,0.9049
7368.00,0.8959
7367.00,0.8869
7366.00,0.8784
7365.00,0.8703
7364.00,0.8623
7363.00,0.8542
7362.00,0.8463
7361.00,0.8389
7360.00,0.8325
7359.00,0.8267
7358.00,0.8213
7357.00,0.8161
7356.00,0.8110
7355.00,0.8062
7354.00,0.8016
7353.00,0.7976
7352.00,0.7941
7351.00,0.7909
7350.00,0.7883
7349.00,0.7864
7348.00,0.7857
7347.00,0.7858
7346.00,0.7861
7345.00,0.7864
7344.00,0.7870
7343.00,0.7885
7342.00,0.7910
7341.00,0.7941
7340.00,0.7977
7339.00,0.8017
7338.00,0.8058
7337.00,0.8101
7336.00,0.8144
7335.00,0.8191
7334.00,0.8240
7333.00,0.8294
7332.00,0.8353
7331.00,0.8418
7330.00,0.8488
7329.00,0.8563
7328.00,0.8640
7327.00,0.8719
7326.00,0.8799
7325.00,0.8877
7324.00,0.8956
7323.00,0.9039
7322.00,0.9126
7321.00,0.9214
7320.00,0.9301
7319.00,0.9385
7318.00,0.9469
7317.00,0.9555
7316.00,0.9642
7315.00,0.9729
7314.00,0.9814
7313.00,0.9898
7312.00,0.9983
7311.00,1.0068
7310.00,1.0149
7309.00,1.0222
7308.00,1.0290
7307.00,1.0357
7306.00,1.0432
7305.00,1.0514
7304.00,1.0596
7303.00,1.0674
7302.00,1.0748
7301.00,1.0820
7300.00,1.0887
7299.00,1.0948
7298.00,1.0998
7297.00,1.1041
7296.00,1.1081
7295.00,1.1120
7294.00,1.1158
7293.00,1.1190
7292.00,1.1217
7291.00,1.1239
7290.00,1.1256
7289.00,1.1270
7288.00,1.1281
7287.00,1.1292
7286.00,1.1307
7285.00,1.1324
7284.00,1.1341
7283.00,1.1349
7282.00,1.1347
7281.00,1.1339
7280.00,1.1330
7279.00,1.1322
7278.00,1.1311
7277.00,1.1296
7276.00,1.1281
7275.00,1.1268
7274.00,1.1254
7273.00,1.1237
7272.00,1.1216
7271.00,1.1195
7270.00,1.1176
7269.00,1.1154
7268.00,1.1127
7267.00,1.1095
7266.00,1.1063
7265.00,1.1030
7264.00,1.0991
7263.00,1.0946
7262.00,1.0900
7261.00,1.0861
7260.00,1.0827
7259.00,1.0794
7258.00,1.0752
7257.00,1.0699
7256.00,1.0633
7255.00,1.0555
7254.00,1.0467
7253.00,1.0375
7252.00,1.0281
7251.00,1.0191
7250.00,1.0105
7249.00,1.0021
7248.00,0.9937
7247.00,0.9853
7246.00,0.9768
7245.00,0.9683
7244.00,0.9596
7243.00,0.9506
7242.00,0.9420
7241.00,0.9340
7240.00,0.9266
7239.00,0.9191
7238.00,0.9110
7237.00,0.9025
7236.00,0.8940
7235.00,0.8856
7234.00,0.8771
7233.00,0.8686
7232.00,0.8604
7231.00,0.8527
7230.00,0.8455
7229.00,0.8388
7228.00,0.8323
7227.00,0.8260
7226.00,0.8200
7225.00,0.8142
7224.00,0.8088
7223.00,0.8039
7222.00,0.7996
7221.00,0.7958
7220.00,0.7926
7219.00,0.7898
7218.00,0.7872
7217.00,0.7848
7216.00,0.7827
7215.00,0.7812
7214.00,0.7804
7213.00,0.7806
7212.00,0.7813
7211.00,0.7825
7210.00,0.7841
7209.00,0.7863
7208.00,0.7891
7207.00,0.7921
7206.00,0.7955
7205.00,0.7995
7204.00,0.8042
7203.00,0.8097
7202.00,0.8156
7201.00,0.8220
7200.00,0.8287
7199.00,0.8356
7198.00,0.8427
7197.00,0.8500
7196.00,0.8577
7195.00,0.8657
7194.00,0.8739
7193.00,0.8822
7192.00,0.8910
7191.00,0.9002
7190.00,0.9096
7189.00,0.9189
7188.00,0.9280
7187.00,0.9371
7186.00,0.9463
7185.00,0.9554
7184.00,0.9648
7183.00,0.9745
7182.00,0.9843
7181.00,0.9938
7180.00,1.0031
7179.00,1.0123
7178.00,1.0212
7177.00,1.0299
7176.00,1.0385
7175.00,1.0474
7174.00,1.0567
7173.00,1.0660
7172.00,1.0745
7171.00,1.0825
7170.00,1.0903
7169.00,1.0984
7168.00,1.1064
7167.00,1.1141
7166.00,1.1213
7165.00,1.1282
7164.00,1.1349
7163.00,1.1411
7162.00,1.1465
7161.00,1.1510
7160.00,1.1549
7159.00,1.1589
7158.00,1.1637
7157.00,1.1691
7156.00,1.1745
7155.00,1.1790
7154.00,1.1825
7153.00,1.1854
7152.00,1.1879
7151.00,1.1901
7150.00,1.1919
7149.00,1.1933
7148.00,1.1946
7147.00,1.1957
7146.00,1.1963
7145.00,1.1961
7144.00,1.1951
7143.00,1.1935
7142.00,1.1920
7141.00,1.1904
7140.00,1.1885
7139.00,1.1858
7138.00,1.1825
7137.00,1.1789
7136.00,1.1753
7135.00,1.1717
7134.00,1.1678
7133.00,1.1636
7132.00,1.1592
7131.00,1.1543
7130.00,1.1489
7129.00,1.1430
7128.00,1.1368
7127.00,1.1304
7126.00,1.1236
7125.00,1.1163
7124.00,1.1088
7123.00,1.1014
7122.00,1.0941
7121.00,1.0864
7120.00,1.0781
7119.00,1.0694
7118.00,1.0607
7117.00,1.0518
7116.00,1.0426
7115.00,1.0328
7114.00,1.0228
7113.00,1.0129
7112.00,1.0030
7111.00,0.9932
7110.00,0.9835
7109.00,0.9740
7108.00,0.9644
7107.00,0.9546
7106.00,0.9448
7105.00,0.9354
7104.00,0.9261
7103.00,0.9168
7102.00,0.9074
7101.00,0.8982
7100.00,0.8893
7099.00,0.8806
7098.00,0.8721
7097.00,0.8637
7096.00,0.8556
7095.00,0.8480
7094.00,0.8407
7093.00,0.8338
7092.00,0.8274
7091.00,0.8215
7090.00,0.8162
7089.00,0.8113
7088.00,0.8068
7087.00,0.8025
7086.00,0.7985
7085.00,0.7947
7084.00,0.7915
7083.00,0.7890
7082.00,0.7871
7081.00,0.7860
7080.00,0.7856
7079.00,0.7859
7078.00,0.7868
7077.00,0.7883
7076.00,0.7902
7075.00,0.7925
7074.00,0.7953
7073.00,0.7986
7072.00,0.8025
7071.00,0.8069
7070.00,0.8120
7069.00,0.8176
7068.00,0.8238
7067.00,0.8302
7066.00,0.8370
7065.00,0.8440
7064.00,0.8513
7063.00,0.8588
7062.00,0.8667
7061.00,0.8750
7060.00,0.8834
7059.00,0.8919
7058.00,0.9007
7057.00,0.9097
7056.00,0.9189
7055.00,0.9280
7054.00,0.9371
7053.00,0.9465
7052.00,0.9561
7051.00,0.9659
7050.00,0.9755
7049.00,0.9850
7048.00,0.9946
7047.00,1.0043
7046.00,1.0138
7045.00,1.0230
7044.00,1.0319
7043.00,1.0408
7042.00,1.0498
7041.00,1.0586
7040.00,1.0670
7039.00,1.0748
7038.00,1.0826
7037.00,1.0908
7036.00,1.0993
7035.00,1.1073
7034.00,1.1145
7033.00,1.1216
7032.00,1.1290
7031.00,1.1361
7030.00,1.1422
7029.00,1.1471
7028.00,1.1511
7027.00,1.1547
7026.00,1.1582
7025.00,1.1618
7024.00,1.1659
7023.00,1.1704
7022.00,1.1747
7021.00,1.1787
7020.00,1.1824
7019.00,1.1858
7018.00,1.1883
7017.00,1.1896
7016.00,1.1900
7015.00,1.1902
7014.00,1.1905
7013.00,1.1907
7012.00,1.1902
7011.00,1.1892
7010.00,1.1878
7009.00,1.1863
7008.00,1.1845
7007.00,1.1822
7006.00,1.1796
7005.00,1.1771
7004.00,1.1746
7003.00,1.1719
7002.00,1.1686
7001.00,1.1646
7000.00,1.1599
6999.00,1.1547
6998.00,1.1491
6997.00,1.1435
6996.00,1.1378
6995.00,1.1316
6994.00,1.1247
6993.00,1.1176
6992.00,1.1106
6991.00,1.1039
6990.00,1.0968
6989.00,1.0891
6988.00,1.0809
6987.00,1.0724
6986.00,1.0640
6985.00,1.0554
6984.00,1.0463
6983.00,1.0370
6982.00,1.0278
6981.00,1.0188
6980.00,1.0097
6979.00,1.0005
6978.00,0.9911
6977.00,0.9817
6976.00,0.9719
6975.00,0.9617
6974.00,0.9513
6973.00,0.9409
6972.00,0.9309
6971.00,0.9211
6970.00,0.9116
6969.00,0.9023
6968.00,0.8935
6967.00,0.8848
6966.00,0.8761
6965.00,0.8674
6964.00,0.8588
6963.00,0.8506
6962.00,0.8426
6961.00,0.8349
6960.00,0.8276
6959.00,0.8209
6958.00,0.8148
6957.00,0.8091
6956.00,0.8036
6955.00,0.7984
6954.00,0.7937
6953.00,0.7897
6952.00,0.7864
6951.00,0.7837
6950.00,0.7816
6949.00,0.7799
6948.00,0.7787
6947.00,0.7782
6946.00,0.7783
6945.00,0.7791
6944.00,0.7803
6943.00,0.7819
6942.00,0.7841
6941.00,0.7867
6940.00,0.7901
6939.00,0.7940
6938.00,0.7986
6937.00,0.8036
6936.00,0.8090
6935.00,0.8147
6934.00,0.8210
6933.00,0.8280
6932.00,0.8355
6931.00,0.8433
6930.00,0.8513
6929.00,0.8597
6928.00,0.8686
6927.00,0.8777
6926.00,0.8869
6925.00,0.8959
6924.00,0.9049
6923.00,0.9140
6922.00,0.9234
6921.00,0.9332
6920.00,0.9431
6919.00,0.9532
6918.00,0.9634
6917.00,0.9736
6916.00,0.9839
6915.00,0.9941
6914.00,1.0039
6913.00,1.0136
6912.00,1.0233
6911.00,1.0331
6910.00,1.0428
6909.00,1.0522
6908.00,1.0614
6907.00,1.0705
6906.00,1.0796
6905.00,1.0884
6904.00,1.0968
6903.00,1.1050
6902.00,1.1132
6901.00,1.1215
6900.00,1.1296
6899.00,1.1373
6898.00,1.1446
6897.00,1.1511
6896.00,1.1571
6895.00,1.1626
6894.00,1.1680
6893.00,1.1732
6892.00,1.1778
6891.00,1.1820
6890.00,1.1864
6889.00,1.1913
6888.00,1.1962
6887.00,1.2005
6886.00,1.2040
6885.00,1.2068
6884.00,1.2088
6883.00,1.2099
6882.00,1.2105
6881.00,1.2110
6880.00,1.2115
6879.00,1.2117
6878.00,1.2114
6877.00,1.2108
6876.00,1.2099
6875.00,1.2083
6874.00,1.2060
6873.00,1.2032
6872.00,1.2001
6871.00,1.1969
6870.00,1.1935
6869.00,1.1903
6868.00,1.1875
6867.00,1.1846
6866.00,1.1810
6865.00,1.1765
6864.00,1.1712
6863.00,1.1655
6862.00,1.1592
6861.00,1.1521
6860.00,1.1443
6859.00,1.1364
6858.00,1.1286
6857.00,1.1207
6856.00,1.1125
6855.00,1.1040
6854.00,1.0952
6853.00,1.0863
6852.00,1.0774
6851.00,1.0685
6850.00,1.0594
6849.00,1.0502
6848.00,1.0406
6847.00,1.0307
6846.00,1.0206
6845.00,1.0102
6844.00,0.9997
6843.00,0.9892
6842.00,0.9787
6841.00,0.9685
6840.00,0.9584
6839.00,0.9483
6838.00,0.9382
6837.00,0.9282
6836.00,0.9183
6835.00,0.9086
6834.00,0.8990
6833.00,0.8894
6832.00,0.8800
6831.00,0.8709
6830.00,0.8620
6829.00,0.8534
6828.00,0.8453
6827.00,0.8376
6826.00,0.8303
6825.00,0.8235
6824.00,0.8171
6823.00,0.8112
6822.00,0.8058
6821.00,0.8009
6820.00,0.7965
6819.00,0.7926
6818.00,0.7893
6817.00,0.7866
6816.00,0.7844
6815.00,0.7828
6814.00,0.7817
6813.00,0.7811
6812.00,0.7809
6811.00,0.7814
6810.00,0.7828
6809.00,0.7850
6808.00,0.7878
6807.00,0.7910
6806.00,0.7948
6805.00,0.7991
6804.00,0.8040
6803.00,0.8093
6802.00,0.8150
6801.00,0.8212
6800.00,0.8281
6799.00,0.8354
6798.00,0.8430
6797.00,0.8510
6796.00,0.8593
6795.00,0.8678
6794.00,0.8766
6793.00,0.8858
6792.00,0.8955
6791.00,0.9054
6790.00,0.9151
6789.00,0.9248
6788.00,0.9343
6787.00,0.9439
6786.00,0.9535
6785.00,0.9633
6784.00,0.9731
6783.00,0.9831
6782.00,0.9931
6781.00,1.0030
6780.00,1.0128
6779.00,1.0225
6778.00,1.0323
6777.00,1.0423
6776.00,1.0523
6775.00,1.0618
6774.00,1.0710
6773.00,1.0801
6772.00,1.0890
6771.00,1.0976
6770.00,1.1057
6769.00,1.1134
6768.00,1.1210
6767.00,1.1286
6766.00,1.1359
6765.00,1.1428
6764.00,1.1492
6763.00,1.1554
6762.00,1.1613
6761.00,1.1671
6760.00,1.1725
6759.00,1.1775
6758.00,1.1822
6757.00,1.1865
6756.00,1.1905
6755.00,1.1942
6754.00,1.1976
6753.00,1.2003
6752.00,1.2023
6751.00,1.2035
6750.00,1.2044
6749.00,1.2052
6748.00,1.2060
6747.00,1.2065
6746.00,1.2069
6745.00,1.2069
6744.00,1.2062
6743.00,1.2045
6742.00,1.2019
6741.00,1.1990
6740.00,1.1961
6739.00,1.1932
6738.00,1.1902
6737.00,1.1873
6736.00,1.1843
6735.00,1.1807
6734.00,1.1764
6733.00,1.1715
6732.00,1.1662
6731.00,1.1605
6730.00,1.1545
6729.00,1.1480
6728.00,1.1410
6727.00,1.1336
6726.00,1.1261
6725.00,1.1184
6724.00,1.1103
6723.00,1.1020
6722.00,1.0936
6721.00,1.0853
6720.00,1.0771
6719.00,1.0683
6718.00,1.0589
6717.00,1.0494
6716.00,1.0403
6715.00,1.0314
6714.00,1.0223
6713.00,1.0127
6712.00,1.0029
6711.00,0.9929
6710.00,0.9828
6709.00,0.9726
6708.00,0.9622
6707.00,0.9519
6706.00,0.9417
6705.00,0.9317
6704.00,0.9218
6703.00,0.9118
6702.00,0.9017
6701.00,0.8917
6700.00,0.8821
6699.00,0.8730
6698.00,0.8641
6697.00,0.8553
6696.00,0.8469
6695.00,0.8387
6694.00,0.8309
6693.00,0.8235
6692.00,0.8165
6691.00,0.8099
6690.00,0.8038
6689.00,0.7982
6688.00,0.7930
6687.00,0.7884
6686.00,0.7842
6685.00,0.7806
6684.00,0.7777
6683.00,0.7754
6682.00,0.7738
6681.00,0.7727
6680.00,0.7721
6679.00,0.7720
6678.00,0.7725
6677.00,0.7737
6676.00,0.7755
6675.00,0.7779
6674.00,0.7810
6673.00,0.7847
6672.00,0.7892
6671.00,0.7944
6670.00,0.8001
6669.00,0.8062
6668.00,0.8127
6667.00,0.8195
6666.00,0.8267
6665.00,0.8341
6664.00,0.8420
6663.00,0.8503
6662.00,0.8590
6661.00,0.8682
6660.00,0.8780
6659.00,0.8879
6658.00,0.8978
6657.00,0.9077
6656.00,0.9177
6655.00,0.9279
6654.00,0.9384
6653.00,0.9490
6652.00,0.9595
6651.00,0.9702
6650.00,0.9811
6649.00,0.9918
6648.00,1.0023
6647.00,1.0124
6646.00,1.0226
6645.00,1.0328
6644.00,1.0429
6643.00,1.0529
6642.00,1.0626
6641.00,1.0722
6640.00,1.0816
6639.00,1.0908
6638.00,1.1002
6637.00,1.1096
6636.00,1.1189
6635.00,1.1278
6634.00,1.1364
6633.00,1.1446
6632.00,1.1526
6631.00,1.1601
6630.00,1.1670
6629.00,1.1737
6628.00,1.1804
6627.00,1.1871
6626.00,1.1932
6625.00,1.1983
6624.00,1.2025
6623.00,1.2063
6622.00,1.2102
6621.00,1.2138
6620.00,1.2171
6619.00,1.2202
6618.00,1.2231
6617.00,1.2257
6616.00,1.2279
6615.00,1.2295
6614.00,1.2305
6613.00,1.2310
6612.00,1.2313
6611.00,1.2313
6610.00,1.2308
6609.00,1.2298
6608.00,1.2285
6607.00,1.2271
6606.00,1.2255
6605.00,1.2234
6604.00,1.2206
6603.00,1.2173
6602.00,1.2134
6601.00,1.2088
6600.00,1.2038
6599.00,1.1989
6598.00,1.1940
6597.00,1.1889
6596.00,1.1831
6595.00,1.1767
6594.00,1.1699
6593.00,1.1626
6592.00,1.1547
6591.00,1.1465
6590.00,1.1386
6589.00,1.1307
6588.00,1.1226
6587.00,1.1136
6586.00,1.1037
6585.00,1.0934
6584.00,1.0832
6583.00,1.0732
6582.00,1.0633
6581.00,1.0533
6580.00,1.0431
6579.00,1.0328
6578.00,1.0222
6577.00,1.0112
6576.00,0.9998
6575.00,0.9884
6574.00,0.9773
6573.00,0.9665
6572.00,0.9557
6571.00,0.9448
6570.00,0.9339
6569.00,0.9231
6568.00,0.9124
6567.00,0.9020
6566.00,0.8919
6565.00,0.8822
6564.00,0.8726
6563.00,0.8631
6562.00,0.8540
6561.00,0.8455
6560.00,0.8375
6559.00,0.8298
6558.00,0.8225
6557.00,0.8155
6556.00,0.8089
6555.00,0.8026
6554.00,0.7968
6553.00,0.7917
6552.00,0.7873
6551.00,0.7837
6550.00,0.7809
6549.00,0.7788
6548.00,0.7774
6547.00,0.7766
6546.00,0.7763
6545.00,0.7767
6544.00,0.7776
6543.00,0.7791
6542.00,0.7811
6541.00,0.7838
6540.00,0.7872
6539.00,0.7913
6538.00,0.7961
6537.00,0.8016
6536.00,0.8076
6535.00,0.8142
6534.00,0.8211
6533.00,0.8285
6532.00,0.8361
6531.00,0.8441
6530.00,0.8525
6529.00,0.8612
6528.00,0.8701
6527.00,0.8793
6526.00,0.8889
6525.00,0.8988
6524.00,0.9090
6523.00,0.9195
6522.00,0.9301
6521.00,0.9406
6520.00,0.9511
6519.00,0.9615
6518.00,0.9720
6517.00,0.9826
6516.00,0.9932
6515.00,1.0039
6514.00,1.0146
6513.00,1.0251
6512.00,1.0353
6511.00,1.0451
6510.00,1.0547
6509.00,1.0643
6508.00,1.0738
6507.00,1.0832
6506.00,1.0926
6505.00,1.1022
6504.00,1.1119
6503.00,1.1212
6502.00,1.1300
6501.00,1.1383
6500.00,1.1463
6499.00,1.1539
6498.00,1.1607
6497.00,1.1668
6496.00,1.1727
6495.00,1.1785
6494.00,1.1842
6493.00,1.1896
6492.00,1.1947
6491.00,1.1996
6490.00,1.2042
6489.00,1.2083
6488.00,1.2116
6487.00,1.2144
6486.00,1.2168
6485.00,1.2190
6484.00,1.2207
6483.00,1.2218
6482.00,1.2225
6481.00,1.2232
6480.00,1.2237
6479.00,1.2239
6478.00,1.2235
6477.00,1.2226
6476.00,1.2213
6475.00,1.2196
6474.00,1.2174
6473.00,1.2149
6472.00,1.2122
6471.00,1.2094
6470.00,1.2061
6469.00,1.2021
6468.00,1.1973
6467.00,1.1920
6466.00,1.1863
6465.00,1.1805
6464.00,1.1746
6463.00,1.1689
6462.00,1.1634
6461.00,1.1576
6460.00,1.1511
6459.00,1.1438
6458.00,1.1358
6457.00,1.1274
6456.00,1.1189
6455.00,1.1107
6454.00,1.1024
6453.00,1.0941
6452.00,1.0855
6451.00,1.0765
6450.00,1.0672
6449.00,1.0576
6448.00,1.0475
6447.00,1.0371
6446.00,1.0267
6445.00,1.0163
6444.00,1.0059
6443.00,0.9950
6442.00,0.9839
6441.00,0.9728
6440.00,0.9619
6439.00,0.9510
6438.00,0.9400
6437.00,0.9292
6436.00,0.9185
6435.00,0.9081
6434.00,0.8980
6433.00,0.8880
6432.00,0.8783
6431.00,0.8688
6430.00,0.8595
6429.00,0.8505
6428.00,0.8419
6427.00,0.8336
6426.00,0.8256
6425.00,0.8180
6424.00,0.8108
6423.00,0.8041
6422.00,0.7979
6421.00,0.7923
6420.00,0.7872
6419.00,0.7827
6418.00,0.7788
6417.00,0.7757
6416.00,0.7733
6415.00,0.7715
6414.00,0.7703
6413.00,0.7697
6412.00,0.7699
6411.00,0.7708
6410.00,0.7723
6409.00,0.7744
6408.00,0.7772
6407.00,0.7807
6406.00,0.7850
6405.00,0.7899
6404.00,0.7952
6403.00,0.8010
6402.00,0.8075
6401.00,0.8146
6400.00,0.8220
6399.00,0.8298
6398.00,0.8380
6397.00,0.8466
6396.00,0.8556
6395.00,0.8650
6394.00,0.8748
6393.00,0.8852
6392.00,0.8957
6391.00,0.9063
6390.00,0.9168
6389.00,0.9273
6388.00,0.9380
6387.00,0.9489
6386.00,0.9601
6385.00,0.9715
6384.00,0.9831
6383.00,0.9945
6382.00,1.0060
6381.00,1.0175
6380.00,1.0289
6379.00,1.0400
6378.00,1.0511
6377.00,1.0621
6376.00,1.0730
6375.00,1.0834
6374.00,1.0932
6373.00,1.1027
6372.00,1.1123
6371.00,1.1218
6370.00,1.1312
6369.00,1.1404
6368.00,1.1494
6367.00,1.1581
6366.00,1.1666
6365.00,1.1748
6364.00,1.1825
6363.00,1.1899
6362.00,1.1969
6361.00,1.2037
6360.00,1.2100
6359.00,1.2161
6358.00,1.2220
6357.00,1.2276
6356.00,1.2324
6355.00,1.2364
6354.00,1.2400
6353.00,1.2434
6352.00,1.2464
6351.00,1.2488
6350.00,1.2507
6349.00,1.2525
6348.00,1.2542
6347.00,1.2554
6346.00,1.2558
6345.00,1.2556
6344.00,1.2551
6343.00,1.2542
6342.00,1.2528
6341.00,1.2513
6340.00,1.2497
6339.00,1.2477
6338.00,1.2453
6337.00,1.2425
6336.00,1.2394
6335.00,1.2356
6334.00,1.2309
6333.00,1.2258
6332.00,1.2204
6331.00,1.2149
6330.00,1.2089
6329.00,1.2023
6328.00,1.1954
6327.00,1.1882
6326.00,1.1809
6325.00,1.1733
6324.00,1.1651
6323.00,1.1564
6322.00,1.1473
6321.00,1.1379
6320.00,1.1282
6319.00,1.1185
6318.00,1.1087
6317.00,1.0989
6316.00,1.0889
6315.00,1.0785
6314.00,1.0675
6313.00,1.0561
6312.00,1.0444
6311.00,1.0326
6310.00,1.0207
6309.00,1.0091
6308.00,0.9977
6307.00,0.9865
6306.00,0.9750
6305.00,0.9634
6304.00,0.9516
6303.00,0.9397
6302.00,0.9279
6301.00,0.9164
6300.00,0.9051
6299.00,0.8940
6298.00,0.8832
6297.00,0.8729
6296.00,0.8630
6295.00,0.8535
6294.00,0.8443
6293.00,0.8356
6292.00,0.8273
6291.00,0.8194
6290.00,0.8119
6289.00,0.8050
6288.00,0.7987
6287.00,0.7931
6286.00,0.7882
6285.00,0.7839
6284.00,0.7801
6283.00,0.7770
6282.00,0.7745
6281.00,0.7727
6280.00,0.7717
6279.00,0.7715
6278.00,0.7721
6277.00,0.7735
6276.00,0.7755
6275.00,0.7781
6274.00,0.7813
6273.00,0.7851
6272.00,0.7895
6271.00,0.7946
6270.00,0.8002
6269.00,0.8065
6268.00,0.8134
6267.00,0.8208
6266.00,0.8288
6265.00,0.8374
6264.00,0.8463
6263.00,0.8556
6262.00,0.8651
6261.00,0.8749
6260.00,0.8848
6259.00,0.8951
6258.00,0.9055
6257.00,0.9162
6256.00,0.9270
6255.00,0.9382
6254.00,0.9494
6253.00,0.9606
6252.00,0.9718
6251.00,0.9829
6250.00,0.9943
6249.00,1.0057
6248.00,1.0170
6247.00,1.0283
6246.00,1.0395
6245.00,1.0505
6244.00,1.0611
6243.00,1.0713
6242.00,1.0815
6241.00,1.0918
6240.00,1.1019
6239.00,1.1117
6238.00,1.1213
6237.00,1.1307
6236.00,1.1398
6235.00,1.1483
6234.00,1.1563
6233.00,1.1638
6232.00,1.1710
6231.00,1.1781
6230.00,1.1850
6229.00,1.1916
6228.00,1.1981
6227.00,1.2043
6226.00,1.2102
6225.00,1.2155
6224.00,1.2201
6223.00,1.2244
6222.00,1.2286
6221.00,1.2326
6220.00,1.2361
6219.00,1.2392
6218.00,1.2416
6217.00,1.2434
6216.00,1.2445
6215.00,1.2453
6214.00,1.2459
6213.00,1.2461
6212.00,1.2459
6211.00,1.2453
6210.00,1.2445
6209.00,1.2433
6208.00,1.2415
6207.00,1.2394
6206.00,1.2373
6205.00,1.2351
6204.00,1.2325
6203.00,1.2293
6202.00,1.2258
6201.00,1.2222
6200.00,1.2183
6199.00,1.2137
6198.00,1.2086
6197.00,1.2031
6196.00,1.1971
6195.00,1.1906
6194.00,1.1837
6193.00,1.1763
6192.00,1.1685
6191.00,1.1604
6190.00,1.1522
6189.00,1.1438
6188.00,1.1350
6187.00,1.1259
6186.00,1.1165
6185.00,1.1071
6184.00,1.0974
6183.00,1.0874
6182.00,1.0772
6181.00,1.0667
6180.00,1.0559
6179.00,1.0447
6178.00,1.0331
6177.00,1.0214
6176.00,1.0095
6175.00,0.9976
6174.00,0.9858
6173.00,0.9743
6172.00,0.9628
6171.00,0.9513
6170.00,0.9398
6169.00,0.9283
6168.00,0.9168
6167.00,0.9055
6166.00,0.8944
6165.00,0.8837
6164.00,0.8734
6163.00,0.8634
6162.00,0.8536
6161.00,0.8442
6160.00,0.8351
6159.00,0.8263
6158.00,0.8179
6157.00,0.8101
6156.00,0.8029
6155.00,0.7962
6154.00,0.7902
6153.00,0.7848
6152.00,0.7800
6151.00,0.7759
6150.00,0.7726
6149.00,0.7701
6148.00,0.7684
6147.00,0.7675
6146.00,0.7674
6145.00,0.7680
6144.00,0.7692
6143.00,0.7709
6142.00,0.7733
6141.00,0.7764
6140.00,0.7803
6139.00,0.7849
6138.00,0.7901
6137.00,0.7960
6136.00,0.8027
6135.00,0.8099
6134.00,0.8176
6133.00,0.8259
6132.00,0.8348
6131.00,0.8441
6130.00,0.8538
6129.00,0.8637
6128.00,0.8740
6127.00,0.8844
6126.00,0.8951
6125.00,0.9060
6124.00,0.9171
6123.00,0.9283
6122.00,0.9397
6121.00,0.9513
6120.00,0.9630
6119.00,0.9748
6118.00,0.9866
6117.00,0.9985
6116.00,1.0106
6115.00,1.0228
6114.00,1.0349
6113.00,1.0470
6112.00,1.0590
6111.00,1.0707
6110.00,1.0821
6109.00,1.0932
6108.00,1.1040
6107.00,1.1148
6106.00,1.1254
6105.00,1.1360
6104.00,1.1464
6103.00,1.1567
6102.00,1.1667
6101.00,1.1764
6100.00,1.1857
6099.00,1.1944
6098.00,1.2023
6097.00,1.2095
6096.00,1.2163
6095.00,1.2228
6094.00,1.2290
6093.00,1.2348
6092.00,1.2405
6091.00,1.2462
6090.00,1.2518
6089.00,1.2568
6088.00,1.2611
6087.00,1.2647
6086.00,1.2679
6085.00,1.2709
6084.00,1.2736
6083.00,1.2757
6082.00,1.2773
6081.00,1.2785
6080.00,1.2792
6079.00,1.2793
6078.00,1.2789
6077.00,1.2780
6076.00,1.2769
6075.00,1.2756
6074.00,1.2741
6073.00,1.2720
6072.00,1.2694
6071.00,1.2663
6070.00,1.2630
6069.00,1.2596
6068.00,1.2559
6067.00,1.2518
6066.00,1.2472
6065.00,1.2421
6064.00,1.2363
6063.00,1.2296
6062.00,1.2223
6061.00,1.2148
6060.00,1.2072
6059.00,1.1995
6058.00,1.1916
6057.00,1.1834
6056.00,1.1748
6055.00,1.1654
6054.00,1.1551
6053.00,1.1445
6052.00,1.1337
6051.00,1.1229
6050.00,1.1119
6049.00,1.1008
6048.00,1.0894
6047.00,1.0777
6046.00,1.0658
6045.00,1.0537
6044.00,1.0415
6043.00,1.0291
6042.00,1.0165
6041.00,1.0038
6040.00,0.9912
6039.00,0.9787
6038.00,0.9662
6037.00,0.9538
6036.00,0.9415
6035.00,0.9295
6034.00,0.9176
6033.00,0.9057
6032.00,0.8939
6031.00,0.8823
6030.00,0.8711
6029.00,0.8603
6028.00,0.8498
6027.00,0.8397
6026.00,0.8301
6025.00,0.8213
6024.00,0.8130
6023.00,0.8053
6022.00,0.7981
6021.00,0.7915
6020.00,0.7856
6019.00,0.7803
6018.00,0.7756
6017.00,0.7715
6016.00,0.7682
6015.00,0.7658
6014.00,0.7642
6013.00,0.7634
6012.00,0.7633
6011.00,0.7640
6010.00,0.7654
6009.00,0.7677
6008.00,0.7708
6007.00,0.7746
6006.00,0.7793
6005.00,0.7847
6004.00,0.7909
6003.00,0.7976
6002.00,0.8049
6001.00,0.8128
6000.00,0.8212
5999.00,0.8301
5998.00,0.8394
5997.00,0.8491
5996.00,0.8594
5995.00,0.8699
5994.00,0.8809
5993.00,0.8922
5992.00,0.9038
5991.00,0.9156
5990.00,0.9276
5989.00,0.9397
5988.00,0.9520
5987.00,0.9646
5986.00,0.9771
5985.00,0.9896
5984.00,1.0021
5983.00,1.0146
5982.00,1.0269
5981.00,1.0391
5980.00,1.0514
5979.00,1.0639
5978.00,1.0765
5977.00,1.0890
5976.00,1.1011
5975.00,1.1130
5974.00,1.1246
5973.00,1.1358
5972.00,1.1466
5971.00,1.1571
5970.00,1.1674
5969.00,1.1773
5968.00,1.1869
5967.00,1.1962
5966.00,1.2053
5965.00,1.2142
5964.00,1.2229
5963.00,1.2310
5962.00,1.2384
5961.00,1.2451
5960.00,1.2512
5959.00,1.2572
5958.00,1.2630
5957.00,1.2687
5956.00,1.2739
5955.00,1.2785
5954.00,1.2824
5953.00,1.2860
5952.00,1.2893
5951.00,1.2923
5950.00,1.2950
5949.00,1.2976
5948.00,1.2997
5947.00,1.3011
5946.00,1.3016
5945.00,1.3015
5944.00,1.3009
5943.00,1.3000
5942.00,1.2987
5941.00,1.2971
5940.00,1.2952
5939.00,1.2930
5938.00,1.2903
5937.00,1.2872
5936.00,1.2837
5935.00,1.2797
5934.00,1.2752
5933.00,1.2703
5932.00,1.2651
5931.00,1.2597
5930.00,1.2536
5929.00,1.2468
5928.00,1.2393
5927.00,1.2314
5926.00,1.2232
5925.00,1.2145
5924.00,1.2055
5923.00,1.1961
5922.00,1.1865
5921.00,1.1767
5920.00,1.1665
5919.00,1.1558
5918.00,1.1448
5917.00,1.1337
5916.00,1.1223
5915.00,1.1106
5914.00,1.0986
5913.00,1.0863
5912.00,1.0740
5911.00,1.0615
5910.00,1.0489
5909.00,1.0363
5908.00,1.0237
5907.00,1.0110
5906.00,0.9983
5905.00,0.9855
5904.00,0.9726
5903.00,0.9596
5902.00,0.9468
5901.00,0.9342
5900.00,0.9219
5899.00,0.9097
5898.00,0.8979
5897.00,0.8865
5896.00,0.8757
5895.00,0.8653
5894.00,0.8554
5893.00,0.8462
5892.00,0.8374
5891.00,0.8290
5890.00,0.8210
5889.00,0.8135
5888.00,0.8066
5887.00,0.8003
5886.00,0.7947
5885.00,0.7900
5884.00,0.7861
5883.00,0.7831
5882.00,0.7809
5881.00,0.7796
5880.00,0.7791
5879.00,0.7793
5878.00,0.7803
5877.00,0.7820
5876.00,0.7844
5875.00,0.7875
5874.00,0.7916
5873.00,0.7965
5872.00,0.8023
5871.00,0.8088
5870.00,0.8158
5869.00,0.8233
5868.00,0.8313
5867.00,0.8398
5866.00,0.8487
5865.00,0.8581
5864.00,0.8681
5863.00,0.8786
5862.00,0.8895
5861.00,0.9006
5860.00,0.9118
5859.00,0.9232
5858.00,0.9348
5857.00,0.9468
5856.00,0.9592
5855.00,0.9719
5854.00,0.9845
5853.00,0.9972
5852.00,1.0098
5851.00,1.0223
5850.00,1.0347
5849.00,1.0470
5848.00,1.0593
5847.00,1.0716
5846.00,1.0838
5845.00,1.0959
5844.00,1.1078
5843.00,1.1197
5842.00,1.1315
5841.00,1.1433
5840.00,1.1547
5839.00,1.1658
5838.00,1.1766
5837.00,1.1870
5836.00,1.1970
5835.00,1.2067
5834.00,1.2159
5833.00,1.2247
5832.00,1.2332
5831.00,1.2414
5830.00,1.2494
5829.00,1.2570
5828.00,1.2642
5827.00,1.2710
5826.00,1.2774
5825.00,1.2834
5824.00,1.2890
5823.00,1.2943
5822.00,1.2990
5821.00,1.3033
5820.00,1.3070
5819.00,1.3101
5818.00,1.3127
5817.00,1.3149
5816.00,1.3169
5815.00,1.3188
5814.00,1.3200
5813.00,1.3205
5812.00,1.3207
5811.00,1.3205
5810.00,1.3201
5809.00,1.3192
5808.00,1.3182
5807.00,1.3169
5806.00,1.3151
5805.00,1.3126
5804.00,1.3096
5803.00,1.3061
5802.00,1.3021
5801.00,1.2974
5800.00,1.2921
5799.00,1.2866
5798.00,1.2810
5797.00,1.2750
5796.00,1.2687
5795.00,1.2619
5794.00,1.2546
5793.00,1.2467
5792.00,1.2382
5791.00,1.2292
5790.00,1.2200
5789.00,1.2107
5788.00,1.2012
5787.00,1.1913
5786.00,1.1810
5785.00,1.1703
5784.00,1.1592
5783.00,1.1477
5782.00,1.1357
5781.00,1.1233
5780.00,1.1106
5779.00,1.0976
5778.00,1.0847
5777.00,1.0716
5776.00,1.0586
5775.00,1.0455
5774.00,1.0323
5773.00,1.0190
5772.00,1.0056
5771.00,0.9921
5770.00,0.9788
5769.00,0.9657
5768.00,0.9529
5767.00,0.9403
5766.00,0.9278
5765.00,0.9156
5764.00,0.9036
5763.00,0.8917
5762.00,0.8803
5761.00,0.8693
5760.00,0.8589
5759.00,0.8490
5758.00,0.8398
5757.00,0.8311
5756.00,0.8230
5755.00,0.8155
5754.00,0.8087
5753.00,0.8026
5752.00,0.7973
5751.00,0.7927
5750.00,0.7889
5749.00,0.7860
5748.00,0.7838
5747.00,0.7825
5746.00,0.7819
5745.00,0.7822
5744.00,0.7833
5743.00,0.7852
5742.00,0.7881
5741.00,0.7917
5740.00,0.7961
5739.00,0.8013
5738.00,0.8072
5737.00,0.8138
5736.00,0.8209
5735.00,0.8286
5734.00,0.8369
5733.00,0.8458
5732.00,0.8554
5731.00,0.8653
5730.00,0.8756
5729.00,0.8862
5728.00,0.8972
5727.00,0.9084
5726.00,0.9200
5725.00,0.9320
5724.00,0.9444
5723.00,0.9570
5722.00,0.9697
5721.00,0.9823
5720.00,0.9949
5719.00,1.0075
5718.00,1.0202
5717.00,1.0331
5716.00,1.0460
5715.00,1.0588
5714.00,1.0714
5713.00,1.0839
5712.00,1.0963
5711.00,1.1085
5710.00,1.1206
5709.00,1.1327
5708.00,1.1447
5707.00,1.1565
5706.00,1.1679
5705.00,1.1789
5704.00,1.1894
5703.00,1.1996
5702.00,1.2094
5701.00,1.2190
5700.00,1.2284
5699.00,1.2376
5698.00,1.2467
5697.00,1.2554
5696.00,1.2636
5695.00,1.2713
5694.00,1.2783
5693.00,1.2848
5692.00,1.2909
5691.00,1.2968
5690.00,1.3022
5689.00,1.3070
5688.00,1.3114
5687.00,1.3154
5686.00,1.3191
5685.00,1.3225
5684.00,1.3253
5683.00,1.3277
5682.00,1.3295
5681.00,1.3309
5680.00,1.3319
5679.00,1.3324
5678.00,1.3328
5677.00,1.3329
5676.00,1.3325
5675.00,1.3314
5674.00,1.3297
5673.00,1.3275
5672.00,1.3251
5671.00,1.3226
5670.00,1.3197
5669.00,1.3165
5668.00,1.3127
5667.00,1.3083
5666.00,1.3031
5665.00,1.2974
5664.00,1.2911
5663.00,1.2846
5662.00,1.2777
5661.00,1.2707
5660.00,1.2635
5659.00,1.2561
5658.00,1.2481
5657.00,1.2395
5656.00,1.2301
5655.00,1.2202
5654.00,1.2099
5653.00,1.1993
5652.00,1.1885
5651.00,1.1773
5650.00,1.1657
5649.00,1.1535
5648.00,1.1410
5647.00,1.1281
5646.00,1.1152
5645.00,1.1022
5644.00,1.0892
5643.00,1.0760
5642.00,1.0625
5641.00,1.0487
5640.00,1.0348
5639.00,1.0208
5638.00,1.0069
5637.00,0.9929
5636.00,0.9790
5635.00,0.9653
5634.00,0.9517
5633.00,0.9384
5632.00,0.9252
5631.00,0.9122
5630.00,0.8994
5629.00,0.8870
5628.00,0.8750
5627.00,0.8635
5626.00,0.8525
5625.00,0.8420
5624.00,0.8321
5623.00,0.8227
5622.00,0.8140
5621.00,0.8059
5620.00,0.7985
5619.00,0.7919
5618.00,0.7860
5617.00,0.7811
5616.00,0.7769
5615.00,0.7736
5614.00,0.7712
5613.00,0.7697
5612.00,0.7692
5611.00,0.7695
5610.00,0.7706
5609.00,0.7728
5608.00,0.7759
5607.00,0.7799
5606.00,0.7847
5605.00,0.7902
5604.00,0.7964
5603.00,0.8033
5602.00,0.8108
5601.00,0.8191
5600.00,0.8281
5599.00,0.8378
5598.00,0.8481
5597.00,0.8591
5596.00,0.8704
5595.00,0.8821
5594.00,0.8940
5593.00,0.9064
5592.00,0.9189
5591.00,0.9316
5590.00,0.9446
5589.00,0.9578
5588.00,0.9711
5587.00,0.9844
5586.00,0.9977
5585.00,1.0110
5584.00,1.0243
5583.00,1.0377
5582.00,1.0512
5581.00,1.0647
5580.00,1.0779
5579.00,1.0907
5578.00,1.1029
5577.00,1.1147
5576.00,1.1263
5575.00,1.1379
5574.00,1.1495
5573.00,1.1610
5572.00,1.1722
5571.00,1.1830
5570.00,1.1933
5569.00,1.2031
5568.00,1.2125
5567.00,1.2215
5566.00,1.2301
5565.00,1.2385
5564.00,1.2467
5563.00,1.2546
5562.00,1.2621
5561.00,1.2692
5560.00,1.2759
5559.00,1.2820
5558.00,1.2876
5557.00,1.2928
5556.00,1.2977
5555.00,1.3023
5554.00,1.3065
5553.00,1.3104
5552.00,1.3140
5551.00,1.3173
5550.00,1.3205
5549.00,1.3233
5548.00,1.3257
5547.00,1.3276
5546.00,1.3290
5545.00,1.3301
5544.00,1.3308
5543.00,1.3312
5542.00,1.3311
5541.00,1.3305
5540.00,1.3294
5539.00,1.3276
5538.00,1.3253
5537.00,1.3225
5536.00,1.3194
5535.00,1.3162
5534.00,1.3125
5533.00,1.3084
5532.00,1.3040
5531.00,1.2991
5530.00,1.2936
5529.00,1.2874
5528.00,1.2807
5527.00,1.2736
5526.00,1.2662
5525.00,1.2582
5524.00,1.2497
5523.00,1.2408
5522.00,1.2313
5521.00,1.2213
5520.00,1.2108
5519.00,1.2002
5518.00,1.1894
5517.00,1.1782
5516.00,1.1665
5515.00,1.1544
5514.00,1.1421
5513.00,1.1294
5512.00,1.1163
5511.00,1.1031
5510.00,1.0897
5509.00,1.0759
5508.00,1.0618
5507.00,1.0474
5506.00,1.0330
5505.00,1.0186
5504.00,1.0041
5503.00,0.9896
5502.00,0.9752
5501.00,0.9610
5500.00,0.9471
5499.00,0.9333
5498.00,0.9198
5497.00,0.9065
5496.00,0.8934
5495.00,0.8807
5494.00,0.8684
5493.00,0.8564
5492.00,0.8449
5491.00,0.8339
5490.00,0.8236
5489.00,0.8140
5488.00,0.8052
5487.00,0.7972
5486.00,0.7900
5485.00,0.7838
5484.00,0.7784
5483.00,0.7741
5482.00,0.7708
5481.00,0.7686
5480.00,0.7671
5479.00,0.7664
5478.00,0.7664
5477.00,0.7673
5476.00,0.7693
5475.00,0.7721
5474.00,0.7758
5473.00,0.7803
5472.00,0.7856
5471.00,0.7917
5470.00,0.7988
5469.00,0.8070
5468.00,0.8160
5467.00,0.8259
5466.00,0.8363
5465.00,0.8472
5464.00,0.8584
5463.00,0.8701
5462.00,0.8824
5461.00,0.8952
5460.00,0.9085
5459.00,0.9219
5458.00,0.9356
5457.00,0.9495
5456.00,0.9636
5455.00,0.9778
5454.00,0.9921
5453.00,1.0066
5452.00,1.0210
5451.00,1.0354
5450.00,1.0497
5449.00,1.0638
5448.00,1.0779
5447.00,1.0920
5446.00,1.1061
5445.00,1.1201
5444.00,1.1336
5443.00,1.1469
5442.00,1.1601
5441.00,1.1732
5440.00,1.1860
5439.00,1.1983
5438.00,1.2102
5437.00,1.2219
5436.00,1.2332
5435.00,1.2439
5434.00,1.2541
5433.00,1.2637
5432.00,1.2729
5431.00,1.2817
5430.00,1.2904
5429.00,1.2990
5428.00,1.3074
5427.00,1.3152
5426.00,1.3223
5425.00,1.3288
5424.00,1.3346
5423.00,1.3401
5422.00,1.3450
5421.00,1.3496
5420.00,1.3539
5419.00,1.3577
5418.00,1.3611
5417.00,1.3641
5416.00,1.3666
5415.00,1.3686
5414.00,1.3699
5413.00,1.3705
5412.00,1.3706
5411.00,1.3704
5410.00,1.3700
5409.00,1.3694
5408.00,1.3687
5407.00,1.3676
5406.00,1.3659
5405.00,1.3635
5404.00,1.3606
5403.00,1.3572
5402.00,1.3531
5401.00,1.3485
5400.00,1.3434
5399.00,1.3377
5398.00,1.3315
5397.00,1.3249
5396.00,1.3178
5395.00,1.3104
5394.00,1.3026
5393.00,1.2944
5392.00,1.2858
5391.00,1.2769
5390.00,1.2677
5389.00,1.2582
5388.00,1.2483
5387.00,1.2378
5386.00,1.2267
5385.00,1.2150
5384.00,1.2027
5383.00,1.1899
5382.00,1.1768
5381.00,1.1635
5380.00,1.1500
5379.00,1.1362
5378.00,1.1219
5377.00,1.1073
5376.00,1.0924
5375.00,1.0773
5374.00,1.0621
5373.00,1.0470
5372.00,1.0319
5371.00,1.0169
5370.00,1.0019
5369.00,0.9869
5368.00,0.9718
5367.00,0.9568
5366.00,0.9421
5365.00,0.9277
5364.00,0.9136
5363.00,0.8997
5362.00,0.8862
5361.00,0.8731
5360.00,0.8604
5359.00,0.8483
5358.00,0.8367
5357.00,0.8258
5356.00,0.8156
5355.00,0.8061
5354.00,0.7973
5353.00,0.7893
5352.00,0.7821
5351.00,0.7760
5350.00,0.7709
5349.00,0.7668
5348.00,0.7636
5347.00,0.7613
5346.00,0.7600
5345.00,0.7599
5344.00,0.7606
5343.00,0.7621
5342.00,0.7644
5341.00,0.7677
5340.00,0.7722
5339.00,0.7781
5338.00,0.7852
5337.00,0.7934
5336.00,0.8022
5335.00,0.8115
5334.00,0.8213
5333.00,0.8317
5332.00,0.8427
5331.00,0.8541
5330.00,0.8660
5329.00,0.8786
5328.00,0.8917
5327.00,0.9053
5326.00,0.9192
5325.00,0.9335
5324.00,0.9479
5323.00,0.9623
5322.00,0.9768
5321.00,0.9913
5320.00,1.0059
5319.00,1.0205
5318.00,1.0352
5317.00,1.0501
5316.00,1.0650
5315.00,1.0799
5314.00,1.0948
5313.00,1.1096
5312.00,1.1240
5311.00,1.1380
5310.00,1.1515
5309.00,1.1649
5308.00,1.1780
5307.00,1.1910
5306.00,1.2039
5305.00,1.2164
5304.00,1.2285
5303.00,1.2401
5302.00,1.2513
5301.00,1.2622
5300.00,1.2726
5299.00,1.2825
5298.00,1.2920
5297.00,1.3012
5296.00,1.3100
5295.00,1.3184
5294.00,1.3263
5293.00,1.3336
5292.00,1.3404
5291.00,1.3468
5290.00,1.3527
5289.00,1.3581
5288.00,1.3631
5287.00,1.3677
5286.00,1.3718
5285.00,1.3755
5284.00,1.3787
5283.00,1.3815
5282.00,1.3840
5281.00,1.3863
5280.00,1.3880
5279.00,1.3890
5278.00,1.3894
5277.00,1.3893
5276.00,1.3887
5275.00,1.3880
5274.00,1.3871
5273.00,1.3859
5272.00,1.3842
5271.00,1.3818
5270.00,1.3788
5269.00,1.3749
5268.00,1.3703
5267.00,1.3651
5266.00,1.3597
5265.00,1.3541
5264.00,1.3484
5263.00,1.3425
5262.00,1.3362
5261.00,1.3294
5260.00,1.3219
5259.00,1.3136
5258.00,1.3046
5257.00,1.2951
5256.00,1.2853
5255.00,1.2750
5254.00,1.2645
5253.00,1.2535
5252.00,1.2422
5251.00,1.2303
5250.00,1.2179
5249.00,1.2049
5248.00,1.1914
5247.00,1.1774
5246.00,1.1632
5245.00,1.1487
5244.00,1.1339
5243.00,1.1188
5242.00,1.1035
5241.00,1.0882
5240.00,1.0730
5239.00,1.0578
5238.00,1.0426
5237.00,1.0274
5236.00,1.0121
5235.00,0.9968
5234.00,0.9814
5233.00,0.9661
5232.00,0.9510
5231.00,0.9362
5230.00,0.9217
5229.00,0.9075
5228.00,0.8937
5227.00,0.8804
5226.00,0.8675
5225.00,0.8552
5224.00,0.8434
5223.00,0.8324
5222.00,0.8221
5221.00,0.8127
5220.00,0.8043
5219.00,0.7968
5218.00,0.7904
5217.00,0.7850
5216.00,0.7806
5215.00,0.7771
5214.00,0.7747
5213.00,0.7733
5212.00,0.7729
5211.00,0.7735
5210.00,0.7750
5209.00,0.7775
5208.00,0.7810
5207.00,0.7856
5206.00,0.7912
5205.00,0.7979
5204.00,0.8054
5203.00,0.8139
5202.00,0.8232
5201.00,0.8332
5200.00,0.8439
5199.00,0.8554
5198.00,0.8677
5197.00,0.8806
5196.00,0.8940
5195.00,0.9078
5194.00,0.9219
5193.00,0.9362
5192.00,0.9507
5191.00,0.9656
5190.00,0.9808
5189.00,0.9962
5188.00,1.0117
5187.00,1.0272
5186.00,1.0427
5185.00,1.0583
5184.00,1.0739
5183.00,1.0894
5182.00,1.1048
5181.00,1.1200
5180.00,1.1349
5179.00,1.1496
5178.00,1.1641
5177.00,1.1785
5176.00,1.1926
5175.00,1.2065
5174.00,1.2199
5173.00,1.2330
5172.00,1.2456
5171.00,1.2580
5170.00,1.2702
5169.00,1.2821
5168.00,1.2935
5167.00,1.3043
5166.00,1.3147
5165.00,1.3247
5164.00,1.3342
5163.00,1.3432
5162.00,1.3516
5161.00,1.3593
5160.00,1.3665
5159.00,1.3732
5158.00,1.3794
5157.00,1.3851
5156.00,1.3905
5155.00,1.3952
5154.00,1.3994
5153.00,1.4033
5152.00,1.4070
5151.00,1.4105
5150.00,1.4136
5149.00,1.4162
5148.00,1.4182
5147.00,1.4194
5146.00,1.4201
5145.00,1.4204
5144.00,1.4204
5143.00,1.4200
5142.00,1.4190
5141.00,1.4175
5140.00,1.4154
5139.00,1.4129
5138.00,1.4099
5137.00,1.4066
5136.00,1.4029
5135.00,1.3989
5134.00,1.3945
5133.00,1.3898
5132.00,1.3847
5131.00,1.3789
5130.00,1.3723
5129.00,1.3650
5128.00,1.3571
5127.00,1.3488
5126.00,1.3401
5125.00,1.3312
5124.00,1.3218
5123.00,1.3121
5122.00,1.3018
5121.00,1.2909
5120.00,1.2794
5119.00,1.2674
5118.00,1.2548
5117.00,1.2418
5116.00,1.2283
5115.00,1.2145
5114.00,1.2003
5113.00,1.1857
5112.00,1.1708
5111.00,1.1557
5110.00,1.1402
5109.00,1.1245
5108.00,1.1086
5107.00,1.0924
5106.00,1.0760
5105.00,1.0595
5104.00,1.0430
5103.00,1.0264
5102.00,1.0098
5101.00,0.9933
5100.00,0.9769
5099.00,0.9606
5098.00,0.9446
5097.00,0.9289
5096.00,0.9137
5095.00,0.8990
5094.00,0.8846
5093.00,0.8708
5092.00,0.8575
5091.00,0.8449
5090.00,0.8330
5089.00,0.8219
5088.00,0.8117
5087.00,0.8023
5086.00,0.7938
5085.00,0.7863
5084.00,0.7798
5083.00,0.7743
5082.00,0.7698
5081.00,0.7664
5080.00,0.7641
5079.00,0.7630
5078.00,0.7631
5077.00,0.7643
5076.00,0.7668
5075.00,0.7704
5074.00,0.7750
5073.00,0.7808
5072.00,0.7876
5071.00,0.7954
5070.00,0.8041
5069.00,0.8136
5068.00,0.8240
5067.00,0.8352
5066.00,0.8471
5065.00,0.8597
5064.00,0.8730
5063.00,0.8869
5062.00,0.9012
5061.00,0.9159
5060.00,0.9309
5059.00,0.9464
5058.00,0.9621
5057.00,0.9780
5056.00,0.9941
5055.00,1.0103
5054.00,1.0265
5053.00,1.0426
5052.00,1.0586
5051.00,1.0747
5050.00,1.0909
5049.00,1.1071
5048.00,1.1234
5047.00,1.1394
5046.00,1.1552
5045.00,1.1706
5044.00,1.1856
5043.00,1.2003
5042.00,1.2148
5041.00,1.2292
5040.00,1.2432
5039.00,1.2567
5038.00,1.2698
5037.00,1.2825
5036.00,1.2946
5035.00,1.3064
5034.00,1.3177
5033.00,1.3287
5032.00,1.3391
5031.00,1.3488
5030.00,1.3580
5029.00,1.3668
5028.00,1.3751
5027.00,1.3831
5026.00,1.3907
5025.00,1.3979
5024.00,1.4045
5023.00,1.4106
5022.00,1.4161
5021.00,1.4211
5020.00,1.4256
5019.00,1.4296
5018.00,1.4333
5017.00,1.4366
5016.00,1.4394
5015.00,1.4417
5014.00,1.4434
5013.00,1.4445
5012.00,1.4452
5011.00,1.4456
5010.00,1.4457
5009.00,1.4454
5008.00,1.4446
5007.00,1.4430
5006.00,1.4408
5005.00,1.4381
5004.00,1.4349
5003.00,1.4314
5002.00,1.4273
5001.00,1.4228
5000.00,1.4178
4999.00,1.4121
4998.00,1.4058
4997.00,1.3992
4996.00,1.3923
4995.00,1.3850
4994.00,1.3773
4993.00,1.3691
4992.00,1.3602
4991.00,1.3506
4990.00,1.3404
4989.00,1.3298
4988.00,1.3187
4987.00,1.3072
4986.00,1.2953
4985.00,1.2828
4984.00,1.2698
4983.00,1.2564
4982.00,1.2425
4981.00,1.2282
4980.00,1.2133
4979.00,1.1978
4978.00,1.1820
4977.00,1.1658
4976.00,1.1494
4975.00,1.1328
4974.00,1.1159
4973.00,1.0988
4972.00,1.0815
4971.00,1.0641
4970.00,1.0466
4969.00,1.0291
4968.00,1.0117
4967.00,0.9943
4966.00,0.9771
4965.00,0.9601
4964.00,0.9435
4963.00,0.9271
4962.00,0.9112
4961.00,0.8957
4960.00,0.8807
4959.00,0.8663
4958.00,0.8526
4957.00,0.8396
4956.00,0.8275
4955.00,0.8164
4954.00,0.8061
4953.00,0.7969
4952.00,0.7887
4951.00,0.7816
4950.00,0.7756
4949.00,0.7707
4948.00,0.7671
4947.00,0.7647
4946.00,0.7636
4945.00,0.7639
4944.00,0.7654
4943.00,0.7682
4942.00,0.7722
4941.00,0.7774
4940.00,0.7838
4939.00,0.7913
4938.00,0.7999
4937.00,0.8095
4936.00,0.8200
4935.00,0.8314
4934.00,0.8437
4933.00,0.8568
4932.00,0.8705
4931.00,0.8849
4930.00,0.8997
4929.00,0.9151
4928.00,0.9308
4927.00,0.9468
4926.00,0.9632
4925.00,0.9798
4924.00,0.9967
4923.00,1.0138
4922.00,1.0311
4921.00,1.0485
4920.00,1.0659
4919.00,1.0832
4918.00,1.1005
4917.00,1.1175
4916.00,1.1343
4915.00,1.1510
4914.00,1.1675
4913.00,1.1839
4912.00,1.2002
4911.00,1.2162
4910.00,1.2318
4909.00,1.2469
4908.00,1.2615
4907.00,1.2756
4906.00,1.2893
4905.00,1.3026
4904.00,1.3155
4903.00,1.3279
4902.00,1.3399
4901.00,1.3513
4900.00,1.3623
4899.00,1.3727
4898.00,1.3826
4897.00,1.3918
4896.00,1.4005
4895.00,1.4086
4894.00,1.4165
4893.00,1.4242
4892.00,1.4315
4891.00,1.4383
4890.00,1.4443
4889.00,1.4497
4888.00,1.4545
4887.00,1.4588
4886.00,1.4626
4885.00,1.4658
4884.00,1.4684
4883.00,1.4705
4882.00,1.4723
4881.00,1.4738
4880.00,1.4751
4879.00,1.4758
4878.00,1.4760
4877.00,1.4756
4876.00,1.4746
4875.00,1.4732
4874.00,1.4714
4873.00,1.4691
4872.00,1.4664
4871.00,1.4631
4870.00,1.4594
4869.00,1.4552
4868.00,1.4503
4867.00,1.4449
4866.00,1.4391
4865.00,1.4331
4864.00,1.4269
4863.00,1.4202
4862.00,1.4129
4861.00,1.4047
4860.00,1.3958
4859.00,1.3862
4858.00,1.3762
4857.00,1.3659
4856.00,1.3553
4855.00,1.3441
4854.00,1.3322
4853.00,1.3196
4852.00,1.3063
4851.00,1.2925
4850.00,1.2783
4849.00,1.2638
4848.00,1.2490
4847.00,1.2338
4846.00,1.2181
4845.00,1.2020
4844.00,1.1853
4843.00,1.1682
4842.00,1.1508
4841.00,1.1332
4840.00,1.1152
4839.00,1.0970
4838.00,1.0786
4837.00,1.0600
4836.00,1.0414
4835.00,1.0229
4834.00,1.0044
4833.00,0.9862
4832.00,0.9681
4831.00,0.9503
4830.00,0.9327
4829.00,0.9157
4828.00,0.8991
4827.00,0.8832
4826.00,0.8679
4825.00,0.8535
4824.00,0.8398
4823.00,0.8270
4822.00,0.8151
4821.00,0.8041
4820.00,0.7942
4819.00,0.7853
4818.00,0.7777
4817.00,0.7712
4816.00,0.7661
4815.00,0.7622
4814.00,0.7597
4813.00,0.7586
4812.00,0.7588
4811.00,0.7605
4810.00,0.7635
4809.00,0.7678
4808.00,0.7736
4807.00,0.7806
4806.00,0.7888
4805.00,0.7981
4804.00,0.8085
4803.00,0.8198
4802.00,0.8321
4801.00,0.8452
4800.00,0.8591
4799.00,0.8737
4798.00,0.8889
4797.00,0.9046
4796.00,0.9209
4795.00,0.9376
4794.00,0.9548
4793.00,0.9724
4792.00,0.9902
4791.00,1.0082
4790.00,1.0263
4789.00,1.0444
4788.00,1.0625
4787.00,1.0806
4786.00,1.0988
4785.00,1.1169
4784.00,1.1350
4783.00,1.1530
4782.00,1.1706
4781.00,1.1879
4780.00,1.2050
4779.00,1.2219
4778.00,1.2385
4777.00,1.2547
4776.00,1.2705
4775.00,1.2857
4774.00,1.3003
4773.00,1.3145
4772.00,1.3283
4771.00,1.3417
4770.00,1.3548
4769.00,1.3673
4768.00,1.3794
4767.00,1.3909
4766.00,1.4017
4765.00,1.4119
4764.00,1.4214
4763.00,1.4303
4762.00,1.4388
4761.00,1.4469
4760.00,1.4547
4759.00,1.4622
4758.00,1.4691
4757.00,1.4753
4756.00,1.4808
4755.00,1.4856
4754.00,1.4900
4753.00,1.4939
4752.00,1.4976
4751.00,1.5009
4750.00,1.5037
4749.00,1.5061
4748.00,1.5079
4747.00,1.5091
4746.00,1.5098
4745.00,1.5098
4744.00,1.5093
4743.00,1.5084
4742.00,1.5071
4741.00,1.5053
4740.00,1.5030
4739.00,1.5002
4738.00,1.4970
4737.00,1.4933
4736.00,1.4893
4735.00,1.4846
4734.00,1.4794
4733.00,1.4736
4732.00,1.4673
4731.00,1.4605
4730.00,1.4534
4729.00,1.4460
4728.00,1.4382
4727.00,1.4299
4726.00,1.4208
4725.00,1.4109
4724.00,1.4002
4723.00,1.3890
4722.00,1.3773
4721.00,1.3652
4720.00,1.3528
4719.00,1.3397
4718.00,1.3259
4717.00,1.3114
4716.00,1.2964
4715.00,1.2809
4714.00,1.2650
4713.00,1.2486
4712.00,1.2317
4711.00,1.2144
4710.00,1.1967
4709.00,1.1787
4708.00,1.1603
4707.00,1.1417
4706.00,1.1230
4705.00,1.1041
4704.00,1.0851
4703.00,1.0662
4702.00,1.0472
4701.00,1.0284
4700.00,1.0096
4699.00,0.9911
4698.00,0.9730
4697.00,0.9553
4696.00,0.9382
4695.00,0.9216
4694.00,0.9056
4693.00,0.8903
4692.00,0.8758
4691.00,0.8621
4690.00,0.8495
4689.00,0.8379
4688.00,0.8274
4687.00,0.8182
4686.00,0.8101
4685.00,0.8034
4684.00,0.7979
4683.00,0.7937
4682.00,0.7908
4681.00,0.7892
4680.00,0.7889
4679.00,0.7899
4678.00,0.7923
4677.00,0.7959
4676.00,0.8007
4675.00,0.8068
4674.00,0.8141
4673.00,0.8226
4672.00,0.8321
4671.00,0.8426
4670.00,0.8540
4669.00,0.8662
4668.00,0.8792
4667.00,0.8930
4666.00,0.9076
4665.00,0.9228
4664.00,0.9386
4663.00,0.9549
4662.00,0.9716
4661.00,0.9887
4660.00,1.0061
4659.00,1.0238
4658.00,1.0417
4657.00,1.0598
4656.00,1.0780
4655.00,1.0963
4654.00,1.1147
4653.00,1.1333
4652.00,1.1517
4651.00,1.1700
4650.00,1.1881
4649.00,1.2058
4648.00,1.2233
4647.00,1.2404
4646.00,1.2573
4645.00,1.2739
4644.00,1.2901
4643.00,1.3060
4642.00,1.3214
4641.00,1.3366
4640.00,1.3513
4639.00,1.3657
4638.00,1.3794
4637.00,1.3926
4636.00,1.4051
4635.00,1.4171
4634.00,1.4284
4633.00,1.4393
4632.00,1.4495
4631.00,1.4592
4630.00,1.4682
4629.00,1.4769
4628.00,1.4851
4627.00,1.4930
4626.00,1.5003
4625.00,1.5070
4624.00,1.5132
4623.00,1.5188
4622.00,1.5237
4621.00,1.5279
4620.00,1.5315
4619.00,1.5345
4618.00,1.5369
4617.00,1.5390
4616.00,1.5408
4615.00,1.5423
4614.00,1.5435
4613.00,1.5443
4612.00,1.5445
4611.00,1.5441
4610.00,1.5433
4609.00,1.5422
4608.00,1.5409
4607.00,1.5390
4606.00,1.5365
4605.00,1.5331
4604.00,1.5291
4603.00,1.5248
4602.00,1.5200
4601.00,1.5147
4600.00,1.5086
4599.00,1.5017
4598.00,1.4943
4597.00,1.4868
4596.00,1.4791
4595.00,1.4710
4594.00,1.4622
4593.00,1.4527
4592.00,1.4424
4591.00,1.4316
4590.00,1.4205
4589.00,1.4089
4588.00,1.3968
4587.00,1.3841
4586.00,1.3707
4585.00,1.3565
4584.00,1.3416
4583.00,1.3261
4582.00,1.3101
4581.00,1.2936
4580.00,1.2767
4579.00,1.2593
4578.00,1.2414
4577.00,1.2229
4576.00,1.2040
4575.00,1.1847
4574.00,1.1650
4573.00,1.1450
4572.00,1.1248
4571.00,1.1044
4570.00,1.0840
4569.00,1.0636
4568.00,1.0433
4567.00,1.0229
4566.00,1.0028
4565.00,0.9829
4564.00,0.9635
4563.00,0.9446
4562.00,0.9263
4561.00,0.9085
4560.00,0.8914
4559.00,0.8750
4558.00,0.8596
4557.00,0.8452
4556.00,0.8318
4555.00,0.8196
4554.00,0.8087
4553.00,0.7992
4552.00,0.7909
4551.00,0.7841
4550.00,0.7787
4549.00,0.7749
4548.00,0.7725
4547.00,0.7717
4546.00,0.7725
4545.00,0.7749
4544.00,0.7788
4543.00,0.7842
4542.00,0.7911
4541.00,0.7995
4540.00,0.8091
4539.00,0.8200
4538.00,0.8322
4537.00,0.8454
4536.00,0.8597
4535.00,0.8749
4534.00,0.8909
4533.00,0.9076
4532.00,0.9249
4531.00,0.9429
4530.00,0.9613
4529.00,0.9803
4528.00,0.9995
4527.00,1.0191
4526.00,1.0388
4525.00,1.0586
4524.00,1.0786
4523.00,1.0986
4522.00,1.1187
4521.00,1.1387
4520.00,1.1587
4519.00,1.1785
4518.00,1.1981
4517.00,1.2174
4516.00,1.2365
4515.00,1.2552
4514.00,1.2736
4513.00,1.2915
4512.00,1.3089
4511.00,1.3259
4510.00,1.3422
4509.00,1.3581
4508.00,1.3735
4507.00,1.3886
4506.00,1.4033
4505.00,1.4174
4504.00,1.4307
4503.00,1.4433
4502.00,1.4553
4501.00,1.4667
4500.00,1.4776
4499.00,1.4880
4498.00,1.4976
4497.00,1.5067
4496.00,1.5154
4495.00,1.5238
4494.00,1.5317
4493.00,1.5388
4492.00,1.5451
4491.00,1.5506
4490.00,1.5557
4489.00,1.5606
4488.00,1.5653
4487.00,1.5698
4486.00,1.5738
4485.00,1.5769
4484.00,1.5793
4483.00,1.5810
4482.00,1.5823
4481.00,1.5831
4480.00,1.5836
4479.00,1.5837
4478.00,1.5831
4477.00,1.5820
4476.00,1.5805
4475.00,1.5789
4474.00,1.5769
4473.00,1.5745
4472.00,1.5712
4471.00,1.5671
4470.00,1.5623
4469.00,1.5570
4468.00,1.5512
4467.00,1.5450
4466.00,1.5382
4465.00,1.5310
4464.00,1.5234
4463.00,1.5154
4462.00,1.5067
4461.00,1.4975
4460.00,1.4876
4459.00,1.4772
4458.00,1.4662
4457.00,1.4545
4456.00,1.4421
4455.00,1.4289
4454.00,1.4153
4453.00,1.4012
4452.00,1.3866
4451.00,1.3715
4450.00,1.3558
4449.00,1.3394
4448.00,1.3224
4447.00,1.3046
4446.00,1.2861
4445.00,1.2671
4444.00,1.2477
4443.00,1.2281
4442.00,1.2081
4441.00,1.1879
4440.00,1.1673
4439.00,1.1465
4438.00,1.1256
4437.00,1.1046
4436.00,1.0836
4435.00,1.0625
4434.00,1.0417
4433.00,1.0212
4432.00,1.0011
4431.00,0.9816
4430.00,0.9626
4429.00,0.9442
4428.00,0.9265
4427.00,0.9097
4426.00,0.8938
4425.00,0.8791
4424.00,0.8655
4423.00,0.8531
4422.00,0.8421
4421.00,0.8325
4420.00,0.8244
4419.00,0.8179
4418.00,0.8129
4417.00,0.8096
4416.00,0.8080
4415.00,0.8080
4414.00,0.8096
4413.00,0.8130
4412.00,0.8180
4411.00,0.8246
4410.00,0.8328
4409.00,0.8425
4408.00,0.8536
4407.00,0.8660
4406.00,0.8796
4405.00,0.8941
4404.00,0.9097
4403.00,0.9262
4402.00,0.9435
4401.00,0.9615
4400.00,0.9801
4399.00,0.9993
4398.00,1.0188
4397.00,1.0388
4396.00,1.0590
4395.00,1.0796
4394.00,1.1003
4393.00,1.1211
4392.00,1.1418
4391.00,1.1623
4390.00,1.1827
4389.00,1.2029
4388.00,1.2230
4387.00,1.2429
4386.00,1.2624
4385.00,1.2816
4384.00,1.3005
4383.00,1.3190
4382.00,1.3371
4381.00,1.3548
4380.00,1.3720
4379.00,1.3886
4378.00,1.4045
4377.00,1.4198
4376.00,1.4345
4375.00,1.4486
4374.00,1.4621
4373.00,1.4751
4372.00,1.4876
4371.00,1.4997
4370.00,1.5114
4369.00,1.5225
4368.00,1.5328
4367.00,1.5425
4366.00,1.5516
4365.00,1.5601
4364.00,1.5681
4363.00,1.5756
4362.00,1.5826
4361.00,1.5892
4360.00,1.5954
4359.00,1.6013
4358.00,1.6067
4357.00,1.6115
4356.00,1.6158
4355.00,1.6196
4354.00,1.6232
4353.00,1.6264
4352.00,1.6293
4351.00,1.6317
4350.00,1.6336
4349.00,1.6349
4348.00,1.6356
4347.00,1.6359
4346.00,1.6357
4345.00,1.6351
4344.00,1.6341
4343.00,1.6327
4342.00,1.6306
4341.00,1.6278
4340.00,1.6243
4339.00,1.6203
4338.00,1.6161
4337.00,1.6118
4336.00,1.6072
4335.00,1.6019
4334.00,1.5960
4333.00,1.5894
4332.00,1.5822
4331.00,1.5744
4330.00,1.5661
4329.00,1.5573
4328.00,1.5479
4327.00,1.5380
4326.00,1.5276
4325.00,1.5168
4324.00,1.5055
4323.00,1.4935
4322.00,1.4809
4321.00,1.4676
4320.00,1.4537
4319.00,1.4391
4318.00,1.4239
4317.00,1.4082
4316.00,1.3920
4315.00,1.3754
4314.00,1.3583
4313.00,1.3407
4312.00,1.3225
4311.00,1.3037
4310.00,1.2842
4309.00,1.2643
4308.00,1.2440
4307.00,1.2236
4306.00,1.2031
4305.00,1.1825
4304.00,1.1618
4303.00,1.1410
4302.00,1.1203
4301.00,1.0997
4300.00,1.0793
4299.00,1.0593
4298.00,1.0399
4297.00,1.0211
4296.00,1.0029
4295.00,0.9854
4294.00,0.9688
4293.00,0.9532
4292.00,0.9387
4291.00,0.9253
4290.00,0.9131
4289.00,0.9022
4288.00,0.8925
4287.00,0.8842
4286.00,0.8773
4285.00,0.8718
4284.00,0.8677
4283.00,0.8649
4282.00,0.8636
4281.00,0.8636
4280.00,0.8650
4279.00,0.8678
4278.00,0.8720
4277.00,0.8776
4276.00,0.8844
4275.00,0.8926
4274.00,0.9020
4273.00,0.9128
4272.00,0.9247
4271.00,0.9377
4270.00,0.9517
4269.00,0.9665
4268.00,0.9821
4267.00,0.9985
4266.00,1.0154
4265.00,1.0330
4264.00,1.0512
4263.00,1.0699
4262.00,1.0889
4261.00,1.1083
4260.00,1.1278
4259.00,1.1476
4258.00,1.1675
4257.00,1.1875
4256.00,1.2076
4255.00,1.2277
4254.00,1.2478
4253.00,1.2678
4252.00,1.2877
4251.00,1.3074
4250.00,1.3268
4249.00,1.3459
4248.00,1.3647
4247.00,1.3830
4246.00,1.4008
4245.00,1.4179
4244.00,1.4347
4243.00,1.4510
4242.00,1.4671
4241.00,1.4827
4240.00,1.4976
4239.00,1.5118
4238.00,1.5252
4237.00,1.5379
4236.00,1.5500
4235.00,1.5615
4234.00,1.5724
4233.00,1.5827
4232.00,1.5925
4231.00,1.6017
4230.00,1.6104
4229.00,1.6186
4228.00,1.6264
4227.00,1.6337
4226.00,1.6405
4225.00,1.6467
4224.00,1.6522
4223.00,1.6570
4222.00,1.6611
4221.00,1.6646
4220.00,1.6677
4219.00,1.6705
4218.00,1.6730
4217.00,1.6751
4216.00,1.6768
4215.00,1.6780
4214.00,1.6791
4213.00,1.6799
4212.00,1.6802
4211.00,1.6794
4210.00,1.6777
4209.00,1.6753
4208.00,1.6724
4207.00,1.6694
4206.00,1.6661
4205.00,1.6626
4204.00,1.6585
4203.00,1.6540
4202.00,1.6489
4201.00,1.6433
4200.00,1.6371
4199.00,1.6303
4198.00,1.6227
4197.00,1.6146
4196.00,1.6062
4195.00,1.5974
4194.00,1.5882
4193.00,1.5782
4192.00,1.5674
4191.00,1.5558
4190.00,1.5435
4189.00,1.5307
4188.00,1.5174
4187.00,1.5035
4186.00,1.4891
4185.00,1.4741
4184.00,1.4585
4183.00,1.4422
4182.00,1.4253
4181.00,1.4077
4180.00,1.3896
4179.00,1.3709
4178.00,1.3516
4177.00,1.3318
4176.00,1.3113
4175.00,1.2904
4174.00,1.2691
4173.00,1.2475
4172.00,1.2258
4171.00,1.2038
4170.00,1.1816
4169.00,1.1595
4168.00,1.1374
4167.00,1.1156
4166.00,1.0939
4165.00,1.0725
4164.00,1.0515
4163.00,1.0309
4162.00,1.0110
4161.00,0.9919
4160.00,0.9738
4159.00,0.9566
4158.00,0.9406
4157.00,0.9258
4156.00,0.9123
4155.00,0.9003
4154.00,0.8897
4153.00,0.8807
4152.00,0.8732
4151.00,0.8674
4150.00,0.8632
4149.00,0.8607
4148.00,0.8600
4147.00,0.8611
4146.00,0.8640
4145.00,0.8687
4144.00,0.8751
4143.00,0.8832
4142.00,0.8928
4141.00,0.9039
4140.00,0.9165
4139.00,0.9304
4138.00,0.9456
4137.00,0.9619
4136.00,0.9793
4135.00,0.9976
4134.00,1.0168
4133.00,1.0366
4132.00,1.0569
4131.00,1.0777
4130.00,1.0990
4129.00,1.1205
4128.00,1.1422
4127.00,1.1641
4126.00,1.1861
4125.00,1.2081
4124.00,1.2301
4123.00,1.2521
4122.00,1.2739
4121.00,1.2955
4120.00,1.3168
4119.00,1.3377
4118.00,1.3582
4117.00,1.3783
4116.00,1.3980
4115.00,1.4173
4114.00,1.4360
4113.00,1.4542
4112.00,1.4719
4111.00,1.4892
4110.00,1.5058
4109.00,1.5216
4108.00,1.5365
4107.00,1.5506
4106.00,1.5642
4105.00,1.5774
4104.00,1.5902
4103.00,1.6023
4102.00,1.6138
4101.00,1.6246
4100.00,1.6349
4099.00,1.6446
4098.00,1.6537
4097.00,1.6622
4096.00,1.6701
4095.00,1.6773
4094.00,1.6839
4093.00,1.6900
4092.00,1.6955
4091.00,1.7007
4090.00,1.7054
4089.00,1.7096
4088.00,1.7133
4087.00,1.7164
4086.00,1.7189
4085.00,1.7208
4084.00,1.7221
4083.00,1.7231
4082.00,1.7238
4081.00,1.7242
4080.00,1.7242
4079.00,1.7236
4078.00,1.7224
4077.00,1.7209
4076.00,1.7192
4075.00,1.7169
4074.00,1.7139
4073.00,1.7100
4072.00,1.7052
4071.00,1.6999
4070.00,1.6942
4069.00,1.6881
4068.00,1.6816
4067.00,1.6745
4066.00,1.6670
4065.00,1.6590
4064.00,1.6504
4063.00,1.6411
4062.00,1.6310
4061.00,1.6203
4060.00,1.6090
4059.00,1.5972
4058.00,1.5850
4057.00,1.5722
4056.00,1.5588
4055.00,1.5448
4054.00,1.5301
4053.00,1.5149
4052.00,1.4990
4051.00,1.4823
4050.00,1.4650
4049.00,1.4469
4048.00,1.4282
4047.00,1.4090
4046.00,1.3894
4045.00,1.3695
4044.00,1.3491
4043.00,1.3282
4042.00,1.3069
4041.00,1.2849
4040.00,1.2624
4039.00,1.2393
4038.00,1.2160
4037.00,1.1926
4036.00,1.1691
4035.00,1.1456
4034.00,1.1221
4033.00,1.0989
4032.00,1.0759
4031.00,1.0534
4030.00,1.0316
4029.00,1.0104
4028.00,0.9901
4027.00,0.9710
4026.00,0.9531
4025.00,0.9366
4024.00,0.9215
4023.00,0.9079
4022.00,0.8959
4021.00,0.8857
4020.00,0.8773
4019.00,0.8708
4018.00,0.8661
4017.00,0.8632
4016.00,0.8623
4015.00,0.8633
4014.00,0.8662
4013.00,0.8711
4012.00,0.8778
4011.00,0.8863
4010.00,0.8965
4009.00,0.9085
4008.00,0.9221
4007.00,0.9370
4006.00,0.9532
4005.00,0.9705
4004.00,0.9890
4003.00,1.0085
4002.00,1.0289
4001.00,1.0501
4000.00,1.0719
3999.00,1.0942
3998.00,1.1169
3997.00,1.1400
3996.00,1.1635
3995.00,1.1873
3994.00,1.2113
3993.00,1.2354
3992.00,1.2594
3991.00,1.2832
3990.00,1.3067
3989.00,1.3300
3988.00,1.3530
3987.00,1.3757
3986.00,1.3980
3985.00,1.4197
3984.00,1.4409
3983.00,1.4613
3982.00,1.4811
3981.00,1.5003
3980.00,1.5191
3979.00,1.5372
3978.00,1.5544
3977.00,1.5707
3976.00,1.5859
3975.00,1.6004
3974.00,1.6144
3973.00,1.6280
3972.00,1.6410
3971.00,1.6534
3970.00,1.6651
3969.00,1.6763
3968.00,1.6873
3967.00,1.6977
3966.00,1.7075
3965.00,1.7164
3964.00,1.7244
3963.00,1.7315
3962.00,1.7381
3961.00,1.7441
3960.00,1.7497
3959.00,1.7548
3958.00,1.7593
3957.00,1.7635
3956.00,1.7676
3955.00,1.7715
3954.00,1.7751
3953.00,1.7781
3952.00,1.7806
3951.00,1.7824
3950.00,1.7837
3949.00,1.7843
3948.00,1.7843
3947.00,1.7836
3946.00,1.7823
3945.00,1.7806
3944.00,1.7784
3943.00,1.7758
3942.00,1.7727
3941.00,1.7690
3940.00,1.7649
3939.00,1.7604
3938.00,1.7557
3937.00,1.7507
3936.00,1.7455
3935.00,1.7397
3934.00,1.7329
3933.00,1.7248
3932.00,1.7156
3931.00,1.7057
3930.00,1.6955
3929.00,1.6851
3928.00,1.6745
3927.00,1.6636
3926.00,1.6521
3925.00,1.6398
3924.00,1.6267
3923.00,1.6128
3922.00,1.5984
3921.00,1.5834
3920.00,1.5677
3919.00,1.5507
3918.00,1.5323
3917.00,1.5125
3916.00,1.4916
3915.00,1.4702
3914.00,1.4487
3913.00,1.4268
3912.00,1.4043
3911.00,1.3812
3910.00,1.3576
3909.00,1.3337
3908.00,1.3097
3907.00,1.2855
3906.00,1.2606
3905.00,1.2347
3904.00,1.2075
3903.00,1.1790
3902.00,1.1499
3901.00,1.1209
3900.00,1.0924
3899.00,1.0647
3898.00,1.0382
3897.00,1.0136
3896.00,0.9912
3895.00,0.9708
3894.00,0.9521
3893.00,0.9346
3892.00,0.9179
3891.00,0.9021
3890.00,0.8877
3889.00,0.8756
3888.00,0.8664
3887.00,0.8596
3886.00,0.8547
3885.00,0.8511
3884.00,0.8490
3883.00,0.8492
3882.00,0.8528
3881.00,0.8598
3880.00,0.8695
3879.00,0.8806
3878.00,0.8925
3877.00,0.9055
3876.00,0.9206
3875.00,0.9386
3874.00,0.9589
3873.00,0.9802
3872.00,1.0017
3871.00,1.0242
3870.00,1.0486
3869.00,1.0743
3868.00,1.0997
3867.00,1.1240
3866.00,1.1480
3865.00,1.1730
3864.00,1.1995
3863.00,1.2270
3862.00,1.2542
3861.00,1.2810
3860.00,1.3074
3859.00,1.3339
3858.00,1.3600
3857.00,1.3846
3856.00,1.4066
3855.00,1.4272
3854.00,1.4492
3853.00,1.4730
3852.00,1.4968
3851.00,1.5194
3850.00,1.5404
3849.00,1.5600
3848.00,1.5784
3847.00,1.5955
3846.00,1.6115
3845.00,1.6265
3844.00,1.6407
3843.00,1.6544
3842.00,1.6677
3841.00,1.6805
3840.00,1.6932
3839.00,1.7058
3838.00,1.7179
3837.00,1.7293
3836.00,1.7395
3835.00,1.7487
3834.00,1.7573
3833.00,1.7657
3832.00,1.7737
3831.00,1.7812
3830.00,1.7880
3829.00,1.7941
3828.00,1.7997
3827.00,1.8051
3826.00,1.8101
3825.00,1.8139
3824.00,1.8158
3823.00,1.8166
3822.00,1.8179
3821.00,1.8196
3820.00,1.8209
3819.00,1.8214
3818.00,1.8218
3817.00,1.8221
3816.00,1.8220
3815.00,1.8204
3814.00,1.8178
3813.00,1.8148
3812.00,1.8119
3811.00,1.8090
3810.00,1.8054
3809.00,1.8006
3808.00,1.7947
3807.00,1.7876
3806.00,1.7796
3805.00,1.7709
3804.00,1.7618
3803.00,1.7529
3802.00,1.7442
3801.00,1.7346
3800.00,1.7236
3799.00,1.7125
3798.00,1.7022
3797.00,1.6926
3796.00,1.6830
3795.00,1.6728
3794.00,1.6618
3793.00,1.6499
3792.00,1.6367
3791.00,1.6225
3790.00,1.6073
3789.00,1.5909
3788.00,1.5733
3787.00,1.5549
3786.00,1.5360
3785.00,1.5162
3784.00,1.4954
3783.00,1.4735
3782.00,1.4507
3781.00,1.4273
3780.00,1.4032
3779.00,1.3784
3778.00,1.3526
3777.00,1.3263
3776.00,1.2998
3775.00,1.2731
3774.00,1.2463
3773.00,1.2193
3772.00,1.1921
3771.00,1.1646
3770.00,1.1367
3769.00,1.1087
3768.00,1.0814
3767.00,1.0554
3766.00,1.0307
3765.00,1.0071
3764.00,0.9847
3763.00,0.9638
3762.00,0.9448
3761.00,0.9278
3760.00,0.9127
3759.00,0.8995
3758.00,0.8885
3757.00,0.8802
3756.00,0.8749
3755.00,0.8724
3754.00,0.8722
3753.00,0.8742
3752.00,0.8788
3751.00,0.8861
3750.00,0.8961
3749.00,0.9086
3748.00,0.9234
3747.00,0.9396
3746.00,0.9576
3745.00,0.9783
3744.00,1.0013
3743.00,1.0252
3742.00,1.0487
3741.00,1.0724
3740.00,1.0973
3739.00,1.1232
3738.00,1.1495
3737.00,1.1761
3736.00,1.2039
3735.00,1.2331
3734.00,1.2633
3733.00,1.2942
3732.00,1.3257
3731.00,1.3570
3730.00,1.3871
3729.00,1.4155
3728.00,1.4423
3727.00,1.4681
3726.00,1.4929
3725.00,1.5169
3724.00,1.5404
3723.00,1.5636
3722.00,1.5864
3721.00,1.6085
3720.00,1.6298
3719.00,1.6502
3718.00,1.6697
3717.00,1.6882
3716.00,1.7054
3715.00,1.7206
3714.00,1.7338
3713.00,1.7464
3712.00,1.7599
3711.00,1.7738
3710.00,1.7872
3709.00,1.7997
3708.00,1.8115
3707.00,1.8225
3706.00,1.8326
3705.00,1.8420
3704.00,1.8509
3703.00,1.8594
3702.00,1.8674
3701.00,1.8747
3700.00,1.8812
3699.00,1.8867
3698.00,1.8911
3697.00,1.8950
3696.00,1.8985
3695.00,1.9013
3694.00,1.9028
3693.00,1.9035
3692.00,1.9041
3691.00,1.9054
3690.00,1.9076
3689.00,1.9096
3688.00,1.9099
3687.00,1.9080
3686.00,1.9047
3685.00,1.9015
3684.00,1.8988
3683.00,1.8961
3682.00,1.8931
3681.00,1.8899
3680.00,1.8865
3679.00,1.8823
3678.00,1.8764
3677.00,1.8692
3676.00,1.8614
3675.00,1.8523
3674.00,1.8422
3673.00,1.8323
3672.00,1.8230
3671.00,1.8137
3670.00,1.8036
3669.00,1.7920
3668.00,1.7796
3667.00,1.7672
3666.00,1.7547
3665.00,1.7422
3664.00,1.7292
3663.00,1.7156
3662.00,1.7013
3661.00,1.6866
3660.00,1.6716
3659.00,1.6560
3658.00,1.6396
3657.00,1.6220
3656.00,1.6032
3655.00,1.5838
3654.00,1.5651
3653.00,1.5474
3652.00,1.5300
3651.00,1.5121
3650.00,1.4937
3649.00,1.4745
3648.00,1.4550
3647.00,1.4358
3646.00,1.4183
3645.00,1.4030
3644.00,1.3895
3643.00,1.3773
3642.00,1.3656
3641.00,1.3542
3640.00,1.3434
3639.00,1.3334
3638.00,1.3246
3637.00,1.3170
3636.00,1.3106
3635.00,1.3057
3634.00,1.3028
3633.00,1.3020
3632.00,1.3025
3631.00,1.3038
3630.00,1.3055
3629.00,1.3075
3628.00,1.3090
3627.00,1.3107
3626.00,1.3143
3625.00,1.3208
3624.00,1.3297
3623.00,1.3400
3622.00,1.3509
3621.00,1.3621
3620.00,1.3739
3619.00,1.3862
3618.00,1.3989
3617.00,1.4119
3616.00,1.4255
3615.00,1.4403
3614.00,1.4565
3613.00,1.4738
3612.00,1.4911
3611.00,1.5076
3610.00,1.5230
3609.00,1.5383
3608.00,1.5540
3607.00,1.5701
3606.00,1.5863
3605.00,1.6026
3604.00,1.6187
3603.00,1.6347
3602.00,1.6507
3601.00,1.6670
3600.00,1.6833
3599.00,1.6996
3598.00,1.7155
3597.00,1.7308
3596.00,1.7455
3595.00,1.7599
3594.00,1.7744
3593.00,1.7892
3592.00,1.8042
3591.00,1.8184
3590.00,1.8313
3589.00,1.8431
3588.00,1.8546
3587.00,1.8660
3586.00,1.8775
3585.00,1.8891
3584.00,1.9006
3583.00,1.9116
3582.00,1.9221
3581.00,1.9319
3580.00,1.9414
3579.00,1.9508
3578.00,1.9604
3577.00,1.9701
3576.00,1.9796
3575.00,1.9883
3574.00,1.9963
3573.00,2.0040
3572.00,2.0113
3571.00,2.0178
3570.00,2.0231
3569.00,2.0273
3568.00,2.0308
3567.00,2.0339
3566.00,2.0374
3565.00,2.0416
3564.00,2.0464
3563.00,2.0508
3562.00,2.0545
3561.00,2.0575
3560.00,2.0602
3559.00,2.0624
3558.00,2.0639
3557.00,2.0648
3556.00,2.0653
3555.00,2.0656
3554.00,2.0659
3553.00,2.0663
3552.00,2.0664
3551.00,2.0657
3550.00,2.0643
3549.00,2.0626
3548.00,2.0610
3547.00,2.0590
3546.00,2.0565
3545.00,2.0534
3544.00,2.0498
3543.00,2.0459
3542.00,2.0417
3541.00,2.0373
3540.00,2.0329
3539.00,2.0282
3538.00,2.0230
3537.00,2.0176
3536.00,2.0123
3535.00,2.0071
3534.00,2.0017
3533.00,1.9954
3532.00,1.9880
3531.00,1.9798
3530.00,1.9718
3529.00,1.9643
3528.00,1.9568
3527.00,1.9487
3526.00,1.9399
3525.00,1.9310
3524.00,1.9222
3523.00,1.9133
3522.00,1.9042
3521.00,1.8948
3520.00,1.8853
3519.00,1.8756
3518.00,1.8658
3517.00,1.8558
3516.00,1.8455
3515.00,1.8349
3514.00,1.8240
3513.00,1.8130
3512.00,1.8022
3511.00,1.7915
3510.00,1.7806
3509.00,1.7693
3508.00,1.7578
3507.00,1.7463
3506.00,1.7350
3505.00,1.7241
3504.00,1.7135
3503.00,1.7027
3502.00,1.6918
3501.00,1.6808
3500.00,1.6704
3499.00,1.6605
3498.00,1.6512
3497.00,1.6424
3496.00,1.6340
3495.00,1.6260
3494.00,1.6186
3493.00,1.6119
3492.00,1.6059
3491.00,1.6005
3490.00,1.5959
3489.00,1.5921
3488.00,1.5893
3487.00,1.5873
3486.00,1.5860
3485.00,1.5854
3484.00,1.5857
3483.00,1.5871
3482.00,1.5896
3481.00,1.5930
3480.00,1.5970
3479.00,1.6016
3478.00,1.6069
3477.00,1.6130
3476.00,1.6200
3475.00,1.6277
3474.00,1.6363
3473.00,1.6457
3472.00,1.6557
3471.00,1.6662
3470.00,1.6770
3469.00,1.6881
3468.00,1.6997
3467.00,1.7116
3466.00,1.7238
3465.00,1.7362
3464.00,1.7490
3463.00,1.7620
3462.00,1.7754
3461.00,1.7890
3460.00,1.8025
3459.00,1.8158
3458.00,1.8289
3457.00,1.8421
3456.00,1.8554
3455.00,1.8686
3454.00,1.8814
3453.00,1.8938
3452.00,1.9060
3451.00,1.9181
3450.00,1.9300
3449.00,1.9418
3448.00,1.9532
3447.00,1.9641
3446.00,1.9749
3445.00,1.9855
3444.00,1.9960
3443.00,2.0061
3442.00,2.0156
3441.00,2.0249
3440.00,2.0339
3439.00,2.0424
3438.00,2.0501
3437.00,2.0572
3436.00,2.0642
3435.00,2.0714
3434.00,2.0789
3433.00,2.0862
3432.00,2.0929
3431.00,2.0986
3430.00,2.1033
3429.00,2.1075
3428.00,2.1116
3427.00,2.1154
3426.00,2.1186
3425.00,2.1213
3424.00,2.1240
3423.00,2.1269
3422.00,2.1299
3421.00,2.1324
3420.00,2.1337
3419.00,2.1340
3418.00,2.1342
3417.00,2.1353
3416.00,2.1370
3415.00,2.1387
3414.00,2.1395
3413.00,2.1393
3412.00,2.1384
3411.00,2.1370
3410.00,2.1354
3409.00,2.1340
3408.00,2.1323
3407.00,2.1302
3406.00,2.1275
3405.00,2.1241
3404.00,2.1203
3403.00,2.1157
3402.00,2.1104
3401.00,2.1042
3400.00,2.0973
3399.00,2.0900
3398.00,2.0825
3397.00,2.0748
3396.00,2.0667
3395.00,2.0579
3394.00,2.0485
3393.00,2.0387
3392.00,2.0285
3391.00,2.0176
3390.00,2.0061
3389.00,1.9938
3388.00,1.9810
3387.00,1.9676
3386.00,1.9540
3385.00,1.9403
3384.00,1.9262
3383.00,1.9113
3382.00,1.8957
3381.00,1.8797
3380.00,1.8634
3379.00,1.8468
3378.00,1.8295
3377.00,1.8118
3376.00,1.7935
3375.00,1.7748
3374.00,1.7557
3373.00,1.7365
3372.00,1.7172
3371.00,1.6979
3370.00,1.6786
3369.00,1.6593
3368.00,1.6402
3367.00,1.6215
3366.00,1.6032
3365.00,1.5855
3364.00,1.5684
3363.00,1.5518
3362.00,1.5359
3361.00,1.5208
3360.00,1.5066
3359.00,1.4937
3358.00,1.4820
3357.00,1.4717
3356.00,1.4627
3355.00,1.4551
3354.00,1.4488
3353.00,1.4441
3352.00,1.4410
3351.00,1.4395
3350.00,1.4396
3349.00,1.4412
3348.00,1.4444
3347.00,1.4492
3346.00,1.4556
3345.00,1.4635
3344.00,1.4727
3343.00,1.4831
3342.00,1.4947
3341.00,1.5073
3340.00,1.5208
3339.00,1.5353
3338.00,1.5507
3337.00,1.5668
3336.00,1.5837
3335.00,1.6013
3334.00,1.6194
3333.00,1.6380
3332.00,1.6567
3331.00,1.6752
3330.00,1.6937
3329.00,1.7125
3328.00,1.7315
3327.00,1.7506
3326.00,1.7693
3325.00,1.7875
3324.00,1.8051
3323.00,1.8226
3322.00,1.8400
3321.00,1.8574
3320.00,1.8743
3319.00,1.8902
3318.00,1.9051
3317.00,1.9196
3316.00,1.9341
3315.00,1.9487
3314.00,1.9632
3313.00,1.9773
3312.00,1.9908
3311.00,2.0033
3310.00,2.0146
3309.00,2.0251
3308.00,2.0350
3307.00,2.0444
3306.00,2.0534
3305.00,2.0623
3304.00,2.0716
3303.00,2.0812
3302.00,2.0906
3301.00,2.0987
3300.00,2.1052
3299.00,2.1104
3298.00,2.1151
3297.00,2.1198
3296.00,2.1249
3295.00,2.1298
3294.00,2.1342
3293.00,2.1378
3292.00,2.1405
3291.00,2.1425
3290.00,2.1439
3289.00,2.1452
3288.00,2.1462
3287.00,2.1467
3286.00,2.1470
3285.00,2.1472
3284.00,2.1470
3283.00,2.1461
3282.00,2.1443
3281.00,2.1420
3280.00,2.1394
3279.00,2.1364
3278.00,2.1331
3277.00,2.1297
3276.00,2.1262
3275.00,2.1222
3274.00,2.1174
3273.00,2.1121
3272.00,2.1063
3271.00,2.1002
3270.00,2.0936
3269.00,2.0863
3268.00,2.0784
3267.00,2.0699
3266.00,2.0607
3265.00,2.0511
3264.00,2.0413
3263.00,2.0313
3262.00,2.0209
3261.00,2.0099
3260.00,1.9985
3259.00,1.9867
3258.00,1.9745
3257.00,1.9617
3256.00,1.9482
3255.00,1.9341
3254.00,1.9196
3253.00,1.9047
3252.00,1.8894
3251.00,1.8737
3250.00,1.8577
3249.00,1.8413
3248.00,1.8245
3247.00,1.8076
3246.00,1.7909
3245.00,1.7742
3244.00,1.7576
3243.00,1.7408
3242.00,1.7237
3241.00,1.7065
3240.00,1.6894
3239.00,1.6725
3238.00,1.6562
3237.00,1.6406
3236.00,1.6257
3235.00,1.6112
3234.00,1.5974
3233.00,1.5842
3232.00,1.5720
3231.00,1.5608
3230.00,1.5507
3229.00,1.5418
3228.00,1.5342
3227.00,1.5277
3226.00,1.5225
3225.00,1.5187
3224.00,1.5162
3223.00,1.5151
3222.00,1.5156
3221.00,1.5176
3220.00,1.5211
3219.00,1.5259
3218.00,1.5319
3217.00,1.5393
3216.00,1.5481
3215.00,1.5581
3214.00,1.5692
3213.00,1.5813
3212.00,1.5942
3211.00,1.6077
3210.00,1.6220
3209.00,1.6372
3208.00,1.6533
3207.00,1.6703
3206.00,1.6879
3205.00,1.7058
3204.00,1.7237
3203.00,1.7415
3202.00,1.7592
3201.00,1.7770
3200.00,1.7951
3199.00,1.8133
3198.00,1.8315
3197.00,1.8493
3196.00,1.8667
3195.00,1.8839
3194.00,1.9011
3193.00,1.9183
3192.00,1.9350
3191.00,1.9510
3190.00,1.9661
3189.00,1.9806
3188.00,1.9946
3187.00,2.0084
3186.00,2.0222
3185.00,2.0360
3184.00,2.0492
3183.00,2.0616
3182.00,2.0732
3181.00,2.0842
3180.00,2.0946
3179.00,2.1045
3178.00,2.1138
3177.00,2.1227
3176.00,2.1310
3175.00,2.1387
3174.00,2.1460
3173.00,2.1529
3172.00,2.1595
3171.00,2.1658
3170.00,2.1721
3169.00,2.1778
3168.00,2.1823
3167.00,2.1854
3166.00,2.1880
3165.00,2.1911
3164.00,2.1947
3163.00,2.1982
3162.00,2.2011
3161.00,2.2032
3160.00,2.2047
3159.00,2.2057
3158.00,2.2065
3157.00,2.2075
3156.00,2.2085
3155.00,2.2092
3154.00,2.2094
3153.00,2.2092
3152.00,2.2087
3151.00,2.2073
3150.00,2.2049
3149.00,2.2012
3148.00,2.1964
3147.00,2.1909
3146.00,2.1852
3145.00,2.1798
3144.00,2.1745
3143.00,2.1694
3142.00,2.1644
3141.00,2.1590
3140.00,2.1525
3139.00,2.1443
3138.00,2.1348
3137.00,2.1243
3136.00,2.1135
3135.00,2.1025
3134.00,2.0918
3133.00,2.0810
3132.00,2.0696
3131.00,2.0570
3130.00,2.0435
3129.00,2.0295
3128.00,2.0154
3127.00,2.0007
3126.00,1.9852
3125.00,1.9691
3124.00,1.9527
3123.00,1.9361
3122.00,1.9192
3121.00,1.9015
3120.00,1.8832
3119.00,1.8642
3118.00,1.8448
3117.00,1.8255
3116.00,1.8062
3115.00,1.7871
3114.00,1.7683
3113.00,1.7496
3112.00,1.7311
3111.00,1.7129
3110.00,1.6951
3109.00,1.6778
3108.00,1.6612
3107.00,1.6454
3106.00,1.6306
3105.00,1.6170
3104.00,1.6046
3103.00,1.5933
3102.00,1.5835
3101.00,1.5752
3100.00,1.5687
3099.00,1.5641
3098.00,1.5614
3097.00,1.5606
3096.00,1.5614
3095.00,1.5639
3094.00,1.5682
3093.00,1.5745
3092.00,1.5828
3091.00,1.5927
3090.00,1.6041
3089.00,1.6169
3088.00,1.6310
3087.00,1.6463
3086.00,1.6628
3085.00,1.6805
3084.00,1.6991
3083.00,1.7185
3082.00,1.7384
3081.00,1.7588
3080.00,1.7795
3079.00,1.8006
3078.00,1.8221
3077.00,1.8438
3076.00,1.8652
3075.00,1.8862
3074.00,1.9068
3073.00,1.9274
3072.00,1.9477
3071.00,1.9676
3070.00,1.9870
3069.00,2.0063
3068.00,2.0255
3067.00,2.0444
3066.00,2.0624
3065.00,2.0794
3064.00,2.0957
3063.00,2.1115
3062.00,2.1268
3061.00,2.1416
3060.00,2.1556
3059.00,2.1683
3058.00,2.1800
3057.00,2.1908
3056.00,2.2013
3055.00,2.2114
3054.00,2.2211
3053.00,2.2302
3052.00,2.2388
3051.00,2.2468
3050.00,2.2540
3049.00,2.2604
3048.00,2.2656
3047.00,2.2699
3046.00,2.2738
3045.00,2.2776
3044.00,2.2812
3043.00,2.2842
3042.00,2.2866
3041.00,2.2883
3040.00,2.2894
3039.00,2.2894
3038.00,2.2881
3037.00,2.2859
3036.00,2.2835
3035.00,2.2810
3034.00,2.2778
3033.00,2.2736
3032.00,2.2683
3031.00,2.2621
3030.00,2.2551
3029.00,2.2476
3028.00,2.2397
3027.00,2.2314
3026.00,2.2226
3025.00,2.2125
3024.00,2.2006
3023.00,2.1871
3022.00,2.1727
3021.00,2.1577
3020.00,2.1423
3019.00,2.1263
3018.00,2.1093
3017.00,2.0912
3016.00,2.0717
3015.00,2.0506
3014.00,2.0285
3013.00,2.0058
3012.00,1.9830
3011.00,1.9601
3010.00,1.9373
3009.00,1.9150
3008.00,1.8934
3007.00,1.8728
3006.00,1.8536
3005.00,1.8363
3004.00,1.8214
3003.00,1.8096
3002.00,1.8014
3001.00,1.7972
3000.00,1.7974
2999.00,1.8023
2998.00,1.8120
2997.00,1.8266
2996.00,1.8459
2995.00,1.8698
2994.00,1.8980
2993.00,1.9302
2992.00,1.9657
2991.00,2.0037
2990.00,2.0437
2989.00,2.0854
2988.00,2.1286
2987.00,2.1729
2986.00,2.2178
2985.00,2.2628
2984.00,2.3075
2983.00,2.3515
2982.00,2.3951
2981.00,2.4381
2980.00,2.4805
2979.00,2.5223
2978.00,2.5644
2977.00,2.6077
2976.00,2.6528
2975.00,2.6998
2974.00,2.7493
2973.00,2.8021
2972.00,2.8580
2971.00,2.9154
2970.00,2.9730
2969.00,3.0320
2968.00,3.0958
2967.00,3.1678
2966.00,3.2476
2965.00,3.3274
2964.00,3.3935
2963.00,3.4418
2962.00,3.4859
2961.00,3.5405
2960.00,3.6019
2959.00,3.6533
2958.00,3.6906
2957.00,3.7257
2956.00,3.7643
2955.00,3.7993
2954.00,3.8290
2953.00,3.8666
2952.00,3.9216
2951.00,3.9834
2950.00,4.0239
2949.00,4.0290
2948.00,4.0179
2947.00,4.0171
2946.00,4.0394
2945.00,4.0794
2944.00,4.1114
2943.00,4.1107
2942.00,4.0910
2941.00,4.0972
2940.00,4.1635
2939.00,4.2927
2938.00,4.4532
2937.00,4.5668
2936.00,4.5416
2935.00,4.4469
2934.00,4.3677
2933.00,4.3773
2932.00,4.4817
2931.00,4.7567
2930.00,5.2886
2929.00,4.9259
2928.00,4.4910
2927.00,4.2370
2926.00,4.1355
2925.00,4.1006
2924.00,4.0917
2923.00,4.0918
2922.00,4.0521
2921.00,3.9708
2920.00,3.8638
2919.00,3.7578
2918.00,3.6650
2917.00,3.5868
2916.00,3.5188
2915.00,3.4544
2914.00,3.3925
2913.00,3.3384
2912.00,3.2933
2911.00,3.2517
2910.00,3.2090
2909.00,3.1661
2908.00,3.1272
2907.00,3.0946
2906.00,3.0666
2905.00,3.0393
2904.00,3.0102
2903.00,2.9797
2902.00,2.9499
2901.00,2.9212
2900.00,2.8933
2899.00,2.8671
2898.00,2.8447
2897.00,2.8271
2896.00,2.8130
2895.00,2.8004
2894.00,2.7884
2893.00,2.7774
2892.00,2.7678
2891.00,2.7601
2890.00,2.7555
2889.00,2.7548
2888.00,2.7570
2887.00,2.7611
2886.00,2.7673
2885.00,2.7779
2884.00,2.7950
2883.00,2.8185
2882.00,2.8461
2881.00,2.8747
2880.00,2.9023
2879.00,2.9298
2878.00,2.9607
2877.00,2.9991
2876.00,3.0461
2875.00,3.0989
2874.00,3.1527
2873.00,3.2039
2872.00,3.2525
2871.00,3.3035
2870.00,3.3645
2869.00,3.4401
2868.00,3.5267
2867.00,3.6148
2866.00,3.6930
2865.00,3.7535
2864.00,3.7922
2863.00,3.7978
2862.00,3.7600
2861.00,3.6943
2860.00,3.6301
2859.00,3.5772
2858.00,3.5222
2857.00,3.4487
2856.00,3.3542
2855.00,3.2471
2854.00,3.1369
2853.00,3.0288
2852.00,2.9254
2851.00,2.8292
2850.00,2.7413
2849.00,2.6622
2848.00,2.5923
2847.00,2.5328
2846.00,2.4846
2845.00,2.4477
2844.00,2.4212
2843.00,2.4035
2842.00,2.3934
2841.00,2.3895
2840.00,2.3903
2839.00,2.3944
2838.00,2.4008
2837.00,2.4088
2836.00,2.4176
2835.00,2.4268
2834.00,2.4356
2833.00,2.4437
2832.00,2.4508
2831.00,2.4568
2830.00,2.4615
2829.00,2.4641
2828.00,2.4645
2827.00,2.4631
2826.00,2.4609
2825.00,2.4583
2824.00,2.4552
2823.00,2.4516
2822.00,2.4475
2821.00,2.4428
2820.00,2.4367
2819.00,2.4294
2818.00,2.4213
2817.00,2.4127
2816.00,2.4028
2815.00,2.3915
2814.00,2.3793
2813.00,2.3666
2812.00,2.3532
2811.00,2.3383
2810.00,2.3220
2809.00,2.3050
2808.00,2.2876
2807.00,2.2695
2806.00,2.2502
2805.00,2.2295
2804.00,2.2075
2803.00,2.1843
2802.00,2.1604
2801.00,2.1362
2800.00,2.1120
2799.00,2.0875
2798.00,2.0627
2797.00,2.0372
2796.00,2.0103
2795.00,1.9812
2794.00,1.9497
2793.00,1.9161
2792.00,1.8809
2791.00,1.8444
2790.00,1.8069
2789.00,1.7686
2788.00,1.7299
2787.00,1.6916
2786.00,1.6545
2785.00,1.6192
2784.00,1.5863
2783.00,1.5562
2782.00,1.5295
2781.00,1.5065
2780.00,1.4876
2779.00,1.4728
2778.00,1.4621
2777.00,1.4558
2776.00,1.4539
2775.00,1.4563
2774.00,1.4632
2773.00,1.4743
2772.00,1.4894
2771.00,1.5081
2770.00,1.5300
2769.00,1.5548
2768.00,1.5821
2767.00,1.6114
2766.00,1.6422
2765.00,1.6741
2764.00,1.7067
2763.00,1.7394
2762.00,1.7721
2761.00,1.8045
2760.00,1.8366
2759.00,1.8681
2758.00,1.8987
2757.00,1.9284
2756.00,1.9575
2755.00,1.9860
2754.00,2.0139
2753.00,2.0410
2752.00,2.0674
2751.00,2.0934
2750.00,2.1190
2749.00,2.1437
2748.00,2.1667
2747.00,2.1878
2746.00,2.2072
2745.00,2.2252
2744.00,2.2425
2743.00,2.2592
2742.00,2.2752
2741.00,2.2905
2740.00,2.3049
2739.00,2.3181
2738.00,2.3306
2737.00,2.3427
2736.00,2.3542
2735.00,2.3648
2734.00,2.3738
2733.00,2.3815
2732.00,2.3883
2731.00,2.3948
2730.00,2.4010
2729.00,2.4070
2728.00,2.4126
2727.00,2.4178
2726.00,2.4221
2725.00,2.4253
2724.00,2.4275
2723.00,2.4292
2722.00,2.4309
2721.00,2.4323
2720.00,2.4328
2719.00,2.4322
2718.00,2.4309
2717.00,2.4291
2716.00,2.4267
2715.00,2.4237
2714.00,2.4203
2713.00,2.4167
2712.00,2.4128
2711.00,2.4083
2710.00,2.4028
2709.00,2.3964
2708.00,2.3890
2707.00,2.3812
2706.00,2.3735
2705.00,2.3657
2704.00,2.3571
2703.00,2.3469
2702.00,2.3352
2701.00,2.3225
2700.00,2.3090
2699.00,2.2947
2698.00,2.2796
2697.00,2.2641
2696.00,2.2483
2695.00,2.2321
2694.00,2.2149
2693.00,2.1963
2692.00,2.1761
2691.00,2.1544
2690.00,2.1318
2689.00,2.1083
2688.00,2.0840
2687.00,2.0592
2686.00,2.0343
2685.00,2.0095
2684.00,1.9848
2683.00,1.9600
2682.00,1.9357
2681.00,1.9123
2680.00,1.8902
2679.00,1.8694
2678.00,1.8496
2677.00,1.8303
2676.00,1.8111
2675.00,1.7916
2674.00,1.7718
2673.00,1.7519
2672.00,1.7321
2671.00,1.7122
2670.00,1.6919
2669.00,1.6709
2668.00,1.6487
2667.00,1.6250
2666.00,1.5998
2665.00,1.5739
2664.00,1.5484
2663.00,1.5247
2662.00,1.5043
2661.00,1.4880
2660.00,1.4766
2659.00,1.4702
2658.00,1.4689
2657.00,1.4725
2656.00,1.4808
2655.00,1.4931
2654.00,1.5088
2653.00,1.5274
2652.00,1.5482
2651.00,1.5708
2650.00,1.5949
2649.00,1.6201
2648.00,1.6462
2647.00,1.6732
2646.00,1.7008
2645.00,1.7290
2644.00,1.7575
2643.00,1.7863
2642.00,1.8157
2641.00,1.8458
2640.00,1.8766
2639.00,1.9075
2638.00,1.9382
2637.00,1.9683
2636.00,1.9981
2635.00,2.0275
2634.00,2.0563
2633.00,2.0844
2632.00,2.1117
2631.00,2.1379
2630.00,2.1630
2629.00,2.1869
2628.00,2.2093
2627.00,2.2301
2626.00,2.2497
2625.00,2.2687
2624.00,2.2875
2623.00,2.3055
2622.00,2.3224
2621.00,2.3383
2620.00,2.3536
2619.00,2.3682
2618.00,2.3817
2617.00,2.3943
2616.00,2.4066
2615.00,2.4188
2614.00,2.4300
2613.00,2.4390
2612.00,2.4454
2611.00,2.4505
2610.00,2.4566
2609.00,2.4644
2608.00,2.4735
2607.00,2.4821
2606.00,2.4895
2605.00,2.4953
2604.00,2.4998
2603.00,2.5027
2602.00,2.5045
2601.00,2.5059
2600.00,2.5080
2599.00,2.5109
2598.00,2.5140
2597.00,2.5158
2596.00,2.5159
2595.00,2.5150
2594.00,2.5144
2593.00,2.5147
2592.00,2.5153
2591.00,2.5147
2590.00,2.5122
2589.00,2.5080
2588.00,2.5034
2587.00,2.4995
2586.00,2.4962
2585.00,2.4925
2584.00,2.4879
2583.00,2.4821
2582.00,2.4751
2581.00,2.4673
2580.00,2.4590
2579.00,2.4507
2578.00,2.4427
2577.00,2.4349
2576.00,2.4263
2575.00,2.4162
2574.00,2.4043
2573.00,2.3911
2572.00,2.3770
2571.00,2.3628
2570.00,2.3487
2569.00,2.3348
2568.00,2.3205
2567.00,2.3053
2566.00,2.2887
2565.00,2.2705
2564.00,2.2506
2563.00,2.2292
2562.00,2.2067
2561.00,2.1834
2560.00,2.1594
2559.00,2.1342
2558.00,2.1075
2557.00,2.0791
2556.00,2.0491
2555.00,2.0174
2554.00,1.9846
2553.00,1.9511
2552.00,1.9167
2551.00,1.8811
2550.00,1.8443
2549.00,1.8065
2548.00,1.7683
2547.00,1.7300
2546.00,1.6919
2545.00,1.6543
2544.00,1.6174
2543.00,1.5817
2542.00,1.5474
2541.00,1.5150
2540.00,1.4848
2539.00,1.4572
2538.00,1.4327
2537.00,1.4115
2536.00,1.3942
2535.00,1.3810
2534.00,1.3722
2533.00,1.3678
2532.00,1.3678
2531.00,1.3722
2530.00,1.3810
2529.00,1.3940
2528.00,1.4112
2527.00,1.4321
2526.00,1.4563
2525.00,1.4834
2524.00,1.5129
2523.00,1.5443
2522.00,1.5773
2521.00,1.6115
2520.00,1.6469
2519.00,1.6831
2518.00,1.7199
2517.00,1.7573
2516.00,1.7950
2515.00,1.8328
2514.00,1.8704
2513.00,1.9078
2512.00,1.9445
2511.00,1.9800
2510.00,2.0140
2509.00,2.0464
2508.00,2.0776
2507.00,2.1077
2506.00,2.1370
2505.00,2.1655
2504.00,2.1928
2503.00,2.2183
2502.00,2.2420
2501.00,2.2641
2500.00,2.2851
2499.00,2.3054
2498.00,2.3252
2497.00,2.3445
2496.00,2.3632
2495.00,2.3810
2494.00,2.3978
2493.00,2.4140
2492.00,2.4296
2491.00,2.4443
2490.00,2.4576
2489.00,2.4696
2488.00,2.4809
2487.00,2.4924
2486.00,2.5040
2485.00,2.5146
2484.00,2.5234
2483.00,2.5304
2482.00,2.5370
2481.00,2.5442
2480.00,2.5518
2479.00,2.5590
2478.00,2.5653
2477.00,2.5707
2476.00,2.5754
2475.00,2.5794
2474.00,2.5833
2473.00,2.5871
2472.00,2.5904
2471.00,2.5929
2470.00,2.5953
2469.00,2.5978
2468.00,2.5999
2467.00,2.6005
2466.00,2.5993
2465.00,2.5972
2464.00,2.5951
2463.00,2.5933
2462.00,2.5917
2461.00,2.5902
2460.00,2.5884
2459.00,2.5855
2458.00,2.5814
2457.00,2.5761
2456.00,2.5698
2455.00,2.5623
2454.00,2.5543
2453.00,2.5461
2452.00,2.5380
2451.00,2.5299
2450.00,2.5218
2449.00,2.5137
2448.00,2.5050
2447.00,2.4949
2446.00,2.4832
2445.00,2.4709
2444.00,2.4583
2443.00,2.4450
2442.00,2.4304
2441.00,2.4145
2440.00,2.3980
2439.00,2.3810
2438.00,2.3633
2437.00,2.3446
2436.00,2.3248
2435.00,2.3038
2434.00,2.2815
2433.00,2.2581
2432.00,2.2334
2431.00,2.2074
2430.00,2.1804
2429.00,2.1524
2428.00,2.1231
2427.00,2.0923
2426.00,2.0597
2425.00,2.0257
2424.00,1.9904
2423.00,1.9537
2422.00,1.9155
2421.00,1.8756
2420.00,1.8343
2419.00,1.7917
2418.00,1.7481
2417.00,1.7037
2416.00,1.6589
2415.00,1.6142
2414.00,1.5702
2413.00,1.5277
2412.00,1.4875
2411.00,1.4501
2410.00,1.4162
2409.00,1.3862
2408.00,1.3605
2407.00,1.3398
2406.00,1.3245
2405.00,1.3152
2404.00,1.3121
2403.00,1.3156
2402.00,1.3254
2401.00,1.3414
2400.00,1.3630
2399.00,1.3896
2398.00,1.4208
2397.00,1.4557
2396.00,1.4938
2395.00,1.5343
2394.00,1.5766
2393.00,1.6200
2392.00,1.6643
2391.00,1.7090
2390.00,1.7539
2389.00,1.7985
2388.00,1.8423
2387.00,1.8848
2386.00,1.9252
2385.00,1.9631
2384.00,1.9983
2383.00,2.0306
2382.00,2.0600
2381.00,2.0866
2380.00,2.1114
2379.00,2.1354
2378.00,2.1593
2377.00,2.1836
2376.00,2.2083
2375.00,2.2334
2374.00,2.2588
2373.00,2.2843
2372.00,2.3095
2371.00,2.3336
2370.00,2.3564
2369.00,2.3779
2368.00,2.3984
2367.00,2.4183
2366.00,2.4382
2365.00,2.4581
2364.00,2.4767
2363.00,2.4935
2362.00,2.5088
2361.00,2.5231
2360.00,2.5373
2359.00,2.5509
2358.00,2.5633
2357.00,2.5748
2356.00,2.5861
2355.00,2.5989
2354.00,2.6131
2353.00,2.6260
2352.00,2.6347
2351.00,2.6390
2350.00,2.6434
2349.00,2.6503
2348.00,2.6580
2347.00,2.6634
2346.00,2.6652
2345.00,2.6664
2344.00,2.6694
2343.00,2.6756
2342.00,2.6822
2341.00,2.6866
2340.00,2.6884
2339.00,2.6876
2338.00,2.6849
2337.00,2.6809
2336.00,2.6762
2335.00,2.6711
2334.00,2.6661
2333.00,2.6603
2332.00,2.6534
2331.00,2.6447
2330.00,2.6354
2329.00,2.6255
2328.00,2.6160
2327.00,2.6077
2326.00,2.6002
2325.00,2.5931
2324.00,2.5845
2323.00,2.5746
2322.00,2.5639
2321.00,2.5532
2320.00,2.5427
2319.00,2.5313
2318.00,2.5188
2317.00,2.5053
2316.00,2.4922
2315.00,2.4795
2314.00,2.4665
2313.00,2.4519
2312.00,2.4360
2311.00,2.4194
2310.00,2.4028
2309.00,2.3859
2308.00,2.3687
2307.00,2.3512
2306.00,2.3335
2305.00,2.3151
2304.00,2.2957
2303.00,2.2749
2302.00,2.2524
2301.00,2.2279
2300.00,2.2016
2299.00,2.1739
2298.00,2.1455
2297.00,2.1160
2296.00,2.0852
2295.00,2.0525
2294.00,2.0183
2293.00,1.9823
2292.00,1.9440
2291.00,1.9030
2290.00,1.8594
2289.00,1.8139
2288.00,1.7673
2287.00,1.7200
2286.00,1.6725
2285.00,1.6255
2284.00,1.5798
2283.00,1.5364
2282.00,1.4960
2281.00,1.4593
2280.00,1.4272
2279.00,1.4005
2278.00,1.3799
2277.00,1.3657
2276.00,1.3584
2275.00,1.3578
2274.00,1.3642
2273.00,1.3770
2272.00,1.3960
2271.00,1.4205
2270.00,1.4498
2269.00,1.4833
2268.00,1.5205
2267.00,1.5607
2266.00,1.6035
2265.00,1.6484
2264.00,1.6949
2263.00,1.7426
2262.00,1.7909
2261.00,1.8395
2260.00,1.8881
2259.00,1.9361
2258.00,1.9831
2257.00,2.0284
2256.00,2.0716
2255.00,2.1124
2254.00,2.1508
2253.00,2.1868
2252.00,2.2203
2251.00,2.2516
2250.00,2.2811
2249.00,2.3094
2248.00,2.3366
2247.00,2.3627
2246.00,2.3878
2245.00,2.4122
2244.00,2.4357
2243.00,2.4581
2242.00,2.4797
2241.00,2.5006
2240.00,2.5206
2239.00,2.5387
2238.00,2.5548
2237.00,2.5695
2236.00,2.5834
2235.00,2.5970
2234.00,2.6102
2233.00,2.6229
2232.00,2.6348
2231.00,2.6462
2230.00,2.6578
2229.00,2.6702
2228.00,2.6826
2227.00,2.6937
2226.00,2.7033
2225.00,2.7123
2224.00,2.7211
2223.00,2.7285
2222.00,2.7336
2221.00,2.7372
2220.00,2.7413
2219.00,2.7468
2218.00,2.7536
2217.00,2.7610
2216.00,2.7676
2215.00,2.7717
2214.00,2.7726
2213.00,2.7719
2212.00,2.7714
2211.00,2.7720
2210.00,2.7737
2209.00,2.7756
2208.00,2.7771
2207.00,2.7775
2206.00,2.7768
2205.00,2.7757
2204.00,2.7749
2203.00,2.7743
2202.00,2.7732
2201.00,2.7706
2200.00,2.7662
2199.00,2.7601
2198.00,2.7531
2197.00,2.7454
2196.00,2.7369
2195.00,2.7273
2194.00,2.7175
2193.00,2.7090
2192.00,2.7020
2191.00,2.6950
2190.00,2.6865
2189.00,2.6766
2188.00,2.6659
2187.00,2.6544
2186.00,2.6419
2185.00,2.6280
2184.00,2.6133
2183.00,2.5981
2182.00,2.5825
2181.00,2.5663
2180.00,2.5498
2179.00,2.5328
2178.00,2.5150
2177.00,2.4961
2176.00,2.4764
2175.00,2.4563
2174.00,2.4353
2173.00,2.4124
2172.00,2.3870
2171.00,2.3591
2170.00,2.3293
2169.00,2.2977
2168.00,2.2646
2167.00,2.2298
2166.00,2.1932
2165.00,2.1545
2164.00,2.1133
2163.00,2.0695
2162.00,2.0233
2161.00,1.9752
2160.00,1.9256
2159.00,1.8749
2158.00,1.8234
2157.00,1.7718
2156.00,1.7208
2155.00,1.6712
2154.00,1.6240
2153.00,1.5803
2152.00,1.5408
2151.00,1.5062
2150.00,1.4771
2149.00,1.4543
2148.00,1.4383
2147.00,1.4297
2146.00,1.4287
2145.00,1.4357
2144.00,1.4503
2143.00,1.4721
2142.00,1.5003
2141.00,1.5340
2140.00,1.5722
2139.00,1.6142
2138.00,1.6591
2137.00,1.7062
2136.00,1.7547
2135.00,1.8037
2134.00,1.8526
2133.00,1.9010
2132.00,1.9483
2131.00,1.9945
2130.00,2.0394
2129.00,2.0830
2128.00,2.1253
2127.00,2.1663
2126.00,2.2060
2125.00,2.2448
2124.00,2.2829
2123.00,2.3196
2122.00,2.3541
2121.00,2.3863
2120.00,2.4168
2119.00,2.4460
2118.00,2.4733
2117.00,2.4978
2116.00,2.5198
2115.00,2.5402
2114.00,2.5602
2113.00,2.5801
2112.00,2.6001
2111.00,2.6201
2110.00,2.6399
2109.00,2.6583
2108.00,2.6745
2107.00,2.6885
2106.00,2.7011
2105.00,2.7124
2104.00,2.7230
2103.00,2.7338
2102.00,2.7463
2101.00,2.7605
2100.00,2.7748
2099.00,2.7872
2098.00,2.7970
2097.00,2.8056
2096.00,2.8148
2095.00,2.8251
2094.00,2.8350
2093.00,2.8426
2092.00,2.8478
2091.00,2.8517
2090.00,2.8557
2089.00,2.8592
2088.00,2.8616
2087.00,2.8635
2086.00,2.8661
2085.00,2.8698
2084.00,2.8731
2083.00,2.8750
2082.00,2.8760
2081.00,2.8767
2080.00,2.8768
2079.00,2.8757
2078.00,2.8738
2077.00,2.8722
2076.00,2.8711
2075.00,2.8698
2074.00,2.8667
2073.00,2.8617
2072.00,2.8557
2071.00,2.8503
2070.00,2.8453
2069.00,2.8393
2068.00,2.8310
2067.00,2.8211
2066.00,2.8116
2065.00,2.8041
2064.00,2.7983
2063.00,2.7932
2062.00,2.7881
2061.00,2.7824
2060.00,2.7755
2059.00,2.7663
2058.00,2.7544
2057.00,2.7402
2056.00,2.7247
2055.00,2.7091
2054.00,2.6940
2053.00,2.6784
2052.00,2.6611
2051.00,2.6416
2050.00,2.6207
2049.00,2.5992
2048.00,2.5776
2047.00,2.5551
2046.00,2.5301
2045.00,2.5020
2044.00,2.4709
2043.00,2.4380
2042.00,2.4049
2041.00,2.3721
2040.00,2.3389
2039.00,2.3044
2038.00,2.2672
2037.00,2.2271
2036.00,2.1843
2035.00,2.1391
2034.00,2.0921
2033.00,2.0432
2032.00,1.9925
2031.00,1.9402
2030.00,1.8872
2029.00,1.8343
2028.00,1.7825
2027.00,1.7326
2026.00,1.6854
2025.00,1.6422
2024.00,1.6040
2023.00,1.5714
2022.00,1.5445
2021.00,1.5237
2020.00,1.5099
2019.00,1.5041
2018.00,1.5070
2017.00,1.5190
2016.00,1.5397
2015.00,1.5684
2014.00,1.6033
2013.00,1.6428
2012.00,1.6855
2011.00,1.7309
2010.00,1.7785
2009.00,1.8278
2008.00,1.8782
2007.00,1.9291
2006.00,1.9804
2005.00,2.0315
2004.00,2.0820
2003.00,2.1311
2002.00,2.1785
2001.00,2.2236
2000.00,2.2668
1999.00,2.3084
1998.00,2.3485
1997.00,2.3857
1996.00,2.4194
1995.00,2.4503
1994.00,2.4797
1993.00,2.5080
1992.00,2.5349
1991.00,2.5615
1990.00,2.5889
1989.00,2.6168
1988.00,2.6437
1987.00,2.6685
1986.00,2.6916
1985.00,2.7132
1984.00,2.7331
1983.00,2.7514
1982.00,2.7693
1981.00,2.7870
1980.00,2.8033
1979.00,2.8178
1978.00,2.8315
1977.00,2.8454
1976.00,2.8588
1975.00,2.8700
1974.00,2.8787
1973.00,2.8859
1972.00,2.8918
1971.00,2.8963
1970.00,2.8998
1969.00,2.9038
1968.00,2.9097
1967.00,2.9172
1966.00,2.9255
1965.00,2.9335
1964.00,2.9405
1963.00,2.9459
1962.00,2.9501
1961.00,2.9544
1960.00,2.9596
1959.00,2.9651
1958.00,2.9698
1957.00,2.9727
1956.00,2.9733
1955.00,2.9718
1954.00,2.9688
1953.00,2.9656
1952.00,2.9630
1951.00,2.9606
1950.00,2.9585
1949.00,2.9568
1948.00,2.9545
1947.00,2.9494
1946.00,2.9414
1945.00,2.9327
1944.00,2.9255
1943.00,2.9191
1942.00,2.9121
1941.00,2.9048
1940.00,2.8983
1939.00,2.8921
1938.00,2.8844
1937.00,2.8743
1936.00,2.8626
1935.00,2.8508
1934.00,2.8394
1933.00,2.8284
1932.00,2.8167
1931.00,2.8030
1930.00,2.7879
1929.00,2.7718
1928.00,2.7542
1927.00,2.7332
1926.00,2.7083
1925.00,2.6816
1924.00,2.6536
1923.00,2.6231
1922.00,2.5913
1921.00,2.5615
1920.00,2.5345
1919.00,2.5061
1918.00,2.4728
1917.00,2.4372
1916.00,2.4039
1915.00,2.3722
1914.00,2.3368
1913.00,2.2949
1912.00,2.2483
1911.00,2.1986
1910.00,2.1464
1909.00,2.0914
1908.00,2.0358
1907.00,1.9810
1906.00,1.9263
1905.00,1.8715
1904.00,1.8170
1903.00,1.7646
1902.00,1.7170
1901.00,1.6755
1900.00,1.6409
1899.00,1.6136
1898.00,1.5951
1897.00,1.5874
1896.00,1.5911
1895.00,1.6039
1894.00,1.6244
1893.00,1.6535
1892.00,1.6921
1891.00,1.7392
1890.00,1.7919
1889.00,1.8490
1888.00,1.9114
1887.00,1.9780
1886.00,2.0447
1885.00,2.1079
1884.00,2.1668
1883.00,2.2222
1882.00,2.2755
1881.00,2.3263
1880.00,2.3744
1879.00,2.4205
1878.00,2.4637
1877.00,2.5040
1876.00,2.5410
1875.00,2.5729
1874.00,2.5971
1873.00,2.6140
1872.00,2.6278
1871.00,2.6447
1870.00,2.6673
1869.00,2.6934
1868.00,2.7211
1867.00,2.7506
1866.00,2.7810
1865.00,2.8098
1864.00,2.8357
1863.00,2.8594
1862.00,2.8804
1861.00,2.8965
1860.00,2.9075
1859.00,2.9173
1858.00,2.9300
1857.00,2.9457
1856.00,2.9616
1855.00,2.9755
1854.00,2.9878
1853.00,2.9976
1852.00,3.0043
1851.00,3.0089
1850.00,3.0090
1849.00,3.0023
1848.00,2.9918
1847.00,2.9858
1846.00,2.9880
1845.00,2.9920
1844.00,2.9911
1843.00,2.9912
1842.00,3.0012
1841.00,3.0187
1840.00,3.0367
1839.00,3.0515
1838.00,3.0644
1837.00,3.0751
1836.00,3.0779
1835.00,3.0691
1834.00,3.0534
1833.00,3.0382
1832.00,3.0286
1831.00,3.0205
1830.00,3.0033
1829.00,2.9773
1828.00,2.9562
1827.00,2.9477
1826.00,2.9452
1825.00,2.9381
1824.00,2.9266
1823.00,2.9181
1822.00,2.9123
1821.00,2.9006
1820.00,2.8789
1819.00,2.8519
1818.00,2.8267
1817.00,2.8055
1816.00,2.7845
1815.00,2.7608
1814.00,2.7344
1813.00,2.7068
1812.00,2.6800
1811.00,2.6535
1810.00,2.6285
1809.00,2.6064
1808.00,2.5862
1807.00,2.5640
1806.00,2.5344
1805.00,2.4940
1804.00,2.4439
1803.00,2.3923
1802.00,2.3454
1801.00,2.3028
1800.00,2.2602
1799.00,2.2142
1798.00,2.1651
1797.00,2.1165
1796.00,2.0735
1795.00,2.0421
1794.00,2.0246
1793.00,2.0191
1792.00,2.0264
1791.00,2.0534
1790.00,2.1030
1789.00,2.1662
1788.00,2.2306
1787.00,2.2910
1786.00,2.3506
1785.00,2.4146
1784.00,2.4830
1783.00,2.5547
1782.00,2.6253
1781.00,2.6889
1780.00,2.7456
1779.00,2.7973
1778.00,2.8447
1777.00,2.8848
1776.00,2.9186
1775.00,2.9537
1774.00,2.9931
1773.00,3.0265
1772.00,3.0440
1771.00,3.0552
1770.00,3.0755
1769.00,3.1082
1768.00,3.1447
1767.00,3.1756
1766.00,3.1979
1765.00,3.2130
1764.00,3.2224
1763.00,3.2282
1762.00,3.2304
1761.00,3.2309
1760.00,3.2312
1759.00,3.2318
1758.00,3.2348
1757.00,3.2375
1756.00,3.2375
1755.00,3.2360
1754.00,3.2339
1753.00,3.2310
1752.00,3.2320
1751.00,3.2462
1750.00,3.2825
1749.00,3.3329
1748.00,3.3753
1747.00,3.4026
1746.00,3.4279
1745.00,3.4668
1744.00,3.5223
1743.00,3.5848
1742.00,3.6454
1741.00,3.7015
1740.00,3.7483
1739.00,3.7852
1738.00,3.8226
1737.00,3.8654
1736.00,3.8995
1735.00,3.9091
1734.00,3.9070
1733.00,3.9413
1732.00,4.0370
1731.00,4.1594
1730.00,4.2299
1729.00,4.2181
1728.00,4.1925
1727.00,4.2000
1726.00,4.2456
1725.00,4.3418
1724.00,4.5027
1723.00,4.6745
1722.00,4.7806
1721.00,4.8192
1720.00,4.7157
1719.00,4.6266
1718.00,4.7319
1717.00,5.0010
1716.00,4.6811
1715.00,4.5140
1714.00,4.5608
1713.00,4.6715
1712.00,4.8218
1711.00,5.0538
1710.00,4.9370
1709.00,4.6521
1708.00,4.5504
1707.00,4.5024
1706.00,4.4009
1705.00,4.2792
1704.00,4.2308
1703.00,4.3067
1702.00,4.4807
1701.00,4.6371
1700.00,4.7302
1699.00,4.6919
1698.00,4.5883
1697.00,4.4770
1696.00,4.3080
1695.00,4.1408
1694.00,4.0459
1693.00,4.0160
1692.00,3.9950
1691.00,3.9395
1690.00,3.8530
1689.00,3.7611
1688.00,3.6875
1687.00,3.6406
1686.00,3.6164
1685.00,3.5911
1684.00,3.5324
1683.00,3.4673
1682.00,3.4356
1681.00,3.4308
1680.00,3.4289
1679.00,3.4184
1678.00,3.3991
1677.00,3.3706
1676.00,3.3267
1675.00,3.2673
1674.00,3.2060
1673.00,3.1553
1672.00,3.1130
1671.00,3.0683
1670.00,3.0131
1669.00,2.9496
1668.00,2.8892
1667.00,2.8384
1666.00,2.7948
1665.00,2.7576
1664.00,2.7237
1663.00,2.6913
1662.00,2.6673
1661.00,2.6622
1660.00,2.6763
1659.00,2.6970
1658.00,2.7089
1657.00,2.7091
1656.00,2.7180
1655.00,2.7562
1654.00,2.8246
1653.00,2.8522
1652.00,2.9506
1651.00,3.0122
1650.00,3.0336
1649.00,3.0686
1648.00,3.0920
1647.00,3.1212
1646.00,3.1487
1645.00,3.1771
1644.00,3.2022
1643.00,3.2221
1642.00,3.2401
1641.00,3.2492
1640.00,3.2635
1639.00,3.2297
1638.00,3.2242
1637.00,3.2409
1636.00,3.2390
1635.00,3.2255
1634.00,3.2213
1633.00,3.2374
1632.00,3.2559
1631.00,3.2667
1630.00,3.2721
1629.00,3.2742
1628.00,3.2660
1627.00,3.2461
1626.00,3.2263
1625.00,3.2192
1624.00,3.2244
1623.00,3.2307
1622.00,3.2308
1621.00,3.2239
1620.00,3.2153
1619.00,3.2122
1618.00,3.2130
1617.00,3.2004
1616.00,3.1690
1615.00,3.1415
1614.00,3.1346
1613.00,3.1407
1612.00,3.1410
1611.00,3.1274
1610.00,3.1056
1609.00,3.0821
1608.00,3.0565
1607.00,3.0290
1606.00,3.0018
1605.00,2.9743
1604.00,2.9457
1603.00,2.9162
1602.00,2.8855
1601.00,2.8523
1600.00,2.8152
1599.00,2.7745
1598.00,2.7315
1597.00,2.6871
1596.00,2.6416
1595.00,2.5946
1594.00,2.5459
1593.00,2.4954
1592.00,2.4432
1591.00,2.3904
1590.00,2.3374
1589.00,2.2834
1588.00,2.2278
1587.00,2.1712
1586.00,2.1167
1585.00,2.0659
1584.00,2.0219
1583.00,1.9893
1582.00,1.9676
1581.00,1.9525
1580.00,1.9470
1579.00,1.9613
1578.00,2.0009
1577.00,2.0556
1576.00,2.1055
1575.00,2.1502
1574.00,2.2009
1573.00,2.2592
1572.00,2.3225
1571.00,2.3866
1570.00,2.4458
1569.00,2.4985
1568.00,2.5535
1567.00,2.6145
1566.00,2.6737
1565.00,2.7190
1564.00,2.7447
1563.00,2.7542
1562.00,2.7572
1561.00,2.7674
1560.00,2.7989
1559.00,2.8220
1558.00,2.8286
1557.00,2.8693
1556.00,2.9186
1555.00,3.0454
1554.00,3.1147
1553.00,3.1191
1552.00,3.1621
1551.00,3.1133
1550.00,3.1082
1549.00,3.1222
1548.00,3.1175
1547.00,3.1186
1546.00,3.1176
1545.00,3.1193
1544.00,3.1200
1543.00,3.1232
1542.00,3.1372
1541.00,3.1650
1540.00,3.1845
1539.00,3.1874
1538.00,3.1897
1537.00,3.1969
1536.00,3.2065
1535.00,3.2155
1534.00,3.2153
1533.00,3.2050
1532.00,3.2005
1531.00,3.2068
1530.00,3.2139
1529.00,3.2154
1528.00,3.2125
1527.00,3.2086
1526.00,3.2026
1525.00,3.1926
1524.00,3.1862
1523.00,3.1867
1522.00,3.1927
1521.00,3.1834
1520.00,3.1853
1519.00,3.1663
1518.00,3.2663
1517.00,3.2972
1516.00,3.2556
1515.00,3.2451
1514.00,3.2310
1513.00,3.2166
1512.00,3.2149
1511.00,3.1770
1510.00,3.2030
1509.00,2.9985
1508.00,2.9367
1507.00,2.9625
1506.00,2.9506
1505.00,2.9617
1504.00,2.9672
1503.00,2.9720
1502.00,2.9640
1501.00,2.9432
1500.00,2.9102
1499.00,2.8714
1498.00,2.8324
1497.00,2.7953
1496.00,2.7575
1495.00,2.7166
1494.00,2.6711
1493.00,2.6169
1492.00,2.5504
1491.00,2.4749
1490.00,2.4025
1489.00,2.3481
1488.00,2.3145
1487.00,2.2897
1486.00,2.2674
1485.00,2.2474
1484.00,2.2336
1483.00,2.2297
1482.00,2.2361
1481.00,2.2528
1480.00,2.2794
1479.00,2.3139
1478.00,2.3531
1477.00,2.3976
1476.00,2.4494
1475.00,2.5124
1474.00,2.5907
1473.00,2.6829
1472.00,2.7853
1471.00,2.8924
1470.00,2.9919
1469.00,3.0751
1468.00,3.1421
1467.00,3.1987
1466.00,3.2514
1465.00,3.2987
1464.00,3.3355
1463.00,3.3571
1462.00,3.3640
1461.00,3.3624
1460.00,3.3592
1459.00,3.3601
1458.00,3.3711
1457.00,3.4083
1456.00,3.4981
1455.00,3.6417
1454.00,3.8017
1453.00,3.9406
1452.00,4.0313
1451.00,4.0622
1450.00,4.0544
1449.00,4.0139
1448.00,3.9320
1447.00,3.8204
1446.00,3.7038
1445.00,3.5960
1444.00,3.5029
1443.00,3.4308
1442.00,3.3854
1441.00,3.3632
1440.00,3.3554
1439.00,3.3541
1438.00,3.3617
1437.00,3.3874
1436.00,3.4341
1435.00,3.4939
1434.00,3.5570
1433.00,3.6217
1432.00,3.6863
1431.00,3.7384
1430.00,3.7648
1429.00,3.7738
1428.00,3.7824
1427.00,3.7992
1426.00,3.8191
1425.00,3.8307
1424.00,3.8342
1423.00,3.8375
1422.00,3.8367
1421.00,3.8058
1420.00,3.7332
1419.00,3.6350
1418.00,3.5453
1417.00,3.4939
1416.00,3.4731
1415.00,3.4566
1414.00,3.4330
1413.00,3.4106
1412.00,3.4016
1411.00,3.4081
1410.00,3.4204
1409.00,3.4267
1408.00,3.4200
1407.00,3.4077
1406.00,3.4076
1405.00,3.4289
1404.00,3.4582
1403.00,3.4678
1402.00,3.4482
1401.00,3.4190
1400.00,3.4026
1399.00,3.4051
1398.00,3.4158
1397.00,3.4208
1396.00,3.4162
1395.00,3.4096
1394.00,3.4113
1393.00,3.4261
1392.00,3.4493
1391.00,3.4696
1390.00,3.4788
1389.00,3.4776
1388.00,3.4713
1387.00,3.4624
1386.00,3.4516
1385.00,3.4410
1384.00,3.4329
1383.00,3.4257
1382.00,3.4163
1381.00,3.4047
1380.00,3.3944
1379.00,3.3896
1378.00,3.3885
1377.00,3.3817
1376.00,3.3618
1375.00,3.3330
1374.00,3.3075
1373.00,3.2949
1372.00,3.2939
1371.00,3.2954
1370.00,3.2904
1369.00,3.2744
1368.00,3.2491
1367.00,3.2186
1366.00,3.1838
1365.00,3.1430
1364.00,3.0967
1363.00,3.0503
1362.00,3.0112
1361.00,2.9837
1360.00,2.9665
1359.00,2.9563
1358.00,2.9523
1357.00,2.9558
1356.00,2.9689
1355.00,2.9958
1354.00,3.0413
1353.00,3.1087
1352.00,3.1966
1351.00,3.3003
1350.00,3.4155
1349.00,3.5371
1348.00,3.6493
1347.00,3.7190
1346.00,3.7197
1345.00,3.6660
1344.00,3.5982
1343.00,3.5464
1342.00,3.5249
1341.00,3.5350
1340.00,3.5619
1339.00,3.5779
1338.00,3.5629
1337.00,3.5186
1336.00,3.4546
1335.00,3.3751
1334.00,3.2874
1333.00,3.2055
1332.00,3.1419
1331.00,3.1023
1330.00,3.0858
1329.00,3.0877
1328.00,3.1049
1327.00,3.1374
1326.00,3.1856
1325.00,3.2458
1324.00,3.3121
1323.00,3.3821
1322.00,3.4605
1321.00,3.5507
1320.00,3.6432
1319.00,3.7156
1318.00,3.7580
1317.00,3.7949
1316.00,3.8551
1315.00,3.9410
1314.00,4.0376
1313.00,4.1281
1312.00,4.1831
1311.00,4.1590
1310.00,4.0692
1309.00,3.9664
1308.00,3.8645
1307.00,3.7625
1306.00,3.6648
1305.00,3.5682
1304.00,3.4687
1303.00,3.3740
1302.00,3.2944
1301.00,3.2350
1300.00,3.1957
1299.00,3.1749
1298.00,3.1712
1297.00,3.1826
1296.00,3.2041
1295.00,3.2285
1294.00,3.2530
1293.00,3.2799
1292.00,3.3117
1291.00,3.3456
1290.00,3.3758
1289.00,3.3999
1288.00,3.4194
1287.00,3.4372
1286.00,3.4562
1285.00,3.4806
1284.00,3.5138
1283.00,3.5534
1282.00,3.5888
1281.00,3.6094
1280.00,3.6150
1279.00,3.6147
1278.00,3.6166
1277.00,3.6247
1276.00,3.6410
1275.00,3.6647
1274.00,3.6870
1273.00,3.6971
1272.00,3.6963
1271.00,3.6967
1270.00,3.7066
1269.00,3.7224
1268.00,3.7297
1267.00,3.7173
1266.00,3.6945
1265.00,3.6824
1264.00,3.6892
1263.00,3.7027
1262.00,3.7090
1261.00,3.7073
1260.00,3.7017
1259.00,3.6916
1258.00,3.6738
1257.00,3.6559
1256.00,3.6475
1255.00,3.6461
1254.00,3.6419
1253.00,3.6329
1252.00,3.6276
1251.00,3.6308
1250.00,3.6362
1249.00,3.6365
1248.00,3.6315
1247.00,3.6227
1246.00,3.6078
1245.00,3.5857
1244.00,3.5638
1243.00,3.5518
1242.00,3.5533
1241.00,3.5629
1240.00,3.5719
1239.00,3.5755
1238.00,3.5769
1237.00,3.5838
1236.00,3.6047
1235.00,3.6439
1234.00,3.6927
1233.00,3.7338
1232.00,3.7640
1231.00,3.8058
1230.00,3.8900
1229.00,4.0305
1228.00,4.2049
1227.00,4.3483
1226.00,4.3900
1225.00,4.3532
1224.00,4.3495
1223.00,4.4664
1222.00,4.6802
1221.00,4.6734
1220.00,4.4191
1219.00,4.1948
1218.00,4.0550
1217.00,3.9923
1216.00,3.9749
1215.00,3.9635
1214.00,3.9315
1213.00,3.8847
1212.00,3.8356
1211.00,3.7774
1210.00,3.7145
1209.00,3.6647
1208.00,3.6332
1207.00,3.6107
1206.00,3.5849
1205.00,3.5528
1204.00,3.5203
1203.00,3.4941
1202.00,3.4778
1201.00,3.4687
1200.00,3.4608
1199.00,3.4491
1198.00,3.4289
1197.00,3.4032
1196.00,3.3847
1195.00,3.3793
1194.00,3.3778
1193.00,3.3664
1192.00,3.3410
1191.00,3.3070
1190.00,3.2721
1189.00,3.2451
1188.00,3.2355
1187.00,3.2466
1186.00,3.2690
1185.00,3.2841
1184.00,3.2826
1183.00,3.2752
1182.00,3.2778
1181.00,3.2970
1180.00,3.3287
1179.00,3.3667
1178.00,3.4060
1177.00,3.4394
1176.00,3.4551
1175.00,3.4473
1174.00,3.4276
1173.00,3.4156
1172.00,3.4215
1171.00,3.4431
1170.00,3.4715
1169.00,3.4981
1168.00,3.5228
1167.00,3.5500
1166.00,3.5802
1165.00,3.6075
1164.00,3.6263
1163.00,3.6382
1162.00,3.6503
1161.00,3.6677
1160.00,3.6905
1159.00,3.7241
1158.00,3.7753
1157.00,3.8360
1156.00,3.8696
1155.00,3.8624
1154.00,3.8764
1153.00,3.9706
1152.00,4.0626
1151.00,4.0180
1150.00,3.9641
1149.00,3.9542
1148.00,3.9236
1147.00,3.8539
1146.00,3.7761
1145.00,3.7247
1144.00,3.7267
1143.00,3.7984
1142.00,3.9227
1141.00,4.0554
1140.00,4.1242
1139.00,4.0830
1138.00,4.0209
1137.00,3.9831
1136.00,3.9602
1135.00,3.9706
1134.00,4.0572
1133.00,4.2298
1132.00,4.3953
1131.00,4.3796
1130.00,4.1800
1129.00,4.0026
1128.00,3.9053
1127.00,3.8630
1126.00,3.8609
1125.00,3.8740
1124.00,3.8564
1123.00,3.8072
1122.00,3.7806
1121.00,3.8143
1120.00,3.9073
1119.00,4.0427
1118.00,4.1625
1117.00,4.1379
1116.00,4.0462
1115.00,3.9889
1114.00,3.9411
1113.00,3.9026
1112.00,3.8898
1111.00,3.8913
1110.00,3.8861
1109.00,3.8740
1108.00,3.8750
1107.00,3.8927
1106.00,3.9109
1105.00,3.9159
1104.00,3.9033
1103.00,3.8806
1102.00,3.8659
1101.00,3.8865
1100.00,3.9627
1099.00,4.0735
1098.00,4.1544
1097.00,4.1429
1096.00,4.0678
1095.00,3.9912
1094.00,3.9358
1093.00,3.9290
1092.00,3.9661
1091.00,3.9902
1090.00,3.9738
1089.00,3.9388
1088.00,3.9006
1087.00,3.8682
1086.00,3.8556
1085.00,3.8605
1084.00,3.8616
1083.00,3.8566
1082.00,3.8604
1081.00,3.8665
1080.00,3.8484
1079.00,3.8004
1078.00,3.7526
1077.00,3.7261
1076.00,3.7245
1075.00,3.7500
1074.00,3.7908
1073.00,3.8116
1072.00,3.7750
1071.00,3.6911
1070.00,3.6042
1069.00,3.5433
1068.00,3.5218
1067.00,3.5424
1066.00,3.5894
1065.00,3.6192
1064.00,3.5973
1063.00,3.5504
1062.00,3.5178
1061.00,3.5132
1060.00,3.5323
1059.00,3.5635
1058.00,3.5972
1057.00,3.6234
1056.00,3.6470
1055.00,3.6933
1054.00,3.7709
1053.00,3.8402
1052.00,3.8363
1051.00,3.7690
1050.00,3.7056
1049.00,3.6689
1048.00,3.6364
1047.00,3.5920
1046.00,3.5482
1045.00,3.5128
1044.00,3.4740
1043.00,3.4278
1042.00,3.3932
1041.00,3.3876
1040.00,3.4101
1039.00,3.4437
1038.00,3.4690
1037.00,3.4852
1036.00,3.5070
1035.00,3.5446
1034.00,3.5982
1033.00,3.6552
1032.00,3.6960
1031.00,3.7197
1030.00,3.7513
1029.00,3.8062
1028.00,3.8571
1027.00,3.8671
1026.00,3.8514
1025.00,3.8505
1024.00,3.8786
1023.00,3.9126
1022.00,3.9234
1021.00,3.9157
1020.00,3.9101
1019.00,3.9091
1018.00,3.9103
1017.00,3.9326
1016.00,4.0112
1015.00,4.1531
1014.00,4.2618
1013.00,4.2303
1012.00,4.1468
1011.00,4.1149
1010.00,4.1511
1009.00,4.2153
1008.00,4.2958
1007.00,4.4007
1006.00,4.5058
1005.00,4.6403
1004.00,4.5656
1003.00,4.2898
1002.00,4.1323
1001.00,4.0788
1000.00,4.0769
999.00,4.1015
998.00,4.1626
997.00,4.2767
996.00,4.3064
995.00,4.1676
994.00,4.0286
993.00,3.9545
992.00,3.9334
991.00,3.9451
990.00,3.9843
989.00,4.0679
988.00,4.1894
987.00,4.2742
986.00,4.2894
985.00,4.2864
984.00,4.2602
983.00,4.1964
982.00,4.1116
981.00,4.0319
980.00,3.9834
979.00,4.0055
978.00,4.1208
977.00,4.3517
976.00,4.4658
975.00,4.2026
974.00,4.0081
973.00,3.9503
972.00,4.0105
971.00,4.2069
970.00,4.5938
969.00,4.7921
968.00,4.5065
967.00,4.3636
966.00,4.3070
965.00,4.3790
964.00,4.5750
963.00,4.5858
962.00,4.3787
961.00,4.2077
960.00,4.1508
959.00,4.2017
958.00,4.2844
957.00,4.2987
956.00,4.2945
955.00,4.3591
954.00,4.4852
953.00,4.4305
952.00,4.2139
951.00,4.1054
950.00,4.0801
949.00,4.0663
948.00,4.0543
947.00,4.0519
946.00,4.0990
945.00,4.2572
944.00,4.7014
943.00,5.0481
942.00,4.5103
941.00,4.2320
940.00,4.0208
939.00,3.9104
938.00,3.9133
937.00,4.0026
936.00,4.1315
935.00,4.1841
934.00,4.1422
933.00,4.0737
932.00,4.0286
931.00,4.0061
930.00,3.9823
929.00,3.9517
928.00,3.9364
927.00,3.9524
926.00,3.9801
925.00,3.9893
924.00,3.9965
923.00,4.0422
922.00,4.1103
921.00,4.1176
920.00,4.0883
919.00,4.1452
918.00,4.2933
917.00,4.3283
916.00,4.1964
915.00,4.1040
914.00,4.0791
913.00,4.0174
912.00,3.9096
911.00,3.8193
910.00,3.7529
909.00,3.7074
908.00,3.6843
907.00,3.6962
906.00,3.7627
905.00,3.8719
904.00,3.9603
903.00,3.9836
902.00,3.9851
901.00,4.0401
900.00,4.2053
899.00,4.5432
898.00,4.8493
897.00,4.5144
896.00,4.2275
895.00,4.1058
894.00,4.1058
893.00,4.2132
892.00,4.3842
891.00,4.3519
890.00,4.1577
889.00,4.0004
888.00,3.8784
887.00,3.8155
886.00,3.8210
885.00,3.8773
884.00,3.9664
883.00,4.0719
882.00,4.1210
881.00,4.0764
880.00,4.0324
879.00,3.9759
878.00,3.8884
877.00,3.8420
876.00,3.8930
875.00,4.0021
874.00,4.0077
873.00,3.9724
872.00,4.0448
871.00,4.1659
870.00,4.1517
869.00,4.0560
868.00,3.9989
867.00,3.9881
866.00,3.9957
865.00,4.0146
864.00,4.0716
863.00,4.1068
862.00,4.0821
861.00,4.0761
860.00,4.0941
859.00,4.1210
858.00,4.1818
857.00,4.2684
856.00,4.2505
855.00,4.0630
854.00,3.8740
853.00,3.7572
852.00,3.7057
851.00,3.7117
850.00,3.7773
849.00,3.8919
848.00,3.9976
847.00,4.0257
846.00,4.0012
845.00,3.9830
844.00,3.9755
843.00,3.9678
842.00,3.9573
841.00,3.9189
840.00,3.8853
839.00,3.9329
838.00,4.0978
837.00,4.2168
836.00,4.0921
835.00,3.9858
834.00,3.9683
833.00,4.0231
832.00,4.0781
831.00,4.0209
830.00,3.9845
829.00,4.0530
828.00,4.1309
827.00,4.1094
826.00,4.1254
825.00,4.3485
824.00,4.3940
823.00,4.1316
822.00,4.0746
821.00,4.0864
820.00,4.0340
819.00,3.9814
818.00,3.9622
817.00,3.9331
816.00,3.8779
815.00,3.8489
814.00,3.8841
813.00,3.9958
812.00,4.1868
811.00,4.5659
810.00,4.4653
809.00,4.0515
808.00,3.9110
807.00,3.9951
806.00,4.4280
805.00,4.4339
804.00,3.9977
803.00,3.8867
802.00,3.8918
801.00,3.9402
800.00,3.9966
799.00,4.0106
798.00,3.9808
797.00,3.9332
796.00,3.9155
795.00,3.9313
794.00,3.9784
793.00,4.0603
792.00,4.2028
791.00,4.3147
790.00,4.4680
789.00,4.6548
788.00,4.7339
787.00,4.9011
786.00,4.2648
785.00,3.9690
784.00,3.8717
783.00,3.8115
782.00,3.7694
781.00,3.7785
780.00,3.8957
779.00,4.1208
778.00,4.2943
777.00,4.2900
776.00,4.2599
775.00,4.2357
774.00,4.2982
773.00,4.3265
772.00,4.1360
771.00,4.0604
770.00,4.1228
769.00,4.0668
768.00,3.9676
767.00,3.9727
766.00,4.0069
765.00,4.0228
764.00,4.1416
763.00,4.3801
762.00,4.4058
761.00,4.3000
760.00,4.1898
759.00,4.0442
758.00,3.9426
757.00,3.9189
756.00,3.9643
755.00,4.0262
754.00,4.0579
753.00,4.0667
752.00,4.1343
751.00,4.2286
750.00,4.1001
749.00,3.9129
748.00,3.7970
747.00,3.7612
746.00,3.8291
745.00,3.9962
744.00,4.1861
743.00,4.3255
742.00,4.4702
741.00,4.4352
740.00,4.1842
739.00,3.9846
738.00,3.8818
737.00,3.9005
736.00,4.0312
735.00,4.1211
734.00,4.0455
733.00,3.8786
732.00,3.7374
731.00,3.6751
730.00,3.6680
729.00,3.6948
728.00,3.7502
727.00,3.8079
726.00,3.8529
725.00,3.8817
724.00,3.8542
723.00,3.7717
722.00,3.6874
721.00,3.6303
720.00,3.6249
719.00,3.6876
718.00,3.8575
717.00,4.2664
716.00,4.3922
715.00,4.0001
714.00,3.9052
713.00,3.9593
712.00,4.0193
711.00,4.0284
710.00,3.9785
709.00,3.9356
708.00,3.9912
707.00,4.1043
706.00,4.1266
705.00,4.1201
704.00,4.1834
703.00,4.3114
702.00,4.4996
701.00,4.5816
700.00,4.3618
