Created as New Dataset,Sample 098 By Administrator Date Wednesday, November 24 2021
cm-1,A
7502.00,0.8046
7501.00,0.8008
7500.00,0.7963
7499.00,0.7909
7498.00,0.7852
7497.00,0.7800
7496.00,0.7756
7495.00,0.7721
7494.00,0.7693
7493.00,0.7676
7492.00,0.7672
7491.00,0.7680
7490.00,0.7695
7489.00,0.7711
7488.00,0.7727
7487.00,0.7743
7486.00,0.7760
7485.00,0.7777
7484.00,0.7795
7483.00,0.7815
7482.00,0.7840
7481.00,0.7872
7480.00,0.7912
7479.00,0.7960
7478.00,0.8016
7477.00,0.8079
7476.00,0.8149
7475.00,0.8223
7474.00,0.8300
7473.00,0.8382
7472.00,0.8466
7471.00,0.8549
7470.00,0.8629
7469.00,0.8707
7468.00,0.8788
7467.00,0.8876
7466.00,0.8970
7465.00,0.9063
7464.00,0.9151
7463.00,0.9236
7462.00,0.9324
7461.00,0.9414
7460.00,0.9504
7459.00,0.9588
7458.00,0.9670
7457.00,0.9755
7456.00,0.9847
7455.00,0.9943
7454.00,1.0037
7453.00,1.0127
7452.00,1.0215
7451.00,1.0306
7450.00,1.0397
7449.00,1.0488
7448.00,1.0576
7447.00,1.0661
7446.00,1.0739
7445.00,1.0810
7444.00,1.0877
7443.00,1.0943
7442.00,1.1007
7441.00,1.1063
7440.00,1.1110
7439.00,1.1159
7438.00,1.1216
7437.00,1.1280
7436.00,1.1337
7435.00,1.1381
7434.00,1.1416
7433.00,1.1450
7432.00,1.1488
7431.00,1.1528
7430.00,1.1563
7429.00,1.1594
7428.00,1.1624
7427.00,1.1661
7426.00,1.1705
7425.00,1.1748
7424.00,1.1782
7423.00,1.1802
7422.00,1.1815
7421.00,1.1828
7420.00,1.1839
7419.00,1.1841
7418.00,1.1829
7417.00,1.1803
7416.00,1.1769
7415.00,1.1735
7414.00,1.1706
7413.00,1.1683
7412.00,1.1662
7411.00,1.1638
7410.00,1.1609
7409.00,1.1578
7408.00,1.1543
7407.00,1.1501
7406.00,1.1450
7405.00,1.1390
7404.00,1.1328
7403.00,1.1266
7402.00,1.1205
7401.00,1.1146
7400.00,1.1090
7399.00,1.1031
7398.00,1.0965
7397.00,1.0891
7396.00,1.0810
7395.00,1.0726
7394.00,1.0637
7393.00,1.0538
7392.00,1.0431
7391.00,1.0321
7390.00,1.0212
7389.00,1.0106
7388.00,1.0004
7387.00,0.9908
7386.00,0.9819
7385.00,0.9731
7384.00,0.9638
7383.00,0.9539
7382.00,0.9439
7381.00,0.9343
7380.00,0.9252
7379.00,0.9159
7378.00,0.9065
7377.00,0.8972
7376.00,0.8882
7375.00,0.8792
7374.00,0.8699
7373.00,0.8607
7372.00,0.8520
7371.00,0.8440
7370.00,0.8366
7369.00,0.8296
7368.00,0.8233
7367.00,0.8177
7366.00,0.8126
7365.00,0.8078
7364.00,0.8033
7363.00,0.7991
7362.00,0.7953
7361.00,0.7921
7360.00,0.7895
7359.00,0.7875
7358.00,0.7860
7357.00,0.7848
7356.00,0.7840
7355.00,0.7840
7354.00,0.7848
7353.00,0.7861
7352.00,0.7878
7351.00,0.7898
7350.00,0.7923
7349.00,0.7954
7348.00,0.7991
7347.00,0.8033
7346.00,0.8079
7345.00,0.8131
7344.00,0.8187
7343.00,0.8248
7342.00,0.8312
7341.00,0.8379
7340.00,0.8448
7339.00,0.8521
7338.00,0.8596
7337.00,0.8674
7336.00,0.8752
7335.00,0.8829
7334.00,0.8905
7333.00,0.8981
7332.00,0.9058
7331.00,0.9134
7330.00,0.9211
7329.00,0.9290
7328.00,0.9373
7327.00,0.9459
7326.00,0.9547
7325.00,0.9634
7324.00,0.9719
7323.00,0.9801
7322.00,0.9880
7321.00,0.9959
7320.00,1.0038
7319.00,1.0116
7318.00,1.0191
7317.00,1.0263
7316.00,1.0337
7315.00,1.0414
7314.00,1.0492
7313.00,1.0563
7312.00,1.0624
7311.00,1.0680
7310.00,1.0737
7309.00,1.0793
7308.00,1.0845
7307.00,1.0890
7306.00,1.0936
7305.00,1.0988
7304.00,1.1047
7303.00,1.1107
7302.00,1.1163
7301.00,1.1214
7300.00,1.1260
7299.00,1.1300
7298.00,1.1336
7297.00,1.1371
7296.00,1.1401
7295.00,1.1422
7294.00,1.1429
7293.00,1.1422
7292.00,1.1411
7291.00,1.1400
7290.00,1.1388
7289.00,1.1373
7288.00,1.1358
7287.00,1.1348
7286.00,1.1343
7285.00,1.1337
7284.00,1.1324
7283.00,1.1304
7282.00,1.1283
7281.00,1.1261
7280.00,1.1236
7279.00,1.1210
7278.00,1.1187
7277.00,1.1170
7276.00,1.1151
7275.00,1.1124
7274.00,1.1091
7273.00,1.1057
7272.00,1.1023
7271.00,1.0985
7270.00,1.0940
7269.00,1.0892
7268.00,1.0840
7267.00,1.0786
7266.00,1.0726
7265.00,1.0662
7264.00,1.0594
7263.00,1.0525
7262.00,1.0458
7261.00,1.0394
7260.00,1.0333
7259.00,1.0269
7258.00,1.0198
7257.00,1.0121
7256.00,1.0036
7255.00,0.9941
7254.00,0.9836
7253.00,0.9726
7252.00,0.9618
7251.00,0.9515
7250.00,0.9418
7249.00,0.9324
7248.00,0.9235
7247.00,0.9148
7246.00,0.9062
7245.00,0.8976
7244.00,0.8891
7243.00,0.8806
7242.00,0.8723
7241.00,0.8641
7240.00,0.8562
7239.00,0.8485
7238.00,0.8410
7237.00,0.8336
7236.00,0.8265
7235.00,0.8195
7234.00,0.8129
7233.00,0.8069
7232.00,0.8014
7231.00,0.7966
7230.00,0.7926
7229.00,0.7894
7228.00,0.7867
7227.00,0.7843
7226.00,0.7821
7225.00,0.7801
7224.00,0.7787
7223.00,0.7780
7222.00,0.7780
7221.00,0.7786
7220.00,0.7799
7219.00,0.7818
7218.00,0.7842
7217.00,0.7872
7216.00,0.7906
7215.00,0.7944
7214.00,0.7984
7213.00,0.8027
7212.00,0.8076
7211.00,0.8132
7210.00,0.8194
7209.00,0.8258
7208.00,0.8326
7207.00,0.8397
7206.00,0.8471
7205.00,0.8546
7204.00,0.8623
7203.00,0.8704
7202.00,0.8790
7201.00,0.8879
7200.00,0.8967
7199.00,0.9055
7198.00,0.9142
7197.00,0.9232
7196.00,0.9325
7195.00,0.9419
7194.00,0.9513
7193.00,0.9608
7192.00,0.9703
7191.00,0.9799
7190.00,0.9895
7189.00,0.9991
7188.00,1.0088
7187.00,1.0184
7186.00,1.0274
7185.00,1.0359
7184.00,1.0441
7183.00,1.0524
7182.00,1.0609
7181.00,1.0692
7180.00,1.0772
7179.00,1.0851
7178.00,1.0933
7177.00,1.1017
7176.00,1.1099
7175.00,1.1176
7174.00,1.1243
7173.00,1.1303
7172.00,1.1361
7171.00,1.1423
7170.00,1.1488
7169.00,1.1551
7168.00,1.1603
7167.00,1.1646
7166.00,1.1682
7165.00,1.1714
7164.00,1.1741
7163.00,1.1765
7162.00,1.1789
7161.00,1.1817
7160.00,1.1848
7159.00,1.1881
7158.00,1.1912
7157.00,1.1938
7156.00,1.1956
7155.00,1.1965
7154.00,1.1972
7153.00,1.1979
7152.00,1.1981
7151.00,1.1975
7150.00,1.1963
7149.00,1.1948
7148.00,1.1931
7147.00,1.1908
7146.00,1.1874
7145.00,1.1835
7144.00,1.1797
7143.00,1.1766
7142.00,1.1736
7141.00,1.1702
7140.00,1.1661
7139.00,1.1612
7138.00,1.1559
7137.00,1.1504
7136.00,1.1446
7135.00,1.1381
7134.00,1.1305
7133.00,1.1221
7132.00,1.1136
7131.00,1.1054
7130.00,1.0977
7129.00,1.0901
7128.00,1.0823
7127.00,1.0742
7126.00,1.0656
7125.00,1.0567
7124.00,1.0477
7123.00,1.0384
7122.00,1.0283
7121.00,1.0173
7120.00,1.0059
7119.00,0.9951
7118.00,0.9847
7117.00,0.9743
7116.00,0.9637
7115.00,0.9528
7114.00,0.9423
7113.00,0.9320
7112.00,0.9219
7111.00,0.9117
7110.00,0.9019
7109.00,0.8925
7108.00,0.8835
7107.00,0.8748
7106.00,0.8662
7105.00,0.8578
7104.00,0.8496
7103.00,0.8416
7102.00,0.8339
7101.00,0.8265
7100.00,0.8197
7099.00,0.8138
7098.00,0.8088
7097.00,0.8043
7096.00,0.8001
7095.00,0.7962
7094.00,0.7928
7093.00,0.7901
7092.00,0.7878
7091.00,0.7858
7090.00,0.7842
7089.00,0.7833
7088.00,0.7833
7087.00,0.7840
7086.00,0.7854
7085.00,0.7873
7084.00,0.7896
7083.00,0.7925
7082.00,0.7959
7081.00,0.7998
7080.00,0.8042
7079.00,0.8091
7078.00,0.8145
7077.00,0.8206
7076.00,0.8273
7075.00,0.8344
7074.00,0.8417
7073.00,0.8491
7072.00,0.8566
7071.00,0.8642
7070.00,0.8721
7069.00,0.8799
7068.00,0.8878
7067.00,0.8957
7066.00,0.9040
7065.00,0.9129
7064.00,0.9221
7063.00,0.9315
7062.00,0.9411
7061.00,0.9511
7060.00,0.9612
7059.00,0.9713
7058.00,0.9809
7057.00,0.9904
7056.00,0.9998
7055.00,1.0089
7054.00,1.0179
7053.00,1.0266
7052.00,1.0354
7051.00,1.0441
7050.00,1.0528
7049.00,1.0611
7048.00,1.0692
7047.00,1.0773
7046.00,1.0855
7045.00,1.0935
7044.00,1.1009
7043.00,1.1078
7042.00,1.1147
7041.00,1.1215
7040.00,1.1280
7039.00,1.1336
7038.00,1.1385
7037.00,1.1431
7036.00,1.1477
7035.00,1.1527
7034.00,1.1581
7033.00,1.1635
7032.00,1.1687
7031.00,1.1735
7030.00,1.1780
7029.00,1.1819
7028.00,1.1847
7027.00,1.1862
7026.00,1.1872
7025.00,1.1883
7024.00,1.1897
7023.00,1.1910
7022.00,1.1916
7021.00,1.1917
7020.00,1.1914
7019.00,1.1908
7018.00,1.1899
7017.00,1.1890
7016.00,1.1882
7015.00,1.1873
7014.00,1.1858
7013.00,1.1836
7012.00,1.1807
7011.00,1.1774
7010.00,1.1737
7009.00,1.1696
7008.00,1.1649
7007.00,1.1596
7006.00,1.1543
7005.00,1.1490
7004.00,1.1434
7003.00,1.1371
7002.00,1.1303
7001.00,1.1237
7000.00,1.1175
6999.00,1.1112
6998.00,1.1043
6997.00,1.0966
6996.00,1.0882
6995.00,1.0793
6994.00,1.0698
6993.00,1.0602
6992.00,1.0507
6991.00,1.0413
6990.00,1.0317
6989.00,1.0221
6988.00,1.0125
6987.00,1.0030
6986.00,0.9934
6985.00,0.9835
6984.00,0.9732
6983.00,0.9626
6982.00,0.9519
6981.00,0.9414
6980.00,0.9311
6979.00,0.9208
6978.00,0.9106
6977.00,0.9005
6976.00,0.8907
6975.00,0.8812
6974.00,0.8719
6973.00,0.8628
6972.00,0.8538
6971.00,0.8452
6970.00,0.8373
6969.00,0.8300
6968.00,0.8232
6967.00,0.8167
6966.00,0.8104
6965.00,0.8045
6964.00,0.7990
6963.00,0.7941
6962.00,0.7897
6961.00,0.7859
6960.00,0.7826
6959.00,0.7798
6958.00,0.7777
6957.00,0.7762
6956.00,0.7755
6955.00,0.7755
6954.00,0.7761
6953.00,0.7774
6952.00,0.7792
6951.00,0.7815
6950.00,0.7843
6949.00,0.7877
6948.00,0.7914
6947.00,0.7955
6946.00,0.8000
6945.00,0.8052
6944.00,0.8111
6943.00,0.8175
6942.00,0.8243
6941.00,0.8314
6940.00,0.8386
6939.00,0.8462
6938.00,0.8542
6937.00,0.8626
6936.00,0.8711
6935.00,0.8797
6934.00,0.8884
6933.00,0.8976
6932.00,0.9071
6931.00,0.9168
6930.00,0.9265
6929.00,0.9362
6928.00,0.9461
6927.00,0.9563
6926.00,0.9666
6925.00,0.9766
6924.00,0.9863
6923.00,0.9958
6922.00,1.0052
6921.00,1.0147
6920.00,1.0241
6919.00,1.0332
6918.00,1.0423
6917.00,1.0514
6916.00,1.0603
6915.00,1.0690
6914.00,1.0776
6913.00,1.0863
6912.00,1.0952
6911.00,1.1040
6910.00,1.1124
6909.00,1.1201
6908.00,1.1272
6907.00,1.1340
6906.00,1.1406
6905.00,1.1469
6904.00,1.1530
6903.00,1.1591
6902.00,1.1652
6901.00,1.1714
6900.00,1.1774
6899.00,1.1828
6898.00,1.1878
6897.00,1.1921
6896.00,1.1958
6895.00,1.1990
6894.00,1.2019
6893.00,1.2044
6892.00,1.2064
6891.00,1.2077
6890.00,1.2086
6889.00,1.2097
6888.00,1.2113
6887.00,1.2129
6886.00,1.2136
6885.00,1.2133
6884.00,1.2124
6883.00,1.2117
6882.00,1.2110
6881.00,1.2100
6880.00,1.2081
6879.00,1.2054
6878.00,1.2023
6877.00,1.1988
6876.00,1.1950
6875.00,1.1907
6874.00,1.1858
6873.00,1.1803
6872.00,1.1746
6871.00,1.1691
6870.00,1.1638
6869.00,1.1582
6868.00,1.1518
6867.00,1.1446
6866.00,1.1371
6865.00,1.1297
6864.00,1.1219
6863.00,1.1131
6862.00,1.1035
6861.00,1.0937
6860.00,1.0840
6859.00,1.0743
6858.00,1.0645
6857.00,1.0546
6856.00,1.0447
6855.00,1.0347
6854.00,1.0245
6853.00,1.0141
6852.00,1.0036
6851.00,0.9928
6850.00,0.9819
6849.00,0.9709
6848.00,0.9600
6847.00,0.9491
6846.00,0.9382
6845.00,0.9275
6844.00,0.9169
6843.00,0.9065
6842.00,0.8962
6841.00,0.8861
6840.00,0.8762
6839.00,0.8667
6838.00,0.8577
6837.00,0.8491
6836.00,0.8411
6835.00,0.8333
6834.00,0.8259
6833.00,0.8190
6832.00,0.8126
6831.00,0.8068
6830.00,0.8013
6829.00,0.7963
6828.00,0.7919
6827.00,0.7883
6826.00,0.7855
6825.00,0.7832
6824.00,0.7812
6823.00,0.7796
6822.00,0.7787
6821.00,0.7786
6820.00,0.7791
6819.00,0.7802
6818.00,0.7818
6817.00,0.7842
6816.00,0.7872
6815.00,0.7910
6814.00,0.7952
6813.00,0.7999
6812.00,0.8050
6811.00,0.8105
6810.00,0.8164
6809.00,0.8229
6808.00,0.8296
6807.00,0.8366
6806.00,0.8438
6805.00,0.8517
6804.00,0.8603
6803.00,0.8696
6802.00,0.8791
6801.00,0.8886
6800.00,0.8980
6799.00,0.9075
6798.00,0.9170
6797.00,0.9265
6796.00,0.9359
6795.00,0.9454
6794.00,0.9553
6793.00,0.9657
6792.00,0.9763
6791.00,0.9866
6790.00,0.9967
6789.00,1.0067
6788.00,1.0164
6787.00,1.0257
6786.00,1.0345
6785.00,1.0430
6784.00,1.0515
6783.00,1.0600
6782.00,1.0687
6781.00,1.0776
6780.00,1.0864
6779.00,1.0951
6778.00,1.1034
6777.00,1.1112
6776.00,1.1186
6775.00,1.1258
6774.00,1.1332
6773.00,1.1406
6772.00,1.1480
6771.00,1.1550
6770.00,1.1614
6769.00,1.1671
6768.00,1.1721
6767.00,1.1764
6766.00,1.1803
6765.00,1.1839
6764.00,1.1875
6763.00,1.1912
6762.00,1.1949
6761.00,1.1983
6760.00,1.2011
6759.00,1.2030
6758.00,1.2042
6757.00,1.2051
6756.00,1.2058
6755.00,1.2065
6754.00,1.2069
6753.00,1.2070
6752.00,1.2068
6751.00,1.2064
6750.00,1.2059
6749.00,1.2047
6748.00,1.2024
6747.00,1.1992
6746.00,1.1958
6745.00,1.1926
6744.00,1.1894
6743.00,1.1861
6742.00,1.1824
6741.00,1.1782
6740.00,1.1736
6739.00,1.1687
6738.00,1.1633
6737.00,1.1573
6736.00,1.1507
6735.00,1.1437
6734.00,1.1367
6733.00,1.1296
6732.00,1.1221
6731.00,1.1141
6730.00,1.1056
6729.00,1.0970
6728.00,1.0880
6727.00,1.0785
6726.00,1.0687
6725.00,1.0588
6724.00,1.0489
6723.00,1.0388
6722.00,1.0284
6721.00,1.0179
6720.00,1.0075
6719.00,0.9973
6718.00,0.9872
6717.00,0.9771
6716.00,0.9668
6715.00,0.9562
6714.00,0.9455
6713.00,0.9347
6712.00,0.9240
6711.00,0.9132
6710.00,0.9024
6709.00,0.8920
6708.00,0.8821
6707.00,0.8725
6706.00,0.8632
6705.00,0.8540
6704.00,0.8450
6703.00,0.8361
6702.00,0.8278
6701.00,0.8202
6700.00,0.8132
6699.00,0.8066
6698.00,0.8004
6697.00,0.7948
6696.00,0.7897
6695.00,0.7851
6694.00,0.7810
6693.00,0.7775
6692.00,0.7745
6691.00,0.7722
6690.00,0.7706
6689.00,0.7698
6688.00,0.7697
6687.00,0.7701
6686.00,0.7710
6685.00,0.7725
6684.00,0.7746
6683.00,0.7774
6682.00,0.7808
6681.00,0.7846
6680.00,0.7889
6679.00,0.7939
6678.00,0.7994
6677.00,0.8056
6676.00,0.8122
6675.00,0.8192
6674.00,0.8268
6673.00,0.8350
6672.00,0.8435
6671.00,0.8521
6670.00,0.8608
6669.00,0.8698
6668.00,0.8791
6667.00,0.8886
6666.00,0.8983
6665.00,0.9085
6664.00,0.9189
6663.00,0.9295
6662.00,0.9399
6661.00,0.9501
6660.00,0.9603
6659.00,0.9704
6658.00,0.9803
6657.00,0.9902
6656.00,1.0003
6655.00,1.0107
6654.00,1.0214
6653.00,1.0321
6652.00,1.0423
6651.00,1.0522
6650.00,1.0619
6649.00,1.0715
6648.00,1.0808
6647.00,1.0896
6646.00,1.0983
6645.00,1.1070
6644.00,1.1157
6643.00,1.1243
6642.00,1.1326
6641.00,1.1405
6640.00,1.1480
6639.00,1.1552
6638.00,1.1620
6637.00,1.1687
6636.00,1.1753
6635.00,1.1818
6634.00,1.1881
6633.00,1.1945
6632.00,1.2004
6631.00,1.2055
6630.00,1.2093
6629.00,1.2122
6628.00,1.2148
6627.00,1.2174
6626.00,1.2201
6625.00,1.2231
6624.00,1.2263
6623.00,1.2290
6622.00,1.2310
6621.00,1.2323
6620.00,1.2330
6619.00,1.2332
6618.00,1.2329
6617.00,1.2323
6616.00,1.2313
6615.00,1.2300
6614.00,1.2280
6613.00,1.2254
6612.00,1.2226
6611.00,1.2198
6610.00,1.2169
6609.00,1.2137
6608.00,1.2102
6607.00,1.2067
6606.00,1.2026
6605.00,1.1978
6604.00,1.1920
6603.00,1.1855
6602.00,1.1786
6601.00,1.1712
6600.00,1.1635
6599.00,1.1556
6598.00,1.1475
6597.00,1.1392
6596.00,1.1307
6595.00,1.1221
6594.00,1.1132
6593.00,1.1040
6592.00,1.0942
6591.00,1.0840
6590.00,1.0733
6589.00,1.0625
6588.00,1.0515
6587.00,1.0406
6586.00,1.0297
6585.00,1.0190
6584.00,1.0082
6583.00,0.9970
6582.00,0.9855
6581.00,0.9738
6580.00,0.9618
6579.00,0.9498
6578.00,0.9380
6577.00,0.9267
6576.00,0.9156
6575.00,0.9048
6574.00,0.8939
6573.00,0.8833
6572.00,0.8732
6571.00,0.8634
6570.00,0.8539
6569.00,0.8449
6568.00,0.8362
6567.00,0.8281
6566.00,0.8204
6565.00,0.8131
6564.00,0.8062
6563.00,0.7999
6562.00,0.7944
6561.00,0.7895
6560.00,0.7852
6559.00,0.7815
6558.00,0.7786
6557.00,0.7765
6556.00,0.7751
6555.00,0.7742
6554.00,0.7739
6553.00,0.7743
6552.00,0.7753
6551.00,0.7770
6550.00,0.7794
6549.00,0.7824
6548.00,0.7861
6547.00,0.7905
6546.00,0.7955
6545.00,0.8009
6544.00,0.8068
6543.00,0.8130
6542.00,0.8199
6541.00,0.8273
6540.00,0.8351
6539.00,0.8431
6538.00,0.8516
6537.00,0.8604
6536.00,0.8696
6535.00,0.8791
6534.00,0.8887
6533.00,0.8986
6532.00,0.9085
6531.00,0.9185
6530.00,0.9287
6529.00,0.9391
6528.00,0.9496
6527.00,0.9601
6526.00,0.9707
6525.00,0.9816
6524.00,0.9926
6523.00,1.0031
6522.00,1.0132
6521.00,1.0232
6520.00,1.0333
6519.00,1.0437
6518.00,1.0538
6517.00,1.0636
6516.00,1.0731
6515.00,1.0824
6514.00,1.0914
6513.00,1.0999
6512.00,1.1083
6511.00,1.1166
6510.00,1.1251
6509.00,1.1333
6508.00,1.1411
6507.00,1.1483
6506.00,1.1552
6505.00,1.1617
6504.00,1.1678
6503.00,1.1736
6502.00,1.1791
6501.00,1.1844
6500.00,1.1894
6499.00,1.1942
6498.00,1.1987
6497.00,1.2032
6496.00,1.2074
6495.00,1.2112
6494.00,1.2145
6493.00,1.2172
6492.00,1.2193
6491.00,1.2210
6490.00,1.2226
6489.00,1.2237
6488.00,1.2246
6487.00,1.2253
6486.00,1.2259
6485.00,1.2262
6484.00,1.2256
6483.00,1.2241
6482.00,1.2220
6481.00,1.2196
6480.00,1.2169
6479.00,1.2136
6478.00,1.2103
6477.00,1.2072
6476.00,1.2042
6475.00,1.2007
6474.00,1.1963
6473.00,1.1913
6472.00,1.1859
6471.00,1.1802
6470.00,1.1743
6469.00,1.1679
6468.00,1.1611
6467.00,1.1540
6466.00,1.1467
6465.00,1.1390
6464.00,1.1307
6463.00,1.1223
6462.00,1.1139
6461.00,1.1057
6460.00,1.0973
6459.00,1.0882
6458.00,1.0785
6457.00,1.0685
6456.00,1.0582
6455.00,1.0477
6454.00,1.0368
6453.00,1.0260
6452.00,1.0151
6451.00,1.0043
6450.00,0.9935
6449.00,0.9825
6448.00,0.9712
6447.00,0.9595
6446.00,0.9476
6445.00,0.9358
6444.00,0.9241
6443.00,0.9125
6442.00,0.9013
6441.00,0.8906
6440.00,0.8806
6439.00,0.8708
6438.00,0.8609
6437.00,0.8512
6436.00,0.8418
6435.00,0.8329
6434.00,0.8244
6433.00,0.8163
6432.00,0.8088
6431.00,0.8021
6430.00,0.7960
6429.00,0.7904
6428.00,0.7851
6427.00,0.7803
6426.00,0.7762
6425.00,0.7728
6424.00,0.7702
6423.00,0.7683
6422.00,0.7672
6421.00,0.7668
6420.00,0.7669
6419.00,0.7678
6418.00,0.7693
6417.00,0.7715
6416.00,0.7745
6415.00,0.7781
6414.00,0.7824
6413.00,0.7874
6412.00,0.7929
6411.00,0.7989
6410.00,0.8053
6409.00,0.8124
6408.00,0.8201
6407.00,0.8281
6406.00,0.8365
6405.00,0.8452
6404.00,0.8541
6403.00,0.8633
6402.00,0.8728
6401.00,0.8828
6400.00,0.8932
6399.00,0.9039
6398.00,0.9147
6397.00,0.9254
6396.00,0.9362
6395.00,0.9469
6394.00,0.9575
6393.00,0.9682
6392.00,0.9791
6391.00,0.9902
6390.00,1.0015
6389.00,1.0128
6388.00,1.0240
6387.00,1.0349
6386.00,1.0457
6385.00,1.0562
6384.00,1.0666
6383.00,1.0768
6382.00,1.0867
6381.00,1.0964
6380.00,1.1061
6379.00,1.1155
6378.00,1.1247
6377.00,1.1336
6376.00,1.1422
6375.00,1.1506
6374.00,1.1589
6373.00,1.1670
6372.00,1.1746
6371.00,1.1816
6370.00,1.1884
6369.00,1.1949
6368.00,1.2012
6367.00,1.2072
6366.00,1.2128
6365.00,1.2184
6364.00,1.2238
6363.00,1.2289
6362.00,1.2336
6361.00,1.2379
6360.00,1.2418
6359.00,1.2451
6358.00,1.2480
6357.00,1.2504
6356.00,1.2525
6355.00,1.2542
6354.00,1.2552
6353.00,1.2555
6352.00,1.2553
6351.00,1.2547
6350.00,1.2540
6349.00,1.2531
6348.00,1.2522
6347.00,1.2512
6346.00,1.2499
6345.00,1.2481
6344.00,1.2454
6343.00,1.2419
6342.00,1.2377
6341.00,1.2328
6340.00,1.2273
6339.00,1.2217
6338.00,1.2159
6337.00,1.2102
6336.00,1.2043
6335.00,1.1979
6334.00,1.1910
6333.00,1.1839
6332.00,1.1765
6331.00,1.1687
6330.00,1.1604
6329.00,1.1514
6328.00,1.1419
6327.00,1.1321
6326.00,1.1222
6325.00,1.1123
6324.00,1.1021
6323.00,1.0917
6322.00,1.0810
6321.00,1.0699
6320.00,1.0581
6319.00,1.0455
6318.00,1.0327
6317.00,1.0202
6316.00,1.0081
6315.00,0.9962
6314.00,0.9842
6313.00,0.9722
6312.00,0.9601
6311.00,0.9480
6310.00,0.9357
6309.00,0.9234
6308.00,0.9113
6307.00,0.8996
6306.00,0.8883
6305.00,0.8774
6304.00,0.8667
6303.00,0.8564
6302.00,0.8465
6301.00,0.8371
6300.00,0.8282
6299.00,0.8197
6298.00,0.8117
6297.00,0.8043
6296.00,0.7976
6295.00,0.7916
6294.00,0.7863
6293.00,0.7816
6292.00,0.7777
6291.00,0.7745
6290.00,0.7721
6289.00,0.7704
6288.00,0.7694
6287.00,0.7692
6286.00,0.7697
6285.00,0.7709
6284.00,0.7729
6283.00,0.7756
6282.00,0.7790
6281.00,0.7828
6280.00,0.7872
6279.00,0.7922
6278.00,0.7980
6277.00,0.8044
6276.00,0.8112
6275.00,0.8185
6274.00,0.8264
6273.00,0.8347
6272.00,0.8434
6271.00,0.8522
6270.00,0.8612
6269.00,0.8708
6268.00,0.8807
6267.00,0.8911
6266.00,0.9016
6265.00,0.9124
6264.00,0.9234
6263.00,0.9344
6262.00,0.9456
6261.00,0.9568
6260.00,0.9679
6259.00,0.9789
6258.00,0.9898
6257.00,1.0008
6256.00,1.0117
6255.00,1.0225
6254.00,1.0334
6253.00,1.0443
6252.00,1.0553
6251.00,1.0660
6250.00,1.0764
6249.00,1.0864
6248.00,1.0961
6247.00,1.1054
6246.00,1.1145
6245.00,1.1234
6244.00,1.1321
6243.00,1.1406
6242.00,1.1486
6241.00,1.1564
6240.00,1.1640
6239.00,1.1712
6238.00,1.1782
6237.00,1.1851
6236.00,1.1918
6235.00,1.1981
6234.00,1.2039
6233.00,1.2091
6232.00,1.2141
6231.00,1.2189
6230.00,1.2233
6229.00,1.2272
6228.00,1.2306
6227.00,1.2337
6226.00,1.2366
6225.00,1.2393
6224.00,1.2416
6223.00,1.2434
6222.00,1.2448
6221.00,1.2460
6220.00,1.2471
6219.00,1.2478
6218.00,1.2478
6217.00,1.2471
6216.00,1.2460
6215.00,1.2446
6214.00,1.2426
6213.00,1.2401
6212.00,1.2372
6211.00,1.2341
6210.00,1.2311
6209.00,1.2279
6208.00,1.2245
6207.00,1.2205
6206.00,1.2161
6205.00,1.2114
6204.00,1.2063
6203.00,1.2008
6202.00,1.1948
6201.00,1.1883
6200.00,1.1814
6199.00,1.1741
6198.00,1.1667
6197.00,1.1588
6196.00,1.1503
6195.00,1.1411
6194.00,1.1315
6193.00,1.1218
6192.00,1.1118
6191.00,1.1016
6190.00,1.0912
6189.00,1.0807
6188.00,1.0701
6187.00,1.0592
6186.00,1.0478
6185.00,1.0363
6184.00,1.0245
6183.00,1.0126
6182.00,1.0006
6181.00,0.9884
6180.00,0.9762
6179.00,0.9641
6178.00,0.9520
6177.00,0.9398
6176.00,0.9277
6175.00,0.9155
6174.00,0.9033
6173.00,0.8914
6172.00,0.8799
6171.00,0.8688
6170.00,0.8584
6169.00,0.8483
6168.00,0.8386
6167.00,0.8293
6166.00,0.8203
6165.00,0.8119
6164.00,0.8041
6163.00,0.7969
6162.00,0.7906
6161.00,0.7850
6160.00,0.7800
6159.00,0.7757
6158.00,0.7720
6157.00,0.7689
6156.00,0.7665
6155.00,0.7650
6154.00,0.7644
6153.00,0.7646
6152.00,0.7655
6151.00,0.7671
6150.00,0.7697
6149.00,0.7730
6148.00,0.7770
6147.00,0.7814
6146.00,0.7865
6145.00,0.7923
6144.00,0.7987
6143.00,0.8057
6142.00,0.8132
6141.00,0.8214
6140.00,0.8300
6139.00,0.8390
6138.00,0.8483
6137.00,0.8579
6136.00,0.8679
6135.00,0.8782
6134.00,0.8888
6133.00,0.8997
6132.00,0.9108
6131.00,0.9221
6130.00,0.9335
6129.00,0.9449
6128.00,0.9566
6127.00,0.9683
6126.00,0.9800
6125.00,0.9917
6124.00,1.0033
6123.00,1.0148
6122.00,1.0263
6121.00,1.0378
6120.00,1.0492
6119.00,1.0605
6118.00,1.0716
6117.00,1.0826
6116.00,1.0935
6115.00,1.1042
6114.00,1.1149
6113.00,1.1253
6112.00,1.1353
6111.00,1.1449
6110.00,1.1542
6109.00,1.1632
6108.00,1.1721
6107.00,1.1810
6106.00,1.1896
6105.00,1.1980
6104.00,1.2058
6103.00,1.2129
6102.00,1.2195
6101.00,1.2255
6100.00,1.2313
6099.00,1.2371
6098.00,1.2428
6097.00,1.2483
6096.00,1.2532
6095.00,1.2576
6094.00,1.2615
6093.00,1.2648
6092.00,1.2678
6091.00,1.2705
6090.00,1.2732
6089.00,1.2757
6088.00,1.2777
6087.00,1.2789
6086.00,1.2795
6085.00,1.2796
6084.00,1.2792
6083.00,1.2781
6082.00,1.2767
6081.00,1.2754
6080.00,1.2740
6079.00,1.2722
6078.00,1.2698
6077.00,1.2670
6076.00,1.2639
6075.00,1.2602
6074.00,1.2559
6073.00,1.2510
6072.00,1.2457
6071.00,1.2401
6070.00,1.2340
6069.00,1.2274
6068.00,1.2203
6067.00,1.2130
6066.00,1.2054
6065.00,1.1974
6064.00,1.1890
6063.00,1.1803
6062.00,1.1713
6061.00,1.1620
6060.00,1.1523
6059.00,1.1422
6058.00,1.1318
6057.00,1.1209
6056.00,1.1094
6055.00,1.0974
6054.00,1.0852
6053.00,1.0729
6052.00,1.0603
6051.00,1.0475
6050.00,1.0346
6049.00,1.0216
6048.00,1.0084
6047.00,0.9951
6046.00,0.9818
6045.00,0.9685
6044.00,0.9553
6043.00,0.9423
6042.00,0.9295
6041.00,0.9168
6040.00,0.9043
6039.00,0.8920
6038.00,0.8800
6037.00,0.8685
6036.00,0.8573
6035.00,0.8466
6034.00,0.8364
6033.00,0.8268
6032.00,0.8178
6031.00,0.8092
6030.00,0.8012
6029.00,0.7938
6028.00,0.7871
6027.00,0.7811
6026.00,0.7759
6025.00,0.7716
6024.00,0.7682
6023.00,0.7654
6022.00,0.7633
6021.00,0.7620
6020.00,0.7616
6019.00,0.7619
6018.00,0.7632
6017.00,0.7653
6016.00,0.7682
6015.00,0.7718
6014.00,0.7761
6013.00,0.7811
6012.00,0.7867
6011.00,0.7929
6010.00,0.7998
6009.00,0.8074
6008.00,0.8155
6007.00,0.8240
6006.00,0.8330
6005.00,0.8424
6004.00,0.8522
6003.00,0.8623
6002.00,0.8728
6001.00,0.8836
6000.00,0.8946
5999.00,0.9059
5998.00,0.9173
5997.00,0.9290
5996.00,0.9409
5995.00,0.9530
5994.00,0.9653
5993.00,0.9777
5992.00,0.9901
5991.00,1.0024
5990.00,1.0147
5989.00,1.0268
5988.00,1.0388
5987.00,1.0506
5986.00,1.0623
5985.00,1.0740
5984.00,1.0855
5983.00,1.0969
5982.00,1.1084
5981.00,1.1197
5980.00,1.1308
5979.00,1.1415
5978.00,1.1518
5977.00,1.1620
5976.00,1.1718
5975.00,1.1812
5974.00,1.1900
5973.00,1.1987
5972.00,1.2073
5971.00,1.2157
5970.00,1.2238
5969.00,1.2314
5968.00,1.2384
5967.00,1.2451
5966.00,1.2516
5965.00,1.2580
5964.00,1.2640
5963.00,1.2694
5962.00,1.2742
5961.00,1.2784
5960.00,1.2822
5959.00,1.2855
5958.00,1.2887
5957.00,1.2919
5956.00,1.2948
5955.00,1.2972
5954.00,1.2987
5953.00,1.2996
5952.00,1.3001
5951.00,1.3003
5950.00,1.3003
5949.00,1.3001
5948.00,1.2993
5947.00,1.2975
5946.00,1.2949
5945.00,1.2918
5944.00,1.2885
5943.00,1.2851
5942.00,1.2814
5941.00,1.2774
5940.00,1.2731
5939.00,1.2684
5938.00,1.2635
5937.00,1.2581
5936.00,1.2521
5935.00,1.2457
5934.00,1.2388
5933.00,1.2314
5932.00,1.2233
5931.00,1.2145
5930.00,1.2052
5929.00,1.1958
5928.00,1.1863
5927.00,1.1765
5926.00,1.1663
5925.00,1.1555
5924.00,1.1442
5923.00,1.1322
5922.00,1.1196
5921.00,1.1068
5920.00,1.0941
5919.00,1.0816
5918.00,1.0691
5917.00,1.0565
5916.00,1.0436
5915.00,1.0304
5914.00,1.0168
5913.00,1.0031
5912.00,0.9894
5911.00,0.9758
5910.00,0.9623
5909.00,0.9490
5908.00,0.9359
5907.00,0.9230
5906.00,0.9103
5905.00,0.8979
5904.00,0.8859
5903.00,0.8742
5902.00,0.8629
5901.00,0.8520
5900.00,0.8418
5899.00,0.8323
5898.00,0.8235
5897.00,0.8156
5896.00,0.8082
5895.00,0.8015
5894.00,0.7955
5893.00,0.7902
5892.00,0.7856
5891.00,0.7818
5890.00,0.7789
5889.00,0.7769
5888.00,0.7758
5887.00,0.7754
5886.00,0.7759
5885.00,0.7772
5884.00,0.7793
5883.00,0.7821
5882.00,0.7857
5881.00,0.7902
5880.00,0.7953
5879.00,0.8012
5878.00,0.8078
5877.00,0.8150
5876.00,0.8227
5875.00,0.8309
5874.00,0.8395
5873.00,0.8486
5872.00,0.8581
5871.00,0.8681
5870.00,0.8786
5869.00,0.8896
5868.00,0.9010
5867.00,0.9127
5866.00,0.9245
5865.00,0.9365
5864.00,0.9486
5863.00,0.9607
5862.00,0.9729
5861.00,0.9852
5860.00,0.9975
5859.00,1.0097
5858.00,1.0217
5857.00,1.0338
5856.00,1.0459
5855.00,1.0581
5854.00,1.0704
5853.00,1.0826
5852.00,1.0945
5851.00,1.1061
5850.00,1.1173
5849.00,1.1285
5848.00,1.1395
5847.00,1.1503
5846.00,1.1609
5845.00,1.1711
5844.00,1.1811
5843.00,1.1909
5842.00,1.2007
5841.00,1.2103
5840.00,1.2197
5839.00,1.2288
5838.00,1.2374
5837.00,1.2453
5836.00,1.2526
5835.00,1.2595
5834.00,1.2663
5833.00,1.2728
5832.00,1.2786
5831.00,1.2839
5830.00,1.2889
5829.00,1.2937
5828.00,1.2979
5827.00,1.3019
5826.00,1.3058
5825.00,1.3097
5824.00,1.3131
5823.00,1.3158
5822.00,1.3180
5821.00,1.3198
5820.00,1.3212
5819.00,1.3218
5818.00,1.3220
5817.00,1.3219
5816.00,1.3216
5815.00,1.3209
5814.00,1.3197
5813.00,1.3180
5812.00,1.3159
5811.00,1.3133
5810.00,1.3102
5809.00,1.3066
5808.00,1.3027
5807.00,1.2984
5806.00,1.2935
5805.00,1.2881
5804.00,1.2823
5803.00,1.2764
5802.00,1.2702
5801.00,1.2638
5800.00,1.2570
5799.00,1.2495
5798.00,1.2412
5797.00,1.2323
5796.00,1.2228
5795.00,1.2129
5794.00,1.2029
5793.00,1.1926
5792.00,1.1819
5791.00,1.1709
5790.00,1.1593
5789.00,1.1474
5788.00,1.1350
5787.00,1.1223
5786.00,1.1092
5785.00,1.0960
5784.00,1.0826
5783.00,1.0691
5782.00,1.0556
5781.00,1.0420
5780.00,1.0282
5779.00,1.0143
5778.00,1.0004
5777.00,0.9865
5776.00,0.9726
5775.00,0.9586
5774.00,0.9448
5773.00,0.9312
5772.00,0.9179
5771.00,0.9050
5770.00,0.8924
5769.00,0.8804
5768.00,0.8688
5767.00,0.8577
5766.00,0.8472
5765.00,0.8372
5764.00,0.8280
5763.00,0.8195
5762.00,0.8118
5761.00,0.8048
5760.00,0.7986
5759.00,0.7932
5758.00,0.7885
5757.00,0.7847
5756.00,0.7817
5755.00,0.7795
5754.00,0.7783
5753.00,0.7779
5752.00,0.7785
5751.00,0.7799
5750.00,0.7822
5749.00,0.7854
5748.00,0.7894
5747.00,0.7942
5746.00,0.7996
5745.00,0.8056
5744.00,0.8124
5743.00,0.8198
5742.00,0.8278
5741.00,0.8364
5740.00,0.8455
5739.00,0.8551
5738.00,0.8652
5737.00,0.8756
5736.00,0.8865
5735.00,0.8977
5734.00,0.9093
5733.00,0.9211
5732.00,0.9330
5731.00,0.9450
5730.00,0.9571
5729.00,0.9694
5728.00,0.9818
5727.00,0.9942
5726.00,1.0067
5725.00,1.0193
5724.00,1.0320
5723.00,1.0446
5722.00,1.0573
5721.00,1.0700
5720.00,1.0825
5719.00,1.0946
5718.00,1.1064
5717.00,1.1179
5716.00,1.1294
5715.00,1.1409
5714.00,1.1522
5713.00,1.1633
5712.00,1.1742
5711.00,1.1846
5710.00,1.1944
5709.00,1.2039
5708.00,1.2132
5707.00,1.2226
5706.00,1.2318
5705.00,1.2407
5704.00,1.2492
5703.00,1.2571
5702.00,1.2645
5701.00,1.2713
5700.00,1.2778
5699.00,1.2841
5698.00,1.2902
5697.00,1.2961
5696.00,1.3015
5695.00,1.3064
5694.00,1.3109
5693.00,1.3151
5692.00,1.3188
5691.00,1.3221
5690.00,1.3250
5689.00,1.3274
5688.00,1.3293
5687.00,1.3306
5686.00,1.3315
5685.00,1.3320
5684.00,1.3323
5683.00,1.3324
5682.00,1.3323
5681.00,1.3318
5680.00,1.3309
5679.00,1.3295
5678.00,1.3276
5677.00,1.3253
5676.00,1.3223
5675.00,1.3190
5674.00,1.3152
5673.00,1.3110
5672.00,1.3062
5671.00,1.3008
5670.00,1.2948
5669.00,1.2883
5668.00,1.2812
5667.00,1.2736
5666.00,1.2656
5665.00,1.2573
5664.00,1.2486
5663.00,1.2397
5662.00,1.2305
5661.00,1.2211
5660.00,1.2114
5659.00,1.2012
5658.00,1.1904
5657.00,1.1791
5656.00,1.1671
5655.00,1.1547
5654.00,1.1421
5653.00,1.1292
5652.00,1.1161
5651.00,1.1027
5650.00,1.0892
5649.00,1.0755
5648.00,1.0615
5647.00,1.0472
5646.00,1.0327
5645.00,1.0182
5644.00,1.0036
5643.00,0.9890
5642.00,0.9744
5641.00,0.9600
5640.00,0.9456
5639.00,0.9314
5638.00,0.9174
5637.00,0.9038
5636.00,0.8907
5635.00,0.8782
5634.00,0.8662
5633.00,0.8548
5632.00,0.8439
5631.00,0.8335
5630.00,0.8238
5629.00,0.8146
5628.00,0.8061
5627.00,0.7984
5626.00,0.7915
5625.00,0.7855
5624.00,0.7802
5623.00,0.7758
5622.00,0.7724
5621.00,0.7699
5620.00,0.7683
5619.00,0.7677
5618.00,0.7681
5617.00,0.7695
5616.00,0.7718
5615.00,0.7749
5614.00,0.7788
5613.00,0.7836
5612.00,0.7891
5611.00,0.7953
5610.00,0.8022
5609.00,0.8099
5608.00,0.8183
5607.00,0.8274
5606.00,0.8371
5605.00,0.8473
5604.00,0.8581
5603.00,0.8692
5602.00,0.8806
5601.00,0.8923
5600.00,0.9043
5599.00,0.9166
5598.00,0.9290
5597.00,0.9418
5596.00,0.9546
5595.00,0.9676
5594.00,0.9806
5593.00,0.9938
5592.00,1.0071
5591.00,1.0204
5590.00,1.0336
5589.00,1.0467
5588.00,1.0596
5587.00,1.0723
5586.00,1.0847
5585.00,1.0968
5584.00,1.1086
5583.00,1.1202
5582.00,1.1316
5581.00,1.1428
5580.00,1.1538
5579.00,1.1647
5578.00,1.1753
5577.00,1.1856
5576.00,1.1955
5575.00,1.2051
5574.00,1.2145
5573.00,1.2236
5572.00,1.2322
5571.00,1.2401
5570.00,1.2474
5569.00,1.2543
5568.00,1.2610
5567.00,1.2677
5566.00,1.2741
5565.00,1.2804
5564.00,1.2864
5563.00,1.2919
5562.00,1.2969
5561.00,1.3015
5560.00,1.3059
5559.00,1.3101
5558.00,1.3141
5557.00,1.3175
5556.00,1.3205
5555.00,1.3232
5554.00,1.3255
5553.00,1.3274
5552.00,1.3286
5551.00,1.3295
5550.00,1.3300
5549.00,1.3301
5548.00,1.3299
5547.00,1.3293
5546.00,1.3284
5545.00,1.3271
5544.00,1.3253
5543.00,1.3231
5542.00,1.3205
5541.00,1.3174
5540.00,1.3138
5539.00,1.3098
5538.00,1.3052
5537.00,1.3000
5536.00,1.2944
5535.00,1.2885
5534.00,1.2824
5533.00,1.2759
5532.00,1.2687
5531.00,1.2610
5530.00,1.2529
5529.00,1.2443
5528.00,1.2350
5527.00,1.2251
5526.00,1.2147
5525.00,1.2041
5524.00,1.1931
5523.00,1.1816
5522.00,1.1699
5521.00,1.1577
5520.00,1.1451
5519.00,1.1320
5518.00,1.1185
5517.00,1.1047
5516.00,1.0906
5515.00,1.0762
5514.00,1.0617
5513.00,1.0471
5512.00,1.0325
5511.00,1.0177
5510.00,1.0027
5509.00,0.9877
5508.00,0.9726
5507.00,0.9577
5506.00,0.9430
5505.00,0.9285
5504.00,0.9144
5503.00,0.9007
5502.00,0.8873
5501.00,0.8743
5500.00,0.8616
5499.00,0.8494
5498.00,0.8379
5497.00,0.8272
5496.00,0.8172
5495.00,0.8080
5494.00,0.7996
5493.00,0.7919
5492.00,0.7850
5491.00,0.7790
5490.00,0.7739
5489.00,0.7698
5488.00,0.7666
5487.00,0.7643
5486.00,0.7631
5485.00,0.7630
5484.00,0.7639
5483.00,0.7659
5482.00,0.7689
5481.00,0.7728
5480.00,0.7776
5479.00,0.7833
5478.00,0.7898
5477.00,0.7971
5476.00,0.8050
5475.00,0.8137
5474.00,0.8230
5473.00,0.8329
5472.00,0.8434
5471.00,0.8544
5470.00,0.8660
5469.00,0.8781
5468.00,0.8907
5467.00,0.9036
5466.00,0.9168
5465.00,0.9303
5464.00,0.9440
5463.00,0.9577
5462.00,0.9715
5461.00,0.9853
5460.00,0.9991
5459.00,1.0129
5458.00,1.0269
5457.00,1.0409
5456.00,1.0549
5455.00,1.0689
5454.00,1.0828
5453.00,1.0965
5452.00,1.1098
5451.00,1.1229
5450.00,1.1359
5449.00,1.1487
5448.00,1.1613
5447.00,1.1736
5446.00,1.1859
5445.00,1.1981
5444.00,1.2099
5443.00,1.2209
5442.00,1.2315
5441.00,1.2417
5440.00,1.2519
5439.00,1.2619
5438.00,1.2717
5437.00,1.2809
5436.00,1.2895
5435.00,1.2974
5434.00,1.3049
5433.00,1.3121
5432.00,1.3190
5431.00,1.3255
5430.00,1.3315
5429.00,1.3372
5428.00,1.3424
5427.00,1.3471
5426.00,1.3514
5425.00,1.3554
5424.00,1.3589
5423.00,1.3620
5422.00,1.3648
5421.00,1.3674
5420.00,1.3697
5419.00,1.3714
5418.00,1.3723
5417.00,1.3726
5416.00,1.3722
5415.00,1.3712
5414.00,1.3698
5413.00,1.3679
5412.00,1.3655
5411.00,1.3629
5410.00,1.3602
5409.00,1.3574
5408.00,1.3542
5407.00,1.3505
5406.00,1.3461
5405.00,1.3410
5404.00,1.3354
5403.00,1.3293
5402.00,1.3230
5401.00,1.3164
5400.00,1.3092
5399.00,1.3013
5398.00,1.2928
5397.00,1.2838
5396.00,1.2742
5395.00,1.2641
5394.00,1.2534
5393.00,1.2423
5392.00,1.2309
5391.00,1.2191
5390.00,1.2072
5389.00,1.1951
5388.00,1.1826
5387.00,1.1697
5386.00,1.1562
5385.00,1.1423
5384.00,1.1280
5383.00,1.1132
5382.00,1.0981
5381.00,1.0828
5380.00,1.0674
5379.00,1.0518
5378.00,1.0358
5377.00,1.0196
5376.00,1.0033
5375.00,0.9869
5374.00,0.9707
5373.00,0.9548
5372.00,0.9392
5371.00,0.9238
5370.00,0.9089
5369.00,0.8945
5368.00,0.8807
5367.00,0.8673
5366.00,0.8545
5365.00,0.8422
5364.00,0.8304
5363.00,0.8193
5362.00,0.8091
5361.00,0.7997
5360.00,0.7911
5359.00,0.7834
5358.00,0.7767
5357.00,0.7711
5356.00,0.7665
5355.00,0.7628
5354.00,0.7602
5353.00,0.7587
5352.00,0.7583
5351.00,0.7588
5350.00,0.7603
5349.00,0.7629
5348.00,0.7665
5347.00,0.7712
5346.00,0.7768
5345.00,0.7832
5344.00,0.7905
5343.00,0.7985
5342.00,0.8073
5341.00,0.8166
5340.00,0.8265
5339.00,0.8371
5338.00,0.8483
5337.00,0.8603
5336.00,0.8727
5335.00,0.8855
5334.00,0.8986
5333.00,0.9119
5332.00,0.9254
5331.00,0.9392
5330.00,0.9532
5329.00,0.9673
5328.00,0.9816
5327.00,0.9960
5326.00,1.0104
5325.00,1.0248
5324.00,1.0390
5323.00,1.0530
5322.00,1.0670
5321.00,1.0811
5320.00,1.0951
5319.00,1.1091
5318.00,1.1229
5317.00,1.1365
5316.00,1.1499
5315.00,1.1629
5314.00,1.1757
5313.00,1.1883
5312.00,1.2006
5311.00,1.2125
5310.00,1.2241
5309.00,1.2354
5308.00,1.2466
5307.00,1.2574
5306.00,1.2680
5305.00,1.2780
5304.00,1.2874
5303.00,1.2962
5302.00,1.3044
5301.00,1.3123
5300.00,1.3200
5299.00,1.3277
5298.00,1.3352
5297.00,1.3425
5296.00,1.3493
5295.00,1.3555
5294.00,1.3612
5293.00,1.3663
5292.00,1.3705
5291.00,1.3740
5290.00,1.3772
5289.00,1.3802
5288.00,1.3830
5287.00,1.3854
5286.00,1.3873
5285.00,1.3887
5284.00,1.3895
5283.00,1.3897
5282.00,1.3895
5281.00,1.3890
5280.00,1.3883
5279.00,1.3870
5278.00,1.3851
5277.00,1.3828
5276.00,1.3801
5275.00,1.3769
5274.00,1.3733
5273.00,1.3693
5272.00,1.3649
5271.00,1.3600
5270.00,1.3545
5269.00,1.3483
5268.00,1.3416
5267.00,1.3346
5266.00,1.3271
5265.00,1.3191
5264.00,1.3105
5263.00,1.3012
5262.00,1.2914
5261.00,1.2811
5260.00,1.2704
5259.00,1.2594
5258.00,1.2483
5257.00,1.2368
5256.00,1.2246
5255.00,1.2116
5254.00,1.1981
5253.00,1.1843
5252.00,1.1703
5251.00,1.1560
5250.00,1.1414
5249.00,1.1264
5248.00,1.1109
5247.00,1.0951
5246.00,1.0790
5245.00,1.0628
5244.00,1.0465
5243.00,1.0301
5242.00,1.0138
5241.00,0.9977
5240.00,0.9817
5239.00,0.9658
5238.00,0.9501
5237.00,0.9347
5236.00,0.9196
5235.00,0.9049
5234.00,0.8908
5233.00,0.8773
5232.00,0.8643
5231.00,0.8519
5230.00,0.8401
5229.00,0.8292
5228.00,0.8191
5227.00,0.8097
5226.00,0.8010
5225.00,0.7933
5224.00,0.7866
5223.00,0.7810
5222.00,0.7766
5221.00,0.7734
5220.00,0.7713
5219.00,0.7703
5218.00,0.7704
5217.00,0.7716
5216.00,0.7739
5215.00,0.7772
5214.00,0.7817
5213.00,0.7870
5212.00,0.7933
5211.00,0.8004
5210.00,0.8085
5209.00,0.8173
5208.00,0.8270
5207.00,0.8373
5206.00,0.8484
5205.00,0.8599
5204.00,0.8720
5203.00,0.8845
5202.00,0.8975
5201.00,0.9110
5200.00,0.9250
5199.00,0.9393
5198.00,0.9540
5197.00,0.9688
5196.00,0.9837
5195.00,0.9987
5194.00,1.0138
5193.00,1.0289
5192.00,1.0439
5191.00,1.0590
5190.00,1.0741
5189.00,1.0891
5188.00,1.1040
5187.00,1.1184
5186.00,1.1327
5185.00,1.1467
5184.00,1.1607
5183.00,1.1745
5182.00,1.1881
5181.00,1.2014
5180.00,1.2143
5179.00,1.2269
5178.00,1.2394
5177.00,1.2516
5176.00,1.2636
5175.00,1.2753
5174.00,1.2866
5173.00,1.2976
5172.00,1.3081
5171.00,1.3180
5170.00,1.3273
5169.00,1.3360
5168.00,1.3442
5167.00,1.3520
5166.00,1.3594
5165.00,1.3665
5164.00,1.3733
5163.00,1.3794
5162.00,1.3850
5161.00,1.3901
5160.00,1.3948
5159.00,1.3993
5158.00,1.4036
5157.00,1.4074
5156.00,1.4109
5155.00,1.4138
5154.00,1.4162
5153.00,1.4181
5152.00,1.4194
5151.00,1.4199
5150.00,1.4196
5149.00,1.4188
5148.00,1.4176
5147.00,1.4164
5146.00,1.4150
5145.00,1.4135
5144.00,1.4116
5143.00,1.4091
5142.00,1.4059
5141.00,1.4022
5140.00,1.3980
5139.00,1.3931
5138.00,1.3878
5137.00,1.3819
5136.00,1.3758
5135.00,1.3694
5134.00,1.3625
5133.00,1.3551
5132.00,1.3470
5131.00,1.3383
5130.00,1.3290
5129.00,1.3191
5128.00,1.3087
5127.00,1.2980
5126.00,1.2869
5125.00,1.2756
5124.00,1.2638
5123.00,1.2515
5122.00,1.2386
5121.00,1.2251
5120.00,1.2110
5119.00,1.1965
5118.00,1.1816
5117.00,1.1663
5116.00,1.1506
5115.00,1.1345
5114.00,1.1182
5113.00,1.1017
5112.00,1.0850
5111.00,1.0682
5110.00,1.0511
5109.00,1.0339
5108.00,1.0165
5107.00,0.9991
5106.00,0.9819
5105.00,0.9648
5104.00,0.9479
5103.00,0.9314
5102.00,0.9155
5101.00,0.9000
5100.00,0.8851
5099.00,0.8707
5098.00,0.8567
5097.00,0.8434
5096.00,0.8309
5095.00,0.8193
5094.00,0.8086
5093.00,0.7990
5092.00,0.7904
5091.00,0.7828
5090.00,0.7762
5089.00,0.7708
5088.00,0.7666
5087.00,0.7636
5086.00,0.7618
5085.00,0.7612
5084.00,0.7617
5083.00,0.7634
5082.00,0.7663
5081.00,0.7703
5080.00,0.7753
5079.00,0.7814
5078.00,0.7885
5077.00,0.7965
5076.00,0.8055
5075.00,0.8153
5074.00,0.8259
5073.00,0.8372
5072.00,0.8492
5071.00,0.8618
5070.00,0.8750
5069.00,0.8887
5068.00,0.9030
5067.00,0.9176
5066.00,0.9325
5065.00,0.9477
5064.00,0.9629
5063.00,0.9784
5062.00,0.9939
5061.00,1.0097
5060.00,1.0256
5059.00,1.0416
5058.00,1.0574
5057.00,1.0731
5056.00,1.0886
5055.00,1.1040
5054.00,1.1194
5053.00,1.1346
5052.00,1.1497
5051.00,1.1646
5050.00,1.1792
5049.00,1.1935
5048.00,1.2075
5047.00,1.2213
5046.00,1.2349
5045.00,1.2482
5044.00,1.2611
5043.00,1.2735
5042.00,1.2855
5041.00,1.2970
5040.00,1.3082
5039.00,1.3189
5038.00,1.3293
5037.00,1.3393
5036.00,1.3487
5035.00,1.3577
5034.00,1.3664
5033.00,1.3748
5032.00,1.3830
5031.00,1.3908
5030.00,1.3979
5029.00,1.4043
5028.00,1.4099
5027.00,1.4149
5026.00,1.4195
5025.00,1.4240
5024.00,1.4284
5023.00,1.4327
5022.00,1.4364
5021.00,1.4395
5020.00,1.4417
5019.00,1.4433
5018.00,1.4443
5017.00,1.4449
5016.00,1.4452
5015.00,1.4450
5014.00,1.4442
5013.00,1.4429
5012.00,1.4412
5011.00,1.4391
5010.00,1.4367
5009.00,1.4340
5008.00,1.4308
5007.00,1.4268
5006.00,1.4221
5005.00,1.4168
5004.00,1.4109
5003.00,1.4047
5002.00,1.3981
5001.00,1.3912
5000.00,1.3839
4999.00,1.3762
4998.00,1.3679
4997.00,1.3588
4996.00,1.3493
4995.00,1.3393
4994.00,1.3290
4993.00,1.3184
4992.00,1.3073
4991.00,1.2956
4990.00,1.2831
4989.00,1.2697
4988.00,1.2557
4987.00,1.2412
4986.00,1.2263
4985.00,1.2111
4984.00,1.1955
4983.00,1.1796
4982.00,1.1631
4981.00,1.1461
4980.00,1.1288
4979.00,1.1112
4978.00,1.0934
4977.00,1.0755
4976.00,1.0574
4975.00,1.0392
4974.00,1.0209
4973.00,1.0026
4972.00,0.9845
4971.00,0.9667
4970.00,0.9491
4969.00,0.9319
4968.00,0.9150
4967.00,0.8986
4966.00,0.8829
4965.00,0.8679
4964.00,0.8536
4963.00,0.8401
4962.00,0.8275
4961.00,0.8157
4960.00,0.8050
4959.00,0.7953
4958.00,0.7867
4957.00,0.7794
4956.00,0.7733
4955.00,0.7684
4954.00,0.7649
4953.00,0.7627
4952.00,0.7618
4951.00,0.7622
4950.00,0.7638
4949.00,0.7667
4948.00,0.7708
4947.00,0.7762
4946.00,0.7827
4945.00,0.7904
4944.00,0.7991
4943.00,0.8088
4942.00,0.8195
4941.00,0.8310
4940.00,0.8432
4939.00,0.8560
4938.00,0.8695
4937.00,0.8837
4936.00,0.8983
4935.00,0.9135
4934.00,0.9291
4933.00,0.9451
4932.00,0.9612
4931.00,0.9775
4930.00,0.9940
4929.00,1.0107
4928.00,1.0274
4927.00,1.0442
4926.00,1.0609
4925.00,1.0776
4924.00,1.0941
4923.00,1.1107
4922.00,1.1272
4921.00,1.1435
4920.00,1.1595
4919.00,1.1751
4918.00,1.1904
4917.00,1.2054
4916.00,1.2204
4915.00,1.2352
4914.00,1.2498
4913.00,1.2640
4912.00,1.2777
4911.00,1.2908
4910.00,1.3036
4909.00,1.3162
4908.00,1.3284
4907.00,1.3401
4906.00,1.3513
4905.00,1.3620
4904.00,1.3722
4903.00,1.3821
4902.00,1.3915
4901.00,1.4004
4900.00,1.4087
4899.00,1.4164
4898.00,1.4236
4897.00,1.4303
4896.00,1.4366
4895.00,1.4426
4894.00,1.4480
4893.00,1.4530
4892.00,1.4574
4891.00,1.4613
4890.00,1.4646
4889.00,1.4674
4888.00,1.4698
4887.00,1.4718
4886.00,1.4735
4885.00,1.4747
4884.00,1.4756
4883.00,1.4759
4882.00,1.4757
4881.00,1.4751
4880.00,1.4739
4879.00,1.4722
4878.00,1.4698
4877.00,1.4669
4876.00,1.4635
4875.00,1.4596
4874.00,1.4553
4873.00,1.4507
4872.00,1.4457
4871.00,1.4402
4870.00,1.4340
4869.00,1.4273
4868.00,1.4201
4867.00,1.4125
4866.00,1.4046
4865.00,1.3961
4864.00,1.3871
4863.00,1.3772
4862.00,1.3666
4861.00,1.3555
4860.00,1.3439
4859.00,1.3319
4858.00,1.3195
4857.00,1.3065
4856.00,1.2929
4855.00,1.2789
4854.00,1.2643
4853.00,1.2493
4852.00,1.2338
4851.00,1.2177
4850.00,1.2011
4849.00,1.1841
4848.00,1.1666
4847.00,1.1487
4846.00,1.1304
4845.00,1.1119
4844.00,1.0932
4843.00,1.0744
4842.00,1.0554
4841.00,1.0363
4840.00,1.0172
4839.00,0.9981
4838.00,0.9792
4837.00,0.9605
4836.00,0.9422
4835.00,0.9242
4834.00,0.9067
4833.00,0.8897
4832.00,0.8734
4831.00,0.8579
4830.00,0.8432
4829.00,0.8295
4828.00,0.8168
4827.00,0.8051
4826.00,0.7945
4825.00,0.7852
4824.00,0.7770
4823.00,0.7703
4822.00,0.7648
4821.00,0.7608
4820.00,0.7582
4819.00,0.7569
4818.00,0.7570
4817.00,0.7585
4816.00,0.7614
4815.00,0.7656
4814.00,0.7712
4813.00,0.7780
4812.00,0.7860
4811.00,0.7952
4810.00,0.8054
4809.00,0.8166
4808.00,0.8288
4807.00,0.8417
4806.00,0.8554
4805.00,0.8699
4804.00,0.8849
4803.00,0.9005
4802.00,0.9166
4801.00,0.9331
4800.00,0.9498
4799.00,0.9669
4798.00,0.9841
4797.00,1.0015
4796.00,1.0190
4795.00,1.0366
4794.00,1.0543
4793.00,1.0719
4792.00,1.0894
4791.00,1.1068
4790.00,1.1240
4789.00,1.1411
4788.00,1.1581
4787.00,1.1749
4786.00,1.1915
4785.00,1.2079
4784.00,1.2241
4783.00,1.2399
4782.00,1.2555
4781.00,1.2706
4780.00,1.2853
4779.00,1.2994
4778.00,1.3131
4777.00,1.3264
4776.00,1.3392
4775.00,1.3516
4774.00,1.3636
4773.00,1.3752
4772.00,1.3863
4771.00,1.3971
4770.00,1.4074
4769.00,1.4174
4768.00,1.4270
4767.00,1.4361
4766.00,1.4443
4765.00,1.4516
4764.00,1.4582
4763.00,1.4645
4762.00,1.4707
4761.00,1.4767
4760.00,1.4824
4759.00,1.4875
4758.00,1.4920
4757.00,1.4958
4756.00,1.4992
4755.00,1.5020
4754.00,1.5042
4753.00,1.5059
4752.00,1.5072
4751.00,1.5080
4750.00,1.5083
4749.00,1.5080
4748.00,1.5070
4747.00,1.5057
4746.00,1.5040
4745.00,1.5021
4744.00,1.4996
4743.00,1.4966
4742.00,1.4928
4741.00,1.4887
4740.00,1.4842
4739.00,1.4793
4738.00,1.4740
4737.00,1.4680
4736.00,1.4615
4735.00,1.4544
4734.00,1.4468
4733.00,1.4389
4732.00,1.4306
4731.00,1.4217
4730.00,1.4121
4729.00,1.4017
4728.00,1.3907
4727.00,1.3792
4726.00,1.3672
4725.00,1.3549
4724.00,1.3422
4723.00,1.3289
4722.00,1.3148
4721.00,1.3000
4720.00,1.2845
4719.00,1.2683
4718.00,1.2516
4717.00,1.2344
4716.00,1.2168
4715.00,1.1988
4714.00,1.1805
4713.00,1.1619
4712.00,1.1429
4711.00,1.1236
4710.00,1.1040
4709.00,1.0842
4708.00,1.0643
4707.00,1.0445
4706.00,1.0246
4705.00,1.0050
4704.00,0.9855
4703.00,0.9664
4702.00,0.9477
4701.00,0.9296
4700.00,0.9122
4699.00,0.8955
4698.00,0.8796
4697.00,0.8647
4696.00,0.8507
4695.00,0.8379
4694.00,0.8262
4693.00,0.8158
4692.00,0.8067
4691.00,0.7989
4690.00,0.7927
4689.00,0.7879
4688.00,0.7845
4687.00,0.7827
4686.00,0.7823
4685.00,0.7834
4684.00,0.7860
4683.00,0.7898
4682.00,0.7950
4681.00,0.8014
4680.00,0.8089
4679.00,0.8176
4678.00,0.8275
4677.00,0.8383
4676.00,0.8501
4675.00,0.8627
4674.00,0.8760
4673.00,0.8899
4672.00,0.9045
4671.00,0.9196
4670.00,0.9352
4669.00,0.9511
4668.00,0.9674
4667.00,0.9840
4666.00,1.0008
4665.00,1.0179
4664.00,1.0351
4663.00,1.0525
4662.00,1.0700
4661.00,1.0876
4660.00,1.1051
4659.00,1.1227
4658.00,1.1402
4657.00,1.1576
4656.00,1.1749
4655.00,1.1920
4654.00,1.2088
4653.00,1.2255
4652.00,1.2419
4651.00,1.2580
4650.00,1.2736
4649.00,1.2889
4648.00,1.3039
4647.00,1.3186
4646.00,1.3331
4645.00,1.3472
4644.00,1.3609
4643.00,1.3742
4642.00,1.3870
4641.00,1.3994
4640.00,1.4112
4639.00,1.4225
4638.00,1.4333
4637.00,1.4437
4636.00,1.4536
4635.00,1.4630
4634.00,1.4717
4633.00,1.4798
4632.00,1.4874
4631.00,1.4948
4630.00,1.5018
4629.00,1.5084
4628.00,1.5142
4627.00,1.5194
4626.00,1.5239
4625.00,1.5280
4624.00,1.5319
4623.00,1.5354
4622.00,1.5384
4621.00,1.5409
4620.00,1.5426
4619.00,1.5437
4618.00,1.5443
4617.00,1.5444
4616.00,1.5441
4615.00,1.5433
4614.00,1.5420
4613.00,1.5401
4612.00,1.5378
4611.00,1.5351
4610.00,1.5320
4609.00,1.5285
4608.00,1.5245
4607.00,1.5199
4606.00,1.5148
4605.00,1.5091
4604.00,1.5030
4603.00,1.4966
4602.00,1.4897
4601.00,1.4823
4600.00,1.4742
4599.00,1.4655
4598.00,1.4561
4597.00,1.4461
4596.00,1.4356
4595.00,1.4246
4594.00,1.4131
4593.00,1.4010
4592.00,1.3883
4591.00,1.3750
4590.00,1.3611
4589.00,1.3466
4588.00,1.3314
4587.00,1.3157
4586.00,1.2993
4585.00,1.2824
4584.00,1.2649
4583.00,1.2469
4582.00,1.2284
4581.00,1.2093
4580.00,1.1898
4579.00,1.1698
4578.00,1.1495
4577.00,1.1289
4576.00,1.1081
4575.00,1.0872
4574.00,1.0662
4573.00,1.0451
4572.00,1.0240
4571.00,1.0030
4570.00,0.9823
4569.00,0.9619
4568.00,0.9420
4567.00,0.9227
4566.00,0.9040
4565.00,0.8862
4564.00,0.8692
4563.00,0.8533
4562.00,0.8386
4561.00,0.8251
4560.00,0.8129
4559.00,0.8020
4558.00,0.7926
4557.00,0.7847
4556.00,0.7783
4555.00,0.7735
4554.00,0.7703
4553.00,0.7688
4552.00,0.7690
4551.00,0.7708
4550.00,0.7742
4549.00,0.7792
4548.00,0.7856
4547.00,0.7935
4546.00,0.8027
4545.00,0.8131
4544.00,0.8248
4543.00,0.8376
4542.00,0.8514
4541.00,0.8661
4540.00,0.8816
4539.00,0.8978
4538.00,0.9146
4537.00,0.9320
4536.00,0.9499
4535.00,0.9682
4534.00,0.9868
4533.00,1.0057
4532.00,1.0248
4531.00,1.0440
4530.00,1.0633
4529.00,1.0826
4528.00,1.1020
4527.00,1.1215
4526.00,1.1409
4525.00,1.1600
4524.00,1.1789
4523.00,1.1975
4522.00,1.2157
4521.00,1.2337
4520.00,1.2515
4519.00,1.2690
4518.00,1.2862
4517.00,1.3032
4516.00,1.3197
4515.00,1.3358
4514.00,1.3513
4513.00,1.3663
4512.00,1.3807
4511.00,1.3949
4510.00,1.4088
4509.00,1.4225
4508.00,1.4356
4507.00,1.4481
4506.00,1.4598
4505.00,1.4708
4504.00,1.4811
4503.00,1.4910
4502.00,1.5003
4501.00,1.5092
4500.00,1.5174
4499.00,1.5249
4498.00,1.5320
4497.00,1.5385
4496.00,1.5448
4495.00,1.5509
4494.00,1.5565
4493.00,1.5616
4492.00,1.5660
4491.00,1.5697
4490.00,1.5728
4489.00,1.5752
4488.00,1.5773
4487.00,1.5790
4486.00,1.5805
4485.00,1.5818
4484.00,1.5824
4483.00,1.5823
4482.00,1.5815
4481.00,1.5802
4480.00,1.5784
4479.00,1.5760
4478.00,1.5733
4477.00,1.5701
4476.00,1.5666
4475.00,1.5626
4474.00,1.5581
4473.00,1.5530
4472.00,1.5473
4471.00,1.5410
4470.00,1.5341
4469.00,1.5267
4468.00,1.5187
4467.00,1.5102
4466.00,1.5014
4465.00,1.4920
4464.00,1.4819
4463.00,1.4710
4462.00,1.4595
4461.00,1.4474
4460.00,1.4348
4459.00,1.4218
4458.00,1.4082
4457.00,1.3940
4456.00,1.3790
4455.00,1.3633
4454.00,1.3469
4453.00,1.3299
4452.00,1.3124
4451.00,1.2944
4450.00,1.2759
4449.00,1.2567
4448.00,1.2369
4447.00,1.2165
4446.00,1.1955
4445.00,1.1743
4444.00,1.1528
4443.00,1.1311
4442.00,1.1093
4441.00,1.0874
4440.00,1.0654
4439.00,1.0435
4438.00,1.0219
4437.00,1.0006
4436.00,0.9799
4435.00,0.9596
4434.00,0.9402
4433.00,0.9215
4432.00,0.9039
4431.00,0.8873
4430.00,0.8719
4429.00,0.8579
4428.00,0.8451
4427.00,0.8338
4426.00,0.8241
4425.00,0.8159
4424.00,0.8094
4423.00,0.8046
4422.00,0.8015
4421.00,0.8003
4420.00,0.8008
4419.00,0.8031
4418.00,0.8071
4417.00,0.8128
4416.00,0.8200
4415.00,0.8287
4414.00,0.8389
4413.00,0.8504
4412.00,0.8632
4411.00,0.8771
4410.00,0.8921
4409.00,0.9079
4408.00,0.9247
4407.00,0.9422
4406.00,0.9604
4405.00,0.9791
4404.00,0.9981
4403.00,1.0174
4402.00,1.0370
4401.00,1.0570
4400.00,1.0772
4399.00,1.0975
4398.00,1.1178
4397.00,1.1380
4396.00,1.1580
4395.00,1.1780
4394.00,1.1978
4393.00,1.2174
4392.00,1.2368
4391.00,1.2558
4390.00,1.2745
4389.00,1.2928
4388.00,1.3108
4387.00,1.3284
4386.00,1.3456
4385.00,1.3623
4384.00,1.3786
4383.00,1.3944
4382.00,1.4098
4381.00,1.4247
4380.00,1.4392
4379.00,1.4533
4378.00,1.4668
4377.00,1.4794
4376.00,1.4912
4375.00,1.5023
4374.00,1.5131
4373.00,1.5239
4372.00,1.5346
4371.00,1.5449
4370.00,1.5545
4369.00,1.5633
4368.00,1.5712
4367.00,1.5785
4366.00,1.5855
4365.00,1.5923
4364.00,1.5986
4363.00,1.6041
4362.00,1.6088
4361.00,1.6129
4360.00,1.6167
4359.00,1.6204
4358.00,1.6239
4357.00,1.6269
4356.00,1.6292
4355.00,1.6309
4354.00,1.6325
4353.00,1.6339
4352.00,1.6348
4351.00,1.6350
4350.00,1.6344
4349.00,1.6333
4348.00,1.6320
4347.00,1.6305
4346.00,1.6286
4345.00,1.6260
4344.00,1.6227
4343.00,1.6187
4342.00,1.6142
4341.00,1.6094
4340.00,1.6043
4339.00,1.5990
4338.00,1.5931
4337.00,1.5867
4336.00,1.5796
4335.00,1.5716
4334.00,1.5629
4333.00,1.5535
4332.00,1.5438
4331.00,1.5337
4330.00,1.5233
4329.00,1.5123
4328.00,1.5006
4327.00,1.4882
4326.00,1.4751
4325.00,1.4616
4324.00,1.4475
4323.00,1.4328
4322.00,1.4174
4321.00,1.4013
4320.00,1.3847
4319.00,1.3677
4318.00,1.3501
4317.00,1.3320
4316.00,1.3133
4315.00,1.2939
4314.00,1.2740
4313.00,1.2538
4312.00,1.2332
4311.00,1.2123
4310.00,1.1911
4309.00,1.1696
4308.00,1.1481
4307.00,1.1264
4306.00,1.1049
4305.00,1.0835
4304.00,1.0624
4303.00,1.0418
4302.00,1.0216
4301.00,1.0020
4300.00,0.9832
4299.00,0.9653
4298.00,0.9484
4297.00,0.9326
4296.00,0.9182
4295.00,0.9052
4294.00,0.8936
4293.00,0.8835
4292.00,0.8749
4291.00,0.8679
4290.00,0.8625
4289.00,0.8588
4288.00,0.8567
4287.00,0.8563
4286.00,0.8574
4285.00,0.8601
4284.00,0.8643
4283.00,0.8698
4282.00,0.8766
4281.00,0.8846
4280.00,0.8938
4279.00,0.9042
4278.00,0.9157
4277.00,0.9281
4276.00,0.9415
4275.00,0.9558
4274.00,0.9708
4273.00,0.9867
4272.00,1.0031
4271.00,1.0202
4270.00,1.0377
4269.00,1.0556
4268.00,1.0739
4267.00,1.0924
4266.00,1.1112
4265.00,1.1302
4264.00,1.1492
4263.00,1.1683
4262.00,1.1873
4261.00,1.2064
4260.00,1.2255
4259.00,1.2444
4258.00,1.2632
4257.00,1.2818
4256.00,1.3002
4255.00,1.3185
4254.00,1.3368
4253.00,1.3548
4252.00,1.3722
4251.00,1.3890
4250.00,1.4053
4249.00,1.4213
4248.00,1.4373
4247.00,1.4532
4246.00,1.4687
4245.00,1.4837
4244.00,1.4980
4243.00,1.5117
4242.00,1.5250
4241.00,1.5378
4240.00,1.5501
4239.00,1.5617
4238.00,1.5725
4237.00,1.5826
4236.00,1.5921
4235.00,1.6012
4234.00,1.6098
4233.00,1.6179
4232.00,1.6255
4231.00,1.6326
4230.00,1.6393
4229.00,1.6455
4228.00,1.6512
4227.00,1.6563
4226.00,1.6607
4225.00,1.6644
4224.00,1.6676
4223.00,1.6704
4222.00,1.6729
4221.00,1.6749
4220.00,1.6764
4219.00,1.6772
4218.00,1.6776
4217.00,1.6775
4216.00,1.6771
4215.00,1.6762
4214.00,1.6747
4213.00,1.6729
4212.00,1.6706
4211.00,1.6680
4210.00,1.6648
4209.00,1.6611
4208.00,1.6568
4207.00,1.6518
4206.00,1.6461
4205.00,1.6397
4204.00,1.6327
4203.00,1.6253
4202.00,1.6177
4201.00,1.6098
4200.00,1.6016
4199.00,1.5927
4198.00,1.5829
4197.00,1.5723
4196.00,1.5612
4195.00,1.5498
4194.00,1.5380
4193.00,1.5256
4192.00,1.5124
4191.00,1.4983
4190.00,1.4835
4189.00,1.4681
4188.00,1.4522
4187.00,1.4357
4186.00,1.4186
4185.00,1.4008
4184.00,1.3824
4183.00,1.3634
4182.00,1.3439
4181.00,1.3238
4180.00,1.3031
4179.00,1.2818
4178.00,1.2600
4177.00,1.2377
4176.00,1.2152
4175.00,1.1924
4174.00,1.1695
4173.00,1.1465
4172.00,1.1236
4171.00,1.1009
4170.00,1.0785
4169.00,1.0565
4168.00,1.0350
4167.00,1.0142
4166.00,0.9942
4165.00,0.9750
4164.00,0.9568
4163.00,0.9398
4162.00,0.9242
4161.00,0.9100
4160.00,0.8974
4159.00,0.8864
4158.00,0.8771
4157.00,0.8695
4156.00,0.8637
4155.00,0.8596
4154.00,0.8575
4153.00,0.8572
4152.00,0.8586
4151.00,0.8619
4150.00,0.8670
4149.00,0.8737
4148.00,0.8822
4147.00,0.8921
4146.00,0.9036
4145.00,0.9163
4144.00,0.9302
4143.00,0.9452
4142.00,0.9613
4141.00,0.9783
4140.00,0.9960
4139.00,1.0146
4138.00,1.0339
4137.00,1.0538
4136.00,1.0742
4135.00,1.0949
4134.00,1.1159
4133.00,1.1370
4132.00,1.1583
4131.00,1.1795
4130.00,1.2007
4129.00,1.2217
4128.00,1.2426
4127.00,1.2634
4126.00,1.2841
4125.00,1.3045
4124.00,1.3246
4123.00,1.3444
4122.00,1.3638
4121.00,1.3828
4120.00,1.4014
4119.00,1.4196
4118.00,1.4375
4117.00,1.4548
4116.00,1.4716
4115.00,1.4880
4114.00,1.5039
4113.00,1.5195
4112.00,1.5347
4111.00,1.5493
4110.00,1.5631
4109.00,1.5763
4108.00,1.5888
4107.00,1.6008
4106.00,1.6123
4105.00,1.6231
4104.00,1.6333
4103.00,1.6428
4102.00,1.6516
4101.00,1.6597
4100.00,1.6672
4099.00,1.6743
4098.00,1.6810
4097.00,1.6874
4096.00,1.6934
4095.00,1.6989
4094.00,1.7038
4093.00,1.7079
4092.00,1.7114
4091.00,1.7144
4090.00,1.7170
4089.00,1.7191
4088.00,1.7207
4087.00,1.7218
4086.00,1.7223
4085.00,1.7222
4084.00,1.7217
4083.00,1.7208
4082.00,1.7196
4081.00,1.7180
4080.00,1.7157
4079.00,1.7129
4078.00,1.7095
4077.00,1.7057
4076.00,1.7015
4075.00,1.6968
4074.00,1.6914
4073.00,1.6852
4072.00,1.6785
4071.00,1.6714
4070.00,1.6641
4069.00,1.6564
4068.00,1.6480
4067.00,1.6385
4066.00,1.6283
4065.00,1.6175
4064.00,1.6064
4063.00,1.5948
4062.00,1.5825
4061.00,1.5693
4060.00,1.5553
4059.00,1.5410
4058.00,1.5264
4057.00,1.5113
4056.00,1.4956
4055.00,1.4790
4054.00,1.4616
4053.00,1.4434
4052.00,1.4247
4051.00,1.4053
4050.00,1.3854
4049.00,1.3649
4048.00,1.3440
4047.00,1.3226
4046.00,1.3007
4045.00,1.2781
4044.00,1.2550
4043.00,1.2315
4042.00,1.2077
4041.00,1.1837
4040.00,1.1596
4039.00,1.1355
4038.00,1.1115
4037.00,1.0877
4036.00,1.0642
4035.00,1.0412
4034.00,1.0187
4033.00,0.9971
4032.00,0.9764
4031.00,0.9569
4030.00,0.9388
4029.00,0.9222
4028.00,0.9073
4027.00,0.8941
4026.00,0.8829
4025.00,0.8736
4024.00,0.8664
4023.00,0.8613
4022.00,0.8583
4021.00,0.8574
4020.00,0.8585
4019.00,0.8617
4018.00,0.8669
4017.00,0.8739
4016.00,0.8827
4015.00,0.8931
4014.00,0.9052
4013.00,0.9187
4012.00,0.9336
4011.00,0.9498
4010.00,0.9671
4009.00,0.9853
4008.00,1.0044
4007.00,1.0243
4006.00,1.0447
4005.00,1.0658
4004.00,1.0873
4003.00,1.1093
4002.00,1.1315
4001.00,1.1538
4000.00,1.1764
3999.00,1.1991
3998.00,1.2218
3997.00,1.2444
3996.00,1.2669
3995.00,1.2892
3994.00,1.3114
3993.00,1.3332
3992.00,1.3547
3991.00,1.3758
3990.00,1.3965
3989.00,1.4168
3988.00,1.4368
3987.00,1.4565
3986.00,1.4758
3985.00,1.4947
3984.00,1.5130
3983.00,1.5305
3982.00,1.5474
3981.00,1.5636
3980.00,1.5793
3979.00,1.5943
3978.00,1.6087
3977.00,1.6225
3976.00,1.6357
3975.00,1.6483
3974.00,1.6602
3973.00,1.6714
3972.00,1.6819
3971.00,1.6917
3970.00,1.7009
3969.00,1.7095
3968.00,1.7176
3967.00,1.7253
3966.00,1.7325
3965.00,1.7393
3964.00,1.7458
3963.00,1.7518
3962.00,1.7574
3961.00,1.7625
3960.00,1.7667
3959.00,1.7699
3958.00,1.7723
3957.00,1.7740
3956.00,1.7755
3955.00,1.7767
3954.00,1.7778
3953.00,1.7786
3952.00,1.7790
3951.00,1.7788
3950.00,1.7779
3949.00,1.7761
3948.00,1.7737
3947.00,1.7709
3946.00,1.7680
3945.00,1.7649
3944.00,1.7613
3943.00,1.7571
3942.00,1.7523
3941.00,1.7468
3940.00,1.7409
3939.00,1.7347
3938.00,1.7280
3937.00,1.7208
3936.00,1.7131
3935.00,1.7045
3934.00,1.6951
3933.00,1.6850
3932.00,1.6743
3931.00,1.6628
3930.00,1.6506
3929.00,1.6379
3928.00,1.6246
3927.00,1.6108
3926.00,1.5962
3925.00,1.5807
3924.00,1.5644
3923.00,1.5473
3922.00,1.5296
3921.00,1.5113
3920.00,1.4922
3919.00,1.4721
3918.00,1.4508
3917.00,1.4284
3916.00,1.4050
3915.00,1.3810
3914.00,1.3567
3913.00,1.3318
3912.00,1.3063
3911.00,1.2799
3910.00,1.2530
3909.00,1.2258
3908.00,1.1986
3907.00,1.1715
3906.00,1.1441
3905.00,1.1164
3904.00,1.0883
3903.00,1.0603
3902.00,1.0330
3901.00,1.0067
3900.00,0.9814
3899.00,0.9575
3898.00,0.9355
3897.00,0.9161
3896.00,0.8995
3895.00,0.8855
3894.00,0.8738
3893.00,0.8639
3892.00,0.8554
3891.00,0.8487
3890.00,0.8440
3889.00,0.8420
3888.00,0.8428
3887.00,0.8466
3886.00,0.8530
3885.00,0.8616
3884.00,0.8720
3883.00,0.8840
3882.00,0.8977
3881.00,0.9136
3880.00,0.9317
3879.00,0.9512
3878.00,0.9712
3877.00,0.9915
3876.00,1.0124
3875.00,1.0348
3874.00,1.0584
3873.00,1.0824
3872.00,1.1060
3871.00,1.1297
3870.00,1.1546
3869.00,1.1809
3868.00,1.2074
3867.00,1.2328
3866.00,1.2573
3865.00,1.2815
3864.00,1.3062
3863.00,1.3308
3862.00,1.3550
3861.00,1.3783
3860.00,1.4010
3859.00,1.4230
3858.00,1.4443
3857.00,1.4642
3856.00,1.4824
3855.00,1.4999
3854.00,1.5184
3853.00,1.5392
3852.00,1.5616
3851.00,1.5837
3850.00,1.6037
3849.00,1.6215
3848.00,1.6376
3847.00,1.6523
3846.00,1.6660
3845.00,1.6788
3844.00,1.6909
3843.00,1.7025
3842.00,1.7139
3841.00,1.7248
3840.00,1.7348
3839.00,1.7442
3838.00,1.7532
3837.00,1.7621
3836.00,1.7706
3835.00,1.7784
3834.00,1.7851
3833.00,1.7909
3832.00,1.7962
3831.00,1.8015
3830.00,1.8067
3829.00,1.8111
3828.00,1.8145
3827.00,1.8173
3826.00,1.8197
3825.00,1.8217
3824.00,1.8228
3823.00,1.8227
3822.00,1.8215
3821.00,1.8199
3820.00,1.8183
3819.00,1.8169
3818.00,1.8155
3817.00,1.8134
3816.00,1.8105
3815.00,1.8067
3814.00,1.8024
3813.00,1.7977
3812.00,1.7928
3811.00,1.7878
3810.00,1.7822
3809.00,1.7751
3808.00,1.7663
3807.00,1.7564
3806.00,1.7466
3805.00,1.7374
3804.00,1.7282
3803.00,1.7182
3802.00,1.7071
3801.00,1.6954
3800.00,1.6837
3799.00,1.6723
3798.00,1.6603
3797.00,1.6474
3796.00,1.6336
3795.00,1.6194
3794.00,1.6050
3793.00,1.5899
3792.00,1.5738
3791.00,1.5569
3790.00,1.5391
3789.00,1.5204
3788.00,1.5006
3787.00,1.4795
3786.00,1.4572
3785.00,1.4337
3784.00,1.4093
3783.00,1.3844
3782.00,1.3589
3781.00,1.3324
3780.00,1.3048
3779.00,1.2762
3778.00,1.2471
3777.00,1.2182
3776.00,1.1896
3775.00,1.1614
3774.00,1.1339
3773.00,1.1071
3772.00,1.0808
3771.00,1.0546
3770.00,1.0285
3769.00,1.0032
3768.00,0.9797
3767.00,0.9582
3766.00,0.9386
3765.00,0.9211
3764.00,0.9060
3763.00,0.8939
3762.00,0.8845
3761.00,0.8776
3760.00,0.8729
3759.00,0.8701
3758.00,0.8696
3757.00,0.8718
3756.00,0.8768
3755.00,0.8848
3754.00,0.8956
3753.00,0.9090
3752.00,0.9244
3751.00,0.9414
3750.00,0.9600
3749.00,0.9804
3748.00,1.0016
3747.00,1.0228
3746.00,1.0445
3745.00,1.0690
3744.00,1.0978
3743.00,1.1285
3742.00,1.1576
3741.00,1.1839
3740.00,1.2088
3739.00,1.2335
3738.00,1.2589
3737.00,1.2853
3736.00,1.3132
3735.00,1.3418
3734.00,1.3701
3733.00,1.3978
3732.00,1.4252
3731.00,1.4522
3730.00,1.4780
3729.00,1.5022
3728.00,1.5251
3727.00,1.5473
3726.00,1.5691
3725.00,1.5906
3724.00,1.6118
3723.00,1.6324
3722.00,1.6522
3721.00,1.6712
3720.00,1.6897
3719.00,1.7072
3718.00,1.7236
3717.00,1.7388
3716.00,1.7526
3715.00,1.7653
3714.00,1.7774
3713.00,1.7893
3712.00,1.8012
3711.00,1.8125
3710.00,1.8230
3709.00,1.8331
3708.00,1.8428
3707.00,1.8518
3706.00,1.8596
3705.00,1.8663
3704.00,1.8724
3703.00,1.8780
3702.00,1.8832
3701.00,1.8881
3700.00,1.8925
3699.00,1.8960
3698.00,1.8986
3697.00,1.9008
3696.00,1.9028
3695.00,1.9044
3694.00,1.9051
3693.00,1.9051
3692.00,1.9046
3691.00,1.9038
3690.00,1.9023
3689.00,1.9001
3688.00,1.8972
3687.00,1.8937
3686.00,1.8899
3685.00,1.8860
3684.00,1.8818
3683.00,1.8771
3682.00,1.8718
3681.00,1.8663
3680.00,1.8606
3679.00,1.8544
3678.00,1.8469
3677.00,1.8377
3676.00,1.8265
3675.00,1.8142
3674.00,1.8021
3673.00,1.7912
3672.00,1.7804
3671.00,1.7685
3670.00,1.7548
3669.00,1.7402
3668.00,1.7255
3667.00,1.7112
3666.00,1.6969
3665.00,1.6823
3664.00,1.6671
3663.00,1.6512
3662.00,1.6346
3661.00,1.6174
3660.00,1.5998
3659.00,1.5818
3658.00,1.5630
3657.00,1.5432
3656.00,1.5227
3655.00,1.5022
3654.00,1.4825
3653.00,1.4641
3652.00,1.4465
3651.00,1.4291
3650.00,1.4110
3649.00,1.3920
3648.00,1.3731
3647.00,1.3555
3646.00,1.3401
3645.00,1.3270
3644.00,1.3161
3643.00,1.3067
3642.00,1.2985
3641.00,1.2913
3640.00,1.2851
3639.00,1.2801
3638.00,1.2762
3637.00,1.2736
3636.00,1.2724
3635.00,1.2725
3634.00,1.2742
3633.00,1.2776
3632.00,1.2826
3631.00,1.2890
3630.00,1.2964
3629.00,1.3047
3628.00,1.3136
3627.00,1.3229
3626.00,1.3329
3625.00,1.3443
3624.00,1.3573
3623.00,1.3714
3622.00,1.3861
3621.00,1.4013
3620.00,1.4166
3619.00,1.4322
3618.00,1.4481
3617.00,1.4642
3616.00,1.4805
3615.00,1.4968
3614.00,1.5132
3613.00,1.5299
3612.00,1.5466
3611.00,1.5633
3610.00,1.5800
3609.00,1.5966
3608.00,1.6133
3607.00,1.6302
3606.00,1.6469
3605.00,1.6636
3604.00,1.6798
3603.00,1.6954
3602.00,1.7103
3601.00,1.7249
3600.00,1.7395
3599.00,1.7540
3598.00,1.7682
3597.00,1.7819
3596.00,1.7951
3595.00,1.8081
3594.00,1.8210
3593.00,1.8339
3592.00,1.8466
3591.00,1.8586
3590.00,1.8701
3589.00,1.8816
3588.00,1.8931
3587.00,1.9045
3586.00,1.9156
3585.00,1.9263
3584.00,1.9365
3583.00,1.9463
3582.00,1.9558
3581.00,1.9650
3580.00,1.9739
3579.00,1.9823
3578.00,1.9900
3577.00,1.9973
3576.00,2.0041
3575.00,2.0102
3574.00,2.0156
3573.00,2.0206
3572.00,2.0254
3571.00,2.0301
3570.00,2.0346
3569.00,2.0386
3568.00,2.0421
3567.00,2.0451
3566.00,2.0478
3565.00,2.0507
3564.00,2.0538
3563.00,2.0567
3562.00,2.0591
3561.00,2.0607
3560.00,2.0615
3559.00,2.0616
3558.00,2.0615
3557.00,2.0616
3556.00,2.0619
3555.00,2.0616
3554.00,2.0606
3553.00,2.0590
3552.00,2.0570
3551.00,2.0547
3550.00,2.0519
3549.00,2.0485
3548.00,2.0447
3547.00,2.0406
3546.00,2.0368
3545.00,2.0331
3544.00,2.0294
3543.00,2.0251
3542.00,2.0202
3541.00,2.0146
3540.00,2.0087
3539.00,2.0026
3538.00,1.9967
3537.00,1.9907
3536.00,1.9841
3535.00,1.9764
3534.00,1.9680
3533.00,1.9595
3532.00,1.9513
3531.00,1.9432
3530.00,1.9349
3529.00,1.9264
3528.00,1.9174
3527.00,1.9081
3526.00,1.8985
3525.00,1.8890
3524.00,1.8795
3523.00,1.8696
3522.00,1.8596
3521.00,1.8496
3520.00,1.8397
3519.00,1.8298
3518.00,1.8197
3517.00,1.8093
3516.00,1.7987
3515.00,1.7878
3514.00,1.7767
3513.00,1.7657
3512.00,1.7547
3511.00,1.7440
3510.00,1.7333
3509.00,1.7225
3508.00,1.7117
3507.00,1.7010
3506.00,1.6906
3505.00,1.6806
3504.00,1.6709
3503.00,1.6614
3502.00,1.6522
3501.00,1.6434
3500.00,1.6352
3499.00,1.6274
3498.00,1.6201
3497.00,1.6136
3496.00,1.6078
3495.00,1.6028
3494.00,1.5987
3493.00,1.5955
3492.00,1.5931
3491.00,1.5915
3490.00,1.5905
3489.00,1.5901
3488.00,1.5904
3487.00,1.5917
3486.00,1.5939
3485.00,1.5971
3484.00,1.6013
3483.00,1.6063
3482.00,1.6122
3481.00,1.6186
3480.00,1.6256
3479.00,1.6331
3478.00,1.6414
3477.00,1.6506
3476.00,1.6603
3475.00,1.6702
3474.00,1.6802
3473.00,1.6907
3472.00,1.7021
3471.00,1.7142
3470.00,1.7266
3469.00,1.7389
3468.00,1.7513
3467.00,1.7638
3466.00,1.7768
3465.00,1.7900
3464.00,1.8030
3463.00,1.8157
3462.00,1.8281
3461.00,1.8407
3460.00,1.8537
3459.00,1.8669
3458.00,1.8799
3457.00,1.8924
3456.00,1.9042
3455.00,1.9155
3454.00,1.9267
3453.00,1.9381
3452.00,1.9495
3451.00,1.9608
3450.00,1.9717
3449.00,1.9824
3448.00,1.9928
3447.00,2.0030
3446.00,2.0128
3445.00,2.0222
3444.00,2.0312
3443.00,2.0397
3442.00,2.0477
3441.00,2.0552
3440.00,2.0622
3439.00,2.0687
3438.00,2.0750
3437.00,2.0813
3436.00,2.0874
3435.00,2.0933
3434.00,2.0988
3433.00,2.1038
3432.00,2.1082
3431.00,2.1119
3430.00,2.1153
3429.00,2.1187
3428.00,2.1219
3427.00,2.1245
3426.00,2.1266
3425.00,2.1285
3424.00,2.1305
3423.00,2.1325
3422.00,2.1342
3421.00,2.1357
3420.00,2.1367
3419.00,2.1372
3418.00,2.1369
3417.00,2.1361
3416.00,2.1353
3415.00,2.1345
3414.00,2.1335
3413.00,2.1321
3412.00,2.1302
3411.00,2.1277
3410.00,2.1251
3409.00,2.1224
3408.00,2.1195
3407.00,2.1160
3406.00,2.1117
3405.00,2.1071
3404.00,2.1022
3403.00,2.0967
3402.00,2.0903
3401.00,2.0831
3400.00,2.0753
3399.00,2.0670
3398.00,2.0581
3397.00,2.0488
3396.00,2.0392
3395.00,2.0292
3394.00,2.0186
3393.00,2.0072
3392.00,1.9949
3391.00,1.9821
3390.00,1.9690
3389.00,1.9557
3388.00,1.9419
3387.00,1.9273
3386.00,1.9118
3385.00,1.8956
3384.00,1.8790
3383.00,1.8622
3382.00,1.8451
3381.00,1.8276
3380.00,1.8095
3379.00,1.7911
3378.00,1.7725
3377.00,1.7537
3376.00,1.7346
3375.00,1.7153
3374.00,1.6958
3373.00,1.6764
3372.00,1.6571
3371.00,1.6379
3370.00,1.6189
3369.00,1.6003
3368.00,1.5822
3367.00,1.5648
3366.00,1.5481
3365.00,1.5323
3364.00,1.5175
3363.00,1.5038
3362.00,1.4913
3361.00,1.4801
3360.00,1.4704
3359.00,1.4621
3358.00,1.4553
3357.00,1.4500
3356.00,1.4463
3355.00,1.4442
3354.00,1.4438
3353.00,1.4449
3352.00,1.4476
3351.00,1.4517
3350.00,1.4573
3349.00,1.4644
3348.00,1.4732
3347.00,1.4833
3346.00,1.4947
3345.00,1.5070
3344.00,1.5201
3343.00,1.5341
3342.00,1.5488
3341.00,1.5643
3340.00,1.5804
3339.00,1.5971
3338.00,1.6144
3337.00,1.6324
3336.00,1.6507
3335.00,1.6690
3334.00,1.6872
3333.00,1.7052
3332.00,1.7231
3331.00,1.7410
3330.00,1.7589
3329.00,1.7768
3328.00,1.7945
3327.00,1.8119
3326.00,1.8289
3325.00,1.8458
3324.00,1.8624
3323.00,1.8786
3322.00,1.8944
3321.00,1.9100
3320.00,1.9252
3319.00,1.9398
3318.00,1.9536
3317.00,1.9669
3316.00,1.9800
3315.00,1.9929
3314.00,2.0055
3313.00,2.0176
3312.00,2.0290
3311.00,2.0397
3310.00,2.0500
3309.00,2.0597
3308.00,2.0687
3307.00,2.0768
3306.00,2.0843
3305.00,2.0917
3304.00,2.0991
3303.00,2.1061
3302.00,2.1124
3301.00,2.1183
3300.00,2.1237
3299.00,2.1285
3298.00,2.1324
3297.00,2.1355
3296.00,2.1384
3295.00,2.1416
3294.00,2.1449
3293.00,2.1475
3292.00,2.1490
3291.00,2.1493
3290.00,2.1490
3289.00,2.1486
3288.00,2.1483
3287.00,2.1474
3286.00,2.1461
3285.00,2.1445
3284.00,2.1427
3283.00,2.1408
3282.00,2.1385
3281.00,2.1356
3280.00,2.1318
3279.00,2.1271
3278.00,2.1217
3277.00,2.1158
3276.00,2.1097
3275.00,2.1035
3274.00,2.0972
3273.00,2.0905
3272.00,2.0836
3271.00,2.0763
3270.00,2.0687
3269.00,2.0604
3268.00,2.0511
3267.00,2.0407
3266.00,2.0296
3265.00,2.0180
3264.00,2.0060
3263.00,1.9938
3262.00,1.9814
3261.00,1.9689
3260.00,1.9559
3259.00,1.9423
3258.00,1.9281
3257.00,1.9133
3256.00,1.8982
3255.00,1.8827
3254.00,1.8669
3253.00,1.8510
3252.00,1.8348
3251.00,1.8184
3250.00,1.8018
3249.00,1.7849
3248.00,1.7675
3247.00,1.7498
3246.00,1.7319
3245.00,1.7143
3244.00,1.6970
3243.00,1.6800
3242.00,1.6634
3241.00,1.6473
3240.00,1.6317
3239.00,1.6166
3238.00,1.6022
3237.00,1.5885
3236.00,1.5756
3235.00,1.5637
3234.00,1.5529
3233.00,1.5433
3232.00,1.5350
3231.00,1.5280
3230.00,1.5223
3229.00,1.5181
3228.00,1.5153
3227.00,1.5141
3226.00,1.5143
3225.00,1.5161
3224.00,1.5191
3223.00,1.5235
3222.00,1.5292
3221.00,1.5363
3220.00,1.5449
3219.00,1.5546
3218.00,1.5653
3217.00,1.5770
3216.00,1.5896
3215.00,1.6032
3214.00,1.6176
3213.00,1.6329
3212.00,1.6486
3211.00,1.6647
3210.00,1.6811
3209.00,1.6979
3208.00,1.7151
3207.00,1.7326
3206.00,1.7503
3205.00,1.7680
3204.00,1.7858
3203.00,1.8036
3202.00,1.8213
3201.00,1.8390
3200.00,1.8563
3199.00,1.8731
3198.00,1.8897
3197.00,1.9062
3196.00,1.9226
3195.00,1.9387
3194.00,1.9543
3193.00,1.9693
3192.00,1.9838
3191.00,1.9980
3190.00,2.0120
3189.00,2.0260
3188.00,2.0398
3187.00,2.0530
3186.00,2.0651
3185.00,2.0764
3184.00,2.0871
3183.00,2.0978
3182.00,2.1082
3181.00,2.1178
3180.00,2.1262
3179.00,2.1337
3178.00,2.1410
3177.00,2.1485
3176.00,2.1557
3175.00,2.1620
3174.00,2.1674
3173.00,2.1727
3172.00,2.1782
3171.00,2.1835
3170.00,2.1881
3169.00,2.1919
3168.00,2.1950
3167.00,2.1981
3166.00,2.2013
3165.00,2.2043
3164.00,2.2065
3163.00,2.2080
3162.00,2.2090
3161.00,2.2095
3160.00,2.2096
3159.00,2.2093
3158.00,2.2091
3157.00,2.2091
3156.00,2.2088
3155.00,2.2077
3154.00,2.2057
3153.00,2.2033
3152.00,2.2006
3151.00,2.1974
3150.00,2.1934
3149.00,2.1888
3148.00,2.1835
3147.00,2.1773
3146.00,2.1706
3145.00,2.1636
3144.00,2.1566
3143.00,2.1495
3142.00,2.1420
3141.00,2.1339
3140.00,2.1248
3139.00,2.1148
3138.00,2.1044
3137.00,2.0937
3136.00,2.0826
3135.00,2.0704
3134.00,2.0573
3133.00,2.0438
3132.00,2.0303
3131.00,2.0165
3130.00,2.0019
3129.00,1.9865
3128.00,1.9703
3127.00,1.9536
3126.00,1.9369
3125.00,1.9201
3124.00,1.9026
3123.00,1.8841
3122.00,1.8649
3121.00,1.8455
3120.00,1.8262
3119.00,1.8072
3118.00,1.7882
3117.00,1.7692
3116.00,1.7501
3115.00,1.7310
3114.00,1.7123
3113.00,1.6941
3112.00,1.6767
3111.00,1.6599
3110.00,1.6438
3109.00,1.6288
3108.00,1.6149
3107.00,1.6024
3106.00,1.5913
3105.00,1.5818
3104.00,1.5739
3103.00,1.5679
3102.00,1.5637
3101.00,1.5612
3100.00,1.5606
3099.00,1.5618
3098.00,1.5648
3097.00,1.5697
3096.00,1.5763
3095.00,1.5844
3094.00,1.5940
3093.00,1.6053
3092.00,1.6182
3091.00,1.6328
3090.00,1.6485
3089.00,1.6652
3088.00,1.6826
3087.00,1.7007
3086.00,1.7194
3085.00,1.7388
3084.00,1.7589
3083.00,1.7793
3082.00,1.8000
3081.00,1.8208
3080.00,1.8419
3079.00,1.8630
3078.00,1.8839
3077.00,1.9043
3076.00,1.9243
3075.00,1.9442
3074.00,1.9640
3073.00,1.9838
3072.00,2.0034
3071.00,2.0222
3070.00,2.0403
3069.00,2.0577
3068.00,2.0743
3067.00,2.0901
3066.00,2.1053
3065.00,2.1197
3064.00,2.1332
3063.00,2.1461
3062.00,2.1591
3061.00,2.1725
3060.00,2.1856
3059.00,2.1977
3058.00,2.2084
3057.00,2.2180
3056.00,2.2269
3055.00,2.2353
3054.00,2.2436
3053.00,2.2518
3052.00,2.2594
3051.00,2.2658
3050.00,2.2706
3049.00,2.2747
3048.00,2.2787
3047.00,2.2826
3046.00,2.2862
3045.00,2.2891
3044.00,2.2909
3043.00,2.2915
3042.00,2.2913
3041.00,2.2906
3040.00,2.2891
3039.00,2.2867
3038.00,2.2835
3037.00,2.2801
3036.00,2.2767
3035.00,2.2727
3034.00,2.2674
3033.00,2.2609
3032.00,2.2538
3031.00,2.2464
3030.00,2.2386
3029.00,2.2301
3028.00,2.2208
3027.00,2.2105
3026.00,2.1989
3025.00,2.1856
3024.00,2.1710
3023.00,2.1554
3022.00,2.1395
3021.00,2.1235
3020.00,2.1069
3019.00,2.0890
3018.00,2.0697
3017.00,2.0488
3016.00,2.0269
3015.00,2.0044
3014.00,1.9816
3013.00,1.9585
3012.00,1.9351
3011.00,1.9118
3010.00,1.8891
3009.00,1.8677
3008.00,1.8478
3007.00,1.8297
3006.00,1.8137
3005.00,1.8003
3004.00,1.7902
3003.00,1.7838
3002.00,1.7817
3001.00,1.7844
3000.00,1.7917
2999.00,1.8037
2998.00,1.8200
2997.00,1.8407
2996.00,1.8656
2995.00,1.8941
2994.00,1.9260
2993.00,1.9610
2992.00,1.9987
2991.00,2.0388
2990.00,2.0806
2989.00,2.1235
2988.00,2.1667
2987.00,2.2095
2986.00,2.2519
2985.00,2.2942
2984.00,2.3367
2983.00,2.3788
2982.00,2.4200
2981.00,2.4599
2980.00,2.4989
2979.00,2.5376
2978.00,2.5767
2977.00,2.6175
2976.00,2.6609
2975.00,2.7069
2974.00,2.7549
2973.00,2.8046
2972.00,2.8567
2971.00,2.9127
2970.00,2.9749
2969.00,3.0449
2968.00,3.1215
2967.00,3.1993
2966.00,3.2721
2965.00,3.3387
2964.00,3.4023
2963.00,3.4631
2962.00,3.5168
2961.00,3.5621
2960.00,3.6043
2959.00,3.6476
2958.00,3.6871
2957.00,3.7185
2956.00,3.7546
2955.00,3.8184
2954.00,3.9289
2953.00,4.0925
2952.00,4.2828
2951.00,4.4047
2950.00,4.3905
2949.00,4.3154
2948.00,4.2548
2947.00,4.2468
2946.00,4.3422
2945.00,4.6127
2944.00,4.9032
2943.00,4.7797
2942.00,4.5597
2941.00,4.4612
2940.00,4.4617
2939.00,4.5340
2938.00,4.7130
2937.00,4.8443
2936.00,4.8341
2935.00,4.8616
2934.00,4.8794
2933.00,4.7401
2932.00,4.5667
2931.00,4.4594
2930.00,4.4109
2929.00,4.3865
2928.00,4.4275
2927.00,4.5054
2926.00,4.4369
2925.00,4.2997
2924.00,4.2205
2923.00,4.2234
2922.00,4.2006
2921.00,4.0794
2920.00,3.9262
2919.00,3.7915
2918.00,3.6879
2917.00,3.6073
2916.00,3.5380
2915.00,3.4732
2914.00,3.4120
2913.00,3.3555
2912.00,3.3046
2911.00,3.2590
2910.00,3.2181
2909.00,3.1809
2908.00,3.1469
2907.00,3.1161
2906.00,3.0874
2905.00,3.0582
2904.00,3.0260
2903.00,2.9919
2902.00,2.9596
2901.00,2.9320
2900.00,2.9075
2899.00,2.8824
2898.00,2.8555
2897.00,2.8295
2896.00,2.8079
2895.00,2.7920
2894.00,2.7808
2893.00,2.7721
2892.00,2.7646
2891.00,2.7581
2890.00,2.7536
2889.00,2.7529
2888.00,2.7569
2887.00,2.7654
2886.00,2.7780
2885.00,2.7948
2884.00,2.8161
2883.00,2.8410
2882.00,2.8664
2881.00,2.8904
2880.00,2.9146
2879.00,2.9432
2878.00,2.9789
2877.00,3.0202
2876.00,3.0630
2875.00,3.1050
2874.00,3.1480
2873.00,3.1965
2872.00,3.2551
2871.00,3.3273
2870.00,3.4128
2869.00,3.5040
2868.00,3.5869
2867.00,3.6534
2866.00,3.7121
2865.00,3.7742
2864.00,3.8341
2863.00,3.8638
2862.00,3.8387
2861.00,3.7699
2860.00,3.6887
2859.00,3.6143
2858.00,3.5443
2857.00,3.4645
2856.00,3.3650
2855.00,3.2501
2854.00,3.1335
2853.00,3.0251
2852.00,2.9271
2851.00,2.8367
2850.00,2.7523
2849.00,2.6750
2848.00,2.6069
2847.00,2.5497
2846.00,2.5036
2845.00,2.4682
2844.00,2.4430
2843.00,2.4267
2842.00,2.4180
2841.00,2.4148
2840.00,2.4156
2839.00,2.4195
2838.00,2.4255
2837.00,2.4329
2836.00,2.4410
2835.00,2.4490
2834.00,2.4561
2833.00,2.4614
2832.00,2.4649
2831.00,2.4671
2830.00,2.4689
2829.00,2.4701
2828.00,2.4704
2827.00,2.4700
2826.00,2.4688
2825.00,2.4660
2824.00,2.4609
2823.00,2.4537
2822.00,2.4456
2821.00,2.4379
2820.00,2.4301
2819.00,2.4214
2818.00,2.4111
2817.00,2.3995
2816.00,2.3869
2815.00,2.3735
2814.00,2.3594
2813.00,2.3446
2812.00,2.3291
2811.00,2.3125
2810.00,2.2948
2809.00,2.2758
2808.00,2.2553
2807.00,2.2334
2806.00,2.2105
2805.00,2.1869
2804.00,2.1627
2803.00,2.1378
2802.00,2.1123
2801.00,2.0863
2800.00,2.0601
2799.00,2.0335
2798.00,2.0060
2797.00,1.9775
2796.00,1.9476
2795.00,1.9162
2794.00,1.8830
2793.00,1.8479
2792.00,1.8113
2791.00,1.7735
2790.00,1.7349
2789.00,1.6963
2788.00,1.6585
2787.00,1.6223
2786.00,1.5884
2785.00,1.5576
2784.00,1.5304
2783.00,1.5073
2782.00,1.4887
2781.00,1.4750
2780.00,1.4662
2779.00,1.4622
2778.00,1.4628
2777.00,1.4679
2776.00,1.4772
2775.00,1.4904
2774.00,1.5071
2773.00,1.5272
2772.00,1.5502
2771.00,1.5759
2770.00,1.6036
2769.00,1.6331
2768.00,1.6638
2767.00,1.6954
2766.00,1.7274
2765.00,1.7596
2764.00,1.7914
2763.00,1.8228
2762.00,1.8539
2761.00,1.8847
2760.00,1.9150
2759.00,1.9445
2758.00,1.9729
2757.00,2.0004
2756.00,2.0268
2755.00,2.0525
2754.00,2.0780
2753.00,2.1033
2752.00,2.1279
2751.00,2.1511
2750.00,2.1726
2749.00,2.1930
2748.00,2.2126
2747.00,2.2315
2746.00,2.2495
2745.00,2.2667
2744.00,2.2828
2743.00,2.2977
2742.00,2.3111
2741.00,2.3233
2740.00,2.3347
2739.00,2.3454
2738.00,2.3554
2737.00,2.3646
2736.00,2.3730
2735.00,2.3809
2734.00,2.3887
2733.00,2.3967
2732.00,2.4045
2731.00,2.4113
2730.00,2.4166
2729.00,2.4201
2728.00,2.4224
2727.00,2.4242
2726.00,2.4266
2725.00,2.4297
2724.00,2.4328
2723.00,2.4347
2722.00,2.4353
2721.00,2.4353
2720.00,2.4347
2719.00,2.4330
2718.00,2.4297
2717.00,2.4253
2716.00,2.4204
2715.00,2.4155
2714.00,2.4108
2713.00,2.4061
2712.00,2.4009
2711.00,2.3943
2710.00,2.3862
2709.00,2.3772
2708.00,2.3681
2707.00,2.3589
2706.00,2.3489
2705.00,2.3378
2704.00,2.3258
2703.00,2.3135
2702.00,2.3010
2701.00,2.2876
2700.00,2.2727
2699.00,2.2564
2698.00,2.2389
2697.00,2.2206
2696.00,2.2019
2695.00,2.1826
2694.00,2.1627
2693.00,2.1419
2692.00,2.1199
2691.00,2.0968
2690.00,2.0724
2689.00,2.0468
2688.00,2.0199
2687.00,1.9923
2686.00,1.9643
2685.00,1.9367
2684.00,1.9096
2683.00,1.8833
2682.00,1.8581
2681.00,1.8341
2680.00,1.8117
2679.00,1.7908
2678.00,1.7712
2677.00,1.7527
2676.00,1.7347
2675.00,1.7167
2674.00,1.6986
2673.00,1.6807
2672.00,1.6635
2671.00,1.6468
2670.00,1.6302
2669.00,1.6129
2668.00,1.5945
2667.00,1.5749
2666.00,1.5545
2665.00,1.5345
2664.00,1.5161
2663.00,1.5008
2662.00,1.4895
2661.00,1.4832
2660.00,1.4822
2659.00,1.4865
2658.00,1.4956
2657.00,1.5091
2656.00,1.5266
2655.00,1.5472
2654.00,1.5703
2653.00,1.5950
2652.00,1.6210
2651.00,1.6478
2650.00,1.6751
2649.00,1.7029
2648.00,1.7309
2647.00,1.7588
2646.00,1.7870
2645.00,1.8155
2644.00,1.8442
2643.00,1.8729
2642.00,1.9011
2641.00,1.9290
2640.00,1.9567
2639.00,1.9844
2638.00,2.0122
2637.00,2.0398
2636.00,2.0670
2635.00,2.0934
2634.00,2.1193
2633.00,2.1446
2632.00,2.1691
2631.00,2.1925
2630.00,2.2148
2629.00,2.2362
2628.00,2.2570
2627.00,2.2770
2626.00,2.2957
2625.00,2.3131
2624.00,2.3294
2623.00,2.3449
2622.00,2.3595
2621.00,2.3728
2620.00,2.3847
2619.00,2.3960
2618.00,2.4075
2617.00,2.4191
2616.00,2.4300
2615.00,2.4399
2614.00,2.4494
2613.00,2.4589
2612.00,2.4677
2611.00,2.4747
2610.00,2.4801
2609.00,2.4851
2608.00,2.4905
2607.00,2.4962
2606.00,2.5016
2605.00,2.5059
2604.00,2.5091
2603.00,2.5113
2602.00,2.5130
2601.00,2.5146
2600.00,2.5160
2599.00,2.5170
2598.00,2.5173
2597.00,2.5171
2596.00,2.5165
2595.00,2.5155
2594.00,2.5140
2593.00,2.5118
2592.00,2.5083
2591.00,2.5041
2590.00,2.5004
2589.00,2.4979
2588.00,2.4956
2587.00,2.4917
2586.00,2.4855
2585.00,2.4779
2584.00,2.4704
2583.00,2.4635
2582.00,2.4567
2581.00,2.4490
2580.00,2.4400
2579.00,2.4297
2578.00,2.4186
2577.00,2.4070
2576.00,2.3945
2575.00,2.3811
2574.00,2.3675
2573.00,2.3540
2572.00,2.3406
2571.00,2.3264
2570.00,2.3110
2569.00,2.2947
2568.00,2.2771
2567.00,2.2580
2566.00,2.2372
2565.00,2.2151
2564.00,2.1922
2563.00,2.1685
2562.00,2.1440
2561.00,2.1183
2560.00,2.0913
2559.00,2.0631
2558.00,2.0335
2557.00,2.0026
2556.00,1.9700
2555.00,1.9356
2554.00,1.8996
2553.00,1.8623
2552.00,1.8241
2551.00,1.7854
2550.00,1.7461
2549.00,1.7067
2548.00,1.6674
2547.00,1.6287
2546.00,1.5908
2545.00,1.5545
2544.00,1.5202
2543.00,1.4885
2542.00,1.4597
2541.00,1.4342
2540.00,1.4123
2539.00,1.3943
2538.00,1.3804
2537.00,1.3710
2536.00,1.3661
2535.00,1.3660
2534.00,1.3706
2533.00,1.3798
2532.00,1.3933
2531.00,1.4107
2530.00,1.4317
2529.00,1.4557
2528.00,1.4826
2527.00,1.5117
2526.00,1.5427
2525.00,1.5752
2524.00,1.6088
2523.00,1.6433
2522.00,1.6782
2521.00,1.7134
2520.00,1.7486
2519.00,1.7837
2518.00,1.8188
2517.00,1.8536
2516.00,1.8882
2515.00,1.9225
2514.00,1.9565
2513.00,1.9905
2512.00,2.0242
2511.00,2.0572
2510.00,2.0886
2509.00,2.1181
2508.00,2.1460
2507.00,2.1728
2506.00,2.1988
2505.00,2.2239
2504.00,2.2478
2503.00,2.2706
2502.00,2.2929
2501.00,2.3146
2500.00,2.3355
2499.00,2.3545
2498.00,2.3714
2497.00,2.3868
2496.00,2.4018
2495.00,2.4173
2494.00,2.4331
2493.00,2.4483
2492.00,2.4622
2491.00,2.4749
2490.00,2.4871
2489.00,2.4989
2488.00,2.5094
2487.00,2.5181
2486.00,2.5255
2485.00,2.5330
2484.00,2.5407
2483.00,2.5482
2482.00,2.5553
2481.00,2.5621
2480.00,2.5691
2479.00,2.5761
2478.00,2.5826
2477.00,2.5881
2476.00,2.5920
2475.00,2.5941
2474.00,2.5950
2473.00,2.5958
2472.00,2.5969
2471.00,2.5970
2470.00,2.5954
2469.00,2.5927
2468.00,2.5904
2467.00,2.5896
2466.00,2.5897
2465.00,2.5894
2464.00,2.5877
2463.00,2.5849
2462.00,2.5818
2461.00,2.5786
2460.00,2.5745
2459.00,2.5691
2458.00,2.5632
2457.00,2.5577
2456.00,2.5526
2455.00,2.5466
2454.00,2.5391
2453.00,2.5302
2452.00,2.5203
2451.00,2.5097
2450.00,2.4987
2449.00,2.4878
2448.00,2.4767
2447.00,2.4648
2446.00,2.4517
2445.00,2.4377
2444.00,2.4232
2443.00,2.4078
2442.00,2.3912
2441.00,2.3734
2440.00,2.3547
2439.00,2.3352
2438.00,2.3147
2437.00,2.2930
2436.00,2.2699
2435.00,2.2457
2434.00,2.2204
2433.00,2.1945
2432.00,2.1675
2431.00,2.1391
2430.00,2.1088
2429.00,2.0769
2428.00,2.0437
2427.00,2.0095
2426.00,1.9738
2425.00,1.9365
2424.00,1.8973
2423.00,1.8563
2422.00,1.8138
2421.00,1.7702
2420.00,1.7257
2419.00,1.6808
2418.00,1.6358
2417.00,1.5912
2416.00,1.5474
2415.00,1.5053
2414.00,1.4654
2413.00,1.4287
2412.00,1.3960
2411.00,1.3681
2410.00,1.3455
2409.00,1.3287
2408.00,1.3179
2407.00,1.3132
2406.00,1.3147
2405.00,1.3226
2404.00,1.3366
2403.00,1.3565
2402.00,1.3816
2401.00,1.4112
2400.00,1.4446
2399.00,1.4810
2398.00,1.5198
2397.00,1.5602
2396.00,1.6017
2395.00,1.6440
2394.00,1.6868
2393.00,1.7298
2392.00,1.7726
2391.00,1.8146
2390.00,1.8553
2389.00,1.8945
2388.00,1.9320
2387.00,1.9675
2386.00,2.0007
2385.00,2.0316
2384.00,2.0603
2383.00,2.0872
2382.00,2.1124
2381.00,2.1362
2380.00,2.1592
2379.00,2.1821
2378.00,2.2058
2377.00,2.2307
2376.00,2.2562
2375.00,2.2815
2374.00,2.3060
2373.00,2.3299
2372.00,2.3537
2371.00,2.3769
2370.00,2.3984
2369.00,2.4175
2368.00,2.4341
2367.00,2.4490
2366.00,2.4631
2365.00,2.4775
2364.00,2.4926
2363.00,2.5083
2362.00,2.5240
2361.00,2.5384
2360.00,2.5511
2359.00,2.5626
2358.00,2.5742
2357.00,2.5862
2356.00,2.5973
2355.00,2.6058
2354.00,2.6116
2353.00,2.6174
2352.00,2.6250
2351.00,2.6337
2350.00,2.6412
2349.00,2.6451
2348.00,2.6460
2347.00,2.6461
2346.00,2.6485
2345.00,2.6536
2344.00,2.6591
2343.00,2.6629
2342.00,2.6641
2341.00,2.6633
2340.00,2.6616
2339.00,2.6596
2338.00,2.6571
2337.00,2.6540
2336.00,2.6494
2335.00,2.6427
2334.00,2.6338
2333.00,2.6239
2332.00,2.6139
2331.00,2.6053
2330.00,2.5989
2329.00,2.5934
2328.00,2.5873
2327.00,2.5790
2326.00,2.5696
2325.00,2.5603
2324.00,2.5514
2323.00,2.5427
2322.00,2.5334
2321.00,2.5236
2320.00,2.5133
2319.00,2.5023
2318.00,2.4905
2317.00,2.4777
2316.00,2.4638
2315.00,2.4492
2314.00,2.4343
2313.00,2.4190
2312.00,2.4031
2311.00,2.3863
2310.00,2.3692
2309.00,2.3518
2308.00,2.3338
2307.00,2.3145
2306.00,2.2938
2305.00,2.2722
2304.00,2.2496
2303.00,2.2256
2302.00,2.1996
2301.00,2.1717
2300.00,2.1421
2299.00,2.1107
2298.00,2.0779
2297.00,2.0433
2296.00,2.0068
2295.00,1.9679
2294.00,1.9266
2293.00,1.8836
2292.00,1.8397
2291.00,1.7953
2290.00,1.7501
2289.00,1.7038
2288.00,1.6566
2287.00,1.6093
2286.00,1.5633
2285.00,1.5195
2284.00,1.4790
2283.00,1.4425
2282.00,1.4112
2281.00,1.3860
2280.00,1.3675
2279.00,1.3562
2278.00,1.3523
2277.00,1.3557
2276.00,1.3663
2275.00,1.3836
2274.00,1.4068
2273.00,1.4350
2272.00,1.4675
2271.00,1.5034
2270.00,1.5420
2269.00,1.5827
2268.00,1.6252
2267.00,1.6690
2266.00,1.7140
2265.00,1.7597
2264.00,1.8057
2263.00,1.8514
2262.00,1.8967
2261.00,1.9413
2260.00,1.9854
2259.00,2.0288
2258.00,2.0711
2257.00,2.1118
2256.00,2.1507
2255.00,2.1875
2254.00,2.2225
2253.00,2.2555
2252.00,2.2864
2251.00,2.3149
2250.00,2.3412
2249.00,2.3660
2248.00,2.3900
2247.00,2.4133
2246.00,2.4358
2245.00,2.4572
2244.00,2.4778
2243.00,2.4983
2242.00,2.5193
2241.00,2.5402
2240.00,2.5598
2239.00,2.5769
2238.00,2.5916
2237.00,2.6049
2236.00,2.6181
2235.00,2.6319
2234.00,2.6462
2233.00,2.6599
2232.00,2.6723
2231.00,2.6826
2230.00,2.6907
2229.00,2.6967
2228.00,2.7020
2227.00,2.7082
2226.00,2.7159
2225.00,2.7247
2224.00,2.7333
2223.00,2.7411
2222.00,2.7476
2221.00,2.7527
2220.00,2.7563
2219.00,2.7590
2218.00,2.7617
2217.00,2.7643
2216.00,2.7659
2215.00,2.7667
2214.00,2.7682
2213.00,2.7713
2212.00,2.7751
2211.00,2.7774
2210.00,2.7770
2209.00,2.7741
2208.00,2.7701
2207.00,2.7667
2206.00,2.7647
2205.00,2.7636
2204.00,2.7620
2203.00,2.7589
2202.00,2.7549
2201.00,2.7508
2200.00,2.7468
2199.00,2.7420
2198.00,2.7355
2197.00,2.7274
2196.00,2.7181
2195.00,2.7086
2194.00,2.6993
2193.00,2.6904
2192.00,2.6820
2191.00,2.6734
2190.00,2.6633
2189.00,2.6506
2188.00,2.6352
2187.00,2.6185
2186.00,2.6020
2185.00,2.5864
2184.00,2.5709
2183.00,2.5550
2182.00,2.5383
2181.00,2.5209
2180.00,2.5023
2179.00,2.4827
2178.00,2.4626
2177.00,2.4422
2176.00,2.4211
2175.00,2.3987
2174.00,2.3748
2173.00,2.3494
2172.00,2.3220
2171.00,2.2921
2170.00,2.2595
2169.00,2.2245
2168.00,2.1875
2167.00,2.1488
2166.00,2.1082
2165.00,2.0653
2164.00,2.0196
2163.00,1.9711
2162.00,1.9204
2161.00,1.8686
2160.00,1.8161
2159.00,1.7634
2158.00,1.7112
2157.00,1.6604
2156.00,1.6121
2155.00,1.5674
2154.00,1.5272
2153.00,1.4925
2152.00,1.4642
2151.00,1.4431
2150.00,1.4294
2149.00,1.4237
2148.00,1.4260
2147.00,1.4363
2146.00,1.4540
2145.00,1.4785
2144.00,1.5090
2143.00,1.5446
2142.00,1.5842
2141.00,1.6271
2140.00,1.6724
2139.00,1.7193
2138.00,1.7670
2137.00,1.8147
2136.00,1.8618
2135.00,1.9081
2134.00,1.9536
2133.00,1.9984
2132.00,2.0427
2131.00,2.0859
2130.00,2.1276
2129.00,2.1678
2128.00,2.2066
2127.00,2.2442
2126.00,2.2803
2125.00,2.3145
2124.00,2.3466
2123.00,2.3769
2122.00,2.4063
2121.00,2.4352
2120.00,2.4635
2119.00,2.4903
2118.00,2.5151
2117.00,2.5383
2116.00,2.5608
2115.00,2.5826
2114.00,2.6031
2113.00,2.6217
2112.00,2.6386
2111.00,2.6545
2110.00,2.6705
2109.00,2.6868
2108.00,2.7027
2107.00,2.7176
2106.00,2.7314
2105.00,2.7443
2104.00,2.7566
2103.00,2.7683
2102.00,2.7794
2101.00,2.7900
2100.00,2.8001
2099.00,2.8092
2098.00,2.8173
2097.00,2.8242
2096.00,2.8305
2095.00,2.8374
2094.00,2.8450
2093.00,2.8523
2092.00,2.8580
2091.00,2.8620
2090.00,2.8651
2089.00,2.8676
2088.00,2.8691
2087.00,2.8697
2086.00,2.8702
2085.00,2.8710
2084.00,2.8712
2083.00,2.8701
2082.00,2.8681
2081.00,2.8662
2080.00,2.8653
2079.00,2.8653
2078.00,2.8660
2077.00,2.8661
2076.00,2.8641
2075.00,2.8598
2074.00,2.8547
2073.00,2.8505
2072.00,2.8470
2071.00,2.8432
2070.00,2.8386
2069.00,2.8333
2068.00,2.8274
2067.00,2.8200
2066.00,2.8114
2065.00,2.8023
2064.00,2.7926
2063.00,2.7814
2062.00,2.7689
2061.00,2.7569
2060.00,2.7472
2059.00,2.7390
2058.00,2.7293
2057.00,2.7160
2056.00,2.6995
2055.00,2.6813
2054.00,2.6621
2053.00,2.6417
2052.00,2.6203
2051.00,2.5982
2050.00,2.5760
2049.00,2.5532
2048.00,2.5289
2047.00,2.5027
2046.00,2.4746
2045.00,2.4445
2044.00,2.4125
2043.00,2.3787
2042.00,2.3435
2041.00,2.3072
2040.00,2.2693
2039.00,2.2293
2038.00,2.1867
2037.00,2.1416
2036.00,2.0942
2035.00,2.0446
2034.00,1.9931
2033.00,1.9400
2032.00,1.8860
2031.00,1.8317
2030.00,1.7778
2029.00,1.7258
2028.00,1.6770
2027.00,1.6325
2026.00,1.5935
2025.00,1.5608
2024.00,1.5352
2023.00,1.5166
2022.00,1.5054
2021.00,1.5024
2020.00,1.5080
2019.00,1.5222
2018.00,1.5444
2017.00,1.5737
2016.00,1.6094
2015.00,1.6500
2014.00,1.6937
2013.00,1.7392
2012.00,1.7861
2011.00,1.8339
2010.00,1.8824
2009.00,1.9314
2008.00,1.9805
2007.00,2.0291
2006.00,2.0767
2005.00,2.1232
2004.00,2.1690
2003.00,2.2141
2002.00,2.2578
2001.00,2.2996
2000.00,2.3395
1999.00,2.3773
1998.00,2.4121
1997.00,2.4440
1996.00,2.4736
1995.00,2.5015
1994.00,2.5279
1993.00,2.5538
1992.00,2.5808
1991.00,2.6092
1990.00,2.6373
1989.00,2.6634
1988.00,2.6875
1987.00,2.7101
1986.00,2.7308
1985.00,2.7488
1984.00,2.7649
1983.00,2.7812
1982.00,2.7984
1981.00,2.8154
1980.00,2.8315
1979.00,2.8462
1978.00,2.8591
1977.00,2.8697
1976.00,2.8787
1975.00,2.8878
1974.00,2.8974
1973.00,2.9062
1972.00,2.9128
1971.00,2.9176
1970.00,2.9222
1969.00,2.9274
1968.00,2.9329
1967.00,2.9389
1966.00,2.9457
1965.00,2.9521
1964.00,2.9562
1963.00,2.9577
1962.00,2.9587
1961.00,2.9617
1960.00,2.9668
1959.00,2.9718
1958.00,2.9746
1957.00,2.9742
1956.00,2.9717
1955.00,2.9682
1954.00,2.9641
1953.00,2.9588
1952.00,2.9528
1951.00,2.9485
1950.00,2.9477
1949.00,2.9485
1948.00,2.9476
1947.00,2.9435
1946.00,2.9379
1945.00,2.9315
1944.00,2.9231
1943.00,2.9132
1942.00,2.9052
1941.00,2.9012
1940.00,2.8982
1939.00,2.8907
1938.00,2.8769
1937.00,2.8593
1936.00,2.8412
1935.00,2.8242
1934.00,2.8099
1933.00,2.7982
1932.00,2.7868
1931.00,2.7732
1930.00,2.7554
1929.00,2.7337
1928.00,2.7094
1927.00,2.6843
1926.00,2.6598
1925.00,2.6345
1924.00,2.6058
1923.00,2.5743
1922.00,2.5439
1921.00,2.5165
1920.00,2.4883
1919.00,2.4550
1918.00,2.4178
1917.00,2.3809
1916.00,2.3445
1915.00,2.3049
1914.00,2.2600
1913.00,2.2113
1912.00,2.1604
1911.00,2.1073
1910.00,2.0512
1909.00,1.9940
1908.00,1.9374
1907.00,1.8814
1906.00,1.8263
1905.00,1.7732
1904.00,1.7238
1903.00,1.6804
1902.00,1.6438
1901.00,1.6154
1900.00,1.5958
1899.00,1.5863
1898.00,1.5884
1897.00,1.6016
1896.00,1.6235
1895.00,1.6522
1894.00,1.6884
1893.00,1.7331
1892.00,1.7846
1891.00,1.8391
1890.00,1.8951
1889.00,1.9542
1888.00,2.0165
1887.00,2.0788
1886.00,2.1379
1885.00,2.1939
1884.00,2.2487
1883.00,2.3024
1882.00,2.3531
1881.00,2.3996
1880.00,2.4426
1879.00,2.4829
1878.00,2.5211
1877.00,2.5572
1876.00,2.5889
1875.00,2.6140
1874.00,2.6333
1873.00,2.6511
1872.00,2.6718
1871.00,2.6959
1870.00,2.7204
1869.00,2.7439
1868.00,2.7679
1867.00,2.7941
1866.00,2.8209
1865.00,2.8452
1864.00,2.8653
1863.00,2.8828
1862.00,2.9004
1861.00,2.9182
1860.00,2.9341
1859.00,2.9471
1858.00,2.9586
1857.00,2.9707
1856.00,2.9832
1855.00,2.9957
1854.00,3.0067
1853.00,3.0165
1852.00,3.0252
1851.00,3.0293
1850.00,3.0259
1849.00,3.0179
1848.00,3.0127
1847.00,3.0152
1846.00,3.0218
1845.00,3.0267
1844.00,3.0320
1843.00,3.0418
1842.00,3.0533
1841.00,3.0611
1840.00,3.0625
1839.00,3.0607
1838.00,3.0603
1837.00,3.0593
1836.00,3.0525
1835.00,3.0395
1834.00,3.0260
1833.00,3.0182
1832.00,3.0133
1831.00,3.0007
1830.00,2.9791
1829.00,2.9593
1828.00,2.9492
1827.00,2.9448
1826.00,2.9382
1825.00,2.9284
1824.00,2.9194
1823.00,2.9110
1822.00,2.8986
1821.00,2.8806
1820.00,2.8589
1819.00,2.8354
1818.00,2.8104
1817.00,2.7821
1816.00,2.7519
1815.00,2.7216
1814.00,2.6929
1813.00,2.6662
1812.00,2.6395
1811.00,2.6126
1810.00,2.5872
1809.00,2.5641
1808.00,2.5414
1807.00,2.5147
1806.00,2.4807
1805.00,2.4392
1804.00,2.3957
1803.00,2.3536
1802.00,2.3116
1801.00,2.2668
1800.00,2.2187
1799.00,2.1694
1798.00,2.1219
1797.00,2.0798
1796.00,2.0494
1795.00,2.0337
1794.00,2.0313
1793.00,2.0414
1792.00,2.0686
1791.00,2.1150
1790.00,2.1738
1789.00,2.2359
1788.00,2.2972
1787.00,2.3579
1786.00,2.4193
1785.00,2.4821
1784.00,2.5492
1783.00,2.6178
1782.00,2.6801
1781.00,2.7349
1780.00,2.7860
1779.00,2.8351
1778.00,2.8778
1777.00,2.9136
1776.00,2.9496
1775.00,2.9876
1774.00,3.0166
1773.00,3.0322
1772.00,3.0499
1771.00,3.0845
1770.00,3.1316
1769.00,3.1758
1768.00,3.2100
1767.00,3.2354
1766.00,3.2533
1765.00,3.2635
1764.00,3.2686
1763.00,3.2714
1762.00,3.2747
1761.00,3.2773
1760.00,3.2755
1759.00,3.2694
1758.00,3.2577
1757.00,3.2428
1756.00,3.2329
1755.00,3.2331
1754.00,3.2401
1753.00,3.2479
1752.00,3.2534
1751.00,3.2608
1750.00,3.2749
1749.00,3.2972
1748.00,3.3302
1747.00,3.3725
1746.00,3.4174
1745.00,3.4577
1744.00,3.4940
1743.00,3.5381
1742.00,3.5991
1741.00,3.6675
1740.00,3.7308
1739.00,3.8012
1738.00,3.8985
1737.00,4.0176
1736.00,4.1250
1735.00,4.1995
1734.00,4.2100
1733.00,4.1453
1732.00,4.1053
1731.00,4.1351
1730.00,4.2110
1729.00,4.2892
1728.00,4.3009
1727.00,4.2799
1726.00,4.3231
1725.00,4.4939
1724.00,4.7365
1723.00,4.6993
1722.00,4.5607
1721.00,4.5343
1720.00,4.5701
1719.00,4.5289
1718.00,4.5213
1717.00,4.7771
1716.00,5.0612
1715.00,5.2188
1714.00,4.9118
1713.00,4.4539
1712.00,4.2984
1711.00,4.2542
1710.00,4.2639
1709.00,4.3601
1708.00,4.6308
1707.00,4.8908
1706.00,4.5920
1705.00,4.4359
1704.00,4.3833
1703.00,4.3724
1702.00,4.4083
1701.00,4.5449
1700.00,4.8067
1699.00,4.6253
1698.00,4.4379
1697.00,4.3974
1696.00,4.3697
1695.00,4.3987
1694.00,4.4753
1693.00,4.4563
1692.00,4.2874
1691.00,4.0974
1690.00,3.9334
1689.00,3.7939
1688.00,3.6754
1687.00,3.5844
1686.00,3.5216
1685.00,3.4748
1684.00,3.4602
1683.00,3.4879
1682.00,3.5245
1681.00,3.5319
1680.00,3.5045
1679.00,3.4641
1678.00,3.4301
1677.00,3.3945
1676.00,3.3380
1675.00,3.2619
1674.00,3.1907
1673.00,3.1394
1672.00,3.1016
1671.00,3.0616
1670.00,3.0097
1669.00,2.9498
1668.00,2.8903
1667.00,2.8357
1666.00,2.7897
1665.00,2.7507
1664.00,2.7147
1663.00,2.6853
1662.00,2.6721
1661.00,2.6785
1660.00,2.6956
1659.00,2.7086
1658.00,2.7114
1657.00,2.7150
1656.00,2.7407
1655.00,2.7887
1654.00,2.8257
1653.00,2.8541
1652.00,2.8992
1651.00,2.9516
1650.00,2.9987
1649.00,3.0376
1648.00,3.0656
1647.00,3.0857
1646.00,3.1075
1645.00,3.1327
1644.00,3.1597
1643.00,3.1868
1642.00,3.2057
1641.00,3.2119
1640.00,3.2113
1639.00,3.2184
1638.00,3.2374
1637.00,3.2520
1636.00,3.2507
1635.00,3.2490
1634.00,3.2619
1633.00,3.2806
1632.00,3.2911
1631.00,3.2916
1630.00,3.2859
1629.00,3.2723
1628.00,3.2495
1627.00,3.2253
1626.00,3.2113
1625.00,3.2101
1624.00,3.2134
1623.00,3.2142
1622.00,3.2091
1621.00,3.1989
1620.00,3.1897
1619.00,3.1859
1618.00,3.1795
1617.00,3.1624
1616.00,3.1433
1615.00,3.1318
1614.00,3.1247
1613.00,3.1114
1612.00,3.0890
1611.00,3.0659
1610.00,3.0491
1609.00,3.0363
1608.00,3.0223
1607.00,3.0050
1606.00,2.9827
1605.00,2.9543
1604.00,2.9205
1603.00,2.8842
1602.00,2.8479
1601.00,2.8109
1600.00,2.7710
1599.00,2.7279
1598.00,2.6835
1597.00,2.6387
1596.00,2.5918
1595.00,2.5413
1594.00,2.4871
1593.00,2.4310
1592.00,2.3748
1591.00,2.3199
1590.00,2.2664
1589.00,2.2137
1588.00,2.1613
1587.00,2.1112
1586.00,2.0648
1585.00,2.0244
1584.00,1.9942
1583.00,1.9747
1582.00,1.9622
1581.00,1.9573
1580.00,1.9667
1579.00,1.9964
1578.00,2.0430
1577.00,2.0939
1576.00,2.1463
1575.00,2.2067
1574.00,2.2722
1573.00,2.3371
1572.00,2.3988
1571.00,2.4555
1570.00,2.5083
1569.00,2.5651
1568.00,2.6288
1567.00,2.6898
1566.00,2.7338
1565.00,2.7535
1564.00,2.7546
1563.00,2.7502
1562.00,2.7564
1561.00,2.7844
1560.00,2.8137
1559.00,2.8332
1558.00,2.8678
1557.00,2.9184
1556.00,2.9710
1555.00,3.0136
1554.00,3.0449
1553.00,3.0736
1552.00,3.0995
1551.00,3.1166
1550.00,3.1262
1549.00,3.1346
1548.00,3.1441
1547.00,3.1487
1546.00,3.1441
1545.00,3.1364
1544.00,3.1326
1543.00,3.1333
1542.00,3.1374
1541.00,3.1386
1540.00,3.1399
1539.00,3.1559
1538.00,3.1866
1537.00,3.2153
1536.00,3.2319
1535.00,3.2333
1534.00,3.2254
1533.00,3.2267
1532.00,3.2414
1531.00,3.2547
1530.00,3.2555
1529.00,3.2457
1528.00,3.2332
1527.00,3.2212
1526.00,3.2082
1525.00,3.1963
1524.00,3.1894
1523.00,3.1843
1522.00,3.1738
1521.00,3.1616
1520.00,3.1542
1519.00,3.1495
1518.00,3.1444
1517.00,3.1411
1516.00,3.1458
1515.00,3.1538
1514.00,3.1506
1513.00,3.1271
1512.00,3.0850
1511.00,3.0361
1510.00,2.9970
1509.00,2.9831
1508.00,2.9882
1507.00,2.9919
1506.00,2.9899
1505.00,2.9879
1504.00,2.9859
1503.00,2.9780
1502.00,2.9573
1501.00,2.9216
1500.00,2.8771
1499.00,2.8329
1498.00,2.7952
1497.00,2.7610
1496.00,2.7225
1495.00,2.6755
1494.00,2.6197
1493.00,2.5571
1492.00,2.4898
1491.00,2.4227
1490.00,2.3652
1489.00,2.3230
1488.00,2.2898
1487.00,2.2609
1486.00,2.2362
1485.00,2.2194
1484.00,2.2153
1483.00,2.2233
1482.00,2.2417
1481.00,2.2700
1480.00,2.3082
1479.00,2.3523
1478.00,2.3988
1477.00,2.4486
1476.00,2.5076
1475.00,2.5814
1474.00,2.6664
1473.00,2.7573
1472.00,2.8510
1471.00,2.9424
1470.00,3.0233
1469.00,3.0909
1468.00,3.1488
1467.00,3.2042
1466.00,3.2587
1465.00,3.3103
1464.00,3.3542
1463.00,3.3834
1462.00,3.3994
1461.00,3.4116
1460.00,3.4304
1459.00,3.4598
1458.00,3.4989
1457.00,3.5573
1456.00,3.6524
1455.00,3.7808
1454.00,3.9137
1453.00,3.9986
1452.00,4.0168
1451.00,4.0218
1450.00,4.0296
1449.00,4.0213
1448.00,3.9954
1447.00,3.9289
1446.00,3.8081
1445.00,3.6737
1444.00,3.5596
1443.00,3.4736
1442.00,3.4132
1441.00,3.3772
1440.00,3.3672
1439.00,3.3856
1438.00,3.4333
1437.00,3.5043
1436.00,3.5859
1435.00,3.6588
1434.00,3.7120
1433.00,3.7529
1432.00,3.7946
1431.00,3.8393
1430.00,3.8845
1429.00,3.9332
1428.00,3.9882
1427.00,4.0321
1426.00,4.0313
1425.00,3.9895
1424.00,3.9459
1423.00,3.9160
1422.00,3.8743
1421.00,3.7961
1420.00,3.6982
1419.00,3.6169
1418.00,3.5684
1417.00,3.5414
1416.00,3.5192
1415.00,3.4930
1414.00,3.4613
1413.00,3.4284
1412.00,3.4021
1411.00,3.3896
1410.00,3.3934
1409.00,3.4098
1408.00,3.4326
1407.00,3.4570
1406.00,3.4735
1405.00,3.4736
1404.00,3.4638
1403.00,3.4628
1402.00,3.4789
1401.00,3.4975
1400.00,3.4953
1399.00,3.4700
1398.00,3.4441
1397.00,3.4363
1396.00,3.4504
1395.00,3.4820
1394.00,3.5165
1393.00,3.5303
1392.00,3.5113
1391.00,3.4724
1390.00,3.4382
1389.00,3.4241
1388.00,3.4299
1387.00,3.4484
1386.00,3.4730
1385.00,3.4962
1384.00,3.5095
1383.00,3.5102
1382.00,3.5040
1381.00,3.4944
1380.00,3.4818
1379.00,3.4652
1378.00,3.4441
1377.00,3.4186
1376.00,3.3903
1375.00,3.3626
1374.00,3.3381
1373.00,3.3171
1372.00,3.2980
1371.00,3.2806
1370.00,3.2643
1369.00,3.2479
1368.00,3.2302
1367.00,3.2107
1366.00,3.1868
1365.00,3.1545
1364.00,3.1135
1363.00,3.0699
1362.00,3.0326
1361.00,3.0043
1360.00,2.9819
1359.00,2.9630
1358.00,2.9499
1357.00,2.9473
1356.00,2.9601
1355.00,2.9922
1354.00,3.0450
1353.00,3.1170
1352.00,3.2041
1351.00,3.3069
1350.00,3.4295
1349.00,3.5676
1348.00,3.6865
1347.00,3.7342
1346.00,3.7066
1345.00,3.6455
1344.00,3.5822
1343.00,3.5323
1342.00,3.5107
1341.00,3.5285
1340.00,3.5804
1339.00,3.6362
1338.00,3.6531
1337.00,3.6065
1336.00,3.5054
1335.00,3.3834
1334.00,3.2738
1333.00,3.1923
1332.00,3.1396
1331.00,3.1110
1330.00,3.1037
1329.00,3.1189
1328.00,3.1573
1327.00,3.2130
1326.00,3.2738
1325.00,3.3297
1324.00,3.3827
1323.00,3.4411
1322.00,3.5069
1321.00,3.5739
1320.00,3.6392
1319.00,3.7093
1318.00,3.7927
1317.00,3.8937
1316.00,4.0110
1315.00,4.1299
1314.00,4.2143
1313.00,4.2393
1312.00,4.2252
1311.00,4.2275
1310.00,4.2550
1309.00,4.2446
1308.00,4.1398
1307.00,3.9365
1306.00,3.7258
1305.00,3.5605
1304.00,3.4402
1303.00,3.3536
1302.00,3.2894
1301.00,3.2411
1300.00,3.2084
1299.00,3.1940
1298.00,3.1981
1297.00,3.2166
1296.00,3.2435
1295.00,3.2751
1294.00,3.3091
1293.00,3.3418
1292.00,3.3706
1291.00,3.3970
1290.00,3.4227
1289.00,3.4440
1288.00,3.4556
1287.00,3.4616
1286.00,3.4738
1285.00,3.5000
1284.00,3.5393
1283.00,3.5875
1282.00,3.6398
1281.00,3.6854
1280.00,3.7077
1279.00,3.7022
1278.00,3.6863
1277.00,3.6817
1276.00,3.6976
1275.00,3.7309
1274.00,3.7666
1273.00,3.7829
1272.00,3.7700
1271.00,3.7438
1270.00,3.7248
1269.00,3.7172
1268.00,3.7138
1267.00,3.7160
1266.00,3.7359
1265.00,3.7771
1264.00,3.8178
1263.00,3.8275
1262.00,3.8105
1261.00,3.7893
1260.00,3.7686
1259.00,3.7433
1258.00,3.7159
1257.00,3.6958
1256.00,3.6905
1255.00,3.6980
1254.00,3.7048
1253.00,3.6988
1252.00,3.6870
1251.00,3.6863
1250.00,3.7037
1249.00,3.7237
1248.00,3.7205
1247.00,3.7001
1246.00,3.6936
1245.00,3.7086
1244.00,3.7210
1243.00,3.7153
1242.00,3.7024
1241.00,3.6912
1240.00,3.6763
1239.00,3.6577
1238.00,3.6502
1237.00,3.6676
1236.00,3.7048
1235.00,3.7388
1234.00,3.7547
1233.00,3.7684
1232.00,3.8079
1231.00,3.8888
1230.00,4.0089
1229.00,4.1505
1228.00,4.2753
1227.00,4.3557
1226.00,4.3701
1225.00,4.2845
1224.00,4.1661
1223.00,4.0521
1222.00,3.9751
1221.00,3.9874
1220.00,4.1038
1219.00,4.2474
1218.00,4.2733
1217.00,4.2383
1216.00,4.2180
1215.00,4.1839
1214.00,4.1059
1213.00,4.0204
1212.00,3.9526
1211.00,3.8978
1210.00,3.8408
1209.00,3.7748
1208.00,3.7164
1207.00,3.6862
1206.00,3.6838
1205.00,3.6842
1204.00,3.6583
1203.00,3.6056
1202.00,3.5490
1201.00,3.5062
1200.00,3.4803
1199.00,3.4668
1198.00,3.4583
1197.00,3.4441
1196.00,3.4141
1195.00,3.3664
1194.00,3.3119
1193.00,3.2645
1192.00,3.2342
1191.00,3.2239
1190.00,3.2284
1189.00,3.2367
1188.00,3.2411
1187.00,3.2449
1186.00,3.2587
1185.00,3.2846
1184.00,3.3117
1183.00,3.3288
1182.00,3.3392
1181.00,3.3573
1180.00,3.3948
1179.00,3.4487
1178.00,3.4986
1177.00,3.5197
1176.00,3.5096
1175.00,3.4927
1174.00,3.4935
1173.00,3.5195
1172.00,3.5629
1171.00,3.6077
1170.00,3.6352
1169.00,3.6317
1168.00,3.6076
1167.00,3.5978
1166.00,3.6305
1165.00,3.7012
1164.00,3.7660
1163.00,3.7768
1162.00,3.7438
1161.00,3.7075
1160.00,3.6934
1159.00,3.7049
1158.00,3.7272
1157.00,3.7529
1156.00,3.7782
1155.00,3.7918
1154.00,3.8073
1153.00,3.8318
1152.00,3.8427
1151.00,3.8380
1150.00,3.8535
1149.00,3.9304
1148.00,4.0808
1147.00,4.1725
1146.00,4.0592
1145.00,3.9554
1144.00,3.9251
1143.00,3.9606
1142.00,4.0700
1141.00,4.2816
1140.00,4.4445
1139.00,4.3028
1138.00,4.1780
1137.00,4.0904
1136.00,4.0887
1135.00,4.1898
1134.00,4.2754
1133.00,4.2995
1132.00,4.4804
1131.00,4.9231
1130.00,4.3330
1129.00,4.1838
1128.00,4.1809
1127.00,4.1784
1126.00,4.1186
1125.00,4.0495
1124.00,3.9809
1123.00,3.9474
1122.00,4.0256
1121.00,4.3381
1120.00,4.3565
1119.00,4.0090
1118.00,3.9352
1117.00,3.9904
1116.00,4.1277
1115.00,4.2987
1114.00,4.3593
1113.00,4.3584
1112.00,4.3607
1111.00,4.2507
1110.00,4.1451
1109.00,4.1003
1108.00,4.0523
1107.00,3.9574
1106.00,3.8641
1105.00,3.8109
1104.00,3.8039
1103.00,3.8506
1102.00,3.9648
1101.00,4.1371
1100.00,4.2525
1099.00,4.1250
1098.00,3.9579
1097.00,3.8855
1096.00,3.8938
1095.00,3.9471
1094.00,4.0060
1093.00,4.0197
1092.00,3.9618
1091.00,3.8765
1090.00,3.8208
1089.00,3.8085
1088.00,3.8114
1087.00,3.8069
1086.00,3.8218
1085.00,3.8963
1084.00,4.0098
1083.00,4.0272
1082.00,3.9095
1081.00,3.7888
1080.00,3.7178
1079.00,3.6804
1078.00,3.6563
1077.00,3.6401
1076.00,3.6255
1075.00,3.6007
1074.00,3.5636
1073.00,3.5317
1072.00,3.5192
1071.00,3.5254
1070.00,3.5410
1069.00,3.5564
1068.00,3.5667
1067.00,3.5668
1066.00,3.5510
1065.00,3.5250
1064.00,3.5064
1063.00,3.5133
1062.00,3.5502
1061.00,3.6050
1060.00,3.6645
1059.00,3.7142
1058.00,3.7319
1057.00,3.7207
1056.00,3.7116
1055.00,3.7291
1054.00,3.7799
1053.00,3.8601
1052.00,3.9297
1051.00,3.8464
1050.00,3.7001
1049.00,3.6275
1048.00,3.6140
1047.00,3.6080
1046.00,3.5821
1045.00,3.5379
1044.00,3.4998
1043.00,3.4946
1042.00,3.5270
1041.00,3.5852
1040.00,3.6535
1039.00,3.7192
1038.00,3.7748
1037.00,3.8201
1036.00,3.8543
1035.00,3.8748
1034.00,3.8951
1033.00,3.9489
1032.00,4.0669
1031.00,4.2347
1030.00,4.3419
1029.00,4.2637
1028.00,4.0514
1027.00,3.8926
1026.00,3.8252
1025.00,3.8275
1024.00,3.8633
1023.00,3.8993
1022.00,3.9390
1021.00,4.0185
1020.00,4.1346
1019.00,4.2797
1018.00,4.7147
1017.00,4.3099
1016.00,3.9787
1015.00,3.8724
1014.00,3.8854
1013.00,3.9501
1012.00,4.0193
1011.00,4.0795
1010.00,4.1128
1009.00,4.0915
1008.00,4.0434
1007.00,4.0298
1006.00,4.0787
1005.00,4.1455
1004.00,4.1444
1003.00,4.1267
1002.00,4.2040
1001.00,4.3389
1000.00,4.2489
999.00,4.0404
998.00,3.8558
997.00,3.7716
996.00,3.7976
995.00,3.9134
994.00,4.0956
993.00,4.3145
992.00,4.4887
991.00,4.5557
990.00,4.5958
989.00,4.6312
988.00,4.5484
987.00,4.5523
986.00,4.9031
985.00,4.8495
984.00,4.2362
983.00,3.9946
982.00,3.8941
981.00,3.8712
980.00,3.8574
979.00,3.8654
978.00,3.9913
977.00,4.2635
976.00,4.2546
975.00,4.1181
974.00,4.0536
973.00,4.0181
972.00,4.0474
971.00,4.2099
970.00,4.5823
969.00,4.8606
968.00,5.0193
967.00,5.3151
966.00,4.9458
965.00,4.8750
964.00,4.4476
963.00,4.1940
962.00,4.1176
961.00,4.1717
960.00,4.2992
959.00,4.3260
958.00,4.2238
957.00,4.1537
956.00,4.1645
955.00,4.2133
954.00,4.1563
953.00,4.0750
952.00,4.1106
951.00,4.3040
950.00,4.5566
949.00,4.5427
948.00,4.5882
947.00,4.6849
946.00,4.5811
945.00,4.3298
944.00,4.1380
943.00,4.0648
942.00,4.0890
941.00,4.1377
940.00,4.1052
939.00,4.0037
938.00,3.9289
937.00,3.9239
936.00,3.9813
935.00,4.0757
934.00,4.1540
933.00,4.1347
932.00,4.1055
931.00,4.1461
930.00,4.2030
929.00,4.2276
928.00,4.2027
927.00,4.1341
926.00,4.1311
925.00,4.2689
924.00,4.6810
923.00,5.1302
922.00,4.6022
921.00,4.5388
920.00,4.6509
919.00,4.6351
918.00,4.3064
917.00,4.1228
916.00,4.1023
915.00,4.2032
914.00,4.3216
913.00,4.3489
912.00,4.3293
911.00,4.3380
910.00,4.2950
909.00,4.1529
908.00,4.0511
907.00,4.0098
906.00,4.0414
905.00,4.1448
904.00,4.2514
903.00,4.3028
902.00,4.3229
901.00,4.3294
900.00,4.3425
899.00,4.3698
898.00,4.3675
897.00,4.3514
896.00,4.3148
895.00,4.2361
894.00,4.1735
893.00,4.1394
892.00,4.1019
891.00,4.0876
890.00,4.2353
889.00,4.7841
888.00,4.4368
887.00,4.1461
886.00,4.0298
885.00,3.9612
884.00,3.9426
883.00,4.0090
882.00,4.1433
881.00,4.0851
880.00,3.9368
879.00,3.8942
878.00,3.9584
877.00,4.1175
876.00,4.3201
875.00,4.5410
874.00,5.0027
873.00,5.1562
872.00,4.5296
871.00,4.1550
870.00,3.9000
869.00,3.7428
868.00,3.6816
867.00,3.7196
866.00,3.8760
865.00,4.2164
864.00,4.3562
863.00,4.0788
862.00,4.0423
861.00,4.2935
860.00,4.7265
859.00,4.2457
858.00,4.2123
857.00,4.3883
856.00,4.4825
855.00,4.6039
854.00,4.6963
853.00,4.3958
852.00,4.3301
851.00,4.4725
850.00,4.3896
849.00,4.2026
848.00,4.1205
847.00,4.1253
846.00,4.1991
845.00,4.3307
844.00,4.4799
843.00,4.4900
842.00,4.3432
841.00,4.2160
840.00,4.1590
839.00,4.0928
838.00,4.0335
837.00,4.0872
836.00,4.2971
835.00,4.6163
834.00,4.5000
833.00,4.2059
832.00,4.1078
831.00,4.2012
830.00,4.5244
829.00,5.1472
828.00,5.2239
827.00,5.0165
826.00,4.4670
825.00,4.0854
824.00,3.9197
823.00,3.9061
822.00,3.9675
821.00,3.9475
820.00,3.9056
819.00,4.0037
818.00,4.3126
817.00,4.7848
816.00,4.8552
815.00,4.6590
814.00,4.5943
813.00,4.3624
812.00,4.1664
811.00,4.0938
810.00,4.0082
809.00,3.9247
808.00,3.9051
807.00,3.9588
806.00,4.1210
805.00,4.5176
804.00,4.9545
803.00,4.8143
802.00,4.6819
801.00,4.2835
800.00,4.0817
799.00,4.0064
798.00,4.0302
797.00,4.1742
796.00,4.3181
795.00,4.6251
794.00,4.6942
793.00,4.3363
792.00,4.3792
791.00,4.1160
790.00,3.8116
789.00,3.6697
788.00,3.6349
787.00,3.7029
786.00,3.9009
785.00,4.2362
784.00,4.3484
783.00,4.2118
782.00,4.1042
781.00,4.1311
780.00,4.4338
779.00,4.6009
778.00,4.2464
777.00,4.1482
776.00,4.1488
775.00,4.1009
774.00,4.0540
773.00,4.0625
772.00,4.0605
771.00,3.9780
770.00,3.9029
769.00,3.8977
768.00,3.9445
767.00,3.9752
766.00,3.9756
765.00,3.9849
764.00,4.0353
763.00,4.1462
762.00,4.4714
761.00,4.9279
760.00,4.3384
759.00,4.0329
758.00,3.8199
757.00,3.7061
756.00,3.6952
755.00,3.7318
754.00,3.7888
753.00,3.8607
752.00,3.9506
751.00,4.0414
750.00,4.1355
749.00,4.2722
748.00,4.2434
747.00,4.0931
746.00,4.0067
745.00,3.9216
744.00,3.8728
743.00,3.9050
742.00,4.0100
741.00,4.1183
740.00,4.1326
739.00,4.1529
738.00,4.2894
737.00,4.3810
736.00,4.2583
735.00,4.1935
734.00,4.2297
733.00,4.2941
732.00,4.2852
731.00,4.2069
730.00,4.1509
729.00,4.1828
728.00,4.2780
727.00,4.4792
726.00,4.7861
725.00,4.4393
724.00,4.3086
723.00,4.3782
722.00,4.2750
721.00,4.1783
720.00,4.2052
719.00,4.2393
718.00,4.2541
717.00,4.3420
716.00,4.5220
715.00,4.6744
714.00,4.8157
713.00,4.8715
712.00,4.5043
711.00,4.2565
710.00,4.1136
709.00,4.0248
708.00,4.0284
707.00,4.0905
706.00,4.0303
705.00,3.9297
704.00,3.9384
703.00,3.9611
702.00,3.8739
701.00,3.7736
700.00,3.7310
