Created as New Dataset,Sample 099 By Administrator Date Wednesday, November 24 2021
cm-1,A
7502.00,0.7727
7501.00,0.7728
7500.00,0.7729
7499.00,0.7731
7498.00,0.7732
7497.00,0.7733
7496.00,0.7734
7495.00,0.7741
7494.00,0.7759
7493.00,0.7784
7492.00,0.7819
7491.00,0.7863
7490.00,0.7916
7489.00,0.7973
7488.00,0.8030
7487.00,0.8084
7486.00,0.8136
7485.00,0.8186
7484.00,0.8239
7483.00,0.8296
7482.00,0.8361
7481.00,0.8433
7480.00,0.8511
7479.00,0.8592
7478.00,0.8674
7477.00,0.8759
7476.00,0.8847
7475.00,0.8933
7474.00,0.9015
7473.00,0.9098
7472.00,0.9186
7471.00,0.9280
7470.00,0.9372
7469.00,0.9459
7468.00,0.9546
7467.00,0.9638
7466.00,0.9735
7465.00,0.9832
7464.00,0.9930
7463.00,1.0029
7462.00,1.0131
7461.00,1.0231
7460.00,1.0323
7459.00,1.0407
7458.00,1.0488
7457.00,1.0568
7456.00,1.0647
7455.00,1.0720
7454.00,1.0789
7453.00,1.0857
7452.00,1.0932
7451.00,1.1010
7450.00,1.1085
7449.00,1.1152
7448.00,1.1214
7447.00,1.1276
7446.00,1.1335
7445.00,1.1386
7444.00,1.1428
7443.00,1.1465
7442.00,1.1499
7441.00,1.1530
7440.00,1.1558
7439.00,1.1583
7438.00,1.1604
7437.00,1.1625
7436.00,1.1647
7435.00,1.1671
7434.00,1.1691
7433.00,1.1706
7432.00,1.1717
7431.00,1.1733
7430.00,1.1755
7429.00,1.1774
7428.00,1.1782
7427.00,1.1784
7426.00,1.1786
7425.00,1.1786
7424.00,1.1774
7423.00,1.1746
7422.00,1.1707
7421.00,1.1660
7420.00,1.1610
7419.00,1.1560
7418.00,1.1514
7417.00,1.1473
7416.00,1.1430
7415.00,1.1378
7414.00,1.1315
7413.00,1.1249
7412.00,1.1183
7411.00,1.1115
7410.00,1.1040
7409.00,1.0961
7408.00,1.0887
7407.00,1.0821
7406.00,1.0759
7405.00,1.0693
7404.00,1.0620
7403.00,1.0536
7402.00,1.0444
7401.00,1.0346
7400.00,1.0247
7399.00,1.0152
7398.00,1.0063
7397.00,0.9978
7396.00,0.9893
7395.00,0.9807
7394.00,0.9719
7393.00,0.9630
7392.00,0.9538
7391.00,0.9443
7390.00,0.9343
7389.00,0.9243
7388.00,0.9148
7387.00,0.9061
7386.00,0.8980
7385.00,0.8903
7384.00,0.8827
7383.00,0.8749
7382.00,0.8671
7381.00,0.8594
7380.00,0.8519
7379.00,0.8445
7378.00,0.8373
7377.00,0.8302
7376.00,0.8234
7375.00,0.8172
7374.00,0.8116
7373.00,0.8065
7372.00,0.8019
7371.00,0.7979
7370.00,0.7945
7369.00,0.7917
7368.00,0.7895
7367.00,0.7880
7366.00,0.7870
7365.00,0.7863
7364.00,0.7860
7363.00,0.7863
7362.00,0.7871
7361.00,0.7883
7360.00,0.7897
7359.00,0.7916
7358.00,0.7943
7357.00,0.7977
7356.00,0.8018
7355.00,0.8064
7354.00,0.8114
7353.00,0.8170
7352.00,0.8231
7351.00,0.8294
7350.00,0.8357
7349.00,0.8417
7348.00,0.8476
7347.00,0.8539
7346.00,0.8607
7345.00,0.8679
7344.00,0.8755
7343.00,0.8835
7342.00,0.8922
7341.00,0.9013
7340.00,0.9104
7339.00,0.9194
7338.00,0.9282
7337.00,0.9366
7336.00,0.9444
7335.00,0.9518
7334.00,0.9591
7333.00,0.9670
7332.00,0.9753
7331.00,0.9835
7330.00,0.9912
7329.00,0.9987
7328.00,1.0063
7327.00,1.0141
7326.00,1.0216
7325.00,1.0286
7324.00,1.0353
7323.00,1.0419
7322.00,1.0486
7321.00,1.0551
7320.00,1.0613
7319.00,1.0669
7318.00,1.0721
7317.00,1.0770
7316.00,1.0821
7315.00,1.0876
7314.00,1.0933
7313.00,1.0985
7312.00,1.1029
7311.00,1.1069
7310.00,1.1104
7309.00,1.1134
7308.00,1.1156
7307.00,1.1173
7306.00,1.1190
7305.00,1.1213
7304.00,1.1241
7303.00,1.1274
7302.00,1.1308
7301.00,1.1340
7300.00,1.1368
7299.00,1.1390
7298.00,1.1405
7297.00,1.1412
7296.00,1.1407
7295.00,1.1389
7294.00,1.1357
7293.00,1.1319
7292.00,1.1280
7291.00,1.1244
7290.00,1.1209
7289.00,1.1174
7288.00,1.1137
7287.00,1.1101
7286.00,1.1065
7285.00,1.1031
7284.00,1.0997
7283.00,1.0963
7282.00,1.0929
7281.00,1.0892
7280.00,1.0851
7279.00,1.0806
7278.00,1.0758
7277.00,1.0706
7276.00,1.0651
7275.00,1.0593
7274.00,1.0533
7273.00,1.0470
7272.00,1.0408
7271.00,1.0346
7270.00,1.0284
7269.00,1.0219
7268.00,1.0146
7267.00,1.0067
7266.00,0.9987
7265.00,0.9908
7264.00,0.9831
7263.00,0.9751
7262.00,0.9669
7261.00,0.9587
7260.00,0.9508
7259.00,0.9432
7258.00,0.9357
7257.00,0.9277
7256.00,0.9191
7255.00,0.9098
7254.00,0.9004
7253.00,0.8911
7252.00,0.8823
7251.00,0.8738
7250.00,0.8658
7249.00,0.8582
7248.00,0.8510
7247.00,0.8441
7246.00,0.8372
7245.00,0.8304
7244.00,0.8238
7243.00,0.8178
7242.00,0.8125
7241.00,0.8076
7240.00,0.8029
7239.00,0.7985
7238.00,0.7947
7237.00,0.7913
7236.00,0.7883
7235.00,0.7857
7234.00,0.7836
7233.00,0.7822
7232.00,0.7814
7231.00,0.7810
7230.00,0.7810
7229.00,0.7814
7228.00,0.7822
7227.00,0.7836
7226.00,0.7858
7225.00,0.7886
7224.00,0.7921
7223.00,0.7961
7222.00,0.8004
7221.00,0.8050
7220.00,0.8100
7219.00,0.8158
7218.00,0.8222
7217.00,0.8291
7216.00,0.8362
7215.00,0.8433
7214.00,0.8505
7213.00,0.8580
7212.00,0.8660
7211.00,0.8745
7210.00,0.8832
7209.00,0.8919
7208.00,0.9007
7207.00,0.9098
7206.00,0.9193
7205.00,0.9290
7204.00,0.9383
7203.00,0.9474
7202.00,0.9565
7201.00,0.9659
7200.00,0.9756
7199.00,0.9851
7198.00,0.9945
7197.00,1.0037
7196.00,1.0129
7195.00,1.0224
7194.00,1.0321
7193.00,1.0419
7192.00,1.0513
7191.00,1.0600
7190.00,1.0679
7189.00,1.0753
7188.00,1.0824
7187.00,1.0895
7186.00,1.0969
7185.00,1.1044
7184.00,1.1120
7183.00,1.1193
7182.00,1.1265
7181.00,1.1338
7180.00,1.1408
7179.00,1.1471
7178.00,1.1526
7177.00,1.1577
7176.00,1.1627
7175.00,1.1677
7174.00,1.1723
7173.00,1.1761
7172.00,1.1792
7171.00,1.1818
7170.00,1.1841
7169.00,1.1863
7168.00,1.1887
7167.00,1.1912
7166.00,1.1937
7165.00,1.1957
7164.00,1.1968
7163.00,1.1970
7162.00,1.1964
7161.00,1.1953
7160.00,1.1940
7159.00,1.1924
7158.00,1.1906
7157.00,1.1888
7156.00,1.1871
7155.00,1.1855
7154.00,1.1834
7153.00,1.1801
7152.00,1.1757
7151.00,1.1706
7150.00,1.1653
7149.00,1.1595
7148.00,1.1532
7147.00,1.1469
7146.00,1.1409
7145.00,1.1350
7144.00,1.1286
7143.00,1.1217
7142.00,1.1144
7141.00,1.1072
7140.00,1.0999
7139.00,1.0925
7138.00,1.0847
7137.00,1.0768
7136.00,1.0688
7135.00,1.0605
7134.00,1.0517
7133.00,1.0422
7132.00,1.0319
7131.00,1.0216
7130.00,1.0118
7129.00,1.0027
7128.00,0.9938
7127.00,0.9847
7126.00,0.9754
7125.00,0.9659
7124.00,0.9564
7123.00,0.9469
7122.00,0.9371
7121.00,0.9272
7120.00,0.9176
7119.00,0.9083
7118.00,0.8993
7117.00,0.8904
7116.00,0.8814
7115.00,0.8724
7114.00,0.8638
7113.00,0.8558
7112.00,0.8482
7111.00,0.8407
7110.00,0.8337
7109.00,0.8274
7108.00,0.8218
7107.00,0.8165
7106.00,0.8115
7105.00,0.8068
7104.00,0.8024
7103.00,0.7984
7102.00,0.7948
7101.00,0.7917
7100.00,0.7889
7099.00,0.7866
7098.00,0.7851
7097.00,0.7846
7096.00,0.7850
7095.00,0.7858
7094.00,0.7869
7093.00,0.7885
7092.00,0.7911
7091.00,0.7944
7090.00,0.7982
7089.00,0.8021
7088.00,0.8066
7087.00,0.8116
7086.00,0.8171
7085.00,0.8229
7084.00,0.8289
7083.00,0.8352
7082.00,0.8421
7081.00,0.8497
7080.00,0.8579
7079.00,0.8664
7078.00,0.8750
7077.00,0.8834
7076.00,0.8918
7075.00,0.9001
7074.00,0.9085
7073.00,0.9172
7072.00,0.9260
7071.00,0.9350
7070.00,0.9443
7069.00,0.9538
7068.00,0.9635
7067.00,0.9733
7066.00,0.9831
7065.00,0.9927
7064.00,1.0021
7063.00,1.0111
7062.00,1.0200
7061.00,1.0288
7060.00,1.0374
7059.00,1.0459
7058.00,1.0543
7057.00,1.0628
7056.00,1.0714
7055.00,1.0800
7054.00,1.0882
7053.00,1.0959
7052.00,1.1030
7051.00,1.1098
7050.00,1.1164
7049.00,1.1231
7048.00,1.1298
7047.00,1.1363
7046.00,1.1423
7045.00,1.1475
7044.00,1.1521
7043.00,1.1564
7042.00,1.1604
7041.00,1.1640
7040.00,1.1675
7039.00,1.1711
7038.00,1.1751
7037.00,1.1790
7036.00,1.1822
7035.00,1.1846
7034.00,1.1863
7033.00,1.1876
7032.00,1.1883
7031.00,1.1884
7030.00,1.1884
7029.00,1.1881
7028.00,1.1873
7027.00,1.1857
7026.00,1.1837
7025.00,1.1813
7024.00,1.1788
7023.00,1.1762
7022.00,1.1736
7021.00,1.1711
7020.00,1.1685
7019.00,1.1655
7018.00,1.1623
7017.00,1.1586
7016.00,1.1544
7015.00,1.1497
7014.00,1.1444
7013.00,1.1389
7012.00,1.1333
7011.00,1.1276
7010.00,1.1217
7009.00,1.1153
7008.00,1.1083
7007.00,1.1008
7006.00,1.0930
7005.00,1.0849
7004.00,1.0764
7003.00,1.0676
7002.00,1.0585
7001.00,1.0496
7000.00,1.0406
6999.00,1.0316
6998.00,1.0222
6997.00,1.0125
6996.00,1.0028
6995.00,0.9930
6994.00,0.9834
6993.00,0.9740
6992.00,0.9648
6991.00,0.9555
6990.00,0.9460
6989.00,0.9364
6988.00,0.9270
6987.00,0.9175
6986.00,0.9080
6985.00,0.8984
6984.00,0.8888
6983.00,0.8795
6982.00,0.8707
6981.00,0.8623
6980.00,0.8540
6979.00,0.8456
6978.00,0.8377
6977.00,0.8305
6976.00,0.8239
6975.00,0.8177
6974.00,0.8116
6973.00,0.8059
6972.00,0.8009
6971.00,0.7964
6970.00,0.7925
6969.00,0.7889
6968.00,0.7857
6967.00,0.7830
6966.00,0.7808
6965.00,0.7793
6964.00,0.7784
6963.00,0.7781
6962.00,0.7784
6961.00,0.7795
6960.00,0.7813
6959.00,0.7837
6958.00,0.7865
6957.00,0.7898
6956.00,0.7934
6955.00,0.7973
6954.00,0.8016
6953.00,0.8066
6952.00,0.8123
6951.00,0.8186
6950.00,0.8252
6949.00,0.8321
6948.00,0.8394
6947.00,0.8472
6946.00,0.8554
6945.00,0.8638
6944.00,0.8724
6943.00,0.8814
6942.00,0.8907
6941.00,0.9004
6940.00,0.9103
6939.00,0.9203
6938.00,0.9302
6937.00,0.9399
6936.00,0.9494
6935.00,0.9589
6934.00,0.9686
6933.00,0.9786
6932.00,0.9886
6931.00,0.9985
6930.00,1.0082
6929.00,1.0180
6928.00,1.0277
6927.00,1.0374
6926.00,1.0469
6925.00,1.0564
6924.00,1.0659
6923.00,1.0751
6922.00,1.0842
6921.00,1.0931
6920.00,1.1017
6919.00,1.1096
6918.00,1.1169
6917.00,1.1242
6916.00,1.1318
6915.00,1.1395
6914.00,1.1469
6913.00,1.1537
6912.00,1.1597
6911.00,1.1653
6910.00,1.1708
6909.00,1.1759
6908.00,1.1808
6907.00,1.1855
6906.00,1.1901
6905.00,1.1945
6904.00,1.1983
6903.00,1.2014
6902.00,1.2039
6901.00,1.2059
6900.00,1.2075
6899.00,1.2086
6898.00,1.2092
6897.00,1.2096
6896.00,1.2097
6895.00,1.2097
6894.00,1.2097
6893.00,1.2095
6892.00,1.2090
6891.00,1.2077
6890.00,1.2059
6889.00,1.2037
6888.00,1.2011
6887.00,1.1979
6886.00,1.1940
6885.00,1.1896
6884.00,1.1852
6883.00,1.1810
6882.00,1.1767
6881.00,1.1720
6880.00,1.1668
6879.00,1.1612
6878.00,1.1551
6877.00,1.1483
6876.00,1.1409
6875.00,1.1331
6874.00,1.1252
6873.00,1.1173
6872.00,1.1092
6871.00,1.1009
6870.00,1.0926
6869.00,1.0843
6868.00,1.0756
6867.00,1.0665
6866.00,1.0571
6865.00,1.0476
6864.00,1.0381
6863.00,1.0282
6862.00,1.0180
6861.00,1.0077
6860.00,0.9975
6859.00,0.9873
6858.00,0.9772
6857.00,0.9669
6856.00,0.9565
6855.00,0.9462
6854.00,0.9361
6853.00,0.9262
6852.00,0.9163
6851.00,0.9066
6850.00,0.8970
6849.00,0.8879
6848.00,0.8790
6847.00,0.8702
6846.00,0.8613
6845.00,0.8527
6844.00,0.8446
6843.00,0.8369
6842.00,0.8296
6841.00,0.8228
6840.00,0.8163
6839.00,0.8103
6838.00,0.8048
6837.00,0.7999
6836.00,0.7955
6835.00,0.7914
6834.00,0.7879
6833.00,0.7852
6832.00,0.7832
6831.00,0.7819
6830.00,0.7810
6829.00,0.7808
6828.00,0.7813
6827.00,0.7823
6826.00,0.7838
6825.00,0.7860
6824.00,0.7887
6823.00,0.7922
6822.00,0.7963
6821.00,0.8009
6820.00,0.8060
6819.00,0.8114
6818.00,0.8174
6817.00,0.8238
6816.00,0.8305
6815.00,0.8375
6814.00,0.8449
6813.00,0.8528
6812.00,0.8612
6811.00,0.8699
6810.00,0.8788
6809.00,0.8879
6808.00,0.8973
6807.00,0.9068
6806.00,0.9166
6805.00,0.9265
6804.00,0.9366
6803.00,0.9467
6802.00,0.9570
6801.00,0.9672
6800.00,0.9776
6799.00,0.9879
6798.00,0.9980
6797.00,1.0076
6796.00,1.0169
6795.00,1.0262
6794.00,1.0358
6793.00,1.0458
6792.00,1.0557
6791.00,1.0654
6790.00,1.0747
6789.00,1.0838
6788.00,1.0925
6787.00,1.1008
6786.00,1.1087
6785.00,1.1164
6784.00,1.1241
6783.00,1.1317
6782.00,1.1391
6781.00,1.1461
6780.00,1.1528
6779.00,1.1591
6778.00,1.1652
6777.00,1.1708
6776.00,1.1758
6775.00,1.1802
6774.00,1.1842
6773.00,1.1879
6772.00,1.1912
6771.00,1.1943
6770.00,1.1970
6769.00,1.1996
6768.00,1.2020
6767.00,1.2043
6766.00,1.2064
6765.00,1.2077
6764.00,1.2081
6763.00,1.2076
6762.00,1.2070
6761.00,1.2063
6760.00,1.2051
6759.00,1.2032
6758.00,1.2009
6757.00,1.1987
6756.00,1.1966
6755.00,1.1940
6754.00,1.1906
6753.00,1.1866
6752.00,1.1823
6751.00,1.1779
6750.00,1.1735
6749.00,1.1691
6748.00,1.1645
6747.00,1.1595
6746.00,1.1540
6745.00,1.1478
6744.00,1.1411
6743.00,1.1340
6742.00,1.1269
6741.00,1.1198
6740.00,1.1125
6739.00,1.1047
6738.00,1.0962
6737.00,1.0875
6736.00,1.0788
6735.00,1.0699
6734.00,1.0607
6733.00,1.0513
6732.00,1.0420
6731.00,1.0328
6730.00,1.0234
6729.00,1.0137
6728.00,1.0036
6727.00,0.9934
6726.00,0.9831
6725.00,0.9729
6724.00,0.9627
6723.00,0.9525
6722.00,0.9421
6721.00,0.9318
6720.00,0.9217
6719.00,0.9117
6718.00,0.9021
6717.00,0.8927
6716.00,0.8836
6715.00,0.8745
6714.00,0.8655
6713.00,0.8567
6712.00,0.8481
6711.00,0.8397
6710.00,0.8317
6709.00,0.8239
6708.00,0.8166
6707.00,0.8097
6706.00,0.8034
6705.00,0.7977
6704.00,0.7925
6703.00,0.7878
6702.00,0.7838
6701.00,0.7805
6700.00,0.7779
6699.00,0.7758
6698.00,0.7742
6697.00,0.7731
6696.00,0.7724
6695.00,0.7723
6694.00,0.7729
6693.00,0.7740
6692.00,0.7759
6691.00,0.7785
6690.00,0.7817
6689.00,0.7855
6688.00,0.7897
6687.00,0.7944
6686.00,0.7997
6685.00,0.8056
6684.00,0.8119
6683.00,0.8187
6682.00,0.8260
6681.00,0.8338
6680.00,0.8421
6679.00,0.8506
6678.00,0.8595
6677.00,0.8686
6676.00,0.8781
6675.00,0.8879
6674.00,0.8980
6673.00,0.9082
6672.00,0.9183
6671.00,0.9284
6670.00,0.9386
6669.00,0.9489
6668.00,0.9591
6667.00,0.9691
6666.00,0.9791
6665.00,0.9894
6664.00,1.0001
6663.00,1.0107
6662.00,1.0210
6661.00,1.0310
6660.00,1.0410
6659.00,1.0511
6658.00,1.0613
6657.00,1.0712
6656.00,1.0810
6655.00,1.0909
6654.00,1.1008
6653.00,1.1104
6652.00,1.1195
6651.00,1.1279
6650.00,1.1360
6649.00,1.1440
6648.00,1.1516
6647.00,1.1588
6646.00,1.1657
6645.00,1.1726
6644.00,1.1793
6643.00,1.1855
6642.00,1.1914
6641.00,1.1971
6640.00,1.2026
6639.00,1.2076
6638.00,1.2118
6637.00,1.2153
6636.00,1.2184
6635.00,1.2211
6634.00,1.2236
6633.00,1.2257
6632.00,1.2276
6631.00,1.2291
6630.00,1.2301
6629.00,1.2307
6628.00,1.2311
6627.00,1.2315
6626.00,1.2315
6625.00,1.2308
6624.00,1.2296
6623.00,1.2280
6622.00,1.2262
6621.00,1.2239
6620.00,1.2209
6619.00,1.2169
6618.00,1.2128
6617.00,1.2088
6616.00,1.2049
6615.00,1.2006
6614.00,1.1956
6613.00,1.1903
6612.00,1.1846
6611.00,1.1786
6610.00,1.1720
6609.00,1.1647
6608.00,1.1571
6607.00,1.1490
6606.00,1.1408
6605.00,1.1326
6604.00,1.1242
6603.00,1.1156
6602.00,1.1068
6601.00,1.0976
6600.00,1.0880
6599.00,1.0781
6598.00,1.0680
6597.00,1.0577
6596.00,1.0472
6595.00,1.0364
6594.00,1.0255
6593.00,1.0145
6592.00,1.0036
6591.00,0.9927
6590.00,0.9817
6589.00,0.9709
6588.00,0.9601
6587.00,0.9494
6586.00,0.9386
6585.00,0.9278
6584.00,0.9170
6583.00,0.9063
6582.00,0.8959
6581.00,0.8859
6580.00,0.8765
6579.00,0.8674
6578.00,0.8586
6577.00,0.8499
6576.00,0.8415
6575.00,0.8333
6574.00,0.8254
6573.00,0.8179
6572.00,0.8109
6571.00,0.8045
6570.00,0.7988
6569.00,0.7938
6568.00,0.7894
6567.00,0.7856
6566.00,0.7824
6565.00,0.7798
6564.00,0.7780
6563.00,0.7767
6562.00,0.7760
6561.00,0.7760
6560.00,0.7767
6559.00,0.7781
6558.00,0.7803
6557.00,0.7831
6556.00,0.7864
6555.00,0.7904
6554.00,0.7949
6553.00,0.8000
6552.00,0.8057
6551.00,0.8119
6550.00,0.8186
6549.00,0.8260
6548.00,0.8338
6547.00,0.8418
6546.00,0.8500
6545.00,0.8584
6544.00,0.8669
6543.00,0.8757
6542.00,0.8847
6541.00,0.8944
6540.00,0.9044
6539.00,0.9146
6538.00,0.9249
6537.00,0.9354
6536.00,0.9461
6535.00,0.9567
6534.00,0.9671
6533.00,0.9774
6532.00,0.9879
6531.00,0.9985
6530.00,1.0091
6529.00,1.0194
6528.00,1.0297
6527.00,1.0401
6526.00,1.0506
6525.00,1.0609
6524.00,1.0709
6523.00,1.0806
6522.00,1.0901
6521.00,1.0992
6520.00,1.1081
6519.00,1.1167
6518.00,1.1251
6517.00,1.1332
6516.00,1.1411
6515.00,1.1486
6514.00,1.1558
6513.00,1.1627
6512.00,1.1693
6511.00,1.1754
6510.00,1.1811
6509.00,1.1866
6508.00,1.1920
6507.00,1.1972
6506.00,1.2019
6505.00,1.2058
6504.00,1.2093
6503.00,1.2125
6502.00,1.2155
6501.00,1.2180
6500.00,1.2201
6499.00,1.2220
6498.00,1.2238
6497.00,1.2253
6496.00,1.2258
6495.00,1.2249
6494.00,1.2233
6493.00,1.2218
6492.00,1.2203
6491.00,1.2184
6490.00,1.2162
6489.00,1.2139
6488.00,1.2117
6487.00,1.2092
6486.00,1.2061
6485.00,1.2026
6484.00,1.1989
6483.00,1.1950
6482.00,1.1907
6481.00,1.1860
6480.00,1.1809
6479.00,1.1754
6478.00,1.1693
6477.00,1.1628
6476.00,1.1559
6475.00,1.1487
6474.00,1.1410
6473.00,1.1330
6472.00,1.1249
6471.00,1.1169
6470.00,1.1090
6469.00,1.1008
6468.00,1.0920
6467.00,1.0829
6466.00,1.0734
6465.00,1.0637
6464.00,1.0537
6463.00,1.0436
6462.00,1.0333
6461.00,1.0228
6460.00,1.0122
6459.00,1.0013
6458.00,0.9903
6457.00,0.9793
6456.00,0.9685
6455.00,0.9580
6454.00,0.9476
6453.00,0.9374
6452.00,0.9270
6451.00,0.9167
6450.00,0.9064
6449.00,0.8962
6448.00,0.8861
6447.00,0.8762
6446.00,0.8664
6445.00,0.8570
6444.00,0.8479
6443.00,0.8392
6442.00,0.8309
6441.00,0.8231
6440.00,0.8156
6439.00,0.8086
6438.00,0.8021
6437.00,0.7962
6436.00,0.7908
6435.00,0.7859
6434.00,0.7815
6433.00,0.7778
6432.00,0.7746
6431.00,0.7721
6430.00,0.7703
6429.00,0.7693
6428.00,0.7692
6427.00,0.7699
6426.00,0.7713
6425.00,0.7733
6424.00,0.7757
6423.00,0.7786
6422.00,0.7821
6421.00,0.7861
6420.00,0.7909
6419.00,0.7964
6418.00,0.8026
6417.00,0.8094
6416.00,0.8166
6415.00,0.8242
6414.00,0.8321
6413.00,0.8405
6412.00,0.8493
6411.00,0.8583
6410.00,0.8677
6409.00,0.8774
6408.00,0.8878
6407.00,0.8984
6406.00,0.9092
6405.00,0.9198
6404.00,0.9305
6403.00,0.9415
6402.00,0.9526
6401.00,0.9638
6400.00,0.9749
6399.00,0.9860
6398.00,0.9974
6397.00,1.0088
6396.00,1.0200
6395.00,1.0308
6394.00,1.0416
6393.00,1.0526
6392.00,1.0636
6391.00,1.0744
6390.00,1.0849
6389.00,1.0952
6388.00,1.1053
6387.00,1.1152
6386.00,1.1247
6385.00,1.1339
6384.00,1.1430
6383.00,1.1516
6382.00,1.1599
6381.00,1.1679
6380.00,1.1757
6379.00,1.1832
6378.00,1.1904
6377.00,1.1972
6376.00,1.2035
6375.00,1.2094
6374.00,1.2148
6373.00,1.2197
6372.00,1.2244
6371.00,1.2291
6370.00,1.2339
6369.00,1.2384
6368.00,1.2424
6367.00,1.2460
6366.00,1.2490
6365.00,1.2515
6364.00,1.2533
6363.00,1.2542
6362.00,1.2545
6361.00,1.2544
6360.00,1.2541
6359.00,1.2535
6358.00,1.2526
6357.00,1.2516
6356.00,1.2504
6355.00,1.2487
6354.00,1.2465
6353.00,1.2437
6352.00,1.2406
6351.00,1.2370
6350.00,1.2330
6349.00,1.2285
6348.00,1.2237
6347.00,1.2188
6346.00,1.2136
6345.00,1.2081
6344.00,1.2023
6343.00,1.1960
6342.00,1.1891
6341.00,1.1815
6340.00,1.1733
6339.00,1.1648
6338.00,1.1561
6337.00,1.1474
6336.00,1.1385
6335.00,1.1293
6334.00,1.1197
6333.00,1.1095
6332.00,1.0992
6331.00,1.0887
6330.00,1.0779
6329.00,1.0668
6328.00,1.0556
6327.00,1.0444
6326.00,1.0330
6325.00,1.0213
6324.00,1.0093
6323.00,0.9975
6322.00,0.9858
6321.00,0.9742
6320.00,0.9624
6319.00,0.9508
6318.00,0.9394
6317.00,0.9282
6316.00,0.9171
6315.00,0.9061
6314.00,0.8954
6313.00,0.8848
6312.00,0.8743
6311.00,0.8640
6310.00,0.8541
6309.00,0.8448
6308.00,0.8358
6307.00,0.8273
6306.00,0.8194
6305.00,0.8121
6304.00,0.8054
6303.00,0.7991
6302.00,0.7934
6301.00,0.7883
6300.00,0.7839
6299.00,0.7801
6298.00,0.7770
6297.00,0.7746
6296.00,0.7729
6295.00,0.7720
6294.00,0.7718
6293.00,0.7722
6292.00,0.7732
6291.00,0.7749
6290.00,0.7774
6289.00,0.7808
6288.00,0.7848
6287.00,0.7894
6286.00,0.7947
6285.00,0.8005
6284.00,0.8067
6283.00,0.8134
6282.00,0.8207
6281.00,0.8287
6280.00,0.8371
6279.00,0.8460
6278.00,0.8553
6277.00,0.8650
6276.00,0.8749
6275.00,0.8848
6274.00,0.8948
6273.00,0.9051
6272.00,0.9158
6271.00,0.9267
6270.00,0.9377
6269.00,0.9488
6268.00,0.9601
6267.00,0.9714
6266.00,0.9829
6265.00,0.9942
6264.00,1.0052
6263.00,1.0161
6262.00,1.0273
6261.00,1.0387
6260.00,1.0499
6259.00,1.0607
6258.00,1.0712
6257.00,1.0816
6256.00,1.0920
6255.00,1.1023
6254.00,1.1122
6253.00,1.1218
6252.00,1.1313
6251.00,1.1406
6250.00,1.1493
6249.00,1.1573
6248.00,1.1647
6247.00,1.1720
6246.00,1.1792
6245.00,1.1863
6244.00,1.1931
6243.00,1.1996
6242.00,1.2058
6241.00,1.2115
6240.00,1.2164
6239.00,1.2209
6238.00,1.2252
6237.00,1.2290
6236.00,1.2320
6235.00,1.2344
6234.00,1.2366
6233.00,1.2388
6232.00,1.2407
6231.00,1.2423
6230.00,1.2436
6229.00,1.2447
6228.00,1.2455
6227.00,1.2458
6226.00,1.2453
6225.00,1.2442
6224.00,1.2428
6223.00,1.2414
6222.00,1.2399
6221.00,1.2382
6220.00,1.2362
6219.00,1.2339
6218.00,1.2312
6217.00,1.2279
6216.00,1.2237
6215.00,1.2187
6214.00,1.2132
6213.00,1.2074
6212.00,1.2013
6211.00,1.1950
6210.00,1.1887
6209.00,1.1825
6208.00,1.1762
6207.00,1.1696
6206.00,1.1624
6205.00,1.1546
6204.00,1.1460
6203.00,1.1367
6202.00,1.1272
6201.00,1.1176
6200.00,1.1079
6199.00,1.0982
6198.00,1.0885
6197.00,1.0787
6196.00,1.0685
6195.00,1.0579
6194.00,1.0471
6193.00,1.0363
6192.00,1.0253
6191.00,1.0141
6190.00,1.0025
6189.00,0.9906
6188.00,0.9786
6187.00,0.9666
6186.00,0.9546
6185.00,0.9430
6184.00,0.9316
6183.00,0.9204
6182.00,0.9094
6181.00,0.8986
6180.00,0.8878
6179.00,0.8771
6178.00,0.8666
6177.00,0.8566
6176.00,0.8471
6175.00,0.8378
6174.00,0.8289
6173.00,0.8205
6172.00,0.8126
6171.00,0.8052
6170.00,0.7984
6169.00,0.7923
6168.00,0.7869
6167.00,0.7821
6166.00,0.7779
6165.00,0.7743
6164.00,0.7714
6163.00,0.7692
6162.00,0.7678
6161.00,0.7672
6160.00,0.7672
6159.00,0.7680
6158.00,0.7696
6157.00,0.7719
6156.00,0.7749
6155.00,0.7786
6154.00,0.7830
6153.00,0.7882
6152.00,0.7942
6151.00,0.8007
6150.00,0.8077
6149.00,0.8153
6148.00,0.8234
6147.00,0.8318
6146.00,0.8405
6145.00,0.8496
6144.00,0.8592
6143.00,0.8694
6142.00,0.8801
6141.00,0.8911
6140.00,0.9022
6139.00,0.9134
6138.00,0.9248
6137.00,0.9363
6136.00,0.9481
6135.00,0.9599
6134.00,0.9718
6133.00,0.9838
6132.00,0.9956
6131.00,1.0072
6130.00,1.0188
6129.00,1.0302
6128.00,1.0416
6127.00,1.0532
6126.00,1.0647
6125.00,1.0764
6124.00,1.0880
6123.00,1.0993
6122.00,1.1103
6121.00,1.1209
6120.00,1.1311
6119.00,1.1409
6118.00,1.1505
6117.00,1.1598
6116.00,1.1689
6115.00,1.1778
6114.00,1.1866
6113.00,1.1951
6112.00,1.2033
6111.00,1.2114
6110.00,1.2193
6109.00,1.2268
6108.00,1.2336
6107.00,1.2397
6106.00,1.2451
6105.00,1.2500
6104.00,1.2544
6103.00,1.2586
6102.00,1.2626
6101.00,1.2662
6100.00,1.2694
6099.00,1.2724
6098.00,1.2749
6097.00,1.2768
6096.00,1.2781
6095.00,1.2788
6094.00,1.2793
6093.00,1.2795
6092.00,1.2793
6091.00,1.2785
6090.00,1.2774
6089.00,1.2758
6088.00,1.2737
6087.00,1.2710
6086.00,1.2676
6085.00,1.2637
6084.00,1.2599
6083.00,1.2561
6082.00,1.2524
6081.00,1.2484
6080.00,1.2439
6079.00,1.2388
6078.00,1.2331
6077.00,1.2267
6076.00,1.2195
6075.00,1.2118
6074.00,1.2038
6073.00,1.1956
6072.00,1.1873
6071.00,1.1787
6070.00,1.1697
6069.00,1.1601
6068.00,1.1500
6067.00,1.1395
6066.00,1.1291
6065.00,1.1186
6064.00,1.1079
6063.00,1.0968
6062.00,1.0856
6061.00,1.0742
6060.00,1.0625
6059.00,1.0504
6058.00,1.0380
6057.00,1.0255
6056.00,1.0130
6055.00,1.0005
6054.00,0.9878
6053.00,0.9751
6052.00,0.9624
6051.00,0.9498
6050.00,0.9375
6049.00,0.9253
6048.00,0.9134
6047.00,0.9016
6046.00,0.8900
6045.00,0.8787
6044.00,0.8677
6043.00,0.8571
6042.00,0.8469
6041.00,0.8371
6040.00,0.8278
6039.00,0.8189
6038.00,0.8107
6037.00,0.8032
6036.00,0.7963
6035.00,0.7900
6034.00,0.7844
6033.00,0.7795
6032.00,0.7753
6031.00,0.7716
6030.00,0.7686
6029.00,0.7664
6028.00,0.7650
6027.00,0.7644
6026.00,0.7645
6025.00,0.7655
6024.00,0.7673
6023.00,0.7698
6022.00,0.7730
6021.00,0.7769
6020.00,0.7814
6019.00,0.7866
6018.00,0.7926
6017.00,0.7993
6016.00,0.8067
6015.00,0.8147
6014.00,0.8235
6013.00,0.8327
6012.00,0.8422
6011.00,0.8521
6010.00,0.8621
6009.00,0.8724
6008.00,0.8829
6007.00,0.8936
6006.00,0.9047
6005.00,0.9162
6004.00,0.9280
6003.00,0.9401
6002.00,0.9526
6001.00,0.9653
6000.00,0.9780
5999.00,0.9906
5998.00,1.0031
5997.00,1.0155
5996.00,1.0276
5995.00,1.0396
5994.00,1.0515
5993.00,1.0634
5992.00,1.0755
5991.00,1.0874
5990.00,1.0992
5989.00,1.1107
5988.00,1.1220
5987.00,1.1330
5986.00,1.1440
5985.00,1.1549
5984.00,1.1656
5983.00,1.1760
5982.00,1.1859
5981.00,1.1954
5980.00,1.2043
5979.00,1.2126
5978.00,1.2205
5977.00,1.2283
5976.00,1.2360
5975.00,1.2434
5974.00,1.2503
5973.00,1.2567
5972.00,1.2625
5971.00,1.2678
5970.00,1.2727
5969.00,1.2773
5968.00,1.2814
5967.00,1.2851
5966.00,1.2885
5965.00,1.2913
5964.00,1.2935
5963.00,1.2951
5962.00,1.2965
5961.00,1.2979
5960.00,1.2990
5959.00,1.2996
5958.00,1.2997
5957.00,1.2994
5956.00,1.2985
5955.00,1.2971
5954.00,1.2951
5953.00,1.2924
5952.00,1.2893
5951.00,1.2858
5950.00,1.2820
5949.00,1.2778
5948.00,1.2732
5947.00,1.2683
5946.00,1.2629
5945.00,1.2569
5944.00,1.2502
5943.00,1.2430
5942.00,1.2356
5941.00,1.2282
5940.00,1.2206
5939.00,1.2127
5938.00,1.2044
5937.00,1.1955
5936.00,1.1858
5935.00,1.1755
5934.00,1.1648
5933.00,1.1540
5932.00,1.1429
5931.00,1.1317
5930.00,1.1203
5929.00,1.1087
5928.00,1.0968
5927.00,1.0845
5926.00,1.0719
5925.00,1.0592
5924.00,1.0466
5923.00,1.0340
5922.00,1.0213
5921.00,1.0086
5920.00,0.9956
5919.00,0.9826
5918.00,0.9696
5917.00,0.9568
5916.00,0.9440
5915.00,0.9316
5914.00,0.9196
5913.00,0.9079
5912.00,0.8965
5911.00,0.8851
5910.00,0.8741
5909.00,0.8635
5908.00,0.8532
5907.00,0.8433
5906.00,0.8338
5905.00,0.8250
5904.00,0.8169
5903.00,0.8094
5902.00,0.8027
5901.00,0.7968
5900.00,0.7916
5899.00,0.7872
5898.00,0.7835
5897.00,0.7805
5896.00,0.7783
5895.00,0.7768
5894.00,0.7761
5893.00,0.7763
5892.00,0.7773
5891.00,0.7790
5890.00,0.7816
5889.00,0.7851
5888.00,0.7893
5887.00,0.7940
5886.00,0.7994
5885.00,0.8055
5884.00,0.8124
5883.00,0.8199
5882.00,0.8282
5881.00,0.8371
5880.00,0.8466
5879.00,0.8565
5878.00,0.8665
5877.00,0.8768
5876.00,0.8874
5875.00,0.8985
5874.00,0.9100
5873.00,0.9218
5872.00,0.9339
5871.00,0.9462
5870.00,0.9586
5869.00,0.9711
5868.00,0.9836
5867.00,0.9961
5866.00,1.0088
5865.00,1.0215
5864.00,1.0341
5863.00,1.0464
5862.00,1.0587
5861.00,1.0711
5860.00,1.0834
5859.00,1.0958
5858.00,1.1081
5857.00,1.1203
5856.00,1.1321
5855.00,1.1434
5854.00,1.1543
5853.00,1.1649
5852.00,1.1752
5851.00,1.1852
5850.00,1.1950
5849.00,1.2046
5848.00,1.2141
5847.00,1.2234
5846.00,1.2323
5845.00,1.2410
5844.00,1.2492
5843.00,1.2571
5842.00,1.2644
5841.00,1.2711
5840.00,1.2771
5839.00,1.2827
5838.00,1.2880
5837.00,1.2930
5836.00,1.2975
5835.00,1.3017
5834.00,1.3056
5833.00,1.3093
5832.00,1.3125
5831.00,1.3152
5830.00,1.3176
5829.00,1.3195
5828.00,1.3210
5827.00,1.3220
5826.00,1.3224
5825.00,1.3223
5824.00,1.3217
5823.00,1.3205
5822.00,1.3190
5821.00,1.3172
5820.00,1.3150
5819.00,1.3126
5818.00,1.3101
5817.00,1.3073
5816.00,1.3042
5815.00,1.3002
5814.00,1.2955
5813.00,1.2901
5812.00,1.2840
5811.00,1.2773
5810.00,1.2702
5809.00,1.2627
5808.00,1.2551
5807.00,1.2473
5806.00,1.2394
5805.00,1.2312
5804.00,1.2227
5803.00,1.2137
5802.00,1.2043
5801.00,1.1945
5800.00,1.1842
5799.00,1.1736
5798.00,1.1628
5797.00,1.1518
5796.00,1.1405
5795.00,1.1286
5794.00,1.1161
5793.00,1.1031
5792.00,1.0899
5791.00,1.0767
5790.00,1.0634
5789.00,1.0502
5788.00,1.0369
5787.00,1.0237
5786.00,1.0105
5785.00,0.9972
5784.00,0.9838
5783.00,0.9704
5782.00,0.9571
5781.00,0.9439
5780.00,0.9310
5779.00,0.9183
5778.00,0.9059
5777.00,0.8939
5776.00,0.8824
5775.00,0.8712
5774.00,0.8604
5773.00,0.8501
5772.00,0.8402
5771.00,0.8308
5770.00,0.8221
5769.00,0.8141
5768.00,0.8069
5767.00,0.8006
5766.00,0.7950
5765.00,0.7903
5764.00,0.7863
5763.00,0.7830
5762.00,0.7805
5761.00,0.7789
5760.00,0.7783
5759.00,0.7786
5758.00,0.7797
5757.00,0.7816
5756.00,0.7842
5755.00,0.7874
5754.00,0.7915
5753.00,0.7965
5752.00,0.8023
5751.00,0.8089
5750.00,0.8161
5749.00,0.8241
5748.00,0.8326
5747.00,0.8416
5746.00,0.8511
5745.00,0.8612
5744.00,0.8718
5743.00,0.8828
5742.00,0.8940
5741.00,0.9055
5740.00,0.9173
5739.00,0.9292
5738.00,0.9415
5737.00,0.9539
5736.00,0.9664
5735.00,0.9791
5734.00,0.9919
5733.00,1.0049
5732.00,1.0179
5731.00,1.0309
5730.00,1.0437
5729.00,1.0564
5728.00,1.0690
5727.00,1.0816
5726.00,1.0942
5725.00,1.1068
5724.00,1.1193
5723.00,1.1315
5722.00,1.1431
5721.00,1.1544
5720.00,1.1655
5719.00,1.1766
5718.00,1.1876
5717.00,1.1984
5716.00,1.2089
5715.00,1.2190
5714.00,1.2284
5713.00,1.2374
5712.00,1.2460
5711.00,1.2544
5710.00,1.2624
5709.00,1.2701
5708.00,1.2773
5707.00,1.2840
5706.00,1.2903
5705.00,1.2962
5704.00,1.3019
5703.00,1.3073
5702.00,1.3121
5701.00,1.3162
5700.00,1.3198
5699.00,1.3228
5698.00,1.3255
5697.00,1.3277
5696.00,1.3297
5695.00,1.3314
5694.00,1.3328
5693.00,1.3338
5692.00,1.3345
5691.00,1.3348
5690.00,1.3347
5689.00,1.3340
5688.00,1.3325
5687.00,1.3303
5686.00,1.3277
5685.00,1.3247
5684.00,1.3215
5683.00,1.3179
5682.00,1.3138
5681.00,1.3093
5680.00,1.3043
5679.00,1.2990
5678.00,1.2934
5677.00,1.2874
5676.00,1.2811
5675.00,1.2743
5674.00,1.2672
5673.00,1.2598
5672.00,1.2519
5671.00,1.2434
5670.00,1.2343
5669.00,1.2247
5668.00,1.2147
5667.00,1.2042
5666.00,1.1934
5665.00,1.1823
5664.00,1.1709
5663.00,1.1593
5662.00,1.1473
5661.00,1.1350
5660.00,1.1225
5659.00,1.1098
5658.00,1.0969
5657.00,1.0838
5656.00,1.0706
5655.00,1.0571
5654.00,1.0434
5653.00,1.0295
5652.00,1.0156
5651.00,1.0017
5650.00,0.9878
5649.00,0.9740
5648.00,0.9604
5647.00,0.9468
5646.00,0.9334
5645.00,0.9202
5644.00,0.9073
5643.00,0.8948
5642.00,0.8826
5641.00,0.8708
5640.00,0.8596
5639.00,0.8488
5638.00,0.8386
5637.00,0.8290
5636.00,0.8199
5635.00,0.8114
5634.00,0.8036
5633.00,0.7965
5632.00,0.7902
5631.00,0.7848
5630.00,0.7803
5629.00,0.7766
5628.00,0.7737
5627.00,0.7716
5626.00,0.7705
5625.00,0.7702
5624.00,0.7709
5623.00,0.7726
5622.00,0.7752
5621.00,0.7786
5620.00,0.7829
5619.00,0.7879
5618.00,0.7937
5617.00,0.8003
5616.00,0.8076
5615.00,0.8155
5614.00,0.8242
5613.00,0.8334
5612.00,0.8432
5611.00,0.8536
5610.00,0.8644
5609.00,0.8757
5608.00,0.8873
5607.00,0.8992
5606.00,0.9113
5605.00,0.9237
5604.00,0.9364
5603.00,0.9493
5602.00,0.9625
5601.00,0.9759
5600.00,0.9893
5599.00,1.0028
5598.00,1.0162
5597.00,1.0298
5596.00,1.0433
5595.00,1.0568
5594.00,1.0700
5593.00,1.0831
5592.00,1.0959
5591.00,1.1086
5590.00,1.1209
5589.00,1.1329
5588.00,1.1445
5587.00,1.1558
5586.00,1.1669
5585.00,1.1779
5584.00,1.1888
5583.00,1.1994
5582.00,1.2096
5581.00,1.2192
5580.00,1.2282
5579.00,1.2365
5578.00,1.2443
5577.00,1.2518
5576.00,1.2589
5575.00,1.2656
5574.00,1.2719
5573.00,1.2780
5572.00,1.2838
5571.00,1.2893
5570.00,1.2947
5569.00,1.2999
5568.00,1.3048
5567.00,1.3091
5566.00,1.3126
5565.00,1.3153
5564.00,1.3175
5563.00,1.3193
5562.00,1.3213
5561.00,1.3235
5560.00,1.3258
5559.00,1.3279
5558.00,1.3296
5557.00,1.3303
5556.00,1.3301
5555.00,1.3291
5554.00,1.3278
5553.00,1.3264
5552.00,1.3248
5551.00,1.3228
5550.00,1.3203
5549.00,1.3174
5548.00,1.3139
5547.00,1.3098
5546.00,1.3053
5545.00,1.3005
5544.00,1.2954
5543.00,1.2897
5542.00,1.2835
5541.00,1.2769
5540.00,1.2698
5539.00,1.2624
5538.00,1.2545
5537.00,1.2463
5536.00,1.2376
5535.00,1.2283
5534.00,1.2185
5533.00,1.2082
5532.00,1.1977
5531.00,1.1868
5530.00,1.1756
5529.00,1.1641
5528.00,1.1520
5527.00,1.1396
5526.00,1.1267
5525.00,1.1135
5524.00,1.1002
5523.00,1.0866
5522.00,1.0727
5521.00,1.0587
5520.00,1.0444
5519.00,1.0301
5518.00,1.0158
5517.00,1.0014
5516.00,0.9871
5515.00,0.9728
5514.00,0.9587
5513.00,0.9447
5512.00,0.9311
5511.00,0.9178
5510.00,0.9048
5509.00,0.8920
5508.00,0.8795
5507.00,0.8672
5506.00,0.8553
5505.00,0.8440
5504.00,0.8333
5503.00,0.8233
5502.00,0.8141
5501.00,0.8056
5500.00,0.7979
5499.00,0.7908
5498.00,0.7846
5497.00,0.7791
5496.00,0.7746
5495.00,0.7709
5494.00,0.7682
5493.00,0.7665
5492.00,0.7657
5491.00,0.7657
5490.00,0.7667
5489.00,0.7685
5488.00,0.7713
5487.00,0.7750
5486.00,0.7797
5485.00,0.7854
5484.00,0.7921
5483.00,0.7997
5482.00,0.8081
5481.00,0.8172
5480.00,0.8268
5479.00,0.8370
5478.00,0.8477
5477.00,0.8590
5476.00,0.8708
5475.00,0.8832
5474.00,0.8960
5473.00,0.9090
5472.00,0.9222
5471.00,0.9356
5470.00,0.9492
5469.00,0.9631
5468.00,0.9772
5467.00,0.9914
5466.00,1.0057
5465.00,1.0199
5464.00,1.0340
5463.00,1.0480
5462.00,1.0622
5461.00,1.0765
5460.00,1.0909
5459.00,1.1052
5458.00,1.1194
5457.00,1.1332
5456.00,1.1466
5455.00,1.1596
5454.00,1.1725
5453.00,1.1854
5452.00,1.1980
5451.00,1.2101
5450.00,1.2217
5449.00,1.2328
5448.00,1.2433
5447.00,1.2533
5446.00,1.2630
5445.00,1.2725
5444.00,1.2816
5443.00,1.2902
5442.00,1.2983
5441.00,1.3060
5440.00,1.3135
5439.00,1.3206
5438.00,1.3273
5437.00,1.3335
5436.00,1.3390
5435.00,1.3439
5434.00,1.3483
5433.00,1.3524
5432.00,1.3562
5431.00,1.3596
5430.00,1.3627
5429.00,1.3654
5428.00,1.3675
5427.00,1.3688
5426.00,1.3695
5425.00,1.3697
5424.00,1.3697
5423.00,1.3695
5422.00,1.3691
5421.00,1.3685
5420.00,1.3671
5419.00,1.3650
5418.00,1.3622
5417.00,1.3589
5416.00,1.3552
5415.00,1.3510
5414.00,1.3466
5413.00,1.3419
5412.00,1.3368
5411.00,1.3312
5410.00,1.3251
5409.00,1.3188
5408.00,1.3120
5407.00,1.3046
5406.00,1.2965
5405.00,1.2879
5404.00,1.2788
5403.00,1.2692
5402.00,1.2592
5401.00,1.2489
5400.00,1.2384
5399.00,1.2274
5398.00,1.2159
5397.00,1.2039
5396.00,1.1916
5395.00,1.1788
5394.00,1.1657
5393.00,1.1523
5392.00,1.1386
5391.00,1.1247
5390.00,1.1105
5389.00,1.0962
5388.00,1.0816
5387.00,1.0667
5386.00,1.0516
5385.00,1.0364
5384.00,1.0211
5383.00,1.0057
5382.00,0.9903
5381.00,0.9752
5380.00,0.9603
5379.00,0.9455
5378.00,0.9309
5377.00,0.9165
5376.00,0.9024
5375.00,0.8886
5374.00,0.8752
5373.00,0.8624
5372.00,0.8501
5371.00,0.8383
5370.00,0.8271
5369.00,0.8167
5368.00,0.8070
5367.00,0.7981
5366.00,0.7900
5365.00,0.7828
5364.00,0.7765
5363.00,0.7711
5362.00,0.7665
5361.00,0.7630
5360.00,0.7605
5359.00,0.7590
5358.00,0.7585
5357.00,0.7591
5356.00,0.7608
5355.00,0.7635
5354.00,0.7672
5353.00,0.7719
5352.00,0.7774
5351.00,0.7838
5350.00,0.7910
5349.00,0.7989
5348.00,0.8076
5347.00,0.8170
5346.00,0.8273
5345.00,0.8385
5344.00,0.8503
5343.00,0.8626
5342.00,0.8751
5341.00,0.8879
5340.00,0.9008
5339.00,0.9142
5338.00,0.9282
5337.00,0.9427
5336.00,0.9576
5335.00,0.9724
5334.00,0.9872
5333.00,1.0020
5332.00,1.0168
5331.00,1.0315
5330.00,1.0461
5329.00,1.0606
5328.00,1.0750
5327.00,1.0895
5326.00,1.1039
5325.00,1.1185
5324.00,1.1328
5323.00,1.1469
5322.00,1.1606
5321.00,1.1739
5320.00,1.1867
5319.00,1.1990
5318.00,1.2110
5317.00,1.2228
5316.00,1.2344
5315.00,1.2457
5314.00,1.2567
5313.00,1.2674
5312.00,1.2777
5311.00,1.2873
5310.00,1.2964
5309.00,1.3051
5308.00,1.3135
5307.00,1.3216
5306.00,1.3294
5305.00,1.3368
5304.00,1.3438
5303.00,1.3502
5302.00,1.3558
5301.00,1.3607
5300.00,1.3652
5299.00,1.3692
5298.00,1.3728
5297.00,1.3760
5296.00,1.3790
5295.00,1.3816
5294.00,1.3840
5293.00,1.3859
5292.00,1.3874
5291.00,1.3885
5290.00,1.3890
5289.00,1.3890
5288.00,1.3885
5287.00,1.3873
5286.00,1.3856
5285.00,1.3835
5284.00,1.3810
5283.00,1.3781
5282.00,1.3748
5281.00,1.3711
5280.00,1.3668
5279.00,1.3618
5278.00,1.3563
5277.00,1.3504
5276.00,1.3442
5275.00,1.3377
5274.00,1.3307
5273.00,1.3232
5272.00,1.3151
5271.00,1.3066
5270.00,1.2977
5269.00,1.2883
5268.00,1.2787
5267.00,1.2687
5266.00,1.2583
5265.00,1.2473
5264.00,1.2356
5263.00,1.2232
5262.00,1.2103
5261.00,1.1969
5260.00,1.1832
5259.00,1.1695
5258.00,1.1557
5257.00,1.1416
5256.00,1.1272
5255.00,1.1123
5254.00,1.0971
5253.00,1.0816
5252.00,1.0663
5251.00,1.0509
5250.00,1.0356
5249.00,1.0201
5248.00,1.0045
5247.00,0.9890
5246.00,0.9736
5245.00,0.9583
5244.00,0.9432
5243.00,0.9284
5242.00,0.9140
5241.00,0.9001
5240.00,0.8867
5239.00,0.8739
5238.00,0.8616
5237.00,0.8498
5236.00,0.8385
5235.00,0.8280
5234.00,0.8183
5233.00,0.8094
5232.00,0.8014
5231.00,0.7943
5230.00,0.7881
5229.00,0.7829
5228.00,0.7787
5227.00,0.7754
5226.00,0.7732
5225.00,0.7721
5224.00,0.7720
5223.00,0.7731
5222.00,0.7752
5221.00,0.7783
5220.00,0.7825
5219.00,0.7877
5218.00,0.7939
5217.00,0.8011
5216.00,0.8092
5215.00,0.8181
5214.00,0.8277
5213.00,0.8380
5212.00,0.8489
5211.00,0.8606
5210.00,0.8728
5209.00,0.8855
5208.00,0.8987
5207.00,0.9124
5206.00,0.9266
5205.00,0.9412
5204.00,0.9561
5203.00,0.9711
5202.00,0.9864
5201.00,1.0017
5200.00,1.0170
5199.00,1.0324
5198.00,1.0478
5197.00,1.0632
5196.00,1.0786
5195.00,1.0940
5194.00,1.1093
5193.00,1.1246
5192.00,1.1397
5191.00,1.1544
5190.00,1.1690
5189.00,1.1832
5188.00,1.1971
5187.00,1.2107
5186.00,1.2240
5185.00,1.2367
5184.00,1.2489
5183.00,1.2607
5182.00,1.2724
5181.00,1.2839
5180.00,1.2952
5179.00,1.3061
5178.00,1.3165
5177.00,1.3263
5176.00,1.3354
5175.00,1.3438
5174.00,1.3518
5173.00,1.3595
5172.00,1.3669
5171.00,1.3738
5170.00,1.3804
5169.00,1.3865
5168.00,1.3918
5167.00,1.3965
5166.00,1.4008
5165.00,1.4047
5164.00,1.4083
5163.00,1.4115
5162.00,1.4142
5161.00,1.4165
5160.00,1.4182
5159.00,1.4195
5158.00,1.4202
5157.00,1.4206
5156.00,1.4204
5155.00,1.4198
5154.00,1.4187
5153.00,1.4171
5152.00,1.4150
5151.00,1.4125
5150.00,1.4094
5149.00,1.4059
5148.00,1.4018
5147.00,1.3975
5146.00,1.3929
5145.00,1.3880
5144.00,1.3827
5143.00,1.3768
5142.00,1.3701
5141.00,1.3628
5140.00,1.3548
5139.00,1.3464
5138.00,1.3376
5137.00,1.3284
5136.00,1.3186
5135.00,1.3083
5134.00,1.2976
5133.00,1.2867
5132.00,1.2753
5131.00,1.2636
5130.00,1.2513
5129.00,1.2386
5128.00,1.2253
5127.00,1.2116
5126.00,1.1976
5125.00,1.1832
5124.00,1.1684
5123.00,1.1532
5122.00,1.1376
5121.00,1.1219
5120.00,1.1059
5119.00,1.0896
5118.00,1.0730
5117.00,1.0564
5116.00,1.0398
5115.00,1.0232
5114.00,1.0069
5113.00,0.9907
5112.00,0.9746
5111.00,0.9584
5110.00,0.9424
5109.00,0.9267
5108.00,0.9113
5107.00,0.8965
5106.00,0.8823
5105.00,0.8686
5104.00,0.8555
5103.00,0.8431
5102.00,0.8314
5101.00,0.8204
5100.00,0.8103
5099.00,0.8010
5098.00,0.7925
5097.00,0.7850
5096.00,0.7785
5095.00,0.7730
5094.00,0.7687
5093.00,0.7655
5092.00,0.7635
5091.00,0.7626
5090.00,0.7629
5089.00,0.7644
5088.00,0.7670
5087.00,0.7707
5086.00,0.7755
5085.00,0.7815
5084.00,0.7885
5083.00,0.7965
5082.00,0.8054
5081.00,0.8152
5080.00,0.8257
5079.00,0.8369
5078.00,0.8487
5077.00,0.8613
5076.00,0.8746
5075.00,0.8884
5074.00,0.9026
5073.00,0.9173
5072.00,0.9323
5071.00,0.9476
5070.00,0.9633
5069.00,0.9791
5068.00,0.9951
5067.00,1.0112
5066.00,1.0274
5065.00,1.0436
5064.00,1.0598
5063.00,1.0758
5062.00,1.0918
5061.00,1.1076
5060.00,1.1235
5059.00,1.1392
5058.00,1.1549
5057.00,1.1703
5056.00,1.1853
5055.00,1.1999
5054.00,1.2142
5053.00,1.2283
5052.00,1.2422
5051.00,1.2559
5050.00,1.2692
5049.00,1.2819
5048.00,1.2939
5047.00,1.3053
5046.00,1.3162
5045.00,1.3270
5044.00,1.3374
5043.00,1.3475
5042.00,1.3571
5041.00,1.3660
5040.00,1.3742
5039.00,1.3820
5038.00,1.3894
5037.00,1.3965
5036.00,1.4031
5035.00,1.4089
5034.00,1.4142
5033.00,1.4191
5032.00,1.4236
5031.00,1.4278
5030.00,1.4314
5029.00,1.4344
5028.00,1.4369
5027.00,1.4390
5026.00,1.4406
5025.00,1.4418
5024.00,1.4425
5023.00,1.4427
5022.00,1.4426
5021.00,1.4424
5020.00,1.4420
5019.00,1.4410
5018.00,1.4392
5017.00,1.4364
5016.00,1.4327
5015.00,1.4287
5014.00,1.4246
5013.00,1.4204
5012.00,1.4157
5011.00,1.4107
5010.00,1.4053
5009.00,1.3994
5008.00,1.3929
5007.00,1.3857
5006.00,1.3778
5005.00,1.3692
5004.00,1.3600
5003.00,1.3504
5002.00,1.3406
5001.00,1.3304
5000.00,1.3197
4999.00,1.3084
4998.00,1.2965
4997.00,1.2841
4996.00,1.2710
4995.00,1.2574
4994.00,1.2434
4993.00,1.2292
4992.00,1.2148
4991.00,1.2000
4990.00,1.1847
4989.00,1.1690
4988.00,1.1527
4987.00,1.1360
4986.00,1.1191
4985.00,1.1020
4984.00,1.0848
4983.00,1.0675
4982.00,1.0502
4981.00,1.0328
4980.00,1.0155
4979.00,0.9982
4978.00,0.9811
4977.00,0.9640
4976.00,0.9472
4975.00,0.9307
4974.00,0.9147
4973.00,0.8992
4972.00,0.8843
4971.00,0.8699
4970.00,0.8561
4969.00,0.8429
4968.00,0.8306
4967.00,0.8191
4966.00,0.8087
4965.00,0.7993
4964.00,0.7909
4963.00,0.7836
4962.00,0.7774
4961.00,0.7723
4960.00,0.7684
4959.00,0.7657
4958.00,0.7642
4957.00,0.7640
4956.00,0.7652
4955.00,0.7676
4954.00,0.7713
4953.00,0.7761
4952.00,0.7821
4951.00,0.7892
4950.00,0.7974
4949.00,0.8067
4948.00,0.8170
4947.00,0.8282
4946.00,0.8402
4945.00,0.8530
4944.00,0.8665
4943.00,0.8805
4942.00,0.8951
4941.00,0.9102
4940.00,0.9257
4939.00,0.9416
4938.00,0.9579
4937.00,0.9745
4936.00,0.9914
4935.00,1.0084
4934.00,1.0255
4933.00,1.0428
4932.00,1.0601
4931.00,1.0775
4930.00,1.0947
4929.00,1.1117
4928.00,1.1286
4927.00,1.1452
4926.00,1.1617
4925.00,1.1780
4924.00,1.1941
4923.00,1.2099
4922.00,1.2253
4921.00,1.2404
4920.00,1.2553
4919.00,1.2698
4918.00,1.2840
4917.00,1.2978
4916.00,1.3110
4915.00,1.3236
4914.00,1.3355
4913.00,1.3469
4912.00,1.3580
4911.00,1.3687
4910.00,1.3790
4909.00,1.3887
4908.00,1.3977
4907.00,1.4060
4906.00,1.4137
4905.00,1.4209
4904.00,1.4279
4903.00,1.4345
4902.00,1.4407
4901.00,1.4465
4900.00,1.4517
4899.00,1.4563
4898.00,1.4603
4897.00,1.4638
4896.00,1.4668
4895.00,1.4693
4894.00,1.4715
4893.00,1.4732
4892.00,1.4745
4891.00,1.4753
4890.00,1.4755
4889.00,1.4749
4888.00,1.4737
4887.00,1.4719
4886.00,1.4698
4885.00,1.4676
4884.00,1.4652
4883.00,1.4626
4882.00,1.4594
4881.00,1.4555
4880.00,1.4509
4879.00,1.4456
4878.00,1.4401
4877.00,1.4343
4876.00,1.4281
4875.00,1.4215
4874.00,1.4143
4873.00,1.4065
4872.00,1.3980
4871.00,1.3888
4870.00,1.3790
4869.00,1.3686
4868.00,1.3577
4867.00,1.3466
4866.00,1.3351
4865.00,1.3232
4864.00,1.3108
4863.00,1.2978
4862.00,1.2842
4861.00,1.2702
4860.00,1.2556
4859.00,1.2406
4858.00,1.2251
4857.00,1.2091
4856.00,1.1926
4855.00,1.1756
4854.00,1.1584
4853.00,1.1409
4852.00,1.1231
4851.00,1.1052
4850.00,1.0871
4849.00,1.0689
4848.00,1.0507
4847.00,1.0324
4846.00,1.0140
4845.00,0.9957
4844.00,0.9776
4843.00,0.9596
4842.00,0.9419
4841.00,0.9247
4840.00,0.9080
4839.00,0.8918
4838.00,0.8763
4837.00,0.8614
4836.00,0.8472
4835.00,0.8338
4834.00,0.8213
4833.00,0.8097
4832.00,0.7993
4831.00,0.7899
4830.00,0.7817
4829.00,0.7746
4828.00,0.7687
4827.00,0.7641
4826.00,0.7609
4825.00,0.7590
4824.00,0.7586
4823.00,0.7595
4822.00,0.7618
4821.00,0.7653
4820.00,0.7702
4819.00,0.7762
4818.00,0.7835
4817.00,0.7920
4816.00,0.8017
4815.00,0.8123
4814.00,0.8239
4813.00,0.8364
4812.00,0.8497
4811.00,0.8637
4810.00,0.8785
4809.00,0.8940
4808.00,0.9101
4807.00,0.9267
4806.00,0.9436
4805.00,0.9608
4804.00,0.9782
4803.00,0.9957
4802.00,1.0135
4801.00,1.0314
4800.00,1.0495
4799.00,1.0676
4798.00,1.0858
4797.00,1.1040
4796.00,1.1220
4795.00,1.1400
4794.00,1.1577
4793.00,1.1752
4792.00,1.1925
4791.00,1.2095
4790.00,1.2263
4789.00,1.2427
4788.00,1.2586
4787.00,1.2742
4786.00,1.2893
4785.00,1.3040
4784.00,1.3183
4783.00,1.3322
4782.00,1.3456
4781.00,1.3583
4780.00,1.3702
4779.00,1.3816
4778.00,1.3924
4777.00,1.4029
4776.00,1.4130
4775.00,1.4227
4774.00,1.4319
4773.00,1.4403
4772.00,1.4480
4771.00,1.4552
4770.00,1.4620
4769.00,1.4685
4768.00,1.4746
4767.00,1.4804
4766.00,1.4855
4765.00,1.4899
4764.00,1.4935
4763.00,1.4965
4762.00,1.4993
4761.00,1.5019
4760.00,1.5042
4759.00,1.5061
4758.00,1.5073
4757.00,1.5078
4756.00,1.5076
4755.00,1.5067
4754.00,1.5055
4753.00,1.5041
4752.00,1.5025
4751.00,1.5004
4750.00,1.4979
4749.00,1.4949
4748.00,1.4914
4747.00,1.4873
4746.00,1.4828
4745.00,1.4777
4744.00,1.4720
4743.00,1.4653
4742.00,1.4579
4741.00,1.4499
4740.00,1.4414
4739.00,1.4327
4738.00,1.4238
4737.00,1.4149
4736.00,1.4055
4735.00,1.3954
4734.00,1.3844
4733.00,1.3728
4732.00,1.3606
4731.00,1.3479
4730.00,1.3349
4729.00,1.3213
4728.00,1.3071
4727.00,1.2922
4726.00,1.2769
4725.00,1.2611
4724.00,1.2449
4723.00,1.2281
4722.00,1.2109
4721.00,1.1932
4720.00,1.1752
4719.00,1.1569
4718.00,1.1383
4717.00,1.1196
4716.00,1.1007
4715.00,1.0816
4714.00,1.0624
4713.00,1.0432
4712.00,1.0241
4711.00,1.0052
4710.00,0.9866
4709.00,0.9683
4708.00,0.9503
4707.00,0.9328
4706.00,0.9158
4705.00,0.8996
4704.00,0.8841
4703.00,0.8693
4702.00,0.8554
4701.00,0.8425
4700.00,0.8306
4699.00,0.8199
4698.00,0.8103
4697.00,0.8021
4696.00,0.7950
4695.00,0.7893
4694.00,0.7849
4693.00,0.7820
4692.00,0.7806
4691.00,0.7807
4690.00,0.7822
4689.00,0.7851
4688.00,0.7894
4687.00,0.7951
4686.00,0.8021
4685.00,0.8103
4684.00,0.8197
4683.00,0.8302
4682.00,0.8418
4681.00,0.8542
4680.00,0.8675
4679.00,0.8814
4678.00,0.8961
4677.00,0.9114
4676.00,0.9272
4675.00,0.9436
4674.00,0.9603
4673.00,0.9772
4672.00,0.9945
4671.00,1.0119
4670.00,1.0296
4669.00,1.0475
4668.00,1.0655
4667.00,1.0834
4666.00,1.1014
4665.00,1.1194
4664.00,1.1375
4663.00,1.1554
4662.00,1.1732
4661.00,1.1908
4660.00,1.2082
4659.00,1.2254
4658.00,1.2424
4657.00,1.2591
4656.00,1.2755
4655.00,1.2915
4654.00,1.3070
4653.00,1.3222
4652.00,1.3369
4651.00,1.3510
4650.00,1.3644
4649.00,1.3773
4648.00,1.3899
4647.00,1.4022
4646.00,1.4143
4645.00,1.4260
4644.00,1.4370
4643.00,1.4474
4642.00,1.4569
4641.00,1.4658
4640.00,1.4742
4639.00,1.4822
4638.00,1.4898
4637.00,1.4969
4636.00,1.5035
4635.00,1.5094
4634.00,1.5150
4633.00,1.5201
4632.00,1.5249
4631.00,1.5291
4630.00,1.5327
4629.00,1.5357
4628.00,1.5381
4627.00,1.5402
4626.00,1.5418
4625.00,1.5430
4624.00,1.5436
4623.00,1.5437
4622.00,1.5433
4621.00,1.5426
4620.00,1.5414
4619.00,1.5396
4618.00,1.5370
4617.00,1.5338
4616.00,1.5301
4615.00,1.5260
4614.00,1.5217
4613.00,1.5171
4612.00,1.5122
4611.00,1.5069
4610.00,1.5011
4609.00,1.4946
4608.00,1.4872
4607.00,1.4791
4606.00,1.4704
4605.00,1.4613
4604.00,1.4519
4603.00,1.4421
4602.00,1.4319
4601.00,1.4211
4600.00,1.4096
4599.00,1.3975
4598.00,1.3848
4597.00,1.3713
4596.00,1.3573
4595.00,1.3427
4594.00,1.3277
4593.00,1.3121
4592.00,1.2960
4591.00,1.2792
4590.00,1.2619
4589.00,1.2440
4588.00,1.2256
4587.00,1.2070
4586.00,1.1880
4585.00,1.1687
4584.00,1.1490
4583.00,1.1292
4582.00,1.1092
4581.00,1.0890
4580.00,1.0687
4579.00,1.0483
4578.00,1.0279
4577.00,1.0077
4576.00,0.9878
4575.00,0.9682
4574.00,0.9490
4573.00,0.9305
4572.00,0.9125
4571.00,0.8953
4570.00,0.8788
4569.00,0.8632
4568.00,0.8485
4567.00,0.8349
4566.00,0.8225
4565.00,0.8113
4564.00,0.8012
4563.00,0.7925
4562.00,0.7851
4561.00,0.7792
4560.00,0.7749
4559.00,0.7721
4558.00,0.7710
4557.00,0.7714
4556.00,0.7733
4555.00,0.7768
4554.00,0.7818
4553.00,0.7883
4552.00,0.7962
4551.00,0.8056
4550.00,0.8162
4549.00,0.8280
4548.00,0.8410
4547.00,0.8549
4546.00,0.8699
4545.00,0.8857
4544.00,0.9023
4543.00,0.9195
4542.00,0.9372
4541.00,0.9553
4540.00,0.9739
4539.00,0.9929
4538.00,1.0122
4537.00,1.0318
4536.00,1.0516
4535.00,1.0715
4534.00,1.0914
4533.00,1.1115
4532.00,1.1315
4531.00,1.1514
4530.00,1.1712
4529.00,1.1908
4528.00,1.2102
4527.00,1.2293
4526.00,1.2481
4525.00,1.2665
4524.00,1.2845
4523.00,1.3020
4522.00,1.3191
4521.00,1.3358
4520.00,1.3520
4519.00,1.3676
4518.00,1.3826
4517.00,1.3969
4516.00,1.4107
4515.00,1.4241
4514.00,1.4370
4513.00,1.4496
4512.00,1.4615
4511.00,1.4729
4510.00,1.4835
4509.00,1.4934
4508.00,1.5027
4507.00,1.5114
4506.00,1.5196
4505.00,1.5273
4504.00,1.5343
4503.00,1.5407
4502.00,1.5466
4501.00,1.5521
4500.00,1.5573
4499.00,1.5620
4498.00,1.5660
4497.00,1.5693
4496.00,1.5720
4495.00,1.5744
4494.00,1.5766
4493.00,1.5785
4492.00,1.5800
4491.00,1.5810
4490.00,1.5813
4489.00,1.5810
4488.00,1.5800
4487.00,1.5785
4486.00,1.5766
4485.00,1.5744
4484.00,1.5718
4483.00,1.5688
4482.00,1.5652
4481.00,1.5610
4480.00,1.5561
4479.00,1.5506
4478.00,1.5447
4477.00,1.5384
4476.00,1.5317
4475.00,1.5247
4474.00,1.5172
4473.00,1.5089
4472.00,1.4998
4471.00,1.4899
4470.00,1.4796
4469.00,1.4688
4468.00,1.4576
4467.00,1.4459
4466.00,1.4335
4465.00,1.4204
4464.00,1.4066
4463.00,1.3922
4462.00,1.3773
4461.00,1.3618
4460.00,1.3458
4459.00,1.3291
4458.00,1.3119
4457.00,1.2941
4456.00,1.2756
4455.00,1.2567
4454.00,1.2374
4453.00,1.2177
4452.00,1.1977
4451.00,1.1774
4450.00,1.1566
4449.00,1.1356
4448.00,1.1144
4447.00,1.0931
4446.00,1.0719
4445.00,1.0508
4444.00,1.0299
4443.00,1.0093
4442.00,0.9892
4441.00,0.9696
4440.00,0.9506
4439.00,0.9322
4438.00,0.9146
4437.00,0.8979
4436.00,0.8822
4435.00,0.8676
4434.00,0.8543
4433.00,0.8421
4432.00,0.8314
4431.00,0.8220
4430.00,0.8142
4429.00,0.8080
4428.00,0.8033
4427.00,0.8003
4426.00,0.7990
4425.00,0.7993
4424.00,0.8014
4423.00,0.8052
4422.00,0.8106
4421.00,0.8176
4420.00,0.8261
4419.00,0.8361
4418.00,0.8475
4417.00,0.8602
4416.00,0.8741
4415.00,0.8890
4414.00,0.9049
4413.00,0.9216
4412.00,0.9391
4411.00,0.9573
4410.00,0.9762
4409.00,0.9957
4408.00,1.0156
4407.00,1.0357
4406.00,1.0561
4405.00,1.0766
4404.00,1.0973
4403.00,1.1181
4402.00,1.1389
4401.00,1.1599
4400.00,1.1808
4399.00,1.2016
4398.00,1.2222
4397.00,1.2425
4396.00,1.2623
4395.00,1.2818
4394.00,1.3009
4393.00,1.3197
4392.00,1.3382
4391.00,1.3562
4390.00,1.3736
4389.00,1.3904
4388.00,1.4063
4387.00,1.4215
4386.00,1.4362
4385.00,1.4504
4384.00,1.4641
4383.00,1.4772
4382.00,1.4898
4381.00,1.5018
4380.00,1.5132
4379.00,1.5241
4378.00,1.5345
4377.00,1.5444
4376.00,1.5538
4375.00,1.5626
4374.00,1.5708
4373.00,1.5784
4372.00,1.5856
4371.00,1.5924
4370.00,1.5989
4369.00,1.6049
4368.00,1.6103
4367.00,1.6149
4366.00,1.6188
4365.00,1.6221
4364.00,1.6251
4363.00,1.6277
4362.00,1.6299
4361.00,1.6318
4360.00,1.6331
4359.00,1.6341
4358.00,1.6346
4357.00,1.6346
4356.00,1.6342
4355.00,1.6334
4354.00,1.6321
4353.00,1.6306
4352.00,1.6286
4351.00,1.6262
4350.00,1.6232
4349.00,1.6197
4348.00,1.6156
4347.00,1.6110
4346.00,1.6058
4345.00,1.6002
4344.00,1.5941
4343.00,1.5876
4342.00,1.5805
4341.00,1.5729
4340.00,1.5648
4339.00,1.5561
4338.00,1.5469
4337.00,1.5371
4336.00,1.5266
4335.00,1.5152
4334.00,1.5032
4333.00,1.4908
4332.00,1.4780
4331.00,1.4648
4330.00,1.4509
4329.00,1.4362
4328.00,1.4208
4327.00,1.4047
4326.00,1.3883
4325.00,1.3713
4324.00,1.3537
4323.00,1.3355
4322.00,1.3169
4321.00,1.2980
4320.00,1.2786
4319.00,1.2590
4318.00,1.2389
4317.00,1.2185
4316.00,1.1979
4315.00,1.1771
4314.00,1.1562
4313.00,1.1353
4312.00,1.1145
4311.00,1.0939
4310.00,1.0735
4309.00,1.0534
4308.00,1.0338
4307.00,1.0146
4306.00,0.9959
4305.00,0.9779
4304.00,0.9606
4303.00,0.9442
4302.00,0.9290
4301.00,0.9150
4300.00,0.9022
4299.00,0.8907
4298.00,0.8806
4297.00,0.8719
4296.00,0.8648
4295.00,0.8593
4294.00,0.8554
4293.00,0.8533
4292.00,0.8527
4291.00,0.8539
4290.00,0.8567
4289.00,0.8610
4288.00,0.8669
4287.00,0.8741
4286.00,0.8828
4285.00,0.8927
4284.00,0.9038
4283.00,0.9160
4282.00,0.9292
4281.00,0.9433
4280.00,0.9581
4279.00,0.9736
4278.00,0.9898
4277.00,1.0065
4276.00,1.0238
4275.00,1.0417
4274.00,1.0599
4273.00,1.0786
4272.00,1.0975
4271.00,1.1167
4270.00,1.1361
4269.00,1.1557
4268.00,1.1754
4267.00,1.1951
4266.00,1.2148
4265.00,1.2346
4264.00,1.2542
4263.00,1.2737
4262.00,1.2929
4261.00,1.3119
4260.00,1.3305
4259.00,1.3489
4258.00,1.3671
4257.00,1.3849
4256.00,1.4023
4255.00,1.4193
4254.00,1.4357
4253.00,1.4515
4252.00,1.4667
4251.00,1.4813
4250.00,1.4953
4249.00,1.5089
4248.00,1.5219
4247.00,1.5345
4246.00,1.5464
4245.00,1.5576
4244.00,1.5682
4243.00,1.5783
4242.00,1.5881
4241.00,1.5977
4240.00,1.6069
4239.00,1.6153
4238.00,1.6230
4237.00,1.6301
4236.00,1.6368
4235.00,1.6429
4234.00,1.6485
4233.00,1.6534
4232.00,1.6579
4231.00,1.6619
4230.00,1.6656
4229.00,1.6686
4228.00,1.6710
4227.00,1.6727
4226.00,1.6740
4225.00,1.6751
4224.00,1.6760
4223.00,1.6768
4222.00,1.6771
4221.00,1.6767
4220.00,1.6756
4219.00,1.6737
4218.00,1.6714
4217.00,1.6686
4216.00,1.6653
4215.00,1.6615
4214.00,1.6571
4213.00,1.6523
4212.00,1.6470
4211.00,1.6414
4210.00,1.6353
4209.00,1.6288
4208.00,1.6217
4207.00,1.6139
4206.00,1.6054
4205.00,1.5962
4204.00,1.5865
4203.00,1.5763
4202.00,1.5658
4201.00,1.5545
4200.00,1.5426
4199.00,1.5299
4198.00,1.5166
4197.00,1.5029
4196.00,1.4886
4195.00,1.4737
4194.00,1.4580
4193.00,1.4417
4192.00,1.4246
4191.00,1.4069
4190.00,1.3887
4189.00,1.3701
4188.00,1.3510
4187.00,1.3314
4186.00,1.3113
4185.00,1.2906
4184.00,1.2695
4183.00,1.2480
4182.00,1.2263
4181.00,1.2044
4180.00,1.1824
4179.00,1.1604
4178.00,1.1384
4177.00,1.1165
4176.00,1.0948
4175.00,1.0734
4174.00,1.0523
4173.00,1.0318
4172.00,1.0118
4171.00,0.9927
4170.00,0.9744
4169.00,0.9571
4168.00,0.9408
4167.00,0.9258
4166.00,0.9121
4165.00,0.8998
4164.00,0.8890
4163.00,0.8797
4162.00,0.8721
4161.00,0.8662
4160.00,0.8620
4159.00,0.8595
4158.00,0.8589
4157.00,0.8599
4156.00,0.8628
4155.00,0.8674
4154.00,0.8738
4153.00,0.8818
4152.00,0.8915
4151.00,0.9026
4150.00,0.9151
4149.00,0.9289
4148.00,0.9437
4147.00,0.9596
4146.00,0.9765
4145.00,0.9943
4144.00,1.0129
4143.00,1.0322
4142.00,1.0521
4141.00,1.0725
4140.00,1.0933
4139.00,1.1145
4138.00,1.1361
4137.00,1.1578
4136.00,1.1797
4135.00,1.2017
4134.00,1.2236
4133.00,1.2457
4132.00,1.2677
4131.00,1.2895
4130.00,1.3110
4129.00,1.3321
4128.00,1.3528
4127.00,1.3730
4126.00,1.3928
4125.00,1.4120
4124.00,1.4306
4123.00,1.4486
4122.00,1.4661
4121.00,1.4831
4120.00,1.4997
4119.00,1.5156
4118.00,1.5307
4117.00,1.5450
4116.00,1.5587
4115.00,1.5718
4114.00,1.5844
4113.00,1.5964
4112.00,1.6078
4111.00,1.6186
4110.00,1.6288
4109.00,1.6385
4108.00,1.6477
4107.00,1.6563
4106.00,1.6641
4105.00,1.6712
4104.00,1.6779
4103.00,1.6843
4102.00,1.6903
4101.00,1.6958
4100.00,1.7005
4099.00,1.7047
4098.00,1.7084
4097.00,1.7119
4096.00,1.7151
4095.00,1.7179
4094.00,1.7201
4093.00,1.7216
4092.00,1.7224
4091.00,1.7227
4090.00,1.7226
4089.00,1.7223
4088.00,1.7217
4087.00,1.7204
4086.00,1.7185
4085.00,1.7159
4084.00,1.7128
4083.00,1.7093
4082.00,1.7053
4081.00,1.7007
4080.00,1.6954
4079.00,1.6895
4078.00,1.6832
4077.00,1.6766
4076.00,1.6694
4075.00,1.6616
4074.00,1.6532
4073.00,1.6441
4072.00,1.6345
4071.00,1.6243
4070.00,1.6134
4069.00,1.6018
4068.00,1.5897
4067.00,1.5770
4066.00,1.5638
4065.00,1.5499
4064.00,1.5353
4063.00,1.5200
4062.00,1.5041
4061.00,1.4876
4060.00,1.4705
4059.00,1.4528
4058.00,1.4346
4057.00,1.4159
4056.00,1.3965
4055.00,1.3766
4054.00,1.3560
4053.00,1.3350
4052.00,1.3136
4051.00,1.2917
4050.00,1.2695
4049.00,1.2469
4048.00,1.2242
4047.00,1.2012
4046.00,1.1782
4045.00,1.1551
4044.00,1.1321
4043.00,1.1092
4042.00,1.0866
4041.00,1.0643
4040.00,1.0425
4039.00,1.0213
4038.00,1.0008
4037.00,0.9811
4036.00,0.9624
4035.00,0.9449
4034.00,0.9286
4033.00,0.9137
4032.00,0.9003
4031.00,0.8885
4030.00,0.8786
4029.00,0.8705
4028.00,0.8645
4027.00,0.8605
4026.00,0.8586
4025.00,0.8588
4024.00,0.8610
4023.00,0.8653
4022.00,0.8716
4021.00,0.8797
4020.00,0.8895
4019.00,0.9011
4018.00,0.9142
4017.00,0.9287
4016.00,0.9445
4015.00,0.9615
4014.00,0.9796
4013.00,0.9987
4012.00,1.0187
4011.00,1.0395
4010.00,1.0608
4009.00,1.0826
4008.00,1.1049
4007.00,1.1276
4006.00,1.1506
4005.00,1.1738
4004.00,1.1971
4003.00,1.2205
4002.00,1.2439
4001.00,1.2673
4000.00,1.2905
3999.00,1.3135
3998.00,1.3363
3997.00,1.3587
3996.00,1.3808
3995.00,1.4025
3994.00,1.4237
3993.00,1.4446
3992.00,1.4649
3991.00,1.4848
3990.00,1.5040
3989.00,1.5224
3988.00,1.5398
3987.00,1.5563
3986.00,1.5722
3985.00,1.5874
3984.00,1.6021
3983.00,1.6161
3982.00,1.6296
3981.00,1.6425
3980.00,1.6549
3979.00,1.6667
3978.00,1.6777
3977.00,1.6880
3976.00,1.6976
3975.00,1.7065
3974.00,1.7150
3973.00,1.7230
3972.00,1.7304
3971.00,1.7372
3970.00,1.7435
3969.00,1.7492
3968.00,1.7546
3967.00,1.7593
3966.00,1.7634
3965.00,1.7668
3964.00,1.7698
3963.00,1.7724
3962.00,1.7746
3961.00,1.7764
3960.00,1.7778
3959.00,1.7790
3958.00,1.7798
3957.00,1.7801
3956.00,1.7798
3955.00,1.7789
3954.00,1.7774
3953.00,1.7754
3952.00,1.7729
3951.00,1.7697
3950.00,1.7660
3949.00,1.7618
3948.00,1.7572
3947.00,1.7521
3946.00,1.7467
3945.00,1.7408
3944.00,1.7343
3943.00,1.7271
3942.00,1.7192
3941.00,1.7107
3940.00,1.7019
3939.00,1.6927
3938.00,1.6831
3937.00,1.6728
3936.00,1.6617
3935.00,1.6496
3934.00,1.6368
3933.00,1.6233
3932.00,1.6090
3931.00,1.5941
3930.00,1.5786
3929.00,1.5626
3928.00,1.5463
3927.00,1.5293
3926.00,1.5113
3925.00,1.4921
3924.00,1.4718
3923.00,1.4506
3922.00,1.4287
3921.00,1.4061
3920.00,1.3826
3919.00,1.3582
3918.00,1.3328
3917.00,1.3067
3916.00,1.2800
3915.00,1.2532
3914.00,1.2267
3913.00,1.2003
3912.00,1.1741
3911.00,1.1478
3910.00,1.1216
3909.00,1.0958
3908.00,1.0708
3907.00,1.0466
3906.00,1.0233
3905.00,1.0003
3904.00,0.9775
3903.00,0.9553
3902.00,0.9342
3901.00,0.9149
3900.00,0.8976
3899.00,0.8824
3898.00,0.8696
3897.00,0.8595
3896.00,0.8522
3895.00,0.8479
3894.00,0.8462
3893.00,0.8471
3892.00,0.8500
3891.00,0.8548
3890.00,0.8611
3889.00,0.8686
3888.00,0.8781
3887.00,0.8905
3886.00,0.9060
3885.00,0.9237
3884.00,0.9420
3883.00,0.9607
3882.00,0.9807
3881.00,1.0030
3880.00,1.0274
3879.00,1.0525
3878.00,1.0771
3877.00,1.1007
3876.00,1.1244
3875.00,1.1491
3874.00,1.1747
3873.00,1.2003
3872.00,1.2257
3871.00,1.2514
3870.00,1.2781
3869.00,1.3054
3868.00,1.3318
3867.00,1.3566
3866.00,1.3806
3865.00,1.4049
3864.00,1.4293
3863.00,1.4534
3862.00,1.4770
3861.00,1.4997
3860.00,1.5211
3859.00,1.5406
3858.00,1.5582
3857.00,1.5745
3856.00,1.5902
3855.00,1.6057
3854.00,1.6213
3853.00,1.6370
3852.00,1.6524
3851.00,1.6673
3850.00,1.6817
3849.00,1.6959
3848.00,1.7096
3847.00,1.7223
3846.00,1.7335
3845.00,1.7433
3844.00,1.7521
3843.00,1.7603
3842.00,1.7681
3841.00,1.7756
3840.00,1.7828
3839.00,1.7898
3838.00,1.7963
3837.00,1.8018
3836.00,1.8060
3835.00,1.8095
3834.00,1.8129
3833.00,1.8166
3832.00,1.8203
3831.00,1.8233
3830.00,1.8253
3829.00,1.8264
3828.00,1.8267
3827.00,1.8264
3826.00,1.8256
3825.00,1.8246
3824.00,1.8232
3823.00,1.8214
3822.00,1.8190
3821.00,1.8155
3820.00,1.8112
3819.00,1.8066
3818.00,1.8021
3817.00,1.7971
3816.00,1.7910
3815.00,1.7837
3814.00,1.7753
3813.00,1.7667
3812.00,1.7588
3811.00,1.7513
3810.00,1.7436
3809.00,1.7350
3808.00,1.7249
3807.00,1.7134
3806.00,1.7010
3805.00,1.6887
3804.00,1.6768
3803.00,1.6652
3802.00,1.6526
3801.00,1.6381
3800.00,1.6222
3799.00,1.6061
3798.00,1.5902
3797.00,1.5742
3796.00,1.5574
3795.00,1.5393
3794.00,1.5199
3793.00,1.4996
3792.00,1.4784
3791.00,1.4565
3790.00,1.4336
3789.00,1.4099
3788.00,1.3856
3787.00,1.3607
3786.00,1.3351
3785.00,1.3088
3784.00,1.2821
3783.00,1.2553
3782.00,1.2285
3781.00,1.2014
3780.00,1.1736
3779.00,1.1454
3778.00,1.1175
3777.00,1.0906
3776.00,1.0649
3775.00,1.0404
3774.00,1.0172
3773.00,0.9955
3772.00,0.9755
3771.00,0.9568
3770.00,0.9393
3769.00,0.9232
3768.00,0.9091
3767.00,0.8974
3766.00,0.8884
3765.00,0.8819
3764.00,0.8778
3763.00,0.8760
3762.00,0.8770
3761.00,0.8809
3760.00,0.8878
3759.00,0.8970
3758.00,0.9083
3757.00,0.9216
3756.00,0.9364
3755.00,0.9525
3754.00,0.9699
3753.00,0.9892
3752.00,1.0107
3751.00,1.0345
3750.00,1.0605
3749.00,1.0878
3748.00,1.1143
3747.00,1.1389
3746.00,1.1630
3745.00,1.1895
3744.00,1.2196
3743.00,1.2508
3742.00,1.2804
3741.00,1.3083
3740.00,1.3362
3739.00,1.3641
3738.00,1.3910
3737.00,1.4169
3736.00,1.4427
3735.00,1.4688
3734.00,1.4952
3733.00,1.5217
3732.00,1.5479
3731.00,1.5727
3730.00,1.5951
3729.00,1.6155
3728.00,1.6348
3727.00,1.6536
3726.00,1.6719
3725.00,1.6895
3724.00,1.7067
3723.00,1.7234
3722.00,1.7394
3721.00,1.7542
3720.00,1.7679
3719.00,1.7806
3718.00,1.7925
3717.00,1.8040
3716.00,1.8153
3715.00,1.8258
3714.00,1.8351
3713.00,1.8432
3712.00,1.8503
3711.00,1.8570
3710.00,1.8640
3709.00,1.8713
3708.00,1.8781
3707.00,1.8838
3706.00,1.8885
3705.00,1.8926
3704.00,1.8964
3703.00,1.8995
3702.00,1.9015
3701.00,1.9028
3700.00,1.9036
3699.00,1.9043
3698.00,1.9046
3697.00,1.9046
3696.00,1.9041
3695.00,1.9030
3694.00,1.9013
3693.00,1.8993
3692.00,1.8973
3691.00,1.8948
3690.00,1.8916
3689.00,1.8873
3688.00,1.8819
3687.00,1.8751
3686.00,1.8672
3685.00,1.8592
3684.00,1.8519
3683.00,1.8451
3682.00,1.8377
3681.00,1.8293
3680.00,1.8201
3679.00,1.8105
3678.00,1.8006
3677.00,1.7899
3676.00,1.7773
3675.00,1.7625
3674.00,1.7468
3673.00,1.7318
3672.00,1.7173
3671.00,1.7021
3670.00,1.6850
3669.00,1.6663
3668.00,1.6474
3667.00,1.6294
3666.00,1.6120
3665.00,1.5946
3664.00,1.5767
3663.00,1.5582
3662.00,1.5391
3661.00,1.5199
3660.00,1.5008
3659.00,1.4820
3658.00,1.4632
3657.00,1.4438
3656.00,1.4236
3655.00,1.4035
3654.00,1.3847
3653.00,1.3683
3652.00,1.3538
3651.00,1.3401
3650.00,1.3260
3649.00,1.3114
3648.00,1.2975
3647.00,1.2855
3646.00,1.2752
3645.00,1.2665
3644.00,1.2597
3643.00,1.2549
3642.00,1.2519
3641.00,1.2504
3640.00,1.2502
3639.00,1.2513
3638.00,1.2539
3637.00,1.2579
3636.00,1.2631
3635.00,1.2698
3634.00,1.2778
3633.00,1.2868
3632.00,1.2966
3631.00,1.3075
3630.00,1.3198
3629.00,1.3335
3628.00,1.3478
3627.00,1.3621
3626.00,1.3767
3625.00,1.3922
3624.00,1.4090
3623.00,1.4265
3622.00,1.4440
3621.00,1.4613
3620.00,1.4792
3619.00,1.4977
3618.00,1.5165
3617.00,1.5351
3616.00,1.5530
3615.00,1.5706
3614.00,1.5884
3613.00,1.6064
3612.00,1.6239
3611.00,1.6402
3610.00,1.6556
3609.00,1.6711
3608.00,1.6872
3607.00,1.7037
3606.00,1.7202
3605.00,1.7364
3604.00,1.7522
3603.00,1.7675
3602.00,1.7821
3601.00,1.7962
3600.00,1.8100
3599.00,1.8233
3598.00,1.8362
3597.00,1.8486
3596.00,1.8603
3595.00,1.8714
3594.00,1.8821
3593.00,1.8928
3592.00,1.9034
3591.00,1.9135
3590.00,1.9231
3589.00,1.9324
3588.00,1.9416
3587.00,1.9507
3586.00,1.9600
3585.00,1.9692
3584.00,1.9780
3583.00,1.9858
3582.00,1.9928
3581.00,1.9993
3580.00,2.0054
3579.00,2.0112
3578.00,2.0168
3577.00,2.0223
3576.00,2.0276
3575.00,2.0325
3574.00,2.0372
3573.00,2.0416
3572.00,2.0457
3571.00,2.0491
3570.00,2.0518
3569.00,2.0540
3568.00,2.0556
3567.00,2.0566
3566.00,2.0575
3565.00,2.0585
3564.00,2.0595
3563.00,2.0601
3562.00,2.0599
3561.00,2.0592
3560.00,2.0578
3559.00,2.0560
3558.00,2.0540
3557.00,2.0520
3556.00,2.0500
3555.00,2.0478
3554.00,2.0452
3553.00,2.0421
3552.00,2.0386
3551.00,2.0347
3550.00,2.0306
3549.00,2.0263
3548.00,2.0215
3547.00,2.0159
3546.00,2.0097
3545.00,2.0034
3544.00,1.9973
3543.00,1.9915
3542.00,1.9854
3541.00,1.9787
3540.00,1.9713
3539.00,1.9633
3538.00,1.9552
3537.00,1.9471
3536.00,1.9387
3535.00,1.9298
3534.00,1.9207
3533.00,1.9118
3532.00,1.9030
3531.00,1.8941
3530.00,1.8847
3529.00,1.8750
3528.00,1.8650
3527.00,1.8548
3526.00,1.8446
3525.00,1.8342
3524.00,1.8238
3523.00,1.8132
3522.00,1.8027
3521.00,1.7925
3520.00,1.7825
3519.00,1.7726
3518.00,1.7624
3517.00,1.7519
3516.00,1.7414
3515.00,1.7309
3514.00,1.7207
3513.00,1.7108
3512.00,1.7013
3511.00,1.6920
3510.00,1.6828
3509.00,1.6738
3508.00,1.6651
3507.00,1.6566
3506.00,1.6485
3505.00,1.6408
3504.00,1.6337
3503.00,1.6272
3502.00,1.6213
3501.00,1.6160
3500.00,1.6111
3499.00,1.6065
3498.00,1.6023
3497.00,1.5989
3496.00,1.5964
3495.00,1.5949
3494.00,1.5942
3493.00,1.5942
3492.00,1.5950
3491.00,1.5966
3490.00,1.5993
3489.00,1.6029
3488.00,1.6074
3487.00,1.6126
3486.00,1.6184
3485.00,1.6250
3484.00,1.6324
3483.00,1.6405
3482.00,1.6492
3481.00,1.6586
3480.00,1.6685
3479.00,1.6789
3478.00,1.6896
3477.00,1.7006
3476.00,1.7119
3475.00,1.7235
3474.00,1.7353
3473.00,1.7474
3472.00,1.7597
3471.00,1.7723
3470.00,1.7850
3469.00,1.7977
3468.00,1.8106
3467.00,1.8237
3466.00,1.8368
3465.00,1.8498
3464.00,1.8627
3463.00,1.8753
3462.00,1.8876
3461.00,1.8995
3460.00,1.9111
3459.00,1.9226
3458.00,1.9341
3457.00,1.9456
3456.00,1.9571
3455.00,1.9682
3454.00,1.9789
3453.00,1.9891
3452.00,1.9986
3451.00,2.0078
3450.00,2.0167
3449.00,2.0257
3448.00,2.0346
3447.00,2.0428
3446.00,2.0504
3445.00,2.0576
3444.00,2.0647
3443.00,2.0715
3442.00,2.0780
3441.00,2.0840
3440.00,2.0895
3439.00,2.0945
3438.00,2.0991
3437.00,2.1035
3436.00,2.1080
3435.00,2.1124
3434.00,2.1164
3433.00,2.1198
3432.00,2.1224
3431.00,2.1242
3430.00,2.1257
3429.00,2.1271
3428.00,2.1286
3427.00,2.1297
3426.00,2.1301
3425.00,2.1297
3424.00,2.1289
3423.00,2.1281
3422.00,2.1274
3421.00,2.1269
3420.00,2.1262
3419.00,2.1250
3418.00,2.1229
3417.00,2.1201
3416.00,2.1170
3415.00,2.1141
3414.00,2.1116
3413.00,2.1093
3412.00,2.1067
3411.00,2.1034
3410.00,2.0997
3409.00,2.0959
3408.00,2.0919
3407.00,2.0876
3406.00,2.0825
3405.00,2.0768
3404.00,2.0705
3403.00,2.0636
3402.00,2.0560
3401.00,2.0476
3400.00,2.0386
3399.00,2.0291
3398.00,2.0189
3397.00,2.0079
3396.00,1.9958
3395.00,1.9828
3394.00,1.9693
3393.00,1.9555
3392.00,1.9414
3391.00,1.9270
3390.00,1.9122
3389.00,1.8970
3388.00,1.8814
3387.00,1.8653
3386.00,1.8487
3385.00,1.8314
3384.00,1.8134
3383.00,1.7949
3382.00,1.7762
3381.00,1.7575
3380.00,1.7389
3379.00,1.7203
3378.00,1.7014
3377.00,1.6823
3376.00,1.6629
3375.00,1.6436
3374.00,1.6247
3373.00,1.6063
3372.00,1.5885
3371.00,1.5712
3370.00,1.5546
3369.00,1.5389
3368.00,1.5243
3367.00,1.5106
3366.00,1.4980
3365.00,1.4867
3364.00,1.4768
3363.00,1.4682
3362.00,1.4611
3361.00,1.4553
3360.00,1.4510
3359.00,1.4482
3358.00,1.4472
3357.00,1.4477
3356.00,1.4499
3355.00,1.4536
3354.00,1.4588
3353.00,1.4656
3352.00,1.4739
3351.00,1.4834
3350.00,1.4942
3349.00,1.5060
3348.00,1.5188
3347.00,1.5326
3346.00,1.5474
3345.00,1.5631
3344.00,1.5795
3343.00,1.5964
3342.00,1.6135
3341.00,1.6309
3340.00,1.6488
3339.00,1.6670
3338.00,1.6855
3337.00,1.7041
3336.00,1.7229
3335.00,1.7418
3334.00,1.7604
3333.00,1.7788
3332.00,1.7968
3331.00,1.8145
3330.00,1.8318
3329.00,1.8489
3328.00,1.8655
3327.00,1.8815
3326.00,1.8970
3325.00,1.9121
3324.00,1.9269
3323.00,1.9414
3322.00,1.9552
3321.00,1.9684
3320.00,1.9813
3319.00,1.9941
3318.00,2.0066
3317.00,2.0186
3316.00,2.0298
3315.00,2.0401
3314.00,2.0498
3313.00,2.0589
3312.00,2.0676
3311.00,2.0757
3310.00,2.0835
3309.00,2.0913
3308.00,2.0989
3307.00,2.1060
3306.00,2.1123
3305.00,2.1182
3304.00,2.1238
3303.00,2.1287
3302.00,2.1327
3301.00,2.1357
3300.00,2.1382
3299.00,2.1407
3298.00,2.1434
3297.00,2.1458
3296.00,2.1476
3295.00,2.1484
3294.00,2.1486
3293.00,2.1481
3292.00,2.1470
3291.00,2.1453
3290.00,2.1435
3289.00,2.1415
3288.00,2.1392
3287.00,2.1365
3286.00,2.1336
3285.00,2.1307
3284.00,2.1275
3283.00,2.1235
3282.00,2.1184
3281.00,2.1123
3280.00,2.1057
3279.00,2.0989
3278.00,2.0921
3277.00,2.0854
3276.00,2.0784
3275.00,2.0705
3274.00,2.0617
3273.00,2.0521
3272.00,2.0422
3271.00,2.0320
3270.00,2.0214
3269.00,2.0102
3268.00,1.9987
3267.00,1.9867
3266.00,1.9744
3265.00,1.9617
3264.00,1.9486
3263.00,1.9352
3262.00,1.9214
3261.00,1.9070
3260.00,1.8920
3259.00,1.8764
3258.00,1.8604
3257.00,1.8444
3256.00,1.8282
3255.00,1.8118
3254.00,1.7951
3253.00,1.7782
3252.00,1.7610
3251.00,1.7436
3250.00,1.7260
3249.00,1.7085
3248.00,1.6915
3247.00,1.6750
3246.00,1.6590
3245.00,1.6431
3244.00,1.6276
3243.00,1.6127
3242.00,1.5984
3241.00,1.5849
3240.00,1.5722
3239.00,1.5605
3238.00,1.5499
3237.00,1.5405
3236.00,1.5323
3235.00,1.5252
3234.00,1.5195
3233.00,1.5151
3232.00,1.5121
3231.00,1.5104
3230.00,1.5101
3229.00,1.5111
3228.00,1.5136
3227.00,1.5177
3226.00,1.5233
3225.00,1.5304
3224.00,1.5390
3223.00,1.5486
3222.00,1.5591
3221.00,1.5705
3220.00,1.5829
3219.00,1.5962
3218.00,1.6106
3217.00,1.6259
3216.00,1.6418
3215.00,1.6581
3214.00,1.6749
3213.00,1.6920
3212.00,1.7097
3211.00,1.7277
3210.00,1.7459
3209.00,1.7640
3208.00,1.7821
3207.00,1.8001
3206.00,1.8180
3205.00,1.8358
3204.00,1.8536
3203.00,1.8712
3202.00,1.8886
3201.00,1.9056
3200.00,1.9222
3199.00,1.9383
3198.00,1.9540
3197.00,1.9693
3196.00,1.9841
3195.00,1.9979
3194.00,2.0108
3193.00,2.0234
3192.00,2.0360
3191.00,2.0487
3190.00,2.0613
3189.00,2.0734
3188.00,2.0849
3187.00,2.0956
3186.00,2.1053
3185.00,2.1142
3184.00,2.1227
3183.00,2.1307
3182.00,2.1383
3181.00,2.1458
3180.00,2.1533
3179.00,2.1606
3178.00,2.1673
3177.00,2.1730
3176.00,2.1779
3175.00,2.1821
3174.00,2.1857
3173.00,2.1888
3172.00,2.1917
3171.00,2.1946
3170.00,2.1975
3169.00,2.2001
3168.00,2.2022
3167.00,2.2037
3166.00,2.2046
3165.00,2.2052
3164.00,2.2053
3163.00,2.2053
3162.00,2.2053
3161.00,2.2052
3160.00,2.2045
3159.00,2.2029
3158.00,2.2005
3157.00,2.1978
3156.00,2.1951
3155.00,2.1921
3154.00,2.1889
3153.00,2.1855
3152.00,2.1816
3151.00,2.1767
3150.00,2.1710
3149.00,2.1645
3148.00,2.1575
3147.00,2.1499
3146.00,2.1416
3145.00,2.1324
3144.00,2.1225
3143.00,2.1118
3142.00,2.1007
3141.00,2.0895
3140.00,2.0784
3139.00,2.0673
3138.00,2.0557
3137.00,2.0432
3136.00,2.0299
3135.00,2.0157
3134.00,2.0010
3133.00,1.9856
3132.00,1.9697
3131.00,1.9533
3130.00,1.9365
3129.00,1.9194
3128.00,1.9020
3127.00,1.8842
3126.00,1.8660
3125.00,1.8474
3124.00,1.8285
3123.00,1.8095
3122.00,1.7906
3121.00,1.7717
3120.00,1.7528
3119.00,1.7339
3118.00,1.7152
3117.00,1.6971
3116.00,1.6796
3115.00,1.6629
3114.00,1.6471
3113.00,1.6321
3112.00,1.6182
3111.00,1.6054
3110.00,1.5940
3109.00,1.5840
3108.00,1.5755
3107.00,1.5687
3106.00,1.5634
3105.00,1.5598
3104.00,1.5580
3103.00,1.5580
3102.00,1.5601
3101.00,1.5639
3100.00,1.5694
3099.00,1.5765
3098.00,1.5850
3097.00,1.5950
3096.00,1.6066
3095.00,1.6196
3094.00,1.6340
3093.00,1.6498
3092.00,1.6667
3091.00,1.6845
3090.00,1.7029
3089.00,1.7221
3088.00,1.7420
3087.00,1.7626
3086.00,1.7834
3085.00,1.8045
3084.00,1.8254
3083.00,1.8461
3082.00,1.8664
3081.00,1.8868
3080.00,1.9075
3079.00,1.9284
3078.00,1.9490
3077.00,1.9688
3076.00,1.9878
3075.00,2.0062
3074.00,2.0243
3073.00,2.0420
3072.00,2.0593
3071.00,2.0760
3070.00,2.0922
3069.00,2.1078
3068.00,2.1231
3067.00,2.1381
3066.00,2.1523
3065.00,2.1656
3064.00,2.1780
3063.00,2.1895
3062.00,2.1998
3061.00,2.2086
3060.00,2.2163
3059.00,2.2238
3058.00,2.2318
3057.00,2.2402
3056.00,2.2486
3055.00,2.2565
3054.00,2.2637
3053.00,2.2701
3052.00,2.2752
3051.00,2.2788
3050.00,2.2813
3049.00,2.2835
3048.00,2.2855
3047.00,2.2874
3046.00,2.2888
3045.00,2.2894
3044.00,2.2885
3043.00,2.2861
3042.00,2.2827
3041.00,2.2791
3040.00,2.2758
3039.00,2.2724
3038.00,2.2687
3037.00,2.2647
3036.00,2.2601
3035.00,2.2541
3034.00,2.2461
3033.00,2.2365
3032.00,2.2261
3031.00,2.2158
3030.00,2.2056
3029.00,2.1951
3028.00,2.1837
3027.00,2.1708
3026.00,2.1564
3025.00,2.1409
3024.00,2.1248
3023.00,2.1080
3022.00,2.0902
3021.00,2.0714
3020.00,2.0516
3019.00,2.0311
3018.00,2.0098
3017.00,1.9876
3016.00,1.9649
3015.00,1.9419
3014.00,1.9189
3013.00,1.8962
3012.00,1.8738
3011.00,1.8522
3010.00,1.8318
3009.00,1.8134
3008.00,1.7975
3007.00,1.7845
3006.00,1.7746
3005.00,1.7675
3004.00,1.7638
3003.00,1.7640
3002.00,1.7688
3001.00,1.7785
3000.00,1.7930
2999.00,1.8118
2998.00,1.8346
2997.00,1.8611
2996.00,1.8909
2995.00,1.9234
2994.00,1.9584
2993.00,1.9955
2992.00,2.0345
2991.00,2.0748
2990.00,2.1162
2989.00,2.1582
2988.00,2.2005
2987.00,2.2424
2986.00,2.2837
2985.00,2.3243
2984.00,2.3642
2983.00,2.4033
2982.00,2.4414
2981.00,2.4788
2980.00,2.5162
2979.00,2.5543
2978.00,2.5928
2977.00,2.6310
2976.00,2.6690
2975.00,2.7090
2974.00,2.7533
2973.00,2.8027
2972.00,2.8561
2971.00,2.9119
2970.00,2.9691
2969.00,3.0277
2968.00,3.0879
2967.00,3.1508
2966.00,3.2183
2965.00,3.2921
2964.00,3.3726
2963.00,3.4570
2962.00,3.5360
2961.00,3.5964
2960.00,3.6359
2959.00,3.6722
2958.00,3.7272
2957.00,3.8052
2956.00,3.8894
2955.00,3.9626
2954.00,4.0338
2953.00,4.1238
2952.00,4.2083
2951.00,4.1998
2950.00,4.1086
2949.00,4.0322
2948.00,4.0275
2947.00,4.0932
2946.00,4.1890
2945.00,4.2426
2944.00,4.2310
2943.00,4.2324
2942.00,4.3273
2941.00,4.5255
2940.00,4.5903
2939.00,4.5170
2938.00,4.4583
2937.00,4.4610
2936.00,4.4282
2935.00,4.3796
2934.00,4.4039
2933.00,4.5057
2932.00,4.6611
2931.00,4.7804
2930.00,4.7416
2929.00,4.6588
2928.00,4.6022
2927.00,4.5078
2926.00,4.3827
2925.00,4.2819
2924.00,4.2065
2923.00,4.1239
2922.00,4.0354
2921.00,3.9549
2920.00,3.8791
2919.00,3.7994
2918.00,3.7175
2917.00,3.6404
2916.00,3.5698
2915.00,3.5029
2914.00,3.4372
2913.00,3.3724
2912.00,3.3102
2911.00,3.2532
2910.00,3.2035
2909.00,3.1611
2908.00,3.1245
2907.00,3.0922
2906.00,3.0626
2905.00,3.0337
2904.00,3.0046
2903.00,2.9765
2902.00,2.9514
2901.00,2.9295
2900.00,2.9086
2899.00,2.8870
2898.00,2.8647
2897.00,2.8428
2896.00,2.8227
2895.00,2.8060
2894.00,2.7936
2893.00,2.7850
2892.00,2.7781
2891.00,2.7722
2890.00,2.7690
2889.00,2.7705
2888.00,2.7764
2887.00,2.7844
2886.00,2.7934
2885.00,2.8049
2884.00,2.8207
2883.00,2.8415
2882.00,2.8660
2881.00,2.8931
2880.00,2.9220
2879.00,2.9534
2878.00,2.9886
2877.00,3.0277
2876.00,3.0697
2875.00,3.1145
2874.00,3.1659
2873.00,3.2291
2872.00,3.3052
2871.00,3.3857
2870.00,3.4572
2869.00,3.5145
2868.00,3.5672
2867.00,3.6279
2866.00,3.6941
2865.00,3.7414
2864.00,3.7480
2863.00,3.7274
2862.00,3.7108
2861.00,3.7077
2860.00,3.6997
2859.00,3.6633
2858.00,3.5910
2857.00,3.4898
2856.00,3.3706
2855.00,3.2465
2854.00,3.1288
2853.00,3.0223
2852.00,2.9257
2851.00,2.8359
2850.00,2.7526
2849.00,2.6775
2848.00,2.6126
2847.00,2.5595
2846.00,2.5186
2845.00,2.4893
2844.00,2.4695
2843.00,2.4568
2842.00,2.4493
2841.00,2.4458
2840.00,2.4456
2839.00,2.4480
2838.00,2.4520
2837.00,2.4567
2836.00,2.4615
2835.00,2.4657
2834.00,2.4692
2833.00,2.4719
2832.00,2.4735
2831.00,2.4741
2830.00,2.4737
2829.00,2.4725
2828.00,2.4703
2827.00,2.4668
2826.00,2.4624
2825.00,2.4573
2824.00,2.4516
2823.00,2.4450
2822.00,2.4371
2821.00,2.4279
2820.00,2.4172
2819.00,2.4051
2818.00,2.3920
2817.00,2.3784
2816.00,2.3641
2815.00,2.3485
2814.00,2.3313
2813.00,2.3128
2812.00,2.2931
2811.00,2.2722
2810.00,2.2500
2809.00,2.2268
2808.00,2.2029
2807.00,2.1783
2806.00,2.1528
2805.00,2.1263
2804.00,2.0987
2803.00,2.0700
2802.00,2.0406
2801.00,2.0113
2800.00,1.9822
2799.00,1.9531
2798.00,1.9235
2797.00,1.8932
2796.00,1.8620
2795.00,1.8296
2794.00,1.7956
2793.00,1.7602
2792.00,1.7240
2791.00,1.6877
2790.00,1.6520
2789.00,1.6178
2788.00,1.5857
2787.00,1.5567
2786.00,1.5312
2785.00,1.5098
2784.00,1.4928
2783.00,1.4807
2782.00,1.4735
2781.00,1.4715
2780.00,1.4744
2779.00,1.4818
2778.00,1.4932
2777.00,1.5082
2776.00,1.5266
2775.00,1.5481
2774.00,1.5725
2773.00,1.5994
2772.00,1.6282
2771.00,1.6586
2770.00,1.6901
2769.00,1.7225
2768.00,1.7554
2767.00,1.7885
2766.00,1.8216
2765.00,1.8546
2764.00,1.8872
2763.00,1.9189
2762.00,1.9494
2761.00,1.9787
2760.00,2.0066
2759.00,2.0333
2758.00,2.0590
2757.00,2.0837
2756.00,2.1075
2755.00,2.1304
2754.00,2.1522
2753.00,2.1730
2752.00,2.1926
2751.00,2.2113
2750.00,2.2293
2749.00,2.2472
2748.00,2.2650
2747.00,2.2821
2746.00,2.2978
2745.00,2.3116
2744.00,2.3239
2743.00,2.3353
2742.00,2.3465
2741.00,2.3574
2740.00,2.3680
2739.00,2.3777
2738.00,2.3860
2737.00,2.3925
2736.00,2.3976
2735.00,2.4023
2734.00,2.4074
2733.00,2.4131
2732.00,2.4186
2731.00,2.4235
2730.00,2.4278
2729.00,2.4314
2728.00,2.4337
2727.00,2.4342
2726.00,2.4334
2725.00,2.4320
2724.00,2.4306
2723.00,2.4289
2722.00,2.4265
2721.00,2.4231
2720.00,2.4190
2719.00,2.4145
2718.00,2.4100
2717.00,2.4055
2716.00,2.4007
2715.00,2.3955
2714.00,2.3895
2713.00,2.3827
2712.00,2.3747
2711.00,2.3656
2710.00,2.3560
2709.00,2.3460
2708.00,2.3350
2707.00,2.3230
2706.00,2.3100
2705.00,2.2967
2704.00,2.2830
2703.00,2.2686
2702.00,2.2529
2701.00,2.2359
2700.00,2.2174
2699.00,2.1977
2698.00,2.1772
2697.00,2.1565
2696.00,2.1353
2695.00,2.1130
2694.00,2.0892
2693.00,2.0640
2692.00,2.0375
2691.00,2.0099
2690.00,1.9813
2689.00,1.9521
2688.00,1.9225
2687.00,1.8926
2686.00,1.8628
2685.00,1.8337
2684.00,1.8057
2683.00,1.7791
2682.00,1.7545
2681.00,1.7324
2680.00,1.7128
2679.00,1.6956
2678.00,1.6801
2677.00,1.6657
2676.00,1.6520
2675.00,1.6386
2674.00,1.6256
2673.00,1.6131
2672.00,1.6014
2671.00,1.5902
2670.00,1.5794
2669.00,1.5684
2668.00,1.5569
2667.00,1.5449
2666.00,1.5327
2665.00,1.5216
2664.00,1.5126
2663.00,1.5072
2662.00,1.5062
2661.00,1.5100
2660.00,1.5189
2659.00,1.5324
2658.00,1.5502
2657.00,1.5715
2656.00,1.5958
2655.00,1.6225
2654.00,1.6509
2653.00,1.6804
2652.00,1.7102
2651.00,1.7403
2650.00,1.7704
2649.00,1.8005
2648.00,1.8303
2647.00,1.8596
2646.00,1.8884
2645.00,1.9168
2644.00,1.9451
2643.00,1.9733
2642.00,2.0014
2641.00,2.0290
2640.00,2.0554
2639.00,2.0805
2638.00,2.1049
2637.00,2.1292
2636.00,2.1535
2635.00,2.1773
2634.00,2.2002
2633.00,2.2220
2632.00,2.2427
2631.00,2.2617
2630.00,2.2793
2629.00,2.2961
2628.00,2.3127
2627.00,2.3290
2626.00,2.3450
2625.00,2.3607
2624.00,2.3756
2623.00,2.3890
2622.00,2.4007
2621.00,2.4113
2620.00,2.4217
2619.00,2.4320
2618.00,2.4418
2617.00,2.4510
2616.00,2.4600
2615.00,2.4688
2614.00,2.4769
2613.00,2.4842
2612.00,2.4905
2611.00,2.4953
2610.00,2.4985
2609.00,2.5003
2608.00,2.5017
2607.00,2.5031
2606.00,2.5049
2605.00,2.5069
2604.00,2.5093
2603.00,2.5122
2602.00,2.5156
2601.00,2.5189
2600.00,2.5208
2599.00,2.5205
2598.00,2.5184
2597.00,2.5153
2596.00,2.5119
2595.00,2.5081
2594.00,2.5036
2593.00,2.4986
2592.00,2.4931
2591.00,2.4870
2590.00,2.4804
2589.00,2.4743
2588.00,2.4687
2587.00,2.4630
2586.00,2.4562
2585.00,2.4481
2584.00,2.4393
2583.00,2.4302
2582.00,2.4207
2581.00,2.4108
2580.00,2.4002
2579.00,2.3888
2578.00,2.3763
2577.00,2.3629
2576.00,2.3491
2575.00,2.3350
2574.00,2.3198
2573.00,2.3030
2572.00,2.2844
2571.00,2.2650
2570.00,2.2454
2569.00,2.2256
2568.00,2.2053
2567.00,2.1838
2566.00,2.1612
2565.00,2.1373
2564.00,2.1120
2563.00,2.0848
2562.00,2.0557
2561.00,2.0251
2560.00,1.9934
2559.00,1.9607
2558.00,1.9267
2557.00,1.8910
2556.00,1.8541
2555.00,1.8161
2554.00,1.7774
2553.00,1.7383
2552.00,1.6991
2551.00,1.6601
2550.00,1.6218
2549.00,1.5848
2548.00,1.5494
2547.00,1.5160
2546.00,1.4850
2545.00,1.4570
2544.00,1.4322
2543.00,1.4110
2542.00,1.3935
2541.00,1.3802
2540.00,1.3711
2539.00,1.3665
2538.00,1.3663
2537.00,1.3707
2536.00,1.3795
2535.00,1.3927
2534.00,1.4099
2533.00,1.4308
2532.00,1.4549
2531.00,1.4820
2530.00,1.5114
2529.00,1.5429
2528.00,1.5761
2527.00,1.6107
2526.00,1.6464
2525.00,1.6828
2524.00,1.7196
2523.00,1.7567
2522.00,1.7936
2521.00,1.8302
2520.00,1.8664
2519.00,1.9022
2518.00,1.9374
2517.00,1.9720
2516.00,2.0058
2515.00,2.0383
2514.00,2.0692
2513.00,2.0988
2512.00,2.1276
2511.00,2.1558
2510.00,2.1831
2509.00,2.2088
2508.00,2.2330
2507.00,2.2565
2506.00,2.2795
2505.00,2.3016
2504.00,2.3223
2503.00,2.3415
2502.00,2.3598
2501.00,2.3780
2500.00,2.3959
2499.00,2.4131
2498.00,2.4287
2497.00,2.4423
2496.00,2.4545
2495.00,2.4662
2494.00,2.4779
2493.00,2.4893
2492.00,2.4997
2491.00,2.5091
2490.00,2.5178
2489.00,2.5264
2488.00,2.5344
2487.00,2.5415
2486.00,2.5482
2485.00,2.5551
2484.00,2.5622
2483.00,2.5686
2482.00,2.5742
2481.00,2.5794
2480.00,2.5843
2479.00,2.5886
2478.00,2.5918
2477.00,2.5937
2476.00,2.5946
2475.00,2.5947
2474.00,2.5947
2473.00,2.5951
2472.00,2.5956
2471.00,2.5955
2470.00,2.5943
2469.00,2.5921
2468.00,2.5897
2467.00,2.5876
2466.00,2.5856
2465.00,2.5839
2464.00,2.5820
2463.00,2.5790
2462.00,2.5741
2461.00,2.5674
2460.00,2.5596
2459.00,2.5515
2458.00,2.5438
2457.00,2.5365
2456.00,2.5290
2455.00,2.5207
2454.00,2.5108
2453.00,2.5000
2452.00,2.4888
2451.00,2.4770
2450.00,2.4643
2449.00,2.4507
2448.00,2.4367
2447.00,2.4222
2446.00,2.4070
2445.00,2.3906
2444.00,2.3730
2443.00,2.3543
2442.00,2.3344
2441.00,2.3134
2440.00,2.2915
2439.00,2.2688
2438.00,2.2450
2437.00,2.2195
2436.00,2.1925
2435.00,2.1641
2434.00,2.1343
2433.00,2.1031
2432.00,2.0704
2431.00,2.0362
2430.00,2.0005
2429.00,1.9634
2428.00,1.9252
2427.00,1.8861
2426.00,1.8460
2425.00,1.8049
2424.00,1.7628
2423.00,1.7201
2422.00,1.6772
2421.00,1.6343
2420.00,1.5921
2419.00,1.5508
2418.00,1.5110
2417.00,1.4733
2416.00,1.4382
2415.00,1.4064
2414.00,1.3786
2413.00,1.3556
2412.00,1.3377
2411.00,1.3255
2410.00,1.3191
2409.00,1.3187
2408.00,1.3244
2407.00,1.3361
2406.00,1.3534
2405.00,1.3760
2404.00,1.4035
2403.00,1.4353
2402.00,1.4707
2401.00,1.5093
2400.00,1.5501
2399.00,1.5926
2398.00,1.6362
2397.00,1.6808
2396.00,1.7261
2395.00,1.7717
2394.00,1.8170
2393.00,1.8613
2392.00,1.9045
2391.00,1.9465
2390.00,1.9870
2389.00,2.0258
2388.00,2.0624
2387.00,2.0966
2386.00,2.1285
2385.00,2.1583
2384.00,2.1859
2383.00,2.2111
2382.00,2.2341
2381.00,2.2554
2380.00,2.2756
2379.00,2.2954
2378.00,2.3154
2377.00,2.3363
2376.00,2.3583
2375.00,2.3814
2374.00,2.4053
2373.00,2.4292
2372.00,2.4525
2371.00,2.4749
2370.00,2.4958
2369.00,2.5137
2368.00,2.5283
2367.00,2.5412
2366.00,2.5546
2365.00,2.5685
2364.00,2.5821
2363.00,2.5959
2362.00,2.6097
2361.00,2.6228
2360.00,2.6350
2359.00,2.6463
2358.00,2.6582
2357.00,2.6693
2356.00,2.6775
2355.00,2.6824
2354.00,2.6841
2353.00,2.6838
2352.00,2.6831
2351.00,2.6877
2350.00,2.6993
2349.00,2.7114
2348.00,2.7170
2347.00,2.7131
2346.00,2.7068
2345.00,2.7052
2344.00,2.7099
2343.00,2.7165
2342.00,2.7181
2341.00,2.7158
2340.00,2.7111
2339.00,2.7059
2338.00,2.7008
2337.00,2.6959
2336.00,2.6912
2335.00,2.6862
2334.00,2.6804
2333.00,2.6730
2332.00,2.6624
2331.00,2.6489
2330.00,2.6342
2329.00,2.6200
2328.00,2.6100
2327.00,2.6024
2326.00,2.5956
2325.00,2.5847
2324.00,2.5697
2323.00,2.5534
2322.00,2.5381
2321.00,2.5247
2320.00,2.5108
2319.00,2.4960
2318.00,2.4799
2317.00,2.4631
2316.00,2.4451
2315.00,2.4252
2314.00,2.4040
2313.00,2.3819
2312.00,2.3599
2311.00,2.3379
2310.00,2.3158
2309.00,2.2924
2308.00,2.2677
2307.00,2.2415
2306.00,2.2149
2305.00,2.1878
2304.00,2.1600
2303.00,2.1307
2302.00,2.0993
2301.00,2.0658
2300.00,2.0306
2299.00,1.9936
2298.00,1.9552
2297.00,1.9154
2296.00,1.8746
2295.00,1.8330
2294.00,1.7908
2293.00,1.7479
2292.00,1.7043
2291.00,1.6601
2290.00,1.6159
2289.00,1.5726
2288.00,1.5310
2287.00,1.4918
2286.00,1.4560
2285.00,1.4246
2284.00,1.3982
2283.00,1.3774
2282.00,1.3627
2281.00,1.3547
2280.00,1.3538
2279.00,1.3603
2278.00,1.3739
2277.00,1.3942
2276.00,1.4204
2275.00,1.4517
2274.00,1.4873
2273.00,1.5262
2272.00,1.5679
2271.00,1.6116
2270.00,1.6565
2269.00,1.7023
2268.00,1.7488
2267.00,1.7960
2266.00,1.8436
2265.00,1.8908
2264.00,1.9371
2263.00,1.9823
2262.00,2.0263
2261.00,2.0693
2260.00,2.1110
2259.00,2.1509
2258.00,2.1886
2257.00,2.2242
2256.00,2.2577
2255.00,2.2893
2254.00,2.3192
2253.00,2.3472
2252.00,2.3735
2251.00,2.3979
2250.00,2.4204
2249.00,2.4409
2248.00,2.4603
2247.00,2.4794
2246.00,2.4990
2245.00,2.5186
2244.00,2.5377
2243.00,2.5555
2242.00,2.5723
2241.00,2.5883
2240.00,2.6035
2239.00,2.6181
2238.00,2.6319
2237.00,2.6454
2236.00,2.6586
2235.00,2.6716
2234.00,2.6837
2233.00,2.6938
2232.00,2.7019
2231.00,2.7088
2230.00,2.7158
2229.00,2.7229
2228.00,2.7299
2227.00,2.7367
2226.00,2.7435
2225.00,2.7501
2224.00,2.7560
2223.00,2.7607
2222.00,2.7643
2221.00,2.7672
2220.00,2.7699
2219.00,2.7726
2218.00,2.7756
2217.00,2.7782
2216.00,2.7797
2215.00,2.7801
2214.00,2.7798
2213.00,2.7789
2212.00,2.7770
2211.00,2.7747
2210.00,2.7736
2209.00,2.7743
2208.00,2.7753
2207.00,2.7744
2206.00,2.7712
2205.00,2.7663
2204.00,2.7601
2203.00,2.7529
2202.00,2.7450
2201.00,2.7368
2200.00,2.7283
2199.00,2.7196
2198.00,2.7116
2197.00,2.7045
2196.00,2.6976
2195.00,2.6894
2194.00,2.6793
2193.00,2.6674
2192.00,2.6541
2191.00,2.6396
2190.00,2.6245
2189.00,2.6089
2188.00,2.5927
2187.00,2.5755
2186.00,2.5579
2185.00,2.5405
2184.00,2.5233
2183.00,2.5057
2182.00,2.4875
2181.00,2.4681
2180.00,2.4472
2179.00,2.4243
2178.00,2.4000
2177.00,2.3750
2176.00,2.3494
2175.00,2.3223
2174.00,2.2932
2173.00,2.2623
2172.00,2.2300
2171.00,2.1956
2170.00,2.1586
2169.00,2.1190
2168.00,2.0772
2167.00,2.0335
2166.00,1.9875
2165.00,1.9392
2164.00,1.8889
2163.00,1.8372
2162.00,1.7851
2161.00,1.7334
2160.00,1.6832
2159.00,1.6353
2158.00,1.5903
2157.00,1.5491
2156.00,1.5125
2155.00,1.4812
2154.00,1.4560
2153.00,1.4378
2152.00,1.4270
2151.00,1.4241
2150.00,1.4289
2149.00,1.4415
2148.00,1.4613
2147.00,1.4877
2146.00,1.5199
2145.00,1.5571
2144.00,1.5983
2143.00,1.6428
2142.00,1.6897
2141.00,1.7384
2140.00,1.7880
2139.00,1.8380
2138.00,1.8879
2137.00,1.9372
2136.00,1.9858
2135.00,2.0332
2134.00,2.0792
2133.00,2.1230
2132.00,2.1645
2131.00,2.2036
2130.00,2.2411
2129.00,2.2774
2128.00,2.3125
2127.00,2.3456
2126.00,2.3767
2125.00,2.4063
2124.00,2.4349
2123.00,2.4627
2122.00,2.4894
2121.00,2.5147
2120.00,2.5383
2119.00,2.5600
2118.00,2.5805
2117.00,2.6003
2116.00,2.6190
2115.00,2.6360
2114.00,2.6515
2113.00,2.6670
2112.00,2.6836
2111.00,2.7009
2110.00,2.7176
2109.00,2.7327
2108.00,2.7458
2107.00,2.7566
2106.00,2.7652
2105.00,2.7732
2104.00,2.7827
2103.00,2.7945
2102.00,2.8071
2101.00,2.8183
2100.00,2.8270
2099.00,2.8338
2098.00,2.8400
2097.00,2.8463
2096.00,2.8523
2095.00,2.8570
2094.00,2.8601
2093.00,2.8617
2092.00,2.8626
2091.00,2.8643
2090.00,2.8679
2089.00,2.8729
2088.00,2.8774
2087.00,2.8794
2086.00,2.8795
2085.00,2.8801
2084.00,2.8815
2083.00,2.8818
2082.00,2.8789
2081.00,2.8731
2080.00,2.8667
2079.00,2.8617
2078.00,2.8591
2077.00,2.8584
2076.00,2.8576
2075.00,2.8538
2074.00,2.8462
2073.00,2.8374
2072.00,2.8302
2071.00,2.8242
2070.00,2.8167
2069.00,2.8066
2068.00,2.7955
2067.00,2.7852
2066.00,2.7755
2065.00,2.7656
2064.00,2.7554
2063.00,2.7457
2062.00,2.7360
2061.00,2.7252
2060.00,2.7131
2059.00,2.7001
2058.00,2.6865
2057.00,2.6713
2056.00,2.6535
2055.00,2.6330
2054.00,2.6108
2053.00,2.5878
2052.00,2.5644
2051.00,2.5404
2050.00,2.5153
2049.00,2.4888
2048.00,2.4608
2047.00,2.4309
2046.00,2.3989
2045.00,2.3645
2044.00,2.3278
2043.00,2.2887
2042.00,2.2470
2041.00,2.2029
2040.00,2.1572
2039.00,2.1110
2038.00,2.0639
2037.00,2.0153
2036.00,1.9646
2035.00,1.9121
2034.00,1.8588
2033.00,1.8058
2032.00,1.7541
2031.00,1.7048
2030.00,1.6590
2029.00,1.6175
2028.00,1.5813
2027.00,1.5512
2026.00,1.5278
2025.00,1.5120
2024.00,1.5042
2023.00,1.5044
2022.00,1.5128
2021.00,1.5289
2020.00,1.5517
2019.00,1.5798
2018.00,1.6123
2017.00,1.6495
2016.00,1.6919
2015.00,1.7395
2014.00,1.7914
2013.00,1.8455
2012.00,1.8997
2011.00,1.9528
2010.00,2.0042
2009.00,2.0541
2008.00,2.1026
2007.00,2.1499
2006.00,2.1961
2005.00,2.2410
2004.00,2.2841
2003.00,2.3251
2002.00,2.3644
2001.00,2.4025
2000.00,2.4390
1999.00,2.4726
1998.00,2.5028
1997.00,2.5301
1996.00,2.5554
1995.00,2.5796
1994.00,2.6030
1993.00,2.6254
1992.00,2.6464
1991.00,2.6666
1990.00,2.6874
1989.00,2.7092
1988.00,2.7306
1987.00,2.7499
1986.00,2.7676
1985.00,2.7853
1984.00,2.8038
1983.00,2.8219
1982.00,2.8389
1981.00,2.8545
1980.00,2.8684
1979.00,2.8800
1978.00,2.8895
1977.00,2.8984
1976.00,2.9073
1975.00,2.9156
1974.00,2.9224
1973.00,2.9287
1972.00,2.9357
1971.00,2.9439
1970.00,2.9517
1969.00,2.9566
1968.00,2.9568
1967.00,2.9531
1966.00,2.9494
1965.00,2.9497
1964.00,2.9551
1963.00,2.9635
1962.00,2.9719
1961.00,2.9786
1960.00,2.9829
1959.00,2.9851
1958.00,2.9855
1957.00,2.9837
1956.00,2.9791
1955.00,2.9717
1954.00,2.9636
1953.00,2.9575
1952.00,2.9544
1951.00,2.9532
1950.00,2.9523
1949.00,2.9507
1948.00,2.9477
1947.00,2.9425
1946.00,2.9344
1945.00,2.9236
1944.00,2.9102
1943.00,2.8937
1942.00,2.8756
1941.00,2.8603
1940.00,2.8517
1939.00,2.8483
1938.00,2.8448
1937.00,2.8364
1936.00,2.8227
1935.00,2.8062
1934.00,2.7886
1933.00,2.7704
1932.00,2.7521
1931.00,2.7346
1930.00,2.7177
1929.00,2.6989
1928.00,2.6766
1927.00,2.6507
1926.00,2.6226
1925.00,2.5923
1924.00,2.5582
1923.00,2.5199
1922.00,2.4790
1921.00,2.4388
1920.00,2.4010
1919.00,2.3641
1918.00,2.3249
1917.00,2.2813
1916.00,2.2342
1915.00,2.1870
1914.00,2.1411
1913.00,2.0944
1912.00,2.0434
1911.00,1.9867
1910.00,1.9264
1909.00,1.8661
1908.00,1.8090
1907.00,1.7572
1906.00,1.7121
1905.00,1.6738
1904.00,1.6417
1903.00,1.6161
1902.00,1.5981
1901.00,1.5894
1900.00,1.5914
1899.00,1.6034
1898.00,1.6245
1897.00,1.6534
1896.00,1.6893
1895.00,1.7319
1894.00,1.7806
1893.00,1.8344
1892.00,1.8914
1891.00,1.9497
1890.00,2.0076
1889.00,2.0651
1888.00,2.1229
1887.00,2.1823
1886.00,2.2425
1885.00,2.3006
1884.00,2.3540
1883.00,2.4023
1882.00,2.4471
1881.00,2.4897
1880.00,2.5300
1879.00,2.5674
1878.00,2.6024
1877.00,2.6352
1876.00,2.6648
1875.00,2.6910
1874.00,2.7150
1873.00,2.7372
1872.00,2.7573
1871.00,2.7753
1870.00,2.7913
1869.00,2.8050
1868.00,2.8163
1867.00,2.8283
1866.00,2.8461
1865.00,2.8708
1864.00,2.8977
1863.00,2.9208
1862.00,2.9377
1861.00,2.9504
1860.00,2.9622
1859.00,2.9751
1858.00,2.9895
1857.00,3.0046
1856.00,3.0190
1855.00,3.0300
1854.00,3.0359
1853.00,3.0375
1852.00,3.0385
1851.00,3.0412
1850.00,3.0444
1849.00,3.0440
1848.00,3.0377
1847.00,3.0288
1846.00,3.0234
1845.00,3.0233
1844.00,3.0241
1843.00,3.0214
1842.00,3.0183
1841.00,3.0225
1840.00,3.0344
1839.00,3.0463
1838.00,3.0524
1837.00,3.0527
1836.00,3.0509
1835.00,3.0483
1834.00,3.0418
1833.00,3.0294
1832.00,3.0131
1831.00,2.9965
1830.00,2.9810
1829.00,2.9648
1828.00,2.9465
1827.00,2.9277
1826.00,2.9093
1825.00,2.8893
1824.00,2.8669
1823.00,2.8460
1822.00,2.8308
1821.00,2.8203
1820.00,2.8080
1819.00,2.7886
1818.00,2.7619
1817.00,2.7310
1816.00,2.6998
1815.00,2.6699
1814.00,2.6401
1813.00,2.6089
1812.00,2.5764
1811.00,2.5447
1810.00,2.5158
1809.00,2.4900
1808.00,2.4667
1807.00,2.4445
1806.00,2.4209
1805.00,2.3924
1804.00,2.3553
1803.00,2.3080
1802.00,2.2530
1801.00,2.1985
1800.00,2.1522
1799.00,2.1171
1798.00,2.0906
1797.00,2.0697
1796.00,2.0552
1795.00,2.0505
1794.00,2.0590
1793.00,2.0816
1792.00,2.1147
1791.00,2.1545
1790.00,2.2037
1789.00,2.2682
1788.00,2.3454
1787.00,2.4247
1786.00,2.4964
1785.00,2.5588
1784.00,2.6160
1783.00,2.6724
1782.00,2.7293
1781.00,2.7870
1780.00,2.8422
1779.00,2.8918
1778.00,2.9360
1777.00,2.9766
1776.00,3.0134
1775.00,3.0441
1774.00,3.0707
1773.00,3.0991
1772.00,3.1285
1771.00,3.1490
1770.00,3.1592
1769.00,3.1700
1768.00,3.1877
1767.00,3.2079
1766.00,3.2239
1765.00,3.2366
1764.00,3.2493
1763.00,3.2606
1762.00,3.2660
1761.00,3.2641
1760.00,3.2592
1759.00,3.2559
1758.00,3.2535
1757.00,3.2503
1756.00,3.2483
1755.00,3.2502
1754.00,3.2573
1753.00,3.2663
1752.00,3.2730
1751.00,3.2786
1750.00,3.2906
1749.00,3.3153
1748.00,3.3509
1747.00,3.3886
1746.00,3.4234
1745.00,3.4583
1744.00,3.4981
1743.00,3.5476
1742.00,3.6092
1741.00,3.6879
1740.00,3.7888
1739.00,3.9040
1738.00,4.0065
1737.00,4.0720
1736.00,4.0929
1735.00,4.0773
1734.00,4.0583
1733.00,4.0676
1732.00,4.1259
1731.00,4.2362
1730.00,4.3362
1729.00,4.3560
1728.00,4.3510
1727.00,4.3928
1726.00,4.4982
1725.00,4.6735
1724.00,4.8455
1723.00,4.8073
1722.00,4.7138
1721.00,4.6474
1720.00,4.5606
1719.00,4.5580
1718.00,4.7534
1717.00,4.6400
1716.00,4.3229
1715.00,4.2287
1714.00,4.2353
1713.00,4.2803
1712.00,4.3416
1711.00,4.4193
1710.00,4.5537
1709.00,4.7404
1708.00,4.8414
1707.00,4.8823
1706.00,4.8951
1705.00,4.6856
1704.00,4.5035
1703.00,4.4309
1702.00,4.4500
1701.00,4.5532
1700.00,4.6004
1699.00,4.4931
1698.00,4.4179
1697.00,4.4453
1696.00,4.5326
1695.00,4.5247
1694.00,4.4285
1693.00,4.3706
1692.00,4.2837
1691.00,4.1392
1690.00,4.0055
1689.00,3.9022
1688.00,3.8236
1687.00,3.7664
1686.00,3.7304
1685.00,3.7061
1684.00,3.6622
1683.00,3.5808
1682.00,3.5024
1681.00,3.4635
1680.00,3.4543
1679.00,3.4500
1678.00,3.4374
1677.00,3.4138
1676.00,3.3789
1675.00,3.3334
1674.00,3.2769
1673.00,3.2129
1672.00,3.1457
1671.00,3.0769
1670.00,3.0056
1669.00,2.9338
1668.00,2.8656
1667.00,2.8083
1666.00,2.7674
1665.00,2.7414
1664.00,2.7252
1663.00,2.7160
1662.00,2.7115
1661.00,2.7139
1660.00,2.7291
1659.00,2.7588
1658.00,2.7980
1657.00,2.8363
1656.00,2.8645
1655.00,2.8826
1654.00,2.9041
1653.00,2.9397
1652.00,2.9729
1651.00,2.9910
1650.00,3.0206
1649.00,3.0710
1648.00,3.1201
1647.00,3.1510
1646.00,3.1629
1645.00,3.1687
1644.00,3.1843
1643.00,3.2141
1642.00,3.2467
1641.00,3.2696
1640.00,3.2792
1639.00,3.2797
1638.00,3.2776
1637.00,3.2771
1636.00,3.2810
1635.00,3.2869
1634.00,3.2906
1633.00,3.2923
1632.00,3.2969
1631.00,3.3014
1630.00,3.3010
1629.00,3.2975
1628.00,3.2954
1627.00,3.2956
1626.00,3.2954
1625.00,3.2912
1624.00,3.2791
1623.00,3.2591
1622.00,3.2354
1621.00,3.2143
1620.00,3.1989
1619.00,3.1867
1618.00,3.1734
1617.00,3.1579
1616.00,3.1401
1615.00,3.1198
1614.00,3.1023
1613.00,3.0893
1612.00,3.0739
1611.00,3.0518
1610.00,3.0260
1609.00,3.0013
1608.00,2.9777
1607.00,2.9512
1606.00,2.9204
1605.00,2.8883
1604.00,2.8561
1603.00,2.8224
1602.00,2.7856
1601.00,2.7454
1600.00,2.7027
1599.00,2.6588
1598.00,2.6135
1597.00,2.5653
1596.00,2.5131
1595.00,2.4575
1594.00,2.4004
1593.00,2.3440
1592.00,2.2898
1591.00,2.2381
1590.00,2.1889
1589.00,2.1420
1588.00,2.0980
1587.00,2.0585
1586.00,2.0257
1585.00,2.0015
1584.00,1.9878
1583.00,1.9860
1582.00,1.9984
1581.00,2.0244
1580.00,2.0593
1579.00,2.0978
1578.00,2.1386
1577.00,2.1851
1576.00,2.2407
1575.00,2.3018
1574.00,2.3636
1573.00,2.4281
1572.00,2.4946
1571.00,2.5590
1570.00,2.6190
1569.00,2.6712
1568.00,2.7150
1567.00,2.7558
1566.00,2.8007
1565.00,2.8472
1564.00,2.8867
1563.00,2.9109
1562.00,2.9202
1561.00,2.9225
1560.00,2.9303
1559.00,2.9463
1558.00,2.9522
1557.00,2.9504
1556.00,2.9630
1555.00,2.9961
1554.00,3.0390
1553.00,3.0785
1552.00,3.1054
1551.00,3.1206
1550.00,3.1318
1549.00,3.1459
1548.00,3.1665
1547.00,3.1884
1546.00,3.2032
1545.00,3.2053
1544.00,3.1964
1543.00,3.1865
1542.00,3.1877
1541.00,3.2014
1540.00,3.2192
1539.00,3.2293
1538.00,3.2305
1537.00,3.2359
1536.00,3.2558
1535.00,3.2826
1534.00,3.3033
1533.00,3.3076
1532.00,3.2931
1531.00,3.2744
1530.00,3.2646
1529.00,3.2635
1528.00,3.2637
1527.00,3.2586
1526.00,3.2514
1525.00,3.2454
1524.00,3.2446
1523.00,3.2302
1522.00,3.3074
1521.00,3.2976
1520.00,3.2808
1519.00,3.2722
1518.00,3.2629
1517.00,3.2534
1516.00,3.2411
1515.00,3.2290
1514.00,3.2164
1513.00,3.2064
1512.00,3.1910
1511.00,3.1813
1510.00,3.0539
1509.00,3.0035
1508.00,2.9552
1507.00,2.9065
1506.00,2.8748
1505.00,2.8675
1504.00,2.8728
1503.00,2.8812
1502.00,2.8842
1501.00,2.8727
1500.00,2.8460
1499.00,2.8070
1498.00,2.7579
1497.00,2.7002
1496.00,2.6398
1495.00,2.5859
1494.00,2.5426
1493.00,2.5049
1492.00,2.4591
1491.00,2.3945
1490.00,2.3131
1489.00,2.2335
1488.00,2.1791
1487.00,2.1575
1486.00,2.1581
1485.00,2.1705
1484.00,2.1918
1483.00,2.2212
1482.00,2.2598
1481.00,2.3076
1480.00,2.3647
1479.00,2.4287
1478.00,2.4955
1477.00,2.5607
1476.00,2.6221
1475.00,2.6802
1474.00,2.7383
1473.00,2.8017
1472.00,2.8727
1471.00,2.9528
1470.00,3.0431
1469.00,3.1407
1468.00,3.2340
1467.00,3.3092
1466.00,3.3608
1465.00,3.3968
1464.00,3.4262
1463.00,3.4467
1462.00,3.4579
1461.00,3.4706
1460.00,3.4966
1459.00,3.5393
1458.00,3.5978
1457.00,3.6659
1456.00,3.7304
1455.00,3.7855
1454.00,3.8539
1453.00,3.9609
1452.00,4.0869
1451.00,4.1614
1450.00,4.1617
1449.00,4.1441
1448.00,4.1215
1447.00,4.0176
1446.00,3.8214
1445.00,3.6535
1444.00,3.5488
1443.00,3.4930
1442.00,3.4671
1441.00,3.4576
1440.00,3.4587
1439.00,3.4684
1438.00,3.4837
1437.00,3.5030
1436.00,3.5334
1435.00,3.5860
1434.00,3.6608
1433.00,3.7424
1432.00,3.8118
1431.00,3.8507
1430.00,3.8495
1429.00,3.8330
1428.00,3.8381
1427.00,3.8717
1426.00,3.9073
1425.00,3.9151
1424.00,3.8969
1423.00,3.8658
1422.00,3.8271
1421.00,3.7833
1420.00,3.7308
1419.00,3.6680
1418.00,3.6057
1417.00,3.5587
1416.00,3.5312
1415.00,3.5146
1414.00,3.4982
1413.00,3.4780
1412.00,3.4591
1411.00,3.4491
1410.00,3.4516
1409.00,3.4643
1408.00,3.4823
1407.00,3.4986
1406.00,3.5083
1405.00,3.5183
1404.00,3.5409
1403.00,3.5752
1402.00,3.6024
1401.00,3.6098
1400.00,3.5961
1399.00,3.5652
1398.00,3.5246
1397.00,3.4861
1396.00,3.4626
1395.00,3.4584
1394.00,3.4689
1393.00,3.4905
1392.00,3.5232
1391.00,3.5628
1390.00,3.5939
1389.00,3.5956
1388.00,3.5617
1387.00,3.5130
1386.00,3.4792
1385.00,3.4730
1384.00,3.4846
1383.00,3.4969
1382.00,3.4992
1381.00,3.4935
1380.00,3.4889
1379.00,3.4868
1378.00,3.4772
1377.00,3.4523
1376.00,3.4171
1375.00,3.3797
1374.00,3.3437
1373.00,3.3134
1372.00,3.2944
1371.00,3.2864
1370.00,3.2789
1369.00,3.2589
1368.00,3.2233
1367.00,3.1821
1366.00,3.1442
1365.00,3.1076
1364.00,3.0645
1363.00,3.0130
1362.00,2.9623
1361.00,2.9255
1360.00,2.9083
1359.00,2.9062
1358.00,2.9129
1357.00,2.9259
1356.00,2.9482
1355.00,2.9862
1354.00,3.0467
1353.00,3.1330
1352.00,3.2430
1351.00,3.3675
1350.00,3.4873
1349.00,3.5787
1348.00,3.6295
1347.00,3.6457
1346.00,3.6375
1345.00,3.6109
1344.00,3.5743
1343.00,3.5446
1342.00,3.5391
1341.00,3.5664
1340.00,3.6161
1339.00,3.6489
1338.00,3.6223
1337.00,3.5495
1336.00,3.4646
1335.00,3.3794
1334.00,3.2968
1333.00,3.2248
1332.00,3.1733
1331.00,3.1464
1330.00,3.1414
1329.00,3.1521
1328.00,3.1745
1327.00,3.2085
1326.00,3.2538
1325.00,3.3080
1324.00,3.3683
1323.00,3.4335
1322.00,3.5044
1321.00,3.5810
1320.00,3.6620
1319.00,3.7528
1318.00,3.8631
1317.00,3.9897
1316.00,4.1141
1315.00,4.2292
1314.00,4.3546
1313.00,4.5086
1312.00,4.6566
1311.00,4.6958
1310.00,4.5581
1309.00,4.2779
1308.00,4.0142
1307.00,3.8234
1306.00,3.6913
1305.00,3.5887
1304.00,3.4941
1303.00,3.4044
1302.00,3.3269
1301.00,3.2697
1300.00,3.2372
1299.00,3.2295
1298.00,3.2408
1297.00,3.2608
1296.00,3.2819
1295.00,3.3048
1294.00,3.3355
1293.00,3.3766
1292.00,3.4222
1291.00,3.4618
1290.00,3.4906
1289.00,3.5131
1288.00,3.5343
1287.00,3.5524
1286.00,3.5646
1285.00,3.5765
1284.00,3.5990
1283.00,3.6347
1282.00,3.6733
1281.00,3.7062
1280.00,3.7364
1279.00,3.7626
1278.00,3.7708
1277.00,3.7560
1276.00,3.7369
1275.00,3.7345
1274.00,3.7477
1273.00,3.7567
1272.00,3.7595
1271.00,3.7828
1270.00,3.8451
1269.00,3.9339
1268.00,4.0037
1267.00,4.0094
1266.00,3.9615
1265.00,3.9016
1264.00,3.8554
1263.00,3.8268
1262.00,3.8058
1261.00,3.7808
1260.00,3.7538
1259.00,3.7390
1258.00,3.7428
1257.00,3.7523
1256.00,3.7501
1255.00,3.7389
1254.00,3.7389
1253.00,3.7600
1252.00,3.7882
1251.00,3.7970
1250.00,3.7679
1249.00,3.7155
1248.00,3.6704
1247.00,3.6476
1246.00,3.6482
1245.00,3.6623
1244.00,3.6743
1243.00,3.6742
1242.00,3.6611
1241.00,3.6427
1240.00,3.6320
1239.00,3.6388
1238.00,3.6608
1237.00,3.6838
1236.00,3.6941
1235.00,3.6961
1234.00,3.7115
1233.00,3.7622
1232.00,3.8640
1231.00,4.0207
1230.00,4.1974
1229.00,4.3409
1228.00,4.4224
1227.00,4.4063
1226.00,4.4431
1225.00,4.5313
1224.00,4.3928
1223.00,4.2914
1222.00,4.3537
1221.00,4.4680
1220.00,4.3952
1219.00,4.2993
1218.00,4.2768
1217.00,4.2599
1216.00,4.2067
1215.00,4.1480
1214.00,4.0653
1213.00,3.9428
1212.00,3.8300
1211.00,3.7639
1210.00,3.7364
1209.00,3.7076
1208.00,3.6560
1207.00,3.6062
1206.00,3.5780
1205.00,3.5609
1204.00,3.5401
1203.00,3.5169
1202.00,3.4983
1201.00,3.4826
1200.00,3.4609
1199.00,3.4341
1198.00,3.4111
1197.00,3.3921
1196.00,3.3696
1195.00,3.3444
1194.00,3.3263
1193.00,3.3190
1192.00,3.3140
1191.00,3.3017
1190.00,3.2836
1189.00,3.2683
1188.00,3.2620
1187.00,3.2664
1186.00,3.2797
1185.00,3.2998
1184.00,3.3238
1183.00,3.3465
1182.00,3.3626
1181.00,3.3708
1180.00,3.3754
1179.00,3.3844
1178.00,3.4028
1177.00,3.4262
1176.00,3.4438
1175.00,3.4582
1174.00,3.4873
1173.00,3.5351
1172.00,3.5839
1171.00,3.6226
1170.00,3.6493
1169.00,3.6600
1168.00,3.6576
1167.00,3.6512
1166.00,3.6510
1165.00,3.6666
1164.00,3.7082
1163.00,3.7791
1162.00,3.8548
1161.00,3.8732
1160.00,3.8145
1159.00,3.7409
1158.00,3.7040
1157.00,3.7160
1156.00,3.7613
1155.00,3.8116
1154.00,3.8467
1153.00,3.8575
1152.00,3.8370
1151.00,3.8016
1150.00,3.7977
1149.00,3.8576
1148.00,3.9756
1147.00,4.0966
1146.00,4.1669
1145.00,4.2379
1144.00,4.3564
1143.00,4.3555
1142.00,4.2613
1141.00,4.2540
1140.00,4.4379
1139.00,5.1357
1138.00,4.6841
1137.00,4.4439
1136.00,4.3251
1135.00,4.1753
1134.00,4.0606
1133.00,4.0109
1132.00,4.0349
1131.00,4.0977
1130.00,4.1292
1129.00,4.0969
1128.00,4.0804
1127.00,4.1359
1126.00,4.2514
1125.00,4.4186
1124.00,4.5483
1123.00,4.6780
1122.00,4.8179
1121.00,4.5290
1120.00,4.4632
1119.00,4.6553
1118.00,4.9088
1117.00,4.7675
1116.00,4.6778
1115.00,4.6413
1114.00,4.5413
1113.00,4.5226
1112.00,4.5466
1111.00,4.3418
1110.00,4.1029
1109.00,3.9456
1108.00,3.8570
1107.00,3.8432
1106.00,3.8972
1105.00,3.9829
1104.00,4.1049
1103.00,4.2999
1102.00,4.4249
1101.00,4.2690
1100.00,4.0902
1099.00,4.0204
1098.00,4.0289
1097.00,4.0582
1096.00,4.0889
1095.00,4.1793
1094.00,4.3930
1093.00,4.4452
1092.00,4.2993
1091.00,4.2911
1090.00,4.2222
1089.00,4.0946
1088.00,3.9904
1087.00,3.8815
1086.00,3.7982
1085.00,3.7496
1084.00,3.7305
1083.00,3.7317
1082.00,3.7386
1081.00,3.7477
1080.00,3.7600
1079.00,3.7665
1078.00,3.7522
1077.00,3.7220
1076.00,3.7045
1075.00,3.7125
1074.00,3.7155
1073.00,3.6927
1072.00,3.6684
1071.00,3.6520
1070.00,3.6417
1069.00,3.6351
1068.00,3.6107
1067.00,3.5569
1066.00,3.4992
1065.00,3.4648
1064.00,3.4572
1063.00,3.4681
1062.00,3.4912
1061.00,3.5238
1060.00,3.5621
1059.00,3.6132
1058.00,3.6979
1057.00,3.8135
1056.00,3.8963
1055.00,3.9000
1054.00,3.8798
1053.00,3.8900
1052.00,3.9297
1051.00,3.9366
1050.00,3.8505
1049.00,3.7322
1048.00,3.6469
1047.00,3.6023
1046.00,3.5817
1045.00,3.5680
1044.00,3.5602
1043.00,3.5671
1042.00,3.5884
1041.00,3.6085
1040.00,3.6100
1039.00,3.5923
1038.00,3.5714
1037.00,3.5608
1036.00,3.5622
1035.00,3.5745
1034.00,3.5977
1033.00,3.6294
1032.00,3.6676
1031.00,3.7052
1030.00,3.7289
1029.00,3.7372
1028.00,3.7462
1027.00,3.7739
1026.00,3.8227
1025.00,3.8785
1024.00,3.9070
1023.00,3.9209
1022.00,3.9730
1021.00,4.1347
1020.00,4.4456
1019.00,4.4216
1018.00,4.2386
1017.00,4.1961
1016.00,4.2236
1015.00,4.2899
1014.00,4.3106
1013.00,4.2223
1012.00,4.0895
1011.00,3.9922
1010.00,3.9747
1009.00,4.0399
1008.00,4.1961
1007.00,4.5030
1006.00,4.5235
1005.00,4.3200
1004.00,4.3231
1003.00,4.3027
1002.00,4.2393
1001.00,4.2826
1000.00,4.3829
999.00,4.4600
998.00,4.5533
997.00,4.5196
996.00,4.3015
995.00,4.1350
994.00,4.0637
993.00,4.0813
992.00,4.1963
991.00,4.4238
990.00,4.6230
989.00,4.4813
988.00,4.5065
987.00,4.9318
986.00,4.7015
985.00,4.3626
984.00,4.2319
983.00,4.1743
982.00,4.1625
981.00,4.1490
980.00,4.1514
979.00,4.2001
978.00,4.4053
977.00,4.7621
976.00,4.5008
975.00,4.3510
974.00,4.3455
973.00,4.3856
972.00,4.5492
971.00,4.7829
970.00,4.7177
969.00,4.4276
968.00,4.2475
967.00,4.2216
966.00,4.3510
965.00,4.6407
964.00,4.9680
963.00,4.5701
962.00,4.3967
961.00,4.6807
960.00,4.5365
959.00,4.1232
958.00,4.0273
957.00,4.0620
956.00,4.1427
955.00,4.2337
954.00,4.2721
953.00,4.3189
952.00,4.4210
951.00,4.4417
950.00,4.3914
949.00,4.3843
948.00,4.3587
947.00,4.3141
946.00,4.2647
945.00,4.2162
944.00,4.1773
943.00,4.1437
942.00,4.1305
941.00,4.1532
940.00,4.2071
939.00,4.2472
938.00,4.2093
937.00,4.1225
936.00,4.0746
935.00,4.0991
934.00,4.1530
933.00,4.1883
932.00,4.2236
931.00,4.3138
930.00,4.5035
929.00,4.8922
928.00,5.1852
927.00,4.5541
926.00,4.1911
925.00,4.0320
924.00,4.0221
923.00,4.1890
922.00,4.4685
921.00,4.5050
920.00,4.5004
919.00,4.3016
918.00,4.0857
917.00,4.0230
916.00,4.1501
915.00,4.4457
914.00,4.2115
913.00,3.9458
912.00,3.8413
911.00,3.8303
910.00,3.9155
909.00,4.0743
908.00,4.3099
907.00,4.7640
906.00,4.5495
905.00,4.1051
904.00,3.9509
903.00,4.0344
902.00,4.3772
901.00,4.3772
900.00,4.2550
899.00,4.5067
898.00,4.7297
897.00,4.4450
896.00,4.4806
895.00,4.9063
894.00,4.6163
893.00,4.3003
892.00,4.2184
891.00,4.1930
890.00,4.1543
889.00,4.0704
888.00,3.9454
887.00,3.8377
886.00,3.7927
885.00,3.8252
884.00,3.9366
883.00,4.1036
882.00,4.2983
881.00,4.5489
880.00,4.5148
879.00,4.3417
878.00,4.2986
877.00,4.5099
876.00,4.8772
875.00,4.3657
874.00,4.1923
873.00,4.1840
872.00,4.1410
871.00,4.1222
870.00,4.1439
869.00,4.1458
868.00,4.0878
867.00,4.0794
866.00,4.1474
865.00,4.2051
864.00,4.2160
863.00,4.2730
862.00,4.2378
861.00,4.0674
860.00,3.9929
859.00,4.0448
858.00,4.2177
857.00,4.6827
856.00,4.7444
855.00,4.2834
854.00,4.1821
853.00,4.0735
852.00,3.9170
851.00,3.8567
850.00,3.9088
849.00,4.0731
848.00,4.3142
847.00,4.4117
846.00,4.2439
845.00,4.1092
844.00,4.0797
843.00,4.1227
842.00,4.2353
841.00,4.3845
840.00,4.7041
839.00,4.6904
838.00,4.2033
837.00,4.0322
836.00,4.1252
835.00,4.4393
834.00,4.4178
833.00,4.2638
832.00,4.3223
831.00,4.2998
830.00,4.4035
829.00,4.9058
828.00,4.4705
827.00,4.2094
826.00,4.2711
825.00,4.3024
824.00,4.1647
823.00,4.1206
822.00,4.2712
821.00,4.5095
820.00,4.7470
819.00,4.6704
818.00,4.2025
817.00,3.9442
816.00,3.8586
815.00,3.8895
814.00,3.9753
813.00,4.0369
812.00,4.0970
811.00,4.2780
810.00,4.7086
809.00,4.7427
808.00,4.6511
807.00,4.6485
806.00,4.4361
805.00,4.3300
804.00,4.2269
803.00,4.0471
802.00,4.0591
801.00,4.3030
800.00,4.3520
799.00,4.0611
798.00,4.1654
797.00,4.9322
796.00,4.1859
795.00,3.9190
794.00,3.9000
793.00,4.0249
792.00,4.2447
791.00,4.1595
790.00,4.1271
789.00,4.2191
788.00,4.2378
787.00,4.1157
786.00,3.9864
785.00,3.9447
784.00,4.0063
783.00,4.2934
782.00,4.9741
781.00,4.7612
780.00,4.5214
779.00,4.2454
778.00,4.0286
777.00,3.9738
776.00,4.0064
775.00,4.2724
774.00,4.5490
773.00,4.1925
772.00,4.0684
771.00,4.2662
770.00,4.7020
769.00,4.2667
768.00,4.0260
767.00,4.0388
766.00,4.0494
765.00,3.8934
764.00,3.7458
763.00,3.7316
762.00,3.8194
761.00,3.9401
760.00,4.0091
759.00,4.0472
758.00,4.0688
757.00,4.0645
756.00,4.0118
755.00,3.9670
754.00,3.9364
753.00,3.8700
752.00,3.8430
751.00,3.9275
750.00,4.0868
749.00,4.2997
748.00,4.4322
747.00,4.2260
746.00,4.0466
745.00,3.9432
744.00,3.8947
743.00,3.9277
742.00,3.9890
741.00,3.9901
740.00,3.9526
739.00,3.9376
738.00,3.9997
737.00,4.0012
736.00,3.8358
735.00,3.7244
734.00,3.6955
733.00,3.7094
732.00,3.7586
731.00,3.8568
730.00,4.0464
729.00,4.2848
728.00,4.4236
727.00,4.4045
726.00,4.2787
725.00,4.2482
724.00,4.3008
723.00,4.2750
722.00,4.1599
721.00,4.0984
720.00,4.1420
719.00,4.3599
718.00,4.5608
717.00,4.2814
716.00,4.1015
715.00,4.0453
714.00,4.0776
713.00,4.3028
712.00,4.6706
711.00,4.6218
710.00,4.6483
709.00,4.7017
708.00,4.4404
707.00,4.1947
706.00,4.0230
705.00,3.9558
704.00,3.9927
703.00,4.0780
702.00,4.0869
701.00,3.9985
700.00,3.9268
