Created as New Dataset,Sample 100 By Administrator Date Wednesday, November 24 2021
cm-1,A
7502.00,0.7819
7501.00,0.7855
7500.00,0.7895
7499.00,0.7938
7498.00,0.7982
7497.00,0.8033
7496.00,0.8094
7495.00,0.8161
7494.00,0.8227
7493.00,0.8290
7492.00,0.8355
7491.00,0.8430
7490.00,0.8513
7489.00,0.8598
7488.00,0.8682
7487.00,0.8765
7486.00,0.8846
7485.00,0.8927
7484.00,0.9008
7483.00,0.9088
7482.00,0.9165
7481.00,0.9239
7480.00,0.9319
7479.00,0.9411
7478.00,0.9513
7477.00,0.9613
7476.00,0.9706
7475.00,0.9795
7474.00,0.9888
7473.00,0.9982
7472.00,1.0072
7471.00,1.0153
7470.00,1.0229
7469.00,1.0308
7468.00,1.0394
7467.00,1.0481
7466.00,1.0564
7465.00,1.0641
7464.00,1.0715
7463.00,1.0791
7462.00,1.0868
7461.00,1.0941
7460.00,1.1007
7459.00,1.1066
7458.00,1.1121
7457.00,1.1174
7456.00,1.1227
7455.00,1.1279
7454.00,1.1328
7453.00,1.1375
7452.00,1.1426
7451.00,1.1483
7450.00,1.1540
7449.00,1.1588
7448.00,1.1624
7447.00,1.1652
7446.00,1.1677
7445.00,1.1699
7444.00,1.1715
7443.00,1.1724
7442.00,1.1730
7441.00,1.1734
7440.00,1.1740
7439.00,1.1751
7438.00,1.1763
7437.00,1.1772
7436.00,1.1774
7435.00,1.1770
7434.00,1.1762
7433.00,1.1747
7432.00,1.1720
7431.00,1.1685
7430.00,1.1652
7429.00,1.1631
7428.00,1.1620
7427.00,1.1609
7426.00,1.1586
7425.00,1.1547
7424.00,1.1492
7423.00,1.1428
7422.00,1.1359
7421.00,1.1287
7420.00,1.1214
7419.00,1.1137
7418.00,1.1057
7417.00,1.0979
7416.00,1.0905
7415.00,1.0833
7414.00,1.0757
7413.00,1.0674
7412.00,1.0588
7411.00,1.0503
7410.00,1.0420
7409.00,1.0333
7408.00,1.0239
7407.00,1.0137
7406.00,1.0033
7405.00,0.9931
7404.00,0.9831
7403.00,0.9734
7402.00,0.9639
7401.00,0.9547
7400.00,0.9456
7399.00,0.9363
7398.00,0.9267
7397.00,0.9168
7396.00,0.9071
7395.00,0.8978
7394.00,0.8890
7393.00,0.8804
7392.00,0.8720
7391.00,0.8637
7390.00,0.8557
7389.00,0.8479
7388.00,0.8404
7387.00,0.8332
7386.00,0.8263
7385.00,0.8200
7384.00,0.8142
7383.00,0.8089
7382.00,0.8041
7381.00,0.8000
7380.00,0.7964
7379.00,0.7933
7378.00,0.7905
7377.00,0.7878
7376.00,0.7855
7375.00,0.7839
7374.00,0.7834
7373.00,0.7839
7372.00,0.7851
7371.00,0.7865
7370.00,0.7882
7369.00,0.7902
7368.00,0.7930
7367.00,0.7966
7366.00,0.8009
7365.00,0.8053
7364.00,0.8097
7363.00,0.8140
7362.00,0.8190
7361.00,0.8247
7360.00,0.8310
7359.00,0.8375
7358.00,0.8438
7357.00,0.8503
7356.00,0.8574
7355.00,0.8654
7354.00,0.8741
7353.00,0.8831
7352.00,0.8920
7351.00,0.9006
7350.00,0.9090
7349.00,0.9173
7348.00,0.9254
7347.00,0.9334
7346.00,0.9410
7345.00,0.9484
7344.00,0.9559
7343.00,0.9636
7342.00,0.9717
7341.00,0.9803
7340.00,0.9890
7339.00,0.9975
7338.00,1.0055
7337.00,1.0132
7336.00,1.0203
7335.00,1.0269
7334.00,1.0329
7333.00,1.0386
7332.00,1.0443
7331.00,1.0499
7330.00,1.0553
7329.00,1.0607
7328.00,1.0662
7327.00,1.0716
7326.00,1.0765
7325.00,1.0809
7324.00,1.0851
7323.00,1.0892
7322.00,1.0931
7321.00,1.0967
7320.00,1.1000
7319.00,1.1037
7318.00,1.1080
7317.00,1.1125
7316.00,1.1167
7315.00,1.1203
7314.00,1.1234
7313.00,1.1263
7312.00,1.1288
7311.00,1.1303
7310.00,1.1305
7309.00,1.1297
7308.00,1.1288
7307.00,1.1281
7306.00,1.1278
7305.00,1.1279
7304.00,1.1286
7303.00,1.1296
7302.00,1.1307
7301.00,1.1317
7300.00,1.1328
7299.00,1.1339
7298.00,1.1344
7297.00,1.1334
7296.00,1.1307
7295.00,1.1267
7294.00,1.1219
7293.00,1.1166
7292.00,1.1109
7291.00,1.1048
7290.00,1.0984
7289.00,1.0921
7288.00,1.0861
7287.00,1.0805
7286.00,1.0748
7285.00,1.0691
7284.00,1.0631
7283.00,1.0570
7282.00,1.0508
7281.00,1.0447
7280.00,1.0382
7279.00,1.0311
7278.00,1.0232
7277.00,1.0149
7276.00,1.0070
7275.00,0.9996
7274.00,0.9923
7273.00,0.9845
7272.00,0.9763
7271.00,0.9679
7270.00,0.9598
7269.00,0.9517
7268.00,0.9432
7267.00,0.9343
7266.00,0.9253
7265.00,0.9165
7264.00,0.9079
7263.00,0.8992
7262.00,0.8902
7261.00,0.8811
7260.00,0.8725
7259.00,0.8646
7258.00,0.8572
7257.00,0.8499
7256.00,0.8427
7255.00,0.8357
7254.00,0.8291
7253.00,0.8228
7252.00,0.8165
7251.00,0.8102
7250.00,0.8043
7249.00,0.7990
7248.00,0.7945
7247.00,0.7907
7246.00,0.7873
7245.00,0.7844
7244.00,0.7821
7243.00,0.7806
7242.00,0.7797
7241.00,0.7792
7240.00,0.7790
7239.00,0.7793
7238.00,0.7802
7237.00,0.7817
7236.00,0.7839
7235.00,0.7865
7234.00,0.7894
7233.00,0.7928
7232.00,0.7966
7231.00,0.8011
7230.00,0.8061
7229.00,0.8116
7228.00,0.8176
7227.00,0.8240
7226.00,0.8308
7225.00,0.8380
7224.00,0.8454
7223.00,0.8530
7222.00,0.8606
7221.00,0.8683
7220.00,0.8764
7219.00,0.8848
7218.00,0.8933
7217.00,0.9020
7216.00,0.9111
7215.00,0.9204
7214.00,0.9295
7213.00,0.9384
7212.00,0.9475
7211.00,0.9571
7210.00,0.9669
7209.00,0.9764
7208.00,0.9857
7207.00,0.9949
7206.00,1.0041
7205.00,1.0131
7204.00,1.0218
7203.00,1.0303
7202.00,1.0387
7201.00,1.0471
7200.00,1.0554
7199.00,1.0637
7198.00,1.0720
7197.00,1.0803
7196.00,1.0886
7195.00,1.0969
7194.00,1.1048
7193.00,1.1122
7192.00,1.1191
7191.00,1.1257
7190.00,1.1321
7189.00,1.1384
7188.00,1.1443
7187.00,1.1499
7186.00,1.1554
7185.00,1.1607
7184.00,1.1657
7183.00,1.1704
7182.00,1.1746
7181.00,1.1784
7180.00,1.1819
7179.00,1.1853
7178.00,1.1881
7177.00,1.1898
7176.00,1.1906
7175.00,1.1911
7174.00,1.1921
7173.00,1.1936
7172.00,1.1948
7171.00,1.1956
7170.00,1.1961
7169.00,1.1966
7168.00,1.1964
7167.00,1.1953
7166.00,1.1933
7165.00,1.1908
7164.00,1.1879
7163.00,1.1846
7162.00,1.1812
7161.00,1.1779
7160.00,1.1746
7159.00,1.1711
7158.00,1.1670
7157.00,1.1623
7156.00,1.1573
7155.00,1.1518
7154.00,1.1458
7153.00,1.1392
7152.00,1.1321
7151.00,1.1250
7150.00,1.1180
7149.00,1.1108
7148.00,1.1030
7147.00,1.0947
7146.00,1.0862
7145.00,1.0777
7144.00,1.0690
7143.00,1.0600
7142.00,1.0504
7141.00,1.0404
7140.00,1.0304
7139.00,1.0204
7138.00,1.0105
7137.00,1.0005
7136.00,0.9903
7135.00,0.9799
7134.00,0.9692
7133.00,0.9584
7132.00,0.9478
7131.00,0.9376
7130.00,0.9277
7129.00,0.9180
7128.00,0.9084
7127.00,0.8991
7126.00,0.8900
7125.00,0.8812
7124.00,0.8725
7123.00,0.8641
7122.00,0.8561
7121.00,0.8484
7120.00,0.8410
7119.00,0.8337
7118.00,0.8266
7117.00,0.8200
7116.00,0.8139
7115.00,0.8084
7114.00,0.8034
7113.00,0.7989
7112.00,0.7950
7111.00,0.7917
7110.00,0.7891
7109.00,0.7871
7108.00,0.7856
7107.00,0.7846
7106.00,0.7843
7105.00,0.7847
7104.00,0.7857
7103.00,0.7872
7102.00,0.7890
7101.00,0.7912
7100.00,0.7941
7099.00,0.7977
7098.00,0.8019
7097.00,0.8065
7096.00,0.8115
7095.00,0.8170
7094.00,0.8229
7093.00,0.8293
7092.00,0.8360
7091.00,0.8429
7090.00,0.8498
7089.00,0.8570
7088.00,0.8646
7087.00,0.8729
7086.00,0.8817
7085.00,0.8907
7084.00,0.8996
7083.00,0.9084
7082.00,0.9173
7081.00,0.9260
7080.00,0.9347
7079.00,0.9433
7078.00,0.9522
7077.00,0.9613
7076.00,0.9707
7075.00,0.9803
7074.00,0.9899
7073.00,0.9994
7072.00,1.0088
7071.00,1.0181
7070.00,1.0272
7069.00,1.0361
7068.00,1.0446
7067.00,1.0528
7066.00,1.0606
7065.00,1.0680
7064.00,1.0750
7063.00,1.0819
7062.00,1.0890
7061.00,1.0962
7060.00,1.1034
7059.00,1.1105
7058.00,1.1174
7057.00,1.1239
7056.00,1.1299
7055.00,1.1359
7054.00,1.1418
7053.00,1.1478
7052.00,1.1533
7051.00,1.1582
7050.00,1.1627
7049.00,1.1667
7048.00,1.1704
7047.00,1.1737
7046.00,1.1767
7045.00,1.1795
7044.00,1.1819
7043.00,1.1842
7042.00,1.1862
7041.00,1.1880
7040.00,1.1894
7039.00,1.1903
7038.00,1.1906
7037.00,1.1906
7036.00,1.1903
7035.00,1.1897
7034.00,1.1885
7033.00,1.1866
7032.00,1.1841
7031.00,1.1815
7030.00,1.1790
7029.00,1.1763
7028.00,1.1732
7027.00,1.1696
7026.00,1.1656
7025.00,1.1615
7024.00,1.1572
7023.00,1.1527
7022.00,1.1477
7021.00,1.1424
7020.00,1.1366
7019.00,1.1305
7018.00,1.1242
7017.00,1.1172
7016.00,1.1098
7015.00,1.1022
7014.00,1.0947
7013.00,1.0871
7012.00,1.0789
7011.00,1.0702
7010.00,1.0613
7009.00,1.0525
7008.00,1.0431
7007.00,1.0329
7006.00,1.0224
7005.00,1.0123
7004.00,1.0026
7003.00,0.9927
7002.00,0.9825
7001.00,0.9721
7000.00,0.9619
6999.00,0.9519
6998.00,0.9419
6997.00,0.9318
6996.00,0.9219
6995.00,0.9119
6994.00,0.9021
6993.00,0.8926
6992.00,0.8833
6991.00,0.8740
6990.00,0.8647
6989.00,0.8554
6988.00,0.8467
6987.00,0.8386
6986.00,0.8309
6985.00,0.8235
6984.00,0.8166
6983.00,0.8103
6982.00,0.8049
6981.00,0.8001
6980.00,0.7956
6979.00,0.7914
6978.00,0.7876
6977.00,0.7843
6976.00,0.7817
6975.00,0.7796
6974.00,0.7781
6973.00,0.7773
6972.00,0.7771
6971.00,0.7776
6970.00,0.7788
6969.00,0.7806
6968.00,0.7829
6967.00,0.7855
6966.00,0.7886
6965.00,0.7925
6964.00,0.7970
6963.00,0.8021
6962.00,0.8075
6961.00,0.8133
6960.00,0.8195
6959.00,0.8260
6958.00,0.8329
6957.00,0.8401
6956.00,0.8473
6955.00,0.8547
6954.00,0.8625
6953.00,0.8709
6952.00,0.8797
6951.00,0.8887
6950.00,0.8978
6949.00,0.9071
6948.00,0.9166
6947.00,0.9264
6946.00,0.9361
6945.00,0.9457
6944.00,0.9553
6943.00,0.9651
6942.00,0.9751
6941.00,0.9851
6940.00,0.9947
6939.00,1.0041
6938.00,1.0135
6937.00,1.0230
6936.00,1.0326
6935.00,1.0420
6934.00,1.0511
6933.00,1.0602
6932.00,1.0694
6931.00,1.0783
6930.00,1.0865
6929.00,1.0941
6928.00,1.1017
6927.00,1.1095
6926.00,1.1170
6925.00,1.1240
6924.00,1.1307
6923.00,1.1375
6922.00,1.1445
6921.00,1.1510
6920.00,1.1570
6919.00,1.1625
6918.00,1.1680
6917.00,1.1734
6916.00,1.1785
6915.00,1.1832
6914.00,1.1879
6913.00,1.1924
6912.00,1.1966
6911.00,1.2002
6910.00,1.2030
6909.00,1.2047
6908.00,1.2056
6907.00,1.2062
6906.00,1.2070
6905.00,1.2078
6904.00,1.2084
6903.00,1.2088
6902.00,1.2089
6901.00,1.2089
6900.00,1.2087
6899.00,1.2084
6898.00,1.2079
6897.00,1.2073
6896.00,1.2061
6895.00,1.2041
6894.00,1.2013
6893.00,1.1976
6892.00,1.1932
6891.00,1.1880
6890.00,1.1825
6889.00,1.1767
6888.00,1.1710
6887.00,1.1653
6886.00,1.1594
6885.00,1.1528
6884.00,1.1454
6883.00,1.1376
6882.00,1.1299
6881.00,1.1225
6880.00,1.1148
6879.00,1.1062
6878.00,1.0970
6877.00,1.0878
6876.00,1.0784
6875.00,1.0687
6874.00,1.0584
6873.00,1.0476
6872.00,1.0369
6871.00,1.0264
6870.00,1.0163
6869.00,1.0063
6868.00,0.9962
6867.00,0.9860
6866.00,0.9755
6865.00,0.9648
6864.00,0.9540
6863.00,0.9430
6862.00,0.9320
6861.00,0.9209
6860.00,0.9100
6859.00,0.8994
6858.00,0.8894
6857.00,0.8797
6856.00,0.8703
6855.00,0.8612
6854.00,0.8526
6853.00,0.8445
6852.00,0.8369
6851.00,0.8294
6850.00,0.8221
6849.00,0.8153
6848.00,0.8091
6847.00,0.8033
6846.00,0.7981
6845.00,0.7935
6844.00,0.7898
6843.00,0.7867
6842.00,0.7841
6841.00,0.7823
6840.00,0.7810
6839.00,0.7804
6838.00,0.7803
6837.00,0.7807
6836.00,0.7816
6835.00,0.7830
6834.00,0.7849
6833.00,0.7873
6832.00,0.7903
6831.00,0.7938
6830.00,0.7981
6829.00,0.8031
6828.00,0.8086
6827.00,0.8146
6826.00,0.8209
6825.00,0.8278
6824.00,0.8351
6823.00,0.8428
6822.00,0.8508
6821.00,0.8591
6820.00,0.8678
6819.00,0.8768
6818.00,0.8861
6817.00,0.8956
6816.00,0.9051
6815.00,0.9145
6814.00,0.9239
6813.00,0.9334
6812.00,0.9429
6811.00,0.9525
6810.00,0.9622
6809.00,0.9721
6808.00,0.9822
6807.00,0.9921
6806.00,1.0018
6805.00,1.0114
6804.00,1.0211
6803.00,1.0308
6802.00,1.0404
6801.00,1.0500
6800.00,1.0594
6799.00,1.0685
6798.00,1.0773
6797.00,1.0857
6796.00,1.0935
6795.00,1.1010
6794.00,1.1082
6793.00,1.1156
6792.00,1.1232
6791.00,1.1308
6790.00,1.1382
6789.00,1.1453
6788.00,1.1518
6787.00,1.1579
6786.00,1.1635
6785.00,1.1688
6784.00,1.1738
6783.00,1.1784
6782.00,1.1826
6781.00,1.1868
6780.00,1.1911
6779.00,1.1953
6778.00,1.1989
6777.00,1.2018
6776.00,1.2039
6775.00,1.2057
6774.00,1.2072
6773.00,1.2084
6772.00,1.2090
6771.00,1.2090
6770.00,1.2088
6769.00,1.2086
6768.00,1.2086
6767.00,1.2082
6766.00,1.2071
6765.00,1.2055
6764.00,1.2038
6763.00,1.2015
6762.00,1.1980
6761.00,1.1931
6760.00,1.1877
6759.00,1.1826
6758.00,1.1782
6757.00,1.1741
6756.00,1.1700
6755.00,1.1660
6754.00,1.1615
6753.00,1.1562
6752.00,1.1500
6751.00,1.1430
6750.00,1.1357
6749.00,1.1280
6748.00,1.1200
6747.00,1.1117
6746.00,1.1032
6745.00,1.0943
6744.00,1.0847
6743.00,1.0747
6742.00,1.0645
6741.00,1.0547
6740.00,1.0451
6739.00,1.0355
6738.00,1.0257
6737.00,1.0156
6736.00,1.0053
6735.00,0.9949
6734.00,0.9845
6733.00,0.9739
6732.00,0.9632
6731.00,0.9524
6730.00,0.9416
6729.00,0.9309
6728.00,0.9203
6727.00,0.9097
6726.00,0.8993
6725.00,0.8890
6724.00,0.8791
6723.00,0.8696
6722.00,0.8604
6721.00,0.8513
6720.00,0.8424
6719.00,0.8339
6718.00,0.8260
6717.00,0.8187
6716.00,0.8118
6715.00,0.8052
6714.00,0.7991
6713.00,0.7938
6712.00,0.7890
6711.00,0.7845
6710.00,0.7805
6709.00,0.7771
6708.00,0.7745
6707.00,0.7727
6706.00,0.7714
6705.00,0.7706
6704.00,0.7704
6703.00,0.7708
6702.00,0.7718
6701.00,0.7734
6700.00,0.7755
6699.00,0.7784
6698.00,0.7820
6697.00,0.7863
6696.00,0.7913
6695.00,0.7968
6694.00,0.8028
6693.00,0.8092
6692.00,0.8160
6691.00,0.8232
6690.00,0.8308
6689.00,0.8387
6688.00,0.8468
6687.00,0.8550
6686.00,0.8636
6685.00,0.8726
6684.00,0.8819
6683.00,0.8913
6682.00,0.9009
6681.00,0.9107
6680.00,0.9207
6679.00,0.9306
6678.00,0.9403
6677.00,0.9500
6676.00,0.9600
6675.00,0.9702
6674.00,0.9805
6673.00,0.9910
6672.00,1.0017
6671.00,1.0124
6670.00,1.0231
6669.00,1.0336
6668.00,1.0439
6667.00,1.0540
6666.00,1.0637
6665.00,1.0729
6664.00,1.0819
6663.00,1.0909
6662.00,1.0999
6661.00,1.1086
6660.00,1.1172
6659.00,1.1259
6658.00,1.1345
6657.00,1.1426
6656.00,1.1500
6655.00,1.1568
6654.00,1.1634
6653.00,1.1698
6652.00,1.1759
6651.00,1.1817
6650.00,1.1870
6649.00,1.1921
6648.00,1.1969
6647.00,1.2015
6646.00,1.2059
6645.00,1.2101
6644.00,1.2138
6643.00,1.2175
6642.00,1.2212
6641.00,1.2246
6640.00,1.2271
6639.00,1.2285
6638.00,1.2294
6637.00,1.2302
6636.00,1.2308
6635.00,1.2310
6634.00,1.2309
6633.00,1.2304
6632.00,1.2293
6631.00,1.2276
6630.00,1.2258
6629.00,1.2239
6628.00,1.2218
6627.00,1.2192
6626.00,1.2162
6625.00,1.2129
6624.00,1.2092
6623.00,1.2048
6622.00,1.1996
6621.00,1.1938
6620.00,1.1879
6619.00,1.1818
6618.00,1.1754
6617.00,1.1690
6616.00,1.1625
6615.00,1.1555
6614.00,1.1480
6613.00,1.1398
6612.00,1.1312
6611.00,1.1222
6610.00,1.1129
6609.00,1.1032
6608.00,1.0931
6607.00,1.0828
6606.00,1.0724
6605.00,1.0618
6604.00,1.0509
6603.00,1.0396
6602.00,1.0281
6601.00,1.0169
6600.00,1.0060
6599.00,0.9951
6598.00,0.9840
6597.00,0.9727
6596.00,0.9615
6595.00,0.9504
6594.00,0.9392
6593.00,0.9277
6592.00,0.9163
6591.00,0.9052
6590.00,0.8944
6589.00,0.8838
6588.00,0.8733
6587.00,0.8632
6586.00,0.8536
6585.00,0.8446
6584.00,0.8361
6583.00,0.8279
6582.00,0.8201
6581.00,0.8129
6580.00,0.8062
6579.00,0.8003
6578.00,0.7951
6577.00,0.7905
6576.00,0.7865
6575.00,0.7831
6574.00,0.7802
6573.00,0.7780
6572.00,0.7765
6571.00,0.7755
6570.00,0.7751
6569.00,0.7753
6568.00,0.7763
6567.00,0.7779
6566.00,0.7802
6565.00,0.7830
6564.00,0.7864
6563.00,0.7906
6562.00,0.7956
6561.00,0.8012
6560.00,0.8073
6559.00,0.8138
6558.00,0.8208
6557.00,0.8281
6556.00,0.8358
6555.00,0.8437
6554.00,0.8520
6553.00,0.8606
6552.00,0.8695
6551.00,0.8788
6550.00,0.8885
6549.00,0.8983
6548.00,0.9082
6547.00,0.9180
6546.00,0.9279
6545.00,0.9380
6544.00,0.9482
6543.00,0.9584
6542.00,0.9687
6541.00,0.9792
6540.00,0.9898
6539.00,1.0002
6538.00,1.0102
6537.00,1.0201
6536.00,1.0302
6535.00,1.0404
6534.00,1.0502
6533.00,1.0597
6532.00,1.0691
6531.00,1.0786
6530.00,1.0880
6529.00,1.0968
6528.00,1.1054
6527.00,1.1139
6526.00,1.1226
6525.00,1.1310
6524.00,1.1388
6523.00,1.1459
6522.00,1.1526
6521.00,1.1591
6520.00,1.1655
6519.00,1.1714
6518.00,1.1768
6517.00,1.1819
6516.00,1.1869
6515.00,1.1919
6514.00,1.1964
6513.00,1.2003
6512.00,1.2038
6511.00,1.2073
6510.00,1.2108
6509.00,1.2138
6508.00,1.2163
6507.00,1.2183
6506.00,1.2200
6505.00,1.2211
6504.00,1.2216
6503.00,1.2216
6502.00,1.2215
6501.00,1.2214
6500.00,1.2210
6499.00,1.2204
6498.00,1.2194
6497.00,1.2179
6496.00,1.2155
6495.00,1.2122
6494.00,1.2086
6493.00,1.2050
6492.00,1.2016
6491.00,1.1982
6490.00,1.1948
6489.00,1.1912
6488.00,1.1870
6487.00,1.1820
6486.00,1.1762
6485.00,1.1699
6484.00,1.1629
6483.00,1.1556
6482.00,1.1480
6481.00,1.1404
6480.00,1.1325
6479.00,1.1244
6478.00,1.1161
6477.00,1.1076
6476.00,1.0989
6475.00,1.0898
6474.00,1.0802
6473.00,1.0702
6472.00,1.0597
6471.00,1.0490
6470.00,1.0381
6469.00,1.0274
6468.00,1.0167
6467.00,1.0061
6466.00,0.9954
6465.00,0.9847
6464.00,0.9737
6463.00,0.9623
6462.00,0.9508
6461.00,0.9395
6460.00,0.9284
6459.00,0.9174
6458.00,0.9065
6457.00,0.8957
6456.00,0.8852
6455.00,0.8749
6454.00,0.8648
6453.00,0.8550
6452.00,0.8455
6451.00,0.8365
6450.00,0.8280
6449.00,0.8200
6448.00,0.8124
6447.00,0.8053
6446.00,0.7988
6445.00,0.7929
6444.00,0.7875
6443.00,0.7827
6442.00,0.7786
6441.00,0.7752
6440.00,0.7725
6439.00,0.7705
6438.00,0.7691
6437.00,0.7684
6436.00,0.7684
6435.00,0.7691
6434.00,0.7705
6433.00,0.7726
6432.00,0.7753
6431.00,0.7785
6430.00,0.7824
6429.00,0.7869
6428.00,0.7919
6427.00,0.7974
6426.00,0.8034
6425.00,0.8101
6424.00,0.8174
6423.00,0.8251
6422.00,0.8332
6421.00,0.8418
6420.00,0.8508
6419.00,0.8600
6418.00,0.8695
6417.00,0.8793
6416.00,0.8894
6415.00,0.8997
6414.00,0.9101
6413.00,0.9207
6412.00,0.9315
6411.00,0.9424
6410.00,0.9533
6409.00,0.9640
6408.00,0.9747
6407.00,0.9854
6406.00,0.9961
6405.00,1.0069
6404.00,1.0177
6403.00,1.0286
6402.00,1.0394
6401.00,1.0501
6400.00,1.0607
6399.00,1.0710
6398.00,1.0810
6397.00,1.0908
6396.00,1.1004
6395.00,1.1099
6394.00,1.1193
6393.00,1.1284
6392.00,1.1372
6391.00,1.1458
6390.00,1.1541
6389.00,1.1621
6388.00,1.1696
6387.00,1.1769
6386.00,1.1840
6385.00,1.1911
6384.00,1.1980
6383.00,1.2045
6382.00,1.2104
6381.00,1.2158
6380.00,1.2206
6379.00,1.2249
6378.00,1.2288
6377.00,1.2326
6376.00,1.2363
6375.00,1.2400
6374.00,1.2435
6373.00,1.2467
6372.00,1.2492
6371.00,1.2511
6370.00,1.2526
6369.00,1.2539
6368.00,1.2547
6367.00,1.2549
6366.00,1.2545
6365.00,1.2536
6364.00,1.2523
6363.00,1.2507
6362.00,1.2490
6361.00,1.2474
6360.00,1.2455
6359.00,1.2431
6358.00,1.2399
6357.00,1.2360
6356.00,1.2316
6355.00,1.2266
6354.00,1.2211
6353.00,1.2152
6352.00,1.2092
6351.00,1.2028
6350.00,1.1961
6349.00,1.1890
6348.00,1.1814
6347.00,1.1734
6346.00,1.1651
6345.00,1.1564
6344.00,1.1471
6343.00,1.1373
6342.00,1.1273
6341.00,1.1172
6340.00,1.1069
6339.00,1.0965
6338.00,1.0859
6337.00,1.0751
6336.00,1.0641
6335.00,1.0528
6334.00,1.0412
6333.00,1.0292
6332.00,1.0168
6331.00,1.0042
6330.00,0.9918
6329.00,0.9795
6328.00,0.9673
6327.00,0.9551
6326.00,0.9430
6325.00,0.9313
6324.00,0.9198
6323.00,0.9083
6322.00,0.8968
6321.00,0.8854
6320.00,0.8744
6319.00,0.8637
6318.00,0.8535
6317.00,0.8439
6316.00,0.8349
6315.00,0.8264
6314.00,0.8184
6313.00,0.8110
6312.00,0.8040
6311.00,0.7974
6310.00,0.7914
6309.00,0.7861
6308.00,0.7817
6307.00,0.7781
6306.00,0.7752
6305.00,0.7730
6304.00,0.7714
6303.00,0.7706
6302.00,0.7704
6301.00,0.7710
6300.00,0.7724
6299.00,0.7745
6298.00,0.7774
6297.00,0.7810
6296.00,0.7852
6295.00,0.7900
6294.00,0.7954
6293.00,0.8012
6292.00,0.8075
6291.00,0.8143
6290.00,0.8216
6289.00,0.8293
6288.00,0.8375
6287.00,0.8459
6286.00,0.8548
6285.00,0.8641
6284.00,0.8739
6283.00,0.8841
6282.00,0.8946
6281.00,0.9055
6280.00,0.9164
6279.00,0.9273
6278.00,0.9381
6277.00,0.9489
6276.00,0.9595
6275.00,0.9701
6274.00,0.9807
6273.00,0.9916
6272.00,1.0025
6271.00,1.0133
6270.00,1.0240
6269.00,1.0348
6268.00,1.0457
6267.00,1.0564
6266.00,1.0669
6265.00,1.0770
6264.00,1.0870
6263.00,1.0966
6262.00,1.1058
6261.00,1.1148
6260.00,1.1235
6259.00,1.1321
6258.00,1.1407
6257.00,1.1492
6256.00,1.1572
6255.00,1.1648
6254.00,1.1721
6253.00,1.1792
6252.00,1.1860
6251.00,1.1923
6250.00,1.1982
6249.00,1.2037
6248.00,1.2091
6247.00,1.2140
6246.00,1.2187
6245.00,1.2230
6244.00,1.2269
6243.00,1.2303
6242.00,1.2331
6241.00,1.2353
6240.00,1.2371
6239.00,1.2386
6238.00,1.2399
6237.00,1.2413
6236.00,1.2427
6235.00,1.2439
6234.00,1.2451
6233.00,1.2459
6232.00,1.2462
6231.00,1.2457
6230.00,1.2445
6229.00,1.2425
6228.00,1.2400
6227.00,1.2371
6226.00,1.2340
6225.00,1.2306
6224.00,1.2267
6223.00,1.2223
6222.00,1.2173
6221.00,1.2122
6220.00,1.2069
6219.00,1.2016
6218.00,1.1963
6217.00,1.1910
6216.00,1.1854
6215.00,1.1791
6214.00,1.1720
6213.00,1.1643
6212.00,1.1560
6211.00,1.1472
6210.00,1.1377
6209.00,1.1282
6208.00,1.1188
6207.00,1.1093
6206.00,1.0997
6205.00,1.0898
6204.00,1.0796
6203.00,1.0691
6202.00,1.0580
6201.00,1.0464
6200.00,1.0345
6199.00,1.0225
6198.00,1.0105
6197.00,0.9983
6196.00,0.9860
6195.00,0.9738
6194.00,0.9617
6193.00,0.9499
6192.00,0.9381
6191.00,0.9262
6190.00,0.9144
6189.00,0.9028
6188.00,0.8914
6187.00,0.8801
6186.00,0.8690
6185.00,0.8582
6184.00,0.8480
6183.00,0.8385
6182.00,0.8294
6181.00,0.8208
6180.00,0.8127
6179.00,0.8052
6178.00,0.7983
6177.00,0.7919
6176.00,0.7860
6175.00,0.7807
6174.00,0.7761
6173.00,0.7724
6172.00,0.7695
6171.00,0.7674
6170.00,0.7661
6169.00,0.7656
6168.00,0.7659
6167.00,0.7668
6166.00,0.7685
6165.00,0.7708
6164.00,0.7739
6163.00,0.7777
6162.00,0.7821
6161.00,0.7872
6160.00,0.7930
6159.00,0.7994
6158.00,0.8063
6157.00,0.8137
6156.00,0.8215
6155.00,0.8297
6154.00,0.8385
6153.00,0.8477
6152.00,0.8574
6151.00,0.8673
6150.00,0.8776
6149.00,0.8883
6148.00,0.8992
6147.00,0.9102
6146.00,0.9214
6145.00,0.9327
6144.00,0.9442
6143.00,0.9559
6142.00,0.9676
6141.00,0.9791
6140.00,0.9906
6139.00,1.0020
6138.00,1.0135
6137.00,1.0249
6136.00,1.0363
6135.00,1.0476
6134.00,1.0588
6133.00,1.0700
6132.00,1.0811
6131.00,1.0918
6130.00,1.1022
6129.00,1.1123
6128.00,1.1222
6127.00,1.1321
6126.00,1.1419
6125.00,1.1516
6124.00,1.1610
6123.00,1.1702
6122.00,1.1792
6121.00,1.1877
6120.00,1.1955
6119.00,1.2028
6118.00,1.2100
6117.00,1.2171
6116.00,1.2238
6115.00,1.2301
6114.00,1.2360
6113.00,1.2414
6112.00,1.2463
6111.00,1.2507
6110.00,1.2547
6109.00,1.2586
6108.00,1.2622
6107.00,1.2656
6106.00,1.2688
6105.00,1.2717
6104.00,1.2742
6103.00,1.2760
6102.00,1.2771
6101.00,1.2775
6100.00,1.2773
6099.00,1.2768
6098.00,1.2761
6097.00,1.2754
6096.00,1.2744
6095.00,1.2731
6094.00,1.2713
6093.00,1.2688
6092.00,1.2658
6091.00,1.2623
6090.00,1.2584
6089.00,1.2541
6088.00,1.2493
6087.00,1.2440
6086.00,1.2383
6085.00,1.2324
6084.00,1.2262
6083.00,1.2198
6082.00,1.2132
6081.00,1.2062
6080.00,1.1989
6079.00,1.1910
6078.00,1.1826
6077.00,1.1736
6076.00,1.1641
6075.00,1.1541
6074.00,1.1435
6073.00,1.1324
6072.00,1.1210
6071.00,1.1095
6070.00,1.0981
6069.00,1.0865
6068.00,1.0748
6067.00,1.0629
6066.00,1.0507
6065.00,1.0383
6064.00,1.0255
6063.00,1.0125
6062.00,0.9993
6061.00,0.9863
6060.00,0.9732
6059.00,0.9602
6058.00,0.9470
6057.00,0.9340
6056.00,0.9213
6055.00,0.9088
6054.00,0.8966
6053.00,0.8848
6052.00,0.8733
6051.00,0.8622
6050.00,0.8515
6049.00,0.8412
6048.00,0.8313
6047.00,0.8219
6046.00,0.8132
6045.00,0.8051
6044.00,0.7977
6043.00,0.7910
6042.00,0.7850
6041.00,0.7797
6040.00,0.7752
6039.00,0.7713
6038.00,0.7681
6037.00,0.7656
6036.00,0.7638
6035.00,0.7629
6034.00,0.7630
6033.00,0.7640
6032.00,0.7659
6031.00,0.7684
6030.00,0.7717
6029.00,0.7757
6028.00,0.7802
6027.00,0.7852
6026.00,0.7908
6025.00,0.7971
6024.00,0.8041
6023.00,0.8119
6022.00,0.8202
6021.00,0.8291
6020.00,0.8385
6019.00,0.8483
6018.00,0.8583
6017.00,0.8686
6016.00,0.8791
6015.00,0.8897
6014.00,0.9007
6013.00,0.9121
6012.00,0.9236
6011.00,0.9353
6010.00,0.9471
6009.00,0.9591
6008.00,0.9712
6007.00,0.9832
6006.00,0.9950
6005.00,1.0067
6004.00,1.0184
6003.00,1.0301
6002.00,1.0416
6001.00,1.0529
6000.00,1.0642
5999.00,1.0754
5998.00,1.0868
5997.00,1.0982
5996.00,1.1096
5995.00,1.1207
5994.00,1.1315
5993.00,1.1421
5992.00,1.1522
5991.00,1.1619
5990.00,1.1711
5989.00,1.1802
5988.00,1.1892
5987.00,1.1979
5986.00,1.2063
5985.00,1.2143
5984.00,1.2220
5983.00,1.2294
5982.00,1.2364
5981.00,1.2431
5980.00,1.2495
5979.00,1.2555
5978.00,1.2612
5977.00,1.2666
5976.00,1.2716
5975.00,1.2760
5974.00,1.2798
5973.00,1.2833
5972.00,1.2865
5971.00,1.2894
5970.00,1.2918
5969.00,1.2935
5968.00,1.2949
5967.00,1.2961
5966.00,1.2968
5965.00,1.2970
5964.00,1.2967
5963.00,1.2960
5962.00,1.2949
5961.00,1.2932
5960.00,1.2910
5959.00,1.2883
5958.00,1.2853
5957.00,1.2820
5956.00,1.2783
5955.00,1.2742
5954.00,1.2697
5953.00,1.2647
5952.00,1.2592
5951.00,1.2530
5950.00,1.2464
5949.00,1.2393
5948.00,1.2318
5947.00,1.2239
5946.00,1.2156
5945.00,1.2071
5944.00,1.1984
5943.00,1.1894
5942.00,1.1799
5941.00,1.1700
5940.00,1.1596
5939.00,1.1485
5938.00,1.1370
5937.00,1.1252
5936.00,1.1133
5935.00,1.1011
5934.00,1.0886
5933.00,1.0759
5932.00,1.0629
5931.00,1.0496
5930.00,1.0362
5929.00,1.0228
5928.00,1.0093
5927.00,0.9958
5926.00,0.9823
5925.00,0.9688
5924.00,0.9554
5923.00,0.9421
5922.00,0.9291
5921.00,0.9163
5920.00,0.9038
5919.00,0.8915
5918.00,0.8796
5917.00,0.8681
5916.00,0.8571
5915.00,0.8467
5914.00,0.8368
5913.00,0.8276
5912.00,0.8190
5911.00,0.8112
5910.00,0.8041
5909.00,0.7976
5908.00,0.7917
5907.00,0.7866
5906.00,0.7824
5905.00,0.7789
5904.00,0.7762
5903.00,0.7743
5902.00,0.7734
5901.00,0.7732
5900.00,0.7738
5899.00,0.7751
5898.00,0.7772
5897.00,0.7803
5896.00,0.7842
5895.00,0.7889
5894.00,0.7944
5893.00,0.8005
5892.00,0.8074
5891.00,0.8148
5890.00,0.8228
5889.00,0.8314
5888.00,0.8403
5887.00,0.8498
5886.00,0.8596
5885.00,0.8700
5884.00,0.8807
5883.00,0.8917
5882.00,0.9031
5881.00,0.9148
5880.00,0.9267
5879.00,0.9387
5878.00,0.9508
5877.00,0.9628
5876.00,0.9750
5875.00,0.9872
5874.00,0.9995
5873.00,1.0120
5872.00,1.0245
5871.00,1.0371
5870.00,1.0496
5869.00,1.0618
5868.00,1.0738
5867.00,1.0855
5866.00,1.0968
5865.00,1.1078
5864.00,1.1186
5863.00,1.1294
5862.00,1.1404
5861.00,1.1514
5860.00,1.1624
5859.00,1.1732
5858.00,1.1836
5857.00,1.1933
5856.00,1.2022
5855.00,1.2108
5854.00,1.2193
5853.00,1.2278
5852.00,1.2360
5851.00,1.2439
5850.00,1.2512
5849.00,1.2581
5848.00,1.2644
5847.00,1.2704
5846.00,1.2762
5845.00,1.2819
5844.00,1.2873
5843.00,1.2923
5842.00,1.2968
5841.00,1.3009
5840.00,1.3048
5839.00,1.3082
5838.00,1.3113
5837.00,1.3140
5836.00,1.3162
5835.00,1.3177
5834.00,1.3188
5833.00,1.3193
5832.00,1.3194
5831.00,1.3191
5830.00,1.3185
5829.00,1.3177
5828.00,1.3169
5827.00,1.3157
5826.00,1.3140
5825.00,1.3115
5824.00,1.3084
5823.00,1.3048
5822.00,1.3007
5821.00,1.2963
5820.00,1.2916
5819.00,1.2868
5818.00,1.2816
5817.00,1.2759
5816.00,1.2694
5815.00,1.2621
5814.00,1.2544
5813.00,1.2463
5812.00,1.2378
5811.00,1.2289
5810.00,1.2199
5809.00,1.2108
5808.00,1.2014
5807.00,1.1914
5806.00,1.1808
5805.00,1.1700
5804.00,1.1589
5803.00,1.1474
5802.00,1.1352
5801.00,1.1225
5800.00,1.1093
5799.00,1.0959
5798.00,1.0825
5797.00,1.0692
5796.00,1.0559
5795.00,1.0425
5794.00,1.0290
5793.00,1.0151
5792.00,1.0008
5791.00,0.9863
5790.00,0.9720
5789.00,0.9581
5788.00,0.9445
5787.00,0.9313
5786.00,0.9184
5785.00,0.9058
5784.00,0.8934
5783.00,0.8814
5782.00,0.8698
5781.00,0.8586
5780.00,0.8479
5779.00,0.8377
5778.00,0.8282
5777.00,0.8195
5776.00,0.8115
5775.00,0.8042
5774.00,0.7978
5773.00,0.7921
5772.00,0.7872
5771.00,0.7830
5770.00,0.7798
5769.00,0.7775
5768.00,0.7761
5767.00,0.7757
5766.00,0.7762
5765.00,0.7776
5764.00,0.7799
5763.00,0.7830
5762.00,0.7869
5761.00,0.7916
5760.00,0.7970
5759.00,0.8030
5758.00,0.8098
5757.00,0.8172
5756.00,0.8253
5755.00,0.8341
5754.00,0.8435
5753.00,0.8535
5752.00,0.8639
5751.00,0.8747
5750.00,0.8856
5749.00,0.8969
5748.00,0.9083
5747.00,0.9200
5746.00,0.9319
5745.00,0.9440
5744.00,0.9564
5743.00,0.9689
5742.00,0.9816
5741.00,0.9944
5740.00,1.0071
5739.00,1.0198
5738.00,1.0324
5737.00,1.0450
5736.00,1.0573
5735.00,1.0695
5734.00,1.0815
5733.00,1.0935
5732.00,1.1054
5731.00,1.1171
5730.00,1.1286
5729.00,1.1399
5728.00,1.1513
5727.00,1.1624
5726.00,1.1733
5725.00,1.1837
5724.00,1.1937
5723.00,1.2034
5722.00,1.2129
5721.00,1.2221
5720.00,1.2311
5719.00,1.2399
5718.00,1.2486
5717.00,1.2568
5716.00,1.2646
5715.00,1.2719
5714.00,1.2788
5713.00,1.2853
5712.00,1.2914
5711.00,1.2971
5710.00,1.3024
5709.00,1.3071
5708.00,1.3114
5707.00,1.3154
5706.00,1.3190
5705.00,1.3223
5704.00,1.3254
5703.00,1.3283
5702.00,1.3309
5701.00,1.3329
5700.00,1.3341
5699.00,1.3346
5698.00,1.3346
5697.00,1.3341
5696.00,1.3333
5695.00,1.3325
5694.00,1.3315
5693.00,1.3302
5692.00,1.3281
5691.00,1.3253
5690.00,1.3220
5689.00,1.3183
5688.00,1.3142
5687.00,1.3096
5686.00,1.3047
5685.00,1.2995
5684.00,1.2938
5683.00,1.2875
5682.00,1.2806
5681.00,1.2735
5680.00,1.2662
5679.00,1.2586
5678.00,1.2505
5677.00,1.2418
5676.00,1.2326
5675.00,1.2229
5674.00,1.2128
5673.00,1.2023
5672.00,1.1915
5671.00,1.1805
5670.00,1.1691
5669.00,1.1572
5668.00,1.1448
5667.00,1.1319
5666.00,1.1187
5665.00,1.1053
5664.00,1.0917
5663.00,1.0780
5662.00,1.0641
5661.00,1.0499
5660.00,1.0355
5659.00,1.0210
5658.00,1.0065
5657.00,0.9921
5656.00,0.9777
5655.00,0.9634
5654.00,0.9492
5653.00,0.9353
5652.00,0.9215
5651.00,0.9080
5650.00,0.8950
5649.00,0.8825
5648.00,0.8704
5647.00,0.8588
5646.00,0.8477
5645.00,0.8373
5644.00,0.8274
5643.00,0.8182
5642.00,0.8096
5641.00,0.8019
5640.00,0.7948
5639.00,0.7886
5638.00,0.7833
5637.00,0.7788
5636.00,0.7753
5635.00,0.7727
5634.00,0.7710
5633.00,0.7702
5632.00,0.7703
5631.00,0.7711
5630.00,0.7729
5629.00,0.7757
5628.00,0.7793
5627.00,0.7839
5626.00,0.7893
5625.00,0.7954
5624.00,0.8022
5623.00,0.8096
5622.00,0.8176
5621.00,0.8262
5620.00,0.8355
5619.00,0.8452
5618.00,0.8556
5617.00,0.8664
5616.00,0.8776
5615.00,0.8891
5614.00,0.9009
5613.00,0.9129
5612.00,0.9252
5611.00,0.9377
5610.00,0.9504
5609.00,0.9633
5608.00,0.9762
5607.00,0.9892
5606.00,1.0021
5605.00,1.0149
5604.00,1.0276
5603.00,1.0403
5602.00,1.0531
5601.00,1.0660
5600.00,1.0789
5599.00,1.0917
5598.00,1.1041
5597.00,1.1161
5596.00,1.1276
5595.00,1.1389
5594.00,1.1502
5593.00,1.1613
5592.00,1.1722
5591.00,1.1828
5590.00,1.1929
5589.00,1.2026
5588.00,1.2119
5587.00,1.2210
5586.00,1.2296
5585.00,1.2380
5584.00,1.2460
5583.00,1.2536
5582.00,1.2605
5581.00,1.2670
5580.00,1.2731
5579.00,1.2789
5578.00,1.2845
5577.00,1.2897
5576.00,1.2947
5575.00,1.2994
5574.00,1.3035
5573.00,1.3071
5572.00,1.3101
5571.00,1.3129
5570.00,1.3156
5569.00,1.3182
5568.00,1.3208
5567.00,1.3233
5566.00,1.3254
5565.00,1.3268
5564.00,1.3276
5563.00,1.3278
5562.00,1.3276
5561.00,1.3270
5560.00,1.3263
5559.00,1.3254
5558.00,1.3242
5557.00,1.3224
5556.00,1.3199
5555.00,1.3168
5554.00,1.3132
5553.00,1.3095
5552.00,1.3056
5551.00,1.3012
5550.00,1.2961
5549.00,1.2903
5548.00,1.2838
5547.00,1.2769
5546.00,1.2696
5545.00,1.2621
5544.00,1.2542
5543.00,1.2459
5542.00,1.2371
5541.00,1.2278
5540.00,1.2181
5539.00,1.2079
5538.00,1.1973
5537.00,1.1862
5536.00,1.1746
5535.00,1.1625
5534.00,1.1500
5533.00,1.1372
5532.00,1.1241
5531.00,1.1107
5530.00,1.0971
5529.00,1.0832
5528.00,1.0691
5527.00,1.0547
5526.00,1.0401
5525.00,1.0253
5524.00,1.0104
5523.00,0.9955
5522.00,0.9806
5521.00,0.9659
5520.00,0.9513
5519.00,0.9369
5518.00,0.9226
5517.00,0.9086
5516.00,0.8950
5515.00,0.8818
5514.00,0.8690
5513.00,0.8568
5512.00,0.8452
5511.00,0.8342
5510.00,0.8238
5509.00,0.8142
5508.00,0.8054
5507.00,0.7974
5506.00,0.7903
5505.00,0.7841
5504.00,0.7786
5503.00,0.7740
5502.00,0.7704
5501.00,0.7677
5500.00,0.7658
5499.00,0.7650
5498.00,0.7653
5497.00,0.7669
5496.00,0.7694
5495.00,0.7726
5494.00,0.7766
5493.00,0.7814
5492.00,0.7871
5491.00,0.7937
5490.00,0.8010
5489.00,0.8091
5488.00,0.8179
5487.00,0.8272
5486.00,0.8372
5485.00,0.8479
5484.00,0.8592
5483.00,0.8710
5482.00,0.8831
5481.00,0.8955
5480.00,0.9083
5479.00,0.9215
5478.00,0.9347
5477.00,0.9480
5476.00,0.9613
5475.00,0.9748
5474.00,0.9886
5473.00,1.0026
5472.00,1.0167
5471.00,1.0308
5470.00,1.0448
5469.00,1.0588
5468.00,1.0727
5467.00,1.0864
5466.00,1.0999
5465.00,1.1133
5464.00,1.1264
5463.00,1.1389
5462.00,1.1509
5461.00,1.1629
5460.00,1.1749
5459.00,1.1870
5458.00,1.1988
5457.00,1.2101
5456.00,1.2211
5455.00,1.2319
5454.00,1.2424
5453.00,1.2527
5452.00,1.2625
5451.00,1.2717
5450.00,1.2805
5449.00,1.2890
5448.00,1.2970
5447.00,1.3047
5446.00,1.3121
5445.00,1.3191
5444.00,1.3258
5443.00,1.3318
5442.00,1.3372
5441.00,1.3421
5440.00,1.3467
5439.00,1.3513
5438.00,1.3555
5437.00,1.3592
5436.00,1.3621
5435.00,1.3646
5434.00,1.3668
5433.00,1.3685
5432.00,1.3695
5431.00,1.3696
5430.00,1.3690
5429.00,1.3682
5428.00,1.3673
5427.00,1.3663
5426.00,1.3651
5425.00,1.3635
5424.00,1.3613
5423.00,1.3587
5422.00,1.3559
5421.00,1.3528
5420.00,1.3495
5419.00,1.3457
5418.00,1.3414
5417.00,1.3363
5416.00,1.3300
5415.00,1.3224
5414.00,1.3140
5413.00,1.3055
5412.00,1.2969
5411.00,1.2882
5410.00,1.2792
5409.00,1.2699
5408.00,1.2602
5407.00,1.2502
5406.00,1.2396
5405.00,1.2287
5404.00,1.2174
5403.00,1.2057
5402.00,1.1936
5401.00,1.1811
5400.00,1.1682
5399.00,1.1550
5398.00,1.1413
5397.00,1.1272
5396.00,1.1125
5395.00,1.0972
5394.00,1.0815
5393.00,1.0657
5392.00,1.0497
5391.00,1.0337
5390.00,1.0179
5389.00,1.0022
5388.00,0.9865
5387.00,0.9708
5386.00,0.9552
5385.00,0.9400
5384.00,0.9252
5383.00,0.9105
5382.00,0.8962
5381.00,0.8824
5380.00,0.8690
5379.00,0.8559
5378.00,0.8432
5377.00,0.8311
5376.00,0.8196
5375.00,0.8089
5374.00,0.7992
5373.00,0.7905
5372.00,0.7829
5371.00,0.7763
5370.00,0.7707
5369.00,0.7661
5368.00,0.7626
5367.00,0.7601
5366.00,0.7587
5365.00,0.7583
5364.00,0.7589
5363.00,0.7606
5362.00,0.7633
5361.00,0.7670
5360.00,0.7715
5359.00,0.7769
5358.00,0.7834
5357.00,0.7909
5356.00,0.7991
5355.00,0.8078
5354.00,0.8173
5353.00,0.8277
5352.00,0.8389
5351.00,0.8503
5350.00,0.8620
5349.00,0.8744
5348.00,0.8873
5347.00,0.9006
5346.00,0.9139
5345.00,0.9273
5344.00,0.9409
5343.00,0.9547
5342.00,0.9687
5341.00,0.9826
5340.00,0.9962
5339.00,1.0097
5338.00,1.0235
5337.00,1.0378
5336.00,1.0523
5335.00,1.0669
5334.00,1.0812
5333.00,1.0952
5332.00,1.1088
5331.00,1.1221
5330.00,1.1350
5329.00,1.1475
5328.00,1.1597
5327.00,1.1717
5326.00,1.1839
5325.00,1.1962
5324.00,1.2083
5323.00,1.2201
5322.00,1.2315
5321.00,1.2423
5320.00,1.2528
5319.00,1.2627
5318.00,1.2723
5317.00,1.2817
5316.00,1.2911
5315.00,1.3002
5314.00,1.3089
5313.00,1.3169
5312.00,1.3243
5311.00,1.3312
5310.00,1.3377
5309.00,1.3439
5308.00,1.3498
5307.00,1.3554
5306.00,1.3605
5305.00,1.3651
5304.00,1.3692
5303.00,1.3727
5302.00,1.3759
5301.00,1.3788
5300.00,1.3813
5299.00,1.3834
5298.00,1.3849
5297.00,1.3859
5296.00,1.3865
5295.00,1.3869
5294.00,1.3871
5293.00,1.3868
5292.00,1.3858
5291.00,1.3840
5290.00,1.3815
5289.00,1.3785
5288.00,1.3750
5287.00,1.3712
5286.00,1.3670
5285.00,1.3624
5284.00,1.3575
5283.00,1.3521
5282.00,1.3462
5281.00,1.3398
5280.00,1.3328
5279.00,1.3253
5278.00,1.3174
5277.00,1.3092
5276.00,1.3004
5275.00,1.2911
5274.00,1.2814
5273.00,1.2715
5272.00,1.2614
5271.00,1.2506
5270.00,1.2391
5269.00,1.2268
5268.00,1.2140
5267.00,1.2007
5266.00,1.1870
5265.00,1.1727
5264.00,1.1582
5263.00,1.1435
5262.00,1.1284
5261.00,1.1129
5260.00,1.0972
5259.00,1.0814
5258.00,1.0657
5257.00,1.0499
5256.00,1.0339
5255.00,1.0178
5254.00,1.0016
5253.00,0.9856
5252.00,0.9697
5251.00,0.9540
5250.00,0.9384
5249.00,0.9230
5248.00,0.9080
5247.00,0.8937
5246.00,0.8799
5245.00,0.8666
5244.00,0.8539
5243.00,0.8418
5242.00,0.8306
5241.00,0.8204
5240.00,0.8110
5239.00,0.8026
5238.00,0.7951
5237.00,0.7887
5236.00,0.7832
5235.00,0.7789
5234.00,0.7758
5233.00,0.7736
5232.00,0.7723
5231.00,0.7721
5230.00,0.7729
5229.00,0.7748
5228.00,0.7778
5227.00,0.7816
5226.00,0.7863
5225.00,0.7919
5224.00,0.7986
5223.00,0.8063
5222.00,0.8149
5221.00,0.8245
5220.00,0.8347
5219.00,0.8457
5218.00,0.8572
5217.00,0.8692
5216.00,0.8818
5215.00,0.8948
5214.00,0.9082
5213.00,0.9219
5212.00,0.9358
5211.00,0.9499
5210.00,0.9643
5209.00,0.9788
5208.00,0.9933
5207.00,1.0080
5206.00,1.0228
5205.00,1.0378
5204.00,1.0527
5203.00,1.0676
5202.00,1.0824
5201.00,1.0972
5200.00,1.1120
5199.00,1.1266
5198.00,1.1410
5197.00,1.1551
5196.00,1.1688
5195.00,1.1822
5194.00,1.1953
5193.00,1.2080
5192.00,1.2204
5191.00,1.2326
5190.00,1.2446
5189.00,1.2566
5188.00,1.2683
5187.00,1.2795
5186.00,1.2903
5185.00,1.3006
5184.00,1.3104
5183.00,1.3199
5182.00,1.3290
5181.00,1.3375
5180.00,1.3456
5179.00,1.3532
5178.00,1.3604
5177.00,1.3673
5176.00,1.3739
5175.00,1.3802
5174.00,1.3861
5173.00,1.3915
5172.00,1.3963
5171.00,1.4005
5170.00,1.4043
5169.00,1.4077
5168.00,1.4106
5167.00,1.4129
5166.00,1.4147
5165.00,1.4160
5164.00,1.4170
5163.00,1.4179
5162.00,1.4185
5161.00,1.4186
5160.00,1.4181
5159.00,1.4168
5158.00,1.4149
5157.00,1.4123
5156.00,1.4093
5155.00,1.4058
5154.00,1.4020
5153.00,1.3978
5152.00,1.3933
5151.00,1.3884
5150.00,1.3832
5149.00,1.3774
5148.00,1.3711
5147.00,1.3642
5146.00,1.3568
5145.00,1.3490
5144.00,1.3407
5143.00,1.3320
5142.00,1.3229
5141.00,1.3133
5140.00,1.3030
5139.00,1.2920
5138.00,1.2804
5137.00,1.2683
5136.00,1.2558
5135.00,1.2430
5134.00,1.2299
5133.00,1.2165
5132.00,1.2025
5131.00,1.1880
5130.00,1.1731
5129.00,1.1578
5128.00,1.1422
5127.00,1.1262
5126.00,1.1100
5125.00,1.0935
5124.00,1.0767
5123.00,1.0597
5122.00,1.0426
5121.00,1.0254
5120.00,1.0082
5119.00,0.9910
5118.00,0.9740
5117.00,0.9573
5116.00,0.9408
5115.00,0.9245
5114.00,0.9086
5113.00,0.8932
5112.00,0.8784
5111.00,0.8642
5110.00,0.8508
5109.00,0.8382
5108.00,0.8265
5107.00,0.8156
5106.00,0.8055
5105.00,0.7963
5104.00,0.7881
5103.00,0.7809
5102.00,0.7748
5101.00,0.7699
5100.00,0.7662
5099.00,0.7636
5098.00,0.7622
5097.00,0.7619
5096.00,0.7629
5095.00,0.7651
5094.00,0.7683
5093.00,0.7727
5092.00,0.7781
5091.00,0.7846
5090.00,0.7920
5089.00,0.8004
5088.00,0.8096
5087.00,0.8197
5086.00,0.8305
5085.00,0.8421
5084.00,0.8543
5083.00,0.8671
5082.00,0.8804
5081.00,0.8941
5080.00,0.9082
5079.00,0.9226
5078.00,0.9374
5077.00,0.9524
5076.00,0.9677
5075.00,0.9832
5074.00,0.9988
5073.00,1.0144
5072.00,1.0299
5071.00,1.0454
5070.00,1.0609
5069.00,1.0765
5068.00,1.0920
5067.00,1.1074
5066.00,1.1226
5065.00,1.1376
5064.00,1.1523
5063.00,1.1667
5062.00,1.1808
5061.00,1.1947
5060.00,1.2083
5059.00,1.2218
5058.00,1.2351
5057.00,1.2482
5056.00,1.2609
5055.00,1.2731
5054.00,1.2847
5053.00,1.2960
5052.00,1.3071
5051.00,1.3179
5050.00,1.3284
5049.00,1.3385
5048.00,1.3482
5047.00,1.3573
5046.00,1.3659
5045.00,1.3740
5044.00,1.3816
5043.00,1.3887
5042.00,1.3953
5041.00,1.4016
5040.00,1.4075
5039.00,1.4130
5038.00,1.4178
5037.00,1.4222
5036.00,1.4262
5035.00,1.4298
5034.00,1.4331
5033.00,1.4359
5032.00,1.4380
5031.00,1.4394
5030.00,1.4403
5029.00,1.4410
5028.00,1.4413
5027.00,1.4413
5026.00,1.4408
5025.00,1.4398
5024.00,1.4381
5023.00,1.4360
5022.00,1.4335
5021.00,1.4307
5020.00,1.4274
5019.00,1.4236
5018.00,1.4191
5017.00,1.4141
5016.00,1.4086
5015.00,1.4025
5014.00,1.3958
5013.00,1.3886
5012.00,1.3809
5011.00,1.3728
5010.00,1.3643
5009.00,1.3555
5008.00,1.3463
5007.00,1.3365
5006.00,1.3259
5005.00,1.3147
5004.00,1.3030
5003.00,1.2909
5002.00,1.2782
5001.00,1.2651
5000.00,1.2514
4999.00,1.2373
4998.00,1.2228
4997.00,1.2078
4996.00,1.1923
4995.00,1.1764
4994.00,1.1600
4993.00,1.1432
4992.00,1.1260
4991.00,1.1084
4990.00,1.0907
4989.00,1.0728
4988.00,1.0549
4987.00,1.0369
4986.00,1.0190
4985.00,1.0011
4984.00,0.9832
4983.00,0.9655
4982.00,0.9480
4981.00,0.9309
4980.00,0.9142
4979.00,0.8980
4978.00,0.8825
4977.00,0.8676
4976.00,0.8533
4975.00,0.8399
4974.00,0.8273
4973.00,0.8157
4972.00,0.8052
4971.00,0.7958
4970.00,0.7875
4969.00,0.7803
4968.00,0.7743
4967.00,0.7695
4966.00,0.7661
4965.00,0.7639
4964.00,0.7631
4963.00,0.7635
4962.00,0.7651
4961.00,0.7680
4960.00,0.7721
4959.00,0.7774
4958.00,0.7838
4957.00,0.7913
4956.00,0.7998
4955.00,0.8093
4954.00,0.8198
4953.00,0.8312
4952.00,0.8434
4951.00,0.8563
4950.00,0.8698
4949.00,0.8838
4948.00,0.8983
4947.00,0.9132
4946.00,0.9286
4945.00,0.9443
4944.00,0.9603
4943.00,0.9765
4942.00,0.9928
4941.00,1.0091
4940.00,1.0255
4939.00,1.0420
4938.00,1.0585
4937.00,1.0751
4936.00,1.0916
4935.00,1.1078
4934.00,1.1238
4933.00,1.1397
4932.00,1.1554
4931.00,1.1711
4930.00,1.1867
4929.00,1.2021
4928.00,1.2173
4927.00,1.2321
4926.00,1.2464
4925.00,1.2601
4924.00,1.2734
4923.00,1.2862
4922.00,1.2987
4921.00,1.3110
4920.00,1.3230
4919.00,1.3347
4918.00,1.3459
4917.00,1.3568
4916.00,1.3672
4915.00,1.3772
4914.00,1.3867
4913.00,1.3955
4912.00,1.4036
4911.00,1.4111
4910.00,1.4184
4909.00,1.4254
4908.00,1.4321
4907.00,1.4382
4906.00,1.4437
4905.00,1.4486
4904.00,1.4530
4903.00,1.4570
4902.00,1.4605
4901.00,1.4636
4900.00,1.4662
4899.00,1.4684
4898.00,1.4702
4897.00,1.4715
4896.00,1.4724
4895.00,1.4726
4894.00,1.4723
4893.00,1.4714
4892.00,1.4701
4891.00,1.4683
4890.00,1.4661
4889.00,1.4636
4888.00,1.4607
4887.00,1.4574
4886.00,1.4536
4885.00,1.4492
4884.00,1.4442
4883.00,1.4385
4882.00,1.4325
4881.00,1.4260
4880.00,1.4190
4879.00,1.4115
4878.00,1.4035
4877.00,1.3950
4876.00,1.3860
4875.00,1.3764
4874.00,1.3664
4873.00,1.3558
4872.00,1.3448
4871.00,1.3332
4870.00,1.3211
4869.00,1.3085
4868.00,1.2952
4867.00,1.2814
4866.00,1.2669
4865.00,1.2519
4864.00,1.2364
4863.00,1.2203
4862.00,1.2037
4861.00,1.1866
4860.00,1.1692
4859.00,1.1515
4858.00,1.1334
4857.00,1.1150
4856.00,1.0964
4855.00,1.0776
4854.00,1.0587
4853.00,1.0398
4852.00,1.0208
4851.00,1.0019
4850.00,0.9830
4849.00,0.9644
4848.00,0.9461
4847.00,0.9281
4846.00,0.9106
4845.00,0.8936
4844.00,0.8772
4843.00,0.8617
4842.00,0.8470
4841.00,0.8332
4840.00,0.8204
4839.00,0.8086
4838.00,0.7979
4837.00,0.7884
4836.00,0.7800
4835.00,0.7730
4834.00,0.7672
4833.00,0.7628
4832.00,0.7598
4831.00,0.7581
4830.00,0.7578
4829.00,0.7589
4828.00,0.7613
4827.00,0.7650
4826.00,0.7702
4825.00,0.7766
4824.00,0.7842
4823.00,0.7929
4822.00,0.8026
4821.00,0.8134
4820.00,0.8250
4819.00,0.8375
4818.00,0.8508
4817.00,0.8648
4816.00,0.8795
4815.00,0.8947
4814.00,0.9104
4813.00,0.9265
4812.00,0.9429
4811.00,0.9596
4810.00,0.9765
4809.00,0.9937
4808.00,1.0110
4807.00,1.0285
4806.00,1.0461
4805.00,1.0635
4804.00,1.0808
4803.00,1.0979
4802.00,1.1149
4801.00,1.1319
4800.00,1.1489
4799.00,1.1657
4798.00,1.1823
4797.00,1.1986
4796.00,1.2145
4795.00,1.2302
4794.00,1.2455
4793.00,1.2607
4792.00,1.2755
4791.00,1.2898
4790.00,1.3037
4789.00,1.3170
4788.00,1.3298
4787.00,1.3424
4786.00,1.3546
4785.00,1.3664
4784.00,1.3777
4783.00,1.3887
4782.00,1.3993
4781.00,1.4095
4780.00,1.4193
4779.00,1.4285
4778.00,1.4370
4777.00,1.4448
4776.00,1.4521
4775.00,1.4589
4774.00,1.4656
4773.00,1.4719
4772.00,1.4777
4771.00,1.4829
4770.00,1.4874
4769.00,1.4912
4768.00,1.4943
4767.00,1.4971
4766.00,1.4996
4765.00,1.5017
4764.00,1.5034
4763.00,1.5045
4762.00,1.5051
4761.00,1.5052
4760.00,1.5049
4759.00,1.5041
4758.00,1.5028
4757.00,1.5011
4756.00,1.4990
4755.00,1.4964
4754.00,1.4932
4753.00,1.4895
4752.00,1.4851
4751.00,1.4802
4750.00,1.4748
4749.00,1.4689
4748.00,1.4625
4747.00,1.4555
4746.00,1.4480
4745.00,1.4400
4744.00,1.4318
4743.00,1.4234
4742.00,1.4144
4741.00,1.4047
4740.00,1.3943
4739.00,1.3830
4738.00,1.3712
4737.00,1.3589
4736.00,1.3461
4735.00,1.3328
4734.00,1.3190
4733.00,1.3047
4732.00,1.2899
4731.00,1.2744
4730.00,1.2584
4729.00,1.2418
4728.00,1.2246
4727.00,1.2069
4726.00,1.1887
4725.00,1.1701
4724.00,1.1512
4723.00,1.1320
4722.00,1.1126
4721.00,1.0931
4720.00,1.0735
4719.00,1.0538
4718.00,1.0341
4717.00,1.0145
4716.00,0.9949
4715.00,0.9756
4714.00,0.9565
4713.00,0.9380
4712.00,0.9201
4711.00,0.9028
4710.00,0.8863
4709.00,0.8707
4708.00,0.8559
4707.00,0.8422
4706.00,0.8297
4705.00,0.8184
4704.00,0.8082
4703.00,0.7993
4702.00,0.7918
4701.00,0.7856
4700.00,0.7809
4699.00,0.7778
4698.00,0.7762
4697.00,0.7761
4696.00,0.7775
4695.00,0.7803
4694.00,0.7846
4693.00,0.7903
4692.00,0.7974
4691.00,0.8058
4690.00,0.8153
4689.00,0.8260
4688.00,0.8376
4687.00,0.8503
4686.00,0.8638
4685.00,0.8780
4684.00,0.8928
4683.00,0.9081
4682.00,0.9239
4681.00,0.9402
4680.00,0.9568
4679.00,0.9738
4678.00,0.9910
4677.00,1.0084
4676.00,1.0258
4675.00,1.0433
4674.00,1.0609
4673.00,1.0786
4672.00,1.0962
4671.00,1.1137
4670.00,1.1311
4669.00,1.1482
4668.00,1.1652
4667.00,1.1820
4666.00,1.1987
4665.00,1.2151
4664.00,1.2312
4663.00,1.2470
4662.00,1.2625
4661.00,1.2778
4660.00,1.2928
4659.00,1.3075
4658.00,1.3218
4657.00,1.3357
4656.00,1.3492
4655.00,1.3623
4654.00,1.3751
4653.00,1.3874
4652.00,1.3993
4651.00,1.4108
4650.00,1.4220
4649.00,1.4326
4648.00,1.4428
4647.00,1.4524
4646.00,1.4615
4645.00,1.4703
4644.00,1.4786
4643.00,1.4867
4642.00,1.4941
4641.00,1.5009
4640.00,1.5069
4639.00,1.5123
4638.00,1.5172
4637.00,1.5216
4636.00,1.5254
4635.00,1.5288
4634.00,1.5317
4633.00,1.5341
4632.00,1.5361
4631.00,1.5377
4630.00,1.5390
4629.00,1.5398
4628.00,1.5403
4627.00,1.5402
4626.00,1.5396
4625.00,1.5385
4624.00,1.5370
4623.00,1.5351
4622.00,1.5328
4621.00,1.5299
4620.00,1.5264
4619.00,1.5221
4618.00,1.5172
4617.00,1.5116
4616.00,1.5055
4615.00,1.4992
4614.00,1.4926
4613.00,1.4857
4612.00,1.4783
4611.00,1.4705
4610.00,1.4622
4609.00,1.4530
4608.00,1.4430
4607.00,1.4322
4606.00,1.4209
4605.00,1.4095
4604.00,1.3977
4603.00,1.3854
4602.00,1.3723
4601.00,1.3583
4600.00,1.3433
4599.00,1.3278
4598.00,1.3118
4597.00,1.2955
4596.00,1.2788
4595.00,1.2617
4594.00,1.2439
4593.00,1.2257
4592.00,1.2068
4591.00,1.1874
4590.00,1.1674
4589.00,1.1472
4588.00,1.1267
4587.00,1.1060
4586.00,1.0852
4585.00,1.0642
4584.00,1.0433
4583.00,1.0223
4582.00,1.0015
4581.00,0.9810
4580.00,0.9609
4579.00,0.9413
4578.00,0.9222
4577.00,0.9038
4576.00,0.8862
4575.00,0.8694
4574.00,0.8536
4573.00,0.8390
4572.00,0.8256
4571.00,0.8135
4570.00,0.8028
4569.00,0.7935
4568.00,0.7857
4567.00,0.7794
4566.00,0.7746
4565.00,0.7714
4564.00,0.7698
4563.00,0.7698
4562.00,0.7714
4561.00,0.7747
4560.00,0.7795
4559.00,0.7858
4558.00,0.7934
4557.00,0.8025
4556.00,0.8129
4555.00,0.8245
4554.00,0.8372
4553.00,0.8508
4552.00,0.8654
4551.00,0.8807
4550.00,0.8967
4549.00,0.9135
4548.00,0.9308
4547.00,0.9485
4546.00,0.9666
4545.00,0.9850
4544.00,1.0037
4543.00,1.0226
4542.00,1.0416
4541.00,1.0607
4540.00,1.0797
4539.00,1.0988
4538.00,1.1179
4537.00,1.1370
4536.00,1.1558
4535.00,1.1745
4534.00,1.1929
4533.00,1.2112
4532.00,1.2293
4531.00,1.2470
4530.00,1.2643
4529.00,1.2811
4528.00,1.2974
4527.00,1.3134
4526.00,1.3293
4525.00,1.3449
4524.00,1.3602
4523.00,1.3751
4522.00,1.3895
4521.00,1.4033
4520.00,1.4166
4519.00,1.4294
4518.00,1.4415
4517.00,1.4530
4516.00,1.4639
4515.00,1.4745
4514.00,1.4848
4513.00,1.4947
4512.00,1.5042
4511.00,1.5130
4510.00,1.5212
4509.00,1.5286
4508.00,1.5354
4507.00,1.5416
4506.00,1.5474
4505.00,1.5530
4504.00,1.5582
4503.00,1.5630
4502.00,1.5672
4501.00,1.5706
4500.00,1.5734
4499.00,1.5755
4498.00,1.5771
4497.00,1.5781
4496.00,1.5787
4495.00,1.5790
4494.00,1.5790
4493.00,1.5786
4492.00,1.5778
4491.00,1.5763
4490.00,1.5740
4489.00,1.5710
4488.00,1.5675
4487.00,1.5638
4486.00,1.5600
4485.00,1.5559
4484.00,1.5514
4483.00,1.5461
4482.00,1.5399
4481.00,1.5329
4480.00,1.5253
4479.00,1.5174
4478.00,1.5091
4477.00,1.5005
4476.00,1.4912
4475.00,1.4814
4474.00,1.4710
4473.00,1.4600
4472.00,1.4485
4471.00,1.4364
4470.00,1.4237
4469.00,1.4100
4468.00,1.3956
4467.00,1.3805
4466.00,1.3649
4465.00,1.3487
4464.00,1.3321
4463.00,1.3149
4462.00,1.2971
4461.00,1.2787
4460.00,1.2595
4459.00,1.2397
4458.00,1.2195
4457.00,1.1988
4456.00,1.1777
4455.00,1.1564
4454.00,1.1349
4453.00,1.1132
4452.00,1.0913
4451.00,1.0693
4450.00,1.0473
4449.00,1.0256
4448.00,1.0041
4447.00,0.9831
4446.00,0.9626
4445.00,0.9428
4444.00,0.9238
4443.00,0.9057
4442.00,0.8887
4441.00,0.8728
4440.00,0.8581
4439.00,0.8447
4438.00,0.8328
4437.00,0.8223
4436.00,0.8133
4435.00,0.8059
4434.00,0.8002
4433.00,0.7963
4432.00,0.7942
4431.00,0.7938
4430.00,0.7951
4429.00,0.7982
4428.00,0.8029
4427.00,0.8094
4426.00,0.8173
4425.00,0.8268
4424.00,0.8376
4423.00,0.8496
4422.00,0.8629
4421.00,0.8773
4420.00,0.8927
4419.00,0.9090
4418.00,0.9261
4417.00,0.9439
4416.00,0.9622
4415.00,0.9809
4414.00,1.0000
4413.00,1.0194
4412.00,1.0391
4411.00,1.0591
4410.00,1.0792
4409.00,1.0994
4408.00,1.1195
4407.00,1.1396
4406.00,1.1597
4405.00,1.1797
4404.00,1.1996
4403.00,1.2192
4402.00,1.2385
4401.00,1.2575
4400.00,1.2761
4399.00,1.2943
4398.00,1.3120
4397.00,1.3293
4396.00,1.3464
4395.00,1.3633
4394.00,1.3799
4393.00,1.3961
4392.00,1.4118
4391.00,1.4269
4390.00,1.4414
4389.00,1.4553
4388.00,1.4687
4387.00,1.4813
4386.00,1.4934
4385.00,1.5049
4384.00,1.5158
4383.00,1.5263
4382.00,1.5364
4381.00,1.5459
4380.00,1.5550
4379.00,1.5635
4378.00,1.5715
4377.00,1.5789
4376.00,1.5856
4375.00,1.5916
4374.00,1.5971
4373.00,1.6024
4372.00,1.6076
4371.00,1.6125
4370.00,1.6169
4369.00,1.6207
4368.00,1.6238
4367.00,1.6261
4366.00,1.6279
4365.00,1.6291
4364.00,1.6300
4363.00,1.6308
4362.00,1.6314
4361.00,1.6318
4360.00,1.6319
4359.00,1.6312
4358.00,1.6297
4357.00,1.6274
4356.00,1.6247
4355.00,1.6216
4354.00,1.6184
4353.00,1.6149
4352.00,1.6108
4351.00,1.6059
4350.00,1.6003
4349.00,1.5941
4348.00,1.5877
4347.00,1.5810
4346.00,1.5740
4345.00,1.5666
4344.00,1.5585
4343.00,1.5496
4342.00,1.5400
4341.00,1.5298
4340.00,1.5191
4339.00,1.5079
4338.00,1.4961
4337.00,1.4836
4336.00,1.4704
4335.00,1.4566
4334.00,1.4423
4333.00,1.4274
4332.00,1.4118
4331.00,1.3956
4330.00,1.3787
4329.00,1.3611
4328.00,1.3429
4327.00,1.3240
4326.00,1.3045
4325.00,1.2844
4324.00,1.2640
4323.00,1.2433
4322.00,1.2224
4321.00,1.2013
4320.00,1.1800
4319.00,1.1585
4318.00,1.1369
4317.00,1.1152
4316.00,1.0936
4315.00,1.0721
4314.00,1.0511
4313.00,1.0306
4312.00,1.0107
4311.00,0.9915
4310.00,0.9730
4309.00,0.9554
4308.00,0.9387
4307.00,0.9231
4306.00,0.9086
4305.00,0.8954
4304.00,0.8835
4303.00,0.8731
4302.00,0.8643
4301.00,0.8571
4300.00,0.8516
4299.00,0.8480
4298.00,0.8462
4297.00,0.8462
4296.00,0.8479
4295.00,0.8513
4294.00,0.8563
4293.00,0.8630
4292.00,0.8712
4291.00,0.8808
4290.00,0.8918
4289.00,0.9040
4288.00,0.9172
4287.00,0.9314
4286.00,0.9464
4285.00,0.9622
4284.00,0.9787
4283.00,0.9957
4282.00,1.0131
4281.00,1.0309
4280.00,1.0489
4279.00,1.0671
4278.00,1.0854
4277.00,1.1040
4276.00,1.1226
4275.00,1.1414
4274.00,1.1602
4273.00,1.1791
4272.00,1.1979
4271.00,1.2166
4270.00,1.2354
4269.00,1.2540
4268.00,1.2725
4267.00,1.2907
4266.00,1.3085
4265.00,1.3258
4264.00,1.3428
4263.00,1.3597
4262.00,1.3766
4261.00,1.3933
4260.00,1.4096
4259.00,1.4253
4258.00,1.4403
4257.00,1.4548
4256.00,1.4689
4255.00,1.4829
4254.00,1.4967
4253.00,1.5102
4252.00,1.5233
4251.00,1.5357
4250.00,1.5475
4249.00,1.5587
4248.00,1.5694
4247.00,1.5797
4246.00,1.5893
4245.00,1.5982
4244.00,1.6064
4243.00,1.6141
4242.00,1.6215
4241.00,1.6286
4240.00,1.6352
4239.00,1.6412
4238.00,1.6466
4237.00,1.6515
4236.00,1.6558
4235.00,1.6597
4234.00,1.6631
4233.00,1.6662
4232.00,1.6688
4231.00,1.6709
4230.00,1.6723
4229.00,1.6731
4228.00,1.6733
4227.00,1.6732
4226.00,1.6726
4225.00,1.6715
4224.00,1.6699
4223.00,1.6677
4222.00,1.6651
4221.00,1.6624
4220.00,1.6595
4219.00,1.6559
4218.00,1.6517
4217.00,1.6468
4216.00,1.6413
4215.00,1.6354
4214.00,1.6290
4213.00,1.6221
4212.00,1.6146
4211.00,1.6066
4210.00,1.5981
4209.00,1.5891
4208.00,1.5795
4207.00,1.5694
4206.00,1.5588
4205.00,1.5475
4204.00,1.5354
4203.00,1.5224
4202.00,1.5086
4201.00,1.4942
4200.00,1.4793
4199.00,1.4638
4198.00,1.4478
4197.00,1.4313
4196.00,1.4141
4195.00,1.3962
4194.00,1.3775
4193.00,1.3582
4192.00,1.3383
4191.00,1.3179
4190.00,1.2970
4189.00,1.2755
4188.00,1.2537
4187.00,1.2317
4186.00,1.2094
4185.00,1.1869
4184.00,1.1643
4183.00,1.1416
4182.00,1.1189
4181.00,1.0963
4180.00,1.0739
4179.00,1.0521
4178.00,1.0308
4177.00,1.0102
4176.00,0.9904
4175.00,0.9716
4174.00,0.9537
4173.00,0.9371
4172.00,0.9217
4171.00,0.9077
4170.00,0.8952
4169.00,0.8844
4168.00,0.8752
4167.00,0.8678
4166.00,0.8621
4165.00,0.8583
4164.00,0.8563
4163.00,0.8563
4162.00,0.8580
4161.00,0.8616
4160.00,0.8670
4159.00,0.8740
4158.00,0.8827
4157.00,0.8928
4156.00,0.9044
4155.00,0.9172
4154.00,0.9313
4153.00,0.9465
4152.00,0.9627
4151.00,0.9797
4150.00,0.9976
4149.00,1.0160
4148.00,1.0351
4147.00,1.0546
4146.00,1.0746
4145.00,1.0948
4144.00,1.1152
4143.00,1.1357
4142.00,1.1564
4141.00,1.1773
4140.00,1.1982
4139.00,1.2191
4138.00,1.2399
4137.00,1.2605
4136.00,1.2808
4135.00,1.3009
4134.00,1.3206
4133.00,1.3402
4132.00,1.3595
4131.00,1.3786
4130.00,1.3974
4129.00,1.4157
4128.00,1.4334
4127.00,1.4505
4126.00,1.4670
4125.00,1.4832
4124.00,1.4990
4123.00,1.5143
4122.00,1.5291
4121.00,1.5434
4120.00,1.5572
4119.00,1.5704
4118.00,1.5830
4117.00,1.5951
4116.00,1.6066
4115.00,1.6174
4114.00,1.6274
4113.00,1.6365
4112.00,1.6451
4111.00,1.6531
4110.00,1.6608
4109.00,1.6682
4108.00,1.6752
4107.00,1.6818
4106.00,1.6881
4105.00,1.6939
4104.00,1.6992
4103.00,1.7036
4102.00,1.7071
4101.00,1.7100
4100.00,1.7126
4099.00,1.7151
4098.00,1.7172
4097.00,1.7190
4096.00,1.7199
4095.00,1.7201
4094.00,1.7195
4093.00,1.7183
4092.00,1.7168
4091.00,1.7151
4090.00,1.7129
4089.00,1.7101
4088.00,1.7066
4087.00,1.7027
4086.00,1.6984
4085.00,1.6938
4084.00,1.6886
4083.00,1.6831
4082.00,1.6773
4081.00,1.6711
4080.00,1.6643
4079.00,1.6566
4078.00,1.6479
4077.00,1.6384
4076.00,1.6284
4075.00,1.6179
4074.00,1.6069
4073.00,1.5952
4072.00,1.5829
4071.00,1.5703
4070.00,1.5573
4069.00,1.5437
4068.00,1.5293
4067.00,1.5140
4066.00,1.4978
4065.00,1.4810
4064.00,1.4637
4063.00,1.4458
4062.00,1.4270
4061.00,1.4075
4060.00,1.3874
4059.00,1.3668
4058.00,1.3457
4057.00,1.3241
4056.00,1.3020
4055.00,1.2792
4054.00,1.2560
4053.00,1.2326
4052.00,1.2089
4051.00,1.1853
4050.00,1.1616
4049.00,1.1380
4048.00,1.1145
4047.00,1.0911
4046.00,1.0680
4045.00,1.0453
4044.00,1.0233
4043.00,1.0021
4042.00,0.9818
4041.00,0.9626
4040.00,0.9446
4039.00,0.9279
4038.00,0.9126
4037.00,0.8990
4036.00,0.8870
4035.00,0.8768
4034.00,0.8685
4033.00,0.8621
4032.00,0.8578
4031.00,0.8557
4030.00,0.8557
4029.00,0.8578
4028.00,0.8621
4027.00,0.8684
4026.00,0.8768
4025.00,0.8870
4024.00,0.8989
4023.00,0.9123
4022.00,0.9270
4021.00,0.9430
4020.00,0.9601
4019.00,0.9782
4018.00,0.9974
4017.00,1.0173
4016.00,1.0379
4015.00,1.0590
4014.00,1.0805
4013.00,1.1022
4012.00,1.1241
4011.00,1.1462
4010.00,1.1683
4009.00,1.1904
4008.00,1.2125
4007.00,1.2347
4006.00,1.2569
4005.00,1.2788
4004.00,1.3006
4003.00,1.3221
4002.00,1.3433
4001.00,1.3640
4000.00,1.3844
3999.00,1.4045
3998.00,1.4243
3997.00,1.4437
3996.00,1.4625
3995.00,1.4808
3994.00,1.4986
3993.00,1.5162
3992.00,1.5335
3991.00,1.5505
3990.00,1.5669
3989.00,1.5823
3988.00,1.5970
3987.00,1.6109
3986.00,1.6244
3985.00,1.6375
3984.00,1.6498
3983.00,1.6614
3982.00,1.6720
3981.00,1.6820
3980.00,1.6917
3979.00,1.7009
3978.00,1.7097
3977.00,1.7177
3976.00,1.7251
3975.00,1.7318
3974.00,1.7379
3973.00,1.7436
3972.00,1.7489
3971.00,1.7542
3970.00,1.7590
3969.00,1.7631
3968.00,1.7660
3967.00,1.7681
3966.00,1.7700
3965.00,1.7719
3964.00,1.7739
3963.00,1.7753
3962.00,1.7758
3961.00,1.7754
3960.00,1.7744
3959.00,1.7731
3958.00,1.7714
3957.00,1.7694
3956.00,1.7670
3955.00,1.7641
3954.00,1.7605
3953.00,1.7561
3952.00,1.7511
3951.00,1.7459
3950.00,1.7404
3949.00,1.7345
3948.00,1.7281
3947.00,1.7211
3946.00,1.7136
3945.00,1.7055
3944.00,1.6968
3943.00,1.6873
3942.00,1.6770
3941.00,1.6659
3940.00,1.6542
3939.00,1.6418
3938.00,1.6288
3937.00,1.6155
3936.00,1.6020
3935.00,1.5880
3934.00,1.5734
3933.00,1.5577
3932.00,1.5408
3931.00,1.5227
3930.00,1.5037
3929.00,1.4841
3928.00,1.4642
3927.00,1.4437
3926.00,1.4220
3925.00,1.3991
3924.00,1.3749
3923.00,1.3499
3922.00,1.3247
3921.00,1.2992
3920.00,1.2735
3919.00,1.2472
3918.00,1.2201
3917.00,1.1922
3916.00,1.1640
3915.00,1.1359
3914.00,1.1085
3913.00,1.0818
3912.00,1.0555
3911.00,1.0296
3910.00,1.0046
3909.00,0.9807
3908.00,0.9586
3907.00,0.9382
3906.00,0.9195
3905.00,0.9023
3904.00,0.8867
3903.00,0.8730
3902.00,0.8616
3901.00,0.8527
3900.00,0.8461
3899.00,0.8418
3898.00,0.8401
3897.00,0.8411
3896.00,0.8452
3895.00,0.8521
3894.00,0.8616
3893.00,0.8732
3892.00,0.8863
3891.00,0.9008
3890.00,0.9168
3889.00,0.9342
3888.00,0.9528
3887.00,0.9728
3886.00,0.9944
3885.00,1.0175
3884.00,1.0413
3883.00,1.0649
3882.00,1.0883
3881.00,1.1121
3880.00,1.1370
3879.00,1.1628
3878.00,1.1883
3877.00,1.2128
3876.00,1.2363
3875.00,1.2594
3874.00,1.2829
3873.00,1.3065
3872.00,1.3295
3871.00,1.3521
3870.00,1.3750
3869.00,1.3989
3868.00,1.4230
3867.00,1.4460
3866.00,1.4674
3865.00,1.4878
3864.00,1.5080
3863.00,1.5279
3862.00,1.5473
3861.00,1.5656
3860.00,1.5827
3859.00,1.5987
3858.00,1.6145
3857.00,1.6303
3856.00,1.6453
3855.00,1.6592
3854.00,1.6725
3853.00,1.6856
3852.00,1.6983
3851.00,1.7103
3850.00,1.7216
3849.00,1.7326
3848.00,1.7432
3847.00,1.7532
3846.00,1.7625
3845.00,1.7709
3844.00,1.7785
3843.00,1.7857
3842.00,1.7922
3841.00,1.7979
3840.00,1.8025
3839.00,1.8061
3838.00,1.8092
3837.00,1.8119
3836.00,1.8143
3835.00,1.8162
3834.00,1.8178
3833.00,1.8191
3832.00,1.8203
3831.00,1.8210
3830.00,1.8210
3829.00,1.8199
3828.00,1.8179
3827.00,1.8154
3826.00,1.8133
3825.00,1.8116
3824.00,1.8093
3823.00,1.8053
3822.00,1.7995
3821.00,1.7925
3820.00,1.7853
3819.00,1.7783
3818.00,1.7710
3817.00,1.7626
3816.00,1.7532
3815.00,1.7433
3814.00,1.7337
3813.00,1.7248
3812.00,1.7164
3811.00,1.7083
3810.00,1.6997
3809.00,1.6896
3808.00,1.6774
3807.00,1.6637
3806.00,1.6497
3805.00,1.6362
3804.00,1.6226
3803.00,1.6077
3802.00,1.5905
3801.00,1.5713
3800.00,1.5512
3799.00,1.5315
3798.00,1.5118
3797.00,1.4916
3796.00,1.4706
3795.00,1.4488
3794.00,1.4266
3793.00,1.4036
3792.00,1.3798
3791.00,1.3551
3790.00,1.3296
3789.00,1.3033
3788.00,1.2764
3787.00,1.2487
3786.00,1.2202
3785.00,1.1914
3784.00,1.1628
3783.00,1.1349
3782.00,1.1076
3781.00,1.0807
3780.00,1.0539
3779.00,1.0276
3778.00,1.0026
3777.00,0.9795
3776.00,0.9587
3775.00,0.9402
3774.00,0.9241
3773.00,0.9106
3772.00,0.8993
3771.00,0.8897
3770.00,0.8818
3769.00,0.8761
3768.00,0.8732
3767.00,0.8732
3766.00,0.8760
3765.00,0.8816
3764.00,0.8898
3763.00,0.9005
3762.00,0.9133
3761.00,0.9282
3760.00,0.9450
3759.00,0.9634
3758.00,0.9828
3757.00,1.0034
3756.00,1.0252
3755.00,1.0480
3754.00,1.0711
3753.00,1.0947
3752.00,1.1191
3751.00,1.1445
3750.00,1.1705
3749.00,1.1969
3748.00,1.2234
3747.00,1.2492
3746.00,1.2742
3745.00,1.2999
3744.00,1.3282
3743.00,1.3581
3742.00,1.3867
3741.00,1.4122
3740.00,1.4356
3739.00,1.4579
3738.00,1.4798
3737.00,1.5017
3736.00,1.5242
3735.00,1.5474
3734.00,1.5705
3733.00,1.5928
3732.00,1.6141
3731.00,1.6345
3730.00,1.6540
3729.00,1.6726
3728.00,1.6901
3727.00,1.7066
3726.00,1.7223
3725.00,1.7374
3724.00,1.7520
3723.00,1.7660
3722.00,1.7793
3721.00,1.7916
3720.00,1.8028
3719.00,1.8129
3718.00,1.8221
3717.00,1.8312
3716.00,1.8404
3715.00,1.8491
3714.00,1.8564
3713.00,1.8624
3712.00,1.8676
3711.00,1.8723
3710.00,1.8766
3709.00,1.8806
3708.00,1.8843
3707.00,1.8877
3706.00,1.8906
3705.00,1.8934
3704.00,1.8958
3703.00,1.8976
3702.00,1.8984
3701.00,1.8984
3700.00,1.8979
3699.00,1.8972
3698.00,1.8961
3697.00,1.8945
3696.00,1.8922
3695.00,1.8890
3694.00,1.8852
3693.00,1.8806
3692.00,1.8754
3691.00,1.8697
3690.00,1.8633
3689.00,1.8559
3688.00,1.8472
3687.00,1.8378
3686.00,1.8286
3685.00,1.8201
3684.00,1.8121
3683.00,1.8039
3682.00,1.7947
3681.00,1.7842
3680.00,1.7730
3679.00,1.7614
3678.00,1.7491
3677.00,1.7349
3676.00,1.7181
3675.00,1.6991
3674.00,1.6801
3673.00,1.6622
3672.00,1.6448
3671.00,1.6265
3670.00,1.6069
3669.00,1.5862
3668.00,1.5656
3667.00,1.5453
3666.00,1.5256
3665.00,1.5062
3664.00,1.4868
3663.00,1.4669
3662.00,1.4465
3661.00,1.4261
3660.00,1.4064
3659.00,1.3875
3658.00,1.3688
3657.00,1.3496
3656.00,1.3301
3655.00,1.3116
3654.00,1.2960
3653.00,1.2834
3652.00,1.2723
3651.00,1.2613
3650.00,1.2503
3649.00,1.2396
3648.00,1.2300
3647.00,1.2223
3646.00,1.2174
3645.00,1.2156
3644.00,1.2167
3643.00,1.2199
3642.00,1.2246
3641.00,1.2305
3640.00,1.2374
3639.00,1.2454
3638.00,1.2546
3637.00,1.2650
3636.00,1.2762
3635.00,1.2878
3634.00,1.3003
3633.00,1.3142
3632.00,1.3297
3631.00,1.3462
3630.00,1.3636
3629.00,1.3817
3628.00,1.4000
3627.00,1.4178
3626.00,1.4350
3625.00,1.4523
3624.00,1.4702
3623.00,1.4888
3622.00,1.5077
3621.00,1.5265
3620.00,1.5451
3619.00,1.5635
3618.00,1.5816
3617.00,1.5990
3616.00,1.6156
3615.00,1.6315
3614.00,1.6471
3613.00,1.6629
3612.00,1.6790
3611.00,1.6954
3610.00,1.7116
3609.00,1.7278
3608.00,1.7437
3607.00,1.7591
3606.00,1.7739
3605.00,1.7880
3604.00,1.8017
3603.00,1.8150
3602.00,1.8279
3601.00,1.8404
3600.00,1.8524
3599.00,1.8637
3598.00,1.8748
3597.00,1.8856
3596.00,1.8962
3595.00,1.9060
3594.00,1.9149
3593.00,1.9232
3592.00,1.9316
3591.00,1.9406
3590.00,1.9498
3589.00,1.9591
3588.00,1.9681
3587.00,1.9766
3586.00,1.9845
3585.00,1.9919
3584.00,1.9987
3583.00,2.0049
3582.00,2.0107
3581.00,2.0162
3580.00,2.0214
3579.00,2.0264
3578.00,2.0309
3577.00,2.0348
3576.00,2.0378
3575.00,2.0400
3574.00,2.0417
3573.00,2.0434
3572.00,2.0453
3571.00,2.0475
3570.00,2.0497
3569.00,2.0512
3568.00,2.0518
3567.00,2.0514
3566.00,2.0504
3565.00,2.0495
3564.00,2.0487
3563.00,2.0478
3562.00,2.0467
3561.00,2.0454
3560.00,2.0437
3559.00,2.0416
3558.00,2.0391
3557.00,2.0362
3556.00,2.0329
3555.00,2.0290
3554.00,2.0244
3553.00,2.0193
3552.00,2.0135
3551.00,2.0074
3550.00,2.0013
3549.00,1.9956
3548.00,1.9900
3547.00,1.9840
3546.00,1.9775
3545.00,1.9704
3544.00,1.9630
3543.00,1.9553
3542.00,1.9470
3541.00,1.9382
3540.00,1.9291
3539.00,1.9201
3538.00,1.9115
3537.00,1.9030
3536.00,1.8940
3535.00,1.8843
3534.00,1.8743
3533.00,1.8644
3532.00,1.8547
3531.00,1.8450
3530.00,1.8349
3529.00,1.8243
3528.00,1.8133
3527.00,1.8024
3526.00,1.7918
3525.00,1.7815
3524.00,1.7713
3523.00,1.7610
3522.00,1.7507
3521.00,1.7405
3520.00,1.7307
3519.00,1.7211
3518.00,1.7117
3517.00,1.7023
3516.00,1.6929
3515.00,1.6838
3514.00,1.6752
3513.00,1.6671
3512.00,1.6594
3511.00,1.6518
3510.00,1.6444
3509.00,1.6373
3508.00,1.6308
3507.00,1.6248
3506.00,1.6191
3505.00,1.6139
3504.00,1.6094
3503.00,1.6057
3502.00,1.6028
3501.00,1.6007
3500.00,1.5994
3499.00,1.5987
3498.00,1.5987
3497.00,1.5993
3496.00,1.6006
3495.00,1.6027
3494.00,1.6058
3493.00,1.6097
3492.00,1.6143
3491.00,1.6196
3490.00,1.6255
3489.00,1.6320
3488.00,1.6391
3487.00,1.6470
3486.00,1.6555
3485.00,1.6645
3484.00,1.6741
3483.00,1.6842
3482.00,1.6948
3481.00,1.7057
3480.00,1.7168
3479.00,1.7280
3478.00,1.7394
3477.00,1.7511
3476.00,1.7630
3475.00,1.7752
3474.00,1.7877
3473.00,1.8004
3472.00,1.8133
3471.00,1.8261
3470.00,1.8387
3469.00,1.8510
3468.00,1.8631
3467.00,1.8751
3466.00,1.8872
3465.00,1.8991
3464.00,1.9109
3463.00,1.9224
3462.00,1.9337
3461.00,1.9446
3460.00,1.9552
3459.00,1.9655
3458.00,1.9755
3457.00,1.9852
3456.00,1.9947
3455.00,2.0040
3454.00,2.0133
3453.00,2.0225
3452.00,2.0311
3451.00,2.0389
3450.00,2.0463
3449.00,2.0534
3448.00,2.0606
3447.00,2.0678
3446.00,2.0747
3445.00,2.0811
3444.00,2.0870
3443.00,2.0925
3442.00,2.0975
3441.00,2.1018
3440.00,2.1053
3439.00,2.1083
3438.00,2.1114
3437.00,2.1150
3436.00,2.1185
3435.00,2.1215
3434.00,2.1236
3433.00,2.1250
3432.00,2.1259
3431.00,2.1263
3430.00,2.1266
3429.00,2.1268
3428.00,2.1271
3427.00,2.1272
3426.00,2.1266
3425.00,2.1253
3424.00,2.1236
3423.00,2.1218
3422.00,2.1196
3421.00,2.1170
3420.00,2.1140
3419.00,2.1113
3418.00,2.1089
3417.00,2.1065
3416.00,2.1035
3415.00,2.0996
3414.00,2.0948
3413.00,2.0897
3412.00,2.0847
3411.00,2.0796
3410.00,2.0745
3409.00,2.0692
3408.00,2.0638
3407.00,2.0582
3406.00,2.0521
3405.00,2.0454
3404.00,2.0379
3403.00,2.0297
3402.00,2.0211
3401.00,2.0120
3400.00,2.0022
3399.00,1.9913
3398.00,1.9791
3397.00,1.9659
3396.00,1.9523
3395.00,1.9386
3394.00,1.9248
3393.00,1.9104
3392.00,1.8952
3391.00,1.8790
3390.00,1.8621
3389.00,1.8448
3388.00,1.8271
3387.00,1.8091
3386.00,1.7906
3385.00,1.7718
3384.00,1.7527
3383.00,1.7335
3382.00,1.7143
3381.00,1.6953
3380.00,1.6767
3379.00,1.6582
3378.00,1.6398
3377.00,1.6213
3376.00,1.6029
3375.00,1.5851
3374.00,1.5680
3373.00,1.5518
3372.00,1.5365
3371.00,1.5222
3370.00,1.5090
3369.00,1.4969
3368.00,1.4861
3367.00,1.4767
3366.00,1.4688
3365.00,1.4625
3364.00,1.4579
3363.00,1.4549
3362.00,1.4535
3361.00,1.4536
3360.00,1.4553
3359.00,1.4585
3358.00,1.4634
3357.00,1.4699
3356.00,1.4778
3355.00,1.4869
3354.00,1.4971
3353.00,1.5085
3352.00,1.5209
3351.00,1.5343
3350.00,1.5487
3349.00,1.5638
3348.00,1.5796
3347.00,1.5958
3346.00,1.6125
3345.00,1.6296
3344.00,1.6471
3343.00,1.6646
3342.00,1.6822
3341.00,1.6998
3340.00,1.7175
3339.00,1.7351
3338.00,1.7526
3337.00,1.7699
3336.00,1.7873
3335.00,1.8046
3334.00,1.8219
3333.00,1.8390
3332.00,1.8559
3331.00,1.8724
3330.00,1.8884
3329.00,1.9039
3328.00,1.9188
3327.00,1.9333
3326.00,1.9473
3325.00,1.9609
3324.00,1.9739
3323.00,1.9863
3322.00,1.9979
3321.00,2.0090
3320.00,2.0197
3319.00,2.0302
3318.00,2.0406
3317.00,2.0506
3316.00,2.0600
3315.00,2.0687
3314.00,2.0768
3313.00,2.0843
3312.00,2.0913
3311.00,2.0978
3310.00,2.1038
3309.00,2.1094
3308.00,2.1148
3307.00,2.1202
3306.00,2.1253
3305.00,2.1299
3304.00,2.1335
3303.00,2.1365
3302.00,2.1392
3301.00,2.1419
3300.00,2.1443
3299.00,2.1462
3298.00,2.1474
3297.00,2.1480
3296.00,2.1481
3295.00,2.1472
3294.00,2.1454
3293.00,2.1428
3292.00,2.1397
3291.00,2.1362
3290.00,2.1326
3289.00,2.1286
3288.00,2.1245
3287.00,2.1204
3286.00,2.1165
3285.00,2.1125
3284.00,2.1076
3283.00,2.1016
3282.00,2.0947
3281.00,2.0875
3280.00,2.0802
3279.00,2.0729
3278.00,2.0649
3277.00,2.0558
3276.00,2.0459
3275.00,2.0354
3274.00,2.0248
3273.00,2.0141
3272.00,2.0029
3271.00,1.9911
3270.00,1.9788
3269.00,1.9662
3268.00,1.9533
3267.00,1.9401
3266.00,1.9266
3265.00,1.9125
3264.00,1.8978
3263.00,1.8824
3262.00,1.8664
3261.00,1.8500
3260.00,1.8333
3259.00,1.8164
3258.00,1.7993
3257.00,1.7822
3256.00,1.7649
3255.00,1.7475
3254.00,1.7298
3253.00,1.7122
3252.00,1.6949
3251.00,1.6781
3250.00,1.6619
3249.00,1.6459
3248.00,1.6302
3247.00,1.6149
3246.00,1.6002
3245.00,1.5864
3244.00,1.5735
3243.00,1.5616
3242.00,1.5506
3241.00,1.5408
3240.00,1.5321
3239.00,1.5248
3238.00,1.5188
3237.00,1.5142
3236.00,1.5110
3235.00,1.5092
3234.00,1.5089
3233.00,1.5102
3232.00,1.5128
3231.00,1.5168
3230.00,1.5221
3229.00,1.5289
3228.00,1.5369
3227.00,1.5461
3226.00,1.5563
3225.00,1.5675
3224.00,1.5797
3223.00,1.5929
3222.00,1.6069
3221.00,1.6217
3220.00,1.6372
3219.00,1.6533
3218.00,1.6700
3217.00,1.6870
3216.00,1.7041
3215.00,1.7212
3214.00,1.7384
3213.00,1.7556
3212.00,1.7731
3211.00,1.7908
3210.00,1.8086
3209.00,1.8263
3208.00,1.8438
3207.00,1.8609
3206.00,1.8777
3205.00,1.8943
3204.00,1.9109
3203.00,1.9273
3202.00,1.9433
3201.00,1.9587
3200.00,1.9736
3199.00,1.9881
3198.00,2.0020
3197.00,2.0153
3196.00,2.0282
3195.00,2.0406
3194.00,2.0528
3193.00,2.0645
3192.00,2.0758
3191.00,2.0868
3190.00,2.0976
3189.00,2.1081
3188.00,2.1177
3187.00,2.1257
3186.00,2.1327
3185.00,2.1394
3184.00,2.1465
3183.00,2.1541
3182.00,2.1615
3181.00,2.1683
3180.00,2.1740
3179.00,2.1786
3178.00,2.1823
3177.00,2.1857
3176.00,2.1893
3175.00,2.1929
3174.00,2.1962
3173.00,2.1989
3172.00,2.2011
3171.00,2.2032
3170.00,2.2051
3169.00,2.2066
3168.00,2.2075
3167.00,2.2075
3166.00,2.2069
3165.00,2.2062
3164.00,2.2054
3163.00,2.2043
3162.00,2.2027
3161.00,2.2008
3160.00,2.1984
3159.00,2.1953
3158.00,2.1916
3157.00,2.1873
3156.00,2.1826
3155.00,2.1777
3154.00,2.1725
3153.00,2.1669
3152.00,2.1610
3151.00,2.1547
3150.00,2.1475
3149.00,2.1395
3148.00,2.1307
3147.00,2.1214
3146.00,2.1114
3145.00,2.1009
3144.00,2.0900
3143.00,2.0789
3142.00,2.0675
3141.00,2.0553
3140.00,2.0422
3139.00,2.0284
3138.00,2.0140
3137.00,1.9989
3136.00,1.9831
3135.00,1.9668
3134.00,1.9503
3133.00,1.9333
3132.00,1.9158
3131.00,1.8980
3130.00,1.8798
3129.00,1.8615
3128.00,1.8431
3127.00,1.8244
3126.00,1.8056
3125.00,1.7865
3124.00,1.7674
3123.00,1.7482
3122.00,1.7294
3121.00,1.7109
3120.00,1.6930
3119.00,1.6755
3118.00,1.6587
3117.00,1.6427
3116.00,1.6277
3115.00,1.6141
3114.00,1.6016
3113.00,1.5904
3112.00,1.5807
3111.00,1.5726
3110.00,1.5662
3109.00,1.5616
3108.00,1.5589
3107.00,1.5579
3106.00,1.5587
3105.00,1.5613
3104.00,1.5656
3103.00,1.5716
3102.00,1.5791
3101.00,1.5882
3100.00,1.5988
3099.00,1.6108
3098.00,1.6244
3097.00,1.6392
3096.00,1.6550
3095.00,1.6717
3094.00,1.6890
3093.00,1.7072
3092.00,1.7261
3091.00,1.7456
3090.00,1.7656
3089.00,1.7858
3088.00,1.8062
3087.00,1.8265
3086.00,1.8467
3085.00,1.8668
3084.00,1.8868
3083.00,1.9066
3082.00,1.9263
3081.00,1.9460
3080.00,1.9654
3079.00,1.9843
3078.00,2.0023
3077.00,2.0198
3076.00,2.0371
3075.00,2.0545
3074.00,2.0714
3073.00,2.0876
3072.00,2.1026
3071.00,2.1167
3070.00,2.1304
3069.00,2.1440
3068.00,2.1573
3067.00,2.1701
3066.00,2.1819
3065.00,2.1929
3064.00,2.2030
3063.00,2.2124
3062.00,2.2217
3061.00,2.2308
3060.00,2.2395
3059.00,2.2473
3058.00,2.2541
3057.00,2.2603
3056.00,2.2660
3055.00,2.2712
3054.00,2.2759
3053.00,2.2800
3052.00,2.2833
3051.00,2.2855
3050.00,2.2870
3049.00,2.2882
3048.00,2.2892
3047.00,2.2899
3046.00,2.2895
3045.00,2.2878
3044.00,2.2846
3043.00,2.2802
3042.00,2.2754
3041.00,2.2708
3040.00,2.2665
3039.00,2.2618
3038.00,2.2560
3037.00,2.2491
3036.00,2.2413
3035.00,2.2329
3034.00,2.2237
3033.00,2.2132
3032.00,2.2015
3031.00,2.1890
3030.00,2.1763
3029.00,2.1633
3028.00,2.1493
3027.00,2.1340
3026.00,2.1175
3025.00,2.1002
3024.00,2.0823
3023.00,2.0636
3022.00,2.0442
3021.00,2.0241
3020.00,2.0030
3019.00,1.9808
3018.00,1.9576
3017.00,1.9342
3016.00,1.9111
3015.00,1.8885
3014.00,1.8663
3013.00,1.8447
3012.00,1.8239
3011.00,1.8048
3010.00,1.7880
3009.00,1.7740
3008.00,1.7628
3007.00,1.7547
3006.00,1.7500
3005.00,1.7493
3004.00,1.7531
3003.00,1.7614
3002.00,1.7741
3001.00,1.7910
3000.00,1.8118
2999.00,1.8363
2998.00,1.8642
2997.00,1.8951
2996.00,1.9283
2995.00,1.9634
2994.00,2.0002
2993.00,2.0383
2992.00,2.0773
2991.00,2.1166
2990.00,2.1562
2989.00,2.1961
2988.00,2.2359
2987.00,2.2748
2986.00,2.3122
2985.00,2.3485
2984.00,2.3843
2983.00,2.4200
2982.00,2.4553
2981.00,2.4897
2980.00,2.5234
2979.00,2.5571
2978.00,2.5921
2977.00,2.6293
2976.00,2.6688
2975.00,2.7106
2974.00,2.7554
2973.00,2.8043
2972.00,2.8577
2971.00,2.9145
2970.00,2.9738
2969.00,3.0364
2968.00,3.1046
2967.00,3.1804
2966.00,3.2633
2965.00,3.3499
2964.00,3.4342
2963.00,3.5090
2962.00,3.5694
2961.00,3.6185
2960.00,3.6663
2959.00,3.7223
2958.00,3.7854
2957.00,3.8444
2956.00,3.8881
2955.00,3.9129
2954.00,3.9226
2953.00,3.9289
2952.00,3.9538
2951.00,4.0174
2950.00,4.1166
2949.00,4.2139
2948.00,4.2713
2947.00,4.3088
2946.00,4.3523
2945.00,4.3601
2944.00,4.2946
2943.00,4.2057
2942.00,4.1571
2941.00,4.1715
2940.00,4.2566
2939.00,4.4350
2938.00,4.7132
2937.00,5.0726
2936.00,5.0849
2935.00,4.7193
2934.00,4.5959
2933.00,4.6246
2932.00,4.6407
2931.00,4.4901
2930.00,4.3336
2929.00,4.2877
2928.00,4.3178
2927.00,4.3994
2926.00,4.4604
2925.00,4.3945
2924.00,4.2532
2923.00,4.1236
2922.00,4.0319
2921.00,3.9687
2920.00,3.9126
2919.00,3.8445
2918.00,3.7647
2917.00,3.6831
2916.00,3.6016
2915.00,3.5180
2914.00,3.4342
2913.00,3.3573
2912.00,3.2939
2911.00,3.2455
2910.00,3.2090
2909.00,3.1766
2908.00,3.1410
2907.00,3.1013
2906.00,3.0624
2905.00,3.0284
2904.00,2.9989
2903.00,2.9713
2902.00,2.9448
2901.00,2.9198
2900.00,2.8966
2899.00,2.8753
2898.00,2.8567
2897.00,2.8415
2896.00,2.8291
2895.00,2.8180
2894.00,2.8075
2893.00,2.7983
2892.00,2.7913
2891.00,2.7865
2890.00,2.7840
2889.00,2.7846
2888.00,2.7888
2887.00,2.7963
2886.00,2.8062
2885.00,2.8181
2884.00,2.8327
2883.00,2.8506
2882.00,2.8722
2881.00,2.8972
2880.00,2.9255
2879.00,2.9571
2878.00,2.9928
2877.00,3.0325
2876.00,3.0748
2875.00,3.1182
2874.00,3.1642
2873.00,3.2178
2872.00,3.2831
2871.00,3.3579
2870.00,3.4327
2869.00,3.4964
2868.00,3.5461
2867.00,3.5880
2866.00,3.6301
2865.00,3.6761
2864.00,3.7244
2863.00,3.7682
2862.00,3.7963
2861.00,3.7971
2860.00,3.7645
2859.00,3.6992
2858.00,3.6066
2857.00,3.4963
2856.00,3.3798
2855.00,3.2650
2854.00,3.1550
2853.00,3.0494
2852.00,2.9487
2851.00,2.8555
2850.00,2.7730
2849.00,2.7025
2848.00,2.6432
2847.00,2.5935
2846.00,2.5525
2845.00,2.5196
2844.00,2.4949
2843.00,2.4782
2842.00,2.4686
2841.00,2.4650
2840.00,2.4655
2839.00,2.4679
2838.00,2.4708
2837.00,2.4737
2836.00,2.4766
2835.00,2.4793
2834.00,2.4817
2833.00,2.4836
2832.00,2.4848
2831.00,2.4852
2830.00,2.4846
2829.00,2.4822
2828.00,2.4775
2827.00,2.4705
2826.00,2.4624
2825.00,2.4542
2824.00,2.4462
2823.00,2.4378
2822.00,2.4279
2821.00,2.4163
2820.00,2.4031
2819.00,2.3887
2818.00,2.3734
2817.00,2.3570
2816.00,2.3397
2815.00,2.3212
2814.00,2.3015
2813.00,2.2802
2812.00,2.2573
2811.00,2.2334
2810.00,2.2090
2809.00,2.1842
2808.00,2.1584
2807.00,2.1309
2806.00,2.1014
2805.00,2.0704
2804.00,2.0389
2803.00,2.0075
2802.00,1.9761
2801.00,1.9448
2800.00,1.9138
2799.00,1.8832
2798.00,1.8528
2797.00,1.8220
2796.00,1.7904
2795.00,1.7579
2794.00,1.7245
2793.00,1.6907
2792.00,1.6568
2791.00,1.6236
2790.00,1.5921
2789.00,1.5633
2788.00,1.5382
2787.00,1.5174
2786.00,1.5012
2785.00,1.4902
2784.00,1.4844
2783.00,1.4839
2782.00,1.4886
2781.00,1.4980
2780.00,1.5117
2779.00,1.5290
2778.00,1.5494
2777.00,1.5723
2776.00,1.5974
2775.00,1.6243
2774.00,1.6528
2773.00,1.6827
2772.00,1.7135
2771.00,1.7448
2770.00,1.7765
2769.00,1.8084
2768.00,1.8405
2767.00,1.8725
2766.00,1.9040
2765.00,1.9348
2764.00,1.9643
2763.00,1.9924
2762.00,2.0193
2761.00,2.0454
2760.00,2.0708
2759.00,2.0952
2758.00,2.1183
2757.00,2.1402
2756.00,2.1614
2755.00,2.1822
2754.00,2.2026
2753.00,2.2222
2752.00,2.2407
2751.00,2.2577
2750.00,2.2730
2749.00,2.2873
2748.00,2.3013
2747.00,2.3151
2746.00,2.3285
2745.00,2.3411
2744.00,2.3530
2743.00,2.3643
2742.00,2.3750
2741.00,2.3845
2740.00,2.3921
2739.00,2.3980
2738.00,2.4027
2737.00,2.4072
2736.00,2.4117
2735.00,2.4160
2734.00,2.4198
2733.00,2.4228
2732.00,2.4251
2731.00,2.4269
2730.00,2.4283
2729.00,2.4296
2728.00,2.4305
2727.00,2.4306
2726.00,2.4293
2725.00,2.4270
2724.00,2.4242
2723.00,2.4215
2722.00,2.4184
2721.00,2.4142
2720.00,2.4089
2719.00,2.4031
2718.00,2.3975
2717.00,2.3919
2716.00,2.3854
2715.00,2.3776
2714.00,2.3687
2713.00,2.3590
2712.00,2.3487
2711.00,2.3377
2710.00,2.3256
2709.00,2.3124
2708.00,2.2979
2707.00,2.2826
2706.00,2.2674
2705.00,2.2527
2704.00,2.2380
2703.00,2.2223
2702.00,2.2050
2701.00,2.1860
2700.00,2.1656
2699.00,2.1438
2698.00,2.1208
2697.00,2.0966
2696.00,2.0715
2695.00,2.0456
2694.00,2.0189
2693.00,1.9909
2692.00,1.9615
2691.00,1.9307
2690.00,1.8992
2689.00,1.8674
2688.00,1.8357
2687.00,1.8041
2686.00,1.7731
2685.00,1.7432
2684.00,1.7152
2683.00,1.6899
2682.00,1.6676
2681.00,1.6486
2680.00,1.6327
2679.00,1.6193
2678.00,1.6081
2677.00,1.5984
2676.00,1.5899
2675.00,1.5823
2674.00,1.5754
2673.00,1.5694
2672.00,1.5644
2671.00,1.5602
2670.00,1.5565
2669.00,1.5528
2668.00,1.5490
2667.00,1.5449
2666.00,1.5413
2665.00,1.5391
2664.00,1.5396
2663.00,1.5437
2662.00,1.5521
2661.00,1.5648
2660.00,1.5817
2659.00,1.6024
2658.00,1.6260
2657.00,1.6522
2656.00,1.6801
2655.00,1.7093
2654.00,1.7390
2653.00,1.7689
2652.00,1.7987
2651.00,1.8282
2650.00,1.8572
2649.00,1.8855
2648.00,1.9131
2647.00,1.9401
2646.00,1.9668
2645.00,1.9932
2644.00,2.0190
2643.00,2.0442
2642.00,2.0690
2641.00,2.0935
2640.00,2.1179
2639.00,2.1417
2638.00,2.1647
2637.00,2.1866
2636.00,2.2073
2635.00,2.2272
2634.00,2.2469
2633.00,2.2667
2632.00,2.2860
2631.00,2.3043
2630.00,2.3213
2629.00,2.3373
2628.00,2.3526
2627.00,2.3670
2626.00,2.3803
2625.00,2.3928
2624.00,2.4051
2623.00,2.4172
2622.00,2.4288
2621.00,2.4394
2620.00,2.4488
2619.00,2.4571
2618.00,2.4646
2617.00,2.4717
2616.00,2.4784
2615.00,2.4844
2614.00,2.4894
2613.00,2.4936
2612.00,2.4970
2611.00,2.5002
2610.00,2.5033
2609.00,2.5067
2608.00,2.5102
2607.00,2.5137
2606.00,2.5166
2605.00,2.5183
2604.00,2.5182
2603.00,2.5163
2602.00,2.5138
2601.00,2.5119
2600.00,2.5114
2599.00,2.5115
2598.00,2.5109
2597.00,2.5085
2596.00,2.5047
2595.00,2.5000
2594.00,2.4948
2593.00,2.4888
2592.00,2.4818
2591.00,2.4742
2590.00,2.4664
2589.00,2.4585
2588.00,2.4500
2587.00,2.4407
2586.00,2.4311
2585.00,2.4216
2584.00,2.4120
2583.00,2.4020
2582.00,2.3911
2581.00,2.3792
2580.00,2.3662
2579.00,2.3520
2578.00,2.3367
2577.00,2.3209
2576.00,2.3044
2575.00,2.2874
2574.00,2.2697
2573.00,2.2513
2572.00,2.2322
2571.00,2.2119
2570.00,2.1903
2569.00,2.1673
2568.00,2.1432
2567.00,2.1182
2566.00,2.0924
2565.00,2.0653
2564.00,2.0364
2563.00,2.0054
2562.00,1.9725
2561.00,1.9383
2560.00,1.9030
2559.00,1.8667
2558.00,1.8292
2557.00,1.7905
2556.00,1.7509
2555.00,1.7107
2554.00,1.6705
2553.00,1.6307
2552.00,1.5918
2551.00,1.5544
2550.00,1.5190
2549.00,1.4864
2548.00,1.4568
2547.00,1.4307
2546.00,1.4084
2545.00,1.3903
2544.00,1.3768
2543.00,1.3680
2542.00,1.3638
2541.00,1.3644
2540.00,1.3696
2539.00,1.3793
2538.00,1.3932
2537.00,1.4111
2536.00,1.4325
2535.00,1.4570
2534.00,1.4841
2533.00,1.5133
2532.00,1.5444
2531.00,1.5769
2530.00,1.6105
2529.00,1.6449
2528.00,1.6798
2527.00,1.7151
2526.00,1.7505
2525.00,1.7857
2524.00,1.8208
2523.00,1.8555
2522.00,1.8897
2521.00,1.9234
2520.00,1.9566
2519.00,1.9890
2518.00,2.0204
2517.00,2.0506
2516.00,2.0802
2515.00,2.1097
2514.00,2.1388
2513.00,2.1669
2512.00,2.1934
2511.00,2.2181
2510.00,2.2414
2509.00,2.2639
2508.00,2.2857
2507.00,2.3065
2506.00,2.3264
2505.00,2.3454
2504.00,2.3638
2503.00,2.3814
2502.00,2.3979
2501.00,2.4137
2500.00,2.4292
2499.00,2.4441
2498.00,2.4576
2497.00,2.4696
2496.00,2.4811
2495.00,2.4929
2494.00,2.5042
2493.00,2.5142
2492.00,2.5227
2491.00,2.5310
2490.00,2.5399
2489.00,2.5486
2488.00,2.5560
2487.00,2.5619
2486.00,2.5671
2485.00,2.5723
2484.00,2.5773
2483.00,2.5813
2482.00,2.5835
2481.00,2.5845
2480.00,2.5855
2479.00,2.5879
2478.00,2.5917
2477.00,2.5957
2476.00,2.5985
2475.00,2.5993
2474.00,2.5985
2473.00,2.5966
2472.00,2.5940
2471.00,2.5909
2470.00,2.5880
2469.00,2.5853
2468.00,2.5822
2467.00,2.5782
2466.00,2.5738
2465.00,2.5701
2464.00,2.5666
2463.00,2.5621
2462.00,2.5551
2461.00,2.5461
2460.00,2.5363
2459.00,2.5269
2458.00,2.5184
2457.00,2.5101
2456.00,2.5013
2455.00,2.4914
2454.00,2.4801
2453.00,2.4675
2452.00,2.4539
2451.00,2.4393
2450.00,2.4239
2449.00,2.4080
2448.00,2.3916
2447.00,2.3746
2446.00,2.3565
2445.00,2.3373
2444.00,2.3173
2443.00,2.2968
2442.00,2.2757
2441.00,2.2532
2440.00,2.2289
2439.00,2.2026
2438.00,2.1750
2437.00,2.1462
2436.00,2.1162
2435.00,2.0845
2434.00,2.0508
2433.00,2.0153
2432.00,1.9784
2431.00,1.9401
2430.00,1.9008
2429.00,1.8605
2428.00,1.8192
2427.00,1.7768
2426.00,1.7335
2425.00,1.6897
2424.00,1.6459
2423.00,1.6025
2422.00,1.5603
2421.00,1.5197
2420.00,1.4814
2419.00,1.4460
2418.00,1.4139
2417.00,1.3856
2416.00,1.3618
2415.00,1.3430
2414.00,1.3297
2413.00,1.3224
2412.00,1.3212
2411.00,1.3264
2410.00,1.3376
2409.00,1.3545
2408.00,1.3764
2407.00,1.4028
2406.00,1.4332
2405.00,1.4669
2404.00,1.5034
2403.00,1.5420
2402.00,1.5821
2401.00,1.6233
2400.00,1.6652
2399.00,1.7076
2398.00,1.7501
2397.00,1.7924
2396.00,1.8343
2395.00,1.8755
2394.00,1.9158
2393.00,1.9550
2392.00,1.9930
2391.00,2.0292
2390.00,2.0633
2389.00,2.0946
2388.00,2.1232
2387.00,2.1494
2386.00,2.1739
2385.00,2.1974
2384.00,2.2202
2383.00,2.2421
2382.00,2.2634
2381.00,2.2845
2380.00,2.3059
2379.00,2.3280
2378.00,2.3506
2377.00,2.3733
2376.00,2.3953
2375.00,2.4164
2374.00,2.4367
2373.00,2.4562
2372.00,2.4753
2371.00,2.4936
2370.00,2.5106
2369.00,2.5252
2368.00,2.5372
2367.00,2.5484
2366.00,2.5601
2365.00,2.5728
2364.00,2.5859
2363.00,2.5981
2362.00,2.6096
2361.00,2.6206
2360.00,2.6308
2359.00,2.6399
2358.00,2.6470
2357.00,2.6519
2356.00,2.6558
2355.00,2.6613
2354.00,2.6686
2353.00,2.6744
2352.00,2.6762
2351.00,2.6740
2350.00,2.6714
2349.00,2.6718
2348.00,2.6762
2347.00,2.6826
2346.00,2.6869
2345.00,2.6886
2344.00,2.6883
2343.00,2.6865
2342.00,2.6833
2341.00,2.6780
2340.00,2.6711
2339.00,2.6631
2338.00,2.6550
2337.00,2.6466
2336.00,2.6379
2335.00,2.6287
2334.00,2.6195
2333.00,2.6091
2332.00,2.5984
2331.00,2.5872
2330.00,2.5769
2329.00,2.5665
2328.00,2.5552
2327.00,2.5434
2326.00,2.5317
2325.00,2.5206
2324.00,2.5092
2323.00,2.4972
2322.00,2.4848
2321.00,2.4719
2320.00,2.4581
2319.00,2.4418
2318.00,2.4235
2317.00,2.4037
2316.00,2.3843
2315.00,2.3648
2314.00,2.3451
2313.00,2.3242
2312.00,2.3026
2311.00,2.2804
2310.00,2.2578
2309.00,2.2340
2308.00,2.2084
2307.00,2.1805
2306.00,2.1507
2305.00,2.1193
2304.00,2.0868
2303.00,2.0527
2302.00,2.0168
2301.00,1.9787
2300.00,1.9386
2299.00,1.8967
2298.00,1.8537
2297.00,1.8100
2296.00,1.7659
2295.00,1.7217
2294.00,1.6775
2293.00,1.6336
2292.00,1.5902
2291.00,1.5482
2290.00,1.5082
2289.00,1.4712
2288.00,1.4380
2287.00,1.4094
2286.00,1.3859
2285.00,1.3685
2284.00,1.3578
2283.00,1.3542
2282.00,1.3580
2281.00,1.3690
2280.00,1.3868
2279.00,1.4109
2278.00,1.4402
2277.00,1.4741
2276.00,1.5115
2275.00,1.5517
2274.00,1.5941
2273.00,1.6378
2272.00,1.6823
2271.00,1.7269
2270.00,1.7713
2269.00,1.8154
2268.00,1.8592
2267.00,1.9026
2266.00,1.9455
2265.00,1.9878
2264.00,2.0294
2263.00,2.0707
2262.00,2.1112
2261.00,2.1503
2260.00,2.1875
2259.00,2.2225
2258.00,2.2558
2257.00,2.2875
2256.00,2.3175
2255.00,2.3457
2254.00,2.3723
2253.00,2.3977
2252.00,2.4220
2251.00,2.4447
2250.00,2.4659
2249.00,2.4856
2248.00,2.5040
2247.00,2.5214
2246.00,2.5379
2245.00,2.5540
2244.00,2.5702
2243.00,2.5863
2242.00,2.6021
2241.00,2.6172
2240.00,2.6317
2239.00,2.6461
2238.00,2.6606
2237.00,2.6744
2236.00,2.6863
2235.00,2.6955
2234.00,2.7024
2233.00,2.7082
2232.00,2.7141
2231.00,2.7202
2230.00,2.7259
2229.00,2.7305
2228.00,2.7344
2227.00,2.7394
2226.00,2.7464
2225.00,2.7544
2224.00,2.7610
2223.00,2.7651
2222.00,2.7676
2221.00,2.7699
2220.00,2.7725
2219.00,2.7750
2218.00,2.7771
2217.00,2.7785
2216.00,2.7789
2215.00,2.7786
2214.00,2.7781
2213.00,2.7773
2212.00,2.7751
2211.00,2.7709
2210.00,2.7659
2209.00,2.7618
2208.00,2.7594
2207.00,2.7579
2206.00,2.7556
2205.00,2.7513
2204.00,2.7445
2203.00,2.7358
2202.00,2.7267
2201.00,2.7182
2200.00,2.7100
2199.00,2.7016
2198.00,2.6921
2197.00,2.6811
2196.00,2.6685
2195.00,2.6543
2194.00,2.6395
2193.00,2.6251
2192.00,2.6116
2191.00,2.5988
2190.00,2.5864
2189.00,2.5734
2188.00,2.5585
2187.00,2.5407
2186.00,2.5205
2185.00,2.4992
2184.00,2.4777
2183.00,2.4555
2182.00,2.4322
2181.00,2.4077
2180.00,2.3823
2179.00,2.3567
2178.00,2.3310
2177.00,2.3048
2176.00,2.2773
2175.00,2.2475
2174.00,2.2154
2173.00,2.1814
2172.00,2.1453
2171.00,2.1067
2170.00,2.0653
2169.00,2.0212
2168.00,1.9746
2167.00,1.9260
2166.00,1.8758
2165.00,1.8245
2164.00,1.7727
2163.00,1.7208
2162.00,1.6699
2161.00,1.6210
2160.00,1.5755
2159.00,1.5342
2158.00,1.4982
2157.00,1.4684
2156.00,1.4456
2155.00,1.4305
2154.00,1.4233
2153.00,1.4243
2152.00,1.4332
2151.00,1.4497
2150.00,1.4730
2149.00,1.5025
2148.00,1.5371
2147.00,1.5759
2146.00,1.6179
2145.00,1.6621
2144.00,1.7081
2143.00,1.7553
2142.00,1.8031
2141.00,1.8510
2140.00,1.8986
2139.00,1.9455
2138.00,1.9916
2137.00,2.0368
2136.00,2.0808
2135.00,2.1233
2134.00,2.1643
2133.00,2.2036
2132.00,2.2413
2131.00,2.2772
2130.00,2.3115
2129.00,2.3443
2128.00,2.3757
2127.00,2.4055
2126.00,2.4339
2125.00,2.4607
2124.00,2.4861
2123.00,2.5103
2122.00,2.5339
2121.00,2.5568
2120.00,2.5786
2119.00,2.5991
2118.00,2.6183
2117.00,2.6366
2116.00,2.6540
2115.00,2.6705
2114.00,2.6863
2113.00,2.7014
2112.00,2.7151
2111.00,2.7269
2110.00,2.7375
2109.00,2.7484
2108.00,2.7608
2107.00,2.7738
2106.00,2.7861
2105.00,2.7966
2104.00,2.8057
2103.00,2.8141
2102.00,2.8232
2101.00,2.8333
2100.00,2.8428
2099.00,2.8489
2098.00,2.8512
2097.00,2.8527
2096.00,2.8573
2095.00,2.8658
2094.00,2.8750
2093.00,2.8807
2092.00,2.8814
2091.00,2.8795
2090.00,2.8787
2089.00,2.8805
2088.00,2.8834
2087.00,2.8847
2086.00,2.8832
2085.00,2.8800
2084.00,2.8764
2083.00,2.8721
2082.00,2.8669
2081.00,2.8614
2080.00,2.8570
2079.00,2.8542
2078.00,2.8529
2077.00,2.8525
2076.00,2.8513
2075.00,2.8468
2074.00,2.8377
2073.00,2.8258
2072.00,2.8143
2071.00,2.8052
2070.00,2.7974
2069.00,2.7887
2068.00,2.7783
2067.00,2.7675
2066.00,2.7575
2065.00,2.7479
2064.00,2.7375
2063.00,2.7259
2062.00,2.7142
2061.00,2.7030
2060.00,2.6910
2059.00,2.6760
2058.00,2.6573
2057.00,2.6361
2056.00,2.6141
2055.00,2.5918
2054.00,2.5683
2053.00,2.5430
2052.00,2.5156
2051.00,2.4864
2050.00,2.4559
2049.00,2.4244
2048.00,2.3919
2047.00,2.3579
2046.00,2.3220
2045.00,2.2839
2044.00,2.2441
2043.00,2.2023
2042.00,2.1584
2041.00,2.1122
2040.00,2.0632
2039.00,2.0118
2038.00,1.9584
2037.00,1.9040
2036.00,1.8496
2035.00,1.7958
2034.00,1.7435
2033.00,1.6936
2032.00,1.6471
2031.00,1.6052
2030.00,1.5688
2029.00,1.5391
2028.00,1.5171
2027.00,1.5035
2026.00,1.4986
2025.00,1.5023
2024.00,1.5145
2023.00,1.5341
2022.00,1.5600
2021.00,1.5911
2020.00,1.6267
2019.00,1.6670
2018.00,1.7117
2017.00,1.7598
2016.00,1.8095
2015.00,1.8592
2014.00,1.9083
2013.00,1.9568
2012.00,2.0048
2011.00,2.0523
2010.00,2.0992
2009.00,2.1452
2008.00,2.1903
2007.00,2.2341
2006.00,2.2763
2005.00,2.3163
2004.00,2.3540
2003.00,2.3901
2002.00,2.4253
2001.00,2.4599
2000.00,2.4930
1999.00,2.5243
1998.00,2.5536
1997.00,2.5805
1996.00,2.6044
1995.00,2.6261
1994.00,2.6471
1993.00,2.6686
1992.00,2.6904
1991.00,2.7116
1990.00,2.7320
1989.00,2.7514
1988.00,2.7694
1987.00,2.7864
1986.00,2.8035
1985.00,2.8216
1984.00,2.8402
1983.00,2.8576
1982.00,2.8726
1981.00,2.8851
1980.00,2.8949
1979.00,2.9024
1978.00,2.9083
1977.00,2.9136
1976.00,2.9197
1975.00,2.9269
1974.00,2.9350
1973.00,2.9427
1972.00,2.9482
1971.00,2.9502
1970.00,2.9490
1969.00,2.9467
1968.00,2.9468
1967.00,2.9525
1966.00,2.9639
1965.00,2.9775
1964.00,2.9880
1963.00,2.9922
1962.00,2.9914
1961.00,2.9890
1960.00,2.9867
1959.00,2.9838
1958.00,2.9798
1957.00,2.9753
1956.00,2.9710
1955.00,2.9671
1954.00,2.9634
1953.00,2.9600
1952.00,2.9568
1951.00,2.9531
1950.00,2.9478
1949.00,2.9400
1948.00,2.9293
1947.00,2.9165
1946.00,2.9037
1945.00,2.8940
1944.00,2.8891
1943.00,2.8874
1942.00,2.8842
1941.00,2.8756
1940.00,2.8611
1939.00,2.8435
1938.00,2.8264
1937.00,2.8113
1936.00,2.7970
1935.00,2.7812
1934.00,2.7629
1933.00,2.7431
1932.00,2.7226
1931.00,2.7007
1930.00,2.6770
1929.00,2.6520
1928.00,2.6254
1927.00,2.5958
1926.00,2.5621
1925.00,2.5271
1924.00,2.4938
1923.00,2.4614
1922.00,2.4260
1921.00,2.3852
1920.00,2.3412
1919.00,2.2973
1918.00,2.2538
1917.00,2.2084
1916.00,2.1593
1915.00,2.1064
1914.00,2.0499
1913.00,1.9907
1912.00,1.9309
1911.00,1.8726
1910.00,1.8177
1909.00,1.7671
1908.00,1.7207
1907.00,1.6793
1906.00,1.6441
1905.00,1.6167
1904.00,1.5984
1903.00,1.5900
1902.00,1.5916
1901.00,1.6034
1900.00,1.6243
1899.00,1.6529
1898.00,1.6882
1897.00,1.7304
1896.00,1.7797
1895.00,1.8342
1894.00,1.8899
1893.00,1.9436
1892.00,1.9960
1891.00,2.0502
1890.00,2.1085
1889.00,2.1687
1888.00,2.2269
1887.00,2.2810
1886.00,2.3319
1885.00,2.3809
1884.00,2.4284
1883.00,2.4729
1882.00,2.5139
1881.00,2.5516
1880.00,2.5867
1879.00,2.6198
1878.00,2.6504
1877.00,2.6781
1876.00,2.7033
1875.00,2.7271
1874.00,2.7498
1873.00,2.7701
1872.00,2.7867
1871.00,2.8012
1870.00,2.8173
1869.00,2.8374
1868.00,2.8605
1867.00,2.8842
1866.00,2.9061
1865.00,2.9238
1864.00,2.9363
1863.00,2.9460
1862.00,2.9567
1861.00,2.9704
1860.00,2.9856
1859.00,2.9995
1858.00,3.0113
1857.00,3.0229
1856.00,3.0356
1855.00,3.0471
1854.00,3.0533
1853.00,3.0527
1852.00,3.0491
1851.00,3.0481
1850.00,3.0519
1849.00,3.0563
1848.00,3.0558
1847.00,3.0496
1846.00,3.0438
1845.00,3.0446
1844.00,3.0522
1843.00,3.0616
1842.00,3.0686
1841.00,3.0708
1840.00,3.0679
1839.00,3.0614
1838.00,3.0538
1837.00,3.0470
1836.00,3.0406
1835.00,3.0324
1834.00,3.0198
1833.00,3.0027
1832.00,2.9859
1831.00,2.9759
1830.00,2.9721
1829.00,2.9668
1828.00,2.9544
1827.00,2.9365
1826.00,2.9180
1825.00,2.9004
1824.00,2.8816
1823.00,2.8597
1822.00,2.8349
1821.00,2.8079
1820.00,2.7795
1819.00,2.7507
1818.00,2.7216
1817.00,2.6913
1816.00,2.6587
1815.00,2.6236
1814.00,2.5872
1813.00,2.5519
1812.00,2.5205
1811.00,2.4939
1810.00,2.4710
1809.00,2.4496
1808.00,2.4279
1807.00,2.4036
1806.00,2.3743
1805.00,2.3392
1804.00,2.2993
1803.00,2.2579
1802.00,2.2178
1801.00,2.1803
1800.00,2.1459
1799.00,2.1160
1798.00,2.0932
1797.00,2.0799
1796.00,2.0760
1795.00,2.0811
1794.00,2.0982
1793.00,2.1329
1792.00,2.1860
1791.00,2.2504
1790.00,2.3169
1789.00,2.3804
1788.00,2.4406
1787.00,2.5000
1786.00,2.5617
1785.00,2.6251
1784.00,2.6853
1783.00,2.7383
1782.00,2.7857
1781.00,2.8329
1780.00,2.8818
1779.00,2.9294
1778.00,2.9720
1777.00,3.0079
1776.00,3.0365
1775.00,3.0600
1774.00,3.0853
1773.00,3.1177
1772.00,3.1521
1771.00,3.1789
1770.00,3.1980
1769.00,3.2175
1768.00,3.2418
1767.00,3.2650
1766.00,3.2782
1765.00,3.2790
1764.00,3.2731
1763.00,3.2699
1762.00,3.2734
1761.00,3.2796
1760.00,3.2818
1759.00,3.2774
1758.00,3.2715
1757.00,3.2685
1756.00,3.2663
1755.00,3.2605
1754.00,3.2511
1753.00,3.2431
1752.00,3.2424
1751.00,3.2511
1750.00,3.2688
1749.00,3.2969
1748.00,3.3350
1747.00,3.3800
1746.00,3.4303
1745.00,3.4894
1744.00,3.5617
1743.00,3.6444
1742.00,3.7251
1741.00,3.7964
1740.00,3.8666
1739.00,3.9386
1738.00,3.9952
1737.00,4.0320
1736.00,4.0882
1735.00,4.2305
1734.00,4.5139
1733.00,4.8587
1732.00,5.0264
1731.00,5.1307
1730.00,5.1702
1729.00,4.9509
1728.00,4.6605
1727.00,4.5056
1726.00,4.4912
1725.00,4.5498
1724.00,4.5300
1723.00,4.4543
1722.00,4.4524
1721.00,4.5110
1720.00,4.4805
1719.00,4.3626
1718.00,4.3307
1717.00,4.4557
1716.00,4.7468
1715.00,4.7046
1714.00,4.4793
1713.00,4.4211
1712.00,4.6116
1711.00,4.9047
1710.00,4.4808
1709.00,4.3012
1708.00,4.3764
1707.00,4.4921
1706.00,4.3837
1705.00,4.2699
1704.00,4.2693
1703.00,4.3803
1702.00,4.7072
1701.00,4.5242
1700.00,4.2312
1699.00,4.2087
1698.00,4.2808
1697.00,4.3849
1696.00,4.4659
1695.00,4.3889
1694.00,4.2881
1693.00,4.2551
1692.00,4.2485
1691.00,4.2122
1690.00,4.1256
1689.00,4.0146
1688.00,3.9051
1687.00,3.8010
1686.00,3.7088
1685.00,3.6442
1684.00,3.6060
1683.00,3.5774
1682.00,3.5503
1681.00,3.5242
1680.00,3.5003
1679.00,3.4775
1678.00,3.4515
1677.00,3.4186
1676.00,3.3766
1675.00,3.3249
1674.00,3.2661
1673.00,3.2035
1672.00,3.1379
1671.00,3.0711
1670.00,3.0077
1669.00,2.9501
1668.00,2.8981
1667.00,2.8501
1666.00,2.8045
1665.00,2.7637
1664.00,2.7353
1663.00,2.7254
1662.00,2.7327
1661.00,2.7511
1660.00,2.7763
1659.00,2.8070
1658.00,2.8415
1657.00,2.8730
1656.00,2.8938
1655.00,2.9132
1654.00,2.9571
1653.00,3.0212
1652.00,3.0756
1651.00,3.1071
1650.00,3.1190
1649.00,3.1254
1648.00,3.1436
1647.00,3.1791
1646.00,3.2184
1645.00,3.2471
1644.00,3.2628
1643.00,3.2713
1642.00,3.2804
1641.00,3.2930
1640.00,3.3051
1639.00,3.3095
1638.00,3.3032
1637.00,3.2933
1636.00,3.2889
1635.00,3.2913
1634.00,3.2979
1633.00,3.3042
1632.00,3.3061
1631.00,3.3035
1630.00,3.3006
1629.00,3.2990
1628.00,3.2942
1627.00,3.2811
1626.00,3.2608
1625.00,3.2410
1624.00,3.2295
1623.00,3.2265
1622.00,3.2245
1621.00,3.2159
1620.00,3.1988
1619.00,3.1759
1618.00,3.1548
1617.00,3.1412
1616.00,3.1329
1615.00,3.1240
1614.00,3.1083
1613.00,3.0831
1612.00,3.0526
1611.00,3.0245
1610.00,3.0030
1609.00,2.9853
1608.00,2.9656
1607.00,2.9408
1606.00,2.9110
1605.00,2.8765
1604.00,2.8371
1603.00,2.7942
1602.00,2.7493
1601.00,2.7027
1600.00,2.6537
1599.00,2.6029
1598.00,2.5508
1597.00,2.4972
1596.00,2.4421
1595.00,2.3864
1594.00,2.3313
1593.00,2.2773
1592.00,2.2251
1591.00,2.1760
1590.00,2.1318
1589.00,2.0932
1588.00,2.0601
1587.00,2.0330
1586.00,2.0140
1585.00,2.0053
1584.00,2.0080
1583.00,2.0228
1582.00,2.0497
1581.00,2.0858
1580.00,2.1253
1579.00,2.1649
1578.00,2.2089
1577.00,2.2678
1576.00,2.3427
1575.00,2.4208
1574.00,2.4882
1573.00,2.5397
1572.00,2.5805
1571.00,2.6219
1570.00,2.6719
1569.00,2.7267
1568.00,2.7775
1567.00,2.8214
1566.00,2.8609
1565.00,2.8984
1564.00,2.9307
1563.00,2.9510
1562.00,2.9554
1561.00,2.9496
1560.00,2.9646
1559.00,3.0093
1558.00,3.0501
1557.00,3.0752
1556.00,3.0956
1555.00,3.1207
1554.00,3.1485
1553.00,3.1700
1552.00,3.1842
1551.00,3.1993
1550.00,3.2195
1549.00,3.2368
1548.00,3.2416
1547.00,3.2355
1546.00,3.2295
1545.00,3.2314
1544.00,3.2378
1543.00,3.2417
1542.00,3.2451
1541.00,3.2589
1540.00,3.2796
1539.00,3.2920
1538.00,3.2970
1537.00,3.3019
1536.00,3.3052
1535.00,3.3042
1534.00,3.3003
1533.00,3.2952
1532.00,3.2916
1531.00,3.2915
1530.00,3.2917
1529.00,3.2887
1528.00,3.2836
1527.00,3.2828
1526.00,3.2880
1525.00,3.2900
1524.00,3.2765
1523.00,3.2499
1522.00,3.2289
1521.00,3.2238
1520.00,3.2271
1519.00,3.2265
1518.00,3.2192
1517.00,3.2086
1516.00,3.1935
1515.00,3.1718
1514.00,3.1467
1513.00,3.1225
1512.00,3.0996
1511.00,3.0733
1510.00,3.0412
1509.00,3.0089
1508.00,2.9944
1507.00,2.9978
1506.00,2.9944
1505.00,2.9766
1504.00,2.9520
1503.00,2.9234
1502.00,2.8905
1501.00,2.8528
1500.00,2.8110
1499.00,2.7670
1498.00,2.7230
1497.00,2.6790
1496.00,2.6318
1495.00,2.5783
1494.00,2.5179
1493.00,2.4512
1492.00,2.3816
1491.00,2.3176
1490.00,2.2666
1489.00,2.2297
1488.00,2.2060
1487.00,2.1938
1486.00,2.1923
1485.00,2.2013
1484.00,2.2209
1483.00,2.2524
1482.00,2.2974
1481.00,2.3539
1480.00,2.4160
1479.00,2.4791
1478.00,2.5430
1477.00,2.6100
1476.00,2.6795
1475.00,2.7485
1474.00,2.8215
1473.00,2.9065
1472.00,3.0014
1471.00,3.0930
1470.00,3.1694
1469.00,3.2294
1468.00,3.2791
1467.00,3.3251
1466.00,3.3706
1465.00,3.4127
1464.00,3.4452
1463.00,3.4651
1462.00,3.4729
1461.00,3.4720
1460.00,3.4701
1459.00,3.4823
1458.00,3.5293
1457.00,3.6180
1456.00,3.7399
1455.00,3.8955
1454.00,4.1036
1453.00,4.4183
1452.00,4.5162
1451.00,4.2658
1450.00,4.1840
1449.00,4.2272
1448.00,4.2133
1447.00,4.0294
1446.00,3.8181
1445.00,3.6555
1444.00,3.5436
1443.00,3.4792
1442.00,3.4509
1441.00,3.4443
1440.00,3.4460
1439.00,3.4532
1438.00,3.4751
1437.00,3.5250
1436.00,3.6050
1435.00,3.7026
1434.00,3.7979
1433.00,3.8634
1432.00,3.8764
1431.00,3.8608
1430.00,3.8666
1429.00,3.9125
1428.00,3.9724
1427.00,4.0004
1426.00,3.9845
1425.00,3.9586
1424.00,3.9581
1423.00,3.9931
1422.00,4.0400
1421.00,4.0459
1420.00,3.9775
1419.00,3.8663
1418.00,3.7630
1417.00,3.6874
1416.00,3.6342
1415.00,3.5932
1414.00,3.5600
1413.00,3.5352
1412.00,3.5219
1411.00,3.5220
1410.00,3.5307
1409.00,3.5383
1408.00,3.5386
1407.00,3.5359
1406.00,3.5401
1405.00,3.5522
1404.00,3.5611
1403.00,3.5597
1402.00,3.5546
1401.00,3.5550
1400.00,3.5602
1399.00,3.5637
1398.00,3.5642
1397.00,3.5664
1396.00,3.5706
1395.00,3.5716
1394.00,3.5679
1393.00,3.5640
1392.00,3.5613
1391.00,3.5538
1390.00,3.5388
1389.00,3.5240
1388.00,3.5205
1387.00,3.5286
1386.00,3.5359
1385.00,3.5305
1384.00,3.5103
1383.00,3.4830
1382.00,3.4587
1381.00,3.4418
1380.00,3.4296
1379.00,3.4168
1378.00,3.4005
1377.00,3.3829
1376.00,3.3693
1375.00,3.3619
1374.00,3.3565
1373.00,3.3447
1372.00,3.3217
1371.00,3.2901
1370.00,3.2564
1369.00,3.2247
1368.00,3.1931
1367.00,3.1568
1366.00,3.1147
1365.00,3.0703
1364.00,3.0296
1363.00,2.9962
1362.00,2.9694
1361.00,2.9473
1360.00,2.9288
1359.00,2.9150
1358.00,2.9089
1357.00,2.9157
1356.00,2.9406
1355.00,2.9869
1354.00,3.0558
1353.00,3.1466
1352.00,3.2568
1351.00,3.3793
1350.00,3.5010
1349.00,3.6074
1348.00,3.6886
1347.00,3.7371
1346.00,3.7421
1345.00,3.7036
1344.00,3.6488
1343.00,3.6063
1342.00,3.5893
1341.00,3.6023
1340.00,3.6368
1339.00,3.6638
1338.00,3.6522
1337.00,3.5940
1336.00,3.5014
1335.00,3.3930
1334.00,3.2860
1333.00,3.1970
1332.00,3.1386
1331.00,3.1158
1330.00,3.1247
1329.00,3.1557
1328.00,3.1985
1327.00,3.2476
1326.00,3.3026
1325.00,3.3645
1324.00,3.4321
1323.00,3.5018
1322.00,3.5690
1321.00,3.6342
1320.00,3.7067
1319.00,3.7988
1318.00,3.9147
1317.00,4.0460
1316.00,4.1785
1315.00,4.3090
1314.00,4.4562
1313.00,4.5758
1312.00,4.5822
1311.00,4.5097
1310.00,4.3707
1309.00,4.1869
1308.00,4.0018
1307.00,3.8429
1306.00,3.7118
1305.00,3.5957
1304.00,3.4884
1303.00,3.3965
1302.00,3.3301
1301.00,3.2918
1300.00,3.2762
1299.00,3.2761
1298.00,3.2877
1297.00,3.3090
1296.00,3.3373
1295.00,3.3690
1294.00,3.4018
1293.00,3.4327
1292.00,3.4570
1291.00,3.4721
1290.00,3.4840
1289.00,3.5030
1288.00,3.5305
1287.00,3.5550
1286.00,3.5686
1285.00,3.5820
1284.00,3.6139
1283.00,3.6703
1282.00,3.7389
1281.00,3.7992
1280.00,3.8329
1279.00,3.8392
1278.00,3.8291
1277.00,3.8057
1276.00,3.7785
1275.00,3.7630
1274.00,3.7638
1273.00,3.7776
1272.00,3.8013
1271.00,3.8257
1270.00,3.8347
1269.00,3.8271
1268.00,3.8257
1267.00,3.8514
1266.00,3.9019
1265.00,3.9454
1264.00,3.9476
1263.00,3.9139
1262.00,3.8735
1261.00,3.8415
1260.00,3.8205
1259.00,3.8078
1258.00,3.8073
1257.00,3.8227
1256.00,3.8278
1255.00,3.7872
1254.00,3.7182
1253.00,3.6596
1252.00,3.6252
1251.00,3.6137
1250.00,3.6196
1249.00,3.6365
1248.00,3.6606
1247.00,3.6887
1246.00,3.7107
1245.00,3.7124
1244.00,3.6895
1243.00,3.6564
1242.00,3.6338
1241.00,3.6316
1240.00,3.6404
1239.00,3.6420
1238.00,3.6388
1237.00,3.6510
1236.00,3.6917
1235.00,3.7521
1234.00,3.8029
1233.00,3.8265
1232.00,3.8449
1231.00,3.8908
1230.00,3.9730
1229.00,4.0747
1228.00,4.1685
1227.00,4.2218
1226.00,4.2047
1225.00,4.1586
1224.00,4.1463
1223.00,4.1742
1222.00,4.1831
1221.00,4.1079
1220.00,4.0104
1219.00,3.9726
1218.00,3.9933
1217.00,4.0058
1216.00,3.9559
1215.00,3.8836
1214.00,3.8342
1213.00,3.8107
1212.00,3.8004
1211.00,3.8010
1210.00,3.8126
1209.00,3.8169
1208.00,3.7937
1207.00,3.7460
1206.00,3.6881
1205.00,3.6238
1204.00,3.5529
1203.00,3.4894
1202.00,3.4525
1201.00,3.4448
1200.00,3.4456
1199.00,3.4293
1198.00,3.3908
1197.00,3.3449
1196.00,3.3079
1195.00,3.2886
1194.00,3.2903
1193.00,3.3108
1192.00,3.3371
1191.00,3.3490
1190.00,3.3357
1189.00,3.3087
1188.00,3.2886
1187.00,3.2876
1186.00,3.3050
1185.00,3.3320
1184.00,3.3579
1183.00,3.3744
1182.00,3.3783
1181.00,3.3788
1180.00,3.3921
1179.00,3.4259
1178.00,3.4743
1177.00,3.5220
1176.00,3.5569
1175.00,3.5802
1174.00,3.6005
1173.00,3.6265
1172.00,3.6666
1171.00,3.7190
1170.00,3.7520
1169.00,3.7440
1168.00,3.7192
1167.00,3.7046
1166.00,3.7245
1165.00,3.7892
1164.00,3.8682
1163.00,3.8809
1162.00,3.8152
1161.00,3.7596
1160.00,3.7505
1159.00,3.7721
1158.00,3.8004
1157.00,3.8281
1156.00,3.8676
1155.00,3.9413
1154.00,4.0579
1153.00,4.1851
1152.00,4.2667
1151.00,4.2973
1150.00,4.3661
1149.00,4.5976
1148.00,4.5538
1147.00,4.2956
1146.00,4.2362
1145.00,4.2731
1144.00,4.4024
1143.00,4.7271
1142.00,5.0536
1141.00,4.8865
1140.00,5.0375
1139.00,4.6351
1138.00,4.2457
1137.00,4.0549
1136.00,3.9804
1135.00,3.9977
1134.00,4.1062
1133.00,4.2872
1132.00,4.4018
1131.00,4.5207
1130.00,4.5960
1129.00,4.1524
1128.00,3.9599
1127.00,3.9390
1126.00,4.0545
1125.00,4.3573
1124.00,5.0051
1123.00,4.2930
1122.00,4.0958
1121.00,4.0495
1120.00,4.0944
1119.00,4.1749
1118.00,4.3138
1117.00,4.6475
1116.00,4.5818
1115.00,4.2578
1114.00,4.0890
1113.00,4.0117
1112.00,4.0189
1111.00,4.1069
1110.00,4.2575
1109.00,4.3817
1108.00,4.3773
1107.00,4.3767
1106.00,4.4313
1105.00,4.4355
1104.00,4.2885
1103.00,4.0659
1102.00,3.9060
1101.00,3.8374
1100.00,3.8436
1099.00,3.8910
1098.00,3.9578
1097.00,4.0364
1096.00,4.0509
1095.00,3.9470
1094.00,3.8269
1093.00,3.7670
1092.00,3.7752
1091.00,3.8197
1090.00,3.8634
1089.00,3.8893
1088.00,3.8983
1087.00,3.9123
1086.00,3.9561
1085.00,4.0045
1084.00,3.9921
1083.00,3.9274
1082.00,3.8409
1081.00,3.7737
1080.00,3.7363
1079.00,3.7038
1078.00,3.6720
1077.00,3.6583
1076.00,3.6632
1075.00,3.6629
1074.00,3.6402
1073.00,3.6062
1072.00,3.5797
1071.00,3.5612
1070.00,3.5469
1069.00,3.5446
1068.00,3.5602
1067.00,3.5847
1066.00,3.5958
1065.00,3.5785
1064.00,3.5584
1063.00,3.5800
1062.00,3.6500
1061.00,3.6990
1060.00,3.6664
1059.00,3.6181
1058.00,3.6078
1057.00,3.6431
1056.00,3.7022
1055.00,3.7421
1054.00,3.7409
1053.00,3.7260
1052.00,3.7296
1051.00,3.7443
1050.00,3.7299
1049.00,3.6708
1048.00,3.6097
1047.00,3.5842
1046.00,3.5915
1045.00,3.6055
1044.00,3.5977
1043.00,3.5637
1042.00,3.5269
1041.00,3.5125
1040.00,3.5295
1039.00,3.5666
1038.00,3.6004
1037.00,3.6189
1036.00,3.6337
1035.00,3.6681
1034.00,3.7416
1033.00,3.8505
1032.00,3.9562
1031.00,4.0613
1030.00,4.2187
1029.00,4.3202
1028.00,4.2227
1027.00,4.1149
1026.00,4.0572
1025.00,4.0316
1024.00,4.0059
1023.00,3.9736
1022.00,3.9573
1021.00,3.9961
1020.00,4.1378
1019.00,4.3772
1018.00,4.4135
1017.00,4.3601
1016.00,4.3470
1015.00,4.2620
1014.00,4.1765
1013.00,4.1446
1012.00,4.1689
1011.00,4.2544
1010.00,4.4502
1009.00,5.0268
1008.00,4.6085
1007.00,4.2507
1006.00,4.0917
1005.00,4.0093
1004.00,3.9909
1003.00,4.0418
1002.00,4.1572
1001.00,4.3461
1000.00,4.7166
999.00,4.8225
998.00,4.5721
997.00,4.5737
996.00,4.4854
995.00,4.3002
994.00,4.2108
993.00,4.2297
992.00,4.2998
991.00,4.3367
990.00,4.3962
989.00,4.5298
988.00,4.6711
987.00,4.7359
986.00,4.7567
985.00,4.7425
984.00,4.5161
983.00,4.2944
982.00,4.1401
981.00,4.0443
980.00,4.0108
979.00,4.0028
978.00,3.9661
977.00,3.8990
976.00,3.8475
975.00,3.8641
974.00,4.0089
973.00,4.3447
972.00,4.2123
971.00,3.9962
970.00,3.9915
969.00,4.1443
968.00,4.3463
967.00,4.3255
966.00,4.1716
965.00,3.9925
964.00,3.8732
963.00,3.8387
962.00,3.8768
961.00,3.9768
960.00,4.1459
959.00,4.3347
958.00,4.3735
957.00,4.3142
956.00,4.1608
955.00,4.0743
954.00,4.1026
953.00,4.1607
952.00,4.2136
951.00,4.2222
950.00,4.0493
949.00,3.8915
948.00,3.8222
947.00,3.8268
946.00,3.8896
945.00,3.9981
944.00,4.1079
943.00,4.0985
942.00,4.0281
941.00,4.0144
940.00,4.0579
939.00,4.0977
938.00,4.0995
937.00,4.1108
936.00,4.1323
935.00,4.1234
934.00,4.1275
933.00,4.1813
932.00,4.2253
931.00,4.1536
930.00,4.0183
929.00,3.9318
928.00,3.9070
927.00,3.9156
926.00,3.9487
925.00,4.0222
924.00,4.1363
923.00,4.2231
922.00,4.1902
921.00,4.1185
920.00,4.0976
919.00,4.1416
918.00,4.2533
917.00,4.3329
916.00,4.1986
915.00,4.0870
914.00,4.0989
913.00,4.1692
912.00,4.1169
911.00,4.0140
910.00,4.0134
909.00,4.1639
908.00,4.5137
907.00,4.6990
906.00,4.2956
905.00,4.0502
904.00,3.9834
903.00,4.0292
902.00,4.0232
901.00,3.9433
900.00,3.9646
899.00,4.1378
898.00,4.1717
897.00,3.9691
896.00,3.8657
895.00,3.8395
894.00,3.8267
893.00,3.7853
892.00,3.7346
891.00,3.7111
890.00,3.7213
889.00,3.7628
888.00,3.8419
887.00,3.9600
886.00,4.0770
885.00,4.1012
884.00,4.0097
883.00,3.9252
882.00,3.9163
881.00,3.9742
880.00,4.0371
879.00,4.0480
878.00,4.0113
877.00,3.9479
876.00,3.9073
875.00,3.9198
874.00,3.9709
873.00,3.9851
872.00,3.9416
871.00,3.9051
870.00,3.8922
869.00,3.9119
868.00,3.9727
867.00,4.0517
866.00,4.0664
865.00,4.0386
864.00,4.0479
863.00,4.0740
862.00,4.1199
861.00,4.2842
860.00,4.4913
859.00,4.4060
858.00,4.3964
857.00,4.2908
856.00,4.1448
855.00,4.1379
854.00,4.1783
853.00,4.1956
852.00,4.1900
851.00,4.3305
850.00,5.1427
849.00,4.3872
848.00,4.1217
847.00,4.0993
846.00,4.1456
845.00,4.0348
844.00,3.8844
843.00,3.8524
842.00,3.9292
841.00,4.1275
840.00,4.3562
839.00,4.2384
838.00,4.0638
837.00,3.9398
836.00,3.8958
835.00,3.9481
834.00,4.0271
833.00,4.0481
832.00,4.0329
831.00,4.0256
830.00,4.1080
829.00,4.3300
828.00,4.1403
827.00,3.8377
826.00,3.7074
825.00,3.6793
824.00,3.7216
823.00,3.8209
822.00,3.9385
821.00,3.9764
820.00,3.8944
819.00,3.7908
818.00,3.7254
817.00,3.6976
816.00,3.6807
815.00,3.6512
814.00,3.6136
813.00,3.5929
812.00,3.6090
811.00,3.6577
810.00,3.7112
809.00,3.7517
808.00,3.8014
807.00,3.8888
806.00,4.0391
805.00,4.2883
804.00,4.4494
803.00,4.3333
802.00,4.2560
801.00,4.2159
800.00,4.1470
799.00,4.0339
798.00,3.9793
797.00,4.0798
796.00,4.4694
795.00,4.9456
794.00,4.4091
793.00,4.0700
792.00,3.8533
791.00,3.7827
790.00,3.8248
789.00,3.8780
788.00,3.8672
787.00,3.8017
786.00,3.7317
785.00,3.7137
784.00,3.7788
783.00,3.8929
782.00,3.9431
781.00,3.9327
780.00,3.9372
779.00,3.9509
778.00,3.9649
777.00,3.9805
776.00,3.9883
775.00,3.9840
774.00,4.0086
773.00,4.0980
772.00,4.1979
771.00,4.2149
770.00,4.1799
769.00,4.1428
768.00,4.1585
767.00,4.2057
766.00,4.1918
765.00,4.2108
764.00,4.3746
763.00,4.5977
762.00,4.3424
761.00,4.0366
760.00,3.8851
759.00,3.8312
758.00,3.8271
757.00,3.8138
756.00,3.7860
755.00,3.7905
754.00,3.8495
753.00,3.9328
752.00,3.9792
751.00,3.9555
750.00,3.8616
749.00,3.7754
748.00,3.7419
747.00,3.7359
746.00,3.7394
745.00,3.7652
744.00,3.7993
743.00,3.8030
742.00,3.7827
741.00,3.7752
740.00,3.8027
739.00,3.8441
738.00,3.8520
737.00,3.8058
736.00,3.7277
735.00,3.6714
734.00,3.6578
733.00,3.6725
732.00,3.7208
731.00,3.8406
730.00,4.0709
729.00,4.3449
728.00,4.4672
727.00,4.4418
726.00,4.5326
725.00,4.5694
724.00,4.2147
723.00,4.0591
722.00,4.0913
721.00,4.2182
720.00,4.2524
719.00,4.2225
718.00,4.3785
717.00,4.7051
716.00,4.4731
715.00,4.0750
714.00,3.8342
713.00,3.7146
712.00,3.6875
711.00,3.7235
710.00,3.7962
709.00,3.8818
708.00,3.9575
707.00,3.9954
706.00,3.9819
705.00,3.9386
704.00,3.9140
703.00,3.9471
702.00,4.0132
701.00,4.0251
700.00,3.9718
