Created as New Dataset,Sample 101 By Administrator Date Wednesday, November 24 2021
cm-1,A
7502.00,0.8267
7501.00,0.8342
7500.00,0.8419
7499.00,0.8496
7498.00,0.8575
7497.00,0.8656
7496.00,0.8738
7495.00,0.8822
7494.00,0.8907
7493.00,0.8999
7492.00,0.9097
7491.00,0.9199
7490.00,0.9301
7489.00,0.9400
7488.00,0.9498
7487.00,0.9592
7486.00,0.9679
7485.00,0.9756
7484.00,0.9824
7483.00,0.9890
7482.00,0.9961
7481.00,1.0043
7480.00,1.0133
7479.00,1.0228
7478.00,1.0324
7477.00,1.0420
7476.00,1.0515
7475.00,1.0610
7474.00,1.0702
7473.00,1.0790
7472.00,1.0871
7471.00,1.0945
7470.00,1.1008
7469.00,1.1065
7468.00,1.1121
7467.00,1.1180
7466.00,1.1240
7465.00,1.1293
7464.00,1.1337
7463.00,1.1382
7462.00,1.1437
7461.00,1.1498
7460.00,1.1553
7459.00,1.1589
7458.00,1.1608
7457.00,1.1624
7456.00,1.1646
7455.00,1.1672
7454.00,1.1700
7453.00,1.1730
7452.00,1.1761
7451.00,1.1785
7450.00,1.1795
7449.00,1.1791
7448.00,1.1782
7447.00,1.1772
7446.00,1.1759
7445.00,1.1737
7444.00,1.1709
7443.00,1.1683
7442.00,1.1665
7441.00,1.1651
7440.00,1.1635
7439.00,1.1611
7438.00,1.1581
7437.00,1.1549
7436.00,1.1515
7435.00,1.1474
7434.00,1.1422
7433.00,1.1362
7432.00,1.1297
7431.00,1.1230
7430.00,1.1163
7429.00,1.1098
7428.00,1.1038
7427.00,1.0977
7426.00,1.0907
7425.00,1.0826
7424.00,1.0738
7423.00,1.0651
7422.00,1.0567
7421.00,1.0482
7420.00,1.0398
7419.00,1.0318
7418.00,1.0240
7417.00,1.0158
7416.00,1.0067
7415.00,0.9970
7414.00,0.9875
7413.00,0.9786
7412.00,0.9699
7411.00,0.9610
7410.00,0.9518
7409.00,0.9426
7408.00,0.9333
7407.00,0.9241
7406.00,0.9148
7405.00,0.9056
7404.00,0.8967
7403.00,0.8880
7402.00,0.8795
7401.00,0.8714
7400.00,0.8638
7399.00,0.8567
7398.00,0.8495
7397.00,0.8423
7396.00,0.8353
7395.00,0.8289
7394.00,0.8233
7393.00,0.8182
7392.00,0.8132
7391.00,0.8085
7390.00,0.8043
7389.00,0.8009
7388.00,0.7979
7387.00,0.7950
7386.00,0.7922
7385.00,0.7898
7384.00,0.7880
7383.00,0.7871
7382.00,0.7868
7381.00,0.7871
7380.00,0.7881
7379.00,0.7897
7378.00,0.7919
7377.00,0.7947
7376.00,0.7977
7375.00,0.8011
7374.00,0.8049
7373.00,0.8094
7372.00,0.8144
7371.00,0.8198
7370.00,0.8253
7369.00,0.8310
7368.00,0.8369
7367.00,0.8430
7366.00,0.8493
7365.00,0.8558
7364.00,0.8627
7363.00,0.8700
7362.00,0.8779
7361.00,0.8865
7360.00,0.8953
7359.00,0.9040
7358.00,0.9122
7357.00,0.9202
7356.00,0.9284
7355.00,0.9373
7354.00,0.9467
7353.00,0.9563
7352.00,0.9659
7351.00,0.9752
7350.00,0.9843
7349.00,0.9929
7348.00,1.0008
7347.00,1.0079
7346.00,1.0144
7345.00,1.0209
7344.00,1.0281
7343.00,1.0364
7342.00,1.0451
7341.00,1.0536
7340.00,1.0610
7339.00,1.0672
7338.00,1.0723
7337.00,1.0767
7336.00,1.0805
7335.00,1.0836
7334.00,1.0864
7333.00,1.0893
7332.00,1.0924
7331.00,1.0954
7330.00,1.0978
7329.00,1.1000
7328.00,1.1022
7327.00,1.1046
7326.00,1.1069
7325.00,1.1088
7324.00,1.1104
7323.00,1.1121
7322.00,1.1136
7321.00,1.1150
7320.00,1.1158
7319.00,1.1161
7318.00,1.1159
7317.00,1.1157
7316.00,1.1162
7315.00,1.1176
7314.00,1.1194
7313.00,1.1206
7312.00,1.1209
7311.00,1.1200
7310.00,1.1183
7309.00,1.1157
7308.00,1.1123
7307.00,1.1084
7306.00,1.1044
7305.00,1.1011
7304.00,1.0988
7303.00,1.0978
7302.00,1.0978
7301.00,1.0980
7300.00,1.0974
7299.00,1.0957
7298.00,1.0928
7297.00,1.0890
7296.00,1.0841
7295.00,1.0776
7294.00,1.0696
7293.00,1.0612
7292.00,1.0534
7291.00,1.0460
7290.00,1.0386
7289.00,1.0309
7288.00,1.0236
7287.00,1.0167
7286.00,1.0096
7285.00,1.0021
7284.00,0.9941
7283.00,0.9862
7282.00,0.9783
7281.00,0.9705
7280.00,0.9625
7279.00,0.9542
7278.00,0.9457
7277.00,0.9370
7276.00,0.9285
7275.00,0.9205
7274.00,0.9125
7273.00,0.9042
7272.00,0.8958
7271.00,0.8879
7270.00,0.8807
7269.00,0.8737
7268.00,0.8663
7267.00,0.8587
7266.00,0.8510
7265.00,0.8437
7264.00,0.8367
7263.00,0.8304
7262.00,0.8247
7261.00,0.8194
7260.00,0.8143
7259.00,0.8096
7258.00,0.8053
7257.00,0.8013
7256.00,0.7972
7255.00,0.7932
7254.00,0.7897
7253.00,0.7869
7252.00,0.7848
7251.00,0.7833
7250.00,0.7823
7249.00,0.7819
7248.00,0.7820
7247.00,0.7824
7246.00,0.7833
7245.00,0.7848
7244.00,0.7869
7243.00,0.7899
7242.00,0.7936
7241.00,0.7979
7240.00,0.8027
7239.00,0.8079
7238.00,0.8133
7237.00,0.8190
7236.00,0.8248
7235.00,0.8306
7234.00,0.8366
7233.00,0.8432
7232.00,0.8505
7231.00,0.8584
7230.00,0.8666
7229.00,0.8750
7228.00,0.8837
7227.00,0.8927
7226.00,0.9020
7225.00,0.9115
7224.00,0.9210
7223.00,0.9304
7222.00,0.9397
7221.00,0.9488
7220.00,0.9578
7219.00,0.9669
7218.00,0.9760
7217.00,0.9850
7216.00,0.9939
7215.00,1.0027
7214.00,1.0118
7213.00,1.0211
7212.00,1.0303
7211.00,1.0393
7210.00,1.0481
7209.00,1.0568
7208.00,1.0654
7207.00,1.0742
7206.00,1.0830
7205.00,1.0913
7204.00,1.0988
7203.00,1.1056
7202.00,1.1121
7201.00,1.1187
7200.00,1.1253
7199.00,1.1317
7198.00,1.1383
7197.00,1.1448
7196.00,1.1509
7195.00,1.1565
7194.00,1.1617
7193.00,1.1666
7192.00,1.1709
7191.00,1.1742
7190.00,1.1768
7189.00,1.1794
7188.00,1.1824
7187.00,1.1855
7186.00,1.1882
7185.00,1.1902
7184.00,1.1915
7183.00,1.1925
7182.00,1.1932
7181.00,1.1937
7180.00,1.1938
7179.00,1.1935
7178.00,1.1928
7177.00,1.1919
7176.00,1.1909
7175.00,1.1897
7174.00,1.1881
7173.00,1.1856
7172.00,1.1824
7171.00,1.1789
7170.00,1.1752
7169.00,1.1711
7168.00,1.1663
7167.00,1.1610
7166.00,1.1557
7165.00,1.1504
7164.00,1.1448
7163.00,1.1386
7162.00,1.1322
7161.00,1.1257
7160.00,1.1190
7159.00,1.1117
7158.00,1.1040
7157.00,1.0962
7156.00,1.0885
7155.00,1.0809
7154.00,1.0731
7153.00,1.0647
7152.00,1.0556
7151.00,1.0461
7150.00,1.0366
7149.00,1.0272
7148.00,1.0178
7147.00,1.0080
7146.00,0.9981
7145.00,0.9883
7144.00,0.9786
7143.00,0.9688
7142.00,0.9590
7141.00,0.9490
7140.00,0.9390
7139.00,0.9292
7138.00,0.9200
7137.00,0.9113
7136.00,0.9027
7135.00,0.8938
7134.00,0.8848
7133.00,0.8762
7132.00,0.8679
7131.00,0.8597
7130.00,0.8516
7129.00,0.8439
7128.00,0.8370
7127.00,0.8306
7126.00,0.8243
7125.00,0.8182
7124.00,0.8125
7123.00,0.8075
7122.00,0.8030
7121.00,0.7990
7120.00,0.7957
7119.00,0.7932
7118.00,0.7912
7117.00,0.7895
7116.00,0.7883
7115.00,0.7874
7114.00,0.7870
7113.00,0.7870
7112.00,0.7877
7111.00,0.7893
7110.00,0.7917
7109.00,0.7947
7108.00,0.7978
7107.00,0.8012
7106.00,0.8053
7105.00,0.8101
7104.00,0.8156
7103.00,0.8216
7102.00,0.8280
7101.00,0.8348
7100.00,0.8419
7099.00,0.8494
7098.00,0.8570
7097.00,0.8646
7096.00,0.8720
7095.00,0.8795
7094.00,0.8876
7093.00,0.8962
7092.00,0.9049
7091.00,0.9134
7090.00,0.9223
7089.00,0.9318
7088.00,0.9418
7087.00,0.9515
7086.00,0.9609
7085.00,0.9702
7084.00,0.9798
7083.00,0.9891
7082.00,0.9977
7081.00,1.0060
7080.00,1.0146
7079.00,1.0238
7078.00,1.0334
7077.00,1.0428
7076.00,1.0517
7075.00,1.0602
7074.00,1.0688
7073.00,1.0774
7072.00,1.0856
7071.00,1.0928
7070.00,1.0991
7069.00,1.1054
7068.00,1.1121
7067.00,1.1189
7066.00,1.1255
7065.00,1.1315
7064.00,1.1372
7063.00,1.1429
7062.00,1.1483
7061.00,1.1531
7060.00,1.1573
7059.00,1.1611
7058.00,1.1648
7057.00,1.1687
7056.00,1.1723
7055.00,1.1757
7054.00,1.1788
7053.00,1.1817
7052.00,1.1841
7051.00,1.1856
7050.00,1.1863
7049.00,1.1867
7048.00,1.1870
7047.00,1.1874
7046.00,1.1876
7045.00,1.1875
7044.00,1.1867
7043.00,1.1852
7042.00,1.1832
7041.00,1.1811
7040.00,1.1785
7039.00,1.1751
7038.00,1.1712
7037.00,1.1673
7036.00,1.1635
7035.00,1.1597
7034.00,1.1554
7033.00,1.1507
7032.00,1.1457
7031.00,1.1404
7030.00,1.1350
7029.00,1.1295
7028.00,1.1237
7027.00,1.1173
7026.00,1.1100
7025.00,1.1022
7024.00,1.0943
7023.00,1.0866
7022.00,1.0790
7021.00,1.0713
7020.00,1.0637
7019.00,1.0559
7018.00,1.0479
7017.00,1.0396
7016.00,1.0307
7015.00,1.0213
7014.00,1.0114
7013.00,1.0014
7012.00,0.9916
7011.00,0.9820
7010.00,0.9724
7009.00,0.9627
7008.00,0.9531
7007.00,0.9434
7006.00,0.9336
7005.00,0.9237
7004.00,0.9142
7003.00,0.9050
7002.00,0.8961
7001.00,0.8873
7000.00,0.8785
6999.00,0.8698
6998.00,0.8613
6997.00,0.8533
6996.00,0.8455
6995.00,0.8381
6994.00,0.8310
6993.00,0.8244
6992.00,0.8182
6991.00,0.8123
6990.00,0.8067
6989.00,0.8014
6988.00,0.7967
6987.00,0.7926
6986.00,0.7892
6985.00,0.7865
6984.00,0.7846
6983.00,0.7832
6982.00,0.7822
6981.00,0.7815
6980.00,0.7813
6979.00,0.7815
6978.00,0.7822
6977.00,0.7836
6976.00,0.7857
6975.00,0.7884
6974.00,0.7919
6973.00,0.7959
6972.00,0.8004
6971.00,0.8055
6970.00,0.8111
6969.00,0.8171
6968.00,0.8233
6967.00,0.8299
6966.00,0.8367
6965.00,0.8439
6964.00,0.8515
6963.00,0.8595
6962.00,0.8680
6961.00,0.8767
6960.00,0.8857
6959.00,0.8949
6958.00,0.9044
6957.00,0.9139
6956.00,0.9233
6955.00,0.9325
6954.00,0.9418
6953.00,0.9515
6952.00,0.9616
6951.00,0.9716
6950.00,0.9813
6949.00,0.9908
6948.00,1.0003
6947.00,1.0099
6946.00,1.0199
6945.00,1.0300
6944.00,1.0400
6943.00,1.0495
6942.00,1.0586
6941.00,1.0676
6940.00,1.0764
6939.00,1.0848
6938.00,1.0927
6937.00,1.1005
6936.00,1.1086
6935.00,1.1167
6934.00,1.1247
6933.00,1.1319
6932.00,1.1383
6931.00,1.1445
6930.00,1.1509
6929.00,1.1576
6928.00,1.1642
6927.00,1.1702
6926.00,1.1755
6925.00,1.1803
6924.00,1.1846
6923.00,1.1885
6922.00,1.1922
6921.00,1.1957
6920.00,1.1991
6919.00,1.2022
6918.00,1.2047
6917.00,1.2065
6916.00,1.2078
6915.00,1.2090
6914.00,1.2101
6913.00,1.2113
6912.00,1.2123
6911.00,1.2127
6910.00,1.2124
6909.00,1.2109
6908.00,1.2088
6907.00,1.2063
6906.00,1.2039
6905.00,1.2013
6904.00,1.1982
6903.00,1.1947
6902.00,1.1909
6901.00,1.1864
6900.00,1.1812
6899.00,1.1755
6898.00,1.1698
6897.00,1.1642
6896.00,1.1588
6895.00,1.1532
6894.00,1.1473
6893.00,1.1409
6892.00,1.1335
6891.00,1.1255
6890.00,1.1171
6889.00,1.1088
6888.00,1.1004
6887.00,1.0918
6886.00,1.0833
6885.00,1.0745
6884.00,1.0653
6883.00,1.0553
6882.00,1.0450
6881.00,1.0347
6880.00,1.0246
6879.00,1.0145
6878.00,1.0046
6877.00,0.9949
6876.00,0.9853
6875.00,0.9756
6874.00,0.9657
6873.00,0.9556
6872.00,0.9455
6871.00,0.9352
6870.00,0.9249
6869.00,0.9147
6868.00,0.9050
6867.00,0.8954
6866.00,0.8859
6865.00,0.8767
6864.00,0.8679
6863.00,0.8597
6862.00,0.8519
6861.00,0.8442
6860.00,0.8366
6859.00,0.8293
6858.00,0.8225
6857.00,0.8161
6856.00,0.8102
6855.00,0.8047
6854.00,0.7999
6853.00,0.7959
6852.00,0.7925
6851.00,0.7896
6850.00,0.7871
6849.00,0.7851
6848.00,0.7838
6847.00,0.7830
6846.00,0.7827
6845.00,0.7830
6844.00,0.7836
6843.00,0.7847
6842.00,0.7865
6841.00,0.7892
6840.00,0.7925
6839.00,0.7965
6838.00,0.8010
6837.00,0.8061
6836.00,0.8117
6835.00,0.8175
6834.00,0.8237
6833.00,0.8304
6832.00,0.8374
6831.00,0.8447
6830.00,0.8524
6829.00,0.8606
6828.00,0.8693
6827.00,0.8783
6826.00,0.8875
6825.00,0.8969
6824.00,0.9065
6823.00,0.9163
6822.00,0.9262
6821.00,0.9362
6820.00,0.9460
6819.00,0.9557
6818.00,0.9654
6817.00,0.9753
6816.00,0.9851
6815.00,0.9948
6814.00,1.0044
6813.00,1.0141
6812.00,1.0241
6811.00,1.0341
6810.00,1.0440
6809.00,1.0539
6808.00,1.0636
6807.00,1.0728
6806.00,1.0814
6805.00,1.0897
6804.00,1.0981
6803.00,1.1064
6802.00,1.1147
6801.00,1.1228
6800.00,1.1307
6799.00,1.1381
6798.00,1.1449
6797.00,1.1510
6796.00,1.1568
6795.00,1.1625
6794.00,1.1684
6793.00,1.1743
6792.00,1.1799
6791.00,1.1850
6790.00,1.1893
6789.00,1.1929
6788.00,1.1957
6787.00,1.1979
6786.00,1.1999
6785.00,1.2017
6784.00,1.2033
6783.00,1.2045
6782.00,1.2052
6781.00,1.2059
6780.00,1.2064
6779.00,1.2063
6778.00,1.2056
6777.00,1.2048
6776.00,1.2040
6775.00,1.2028
6774.00,1.2009
6773.00,1.1984
6772.00,1.1955
6771.00,1.1925
6770.00,1.1894
6769.00,1.1860
6768.00,1.1825
6767.00,1.1787
6766.00,1.1743
6765.00,1.1690
6764.00,1.1631
6763.00,1.1569
6762.00,1.1508
6761.00,1.1446
6760.00,1.1381
6759.00,1.1311
6758.00,1.1237
6757.00,1.1162
6756.00,1.1085
6755.00,1.1003
6754.00,1.0914
6753.00,1.0822
6752.00,1.0728
6751.00,1.0636
6750.00,1.0545
6749.00,1.0453
6748.00,1.0359
6747.00,1.0264
6746.00,1.0169
6745.00,1.0076
6744.00,0.9981
6743.00,0.9880
6742.00,0.9774
6741.00,0.9669
6740.00,0.9565
6739.00,0.9461
6738.00,0.9358
6737.00,0.9256
6736.00,0.9156
6735.00,0.9060
6734.00,0.8964
6733.00,0.8870
6732.00,0.8777
6731.00,0.8687
6730.00,0.8599
6729.00,0.8515
6728.00,0.8433
6727.00,0.8354
6726.00,0.8279
6725.00,0.8206
6724.00,0.8137
6723.00,0.8073
6722.00,0.8013
6721.00,0.7958
6720.00,0.7910
6719.00,0.7866
6718.00,0.7827
6717.00,0.7795
6716.00,0.7770
6715.00,0.7752
6714.00,0.7740
6713.00,0.7735
6712.00,0.7736
6711.00,0.7743
6710.00,0.7755
6709.00,0.7770
6708.00,0.7789
6707.00,0.7815
6706.00,0.7849
6705.00,0.7890
6704.00,0.7937
6703.00,0.7990
6702.00,0.8047
6701.00,0.8107
6700.00,0.8170
6699.00,0.8237
6698.00,0.8309
6697.00,0.8387
6696.00,0.8470
6695.00,0.8556
6694.00,0.8645
6693.00,0.8737
6692.00,0.8832
6691.00,0.8927
6690.00,0.9024
6689.00,0.9124
6688.00,0.9227
6687.00,0.9333
6686.00,0.9439
6685.00,0.9544
6684.00,0.9649
6683.00,0.9755
6682.00,0.9860
6681.00,0.9965
6680.00,1.0070
6679.00,1.0174
6678.00,1.0276
6677.00,1.0378
6676.00,1.0480
6675.00,1.0579
6674.00,1.0674
6673.00,1.0768
6672.00,1.0862
6671.00,1.0957
6670.00,1.1049
6669.00,1.1136
6668.00,1.1219
6667.00,1.1300
6666.00,1.1379
6665.00,1.1456
6664.00,1.1531
6663.00,1.1605
6662.00,1.1678
6661.00,1.1747
6660.00,1.1810
6659.00,1.1867
6658.00,1.1921
6657.00,1.1972
6656.00,1.2021
6655.00,1.2070
6654.00,1.2118
6653.00,1.2159
6652.00,1.2191
6651.00,1.2213
6650.00,1.2231
6649.00,1.2247
6648.00,1.2262
6647.00,1.2276
6646.00,1.2292
6645.00,1.2309
6644.00,1.2325
6643.00,1.2334
6642.00,1.2331
6641.00,1.2314
6640.00,1.2289
6639.00,1.2261
6638.00,1.2233
6637.00,1.2202
6636.00,1.2167
6635.00,1.2130
6634.00,1.2095
6633.00,1.2059
6632.00,1.2019
6631.00,1.1973
6630.00,1.1925
6629.00,1.1876
6628.00,1.1823
6627.00,1.1764
6626.00,1.1696
6625.00,1.1618
6624.00,1.1535
6623.00,1.1450
6622.00,1.1365
6621.00,1.1278
6620.00,1.1190
6619.00,1.1101
6618.00,1.1010
6617.00,1.0917
6616.00,1.0822
6615.00,1.0725
6614.00,1.0627
6613.00,1.0529
6612.00,1.0428
6611.00,1.0324
6610.00,1.0217
6609.00,1.0110
6608.00,1.0003
6607.00,0.9895
6606.00,0.9788
6605.00,0.9682
6604.00,0.9575
6603.00,0.9468
6602.00,0.9360
6601.00,0.9251
6600.00,0.9142
6599.00,0.9034
6598.00,0.8929
6597.00,0.8829
6596.00,0.8734
6595.00,0.8644
6594.00,0.8557
6593.00,0.8474
6592.00,0.8393
6591.00,0.8313
6590.00,0.8235
6589.00,0.8161
6588.00,0.8092
6587.00,0.8032
6586.00,0.7978
6585.00,0.7933
6584.00,0.7895
6583.00,0.7863
6582.00,0.7836
6581.00,0.7814
6580.00,0.7797
6579.00,0.7787
6578.00,0.7782
6577.00,0.7784
6576.00,0.7793
6575.00,0.7806
6574.00,0.7825
6573.00,0.7851
6572.00,0.7884
6571.00,0.7924
6570.00,0.7970
6569.00,0.8021
6568.00,0.8078
6567.00,0.8140
6566.00,0.8206
6565.00,0.8278
6564.00,0.8353
6563.00,0.8434
6562.00,0.8519
6561.00,0.8608
6560.00,0.8698
6559.00,0.8788
6558.00,0.8881
6557.00,0.8978
6556.00,0.9078
6555.00,0.9179
6554.00,0.9280
6553.00,0.9383
6552.00,0.9486
6551.00,0.9588
6550.00,0.9688
6549.00,0.9790
6548.00,0.9893
6547.00,0.9999
6546.00,1.0105
6545.00,1.0211
6544.00,1.0314
6543.00,1.0416
6542.00,1.0517
6541.00,1.0618
6540.00,1.0717
6539.00,1.0814
6538.00,1.0908
6537.00,1.1000
6536.00,1.1090
6535.00,1.1176
6534.00,1.1259
6533.00,1.1341
6532.00,1.1420
6531.00,1.1497
6530.00,1.1568
6529.00,1.1636
6528.00,1.1701
6527.00,1.1764
6526.00,1.1824
6525.00,1.1879
6524.00,1.1928
6523.00,1.1972
6522.00,1.2011
6521.00,1.2047
6520.00,1.2080
6519.00,1.2109
6518.00,1.2136
6517.00,1.2160
6516.00,1.2179
6515.00,1.2195
6514.00,1.2211
6513.00,1.2226
6512.00,1.2239
6511.00,1.2245
6510.00,1.2244
6509.00,1.2234
6508.00,1.2219
6507.00,1.2199
6506.00,1.2175
6505.00,1.2151
6504.00,1.2126
6503.00,1.2098
6502.00,1.2062
6501.00,1.2018
6500.00,1.1969
6499.00,1.1919
6498.00,1.1869
6497.00,1.1821
6496.00,1.1773
6495.00,1.1723
6494.00,1.1669
6493.00,1.1608
6492.00,1.1538
6491.00,1.1462
6490.00,1.1384
6489.00,1.1305
6488.00,1.1224
6487.00,1.1143
6486.00,1.1061
6485.00,1.0979
6484.00,1.0894
6483.00,1.0803
6482.00,1.0708
6481.00,1.0609
6480.00,1.0510
6479.00,1.0410
6478.00,1.0308
6477.00,1.0206
6476.00,1.0104
6475.00,1.0004
6474.00,0.9902
6473.00,0.9798
6472.00,0.9691
6471.00,0.9584
6470.00,0.9478
6469.00,0.9373
6468.00,0.9268
6467.00,0.9164
6466.00,0.9060
6465.00,0.8958
6464.00,0.8856
6463.00,0.8756
6462.00,0.8659
6461.00,0.8565
6460.00,0.8476
6459.00,0.8391
6458.00,0.8311
6457.00,0.8236
6456.00,0.8164
6455.00,0.8096
6454.00,0.8032
6453.00,0.7974
6452.00,0.7922
6451.00,0.7873
6450.00,0.7830
6449.00,0.7793
6448.00,0.7762
6447.00,0.7738
6446.00,0.7721
6445.00,0.7712
6444.00,0.7710
6443.00,0.7715
6442.00,0.7725
6441.00,0.7743
6440.00,0.7767
6439.00,0.7797
6438.00,0.7833
6437.00,0.7874
6436.00,0.7923
6435.00,0.7978
6434.00,0.8038
6433.00,0.8103
6432.00,0.8172
6431.00,0.8248
6430.00,0.8329
6429.00,0.8413
6428.00,0.8499
6427.00,0.8587
6426.00,0.8679
6425.00,0.8774
6424.00,0.8872
6423.00,0.8972
6422.00,0.9074
6421.00,0.9180
6420.00,0.9288
6419.00,0.9398
6418.00,0.9508
6417.00,0.9620
6416.00,0.9733
6415.00,0.9847
6414.00,0.9961
6413.00,1.0074
6412.00,1.0184
6411.00,1.0290
6410.00,1.0395
6409.00,1.0498
6408.00,1.0601
6407.00,1.0704
6406.00,1.0808
6405.00,1.0913
6404.00,1.1017
6403.00,1.1118
6402.00,1.1216
6401.00,1.1311
6400.00,1.1402
6399.00,1.1489
6398.00,1.1574
6397.00,1.1659
6396.00,1.1741
6395.00,1.1818
6394.00,1.1891
6393.00,1.1961
6392.00,1.2029
6391.00,1.2093
6390.00,1.2152
6389.00,1.2205
6388.00,1.2256
6387.00,1.2303
6386.00,1.2346
6385.00,1.2381
6384.00,1.2409
6383.00,1.2432
6382.00,1.2454
6381.00,1.2474
6380.00,1.2492
6379.00,1.2508
6378.00,1.2520
6377.00,1.2530
6376.00,1.2536
6375.00,1.2534
6374.00,1.2525
6373.00,1.2507
6372.00,1.2484
6371.00,1.2461
6370.00,1.2439
6369.00,1.2416
6368.00,1.2388
6367.00,1.2357
6366.00,1.2323
6365.00,1.2285
6364.00,1.2241
6363.00,1.2190
6362.00,1.2135
6361.00,1.2077
6360.00,1.2015
6359.00,1.1947
6358.00,1.1874
6357.00,1.1799
6356.00,1.1723
6355.00,1.1645
6354.00,1.1565
6353.00,1.1485
6352.00,1.1402
6351.00,1.1314
6350.00,1.1219
6349.00,1.1119
6348.00,1.1016
6347.00,1.0910
6346.00,1.0803
6345.00,1.0694
6344.00,1.0585
6343.00,1.0475
6342.00,1.0364
6341.00,1.0249
6340.00,1.0130
6339.00,1.0010
6338.00,0.9891
6337.00,0.9774
6336.00,0.9658
6335.00,0.9542
6334.00,0.9428
6333.00,0.9318
6332.00,0.9208
6331.00,0.9099
6330.00,0.8990
6329.00,0.8881
6328.00,0.8775
6327.00,0.8674
6326.00,0.8576
6325.00,0.8484
6324.00,0.8396
6323.00,0.8312
6322.00,0.8232
6321.00,0.8158
6320.00,0.8088
6319.00,0.8022
6318.00,0.7963
6317.00,0.7910
6316.00,0.7865
6315.00,0.7825
6314.00,0.7792
6313.00,0.7766
6312.00,0.7747
6311.00,0.7735
6310.00,0.7730
6309.00,0.7732
6308.00,0.7741
6307.00,0.7757
6306.00,0.7780
6305.00,0.7809
6304.00,0.7845
6303.00,0.7888
6302.00,0.7939
6301.00,0.7996
6300.00,0.8059
6299.00,0.8125
6298.00,0.8198
6297.00,0.8276
6296.00,0.8357
6295.00,0.8440
6294.00,0.8526
6293.00,0.8618
6292.00,0.8713
6291.00,0.8811
6290.00,0.8911
6289.00,0.9013
6288.00,0.9118
6287.00,0.9224
6286.00,0.9334
6285.00,0.9445
6284.00,0.9557
6283.00,0.9668
6282.00,0.9778
6281.00,0.9888
6280.00,0.9999
6279.00,1.0109
6278.00,1.0221
6277.00,1.0334
6276.00,1.0447
6275.00,1.0558
6274.00,1.0665
6273.00,1.0770
6272.00,1.0872
6271.00,1.0971
6270.00,1.1068
6269.00,1.1163
6268.00,1.1256
6267.00,1.1348
6266.00,1.1436
6265.00,1.1521
6264.00,1.1602
6263.00,1.1679
6262.00,1.1751
6261.00,1.1823
6260.00,1.1892
6259.00,1.1956
6258.00,1.2014
6257.00,1.2066
6256.00,1.2116
6255.00,1.2164
6254.00,1.2206
6253.00,1.2243
6252.00,1.2276
6251.00,1.2309
6250.00,1.2343
6249.00,1.2373
6248.00,1.2397
6247.00,1.2417
6246.00,1.2434
6245.00,1.2448
6244.00,1.2454
6243.00,1.2451
6242.00,1.2443
6241.00,1.2434
6240.00,1.2425
6239.00,1.2414
6238.00,1.2398
6237.00,1.2379
6236.00,1.2358
6235.00,1.2331
6234.00,1.2297
6233.00,1.2259
6232.00,1.2219
6231.00,1.2177
6230.00,1.2131
6229.00,1.2082
6228.00,1.2032
6227.00,1.1983
6226.00,1.1933
6225.00,1.1877
6224.00,1.1814
6223.00,1.1744
6222.00,1.1667
6221.00,1.1585
6220.00,1.1499
6219.00,1.1413
6218.00,1.1327
6217.00,1.1240
6216.00,1.1150
6215.00,1.1055
6214.00,1.0954
6213.00,1.0850
6212.00,1.0743
6211.00,1.0637
6210.00,1.0531
6209.00,1.0424
6208.00,1.0315
6207.00,1.0202
6206.00,1.0086
6205.00,0.9966
6204.00,0.9847
6203.00,0.9730
6202.00,0.9617
6201.00,0.9507
6200.00,0.9397
6199.00,0.9286
6198.00,0.9173
6197.00,0.9059
6196.00,0.8945
6195.00,0.8835
6194.00,0.8730
6193.00,0.8629
6192.00,0.8533
6191.00,0.8442
6190.00,0.8353
6189.00,0.8268
6188.00,0.8184
6187.00,0.8104
6186.00,0.8032
6185.00,0.7967
6184.00,0.7909
6183.00,0.7857
6182.00,0.7812
6181.00,0.7773
6180.00,0.7742
6179.00,0.7717
6178.00,0.7699
6177.00,0.7687
6176.00,0.7682
6175.00,0.7685
6174.00,0.7696
6173.00,0.7714
6172.00,0.7738
6171.00,0.7769
6170.00,0.7808
6169.00,0.7854
6168.00,0.7907
6167.00,0.7964
6166.00,0.8028
6165.00,0.8099
6164.00,0.8177
6163.00,0.8260
6162.00,0.8347
6161.00,0.8437
6160.00,0.8531
6159.00,0.8628
6158.00,0.8727
6157.00,0.8830
6156.00,0.8936
6155.00,0.9045
6154.00,0.9157
6153.00,0.9269
6152.00,0.9382
6151.00,0.9497
6150.00,0.9614
6149.00,0.9732
6148.00,0.9850
6147.00,0.9969
6146.00,1.0089
6145.00,1.0209
6144.00,1.0328
6143.00,1.0445
6142.00,1.0559
6141.00,1.0672
6140.00,1.0781
6139.00,1.0888
6138.00,1.0994
6137.00,1.1100
6136.00,1.1209
6135.00,1.1318
6134.00,1.1425
6133.00,1.1528
6132.00,1.1624
6131.00,1.1715
6130.00,1.1802
6129.00,1.1885
6128.00,1.1965
6127.00,1.2042
6126.00,1.2117
6125.00,1.2189
6124.00,1.2258
6123.00,1.2323
6122.00,1.2382
6121.00,1.2435
6120.00,1.2483
6119.00,1.2527
6118.00,1.2568
6117.00,1.2605
6116.00,1.2639
6115.00,1.2672
6114.00,1.2703
6113.00,1.2730
6112.00,1.2750
6111.00,1.2764
6110.00,1.2775
6109.00,1.2783
6108.00,1.2787
6107.00,1.2787
6106.00,1.2781
6105.00,1.2769
6104.00,1.2751
6103.00,1.2729
6102.00,1.2701
6101.00,1.2669
6100.00,1.2634
6099.00,1.2595
6098.00,1.2553
6097.00,1.2507
6096.00,1.2458
6095.00,1.2407
6094.00,1.2354
6093.00,1.2297
6092.00,1.2234
6091.00,1.2166
6090.00,1.2092
6089.00,1.2013
6088.00,1.1930
6087.00,1.1844
6086.00,1.1757
6085.00,1.1666
6084.00,1.1573
6083.00,1.1478
6082.00,1.1381
6081.00,1.1282
6080.00,1.1178
6079.00,1.1069
6078.00,1.0956
6077.00,1.0842
6076.00,1.0725
6075.00,1.0606
6074.00,1.0486
6073.00,1.0366
6072.00,1.0246
6071.00,1.0125
6070.00,1.0003
6069.00,0.9880
6068.00,0.9756
6067.00,0.9631
6066.00,0.9506
6065.00,0.9382
6064.00,0.9261
6063.00,0.9141
6062.00,0.9024
6061.00,0.8910
6060.00,0.8798
6059.00,0.8688
6058.00,0.8582
6057.00,0.8480
6056.00,0.8381
6055.00,0.8289
6054.00,0.8202
6053.00,0.8122
6052.00,0.8047
6051.00,0.7977
6050.00,0.7914
6049.00,0.7856
6048.00,0.7804
6047.00,0.7759
6046.00,0.7722
6045.00,0.7693
6044.00,0.7671
6043.00,0.7657
6042.00,0.7650
6041.00,0.7653
6040.00,0.7662
6039.00,0.7678
6038.00,0.7703
6037.00,0.7736
6036.00,0.7778
6035.00,0.7826
6034.00,0.7880
6033.00,0.7941
6032.00,0.8007
6031.00,0.8078
6030.00,0.8155
6029.00,0.8238
6028.00,0.8326
6027.00,0.8418
6026.00,0.8514
6025.00,0.8613
6024.00,0.8715
6023.00,0.8817
6022.00,0.8924
6021.00,0.9035
6020.00,0.9150
6019.00,0.9267
6018.00,0.9386
6017.00,0.9506
6016.00,0.9628
6015.00,0.9750
6014.00,0.9871
6013.00,0.9992
6012.00,1.0113
6011.00,1.0234
6010.00,1.0354
6009.00,1.0472
6008.00,1.0589
6007.00,1.0706
6006.00,1.0824
6005.00,1.0941
6004.00,1.1057
6003.00,1.1170
6002.00,1.1280
6001.00,1.1387
6000.00,1.1490
5999.00,1.1591
5998.00,1.1691
5997.00,1.1791
5996.00,1.1887
5995.00,1.1978
5994.00,1.2063
5993.00,1.2141
5992.00,1.2213
5991.00,1.2281
5990.00,1.2349
5989.00,1.2419
5988.00,1.2487
5987.00,1.2552
5986.00,1.2611
5985.00,1.2666
5984.00,1.2715
5983.00,1.2758
5982.00,1.2796
5981.00,1.2827
5980.00,1.2852
5979.00,1.2871
5978.00,1.2887
5977.00,1.2903
5976.00,1.2918
5975.00,1.2932
5974.00,1.2944
5973.00,1.2951
5972.00,1.2949
5971.00,1.2937
5970.00,1.2919
5969.00,1.2899
5968.00,1.2876
5967.00,1.2850
5966.00,1.2818
5965.00,1.2781
5964.00,1.2740
5963.00,1.2694
5962.00,1.2644
5961.00,1.2593
5960.00,1.2541
5959.00,1.2485
5958.00,1.2421
5957.00,1.2350
5956.00,1.2273
5955.00,1.2193
5954.00,1.2113
5953.00,1.2031
5952.00,1.1946
5951.00,1.1856
5950.00,1.1762
5949.00,1.1662
5948.00,1.1558
5947.00,1.1450
5946.00,1.1340
5945.00,1.1228
5944.00,1.1112
5943.00,1.0993
5942.00,1.0872
5941.00,1.0750
5940.00,1.0627
5939.00,1.0502
5938.00,1.0375
5937.00,1.0247
5936.00,1.0116
5935.00,0.9983
5934.00,0.9852
5933.00,0.9722
5932.00,0.9596
5931.00,0.9472
5930.00,0.9349
5929.00,0.9227
5928.00,0.9107
5927.00,0.8990
5926.00,0.8875
5925.00,0.8765
5924.00,0.8657
5923.00,0.8554
5922.00,0.8455
5921.00,0.8360
5920.00,0.8270
5919.00,0.8188
5918.00,0.8113
5917.00,0.8045
5916.00,0.7982
5915.00,0.7926
5914.00,0.7876
5913.00,0.7832
5912.00,0.7796
5911.00,0.7767
5910.00,0.7749
5909.00,0.7741
5908.00,0.7740
5907.00,0.7747
5906.00,0.7761
5905.00,0.7783
5904.00,0.7812
5903.00,0.7849
5902.00,0.7894
5901.00,0.7947
5900.00,0.8006
5899.00,0.8072
5898.00,0.8143
5897.00,0.8221
5896.00,0.8305
5895.00,0.8394
5894.00,0.8488
5893.00,0.8587
5892.00,0.8690
5891.00,0.8798
5890.00,0.8909
5889.00,0.9024
5888.00,0.9142
5887.00,0.9262
5886.00,0.9384
5885.00,0.9508
5884.00,0.9634
5883.00,0.9761
5882.00,0.9890
5881.00,1.0019
5880.00,1.0146
5879.00,1.0270
5878.00,1.0393
5877.00,1.0516
5876.00,1.0639
5875.00,1.0763
5874.00,1.0889
5873.00,1.1016
5872.00,1.1139
5871.00,1.1258
5870.00,1.1374
5869.00,1.1488
5868.00,1.1601
5867.00,1.1710
5866.00,1.1814
5865.00,1.1915
5864.00,1.2011
5863.00,1.2102
5862.00,1.2188
5861.00,1.2272
5860.00,1.2354
5859.00,1.2434
5858.00,1.2515
5857.00,1.2593
5856.00,1.2667
5855.00,1.2734
5854.00,1.2795
5853.00,1.2849
5852.00,1.2899
5851.00,1.2945
5850.00,1.2988
5849.00,1.3030
5848.00,1.3067
5847.00,1.3099
5846.00,1.3126
5845.00,1.3149
5844.00,1.3168
5843.00,1.3183
5842.00,1.3192
5841.00,1.3198
5840.00,1.3199
5839.00,1.3196
5838.00,1.3190
5837.00,1.3184
5836.00,1.3174
5835.00,1.3160
5834.00,1.3139
5833.00,1.3109
5832.00,1.3073
5831.00,1.3033
5830.00,1.2993
5829.00,1.2951
5828.00,1.2905
5827.00,1.2853
5826.00,1.2796
5825.00,1.2735
5824.00,1.2669
5823.00,1.2598
5822.00,1.2523
5821.00,1.2446
5820.00,1.2367
5819.00,1.2285
5818.00,1.2198
5817.00,1.2106
5816.00,1.2010
5815.00,1.1908
5814.00,1.1803
5813.00,1.1696
5812.00,1.1585
5811.00,1.1471
5810.00,1.1356
5809.00,1.1238
5808.00,1.1117
5807.00,1.0991
5806.00,1.0863
5805.00,1.0733
5804.00,1.0602
5803.00,1.0471
5802.00,1.0339
5801.00,1.0207
5800.00,1.0076
5799.00,0.9943
5798.00,0.9809
5797.00,0.9676
5796.00,0.9544
5795.00,0.9415
5794.00,0.9289
5793.00,0.9166
5792.00,0.9045
5791.00,0.8926
5790.00,0.8810
5789.00,0.8698
5788.00,0.8590
5787.00,0.8487
5786.00,0.8391
5785.00,0.8301
5784.00,0.8216
5783.00,0.8137
5782.00,0.8065
5781.00,0.8001
5780.00,0.7945
5779.00,0.7896
5778.00,0.7855
5777.00,0.7823
5776.00,0.7798
5775.00,0.7782
5774.00,0.7774
5773.00,0.7775
5772.00,0.7785
5771.00,0.7802
5770.00,0.7828
5769.00,0.7863
5768.00,0.7907
5767.00,0.7959
5766.00,0.8019
5765.00,0.8086
5764.00,0.8158
5763.00,0.8236
5762.00,0.8320
5761.00,0.8411
5760.00,0.8507
5759.00,0.8609
5758.00,0.8716
5757.00,0.8827
5756.00,0.8941
5755.00,0.9057
5754.00,0.9176
5753.00,0.9298
5752.00,0.9423
5751.00,0.9550
5750.00,0.9678
5749.00,0.9808
5748.00,0.9938
5747.00,1.0070
5746.00,1.0202
5745.00,1.0333
5744.00,1.0463
5743.00,1.0593
5742.00,1.0722
5741.00,1.0849
5740.00,1.0974
5739.00,1.1098
5738.00,1.1221
5737.00,1.1344
5736.00,1.1464
5735.00,1.1580
5734.00,1.1693
5733.00,1.1802
5732.00,1.1908
5731.00,1.2009
5730.00,1.2109
5729.00,1.2208
5728.00,1.2305
5727.00,1.2398
5726.00,1.2486
5725.00,1.2569
5724.00,1.2648
5723.00,1.2723
5722.00,1.2795
5721.00,1.2862
5720.00,1.2926
5719.00,1.2986
5718.00,1.3042
5717.00,1.3093
5716.00,1.3137
5715.00,1.3178
5714.00,1.3215
5713.00,1.3248
5712.00,1.3276
5711.00,1.3298
5710.00,1.3318
5709.00,1.3338
5708.00,1.3356
5707.00,1.3368
5706.00,1.3371
5705.00,1.3366
5704.00,1.3354
5703.00,1.3338
5702.00,1.3320
5701.00,1.3300
5700.00,1.3278
5699.00,1.3252
5698.00,1.3220
5697.00,1.3181
5696.00,1.3138
5695.00,1.3092
5694.00,1.3045
5693.00,1.2994
5692.00,1.2939
5691.00,1.2879
5690.00,1.2813
5689.00,1.2743
5688.00,1.2670
5687.00,1.2592
5686.00,1.2512
5685.00,1.2428
5684.00,1.2339
5683.00,1.2245
5682.00,1.2146
5681.00,1.2044
5680.00,1.1938
5679.00,1.1827
5678.00,1.1713
5677.00,1.1595
5676.00,1.1475
5675.00,1.1351
5674.00,1.1224
5673.00,1.1095
5672.00,1.0964
5671.00,1.0832
5670.00,1.0698
5669.00,1.0562
5668.00,1.0426
5667.00,1.0289
5666.00,1.0152
5665.00,1.0014
5664.00,0.9874
5663.00,0.9734
5662.00,0.9596
5661.00,0.9462
5660.00,0.9330
5659.00,0.9202
5658.00,0.9076
5657.00,0.8953
5656.00,0.8832
5655.00,0.8714
5654.00,0.8600
5653.00,0.8494
5652.00,0.8393
5651.00,0.8299
5650.00,0.8210
5649.00,0.8128
5648.00,0.8052
5647.00,0.7982
5646.00,0.7921
5645.00,0.7868
5644.00,0.7823
5643.00,0.7787
5642.00,0.7759
5641.00,0.7740
5640.00,0.7729
5639.00,0.7726
5638.00,0.7731
5637.00,0.7745
5636.00,0.7768
5635.00,0.7800
5634.00,0.7841
5633.00,0.7892
5632.00,0.7950
5631.00,0.8015
5630.00,0.8086
5629.00,0.8164
5628.00,0.8248
5627.00,0.8340
5626.00,0.8437
5625.00,0.8540
5624.00,0.8647
5623.00,0.8758
5622.00,0.8873
5621.00,0.8991
5620.00,0.9113
5619.00,0.9238
5618.00,0.9365
5617.00,0.9493
5616.00,0.9623
5615.00,0.9754
5614.00,0.9885
5613.00,1.0018
5612.00,1.0152
5611.00,1.0286
5610.00,1.0421
5609.00,1.0554
5608.00,1.0686
5607.00,1.0815
5606.00,1.0942
5605.00,1.1065
5604.00,1.1186
5603.00,1.1307
5602.00,1.1428
5601.00,1.1548
5600.00,1.1663
5599.00,1.1773
5598.00,1.1878
5597.00,1.1980
5596.00,1.2078
5595.00,1.2173
5594.00,1.2265
5593.00,1.2354
5592.00,1.2438
5591.00,1.2518
5590.00,1.2595
5589.00,1.2667
5588.00,1.2735
5587.00,1.2796
5586.00,1.2853
5585.00,1.2907
5584.00,1.2960
5583.00,1.3009
5582.00,1.3054
5581.00,1.3095
5580.00,1.3132
5579.00,1.3165
5578.00,1.3194
5577.00,1.3218
5576.00,1.3237
5575.00,1.3252
5574.00,1.3263
5573.00,1.3270
5572.00,1.3273
5571.00,1.3274
5570.00,1.3271
5569.00,1.3265
5568.00,1.3252
5567.00,1.3237
5566.00,1.3221
5565.00,1.3205
5564.00,1.3187
5563.00,1.3165
5562.00,1.3136
5561.00,1.3102
5560.00,1.3060
5559.00,1.3011
5558.00,1.2958
5557.00,1.2899
5556.00,1.2838
5555.00,1.2772
5554.00,1.2703
5553.00,1.2629
5552.00,1.2551
5551.00,1.2468
5550.00,1.2382
5549.00,1.2292
5548.00,1.2199
5547.00,1.2101
5546.00,1.1998
5545.00,1.1890
5544.00,1.1778
5543.00,1.1661
5542.00,1.1542
5541.00,1.1420
5540.00,1.1295
5539.00,1.1167
5538.00,1.1035
5537.00,1.0900
5536.00,1.0761
5535.00,1.0620
5534.00,1.0479
5533.00,1.0337
5532.00,1.0196
5531.00,1.0056
5530.00,0.9917
5529.00,0.9778
5528.00,0.9640
5527.00,0.9501
5526.00,0.9363
5525.00,0.9228
5524.00,0.9097
5523.00,0.8968
5522.00,0.8842
5521.00,0.8720
5520.00,0.8602
5519.00,0.8489
5518.00,0.8382
5517.00,0.8281
5516.00,0.8187
5515.00,0.8099
5514.00,0.8018
5513.00,0.7944
5512.00,0.7878
5511.00,0.7822
5510.00,0.7776
5509.00,0.7739
5508.00,0.7711
5507.00,0.7690
5506.00,0.7678
5505.00,0.7675
5504.00,0.7682
5503.00,0.7698
5502.00,0.7725
5501.00,0.7761
5500.00,0.7805
5499.00,0.7858
5498.00,0.7918
5497.00,0.7987
5496.00,0.8062
5495.00,0.8145
5494.00,0.8236
5493.00,0.8334
5492.00,0.8438
5491.00,0.8548
5490.00,0.8662
5489.00,0.8780
5488.00,0.8903
5487.00,0.9030
5486.00,0.9162
5485.00,0.9297
5484.00,0.9434
5483.00,0.9572
5482.00,0.9711
5481.00,0.9850
5480.00,0.9990
5479.00,1.0130
5478.00,1.0270
5477.00,1.0411
5476.00,1.0554
5475.00,1.0698
5474.00,1.0842
5473.00,1.0984
5472.00,1.1123
5471.00,1.1258
5470.00,1.1390
5469.00,1.1521
5468.00,1.1651
5467.00,1.1779
5466.00,1.1904
5465.00,1.2024
5464.00,1.2138
5463.00,1.2249
5462.00,1.2355
5461.00,1.2459
5460.00,1.2560
5459.00,1.2657
5458.00,1.2750
5457.00,1.2839
5456.00,1.2923
5455.00,1.3002
5454.00,1.3078
5453.00,1.3150
5452.00,1.3216
5451.00,1.3278
5450.00,1.3336
5449.00,1.3392
5448.00,1.3444
5447.00,1.3492
5446.00,1.3536
5445.00,1.3576
5444.00,1.3610
5443.00,1.3636
5442.00,1.3657
5441.00,1.3675
5440.00,1.3688
5439.00,1.3697
5438.00,1.3700
5437.00,1.3698
5436.00,1.3691
5435.00,1.3678
5434.00,1.3661
5433.00,1.3641
5432.00,1.3618
5431.00,1.3592
5430.00,1.3561
5429.00,1.3527
5428.00,1.3488
5427.00,1.3443
5426.00,1.3393
5425.00,1.3337
5424.00,1.3276
5423.00,1.3211
5422.00,1.3142
5421.00,1.3071
5420.00,1.2998
5419.00,1.2920
5418.00,1.2836
5417.00,1.2746
5416.00,1.2650
5415.00,1.2549
5414.00,1.2443
5413.00,1.2336
5412.00,1.2224
5411.00,1.2107
5410.00,1.1983
5409.00,1.1855
5408.00,1.1725
5407.00,1.1593
5406.00,1.1459
5405.00,1.1323
5404.00,1.1185
5403.00,1.1044
5402.00,1.0901
5401.00,1.0756
5400.00,1.0611
5399.00,1.0464
5398.00,1.0315
5397.00,1.0164
5396.00,1.0012
5395.00,0.9860
5394.00,0.9709
5393.00,0.9559
5392.00,0.9412
5391.00,0.9267
5390.00,0.9125
5389.00,0.8987
5388.00,0.8852
5387.00,0.8722
5386.00,0.8596
5385.00,0.8475
5384.00,0.8359
5383.00,0.8250
5382.00,0.8147
5381.00,0.8054
5380.00,0.7968
5379.00,0.7891
5378.00,0.7823
5377.00,0.7762
5376.00,0.7711
5375.00,0.7670
5374.00,0.7638
5373.00,0.7615
5372.00,0.7602
5371.00,0.7598
5370.00,0.7605
5369.00,0.7622
5368.00,0.7649
5367.00,0.7686
5366.00,0.7733
5365.00,0.7789
5364.00,0.7855
5363.00,0.7929
5362.00,0.8012
5361.00,0.8103
5360.00,0.8202
5359.00,0.8306
5358.00,0.8415
5357.00,0.8529
5356.00,0.8648
5355.00,0.8773
5354.00,0.8903
5353.00,0.9038
5352.00,0.9178
5351.00,0.9320
5350.00,0.9462
5349.00,0.9604
5348.00,0.9744
5347.00,0.9885
5346.00,1.0028
5345.00,1.0174
5344.00,1.0324
5343.00,1.0475
5342.00,1.0626
5341.00,1.0773
5340.00,1.0917
5339.00,1.1059
5338.00,1.1201
5337.00,1.1344
5336.00,1.1484
5335.00,1.1620
5334.00,1.1752
5333.00,1.1879
5332.00,1.2002
5331.00,1.2121
5330.00,1.2236
5329.00,1.2347
5328.00,1.2457
5327.00,1.2564
5326.00,1.2668
5325.00,1.2769
5324.00,1.2865
5323.00,1.2958
5322.00,1.3047
5321.00,1.3133
5320.00,1.3213
5319.00,1.3287
5318.00,1.3355
5317.00,1.3417
5316.00,1.3475
5315.00,1.3531
5314.00,1.3584
5313.00,1.3634
5312.00,1.3680
5311.00,1.3722
5310.00,1.3760
5309.00,1.3791
5308.00,1.3815
5307.00,1.3833
5306.00,1.3845
5305.00,1.3854
5304.00,1.3858
5303.00,1.3860
5302.00,1.3858
5301.00,1.3853
5300.00,1.3842
5299.00,1.3826
5298.00,1.3805
5297.00,1.3781
5296.00,1.3754
5295.00,1.3721
5294.00,1.3684
5293.00,1.3642
5292.00,1.3595
5291.00,1.3543
5290.00,1.3486
5289.00,1.3423
5288.00,1.3356
5287.00,1.3284
5286.00,1.3208
5285.00,1.3127
5284.00,1.3043
5283.00,1.2954
5282.00,1.2860
5281.00,1.2761
5280.00,1.2656
5279.00,1.2548
5278.00,1.2438
5277.00,1.2323
5276.00,1.2204
5275.00,1.2080
5274.00,1.1951
5273.00,1.1817
5272.00,1.1680
5271.00,1.1538
5270.00,1.1394
5269.00,1.1247
5268.00,1.1099
5267.00,1.0951
5266.00,1.0802
5265.00,1.0651
5264.00,1.0496
5263.00,1.0340
5262.00,1.0182
5261.00,1.0025
5260.00,0.9871
5259.00,0.9719
5258.00,0.9571
5257.00,0.9424
5256.00,0.9278
5255.00,0.9134
5254.00,0.8994
5253.00,0.8859
5252.00,0.8730
5251.00,0.8609
5250.00,0.8493
5249.00,0.8384
5248.00,0.8281
5247.00,0.8186
5246.00,0.8098
5245.00,0.8018
5244.00,0.7947
5243.00,0.7886
5242.00,0.7835
5241.00,0.7794
5240.00,0.7762
5239.00,0.7741
5238.00,0.7731
5237.00,0.7732
5236.00,0.7744
5235.00,0.7767
5234.00,0.7800
5233.00,0.7842
5232.00,0.7893
5231.00,0.7953
5230.00,0.8023
5229.00,0.8102
5228.00,0.8189
5227.00,0.8283
5226.00,0.8386
5225.00,0.8495
5224.00,0.8612
5223.00,0.8734
5222.00,0.8860
5221.00,0.8991
5220.00,0.9125
5219.00,0.9264
5218.00,0.9406
5217.00,0.9552
5216.00,0.9701
5215.00,0.9852
5214.00,1.0004
5213.00,1.0156
5212.00,1.0309
5211.00,1.0461
5210.00,1.0612
5209.00,1.0762
5208.00,1.0911
5207.00,1.1062
5206.00,1.1213
5205.00,1.1366
5204.00,1.1516
5203.00,1.1662
5202.00,1.1803
5201.00,1.1939
5200.00,1.2072
5199.00,1.2203
5198.00,1.2334
5197.00,1.2464
5196.00,1.2590
5195.00,1.2710
5194.00,1.2824
5193.00,1.2933
5192.00,1.3036
5191.00,1.3134
5190.00,1.3229
5189.00,1.3323
5188.00,1.3414
5187.00,1.3500
5186.00,1.3580
5185.00,1.3653
5184.00,1.3719
5183.00,1.3780
5182.00,1.3837
5181.00,1.3891
5180.00,1.3940
5179.00,1.3984
5178.00,1.4022
5177.00,1.4056
5176.00,1.4087
5175.00,1.4115
5174.00,1.4138
5173.00,1.4156
5172.00,1.4168
5171.00,1.4174
5170.00,1.4176
5169.00,1.4174
5168.00,1.4168
5167.00,1.4160
5166.00,1.4148
5165.00,1.4131
5164.00,1.4108
5163.00,1.4079
5162.00,1.4047
5161.00,1.4010
5160.00,1.3968
5159.00,1.3922
5158.00,1.3872
5157.00,1.3818
5156.00,1.3759
5155.00,1.3695
5154.00,1.3625
5153.00,1.3549
5152.00,1.3467
5151.00,1.3378
5150.00,1.3285
5149.00,1.3190
5148.00,1.3092
5147.00,1.2991
5146.00,1.2886
5145.00,1.2775
5144.00,1.2658
5143.00,1.2535
5142.00,1.2409
5141.00,1.2278
5140.00,1.2144
5139.00,1.2005
5138.00,1.1863
5137.00,1.1718
5136.00,1.1571
5135.00,1.1420
5134.00,1.1264
5133.00,1.1105
5132.00,1.0942
5131.00,1.0777
5130.00,1.0613
5129.00,1.0449
5128.00,1.0286
5127.00,1.0123
5126.00,0.9960
5125.00,0.9797
5124.00,0.9636
5123.00,0.9476
5122.00,0.9321
5121.00,0.9169
5120.00,0.9021
5119.00,0.8876
5118.00,0.8737
5117.00,0.8604
5116.00,0.8477
5115.00,0.8357
5114.00,0.8245
5113.00,0.8140
5112.00,0.8043
5111.00,0.7955
5110.00,0.7878
5109.00,0.7811
5108.00,0.7755
5107.00,0.7709
5106.00,0.7674
5105.00,0.7650
5104.00,0.7637
5103.00,0.7635
5102.00,0.7645
5101.00,0.7666
5100.00,0.7698
5099.00,0.7741
5098.00,0.7795
5097.00,0.7860
5096.00,0.7935
5095.00,0.8019
5094.00,0.8112
5093.00,0.8214
5092.00,0.8323
5091.00,0.8440
5090.00,0.8563
5089.00,0.8693
5088.00,0.8827
5087.00,0.8967
5086.00,0.9110
5085.00,0.9257
5084.00,0.9408
5083.00,0.9561
5082.00,0.9717
5081.00,0.9875
5080.00,1.0034
5079.00,1.0193
5078.00,1.0351
5077.00,1.0510
5076.00,1.0669
5075.00,1.0829
5074.00,1.0989
5073.00,1.1147
5072.00,1.1304
5071.00,1.1459
5070.00,1.1613
5069.00,1.1766
5068.00,1.1917
5067.00,1.2064
5066.00,1.2206
5065.00,1.2344
5064.00,1.2477
5063.00,1.2606
5062.00,1.2734
5061.00,1.2858
5060.00,1.2978
5059.00,1.3093
5058.00,1.3202
5057.00,1.3307
5056.00,1.3408
5055.00,1.3503
5054.00,1.3594
5053.00,1.3679
5052.00,1.3760
5051.00,1.3834
5050.00,1.3902
5049.00,1.3967
5048.00,1.4028
5047.00,1.4086
5046.00,1.4140
5045.00,1.4189
5044.00,1.4232
5043.00,1.4268
5042.00,1.4297
5041.00,1.4323
5040.00,1.4349
5039.00,1.4374
5038.00,1.4397
5037.00,1.4413
5036.00,1.4423
5035.00,1.4424
5034.00,1.4417
5033.00,1.4406
5032.00,1.4393
5031.00,1.4377
5030.00,1.4357
5029.00,1.4332
5028.00,1.4301
5027.00,1.4265
5026.00,1.4224
5025.00,1.4178
5024.00,1.4128
5023.00,1.4073
5022.00,1.4013
5021.00,1.3949
5020.00,1.3880
5019.00,1.3805
5018.00,1.3725
5017.00,1.3638
5016.00,1.3547
5015.00,1.3451
5014.00,1.3350
5013.00,1.3244
5012.00,1.3133
5011.00,1.3017
5010.00,1.2896
5009.00,1.2770
5008.00,1.2640
5007.00,1.2506
5006.00,1.2368
5005.00,1.2226
5004.00,1.2079
5003.00,1.1928
5002.00,1.1773
5001.00,1.1613
5000.00,1.1450
4999.00,1.1286
4998.00,1.1120
4997.00,1.0953
4996.00,1.0784
4995.00,1.0612
4994.00,1.0439
4993.00,1.0265
4992.00,1.0092
4991.00,0.9921
4990.00,0.9752
4989.00,0.9585
4988.00,0.9421
4987.00,0.9260
4986.00,0.9102
4985.00,0.8949
4984.00,0.8801
4983.00,0.8660
4982.00,0.8525
4981.00,0.8398
4980.00,0.8280
4979.00,0.8170
4978.00,0.8070
4977.00,0.7979
4976.00,0.7898
4975.00,0.7827
4974.00,0.7768
4973.00,0.7720
4972.00,0.7685
4971.00,0.7662
4970.00,0.7652
4969.00,0.7654
4968.00,0.7668
4967.00,0.7695
4966.00,0.7733
4965.00,0.7783
4964.00,0.7845
4963.00,0.7918
4962.00,0.8002
4961.00,0.8096
4960.00,0.8199
4959.00,0.8311
4958.00,0.8430
4957.00,0.8557
4956.00,0.8690
4955.00,0.8830
4954.00,0.8976
4953.00,0.9127
4952.00,0.9283
4951.00,0.9442
4950.00,0.9605
4949.00,0.9771
4948.00,0.9938
4947.00,1.0107
4946.00,1.0275
4945.00,1.0445
4944.00,1.0614
4943.00,1.0784
4942.00,1.0954
4941.00,1.1123
4940.00,1.1292
4939.00,1.1459
4938.00,1.1625
4937.00,1.1790
4936.00,1.1952
4935.00,1.2110
4934.00,1.2264
4933.00,1.2413
4932.00,1.2558
4931.00,1.2698
4930.00,1.2835
4929.00,1.2968
4928.00,1.3099
4927.00,1.3227
4926.00,1.3352
4925.00,1.3470
4924.00,1.3582
4923.00,1.3688
4922.00,1.3788
4921.00,1.3882
4920.00,1.3968
4919.00,1.4046
4918.00,1.4118
4917.00,1.4187
4916.00,1.4254
4915.00,1.4321
4914.00,1.4388
4913.00,1.4449
4912.00,1.4501
4911.00,1.4544
4910.00,1.4580
4909.00,1.4610
4908.00,1.4638
4907.00,1.4663
4906.00,1.4684
4905.00,1.4701
4904.00,1.4712
4903.00,1.4718
4902.00,1.4719
4901.00,1.4716
4900.00,1.4707
4899.00,1.4694
4898.00,1.4676
4897.00,1.4654
4896.00,1.4628
4895.00,1.4598
4894.00,1.4564
4893.00,1.4524
4892.00,1.4481
4891.00,1.4436
4890.00,1.4386
4889.00,1.4331
4888.00,1.4269
4887.00,1.4199
4886.00,1.4124
4885.00,1.4043
4884.00,1.3958
4883.00,1.3867
4882.00,1.3772
4881.00,1.3669
4880.00,1.3562
4879.00,1.3450
4878.00,1.3336
4877.00,1.3218
4876.00,1.3096
4875.00,1.2968
4874.00,1.2832
4873.00,1.2688
4872.00,1.2538
4871.00,1.2384
4870.00,1.2227
4869.00,1.2068
4868.00,1.1906
4867.00,1.1740
4866.00,1.1571
4865.00,1.1399
4864.00,1.1223
4863.00,1.1044
4862.00,1.0864
4861.00,1.0683
4860.00,1.0501
4859.00,1.0319
4858.00,1.0136
4857.00,0.9954
4856.00,0.9774
4855.00,0.9596
4854.00,0.9422
4853.00,0.9252
4852.00,0.9086
4851.00,0.8924
4850.00,0.8769
4849.00,0.8621
4848.00,0.8481
4847.00,0.8348
4846.00,0.8224
4845.00,0.8108
4844.00,0.8003
4843.00,0.7908
4842.00,0.7826
4841.00,0.7755
4840.00,0.7698
4839.00,0.7653
4838.00,0.7620
4837.00,0.7601
4836.00,0.7595
4835.00,0.7602
4834.00,0.7622
4833.00,0.7657
4832.00,0.7704
4831.00,0.7763
4830.00,0.7835
4829.00,0.7918
4828.00,0.8011
4827.00,0.8116
4826.00,0.8229
4825.00,0.8352
4824.00,0.8484
4823.00,0.8623
4822.00,0.8768
4821.00,0.8919
4820.00,0.9074
4819.00,0.9234
4818.00,0.9400
4817.00,0.9569
4816.00,0.9743
4815.00,0.9920
4814.00,1.0097
4813.00,1.0275
4812.00,1.0453
4811.00,1.0632
4810.00,1.0810
4809.00,1.0989
4808.00,1.1168
4807.00,1.1346
4806.00,1.1523
4805.00,1.1698
4804.00,1.1871
4803.00,1.2042
4802.00,1.2209
4801.00,1.2372
4800.00,1.2531
4799.00,1.2686
4798.00,1.2838
4797.00,1.2985
4796.00,1.3128
4795.00,1.3267
4794.00,1.3400
4793.00,1.3526
4792.00,1.3647
4791.00,1.3762
4790.00,1.3872
4789.00,1.3978
4788.00,1.4078
4787.00,1.4172
4786.00,1.4261
4785.00,1.4346
4784.00,1.4429
4783.00,1.4509
4782.00,1.4585
4781.00,1.4653
4780.00,1.4712
4779.00,1.4763
4778.00,1.4808
4777.00,1.4850
4776.00,1.4891
4775.00,1.4931
4774.00,1.4966
4773.00,1.4994
4772.00,1.5014
4771.00,1.5027
4770.00,1.5034
4769.00,1.5039
4768.00,1.5040
4767.00,1.5038
4766.00,1.5034
4765.00,1.5025
4764.00,1.5009
4763.00,1.4985
4762.00,1.4955
4761.00,1.4920
4760.00,1.4883
4759.00,1.4843
4758.00,1.4800
4757.00,1.4752
4756.00,1.4699
4755.00,1.4640
4754.00,1.4574
4753.00,1.4502
4752.00,1.4424
4751.00,1.4341
4750.00,1.4254
4749.00,1.4163
4748.00,1.4067
4747.00,1.3965
4746.00,1.3857
4745.00,1.3742
4744.00,1.3622
4743.00,1.3496
4742.00,1.3366
4741.00,1.3231
4740.00,1.3091
4739.00,1.2947
4738.00,1.2798
4737.00,1.2644
4736.00,1.2484
4735.00,1.2318
4734.00,1.2147
4733.00,1.1971
4732.00,1.1792
4731.00,1.1610
4730.00,1.1426
4729.00,1.1239
4728.00,1.1051
4727.00,1.0861
4726.00,1.0671
4725.00,1.0482
4724.00,1.0293
4723.00,1.0105
4722.00,0.9919
4721.00,0.9736
4720.00,0.9555
4719.00,0.9379
4718.00,0.9208
4717.00,0.9043
4716.00,0.8884
4715.00,0.8732
4714.00,0.8589
4713.00,0.8454
4712.00,0.8329
4711.00,0.8214
4710.00,0.8110
4709.00,0.8019
4708.00,0.7941
4707.00,0.7876
4706.00,0.7825
4705.00,0.7788
4704.00,0.7765
4703.00,0.7755
4702.00,0.7760
4701.00,0.7780
4700.00,0.7813
4699.00,0.7861
4698.00,0.7924
4697.00,0.7999
4696.00,0.8088
4695.00,0.8189
4694.00,0.8301
4693.00,0.8423
4692.00,0.8555
4691.00,0.8695
4690.00,0.8842
4689.00,0.8997
4688.00,0.9157
4687.00,0.9323
4686.00,0.9493
4685.00,0.9667
4684.00,0.9845
4683.00,1.0025
4682.00,1.0207
4681.00,1.0390
4680.00,1.0573
4679.00,1.0756
4678.00,1.0940
4677.00,1.1124
4676.00,1.1307
4675.00,1.1488
4674.00,1.1669
4673.00,1.1848
4672.00,1.2024
4671.00,1.2199
4670.00,1.2370
4669.00,1.2536
4668.00,1.2698
4667.00,1.2855
4666.00,1.3009
4665.00,1.3158
4664.00,1.3305
4663.00,1.3448
4662.00,1.3587
4661.00,1.3721
4660.00,1.3848
4659.00,1.3971
4658.00,1.4089
4657.00,1.4203
4656.00,1.4313
4655.00,1.4418
4654.00,1.4516
4653.00,1.4608
4652.00,1.4694
4651.00,1.4772
4650.00,1.4846
4649.00,1.4914
4648.00,1.4978
4647.00,1.5038
4646.00,1.5095
4645.00,1.5150
4644.00,1.5200
4643.00,1.5244
4642.00,1.5281
4641.00,1.5312
4640.00,1.5337
4639.00,1.5358
4638.00,1.5374
4637.00,1.5385
4636.00,1.5392
4635.00,1.5394
4634.00,1.5393
4633.00,1.5387
4632.00,1.5377
4631.00,1.5363
4630.00,1.5346
4629.00,1.5326
4628.00,1.5304
4627.00,1.5277
4626.00,1.5243
4625.00,1.5199
4624.00,1.5146
4623.00,1.5085
4622.00,1.5020
4621.00,1.4953
4620.00,1.4882
4619.00,1.4808
4618.00,1.4729
4617.00,1.4645
4616.00,1.4556
4615.00,1.4463
4614.00,1.4363
4613.00,1.4256
4612.00,1.4143
4611.00,1.4025
4610.00,1.3903
4609.00,1.3776
4608.00,1.3644
4607.00,1.3505
4606.00,1.3359
4605.00,1.3207
4604.00,1.3048
4603.00,1.2883
4602.00,1.2714
4601.00,1.2541
4600.00,1.2365
4599.00,1.2185
4598.00,1.2001
4597.00,1.1812
4596.00,1.1620
4595.00,1.1424
4594.00,1.1225
4593.00,1.1025
4592.00,1.0823
4591.00,1.0622
4590.00,1.0422
4589.00,1.0223
4588.00,1.0025
4587.00,0.9829
4586.00,0.9637
4585.00,0.9450
4584.00,0.9267
4583.00,0.9091
4582.00,0.8922
4581.00,0.8760
4580.00,0.8607
4579.00,0.8464
4578.00,0.8331
4577.00,0.8210
4576.00,0.8101
4575.00,0.8003
4574.00,0.7920
4573.00,0.7850
4572.00,0.7795
4571.00,0.7755
4570.00,0.7731
4569.00,0.7722
4568.00,0.7728
4567.00,0.7750
4566.00,0.7787
4565.00,0.7839
4564.00,0.7905
4563.00,0.7985
4562.00,0.8079
4561.00,0.8185
4560.00,0.8303
4559.00,0.8432
4558.00,0.8571
4557.00,0.8719
4556.00,0.8876
4555.00,0.9040
4554.00,0.9212
4553.00,0.9389
4552.00,0.9570
4551.00,0.9756
4550.00,0.9946
4549.00,1.0140
4548.00,1.0336
4547.00,1.0533
4546.00,1.0730
4545.00,1.0926
4544.00,1.1122
4543.00,1.1319
4542.00,1.1516
4541.00,1.1713
4540.00,1.1909
4539.00,1.2102
4538.00,1.2293
4537.00,1.2481
4536.00,1.2663
4535.00,1.2841
4534.00,1.3015
4533.00,1.3185
4532.00,1.3350
4531.00,1.3511
4530.00,1.3666
4529.00,1.3815
4528.00,1.3958
4527.00,1.4096
4526.00,1.4229
4525.00,1.4358
4524.00,1.4480
4523.00,1.4595
4522.00,1.4703
4521.00,1.4806
4520.00,1.4903
4519.00,1.4995
4518.00,1.5081
4517.00,1.5162
4516.00,1.5237
4515.00,1.5306
4514.00,1.5372
4513.00,1.5433
4512.00,1.5491
4511.00,1.5543
4510.00,1.5591
4509.00,1.5633
4508.00,1.5670
4507.00,1.5701
4506.00,1.5726
4505.00,1.5747
4504.00,1.5764
4503.00,1.5778
4502.00,1.5787
4501.00,1.5791
4500.00,1.5789
4499.00,1.5781
4498.00,1.5766
4497.00,1.5747
4496.00,1.5724
4495.00,1.5698
4494.00,1.5666
4493.00,1.5628
4492.00,1.5582
4491.00,1.5531
4490.00,1.5479
4489.00,1.5425
4488.00,1.5369
4487.00,1.5305
4486.00,1.5232
4485.00,1.5150
4484.00,1.5062
4483.00,1.4969
4482.00,1.4874
4481.00,1.4774
4480.00,1.4668
4479.00,1.4556
4478.00,1.4438
4477.00,1.4315
4476.00,1.4185
4475.00,1.4050
4474.00,1.3907
4473.00,1.3760
4472.00,1.3607
4471.00,1.3448
4470.00,1.3283
4469.00,1.3112
4468.00,1.2933
4467.00,1.2750
4466.00,1.2561
4465.00,1.2368
4464.00,1.2170
4463.00,1.1968
4462.00,1.1763
4461.00,1.1554
4460.00,1.1344
4459.00,1.1133
4458.00,1.0923
4457.00,1.0714
4456.00,1.0505
4455.00,1.0298
4454.00,1.0093
4453.00,0.9891
4452.00,0.9694
4451.00,0.9502
4450.00,0.9317
4449.00,0.9139
4448.00,0.8969
4447.00,0.8809
4446.00,0.8659
4445.00,0.8521
4444.00,0.8395
4443.00,0.8284
4442.00,0.8186
4441.00,0.8103
4440.00,0.8036
4439.00,0.7985
4438.00,0.7950
4437.00,0.7931
4436.00,0.7929
4435.00,0.7945
4434.00,0.7977
4433.00,0.8025
4432.00,0.8090
4431.00,0.8170
4430.00,0.8265
4429.00,0.8375
4428.00,0.8498
4427.00,0.8633
4426.00,0.8779
4425.00,0.8934
4424.00,0.9097
4423.00,0.9268
4422.00,0.9447
4421.00,0.9632
4420.00,0.9823
4419.00,1.0020
4418.00,1.0221
4417.00,1.0425
4416.00,1.0631
4415.00,1.0838
4414.00,1.1046
4413.00,1.1255
4412.00,1.1464
4411.00,1.1673
4410.00,1.1882
4409.00,1.2088
4408.00,1.2292
4407.00,1.2492
4406.00,1.2690
4405.00,1.2885
4404.00,1.3077
4403.00,1.3265
4402.00,1.3447
4401.00,1.3622
4400.00,1.3791
4399.00,1.3955
4398.00,1.4114
4397.00,1.4270
4396.00,1.4419
4395.00,1.4562
4394.00,1.4698
4393.00,1.4828
4392.00,1.4953
4391.00,1.5070
4390.00,1.5181
4389.00,1.5286
4388.00,1.5385
4387.00,1.5479
4386.00,1.5567
4385.00,1.5650
4384.00,1.5728
4383.00,1.5800
4382.00,1.5868
4381.00,1.5929
4380.00,1.5985
4379.00,1.6038
4378.00,1.6088
4377.00,1.6135
4376.00,1.6177
4375.00,1.6213
4374.00,1.6242
4373.00,1.6265
4372.00,1.6285
4371.00,1.6302
4370.00,1.6316
4369.00,1.6326
4368.00,1.6329
4367.00,1.6326
4366.00,1.6317
4365.00,1.6304
4364.00,1.6288
4363.00,1.6267
4362.00,1.6241
4361.00,1.6210
4360.00,1.6173
4359.00,1.6132
4358.00,1.6087
4357.00,1.6037
4356.00,1.5983
4355.00,1.5925
4354.00,1.5864
4353.00,1.5799
4352.00,1.5728
4351.00,1.5652
4350.00,1.5569
4349.00,1.5480
4348.00,1.5385
4347.00,1.5285
4346.00,1.5180
4345.00,1.5069
4344.00,1.4954
4343.00,1.4833
4342.00,1.4706
4341.00,1.4573
4340.00,1.4432
4339.00,1.4284
4338.00,1.4129
4337.00,1.3967
4336.00,1.3799
4335.00,1.3626
4334.00,1.3447
4333.00,1.3263
4332.00,1.3072
4331.00,1.2876
4330.00,1.2676
4329.00,1.2473
4328.00,1.2267
4327.00,1.2059
4326.00,1.1848
4325.00,1.1635
4324.00,1.1422
4323.00,1.1209
4322.00,1.0999
4321.00,1.0793
4320.00,1.0590
4319.00,1.0390
4318.00,1.0196
4317.00,1.0008
4316.00,0.9826
4315.00,0.9653
4314.00,0.9487
4313.00,0.9330
4312.00,0.9183
4311.00,0.9047
4310.00,0.8924
4309.00,0.8813
4308.00,0.8717
4307.00,0.8634
4306.00,0.8566
4305.00,0.8513
4304.00,0.8476
4303.00,0.8455
4302.00,0.8451
4301.00,0.8465
4300.00,0.8496
4299.00,0.8544
4298.00,0.8608
4297.00,0.8688
4296.00,0.8783
4295.00,0.8893
4294.00,0.9015
4293.00,0.9150
4292.00,0.9295
4291.00,0.9450
4290.00,0.9614
4289.00,0.9785
4288.00,0.9964
4287.00,1.0147
4286.00,1.0335
4285.00,1.0525
4284.00,1.0717
4283.00,1.0912
4282.00,1.1108
4281.00,1.1306
4280.00,1.1504
4279.00,1.1701
4278.00,1.1898
4277.00,1.2094
4276.00,1.2290
4275.00,1.2485
4274.00,1.2679
4273.00,1.2870
4272.00,1.3058
4271.00,1.3241
4270.00,1.3422
4269.00,1.3601
4268.00,1.3778
4267.00,1.3953
4266.00,1.4122
4265.00,1.4284
4264.00,1.4440
4263.00,1.4590
4262.00,1.4735
4261.00,1.4877
4260.00,1.5013
4259.00,1.5144
4258.00,1.5270
4257.00,1.5390
4256.00,1.5503
4255.00,1.5610
4254.00,1.5710
4253.00,1.5805
4252.00,1.5897
4251.00,1.5988
4250.00,1.6076
4249.00,1.6159
4248.00,1.6234
4247.00,1.6300
4246.00,1.6358
4245.00,1.6412
4244.00,1.6462
4243.00,1.6510
4242.00,1.6555
4241.00,1.6595
4240.00,1.6629
4239.00,1.6656
4238.00,1.6676
4237.00,1.6691
4236.00,1.6705
4235.00,1.6715
4234.00,1.6722
4233.00,1.6723
4232.00,1.6718
4231.00,1.6710
4230.00,1.6699
4229.00,1.6685
4228.00,1.6664
4227.00,1.6636
4226.00,1.6600
4225.00,1.6559
4224.00,1.6513
4223.00,1.6464
4222.00,1.6410
4221.00,1.6351
4220.00,1.6286
4219.00,1.6216
4218.00,1.6145
4217.00,1.6072
4216.00,1.5994
4215.00,1.5908
4214.00,1.5813
4213.00,1.5708
4212.00,1.5598
4211.00,1.5484
4210.00,1.5364
4209.00,1.5238
4208.00,1.5105
4207.00,1.4965
4206.00,1.4819
4205.00,1.4667
4204.00,1.4507
4203.00,1.4341
4202.00,1.4169
4201.00,1.3991
4200.00,1.3807
4199.00,1.3617
4198.00,1.3422
4197.00,1.3224
4196.00,1.3020
4195.00,1.2813
4194.00,1.2601
4193.00,1.2386
4192.00,1.2168
4191.00,1.1949
4190.00,1.1730
4189.00,1.1510
4188.00,1.1291
4187.00,1.1074
4186.00,1.0859
4185.00,1.0648
4184.00,1.0440
4183.00,1.0239
4182.00,1.0044
4181.00,0.9857
4180.00,0.9678
4179.00,0.9509
4178.00,0.9351
4177.00,0.9205
4176.00,0.9072
4175.00,0.8954
4174.00,0.8851
4173.00,0.8763
4172.00,0.8692
4171.00,0.8637
4170.00,0.8599
4169.00,0.8579
4168.00,0.8577
4167.00,0.8593
4166.00,0.8626
4165.00,0.8677
4164.00,0.8745
4163.00,0.8828
4162.00,0.8928
4161.00,0.9043
4160.00,0.9172
4159.00,0.9314
4158.00,0.9467
4157.00,0.9630
4156.00,0.9802
4155.00,0.9981
4154.00,1.0168
4153.00,1.0362
4152.00,1.0561
4151.00,1.0765
4150.00,1.0973
4149.00,1.1184
4148.00,1.1397
4147.00,1.1612
4146.00,1.1828
4145.00,1.2045
4144.00,1.2261
4143.00,1.2477
4142.00,1.2693
4141.00,1.2906
4140.00,1.3116
4139.00,1.3323
4138.00,1.3527
4137.00,1.3726
4136.00,1.3922
4135.00,1.4114
4134.00,1.4301
4133.00,1.4481
4132.00,1.4654
4131.00,1.4820
4130.00,1.4981
4129.00,1.5137
4128.00,1.5288
4127.00,1.5432
4126.00,1.5569
4125.00,1.5698
4124.00,1.5821
4123.00,1.5941
4122.00,1.6055
4121.00,1.6164
4120.00,1.6266
4119.00,1.6361
4118.00,1.6448
4117.00,1.6529
4116.00,1.6606
4115.00,1.6681
4114.00,1.6752
4113.00,1.6820
4112.00,1.6881
4111.00,1.6934
4110.00,1.6981
4109.00,1.7023
4108.00,1.7059
4107.00,1.7091
4106.00,1.7117
4105.00,1.7137
4104.00,1.7154
4103.00,1.7167
4102.00,1.7178
4101.00,1.7184
4100.00,1.7185
4099.00,1.7180
4098.00,1.7169
4097.00,1.7153
4096.00,1.7135
4095.00,1.7113
4094.00,1.7085
4093.00,1.7048
4092.00,1.7002
4091.00,1.6951
4090.00,1.6897
4089.00,1.6842
4088.00,1.6786
4087.00,1.6726
4086.00,1.6659
4085.00,1.6585
4084.00,1.6504
4083.00,1.6416
4082.00,1.6323
4081.00,1.6223
4080.00,1.6115
4079.00,1.6000
4078.00,1.5879
4077.00,1.5752
4076.00,1.5619
4075.00,1.5481
4074.00,1.5337
4073.00,1.5187
4072.00,1.5030
4071.00,1.4867
4070.00,1.4697
4069.00,1.4521
4068.00,1.4339
4067.00,1.4151
4066.00,1.3957
4065.00,1.3756
4064.00,1.3548
4063.00,1.3336
4062.00,1.3118
4061.00,1.2896
4060.00,1.2672
4059.00,1.2445
4058.00,1.2216
4057.00,1.1986
4056.00,1.1756
4055.00,1.1525
4054.00,1.1295
4053.00,1.1066
4052.00,1.0840
4051.00,1.0619
4050.00,1.0404
4049.00,1.0196
4048.00,0.9996
4047.00,0.9805
4046.00,0.9624
4045.00,0.9454
4044.00,0.9296
4043.00,0.9151
4042.00,0.9022
4041.00,0.8908
4040.00,0.8810
4039.00,0.8729
4038.00,0.8665
4037.00,0.8618
4036.00,0.8592
4035.00,0.8585
4034.00,0.8598
4033.00,0.8632
4032.00,0.8685
4031.00,0.8757
4030.00,0.8849
4029.00,0.8959
4028.00,0.9086
4027.00,0.9229
4026.00,0.9387
4025.00,0.9558
4024.00,0.9740
4023.00,0.9932
4022.00,1.0133
4021.00,1.0341
4020.00,1.0555
4019.00,1.0775
4018.00,1.0999
4017.00,1.1227
4016.00,1.1458
4015.00,1.1690
4014.00,1.1924
4013.00,1.2158
4012.00,1.2391
4011.00,1.2622
4010.00,1.2853
4009.00,1.3081
4008.00,1.3307
4007.00,1.3530
4006.00,1.3748
4005.00,1.3962
4004.00,1.4170
4003.00,1.4372
4002.00,1.4568
4001.00,1.4759
4000.00,1.4946
3999.00,1.5128
3998.00,1.5304
3997.00,1.5473
3996.00,1.5635
3995.00,1.5790
3994.00,1.5939
3993.00,1.6081
3992.00,1.6216
3991.00,1.6347
3990.00,1.6472
3989.00,1.6590
3988.00,1.6699
3987.00,1.6800
3986.00,1.6894
3985.00,1.6982
3984.00,1.7067
3983.00,1.7149
3982.00,1.7227
3981.00,1.7302
3980.00,1.7371
3979.00,1.7434
3978.00,1.7489
3977.00,1.7537
3976.00,1.7578
3975.00,1.7613
3974.00,1.7644
3973.00,1.7672
3972.00,1.7697
3971.00,1.7717
3970.00,1.7732
3969.00,1.7741
3968.00,1.7744
3967.00,1.7743
3966.00,1.7738
3965.00,1.7730
3964.00,1.7717
3963.00,1.7699
3962.00,1.7675
3961.00,1.7646
3960.00,1.7610
3959.00,1.7571
3958.00,1.7527
3957.00,1.7479
3956.00,1.7428
3955.00,1.7372
3954.00,1.7313
3953.00,1.7248
3952.00,1.7177
3951.00,1.7099
3950.00,1.7014
3949.00,1.6922
3948.00,1.6827
3947.00,1.6726
3946.00,1.6618
3945.00,1.6502
3944.00,1.6375
3943.00,1.6240
3942.00,1.6100
3941.00,1.5956
3940.00,1.5809
3939.00,1.5658
3938.00,1.5498
3937.00,1.5330
3936.00,1.5155
3935.00,1.4972
3934.00,1.4780
3933.00,1.4576
3932.00,1.4360
3931.00,1.4136
3930.00,1.3907
3929.00,1.3676
3928.00,1.3443
3927.00,1.3208
3926.00,1.2965
3925.00,1.2713
3924.00,1.2454
3923.00,1.2192
3922.00,1.1931
3921.00,1.1670
3920.00,1.1408
3919.00,1.1144
3918.00,1.0878
3917.00,1.0614
3916.00,1.0355
3915.00,1.0107
3914.00,0.9875
3913.00,0.9662
3912.00,0.9465
3911.00,0.9285
3910.00,0.9120
3909.00,0.8972
3908.00,0.8842
3907.00,0.8732
3906.00,0.8641
3905.00,0.8569
3904.00,0.8516
3903.00,0.8480
3902.00,0.8466
3901.00,0.8475
3900.00,0.8510
3899.00,0.8573
3898.00,0.8663
3897.00,0.8779
3896.00,0.8917
3895.00,0.9073
3894.00,0.9246
3893.00,0.9437
3892.00,0.9647
3891.00,0.9872
3890.00,1.0103
3889.00,1.0330
3888.00,1.0551
3887.00,1.0774
3886.00,1.1014
3885.00,1.1275
3884.00,1.1542
3883.00,1.1803
3882.00,1.2057
3881.00,1.2314
3880.00,1.2581
3879.00,1.2853
3878.00,1.3118
3877.00,1.3367
3876.00,1.3602
3875.00,1.3834
3874.00,1.4069
3873.00,1.4303
3872.00,1.4529
3871.00,1.4750
3870.00,1.4971
3869.00,1.5190
3868.00,1.5400
3867.00,1.5591
3866.00,1.5766
3865.00,1.5932
3864.00,1.6098
3863.00,1.6266
3862.00,1.6431
3861.00,1.6585
3860.00,1.6726
3859.00,1.6853
3858.00,1.6966
3857.00,1.7071
3856.00,1.7171
3855.00,1.7266
3854.00,1.7358
3853.00,1.7443
3852.00,1.7520
3851.00,1.7595
3850.00,1.7675
3849.00,1.7756
3848.00,1.7833
3847.00,1.7908
3846.00,1.7976
3845.00,1.8034
3844.00,1.8080
3843.00,1.8115
3842.00,1.8145
3841.00,1.8171
3840.00,1.8194
3839.00,1.8214
3838.00,1.8227
3837.00,1.8233
3836.00,1.8231
3835.00,1.8221
3834.00,1.8200
3833.00,1.8170
3832.00,1.8138
3831.00,1.8108
3830.00,1.8078
3829.00,1.8046
3828.00,1.8005
3827.00,1.7955
3826.00,1.7899
3825.00,1.7843
3824.00,1.7787
3823.00,1.7725
3822.00,1.7647
3821.00,1.7550
3820.00,1.7445
3819.00,1.7345
3818.00,1.7253
3817.00,1.7158
3816.00,1.7047
3815.00,1.6926
3814.00,1.6806
3813.00,1.6687
3812.00,1.6565
3811.00,1.6439
3810.00,1.6310
3809.00,1.6175
3808.00,1.6025
3807.00,1.5854
3806.00,1.5669
3805.00,1.5484
3804.00,1.5304
3803.00,1.5119
3802.00,1.4913
3801.00,1.4686
3800.00,1.4452
3799.00,1.4224
3798.00,1.3997
3797.00,1.3757
3796.00,1.3502
3795.00,1.3243
3794.00,1.2983
3793.00,1.2722
3792.00,1.2455
3791.00,1.2182
3790.00,1.1910
3789.00,1.1640
3788.00,1.1374
3787.00,1.1112
3786.00,1.0853
3785.00,1.0600
3784.00,1.0358
3783.00,1.0132
3782.00,0.9921
3781.00,0.9723
3780.00,0.9532
3779.00,0.9352
3778.00,0.9190
3777.00,0.9054
3776.00,0.8945
3775.00,0.8861
3774.00,0.8800
3773.00,0.8764
3772.00,0.8755
3771.00,0.8771
3770.00,0.8812
3769.00,0.8874
3768.00,0.8958
3767.00,0.9064
3766.00,0.9195
3765.00,0.9349
3764.00,0.9522
3763.00,0.9708
3762.00,0.9905
3761.00,1.0115
3760.00,1.0342
3759.00,1.0586
3758.00,1.0843
3757.00,1.1105
3756.00,1.1366
3755.00,1.1618
3754.00,1.1862
3753.00,1.2107
3752.00,1.2365
3751.00,1.2643
3750.00,1.2941
3749.00,1.3248
3748.00,1.3542
3747.00,1.3803
3746.00,1.4037
3745.00,1.4272
3744.00,1.4532
3743.00,1.4801
3742.00,1.5053
3741.00,1.5278
3740.00,1.5491
3739.00,1.5707
3738.00,1.5924
3737.00,1.6134
3736.00,1.6333
3735.00,1.6521
3734.00,1.6700
3733.00,1.6877
3732.00,1.7053
3731.00,1.7224
3730.00,1.7381
3729.00,1.7522
3728.00,1.7649
3727.00,1.7767
3726.00,1.7880
3725.00,1.7990
3724.00,1.8096
3723.00,1.8198
3722.00,1.8293
3721.00,1.8383
3720.00,1.8471
3719.00,1.8555
3718.00,1.8633
3717.00,1.8701
3716.00,1.8755
3715.00,1.8792
3714.00,1.8818
3713.00,1.8839
3712.00,1.8858
3711.00,1.8878
3710.00,1.8898
3709.00,1.8919
3708.00,1.8937
3707.00,1.8947
3706.00,1.8948
3705.00,1.8943
3704.00,1.8934
3703.00,1.8917
3702.00,1.8892
3701.00,1.8860
3700.00,1.8825
3699.00,1.8784
3698.00,1.8738
3697.00,1.8687
3696.00,1.8633
3695.00,1.8579
3694.00,1.8523
3693.00,1.8460
3692.00,1.8388
3691.00,1.8307
3690.00,1.8216
3689.00,1.8114
3688.00,1.8001
3687.00,1.7883
3686.00,1.7763
3685.00,1.7639
3684.00,1.7514
3683.00,1.7388
3682.00,1.7259
3681.00,1.7121
3680.00,1.6972
3679.00,1.6819
3678.00,1.6663
3677.00,1.6495
3676.00,1.6298
3675.00,1.6076
3674.00,1.5850
3673.00,1.5645
3672.00,1.5453
3671.00,1.5250
3670.00,1.5026
3669.00,1.4792
3668.00,1.4563
3667.00,1.4346
3666.00,1.4139
3665.00,1.3937
3664.00,1.3740
3663.00,1.3551
3662.00,1.3368
3661.00,1.3190
3660.00,1.3020
3659.00,1.2861
3658.00,1.2712
3657.00,1.2568
3656.00,1.2428
3655.00,1.2298
3654.00,1.2187
3653.00,1.2102
3652.00,1.2042
3651.00,1.2001
3650.00,1.1971
3649.00,1.1951
3648.00,1.1944
3647.00,1.1961
3646.00,1.2005
3645.00,1.2064
3644.00,1.2133
3643.00,1.2217
3642.00,1.2321
3641.00,1.2443
3640.00,1.2576
3639.00,1.2717
3638.00,1.2864
3637.00,1.3019
3636.00,1.3182
3635.00,1.3352
3634.00,1.3529
3633.00,1.3708
3632.00,1.3885
3631.00,1.4062
3630.00,1.4246
3629.00,1.4444
3628.00,1.4648
3627.00,1.4848
3626.00,1.5042
3625.00,1.5233
3624.00,1.5427
3623.00,1.5625
3622.00,1.5823
3621.00,1.6014
3620.00,1.6200
3619.00,1.6384
3618.00,1.6569
3617.00,1.6752
3616.00,1.6931
3615.00,1.7101
3614.00,1.7261
3613.00,1.7415
3612.00,1.7565
3611.00,1.7710
3610.00,1.7849
3609.00,1.7980
3608.00,1.8106
3607.00,1.8230
3606.00,1.8354
3605.00,1.8480
3604.00,1.8604
3603.00,1.8723
3602.00,1.8836
3601.00,1.8946
3600.00,1.9053
3599.00,1.9157
3598.00,1.9255
3597.00,1.9347
3596.00,1.9433
3595.00,1.9516
3594.00,1.9596
3593.00,1.9671
3592.00,1.9740
3591.00,1.9801
3590.00,1.9854
3589.00,1.9901
3588.00,1.9947
3587.00,1.9995
3586.00,2.0049
3585.00,2.0110
3584.00,2.0170
3583.00,2.0222
3582.00,2.0266
3581.00,2.0308
3580.00,2.0347
3579.00,2.0383
3578.00,2.0413
3577.00,2.0437
3576.00,2.0453
3575.00,2.0461
3574.00,2.0465
3573.00,2.0471
3572.00,2.0478
3571.00,2.0479
3570.00,2.0469
3569.00,2.0451
3568.00,2.0426
3567.00,2.0396
3566.00,2.0365
3565.00,2.0337
3564.00,2.0316
3563.00,2.0300
3562.00,2.0281
3561.00,2.0257
3560.00,2.0226
3559.00,2.0185
3558.00,2.0135
3557.00,2.0078
3556.00,2.0019
3555.00,1.9959
3554.00,1.9897
3553.00,1.9830
3552.00,1.9760
3551.00,1.9689
3550.00,1.9621
3549.00,1.9550
3548.00,1.9473
3547.00,1.9387
3546.00,1.9294
3545.00,1.9200
3544.00,1.9108
3543.00,1.9020
3542.00,1.8934
3541.00,1.8847
3540.00,1.8754
3539.00,1.8655
3538.00,1.8551
3537.00,1.8446
3536.00,1.8341
3535.00,1.8237
3534.00,1.8136
3533.00,1.8036
3532.00,1.7935
3531.00,1.7833
3530.00,1.7729
3529.00,1.7625
3528.00,1.7524
3527.00,1.7427
3526.00,1.7334
3525.00,1.7240
3524.00,1.7145
3523.00,1.7048
3522.00,1.6953
3521.00,1.6860
3520.00,1.6773
3519.00,1.6691
3518.00,1.6614
3517.00,1.6541
3516.00,1.6473
3515.00,1.6409
3514.00,1.6350
3513.00,1.6295
3512.00,1.6244
3511.00,1.6197
3510.00,1.6153
3509.00,1.6114
3508.00,1.6079
3507.00,1.6052
3506.00,1.6033
3505.00,1.6022
3504.00,1.6018
3503.00,1.6021
3502.00,1.6030
3501.00,1.6045
3500.00,1.6064
3499.00,1.6089
3498.00,1.6120
3497.00,1.6161
3496.00,1.6212
3495.00,1.6271
3494.00,1.6337
3493.00,1.6407
3492.00,1.6482
3491.00,1.6561
3490.00,1.6646
3489.00,1.6738
3488.00,1.6838
3487.00,1.6943
3486.00,1.7051
3485.00,1.7161
3484.00,1.7272
3483.00,1.7385
3482.00,1.7502
3481.00,1.7623
3480.00,1.7747
3479.00,1.7870
3478.00,1.7992
3477.00,1.8114
3476.00,1.8236
3475.00,1.8358
3474.00,1.8478
3473.00,1.8598
3472.00,1.8718
3471.00,1.8840
3470.00,1.8966
3469.00,1.9092
3468.00,1.9212
3467.00,1.9324
3466.00,1.9428
3465.00,1.9531
3464.00,1.9636
3463.00,1.9743
3462.00,1.9848
3461.00,1.9948
3460.00,2.0042
3459.00,2.0130
3458.00,2.0215
3457.00,2.0300
3456.00,2.0384
3455.00,2.0465
3454.00,2.0539
3453.00,2.0606
3452.00,2.0672
3451.00,2.0736
3450.00,2.0797
3449.00,2.0852
3448.00,2.0899
3447.00,2.0942
3446.00,2.0985
3445.00,2.1030
3444.00,2.1073
3443.00,2.1107
3442.00,2.1129
3441.00,2.1145
3440.00,2.1160
3439.00,2.1178
3438.00,2.1195
3437.00,2.1208
3436.00,2.1214
3435.00,2.1216
3434.00,2.1218
3433.00,2.1223
3432.00,2.1227
3431.00,2.1223
3430.00,2.1206
3429.00,2.1180
3428.00,2.1149
3427.00,2.1121
3426.00,2.1098
3425.00,2.1078
3424.00,2.1052
3423.00,2.1018
3422.00,2.0978
3421.00,2.0936
3420.00,2.0893
3419.00,2.0847
3418.00,2.0798
3417.00,2.0748
3416.00,2.0697
3415.00,2.0645
3414.00,2.0593
3413.00,2.0541
3412.00,2.0485
3411.00,2.0423
3410.00,2.0358
3409.00,2.0294
3408.00,2.0233
3407.00,2.0169
3406.00,2.0098
3405.00,2.0017
3404.00,1.9927
3403.00,1.9827
3402.00,1.9719
3401.00,1.9605
3400.00,1.9487
3399.00,1.9363
3398.00,1.9231
3397.00,1.9092
3396.00,1.8946
3395.00,1.8793
3394.00,1.8631
3393.00,1.8461
3392.00,1.8287
3391.00,1.8110
3390.00,1.7932
3389.00,1.7752
3388.00,1.7568
3387.00,1.7379
3386.00,1.7188
3385.00,1.6999
3384.00,1.6812
3383.00,1.6627
3382.00,1.6444
3381.00,1.6262
3380.00,1.6085
3379.00,1.5913
3378.00,1.5748
3377.00,1.5589
3376.00,1.5438
3375.00,1.5296
3374.00,1.5166
3373.00,1.5048
3372.00,1.4942
3371.00,1.4849
3370.00,1.4768
3369.00,1.4700
3368.00,1.4649
3367.00,1.4613
3366.00,1.4594
3365.00,1.4591
3364.00,1.4604
3363.00,1.4631
3362.00,1.4674
3361.00,1.4733
3360.00,1.4807
3359.00,1.4896
3358.00,1.4996
3357.00,1.5107
3356.00,1.5228
3355.00,1.5359
3354.00,1.5500
3353.00,1.5649
3352.00,1.5807
3351.00,1.5973
3350.00,1.6144
3349.00,1.6319
3348.00,1.6497
3347.00,1.6675
3346.00,1.6854
3345.00,1.7034
3344.00,1.7215
3343.00,1.7399
3342.00,1.7584
3341.00,1.7766
3340.00,1.7943
3339.00,1.8114
3338.00,1.8279
3337.00,1.8441
3336.00,1.8601
3335.00,1.8761
3334.00,1.8919
3333.00,1.9073
3332.00,1.9221
3331.00,1.9365
3330.00,1.9507
3329.00,1.9644
3328.00,1.9775
3327.00,1.9895
3326.00,2.0010
3325.00,2.0122
3324.00,2.0234
3323.00,2.0344
3322.00,2.0446
3321.00,2.0539
3320.00,2.0623
3319.00,2.0699
3318.00,2.0774
3317.00,2.0851
3316.00,2.0929
3315.00,2.1003
3314.00,2.1068
3313.00,2.1123
3312.00,2.1165
3311.00,2.1199
3310.00,2.1227
3309.00,2.1256
3308.00,2.1289
3307.00,2.1321
3306.00,2.1349
3305.00,2.1370
3304.00,2.1387
3303.00,2.1401
3302.00,2.1411
3301.00,2.1416
3300.00,2.1413
3299.00,2.1403
3298.00,2.1386
3297.00,2.1365
3296.00,2.1343
3295.00,2.1319
3294.00,2.1290
3293.00,2.1255
3292.00,2.1214
3291.00,2.1170
3290.00,2.1125
3289.00,2.1076
3288.00,2.1022
3287.00,2.0961
3286.00,2.0894
3285.00,2.0819
3284.00,2.0737
3283.00,2.0652
3282.00,2.0563
3281.00,2.0471
3280.00,2.0374
3279.00,2.0273
3278.00,2.0170
3277.00,2.0066
3276.00,1.9957
3275.00,1.9841
3274.00,1.9717
3273.00,1.9588
3272.00,1.9455
3271.00,1.9317
3270.00,1.9173
3269.00,1.9025
3268.00,1.8872
3267.00,1.8717
3266.00,1.8559
3265.00,1.8399
3264.00,1.8238
3263.00,1.8075
3262.00,1.7908
3261.00,1.7736
3260.00,1.7560
3259.00,1.7384
3258.00,1.7209
3257.00,1.7038
3256.00,1.6871
3255.00,1.6706
3254.00,1.6544
3253.00,1.6384
3252.00,1.6227
3251.00,1.6075
3250.00,1.5930
3249.00,1.5792
3248.00,1.5663
3247.00,1.5545
3246.00,1.5438
3245.00,1.5344
3244.00,1.5264
3243.00,1.5197
3242.00,1.5141
3241.00,1.5097
3240.00,1.5064
3239.00,1.5045
3238.00,1.5041
3237.00,1.5052
3236.00,1.5076
3235.00,1.5115
3234.00,1.5168
3233.00,1.5235
3232.00,1.5315
3231.00,1.5409
3230.00,1.5513
3229.00,1.5628
3228.00,1.5751
3227.00,1.5884
3226.00,1.6026
3225.00,1.6176
3224.00,1.6332
3223.00,1.6493
3222.00,1.6659
3221.00,1.6830
3220.00,1.7006
3219.00,1.7186
3218.00,1.7369
3217.00,1.7552
3216.00,1.7732
3215.00,1.7908
3214.00,1.8083
3213.00,1.8259
3212.00,1.8436
3211.00,1.8613
3210.00,1.8787
3209.00,1.8957
3208.00,1.9124
3207.00,1.9287
3206.00,1.9444
3205.00,1.9596
3204.00,1.9742
3203.00,1.9886
3202.00,2.0028
3201.00,2.0168
3200.00,2.0306
3199.00,2.0438
3198.00,2.0563
3197.00,2.0678
3196.00,2.0782
3195.00,2.0880
3194.00,2.0977
3193.00,2.1073
3192.00,2.1166
3191.00,2.1250
3190.00,2.1323
3189.00,2.1387
3188.00,2.1447
3187.00,2.1506
3186.00,2.1567
3185.00,2.1629
3184.00,2.1690
3183.00,2.1746
3182.00,2.1794
3181.00,2.1835
3180.00,2.1870
3179.00,2.1904
3178.00,2.1938
3177.00,2.1967
3176.00,2.1988
3175.00,2.1998
3174.00,2.1998
3173.00,2.1993
3172.00,2.1988
3171.00,2.1985
3170.00,2.1986
3169.00,2.1988
3168.00,2.1988
3167.00,2.1981
3166.00,2.1965
3165.00,2.1940
3164.00,2.1910
3163.00,2.1879
3162.00,2.1851
3161.00,2.1822
3160.00,2.1789
3159.00,2.1747
3158.00,2.1694
3157.00,2.1632
3156.00,2.1560
3155.00,2.1484
3154.00,2.1407
3153.00,2.1327
3152.00,2.1242
3151.00,2.1149
3150.00,2.1051
3149.00,2.0950
3148.00,2.0846
3147.00,2.0734
3146.00,2.0614
3145.00,2.0489
3144.00,2.0356
3143.00,2.0218
3142.00,2.0074
3141.00,1.9925
3140.00,1.9773
3139.00,1.9617
3138.00,1.9459
3137.00,1.9298
3136.00,1.9134
3135.00,1.8964
3134.00,1.8788
3133.00,1.8607
3132.00,1.8422
3131.00,1.8235
3130.00,1.8046
3129.00,1.7856
3128.00,1.7667
3127.00,1.7478
3126.00,1.7292
3125.00,1.7111
3124.00,1.6935
3123.00,1.6764
3122.00,1.6598
3121.00,1.6439
3120.00,1.6288
3119.00,1.6148
3118.00,1.6021
3117.00,1.5909
3116.00,1.5811
3115.00,1.5728
3114.00,1.5660
3113.00,1.5606
3112.00,1.5569
3111.00,1.5548
3110.00,1.5545
3109.00,1.5560
3108.00,1.5594
3107.00,1.5646
3106.00,1.5715
3105.00,1.5799
3104.00,1.5897
3103.00,1.6010
3102.00,1.6136
3101.00,1.6276
3100.00,1.6428
3099.00,1.6590
3098.00,1.6760
3097.00,1.6938
3096.00,1.7125
3095.00,1.7322
3094.00,1.7526
3093.00,1.7734
3092.00,1.7942
3091.00,1.8146
3090.00,1.8347
3089.00,1.8547
3088.00,1.8746
3087.00,1.8944
3086.00,1.9143
3085.00,1.9343
3084.00,1.9541
3083.00,1.9733
3082.00,1.9917
3081.00,2.0098
3080.00,2.0277
3079.00,2.0453
3078.00,2.0624
3077.00,2.0788
3076.00,2.0941
3075.00,2.1086
3074.00,2.1224
3073.00,2.1360
3072.00,2.1495
3071.00,2.1625
3070.00,2.1746
3069.00,2.1859
3068.00,2.1963
3067.00,2.2060
3066.00,2.2149
3065.00,2.2235
3064.00,2.2322
3063.00,2.2409
3062.00,2.2490
3061.00,2.2557
3060.00,2.2611
3059.00,2.2654
3058.00,2.2693
3057.00,2.2731
3056.00,2.2770
3055.00,2.2805
3054.00,2.2833
3053.00,2.2848
3052.00,2.2851
3051.00,2.2844
3050.00,2.2832
3049.00,2.2819
3048.00,2.2806
3047.00,2.2789
3046.00,2.2762
3045.00,2.2725
3044.00,2.2678
3043.00,2.2626
3042.00,2.2567
3041.00,2.2499
3040.00,2.2421
3039.00,2.2335
3038.00,2.2245
3037.00,2.2151
3036.00,2.2052
3035.00,2.1945
3034.00,2.1827
3033.00,2.1701
3032.00,2.1568
3031.00,2.1429
3030.00,2.1280
3029.00,2.1122
3028.00,2.0955
3027.00,2.0782
3026.00,2.0603
3025.00,2.0414
3024.00,2.0214
3023.00,2.0003
3022.00,1.9786
3021.00,1.9569
3020.00,1.9352
3019.00,1.9133
3018.00,1.8910
3017.00,1.8686
3016.00,1.8467
3015.00,1.8257
3014.00,1.8062
3013.00,1.7884
3012.00,1.7726
3011.00,1.7590
3010.00,1.7479
3009.00,1.7397
3008.00,1.7351
3007.00,1.7342
3006.00,1.7374
3005.00,1.7448
3004.00,1.7563
3003.00,1.7717
3002.00,1.7909
3001.00,1.8134
3000.00,1.8391
2999.00,1.8679
2998.00,1.8993
2997.00,1.9331
2996.00,1.9684
2995.00,2.0048
2994.00,2.0419
2993.00,2.0796
2992.00,2.1178
2991.00,2.1562
2990.00,2.1943
2989.00,2.2316
2988.00,2.2678
2987.00,2.3033
2986.00,2.3381
2985.00,2.3718
2984.00,2.4041
2983.00,2.4354
2982.00,2.4670
2981.00,2.4998
2980.00,2.5332
2979.00,2.5657
2978.00,2.5972
2977.00,2.6292
2976.00,2.6639
2975.00,2.7028
2974.00,2.7456
2973.00,2.7916
2972.00,2.8409
2971.00,2.8957
2970.00,2.9574
2969.00,3.0246
2968.00,3.0936
2967.00,3.1633
2966.00,3.2382
2965.00,3.3237
2964.00,3.4213
2963.00,3.5309
2962.00,3.6505
2961.00,3.7622
2960.00,3.8243
2959.00,3.8205
2958.00,3.7968
2957.00,3.8022
2956.00,3.8500
2955.00,3.9304
2954.00,4.0297
2953.00,4.1197
2952.00,4.1554
2951.00,4.1503
2950.00,4.1521
2949.00,4.1723
2948.00,4.1773
2947.00,4.1646
2946.00,4.1725
2945.00,4.2176
2944.00,4.2850
2943.00,4.3480
2942.00,4.4167
2941.00,4.5529
2940.00,4.7425
2939.00,5.0187
2938.00,5.3229
2937.00,5.0413
2936.00,4.8062
2935.00,4.4792
2934.00,4.2943
2933.00,4.1855
2932.00,4.1892
2931.00,4.2735
2930.00,4.3108
2929.00,4.2485
2928.00,4.1516
2927.00,4.0917
2926.00,4.0703
2925.00,4.0494
2924.00,4.0033
2923.00,3.9438
2922.00,3.8909
2921.00,3.8481
2920.00,3.8038
2919.00,3.7473
2918.00,3.6827
2917.00,3.6198
2916.00,3.5597
2915.00,3.4975
2914.00,3.4316
2913.00,3.3661
2912.00,3.3053
2911.00,3.2512
2910.00,3.2050
2909.00,3.1665
2908.00,3.1324
2907.00,3.0982
2906.00,3.0619
2905.00,3.0256
2904.00,2.9931
2903.00,2.9658
2902.00,2.9432
2901.00,2.9240
2900.00,2.9070
2899.00,2.8905
2898.00,2.8735
2897.00,2.8554
2896.00,2.8370
2895.00,2.8196
2894.00,2.8043
2893.00,2.7923
2892.00,2.7842
2891.00,2.7799
2890.00,2.7789
2889.00,2.7805
2888.00,2.7841
2887.00,2.7895
2886.00,2.7966
2885.00,2.8064
2884.00,2.8209
2883.00,2.8409
2882.00,2.8656
2881.00,2.8925
2880.00,2.9198
2879.00,2.9488
2878.00,2.9823
2877.00,3.0219
2876.00,3.0666
2875.00,3.1142
2874.00,3.1658
2873.00,3.2245
2872.00,3.2920
2871.00,3.3647
2870.00,3.4366
2869.00,3.5068
2868.00,3.5793
2867.00,3.6535
2866.00,3.7218
2865.00,3.7772
2864.00,3.8148
2863.00,3.8255
2862.00,3.8021
2861.00,3.7503
2860.00,3.6854
2859.00,3.6195
2858.00,3.5521
2857.00,3.4725
2856.00,3.3737
2855.00,3.2612
2854.00,3.1463
2853.00,3.0381
2852.00,2.9402
2851.00,2.8526
2850.00,2.7739
2849.00,2.7045
2848.00,2.6460
2847.00,2.5992
2846.00,2.5635
2845.00,2.5369
2844.00,2.5174
2843.00,2.5038
2842.00,2.4951
2841.00,2.4906
2840.00,2.4890
2839.00,2.4891
2838.00,2.4895
2837.00,2.4897
2836.00,2.4896
2835.00,2.4895
2834.00,2.4889
2833.00,2.4869
2832.00,2.4832
2831.00,2.4783
2830.00,2.4726
2829.00,2.4667
2828.00,2.4608
2827.00,2.4550
2826.00,2.4491
2825.00,2.4419
2824.00,2.4322
2823.00,2.4197
2822.00,2.4053
2821.00,2.3901
2820.00,2.3744
2819.00,2.3576
2818.00,2.3393
2817.00,2.3192
2816.00,2.2979
2815.00,2.2757
2814.00,2.2527
2813.00,2.2286
2812.00,2.2031
2811.00,2.1765
2810.00,2.1491
2809.00,2.1206
2808.00,2.0905
2807.00,2.0586
2806.00,2.0254
2805.00,1.9914
2804.00,1.9575
2803.00,1.9240
2802.00,1.8911
2801.00,1.8591
2800.00,1.8278
2799.00,1.7974
2798.00,1.7677
2797.00,1.7385
2796.00,1.7095
2795.00,1.6803
2794.00,1.6511
2793.00,1.6225
2792.00,1.5951
2791.00,1.5699
2790.00,1.5475
2789.00,1.5286
2788.00,1.5140
2787.00,1.5041
2786.00,1.4994
2785.00,1.4999
2784.00,1.5056
2783.00,1.5161
2782.00,1.5309
2781.00,1.5495
2780.00,1.5714
2779.00,1.5962
2778.00,1.6232
2777.00,1.6521
2776.00,1.6822
2775.00,1.7132
2774.00,1.7448
2773.00,1.7770
2772.00,1.8095
2771.00,1.8423
2770.00,1.8752
2769.00,1.9079
2768.00,1.9399
2767.00,1.9707
2766.00,2.0001
2765.00,2.0281
2764.00,2.0549
2763.00,2.0806
2762.00,2.1053
2761.00,2.1287
2760.00,2.1508
2759.00,2.1713
2758.00,2.1905
2757.00,2.2087
2756.00,2.2258
2755.00,2.2418
2754.00,2.2572
2753.00,2.2724
2752.00,2.2878
2751.00,2.3029
2750.00,2.3173
2749.00,2.3302
2748.00,2.3415
2747.00,2.3512
2746.00,2.3600
2745.00,2.3681
2744.00,2.3758
2743.00,2.3830
2742.00,2.3900
2741.00,2.3969
2740.00,2.4035
2739.00,2.4095
2738.00,2.4148
2737.00,2.4193
2736.00,2.4228
2735.00,2.4250
2734.00,2.4260
2733.00,2.4264
2732.00,2.4267
2731.00,2.4268
2730.00,2.4266
2729.00,2.4260
2728.00,2.4244
2727.00,2.4218
2726.00,2.4182
2725.00,2.4140
2724.00,2.4094
2723.00,2.4044
2722.00,2.3989
2721.00,2.3931
2720.00,2.3867
2719.00,2.3799
2718.00,2.3723
2717.00,2.3639
2716.00,2.3544
2715.00,2.3436
2714.00,2.3316
2713.00,2.3187
2712.00,2.3053
2711.00,2.2915
2710.00,2.2772
2709.00,2.2622
2708.00,2.2465
2707.00,2.2302
2706.00,2.2133
2705.00,2.1955
2704.00,2.1764
2703.00,2.1558
2702.00,2.1339
2701.00,2.1106
2700.00,2.0858
2699.00,2.0596
2698.00,2.0323
2697.00,2.0044
2696.00,1.9757
2695.00,1.9462
2694.00,1.9157
2693.00,1.8844
2692.00,1.8524
2691.00,1.8197
2690.00,1.7868
2689.00,1.7539
2688.00,1.7216
2687.00,1.6905
2686.00,1.6612
2685.00,1.6347
2684.00,1.6117
2683.00,1.5924
2682.00,1.5770
2681.00,1.5653
2680.00,1.5571
2679.00,1.5517
2678.00,1.5487
2677.00,1.5473
2676.00,1.5471
2675.00,1.5476
2674.00,1.5487
2673.00,1.5505
2672.00,1.5532
2671.00,1.5567
2670.00,1.5608
2669.00,1.5651
2668.00,1.5693
2667.00,1.5735
2666.00,1.5783
2665.00,1.5847
2664.00,1.5935
2663.00,1.6053
2662.00,1.6206
2661.00,1.6397
2660.00,1.6624
2659.00,1.6881
2658.00,1.7162
2657.00,1.7459
2656.00,1.7767
2655.00,1.8081
2654.00,1.8397
2653.00,1.8709
2652.00,1.9015
2651.00,1.9313
2650.00,1.9602
2649.00,1.9882
2648.00,2.0154
2647.00,2.0416
2646.00,2.0668
2645.00,2.0911
2644.00,2.1142
2643.00,2.1364
2642.00,2.1581
2641.00,2.1796
2640.00,2.2008
2639.00,2.2214
2638.00,2.2411
2637.00,2.2595
2636.00,2.2767
2635.00,2.2929
2634.00,2.3086
2633.00,2.3241
2632.00,2.3397
2631.00,2.3556
2630.00,2.3713
2629.00,2.3863
2628.00,2.3998
2627.00,2.4119
2626.00,2.4226
2625.00,2.4322
2624.00,2.4409
2623.00,2.4490
2622.00,2.4568
2621.00,2.4645
2620.00,2.4719
2619.00,2.4788
2618.00,2.4850
2617.00,2.4904
2616.00,2.4950
2615.00,2.4991
2614.00,2.5026
2613.00,2.5056
2612.00,2.5080
2611.00,2.5099
2610.00,2.5113
2609.00,2.5119
2608.00,2.5116
2607.00,2.5107
2606.00,2.5097
2605.00,2.5088
2604.00,2.5079
2603.00,2.5067
2602.00,2.5051
2601.00,2.5029
2600.00,2.5002
2599.00,2.4970
2598.00,2.4931
2597.00,2.4885
2596.00,2.4829
2595.00,2.4765
2594.00,2.4694
2593.00,2.4619
2592.00,2.4540
2591.00,2.4455
2590.00,2.4362
2589.00,2.4259
2588.00,2.4154
2587.00,2.4054
2586.00,2.3958
2585.00,2.3853
2584.00,2.3730
2583.00,2.3588
2582.00,2.3440
2581.00,2.3289
2580.00,2.3134
2579.00,2.2969
2578.00,2.2793
2577.00,2.2607
2576.00,2.2413
2575.00,2.2210
2574.00,2.1999
2573.00,2.1778
2572.00,2.1547
2571.00,2.1304
2570.00,2.1050
2569.00,2.0785
2568.00,2.0506
2567.00,2.0213
2566.00,1.9904
2565.00,1.9581
2564.00,1.9244
2563.00,1.8895
2562.00,1.8534
2561.00,1.8164
2560.00,1.7785
2559.00,1.7400
2558.00,1.7009
2557.00,1.6617
2556.00,1.6229
2555.00,1.5849
2554.00,1.5485
2553.00,1.5140
2552.00,1.4820
2551.00,1.4529
2550.00,1.4272
2549.00,1.4054
2548.00,1.3879
2547.00,1.3747
2546.00,1.3661
2545.00,1.3622
2544.00,1.3630
2543.00,1.3684
2542.00,1.3783
2541.00,1.3924
2540.00,1.4105
2539.00,1.4321
2538.00,1.4568
2537.00,1.4844
2536.00,1.5142
2535.00,1.5459
2534.00,1.5793
2533.00,1.6140
2532.00,1.6499
2531.00,1.6866
2530.00,1.7237
2529.00,1.7611
2528.00,1.7986
2527.00,1.8357
2526.00,1.8722
2525.00,1.9076
2524.00,1.9420
2523.00,1.9756
2522.00,2.0085
2521.00,2.0403
2520.00,2.0706
2519.00,2.0993
2518.00,2.1267
2517.00,2.1531
2516.00,2.1788
2515.00,2.2037
2514.00,2.2281
2513.00,2.2520
2512.00,2.2749
2511.00,2.2965
2510.00,2.3170
2509.00,2.3367
2508.00,2.3555
2507.00,2.3729
2506.00,2.3886
2505.00,2.4036
2504.00,2.4186
2503.00,2.4338
2502.00,2.4482
2501.00,2.4609
2500.00,2.4719
2499.00,2.4823
2498.00,2.4928
2497.00,2.5034
2496.00,2.5134
2495.00,2.5224
2494.00,2.5311
2493.00,2.5398
2492.00,2.5484
2491.00,2.5561
2490.00,2.5625
2489.00,2.5677
2488.00,2.5726
2487.00,2.5778
2486.00,2.5829
2485.00,2.5869
2484.00,2.5890
2483.00,2.5898
2482.00,2.5903
2481.00,2.5913
2480.00,2.5924
2479.00,2.5933
2478.00,2.5937
2477.00,2.5936
2476.00,2.5928
2475.00,2.5918
2474.00,2.5906
2473.00,2.5883
2472.00,2.5841
2471.00,2.5785
2470.00,2.5735
2469.00,2.5697
2468.00,2.5662
2467.00,2.5615
2466.00,2.5556
2465.00,2.5492
2464.00,2.5422
2463.00,2.5342
2462.00,2.5252
2461.00,2.5157
2460.00,2.5059
2459.00,2.4950
2458.00,2.4829
2457.00,2.4701
2456.00,2.4570
2455.00,2.4437
2454.00,2.4301
2453.00,2.4158
2452.00,2.4007
2451.00,2.3851
2450.00,2.3689
2449.00,2.3516
2448.00,2.3325
2447.00,2.3116
2446.00,2.2897
2445.00,2.2675
2444.00,2.2445
2443.00,2.2199
2442.00,2.1935
2441.00,2.1656
2440.00,2.1364
2439.00,2.1057
2438.00,2.0735
2437.00,2.0400
2436.00,2.0049
2435.00,1.9680
2434.00,1.9292
2433.00,1.8890
2432.00,1.8475
2431.00,1.8053
2430.00,1.7627
2429.00,1.7198
2428.00,1.6772
2427.00,1.6351
2426.00,1.5938
2425.00,1.5539
2424.00,1.5157
2423.00,1.4799
2422.00,1.4468
2421.00,1.4169
2420.00,1.3907
2419.00,1.3685
2418.00,1.3507
2417.00,1.3378
2416.00,1.3300
2415.00,1.3277
2414.00,1.3311
2413.00,1.3405
2412.00,1.3556
2411.00,1.3760
2410.00,1.4011
2409.00,1.4304
2408.00,1.4634
2407.00,1.4994
2406.00,1.5380
2405.00,1.5784
2404.00,1.6205
2403.00,1.6636
2402.00,1.7076
2401.00,1.7522
2400.00,1.7970
2399.00,1.8416
2398.00,1.8855
2397.00,1.9285
2396.00,1.9702
2395.00,2.0101
2394.00,2.0480
2393.00,2.0839
2392.00,2.1183
2391.00,2.1510
2390.00,2.1819
2389.00,2.2105
2388.00,2.2362
2387.00,2.2589
2386.00,2.2791
2385.00,2.2970
2384.00,2.3128
2383.00,2.3262
2382.00,2.3379
2381.00,2.3498
2380.00,2.3631
2379.00,2.3784
2378.00,2.3959
2377.00,2.4160
2376.00,2.4386
2375.00,2.4620
2374.00,2.4834
2373.00,2.5014
2372.00,2.5163
2371.00,2.5290
2370.00,2.5404
2369.00,2.5520
2368.00,2.5653
2367.00,2.5803
2366.00,2.5947
2365.00,2.6062
2364.00,2.6131
2363.00,2.6155
2362.00,2.6164
2361.00,2.6189
2360.00,2.6258
2359.00,2.6371
2358.00,2.6494
2357.00,2.6599
2356.00,2.6662
2355.00,2.6678
2354.00,2.6663
2353.00,2.6663
2352.00,2.6712
2351.00,2.6773
2350.00,2.6800
2349.00,2.6767
2348.00,2.6714
2347.00,2.6708
2346.00,2.6768
2345.00,2.6858
2344.00,2.6892
2343.00,2.6868
2342.00,2.6826
2341.00,2.6788
2340.00,2.6739
2339.00,2.6648
2338.00,2.6526
2337.00,2.6399
2336.00,2.6284
2335.00,2.6165
2334.00,2.6030
2333.00,2.5878
2332.00,2.5739
2331.00,2.5606
2330.00,2.5491
2329.00,2.5370
2328.00,2.5236
2327.00,2.5077
2326.00,2.4897
2325.00,2.4724
2324.00,2.4554
2323.00,2.4387
2322.00,2.4216
2321.00,2.4052
2320.00,2.3901
2319.00,2.3743
2318.00,2.3559
2317.00,2.3327
2316.00,2.3068
2315.00,2.2794
2314.00,2.2526
2313.00,2.2258
2312.00,2.1992
2311.00,2.1716
2310.00,2.1432
2309.00,2.1132
2308.00,2.0823
2307.00,2.0502
2306.00,2.0172
2305.00,1.9822
2304.00,1.9450
2303.00,1.9054
2302.00,1.8645
2301.00,1.8228
2300.00,1.7810
2299.00,1.7386
2298.00,1.6963
2297.00,1.6542
2296.00,1.6132
2295.00,1.5738
2294.00,1.5366
2293.00,1.5015
2292.00,1.4687
2291.00,1.4387
2290.00,1.4122
2289.00,1.3903
2288.00,1.3734
2287.00,1.3622
2286.00,1.3570
2285.00,1.3582
2284.00,1.3660
2283.00,1.3803
2282.00,1.4009
2281.00,1.4276
2280.00,1.4596
2279.00,1.4959
2278.00,1.5356
2277.00,1.5781
2276.00,1.6228
2275.00,1.6690
2274.00,1.7161
2273.00,1.7636
2272.00,1.8110
2271.00,1.8578
2270.00,1.9039
2269.00,1.9493
2268.00,1.9941
2267.00,2.0376
2266.00,2.0794
2265.00,2.1191
2264.00,2.1565
2263.00,2.1916
2262.00,2.2251
2261.00,2.2581
2260.00,2.2906
2259.00,2.3216
2258.00,2.3506
2257.00,2.3779
2256.00,2.4043
2255.00,2.4297
2254.00,2.4536
2253.00,2.4756
2252.00,2.4965
2251.00,2.5162
2250.00,2.5345
2249.00,2.5507
2248.00,2.5653
2247.00,2.5786
2246.00,2.5911
2245.00,2.6030
2244.00,2.6152
2243.00,2.6285
2242.00,2.6430
2241.00,2.6573
2240.00,2.6700
2239.00,2.6801
2238.00,2.6880
2237.00,2.6950
2236.00,2.7018
2235.00,2.7087
2234.00,2.7156
2233.00,2.7229
2232.00,2.7310
2231.00,2.7397
2230.00,2.7479
2229.00,2.7545
2228.00,2.7588
2227.00,2.7616
2226.00,2.7645
2225.00,2.7684
2224.00,2.7728
2223.00,2.7766
2222.00,2.7793
2221.00,2.7813
2220.00,2.7826
2219.00,2.7831
2218.00,2.7829
2217.00,2.7820
2216.00,2.7803
2215.00,2.7770
2214.00,2.7723
2213.00,2.7669
2212.00,2.7607
2211.00,2.7541
2210.00,2.7484
2209.00,2.7449
2208.00,2.7426
2207.00,2.7389
2206.00,2.7322
2205.00,2.7235
2204.00,2.7151
2203.00,2.7082
2202.00,2.7020
2201.00,2.6953
2200.00,2.6869
2199.00,2.6759
2198.00,2.6624
2197.00,2.6473
2196.00,2.6322
2195.00,2.6177
2194.00,2.6039
2193.00,2.5896
2192.00,2.5739
2191.00,2.5564
2190.00,2.5373
2189.00,2.5173
2188.00,2.4963
2187.00,2.4745
2186.00,2.4522
2185.00,2.4302
2184.00,2.4081
2183.00,2.3846
2182.00,2.3587
2181.00,2.3307
2180.00,2.3016
2179.00,2.2719
2178.00,2.2417
2177.00,2.2105
2176.00,2.1781
2175.00,2.1438
2174.00,2.1071
2173.00,2.0677
2172.00,2.0260
2171.00,1.9822
2170.00,1.9364
2169.00,1.8889
2168.00,1.8398
2167.00,1.7897
2166.00,1.7395
2165.00,1.6899
2164.00,1.6420
2163.00,1.5968
2162.00,1.5551
2161.00,1.5179
2160.00,1.4861
2159.00,1.4604
2158.00,1.4415
2157.00,1.4298
2156.00,1.4259
2155.00,1.4297
2154.00,1.4412
2153.00,1.4600
2152.00,1.4855
2151.00,1.5168
2150.00,1.5532
2149.00,1.5937
2148.00,1.6376
2147.00,1.6839
2146.00,1.7321
2145.00,1.7816
2144.00,1.8318
2143.00,1.8823
2142.00,1.9322
2141.00,1.9812
2140.00,2.0291
2139.00,2.0757
2138.00,2.1206
2137.00,2.1635
2136.00,2.2043
2135.00,2.2431
2134.00,2.2798
2133.00,2.3141
2132.00,2.3460
2131.00,2.3761
2130.00,2.4054
2129.00,2.4341
2128.00,2.4615
2127.00,2.4868
2126.00,2.5100
2125.00,2.5318
2124.00,2.5528
2123.00,2.5735
2122.00,2.5941
2121.00,2.6139
2120.00,2.6320
2119.00,2.6482
2118.00,2.6633
2117.00,2.6783
2116.00,2.6932
2115.00,2.7079
2114.00,2.7224
2113.00,2.7372
2112.00,2.7527
2111.00,2.7685
2110.00,2.7837
2109.00,2.7973
2108.00,2.8081
2107.00,2.8150
2106.00,2.8185
2105.00,2.8205
2104.00,2.8236
2103.00,2.8286
2102.00,2.8343
2101.00,2.8391
2100.00,2.8420
2099.00,2.8440
2098.00,2.8472
2097.00,2.8526
2096.00,2.8600
2095.00,2.8676
2094.00,2.8738
2093.00,2.8773
2092.00,2.8774
2091.00,2.8745
2090.00,2.8703
2089.00,2.8662
2088.00,2.8626
2087.00,2.8596
2086.00,2.8579
2085.00,2.8578
2084.00,2.8587
2083.00,2.8586
2082.00,2.8556
2081.00,2.8497
2080.00,2.8422
2079.00,2.8348
2078.00,2.8287
2077.00,2.8242
2076.00,2.8198
2075.00,2.8136
2074.00,2.8050
2073.00,2.7953
2072.00,2.7856
2071.00,2.7759
2070.00,2.7651
2069.00,2.7529
2068.00,2.7401
2067.00,2.7271
2066.00,2.7138
2065.00,2.7001
2064.00,2.6864
2063.00,2.6729
2062.00,2.6590
2061.00,2.6435
2060.00,2.6261
2059.00,2.6072
2058.00,2.5873
2057.00,2.5661
2056.00,2.5437
2055.00,2.5203
2054.00,2.4955
2053.00,2.4683
2052.00,2.4384
2051.00,2.4064
2050.00,2.3733
2049.00,2.3387
2048.00,2.3019
2047.00,2.2624
2046.00,2.2205
2045.00,2.1765
2044.00,2.1302
2043.00,2.0814
2042.00,2.0301
2041.00,1.9773
2040.00,1.9239
2039.00,1.8706
2038.00,1.8179
2037.00,1.7662
2036.00,1.7163
2035.00,1.6693
2034.00,1.6261
2033.00,1.5878
2032.00,1.5553
2031.00,1.5291
2030.00,1.5101
2029.00,1.4990
2028.00,1.4962
2027.00,1.5020
2026.00,1.5161
2025.00,1.5379
2024.00,1.5665
2023.00,1.6010
2022.00,1.6403
2021.00,1.6836
2020.00,1.7301
2019.00,1.7787
2018.00,1.8283
2017.00,1.8785
2016.00,1.9294
2015.00,1.9807
2014.00,2.0322
2013.00,2.0829
2012.00,2.1321
2011.00,2.1790
2010.00,2.2236
2009.00,2.2662
2008.00,2.3073
2007.00,2.3467
2006.00,2.3838
2005.00,2.4182
2004.00,2.4501
2003.00,2.4808
2002.00,2.5111
2001.00,2.5412
2000.00,2.5700
1999.00,2.5966
1998.00,2.6213
1997.00,2.6444
1996.00,2.6654
1995.00,2.6843
1994.00,2.7021
1993.00,2.7201
1992.00,2.7386
1991.00,2.7568
1990.00,2.7741
1989.00,2.7907
1988.00,2.8061
1987.00,2.8198
1986.00,2.8325
1985.00,2.8461
1984.00,2.8605
1983.00,2.8737
1982.00,2.8836
1981.00,2.8910
1980.00,2.8987
1979.00,2.9085
1978.00,2.9198
1977.00,2.9302
1976.00,2.9376
1975.00,2.9415
1974.00,2.9434
1973.00,2.9454
1972.00,2.9493
1971.00,2.9555
1970.00,2.9633
1969.00,2.9708
1968.00,2.9756
1967.00,2.9763
1966.00,2.9738
1965.00,2.9705
1964.00,2.9684
1963.00,2.9677
1962.00,2.9683
1961.00,2.9700
1960.00,2.9715
1959.00,2.9709
1958.00,2.9675
1957.00,2.9629
1956.00,2.9590
1955.00,2.9558
1954.00,2.9518
1953.00,2.9458
1952.00,2.9383
1951.00,2.9298
1950.00,2.9208
1949.00,2.9117
1948.00,2.9033
1947.00,2.8964
1946.00,2.8906
1945.00,2.8843
1944.00,2.8755
1943.00,2.8634
1942.00,2.8484
1941.00,2.8315
1940.00,2.8140
1939.00,2.7968
1938.00,2.7798
1937.00,2.7628
1936.00,2.7449
1935.00,2.7253
1934.00,2.7039
1933.00,2.6817
1932.00,2.6593
1931.00,2.6366
1930.00,2.6127
1929.00,2.5861
1928.00,2.5564
1927.00,2.5243
1926.00,2.4910
1925.00,2.4566
1924.00,2.4194
1923.00,2.3776
1922.00,2.3321
1921.00,2.2856
1920.00,2.2400
1919.00,2.1932
1918.00,2.1424
1917.00,2.0877
1916.00,2.0310
1915.00,1.9744
1914.00,1.9189
1913.00,1.8646
1912.00,1.8121
1911.00,1.7623
1910.00,1.7159
1909.00,1.6743
1908.00,1.6392
1907.00,1.6124
1906.00,1.5953
1905.00,1.5881
1904.00,1.5906
1903.00,1.6024
1902.00,1.6231
1901.00,1.6525
1900.00,1.6897
1899.00,1.7332
1898.00,1.7820
1897.00,1.8349
1896.00,1.8911
1895.00,1.9491
1894.00,2.0079
1893.00,2.0669
1892.00,2.1260
1891.00,2.1845
1890.00,2.2416
1889.00,2.2962
1888.00,2.3471
1887.00,2.3937
1886.00,2.4365
1885.00,2.4763
1884.00,2.5148
1883.00,2.5529
1882.00,2.5900
1881.00,2.6244
1880.00,2.6547
1879.00,2.6816
1878.00,2.7073
1877.00,2.7328
1876.00,2.7569
1875.00,2.7783
1874.00,2.7984
1873.00,2.8207
1872.00,2.8464
1871.00,2.8731
1870.00,2.8956
1869.00,2.9101
1868.00,2.9176
1867.00,2.9236
1866.00,2.9341
1865.00,2.9499
1864.00,2.9669
1863.00,2.9815
1862.00,2.9931
1861.00,3.0023
1860.00,3.0086
1859.00,3.0127
1858.00,3.0173
1857.00,3.0245
1856.00,3.0329
1855.00,3.0387
1854.00,3.0407
1853.00,3.0423
1852.00,3.0468
1851.00,3.0539
1850.00,3.0603
1849.00,3.0634
1848.00,3.0643
1847.00,3.0657
1846.00,3.0683
1845.00,3.0698
1844.00,3.0674
1843.00,3.0616
1842.00,3.0553
1841.00,3.0519
1840.00,3.0523
1839.00,3.0533
1838.00,3.0507
1837.00,3.0423
1836.00,3.0284
1835.00,3.0117
1834.00,2.9960
1833.00,2.9834
1832.00,2.9744
1831.00,2.9677
1830.00,2.9606
1829.00,2.9486
1828.00,2.9298
1827.00,2.9069
1826.00,2.8828
1825.00,2.8586
1824.00,2.8341
1823.00,2.8084
1822.00,2.7819
1821.00,2.7550
1820.00,2.7269
1819.00,2.6963
1818.00,2.6626
1817.00,2.6265
1816.00,2.5902
1815.00,2.5552
1814.00,2.5220
1813.00,2.4904
1812.00,2.4601
1811.00,2.4314
1810.00,2.4051
1809.00,2.3816
1808.00,2.3601
1807.00,2.3381
1806.00,2.3137
1805.00,2.2863
1804.00,2.2564
1803.00,2.2241
1802.00,2.1903
1801.00,2.1580
1800.00,2.1314
1799.00,2.1133
1798.00,2.1045
1797.00,2.1046
1796.00,2.1143
1795.00,2.1352
1794.00,2.1683
1793.00,2.2133
1792.00,2.2686
1791.00,2.3299
1790.00,2.3925
1789.00,2.4549
1788.00,2.5166
1787.00,2.5768
1786.00,2.6353
1785.00,2.6926
1784.00,2.7478
1783.00,2.8000
1782.00,2.8485
1781.00,2.8929
1780.00,2.9332
1779.00,2.9711
1778.00,3.0087
1777.00,3.0456
1776.00,3.0789
1775.00,3.1062
1774.00,3.1260
1773.00,3.1395
1772.00,3.1516
1771.00,3.1673
1770.00,3.1872
1769.00,3.2070
1768.00,3.2218
1767.00,3.2334
1766.00,3.2486
1765.00,3.2682
1764.00,3.2837
1763.00,3.2882
1762.00,3.2844
1761.00,3.2793
1760.00,3.2754
1759.00,3.2730
1758.00,3.2733
1757.00,3.2754
1756.00,3.2753
1755.00,3.2730
1754.00,3.2740
1753.00,3.2814
1752.00,3.2935
1751.00,3.3094
1750.00,3.3332
1749.00,3.3690
1748.00,3.4115
1747.00,3.4487
1746.00,3.4785
1745.00,3.5140
1744.00,3.5708
1743.00,3.6528
1742.00,3.7517
1741.00,3.8568
1740.00,3.9606
1739.00,4.0516
1738.00,4.1078
1737.00,4.1267
1736.00,4.1324
1735.00,4.1327
1734.00,4.1280
1733.00,4.1440
1732.00,4.2009
1731.00,4.3005
1730.00,4.4497
1729.00,4.7107
1728.00,5.2282
1727.00,5.1387
1726.00,4.7454
1725.00,4.6355
1724.00,4.6944
1723.00,4.8345
1722.00,4.6972
1721.00,4.4741
1720.00,4.3732
1719.00,4.3676
1718.00,4.4281
1717.00,4.6150
1716.00,4.9023
1715.00,4.7196
1714.00,4.5650
1713.00,4.5261
1712.00,4.4325
1711.00,4.3678
1710.00,4.3643
1709.00,4.4187
1708.00,4.4755
1707.00,4.4613
1706.00,4.4513
1705.00,4.5302
1704.00,4.6374
1703.00,4.6335
1702.00,4.5392
1701.00,4.4690
1700.00,4.4811
1699.00,4.6460
1698.00,5.1633
1697.00,5.2561
1696.00,4.7766
1695.00,4.5861
1694.00,4.4349
1693.00,4.3292
1692.00,4.2571
1691.00,4.1944
1690.00,4.1197
1689.00,4.0162
1688.00,3.9086
1687.00,3.8141
1686.00,3.7299
1685.00,3.6530
1684.00,3.5939
1683.00,3.5587
1682.00,3.5445
1681.00,3.5382
1680.00,3.5207
1679.00,3.4883
1678.00,3.4490
1677.00,3.4079
1676.00,3.3606
1675.00,3.3037
1674.00,3.2409
1673.00,3.1778
1672.00,3.1204
1671.00,3.0699
1670.00,3.0211
1669.00,2.9692
1668.00,2.9150
1667.00,2.8634
1666.00,2.8203
1665.00,2.7895
1664.00,2.7723
1663.00,2.7685
1662.00,2.7770
1661.00,2.7954
1660.00,2.8219
1659.00,2.8546
1658.00,2.8903
1657.00,2.9277
1656.00,2.9673
1655.00,3.0041
1654.00,3.0297
1653.00,3.0409
1652.00,3.0413
1651.00,3.0446
1650.00,3.0707
1649.00,3.1240
1648.00,3.1781
1647.00,3.2071
1646.00,3.2176
1645.00,3.2258
1644.00,3.2366
1643.00,3.2479
1642.00,3.2624
1641.00,3.2771
1640.00,3.2878
1639.00,3.2970
1638.00,3.3072
1637.00,3.3151
1636.00,3.3173
1635.00,3.3156
1634.00,3.3148
1633.00,3.3128
1632.00,3.3059
1631.00,3.2968
1630.00,3.2888
1629.00,3.2850
1628.00,3.2857
1627.00,3.2862
1626.00,3.2836
1625.00,3.2778
1624.00,3.2685
1623.00,3.2535
1622.00,3.2312
1621.00,3.2060
1620.00,3.1859
1619.00,3.1720
1618.00,3.1529
1617.00,3.1169
1616.00,3.0690
1615.00,3.0304
1614.00,3.0162
1613.00,3.0193
1612.00,3.0198
1611.00,3.0067
1610.00,2.9839
1609.00,2.9580
1608.00,2.9290
1607.00,2.8947
1606.00,2.8563
1605.00,2.8152
1604.00,2.7710
1603.00,2.7245
1602.00,2.6763
1601.00,2.6268
1600.00,2.5754
1599.00,2.5220
1598.00,2.4671
1597.00,2.4110
1596.00,2.3544
1595.00,2.2986
1594.00,2.2454
1593.00,2.1966
1592.00,2.1525
1591.00,2.1136
1590.00,2.0806
1589.00,2.0545
1588.00,2.0356
1587.00,2.0248
1586.00,2.0229
1585.00,2.0309
1584.00,2.0491
1583.00,2.0784
1582.00,2.1185
1581.00,2.1671
1580.00,2.2208
1579.00,2.2760
1578.00,2.3263
1577.00,2.3677
1576.00,2.4056
1575.00,2.4515
1574.00,2.5126
1573.00,2.5862
1572.00,2.6616
1571.00,2.7291
1570.00,2.7877
1569.00,2.8392
1568.00,2.8805
1567.00,2.9116
1566.00,2.9389
1565.00,2.9702
1564.00,3.0065
1563.00,3.0413
1562.00,3.0650
1561.00,3.0728
1560.00,3.0715
1559.00,3.0802
1558.00,3.0923
1557.00,3.1084
1556.00,3.1343
1555.00,3.1558
1554.00,3.1715
1553.00,3.1820
1552.00,3.1952
1551.00,3.2158
1550.00,3.2390
1549.00,3.2577
1548.00,3.2705
1547.00,3.2807
1546.00,3.2900
1545.00,3.2972
1544.00,3.2983
1543.00,3.2935
1542.00,3.2904
1541.00,3.2946
1540.00,3.3004
1539.00,3.2981
1538.00,3.2935
1537.00,3.2973
1536.00,3.3124
1535.00,3.3292
1534.00,3.3327
1533.00,3.3251
1532.00,3.3178
1531.00,3.3153
1530.00,3.3131
1529.00,3.3080
1528.00,3.3033
1527.00,3.3002
1526.00,3.2954
1525.00,3.2859
1524.00,3.2716
1523.00,3.2529
1522.00,3.2293
1521.00,3.2036
1520.00,3.1847
1519.00,3.1805
1518.00,3.1874
1517.00,3.1934
1516.00,3.1895
1515.00,3.1771
1514.00,3.1613
1513.00,3.1421
1512.00,3.1209
1511.00,3.1018
1510.00,3.0857
1509.00,3.0651
1508.00,3.0265
1507.00,2.9670
1506.00,2.9026
1505.00,2.8638
1504.00,2.8450
1503.00,2.8294
1502.00,2.8172
1501.00,2.7989
1500.00,2.7681
1499.00,2.7279
1498.00,2.6791
1497.00,2.6189
1496.00,2.5490
1495.00,2.4797
1494.00,2.4222
1493.00,2.3789
1492.00,2.3420
1491.00,2.3028
1490.00,2.2604
1489.00,2.2209
1488.00,2.1944
1487.00,2.1866
1486.00,2.1953
1485.00,2.2173
1484.00,2.2512
1483.00,2.2966
1482.00,2.3527
1481.00,2.4173
1480.00,2.4876
1479.00,2.5615
1478.00,2.6375
1477.00,2.7140
1476.00,2.7878
1475.00,2.8544
1474.00,2.9141
1473.00,2.9738
1472.00,3.0401
1471.00,3.1123
1470.00,3.1833
1469.00,3.2481
1468.00,3.3094
1467.00,3.3727
1466.00,3.4386
1465.00,3.4979
1464.00,3.5350
1463.00,3.5450
1462.00,3.5433
1461.00,3.5477
1460.00,3.5656
1459.00,3.5944
1458.00,3.6280
1457.00,3.6623
1456.00,3.7008
1455.00,3.7512
1454.00,3.8185
1453.00,3.9092
1452.00,4.0261
1451.00,4.1687
1450.00,4.3161
1449.00,4.3651
1448.00,4.2344
1447.00,4.0162
1446.00,3.8126
1445.00,3.6585
1444.00,3.5531
1443.00,3.4879
1442.00,3.4559
1441.00,3.4539
1440.00,3.4795
1439.00,3.5277
1438.00,3.5895
1437.00,3.6562
1436.00,3.7226
1435.00,3.7845
1434.00,3.8347
1433.00,3.8644
1432.00,3.8736
1431.00,3.8723
1430.00,3.8785
1429.00,3.9003
1428.00,3.9284
1427.00,3.9641
1426.00,4.0140
1425.00,4.0614
1424.00,4.0770
1423.00,4.0597
1422.00,4.0327
1421.00,3.9938
1420.00,3.9166
1419.00,3.8013
1418.00,3.6855
1417.00,3.6020
1416.00,3.5558
1415.00,3.5327
1414.00,3.5180
1413.00,3.5075
1412.00,3.5035
1411.00,3.5065
1410.00,3.5123
1409.00,3.5129
1408.00,3.5048
1407.00,3.4946
1406.00,3.4881
1405.00,3.4836
1404.00,3.4799
1403.00,3.4806
1402.00,3.4880
1401.00,3.5001
1400.00,3.5150
1399.00,3.5349
1398.00,3.5611
1397.00,3.5862
1396.00,3.5980
1395.00,3.5946
1394.00,3.5868
1393.00,3.5829
1392.00,3.5799
1391.00,3.5722
1390.00,3.5585
1389.00,3.5403
1388.00,3.5180
1387.00,3.4918
1386.00,3.4676
1385.00,3.4559
1384.00,3.4593
1383.00,3.4698
1382.00,3.4762
1381.00,3.4714
1380.00,3.4561
1379.00,3.4374
1378.00,3.4217
1377.00,3.4081
1376.00,3.3902
1375.00,3.3650
1374.00,3.3368
1373.00,3.3122
1372.00,3.2915
1371.00,3.2680
1370.00,3.2355
1369.00,3.1940
1368.00,3.1486
1367.00,3.1061
1366.00,3.0713
1365.00,3.0439
1364.00,3.0187
1363.00,2.9896
1362.00,2.9556
1361.00,2.9227
1360.00,2.8983
1359.00,2.8857
1358.00,2.8858
1357.00,2.8994
1356.00,2.9278
1355.00,2.9732
1354.00,3.0375
1353.00,3.1221
1352.00,3.2252
1351.00,3.3416
1350.00,3.4637
1349.00,3.5798
1348.00,3.6685
1347.00,3.7024
1346.00,3.6748
1345.00,3.6167
1344.00,3.5686
1343.00,3.5530
1342.00,3.5744
1341.00,3.6246
1340.00,3.6787
1339.00,3.6997
1338.00,3.6604
1337.00,3.5712
1336.00,3.4646
1335.00,3.3628
1334.00,3.2779
1333.00,3.2164
1332.00,3.1790
1331.00,3.1619
1330.00,3.1606
1329.00,3.1726
1328.00,3.1979
1327.00,3.2365
1326.00,3.2865
1325.00,3.3435
1324.00,3.4020
1323.00,3.4582
1322.00,3.5126
1321.00,3.5688
1320.00,3.6315
1319.00,3.7078
1318.00,3.8046
1317.00,3.9192
1316.00,4.0289
1315.00,4.0999
1314.00,4.1339
1313.00,4.1751
1312.00,4.2689
1311.00,4.3996
1310.00,4.4682
1309.00,4.3036
1308.00,3.9938
1307.00,3.7643
1306.00,3.6214
1305.00,3.5268
1304.00,3.4504
1303.00,3.3794
1302.00,3.3188
1301.00,3.2774
1300.00,3.2573
1299.00,3.2546
1298.00,3.2631
1297.00,3.2800
1296.00,3.3062
1295.00,3.3429
1294.00,3.3860
1293.00,3.4274
1292.00,3.4620
1291.00,3.4913
1290.00,3.5181
1289.00,3.5420
1288.00,3.5596
1287.00,3.5690
1286.00,3.5711
1285.00,3.5681
1284.00,3.5625
1283.00,3.5597
1282.00,3.5684
1281.00,3.5957
1280.00,3.6416
1279.00,3.6962
1278.00,3.7407
1277.00,3.7558
1276.00,3.7365
1275.00,3.6968
1274.00,3.6607
1273.00,3.6525
1272.00,3.6845
1271.00,3.7441
1270.00,3.7933
1269.00,3.8043
1268.00,3.7915
1267.00,3.7849
1266.00,3.7910
1265.00,3.7929
1264.00,3.7797
1263.00,3.7631
1262.00,3.7604
1261.00,3.7696
1260.00,3.7683
1259.00,3.7407
1258.00,3.7012
1257.00,3.6759
1256.00,3.6756
1255.00,3.6875
1254.00,3.6898
1253.00,3.6756
1252.00,3.6573
1251.00,3.6484
1250.00,3.6500
1249.00,3.6544
1248.00,3.6580
1247.00,3.6637
1246.00,3.6711
1245.00,3.6756
1244.00,3.6789
1243.00,3.6886
1242.00,3.7012
1241.00,3.6962
1240.00,3.6633
1239.00,3.6234
1238.00,3.6051
1237.00,3.6211
1236.00,3.6698
1235.00,3.7439
1234.00,3.8328
1233.00,3.9148
1232.00,3.9665
1231.00,4.0061
1230.00,4.0797
1229.00,4.2057
1228.00,4.3219
1227.00,4.3239
1226.00,4.2981
1225.00,4.3761
1224.00,4.6270
1223.00,5.0538
1222.00,5.0583
1221.00,4.5963
1220.00,4.3857
1219.00,4.3554
1218.00,4.4454
1217.00,4.4445
1216.00,4.2696
1215.00,4.1840
1214.00,4.1766
1213.00,4.0996
1212.00,3.9802
1211.00,3.9223
1210.00,3.9136
1209.00,3.9007
1208.00,3.8656
1207.00,3.8366
1206.00,3.8280
1205.00,3.8093
1204.00,3.7399
1203.00,3.6329
1202.00,3.5337
1201.00,3.4665
1200.00,3.4289
1199.00,3.4052
1198.00,3.3783
1197.00,3.3424
1196.00,3.3078
1195.00,3.2884
1194.00,3.2863
1193.00,3.2877
1192.00,3.2784
1191.00,3.2617
1190.00,3.2519
1189.00,3.2544
1188.00,3.2639
1187.00,3.2769
1186.00,3.3000
1185.00,3.3380
1184.00,3.3784
1183.00,3.3999
1182.00,3.3992
1181.00,3.3927
1180.00,3.3975
1179.00,3.4202
1178.00,3.4554
1177.00,3.4877
1176.00,3.5077
1175.00,3.5208
1174.00,3.5398
1173.00,3.5743
1172.00,3.6185
1171.00,3.6532
1170.00,3.6671
1169.00,3.6672
1168.00,3.6645
1167.00,3.6721
1166.00,3.7166
1165.00,3.8279
1164.00,4.0095
1163.00,4.1567
1162.00,4.0696
1161.00,3.9250
1160.00,3.8644
1159.00,3.8692
1158.00,3.8782
1157.00,3.8653
1156.00,3.8456
1155.00,3.8126
1154.00,3.7620
1153.00,3.7046
1152.00,3.6645
1151.00,3.6611
1150.00,3.6934
1149.00,3.7561
1148.00,3.8430
1147.00,3.9196
1146.00,3.9313
1145.00,3.8795
1144.00,3.8243
1143.00,3.8164
1142.00,3.8701
1141.00,3.9619
1140.00,4.0312
1139.00,4.0302
1138.00,3.9801
1137.00,3.9280
1136.00,3.9052
1135.00,3.9266
1134.00,3.9786
1133.00,4.0192
1132.00,4.0476
1131.00,4.0886
1130.00,4.1476
1129.00,4.2441
1128.00,4.3609
1127.00,4.3187
1126.00,4.1663
1125.00,4.0425
1124.00,3.9639
1123.00,3.9680
1122.00,4.0729
1121.00,4.2672
1120.00,4.4835
1119.00,4.4501
1118.00,4.3657
1117.00,4.4919
1116.00,4.7371
1115.00,4.4870
1114.00,4.3693
1113.00,4.3390
1112.00,4.3871
1111.00,4.5199
1110.00,4.5068
1109.00,4.3841
1108.00,4.3465
1107.00,4.3867
1106.00,4.4449
1105.00,4.4411
1104.00,4.4388
1103.00,4.5654
1102.00,4.8614
1101.00,4.8866
1100.00,4.6445
1099.00,4.3383
1098.00,4.1950
1097.00,4.2522
1096.00,4.5611
1095.00,4.8026
1094.00,4.5908
1093.00,4.5391
1092.00,4.3434
1091.00,4.1142
1090.00,3.9660
1089.00,3.9087
1088.00,3.9167
1087.00,3.9346
1086.00,3.8986
1085.00,3.8183
1084.00,3.7716
1083.00,3.7850
1082.00,3.8432
1081.00,3.9231
1080.00,3.9629
1079.00,3.9184
1078.00,3.8685
1077.00,3.8626
1076.00,3.8970
1075.00,3.9479
1074.00,3.9684
1073.00,3.9299
1072.00,3.8683
1071.00,3.8058
1070.00,3.7577
1069.00,3.7326
1068.00,3.7270
1067.00,3.7376
1066.00,3.7559
1065.00,3.7646
1064.00,3.7565
1063.00,3.7459
1062.00,3.7671
1061.00,3.8419
1060.00,3.9495
1059.00,4.0241
1058.00,4.0099
1057.00,3.9308
1056.00,3.8487
1055.00,3.7986
1054.00,3.7890
1053.00,3.8206
1052.00,3.9123
1051.00,4.1142
1050.00,4.4159
1049.00,4.2953
1048.00,4.0187
1047.00,3.7860
1046.00,3.6589
1045.00,3.6354
1044.00,3.6854
1043.00,3.7610
1042.00,3.8194
1041.00,3.8623
1040.00,3.9062
1039.00,3.9195
1038.00,3.8569
1037.00,3.7466
1036.00,3.6467
1035.00,3.5836
1034.00,3.5589
1033.00,3.5719
1032.00,3.6240
1031.00,3.7104
1030.00,3.8124
1029.00,3.9012
1028.00,3.9600
1027.00,3.9971
1026.00,4.0235
1025.00,4.0428
1024.00,4.0825
1023.00,4.1791
1022.00,4.3309
1021.00,4.5414
1020.00,4.7432
1019.00,4.5386
1018.00,4.4063
1017.00,4.3996
1016.00,4.3486
1015.00,4.2122
1014.00,4.1734
1013.00,4.2258
1012.00,4.2106
1011.00,4.1243
1010.00,4.0931
1009.00,4.1326
1008.00,4.1588
1007.00,4.0705
1006.00,3.9814
1005.00,3.9747
1004.00,4.0477
1003.00,4.1576
1002.00,4.2420
1001.00,4.2678
1000.00,4.2703
999.00,4.2535
998.00,4.2066
997.00,4.2054
996.00,4.3047
995.00,4.4861
994.00,4.6126
993.00,4.7647
992.00,5.1794
991.00,4.7410
990.00,4.5524
989.00,4.4777
988.00,4.4402
987.00,4.4813
986.00,4.6225
985.00,4.8192
984.00,4.8041
983.00,4.6227
982.00,4.5068
981.00,4.3847
980.00,4.2305
979.00,4.1046
978.00,4.0356
977.00,4.0265
976.00,4.0801
975.00,4.1947
974.00,4.3427
973.00,4.5022
972.00,4.8002
971.00,5.3666
970.00,4.9131
969.00,4.5717
968.00,4.2942
967.00,4.2234
966.00,4.3167
965.00,4.2985
964.00,4.1997
963.00,4.2212
962.00,4.2818
961.00,4.3358
960.00,4.3843
959.00,4.3680
958.00,4.4312
957.00,4.6171
956.00,4.4245
955.00,4.3251
954.00,4.4257
953.00,4.6184
952.00,4.6580
951.00,4.6596
950.00,5.0245
949.00,4.8846
948.00,4.6946
947.00,4.9187
946.00,4.5454
945.00,4.3318
944.00,4.3422
943.00,4.4761
942.00,4.4688
941.00,4.3543
940.00,4.2704
939.00,4.1200
938.00,3.9683
937.00,3.9117
936.00,3.9479
935.00,4.0134
934.00,4.0137
933.00,3.9625
932.00,3.9618
931.00,4.0901
930.00,4.4268
929.00,4.9742
928.00,5.1602
927.00,5.2350
926.00,5.4667
925.00,4.9827
924.00,4.5833
923.00,4.3111
922.00,4.1461
921.00,4.0960
920.00,4.1584
919.00,4.3691
918.00,4.6753
917.00,4.5933
916.00,4.6539
915.00,5.0302
914.00,4.8604
913.00,4.3035
912.00,4.0619
911.00,3.9820
910.00,4.0012
909.00,4.0896
908.00,4.2647
907.00,4.6571
906.00,4.8311
905.00,4.6191
904.00,4.5997
903.00,4.2700
902.00,4.0854
901.00,4.1104
900.00,4.2586
899.00,4.1832
898.00,4.0499
897.00,4.0454
896.00,4.1251
895.00,4.2225
894.00,4.2966
893.00,4.4110
892.00,4.5686
891.00,4.4466
890.00,4.2762
889.00,4.1467
888.00,4.0439
887.00,4.0047
886.00,4.0346
885.00,4.0687
884.00,4.0369
883.00,4.0270
882.00,4.0563
881.00,3.9985
880.00,3.8556
879.00,3.7439
878.00,3.7155
877.00,3.7648
876.00,3.8287
875.00,3.8076
874.00,3.7343
873.00,3.7034
872.00,3.7482
871.00,3.8575
870.00,3.9950
869.00,4.1260
868.00,4.1566
867.00,4.0569
866.00,3.9875
865.00,4.0198
864.00,4.2204
863.00,4.6223
862.00,4.3837
861.00,4.2089
860.00,4.2600
859.00,4.4710
858.00,4.5264
857.00,4.5122
856.00,4.2848
855.00,4.0321
854.00,3.9607
853.00,4.0097
852.00,4.1166
851.00,4.2569
850.00,4.4827
849.00,4.9646
848.00,5.3184
847.00,4.5617
846.00,4.1675
845.00,4.0074
844.00,3.9930
843.00,4.0822
842.00,4.2017
841.00,4.3446
840.00,4.6406
839.00,4.3641
838.00,4.0600
837.00,3.9687
836.00,4.0096
835.00,4.0946
834.00,4.1142
833.00,4.1386
832.00,4.1957
831.00,4.1574
830.00,4.0839
829.00,4.1326
828.00,4.2549
827.00,4.1298
826.00,3.9858
825.00,3.9685
824.00,4.0168
823.00,4.0783
822.00,4.1932
821.00,4.3800
820.00,4.2950
819.00,4.0819
818.00,3.9761
817.00,3.9631
816.00,4.1293
815.00,4.5746
814.00,4.3385
813.00,4.0628
812.00,3.9576
811.00,3.9733
810.00,4.0089
809.00,3.9730
808.00,3.9988
807.00,4.0218
806.00,3.9385
805.00,3.9018
804.00,3.9556
803.00,3.9883
802.00,3.9176
801.00,3.8704
800.00,3.9076
799.00,3.9528
798.00,3.9372
797.00,3.9325
796.00,3.9305
795.00,3.8980
794.00,3.8977
793.00,3.9722
792.00,4.1024
791.00,4.2974
790.00,4.5559
789.00,4.3268
788.00,4.0822
787.00,4.0247
786.00,4.0968
785.00,4.2424
784.00,4.3063
783.00,4.1837
782.00,3.9977
781.00,3.8627
780.00,3.8197
779.00,3.8756
778.00,4.0125
777.00,4.1637
776.00,4.2246
775.00,4.2089
774.00,4.2348
773.00,4.3553
772.00,4.5689
771.00,4.6500
770.00,4.4317
769.00,4.2777
768.00,4.1991
767.00,4.1692
766.00,4.1534
765.00,4.0766
764.00,3.9592
763.00,3.8739
762.00,3.8371
761.00,3.8111
760.00,3.7651
759.00,3.7175
758.00,3.7155
757.00,3.7932
756.00,3.9883
755.00,4.3277
754.00,4.4744
753.00,4.3569
752.00,4.4295
751.00,4.4888
750.00,4.2367
749.00,4.0869
748.00,3.9852
747.00,3.8551
746.00,3.7639
745.00,3.7109
744.00,3.6734
743.00,3.6705
742.00,3.7287
741.00,3.8534
740.00,4.0355
739.00,4.2105
738.00,4.3493
737.00,4.4128
736.00,4.2242
735.00,4.1185
734.00,4.1403
733.00,4.3609
732.00,4.8875
731.00,5.0811
730.00,5.0209
729.00,4.2454
728.00,3.9392
727.00,3.8423
726.00,3.8836
725.00,4.1023
724.00,4.4769
723.00,4.7968
722.00,5.0084
721.00,5.1816
720.00,4.8677
719.00,4.4329
718.00,4.2345
717.00,4.1538
716.00,4.1173
715.00,4.1051
714.00,4.1076
713.00,4.1617
712.00,4.2704
711.00,4.2404
710.00,4.1047
709.00,4.1051
708.00,4.2467
707.00,4.1543
706.00,3.9045
705.00,3.7851
704.00,3.7500
703.00,3.7369
702.00,3.7290
701.00,3.7399
700.00,3.7919
