Created as New Dataset,Sample 102 By Administrator Date Wednesday, November 24 2021
cm-1,A
7502.00,0.9074
7501.00,0.9150
7500.00,0.9228
7499.00,0.9306
7498.00,0.9386
7497.00,0.9468
7496.00,0.9551
7495.00,0.9636
7494.00,0.9722
7493.00,0.9809
7492.00,0.9897
7491.00,0.9992
7490.00,1.0094
7489.00,1.0199
7488.00,1.0299
7487.00,1.0391
7486.00,1.0472
7485.00,1.0544
7484.00,1.0610
7483.00,1.0671
7482.00,1.0729
7481.00,1.0788
7480.00,1.0852
7479.00,1.0921
7478.00,1.0989
7477.00,1.1050
7476.00,1.1111
7475.00,1.1180
7474.00,1.1258
7473.00,1.1332
7472.00,1.1396
7471.00,1.1450
7470.00,1.1502
7469.00,1.1553
7468.00,1.1596
7467.00,1.1626
7466.00,1.1644
7465.00,1.1660
7464.00,1.1682
7463.00,1.1714
7462.00,1.1749
7461.00,1.1776
7460.00,1.1791
7459.00,1.1801
7458.00,1.1814
7457.00,1.1828
7456.00,1.1832
7455.00,1.1820
7454.00,1.1797
7453.00,1.1777
7452.00,1.1760
7451.00,1.1743
7450.00,1.1718
7449.00,1.1687
7448.00,1.1656
7447.00,1.1629
7446.00,1.1600
7445.00,1.1566
7444.00,1.1526
7443.00,1.1484
7442.00,1.1439
7441.00,1.1390
7440.00,1.1335
7439.00,1.1272
7438.00,1.1201
7437.00,1.1125
7436.00,1.1049
7435.00,1.0976
7434.00,1.0906
7433.00,1.0832
7432.00,1.0750
7431.00,1.0664
7430.00,1.0579
7429.00,1.0496
7428.00,1.0412
7427.00,1.0321
7426.00,1.0222
7425.00,1.0121
7424.00,1.0027
7423.00,0.9940
7422.00,0.9852
7421.00,0.9755
7420.00,0.9649
7419.00,0.9545
7418.00,0.9451
7417.00,0.9359
7416.00,0.9261
7415.00,0.9158
7414.00,0.9057
7413.00,0.8966
7412.00,0.8879
7411.00,0.8790
7410.00,0.8698
7409.00,0.8609
7408.00,0.8530
7407.00,0.8462
7406.00,0.8399
7405.00,0.8338
7404.00,0.8277
7403.00,0.8221
7402.00,0.8169
7401.00,0.8121
7400.00,0.8074
7399.00,0.8030
7398.00,0.7989
7397.00,0.7952
7396.00,0.7918
7395.00,0.7890
7394.00,0.7871
7393.00,0.7861
7392.00,0.7858
7391.00,0.7860
7390.00,0.7868
7389.00,0.7883
7388.00,0.7905
7387.00,0.7929
7386.00,0.7954
7385.00,0.7981
7384.00,0.8014
7383.00,0.8053
7382.00,0.8097
7381.00,0.8147
7380.00,0.8200
7379.00,0.8256
7378.00,0.8315
7377.00,0.8377
7376.00,0.8443
7375.00,0.8514
7374.00,0.8588
7373.00,0.8664
7372.00,0.8741
7371.00,0.8818
7370.00,0.8896
7369.00,0.8976
7368.00,0.9055
7367.00,0.9131
7366.00,0.9206
7365.00,0.9285
7364.00,0.9369
7363.00,0.9450
7362.00,0.9528
7361.00,0.9607
7360.00,0.9693
7359.00,0.9785
7358.00,0.9874
7357.00,0.9956
7356.00,1.0033
7355.00,1.0110
7354.00,1.0189
7353.00,1.0269
7352.00,1.0346
7351.00,1.0418
7350.00,1.0485
7349.00,1.0547
7348.00,1.0604
7347.00,1.0657
7346.00,1.0706
7345.00,1.0754
7344.00,1.0805
7343.00,1.0862
7342.00,1.0924
7341.00,1.0985
7340.00,1.1041
7339.00,1.1084
7338.00,1.1113
7337.00,1.1127
7336.00,1.1133
7335.00,1.1135
7334.00,1.1138
7333.00,1.1144
7332.00,1.1152
7331.00,1.1161
7330.00,1.1170
7329.00,1.1177
7328.00,1.1182
7327.00,1.1183
7326.00,1.1174
7325.00,1.1156
7324.00,1.1136
7323.00,1.1122
7322.00,1.1116
7321.00,1.1115
7320.00,1.1109
7319.00,1.1096
7318.00,1.1077
7317.00,1.1060
7316.00,1.1048
7315.00,1.1042
7314.00,1.1035
7313.00,1.1024
7312.00,1.1010
7311.00,1.0993
7310.00,1.0970
7309.00,1.0935
7308.00,1.0886
7307.00,1.0830
7306.00,1.0777
7305.00,1.0733
7304.00,1.0700
7303.00,1.0673
7302.00,1.0647
7301.00,1.0616
7300.00,1.0575
7299.00,1.0524
7298.00,1.0464
7297.00,1.0397
7296.00,1.0326
7295.00,1.0249
7294.00,1.0163
7293.00,1.0069
7292.00,0.9972
7291.00,0.9875
7290.00,0.9777
7289.00,0.9679
7288.00,0.9581
7287.00,0.9484
7286.00,0.9390
7285.00,0.9298
7284.00,0.9209
7283.00,0.9123
7282.00,0.9039
7281.00,0.8956
7280.00,0.8875
7279.00,0.8797
7278.00,0.8721
7277.00,0.8646
7276.00,0.8571
7275.00,0.8499
7274.00,0.8429
7273.00,0.8360
7272.00,0.8292
7271.00,0.8226
7270.00,0.8163
7269.00,0.8105
7268.00,0.8048
7267.00,0.7995
7266.00,0.7949
7265.00,0.7912
7264.00,0.7883
7263.00,0.7859
7262.00,0.7839
7261.00,0.7824
7260.00,0.7815
7259.00,0.7810
7258.00,0.7807
7257.00,0.7808
7256.00,0.7811
7255.00,0.7820
7254.00,0.7833
7253.00,0.7854
7252.00,0.7885
7251.00,0.7924
7250.00,0.7968
7249.00,0.8016
7248.00,0.8066
7247.00,0.8120
7246.00,0.8179
7245.00,0.8241
7244.00,0.8304
7243.00,0.8369
7242.00,0.8438
7241.00,0.8513
7240.00,0.8594
7239.00,0.8676
7238.00,0.8756
7237.00,0.8833
7236.00,0.8912
7235.00,0.8998
7234.00,0.9089
7233.00,0.9181
7232.00,0.9272
7231.00,0.9364
7230.00,0.9460
7229.00,0.9558
7228.00,0.9653
7227.00,0.9744
7226.00,0.9834
7225.00,0.9925
7224.00,1.0016
7223.00,1.0103
7222.00,1.0189
7221.00,1.0277
7220.00,1.0368
7219.00,1.0457
7218.00,1.0542
7217.00,1.0622
7216.00,1.0701
7215.00,1.0779
7214.00,1.0855
7213.00,1.0927
7212.00,1.0999
7211.00,1.1072
7210.00,1.1145
7209.00,1.1215
7208.00,1.1281
7207.00,1.1345
7206.00,1.1408
7205.00,1.1470
7204.00,1.1526
7203.00,1.1575
7202.00,1.1619
7201.00,1.1660
7200.00,1.1700
7199.00,1.1737
7198.00,1.1769
7197.00,1.1797
7196.00,1.1824
7195.00,1.1853
7194.00,1.1881
7193.00,1.1902
7192.00,1.1916
7191.00,1.1924
7190.00,1.1931
7189.00,1.1939
7188.00,1.1943
7187.00,1.1943
7186.00,1.1941
7185.00,1.1939
7184.00,1.1935
7183.00,1.1924
7182.00,1.1902
7181.00,1.1873
7180.00,1.1840
7179.00,1.1804
7178.00,1.1764
7177.00,1.1723
7176.00,1.1683
7175.00,1.1644
7174.00,1.1604
7173.00,1.1557
7172.00,1.1501
7171.00,1.1438
7170.00,1.1373
7169.00,1.1307
7168.00,1.1238
7167.00,1.1165
7166.00,1.1087
7165.00,1.1007
7164.00,1.0924
7163.00,1.0836
7162.00,1.0740
7161.00,1.0639
7160.00,1.0540
7159.00,1.0445
7158.00,1.0351
7157.00,1.0252
7156.00,1.0151
7155.00,1.0052
7154.00,0.9953
7153.00,0.9853
7152.00,0.9748
7151.00,0.9643
7150.00,0.9543
7149.00,0.9446
7148.00,0.9349
7147.00,0.9250
7146.00,0.9150
7145.00,0.9050
7144.00,0.8954
7143.00,0.8862
7142.00,0.8773
7141.00,0.8686
7140.00,0.8601
7139.00,0.8520
7138.00,0.8442
7137.00,0.8367
7136.00,0.8294
7135.00,0.8224
7134.00,0.8160
7133.00,0.8101
7132.00,0.8050
7131.00,0.8006
7130.00,0.7969
7129.00,0.7937
7128.00,0.7907
7127.00,0.7882
7126.00,0.7864
7125.00,0.7853
7124.00,0.7848
7123.00,0.7849
7122.00,0.7858
7121.00,0.7874
7120.00,0.7896
7119.00,0.7920
7118.00,0.7948
7117.00,0.7979
7116.00,0.8013
7115.00,0.8049
7114.00,0.8089
7113.00,0.8135
7112.00,0.8189
7111.00,0.8250
7110.00,0.8314
7109.00,0.8382
7108.00,0.8454
7107.00,0.8531
7106.00,0.8612
7105.00,0.8696
7104.00,0.8779
7103.00,0.8864
7102.00,0.8950
7101.00,0.9038
7100.00,0.9125
7099.00,0.9211
7098.00,0.9299
7097.00,0.9391
7096.00,0.9486
7095.00,0.9580
7094.00,0.9672
7093.00,0.9762
7092.00,0.9849
7091.00,0.9933
7090.00,1.0018
7089.00,1.0105
7088.00,1.0194
7087.00,1.0283
7086.00,1.0372
7085.00,1.0460
7084.00,1.0541
7083.00,1.0615
7082.00,1.0682
7081.00,1.0751
7080.00,1.0826
7079.00,1.0903
7078.00,1.0980
7077.00,1.1056
7076.00,1.1130
7075.00,1.1203
7074.00,1.1272
7073.00,1.1333
7072.00,1.1386
7071.00,1.1434
7070.00,1.1480
7069.00,1.1526
7068.00,1.1569
7067.00,1.1607
7066.00,1.1642
7065.00,1.1675
7064.00,1.1711
7063.00,1.1747
7062.00,1.1776
7061.00,1.1796
7060.00,1.1808
7059.00,1.1820
7058.00,1.1833
7057.00,1.1845
7056.00,1.1850
7055.00,1.1851
7054.00,1.1854
7053.00,1.1863
7052.00,1.1870
7051.00,1.1865
7050.00,1.1847
7049.00,1.1825
7048.00,1.1804
7047.00,1.1782
7046.00,1.1750
7045.00,1.1709
7044.00,1.1666
7043.00,1.1629
7042.00,1.1594
7041.00,1.1555
7040.00,1.1506
7039.00,1.1451
7038.00,1.1396
7037.00,1.1341
7036.00,1.1283
7035.00,1.1216
7034.00,1.1145
7033.00,1.1076
7032.00,1.1011
7031.00,1.0942
7030.00,1.0864
7029.00,1.0777
7028.00,1.0684
7027.00,1.0588
7026.00,1.0491
7025.00,1.0393
7024.00,1.0294
7023.00,1.0198
7022.00,1.0104
7021.00,1.0009
7020.00,0.9911
7019.00,0.9810
7018.00,0.9707
7017.00,0.9605
7016.00,0.9504
7015.00,0.9403
7014.00,0.9304
7013.00,0.9207
7012.00,0.9110
7011.00,0.9014
7010.00,0.8916
7009.00,0.8821
7008.00,0.8729
7007.00,0.8642
7006.00,0.8558
7005.00,0.8475
7004.00,0.8394
7003.00,0.8315
7002.00,0.8239
7001.00,0.8169
7000.00,0.8104
6999.00,0.8046
6998.00,0.7994
6997.00,0.7949
6996.00,0.7911
6995.00,0.7877
6994.00,0.7847
6993.00,0.7822
6992.00,0.7802
6991.00,0.7788
6990.00,0.7781
6989.00,0.7781
6988.00,0.7787
6987.00,0.7798
6986.00,0.7815
6985.00,0.7836
6984.00,0.7863
6983.00,0.7896
6982.00,0.7936
6981.00,0.7981
6980.00,0.8031
6979.00,0.8084
6978.00,0.8140
6977.00,0.8201
6976.00,0.8266
6975.00,0.8334
6974.00,0.8405
6973.00,0.8480
6972.00,0.8557
6971.00,0.8639
6970.00,0.8725
6969.00,0.8814
6968.00,0.8904
6967.00,0.8995
6966.00,0.9086
6965.00,0.9179
6964.00,0.9275
6963.00,0.9373
6962.00,0.9471
6961.00,0.9566
6960.00,0.9661
6959.00,0.9756
6958.00,0.9851
6957.00,0.9944
6956.00,1.0033
6955.00,1.0122
6954.00,1.0212
6953.00,1.0306
6952.00,1.0401
6951.00,1.0496
6950.00,1.0590
6949.00,1.0682
6948.00,1.0770
6947.00,1.0857
6946.00,1.0942
6945.00,1.1025
6944.00,1.1106
6943.00,1.1184
6942.00,1.1256
6941.00,1.1323
6940.00,1.1387
6939.00,1.1448
6938.00,1.1507
6937.00,1.1563
6936.00,1.1616
6935.00,1.1669
6934.00,1.1721
6933.00,1.1770
6932.00,1.1815
6931.00,1.1855
6930.00,1.1892
6929.00,1.1924
6928.00,1.1955
6927.00,1.1984
6926.00,1.2010
6925.00,1.2028
6924.00,1.2040
6923.00,1.2050
6922.00,1.2058
6921.00,1.2065
6920.00,1.2068
6919.00,1.2070
6918.00,1.2071
6917.00,1.2072
6916.00,1.2069
6915.00,1.2063
6914.00,1.2051
6913.00,1.2033
6912.00,1.2007
6911.00,1.1976
6910.00,1.1941
6909.00,1.1902
6908.00,1.1858
6907.00,1.1810
6906.00,1.1760
6905.00,1.1706
6904.00,1.1648
6903.00,1.1588
6902.00,1.1530
6901.00,1.1470
6900.00,1.1406
6899.00,1.1337
6898.00,1.1263
6897.00,1.1183
6896.00,1.1093
6895.00,1.0994
6894.00,1.0892
6893.00,1.0792
6892.00,1.0693
6891.00,1.0593
6890.00,1.0493
6889.00,1.0396
6888.00,1.0299
6887.00,1.0196
6886.00,1.0089
6885.00,0.9981
6884.00,0.9874
6883.00,0.9767
6882.00,0.9659
6881.00,0.9551
6880.00,0.9447
6879.00,0.9344
6878.00,0.9238
6877.00,0.9129
6876.00,0.9020
6875.00,0.8916
6874.00,0.8820
6873.00,0.8728
6872.00,0.8638
6871.00,0.8552
6870.00,0.8469
6869.00,0.8390
6868.00,0.8315
6867.00,0.8242
6866.00,0.8175
6865.00,0.8114
6864.00,0.8061
6863.00,0.8013
6862.00,0.7971
6861.00,0.7933
6860.00,0.7899
6859.00,0.7868
6858.00,0.7842
6857.00,0.7823
6856.00,0.7810
6855.00,0.7805
6854.00,0.7808
6853.00,0.7817
6852.00,0.7832
6851.00,0.7852
6850.00,0.7878
6849.00,0.7911
6848.00,0.7950
6847.00,0.7993
6846.00,0.8040
6845.00,0.8093
6844.00,0.8151
6843.00,0.8212
6842.00,0.8275
6841.00,0.8341
6840.00,0.8412
6839.00,0.8489
6838.00,0.8570
6837.00,0.8655
6836.00,0.8741
6835.00,0.8831
6834.00,0.8922
6833.00,0.9016
6832.00,0.9108
6831.00,0.9199
6830.00,0.9292
6829.00,0.9388
6828.00,0.9486
6827.00,0.9585
6826.00,0.9683
6825.00,0.9780
6824.00,0.9879
6823.00,0.9977
6822.00,1.0076
6821.00,1.0174
6820.00,1.0270
6819.00,1.0364
6818.00,1.0458
6817.00,1.0552
6816.00,1.0648
6815.00,1.0741
6814.00,1.0828
6813.00,1.0908
6812.00,1.0980
6811.00,1.1049
6810.00,1.1119
6809.00,1.1191
6808.00,1.1263
6807.00,1.1334
6806.00,1.1405
6805.00,1.1479
6804.00,1.1551
6803.00,1.1616
6802.00,1.1669
6801.00,1.1718
6800.00,1.1770
6799.00,1.1821
6798.00,1.1863
6797.00,1.1894
6796.00,1.1918
6795.00,1.1944
6794.00,1.1971
6793.00,1.1998
6792.00,1.2024
6791.00,1.2050
6790.00,1.2075
6789.00,1.2094
6788.00,1.2103
6787.00,1.2105
6786.00,1.2102
6785.00,1.2095
6784.00,1.2086
6783.00,1.2077
6782.00,1.2067
6781.00,1.2053
6780.00,1.2029
6779.00,1.1996
6778.00,1.1959
6777.00,1.1920
6776.00,1.1880
6775.00,1.1839
6774.00,1.1796
6773.00,1.1752
6772.00,1.1703
6771.00,1.1646
6770.00,1.1583
6769.00,1.1517
6768.00,1.1450
6767.00,1.1381
6766.00,1.1307
6765.00,1.1230
6764.00,1.1151
6763.00,1.1070
6762.00,1.0984
6761.00,1.0893
6760.00,1.0799
6759.00,1.0705
6758.00,1.0611
6757.00,1.0515
6756.00,1.0417
6755.00,1.0317
6754.00,1.0217
6753.00,1.0114
6752.00,1.0010
6751.00,0.9906
6750.00,0.9802
6749.00,0.9697
6748.00,0.9588
6747.00,0.9478
6746.00,0.9369
6745.00,0.9263
6744.00,0.9160
6743.00,0.9059
6742.00,0.8959
6741.00,0.8862
6740.00,0.8765
6739.00,0.8668
6738.00,0.8574
6737.00,0.8483
6736.00,0.8397
6735.00,0.8314
6734.00,0.8235
6733.00,0.8163
6732.00,0.8098
6731.00,0.8038
6730.00,0.7982
6729.00,0.7930
6728.00,0.7881
6727.00,0.7838
6726.00,0.7800
6725.00,0.7768
6724.00,0.7744
6723.00,0.7726
6722.00,0.7716
6721.00,0.7712
6720.00,0.7715
6719.00,0.7723
6718.00,0.7736
6717.00,0.7755
6716.00,0.7779
6715.00,0.7809
6714.00,0.7847
6713.00,0.7893
6712.00,0.7945
6711.00,0.8000
6710.00,0.8060
6709.00,0.8125
6708.00,0.8196
6707.00,0.8271
6706.00,0.8348
6705.00,0.8427
6704.00,0.8507
6703.00,0.8590
6702.00,0.8676
6701.00,0.8764
6700.00,0.8856
6699.00,0.8951
6698.00,0.9050
6697.00,0.9152
6696.00,0.9255
6695.00,0.9358
6694.00,0.9460
6693.00,0.9561
6692.00,0.9661
6691.00,0.9761
6690.00,0.9860
6689.00,0.9957
6688.00,1.0053
6687.00,1.0150
6686.00,1.0252
6685.00,1.0356
6684.00,1.0457
6683.00,1.0555
6682.00,1.0653
6681.00,1.0751
6680.00,1.0845
6679.00,1.0933
6678.00,1.1016
6677.00,1.1100
6676.00,1.1181
6675.00,1.1259
6674.00,1.1334
6673.00,1.1409
6672.00,1.1487
6671.00,1.1565
6670.00,1.1640
6669.00,1.1710
6668.00,1.1775
6667.00,1.1833
6666.00,1.1885
6665.00,1.1933
6664.00,1.1978
6663.00,1.2022
6662.00,1.2065
6661.00,1.2106
6660.00,1.2143
6659.00,1.2175
6658.00,1.2203
6657.00,1.2226
6656.00,1.2247
6655.00,1.2265
6654.00,1.2281
6653.00,1.2292
6652.00,1.2296
6651.00,1.2293
6650.00,1.2284
6649.00,1.2273
6648.00,1.2261
6647.00,1.2249
6646.00,1.2236
6645.00,1.2220
6644.00,1.2198
6643.00,1.2172
6642.00,1.2141
6641.00,1.2107
6640.00,1.2067
6639.00,1.2020
6638.00,1.1970
6637.00,1.1919
6636.00,1.1867
6635.00,1.1811
6634.00,1.1749
6633.00,1.1680
6632.00,1.1606
6631.00,1.1528
6630.00,1.1448
6629.00,1.1366
6628.00,1.1281
6627.00,1.1194
6626.00,1.1104
6625.00,1.1009
6624.00,1.0911
6623.00,1.0809
6622.00,1.0705
6621.00,1.0600
6620.00,1.0492
6619.00,1.0383
6618.00,1.0273
6617.00,1.0166
6616.00,1.0057
6615.00,0.9946
6614.00,0.9830
6613.00,0.9713
6612.00,0.9597
6611.00,0.9481
6610.00,0.9366
6609.00,0.9250
6608.00,0.9135
6607.00,0.9025
6606.00,0.8920
6605.00,0.8819
6604.00,0.8719
6603.00,0.8621
6602.00,0.8529
6601.00,0.8444
6600.00,0.8364
6599.00,0.8286
6598.00,0.8211
6597.00,0.8142
6596.00,0.8079
6595.00,0.8021
6594.00,0.7967
6593.00,0.7919
6592.00,0.7878
6591.00,0.7844
6590.00,0.7816
6589.00,0.7794
6588.00,0.7777
6587.00,0.7767
6586.00,0.7764
6585.00,0.7769
6584.00,0.7779
6583.00,0.7795
6582.00,0.7818
6581.00,0.7847
6580.00,0.7883
6579.00,0.7924
6578.00,0.7971
6577.00,0.8025
6576.00,0.8085
6575.00,0.8150
6574.00,0.8220
6573.00,0.8296
6572.00,0.8376
6571.00,0.8458
6570.00,0.8541
6569.00,0.8625
6568.00,0.8711
6567.00,0.8800
6566.00,0.8892
6565.00,0.8985
6564.00,0.9081
6563.00,0.9180
6562.00,0.9282
6561.00,0.9387
6560.00,0.9491
6559.00,0.9594
6558.00,0.9696
6557.00,0.9798
6556.00,0.9901
6555.00,1.0003
6554.00,1.0104
6553.00,1.0201
6552.00,1.0297
6551.00,1.0392
6550.00,1.0487
6549.00,1.0582
6548.00,1.0675
6547.00,1.0768
6546.00,1.0860
6545.00,1.0952
6544.00,1.1043
6543.00,1.1130
6542.00,1.1211
6541.00,1.1286
6540.00,1.1358
6539.00,1.1429
6538.00,1.1502
6537.00,1.1573
6536.00,1.1640
6535.00,1.1702
6534.00,1.1759
6533.00,1.1811
6532.00,1.1859
6531.00,1.1904
6530.00,1.1948
6529.00,1.1990
6528.00,1.2028
6527.00,1.2064
6526.00,1.2097
6525.00,1.2126
6524.00,1.2150
6523.00,1.2169
6522.00,1.2187
6521.00,1.2204
6520.00,1.2216
6519.00,1.2221
6518.00,1.2221
6517.00,1.2217
6516.00,1.2212
6515.00,1.2205
6514.00,1.2194
6513.00,1.2176
6512.00,1.2151
6511.00,1.2124
6510.00,1.2096
6509.00,1.2066
6508.00,1.2031
6507.00,1.1992
6506.00,1.1952
6505.00,1.1909
6504.00,1.1857
6503.00,1.1798
6502.00,1.1736
6501.00,1.1674
6500.00,1.1611
6499.00,1.1545
6498.00,1.1476
6497.00,1.1406
6496.00,1.1335
6495.00,1.1258
6494.00,1.1175
6493.00,1.1086
6492.00,1.0993
6491.00,1.0899
6490.00,1.0802
6489.00,1.0704
6488.00,1.0603
6487.00,1.0499
6486.00,1.0394
6485.00,1.0288
6484.00,1.0180
6483.00,1.0070
6482.00,0.9959
6481.00,0.9850
6480.00,0.9740
6479.00,0.9628
6478.00,0.9516
6477.00,0.9404
6476.00,0.9294
6475.00,0.9185
6474.00,0.9078
6473.00,0.8974
6472.00,0.8873
6471.00,0.8774
6470.00,0.8677
6469.00,0.8582
6468.00,0.8489
6467.00,0.8398
6466.00,0.8310
6465.00,0.8227
6464.00,0.8148
6463.00,0.8076
6462.00,0.8011
6461.00,0.7952
6460.00,0.7898
6459.00,0.7850
6458.00,0.7807
6457.00,0.7770
6456.00,0.7741
6455.00,0.7719
6454.00,0.7704
6453.00,0.7695
6452.00,0.7693
6451.00,0.7697
6450.00,0.7708
6449.00,0.7725
6448.00,0.7749
6447.00,0.7781
6446.00,0.7821
6445.00,0.7867
6444.00,0.7917
6443.00,0.7973
6442.00,0.8033
6441.00,0.8099
6440.00,0.8169
6439.00,0.8244
6438.00,0.8324
6437.00,0.8407
6436.00,0.8494
6435.00,0.8583
6434.00,0.8676
6433.00,0.8771
6432.00,0.8869
6431.00,0.8969
6430.00,0.9071
6429.00,0.9175
6428.00,0.9282
6427.00,0.9389
6426.00,0.9496
6425.00,0.9601
6424.00,0.9707
6423.00,0.9814
6422.00,0.9922
6421.00,1.0031
6420.00,1.0140
6419.00,1.0249
6418.00,1.0358
6417.00,1.0463
6416.00,1.0565
6415.00,1.0665
6414.00,1.0764
6413.00,1.0863
6412.00,1.0959
6411.00,1.1055
6410.00,1.1149
6409.00,1.1242
6408.00,1.1330
6407.00,1.1411
6406.00,1.1488
6405.00,1.1564
6404.00,1.1638
6403.00,1.1711
6402.00,1.1785
6401.00,1.1859
6400.00,1.1931
6399.00,1.1998
6398.00,1.2059
6397.00,1.2116
6396.00,1.2170
6395.00,1.2221
6394.00,1.2269
6393.00,1.2314
6392.00,1.2354
6391.00,1.2388
6390.00,1.2415
6389.00,1.2437
6388.00,1.2457
6387.00,1.2477
6386.00,1.2496
6385.00,1.2512
6384.00,1.2524
6383.00,1.2530
6382.00,1.2532
6381.00,1.2531
6380.00,1.2525
6379.00,1.2514
6378.00,1.2498
6377.00,1.2477
6376.00,1.2450
6375.00,1.2415
6374.00,1.2374
6373.00,1.2332
6372.00,1.2291
6371.00,1.2250
6370.00,1.2205
6369.00,1.2154
6368.00,1.2099
6367.00,1.2041
6366.00,1.1979
6365.00,1.1913
6364.00,1.1841
6363.00,1.1763
6362.00,1.1682
6361.00,1.1597
6360.00,1.1508
6359.00,1.1412
6358.00,1.1313
6357.00,1.1214
6356.00,1.1115
6355.00,1.1014
6354.00,1.0911
6353.00,1.0804
6352.00,1.0694
6351.00,1.0582
6350.00,1.0468
6349.00,1.0351
6348.00,1.0231
6347.00,1.0108
6346.00,0.9985
6345.00,0.9862
6344.00,0.9742
6343.00,0.9622
6342.00,0.9503
6341.00,0.9386
6340.00,0.9270
6339.00,0.9154
6338.00,0.9038
6337.00,0.8924
6336.00,0.8813
6335.00,0.8705
6334.00,0.8601
6333.00,0.8502
6332.00,0.8407
6331.00,0.8317
6330.00,0.8234
6329.00,0.8158
6328.00,0.8087
6327.00,0.8021
6326.00,0.7960
6325.00,0.7906
6324.00,0.7857
6323.00,0.7814
6322.00,0.7779
6321.00,0.7753
6320.00,0.7735
6319.00,0.7725
6318.00,0.7720
6317.00,0.7721
6316.00,0.7728
6315.00,0.7742
6314.00,0.7765
6313.00,0.7796
6312.00,0.7835
6311.00,0.7880
6310.00,0.7931
6309.00,0.7987
6308.00,0.8047
6307.00,0.8111
6306.00,0.8179
6305.00,0.8254
6304.00,0.8334
6303.00,0.8420
6302.00,0.8508
6301.00,0.8600
6300.00,0.8693
6299.00,0.8788
6298.00,0.8886
6297.00,0.8987
6296.00,0.9091
6295.00,0.9198
6294.00,0.9308
6293.00,0.9420
6292.00,0.9531
6291.00,0.9642
6290.00,0.9752
6289.00,0.9861
6288.00,0.9967
6287.00,1.0071
6286.00,1.0174
6285.00,1.0279
6284.00,1.0383
6283.00,1.0485
6282.00,1.0589
6281.00,1.0694
6280.00,1.0800
6279.00,1.0903
6278.00,1.1000
6277.00,1.1094
6276.00,1.1186
6275.00,1.1276
6274.00,1.1362
6273.00,1.1444
6272.00,1.1522
6271.00,1.1600
6270.00,1.1676
6269.00,1.1749
6268.00,1.1815
6267.00,1.1876
6266.00,1.1935
6265.00,1.1993
6264.00,1.2051
6263.00,1.2105
6262.00,1.2156
6261.00,1.2203
6260.00,1.2246
6259.00,1.2282
6258.00,1.2310
6257.00,1.2330
6256.00,1.2346
6255.00,1.2361
6254.00,1.2374
6253.00,1.2387
6252.00,1.2399
6251.00,1.2413
6250.00,1.2425
6249.00,1.2433
6248.00,1.2434
6247.00,1.2429
6246.00,1.2420
6245.00,1.2408
6244.00,1.2393
6243.00,1.2375
6242.00,1.2356
6241.00,1.2337
6240.00,1.2312
6239.00,1.2278
6238.00,1.2235
6237.00,1.2184
6236.00,1.2129
6235.00,1.2071
6234.00,1.2011
6233.00,1.1950
6232.00,1.1888
6231.00,1.1825
6230.00,1.1759
6229.00,1.1689
6228.00,1.1615
6227.00,1.1533
6226.00,1.1446
6225.00,1.1354
6224.00,1.1258
6223.00,1.1160
6222.00,1.1062
6221.00,1.0961
6220.00,1.0859
6219.00,1.0754
6218.00,1.0647
6217.00,1.0540
6216.00,1.0429
6215.00,1.0314
6214.00,1.0199
6213.00,1.0082
6212.00,0.9964
6211.00,0.9843
6210.00,0.9719
6209.00,0.9596
6208.00,0.9474
6207.00,0.9355
6206.00,0.9239
6205.00,0.9126
6204.00,0.9015
6203.00,0.8904
6202.00,0.8794
6201.00,0.8686
6200.00,0.8579
6199.00,0.8476
6198.00,0.8378
6197.00,0.8285
6196.00,0.8199
6195.00,0.8120
6194.00,0.8048
6193.00,0.7981
6192.00,0.7919
6191.00,0.7863
6190.00,0.7813
6189.00,0.7769
6188.00,0.7733
6187.00,0.7704
6186.00,0.7684
6185.00,0.7671
6184.00,0.7665
6183.00,0.7666
6182.00,0.7675
6181.00,0.7693
6180.00,0.7719
6179.00,0.7752
6178.00,0.7791
6177.00,0.7837
6176.00,0.7888
6175.00,0.7942
6174.00,0.8002
6173.00,0.8069
6172.00,0.8143
6171.00,0.8223
6170.00,0.8310
6169.00,0.8402
6168.00,0.8497
6167.00,0.8595
6166.00,0.8695
6165.00,0.8795
6164.00,0.8897
6163.00,0.9000
6162.00,0.9106
6161.00,0.9217
6160.00,0.9330
6159.00,0.9444
6158.00,0.9558
6157.00,0.9673
6156.00,0.9789
6155.00,0.9904
6154.00,1.0019
6153.00,1.0132
6152.00,1.0246
6151.00,1.0360
6150.00,1.0471
6149.00,1.0579
6148.00,1.0686
6147.00,1.0795
6146.00,1.0904
6145.00,1.1012
6144.00,1.1117
6143.00,1.1220
6142.00,1.1319
6141.00,1.1413
6140.00,1.1502
6139.00,1.1588
6138.00,1.1673
6137.00,1.1759
6136.00,1.1841
6135.00,1.1919
6134.00,1.1996
6133.00,1.2072
6132.00,1.2146
6131.00,1.2215
6130.00,1.2278
6129.00,1.2337
6128.00,1.2392
6127.00,1.2445
6126.00,1.2492
6125.00,1.2536
6124.00,1.2577
6123.00,1.2615
6122.00,1.2651
6121.00,1.2681
6120.00,1.2706
6119.00,1.2726
6118.00,1.2743
6117.00,1.2757
6116.00,1.2765
6115.00,1.2769
6114.00,1.2769
6113.00,1.2766
6112.00,1.2759
6111.00,1.2749
6110.00,1.2736
6109.00,1.2719
6108.00,1.2697
6107.00,1.2667
6106.00,1.2631
6105.00,1.2590
6104.00,1.2544
6103.00,1.2497
6102.00,1.2450
6101.00,1.2399
6100.00,1.2344
6099.00,1.2284
6098.00,1.2219
6097.00,1.2149
6096.00,1.2074
6095.00,1.1994
6094.00,1.1910
6093.00,1.1823
6092.00,1.1733
6091.00,1.1641
6090.00,1.1547
6089.00,1.1449
6088.00,1.1348
6087.00,1.1244
6086.00,1.1135
6085.00,1.1020
6084.00,1.0899
6083.00,1.0775
6082.00,1.0650
6081.00,1.0525
6080.00,1.0398
6079.00,1.0269
6078.00,1.0139
6077.00,1.0010
6076.00,0.9879
6075.00,0.9749
6074.00,0.9619
6073.00,0.9491
6072.00,0.9365
6071.00,0.9240
6070.00,0.9116
6069.00,0.8995
6068.00,0.8876
6067.00,0.8761
6066.00,0.8650
6065.00,0.8543
6064.00,0.8440
6063.00,0.8342
6062.00,0.8249
6061.00,0.8162
6060.00,0.8082
6059.00,0.8007
6058.00,0.7939
6057.00,0.7877
6056.00,0.7822
6055.00,0.7774
6054.00,0.7734
6053.00,0.7702
6052.00,0.7677
6051.00,0.7661
6050.00,0.7653
6049.00,0.7653
6048.00,0.7658
6047.00,0.7671
6046.00,0.7692
6045.00,0.7722
6044.00,0.7759
6043.00,0.7803
6042.00,0.7855
6041.00,0.7913
6040.00,0.7976
6039.00,0.8044
6038.00,0.8118
6037.00,0.8197
6036.00,0.8281
6035.00,0.8370
6034.00,0.8464
6033.00,0.8563
6032.00,0.8664
6031.00,0.8766
6030.00,0.8872
6029.00,0.8980
6028.00,0.9090
6027.00,0.9199
6026.00,0.9309
6025.00,0.9421
6024.00,0.9536
6023.00,0.9651
6022.00,0.9767
6021.00,0.9885
6020.00,1.0004
6019.00,1.0122
6018.00,1.0235
6017.00,1.0347
6016.00,1.0459
6015.00,1.0572
6014.00,1.0685
6013.00,1.0798
6012.00,1.0910
6011.00,1.1022
6010.00,1.1133
6009.00,1.1242
6008.00,1.1346
6007.00,1.1448
6006.00,1.1546
6005.00,1.1642
6004.00,1.1733
6003.00,1.1819
6002.00,1.1902
6001.00,1.1983
6000.00,1.2064
5999.00,1.2143
5998.00,1.2219
5997.00,1.2292
5996.00,1.2361
5995.00,1.2426
5994.00,1.2486
5993.00,1.2541
5992.00,1.2588
5991.00,1.2628
5990.00,1.2665
5989.00,1.2701
5988.00,1.2739
5987.00,1.2777
5986.00,1.2814
5985.00,1.2850
5984.00,1.2881
5983.00,1.2902
5982.00,1.2913
5981.00,1.2919
5980.00,1.2923
5979.00,1.2924
5978.00,1.2922
5977.00,1.2916
5976.00,1.2904
5975.00,1.2885
5974.00,1.2859
5973.00,1.2828
5972.00,1.2794
5971.00,1.2759
5970.00,1.2722
5969.00,1.2682
5968.00,1.2638
5967.00,1.2589
5966.00,1.2535
5965.00,1.2476
5964.00,1.2411
5963.00,1.2340
5962.00,1.2262
5961.00,1.2178
5960.00,1.2090
5959.00,1.1998
5958.00,1.1903
5957.00,1.1807
5956.00,1.1711
5955.00,1.1614
5954.00,1.1514
5953.00,1.1408
5952.00,1.1297
5951.00,1.1182
5950.00,1.1063
5949.00,1.0939
5948.00,1.0812
5947.00,1.0683
5946.00,1.0553
5945.00,1.0421
5944.00,1.0287
5943.00,1.0153
5942.00,1.0019
5941.00,0.9885
5940.00,0.9752
5939.00,0.9619
5938.00,0.9486
5937.00,0.9355
5936.00,0.9226
5935.00,0.9100
5934.00,0.8977
5933.00,0.8857
5932.00,0.8741
5931.00,0.8629
5930.00,0.8521
5929.00,0.8418
5928.00,0.8322
5927.00,0.8233
5926.00,0.8151
5925.00,0.8077
5924.00,0.8007
5923.00,0.7944
5922.00,0.7887
5921.00,0.7837
5920.00,0.7795
5919.00,0.7763
5918.00,0.7740
5917.00,0.7726
5916.00,0.7720
5915.00,0.7722
5914.00,0.7732
5913.00,0.7750
5912.00,0.7777
5911.00,0.7810
5910.00,0.7852
5909.00,0.7899
5908.00,0.7953
5907.00,0.8014
5906.00,0.8082
5905.00,0.8157
5904.00,0.8239
5903.00,0.8327
5902.00,0.8421
5901.00,0.8519
5900.00,0.8620
5899.00,0.8724
5898.00,0.8830
5897.00,0.8938
5896.00,0.9050
5895.00,0.9165
5894.00,0.9283
5893.00,0.9402
5892.00,0.9524
5891.00,0.9647
5890.00,0.9772
5889.00,0.9896
5888.00,1.0018
5887.00,1.0139
5886.00,1.0259
5885.00,1.0381
5884.00,1.0502
5883.00,1.0621
5882.00,1.0741
5881.00,1.0861
5880.00,1.0979
5879.00,1.1095
5878.00,1.1209
5877.00,1.1321
5876.00,1.1430
5875.00,1.1536
5874.00,1.1640
5873.00,1.1742
5872.00,1.1842
5871.00,1.1939
5870.00,1.2032
5869.00,1.2122
5868.00,1.2209
5867.00,1.2292
5866.00,1.2372
5865.00,1.2448
5864.00,1.2522
5863.00,1.2595
5862.00,1.2665
5861.00,1.2730
5860.00,1.2789
5859.00,1.2842
5858.00,1.2892
5857.00,1.2938
5856.00,1.2979
5855.00,1.3019
5854.00,1.3056
5853.00,1.3092
5852.00,1.3125
5851.00,1.3151
5850.00,1.3166
5849.00,1.3174
5848.00,1.3176
5847.00,1.3178
5846.00,1.3177
5845.00,1.3174
5844.00,1.3167
5843.00,1.3158
5842.00,1.3148
5841.00,1.3133
5840.00,1.3114
5839.00,1.3090
5838.00,1.3062
5837.00,1.3031
5836.00,1.2994
5835.00,1.2950
5834.00,1.2901
5833.00,1.2846
5832.00,1.2788
5831.00,1.2725
5830.00,1.2658
5829.00,1.2585
5828.00,1.2508
5827.00,1.2428
5826.00,1.2345
5825.00,1.2261
5824.00,1.2176
5823.00,1.2088
5822.00,1.1995
5821.00,1.1895
5820.00,1.1787
5819.00,1.1673
5818.00,1.1555
5817.00,1.1435
5816.00,1.1313
5815.00,1.1190
5814.00,1.1065
5813.00,1.0938
5812.00,1.0809
5811.00,1.0678
5810.00,1.0547
5809.00,1.0414
5808.00,1.0280
5807.00,1.0142
5806.00,1.0001
5805.00,0.9860
5804.00,0.9720
5803.00,0.9583
5802.00,0.9450
5801.00,0.9319
5800.00,0.9191
5799.00,0.9066
5798.00,0.8945
5797.00,0.8826
5796.00,0.8711
5795.00,0.8601
5794.00,0.8497
5793.00,0.8398
5792.00,0.8304
5791.00,0.8216
5790.00,0.8136
5789.00,0.8063
5788.00,0.7997
5787.00,0.7939
5786.00,0.7890
5785.00,0.7849
5784.00,0.7817
5783.00,0.7794
5782.00,0.7778
5781.00,0.7770
5780.00,0.7770
5779.00,0.7779
5778.00,0.7798
5777.00,0.7825
5776.00,0.7862
5775.00,0.7906
5774.00,0.7959
5773.00,0.8019
5772.00,0.8087
5771.00,0.8160
5770.00,0.8241
5769.00,0.8328
5768.00,0.8420
5767.00,0.8517
5766.00,0.8618
5765.00,0.8724
5764.00,0.8833
5763.00,0.8946
5762.00,0.9063
5761.00,0.9182
5760.00,0.9302
5759.00,0.9423
5758.00,0.9545
5757.00,0.9669
5756.00,0.9795
5755.00,0.9921
5754.00,1.0048
5753.00,1.0175
5752.00,1.0301
5751.00,1.0427
5750.00,1.0552
5749.00,1.0677
5748.00,1.0801
5747.00,1.0923
5746.00,1.1044
5745.00,1.1162
5744.00,1.1277
5743.00,1.1391
5742.00,1.1503
5741.00,1.1615
5740.00,1.1723
5739.00,1.1829
5738.00,1.1932
5737.00,1.2033
5736.00,1.2130
5735.00,1.2223
5734.00,1.2313
5733.00,1.2401
5732.00,1.2485
5731.00,1.2566
5730.00,1.2644
5729.00,1.2718
5728.00,1.2789
5727.00,1.2854
5726.00,1.2912
5725.00,1.2963
5724.00,1.3011
5723.00,1.3056
5722.00,1.3102
5721.00,1.3146
5720.00,1.3188
5719.00,1.3226
5718.00,1.3260
5717.00,1.3287
5716.00,1.3309
5715.00,1.3325
5714.00,1.3339
5713.00,1.3351
5712.00,1.3358
5711.00,1.3358
5710.00,1.3351
5709.00,1.3338
5708.00,1.3322
5707.00,1.3303
5706.00,1.3281
5705.00,1.3257
5704.00,1.3231
5703.00,1.3200
5702.00,1.3163
5701.00,1.3118
5700.00,1.3064
5699.00,1.3004
5698.00,1.2941
5697.00,1.2879
5696.00,1.2817
5695.00,1.2753
5694.00,1.2684
5693.00,1.2607
5692.00,1.2524
5691.00,1.2434
5690.00,1.2340
5689.00,1.2244
5688.00,1.2146
5687.00,1.2045
5686.00,1.1937
5685.00,1.1822
5684.00,1.1703
5683.00,1.1580
5682.00,1.1456
5681.00,1.1329
5680.00,1.1201
5679.00,1.1072
5678.00,1.0940
5677.00,1.0805
5676.00,1.0666
5675.00,1.0525
5674.00,1.0383
5673.00,1.0240
5672.00,1.0096
5671.00,0.9953
5670.00,0.9810
5669.00,0.9666
5668.00,0.9524
5667.00,0.9383
5666.00,0.9244
5665.00,0.9110
5664.00,0.8979
5663.00,0.8853
5662.00,0.8732
5661.00,0.8616
5660.00,0.8506
5659.00,0.8400
5658.00,0.8301
5657.00,0.8208
5656.00,0.8122
5655.00,0.8044
5654.00,0.7974
5653.00,0.7913
5652.00,0.7859
5651.00,0.7812
5650.00,0.7775
5649.00,0.7746
5648.00,0.7727
5647.00,0.7716
5646.00,0.7716
5645.00,0.7725
5644.00,0.7743
5643.00,0.7769
5642.00,0.7803
5641.00,0.7846
5640.00,0.7896
5639.00,0.7954
5638.00,0.8020
5637.00,0.8092
5636.00,0.8173
5635.00,0.8259
5634.00,0.8350
5633.00,0.8446
5632.00,0.8546
5631.00,0.8650
5630.00,0.8758
5629.00,0.8871
5628.00,0.8987
5627.00,0.9106
5626.00,0.9229
5625.00,0.9353
5624.00,0.9481
5623.00,0.9610
5622.00,0.9740
5621.00,0.9869
5620.00,0.9996
5619.00,1.0122
5618.00,1.0248
5617.00,1.0374
5616.00,1.0501
5615.00,1.0628
5614.00,1.0754
5613.00,1.0879
5612.00,1.1001
5611.00,1.1121
5610.00,1.1240
5609.00,1.1356
5608.00,1.1468
5607.00,1.1576
5606.00,1.1681
5605.00,1.1784
5604.00,1.1884
5603.00,1.1982
5602.00,1.2078
5601.00,1.2170
5600.00,1.2258
5599.00,1.2343
5598.00,1.2426
5597.00,1.2506
5596.00,1.2580
5595.00,1.2649
5594.00,1.2715
5593.00,1.2778
5592.00,1.2837
5591.00,1.2893
5590.00,1.2946
5589.00,1.2995
5588.00,1.3041
5587.00,1.3082
5586.00,1.3120
5585.00,1.3153
5584.00,1.3181
5583.00,1.3203
5582.00,1.3218
5581.00,1.3229
5580.00,1.3238
5579.00,1.3248
5578.00,1.3259
5577.00,1.3268
5576.00,1.3272
5575.00,1.3268
5574.00,1.3258
5573.00,1.3243
5572.00,1.3224
5571.00,1.3203
5570.00,1.3181
5569.00,1.3155
5568.00,1.3125
5567.00,1.3089
5566.00,1.3047
5565.00,1.3000
5564.00,1.2949
5563.00,1.2894
5562.00,1.2836
5561.00,1.2774
5560.00,1.2707
5559.00,1.2634
5558.00,1.2556
5557.00,1.2474
5556.00,1.2388
5555.00,1.2298
5554.00,1.2205
5553.00,1.2108
5552.00,1.2007
5551.00,1.1901
5550.00,1.1790
5549.00,1.1673
5548.00,1.1552
5547.00,1.1425
5546.00,1.1294
5545.00,1.1160
5544.00,1.1023
5543.00,1.0883
5542.00,1.0742
5541.00,1.0598
5540.00,1.0452
5539.00,1.0306
5538.00,1.0160
5537.00,1.0015
5536.00,0.9869
5535.00,0.9722
5534.00,0.9575
5533.00,0.9429
5532.00,0.9285
5531.00,0.9143
5530.00,0.9006
5529.00,0.8875
5528.00,0.8748
5527.00,0.8626
5526.00,0.8509
5525.00,0.8398
5524.00,0.8294
5523.00,0.8196
5522.00,0.8106
5521.00,0.8023
5520.00,0.7948
5519.00,0.7881
5518.00,0.7821
5517.00,0.7771
5516.00,0.7729
5515.00,0.7698
5514.00,0.7676
5513.00,0.7664
5512.00,0.7661
5511.00,0.7669
5510.00,0.7687
5509.00,0.7715
5508.00,0.7753
5507.00,0.7799
5506.00,0.7852
5505.00,0.7911
5504.00,0.7976
5503.00,0.8049
5502.00,0.8131
5501.00,0.8221
5500.00,0.8318
5499.00,0.8422
5498.00,0.8531
5497.00,0.8645
5496.00,0.8762
5495.00,0.8881
5494.00,0.9004
5493.00,0.9129
5492.00,0.9257
5491.00,0.9387
5490.00,0.9520
5489.00,0.9654
5488.00,0.9790
5487.00,0.9927
5486.00,1.0066
5485.00,1.0204
5484.00,1.0341
5483.00,1.0479
5482.00,1.0617
5481.00,1.0754
5480.00,1.0889
5479.00,1.1021
5478.00,1.1151
5477.00,1.1279
5476.00,1.1405
5475.00,1.1530
5474.00,1.1653
5473.00,1.1775
5472.00,1.1891
5471.00,1.2002
5470.00,1.2110
5469.00,1.2217
5468.00,1.2322
5467.00,1.2423
5466.00,1.2521
5465.00,1.2616
5464.00,1.2706
5463.00,1.2794
5462.00,1.2880
5461.00,1.2963
5460.00,1.3040
5459.00,1.3111
5458.00,1.3179
5457.00,1.3243
5456.00,1.3304
5455.00,1.3361
5454.00,1.3412
5453.00,1.3458
5452.00,1.3498
5451.00,1.3532
5450.00,1.3563
5449.00,1.3593
5448.00,1.3619
5447.00,1.3637
5446.00,1.3649
5445.00,1.3656
5444.00,1.3661
5443.00,1.3662
5442.00,1.3658
5441.00,1.3649
5440.00,1.3634
5439.00,1.3616
5438.00,1.3596
5437.00,1.3574
5436.00,1.3551
5435.00,1.3525
5434.00,1.3493
5433.00,1.3455
5432.00,1.3409
5431.00,1.3355
5430.00,1.3295
5429.00,1.3231
5428.00,1.3164
5427.00,1.3092
5426.00,1.3015
5425.00,1.2936
5424.00,1.2852
5423.00,1.2763
5422.00,1.2670
5421.00,1.2573
5420.00,1.2471
5419.00,1.2365
5418.00,1.2254
5417.00,1.2139
5416.00,1.2020
5415.00,1.1896
5414.00,1.1768
5413.00,1.1636
5412.00,1.1501
5411.00,1.1361
5410.00,1.1217
5409.00,1.1068
5408.00,1.0916
5407.00,1.0762
5406.00,1.0605
5405.00,1.0448
5404.00,1.0290
5403.00,1.0132
5402.00,0.9975
5401.00,0.9820
5400.00,0.9666
5399.00,0.9515
5398.00,0.9367
5397.00,0.9221
5396.00,0.9078
5395.00,0.8936
5394.00,0.8797
5393.00,0.8662
5392.00,0.8533
5391.00,0.8411
5390.00,0.8297
5389.00,0.8192
5388.00,0.8095
5387.00,0.8004
5386.00,0.7919
5385.00,0.7842
5384.00,0.7775
5383.00,0.7718
5382.00,0.7672
5381.00,0.7637
5380.00,0.7612
5379.00,0.7597
5378.00,0.7593
5377.00,0.7598
5376.00,0.7613
5375.00,0.7639
5374.00,0.7674
5373.00,0.7718
5372.00,0.7771
5371.00,0.7832
5370.00,0.7902
5369.00,0.7981
5368.00,0.8067
5367.00,0.8160
5366.00,0.8260
5365.00,0.8367
5364.00,0.8479
5363.00,0.8596
5362.00,0.8717
5361.00,0.8841
5360.00,0.8969
5359.00,0.9099
5358.00,0.9233
5357.00,0.9370
5356.00,0.9508
5355.00,0.9648
5354.00,0.9791
5353.00,0.9936
5352.00,1.0082
5351.00,1.0228
5350.00,1.0372
5349.00,1.0513
5348.00,1.0652
5347.00,1.0789
5346.00,1.0925
5345.00,1.1062
5344.00,1.1199
5343.00,1.1336
5342.00,1.1469
5341.00,1.1597
5340.00,1.1720
5339.00,1.1840
5338.00,1.1959
5337.00,1.2078
5336.00,1.2195
5335.00,1.2307
5334.00,1.2414
5333.00,1.2517
5332.00,1.2616
5331.00,1.2713
5330.00,1.2805
5329.00,1.2891
5328.00,1.2974
5327.00,1.3054
5326.00,1.3131
5325.00,1.3205
5324.00,1.3275
5323.00,1.3342
5322.00,1.3406
5321.00,1.3467
5320.00,1.3525
5319.00,1.3579
5318.00,1.3627
5317.00,1.3667
5316.00,1.3701
5315.00,1.3730
5314.00,1.3758
5313.00,1.3784
5312.00,1.3806
5311.00,1.3824
5310.00,1.3838
5309.00,1.3846
5308.00,1.3847
5307.00,1.3842
5306.00,1.3832
5305.00,1.3819
5304.00,1.3802
5303.00,1.3781
5302.00,1.3755
5301.00,1.3724
5300.00,1.3684
5299.00,1.3639
5298.00,1.3591
5297.00,1.3543
5296.00,1.3494
5295.00,1.3441
5294.00,1.3382
5293.00,1.3315
5292.00,1.3239
5291.00,1.3157
5290.00,1.3071
5289.00,1.2981
5288.00,1.2889
5287.00,1.2792
5286.00,1.2691
5285.00,1.2585
5284.00,1.2474
5283.00,1.2358
5282.00,1.2236
5281.00,1.2109
5280.00,1.1979
5279.00,1.1845
5278.00,1.1707
5277.00,1.1566
5276.00,1.1422
5275.00,1.1276
5274.00,1.1127
5273.00,1.0975
5272.00,1.0819
5271.00,1.0661
5270.00,1.0501
5269.00,1.0339
5268.00,1.0177
5267.00,1.0017
5266.00,0.9857
5265.00,0.9697
5264.00,0.9539
5263.00,0.9384
5262.00,0.9234
5261.00,0.9087
5260.00,0.8944
5259.00,0.8807
5258.00,0.8676
5257.00,0.8553
5256.00,0.8435
5255.00,0.8325
5254.00,0.8223
5253.00,0.8129
5252.00,0.8044
5251.00,0.7968
5250.00,0.7902
5249.00,0.7846
5248.00,0.7799
5247.00,0.7762
5246.00,0.7735
5245.00,0.7719
5244.00,0.7712
5243.00,0.7717
5242.00,0.7734
5241.00,0.7762
5240.00,0.7802
5239.00,0.7852
5238.00,0.7913
5237.00,0.7982
5236.00,0.8059
5235.00,0.8142
5234.00,0.8233
5233.00,0.8331
5232.00,0.8436
5231.00,0.8548
5230.00,0.8665
5229.00,0.8786
5228.00,0.8911
5227.00,0.9040
5226.00,0.9174
5225.00,0.9313
5224.00,0.9455
5223.00,0.9598
5222.00,0.9742
5221.00,0.9886
5220.00,1.0032
5219.00,1.0180
5218.00,1.0330
5217.00,1.0480
5216.00,1.0628
5215.00,1.0775
5214.00,1.0920
5213.00,1.1063
5212.00,1.1203
5211.00,1.1342
5210.00,1.1479
5209.00,1.1614
5208.00,1.1747
5207.00,1.1879
5206.00,1.2010
5205.00,1.2138
5204.00,1.2263
5203.00,1.2384
5202.00,1.2503
5201.00,1.2620
5200.00,1.2734
5199.00,1.2844
5198.00,1.2949
5197.00,1.3050
5196.00,1.3146
5195.00,1.3236
5194.00,1.3322
5193.00,1.3403
5192.00,1.3480
5191.00,1.3553
5190.00,1.3625
5189.00,1.3695
5188.00,1.3760
5187.00,1.3817
5186.00,1.3866
5185.00,1.3909
5184.00,1.3948
5183.00,1.3988
5182.00,1.4027
5181.00,1.4064
5180.00,1.4096
5179.00,1.4122
5178.00,1.4140
5177.00,1.4151
5176.00,1.4157
5175.00,1.4158
5174.00,1.4156
5173.00,1.4150
5172.00,1.4140
5171.00,1.4127
5170.00,1.4110
5169.00,1.4087
5168.00,1.4056
5167.00,1.4019
5166.00,1.3978
5165.00,1.3933
5164.00,1.3884
5163.00,1.3830
5162.00,1.3774
5161.00,1.3716
5160.00,1.3653
5159.00,1.3585
5158.00,1.3513
5157.00,1.3434
5156.00,1.3349
5155.00,1.3256
5154.00,1.3157
5153.00,1.3055
5152.00,1.2948
5151.00,1.2838
5150.00,1.2723
5149.00,1.2603
5148.00,1.2478
5147.00,1.2348
5146.00,1.2214
5145.00,1.2077
5144.00,1.1937
5143.00,1.1794
5142.00,1.1646
5141.00,1.1491
5140.00,1.1331
5139.00,1.1167
5138.00,1.0999
5137.00,1.0831
5136.00,1.0661
5135.00,1.0492
5134.00,1.0322
5133.00,1.0153
5132.00,0.9984
5131.00,0.9816
5130.00,0.9650
5129.00,0.9485
5128.00,0.9323
5127.00,0.9164
5126.00,0.9009
5125.00,0.8860
5124.00,0.8717
5123.00,0.8581
5122.00,0.8452
5121.00,0.8331
5120.00,0.8217
5119.00,0.8112
5118.00,0.8015
5117.00,0.7928
5116.00,0.7851
5115.00,0.7785
5114.00,0.7730
5113.00,0.7687
5112.00,0.7655
5111.00,0.7635
5110.00,0.7626
5109.00,0.7629
5108.00,0.7643
5107.00,0.7669
5106.00,0.7705
5105.00,0.7753
5104.00,0.7811
5103.00,0.7879
5102.00,0.7956
5101.00,0.8043
5100.00,0.8139
5099.00,0.8243
5098.00,0.8354
5097.00,0.8472
5096.00,0.8596
5095.00,0.8725
5094.00,0.8858
5093.00,0.8996
5092.00,0.9138
5091.00,0.9283
5090.00,0.9430
5089.00,0.9580
5088.00,0.9732
5087.00,0.9885
5086.00,1.0038
5085.00,1.0192
5084.00,1.0346
5083.00,1.0501
5082.00,1.0655
5081.00,1.0809
5080.00,1.0962
5079.00,1.1113
5078.00,1.1263
5077.00,1.1410
5076.00,1.1556
5075.00,1.1699
5074.00,1.1840
5073.00,1.1978
5072.00,1.2113
5071.00,1.2246
5070.00,1.2377
5069.00,1.2506
5068.00,1.2630
5067.00,1.2750
5066.00,1.2866
5065.00,1.2977
5064.00,1.3086
5063.00,1.3191
5062.00,1.3295
5061.00,1.3395
5060.00,1.3490
5059.00,1.3579
5058.00,1.3660
5057.00,1.3738
5056.00,1.3812
5055.00,1.3884
5054.00,1.3953
5053.00,1.4017
5052.00,1.4074
5051.00,1.4124
5050.00,1.4168
5049.00,1.4208
5048.00,1.4247
5047.00,1.4283
5046.00,1.4315
5045.00,1.4342
5044.00,1.4366
5043.00,1.4383
5042.00,1.4395
5041.00,1.4400
5040.00,1.4399
5039.00,1.4392
5038.00,1.4381
5037.00,1.4367
5036.00,1.4349
5035.00,1.4329
5034.00,1.4305
5033.00,1.4277
5032.00,1.4244
5031.00,1.4205
5030.00,1.4160
5029.00,1.4110
5028.00,1.4055
5027.00,1.3994
5026.00,1.3928
5025.00,1.3858
5024.00,1.3783
5023.00,1.3701
5022.00,1.3615
5021.00,1.3523
5020.00,1.3427
5019.00,1.3325
5018.00,1.3218
5017.00,1.3107
5016.00,1.2991
5015.00,1.2871
5014.00,1.2745
5013.00,1.2613
5012.00,1.2474
5011.00,1.2330
5010.00,1.2181
5009.00,1.2029
5008.00,1.1874
5007.00,1.1716
5006.00,1.1553
5005.00,1.1385
5004.00,1.1214
5003.00,1.1040
5002.00,1.0864
5001.00,1.0687
5000.00,1.0509
4999.00,1.0331
4998.00,1.0152
4997.00,0.9974
4996.00,0.9796
4995.00,0.9620
4994.00,0.9447
4993.00,0.9278
4992.00,0.9114
4991.00,0.8957
4990.00,0.8805
4989.00,0.8660
4988.00,0.8522
4987.00,0.8392
4986.00,0.8271
4985.00,0.8158
4984.00,0.8054
4983.00,0.7960
4982.00,0.7876
4981.00,0.7805
4980.00,0.7747
4979.00,0.7702
4978.00,0.7669
4977.00,0.7649
4976.00,0.7642
4975.00,0.7647
4974.00,0.7665
4973.00,0.7695
4972.00,0.7736
4971.00,0.7790
4970.00,0.7854
4969.00,0.7930
4968.00,0.8016
4967.00,0.8112
4966.00,0.8217
4965.00,0.8329
4964.00,0.8449
4963.00,0.8575
4962.00,0.8707
4961.00,0.8846
4960.00,0.8990
4959.00,0.9138
4958.00,0.9290
4957.00,0.9446
4956.00,0.9604
4955.00,0.9765
4954.00,0.9927
4953.00,1.0089
4952.00,1.0251
4951.00,1.0414
4950.00,1.0576
4949.00,1.0740
4948.00,1.0903
4947.00,1.1066
4946.00,1.1227
4945.00,1.1387
4944.00,1.1544
4943.00,1.1699
4942.00,1.1851
4941.00,1.2001
4940.00,1.2147
4939.00,1.2290
4938.00,1.2431
4937.00,1.2568
4936.00,1.2703
4935.00,1.2835
4934.00,1.2963
4933.00,1.3086
4932.00,1.3204
4931.00,1.3318
4930.00,1.3429
4929.00,1.3535
4928.00,1.3637
4927.00,1.3734
4926.00,1.3829
4925.00,1.3920
4924.00,1.4006
4923.00,1.4087
4922.00,1.4160
4921.00,1.4228
4920.00,1.4292
4919.00,1.4352
4918.00,1.4411
4917.00,1.4465
4916.00,1.4513
4915.00,1.4554
4914.00,1.4588
4913.00,1.4616
4912.00,1.4640
4911.00,1.4659
4910.00,1.4674
4909.00,1.4684
4908.00,1.4690
4907.00,1.4693
4906.00,1.4694
4905.00,1.4690
4904.00,1.4682
4903.00,1.4668
4902.00,1.4647
4901.00,1.4621
4900.00,1.4589
4899.00,1.4553
4898.00,1.4513
4897.00,1.4469
4896.00,1.4423
4895.00,1.4373
4894.00,1.4316
4893.00,1.4251
4892.00,1.4179
4891.00,1.4103
4890.00,1.4023
4889.00,1.3940
4888.00,1.3852
4887.00,1.3759
4886.00,1.3660
4885.00,1.3556
4884.00,1.3445
4883.00,1.3330
4882.00,1.3208
4881.00,1.3081
4880.00,1.2948
4879.00,1.2811
4878.00,1.2668
4877.00,1.2520
4876.00,1.2366
4875.00,1.2207
4874.00,1.2045
4873.00,1.1877
4872.00,1.1705
4871.00,1.1528
4870.00,1.1348
4869.00,1.1164
4868.00,1.0980
4867.00,1.0794
4866.00,1.0607
4865.00,1.0419
4864.00,1.0231
4863.00,1.0042
4862.00,0.9855
4861.00,0.9670
4860.00,0.9488
4859.00,0.9309
4858.00,0.9135
4857.00,0.8966
4856.00,0.8804
4855.00,0.8648
4854.00,0.8500
4853.00,0.8362
4852.00,0.8233
4851.00,0.8113
4850.00,0.8004
4849.00,0.7907
4848.00,0.7822
4847.00,0.7749
4846.00,0.7690
4845.00,0.7643
4844.00,0.7610
4843.00,0.7591
4842.00,0.7585
4841.00,0.7593
4840.00,0.7615
4839.00,0.7650
4838.00,0.7699
4837.00,0.7760
4836.00,0.7832
4835.00,0.7915
4834.00,0.8008
4833.00,0.8112
4832.00,0.8225
4831.00,0.8346
4830.00,0.8475
4829.00,0.8611
4828.00,0.8753
4827.00,0.8901
4826.00,0.9054
4825.00,0.9212
4824.00,0.9373
4823.00,0.9537
4822.00,0.9704
4821.00,0.9873
4820.00,1.0044
4819.00,1.0216
4818.00,1.0389
4817.00,1.0562
4816.00,1.0735
4815.00,1.0906
4814.00,1.1078
4813.00,1.1248
4812.00,1.1416
4811.00,1.1582
4810.00,1.1746
4809.00,1.1905
4808.00,1.2062
4807.00,1.2216
4806.00,1.2369
4805.00,1.2521
4804.00,1.2672
4803.00,1.2820
4802.00,1.2964
4801.00,1.3102
4800.00,1.3233
4799.00,1.3358
4798.00,1.3477
4797.00,1.3593
4796.00,1.3707
4795.00,1.3818
4794.00,1.3924
4793.00,1.4024
4792.00,1.4119
4791.00,1.4208
4790.00,1.4292
4789.00,1.4372
4788.00,1.4448
4787.00,1.4521
4786.00,1.4590
4785.00,1.4654
4784.00,1.4713
4783.00,1.4766
4782.00,1.4814
4781.00,1.4856
4780.00,1.4894
4779.00,1.4928
4778.00,1.4957
4777.00,1.4980
4776.00,1.4997
4775.00,1.5008
4774.00,1.5014
4773.00,1.5016
4772.00,1.5013
4771.00,1.5007
4770.00,1.4997
4769.00,1.4983
4768.00,1.4964
4767.00,1.4940
4766.00,1.4911
4765.00,1.4879
4764.00,1.4842
4763.00,1.4799
4762.00,1.4750
4761.00,1.4693
4760.00,1.4629
4759.00,1.4560
4758.00,1.4486
4757.00,1.4408
4756.00,1.4326
4755.00,1.4241
4754.00,1.4152
4753.00,1.4059
4752.00,1.3962
4751.00,1.3858
4750.00,1.3748
4749.00,1.3631
4748.00,1.3508
4747.00,1.3378
4746.00,1.3241
4745.00,1.3098
4744.00,1.2948
4743.00,1.2794
4742.00,1.2635
4741.00,1.2472
4740.00,1.2304
4739.00,1.2132
4738.00,1.1956
4737.00,1.1776
4736.00,1.1592
4735.00,1.1404
4734.00,1.1213
4733.00,1.1019
4732.00,1.0822
4731.00,1.0625
4730.00,1.0427
4729.00,1.0231
4728.00,1.0035
4727.00,0.9841
4726.00,0.9651
4725.00,0.9464
4724.00,0.9283
4723.00,0.9108
4722.00,0.8939
4721.00,0.8779
4720.00,0.8626
4719.00,0.8482
4718.00,0.8350
4717.00,0.8228
4716.00,0.8118
4715.00,0.8021
4714.00,0.7937
4713.00,0.7867
4712.00,0.7810
4711.00,0.7767
4710.00,0.7739
4709.00,0.7727
4708.00,0.7729
4707.00,0.7747
4706.00,0.7780
4705.00,0.7826
4704.00,0.7886
4703.00,0.7958
4702.00,0.8044
4701.00,0.8141
4700.00,0.8250
4699.00,0.8369
4698.00,0.8497
4697.00,0.8634
4696.00,0.8778
4695.00,0.8929
4694.00,0.9086
4693.00,0.9248
4692.00,0.9415
4691.00,0.9585
4690.00,0.9759
4689.00,0.9936
4688.00,1.0114
4687.00,1.0294
4686.00,1.0475
4685.00,1.0656
4684.00,1.0836
4683.00,1.1014
4682.00,1.1191
4681.00,1.1367
4680.00,1.1540
4679.00,1.1712
4678.00,1.1881
4677.00,1.2049
4676.00,1.2214
4675.00,1.2376
4674.00,1.2535
4673.00,1.2690
4672.00,1.2841
4671.00,1.2989
4670.00,1.3133
4669.00,1.3273
4668.00,1.3407
4667.00,1.3536
4666.00,1.3663
4665.00,1.3787
4664.00,1.3910
4663.00,1.4027
4662.00,1.4138
4661.00,1.4243
4660.00,1.4344
4659.00,1.4442
4658.00,1.4537
4657.00,1.4628
4656.00,1.4712
4655.00,1.4789
4654.00,1.4862
4653.00,1.4932
4652.00,1.5000
4651.00,1.5063
4650.00,1.5119
4649.00,1.5170
4648.00,1.5214
4647.00,1.5252
4646.00,1.5284
4645.00,1.5309
4644.00,1.5330
4643.00,1.5347
4642.00,1.5361
4641.00,1.5371
4640.00,1.5376
4639.00,1.5377
4638.00,1.5373
4637.00,1.5365
4636.00,1.5352
4635.00,1.5334
4634.00,1.5311
4633.00,1.5284
4632.00,1.5254
4631.00,1.5220
4630.00,1.5181
4629.00,1.5134
4628.00,1.5078
4627.00,1.5017
4626.00,1.4951
4625.00,1.4883
4624.00,1.4812
4623.00,1.4737
4622.00,1.4656
4621.00,1.4568
4620.00,1.4474
4619.00,1.4373
4618.00,1.4268
4617.00,1.4158
4616.00,1.4042
4615.00,1.3920
4614.00,1.3792
4613.00,1.3659
4612.00,1.3520
4611.00,1.3376
4610.00,1.3226
4609.00,1.3069
4608.00,1.2907
4607.00,1.2741
4606.00,1.2569
4605.00,1.2391
4604.00,1.2207
4603.00,1.2018
4602.00,1.1824
4601.00,1.1627
4600.00,1.1427
4599.00,1.1224
4598.00,1.1019
4597.00,1.0812
4596.00,1.0605
4595.00,1.0397
4594.00,1.0189
4593.00,0.9984
4592.00,0.9782
4591.00,0.9584
4590.00,0.9391
4589.00,0.9205
4588.00,0.9024
4587.00,0.8851
4586.00,0.8688
4585.00,0.8534
4584.00,0.8392
4583.00,0.8262
4582.00,0.8143
4581.00,0.8038
4580.00,0.7946
4579.00,0.7868
4578.00,0.7806
4577.00,0.7760
4576.00,0.7729
4575.00,0.7715
4574.00,0.7716
4573.00,0.7733
4572.00,0.7764
4571.00,0.7811
4570.00,0.7873
4569.00,0.7950
4568.00,0.8040
4567.00,0.8142
4566.00,0.8256
4565.00,0.8381
4564.00,0.8515
4563.00,0.8658
4562.00,0.8810
4561.00,0.8970
4560.00,0.9136
4559.00,0.9307
4558.00,0.9482
4557.00,0.9661
4556.00,0.9842
4555.00,1.0026
4554.00,1.0213
4553.00,1.0402
4552.00,1.0592
4551.00,1.0781
4550.00,1.0971
4549.00,1.1161
4548.00,1.1350
4547.00,1.1538
4546.00,1.1724
4545.00,1.1909
4544.00,1.2090
4543.00,1.2269
4542.00,1.2445
4541.00,1.2618
4540.00,1.2787
4539.00,1.2951
4538.00,1.3111
4537.00,1.3267
4536.00,1.3421
4535.00,1.3573
4534.00,1.3722
4533.00,1.3867
4532.00,1.4007
4531.00,1.4139
4530.00,1.4266
4529.00,1.4386
4528.00,1.4499
4527.00,1.4608
4526.00,1.4712
4525.00,1.4812
4524.00,1.4909
4523.00,1.5002
4522.00,1.5091
4521.00,1.5174
4520.00,1.5250
4519.00,1.5318
4518.00,1.5380
4517.00,1.5435
4516.00,1.5487
4515.00,1.5535
4514.00,1.5580
4513.00,1.5621
4512.00,1.5659
4511.00,1.5692
4510.00,1.5720
4509.00,1.5742
4508.00,1.5756
4507.00,1.5763
4506.00,1.5763
4505.00,1.5758
4504.00,1.5750
4503.00,1.5738
4502.00,1.5723
4501.00,1.5706
4500.00,1.5683
4499.00,1.5654
4498.00,1.5619
4497.00,1.5579
4496.00,1.5535
4495.00,1.5486
4494.00,1.5432
4493.00,1.5371
4492.00,1.5303
4491.00,1.5230
4490.00,1.5153
4489.00,1.5073
4488.00,1.4989
4487.00,1.4899
4486.00,1.4803
4485.00,1.4701
4484.00,1.4592
4483.00,1.4476
4482.00,1.4355
4481.00,1.4227
4480.00,1.4093
4479.00,1.3952
4478.00,1.3804
4477.00,1.3650
4476.00,1.3490
4475.00,1.3324
4474.00,1.3153
4473.00,1.2977
4472.00,1.2795
4471.00,1.2608
4470.00,1.2414
4469.00,1.2215
4468.00,1.2011
4467.00,1.1803
4466.00,1.1593
4465.00,1.1379
4464.00,1.1163
4463.00,1.0945
4462.00,1.0726
4461.00,1.0507
4460.00,1.0289
4459.00,1.0073
4458.00,0.9861
4457.00,0.9655
4456.00,0.9455
4455.00,0.9263
4454.00,0.9080
4453.00,0.8906
4452.00,0.8742
4451.00,0.8589
4450.00,0.8450
4449.00,0.8325
4448.00,0.8214
4447.00,0.8119
4446.00,0.8040
4445.00,0.7977
4444.00,0.7930
4443.00,0.7901
4442.00,0.7890
4441.00,0.7897
4440.00,0.7920
4439.00,0.7960
4438.00,0.8017
4437.00,0.8089
4436.00,0.8176
4435.00,0.8278
4434.00,0.8392
4433.00,0.8519
4432.00,0.8657
4431.00,0.8805
4430.00,0.8963
4429.00,0.9129
4428.00,0.9303
4427.00,0.9482
4426.00,0.9666
4425.00,0.9855
4424.00,1.0047
4423.00,1.0242
4422.00,1.0439
4421.00,1.0638
4420.00,1.0838
4419.00,1.1039
4418.00,1.1240
4417.00,1.1440
4416.00,1.1639
4415.00,1.1837
4414.00,1.2033
4413.00,1.2227
4412.00,1.2417
4411.00,1.2604
4410.00,1.2787
4409.00,1.2968
4408.00,1.3146
4407.00,1.3320
4406.00,1.3490
4405.00,1.3655
4404.00,1.3816
4403.00,1.3974
4402.00,1.4128
4401.00,1.4278
4400.00,1.4423
4399.00,1.4561
4398.00,1.4692
4397.00,1.4816
4396.00,1.4936
4395.00,1.5051
4394.00,1.5161
4393.00,1.5265
4392.00,1.5364
4391.00,1.5459
4390.00,1.5550
4389.00,1.5636
4388.00,1.5717
4387.00,1.5791
4386.00,1.5858
4385.00,1.5919
4384.00,1.5975
4383.00,1.6029
4382.00,1.6079
4381.00,1.6126
4380.00,1.6167
4379.00,1.6201
4378.00,1.6227
4377.00,1.6246
4376.00,1.6259
4375.00,1.6269
4374.00,1.6277
4373.00,1.6283
4372.00,1.6285
4371.00,1.6282
4370.00,1.6274
4369.00,1.6260
4368.00,1.6243
4367.00,1.6223
4366.00,1.6200
4365.00,1.6173
4364.00,1.6141
4363.00,1.6101
4362.00,1.6054
4361.00,1.6000
4360.00,1.5939
4359.00,1.5873
4358.00,1.5806
4357.00,1.5735
4356.00,1.5662
4355.00,1.5585
4354.00,1.5501
4353.00,1.5411
4352.00,1.5315
4351.00,1.5215
4350.00,1.5112
4349.00,1.5003
4348.00,1.4889
4347.00,1.4765
4346.00,1.4634
4345.00,1.4496
4344.00,1.4353
4343.00,1.4205
4342.00,1.4052
4341.00,1.3891
4340.00,1.3724
4339.00,1.3549
4338.00,1.3368
4337.00,1.3179
4336.00,1.2984
4335.00,1.2782
4334.00,1.2576
4333.00,1.2365
4332.00,1.2151
4331.00,1.1933
4330.00,1.1714
4329.00,1.1494
4328.00,1.1273
4327.00,1.1053
4326.00,1.0834
4325.00,1.0617
4324.00,1.0405
4323.00,1.0198
4322.00,0.9998
4321.00,0.9806
4320.00,0.9622
4319.00,0.9447
4318.00,0.9284
4317.00,0.9133
4316.00,0.8995
4315.00,0.8870
4314.00,0.8760
4313.00,0.8664
4312.00,0.8584
4311.00,0.8519
4310.00,0.8470
4309.00,0.8437
4308.00,0.8421
4307.00,0.8422
4306.00,0.8441
4305.00,0.8475
4304.00,0.8526
4303.00,0.8592
4302.00,0.8674
4301.00,0.8770
4300.00,0.8881
4299.00,0.9006
4298.00,0.9142
4297.00,0.9288
4296.00,0.9444
4295.00,0.9608
4294.00,0.9779
4293.00,0.9958
4292.00,1.0141
4291.00,1.0329
4290.00,1.0521
4289.00,1.0714
4288.00,1.0909
4287.00,1.1105
4286.00,1.1301
4285.00,1.1496
4284.00,1.1691
4283.00,1.1884
4282.00,1.2076
4281.00,1.2266
4280.00,1.2453
4279.00,1.2636
4278.00,1.2817
4277.00,1.2995
4276.00,1.3170
4275.00,1.3344
4274.00,1.3514
4273.00,1.3682
4272.00,1.3846
4271.00,1.4005
4270.00,1.4161
4269.00,1.4313
4268.00,1.4461
4267.00,1.4606
4266.00,1.4748
4265.00,1.4885
4264.00,1.5017
4263.00,1.5142
4262.00,1.5262
4261.00,1.5378
4260.00,1.5489
4259.00,1.5597
4258.00,1.5700
4257.00,1.5799
4256.00,1.5892
4255.00,1.5980
4254.00,1.6062
4253.00,1.6138
4252.00,1.6208
4251.00,1.6274
4250.00,1.6335
4249.00,1.6391
4248.00,1.6443
4247.00,1.6488
4246.00,1.6529
4245.00,1.6565
4244.00,1.6596
4243.00,1.6623
4242.00,1.6646
4241.00,1.6664
4240.00,1.6678
4239.00,1.6687
4238.00,1.6693
4237.00,1.6695
4236.00,1.6691
4235.00,1.6680
4234.00,1.6661
4233.00,1.6636
4232.00,1.6607
4231.00,1.6577
4230.00,1.6543
4229.00,1.6504
4228.00,1.6458
4227.00,1.6408
4226.00,1.6355
4225.00,1.6297
4224.00,1.6234
4223.00,1.6162
4222.00,1.6083
4221.00,1.6000
4220.00,1.5915
4219.00,1.5826
4218.00,1.5730
4217.00,1.5627
4216.00,1.5517
4215.00,1.5402
4214.00,1.5282
4213.00,1.5157
4212.00,1.5026
4211.00,1.4886
4210.00,1.4740
4209.00,1.4589
4208.00,1.4433
4207.00,1.4271
4206.00,1.4102
4205.00,1.3922
4204.00,1.3733
4203.00,1.3537
4202.00,1.3335
4201.00,1.3128
4200.00,1.2918
4199.00,1.2703
4198.00,1.2484
4197.00,1.2260
4196.00,1.2034
4195.00,1.1805
4194.00,1.1576
4193.00,1.1348
4192.00,1.1121
4191.00,1.0897
4190.00,1.0676
4189.00,1.0460
4188.00,1.0249
4187.00,1.0046
4186.00,0.9851
4185.00,0.9665
4184.00,0.9491
4183.00,0.9328
4182.00,0.9178
4181.00,0.9042
4180.00,0.8921
4179.00,0.8816
4178.00,0.8729
4177.00,0.8658
4176.00,0.8606
4175.00,0.8571
4174.00,0.8555
4173.00,0.8557
4172.00,0.8576
4171.00,0.8614
4170.00,0.8668
4169.00,0.8740
4168.00,0.8827
4167.00,0.8929
4166.00,0.9046
4165.00,0.9175
4164.00,0.9317
4163.00,0.9469
4162.00,0.9632
4161.00,0.9803
4160.00,0.9982
4159.00,1.0167
4158.00,1.0358
4157.00,1.0553
4156.00,1.0753
4155.00,1.0955
4154.00,1.1161
4153.00,1.1367
4152.00,1.1574
4151.00,1.1780
4150.00,1.1985
4149.00,1.2190
4148.00,1.2395
4147.00,1.2598
4146.00,1.2798
4145.00,1.2997
4144.00,1.3192
4143.00,1.3384
4142.00,1.3573
4141.00,1.3759
4140.00,1.3943
4139.00,1.4123
4138.00,1.4298
4137.00,1.4469
4136.00,1.4634
4135.00,1.4795
4134.00,1.4952
4133.00,1.5104
4132.00,1.5250
4131.00,1.5392
4130.00,1.5529
4129.00,1.5661
4128.00,1.5790
4127.00,1.5913
4126.00,1.6028
4125.00,1.6137
4124.00,1.6237
4123.00,1.6331
4122.00,1.6419
4121.00,1.6501
4120.00,1.6578
4119.00,1.6652
4118.00,1.6722
4117.00,1.6788
4116.00,1.6849
4115.00,1.6904
4114.00,1.6952
4113.00,1.6993
4112.00,1.7029
4111.00,1.7060
4110.00,1.7089
4109.00,1.7113
4108.00,1.7130
4107.00,1.7139
4106.00,1.7142
4105.00,1.7143
4104.00,1.7144
4103.00,1.7144
4102.00,1.7139
4101.00,1.7127
4100.00,1.7107
4099.00,1.7080
4098.00,1.7049
4097.00,1.7011
4096.00,1.6968
4095.00,1.6919
4094.00,1.6865
4093.00,1.6808
4092.00,1.6748
4091.00,1.6684
4090.00,1.6614
4089.00,1.6535
4088.00,1.6449
4087.00,1.6357
4086.00,1.6262
4085.00,1.6164
4084.00,1.6063
4083.00,1.5954
4082.00,1.5837
4081.00,1.5712
4080.00,1.5579
4079.00,1.5441
4078.00,1.5296
4077.00,1.5146
4076.00,1.4988
4075.00,1.4825
4074.00,1.4654
4073.00,1.4476
4072.00,1.4290
4071.00,1.4097
4070.00,1.3898
4069.00,1.3693
4068.00,1.3482
4067.00,1.3266
4066.00,1.3044
4065.00,1.2818
4064.00,1.2587
4063.00,1.2352
4062.00,1.2114
4061.00,1.1874
4060.00,1.1633
4059.00,1.1392
4058.00,1.1153
4057.00,1.0917
4056.00,1.0684
4055.00,1.0457
4054.00,1.0237
4053.00,1.0025
4052.00,0.9823
4051.00,0.9632
4050.00,0.9453
4049.00,0.9288
4048.00,0.9137
4047.00,0.9003
4046.00,0.8886
4045.00,0.8787
4044.00,0.8706
4043.00,0.8644
4042.00,0.8601
4041.00,0.8577
4040.00,0.8573
4039.00,0.8588
4038.00,0.8622
4037.00,0.8675
4036.00,0.8747
4035.00,0.8837
4034.00,0.8944
4033.00,0.9067
4032.00,0.9205
4031.00,0.9358
4030.00,0.9523
4029.00,0.9700
4028.00,0.9887
4027.00,1.0083
4026.00,1.0287
4025.00,1.0496
4024.00,1.0710
4023.00,1.0929
4022.00,1.1150
4021.00,1.1373
4020.00,1.1597
4019.00,1.1822
4018.00,1.2046
4017.00,1.2269
4016.00,1.2491
4015.00,1.2710
4014.00,1.2926
4013.00,1.3140
4012.00,1.3350
4011.00,1.3557
4010.00,1.3760
4009.00,1.3959
4008.00,1.4155
4007.00,1.4346
4006.00,1.4534
4005.00,1.4717
4004.00,1.4896
4003.00,1.5069
4002.00,1.5236
4001.00,1.5399
4000.00,1.5558
3999.00,1.5714
3998.00,1.5866
3997.00,1.6011
3996.00,1.6149
3995.00,1.6279
3994.00,1.6404
3993.00,1.6521
3992.00,1.6632
3991.00,1.6735
3990.00,1.6832
3989.00,1.6925
3988.00,1.7014
3987.00,1.7097
3986.00,1.7174
3985.00,1.7248
3984.00,1.7317
3983.00,1.7382
3982.00,1.7439
3981.00,1.7487
3980.00,1.7528
3979.00,1.7563
3978.00,1.7595
3977.00,1.7623
3976.00,1.7648
3975.00,1.7670
3974.00,1.7689
3973.00,1.7704
3972.00,1.7713
3971.00,1.7714
3970.00,1.7708
3969.00,1.7694
3968.00,1.7674
3967.00,1.7649
3966.00,1.7623
3965.00,1.7594
3964.00,1.7563
3963.00,1.7527
3962.00,1.7487
3961.00,1.7441
3960.00,1.7391
3959.00,1.7334
3958.00,1.7271
3957.00,1.7201
3956.00,1.7126
3955.00,1.7047
3954.00,1.6963
3953.00,1.6874
3952.00,1.6777
3951.00,1.6674
3950.00,1.6564
3949.00,1.6448
3948.00,1.6326
3947.00,1.6199
3946.00,1.6067
3945.00,1.5927
3944.00,1.5778
3943.00,1.5621
3942.00,1.5457
3941.00,1.5287
3940.00,1.5110
3939.00,1.4926
3938.00,1.4732
3937.00,1.4531
3936.00,1.4324
3935.00,1.4110
3934.00,1.3887
3933.00,1.3653
3932.00,1.3409
3931.00,1.3158
3930.00,1.2903
3929.00,1.2646
3928.00,1.2389
3927.00,1.2130
3926.00,1.1867
3925.00,1.1599
3924.00,1.1329
3923.00,1.1061
3922.00,1.0799
3921.00,1.0544
3920.00,1.0294
3919.00,1.0049
3918.00,0.9811
3917.00,0.9583
3916.00,0.9369
3915.00,0.9175
3914.00,0.9004
3913.00,0.8859
3912.00,0.8738
3911.00,0.8641
3910.00,0.8567
3909.00,0.8515
3908.00,0.8485
3907.00,0.8478
3906.00,0.8496
3905.00,0.8535
3904.00,0.8595
3903.00,0.8672
3902.00,0.8766
3901.00,0.8880
3900.00,0.9016
3899.00,0.9173
3898.00,0.9351
3897.00,0.9544
3896.00,0.9750
3895.00,0.9964
3894.00,1.0188
3893.00,1.0422
3892.00,1.0667
3891.00,1.0921
3890.00,1.1174
3889.00,1.1417
3888.00,1.1647
3887.00,1.1874
3886.00,1.2111
3885.00,1.2362
3884.00,1.2615
3883.00,1.2858
3882.00,1.3091
3881.00,1.3325
3880.00,1.3565
3879.00,1.3808
3878.00,1.4043
3877.00,1.4261
3876.00,1.4463
3875.00,1.4659
3874.00,1.4857
3873.00,1.5054
3872.00,1.5246
3871.00,1.5434
3870.00,1.5621
3869.00,1.5805
3868.00,1.5979
3867.00,1.6139
3866.00,1.6288
3865.00,1.6433
3864.00,1.6578
3863.00,1.6722
3862.00,1.6861
3861.00,1.6992
3860.00,1.7112
3859.00,1.7221
3858.00,1.7317
3857.00,1.7406
3856.00,1.7490
3855.00,1.7572
3854.00,1.7646
3853.00,1.7706
3852.00,1.7751
3851.00,1.7790
3850.00,1.7838
3849.00,1.7896
3848.00,1.7959
3847.00,1.8022
3846.00,1.8078
3845.00,1.8117
3844.00,1.8140
3843.00,1.8151
3842.00,1.8156
3841.00,1.8159
3840.00,1.8161
3839.00,1.8159
3838.00,1.8152
3837.00,1.8139
3836.00,1.8121
3835.00,1.8095
3834.00,1.8058
3833.00,1.8010
3832.00,1.7956
3831.00,1.7900
3830.00,1.7845
3829.00,1.7789
3828.00,1.7730
3827.00,1.7666
3826.00,1.7597
3825.00,1.7523
3824.00,1.7442
3823.00,1.7352
3822.00,1.7250
3821.00,1.7137
3820.00,1.7020
3819.00,1.6904
3818.00,1.6793
3817.00,1.6676
3816.00,1.6546
3815.00,1.6407
3814.00,1.6266
3813.00,1.6123
3812.00,1.5974
3811.00,1.5821
3810.00,1.5666
3809.00,1.5507
3808.00,1.5331
3807.00,1.5132
3806.00,1.4914
3805.00,1.4693
3804.00,1.4473
3803.00,1.4248
3802.00,1.4004
3801.00,1.3742
3800.00,1.3476
3799.00,1.3213
3798.00,1.2950
3797.00,1.2678
3796.00,1.2397
3795.00,1.2117
3794.00,1.1842
3793.00,1.1567
3792.00,1.1291
3791.00,1.1016
3790.00,1.0750
3789.00,1.0494
3788.00,1.0250
3787.00,1.0018
3786.00,0.9798
3785.00,0.9592
3784.00,0.9406
3783.00,0.9242
3782.00,0.9103
3781.00,0.8984
3780.00,0.8884
3779.00,0.8802
3778.00,0.8745
3777.00,0.8718
3776.00,0.8722
3775.00,0.8754
3774.00,0.8809
3773.00,0.8888
3772.00,0.8992
3771.00,0.9119
3770.00,0.9266
3769.00,0.9429
3768.00,0.9605
3767.00,0.9794
3766.00,0.9998
3765.00,1.0220
3764.00,1.0453
3763.00,1.0690
3762.00,1.0926
3761.00,1.1167
3760.00,1.1417
3759.00,1.1678
3758.00,1.1944
3757.00,1.2209
3756.00,1.2467
3755.00,1.2710
3754.00,1.2940
3753.00,1.3165
3752.00,1.3398
3751.00,1.3644
3750.00,1.3903
3749.00,1.4167
3748.00,1.4418
3747.00,1.4641
3746.00,1.4840
3745.00,1.5041
3744.00,1.5261
3743.00,1.5491
3742.00,1.5707
3741.00,1.5903
3740.00,1.6089
3739.00,1.6279
3738.00,1.6469
3737.00,1.6653
3736.00,1.6829
3735.00,1.6995
3734.00,1.7155
3733.00,1.7312
3732.00,1.7468
3731.00,1.7617
3730.00,1.7752
3729.00,1.7872
3728.00,1.7979
3727.00,1.8080
3726.00,1.8176
3725.00,1.8267
3724.00,1.8357
3723.00,1.8445
3722.00,1.8533
3721.00,1.8614
3720.00,1.8681
3719.00,1.8727
3718.00,1.8756
3717.00,1.8780
3716.00,1.8806
3715.00,1.8832
3714.00,1.8852
3713.00,1.8863
3712.00,1.8866
3711.00,1.8863
3710.00,1.8860
3709.00,1.8861
3708.00,1.8860
3707.00,1.8848
3706.00,1.8824
3705.00,1.8797
3704.00,1.8770
3703.00,1.8741
3702.00,1.8702
3701.00,1.8651
3700.00,1.8592
3699.00,1.8528
3698.00,1.8458
3697.00,1.8385
3696.00,1.8310
3695.00,1.8235
3694.00,1.8158
3693.00,1.8073
3692.00,1.7977
3691.00,1.7870
3690.00,1.7753
3689.00,1.7626
3688.00,1.7491
3687.00,1.7353
3686.00,1.7213
3685.00,1.7067
3684.00,1.6915
3683.00,1.6762
3682.00,1.6608
3681.00,1.6447
3680.00,1.6275
3679.00,1.6096
3678.00,1.5912
3677.00,1.5715
3676.00,1.5493
3675.00,1.5248
3674.00,1.4999
3673.00,1.4766
3672.00,1.4543
3671.00,1.4312
3670.00,1.4071
3669.00,1.3831
3668.00,1.3601
3667.00,1.3384
3666.00,1.3179
3665.00,1.2982
3664.00,1.2797
3663.00,1.2626
3662.00,1.2466
3661.00,1.2319
3660.00,1.2184
3659.00,1.2065
3658.00,1.1962
3657.00,1.1872
3656.00,1.1793
3655.00,1.1727
3654.00,1.1681
3653.00,1.1661
3652.00,1.1668
3651.00,1.1698
3650.00,1.1744
3649.00,1.1802
3648.00,1.1872
3647.00,1.1962
3646.00,1.2074
3645.00,1.2199
3644.00,1.2333
3643.00,1.2480
3642.00,1.2643
3641.00,1.2819
3640.00,1.3001
3639.00,1.3186
3638.00,1.3374
3637.00,1.3564
3636.00,1.3758
3635.00,1.3955
3634.00,1.4154
3633.00,1.4349
3632.00,1.4539
3631.00,1.4726
3630.00,1.4918
3629.00,1.5119
3628.00,1.5324
3627.00,1.5523
3626.00,1.5715
3625.00,1.5903
3624.00,1.6091
3623.00,1.6280
3622.00,1.6468
3621.00,1.6650
3620.00,1.6829
3619.00,1.7006
3618.00,1.7176
3617.00,1.7336
3616.00,1.7483
3615.00,1.7623
3614.00,1.7760
3613.00,1.7898
3612.00,1.8033
3611.00,1.8162
3610.00,1.8283
3609.00,1.8396
3608.00,1.8504
3607.00,1.8614
3606.00,1.8727
3605.00,1.8843
3604.00,1.8957
3603.00,1.9061
3602.00,1.9158
3601.00,1.9250
3600.00,1.9341
3599.00,1.9431
3598.00,1.9515
3597.00,1.9592
3596.00,1.9659
3595.00,1.9721
3594.00,1.9783
3593.00,1.9847
3592.00,1.9911
3591.00,1.9973
3590.00,2.0028
3589.00,2.0078
3588.00,2.0122
3587.00,2.0161
3586.00,2.0196
3585.00,2.0232
3584.00,2.0268
3583.00,2.0302
3582.00,2.0334
3581.00,2.0366
3580.00,2.0393
3579.00,2.0411
3578.00,2.0420
3577.00,2.0424
3576.00,2.0426
3575.00,2.0426
3574.00,2.0422
3573.00,2.0411
3572.00,2.0394
3571.00,2.0372
3570.00,2.0346
3569.00,2.0315
3568.00,2.0279
3567.00,2.0237
3566.00,2.0193
3565.00,2.0154
3564.00,2.0120
3563.00,2.0087
3562.00,2.0049
3561.00,2.0006
3560.00,1.9955
3559.00,1.9895
3558.00,1.9829
3557.00,1.9760
3556.00,1.9688
3555.00,1.9613
3554.00,1.9534
3553.00,1.9455
3552.00,1.9379
3551.00,1.9304
3550.00,1.9230
3549.00,1.9152
3548.00,1.9066
3547.00,1.8968
3546.00,1.8863
3545.00,1.8758
3544.00,1.8656
3543.00,1.8557
3542.00,1.8459
3541.00,1.8364
3540.00,1.8269
3539.00,1.8171
3538.00,1.8068
3537.00,1.7961
3536.00,1.7853
3535.00,1.7746
3534.00,1.7640
3533.00,1.7533
3532.00,1.7426
3531.00,1.7319
3530.00,1.7217
3529.00,1.7121
3528.00,1.7030
3527.00,1.6942
3526.00,1.6856
3525.00,1.6769
3524.00,1.6683
3523.00,1.6600
3522.00,1.6523
3521.00,1.6455
3520.00,1.6395
3519.00,1.6340
3518.00,1.6288
3517.00,1.6240
3516.00,1.6196
3515.00,1.6157
3514.00,1.6123
3513.00,1.6092
3512.00,1.6065
3511.00,1.6046
3510.00,1.6034
3509.00,1.6030
3508.00,1.6034
3507.00,1.6043
3506.00,1.6058
3505.00,1.6078
3504.00,1.6104
3503.00,1.6137
3502.00,1.6178
3501.00,1.6227
3500.00,1.6280
3499.00,1.6337
3498.00,1.6398
3497.00,1.6464
3496.00,1.6538
3495.00,1.6618
3494.00,1.6704
3493.00,1.6794
3492.00,1.6890
3491.00,1.6990
3490.00,1.7095
3489.00,1.7203
3488.00,1.7313
3487.00,1.7425
3486.00,1.7539
3485.00,1.7652
3484.00,1.7765
3483.00,1.7879
3482.00,1.7997
3481.00,1.8119
3480.00,1.8245
3479.00,1.8369
3478.00,1.8489
3477.00,1.8605
3476.00,1.8721
3475.00,1.8837
3474.00,1.8953
3473.00,1.9070
3472.00,1.9184
3471.00,1.9296
3470.00,1.9403
3469.00,1.9507
3468.00,1.9608
3467.00,1.9708
3466.00,1.9807
3465.00,1.9908
3464.00,2.0008
3463.00,2.0104
3462.00,2.0193
3461.00,2.0275
3460.00,2.0350
3459.00,2.0422
3458.00,2.0496
3457.00,2.0569
3456.00,2.0637
3455.00,2.0698
3454.00,2.0754
3453.00,2.0810
3452.00,2.0864
3451.00,2.0915
3450.00,2.0961
3449.00,2.1000
3448.00,2.1033
3447.00,2.1060
3446.00,2.1084
3445.00,2.1109
3444.00,2.1138
3443.00,2.1165
3442.00,2.1187
3441.00,2.1203
3440.00,2.1215
3439.00,2.1221
3438.00,2.1220
3437.00,2.1214
3436.00,2.1207
3435.00,2.1199
3434.00,2.1186
3433.00,2.1165
3432.00,2.1140
3431.00,2.1114
3430.00,2.1090
3429.00,2.1063
3428.00,2.1031
3427.00,2.0992
3426.00,2.0949
3425.00,2.0905
3424.00,2.0860
3423.00,2.0814
3422.00,2.0764
3421.00,2.0708
3420.00,2.0647
3419.00,2.0585
3418.00,2.0527
3417.00,2.0471
3416.00,2.0414
3415.00,2.0352
3414.00,2.0288
3413.00,2.0221
3412.00,2.0153
3411.00,2.0082
3410.00,2.0007
3409.00,1.9931
3408.00,1.9854
3407.00,1.9777
3406.00,1.9698
3405.00,1.9611
3404.00,1.9513
3403.00,1.9402
3402.00,1.9282
3401.00,1.9156
3400.00,1.9026
3399.00,1.8891
3398.00,1.8749
3397.00,1.8599
3396.00,1.8440
3395.00,1.8270
3394.00,1.8095
3393.00,1.7917
3392.00,1.7737
3391.00,1.7556
3390.00,1.7373
3389.00,1.7189
3388.00,1.7004
3387.00,1.6819
3386.00,1.6634
3385.00,1.6450
3384.00,1.6268
3383.00,1.6090
3382.00,1.5919
3381.00,1.5756
3380.00,1.5600
3379.00,1.5453
3378.00,1.5316
3377.00,1.5191
3376.00,1.5077
3375.00,1.4976
3374.00,1.4887
3373.00,1.4813
3372.00,1.4755
3371.00,1.4712
3370.00,1.4684
3369.00,1.4672
3368.00,1.4676
3367.00,1.4697
3366.00,1.4734
3365.00,1.4788
3364.00,1.4858
3363.00,1.4941
3362.00,1.5035
3361.00,1.5139
3360.00,1.5253
3359.00,1.5377
3358.00,1.5510
3357.00,1.5652
3356.00,1.5801
3355.00,1.5956
3354.00,1.6117
3353.00,1.6281
3352.00,1.6448
3351.00,1.6618
3350.00,1.6790
3349.00,1.6964
3348.00,1.7140
3347.00,1.7318
3346.00,1.7497
3345.00,1.7672
3344.00,1.7844
3343.00,1.8013
3342.00,1.8180
3341.00,1.8348
3340.00,1.8514
3339.00,1.8674
3338.00,1.8827
3337.00,1.8974
3336.00,1.9117
3335.00,1.9260
3334.00,1.9401
3333.00,1.9538
3332.00,1.9669
3331.00,1.9794
3330.00,1.9913
3329.00,2.0026
3328.00,2.0134
3327.00,2.0239
3326.00,2.0341
3325.00,2.0437
3324.00,2.0528
3323.00,2.0615
3322.00,2.0701
3321.00,2.0785
3320.00,2.0861
3319.00,2.0928
3318.00,2.0988
3317.00,2.1043
3316.00,2.1094
3315.00,2.1138
3314.00,2.1179
3313.00,2.1220
3312.00,2.1263
3311.00,2.1306
3310.00,2.1341
3309.00,2.1366
3308.00,2.1383
3307.00,2.1393
3306.00,2.1397
3305.00,2.1398
3304.00,2.1396
3303.00,2.1391
3302.00,2.1384
3301.00,2.1375
3300.00,2.1362
3299.00,2.1344
3298.00,2.1320
3297.00,2.1290
3296.00,2.1252
3295.00,2.1207
3294.00,2.1155
3293.00,2.1101
3292.00,2.1048
3291.00,2.0995
3290.00,2.0935
3289.00,2.0868
3288.00,2.0794
3287.00,2.0718
3286.00,2.0638
3285.00,2.0549
3284.00,2.0451
3283.00,2.0346
3282.00,2.0239
3281.00,2.0132
3280.00,2.0021
3279.00,1.9903
3278.00,1.9779
3277.00,1.9652
3276.00,1.9521
3275.00,1.9385
3274.00,1.9242
3273.00,1.9094
3272.00,1.8943
3271.00,1.8789
3270.00,1.8634
3269.00,1.8476
3268.00,1.8313
3267.00,1.8144
3266.00,1.7972
3265.00,1.7798
3264.00,1.7624
3263.00,1.7450
3262.00,1.7275
3261.00,1.7100
3260.00,1.6925
3259.00,1.6752
3258.00,1.6583
3257.00,1.6419
3256.00,1.6260
3255.00,1.6106
3254.00,1.5960
3253.00,1.5820
3252.00,1.5688
3251.00,1.5565
3250.00,1.5453
3249.00,1.5354
3248.00,1.5267
3247.00,1.5193
3246.00,1.5132
3245.00,1.5083
3244.00,1.5050
3243.00,1.5030
3242.00,1.5025
3241.00,1.5034
3240.00,1.5057
3239.00,1.5095
3238.00,1.5148
3237.00,1.5213
3236.00,1.5291
3235.00,1.5380
3234.00,1.5480
3233.00,1.5590
3232.00,1.5711
3231.00,1.5839
3230.00,1.5976
3229.00,1.6121
3228.00,1.6273
3227.00,1.6430
3226.00,1.6592
3225.00,1.6759
3224.00,1.6930
3223.00,1.7104
3222.00,1.7280
3221.00,1.7456
3220.00,1.7631
3219.00,1.7804
3218.00,1.7975
3217.00,1.8144
3216.00,1.8313
3215.00,1.8484
3214.00,1.8656
3213.00,1.8827
3212.00,1.8994
3211.00,1.9154
3210.00,1.9309
3209.00,1.9462
3208.00,1.9614
3207.00,1.9764
3206.00,1.9910
3205.00,2.0049
3204.00,2.0182
3203.00,2.0309
3202.00,2.0436
3201.00,2.0563
3200.00,2.0684
3199.00,2.0794
3198.00,2.0896
3197.00,2.0992
3196.00,2.1084
3195.00,2.1168
3194.00,2.1246
3193.00,2.1320
3192.00,2.1392
3191.00,2.1464
3190.00,2.1534
3189.00,2.1600
3188.00,2.1659
3187.00,2.1707
3186.00,2.1746
3185.00,2.1784
3184.00,2.1825
3183.00,2.1868
3182.00,2.1905
3181.00,2.1933
3180.00,2.1955
3179.00,2.1973
3178.00,2.1989
3177.00,2.2001
3176.00,2.2008
3175.00,2.2007
3174.00,2.2002
3173.00,2.1995
3172.00,2.1987
3171.00,2.1978
3170.00,2.1968
3169.00,2.1957
3168.00,2.1944
3167.00,2.1923
3166.00,2.1892
3165.00,2.1852
3164.00,2.1807
3163.00,2.1760
3162.00,2.1708
3161.00,2.1650
3160.00,2.1588
3159.00,2.1522
3158.00,2.1452
3157.00,2.1379
3156.00,2.1304
3155.00,2.1226
3154.00,2.1143
3153.00,2.1052
3152.00,2.0950
3151.00,2.0839
3150.00,2.0723
3149.00,2.0603
3148.00,2.0478
3147.00,2.0347
3146.00,2.0211
3145.00,2.0072
3144.00,1.9927
3143.00,1.9776
3142.00,1.9617
3141.00,1.9454
3140.00,1.9287
3139.00,1.9116
3138.00,1.8940
3137.00,1.8759
3136.00,1.8575
3135.00,1.8389
3134.00,1.8202
3133.00,1.8015
3132.00,1.7828
3131.00,1.7640
3130.00,1.7452
3129.00,1.7265
3128.00,1.7081
3127.00,1.6900
3126.00,1.6727
3125.00,1.6561
3124.00,1.6405
3123.00,1.6257
3122.00,1.6120
3121.00,1.5994
3120.00,1.5882
3119.00,1.5784
3118.00,1.5703
3117.00,1.5639
3116.00,1.5591
3115.00,1.5560
3114.00,1.5547
3113.00,1.5551
3112.00,1.5573
3111.00,1.5612
3110.00,1.5668
3109.00,1.5740
3108.00,1.5828
3107.00,1.5932
3106.00,1.6050
3105.00,1.6181
3104.00,1.6323
3103.00,1.6475
3102.00,1.6635
3101.00,1.6804
3100.00,1.6981
3099.00,1.7166
3098.00,1.7356
3097.00,1.7550
3096.00,1.7746
3095.00,1.7943
3094.00,1.8142
3093.00,1.8340
3092.00,1.8537
3091.00,1.8733
3090.00,1.8928
3089.00,1.9125
3088.00,1.9320
3087.00,1.9510
3086.00,1.9691
3085.00,1.9867
3084.00,2.0041
3083.00,2.0214
3082.00,2.0384
3081.00,2.0550
3080.00,2.0709
3079.00,2.0862
3078.00,2.1009
3077.00,2.1152
3076.00,2.1290
3075.00,2.1424
3074.00,2.1551
3073.00,2.1673
3072.00,2.1788
3071.00,2.1893
3070.00,2.1987
3069.00,2.2074
3068.00,2.2161
3067.00,2.2248
3066.00,2.2335
3065.00,2.2417
3064.00,2.2494
3063.00,2.2562
3062.00,2.2620
3061.00,2.2665
3060.00,2.2699
3059.00,2.2730
3058.00,2.2761
3057.00,2.2792
3056.00,2.2812
3055.00,2.2819
3054.00,2.2817
3053.00,2.2814
3052.00,2.2814
3051.00,2.2808
3050.00,2.2791
3049.00,2.2761
3048.00,2.2722
3047.00,2.2676
3046.00,2.2628
3045.00,2.2580
3044.00,2.2530
3043.00,2.2472
3042.00,2.2404
3041.00,2.2324
3040.00,2.2232
3039.00,2.2126
3038.00,2.2008
3037.00,2.1887
3036.00,2.1766
3035.00,2.1643
3034.00,2.1509
3033.00,2.1362
3032.00,2.1206
3031.00,2.1045
3030.00,2.0882
3029.00,2.0715
3028.00,2.0540
3027.00,2.0353
3026.00,2.0153
3025.00,1.9942
3024.00,1.9726
3023.00,1.9507
3022.00,1.9286
3021.00,1.9060
3020.00,1.8833
3019.00,1.8609
3018.00,1.8390
3017.00,1.8180
3016.00,1.7983
3015.00,1.7802
3014.00,1.7641
3013.00,1.7500
3012.00,1.7384
3011.00,1.7298
3010.00,1.7246
3009.00,1.7232
3008.00,1.7256
3007.00,1.7319
3006.00,1.7419
3005.00,1.7559
3004.00,1.7736
3003.00,1.7949
3002.00,1.8194
3001.00,1.8466
3000.00,1.8762
2999.00,1.9078
2998.00,1.9412
2997.00,1.9760
2996.00,2.0116
2995.00,2.0476
2994.00,2.0838
2993.00,2.1201
2992.00,2.1559
2991.00,2.1912
2990.00,2.2261
2989.00,2.2608
2988.00,2.2951
2987.00,2.3286
2986.00,2.3608
2985.00,2.3912
2984.00,2.4198
2983.00,2.4475
2982.00,2.4756
2981.00,2.5048
2980.00,2.5345
2979.00,2.5641
2978.00,2.5942
2977.00,2.6264
2976.00,2.6615
2975.00,2.6994
2974.00,2.7405
2973.00,2.7860
2972.00,2.8375
2971.00,2.8955
2970.00,2.9604
2969.00,3.0323
2968.00,3.1106
2967.00,3.1927
2966.00,3.2746
2965.00,3.3524
2964.00,3.4256
2963.00,3.4982
2962.00,3.5759
2961.00,3.6593
2960.00,3.7367
2959.00,3.7885
2958.00,3.8130
2957.00,3.8332
2956.00,3.8723
2955.00,3.9391
2954.00,4.0290
2953.00,4.1222
2952.00,4.1865
2951.00,4.2109
2950.00,4.2198
2949.00,4.2337
2948.00,4.2389
2947.00,4.2179
2946.00,4.1907
2945.00,4.1982
2944.00,4.2642
2943.00,4.3583
2942.00,4.3939
2941.00,4.3753
2940.00,4.3694
2939.00,4.4466
2938.00,4.6266
2937.00,4.8208
2936.00,5.0589
2935.00,5.0476
2934.00,4.9032
2933.00,4.8152
2932.00,4.8237
2931.00,4.7706
2930.00,4.4979
2929.00,4.3148
2928.00,4.2378
2927.00,4.2251
2926.00,4.2180
2925.00,4.1952
2924.00,4.1631
2923.00,4.1139
2922.00,4.0433
2921.00,3.9539
2920.00,3.8587
2919.00,3.7705
2918.00,3.6892
2917.00,3.6078
2916.00,3.5233
2915.00,3.4410
2914.00,3.3702
2913.00,3.3134
2912.00,3.2650
2911.00,3.2196
2910.00,3.1776
2909.00,3.1420
2908.00,3.1114
2907.00,3.0818
2906.00,3.0519
2905.00,3.0234
2904.00,2.9970
2903.00,2.9709
2902.00,2.9442
2901.00,2.9185
2900.00,2.8960
2899.00,2.8774
2898.00,2.8620
2897.00,2.8493
2896.00,2.8384
2895.00,2.8282
2894.00,2.8184
2893.00,2.8098
2892.00,2.8035
2891.00,2.7995
2890.00,2.7968
2889.00,2.7953
2888.00,2.7961
2887.00,2.8005
2886.00,2.8089
2885.00,2.8211
2884.00,2.8369
2883.00,2.8559
2882.00,2.8780
2881.00,2.9033
2880.00,2.9317
2879.00,2.9625
2878.00,2.9937
2877.00,3.0232
2876.00,3.0515
2875.00,3.0825
2874.00,3.1222
2873.00,3.1740
2872.00,3.2371
2871.00,3.3071
2870.00,3.3801
2869.00,3.4535
2868.00,3.5231
2867.00,3.5835
2866.00,3.6333
2865.00,3.6783
2864.00,3.7238
2863.00,3.7660
2862.00,3.7885
2861.00,3.7758
2860.00,3.7251
2859.00,3.6424
2858.00,3.5426
2857.00,3.4405
2856.00,3.3413
2855.00,3.2421
2854.00,3.1418
2853.00,3.0447
2852.00,2.9541
2851.00,2.8706
2850.00,2.7945
2849.00,2.7268
2848.00,2.6690
2847.00,2.6220
2846.00,2.5854
2845.00,2.5580
2844.00,2.5380
2843.00,2.5234
2842.00,2.5126
2841.00,2.5053
2840.00,2.5010
2839.00,2.4993
2838.00,2.4985
2837.00,2.4971
2836.00,2.4947
2835.00,2.4919
2834.00,2.4894
2833.00,2.4871
2832.00,2.4838
2831.00,2.4787
2830.00,2.4723
2829.00,2.4650
2828.00,2.4573
2827.00,2.4489
2826.00,2.4396
2825.00,2.4288
2824.00,2.4162
2823.00,2.4015
2822.00,2.3849
2821.00,2.3670
2820.00,2.3481
2819.00,2.3285
2818.00,2.3083
2817.00,2.2870
2816.00,2.2642
2815.00,2.2394
2814.00,2.2131
2813.00,2.1859
2812.00,2.1578
2811.00,2.1285
2810.00,2.0979
2809.00,2.0658
2808.00,2.0326
2807.00,1.9982
2806.00,1.9627
2805.00,1.9267
2804.00,1.8910
2803.00,1.8564
2802.00,1.8231
2801.00,1.7912
2800.00,1.7610
2799.00,1.7323
2798.00,1.7049
2797.00,1.6785
2796.00,1.6529
2795.00,1.6281
2794.00,1.6044
2793.00,1.5821
2792.00,1.5619
2791.00,1.5445
2790.00,1.5310
2789.00,1.5222
2788.00,1.5184
2787.00,1.5196
2786.00,1.5256
2785.00,1.5363
2784.00,1.5513
2783.00,1.5702
2782.00,1.5925
2781.00,1.6175
2780.00,1.6446
2779.00,1.6732
2778.00,1.7029
2777.00,1.7333
2776.00,1.7641
2775.00,1.7951
2774.00,1.8261
2773.00,1.8569
2772.00,1.8875
2771.00,1.9177
2770.00,1.9474
2769.00,1.9765
2768.00,2.0050
2767.00,2.0329
2766.00,2.0598
2765.00,2.0855
2764.00,2.1099
2763.00,2.1332
2762.00,2.1553
2761.00,2.1759
2760.00,2.1950
2759.00,2.2125
2758.00,2.2293
2757.00,2.2461
2756.00,2.2630
2755.00,2.2794
2754.00,2.2945
2753.00,2.3080
2752.00,2.3201
2751.00,2.3315
2750.00,2.3424
2749.00,2.3527
2748.00,2.3623
2747.00,2.3708
2746.00,2.3786
2745.00,2.3859
2744.00,2.3928
2743.00,2.3991
2742.00,2.4048
2741.00,2.4100
2740.00,2.4145
2739.00,2.4178
2738.00,2.4198
2737.00,2.4212
2736.00,2.4228
2735.00,2.4246
2734.00,2.4262
2733.00,2.4274
2732.00,2.4280
2731.00,2.4279
2730.00,2.4264
2729.00,2.4232
2728.00,2.4185
2727.00,2.4130
2726.00,2.4073
2725.00,2.4017
2724.00,2.3960
2723.00,2.3898
2722.00,2.3825
2721.00,2.3744
2720.00,2.3655
2719.00,2.3560
2718.00,2.3458
2717.00,2.3348
2716.00,2.3229
2715.00,2.3100
2714.00,2.2965
2713.00,2.2829
2712.00,2.2692
2711.00,2.2548
2710.00,2.2388
2709.00,2.2211
2708.00,2.2021
2707.00,2.1825
2706.00,2.1621
2705.00,2.1408
2704.00,2.1186
2703.00,2.0955
2702.00,2.0713
2701.00,2.0456
2700.00,2.0182
2699.00,1.9895
2698.00,1.9598
2697.00,1.9292
2696.00,1.8977
2695.00,1.8650
2694.00,1.8315
2693.00,1.7974
2692.00,1.7631
2691.00,1.7287
2690.00,1.6946
2689.00,1.6615
2688.00,1.6302
2687.00,1.6015
2686.00,1.5760
2685.00,1.5543
2684.00,1.5369
2683.00,1.5239
2682.00,1.5156
2681.00,1.5117
2680.00,1.5118
2679.00,1.5151
2678.00,1.5208
2677.00,1.5279
2676.00,1.5356
2675.00,1.5437
2674.00,1.5521
2673.00,1.5612
2672.00,1.5713
2671.00,1.5821
2670.00,1.5933
2669.00,1.6043
2668.00,1.6151
2667.00,1.6256
2666.00,1.6363
2665.00,1.6480
2664.00,1.6618
2663.00,1.6783
2662.00,1.6978
2661.00,1.7203
2660.00,1.7452
2659.00,1.7722
2658.00,1.8007
2657.00,1.8302
2656.00,1.8600
2655.00,1.8896
2654.00,1.9186
2653.00,1.9469
2652.00,1.9746
2651.00,2.0019
2650.00,2.0286
2649.00,2.0541
2648.00,2.0781
2647.00,2.1008
2646.00,2.1229
2645.00,2.1448
2644.00,2.1661
2643.00,2.1866
2642.00,2.2063
2641.00,2.2254
2640.00,2.2442
2639.00,2.2626
2638.00,2.2808
2637.00,2.2989
2636.00,2.3165
2635.00,2.3332
2634.00,2.3482
2633.00,2.3613
2632.00,2.3733
2631.00,2.3853
2630.00,2.3978
2629.00,2.4097
2628.00,2.4200
2627.00,2.4289
2626.00,2.4377
2625.00,2.4470
2624.00,2.4560
2623.00,2.4640
2622.00,2.4710
2621.00,2.4773
2620.00,2.4831
2619.00,2.4886
2618.00,2.4941
2617.00,2.4994
2616.00,2.5036
2615.00,2.5062
2614.00,2.5075
2613.00,2.5087
2612.00,2.5097
2611.00,2.5102
2610.00,2.5099
2609.00,2.5092
2608.00,2.5083
2607.00,2.5073
2606.00,2.5060
2605.00,2.5045
2604.00,2.5026
2603.00,2.5003
2602.00,2.4974
2601.00,2.4933
2600.00,2.4882
2599.00,2.4824
2598.00,2.4766
2597.00,2.4705
2596.00,2.4632
2595.00,2.4543
2594.00,2.4445
2593.00,2.4346
2592.00,2.4248
2591.00,2.4148
2590.00,2.4048
2589.00,2.3949
2588.00,2.3845
2587.00,2.3729
2586.00,2.3599
2585.00,2.3461
2584.00,2.3317
2583.00,2.3165
2582.00,2.3002
2581.00,2.2826
2580.00,2.2641
2579.00,2.2451
2578.00,2.2256
2577.00,2.2053
2576.00,2.1836
2575.00,2.1604
2574.00,2.1360
2573.00,2.1111
2572.00,2.0855
2571.00,2.0587
2570.00,2.0304
2569.00,2.0008
2568.00,1.9699
2567.00,1.9374
2566.00,1.9033
2565.00,1.8679
2564.00,1.8315
2563.00,1.7942
2562.00,1.7560
2561.00,1.7169
2560.00,1.6772
2559.00,1.6373
2558.00,1.5980
2557.00,1.5599
2556.00,1.5237
2555.00,1.4898
2554.00,1.4587
2553.00,1.4309
2552.00,1.4071
2551.00,1.3878
2550.00,1.3731
2549.00,1.3635
2548.00,1.3590
2547.00,1.3596
2546.00,1.3651
2545.00,1.3752
2544.00,1.3898
2543.00,1.4083
2542.00,1.4304
2541.00,1.4555
2540.00,1.4832
2539.00,1.5129
2538.00,1.5442
2537.00,1.5767
2536.00,1.6103
2535.00,1.6446
2534.00,1.6795
2533.00,1.7148
2532.00,1.7501
2531.00,1.7851
2530.00,1.8198
2529.00,1.8541
2528.00,1.8881
2527.00,1.9217
2526.00,1.9548
2525.00,1.9873
2524.00,2.0189
2523.00,2.0493
2522.00,2.0788
2521.00,2.1074
2520.00,2.1349
2519.00,2.1610
2518.00,2.1857
2517.00,2.2100
2516.00,2.2343
2515.00,2.2581
2514.00,2.2803
2513.00,2.3006
2512.00,2.3196
2511.00,2.3380
2510.00,2.3562
2509.00,2.3741
2508.00,2.3915
2507.00,2.4075
2506.00,2.4217
2505.00,2.4344
2504.00,2.4465
2503.00,2.4587
2502.00,2.4711
2501.00,2.4833
2500.00,2.4949
2499.00,2.5053
2498.00,2.5144
2497.00,2.5229
2496.00,2.5317
2495.00,2.5407
2494.00,2.5489
2493.00,2.5560
2492.00,2.5619
2491.00,2.5671
2490.00,2.5713
2489.00,2.5744
2488.00,2.5767
2487.00,2.5784
2486.00,2.5799
2485.00,2.5811
2484.00,2.5824
2483.00,2.5838
2482.00,2.5852
2481.00,2.5864
2480.00,2.5868
2479.00,2.5860
2478.00,2.5839
2477.00,2.5810
2476.00,2.5783
2475.00,2.5761
2474.00,2.5743
2473.00,2.5727
2472.00,2.5708
2471.00,2.5678
2470.00,2.5630
2469.00,2.5568
2468.00,2.5499
2467.00,2.5426
2466.00,2.5344
2465.00,2.5251
2464.00,2.5152
2463.00,2.5053
2462.00,2.4951
2461.00,2.4847
2460.00,2.4738
2459.00,2.4626
2458.00,2.4506
2457.00,2.4375
2456.00,2.4236
2455.00,2.4089
2454.00,2.3933
2453.00,2.3765
2452.00,2.3584
2451.00,2.3397
2450.00,2.3205
2449.00,2.3006
2448.00,2.2794
2447.00,2.2568
2446.00,2.2328
2445.00,2.2073
2444.00,2.1803
2443.00,2.1518
2442.00,2.1219
2441.00,2.0905
2440.00,2.0575
2439.00,2.0227
2438.00,1.9860
2437.00,1.9475
2436.00,1.9075
2435.00,1.8661
2434.00,1.8237
2433.00,1.7803
2432.00,1.7365
2431.00,1.6925
2430.00,1.6487
2429.00,1.6058
2428.00,1.5641
2427.00,1.5244
2426.00,1.4871
2425.00,1.4526
2424.00,1.4215
2423.00,1.3944
2422.00,1.3716
2421.00,1.3537
2420.00,1.3409
2419.00,1.3335
2418.00,1.3314
2417.00,1.3348
2416.00,1.3436
2415.00,1.3577
2414.00,1.3768
2413.00,1.4005
2412.00,1.4284
2411.00,1.4597
2410.00,1.4938
2409.00,1.5302
2408.00,1.5683
2407.00,1.6079
2406.00,1.6484
2405.00,1.6897
2404.00,1.7312
2403.00,1.7727
2402.00,1.8141
2401.00,1.8551
2400.00,1.8958
2399.00,1.9359
2398.00,1.9751
2397.00,2.0130
2396.00,2.0492
2395.00,2.0839
2394.00,2.1168
2393.00,2.1478
2392.00,2.1766
2391.00,2.2028
2390.00,2.2260
2389.00,2.2456
2388.00,2.2612
2387.00,2.2728
2386.00,2.2814
2385.00,2.2883
2384.00,2.2952
2383.00,2.3037
2382.00,2.3154
2381.00,2.3310
2380.00,2.3505
2379.00,2.3733
2378.00,2.3987
2377.00,2.4257
2376.00,2.4522
2375.00,2.4759
2374.00,2.4956
2373.00,2.5117
2372.00,2.5261
2371.00,2.5402
2370.00,2.5536
2369.00,2.5641
2368.00,2.5719
2367.00,2.5808
2366.00,2.5909
2365.00,2.6017
2364.00,2.6085
2363.00,2.6174
2362.00,2.6217
2361.00,2.6701
2360.00,2.6880
2359.00,2.6866
2358.00,2.6912
2357.00,2.6919
2356.00,2.6952
2355.00,2.6970
2354.00,2.6980
2353.00,2.6971
2352.00,2.6951
2351.00,2.6917
2350.00,2.6888
2349.00,2.6851
2348.00,2.6858
2347.00,2.6759
2346.00,2.6819
2345.00,2.6888
2344.00,2.6856
2343.00,2.6787
2342.00,2.6678
2341.00,2.6566
2340.00,2.6457
2339.00,2.6356
2338.00,2.6244
2337.00,2.6108
2336.00,2.5932
2335.00,2.5733
2334.00,2.5541
2333.00,2.5364
2332.00,2.5223
2331.00,2.5092
2330.00,2.4959
2329.00,2.4786
2328.00,2.4571
2327.00,2.4346
2326.00,2.4138
2325.00,2.3967
2324.00,2.3809
2323.00,2.3649
2322.00,2.3474
2321.00,2.3284
2320.00,2.3074
2319.00,2.2829
2318.00,2.2549
2317.00,2.2237
2316.00,2.1920
2315.00,2.1612
2314.00,2.1326
2313.00,2.1053
2312.00,2.0789
2311.00,2.0521
2310.00,2.0247
2309.00,1.9957
2308.00,1.9648
2307.00,1.9314
2306.00,1.8956
2305.00,1.8578
2304.00,1.8188
2303.00,1.7785
2302.00,1.7370
2301.00,1.6945
2300.00,1.6520
2299.00,1.6100
2298.00,1.5696
2297.00,1.5313
2296.00,1.4957
2295.00,1.4633
2294.00,1.4345
2293.00,1.4095
2292.00,1.3887
2291.00,1.3723
2290.00,1.3611
2289.00,1.3556
2288.00,1.3562
2287.00,1.3629
2286.00,1.3755
2285.00,1.3938
2284.00,1.4177
2283.00,1.4467
2282.00,1.4802
2281.00,1.5173
2280.00,1.5574
2279.00,1.5994
2278.00,1.6430
2277.00,1.6876
2276.00,1.7326
2275.00,1.7776
2274.00,1.8221
2273.00,1.8660
2272.00,1.9092
2271.00,1.9516
2270.00,1.9933
2269.00,2.0341
2268.00,2.0738
2267.00,2.1122
2266.00,2.1492
2265.00,2.1848
2264.00,2.2188
2263.00,2.2516
2262.00,2.2833
2261.00,2.3137
2260.00,2.3423
2259.00,2.3690
2258.00,2.3948
2257.00,2.4202
2256.00,2.4452
2255.00,2.4688
2254.00,2.4907
2253.00,2.5108
2252.00,2.5288
2251.00,2.5444
2250.00,2.5581
2249.00,2.5712
2248.00,2.5845
2247.00,2.5984
2246.00,2.6129
2245.00,2.6274
2244.00,2.6408
2243.00,2.6523
2242.00,2.6619
2241.00,2.6705
2240.00,2.6790
2239.00,2.6881
2238.00,2.6981
2237.00,2.7086
2236.00,2.7180
2235.00,2.7253
2234.00,2.7310
2233.00,2.7360
2232.00,2.7407
2231.00,2.7442
2230.00,2.7465
2229.00,2.7486
2228.00,2.7516
2227.00,2.7555
2226.00,2.7597
2225.00,2.7634
2224.00,2.7669
2223.00,2.7706
2222.00,2.7745
2221.00,2.7775
2220.00,2.7777
2219.00,2.7749
2218.00,2.7709
2217.00,2.7681
2216.00,2.7670
2215.00,2.7662
2214.00,2.7639
2213.00,2.7593
2212.00,2.7528
2211.00,2.7450
2210.00,2.7370
2209.00,2.7296
2208.00,2.7228
2207.00,2.7164
2206.00,2.7097
2205.00,2.7019
2204.00,2.6921
2203.00,2.6806
2202.00,2.6687
2201.00,2.6575
2200.00,2.6471
2199.00,2.6364
2198.00,2.6247
2197.00,2.6117
2196.00,2.5970
2195.00,2.5806
2194.00,2.5632
2193.00,2.5460
2192.00,2.5289
2191.00,2.5107
2190.00,2.4906
2189.00,2.4688
2188.00,2.4461
2187.00,2.4228
2186.00,2.3985
2185.00,2.3727
2184.00,2.3455
2183.00,2.3170
2182.00,2.2872
2181.00,2.2563
2180.00,2.2246
2179.00,2.1921
2178.00,2.1592
2177.00,2.1255
2176.00,2.0902
2175.00,2.0524
2174.00,2.0119
2173.00,1.9691
2172.00,1.9241
2171.00,1.8771
2170.00,1.8286
2169.00,1.7791
2168.00,1.7294
2167.00,1.6803
2166.00,1.6328
2165.00,1.5878
2164.00,1.5465
2163.00,1.5099
2162.00,1.4791
2161.00,1.4550
2160.00,1.4382
2159.00,1.4292
2158.00,1.4281
2157.00,1.4351
2156.00,1.4497
2155.00,1.4714
2154.00,1.4994
2153.00,1.5326
2152.00,1.5702
2151.00,1.6111
2150.00,1.6546
2149.00,1.6999
2148.00,1.7464
2147.00,1.7936
2146.00,1.8411
2145.00,1.8884
2144.00,1.9350
2143.00,1.9808
2142.00,2.0259
2141.00,2.0703
2140.00,2.1137
2139.00,2.1555
2138.00,2.1953
2137.00,2.2333
2136.00,2.2699
2135.00,2.3050
2134.00,2.3380
2133.00,2.3688
2132.00,2.3978
2131.00,2.4258
2130.00,2.4533
2129.00,2.4803
2128.00,2.5063
2127.00,2.5303
2126.00,2.5524
2125.00,2.5732
2124.00,2.5936
2123.00,2.6130
2122.00,2.6308
2121.00,2.6466
2120.00,2.6615
2119.00,2.6769
2118.00,2.6931
2117.00,2.7097
2116.00,2.7260
2115.00,2.7405
2114.00,2.7523
2113.00,2.7616
2112.00,2.7704
2111.00,2.7803
2110.00,2.7910
2109.00,2.8006
2108.00,2.8072
2107.00,2.8120
2106.00,2.8172
2105.00,2.8245
2104.00,2.8334
2103.00,2.8423
2102.00,2.8499
2101.00,2.8557
2100.00,2.8596
2099.00,2.8619
2098.00,2.8631
2097.00,2.8638
2096.00,2.8646
2095.00,2.8657
2094.00,2.8666
2093.00,2.8664
2092.00,2.8651
2091.00,2.8632
2090.00,2.8614
2089.00,2.8595
2088.00,2.8573
2087.00,2.8550
2086.00,2.8528
2085.00,2.8499
2084.00,2.8455
2083.00,2.8399
2082.00,2.8348
2081.00,2.8304
2080.00,2.8256
2079.00,2.8182
2078.00,2.8086
2077.00,2.7988
2076.00,2.7908
2075.00,2.7842
2074.00,2.7773
2073.00,2.7689
2072.00,2.7586
2071.00,2.7473
2070.00,2.7359
2069.00,2.7247
2068.00,2.7130
2067.00,2.6997
2066.00,2.6843
2065.00,2.6681
2064.00,2.6526
2063.00,2.6375
2062.00,2.6218
2061.00,2.6048
2060.00,2.5871
2059.00,2.5683
2058.00,2.5473
2057.00,2.5232
2056.00,2.4968
2055.00,2.4693
2054.00,2.4406
2053.00,2.4098
2052.00,2.3761
2051.00,2.3403
2050.00,2.3027
2049.00,2.2632
2048.00,2.2212
2047.00,2.1764
2046.00,2.1292
2045.00,2.0799
2044.00,2.0289
2043.00,1.9763
2042.00,1.9225
2041.00,1.8680
2040.00,1.8135
2039.00,1.7597
2038.00,1.7079
2037.00,1.6596
2036.00,1.6158
2035.00,1.5776
2034.00,1.5456
2033.00,1.5206
2032.00,1.5033
2031.00,1.4942
2030.00,1.4935
2029.00,1.5013
2028.00,1.5175
2027.00,1.5414
2026.00,1.5721
2025.00,1.6084
2024.00,1.6489
2023.00,1.6927
2022.00,1.7387
2021.00,1.7862
2020.00,1.8344
2019.00,1.8827
2018.00,1.9310
2017.00,1.9794
2016.00,2.0276
2015.00,2.0750
2014.00,2.1213
2013.00,2.1666
2012.00,2.2109
2011.00,2.2538
2010.00,2.2947
2009.00,2.3338
2008.00,2.3715
2007.00,2.4080
2006.00,2.4431
2005.00,2.4763
2004.00,2.5072
2003.00,2.5361
2002.00,2.5636
2001.00,2.5897
2000.00,2.6139
1999.00,2.6356
1998.00,2.6559
1997.00,2.6767
1996.00,2.6992
1995.00,2.7214
1994.00,2.7400
1993.00,2.7534
1992.00,2.7642
1991.00,2.7766
1990.00,2.7930
1989.00,2.8124
1988.00,2.8324
1987.00,2.8509
1986.00,2.8677
1985.00,2.8820
1984.00,2.8925
1983.00,2.8989
1982.00,2.9031
1981.00,2.9079
1980.00,2.9142
1979.00,2.9206
1978.00,2.9256
1977.00,2.9294
1976.00,2.9336
1975.00,2.9394
1974.00,2.9473
1973.00,2.9565
1972.00,2.9641
1971.00,2.9671
1970.00,2.9654
1969.00,2.9625
1968.00,2.9614
1967.00,2.9625
1966.00,2.9639
1965.00,2.9641
1964.00,2.9623
1963.00,2.9585
1962.00,2.9533
1961.00,2.9489
1960.00,2.9471
1959.00,2.9479
1958.00,2.9489
1957.00,2.9479
1956.00,2.9449
1955.00,2.9409
1954.00,2.9362
1953.00,2.9301
1952.00,2.9225
1951.00,2.9142
1950.00,2.9056
1949.00,2.8960
1948.00,2.8849
1947.00,2.8730
1946.00,2.8605
1945.00,2.8469
1944.00,2.8328
1943.00,2.8201
1942.00,2.8098
1941.00,2.7995
1940.00,2.7858
1939.00,2.7688
1938.00,2.7510
1937.00,2.7335
1936.00,2.7144
1935.00,2.6919
1934.00,2.6671
1933.00,2.6419
1932.00,2.6165
1931.00,2.5895
1930.00,2.5603
1929.00,2.5291
1928.00,2.4961
1927.00,2.4616
1926.00,2.4254
1925.00,2.3869
1924.00,2.3448
1923.00,2.2995
1922.00,2.2521
1921.00,2.2023
1920.00,2.1484
1919.00,2.0905
1918.00,2.0317
1917.00,1.9750
1916.00,1.9202
1915.00,1.8659
1914.00,1.8123
1913.00,1.7618
1912.00,1.7157
1911.00,1.6742
1910.00,1.6386
1909.00,1.6113
1908.00,1.5939
1907.00,1.5865
1906.00,1.5887
1905.00,1.6007
1904.00,1.6219
1903.00,1.6516
1902.00,1.6883
1901.00,1.7309
1900.00,1.7783
1899.00,1.8289
1898.00,1.8814
1897.00,1.9350
1896.00,1.9893
1895.00,2.0445
1894.00,2.1004
1893.00,2.1559
1892.00,2.2088
1891.00,2.2585
1890.00,2.3065
1889.00,2.3546
1888.00,2.4022
1887.00,2.4474
1886.00,2.4897
1885.00,2.5303
1884.00,2.5701
1883.00,2.6079
1882.00,2.6422
1881.00,2.6723
1880.00,2.6995
1879.00,2.7250
1878.00,2.7493
1877.00,2.7723
1876.00,2.7944
1875.00,2.8157
1874.00,2.8362
1873.00,2.8538
1872.00,2.8660
1871.00,2.8735
1870.00,2.8803
1869.00,2.8896
1868.00,2.9009
1867.00,2.9131
1866.00,2.9272
1865.00,2.9447
1864.00,2.9645
1863.00,2.9823
1862.00,2.9951
1861.00,3.0040
1860.00,3.0111
1859.00,3.0168
1858.00,3.0206
1857.00,3.0243
1856.00,3.0312
1855.00,3.0425
1854.00,3.0556
1853.00,3.0657
1852.00,3.0698
1851.00,3.0686
1850.00,3.0650
1849.00,3.0625
1848.00,3.0613
1847.00,3.0582
1846.00,3.0500
1845.00,3.0388
1844.00,3.0300
1843.00,3.0259
1842.00,3.0236
1841.00,3.0189
1840.00,3.0124
1839.00,3.0071
1838.00,3.0031
1837.00,2.9977
1836.00,2.9899
1835.00,2.9821
1834.00,2.9749
1833.00,2.9647
1832.00,2.9474
1831.00,2.9234
1830.00,2.8981
1829.00,2.8771
1828.00,2.8599
1827.00,2.8423
1826.00,2.8223
1825.00,2.8024
1824.00,2.7838
1823.00,2.7640
1822.00,2.7398
1821.00,2.7113
1820.00,2.6806
1819.00,2.6484
1818.00,2.6143
1817.00,2.5775
1816.00,2.5389
1815.00,2.5002
1814.00,2.4625
1813.00,2.4267
1812.00,2.3932
1811.00,2.3627
1810.00,2.3365
1809.00,2.3151
1808.00,2.2977
1807.00,2.2819
1806.00,2.2643
1805.00,2.2426
1804.00,2.2162
1803.00,2.1871
1802.00,2.1582
1801.00,2.1325
1800.00,2.1130
1799.00,2.1017
1798.00,2.1017
1797.00,2.1147
1796.00,2.1392
1795.00,2.1706
1794.00,2.2067
1793.00,2.2500
1792.00,2.3043
1791.00,2.3686
1790.00,2.4371
1789.00,2.5032
1788.00,2.5650
1787.00,2.6236
1786.00,2.6806
1785.00,2.7368
1784.00,2.7899
1783.00,2.8362
1782.00,2.8738
1781.00,2.9073
1780.00,2.9432
1779.00,2.9819
1778.00,3.0197
1777.00,3.0527
1776.00,3.0787
1775.00,3.0963
1774.00,3.1071
1773.00,3.1173
1772.00,3.1318
1771.00,3.1508
1770.00,3.1729
1769.00,3.1982
1768.00,3.2255
1767.00,3.2509
1766.00,3.2696
1765.00,3.2801
1764.00,3.2831
1763.00,3.2785
1762.00,3.2674
1761.00,3.2550
1760.00,3.2460
1759.00,3.2400
1758.00,3.2339
1757.00,3.2265
1756.00,3.2202
1755.00,3.2159
1754.00,3.2135
1753.00,3.2175
1752.00,3.2344
1751.00,3.2640
1750.00,3.2967
1749.00,3.3222
1748.00,3.3407
1747.00,3.3627
1746.00,3.3981
1745.00,3.4527
1744.00,3.5269
1743.00,3.6131
1742.00,3.6974
1741.00,3.7680
1740.00,3.8289
1739.00,3.8927
1738.00,3.9559
1737.00,3.9935
1736.00,3.9956
1735.00,3.9942
1734.00,4.0323
1733.00,4.1243
1732.00,4.2574
1731.00,4.4229
1730.00,4.5982
1729.00,4.6686
1728.00,4.6566
1727.00,4.6923
1726.00,4.8652
1725.00,5.0749
1724.00,4.7821
1723.00,4.4909
1722.00,4.3438
1721.00,4.2807
1720.00,4.3150
1719.00,4.4261
1718.00,4.7102
1717.00,5.3641
1716.00,5.0812
1715.00,4.7399
1714.00,4.4582
1713.00,4.3154
1712.00,4.3472
1711.00,4.4776
1710.00,4.6400
1709.00,4.7891
1708.00,4.8646
1707.00,4.7258
1706.00,4.5424
1705.00,4.4664
1704.00,4.4966
1703.00,4.5653
1702.00,4.6223
1701.00,4.5285
1700.00,4.3808
1699.00,4.3533
1698.00,4.3950
1697.00,4.4162
1696.00,4.4099
1695.00,4.4210
1694.00,4.4639
1693.00,4.4924
1692.00,4.4056
1691.00,4.2029
1690.00,4.0186
1689.00,3.8948
1688.00,3.8114
1687.00,3.7443
1686.00,3.6810
1685.00,3.6237
1684.00,3.5799
1683.00,3.5492
1682.00,3.5241
1681.00,3.4999
1680.00,3.4752
1679.00,3.4454
1678.00,3.4029
1677.00,3.3459
1676.00,3.2830
1675.00,3.2257
1674.00,3.1777
1673.00,3.1309
1672.00,3.0746
1671.00,3.0082
1670.00,2.9404
1669.00,2.8801
1668.00,2.8334
1667.00,2.8006
1666.00,2.7772
1665.00,2.7603
1664.00,2.7513
1663.00,2.7536
1662.00,2.7690
1661.00,2.7959
1660.00,2.8309
1659.00,2.8703
1658.00,2.9115
1657.00,2.9485
1656.00,2.9730
1655.00,2.9844
1654.00,2.9945
1653.00,3.0178
1652.00,3.0623
1651.00,3.1171
1650.00,3.1515
1649.00,3.1578
1648.00,3.1580
1647.00,3.1688
1646.00,3.1931
1645.00,3.2263
1644.00,3.2578
1643.00,3.2758
1642.00,3.2788
1641.00,3.2784
1640.00,3.2843
1639.00,3.2942
1638.00,3.3001
1637.00,3.2968
1636.00,3.2854
1635.00,3.2728
1634.00,3.2679
1633.00,3.2704
1632.00,3.2722
1631.00,3.2710
1630.00,3.2680
1629.00,3.2631
1628.00,3.2570
1627.00,3.2503
1626.00,3.2399
1625.00,3.2222
1624.00,3.1988
1623.00,3.1763
1622.00,3.1609
1621.00,3.1526
1620.00,3.1462
1619.00,3.1368
1618.00,3.1231
1617.00,3.1039
1616.00,3.0812
1615.00,3.0593
1614.00,3.0364
1613.00,3.0092
1612.00,2.9807
1611.00,2.9548
1610.00,2.9294
1609.00,2.8994
1608.00,2.8631
1607.00,2.8230
1606.00,2.7816
1605.00,2.7402
1604.00,2.6990
1603.00,2.6569
1602.00,2.6123
1601.00,2.5634
1600.00,2.5099
1599.00,2.4536
1598.00,2.3966
1597.00,2.3397
1596.00,2.2829
1595.00,2.2279
1594.00,2.1778
1593.00,2.1348
1592.00,2.0997
1591.00,2.0724
1590.00,2.0532
1589.00,2.0417
1588.00,2.0379
1587.00,2.0419
1586.00,2.0545
1585.00,2.0760
1584.00,2.1067
1583.00,2.1457
1582.00,2.1918
1581.00,2.2436
1580.00,2.2956
1579.00,2.3421
1578.00,2.3852
1577.00,2.4350
1576.00,2.4979
1575.00,2.5685
1574.00,2.6317
1573.00,2.6772
1572.00,2.7096
1571.00,2.7399
1570.00,2.7737
1569.00,2.8103
1568.00,2.8490
1567.00,2.8868
1566.00,2.9213
1565.00,2.9538
1564.00,2.9854
1563.00,3.0122
1562.00,3.0288
1561.00,3.0355
1560.00,3.0369
1559.00,3.0379
1558.00,3.0506
1557.00,3.0802
1556.00,3.1093
1555.00,3.1285
1554.00,3.1482
1553.00,3.1751
1552.00,3.2005
1551.00,3.2148
1550.00,3.2222
1549.00,3.2292
1548.00,3.2367
1547.00,3.2414
1546.00,3.2430
1545.00,3.2451
1544.00,3.2487
1543.00,3.2510
1542.00,3.2499
1541.00,3.2474
1540.00,3.2494
1539.00,3.2631
1538.00,3.2866
1537.00,3.3038
1536.00,3.3056
1535.00,3.3032
1534.00,3.3070
1533.00,3.3128
1532.00,3.3119
1531.00,3.3054
1530.00,3.3005
1529.00,3.2992
1528.00,3.2966
1527.00,3.2889
1526.00,3.2771
1525.00,3.2643
1524.00,3.2486
1523.00,3.2275
1522.00,3.2049
1521.00,3.1876
1520.00,3.1767
1519.00,3.1634
1518.00,3.1429
1517.00,3.1238
1516.00,3.1139
1515.00,3.1088
1514.00,3.0977
1513.00,3.0785
1512.00,3.0571
1511.00,3.0373
1510.00,3.0159
1509.00,2.9877
1508.00,2.9512
1507.00,2.9089
1506.00,2.8691
1505.00,2.8422
1504.00,2.8256
1503.00,2.8037
1502.00,2.7705
1501.00,2.7300
1500.00,2.6837
1499.00,2.6308
1498.00,2.5741
1497.00,2.5186
1496.00,2.4662
1495.00,2.4170
1494.00,2.3671
1493.00,2.3136
1492.00,2.2589
1491.00,2.2089
1490.00,2.1691
1489.00,2.1442
1488.00,2.1369
1487.00,2.1484
1486.00,2.1780
1485.00,2.2217
1484.00,2.2752
1483.00,2.3341
1482.00,2.3968
1481.00,2.4644
1480.00,2.5354
1479.00,2.6060
1478.00,2.6739
1477.00,2.7390
1476.00,2.7998
1475.00,2.8551
1474.00,2.9075
1473.00,2.9643
1472.00,3.0310
1471.00,3.1047
1470.00,3.1769
1469.00,3.2414
1468.00,3.2956
1467.00,3.3390
1466.00,3.3733
1465.00,3.4042
1464.00,3.4353
1463.00,3.4604
1462.00,3.4727
1461.00,3.4734
1460.00,3.4700
1459.00,3.4703
1458.00,3.4843
1457.00,3.5284
1456.00,3.6180
1455.00,3.7448
1454.00,3.8717
1453.00,3.9660
1452.00,4.0276
1451.00,4.0782
1450.00,4.1216
1449.00,4.1208
1448.00,4.0526
1447.00,3.9472
1446.00,3.8284
1445.00,3.7067
1444.00,3.5982
1443.00,3.5205
1442.00,3.4841
1441.00,3.4858
1440.00,3.5107
1439.00,3.5408
1438.00,3.5677
1437.00,3.5959
1436.00,3.6320
1435.00,3.6721
1434.00,3.7056
1433.00,3.7297
1432.00,3.7504
1431.00,3.7734
1430.00,3.7997
1429.00,3.8165
1428.00,3.8099
1427.00,3.7843
1426.00,3.7511
1425.00,3.7278
1424.00,3.7326
1423.00,3.7698
1422.00,3.8215
1421.00,3.8429
1420.00,3.7985
1419.00,3.7180
1418.00,3.6538
1417.00,3.6235
1416.00,3.6124
1415.00,3.5981
1414.00,3.5703
1413.00,3.5388
1412.00,3.5215
1411.00,3.5265
1410.00,3.5440
1409.00,3.5528
1408.00,3.5425
1407.00,3.5233
1406.00,3.5067
1405.00,3.4949
1404.00,3.4876
1403.00,3.4888
1402.00,3.4999
1401.00,3.5144
1400.00,3.5228
1399.00,3.5182
1398.00,3.5006
1397.00,3.4787
1396.00,3.4626
1395.00,3.4599
1394.00,3.4709
1393.00,3.4876
1392.00,3.5005
1391.00,3.5073
1390.00,3.5102
1389.00,3.5072
1388.00,3.4951
1387.00,3.4781
1386.00,3.4639
1385.00,3.4538
1384.00,3.4425
1383.00,3.4252
1382.00,3.4033
1381.00,3.3829
1380.00,3.3701
1379.00,3.3664
1378.00,3.3665
1377.00,3.3600
1376.00,3.3393
1375.00,3.3083
1374.00,3.2784
1373.00,3.2562
1372.00,3.2382
1371.00,3.2167
1370.00,3.1874
1369.00,3.1520
1368.00,3.1137
1367.00,3.0741
1366.00,3.0344
1365.00,2.9963
1364.00,2.9612
1363.00,2.9299
1362.00,2.9023
1361.00,2.8793
1360.00,2.8632
1359.00,2.8566
1358.00,2.8613
1357.00,2.8790
1356.00,2.9132
1355.00,2.9688
1354.00,3.0489
1353.00,3.1501
1352.00,3.2629
1351.00,3.3762
1350.00,3.4811
1349.00,3.5676
1348.00,3.6215
1347.00,3.6340
1346.00,3.6133
1345.00,3.5772
1344.00,3.5441
1343.00,3.5305
1342.00,3.5470
1341.00,3.5922
1340.00,3.6456
1339.00,3.6700
1338.00,3.6396
1337.00,3.5636
1336.00,3.4691
1335.00,3.3763
1334.00,3.2947
1333.00,3.2275
1332.00,3.1767
1331.00,3.1450
1330.00,3.1356
1329.00,3.1497
1328.00,3.1858
1327.00,3.2397
1326.00,3.3045
1325.00,3.3732
1324.00,3.4415
1323.00,3.5090
1322.00,3.5762
1321.00,3.6432
1320.00,3.7077
1319.00,3.7677
1318.00,3.8334
1317.00,3.9266
1316.00,4.0630
1315.00,4.2272
1314.00,4.3491
1313.00,4.3922
1312.00,4.4088
1311.00,4.3659
1310.00,4.2235
1309.00,4.0526
1308.00,3.9003
1307.00,3.7787
1306.00,3.6842
1305.00,3.5992
1304.00,3.5090
1303.00,3.4177
1302.00,3.3398
1301.00,3.2867
1300.00,3.2628
1299.00,3.2662
1298.00,3.2882
1297.00,3.3150
1296.00,3.3362
1295.00,3.3532
1294.00,3.3765
1293.00,3.4132
1292.00,3.4602
1291.00,3.5097
1290.00,3.5554
1289.00,3.5934
1288.00,3.6219
1287.00,3.6411
1286.00,3.6512
1285.00,3.6520
1284.00,3.6450
1283.00,3.6359
1282.00,3.6318
1281.00,3.6348
1280.00,3.6424
1279.00,3.6554
1278.00,3.6799
1277.00,3.7174
1276.00,3.7516
1275.00,3.7562
1274.00,3.7290
1273.00,3.6968
1272.00,3.6788
1271.00,3.6746
1270.00,3.6788
1269.00,3.6927
1268.00,3.7174
1267.00,3.7433
1266.00,3.7574
1265.00,3.7588
1264.00,3.7584
1263.00,3.7640
1262.00,3.7710
1261.00,3.7723
1260.00,3.7734
1259.00,3.7837
1258.00,3.8014
1257.00,3.8177
1256.00,3.8269
1255.00,3.8262
1254.00,3.8075
1253.00,3.7669
1252.00,3.7145
1251.00,3.6653
1250.00,3.6288
1249.00,3.6075
1248.00,3.6043
1247.00,3.6216
1246.00,3.6524
1245.00,3.6747
1244.00,3.6633
1243.00,3.6196
1242.00,3.5723
1241.00,3.5442
1240.00,3.5373
1239.00,3.5447
1238.00,3.5614
1237.00,3.5819
1236.00,3.6059
1235.00,3.6416
1234.00,3.6896
1233.00,3.7356
1232.00,3.7653
1231.00,3.7845
1230.00,3.8072
1229.00,3.8347
1228.00,3.8588
1227.00,3.8844
1226.00,3.9524
1225.00,4.1134
1224.00,4.3024
1223.00,4.4183
1222.00,4.8268
1221.00,4.9965
1220.00,4.5666
1219.00,4.5353
1218.00,4.3642
1217.00,4.1517
1216.00,3.9858
1215.00,3.8713
1214.00,3.8129
1213.00,3.7892
1212.00,3.7721
1211.00,3.7499
1210.00,3.7224
1209.00,3.6937
1208.00,3.6692
1207.00,3.6386
1206.00,3.5907
1205.00,3.5334
1204.00,3.4839
1203.00,3.4551
1202.00,3.4499
1201.00,3.4602
1200.00,3.4693
1199.00,3.4592
1198.00,3.4242
1197.00,3.3753
1196.00,3.3292
1195.00,3.2958
1194.00,3.2752
1193.00,3.2632
1192.00,3.2587
1191.00,3.2629
1190.00,3.2748
1189.00,3.2889
1188.00,3.3006
1187.00,3.3122
1186.00,3.3288
1185.00,3.3538
1184.00,3.3866
1183.00,3.4216
1182.00,3.4490
1181.00,3.4626
1180.00,3.4715
1179.00,3.4936
1178.00,3.5345
1177.00,3.5802
1176.00,3.6122
1175.00,3.6299
1174.00,3.6428
1173.00,3.6462
1172.00,3.6284
1171.00,3.5987
1170.00,3.5830
1169.00,3.5965
1168.00,3.6330
1167.00,3.6715
1166.00,3.6922
1165.00,3.6876
1164.00,3.6675
1163.00,3.6620
1162.00,3.6932
1161.00,3.7465
1160.00,3.7703
1159.00,3.7394
1158.00,3.6940
1157.00,3.6784
1156.00,3.7066
1155.00,3.7745
1154.00,3.8706
1153.00,3.9769
1152.00,4.0562
1151.00,4.0713
1150.00,4.0389
1149.00,3.9845
1148.00,3.9431
1147.00,3.9556
1146.00,4.0045
1145.00,4.0033
1144.00,3.9548
1143.00,3.9159
1142.00,3.8804
1141.00,3.8596
1140.00,3.8855
1139.00,3.9569
1138.00,4.0263
1137.00,4.0514
1136.00,4.0647
1135.00,4.1021
1134.00,4.1464
1133.00,4.1605
1132.00,4.1266
1131.00,4.0527
1130.00,3.9930
1129.00,3.9840
1128.00,4.0180
1127.00,4.0670
1126.00,4.1216
1125.00,4.2298
1124.00,4.5193
1123.00,4.6732
1122.00,4.3211
1121.00,4.2715
1120.00,4.3466
1119.00,4.4388
1118.00,4.3970
1117.00,4.2244
1116.00,4.1484
1115.00,4.1907
1114.00,4.2780
1113.00,4.2549
1112.00,4.1059
1111.00,3.9837
1110.00,3.9404
1109.00,3.9585
1108.00,3.9882
1107.00,3.9711
1106.00,3.9170
1105.00,3.8858
1104.00,3.9025
1103.00,3.9459
1102.00,3.9751
1101.00,3.9698
1100.00,3.9162
1099.00,3.8348
1098.00,3.7725
1097.00,3.7538
1096.00,3.7839
1095.00,3.8522
1094.00,3.9192
1093.00,3.9231
1092.00,3.8560
1091.00,3.7783
1090.00,3.7372
1089.00,3.7430
1088.00,3.7816
1087.00,3.8175
1086.00,3.8123
1085.00,3.7721
1084.00,3.7354
1083.00,3.7143
1082.00,3.6948
1081.00,3.6726
1080.00,3.6638
1079.00,3.6843
1078.00,3.7305
1077.00,3.7666
1076.00,3.7524
1075.00,3.7026
1074.00,3.6606
1073.00,3.6483
1072.00,3.6541
1071.00,3.6393
1070.00,3.5785
1069.00,3.5025
1068.00,3.4527
1067.00,3.4370
1066.00,3.4365
1065.00,3.4303
1064.00,3.4241
1063.00,3.4444
1062.00,3.5083
1061.00,3.6037
1060.00,3.6810
1059.00,3.7019
1058.00,3.7116
1057.00,3.7618
1056.00,3.8510
1055.00,3.9386
1054.00,3.9803
1053.00,3.9755
1052.00,3.9520
1051.00,3.9106
1050.00,3.8304
1049.00,3.7219
1048.00,3.6269
1047.00,3.5748
1046.00,3.5644
1045.00,3.5658
1044.00,3.5544
1043.00,3.5483
1042.00,3.5786
1041.00,3.6474
1040.00,3.7144
1039.00,3.7285
1038.00,3.6977
1037.00,3.6717
1036.00,3.6822
1035.00,3.7339
1034.00,3.8109
1033.00,3.8703
1032.00,3.8795
1031.00,3.8878
1030.00,3.9424
1029.00,4.0007
1028.00,4.0045
1027.00,4.0095
1026.00,4.0208
1025.00,4.0265
1024.00,4.0786
1023.00,4.1788
1022.00,4.2467
1021.00,4.2140
1020.00,4.1230
1019.00,4.0366
1018.00,3.9790
1017.00,3.9504
1016.00,3.9459
1015.00,3.9638
1014.00,3.9974
1013.00,4.0373
1012.00,4.0822
1011.00,4.1349
1010.00,4.1724
1009.00,4.1420
1008.00,4.0701
1007.00,4.0241
1006.00,4.0718
1005.00,4.2758
1004.00,4.4872
1003.00,4.2697
1002.00,4.1957
1001.00,4.2264
1000.00,4.2192
999.00,4.1882
998.00,4.1870
997.00,4.2083
996.00,4.2570
995.00,4.3010
994.00,4.3207
993.00,4.4639
992.00,4.7098
991.00,4.4652
990.00,4.3530
989.00,4.3913
988.00,4.4982
987.00,4.5391
986.00,4.4848
985.00,4.3749
984.00,4.2680
983.00,4.2100
982.00,4.1981
981.00,4.2204
980.00,4.2802
979.00,4.3575
978.00,4.3199
977.00,4.2100
976.00,4.2129
975.00,4.3811
974.00,4.5143
973.00,4.3496
972.00,4.2166
971.00,4.1026
970.00,4.0127
969.00,3.9794
968.00,4.0173
967.00,4.1277
966.00,4.2877
965.00,4.4953
964.00,4.8427
963.00,4.6426
962.00,4.4322
961.00,4.3636
960.00,4.2899
959.00,4.1904
958.00,4.1515
957.00,4.1980
956.00,4.2675
955.00,4.3130
954.00,4.3278
953.00,4.2142
952.00,4.0368
951.00,3.9067
950.00,3.8347
949.00,3.7909
948.00,3.7584
947.00,3.7657
946.00,3.8290
945.00,3.9158
944.00,3.9827
943.00,4.0138
942.00,3.9792
941.00,3.9168
940.00,3.8979
939.00,3.9506
938.00,4.0857
937.00,4.2910
936.00,4.4381
935.00,4.4034
934.00,4.2785
933.00,4.1420
932.00,4.0726
931.00,4.0998
930.00,4.1876
929.00,4.2483
928.00,4.2481
927.00,4.2206
926.00,4.1935
925.00,4.1510
924.00,4.0655
923.00,4.0027
922.00,4.0317
921.00,4.1765
920.00,4.3377
919.00,4.2616
918.00,4.1674
917.00,4.2022
916.00,4.3453
915.00,4.4513
914.00,4.3838
913.00,4.3230
912.00,4.3657
911.00,4.3239
910.00,4.1903
909.00,4.0920
908.00,4.0051
907.00,3.9343
906.00,3.9210
905.00,3.9957
904.00,4.1443
903.00,4.2559
902.00,4.2913
901.00,4.2549
900.00,4.1421
899.00,4.0603
898.00,4.0033
897.00,3.9703
896.00,3.9913
895.00,4.1198
894.00,4.3735
893.00,4.1965
892.00,4.0021
891.00,4.0327
890.00,4.2895
889.00,4.6553
888.00,4.6611
887.00,4.7154
886.00,4.5625
885.00,4.2475
884.00,4.0563
883.00,3.9892
882.00,4.0027
881.00,4.0407
880.00,4.0564
879.00,4.0470
878.00,4.0366
877.00,4.0186
876.00,3.9845
875.00,3.9849
874.00,4.0603
873.00,4.1517
872.00,4.1686
871.00,4.1802
870.00,4.2220
869.00,4.2331
868.00,4.2024
867.00,4.2399
866.00,4.3916
865.00,4.5419
864.00,4.5134
863.00,4.4415
862.00,4.4120
861.00,4.2862
860.00,4.0610
859.00,3.9040
858.00,3.8815
857.00,4.0167
856.00,4.2455
855.00,4.2318
854.00,4.1904
853.00,4.2818
852.00,4.4280
851.00,4.4096
850.00,4.2012
849.00,4.1110
848.00,4.1492
847.00,4.1397
846.00,4.0193
845.00,3.9236
844.00,3.9104
843.00,3.9859
842.00,4.0188
841.00,3.9013
840.00,3.8131
839.00,3.8154
838.00,3.9630
837.00,4.2561
836.00,4.0760
835.00,3.9122
834.00,3.8919
833.00,3.9108
832.00,3.9373
831.00,3.9199
830.00,3.8411
829.00,3.7702
828.00,3.7780
827.00,3.8991
826.00,4.1787
825.00,4.6094
824.00,4.5171
823.00,4.2192
822.00,3.9901
821.00,3.8349
820.00,3.7579
819.00,3.7661
818.00,3.8732
817.00,4.0969
816.00,4.4452
815.00,4.5634
814.00,4.3641
813.00,4.2710
812.00,4.3205
811.00,4.5498
810.00,4.8066
809.00,4.6985
808.00,4.5870
807.00,4.4214
806.00,4.3135
805.00,4.3465
804.00,4.5023
803.00,4.5720
802.00,4.4012
801.00,4.4458
800.00,4.7852
799.00,4.5717
798.00,4.4297
797.00,4.6156
796.00,5.2022
795.00,5.1538
794.00,4.9925
793.00,4.7256
792.00,4.4366
791.00,4.3139
790.00,4.3241
789.00,4.3974
788.00,4.3204
787.00,4.1227
786.00,3.9494
785.00,3.8380
784.00,3.8068
783.00,3.8731
782.00,4.0484
781.00,4.3050
780.00,4.3981
779.00,4.2032
778.00,4.0667
777.00,4.0356
776.00,4.0482
775.00,4.0555
774.00,4.1470
773.00,4.3653
772.00,4.5673
771.00,4.7164
770.00,4.2775
769.00,3.9998
768.00,3.9237
767.00,3.9455
766.00,4.0059
765.00,4.0352
764.00,3.9929
763.00,3.9168
762.00,3.8874
761.00,3.9466
760.00,4.0655
759.00,4.1485
758.00,4.1269
757.00,4.0112
756.00,3.9266
755.00,3.9194
754.00,3.9522
753.00,3.9091
752.00,3.8594
751.00,3.8577
750.00,4.0359
749.00,4.6456
748.00,4.1872
747.00,3.9477
746.00,4.0049
745.00,4.2792
744.00,4.3265
743.00,4.2141
742.00,4.2647
741.00,4.0257
740.00,3.8770
739.00,3.9533
738.00,4.2244
737.00,4.4699
736.00,4.6423
735.00,4.4852
734.00,4.2412
733.00,4.1593
732.00,4.0674
731.00,3.9751
730.00,4.0596
729.00,4.5373
728.00,4.4450
727.00,4.1254
726.00,4.1254
725.00,4.1648
724.00,4.1434
723.00,4.1523
722.00,4.1277
721.00,4.0174
720.00,3.9160
719.00,3.8613
718.00,3.8356
717.00,3.7844
716.00,3.7048
715.00,3.6336
714.00,3.6303
713.00,3.7165
712.00,3.9754
711.00,4.4983
710.00,4.3433
709.00,4.1630
708.00,4.0227
707.00,3.8823
706.00,3.8581
705.00,3.9046
704.00,4.0720
703.00,4.4681
702.00,4.2793
701.00,3.9501
700.00,3.8549
