Created as New Dataset,Sample 103 By Administrator Date Wednesday, November 24 2021
cm-1,A
7502.00,0.9666
7501.00,0.9747
7500.00,0.9830
7499.00,0.9914
7498.00,1.0000
7497.00,1.0088
7496.00,1.0177
7495.00,1.0269
7494.00,1.0362
7493.00,1.0453
7492.00,1.0539
7491.00,1.0620
7490.00,1.0702
7489.00,1.0782
7488.00,1.0855
7487.00,1.0919
7486.00,1.0980
7485.00,1.1044
7484.00,1.1111
7483.00,1.1175
7482.00,1.1231
7481.00,1.1283
7480.00,1.1336
7479.00,1.1391
7478.00,1.1444
7477.00,1.1493
7476.00,1.1546
7475.00,1.1602
7474.00,1.1655
7473.00,1.1695
7472.00,1.1727
7471.00,1.1756
7470.00,1.1784
7469.00,1.1803
7468.00,1.1807
7467.00,1.1801
7466.00,1.1789
7465.00,1.1775
7464.00,1.1762
7463.00,1.1750
7462.00,1.1737
7461.00,1.1721
7460.00,1.1701
7459.00,1.1678
7458.00,1.1654
7457.00,1.1631
7456.00,1.1606
7455.00,1.1578
7454.00,1.1547
7453.00,1.1512
7452.00,1.1475
7451.00,1.1438
7450.00,1.1401
7449.00,1.1363
7448.00,1.1322
7447.00,1.1271
7446.00,1.1209
7445.00,1.1141
7444.00,1.1073
7443.00,1.1008
7442.00,1.0941
7441.00,1.0866
7440.00,1.0783
7439.00,1.0701
7438.00,1.0624
7437.00,1.0546
7436.00,1.0459
7435.00,1.0360
7434.00,1.0254
7433.00,1.0150
7432.00,1.0052
7431.00,0.9961
7430.00,0.9874
7429.00,0.9787
7428.00,0.9697
7427.00,0.9610
7426.00,0.9527
7425.00,0.9444
7424.00,0.9355
7423.00,0.9260
7422.00,0.9166
7421.00,0.9078
7420.00,0.8992
7419.00,0.8903
7418.00,0.8812
7417.00,0.8723
7416.00,0.8641
7415.00,0.8565
7414.00,0.8491
7413.00,0.8420
7412.00,0.8353
7411.00,0.8291
7410.00,0.8234
7409.00,0.8179
7408.00,0.8127
7407.00,0.8080
7406.00,0.8040
7405.00,0.8006
7404.00,0.7976
7403.00,0.7949
7402.00,0.7926
7401.00,0.7905
7400.00,0.7889
7399.00,0.7877
7398.00,0.7873
7397.00,0.7875
7396.00,0.7882
7395.00,0.7895
7394.00,0.7917
7393.00,0.7946
7392.00,0.7981
7391.00,0.8015
7390.00,0.8051
7389.00,0.8090
7388.00,0.8138
7387.00,0.8190
7386.00,0.8245
7385.00,0.8302
7384.00,0.8366
7383.00,0.8436
7382.00,0.8510
7381.00,0.8583
7380.00,0.8654
7379.00,0.8725
7378.00,0.8798
7377.00,0.8874
7376.00,0.8951
7375.00,0.9029
7374.00,0.9111
7373.00,0.9194
7372.00,0.9277
7371.00,0.9357
7370.00,0.9432
7369.00,0.9505
7368.00,0.9580
7367.00,0.9659
7366.00,0.9743
7365.00,0.9826
7364.00,0.9908
7363.00,0.9989
7362.00,1.0072
7361.00,1.0154
7360.00,1.0229
7359.00,1.0296
7358.00,1.0359
7357.00,1.0425
7356.00,1.0497
7355.00,1.0571
7354.00,1.0647
7353.00,1.0725
7352.00,1.0803
7351.00,1.0875
7350.00,1.0932
7349.00,1.0974
7348.00,1.1002
7347.00,1.1019
7346.00,1.1030
7345.00,1.1044
7344.00,1.1070
7343.00,1.1109
7342.00,1.1152
7341.00,1.1190
7340.00,1.1220
7339.00,1.1241
7338.00,1.1251
7337.00,1.1246
7336.00,1.1228
7335.00,1.1203
7334.00,1.1176
7333.00,1.1149
7332.00,1.1123
7331.00,1.1097
7330.00,1.1074
7329.00,1.1053
7328.00,1.1033
7327.00,1.1013
7326.00,1.0994
7325.00,1.0976
7324.00,1.0956
7323.00,1.0936
7322.00,1.0914
7321.00,1.0890
7320.00,1.0862
7319.00,1.0834
7318.00,1.0810
7317.00,1.0793
7316.00,1.0780
7315.00,1.0768
7314.00,1.0752
7313.00,1.0727
7312.00,1.0692
7311.00,1.0645
7310.00,1.0591
7309.00,1.0532
7308.00,1.0470
7307.00,1.0405
7306.00,1.0340
7305.00,1.0282
7304.00,1.0232
7303.00,1.0186
7302.00,1.0134
7301.00,1.0073
7300.00,1.0006
7299.00,0.9936
7298.00,0.9866
7297.00,0.9791
7296.00,0.9710
7295.00,0.9625
7294.00,0.9537
7293.00,0.9446
7292.00,0.9352
7291.00,0.9257
7290.00,0.9163
7289.00,0.9070
7288.00,0.8979
7287.00,0.8891
7286.00,0.8807
7285.00,0.8726
7284.00,0.8650
7283.00,0.8577
7282.00,0.8507
7281.00,0.8441
7280.00,0.8377
7279.00,0.8313
7278.00,0.8250
7277.00,0.8190
7276.00,0.8135
7275.00,0.8082
7274.00,0.8033
7273.00,0.7989
7272.00,0.7949
7271.00,0.7915
7270.00,0.7886
7269.00,0.7861
7268.00,0.7841
7267.00,0.7824
7266.00,0.7810
7265.00,0.7801
7264.00,0.7799
7263.00,0.7805
7262.00,0.7819
7261.00,0.7841
7260.00,0.7869
7259.00,0.7900
7258.00,0.7934
7257.00,0.7969
7256.00,0.8007
7255.00,0.8047
7254.00,0.8089
7253.00,0.8137
7252.00,0.8193
7251.00,0.8256
7250.00,0.8324
7249.00,0.8398
7248.00,0.8476
7247.00,0.8558
7246.00,0.8641
7245.00,0.8723
7244.00,0.8806
7243.00,0.8891
7242.00,0.8979
7241.00,0.9069
7240.00,0.9162
7239.00,0.9255
7238.00,0.9345
7237.00,0.9432
7236.00,0.9518
7235.00,0.9607
7234.00,0.9699
7233.00,0.9790
7232.00,0.9881
7231.00,0.9972
7230.00,1.0064
7229.00,1.0157
7228.00,1.0250
7227.00,1.0343
7226.00,1.0436
7225.00,1.0528
7224.00,1.0617
7223.00,1.0703
7222.00,1.0783
7221.00,1.0860
7220.00,1.0937
7219.00,1.1015
7218.00,1.1089
7217.00,1.1160
7216.00,1.1231
7215.00,1.1305
7214.00,1.1378
7213.00,1.1442
7212.00,1.1494
7211.00,1.1543
7210.00,1.1593
7209.00,1.1645
7208.00,1.1695
7207.00,1.1740
7206.00,1.1778
7205.00,1.1809
7204.00,1.1832
7203.00,1.1851
7202.00,1.1867
7201.00,1.1881
7200.00,1.1893
7199.00,1.1904
7198.00,1.1914
7197.00,1.1924
7196.00,1.1935
7195.00,1.1944
7194.00,1.1949
7193.00,1.1947
7192.00,1.1939
7191.00,1.1928
7190.00,1.1913
7189.00,1.1892
7188.00,1.1862
7187.00,1.1825
7186.00,1.1785
7185.00,1.1743
7184.00,1.1701
7183.00,1.1658
7182.00,1.1610
7181.00,1.1553
7180.00,1.1490
7179.00,1.1425
7178.00,1.1363
7177.00,1.1303
7176.00,1.1242
7175.00,1.1178
7174.00,1.1110
7173.00,1.1037
7172.00,1.0958
7171.00,1.0873
7170.00,1.0784
7169.00,1.0691
7168.00,1.0596
7167.00,1.0499
7166.00,1.0403
7165.00,1.0313
7164.00,1.0226
7163.00,1.0137
7162.00,1.0040
7161.00,0.9939
7160.00,0.9838
7159.00,0.9741
7158.00,0.9645
7157.00,0.9548
7156.00,0.9451
7155.00,0.9357
7154.00,0.9264
7153.00,0.9172
7152.00,0.9080
7151.00,0.8987
7150.00,0.8894
7149.00,0.8804
7148.00,0.8717
7147.00,0.8634
7146.00,0.8557
7145.00,0.8484
7144.00,0.8414
7143.00,0.8347
7142.00,0.8284
7141.00,0.8224
7140.00,0.8167
7139.00,0.8115
7138.00,0.8069
7137.00,0.8029
7136.00,0.7991
7135.00,0.7955
7134.00,0.7922
7133.00,0.7894
7132.00,0.7873
7131.00,0.7859
7130.00,0.7853
7129.00,0.7854
7128.00,0.7864
7127.00,0.7880
7126.00,0.7901
7125.00,0.7926
7124.00,0.7955
7123.00,0.7989
7122.00,0.8028
7121.00,0.8073
7120.00,0.8124
7119.00,0.8179
7118.00,0.8238
7117.00,0.8298
7116.00,0.8361
7115.00,0.8427
7114.00,0.8496
7113.00,0.8569
7112.00,0.8648
7111.00,0.8733
7110.00,0.8822
7109.00,0.8911
7108.00,0.8996
7107.00,0.9080
7106.00,0.9164
7105.00,0.9247
7104.00,0.9332
7103.00,0.9422
7102.00,0.9518
7101.00,0.9616
7100.00,0.9714
7099.00,0.9811
7098.00,0.9907
7097.00,0.9998
7096.00,1.0086
7095.00,1.0173
7094.00,1.0262
7093.00,1.0349
7092.00,1.0436
7091.00,1.0522
7090.00,1.0609
7089.00,1.0694
7088.00,1.0773
7087.00,1.0847
7086.00,1.0919
7085.00,1.0990
7084.00,1.1057
7083.00,1.1120
7082.00,1.1181
7081.00,1.1240
7080.00,1.1297
7079.00,1.1352
7078.00,1.1408
7077.00,1.1462
7076.00,1.1512
7075.00,1.1558
7074.00,1.1603
7073.00,1.1649
7072.00,1.1695
7071.00,1.1737
7070.00,1.1773
7069.00,1.1802
7068.00,1.1826
7067.00,1.1845
7066.00,1.1859
7065.00,1.1865
7064.00,1.1863
7063.00,1.1859
7062.00,1.1858
7061.00,1.1859
7060.00,1.1857
7059.00,1.1848
7058.00,1.1837
7057.00,1.1825
7056.00,1.1812
7055.00,1.1792
7054.00,1.1767
7053.00,1.1737
7052.00,1.1701
7051.00,1.1659
7050.00,1.1611
7049.00,1.1558
7048.00,1.1502
7047.00,1.1447
7046.00,1.1394
7045.00,1.1341
7044.00,1.1285
7043.00,1.1225
7042.00,1.1164
7041.00,1.1104
7040.00,1.1039
7039.00,1.0964
7038.00,1.0883
7037.00,1.0803
7036.00,1.0723
7035.00,1.0641
7034.00,1.0555
7033.00,1.0465
7032.00,1.0375
7031.00,1.0283
7030.00,1.0191
7029.00,1.0099
7028.00,1.0007
7027.00,0.9912
7026.00,0.9811
7025.00,0.9710
7024.00,0.9612
7023.00,0.9514
7022.00,0.9415
7021.00,0.9316
7020.00,0.9221
7019.00,0.9132
7018.00,0.9047
7017.00,0.8961
7016.00,0.8874
7015.00,0.8789
7014.00,0.8705
7013.00,0.8622
7012.00,0.8540
7011.00,0.8459
7010.00,0.8382
7009.00,0.8312
7008.00,0.8245
7007.00,0.8182
7006.00,0.8124
7005.00,0.8071
7004.00,0.8024
7003.00,0.7980
7002.00,0.7939
7001.00,0.7902
7000.00,0.7871
6999.00,0.7847
6998.00,0.7828
6997.00,0.7812
6996.00,0.7800
6995.00,0.7796
6994.00,0.7801
6993.00,0.7814
6992.00,0.7832
6991.00,0.7854
6990.00,0.7884
6989.00,0.7923
6988.00,0.7968
6987.00,0.8014
6986.00,0.8060
6985.00,0.8110
6984.00,0.8165
6983.00,0.8225
6982.00,0.8290
6981.00,0.8358
6980.00,0.8432
6979.00,0.8509
6978.00,0.8590
6977.00,0.8677
6976.00,0.8768
6975.00,0.8861
6974.00,0.8955
6973.00,0.9048
6972.00,0.9141
6971.00,0.9234
6970.00,0.9326
6969.00,0.9416
6968.00,0.9508
6967.00,0.9602
6966.00,0.9700
6965.00,0.9801
6964.00,0.9901
6963.00,1.0000
6962.00,1.0098
6961.00,1.0193
6960.00,1.0288
6959.00,1.0384
6958.00,1.0481
6957.00,1.0579
6956.00,1.0674
6955.00,1.0763
6954.00,1.0848
6953.00,1.0932
6952.00,1.1015
6951.00,1.1096
6950.00,1.1173
6949.00,1.1249
6948.00,1.1324
6947.00,1.1397
6946.00,1.1464
6945.00,1.1525
6944.00,1.1581
6943.00,1.1635
6942.00,1.1689
6941.00,1.1745
6940.00,1.1802
6939.00,1.1856
6938.00,1.1901
6937.00,1.1939
6936.00,1.1975
6935.00,1.2009
6934.00,1.2038
6933.00,1.2059
6932.00,1.2074
6931.00,1.2087
6930.00,1.2100
6929.00,1.2109
6928.00,1.2112
6927.00,1.2111
6926.00,1.2108
6925.00,1.2106
6924.00,1.2105
6923.00,1.2102
6922.00,1.2091
6921.00,1.2070
6920.00,1.2041
6919.00,1.2009
6918.00,1.1970
6917.00,1.1925
6916.00,1.1875
6915.00,1.1827
6914.00,1.1782
6913.00,1.1736
6912.00,1.1684
6911.00,1.1624
6910.00,1.1559
6909.00,1.1491
6908.00,1.1422
6907.00,1.1352
6906.00,1.1281
6905.00,1.1207
6904.00,1.1127
6903.00,1.1043
6902.00,1.0956
6901.00,1.0865
6900.00,1.0770
6899.00,1.0673
6898.00,1.0577
6897.00,1.0484
6896.00,1.0389
6895.00,1.0290
6894.00,1.0188
6893.00,1.0083
6892.00,0.9979
6891.00,0.9876
6890.00,0.9774
6889.00,0.9673
6888.00,0.9572
6887.00,0.9470
6886.00,0.9371
6885.00,0.9273
6884.00,0.9175
6883.00,0.9078
6882.00,0.8982
6881.00,0.8890
6880.00,0.8801
6879.00,0.8715
6878.00,0.8631
6877.00,0.8548
6876.00,0.8466
6875.00,0.8388
6874.00,0.8314
6873.00,0.8244
6872.00,0.8177
6871.00,0.8116
6870.00,0.8062
6869.00,0.8013
6868.00,0.7969
6867.00,0.7929
6866.00,0.7894
6865.00,0.7865
6864.00,0.7842
6863.00,0.7826
6862.00,0.7818
6861.00,0.7817
6860.00,0.7821
6859.00,0.7830
6858.00,0.7843
6857.00,0.7862
6856.00,0.7887
6855.00,0.7918
6854.00,0.7955
6853.00,0.7999
6852.00,0.8049
6851.00,0.8104
6850.00,0.8163
6849.00,0.8227
6848.00,0.8294
6847.00,0.8363
6846.00,0.8437
6845.00,0.8515
6844.00,0.8596
6843.00,0.8678
6842.00,0.8764
6841.00,0.8852
6840.00,0.8943
6839.00,0.9033
6838.00,0.9124
6837.00,0.9218
6836.00,0.9314
6835.00,0.9412
6834.00,0.9512
6833.00,0.9613
6832.00,0.9715
6831.00,0.9818
6830.00,0.9919
6829.00,1.0018
6828.00,1.0115
6827.00,1.0210
6826.00,1.0304
6825.00,1.0399
6824.00,1.0494
6823.00,1.0587
6822.00,1.0676
6821.00,1.0764
6820.00,1.0853
6819.00,1.0942
6818.00,1.1029
6817.00,1.1110
6816.00,1.1186
6815.00,1.1260
6814.00,1.1335
6813.00,1.1408
6812.00,1.1476
6811.00,1.1539
6810.00,1.1601
6809.00,1.1663
6808.00,1.1723
6807.00,1.1777
6806.00,1.1822
6805.00,1.1861
6804.00,1.1898
6803.00,1.1936
6802.00,1.1973
6801.00,1.2006
6800.00,1.2030
6799.00,1.2049
6798.00,1.2069
6797.00,1.2088
6796.00,1.2102
6795.00,1.2107
6794.00,1.2107
6793.00,1.2105
6792.00,1.2103
6791.00,1.2096
6790.00,1.2082
6789.00,1.2063
6788.00,1.2042
6787.00,1.2019
6786.00,1.1993
6785.00,1.1963
6784.00,1.1927
6783.00,1.1885
6782.00,1.1836
6781.00,1.1784
6780.00,1.1732
6779.00,1.1680
6778.00,1.1623
6777.00,1.1561
6776.00,1.1494
6775.00,1.1425
6774.00,1.1353
6773.00,1.1279
6772.00,1.1203
6771.00,1.1125
6770.00,1.1045
6769.00,1.0963
6768.00,1.0879
6767.00,1.0793
6766.00,1.0706
6765.00,1.0617
6764.00,1.0526
6763.00,1.0433
6762.00,1.0341
6761.00,1.0247
6760.00,1.0150
6759.00,1.0049
6758.00,0.9944
6757.00,0.9839
6756.00,0.9734
6755.00,0.9630
6754.00,0.9527
6753.00,0.9424
6752.00,0.9322
6751.00,0.9222
6750.00,0.9122
6749.00,0.9024
6748.00,0.8925
6747.00,0.8829
6746.00,0.8736
6745.00,0.8648
6744.00,0.8562
6743.00,0.8478
6742.00,0.8396
6741.00,0.8318
6740.00,0.8242
6739.00,0.8170
6738.00,0.8100
6737.00,0.8037
6736.00,0.7980
6735.00,0.7929
6734.00,0.7885
6733.00,0.7847
6732.00,0.7814
6731.00,0.7786
6730.00,0.7765
6729.00,0.7749
6728.00,0.7738
6727.00,0.7731
6726.00,0.7730
6725.00,0.7737
6724.00,0.7751
6723.00,0.7771
6722.00,0.7796
6721.00,0.7828
6720.00,0.7865
6719.00,0.7908
6718.00,0.7957
6717.00,0.8012
6716.00,0.8071
6715.00,0.8134
6714.00,0.8202
6713.00,0.8275
6712.00,0.8351
6711.00,0.8428
6710.00,0.8508
6709.00,0.8593
6708.00,0.8684
6707.00,0.8780
6706.00,0.8878
6705.00,0.8978
6704.00,0.9078
6703.00,0.9178
6702.00,0.9277
6701.00,0.9376
6700.00,0.9476
6699.00,0.9579
6698.00,0.9687
6697.00,0.9798
6696.00,0.9909
6695.00,1.0014
6694.00,1.0114
6693.00,1.0213
6692.00,1.0312
6691.00,1.0411
6690.00,1.0509
6689.00,1.0606
6688.00,1.0704
6687.00,1.0800
6686.00,1.0895
6685.00,1.0987
6684.00,1.1076
6683.00,1.1162
6682.00,1.1248
6681.00,1.1336
6680.00,1.1423
6679.00,1.1504
6678.00,1.1576
6677.00,1.1644
6676.00,1.1710
6675.00,1.1775
6674.00,1.1835
6673.00,1.1889
6672.00,1.1939
6671.00,1.1988
6670.00,1.2035
6669.00,1.2079
6668.00,1.2120
6667.00,1.2158
6666.00,1.2192
6665.00,1.2222
6664.00,1.2248
6663.00,1.2268
6662.00,1.2282
6661.00,1.2290
6660.00,1.2296
6659.00,1.2301
6658.00,1.2303
6657.00,1.2301
6656.00,1.2295
6655.00,1.2289
6654.00,1.2280
6653.00,1.2264
6652.00,1.2242
6651.00,1.2214
6650.00,1.2182
6649.00,1.2146
6648.00,1.2105
6647.00,1.2061
6646.00,1.2018
6645.00,1.1974
6644.00,1.1927
6643.00,1.1871
6642.00,1.1810
6641.00,1.1744
6640.00,1.1674
6639.00,1.1601
6638.00,1.1528
6637.00,1.1453
6636.00,1.1376
6635.00,1.1294
6634.00,1.1207
6633.00,1.1116
6632.00,1.1020
6631.00,1.0921
6630.00,1.0821
6629.00,1.0723
6628.00,1.0625
6627.00,1.0525
6626.00,1.0423
6625.00,1.0319
6624.00,1.0212
6623.00,1.0104
6622.00,0.9994
6621.00,0.9884
6620.00,0.9775
6619.00,0.9665
6618.00,0.9554
6617.00,0.9443
6616.00,0.9334
6615.00,0.9228
6614.00,0.9124
6613.00,0.9022
6612.00,0.8922
6611.00,0.8825
6610.00,0.8729
6609.00,0.8636
6608.00,0.8546
6607.00,0.8460
6606.00,0.8379
6605.00,0.8302
6604.00,0.8230
6603.00,0.8162
6602.00,0.8099
6601.00,0.8039
6600.00,0.7983
6599.00,0.7932
6598.00,0.7889
6597.00,0.7852
6596.00,0.7823
6595.00,0.7800
6594.00,0.7786
6593.00,0.7779
6592.00,0.7778
6591.00,0.7782
6590.00,0.7791
6589.00,0.7807
6588.00,0.7829
6587.00,0.7856
6586.00,0.7889
6585.00,0.7929
6584.00,0.7975
6583.00,0.8027
6582.00,0.8085
6581.00,0.8148
6580.00,0.8217
6579.00,0.8291
6578.00,0.8369
6577.00,0.8450
6576.00,0.8533
6575.00,0.8620
6574.00,0.8711
6573.00,0.8806
6572.00,0.8902
6571.00,0.9000
6570.00,0.9098
6569.00,0.9197
6568.00,0.9296
6567.00,0.9394
6566.00,0.9493
6565.00,0.9594
6564.00,0.9700
6563.00,0.9810
6562.00,0.9921
6561.00,1.0031
6560.00,1.0138
6559.00,1.0242
6558.00,1.0343
6557.00,1.0440
6556.00,1.0534
6555.00,1.0626
6554.00,1.0718
6553.00,1.0812
6552.00,1.0905
6551.00,1.0995
6550.00,1.1082
6549.00,1.1168
6548.00,1.1252
6547.00,1.1333
6546.00,1.1409
6545.00,1.1482
6544.00,1.1552
6543.00,1.1621
6542.00,1.1688
6541.00,1.1750
6540.00,1.1809
6539.00,1.1863
6538.00,1.1915
6537.00,1.1963
6536.00,1.2004
6535.00,1.2041
6534.00,1.2074
6533.00,1.2105
6532.00,1.2131
6531.00,1.2153
6530.00,1.2171
6529.00,1.2187
6528.00,1.2198
6527.00,1.2203
6526.00,1.2204
6525.00,1.2203
6524.00,1.2202
6523.00,1.2197
6522.00,1.2186
6521.00,1.2171
6520.00,1.2152
6519.00,1.2128
6518.00,1.2100
6517.00,1.2068
6516.00,1.2031
6515.00,1.1992
6514.00,1.1953
6513.00,1.1915
6512.00,1.1876
6511.00,1.1834
6510.00,1.1788
6509.00,1.1739
6508.00,1.1685
6507.00,1.1622
6506.00,1.1552
6505.00,1.1477
6504.00,1.1399
6503.00,1.1321
6502.00,1.1243
6501.00,1.1162
6500.00,1.1077
6499.00,1.0987
6498.00,1.0897
6497.00,1.0805
6496.00,1.0713
6495.00,1.0618
6494.00,1.0522
6493.00,1.0425
6492.00,1.0326
6491.00,1.0224
6490.00,1.0119
6489.00,1.0012
6488.00,0.9905
6487.00,0.9800
6486.00,0.9698
6485.00,0.9598
6484.00,0.9495
6483.00,0.9388
6482.00,0.9281
6481.00,0.9175
6480.00,0.9070
6479.00,0.8965
6478.00,0.8862
6477.00,0.8763
6476.00,0.8668
6475.00,0.8577
6474.00,0.8487
6473.00,0.8401
6472.00,0.8318
6471.00,0.8238
6470.00,0.8163
6469.00,0.8093
6468.00,0.8029
6467.00,0.7969
6466.00,0.7914
6465.00,0.7866
6464.00,0.7824
6463.00,0.7789
6462.00,0.7759
6461.00,0.7735
6460.00,0.7717
6459.00,0.7705
6458.00,0.7701
6457.00,0.7704
6456.00,0.7714
6455.00,0.7730
6454.00,0.7754
6453.00,0.7785
6452.00,0.7823
6451.00,0.7865
6450.00,0.7913
6449.00,0.7967
6448.00,0.8027
6447.00,0.8092
6446.00,0.8162
6445.00,0.8236
6444.00,0.8314
6443.00,0.8396
6442.00,0.8483
6441.00,0.8574
6440.00,0.8668
6439.00,0.8765
6438.00,0.8863
6437.00,0.8963
6436.00,0.9064
6435.00,0.9165
6434.00,0.9268
6433.00,0.9375
6432.00,0.9484
6431.00,0.9596
6430.00,0.9708
6429.00,0.9821
6428.00,0.9935
6427.00,1.0048
6426.00,1.0160
6425.00,1.0269
6424.00,1.0376
6423.00,1.0483
6422.00,1.0589
6421.00,1.0692
6420.00,1.0792
6419.00,1.0891
6418.00,1.0991
6417.00,1.1093
6416.00,1.1194
6415.00,1.1292
6414.00,1.1385
6413.00,1.1475
6412.00,1.1560
6411.00,1.1641
6410.00,1.1718
6409.00,1.1792
6408.00,1.1865
6407.00,1.1938
6406.00,1.2010
6405.00,1.2077
6404.00,1.2140
6403.00,1.2197
6402.00,1.2250
6401.00,1.2297
6400.00,1.2339
6399.00,1.2375
6398.00,1.2406
6397.00,1.2431
6396.00,1.2452
6395.00,1.2472
6394.00,1.2491
6393.00,1.2509
6392.00,1.2523
6391.00,1.2532
6390.00,1.2537
6389.00,1.2535
6388.00,1.2526
6387.00,1.2513
6386.00,1.2500
6385.00,1.2487
6384.00,1.2468
6383.00,1.2442
6382.00,1.2411
6381.00,1.2380
6380.00,1.2345
6379.00,1.2302
6378.00,1.2252
6377.00,1.2199
6376.00,1.2144
6375.00,1.2088
6374.00,1.2028
6373.00,1.1965
6372.00,1.1898
6371.00,1.1828
6370.00,1.1754
6369.00,1.1677
6368.00,1.1595
6367.00,1.1508
6366.00,1.1420
6365.00,1.1331
6364.00,1.1239
6363.00,1.1146
6362.00,1.1051
6361.00,1.0953
6360.00,1.0852
6359.00,1.0747
6358.00,1.0641
6357.00,1.0533
6356.00,1.0421
6355.00,1.0305
6354.00,1.0185
6353.00,1.0065
6352.00,0.9947
6351.00,0.9828
6350.00,0.9709
6349.00,0.9591
6348.00,0.9477
6347.00,0.9366
6346.00,0.9255
6345.00,0.9145
6344.00,0.9035
6343.00,0.8927
6342.00,0.8822
6341.00,0.8720
6340.00,0.8623
6339.00,0.8529
6338.00,0.8439
6337.00,0.8353
6336.00,0.8271
6335.00,0.8191
6334.00,0.8114
6333.00,0.8044
6332.00,0.7981
6331.00,0.7926
6330.00,0.7877
6329.00,0.7835
6328.00,0.7801
6327.00,0.7773
6326.00,0.7752
6325.00,0.7738
6324.00,0.7730
6323.00,0.7730
6322.00,0.7737
6321.00,0.7751
6320.00,0.7771
6319.00,0.7798
6318.00,0.7831
6317.00,0.7872
6316.00,0.7919
6315.00,0.7971
6314.00,0.8028
6313.00,0.8093
6312.00,0.8163
6311.00,0.8238
6310.00,0.8317
6309.00,0.8399
6308.00,0.8484
6307.00,0.8573
6306.00,0.8665
6305.00,0.8762
6304.00,0.8863
6303.00,0.8969
6302.00,0.9076
6301.00,0.9186
6300.00,0.9294
6299.00,0.9401
6298.00,0.9507
6297.00,0.9614
6296.00,0.9723
6295.00,0.9835
6294.00,0.9947
6293.00,1.0060
6292.00,1.0173
6291.00,1.0286
6290.00,1.0398
6289.00,1.0508
6288.00,1.0615
6287.00,1.0720
6286.00,1.0821
6285.00,1.0921
6284.00,1.1019
6283.00,1.1114
6282.00,1.1207
6281.00,1.1297
6280.00,1.1385
6279.00,1.1471
6278.00,1.1552
6277.00,1.1630
6276.00,1.1706
6275.00,1.1783
6274.00,1.1859
6273.00,1.1930
6272.00,1.1995
6271.00,1.2053
6270.00,1.2106
6269.00,1.2155
6268.00,1.2199
6267.00,1.2240
6266.00,1.2278
6265.00,1.2314
6264.00,1.2348
6263.00,1.2375
6262.00,1.2395
6261.00,1.2410
6260.00,1.2419
6259.00,1.2425
6258.00,1.2429
6257.00,1.2431
6256.00,1.2432
6255.00,1.2433
6254.00,1.2434
6253.00,1.2432
6252.00,1.2424
6251.00,1.2407
6250.00,1.2384
6249.00,1.2356
6248.00,1.2326
6247.00,1.2292
6246.00,1.2255
6245.00,1.2214
6244.00,1.2171
6243.00,1.2125
6242.00,1.2074
6241.00,1.2019
6240.00,1.1961
6239.00,1.1899
6238.00,1.1835
6237.00,1.1770
6236.00,1.1702
6235.00,1.1631
6234.00,1.1554
6233.00,1.1473
6232.00,1.1389
6231.00,1.1302
6230.00,1.1209
6229.00,1.1112
6228.00,1.1013
6227.00,1.0915
6226.00,1.0817
6225.00,1.0717
6224.00,1.0614
6223.00,1.0507
6222.00,1.0396
6221.00,1.0283
6220.00,1.0167
6219.00,1.0050
6218.00,0.9932
6217.00,0.9816
6216.00,0.9700
6215.00,0.9585
6214.00,0.9471
6213.00,0.9357
6212.00,0.9244
6211.00,0.9131
6210.00,0.9020
6209.00,0.8913
6208.00,0.8808
6207.00,0.8705
6206.00,0.8603
6205.00,0.8505
6204.00,0.8411
6203.00,0.8320
6202.00,0.8234
6201.00,0.8153
6200.00,0.8078
6199.00,0.8010
6198.00,0.7948
6197.00,0.7892
6196.00,0.7841
6195.00,0.7797
6194.00,0.7760
6193.00,0.7729
6192.00,0.7705
6191.00,0.7688
6190.00,0.7679
6189.00,0.7679
6188.00,0.7687
6187.00,0.7701
6186.00,0.7722
6185.00,0.7749
6184.00,0.7782
6183.00,0.7822
6182.00,0.7868
6181.00,0.7921
6180.00,0.7980
6179.00,0.8046
6178.00,0.8117
6177.00,0.8194
6176.00,0.8275
6175.00,0.8360
6174.00,0.8450
6173.00,0.8544
6172.00,0.8642
6171.00,0.8742
6170.00,0.8847
6169.00,0.8954
6168.00,0.9066
6167.00,0.9179
6166.00,0.9294
6165.00,0.9410
6164.00,0.9525
6163.00,0.9641
6162.00,0.9758
6161.00,0.9877
6160.00,0.9996
6159.00,1.0114
6158.00,1.0230
6157.00,1.0346
6156.00,1.0459
6155.00,1.0571
6154.00,1.0684
6153.00,1.0798
6152.00,1.0912
6151.00,1.1023
6150.00,1.1131
6149.00,1.1237
6148.00,1.1340
6147.00,1.1439
6146.00,1.1537
6145.00,1.1633
6144.00,1.1726
6143.00,1.1813
6142.00,1.1895
6141.00,1.1972
6140.00,1.2046
6139.00,1.2118
6138.00,1.2189
6137.00,1.2260
6136.00,1.2328
6135.00,1.2390
6134.00,1.2445
6133.00,1.2493
6132.00,1.2535
6131.00,1.2574
6130.00,1.2609
6129.00,1.2645
6128.00,1.2679
6127.00,1.2710
6126.00,1.2736
6125.00,1.2756
6124.00,1.2771
6123.00,1.2780
6122.00,1.2783
6121.00,1.2781
6120.00,1.2777
6119.00,1.2769
6118.00,1.2756
6117.00,1.2737
6116.00,1.2713
6115.00,1.2685
6114.00,1.2654
6113.00,1.2622
6112.00,1.2589
6111.00,1.2552
6110.00,1.2510
6109.00,1.2463
6108.00,1.2413
6107.00,1.2359
6106.00,1.2302
6105.00,1.2242
6104.00,1.2178
6103.00,1.2109
6102.00,1.2033
6101.00,1.1951
6100.00,1.1864
6099.00,1.1775
6098.00,1.1685
6097.00,1.1593
6096.00,1.1496
6095.00,1.1396
6094.00,1.1291
6093.00,1.1182
6092.00,1.1070
6091.00,1.0956
6090.00,1.0841
6089.00,1.0725
6088.00,1.0607
6087.00,1.0487
6086.00,1.0367
6085.00,1.0247
6084.00,1.0127
6083.00,1.0005
6082.00,0.9880
6081.00,0.9755
6080.00,0.9628
6079.00,0.9502
6078.00,0.9378
6077.00,0.9258
6076.00,0.9142
6075.00,0.9028
6074.00,0.8915
6073.00,0.8803
6072.00,0.8692
6071.00,0.8585
6070.00,0.8482
6069.00,0.8385
6068.00,0.8293
6067.00,0.8206
6066.00,0.8125
6065.00,0.8049
6064.00,0.7978
6063.00,0.7913
6062.00,0.7855
6061.00,0.7804
6060.00,0.7762
6059.00,0.7727
6058.00,0.7698
6057.00,0.7676
6056.00,0.7662
6055.00,0.7655
6054.00,0.7657
6053.00,0.7668
6052.00,0.7686
6051.00,0.7711
6050.00,0.7743
6049.00,0.7782
6048.00,0.7827
6047.00,0.7878
6046.00,0.7937
6045.00,0.8003
6044.00,0.8076
6043.00,0.8155
6042.00,0.8237
6041.00,0.8325
6040.00,0.8416
6039.00,0.8511
6038.00,0.8609
6037.00,0.8710
6036.00,0.8814
6035.00,0.8920
6034.00,0.9028
6033.00,0.9140
6032.00,0.9255
6031.00,0.9373
6030.00,0.9493
6029.00,0.9612
6028.00,0.9732
6027.00,0.9851
6026.00,0.9969
6025.00,1.0087
6024.00,1.0203
6023.00,1.0320
6022.00,1.0435
6021.00,1.0550
6020.00,1.0663
6019.00,1.0778
6018.00,1.0893
6017.00,1.1008
6016.00,1.1121
6015.00,1.1231
6014.00,1.1338
6013.00,1.1441
6012.00,1.1540
6011.00,1.1636
6010.00,1.1730
6009.00,1.1823
6008.00,1.1912
6007.00,1.1999
6006.00,1.2085
6005.00,1.2169
6004.00,1.2248
6003.00,1.2321
6002.00,1.2388
6001.00,1.2450
6000.00,1.2509
5999.00,1.2566
5998.00,1.2622
5997.00,1.2675
5996.00,1.2724
5995.00,1.2765
5994.00,1.2797
5993.00,1.2823
5992.00,1.2845
5991.00,1.2864
5990.00,1.2881
5989.00,1.2896
5988.00,1.2908
5987.00,1.2916
5986.00,1.2920
5985.00,1.2923
5984.00,1.2925
5983.00,1.2920
5982.00,1.2905
5981.00,1.2881
5980.00,1.2850
5979.00,1.2814
5978.00,1.2774
5977.00,1.2731
5976.00,1.2687
5975.00,1.2641
5974.00,1.2591
5973.00,1.2538
5972.00,1.2482
5971.00,1.2423
5970.00,1.2359
5969.00,1.2290
5968.00,1.2215
5967.00,1.2136
5966.00,1.2052
5965.00,1.1962
5964.00,1.1868
5963.00,1.1771
5962.00,1.1670
5961.00,1.1567
5960.00,1.1462
5959.00,1.1355
5958.00,1.1245
5957.00,1.1131
5956.00,1.1016
5955.00,1.0897
5954.00,1.0776
5953.00,1.0652
5952.00,1.0525
5951.00,1.0398
5950.00,1.0271
5949.00,1.0143
5948.00,1.0015
5947.00,0.9887
5946.00,0.9760
5945.00,0.9635
5944.00,0.9509
5943.00,0.9382
5942.00,0.9256
5941.00,0.9133
5940.00,0.9013
5939.00,0.8897
5938.00,0.8785
5937.00,0.8676
5936.00,0.8572
5935.00,0.8471
5934.00,0.8374
5933.00,0.8282
5932.00,0.8196
5931.00,0.8115
5930.00,0.8040
5929.00,0.7973
5928.00,0.7913
5927.00,0.7860
5926.00,0.7815
5925.00,0.7779
5924.00,0.7751
5923.00,0.7731
5922.00,0.7720
5921.00,0.7715
5920.00,0.7718
5919.00,0.7730
5918.00,0.7750
5917.00,0.7779
5916.00,0.7814
5915.00,0.7857
5914.00,0.7908
5913.00,0.7965
5912.00,0.8029
5911.00,0.8101
5910.00,0.8179
5909.00,0.8263
5908.00,0.8353
5907.00,0.8446
5906.00,0.8542
5905.00,0.8643
5904.00,0.8748
5903.00,0.8857
5902.00,0.8970
5901.00,0.9085
5900.00,0.9202
5899.00,0.9323
5898.00,0.9445
5897.00,0.9568
5896.00,0.9692
5895.00,0.9817
5894.00,0.9943
5893.00,1.0070
5892.00,1.0196
5891.00,1.0322
5890.00,1.0450
5889.00,1.0577
5888.00,1.0704
5887.00,1.0826
5886.00,1.0947
5885.00,1.1067
5884.00,1.1186
5883.00,1.1305
5882.00,1.1421
5881.00,1.1535
5880.00,1.1646
5879.00,1.1753
5878.00,1.1855
5877.00,1.1953
5876.00,1.2048
5875.00,1.2140
5874.00,1.2230
5873.00,1.2316
5872.00,1.2395
5871.00,1.2471
5870.00,1.2544
5869.00,1.2616
5868.00,1.2685
5867.00,1.2753
5866.00,1.2816
5865.00,1.2874
5864.00,1.2924
5863.00,1.2968
5862.00,1.3007
5861.00,1.3043
5860.00,1.3074
5859.00,1.3102
5858.00,1.3127
5857.00,1.3150
5856.00,1.3171
5855.00,1.3186
5854.00,1.3195
5853.00,1.3200
5852.00,1.3199
5851.00,1.3193
5850.00,1.3182
5849.00,1.3168
5848.00,1.3151
5847.00,1.3131
5846.00,1.3107
5845.00,1.3077
5844.00,1.3043
5843.00,1.3006
5842.00,1.2968
5841.00,1.2927
5840.00,1.2881
5839.00,1.2828
5838.00,1.2770
5837.00,1.2705
5836.00,1.2635
5835.00,1.2561
5834.00,1.2483
5833.00,1.2405
5832.00,1.2324
5831.00,1.2239
5830.00,1.2148
5829.00,1.2051
5828.00,1.1953
5827.00,1.1852
5826.00,1.1748
5825.00,1.1642
5824.00,1.1531
5823.00,1.1417
5822.00,1.1298
5821.00,1.1176
5820.00,1.1053
5819.00,1.0928
5818.00,1.0803
5817.00,1.0676
5816.00,1.0547
5815.00,1.0416
5814.00,1.0284
5813.00,1.0153
5812.00,1.0023
5811.00,0.9893
5810.00,0.9764
5809.00,0.9635
5808.00,0.9506
5807.00,0.9378
5806.00,0.9252
5805.00,0.9129
5804.00,0.9011
5803.00,0.8896
5802.00,0.8785
5801.00,0.8678
5800.00,0.8574
5799.00,0.8474
5798.00,0.8377
5797.00,0.8286
5796.00,0.8201
5795.00,0.8125
5794.00,0.8057
5793.00,0.7998
5792.00,0.7945
5791.00,0.7899
5790.00,0.7860
5789.00,0.7829
5788.00,0.7804
5787.00,0.7787
5786.00,0.7780
5785.00,0.7781
5784.00,0.7791
5783.00,0.7810
5782.00,0.7838
5781.00,0.7875
5780.00,0.7919
5779.00,0.7970
5778.00,0.8028
5777.00,0.8094
5776.00,0.8168
5775.00,0.8248
5774.00,0.8335
5773.00,0.8428
5772.00,0.8527
5771.00,0.8631
5770.00,0.8739
5769.00,0.8850
5768.00,0.8964
5767.00,0.9081
5766.00,0.9202
5765.00,0.9325
5764.00,0.9450
5763.00,0.9578
5762.00,0.9708
5761.00,0.9839
5760.00,0.9969
5759.00,1.0098
5758.00,1.0226
5757.00,1.0354
5756.00,1.0483
5755.00,1.0612
5754.00,1.0743
5753.00,1.0872
5752.00,1.0999
5751.00,1.1125
5750.00,1.1248
5749.00,1.1370
5748.00,1.1490
5747.00,1.1605
5746.00,1.1717
5745.00,1.1825
5744.00,1.1930
5743.00,1.2032
5742.00,1.2133
5741.00,1.2233
5740.00,1.2331
5739.00,1.2424
5738.00,1.2512
5737.00,1.2593
5736.00,1.2669
5735.00,1.2741
5734.00,1.2809
5733.00,1.2875
5732.00,1.2939
5731.00,1.2999
5730.00,1.3057
5729.00,1.3110
5728.00,1.3159
5727.00,1.3202
5726.00,1.3238
5725.00,1.3269
5724.00,1.3295
5723.00,1.3318
5722.00,1.3336
5721.00,1.3351
5720.00,1.3360
5719.00,1.3363
5718.00,1.3362
5717.00,1.3357
5716.00,1.3349
5715.00,1.3338
5714.00,1.3325
5713.00,1.3309
5712.00,1.3289
5711.00,1.3263
5710.00,1.3232
5709.00,1.3195
5708.00,1.3154
5707.00,1.3109
5706.00,1.3058
5705.00,1.3002
5704.00,1.2942
5703.00,1.2879
5702.00,1.2812
5701.00,1.2740
5700.00,1.2664
5699.00,1.2584
5698.00,1.2500
5697.00,1.2412
5696.00,1.2318
5695.00,1.2220
5694.00,1.2120
5693.00,1.2017
5692.00,1.1912
5691.00,1.1805
5690.00,1.1695
5689.00,1.1581
5688.00,1.1461
5687.00,1.1338
5686.00,1.1212
5685.00,1.1083
5684.00,1.0953
5683.00,1.0821
5682.00,1.0688
5681.00,1.0553
5680.00,1.0416
5679.00,1.0275
5678.00,1.0136
5677.00,0.9997
5676.00,0.9860
5675.00,0.9723
5674.00,0.9588
5673.00,0.9455
5672.00,0.9323
5671.00,0.9192
5670.00,0.9064
5669.00,0.8939
5668.00,0.8819
5667.00,0.8703
5666.00,0.8591
5665.00,0.8483
5664.00,0.8381
5663.00,0.8284
5662.00,0.8194
5661.00,0.8111
5660.00,0.8036
5659.00,0.7967
5658.00,0.7907
5657.00,0.7855
5656.00,0.7811
5655.00,0.7775
5654.00,0.7748
5653.00,0.7731
5652.00,0.7723
5651.00,0.7724
5650.00,0.7734
5649.00,0.7752
5648.00,0.7778
5647.00,0.7812
5646.00,0.7853
5645.00,0.7902
5644.00,0.7959
5643.00,0.8025
5642.00,0.8099
5641.00,0.8181
5640.00,0.8268
5639.00,0.8361
5638.00,0.8458
5637.00,0.8560
5636.00,0.8665
5635.00,0.8775
5634.00,0.8889
5633.00,0.9007
5632.00,0.9130
5631.00,0.9256
5630.00,0.9384
5629.00,0.9513
5628.00,0.9642
5627.00,0.9772
5626.00,0.9903
5625.00,1.0035
5624.00,1.0169
5623.00,1.0304
5622.00,1.0438
5621.00,1.0571
5620.00,1.0700
5619.00,1.0829
5618.00,1.0956
5617.00,1.1083
5616.00,1.1208
5615.00,1.1328
5614.00,1.1445
5613.00,1.1559
5612.00,1.1670
5611.00,1.1779
5610.00,1.1886
5609.00,1.1992
5608.00,1.2095
5607.00,1.2192
5606.00,1.2282
5605.00,1.2366
5604.00,1.2445
5603.00,1.2521
5602.00,1.2593
5601.00,1.2664
5600.00,1.2734
5599.00,1.2803
5598.00,1.2869
5597.00,1.2929
5596.00,1.2983
5595.00,1.3032
5594.00,1.3075
5593.00,1.3113
5592.00,1.3145
5591.00,1.3173
5590.00,1.3196
5589.00,1.3215
5588.00,1.3230
5587.00,1.3243
5586.00,1.3257
5585.00,1.3269
5584.00,1.3278
5583.00,1.3282
5582.00,1.3280
5581.00,1.3275
5580.00,1.3266
5579.00,1.3253
5578.00,1.3236
5577.00,1.3216
5576.00,1.3191
5575.00,1.3160
5574.00,1.3122
5573.00,1.3079
5572.00,1.3033
5571.00,1.2985
5570.00,1.2935
5569.00,1.2883
5568.00,1.2826
5567.00,1.2766
5566.00,1.2701
5565.00,1.2629
5564.00,1.2552
5563.00,1.2469
5562.00,1.2381
5561.00,1.2291
5560.00,1.2196
5559.00,1.2098
5558.00,1.1996
5557.00,1.1889
5556.00,1.1778
5555.00,1.1664
5554.00,1.1546
5553.00,1.1427
5552.00,1.1305
5551.00,1.1180
5550.00,1.1051
5549.00,1.0918
5548.00,1.0780
5547.00,1.0640
5546.00,1.0499
5545.00,1.0357
5544.00,1.0216
5543.00,1.0073
5542.00,0.9931
5541.00,0.9789
5540.00,0.9649
5539.00,0.9510
5538.00,0.9373
5537.00,0.9240
5536.00,0.9108
5535.00,0.8979
5534.00,0.8852
5533.00,0.8729
5532.00,0.8610
5531.00,0.8495
5530.00,0.8388
5529.00,0.8287
5528.00,0.8193
5527.00,0.8106
5526.00,0.8026
5525.00,0.7953
5524.00,0.7887
5523.00,0.7829
5522.00,0.7778
5521.00,0.7738
5520.00,0.7707
5519.00,0.7685
5518.00,0.7672
5517.00,0.7668
5516.00,0.7674
5515.00,0.7689
5514.00,0.7714
5513.00,0.7749
5512.00,0.7793
5511.00,0.7845
5510.00,0.7906
5509.00,0.7976
5508.00,0.8053
5507.00,0.8138
5506.00,0.8230
5505.00,0.8327
5504.00,0.8428
5503.00,0.8535
5502.00,0.8646
5501.00,0.8762
5500.00,0.8883
5499.00,0.9008
5498.00,0.9138
5497.00,0.9269
5496.00,0.9402
5495.00,0.9536
5494.00,0.9672
5493.00,0.9810
5492.00,0.9951
5491.00,1.0092
5490.00,1.0234
5489.00,1.0377
5488.00,1.0518
5487.00,1.0658
5486.00,1.0797
5485.00,1.0935
5484.00,1.1072
5483.00,1.1208
5482.00,1.1341
5481.00,1.1471
5480.00,1.1599
5479.00,1.1723
5478.00,1.1844
5477.00,1.1964
5476.00,1.2083
5475.00,1.2201
5474.00,1.2316
5473.00,1.2428
5472.00,1.2534
5471.00,1.2636
5470.00,1.2731
5469.00,1.2820
5468.00,1.2901
5467.00,1.2977
5466.00,1.3048
5465.00,1.3115
5464.00,1.3179
5463.00,1.3240
5462.00,1.3299
5461.00,1.3356
5460.00,1.3411
5459.00,1.3460
5458.00,1.3504
5457.00,1.3542
5456.00,1.3574
5455.00,1.3601
5454.00,1.3627
5453.00,1.3650
5452.00,1.3670
5451.00,1.3685
5450.00,1.3695
5449.00,1.3699
5448.00,1.3696
5447.00,1.3686
5446.00,1.3671
5445.00,1.3650
5444.00,1.3625
5443.00,1.3595
5442.00,1.3562
5441.00,1.3528
5440.00,1.3490
5439.00,1.3447
5438.00,1.3399
5437.00,1.3346
5436.00,1.3291
5435.00,1.3230
5434.00,1.3166
5433.00,1.3099
5432.00,1.3029
5431.00,1.2954
5430.00,1.2870
5429.00,1.2779
5428.00,1.2681
5427.00,1.2578
5426.00,1.2472
5425.00,1.2365
5424.00,1.2258
5423.00,1.2150
5422.00,1.2037
5421.00,1.1919
5420.00,1.1794
5419.00,1.1665
5418.00,1.1531
5417.00,1.1395
5416.00,1.1255
5415.00,1.1110
5414.00,1.0962
5413.00,1.0813
5412.00,1.0663
5411.00,1.0514
5410.00,1.0365
5409.00,1.0217
5408.00,1.0068
5407.00,0.9918
5406.00,0.9768
5405.00,0.9618
5404.00,0.9470
5403.00,0.9325
5402.00,0.9182
5401.00,0.9042
5400.00,0.8906
5399.00,0.8774
5398.00,0.8647
5397.00,0.8524
5396.00,0.8408
5395.00,0.8297
5394.00,0.8193
5393.00,0.8095
5392.00,0.8005
5391.00,0.7923
5390.00,0.7850
5389.00,0.7787
5388.00,0.7732
5387.00,0.7686
5386.00,0.7649
5385.00,0.7621
5384.00,0.7602
5383.00,0.7593
5382.00,0.7595
5381.00,0.7608
5380.00,0.7631
5379.00,0.7664
5378.00,0.7707
5377.00,0.7760
5376.00,0.7821
5375.00,0.7891
5374.00,0.7969
5373.00,0.8053
5372.00,0.8144
5371.00,0.8242
5370.00,0.8348
5369.00,0.8459
5368.00,0.8574
5367.00,0.8695
5366.00,0.8821
5365.00,0.8952
5364.00,0.9088
5363.00,0.9227
5362.00,0.9369
5361.00,0.9511
5360.00,0.9653
5359.00,0.9796
5358.00,0.9941
5357.00,1.0088
5356.00,1.0235
5355.00,1.0382
5354.00,1.0530
5353.00,1.0676
5352.00,1.0823
5351.00,1.0967
5350.00,1.1111
5349.00,1.1252
5348.00,1.1389
5347.00,1.1522
5346.00,1.1653
5345.00,1.1783
5344.00,1.1911
5343.00,1.2038
5342.00,1.2163
5341.00,1.2284
5340.00,1.2398
5339.00,1.2508
5338.00,1.2613
5337.00,1.2716
5336.00,1.2814
5335.00,1.2905
5334.00,1.2991
5333.00,1.3074
5332.00,1.3153
5331.00,1.3228
5330.00,1.3297
5329.00,1.3362
5328.00,1.3422
5327.00,1.3479
5326.00,1.3534
5325.00,1.3585
5324.00,1.3632
5323.00,1.3675
5322.00,1.3711
5321.00,1.3741
5320.00,1.3768
5319.00,1.3791
5318.00,1.3811
5317.00,1.3826
5316.00,1.3835
5315.00,1.3840
5314.00,1.3840
5313.00,1.3837
5312.00,1.3830
5311.00,1.3819
5310.00,1.3804
5309.00,1.3785
5308.00,1.3760
5307.00,1.3731
5306.00,1.3697
5305.00,1.3659
5304.00,1.3616
5303.00,1.3569
5302.00,1.3516
5301.00,1.3457
5300.00,1.3392
5299.00,1.3323
5298.00,1.3249
5297.00,1.3171
5296.00,1.3089
5295.00,1.3002
5294.00,1.2910
5293.00,1.2815
5292.00,1.2714
5291.00,1.2608
5290.00,1.2498
5289.00,1.2383
5288.00,1.2267
5287.00,1.2147
5286.00,1.2025
5285.00,1.1897
5284.00,1.1765
5283.00,1.1627
5282.00,1.1484
5281.00,1.1338
5280.00,1.1191
5279.00,1.1041
5278.00,1.0891
5277.00,1.0739
5276.00,1.0586
5275.00,1.0432
5274.00,1.0279
5273.00,1.0125
5272.00,0.9971
5271.00,0.9818
5270.00,0.9666
5269.00,0.9515
5268.00,0.9368
5267.00,0.9224
5266.00,0.9084
5265.00,0.8947
5264.00,0.8814
5263.00,0.8684
5262.00,0.8560
5261.00,0.8443
5260.00,0.8332
5259.00,0.8230
5258.00,0.8137
5257.00,0.8054
5256.00,0.7980
5255.00,0.7914
5254.00,0.7857
5253.00,0.7809
5252.00,0.7770
5251.00,0.7741
5250.00,0.7724
5249.00,0.7717
5248.00,0.7721
5247.00,0.7736
5246.00,0.7760
5245.00,0.7795
5244.00,0.7840
5243.00,0.7894
5242.00,0.7958
5241.00,0.8031
5240.00,0.8113
5239.00,0.8203
5238.00,0.8302
5237.00,0.8408
5236.00,0.8521
5235.00,0.8639
5234.00,0.8761
5233.00,0.8887
5232.00,0.9018
5231.00,0.9153
5230.00,0.9292
5229.00,0.9434
5228.00,0.9577
5227.00,0.9723
5226.00,0.9872
5225.00,1.0024
5224.00,1.0178
5223.00,1.0331
5222.00,1.0484
5221.00,1.0636
5220.00,1.0787
5219.00,1.0938
5218.00,1.1090
5217.00,1.1240
5216.00,1.1390
5215.00,1.1537
5214.00,1.1682
5213.00,1.1822
5212.00,1.1959
5211.00,1.2092
5210.00,1.2223
5209.00,1.2352
5208.00,1.2476
5207.00,1.2596
5206.00,1.2712
5205.00,1.2824
5204.00,1.2932
5203.00,1.3034
5202.00,1.3133
5201.00,1.3226
5200.00,1.3315
5199.00,1.3400
5198.00,1.3483
5197.00,1.3561
5196.00,1.3635
5195.00,1.3705
5194.00,1.3769
5193.00,1.3827
5192.00,1.3879
5191.00,1.3926
5190.00,1.3968
5189.00,1.4006
5188.00,1.4041
5187.00,1.4074
5186.00,1.4103
5185.00,1.4127
5184.00,1.4144
5183.00,1.4155
5182.00,1.4162
5181.00,1.4167
5180.00,1.4168
5179.00,1.4163
5178.00,1.4152
5177.00,1.4138
5176.00,1.4119
5175.00,1.4096
5174.00,1.4070
5173.00,1.4039
5172.00,1.4002
5171.00,1.3961
5170.00,1.3917
5169.00,1.3868
5168.00,1.3815
5167.00,1.3755
5166.00,1.3688
5165.00,1.3616
5164.00,1.3539
5163.00,1.3458
5162.00,1.3375
5161.00,1.3288
5160.00,1.3196
5159.00,1.3100
5158.00,1.2997
5157.00,1.2888
5156.00,1.2773
5155.00,1.2652
5154.00,1.2529
5153.00,1.2403
5152.00,1.2273
5151.00,1.2140
5150.00,1.2002
5149.00,1.1860
5148.00,1.1714
5147.00,1.1564
5146.00,1.1413
5145.00,1.1259
5144.00,1.1103
5143.00,1.0943
5142.00,1.0781
5141.00,1.0618
5140.00,1.0453
5139.00,1.0289
5138.00,1.0125
5137.00,0.9962
5136.00,0.9799
5135.00,0.9637
5134.00,0.9477
5133.00,0.9321
5132.00,0.9168
5131.00,0.9021
5130.00,0.8878
5129.00,0.8739
5128.00,0.8605
5127.00,0.8477
5126.00,0.8356
5125.00,0.8243
5124.00,0.8139
5123.00,0.8043
5122.00,0.7956
5121.00,0.7878
5120.00,0.7810
5119.00,0.7752
5118.00,0.7704
5117.00,0.7668
5116.00,0.7643
5115.00,0.7630
5114.00,0.7627
5113.00,0.7636
5112.00,0.7656
5111.00,0.7687
5110.00,0.7730
5109.00,0.7783
5108.00,0.7848
5107.00,0.7922
5106.00,0.8005
5105.00,0.8097
5104.00,0.8198
5103.00,0.8306
5102.00,0.8421
5101.00,0.8543
5100.00,0.8671
5099.00,0.8805
5098.00,0.8944
5097.00,0.9087
5096.00,0.9235
5095.00,0.9385
5094.00,0.9539
5093.00,0.9695
5092.00,0.9853
5091.00,1.0012
5090.00,1.0172
5089.00,1.0331
5088.00,1.0489
5087.00,1.0646
5086.00,1.0805
5085.00,1.0964
5084.00,1.1124
5083.00,1.1283
5082.00,1.1439
5081.00,1.1593
5080.00,1.1743
5079.00,1.1889
5078.00,1.2033
5077.00,1.2174
5076.00,1.2313
5075.00,1.2448
5074.00,1.2578
5073.00,1.2704
5072.00,1.2827
5071.00,1.2948
5070.00,1.3064
5069.00,1.3176
5068.00,1.3280
5067.00,1.3377
5066.00,1.3468
5065.00,1.3557
5064.00,1.3643
5063.00,1.3728
5062.00,1.3810
5061.00,1.3886
5060.00,1.3956
5059.00,1.4021
5058.00,1.4078
5057.00,1.4128
5056.00,1.4171
5055.00,1.4208
5054.00,1.4240
5053.00,1.4271
5052.00,1.4300
5051.00,1.4328
5050.00,1.4352
5049.00,1.4372
5048.00,1.4385
5047.00,1.4393
5046.00,1.4396
5045.00,1.4396
5044.00,1.4392
5043.00,1.4384
5042.00,1.4370
5041.00,1.4349
5040.00,1.4323
5039.00,1.4292
5038.00,1.4257
5037.00,1.4218
5036.00,1.4175
5035.00,1.4128
5034.00,1.4076
5033.00,1.4018
5032.00,1.3955
5031.00,1.3887
5030.00,1.3814
5029.00,1.3736
5028.00,1.3653
5027.00,1.3566
5026.00,1.3472
5025.00,1.3372
5024.00,1.3265
5023.00,1.3153
5022.00,1.3038
5021.00,1.2921
5020.00,1.2800
5019.00,1.2675
5018.00,1.2545
5017.00,1.2409
5016.00,1.2268
5015.00,1.2123
5014.00,1.1975
5013.00,1.1823
5012.00,1.1666
5011.00,1.1504
5010.00,1.1339
5009.00,1.1172
5008.00,1.1003
5007.00,1.0834
5006.00,1.0663
5005.00,1.0490
5004.00,1.0317
5003.00,1.0144
5002.00,0.9972
5001.00,0.9802
5000.00,0.9634
4999.00,0.9469
4998.00,0.9307
4997.00,0.9149
4996.00,0.8995
4995.00,0.8846
4994.00,0.8703
4993.00,0.8567
4992.00,0.8437
4991.00,0.8315
4990.00,0.8202
4989.00,0.8098
4988.00,0.8004
4987.00,0.7920
4986.00,0.7846
4985.00,0.7783
4984.00,0.7731
4983.00,0.7691
4982.00,0.7665
4981.00,0.7650
4980.00,0.7649
4979.00,0.7659
4978.00,0.7681
4977.00,0.7716
4976.00,0.7762
4975.00,0.7821
4974.00,0.7890
4973.00,0.7970
4972.00,0.8060
4971.00,0.8159
4970.00,0.8268
4969.00,0.8385
4968.00,0.8510
4967.00,0.8641
4966.00,0.8779
4965.00,0.8922
4964.00,0.9069
4963.00,0.9221
4962.00,0.9378
4961.00,0.9538
4960.00,0.9701
4959.00,0.9866
4958.00,1.0033
4957.00,1.0202
4956.00,1.0372
4955.00,1.0542
4954.00,1.0711
4953.00,1.0878
4952.00,1.1045
4951.00,1.1212
4950.00,1.1379
4949.00,1.1546
4948.00,1.1711
4947.00,1.1873
4946.00,1.2030
4945.00,1.2183
4944.00,1.2333
4943.00,1.2478
4942.00,1.2620
4941.00,1.2758
4940.00,1.2892
4939.00,1.3022
4938.00,1.3149
4937.00,1.3271
4936.00,1.3387
4935.00,1.3497
4934.00,1.3603
4933.00,1.3705
4932.00,1.3804
4931.00,1.3900
4930.00,1.3991
4929.00,1.4077
4928.00,1.4153
4927.00,1.4222
4926.00,1.4286
4925.00,1.4346
4924.00,1.4402
4923.00,1.4454
4922.00,1.4502
4921.00,1.4546
4920.00,1.4584
4919.00,1.4614
4918.00,1.4640
4917.00,1.4660
4916.00,1.4677
4915.00,1.4689
4914.00,1.4698
4913.00,1.4705
4912.00,1.4707
4911.00,1.4704
4910.00,1.4696
4909.00,1.4685
4908.00,1.4669
4907.00,1.4648
4906.00,1.4620
4905.00,1.4585
4904.00,1.4546
4903.00,1.4501
4902.00,1.4454
4901.00,1.4406
4900.00,1.4353
4899.00,1.4294
4898.00,1.4227
4897.00,1.4155
4896.00,1.4077
4895.00,1.3993
4894.00,1.3904
4893.00,1.3810
4892.00,1.3713
4891.00,1.3612
4890.00,1.3507
4889.00,1.3396
4888.00,1.3281
4887.00,1.3159
4886.00,1.3031
4885.00,1.2897
4884.00,1.2760
4883.00,1.2618
4882.00,1.2472
4881.00,1.2320
4880.00,1.2165
4879.00,1.2006
4878.00,1.1842
4877.00,1.1674
4876.00,1.1503
4875.00,1.1329
4874.00,1.1152
4873.00,1.0973
4872.00,1.0791
4871.00,1.0607
4870.00,1.0424
4869.00,1.0241
4868.00,1.0059
4867.00,0.9879
4866.00,0.9701
4865.00,0.9526
4864.00,0.9354
4863.00,0.9185
4862.00,0.9020
4861.00,0.8861
4860.00,0.8708
4859.00,0.8561
4858.00,0.8423
4857.00,0.8294
4856.00,0.8174
4855.00,0.8064
4854.00,0.7963
4853.00,0.7872
4852.00,0.7793
4851.00,0.7726
4850.00,0.7671
4849.00,0.7631
4848.00,0.7603
4847.00,0.7589
4846.00,0.7588
4845.00,0.7600
4844.00,0.7626
4843.00,0.7665
4842.00,0.7717
4841.00,0.7782
4840.00,0.7858
4839.00,0.7946
4838.00,0.8044
4837.00,0.8152
4836.00,0.8268
4835.00,0.8393
4834.00,0.8526
4833.00,0.8666
4832.00,0.8813
4831.00,0.8966
4830.00,0.9124
4829.00,0.9286
4828.00,0.9452
4827.00,0.9621
4826.00,0.9791
4825.00,0.9963
4824.00,1.0137
4823.00,1.0314
4822.00,1.0493
4821.00,1.0673
4820.00,1.0854
4819.00,1.1034
4818.00,1.1211
4817.00,1.1386
4816.00,1.1558
4815.00,1.1729
4814.00,1.1899
4813.00,1.2067
4812.00,1.2231
4811.00,1.2391
4810.00,1.2548
4809.00,1.2702
4808.00,1.2854
4807.00,1.3000
4806.00,1.3141
4805.00,1.3276
4804.00,1.3404
4803.00,1.3527
4802.00,1.3646
4801.00,1.3762
4800.00,1.3872
4799.00,1.3978
4798.00,1.4080
4797.00,1.4177
4796.00,1.4269
4795.00,1.4353
4794.00,1.4431
4793.00,1.4502
4792.00,1.4568
4791.00,1.4630
4790.00,1.4687
4789.00,1.4741
4788.00,1.4791
4787.00,1.4838
4786.00,1.4881
4785.00,1.4919
4784.00,1.4951
4783.00,1.4976
4782.00,1.4995
4781.00,1.5008
4780.00,1.5018
4779.00,1.5025
4778.00,1.5028
4777.00,1.5028
4776.00,1.5022
4775.00,1.5010
4774.00,1.4991
4773.00,1.4967
4772.00,1.4939
4771.00,1.4909
4770.00,1.4877
4769.00,1.4841
4768.00,1.4800
4767.00,1.4749
4766.00,1.4692
4765.00,1.4628
4764.00,1.4558
4763.00,1.4482
4762.00,1.4402
4761.00,1.4318
4760.00,1.4230
4759.00,1.4139
4758.00,1.4043
4757.00,1.3940
4756.00,1.3831
4755.00,1.3716
4754.00,1.3597
4753.00,1.3474
4752.00,1.3346
4751.00,1.3210
4750.00,1.3067
4749.00,1.2918
4748.00,1.2766
4747.00,1.2611
4746.00,1.2452
4745.00,1.2289
4744.00,1.2121
4743.00,1.1947
4742.00,1.1769
4741.00,1.1588
4740.00,1.1404
4739.00,1.1217
4738.00,1.1028
4737.00,1.0839
4736.00,1.0649
4735.00,1.0458
4734.00,1.0268
4733.00,1.0079
4732.00,0.9892
4731.00,0.9708
4730.00,0.9527
4729.00,0.9351
4728.00,0.9180
4727.00,0.9014
4726.00,0.8856
4725.00,0.8704
4724.00,0.8561
4723.00,0.8425
4722.00,0.8299
4721.00,0.8184
4720.00,0.8079
4719.00,0.7988
4718.00,0.7909
4717.00,0.7844
4716.00,0.7792
4715.00,0.7753
4714.00,0.7729
4713.00,0.7719
4712.00,0.7723
4711.00,0.7743
4710.00,0.7777
4709.00,0.7825
4708.00,0.7886
4707.00,0.7961
4706.00,0.8048
4705.00,0.8147
4704.00,0.8258
4703.00,0.8379
4702.00,0.8509
4701.00,0.8648
4700.00,0.8795
4699.00,0.8949
4698.00,0.9109
4697.00,0.9275
4696.00,0.9445
4695.00,0.9619
4694.00,0.9797
4693.00,0.9978
4692.00,1.0163
4691.00,1.0349
4690.00,1.0535
4689.00,1.0722
4688.00,1.0909
4687.00,1.1096
4686.00,1.1283
4685.00,1.1470
4684.00,1.1655
4683.00,1.1837
4682.00,1.2016
4681.00,1.2192
4680.00,1.2364
4679.00,1.2532
4678.00,1.2697
4677.00,1.2857
4676.00,1.3014
4675.00,1.3167
4674.00,1.3315
4673.00,1.3458
4672.00,1.3595
4671.00,1.3724
4670.00,1.3848
4669.00,1.3968
4668.00,1.4085
4667.00,1.4199
4666.00,1.4307
4665.00,1.4409
4664.00,1.4504
4663.00,1.4594
4662.00,1.4680
4661.00,1.4761
4660.00,1.4835
4659.00,1.4904
4658.00,1.4968
4657.00,1.5028
4656.00,1.5084
4655.00,1.5136
4654.00,1.5184
4653.00,1.5227
4652.00,1.5264
4651.00,1.5297
4650.00,1.5322
4649.00,1.5342
4648.00,1.5357
4647.00,1.5369
4646.00,1.5380
4645.00,1.5389
4644.00,1.5391
4643.00,1.5387
4642.00,1.5376
4641.00,1.5359
4640.00,1.5338
4639.00,1.5314
4638.00,1.5287
4637.00,1.5255
4636.00,1.5218
4635.00,1.5176
4634.00,1.5127
4633.00,1.5074
4632.00,1.5014
4631.00,1.4949
4630.00,1.4880
4629.00,1.4807
4628.00,1.4729
4627.00,1.4645
4626.00,1.4555
4625.00,1.4459
4624.00,1.4358
4623.00,1.4253
4622.00,1.4144
4621.00,1.4030
4620.00,1.3910
4619.00,1.3783
4618.00,1.3651
4617.00,1.3513
4616.00,1.3369
4615.00,1.3219
4614.00,1.3064
4613.00,1.2904
4612.00,1.2740
4611.00,1.2570
4610.00,1.2394
4609.00,1.2212
4608.00,1.2027
4607.00,1.1839
4606.00,1.1649
4605.00,1.1459
4604.00,1.1265
4603.00,1.1068
4602.00,1.0869
4601.00,1.0669
4600.00,1.0469
4599.00,1.0269
4598.00,1.0070
4597.00,0.9875
4596.00,0.9682
4595.00,0.9495
4594.00,0.9312
4593.00,0.9135
4592.00,0.8965
4591.00,0.8802
4590.00,0.8647
4589.00,0.8501
4588.00,0.8365
4587.00,0.8239
4586.00,0.8126
4585.00,0.8025
4584.00,0.7938
4583.00,0.7865
4582.00,0.7806
4581.00,0.7763
4580.00,0.7735
4579.00,0.7721
4578.00,0.7724
4577.00,0.7741
4576.00,0.7774
4575.00,0.7822
4574.00,0.7885
4573.00,0.7962
4572.00,0.8052
4571.00,0.8155
4570.00,0.8269
4569.00,0.8395
4568.00,0.8530
4567.00,0.8674
4566.00,0.8827
4565.00,0.8988
4564.00,0.9156
4563.00,0.9330
4562.00,0.9510
4561.00,0.9693
4560.00,0.9880
4559.00,1.0070
4558.00,1.0263
4557.00,1.0458
4556.00,1.0655
4555.00,1.0852
4554.00,1.1049
4553.00,1.1245
4552.00,1.1439
4551.00,1.1633
4550.00,1.1826
4549.00,1.2018
4548.00,1.2209
4547.00,1.2397
4546.00,1.2581
4545.00,1.2761
4544.00,1.2937
4543.00,1.3108
4542.00,1.3275
4541.00,1.3437
4540.00,1.3593
4539.00,1.3744
4538.00,1.3888
4537.00,1.4025
4536.00,1.4156
4535.00,1.4281
4534.00,1.4401
4533.00,1.4517
4532.00,1.4629
4531.00,1.4735
4530.00,1.4836
4529.00,1.4931
4528.00,1.5020
4527.00,1.5105
4526.00,1.5186
4525.00,1.5260
4524.00,1.5328
4523.00,1.5390
4522.00,1.5444
4521.00,1.5494
4520.00,1.5539
4519.00,1.5581
4518.00,1.5618
4517.00,1.5652
4516.00,1.5682
4515.00,1.5708
4514.00,1.5729
4513.00,1.5743
4512.00,1.5752
4511.00,1.5754
4510.00,1.5753
4509.00,1.5747
4508.00,1.5738
4507.00,1.5725
4506.00,1.5706
4505.00,1.5682
4504.00,1.5653
4503.00,1.5618
4502.00,1.5578
4501.00,1.5534
4500.00,1.5485
4499.00,1.5432
4498.00,1.5374
4497.00,1.5310
4496.00,1.5242
4495.00,1.5166
4494.00,1.5084
4493.00,1.4996
4492.00,1.4904
4491.00,1.4808
4490.00,1.4708
4489.00,1.4602
4488.00,1.4489
4487.00,1.4369
4486.00,1.4243
4485.00,1.4112
4484.00,1.3974
4483.00,1.3830
4482.00,1.3679
4481.00,1.3521
4480.00,1.3357
4479.00,1.3187
4478.00,1.3011
4477.00,1.2830
4476.00,1.2646
4475.00,1.2458
4474.00,1.2266
4473.00,1.2069
4472.00,1.1868
4471.00,1.1663
4470.00,1.1455
4469.00,1.1244
4468.00,1.1033
4467.00,1.0821
4466.00,1.0610
4465.00,1.0400
4464.00,1.0192
4463.00,0.9987
4462.00,0.9786
4461.00,0.9590
4460.00,0.9399
4459.00,0.9215
4458.00,0.9038
4457.00,0.8871
4456.00,0.8714
4455.00,0.8568
4454.00,0.8434
4453.00,0.8312
4452.00,0.8204
4451.00,0.8110
4450.00,0.8032
4449.00,0.7969
4448.00,0.7922
4447.00,0.7891
4446.00,0.7877
4445.00,0.7881
4444.00,0.7901
4443.00,0.7939
4442.00,0.7994
4441.00,0.8065
4440.00,0.8151
4439.00,0.8251
4438.00,0.8365
4437.00,0.8491
4436.00,0.8628
4435.00,0.8776
4434.00,0.8934
4433.00,0.9101
4432.00,0.9275
4431.00,0.9456
4430.00,0.9643
4429.00,0.9836
4428.00,1.0033
4427.00,1.0235
4426.00,1.0439
4425.00,1.0645
4424.00,1.0851
4423.00,1.1059
4422.00,1.1266
4421.00,1.1473
4420.00,1.1680
4419.00,1.1887
4418.00,1.2093
4417.00,1.2296
4416.00,1.2496
4415.00,1.2692
4414.00,1.2883
4413.00,1.3071
4412.00,1.3256
4411.00,1.3437
4410.00,1.3613
4409.00,1.3783
4408.00,1.3946
4407.00,1.4104
4406.00,1.4257
4405.00,1.4406
4404.00,1.4550
4403.00,1.4687
4402.00,1.4816
4401.00,1.4936
4400.00,1.5049
4399.00,1.5157
4398.00,1.5261
4397.00,1.5361
4396.00,1.5457
4395.00,1.5545
4394.00,1.5626
4393.00,1.5697
4392.00,1.5764
4391.00,1.5828
4390.00,1.5890
4389.00,1.5951
4388.00,1.6006
4387.00,1.6054
4386.00,1.6095
4385.00,1.6131
4384.00,1.6164
4383.00,1.6193
4382.00,1.6219
4381.00,1.6239
4380.00,1.6255
4379.00,1.6267
4378.00,1.6275
4377.00,1.6279
4376.00,1.6277
4375.00,1.6269
4374.00,1.6256
4373.00,1.6240
4372.00,1.6220
4371.00,1.6196
4370.00,1.6165
4369.00,1.6130
4368.00,1.6091
4367.00,1.6047
4366.00,1.6000
4365.00,1.5947
4364.00,1.5888
4363.00,1.5823
4362.00,1.5753
4361.00,1.5680
4360.00,1.5603
4359.00,1.5522
4358.00,1.5437
4357.00,1.5345
4356.00,1.5245
4355.00,1.5137
4354.00,1.5024
4353.00,1.4907
4352.00,1.4787
4351.00,1.4662
4350.00,1.4531
4349.00,1.4393
4348.00,1.4249
4347.00,1.4099
4346.00,1.3941
4345.00,1.3778
4344.00,1.3608
4343.00,1.3434
4342.00,1.3256
4341.00,1.3074
4340.00,1.2884
4339.00,1.2687
4338.00,1.2484
4337.00,1.2276
4336.00,1.2066
4335.00,1.1855
4334.00,1.1641
4333.00,1.1426
4332.00,1.1210
4331.00,1.0995
4330.00,1.0782
4329.00,1.0572
4328.00,1.0366
4327.00,1.0164
4326.00,0.9969
4325.00,0.9781
4324.00,0.9602
4323.00,0.9433
4322.00,0.9274
4321.00,0.9126
4320.00,0.8990
4319.00,0.8866
4318.00,0.8756
4317.00,0.8661
4316.00,0.8580
4315.00,0.8515
4314.00,0.8465
4313.00,0.8431
4312.00,0.8413
4311.00,0.8412
4310.00,0.8427
4309.00,0.8459
4308.00,0.8507
4307.00,0.8571
4306.00,0.8649
4305.00,0.8742
4304.00,0.8848
4303.00,0.8967
4302.00,0.9100
4301.00,0.9244
4300.00,0.9398
4299.00,0.9563
4298.00,0.9735
4297.00,0.9914
4296.00,1.0100
4295.00,1.0290
4294.00,1.0486
4293.00,1.0685
4292.00,1.0887
4291.00,1.1091
4290.00,1.1297
4289.00,1.1505
4288.00,1.1713
4287.00,1.1921
4286.00,1.2126
4285.00,1.2327
4284.00,1.2525
4283.00,1.2720
4282.00,1.2912
4281.00,1.3101
4280.00,1.3287
4279.00,1.3469
4278.00,1.3647
4277.00,1.3819
4276.00,1.3988
4275.00,1.4153
4274.00,1.4312
4273.00,1.4466
4272.00,1.4615
4271.00,1.4757
4270.00,1.4893
4269.00,1.5025
4268.00,1.5152
4267.00,1.5275
4266.00,1.5395
4265.00,1.5508
4264.00,1.5614
4263.00,1.5713
4262.00,1.5806
4261.00,1.5895
4260.00,1.5981
4259.00,1.6062
4258.00,1.6139
4257.00,1.6209
4256.00,1.6274
4255.00,1.6334
4254.00,1.6388
4253.00,1.6439
4252.00,1.6486
4251.00,1.6531
4250.00,1.6572
4249.00,1.6608
4248.00,1.6638
4247.00,1.6661
4246.00,1.6678
4245.00,1.6689
4244.00,1.6698
4243.00,1.6703
4242.00,1.6705
4241.00,1.6701
4240.00,1.6692
4239.00,1.6678
4238.00,1.6659
4237.00,1.6634
4236.00,1.6602
4235.00,1.6564
4234.00,1.6523
4233.00,1.6481
4232.00,1.6437
4231.00,1.6389
4230.00,1.6333
4229.00,1.6269
4228.00,1.6196
4227.00,1.6119
4226.00,1.6038
4225.00,1.5956
4224.00,1.5872
4223.00,1.5781
4222.00,1.5681
4221.00,1.5573
4220.00,1.5456
4219.00,1.5335
4218.00,1.5208
4217.00,1.5078
4216.00,1.4943
4215.00,1.4803
4214.00,1.4657
4213.00,1.4504
4212.00,1.4343
4211.00,1.4175
4210.00,1.4000
4209.00,1.3821
4208.00,1.3635
4207.00,1.3444
4206.00,1.3247
4205.00,1.3044
4204.00,1.2835
4203.00,1.2621
4202.00,1.2404
4201.00,1.2185
4200.00,1.1963
4199.00,1.1741
4198.00,1.1518
4197.00,1.1296
4196.00,1.1074
4195.00,1.0855
4194.00,1.0640
4193.00,1.0431
4192.00,1.0227
4191.00,1.0031
4190.00,0.9843
4189.00,0.9664
4188.00,0.9495
4187.00,0.9337
4186.00,0.9191
4185.00,0.9058
4184.00,0.8938
4183.00,0.8833
4182.00,0.8744
4181.00,0.8671
4180.00,0.8615
4179.00,0.8576
4178.00,0.8555
4177.00,0.8552
4176.00,0.8567
4175.00,0.8600
4174.00,0.8651
4173.00,0.8718
4172.00,0.8802
4171.00,0.8900
4170.00,0.9013
4169.00,0.9140
4168.00,0.9280
4167.00,0.9432
4166.00,0.9593
4165.00,0.9764
4164.00,0.9942
4163.00,1.0129
4162.00,1.0322
4161.00,1.0521
4160.00,1.0724
4159.00,1.0931
4158.00,1.1141
4157.00,1.1354
4156.00,1.1568
4155.00,1.1784
4154.00,1.2000
4153.00,1.2216
4152.00,1.2431
4151.00,1.2644
4150.00,1.2854
4149.00,1.3062
4148.00,1.3267
4147.00,1.3469
4146.00,1.3669
4145.00,1.3865
4144.00,1.4057
4143.00,1.4243
4142.00,1.4422
4141.00,1.4594
4140.00,1.4760
4139.00,1.4921
4138.00,1.5076
4137.00,1.5226
4136.00,1.5373
4135.00,1.5515
4134.00,1.5651
4133.00,1.5778
4132.00,1.5895
4131.00,1.6006
4130.00,1.6112
4129.00,1.6214
4128.00,1.6313
4127.00,1.6405
4126.00,1.6490
4125.00,1.6568
4124.00,1.6639
4123.00,1.6706
4122.00,1.6768
4121.00,1.6828
4120.00,1.6885
4119.00,1.6940
4118.00,1.6990
4117.00,1.7032
4116.00,1.7067
4115.00,1.7095
4114.00,1.7116
4113.00,1.7134
4112.00,1.7149
4111.00,1.7160
4110.00,1.7167
4109.00,1.7168
4108.00,1.7163
4107.00,1.7153
4106.00,1.7138
4105.00,1.7121
4104.00,1.7100
4103.00,1.7075
4102.00,1.7044
4101.00,1.7007
4100.00,1.6964
4099.00,1.6914
4098.00,1.6858
4097.00,1.6797
4096.00,1.6731
4095.00,1.6660
4094.00,1.6583
4093.00,1.6502
4092.00,1.6418
4091.00,1.6328
4090.00,1.6232
4089.00,1.6128
4088.00,1.6017
4087.00,1.5902
4086.00,1.5782
4085.00,1.5656
4084.00,1.5523
4083.00,1.5383
4082.00,1.5236
4081.00,1.5084
4080.00,1.4925
4079.00,1.4759
4078.00,1.4586
4077.00,1.4405
4076.00,1.4219
4075.00,1.4028
4074.00,1.3830
4073.00,1.3628
4072.00,1.3421
4071.00,1.3210
4070.00,1.2993
4069.00,1.2771
4068.00,1.2543
4067.00,1.2313
4066.00,1.2080
4065.00,1.1846
4064.00,1.1611
4063.00,1.1377
4062.00,1.1144
4061.00,1.0913
4060.00,1.0686
4059.00,1.0464
4058.00,1.0249
4057.00,1.0042
4056.00,0.9844
4055.00,0.9656
4054.00,0.9479
4053.00,0.9315
4052.00,0.9165
4051.00,0.9030
4050.00,0.8911
4049.00,0.8808
4048.00,0.8724
4047.00,0.8658
4046.00,0.8611
4045.00,0.8583
4044.00,0.8574
4043.00,0.8583
4042.00,0.8612
4041.00,0.8660
4040.00,0.8727
4039.00,0.8811
4038.00,0.8912
4037.00,0.9029
4036.00,0.9162
4035.00,0.9308
4034.00,0.9467
4033.00,0.9637
4032.00,0.9819
4031.00,1.0011
4030.00,1.0213
4029.00,1.0422
4028.00,1.0638
4027.00,1.0859
4026.00,1.1085
4025.00,1.1314
4024.00,1.1547
4023.00,1.1782
4022.00,1.2019
4021.00,1.2255
4020.00,1.2489
4019.00,1.2722
4018.00,1.2952
4017.00,1.3180
4016.00,1.3404
4015.00,1.3623
4014.00,1.3838
4013.00,1.4049
4012.00,1.4254
4011.00,1.4453
4010.00,1.4646
4009.00,1.4832
4008.00,1.5014
4007.00,1.5191
4006.00,1.5362
4005.00,1.5527
4004.00,1.5683
4003.00,1.5831
4002.00,1.5972
4001.00,1.6107
4000.00,1.6238
3999.00,1.6363
3998.00,1.6483
3997.00,1.6596
3996.00,1.6704
3995.00,1.6804
3994.00,1.6898
3993.00,1.6986
3992.00,1.7069
3991.00,1.7148
3990.00,1.7221
3989.00,1.7286
3988.00,1.7343
3987.00,1.7395
3986.00,1.7444
3985.00,1.7494
3984.00,1.7541
3983.00,1.7584
3982.00,1.7620
3981.00,1.7648
3980.00,1.7671
3979.00,1.7689
3978.00,1.7702
3977.00,1.7711
3976.00,1.7714
3975.00,1.7712
3974.00,1.7706
3973.00,1.7694
3972.00,1.7677
3971.00,1.7654
3970.00,1.7626
3969.00,1.7594
3968.00,1.7561
3967.00,1.7525
3966.00,1.7484
3965.00,1.7434
3964.00,1.7376
3963.00,1.7314
3962.00,1.7247
3961.00,1.7176
3960.00,1.7099
3959.00,1.7016
3958.00,1.6928
3957.00,1.6834
3956.00,1.6738
3955.00,1.6637
3954.00,1.6533
3953.00,1.6423
3952.00,1.6305
3951.00,1.6178
3950.00,1.6041
3949.00,1.5896
3948.00,1.5744
3947.00,1.5586
3946.00,1.5423
3945.00,1.5253
3944.00,1.5074
3943.00,1.4885
3942.00,1.4688
3941.00,1.4484
3940.00,1.4276
3939.00,1.4062
3938.00,1.3842
3937.00,1.3615
3936.00,1.3384
3935.00,1.3149
3934.00,1.2907
3933.00,1.2655
3932.00,1.2396
3931.00,1.2133
3930.00,1.1871
3929.00,1.1612
3928.00,1.1358
3927.00,1.1109
3926.00,1.0861
3925.00,1.0614
3924.00,1.0370
3923.00,1.0135
3922.00,0.9913
3921.00,0.9702
3920.00,0.9502
3919.00,0.9314
3918.00,0.9137
3917.00,0.8976
3916.00,0.8832
3915.00,0.8710
3914.00,0.8614
3913.00,0.8545
3912.00,0.8503
3911.00,0.8486
3910.00,0.8494
3909.00,0.8523
3908.00,0.8573
3907.00,0.8641
3906.00,0.8729
3905.00,0.8837
3904.00,0.8964
3903.00,0.9108
3902.00,0.9268
3901.00,0.9442
3900.00,0.9632
3899.00,0.9840
3898.00,1.0063
3897.00,1.0298
3896.00,1.0538
3895.00,1.0778
3894.00,1.1020
3893.00,1.1268
3892.00,1.1528
3891.00,1.1798
3890.00,1.2071
3889.00,1.2334
3888.00,1.2582
3887.00,1.2821
3886.00,1.3065
3885.00,1.3321
3884.00,1.3580
3883.00,1.3829
3882.00,1.4065
3881.00,1.4293
3880.00,1.4520
3879.00,1.4746
3878.00,1.4966
3877.00,1.5171
3876.00,1.5361
3875.00,1.5543
3874.00,1.5721
3873.00,1.5893
3872.00,1.6055
3871.00,1.6209
3870.00,1.6358
3869.00,1.6505
3868.00,1.6646
3867.00,1.6780
3866.00,1.6905
3865.00,1.7021
3864.00,1.7134
3863.00,1.7245
3862.00,1.7353
3861.00,1.7454
3860.00,1.7542
3859.00,1.7620
3858.00,1.7688
3857.00,1.7751
3856.00,1.7809
3855.00,1.7859
3854.00,1.7898
3853.00,1.7926
3852.00,1.7950
3851.00,1.7976
3850.00,1.8010
3849.00,1.8049
3848.00,1.8089
3847.00,1.8127
3846.00,1.8160
3845.00,1.8182
3844.00,1.8188
3843.00,1.8180
3842.00,1.8161
3841.00,1.8134
3840.00,1.8103
3839.00,1.8067
3838.00,1.8028
3837.00,1.7989
3836.00,1.7950
3835.00,1.7906
3834.00,1.7849
3833.00,1.7779
3832.00,1.7702
3831.00,1.7626
3830.00,1.7553
3829.00,1.7480
3828.00,1.7401
3827.00,1.7313
3826.00,1.7219
3825.00,1.7126
3824.00,1.7033
3823.00,1.6930
3822.00,1.6808
3821.00,1.6665
3820.00,1.6514
3819.00,1.6370
3818.00,1.6236
3817.00,1.6096
3816.00,1.5939
3815.00,1.5769
3814.00,1.5600
3813.00,1.5432
3812.00,1.5260
3811.00,1.5081
3810.00,1.4897
3809.00,1.4706
3808.00,1.4493
3807.00,1.4253
3806.00,1.3995
3805.00,1.3740
3804.00,1.3496
3803.00,1.3247
3802.00,1.2974
3801.00,1.2680
3800.00,1.2386
3799.00,1.2110
3798.00,1.1845
3797.00,1.1578
3796.00,1.1307
3795.00,1.1042
3794.00,1.0789
3793.00,1.0546
3792.00,1.0310
3791.00,1.0083
3790.00,0.9869
3789.00,0.9670
3788.00,0.9486
3787.00,0.9318
3786.00,0.9166
3785.00,0.9032
3784.00,0.8921
3783.00,0.8834
3782.00,0.8772
3781.00,0.8734
3780.00,0.8719
3779.00,0.8726
3778.00,0.8759
3777.00,0.8817
3776.00,0.8902
3775.00,0.9011
3774.00,0.9141
3773.00,0.9290
3772.00,0.9458
3771.00,0.9644
3770.00,0.9848
3769.00,1.0065
3768.00,1.0292
3767.00,1.0524
3766.00,1.0764
3765.00,1.1016
3764.00,1.1277
3763.00,1.1541
3762.00,1.1802
3761.00,1.2062
3760.00,1.2328
3759.00,1.2603
3758.00,1.2882
3757.00,1.3158
3756.00,1.3423
3755.00,1.3671
3754.00,1.3906
3753.00,1.4137
3752.00,1.4375
3751.00,1.4623
3750.00,1.4880
3749.00,1.5134
3748.00,1.5370
3747.00,1.5577
3746.00,1.5763
3745.00,1.5948
3744.00,1.6148
3743.00,1.6354
3742.00,1.6548
3741.00,1.6723
3740.00,1.6885
3739.00,1.7044
3738.00,1.7201
3737.00,1.7352
3736.00,1.7492
3735.00,1.7620
3734.00,1.7740
3733.00,1.7858
3732.00,1.7975
3731.00,1.8085
3730.00,1.8186
3729.00,1.8279
3728.00,1.8364
3727.00,1.8439
3726.00,1.8505
3725.00,1.8564
3724.00,1.8621
3723.00,1.8678
3722.00,1.8734
3721.00,1.8784
3720.00,1.8824
3719.00,1.8851
3718.00,1.8871
3717.00,1.8890
3716.00,1.8911
3715.00,1.8929
3714.00,1.8937
3713.00,1.8929
3712.00,1.8906
3711.00,1.8872
3710.00,1.8838
3709.00,1.8812
3708.00,1.8789
3707.00,1.8762
3706.00,1.8728
3705.00,1.8688
3704.00,1.8642
3703.00,1.8588
3702.00,1.8522
3701.00,1.8445
3700.00,1.8361
3699.00,1.8272
3698.00,1.8179
3697.00,1.8082
3696.00,1.7981
3695.00,1.7876
3694.00,1.7768
3693.00,1.7656
3692.00,1.7535
3691.00,1.7402
3690.00,1.7252
3689.00,1.7083
3688.00,1.6902
3687.00,1.6720
3686.00,1.6547
3685.00,1.6378
3684.00,1.6210
3683.00,1.6039
3682.00,1.5863
3681.00,1.5677
3680.00,1.5481
3679.00,1.5279
3678.00,1.5070
3677.00,1.4847
3676.00,1.4596
3675.00,1.4323
3674.00,1.4056
3673.00,1.3815
3672.00,1.3592
3671.00,1.3368
3670.00,1.3137
3669.00,1.2912
3668.00,1.2705
3667.00,1.2518
3666.00,1.2347
3665.00,1.2190
3664.00,1.2050
3663.00,1.1928
3662.00,1.1821
3661.00,1.1728
3660.00,1.1648
3659.00,1.1585
3658.00,1.1540
3657.00,1.1510
3656.00,1.1494
3655.00,1.1491
3654.00,1.1507
3653.00,1.1543
3652.00,1.1603
3651.00,1.1683
3650.00,1.1782
3649.00,1.1896
3648.00,1.2023
3647.00,1.2167
3646.00,1.2325
3645.00,1.2494
3644.00,1.2672
3643.00,1.2861
3642.00,1.3063
3641.00,1.3274
3640.00,1.3490
3639.00,1.3706
3638.00,1.3921
3637.00,1.4134
3636.00,1.4346
3635.00,1.4556
3634.00,1.4765
3633.00,1.4969
3632.00,1.5167
3631.00,1.5358
3630.00,1.5550
3629.00,1.5751
3628.00,1.5959
3627.00,1.6162
3626.00,1.6354
3625.00,1.6538
3624.00,1.6718
3623.00,1.6899
3622.00,1.7078
3621.00,1.7249
3620.00,1.7414
3619.00,1.7573
3618.00,1.7725
3617.00,1.7869
3616.00,1.8006
3615.00,1.8140
3614.00,1.8272
3613.00,1.8400
3612.00,1.8521
3611.00,1.8630
3610.00,1.8728
3609.00,1.8824
3608.00,1.8924
3607.00,1.9026
3606.00,1.9127
3605.00,1.9223
3604.00,1.9315
3603.00,1.9402
3602.00,1.9484
3601.00,1.9563
3600.00,1.9639
3599.00,1.9714
3598.00,1.9784
3597.00,1.9850
3596.00,1.9912
3595.00,1.9970
3594.00,2.0022
3593.00,2.0067
3592.00,2.0107
3591.00,2.0141
3590.00,2.0172
3589.00,2.0202
3588.00,2.0232
3587.00,2.0260
3586.00,2.0286
3585.00,2.0308
3584.00,2.0327
3583.00,2.0341
3582.00,2.0349
3581.00,2.0354
3580.00,2.0356
3579.00,2.0357
3578.00,2.0357
3577.00,2.0353
3576.00,2.0345
3575.00,2.0332
3574.00,2.0314
3573.00,2.0293
3572.00,2.0271
3571.00,2.0245
3570.00,2.0211
3569.00,2.0168
3568.00,2.0115
3567.00,2.0057
3566.00,2.0000
3565.00,1.9947
3564.00,1.9898
3563.00,1.9844
3562.00,1.9783
3561.00,1.9717
3560.00,1.9651
3559.00,1.9585
3558.00,1.9516
3557.00,1.9442
3556.00,1.9364
3555.00,1.9283
3554.00,1.9200
3553.00,1.9115
3552.00,1.9025
3551.00,1.8929
3550.00,1.8829
3549.00,1.8727
3548.00,1.8623
3547.00,1.8518
3546.00,1.8412
3545.00,1.8304
3544.00,1.8195
3543.00,1.8085
3542.00,1.7977
3541.00,1.7872
3540.00,1.7768
3539.00,1.7663
3538.00,1.7555
3537.00,1.7448
3536.00,1.7344
3535.00,1.7245
3534.00,1.7148
3533.00,1.7054
3532.00,1.6963
3531.00,1.6874
3530.00,1.6787
3529.00,1.6702
3528.00,1.6620
3527.00,1.6543
3526.00,1.6472
3525.00,1.6405
3524.00,1.6342
3523.00,1.6282
3522.00,1.6226
3521.00,1.6177
3520.00,1.6136
3519.00,1.6100
3518.00,1.6070
3517.00,1.6046
3516.00,1.6029
3515.00,1.6018
3514.00,1.6011
3513.00,1.6010
3512.00,1.6014
3511.00,1.6024
3510.00,1.6040
3509.00,1.6061
3508.00,1.6088
3507.00,1.6123
3506.00,1.6164
3505.00,1.6212
3504.00,1.6264
3503.00,1.6324
3502.00,1.6389
3501.00,1.6460
3500.00,1.6536
3499.00,1.6614
3498.00,1.6696
3497.00,1.6782
3496.00,1.6875
3495.00,1.6975
3494.00,1.7080
3493.00,1.7188
3492.00,1.7296
3491.00,1.7404
3490.00,1.7515
3489.00,1.7630
3488.00,1.7750
3487.00,1.7872
3486.00,1.7995
3485.00,1.8115
3484.00,1.8233
3483.00,1.8352
3482.00,1.8472
3481.00,1.8595
3480.00,1.8717
3479.00,1.8837
3478.00,1.8953
3477.00,1.9070
3476.00,1.9186
3475.00,1.9298
3474.00,1.9406
3473.00,1.9511
3472.00,1.9618
3471.00,1.9726
3470.00,1.9831
3469.00,1.9931
3468.00,2.0024
3467.00,2.0110
3466.00,2.0189
3465.00,2.0262
3464.00,2.0336
3463.00,2.0410
3462.00,2.0484
3461.00,2.0552
3460.00,2.0616
3459.00,2.0681
3458.00,2.0745
3457.00,2.0809
3456.00,2.0869
3455.00,2.0921
3454.00,2.0966
3453.00,2.1002
3452.00,2.1031
3451.00,2.1057
3450.00,2.1083
3449.00,2.1109
3448.00,2.1134
3447.00,2.1157
3446.00,2.1174
3445.00,2.1185
3444.00,2.1192
3443.00,2.1197
3442.00,2.1203
3441.00,2.1210
3440.00,2.1211
3439.00,2.1202
3438.00,2.1181
3437.00,2.1149
3436.00,2.1114
3435.00,2.1085
3434.00,2.1064
3433.00,2.1046
3432.00,2.1026
3431.00,2.0999
3430.00,2.0965
3429.00,2.0925
3428.00,2.0879
3427.00,2.0826
3426.00,2.0770
3425.00,2.0709
3424.00,2.0644
3423.00,2.0577
3422.00,2.0509
3421.00,2.0440
3420.00,2.0369
3419.00,2.0296
3418.00,2.0225
3417.00,2.0157
3416.00,2.0087
3415.00,2.0012
3414.00,1.9930
3413.00,1.9845
3412.00,1.9762
3411.00,1.9683
3410.00,1.9606
3409.00,1.9530
3408.00,1.9449
3407.00,1.9357
3406.00,1.9257
3405.00,1.9151
3404.00,1.9043
3403.00,1.8931
3402.00,1.8811
3401.00,1.8681
3400.00,1.8543
3399.00,1.8396
3398.00,1.8240
3397.00,1.8079
3396.00,1.7915
3395.00,1.7746
3394.00,1.7572
3393.00,1.7392
3392.00,1.7210
3391.00,1.7028
3390.00,1.6849
3389.00,1.6672
3388.00,1.6496
3387.00,1.6323
3386.00,1.6151
3385.00,1.5984
3384.00,1.5822
3383.00,1.5666
3382.00,1.5519
3381.00,1.5383
3380.00,1.5259
3379.00,1.5148
3378.00,1.5048
3377.00,1.4962
3376.00,1.4887
3375.00,1.4827
3374.00,1.4780
3373.00,1.4750
3372.00,1.4736
3371.00,1.4737
3370.00,1.4753
3369.00,1.4784
3368.00,1.4832
3367.00,1.4896
3366.00,1.4974
3365.00,1.5065
3364.00,1.5168
3363.00,1.5281
3362.00,1.5406
3361.00,1.5541
3360.00,1.5684
3359.00,1.5835
3358.00,1.5991
3357.00,1.6152
3356.00,1.6317
3355.00,1.6487
3354.00,1.6663
3353.00,1.6845
3352.00,1.7029
3351.00,1.7211
3350.00,1.7389
3349.00,1.7563
3348.00,1.7735
3347.00,1.7905
3346.00,1.8075
3345.00,1.8245
3344.00,1.8415
3343.00,1.8581
3342.00,1.8742
3341.00,1.8896
3340.00,1.9044
3339.00,1.9187
3338.00,1.9327
3337.00,1.9466
3336.00,1.9602
3335.00,1.9733
3334.00,1.9857
3333.00,1.9976
3332.00,2.0086
3331.00,2.0189
3330.00,2.0285
3329.00,2.0379
3328.00,2.0473
3327.00,2.0566
3326.00,2.0653
3325.00,2.0732
3324.00,2.0804
3323.00,2.0871
3322.00,2.0938
3321.00,2.1007
3320.00,2.1073
3319.00,2.1131
3318.00,2.1176
3317.00,2.1210
3316.00,2.1241
3315.00,2.1273
3314.00,2.1303
3313.00,2.1327
3312.00,2.1342
3311.00,2.1350
3310.00,2.1357
3309.00,2.1364
3308.00,2.1367
3307.00,2.1364
3306.00,2.1357
3305.00,2.1351
3304.00,2.1346
3303.00,2.1334
3302.00,2.1312
3301.00,2.1278
3300.00,2.1237
3299.00,2.1195
3298.00,2.1154
3297.00,2.1109
3296.00,2.1058
3295.00,2.0999
3294.00,2.0934
3293.00,2.0867
3292.00,2.0798
3291.00,2.0725
3290.00,2.0646
3289.00,2.0560
3288.00,2.0468
3287.00,2.0372
3286.00,2.0274
3285.00,2.0177
3284.00,2.0075
3283.00,1.9963
3282.00,1.9842
3281.00,1.9716
3280.00,1.9587
3279.00,1.9456
3278.00,1.9319
3277.00,1.9177
3276.00,1.9029
3275.00,1.8874
3274.00,1.8715
3273.00,1.8551
3272.00,1.8387
3271.00,1.8221
3270.00,1.8054
3269.00,1.7883
3268.00,1.7711
3267.00,1.7537
3266.00,1.7363
3265.00,1.7188
3264.00,1.7014
3263.00,1.6841
3262.00,1.6672
3261.00,1.6506
3260.00,1.6346
3259.00,1.6190
3258.00,1.6038
3257.00,1.5891
3256.00,1.5752
3255.00,1.5621
3254.00,1.5499
3253.00,1.5388
3252.00,1.5289
3251.00,1.5203
3250.00,1.5132
3249.00,1.5076
3248.00,1.5032
3247.00,1.5000
3246.00,1.4978
3245.00,1.4972
3244.00,1.4981
3243.00,1.5008
3242.00,1.5048
3241.00,1.5100
3240.00,1.5164
3239.00,1.5239
3238.00,1.5327
3237.00,1.5427
3236.00,1.5539
3235.00,1.5661
3234.00,1.5793
3233.00,1.5934
3232.00,1.6084
3231.00,1.6241
3230.00,1.6402
3229.00,1.6567
3228.00,1.6735
3227.00,1.6908
3226.00,1.7085
3225.00,1.7266
3224.00,1.7450
3223.00,1.7634
3222.00,1.7817
3221.00,1.7997
3220.00,1.8176
3219.00,1.8353
3218.00,1.8528
3217.00,1.8700
3216.00,1.8866
3215.00,1.9029
3214.00,1.9189
3213.00,1.9346
3212.00,1.9498
3211.00,1.9643
3210.00,1.9785
3209.00,1.9929
3208.00,2.0073
3207.00,2.0213
3206.00,2.0345
3205.00,2.0467
3204.00,2.0583
3203.00,2.0695
3202.00,2.0805
3201.00,2.0912
3200.00,2.1012
3199.00,2.1104
3198.00,2.1187
3197.00,2.1265
3196.00,2.1339
3195.00,2.1410
3194.00,2.1481
3193.00,2.1549
3192.00,2.1613
3191.00,2.1672
3190.00,2.1723
3189.00,2.1766
3188.00,2.1801
3187.00,2.1831
3186.00,2.1857
3185.00,2.1883
3184.00,2.1908
3183.00,2.1929
3182.00,2.1945
3181.00,2.1961
3180.00,2.1975
3179.00,2.1984
3178.00,2.1987
3177.00,2.1985
3176.00,2.1982
3175.00,2.1980
3174.00,2.1973
3173.00,2.1957
3172.00,2.1934
3171.00,2.1906
3170.00,2.1879
3169.00,2.1852
3168.00,2.1823
3167.00,2.1786
3166.00,2.1739
3165.00,2.1687
3164.00,2.1633
3163.00,2.1579
3162.00,2.1521
3161.00,2.1452
3160.00,2.1371
3159.00,2.1279
3158.00,2.1179
3157.00,2.1078
3156.00,2.0978
3155.00,2.0881
3154.00,2.0782
3153.00,2.0675
3152.00,2.0555
3151.00,2.0425
3150.00,2.0289
3149.00,2.0154
3148.00,2.0018
3147.00,1.9877
3146.00,1.9730
3145.00,1.9577
3144.00,1.9417
3143.00,1.9252
3142.00,1.9081
3141.00,1.8905
3140.00,1.8728
3139.00,1.8551
3138.00,1.8371
3137.00,1.8187
3136.00,1.7998
3135.00,1.7806
3134.00,1.7615
3133.00,1.7426
3132.00,1.7241
3131.00,1.7058
3130.00,1.6881
3129.00,1.6710
3128.00,1.6547
3127.00,1.6393
3126.00,1.6247
3125.00,1.6110
3124.00,1.5986
3123.00,1.5875
3122.00,1.5778
3121.00,1.5694
3120.00,1.5624
3119.00,1.5568
3118.00,1.5529
3117.00,1.5508
3116.00,1.5506
3115.00,1.5522
3114.00,1.5556
3113.00,1.5606
3112.00,1.5673
3111.00,1.5758
3110.00,1.5859
3109.00,1.5975
3108.00,1.6103
3107.00,1.6243
3106.00,1.6394
3105.00,1.6553
3104.00,1.6719
3103.00,1.6892
3102.00,1.7072
3101.00,1.7258
3100.00,1.7450
3099.00,1.7647
3098.00,1.7849
3097.00,1.8055
3096.00,1.8263
3095.00,1.8468
3094.00,1.8670
3093.00,1.8870
3092.00,1.9069
3091.00,1.9266
3090.00,1.9461
3089.00,1.9651
3088.00,1.9836
3087.00,2.0016
3086.00,2.0190
3085.00,2.0361
3084.00,2.0527
3083.00,2.0686
3082.00,2.0838
3081.00,2.0983
3080.00,2.1122
3079.00,2.1257
3078.00,2.1388
3077.00,2.1514
3076.00,2.1632
3075.00,2.1738
3074.00,2.1836
3073.00,2.1934
3072.00,2.2034
3071.00,2.2136
3070.00,2.2231
3069.00,2.2313
3068.00,2.2382
3067.00,2.2444
3066.00,2.2507
3065.00,2.2571
3064.00,2.2629
3063.00,2.2673
3062.00,2.2703
3061.00,2.2725
3060.00,2.2744
3059.00,2.2761
3058.00,2.2772
3057.00,2.2776
3056.00,2.2772
3055.00,2.2766
3054.00,2.2757
3053.00,2.2745
3052.00,2.2727
3051.00,2.2700
3050.00,2.2664
3049.00,2.2621
3048.00,2.2571
3047.00,2.2515
3046.00,2.2452
3045.00,2.2382
3044.00,2.2305
3043.00,2.2221
3042.00,2.2132
3041.00,2.2039
3040.00,2.1935
3039.00,2.1817
3038.00,2.1684
3037.00,2.1542
3036.00,2.1398
3035.00,2.1251
3034.00,2.1101
3033.00,2.0947
3032.00,2.0784
3031.00,2.0611
3030.00,2.0427
3029.00,2.0234
3028.00,2.0034
3027.00,1.9828
3026.00,1.9617
3025.00,1.9401
3024.00,1.9182
3023.00,1.8963
3022.00,1.8746
3021.00,1.8530
3020.00,1.8319
3019.00,1.8113
3018.00,1.7916
3017.00,1.7733
3016.00,1.7567
3015.00,1.7422
3014.00,1.7301
3013.00,1.7206
3012.00,1.7143
3011.00,1.7114
3010.00,1.7121
3009.00,1.7165
3008.00,1.7247
3007.00,1.7365
3006.00,1.7518
3005.00,1.7706
3004.00,1.7928
3003.00,1.8179
3002.00,1.8457
3001.00,1.8759
3000.00,1.9080
2999.00,1.9416
2998.00,1.9760
2997.00,2.0110
2996.00,2.0464
2995.00,2.0822
2994.00,2.1181
2993.00,2.1540
2992.00,2.1894
2991.00,2.2239
2990.00,2.2572
2989.00,2.2893
2988.00,2.3201
2987.00,2.3495
2986.00,2.3774
2985.00,2.4043
2984.00,2.4310
2983.00,2.4581
2982.00,2.4852
2981.00,2.5120
2980.00,2.5387
2979.00,2.5662
2978.00,2.5952
2977.00,2.6259
2976.00,2.6585
2975.00,2.6938
2974.00,2.7335
2973.00,2.7786
2972.00,2.8289
2971.00,2.8844
2970.00,2.9464
2969.00,3.0161
2968.00,3.0926
2967.00,3.1719
2966.00,3.2506
2965.00,3.3296
2964.00,3.4128
2963.00,3.5027
2962.00,3.5965
2961.00,3.6864
2960.00,3.7624
2959.00,3.8148
2958.00,3.8402
2957.00,3.8500
2956.00,3.8685
2955.00,3.9160
2954.00,3.9966
2953.00,4.0995
2952.00,4.2108
2951.00,4.3017
2950.00,4.2992
2949.00,4.1957
2948.00,4.0972
2947.00,4.0803
2946.00,4.1900
2945.00,4.4199
2944.00,4.5071
2943.00,4.3995
2942.00,4.3083
2941.00,4.3141
2940.00,4.3386
2939.00,4.3870
2938.00,4.6069
2937.00,5.0350
2936.00,5.2751
2935.00,5.4454
2934.00,5.2056
2933.00,5.3366
2932.00,5.1071
2931.00,4.7457
2930.00,4.4758
2929.00,4.2968
2928.00,4.2405
2927.00,4.2100
2926.00,4.1792
2925.00,4.1473
2924.00,4.1123
2923.00,4.0826
2922.00,4.0459
2921.00,3.9972
2920.00,3.9352
2919.00,3.8516
2918.00,3.7481
2917.00,3.6399
2916.00,3.5432
2915.00,3.4621
2914.00,3.3919
2913.00,3.3265
2912.00,3.2641
2911.00,3.2083
2910.00,3.1630
2909.00,3.1270
2908.00,3.0972
2907.00,3.0715
2906.00,3.0491
2905.00,3.0277
2904.00,3.0040
2903.00,2.9765
2902.00,2.9479
2901.00,2.9216
2900.00,2.8994
2899.00,2.8810
2898.00,2.8662
2897.00,2.8540
2896.00,2.8431
2895.00,2.8322
2894.00,2.8219
2893.00,2.8138
2892.00,2.8083
2891.00,2.8044
2890.00,2.8017
2889.00,2.8016
2888.00,2.8062
2887.00,2.8155
2886.00,2.8273
2885.00,2.8396
2884.00,2.8523
2883.00,2.8674
2882.00,2.8868
2881.00,2.9102
2880.00,2.9363
2879.00,2.9636
2878.00,2.9917
2877.00,3.0213
2876.00,3.0537
2875.00,3.0911
2874.00,3.1356
2873.00,3.1876
2872.00,3.2467
2871.00,3.3125
2870.00,3.3833
2869.00,3.4547
2868.00,3.5228
2867.00,3.5922
2866.00,3.6732
2865.00,3.7626
2864.00,3.8320
2863.00,3.8530
2862.00,3.8327
2861.00,3.7897
2860.00,3.7245
2859.00,3.6367
2858.00,3.5388
2857.00,3.4426
2856.00,3.3496
2855.00,3.2567
2854.00,3.1626
2853.00,3.0677
2852.00,2.9740
2851.00,2.8852
2850.00,2.8062
2849.00,2.7393
2848.00,2.6842
2847.00,2.6392
2846.00,2.6034
2845.00,2.5759
2844.00,2.5556
2843.00,2.5406
2842.00,2.5295
2841.00,2.5216
2840.00,2.5162
2839.00,2.5119
2838.00,2.5075
2837.00,2.5029
2836.00,2.4986
2835.00,2.4945
2834.00,2.4902
2833.00,2.4848
2832.00,2.4780
2831.00,2.4702
2830.00,2.4620
2829.00,2.4536
2828.00,2.4444
2827.00,2.4338
2826.00,2.4216
2825.00,2.4082
2824.00,2.3942
2823.00,2.3794
2822.00,2.3631
2821.00,2.3445
2820.00,2.3237
2819.00,2.3009
2818.00,2.2769
2817.00,2.2516
2816.00,2.2248
2815.00,2.1965
2814.00,2.1667
2813.00,2.1362
2812.00,2.1050
2811.00,2.0730
2810.00,2.0400
2809.00,2.0059
2808.00,1.9706
2807.00,1.9345
2806.00,1.8979
2805.00,1.8612
2804.00,1.8253
2803.00,1.7908
2802.00,1.7585
2801.00,1.7288
2800.00,1.7016
2799.00,1.6770
2798.00,1.6546
2797.00,1.6338
2796.00,1.6144
2795.00,1.5960
2794.00,1.5789
2793.00,1.5636
2792.00,1.5509
2791.00,1.5414
2790.00,1.5358
2789.00,1.5348
2788.00,1.5388
2787.00,1.5476
2786.00,1.5611
2785.00,1.5787
2784.00,1.6000
2783.00,1.6243
2782.00,1.6511
2781.00,1.6798
2780.00,1.7102
2779.00,1.7416
2778.00,1.7738
2777.00,1.8062
2776.00,1.8386
2775.00,1.8704
2774.00,1.9016
2773.00,1.9323
2772.00,1.9626
2771.00,1.9921
2770.00,2.0204
2769.00,2.0473
2768.00,2.0733
2767.00,2.0988
2766.00,2.1235
2765.00,2.1470
2764.00,2.1687
2763.00,2.1889
2762.00,2.2077
2761.00,2.2257
2760.00,2.2426
2759.00,2.2581
2758.00,2.2719
2757.00,2.2847
2756.00,2.2975
2755.00,2.3106
2754.00,2.3237
2753.00,2.3359
2752.00,2.3471
2751.00,2.3575
2750.00,2.3671
2749.00,2.3759
2748.00,2.3836
2747.00,2.3907
2746.00,2.3970
2745.00,2.4022
2744.00,2.4062
2743.00,2.4095
2742.00,2.4126
2741.00,2.4158
2740.00,2.4184
2739.00,2.4202
2738.00,2.4215
2737.00,2.4227
2736.00,2.4239
2735.00,2.4245
2734.00,2.4244
2733.00,2.4230
2732.00,2.4200
2731.00,2.4156
2730.00,2.4107
2729.00,2.4059
2728.00,2.4013
2727.00,2.3963
2726.00,2.3906
2725.00,2.3843
2724.00,2.3774
2723.00,2.3699
2722.00,2.3614
2721.00,2.3519
2720.00,2.3415
2719.00,2.3299
2718.00,2.3172
2717.00,2.3035
2716.00,2.2890
2715.00,2.2739
2714.00,2.2584
2713.00,2.2425
2712.00,2.2259
2711.00,2.2080
2710.00,2.1886
2709.00,2.1681
2708.00,2.1466
2707.00,2.1245
2706.00,2.1018
2705.00,2.0784
2704.00,2.0536
2703.00,2.0272
2702.00,1.9993
2701.00,1.9699
2700.00,1.9393
2699.00,1.9077
2698.00,1.8754
2697.00,1.8425
2696.00,1.8090
2695.00,1.7750
2694.00,1.7408
2693.00,1.7067
2692.00,1.6730
2691.00,1.6401
2690.00,1.6087
2689.00,1.5793
2688.00,1.5527
2687.00,1.5295
2686.00,1.5103
2685.00,1.4957
2684.00,1.4859
2683.00,1.4810
2682.00,1.4808
2681.00,1.4849
2680.00,1.4928
2679.00,1.5034
2678.00,1.5159
2677.00,1.5296
2676.00,1.5437
2675.00,1.5579
2674.00,1.5722
2673.00,1.5869
2672.00,1.6021
2671.00,1.6177
2670.00,1.6332
2669.00,1.6484
2668.00,1.6631
2667.00,1.6778
2666.00,1.6928
2665.00,1.7090
2664.00,1.7270
2663.00,1.7470
2662.00,1.7694
2661.00,1.7940
2660.00,1.8209
2659.00,1.8496
2658.00,1.8796
2657.00,1.9098
2656.00,1.9398
2655.00,1.9690
2654.00,1.9972
2653.00,2.0249
2652.00,2.0519
2651.00,2.0782
2650.00,2.1031
2649.00,2.1266
2648.00,2.1486
2647.00,2.1692
2646.00,2.1885
2645.00,2.2072
2644.00,2.2256
2643.00,2.2436
2642.00,2.2608
2641.00,2.2775
2640.00,2.2943
2639.00,2.3113
2638.00,2.3277
2637.00,2.3424
2636.00,2.3554
2635.00,2.3674
2634.00,2.3796
2633.00,2.3922
2632.00,2.4050
2631.00,2.4170
2630.00,2.4275
2629.00,2.4363
2628.00,2.4436
2627.00,2.4507
2626.00,2.4589
2625.00,2.4685
2624.00,2.4781
2623.00,2.4854
2622.00,2.4898
2621.00,2.4926
2620.00,2.4956
2619.00,2.4990
2618.00,2.5019
2617.00,2.5037
2616.00,2.5048
2615.00,2.5055
2614.00,2.5057
2613.00,2.5057
2612.00,2.5063
2611.00,2.5079
2610.00,2.5096
2609.00,2.5099
2608.00,2.5084
2607.00,2.5057
2606.00,2.5025
2605.00,2.4989
2604.00,2.4950
2603.00,2.4909
2602.00,2.4864
2601.00,2.4807
2600.00,2.4731
2599.00,2.4638
2598.00,2.4542
2597.00,2.4454
2596.00,2.4372
2595.00,2.4287
2594.00,2.4193
2593.00,2.4095
2592.00,2.3997
2591.00,2.3893
2590.00,2.3777
2589.00,2.3645
2588.00,2.3502
2587.00,2.3355
2586.00,2.3204
2585.00,2.3042
2584.00,2.2867
2583.00,2.2680
2582.00,2.2487
2581.00,2.2290
2580.00,2.2087
2579.00,2.1876
2578.00,2.1656
2577.00,2.1425
2576.00,2.1180
2575.00,2.0921
2574.00,2.0651
2573.00,2.0372
2572.00,2.0085
2571.00,1.9785
2570.00,1.9469
2569.00,1.9140
2568.00,1.8798
2567.00,1.8445
2566.00,1.8083
2565.00,1.7712
2564.00,1.7336
2563.00,1.6958
2562.00,1.6578
2561.00,1.6198
2560.00,1.5823
2559.00,1.5459
2558.00,1.5112
2557.00,1.4788
2556.00,1.4492
2555.00,1.4230
2554.00,1.4006
2553.00,1.3826
2552.00,1.3693
2551.00,1.3607
2550.00,1.3572
2549.00,1.3587
2548.00,1.3652
2547.00,1.3765
2546.00,1.3921
2545.00,1.4118
2544.00,1.4349
2543.00,1.4611
2542.00,1.4899
2541.00,1.5210
2540.00,1.5538
2539.00,1.5880
2538.00,1.6233
2537.00,1.6594
2536.00,1.6961
2535.00,1.7332
2534.00,1.7703
2533.00,1.8074
2532.00,1.8442
2531.00,1.8804
2530.00,1.9159
2529.00,1.9508
2528.00,1.9847
2527.00,2.0172
2526.00,2.0481
2525.00,2.0776
2524.00,2.1060
2523.00,2.1336
2522.00,2.1603
2521.00,2.1861
2520.00,2.2106
2519.00,2.2340
2518.00,2.2562
2517.00,2.2775
2516.00,2.2980
2515.00,2.3178
2514.00,2.3368
2513.00,2.3549
2512.00,2.3715
2511.00,2.3868
2510.00,2.4015
2509.00,2.4160
2508.00,2.4302
2507.00,2.4435
2506.00,2.4560
2505.00,2.4681
2504.00,2.4800
2503.00,2.4912
2502.00,2.5010
2501.00,2.5089
2500.00,2.5155
2499.00,2.5221
2498.00,2.5298
2497.00,2.5383
2496.00,2.5466
2495.00,2.5538
2494.00,2.5600
2493.00,2.5655
2492.00,2.5701
2491.00,2.5740
2490.00,2.5775
2489.00,2.5807
2488.00,2.5836
2487.00,2.5854
2486.00,2.5860
2485.00,2.5863
2484.00,2.5871
2483.00,2.5889
2482.00,2.5909
2481.00,2.5912
2480.00,2.5888
2479.00,2.5845
2478.00,2.5803
2477.00,2.5769
2476.00,2.5735
2475.00,2.5688
2474.00,2.5632
2473.00,2.5574
2472.00,2.5520
2471.00,2.5466
2470.00,2.5410
2469.00,2.5350
2468.00,2.5282
2467.00,2.5202
2466.00,2.5113
2465.00,2.5021
2464.00,2.4922
2463.00,2.4810
2462.00,2.4683
2461.00,2.4550
2460.00,2.4417
2459.00,2.4284
2458.00,2.4147
2457.00,2.4000
2456.00,2.3844
2455.00,2.3677
2454.00,2.3498
2453.00,2.3310
2452.00,2.3110
2451.00,2.2898
2450.00,2.2675
2449.00,2.2441
2448.00,2.2196
2447.00,2.1937
2446.00,2.1662
2445.00,2.1369
2444.00,2.1060
2443.00,2.0736
2442.00,2.0395
2441.00,2.0041
2440.00,1.9671
2439.00,1.9284
2438.00,1.8880
2437.00,1.8462
2436.00,1.8030
2435.00,1.7590
2434.00,1.7145
2433.00,1.6703
2432.00,1.6270
2431.00,1.5852
2430.00,1.5451
2429.00,1.5074
2428.00,1.4724
2427.00,1.4404
2426.00,1.4118
2425.00,1.3871
2424.00,1.3664
2423.00,1.3503
2422.00,1.3392
2421.00,1.3333
2420.00,1.3329
2419.00,1.3378
2418.00,1.3480
2417.00,1.3632
2416.00,1.3832
2415.00,1.4075
2414.00,1.4357
2413.00,1.4673
2412.00,1.5020
2411.00,1.5393
2410.00,1.5788
2409.00,1.6198
2408.00,1.6621
2407.00,1.7052
2406.00,1.7487
2405.00,1.7924
2404.00,1.8360
2403.00,1.8790
2402.00,1.9211
2401.00,1.9622
2400.00,2.0020
2399.00,2.0404
2398.00,2.0773
2397.00,2.1125
2396.00,2.1460
2395.00,2.1774
2394.00,2.2066
2393.00,2.2339
2392.00,2.2593
2391.00,2.2824
2390.00,2.3025
2389.00,2.3194
2388.00,2.3334
2387.00,2.3451
2386.00,2.3553
2385.00,2.3647
2384.00,2.3741
2383.00,2.3847
2382.00,2.3973
2381.00,2.4123
2380.00,2.4294
2379.00,2.4477
2378.00,2.4668
2377.00,2.4868
2376.00,2.5076
2375.00,2.5282
2374.00,2.5471
2373.00,2.5638
2372.00,2.5782
2371.00,2.5908
2370.00,2.6013
2369.00,2.6096
2368.00,2.6177
2367.00,2.6266
2366.00,2.6352
2365.00,2.6431
2364.00,2.6512
2363.00,2.6607
2362.00,2.6720
2361.00,2.6806
2360.00,2.6875
2359.00,2.6823
2358.00,2.6798
2357.00,2.6802
2356.00,2.6796
2355.00,2.6797
2354.00,2.6796
2353.00,2.6795
2352.00,2.6784
2351.00,2.6769
2350.00,2.6742
2349.00,2.6726
2348.00,2.6674
2347.00,2.6789
2346.00,2.6819
2345.00,2.6785
2344.00,2.6761
2343.00,2.6711
2342.00,2.6628
2341.00,2.6512
2340.00,2.6382
2339.00,2.6257
2338.00,2.6119
2337.00,2.5964
2336.00,2.5774
2335.00,2.5591
2334.00,2.5419
2333.00,2.5283
2332.00,2.5163
2331.00,2.5031
2330.00,2.4866
2329.00,2.4656
2328.00,2.4431
2327.00,2.4212
2326.00,2.4013
2325.00,2.3833
2324.00,2.3655
2323.00,2.3478
2322.00,2.3282
2321.00,2.3068
2320.00,2.2812
2319.00,2.2529
2318.00,2.2224
2317.00,2.1926
2316.00,2.1630
2315.00,2.1337
2314.00,2.1030
2313.00,2.0717
2312.00,2.0392
2311.00,2.0061
2310.00,1.9716
2309.00,1.9359
2308.00,1.8984
2307.00,1.8594
2306.00,1.8183
2305.00,1.7762
2304.00,1.7332
2303.00,1.6901
2302.00,1.6470
2301.00,1.6049
2300.00,1.5644
2299.00,1.5265
2298.00,1.4914
2297.00,1.4596
2296.00,1.4315
2295.00,1.4074
2294.00,1.3878
2293.00,1.3729
2292.00,1.3632
2291.00,1.3590
2290.00,1.3605
2289.00,1.3679
2288.00,1.3810
2287.00,1.3996
2286.00,1.4233
2285.00,1.4520
2284.00,1.4851
2283.00,1.5220
2282.00,1.5621
2281.00,1.6048
2280.00,1.6497
2279.00,1.6961
2278.00,1.7435
2277.00,1.7913
2276.00,1.8389
2275.00,1.8858
2274.00,1.9317
2273.00,1.9766
2272.00,2.0202
2271.00,2.0624
2270.00,2.1023
2269.00,2.1400
2268.00,2.1759
2267.00,2.2105
2266.00,2.2439
2265.00,2.2758
2264.00,2.3060
2263.00,2.3345
2262.00,2.3617
2261.00,2.3877
2260.00,2.4124
2259.00,2.4358
2258.00,2.4579
2257.00,2.4788
2256.00,2.4993
2255.00,2.5196
2254.00,2.5392
2253.00,2.5569
2252.00,2.5720
2251.00,2.5849
2250.00,2.5970
2249.00,2.6094
2248.00,2.6224
2247.00,2.6353
2246.00,2.6475
2245.00,2.6589
2244.00,2.6700
2243.00,2.6813
2242.00,2.6928
2241.00,2.7034
2240.00,2.7122
2239.00,2.7189
2238.00,2.7244
2237.00,2.7292
2236.00,2.7334
2235.00,2.7372
2234.00,2.7416
2233.00,2.7473
2232.00,2.7540
2231.00,2.7604
2230.00,2.7655
2229.00,2.7685
2228.00,2.7692
2227.00,2.7689
2226.00,2.7694
2225.00,2.7719
2224.00,2.7760
2223.00,2.7794
2222.00,2.7798
2221.00,2.7768
2220.00,2.7717
2219.00,2.7665
2218.00,2.7619
2217.00,2.7579
2216.00,2.7542
2215.00,2.7510
2214.00,2.7489
2213.00,2.7469
2212.00,2.7429
2211.00,2.7353
2210.00,2.7245
2209.00,2.7126
2208.00,2.7018
2207.00,2.6934
2206.00,2.6874
2205.00,2.6821
2204.00,2.6751
2203.00,2.6647
2202.00,2.6511
2201.00,2.6361
2200.00,2.6216
2199.00,2.6077
2198.00,2.5932
2197.00,2.5768
2196.00,2.5589
2195.00,2.5409
2194.00,2.5236
2193.00,2.5061
2192.00,2.4865
2191.00,2.4641
2190.00,2.4397
2189.00,2.4144
2188.00,2.3886
2187.00,2.3619
2186.00,2.3344
2185.00,2.3059
2184.00,2.2761
2183.00,2.2448
2182.00,2.2120
2181.00,2.1783
2180.00,2.1438
2179.00,2.1081
2178.00,2.0712
2177.00,2.0331
2176.00,1.9938
2175.00,1.9532
2174.00,1.9111
2173.00,1.8672
2172.00,1.8218
2171.00,1.7751
2170.00,1.7279
2169.00,1.6812
2168.00,1.6358
2167.00,1.5927
2166.00,1.5529
2165.00,1.5173
2164.00,1.4868
2163.00,1.4624
2162.00,1.4447
2161.00,1.4343
2160.00,1.4317
2159.00,1.4368
2158.00,1.4495
2157.00,1.4692
2156.00,1.4956
2155.00,1.5276
2154.00,1.5646
2153.00,1.6056
2152.00,1.6499
2151.00,1.6964
2150.00,1.7447
2149.00,1.7942
2148.00,1.8444
2147.00,1.8946
2146.00,1.9441
2145.00,1.9928
2144.00,2.0404
2143.00,2.0866
2142.00,2.1313
2141.00,2.1741
2140.00,2.2145
2139.00,2.2522
2138.00,2.2876
2137.00,2.3216
2136.00,2.3545
2135.00,2.3856
2134.00,2.4141
2133.00,2.4403
2132.00,2.4655
2131.00,2.4903
2130.00,2.5142
2129.00,2.5366
2128.00,2.5575
2127.00,2.5775
2126.00,2.5972
2125.00,2.6164
2124.00,2.6344
2123.00,2.6510
2122.00,2.6668
2121.00,2.6827
2120.00,2.6986
2119.00,2.7130
2118.00,2.7252
2117.00,2.7360
2116.00,2.7470
2115.00,2.7588
2114.00,2.7704
2113.00,2.7810
2112.00,2.7907
2111.00,2.8004
2110.00,2.8100
2109.00,2.8183
2108.00,2.8243
2107.00,2.8288
2106.00,2.8344
2105.00,2.8429
2104.00,2.8525
2103.00,2.8603
2102.00,2.8653
2101.00,2.8688
2100.00,2.8716
2099.00,2.8728
2098.00,2.8722
2097.00,2.8714
2096.00,2.8715
2095.00,2.8719
2094.00,2.8718
2093.00,2.8715
2092.00,2.8712
2091.00,2.8695
2090.00,2.8655
2089.00,2.8602
2088.00,2.8555
2087.00,2.8514
2086.00,2.8464
2085.00,2.8399
2084.00,2.8339
2083.00,2.8304
2082.00,2.8291
2081.00,2.8277
2080.00,2.8234
2079.00,2.8154
2078.00,2.8050
2077.00,2.7944
2076.00,2.7841
2075.00,2.7735
2074.00,2.7620
2073.00,2.7499
2072.00,2.7374
2071.00,2.7244
2070.00,2.7107
2069.00,2.6966
2068.00,2.6821
2067.00,2.6671
2066.00,2.6514
2065.00,2.6354
2064.00,2.6193
2063.00,2.6022
2062.00,2.5833
2061.00,2.5624
2060.00,2.5401
2059.00,2.5166
2058.00,2.4918
2057.00,2.4657
2056.00,2.4380
2055.00,2.4084
2054.00,2.3761
2053.00,2.3410
2052.00,2.3034
2051.00,2.2637
2050.00,2.2219
2049.00,2.1781
2048.00,2.1318
2047.00,2.0828
2046.00,2.0313
2045.00,1.9780
2044.00,1.9242
2043.00,1.8703
2042.00,1.8166
2041.00,1.7638
2040.00,1.7130
2039.00,1.6652
2038.00,1.6212
2037.00,1.5822
2036.00,1.5493
2035.00,1.5232
2034.00,1.5045
2033.00,1.4937
2032.00,1.4910
2031.00,1.4967
2030.00,1.5104
2029.00,1.5320
2028.00,1.5606
2027.00,1.5954
2026.00,1.6353
2025.00,1.6792
2024.00,1.7262
2023.00,1.7754
2022.00,1.8260
2021.00,1.8774
2020.00,1.9292
2019.00,1.9808
2018.00,2.0323
2017.00,2.0833
2016.00,2.1331
2015.00,2.1808
2014.00,2.2259
2013.00,2.2683
2012.00,2.3081
2011.00,2.3459
2010.00,2.3822
2009.00,2.4174
2008.00,2.4513
2007.00,2.4834
2006.00,2.5135
2005.00,2.5423
2004.00,2.5696
2003.00,2.5950
2002.00,2.6183
2001.00,2.6400
2000.00,2.6612
1999.00,2.6815
1998.00,2.7006
1997.00,2.7184
1996.00,2.7355
1995.00,2.7523
1994.00,2.7686
1993.00,2.7845
1992.00,2.8003
1991.00,2.8161
1990.00,2.8314
1989.00,2.8454
1988.00,2.8578
1987.00,2.8690
1986.00,2.8804
1985.00,2.8931
1984.00,2.9068
1983.00,2.9193
1982.00,2.9277
1981.00,2.9312
1980.00,2.9319
1979.00,2.9328
1978.00,2.9352
1977.00,2.9386
1976.00,2.9434
1975.00,2.9511
1974.00,2.9623
1973.00,2.9738
1972.00,2.9800
1971.00,2.9785
1970.00,2.9731
1969.00,2.9696
1968.00,2.9703
1967.00,2.9731
1966.00,2.9746
1965.00,2.9733
1964.00,2.9695
1963.00,2.9645
1962.00,2.9600
1961.00,2.9567
1960.00,2.9536
1959.00,2.9492
1958.00,2.9433
1957.00,2.9367
1956.00,2.9304
1955.00,2.9247
1954.00,2.9192
1953.00,2.9135
1952.00,2.9069
1951.00,2.8994
1950.00,2.8922
1949.00,2.8856
1948.00,2.8773
1947.00,2.8647
1946.00,2.8483
1945.00,2.8311
1944.00,2.8153
1943.00,2.8002
1942.00,2.7845
1941.00,2.7682
1940.00,2.7515
1939.00,2.7336
1938.00,2.7135
1937.00,2.6915
1936.00,2.6684
1935.00,2.6444
1934.00,2.6191
1933.00,2.5925
1932.00,2.5645
1931.00,2.5343
1930.00,2.5018
1929.00,2.4673
1928.00,2.4310
1927.00,2.3927
1926.00,2.3519
1925.00,2.3084
1924.00,2.2622
1923.00,2.2131
1922.00,2.1618
1921.00,2.1089
1920.00,2.0545
1919.00,1.9980
1918.00,1.9399
1917.00,1.8822
1916.00,1.8269
1915.00,1.7755
1914.00,1.7286
1913.00,1.6871
1912.00,1.6518
1911.00,1.6234
1910.00,1.6027
1909.00,1.5907
1908.00,1.5881
1907.00,1.5950
1906.00,1.6112
1905.00,1.6361
1904.00,1.6689
1903.00,1.7086
1902.00,1.7541
1901.00,1.8044
1900.00,1.8582
1899.00,1.9144
1898.00,1.9719
1897.00,2.0301
1896.00,2.0884
1895.00,2.1461
1894.00,2.2023
1893.00,2.2562
1892.00,2.3071
1891.00,2.3549
1890.00,2.3998
1889.00,2.4430
1888.00,2.4846
1887.00,2.5244
1886.00,2.5620
1885.00,2.5970
1884.00,2.6297
1883.00,2.6605
1882.00,2.6894
1881.00,2.7166
1880.00,2.7422
1879.00,2.7664
1878.00,2.7891
1877.00,2.8098
1876.00,2.8284
1875.00,2.8457
1874.00,2.8628
1873.00,2.8800
1872.00,2.8964
1871.00,2.9112
1870.00,2.9246
1869.00,2.9370
1868.00,2.9481
1867.00,2.9575
1866.00,2.9662
1865.00,2.9757
1864.00,2.9868
1863.00,2.9993
1862.00,3.0125
1861.00,3.0256
1860.00,3.0371
1859.00,3.0454
1858.00,3.0496
1857.00,3.0508
1856.00,3.0525
1855.00,3.0572
1854.00,3.0637
1853.00,3.0689
1852.00,3.0712
1851.00,3.0720
1850.00,3.0735
1849.00,3.0762
1848.00,3.0787
1847.00,3.0786
1846.00,3.0746
1845.00,3.0666
1844.00,3.0570
1843.00,3.0493
1842.00,3.0455
1841.00,3.0440
1840.00,3.0402
1839.00,3.0312
1838.00,3.0180
1837.00,3.0037
1836.00,2.9909
1835.00,2.9794
1834.00,2.9672
1833.00,2.9530
1832.00,2.9380
1831.00,2.9232
1830.00,2.9070
1829.00,2.8860
1828.00,2.8603
1827.00,2.8344
1826.00,2.8113
1825.00,2.7904
1824.00,2.7688
1823.00,2.7436
1822.00,2.7127
1821.00,2.6766
1820.00,2.6376
1819.00,2.5986
1818.00,2.5609
1817.00,2.5234
1816.00,2.4851
1815.00,2.4458
1814.00,2.4075
1813.00,2.3724
1812.00,2.3423
1811.00,2.3168
1810.00,2.2948
1809.00,2.2757
1808.00,2.2590
1807.00,2.2439
1806.00,2.2284
1805.00,2.2111
1804.00,2.1920
1803.00,2.1727
1802.00,2.1556
1801.00,2.1427
1800.00,2.1346
1799.00,2.1322
1798.00,2.1385
1797.00,2.1566
1796.00,2.1871
1795.00,2.2271
1794.00,2.2735
1793.00,2.3253
1792.00,2.3817
1791.00,2.4411
1790.00,2.5020
1789.00,2.5639
1788.00,2.6249
1787.00,2.6824
1786.00,2.7355
1785.00,2.7853
1784.00,2.8329
1783.00,2.8786
1782.00,2.9220
1781.00,2.9633
1780.00,3.0017
1779.00,3.0355
1778.00,3.0646
1777.00,3.0904
1776.00,3.1127
1775.00,3.1295
1774.00,3.1394
1773.00,3.1444
1772.00,3.1487
1771.00,3.1567
1770.00,3.1742
1769.00,3.2039
1768.00,3.2399
1767.00,3.2713
1766.00,3.2899
1765.00,3.2954
1764.00,3.2928
1763.00,3.2876
1762.00,3.2834
1761.00,3.2808
1760.00,3.2782
1759.00,3.2715
1758.00,3.2572
1757.00,3.2377
1756.00,3.2203
1755.00,3.2122
1754.00,3.2163
1753.00,3.2312
1752.00,3.2528
1751.00,3.2774
1750.00,3.3028
1749.00,3.3282
1748.00,3.3548
1747.00,3.3867
1746.00,3.4296
1745.00,3.4873
1744.00,3.5581
1743.00,3.6347
1742.00,3.7127
1741.00,3.8008
1740.00,3.9138
1739.00,4.0460
1738.00,4.1691
1737.00,4.2776
1736.00,4.3654
1735.00,4.4358
1734.00,4.5043
1733.00,4.4717
1732.00,4.3879
1731.00,4.3849
1730.00,4.4600
1729.00,4.5707
1728.00,4.6123
1727.00,4.5379
1726.00,4.4632
1725.00,4.4403
1724.00,4.4588
1723.00,4.5121
1722.00,4.5975
1721.00,4.7614
1720.00,4.9915
1719.00,4.8509
1718.00,4.7199
1717.00,4.9427
1716.00,4.9404
1715.00,4.5699
1714.00,4.3994
1713.00,4.3062
1712.00,4.2558
1711.00,4.2650
1710.00,4.3469
1709.00,4.5469
1708.00,4.9013
1707.00,4.9054
1706.00,4.7236
1705.00,4.7181
1704.00,4.8051
1703.00,5.0984
1702.00,4.8550
1701.00,4.5294
1700.00,4.4878
1699.00,4.5992
1698.00,4.8609
1697.00,4.9434
1696.00,4.7164
1695.00,4.7019
1694.00,4.8925
1693.00,5.0128
1692.00,4.6997
1691.00,4.3179
1690.00,4.0482
1689.00,3.8810
1688.00,3.7913
1687.00,3.7522
1686.00,3.7315
1685.00,3.6964
1684.00,3.6329
1683.00,3.5573
1682.00,3.4999
1681.00,3.4693
1680.00,3.4497
1679.00,3.4293
1678.00,3.4037
1677.00,3.3690
1676.00,3.3227
1675.00,3.2667
1674.00,3.2062
1673.00,3.1454
1672.00,3.0841
1671.00,3.0197
1670.00,2.9529
1669.00,2.8904
1668.00,2.8414
1667.00,2.8113
1666.00,2.7965
1665.00,2.7902
1664.00,2.7892
1663.00,2.7944
1662.00,2.8079
1661.00,2.8323
1660.00,2.8690
1659.00,2.9151
1658.00,2.9640
1657.00,3.0091
1656.00,3.0472
1655.00,3.0788
1654.00,3.1032
1653.00,3.1153
1652.00,3.1135
1651.00,3.1199
1650.00,3.1474
1649.00,3.1800
1648.00,3.2055
1647.00,3.2188
1646.00,3.2199
1645.00,3.2201
1644.00,3.2318
1643.00,3.2546
1642.00,3.2781
1641.00,3.2931
1640.00,3.2983
1639.00,3.3010
1638.00,3.3054
1637.00,3.3061
1636.00,3.2964
1635.00,3.2811
1634.00,3.2749
1633.00,3.2814
1632.00,3.2873
1631.00,3.2856
1630.00,3.2797
1629.00,3.2716
1628.00,3.2598
1627.00,3.2462
1626.00,3.2363
1625.00,3.2293
1624.00,3.2166
1623.00,3.1936
1622.00,3.1681
1621.00,3.1518
1620.00,3.1451
1619.00,3.1376
1618.00,3.1183
1617.00,3.0848
1616.00,3.0447
1615.00,3.0114
1614.00,2.9917
1613.00,2.9783
1612.00,2.9603
1611.00,2.9344
1610.00,2.9023
1609.00,2.8659
1608.00,2.8261
1607.00,2.7849
1606.00,2.7440
1605.00,2.7026
1604.00,2.6583
1603.00,2.6100
1602.00,2.5579
1601.00,2.5028
1600.00,2.4459
1599.00,2.3884
1598.00,2.3320
1597.00,2.2771
1596.00,2.2245
1595.00,2.1757
1594.00,2.1328
1593.00,2.0979
1592.00,2.0720
1591.00,2.0551
1590.00,2.0470
1589.00,2.0471
1588.00,2.0547
1587.00,2.0696
1586.00,2.0923
1585.00,2.1233
1584.00,2.1626
1583.00,2.2095
1582.00,2.2625
1581.00,2.3186
1580.00,2.3747
1579.00,2.4291
1578.00,2.4811
1577.00,2.5297
1576.00,2.5739
1575.00,2.6158
1574.00,2.6617
1573.00,2.7133
1572.00,2.7636
1571.00,2.8076
1570.00,2.8458
1569.00,2.8793
1568.00,2.9109
1567.00,2.9445
1566.00,2.9794
1565.00,3.0104
1564.00,3.0328
1563.00,3.0479
1562.00,3.0618
1561.00,3.0785
1560.00,3.0943
1559.00,3.1033
1558.00,3.1005
1557.00,3.1068
1556.00,3.1388
1555.00,3.1761
1554.00,3.2059
1553.00,3.2300
1552.00,3.2505
1551.00,3.2701
1550.00,3.2894
1549.00,3.3066
1548.00,3.3176
1547.00,3.3226
1546.00,3.3266
1545.00,3.3310
1544.00,3.3300
1543.00,3.3188
1542.00,3.3037
1541.00,3.2944
1540.00,3.2904
1539.00,3.2832
1538.00,3.2793
1537.00,3.2896
1536.00,3.3075
1535.00,3.3210
1534.00,3.3206
1533.00,3.3034
1532.00,3.2797
1531.00,3.2661
1530.00,3.2685
1529.00,3.2818
1528.00,3.2971
1527.00,3.3064
1526.00,3.3066
1525.00,3.2981
1524.00,3.2800
1523.00,3.2541
1522.00,3.2276
1521.00,3.2088
1520.00,3.1996
1519.00,3.1926
1518.00,3.1779
1517.00,3.1546
1516.00,3.1300
1515.00,3.1106
1514.00,3.0970
1513.00,3.0852
1512.00,3.0711
1511.00,3.0532
1510.00,3.0311
1509.00,3.0046
1508.00,2.9703
1507.00,2.9227
1506.00,2.8608
1505.00,2.8030
1504.00,2.7654
1503.00,2.7401
1502.00,2.7147
1501.00,2.6832
1500.00,2.6428
1499.00,2.5941
1498.00,2.5382
1497.00,2.4764
1496.00,2.4125
1495.00,2.3534
1494.00,2.3039
1493.00,2.2633
1492.00,2.2288
1491.00,2.2000
1490.00,2.1794
1489.00,2.1702
1488.00,2.1745
1487.00,2.1925
1486.00,2.2234
1485.00,2.2670
1484.00,2.3219
1483.00,2.3853
1482.00,2.4542
1481.00,2.5260
1480.00,2.5975
1479.00,2.6671
1478.00,2.7361
1477.00,2.8066
1476.00,2.8764
1475.00,2.9392
1474.00,2.9924
1473.00,3.0425
1472.00,3.1002
1471.00,3.1704
1470.00,3.2469
1469.00,3.3165
1468.00,3.3702
1467.00,3.4082
1466.00,3.4355
1465.00,3.4564
1464.00,3.4727
1463.00,3.4894
1462.00,3.5116
1461.00,3.5363
1460.00,3.5570
1459.00,3.5732
1458.00,3.5974
1457.00,3.6507
1456.00,3.7457
1455.00,3.8763
1454.00,4.0367
1453.00,4.2499
1452.00,4.5321
1451.00,4.7033
1450.00,4.4849
1449.00,4.2068
1448.00,4.0274
1447.00,3.9094
1446.00,3.8075
1445.00,3.7035
1444.00,3.6051
1443.00,3.5311
1442.00,3.4906
1441.00,3.4794
1440.00,3.4876
1439.00,3.5090
1438.00,3.5444
1437.00,3.5964
1436.00,3.6575
1435.00,3.7132
1434.00,3.7614
1433.00,3.8103
1432.00,3.8607
1431.00,3.9041
1430.00,3.9320
1429.00,3.9362
1428.00,3.9142
1427.00,3.8862
1426.00,3.8740
1425.00,3.8728
1424.00,3.8705
1423.00,3.8765
1422.00,3.9039
1421.00,3.9327
1420.00,3.9115
1419.00,3.8384
1418.00,3.7686
1417.00,3.7284
1416.00,3.7057
1415.00,3.6757
1414.00,3.6243
1413.00,3.5643
1412.00,3.5209
1411.00,3.5060
1410.00,3.5149
1409.00,3.5331
1408.00,3.5465
1407.00,3.5530
1406.00,3.5636
1405.00,3.5879
1404.00,3.6186
1403.00,3.6328
1402.00,3.6202
1401.00,3.5990
1400.00,3.5869
1399.00,3.5829
1398.00,3.5772
1397.00,3.5661
1396.00,3.5572
1395.00,3.5594
1394.00,3.5675
1393.00,3.5634
1392.00,3.5396
1391.00,3.5105
1390.00,3.4940
1389.00,3.4941
1388.00,3.5000
1387.00,3.4985
1386.00,3.4895
1385.00,3.4806
1384.00,3.4717
1383.00,3.4550
1382.00,3.4289
1381.00,3.4022
1380.00,3.3829
1379.00,3.3700
1378.00,3.3573
1377.00,3.3410
1376.00,3.3206
1375.00,3.2966
1374.00,3.2708
1373.00,3.2464
1372.00,3.2232
1371.00,3.1963
1370.00,3.1611
1369.00,3.1195
1368.00,3.0779
1367.00,3.0404
1366.00,3.0068
1365.00,2.9759
1364.00,2.9480
1363.00,2.9244
1362.00,2.9046
1361.00,2.8874
1360.00,2.8731
1359.00,2.8645
1358.00,2.8662
1357.00,2.8826
1356.00,2.9171
1355.00,2.9722
1354.00,3.0484
1353.00,3.1416
1352.00,3.2430
1351.00,3.3436
1350.00,3.4396
1349.00,3.5317
1348.00,3.6107
1347.00,3.6517
1346.00,3.6441
1345.00,3.6107
1344.00,3.5797
1343.00,3.5680
1342.00,3.5843
1341.00,3.6326
1340.00,3.7061
1339.00,3.7727
1338.00,3.7709
1337.00,3.6692
1336.00,3.5158
1335.00,3.3720
1334.00,3.2637
1333.00,3.1931
1332.00,3.1543
1331.00,3.1405
1330.00,3.1478
1329.00,3.1749
1328.00,3.2202
1327.00,3.2793
1326.00,3.3455
1325.00,3.4130
1324.00,3.4763
1323.00,3.5287
1322.00,3.5673
1321.00,3.6024
1320.00,3.6571
1319.00,3.7564
1318.00,3.9131
1317.00,4.1019
1316.00,4.1920
1315.00,4.1087
1314.00,4.0217
1313.00,4.0150
1312.00,4.0751
1311.00,4.1350
1310.00,4.1214
1309.00,4.0547
1308.00,3.9765
1307.00,3.8623
1306.00,3.7105
1305.00,3.5655
1304.00,3.4517
1303.00,3.3728
1302.00,3.3256
1301.00,3.3035
1300.00,3.3003
1299.00,3.3109
1298.00,3.3315
1297.00,3.3599
1296.00,3.3943
1295.00,3.4298
1294.00,3.4605
1293.00,3.4844
1292.00,3.5053
1291.00,3.5279
1290.00,3.5492
1289.00,3.5650
1288.00,3.5792
1287.00,3.5975
1286.00,3.6230
1285.00,3.6552
1284.00,3.6916
1283.00,3.7322
1282.00,3.7745
1281.00,3.8030
1280.00,3.7958
1279.00,3.7535
1278.00,3.7051
1277.00,3.6770
1276.00,3.6790
1275.00,3.7062
1274.00,3.7450
1273.00,3.7755
1272.00,3.7810
1271.00,3.7678
1270.00,3.7659
1269.00,3.8005
1268.00,3.8665
1267.00,3.9218
1266.00,3.9203
1265.00,3.8743
1264.00,3.8277
1263.00,3.7976
1262.00,3.7783
1261.00,3.7645
1260.00,3.7556
1259.00,3.7471
1258.00,3.7369
1257.00,3.7335
1256.00,3.7421
1255.00,3.7517
1254.00,3.7474
1253.00,3.7301
1252.00,3.7155
1251.00,3.7140
1250.00,3.7205
1249.00,3.7163
1248.00,3.6891
1247.00,3.6516
1246.00,3.6264
1245.00,3.6200
1244.00,3.6179
1243.00,3.5990
1242.00,3.5636
1241.00,3.5351
1240.00,3.5355
1239.00,3.5651
1238.00,3.5984
1237.00,3.6139
1236.00,3.6257
1235.00,3.6561
1234.00,3.7102
1233.00,3.7786
1232.00,3.8471
1231.00,3.9216
1230.00,4.0393
1229.00,4.2664
1228.00,4.4925
1227.00,4.3010
1226.00,4.2035
1225.00,4.2762
1224.00,4.4371
1223.00,4.6633
1222.00,5.2178
1221.00,4.5806
1220.00,4.2787
1219.00,4.1507
1218.00,4.1131
1217.00,4.1213
1216.00,4.0928
1215.00,4.0245
1214.00,3.9484
1213.00,3.8697
1212.00,3.8009
1211.00,3.7531
1210.00,3.7228
1209.00,3.7007
1208.00,3.6774
1207.00,3.6451
1206.00,3.6005
1205.00,3.5505
1204.00,3.5114
1203.00,3.4899
1202.00,3.4714
1201.00,3.4371
1200.00,3.3885
1199.00,3.3413
1198.00,3.3063
1197.00,3.2840
1196.00,3.2699
1195.00,3.2595
1194.00,3.2516
1193.00,3.2469
1192.00,3.2457
1191.00,3.2457
1190.00,3.2438
1189.00,3.2405
1188.00,3.2439
1187.00,3.2654
1186.00,3.3095
1185.00,3.3661
1184.00,3.4169
1183.00,3.4550
1182.00,3.4881
1181.00,3.5234
1180.00,3.5566
1179.00,3.5765
1178.00,3.5758
1177.00,3.5604
1176.00,3.5459
1175.00,3.5477
1174.00,3.5746
1173.00,3.6203
1172.00,3.6565
1171.00,3.6578
1170.00,3.6389
1169.00,3.6278
1168.00,3.6337
1167.00,3.6504
1166.00,3.6725
1165.00,3.7127
1164.00,3.7919
1163.00,3.8884
1162.00,3.9275
1161.00,3.8946
1160.00,3.8255
1159.00,3.7935
1158.00,3.8308
1157.00,3.9042
1156.00,3.9814
1155.00,4.0722
1154.00,4.1816
1153.00,4.2652
1152.00,4.2020
1151.00,4.0174
1150.00,3.8749
1149.00,3.8203
1148.00,3.8482
1147.00,3.9370
1146.00,4.0414
1145.00,4.1017
1144.00,4.1103
1143.00,4.1207
1142.00,4.1768
1141.00,4.2964
1140.00,4.4226
1139.00,4.4420
1138.00,4.4691
1137.00,4.4937
1136.00,4.3915
1135.00,4.2527
1134.00,4.1928
1133.00,4.2385
1132.00,4.3555
1131.00,4.4677
1130.00,4.5375
1129.00,4.4612
1128.00,4.2659
1127.00,4.1517
1126.00,4.1801
1125.00,4.3549
1124.00,4.3448
1123.00,4.2387
1122.00,4.3318
1121.00,4.5077
1120.00,4.3337
1119.00,4.1921
1118.00,4.2001
1117.00,4.3657
1116.00,4.6717
1115.00,4.8604
1114.00,4.8004
1113.00,4.6751
1112.00,4.5975
1111.00,4.6523
1110.00,4.5502
1109.00,4.3241
1108.00,4.2759
1107.00,4.3123
1106.00,4.2470
1105.00,4.0383
1104.00,3.8608
1103.00,3.7816
1102.00,3.8003
1101.00,3.9111
1100.00,4.1139
1099.00,4.3773
1098.00,4.4880
1097.00,4.2899
1096.00,4.0563
1095.00,3.9250
1094.00,3.8849
1093.00,3.8867
1092.00,3.8660
1091.00,3.8061
1090.00,3.7535
1089.00,3.7400
1088.00,3.7557
1087.00,3.7652
1086.00,3.7348
1085.00,3.6810
1084.00,3.6433
1083.00,3.6335
1082.00,3.6548
1081.00,3.7113
1080.00,3.7878
1079.00,3.8411
1078.00,3.8266
1077.00,3.7503
1076.00,3.6800
1075.00,3.6569
1074.00,3.6635
1073.00,3.6616
1072.00,3.6410
1071.00,3.6079
1070.00,3.5665
1069.00,3.5224
1068.00,3.4884
1067.00,3.4835
1066.00,3.5205
1065.00,3.5925
1064.00,3.6599
1063.00,3.6864
1062.00,3.6966
1061.00,3.7091
1060.00,3.7087
1059.00,3.6916
1058.00,3.6706
1057.00,3.6544
1056.00,3.6426
1055.00,3.6445
1054.00,3.6864
1053.00,3.7788
1052.00,3.8894
1051.00,3.9546
1050.00,3.8842
1049.00,3.7397
1048.00,3.6231
1047.00,3.5429
1046.00,3.4972
1045.00,3.4945
1044.00,3.5441
1043.00,3.6402
1042.00,3.7463
1041.00,3.8094
1040.00,3.8328
1039.00,3.8704
1038.00,3.9271
1037.00,3.9320
1036.00,3.8720
1035.00,3.8100
1034.00,3.7970
1033.00,3.8585
1032.00,3.9806
1031.00,4.0707
1030.00,4.0564
1029.00,4.0529
1028.00,4.1554
1027.00,4.4469
1026.00,4.8706
1025.00,4.3882
1024.00,4.1664
1023.00,4.0543
1022.00,4.0215
1021.00,4.0753
1020.00,4.2240
1019.00,4.4397
1018.00,4.5928
1017.00,4.5972
1016.00,4.5058
1015.00,4.4455
1014.00,4.4235
1013.00,4.4424
1012.00,4.5435
1011.00,4.6537
1010.00,4.5724
1009.00,4.3505
1008.00,4.1551
1007.00,4.0753
1006.00,4.1295
1005.00,4.2986
1004.00,4.4703
1003.00,4.5119
1002.00,4.4860
1001.00,4.4324
1000.00,4.3044
999.00,4.1886
998.00,4.1458
997.00,4.1640
996.00,4.2175
995.00,4.3063
994.00,4.4335
993.00,4.3499
992.00,4.1191
991.00,3.9959
990.00,3.9649
989.00,3.9745
988.00,3.9845
987.00,4.0092
986.00,4.1191
985.00,4.4357
984.00,4.8116
983.00,4.6647
982.00,5.3407
981.00,4.4703
980.00,4.2096
979.00,4.1219
978.00,4.1819
977.00,4.4189
976.00,4.3159
975.00,4.0671
974.00,3.9823
973.00,4.0188
972.00,4.1544
971.00,4.3512
970.00,4.5405
969.00,4.6608
968.00,4.7253
967.00,4.8864
966.00,5.2396
965.00,4.8697
964.00,4.5273
963.00,4.2892
962.00,4.1619
961.00,4.1923
960.00,4.3537
959.00,4.3168
958.00,4.1915
957.00,4.1821
956.00,4.2249
955.00,4.1904
954.00,4.0721
953.00,4.0034
952.00,4.0653
951.00,4.3065
950.00,4.4981
949.00,4.4676
948.00,4.7866
947.00,5.2450
946.00,4.7385
945.00,4.5686
944.00,4.4678
943.00,4.3382
942.00,4.1739
941.00,4.0663
940.00,4.0491
939.00,4.0985
938.00,4.1935
937.00,4.3512
936.00,4.5431
935.00,4.5611
934.00,4.2511
933.00,4.0320
932.00,3.9782
931.00,4.0822
930.00,4.2982
929.00,4.3820
928.00,4.3979
927.00,4.4324
926.00,4.4645
925.00,4.5381
924.00,4.5636
923.00,4.5115
922.00,4.5723
921.00,4.6977
920.00,4.4817
919.00,4.3723
918.00,4.3521
917.00,4.3104
916.00,4.2450
915.00,4.1829
914.00,4.1359
913.00,4.1258
912.00,4.1429
911.00,4.1233
910.00,4.0552
909.00,4.0008
908.00,3.9947
907.00,4.0284
906.00,4.0847
905.00,4.1564
904.00,4.2331
903.00,4.2657
902.00,4.2236
901.00,4.2497
900.00,4.5750
899.00,4.7563
898.00,4.1047
897.00,3.9069
896.00,3.8589
895.00,3.9204
894.00,4.0746
893.00,4.1259
892.00,4.0624
891.00,4.0624
890.00,4.1210
889.00,4.2121
888.00,4.2928
887.00,4.2242
886.00,4.1342
885.00,4.1905
884.00,4.4291
883.00,4.4146
882.00,4.2468
881.00,4.3005
880.00,4.4892
879.00,4.4918
878.00,4.5248
877.00,4.6576
876.00,4.5054
875.00,4.4018
874.00,4.3524
873.00,4.2112
872.00,4.1106
871.00,4.1247
870.00,4.1848
869.00,4.0609
868.00,3.8753
867.00,3.7886
866.00,3.7939
865.00,3.8552
864.00,3.9559
863.00,4.0657
862.00,4.0408
861.00,3.9467
860.00,3.9257
859.00,3.9854
858.00,4.0913
857.00,4.1461
856.00,4.0542
855.00,3.9434
854.00,3.9253
853.00,4.0113
852.00,4.0768
851.00,4.0477
850.00,4.0948
849.00,4.3435
848.00,4.6223
847.00,4.2761
846.00,4.1377
845.00,4.2029
844.00,4.3001
843.00,4.1980
842.00,4.1722
841.00,4.2514
840.00,4.1467
839.00,4.0089
838.00,3.9714
837.00,4.0305
836.00,4.1815
835.00,4.3481
834.00,4.4915
833.00,4.5184
832.00,4.3660
831.00,4.2948
830.00,4.2816
829.00,4.3592
828.00,4.5441
827.00,4.3122
826.00,4.0306
825.00,3.9321
824.00,3.9979
823.00,4.2598
822.00,4.7839
821.00,4.6471
820.00,4.2828
819.00,4.1175
818.00,4.1747
817.00,4.5437
816.00,4.5561
815.00,4.3676
814.00,4.5182
813.00,4.7377
812.00,4.4447
811.00,4.3707
810.00,4.5078
809.00,4.4391
808.00,4.2802
807.00,4.1516
806.00,4.0390
805.00,3.9652
804.00,3.9186
803.00,3.8824
802.00,3.8508
801.00,3.8438
800.00,3.8910
799.00,4.0159
798.00,4.2082
797.00,4.3640
796.00,4.4771
795.00,4.3601
794.00,4.2300
793.00,4.3187
792.00,4.1954
791.00,3.9496
790.00,3.8554
789.00,3.8412
788.00,3.8527
787.00,3.8757
786.00,3.9378
785.00,4.0695
784.00,4.3899
783.00,4.8042
782.00,4.4006
781.00,4.3896
780.00,4.3128
779.00,4.1213
778.00,4.1149
777.00,4.1921
776.00,4.2172
775.00,4.1519
774.00,4.0567
773.00,4.0145
772.00,4.0254
771.00,4.0083
770.00,3.9153
769.00,3.7922
768.00,3.7302
767.00,3.7771
766.00,4.0049
765.00,4.6116
764.00,4.8957
763.00,4.4049
762.00,4.1085
761.00,3.9399
760.00,3.8837
759.00,3.9175
758.00,4.0878
757.00,4.2495
756.00,4.0228
755.00,3.8737
754.00,3.8403
753.00,3.8703
752.00,3.9614
751.00,4.1901
750.00,4.6496
749.00,4.2330
748.00,3.9108
747.00,3.7991
746.00,3.7969
745.00,3.8578
744.00,3.8893
743.00,3.8661
742.00,3.8411
741.00,3.8460
740.00,3.8088
739.00,3.7617
738.00,3.7755
737.00,3.9921
736.00,4.5821
735.00,4.2862
734.00,4.2320
733.00,4.3608
732.00,4.2109
731.00,4.0602
730.00,3.9507
729.00,3.9234
728.00,3.9763
727.00,4.0832
726.00,4.1770
725.00,4.2653
724.00,4.3951
723.00,4.4058
722.00,4.2899
721.00,4.2064
720.00,4.1817
719.00,4.1503
718.00,4.1363
717.00,4.1573
716.00,4.4240
715.00,4.9763
714.00,4.2943
713.00,4.2150
712.00,4.3900
711.00,4.5287
710.00,4.3256
709.00,4.0143
708.00,3.8635
707.00,3.8194
706.00,3.8416
705.00,3.9940
704.00,4.2770
703.00,4.1247
702.00,3.9463
701.00,3.8961
700.00,3.8591
