Created as New Dataset,Sample 104 By Administrator Date Wednesday, November 24 2021
cm-1,A
7502.00,1.0557
7501.00,1.0636
7500.00,1.0709
7499.00,1.0776
7498.00,1.0841
7497.00,1.0902
7496.00,1.0963
7495.00,1.1026
7494.00,1.1094
7493.00,1.1168
7492.00,1.1243
7491.00,1.1314
7490.00,1.1376
7489.00,1.1429
7488.00,1.1476
7487.00,1.1517
7486.00,1.1552
7485.00,1.1584
7484.00,1.1615
7483.00,1.1644
7482.00,1.1670
7481.00,1.1695
7480.00,1.1718
7479.00,1.1738
7478.00,1.1750
7477.00,1.1754
7476.00,1.1757
7475.00,1.1767
7474.00,1.1785
7473.00,1.1804
7472.00,1.1815
7471.00,1.1817
7470.00,1.1814
7469.00,1.1808
7468.00,1.1801
7467.00,1.1786
7466.00,1.1763
7465.00,1.1732
7464.00,1.1695
7463.00,1.1657
7462.00,1.1616
7461.00,1.1572
7460.00,1.1521
7459.00,1.1462
7458.00,1.1400
7457.00,1.1342
7456.00,1.1289
7455.00,1.1234
7454.00,1.1169
7453.00,1.1094
7452.00,1.1014
7451.00,1.0934
7450.00,1.0854
7449.00,1.0774
7448.00,1.0694
7447.00,1.0616
7446.00,1.0536
7445.00,1.0453
7444.00,1.0365
7443.00,1.0275
7442.00,1.0182
7441.00,1.0084
7440.00,0.9983
7439.00,0.9883
7438.00,0.9786
7437.00,0.9692
7436.00,0.9596
7435.00,0.9499
7434.00,0.9401
7433.00,0.9302
7432.00,0.9204
7431.00,0.9109
7430.00,0.9019
7429.00,0.8934
7428.00,0.8850
7427.00,0.8765
7426.00,0.8681
7425.00,0.8600
7424.00,0.8524
7423.00,0.8449
7422.00,0.8374
7421.00,0.8303
7420.00,0.8240
7419.00,0.8184
7418.00,0.8132
7417.00,0.8082
7416.00,0.8038
7415.00,0.7999
7414.00,0.7965
7413.00,0.7935
7412.00,0.7913
7411.00,0.7899
7410.00,0.7890
7409.00,0.7884
7408.00,0.7881
7407.00,0.7884
7406.00,0.7893
7405.00,0.7908
7404.00,0.7925
7403.00,0.7945
7402.00,0.7971
7401.00,0.8005
7400.00,0.8048
7399.00,0.8097
7398.00,0.8148
7397.00,0.8197
7396.00,0.8248
7395.00,0.8307
7394.00,0.8373
7393.00,0.8440
7392.00,0.8505
7391.00,0.8572
7390.00,0.8643
7389.00,0.8718
7388.00,0.8795
7387.00,0.8873
7386.00,0.8951
7385.00,0.9029
7384.00,0.9108
7383.00,0.9190
7382.00,0.9275
7381.00,0.9361
7380.00,0.9447
7379.00,0.9529
7378.00,0.9610
7377.00,0.9691
7376.00,0.9772
7375.00,0.9853
7374.00,0.9933
7373.00,1.0014
7372.00,1.0092
7371.00,1.0165
7370.00,1.0230
7369.00,1.0290
7368.00,1.0350
7367.00,1.0413
7366.00,1.0473
7365.00,1.0528
7364.00,1.0581
7363.00,1.0637
7362.00,1.0693
7361.00,1.0745
7360.00,1.0793
7359.00,1.0838
7358.00,1.0883
7357.00,1.0924
7356.00,1.0962
7355.00,1.1003
7354.00,1.1053
7353.00,1.1113
7352.00,1.1175
7351.00,1.1229
7350.00,1.1268
7349.00,1.1285
7348.00,1.1282
7347.00,1.1262
7346.00,1.1234
7345.00,1.1207
7344.00,1.1189
7343.00,1.1182
7342.00,1.1186
7341.00,1.1203
7340.00,1.1227
7339.00,1.1246
7338.00,1.1245
7337.00,1.1218
7336.00,1.1172
7335.00,1.1119
7334.00,1.1069
7333.00,1.1021
7332.00,1.0977
7331.00,1.0938
7330.00,1.0903
7329.00,1.0871
7328.00,1.0842
7327.00,1.0816
7326.00,1.0790
7325.00,1.0758
7324.00,1.0720
7323.00,1.0682
7322.00,1.0647
7321.00,1.0614
7320.00,1.0575
7319.00,1.0530
7318.00,1.0481
7317.00,1.0434
7316.00,1.0389
7315.00,1.0344
7314.00,1.0295
7313.00,1.0237
7312.00,1.0173
7311.00,1.0101
7310.00,1.0021
7309.00,0.9934
7308.00,0.9843
7307.00,0.9754
7306.00,0.9671
7305.00,0.9595
7304.00,0.9524
7303.00,0.9457
7302.00,0.9386
7301.00,0.9307
7300.00,0.9223
7299.00,0.9137
7298.00,0.9054
7297.00,0.8970
7296.00,0.8883
7295.00,0.8794
7294.00,0.8707
7293.00,0.8625
7292.00,0.8547
7291.00,0.8469
7290.00,0.8390
7289.00,0.8312
7288.00,0.8238
7287.00,0.8173
7286.00,0.8115
7285.00,0.8061
7284.00,0.8011
7283.00,0.7966
7282.00,0.7928
7281.00,0.7897
7280.00,0.7871
7279.00,0.7846
7278.00,0.7824
7277.00,0.7807
7276.00,0.7797
7275.00,0.7792
7274.00,0.7792
7273.00,0.7797
7272.00,0.7809
7271.00,0.7827
7270.00,0.7850
7269.00,0.7876
7268.00,0.7905
7267.00,0.7941
7266.00,0.7985
7265.00,0.8034
7264.00,0.8087
7263.00,0.8144
7262.00,0.8204
7261.00,0.8268
7260.00,0.8334
7259.00,0.8403
7258.00,0.8478
7257.00,0.8557
7256.00,0.8637
7255.00,0.8717
7254.00,0.8799
7253.00,0.8881
7252.00,0.8963
7251.00,0.9044
7250.00,0.9126
7249.00,0.9208
7248.00,0.9292
7247.00,0.9377
7246.00,0.9467
7245.00,0.9562
7244.00,0.9657
7243.00,0.9748
7242.00,0.9838
7241.00,0.9931
7240.00,1.0027
7239.00,1.0122
7238.00,1.0212
7237.00,1.0297
7236.00,1.0380
7235.00,1.0462
7234.00,1.0545
7233.00,1.0627
7232.00,1.0706
7231.00,1.0781
7230.00,1.0853
7229.00,1.0925
7228.00,1.0997
7227.00,1.1069
7226.00,1.1140
7225.00,1.1210
7224.00,1.1279
7223.00,1.1348
7222.00,1.1416
7221.00,1.1481
7220.00,1.1541
7219.00,1.1594
7218.00,1.1645
7217.00,1.1695
7216.00,1.1743
7215.00,1.1785
7214.00,1.1818
7213.00,1.1841
7212.00,1.1857
7211.00,1.1869
7210.00,1.1880
7209.00,1.1889
7208.00,1.1895
7207.00,1.1901
7206.00,1.1913
7205.00,1.1930
7204.00,1.1945
7203.00,1.1952
7202.00,1.1950
7201.00,1.1944
7200.00,1.1938
7199.00,1.1928
7198.00,1.1913
7197.00,1.1891
7196.00,1.1866
7195.00,1.1836
7194.00,1.1803
7193.00,1.1765
7192.00,1.1721
7191.00,1.1669
7190.00,1.1610
7189.00,1.1549
7188.00,1.1490
7187.00,1.1435
7186.00,1.1377
7185.00,1.1310
7184.00,1.1235
7183.00,1.1156
7182.00,1.1075
7181.00,1.0992
7180.00,1.0907
7179.00,1.0822
7178.00,1.0737
7177.00,1.0649
7176.00,1.0556
7175.00,1.0460
7174.00,1.0365
7173.00,1.0271
7172.00,1.0175
7171.00,1.0075
7170.00,0.9974
7169.00,0.9874
7168.00,0.9772
7167.00,0.9665
7166.00,0.9553
7165.00,0.9441
7164.00,0.9334
7163.00,0.9231
7162.00,0.9132
7161.00,0.9034
7160.00,0.8939
7159.00,0.8848
7158.00,0.8761
7157.00,0.8674
7156.00,0.8589
7155.00,0.8510
7154.00,0.8439
7153.00,0.8373
7152.00,0.8308
7151.00,0.8243
7150.00,0.8183
7149.00,0.8131
7148.00,0.8083
7147.00,0.8035
7146.00,0.7988
7145.00,0.7949
7144.00,0.7919
7143.00,0.7898
7142.00,0.7881
7141.00,0.7867
7140.00,0.7858
7139.00,0.7859
7138.00,0.7869
7137.00,0.7885
7136.00,0.7901
7135.00,0.7919
7134.00,0.7942
7133.00,0.7972
7132.00,0.8007
7131.00,0.8047
7130.00,0.8093
7129.00,0.8145
7128.00,0.8205
7127.00,0.8269
7126.00,0.8334
7125.00,0.8399
7124.00,0.8468
7123.00,0.8538
7122.00,0.8612
7121.00,0.8689
7120.00,0.8770
7119.00,0.8855
7118.00,0.8942
7117.00,0.9029
7116.00,0.9115
7115.00,0.9201
7114.00,0.9286
7113.00,0.9372
7112.00,0.9457
7111.00,0.9543
7110.00,0.9633
7109.00,0.9728
7108.00,0.9825
7107.00,0.9922
7106.00,1.0017
7105.00,1.0105
7104.00,1.0190
7103.00,1.0272
7102.00,1.0355
7101.00,1.0437
7100.00,1.0518
7099.00,1.0598
7098.00,1.0682
7097.00,1.0766
7096.00,1.0847
7095.00,1.0920
7094.00,1.0986
7093.00,1.1051
7092.00,1.1117
7091.00,1.1183
7090.00,1.1247
7089.00,1.1307
7088.00,1.1364
7087.00,1.1421
7086.00,1.1475
7085.00,1.1524
7084.00,1.1566
7083.00,1.1603
7082.00,1.1639
7081.00,1.1674
7080.00,1.1705
7079.00,1.1731
7078.00,1.1752
7077.00,1.1772
7076.00,1.1795
7075.00,1.1819
7074.00,1.1838
7073.00,1.1850
7072.00,1.1855
7071.00,1.1856
7070.00,1.1857
7069.00,1.1855
7068.00,1.1845
7067.00,1.1826
7066.00,1.1803
7065.00,1.1782
7064.00,1.1770
7063.00,1.1761
7062.00,1.1743
7061.00,1.1713
7060.00,1.1676
7059.00,1.1639
7058.00,1.1603
7057.00,1.1560
7056.00,1.1506
7055.00,1.1447
7054.00,1.1387
7053.00,1.1330
7052.00,1.1274
7051.00,1.1216
7050.00,1.1153
7049.00,1.1083
7048.00,1.1010
7047.00,1.0938
7046.00,1.0866
7045.00,1.0789
7044.00,1.0700
7043.00,1.0603
7042.00,1.0503
7041.00,1.0407
7040.00,1.0313
7039.00,1.0220
7038.00,1.0125
7037.00,1.0028
7036.00,0.9929
7035.00,0.9830
7034.00,0.9729
7033.00,0.9626
7032.00,0.9521
7031.00,0.9416
7030.00,0.9315
7029.00,0.9219
7028.00,0.9127
7027.00,0.9035
7026.00,0.8943
7025.00,0.8852
7024.00,0.8764
7023.00,0.8678
7022.00,0.8596
7021.00,0.8515
7020.00,0.8435
7019.00,0.8356
7018.00,0.8281
7017.00,0.8211
7016.00,0.8146
7015.00,0.8086
7014.00,0.8032
7013.00,0.7984
7012.00,0.7943
7011.00,0.7908
7010.00,0.7880
7009.00,0.7859
7008.00,0.7842
7007.00,0.7829
7006.00,0.7821
7005.00,0.7817
7004.00,0.7817
7003.00,0.7821
7002.00,0.7830
7001.00,0.7846
7000.00,0.7870
6999.00,0.7901
6998.00,0.7939
6997.00,0.7985
6996.00,0.8035
6995.00,0.8088
6994.00,0.8142
6993.00,0.8201
6992.00,0.8264
6991.00,0.8331
6990.00,0.8402
6989.00,0.8477
6988.00,0.8555
6987.00,0.8637
6986.00,0.8721
6985.00,0.8806
6984.00,0.8893
6983.00,0.8982
6982.00,0.9072
6981.00,0.9163
6980.00,0.9257
6979.00,0.9352
6978.00,0.9448
6977.00,0.9544
6976.00,0.9639
6975.00,0.9734
6974.00,0.9829
6973.00,0.9925
6972.00,1.0021
6971.00,1.0115
6970.00,1.0210
6969.00,1.0305
6968.00,1.0399
6967.00,1.0490
6966.00,1.0577
6965.00,1.0663
6964.00,1.0749
6963.00,1.0835
6962.00,1.0919
6961.00,1.0999
6960.00,1.1073
6959.00,1.1140
6958.00,1.1204
6957.00,1.1267
6956.00,1.1330
6955.00,1.1394
6954.00,1.1458
6953.00,1.1523
6952.00,1.1592
6951.00,1.1662
6950.00,1.1726
6949.00,1.1782
6948.00,1.1831
6947.00,1.1877
6946.00,1.1918
6945.00,1.1951
6944.00,1.1977
6943.00,1.2001
6942.00,1.2025
6941.00,1.2051
6940.00,1.2074
6939.00,1.2096
6938.00,1.2116
6937.00,1.2130
6936.00,1.2134
6935.00,1.2129
6934.00,1.2119
6933.00,1.2108
6932.00,1.2096
6931.00,1.2080
6930.00,1.2060
6929.00,1.2038
6928.00,1.2016
6927.00,1.1997
6926.00,1.1975
6925.00,1.1944
6924.00,1.1900
6923.00,1.1850
6922.00,1.1797
6921.00,1.1741
6920.00,1.1677
6919.00,1.1607
6918.00,1.1536
6917.00,1.1470
6916.00,1.1407
6915.00,1.1342
6914.00,1.1273
6913.00,1.1196
6912.00,1.1112
6911.00,1.1022
6910.00,1.0931
6909.00,1.0842
6908.00,1.0753
6907.00,1.0660
6906.00,1.0564
6905.00,1.0464
6904.00,1.0361
6903.00,1.0258
6902.00,1.0154
6901.00,1.0046
6900.00,0.9935
6899.00,0.9823
6898.00,0.9713
6897.00,0.9606
6896.00,0.9501
6895.00,0.9396
6894.00,0.9292
6893.00,0.9189
6892.00,0.9088
6891.00,0.8990
6890.00,0.8893
6889.00,0.8798
6888.00,0.8705
6887.00,0.8616
6886.00,0.8533
6885.00,0.8455
6884.00,0.8380
6883.00,0.8306
6882.00,0.8237
6881.00,0.8172
6880.00,0.8113
6879.00,0.8058
6878.00,0.8008
6877.00,0.7966
6876.00,0.7930
6875.00,0.7900
6874.00,0.7875
6873.00,0.7855
6872.00,0.7841
6871.00,0.7832
6870.00,0.7827
6869.00,0.7826
6868.00,0.7833
6867.00,0.7846
6866.00,0.7866
6865.00,0.7893
6864.00,0.7927
6863.00,0.7969
6862.00,0.8017
6861.00,0.8070
6860.00,0.8124
6859.00,0.8181
6858.00,0.8241
6857.00,0.8306
6856.00,0.8378
6855.00,0.8455
6854.00,0.8536
6853.00,0.8620
6852.00,0.8705
6851.00,0.8791
6850.00,0.8880
6849.00,0.8969
6848.00,0.9058
6847.00,0.9146
6846.00,0.9235
6845.00,0.9328
6844.00,0.9424
6843.00,0.9521
6842.00,0.9620
6841.00,0.9719
6840.00,0.9819
6839.00,0.9919
6838.00,1.0020
6837.00,1.0119
6836.00,1.0216
6835.00,1.0307
6834.00,1.0396
6833.00,1.0485
6832.00,1.0575
6831.00,1.0663
6830.00,1.0749
6829.00,1.0834
6828.00,1.0917
6827.00,1.0997
6826.00,1.1076
6825.00,1.1152
6824.00,1.1224
6823.00,1.1291
6822.00,1.1354
6821.00,1.1418
6820.00,1.1481
6819.00,1.1544
6818.00,1.1608
6817.00,1.1672
6816.00,1.1730
6815.00,1.1779
6814.00,1.1823
6813.00,1.1868
6812.00,1.1914
6811.00,1.1953
6810.00,1.1984
6809.00,1.2009
6808.00,1.2036
6807.00,1.2061
6806.00,1.2079
6805.00,1.2090
6804.00,1.2097
6803.00,1.2104
6802.00,1.2112
6801.00,1.2115
6800.00,1.2110
6799.00,1.2099
6798.00,1.2086
6797.00,1.2071
6796.00,1.2052
6795.00,1.2030
6794.00,1.2005
6793.00,1.1978
6792.00,1.1945
6791.00,1.1903
6790.00,1.1855
6789.00,1.1805
6788.00,1.1756
6787.00,1.1705
6786.00,1.1649
6785.00,1.1592
6784.00,1.1535
6783.00,1.1476
6782.00,1.1412
6781.00,1.1338
6780.00,1.1257
6779.00,1.1171
6778.00,1.1084
6777.00,1.0993
6776.00,1.0897
6775.00,1.0799
6774.00,1.0703
6773.00,1.0610
6772.00,1.0518
6771.00,1.0423
6770.00,1.0324
6769.00,1.0223
6768.00,1.0118
6767.00,1.0010
6766.00,0.9900
6765.00,0.9792
6764.00,0.9685
6763.00,0.9578
6762.00,0.9474
6761.00,0.9371
6760.00,0.9270
6759.00,0.9169
6758.00,0.9067
6757.00,0.8965
6756.00,0.8865
6755.00,0.8768
6754.00,0.8674
6753.00,0.8583
6752.00,0.8495
6751.00,0.8408
6750.00,0.8325
6749.00,0.8248
6748.00,0.8176
6747.00,0.8109
6746.00,0.8047
6745.00,0.7991
6744.00,0.7942
6743.00,0.7897
6742.00,0.7857
6741.00,0.7821
6740.00,0.7791
6739.00,0.7766
6738.00,0.7748
6737.00,0.7737
6736.00,0.7732
6735.00,0.7735
6734.00,0.7744
6733.00,0.7759
6732.00,0.7780
6731.00,0.7806
6730.00,0.7838
6729.00,0.7877
6728.00,0.7922
6727.00,0.7973
6726.00,0.8028
6725.00,0.8088
6724.00,0.8152
6723.00,0.8218
6722.00,0.8289
6721.00,0.8363
6720.00,0.8441
6719.00,0.8523
6718.00,0.8608
6717.00,0.8696
6716.00,0.8787
6715.00,0.8878
6714.00,0.8970
6713.00,0.9067
6712.00,0.9168
6711.00,0.9269
6710.00,0.9368
6709.00,0.9465
6708.00,0.9562
6707.00,0.9660
6706.00,0.9760
6705.00,0.9861
6704.00,0.9962
6703.00,1.0062
6702.00,1.0162
6701.00,1.0263
6700.00,1.0365
6699.00,1.0463
6698.00,1.0557
6697.00,1.0651
6696.00,1.0748
6695.00,1.0847
6694.00,1.0943
6693.00,1.1033
6692.00,1.1116
6691.00,1.1194
6690.00,1.1273
6689.00,1.1353
6688.00,1.1432
6687.00,1.1506
6686.00,1.1573
6685.00,1.1637
6684.00,1.1698
6683.00,1.1755
6682.00,1.1808
6681.00,1.1860
6680.00,1.1913
6679.00,1.1966
6678.00,1.2014
6677.00,1.2058
6676.00,1.2100
6675.00,1.2141
6674.00,1.2177
6673.00,1.2208
6672.00,1.2234
6671.00,1.2257
6670.00,1.2278
6669.00,1.2292
6668.00,1.2297
6667.00,1.2294
6666.00,1.2287
6665.00,1.2280
6664.00,1.2276
6663.00,1.2273
6662.00,1.2269
6661.00,1.2261
6660.00,1.2248
6659.00,1.2232
6658.00,1.2212
6657.00,1.2183
6656.00,1.2142
6655.00,1.2090
6654.00,1.2036
6653.00,1.1986
6652.00,1.1938
6651.00,1.1884
6650.00,1.1823
6649.00,1.1755
6648.00,1.1686
6647.00,1.1614
6646.00,1.1538
6645.00,1.1459
6644.00,1.1381
6643.00,1.1303
6642.00,1.1220
6641.00,1.1132
6640.00,1.1036
6639.00,1.0933
6638.00,1.0827
6637.00,1.0719
6636.00,1.0611
6635.00,1.0503
6634.00,1.0396
6633.00,1.0289
6632.00,1.0182
6631.00,1.0072
6630.00,0.9961
6629.00,0.9846
6628.00,0.9730
6627.00,0.9612
6626.00,0.9495
6625.00,0.9381
6624.00,0.9271
6623.00,0.9164
6622.00,0.9060
6621.00,0.8957
6620.00,0.8856
6619.00,0.8756
6618.00,0.8660
6617.00,0.8568
6616.00,0.8480
6615.00,0.8395
6614.00,0.8315
6613.00,0.8241
6612.00,0.8173
6611.00,0.8108
6610.00,0.8046
6609.00,0.7989
6608.00,0.7940
6607.00,0.7897
6606.00,0.7861
6605.00,0.7831
6604.00,0.7808
6603.00,0.7791
6602.00,0.7782
6601.00,0.7781
6600.00,0.7786
6599.00,0.7797
6598.00,0.7812
6597.00,0.7834
6596.00,0.7861
6595.00,0.7895
6594.00,0.7934
6593.00,0.7980
6592.00,0.8032
6591.00,0.8091
6590.00,0.8155
6589.00,0.8224
6588.00,0.8297
6587.00,0.8373
6586.00,0.8450
6585.00,0.8530
6584.00,0.8614
6583.00,0.8701
6582.00,0.8791
6581.00,0.8884
6580.00,0.8978
6579.00,0.9074
6578.00,0.9172
6577.00,0.9274
6576.00,0.9379
6575.00,0.9483
6574.00,0.9586
6573.00,0.9687
6572.00,0.9787
6571.00,0.9887
6570.00,0.9985
6569.00,1.0083
6568.00,1.0183
6567.00,1.0283
6566.00,1.0382
6565.00,1.0477
6564.00,1.0567
6563.00,1.0656
6562.00,1.0745
6561.00,1.0834
6560.00,1.0924
6559.00,1.1015
6558.00,1.1105
6557.00,1.1191
6556.00,1.1271
6555.00,1.1345
6554.00,1.1416
6553.00,1.1486
6552.00,1.1555
6551.00,1.1618
6550.00,1.1676
6549.00,1.1732
6548.00,1.1787
6547.00,1.1840
6546.00,1.1889
6545.00,1.1932
6544.00,1.1972
6543.00,1.2010
6542.00,1.2045
6541.00,1.2076
6540.00,1.2103
6539.00,1.2128
6538.00,1.2154
6537.00,1.2180
6536.00,1.2203
6535.00,1.2217
6534.00,1.2223
6533.00,1.2224
6532.00,1.2222
6531.00,1.2217
6530.00,1.2206
6529.00,1.2189
6528.00,1.2170
6527.00,1.2148
6526.00,1.2122
6525.00,1.2092
6524.00,1.2057
6523.00,1.2022
6522.00,1.1986
6521.00,1.1950
6520.00,1.1910
6519.00,1.1863
6518.00,1.1811
6517.00,1.1753
6516.00,1.1690
6515.00,1.1624
6514.00,1.1557
6513.00,1.1492
6512.00,1.1428
6511.00,1.1360
6510.00,1.1288
6509.00,1.1211
6508.00,1.1129
6507.00,1.1042
6506.00,1.0950
6505.00,1.0856
6504.00,1.0759
6503.00,1.0659
6502.00,1.0555
6501.00,1.0450
6500.00,1.0344
6499.00,1.0236
6498.00,1.0128
6497.00,1.0021
6496.00,0.9914
6495.00,0.9803
6494.00,0.9690
6493.00,0.9576
6492.00,0.9463
6491.00,0.9350
6490.00,0.9239
6489.00,0.9131
6488.00,0.9026
6487.00,0.8922
6486.00,0.8821
6485.00,0.8723
6484.00,0.8628
6483.00,0.8537
6482.00,0.8447
6481.00,0.8361
6480.00,0.8279
6479.00,0.8202
6478.00,0.8129
6477.00,0.8061
6476.00,0.7997
6475.00,0.7938
6474.00,0.7887
6473.00,0.7842
6472.00,0.7804
6471.00,0.7771
6470.00,0.7744
6469.00,0.7725
6468.00,0.7713
6467.00,0.7708
6466.00,0.7710
6465.00,0.7719
6464.00,0.7734
6463.00,0.7757
6462.00,0.7786
6461.00,0.7821
6460.00,0.7861
6459.00,0.7907
6458.00,0.7958
6457.00,0.8015
6456.00,0.8076
6455.00,0.8144
6454.00,0.8217
6453.00,0.8295
6452.00,0.8376
6451.00,0.8461
6450.00,0.8550
6449.00,0.8641
6448.00,0.8734
6447.00,0.8830
6446.00,0.8929
6445.00,0.9031
6444.00,0.9135
6443.00,0.9240
6442.00,0.9344
6441.00,0.9448
6440.00,0.9552
6439.00,0.9658
6438.00,0.9764
6437.00,0.9873
6436.00,0.9982
6435.00,1.0092
6434.00,1.0201
6433.00,1.0309
6432.00,1.0416
6431.00,1.0522
6430.00,1.0627
6429.00,1.0731
6428.00,1.0832
6427.00,1.0929
6426.00,1.1023
6425.00,1.1113
6424.00,1.1200
6423.00,1.1286
6422.00,1.1373
6421.00,1.1458
6420.00,1.1540
6419.00,1.1621
6418.00,1.1702
6417.00,1.1780
6416.00,1.1852
6415.00,1.1915
6414.00,1.1973
6413.00,1.2028
6412.00,1.2084
6411.00,1.2138
6410.00,1.2190
6409.00,1.2242
6408.00,1.2291
6407.00,1.2334
6406.00,1.2371
6405.00,1.2402
6404.00,1.2429
6403.00,1.2454
6402.00,1.2477
6401.00,1.2497
6400.00,1.2511
6399.00,1.2520
6398.00,1.2525
6397.00,1.2527
6396.00,1.2524
6395.00,1.2517
6394.00,1.2507
6393.00,1.2494
6392.00,1.2478
6391.00,1.2457
6390.00,1.2431
6389.00,1.2403
6388.00,1.2374
6387.00,1.2341
6386.00,1.2303
6385.00,1.2257
6384.00,1.2205
6383.00,1.2149
6382.00,1.2090
6381.00,1.2026
6380.00,1.1957
6379.00,1.1884
6378.00,1.1807
6377.00,1.1729
6376.00,1.1647
6375.00,1.1563
6374.00,1.1478
6373.00,1.1390
6372.00,1.1298
6371.00,1.1200
6370.00,1.1097
6369.00,1.0988
6368.00,1.0878
6367.00,1.0766
6366.00,1.0653
6365.00,1.0540
6364.00,1.0424
6363.00,1.0306
6362.00,1.0187
6361.00,1.0066
6360.00,0.9942
6359.00,0.9818
6358.00,0.9696
6357.00,0.9579
6356.00,0.9463
6355.00,0.9347
6354.00,0.9231
6353.00,0.9117
6352.00,0.9006
6351.00,0.8896
6350.00,0.8788
6349.00,0.8684
6348.00,0.8584
6347.00,0.8489
6346.00,0.8398
6345.00,0.8312
6344.00,0.8232
6343.00,0.8157
6342.00,0.8086
6341.00,0.8022
6340.00,0.7963
6339.00,0.7911
6338.00,0.7865
6337.00,0.7825
6336.00,0.7792
6335.00,0.7766
6334.00,0.7748
6333.00,0.7737
6332.00,0.7733
6331.00,0.7737
6330.00,0.7749
6329.00,0.7767
6328.00,0.7792
6327.00,0.7821
6326.00,0.7857
6325.00,0.7900
6324.00,0.7949
6323.00,0.8005
6322.00,0.8068
6321.00,0.8137
6320.00,0.8211
6319.00,0.8289
6318.00,0.8371
6317.00,0.8456
6316.00,0.8543
6315.00,0.8633
6314.00,0.8726
6313.00,0.8822
6312.00,0.8918
6311.00,0.9017
6310.00,0.9118
6309.00,0.9224
6308.00,0.9333
6307.00,0.9443
6306.00,0.9552
6305.00,0.9662
6304.00,0.9772
6303.00,0.9881
6302.00,0.9990
6301.00,1.0098
6300.00,1.0205
6299.00,1.0310
6298.00,1.0413
6297.00,1.0514
6296.00,1.0614
6295.00,1.0712
6294.00,1.0809
6293.00,1.0907
6292.00,1.1005
6291.00,1.1100
6290.00,1.1191
6289.00,1.1276
6288.00,1.1358
6287.00,1.1439
6286.00,1.1521
6285.00,1.1601
6284.00,1.1677
6283.00,1.1748
6282.00,1.1817
6281.00,1.1884
6280.00,1.1948
6279.00,1.2007
6278.00,1.2063
6277.00,1.2116
6276.00,1.2166
6275.00,1.2213
6274.00,1.2254
6273.00,1.2292
6272.00,1.2325
6271.00,1.2356
6270.00,1.2382
6269.00,1.2403
6268.00,1.2419
6267.00,1.2429
6266.00,1.2436
6265.00,1.2440
6264.00,1.2443
6263.00,1.2443
6262.00,1.2441
6261.00,1.2437
6260.00,1.2430
6259.00,1.2418
6258.00,1.2397
6257.00,1.2371
6256.00,1.2343
6255.00,1.2315
6254.00,1.2286
6253.00,1.2253
6252.00,1.2216
6251.00,1.2175
6250.00,1.2128
6249.00,1.2076
6248.00,1.2017
6247.00,1.1954
6246.00,1.1890
6245.00,1.1825
6244.00,1.1758
6243.00,1.1685
6242.00,1.1608
6241.00,1.1528
6240.00,1.1445
6239.00,1.1357
6238.00,1.1266
6237.00,1.1173
6236.00,1.1078
6235.00,1.0979
6234.00,1.0877
6233.00,1.0770
6232.00,1.0661
6231.00,1.0549
6230.00,1.0436
6229.00,1.0319
6228.00,1.0200
6227.00,1.0080
6226.00,0.9959
6225.00,0.9838
6224.00,0.9717
6223.00,0.9597
6222.00,0.9480
6221.00,0.9365
6220.00,0.9252
6219.00,0.9137
6218.00,0.9023
6217.00,0.8911
6216.00,0.8800
6215.00,0.8692
6214.00,0.8588
6213.00,0.8487
6212.00,0.8392
6211.00,0.8300
6210.00,0.8214
6209.00,0.8135
6208.00,0.8062
6207.00,0.7994
6206.00,0.7932
6205.00,0.7877
6204.00,0.7828
6203.00,0.7784
6202.00,0.7747
6201.00,0.7718
6200.00,0.7698
6199.00,0.7686
6198.00,0.7681
6197.00,0.7682
6196.00,0.7691
6195.00,0.7706
6194.00,0.7729
6193.00,0.7760
6192.00,0.7797
6191.00,0.7842
6190.00,0.7893
6189.00,0.7951
6188.00,0.8014
6187.00,0.8082
6186.00,0.8155
6185.00,0.8233
6184.00,0.8316
6183.00,0.8402
6182.00,0.8492
6181.00,0.8587
6180.00,0.8686
6179.00,0.8788
6178.00,0.8892
6177.00,0.8999
6176.00,0.9109
6175.00,0.9219
6174.00,0.9329
6173.00,0.9441
6172.00,0.9553
6171.00,0.9665
6170.00,0.9775
6169.00,0.9885
6168.00,0.9997
6167.00,1.0111
6166.00,1.0226
6165.00,1.0341
6164.00,1.0455
6163.00,1.0567
6162.00,1.0678
6161.00,1.0785
6160.00,1.0888
6159.00,1.0992
6158.00,1.1097
6157.00,1.1201
6156.00,1.1301
6155.00,1.1397
6154.00,1.1489
6153.00,1.1578
6152.00,1.1663
6151.00,1.1745
6150.00,1.1827
6149.00,1.1910
6148.00,1.1990
6147.00,1.2064
6146.00,1.2132
6145.00,1.2197
6144.00,1.2261
6143.00,1.2322
6142.00,1.2378
6141.00,1.2432
6140.00,1.2484
6139.00,1.2533
6138.00,1.2576
6137.00,1.2612
6136.00,1.2643
6135.00,1.2673
6134.00,1.2698
6133.00,1.2719
6132.00,1.2736
6131.00,1.2748
6130.00,1.2757
6129.00,1.2763
6128.00,1.2767
6127.00,1.2765
6126.00,1.2757
6125.00,1.2745
6124.00,1.2731
6123.00,1.2714
6122.00,1.2692
6121.00,1.2666
6120.00,1.2636
6119.00,1.2602
6118.00,1.2561
6117.00,1.2515
6116.00,1.2464
6115.00,1.2410
6114.00,1.2355
6113.00,1.2297
6112.00,1.2236
6111.00,1.2171
6110.00,1.2100
6109.00,1.2024
6108.00,1.1942
6107.00,1.1856
6106.00,1.1766
6105.00,1.1674
6104.00,1.1579
6103.00,1.1479
6102.00,1.1374
6101.00,1.1265
6100.00,1.1154
6099.00,1.1042
6098.00,1.0927
6097.00,1.0808
6096.00,1.0686
6095.00,1.0563
6094.00,1.0438
6093.00,1.0312
6092.00,1.0186
6091.00,1.0061
6090.00,0.9936
6089.00,0.9809
6088.00,0.9681
6087.00,0.9552
6086.00,0.9424
6085.00,0.9299
6084.00,0.9177
6083.00,0.9057
6082.00,0.8939
6081.00,0.8825
6080.00,0.8712
6079.00,0.8603
6078.00,0.8497
6077.00,0.8397
6076.00,0.8303
6075.00,0.8214
6074.00,0.8131
6073.00,0.8053
6072.00,0.7981
6071.00,0.7914
6070.00,0.7855
6069.00,0.7804
6068.00,0.7761
6067.00,0.7725
6066.00,0.7698
6065.00,0.7679
6064.00,0.7668
6063.00,0.7665
6062.00,0.7670
6061.00,0.7682
6060.00,0.7702
6059.00,0.7728
6058.00,0.7762
6057.00,0.7802
6056.00,0.7849
6055.00,0.7902
6054.00,0.7962
6053.00,0.8029
6052.00,0.8101
6051.00,0.8178
6050.00,0.8260
6049.00,0.8348
6048.00,0.8440
6047.00,0.8536
6046.00,0.8635
6045.00,0.8737
6044.00,0.8842
6043.00,0.8949
6042.00,0.9058
6041.00,0.9167
6040.00,0.9277
6039.00,0.9388
6038.00,0.9501
6037.00,0.9614
6036.00,0.9729
6035.00,0.9842
6034.00,0.9956
6033.00,1.0068
6032.00,1.0180
6031.00,1.0291
6030.00,1.0404
6029.00,1.0519
6028.00,1.0636
6027.00,1.0751
6026.00,1.0864
6025.00,1.0972
6024.00,1.1074
6023.00,1.1173
6022.00,1.1270
6021.00,1.1368
6020.00,1.1465
6019.00,1.1561
6018.00,1.1655
6017.00,1.1747
6016.00,1.1836
6015.00,1.1919
6014.00,1.1998
6013.00,1.2072
6012.00,1.2145
6011.00,1.2216
6010.00,1.2285
6009.00,1.2352
6008.00,1.2418
6007.00,1.2480
6006.00,1.2538
6005.00,1.2590
6004.00,1.2637
6003.00,1.2681
6002.00,1.2722
6001.00,1.2758
6000.00,1.2789
5999.00,1.2817
5998.00,1.2844
5997.00,1.2867
5996.00,1.2885
5995.00,1.2895
5994.00,1.2900
5993.00,1.2898
5992.00,1.2890
5991.00,1.2877
5990.00,1.2862
5989.00,1.2849
5988.00,1.2834
5987.00,1.2813
5986.00,1.2786
5985.00,1.2755
5984.00,1.2719
5983.00,1.2678
5982.00,1.2632
5981.00,1.2583
5980.00,1.2532
5979.00,1.2476
5978.00,1.2414
5977.00,1.2347
5976.00,1.2277
5975.00,1.2204
5974.00,1.2126
5973.00,1.2044
5972.00,1.1957
5971.00,1.1865
5970.00,1.1768
5969.00,1.1666
5968.00,1.1561
5967.00,1.1453
5966.00,1.1344
5965.00,1.1232
5964.00,1.1116
5963.00,1.0995
5962.00,1.0872
5961.00,1.0747
5960.00,1.0621
5959.00,1.0494
5958.00,1.0365
5957.00,1.0235
5956.00,1.0104
5955.00,0.9970
5954.00,0.9835
5953.00,0.9699
5952.00,0.9567
5951.00,0.9437
5950.00,0.9309
5949.00,0.9183
5948.00,0.9058
5947.00,0.8936
5946.00,0.8818
5945.00,0.8703
5944.00,0.8593
5943.00,0.8489
5942.00,0.8390
5941.00,0.8297
5940.00,0.8209
5939.00,0.8128
5938.00,0.8053
5937.00,0.7986
5936.00,0.7925
5935.00,0.7871
5934.00,0.7824
5933.00,0.7785
5932.00,0.7754
5931.00,0.7732
5930.00,0.7719
5929.00,0.7715
5928.00,0.7719
5927.00,0.7731
5926.00,0.7752
5925.00,0.7780
5924.00,0.7816
5923.00,0.7859
5922.00,0.7910
5921.00,0.7968
5920.00,0.8031
5919.00,0.8100
5918.00,0.8175
5917.00,0.8257
5916.00,0.8344
5915.00,0.8437
5914.00,0.8534
5913.00,0.8636
5912.00,0.8740
5911.00,0.8848
5910.00,0.8958
5909.00,0.9071
5908.00,0.9186
5907.00,0.9304
5906.00,0.9424
5905.00,0.9545
5904.00,0.9667
5903.00,0.9789
5902.00,0.9913
5901.00,1.0036
5900.00,1.0160
5899.00,1.0282
5898.00,1.0403
5897.00,1.0522
5896.00,1.0641
5895.00,1.0760
5894.00,1.0877
5893.00,1.0992
5892.00,1.1104
5891.00,1.1213
5890.00,1.1322
5889.00,1.1429
5888.00,1.1535
5887.00,1.1641
5886.00,1.1747
5885.00,1.1851
5884.00,1.1950
5883.00,1.2042
5882.00,1.2130
5881.00,1.2216
5880.00,1.2298
5879.00,1.2377
5878.00,1.2454
5877.00,1.2527
5876.00,1.2596
5875.00,1.2661
5874.00,1.2721
5873.00,1.2779
5872.00,1.2835
5871.00,1.2887
5870.00,1.2937
5869.00,1.2983
5868.00,1.3024
5867.00,1.3061
5866.00,1.3093
5865.00,1.3122
5864.00,1.3146
5863.00,1.3165
5862.00,1.3176
5861.00,1.3183
5860.00,1.3186
5859.00,1.3186
5858.00,1.3184
5857.00,1.3179
5856.00,1.3170
5855.00,1.3157
5854.00,1.3139
5853.00,1.3115
5852.00,1.3088
5851.00,1.3059
5850.00,1.3026
5849.00,1.2988
5848.00,1.2945
5847.00,1.2896
5846.00,1.2842
5845.00,1.2780
5844.00,1.2711
5843.00,1.2638
5842.00,1.2563
5841.00,1.2486
5840.00,1.2408
5839.00,1.2328
5838.00,1.2245
5837.00,1.2158
5836.00,1.2065
5835.00,1.1966
5834.00,1.1862
5833.00,1.1756
5832.00,1.1646
5831.00,1.1533
5830.00,1.1416
5829.00,1.1297
5828.00,1.1176
5827.00,1.1053
5826.00,1.0929
5825.00,1.0802
5824.00,1.0673
5823.00,1.0541
5822.00,1.0407
5821.00,1.0274
5820.00,1.0140
5819.00,1.0005
5818.00,0.9871
5817.00,0.9736
5816.00,0.9601
5815.00,0.9468
5814.00,0.9337
5813.00,0.9210
5812.00,0.9087
5811.00,0.8966
5810.00,0.8848
5809.00,0.8735
5808.00,0.8626
5807.00,0.8522
5806.00,0.8425
5805.00,0.8334
5804.00,0.8251
5803.00,0.8174
5802.00,0.8103
5801.00,0.8039
5800.00,0.7982
5799.00,0.7932
5798.00,0.7890
5797.00,0.7856
5796.00,0.7832
5795.00,0.7816
5794.00,0.7809
5793.00,0.7810
5792.00,0.7818
5791.00,0.7834
5790.00,0.7858
5789.00,0.7891
5788.00,0.7933
5787.00,0.7982
5786.00,0.8038
5785.00,0.8100
5784.00,0.8170
5783.00,0.8246
5782.00,0.8330
5781.00,0.8420
5780.00,0.8515
5779.00,0.8615
5778.00,0.8719
5777.00,0.8826
5776.00,0.8936
5775.00,0.9049
5774.00,0.9166
5773.00,0.9285
5772.00,0.9406
5771.00,0.9529
5770.00,0.9652
5769.00,0.9776
5768.00,0.9901
5767.00,1.0027
5766.00,1.0153
5765.00,1.0280
5764.00,1.0408
5763.00,1.0534
5762.00,1.0660
5761.00,1.0784
5760.00,1.0906
5759.00,1.1027
5758.00,1.1146
5757.00,1.1262
5756.00,1.1374
5755.00,1.1484
5754.00,1.1592
5753.00,1.1697
5752.00,1.1801
5751.00,1.1904
5750.00,1.2006
5749.00,1.2106
5748.00,1.2204
5747.00,1.2296
5746.00,1.2384
5745.00,1.2467
5744.00,1.2546
5743.00,1.2622
5742.00,1.2696
5741.00,1.2767
5740.00,1.2836
5739.00,1.2900
5738.00,1.2959
5737.00,1.3014
5736.00,1.3064
5735.00,1.3108
5734.00,1.3147
5733.00,1.3182
5732.00,1.3213
5731.00,1.3240
5730.00,1.3263
5729.00,1.3284
5728.00,1.3303
5727.00,1.3320
5726.00,1.3333
5725.00,1.3340
5724.00,1.3342
5723.00,1.3341
5722.00,1.3335
5721.00,1.3325
5720.00,1.3311
5719.00,1.3292
5718.00,1.3269
5717.00,1.3242
5716.00,1.3209
5715.00,1.3171
5714.00,1.3128
5713.00,1.3082
5712.00,1.3033
5711.00,1.2981
5710.00,1.2924
5709.00,1.2859
5708.00,1.2789
5707.00,1.2713
5706.00,1.2633
5705.00,1.2550
5704.00,1.2464
5703.00,1.2378
5702.00,1.2288
5701.00,1.2192
5700.00,1.2089
5699.00,1.1979
5698.00,1.1864
5697.00,1.1745
5696.00,1.1623
5695.00,1.1499
5694.00,1.1377
5693.00,1.1253
5692.00,1.1126
5691.00,1.0995
5690.00,1.0859
5689.00,1.0719
5688.00,1.0575
5687.00,1.0431
5686.00,1.0288
5685.00,1.0146
5684.00,1.0006
5683.00,0.9865
5682.00,0.9725
5681.00,0.9584
5680.00,0.9444
5679.00,0.9305
5678.00,0.9169
5677.00,0.9037
5676.00,0.8910
5675.00,0.8788
5674.00,0.8671
5673.00,0.8559
5672.00,0.8451
5671.00,0.8349
5670.00,0.8252
5669.00,0.8163
5668.00,0.8082
5667.00,0.8010
5666.00,0.7946
5665.00,0.7891
5664.00,0.7843
5663.00,0.7804
5662.00,0.7774
5661.00,0.7753
5660.00,0.7740
5659.00,0.7736
5658.00,0.7741
5657.00,0.7756
5656.00,0.7779
5655.00,0.7811
5654.00,0.7852
5653.00,0.7901
5652.00,0.7958
5651.00,0.8021
5650.00,0.8091
5649.00,0.8166
5648.00,0.8249
5647.00,0.8337
5646.00,0.8432
5645.00,0.8534
5644.00,0.8640
5643.00,0.8749
5642.00,0.8861
5641.00,0.8975
5640.00,0.9091
5639.00,0.9210
5638.00,0.9332
5637.00,0.9455
5636.00,0.9580
5635.00,0.9707
5634.00,0.9836
5633.00,0.9967
5632.00,1.0099
5631.00,1.0231
5630.00,1.0361
5629.00,1.0488
5628.00,1.0613
5627.00,1.0736
5626.00,1.0856
5625.00,1.0976
5624.00,1.1095
5623.00,1.1212
5622.00,1.1328
5621.00,1.1441
5620.00,1.1551
5619.00,1.1659
5618.00,1.1765
5617.00,1.1867
5616.00,1.1965
5615.00,1.2058
5614.00,1.2149
5613.00,1.2237
5612.00,1.2322
5611.00,1.2403
5610.00,1.2479
5609.00,1.2552
5608.00,1.2624
5607.00,1.2693
5606.00,1.2761
5605.00,1.2824
5604.00,1.2883
5603.00,1.2939
5602.00,1.2989
5601.00,1.3034
5600.00,1.3075
5599.00,1.3112
5598.00,1.3146
5597.00,1.3177
5596.00,1.3204
5595.00,1.3228
5594.00,1.3251
5593.00,1.3271
5592.00,1.3287
5591.00,1.3296
5590.00,1.3298
5589.00,1.3294
5588.00,1.3286
5587.00,1.3274
5586.00,1.3258
5585.00,1.3239
5584.00,1.3218
5583.00,1.3195
5582.00,1.3171
5581.00,1.3143
5580.00,1.3111
5579.00,1.3074
5578.00,1.3030
5577.00,1.2978
5576.00,1.2920
5575.00,1.2856
5574.00,1.2790
5573.00,1.2724
5572.00,1.2655
5571.00,1.2584
5570.00,1.2509
5569.00,1.2429
5568.00,1.2343
5567.00,1.2252
5566.00,1.2156
5565.00,1.2056
5564.00,1.1953
5563.00,1.1846
5562.00,1.1733
5561.00,1.1614
5560.00,1.1489
5559.00,1.1361
5558.00,1.1229
5557.00,1.1094
5556.00,1.0957
5555.00,1.0818
5554.00,1.0677
5553.00,1.0534
5552.00,1.0390
5551.00,1.0244
5550.00,1.0097
5549.00,0.9951
5548.00,0.9806
5547.00,0.9661
5546.00,0.9517
5545.00,0.9375
5544.00,0.9235
5543.00,0.9099
5542.00,0.8965
5541.00,0.8835
5540.00,0.8709
5539.00,0.8587
5538.00,0.8471
5537.00,0.8362
5536.00,0.8260
5535.00,0.8166
5534.00,0.8079
5533.00,0.8000
5532.00,0.7929
5531.00,0.7867
5530.00,0.7813
5529.00,0.7769
5528.00,0.7733
5527.00,0.7706
5526.00,0.7688
5525.00,0.7680
5524.00,0.7681
5523.00,0.7692
5522.00,0.7713
5521.00,0.7744
5520.00,0.7783
5519.00,0.7830
5518.00,0.7886
5517.00,0.7950
5516.00,0.8020
5515.00,0.8099
5514.00,0.8186
5513.00,0.8279
5512.00,0.8377
5511.00,0.8481
5510.00,0.8590
5509.00,0.8703
5508.00,0.8819
5507.00,0.8939
5506.00,0.9062
5505.00,0.9188
5504.00,0.9316
5503.00,0.9446
5502.00,0.9579
5501.00,0.9714
5500.00,0.9849
5499.00,0.9984
5498.00,1.0119
5497.00,1.0253
5496.00,1.0388
5495.00,1.0522
5494.00,1.0656
5493.00,1.0791
5492.00,1.0928
5491.00,1.1063
5490.00,1.1195
5489.00,1.1322
5488.00,1.1444
5487.00,1.1563
5486.00,1.1680
5485.00,1.1795
5484.00,1.1909
5483.00,1.2021
5482.00,1.2131
5481.00,1.2240
5480.00,1.2346
5479.00,1.2448
5478.00,1.2544
5477.00,1.2636
5476.00,1.2725
5475.00,1.2812
5474.00,1.2896
5473.00,1.2977
5472.00,1.3051
5471.00,1.3117
5470.00,1.3176
5469.00,1.3231
5468.00,1.3287
5467.00,1.3344
5466.00,1.3398
5465.00,1.3447
5464.00,1.3490
5463.00,1.3524
5462.00,1.3552
5461.00,1.3575
5460.00,1.3593
5459.00,1.3609
5458.00,1.3622
5457.00,1.3632
5456.00,1.3639
5455.00,1.3645
5454.00,1.3647
5453.00,1.3644
5452.00,1.3635
5451.00,1.3620
5450.00,1.3600
5449.00,1.3576
5448.00,1.3546
5447.00,1.3510
5446.00,1.3466
5445.00,1.3418
5444.00,1.3366
5443.00,1.3310
5442.00,1.3251
5441.00,1.3190
5440.00,1.3126
5439.00,1.3058
5438.00,1.2983
5437.00,1.2903
5436.00,1.2816
5435.00,1.2723
5434.00,1.2626
5433.00,1.2527
5432.00,1.2426
5431.00,1.2322
5430.00,1.2211
5429.00,1.2094
5428.00,1.1974
5427.00,1.1850
5426.00,1.1722
5425.00,1.1589
5424.00,1.1453
5423.00,1.1315
5422.00,1.1174
5421.00,1.1031
5420.00,1.0883
5419.00,1.0732
5418.00,1.0579
5417.00,1.0426
5416.00,1.0272
5415.00,1.0115
5414.00,0.9957
5413.00,0.9801
5412.00,0.9646
5411.00,0.9493
5410.00,0.9341
5409.00,0.9193
5408.00,0.9048
5407.00,0.8908
5406.00,0.8773
5405.00,0.8643
5404.00,0.8520
5403.00,0.8402
5402.00,0.8289
5401.00,0.8184
5400.00,0.8086
5399.00,0.7994
5398.00,0.7912
5397.00,0.7841
5396.00,0.7779
5395.00,0.7725
5394.00,0.7680
5393.00,0.7643
5392.00,0.7617
5391.00,0.7602
5390.00,0.7598
5389.00,0.7604
5388.00,0.7621
5387.00,0.7647
5386.00,0.7683
5385.00,0.7726
5384.00,0.7778
5383.00,0.7838
5382.00,0.7907
5381.00,0.7983
5380.00,0.8067
5379.00,0.8158
5378.00,0.8256
5377.00,0.8361
5376.00,0.8475
5375.00,0.8595
5374.00,0.8719
5373.00,0.8844
5372.00,0.8970
5371.00,0.9099
5370.00,0.9232
5369.00,0.9369
5368.00,0.9508
5367.00,0.9648
5366.00,0.9789
5365.00,0.9930
5364.00,1.0071
5363.00,1.0213
5362.00,1.0357
5361.00,1.0500
5360.00,1.0642
5359.00,1.0780
5358.00,1.0917
5357.00,1.1052
5356.00,1.1185
5355.00,1.1316
5354.00,1.1446
5353.00,1.1574
5352.00,1.1700
5351.00,1.1824
5350.00,1.1945
5349.00,1.2063
5348.00,1.2177
5347.00,1.2286
5346.00,1.2390
5345.00,1.2489
5344.00,1.2586
5343.00,1.2683
5342.00,1.2780
5341.00,1.2873
5340.00,1.2959
5339.00,1.3040
5338.00,1.3117
5337.00,1.3192
5336.00,1.3265
5335.00,1.3334
5334.00,1.3399
5333.00,1.3458
5332.00,1.3512
5331.00,1.3560
5330.00,1.3603
5329.00,1.3641
5328.00,1.3676
5327.00,1.3707
5326.00,1.3737
5325.00,1.3766
5324.00,1.3791
5323.00,1.3809
5322.00,1.3820
5321.00,1.3825
5320.00,1.3824
5319.00,1.3819
5318.00,1.3809
5317.00,1.3796
5316.00,1.3780
5315.00,1.3762
5314.00,1.3738
5313.00,1.3710
5312.00,1.3677
5311.00,1.3642
5310.00,1.3603
5309.00,1.3557
5308.00,1.3504
5307.00,1.3443
5306.00,1.3376
5305.00,1.3305
5304.00,1.3230
5303.00,1.3154
5302.00,1.3074
5301.00,1.2990
5300.00,1.2900
5299.00,1.2803
5298.00,1.2701
5297.00,1.2595
5296.00,1.2484
5295.00,1.2369
5294.00,1.2249
5293.00,1.2125
5292.00,1.1996
5291.00,1.1862
5290.00,1.1722
5289.00,1.1579
5288.00,1.1433
5287.00,1.1285
5286.00,1.1132
5285.00,1.0976
5284.00,1.0819
5283.00,1.0662
5282.00,1.0505
5281.00,1.0347
5280.00,1.0189
5279.00,1.0031
5278.00,0.9873
5277.00,0.9716
5276.00,0.9560
5275.00,0.9405
5274.00,0.9253
5273.00,0.9106
5272.00,0.8963
5271.00,0.8825
5270.00,0.8693
5269.00,0.8567
5268.00,0.8450
5267.00,0.8341
5266.00,0.8238
5265.00,0.8142
5264.00,0.8054
5263.00,0.7974
5262.00,0.7904
5261.00,0.7845
5260.00,0.7796
5259.00,0.7760
5258.00,0.7736
5257.00,0.7723
5256.00,0.7720
5255.00,0.7726
5254.00,0.7741
5253.00,0.7767
5252.00,0.7802
5251.00,0.7846
5250.00,0.7899
5249.00,0.7961
5248.00,0.8035
5247.00,0.8119
5246.00,0.8211
5245.00,0.8311
5244.00,0.8415
5243.00,0.8525
5242.00,0.8641
5241.00,0.8763
5240.00,0.8888
5239.00,0.9017
5238.00,0.9150
5237.00,0.9287
5236.00,0.9426
5235.00,0.9568
5234.00,0.9712
5233.00,0.9857
5232.00,1.0004
5231.00,1.0151
5230.00,1.0298
5229.00,1.0446
5228.00,1.0592
5227.00,1.0736
5226.00,1.0880
5225.00,1.1023
5224.00,1.1167
5223.00,1.1310
5222.00,1.1450
5221.00,1.1588
5220.00,1.1721
5219.00,1.1852
5218.00,1.1980
5217.00,1.2107
5216.00,1.2231
5215.00,1.2352
5214.00,1.2470
5213.00,1.2584
5212.00,1.2695
5211.00,1.2803
5210.00,1.2907
5209.00,1.3005
5208.00,1.3099
5207.00,1.3190
5206.00,1.3279
5205.00,1.3365
5204.00,1.3449
5203.00,1.3529
5202.00,1.3604
5201.00,1.3673
5200.00,1.3736
5199.00,1.3795
5198.00,1.3850
5197.00,1.3900
5196.00,1.3943
5195.00,1.3980
5194.00,1.4012
5193.00,1.4042
5192.00,1.4068
5191.00,1.4090
5190.00,1.4107
5189.00,1.4121
5188.00,1.4131
5187.00,1.4138
5186.00,1.4141
5185.00,1.4140
5184.00,1.4135
5183.00,1.4124
5182.00,1.4108
5181.00,1.4085
5180.00,1.4057
5179.00,1.4027
5178.00,1.3993
5177.00,1.3955
5176.00,1.3910
5175.00,1.3859
5174.00,1.3803
5173.00,1.3743
5172.00,1.3677
5171.00,1.3609
5170.00,1.3539
5169.00,1.3463
5168.00,1.3381
5167.00,1.3293
5166.00,1.3198
5165.00,1.3098
5164.00,1.2994
5163.00,1.2884
5162.00,1.2770
5161.00,1.2653
5160.00,1.2531
5159.00,1.2402
5158.00,1.2269
5157.00,1.2133
5156.00,1.1993
5155.00,1.1851
5154.00,1.1706
5153.00,1.1556
5152.00,1.1401
5151.00,1.1242
5150.00,1.1078
5149.00,1.0912
5148.00,1.0745
5147.00,1.0577
5146.00,1.0410
5145.00,1.0243
5144.00,1.0076
5143.00,0.9909
5142.00,0.9742
5141.00,0.9576
5140.00,0.9412
5139.00,0.9252
5138.00,0.9096
5137.00,0.8945
5136.00,0.8799
5135.00,0.8659
5134.00,0.8526
5133.00,0.8401
5132.00,0.8284
5131.00,0.8175
5130.00,0.8075
5129.00,0.7984
5128.00,0.7902
5127.00,0.7831
5126.00,0.7771
5125.00,0.7722
5124.00,0.7684
5123.00,0.7658
5122.00,0.7644
5121.00,0.7641
5120.00,0.7650
5119.00,0.7669
5118.00,0.7699
5117.00,0.7739
5116.00,0.7790
5115.00,0.7852
5114.00,0.7923
5113.00,0.8005
5112.00,0.8096
5111.00,0.8194
5110.00,0.8300
5109.00,0.8412
5108.00,0.8531
5107.00,0.8656
5106.00,0.8785
5105.00,0.8920
5104.00,0.9058
5103.00,0.9201
5102.00,0.9347
5101.00,0.9495
5100.00,0.9646
5099.00,0.9797
5098.00,0.9949
5097.00,1.0102
5096.00,1.0257
5095.00,1.0412
5094.00,1.0566
5093.00,1.0720
5092.00,1.0871
5091.00,1.1021
5090.00,1.1171
5089.00,1.1320
5088.00,1.1468
5087.00,1.1614
5086.00,1.1756
5085.00,1.1895
5084.00,1.2031
5083.00,1.2164
5082.00,1.2297
5081.00,1.2426
5080.00,1.2552
5079.00,1.2673
5078.00,1.2790
5077.00,1.2904
5076.00,1.3015
5075.00,1.3124
5074.00,1.3231
5073.00,1.3332
5072.00,1.3428
5071.00,1.3518
5070.00,1.3602
5069.00,1.3682
5068.00,1.3758
5067.00,1.3832
5066.00,1.3902
5065.00,1.3967
5064.00,1.4027
5063.00,1.4082
5062.00,1.4134
5061.00,1.4184
5060.00,1.4230
5059.00,1.4269
5058.00,1.4300
5057.00,1.4324
5056.00,1.4342
5055.00,1.4358
5054.00,1.4371
5053.00,1.4380
5052.00,1.4383
5051.00,1.4378
5050.00,1.4368
5049.00,1.4356
5048.00,1.4343
5047.00,1.4329
5046.00,1.4313
5045.00,1.4292
5044.00,1.4266
5043.00,1.4233
5042.00,1.4191
5041.00,1.4141
5040.00,1.4085
5039.00,1.4024
5038.00,1.3960
5037.00,1.3893
5036.00,1.3822
5035.00,1.3745
5034.00,1.3664
5033.00,1.3578
5032.00,1.3487
5031.00,1.3393
5030.00,1.3292
5029.00,1.3185
5028.00,1.3071
5027.00,1.2952
5026.00,1.2828
5025.00,1.2700
5024.00,1.2568
5023.00,1.2431
5022.00,1.2289
5021.00,1.2143
5020.00,1.1993
5019.00,1.1839
5018.00,1.1680
5017.00,1.1516
5016.00,1.1348
5015.00,1.1178
5014.00,1.1006
5013.00,1.0832
5012.00,1.0656
5011.00,1.0480
5010.00,1.0302
5009.00,1.0124
5008.00,0.9947
5007.00,0.9772
5006.00,0.9598
5005.00,0.9427
5004.00,0.9260
5003.00,0.9096
5002.00,0.8937
5001.00,0.8786
5000.00,0.8641
4999.00,0.8505
4998.00,0.8378
4997.00,0.8259
4996.00,0.8150
4995.00,0.8050
4994.00,0.7960
4993.00,0.7881
4992.00,0.7814
4991.00,0.7758
4990.00,0.7715
4989.00,0.7684
4988.00,0.7665
4987.00,0.7660
4986.00,0.7667
4985.00,0.7686
4984.00,0.7717
4983.00,0.7759
4982.00,0.7813
4981.00,0.7878
4980.00,0.7954
4979.00,0.8041
4978.00,0.8137
4977.00,0.8242
4976.00,0.8355
4975.00,0.8474
4974.00,0.8601
4973.00,0.8734
4972.00,0.8872
4971.00,0.9016
4970.00,0.9164
4969.00,0.9315
4968.00,0.9470
4967.00,0.9628
4966.00,0.9788
4965.00,0.9949
4964.00,1.0112
4963.00,1.0275
4962.00,1.0437
4961.00,1.0599
4960.00,1.0759
4959.00,1.0919
4958.00,1.1078
4957.00,1.1239
4956.00,1.1399
4955.00,1.1557
4954.00,1.1714
4953.00,1.1866
4952.00,1.2016
4951.00,1.2162
4950.00,1.2305
4949.00,1.2443
4948.00,1.2578
4947.00,1.2708
4946.00,1.2836
4945.00,1.2960
4944.00,1.3082
4943.00,1.3200
4942.00,1.3315
4941.00,1.3428
4940.00,1.3538
4939.00,1.3644
4938.00,1.3744
4937.00,1.3837
4936.00,1.3922
4935.00,1.4002
4934.00,1.4078
4933.00,1.4151
4932.00,1.4220
4931.00,1.4286
4930.00,1.4348
4929.00,1.4405
4928.00,1.4454
4927.00,1.4497
4926.00,1.4534
4925.00,1.4566
4924.00,1.4596
4923.00,1.4622
4922.00,1.4646
4921.00,1.4666
4920.00,1.4681
4919.00,1.4690
4918.00,1.4692
4917.00,1.4687
4916.00,1.4677
4915.00,1.4665
4914.00,1.4650
4913.00,1.4631
4912.00,1.4607
4911.00,1.4578
4910.00,1.4543
4909.00,1.4504
4908.00,1.4461
4907.00,1.4414
4906.00,1.4362
4905.00,1.4304
4904.00,1.4240
4903.00,1.4171
4902.00,1.4098
4901.00,1.4020
4900.00,1.3936
4899.00,1.3847
4898.00,1.3752
4897.00,1.3652
4896.00,1.3548
4895.00,1.3439
4894.00,1.3326
4893.00,1.3207
4892.00,1.3082
4891.00,1.2950
4890.00,1.2812
4889.00,1.2667
4888.00,1.2518
4887.00,1.2365
4886.00,1.2209
4885.00,1.2049
4884.00,1.1885
4883.00,1.1716
4882.00,1.1543
4881.00,1.1365
4880.00,1.1184
4879.00,1.1001
4878.00,1.0815
4877.00,1.0628
4876.00,1.0439
4875.00,1.0251
4874.00,1.0063
4873.00,0.9878
4872.00,0.9693
4871.00,0.9512
4870.00,0.9335
4869.00,0.9163
4868.00,0.8996
4867.00,0.8834
4866.00,0.8678
4865.00,0.8528
4864.00,0.8387
4863.00,0.8256
4862.00,0.8136
4861.00,0.8028
4860.00,0.7931
4859.00,0.7845
4858.00,0.7771
4857.00,0.7710
4856.00,0.7662
4855.00,0.7627
4854.00,0.7606
4853.00,0.7599
4852.00,0.7604
4851.00,0.7623
4850.00,0.7655
4849.00,0.7700
4848.00,0.7759
4847.00,0.7828
4846.00,0.7909
4845.00,0.8001
4844.00,0.8103
4843.00,0.8214
4842.00,0.8334
4841.00,0.8461
4840.00,0.8596
4839.00,0.8736
4838.00,0.8882
4837.00,0.9033
4836.00,0.9188
4835.00,0.9348
4834.00,0.9511
4833.00,0.9677
4832.00,0.9846
4831.00,1.0015
4830.00,1.0186
4829.00,1.0356
4828.00,1.0527
4827.00,1.0698
4826.00,1.0868
4825.00,1.1038
4824.00,1.1207
4823.00,1.1374
4822.00,1.1539
4821.00,1.1702
4820.00,1.1863
4819.00,1.2022
4818.00,1.2178
4817.00,1.2330
4816.00,1.2479
4815.00,1.2624
4814.00,1.2767
4813.00,1.2907
4812.00,1.3044
4811.00,1.3177
4810.00,1.3306
4809.00,1.3431
4808.00,1.3551
4807.00,1.3667
4806.00,1.3779
4805.00,1.3887
4804.00,1.3992
4803.00,1.4092
4802.00,1.4186
4801.00,1.4272
4800.00,1.4352
4799.00,1.4426
4798.00,1.4496
4797.00,1.4562
4796.00,1.4624
4795.00,1.4680
4794.00,1.4732
4793.00,1.4780
4792.00,1.4826
4791.00,1.4868
4790.00,1.4905
4789.00,1.4937
4788.00,1.4963
4787.00,1.4983
4786.00,1.4998
4785.00,1.5008
4784.00,1.5012
4783.00,1.5012
4782.00,1.5007
4781.00,1.4995
4780.00,1.4978
4779.00,1.4958
4778.00,1.4933
4777.00,1.4904
4776.00,1.4872
4775.00,1.4836
4774.00,1.4794
4773.00,1.4748
4772.00,1.4696
4771.00,1.4640
4770.00,1.4578
4769.00,1.4510
4768.00,1.4438
4767.00,1.4361
4766.00,1.4278
4765.00,1.4189
4764.00,1.4094
4763.00,1.3994
4762.00,1.3891
4761.00,1.3784
4760.00,1.3670
4759.00,1.3548
4758.00,1.3419
4757.00,1.3283
4756.00,1.3142
4755.00,1.2997
4754.00,1.2848
4753.00,1.2694
4752.00,1.2535
4751.00,1.2371
4750.00,1.2201
4749.00,1.2027
4748.00,1.1848
4747.00,1.1666
4746.00,1.1479
4745.00,1.1289
4744.00,1.1096
4743.00,1.0901
4742.00,1.0705
4741.00,1.0507
4740.00,1.0309
4739.00,1.0113
4738.00,0.9919
4737.00,0.9729
4736.00,0.9543
4735.00,0.9361
4734.00,0.9184
4733.00,0.9013
4732.00,0.8849
4731.00,0.8693
4730.00,0.8546
4729.00,0.8408
4728.00,0.8281
4727.00,0.8165
4726.00,0.8062
4725.00,0.7971
4724.00,0.7894
4723.00,0.7831
4722.00,0.7781
4721.00,0.7747
4720.00,0.7726
4719.00,0.7721
4718.00,0.7730
4717.00,0.7753
4716.00,0.7791
4715.00,0.7842
4714.00,0.7906
4713.00,0.7983
4712.00,0.8072
4711.00,0.8173
4710.00,0.8284
4709.00,0.8406
4708.00,0.8537
4707.00,0.8676
4706.00,0.8822
4705.00,0.8975
4704.00,0.9134
4703.00,0.9297
4702.00,0.9465
4701.00,0.9637
4700.00,0.9811
4699.00,0.9988
4698.00,1.0165
4697.00,1.0344
4696.00,1.0524
4695.00,1.0703
4694.00,1.0883
4693.00,1.1062
4692.00,1.1241
4691.00,1.1420
4690.00,1.1598
4689.00,1.1773
4688.00,1.1945
4687.00,1.2112
4686.00,1.2276
4685.00,1.2438
4684.00,1.2599
4683.00,1.2757
4682.00,1.2911
4681.00,1.3060
4680.00,1.3204
4679.00,1.3342
4678.00,1.3476
4677.00,1.3606
4676.00,1.3731
4675.00,1.3853
4674.00,1.3972
4673.00,1.4086
4672.00,1.4196
4671.00,1.4299
4670.00,1.4395
4669.00,1.4486
4668.00,1.4574
4667.00,1.4659
4666.00,1.4742
4665.00,1.4822
4664.00,1.4897
4663.00,1.4968
4662.00,1.5032
4661.00,1.5089
4660.00,1.5140
4659.00,1.5185
4658.00,1.5226
4657.00,1.5263
4656.00,1.5296
4655.00,1.5324
4654.00,1.5347
4653.00,1.5362
4652.00,1.5373
4651.00,1.5379
4650.00,1.5382
4649.00,1.5383
4648.00,1.5380
4647.00,1.5371
4646.00,1.5354
4645.00,1.5329
4644.00,1.5299
4643.00,1.5265
4642.00,1.5232
4641.00,1.5198
4640.00,1.5161
4639.00,1.5116
4638.00,1.5063
4637.00,1.5000
4636.00,1.4930
4635.00,1.4857
4634.00,1.4782
4633.00,1.4707
4632.00,1.4627
4631.00,1.4542
4630.00,1.4447
4629.00,1.4345
4628.00,1.4236
4627.00,1.4121
4626.00,1.4002
4625.00,1.3877
4624.00,1.3746
4623.00,1.3609
4622.00,1.3466
4621.00,1.3319
4620.00,1.3167
4619.00,1.3010
4618.00,1.2847
4617.00,1.2679
4616.00,1.2506
4615.00,1.2329
4614.00,1.2146
4613.00,1.1959
4612.00,1.1766
4611.00,1.1570
4610.00,1.1370
4609.00,1.1168
4608.00,1.0965
4607.00,1.0760
4606.00,1.0555
4605.00,1.0350
4604.00,1.0145
4603.00,0.9943
4602.00,0.9744
4601.00,0.9548
4600.00,0.9357
4599.00,0.9173
4598.00,0.8996
4597.00,0.8828
4596.00,0.8669
4595.00,0.8519
4594.00,0.8380
4593.00,0.8253
4592.00,0.8138
4591.00,0.8036
4590.00,0.7949
4589.00,0.7877
4588.00,0.7819
4587.00,0.7776
4586.00,0.7748
4585.00,0.7736
4584.00,0.7740
4583.00,0.7759
4582.00,0.7794
4581.00,0.7845
4580.00,0.7909
4579.00,0.7987
4578.00,0.8077
4577.00,0.8180
4576.00,0.8294
4575.00,0.8420
4574.00,0.8555
4573.00,0.8699
4572.00,0.8851
4571.00,0.9008
4570.00,0.9171
4569.00,0.9340
4568.00,0.9514
4567.00,0.9693
4566.00,0.9874
4565.00,1.0058
4564.00,1.0245
4563.00,1.0433
4562.00,1.0623
4561.00,1.0813
4560.00,1.1002
4559.00,1.1190
4558.00,1.1375
4557.00,1.1559
4556.00,1.1742
4555.00,1.1925
4554.00,1.2106
4553.00,1.2283
4552.00,1.2457
4551.00,1.2626
4550.00,1.2792
4549.00,1.2956
4548.00,1.3118
4547.00,1.3277
4546.00,1.3431
4545.00,1.3581
4544.00,1.3725
4543.00,1.3864
4542.00,1.3998
4541.00,1.4126
4540.00,1.4249
4539.00,1.4367
4538.00,1.4482
4537.00,1.4595
4536.00,1.4705
4535.00,1.4810
4534.00,1.4907
4533.00,1.4996
4532.00,1.5078
4531.00,1.5155
4530.00,1.5227
4529.00,1.5295
4528.00,1.5358
4527.00,1.5416
4526.00,1.5471
4525.00,1.5523
4524.00,1.5570
4523.00,1.5613
4522.00,1.5648
4521.00,1.5678
4520.00,1.5701
4519.00,1.5719
4518.00,1.5730
4517.00,1.5736
4516.00,1.5736
4515.00,1.5733
4514.00,1.5728
4513.00,1.5721
4512.00,1.5711
4511.00,1.5695
4510.00,1.5673
4509.00,1.5644
4508.00,1.5610
4507.00,1.5571
4506.00,1.5527
4505.00,1.5478
4504.00,1.5423
4503.00,1.5364
4502.00,1.5299
4501.00,1.5228
4500.00,1.5151
4499.00,1.5069
4498.00,1.4981
4497.00,1.4890
4496.00,1.4794
4495.00,1.4693
4494.00,1.4587
4493.00,1.4473
4492.00,1.4352
4491.00,1.4225
4490.00,1.4093
4489.00,1.3955
4488.00,1.3808
4487.00,1.3653
4486.00,1.3491
4485.00,1.3324
4484.00,1.3154
4483.00,1.2981
4482.00,1.2801
4481.00,1.2615
4480.00,1.2421
4479.00,1.2221
4478.00,1.2017
4477.00,1.1809
4476.00,1.1598
4475.00,1.1385
4474.00,1.1170
4473.00,1.0953
4472.00,1.0735
4471.00,1.0516
4470.00,1.0299
4469.00,1.0084
4468.00,0.9874
4467.00,0.9668
4466.00,0.9468
4465.00,0.9275
4464.00,0.9090
4463.00,0.8915
4462.00,0.8750
4461.00,0.8597
4460.00,0.8455
4459.00,0.8327
4458.00,0.8213
4457.00,0.8114
4456.00,0.8031
4455.00,0.7965
4454.00,0.7915
4453.00,0.7883
4452.00,0.7868
4451.00,0.7870
4450.00,0.7889
4449.00,0.7925
4448.00,0.7977
4447.00,0.8046
4446.00,0.8130
4445.00,0.8228
4444.00,0.8338
4443.00,0.8461
4442.00,0.8595
4441.00,0.8740
4440.00,0.8894
4439.00,0.9057
4438.00,0.9227
4437.00,0.9403
4436.00,0.9585
4435.00,0.9771
4434.00,0.9962
4433.00,1.0157
4432.00,1.0354
4431.00,1.0552
4430.00,1.0752
4429.00,1.0952
4428.00,1.1151
4427.00,1.1351
4426.00,1.1550
4425.00,1.1748
4424.00,1.1942
4423.00,1.2135
4422.00,1.2326
4421.00,1.2514
4420.00,1.2699
4419.00,1.2880
4418.00,1.3057
4417.00,1.3231
4416.00,1.3401
4415.00,1.3569
4414.00,1.3732
4413.00,1.3889
4412.00,1.4040
4411.00,1.4187
4410.00,1.4332
4409.00,1.4474
4408.00,1.4611
4407.00,1.4742
4406.00,1.4867
4405.00,1.4987
4404.00,1.5101
4403.00,1.5211
4402.00,1.5315
4401.00,1.5411
4400.00,1.5499
4399.00,1.5581
4398.00,1.5657
4397.00,1.5727
4396.00,1.5792
4395.00,1.5853
4394.00,1.5912
4393.00,1.5969
4392.00,1.6024
4391.00,1.6073
4390.00,1.6117
4389.00,1.6154
4388.00,1.6183
4387.00,1.6206
4386.00,1.6224
4385.00,1.6236
4384.00,1.6244
4383.00,1.6246
4382.00,1.6244
4381.00,1.6239
4380.00,1.6232
4379.00,1.6223
4378.00,1.6209
4377.00,1.6189
4376.00,1.6163
4375.00,1.6133
4374.00,1.6100
4373.00,1.6062
4372.00,1.6019
4371.00,1.5970
4370.00,1.5916
4369.00,1.5857
4368.00,1.5794
4367.00,1.5727
4366.00,1.5656
4365.00,1.5582
4364.00,1.5503
4363.00,1.5417
4362.00,1.5324
4361.00,1.5225
4360.00,1.5120
4359.00,1.5010
4358.00,1.4893
4357.00,1.4771
4356.00,1.4644
4355.00,1.4514
4354.00,1.4378
4353.00,1.4237
4352.00,1.4087
4351.00,1.3931
4350.00,1.3768
4349.00,1.3601
4348.00,1.3429
4347.00,1.3251
4346.00,1.3068
4345.00,1.2879
4344.00,1.2685
4343.00,1.2485
4342.00,1.2282
4341.00,1.2074
4340.00,1.1863
4339.00,1.1649
4338.00,1.1431
4337.00,1.1211
4336.00,1.0991
4335.00,1.0770
4334.00,1.0552
4333.00,1.0338
4332.00,1.0128
4331.00,0.9925
4330.00,0.9730
4329.00,0.9545
4328.00,0.9369
4327.00,0.9205
4326.00,0.9053
4325.00,0.8915
4324.00,0.8792
4323.00,0.8685
4322.00,0.8594
4321.00,0.8520
4320.00,0.8463
4319.00,0.8424
4318.00,0.8402
4317.00,0.8396
4316.00,0.8408
4315.00,0.8436
4314.00,0.8480
4313.00,0.8541
4312.00,0.8616
4311.00,0.8706
4310.00,0.8809
4309.00,0.8924
4308.00,0.9051
4307.00,0.9188
4306.00,0.9336
4305.00,0.9493
4304.00,0.9658
4303.00,0.9829
4302.00,1.0007
4301.00,1.0190
4300.00,1.0379
4299.00,1.0572
4298.00,1.0767
4297.00,1.0965
4296.00,1.1163
4295.00,1.1363
4294.00,1.1562
4293.00,1.1762
4292.00,1.1961
4291.00,1.2160
4290.00,1.2357
4289.00,1.2549
4288.00,1.2737
4287.00,1.2921
4286.00,1.3102
4285.00,1.3281
4284.00,1.3457
4283.00,1.3630
4282.00,1.3798
4281.00,1.3960
4280.00,1.4118
4279.00,1.4272
4278.00,1.4423
4277.00,1.4570
4276.00,1.4712
4275.00,1.4848
4274.00,1.4978
4273.00,1.5103
4272.00,1.5225
4271.00,1.5342
4270.00,1.5455
4269.00,1.5563
4268.00,1.5665
4267.00,1.5764
4266.00,1.5858
4265.00,1.5947
4264.00,1.6029
4263.00,1.6104
4262.00,1.6173
4261.00,1.6236
4260.00,1.6296
4259.00,1.6354
4258.00,1.6408
4257.00,1.6458
4256.00,1.6504
4255.00,1.6546
4254.00,1.6583
4253.00,1.6614
4252.00,1.6637
4251.00,1.6653
4250.00,1.6662
4249.00,1.6667
4248.00,1.6671
4247.00,1.6673
4246.00,1.6674
4245.00,1.6671
4244.00,1.6662
4243.00,1.6646
4242.00,1.6624
4241.00,1.6596
4240.00,1.6562
4239.00,1.6520
4238.00,1.6472
4237.00,1.6422
4236.00,1.6370
4235.00,1.6317
4234.00,1.6258
4233.00,1.6190
4232.00,1.6112
4231.00,1.6029
4230.00,1.5943
4229.00,1.5855
4228.00,1.5764
4227.00,1.5665
4226.00,1.5559
4225.00,1.5447
4224.00,1.5331
4223.00,1.5211
4222.00,1.5087
4221.00,1.4954
4220.00,1.4811
4219.00,1.4660
4218.00,1.4503
4217.00,1.4342
4216.00,1.4178
4215.00,1.4010
4214.00,1.3834
4213.00,1.3652
4212.00,1.3461
4211.00,1.3263
4210.00,1.3058
4209.00,1.2848
4208.00,1.2634
4207.00,1.2414
4206.00,1.2191
4205.00,1.1964
4204.00,1.1736
4203.00,1.1506
4202.00,1.1277
4201.00,1.1049
4200.00,1.0823
4199.00,1.0601
4198.00,1.0384
4197.00,1.0173
4196.00,0.9970
4195.00,0.9776
4194.00,0.9591
4193.00,0.9418
4192.00,0.9259
4191.00,0.9114
4190.00,0.8985
4189.00,0.8871
4188.00,0.8774
4187.00,0.8693
4186.00,0.8629
4185.00,0.8582
4184.00,0.8553
4183.00,0.8543
4182.00,0.8551
4181.00,0.8578
4180.00,0.8622
4179.00,0.8683
4178.00,0.8759
4177.00,0.8851
4176.00,0.8958
4175.00,0.9078
4174.00,0.9212
4173.00,0.9357
4172.00,0.9513
4171.00,0.9678
4170.00,0.9851
4169.00,1.0030
4168.00,1.0216
4167.00,1.0408
4166.00,1.0604
4165.00,1.0805
4164.00,1.1008
4163.00,1.1212
4162.00,1.1417
4161.00,1.1622
4160.00,1.1827
4159.00,1.2032
4158.00,1.2236
4157.00,1.2440
4156.00,1.2644
4155.00,1.2846
4154.00,1.3045
4153.00,1.3240
4152.00,1.3432
4151.00,1.3619
4150.00,1.3803
4149.00,1.3982
4148.00,1.4157
4147.00,1.4328
4146.00,1.4496
4145.00,1.4659
4144.00,1.4818
4143.00,1.4973
4142.00,1.5125
4141.00,1.5271
4140.00,1.5410
4139.00,1.5542
4138.00,1.5666
4137.00,1.5786
4136.00,1.5902
4135.00,1.6014
4134.00,1.6121
4133.00,1.6225
4132.00,1.6325
4131.00,1.6418
4130.00,1.6504
4129.00,1.6582
4128.00,1.6654
4127.00,1.6723
4126.00,1.6788
4125.00,1.6847
4124.00,1.6898
4123.00,1.6940
4122.00,1.6974
4121.00,1.7006
4120.00,1.7038
4119.00,1.7071
4118.00,1.7100
4117.00,1.7121
4116.00,1.7134
4115.00,1.7141
4114.00,1.7144
4113.00,1.7145
4112.00,1.7141
4111.00,1.7132
4110.00,1.7115
4109.00,1.7091
4108.00,1.7061
4107.00,1.7026
4106.00,1.6988
4105.00,1.6947
4104.00,1.6902
4103.00,1.6852
4102.00,1.6796
4101.00,1.6732
4100.00,1.6660
4099.00,1.6584
4098.00,1.6506
4097.00,1.6426
4096.00,1.6343
4095.00,1.6253
4094.00,1.6151
4093.00,1.6040
4092.00,1.5921
4091.00,1.5798
4090.00,1.5672
4089.00,1.5542
4088.00,1.5407
4087.00,1.5264
4086.00,1.5115
4085.00,1.4959
4084.00,1.4797
4083.00,1.4628
4082.00,1.4452
4081.00,1.4270
4080.00,1.4082
4079.00,1.3887
4078.00,1.3687
4077.00,1.3480
4076.00,1.3267
4075.00,1.3048
4074.00,1.2823
4073.00,1.2594
4072.00,1.2361
4071.00,1.2124
4070.00,1.1885
4069.00,1.1645
4068.00,1.1404
4067.00,1.1163
4066.00,1.0923
4065.00,1.0685
4064.00,1.0452
4063.00,1.0226
4062.00,1.0009
4061.00,0.9802
4060.00,0.9607
4059.00,0.9426
4058.00,0.9260
4057.00,0.9108
4056.00,0.8973
4055.00,0.8855
4054.00,0.8756
4053.00,0.8676
4052.00,0.8616
4051.00,0.8576
4050.00,0.8556
4049.00,0.8557
4048.00,0.8577
4047.00,0.8617
4046.00,0.8676
4045.00,0.8752
4044.00,0.8845
4043.00,0.8954
4042.00,0.9078
4041.00,0.9215
4040.00,0.9366
4039.00,0.9529
4038.00,0.9702
4037.00,0.9884
4036.00,1.0075
4035.00,1.0272
4034.00,1.0476
4033.00,1.0685
4032.00,1.0898
4031.00,1.1114
4030.00,1.1333
4029.00,1.1555
4028.00,1.1778
4027.00,1.2002
4026.00,1.2225
4025.00,1.2448
4024.00,1.2668
4023.00,1.2887
4022.00,1.3103
4021.00,1.3316
4020.00,1.3525
4019.00,1.3731
4018.00,1.3932
4017.00,1.4129
4016.00,1.4322
4015.00,1.4509
4014.00,1.4692
4013.00,1.4869
4012.00,1.5041
4011.00,1.5208
4010.00,1.5372
4009.00,1.5532
4008.00,1.5688
4007.00,1.5838
4006.00,1.5981
4005.00,1.6117
4004.00,1.6246
4003.00,1.6369
4002.00,1.6483
4001.00,1.6591
4000.00,1.6693
3999.00,1.6790
3998.00,1.6884
3997.00,1.6974
3996.00,1.7057
3995.00,1.7133
3994.00,1.7204
3993.00,1.7269
3992.00,1.7332
3991.00,1.7390
3990.00,1.7445
3989.00,1.7494
3988.00,1.7534
3987.00,1.7568
3986.00,1.7597
3985.00,1.7624
3984.00,1.7648
3983.00,1.7667
3982.00,1.7678
3981.00,1.7681
3980.00,1.7678
3979.00,1.7671
3978.00,1.7661
3977.00,1.7647
3976.00,1.7629
3975.00,1.7605
3974.00,1.7577
3973.00,1.7542
3972.00,1.7503
3971.00,1.7460
3970.00,1.7413
3969.00,1.7361
3968.00,1.7301
3967.00,1.7236
3966.00,1.7166
3965.00,1.7094
3964.00,1.7019
3963.00,1.6938
3962.00,1.6851
3961.00,1.6756
3960.00,1.6655
3959.00,1.6549
3958.00,1.6438
3957.00,1.6321
3956.00,1.6197
3955.00,1.6066
3954.00,1.5928
3953.00,1.5782
3952.00,1.5627
3951.00,1.5464
3950.00,1.5295
3949.00,1.5120
3948.00,1.4939
3947.00,1.4754
3946.00,1.4563
3945.00,1.4364
3944.00,1.4156
3943.00,1.3936
3942.00,1.3706
3941.00,1.3470
3940.00,1.3229
3939.00,1.2985
3938.00,1.2738
3937.00,1.2488
3936.00,1.2234
3935.00,1.1978
3934.00,1.1717
3933.00,1.1453
3932.00,1.1188
3931.00,1.0924
3930.00,1.0667
3929.00,1.0420
3928.00,1.0184
3927.00,0.9960
3926.00,0.9746
3925.00,0.9542
3924.00,0.9351
3923.00,0.9176
3922.00,0.9021
3921.00,0.8887
3920.00,0.8774
3919.00,0.8681
3918.00,0.8609
3917.00,0.8558
3916.00,0.8530
3915.00,0.8526
3914.00,0.8549
3913.00,0.8598
3912.00,0.8672
3911.00,0.8767
3910.00,0.8883
3909.00,0.9014
3908.00,0.9161
3907.00,0.9322
3906.00,0.9497
3905.00,0.9687
3904.00,0.9890
3903.00,1.0104
3902.00,1.0325
3901.00,1.0552
3900.00,1.0786
3899.00,1.1028
3898.00,1.1276
3897.00,1.1524
3896.00,1.1768
3895.00,1.2008
3894.00,1.2244
3893.00,1.2481
3892.00,1.2721
3891.00,1.2966
3890.00,1.3212
3889.00,1.3450
3888.00,1.3674
3887.00,1.3887
3886.00,1.4100
3885.00,1.4320
3884.00,1.4542
3883.00,1.4756
3882.00,1.4958
3881.00,1.5151
3880.00,1.5341
3879.00,1.5530
3878.00,1.5714
3877.00,1.5887
3876.00,1.6048
3875.00,1.6198
3874.00,1.6342
3873.00,1.6482
3872.00,1.6617
3871.00,1.6748
3870.00,1.6874
3869.00,1.6996
3868.00,1.7110
3867.00,1.7215
3866.00,1.7314
3865.00,1.7408
3864.00,1.7499
3863.00,1.7583
3862.00,1.7661
3861.00,1.7732
3860.00,1.7799
3859.00,1.7857
3858.00,1.7905
3857.00,1.7945
3856.00,1.7982
3855.00,1.8013
3854.00,1.8034
3853.00,1.8045
3852.00,1.8049
3851.00,1.8055
3850.00,1.8067
3849.00,1.8086
3848.00,1.8108
3847.00,1.8126
3846.00,1.8132
3845.00,1.8124
3844.00,1.8102
3843.00,1.8069
3842.00,1.8027
3841.00,1.7978
3840.00,1.7923
3839.00,1.7863
3838.00,1.7800
3837.00,1.7736
3836.00,1.7670
3835.00,1.7600
3834.00,1.7525
3833.00,1.7445
3832.00,1.7360
3831.00,1.7271
3830.00,1.7178
3829.00,1.7080
3828.00,1.6976
3827.00,1.6864
3826.00,1.6747
3825.00,1.6629
3824.00,1.6508
3823.00,1.6376
3822.00,1.6223
3821.00,1.6050
3820.00,1.5873
3819.00,1.5705
3818.00,1.5543
3817.00,1.5373
3816.00,1.5184
3815.00,1.4979
3814.00,1.4768
3813.00,1.4558
3812.00,1.4347
3811.00,1.4133
3810.00,1.3913
3809.00,1.3682
3808.00,1.3428
3807.00,1.3148
3806.00,1.2855
3805.00,1.2569
3804.00,1.2296
3803.00,1.2025
3802.00,1.1738
3801.00,1.1435
3800.00,1.1135
3799.00,1.0854
3798.00,1.0592
3797.00,1.0341
3796.00,1.0100
3795.00,0.9871
3794.00,0.9661
3793.00,0.9469
3792.00,0.9297
3791.00,0.9144
3790.00,0.9012
3789.00,0.8902
3788.00,0.8815
3787.00,0.8752
3786.00,0.8713
3785.00,0.8699
3784.00,0.8709
3783.00,0.8744
3782.00,0.8806
3781.00,0.8893
3780.00,0.9003
3779.00,0.9133
3778.00,0.9281
3777.00,0.9444
3776.00,0.9624
3775.00,0.9819
3774.00,1.0030
3773.00,1.0250
3772.00,1.0480
3771.00,1.0718
3770.00,1.0965
3769.00,1.1220
3768.00,1.1477
3767.00,1.1731
3766.00,1.1985
3765.00,1.2243
3764.00,1.2503
3763.00,1.2758
3762.00,1.3005
3761.00,1.3247
3760.00,1.3488
3759.00,1.3731
3758.00,1.3972
3757.00,1.4207
3756.00,1.4431
3755.00,1.4641
3754.00,1.4839
3753.00,1.5034
3752.00,1.5231
3751.00,1.5433
3750.00,1.5638
3749.00,1.5843
3748.00,1.6039
3747.00,1.6221
3746.00,1.6393
3745.00,1.6565
3744.00,1.6747
3743.00,1.6932
3742.00,1.7106
3741.00,1.7260
3740.00,1.7399
3739.00,1.7528
3738.00,1.7649
3737.00,1.7767
3736.00,1.7881
3735.00,1.7991
3734.00,1.8093
3733.00,1.8187
3732.00,1.8274
3731.00,1.8357
3730.00,1.8436
3729.00,1.8511
3728.00,1.8583
3727.00,1.8648
3726.00,1.8703
3725.00,1.8744
3724.00,1.8773
3723.00,1.8791
3722.00,1.8804
3721.00,1.8816
3720.00,1.8828
3719.00,1.8837
3718.00,1.8845
3717.00,1.8849
3716.00,1.8846
3715.00,1.8833
3714.00,1.8810
3713.00,1.8779
3712.00,1.8741
3711.00,1.8695
3710.00,1.8642
3709.00,1.8586
3708.00,1.8530
3707.00,1.8476
3706.00,1.8423
3705.00,1.8367
3704.00,1.8301
3703.00,1.8221
3702.00,1.8128
3701.00,1.8025
3700.00,1.7915
3699.00,1.7803
3698.00,1.7688
3697.00,1.7569
3696.00,1.7444
3695.00,1.7314
3694.00,1.7176
3693.00,1.7031
3692.00,1.6877
3691.00,1.6714
3690.00,1.6541
3689.00,1.6353
3688.00,1.6151
3687.00,1.5943
3686.00,1.5738
3685.00,1.5539
3684.00,1.5341
3683.00,1.5140
3682.00,1.4930
3681.00,1.4710
3680.00,1.4481
3679.00,1.4253
3678.00,1.4026
3677.00,1.3791
3676.00,1.3531
3675.00,1.3252
3674.00,1.2982
3673.00,1.2743
3672.00,1.2534
3671.00,1.2336
3670.00,1.2138
3669.00,1.1945
3668.00,1.1768
3667.00,1.1617
3666.00,1.1495
3665.00,1.1400
3664.00,1.1326
3663.00,1.1271
3662.00,1.1233
3661.00,1.1213
3660.00,1.1214
3659.00,1.1237
3658.00,1.1282
3657.00,1.1345
3656.00,1.1424
3655.00,1.1516
3654.00,1.1620
3653.00,1.1740
3652.00,1.1876
3651.00,1.2031
3650.00,1.2204
3649.00,1.2387
3648.00,1.2576
3647.00,1.2769
3646.00,1.2966
3645.00,1.3170
3644.00,1.3379
3643.00,1.3594
3642.00,1.3814
3641.00,1.4036
3640.00,1.4258
3639.00,1.4478
3638.00,1.4697
3637.00,1.4913
3636.00,1.5125
3635.00,1.5333
3634.00,1.5536
3633.00,1.5732
3632.00,1.5920
3631.00,1.6100
3630.00,1.6281
3629.00,1.6471
3628.00,1.6672
3627.00,1.6872
3626.00,1.7060
3625.00,1.7237
3624.00,1.7405
3623.00,1.7563
3622.00,1.7708
3621.00,1.7842
3620.00,1.7972
3619.00,1.8103
3618.00,1.8234
3617.00,1.8363
3616.00,1.8487
3615.00,1.8605
3614.00,1.8716
3613.00,1.8820
3612.00,1.8917
3611.00,1.9010
3610.00,1.9101
3609.00,1.9193
3608.00,1.9286
3607.00,1.9377
3606.00,1.9462
3605.00,1.9539
3604.00,1.9609
3603.00,1.9672
3602.00,1.9728
3601.00,1.9784
3600.00,1.9842
3599.00,1.9902
3598.00,1.9958
3597.00,2.0006
3596.00,2.0047
3595.00,2.0085
3594.00,2.0121
3593.00,2.0156
3592.00,2.0192
3591.00,2.0225
3590.00,2.0251
3589.00,2.0270
3588.00,2.0285
3587.00,2.0298
3586.00,2.0308
3585.00,2.0316
3584.00,2.0322
3583.00,2.0325
3582.00,2.0325
3581.00,2.0320
3580.00,2.0308
3579.00,2.0289
3578.00,2.0264
3577.00,2.0235
3576.00,2.0203
3575.00,2.0167
3574.00,2.0129
3573.00,2.0090
3572.00,2.0050
3571.00,2.0007
3570.00,1.9958
3569.00,1.9903
3568.00,1.9843
3567.00,1.9780
3566.00,1.9713
3565.00,1.9644
3564.00,1.9574
3563.00,1.9502
3562.00,1.9427
3561.00,1.9347
3560.00,1.9264
3559.00,1.9181
3558.00,1.9095
3557.00,1.9006
3556.00,1.8914
3555.00,1.8818
3554.00,1.8718
3553.00,1.8614
3552.00,1.8505
3551.00,1.8396
3550.00,1.8289
3549.00,1.8183
3548.00,1.8077
3547.00,1.7966
3546.00,1.7852
3545.00,1.7738
3544.00,1.7626
3543.00,1.7517
3542.00,1.7409
3541.00,1.7304
3540.00,1.7202
3539.00,1.7102
3538.00,1.7003
3537.00,1.6906
3536.00,1.6811
3535.00,1.6721
3534.00,1.6635
3533.00,1.6554
3532.00,1.6477
3531.00,1.6405
3530.00,1.6338
3529.00,1.6274
3528.00,1.6214
3527.00,1.6158
3526.00,1.6108
3525.00,1.6066
3524.00,1.6032
3523.00,1.6005
3522.00,1.5986
3521.00,1.5972
3520.00,1.5965
3519.00,1.5965
3518.00,1.5974
3517.00,1.5989
3516.00,1.6010
3515.00,1.6034
3514.00,1.6062
3513.00,1.6093
3512.00,1.6130
3511.00,1.6173
3510.00,1.6223
3509.00,1.6279
3508.00,1.6339
3507.00,1.6405
3506.00,1.6476
3505.00,1.6553
3504.00,1.6635
3503.00,1.6719
3502.00,1.6806
3501.00,1.6897
3500.00,1.6993
3499.00,1.7093
3498.00,1.7195
3497.00,1.7299
3496.00,1.7405
3495.00,1.7513
3494.00,1.7621
3493.00,1.7730
3492.00,1.7843
3491.00,1.7959
3490.00,1.8074
3489.00,1.8188
3488.00,1.8302
3487.00,1.8417
3486.00,1.8533
3485.00,1.8651
3484.00,1.8768
3483.00,1.8882
3482.00,1.8991
3481.00,1.9096
3480.00,1.9200
3479.00,1.9306
3478.00,1.9415
3477.00,1.9523
3476.00,1.9627
3475.00,1.9726
3474.00,1.9822
3473.00,1.9918
3472.00,2.0012
3471.00,2.0103
3470.00,2.0189
3469.00,2.0269
3468.00,2.0346
3467.00,2.0423
3466.00,2.0498
3465.00,2.0573
3464.00,2.0645
3463.00,2.0712
3462.00,2.0771
3461.00,2.0821
3460.00,2.0865
3459.00,2.0908
3458.00,2.0954
3457.00,2.1004
3456.00,2.1052
3455.00,2.1091
3454.00,2.1119
3453.00,2.1140
3452.00,2.1159
3451.00,2.1177
3450.00,2.1193
3449.00,2.1208
3448.00,2.1218
3447.00,2.1223
3446.00,2.1223
3445.00,2.1216
3444.00,2.1204
3443.00,2.1188
3442.00,2.1170
3441.00,2.1150
3440.00,2.1129
3439.00,2.1104
3438.00,2.1075
3437.00,2.1042
3436.00,2.1006
3435.00,2.0968
3434.00,2.0928
3433.00,2.0885
3432.00,2.0838
3431.00,2.0787
3430.00,2.0733
3429.00,2.0677
3428.00,2.0618
3427.00,2.0552
3426.00,2.0478
3425.00,2.0397
3424.00,2.0313
3423.00,2.0229
3422.00,2.0144
3421.00,2.0060
3420.00,1.9977
3419.00,1.9897
3418.00,1.9817
3417.00,1.9736
3416.00,1.9652
3415.00,1.9565
3414.00,1.9478
3413.00,1.9396
3412.00,1.9317
3411.00,1.9237
3410.00,1.9149
3409.00,1.9052
3408.00,1.8951
3407.00,1.8851
3406.00,1.8751
3405.00,1.8646
3404.00,1.8529
3403.00,1.8401
3402.00,1.8264
3401.00,1.8123
3400.00,1.7981
3399.00,1.7835
3398.00,1.7682
3397.00,1.7521
3396.00,1.7353
3395.00,1.7181
3394.00,1.7005
3393.00,1.6829
3392.00,1.6656
3391.00,1.6484
3390.00,1.6314
3389.00,1.6148
3388.00,1.5987
3387.00,1.5836
3386.00,1.5694
3385.00,1.5561
3384.00,1.5435
3383.00,1.5317
3382.00,1.5212
3381.00,1.5119
3380.00,1.5041
3379.00,1.4977
3378.00,1.4927
3377.00,1.4892
3376.00,1.4875
3375.00,1.4875
3374.00,1.4891
3373.00,1.4921
3372.00,1.4964
3371.00,1.5020
3370.00,1.5089
3369.00,1.5171
3368.00,1.5268
3367.00,1.5377
3366.00,1.5497
3365.00,1.5624
3364.00,1.5759
3363.00,1.5902
3362.00,1.6053
3361.00,1.6210
3360.00,1.6370
3359.00,1.6531
3358.00,1.6694
3357.00,1.6861
3356.00,1.7033
3355.00,1.7207
3354.00,1.7381
3353.00,1.7552
3352.00,1.7722
3351.00,1.7891
3350.00,1.8061
3349.00,1.8229
3348.00,1.8392
3347.00,1.8549
3346.00,1.8703
3345.00,1.8854
3344.00,1.9003
3343.00,1.9150
3342.00,1.9295
3341.00,1.9436
3340.00,1.9571
3339.00,1.9699
3338.00,1.9820
3337.00,1.9934
3336.00,2.0043
3335.00,2.0149
3334.00,2.0254
3333.00,2.0357
3332.00,2.0456
3331.00,2.0549
3330.00,2.0638
3329.00,2.0722
3328.00,2.0802
3327.00,2.0873
3326.00,2.0936
3325.00,2.0991
3324.00,2.1040
3323.00,2.1084
3322.00,2.1128
3321.00,2.1172
3320.00,2.1214
3319.00,2.1251
3318.00,2.1281
3317.00,2.1305
3316.00,2.1328
3315.00,2.1347
3314.00,2.1359
3313.00,2.1364
3312.00,2.1362
3311.00,2.1359
3310.00,2.1356
3309.00,2.1353
3308.00,2.1347
3307.00,2.1334
3306.00,2.1315
3305.00,2.1291
3304.00,2.1262
3303.00,2.1229
3302.00,2.1188
3301.00,2.1139
3300.00,2.1083
3299.00,2.1022
3298.00,2.0957
3297.00,2.0888
3296.00,2.0813
3295.00,2.0734
3294.00,2.0655
3293.00,2.0574
3292.00,2.0489
3291.00,2.0398
3290.00,2.0299
3289.00,2.0194
3288.00,2.0085
3287.00,1.9971
3286.00,1.9852
3285.00,1.9730
3284.00,1.9605
3283.00,1.9476
3282.00,1.9339
3281.00,1.9197
3280.00,1.9049
3279.00,1.8897
3278.00,1.8742
3277.00,1.8585
3276.00,1.8424
3275.00,1.8258
3274.00,1.8088
3273.00,1.7914
3272.00,1.7738
3271.00,1.7561
3270.00,1.7382
3269.00,1.7202
3268.00,1.7024
3267.00,1.6848
3266.00,1.6674
3265.00,1.6502
3264.00,1.6334
3263.00,1.6173
3262.00,1.6018
3261.00,1.5869
3260.00,1.5728
3259.00,1.5595
3258.00,1.5474
3257.00,1.5365
3256.00,1.5268
3255.00,1.5183
3254.00,1.5111
3253.00,1.5052
3252.00,1.5007
3251.00,1.4976
3250.00,1.4959
3249.00,1.4957
3248.00,1.4970
3247.00,1.4998
3246.00,1.5041
3245.00,1.5099
3244.00,1.5168
3243.00,1.5249
3242.00,1.5341
3241.00,1.5444
3240.00,1.5558
3239.00,1.5682
3238.00,1.5814
3237.00,1.5954
3236.00,1.6101
3235.00,1.6254
3234.00,1.6411
3233.00,1.6573
3232.00,1.6740
3231.00,1.6911
3230.00,1.7083
3229.00,1.7255
3228.00,1.7427
3227.00,1.7601
3226.00,1.7777
3225.00,1.7954
3224.00,1.8130
3223.00,1.8307
3222.00,1.8481
3221.00,1.8653
3220.00,1.8819
3219.00,1.8980
3218.00,1.9138
3217.00,1.9295
3216.00,1.9450
3215.00,1.9603
3214.00,1.9752
3213.00,1.9896
3212.00,2.0034
3211.00,2.0166
3210.00,2.0293
3209.00,2.0416
3208.00,2.0534
3207.00,2.0646
3206.00,2.0752
3205.00,2.0856
3204.00,2.0959
3203.00,2.1058
3202.00,2.1150
3201.00,2.1236
3200.00,2.1316
3199.00,2.1391
3198.00,2.1461
3197.00,2.1526
3196.00,2.1586
3195.00,2.1641
3194.00,2.1689
3193.00,2.1733
3192.00,2.1775
3191.00,2.1815
3190.00,2.1854
3189.00,2.1890
3188.00,2.1924
3187.00,2.1953
3186.00,2.1974
3185.00,2.1989
3184.00,2.1999
3183.00,2.2004
3182.00,2.2005
3181.00,2.2003
3180.00,2.1998
3179.00,2.1991
3178.00,2.1980
3177.00,2.1966
3176.00,2.1950
3175.00,2.1933
3174.00,2.1914
3173.00,2.1889
3172.00,2.1856
3171.00,2.1814
3170.00,2.1766
3169.00,2.1713
3168.00,2.1658
3167.00,2.1601
3166.00,2.1542
3165.00,2.1479
3164.00,2.1411
3163.00,2.1336
3162.00,2.1257
3161.00,2.1170
3160.00,2.1074
3159.00,2.0967
3158.00,2.0855
3157.00,2.0739
3156.00,2.0621
3155.00,2.0497
3154.00,2.0370
3153.00,2.0242
3152.00,2.0114
3151.00,1.9982
3150.00,1.9840
3149.00,1.9687
3148.00,1.9526
3147.00,1.9360
3146.00,1.9190
3145.00,1.9016
3144.00,1.8838
3143.00,1.8655
3142.00,1.8468
3141.00,1.8281
3140.00,1.8094
3139.00,1.7907
3138.00,1.7717
3137.00,1.7528
3136.00,1.7341
3135.00,1.7158
3134.00,1.6979
3133.00,1.6804
3132.00,1.6635
3131.00,1.6474
3130.00,1.6321
3129.00,1.6177
3128.00,1.6043
3127.00,1.5922
3126.00,1.5817
3125.00,1.5728
3124.00,1.5656
3123.00,1.5598
3122.00,1.5556
3121.00,1.5529
3120.00,1.5519
3119.00,1.5527
3118.00,1.5554
3117.00,1.5600
3116.00,1.5665
3115.00,1.5746
3114.00,1.5841
3113.00,1.5949
3112.00,1.6069
3111.00,1.6200
3110.00,1.6340
3109.00,1.6491
3108.00,1.6651
3107.00,1.6820
3106.00,1.6996
3105.00,1.7177
3104.00,1.7364
3103.00,1.7555
3102.00,1.7747
3101.00,1.7941
3100.00,1.8138
3099.00,1.8337
3098.00,1.8535
3097.00,1.8733
3096.00,1.8931
3095.00,1.9125
3094.00,1.9313
3093.00,1.9495
3092.00,1.9675
3091.00,1.9855
3090.00,2.0032
3089.00,2.0205
3088.00,2.0372
3087.00,2.0535
3086.00,2.0694
3085.00,2.0848
3084.00,2.0994
3083.00,2.1132
3082.00,2.1264
3081.00,2.1391
3080.00,2.1513
3079.00,2.1630
3078.00,2.1741
3077.00,2.1848
3076.00,2.1948
3075.00,2.2039
3074.00,2.2124
3073.00,2.2206
3072.00,2.2285
3071.00,2.2358
3070.00,2.2423
3069.00,2.2483
3068.00,2.2540
3067.00,2.2596
3066.00,2.2645
3065.00,2.2686
3064.00,2.2720
3063.00,2.2748
3062.00,2.2768
3061.00,2.2780
3060.00,2.2781
3059.00,2.2777
3058.00,2.2772
3057.00,2.2768
3056.00,2.2758
3055.00,2.2737
3054.00,2.2703
3053.00,2.2664
3052.00,2.2629
3051.00,2.2593
3050.00,2.2549
3049.00,2.2494
3048.00,2.2429
3047.00,2.2355
3046.00,2.2271
3045.00,2.2176
3044.00,2.2072
3043.00,2.1961
3042.00,2.1845
3041.00,2.1724
3040.00,2.1600
3039.00,2.1471
3038.00,2.1332
3037.00,2.1179
3036.00,2.1012
3035.00,2.0839
3034.00,2.0663
3033.00,2.0485
3032.00,2.0303
3031.00,2.0112
3030.00,1.9912
3029.00,1.9702
3028.00,1.9484
3027.00,1.9262
3026.00,1.9043
3025.00,1.8829
3024.00,1.8616
3023.00,1.8404
3022.00,1.8192
3021.00,1.7986
3020.00,1.7791
3019.00,1.7613
3018.00,1.7454
3017.00,1.7317
3016.00,1.7206
3015.00,1.7120
3014.00,1.7063
3013.00,1.7038
3012.00,1.7047
3011.00,1.7091
3010.00,1.7171
3009.00,1.7287
3008.00,1.7439
3007.00,1.7625
3006.00,1.7841
3005.00,1.8082
3004.00,1.8346
3003.00,1.8630
3002.00,1.8932
3001.00,1.9251
3000.00,1.9584
2999.00,1.9927
2998.00,2.0275
2997.00,2.0623
2996.00,2.0965
2995.00,2.1300
2994.00,2.1629
2993.00,2.1951
2992.00,2.2267
2991.00,2.2578
2990.00,2.2883
2989.00,2.3178
2988.00,2.3459
2987.00,2.3725
2986.00,2.3979
2985.00,2.4225
2984.00,2.4464
2983.00,2.4700
2982.00,2.4933
2981.00,2.5164
2980.00,2.5395
2979.00,2.5642
2978.00,2.5923
2977.00,2.6246
2976.00,2.6600
2975.00,2.6973
2974.00,2.7371
2973.00,2.7825
2972.00,2.8356
2971.00,2.8962
2970.00,2.9628
2969.00,3.0348
2968.00,3.1114
2967.00,3.1885
2966.00,3.2607
2965.00,3.3273
2964.00,3.3956
2963.00,3.4733
2962.00,3.5583
2961.00,3.6361
2960.00,3.6929
2959.00,3.7349
2958.00,3.7841
2957.00,3.8535
2956.00,3.9378
2955.00,4.0327
2954.00,4.1474
2953.00,4.2592
2952.00,4.3059
2951.00,4.3045
2950.00,4.3298
2949.00,4.3617
2948.00,4.3085
2947.00,4.2567
2946.00,4.2772
2945.00,4.4253
2944.00,4.7427
2943.00,4.7734
2942.00,4.5347
2941.00,4.3869
2940.00,4.4943
2939.00,4.8634
2938.00,4.9595
2937.00,4.7843
2936.00,4.6075
2935.00,4.5563
2934.00,4.5748
2933.00,4.6397
2932.00,4.6569
2931.00,4.5169
2930.00,4.4014
2929.00,4.3677
2928.00,4.3543
2927.00,4.3079
2926.00,4.2545
2925.00,4.2214
2924.00,4.2091
2923.00,4.1958
2922.00,4.1476
2921.00,4.0393
2920.00,3.9020
2919.00,3.7785
2918.00,3.6857
2917.00,3.6224
2916.00,3.5714
2915.00,3.5121
2914.00,3.4372
2913.00,3.3573
2912.00,3.2868
2911.00,3.2303
2910.00,3.1851
2909.00,3.1479
2908.00,3.1167
2907.00,3.0897
2906.00,3.0638
2905.00,3.0374
2904.00,3.0114
2903.00,2.9873
2902.00,2.9652
2901.00,2.9443
2900.00,2.9244
2899.00,2.9058
2898.00,2.8885
2897.00,2.8722
2896.00,2.8578
2895.00,2.8459
2894.00,2.8366
2893.00,2.8291
2892.00,2.8230
2891.00,2.8184
2890.00,2.8157
2889.00,2.8160
2888.00,2.8199
2887.00,2.8272
2886.00,2.8372
2885.00,2.8486
2884.00,2.8611
2883.00,2.8750
2882.00,2.8903
2881.00,2.9072
2880.00,2.9260
2879.00,2.9477
2878.00,2.9742
2877.00,3.0074
2876.00,3.0490
2875.00,3.0985
2874.00,3.1539
2873.00,3.2127
2872.00,3.2742
2871.00,3.3385
2870.00,3.4038
2869.00,3.4643
2868.00,3.5160
2867.00,3.5639
2866.00,3.6177
2865.00,3.6782
2864.00,3.7293
2863.00,3.7489
2862.00,3.7357
2861.00,3.7081
2860.00,3.6765
2859.00,3.6337
2858.00,3.5658
2857.00,3.4710
2856.00,3.3611
2855.00,3.2502
2854.00,3.1463
2853.00,3.0503
2852.00,2.9611
2851.00,2.8784
2850.00,2.8038
2849.00,2.7394
2848.00,2.6858
2847.00,2.6425
2846.00,2.6088
2845.00,2.5839
2844.00,2.5663
2843.00,2.5537
2842.00,2.5435
2841.00,2.5341
2840.00,2.5255
2839.00,2.5179
2838.00,2.5112
2837.00,2.5044
2836.00,2.4965
2835.00,2.4880
2834.00,2.4796
2833.00,2.4716
2832.00,2.4635
2831.00,2.4548
2830.00,2.4455
2829.00,2.4357
2828.00,2.4252
2827.00,2.4133
2826.00,2.3995
2825.00,2.3841
2824.00,2.3676
2823.00,2.3499
2822.00,2.3306
2821.00,2.3094
2820.00,2.2865
2819.00,2.2624
2818.00,2.2370
2817.00,2.2097
2816.00,2.1802
2815.00,2.1487
2814.00,2.1159
2813.00,2.0823
2812.00,2.0479
2811.00,2.0129
2810.00,1.9769
2809.00,1.9400
2808.00,1.9024
2807.00,1.8645
2806.00,1.8269
2805.00,1.7904
2804.00,1.7557
2803.00,1.7237
2802.00,1.6947
2801.00,1.6692
2800.00,1.6474
2799.00,1.6289
2798.00,1.6134
2797.00,1.6002
2796.00,1.5888
2795.00,1.5791
2794.00,1.5713
2793.00,1.5660
2792.00,1.5638
2791.00,1.5652
2790.00,1.5704
2789.00,1.5797
2788.00,1.5929
2787.00,1.6101
2786.00,1.6309
2785.00,1.6547
2784.00,1.6809
2783.00,1.7090
2782.00,1.7384
2781.00,1.7686
2780.00,1.7992
2779.00,1.8301
2778.00,1.8611
2777.00,1.8919
2776.00,1.9221
2775.00,1.9514
2774.00,1.9798
2773.00,2.0074
2772.00,2.0344
2771.00,2.0608
2770.00,2.0865
2769.00,2.1113
2768.00,2.1350
2767.00,2.1577
2766.00,2.1792
2765.00,2.1995
2764.00,2.2185
2763.00,2.2359
2762.00,2.2523
2761.00,2.2683
2760.00,2.2838
2759.00,2.2985
2758.00,2.3116
2757.00,2.3234
2756.00,2.3341
2755.00,2.3439
2754.00,2.3529
2753.00,2.3616
2752.00,2.3703
2751.00,2.3786
2750.00,2.3863
2749.00,2.3936
2748.00,2.4006
2747.00,2.4072
2746.00,2.4127
2745.00,2.4168
2744.00,2.4195
2743.00,2.4214
2742.00,2.4228
2741.00,2.4238
2740.00,2.4243
2739.00,2.4240
2738.00,2.4232
2737.00,2.4222
2736.00,2.4211
2735.00,2.4196
2734.00,2.4168
2733.00,2.4126
2732.00,2.4073
2731.00,2.4016
2730.00,2.3956
2729.00,2.3892
2728.00,2.3823
2727.00,2.3751
2726.00,2.3675
2725.00,2.3590
2724.00,2.3493
2723.00,2.3389
2722.00,2.3282
2721.00,2.3171
2720.00,2.3052
2719.00,2.2923
2718.00,2.2782
2717.00,2.2629
2716.00,2.2464
2715.00,2.2289
2714.00,2.2105
2713.00,2.1915
2712.00,2.1719
2711.00,2.1516
2710.00,2.1303
2709.00,2.1077
2708.00,2.0836
2707.00,2.0582
2706.00,2.0315
2705.00,2.0038
2704.00,1.9749
2703.00,1.9448
2702.00,1.9134
2701.00,1.8810
2700.00,1.8475
2699.00,1.8131
2698.00,1.7782
2697.00,1.7429
2696.00,1.7077
2695.00,1.6728
2694.00,1.6386
2693.00,1.6055
2692.00,1.5741
2691.00,1.5448
2690.00,1.5183
2689.00,1.4952
2688.00,1.4763
2687.00,1.4621
2686.00,1.4529
2685.00,1.4490
2684.00,1.4505
2683.00,1.4572
2682.00,1.4686
2681.00,1.4838
2680.00,1.5021
2679.00,1.5223
2678.00,1.5434
2677.00,1.5648
2676.00,1.5858
2675.00,1.6063
2674.00,1.6263
2673.00,1.6462
2672.00,1.6662
2671.00,1.6861
2670.00,1.7055
2669.00,1.7241
2668.00,1.7420
2667.00,1.7595
2666.00,1.7770
2665.00,1.7952
2664.00,1.8147
2663.00,1.8360
2662.00,1.8591
2661.00,1.8837
2660.00,1.9095
2659.00,1.9362
2658.00,1.9633
2657.00,1.9904
2656.00,2.0173
2655.00,2.0439
2654.00,2.0701
2653.00,2.0956
2652.00,2.1201
2651.00,2.1435
2650.00,2.1658
2649.00,2.1870
2648.00,2.2073
2647.00,2.2267
2646.00,2.2453
2645.00,2.2628
2644.00,2.2789
2643.00,2.2935
2642.00,2.3074
2641.00,2.3211
2640.00,2.3351
2639.00,2.3494
2638.00,2.3637
2637.00,2.3780
2636.00,2.3920
2635.00,2.4051
2634.00,2.4167
2633.00,2.4257
2632.00,2.4326
2631.00,2.4388
2630.00,2.4460
2629.00,2.4546
2628.00,2.4633
2627.00,2.4712
2626.00,2.4782
2625.00,2.4845
2624.00,2.4897
2623.00,2.4938
2622.00,2.4972
2621.00,2.5005
2620.00,2.5034
2619.00,2.5056
2618.00,2.5071
2617.00,2.5086
2616.00,2.5099
2615.00,2.5101
2614.00,2.5086
2613.00,2.5060
2612.00,2.5033
2611.00,2.5013
2610.00,2.5004
2609.00,2.5006
2608.00,2.5005
2607.00,2.4986
2606.00,2.4941
2605.00,2.4873
2604.00,2.4795
2603.00,2.4715
2602.00,2.4641
2601.00,2.4572
2600.00,2.4503
2599.00,2.4429
2598.00,2.4346
2597.00,2.4252
2596.00,2.4147
2595.00,2.4028
2594.00,2.3902
2593.00,2.3774
2592.00,2.3651
2591.00,2.3527
2590.00,2.3396
2589.00,2.3251
2588.00,2.3093
2587.00,2.2921
2586.00,2.2738
2585.00,2.2545
2584.00,2.2344
2583.00,2.2136
2582.00,2.1918
2581.00,2.1688
2580.00,2.1447
2579.00,2.1195
2578.00,2.0937
2577.00,2.0672
2576.00,2.0397
2575.00,2.0106
2574.00,1.9800
2573.00,1.9482
2572.00,1.9153
2571.00,1.8816
2570.00,1.8467
2569.00,1.8110
2568.00,1.7744
2567.00,1.7373
2566.00,1.6997
2565.00,1.6618
2564.00,1.6238
2563.00,1.5863
2562.00,1.5499
2561.00,1.5153
2560.00,1.4828
2559.00,1.4530
2558.00,1.4263
2557.00,1.4034
2556.00,1.3849
2555.00,1.3711
2554.00,1.3624
2553.00,1.3588
2552.00,1.3604
2551.00,1.3670
2550.00,1.3786
2549.00,1.3946
2548.00,1.4148
2547.00,1.4386
2546.00,1.4653
2545.00,1.4944
2544.00,1.5256
2543.00,1.5582
2542.00,1.5920
2541.00,1.6267
2540.00,1.6619
2539.00,1.6976
2538.00,1.7333
2537.00,1.7688
2536.00,1.8040
2535.00,1.8388
2534.00,1.8730
2533.00,1.9069
2532.00,1.9402
2531.00,1.9729
2530.00,2.0046
2529.00,2.0353
2528.00,2.0650
2527.00,2.0939
2526.00,2.1220
2525.00,2.1491
2524.00,2.1748
2523.00,2.1992
2522.00,2.2225
2521.00,2.2452
2520.00,2.2672
2519.00,2.2885
2518.00,2.3091
2517.00,2.3288
2516.00,2.3474
2515.00,2.3648
2514.00,2.3812
2513.00,2.3969
2512.00,2.4117
2511.00,2.4254
2510.00,2.4382
2509.00,2.4504
2508.00,2.4623
2507.00,2.4737
2506.00,2.4845
2505.00,2.4947
2504.00,2.5040
2503.00,2.5125
2502.00,2.5207
2501.00,2.5292
2500.00,2.5376
2499.00,2.5452
2498.00,2.5517
2497.00,2.5575
2496.00,2.5634
2495.00,2.5691
2494.00,2.5743
2493.00,2.5791
2492.00,2.5833
2491.00,2.5864
2490.00,2.5876
2489.00,2.5874
2488.00,2.5869
2487.00,2.5873
2486.00,2.5881
2485.00,2.5882
2484.00,2.5865
2483.00,2.5833
2482.00,2.5796
2481.00,2.5764
2480.00,2.5738
2479.00,2.5712
2478.00,2.5679
2477.00,2.5634
2476.00,2.5579
2475.00,2.5521
2474.00,2.5467
2473.00,2.5415
2472.00,2.5357
2471.00,2.5288
2470.00,2.5208
2469.00,2.5120
2468.00,2.5024
2467.00,2.4920
2466.00,2.4809
2465.00,2.4691
2464.00,2.4565
2463.00,2.4431
2462.00,2.4296
2461.00,2.4162
2460.00,2.4020
2459.00,2.3860
2458.00,2.3682
2457.00,2.3491
2456.00,2.3295
2455.00,2.3098
2454.00,2.2898
2453.00,2.2690
2452.00,2.2469
2451.00,2.2231
2450.00,2.1976
2449.00,2.1706
2448.00,2.1422
2447.00,2.1123
2446.00,2.0809
2445.00,2.0483
2444.00,2.0141
2443.00,1.9778
2442.00,1.9394
2441.00,1.8990
2440.00,1.8570
2439.00,1.8135
2438.00,1.7690
2437.00,1.7239
2436.00,1.6785
2435.00,1.6335
2434.00,1.5893
2433.00,1.5467
2432.00,1.5067
2431.00,1.4697
2430.00,1.4365
2429.00,1.4073
2428.00,1.3827
2427.00,1.3629
2426.00,1.3481
2425.00,1.3385
2424.00,1.3343
2423.00,1.3355
2422.00,1.3420
2421.00,1.3536
2420.00,1.3701
2419.00,1.3909
2418.00,1.4156
2417.00,1.4437
2416.00,1.4748
2415.00,1.5085
2414.00,1.5442
2413.00,1.5817
2412.00,1.6203
2411.00,1.6598
2410.00,1.6999
2409.00,1.7405
2408.00,1.7811
2407.00,1.8216
2406.00,1.8616
2405.00,1.9008
2404.00,1.9393
2403.00,1.9772
2402.00,2.0144
2401.00,2.0509
2400.00,2.0863
2399.00,2.1202
2398.00,2.1522
2397.00,2.1824
2396.00,2.2105
2395.00,2.2366
2394.00,2.2603
2393.00,2.2814
2392.00,2.2993
2391.00,2.3132
2390.00,2.3232
2389.00,2.3300
2388.00,2.3347
2387.00,2.3387
2386.00,2.3435
2385.00,2.3507
2384.00,2.3614
2383.00,2.3758
2382.00,2.3940
2381.00,2.4151
2380.00,2.4375
2379.00,2.4592
2378.00,2.4793
2377.00,2.4978
2376.00,2.5147
2375.00,2.5295
2374.00,2.5426
2373.00,2.5544
2372.00,2.5646
2371.00,2.5727
2370.00,2.5801
2369.00,2.5873
2368.00,2.5943
2367.00,2.6009
2366.00,2.6073
2365.00,2.6158
2364.00,2.6262
2363.00,2.6356
2362.00,2.6423
2361.00,2.6455
2360.00,2.6456
2359.00,2.6433
2358.00,2.6419
2357.00,2.6458
2356.00,2.6481
2355.00,2.6514
2354.00,2.6792
2353.00,2.6746
2352.00,2.6727
2351.00,2.6688
2350.00,2.6666
2349.00,2.6644
2348.00,2.6631
2347.00,2.6590
2346.00,2.6441
2345.00,2.6388
2344.00,2.6295
2343.00,2.6185
2342.00,2.6056
2341.00,2.5924
2340.00,2.5772
2339.00,2.5599
2338.00,2.5407
2337.00,2.5233
2336.00,2.5068
2335.00,2.4933
2334.00,2.4787
2333.00,2.4624
2332.00,2.4415
2331.00,2.4172
2330.00,2.3930
2329.00,2.3708
2328.00,2.3515
2327.00,2.3331
2326.00,2.3150
2325.00,2.2971
2324.00,2.2776
2323.00,2.2555
2322.00,2.2286
2321.00,2.1993
2320.00,2.1683
2319.00,2.1382
2318.00,2.1081
2317.00,2.0790
2316.00,2.0492
2315.00,2.0193
2314.00,1.9882
2313.00,1.9566
2312.00,1.9236
2311.00,1.8894
2310.00,1.8527
2309.00,1.8138
2308.00,1.7723
2307.00,1.7297
2306.00,1.6862
2305.00,1.6429
2304.00,1.5999
2303.00,1.5584
2302.00,1.5185
2301.00,1.4815
2300.00,1.4480
2299.00,1.4188
2298.00,1.3945
2297.00,1.3756
2296.00,1.3624
2295.00,1.3550
2294.00,1.3535
2293.00,1.3576
2292.00,1.3672
2291.00,1.3821
2290.00,1.4018
2289.00,1.4257
2288.00,1.4536
2287.00,1.4851
2286.00,1.5198
2285.00,1.5574
2284.00,1.5973
2283.00,1.6391
2282.00,1.6821
2281.00,1.7262
2280.00,1.7705
2279.00,1.8148
2278.00,1.8587
2277.00,1.9022
2276.00,1.9452
2275.00,1.9873
2274.00,2.0283
2273.00,2.0682
2272.00,2.1069
2271.00,2.1440
2270.00,2.1793
2269.00,2.2129
2268.00,2.2453
2267.00,2.2765
2266.00,2.3065
2265.00,2.3350
2264.00,2.3621
2263.00,2.3880
2262.00,2.4126
2261.00,2.4363
2260.00,2.4592
2259.00,2.4812
2258.00,2.5023
2257.00,2.5221
2256.00,2.5403
2255.00,2.5566
2254.00,2.5717
2253.00,2.5862
2252.00,2.6005
2251.00,2.6139
2250.00,2.6260
2249.00,2.6376
2248.00,2.6494
2247.00,2.6618
2246.00,2.6740
2245.00,2.6845
2244.00,2.6926
2243.00,2.6992
2242.00,2.7060
2241.00,2.7143
2240.00,2.7234
2239.00,2.7312
2238.00,2.7368
2237.00,2.7412
2236.00,2.7458
2235.00,2.7510
2234.00,2.7559
2233.00,2.7598
2232.00,2.7625
2231.00,2.7642
2230.00,2.7653
2229.00,2.7663
2228.00,2.7670
2227.00,2.7673
2226.00,2.7671
2225.00,2.7662
2224.00,2.7639
2223.00,2.7598
2222.00,2.7548
2221.00,2.7509
2220.00,2.7494
2219.00,2.7494
2218.00,2.7493
2217.00,2.7475
2216.00,2.7435
2215.00,2.7375
2214.00,2.7306
2213.00,2.7232
2212.00,2.7155
2211.00,2.7074
2210.00,2.6992
2209.00,2.6915
2208.00,2.6834
2207.00,2.6737
2206.00,2.6623
2205.00,2.6503
2204.00,2.6385
2203.00,2.6261
2202.00,2.6120
2201.00,2.5966
2200.00,2.5808
2199.00,2.5646
2198.00,2.5476
2197.00,2.5299
2196.00,2.5118
2195.00,2.4929
2194.00,2.4730
2193.00,2.4520
2192.00,2.4295
2191.00,2.4052
2190.00,2.3789
2189.00,2.3508
2188.00,2.3214
2187.00,2.2910
2186.00,2.2594
2185.00,2.2268
2184.00,2.1930
2183.00,2.1576
2182.00,2.1204
2181.00,2.0819
2180.00,2.0428
2179.00,2.0035
2178.00,1.9638
2177.00,1.9234
2176.00,1.8821
2175.00,1.8396
2174.00,1.7959
2173.00,1.7512
2172.00,1.7061
2171.00,1.6613
2170.00,1.6180
2169.00,1.5772
2168.00,1.5400
2167.00,1.5074
2166.00,1.4804
2165.00,1.4597
2164.00,1.4461
2163.00,1.4400
2162.00,1.4416
2161.00,1.4509
2160.00,1.4676
2159.00,1.4910
2158.00,1.5203
2157.00,1.5546
2156.00,1.5930
2155.00,1.6344
2154.00,1.6782
2153.00,1.7235
2152.00,1.7698
2151.00,1.8164
2150.00,1.8630
2149.00,1.9095
2148.00,1.9560
2147.00,2.0021
2146.00,2.0473
2145.00,2.0911
2144.00,2.1335
2143.00,2.1744
2142.00,2.2138
2141.00,2.2518
2140.00,2.2882
2139.00,2.3229
2138.00,2.3553
2137.00,2.3858
2136.00,2.4146
2135.00,2.4422
2134.00,2.4689
2133.00,2.4948
2132.00,2.5191
2131.00,2.5409
2130.00,2.5606
2129.00,2.5800
2128.00,2.6008
2127.00,2.6224
2126.00,2.6426
2125.00,2.6597
2124.00,2.6741
2123.00,2.6872
2122.00,2.7004
2121.00,2.7143
2120.00,2.7290
2119.00,2.7435
2118.00,2.7563
2117.00,2.7669
2116.00,2.7760
2115.00,2.7843
2114.00,2.7922
2113.00,2.8003
2112.00,2.8093
2111.00,2.8185
2110.00,2.8262
2109.00,2.8310
2108.00,2.8341
2107.00,2.8377
2106.00,2.8432
2105.00,2.8502
2104.00,2.8573
2103.00,2.8625
2102.00,2.8641
2101.00,2.8621
2100.00,2.8590
2099.00,2.8575
2098.00,2.8586
2097.00,2.8615
2096.00,2.8646
2095.00,2.8665
2094.00,2.8663
2093.00,2.8641
2092.00,2.8609
2091.00,2.8582
2090.00,2.8565
2089.00,2.8550
2088.00,2.8521
2087.00,2.8467
2086.00,2.8394
2085.00,2.8321
2084.00,2.8260
2083.00,2.8205
2082.00,2.8135
2081.00,2.8040
2080.00,2.7933
2079.00,2.7833
2078.00,2.7745
2077.00,2.7656
2076.00,2.7552
2075.00,2.7430
2074.00,2.7296
2073.00,2.7159
2072.00,2.7023
2071.00,2.6879
2070.00,2.6718
2069.00,2.6543
2068.00,2.6373
2067.00,2.6215
2066.00,2.6059
2065.00,2.5889
2064.00,2.5701
2063.00,2.5502
2062.00,2.5298
2061.00,2.5082
2060.00,2.4843
2059.00,2.4574
2058.00,2.4280
2057.00,2.3972
2056.00,2.3653
2055.00,2.3318
2054.00,2.2959
2053.00,2.2571
2052.00,2.2155
2051.00,2.1711
2050.00,2.1238
2049.00,2.0738
2048.00,2.0219
2047.00,1.9687
2046.00,1.9144
2045.00,1.8593
2044.00,1.8041
2043.00,1.7499
2042.00,1.6978
2041.00,1.6490
2040.00,1.6049
2039.00,1.5666
2038.00,1.5354
2037.00,1.5118
2036.00,1.4965
2035.00,1.4896
2034.00,1.4912
2033.00,1.5009
2032.00,1.5185
2031.00,1.5433
2030.00,1.5744
2029.00,1.6111
2028.00,1.6524
2027.00,1.6971
2026.00,1.7444
2025.00,1.7933
2024.00,1.8430
2023.00,1.8926
2022.00,1.9416
2021.00,1.9901
2020.00,2.0385
2019.00,2.0869
2018.00,2.1342
2017.00,2.1794
2016.00,2.2220
2015.00,2.2624
2014.00,2.3013
2013.00,2.3391
2012.00,2.3752
2011.00,2.4094
2010.00,2.4421
2009.00,2.4741
2008.00,2.5055
2007.00,2.5355
2006.00,2.5632
2005.00,2.5889
2004.00,2.6136
2003.00,2.6387
2002.00,2.6644
2001.00,2.6898
2000.00,2.7130
1999.00,2.7327
1998.00,2.7488
1997.00,2.7626
1996.00,2.7758
1995.00,2.7894
1994.00,2.8038
1993.00,2.8179
1992.00,2.8303
1991.00,2.8412
1990.00,2.8518
1989.00,2.8634
1988.00,2.8760
1987.00,2.8886
1986.00,2.9007
1985.00,2.9113
1984.00,2.9193
1983.00,2.9239
1982.00,2.9269
1981.00,2.9316
1980.00,2.9397
1979.00,2.9492
1978.00,2.9566
1977.00,2.9597
1976.00,2.9594
1975.00,2.9588
1974.00,2.9601
1973.00,2.9639
1972.00,2.9684
1971.00,2.9719
1970.00,2.9744
1969.00,2.9767
1968.00,2.9777
1967.00,2.9747
1966.00,2.9670
1965.00,2.9578
1964.00,2.9509
1963.00,2.9470
1962.00,2.9449
1961.00,2.9431
1960.00,2.9409
1959.00,2.9365
1958.00,2.9292
1957.00,2.9206
1956.00,2.9133
1955.00,2.9080
1954.00,2.9026
1953.00,2.8944
1952.00,2.8827
1951.00,2.8697
1950.00,2.8585
1949.00,2.8500
1948.00,2.8418
1947.00,2.8307
1946.00,2.8170
1945.00,2.8036
1944.00,2.7913
1943.00,2.7771
1942.00,2.7588
1941.00,2.7374
1940.00,2.7150
1939.00,2.6924
1938.00,2.6691
1937.00,2.6451
1936.00,2.6204
1935.00,2.5941
1934.00,2.5651
1933.00,2.5337
1932.00,2.5006
1931.00,2.4657
1930.00,2.4292
1929.00,2.3911
1928.00,2.3511
1927.00,2.3088
1926.00,2.2652
1925.00,2.2202
1924.00,2.1714
1923.00,2.1157
1922.00,2.0546
1921.00,1.9939
1920.00,1.9376
1919.00,1.8836
1918.00,1.8285
1917.00,1.7732
1916.00,1.7223
1915.00,1.6790
1914.00,1.6443
1913.00,1.6186
1912.00,1.6023
1911.00,1.5950
1910.00,1.5959
1909.00,1.6042
1908.00,1.6208
1907.00,1.6456
1906.00,1.6782
1905.00,1.7174
1904.00,1.7617
1903.00,1.8098
1902.00,1.8606
1901.00,1.9135
1900.00,1.9678
1899.00,2.0230
1898.00,2.0790
1897.00,2.1350
1896.00,2.1896
1895.00,2.2408
1894.00,2.2893
1893.00,2.3372
1892.00,2.3864
1891.00,2.4356
1890.00,2.4814
1889.00,2.5215
1888.00,2.5569
1887.00,2.5902
1886.00,2.6232
1885.00,2.6562
1884.00,2.6883
1883.00,2.7180
1882.00,2.7444
1881.00,2.7679
1880.00,2.7897
1879.00,2.8107
1878.00,2.8305
1877.00,2.8482
1876.00,2.8638
1875.00,2.8782
1874.00,2.8922
1873.00,2.9075
1872.00,2.9271
1871.00,2.9528
1870.00,2.9794
1869.00,2.9976
1868.00,3.0039
1867.00,3.0041
1866.00,3.0049
1865.00,3.0087
1864.00,3.0146
1863.00,3.0222
1862.00,3.0304
1861.00,3.0367
1860.00,3.0391
1859.00,3.0397
1858.00,3.0423
1857.00,3.0480
1856.00,3.0552
1855.00,3.0625
1854.00,3.0699
1853.00,3.0770
1852.00,3.0823
1851.00,3.0844
1850.00,3.0825
1849.00,3.0763
1848.00,3.0679
1847.00,3.0621
1846.00,3.0617
1845.00,3.0615
1844.00,3.0544
1843.00,3.0408
1842.00,3.0269
1841.00,3.0167
1840.00,3.0103
1839.00,3.0050
1838.00,2.9979
1837.00,2.9876
1836.00,2.9737
1835.00,2.9569
1834.00,2.9391
1833.00,2.9241
1832.00,2.9142
1831.00,2.9048
1830.00,2.8880
1829.00,2.8627
1828.00,2.8358
1827.00,2.8122
1826.00,2.7902
1825.00,2.7634
1824.00,2.7297
1823.00,2.6919
1822.00,2.6530
1821.00,2.6135
1820.00,2.5733
1819.00,2.5321
1818.00,2.4899
1817.00,2.4469
1816.00,2.4045
1815.00,2.3657
1814.00,2.3327
1813.00,2.3060
1812.00,2.2841
1811.00,2.2646
1810.00,2.2472
1809.00,2.2325
1808.00,2.2203
1807.00,2.2092
1806.00,2.1976
1805.00,2.1856
1804.00,2.1746
1803.00,2.1661
1802.00,2.1605
1801.00,2.1585
1800.00,2.1614
1799.00,2.1712
1798.00,2.1885
1797.00,2.2128
1796.00,2.2446
1795.00,2.2866
1794.00,2.3407
1793.00,2.4027
1792.00,2.4645
1791.00,2.5220
1790.00,2.5750
1789.00,2.6250
1788.00,2.6742
1787.00,2.7239
1786.00,2.7736
1785.00,2.8220
1784.00,2.8682
1783.00,2.9123
1782.00,2.9532
1781.00,2.9899
1780.00,3.0237
1779.00,3.0577
1778.00,3.0913
1777.00,3.1191
1776.00,3.1389
1775.00,3.1576
1774.00,3.1829
1773.00,3.2087
1772.00,3.2232
1771.00,3.2262
1770.00,3.2281
1769.00,3.2362
1768.00,3.2482
1767.00,3.2572
1766.00,3.2600
1765.00,3.2589
1764.00,3.2574
1763.00,3.2562
1762.00,3.2533
1761.00,3.2499
1760.00,3.2465
1759.00,3.2418
1758.00,3.2340
1757.00,3.2217
1756.00,3.2051
1755.00,3.1875
1754.00,3.1756
1753.00,3.1790
1752.00,3.2032
1751.00,3.2439
1750.00,3.2895
1749.00,3.3286
1748.00,3.3608
1747.00,3.3989
1746.00,3.4566
1745.00,3.5347
1744.00,3.6158
1743.00,3.6748
1742.00,3.7081
1741.00,3.7451
1740.00,3.8176
1739.00,3.9352
1738.00,4.0675
1737.00,4.1396
1736.00,4.1320
1735.00,4.0961
1734.00,4.0747
1733.00,4.1015
1732.00,4.1721
1731.00,4.2620
1730.00,4.4070
1729.00,4.6319
1728.00,4.6255
1727.00,4.4499
1726.00,4.3850
1725.00,4.3942
1724.00,4.4250
1723.00,4.4077
1722.00,4.3106
1721.00,4.2005
1720.00,4.1585
1719.00,4.2145
1718.00,4.3244
1717.00,4.3877
1716.00,4.4314
1715.00,4.5353
1714.00,4.6917
1713.00,4.7979
1712.00,4.8065
1711.00,4.7166
1710.00,4.5367
1709.00,4.4541
1708.00,4.4460
1707.00,4.3758
1706.00,4.2899
1705.00,4.2871
1704.00,4.3871
1703.00,4.5626
1702.00,4.6268
1701.00,4.5548
1700.00,4.5482
1699.00,4.5847
1698.00,4.5613
1697.00,4.5194
1696.00,4.4860
1695.00,4.5252
1694.00,4.8765
1693.00,4.8378
1692.00,4.3217
1691.00,4.1227
1690.00,4.0111
1689.00,3.9496
1688.00,3.9019
1687.00,3.8561
1686.00,3.8243
1685.00,3.7888
1684.00,3.7296
1683.00,3.6662
1682.00,3.6138
1681.00,3.5630
1680.00,3.5056
1679.00,3.4446
1678.00,3.3895
1677.00,3.3458
1676.00,3.3064
1675.00,3.2602
1674.00,3.2054
1673.00,3.1460
1672.00,3.0877
1671.00,3.0347
1670.00,2.9850
1669.00,2.9360
1668.00,2.8901
1667.00,2.8510
1666.00,2.8238
1665.00,2.8147
1664.00,2.8234
1663.00,2.8422
1662.00,2.8650
1661.00,2.8907
1660.00,2.9193
1659.00,2.9495
1658.00,2.9756
1657.00,2.9917
1656.00,3.0051
1655.00,3.0395
1654.00,3.0932
1653.00,3.1410
1652.00,3.1831
1651.00,3.2157
1650.00,3.2346
1649.00,3.2521
1648.00,3.2731
1647.00,3.2864
1646.00,3.2868
1645.00,3.2828
1644.00,3.2825
1643.00,3.2887
1642.00,3.2999
1641.00,3.3113
1640.00,3.3156
1639.00,3.3103
1638.00,3.3031
1637.00,3.3011
1636.00,3.3006
1635.00,3.3001
1634.00,3.3026
1633.00,3.3045
1632.00,3.3031
1631.00,3.3006
1630.00,3.2980
1629.00,3.2912
1628.00,3.2771
1627.00,3.2594
1626.00,3.2452
1625.00,3.2370
1624.00,3.2280
1623.00,3.2101
1622.00,3.1834
1621.00,3.1531
1620.00,3.1250
1619.00,3.1053
1618.00,3.0945
1617.00,3.0809
1616.00,3.0561
1615.00,3.0253
1614.00,2.9956
1613.00,2.9694
1612.00,2.9447
1611.00,2.9173
1610.00,2.8842
1609.00,2.8451
1608.00,2.8018
1607.00,2.7565
1606.00,2.7103
1605.00,2.6620
1604.00,2.6104
1603.00,2.5553
1602.00,2.4976
1601.00,2.4384
1600.00,2.3789
1599.00,2.3207
1598.00,2.2657
1597.00,2.2152
1596.00,2.1697
1595.00,2.1300
1594.00,2.0979
1593.00,2.0754
1592.00,2.0632
1591.00,2.0609
1590.00,2.0671
1589.00,2.0806
1588.00,2.1006
1587.00,2.1274
1586.00,2.1613
1585.00,2.2016
1584.00,2.2471
1583.00,2.2971
1582.00,2.3497
1581.00,2.4008
1580.00,2.4470
1579.00,2.4917
1578.00,2.5438
1577.00,2.6050
1576.00,2.6663
1575.00,2.7215
1574.00,2.7678
1573.00,2.8062
1572.00,2.8450
1571.00,2.8887
1570.00,2.9296
1569.00,2.9603
1568.00,2.9844
1567.00,3.0100
1566.00,3.0366
1565.00,3.0620
1564.00,3.0677
1563.00,3.0954
1562.00,3.1231
1561.00,3.1419
1560.00,3.1637
1559.00,3.1776
1558.00,3.1868
1557.00,3.1950
1556.00,3.2089
1555.00,3.2247
1554.00,3.2403
1553.00,3.2486
1552.00,3.2714
1551.00,3.2907
1550.00,3.3014
1549.00,3.3101
1548.00,3.3153
1547.00,3.3234
1546.00,3.3332
1545.00,3.3407
1544.00,3.3434
1543.00,3.3469
1542.00,3.3560
1541.00,3.3603
1540.00,3.3458
1539.00,3.3259
1538.00,3.3173
1537.00,3.3169
1536.00,3.3200
1535.00,3.3285
1534.00,3.3368
1533.00,3.3373
1532.00,3.3329
1531.00,3.3275
1530.00,3.3192
1529.00,3.3049
1528.00,3.2867
1527.00,3.2707
1526.00,3.2589
1525.00,3.2479
1524.00,3.2369
1523.00,3.2318
1522.00,3.2330
1521.00,3.2334
1520.00,3.2298
1519.00,3.2223
1518.00,3.2103
1517.00,3.1884
1516.00,3.1541
1515.00,3.1150
1514.00,3.0806
1513.00,3.0538
1512.00,3.0291
1511.00,2.9997
1510.00,2.9683
1509.00,2.9456
1508.00,2.9302
1507.00,2.8989
1506.00,2.8498
1505.00,2.8024
1504.00,2.7614
1503.00,2.7216
1502.00,2.6799
1501.00,2.6352
1500.00,2.5867
1499.00,2.5351
1498.00,2.4811
1497.00,2.4243
1496.00,2.3651
1495.00,2.3074
1494.00,2.2569
1493.00,2.2197
1492.00,2.2002
1491.00,2.1950
1490.00,2.1958
1489.00,2.2015
1488.00,2.2170
1487.00,2.2445
1486.00,2.2835
1485.00,2.3326
1484.00,2.3904
1483.00,2.4552
1482.00,2.5235
1481.00,2.5916
1480.00,2.6587
1479.00,2.7258
1478.00,2.7931
1477.00,2.8580
1476.00,2.9181
1475.00,2.9766
1474.00,3.0375
1473.00,3.0974
1472.00,3.1514
1471.00,3.2009
1470.00,3.2474
1469.00,3.2915
1468.00,3.3349
1467.00,3.3821
1466.00,3.4356
1465.00,3.4904
1464.00,3.5391
1463.00,3.5784
1462.00,3.6099
1461.00,3.6365
1460.00,3.6605
1459.00,3.6855
1458.00,3.7104
1457.00,3.7366
1456.00,3.7873
1455.00,3.8872
1454.00,4.0426
1453.00,4.2415
1452.00,4.4278
1451.00,4.5019
1450.00,4.4954
1449.00,4.4843
1448.00,4.3880
1447.00,4.1809
1446.00,3.9650
1445.00,3.7901
1444.00,3.6630
1443.00,3.5806
1442.00,3.5369
1441.00,3.5216
1440.00,3.5244
1439.00,3.5429
1438.00,3.5830
1437.00,3.6464
1436.00,3.7246
1435.00,3.7995
1434.00,3.8514
1433.00,3.8775
1432.00,3.8871
1431.00,3.8868
1430.00,3.8797
1429.00,3.8704
1428.00,3.8675
1427.00,3.8805
1426.00,3.9068
1425.00,3.9253
1424.00,3.9155
1423.00,3.8822
1422.00,3.8469
1421.00,3.8279
1420.00,3.8275
1419.00,3.8274
1418.00,3.8054
1417.00,3.7558
1416.00,3.6926
1415.00,3.6366
1414.00,3.5986
1413.00,3.5745
1412.00,3.5548
1411.00,3.5354
1410.00,3.5203
1409.00,3.5143
1408.00,3.5189
1407.00,3.5336
1406.00,3.5580
1405.00,3.5865
1404.00,3.6071
1403.00,3.6085
1402.00,3.5940
1401.00,3.5783
1400.00,3.5714
1399.00,3.5753
1398.00,3.5882
1397.00,3.6019
1396.00,3.6028
1395.00,3.5842
1394.00,3.5543
1393.00,3.5252
1392.00,3.5002
1391.00,3.4772
1390.00,3.4572
1389.00,3.4458
1388.00,3.4464
1387.00,3.4575
1386.00,3.4748
1385.00,3.4917
1384.00,3.4984
1383.00,3.4873
1382.00,3.4612
1381.00,3.4297
1380.00,3.4020
1379.00,3.3834
1378.00,3.3735
1377.00,3.3644
1376.00,3.3425
1375.00,3.3018
1374.00,3.2506
1373.00,3.2021
1372.00,3.1629
1371.00,3.1319
1370.00,3.1035
1369.00,3.0725
1368.00,3.0373
1367.00,3.0003
1366.00,2.9661
1365.00,2.9372
1364.00,2.9122
1363.00,2.8875
1362.00,2.8623
1361.00,2.8409
1360.00,2.8290
1359.00,2.8313
1358.00,2.8500
1357.00,2.8849
1356.00,2.9336
1355.00,2.9947
1354.00,3.0693
1353.00,3.1590
1352.00,3.2627
1351.00,3.3754
1350.00,3.4937
1349.00,3.6165
1348.00,3.7261
1347.00,3.7719
1346.00,3.7303
1345.00,3.6549
1344.00,3.6050
1343.00,3.6037
1342.00,3.6474
1341.00,3.7101
1340.00,3.7470
1339.00,3.7268
1338.00,3.6632
1337.00,3.5850
1336.00,3.5006
1335.00,3.4057
1334.00,3.3065
1333.00,3.2222
1332.00,3.1689
1331.00,3.1525
1330.00,3.1689
1329.00,3.2088
1328.00,3.2628
1327.00,3.3259
1326.00,3.3951
1325.00,3.4635
1324.00,3.5216
1323.00,3.5688
1322.00,3.6186
1321.00,3.6836
1320.00,3.7635
1319.00,3.8555
1318.00,3.9721
1317.00,4.1405
1316.00,4.3763
1315.00,4.6187
1314.00,4.6658
1313.00,4.5637
1312.00,4.5109
1311.00,4.4903
1310.00,4.3910
1309.00,4.2011
1308.00,4.0012
1307.00,3.8305
1306.00,3.6909
1305.00,3.5755
1304.00,3.4803
1303.00,3.4084
1302.00,3.3646
1301.00,3.3486
1300.00,3.3541
1299.00,3.3708
1298.00,3.3882
1297.00,3.4020
1296.00,3.4140
1295.00,3.4266
1294.00,3.4426
1293.00,3.4669
1292.00,3.5041
1291.00,3.5546
1290.00,3.6135
1289.00,3.6715
1288.00,3.7129
1287.00,3.7208
1286.00,3.6943
1285.00,3.6522
1284.00,3.6153
1283.00,3.5937
1282.00,3.5858
1281.00,3.5899
1280.00,3.6102
1279.00,3.6465
1278.00,3.6804
1277.00,3.6866
1276.00,3.6657
1275.00,3.6437
1274.00,3.6428
1273.00,3.6663
1272.00,3.7022
1271.00,3.7370
1270.00,3.7599
1269.00,3.7608
1268.00,3.7445
1267.00,3.7280
1266.00,3.7206
1265.00,3.7170
1264.00,3.7071
1263.00,3.6955
1262.00,3.6981
1261.00,3.7185
1260.00,3.7414
1259.00,3.7468
1258.00,3.7290
1257.00,3.7011
1256.00,3.6800
1255.00,3.6741
1254.00,3.6755
1253.00,3.6703
1252.00,3.6576
1251.00,3.6463
1250.00,3.6437
1249.00,3.6507
1248.00,3.6624
1247.00,3.6729
1246.00,3.6797
1245.00,3.6789
1244.00,3.6601
1243.00,3.6220
1242.00,3.5841
1241.00,3.5634
1240.00,3.5595
1239.00,3.5634
1238.00,3.5727
1237.00,3.5946
1236.00,3.6316
1235.00,3.6761
1234.00,3.7173
1233.00,3.7483
1232.00,3.7777
1231.00,3.8250
1230.00,3.8976
1229.00,3.9806
1228.00,4.0681
1227.00,4.1833
1226.00,4.3622
1225.00,4.5450
1224.00,4.5415
1223.00,4.5377
1222.00,4.5352
1221.00,4.3982
1220.00,4.3332
1219.00,4.4031
1218.00,4.5660
1217.00,4.7002
1216.00,4.6138
1215.00,4.4103
1214.00,4.2311
1213.00,4.0807
1212.00,3.9362
1211.00,3.8168
1210.00,3.7466
1209.00,3.7276
1208.00,3.7471
1207.00,3.7776
1206.00,3.7799
1205.00,3.7335
1204.00,3.6569
1203.00,3.5752
1202.00,3.4965
1201.00,3.4246
1200.00,3.3677
1199.00,3.3325
1198.00,3.3178
1197.00,3.3143
1196.00,3.3114
1195.00,3.3060
1194.00,3.3009
1193.00,3.2994
1192.00,3.3037
1191.00,3.3158
1190.00,3.3356
1189.00,3.3565
1188.00,3.3713
1187.00,3.3811
1186.00,3.3958
1185.00,3.4226
1184.00,3.4604
1183.00,3.5032
1182.00,3.5458
1181.00,3.5838
1180.00,3.6136
1179.00,3.6390
1178.00,3.6709
1177.00,3.7167
1176.00,3.7779
1175.00,3.8614
1174.00,3.9664
1173.00,4.0145
1172.00,3.9548
1171.00,3.8839
1170.00,3.8484
1169.00,3.8489
1168.00,3.8836
1167.00,3.9381
1166.00,3.9954
1165.00,4.0412
1164.00,4.0564
1163.00,4.0338
1162.00,3.9852
1161.00,3.9203
1160.00,3.8602
1159.00,3.8336
1158.00,3.8607
1157.00,3.9464
1156.00,4.0610
1155.00,4.1274
1154.00,4.1085
1153.00,4.0557
1152.00,3.9978
1151.00,3.9246
1150.00,3.8454
1149.00,3.7811
1148.00,3.7362
1147.00,3.7137
1146.00,3.7222
1145.00,3.7554
1144.00,3.7836
1143.00,3.7921
1142.00,3.8028
1141.00,3.8449
1140.00,3.9170
1139.00,3.9780
1138.00,4.0141
1137.00,4.0775
1136.00,4.2334
1135.00,4.4521
1134.00,4.4553
1133.00,4.2580
1132.00,4.1269
1131.00,4.1031
1130.00,4.1372
1129.00,4.1497
1128.00,4.1024
1127.00,4.0331
1126.00,3.9818
1125.00,3.9747
1124.00,4.0309
1123.00,4.1809
1122.00,4.3351
1121.00,4.2810
1120.00,4.1930
1119.00,4.1382
1118.00,4.0732
1117.00,4.0005
1116.00,3.9375
1115.00,3.9223
1114.00,3.9739
1113.00,4.0825
1112.00,4.2047
1111.00,4.3192
1110.00,4.4050
1109.00,4.3688
1108.00,4.3253
1107.00,4.3918
1106.00,4.3568
1105.00,4.2235
1104.00,4.2036
1103.00,4.1458
1102.00,3.9828
1101.00,3.8610
1100.00,3.7995
1099.00,3.7816
1098.00,3.7929
1097.00,3.8152
1096.00,3.8313
1095.00,3.8449
1094.00,3.8760
1093.00,3.9388
1092.00,3.9971
1091.00,4.0873
1090.00,4.2600
1089.00,4.1871
1088.00,4.0117
1087.00,3.9562
1086.00,3.9135
1085.00,3.8371
1084.00,3.7679
1083.00,3.7277
1082.00,3.7073
1081.00,3.6967
1080.00,3.6909
1079.00,3.6813
1078.00,3.6779
1077.00,3.6884
1076.00,3.7014
1075.00,3.7061
1074.00,3.6800
1073.00,3.6317
1072.00,3.5997
1071.00,3.5884
1070.00,3.5789
1069.00,3.5653
1068.00,3.5636
1067.00,3.5883
1066.00,3.6307
1065.00,3.6666
1064.00,3.6832
1063.00,3.6871
1062.00,3.6872
1061.00,3.6908
1060.00,3.7149
1059.00,3.7857
1058.00,3.9199
1057.00,4.0885
1056.00,4.1830
1055.00,4.2985
1054.00,4.7074
1053.00,4.7257
1052.00,4.3309
1051.00,4.2497
1050.00,4.3941
1049.00,4.5426
1048.00,4.2955
1047.00,4.0093
1046.00,3.8283
1045.00,3.7522
1044.00,3.7529
1043.00,3.7692
1042.00,3.7556
1041.00,3.7335
1040.00,3.7674
1039.00,3.9085
1038.00,4.1979
1037.00,4.5924
1036.00,4.5570
1035.00,4.2253
1034.00,4.0308
1033.00,3.9782
1032.00,4.0359
1031.00,4.1878
1030.00,4.3227
1029.00,4.2664
1028.00,4.1825
1027.00,4.1814
1026.00,4.2578
1025.00,4.4407
1024.00,4.7853
1023.00,5.2937
1022.00,5.1904
1021.00,4.6230
1020.00,4.3090
1019.00,4.1519
1018.00,4.0730
1017.00,4.0360
1016.00,3.9897
1015.00,3.9306
1014.00,3.9138
1013.00,3.9793
1012.00,4.1355
1011.00,4.3581
1010.00,4.5309
1009.00,4.4558
1008.00,4.2952
1007.00,4.2374
1006.00,4.2832
1005.00,4.4053
1004.00,4.4717
1003.00,4.3203
1002.00,4.1511
1001.00,4.0669
1000.00,4.0574
999.00,4.1051
998.00,4.1272
997.00,4.1401
996.00,4.1758
995.00,4.3550
994.00,4.7721
993.00,4.4854
992.00,4.2558
991.00,4.2476
990.00,4.3183
989.00,4.4178
988.00,4.3336
987.00,4.2109
986.00,4.1353
985.00,4.2289
984.00,4.5043
983.00,4.3020
982.00,4.1085
981.00,4.1291
980.00,4.2528
979.00,4.4309
978.00,4.5757
977.00,4.5642
976.00,4.3593
975.00,4.2094
974.00,4.1861
973.00,4.2896
972.00,4.4034
971.00,4.3617
970.00,4.2370
969.00,4.1385
968.00,4.1209
967.00,4.2668
966.00,4.7066
965.00,4.6429
964.00,4.3090
963.00,4.2594
962.00,4.3011
961.00,4.2822
960.00,4.1755
959.00,4.0948
958.00,4.1528
957.00,4.4923
956.00,4.6748
955.00,4.3844
954.00,4.3348
953.00,4.3246
952.00,4.3432
951.00,4.3649
950.00,4.3434
949.00,4.3818
948.00,4.4325
947.00,4.4260
946.00,4.3761
945.00,4.3366
944.00,4.2817
943.00,4.2602
942.00,4.2560
941.00,4.1619
940.00,4.1088
939.00,4.1711
938.00,4.2244
937.00,4.1387
936.00,4.0053
935.00,3.9246
934.00,3.9380
933.00,4.0526
932.00,4.3590
931.00,4.6003
930.00,4.2608
929.00,4.1163
928.00,4.0704
927.00,4.0344
926.00,4.0393
925.00,4.0736
924.00,4.1777
923.00,4.2297
922.00,4.4734
921.00,4.7428
920.00,4.1526
919.00,3.9780
918.00,4.0377
917.00,4.4006
916.00,4.5600
915.00,4.0966
914.00,3.9877
913.00,3.9957
912.00,4.0169
911.00,4.0043
910.00,3.9732
909.00,4.0005
908.00,4.1096
907.00,4.2959
906.00,4.3492
905.00,4.2517
904.00,4.1802
903.00,4.1034
902.00,4.0717
901.00,4.1709
900.00,4.4299
899.00,4.5223
898.00,4.5203
897.00,4.6147
896.00,4.3783
895.00,4.2471
894.00,4.2431
893.00,4.1964
892.00,4.0871
891.00,3.9761
890.00,3.9058
889.00,3.8909
888.00,3.9172
887.00,3.9053
886.00,3.8578
885.00,3.8288
884.00,3.8290
883.00,3.8677
882.00,3.9377
881.00,4.0081
880.00,4.0549
879.00,4.1221
878.00,4.2662
877.00,4.5596
876.00,4.8612
875.00,4.4875
874.00,4.2159
873.00,4.1425
872.00,4.1928
871.00,4.2480
870.00,4.2111
869.00,4.1653
868.00,4.1700
867.00,4.2441
866.00,4.3095
865.00,4.2887
864.00,4.2641
863.00,4.2886
862.00,4.3551
861.00,4.4103
860.00,4.4062
859.00,4.3581
858.00,4.3410
857.00,4.3534
856.00,4.3664
855.00,4.3786
854.00,4.1932
853.00,3.9739
852.00,3.9288
851.00,3.9967
850.00,3.9660
849.00,3.8757
848.00,3.8539
847.00,3.8954
846.00,3.9585
845.00,3.9830
844.00,3.9948
843.00,4.0423
842.00,4.1094
841.00,4.1968
840.00,4.3227
839.00,4.4568
838.00,4.4668
837.00,4.3992
836.00,4.4658
835.00,4.4045
834.00,4.1652
833.00,4.0383
832.00,3.9484
831.00,3.8729
830.00,3.8638
829.00,3.9280
828.00,4.0415
827.00,4.1180
826.00,4.0607
825.00,3.9323
824.00,3.8418
823.00,3.8250
822.00,3.8987
821.00,4.0467
820.00,4.2293
819.00,4.2594
818.00,4.4482
817.00,4.8929
816.00,4.2640
815.00,4.0847
814.00,4.1416
813.00,4.2742
812.00,4.4799
811.00,4.4839
810.00,4.5578
809.00,5.0826
808.00,4.4329
807.00,4.0953
806.00,4.0111
805.00,4.1094
804.00,4.5753
803.00,4.4406
802.00,4.1042
801.00,4.1849
800.00,4.3103
799.00,4.2453
798.00,4.5000
797.00,4.5454
796.00,4.2106
795.00,4.2794
794.00,4.9724
793.00,4.6001
792.00,4.5071
791.00,4.9023
790.00,4.0826
789.00,3.8583
788.00,3.8950
787.00,4.1880
786.00,4.4684
785.00,4.4795
784.00,4.8432
783.00,4.1603
782.00,3.9097
781.00,3.8501
780.00,3.8702
779.00,3.9382
778.00,3.9469
777.00,3.9484
776.00,3.9517
775.00,3.9596
774.00,4.0190
773.00,4.1306
772.00,4.3670
771.00,4.5169
770.00,4.2374
769.00,4.0714
768.00,4.1693
767.00,4.5410
766.00,4.2011
765.00,3.9856
764.00,4.0038
763.00,4.0473
762.00,4.0839
761.00,4.1551
760.00,4.3189
759.00,4.3469
758.00,4.1967
757.00,4.1782
756.00,4.2062
755.00,4.1051
754.00,4.0412
753.00,4.0497
752.00,4.0591
751.00,4.0333
750.00,3.9965
749.00,4.0057
748.00,4.1303
747.00,4.5423
746.00,4.8215
745.00,4.3031
744.00,4.0887
743.00,3.9822
742.00,3.9727
741.00,4.0464
740.00,4.2281
739.00,4.7697
738.00,4.5921
737.00,4.2197
736.00,4.0834
735.00,4.1042
734.00,4.3761
733.00,4.2157
732.00,3.9202
731.00,3.8621
730.00,3.9997
729.00,4.2037
728.00,4.0123
727.00,3.8405
726.00,3.8309
725.00,3.9158
724.00,3.9875
723.00,3.9729
722.00,3.9543
721.00,4.0924
720.00,4.5661
719.00,4.7611
718.00,4.6895
717.00,4.4386
716.00,4.1451
715.00,4.0643
714.00,4.2575
713.00,4.9150
712.00,4.5182
711.00,4.4094
710.00,4.5662
709.00,4.5258
708.00,4.2623
707.00,4.0203
706.00,3.9347
705.00,3.9797
704.00,4.1007
703.00,4.1451
702.00,4.0561
701.00,3.9882
700.00,3.9954
