Created as New Dataset,Sample 105 By Administrator Date Wednesday, November 24 2021
cm-1,A
7502.00,1.1694
7501.00,1.1717
7500.00,1.1738
7499.00,1.1754
7498.00,1.1764
7497.00,1.1769
7496.00,1.1775
7495.00,1.1782
7494.00,1.1790
7493.00,1.1798
7492.00,1.1806
7491.00,1.1814
7490.00,1.1813
7489.00,1.1797
7488.00,1.1769
7487.00,1.1736
7486.00,1.1702
7485.00,1.1664
7484.00,1.1617
7483.00,1.1565
7482.00,1.1518
7481.00,1.1479
7480.00,1.1441
7479.00,1.1395
7478.00,1.1342
7477.00,1.1287
7476.00,1.1235
7475.00,1.1186
7474.00,1.1138
7473.00,1.1087
7472.00,1.1025
7471.00,1.0952
7470.00,1.0871
7469.00,1.0788
7468.00,1.0703
7467.00,1.0611
7466.00,1.0514
7465.00,1.0417
7464.00,1.0325
7463.00,1.0240
7462.00,1.0156
7461.00,1.0070
7460.00,0.9979
7459.00,0.9888
7458.00,0.9798
7457.00,0.9712
7456.00,0.9626
7455.00,0.9538
7454.00,0.9446
7453.00,0.9354
7452.00,0.9263
7451.00,0.9173
7450.00,0.9083
7449.00,0.8992
7448.00,0.8904
7447.00,0.8824
7446.00,0.8750
7445.00,0.8677
7444.00,0.8601
7443.00,0.8523
7442.00,0.8447
7441.00,0.8375
7440.00,0.8309
7439.00,0.8249
7438.00,0.8195
7437.00,0.8149
7436.00,0.8109
7435.00,0.8073
7434.00,0.8037
7433.00,0.8003
7432.00,0.7971
7431.00,0.7942
7430.00,0.7917
7429.00,0.7898
7428.00,0.7888
7427.00,0.7888
7426.00,0.7895
7425.00,0.7904
7424.00,0.7915
7423.00,0.7932
7422.00,0.7958
7421.00,0.7992
7420.00,0.8029
7419.00,0.8068
7418.00,0.8109
7417.00,0.8155
7416.00,0.8204
7415.00,0.8254
7414.00,0.8305
7413.00,0.8362
7412.00,0.8426
7411.00,0.8497
7410.00,0.8571
7409.00,0.8647
7408.00,0.8724
7407.00,0.8802
7406.00,0.8876
7405.00,0.8948
7404.00,0.9023
7403.00,0.9105
7402.00,0.9190
7401.00,0.9275
7400.00,0.9356
7399.00,0.9436
7398.00,0.9517
7397.00,0.9597
7396.00,0.9675
7395.00,0.9748
7394.00,0.9819
7393.00,0.9891
7392.00,0.9969
7391.00,1.0049
7390.00,1.0127
7389.00,1.0200
7388.00,1.0271
7387.00,1.0343
7386.00,1.0417
7385.00,1.0488
7384.00,1.0554
7383.00,1.0615
7382.00,1.0672
7381.00,1.0731
7380.00,1.0794
7379.00,1.0864
7378.00,1.0933
7377.00,1.0991
7376.00,1.1034
7375.00,1.1062
7374.00,1.1078
7373.00,1.1082
7372.00,1.1074
7371.00,1.1060
7370.00,1.1048
7369.00,1.1042
7368.00,1.1043
7367.00,1.1048
7366.00,1.1056
7365.00,1.1063
7364.00,1.1065
7363.00,1.1059
7362.00,1.1049
7361.00,1.1040
7360.00,1.1033
7359.00,1.1021
7358.00,1.1000
7357.00,1.0976
7356.00,1.0957
7355.00,1.0952
7354.00,1.0960
7353.00,1.0978
7352.00,1.0999
7351.00,1.1016
7350.00,1.1020
7349.00,1.1004
7348.00,1.0966
7347.00,1.0907
7346.00,1.0838
7345.00,1.0768
7344.00,1.0708
7343.00,1.0662
7342.00,1.0628
7341.00,1.0599
7340.00,1.0568
7339.00,1.0528
7338.00,1.0476
7337.00,1.0413
7336.00,1.0344
7335.00,1.0274
7334.00,1.0205
7333.00,1.0139
7332.00,1.0073
7331.00,1.0007
7330.00,0.9940
7329.00,0.9870
7328.00,0.9794
7327.00,0.9714
7326.00,0.9634
7325.00,0.9558
7324.00,0.9489
7323.00,0.9423
7322.00,0.9357
7321.00,0.9288
7320.00,0.9216
7319.00,0.9141
7318.00,0.9064
7317.00,0.8985
7316.00,0.8907
7315.00,0.8832
7314.00,0.8760
7313.00,0.8690
7312.00,0.8622
7311.00,0.8553
7310.00,0.8480
7309.00,0.8406
7308.00,0.8333
7307.00,0.8264
7306.00,0.8199
7305.00,0.8140
7304.00,0.8088
7303.00,0.8044
7302.00,0.8004
7301.00,0.7967
7300.00,0.7932
7299.00,0.7902
7298.00,0.7880
7297.00,0.7862
7296.00,0.7846
7295.00,0.7831
7294.00,0.7820
7293.00,0.7816
7292.00,0.7818
7291.00,0.7823
7290.00,0.7832
7289.00,0.7846
7288.00,0.7868
7287.00,0.7895
7286.00,0.7927
7285.00,0.7962
7284.00,0.8003
7283.00,0.8052
7282.00,0.8105
7281.00,0.8161
7280.00,0.8220
7279.00,0.8282
7278.00,0.8348
7277.00,0.8418
7276.00,0.8491
7275.00,0.8568
7274.00,0.8649
7273.00,0.8733
7272.00,0.8819
7271.00,0.8909
7270.00,0.9001
7269.00,0.9091
7268.00,0.9180
7267.00,0.9272
7266.00,0.9367
7265.00,0.9463
7264.00,0.9557
7263.00,0.9650
7262.00,0.9743
7261.00,0.9836
7260.00,0.9928
7259.00,1.0019
7258.00,1.0110
7257.00,1.0202
7256.00,1.0292
7255.00,1.0381
7254.00,1.0469
7253.00,1.0558
7252.00,1.0646
7251.00,1.0733
7250.00,1.0816
7249.00,1.0893
7248.00,1.0961
7247.00,1.1025
7246.00,1.1090
7245.00,1.1159
7244.00,1.1225
7243.00,1.1290
7242.00,1.1358
7241.00,1.1434
7240.00,1.1513
7239.00,1.1583
7238.00,1.1636
7237.00,1.1673
7236.00,1.1704
7235.00,1.1736
7234.00,1.1767
7233.00,1.1796
7232.00,1.1823
7231.00,1.1850
7230.00,1.1874
7229.00,1.1889
7228.00,1.1896
7227.00,1.1898
7226.00,1.1902
7225.00,1.1906
7224.00,1.1906
7223.00,1.1908
7222.00,1.1921
7221.00,1.1937
7220.00,1.1940
7219.00,1.1919
7218.00,1.1884
7217.00,1.1852
7216.00,1.1826
7215.00,1.1800
7214.00,1.1766
7213.00,1.1726
7212.00,1.1684
7211.00,1.1642
7210.00,1.1596
7209.00,1.1545
7208.00,1.1486
7207.00,1.1422
7206.00,1.1355
7205.00,1.1288
7204.00,1.1223
7203.00,1.1154
7202.00,1.1078
7201.00,1.0996
7200.00,1.0915
7199.00,1.0837
7198.00,1.0760
7197.00,1.0682
7196.00,1.0600
7195.00,1.0515
7194.00,1.0429
7193.00,1.0341
7192.00,1.0247
7191.00,1.0147
7190.00,1.0047
7189.00,0.9948
7188.00,0.9851
7187.00,0.9755
7186.00,0.9660
7185.00,0.9568
7184.00,0.9478
7183.00,0.9385
7182.00,0.9286
7181.00,0.9183
7180.00,0.9082
7179.00,0.8986
7178.00,0.8895
7177.00,0.8808
7176.00,0.8726
7175.00,0.8651
7174.00,0.8581
7173.00,0.8515
7172.00,0.8447
7171.00,0.8376
7170.00,0.8303
7169.00,0.8233
7168.00,0.8170
7167.00,0.8114
7166.00,0.8065
7165.00,0.8023
7164.00,0.7987
7163.00,0.7956
7162.00,0.7929
7161.00,0.7906
7160.00,0.7886
7159.00,0.7871
7158.00,0.7861
7157.00,0.7858
7156.00,0.7864
7155.00,0.7877
7154.00,0.7895
7153.00,0.7918
7152.00,0.7947
7151.00,0.7981
7150.00,0.8022
7149.00,0.8067
7148.00,0.8116
7147.00,0.8170
7146.00,0.8228
7145.00,0.8291
7144.00,0.8356
7143.00,0.8422
7142.00,0.8490
7141.00,0.8561
7140.00,0.8639
7139.00,0.8721
7138.00,0.8803
7137.00,0.8884
7136.00,0.8966
7135.00,0.9053
7134.00,0.9144
7133.00,0.9234
7132.00,0.9321
7131.00,0.9409
7130.00,0.9502
7129.00,0.9597
7128.00,0.9691
7127.00,0.9779
7126.00,0.9864
7125.00,0.9950
7124.00,1.0039
7123.00,1.0129
7122.00,1.0217
7121.00,1.0302
7120.00,1.0382
7119.00,1.0461
7118.00,1.0540
7117.00,1.0620
7116.00,1.0699
7115.00,1.0777
7114.00,1.0857
7113.00,1.0938
7112.00,1.1016
7111.00,1.1086
7110.00,1.1148
7109.00,1.1205
7108.00,1.1261
7107.00,1.1316
7106.00,1.1370
7105.00,1.1424
7104.00,1.1477
7103.00,1.1527
7102.00,1.1573
7101.00,1.1613
7100.00,1.1648
7099.00,1.1678
7098.00,1.1704
7097.00,1.1727
7096.00,1.1751
7095.00,1.1774
7094.00,1.1795
7093.00,1.1813
7092.00,1.1824
7091.00,1.1828
7090.00,1.1823
7089.00,1.1810
7088.00,1.1796
7087.00,1.1784
7086.00,1.1775
7085.00,1.1765
7084.00,1.1750
7083.00,1.1731
7082.00,1.1713
7081.00,1.1691
7080.00,1.1662
7079.00,1.1626
7078.00,1.1589
7077.00,1.1552
7076.00,1.1512
7075.00,1.1467
7074.00,1.1416
7073.00,1.1363
7072.00,1.1309
7071.00,1.1249
7070.00,1.1180
7069.00,1.1104
7068.00,1.1025
7067.00,1.0947
7066.00,1.0869
7065.00,1.0788
7064.00,1.0707
7063.00,1.0627
7062.00,1.0550
7061.00,1.0472
7060.00,1.0389
7059.00,1.0302
7058.00,1.0214
7057.00,1.0126
7056.00,1.0037
7055.00,0.9945
7054.00,0.9851
7053.00,0.9755
7052.00,0.9658
7051.00,0.9562
7050.00,0.9465
7049.00,0.9371
7048.00,0.9280
7047.00,0.9191
7046.00,0.9102
7045.00,0.9012
7044.00,0.8920
7043.00,0.8830
7042.00,0.8743
7041.00,0.8660
7040.00,0.8579
7039.00,0.8502
7038.00,0.8430
7037.00,0.8361
7036.00,0.8295
7035.00,0.8230
7034.00,0.8168
7033.00,0.8109
7032.00,0.8055
7031.00,0.8006
7030.00,0.7963
7029.00,0.7926
7028.00,0.7894
7027.00,0.7866
7026.00,0.7844
7025.00,0.7828
7024.00,0.7819
7023.00,0.7815
7022.00,0.7816
7021.00,0.7823
7020.00,0.7836
7019.00,0.7857
7018.00,0.7886
7017.00,0.7919
7016.00,0.7957
7015.00,0.7999
7014.00,0.8046
7013.00,0.8097
7012.00,0.8151
7011.00,0.8208
7010.00,0.8267
7009.00,0.8330
7008.00,0.8398
7007.00,0.8470
7006.00,0.8545
7005.00,0.8623
7004.00,0.8701
7003.00,0.8781
7002.00,0.8866
7001.00,0.8957
7000.00,0.9052
6999.00,0.9151
6998.00,0.9249
6997.00,0.9348
6996.00,0.9446
6995.00,0.9545
6994.00,0.9645
6993.00,0.9745
6992.00,0.9843
6991.00,0.9939
6990.00,1.0033
6989.00,1.0128
6988.00,1.0222
6987.00,1.0313
6986.00,1.0400
6985.00,1.0489
6984.00,1.0583
6983.00,1.0680
6982.00,1.0774
6981.00,1.0861
6980.00,1.0942
6979.00,1.1020
6978.00,1.1100
6977.00,1.1182
6976.00,1.1263
6975.00,1.1339
6974.00,1.1410
6973.00,1.1476
6972.00,1.1542
6971.00,1.1605
6970.00,1.1666
6969.00,1.1721
6968.00,1.1774
6967.00,1.1825
6966.00,1.1872
6965.00,1.1910
6964.00,1.1938
6963.00,1.1961
6962.00,1.1985
6961.00,1.2011
6960.00,1.2033
6959.00,1.2049
6958.00,1.2061
6957.00,1.2073
6956.00,1.2084
6955.00,1.2092
6954.00,1.2099
6953.00,1.2105
6952.00,1.2109
6951.00,1.2109
6950.00,1.2098
6949.00,1.2077
6948.00,1.2049
6947.00,1.2021
6946.00,1.1993
6945.00,1.1965
6944.00,1.1933
6943.00,1.1897
6942.00,1.1856
6941.00,1.1811
6940.00,1.1760
6939.00,1.1703
6938.00,1.1640
6937.00,1.1574
6936.00,1.1509
6935.00,1.1441
6934.00,1.1369
6933.00,1.1291
6932.00,1.1209
6931.00,1.1125
6930.00,1.1041
6929.00,1.0952
6928.00,1.0857
6927.00,1.0759
6926.00,1.0663
6925.00,1.0571
6924.00,1.0479
6923.00,1.0385
6922.00,1.0290
6921.00,1.0197
6920.00,1.0103
6919.00,1.0006
6918.00,0.9905
6917.00,0.9801
6916.00,0.9694
6915.00,0.9588
6914.00,0.9485
6913.00,0.9384
6912.00,0.9286
6911.00,0.9188
6910.00,0.9092
6909.00,0.8999
6908.00,0.8908
6907.00,0.8819
6906.00,0.8730
6905.00,0.8645
6904.00,0.8564
6903.00,0.8486
6902.00,0.8412
6901.00,0.8341
6900.00,0.8273
6899.00,0.8206
6898.00,0.8141
6897.00,0.8080
6896.00,0.8027
6895.00,0.7981
6894.00,0.7941
6893.00,0.7906
6892.00,0.7878
6891.00,0.7857
6890.00,0.7844
6889.00,0.7835
6888.00,0.7831
6887.00,0.7831
6886.00,0.7836
6885.00,0.7849
6884.00,0.7867
6883.00,0.7891
6882.00,0.7920
6881.00,0.7956
6880.00,0.7998
6879.00,0.8046
6878.00,0.8098
6877.00,0.8154
6876.00,0.8213
6875.00,0.8275
6874.00,0.8342
6873.00,0.8414
6872.00,0.8491
6871.00,0.8572
6870.00,0.8656
6869.00,0.8744
6868.00,0.8830
6867.00,0.8916
6866.00,0.9003
6865.00,0.9093
6864.00,0.9186
6863.00,0.9279
6862.00,0.9375
6861.00,0.9476
6860.00,0.9581
6859.00,0.9685
6858.00,0.9787
6857.00,0.9885
6856.00,0.9982
6855.00,1.0080
6854.00,1.0176
6853.00,1.0270
6852.00,1.0361
6851.00,1.0453
6850.00,1.0545
6849.00,1.0635
6848.00,1.0721
6847.00,1.0806
6846.00,1.0890
6845.00,1.0973
6844.00,1.1053
6843.00,1.1132
6842.00,1.1208
6841.00,1.1283
6840.00,1.1355
6839.00,1.1425
6838.00,1.1493
6837.00,1.1559
6836.00,1.1620
6835.00,1.1675
6834.00,1.1726
6833.00,1.1775
6832.00,1.1822
6831.00,1.1866
6830.00,1.1905
6829.00,1.1941
6828.00,1.1974
6827.00,1.2003
6826.00,1.2029
6825.00,1.2051
6824.00,1.2068
6823.00,1.2080
6822.00,1.2090
6821.00,1.2097
6820.00,1.2099
6819.00,1.2097
6818.00,1.2089
6817.00,1.2076
6816.00,1.2058
6815.00,1.2036
6814.00,1.2013
6813.00,1.1989
6812.00,1.1961
6811.00,1.1927
6810.00,1.1888
6809.00,1.1848
6808.00,1.1808
6807.00,1.1767
6806.00,1.1721
6805.00,1.1669
6804.00,1.1611
6803.00,1.1549
6802.00,1.1486
6801.00,1.1417
6800.00,1.1343
6799.00,1.1264
6798.00,1.1186
6797.00,1.1106
6796.00,1.1025
6795.00,1.0942
6794.00,1.0858
6793.00,1.0774
6792.00,1.0685
6791.00,1.0591
6790.00,1.0496
6789.00,1.0403
6788.00,1.0310
6787.00,1.0214
6786.00,1.0114
6785.00,1.0015
6784.00,0.9918
6783.00,0.9818
6782.00,0.9717
6781.00,0.9614
6780.00,0.9512
6779.00,0.9412
6778.00,0.9312
6777.00,0.9213
6776.00,0.9114
6775.00,0.9016
6774.00,0.8919
6773.00,0.8825
6772.00,0.8733
6771.00,0.8642
6770.00,0.8553
6769.00,0.8468
6768.00,0.8386
6767.00,0.8307
6766.00,0.8231
6765.00,0.8159
6764.00,0.8094
6763.00,0.8035
6762.00,0.7983
6761.00,0.7934
6760.00,0.7890
6759.00,0.7852
6758.00,0.7818
6757.00,0.7791
6756.00,0.7769
6755.00,0.7753
6754.00,0.7743
6753.00,0.7740
6752.00,0.7744
6751.00,0.7753
6750.00,0.7769
6749.00,0.7792
6748.00,0.7820
6747.00,0.7852
6746.00,0.7888
6745.00,0.7929
6744.00,0.7975
6743.00,0.8027
6742.00,0.8085
6741.00,0.8148
6740.00,0.8217
6739.00,0.8291
6738.00,0.8371
6737.00,0.8456
6736.00,0.8543
6735.00,0.8631
6734.00,0.8721
6733.00,0.8812
6732.00,0.8904
6731.00,0.8998
6730.00,0.9093
6729.00,0.9188
6728.00,0.9285
6727.00,0.9383
6726.00,0.9485
6725.00,0.9589
6724.00,0.9693
6723.00,0.9794
6722.00,0.9895
6721.00,0.9997
6720.00,1.0100
6719.00,1.0203
6718.00,1.0305
6717.00,1.0408
6716.00,1.0510
6715.00,1.0612
6714.00,1.0710
6713.00,1.0804
6712.00,1.0895
6711.00,1.0983
6710.00,1.1072
6709.00,1.1161
6708.00,1.1251
6707.00,1.1339
6706.00,1.1422
6705.00,1.1500
6704.00,1.1573
6703.00,1.1641
6702.00,1.1703
6701.00,1.1759
6700.00,1.1813
6699.00,1.1869
6698.00,1.1926
6697.00,1.1978
6696.00,1.2024
6695.00,1.2064
6694.00,1.2101
6693.00,1.2137
6692.00,1.2168
6691.00,1.2194
6690.00,1.2214
6689.00,1.2231
6688.00,1.2245
6687.00,1.2258
6686.00,1.2270
6685.00,1.2283
6684.00,1.2294
6683.00,1.2299
6682.00,1.2296
6681.00,1.2288
6680.00,1.2276
6679.00,1.2257
6678.00,1.2229
6677.00,1.2192
6676.00,1.2154
6675.00,1.2116
6674.00,1.2079
6673.00,1.2039
6672.00,1.1996
6671.00,1.1951
6670.00,1.1903
6669.00,1.1851
6668.00,1.1794
6667.00,1.1733
6666.00,1.1667
6665.00,1.1597
6664.00,1.1525
6663.00,1.1451
6662.00,1.1374
6661.00,1.1291
6660.00,1.1200
6659.00,1.1104
6658.00,1.1007
6657.00,1.0910
6656.00,1.0812
6655.00,1.0714
6654.00,1.0618
6653.00,1.0523
6652.00,1.0424
6651.00,1.0320
6650.00,1.0213
6649.00,1.0105
6648.00,0.9996
6647.00,0.9888
6646.00,0.9780
6645.00,0.9674
6644.00,0.9567
6643.00,0.9461
6642.00,0.9354
6641.00,0.9247
6640.00,0.9140
6639.00,0.9035
6638.00,0.8933
6637.00,0.8837
6636.00,0.8744
6635.00,0.8654
6634.00,0.8566
6633.00,0.8481
6632.00,0.8399
6631.00,0.8322
6630.00,0.8248
6629.00,0.8178
6628.00,0.8113
6627.00,0.8052
6626.00,0.7997
6625.00,0.7949
6624.00,0.7908
6623.00,0.7872
6622.00,0.7843
6621.00,0.7820
6620.00,0.7803
6619.00,0.7790
6618.00,0.7783
6617.00,0.7784
6616.00,0.7792
6615.00,0.7808
6614.00,0.7832
6613.00,0.7863
6612.00,0.7899
6611.00,0.7939
6610.00,0.7986
6609.00,0.8037
6608.00,0.8093
6607.00,0.8152
6606.00,0.8215
6605.00,0.8284
6604.00,0.8358
6603.00,0.8434
6602.00,0.8513
6601.00,0.8596
6600.00,0.8685
6599.00,0.8776
6598.00,0.8869
6597.00,0.8963
6596.00,0.9060
6595.00,0.9161
6594.00,0.9262
6593.00,0.9363
6592.00,0.9464
6591.00,0.9565
6590.00,0.9667
6589.00,0.9770
6588.00,0.9873
6587.00,0.9975
6586.00,1.0077
6585.00,1.0177
6584.00,1.0275
6583.00,1.0374
6582.00,1.0474
6581.00,1.0575
6580.00,1.0674
6579.00,1.0770
6578.00,1.0865
6577.00,1.0958
6576.00,1.1048
6575.00,1.1132
6574.00,1.1214
6573.00,1.1298
6572.00,1.1382
6571.00,1.1464
6570.00,1.1540
6569.00,1.1607
6568.00,1.1667
6567.00,1.1719
6566.00,1.1768
6565.00,1.1815
6564.00,1.1864
6563.00,1.1912
6562.00,1.1961
6561.00,1.2007
6560.00,1.2049
6559.00,1.2085
6558.00,1.2113
6557.00,1.2135
6556.00,1.2150
6555.00,1.2163
6554.00,1.2173
6553.00,1.2180
6552.00,1.2186
6551.00,1.2189
6550.00,1.2190
6549.00,1.2188
6548.00,1.2182
6547.00,1.2172
6546.00,1.2156
6545.00,1.2134
6544.00,1.2107
6543.00,1.2078
6542.00,1.2047
6541.00,1.2014
6540.00,1.1976
6539.00,1.1931
6538.00,1.1883
6537.00,1.1832
6536.00,1.1778
6535.00,1.1721
6534.00,1.1664
6533.00,1.1609
6532.00,1.1553
6531.00,1.1493
6530.00,1.1425
6529.00,1.1351
6528.00,1.1273
6527.00,1.1194
6526.00,1.1115
6525.00,1.1032
6524.00,1.0944
6523.00,1.0851
6522.00,1.0757
6521.00,1.0661
6520.00,1.0565
6519.00,1.0467
6518.00,1.0369
6517.00,1.0273
6516.00,1.0177
6515.00,1.0080
6514.00,0.9980
6513.00,0.9875
6512.00,0.9768
6511.00,0.9659
6510.00,0.9552
6509.00,0.9447
6508.00,0.9342
6507.00,0.9239
6506.00,0.9138
6505.00,0.9038
6504.00,0.8939
6503.00,0.8842
6502.00,0.8746
6501.00,0.8651
6500.00,0.8557
6499.00,0.8466
6498.00,0.8379
6497.00,0.8297
6496.00,0.8220
6495.00,0.8147
6494.00,0.8078
6493.00,0.8017
6492.00,0.7962
6491.00,0.7912
6490.00,0.7866
6489.00,0.7825
6488.00,0.7791
6487.00,0.7762
6486.00,0.7739
6485.00,0.7723
6484.00,0.7714
6483.00,0.7711
6482.00,0.7716
6481.00,0.7728
6480.00,0.7746
6479.00,0.7769
6478.00,0.7800
6477.00,0.7836
6476.00,0.7877
6475.00,0.7923
6474.00,0.7977
6473.00,0.8037
6472.00,0.8103
6471.00,0.8172
6470.00,0.8246
6469.00,0.8326
6468.00,0.8411
6467.00,0.8497
6466.00,0.8585
6465.00,0.8678
6464.00,0.8774
6463.00,0.8873
6462.00,0.8973
6461.00,0.9075
6460.00,0.9178
6459.00,0.9283
6458.00,0.9391
6457.00,0.9500
6456.00,0.9611
6455.00,0.9722
6454.00,0.9833
6453.00,0.9944
6452.00,1.0054
6451.00,1.0161
6450.00,1.0268
6449.00,1.0375
6448.00,1.0482
6447.00,1.0590
6446.00,1.0696
6445.00,1.0799
6444.00,1.0901
6443.00,1.1002
6442.00,1.1103
6441.00,1.1202
6440.00,1.1294
6439.00,1.1382
6438.00,1.1467
6437.00,1.1549
6436.00,1.1626
6435.00,1.1698
6434.00,1.1767
6433.00,1.1837
6432.00,1.1905
6431.00,1.1972
6430.00,1.2037
6429.00,1.2101
6428.00,1.2161
6427.00,1.2217
6426.00,1.2268
6425.00,1.2315
6424.00,1.2357
6423.00,1.2392
6422.00,1.2421
6421.00,1.2444
6420.00,1.2465
6419.00,1.2484
6418.00,1.2500
6417.00,1.2511
6416.00,1.2516
6415.00,1.2519
6414.00,1.2520
6413.00,1.2519
6412.00,1.2508
6411.00,1.2490
6410.00,1.2468
6409.00,1.2448
6408.00,1.2426
6407.00,1.2397
6406.00,1.2364
6405.00,1.2328
6404.00,1.2289
6403.00,1.2243
6402.00,1.2192
6401.00,1.2140
6400.00,1.2089
6399.00,1.2036
6398.00,1.1976
6397.00,1.1910
6396.00,1.1839
6395.00,1.1763
6394.00,1.1687
6393.00,1.1609
6392.00,1.1529
6391.00,1.1444
6390.00,1.1355
6389.00,1.1264
6388.00,1.1169
6387.00,1.1069
6386.00,1.0965
6385.00,1.0859
6384.00,1.0753
6383.00,1.0647
6382.00,1.0538
6381.00,1.0426
6380.00,1.0312
6379.00,1.0198
6378.00,1.0085
6377.00,0.9973
6376.00,0.9860
6375.00,0.9746
6374.00,0.9631
6373.00,0.9516
6372.00,0.9401
6371.00,0.9287
6370.00,0.9175
6369.00,0.9064
6368.00,0.8955
6367.00,0.8849
6366.00,0.8748
6365.00,0.8651
6364.00,0.8557
6363.00,0.8465
6362.00,0.8378
6361.00,0.8296
6360.00,0.8218
6359.00,0.8144
6358.00,0.8074
6357.00,0.8011
6356.00,0.7953
6355.00,0.7902
6354.00,0.7858
6353.00,0.7821
6352.00,0.7790
6351.00,0.7767
6350.00,0.7751
6349.00,0.7741
6348.00,0.7738
6347.00,0.7740
6346.00,0.7748
6345.00,0.7766
6344.00,0.7791
6343.00,0.7823
6342.00,0.7862
6341.00,0.7907
6340.00,0.7958
6339.00,0.8015
6338.00,0.8076
6337.00,0.8144
6336.00,0.8217
6335.00,0.8294
6334.00,0.8374
6333.00,0.8458
6332.00,0.8544
6331.00,0.8634
6330.00,0.8727
6329.00,0.8823
6328.00,0.8923
6327.00,0.9026
6326.00,0.9131
6325.00,0.9237
6324.00,0.9342
6323.00,0.9448
6322.00,0.9557
6321.00,0.9668
6320.00,0.9782
6319.00,0.9896
6318.00,1.0009
6317.00,1.0122
6316.00,1.0233
6315.00,1.0341
6314.00,1.0448
6313.00,1.0553
6312.00,1.0657
6311.00,1.0761
6310.00,1.0865
6309.00,1.0966
6308.00,1.1065
6307.00,1.1159
6306.00,1.1249
6305.00,1.1338
6304.00,1.1424
6303.00,1.1505
6302.00,1.1583
6301.00,1.1659
6300.00,1.1734
6299.00,1.1808
6298.00,1.1879
6297.00,1.1946
6296.00,1.2008
6295.00,1.2065
6294.00,1.2119
6293.00,1.2169
6292.00,1.2215
6291.00,1.2258
6290.00,1.2297
6289.00,1.2330
6288.00,1.2357
6287.00,1.2376
6286.00,1.2391
6285.00,1.2405
6284.00,1.2417
6283.00,1.2428
6282.00,1.2439
6281.00,1.2452
6280.00,1.2462
6279.00,1.2462
6278.00,1.2450
6277.00,1.2429
6276.00,1.2403
6275.00,1.2374
6274.00,1.2345
6273.00,1.2316
6272.00,1.2287
6271.00,1.2256
6270.00,1.2220
6269.00,1.2180
6268.00,1.2133
6267.00,1.2079
6266.00,1.2023
6265.00,1.1969
6264.00,1.1917
6263.00,1.1862
6262.00,1.1800
6261.00,1.1733
6260.00,1.1663
6259.00,1.1590
6258.00,1.1512
6257.00,1.1429
6256.00,1.1342
6255.00,1.1254
6254.00,1.1163
6253.00,1.1069
6252.00,1.0971
6251.00,1.0872
6250.00,1.0770
6249.00,1.0665
6248.00,1.0557
6247.00,1.0448
6246.00,1.0340
6245.00,1.0231
6244.00,1.0122
6243.00,1.0013
6242.00,0.9903
6241.00,0.9791
6240.00,0.9676
6239.00,0.9559
6238.00,0.9442
6237.00,0.9327
6236.00,0.9214
6235.00,0.9103
6234.00,0.8995
6233.00,0.8890
6232.00,0.8785
6231.00,0.8683
6230.00,0.8584
6229.00,0.8489
6228.00,0.8398
6227.00,0.8309
6226.00,0.8225
6225.00,0.8145
6224.00,0.8070
6223.00,0.8000
6222.00,0.7937
6221.00,0.7881
6220.00,0.7834
6219.00,0.7793
6218.00,0.7758
6217.00,0.7730
6216.00,0.7707
6215.00,0.7690
6214.00,0.7680
6213.00,0.7679
6212.00,0.7687
6211.00,0.7702
6210.00,0.7723
6209.00,0.7751
6208.00,0.7786
6207.00,0.7826
6206.00,0.7872
6205.00,0.7925
6204.00,0.7986
6203.00,0.8055
6202.00,0.8129
6201.00,0.8207
6200.00,0.8288
6199.00,0.8373
6198.00,0.8462
6197.00,0.8556
6196.00,0.8654
6195.00,0.8756
6194.00,0.8862
6193.00,0.8971
6192.00,0.9081
6191.00,0.9190
6190.00,0.9300
6189.00,0.9411
6188.00,0.9524
6187.00,0.9640
6186.00,0.9759
6185.00,0.9879
6184.00,0.9998
6183.00,1.0116
6182.00,1.0231
6181.00,1.0344
6180.00,1.0456
6179.00,1.0566
6178.00,1.0679
6177.00,1.0793
6176.00,1.0905
6175.00,1.1013
6174.00,1.1119
6173.00,1.1223
6172.00,1.1323
6171.00,1.1419
6170.00,1.1513
6169.00,1.1606
6168.00,1.1696
6167.00,1.1781
6166.00,1.1863
6165.00,1.1943
6164.00,1.2022
6163.00,1.2097
6162.00,1.2167
6161.00,1.2236
6160.00,1.2301
6159.00,1.2362
6158.00,1.2418
6157.00,1.2470
6156.00,1.2519
6155.00,1.2562
6154.00,1.2600
6153.00,1.2632
6152.00,1.2662
6151.00,1.2689
6150.00,1.2714
6149.00,1.2735
6148.00,1.2748
6147.00,1.2755
6146.00,1.2757
6145.00,1.2754
6144.00,1.2748
6143.00,1.2739
6142.00,1.2728
6141.00,1.2716
6140.00,1.2699
6139.00,1.2676
6138.00,1.2648
6137.00,1.2614
6136.00,1.2577
6135.00,1.2535
6134.00,1.2490
6133.00,1.2442
6132.00,1.2390
6131.00,1.2334
6130.00,1.2276
6129.00,1.2217
6128.00,1.2154
6127.00,1.2086
6126.00,1.2012
6125.00,1.1935
6124.00,1.1853
6123.00,1.1767
6122.00,1.1679
6121.00,1.1590
6120.00,1.1500
6119.00,1.1405
6118.00,1.1306
6117.00,1.1202
6116.00,1.1095
6115.00,1.0983
6114.00,1.0869
6113.00,1.0754
6112.00,1.0639
6111.00,1.0521
6110.00,1.0401
6109.00,1.0279
6108.00,1.0156
6107.00,1.0032
6106.00,0.9908
6105.00,0.9785
6104.00,0.9662
6103.00,0.9540
6102.00,0.9418
6101.00,0.9297
6100.00,0.9178
6099.00,0.9061
6098.00,0.8947
6097.00,0.8836
6096.00,0.8730
6095.00,0.8626
6094.00,0.8525
6093.00,0.8427
6092.00,0.8334
6091.00,0.8246
6090.00,0.8162
6089.00,0.8083
6088.00,0.8010
6087.00,0.7942
6086.00,0.7881
6085.00,0.7827
6084.00,0.7781
6083.00,0.7742
6082.00,0.7711
6081.00,0.7689
6080.00,0.7675
6079.00,0.7668
6078.00,0.7668
6077.00,0.7675
6076.00,0.7690
6075.00,0.7712
6074.00,0.7741
6073.00,0.7776
6072.00,0.7818
6071.00,0.7867
6070.00,0.7923
6069.00,0.7987
6068.00,0.8058
6067.00,0.8133
6066.00,0.8213
6065.00,0.8297
6064.00,0.8383
6063.00,0.8471
6062.00,0.8563
6061.00,0.8662
6060.00,0.8766
6059.00,0.8874
6058.00,0.8985
6057.00,0.9097
6056.00,0.9210
6055.00,0.9323
6054.00,0.9436
6053.00,0.9549
6052.00,0.9665
6051.00,0.9784
6050.00,0.9904
6049.00,1.0023
6048.00,1.0140
6047.00,1.0256
6046.00,1.0371
6045.00,1.0487
6044.00,1.0602
6043.00,1.0714
6042.00,1.0825
6041.00,1.0934
6040.00,1.1042
6039.00,1.1146
6038.00,1.1246
6037.00,1.1343
6036.00,1.1441
6035.00,1.1537
6034.00,1.1631
6033.00,1.1720
6032.00,1.1806
6031.00,1.1891
6030.00,1.1973
6029.00,1.2051
6028.00,1.2124
6027.00,1.2194
6026.00,1.2264
6025.00,1.2334
6024.00,1.2401
6023.00,1.2462
6022.00,1.2518
6021.00,1.2569
6020.00,1.2613
6019.00,1.2653
6018.00,1.2688
6017.00,1.2722
6016.00,1.2754
6015.00,1.2784
6014.00,1.2807
6013.00,1.2824
6012.00,1.2834
6011.00,1.2840
6010.00,1.2845
6009.00,1.2847
6008.00,1.2846
6007.00,1.2838
6006.00,1.2824
6005.00,1.2804
6004.00,1.2779
6003.00,1.2749
6002.00,1.2718
6001.00,1.2687
6000.00,1.2655
5999.00,1.2617
5998.00,1.2573
5997.00,1.2525
5996.00,1.2473
5995.00,1.2418
5994.00,1.2359
5993.00,1.2295
5992.00,1.2225
5991.00,1.2150
5990.00,1.2071
5989.00,1.1988
5988.00,1.1902
5987.00,1.1812
5986.00,1.1718
5985.00,1.1619
5984.00,1.1515
5983.00,1.1408
5982.00,1.1300
5981.00,1.1191
5980.00,1.1081
5979.00,1.0968
5978.00,1.0851
5977.00,1.0730
5976.00,1.0606
5975.00,1.0480
5974.00,1.0352
5973.00,1.0225
5972.00,1.0098
5971.00,0.9970
5970.00,0.9843
5969.00,0.9717
5968.00,0.9592
5967.00,0.9468
5966.00,0.9344
5965.00,0.9222
5964.00,0.9101
5963.00,0.8981
5962.00,0.8864
5961.00,0.8752
5960.00,0.8644
5959.00,0.8540
5958.00,0.8440
5957.00,0.8345
5956.00,0.8257
5955.00,0.8175
5954.00,0.8099
5953.00,0.8030
5952.00,0.7966
5951.00,0.7907
5950.00,0.7855
5949.00,0.7809
5948.00,0.7769
5947.00,0.7737
5946.00,0.7715
5945.00,0.7703
5944.00,0.7700
5943.00,0.7704
5942.00,0.7714
5941.00,0.7733
5940.00,0.7759
5939.00,0.7793
5938.00,0.7835
5937.00,0.7886
5936.00,0.7945
5935.00,0.8010
5934.00,0.8081
5933.00,0.8155
5932.00,0.8234
5931.00,0.8318
5930.00,0.8409
5929.00,0.8507
5928.00,0.8610
5927.00,0.8716
5926.00,0.8825
5925.00,0.8938
5924.00,0.9054
5923.00,0.9171
5922.00,0.9290
5921.00,0.9411
5920.00,0.9533
5919.00,0.9657
5918.00,0.9782
5917.00,0.9907
5916.00,1.0033
5915.00,1.0160
5914.00,1.0287
5913.00,1.0413
5912.00,1.0539
5911.00,1.0664
5910.00,1.0790
5909.00,1.0914
5908.00,1.1035
5907.00,1.1153
5906.00,1.1268
5905.00,1.1381
5904.00,1.1492
5903.00,1.1599
5902.00,1.1704
5901.00,1.1807
5900.00,1.1906
5899.00,1.2003
5898.00,1.2098
5897.00,1.2191
5896.00,1.2280
5895.00,1.2362
5894.00,1.2438
5893.00,1.2511
5892.00,1.2581
5891.00,1.2649
5890.00,1.2716
5889.00,1.2780
5888.00,1.2841
5887.00,1.2895
5886.00,1.2941
5885.00,1.2980
5884.00,1.3013
5883.00,1.3041
5882.00,1.3066
5881.00,1.3090
5880.00,1.3112
5879.00,1.3131
5878.00,1.3145
5877.00,1.3154
5876.00,1.3160
5875.00,1.3160
5874.00,1.3155
5873.00,1.3147
5872.00,1.3137
5871.00,1.3124
5870.00,1.3104
5869.00,1.3078
5868.00,1.3046
5867.00,1.3013
5866.00,1.2979
5865.00,1.2942
5864.00,1.2901
5863.00,1.2855
5862.00,1.2804
5861.00,1.2746
5860.00,1.2681
5859.00,1.2609
5858.00,1.2533
5857.00,1.2458
5856.00,1.2382
5855.00,1.2303
5854.00,1.2217
5853.00,1.2126
5852.00,1.2030
5851.00,1.1931
5850.00,1.1829
5849.00,1.1726
5848.00,1.1623
5847.00,1.1518
5846.00,1.1411
5845.00,1.1299
5844.00,1.1183
5843.00,1.1063
5842.00,1.0940
5841.00,1.0816
5840.00,1.0692
5839.00,1.0566
5838.00,1.0441
5837.00,1.0314
5836.00,1.0185
5835.00,1.0055
5834.00,0.9925
5833.00,0.9796
5832.00,0.9670
5831.00,0.9545
5830.00,0.9423
5829.00,0.9302
5828.00,0.9183
5827.00,0.9065
5826.00,0.8949
5825.00,0.8838
5824.00,0.8731
5823.00,0.8629
5822.00,0.8531
5821.00,0.8437
5820.00,0.8348
5819.00,0.8265
5818.00,0.8189
5817.00,0.8120
5816.00,0.8059
5815.00,0.8005
5814.00,0.7958
5813.00,0.7917
5812.00,0.7884
5811.00,0.7858
5810.00,0.7840
5809.00,0.7832
5808.00,0.7831
5807.00,0.7839
5806.00,0.7854
5805.00,0.7877
5804.00,0.7909
5803.00,0.7948
5802.00,0.7996
5801.00,0.8052
5800.00,0.8114
5799.00,0.8181
5798.00,0.8254
5797.00,0.8331
5796.00,0.8414
5795.00,0.8503
5794.00,0.8599
5793.00,0.8700
5792.00,0.8807
5791.00,0.8916
5790.00,0.9028
5789.00,0.9141
5788.00,0.9256
5787.00,0.9374
5786.00,0.9494
5785.00,0.9617
5784.00,0.9741
5783.00,0.9866
5782.00,0.9992
5781.00,1.0117
5780.00,1.0242
5779.00,1.0367
5778.00,1.0495
5777.00,1.0623
5776.00,1.0751
5775.00,1.0877
5774.00,1.1002
5773.00,1.1124
5772.00,1.1243
5771.00,1.1361
5770.00,1.1479
5769.00,1.1597
5768.00,1.1713
5767.00,1.1826
5766.00,1.1934
5765.00,1.2037
5764.00,1.2137
5763.00,1.2234
5762.00,1.2325
5761.00,1.2411
5760.00,1.2492
5759.00,1.2571
5758.00,1.2649
5757.00,1.2725
5756.00,1.2799
5755.00,1.2870
5754.00,1.2936
5753.00,1.2998
5752.00,1.3054
5751.00,1.3102
5750.00,1.3145
5749.00,1.3184
5748.00,1.3218
5747.00,1.3246
5746.00,1.3269
5745.00,1.3289
5744.00,1.3307
5743.00,1.3322
5742.00,1.3330
5741.00,1.3333
5740.00,1.3333
5739.00,1.3330
5738.00,1.3326
5737.00,1.3318
5736.00,1.3306
5735.00,1.3290
5734.00,1.3269
5733.00,1.3242
5732.00,1.3210
5731.00,1.3172
5730.00,1.3129
5729.00,1.3083
5728.00,1.3034
5727.00,1.2982
5726.00,1.2926
5725.00,1.2866
5724.00,1.2801
5723.00,1.2731
5722.00,1.2656
5721.00,1.2577
5720.00,1.2494
5719.00,1.2408
5718.00,1.2319
5717.00,1.2225
5716.00,1.2127
5715.00,1.2023
5714.00,1.1916
5713.00,1.1805
5712.00,1.1691
5711.00,1.1574
5710.00,1.1456
5709.00,1.1336
5708.00,1.1213
5707.00,1.1086
5706.00,1.0955
5705.00,1.0822
5704.00,1.0686
5703.00,1.0549
5702.00,1.0412
5701.00,1.0276
5700.00,1.0141
5699.00,1.0008
5698.00,0.9875
5697.00,0.9741
5696.00,0.9608
5695.00,0.9474
5694.00,0.9341
5693.00,0.9210
5692.00,0.9082
5691.00,0.8958
5690.00,0.8838
5689.00,0.8723
5688.00,0.8610
5687.00,0.8502
5686.00,0.8398
5685.00,0.8301
5684.00,0.8211
5683.00,0.8128
5682.00,0.8053
5681.00,0.7987
5680.00,0.7927
5679.00,0.7875
5678.00,0.7830
5677.00,0.7793
5676.00,0.7765
5675.00,0.7746
5674.00,0.7736
5673.00,0.7736
5672.00,0.7745
5671.00,0.7762
5670.00,0.7789
5669.00,0.7823
5668.00,0.7865
5667.00,0.7914
5666.00,0.7971
5665.00,0.8036
5664.00,0.8108
5663.00,0.8187
5662.00,0.8272
5661.00,0.8363
5660.00,0.8460
5659.00,0.8562
5658.00,0.8670
5657.00,0.8783
5656.00,0.8900
5655.00,0.9020
5654.00,0.9142
5653.00,0.9265
5652.00,0.9388
5651.00,0.9513
5650.00,0.9641
5649.00,0.9772
5648.00,0.9904
5647.00,1.0037
5646.00,1.0171
5645.00,1.0304
5644.00,1.0437
5643.00,1.0568
5642.00,1.0699
5641.00,1.0828
5640.00,1.0955
5639.00,1.1081
5638.00,1.1205
5637.00,1.1328
5636.00,1.1450
5635.00,1.1568
5634.00,1.1682
5633.00,1.1791
5632.00,1.1895
5631.00,1.1993
5630.00,1.2089
5629.00,1.2185
5628.00,1.2281
5627.00,1.2375
5626.00,1.2466
5625.00,1.2552
5624.00,1.2630
5623.00,1.2700
5622.00,1.2764
5621.00,1.2824
5620.00,1.2881
5619.00,1.2933
5618.00,1.2982
5617.00,1.3027
5616.00,1.3069
5615.00,1.3105
5614.00,1.3137
5613.00,1.3166
5612.00,1.3192
5611.00,1.3215
5610.00,1.3234
5609.00,1.3250
5608.00,1.3264
5607.00,1.3275
5606.00,1.3281
5605.00,1.3283
5604.00,1.3281
5603.00,1.3275
5602.00,1.3264
5601.00,1.3248
5600.00,1.3228
5599.00,1.3202
5598.00,1.3171
5597.00,1.3138
5596.00,1.3105
5595.00,1.3069
5594.00,1.3031
5593.00,1.2988
5592.00,1.2940
5591.00,1.2887
5590.00,1.2829
5589.00,1.2769
5588.00,1.2705
5587.00,1.2635
5586.00,1.2557
5585.00,1.2472
5584.00,1.2381
5583.00,1.2286
5582.00,1.2191
5581.00,1.2097
5580.00,1.2000
5579.00,1.1899
5578.00,1.1792
5577.00,1.1679
5576.00,1.1562
5575.00,1.1442
5574.00,1.1320
5573.00,1.1195
5572.00,1.1068
5571.00,1.0940
5570.00,1.0809
5569.00,1.0677
5568.00,1.0544
5567.00,1.0409
5566.00,1.0272
5565.00,1.0132
5564.00,0.9989
5563.00,0.9845
5562.00,0.9703
5561.00,0.9565
5560.00,0.9428
5559.00,0.9295
5558.00,0.9163
5557.00,0.9033
5556.00,0.8906
5555.00,0.8783
5554.00,0.8663
5553.00,0.8549
5552.00,0.8439
5551.00,0.8335
5550.00,0.8237
5549.00,0.8146
5548.00,0.8061
5547.00,0.7984
5546.00,0.7914
5545.00,0.7852
5544.00,0.7799
5543.00,0.7755
5542.00,0.7721
5541.00,0.7696
5540.00,0.7681
5539.00,0.7673
5538.00,0.7674
5537.00,0.7684
5536.00,0.7704
5535.00,0.7733
5534.00,0.7772
5533.00,0.7820
5532.00,0.7877
5531.00,0.7943
5530.00,0.8016
5529.00,0.8097
5528.00,0.8185
5527.00,0.8277
5526.00,0.8376
5525.00,0.8480
5524.00,0.8589
5523.00,0.8703
5522.00,0.8821
5521.00,0.8943
5520.00,0.9069
5519.00,0.9198
5518.00,0.9328
5517.00,0.9461
5516.00,0.9597
5515.00,0.9735
5514.00,0.9874
5513.00,1.0013
5512.00,1.0152
5511.00,1.0290
5510.00,1.0426
5509.00,1.0562
5508.00,1.0701
5507.00,1.0841
5506.00,1.0982
5505.00,1.1120
5504.00,1.1255
5503.00,1.1384
5502.00,1.1510
5501.00,1.1634
5500.00,1.1755
5499.00,1.1876
5498.00,1.1994
5497.00,1.2109
5496.00,1.2221
5495.00,1.2328
5494.00,1.2432
5493.00,1.2534
5492.00,1.2633
5491.00,1.2729
5490.00,1.2819
5489.00,1.2904
5488.00,1.2984
5487.00,1.3059
5486.00,1.3129
5485.00,1.3193
5484.00,1.3255
5483.00,1.3313
5482.00,1.3367
5481.00,1.3417
5480.00,1.3463
5479.00,1.3506
5478.00,1.3544
5477.00,1.3576
5476.00,1.3601
5475.00,1.3619
5474.00,1.3631
5473.00,1.3638
5472.00,1.3643
5471.00,1.3648
5470.00,1.3650
5469.00,1.3649
5468.00,1.3642
5467.00,1.3628
5466.00,1.3609
5465.00,1.3586
5464.00,1.3562
5463.00,1.3536
5462.00,1.3506
5461.00,1.3470
5460.00,1.3426
5459.00,1.3376
5458.00,1.3319
5457.00,1.3258
5456.00,1.3193
5455.00,1.3126
5454.00,1.3057
5453.00,1.2986
5452.00,1.2911
5451.00,1.2832
5450.00,1.2749
5449.00,1.2661
5448.00,1.2567
5447.00,1.2465
5446.00,1.2355
5445.00,1.2239
5444.00,1.2119
5443.00,1.1997
5442.00,1.1873
5441.00,1.1748
5440.00,1.1622
5439.00,1.1495
5438.00,1.1365
5437.00,1.1233
5436.00,1.1094
5435.00,1.0951
5434.00,1.0804
5433.00,1.0656
5432.00,1.0509
5431.00,1.0360
5430.00,1.0209
5429.00,1.0056
5428.00,0.9902
5427.00,0.9749
5426.00,0.9599
5425.00,0.9454
5424.00,0.9312
5423.00,0.9174
5422.00,0.9041
5421.00,0.8910
5420.00,0.8781
5419.00,0.8656
5418.00,0.8536
5417.00,0.8422
5416.00,0.8314
5415.00,0.8210
5414.00,0.8110
5413.00,0.8017
5412.00,0.7931
5411.00,0.7854
5410.00,0.7786
5409.00,0.7729
5408.00,0.7682
5407.00,0.7646
5406.00,0.7620
5405.00,0.7604
5404.00,0.7598
5403.00,0.7603
5402.00,0.7618
5401.00,0.7643
5400.00,0.7677
5399.00,0.7719
5398.00,0.7769
5397.00,0.7828
5396.00,0.7894
5395.00,0.7968
5394.00,0.8049
5393.00,0.8138
5392.00,0.8233
5391.00,0.8334
5390.00,0.8441
5389.00,0.8554
5388.00,0.8671
5387.00,0.8794
5386.00,0.8922
5385.00,0.9056
5384.00,0.9192
5383.00,0.9329
5382.00,0.9467
5381.00,0.9607
5380.00,0.9748
5379.00,0.9890
5378.00,1.0033
5377.00,1.0176
5376.00,1.0321
5375.00,1.0465
5374.00,1.0610
5373.00,1.0754
5372.00,1.0898
5371.00,1.1040
5370.00,1.1180
5369.00,1.1318
5368.00,1.1454
5367.00,1.1588
5366.00,1.1721
5365.00,1.1852
5364.00,1.1980
5363.00,1.2106
5362.00,1.2228
5361.00,1.2346
5360.00,1.2460
5359.00,1.2570
5358.00,1.2676
5357.00,1.2775
5356.00,1.2867
5355.00,1.2952
5354.00,1.3033
5353.00,1.3110
5352.00,1.3186
5351.00,1.3259
5350.00,1.3331
5349.00,1.3398
5348.00,1.3460
5347.00,1.3515
5346.00,1.3564
5345.00,1.3608
5344.00,1.3647
5343.00,1.3683
5342.00,1.3716
5341.00,1.3745
5340.00,1.3769
5339.00,1.3787
5338.00,1.3802
5337.00,1.3812
5336.00,1.3819
5335.00,1.3821
5334.00,1.3818
5333.00,1.3809
5332.00,1.3796
5331.00,1.3778
5330.00,1.3757
5329.00,1.3730
5328.00,1.3698
5327.00,1.3663
5326.00,1.3626
5325.00,1.3585
5324.00,1.3539
5323.00,1.3487
5322.00,1.3429
5321.00,1.3364
5320.00,1.3296
5319.00,1.3227
5318.00,1.3154
5317.00,1.3077
5316.00,1.2995
5315.00,1.2908
5314.00,1.2815
5313.00,1.2719
5312.00,1.2619
5311.00,1.2516
5310.00,1.2409
5309.00,1.2296
5308.00,1.2174
5307.00,1.2047
5306.00,1.1915
5305.00,1.1780
5304.00,1.1644
5303.00,1.1506
5302.00,1.1367
5301.00,1.1226
5300.00,1.1081
5299.00,1.0932
5298.00,1.0780
5297.00,1.0626
5296.00,1.0471
5295.00,1.0317
5294.00,1.0164
5293.00,1.0013
5292.00,0.9862
5291.00,0.9712
5290.00,0.9561
5289.00,0.9412
5288.00,0.9266
5287.00,0.9124
5286.00,0.8985
5285.00,0.8850
5284.00,0.8720
5283.00,0.8596
5282.00,0.8479
5281.00,0.8367
5280.00,0.8263
5279.00,0.8166
5278.00,0.8078
5277.00,0.7999
5276.00,0.7928
5275.00,0.7867
5274.00,0.7816
5273.00,0.7774
5272.00,0.7743
5271.00,0.7722
5270.00,0.7711
5269.00,0.7710
5268.00,0.7720
5267.00,0.7739
5266.00,0.7769
5265.00,0.7809
5264.00,0.7858
5263.00,0.7916
5262.00,0.7983
5261.00,0.8059
5260.00,0.8143
5259.00,0.8235
5258.00,0.8336
5257.00,0.8445
5256.00,0.8561
5255.00,0.8682
5254.00,0.8809
5253.00,0.8940
5252.00,0.9073
5251.00,0.9208
5250.00,0.9345
5249.00,0.9484
5248.00,0.9627
5247.00,0.9774
5246.00,0.9923
5245.00,1.0073
5244.00,1.0225
5243.00,1.0379
5242.00,1.0533
5241.00,1.0687
5240.00,1.0838
5239.00,1.0987
5238.00,1.1134
5237.00,1.1278
5236.00,1.1421
5235.00,1.1563
5234.00,1.1705
5233.00,1.1846
5232.00,1.1982
5231.00,1.2115
5230.00,1.2246
5229.00,1.2373
5228.00,1.2497
5227.00,1.2615
5226.00,1.2728
5225.00,1.2834
5224.00,1.2936
5223.00,1.3033
5222.00,1.3127
5221.00,1.3218
5220.00,1.3307
5219.00,1.3394
5218.00,1.3477
5217.00,1.3555
5216.00,1.3628
5215.00,1.3695
5214.00,1.3757
5213.00,1.3814
5212.00,1.3866
5211.00,1.3913
5210.00,1.3955
5209.00,1.3992
5208.00,1.4022
5207.00,1.4048
5206.00,1.4071
5205.00,1.4092
5204.00,1.4111
5203.00,1.4125
5202.00,1.4133
5201.00,1.4137
5200.00,1.4136
5199.00,1.4132
5198.00,1.4123
5197.00,1.4112
5196.00,1.4097
5195.00,1.4075
5194.00,1.4047
5193.00,1.4014
5192.00,1.3975
5191.00,1.3931
5190.00,1.3882
5189.00,1.3829
5188.00,1.3772
5187.00,1.3710
5186.00,1.3644
5185.00,1.3574
5184.00,1.3500
5183.00,1.3421
5182.00,1.3338
5181.00,1.3249
5180.00,1.3155
5179.00,1.3058
5178.00,1.2956
5177.00,1.2851
5176.00,1.2740
5175.00,1.2624
5174.00,1.2504
5173.00,1.2379
5172.00,1.2250
5171.00,1.2116
5170.00,1.1978
5169.00,1.1836
5168.00,1.1691
5167.00,1.1542
5166.00,1.1392
5165.00,1.1240
5164.00,1.1085
5163.00,1.0929
5162.00,1.0770
5161.00,1.0609
5160.00,1.0447
5159.00,1.0284
5158.00,1.0121
5157.00,0.9958
5156.00,0.9797
5155.00,0.9636
5154.00,0.9478
5153.00,0.9324
5152.00,0.9173
5151.00,0.9028
5150.00,0.8886
5149.00,0.8748
5148.00,0.8614
5147.00,0.8486
5146.00,0.8365
5145.00,0.8251
5144.00,0.8146
5143.00,0.8050
5142.00,0.7962
5141.00,0.7884
5140.00,0.7815
5139.00,0.7757
5138.00,0.7710
5137.00,0.7675
5136.00,0.7650
5135.00,0.7636
5134.00,0.7634
5133.00,0.7642
5132.00,0.7662
5131.00,0.7692
5130.00,0.7733
5129.00,0.7783
5128.00,0.7844
5127.00,0.7915
5126.00,0.7997
5125.00,0.8087
5124.00,0.8186
5123.00,0.8292
5122.00,0.8405
5121.00,0.8523
5120.00,0.8648
5119.00,0.8778
5118.00,0.8914
5117.00,0.9055
5116.00,0.9199
5115.00,0.9346
5114.00,0.9495
5113.00,0.9647
5112.00,0.9801
5111.00,0.9958
5110.00,1.0116
5109.00,1.0275
5108.00,1.0434
5107.00,1.0592
5106.00,1.0750
5105.00,1.0907
5104.00,1.1064
5103.00,1.1220
5102.00,1.1375
5101.00,1.1527
5100.00,1.1677
5099.00,1.1825
5098.00,1.1970
5097.00,1.2112
5096.00,1.2251
5095.00,1.2386
5094.00,1.2517
5093.00,1.2643
5092.00,1.2765
5091.00,1.2884
5090.00,1.3001
5089.00,1.3114
5088.00,1.3222
5087.00,1.3322
5086.00,1.3415
5085.00,1.3504
5084.00,1.3590
5083.00,1.3675
5082.00,1.3757
5081.00,1.3834
5080.00,1.3904
5079.00,1.3967
5078.00,1.4024
5077.00,1.4078
5076.00,1.4128
5075.00,1.4173
5074.00,1.4214
5073.00,1.4249
5072.00,1.4278
5071.00,1.4302
5070.00,1.4321
5069.00,1.4337
5068.00,1.4349
5067.00,1.4360
5066.00,1.4367
5065.00,1.4371
5064.00,1.4369
5063.00,1.4360
5062.00,1.4346
5061.00,1.4326
5060.00,1.4302
5059.00,1.4274
5058.00,1.4242
5057.00,1.4206
5056.00,1.4164
5055.00,1.4115
5054.00,1.4062
5053.00,1.4005
5052.00,1.3945
5051.00,1.3880
5050.00,1.3812
5049.00,1.3739
5048.00,1.3658
5047.00,1.3572
5046.00,1.3480
5045.00,1.3386
5044.00,1.3288
5043.00,1.3185
5042.00,1.3076
5041.00,1.2962
5040.00,1.2842
5039.00,1.2715
5038.00,1.2584
5037.00,1.2448
5036.00,1.2309
5035.00,1.2165
5034.00,1.2018
5033.00,1.1869
5032.00,1.1718
5031.00,1.1563
5030.00,1.1405
5029.00,1.1244
5028.00,1.1079
5027.00,1.0912
5026.00,1.0743
5025.00,1.0573
5024.00,1.0402
5023.00,1.0230
5022.00,1.0059
5021.00,0.9890
5020.00,0.9722
5019.00,0.9557
5018.00,0.9394
5017.00,0.9235
5016.00,0.9080
5015.00,0.8929
5014.00,0.8783
5013.00,0.8643
5012.00,0.8512
5011.00,0.8387
5010.00,0.8271
5009.00,0.8162
5008.00,0.8062
5007.00,0.7972
5006.00,0.7892
5005.00,0.7823
5004.00,0.7766
5003.00,0.7720
5002.00,0.7686
5001.00,0.7663
5000.00,0.7654
4999.00,0.7656
4998.00,0.7671
4997.00,0.7698
4996.00,0.7737
4995.00,0.7786
4994.00,0.7847
4993.00,0.7919
4992.00,0.8002
4991.00,0.8094
4990.00,0.8196
4989.00,0.8306
4988.00,0.8424
4987.00,0.8549
4986.00,0.8682
4985.00,0.8819
4984.00,0.8963
4983.00,0.9111
4982.00,0.9263
4981.00,0.9419
4980.00,0.9576
4979.00,0.9736
4978.00,0.9898
4977.00,1.0063
4976.00,1.0230
4975.00,1.0398
4974.00,1.0567
4973.00,1.0736
4972.00,1.0904
4971.00,1.1072
4970.00,1.1237
4969.00,1.1401
4968.00,1.1562
4967.00,1.1720
4966.00,1.1877
4965.00,1.2031
4964.00,1.2184
4963.00,1.2335
4962.00,1.2483
4961.00,1.2627
4960.00,1.2766
4959.00,1.2899
4958.00,1.3027
4957.00,1.3150
4956.00,1.3267
4955.00,1.3379
4954.00,1.3486
4953.00,1.3589
4952.00,1.3689
4951.00,1.3785
4950.00,1.3877
4949.00,1.3963
4948.00,1.4043
4947.00,1.4120
4946.00,1.4192
4945.00,1.4258
4944.00,1.4318
4943.00,1.4369
4942.00,1.4414
4941.00,1.4455
4940.00,1.4492
4939.00,1.4529
4938.00,1.4564
4937.00,1.4597
4936.00,1.4627
4935.00,1.4652
4934.00,1.4669
4933.00,1.4680
4932.00,1.4684
4931.00,1.4683
4930.00,1.4678
4929.00,1.4669
4928.00,1.4655
4927.00,1.4634
4926.00,1.4605
4925.00,1.4571
4924.00,1.4533
4923.00,1.4492
4922.00,1.4450
4921.00,1.4403
4920.00,1.4353
4919.00,1.4299
4918.00,1.4240
4917.00,1.4176
4916.00,1.4106
4915.00,1.4030
4914.00,1.3950
4913.00,1.3865
4912.00,1.3776
4911.00,1.3682
4910.00,1.3582
4909.00,1.3477
4908.00,1.3365
4907.00,1.3249
4906.00,1.3129
4905.00,1.3006
4904.00,1.2877
4903.00,1.2741
4902.00,1.2599
4901.00,1.2452
4900.00,1.2300
4899.00,1.2145
4898.00,1.1987
4897.00,1.1827
4896.00,1.1663
4895.00,1.1495
4894.00,1.1324
4893.00,1.1150
4892.00,1.0972
4891.00,1.0792
4890.00,1.0611
4889.00,1.0429
4888.00,1.0247
4887.00,1.0067
4886.00,0.9887
4885.00,0.9709
4884.00,0.9533
4883.00,0.9360
4882.00,0.9192
4881.00,0.9029
4880.00,0.8872
4879.00,0.8721
4878.00,0.8576
4877.00,0.8439
4876.00,0.8309
4875.00,0.8187
4874.00,0.8075
4873.00,0.7972
4872.00,0.7881
4871.00,0.7801
4870.00,0.7733
4869.00,0.7678
4868.00,0.7635
4867.00,0.7606
4866.00,0.7589
4865.00,0.7586
4864.00,0.7596
4863.00,0.7618
4862.00,0.7653
4861.00,0.7702
4860.00,0.7763
4859.00,0.7836
4858.00,0.7920
4857.00,0.8016
4856.00,0.8122
4855.00,0.8237
4854.00,0.8360
4853.00,0.8491
4852.00,0.8629
4851.00,0.8773
4850.00,0.8922
4849.00,0.9077
4848.00,0.9235
4847.00,0.9398
4846.00,0.9564
4845.00,0.9732
4844.00,0.9903
4843.00,1.0076
4842.00,1.0250
4841.00,1.0425
4840.00,1.0601
4839.00,1.0778
4838.00,1.0955
4837.00,1.1131
4836.00,1.1307
4835.00,1.1480
4834.00,1.1651
4833.00,1.1819
4832.00,1.1985
4831.00,1.2149
4830.00,1.2310
4829.00,1.2468
4828.00,1.2622
4827.00,1.2770
4826.00,1.2914
4825.00,1.3052
4824.00,1.3187
4823.00,1.3318
4822.00,1.3446
4821.00,1.3570
4820.00,1.3689
4819.00,1.3802
4818.00,1.3909
4817.00,1.4008
4816.00,1.4101
4815.00,1.4190
4814.00,1.4274
4813.00,1.4354
4812.00,1.4430
4811.00,1.4501
4810.00,1.4567
4809.00,1.4627
4808.00,1.4681
4807.00,1.4732
4806.00,1.4778
4805.00,1.4820
4804.00,1.4857
4803.00,1.4889
4802.00,1.4918
4801.00,1.4943
4800.00,1.4963
4799.00,1.4976
4798.00,1.4984
4797.00,1.4987
4796.00,1.4984
4795.00,1.4978
4794.00,1.4966
4793.00,1.4948
4792.00,1.4925
4791.00,1.4900
4790.00,1.4874
4789.00,1.4845
4788.00,1.4810
4787.00,1.4770
4786.00,1.4722
4785.00,1.4668
4784.00,1.4608
4783.00,1.4543
4782.00,1.4474
4781.00,1.4402
4780.00,1.4325
4779.00,1.4243
4778.00,1.4157
4777.00,1.4064
4776.00,1.3966
4775.00,1.3861
4774.00,1.3750
4773.00,1.3635
4772.00,1.3513
4771.00,1.3386
4770.00,1.3251
4769.00,1.3111
4768.00,1.2967
4767.00,1.2819
4766.00,1.2670
4765.00,1.2515
4764.00,1.2355
4763.00,1.2189
4762.00,1.2018
4761.00,1.1843
4760.00,1.1667
4759.00,1.1488
4758.00,1.1307
4757.00,1.1122
4756.00,1.0935
4755.00,1.0747
4754.00,1.0559
4753.00,1.0371
4752.00,1.0183
4751.00,0.9996
4750.00,0.9810
4749.00,0.9628
4748.00,0.9449
4747.00,0.9276
4746.00,0.9107
4745.00,0.8945
4744.00,0.8788
4743.00,0.8639
4742.00,0.8497
4741.00,0.8365
4740.00,0.8243
4739.00,0.8132
4738.00,0.8032
4737.00,0.7944
4736.00,0.7868
4735.00,0.7806
4734.00,0.7757
4733.00,0.7722
4732.00,0.7701
4731.00,0.7694
4730.00,0.7701
4729.00,0.7723
4728.00,0.7759
4727.00,0.7809
4726.00,0.7872
4725.00,0.7947
4724.00,0.8035
4723.00,0.8134
4722.00,0.8244
4721.00,0.8364
4720.00,0.8493
4719.00,0.8630
4718.00,0.8775
4717.00,0.8926
4716.00,0.9084
4715.00,0.9248
4714.00,0.9416
4713.00,0.9589
4712.00,0.9766
4711.00,0.9946
4710.00,1.0128
4709.00,1.0311
4708.00,1.0496
4707.00,1.0681
4706.00,1.0867
4705.00,1.1053
4704.00,1.1238
4703.00,1.1421
4702.00,1.1603
4701.00,1.1783
4700.00,1.1962
4699.00,1.2139
4698.00,1.2313
4697.00,1.2485
4696.00,1.2653
4695.00,1.2819
4694.00,1.2980
4693.00,1.3137
4692.00,1.3287
4691.00,1.3430
4690.00,1.3567
4689.00,1.3699
4688.00,1.3826
4687.00,1.3948
4686.00,1.4066
4685.00,1.4179
4684.00,1.4287
4683.00,1.4390
4682.00,1.4488
4681.00,1.4580
4680.00,1.4667
4679.00,1.4746
4678.00,1.4818
4677.00,1.4886
4676.00,1.4950
4675.00,1.5012
4674.00,1.5070
4673.00,1.5122
4672.00,1.5168
4671.00,1.5208
4670.00,1.5244
4669.00,1.5277
4668.00,1.5305
4667.00,1.5329
4666.00,1.5346
4665.00,1.5358
4664.00,1.5365
4663.00,1.5366
4662.00,1.5364
4661.00,1.5360
4660.00,1.5353
4659.00,1.5343
4658.00,1.5328
4657.00,1.5305
4656.00,1.5274
4655.00,1.5235
4654.00,1.5191
4653.00,1.5144
4652.00,1.5094
4651.00,1.5043
4650.00,1.4989
4649.00,1.4931
4648.00,1.4869
4647.00,1.4800
4646.00,1.4723
4645.00,1.4638
4644.00,1.4548
4643.00,1.4452
4642.00,1.4351
4641.00,1.4245
4640.00,1.4133
4639.00,1.4015
4638.00,1.3893
4637.00,1.3766
4636.00,1.3633
4635.00,1.3495
4634.00,1.3350
4633.00,1.3200
4632.00,1.3046
4631.00,1.2889
4630.00,1.2726
4629.00,1.2557
4628.00,1.2384
4627.00,1.2206
4626.00,1.2024
4625.00,1.1838
4624.00,1.1648
4623.00,1.1455
4622.00,1.1260
4621.00,1.1064
4620.00,1.0868
4619.00,1.0672
4618.00,1.0476
4617.00,1.0280
4616.00,1.0085
4615.00,0.9892
4614.00,0.9702
4613.00,0.9517
4612.00,0.9336
4611.00,0.9161
4610.00,0.8993
4609.00,0.8832
4608.00,0.8679
4607.00,0.8535
4606.00,0.8400
4605.00,0.8277
4604.00,0.8164
4603.00,0.8064
4602.00,0.7975
4601.00,0.7900
4600.00,0.7839
4599.00,0.7792
4598.00,0.7761
4597.00,0.7744
4596.00,0.7743
4595.00,0.7756
4594.00,0.7784
4593.00,0.7827
4592.00,0.7884
4591.00,0.7955
4590.00,0.8040
4589.00,0.8137
4588.00,0.8245
4587.00,0.8365
4586.00,0.8495
4585.00,0.8635
4584.00,0.8783
4583.00,0.8939
4582.00,0.9102
4581.00,0.9272
4580.00,0.9446
4579.00,0.9624
4578.00,0.9805
4577.00,0.9991
4576.00,1.0178
4575.00,1.0368
4574.00,1.0560
4573.00,1.0753
4572.00,1.0946
4571.00,1.1141
4570.00,1.1336
4569.00,1.1531
4568.00,1.1723
4567.00,1.1912
4566.00,1.2097
4565.00,1.2279
4564.00,1.2459
4563.00,1.2639
4562.00,1.2817
4561.00,1.2993
4560.00,1.3164
4559.00,1.3329
4558.00,1.3486
4557.00,1.3635
4556.00,1.3777
4555.00,1.3915
4554.00,1.4049
4553.00,1.4180
4552.00,1.4307
4551.00,1.4426
4550.00,1.4539
4549.00,1.4646
4548.00,1.4748
4547.00,1.4845
4546.00,1.4938
4545.00,1.5025
4544.00,1.5106
4543.00,1.5181
4542.00,1.5250
4541.00,1.5315
4540.00,1.5374
4539.00,1.5428
4538.00,1.5477
4537.00,1.5522
4536.00,1.5564
4535.00,1.5602
4534.00,1.5634
4533.00,1.5661
4532.00,1.5682
4531.00,1.5700
4530.00,1.5715
4529.00,1.5725
4528.00,1.5728
4527.00,1.5722
4526.00,1.5707
4525.00,1.5688
4524.00,1.5666
4523.00,1.5643
4522.00,1.5620
4521.00,1.5594
4520.00,1.5563
4519.00,1.5526
4518.00,1.5482
4517.00,1.5432
4516.00,1.5375
4515.00,1.5313
4514.00,1.5244
4513.00,1.5171
4512.00,1.5093
4511.00,1.5012
4510.00,1.4929
4509.00,1.4841
4508.00,1.4746
4507.00,1.4642
4506.00,1.4529
4505.00,1.4409
4504.00,1.4283
4503.00,1.4153
4502.00,1.4020
4501.00,1.3882
4500.00,1.3738
4499.00,1.3588
4498.00,1.3431
4497.00,1.3268
4496.00,1.3099
4495.00,1.2926
4494.00,1.2747
4493.00,1.2562
4492.00,1.2372
4491.00,1.2178
4490.00,1.1981
4489.00,1.1780
4488.00,1.1578
4487.00,1.1374
4486.00,1.1166
4485.00,1.0958
4484.00,1.0748
4483.00,1.0539
4482.00,1.0331
4481.00,1.0125
4480.00,0.9921
4479.00,0.9721
4478.00,0.9526
4477.00,0.9338
4476.00,0.9156
4475.00,0.8982
4474.00,0.8816
4473.00,0.8660
4472.00,0.8515
4471.00,0.8381
4470.00,0.8261
4469.00,0.8154
4468.00,0.8061
4467.00,0.7983
4466.00,0.7921
4465.00,0.7874
4464.00,0.7844
4463.00,0.7831
4462.00,0.7835
4461.00,0.7855
4460.00,0.7893
4459.00,0.7946
4458.00,0.8016
4457.00,0.8101
4456.00,0.8199
4455.00,0.8311
4454.00,0.8436
4453.00,0.8571
4452.00,0.8717
4451.00,0.8872
4450.00,0.9036
4449.00,0.9208
4448.00,0.9386
4447.00,0.9570
4446.00,0.9760
4445.00,0.9954
4444.00,1.0152
4443.00,1.0354
4442.00,1.0557
4441.00,1.0763
4440.00,1.0969
4439.00,1.1175
4438.00,1.1381
4437.00,1.1587
4436.00,1.1791
4435.00,1.1995
4434.00,1.2195
4433.00,1.2394
4432.00,1.2589
4431.00,1.2782
4430.00,1.2973
4429.00,1.3158
4428.00,1.3338
4427.00,1.3512
4426.00,1.3681
4425.00,1.3845
4424.00,1.4004
4423.00,1.4157
4422.00,1.4305
4421.00,1.4447
4420.00,1.4584
4419.00,1.4714
4418.00,1.4837
4417.00,1.4953
4416.00,1.5061
4415.00,1.5163
4414.00,1.5260
4413.00,1.5354
4412.00,1.5444
4411.00,1.5529
4410.00,1.5609
4409.00,1.5684
4408.00,1.5753
4407.00,1.5817
4406.00,1.5876
4405.00,1.5931
4404.00,1.5980
4403.00,1.6023
4402.00,1.6059
4401.00,1.6090
4400.00,1.6117
4399.00,1.6140
4398.00,1.6159
4397.00,1.6172
4396.00,1.6179
4395.00,1.6180
4394.00,1.6177
4393.00,1.6171
4392.00,1.6162
4391.00,1.6150
4390.00,1.6134
4389.00,1.6113
4388.00,1.6086
4387.00,1.6055
4386.00,1.6020
4385.00,1.5981
4384.00,1.5938
4383.00,1.5889
4382.00,1.5835
4381.00,1.5776
4380.00,1.5716
4379.00,1.5653
4378.00,1.5585
4377.00,1.5509
4376.00,1.5424
4375.00,1.5332
4374.00,1.5237
4373.00,1.5140
4372.00,1.5038
4371.00,1.4930
4370.00,1.4816
4369.00,1.4697
4368.00,1.4576
4367.00,1.4452
4366.00,1.4325
4365.00,1.4191
4364.00,1.4049
4363.00,1.3899
4362.00,1.3744
4361.00,1.3584
4360.00,1.3420
4359.00,1.3250
4358.00,1.3075
4357.00,1.2893
4356.00,1.2707
4355.00,1.2516
4354.00,1.2324
4353.00,1.2129
4352.00,1.1933
4351.00,1.1735
4350.00,1.1536
4349.00,1.1336
4348.00,1.1136
4347.00,1.0937
4346.00,1.0738
4345.00,1.0540
4344.00,1.0345
4343.00,1.0153
4342.00,0.9966
4341.00,0.9784
4340.00,0.9608
4339.00,0.9439
4338.00,0.9278
4337.00,0.9126
4336.00,0.8984
4335.00,0.8855
4334.00,0.8739
4333.00,0.8638
4332.00,0.8553
4331.00,0.8484
4330.00,0.8431
4329.00,0.8395
4328.00,0.8377
4327.00,0.8377
4326.00,0.8396
4325.00,0.8432
4324.00,0.8486
4323.00,0.8557
4322.00,0.8643
4321.00,0.8745
4320.00,0.8860
4319.00,0.8987
4318.00,0.9126
4317.00,0.9275
4316.00,0.9434
4315.00,0.9601
4314.00,0.9775
4313.00,0.9955
4312.00,1.0139
4311.00,1.0329
4310.00,1.0521
4309.00,1.0718
4308.00,1.0917
4307.00,1.1119
4306.00,1.1322
4305.00,1.1526
4304.00,1.1730
4303.00,1.1935
4302.00,1.2139
4301.00,1.2342
4300.00,1.2545
4299.00,1.2745
4298.00,1.2943
4297.00,1.3137
4296.00,1.3328
4295.00,1.3515
4294.00,1.3698
4293.00,1.3875
4292.00,1.4048
4291.00,1.4216
4290.00,1.4379
4289.00,1.4537
4288.00,1.4688
4287.00,1.4832
4286.00,1.4971
4285.00,1.5103
4284.00,1.5228
4283.00,1.5345
4282.00,1.5454
4281.00,1.5557
4280.00,1.5656
4279.00,1.5753
4278.00,1.5846
4277.00,1.5935
4276.00,1.6016
4275.00,1.6091
4274.00,1.6161
4273.00,1.6227
4272.00,1.6292
4271.00,1.6354
4270.00,1.6411
4269.00,1.6462
4268.00,1.6506
4267.00,1.6541
4266.00,1.6570
4265.00,1.6592
4264.00,1.6612
4263.00,1.6629
4262.00,1.6645
4261.00,1.6657
4260.00,1.6665
4259.00,1.6668
4258.00,1.6666
4257.00,1.6662
4256.00,1.6655
4255.00,1.6644
4254.00,1.6627
4253.00,1.6602
4252.00,1.6568
4251.00,1.6527
4250.00,1.6480
4249.00,1.6428
4248.00,1.6373
4247.00,1.6316
4246.00,1.6257
4245.00,1.6194
4244.00,1.6125
4243.00,1.6049
4242.00,1.5966
4241.00,1.5878
4240.00,1.5783
4239.00,1.5683
4238.00,1.5578
4237.00,1.5469
4236.00,1.5355
4235.00,1.5235
4234.00,1.5108
4233.00,1.4974
4232.00,1.4832
4231.00,1.4686
4230.00,1.4535
4229.00,1.4380
4228.00,1.4218
4227.00,1.4052
4226.00,1.3879
4225.00,1.3702
4224.00,1.3519
4223.00,1.3330
4222.00,1.3136
4221.00,1.2938
4220.00,1.2735
4219.00,1.2528
4218.00,1.2319
4217.00,1.2107
4216.00,1.1894
4215.00,1.1678
4214.00,1.1461
4213.00,1.1243
4212.00,1.1027
4211.00,1.0814
4210.00,1.0603
4209.00,1.0396
4208.00,1.0194
4207.00,0.9996
4206.00,0.9806
4205.00,0.9623
4204.00,0.9451
4203.00,0.9289
4202.00,0.9141
4201.00,0.9006
4200.00,0.8886
4199.00,0.8781
4198.00,0.8692
4197.00,0.8619
4196.00,0.8563
4195.00,0.8526
4194.00,0.8507
4193.00,0.8508
4192.00,0.8527
4191.00,0.8564
4190.00,0.8620
4189.00,0.8691
4188.00,0.8779
4187.00,0.8881
4186.00,0.8997
4185.00,0.9126
4184.00,0.9268
4183.00,0.9421
4182.00,0.9584
4181.00,0.9756
4180.00,0.9936
4179.00,1.0122
4178.00,1.0314
4177.00,1.0512
4176.00,1.0714
4175.00,1.0920
4174.00,1.1129
4173.00,1.1340
4172.00,1.1553
4171.00,1.1766
4170.00,1.1980
4169.00,1.2194
4168.00,1.2408
4167.00,1.2622
4166.00,1.2834
4165.00,1.3043
4164.00,1.3249
4163.00,1.3451
4162.00,1.3649
4161.00,1.3843
4160.00,1.4032
4159.00,1.4216
4158.00,1.4394
4157.00,1.4568
4156.00,1.4736
4155.00,1.4898
4154.00,1.5054
4153.00,1.5203
4152.00,1.5344
4151.00,1.5478
4150.00,1.5606
4149.00,1.5727
4148.00,1.5845
4147.00,1.5957
4146.00,1.6063
4145.00,1.6164
4144.00,1.6260
4143.00,1.6353
4142.00,1.6440
4141.00,1.6522
4140.00,1.6599
4139.00,1.6672
4138.00,1.6739
4137.00,1.6800
4136.00,1.6853
4135.00,1.6898
4134.00,1.6936
4133.00,1.6971
4132.00,1.7003
4131.00,1.7034
4130.00,1.7060
4129.00,1.7080
4128.00,1.7094
4127.00,1.7105
4126.00,1.7113
4125.00,1.7116
4124.00,1.7114
4123.00,1.7105
4122.00,1.7092
4121.00,1.7076
4120.00,1.7055
4119.00,1.7029
4118.00,1.6996
4117.00,1.6959
4116.00,1.6916
4115.00,1.6870
4114.00,1.6819
4113.00,1.6762
4112.00,1.6698
4111.00,1.6627
4110.00,1.6551
4109.00,1.6473
4108.00,1.6392
4107.00,1.6307
4106.00,1.6216
4105.00,1.6117
4104.00,1.6010
4103.00,1.5895
4102.00,1.5774
4101.00,1.5647
4100.00,1.5516
4099.00,1.5380
4098.00,1.5238
4097.00,1.5088
4096.00,1.4930
4095.00,1.4765
4094.00,1.4595
4093.00,1.4419
4092.00,1.4237
4091.00,1.4048
4090.00,1.3853
4089.00,1.3652
4088.00,1.3448
4087.00,1.3239
4086.00,1.3027
4085.00,1.2811
4084.00,1.2591
4083.00,1.2368
4082.00,1.2142
4081.00,1.1915
4080.00,1.1686
4079.00,1.1457
4078.00,1.1227
4077.00,1.0999
4076.00,1.0773
4075.00,1.0552
4074.00,1.0336
4073.00,1.0126
4072.00,0.9922
4071.00,0.9726
4070.00,0.9540
4069.00,0.9364
4068.00,0.9202
4067.00,0.9053
4066.00,0.8921
4065.00,0.8804
4064.00,0.8706
4063.00,0.8625
4062.00,0.8565
4061.00,0.8525
4060.00,0.8507
4059.00,0.8509
4058.00,0.8531
4057.00,0.8574
4056.00,0.8636
4055.00,0.8718
4054.00,0.8816
4053.00,0.8931
4052.00,0.9062
4051.00,0.9207
4050.00,0.9367
4049.00,0.9538
4048.00,0.9719
4047.00,0.9908
4046.00,1.0104
4045.00,1.0308
4044.00,1.0519
4043.00,1.0735
4042.00,1.0956
4041.00,1.1180
4040.00,1.1406
4039.00,1.1634
4038.00,1.1863
4037.00,1.2093
4036.00,1.2322
4035.00,1.2550
4034.00,1.2777
4033.00,1.3002
4032.00,1.3225
4031.00,1.3446
4030.00,1.3665
4029.00,1.3881
4028.00,1.4092
4027.00,1.4297
4026.00,1.4495
4025.00,1.4687
4024.00,1.4873
4023.00,1.5054
4022.00,1.5226
4021.00,1.5392
4020.00,1.5550
4019.00,1.5702
4018.00,1.5847
4017.00,1.5987
4016.00,1.6120
4015.00,1.6248
4014.00,1.6371
4013.00,1.6488
4012.00,1.6599
4011.00,1.6703
4010.00,1.6799
4009.00,1.6889
4008.00,1.6974
4007.00,1.7055
4006.00,1.7132
4005.00,1.7204
4004.00,1.7270
4003.00,1.7330
4002.00,1.7382
4001.00,1.7428
4000.00,1.7468
3999.00,1.7503
3998.00,1.7536
3997.00,1.7565
3996.00,1.7592
3995.00,1.7615
3994.00,1.7633
3993.00,1.7644
3992.00,1.7651
3991.00,1.7653
3990.00,1.7649
3989.00,1.7640
3988.00,1.7624
3987.00,1.7602
3986.00,1.7576
3985.00,1.7545
3984.00,1.7513
3983.00,1.7479
3982.00,1.7441
3981.00,1.7398
3980.00,1.7347
3979.00,1.7291
3978.00,1.7231
3977.00,1.7167
3976.00,1.7097
3975.00,1.7019
3974.00,1.6932
3973.00,1.6839
3972.00,1.6740
3971.00,1.6636
3970.00,1.6528
3969.00,1.6415
3968.00,1.6297
3967.00,1.6173
3966.00,1.6040
3965.00,1.5899
3964.00,1.5751
3963.00,1.5600
3962.00,1.5444
3961.00,1.5281
3960.00,1.5111
3959.00,1.4933
3958.00,1.4748
3957.00,1.4556
3956.00,1.4358
3955.00,1.4154
3954.00,1.3946
3953.00,1.3734
3952.00,1.3515
3951.00,1.3288
3950.00,1.3052
3949.00,1.2813
3948.00,1.2575
3947.00,1.2337
3946.00,1.2097
3945.00,1.1852
3944.00,1.1606
3943.00,1.1362
3942.00,1.1121
3941.00,1.0882
3940.00,1.0645
3939.00,1.0414
3938.00,1.0192
3937.00,0.9981
3936.00,0.9781
3935.00,0.9593
3934.00,0.9418
3933.00,0.9255
3932.00,0.9105
3931.00,0.8973
3930.00,0.8861
3929.00,0.8771
3928.00,0.8699
3927.00,0.8644
3926.00,0.8610
3925.00,0.8601
3924.00,0.8614
3923.00,0.8647
3922.00,0.8702
3921.00,0.8781
3920.00,0.8883
3919.00,0.9004
3918.00,0.9146
3917.00,0.9310
3916.00,0.9491
3915.00,0.9683
3914.00,0.9879
3913.00,1.0080
3912.00,1.0286
3911.00,1.0499
3910.00,1.0718
3909.00,1.0942
3908.00,1.1164
3907.00,1.1380
3906.00,1.1598
3905.00,1.1832
3904.00,1.2089
3903.00,1.2362
3902.00,1.2637
3901.00,1.2910
3900.00,1.3182
3899.00,1.3450
3898.00,1.3711
3897.00,1.3960
3896.00,1.4197
3895.00,1.4416
3894.00,1.4612
3893.00,1.4794
3892.00,1.4984
3891.00,1.5191
3890.00,1.5404
3889.00,1.5596
3888.00,1.5757
3887.00,1.5905
3886.00,1.6064
3885.00,1.6235
3884.00,1.6399
3883.00,1.6538
3882.00,1.6659
3881.00,1.6780
3880.00,1.6910
3879.00,1.7040
3878.00,1.7151
3877.00,1.7236
3876.00,1.7309
3875.00,1.7390
3874.00,1.7476
3873.00,1.7544
3872.00,1.7586
3871.00,1.7630
3870.00,1.7696
3869.00,1.7774
3868.00,1.7841
3867.00,1.7889
3866.00,1.7929
3865.00,1.7967
3864.00,1.8003
3863.00,1.8029
3862.00,1.8040
3861.00,1.8035
3860.00,1.8018
3859.00,1.8001
3858.00,1.7994
3857.00,1.7986
3856.00,1.7962
3855.00,1.7935
3854.00,1.7919
3853.00,1.7904
3852.00,1.7880
3851.00,1.7845
3850.00,1.7808
3849.00,1.7770
3848.00,1.7730
3847.00,1.7681
3846.00,1.7616
3845.00,1.7536
3844.00,1.7449
3843.00,1.7362
3842.00,1.7269
3841.00,1.7165
3840.00,1.7052
3839.00,1.6935
3838.00,1.6818
3837.00,1.6705
3836.00,1.6593
3835.00,1.6478
3834.00,1.6354
3833.00,1.6223
3832.00,1.6090
3831.00,1.5953
3830.00,1.5804
3829.00,1.5632
3828.00,1.5444
3827.00,1.5254
3826.00,1.5075
3825.00,1.4895
3824.00,1.4691
3823.00,1.4457
3822.00,1.4214
3821.00,1.3977
3820.00,1.3747
3819.00,1.3511
3818.00,1.3264
3817.00,1.3010
3816.00,1.2749
3815.00,1.2475
3814.00,1.2190
3813.00,1.1912
3812.00,1.1653
3811.00,1.1408
3810.00,1.1158
3809.00,1.0892
3808.00,1.0619
3807.00,1.0359
3806.00,1.0119
3805.00,0.9892
3804.00,0.9667
3803.00,0.9456
3802.00,0.9272
3801.00,0.9111
3800.00,0.8964
3799.00,0.8832
3798.00,0.8725
3797.00,0.8656
3796.00,0.8622
3795.00,0.8612
3794.00,0.8619
3793.00,0.8646
3792.00,0.8696
3791.00,0.8772
3790.00,0.8873
3789.00,0.8996
3788.00,0.9135
3787.00,0.9284
3786.00,0.9448
3785.00,0.9635
3784.00,0.9844
3783.00,1.0064
3782.00,1.0285
3781.00,1.0512
3780.00,1.0757
3779.00,1.1021
3778.00,1.1291
3777.00,1.1555
3776.00,1.1814
3775.00,1.2078
3774.00,1.2344
3773.00,1.2600
3772.00,1.2847
3771.00,1.3100
3770.00,1.3371
3769.00,1.3652
3768.00,1.3923
3767.00,1.4178
3766.00,1.4428
3765.00,1.4680
3764.00,1.4928
3763.00,1.5157
3762.00,1.5366
3761.00,1.5564
3760.00,1.5755
3759.00,1.5937
3758.00,1.6115
3757.00,1.6287
3756.00,1.6449
3755.00,1.6597
3754.00,1.6732
3753.00,1.6856
3752.00,1.6971
3751.00,1.7085
3750.00,1.7212
3749.00,1.7356
3748.00,1.7493
3747.00,1.7597
3746.00,1.7691
3745.00,1.7811
3744.00,1.7945
3743.00,1.8060
3742.00,1.8143
3741.00,1.8208
3740.00,1.8271
3739.00,1.8326
3738.00,1.8373
3737.00,1.8422
3736.00,1.8478
3735.00,1.8528
3734.00,1.8569
3733.00,1.8608
3732.00,1.8653
3731.00,1.8698
3730.00,1.8730
3729.00,1.8744
3728.00,1.8753
3727.00,1.8761
3726.00,1.8761
3725.00,1.8741
3724.00,1.8706
3723.00,1.8672
3722.00,1.8653
3721.00,1.8644
3720.00,1.8624
3719.00,1.8583
3718.00,1.8528
3717.00,1.8470
3716.00,1.8412
3715.00,1.8345
3714.00,1.8267
3713.00,1.8180
3712.00,1.8087
3711.00,1.7987
3710.00,1.7880
3709.00,1.7767
3708.00,1.7652
3707.00,1.7538
3706.00,1.7424
3705.00,1.7303
3704.00,1.7168
3703.00,1.7021
3702.00,1.6867
3701.00,1.6706
3700.00,1.6533
3699.00,1.6343
3698.00,1.6141
3697.00,1.5933
3696.00,1.5717
3695.00,1.5495
3694.00,1.5274
3693.00,1.5053
3692.00,1.4828
3691.00,1.4593
3690.00,1.4349
3689.00,1.4102
3688.00,1.3852
3687.00,1.3601
3686.00,1.3356
3685.00,1.3121
3684.00,1.2890
3683.00,1.2656
3682.00,1.2414
3681.00,1.2180
3680.00,1.1969
3679.00,1.1770
3678.00,1.1564
3677.00,1.1357
3676.00,1.1172
3675.00,1.1017
3674.00,1.0888
3673.00,1.0779
3672.00,1.0691
3671.00,1.0638
3670.00,1.0621
3669.00,1.0628
3668.00,1.0651
3667.00,1.0691
3666.00,1.0755
3665.00,1.0841
3664.00,1.0944
3663.00,1.1060
3662.00,1.1192
3661.00,1.1344
3660.00,1.1510
3659.00,1.1677
3658.00,1.1846
3657.00,1.2029
3656.00,1.2237
3655.00,1.2460
3654.00,1.2680
3653.00,1.2888
3652.00,1.3093
3651.00,1.3312
3650.00,1.3556
3649.00,1.3822
3648.00,1.4101
3647.00,1.4381
3646.00,1.4650
3645.00,1.4900
3644.00,1.5132
3643.00,1.5357
3642.00,1.5578
3641.00,1.5794
3640.00,1.6004
3639.00,1.6210
3638.00,1.6410
3637.00,1.6596
3636.00,1.6763
3635.00,1.6922
3634.00,1.7084
3633.00,1.7247
3632.00,1.7397
3631.00,1.7533
3630.00,1.7681
3629.00,1.7854
3628.00,1.8035
3627.00,1.8197
3626.00,1.8332
3625.00,1.8452
3624.00,1.8565
3623.00,1.8669
3622.00,1.8758
3621.00,1.8840
3620.00,1.8932
3619.00,1.9040
3618.00,1.9153
3617.00,1.9252
3616.00,1.9329
3615.00,1.9392
3614.00,1.9455
3613.00,1.9526
3612.00,1.9598
3611.00,1.9664
3610.00,1.9718
3609.00,1.9768
3608.00,1.9819
3607.00,1.9874
3606.00,1.9931
3605.00,1.9990
3604.00,2.0046
3603.00,2.0092
3602.00,2.0124
3601.00,2.0146
3600.00,2.0161
3599.00,2.0173
3598.00,2.0182
3597.00,2.0186
3596.00,2.0186
3595.00,2.0182
3594.00,2.0175
3593.00,2.0167
3592.00,2.0158
3591.00,2.0147
3590.00,2.0130
3589.00,2.0113
3588.00,2.0103
3587.00,2.0096
3586.00,2.0085
3585.00,2.0063
3584.00,2.0031
3583.00,1.9990
3582.00,1.9941
3581.00,1.9889
3580.00,1.9838
3579.00,1.9789
3578.00,1.9736
3577.00,1.9676
3576.00,1.9606
3575.00,1.9528
3574.00,1.9446
3573.00,1.9365
3572.00,1.9288
3571.00,1.9211
3570.00,1.9125
3569.00,1.9026
3568.00,1.8924
3567.00,1.8825
3566.00,1.8729
3565.00,1.8632
3564.00,1.8535
3563.00,1.8436
3562.00,1.8336
3561.00,1.8232
3560.00,1.8124
3559.00,1.8012
3558.00,1.7898
3557.00,1.7784
3556.00,1.7671
3555.00,1.7555
3554.00,1.7436
3553.00,1.7314
3552.00,1.7194
3551.00,1.7078
3550.00,1.6967
3549.00,1.6859
3548.00,1.6752
3547.00,1.6648
3546.00,1.6549
3545.00,1.6455
3544.00,1.6366
3543.00,1.6282
3542.00,1.6205
3541.00,1.6135
3540.00,1.6071
3539.00,1.6011
3538.00,1.5954
3537.00,1.5901
3536.00,1.5855
3535.00,1.5819
3534.00,1.5791
3533.00,1.5770
3532.00,1.5757
3531.00,1.5750
3530.00,1.5748
3529.00,1.5753
3528.00,1.5766
3527.00,1.5787
3526.00,1.5816
3525.00,1.5851
3524.00,1.5893
3523.00,1.5941
3522.00,1.5995
3521.00,1.6053
3520.00,1.6118
3519.00,1.6189
3518.00,1.6266
3517.00,1.6346
3516.00,1.6428
3515.00,1.6512
3514.00,1.6599
3513.00,1.6690
3512.00,1.6785
3511.00,1.6882
3510.00,1.6982
3509.00,1.7086
3508.00,1.7192
3507.00,1.7300
3506.00,1.7406
3505.00,1.7512
3504.00,1.7621
3503.00,1.7734
3502.00,1.7850
3501.00,1.7968
3500.00,1.8086
3499.00,1.8202
3498.00,1.8314
3497.00,1.8425
3496.00,1.8537
3495.00,1.8652
3494.00,1.8768
3493.00,1.8881
3492.00,1.8989
3491.00,1.9093
3490.00,1.9197
3489.00,1.9303
3488.00,1.9410
3487.00,1.9515
3486.00,1.9618
3485.00,1.9718
3484.00,1.9815
3483.00,1.9908
3482.00,1.9998
3481.00,2.0083
3480.00,2.0166
3479.00,2.0249
3478.00,2.0331
3477.00,2.0413
3476.00,2.0492
3475.00,2.0563
3474.00,2.0625
3473.00,2.0680
3472.00,2.0730
3471.00,2.0778
3470.00,2.0827
3469.00,2.0875
3468.00,2.0919
3467.00,2.0959
3466.00,2.0996
3465.00,2.1034
3464.00,2.1072
3463.00,2.1103
3462.00,2.1124
3461.00,2.1140
3460.00,2.1157
3459.00,2.1174
3458.00,2.1184
3457.00,2.1186
3456.00,2.1185
3455.00,2.1183
3454.00,2.1180
3453.00,2.1174
3452.00,2.1164
3451.00,2.1149
3450.00,2.1132
3449.00,2.1113
3448.00,2.1092
3447.00,2.1065
3446.00,2.1029
3445.00,2.0986
3444.00,2.0941
3443.00,2.0899
3442.00,2.0857
3441.00,2.0811
3440.00,2.0755
3439.00,2.0689
3438.00,2.0616
3437.00,2.0543
3436.00,2.0470
3435.00,2.0395
3434.00,2.0316
3433.00,2.0233
3432.00,2.0146
3431.00,2.0054
3430.00,1.9956
3429.00,1.9856
3428.00,1.9756
3427.00,1.9656
3426.00,1.9554
3425.00,1.9448
3424.00,1.9338
3423.00,1.9225
3422.00,1.9110
3421.00,1.8994
3420.00,1.8881
3419.00,1.8773
3418.00,1.8669
3417.00,1.8569
3416.00,1.8474
3415.00,1.8380
3414.00,1.8285
3413.00,1.8189
3412.00,1.8093
3411.00,1.7997
3410.00,1.7901
3409.00,1.7806
3408.00,1.7711
3407.00,1.7615
3406.00,1.7514
3405.00,1.7407
3404.00,1.7294
3403.00,1.7175
3402.00,1.7051
3401.00,1.6921
3400.00,1.6787
3399.00,1.6649
3398.00,1.6510
3397.00,1.6371
3396.00,1.6231
3395.00,1.6093
3394.00,1.5957
3393.00,1.5827
3392.00,1.5706
3391.00,1.5595
3390.00,1.5494
3389.00,1.5404
3388.00,1.5325
3387.00,1.5258
3386.00,1.5205
3385.00,1.5165
3384.00,1.5141
3383.00,1.5133
3382.00,1.5140
3381.00,1.5163
3380.00,1.5198
3379.00,1.5245
3378.00,1.5303
3377.00,1.5374
3376.00,1.5460
3375.00,1.5559
3374.00,1.5669
3373.00,1.5788
3372.00,1.5916
3371.00,1.6053
3370.00,1.6196
3369.00,1.6347
3368.00,1.6502
3367.00,1.6661
3366.00,1.6823
3365.00,1.6988
3364.00,1.7155
3363.00,1.7323
3362.00,1.7491
3361.00,1.7660
3360.00,1.7831
3359.00,1.8002
3358.00,1.8172
3357.00,1.8339
3356.00,1.8501
3355.00,1.8657
3354.00,1.8809
3353.00,1.8955
3352.00,1.9097
3351.00,1.9235
3350.00,1.9373
3349.00,1.9511
3348.00,1.9647
3347.00,1.9776
3346.00,1.9896
3345.00,2.0006
3344.00,2.0109
3343.00,2.0208
3342.00,2.0305
3341.00,2.0401
3340.00,2.0498
3339.00,2.0592
3338.00,2.0679
3337.00,2.0755
3336.00,2.0823
3335.00,2.0883
3334.00,2.0939
3333.00,2.0993
3332.00,2.1048
3331.00,2.1098
3330.00,2.1140
3329.00,2.1173
3328.00,2.1203
3327.00,2.1235
3326.00,2.1267
3325.00,2.1294
3324.00,2.1314
3323.00,2.1327
3322.00,2.1334
3321.00,2.1334
3320.00,2.1329
3319.00,2.1319
3318.00,2.1306
3317.00,2.1292
3316.00,2.1274
3315.00,2.1250
3314.00,2.1218
3313.00,2.1183
3312.00,2.1150
3311.00,2.1119
3310.00,2.1088
3309.00,2.1048
3308.00,2.0998
3307.00,2.0937
3306.00,2.0867
3305.00,2.0791
3304.00,2.0714
3303.00,2.0635
3302.00,2.0554
3301.00,2.0469
3300.00,2.0379
3299.00,2.0285
3298.00,2.0185
3297.00,2.0077
3296.00,1.9960
3295.00,1.9837
3294.00,1.9709
3293.00,1.9581
3292.00,1.9449
3291.00,1.9313
3290.00,1.9171
3289.00,1.9025
3288.00,1.8876
3287.00,1.8724
3286.00,1.8567
3285.00,1.8405
3284.00,1.8237
3283.00,1.8065
3282.00,1.7891
3281.00,1.7718
3280.00,1.7544
3279.00,1.7369
3278.00,1.7192
3277.00,1.7013
3276.00,1.6834
3275.00,1.6657
3274.00,1.6484
3273.00,1.6315
3272.00,1.6151
3271.00,1.5993
3270.00,1.5841
3269.00,1.5696
3268.00,1.5560
3267.00,1.5432
3266.00,1.5313
3265.00,1.5206
3264.00,1.5112
3263.00,1.5029
3262.00,1.4959
3261.00,1.4902
3260.00,1.4859
3259.00,1.4831
3258.00,1.4819
3257.00,1.4821
3256.00,1.4839
3255.00,1.4872
3254.00,1.4918
3253.00,1.4977
3252.00,1.5047
3251.00,1.5131
3250.00,1.5229
3249.00,1.5340
3248.00,1.5462
3247.00,1.5592
3246.00,1.5730
3245.00,1.5876
3244.00,1.6028
3243.00,1.6186
3242.00,1.6350
3241.00,1.6518
3240.00,1.6691
3239.00,1.6866
3238.00,1.7042
3237.00,1.7221
3236.00,1.7402
3235.00,1.7585
3234.00,1.7769
3233.00,1.7952
3232.00,1.8134
3231.00,1.8313
3230.00,1.8488
3229.00,1.8660
3228.00,1.8832
3227.00,1.9001
3226.00,1.9163
3225.00,1.9318
3224.00,1.9468
3223.00,1.9615
3222.00,1.9762
3221.00,1.9907
3220.00,2.0047
3219.00,2.0177
3218.00,2.0298
3217.00,2.0415
3216.00,2.0530
3215.00,2.0642
3214.00,2.0748
3213.00,2.0849
3212.00,2.0947
3211.00,2.1041
3210.00,2.1129
3209.00,2.1211
3208.00,2.1292
3207.00,2.1372
3206.00,2.1445
3205.00,2.1508
3204.00,2.1563
3203.00,2.1615
3202.00,2.1667
3201.00,2.1718
3200.00,2.1761
3199.00,2.1795
3198.00,2.1823
3197.00,2.1849
3196.00,2.1875
3195.00,2.1896
3194.00,2.1910
3193.00,2.1920
3192.00,2.1928
3191.00,2.1935
3190.00,2.1938
3189.00,2.1935
3188.00,2.1926
3187.00,2.1912
3186.00,2.1898
3185.00,2.1886
3184.00,2.1875
3183.00,2.1861
3182.00,2.1839
3181.00,2.1809
3180.00,2.1776
3179.00,2.1740
3178.00,2.1700
3177.00,2.1652
3176.00,2.1594
3175.00,2.1527
3174.00,2.1456
3173.00,2.1385
3172.00,2.1317
3171.00,2.1248
3170.00,2.1172
3169.00,2.1087
3168.00,2.0991
3167.00,2.0884
3166.00,2.0769
3165.00,2.0652
3164.00,2.0535
3163.00,2.0418
3162.00,2.0300
3161.00,2.0179
3160.00,2.0052
3159.00,1.9916
3158.00,1.9768
3157.00,1.9610
3156.00,1.9448
3155.00,1.9284
3154.00,1.9119
3153.00,1.8953
3152.00,1.8782
3151.00,1.8607
3150.00,1.8427
3149.00,1.8245
3148.00,1.8062
3147.00,1.7878
3146.00,1.7693
3145.00,1.7508
3144.00,1.7326
3143.00,1.7148
3142.00,1.6973
3141.00,1.6801
3140.00,1.6634
3139.00,1.6474
3138.00,1.6320
3137.00,1.6176
3136.00,1.6041
3135.00,1.5916
3134.00,1.5804
3133.00,1.5706
3132.00,1.5625
3131.00,1.5558
3130.00,1.5507
3129.00,1.5471
3128.00,1.5451
3127.00,1.5450
3126.00,1.5466
3125.00,1.5500
3124.00,1.5550
3123.00,1.5615
3122.00,1.5695
3121.00,1.5790
3120.00,1.5900
3119.00,1.6023
3118.00,1.6160
3117.00,1.6308
3116.00,1.6467
3115.00,1.6634
3114.00,1.6808
3113.00,1.6987
3112.00,1.7172
3111.00,1.7362
3110.00,1.7556
3109.00,1.7752
3108.00,1.7950
3107.00,1.8148
3106.00,1.8347
3105.00,1.8548
3104.00,1.8748
3103.00,1.8946
3102.00,1.9138
3101.00,1.9326
3100.00,1.9512
3099.00,1.9696
3098.00,1.9877
3097.00,2.0053
3096.00,2.0223
3095.00,2.0384
3094.00,2.0538
3093.00,2.0688
3092.00,2.0836
3091.00,2.0981
3090.00,2.1119
3089.00,2.1248
3088.00,2.1369
3087.00,2.1482
3086.00,2.1587
3085.00,2.1686
3084.00,2.1781
3083.00,2.1876
3082.00,2.1969
3081.00,2.2059
3080.00,2.2145
3079.00,2.2223
3078.00,2.2296
3077.00,2.2366
3076.00,2.2433
3075.00,2.2494
3074.00,2.2543
3073.00,2.2580
3072.00,2.2609
3071.00,2.2632
3070.00,2.2649
3069.00,2.2662
3068.00,2.2670
3067.00,2.2673
3066.00,2.2669
3065.00,2.2666
3064.00,2.2667
3063.00,2.2666
3062.00,2.2656
3061.00,2.2630
3060.00,2.2594
3059.00,2.2553
3058.00,2.2510
3057.00,2.2463
3056.00,2.2411
3055.00,2.2350
3054.00,2.2282
3053.00,2.2211
3052.00,2.2137
3051.00,2.2057
3050.00,2.1965
3049.00,2.1861
3048.00,2.1750
3047.00,2.1636
3046.00,2.1516
3045.00,2.1385
3044.00,2.1242
3043.00,2.1089
3042.00,2.0925
3041.00,2.0753
3040.00,2.0574
3039.00,2.0388
3038.00,2.0196
3037.00,2.0000
3036.00,1.9799
3035.00,1.9594
3034.00,1.9384
3033.00,1.9172
3032.00,1.8959
3031.00,1.8745
3030.00,1.8531
3029.00,1.8318
3028.00,1.8110
3027.00,1.7909
3026.00,1.7718
3025.00,1.7540
3024.00,1.7376
3023.00,1.7228
3022.00,1.7099
3021.00,1.6990
3020.00,1.6903
3019.00,1.6843
3018.00,1.6813
3017.00,1.6813
3016.00,1.6843
3015.00,1.6902
3014.00,1.6990
3013.00,1.7107
3012.00,1.7257
3011.00,1.7439
3010.00,1.7651
3009.00,1.7889
3008.00,1.8146
3007.00,1.8416
3006.00,1.8700
3005.00,1.8995
3004.00,1.9304
3003.00,1.9622
3002.00,1.9944
3001.00,2.0267
3000.00,2.0589
2999.00,2.0910
2998.00,2.1229
2997.00,2.1543
2996.00,2.1846
2995.00,2.2135
2994.00,2.2412
2993.00,2.2678
2992.00,2.2935
2991.00,2.3181
2990.00,2.3413
2989.00,2.3627
2988.00,2.3822
2987.00,2.4003
2986.00,2.4182
2985.00,2.4368
2984.00,2.4557
2983.00,2.4739
2982.00,2.4908
2981.00,2.5075
2980.00,2.5253
2979.00,2.5448
2978.00,2.5667
2977.00,2.5924
2976.00,2.6239
2975.00,2.6618
2974.00,2.7056
2973.00,2.7548
2972.00,2.8102
2971.00,2.8728
2970.00,2.9426
2969.00,3.0196
2968.00,3.1038
2967.00,3.1931
2966.00,3.2808
2965.00,3.3599
2964.00,3.4315
2963.00,3.5065
2962.00,3.5943
2961.00,3.6947
2960.00,3.7980
2959.00,3.8953
2958.00,3.9814
2957.00,4.0509
2956.00,4.1009
2955.00,4.1449
2954.00,4.2131
2953.00,4.3242
2952.00,4.4454
2951.00,4.4538
2950.00,4.3592
2949.00,4.2978
2948.00,4.3316
2947.00,4.4561
2946.00,4.5798
2945.00,4.5836
2944.00,4.5768
2943.00,4.5759
2942.00,4.4943
2941.00,4.4152
2940.00,4.4618
2939.00,4.7999
2938.00,5.2197
2937.00,4.8306
2936.00,4.5220
2935.00,4.4153
2934.00,4.4233
2933.00,4.3751
2932.00,4.2708
2931.00,4.1869
2930.00,4.1730
2929.00,4.2236
2928.00,4.2802
2927.00,4.3115
2926.00,4.3418
2925.00,4.4021
2924.00,4.4600
2923.00,4.4214
2922.00,4.2765
2921.00,4.0954
2920.00,3.9261
2919.00,3.7863
2918.00,3.6745
2917.00,3.5793
2916.00,3.4927
2915.00,3.4162
2914.00,3.3540
2913.00,3.3053
2912.00,3.2641
2911.00,3.2254
2910.00,3.1888
2909.00,3.1554
2908.00,3.1245
2907.00,3.0941
2906.00,3.0649
2905.00,3.0390
2904.00,3.0162
2903.00,2.9929
2902.00,2.9663
2901.00,2.9382
2900.00,2.9133
2899.00,2.8950
2898.00,2.8827
2897.00,2.8736
2896.00,2.8650
2895.00,2.8575
2894.00,2.8526
2893.00,2.8505
2892.00,2.8489
2891.00,2.8455
2890.00,2.8407
2889.00,2.8370
2888.00,2.8363
2887.00,2.8390
2886.00,2.8446
2885.00,2.8525
2884.00,2.8621
2883.00,2.8723
2882.00,2.8829
2881.00,2.8951
2880.00,2.9114
2879.00,2.9336
2878.00,2.9622
2877.00,2.9960
2876.00,3.0336
2875.00,3.0748
2874.00,3.1221
2873.00,3.1790
2872.00,3.2458
2871.00,3.3176
2870.00,3.3894
2869.00,3.4633
2868.00,3.5495
2867.00,3.6543
2866.00,3.7673
2865.00,3.8555
2864.00,3.8835
2863.00,3.8523
2862.00,3.7901
2861.00,3.7162
2860.00,3.6381
2859.00,3.5621
2858.00,3.4925
2857.00,3.4247
2856.00,3.3470
2855.00,3.2543
2854.00,3.1548
2853.00,3.0609
2852.00,2.9784
2851.00,2.9057
2850.00,2.8403
2849.00,2.7807
2848.00,2.7275
2847.00,2.6813
2846.00,2.6433
2845.00,2.6141
2844.00,2.5929
2843.00,2.5768
2842.00,2.5623
2841.00,2.5475
2840.00,2.5324
2839.00,2.5180
2838.00,2.5046
2837.00,2.4923
2836.00,2.4805
2835.00,2.4686
2834.00,2.4560
2833.00,2.4427
2832.00,2.4286
2831.00,2.4139
2830.00,2.3984
2829.00,2.3825
2828.00,2.3667
2827.00,2.3507
2826.00,2.3337
2825.00,2.3146
2824.00,2.2929
2823.00,2.2684
2822.00,2.2411
2821.00,2.2116
2820.00,2.1808
2819.00,2.1492
2818.00,2.1169
2817.00,2.0833
2816.00,2.0480
2815.00,2.0107
2814.00,1.9721
2813.00,1.9330
2812.00,1.8939
2811.00,1.8552
2810.00,1.8175
2809.00,1.7811
2808.00,1.7465
2807.00,1.7139
2806.00,1.6837
2805.00,1.6568
2804.00,1.6341
2803.00,1.6164
2802.00,1.6039
2801.00,1.5963
2800.00,1.5933
2799.00,1.5940
2798.00,1.5977
2797.00,1.6035
2796.00,1.6111
2795.00,1.6203
2794.00,1.6313
2793.00,1.6443
2792.00,1.6595
2791.00,1.6771
2790.00,1.6972
2789.00,1.7198
2788.00,1.7448
2787.00,1.7719
2786.00,1.8004
2785.00,1.8301
2784.00,1.8604
2783.00,1.8911
2782.00,1.9218
2781.00,1.9521
2780.00,1.9817
2779.00,2.0106
2778.00,2.0384
2777.00,2.0652
2776.00,2.0908
2775.00,2.1150
2774.00,2.1381
2773.00,2.1603
2772.00,2.1817
2771.00,2.2017
2770.00,2.2201
2769.00,2.2370
2768.00,2.2529
2767.00,2.2683
2766.00,2.2832
2765.00,2.2971
2764.00,2.3104
2763.00,2.3234
2762.00,2.3360
2761.00,2.3479
2760.00,2.3582
2759.00,2.3667
2758.00,2.3742
2757.00,2.3815
2756.00,2.3888
2755.00,2.3957
2754.00,2.4012
2753.00,2.4053
2752.00,2.4086
2751.00,2.4118
2750.00,2.4152
2749.00,2.4183
2748.00,2.4208
2747.00,2.4222
2746.00,2.4225
2745.00,2.4222
2744.00,2.4214
2743.00,2.4198
2742.00,2.4174
2741.00,2.4140
2740.00,2.4098
2739.00,2.4052
2738.00,2.4001
2737.00,2.3944
2736.00,2.3884
2735.00,2.3822
2734.00,2.3759
2733.00,2.3688
2732.00,2.3603
2731.00,2.3502
2730.00,2.3393
2729.00,2.3284
2728.00,2.3175
2727.00,2.3063
2726.00,2.2941
2725.00,2.2805
2724.00,2.2656
2723.00,2.2493
2722.00,2.2323
2721.00,2.2149
2720.00,2.1972
2719.00,2.1788
2718.00,2.1590
2717.00,2.1377
2716.00,2.1151
2715.00,2.0913
2714.00,2.0662
2713.00,2.0399
2712.00,2.0126
2711.00,1.9841
2710.00,1.9544
2709.00,1.9234
2708.00,1.8912
2707.00,1.8581
2706.00,1.8241
2705.00,1.7893
2704.00,1.7539
2703.00,1.7182
2702.00,1.6825
2701.00,1.6473
2700.00,1.6130
2699.00,1.5799
2698.00,1.5485
2697.00,1.5190
2696.00,1.4919
2695.00,1.4676
2694.00,1.4467
2693.00,1.4295
2692.00,1.4164
2691.00,1.4077
2690.00,1.4036
2689.00,1.4044
2688.00,1.4102
2687.00,1.4210
2686.00,1.4369
2685.00,1.4573
2684.00,1.4817
2683.00,1.5094
2682.00,1.5395
2681.00,1.5711
2680.00,1.6036
2679.00,1.6359
2678.00,1.6676
2677.00,1.6981
2676.00,1.7272
2675.00,1.7550
2674.00,1.7816
2673.00,1.8073
2672.00,1.8322
2671.00,1.8560
2670.00,1.8787
2669.00,1.9002
2668.00,1.9208
2667.00,1.9410
2666.00,1.9615
2665.00,1.9825
2664.00,2.0042
2663.00,2.0260
2662.00,2.0479
2661.00,2.0701
2660.00,2.0927
2659.00,2.1156
2658.00,2.1388
2657.00,2.1618
2656.00,2.1842
2655.00,2.2055
2654.00,2.2252
2653.00,2.2437
2652.00,2.2614
2651.00,2.2787
2650.00,2.2956
2649.00,2.3117
2648.00,2.3267
2647.00,2.3405
2646.00,2.3530
2645.00,2.3646
2644.00,2.3754
2643.00,2.3859
2642.00,2.3965
2641.00,2.4073
2640.00,2.4177
2639.00,2.4270
2638.00,2.4352
2637.00,2.4431
2636.00,2.4511
2635.00,2.4589
2634.00,2.4659
2633.00,2.4721
2632.00,2.4778
2631.00,2.4831
2630.00,2.4881
2629.00,2.4926
2628.00,2.4960
2627.00,2.4979
2626.00,2.4986
2625.00,2.4991
2624.00,2.5003
2623.00,2.5022
2622.00,2.5039
2621.00,2.5044
2620.00,2.5032
2619.00,2.5002
2618.00,2.4967
2617.00,2.4945
2616.00,2.4942
2615.00,2.4942
2614.00,2.4919
2613.00,2.4867
2612.00,2.4801
2611.00,2.4742
2610.00,2.4695
2609.00,2.4651
2608.00,2.4597
2607.00,2.4526
2606.00,2.4438
2605.00,2.4337
2604.00,2.4234
2603.00,2.4132
2602.00,2.4031
2601.00,2.3922
2600.00,2.3801
2599.00,2.3668
2598.00,2.3525
2597.00,2.3380
2596.00,2.3231
2595.00,2.3074
2594.00,2.2905
2593.00,2.2726
2592.00,2.2540
2591.00,2.2347
2590.00,2.2146
2589.00,2.1936
2588.00,2.1716
2587.00,2.1485
2586.00,2.1238
2585.00,2.0976
2584.00,2.0704
2583.00,2.0424
2582.00,2.0135
2581.00,1.9834
2580.00,1.9518
2579.00,1.9188
2578.00,1.8847
2577.00,1.8498
2576.00,1.8145
2575.00,1.7789
2574.00,1.7430
2573.00,1.7069
2572.00,1.6710
2571.00,1.6355
2570.00,1.6008
2569.00,1.5670
2568.00,1.5345
2567.00,1.5036
2566.00,1.4748
2565.00,1.4485
2564.00,1.4249
2563.00,1.4046
2562.00,1.3879
2561.00,1.3753
2560.00,1.3671
2559.00,1.3636
2558.00,1.3649
2557.00,1.3711
2556.00,1.3822
2555.00,1.3978
2554.00,1.4175
2553.00,1.4409
2552.00,1.4676
2551.00,1.4971
2550.00,1.5291
2549.00,1.5631
2548.00,1.5987
2547.00,1.6354
2546.00,1.6727
2545.00,1.7103
2544.00,1.7481
2543.00,1.7859
2542.00,1.8234
2541.00,1.8605
2540.00,1.8967
2539.00,1.9320
2538.00,1.9662
2537.00,1.9994
2536.00,2.0314
2535.00,2.0619
2534.00,2.0910
2533.00,2.1188
2532.00,2.1456
2531.00,2.1716
2530.00,2.1965
2529.00,2.2204
2528.00,2.2433
2527.00,2.2652
2526.00,2.2860
2525.00,2.3055
2524.00,2.3236
2523.00,2.3408
2522.00,2.3572
2521.00,2.3735
2520.00,2.3896
2519.00,2.4050
2518.00,2.4194
2517.00,2.4328
2516.00,2.4453
2515.00,2.4571
2514.00,2.4681
2513.00,2.4782
2512.00,2.4875
2511.00,2.4963
2510.00,2.5049
2509.00,2.5136
2508.00,2.5222
2507.00,2.5303
2506.00,2.5376
2505.00,2.5441
2504.00,2.5502
2503.00,2.5563
2502.00,2.5619
2501.00,2.5665
2500.00,2.5697
2499.00,2.5716
2498.00,2.5732
2497.00,2.5754
2496.00,2.5780
2495.00,2.5802
2494.00,2.5812
2493.00,2.5815
2492.00,2.5816
2491.00,2.5814
2490.00,2.5802
2489.00,2.5777
2488.00,2.5749
2487.00,2.5726
2486.00,2.5710
2485.00,2.5691
2484.00,2.5659
2483.00,2.5611
2482.00,2.5548
2481.00,2.5476
2480.00,2.5401
2479.00,2.5331
2478.00,2.5262
2477.00,2.5186
2476.00,2.5097
2475.00,2.4996
2474.00,2.4892
2473.00,2.4790
2472.00,2.4685
2471.00,2.4569
2470.00,2.4440
2469.00,2.4303
2468.00,2.4162
2467.00,2.4014
2466.00,2.3858
2465.00,2.3696
2464.00,2.3536
2463.00,2.3376
2462.00,2.3206
2461.00,2.3015
2460.00,2.2798
2459.00,2.2564
2458.00,2.2319
2457.00,2.2066
2456.00,2.1804
2455.00,2.1533
2454.00,2.1249
2453.00,2.0953
2452.00,2.0639
2451.00,2.0307
2450.00,1.9957
2449.00,1.9590
2448.00,1.9208
2447.00,1.8810
2446.00,1.8398
2445.00,1.7972
2444.00,1.7536
2443.00,1.7094
2442.00,1.6651
2441.00,1.6212
2440.00,1.5782
2439.00,1.5364
2438.00,1.4964
2437.00,1.4591
2436.00,1.4252
2435.00,1.3952
2434.00,1.3699
2433.00,1.3498
2432.00,1.3353
2431.00,1.3268
2430.00,1.3241
2429.00,1.3272
2428.00,1.3359
2427.00,1.3497
2426.00,1.3683
2425.00,1.3911
2424.00,1.4177
2423.00,1.4475
2422.00,1.4801
2421.00,1.5150
2420.00,1.5517
2419.00,1.5900
2418.00,1.6294
2417.00,1.6698
2416.00,1.7110
2415.00,1.7526
2414.00,1.7943
2413.00,1.8360
2412.00,1.8777
2411.00,1.9187
2410.00,1.9588
2409.00,1.9977
2408.00,2.0353
2407.00,2.0715
2406.00,2.1060
2405.00,2.1389
2404.00,2.1702
2403.00,2.1999
2402.00,2.2282
2401.00,2.2550
2400.00,2.2805
2399.00,2.3047
2398.00,2.3278
2397.00,2.3498
2396.00,2.3705
2395.00,2.3894
2394.00,2.4074
2393.00,2.4233
2392.00,2.4397
2391.00,2.4496
2390.00,2.4659
2389.00,2.4977
2388.00,2.5081
2387.00,2.5235
2386.00,2.5365
2385.00,2.5508
2384.00,2.5638
2383.00,2.5758
2382.00,2.5855
2381.00,2.5936
2380.00,2.6013
2379.00,2.6093
2378.00,2.6174
2377.00,2.6260
2376.00,2.6353
2375.00,2.6447
2374.00,2.6521
2373.00,2.6565
2372.00,2.6588
2371.00,2.6609
2370.00,2.6641
2369.00,2.6682
2368.00,2.6725
2367.00,2.6768
2366.00,2.6810
2365.00,2.6855
2364.00,2.6896
2363.00,2.6920
2362.00,2.6916
2361.00,2.6887
2360.00,2.6852
2359.00,2.6823
2358.00,2.6799
2357.00,2.6766
2356.00,2.6720
2355.00,2.6659
2354.00,2.6584
2353.00,2.6496
2352.00,2.6405
2351.00,2.6322
2350.00,2.6256
2349.00,2.6203
2348.00,2.6154
2347.00,2.6102
2346.00,2.6025
2345.00,2.5966
2344.00,2.5832
2343.00,2.5811
2342.00,2.5573
2341.00,2.5715
2340.00,2.4974
2339.00,2.3078
2338.00,2.3129
2337.00,2.2900
2336.00,2.2751
2335.00,2.2518
2334.00,2.2287
2333.00,2.2038
2332.00,2.1791
2331.00,2.1534
2330.00,2.1289
2329.00,2.1033
2328.00,2.0783
2327.00,2.0535
2326.00,2.0299
2325.00,2.0080
2324.00,1.9854
2323.00,1.9637
2322.00,1.9414
2321.00,1.9212
2320.00,1.9009
2319.00,1.8808
2318.00,1.8582
2317.00,1.8337
2316.00,1.8059
2315.00,1.7754
2314.00,1.7417
2313.00,1.7056
2312.00,1.6674
2311.00,1.6280
2310.00,1.5880
2309.00,1.5487
2308.00,1.5108
2307.00,1.4754
2306.00,1.4425
2305.00,1.4130
2304.00,1.3873
2303.00,1.3664
2302.00,1.3508
2301.00,1.3412
2300.00,1.3380
2299.00,1.3412
2298.00,1.3509
2297.00,1.3666
2296.00,1.3880
2295.00,1.4142
2294.00,1.4449
2293.00,1.4789
2292.00,1.5155
2291.00,1.5537
2290.00,1.5931
2289.00,1.6339
2288.00,1.6764
2287.00,1.7205
2286.00,1.7656
2285.00,1.8112
2284.00,1.8568
2283.00,1.9020
2282.00,1.9465
2281.00,1.9903
2280.00,2.0331
2279.00,2.0743
2278.00,2.1133
2277.00,2.1499
2276.00,2.1846
2275.00,2.2180
2274.00,2.2502
2273.00,2.2809
2272.00,2.3100
2271.00,2.3380
2270.00,2.3654
2269.00,2.3922
2268.00,2.4176
2267.00,2.4407
2266.00,2.4615
2265.00,2.4806
2264.00,2.4990
2263.00,2.5173
2262.00,2.5354
2261.00,2.5528
2260.00,2.5692
2259.00,2.5843
2258.00,2.5981
2257.00,2.6114
2256.00,2.6245
2255.00,2.6377
2254.00,2.6505
2253.00,2.6623
2252.00,2.6731
2251.00,2.6831
2250.00,2.6921
2249.00,2.6996
2248.00,2.7056
2247.00,2.7112
2246.00,2.7180
2245.00,2.7265
2244.00,2.7357
2243.00,2.7440
2242.00,2.7506
2241.00,2.7555
2240.00,2.7590
2239.00,2.7609
2238.00,2.7616
2237.00,2.7626
2236.00,2.7648
2235.00,2.7673
2234.00,2.7685
2233.00,2.7670
2232.00,2.7628
2231.00,2.7576
2230.00,2.7532
2229.00,2.7513
2228.00,2.7517
2227.00,2.7528
2226.00,2.7524
2225.00,2.7489
2224.00,2.7424
2223.00,2.7347
2222.00,2.7281
2221.00,2.7238
2220.00,2.7211
2219.00,2.7181
2218.00,2.7132
2217.00,2.7063
2216.00,2.6982
2215.00,2.6895
2214.00,2.6804
2213.00,2.6708
2212.00,2.6604
2211.00,2.6489
2210.00,2.6365
2209.00,2.6235
2208.00,2.6101
2207.00,2.5958
2206.00,2.5804
2205.00,2.5646
2204.00,2.5489
2203.00,2.5328
2202.00,2.5154
2201.00,2.4961
2200.00,2.4751
2199.00,2.4530
2198.00,2.4298
2197.00,2.4055
2196.00,2.3800
2195.00,2.3531
2194.00,2.3248
2193.00,2.2949
2192.00,2.2635
2191.00,2.2302
2190.00,2.1950
2189.00,2.1581
2188.00,2.1196
2187.00,2.0799
2186.00,2.0389
2185.00,1.9968
2184.00,1.9541
2183.00,1.9110
2182.00,1.8679
2181.00,1.8255
2180.00,1.7842
2179.00,1.7446
2178.00,1.7066
2177.00,1.6702
2176.00,1.6353
2175.00,1.6021
2174.00,1.5707
2173.00,1.5417
2172.00,1.5158
2171.00,1.4937
2170.00,1.4764
2169.00,1.4649
2168.00,1.4599
2167.00,1.4619
2166.00,1.4709
2165.00,1.4868
2164.00,1.5090
2163.00,1.5371
2162.00,1.5703
2161.00,1.6076
2160.00,1.6485
2159.00,1.6919
2158.00,1.7374
2157.00,1.7845
2156.00,1.8328
2155.00,1.8816
2154.00,1.9302
2153.00,1.9784
2152.00,2.0256
2151.00,2.0719
2150.00,2.1168
2149.00,2.1601
2148.00,2.2013
2147.00,2.2397
2146.00,2.2754
2145.00,2.3090
2144.00,2.3415
2143.00,2.3730
2142.00,2.4030
2141.00,2.4310
2140.00,2.4571
2139.00,2.4820
2138.00,2.5063
2137.00,2.5301
2136.00,2.5533
2135.00,2.5751
2134.00,2.5951
2133.00,2.6134
2132.00,2.6301
2131.00,2.6452
2130.00,2.6589
2129.00,2.6721
2128.00,2.6858
2127.00,2.6999
2126.00,2.7139
2125.00,2.7275
2124.00,2.7405
2123.00,2.7524
2122.00,2.7628
2121.00,2.7714
2120.00,2.7787
2119.00,2.7853
2118.00,2.7914
2117.00,2.7979
2116.00,2.8055
2115.00,2.8141
2114.00,2.8226
2113.00,2.8299
2112.00,2.8358
2111.00,2.8411
2110.00,2.8462
2109.00,2.8510
2108.00,2.8548
2107.00,2.8569
2106.00,2.8581
2105.00,2.8603
2104.00,2.8645
2103.00,2.8693
2102.00,2.8709
2101.00,2.8675
2100.00,2.8611
2099.00,2.8556
2098.00,2.8531
2097.00,2.8524
2096.00,2.8512
2095.00,2.8484
2094.00,2.8448
2093.00,2.8410
2092.00,2.8366
2091.00,2.8306
2090.00,2.8231
2089.00,2.8151
2088.00,2.8073
2087.00,2.7993
2086.00,2.7914
2085.00,2.7839
2084.00,2.7764
2083.00,2.7674
2082.00,2.7558
2081.00,2.7425
2080.00,2.7296
2079.00,2.7184
2078.00,2.7080
2077.00,2.6959
2076.00,2.6802
2075.00,2.6609
2074.00,2.6406
2073.00,2.6220
2072.00,2.6051
2071.00,2.5879
2070.00,2.5683
2069.00,2.5460
2068.00,2.5220
2067.00,2.4972
2066.00,2.4725
2065.00,2.4483
2064.00,2.4248
2063.00,2.4011
2062.00,2.3756
2061.00,2.3476
2060.00,2.3167
2059.00,2.2829
2058.00,2.2462
2057.00,2.2066
2056.00,2.1642
2055.00,2.1192
2054.00,2.0716
2053.00,2.0215
2052.00,1.9693
2051.00,1.9153
2050.00,1.8601
2049.00,1.8048
2048.00,1.7506
2047.00,1.6987
2046.00,1.6499
2045.00,1.6054
2044.00,1.5661
2043.00,1.5334
2042.00,1.5082
2041.00,1.4912
2040.00,1.4827
2039.00,1.4828
2038.00,1.4912
2037.00,1.5078
2036.00,1.5319
2035.00,1.5626
2034.00,1.5988
2033.00,1.6397
2032.00,1.6843
2031.00,1.7319
2030.00,1.7814
2029.00,1.8323
2028.00,1.8840
2027.00,1.9361
2026.00,1.9883
2025.00,2.0402
2024.00,2.0911
2023.00,2.1396
2022.00,2.1848
2021.00,2.2267
2020.00,2.2661
2019.00,2.3043
2018.00,2.3424
2017.00,2.3803
2016.00,2.4174
2015.00,2.4521
2014.00,2.4838
2013.00,2.5129
2012.00,2.5406
2011.00,2.5676
2010.00,2.5936
2009.00,2.6184
2008.00,2.6420
2007.00,2.6640
2006.00,2.6841
2005.00,2.7022
2004.00,2.7194
2003.00,2.7371
2002.00,2.7552
2001.00,2.7720
2000.00,2.7855
1999.00,2.7963
1998.00,2.8075
1997.00,2.8215
1996.00,2.8375
1995.00,2.8525
1994.00,2.8641
1993.00,2.8724
1992.00,2.8792
1991.00,2.8859
1990.00,2.8943
1989.00,2.9051
1988.00,2.9169
1987.00,2.9268
1986.00,2.9323
1985.00,2.9338
1984.00,2.9340
1983.00,2.9358
1982.00,2.9404
1981.00,2.9470
1980.00,2.9535
1979.00,2.9582
1978.00,2.9608
1977.00,2.9620
1976.00,2.9619
1975.00,2.9600
1974.00,2.9563
1973.00,2.9523
1972.00,2.9495
1971.00,2.9487
1970.00,2.9498
1969.00,2.9520
1968.00,2.9533
1967.00,2.9518
1966.00,2.9470
1965.00,2.9407
1964.00,2.9338
1963.00,2.9259
1962.00,2.9169
1961.00,2.9083
1960.00,2.9009
1959.00,2.8939
1958.00,2.8861
1957.00,2.8773
1956.00,2.8679
1955.00,2.8576
1954.00,2.8469
1953.00,2.8366
1952.00,2.8261
1951.00,2.8132
1950.00,2.7963
1949.00,2.7765
1948.00,2.7562
1947.00,2.7368
1946.00,2.7180
1945.00,2.6996
1944.00,2.6815
1943.00,2.6629
1942.00,2.6429
1941.00,2.6210
1940.00,2.5972
1939.00,2.5705
1938.00,2.5408
1937.00,2.5092
1936.00,2.4766
1935.00,2.4425
1934.00,2.4058
1933.00,2.3663
1932.00,2.3243
1931.00,2.2795
1930.00,2.2318
1929.00,2.1815
1928.00,2.1286
1927.00,2.0728
1926.00,2.0141
1925.00,1.9543
1924.00,1.8956
1923.00,1.8397
1922.00,1.7879
1921.00,1.7410
1920.00,1.6986
1919.00,1.6600
1918.00,1.6262
1917.00,1.5997
1916.00,1.5831
1915.00,1.5770
1914.00,1.5801
1913.00,1.5915
1912.00,1.6110
1911.00,1.6390
1910.00,1.6753
1909.00,1.7188
1908.00,1.7676
1907.00,1.8195
1906.00,1.8733
1905.00,1.9284
1904.00,1.9845
1903.00,2.0411
1902.00,2.0978
1901.00,2.1537
1900.00,2.2072
1899.00,2.2572
1898.00,2.3039
1897.00,2.3491
1896.00,2.3938
1895.00,2.4380
1894.00,2.4804
1893.00,2.5194
1892.00,2.5545
1891.00,2.5865
1890.00,2.6170
1889.00,2.6462
1888.00,2.6743
1887.00,2.7023
1886.00,2.7309
1885.00,2.7582
1884.00,2.7820
1883.00,2.8022
1882.00,2.8216
1881.00,2.8415
1880.00,2.8602
1879.00,2.8758
1878.00,2.8890
1877.00,2.9022
1876.00,2.9162
1875.00,2.9306
1874.00,2.9454
1873.00,2.9608
1872.00,2.9740
1871.00,2.9816
1870.00,2.9855
1869.00,2.9918
1868.00,3.0030
1867.00,3.0149
1866.00,3.0230
1865.00,3.0257
1864.00,3.0253
1863.00,3.0252
1862.00,3.0277
1861.00,3.0334
1860.00,3.0416
1859.00,3.0509
1858.00,3.0581
1857.00,3.0608
1856.00,3.0590
1855.00,3.0559
1854.00,3.0548
1853.00,3.0559
1852.00,3.0565
1851.00,3.0527
1850.00,3.0436
1849.00,3.0323
1848.00,3.0236
1847.00,3.0190
1846.00,3.0152
1845.00,3.0080
1844.00,2.9975
1843.00,2.9874
1842.00,2.9801
1841.00,2.9741
1840.00,2.9661
1839.00,2.9539
1838.00,2.9377
1837.00,2.9192
1836.00,2.9000
1835.00,2.8815
1834.00,2.8640
1833.00,2.8458
1832.00,2.8234
1831.00,2.7966
1830.00,2.7692
1829.00,2.7438
1828.00,2.7204
1827.00,2.6947
1826.00,2.6624
1825.00,2.6239
1824.00,2.5832
1823.00,2.5434
1822.00,2.5035
1821.00,2.4609
1820.00,2.4152
1819.00,2.3678
1818.00,2.3207
1817.00,2.2759
1816.00,2.2348
1815.00,2.1989
1814.00,2.1691
1813.00,2.1469
1812.00,2.1336
1811.00,2.1288
1810.00,2.1306
1809.00,2.1369
1808.00,2.1457
1807.00,2.1550
1806.00,2.1628
1805.00,2.1689
1804.00,2.1743
1803.00,2.1807
1802.00,2.1902
1801.00,2.2047
1800.00,2.2251
1799.00,2.2517
1798.00,2.2850
1797.00,2.3260
1796.00,2.3740
1795.00,2.4263
1794.00,2.4795
1793.00,2.5333
1792.00,2.5891
1791.00,2.6446
1790.00,2.6962
1789.00,2.7435
1788.00,2.7891
1787.00,2.8338
1786.00,2.8758
1785.00,2.9131
1784.00,2.9454
1783.00,2.9744
1782.00,3.0018
1781.00,3.0290
1780.00,3.0555
1779.00,3.0801
1778.00,3.1007
1777.00,3.1153
1776.00,3.1249
1775.00,3.1335
1774.00,3.1444
1773.00,3.1605
1772.00,3.1817
1771.00,3.2036
1770.00,3.2224
1769.00,3.2370
1768.00,3.2475
1767.00,3.2550
1766.00,3.2608
1765.00,3.2642
1764.00,3.2616
1763.00,3.2487
1762.00,3.2257
1761.00,3.1990
1760.00,3.1778
1759.00,3.1658
1758.00,3.1588
1757.00,3.1514
1756.00,3.1425
1755.00,3.1364
1754.00,3.1372
1753.00,3.1458
1752.00,3.1629
1751.00,3.1900
1750.00,3.2265
1749.00,3.2666
1748.00,3.3059
1747.00,3.3463
1746.00,3.3944
1745.00,3.4568
1744.00,3.5361
1743.00,3.6283
1742.00,3.7209
1741.00,3.8016
1740.00,3.8713
1739.00,3.9391
1738.00,4.0092
1737.00,4.0926
1736.00,4.2139
1735.00,4.4075
1734.00,4.6397
1733.00,4.7993
1732.00,4.8054
1731.00,4.6208
1730.00,4.4880
1729.00,4.4744
1728.00,4.5568
1727.00,4.7748
1726.00,4.9520
1725.00,4.8042
1724.00,4.7220
1723.00,4.6769
1722.00,4.6035
1721.00,4.5467
1720.00,4.4724
1719.00,4.3722
1718.00,4.2808
1717.00,4.2403
1716.00,4.2589
1715.00,4.3184
1714.00,4.4058
1713.00,4.5121
1712.00,4.5888
1711.00,4.5672
1710.00,4.4954
1709.00,4.4422
1708.00,4.5092
1707.00,4.9117
1706.00,4.8286
1705.00,4.3910
1704.00,4.2803
1703.00,4.2810
1702.00,4.3365
1701.00,4.3929
1700.00,4.4243
1699.00,4.4697
1698.00,4.6035
1697.00,4.9577
1696.00,4.8697
1695.00,4.6838
1694.00,4.7088
1693.00,4.5507
1692.00,4.3616
1691.00,4.2498
1690.00,4.1632
1689.00,4.0624
1688.00,3.9324
1687.00,3.8009
1686.00,3.6884
1685.00,3.6098
1684.00,3.5673
1683.00,3.5419
1682.00,3.5157
1681.00,3.4802
1680.00,3.4386
1679.00,3.4003
1678.00,3.3678
1677.00,3.3310
1676.00,3.2761
1675.00,3.2058
1674.00,3.1375
1673.00,3.0806
1672.00,3.0312
1671.00,2.9838
1670.00,2.9399
1669.00,2.9026
1668.00,2.8755
1667.00,2.8612
1666.00,2.8584
1665.00,2.8633
1664.00,2.8733
1663.00,2.8907
1662.00,2.9175
1661.00,2.9513
1660.00,2.9869
1659.00,3.0193
1658.00,3.0440
1657.00,3.0586
1656.00,3.0665
1655.00,3.0715
1654.00,3.0854
1653.00,3.1115
1652.00,3.1499
1651.00,3.1973
1650.00,3.2305
1649.00,3.2386
1648.00,3.2337
1647.00,3.2301
1646.00,3.2327
1645.00,3.2446
1644.00,3.2628
1643.00,3.2765
1642.00,3.2820
1641.00,3.2840
1640.00,3.2866
1639.00,3.2903
1638.00,3.2931
1637.00,3.2958
1636.00,3.2957
1635.00,3.2850
1634.00,3.2693
1633.00,3.2577
1632.00,3.2517
1631.00,3.2481
1630.00,3.2400
1629.00,3.2246
1628.00,3.2066
1627.00,3.1926
1626.00,3.1833
1625.00,3.1724
1624.00,3.1557
1623.00,3.1355
1622.00,3.1152
1621.00,3.0935
1620.00,3.0659
1619.00,3.0313
1618.00,2.9943
1617.00,2.9613
1616.00,2.9353
1615.00,2.9145
1614.00,2.8932
1613.00,2.8650
1612.00,2.8271
1611.00,2.7822
1610.00,2.7355
1609.00,2.6895
1608.00,2.6429
1607.00,2.5935
1606.00,2.5412
1605.00,2.4867
1604.00,2.4304
1603.00,2.3731
1602.00,2.3160
1601.00,2.2604
1600.00,2.2077
1599.00,2.1597
1598.00,2.1185
1597.00,2.0862
1596.00,2.0646
1595.00,2.0543
1594.00,2.0553
1593.00,2.0662
1592.00,2.0858
1591.00,2.1135
1590.00,2.1480
1589.00,2.1876
1588.00,2.2303
1587.00,2.2749
1586.00,2.3218
1585.00,2.3710
1584.00,2.4218
1583.00,2.4734
1582.00,2.5240
1581.00,2.5693
1580.00,2.6045
1579.00,2.6301
1578.00,2.6562
1577.00,2.6969
1576.00,2.7543
1575.00,2.8164
1574.00,2.8710
1573.00,2.9150
1572.00,2.9506
1571.00,2.9800
1570.00,3.0057
1569.00,3.0287
1568.00,3.0507
1567.00,3.0735
1566.00,3.0947
1565.00,3.1099
1564.00,3.1199
1563.00,3.1287
1562.00,3.1464
1561.00,3.1585
1560.00,3.1626
1559.00,3.1819
1558.00,3.1981
1557.00,3.2082
1556.00,3.2226
1555.00,3.2369
1554.00,3.2467
1553.00,3.2507
1552.00,3.2569
1551.00,3.2722
1550.00,3.2957
1549.00,3.3171
1548.00,3.3287
1547.00,3.3300
1546.00,3.3226
1545.00,3.3087
1544.00,3.2904
1543.00,3.2692
1542.00,3.2492
1541.00,3.2449
1540.00,3.2533
1539.00,3.2538
1538.00,3.2532
1537.00,3.2641
1536.00,3.2830
1535.00,3.2998
1534.00,3.3029
1533.00,3.2860
1532.00,3.2570
1531.00,3.2352
1530.00,3.2298
1529.00,3.2347
1528.00,3.2377
1527.00,3.2307
1526.00,3.2136
1525.00,3.1922
1524.00,3.1720
1523.00,3.1557
1522.00,3.1439
1521.00,3.1314
1520.00,3.1132
1519.00,3.0894
1518.00,3.0638
1517.00,3.0426
1516.00,3.0269
1515.00,3.0129
1514.00,2.9948
1513.00,2.9655
1512.00,2.9234
1511.00,2.8705
1510.00,2.8117
1509.00,2.7500
1508.00,2.7060
1507.00,2.6852
1506.00,2.6542
1505.00,2.6120
1504.00,2.5738
1503.00,2.5362
1502.00,2.4959
1501.00,2.4505
1500.00,2.3985
1499.00,2.3413
1498.00,2.2854
1497.00,2.2367
1496.00,2.1975
1495.00,2.1693
1494.00,2.1523
1493.00,2.1442
1492.00,2.1409
1491.00,2.1449
1490.00,2.1655
1489.00,2.2051
1488.00,2.2583
1487.00,2.3194
1486.00,2.3844
1485.00,2.4509
1484.00,2.5169
1483.00,2.5811
1482.00,2.6447
1481.00,2.7106
1480.00,2.7802
1479.00,2.8498
1478.00,2.9123
1477.00,2.9625
1476.00,3.0028
1475.00,3.0409
1474.00,3.0844
1473.00,3.1361
1472.00,3.1902
1471.00,3.2408
1470.00,3.2903
1469.00,3.3426
1468.00,3.3980
1467.00,3.4518
1466.00,3.4966
1465.00,3.5290
1464.00,3.5508
1463.00,3.5651
1462.00,3.5707
1461.00,3.5651
1460.00,3.5514
1459.00,3.5417
1458.00,3.5537
1457.00,3.5972
1456.00,3.6781
1455.00,3.7963
1454.00,3.9280
1453.00,4.0532
1452.00,4.1895
1451.00,4.3544
1450.00,4.4317
1449.00,4.3357
1448.00,4.1888
1447.00,4.0238
1446.00,3.8623
1445.00,3.7271
1444.00,3.6253
1443.00,3.5611
1442.00,3.5347
1441.00,3.5366
1440.00,3.5517
1439.00,3.5718
1438.00,3.5957
1437.00,3.6200
1436.00,3.6389
1435.00,3.6544
1434.00,3.6796
1433.00,3.7267
1432.00,3.7970
1431.00,3.8724
1430.00,3.9202
1429.00,3.9261
1428.00,3.9115
1427.00,3.9033
1426.00,3.9089
1425.00,3.9240
1424.00,3.9460
1423.00,3.9711
1422.00,3.9798
1421.00,3.9417
1420.00,3.8603
1419.00,3.7747
1418.00,3.7105
1417.00,3.6645
1416.00,3.6243
1415.00,3.5864
1414.00,3.5564
1413.00,3.5396
1412.00,3.5373
1411.00,3.5462
1410.00,3.5581
1409.00,3.5624
1408.00,3.5563
1407.00,3.5491
1406.00,3.5511
1405.00,3.5616
1404.00,3.5724
1403.00,3.5791
1402.00,3.5821
1401.00,3.5791
1400.00,3.5678
1399.00,3.5496
1398.00,3.5302
1397.00,3.5153
1396.00,3.5072
1395.00,3.5044
1394.00,3.5027
1393.00,3.4983
1392.00,3.4906
1391.00,3.4812
1390.00,3.4714
1389.00,3.4623
1388.00,3.4560
1387.00,3.4541
1386.00,3.4531
1385.00,3.4439
1384.00,3.4212
1383.00,3.3890
1382.00,3.3553
1381.00,3.3239
1380.00,3.2944
1379.00,3.2657
1378.00,3.2383
1377.00,3.2133
1376.00,3.1917
1375.00,3.1744
1374.00,3.1581
1373.00,3.1355
1372.00,3.1036
1371.00,3.0655
1370.00,3.0260
1369.00,2.9870
1368.00,2.9491
1367.00,2.9128
1366.00,2.8790
1365.00,2.8478
1364.00,2.8206
1363.00,2.8010
1362.00,2.7904
1361.00,2.7879
1360.00,2.7941
1359.00,2.8109
1358.00,2.8401
1357.00,2.8832
1356.00,2.9417
1355.00,3.0168
1354.00,3.1080
1353.00,3.2106
1352.00,3.3178
1351.00,3.4223
1350.00,3.5142
1349.00,3.5818
1348.00,3.6204
1347.00,3.6354
1346.00,3.6340
1345.00,3.6156
1344.00,3.5839
1343.00,3.5584
1342.00,3.5596
1341.00,3.5938
1340.00,3.6476
1339.00,3.6887
1338.00,3.6794
1337.00,3.6034
1336.00,3.4863
1335.00,3.3698
1334.00,3.2790
1333.00,3.2216
1332.00,3.1962
1331.00,3.1971
1330.00,3.2180
1329.00,3.2529
1328.00,3.2961
1327.00,3.3441
1326.00,3.3984
1325.00,3.4638
1324.00,3.5416
1323.00,3.6243
1322.00,3.6964
1321.00,3.7433
1320.00,3.7673
1319.00,3.7907
1318.00,3.8384
1317.00,3.9218
1316.00,4.0335
1315.00,4.1440
1314.00,4.2116
1313.00,4.2329
1312.00,4.2517
1311.00,4.2867
1310.00,4.2967
1309.00,4.2215
1308.00,4.0557
1307.00,3.8690
1306.00,3.7128
1305.00,3.5903
1304.00,3.4963
1303.00,3.4328
1302.00,3.4032
1301.00,3.4028
1300.00,3.4189
1299.00,3.4378
1298.00,3.4520
1297.00,3.4603
1296.00,3.4642
1295.00,3.4679
1294.00,3.4794
1293.00,3.5052
1292.00,3.5445
1291.00,3.5886
1290.00,3.6251
1289.00,3.6444
1288.00,3.6448
1287.00,3.6361
1286.00,3.6354
1285.00,3.6536
1284.00,3.6851
1283.00,3.7149
1282.00,3.7379
1281.00,3.7607
1280.00,3.7810
1279.00,3.7878
1278.00,3.7824
1277.00,3.7761
1276.00,3.7720
1275.00,3.7641
1274.00,3.7479
1273.00,3.7264
1272.00,3.7080
1271.00,3.7010
1270.00,3.7126
1269.00,3.7446
1268.00,3.7851
1267.00,3.8091
1266.00,3.8056
1265.00,3.7907
1264.00,3.7792
1263.00,3.7671
1262.00,3.7480
1261.00,3.7254
1260.00,3.7087
1259.00,3.7015
1258.00,3.6946
1257.00,3.6778
1256.00,3.6537
1255.00,3.6317
1254.00,3.6165
1253.00,3.6080
1252.00,3.6063
1251.00,3.6112
1250.00,3.6163
1249.00,3.6063
1248.00,3.5738
1247.00,3.5335
1246.00,3.5045
1245.00,3.4928
1244.00,3.4926
1243.00,3.4951
1242.00,3.4969
1241.00,3.5011
1240.00,3.5118
1239.00,3.5313
1238.00,3.5647
1237.00,3.6183
1236.00,3.6903
1235.00,3.7624
1234.00,3.8086
1233.00,3.8278
1232.00,3.8533
1231.00,3.9151
1230.00,4.0077
1229.00,4.0947
1228.00,4.1570
1227.00,4.2250
1226.00,4.3501
1225.00,4.5288
1224.00,4.6219
1223.00,4.5725
1222.00,4.4540
1221.00,4.3151
1220.00,4.1929
1219.00,4.0968
1218.00,4.0253
1217.00,3.9738
1216.00,3.9279
1215.00,3.8665
1214.00,3.7895
1213.00,3.7267
1212.00,3.6949
1211.00,3.6821
1210.00,3.6734
1209.00,3.6644
1208.00,3.6522
1207.00,3.6319
1206.00,3.5986
1205.00,3.5528
1204.00,3.5047
1203.00,3.4669
1202.00,3.4422
1201.00,3.4188
1200.00,3.3830
1199.00,3.3380
1198.00,3.3005
1197.00,3.2839
1196.00,3.2899
1195.00,3.3105
1194.00,3.3344
1193.00,3.3542
1192.00,3.3688
1191.00,3.3796
1190.00,3.3852
1189.00,3.3842
1188.00,3.3809
1187.00,3.3843
1186.00,3.4008
1185.00,3.4298
1184.00,3.4664
1183.00,3.5043
1182.00,3.5356
1181.00,3.5526
1180.00,3.5578
1179.00,3.5662
1178.00,3.5861
1177.00,3.6023
1176.00,3.5935
1175.00,3.5685
1174.00,3.5582
1173.00,3.5769
1172.00,3.6110
1171.00,3.6386
1170.00,3.6542
1169.00,3.6663
1168.00,3.6777
1167.00,3.6791
1166.00,3.6625
1165.00,3.6375
1164.00,3.6246
1163.00,3.6380
1162.00,3.6769
1161.00,3.7164
1160.00,3.7226
1159.00,3.7035
1158.00,3.7033
1157.00,3.7579
1156.00,3.8673
1155.00,3.9667
1154.00,3.9625
1153.00,3.9217
1152.00,3.9366
1151.00,4.0099
1150.00,4.0920
1149.00,4.1095
1148.00,4.0676
1147.00,4.0023
1146.00,3.9249
1145.00,3.8768
1144.00,3.8878
1143.00,3.9628
1142.00,4.0835
1141.00,4.1668
1140.00,4.1139
1139.00,3.9991
1138.00,3.9343
1137.00,3.9500
1136.00,4.0126
1135.00,4.0500
1134.00,4.0296
1133.00,3.9840
1132.00,3.9408
1131.00,3.9131
1130.00,3.9178
1129.00,3.9685
1128.00,4.0431
1127.00,4.0649
1126.00,3.9905
1125.00,3.9029
1124.00,3.8859
1123.00,3.9509
1122.00,4.0473
1121.00,4.0891
1120.00,4.0832
1119.00,4.0758
1118.00,4.0718
1117.00,4.0759
1116.00,4.0618
1115.00,4.0036
1114.00,3.9625
1113.00,3.9826
1112.00,4.0424
1111.00,4.0901
1110.00,4.1198
1109.00,4.1662
1108.00,4.2248
1107.00,4.2356
1106.00,4.2034
1105.00,4.1805
1104.00,4.1522
1103.00,4.1089
1102.00,4.1155
1101.00,4.2439
1100.00,4.5178
1099.00,4.5269
1098.00,4.2559
1097.00,4.0217
1096.00,3.8637
1095.00,3.7836
1094.00,3.7701
1093.00,3.8134
1092.00,3.8921
1091.00,3.9557
1090.00,3.9689
1089.00,3.9249
1088.00,3.8278
1087.00,3.7219
1086.00,3.6373
1085.00,3.5830
1084.00,3.5558
1083.00,3.5432
1082.00,3.5364
1081.00,3.5365
1080.00,3.5404
1079.00,3.5355
1078.00,3.5183
1077.00,3.5043
1076.00,3.5100
1075.00,3.5304
1074.00,3.5425
1073.00,3.5365
1072.00,3.5291
1071.00,3.5346
1070.00,3.5462
1069.00,3.5543
1068.00,3.5673
1067.00,3.5988
1066.00,3.6444
1065.00,3.6848
1064.00,3.7128
1063.00,3.7369
1062.00,3.7511
1061.00,3.7304
1060.00,3.6798
1059.00,3.6322
1058.00,3.6044
1057.00,3.5977
1056.00,3.6191
1055.00,3.6758
1054.00,3.7505
1053.00,3.8141
1052.00,3.8847
1051.00,3.9884
1050.00,4.0912
1049.00,4.0874
1048.00,3.9605
1047.00,3.8265
1046.00,3.7294
1045.00,3.6691
1044.00,3.6457
1043.00,3.6527
1042.00,3.6781
1041.00,3.7255
1040.00,3.8087
1039.00,3.9297
1038.00,4.0564
1037.00,4.1085
1036.00,4.0628
1035.00,4.0134
1034.00,4.0520
1033.00,4.2206
1032.00,4.4902
1031.00,4.6153
1030.00,4.4828
1029.00,4.2602
1028.00,4.0855
1027.00,3.9786
1026.00,3.9239
1025.00,3.9029
1024.00,3.9074
1023.00,3.9309
1022.00,3.9545
1021.00,3.9510
1020.00,3.9165
1019.00,3.8787
1018.00,3.8643
1017.00,3.8841
1016.00,3.9372
1015.00,4.0165
1014.00,4.1176
1013.00,4.2532
1012.00,4.4636
1011.00,4.7414
1010.00,4.6889
1009.00,4.4667
1008.00,4.3284
1007.00,4.2840
1006.00,4.3480
1005.00,4.5513
1004.00,4.6108
1003.00,4.4328
1002.00,4.3790
1001.00,4.3544
1000.00,4.2496
999.00,4.1171
998.00,4.0621
997.00,4.1616
996.00,4.5040
995.00,4.7248
994.00,4.5504
993.00,4.3525
992.00,4.2508
991.00,4.3093
990.00,4.4706
989.00,4.5317
988.00,4.4001
987.00,4.3250
986.00,4.3462
985.00,4.3609
984.00,4.2335
983.00,4.0845
982.00,4.0063
981.00,4.0194
980.00,4.1315
979.00,4.3021
978.00,4.4375
977.00,4.5668
976.00,4.4522
975.00,4.1796
974.00,4.0050
973.00,3.9307
972.00,3.9454
971.00,4.0185
970.00,4.0899
969.00,4.0950
968.00,3.9971
967.00,3.8744
966.00,3.8096
965.00,3.8233
964.00,3.8953
963.00,3.9692
962.00,3.9960
961.00,3.9978
960.00,4.0244
959.00,4.0846
958.00,4.1450
957.00,4.1892
956.00,4.2287
955.00,4.3686
954.00,4.8605
953.00,4.3425
952.00,4.1295
951.00,4.0915
950.00,4.1230
949.00,4.1416
948.00,4.0845
947.00,4.0393
946.00,4.0563
945.00,4.1095
944.00,4.1523
943.00,4.1540
942.00,4.1134
941.00,4.0968
940.00,4.1830
939.00,4.4291
938.00,4.6872
937.00,4.5917
936.00,4.5177
935.00,4.4098
934.00,4.3077
933.00,4.2456
932.00,4.2273
931.00,4.2688
930.00,4.3890
929.00,4.5778
928.00,4.6268
927.00,4.4628
926.00,4.2951
925.00,4.2150
924.00,4.2797
923.00,4.5604
922.00,4.7628
921.00,4.4618
920.00,4.2710
919.00,4.1278
918.00,4.0782
917.00,4.1876
916.00,4.7180
915.00,4.3641
914.00,4.0057
913.00,3.9190
912.00,3.9697
911.00,4.0944
910.00,4.1237
909.00,4.0625
908.00,4.0911
907.00,4.1625
906.00,4.2471
905.00,4.4906
904.00,4.6802
903.00,4.3847
902.00,4.1127
901.00,3.9286
900.00,3.8421
899.00,3.8519
898.00,3.9587
897.00,4.1742
896.00,4.4332
895.00,4.3370
894.00,4.1574
893.00,4.1296
892.00,4.2917
891.00,4.6075
890.00,4.7429
889.00,4.8970
888.00,4.6486
887.00,4.4317
886.00,4.3339
885.00,4.2706
884.00,4.2548
883.00,4.2920
882.00,4.3468
881.00,4.3834
880.00,4.3968
879.00,4.3953
878.00,4.3589
877.00,4.2855
876.00,4.2634
875.00,4.2761
874.00,4.1638
873.00,3.9687
872.00,3.8448
871.00,3.8332
870.00,3.9482
869.00,4.1670
868.00,4.2163
867.00,4.1111
866.00,4.1110
865.00,4.2218
864.00,4.3245
863.00,4.3229
862.00,4.4850
861.00,4.7694
860.00,4.2682
859.00,4.0302
858.00,3.9458
857.00,3.9152
856.00,3.9212
855.00,3.9769
854.00,4.0817
853.00,4.1678
852.00,4.1416
851.00,4.0404
850.00,3.9447
849.00,3.8727
848.00,3.8210
847.00,3.7865
846.00,3.7689
845.00,3.7624
844.00,3.7535
843.00,3.7340
842.00,3.7227
841.00,3.7627
840.00,3.8683
839.00,3.9486
838.00,3.9598
837.00,4.0067
836.00,4.0199
835.00,3.9399
834.00,3.8952
833.00,3.9244
832.00,4.0325
831.00,4.2297
830.00,4.4222
829.00,4.5260
828.00,4.3733
827.00,4.0625
826.00,3.8949
825.00,3.8410
824.00,3.8593
823.00,3.9215
822.00,3.9618
821.00,3.9249
820.00,3.8709
819.00,3.8453
818.00,3.8362
817.00,3.8345
816.00,3.8493
815.00,3.9038
814.00,3.9867
813.00,4.0323
812.00,4.0656
811.00,4.1556
810.00,4.2353
809.00,4.2114
808.00,4.1840
807.00,4.2615
806.00,4.3704
805.00,4.2639
804.00,4.1377
803.00,4.1140
802.00,4.1706
801.00,4.2541
800.00,4.2242
799.00,4.1404
798.00,4.1002
797.00,4.2132
796.00,4.3429
795.00,4.0613
794.00,3.8957
793.00,3.9902
792.00,4.5172
791.00,4.3600
790.00,4.1112
789.00,4.1670
788.00,4.3867
787.00,4.4160
786.00,4.1269
785.00,4.0357
784.00,4.2012
783.00,4.7262
782.00,4.6672
781.00,4.8020
780.00,4.7674
779.00,4.2619
778.00,4.1414
777.00,4.2064
776.00,4.3688
775.00,4.2969
774.00,4.1303
773.00,4.0352
772.00,4.0101
771.00,4.0964
770.00,4.4684
769.00,4.8514
768.00,4.5949
767.00,4.6367
766.00,4.0787
765.00,3.7891
764.00,3.6976
763.00,3.7347
762.00,3.9128
761.00,4.2507
760.00,4.7341
759.00,4.8256
758.00,4.4841
757.00,4.1837
756.00,4.0042
755.00,3.8873
754.00,3.8076
753.00,3.7692
752.00,3.7798
751.00,3.8384
750.00,3.9099
749.00,3.9483
748.00,3.9496
747.00,3.9167
746.00,3.8501
745.00,3.7875
744.00,3.7665
743.00,3.8003
742.00,3.8805
741.00,3.9682
740.00,4.0196
739.00,4.0506
738.00,4.0940
737.00,4.1602
736.00,4.2387
735.00,4.2955
734.00,4.4109
733.00,4.7135
732.00,4.8200
731.00,4.5341
730.00,4.2790
729.00,4.0754
728.00,3.9356
727.00,3.8197
726.00,3.7273
725.00,3.6970
724.00,3.7532
723.00,3.8924
722.00,4.0264
721.00,3.9892
720.00,3.8422
719.00,3.7433
718.00,3.7388
717.00,3.8250
716.00,3.9764
715.00,4.0962
714.00,4.0704
713.00,3.9745
712.00,3.9336
711.00,3.9366
710.00,3.9184
709.00,3.8907
708.00,4.0092
707.00,4.2711
706.00,4.0840
705.00,3.9131
704.00,3.8454
703.00,3.7726
702.00,3.7704
701.00,3.8480
700.00,3.8975
