Created as New Dataset,Sample 106 By Administrator Date Wednesday, November 24 2021
cm-1,A
7502.00,1.1963
7501.00,1.1932
7500.00,1.1901
7499.00,1.1870
7498.00,1.1840
7497.00,1.1809
7496.00,1.1780
7495.00,1.1746
7494.00,1.1708
7493.00,1.1675
7492.00,1.1654
7491.00,1.1645
7490.00,1.1638
7489.00,1.1619
7488.00,1.1580
7487.00,1.1523
7486.00,1.1454
7485.00,1.1382
7484.00,1.1309
7483.00,1.1237
7482.00,1.1163
7481.00,1.1088
7480.00,1.1016
7479.00,1.0947
7478.00,1.0877
7477.00,1.0801
7476.00,1.0713
7475.00,1.0620
7474.00,1.0529
7473.00,1.0443
7472.00,1.0357
7471.00,1.0265
7470.00,1.0166
7469.00,1.0066
7468.00,0.9970
7467.00,0.9875
7466.00,0.9781
7465.00,0.9684
7464.00,0.9583
7463.00,0.9479
7462.00,0.9376
7461.00,0.9275
7460.00,0.9178
7459.00,0.9084
7458.00,0.8992
7457.00,0.8904
7456.00,0.8821
7455.00,0.8742
7454.00,0.8664
7453.00,0.8587
7452.00,0.8512
7451.00,0.8441
7450.00,0.8375
7449.00,0.8313
7448.00,0.8254
7447.00,0.8198
7446.00,0.8146
7445.00,0.8099
7444.00,0.8058
7443.00,0.8023
7442.00,0.7994
7441.00,0.7968
7440.00,0.7946
7439.00,0.7927
7438.00,0.7914
7437.00,0.7909
7436.00,0.7912
7435.00,0.7920
7434.00,0.7931
7433.00,0.7945
7432.00,0.7962
7431.00,0.7986
7430.00,0.8016
7429.00,0.8052
7428.00,0.8094
7427.00,0.8142
7426.00,0.8197
7425.00,0.8257
7424.00,0.8320
7423.00,0.8382
7422.00,0.8443
7421.00,0.8502
7420.00,0.8561
7419.00,0.8621
7418.00,0.8685
7417.00,0.8754
7416.00,0.8827
7415.00,0.8899
7414.00,0.8968
7413.00,0.9038
7412.00,0.9113
7411.00,0.9197
7410.00,0.9286
7409.00,0.9377
7408.00,0.9465
7407.00,0.9552
7406.00,0.9641
7405.00,0.9730
7404.00,0.9815
7403.00,0.9891
7402.00,0.9961
7401.00,1.0033
7400.00,1.0110
7399.00,1.0189
7398.00,1.0263
7397.00,1.0328
7396.00,1.0384
7395.00,1.0439
7394.00,1.0496
7393.00,1.0554
7392.00,1.0609
7391.00,1.0658
7390.00,1.0704
7389.00,1.0754
7388.00,1.0810
7387.00,1.0866
7386.00,1.0916
7385.00,1.0958
7384.00,1.0996
7383.00,1.1030
7382.00,1.1059
7381.00,1.1081
7380.00,1.1104
7379.00,1.1131
7378.00,1.1162
7377.00,1.1191
7376.00,1.1211
7375.00,1.1220
7374.00,1.1218
7373.00,1.1201
7372.00,1.1168
7371.00,1.1125
7370.00,1.1083
7369.00,1.1052
7368.00,1.1036
7367.00,1.1027
7366.00,1.1017
7365.00,1.1002
7364.00,1.0983
7363.00,1.0962
7362.00,1.0939
7361.00,1.0911
7360.00,1.0882
7359.00,1.0855
7358.00,1.0833
7357.00,1.0815
7356.00,1.0797
7355.00,1.0781
7354.00,1.0769
7353.00,1.0762
7352.00,1.0757
7351.00,1.0747
7350.00,1.0722
7349.00,1.0677
7348.00,1.0612
7347.00,1.0531
7346.00,1.0447
7345.00,1.0373
7344.00,1.0314
7343.00,1.0266
7342.00,1.0222
7341.00,1.0174
7340.00,1.0124
7339.00,1.0069
7338.00,1.0003
7337.00,0.9917
7336.00,0.9817
7335.00,0.9716
7334.00,0.9623
7333.00,0.9538
7332.00,0.9454
7331.00,0.9368
7330.00,0.9281
7329.00,0.9197
7328.00,0.9117
7327.00,0.9038
7326.00,0.8958
7325.00,0.8875
7324.00,0.8792
7323.00,0.8711
7322.00,0.8634
7321.00,0.8561
7320.00,0.8488
7319.00,0.8417
7318.00,0.8350
7317.00,0.8289
7316.00,0.8231
7315.00,0.8175
7314.00,0.8125
7313.00,0.8080
7312.00,0.8039
7311.00,0.8000
7310.00,0.7962
7309.00,0.7926
7308.00,0.7894
7307.00,0.7864
7306.00,0.7837
7305.00,0.7814
7304.00,0.7799
7303.00,0.7797
7302.00,0.7803
7301.00,0.7815
7300.00,0.7830
7299.00,0.7850
7298.00,0.7876
7297.00,0.7906
7296.00,0.7935
7295.00,0.7962
7294.00,0.7992
7293.00,0.8029
7292.00,0.8073
7291.00,0.8122
7290.00,0.8174
7289.00,0.8233
7288.00,0.8302
7287.00,0.8377
7286.00,0.8453
7285.00,0.8528
7284.00,0.8601
7283.00,0.8676
7282.00,0.8755
7281.00,0.8836
7280.00,0.8918
7279.00,0.9003
7278.00,0.9092
7277.00,0.9184
7276.00,0.9275
7275.00,0.9364
7274.00,0.9453
7273.00,0.9544
7272.00,0.9640
7271.00,0.9739
7270.00,0.9840
7269.00,0.9939
7268.00,1.0034
7267.00,1.0126
7266.00,1.0214
7265.00,1.0298
7264.00,1.0375
7263.00,1.0448
7262.00,1.0522
7261.00,1.0603
7260.00,1.0691
7259.00,1.0780
7258.00,1.0865
7257.00,1.0946
7256.00,1.1022
7255.00,1.1091
7254.00,1.1156
7253.00,1.1221
7252.00,1.1292
7251.00,1.1363
7250.00,1.1427
7249.00,1.1483
7248.00,1.1532
7247.00,1.1581
7246.00,1.1628
7245.00,1.1667
7244.00,1.1699
7243.00,1.1728
7242.00,1.1758
7241.00,1.1794
7240.00,1.1838
7239.00,1.1885
7238.00,1.1924
7237.00,1.1947
7236.00,1.1956
7235.00,1.1959
7234.00,1.1960
7233.00,1.1956
7232.00,1.1941
7231.00,1.1921
7230.00,1.1905
7229.00,1.1900
7228.00,1.1906
7227.00,1.1914
7226.00,1.1915
7225.00,1.1904
7224.00,1.1880
7223.00,1.1849
7222.00,1.1816
7221.00,1.1780
7220.00,1.1734
7219.00,1.1676
7218.00,1.1613
7217.00,1.1553
7216.00,1.1501
7215.00,1.1451
7214.00,1.1392
7213.00,1.1323
7212.00,1.1249
7211.00,1.1175
7210.00,1.1102
7209.00,1.1027
7208.00,1.0950
7207.00,1.0871
7206.00,1.0791
7205.00,1.0708
7204.00,1.0622
7203.00,1.0532
7202.00,1.0438
7201.00,1.0338
7200.00,1.0233
7199.00,1.0129
7198.00,1.0028
7197.00,0.9931
7196.00,0.9834
7195.00,0.9736
7194.00,0.9637
7193.00,0.9536
7192.00,0.9436
7191.00,0.9334
7190.00,0.9231
7189.00,0.9126
7188.00,0.9025
7187.00,0.8930
7186.00,0.8842
7185.00,0.8757
7184.00,0.8675
7183.00,0.8595
7182.00,0.8518
7181.00,0.8443
7180.00,0.8370
7179.00,0.8301
7178.00,0.8239
7177.00,0.8181
7176.00,0.8128
7175.00,0.8078
7174.00,0.8035
7173.00,0.7998
7172.00,0.7966
7171.00,0.7938
7170.00,0.7915
7169.00,0.7899
7168.00,0.7890
7167.00,0.7889
7166.00,0.7893
7165.00,0.7900
7164.00,0.7910
7163.00,0.7926
7162.00,0.7948
7161.00,0.7975
7160.00,0.8003
7159.00,0.8035
7158.00,0.8075
7157.00,0.8122
7156.00,0.8175
7155.00,0.8231
7154.00,0.8291
7153.00,0.8358
7152.00,0.8429
7151.00,0.8502
7150.00,0.8579
7149.00,0.8658
7148.00,0.8739
7147.00,0.8821
7146.00,0.8903
7145.00,0.8988
7144.00,0.9074
7143.00,0.9157
7142.00,0.9238
7141.00,0.9321
7140.00,0.9410
7139.00,0.9502
7138.00,0.9592
7137.00,0.9679
7136.00,0.9768
7135.00,0.9861
7134.00,0.9955
7133.00,1.0043
7132.00,1.0122
7131.00,1.0199
7130.00,1.0280
7129.00,1.0366
7128.00,1.0452
7127.00,1.0532
7126.00,1.0608
7125.00,1.0684
7124.00,1.0762
7123.00,1.0838
7122.00,1.0912
7121.00,1.0982
7120.00,1.1048
7119.00,1.1112
7118.00,1.1176
7117.00,1.1239
7116.00,1.1297
7115.00,1.1351
7114.00,1.1401
7113.00,1.1448
7112.00,1.1493
7111.00,1.1533
7110.00,1.1570
7109.00,1.1605
7108.00,1.1638
7107.00,1.1671
7106.00,1.1706
7105.00,1.1744
7104.00,1.1778
7103.00,1.1804
7102.00,1.1820
7101.00,1.1831
7100.00,1.1839
7099.00,1.1840
7098.00,1.1834
7097.00,1.1828
7096.00,1.1825
7095.00,1.1821
7094.00,1.1811
7093.00,1.1796
7092.00,1.1782
7091.00,1.1769
7090.00,1.1751
7089.00,1.1728
7088.00,1.1700
7087.00,1.1670
7086.00,1.1638
7085.00,1.1600
7084.00,1.1556
7083.00,1.1508
7082.00,1.1455
7081.00,1.1396
7080.00,1.1335
7079.00,1.1273
7078.00,1.1212
7077.00,1.1148
7076.00,1.1081
7075.00,1.1013
7074.00,1.0942
7073.00,1.0865
7072.00,1.0780
7071.00,1.0688
7070.00,1.0592
7069.00,1.0496
7068.00,1.0402
7067.00,1.0309
7066.00,1.0218
7065.00,1.0129
7064.00,1.0038
7063.00,0.9945
7062.00,0.9848
7061.00,0.9750
7060.00,0.9650
7059.00,0.9551
7058.00,0.9453
7057.00,0.9356
7056.00,0.9261
7055.00,0.9168
7054.00,0.9075
7053.00,0.8982
7052.00,0.8890
7051.00,0.8797
7050.00,0.8706
7049.00,0.8619
7048.00,0.8536
7047.00,0.8456
7046.00,0.8379
7045.00,0.8304
7044.00,0.8233
7043.00,0.8170
7042.00,0.8114
7041.00,0.8065
7040.00,0.8020
7039.00,0.7981
7038.00,0.7947
7037.00,0.7919
7036.00,0.7895
7035.00,0.7874
7034.00,0.7855
7033.00,0.7843
7032.00,0.7838
7031.00,0.7840
7030.00,0.7847
7029.00,0.7859
7028.00,0.7876
7027.00,0.7900
7026.00,0.7931
7025.00,0.7966
7024.00,0.8005
7023.00,0.8049
7022.00,0.8099
7021.00,0.8155
7020.00,0.8213
7019.00,0.8272
7018.00,0.8334
7017.00,0.8401
7016.00,0.8473
7015.00,0.8549
7014.00,0.8627
7013.00,0.8710
7012.00,0.8796
7011.00,0.8885
7010.00,0.8975
7009.00,0.9065
7008.00,0.9157
7007.00,0.9248
7006.00,0.9340
7005.00,0.9429
7004.00,0.9519
7003.00,0.9612
7002.00,0.9708
7001.00,0.9804
7000.00,0.9900
6999.00,0.9995
6998.00,1.0090
6997.00,1.0186
6996.00,1.0279
6995.00,1.0369
6994.00,1.0459
6993.00,1.0548
6992.00,1.0636
6991.00,1.0723
6990.00,1.0810
6989.00,1.0895
6988.00,1.0979
6987.00,1.1060
6986.00,1.1138
6985.00,1.1210
6984.00,1.1279
6983.00,1.1348
6982.00,1.1417
6981.00,1.1484
6980.00,1.1547
6979.00,1.1608
6978.00,1.1668
6977.00,1.1728
6976.00,1.1780
6975.00,1.1823
6974.00,1.1859
6973.00,1.1892
6972.00,1.1926
6971.00,1.1961
6970.00,1.1994
6969.00,1.2024
6968.00,1.2050
6967.00,1.2071
6966.00,1.2086
6965.00,1.2098
6964.00,1.2107
6963.00,1.2114
6962.00,1.2118
6961.00,1.2118
6960.00,1.2116
6959.00,1.2113
6958.00,1.2105
6957.00,1.2090
6956.00,1.2068
6955.00,1.2043
6954.00,1.2018
6953.00,1.1991
6952.00,1.1958
6951.00,1.1920
6950.00,1.1878
6949.00,1.1834
6948.00,1.1787
6947.00,1.1738
6946.00,1.1684
6945.00,1.1623
6944.00,1.1557
6943.00,1.1488
6942.00,1.1415
6941.00,1.1339
6940.00,1.1261
6939.00,1.1183
6938.00,1.1103
6937.00,1.1015
6936.00,1.0920
6935.00,1.0822
6934.00,1.0726
6933.00,1.0630
6932.00,1.0532
6931.00,1.0432
6930.00,1.0333
6929.00,1.0233
6928.00,1.0130
6927.00,1.0022
6926.00,0.9913
6925.00,0.9806
6924.00,0.9700
6923.00,0.9593
6922.00,0.9486
6921.00,0.9380
6920.00,0.9275
6919.00,0.9170
6918.00,0.9067
6917.00,0.8969
6916.00,0.8874
6915.00,0.8784
6914.00,0.8698
6913.00,0.8614
6912.00,0.8531
6911.00,0.8449
6910.00,0.8372
6909.00,0.8300
6908.00,0.8234
6907.00,0.8174
6906.00,0.8118
6905.00,0.8068
6904.00,0.8021
6903.00,0.7980
6902.00,0.7943
6901.00,0.7910
6900.00,0.7883
6899.00,0.7862
6898.00,0.7849
6897.00,0.7843
6896.00,0.7844
6895.00,0.7850
6894.00,0.7864
6893.00,0.7884
6892.00,0.7910
6891.00,0.7941
6890.00,0.7974
6889.00,0.8012
6888.00,0.8054
6887.00,0.8102
6886.00,0.8155
6885.00,0.8212
6884.00,0.8272
6883.00,0.8338
6882.00,0.8409
6881.00,0.8486
6880.00,0.8564
6879.00,0.8645
6878.00,0.8728
6877.00,0.8814
6876.00,0.8903
6875.00,0.8992
6874.00,0.9082
6873.00,0.9173
6872.00,0.9266
6871.00,0.9361
6870.00,0.9458
6869.00,0.9555
6868.00,0.9650
6867.00,0.9742
6866.00,0.9832
6865.00,0.9924
6864.00,1.0016
6863.00,1.0109
6862.00,1.0200
6861.00,1.0290
6860.00,1.0383
6859.00,1.0479
6858.00,1.0575
6857.00,1.0671
6856.00,1.0763
6855.00,1.0850
6854.00,1.0932
6853.00,1.1010
6852.00,1.1085
6851.00,1.1160
6850.00,1.1233
6849.00,1.1303
6848.00,1.1368
6847.00,1.1430
6846.00,1.1489
6845.00,1.1543
6844.00,1.1592
6843.00,1.1640
6842.00,1.1694
6841.00,1.1755
6840.00,1.1814
6839.00,1.1863
6838.00,1.1899
6837.00,1.1927
6836.00,1.1951
6835.00,1.1973
6834.00,1.1992
6833.00,1.2013
6832.00,1.2036
6831.00,1.2059
6830.00,1.2075
6829.00,1.2081
6828.00,1.2081
6827.00,1.2082
6826.00,1.2085
6825.00,1.2088
6824.00,1.2085
6823.00,1.2073
6822.00,1.2053
6821.00,1.2027
6820.00,1.1996
6819.00,1.1960
6818.00,1.1920
6817.00,1.1882
6816.00,1.1849
6815.00,1.1817
6814.00,1.1780
6813.00,1.1734
6812.00,1.1682
6811.00,1.1626
6810.00,1.1569
6809.00,1.1507
6808.00,1.1441
6807.00,1.1372
6806.00,1.1299
6805.00,1.1221
6804.00,1.1136
6803.00,1.1046
6802.00,1.0953
6801.00,1.0861
6800.00,1.0769
6799.00,1.0672
6798.00,1.0573
6797.00,1.0473
6796.00,1.0374
6795.00,1.0275
6794.00,1.0174
6793.00,1.0070
6792.00,0.9964
6791.00,0.9858
6790.00,0.9752
6789.00,0.9644
6788.00,0.9533
6787.00,0.9422
6786.00,0.9310
6785.00,0.9202
6784.00,0.9098
6783.00,0.9000
6782.00,0.8905
6781.00,0.8812
6780.00,0.8720
6779.00,0.8631
6778.00,0.8543
6777.00,0.8456
6776.00,0.8371
6775.00,0.8290
6774.00,0.8214
6773.00,0.8144
6772.00,0.8080
6771.00,0.8021
6770.00,0.7968
6769.00,0.7920
6768.00,0.7879
6767.00,0.7846
6766.00,0.7821
6765.00,0.7800
6764.00,0.7782
6763.00,0.7769
6762.00,0.7761
6761.00,0.7757
6760.00,0.7759
6759.00,0.7767
6758.00,0.7784
6757.00,0.7810
6756.00,0.7841
6755.00,0.7876
6754.00,0.7915
6753.00,0.7959
6752.00,0.8010
6751.00,0.8067
6750.00,0.8130
6749.00,0.8200
6748.00,0.8274
6747.00,0.8350
6746.00,0.8430
6745.00,0.8512
6744.00,0.8596
6743.00,0.8680
6742.00,0.8764
6741.00,0.8850
6740.00,0.8939
6739.00,0.9031
6738.00,0.9125
6737.00,0.9221
6736.00,0.9320
6735.00,0.9421
6734.00,0.9526
6733.00,0.9634
6732.00,0.9739
6731.00,0.9841
6730.00,0.9940
6729.00,1.0039
6728.00,1.0140
6727.00,1.0242
6726.00,1.0344
6725.00,1.0444
6724.00,1.0541
6723.00,1.0637
6722.00,1.0732
6721.00,1.0823
6720.00,1.0910
6719.00,1.0995
6718.00,1.1079
6717.00,1.1163
6716.00,1.1245
6715.00,1.1323
6714.00,1.1399
6713.00,1.1474
6712.00,1.1545
6711.00,1.1611
6710.00,1.1675
6709.00,1.1737
6708.00,1.1796
6707.00,1.1850
6706.00,1.1897
6705.00,1.1941
6704.00,1.1987
6703.00,1.2035
6702.00,1.2081
6701.00,1.2122
6700.00,1.2157
6699.00,1.2190
6698.00,1.2222
6697.00,1.2251
6696.00,1.2273
6695.00,1.2288
6694.00,1.2299
6693.00,1.2307
6692.00,1.2308
6691.00,1.2301
6690.00,1.2290
6689.00,1.2278
6688.00,1.2268
6687.00,1.2258
6686.00,1.2244
6685.00,1.2225
6684.00,1.2200
6683.00,1.2170
6682.00,1.2135
6681.00,1.2096
6680.00,1.2057
6679.00,1.2014
6678.00,1.1968
6677.00,1.1917
6676.00,1.1861
6675.00,1.1803
6674.00,1.1739
6673.00,1.1671
6672.00,1.1599
6671.00,1.1525
6670.00,1.1448
6669.00,1.1367
6668.00,1.1279
6667.00,1.1187
6666.00,1.1091
6665.00,1.0991
6664.00,1.0888
6663.00,1.0781
6662.00,1.0674
6661.00,1.0567
6660.00,1.0460
6659.00,1.0353
6658.00,1.0246
6657.00,1.0137
6656.00,1.0028
6655.00,0.9918
6654.00,0.9808
6653.00,0.9697
6652.00,0.9587
6651.00,0.9478
6650.00,0.9370
6649.00,0.9263
6648.00,0.9155
6647.00,0.9048
6646.00,0.8943
6645.00,0.8841
6644.00,0.8742
6643.00,0.8647
6642.00,0.8556
6641.00,0.8470
6640.00,0.8389
6639.00,0.8313
6638.00,0.8242
6637.00,0.8175
6636.00,0.8113
6635.00,0.8055
6634.00,0.8001
6633.00,0.7952
6632.00,0.7908
6631.00,0.7872
6630.00,0.7842
6629.00,0.7821
6628.00,0.7807
6627.00,0.7799
6626.00,0.7800
6625.00,0.7807
6624.00,0.7817
6623.00,0.7833
6622.00,0.7856
6621.00,0.7886
6620.00,0.7921
6619.00,0.7961
6618.00,0.8008
6617.00,0.8061
6616.00,0.8119
6615.00,0.8182
6614.00,0.8248
6613.00,0.8319
6612.00,0.8395
6611.00,0.8474
6610.00,0.8556
6609.00,0.8641
6608.00,0.8728
6607.00,0.8818
6606.00,0.8911
6605.00,0.9006
6604.00,0.9102
6603.00,0.9199
6602.00,0.9299
6601.00,0.9402
6600.00,0.9506
6599.00,0.9609
6598.00,0.9712
6597.00,0.9813
6596.00,0.9912
6595.00,1.0009
6594.00,1.0106
6593.00,1.0203
6592.00,1.0299
6591.00,1.0394
6590.00,1.0489
6589.00,1.0585
6588.00,1.0679
6587.00,1.0773
6586.00,1.0866
6585.00,1.0957
6584.00,1.1043
6583.00,1.1126
6582.00,1.1205
6581.00,1.1281
6580.00,1.1353
6579.00,1.1423
6578.00,1.1495
6577.00,1.1569
6576.00,1.1641
6575.00,1.1706
6574.00,1.1763
6573.00,1.1813
6572.00,1.1858
6571.00,1.1900
6570.00,1.1941
6569.00,1.1984
6568.00,1.2025
6567.00,1.2065
6566.00,1.2101
6565.00,1.2134
6564.00,1.2160
6563.00,1.2179
6562.00,1.2191
6561.00,1.2199
6560.00,1.2204
6559.00,1.2204
6558.00,1.2199
6557.00,1.2193
6556.00,1.2186
6555.00,1.2177
6554.00,1.2166
6553.00,1.2152
6552.00,1.2134
6551.00,1.2113
6550.00,1.2087
6549.00,1.2056
6548.00,1.2023
6547.00,1.1989
6546.00,1.1954
6545.00,1.1917
6544.00,1.1875
6543.00,1.1829
6542.00,1.1778
6541.00,1.1721
6540.00,1.1655
6539.00,1.1582
6538.00,1.1507
6537.00,1.1432
6536.00,1.1356
6535.00,1.1279
6534.00,1.1199
6533.00,1.1119
6532.00,1.1037
6531.00,1.0951
6530.00,1.0861
6529.00,1.0765
6528.00,1.0666
6527.00,1.0566
6526.00,1.0466
6525.00,1.0363
6524.00,1.0256
6523.00,1.0147
6522.00,1.0037
6521.00,0.9926
6520.00,0.9815
6519.00,0.9704
6518.00,0.9595
6517.00,0.9487
6516.00,0.9382
6515.00,0.9276
6514.00,0.9168
6513.00,0.9060
6512.00,0.8951
6511.00,0.8846
6510.00,0.8746
6509.00,0.8652
6508.00,0.8561
6507.00,0.8473
6506.00,0.8388
6505.00,0.8306
6504.00,0.8228
6503.00,0.8154
6502.00,0.8085
6501.00,0.8021
6500.00,0.7963
6499.00,0.7912
6498.00,0.7868
6497.00,0.7830
6496.00,0.7797
6495.00,0.7769
6494.00,0.7749
6493.00,0.7735
6492.00,0.7727
6491.00,0.7725
6490.00,0.7730
6489.00,0.7743
6488.00,0.7761
6487.00,0.7786
6486.00,0.7817
6485.00,0.7855
6484.00,0.7900
6483.00,0.7950
6482.00,0.8006
6481.00,0.8070
6480.00,0.8137
6479.00,0.8206
6478.00,0.8277
6477.00,0.8351
6476.00,0.8429
6475.00,0.8512
6474.00,0.8601
6473.00,0.8695
6472.00,0.8794
6471.00,0.8896
6470.00,0.9000
6469.00,0.9103
6468.00,0.9205
6467.00,0.9307
6466.00,0.9411
6465.00,0.9516
6464.00,0.9620
6463.00,0.9725
6462.00,0.9831
6461.00,0.9938
6460.00,1.0046
6459.00,1.0154
6458.00,1.0263
6457.00,1.0371
6456.00,1.0477
6455.00,1.0580
6454.00,1.0681
6453.00,1.0781
6452.00,1.0879
6451.00,1.0974
6450.00,1.1068
6449.00,1.1161
6448.00,1.1253
6447.00,1.1342
6446.00,1.1427
6445.00,1.1510
6444.00,1.1590
6443.00,1.1667
6442.00,1.1741
6441.00,1.1811
6440.00,1.1876
6439.00,1.1942
6438.00,1.2009
6437.00,1.2076
6436.00,1.2136
6435.00,1.2189
6434.00,1.2237
6433.00,1.2279
6432.00,1.2312
6431.00,1.2340
6430.00,1.2369
6429.00,1.2402
6428.00,1.2435
6427.00,1.2464
6426.00,1.2489
6425.00,1.2509
6424.00,1.2526
6423.00,1.2536
6422.00,1.2542
6421.00,1.2543
6420.00,1.2540
6419.00,1.2533
6418.00,1.2522
6417.00,1.2506
6416.00,1.2483
6415.00,1.2452
6414.00,1.2421
6413.00,1.2391
6412.00,1.2359
6411.00,1.2321
6410.00,1.2274
6409.00,1.2224
6408.00,1.2170
6407.00,1.2114
6406.00,1.2057
6405.00,1.1997
6404.00,1.1933
6403.00,1.1865
6402.00,1.1794
6401.00,1.1718
6400.00,1.1636
6399.00,1.1548
6398.00,1.1458
6397.00,1.1368
6396.00,1.1274
6395.00,1.1175
6394.00,1.1071
6393.00,1.0966
6392.00,1.0858
6391.00,1.0746
6390.00,1.0633
6389.00,1.0519
6388.00,1.0404
6387.00,1.0286
6386.00,1.0166
6385.00,1.0046
6384.00,0.9928
6383.00,0.9808
6382.00,0.9687
6381.00,0.9568
6380.00,0.9449
6379.00,0.9332
6378.00,0.9216
6377.00,0.9104
6376.00,0.8994
6375.00,0.8886
6374.00,0.8780
6373.00,0.8678
6372.00,0.8582
6371.00,0.8490
6370.00,0.8402
6369.00,0.8319
6368.00,0.8241
6367.00,0.8167
6366.00,0.8097
6365.00,0.8033
6364.00,0.7974
6363.00,0.7921
6362.00,0.7876
6361.00,0.7838
6360.00,0.7807
6359.00,0.7782
6358.00,0.7764
6357.00,0.7754
6356.00,0.7753
6355.00,0.7760
6354.00,0.7773
6353.00,0.7794
6352.00,0.7819
6351.00,0.7849
6350.00,0.7885
6349.00,0.7927
6348.00,0.7977
6347.00,0.8032
6346.00,0.8093
6345.00,0.8160
6344.00,0.8233
6343.00,0.8309
6342.00,0.8387
6341.00,0.8470
6340.00,0.8556
6339.00,0.8647
6338.00,0.8743
6337.00,0.8841
6336.00,0.8939
6335.00,0.9039
6334.00,0.9141
6333.00,0.9246
6332.00,0.9353
6331.00,0.9462
6330.00,0.9570
6329.00,0.9680
6328.00,0.9788
6327.00,0.9896
6326.00,1.0001
6325.00,1.0106
6324.00,1.0211
6323.00,1.0316
6322.00,1.0421
6321.00,1.0525
6320.00,1.0627
6319.00,1.0727
6318.00,1.0823
6317.00,1.0918
6316.00,1.1012
6315.00,1.1106
6314.00,1.1199
6313.00,1.1289
6312.00,1.1376
6311.00,1.1461
6310.00,1.1545
6309.00,1.1626
6308.00,1.1703
6307.00,1.1776
6306.00,1.1846
6305.00,1.1910
6304.00,1.1967
6303.00,1.2020
6302.00,1.2071
6301.00,1.2120
6300.00,1.2166
6299.00,1.2208
6298.00,1.2248
6297.00,1.2284
6296.00,1.2315
6295.00,1.2341
6294.00,1.2365
6293.00,1.2389
6292.00,1.2411
6291.00,1.2427
6290.00,1.2438
6289.00,1.2445
6288.00,1.2448
6287.00,1.2447
6286.00,1.2442
6285.00,1.2436
6284.00,1.2425
6283.00,1.2409
6282.00,1.2389
6281.00,1.2367
6280.00,1.2344
6279.00,1.2318
6278.00,1.2289
6277.00,1.2259
6276.00,1.2225
6275.00,1.2185
6274.00,1.2139
6273.00,1.2085
6272.00,1.2028
6271.00,1.1968
6270.00,1.1906
6269.00,1.1842
6268.00,1.1776
6267.00,1.1707
6266.00,1.1634
6265.00,1.1554
6264.00,1.1469
6263.00,1.1379
6262.00,1.1287
6261.00,1.1191
6260.00,1.1092
6259.00,1.0991
6258.00,1.0891
6257.00,1.0790
6256.00,1.0684
6255.00,1.0573
6254.00,1.0462
6253.00,1.0350
6252.00,1.0236
6251.00,1.0117
6250.00,0.9997
6249.00,0.9880
6248.00,0.9764
6247.00,0.9647
6246.00,0.9528
6245.00,0.9408
6244.00,0.9289
6243.00,0.9173
6242.00,0.9058
6241.00,0.8947
6240.00,0.8838
6239.00,0.8734
6238.00,0.8633
6237.00,0.8536
6236.00,0.8441
6235.00,0.8350
6234.00,0.8264
6233.00,0.8183
6232.00,0.8108
6231.00,0.8039
6230.00,0.7974
6229.00,0.7916
6228.00,0.7864
6227.00,0.7819
6226.00,0.7782
6225.00,0.7751
6224.00,0.7727
6223.00,0.7711
6222.00,0.7703
6221.00,0.7703
6220.00,0.7708
6219.00,0.7720
6218.00,0.7740
6217.00,0.7766
6216.00,0.7799
6215.00,0.7838
6214.00,0.7884
6213.00,0.7939
6212.00,0.8000
6211.00,0.8065
6210.00,0.8136
6209.00,0.8212
6208.00,0.8293
6207.00,0.8377
6206.00,0.8465
6205.00,0.8558
6204.00,0.8654
6203.00,0.8753
6202.00,0.8853
6201.00,0.8956
6200.00,0.9060
6199.00,0.9168
6198.00,0.9279
6197.00,0.9392
6196.00,0.9505
6195.00,0.9618
6194.00,0.9730
6193.00,0.9843
6192.00,0.9955
6191.00,1.0065
6190.00,1.0175
6189.00,1.0288
6188.00,1.0402
6187.00,1.0515
6186.00,1.0626
6185.00,1.0735
6184.00,1.0842
6183.00,1.0947
6182.00,1.1051
6181.00,1.1153
6180.00,1.1250
6179.00,1.1343
6178.00,1.1435
6177.00,1.1528
6176.00,1.1620
6175.00,1.1709
6174.00,1.1798
6173.00,1.1886
6172.00,1.1968
6171.00,1.2041
6170.00,1.2108
6169.00,1.2172
6168.00,1.2232
6167.00,1.2290
6166.00,1.2346
6165.00,1.2401
6164.00,1.2453
6163.00,1.2499
6162.00,1.2540
6161.00,1.2579
6160.00,1.2616
6159.00,1.2651
6158.00,1.2682
6157.00,1.2710
6156.00,1.2732
6155.00,1.2750
6154.00,1.2763
6153.00,1.2772
6152.00,1.2774
6151.00,1.2769
6150.00,1.2758
6149.00,1.2746
6148.00,1.2729
6147.00,1.2709
6146.00,1.2686
6145.00,1.2662
6144.00,1.2635
6143.00,1.2604
6142.00,1.2569
6141.00,1.2530
6140.00,1.2486
6139.00,1.2438
6138.00,1.2389
6137.00,1.2338
6136.00,1.2283
6135.00,1.2219
6134.00,1.2148
6133.00,1.2072
6132.00,1.1991
6131.00,1.1904
6130.00,1.1813
6129.00,1.1723
6128.00,1.1633
6127.00,1.1541
6126.00,1.1447
6125.00,1.1349
6124.00,1.1248
6123.00,1.1139
6122.00,1.1023
6121.00,1.0903
6120.00,1.0782
6119.00,1.0659
6118.00,1.0537
6117.00,1.0415
6116.00,1.0294
6115.00,1.0171
6114.00,1.0044
6113.00,0.9916
6112.00,0.9789
6111.00,0.9661
6110.00,0.9534
6109.00,0.9406
6108.00,0.9280
6107.00,0.9157
6106.00,0.9036
6105.00,0.8919
6104.00,0.8805
6103.00,0.8697
6102.00,0.8592
6101.00,0.8491
6100.00,0.8394
6099.00,0.8301
6098.00,0.8214
6097.00,0.8134
6096.00,0.8060
6095.00,0.7993
6094.00,0.7932
6093.00,0.7876
6092.00,0.7827
6091.00,0.7785
6090.00,0.7751
6089.00,0.7725
6088.00,0.7706
6087.00,0.7694
6086.00,0.7690
6085.00,0.7694
6084.00,0.7706
6083.00,0.7724
6082.00,0.7750
6081.00,0.7785
6080.00,0.7827
6079.00,0.7876
6078.00,0.7930
6077.00,0.7991
6076.00,0.8056
6075.00,0.8127
6074.00,0.8202
6073.00,0.8283
6072.00,0.8369
6071.00,0.8459
6070.00,0.8553
6069.00,0.8651
6068.00,0.8754
6067.00,0.8857
6066.00,0.8961
6065.00,0.9067
6064.00,0.9175
6063.00,0.9285
6062.00,0.9398
6061.00,0.9513
6060.00,0.9631
6059.00,0.9748
6058.00,0.9865
6057.00,0.9978
6056.00,1.0089
6055.00,1.0200
6054.00,1.0310
6053.00,1.0420
6052.00,1.0529
6051.00,1.0637
6050.00,1.0743
6049.00,1.0846
6048.00,1.0946
6047.00,1.1045
6046.00,1.1145
6045.00,1.1248
6044.00,1.1350
6043.00,1.1448
6042.00,1.1541
6041.00,1.1629
6040.00,1.1714
6039.00,1.1797
6038.00,1.1879
6037.00,1.1959
6036.00,1.2038
6035.00,1.2114
6034.00,1.2186
6033.00,1.2253
6032.00,1.2315
6031.00,1.2372
6030.00,1.2426
6029.00,1.2478
6028.00,1.2526
6027.00,1.2571
6026.00,1.2612
6025.00,1.2650
6024.00,1.2684
6023.00,1.2715
6022.00,1.2743
6021.00,1.2767
6020.00,1.2787
6019.00,1.2806
6018.00,1.2821
6017.00,1.2833
6016.00,1.2840
6015.00,1.2841
6014.00,1.2839
6013.00,1.2832
6012.00,1.2822
6011.00,1.2808
6010.00,1.2791
6009.00,1.2767
6008.00,1.2736
6007.00,1.2699
6006.00,1.2656
6005.00,1.2609
6004.00,1.2560
6003.00,1.2508
6002.00,1.2454
6001.00,1.2396
6000.00,1.2333
5999.00,1.2266
5998.00,1.2195
5997.00,1.2119
5996.00,1.2037
5995.00,1.1947
5994.00,1.1855
5993.00,1.1761
5992.00,1.1665
5991.00,1.1565
5990.00,1.1463
5989.00,1.1358
5988.00,1.1250
5987.00,1.1136
5986.00,1.1019
5985.00,1.0899
5984.00,1.0777
5983.00,1.0651
5982.00,1.0524
5981.00,1.0395
5980.00,1.0264
5979.00,1.0132
5978.00,1.0000
5977.00,0.9868
5976.00,0.9736
5975.00,0.9604
5974.00,0.9472
5973.00,0.9343
5972.00,0.9218
5971.00,0.9096
5970.00,0.8977
5969.00,0.8861
5968.00,0.8747
5967.00,0.8637
5966.00,0.8529
5965.00,0.8427
5964.00,0.8330
5963.00,0.8238
5962.00,0.8153
5961.00,0.8076
5960.00,0.8006
5959.00,0.7943
5958.00,0.7887
5957.00,0.7840
5956.00,0.7800
5955.00,0.7769
5954.00,0.7744
5953.00,0.7726
5952.00,0.7715
5951.00,0.7713
5950.00,0.7720
5949.00,0.7735
5948.00,0.7757
5947.00,0.7788
5946.00,0.7826
5945.00,0.7872
5944.00,0.7926
5943.00,0.7987
5942.00,0.8054
5941.00,0.8129
5940.00,0.8209
5939.00,0.8293
5938.00,0.8381
5937.00,0.8473
5936.00,0.8570
5935.00,0.8672
5934.00,0.8778
5933.00,0.8887
5932.00,0.8998
5931.00,0.9111
5930.00,0.9227
5929.00,0.9344
5928.00,0.9462
5927.00,0.9583
5926.00,0.9707
5925.00,0.9833
5924.00,0.9959
5923.00,1.0082
5922.00,1.0204
5921.00,1.0325
5920.00,1.0446
5919.00,1.0567
5918.00,1.0687
5917.00,1.0807
5916.00,1.0926
5915.00,1.1043
5914.00,1.1157
5913.00,1.1266
5912.00,1.1374
5911.00,1.1481
5910.00,1.1589
5909.00,1.1694
5908.00,1.1795
5907.00,1.1892
5906.00,1.1985
5905.00,1.2075
5904.00,1.2161
5903.00,1.2245
5902.00,1.2326
5901.00,1.2406
5900.00,1.2483
5899.00,1.2557
5898.00,1.2625
5897.00,1.2687
5896.00,1.2743
5895.00,1.2794
5894.00,1.2844
5893.00,1.2893
5892.00,1.2941
5891.00,1.2987
5890.00,1.3030
5889.00,1.3067
5888.00,1.3096
5887.00,1.3117
5886.00,1.3131
5885.00,1.3140
5884.00,1.3144
5883.00,1.3149
5882.00,1.3155
5881.00,1.3162
5880.00,1.3165
5879.00,1.3162
5878.00,1.3155
5877.00,1.3141
5876.00,1.3120
5875.00,1.3090
5874.00,1.3055
5873.00,1.3019
5872.00,1.2980
5871.00,1.2938
5870.00,1.2893
5869.00,1.2847
5868.00,1.2798
5867.00,1.2745
5866.00,1.2685
5865.00,1.2618
5864.00,1.2543
5863.00,1.2460
5862.00,1.2375
5861.00,1.2288
5860.00,1.2200
5859.00,1.2111
5858.00,1.2021
5857.00,1.1927
5856.00,1.1827
5855.00,1.1719
5854.00,1.1605
5853.00,1.1488
5852.00,1.1368
5851.00,1.1247
5850.00,1.1124
5849.00,1.0999
5848.00,1.0873
5847.00,1.0743
5846.00,1.0613
5845.00,1.0482
5844.00,1.0351
5843.00,1.0220
5842.00,1.0087
5841.00,0.9956
5840.00,0.9826
5839.00,0.9696
5838.00,0.9566
5837.00,0.9438
5836.00,0.9311
5835.00,0.9187
5834.00,0.9066
5833.00,0.8948
5832.00,0.8833
5831.00,0.8724
5830.00,0.8621
5829.00,0.8524
5828.00,0.8433
5827.00,0.8348
5826.00,0.8269
5825.00,0.8196
5824.00,0.8131
5823.00,0.8072
5822.00,0.8020
5821.00,0.7976
5820.00,0.7938
5819.00,0.7907
5818.00,0.7884
5817.00,0.7869
5816.00,0.7863
5815.00,0.7866
5814.00,0.7878
5813.00,0.7898
5812.00,0.7927
5811.00,0.7962
5810.00,0.8005
5809.00,0.8053
5808.00,0.8109
5807.00,0.8171
5806.00,0.8239
5805.00,0.8312
5804.00,0.8391
5803.00,0.8475
5802.00,0.8564
5801.00,0.8659
5800.00,0.8757
5799.00,0.8858
5798.00,0.8963
5797.00,0.9071
5796.00,0.9183
5795.00,0.9298
5794.00,0.9416
5793.00,0.9537
5792.00,0.9660
5791.00,0.9782
5790.00,0.9905
5789.00,1.0028
5788.00,1.0151
5787.00,1.0274
5786.00,1.0398
5785.00,1.0522
5784.00,1.0645
5783.00,1.0766
5782.00,1.0884
5781.00,1.1000
5780.00,1.1115
5779.00,1.1230
5778.00,1.1345
5777.00,1.1461
5776.00,1.1576
5775.00,1.1687
5774.00,1.1794
5773.00,1.1895
5772.00,1.1990
5771.00,1.2082
5770.00,1.2171
5769.00,1.2261
5768.00,1.2350
5767.00,1.2436
5766.00,1.2519
5765.00,1.2600
5764.00,1.2677
5763.00,1.2749
5762.00,1.2818
5761.00,1.2882
5760.00,1.2942
5759.00,1.2996
5758.00,1.3043
5757.00,1.3087
5756.00,1.3126
5755.00,1.3163
5754.00,1.3197
5753.00,1.3228
5752.00,1.3256
5751.00,1.3279
5750.00,1.3298
5749.00,1.3314
5748.00,1.3325
5747.00,1.3333
5746.00,1.3337
5745.00,1.3337
5744.00,1.3333
5743.00,1.3323
5742.00,1.3306
5741.00,1.3283
5740.00,1.3257
5739.00,1.3230
5738.00,1.3202
5737.00,1.3171
5736.00,1.3135
5735.00,1.3094
5734.00,1.3046
5733.00,1.2991
5732.00,1.2928
5731.00,1.2861
5730.00,1.2792
5729.00,1.2722
5728.00,1.2648
5727.00,1.2570
5726.00,1.2487
5725.00,1.2398
5724.00,1.2304
5723.00,1.2207
5722.00,1.2106
5721.00,1.2004
5720.00,1.1899
5719.00,1.1791
5718.00,1.1679
5717.00,1.1560
5716.00,1.1437
5715.00,1.1310
5714.00,1.1181
5713.00,1.1050
5712.00,1.0917
5711.00,1.0782
5710.00,1.0645
5709.00,1.0507
5708.00,1.0366
5707.00,1.0225
5706.00,1.0082
5705.00,0.9939
5704.00,0.9798
5703.00,0.9659
5702.00,0.9522
5701.00,0.9388
5700.00,0.9255
5699.00,0.9124
5698.00,0.8997
5697.00,0.8873
5696.00,0.8754
5695.00,0.8641
5694.00,0.8534
5693.00,0.8432
5692.00,0.8335
5691.00,0.8245
5690.00,0.8161
5689.00,0.8085
5688.00,0.8017
5687.00,0.7957
5686.00,0.7904
5685.00,0.7860
5684.00,0.7824
5683.00,0.7797
5682.00,0.7780
5681.00,0.7772
5680.00,0.7772
5679.00,0.7780
5678.00,0.7796
5677.00,0.7820
5676.00,0.7854
5675.00,0.7896
5674.00,0.7946
5673.00,0.8006
5672.00,0.8072
5671.00,0.8145
5670.00,0.8224
5669.00,0.8309
5668.00,0.8399
5667.00,0.8494
5666.00,0.8595
5665.00,0.8701
5664.00,0.8811
5663.00,0.8925
5662.00,0.9042
5661.00,0.9161
5660.00,0.9283
5659.00,0.9406
5658.00,0.9533
5657.00,0.9662
5656.00,0.9791
5655.00,0.9920
5654.00,1.0049
5653.00,1.0178
5652.00,1.0305
5651.00,1.0432
5650.00,1.0559
5649.00,1.0687
5648.00,1.0813
5647.00,1.0937
5646.00,1.1060
5645.00,1.1181
5644.00,1.1300
5643.00,1.1416
5642.00,1.1531
5641.00,1.1645
5640.00,1.1756
5639.00,1.1864
5638.00,1.1966
5637.00,1.2066
5636.00,1.2163
5635.00,1.2255
5634.00,1.2344
5633.00,1.2429
5632.00,1.2510
5631.00,1.2585
5630.00,1.2652
5629.00,1.2714
5628.00,1.2775
5627.00,1.2835
5626.00,1.2896
5625.00,1.2956
5624.00,1.3012
5623.00,1.3064
5622.00,1.3109
5621.00,1.3147
5620.00,1.3178
5619.00,1.3205
5618.00,1.3227
5617.00,1.3246
5616.00,1.3262
5615.00,1.3275
5614.00,1.3286
5613.00,1.3294
5612.00,1.3298
5611.00,1.3296
5610.00,1.3290
5609.00,1.3277
5608.00,1.3261
5607.00,1.3243
5606.00,1.3224
5605.00,1.3204
5604.00,1.3182
5603.00,1.3156
5602.00,1.3125
5601.00,1.3091
5600.00,1.3052
5599.00,1.3008
5598.00,1.2958
5597.00,1.2905
5596.00,1.2846
5595.00,1.2783
5594.00,1.2713
5593.00,1.2639
5592.00,1.2563
5591.00,1.2484
5590.00,1.2401
5589.00,1.2313
5588.00,1.2218
5587.00,1.2119
5586.00,1.2015
5585.00,1.1907
5584.00,1.1797
5583.00,1.1686
5582.00,1.1572
5581.00,1.1455
5580.00,1.1331
5579.00,1.1203
5578.00,1.1070
5577.00,1.0934
5576.00,1.0795
5575.00,1.0653
5574.00,1.0510
5573.00,1.0366
5572.00,1.0222
5571.00,1.0077
5570.00,0.9933
5569.00,0.9790
5568.00,0.9645
5567.00,0.9501
5566.00,0.9357
5565.00,0.9217
5564.00,0.9082
5563.00,0.8951
5562.00,0.8826
5561.00,0.8705
5560.00,0.8589
5559.00,0.8477
5558.00,0.8371
5557.00,0.8271
5556.00,0.8178
5555.00,0.8092
5554.00,0.8014
5553.00,0.7944
5552.00,0.7881
5551.00,0.7826
5550.00,0.7780
5549.00,0.7744
5548.00,0.7716
5547.00,0.7698
5546.00,0.7690
5545.00,0.7693
5544.00,0.7704
5543.00,0.7724
5542.00,0.7754
5541.00,0.7794
5540.00,0.7843
5539.00,0.7899
5538.00,0.7964
5537.00,0.8035
5536.00,0.8113
5535.00,0.8196
5534.00,0.8286
5533.00,0.8383
5532.00,0.8486
5531.00,0.8593
5530.00,0.8705
5529.00,0.8820
5528.00,0.8940
5527.00,0.9064
5526.00,0.9192
5525.00,0.9323
5524.00,0.9456
5523.00,0.9589
5522.00,0.9722
5521.00,0.9855
5520.00,0.9990
5519.00,1.0125
5518.00,1.0260
5517.00,1.0395
5516.00,1.0529
5515.00,1.0663
5514.00,1.0796
5513.00,1.0929
5512.00,1.1061
5511.00,1.1191
5510.00,1.1318
5509.00,1.1442
5508.00,1.1564
5507.00,1.1684
5506.00,1.1803
5505.00,1.1918
5504.00,1.2030
5503.00,1.2138
5502.00,1.2243
5501.00,1.2345
5500.00,1.2444
5499.00,1.2539
5498.00,1.2630
5497.00,1.2718
5496.00,1.2801
5495.00,1.2881
5494.00,1.2958
5493.00,1.3032
5492.00,1.3103
5491.00,1.3170
5490.00,1.3233
5489.00,1.3292
5488.00,1.3347
5487.00,1.3396
5486.00,1.3442
5485.00,1.3482
5484.00,1.3517
5483.00,1.3547
5482.00,1.3575
5481.00,1.3601
5480.00,1.3625
5479.00,1.3645
5478.00,1.3660
5477.00,1.3670
5476.00,1.3672
5475.00,1.3666
5474.00,1.3654
5473.00,1.3639
5472.00,1.3620
5471.00,1.3597
5470.00,1.3571
5469.00,1.3543
5468.00,1.3512
5467.00,1.3477
5466.00,1.3437
5465.00,1.3391
5464.00,1.3339
5463.00,1.3281
5462.00,1.3218
5461.00,1.3151
5460.00,1.3082
5459.00,1.3009
5458.00,1.2931
5457.00,1.2847
5456.00,1.2758
5455.00,1.2664
5454.00,1.2567
5453.00,1.2469
5452.00,1.2367
5451.00,1.2261
5450.00,1.2147
5449.00,1.2027
5448.00,1.1900
5447.00,1.1768
5446.00,1.1633
5445.00,1.1497
5444.00,1.1358
5443.00,1.1216
5442.00,1.1070
5441.00,1.0923
5440.00,1.0773
5439.00,1.0623
5438.00,1.0473
5437.00,1.0323
5436.00,1.0170
5435.00,1.0015
5434.00,0.9859
5433.00,0.9705
5432.00,0.9556
5431.00,0.9410
5430.00,0.9264
5429.00,0.9117
5428.00,0.8972
5427.00,0.8831
5426.00,0.8698
5425.00,0.8571
5424.00,0.8452
5423.00,0.8340
5422.00,0.8238
5421.00,0.8143
5420.00,0.8056
5419.00,0.7975
5418.00,0.7901
5417.00,0.7835
5416.00,0.7777
5415.00,0.7728
5414.00,0.7686
5413.00,0.7653
5412.00,0.7630
5411.00,0.7617
5410.00,0.7614
5409.00,0.7623
5408.00,0.7643
5407.00,0.7673
5406.00,0.7715
5405.00,0.7765
5404.00,0.7823
5403.00,0.7888
5402.00,0.7962
5401.00,0.8044
5400.00,0.8132
5399.00,0.8226
5398.00,0.8324
5397.00,0.8428
5396.00,0.8537
5395.00,0.8651
5394.00,0.8771
5393.00,0.8895
5392.00,0.9022
5391.00,0.9153
5390.00,0.9285
5389.00,0.9418
5388.00,0.9553
5387.00,0.9689
5386.00,0.9828
5385.00,0.9969
5384.00,1.0110
5383.00,1.0250
5382.00,1.0388
5381.00,1.0525
5380.00,1.0661
5379.00,1.0797
5378.00,1.0935
5377.00,1.1073
5376.00,1.1210
5375.00,1.1345
5374.00,1.1477
5373.00,1.1606
5372.00,1.1732
5371.00,1.1856
5370.00,1.1977
5369.00,1.2094
5368.00,1.2208
5367.00,1.2318
5366.00,1.2425
5365.00,1.2529
5364.00,1.2630
5363.00,1.2728
5362.00,1.2821
5361.00,1.2909
5360.00,1.2993
5359.00,1.3075
5358.00,1.3154
5357.00,1.3228
5356.00,1.3298
5355.00,1.3364
5354.00,1.3426
5353.00,1.3482
5352.00,1.3535
5351.00,1.3584
5350.00,1.3627
5349.00,1.3664
5348.00,1.3696
5347.00,1.3723
5346.00,1.3747
5345.00,1.3767
5344.00,1.3784
5343.00,1.3797
5342.00,1.3807
5341.00,1.3811
5340.00,1.3809
5339.00,1.3801
5338.00,1.3788
5337.00,1.3770
5336.00,1.3749
5335.00,1.3726
5334.00,1.3699
5333.00,1.3669
5332.00,1.3637
5331.00,1.3601
5330.00,1.3560
5329.00,1.3512
5328.00,1.3457
5327.00,1.3395
5326.00,1.3330
5325.00,1.3261
5324.00,1.3189
5323.00,1.3112
5322.00,1.3030
5321.00,1.2942
5320.00,1.2851
5319.00,1.2757
5318.00,1.2659
5317.00,1.2556
5316.00,1.2445
5315.00,1.2328
5314.00,1.2206
5313.00,1.2080
5312.00,1.1950
5311.00,1.1815
5310.00,1.1678
5309.00,1.1535
5308.00,1.1389
5307.00,1.1240
5306.00,1.1089
5305.00,1.0936
5304.00,1.0782
5303.00,1.0627
5302.00,1.0471
5301.00,1.0314
5300.00,1.0157
5299.00,1.0000
5298.00,0.9842
5297.00,0.9683
5296.00,0.9526
5295.00,0.9372
5294.00,0.9224
5293.00,0.9080
5292.00,0.8941
5291.00,0.8807
5290.00,0.8677
5289.00,0.8553
5288.00,0.8435
5287.00,0.8325
5286.00,0.8222
5285.00,0.8128
5284.00,0.8043
5283.00,0.7967
5282.00,0.7902
5281.00,0.7847
5280.00,0.7800
5279.00,0.7764
5278.00,0.7738
5277.00,0.7722
5276.00,0.7717
5275.00,0.7721
5274.00,0.7736
5273.00,0.7762
5272.00,0.7797
5271.00,0.7843
5270.00,0.7898
5269.00,0.7963
5268.00,0.8037
5267.00,0.8119
5266.00,0.8209
5265.00,0.8306
5264.00,0.8410
5263.00,0.8519
5262.00,0.8633
5261.00,0.8753
5260.00,0.8877
5259.00,0.9006
5258.00,0.9139
5257.00,0.9277
5256.00,0.9418
5255.00,0.9562
5254.00,0.9706
5253.00,0.9852
5252.00,0.9996
5251.00,1.0140
5250.00,1.0283
5249.00,1.0427
5248.00,1.0574
5247.00,1.0722
5246.00,1.0869
5245.00,1.1015
5244.00,1.1156
5243.00,1.1295
5242.00,1.1432
5241.00,1.1570
5240.00,1.1708
5239.00,1.1845
5238.00,1.1979
5237.00,1.2109
5236.00,1.2235
5235.00,1.2355
5234.00,1.2470
5233.00,1.2581
5232.00,1.2688
5231.00,1.2793
5230.00,1.2896
5229.00,1.2996
5228.00,1.3093
5227.00,1.3186
5226.00,1.3275
5225.00,1.3359
5224.00,1.3439
5223.00,1.3516
5222.00,1.3589
5221.00,1.3658
5220.00,1.3721
5219.00,1.3779
5218.00,1.3831
5217.00,1.3879
5216.00,1.3922
5215.00,1.3962
5214.00,1.4000
5213.00,1.4034
5212.00,1.4064
5211.00,1.4089
5210.00,1.4108
5209.00,1.4121
5208.00,1.4128
5207.00,1.4129
5206.00,1.4125
5205.00,1.4119
5204.00,1.4111
5203.00,1.4101
5202.00,1.4089
5201.00,1.4073
5200.00,1.4051
5199.00,1.4022
5198.00,1.3988
5197.00,1.3948
5196.00,1.3902
5195.00,1.3851
5194.00,1.3796
5193.00,1.3737
5192.00,1.3674
5191.00,1.3606
5190.00,1.3533
5189.00,1.3456
5188.00,1.3376
5187.00,1.3291
5186.00,1.3202
5185.00,1.3108
5184.00,1.3010
5183.00,1.2906
5182.00,1.2796
5181.00,1.2681
5180.00,1.2561
5179.00,1.2438
5178.00,1.2309
5177.00,1.2177
5176.00,1.2041
5175.00,1.1902
5174.00,1.1758
5173.00,1.1610
5172.00,1.1457
5171.00,1.1301
5170.00,1.1140
5169.00,1.0976
5168.00,1.0810
5167.00,1.0643
5166.00,1.0476
5165.00,1.0309
5164.00,1.0142
5163.00,0.9974
5162.00,0.9808
5161.00,0.9644
5160.00,0.9483
5159.00,0.9325
5158.00,0.9169
5157.00,0.9017
5156.00,0.8870
5155.00,0.8728
5154.00,0.8594
5153.00,0.8468
5152.00,0.8350
5151.00,0.8240
5150.00,0.8138
5149.00,0.8045
5148.00,0.7959
5147.00,0.7884
5146.00,0.7819
5145.00,0.7766
5144.00,0.7725
5143.00,0.7694
5142.00,0.7673
5141.00,0.7661
5140.00,0.7661
5139.00,0.7671
5138.00,0.7694
5137.00,0.7729
5136.00,0.7776
5135.00,0.7832
5134.00,0.7897
5133.00,0.7971
5132.00,0.8054
5131.00,0.8146
5130.00,0.8246
5129.00,0.8354
5128.00,0.8468
5127.00,0.8588
5126.00,0.8714
5125.00,0.8844
5124.00,0.8979
5123.00,0.9116
5122.00,0.9256
5121.00,0.9399
5120.00,0.9546
5119.00,0.9695
5118.00,0.9848
5117.00,1.0002
5116.00,1.0157
5115.00,1.0312
5114.00,1.0467
5113.00,1.0621
5112.00,1.0774
5111.00,1.0925
5110.00,1.1075
5109.00,1.1224
5108.00,1.1372
5107.00,1.1519
5106.00,1.1664
5105.00,1.1807
5104.00,1.1945
5103.00,1.2079
5102.00,1.2208
5101.00,1.2333
5100.00,1.2456
5099.00,1.2577
5098.00,1.2698
5097.00,1.2816
5096.00,1.2932
5095.00,1.3043
5094.00,1.3148
5093.00,1.3248
5092.00,1.3342
5091.00,1.3434
5090.00,1.3522
5089.00,1.3609
5088.00,1.3694
5087.00,1.3776
5086.00,1.3851
5085.00,1.3919
5084.00,1.3980
5083.00,1.4035
5082.00,1.4085
5081.00,1.4132
5080.00,1.4175
5079.00,1.4215
5078.00,1.4248
5077.00,1.4276
5076.00,1.4300
5075.00,1.4321
5074.00,1.4339
5073.00,1.4353
5072.00,1.4365
5071.00,1.4371
5070.00,1.4372
5069.00,1.4366
5068.00,1.4355
5067.00,1.4341
5066.00,1.4324
5065.00,1.4302
5064.00,1.4275
5063.00,1.4242
5062.00,1.4201
5061.00,1.4153
5060.00,1.4100
5059.00,1.4045
5058.00,1.3988
5057.00,1.3926
5056.00,1.3860
5055.00,1.3790
5054.00,1.3716
5053.00,1.3636
5052.00,1.3549
5051.00,1.3455
5050.00,1.3354
5049.00,1.3249
5048.00,1.3140
5047.00,1.3029
5046.00,1.2915
5045.00,1.2796
5044.00,1.2670
5043.00,1.2538
5042.00,1.2399
5041.00,1.2256
5040.00,1.2108
5039.00,1.1957
5038.00,1.1803
5037.00,1.1646
5036.00,1.1486
5035.00,1.1322
5034.00,1.1153
5033.00,1.0981
5032.00,1.0807
5031.00,1.0632
5030.00,1.0457
5029.00,1.0282
5028.00,1.0107
5027.00,0.9931
5026.00,0.9757
5025.00,0.9585
5024.00,0.9417
5023.00,0.9253
5022.00,0.9094
5021.00,0.8941
5020.00,0.8794
5019.00,0.8653
5018.00,0.8520
5017.00,0.8394
5016.00,0.8277
5015.00,0.8168
5014.00,0.8070
5013.00,0.7981
5012.00,0.7904
5011.00,0.7837
5010.00,0.7781
5009.00,0.7737
5008.00,0.7704
5007.00,0.7684
5006.00,0.7677
5005.00,0.7683
5004.00,0.7700
5003.00,0.7729
5002.00,0.7770
5001.00,0.7822
5000.00,0.7885
4999.00,0.7959
4998.00,0.8043
4997.00,0.8138
4996.00,0.8241
4995.00,0.8352
4994.00,0.8471
4993.00,0.8598
4992.00,0.8730
4991.00,0.8868
4990.00,0.9011
4989.00,0.9158
4988.00,0.9309
4987.00,0.9462
4986.00,0.9618
4985.00,0.9777
4984.00,0.9938
4983.00,1.0101
4982.00,1.0264
4981.00,1.0426
4980.00,1.0587
4979.00,1.0746
4978.00,1.0905
4977.00,1.1063
4976.00,1.1220
4975.00,1.1376
4974.00,1.1528
4973.00,1.1677
4972.00,1.1823
4971.00,1.1969
4970.00,1.2117
4969.00,1.2265
4968.00,1.2409
4967.00,1.2548
4966.00,1.2682
4965.00,1.2811
4964.00,1.2938
4963.00,1.3062
4962.00,1.3182
4961.00,1.3297
4960.00,1.3407
4959.00,1.3512
4958.00,1.3613
4957.00,1.3710
4956.00,1.3806
4955.00,1.3898
4954.00,1.3983
4953.00,1.4059
4952.00,1.4128
4951.00,1.4194
4950.00,1.4257
4949.00,1.4317
4948.00,1.4374
4947.00,1.4426
4946.00,1.4472
4945.00,1.4513
4944.00,1.4550
4943.00,1.4586
4942.00,1.4618
4941.00,1.4643
4940.00,1.4659
4939.00,1.4667
4938.00,1.4669
4937.00,1.4668
4936.00,1.4665
4935.00,1.4660
4934.00,1.4652
4933.00,1.4640
4932.00,1.4621
4931.00,1.4598
4930.00,1.4568
4929.00,1.4532
4928.00,1.4491
4927.00,1.4445
4926.00,1.4397
4925.00,1.4347
4924.00,1.4295
4923.00,1.4238
4922.00,1.4174
4921.00,1.4103
4920.00,1.4025
4919.00,1.3943
4918.00,1.3856
4917.00,1.3765
4916.00,1.3668
4915.00,1.3564
4914.00,1.3455
4913.00,1.3341
4912.00,1.3222
4911.00,1.3099
4910.00,1.2971
4909.00,1.2839
4908.00,1.2703
4907.00,1.2562
4906.00,1.2414
4905.00,1.2262
4904.00,1.2104
4903.00,1.1943
4902.00,1.1777
4901.00,1.1607
4900.00,1.1432
4899.00,1.1254
4898.00,1.1073
4897.00,1.0890
4896.00,1.0706
4895.00,1.0520
4894.00,1.0335
4893.00,1.0150
4892.00,0.9966
4891.00,0.9783
4890.00,0.9603
4889.00,0.9426
4888.00,0.9251
4887.00,0.9082
4886.00,0.8918
4885.00,0.8761
4884.00,0.8611
4883.00,0.8469
4882.00,0.8335
4881.00,0.8212
4880.00,0.8098
4879.00,0.7995
4878.00,0.7903
4877.00,0.7823
4876.00,0.7755
4875.00,0.7699
4874.00,0.7656
4873.00,0.7627
4872.00,0.7611
4871.00,0.7608
4870.00,0.7619
4869.00,0.7644
4868.00,0.7681
4867.00,0.7730
4866.00,0.7791
4865.00,0.7864
4864.00,0.7948
4863.00,0.8042
4862.00,0.8145
4861.00,0.8258
4860.00,0.8379
4859.00,0.8507
4858.00,0.8643
4857.00,0.8785
4856.00,0.8931
4855.00,0.9083
4854.00,0.9239
4853.00,0.9399
4852.00,0.9562
4851.00,0.9728
4850.00,0.9895
4849.00,1.0063
4848.00,1.0232
4847.00,1.0401
4846.00,1.0572
4845.00,1.0744
4844.00,1.0915
4843.00,1.1084
4842.00,1.1252
4841.00,1.1420
4840.00,1.1585
4839.00,1.1748
4838.00,1.1907
4837.00,1.2063
4836.00,1.2214
4835.00,1.2363
4834.00,1.2510
4833.00,1.2657
4832.00,1.2800
4831.00,1.2940
4830.00,1.3073
4829.00,1.3202
4828.00,1.3327
4827.00,1.3448
4826.00,1.3565
4825.00,1.3679
4824.00,1.3787
4823.00,1.3891
4822.00,1.3992
4821.00,1.4090
4820.00,1.4184
4819.00,1.4270
4818.00,1.4349
4817.00,1.4421
4816.00,1.4489
4815.00,1.4556
4814.00,1.4620
4813.00,1.4682
4812.00,1.4737
4811.00,1.4784
4810.00,1.4824
4809.00,1.4860
4808.00,1.4892
4807.00,1.4920
4806.00,1.4943
4805.00,1.4961
4804.00,1.4973
4803.00,1.4980
4802.00,1.4984
4801.00,1.4985
4800.00,1.4984
4799.00,1.4978
4798.00,1.4966
4797.00,1.4945
4796.00,1.4918
4795.00,1.4883
4794.00,1.4844
4793.00,1.4802
4792.00,1.4757
4791.00,1.4711
4790.00,1.4660
4789.00,1.4604
4788.00,1.4544
4787.00,1.4478
4786.00,1.4405
4785.00,1.4328
4784.00,1.4245
4783.00,1.4157
4782.00,1.4063
4781.00,1.3963
4780.00,1.3857
4779.00,1.3745
4778.00,1.3627
4777.00,1.3505
4776.00,1.3377
4775.00,1.3244
4774.00,1.3107
4773.00,1.2964
4772.00,1.2816
4771.00,1.2663
4770.00,1.2504
4769.00,1.2340
4768.00,1.2170
4767.00,1.1997
4766.00,1.1820
4765.00,1.1641
4764.00,1.1457
4763.00,1.1269
4762.00,1.1078
4761.00,1.0884
4760.00,1.0690
4759.00,1.0496
4758.00,1.0302
4757.00,1.0109
4756.00,0.9917
4755.00,0.9727
4754.00,0.9541
4753.00,0.9359
4752.00,0.9183
4751.00,0.9013
4750.00,0.8850
4749.00,0.8695
4748.00,0.8548
4747.00,0.8412
4746.00,0.8286
4745.00,0.8171
4744.00,0.8067
4743.00,0.7976
4742.00,0.7897
4741.00,0.7831
4740.00,0.7780
4739.00,0.7743
4738.00,0.7720
4737.00,0.7712
4736.00,0.7717
4735.00,0.7737
4734.00,0.7770
4733.00,0.7818
4732.00,0.7879
4731.00,0.7953
4730.00,0.8038
4729.00,0.8134
4728.00,0.8241
4727.00,0.8359
4726.00,0.8486
4725.00,0.8621
4724.00,0.8764
4723.00,0.8913
4722.00,0.9067
4721.00,0.9227
4720.00,0.9391
4719.00,0.9559
4718.00,0.9731
4717.00,0.9905
4716.00,1.0082
4715.00,1.0260
4714.00,1.0439
4713.00,1.0619
4712.00,1.0798
4711.00,1.0978
4710.00,1.1157
4709.00,1.1336
4708.00,1.1513
4707.00,1.1689
4706.00,1.1860
4705.00,1.2028
4704.00,1.2192
4703.00,1.2353
4702.00,1.2514
4701.00,1.2673
4700.00,1.2829
4699.00,1.2980
4698.00,1.3126
4697.00,1.3269
4696.00,1.3408
4695.00,1.3544
4694.00,1.3677
4693.00,1.3805
4692.00,1.3927
4691.00,1.4043
4690.00,1.4154
4689.00,1.4260
4688.00,1.4362
4687.00,1.4457
4686.00,1.4548
4685.00,1.4636
4684.00,1.4721
4683.00,1.4803
4682.00,1.4880
4681.00,1.4950
4680.00,1.5013
4679.00,1.5068
4678.00,1.5118
4677.00,1.5164
4676.00,1.5206
4675.00,1.5244
4674.00,1.5279
4673.00,1.5309
4672.00,1.5334
4671.00,1.5353
4670.00,1.5367
4669.00,1.5374
4668.00,1.5374
4667.00,1.5370
4666.00,1.5361
4665.00,1.5349
4664.00,1.5336
4663.00,1.5319
4662.00,1.5299
4661.00,1.5274
4660.00,1.5244
4659.00,1.5207
4658.00,1.5164
4657.00,1.5116
4656.00,1.5064
4655.00,1.5008
4654.00,1.4948
4653.00,1.4881
4652.00,1.4808
4651.00,1.4728
4650.00,1.4645
4649.00,1.4558
4648.00,1.4467
4647.00,1.4370
4646.00,1.4267
4645.00,1.4157
4644.00,1.4040
4643.00,1.3917
4642.00,1.3789
4641.00,1.3655
4640.00,1.3516
4639.00,1.3373
4638.00,1.3224
4637.00,1.3070
4636.00,1.2909
4635.00,1.2744
4634.00,1.2575
4633.00,1.2400
4632.00,1.2221
4631.00,1.2035
4630.00,1.1845
4629.00,1.1651
4628.00,1.1453
4627.00,1.1254
4626.00,1.1053
4625.00,1.0849
4624.00,1.0644
4623.00,1.0439
4622.00,1.0235
4621.00,1.0033
4620.00,0.9834
4619.00,0.9641
4618.00,0.9453
4617.00,0.9270
4616.00,0.9094
4615.00,0.8925
4614.00,0.8764
4613.00,0.8612
4612.00,0.8470
4611.00,0.8340
4610.00,0.8222
4609.00,0.8117
4608.00,0.8025
4607.00,0.7946
4606.00,0.7881
4605.00,0.7830
4604.00,0.7794
4603.00,0.7772
4602.00,0.7766
4601.00,0.7775
4600.00,0.7799
4599.00,0.7838
4598.00,0.7891
4597.00,0.7958
4596.00,0.8039
4595.00,0.8132
4594.00,0.8238
4593.00,0.8354
4592.00,0.8479
4591.00,0.8614
4590.00,0.8756
4589.00,0.8907
4588.00,0.9064
4587.00,0.9228
4586.00,0.9398
4585.00,0.9572
4584.00,0.9750
4583.00,0.9930
4582.00,1.0113
4581.00,1.0297
4580.00,1.0483
4579.00,1.0669
4578.00,1.0856
4577.00,1.1043
4576.00,1.1228
4575.00,1.1413
4574.00,1.1596
4573.00,1.1778
4572.00,1.1957
4571.00,1.2135
4570.00,1.2310
4569.00,1.2482
4568.00,1.2652
4567.00,1.2818
4566.00,1.2980
4565.00,1.3140
4564.00,1.3296
4563.00,1.3448
4562.00,1.3596
4561.00,1.3738
4560.00,1.3874
4559.00,1.4005
4558.00,1.4130
4557.00,1.4253
4556.00,1.4372
4555.00,1.4487
4554.00,1.4597
4553.00,1.4700
4552.00,1.4798
4551.00,1.4891
4550.00,1.4980
4549.00,1.5066
4548.00,1.5146
4547.00,1.5219
4546.00,1.5284
4545.00,1.5345
4544.00,1.5403
4543.00,1.5457
4542.00,1.5505
4541.00,1.5546
4540.00,1.5580
4539.00,1.5611
4538.00,1.5640
4537.00,1.5670
4536.00,1.5696
4535.00,1.5714
4534.00,1.5723
4533.00,1.5722
4532.00,1.5715
4531.00,1.5706
4530.00,1.5697
4529.00,1.5688
4528.00,1.5674
4527.00,1.5650
4526.00,1.5617
4525.00,1.5576
4524.00,1.5530
4523.00,1.5484
4522.00,1.5435
4521.00,1.5383
4520.00,1.5327
4519.00,1.5264
4518.00,1.5195
4517.00,1.5119
4516.00,1.5036
4515.00,1.4949
4514.00,1.4857
4513.00,1.4761
4512.00,1.4658
4511.00,1.4547
4510.00,1.4430
4509.00,1.4308
4508.00,1.4182
4507.00,1.4051
4506.00,1.3915
4505.00,1.3773
4504.00,1.3624
4503.00,1.3471
4502.00,1.3311
4501.00,1.3143
4500.00,1.2968
4499.00,1.2787
4498.00,1.2600
4497.00,1.2409
4496.00,1.2213
4495.00,1.2013
4494.00,1.1808
4493.00,1.1598
4492.00,1.1386
4491.00,1.1171
4490.00,1.0956
4489.00,1.0742
4488.00,1.0527
4487.00,1.0314
4486.00,1.0102
4485.00,0.9893
4484.00,0.9687
4483.00,0.9487
4482.00,0.9294
4481.00,0.9109
4480.00,0.8933
4479.00,0.8767
4478.00,0.8612
4477.00,0.8469
4476.00,0.8338
4475.00,0.8221
4474.00,0.8119
4473.00,0.8033
4472.00,0.7962
4471.00,0.7907
4470.00,0.7868
4469.00,0.7846
4468.00,0.7840
4467.00,0.7853
4466.00,0.7882
4465.00,0.7928
4464.00,0.7989
4463.00,0.8065
4462.00,0.8155
4461.00,0.8259
4460.00,0.8375
4459.00,0.8503
4458.00,0.8642
4457.00,0.8790
4456.00,0.8948
4455.00,0.9113
4454.00,0.9287
4453.00,0.9466
4452.00,0.9651
4451.00,0.9839
4450.00,1.0031
4449.00,1.0225
4448.00,1.0420
4447.00,1.0618
4446.00,1.0816
4445.00,1.1015
4444.00,1.1214
4443.00,1.1412
4442.00,1.1609
4441.00,1.1806
4440.00,1.2000
4439.00,1.2191
4438.00,1.2380
4437.00,1.2566
4436.00,1.2749
4435.00,1.2930
4434.00,1.3107
4433.00,1.3282
4432.00,1.3452
4431.00,1.3617
4430.00,1.3776
4429.00,1.3928
4428.00,1.4074
4427.00,1.4217
4426.00,1.4358
4425.00,1.4496
4424.00,1.4629
4423.00,1.4755
4422.00,1.4874
4421.00,1.4987
4420.00,1.5094
4419.00,1.5197
4418.00,1.5295
4417.00,1.5388
4416.00,1.5476
4415.00,1.5556
4414.00,1.5632
4413.00,1.5704
4412.00,1.5772
4411.00,1.5835
4410.00,1.5891
4409.00,1.5937
4408.00,1.5976
4407.00,1.6012
4406.00,1.6048
4405.00,1.6084
4404.00,1.6115
4403.00,1.6137
4402.00,1.6152
4401.00,1.6160
4400.00,1.6167
4399.00,1.6173
4398.00,1.6174
4397.00,1.6168
4396.00,1.6154
4395.00,1.6134
4394.00,1.6111
4393.00,1.6085
4392.00,1.6056
4391.00,1.6022
4390.00,1.5982
4389.00,1.5936
4388.00,1.5885
4387.00,1.5828
4386.00,1.5768
4385.00,1.5704
4384.00,1.5636
4383.00,1.5565
4382.00,1.5489
4381.00,1.5407
4380.00,1.5319
4379.00,1.5228
4378.00,1.5135
4377.00,1.5038
4376.00,1.4936
4375.00,1.4827
4374.00,1.4711
4373.00,1.4589
4372.00,1.4462
4371.00,1.4332
4370.00,1.4197
4369.00,1.4058
4368.00,1.3913
4367.00,1.3763
4366.00,1.3607
4365.00,1.3446
4364.00,1.3278
4363.00,1.3105
4362.00,1.2927
4361.00,1.2743
4360.00,1.2556
4359.00,1.2365
4358.00,1.2170
4357.00,1.1972
4356.00,1.1771
4355.00,1.1567
4354.00,1.1362
4353.00,1.1157
4352.00,1.0954
4351.00,1.0753
4350.00,1.0556
4349.00,1.0363
4348.00,1.0174
4347.00,0.9989
4346.00,0.9810
4345.00,0.9637
4344.00,0.9471
4343.00,0.9313
4342.00,0.9165
4341.00,0.9028
4340.00,0.8902
4339.00,0.8790
4338.00,0.8691
4337.00,0.8607
4336.00,0.8538
4335.00,0.8485
4334.00,0.8449
4333.00,0.8430
4332.00,0.8429
4331.00,0.8445
4330.00,0.8480
4329.00,0.8533
4328.00,0.8602
4327.00,0.8687
4326.00,0.8787
4325.00,0.8901
4324.00,0.9028
4323.00,0.9167
4322.00,0.9316
4321.00,0.9475
4320.00,0.9641
4319.00,0.9814
4318.00,0.9993
4317.00,1.0178
4316.00,1.0366
4315.00,1.0558
4314.00,1.0752
4313.00,1.0949
4312.00,1.1147
4311.00,1.1345
4310.00,1.1543
4309.00,1.1740
4308.00,1.1936
4307.00,1.2131
4306.00,1.2326
4305.00,1.2519
4304.00,1.2710
4303.00,1.2898
4302.00,1.3083
4301.00,1.3264
4300.00,1.3442
4299.00,1.3617
4298.00,1.3789
4297.00,1.3957
4296.00,1.4119
4295.00,1.4276
4294.00,1.4428
4293.00,1.4574
4292.00,1.4716
4291.00,1.4853
4290.00,1.4989
4289.00,1.5121
4288.00,1.5250
4287.00,1.5373
4286.00,1.5489
4285.00,1.5597
4284.00,1.5697
4283.00,1.5792
4282.00,1.5881
4281.00,1.5966
4280.00,1.6045
4279.00,1.6118
4278.00,1.6185
4277.00,1.6246
4276.00,1.6302
4275.00,1.6356
4274.00,1.6409
4273.00,1.6458
4272.00,1.6503
4271.00,1.6540
4270.00,1.6571
4269.00,1.6595
4268.00,1.6615
4267.00,1.6631
4266.00,1.6645
4265.00,1.6656
4264.00,1.6663
4263.00,1.6663
4262.00,1.6658
4261.00,1.6648
4260.00,1.6633
4259.00,1.6614
4258.00,1.6590
4257.00,1.6561
4256.00,1.6526
4255.00,1.6487
4254.00,1.6444
4253.00,1.6396
4252.00,1.6345
4251.00,1.6289
4250.00,1.6230
4249.00,1.6165
4248.00,1.6092
4247.00,1.6012
4246.00,1.5925
4245.00,1.5833
4244.00,1.5737
4243.00,1.5636
4242.00,1.5529
4241.00,1.5415
4240.00,1.5295
4239.00,1.5169
4238.00,1.5037
4237.00,1.4900
4236.00,1.4757
4235.00,1.4608
4234.00,1.4452
4233.00,1.4289
4232.00,1.4121
4231.00,1.3948
4230.00,1.3770
4229.00,1.3587
4228.00,1.3397
4227.00,1.3201
4226.00,1.2999
4225.00,1.2794
4224.00,1.2585
4223.00,1.2374
4222.00,1.2160
4221.00,1.1944
4220.00,1.1725
4219.00,1.1504
4218.00,1.1284
4217.00,1.1064
4216.00,1.0846
4215.00,1.0631
4214.00,1.0420
4213.00,1.0215
4212.00,1.0015
4211.00,0.9823
4210.00,0.9640
4209.00,0.9466
4208.00,0.9304
4207.00,0.9153
4206.00,0.9017
4205.00,0.8895
4204.00,0.8789
4203.00,0.8699
4202.00,0.8626
4201.00,0.8571
4200.00,0.8535
4199.00,0.8517
4198.00,0.8518
4197.00,0.8538
4196.00,0.8575
4195.00,0.8631
4194.00,0.8704
4193.00,0.8794
4192.00,0.8900
4191.00,0.9019
4190.00,0.9150
4189.00,0.9294
4188.00,0.9448
4187.00,0.9611
4186.00,0.9784
4185.00,0.9963
4184.00,1.0147
4183.00,1.0336
4182.00,1.0531
4181.00,1.0729
4180.00,1.0932
4179.00,1.1138
4178.00,1.1344
4177.00,1.1550
4176.00,1.1755
4175.00,1.1961
4174.00,1.2166
4173.00,1.2371
4172.00,1.2574
4171.00,1.2776
4170.00,1.2975
4169.00,1.3171
4168.00,1.3364
4167.00,1.3553
4166.00,1.3736
4165.00,1.3915
4164.00,1.4090
4163.00,1.4262
4162.00,1.4432
4161.00,1.4599
4160.00,1.4762
4159.00,1.4920
4158.00,1.5070
4157.00,1.5213
4156.00,1.5350
4155.00,1.5482
4154.00,1.5612
4153.00,1.5737
4152.00,1.5858
4151.00,1.5972
4150.00,1.6078
4149.00,1.6177
4148.00,1.6270
4147.00,1.6358
4146.00,1.6443
4145.00,1.6523
4144.00,1.6596
4143.00,1.6665
4142.00,1.6728
4141.00,1.6787
4140.00,1.6843
4139.00,1.6893
4138.00,1.6937
4137.00,1.6976
4136.00,1.7010
4135.00,1.7039
4134.00,1.7065
4133.00,1.7087
4132.00,1.7102
4131.00,1.7111
4130.00,1.7113
4129.00,1.7108
4128.00,1.7100
4127.00,1.7087
4126.00,1.7072
4125.00,1.7054
4124.00,1.7030
4123.00,1.7000
4122.00,1.6965
4121.00,1.6926
4120.00,1.6885
4119.00,1.6839
4118.00,1.6787
4117.00,1.6729
4116.00,1.6663
4115.00,1.6593
4114.00,1.6518
4113.00,1.6438
4112.00,1.6355
4111.00,1.6266
4110.00,1.6172
4109.00,1.6071
4108.00,1.5962
4107.00,1.5847
4106.00,1.5724
4105.00,1.5596
4104.00,1.5463
4103.00,1.5325
4102.00,1.5181
4101.00,1.5029
4100.00,1.4869
4099.00,1.4701
4098.00,1.4527
4097.00,1.4346
4096.00,1.4159
4095.00,1.3966
4094.00,1.3769
4093.00,1.3567
4092.00,1.3360
4091.00,1.3146
4090.00,1.2926
4089.00,1.2704
4088.00,1.2478
4087.00,1.2251
4086.00,1.2021
4085.00,1.1788
4084.00,1.1554
4083.00,1.1320
4082.00,1.1087
4081.00,1.0856
4080.00,1.0629
4079.00,1.0406
4078.00,1.0188
4077.00,0.9977
4076.00,0.9776
4075.00,0.9586
4074.00,0.9408
4073.00,0.9243
4072.00,0.9091
4071.00,0.8954
4070.00,0.8834
4069.00,0.8731
4068.00,0.8647
4067.00,0.8583
4066.00,0.8539
4065.00,0.8516
4064.00,0.8514
4063.00,0.8533
4062.00,0.8572
4061.00,0.8632
4060.00,0.8711
4059.00,0.8808
4058.00,0.8922
4057.00,0.9052
4056.00,0.9195
4055.00,0.9353
4054.00,0.9522
4053.00,0.9701
4052.00,0.9890
4051.00,1.0087
4050.00,1.0290
4049.00,1.0498
4048.00,1.0710
4047.00,1.0925
4046.00,1.1142
4045.00,1.1362
4044.00,1.1583
4043.00,1.1805
4042.00,1.2028
4041.00,1.2249
4040.00,1.2469
4039.00,1.2686
4038.00,1.2901
4037.00,1.3112
4036.00,1.3320
4035.00,1.3526
4034.00,1.3729
4033.00,1.3930
4032.00,1.4128
4031.00,1.4321
4030.00,1.4510
4029.00,1.4694
4028.00,1.4873
4027.00,1.5047
4026.00,1.5216
4025.00,1.5378
4024.00,1.5534
4023.00,1.5684
4022.00,1.5829
4021.00,1.5968
4020.00,1.6103
4019.00,1.6233
4018.00,1.6357
4017.00,1.6474
4016.00,1.6586
4015.00,1.6691
4014.00,1.6790
4013.00,1.6880
4012.00,1.6963
4011.00,1.7038
4010.00,1.7109
4009.00,1.7178
4008.00,1.7245
4007.00,1.7308
4006.00,1.7365
4005.00,1.7416
4004.00,1.7462
4003.00,1.7504
4002.00,1.7541
4001.00,1.7571
4000.00,1.7595
3999.00,1.7613
3998.00,1.7626
3997.00,1.7632
3996.00,1.7633
3995.00,1.7629
3994.00,1.7623
3993.00,1.7614
3992.00,1.7603
3991.00,1.7587
3990.00,1.7565
3989.00,1.7536
3988.00,1.7501
3987.00,1.7463
3986.00,1.7420
3985.00,1.7373
3984.00,1.7320
3983.00,1.7262
3982.00,1.7197
3981.00,1.7127
3980.00,1.7051
3979.00,1.6970
3978.00,1.6885
3977.00,1.6795
3976.00,1.6700
3975.00,1.6599
3974.00,1.6493
3973.00,1.6379
3972.00,1.6257
3971.00,1.6128
3970.00,1.5992
3969.00,1.5851
3968.00,1.5703
3967.00,1.5549
3966.00,1.5390
3965.00,1.5225
3964.00,1.5054
3963.00,1.4875
3962.00,1.4687
3961.00,1.4490
3960.00,1.4288
3959.00,1.4081
3958.00,1.3870
3957.00,1.3654
3956.00,1.3431
3955.00,1.3203
3954.00,1.2969
3953.00,1.2731
3952.00,1.2491
3951.00,1.2248
3950.00,1.2002
3949.00,1.1755
3948.00,1.1507
3947.00,1.1261
3946.00,1.1019
3945.00,1.0781
3944.00,1.0548
3943.00,1.0320
3942.00,1.0101
3941.00,0.9892
3940.00,0.9697
3939.00,0.9515
3938.00,0.9347
3937.00,0.9197
3936.00,0.9065
3935.00,0.8953
3934.00,0.8861
3933.00,0.8788
3932.00,0.8734
3931.00,0.8702
3930.00,0.8691
3929.00,0.8703
3928.00,0.8737
3927.00,0.8791
3926.00,0.8866
3925.00,0.8960
3924.00,0.9074
3923.00,0.9204
3922.00,0.9349
3921.00,0.9508
3920.00,0.9679
3919.00,0.9863
3918.00,1.0060
3917.00,1.0271
3916.00,1.0491
3915.00,1.0718
3914.00,1.0947
3913.00,1.1177
3912.00,1.1410
3911.00,1.1646
3910.00,1.1884
3909.00,1.2119
3908.00,1.2350
3907.00,1.2575
3906.00,1.2798
3905.00,1.3024
3904.00,1.3256
3903.00,1.3494
3902.00,1.3732
3901.00,1.3967
3900.00,1.4196
3899.00,1.4421
3898.00,1.4640
3897.00,1.4849
3896.00,1.5047
3895.00,1.5231
3894.00,1.5403
3893.00,1.5571
3892.00,1.5741
3891.00,1.5916
3890.00,1.6091
3889.00,1.6255
3888.00,1.6401
3887.00,1.6534
3886.00,1.6663
3885.00,1.6793
3884.00,1.6922
3883.00,1.7043
3882.00,1.7151
3881.00,1.7250
3880.00,1.7344
3879.00,1.7436
3878.00,1.7521
3877.00,1.7599
3876.00,1.7667
3875.00,1.7731
3874.00,1.7792
3873.00,1.7849
3872.00,1.7901
3871.00,1.7947
3870.00,1.7988
3869.00,1.8028
3868.00,1.8066
3867.00,1.8093
3866.00,1.8106
3865.00,1.8108
3864.00,1.8108
3863.00,1.8111
3862.00,1.8112
3861.00,1.8107
3860.00,1.8093
3859.00,1.8074
3858.00,1.8052
3857.00,1.8028
3856.00,1.8000
3855.00,1.7966
3854.00,1.7920
3853.00,1.7862
3852.00,1.7798
3851.00,1.7736
3850.00,1.7672
3849.00,1.7600
3848.00,1.7520
3847.00,1.7437
3846.00,1.7351
3845.00,1.7261
3844.00,1.7164
3843.00,1.7057
3842.00,1.6940
3841.00,1.6819
3840.00,1.6693
3839.00,1.6564
3838.00,1.6433
3837.00,1.6298
3836.00,1.6159
3835.00,1.6012
3834.00,1.5852
3833.00,1.5680
3832.00,1.5499
3831.00,1.5314
3830.00,1.5126
3829.00,1.4932
3828.00,1.4730
3827.00,1.4517
3826.00,1.4296
3825.00,1.4073
3824.00,1.3847
3823.00,1.3610
3822.00,1.3350
3821.00,1.3069
3820.00,1.2785
3819.00,1.2511
3818.00,1.2243
3817.00,1.1966
3816.00,1.1675
3815.00,1.1381
3814.00,1.1100
3813.00,1.0833
3812.00,1.0575
3811.00,1.0326
3810.00,1.0092
3809.00,0.9872
3808.00,0.9661
3807.00,0.9455
3806.00,0.9263
3805.00,0.9098
3804.00,0.8965
3803.00,0.8857
3802.00,0.8767
3801.00,0.8696
3800.00,0.8649
3799.00,0.8629
3798.00,0.8637
3797.00,0.8671
3796.00,0.8732
3795.00,0.8819
3794.00,0.8929
3793.00,0.9059
3792.00,0.9210
3791.00,0.9379
3790.00,0.9565
3789.00,0.9763
3788.00,0.9973
3787.00,1.0194
3786.00,1.0424
3785.00,1.0664
3784.00,1.0911
3783.00,1.1161
3782.00,1.1410
3781.00,1.1659
3780.00,1.1914
3779.00,1.2177
3778.00,1.2445
3777.00,1.2711
3776.00,1.2971
3775.00,1.3223
3774.00,1.3466
3773.00,1.3703
3772.00,1.3935
3771.00,1.4166
3770.00,1.4401
3769.00,1.4640
3768.00,1.4877
3767.00,1.5104
3766.00,1.5321
3765.00,1.5533
3764.00,1.5740
3763.00,1.5937
3762.00,1.6124
3761.00,1.6302
3760.00,1.6475
3759.00,1.6644
3758.00,1.6810
3757.00,1.6969
3756.00,1.7117
3755.00,1.7252
3754.00,1.7377
3753.00,1.7497
3752.00,1.7621
3751.00,1.7749
3750.00,1.7880
3749.00,1.8004
3748.00,1.8110
3747.00,1.8195
3746.00,1.8268
3745.00,1.8343
3744.00,1.8427
3743.00,1.8513
3742.00,1.8589
3741.00,1.8653
3740.00,1.8704
3739.00,1.8752
3738.00,1.8802
3737.00,1.8852
3736.00,1.8900
3735.00,1.8940
3734.00,1.8976
3733.00,1.9005
3732.00,1.9024
3731.00,1.9039
3730.00,1.9037
3729.00,1.9039
3728.00,1.9003
3727.00,1.9009
3726.00,1.8874
3725.00,1.8688
3724.00,1.8687
3723.00,1.8628
3722.00,1.8589
3721.00,1.8532
3720.00,1.8477
3719.00,1.8410
3718.00,1.8337
3717.00,1.8257
3716.00,1.8172
3715.00,1.8083
3714.00,1.7988
3713.00,1.7885
3712.00,1.7773
3711.00,1.7650
3710.00,1.7525
3709.00,1.7389
3708.00,1.7257
3707.00,1.7095
3706.00,1.6979
3705.00,1.6889
3704.00,1.6718
3703.00,1.6538
3702.00,1.6332
3701.00,1.6121
3700.00,1.5900
3699.00,1.5676
3698.00,1.5447
3697.00,1.5211
3696.00,1.4968
3695.00,1.4724
3694.00,1.4480
3693.00,1.4236
3692.00,1.3990
3691.00,1.3738
3690.00,1.3481
3689.00,1.3213
3688.00,1.2944
3687.00,1.2682
3686.00,1.2438
3685.00,1.2208
3684.00,1.1986
3683.00,1.1775
3682.00,1.1575
3681.00,1.1390
3680.00,1.1219
3679.00,1.1068
3678.00,1.0938
3677.00,1.0826
3676.00,1.0729
3675.00,1.0645
3674.00,1.0585
3673.00,1.0553
3672.00,1.0552
3671.00,1.0580
3670.00,1.0639
3669.00,1.0724
3668.00,1.0827
3667.00,1.0946
3666.00,1.1079
3665.00,1.1230
3664.00,1.1402
3663.00,1.1591
3662.00,1.1794
3661.00,1.2006
3660.00,1.2222
3659.00,1.2443
3658.00,1.2669
3657.00,1.2907
3656.00,1.3156
3655.00,1.3409
3654.00,1.3652
3653.00,1.3878
3652.00,1.4093
3651.00,1.4311
3650.00,1.4543
3649.00,1.4793
3648.00,1.5052
3647.00,1.5307
3646.00,1.5547
3645.00,1.5768
3644.00,1.5975
3643.00,1.6178
3642.00,1.6379
3641.00,1.6578
3640.00,1.6773
3639.00,1.6961
3638.00,1.7142
3637.00,1.7318
3636.00,1.7490
3635.00,1.7659
3634.00,1.7821
3633.00,1.7973
3632.00,1.8115
3631.00,1.8248
3630.00,1.8375
3629.00,1.8503
3628.00,1.8640
3627.00,1.8777
3626.00,1.8904
3625.00,1.9016
3624.00,1.9113
3623.00,1.9200
3622.00,1.9280
3621.00,1.9358
3620.00,1.9427
3619.00,1.9506
3618.00,1.9554
3617.00,1.9599
3616.00,1.9677
3615.00,1.9731
3614.00,1.9782
3613.00,1.9823
3612.00,1.9867
3611.00,1.9911
3610.00,1.9956
3609.00,2.0000
3608.00,2.0043
3607.00,2.0085
3606.00,2.0123
3605.00,2.0154
3604.00,2.0178
3603.00,2.0194
3602.00,2.0205
3601.00,2.0210
3600.00,2.0216
3599.00,2.0216
3598.00,2.0221
3597.00,2.0206
3596.00,2.0238
3595.00,2.0277
3594.00,2.0262
3593.00,2.0260
3592.00,2.0239
3591.00,2.0213
3590.00,2.0178
3589.00,2.0140
3588.00,2.0102
3587.00,2.0061
3586.00,2.0015
3585.00,1.9966
3584.00,1.9914
3583.00,1.9858
3582.00,1.9797
3581.00,1.9730
3580.00,1.9656
3579.00,1.9578
3578.00,1.9497
3577.00,1.9417
3576.00,1.9339
3575.00,1.9259
3574.00,1.9172
3573.00,1.9078
3572.00,1.8985
3571.00,1.8892
3570.00,1.8796
3569.00,1.8694
3568.00,1.8585
3567.00,1.8470
3566.00,1.8352
3565.00,1.8233
3564.00,1.8112
3563.00,1.7992
3562.00,1.7873
3561.00,1.7754
3560.00,1.7635
3559.00,1.7515
3558.00,1.7395
3557.00,1.7276
3556.00,1.7159
3555.00,1.7043
3554.00,1.6928
3553.00,1.6811
3552.00,1.6696
3551.00,1.6586
3550.00,1.6483
3549.00,1.6388
3548.00,1.6297
3547.00,1.6209
3546.00,1.6124
3545.00,1.6045
3544.00,1.5975
3543.00,1.5914
3542.00,1.5859
3541.00,1.5810
3540.00,1.5769
3539.00,1.5735
3538.00,1.5709
3537.00,1.5689
3536.00,1.5677
3535.00,1.5674
3534.00,1.5679
3533.00,1.5693
3532.00,1.5714
3531.00,1.5742
3530.00,1.5778
3529.00,1.5821
3528.00,1.5870
3527.00,1.5925
3526.00,1.5985
3525.00,1.6049
3524.00,1.6120
3523.00,1.6196
3522.00,1.6278
3521.00,1.6365
3520.00,1.6455
3519.00,1.6549
3518.00,1.6644
3517.00,1.6742
3516.00,1.6843
3515.00,1.6944
3514.00,1.7046
3513.00,1.7149
3512.00,1.7255
3511.00,1.7366
3510.00,1.7481
3509.00,1.7595
3508.00,1.7707
3507.00,1.7817
3506.00,1.7926
3505.00,1.8035
3504.00,1.8147
3503.00,1.8261
3502.00,1.8376
3501.00,1.8490
3500.00,1.8602
3499.00,1.8712
3498.00,1.8819
3497.00,1.8922
3496.00,1.9022
3495.00,1.9125
3494.00,1.9232
3493.00,1.9341
3492.00,1.9447
3491.00,1.9549
3490.00,1.9646
3489.00,1.9743
3488.00,1.9842
3487.00,1.9940
3486.00,2.0032
3485.00,2.0116
3484.00,2.0195
3483.00,2.0272
3482.00,2.0347
3481.00,2.0420
3480.00,2.0487
3479.00,2.0550
3478.00,2.0610
3477.00,2.0666
3476.00,2.0719
3475.00,2.0770
3474.00,2.0818
3473.00,2.0868
3472.00,2.0922
3471.00,2.0976
3470.00,2.1025
3469.00,2.1064
3468.00,2.1093
3467.00,2.1115
3466.00,2.1131
3465.00,2.1143
3464.00,2.1156
3463.00,2.1170
3462.00,2.1186
3461.00,2.1201
3460.00,2.1211
3459.00,2.1216
3458.00,2.1212
3457.00,2.1202
3456.00,2.1190
3455.00,2.1176
3454.00,2.1160
3453.00,2.1141
3452.00,2.1118
3451.00,2.1088
3450.00,2.1051
3449.00,2.1010
3448.00,2.0968
3447.00,2.0924
3446.00,2.0873
3445.00,2.0815
3444.00,2.0750
3443.00,2.0683
3442.00,2.0615
3441.00,2.0545
3440.00,2.0473
3439.00,2.0397
3438.00,2.0316
3437.00,2.0233
3436.00,2.0147
3435.00,2.0057
3434.00,1.9963
3433.00,1.9865
3432.00,1.9764
3431.00,1.9663
3430.00,1.9559
3429.00,1.9450
3428.00,1.9336
3427.00,1.9219
3426.00,1.9102
3425.00,1.8985
3424.00,1.8868
3423.00,1.8748
3422.00,1.8627
3421.00,1.8506
3420.00,1.8390
3419.00,1.8280
3418.00,1.8176
3417.00,1.8074
3416.00,1.7972
3415.00,1.7871
3414.00,1.7770
3413.00,1.7673
3412.00,1.7583
3411.00,1.7499
3410.00,1.7418
3409.00,1.7334
3408.00,1.7247
3407.00,1.7157
3406.00,1.7065
3405.00,1.6968
3404.00,1.6867
3403.00,1.6762
3402.00,1.6655
3401.00,1.6546
3400.00,1.6433
3399.00,1.6314
3398.00,1.6191
3397.00,1.6070
3396.00,1.5954
3395.00,1.5845
3394.00,1.5743
3393.00,1.5650
3392.00,1.5566
3391.00,1.5494
3390.00,1.5435
3389.00,1.5389
3388.00,1.5358
3387.00,1.5341
3386.00,1.5337
3385.00,1.5347
3384.00,1.5371
3383.00,1.5408
3382.00,1.5457
3381.00,1.5520
3380.00,1.5595
3379.00,1.5681
3378.00,1.5776
3377.00,1.5879
3376.00,1.5994
3375.00,1.6120
3374.00,1.6255
3373.00,1.6397
3372.00,1.6542
3371.00,1.6688
3370.00,1.6838
3369.00,1.6991
3368.00,1.7149
3367.00,1.7312
3366.00,1.7477
3365.00,1.7643
3364.00,1.7807
3363.00,1.7969
3362.00,1.8128
3361.00,1.8286
3360.00,1.8442
3359.00,1.8595
3358.00,1.8745
3357.00,1.8896
3356.00,1.9045
3355.00,1.9190
3354.00,1.9328
3353.00,1.9459
3352.00,1.9585
3351.00,1.9709
3350.00,1.9831
3349.00,1.9950
3348.00,2.0063
3347.00,2.0169
3346.00,2.0269
3345.00,2.0362
3344.00,2.0449
3343.00,2.0534
3342.00,2.0616
3341.00,2.0696
3340.00,2.0773
3339.00,2.0845
3338.00,2.0913
3337.00,2.0978
3336.00,2.1038
3335.00,2.1087
3334.00,2.1126
3333.00,2.1160
3332.00,2.1195
3331.00,2.1231
3330.00,2.1263
3329.00,2.1284
3328.00,2.1299
3327.00,2.1315
3326.00,2.1334
3325.00,2.1351
3324.00,2.1357
3323.00,2.1353
3322.00,2.1343
3321.00,2.1329
3320.00,2.1314
3319.00,2.1297
3318.00,2.1278
3317.00,2.1252
3316.00,2.1214
3315.00,2.1166
3314.00,2.1115
3313.00,2.1067
3312.00,2.1018
3311.00,2.0963
3310.00,2.0900
3309.00,2.0834
3308.00,2.0765
3307.00,2.0691
3306.00,2.0610
3305.00,2.0523
3304.00,2.0432
3303.00,2.0336
3302.00,2.0236
3301.00,2.0132
3300.00,2.0022
3299.00,1.9905
3298.00,1.9782
3297.00,1.9655
3296.00,1.9526
3295.00,1.9394
3294.00,1.9257
3293.00,1.9115
3292.00,1.8966
3291.00,1.8812
3290.00,1.8651
3289.00,1.8487
3288.00,1.8321
3287.00,1.8151
3286.00,1.7977
3285.00,1.7799
3284.00,1.7619
3283.00,1.7439
3282.00,1.7259
3281.00,1.7079
3280.00,1.6900
3279.00,1.6721
3278.00,1.6546
3277.00,1.6373
3276.00,1.6204
3275.00,1.6039
3274.00,1.5880
3273.00,1.5729
3272.00,1.5588
3271.00,1.5455
3270.00,1.5333
3269.00,1.5222
3268.00,1.5122
3267.00,1.5035
3266.00,1.4960
3265.00,1.4900
3264.00,1.4855
3263.00,1.4826
3262.00,1.4811
3261.00,1.4811
3260.00,1.4826
3259.00,1.4857
3258.00,1.4903
3257.00,1.4962
3256.00,1.5035
3255.00,1.5120
3254.00,1.5216
3253.00,1.5323
3252.00,1.5440
3251.00,1.5567
3250.00,1.5701
3249.00,1.5843
3248.00,1.5991
3247.00,1.6145
3246.00,1.6306
3245.00,1.6474
3244.00,1.6646
3243.00,1.6822
3242.00,1.6998
3241.00,1.7174
3240.00,1.7351
3239.00,1.7530
3238.00,1.7708
3237.00,1.7884
3236.00,1.8059
3235.00,1.8232
3234.00,1.8403
3233.00,1.8573
3232.00,1.8743
3231.00,1.8913
3230.00,1.9081
3229.00,1.9244
3228.00,1.9397
3227.00,1.9542
3226.00,1.9681
3225.00,1.9817
3224.00,1.9952
3223.00,2.0085
3222.00,2.0215
3221.00,2.0343
3220.00,2.0468
3219.00,2.0590
3218.00,2.0705
3217.00,2.0812
3216.00,2.0910
3215.00,2.0999
3214.00,2.1083
3213.00,2.1163
3212.00,2.1243
3211.00,2.1321
3210.00,2.1398
3209.00,2.1470
3208.00,2.1535
3207.00,2.1592
3206.00,2.1642
3205.00,2.1688
3204.00,2.1731
3203.00,2.1770
3202.00,2.1808
3201.00,2.1843
3200.00,2.1874
3199.00,2.1896
3198.00,2.1911
3197.00,2.1924
3196.00,2.1938
3195.00,2.1952
3194.00,2.1960
3193.00,2.1961
3192.00,2.1954
3191.00,2.1938
3190.00,2.1916
3189.00,2.1893
3188.00,2.1877
3187.00,2.1866
3186.00,2.1852
3185.00,2.1830
3184.00,2.1798
3183.00,2.1759
3182.00,2.1713
3181.00,2.1661
3180.00,2.1604
3179.00,2.1546
3178.00,2.1488
3177.00,2.1427
3176.00,2.1361
3175.00,2.1288
3174.00,2.1209
3173.00,2.1125
3172.00,2.1035
3171.00,2.0943
3170.00,2.0847
3169.00,2.0745
3168.00,2.0637
3167.00,2.0519
3166.00,2.0395
3165.00,2.0268
3164.00,2.0138
3163.00,2.0006
3162.00,1.9869
3161.00,1.9727
3160.00,1.9579
3159.00,1.9425
3158.00,1.9264
3157.00,1.9097
3156.00,1.8924
3155.00,1.8748
3154.00,1.8570
3153.00,1.8392
3152.00,1.8213
3151.00,1.8033
3150.00,1.7850
3149.00,1.7665
3148.00,1.7478
3147.00,1.7292
3146.00,1.7108
3145.00,1.6930
3144.00,1.6759
3143.00,1.6595
3142.00,1.6437
3141.00,1.6286
3140.00,1.6144
3139.00,1.6013
3138.00,1.5895
3137.00,1.5790
3136.00,1.5698
3135.00,1.5622
3134.00,1.5560
3133.00,1.5514
3132.00,1.5486
3131.00,1.5477
3130.00,1.5485
3129.00,1.5511
3128.00,1.5552
3127.00,1.5609
3126.00,1.5682
3125.00,1.5770
3124.00,1.5871
3123.00,1.5984
3122.00,1.6108
3121.00,1.6243
3120.00,1.6390
3119.00,1.6547
3118.00,1.6714
3117.00,1.6887
3116.00,1.7066
3115.00,1.7249
3114.00,1.7436
3113.00,1.7626
3112.00,1.7819
3111.00,1.8013
3110.00,1.8209
3109.00,1.8404
3108.00,1.8598
3107.00,1.8788
3106.00,1.8974
3105.00,1.9157
3104.00,1.9339
3103.00,1.9519
3102.00,1.9698
3101.00,1.9874
3100.00,2.0046
3099.00,2.0211
3098.00,2.0371
3097.00,2.0528
3096.00,2.0683
3095.00,2.0833
3094.00,2.0973
3093.00,2.1103
3092.00,2.1232
3091.00,2.1362
3090.00,2.1490
3089.00,2.1610
3088.00,2.1717
3087.00,2.1814
3086.00,2.1907
3085.00,2.1999
3084.00,2.2087
3083.00,2.2168
3082.00,2.2242
3081.00,2.2311
3080.00,2.2376
3079.00,2.2436
3078.00,2.2489
3077.00,2.2536
3076.00,2.2576
3075.00,2.2609
3074.00,2.2634
3073.00,2.2654
3072.00,2.2673
3071.00,2.2690
3070.00,2.2704
3069.00,2.2715
3068.00,2.2720
3067.00,2.2719
3066.00,2.2709
3065.00,2.2688
3064.00,2.2658
3063.00,2.2621
3062.00,2.2584
3061.00,2.2547
3060.00,2.2507
3059.00,2.2459
3058.00,2.2402
3057.00,2.2335
3056.00,2.2262
3055.00,2.2180
3054.00,2.2092
3053.00,2.2000
3052.00,2.1902
3051.00,2.1796
3050.00,2.1679
3049.00,2.1555
3048.00,2.1428
3047.00,2.1297
3046.00,2.1157
3045.00,2.1007
3044.00,2.0846
3043.00,2.0676
3042.00,2.0495
3041.00,2.0304
3040.00,2.0105
3039.00,1.9904
3038.00,1.9700
3037.00,1.9493
3036.00,1.9285
3035.00,1.9074
3034.00,1.8861
3033.00,1.8644
3032.00,1.8423
3031.00,1.8204
3030.00,1.7993
3029.00,1.7793
3028.00,1.7606
3027.00,1.7432
3026.00,1.7272
3025.00,1.7131
3024.00,1.7010
3023.00,1.6912
3022.00,1.6837
3021.00,1.6788
3020.00,1.6766
3019.00,1.6772
3018.00,1.6807
3017.00,1.6872
3016.00,1.6968
3015.00,1.7093
3014.00,1.7247
3013.00,1.7426
3012.00,1.7630
3011.00,1.7855
3010.00,1.8100
3009.00,1.8360
3008.00,1.8634
3007.00,1.8918
3006.00,1.9212
3005.00,1.9514
3004.00,1.9821
3003.00,2.0132
3002.00,2.0442
3001.00,2.0750
3000.00,2.1055
2999.00,2.1353
2998.00,2.1644
2997.00,2.1925
2996.00,2.2195
2995.00,2.2454
2994.00,2.2700
2993.00,2.2934
2992.00,2.3156
2991.00,2.3368
2990.00,2.3571
2989.00,2.3768
2988.00,2.3959
2987.00,2.4138
2986.00,2.4302
2985.00,2.4457
2984.00,2.4611
2983.00,2.4771
2982.00,2.4936
2981.00,2.5107
2980.00,2.5287
2979.00,2.5487
2978.00,2.5716
2977.00,2.5987
2976.00,2.6311
2975.00,2.6692
2974.00,2.7128
2973.00,2.7624
2972.00,2.8194
2971.00,2.8851
2970.00,2.9586
2969.00,3.0374
2968.00,3.1185
2967.00,3.2001
2966.00,3.2813
2965.00,3.3611
2964.00,3.4403
2963.00,3.5217
2962.00,3.6086
2961.00,3.7046
2960.00,3.8137
2959.00,3.9334
2958.00,4.0394
2957.00,4.0777
2956.00,4.0429
2955.00,4.0024
2954.00,4.0116
2953.00,4.0928
2952.00,4.2342
2951.00,4.3501
2950.00,4.3653
2949.00,4.3470
2948.00,4.3515
2947.00,4.3775
2946.00,4.4440
2945.00,4.5839
2944.00,4.6002
2943.00,4.4910
2942.00,4.3888
2941.00,4.3707
2940.00,4.3881
2939.00,4.4903
2938.00,4.7945
2937.00,5.0477
2936.00,5.0157
2935.00,4.7944
2934.00,4.7585
2933.00,4.7746
2932.00,4.7798
2931.00,4.7125
2930.00,4.5828
2929.00,4.5044
2928.00,4.4501
2927.00,4.3645
2926.00,4.2532
2925.00,4.1446
2924.00,4.0524
2923.00,3.9803
2922.00,3.9265
2921.00,3.8791
2920.00,3.8212
2919.00,3.7458
2918.00,3.6605
2917.00,3.5737
2916.00,3.4886
2915.00,3.4082
2914.00,3.3373
2913.00,3.2788
2912.00,3.2305
2911.00,3.1887
2910.00,3.1510
2909.00,3.1177
2908.00,3.0901
2907.00,3.0689
2906.00,3.0525
2905.00,3.0363
2904.00,3.0152
2903.00,2.9892
2902.00,2.9632
2901.00,2.9420
2900.00,2.9262
2899.00,2.9130
2898.00,2.8998
2897.00,2.8855
2896.00,2.8716
2895.00,2.8607
2894.00,2.8550
2893.00,2.8542
2892.00,2.8544
2891.00,2.8517
2890.00,2.8462
2889.00,2.8409
2888.00,2.8384
2887.00,2.8386
2886.00,2.8411
2885.00,2.8462
2884.00,2.8541
2883.00,2.8642
2882.00,2.8769
2881.00,2.8937
2880.00,2.9158
2879.00,2.9417
2878.00,2.9696
2877.00,3.0001
2876.00,3.0362
2875.00,3.0802
2874.00,3.1301
2873.00,3.1819
2872.00,3.2326
2871.00,3.2834
2870.00,3.3384
2869.00,3.4020
2868.00,3.4723
2867.00,3.5392
2866.00,3.5897
2865.00,3.6225
2864.00,3.6465
2863.00,3.6675
2862.00,3.6825
2861.00,3.6872
2860.00,3.6782
2859.00,3.6470
2858.00,3.5827
2857.00,3.4887
2856.00,3.3812
2855.00,3.2743
2854.00,3.1732
2853.00,3.0783
2852.00,2.9900
2851.00,2.9104
2850.00,2.8416
2849.00,2.7837
2848.00,2.7350
2847.00,2.6933
2846.00,2.6578
2845.00,2.6288
2844.00,2.6056
2843.00,2.5865
2842.00,2.5694
2841.00,2.5527
2840.00,2.5359
2839.00,2.5192
2838.00,2.5029
2837.00,2.4872
2836.00,2.4719
2835.00,2.4565
2834.00,2.4404
2833.00,2.4239
2832.00,2.4070
2831.00,2.3899
2830.00,2.3725
2829.00,2.3549
2828.00,2.3370
2827.00,2.3184
2826.00,2.2984
2825.00,2.2767
2824.00,2.2529
2823.00,2.2268
2822.00,2.1987
2821.00,2.1688
2820.00,2.1370
2819.00,2.1030
2818.00,2.0670
2817.00,2.0295
2816.00,1.9912
2815.00,1.9525
2814.00,1.9135
2813.00,1.8745
2812.00,1.8362
2811.00,1.7988
2810.00,1.7629
2809.00,1.7289
2808.00,1.6976
2807.00,1.6697
2806.00,1.6459
2805.00,1.6269
2804.00,1.6130
2803.00,1.6045
2802.00,1.6013
2801.00,1.6030
2800.00,1.6092
2799.00,1.6188
2798.00,1.6309
2797.00,1.6446
2796.00,1.6594
2795.00,1.6749
2794.00,1.6913
2793.00,1.7088
2792.00,1.7281
2791.00,1.7495
2790.00,1.7726
2789.00,1.7973
2788.00,1.8234
2787.00,1.8507
2786.00,1.8791
2785.00,1.9081
2784.00,1.9373
2783.00,1.9663
2782.00,1.9947
2781.00,2.0223
2780.00,2.0490
2779.00,2.0747
2778.00,2.0994
2777.00,2.1234
2776.00,2.1465
2775.00,2.1687
2774.00,2.1894
2773.00,2.2085
2772.00,2.2261
2771.00,2.2426
2770.00,2.2582
2769.00,2.2733
2768.00,2.2880
2767.00,2.3025
2766.00,2.3161
2765.00,2.3285
2764.00,2.3398
2763.00,2.3503
2762.00,2.3602
2761.00,2.3698
2760.00,2.3792
2759.00,2.3878
2758.00,2.3949
2757.00,2.3997
2756.00,2.4027
2755.00,2.4047
2754.00,2.4070
2753.00,2.4102
2752.00,2.4141
2751.00,2.4176
2750.00,2.4195
2749.00,2.4194
2748.00,2.4182
2747.00,2.4171
2746.00,2.4164
2745.00,2.4156
2744.00,2.4141
2743.00,2.4119
2742.00,2.4091
2741.00,2.4055
2740.00,2.4006
2739.00,2.3943
2738.00,2.3872
2737.00,2.3798
2736.00,2.3721
2735.00,2.3635
2734.00,2.3538
2733.00,2.3434
2732.00,2.3328
2731.00,2.3217
2730.00,2.3100
2729.00,2.2976
2728.00,2.2848
2727.00,2.2714
2726.00,2.2570
2725.00,2.2415
2724.00,2.2247
2723.00,2.2066
2722.00,2.1874
2721.00,2.1674
2720.00,2.1467
2719.00,2.1249
2718.00,2.1016
2717.00,2.0769
2716.00,2.0510
2715.00,2.0244
2714.00,1.9967
2713.00,1.9678
2712.00,1.9375
2711.00,1.9057
2710.00,1.8727
2709.00,1.8386
2708.00,1.8036
2707.00,1.7677
2706.00,1.7312
2705.00,1.6944
2704.00,1.6578
2703.00,1.6221
2702.00,1.5875
2701.00,1.5544
2700.00,1.5233
2699.00,1.4945
2698.00,1.4687
2697.00,1.4461
2696.00,1.4272
2695.00,1.4123
2694.00,1.4018
2693.00,1.3958
2692.00,1.3945
2691.00,1.3980
2690.00,1.4063
2689.00,1.4194
2688.00,1.4370
2687.00,1.4589
2686.00,1.4844
2685.00,1.5133
2684.00,1.5449
2683.00,1.5785
2682.00,1.6133
2681.00,1.6486
2680.00,1.6836
2679.00,1.7175
2678.00,1.7499
2677.00,1.7804
2676.00,1.8091
2675.00,1.8363
2674.00,1.8620
2673.00,1.8867
2672.00,1.9102
2671.00,1.9327
2670.00,1.9543
2669.00,1.9749
2668.00,1.9946
2667.00,2.0137
2666.00,2.0323
2665.00,2.0512
2664.00,2.0707
2663.00,2.0911
2662.00,2.1118
2661.00,2.1327
2660.00,2.1536
2659.00,2.1747
2658.00,2.1958
2657.00,2.2164
2656.00,2.2359
2655.00,2.2540
2654.00,2.2710
2653.00,2.2874
2652.00,2.3035
2651.00,2.3193
2650.00,2.3346
2649.00,2.3488
2648.00,2.3612
2647.00,2.3719
2646.00,2.3816
2645.00,2.3912
2644.00,2.4008
2643.00,2.4102
2642.00,2.4193
2641.00,2.4284
2640.00,2.4376
2639.00,2.4466
2638.00,2.4545
2637.00,2.4614
2636.00,2.4678
2635.00,2.4739
2634.00,2.4796
2633.00,2.4847
2632.00,2.4893
2631.00,2.4936
2630.00,2.4972
2629.00,2.4998
2628.00,2.5010
2627.00,2.5015
2626.00,2.5016
2625.00,2.5016
2624.00,2.5015
2623.00,2.5013
2622.00,2.5006
2621.00,2.4993
2620.00,2.4971
2619.00,2.4942
2618.00,2.4907
2617.00,2.4867
2616.00,2.4823
2615.00,2.4779
2614.00,2.4737
2613.00,2.4693
2612.00,2.4640
2611.00,2.4571
2610.00,2.4491
2609.00,2.4410
2608.00,2.4337
2607.00,2.4270
2606.00,2.4198
2605.00,2.4107
2604.00,2.3994
2603.00,2.3863
2602.00,2.3725
2601.00,2.3588
2600.00,2.3452
2599.00,2.3311
2598.00,2.3157
2597.00,2.2986
2596.00,2.2802
2595.00,2.2607
2594.00,2.2407
2593.00,2.2205
2592.00,2.1998
2591.00,2.1784
2590.00,2.1560
2589.00,2.1323
2588.00,2.1071
2587.00,2.0805
2586.00,2.0524
2585.00,2.0232
2584.00,1.9931
2583.00,1.9619
2582.00,1.9297
2581.00,1.8962
2580.00,1.8615
2579.00,1.8259
2578.00,1.7896
2577.00,1.7530
2576.00,1.7163
2575.00,1.6797
2574.00,1.6434
2573.00,1.6078
2572.00,1.5732
2571.00,1.5402
2570.00,1.5092
2569.00,1.4807
2568.00,1.4549
2567.00,1.4321
2566.00,1.4125
2565.00,1.3963
2564.00,1.3839
2563.00,1.3756
2562.00,1.3718
2561.00,1.3726
2560.00,1.3782
2559.00,1.3882
2558.00,1.4027
2557.00,1.4212
2556.00,1.4434
2555.00,1.4690
2554.00,1.4974
2553.00,1.5282
2552.00,1.5610
2551.00,1.5951
2550.00,1.6302
2549.00,1.6659
2548.00,1.7022
2547.00,1.7386
2546.00,1.7749
2545.00,1.8108
2544.00,1.8461
2543.00,1.8809
2542.00,1.9152
2541.00,1.9491
2540.00,1.9822
2539.00,2.0145
2538.00,2.0455
2537.00,2.0751
2536.00,2.1033
2535.00,2.1303
2534.00,2.1566
2533.00,2.1822
2532.00,2.2069
2531.00,2.2302
2530.00,2.2517
2529.00,2.2717
2528.00,2.2910
2527.00,2.3100
2526.00,2.3288
2525.00,2.3469
2524.00,2.3643
2523.00,2.3809
2522.00,2.3969
2521.00,2.4123
2520.00,2.4264
2519.00,2.4389
2518.00,2.4496
2517.00,2.4596
2516.00,2.4700
2515.00,2.4814
2514.00,2.4933
2513.00,2.5044
2512.00,2.5142
2511.00,2.5227
2510.00,2.5305
2509.00,2.5382
2508.00,2.5455
2507.00,2.5515
2506.00,2.5557
2505.00,2.5583
2504.00,2.5605
2503.00,2.5631
2502.00,2.5659
2501.00,2.5689
2500.00,2.5717
2499.00,2.5743
2498.00,2.5761
2497.00,2.5770
2496.00,2.5779
2495.00,2.5790
2494.00,2.5797
2493.00,2.5788
2492.00,2.5765
2491.00,2.5739
2490.00,2.5714
2489.00,2.5690
2488.00,2.5663
2487.00,2.5628
2486.00,2.5583
2485.00,2.5527
2484.00,2.5465
2483.00,2.5402
2482.00,2.5336
2481.00,2.5263
2480.00,2.5186
2479.00,2.5109
2478.00,2.5030
2477.00,2.4940
2476.00,2.4834
2475.00,2.4718
2474.00,2.4602
2473.00,2.4489
2472.00,2.4374
2471.00,2.4252
2470.00,2.4116
2469.00,2.3963
2468.00,2.3797
2467.00,2.3622
2466.00,2.3444
2465.00,2.3259
2464.00,2.3066
2463.00,2.2862
2462.00,2.2645
2461.00,2.2415
2460.00,2.2170
2459.00,2.1914
2458.00,2.1648
2457.00,2.1371
2456.00,2.1078
2455.00,2.0770
2454.00,2.0445
2453.00,2.0106
2452.00,1.9752
2451.00,1.9382
2450.00,1.8996
2449.00,1.8594
2448.00,1.8176
2447.00,1.7743
2446.00,1.7298
2445.00,1.6848
2444.00,1.6397
2443.00,1.5952
2442.00,1.5519
2441.00,1.5104
2440.00,1.4715
2439.00,1.4358
2438.00,1.4039
2437.00,1.3764
2436.00,1.3540
2435.00,1.3371
2434.00,1.3263
2433.00,1.3218
2432.00,1.3237
2431.00,1.3317
2430.00,1.3455
2429.00,1.3644
2428.00,1.3877
2427.00,1.4147
2426.00,1.4447
2425.00,1.4772
2424.00,1.5118
2423.00,1.5479
2422.00,1.5852
2421.00,1.6236
2420.00,1.6628
2419.00,1.7023
2418.00,1.7418
2417.00,1.7809
2416.00,1.8196
2415.00,1.8579
2414.00,1.8956
2413.00,1.9329
2412.00,1.9697
2411.00,2.0060
2410.00,2.0418
2409.00,2.0766
2408.00,2.1102
2407.00,2.1425
2406.00,2.1734
2405.00,2.2033
2404.00,2.2327
2403.00,2.2610
2402.00,2.2875
2401.00,2.3115
2400.00,2.3337
2399.00,2.3551
2398.00,2.3764
2397.00,2.3973
2396.00,2.4173
2395.00,2.4363
2394.00,2.4537
2393.00,2.4694
2392.00,2.4837
2391.00,2.4980
2390.00,2.5127
2389.00,2.5282
2388.00,2.5432
2387.00,2.5568
2386.00,2.5696
2385.00,2.5793
2384.00,2.5868
2383.00,2.5937
2382.00,2.6020
2381.00,2.6111
2380.00,2.6193
2379.00,2.6255
2378.00,2.6303
2377.00,2.6353
2376.00,2.6416
2375.00,2.6490
2374.00,2.6560
2373.00,2.6615
2372.00,2.6653
2371.00,2.6687
2370.00,2.6732
2369.00,2.6782
2368.00,2.6824
2367.00,2.6849
2366.00,2.6860
2365.00,2.6858
2364.00,2.6842
2363.00,2.6815
2362.00,2.6787
2361.00,2.6770
2360.00,2.6762
2359.00,2.6754
2358.00,2.6740
2357.00,2.6719
2356.00,2.6684
2355.00,2.6623
2354.00,2.6529
2353.00,2.6408
2352.00,2.6283
2351.00,2.6179
2350.00,2.6105
2349.00,2.6052
2348.00,2.6001
2347.00,2.5939
2346.00,2.5857
2345.00,2.5756
2344.00,2.5635
2343.00,2.5498
2342.00,2.5352
2341.00,2.5202
2340.00,2.5054
2339.00,2.4911
2338.00,2.4775
2337.00,2.4643
2336.00,2.4506
2335.00,2.4354
2334.00,2.4178
2333.00,2.3977
2332.00,2.3760
2331.00,2.3533
2330.00,2.3300
2329.00,2.3055
2328.00,2.2793
2327.00,2.2515
2326.00,2.2224
2325.00,2.1922
2324.00,2.1601
2323.00,2.1262
2322.00,2.0886
2321.00,2.0525
2320.00,2.0073
2319.00,1.9715
2318.00,1.9144
2317.00,1.8894
2316.00,1.7899
2315.00,1.6776
2314.00,1.6523
2313.00,1.6358
2312.00,1.6533
2311.00,1.6793
2310.00,1.7056
2309.00,1.7134
2308.00,1.7118
2307.00,1.6975
2306.00,1.6841
2305.00,1.6654
2304.00,1.6493
2303.00,1.6304
2302.00,1.6170
2301.00,1.6086
2300.00,1.6095
2299.00,1.6179
2298.00,1.6312
2297.00,1.6468
2296.00,1.6645
2295.00,1.6844
2294.00,1.7073
2293.00,1.7315
2292.00,1.7582
2291.00,1.7846
2290.00,1.8135
2289.00,1.8424
2288.00,1.8741
2287.00,1.9061
2286.00,1.9400
2285.00,1.9738
2284.00,2.0075
2283.00,2.0393
2282.00,2.0697
2281.00,2.1004
2280.00,2.1339
2279.00,2.1705
2278.00,2.2074
2277.00,2.2416
2276.00,2.2721
2275.00,2.3003
2274.00,2.3267
2273.00,2.3523
2272.00,2.3767
2271.00,2.4002
2270.00,2.4224
2269.00,2.4432
2268.00,2.4630
2267.00,2.4822
2266.00,2.5017
2265.00,2.5218
2264.00,2.5418
2263.00,2.5610
2262.00,2.5786
2261.00,2.5940
2260.00,2.6081
2259.00,2.6218
2258.00,2.6361
2257.00,2.6499
2256.00,2.6622
2255.00,2.6726
2254.00,2.6821
2253.00,2.6921
2252.00,2.7021
2251.00,2.7115
2250.00,2.7189
2249.00,2.7241
2248.00,2.7271
2247.00,2.7289
2246.00,2.7315
2245.00,2.7367
2244.00,2.7446
2243.00,2.7533
2242.00,2.7604
2241.00,2.7644
2240.00,2.7654
2239.00,2.7645
2238.00,2.7636
2237.00,2.7639
2236.00,2.7654
2235.00,2.7666
2234.00,2.7664
2233.00,2.7644
2232.00,2.7609
2231.00,2.7560
2230.00,2.7505
2229.00,2.7457
2228.00,2.7429
2227.00,2.7425
2226.00,2.7435
2225.00,2.7442
2224.00,2.7432
2223.00,2.7398
2222.00,2.7334
2221.00,2.7237
2220.00,2.7116
2219.00,2.6990
2218.00,2.6880
2217.00,2.6793
2216.00,2.6722
2215.00,2.6645
2214.00,2.6547
2213.00,2.6423
2212.00,2.6284
2211.00,2.6143
2210.00,2.6004
2209.00,2.5862
2208.00,2.5712
2207.00,2.5560
2206.00,2.5409
2205.00,2.5255
2204.00,2.5083
2203.00,2.4887
2202.00,2.4673
2201.00,2.4446
2200.00,2.4207
2199.00,2.3955
2198.00,2.3693
2197.00,2.3425
2196.00,2.3150
2195.00,2.2856
2194.00,2.2536
2193.00,2.2188
2192.00,2.1822
2191.00,2.1444
2190.00,2.1057
2189.00,2.0658
2188.00,2.0242
2187.00,1.9811
2186.00,1.9368
2185.00,1.8917
2184.00,1.8464
2183.00,1.8015
2182.00,1.7578
2181.00,1.7163
2180.00,1.6776
2179.00,1.6420
2178.00,1.6097
2177.00,1.5805
2176.00,1.5543
2175.00,1.5311
2174.00,1.5110
2173.00,1.4948
2172.00,1.4830
2171.00,1.4762
2170.00,1.4752
2169.00,1.4804
2168.00,1.4919
2167.00,1.5097
2166.00,1.5331
2165.00,1.5619
2164.00,1.5953
2163.00,1.6324
2162.00,1.6722
2161.00,1.7142
2160.00,1.7579
2159.00,1.8028
2158.00,1.8486
2157.00,1.8946
2156.00,1.9403
2155.00,1.9854
2154.00,2.0296
2153.00,2.0729
2152.00,2.1150
2151.00,2.1559
2150.00,2.1958
2149.00,2.2347
2148.00,2.2723
2147.00,2.3078
2146.00,2.3406
2145.00,2.3714
2144.00,2.4011
2143.00,2.4304
2142.00,2.4597
2141.00,2.4882
2140.00,2.5144
2139.00,2.5369
2138.00,2.5563
2137.00,2.5743
2136.00,2.5925
2135.00,2.6107
2134.00,2.6282
2133.00,2.6445
2132.00,2.6597
2131.00,2.6741
2130.00,2.6881
2129.00,2.7023
2128.00,2.7167
2127.00,2.7305
2126.00,2.7423
2125.00,2.7523
2124.00,2.7617
2123.00,2.7715
2122.00,2.7816
2121.00,2.7912
2120.00,2.7999
2119.00,2.8076
2118.00,2.8143
2117.00,2.8200
2116.00,2.8248
2115.00,2.8288
2114.00,2.8323
2113.00,2.8360
2112.00,2.8402
2111.00,2.8446
2110.00,2.8483
2109.00,2.8512
2108.00,2.8538
2107.00,2.8569
2106.00,2.8603
2105.00,2.8630
2104.00,2.8644
2103.00,2.8642
2102.00,2.8623
2101.00,2.8581
2100.00,2.8516
2099.00,2.8445
2098.00,2.8393
2097.00,2.8373
2096.00,2.8370
2095.00,2.8360
2094.00,2.8326
2093.00,2.8269
2092.00,2.8198
2091.00,2.8120
2090.00,2.8049
2089.00,2.7993
2088.00,2.7945
2087.00,2.7883
2086.00,2.7790
2085.00,2.7668
2084.00,2.7536
2083.00,2.7407
2082.00,2.7281
2081.00,2.7150
2080.00,2.7002
2079.00,2.6835
2078.00,2.6657
2077.00,2.6488
2076.00,2.6334
2075.00,2.6181
2074.00,2.6004
2073.00,2.5797
2072.00,2.5571
2071.00,2.5341
2070.00,2.5113
2069.00,2.4885
2068.00,2.4655
2067.00,2.4414
2066.00,2.4155
2065.00,2.3873
2064.00,2.3579
2063.00,2.3285
2062.00,2.2991
2061.00,2.2688
2060.00,2.2361
2059.00,2.2003
2058.00,2.1610
2057.00,2.1180
2056.00,2.0712
2055.00,2.0213
2054.00,1.9691
2053.00,1.9152
2052.00,1.8602
2051.00,1.8048
2050.00,1.7501
2049.00,1.6975
2048.00,1.6482
2047.00,1.6034
2046.00,1.5642
2045.00,1.5316
2044.00,1.5064
2043.00,1.4890
2042.00,1.4798
2041.00,1.4796
2040.00,1.4892
2039.00,1.5086
2038.00,1.5363
2037.00,1.5704
2036.00,1.6091
2035.00,1.6513
2034.00,1.6964
2033.00,1.7438
2032.00,1.7927
2031.00,1.8423
2030.00,1.8920
2029.00,1.9415
2028.00,1.9903
2027.00,2.0385
2026.00,2.0862
2025.00,2.1333
2024.00,2.1795
2023.00,2.2240
2022.00,2.2664
2021.00,2.3068
2020.00,2.3447
2019.00,2.3789
2018.00,2.4095
2017.00,2.4378
2016.00,2.4660
2015.00,2.4954
2014.00,2.5257
2013.00,2.5559
2012.00,2.5849
2011.00,2.6118
2010.00,2.6362
2009.00,2.6577
2008.00,2.6765
2007.00,2.6934
2006.00,2.7104
2005.00,2.7286
2004.00,2.7474
2003.00,2.7652
2002.00,2.7813
2001.00,2.7965
2000.00,2.8108
1999.00,2.8236
1998.00,2.8350
1997.00,2.8460
1996.00,2.8573
1995.00,2.8681
1994.00,2.8771
1993.00,2.8837
1992.00,2.8883
1991.00,2.8920
1990.00,2.8964
1989.00,2.9020
1988.00,2.9078
1987.00,2.9133
1986.00,2.9203
1985.00,2.9304
1984.00,2.9415
1983.00,2.9490
1982.00,2.9502
1981.00,2.9479
1980.00,2.9465
1979.00,2.9482
1978.00,2.9530
1977.00,2.9588
1976.00,2.9625
1975.00,2.9611
1974.00,2.9551
1973.00,2.9488
1972.00,2.9458
1971.00,2.9464
1970.00,2.9486
1969.00,2.9497
1968.00,2.9465
1967.00,2.9373
1966.00,2.9244
1965.00,2.9139
1964.00,2.9084
1963.00,2.9048
1962.00,2.8985
1961.00,2.8888
1960.00,2.8788
1959.00,2.8707
1958.00,2.8644
1957.00,2.8582
1956.00,2.8502
1955.00,2.8391
1954.00,2.8250
1953.00,2.8098
1952.00,2.7951
1951.00,2.7808
1950.00,2.7660
1949.00,2.7502
1948.00,2.7326
1947.00,2.7122
1946.00,2.6889
1945.00,2.6636
1944.00,2.6363
1943.00,2.6065
1942.00,2.5757
1941.00,2.5476
1940.00,2.5237
1939.00,2.5006
1938.00,2.4742
1937.00,2.4433
1936.00,2.4083
1935.00,2.3699
1934.00,2.3282
1933.00,2.2841
1932.00,2.2376
1931.00,2.1885
1930.00,2.1365
1929.00,2.0820
1928.00,2.0259
1927.00,1.9685
1926.00,1.9100
1925.00,1.8501
1924.00,1.7886
1923.00,1.7278
1922.00,1.6733
1921.00,1.6309
1920.00,1.6018
1919.00,1.5826
1918.00,1.5706
1917.00,1.5660
1916.00,1.5709
1915.00,1.5864
1914.00,1.6116
1913.00,1.6441
1912.00,1.6813
1911.00,1.7210
1910.00,1.7629
1909.00,1.8079
1908.00,1.8573
1907.00,1.9108
1906.00,1.9671
1905.00,2.0240
1904.00,2.0796
1903.00,2.1334
1902.00,2.1856
1901.00,2.2368
1900.00,2.2866
1899.00,2.3344
1898.00,2.3795
1897.00,2.4217
1896.00,2.4608
1895.00,2.4976
1894.00,2.5333
1893.00,2.5680
1892.00,2.6008
1891.00,2.6306
1890.00,2.6571
1889.00,2.6813
1888.00,2.7058
1887.00,2.7331
1886.00,2.7618
1885.00,2.7887
1884.00,2.8115
1883.00,2.8311
1882.00,2.8498
1881.00,2.8685
1880.00,2.8861
1879.00,2.9023
1878.00,2.9172
1877.00,2.9302
1876.00,2.9406
1875.00,2.9491
1874.00,2.9574
1873.00,2.9658
1872.00,2.9737
1871.00,2.9812
1870.00,2.9881
1869.00,2.9920
1868.00,2.9916
1867.00,2.9901
1866.00,2.9917
1865.00,2.9971
1864.00,3.0051
1863.00,3.0149
1862.00,3.0248
1861.00,3.0328
1860.00,3.0390
1859.00,3.0455
1858.00,3.0525
1857.00,3.0565
1856.00,3.0548
1855.00,3.0502
1854.00,3.0482
1853.00,3.0503
1852.00,3.0525
1851.00,3.0496
1850.00,3.0395
1849.00,3.0236
1848.00,3.0052
1847.00,2.9885
1846.00,2.9766
1845.00,2.9698
1844.00,2.9656
1843.00,2.9607
1842.00,2.9537
1841.00,2.9451
1840.00,2.9344
1839.00,2.9207
1838.00,2.9040
1837.00,2.8861
1836.00,2.8690
1835.00,2.8525
1834.00,2.8337
1833.00,2.8106
1832.00,2.7842
1831.00,2.7568
1830.00,2.7284
1829.00,2.6968
1828.00,2.6617
1827.00,2.6241
1826.00,2.5851
1825.00,2.5450
1824.00,2.5038
1823.00,2.4622
1822.00,2.4204
1821.00,2.3780
1820.00,2.3339
1819.00,2.2874
1818.00,2.2396
1817.00,2.1944
1816.00,2.1565
1815.00,2.1284
1814.00,2.1089
1813.00,2.0959
1812.00,2.0888
1811.00,2.0886
1810.00,2.0961
1809.00,2.1103
1808.00,2.1280
1807.00,2.1464
1806.00,2.1643
1805.00,2.1808
1804.00,2.1936
1803.00,2.2016
1802.00,2.2081
1801.00,2.2215
1800.00,2.2492
1799.00,2.2902
1798.00,2.3362
1797.00,2.3797
1796.00,2.4203
1795.00,2.4625
1794.00,2.5099
1793.00,2.5619
1792.00,2.6137
1791.00,2.6609
1790.00,2.7062
1789.00,2.7544
1788.00,2.8043
1787.00,2.8509
1786.00,2.8900
1785.00,2.9223
1784.00,2.9506
1783.00,2.9766
1782.00,2.9998
1781.00,3.0210
1780.00,3.0425
1779.00,3.0662
1778.00,3.0900
1777.00,3.1099
1776.00,3.1242
1775.00,3.1350
1774.00,3.1456
1773.00,3.1585
1772.00,3.1733
1771.00,3.1879
1770.00,3.2022
1769.00,3.2149
1768.00,3.2230
1767.00,3.2263
1766.00,3.2277
1765.00,3.2297
1764.00,3.2312
1763.00,3.2288
1762.00,3.2198
1761.00,3.2036
1760.00,3.1821
1759.00,3.1584
1758.00,3.1356
1757.00,3.1176
1756.00,3.1076
1755.00,3.1064
1754.00,3.1113
1753.00,3.1186
1752.00,3.1272
1751.00,3.1399
1750.00,3.1631
1749.00,3.2030
1748.00,3.2607
1747.00,3.3285
1746.00,3.3977
1745.00,3.4653
1744.00,3.5327
1743.00,3.5991
1742.00,3.6636
1741.00,3.7291
1740.00,3.7997
1739.00,3.8778
1738.00,3.9563
1737.00,4.0093
1736.00,4.0307
1735.00,4.0622
1734.00,4.1423
1733.00,4.2479
1732.00,4.2851
1731.00,4.2414
1730.00,4.2144
1729.00,4.2688
1728.00,4.4720
1727.00,4.7554
1726.00,4.6093
1725.00,4.5073
1724.00,4.6179
1723.00,4.8723
1722.00,4.8933
1721.00,4.5564
1720.00,4.3793
1719.00,4.3501
1718.00,4.3945
1717.00,4.4159
1716.00,4.4637
1715.00,4.6739
1714.00,4.7312
1713.00,4.5670
1712.00,4.4919
1711.00,4.3441
1710.00,4.2091
1709.00,4.1775
1708.00,4.2466
1707.00,4.4047
1706.00,4.5919
1705.00,4.7014
1704.00,4.8079
1703.00,4.9858
1702.00,5.3423
1701.00,5.2895
1700.00,4.7973
1699.00,4.6648
1698.00,4.5846
1697.00,4.4334
1696.00,4.2906
1695.00,4.2371
1694.00,4.2369
1693.00,4.2006
1692.00,4.0987
1691.00,3.9744
1690.00,3.8700
1689.00,3.7962
1688.00,3.7428
1687.00,3.6915
1686.00,3.6290
1685.00,3.5587
1684.00,3.4959
1683.00,3.4490
1682.00,3.4174
1681.00,3.3873
1680.00,3.3524
1679.00,3.3188
1678.00,3.2908
1677.00,3.2637
1676.00,3.2293
1675.00,3.1838
1674.00,3.1277
1673.00,3.0661
1672.00,3.0092
1671.00,2.9642
1670.00,2.9308
1669.00,2.9037
1668.00,2.8801
1667.00,2.8618
1666.00,2.8536
1665.00,2.8598
1664.00,2.8801
1663.00,2.9100
1662.00,2.9423
1661.00,2.9741
1660.00,3.0075
1659.00,3.0444
1658.00,3.0818
1657.00,3.1121
1656.00,3.1288
1655.00,3.1337
1654.00,3.1392
1653.00,3.1541
1652.00,3.1710
1651.00,3.1776
1650.00,3.1832
1649.00,3.2040
1648.00,3.2251
1647.00,3.2323
1646.00,3.2329
1645.00,3.2405
1644.00,3.2529
1643.00,3.2641
1642.00,3.2725
1641.00,3.2762
1640.00,3.2754
1639.00,3.2727
1638.00,3.2707
1637.00,3.2724
1636.00,3.2820
1635.00,3.2980
1634.00,3.3096
1633.00,3.3035
1632.00,3.2846
1631.00,3.2633
1630.00,3.2419
1629.00,3.2204
1628.00,3.2003
1627.00,3.1844
1626.00,3.1741
1625.00,3.1663
1624.00,3.1540
1623.00,3.1323
1622.00,3.1021
1621.00,3.0692
1620.00,3.0378
1619.00,3.0081
1618.00,2.9779
1617.00,2.9457
1616.00,2.9115
1615.00,2.8766
1614.00,2.8434
1613.00,2.8115
1612.00,2.7766
1611.00,2.7361
1610.00,2.6908
1609.00,2.6420
1608.00,2.5904
1607.00,2.5367
1606.00,2.4818
1605.00,2.4256
1604.00,2.3669
1603.00,2.3065
1602.00,2.2479
1601.00,2.1950
1600.00,2.1504
1599.00,2.1148
1598.00,2.0881
1597.00,2.0703
1596.00,2.0617
1595.00,2.0633
1594.00,2.0760
1593.00,2.0991
1592.00,2.1305
1591.00,2.1676
1590.00,2.2088
1589.00,2.2531
1588.00,2.2991
1587.00,2.3459
1586.00,2.3929
1585.00,2.4402
1584.00,2.4880
1583.00,2.5365
1582.00,2.5856
1581.00,2.6341
1580.00,2.6790
1579.00,2.7170
1578.00,2.7477
1577.00,2.7756
1576.00,2.8076
1575.00,2.8462
1574.00,2.8864
1573.00,2.9238
1572.00,2.9583
1571.00,2.9919
1570.00,3.0266
1569.00,3.0591
1568.00,3.0850
1567.00,3.1056
1566.00,3.1272
1565.00,3.1547
1564.00,3.1842
1563.00,3.2053
1562.00,3.2109
1561.00,3.2042
1560.00,3.1986
1559.00,3.1988
1558.00,3.1957
1557.00,3.2039
1556.00,3.2090
1555.00,3.2110
1554.00,3.2195
1553.00,3.2317
1552.00,3.2393
1551.00,3.2410
1550.00,3.2448
1549.00,3.2576
1548.00,3.2753
1547.00,3.2843
1546.00,3.2784
1545.00,3.2642
1544.00,3.2516
1543.00,3.2490
1542.00,3.2574
1541.00,3.2675
1540.00,3.2687
1539.00,3.2624
1538.00,3.2554
1537.00,3.2461
1536.00,3.2421
1535.00,3.2449
1534.00,3.2489
1533.00,3.2479
1532.00,3.2389
1531.00,3.2237
1530.00,3.2043
1529.00,3.1828
1528.00,3.1590
1527.00,3.1336
1526.00,3.1112
1525.00,3.0992
1524.00,3.0911
1523.00,3.0804
1522.00,3.0515
1521.00,3.0961
1520.00,3.0793
1519.00,3.0543
1518.00,3.0303
1517.00,3.0041
1516.00,2.9799
1515.00,2.9557
1514.00,2.9331
1513.00,2.9056
1512.00,2.8789
1511.00,2.7734
1510.00,2.7125
1509.00,2.6483
1508.00,2.5790
1507.00,2.5158
1506.00,2.4818
1505.00,2.4841
1504.00,2.4769
1503.00,2.4478
1502.00,2.4089
1501.00,2.3643
1500.00,2.3182
1499.00,2.2732
1498.00,2.2271
1497.00,2.1799
1496.00,2.1391
1495.00,2.1151
1494.00,2.1104
1493.00,2.1210
1492.00,2.1398
1491.00,2.1600
1490.00,2.1797
1489.00,2.2080
1488.00,2.2592
1487.00,2.3326
1486.00,2.4139
1485.00,2.4921
1484.00,2.5646
1483.00,2.6326
1482.00,2.6975
1481.00,2.7596
1480.00,2.8193
1479.00,2.8758
1478.00,2.9268
1477.00,2.9706
1476.00,3.0075
1475.00,3.0406
1474.00,3.0750
1473.00,3.1155
1472.00,3.1623
1471.00,3.2103
1470.00,3.2526
1469.00,3.2907
1468.00,3.3339
1467.00,3.3864
1466.00,3.4421
1465.00,3.4883
1464.00,3.5159
1463.00,3.5255
1462.00,3.5230
1461.00,3.5175
1460.00,3.5178
1459.00,3.5260
1458.00,3.5388
1457.00,3.5604
1456.00,3.6102
1455.00,3.6984
1454.00,3.8126
1453.00,3.9364
1452.00,4.0549
1451.00,4.1627
1450.00,4.2370
1449.00,4.2114
1448.00,4.0925
1447.00,3.9435
1446.00,3.8009
1445.00,3.6841
1444.00,3.5996
1443.00,3.5464
1442.00,3.5181
1441.00,3.5055
1440.00,3.5016
1439.00,3.5042
1438.00,3.5113
1437.00,3.5176
1436.00,3.5251
1435.00,3.5510
1434.00,3.6090
1433.00,3.6946
1432.00,3.7885
1431.00,3.8627
1430.00,3.8955
1429.00,3.8915
1428.00,3.8730
1427.00,3.8575
1426.00,3.8524
1425.00,3.8590
1424.00,3.8727
1423.00,3.8870
1422.00,3.8971
1421.00,3.8971
1420.00,3.8727
1419.00,3.8061
1418.00,3.7088
1417.00,3.6251
1416.00,3.5798
1415.00,3.5641
1414.00,3.5589
1413.00,3.5518
1412.00,3.5400
1411.00,3.5257
1410.00,3.5108
1409.00,3.4975
1408.00,3.4886
1407.00,3.4838
1406.00,3.4773
1405.00,3.4644
1404.00,3.4515
1403.00,3.4514
1402.00,3.4671
1401.00,3.4894
1400.00,3.5047
1399.00,3.5052
1398.00,3.4943
1397.00,3.4807
1396.00,3.4678
1395.00,3.4535
1394.00,3.4377
1393.00,3.4249
1392.00,3.4201
1391.00,3.4240
1390.00,3.4316
1389.00,3.4320
1388.00,3.4177
1387.00,3.3944
1386.00,3.3760
1385.00,3.3691
1384.00,3.3650
1383.00,3.3496
1382.00,3.3190
1381.00,3.2821
1380.00,3.2502
1379.00,3.2268
1378.00,3.2067
1377.00,3.1832
1376.00,3.1538
1375.00,3.1190
1374.00,3.0806
1373.00,3.0436
1372.00,3.0128
1371.00,2.9877
1370.00,2.9630
1369.00,2.9337
1368.00,2.8997
1367.00,2.8665
1366.00,2.8371
1365.00,2.8074
1364.00,2.7729
1363.00,2.7369
1362.00,2.7136
1361.00,2.7169
1360.00,2.7463
1359.00,2.7907
1358.00,2.8409
1357.00,2.8952
1356.00,2.9569
1355.00,3.0303
1354.00,3.1169
1353.00,3.2128
1352.00,3.3084
1351.00,3.3962
1350.00,3.4770
1349.00,3.5544
1348.00,3.6197
1347.00,3.6531
1346.00,3.6462
1345.00,3.6116
1344.00,3.5733
1343.00,3.5485
1342.00,3.5396
1341.00,3.5424
1340.00,3.5551
1339.00,3.5734
1338.00,3.5782
1337.00,3.5438
1336.00,3.4658
1335.00,3.3700
1334.00,3.2867
1333.00,3.2319
1332.00,3.2084
1331.00,3.2109
1330.00,3.2315
1329.00,3.2641
1328.00,3.3069
1327.00,3.3590
1326.00,3.4158
1325.00,3.4687
1324.00,3.5118
1323.00,3.5464
1322.00,3.5783
1321.00,3.6172
1320.00,3.6728
1319.00,3.7468
1318.00,3.8331
1317.00,3.9293
1316.00,4.0336
1315.00,4.1057
1314.00,4.0997
1313.00,4.0569
1312.00,4.0263
1311.00,4.0269
1310.00,4.0439
1309.00,4.0270
1308.00,3.9426
1307.00,3.8188
1306.00,3.7002
1305.00,3.6068
1304.00,3.5392
1303.00,3.4907
1302.00,3.4552
1301.00,3.4311
1300.00,3.4189
1299.00,3.4180
1298.00,3.4251
1297.00,3.4382
1296.00,3.4573
1295.00,3.4799
1294.00,3.5001
1293.00,3.5154
1292.00,3.5299
1291.00,3.5476
1290.00,3.5663
1289.00,3.5806
1288.00,3.5909
1287.00,3.6027
1286.00,3.6182
1285.00,3.6358
1284.00,3.6540
1283.00,3.6650
1282.00,3.6538
1281.00,3.6204
1280.00,3.5902
1279.00,3.5879
1278.00,3.6165
1277.00,3.6585
1276.00,3.6952
1275.00,3.7225
1274.00,3.7435
1273.00,3.7537
1272.00,3.7521
1271.00,3.7535
1270.00,3.7689
1269.00,3.7904
1268.00,3.8059
1267.00,3.8108
1266.00,3.8007
1265.00,3.7734
1264.00,3.7409
1263.00,3.7225
1262.00,3.7234
1261.00,3.7264
1260.00,3.7077
1259.00,3.6666
1258.00,3.6220
1257.00,3.5885
1256.00,3.5693
1255.00,3.5634
1254.00,3.5669
1253.00,3.5712
1252.00,3.5681
1251.00,3.5578
1250.00,3.5466
1249.00,3.5387
1248.00,3.5324
1247.00,3.5253
1246.00,3.5171
1245.00,3.5093
1244.00,3.5017
1243.00,3.4928
1242.00,3.4815
1241.00,3.4712
1240.00,3.4690
1239.00,3.4806
1238.00,3.5048
1237.00,3.5352
1236.00,3.5698
1235.00,3.6156
1234.00,3.6768
1233.00,3.7450
1232.00,3.8068
1231.00,3.8582
1230.00,3.9072
1229.00,3.9608
1228.00,4.0098
1227.00,4.0322
1226.00,4.0249
1225.00,4.0327
1224.00,4.1074
1223.00,4.2641
1222.00,4.4188
1221.00,4.3821
1220.00,4.2064
1219.00,4.0603
1218.00,3.9893
1217.00,3.9620
1216.00,3.9334
1215.00,3.8902
1214.00,3.8479
1213.00,3.8149
1212.00,3.7906
1211.00,3.7784
1210.00,3.7774
1209.00,3.7753
1208.00,3.7506
1207.00,3.6952
1206.00,3.6224
1205.00,3.5426
1204.00,3.4642
1203.00,3.3960
1202.00,3.3445
1201.00,3.3140
1200.00,3.3035
1199.00,3.3065
1198.00,3.3126
1197.00,3.3098
1196.00,3.2942
1195.00,3.2747
1194.00,3.2630
1193.00,3.2645
1192.00,3.2785
1191.00,3.3007
1190.00,3.3262
1189.00,3.3510
1188.00,3.3735
1187.00,3.3977
1186.00,3.4308
1185.00,3.4742
1184.00,3.5192
1183.00,3.5555
1182.00,3.5798
1181.00,3.5971
1180.00,3.6147
1179.00,3.6325
1178.00,3.6476
1177.00,3.6581
1176.00,3.6585
1175.00,3.6510
1174.00,3.6449
1173.00,3.6418
1172.00,3.6385
1171.00,3.6401
1170.00,3.6541
1169.00,3.6803
1168.00,3.7120
1167.00,3.7376
1166.00,3.7543
1165.00,3.7664
1164.00,3.7778
1163.00,3.7956
1162.00,3.8170
1161.00,3.8302
1160.00,3.8322
1159.00,3.8366
1158.00,3.8674
1157.00,3.9313
1156.00,3.9894
1155.00,3.9883
1154.00,3.9497
1153.00,3.9328
1152.00,3.9477
1151.00,3.9472
1150.00,3.9109
1149.00,3.8806
1148.00,3.8705
1147.00,3.8606
1146.00,3.8423
1145.00,3.8311
1144.00,3.8433
1143.00,3.8737
1142.00,3.8785
1141.00,3.8320
1140.00,3.7945
1139.00,3.8158
1138.00,3.8849
1137.00,3.9399
1136.00,3.9285
1135.00,3.8903
1134.00,3.8952
1133.00,3.9642
1132.00,4.0529
1131.00,4.0743
1130.00,4.0176
1129.00,3.9625
1128.00,3.9490
1127.00,3.9470
1126.00,3.9134
1125.00,3.8528
1124.00,3.7853
1123.00,3.7300
1122.00,3.7169
1121.00,3.7826
1120.00,3.9664
1119.00,4.3190
1118.00,4.7270
1117.00,4.6789
1116.00,4.5225
1115.00,4.3501
1114.00,4.1952
1113.00,4.0697
1112.00,4.0035
1111.00,4.0222
1110.00,4.1196
1109.00,4.2361
1108.00,4.2293
1107.00,4.0736
1106.00,3.9006
1105.00,3.7807
1104.00,3.7258
1103.00,3.7303
1102.00,3.7801
1101.00,3.8469
1100.00,3.8793
1099.00,3.8504
1098.00,3.7994
1097.00,3.7638
1096.00,3.7577
1095.00,3.7735
1094.00,3.7828
1093.00,3.7732
1092.00,3.7622
1091.00,3.7720
1090.00,3.8132
1089.00,3.8805
1088.00,3.9261
1087.00,3.8901
1086.00,3.7922
1085.00,3.6753
1084.00,3.5818
1083.00,3.5355
1082.00,3.5287
1081.00,3.5369
1080.00,3.5341
1079.00,3.5061
1078.00,3.4606
1077.00,3.4238
1076.00,3.4228
1075.00,3.4701
1074.00,3.5513
1073.00,3.6084
1072.00,3.5833
1071.00,3.5107
1070.00,3.4448
1069.00,3.4024
1068.00,3.3882
1067.00,3.4064
1066.00,3.4575
1065.00,3.5363
1064.00,3.6287
1063.00,3.7034
1062.00,3.7234
1061.00,3.6914
1060.00,3.6481
1059.00,3.6259
1058.00,3.6390
1057.00,3.6858
1056.00,3.7341
1055.00,3.7417
1054.00,3.7102
1053.00,3.6651
1052.00,3.6305
1051.00,3.6229
1050.00,3.6444
1049.00,3.6827
1048.00,3.7123
1047.00,3.7152
1046.00,3.6995
1045.00,3.6846
1044.00,3.6891
1043.00,3.7263
1042.00,3.7757
1041.00,3.7845
1040.00,3.7430
1039.00,3.6856
1038.00,3.6507
1037.00,3.6609
1036.00,3.7129
1035.00,3.7909
1034.00,3.8763
1033.00,3.9473
1032.00,3.9787
1031.00,3.9547
1030.00,3.9000
1029.00,3.8770
1028.00,3.9435
1027.00,4.1339
1026.00,4.4061
1025.00,4.3917
1024.00,4.1512
1023.00,4.0225
1022.00,3.9933
1021.00,3.9738
1020.00,3.9480
1019.00,3.9819
1018.00,4.1734
1017.00,4.7098
1016.00,4.7480
1015.00,4.3027
1014.00,4.1260
1013.00,4.0594
1012.00,4.0674
1011.00,4.0971
1010.00,4.1138
1009.00,4.1419
1008.00,4.2298
1007.00,4.4154
1006.00,4.4543
1005.00,4.2873
1004.00,4.2394
1003.00,4.3457
1002.00,4.4883
1001.00,4.3667
1000.00,4.1979
999.00,4.1002
998.00,4.0421
997.00,4.0195
996.00,4.0116
995.00,3.9723
994.00,3.9023
993.00,3.8532
992.00,3.8478
991.00,3.8879
990.00,3.9633
989.00,4.0432
988.00,4.0984
987.00,4.1228
986.00,4.1176
985.00,4.1140
984.00,4.1558
983.00,4.2926
982.00,4.5668
981.00,4.7325
980.00,4.6503
979.00,4.4404
978.00,4.1710
977.00,4.0227
976.00,3.9868
975.00,4.0143
974.00,4.0458
973.00,4.0290
972.00,3.9824
971.00,3.9654
970.00,4.0122
969.00,4.1219
968.00,4.2152
967.00,4.1600
966.00,4.0268
965.00,3.9188
964.00,3.8692
963.00,3.8851
962.00,3.9418
961.00,3.9732
960.00,3.9548
959.00,3.9386
958.00,3.9472
957.00,3.9769
956.00,4.0050
955.00,3.9859
954.00,3.9260
953.00,3.8821
952.00,3.8939
951.00,3.9629
950.00,4.0659
949.00,4.1785
948.00,4.3444
947.00,4.5333
946.00,4.4761
945.00,4.3791
944.00,4.2903
943.00,4.1682
942.00,4.0978
941.00,4.0785
940.00,4.0614
939.00,4.0101
938.00,3.9533
937.00,3.9337
936.00,3.9266
935.00,3.8912
934.00,3.8749
933.00,3.9174
932.00,3.9712
931.00,3.9753
930.00,3.9537
929.00,3.9332
928.00,3.9038
927.00,3.8788
926.00,3.8978
925.00,3.9874
924.00,4.1495
923.00,4.3707
922.00,4.7049
921.00,4.9393
920.00,4.5424
919.00,4.4671
918.00,4.8288
917.00,4.4919
916.00,4.0548
915.00,3.9211
914.00,3.9470
913.00,4.1310
912.00,4.4996
911.00,4.6508
910.00,4.6458
909.00,4.8117
908.00,4.6928
907.00,4.4633
906.00,4.3623
905.00,4.5596
904.00,5.0691
903.00,4.5465
902.00,4.2824
901.00,4.1923
900.00,4.2027
899.00,4.3234
898.00,4.5089
897.00,4.7578
896.00,4.7484
895.00,4.5129
894.00,4.3278
893.00,4.2312
892.00,4.1940
891.00,4.1461
890.00,4.0913
889.00,4.0384
888.00,3.9596
887.00,3.8895
886.00,3.8446
885.00,3.8367
884.00,3.8869
883.00,4.0549
882.00,4.2682
881.00,4.4161
880.00,4.5957
879.00,4.2771
878.00,4.0562
877.00,3.9920
876.00,3.9694
875.00,3.9713
874.00,3.9659
873.00,3.9417
872.00,3.8766
871.00,3.8163
870.00,3.8052
869.00,3.8619
868.00,3.9801
867.00,4.1828
866.00,4.3321
865.00,4.0619
864.00,3.8209
863.00,3.7185
862.00,3.7151
861.00,3.7751
860.00,3.8306
859.00,3.8327
858.00,3.7976
857.00,3.7674
856.00,3.7635
855.00,3.7784
854.00,3.7794
853.00,3.7582
852.00,3.7715
851.00,3.8663
850.00,4.0961
849.00,4.5454
848.00,4.5680
847.00,4.2190
846.00,4.0650
845.00,4.0204
844.00,4.0165
843.00,4.0016
842.00,3.9678
841.00,3.9029
840.00,3.8382
839.00,3.8196
838.00,3.8459
837.00,3.9079
836.00,4.0354
835.00,4.2867
834.00,4.5481
833.00,4.4706
832.00,4.2350
831.00,4.0870
830.00,4.1049
829.00,4.3682
828.00,4.6838
827.00,4.4437
826.00,4.2802
825.00,4.1046
824.00,3.9417
823.00,3.8658
822.00,3.8592
821.00,3.8787
820.00,3.8362
819.00,3.7499
818.00,3.6848
817.00,3.6706
816.00,3.7299
815.00,3.8790
814.00,4.1124
813.00,4.2663
812.00,4.5164
811.00,4.7887
810.00,4.2289
809.00,4.1315
808.00,4.2155
807.00,4.4779
806.00,5.2324
805.00,4.4715
804.00,4.2921
803.00,4.3329
802.00,4.2808
801.00,4.1090
800.00,3.9746
799.00,3.9372
798.00,3.9250
797.00,3.8934
796.00,3.8609
795.00,3.8829
794.00,3.9822
793.00,4.1477
792.00,4.2076
791.00,4.0855
790.00,4.0096
789.00,4.0757
788.00,4.4009
787.00,4.6887
786.00,4.4040
785.00,4.2639
784.00,4.1201
783.00,4.0201
782.00,3.9634
781.00,3.9146
780.00,3.9182
779.00,3.9272
778.00,3.8442
777.00,3.7413
776.00,3.7146
775.00,3.7722
774.00,3.8800
773.00,3.9795
772.00,4.0528
771.00,4.2293
770.00,4.7766
769.00,4.9475
768.00,4.8437
767.00,5.0372
766.00,4.4137
765.00,4.1344
764.00,4.0493
763.00,4.0800
762.00,4.1801
761.00,4.1970
760.00,4.0899
759.00,3.9764
758.00,3.9320
757.00,3.9406
756.00,3.9702
755.00,4.0366
754.00,4.1620
753.00,4.1995
752.00,4.1323
751.00,4.1789
750.00,4.4111
749.00,4.5095
748.00,4.2333
747.00,4.0238
746.00,3.9125
745.00,3.8776
744.00,3.8867
743.00,3.9005
742.00,3.9056
741.00,3.8805
740.00,3.8599
739.00,3.8837
738.00,3.9690
737.00,4.0828
736.00,4.0193
735.00,3.8622
734.00,3.8008
733.00,3.8431
732.00,3.9463
731.00,3.9818
730.00,3.9157
729.00,3.8562
728.00,3.8274
727.00,3.8287
726.00,3.8647
725.00,3.9113
724.00,3.9736
723.00,4.0955
722.00,4.1865
721.00,4.1293
720.00,4.0432
719.00,4.0123
718.00,4.0635
717.00,4.1319
716.00,4.0188
715.00,4.0490
714.00,4.4980
713.00,4.6004
712.00,4.1465
711.00,3.8547
710.00,3.7105
709.00,3.7163
708.00,3.8582
707.00,4.0881
706.00,4.0908
705.00,3.9327
704.00,3.8295
703.00,3.7984
702.00,3.8650
701.00,3.9799
700.00,4.0252
