Created as New Dataset,Sample 107 By Administrator Date Wednesday, November 24 2021
cm-1,A
7502.00,1.1809
7501.00,1.1763
7500.00,1.1718
7499.00,1.1673
7498.00,1.1629
7497.00,1.1585
7496.00,1.1541
7495.00,1.1499
7494.00,1.1456
7493.00,1.1410
7492.00,1.1358
7491.00,1.1300
7490.00,1.1240
7489.00,1.1176
7488.00,1.1110
7487.00,1.1041
7486.00,1.0967
7485.00,1.0885
7484.00,1.0794
7483.00,1.0700
7482.00,1.0609
7481.00,1.0522
7480.00,1.0436
7479.00,1.0351
7478.00,1.0265
7477.00,1.0178
7476.00,1.0089
7475.00,0.9998
7474.00,0.9907
7473.00,0.9818
7472.00,0.9731
7471.00,0.9643
7470.00,0.9552
7469.00,0.9459
7468.00,0.9367
7467.00,0.9277
7466.00,0.9188
7465.00,0.9095
7464.00,0.8999
7463.00,0.8905
7462.00,0.8819
7461.00,0.8740
7460.00,0.8662
7459.00,0.8584
7458.00,0.8506
7457.00,0.8434
7456.00,0.8368
7455.00,0.8305
7454.00,0.8243
7453.00,0.8186
7452.00,0.8135
7451.00,0.8091
7450.00,0.8050
7449.00,0.8012
7448.00,0.7979
7447.00,0.7953
7446.00,0.7934
7445.00,0.7919
7444.00,0.7907
7443.00,0.7898
7442.00,0.7894
7441.00,0.7897
7440.00,0.7904
7439.00,0.7916
7438.00,0.7934
7437.00,0.7959
7436.00,0.7989
7435.00,0.8022
7434.00,0.8058
7433.00,0.8099
7432.00,0.8146
7431.00,0.8198
7430.00,0.8251
7429.00,0.8307
7428.00,0.8369
7427.00,0.8437
7426.00,0.8508
7425.00,0.8579
7424.00,0.8651
7423.00,0.8728
7422.00,0.8808
7421.00,0.8889
7420.00,0.8968
7419.00,0.9046
7418.00,0.9123
7417.00,0.9202
7416.00,0.9284
7415.00,0.9365
7414.00,0.9443
7413.00,0.9518
7412.00,0.9597
7411.00,0.9680
7410.00,0.9765
7409.00,0.9845
7408.00,0.9922
7407.00,1.0000
7406.00,1.0082
7405.00,1.0163
7404.00,1.0240
7403.00,1.0311
7402.00,1.0378
7401.00,1.0444
7400.00,1.0506
7399.00,1.0563
7398.00,1.0613
7397.00,1.0656
7396.00,1.0694
7395.00,1.0733
7394.00,1.0775
7393.00,1.0819
7392.00,1.0861
7391.00,1.0902
7390.00,1.0939
7389.00,1.0972
7388.00,1.0999
7387.00,1.1021
7386.00,1.1041
7385.00,1.1062
7384.00,1.1083
7383.00,1.1102
7382.00,1.1121
7381.00,1.1141
7380.00,1.1163
7379.00,1.1182
7378.00,1.1192
7377.00,1.1190
7376.00,1.1178
7375.00,1.1158
7374.00,1.1126
7373.00,1.1079
7372.00,1.1019
7371.00,1.0954
7370.00,1.0892
7369.00,1.0836
7368.00,1.0789
7367.00,1.0753
7366.00,1.0730
7365.00,1.0712
7364.00,1.0690
7363.00,1.0663
7362.00,1.0635
7361.00,1.0613
7360.00,1.0594
7359.00,1.0572
7358.00,1.0546
7357.00,1.0520
7356.00,1.0495
7355.00,1.0472
7354.00,1.0450
7353.00,1.0430
7352.00,1.0410
7351.00,1.0385
7350.00,1.0348
7349.00,1.0297
7348.00,1.0232
7347.00,1.0155
7346.00,1.0069
7345.00,0.9978
7344.00,0.9893
7343.00,0.9820
7342.00,0.9758
7341.00,0.9702
7340.00,0.9648
7339.00,0.9589
7338.00,0.9521
7337.00,0.9439
7336.00,0.9345
7335.00,0.9250
7334.00,0.9160
7333.00,0.9075
7332.00,0.8991
7331.00,0.8909
7330.00,0.8828
7329.00,0.8747
7328.00,0.8667
7327.00,0.8585
7326.00,0.8505
7325.00,0.8427
7324.00,0.8355
7323.00,0.8290
7322.00,0.8231
7321.00,0.8175
7320.00,0.8122
7319.00,0.8070
7318.00,0.8022
7317.00,0.7977
7316.00,0.7935
7315.00,0.7897
7314.00,0.7865
7313.00,0.7839
7312.00,0.7819
7311.00,0.7803
7310.00,0.7790
7309.00,0.7781
7308.00,0.7775
7307.00,0.7776
7306.00,0.7782
7305.00,0.7794
7304.00,0.7811
7303.00,0.7834
7302.00,0.7864
7301.00,0.7901
7300.00,0.7944
7299.00,0.7991
7298.00,0.8042
7297.00,0.8096
7296.00,0.8152
7295.00,0.8212
7294.00,0.8274
7293.00,0.8337
7292.00,0.8400
7291.00,0.8467
7290.00,0.8540
7289.00,0.8620
7288.00,0.8708
7287.00,0.8798
7286.00,0.8887
7285.00,0.8975
7284.00,0.9064
7283.00,0.9154
7282.00,0.9243
7281.00,0.9331
7280.00,0.9417
7279.00,0.9504
7278.00,0.9597
7277.00,0.9693
7276.00,0.9791
7275.00,0.9889
7274.00,0.9985
7273.00,1.0078
7272.00,1.0170
7271.00,1.0264
7270.00,1.0362
7269.00,1.0458
7268.00,1.0546
7267.00,1.0623
7266.00,1.0696
7265.00,1.0772
7264.00,1.0850
7263.00,1.0926
7262.00,1.1000
7261.00,1.1075
7260.00,1.1155
7259.00,1.1238
7258.00,1.1320
7257.00,1.1394
7256.00,1.1457
7255.00,1.1507
7254.00,1.1551
7253.00,1.1594
7252.00,1.1640
7251.00,1.1687
7250.00,1.1731
7249.00,1.1773
7248.00,1.1809
7247.00,1.1837
7246.00,1.1857
7245.00,1.1871
7244.00,1.1883
7243.00,1.1894
7242.00,1.1905
7241.00,1.1916
7240.00,1.1926
7239.00,1.1932
7238.00,1.1936
7237.00,1.1937
7236.00,1.1934
7235.00,1.1925
7234.00,1.1911
7233.00,1.1894
7232.00,1.1877
7231.00,1.1860
7230.00,1.1837
7229.00,1.1804
7228.00,1.1762
7227.00,1.1716
7226.00,1.1674
7225.00,1.1634
7224.00,1.1592
7223.00,1.1542
7222.00,1.1486
7221.00,1.1429
7220.00,1.1372
7219.00,1.1306
7218.00,1.1229
7217.00,1.1146
7216.00,1.1063
7215.00,1.0982
7214.00,1.0901
7213.00,1.0816
7212.00,1.0732
7211.00,1.0650
7210.00,1.0566
7209.00,1.0476
7208.00,1.0381
7207.00,1.0284
7206.00,1.0189
7205.00,1.0096
7204.00,1.0004
7203.00,0.9911
7202.00,0.9819
7201.00,0.9727
7200.00,0.9634
7199.00,0.9539
7198.00,0.9444
7197.00,0.9348
7196.00,0.9253
7195.00,0.9156
7194.00,0.9060
7193.00,0.8967
7192.00,0.8878
7191.00,0.8790
7190.00,0.8702
7189.00,0.8618
7188.00,0.8539
7187.00,0.8465
7186.00,0.8394
7185.00,0.8324
7184.00,0.8261
7183.00,0.8203
7182.00,0.8150
7181.00,0.8098
7180.00,0.8047
7179.00,0.8003
7178.00,0.7966
7177.00,0.7935
7176.00,0.7908
7175.00,0.7888
7174.00,0.7875
7173.00,0.7870
7172.00,0.7871
7171.00,0.7876
7170.00,0.7887
7169.00,0.7902
7168.00,0.7922
7167.00,0.7945
7166.00,0.7971
7165.00,0.8003
7164.00,0.8039
7163.00,0.8081
7162.00,0.8127
7161.00,0.8179
7160.00,0.8236
7159.00,0.8299
7158.00,0.8366
7157.00,0.8436
7156.00,0.8509
7155.00,0.8583
7154.00,0.8659
7153.00,0.8738
7152.00,0.8818
7151.00,0.8900
7150.00,0.8984
7149.00,0.9070
7148.00,0.9159
7147.00,0.9249
7146.00,0.9340
7145.00,0.9432
7144.00,0.9524
7143.00,0.9614
7142.00,0.9703
7141.00,0.9792
7140.00,0.9882
7139.00,0.9974
7138.00,1.0068
7137.00,1.0163
7136.00,1.0256
7135.00,1.0346
7134.00,1.0433
7133.00,1.0516
7132.00,1.0597
7131.00,1.0674
7130.00,1.0743
7129.00,1.0809
7128.00,1.0876
7127.00,1.0947
7126.00,1.1017
7125.00,1.1083
7124.00,1.1145
7123.00,1.1208
7122.00,1.1271
7121.00,1.1330
7120.00,1.1382
7119.00,1.1428
7118.00,1.1471
7117.00,1.1513
7116.00,1.1553
7115.00,1.1594
7114.00,1.1634
7113.00,1.1667
7112.00,1.1690
7111.00,1.1705
7110.00,1.1720
7109.00,1.1736
7108.00,1.1749
7107.00,1.1758
7106.00,1.1768
7105.00,1.1783
7104.00,1.1800
7103.00,1.1812
7102.00,1.1814
7101.00,1.1805
7100.00,1.1789
7099.00,1.1768
7098.00,1.1745
7097.00,1.1720
7096.00,1.1692
7095.00,1.1662
7094.00,1.1630
7093.00,1.1595
7092.00,1.1556
7091.00,1.1512
7090.00,1.1465
7089.00,1.1418
7088.00,1.1371
7087.00,1.1323
7086.00,1.1270
7085.00,1.1213
7084.00,1.1153
7083.00,1.1089
7082.00,1.1020
7081.00,1.0946
7080.00,1.0868
7079.00,1.0792
7078.00,1.0718
7077.00,1.0643
7076.00,1.0564
7075.00,1.0479
7074.00,1.0390
7073.00,1.0299
7072.00,1.0206
7071.00,1.0111
7070.00,1.0015
7069.00,0.9920
7068.00,0.9827
7067.00,0.9734
7066.00,0.9641
7065.00,0.9547
7064.00,0.9450
7063.00,0.9352
7062.00,0.9255
7061.00,0.9158
7060.00,0.9063
7059.00,0.8974
7058.00,0.8890
7057.00,0.8808
7056.00,0.8724
7055.00,0.8640
7054.00,0.8561
7053.00,0.8486
7052.00,0.8414
7051.00,0.8342
7050.00,0.8273
7049.00,0.8206
7048.00,0.8143
7047.00,0.8083
7046.00,0.8031
7045.00,0.7986
7044.00,0.7947
7043.00,0.7915
7042.00,0.7888
7041.00,0.7868
7040.00,0.7851
7039.00,0.7836
7038.00,0.7824
7037.00,0.7816
7036.00,0.7816
7035.00,0.7824
7034.00,0.7840
7033.00,0.7863
7032.00,0.7890
7031.00,0.7921
7030.00,0.7956
7029.00,0.7998
7028.00,0.8047
7027.00,0.8099
7026.00,0.8154
7025.00,0.8212
7024.00,0.8273
7023.00,0.8339
7022.00,0.8409
7021.00,0.8485
7020.00,0.8564
7019.00,0.8647
7018.00,0.8733
7017.00,0.8821
7016.00,0.8912
7015.00,0.9006
7014.00,0.9100
7013.00,0.9193
7012.00,0.9285
7011.00,0.9377
7010.00,0.9469
7009.00,0.9564
7008.00,0.9658
7007.00,0.9752
7006.00,0.9848
7005.00,0.9948
7004.00,1.0051
7003.00,1.0154
7002.00,1.0251
7001.00,1.0341
7000.00,1.0427
6999.00,1.0513
6998.00,1.0599
6997.00,1.0686
6996.00,1.0772
6995.00,1.0857
6994.00,1.0940
6993.00,1.1023
6992.00,1.1106
6991.00,1.1186
6990.00,1.1260
6989.00,1.1329
6988.00,1.1397
6987.00,1.1464
6986.00,1.1530
6985.00,1.1594
6984.00,1.1656
6983.00,1.1718
6982.00,1.1777
6981.00,1.1828
6980.00,1.1867
6979.00,1.1895
6978.00,1.1917
6977.00,1.1944
6976.00,1.1976
6975.00,1.2010
6974.00,1.2044
6973.00,1.2076
6972.00,1.2107
6971.00,1.2134
6970.00,1.2150
6969.00,1.2154
6968.00,1.2150
6967.00,1.2145
6966.00,1.2141
6965.00,1.2130
6964.00,1.2110
6963.00,1.2082
6962.00,1.2052
6961.00,1.2023
6960.00,1.1995
6959.00,1.1965
6958.00,1.1933
6957.00,1.1895
6956.00,1.1850
6955.00,1.1798
6954.00,1.1741
6953.00,1.1680
6952.00,1.1615
6951.00,1.1550
6950.00,1.1487
6949.00,1.1427
6948.00,1.1367
6947.00,1.1302
6946.00,1.1232
6945.00,1.1155
6944.00,1.1075
6943.00,1.0990
6942.00,1.0902
6941.00,1.0810
6940.00,1.0714
6939.00,1.0616
6938.00,1.0520
6937.00,1.0423
6936.00,1.0325
6935.00,1.0224
6934.00,1.0120
6933.00,1.0017
6932.00,0.9913
6931.00,0.9810
6930.00,0.9707
6929.00,0.9604
6928.00,0.9502
6927.00,0.9400
6926.00,0.9297
6925.00,0.9196
6924.00,0.9098
6923.00,0.9002
6922.00,0.8909
6921.00,0.8818
6920.00,0.8729
6919.00,0.8642
6918.00,0.8559
6917.00,0.8481
6916.00,0.8404
6915.00,0.8329
6914.00,0.8258
6913.00,0.8192
6912.00,0.8131
6911.00,0.8075
6910.00,0.8024
6909.00,0.7978
6908.00,0.7940
6907.00,0.7908
6906.00,0.7883
6905.00,0.7862
6904.00,0.7845
6903.00,0.7830
6902.00,0.7822
6901.00,0.7822
6900.00,0.7831
6899.00,0.7845
6898.00,0.7865
6897.00,0.7891
6896.00,0.7924
6895.00,0.7962
6894.00,0.8003
6893.00,0.8047
6892.00,0.8095
6891.00,0.8147
6890.00,0.8204
6889.00,0.8266
6888.00,0.8333
6887.00,0.8403
6886.00,0.8477
6885.00,0.8556
6884.00,0.8641
6883.00,0.8729
6882.00,0.8818
6881.00,0.8909
6880.00,0.9001
6879.00,0.9094
6878.00,0.9188
6877.00,0.9280
6876.00,0.9372
6875.00,0.9464
6874.00,0.9559
6873.00,0.9657
6872.00,0.9756
6871.00,0.9857
6870.00,0.9959
6869.00,1.0060
6868.00,1.0158
6867.00,1.0253
6866.00,1.0345
6865.00,1.0435
6864.00,1.0525
6863.00,1.0615
6862.00,1.0706
6861.00,1.0795
6860.00,1.0881
6859.00,1.0962
6858.00,1.1042
6857.00,1.1119
6856.00,1.1195
6855.00,1.1268
6854.00,1.1338
6853.00,1.1405
6852.00,1.1468
6851.00,1.1525
6850.00,1.1582
6849.00,1.1641
6848.00,1.1699
6847.00,1.1755
6846.00,1.1805
6845.00,1.1850
6844.00,1.1891
6843.00,1.1924
6842.00,1.1952
6841.00,1.1974
6840.00,1.1994
6839.00,1.2013
6838.00,1.2033
6837.00,1.2051
6836.00,1.2063
6835.00,1.2068
6834.00,1.2069
6833.00,1.2069
6832.00,1.2066
6831.00,1.2059
6830.00,1.2045
6829.00,1.2025
6828.00,1.1997
6827.00,1.1967
6826.00,1.1939
6825.00,1.1914
6824.00,1.1889
6823.00,1.1862
6822.00,1.1832
6821.00,1.1800
6820.00,1.1760
6819.00,1.1709
6818.00,1.1648
6817.00,1.1582
6816.00,1.1515
6815.00,1.1446
6814.00,1.1377
6813.00,1.1308
6812.00,1.1240
6811.00,1.1169
6810.00,1.1096
6809.00,1.1018
6808.00,1.0935
6807.00,1.0849
6806.00,1.0758
6805.00,1.0662
6804.00,1.0563
6803.00,1.0465
6802.00,1.0372
6801.00,1.0281
6800.00,1.0188
6799.00,1.0090
6798.00,0.9991
6797.00,0.9891
6796.00,0.9788
6795.00,0.9680
6794.00,0.9570
6793.00,0.9464
6792.00,0.9362
6791.00,0.9262
6790.00,0.9162
6789.00,0.9062
6788.00,0.8964
6787.00,0.8867
6786.00,0.8772
6785.00,0.8679
6784.00,0.8590
6783.00,0.8504
6782.00,0.8421
6781.00,0.8341
6780.00,0.8265
6779.00,0.8194
6778.00,0.8129
6777.00,0.8068
6776.00,0.8012
6775.00,0.7959
6774.00,0.7911
6773.00,0.7868
6772.00,0.7831
6771.00,0.7799
6770.00,0.7773
6769.00,0.7755
6768.00,0.7743
6767.00,0.7740
6766.00,0.7742
6765.00,0.7749
6764.00,0.7761
6763.00,0.7777
6762.00,0.7800
6761.00,0.7832
6760.00,0.7870
6759.00,0.7912
6758.00,0.7959
6757.00,0.8012
6756.00,0.8071
6755.00,0.8135
6754.00,0.8201
6753.00,0.8271
6752.00,0.8345
6751.00,0.8423
6750.00,0.8505
6749.00,0.8590
6748.00,0.8678
6747.00,0.8769
6746.00,0.8862
6745.00,0.8958
6744.00,0.9055
6743.00,0.9152
6742.00,0.9249
6741.00,0.9348
6740.00,0.9448
6739.00,0.9548
6738.00,0.9652
6737.00,0.9757
6736.00,0.9864
6735.00,0.9969
6734.00,1.0070
6733.00,1.0170
6732.00,1.0268
6731.00,1.0366
6730.00,1.0461
6729.00,1.0555
6728.00,1.0649
6727.00,1.0744
6726.00,1.0840
6725.00,1.0935
6724.00,1.1028
6723.00,1.1119
6722.00,1.1209
6721.00,1.1295
6720.00,1.1375
6719.00,1.1448
6718.00,1.1517
6717.00,1.1588
6716.00,1.1658
6715.00,1.1726
6714.00,1.1792
6713.00,1.1855
6712.00,1.1914
6711.00,1.1966
6710.00,1.2009
6709.00,1.2046
6708.00,1.2081
6707.00,1.2117
6706.00,1.2153
6705.00,1.2188
6704.00,1.2219
6703.00,1.2244
6702.00,1.2264
6701.00,1.2280
6700.00,1.2291
6699.00,1.2294
6698.00,1.2293
6697.00,1.2292
6696.00,1.2291
6695.00,1.2285
6694.00,1.2272
6693.00,1.2258
6692.00,1.2244
6691.00,1.2228
6690.00,1.2202
6689.00,1.2168
6688.00,1.2128
6687.00,1.2083
6686.00,1.2034
6685.00,1.1983
6684.00,1.1930
6683.00,1.1875
6682.00,1.1820
6681.00,1.1763
6680.00,1.1705
6679.00,1.1644
6678.00,1.1577
6677.00,1.1502
6676.00,1.1422
6675.00,1.1338
6674.00,1.1251
6673.00,1.1162
6672.00,1.1070
6671.00,1.0979
6670.00,1.0888
6669.00,1.0795
6668.00,1.0699
6667.00,1.0598
6666.00,1.0494
6665.00,1.0389
6664.00,1.0283
6663.00,1.0177
6662.00,1.0069
6661.00,0.9959
6660.00,0.9849
6659.00,0.9740
6658.00,0.9633
6657.00,0.9524
6656.00,0.9415
6655.00,0.9308
6654.00,0.9203
6653.00,0.9103
6652.00,0.9003
6651.00,0.8903
6650.00,0.8804
6649.00,0.8710
6648.00,0.8620
6647.00,0.8531
6646.00,0.8444
6645.00,0.8361
6644.00,0.8284
6643.00,0.8212
6642.00,0.8146
6641.00,0.8084
6640.00,0.8025
6639.00,0.7971
6638.00,0.7922
6637.00,0.7880
6636.00,0.7846
6635.00,0.7820
6634.00,0.7800
6633.00,0.7787
6632.00,0.7779
6631.00,0.7777
6630.00,0.7780
6629.00,0.7789
6628.00,0.7804
6627.00,0.7826
6626.00,0.7856
6625.00,0.7892
6624.00,0.7935
6623.00,0.7984
6622.00,0.8038
6621.00,0.8096
6620.00,0.8158
6619.00,0.8226
6618.00,0.8299
6617.00,0.8376
6616.00,0.8456
6615.00,0.8537
6614.00,0.8622
6613.00,0.8711
6612.00,0.8803
6611.00,0.8897
6610.00,0.8994
6609.00,0.9094
6608.00,0.9196
6607.00,0.9299
6606.00,0.9401
6605.00,0.9502
6604.00,0.9601
6603.00,0.9699
6602.00,0.9797
6601.00,0.9897
6600.00,0.9999
6599.00,1.0101
6598.00,1.0205
6597.00,1.0310
6596.00,1.0414
6595.00,1.0515
6594.00,1.0612
6593.00,1.0707
6592.00,1.0798
6591.00,1.0886
6590.00,1.0971
6589.00,1.1055
6588.00,1.1140
6587.00,1.1225
6586.00,1.1308
6585.00,1.1387
6584.00,1.1461
6583.00,1.1531
6582.00,1.1599
6581.00,1.1662
6580.00,1.1719
6579.00,1.1772
6578.00,1.1826
6577.00,1.1881
6576.00,1.1933
6575.00,1.1978
6574.00,1.2016
6573.00,1.2052
6572.00,1.2085
6571.00,1.2114
6570.00,1.2140
6569.00,1.2164
6568.00,1.2184
6567.00,1.2198
6566.00,1.2206
6565.00,1.2208
6564.00,1.2206
6563.00,1.2198
6562.00,1.2187
6561.00,1.2173
6560.00,1.2160
6559.00,1.2146
6558.00,1.2126
6557.00,1.2100
6556.00,1.2071
6555.00,1.2039
6554.00,1.2005
6553.00,1.1967
6552.00,1.1926
6551.00,1.1882
6550.00,1.1835
6549.00,1.1784
6548.00,1.1728
6547.00,1.1669
6546.00,1.1610
6545.00,1.1548
6544.00,1.1482
6543.00,1.1415
6542.00,1.1345
6541.00,1.1273
6540.00,1.1197
6539.00,1.1114
6538.00,1.1028
6537.00,1.0939
6536.00,1.0847
6535.00,1.0753
6534.00,1.0657
6533.00,1.0559
6532.00,1.0462
6531.00,1.0364
6530.00,1.0267
6529.00,1.0168
6528.00,1.0068
6527.00,0.9967
6526.00,0.9864
6525.00,0.9761
6524.00,0.9657
6523.00,0.9551
6522.00,0.9444
6521.00,0.9337
6520.00,0.9231
6519.00,0.9125
6518.00,0.9021
6517.00,0.8919
6516.00,0.8820
6515.00,0.8724
6514.00,0.8631
6513.00,0.8541
6512.00,0.8454
6511.00,0.8370
6510.00,0.8291
6509.00,0.8214
6508.00,0.8141
6507.00,0.8072
6506.00,0.8007
6505.00,0.7947
6504.00,0.7891
6503.00,0.7842
6502.00,0.7802
6501.00,0.7771
6500.00,0.7747
6499.00,0.7728
6498.00,0.7714
6497.00,0.7708
6496.00,0.7708
6495.00,0.7713
6494.00,0.7723
6493.00,0.7740
6492.00,0.7765
6491.00,0.7798
6490.00,0.7836
6489.00,0.7878
6488.00,0.7925
6487.00,0.7978
6486.00,0.8038
6485.00,0.8105
6484.00,0.8178
6483.00,0.8255
6482.00,0.8336
6481.00,0.8422
6480.00,0.8511
6479.00,0.8601
6478.00,0.8692
6477.00,0.8785
6476.00,0.8880
6475.00,0.8979
6474.00,0.9080
6473.00,0.9184
6472.00,0.9289
6471.00,0.9395
6470.00,0.9503
6469.00,0.9612
6468.00,0.9719
6467.00,0.9825
6466.00,0.9933
6465.00,1.0042
6464.00,1.0154
6463.00,1.0265
6462.00,1.0375
6461.00,1.0485
6460.00,1.0594
6459.00,1.0701
6458.00,1.0805
6457.00,1.0907
6456.00,1.1006
6455.00,1.1100
6454.00,1.1189
6453.00,1.1274
6452.00,1.1356
6451.00,1.1436
6450.00,1.1516
6449.00,1.1597
6448.00,1.1680
6447.00,1.1762
6446.00,1.1841
6445.00,1.1916
6444.00,1.1985
6443.00,1.2049
6442.00,1.2105
6441.00,1.2158
6440.00,1.2210
6439.00,1.2259
6438.00,1.2301
6437.00,1.2337
6436.00,1.2369
6435.00,1.2401
6434.00,1.2431
6433.00,1.2457
6432.00,1.2479
6431.00,1.2499
6430.00,1.2515
6429.00,1.2525
6428.00,1.2528
6427.00,1.2527
6426.00,1.2523
6425.00,1.2516
6424.00,1.2505
6423.00,1.2492
6422.00,1.2479
6421.00,1.2462
6420.00,1.2438
6419.00,1.2406
6418.00,1.2367
6417.00,1.2324
6416.00,1.2276
6415.00,1.2224
6414.00,1.2165
6413.00,1.2104
6412.00,1.2044
6411.00,1.1988
6410.00,1.1930
6409.00,1.1867
6408.00,1.1796
6407.00,1.1721
6406.00,1.1644
6405.00,1.1564
6404.00,1.1476
6403.00,1.1383
6402.00,1.1287
6401.00,1.1190
6400.00,1.1093
6399.00,1.0993
6398.00,1.0890
6397.00,1.0786
6396.00,1.0680
6395.00,1.0571
6394.00,1.0460
6393.00,1.0347
6392.00,1.0233
6391.00,1.0118
6390.00,1.0002
6389.00,0.9887
6388.00,0.9772
6387.00,0.9656
6386.00,0.9541
6385.00,0.9425
6384.00,0.9310
6383.00,0.9197
6382.00,0.9086
6381.00,0.8978
6380.00,0.8872
6379.00,0.8768
6378.00,0.8668
6377.00,0.8571
6376.00,0.8476
6375.00,0.8385
6374.00,0.8299
6373.00,0.8218
6372.00,0.8143
6371.00,0.8074
6370.00,0.8011
6369.00,0.7956
6368.00,0.7906
6367.00,0.7862
6366.00,0.7823
6365.00,0.7791
6364.00,0.7766
6363.00,0.7748
6362.00,0.7737
6361.00,0.7733
6360.00,0.7737
6359.00,0.7746
6358.00,0.7763
6357.00,0.7786
6356.00,0.7817
6355.00,0.7853
6354.00,0.7896
6353.00,0.7946
6352.00,0.8002
6351.00,0.8062
6350.00,0.8126
6349.00,0.8194
6348.00,0.8268
6347.00,0.8348
6346.00,0.8434
6345.00,0.8526
6344.00,0.8620
6343.00,0.8717
6342.00,0.8816
6341.00,0.8915
6340.00,0.9016
6339.00,0.9118
6338.00,0.9222
6337.00,0.9329
6336.00,0.9437
6335.00,0.9544
6334.00,0.9653
6333.00,0.9762
6332.00,0.9871
6331.00,0.9980
6330.00,1.0090
6329.00,1.0200
6328.00,1.0309
6327.00,1.0418
6326.00,1.0526
6325.00,1.0633
6324.00,1.0737
6323.00,1.0838
6322.00,1.0937
6321.00,1.1033
6320.00,1.1127
6319.00,1.1217
6318.00,1.1307
6317.00,1.1398
6316.00,1.1489
6315.00,1.1576
6314.00,1.1657
6313.00,1.1731
6312.00,1.1801
6311.00,1.1867
6310.00,1.1928
6309.00,1.1985
6308.00,1.2038
6307.00,1.2090
6306.00,1.2140
6305.00,1.2188
6304.00,1.2230
6303.00,1.2268
6302.00,1.2304
6301.00,1.2337
6300.00,1.2366
6299.00,1.2389
6298.00,1.2408
6297.00,1.2423
6296.00,1.2435
6295.00,1.2444
6294.00,1.2452
6293.00,1.2456
6292.00,1.2454
6291.00,1.2448
6290.00,1.2437
6289.00,1.2421
6288.00,1.2399
6287.00,1.2370
6286.00,1.2339
6285.00,1.2306
6284.00,1.2273
6283.00,1.2238
6282.00,1.2201
6281.00,1.2164
6280.00,1.2124
6279.00,1.2080
6278.00,1.2029
6277.00,1.1971
6276.00,1.1906
6275.00,1.1835
6274.00,1.1762
6273.00,1.1687
6272.00,1.1611
6271.00,1.1533
6270.00,1.1453
6269.00,1.1372
6268.00,1.1287
6267.00,1.1199
6266.00,1.1108
6265.00,1.1014
6264.00,1.0916
6263.00,1.0816
6262.00,1.0716
6261.00,1.0614
6260.00,1.0510
6259.00,1.0403
6258.00,1.0294
6257.00,1.0183
6256.00,1.0070
6255.00,0.9955
6254.00,0.9837
6253.00,0.9719
6252.00,0.9602
6251.00,0.9487
6250.00,0.9374
6249.00,0.9265
6248.00,0.9155
6247.00,0.9046
6246.00,0.8937
6245.00,0.8831
6244.00,0.8726
6243.00,0.8622
6242.00,0.8522
6241.00,0.8427
6240.00,0.8338
6239.00,0.8253
6238.00,0.8173
6237.00,0.8099
6236.00,0.8029
6235.00,0.7964
6234.00,0.7905
6233.00,0.7853
6232.00,0.7807
6231.00,0.7766
6230.00,0.7732
6229.00,0.7707
6228.00,0.7690
6227.00,0.7681
6226.00,0.7680
6225.00,0.7684
6224.00,0.7694
6223.00,0.7711
6222.00,0.7735
6221.00,0.7767
6220.00,0.7807
6219.00,0.7853
6218.00,0.7907
6217.00,0.7967
6216.00,0.8031
6215.00,0.8098
6214.00,0.8171
6213.00,0.8250
6212.00,0.8334
6211.00,0.8422
6210.00,0.8514
6209.00,0.8610
6208.00,0.8709
6207.00,0.8809
6206.00,0.8911
6205.00,0.9018
6204.00,0.9128
6203.00,0.9241
6202.00,0.9354
6201.00,0.9466
6200.00,0.9580
6199.00,0.9694
6198.00,0.9809
6197.00,0.9923
6196.00,1.0037
6195.00,1.0152
6194.00,1.0269
6193.00,1.0385
6192.00,1.0498
6191.00,1.0609
6190.00,1.0719
6189.00,1.0830
6188.00,1.0940
6187.00,1.1048
6186.00,1.1155
6185.00,1.1263
6184.00,1.1368
6183.00,1.1468
6182.00,1.1561
6181.00,1.1650
6180.00,1.1736
6179.00,1.1821
6178.00,1.1903
6177.00,1.1981
6176.00,1.2055
6175.00,1.2127
6174.00,1.2195
6173.00,1.2260
6172.00,1.2320
6171.00,1.2376
6170.00,1.2432
6169.00,1.2486
6168.00,1.2535
6167.00,1.2576
6166.00,1.2609
6165.00,1.2640
6164.00,1.2669
6163.00,1.2697
6162.00,1.2722
6161.00,1.2745
6160.00,1.2763
6159.00,1.2775
6158.00,1.2780
6157.00,1.2780
6156.00,1.2773
6155.00,1.2757
6154.00,1.2736
6153.00,1.2716
6152.00,1.2698
6151.00,1.2678
6150.00,1.2652
6149.00,1.2625
6148.00,1.2596
6147.00,1.2561
6146.00,1.2516
6145.00,1.2462
6144.00,1.2402
6143.00,1.2339
6142.00,1.2274
6141.00,1.2207
6140.00,1.2140
6139.00,1.2070
6138.00,1.1998
6137.00,1.1922
6136.00,1.1844
6135.00,1.1759
6134.00,1.1669
6133.00,1.1574
6132.00,1.1476
6131.00,1.1376
6130.00,1.1273
6129.00,1.1169
6128.00,1.1063
6127.00,1.0955
6126.00,1.0843
6125.00,1.0727
6124.00,1.0608
6123.00,1.0487
6122.00,1.0365
6121.00,1.0244
6120.00,1.0122
6119.00,1.0000
6118.00,0.9878
6117.00,0.9756
6116.00,0.9635
6115.00,0.9512
6114.00,0.9390
6113.00,0.9270
6112.00,0.9151
6111.00,0.9034
6110.00,0.8920
6109.00,0.8809
6108.00,0.8702
6107.00,0.8598
6106.00,0.8497
6105.00,0.8399
6104.00,0.8306
6103.00,0.8218
6102.00,0.8135
6101.00,0.8059
6100.00,0.7989
6099.00,0.7926
6098.00,0.7870
6097.00,0.7820
6096.00,0.7776
6095.00,0.7737
6094.00,0.7705
6093.00,0.7681
6092.00,0.7666
6091.00,0.7659
6090.00,0.7660
6089.00,0.7670
6088.00,0.7688
6087.00,0.7713
6086.00,0.7745
6085.00,0.7784
6084.00,0.7830
6083.00,0.7883
6082.00,0.7942
6081.00,0.8006
6080.00,0.8075
6079.00,0.8150
6078.00,0.8230
6077.00,0.8316
6076.00,0.8405
6075.00,0.8498
6074.00,0.8594
6073.00,0.8693
6072.00,0.8795
6071.00,0.8899
6070.00,0.9008
6069.00,0.9118
6068.00,0.9231
6067.00,0.9345
6066.00,0.9460
6065.00,0.9575
6064.00,0.9690
6063.00,0.9806
6062.00,0.9923
6061.00,1.0041
6060.00,1.0157
6059.00,1.0273
6058.00,1.0389
6057.00,1.0504
6056.00,1.0618
6055.00,1.0729
6054.00,1.0839
6053.00,1.0946
6052.00,1.1050
6051.00,1.1152
6050.00,1.1252
6049.00,1.1351
6048.00,1.1447
6047.00,1.1538
6046.00,1.1627
6045.00,1.1713
6044.00,1.1797
6043.00,1.1877
6042.00,1.1957
6041.00,1.2039
6040.00,1.2122
6039.00,1.2200
6038.00,1.2272
6037.00,1.2337
6036.00,1.2399
6035.00,1.2456
6034.00,1.2507
6033.00,1.2553
6032.00,1.2595
6031.00,1.2631
6030.00,1.2663
6029.00,1.2692
6028.00,1.2718
6027.00,1.2742
6026.00,1.2763
6025.00,1.2779
6024.00,1.2792
6023.00,1.2801
6022.00,1.2806
6021.00,1.2809
6020.00,1.2809
6019.00,1.2805
6018.00,1.2796
6017.00,1.2781
6016.00,1.2762
6015.00,1.2737
6014.00,1.2708
6013.00,1.2673
6012.00,1.2635
6011.00,1.2594
6010.00,1.2551
6009.00,1.2504
6008.00,1.2453
6007.00,1.2396
6006.00,1.2335
6005.00,1.2270
6004.00,1.2199
6003.00,1.2124
6002.00,1.2047
6001.00,1.1969
6000.00,1.1888
5999.00,1.1803
5998.00,1.1710
5997.00,1.1613
5996.00,1.1512
5995.00,1.1407
5994.00,1.1299
5993.00,1.1190
5992.00,1.1078
5991.00,1.0964
5990.00,1.0845
5989.00,1.0725
5988.00,1.0603
5987.00,1.0481
5986.00,1.0359
5985.00,1.0234
5984.00,1.0108
5983.00,0.9980
5982.00,0.9851
5981.00,0.9721
5980.00,0.9593
5979.00,0.9468
5978.00,0.9345
5977.00,0.9224
5976.00,0.9104
5975.00,0.8984
5974.00,0.8867
5973.00,0.8752
5972.00,0.8642
5971.00,0.8536
5970.00,0.8434
5969.00,0.8337
5968.00,0.8245
5967.00,0.8159
5966.00,0.8080
5965.00,0.8008
5964.00,0.7944
5963.00,0.7887
5962.00,0.7835
5961.00,0.7790
5960.00,0.7752
5959.00,0.7722
5958.00,0.7701
5957.00,0.7687
5956.00,0.7682
5955.00,0.7685
5954.00,0.7696
5953.00,0.7716
5952.00,0.7744
5951.00,0.7779
5950.00,0.7822
5949.00,0.7871
5948.00,0.7927
5947.00,0.7989
5946.00,0.8057
5945.00,0.8132
5944.00,0.8213
5943.00,0.8300
5942.00,0.8394
5941.00,0.8492
5940.00,0.8594
5939.00,0.8699
5938.00,0.8806
5937.00,0.8917
5936.00,0.9031
5935.00,0.9149
5934.00,0.9270
5933.00,0.9394
5932.00,0.9519
5931.00,0.9643
5930.00,0.9766
5929.00,0.9890
5928.00,1.0014
5927.00,1.0140
5926.00,1.0265
5925.00,1.0390
5924.00,1.0513
5923.00,1.0634
5922.00,1.0753
5921.00,1.0872
5920.00,1.0992
5919.00,1.1112
5918.00,1.1232
5917.00,1.1348
5916.00,1.1460
5915.00,1.1567
5914.00,1.1671
5913.00,1.1772
5912.00,1.1872
5911.00,1.1970
5910.00,1.2067
5909.00,1.2160
5908.00,1.2248
5907.00,1.2330
5906.00,1.2408
5905.00,1.2483
5904.00,1.2558
5903.00,1.2629
5902.00,1.2698
5901.00,1.2760
5900.00,1.2817
5899.00,1.2868
5898.00,1.2914
5897.00,1.2955
5896.00,1.2993
5895.00,1.3028
5894.00,1.3059
5893.00,1.3085
5892.00,1.3106
5891.00,1.3124
5890.00,1.3139
5889.00,1.3150
5888.00,1.3156
5887.00,1.3155
5886.00,1.3148
5885.00,1.3136
5884.00,1.3122
5883.00,1.3105
5882.00,1.3086
5881.00,1.3066
5880.00,1.3044
5879.00,1.3017
5878.00,1.2984
5877.00,1.2946
5876.00,1.2903
5875.00,1.2857
5874.00,1.2805
5873.00,1.2746
5872.00,1.2681
5871.00,1.2610
5870.00,1.2537
5869.00,1.2462
5868.00,1.2387
5867.00,1.2310
5866.00,1.2232
5865.00,1.2151
5864.00,1.2065
5863.00,1.1972
5862.00,1.1872
5861.00,1.1768
5860.00,1.1660
5859.00,1.1549
5858.00,1.1436
5857.00,1.1322
5856.00,1.1208
5855.00,1.1092
5854.00,1.0971
5853.00,1.0848
5852.00,1.0722
5851.00,1.0594
5850.00,1.0464
5849.00,1.0334
5848.00,1.0206
5847.00,1.0079
5846.00,0.9951
5845.00,0.9821
5844.00,0.9692
5843.00,0.9564
5842.00,0.9439
5841.00,0.9316
5840.00,0.9196
5839.00,0.9078
5838.00,0.8964
5837.00,0.8853
5836.00,0.8745
5835.00,0.8641
5834.00,0.8541
5833.00,0.8448
5832.00,0.8362
5831.00,0.8282
5830.00,0.8208
5829.00,0.8139
5828.00,0.8077
5827.00,0.8021
5826.00,0.7972
5825.00,0.7930
5824.00,0.7896
5823.00,0.7870
5822.00,0.7852
5821.00,0.7842
5820.00,0.7840
5819.00,0.7847
5818.00,0.7861
5817.00,0.7884
5816.00,0.7915
5815.00,0.7954
5814.00,0.7999
5813.00,0.8052
5812.00,0.8112
5811.00,0.8180
5810.00,0.8253
5809.00,0.8332
5808.00,0.8416
5807.00,0.8503
5806.00,0.8595
5805.00,0.8692
5804.00,0.8793
5803.00,0.8898
5802.00,0.9007
5801.00,0.9119
5800.00,0.9234
5799.00,0.9351
5798.00,0.9468
5797.00,0.9588
5796.00,0.9710
5795.00,0.9834
5794.00,0.9959
5793.00,1.0086
5792.00,1.0213
5791.00,1.0340
5790.00,1.0465
5789.00,1.0590
5788.00,1.0713
5787.00,1.0835
5786.00,1.0957
5785.00,1.1078
5784.00,1.1197
5783.00,1.1315
5782.00,1.1430
5781.00,1.1543
5780.00,1.1655
5779.00,1.1766
5778.00,1.1875
5777.00,1.1980
5776.00,1.2079
5775.00,1.2173
5774.00,1.2266
5773.00,1.2357
5772.00,1.2448
5771.00,1.2538
5770.00,1.2627
5769.00,1.2709
5768.00,1.2783
5767.00,1.2846
5766.00,1.2901
5765.00,1.2951
5764.00,1.2999
5763.00,1.3044
5762.00,1.3088
5761.00,1.3129
5760.00,1.3167
5759.00,1.3201
5758.00,1.3230
5757.00,1.3255
5756.00,1.3275
5755.00,1.3290
5754.00,1.3300
5753.00,1.3307
5752.00,1.3313
5751.00,1.3316
5750.00,1.3314
5749.00,1.3305
5748.00,1.3292
5747.00,1.3275
5746.00,1.3254
5745.00,1.3231
5744.00,1.3204
5743.00,1.3174
5742.00,1.3140
5741.00,1.3100
5740.00,1.3057
5739.00,1.3010
5738.00,1.2958
5737.00,1.2900
5736.00,1.2836
5735.00,1.2765
5734.00,1.2689
5733.00,1.2609
5732.00,1.2530
5731.00,1.2452
5730.00,1.2373
5729.00,1.2288
5728.00,1.2196
5727.00,1.2097
5726.00,1.1991
5725.00,1.1880
5724.00,1.1768
5723.00,1.1655
5722.00,1.1540
5721.00,1.1420
5720.00,1.1296
5719.00,1.1168
5718.00,1.1038
5717.00,1.0908
5716.00,1.0776
5715.00,1.0641
5714.00,1.0506
5713.00,1.0369
5712.00,1.0231
5711.00,1.0093
5710.00,0.9957
5709.00,0.9820
5708.00,0.9685
5707.00,0.9550
5706.00,0.9418
5705.00,0.9289
5704.00,0.9162
5703.00,0.9038
5702.00,0.8917
5701.00,0.8799
5700.00,0.8682
5699.00,0.8571
5698.00,0.8465
5697.00,0.8367
5696.00,0.8275
5695.00,0.8189
5694.00,0.8108
5693.00,0.8035
5692.00,0.7968
5691.00,0.7910
5690.00,0.7862
5689.00,0.7822
5688.00,0.7791
5687.00,0.7767
5686.00,0.7750
5685.00,0.7742
5684.00,0.7742
5683.00,0.7752
5682.00,0.7772
5681.00,0.7803
5680.00,0.7842
5679.00,0.7889
5678.00,0.7944
5677.00,0.8006
5676.00,0.8074
5675.00,0.8148
5674.00,0.8228
5673.00,0.8315
5672.00,0.8407
5671.00,0.8505
5670.00,0.8609
5669.00,0.8719
5668.00,0.8832
5667.00,0.8948
5666.00,0.9065
5665.00,0.9185
5664.00,0.9307
5663.00,0.9432
5662.00,0.9559
5661.00,0.9689
5660.00,0.9821
5659.00,0.9954
5658.00,1.0086
5657.00,1.0217
5656.00,1.0349
5655.00,1.0481
5654.00,1.0612
5653.00,1.0742
5652.00,1.0870
5651.00,1.0997
5650.00,1.1122
5649.00,1.1245
5648.00,1.1366
5647.00,1.1485
5646.00,1.1603
5645.00,1.1720
5644.00,1.1834
5643.00,1.1944
5642.00,1.2050
5641.00,1.2152
5640.00,1.2247
5639.00,1.2337
5638.00,1.2424
5637.00,1.2509
5636.00,1.2591
5635.00,1.2669
5634.00,1.2741
5633.00,1.2809
5632.00,1.2872
5631.00,1.2928
5630.00,1.2980
5629.00,1.3028
5628.00,1.3075
5627.00,1.3117
5626.00,1.3154
5625.00,1.3185
5624.00,1.3212
5623.00,1.3234
5622.00,1.3252
5621.00,1.3266
5620.00,1.3278
5619.00,1.3287
5618.00,1.3294
5617.00,1.3296
5616.00,1.3293
5615.00,1.3286
5614.00,1.3273
5613.00,1.3256
5612.00,1.3235
5611.00,1.3213
5610.00,1.3191
5609.00,1.3168
5608.00,1.3143
5607.00,1.3113
5606.00,1.3076
5605.00,1.3033
5604.00,1.2984
5603.00,1.2929
5602.00,1.2871
5601.00,1.2812
5600.00,1.2749
5599.00,1.2683
5598.00,1.2610
5597.00,1.2532
5596.00,1.2451
5595.00,1.2366
5594.00,1.2278
5593.00,1.2187
5592.00,1.2093
5591.00,1.1994
5590.00,1.1889
5589.00,1.1780
5588.00,1.1666
5587.00,1.1551
5586.00,1.1432
5585.00,1.1310
5584.00,1.1184
5583.00,1.1056
5582.00,1.0924
5581.00,1.0791
5580.00,1.0656
5579.00,1.0521
5578.00,1.0384
5577.00,1.0245
5576.00,1.0104
5575.00,0.9962
5574.00,0.9820
5573.00,0.9680
5572.00,0.9541
5571.00,0.9405
5570.00,0.9272
5569.00,0.9140
5568.00,0.9008
5567.00,0.8880
5566.00,0.8754
5565.00,0.8634
5564.00,0.8520
5563.00,0.8412
5562.00,0.8311
5561.00,0.8215
5560.00,0.8125
5559.00,0.8041
5558.00,0.7965
5557.00,0.7897
5556.00,0.7837
5555.00,0.7785
5554.00,0.7743
5553.00,0.7710
5552.00,0.7685
5551.00,0.7670
5550.00,0.7664
5549.00,0.7669
5548.00,0.7683
5547.00,0.7707
5546.00,0.7739
5545.00,0.7781
5544.00,0.7829
5543.00,0.7886
5542.00,0.7951
5541.00,0.8024
5540.00,0.8103
5539.00,0.8190
5538.00,0.8283
5537.00,0.8383
5536.00,0.8488
5535.00,0.8599
5534.00,0.8716
5533.00,0.8837
5532.00,0.8960
5531.00,0.9084
5530.00,0.9211
5529.00,0.9339
5528.00,0.9470
5527.00,0.9605
5526.00,0.9743
5525.00,0.9882
5524.00,1.0023
5523.00,1.0163
5522.00,1.0302
5521.00,1.0440
5520.00,1.0578
5519.00,1.0715
5518.00,1.0852
5517.00,1.0988
5516.00,1.1123
5515.00,1.1256
5514.00,1.1388
5513.00,1.1517
5512.00,1.1644
5511.00,1.1767
5510.00,1.1888
5509.00,1.2006
5508.00,1.2120
5507.00,1.2230
5506.00,1.2337
5505.00,1.2440
5504.00,1.2539
5503.00,1.2635
5502.00,1.2727
5501.00,1.2814
5500.00,1.2897
5499.00,1.2975
5498.00,1.3050
5497.00,1.3119
5496.00,1.3185
5495.00,1.3246
5494.00,1.3303
5493.00,1.3355
5492.00,1.3402
5491.00,1.3442
5490.00,1.3478
5489.00,1.3510
5488.00,1.3539
5487.00,1.3567
5486.00,1.3593
5485.00,1.3618
5484.00,1.3639
5483.00,1.3655
5482.00,1.3664
5481.00,1.3664
5480.00,1.3656
5479.00,1.3644
5478.00,1.3629
5477.00,1.3613
5476.00,1.3594
5475.00,1.3567
5474.00,1.3534
5473.00,1.3496
5472.00,1.3454
5471.00,1.3410
5470.00,1.3365
5469.00,1.3318
5468.00,1.3267
5467.00,1.3210
5466.00,1.3147
5465.00,1.3077
5464.00,1.3003
5463.00,1.2923
5462.00,1.2839
5461.00,1.2751
5460.00,1.2657
5459.00,1.2560
5458.00,1.2459
5457.00,1.2354
5456.00,1.2246
5455.00,1.2134
5454.00,1.2018
5453.00,1.1899
5452.00,1.1777
5451.00,1.1652
5450.00,1.1523
5449.00,1.1390
5448.00,1.1252
5447.00,1.1109
5446.00,1.0963
5445.00,1.0814
5444.00,1.0664
5443.00,1.0514
5442.00,1.0364
5441.00,1.0215
5440.00,1.0065
5439.00,0.9914
5438.00,0.9765
5437.00,0.9616
5436.00,0.9469
5435.00,0.9324
5434.00,0.9181
5433.00,0.9041
5432.00,0.8906
5431.00,0.8776
5430.00,0.8651
5429.00,0.8529
5428.00,0.8411
5427.00,0.8298
5426.00,0.8192
5425.00,0.8095
5424.00,0.8007
5423.00,0.7927
5422.00,0.7857
5421.00,0.7794
5420.00,0.7739
5419.00,0.7692
5418.00,0.7655
5417.00,0.7628
5416.00,0.7611
5415.00,0.7603
5414.00,0.7604
5413.00,0.7614
5412.00,0.7631
5411.00,0.7657
5410.00,0.7694
5409.00,0.7743
5408.00,0.7802
5407.00,0.7870
5406.00,0.7946
5405.00,0.8029
5404.00,0.8119
5403.00,0.8216
5402.00,0.8318
5401.00,0.8426
5400.00,0.8537
5399.00,0.8653
5398.00,0.8772
5397.00,0.8894
5396.00,0.9021
5395.00,0.9152
5394.00,0.9287
5393.00,0.9425
5392.00,0.9566
5391.00,0.9708
5390.00,0.9849
5389.00,0.9989
5388.00,1.0131
5387.00,1.0274
5386.00,1.0418
5385.00,1.0562
5384.00,1.0706
5383.00,1.0849
5382.00,1.0992
5381.00,1.1131
5380.00,1.1267
5379.00,1.1400
5378.00,1.1531
5377.00,1.1662
5376.00,1.1791
5375.00,1.1918
5374.00,1.2044
5373.00,1.2167
5372.00,1.2285
5371.00,1.2398
5370.00,1.2507
5369.00,1.2612
5368.00,1.2714
5367.00,1.2811
5366.00,1.2904
5365.00,1.2991
5364.00,1.3074
5363.00,1.3153
5362.00,1.3227
5361.00,1.3296
5360.00,1.3363
5359.00,1.3425
5358.00,1.3483
5357.00,1.3535
5356.00,1.3583
5355.00,1.3627
5354.00,1.3666
5353.00,1.3698
5352.00,1.3724
5351.00,1.3746
5350.00,1.3766
5349.00,1.3782
5348.00,1.3792
5347.00,1.3799
5346.00,1.3802
5345.00,1.3801
5344.00,1.3797
5343.00,1.3788
5342.00,1.3775
5341.00,1.3757
5340.00,1.3734
5339.00,1.3705
5338.00,1.3673
5337.00,1.3637
5336.00,1.3596
5335.00,1.3551
5334.00,1.3501
5333.00,1.3447
5332.00,1.3389
5331.00,1.3328
5330.00,1.3262
5329.00,1.3191
5328.00,1.3114
5327.00,1.3032
5326.00,1.2945
5325.00,1.2851
5324.00,1.2750
5323.00,1.2647
5322.00,1.2543
5321.00,1.2437
5320.00,1.2327
5319.00,1.2213
5318.00,1.2094
5317.00,1.1969
5316.00,1.1837
5315.00,1.1702
5314.00,1.1563
5313.00,1.1422
5312.00,1.1279
5311.00,1.1133
5310.00,1.0986
5309.00,1.0838
5308.00,1.0687
5307.00,1.0532
5306.00,1.0375
5305.00,1.0218
5304.00,1.0061
5303.00,0.9906
5302.00,0.9753
5301.00,0.9602
5300.00,0.9452
5299.00,0.9304
5298.00,0.9159
5297.00,0.9019
5296.00,0.8883
5295.00,0.8752
5294.00,0.8626
5293.00,0.8507
5292.00,0.8393
5291.00,0.8285
5290.00,0.8184
5289.00,0.8090
5288.00,0.8004
5287.00,0.7927
5286.00,0.7860
5285.00,0.7804
5284.00,0.7759
5283.00,0.7724
5282.00,0.7699
5281.00,0.7685
5280.00,0.7682
5279.00,0.7689
5278.00,0.7707
5277.00,0.7734
5276.00,0.7771
5275.00,0.7818
5274.00,0.7873
5273.00,0.7938
5272.00,0.8012
5271.00,0.8094
5270.00,0.8184
5269.00,0.8284
5268.00,0.8389
5267.00,0.8501
5266.00,0.8618
5265.00,0.8740
5264.00,0.8867
5263.00,0.8997
5262.00,0.9132
5261.00,0.9270
5260.00,0.9410
5259.00,0.9554
5258.00,0.9700
5257.00,0.9848
5256.00,0.9997
5255.00,1.0148
5254.00,1.0300
5253.00,1.0452
5252.00,1.0603
5251.00,1.0754
5250.00,1.0904
5249.00,1.1053
5248.00,1.1199
5247.00,1.1343
5246.00,1.1485
5245.00,1.1627
5244.00,1.1767
5243.00,1.1907
5242.00,1.2044
5241.00,1.2177
5240.00,1.2306
5239.00,1.2430
5238.00,1.2550
5237.00,1.2666
5236.00,1.2779
5235.00,1.2887
5234.00,1.2991
5233.00,1.3091
5232.00,1.3185
5231.00,1.3273
5230.00,1.3358
5229.00,1.3438
5228.00,1.3514
5227.00,1.3585
5226.00,1.3652
5225.00,1.3715
5224.00,1.3775
5223.00,1.3832
5222.00,1.3885
5221.00,1.3933
5220.00,1.3974
5219.00,1.4009
5218.00,1.4039
5217.00,1.4066
5216.00,1.4088
5215.00,1.4107
5214.00,1.4120
5213.00,1.4127
5212.00,1.4130
5211.00,1.4130
5210.00,1.4127
5209.00,1.4121
5208.00,1.4108
5207.00,1.4088
5206.00,1.4062
5205.00,1.4032
5204.00,1.4003
5203.00,1.3973
5202.00,1.3940
5201.00,1.3902
5200.00,1.3856
5199.00,1.3804
5198.00,1.3746
5197.00,1.3684
5196.00,1.3619
5195.00,1.3549
5194.00,1.3475
5193.00,1.3394
5192.00,1.3308
5191.00,1.3217
5190.00,1.3123
5189.00,1.3026
5188.00,1.2924
5187.00,1.2816
5186.00,1.2704
5185.00,1.2585
5184.00,1.2462
5183.00,1.2333
5182.00,1.2201
5181.00,1.2067
5180.00,1.1930
5179.00,1.1790
5178.00,1.1646
5177.00,1.1497
5176.00,1.1345
5175.00,1.1191
5174.00,1.1036
5173.00,1.0879
5172.00,1.0722
5171.00,1.0561
5170.00,1.0398
5169.00,1.0234
5168.00,1.0071
5167.00,0.9909
5166.00,0.9749
5165.00,0.9590
5164.00,0.9433
5163.00,0.9278
5162.00,0.9126
5161.00,0.8980
5160.00,0.8839
5159.00,0.8703
5158.00,0.8571
5157.00,0.8446
5156.00,0.8327
5155.00,0.8216
5154.00,0.8114
5153.00,0.8021
5152.00,0.7938
5151.00,0.7864
5150.00,0.7799
5149.00,0.7744
5148.00,0.7700
5147.00,0.7667
5146.00,0.7645
5145.00,0.7634
5144.00,0.7635
5143.00,0.7646
5142.00,0.7669
5141.00,0.7703
5140.00,0.7748
5139.00,0.7803
5138.00,0.7867
5137.00,0.7941
5136.00,0.8023
5135.00,0.8114
5134.00,0.8215
5133.00,0.8325
5132.00,0.8441
5131.00,0.8564
5130.00,0.8691
5129.00,0.8823
5128.00,0.8958
5127.00,0.9097
5126.00,0.9241
5125.00,0.9388
5124.00,0.9539
5123.00,0.9692
5122.00,0.9848
5121.00,1.0004
5120.00,1.0161
5119.00,1.0318
5118.00,1.0476
5117.00,1.0633
5116.00,1.0790
5115.00,1.0946
5114.00,1.1101
5113.00,1.1255
5112.00,1.1407
5111.00,1.1557
5110.00,1.1705
5109.00,1.1849
5108.00,1.1992
5107.00,1.2133
5106.00,1.2272
5105.00,1.2406
5104.00,1.2536
5103.00,1.2661
5102.00,1.2782
5101.00,1.2899
5100.00,1.3012
5099.00,1.3120
5098.00,1.3225
5097.00,1.3325
5096.00,1.3420
5095.00,1.3512
5094.00,1.3601
5093.00,1.3685
5092.00,1.3761
5091.00,1.3830
5090.00,1.3892
5089.00,1.3952
5088.00,1.4009
5087.00,1.4065
5086.00,1.4119
5085.00,1.4170
5084.00,1.4216
5083.00,1.4255
5082.00,1.4288
5081.00,1.4313
5080.00,1.4333
5079.00,1.4347
5078.00,1.4356
5077.00,1.4362
5076.00,1.4364
5075.00,1.4363
5074.00,1.4358
5073.00,1.4349
5072.00,1.4335
5071.00,1.4315
5070.00,1.4289
5069.00,1.4260
5068.00,1.4228
5067.00,1.4193
5066.00,1.4154
5065.00,1.4110
5064.00,1.4058
5063.00,1.4000
5062.00,1.3938
5061.00,1.3871
5060.00,1.3800
5059.00,1.3725
5058.00,1.3644
5057.00,1.3558
5056.00,1.3467
5055.00,1.3373
5054.00,1.3275
5053.00,1.3174
5052.00,1.3067
5051.00,1.2956
5050.00,1.2838
5049.00,1.2713
5048.00,1.2582
5047.00,1.2446
5046.00,1.2306
5045.00,1.2163
5044.00,1.2017
5043.00,1.1867
5042.00,1.1713
5041.00,1.1555
5040.00,1.1395
5039.00,1.1233
5038.00,1.1069
5037.00,1.0904
5036.00,1.0737
5035.00,1.0568
5034.00,1.0397
5033.00,1.0226
5032.00,1.0056
5031.00,0.9886
5030.00,0.9717
5029.00,0.9551
5028.00,0.9387
5027.00,0.9226
5026.00,0.9070
5025.00,0.8918
5024.00,0.8773
5023.00,0.8634
5022.00,0.8502
5021.00,0.8376
5020.00,0.8259
5019.00,0.8150
5018.00,0.8051
5017.00,0.7962
5016.00,0.7884
5015.00,0.7817
5014.00,0.7760
5013.00,0.7715
5012.00,0.7681
5011.00,0.7660
5010.00,0.7651
5009.00,0.7654
5008.00,0.7670
5007.00,0.7698
5006.00,0.7738
5005.00,0.7788
5004.00,0.7849
5003.00,0.7921
5002.00,0.8003
5001.00,0.8096
5000.00,0.8198
4999.00,0.8309
4998.00,0.8427
4997.00,0.8553
4996.00,0.8685
4995.00,0.8824
4994.00,0.8967
4993.00,0.9116
4992.00,0.9268
4991.00,0.9423
4990.00,0.9581
4989.00,0.9741
4988.00,0.9903
4987.00,1.0068
4986.00,1.0235
4985.00,1.0402
4984.00,1.0569
4983.00,1.0737
4982.00,1.0903
4981.00,1.1070
4980.00,1.1235
4979.00,1.1398
4978.00,1.1559
4977.00,1.1718
4976.00,1.1875
4975.00,1.2028
4974.00,1.2178
4973.00,1.2325
4972.00,1.2468
4971.00,1.2605
4970.00,1.2736
4969.00,1.2861
4968.00,1.2985
4967.00,1.3110
4966.00,1.3236
4965.00,1.3359
4964.00,1.3476
4963.00,1.3584
4962.00,1.3684
4961.00,1.3777
4960.00,1.3865
4959.00,1.3949
4958.00,1.4029
4957.00,1.4105
4956.00,1.4177
4955.00,1.4244
4954.00,1.4305
4953.00,1.4360
4952.00,1.4409
4951.00,1.4453
4950.00,1.4490
4949.00,1.4522
4948.00,1.4551
4947.00,1.4577
4946.00,1.4599
4945.00,1.4618
4944.00,1.4635
4943.00,1.4648
4942.00,1.4658
4941.00,1.4663
4940.00,1.4663
4939.00,1.4658
4938.00,1.4647
4937.00,1.4629
4936.00,1.4605
4935.00,1.4576
4934.00,1.4542
4933.00,1.4503
4932.00,1.4460
4931.00,1.4412
4930.00,1.4361
4929.00,1.4307
4928.00,1.4250
4927.00,1.4189
4926.00,1.4123
4925.00,1.4050
4924.00,1.3970
4923.00,1.3883
4922.00,1.3792
4921.00,1.3698
4920.00,1.3600
4919.00,1.3497
4918.00,1.3389
4917.00,1.3276
4916.00,1.3158
4915.00,1.3035
4914.00,1.2905
4913.00,1.2768
4912.00,1.2626
4911.00,1.2480
4910.00,1.2331
4909.00,1.2179
4908.00,1.2022
4907.00,1.1862
4906.00,1.1697
4905.00,1.1528
4904.00,1.1356
4903.00,1.1181
4902.00,1.1003
4901.00,1.0825
4900.00,1.0645
4899.00,1.0465
4898.00,1.0285
4897.00,1.0105
4896.00,0.9926
4895.00,0.9748
4894.00,0.9573
4893.00,0.9400
4892.00,0.9231
4891.00,0.9065
4890.00,0.8904
4889.00,0.8749
4888.00,0.8601
4887.00,0.8461
4886.00,0.8329
4885.00,0.8206
4884.00,0.8091
4883.00,0.7987
4882.00,0.7892
4881.00,0.7809
4880.00,0.7738
4879.00,0.7680
4878.00,0.7635
4877.00,0.7604
4876.00,0.7585
4875.00,0.7580
4874.00,0.7588
4873.00,0.7608
4872.00,0.7641
4871.00,0.7686
4870.00,0.7744
4869.00,0.7814
4868.00,0.7896
4867.00,0.7988
4866.00,0.8091
4865.00,0.8202
4864.00,0.8322
4863.00,0.8451
4862.00,0.8588
4861.00,0.8731
4860.00,0.8879
4859.00,0.9031
4858.00,0.9188
4857.00,0.9349
4856.00,0.9514
4855.00,0.9682
4854.00,0.9854
4853.00,1.0026
4852.00,1.0199
4851.00,1.0372
4850.00,1.0546
4849.00,1.0721
4848.00,1.0895
4847.00,1.1069
4846.00,1.1241
4845.00,1.1412
4844.00,1.1581
4843.00,1.1751
4842.00,1.1920
4841.00,1.2087
4840.00,1.2249
4839.00,1.2408
4838.00,1.2562
4837.00,1.2712
4836.00,1.2857
4835.00,1.2997
4834.00,1.3131
4833.00,1.3260
4832.00,1.3386
4831.00,1.3508
4830.00,1.3627
4829.00,1.3743
4828.00,1.3852
4827.00,1.3957
4826.00,1.4056
4825.00,1.4149
4824.00,1.4235
4823.00,1.4314
4822.00,1.4388
4821.00,1.4458
4820.00,1.4524
4819.00,1.4585
4818.00,1.4643
4817.00,1.4697
4816.00,1.4747
4815.00,1.4794
4814.00,1.4835
4813.00,1.4870
4812.00,1.4897
4811.00,1.4918
4810.00,1.4937
4809.00,1.4954
4808.00,1.4968
4807.00,1.4977
4806.00,1.4979
4805.00,1.4973
4804.00,1.4961
4803.00,1.4945
4802.00,1.4927
4801.00,1.4908
4800.00,1.4885
4799.00,1.4856
4798.00,1.4821
4797.00,1.4781
4796.00,1.4734
4795.00,1.4681
4794.00,1.4624
4793.00,1.4561
4792.00,1.4495
4791.00,1.4426
4790.00,1.4353
4789.00,1.4276
4788.00,1.4191
4787.00,1.4100
4786.00,1.4001
4785.00,1.3897
4784.00,1.3790
4783.00,1.3677
4782.00,1.3560
4781.00,1.3437
4780.00,1.3309
4779.00,1.3177
4778.00,1.3041
4777.00,1.2901
4776.00,1.2755
4775.00,1.2602
4774.00,1.2445
4773.00,1.2282
4772.00,1.2113
4771.00,1.1940
4770.00,1.1762
4769.00,1.1582
4768.00,1.1399
4767.00,1.1215
4766.00,1.1028
4765.00,1.0841
4764.00,1.0652
4763.00,1.0463
4762.00,1.0275
4761.00,1.0088
4760.00,0.9902
4759.00,0.9718
4758.00,0.9535
4757.00,0.9357
4756.00,0.9183
4755.00,0.9015
4754.00,0.8854
4753.00,0.8701
4752.00,0.8555
4751.00,0.8419
4750.00,0.8292
4749.00,0.8175
4748.00,0.8068
4747.00,0.7973
4746.00,0.7890
4745.00,0.7820
4744.00,0.7764
4743.00,0.7721
4742.00,0.7693
4741.00,0.7679
4740.00,0.7679
4739.00,0.7693
4738.00,0.7722
4737.00,0.7765
4736.00,0.7821
4735.00,0.7890
4734.00,0.7971
4733.00,0.8064
4732.00,0.8169
4731.00,0.8283
4730.00,0.8407
4729.00,0.8541
4728.00,0.8682
4727.00,0.8830
4726.00,0.8985
4725.00,0.9145
4724.00,0.9311
4723.00,0.9480
4722.00,0.9653
4721.00,0.9828
4720.00,1.0006
4719.00,1.0186
4718.00,1.0367
4717.00,1.0551
4716.00,1.0737
4715.00,1.0924
4714.00,1.1111
4713.00,1.1296
4712.00,1.1479
4711.00,1.1659
4710.00,1.1837
4709.00,1.2013
4708.00,1.2187
4707.00,1.2359
4706.00,1.2527
4705.00,1.2691
4704.00,1.2851
4703.00,1.3007
4702.00,1.3159
4701.00,1.3306
4700.00,1.3447
4699.00,1.3583
4698.00,1.3714
4697.00,1.3841
4696.00,1.3963
4695.00,1.4080
4694.00,1.4192
4693.00,1.4298
4692.00,1.4399
4691.00,1.4493
4690.00,1.4583
4689.00,1.4669
4688.00,1.4750
4687.00,1.4826
4686.00,1.4895
4685.00,1.4958
4684.00,1.5015
4683.00,1.5068
4682.00,1.5117
4681.00,1.5163
4680.00,1.5203
4679.00,1.5237
4678.00,1.5266
4677.00,1.5290
4676.00,1.5311
4675.00,1.5330
4674.00,1.5344
4673.00,1.5354
4672.00,1.5357
4671.00,1.5356
4670.00,1.5350
4669.00,1.5340
4668.00,1.5326
4667.00,1.5308
4666.00,1.5284
4665.00,1.5254
4664.00,1.5217
4663.00,1.5175
4662.00,1.5129
4661.00,1.5080
4660.00,1.5027
4659.00,1.4968
4658.00,1.4903
4657.00,1.4834
4656.00,1.4760
4655.00,1.4684
4654.00,1.4603
4653.00,1.4517
4652.00,1.4424
4651.00,1.4324
4650.00,1.4219
4649.00,1.4109
4648.00,1.3995
4647.00,1.3876
4646.00,1.3750
4645.00,1.3619
4644.00,1.3481
4643.00,1.3337
4642.00,1.3187
4641.00,1.3031
4640.00,1.2869
4639.00,1.2702
4638.00,1.2529
4637.00,1.2353
4636.00,1.2173
4635.00,1.1990
4634.00,1.1804
4633.00,1.1615
4632.00,1.1421
4631.00,1.1225
4630.00,1.1028
4629.00,1.0831
4628.00,1.0635
4627.00,1.0438
4626.00,1.0241
4625.00,1.0043
4624.00,0.9847
4623.00,0.9654
4622.00,0.9467
4621.00,0.9287
4620.00,0.9113
4619.00,0.8945
4618.00,0.8785
4617.00,0.8633
4616.00,0.8490
4615.00,0.8359
4614.00,0.8238
4613.00,0.8130
4612.00,0.8033
4611.00,0.7948
4610.00,0.7877
4609.00,0.7820
4608.00,0.7778
4607.00,0.7750
4606.00,0.7738
4605.00,0.7741
4604.00,0.7759
4603.00,0.7793
4602.00,0.7841
4601.00,0.7902
4600.00,0.7977
4599.00,0.8065
4598.00,0.8164
4597.00,0.8275
4596.00,0.8396
4595.00,0.8528
4594.00,0.8668
4593.00,0.8817
4592.00,0.8973
4591.00,0.9136
4590.00,0.9304
4589.00,0.9477
4588.00,0.9655
4587.00,0.9836
4586.00,1.0020
4585.00,1.0206
4584.00,1.0395
4583.00,1.0586
4582.00,1.0779
4581.00,1.0972
4580.00,1.1165
4579.00,1.1358
4578.00,1.1549
4577.00,1.1738
4576.00,1.1926
4575.00,1.2112
4574.00,1.2296
4573.00,1.2477
4572.00,1.2654
4571.00,1.2827
4570.00,1.2995
4569.00,1.3159
4568.00,1.3320
4567.00,1.3476
4566.00,1.3627
4565.00,1.3771
4564.00,1.3910
4563.00,1.4044
4562.00,1.4172
4561.00,1.4295
4560.00,1.4413
4559.00,1.4524
4558.00,1.4630
4557.00,1.4731
4556.00,1.4828
4555.00,1.4922
4554.00,1.5011
4553.00,1.5093
4552.00,1.5168
4551.00,1.5236
4550.00,1.5297
4549.00,1.5356
4548.00,1.5411
4547.00,1.5463
4546.00,1.5508
4545.00,1.5548
4544.00,1.5583
4543.00,1.5615
4542.00,1.5645
4541.00,1.5670
4540.00,1.5689
4539.00,1.5699
4538.00,1.5702
4537.00,1.5700
4536.00,1.5694
4535.00,1.5688
4534.00,1.5680
4533.00,1.5669
4532.00,1.5651
4531.00,1.5626
4530.00,1.5593
4529.00,1.5554
4528.00,1.5511
4527.00,1.5464
4526.00,1.5415
4525.00,1.5362
4524.00,1.5304
4523.00,1.5239
4522.00,1.5168
4521.00,1.5091
4520.00,1.5007
4519.00,1.4920
4518.00,1.4828
4517.00,1.4731
4516.00,1.4628
4515.00,1.4520
4514.00,1.4407
4513.00,1.4288
4512.00,1.4163
4511.00,1.4031
4510.00,1.3893
4509.00,1.3749
4508.00,1.3599
4507.00,1.3443
4506.00,1.3281
4505.00,1.3114
4504.00,1.2942
4503.00,1.2764
4502.00,1.2582
4501.00,1.2394
4500.00,1.2201
4499.00,1.2003
4498.00,1.1802
4497.00,1.1598
4496.00,1.1391
4495.00,1.1183
4494.00,1.0973
4493.00,1.0762
4492.00,1.0551
4491.00,1.0341
4490.00,1.0133
4489.00,0.9928
4488.00,0.9727
4487.00,0.9531
4486.00,0.9341
4485.00,0.9157
4484.00,0.8981
4483.00,0.8813
4482.00,0.8656
4481.00,0.8509
4480.00,0.8374
4479.00,0.8251
4478.00,0.8142
4477.00,0.8047
4476.00,0.7967
4475.00,0.7902
4474.00,0.7854
4473.00,0.7823
4472.00,0.7808
4471.00,0.7810
4470.00,0.7829
4469.00,0.7864
4468.00,0.7914
4467.00,0.7981
4466.00,0.8063
4465.00,0.8159
4464.00,0.8269
4463.00,0.8392
4462.00,0.8527
4461.00,0.8672
4460.00,0.8826
4459.00,0.8989
4458.00,0.9158
4457.00,0.9335
4456.00,0.9517
4455.00,0.9705
4454.00,0.9898
4453.00,1.0095
4452.00,1.0294
4451.00,1.0494
4450.00,1.0696
4449.00,1.0899
4448.00,1.1103
4447.00,1.1307
4446.00,1.1512
4445.00,1.1716
4444.00,1.1918
4443.00,1.2119
4442.00,1.2319
4441.00,1.2516
4440.00,1.2710
4439.00,1.2900
4438.00,1.3084
4437.00,1.3262
4436.00,1.3436
4435.00,1.3605
4434.00,1.3769
4433.00,1.3930
4432.00,1.4085
4431.00,1.4235
4430.00,1.4377
4429.00,1.4512
4428.00,1.4640
4427.00,1.4763
4426.00,1.4882
4425.00,1.4996
4424.00,1.5106
4423.00,1.5209
4422.00,1.5305
4421.00,1.5396
4420.00,1.5482
4419.00,1.5563
4418.00,1.5638
4417.00,1.5708
4416.00,1.5771
4415.00,1.5828
4414.00,1.5880
4413.00,1.5926
4412.00,1.5969
4411.00,1.6009
4410.00,1.6043
4409.00,1.6072
4408.00,1.6098
4407.00,1.6119
4406.00,1.6136
4405.00,1.6148
4404.00,1.6155
4403.00,1.6157
4402.00,1.6154
4401.00,1.6146
4400.00,1.6132
4399.00,1.6111
4398.00,1.6085
4397.00,1.6054
4396.00,1.6020
4395.00,1.5984
4394.00,1.5944
4393.00,1.5900
4392.00,1.5850
4391.00,1.5793
4390.00,1.5731
4389.00,1.5665
4388.00,1.5597
4387.00,1.5529
4386.00,1.5459
4385.00,1.5384
4384.00,1.5300
4383.00,1.5207
4382.00,1.5108
4381.00,1.5003
4380.00,1.4895
4379.00,1.4783
4378.00,1.4665
4377.00,1.4542
4376.00,1.4415
4375.00,1.4284
4374.00,1.4150
4373.00,1.4012
4372.00,1.3869
4371.00,1.3721
4370.00,1.3568
4369.00,1.3410
4368.00,1.3245
4367.00,1.3076
4366.00,1.2903
4365.00,1.2727
4364.00,1.2548
4363.00,1.2365
4362.00,1.2178
4361.00,1.1987
4360.00,1.1793
4359.00,1.1597
4358.00,1.1400
4357.00,1.1202
4356.00,1.1004
4355.00,1.0808
4354.00,1.0614
4353.00,1.0424
4352.00,1.0239
4351.00,1.0057
4350.00,0.9881
4349.00,0.9711
4348.00,0.9549
4347.00,0.9394
4346.00,0.9248
4345.00,0.9112
4344.00,0.8985
4343.00,0.8870
4342.00,0.8767
4341.00,0.8677
4340.00,0.8601
4339.00,0.8538
4338.00,0.8490
4337.00,0.8457
4336.00,0.8441
4335.00,0.8442
4334.00,0.8461
4333.00,0.8497
4332.00,0.8550
4331.00,0.8619
4330.00,0.8705
4329.00,0.8806
4328.00,0.8921
4327.00,0.9049
4326.00,0.9188
4325.00,0.9339
4324.00,0.9499
4323.00,0.9668
4322.00,0.9845
4321.00,1.0028
4320.00,1.0217
4319.00,1.0410
4318.00,1.0607
4317.00,1.0806
4316.00,1.1007
4315.00,1.1210
4314.00,1.1414
4313.00,1.1619
4312.00,1.1824
4311.00,1.2029
4310.00,1.2233
4309.00,1.2434
4308.00,1.2633
4307.00,1.2829
4306.00,1.3021
4305.00,1.3210
4304.00,1.3396
4303.00,1.3580
4302.00,1.3759
4301.00,1.3933
4300.00,1.4102
4299.00,1.4266
4298.00,1.4424
4297.00,1.4578
4296.00,1.4727
4295.00,1.4870
4294.00,1.5007
4293.00,1.5137
4292.00,1.5260
4291.00,1.5377
4290.00,1.5489
4289.00,1.5596
4288.00,1.5696
4287.00,1.5791
4286.00,1.5881
4285.00,1.5965
4284.00,1.6046
4283.00,1.6121
4282.00,1.6192
4281.00,1.6256
4280.00,1.6313
4279.00,1.6365
4278.00,1.6411
4277.00,1.6455
4276.00,1.6496
4275.00,1.6534
4274.00,1.6566
4273.00,1.6594
4272.00,1.6615
4271.00,1.6633
4270.00,1.6646
4269.00,1.6656
4268.00,1.6662
4267.00,1.6664
4266.00,1.6661
4265.00,1.6654
4264.00,1.6643
4263.00,1.6626
4262.00,1.6603
4261.00,1.6572
4260.00,1.6534
4259.00,1.6492
4258.00,1.6447
4257.00,1.6399
4256.00,1.6348
4255.00,1.6292
4254.00,1.6231
4253.00,1.6166
4252.00,1.6095
4251.00,1.6019
4250.00,1.5937
4249.00,1.5849
4248.00,1.5755
4247.00,1.5654
4246.00,1.5548
4245.00,1.5435
4244.00,1.5315
4243.00,1.5189
4242.00,1.5058
4241.00,1.4921
4240.00,1.4779
4239.00,1.4630
4238.00,1.4474
4237.00,1.4312
4236.00,1.4145
4235.00,1.3974
4234.00,1.3798
4233.00,1.3616
4232.00,1.3427
4231.00,1.3231
4230.00,1.3031
4229.00,1.2827
4228.00,1.2620
4227.00,1.2410
4226.00,1.2198
4225.00,1.1983
4224.00,1.1768
4223.00,1.1552
4222.00,1.1338
4221.00,1.1125
4220.00,1.0915
4219.00,1.0707
4218.00,1.0502
4217.00,1.0301
4216.00,1.0105
4215.00,0.9914
4214.00,0.9731
4213.00,0.9556
4212.00,0.9392
4211.00,0.9238
4210.00,0.9096
4209.00,0.8966
4208.00,0.8850
4207.00,0.8749
4206.00,0.8663
4205.00,0.8595
4204.00,0.8543
4203.00,0.8510
4202.00,0.8495
4201.00,0.8499
4200.00,0.8522
4199.00,0.8562
4198.00,0.8620
4197.00,0.8695
4196.00,0.8786
4195.00,0.8892
4194.00,0.9014
4193.00,0.9149
4192.00,0.9297
4191.00,0.9455
4190.00,0.9622
4189.00,0.9798
4188.00,0.9982
4187.00,1.0171
4186.00,1.0366
4185.00,1.0566
4184.00,1.0770
4183.00,1.0977
4182.00,1.1185
4181.00,1.1396
4180.00,1.1608
4179.00,1.1821
4178.00,1.2035
4177.00,1.2248
4176.00,1.2461
4175.00,1.2673
4174.00,1.2883
4173.00,1.3091
4172.00,1.3295
4171.00,1.3494
4170.00,1.3690
4169.00,1.3881
4168.00,1.4067
4167.00,1.4248
4166.00,1.4423
4165.00,1.4592
4164.00,1.4754
4163.00,1.4910
4162.00,1.5060
4161.00,1.5207
4160.00,1.5348
4159.00,1.5485
4158.00,1.5615
4157.00,1.5739
4156.00,1.5856
4155.00,1.5968
4154.00,1.6073
4153.00,1.6174
4152.00,1.6270
4151.00,1.6360
4150.00,1.6445
4149.00,1.6524
4148.00,1.6596
4147.00,1.6662
4146.00,1.6721
4145.00,1.6776
4144.00,1.6829
4143.00,1.6878
4142.00,1.6924
4141.00,1.6965
4140.00,1.7000
4139.00,1.7030
4138.00,1.7054
4137.00,1.7074
4136.00,1.7087
4135.00,1.7095
4134.00,1.7097
4133.00,1.7095
4132.00,1.7088
4131.00,1.7080
4130.00,1.7068
4129.00,1.7052
4128.00,1.7031
4127.00,1.7003
4126.00,1.6969
4125.00,1.6932
4124.00,1.6891
4123.00,1.6847
4122.00,1.6798
4121.00,1.6744
4120.00,1.6684
4119.00,1.6618
4118.00,1.6545
4117.00,1.6465
4116.00,1.6378
4115.00,1.6285
4114.00,1.6186
4113.00,1.6082
4112.00,1.5973
4111.00,1.5860
4110.00,1.5742
4109.00,1.5619
4108.00,1.5489
4107.00,1.5351
4106.00,1.5206
4105.00,1.5055
4104.00,1.4897
4103.00,1.4735
4102.00,1.4567
4101.00,1.4394
4100.00,1.4214
4099.00,1.4027
4098.00,1.3834
4097.00,1.3636
4096.00,1.3431
4095.00,1.3222
4094.00,1.3007
4093.00,1.2787
4092.00,1.2564
4091.00,1.2339
4090.00,1.2112
4089.00,1.1884
4088.00,1.1655
4087.00,1.1426
4086.00,1.1198
4085.00,1.0972
4084.00,1.0750
4083.00,1.0531
4082.00,1.0318
4081.00,1.0110
4080.00,0.9909
4079.00,0.9716
4078.00,0.9533
4077.00,0.9360
4076.00,0.9200
4075.00,0.9054
4074.00,0.8922
4073.00,0.8806
4072.00,0.8707
4071.00,0.8626
4070.00,0.8564
4069.00,0.8522
4068.00,0.8499
4067.00,0.8496
4066.00,0.8514
4065.00,0.8553
4064.00,0.8612
4063.00,0.8691
4062.00,0.8788
4061.00,0.8902
4060.00,0.9033
4059.00,0.9179
4058.00,0.9339
4057.00,0.9510
4056.00,0.9692
4055.00,0.9884
4054.00,1.0084
4053.00,1.0292
4052.00,1.0505
4051.00,1.0722
4050.00,1.0944
4049.00,1.1168
4048.00,1.1395
4047.00,1.1624
4046.00,1.1854
4045.00,1.2084
4044.00,1.2314
4043.00,1.2542
4042.00,1.2770
4041.00,1.2995
4040.00,1.3216
4039.00,1.3435
4038.00,1.3649
4037.00,1.3860
4036.00,1.4066
4035.00,1.4266
4034.00,1.4462
4033.00,1.4652
4032.00,1.4836
4031.00,1.5014
4030.00,1.5187
4029.00,1.5354
4028.00,1.5516
4027.00,1.5671
4026.00,1.5819
4025.00,1.5959
4024.00,1.6094
4023.00,1.6223
4022.00,1.6347
4021.00,1.6462
4020.00,1.6569
4019.00,1.6669
4018.00,1.6763
4017.00,1.6854
4016.00,1.6942
4015.00,1.7023
4014.00,1.7097
4013.00,1.7164
4012.00,1.7228
4011.00,1.7290
4010.00,1.7348
4009.00,1.7401
4008.00,1.7446
4007.00,1.7484
4006.00,1.7517
4005.00,1.7548
4004.00,1.7577
4003.00,1.7603
4002.00,1.7624
4001.00,1.7637
4000.00,1.7643
3999.00,1.7644
3998.00,1.7641
3997.00,1.7635
3996.00,1.7623
3995.00,1.7605
3994.00,1.7581
3993.00,1.7552
3992.00,1.7519
3991.00,1.7481
3990.00,1.7439
3989.00,1.7390
3988.00,1.7336
3987.00,1.7277
3986.00,1.7216
3985.00,1.7154
3984.00,1.7087
3983.00,1.7012
3982.00,1.6928
3981.00,1.6835
3980.00,1.6735
3979.00,1.6631
3978.00,1.6522
3977.00,1.6409
3976.00,1.6293
3975.00,1.6171
3974.00,1.6042
3973.00,1.5907
3972.00,1.5765
3971.00,1.5615
3970.00,1.5457
3969.00,1.5291
3968.00,1.5117
3967.00,1.4937
3966.00,1.4752
3965.00,1.4562
3964.00,1.4366
3963.00,1.4163
3962.00,1.3952
3961.00,1.3734
3960.00,1.3512
3959.00,1.3286
3958.00,1.3056
3957.00,1.2824
3956.00,1.2588
3955.00,1.2351
3954.00,1.2114
3953.00,1.1877
3952.00,1.1640
3951.00,1.1405
3950.00,1.1170
3949.00,1.0937
3948.00,1.0706
3947.00,1.0480
3946.00,1.0263
3945.00,1.0055
3944.00,0.9858
3943.00,0.9670
3942.00,0.9492
3941.00,0.9328
3940.00,0.9181
3939.00,0.9053
3938.00,0.8945
3937.00,0.8855
3936.00,0.8785
3935.00,0.8735
3934.00,0.8707
3933.00,0.8699
3932.00,0.8711
3931.00,0.8744
3930.00,0.8797
3929.00,0.8872
3928.00,0.8966
3927.00,0.9079
3926.00,0.9209
3925.00,0.9357
3924.00,0.9520
3923.00,0.9695
3922.00,0.9879
3921.00,1.0073
3920.00,1.0277
3919.00,1.0490
3918.00,1.0713
3917.00,1.0946
3916.00,1.1188
3915.00,1.1433
3914.00,1.1678
3913.00,1.1922
3912.00,1.2168
3911.00,1.2416
3910.00,1.2663
3909.00,1.2906
3908.00,1.3144
3907.00,1.3375
3906.00,1.3604
3905.00,1.3834
3904.00,1.4067
3903.00,1.4301
3902.00,1.4532
3901.00,1.4758
3900.00,1.4978
3899.00,1.5192
3898.00,1.5395
3897.00,1.5585
3896.00,1.5762
3895.00,1.5927
3894.00,1.6082
3893.00,1.6229
3892.00,1.6372
3891.00,1.6514
3890.00,1.6652
3889.00,1.6783
3888.00,1.6904
3887.00,1.7018
3886.00,1.7128
3885.00,1.7232
3884.00,1.7331
3883.00,1.7423
3882.00,1.7510
3881.00,1.7592
3880.00,1.7667
3879.00,1.7734
3878.00,1.7793
3877.00,1.7847
3876.00,1.7895
3875.00,1.7938
3874.00,1.7975
3873.00,1.8006
3872.00,1.8034
3871.00,1.8063
3870.00,1.8092
3869.00,1.8117
3868.00,1.8133
3867.00,1.8139
3866.00,1.8135
3865.00,1.8124
3864.00,1.8107
3863.00,1.8086
3862.00,1.8066
3861.00,1.8043
3860.00,1.8015
3859.00,1.7980
3858.00,1.7941
3857.00,1.7901
3856.00,1.7858
3855.00,1.7809
3854.00,1.7748
3853.00,1.7675
3852.00,1.7595
3851.00,1.7513
3850.00,1.7427
3849.00,1.7333
3848.00,1.7229
3847.00,1.7120
3846.00,1.7010
3845.00,1.6898
3844.00,1.6780
3843.00,1.6655
3842.00,1.6525
3841.00,1.6393
3840.00,1.6256
3839.00,1.6113
3838.00,1.5960
3837.00,1.5799
3836.00,1.5633
3835.00,1.5460
3834.00,1.5277
3833.00,1.5080
3832.00,1.4872
3831.00,1.4655
3830.00,1.4435
3829.00,1.4212
3828.00,1.3981
3827.00,1.3741
3826.00,1.3493
3825.00,1.3245
3824.00,1.3000
3823.00,1.2752
3822.00,1.2486
3821.00,1.2200
3820.00,1.1910
3819.00,1.1635
3818.00,1.1377
3817.00,1.1121
3816.00,1.0854
3815.00,1.0579
3814.00,1.0313
3813.00,1.0066
3812.00,0.9840
3811.00,0.9631
3810.00,0.9440
3809.00,0.9269
3808.00,0.9117
3807.00,0.8980
3806.00,0.8857
3805.00,0.8757
3804.00,0.8687
3803.00,0.8651
3802.00,0.8644
3801.00,0.8659
3800.00,0.8693
3799.00,0.8745
3798.00,0.8818
3797.00,0.8917
3796.00,0.9040
3795.00,0.9183
3794.00,0.9344
3793.00,0.9521
3792.00,0.9715
3791.00,0.9923
3790.00,1.0144
3789.00,1.0375
3788.00,1.0615
3787.00,1.0862
3786.00,1.1116
3785.00,1.1378
3784.00,1.1645
3783.00,1.1913
3782.00,1.2178
3781.00,1.2441
3780.00,1.2708
3779.00,1.2980
3778.00,1.3256
3777.00,1.3529
3776.00,1.3795
3775.00,1.4051
3774.00,1.4297
3773.00,1.4534
3772.00,1.4764
3771.00,1.4992
3770.00,1.5220
3769.00,1.5447
3768.00,1.5667
3767.00,1.5878
3766.00,1.6079
3765.00,1.6272
3764.00,1.6455
3763.00,1.6624
3762.00,1.6780
3761.00,1.6930
3760.00,1.7076
3759.00,1.7217
3758.00,1.7354
3757.00,1.7485
3756.00,1.7608
3755.00,1.7722
3754.00,1.7829
3753.00,1.7933
3752.00,1.8036
3751.00,1.8139
3750.00,1.8240
3749.00,1.8337
3748.00,1.8420
3747.00,1.8485
3746.00,1.8541
3745.00,1.8599
3744.00,1.8659
3743.00,1.8715
3742.00,1.8760
3741.00,1.8798
3740.00,1.8832
3739.00,1.8862
3738.00,1.8893
3737.00,1.8930
3736.00,1.8969
3735.00,1.9000
3734.00,1.9019
3733.00,1.9032
3732.00,1.9041
3731.00,1.9042
3730.00,1.9032
3729.00,1.9010
3728.00,1.8977
3727.00,1.8919
3726.00,1.8859
3725.00,1.8771
3724.00,1.8720
3723.00,1.8561
3722.00,1.8372
3721.00,1.8329
3720.00,1.8231
3719.00,1.8147
3718.00,1.8051
3717.00,1.7961
3716.00,1.7866
3715.00,1.7764
3714.00,1.7653
3713.00,1.7531
3712.00,1.7395
3711.00,1.7246
3710.00,1.7089
3709.00,1.6926
3708.00,1.6758
3707.00,1.6578
3706.00,1.6398
3705.00,1.6199
3704.00,1.6024
3703.00,1.5864
3702.00,1.5642
3701.00,1.5400
3700.00,1.5146
3699.00,1.4892
3698.00,1.4638
3697.00,1.4382
3696.00,1.4123
3695.00,1.3863
3694.00,1.3605
3693.00,1.3353
3692.00,1.3107
3691.00,1.2865
3690.00,1.2625
3689.00,1.2382
3688.00,1.2141
3687.00,1.1907
3686.00,1.1691
3685.00,1.1490
3684.00,1.1304
3683.00,1.1133
3682.00,1.0976
3681.00,1.0839
3680.00,1.0723
3679.00,1.0630
3678.00,1.0562
3677.00,1.0519
3676.00,1.0499
3675.00,1.0496
3674.00,1.0507
3673.00,1.0536
3672.00,1.0593
3671.00,1.0683
3670.00,1.0805
3669.00,1.0947
3668.00,1.1100
3667.00,1.1261
3666.00,1.1432
3665.00,1.1617
3664.00,1.1817
3663.00,1.2031
3662.00,1.2256
3661.00,1.2489
3660.00,1.2725
3659.00,1.2963
3658.00,1.3206
3657.00,1.3460
3656.00,1.3725
3655.00,1.3993
3654.00,1.4247
3653.00,1.4483
3652.00,1.4707
3651.00,1.4933
3650.00,1.5170
3649.00,1.5421
3648.00,1.5680
3647.00,1.5935
3646.00,1.6172
3645.00,1.6383
3644.00,1.6576
3643.00,1.6759
3642.00,1.6940
3641.00,1.7117
3640.00,1.7292
3639.00,1.7464
3638.00,1.7633
3637.00,1.7796
3636.00,1.7953
3635.00,1.8103
3634.00,1.8248
3633.00,1.8385
3632.00,1.8510
3631.00,1.8626
3630.00,1.8738
3629.00,1.8852
3628.00,1.8968
3627.00,1.9082
3626.00,1.9191
3625.00,1.9290
3624.00,1.9377
3623.00,1.9453
3622.00,1.9517
3621.00,1.9571
3620.00,1.9625
3619.00,1.9681
3618.00,1.9741
3617.00,1.9794
3616.00,1.9848
3615.00,1.9903
3614.00,1.9944
3613.00,1.9978
3612.00,2.0007
3611.00,2.0036
3610.00,2.0063
3609.00,2.0088
3608.00,2.0112
3607.00,2.0134
3606.00,2.0152
3605.00,2.0167
3604.00,2.0183
3603.00,2.0198
3602.00,2.0209
3601.00,2.0215
3600.00,2.0215
3599.00,2.0207
3598.00,2.0194
3597.00,2.0172
3596.00,2.0154
3595.00,2.0123
3594.00,2.0115
3593.00,2.0109
3592.00,2.0072
3591.00,2.0044
3590.00,2.0006
3589.00,1.9962
3588.00,1.9909
3587.00,1.9853
3586.00,1.9797
3585.00,1.9742
3584.00,1.9688
3583.00,1.9629
3582.00,1.9561
3581.00,1.9485
3580.00,1.9404
3579.00,1.9322
3578.00,1.9231
3577.00,1.9132
3576.00,1.9027
3575.00,1.8924
3574.00,1.8823
3573.00,1.8720
3572.00,1.8617
3571.00,1.8512
3570.00,1.8408
3569.00,1.8301
3568.00,1.8186
3567.00,1.8063
3566.00,1.7935
3565.00,1.7809
3564.00,1.7686
3563.00,1.7565
3562.00,1.7447
3561.00,1.7329
3560.00,1.7212
3559.00,1.7093
3558.00,1.6973
3557.00,1.6856
3556.00,1.6742
3555.00,1.6632
3554.00,1.6523
3553.00,1.6414
3552.00,1.6308
3551.00,1.6207
3550.00,1.6112
3549.00,1.6027
3548.00,1.5949
3547.00,1.5879
3546.00,1.5812
3545.00,1.5750
3544.00,1.5694
3543.00,1.5650
3542.00,1.5618
3541.00,1.5595
3540.00,1.5581
3539.00,1.5574
3538.00,1.5572
3537.00,1.5576
3536.00,1.5589
3535.00,1.5611
3534.00,1.5642
3533.00,1.5683
3532.00,1.5731
3531.00,1.5785
3530.00,1.5844
3529.00,1.5909
3528.00,1.5978
3527.00,1.6052
3526.00,1.6130
3525.00,1.6212
3524.00,1.6300
3523.00,1.6394
3522.00,1.6494
3521.00,1.6599
3520.00,1.6706
3519.00,1.6815
3518.00,1.6924
3517.00,1.7032
3516.00,1.7141
3515.00,1.7252
3514.00,1.7366
3513.00,1.7480
3512.00,1.7594
3511.00,1.7708
3510.00,1.7824
3509.00,1.7942
3508.00,1.8060
3507.00,1.8176
3506.00,1.8290
3505.00,1.8405
3504.00,1.8521
3503.00,1.8637
3502.00,1.8747
3501.00,1.8850
3500.00,1.8948
3499.00,1.9047
3498.00,1.9148
3497.00,1.9252
3496.00,1.9356
3495.00,1.9460
3494.00,1.9564
3493.00,1.9667
3492.00,1.9766
3491.00,1.9859
3490.00,1.9947
3489.00,2.0032
3488.00,2.0117
3487.00,2.0200
3486.00,2.0278
3485.00,2.0351
3484.00,2.0422
3483.00,2.0491
3482.00,2.0557
3481.00,2.0615
3480.00,2.0667
3479.00,2.0715
3478.00,2.0763
3477.00,2.0816
3476.00,2.0875
3475.00,2.0933
3474.00,2.0984
3473.00,2.1024
3472.00,2.1054
3471.00,2.1078
3470.00,2.1099
3469.00,2.1120
3468.00,2.1141
3467.00,2.1163
3466.00,2.1181
3465.00,2.1195
3464.00,2.1208
3463.00,2.1218
3462.00,2.1222
3461.00,2.1214
3460.00,2.1195
3459.00,2.1169
3458.00,2.1141
3457.00,2.1116
3456.00,2.1093
3455.00,2.1069
3454.00,2.1042
3453.00,2.1012
3452.00,2.0980
3451.00,2.0941
3450.00,2.0895
3449.00,2.0842
3448.00,2.0788
3447.00,2.0734
3446.00,2.0678
3445.00,2.0614
3444.00,2.0542
3443.00,2.0466
3442.00,2.0389
3441.00,2.0313
3440.00,2.0234
3439.00,2.0146
3438.00,2.0047
3437.00,1.9942
3436.00,1.9835
3435.00,1.9729
3434.00,1.9622
3433.00,1.9513
3432.00,1.9402
3431.00,1.9293
3430.00,1.9183
3429.00,1.9072
3428.00,1.8956
3427.00,1.8835
3426.00,1.8710
3425.00,1.8583
3424.00,1.8456
3423.00,1.8330
3422.00,1.8205
3421.00,1.8082
3420.00,1.7963
3419.00,1.7850
3418.00,1.7742
3417.00,1.7639
3416.00,1.7541
3415.00,1.7448
3414.00,1.7358
3413.00,1.7272
3412.00,1.7189
3411.00,1.7108
3410.00,1.7028
3409.00,1.6950
3408.00,1.6874
3407.00,1.6797
3406.00,1.6721
3405.00,1.6642
3404.00,1.6558
3403.00,1.6469
3402.00,1.6374
3401.00,1.6275
3400.00,1.6176
3399.00,1.6078
3398.00,1.5981
3397.00,1.5887
3396.00,1.5798
3395.00,1.5716
3394.00,1.5641
3393.00,1.5575
3392.00,1.5520
3391.00,1.5477
3390.00,1.5448
3389.00,1.5434
3388.00,1.5434
3387.00,1.5447
3386.00,1.5471
3385.00,1.5508
3384.00,1.5558
3383.00,1.5623
3382.00,1.5703
3381.00,1.5795
3380.00,1.5898
3379.00,1.6009
3378.00,1.6127
3377.00,1.6252
3376.00,1.6381
3375.00,1.6518
3374.00,1.6661
3373.00,1.6813
3372.00,1.6970
3371.00,1.7131
3370.00,1.7291
3369.00,1.7450
3368.00,1.7610
3367.00,1.7773
3366.00,1.7939
3365.00,1.8105
3364.00,1.8268
3363.00,1.8429
3362.00,1.8587
3361.00,1.8742
3360.00,1.8893
3359.00,1.9038
3358.00,1.9175
3357.00,1.9308
3356.00,1.9439
3355.00,1.9569
3354.00,1.9694
3353.00,1.9812
3352.00,1.9922
3351.00,2.0028
3350.00,2.0134
3349.00,2.0239
3348.00,2.0339
3347.00,2.0432
3346.00,2.0517
3345.00,2.0598
3344.00,2.0675
3343.00,2.0750
3342.00,2.0823
3341.00,2.0893
3340.00,2.0957
3339.00,2.1013
3338.00,2.1060
3337.00,2.1100
3336.00,2.1136
3335.00,2.1170
3334.00,2.1199
3333.00,2.1224
3332.00,2.1247
3331.00,2.1269
3330.00,2.1284
3329.00,2.1292
3328.00,2.1296
3327.00,2.1299
3326.00,2.1302
3325.00,2.1302
3324.00,2.1293
3323.00,2.1275
3322.00,2.1250
3321.00,2.1221
3320.00,2.1187
3319.00,2.1148
3318.00,2.1104
3317.00,2.1060
3316.00,2.1014
3315.00,2.0963
3314.00,2.0906
3313.00,2.0843
3312.00,2.0779
3311.00,2.0714
3310.00,2.0644
3309.00,2.0569
3308.00,2.0490
3307.00,2.0406
3306.00,2.0317
3305.00,2.0220
3304.00,2.0117
3303.00,2.0008
3302.00,1.9893
3301.00,1.9770
3300.00,1.9643
3299.00,1.9514
3298.00,1.9382
3297.00,1.9248
3296.00,1.9107
3295.00,1.8959
3294.00,1.8803
3293.00,1.8642
3292.00,1.8478
3291.00,1.8311
3290.00,1.8141
3289.00,1.7968
3288.00,1.7793
3287.00,1.7616
3286.00,1.7436
3285.00,1.7256
3284.00,1.7076
3283.00,1.6898
3282.00,1.6722
3281.00,1.6547
3280.00,1.6373
3279.00,1.6201
3278.00,1.6034
3277.00,1.5874
3276.00,1.5720
3275.00,1.5575
3274.00,1.5439
3273.00,1.5312
3272.00,1.5195
3271.00,1.5090
3270.00,1.4998
3269.00,1.4920
3268.00,1.4855
3267.00,1.4803
3266.00,1.4764
3265.00,1.4740
3264.00,1.4732
3263.00,1.4741
3262.00,1.4765
3261.00,1.4804
3260.00,1.4856
3259.00,1.4922
3258.00,1.5001
3257.00,1.5091
3256.00,1.5194
3255.00,1.5309
3254.00,1.5435
3253.00,1.5571
3252.00,1.5716
3251.00,1.5871
3250.00,1.6032
3249.00,1.6198
3248.00,1.6365
3247.00,1.6535
3246.00,1.6709
3245.00,1.6886
3244.00,1.7067
3243.00,1.7249
3242.00,1.7432
3241.00,1.7614
3240.00,1.7796
3239.00,1.7976
3238.00,1.8154
3237.00,1.8330
3236.00,1.8507
3235.00,1.8680
3234.00,1.8847
3233.00,1.9007
3232.00,1.9165
3231.00,1.9320
3230.00,1.9474
3229.00,1.9624
3228.00,1.9771
3227.00,1.9914
3226.00,2.0051
3225.00,2.0183
3224.00,2.0312
3223.00,2.0437
3222.00,2.0558
3221.00,2.0669
3220.00,2.0775
3219.00,2.0877
3218.00,2.0979
3217.00,2.1075
3216.00,2.1161
3215.00,2.1239
3214.00,2.1312
3213.00,2.1383
3212.00,2.1449
3211.00,2.1513
3210.00,2.1576
3209.00,2.1638
3208.00,2.1693
3207.00,2.1736
3206.00,2.1769
3205.00,2.1797
3204.00,2.1827
3203.00,2.1861
3202.00,2.1895
3201.00,2.1923
3200.00,2.1939
3199.00,2.1944
3198.00,2.1945
3197.00,2.1947
3196.00,2.1951
3195.00,2.1949
3194.00,2.1941
3193.00,2.1929
3192.00,2.1913
3191.00,2.1893
3190.00,2.1869
3189.00,2.1843
3188.00,2.1816
3187.00,2.1784
3186.00,2.1746
3185.00,2.1702
3184.00,2.1656
3183.00,2.1606
3182.00,2.1549
3181.00,2.1487
3180.00,2.1422
3179.00,2.1354
3178.00,2.1282
3177.00,2.1205
3176.00,2.1123
3175.00,2.1034
3174.00,2.0939
3173.00,2.0838
3172.00,2.0735
3171.00,2.0632
3170.00,2.0525
3169.00,2.0414
3168.00,2.0295
3167.00,2.0168
3166.00,2.0033
3165.00,1.9889
3164.00,1.9738
3163.00,1.9581
3162.00,1.9423
3161.00,1.9265
3160.00,1.9106
3159.00,1.8943
3158.00,1.8774
3157.00,1.8601
3156.00,1.8425
3155.00,1.8245
3154.00,1.8062
3153.00,1.7877
3152.00,1.7690
3151.00,1.7505
3150.00,1.7323
3149.00,1.7145
3148.00,1.6972
3147.00,1.6802
3146.00,1.6635
3145.00,1.6472
3144.00,1.6315
3143.00,1.6166
3142.00,1.6031
3141.00,1.5909
3140.00,1.5800
3139.00,1.5703
3138.00,1.5618
3137.00,1.5546
3136.00,1.5489
3135.00,1.5448
3134.00,1.5424
3133.00,1.5419
3132.00,1.5433
3131.00,1.5464
3130.00,1.5510
3129.00,1.5570
3128.00,1.5647
3127.00,1.5740
3126.00,1.5849
3125.00,1.5970
3124.00,1.6103
3123.00,1.6246
3122.00,1.6398
3121.00,1.6559
3120.00,1.6728
3119.00,1.6904
3118.00,1.7086
3117.00,1.7274
3116.00,1.7466
3115.00,1.7662
3114.00,1.7860
3113.00,1.8059
3112.00,1.8257
3111.00,1.8454
3110.00,1.8649
3109.00,1.8843
3108.00,1.9035
3107.00,1.9225
3106.00,1.9409
3105.00,1.9590
3104.00,1.9766
3103.00,1.9938
3102.00,2.0101
3101.00,2.0260
3100.00,2.0417
3099.00,2.0574
3098.00,2.0727
3097.00,2.0874
3096.00,2.1012
3095.00,2.1143
3094.00,2.1267
3093.00,2.1386
3092.00,2.1501
3091.00,2.1612
3090.00,2.1719
3089.00,2.1822
3088.00,2.1921
3087.00,2.2013
3086.00,2.2094
3085.00,2.2166
3084.00,2.2234
3083.00,2.2302
3082.00,2.2368
3081.00,2.2428
3080.00,2.2476
3079.00,2.2511
3078.00,2.2536
3077.00,2.2560
3076.00,2.2591
3075.00,2.2625
3074.00,2.2653
3073.00,2.2666
3072.00,2.2665
3071.00,2.2658
3070.00,2.2647
3069.00,2.2636
3068.00,2.2623
3067.00,2.2607
3066.00,2.2585
3065.00,2.2556
3064.00,2.2521
3063.00,2.2482
3062.00,2.2440
3061.00,2.2393
3060.00,2.2338
3059.00,2.2274
3058.00,2.2202
3057.00,2.2122
3056.00,2.2035
3055.00,2.1937
3054.00,2.1831
3053.00,2.1721
3052.00,2.1611
3051.00,2.1497
3050.00,2.1372
3049.00,2.1234
3048.00,2.1089
3047.00,2.0939
3046.00,2.0783
3045.00,2.0616
3044.00,2.0438
3043.00,2.0252
3042.00,2.0060
3041.00,1.9862
3040.00,1.9657
3039.00,1.9447
3038.00,1.9234
3037.00,1.9019
3036.00,1.8804
3035.00,1.8587
3034.00,1.8370
3033.00,1.8156
3032.00,1.7947
3031.00,1.7746
3030.00,1.7555
3029.00,1.7378
3028.00,1.7216
3027.00,1.7071
3026.00,1.6943
3025.00,1.6836
3024.00,1.6754
3023.00,1.6699
3022.00,1.6671
3021.00,1.6670
3020.00,1.6695
3019.00,1.6748
3018.00,1.6829
3017.00,1.6938
3016.00,1.7075
3015.00,1.7239
3014.00,1.7427
3013.00,1.7640
3012.00,1.7874
3011.00,1.8126
3010.00,1.8391
3009.00,1.8667
3008.00,1.8952
3007.00,1.9245
3006.00,1.9543
3005.00,1.9844
3004.00,2.0145
3003.00,2.0445
3002.00,2.0744
3001.00,2.1043
3000.00,2.1343
2999.00,2.1639
2998.00,2.1923
2997.00,2.2189
2996.00,2.2437
2995.00,2.2671
2994.00,2.2896
2993.00,2.3112
2992.00,2.3316
2991.00,2.3504
2990.00,2.3678
2989.00,2.3843
2988.00,2.4002
2987.00,2.4157
2986.00,2.4306
2985.00,2.4450
2984.00,2.4593
2983.00,2.4739
2982.00,2.4894
2981.00,2.5059
2980.00,2.5234
2979.00,2.5413
2978.00,2.5604
2977.00,2.5830
2976.00,2.6118
2975.00,2.6487
2974.00,2.6947
2973.00,2.7494
2972.00,2.8113
2971.00,2.8783
2970.00,2.9480
2969.00,3.0205
2968.00,3.0974
2967.00,3.1803
2966.00,3.2691
2965.00,3.3639
2964.00,3.4648
2963.00,3.5685
2962.00,3.6670
2961.00,3.7566
2960.00,3.8491
2959.00,3.9637
2958.00,4.1002
2957.00,4.2165
2956.00,4.2682
2955.00,4.2856
2954.00,4.3405
2953.00,4.4906
2952.00,4.7147
2951.00,4.7616
2950.00,4.7391
2949.00,4.7382
2948.00,4.7610
2947.00,4.5756
2946.00,4.3810
2945.00,4.3072
2944.00,4.3552
2943.00,4.5488
2942.00,4.7433
2941.00,4.6811
2940.00,4.6590
2939.00,4.7441
2938.00,4.6570
2937.00,4.4868
2936.00,4.3787
2935.00,4.3738
2934.00,4.3471
2933.00,4.3109
2932.00,4.2775
2931.00,4.2379
2930.00,4.2498
2929.00,4.3719
2928.00,4.6268
2927.00,4.8377
2926.00,4.9815
2925.00,4.9071
2924.00,4.4633
2923.00,4.1637
2922.00,3.9770
2921.00,3.9054
2920.00,3.8597
2919.00,3.8231
2918.00,3.7770
2917.00,3.7008
2916.00,3.5996
2915.00,3.4915
2914.00,3.3948
2913.00,3.3179
2912.00,3.2589
2911.00,3.2128
2910.00,3.1758
2909.00,3.1446
2908.00,3.1154
2907.00,3.0865
2906.00,3.0599
2905.00,3.0378
2904.00,3.0183
2903.00,2.9980
2902.00,2.9762
2901.00,2.9554
2900.00,2.9373
2899.00,2.9210
2898.00,2.9058
2897.00,2.8927
2896.00,2.8831
2895.00,2.8766
2894.00,2.8706
2893.00,2.8630
2892.00,2.8536
2891.00,2.8448
2890.00,2.8389
2889.00,2.8367
2888.00,2.8372
2887.00,2.8391
2886.00,2.8428
2885.00,2.8493
2884.00,2.8581
2883.00,2.8684
2882.00,2.8812
2881.00,2.8990
2880.00,2.9220
2879.00,2.9463
2878.00,2.9685
2877.00,2.9903
2876.00,3.0184
2875.00,3.0583
2874.00,3.1113
2873.00,3.1748
2872.00,3.2437
2871.00,3.3138
2870.00,3.3842
2869.00,3.4572
2868.00,3.5325
2867.00,3.6044
2866.00,3.6705
2865.00,3.7394
2864.00,3.8180
2863.00,3.8907
2862.00,3.9191
2861.00,3.8830
2860.00,3.7968
2859.00,3.6842
2858.00,3.5678
2857.00,3.4640
2856.00,3.3751
2855.00,3.2901
2854.00,3.1984
2853.00,3.1007
2852.00,3.0052
2851.00,2.9199
2850.00,2.8482
2849.00,2.7905
2848.00,2.7442
2847.00,2.7055
2846.00,2.6711
2845.00,2.6393
2844.00,2.6101
2843.00,2.5841
2842.00,2.5615
2841.00,2.5422
2840.00,2.5249
2839.00,2.5087
2838.00,2.4927
2837.00,2.4767
2836.00,2.4605
2835.00,2.4439
2834.00,2.4269
2833.00,2.4098
2832.00,2.3924
2831.00,2.3741
2830.00,2.3546
2829.00,2.3346
2828.00,2.3141
2827.00,2.2928
2826.00,2.2701
2825.00,2.2458
2824.00,2.2199
2823.00,2.1921
2822.00,2.1622
2821.00,2.1301
2820.00,2.0959
2819.00,2.0598
2818.00,2.0219
2817.00,1.9828
2816.00,1.9429
2815.00,1.9028
2814.00,1.8632
2813.00,1.8248
2812.00,1.7881
2811.00,1.7533
2810.00,1.7207
2809.00,1.6908
2808.00,1.6644
2807.00,1.6421
2806.00,1.6245
2805.00,1.6119
2804.00,1.6045
2803.00,1.6025
2802.00,1.6056
2801.00,1.6133
2800.00,1.6251
2799.00,1.6399
2798.00,1.6570
2797.00,1.6754
2796.00,1.6947
2795.00,1.7145
2794.00,1.7348
2793.00,1.7557
2792.00,1.7778
2791.00,1.8013
2790.00,1.8264
2789.00,1.8528
2788.00,1.8800
2787.00,1.9079
2786.00,1.9362
2785.00,1.9648
2784.00,1.9933
2783.00,2.0215
2782.00,2.0492
2781.00,2.0763
2780.00,2.1023
2779.00,2.1268
2778.00,2.1492
2777.00,2.1700
2776.00,2.1899
2775.00,2.2092
2774.00,2.2277
2773.00,2.2452
2772.00,2.2617
2771.00,2.2771
2770.00,2.2915
2769.00,2.3047
2768.00,2.3168
2767.00,2.3281
2766.00,2.3388
2765.00,2.3492
2764.00,2.3590
2763.00,2.3677
2762.00,2.3750
2761.00,2.3816
2760.00,2.3882
2759.00,2.3951
2758.00,2.4016
2757.00,2.4069
2756.00,2.4107
2755.00,2.4130
2754.00,2.4144
2753.00,2.4157
2752.00,2.4173
2751.00,2.4188
2750.00,2.4188
2749.00,2.4171
2748.00,2.4143
2747.00,2.4114
2746.00,2.4089
2745.00,2.4062
2744.00,2.4032
2743.00,2.3996
2742.00,2.3953
2741.00,2.3899
2740.00,2.3834
2739.00,2.3763
2738.00,2.3691
2737.00,2.3614
2736.00,2.3527
2735.00,2.3426
2734.00,2.3317
2733.00,2.3207
2732.00,2.3095
2731.00,2.2976
2730.00,2.2841
2729.00,2.2690
2728.00,2.2528
2727.00,2.2356
2726.00,2.2179
2725.00,2.1997
2724.00,2.1808
2723.00,2.1608
2722.00,2.1395
2721.00,2.1170
2720.00,2.0935
2719.00,2.0689
2718.00,2.0433
2717.00,2.0166
2716.00,1.9887
2715.00,1.9596
2714.00,1.9292
2713.00,1.8975
2712.00,1.8646
2711.00,1.8306
2710.00,1.7954
2709.00,1.7595
2708.00,1.7233
2707.00,1.6871
2706.00,1.6512
2705.00,1.6159
2704.00,1.5814
2703.00,1.5484
2702.00,1.5173
2701.00,1.4884
2700.00,1.4624
2699.00,1.4395
2698.00,1.4201
2697.00,1.4047
2696.00,1.3935
2695.00,1.3867
2694.00,1.3845
2693.00,1.3868
2692.00,1.3938
2691.00,1.4053
2690.00,1.4213
2689.00,1.4415
2688.00,1.4656
2687.00,1.4931
2686.00,1.5237
2685.00,1.5569
2684.00,1.5920
2683.00,1.6284
2682.00,1.6652
2681.00,1.7020
2680.00,1.7383
2679.00,1.7735
2678.00,1.8070
2677.00,1.8385
2676.00,1.8680
2675.00,1.8958
2674.00,1.9221
2673.00,1.9471
2672.00,1.9709
2671.00,1.9932
2670.00,2.0140
2669.00,2.0338
2668.00,2.0530
2667.00,2.0716
2666.00,2.0899
2665.00,2.1082
2664.00,2.1267
2663.00,2.1452
2662.00,2.1638
2661.00,2.1827
2660.00,2.2024
2659.00,2.2223
2658.00,2.2417
2657.00,2.2598
2656.00,2.2770
2655.00,2.2938
2654.00,2.3106
2653.00,2.3272
2652.00,2.3424
2651.00,2.3557
2650.00,2.3672
2649.00,2.3779
2648.00,2.3884
2647.00,2.3986
2646.00,2.4079
2645.00,2.4162
2644.00,2.4242
2643.00,2.4320
2642.00,2.4398
2641.00,2.4473
2640.00,2.4546
2639.00,2.4614
2638.00,2.4672
2637.00,2.4720
2636.00,2.4764
2635.00,2.4809
2634.00,2.4854
2633.00,2.4896
2632.00,2.4936
2631.00,2.4973
2630.00,2.5008
2629.00,2.5036
2628.00,2.5052
2627.00,2.5053
2626.00,2.5041
2625.00,2.5025
2624.00,2.5009
2623.00,2.4990
2622.00,2.4961
2621.00,2.4925
2620.00,2.4885
2619.00,2.4846
2618.00,2.4805
2617.00,2.4763
2616.00,2.4721
2615.00,2.4673
2614.00,2.4614
2613.00,2.4540
2612.00,2.4458
2611.00,2.4376
2610.00,2.4297
2609.00,2.4220
2608.00,2.4141
2607.00,2.4053
2606.00,2.3950
2605.00,2.3835
2604.00,2.3714
2603.00,2.3585
2602.00,2.3442
2601.00,2.3283
2600.00,2.3115
2599.00,2.2941
2598.00,2.2761
2597.00,2.2570
2596.00,2.2367
2595.00,2.2160
2594.00,2.1950
2593.00,2.1731
2592.00,2.1497
2591.00,2.1247
2590.00,2.0984
2589.00,2.0712
2588.00,2.0431
2587.00,2.0141
2586.00,1.9840
2585.00,1.9527
2584.00,1.9201
2583.00,1.8865
2582.00,1.8519
2581.00,1.8164
2580.00,1.7802
2579.00,1.7435
2578.00,1.7069
2577.00,1.6705
2576.00,1.6346
2575.00,1.5996
2574.00,1.5659
2573.00,1.5340
2572.00,1.5041
2571.00,1.4763
2570.00,1.4511
2569.00,1.4289
2568.00,1.4101
2567.00,1.3948
2566.00,1.3832
2565.00,1.3757
2564.00,1.3722
2563.00,1.3731
2562.00,1.3784
2561.00,1.3881
2560.00,1.4021
2559.00,1.4201
2558.00,1.4418
2557.00,1.4669
2556.00,1.4950
2555.00,1.5257
2554.00,1.5584
2553.00,1.5929
2552.00,1.6287
2551.00,1.6654
2550.00,1.7028
2549.00,1.7406
2548.00,1.7786
2547.00,1.8165
2546.00,1.8539
2545.00,1.8908
2544.00,1.9269
2543.00,1.9616
2542.00,1.9946
2541.00,2.0261
2540.00,2.0563
2539.00,2.0854
2538.00,2.1136
2537.00,2.1408
2536.00,2.1672
2535.00,2.1925
2534.00,2.2167
2533.00,2.2400
2532.00,2.2623
2531.00,2.2834
2530.00,2.3029
2529.00,2.3212
2528.00,2.3384
2527.00,2.3549
2526.00,2.3710
2525.00,2.3871
2524.00,2.4028
2523.00,2.4178
2522.00,2.4317
2521.00,2.4444
2520.00,2.4559
2519.00,2.4662
2518.00,2.4755
2517.00,2.4849
2516.00,2.4950
2515.00,2.5051
2514.00,2.5144
2513.00,2.5226
2512.00,2.5299
2511.00,2.5365
2510.00,2.5429
2509.00,2.5494
2508.00,2.5559
2507.00,2.5613
2506.00,2.5651
2505.00,2.5674
2504.00,2.5693
2503.00,2.5713
2502.00,2.5737
2501.00,2.5770
2500.00,2.5810
2499.00,2.5846
2498.00,2.5861
2497.00,2.5848
2496.00,2.5815
2495.00,2.5777
2494.00,2.5748
2493.00,2.5734
2492.00,2.5728
2491.00,2.5714
2490.00,2.5681
2489.00,2.5630
2488.00,2.5568
2487.00,2.5500
2486.00,2.5431
2485.00,2.5368
2484.00,2.5312
2483.00,2.5251
2482.00,2.5173
2481.00,2.5079
2480.00,2.4979
2479.00,2.4884
2478.00,2.4791
2477.00,2.4695
2476.00,2.4590
2475.00,2.4470
2474.00,2.4333
2473.00,2.4186
2472.00,2.4038
2471.00,2.3892
2470.00,2.3743
2469.00,2.3584
2468.00,2.3408
2467.00,2.3216
2466.00,2.3009
2465.00,2.2792
2464.00,2.2570
2463.00,2.2344
2462.00,2.2109
2461.00,2.1860
2460.00,2.1598
2459.00,2.1320
2458.00,2.1026
2457.00,2.0714
2456.00,2.0384
2455.00,2.0036
2454.00,1.9673
2453.00,1.9298
2452.00,1.8910
2451.00,1.8510
2450.00,1.8098
2449.00,1.7675
2448.00,1.7243
2447.00,1.6806
2446.00,1.6369
2445.00,1.5936
2444.00,1.5513
2443.00,1.5107
2442.00,1.4724
2441.00,1.4369
2440.00,1.4050
2439.00,1.3770
2438.00,1.3537
2437.00,1.3356
2436.00,1.3235
2435.00,1.3174
2434.00,1.3176
2433.00,1.3241
2432.00,1.3366
2431.00,1.3548
2430.00,1.3778
2429.00,1.4050
2428.00,1.4358
2427.00,1.4692
2426.00,1.5048
2425.00,1.5422
2424.00,1.5809
2423.00,1.6207
2422.00,1.6612
2421.00,1.7024
2420.00,1.7439
2419.00,1.7854
2418.00,1.8267
2417.00,1.8674
2416.00,1.9076
2415.00,1.9469
2414.00,1.9850
2413.00,2.0220
2412.00,2.0579
2411.00,2.0926
2410.00,2.1256
2409.00,2.1569
2408.00,2.1865
2407.00,2.2149
2406.00,2.2423
2405.00,2.2687
2404.00,2.2943
2403.00,2.3188
2402.00,2.3422
2401.00,2.3645
2400.00,2.3857
2399.00,2.4063
2398.00,2.4258
2397.00,2.4436
2396.00,2.4593
2395.00,2.4735
2394.00,2.4870
2393.00,2.5008
2392.00,2.5149
2391.00,2.5292
2390.00,2.5432
2389.00,2.5566
2388.00,2.5685
2387.00,2.5787
2386.00,2.5886
2385.00,2.5976
2384.00,2.6063
2383.00,2.6145
2382.00,2.6226
2381.00,2.6304
2380.00,2.6374
2379.00,2.6436
2378.00,2.6492
2377.00,2.6542
2376.00,2.6579
2375.00,2.6597
2374.00,2.6604
2373.00,2.6616
2372.00,2.6643
2371.00,2.6680
2370.00,2.6717
2369.00,2.6751
2368.00,2.6782
2367.00,2.6805
2366.00,2.6817
2365.00,2.6821
2364.00,2.6818
2363.00,2.6801
2362.00,2.6771
2361.00,2.6741
2360.00,2.6717
2359.00,2.6685
2358.00,2.6626
2357.00,2.6539
2356.00,2.6445
2355.00,2.6363
2354.00,2.6291
2353.00,2.6215
2352.00,2.6128
2351.00,2.6029
2350.00,2.5930
2349.00,2.5840
2348.00,2.5763
2347.00,2.5690
2346.00,2.5609
2345.00,2.5507
2344.00,2.5379
2343.00,2.5231
2342.00,2.5076
2341.00,2.4924
2340.00,2.4774
2339.00,2.4622
2338.00,2.4461
2337.00,2.4290
2336.00,2.4107
2335.00,2.3913
2334.00,2.3706
2333.00,2.3487
2332.00,2.3254
2331.00,2.3005
2330.00,2.2741
2329.00,2.2467
2328.00,2.2185
2327.00,2.1888
2326.00,2.1571
2325.00,2.1231
2324.00,2.0870
2323.00,2.0488
2322.00,2.0084
2321.00,1.9661
2320.00,1.9217
2319.00,1.8762
2318.00,1.8279
2317.00,1.7807
2316.00,1.7298
2315.00,1.6844
2314.00,1.6307
2313.00,1.6019
2312.00,1.6174
2311.00,1.6270
2310.00,1.6671
2309.00,1.7106
2308.00,1.7372
2307.00,1.7553
2306.00,1.7552
2305.00,1.7584
2304.00,1.7534
2303.00,1.7534
2302.00,1.7473
2301.00,1.7463
2300.00,1.7466
2299.00,1.7562
2298.00,1.7701
2297.00,1.7907
2296.00,1.8094
2295.00,1.8310
2294.00,1.8498
2293.00,1.8734
2292.00,1.8948
2291.00,1.9212
2290.00,1.9454
2289.00,1.9731
2288.00,1.9995
2287.00,2.0289
2286.00,2.0585
2285.00,2.0901
2284.00,2.1217
2283.00,2.1524
2282.00,2.1808
2281.00,2.2061
2280.00,2.2304
2279.00,2.2559
2278.00,2.2853
2277.00,2.3158
2276.00,2.3451
2275.00,2.3705
2274.00,2.3936
2273.00,2.4146
2272.00,2.4348
2271.00,2.4542
2270.00,2.4729
2269.00,2.4914
2268.00,2.5092
2267.00,2.5269
2266.00,2.5441
2265.00,2.5614
2264.00,2.5784
2263.00,2.5946
2262.00,2.6097
2261.00,2.6235
2260.00,2.6360
2259.00,2.6488
2258.00,2.6621
2257.00,2.6759
2256.00,2.6884
2255.00,2.6980
2254.00,2.7050
2253.00,2.7107
2252.00,2.7175
2251.00,2.7250
2250.00,2.7328
2249.00,2.7396
2248.00,2.7453
2247.00,2.7506
2246.00,2.7559
2245.00,2.7612
2244.00,2.7651
2243.00,2.7667
2242.00,2.7661
2241.00,2.7649
2240.00,2.7645
2239.00,2.7656
2238.00,2.7673
2237.00,2.7690
2236.00,2.7701
2235.00,2.7709
2234.00,2.7711
2233.00,2.7698
2232.00,2.7663
2231.00,2.7608
2230.00,2.7548
2229.00,2.7504
2228.00,2.7482
2227.00,2.7463
2226.00,2.7425
2225.00,2.7360
2224.00,2.7275
2223.00,2.7186
2222.00,2.7102
2221.00,2.7021
2220.00,2.6933
2219.00,2.6834
2218.00,2.6731
2217.00,2.6631
2216.00,2.6532
2215.00,2.6427
2214.00,2.6309
2213.00,2.6180
2212.00,2.6046
2211.00,2.5909
2210.00,2.5765
2209.00,2.5609
2208.00,2.5435
2207.00,2.5245
2206.00,2.5052
2205.00,2.4865
2204.00,2.4678
2203.00,2.4476
2202.00,2.4248
2201.00,2.4000
2200.00,2.3740
2199.00,2.3470
2198.00,2.3183
2197.00,2.2877
2196.00,2.2554
2195.00,2.2216
2194.00,2.1864
2193.00,2.1496
2192.00,2.1110
2191.00,2.0704
2190.00,2.0279
2189.00,1.9839
2188.00,1.9390
2187.00,1.8937
2186.00,1.8483
2185.00,1.8031
2184.00,1.7589
2183.00,1.7161
2182.00,1.6757
2181.00,1.6384
2180.00,1.6050
2179.00,1.5758
2178.00,1.5508
2177.00,1.5297
2176.00,1.5123
2175.00,1.4982
2174.00,1.4877
2173.00,1.4814
2172.00,1.4800
2171.00,1.4839
2170.00,1.4935
2169.00,1.5089
2168.00,1.5300
2167.00,1.5564
2166.00,1.5874
2165.00,1.6225
2164.00,1.6611
2163.00,1.7027
2162.00,1.7464
2161.00,1.7918
2160.00,1.8385
2159.00,1.8862
2158.00,1.9341
2157.00,1.9818
2156.00,2.0287
2155.00,2.0741
2154.00,2.1178
2153.00,2.1597
2152.00,2.2000
2151.00,2.2386
2150.00,2.2751
2149.00,2.3097
2148.00,2.3427
2147.00,2.3741
2146.00,2.4041
2145.00,2.4326
2144.00,2.4598
2143.00,2.4856
2142.00,2.5099
2141.00,2.5327
2140.00,2.5538
2139.00,2.5729
2138.00,2.5904
2137.00,2.6075
2136.00,2.6252
2135.00,2.6433
2134.00,2.6604
2133.00,2.6757
2132.00,2.6898
2131.00,2.7036
2130.00,2.7170
2129.00,2.7294
2128.00,2.7409
2127.00,2.7518
2126.00,2.7623
2125.00,2.7725
2124.00,2.7827
2123.00,2.7925
2122.00,2.8005
2121.00,2.8060
2120.00,2.8103
2119.00,2.8159
2118.00,2.8240
2117.00,2.8337
2116.00,2.8425
2115.00,2.8490
2114.00,2.8540
2113.00,2.8586
2112.00,2.8626
2111.00,2.8646
2110.00,2.8637
2109.00,2.8608
2108.00,2.8581
2107.00,2.8568
2106.00,2.8570
2105.00,2.8575
2104.00,2.8570
2103.00,2.8548
2102.00,2.8515
2101.00,2.8491
2100.00,2.8489
2099.00,2.8507
2098.00,2.8529
2097.00,2.8541
2096.00,2.8533
2095.00,2.8494
2094.00,2.8414
2093.00,2.8296
2092.00,2.8159
2091.00,2.8031
2090.00,2.7932
2089.00,2.7861
2088.00,2.7801
2087.00,2.7726
2086.00,2.7620
2085.00,2.7483
2084.00,2.7325
2083.00,2.7163
2082.00,2.7013
2081.00,2.6884
2080.00,2.6763
2079.00,2.6626
2078.00,2.6457
2077.00,2.6263
2076.00,2.6062
2075.00,2.5865
2074.00,2.5667
2073.00,2.5458
2072.00,2.5232
2071.00,2.4990
2070.00,2.4736
2069.00,2.4474
2068.00,2.4207
2067.00,2.3928
2066.00,2.3629
2065.00,2.3310
2064.00,2.2984
2063.00,2.2662
2062.00,2.2341
2061.00,2.2005
2060.00,2.1639
2059.00,2.1240
2058.00,2.0808
2057.00,2.0348
2056.00,1.9860
2055.00,1.9346
2054.00,1.8813
2053.00,1.8272
2052.00,1.7734
2051.00,1.7208
2050.00,1.6707
2049.00,1.6241
2048.00,1.5824
2047.00,1.5466
2046.00,1.5177
2045.00,1.4964
2044.00,1.4835
2043.00,1.4787
2042.00,1.4821
2041.00,1.4938
2040.00,1.5146
2039.00,1.5443
2038.00,1.5816
2037.00,1.6241
2036.00,1.6700
2035.00,1.7181
2034.00,1.7679
2033.00,1.8190
2032.00,1.8712
2031.00,1.9237
2030.00,1.9758
2029.00,2.0271
2028.00,2.0771
2027.00,2.1255
2026.00,2.1721
2025.00,2.2170
2024.00,2.2599
2023.00,2.3010
2022.00,2.3402
2021.00,2.3777
2020.00,2.4130
2019.00,2.4450
2018.00,2.4731
2017.00,2.4983
2016.00,2.5231
2015.00,2.5496
2014.00,2.5774
2013.00,2.6048
2012.00,2.6298
2011.00,2.6518
2010.00,2.6717
2009.00,2.6905
2008.00,2.7090
2007.00,2.7272
2006.00,2.7454
2005.00,2.7641
2004.00,2.7832
2003.00,2.8017
2002.00,2.8182
2001.00,2.8321
2000.00,2.8434
1999.00,2.8528
1998.00,2.8614
1997.00,2.8701
1996.00,2.8790
1995.00,2.8872
1994.00,2.8939
1993.00,2.8990
1992.00,2.9036
1991.00,2.9084
1990.00,2.9140
1989.00,2.9202
1988.00,2.9265
1987.00,2.9320
1986.00,2.9371
1985.00,2.9424
1984.00,2.9485
1983.00,2.9548
1982.00,2.9603
1981.00,2.9643
1980.00,2.9669
1979.00,2.9686
1978.00,2.9702
1977.00,2.9713
1976.00,2.9704
1975.00,2.9665
1974.00,2.9610
1973.00,2.9568
1972.00,2.9556
1971.00,2.9565
1970.00,2.9575
1969.00,2.9556
1968.00,2.9472
1967.00,2.9309
1966.00,2.9116
1965.00,2.8977
1964.00,2.8926
1963.00,2.8922
1962.00,2.8899
1961.00,2.8835
1960.00,2.8742
1959.00,2.8634
1958.00,2.8516
1957.00,2.8397
1956.00,2.8285
1955.00,2.8172
1954.00,2.8043
1953.00,2.7890
1952.00,2.7716
1951.00,2.7521
1950.00,2.7313
1949.00,2.7104
1948.00,2.6903
1947.00,2.6699
1946.00,2.6477
1945.00,2.6227
1944.00,2.5940
1943.00,2.5612
1942.00,2.5262
1941.00,2.4941
1940.00,2.4682
1939.00,2.4456
1938.00,2.4205
1937.00,2.3892
1936.00,2.3514
1935.00,2.3085
1934.00,2.2620
1933.00,2.2128
1932.00,2.1617
1931.00,2.1085
1930.00,2.0538
1929.00,1.9978
1928.00,1.9409
1927.00,1.8837
1926.00,1.8269
1925.00,1.7705
1924.00,1.7141
1923.00,1.6593
1922.00,1.6117
1921.00,1.5781
1920.00,1.5602
1919.00,1.5536
1918.00,1.5538
1917.00,1.5605
1916.00,1.5772
1915.00,1.6058
1914.00,1.6441
1913.00,1.6881
1912.00,1.7341
1911.00,1.7804
1910.00,1.8272
1909.00,1.8759
1908.00,1.9282
1907.00,1.9847
1906.00,2.0443
1905.00,2.1044
1904.00,2.1624
1903.00,2.2172
1902.00,2.2688
1901.00,2.3177
1900.00,2.3639
1899.00,2.4074
1898.00,2.4481
1897.00,2.4859
1896.00,2.5207
1895.00,2.5534
1894.00,2.5860
1893.00,2.6193
1892.00,2.6509
1891.00,2.6774
1890.00,2.6978
1889.00,2.7157
1888.00,2.7371
1887.00,2.7646
1886.00,2.7947
1885.00,2.8223
1884.00,2.8455
1883.00,2.8657
1882.00,2.8846
1881.00,2.9018
1880.00,2.9162
1879.00,2.9279
1878.00,2.9381
1877.00,2.9480
1876.00,2.9588
1875.00,2.9714
1874.00,2.9847
1873.00,2.9954
1872.00,3.0009
1871.00,3.0015
1870.00,2.9984
1869.00,2.9925
1868.00,2.9862
1867.00,2.9858
1866.00,2.9966
1865.00,3.0164
1864.00,3.0375
1863.00,3.0523
1862.00,3.0578
1861.00,3.0568
1860.00,3.0550
1859.00,3.0560
1858.00,3.0594
1857.00,3.0625
1856.00,3.0640
1855.00,3.0638
1854.00,3.0620
1853.00,3.0590
1852.00,3.0555
1851.00,3.0514
1850.00,3.0440
1849.00,3.0305
1848.00,3.0117
1847.00,2.9922
1846.00,2.9758
1845.00,2.9619
1844.00,2.9479
1843.00,2.9339
1842.00,2.9232
1841.00,2.9177
1840.00,2.9136
1839.00,2.9048
1838.00,2.8886
1837.00,2.8666
1836.00,2.8434
1835.00,2.8216
1834.00,2.8003
1833.00,2.7774
1832.00,2.7519
1831.00,2.7221
1830.00,2.6863
1829.00,2.6459
1828.00,2.6060
1827.00,2.5687
1826.00,2.5295
1825.00,2.4851
1824.00,2.4377
1823.00,2.3928
1822.00,2.3525
1821.00,2.3138
1820.00,2.2728
1819.00,2.2280
1818.00,2.1815
1817.00,2.1380
1816.00,2.1034
1815.00,2.0805
1814.00,2.0678
1813.00,2.0617
1812.00,2.0608
1811.00,2.0663
1810.00,2.0795
1809.00,2.0998
1808.00,2.1238
1807.00,2.1484
1806.00,2.1721
1805.00,2.1940
1804.00,2.2118
1803.00,2.2238
1802.00,2.2325
1801.00,2.2463
1800.00,2.2738
1799.00,2.3165
1798.00,2.3672
1797.00,2.4168
1796.00,2.4624
1795.00,2.5076
1794.00,2.5565
1793.00,2.6082
1792.00,2.6565
1791.00,2.6970
1790.00,2.7355
1789.00,2.7799
1788.00,2.8304
1787.00,2.8790
1786.00,2.9180
1785.00,2.9458
1784.00,2.9682
1783.00,2.9932
1782.00,3.0226
1781.00,3.0527
1780.00,3.0800
1779.00,3.1046
1778.00,3.1280
1777.00,3.1483
1776.00,3.1632
1775.00,3.1739
1774.00,3.1842
1773.00,3.1939
1772.00,3.1975
1771.00,3.1932
1770.00,3.1864
1769.00,3.1823
1768.00,3.1818
1767.00,3.1853
1766.00,3.1944
1765.00,3.2066
1764.00,3.2144
1763.00,3.2111
1762.00,3.1966
1761.00,3.1778
1760.00,3.1624
1759.00,3.1513
1758.00,3.1394
1757.00,3.1252
1756.00,3.1138
1755.00,3.1110
1754.00,3.1160
1753.00,3.1227
1752.00,3.1284
1751.00,3.1372
1750.00,3.1574
1749.00,3.1959
1748.00,3.2539
1747.00,3.3267
1746.00,3.4101
1745.00,3.5008
1744.00,3.5931
1743.00,3.6796
1742.00,3.7581
1741.00,3.8339
1740.00,3.9097
1739.00,3.9775
1738.00,4.0310
1737.00,4.0772
1736.00,4.1292
1735.00,4.2025
1734.00,4.3175
1733.00,4.4616
1732.00,4.5363
1731.00,4.5165
1730.00,4.4855
1729.00,4.4967
1728.00,4.5910
1727.00,4.6489
1726.00,4.5034
1725.00,4.3536
1724.00,4.2815
1723.00,4.2864
1722.00,4.3808
1721.00,4.5324
1720.00,4.5637
1719.00,4.4856
1718.00,4.4857
1717.00,4.5373
1716.00,4.5666
1715.00,4.6719
1714.00,4.6126
1713.00,4.3811
1712.00,4.3110
1711.00,4.3595
1710.00,4.4184
1709.00,4.4169
1708.00,4.4191
1707.00,4.4461
1706.00,4.4566
1705.00,4.4778
1704.00,4.6059
1703.00,4.8473
1702.00,4.5979
1701.00,4.3307
1700.00,4.2812
1699.00,4.3432
1698.00,4.4288
1697.00,4.4719
1696.00,4.4075
1695.00,4.3148
1694.00,4.2855
1693.00,4.2672
1692.00,4.2099
1691.00,4.1155
1690.00,3.9943
1689.00,3.8635
1688.00,3.7471
1687.00,3.6621
1686.00,3.6058
1685.00,3.5580
1684.00,3.4952
1683.00,3.4188
1682.00,3.3606
1681.00,3.3329
1680.00,3.3225
1679.00,3.3131
1678.00,3.2971
1677.00,3.2761
1676.00,3.2493
1675.00,3.2096
1674.00,3.1524
1673.00,3.0871
1672.00,3.0277
1671.00,2.9804
1670.00,2.9415
1669.00,2.9067
1668.00,2.8795
1667.00,2.8665
1666.00,2.8697
1665.00,2.8865
1664.00,2.9128
1663.00,2.9438
1662.00,2.9747
1661.00,3.0046
1660.00,3.0362
1659.00,3.0700
1658.00,3.1027
1657.00,3.1294
1656.00,3.1491
1655.00,3.1669
1654.00,3.1909
1653.00,3.2198
1652.00,3.2448
1651.00,3.2587
1650.00,3.2611
1649.00,3.2650
1648.00,3.2750
1647.00,3.2847
1646.00,3.2883
1645.00,3.2876
1644.00,3.2879
1643.00,3.2929
1642.00,3.3011
1641.00,3.3051
1640.00,3.3001
1639.00,3.2900
1638.00,3.2826
1637.00,3.2817
1636.00,3.2868
1635.00,3.2936
1634.00,3.2965
1633.00,3.2886
1632.00,3.2717
1631.00,3.2537
1630.00,3.2371
1629.00,3.2193
1628.00,3.1977
1627.00,3.1746
1626.00,3.1548
1625.00,3.1403
1624.00,3.1281
1623.00,3.1136
1622.00,3.0933
1621.00,3.0684
1620.00,3.0421
1619.00,3.0161
1618.00,2.9887
1617.00,2.9550
1616.00,2.9128
1615.00,2.8669
1614.00,2.8247
1613.00,2.7875
1612.00,2.7504
1611.00,2.7081
1610.00,2.6589
1609.00,2.6041
1608.00,2.5459
1607.00,2.4865
1606.00,2.4274
1605.00,2.3693
1604.00,2.3117
1603.00,2.2549
1602.00,2.2018
1601.00,2.1558
1600.00,2.1189
1599.00,2.0917
1598.00,2.0737
1597.00,2.0646
1596.00,2.0648
1595.00,2.0755
1594.00,2.0971
1593.00,2.1284
1592.00,2.1668
1591.00,2.2097
1590.00,2.2560
1589.00,2.3049
1588.00,2.3554
1587.00,2.4062
1586.00,2.4565
1585.00,2.5062
1584.00,2.5555
1583.00,2.6045
1582.00,2.6534
1581.00,2.7008
1580.00,2.7440
1579.00,2.7820
1578.00,2.8170
1577.00,2.8520
1576.00,2.8871
1575.00,2.9198
1574.00,2.9486
1573.00,2.9757
1572.00,3.0043
1571.00,3.0347
1570.00,3.0629
1569.00,3.0842
1568.00,3.1000
1567.00,3.1157
1566.00,3.1336
1565.00,3.1519
1564.00,3.1660
1563.00,3.1725
1562.00,3.1731
1561.00,3.1742
1560.00,3.1819
1559.00,3.1918
1558.00,3.1918
1557.00,3.1986
1556.00,3.2079
1555.00,3.2128
1554.00,3.2183
1553.00,3.2258
1552.00,3.2348
1551.00,3.2451
1550.00,3.2541
1549.00,3.2602
1548.00,3.2675
1547.00,3.2782
1546.00,3.2862
1545.00,3.2802
1544.00,3.2567
1543.00,3.2307
1542.00,3.2209
1541.00,3.2262
1540.00,3.2312
1539.00,3.2308
1538.00,3.2337
1537.00,3.2391
1536.00,3.2449
1535.00,3.2484
1534.00,3.2421
1533.00,3.2244
1532.00,3.2038
1531.00,3.1961
1530.00,3.1942
1529.00,3.2439
1528.00,3.2368
1527.00,3.2146
1526.00,3.2048
1525.00,3.0974
1524.00,3.0833
1523.00,3.0710
1522.00,3.1278
1521.00,3.1119
1520.00,3.0875
1519.00,3.0668
1518.00,3.0410
1517.00,3.0106
1516.00,2.9773
1515.00,2.9461
1514.00,2.9199
1513.00,2.8913
1512.00,2.8601
1511.00,2.8160
1510.00,2.7808
1509.00,2.5950
1508.00,2.5156
1507.00,2.4472
1506.00,2.4012
1505.00,2.3976
1504.00,2.3995
1503.00,2.3813
1502.00,2.3482
1501.00,2.3074
1500.00,2.2636
1499.00,2.2202
1498.00,2.1787
1497.00,2.1410
1496.00,2.1127
1495.00,2.1011
1494.00,2.1072
1493.00,2.1261
1492.00,2.1502
1491.00,2.1718
1490.00,2.1887
1489.00,2.2128
1488.00,2.2632
1487.00,2.3424
1486.00,2.4354
1485.00,2.5279
1484.00,2.6139
1483.00,2.6912
1482.00,2.7597
1481.00,2.8207
1480.00,2.8770
1479.00,2.9293
1478.00,2.9755
1477.00,3.0132
1476.00,3.0424
1475.00,3.0657
1474.00,3.0876
1473.00,3.1166
1472.00,3.1625
1471.00,3.2299
1470.00,3.3071
1469.00,3.3767
1468.00,3.4341
1467.00,3.4822
1466.00,3.5193
1465.00,3.5417
1464.00,3.5523
1463.00,3.5599
1462.00,3.5705
1461.00,3.5810
1460.00,3.5868
1459.00,3.5889
1458.00,3.5911
1457.00,3.5960
1456.00,3.6142
1455.00,3.6593
1454.00,3.7325
1453.00,3.8233
1452.00,3.9005
1451.00,3.9353
1450.00,3.9465
1449.00,3.9724
1448.00,4.0204
1447.00,4.0294
1446.00,3.9280
1445.00,3.7894
1444.00,3.6808
1443.00,3.6118
1442.00,3.5781
1441.00,3.5713
1440.00,3.5815
1439.00,3.5993
1438.00,3.6163
1437.00,3.6298
1436.00,3.6500
1435.00,3.6896
1434.00,3.7392
1433.00,3.7764
1432.00,3.7918
1431.00,3.7975
1430.00,3.8102
1429.00,3.8308
1428.00,3.8518
1427.00,3.8646
1426.00,3.8568
1425.00,3.8319
1424.00,3.8107
1423.00,3.8114
1422.00,3.8297
1421.00,3.8405
1420.00,3.8240
1419.00,3.7741
1418.00,3.6993
1417.00,3.6282
1416.00,3.5866
1415.00,3.5824
1414.00,3.6087
1413.00,3.6427
1412.00,3.6522
1411.00,3.6255
1410.00,3.5858
1409.00,3.5588
1408.00,3.5491
1407.00,3.5479
1406.00,3.5479
1405.00,3.5510
1404.00,3.5600
1403.00,3.5695
1402.00,3.5719
1401.00,3.5671
1400.00,3.5599
1399.00,3.5497
1398.00,3.5302
1397.00,3.5011
1396.00,3.4747
1395.00,3.4645
1394.00,3.4741
1393.00,3.4922
1392.00,3.5036
1391.00,3.5035
1390.00,3.4931
1389.00,3.4708
1388.00,3.4336
1387.00,3.3877
1386.00,3.3516
1385.00,3.3379
1384.00,3.3391
1383.00,3.3398
1382.00,3.3311
1381.00,3.3138
1380.00,3.2918
1379.00,3.2677
1378.00,3.2420
1377.00,3.2112
1376.00,3.1684
1375.00,3.1106
1374.00,3.0470
1373.00,2.9950
1372.00,2.9652
1371.00,2.9512
1370.00,2.9385
1369.00,2.9164
1368.00,2.8843
1367.00,2.8494
1366.00,2.8174
1365.00,2.7867
1364.00,2.7535
1363.00,2.7199
1362.00,2.6981
1361.00,2.7024
1360.00,2.7346
1359.00,2.7842
1358.00,2.8418
1357.00,2.9053
1356.00,2.9768
1355.00,3.0578
1354.00,3.1466
1353.00,3.2411
1352.00,3.3406
1351.00,3.4446
1350.00,3.5495
1349.00,3.6486
1348.00,3.7273
1347.00,3.7634
1346.00,3.7442
1345.00,3.6878
1344.00,3.6295
1343.00,3.5952
1342.00,3.5925
1341.00,3.6148
1340.00,3.6434
1339.00,3.6464
1338.00,3.6000
1337.00,3.5182
1336.00,3.4327
1335.00,3.3607
1334.00,3.3049
1333.00,3.2647
1332.00,3.2414
1331.00,3.2374
1330.00,3.2544
1329.00,3.2912
1328.00,3.3422
1327.00,3.4001
1326.00,3.4604
1325.00,3.5222
1324.00,3.5841
1323.00,3.6396
1322.00,3.6805
1321.00,3.7081
1320.00,3.7341
1319.00,3.7692
1318.00,3.8218
1317.00,3.9060
1316.00,4.0295
1315.00,4.1796
1314.00,4.3555
1313.00,4.5068
1312.00,4.4791
1311.00,4.3178
1310.00,4.1180
1309.00,3.9677
1308.00,3.8763
1307.00,3.8159
1306.00,3.7514
1305.00,3.6679
1304.00,3.5798
1303.00,3.5073
1302.00,3.4596
1301.00,3.4358
1300.00,3.4293
1299.00,3.4322
1298.00,3.4402
1297.00,3.4571
1296.00,3.4873
1295.00,3.5241
1294.00,3.5505
1293.00,3.5578
1292.00,3.5600
1291.00,3.5766
1290.00,3.6104
1289.00,3.6472
1288.00,3.6765
1287.00,3.7029
1286.00,3.7274
1285.00,3.7408
1284.00,3.7388
1283.00,3.7281
1282.00,3.7167
1281.00,3.7084
1280.00,3.7034
1279.00,3.6990
1278.00,3.6931
1277.00,3.6887
1276.00,3.6941
1275.00,3.7131
1274.00,3.7394
1273.00,3.7659
1272.00,3.7957
1271.00,3.8283
1270.00,3.8534
1269.00,3.8657
1268.00,3.8722
1267.00,3.8761
1266.00,3.8653
1265.00,3.8284
1264.00,3.7804
1263.00,3.7455
1262.00,3.7355
1261.00,3.7517
1260.00,3.7903
1259.00,3.8331
1258.00,3.8390
1257.00,3.7841
1256.00,3.7020
1255.00,3.6405
1254.00,3.6192
1253.00,3.6282
1252.00,3.6435
1251.00,3.6480
1250.00,3.6412
1249.00,3.6273
1248.00,3.6045
1247.00,3.5718
1246.00,3.5376
1245.00,3.5126
1244.00,3.5002
1243.00,3.4975
1242.00,3.5007
1241.00,3.5088
1240.00,3.5239
1239.00,3.5482
1238.00,3.5790
1237.00,3.6109
1236.00,3.6437
1235.00,3.6787
1234.00,3.7093
1233.00,3.7302
1232.00,3.7549
1231.00,3.8134
1230.00,3.9343
1229.00,4.1254
1228.00,4.3403
1227.00,4.4564
1226.00,4.4402
1225.00,4.4320
1224.00,4.4544
1223.00,4.3460
1222.00,4.2101
1221.00,4.1805
1220.00,4.2354
1219.00,4.2377
1218.00,4.1192
1217.00,3.9919
1216.00,3.9014
1215.00,3.8619
1214.00,3.8756
1213.00,3.9137
1212.00,3.9011
1211.00,3.8078
1210.00,3.7127
1209.00,3.6598
1208.00,3.6346
1207.00,3.6057
1206.00,3.5614
1205.00,3.5121
1204.00,3.4669
1203.00,3.4281
1202.00,3.3960
1201.00,3.3686
1200.00,3.3441
1199.00,3.3218
1198.00,3.3004
1197.00,3.2791
1196.00,3.2602
1195.00,3.2499
1194.00,3.2548
1193.00,3.2773
1192.00,3.3134
1191.00,3.3524
1190.00,3.3832
1189.00,3.4030
1188.00,3.4194
1187.00,3.4411
1186.00,3.4693
1185.00,3.4984
1184.00,3.5252
1183.00,3.5513
1182.00,3.5765
1181.00,3.5939
1180.00,3.5991
1179.00,3.5989
1178.00,3.6036
1177.00,3.6166
1176.00,3.6341
1175.00,3.6516
1174.00,3.6668
1173.00,3.6763
1172.00,3.6753
1171.00,3.6704
1170.00,3.6859
1169.00,3.7463
1168.00,3.8566
1167.00,3.9856
1166.00,4.0424
1165.00,3.9974
1164.00,3.9487
1163.00,3.9162
1162.00,3.8695
1161.00,3.8297
1160.00,3.8314
1159.00,3.8749
1158.00,3.9172
1157.00,3.9024
1156.00,3.8650
1155.00,3.8757
1154.00,3.9618
1153.00,4.0719
1152.00,4.0487
1151.00,3.9428
1150.00,3.8708
1149.00,3.8437
1148.00,3.8587
1147.00,3.9117
1146.00,3.9900
1145.00,4.0746
1144.00,4.1205
1143.00,4.0689
1142.00,3.9748
1141.00,3.9208
1140.00,3.9374
1139.00,4.0275
1138.00,4.1557
1137.00,4.2290
1136.00,4.2016
1135.00,4.1553
1134.00,4.1610
1133.00,4.2247
1132.00,4.2718
1131.00,4.1972
1130.00,4.0705
1129.00,4.0086
1128.00,4.0638
1127.00,4.2607
1126.00,4.5688
1125.00,4.6658
1124.00,4.3701
1123.00,4.1473
1122.00,4.0936
1121.00,4.2305
1120.00,4.4492
1119.00,4.3203
1118.00,4.2465
1117.00,4.3770
1116.00,4.6081
1115.00,4.4558
1114.00,4.3932
1113.00,4.5447
1112.00,4.4517
1111.00,4.3885
1110.00,4.4474
1109.00,4.2174
1108.00,4.0261
1107.00,3.9528
1106.00,3.9384
1105.00,3.9522
1104.00,3.9903
1103.00,4.0736
1102.00,4.1760
1101.00,4.1692
1100.00,4.0607
1099.00,3.9863
1098.00,3.9798
1097.00,3.9766
1096.00,3.8745
1095.00,3.7526
1094.00,3.7152
1093.00,3.7802
1092.00,3.9055
1091.00,3.9419
1090.00,3.8553
1089.00,3.7576
1088.00,3.6711
1087.00,3.6124
1086.00,3.5910
1085.00,3.5868
1084.00,3.5818
1083.00,3.5787
1082.00,3.5835
1081.00,3.5879
1080.00,3.5704
1079.00,3.5332
1078.00,3.5108
1077.00,3.5297
1076.00,3.5867
1075.00,3.6533
1074.00,3.6981
1073.00,3.6991
1072.00,3.6509
1071.00,3.5882
1070.00,3.5519
1069.00,3.5500
1068.00,3.5660
1067.00,3.5845
1066.00,3.6058
1065.00,3.6364
1064.00,3.6709
1063.00,3.6936
1062.00,3.7072
1061.00,3.7245
1060.00,3.7404
1059.00,3.7504
1058.00,3.7628
1057.00,3.7911
1056.00,3.8323
1055.00,3.8473
1054.00,3.8199
1053.00,3.7779
1052.00,3.7334
1051.00,3.6900
1050.00,3.6573
1049.00,3.6539
1048.00,3.6944
1047.00,3.7494
1046.00,3.7563
1045.00,3.7127
1044.00,3.6730
1043.00,3.6718
1042.00,3.7018
1041.00,3.7245
1040.00,3.7075
1039.00,3.6644
1038.00,3.6347
1037.00,3.6412
1036.00,3.6838
1035.00,3.7524
1034.00,3.8260
1033.00,3.8740
1032.00,3.8746
1031.00,3.8254
1030.00,3.7716
1029.00,3.7602
1028.00,3.8003
1027.00,3.8735
1026.00,3.9396
1025.00,3.9706
1024.00,3.9880
1023.00,4.0352
1022.00,4.1420
1021.00,4.3298
1020.00,4.4922
1019.00,4.3451
1018.00,4.1391
1017.00,4.0104
1016.00,3.9427
1015.00,3.9172
1014.00,3.9174
1013.00,3.9226
1012.00,3.8987
1011.00,3.8345
1010.00,3.7739
1009.00,3.7714
1008.00,3.8628
1007.00,4.0572
1006.00,4.3308
1005.00,4.6207
1004.00,4.5264
1003.00,4.2465
1002.00,4.0830
1001.00,4.0087
1000.00,4.0085
999.00,4.0862
998.00,4.2554
997.00,4.5330
996.00,4.7709
995.00,4.5582
994.00,4.2058
993.00,3.9605
992.00,3.8666
991.00,3.9226
990.00,4.1033
989.00,4.3168
988.00,4.4355
987.00,4.4437
986.00,4.3740
985.00,4.3147
984.00,4.3309
983.00,4.4673
982.00,4.6920
981.00,4.6845
980.00,4.5165
979.00,4.4594
978.00,4.4544
977.00,4.5734
976.00,4.9847
975.00,4.5395
974.00,4.1950
973.00,4.1145
972.00,4.1599
971.00,4.2585
970.00,4.3170
969.00,4.3226
968.00,4.2936
967.00,4.2074
966.00,4.0568
965.00,3.9148
964.00,3.8551
963.00,3.9047
962.00,4.0711
961.00,4.3166
960.00,4.4578
959.00,4.3846
958.00,4.3484
957.00,4.4687
956.00,4.3296
955.00,4.0607
954.00,3.9716
953.00,4.0370
952.00,4.2140
951.00,4.2382
950.00,4.0789
949.00,4.0160
948.00,4.0479
947.00,4.0982
946.00,4.1035
945.00,4.0777
944.00,4.0540
943.00,4.0370
942.00,4.0406
941.00,4.0948
940.00,4.2235
939.00,4.4109
938.00,4.4818
937.00,4.3029
936.00,4.1133
935.00,4.0225
934.00,4.0382
933.00,4.1578
932.00,4.2857
931.00,4.2926
930.00,4.2312
929.00,4.0917
928.00,3.9653
927.00,3.9180
926.00,3.9115
925.00,3.9063
924.00,3.9212
923.00,3.9952
922.00,4.1267
921.00,4.2493
920.00,4.2864
919.00,4.2190
918.00,4.0962
917.00,4.0190
916.00,4.0093
915.00,4.0192
914.00,3.9891
913.00,3.9321
912.00,3.9169
911.00,3.9812
910.00,4.1035
909.00,4.2153
908.00,4.2773
907.00,4.2855
906.00,4.2562
905.00,4.1537
904.00,3.9658
903.00,3.7984
902.00,3.7074
901.00,3.7173
900.00,3.8423
899.00,4.1377
898.00,4.6280
897.00,4.5811
896.00,4.2740
895.00,4.0418
894.00,3.9328
893.00,3.9323
892.00,3.9927
891.00,4.0895
890.00,4.1704
889.00,4.2060
888.00,4.2213
887.00,4.2565
886.00,4.2660
885.00,4.1687
884.00,4.0226
883.00,3.9414
882.00,3.9932
881.00,4.2289
880.00,4.4197
879.00,4.3443
878.00,4.3004
877.00,4.1403
876.00,3.9694
875.00,3.8388
874.00,3.7373
873.00,3.7013
872.00,3.7497
871.00,3.8427
870.00,3.8650
869.00,3.8568
868.00,3.9100
867.00,4.0065
866.00,4.1132
865.00,4.2161
864.00,4.2999
863.00,4.3190
862.00,4.2305
861.00,4.1078
860.00,4.0332
859.00,4.0314
858.00,4.0685
857.00,3.9893
856.00,3.8289
855.00,3.7644
854.00,3.8338
853.00,3.9369
852.00,3.9416
851.00,3.9970
850.00,4.1155
849.00,4.0415
848.00,3.9082
847.00,3.8435
846.00,3.8104
845.00,3.7723
844.00,3.7455
843.00,3.7819
842.00,3.9200
841.00,4.1436
840.00,4.2716
839.00,4.2008
838.00,4.1213
837.00,4.0640
836.00,4.1014
835.00,4.2418
834.00,4.1668
833.00,4.0047
832.00,3.9445
831.00,3.9588
830.00,3.9886
829.00,3.9726
828.00,3.9472
827.00,3.9416
826.00,3.9870
825.00,4.1280
824.00,4.3438
823.00,4.4361
822.00,4.2801
821.00,4.1106
820.00,4.0214
819.00,3.9839
818.00,3.9515
817.00,3.9021
816.00,3.8524
815.00,3.8276
814.00,3.8303
813.00,3.8519
812.00,3.8914
811.00,3.9518
810.00,4.0140
809.00,4.0191
808.00,3.9307
807.00,3.8294
806.00,3.7983
805.00,3.8802
804.00,4.0323
803.00,4.0999
802.00,4.0631
801.00,3.9486
800.00,3.8514
799.00,3.8471
798.00,3.8896
797.00,3.9154
796.00,3.9453
795.00,4.0252
794.00,4.1045
793.00,4.0494
792.00,3.8833
791.00,3.7373
790.00,3.6654
789.00,3.6715
788.00,3.7271
787.00,3.8085
786.00,3.8888
785.00,3.8994
784.00,3.8898
783.00,3.9346
782.00,3.9828
781.00,3.9545
780.00,3.8731
779.00,3.7972
778.00,3.7551
777.00,3.7539
776.00,3.7748
775.00,3.7905
774.00,3.8126
773.00,3.8787
772.00,4.0265
771.00,4.2632
770.00,4.3257
769.00,4.1319
768.00,3.9905
767.00,3.9359
766.00,3.9450
765.00,3.9654
764.00,3.9517
763.00,3.9139
762.00,3.8949
761.00,3.9118
760.00,4.0067
759.00,4.1617
758.00,4.0922
757.00,3.9559
756.00,3.9186
755.00,3.8682
754.00,3.7628
753.00,3.6684
752.00,3.6455
751.00,3.7122
750.00,3.8706
749.00,4.0782
748.00,4.0807
747.00,3.9575
746.00,3.9450
745.00,4.0230
744.00,4.1005
743.00,4.1203
742.00,4.1338
741.00,4.2100
740.00,4.3158
739.00,4.4792
738.00,4.8164
737.00,4.6639
736.00,4.4218
735.00,4.4152
734.00,4.3805
733.00,4.2805
732.00,4.2766
731.00,4.3123
730.00,4.2514
729.00,4.2163
728.00,4.2537
727.00,4.2454
726.00,4.2061
725.00,4.0944
724.00,4.0427
723.00,4.0572
722.00,4.2762
721.00,5.0999
720.00,4.6165
719.00,4.4192
718.00,4.5275
717.00,4.7570
716.00,4.7359
715.00,4.4370
714.00,4.5276
713.00,4.7443
712.00,4.4194
711.00,4.0800
710.00,3.8382
709.00,3.6828
708.00,3.6261
707.00,3.6645
706.00,3.7764
705.00,3.8629
704.00,3.8357
703.00,3.7742
702.00,3.7660
701.00,3.8368
700.00,3.9589
