Created as New Dataset,Sample 108 By Administrator Date Wednesday, November 24 2021
cm-1,A
7502.00,1.1465
7501.00,1.1379
7500.00,1.1294
7499.00,1.1211
7498.00,1.1130
7497.00,1.1051
7496.00,1.0972
7495.00,1.0896
7494.00,1.0819
7493.00,1.0734
7492.00,1.0643
7491.00,1.0549
7490.00,1.0458
7489.00,1.0366
7488.00,1.0273
7487.00,1.0177
7486.00,1.0082
7485.00,0.9988
7484.00,0.9894
7483.00,0.9800
7482.00,0.9705
7481.00,0.9610
7480.00,0.9515
7479.00,0.9420
7478.00,0.9323
7477.00,0.9225
7476.00,0.9129
7475.00,0.9038
7474.00,0.8950
7473.00,0.8863
7472.00,0.8775
7471.00,0.8690
7470.00,0.8610
7469.00,0.8536
7468.00,0.8466
7467.00,0.8402
7466.00,0.8343
7465.00,0.8289
7464.00,0.8237
7463.00,0.8188
7462.00,0.8143
7461.00,0.8103
7460.00,0.8063
7459.00,0.8022
7458.00,0.7984
7457.00,0.7955
7456.00,0.7936
7455.00,0.7922
7454.00,0.7910
7453.00,0.7902
7452.00,0.7904
7451.00,0.7917
7450.00,0.7938
7449.00,0.7961
7448.00,0.7985
7447.00,0.8013
7446.00,0.8049
7445.00,0.8089
7444.00,0.8130
7443.00,0.8172
7442.00,0.8218
7441.00,0.8271
7440.00,0.8329
7439.00,0.8391
7438.00,0.8454
7437.00,0.8515
7436.00,0.8577
7435.00,0.8642
7434.00,0.8711
7433.00,0.8785
7432.00,0.8861
7431.00,0.8940
7430.00,0.9022
7429.00,0.9108
7428.00,0.9196
7427.00,0.9283
7426.00,0.9368
7425.00,0.9452
7424.00,0.9537
7423.00,0.9622
7422.00,0.9708
7421.00,0.9791
7420.00,0.9871
7419.00,0.9946
7418.00,1.0017
7417.00,1.0088
7416.00,1.0159
7415.00,1.0229
7414.00,1.0294
7413.00,1.0354
7412.00,1.0416
7411.00,1.0480
7410.00,1.0544
7409.00,1.0603
7408.00,1.0660
7407.00,1.0715
7406.00,1.0767
7405.00,1.0811
7404.00,1.0849
7403.00,1.0887
7402.00,1.0927
7401.00,1.0967
7400.00,1.0999
7399.00,1.1023
7398.00,1.1044
7397.00,1.1066
7396.00,1.1083
7395.00,1.1091
7394.00,1.1090
7393.00,1.1088
7392.00,1.1089
7391.00,1.1094
7390.00,1.1099
7389.00,1.1098
7388.00,1.1090
7387.00,1.1077
7386.00,1.1066
7385.00,1.1061
7384.00,1.1061
7383.00,1.1057
7382.00,1.1045
7381.00,1.1029
7380.00,1.1021
7379.00,1.1018
7378.00,1.1013
7377.00,1.0995
7376.00,1.0966
7375.00,1.0928
7374.00,1.0882
7373.00,1.0828
7372.00,1.0766
7371.00,1.0700
7370.00,1.0631
7369.00,1.0566
7368.00,1.0510
7367.00,1.0470
7366.00,1.0437
7365.00,1.0403
7364.00,1.0361
7363.00,1.0315
7362.00,1.0267
7361.00,1.0220
7360.00,1.0172
7359.00,1.0120
7358.00,1.0064
7357.00,1.0010
7356.00,0.9962
7355.00,0.9921
7354.00,0.9882
7353.00,0.9836
7352.00,0.9782
7351.00,0.9724
7350.00,0.9663
7349.00,0.9591
7348.00,0.9505
7347.00,0.9407
7346.00,0.9306
7345.00,0.9212
7344.00,0.9127
7343.00,0.9047
7342.00,0.8967
7341.00,0.8887
7340.00,0.8812
7339.00,0.8739
7338.00,0.8663
7337.00,0.8580
7336.00,0.8491
7335.00,0.8404
7334.00,0.8326
7333.00,0.8256
7332.00,0.8191
7331.00,0.8129
7330.00,0.8077
7329.00,0.8034
7328.00,0.7997
7327.00,0.7960
7326.00,0.7923
7325.00,0.7889
7324.00,0.7860
7323.00,0.7835
7322.00,0.7812
7321.00,0.7793
7320.00,0.7781
7319.00,0.7778
7318.00,0.7782
7317.00,0.7791
7316.00,0.7806
7315.00,0.7828
7314.00,0.7856
7313.00,0.7888
7312.00,0.7925
7311.00,0.7964
7310.00,0.8004
7309.00,0.8044
7308.00,0.8087
7307.00,0.8135
7306.00,0.8190
7305.00,0.8249
7304.00,0.8312
7303.00,0.8382
7302.00,0.8458
7301.00,0.8539
7300.00,0.8622
7299.00,0.8706
7298.00,0.8789
7297.00,0.8874
7296.00,0.8959
7295.00,0.9045
7294.00,0.9130
7293.00,0.9215
7292.00,0.9300
7291.00,0.9387
7290.00,0.9475
7289.00,0.9561
7288.00,0.9649
7287.00,0.9741
7286.00,0.9838
7285.00,0.9934
7284.00,1.0025
7283.00,1.0112
7282.00,1.0202
7281.00,1.0294
7280.00,1.0384
7279.00,1.0470
7278.00,1.0551
7277.00,1.0636
7276.00,1.0724
7275.00,1.0812
7274.00,1.0894
7273.00,1.0972
7272.00,1.1048
7271.00,1.1122
7270.00,1.1188
7269.00,1.1243
7268.00,1.1292
7267.00,1.1345
7266.00,1.1404
7265.00,1.1461
7264.00,1.1516
7263.00,1.1571
7262.00,1.1631
7261.00,1.1692
7260.00,1.1747
7259.00,1.1792
7258.00,1.1828
7257.00,1.1856
7256.00,1.1879
7255.00,1.1903
7254.00,1.1927
7253.00,1.1948
7252.00,1.1960
7251.00,1.1964
7250.00,1.1970
7249.00,1.1980
7248.00,1.1991
7247.00,1.1995
7246.00,1.1986
7245.00,1.1968
7244.00,1.1947
7243.00,1.1928
7242.00,1.1907
7241.00,1.1881
7240.00,1.1850
7239.00,1.1820
7238.00,1.1794
7237.00,1.1768
7236.00,1.1735
7235.00,1.1694
7234.00,1.1645
7233.00,1.1592
7232.00,1.1537
7231.00,1.1480
7230.00,1.1418
7229.00,1.1350
7228.00,1.1277
7227.00,1.1200
7226.00,1.1120
7225.00,1.1036
7224.00,1.0947
7223.00,1.0858
7222.00,1.0773
7221.00,1.0691
7220.00,1.0607
7219.00,1.0520
7218.00,1.0430
7217.00,1.0337
7216.00,1.0240
7215.00,1.0138
7214.00,1.0033
7213.00,0.9927
7212.00,0.9821
7211.00,0.9719
7210.00,0.9620
7209.00,0.9525
7208.00,0.9432
7207.00,0.9338
7206.00,0.9243
7205.00,0.9147
7204.00,0.9050
7203.00,0.8954
7202.00,0.8860
7201.00,0.8771
7200.00,0.8685
7199.00,0.8605
7198.00,0.8529
7197.00,0.8458
7196.00,0.8390
7195.00,0.8326
7194.00,0.8263
7193.00,0.8201
7192.00,0.8143
7191.00,0.8090
7190.00,0.8042
7189.00,0.8001
7188.00,0.7967
7187.00,0.7941
7186.00,0.7923
7185.00,0.7911
7184.00,0.7903
7183.00,0.7900
7182.00,0.7900
7181.00,0.7905
7180.00,0.7913
7179.00,0.7926
7178.00,0.7945
7177.00,0.7971
7176.00,0.8003
7175.00,0.8040
7174.00,0.8084
7173.00,0.8137
7172.00,0.8196
7171.00,0.8256
7170.00,0.8315
7169.00,0.8374
7168.00,0.8436
7167.00,0.8503
7166.00,0.8574
7165.00,0.8648
7164.00,0.8724
7163.00,0.8804
7162.00,0.8888
7161.00,0.8975
7160.00,0.9059
7159.00,0.9141
7158.00,0.9225
7157.00,0.9312
7156.00,0.9403
7155.00,0.9495
7154.00,0.9586
7153.00,0.9675
7152.00,0.9764
7151.00,0.9850
7150.00,0.9935
7149.00,1.0020
7148.00,1.0107
7147.00,1.0194
7146.00,1.0278
7145.00,1.0357
7144.00,1.0435
7143.00,1.0514
7142.00,1.0595
7141.00,1.0676
7140.00,1.0758
7139.00,1.0842
7138.00,1.0929
7137.00,1.1010
7136.00,1.1079
7135.00,1.1136
7134.00,1.1190
7133.00,1.1243
7132.00,1.1294
7131.00,1.1341
7130.00,1.1387
7129.00,1.1437
7128.00,1.1489
7127.00,1.1538
7126.00,1.1578
7125.00,1.1612
7124.00,1.1643
7123.00,1.1673
7122.00,1.1700
7121.00,1.1723
7120.00,1.1741
7119.00,1.1757
7118.00,1.1772
7117.00,1.1788
7116.00,1.1802
7115.00,1.1815
7114.00,1.1825
7113.00,1.1829
7112.00,1.1825
7111.00,1.1813
7110.00,1.1795
7109.00,1.1774
7108.00,1.1750
7107.00,1.1726
7106.00,1.1704
7105.00,1.1685
7104.00,1.1667
7103.00,1.1646
7102.00,1.1617
7101.00,1.1579
7100.00,1.1532
7099.00,1.1481
7098.00,1.1427
7097.00,1.1372
7096.00,1.1315
7095.00,1.1260
7094.00,1.1209
7093.00,1.1159
7092.00,1.1101
7091.00,1.1033
7090.00,1.0957
7089.00,1.0877
7088.00,1.0795
7087.00,1.0709
7086.00,1.0621
7085.00,1.0531
7084.00,1.0443
7083.00,1.0356
7082.00,1.0269
7081.00,1.0179
7080.00,1.0085
7079.00,0.9988
7078.00,0.9887
7077.00,0.9786
7076.00,0.9684
7075.00,0.9583
7074.00,0.9483
7073.00,0.9382
7072.00,0.9282
7071.00,0.9183
7070.00,0.9087
7069.00,0.8994
7068.00,0.8902
7067.00,0.8811
7066.00,0.8722
7065.00,0.8638
7064.00,0.8559
7063.00,0.8483
7062.00,0.8410
7061.00,0.8340
7060.00,0.8273
7059.00,0.8209
7058.00,0.8151
7057.00,0.8098
7056.00,0.8051
7055.00,0.8007
7054.00,0.7967
7053.00,0.7933
7052.00,0.7905
7051.00,0.7883
7050.00,0.7864
7049.00,0.7850
7048.00,0.7840
7047.00,0.7837
7046.00,0.7842
7045.00,0.7856
7044.00,0.7876
7043.00,0.7900
7042.00,0.7930
7041.00,0.7964
7040.00,0.8003
7039.00,0.8046
7038.00,0.8091
7037.00,0.8140
7036.00,0.8193
7035.00,0.8251
7034.00,0.8316
7033.00,0.8386
7032.00,0.8459
7031.00,0.8535
7030.00,0.8612
7029.00,0.8693
7028.00,0.8778
7027.00,0.8866
7026.00,0.8955
7025.00,0.9043
7024.00,0.9133
7023.00,0.9225
7022.00,0.9319
7021.00,0.9413
7020.00,0.9506
7019.00,0.9599
7018.00,0.9693
7017.00,0.9788
7016.00,0.9882
7015.00,0.9976
7014.00,1.0070
7013.00,1.0164
7012.00,1.0258
7011.00,1.0350
7010.00,1.0440
7009.00,1.0529
7008.00,1.0618
7007.00,1.0704
7006.00,1.0787
7005.00,1.0870
7004.00,1.0952
7003.00,1.1034
7002.00,1.1112
7001.00,1.1186
7000.00,1.1257
6999.00,1.1328
6998.00,1.1399
6997.00,1.1468
6996.00,1.1532
6995.00,1.1593
6994.00,1.1651
6993.00,1.1707
6992.00,1.1758
6991.00,1.1805
6990.00,1.1849
6989.00,1.1891
6988.00,1.1933
6987.00,1.1975
6986.00,1.2012
6985.00,1.2040
6984.00,1.2059
6983.00,1.2074
6982.00,1.2091
6981.00,1.2108
6980.00,1.2120
6979.00,1.2126
6978.00,1.2130
6977.00,1.2133
6976.00,1.2131
6975.00,1.2122
6974.00,1.2107
6973.00,1.2088
6972.00,1.2066
6971.00,1.2042
6970.00,1.2020
6969.00,1.1999
6968.00,1.1974
6967.00,1.1942
6966.00,1.1906
6965.00,1.1868
6964.00,1.1829
6963.00,1.1785
6962.00,1.1734
6961.00,1.1674
6960.00,1.1611
6959.00,1.1546
6958.00,1.1479
6957.00,1.1407
6956.00,1.1327
6955.00,1.1241
6954.00,1.1154
6953.00,1.1067
6952.00,1.0978
6951.00,1.0887
6950.00,1.0792
6949.00,1.0694
6948.00,1.0595
6947.00,1.0494
6946.00,1.0392
6945.00,1.0288
6944.00,1.0184
6943.00,1.0079
6942.00,0.9976
6941.00,0.9873
6940.00,0.9770
6939.00,0.9666
6938.00,0.9560
6937.00,0.9452
6936.00,0.9344
6935.00,0.9238
6934.00,0.9135
6933.00,0.9034
6932.00,0.8934
6931.00,0.8836
6930.00,0.8742
6929.00,0.8655
6928.00,0.8572
6927.00,0.8493
6926.00,0.8415
6925.00,0.8340
6924.00,0.8270
6923.00,0.8205
6922.00,0.8146
6921.00,0.8092
6920.00,0.8045
6919.00,0.8004
6918.00,0.7968
6917.00,0.7937
6916.00,0.7910
6915.00,0.7888
6914.00,0.7871
6913.00,0.7859
6912.00,0.7852
6911.00,0.7851
6910.00,0.7857
6909.00,0.7869
6908.00,0.7888
6907.00,0.7914
6906.00,0.7945
6905.00,0.7981
6904.00,0.8024
6903.00,0.8072
6902.00,0.8124
6901.00,0.8179
6900.00,0.8236
6899.00,0.8299
6898.00,0.8369
6897.00,0.8442
6896.00,0.8519
6895.00,0.8599
6894.00,0.8683
6893.00,0.8769
6892.00,0.8855
6891.00,0.8941
6890.00,0.9030
6889.00,0.9123
6888.00,0.9216
6887.00,0.9308
6886.00,0.9401
6885.00,0.9497
6884.00,0.9593
6883.00,0.9688
6882.00,0.9780
6881.00,0.9872
6880.00,0.9963
6879.00,1.0056
6878.00,1.0152
6877.00,1.0247
6876.00,1.0340
6875.00,1.0430
6874.00,1.0519
6873.00,1.0607
6872.00,1.0694
6871.00,1.0777
6870.00,1.0858
6869.00,1.0938
6868.00,1.1019
6867.00,1.1099
6866.00,1.1179
6865.00,1.1258
6864.00,1.1334
6863.00,1.1405
6862.00,1.1474
6861.00,1.1540
6860.00,1.1601
6859.00,1.1653
6858.00,1.1696
6857.00,1.1733
6856.00,1.1770
6855.00,1.1808
6854.00,1.1847
6853.00,1.1883
6852.00,1.1919
6851.00,1.1955
6850.00,1.1990
6849.00,1.2020
6848.00,1.2041
6847.00,1.2054
6846.00,1.2063
6845.00,1.2065
6844.00,1.2061
6843.00,1.2053
6842.00,1.2046
6841.00,1.2040
6840.00,1.2035
6839.00,1.2028
6838.00,1.2022
6837.00,1.2015
6836.00,1.2001
6835.00,1.1979
6834.00,1.1952
6833.00,1.1920
6832.00,1.1882
6831.00,1.1838
6830.00,1.1794
6829.00,1.1752
6828.00,1.1711
6827.00,1.1664
6826.00,1.1611
6825.00,1.1553
6824.00,1.1490
6823.00,1.1423
6822.00,1.1352
6821.00,1.1277
6820.00,1.1199
6819.00,1.1121
6818.00,1.1041
6817.00,1.0959
6816.00,1.0873
6815.00,1.0782
6814.00,1.0688
6813.00,1.0594
6812.00,1.0497
6811.00,1.0396
6810.00,1.0291
6809.00,1.0183
6808.00,1.0076
6807.00,0.9971
6806.00,0.9866
6805.00,0.9759
6804.00,0.9650
6803.00,0.9542
6802.00,0.9436
6801.00,0.9332
6800.00,0.9227
6799.00,0.9120
6798.00,0.9015
6797.00,0.8913
6796.00,0.8815
6795.00,0.8719
6794.00,0.8626
6793.00,0.8537
6792.00,0.8453
6791.00,0.8372
6790.00,0.8297
6789.00,0.8226
6788.00,0.8160
6787.00,0.8097
6786.00,0.8040
6785.00,0.7989
6784.00,0.7945
6783.00,0.7904
6782.00,0.7868
6781.00,0.7836
6780.00,0.7811
6779.00,0.7791
6778.00,0.7776
6777.00,0.7768
6776.00,0.7767
6775.00,0.7773
6774.00,0.7785
6773.00,0.7802
6772.00,0.7825
6771.00,0.7855
6770.00,0.7892
6769.00,0.7935
6768.00,0.7983
6767.00,0.8036
6766.00,0.8093
6765.00,0.8155
6764.00,0.8222
6763.00,0.8291
6762.00,0.8365
6761.00,0.8442
6760.00,0.8523
6759.00,0.8606
6758.00,0.8691
6757.00,0.8779
6756.00,0.8870
6755.00,0.8964
6754.00,0.9061
6753.00,0.9159
6752.00,0.9257
6751.00,0.9356
6750.00,0.9456
6749.00,0.9558
6748.00,0.9660
6747.00,0.9760
6746.00,0.9859
6745.00,0.9959
6744.00,1.0058
6743.00,1.0155
6742.00,1.0250
6741.00,1.0345
6740.00,1.0443
6739.00,1.0543
6738.00,1.0641
6737.00,1.0734
6736.00,1.0824
6735.00,1.0910
6734.00,1.0994
6733.00,1.1076
6732.00,1.1156
6731.00,1.1236
6730.00,1.1316
6729.00,1.1394
6728.00,1.1469
6727.00,1.1538
6726.00,1.1604
6725.00,1.1669
6724.00,1.1733
6723.00,1.1797
6722.00,1.1860
6721.00,1.1922
6720.00,1.1982
6719.00,1.2035
6718.00,1.2081
6717.00,1.2120
6716.00,1.2153
6715.00,1.2180
6714.00,1.2201
6713.00,1.2221
6712.00,1.2242
6711.00,1.2265
6710.00,1.2286
6709.00,1.2302
6708.00,1.2310
6707.00,1.2314
6706.00,1.2315
6705.00,1.2313
6704.00,1.2307
6703.00,1.2296
6702.00,1.2283
6701.00,1.2268
6700.00,1.2249
6699.00,1.2221
6698.00,1.2186
6697.00,1.2149
6696.00,1.2113
6695.00,1.2075
6694.00,1.2031
6693.00,1.1981
6692.00,1.1928
6691.00,1.1873
6690.00,1.1812
6689.00,1.1748
6688.00,1.1679
6687.00,1.1607
6686.00,1.1530
6685.00,1.1449
6684.00,1.1363
6683.00,1.1274
6682.00,1.1182
6681.00,1.1090
6680.00,1.0999
6679.00,1.0908
6678.00,1.0812
6677.00,1.0711
6676.00,1.0608
6675.00,1.0505
6674.00,1.0399
6673.00,1.0290
6672.00,1.0176
6671.00,1.0061
6670.00,0.9946
6669.00,0.9831
6668.00,0.9716
6667.00,0.9604
6666.00,0.9495
6665.00,0.9388
6664.00,0.9282
6663.00,0.9174
6662.00,0.9065
6661.00,0.8958
6660.00,0.8855
6659.00,0.8756
6658.00,0.8660
6657.00,0.8569
6656.00,0.8484
6655.00,0.8405
6654.00,0.8330
6653.00,0.8257
6652.00,0.8187
6651.00,0.8121
6650.00,0.8062
6649.00,0.8010
6648.00,0.7963
6647.00,0.7922
6646.00,0.7886
6645.00,0.7858
6644.00,0.7836
6643.00,0.7821
6642.00,0.7811
6641.00,0.7808
6640.00,0.7812
6639.00,0.7822
6638.00,0.7840
6637.00,0.7865
6636.00,0.7895
6635.00,0.7929
6634.00,0.7967
6633.00,0.8011
6632.00,0.8059
6631.00,0.8112
6630.00,0.8171
6629.00,0.8235
6628.00,0.8306
6627.00,0.8380
6626.00,0.8458
6625.00,0.8539
6624.00,0.8624
6623.00,0.8711
6622.00,0.8801
6621.00,0.8893
6620.00,0.8988
6619.00,0.9085
6618.00,0.9184
6617.00,0.9282
6616.00,0.9381
6615.00,0.9481
6614.00,0.9585
6613.00,0.9690
6612.00,0.9793
6611.00,0.9892
6610.00,0.9988
6609.00,1.0083
6608.00,1.0177
6607.00,1.0269
6606.00,1.0360
6605.00,1.0454
6604.00,1.0551
6603.00,1.0651
6602.00,1.0751
6601.00,1.0847
6600.00,1.0940
6599.00,1.1031
6598.00,1.1121
6597.00,1.1207
6596.00,1.1286
6595.00,1.1359
6594.00,1.1427
6593.00,1.1492
6592.00,1.1554
6591.00,1.1614
6590.00,1.1674
6589.00,1.1735
6588.00,1.1795
6587.00,1.1848
6586.00,1.1896
6585.00,1.1938
6584.00,1.1979
6583.00,1.2017
6582.00,1.2052
6581.00,1.2084
6580.00,1.2112
6579.00,1.2138
6578.00,1.2163
6577.00,1.2183
6576.00,1.2197
6575.00,1.2204
6574.00,1.2207
6573.00,1.2207
6572.00,1.2203
6571.00,1.2192
6570.00,1.2176
6569.00,1.2159
6568.00,1.2144
6567.00,1.2131
6566.00,1.2118
6565.00,1.2101
6564.00,1.2079
6563.00,1.2050
6562.00,1.2016
6561.00,1.1976
6560.00,1.1930
6559.00,1.1879
6558.00,1.1825
6557.00,1.1769
6556.00,1.1712
6555.00,1.1654
6554.00,1.1593
6553.00,1.1529
6552.00,1.1461
6551.00,1.1389
6550.00,1.1314
6549.00,1.1237
6548.00,1.1157
6547.00,1.1073
6546.00,1.0986
6545.00,1.0893
6544.00,1.0796
6543.00,1.0695
6542.00,1.0591
6541.00,1.0487
6540.00,1.0383
6539.00,1.0281
6538.00,1.0179
6537.00,1.0077
6536.00,0.9975
6535.00,0.9870
6534.00,0.9764
6533.00,0.9656
6532.00,0.9548
6531.00,0.9440
6530.00,0.9335
6529.00,0.9231
6528.00,0.9127
6527.00,0.9022
6526.00,0.8917
6525.00,0.8814
6524.00,0.8713
6523.00,0.8614
6522.00,0.8519
6521.00,0.8429
6520.00,0.8346
6519.00,0.8270
6518.00,0.8198
6517.00,0.8130
6516.00,0.8066
6515.00,0.8007
6514.00,0.7953
6513.00,0.7904
6512.00,0.7859
6511.00,0.7819
6510.00,0.7785
6509.00,0.7760
6508.00,0.7742
6507.00,0.7731
6506.00,0.7728
6505.00,0.7734
6504.00,0.7746
6503.00,0.7762
6502.00,0.7782
6501.00,0.7808
6500.00,0.7839
6499.00,0.7877
6498.00,0.7921
6497.00,0.7972
6496.00,0.8031
6495.00,0.8096
6494.00,0.8165
6493.00,0.8240
6492.00,0.8317
6491.00,0.8397
6490.00,0.8478
6489.00,0.8563
6488.00,0.8652
6487.00,0.8746
6486.00,0.8845
6485.00,0.8948
6484.00,0.9054
6483.00,0.9159
6482.00,0.9264
6481.00,0.9369
6480.00,0.9474
6479.00,0.9579
6478.00,0.9685
6477.00,0.9793
6476.00,0.9902
6475.00,1.0009
6474.00,1.0114
6473.00,1.0216
6472.00,1.0317
6471.00,1.0419
6470.00,1.0521
6469.00,1.0624
6468.00,1.0727
6467.00,1.0828
6466.00,1.0926
6465.00,1.1020
6464.00,1.1112
6463.00,1.1203
6462.00,1.1291
6461.00,1.1377
6460.00,1.1459
6459.00,1.1537
6458.00,1.1611
6457.00,1.1684
6456.00,1.1759
6455.00,1.1833
6454.00,1.1905
6453.00,1.1972
6452.00,1.2037
6451.00,1.2096
6450.00,1.2148
6449.00,1.2193
6448.00,1.2233
6447.00,1.2275
6446.00,1.2318
6445.00,1.2362
6444.00,1.2401
6443.00,1.2435
6442.00,1.2465
6441.00,1.2488
6440.00,1.2506
6439.00,1.2519
6438.00,1.2528
6437.00,1.2535
6436.00,1.2539
6435.00,1.2539
6434.00,1.2535
6433.00,1.2527
6432.00,1.2515
6431.00,1.2499
6430.00,1.2481
6429.00,1.2459
6428.00,1.2431
6427.00,1.2400
6426.00,1.2366
6425.00,1.2330
6424.00,1.2287
6423.00,1.2236
6422.00,1.2180
6421.00,1.2120
6420.00,1.2057
6419.00,1.1992
6418.00,1.1926
6417.00,1.1856
6416.00,1.1781
6415.00,1.1701
6414.00,1.1617
6413.00,1.1530
6412.00,1.1437
6411.00,1.1341
6410.00,1.1245
6409.00,1.1148
6408.00,1.1050
6407.00,1.0945
6406.00,1.0835
6405.00,1.0723
6404.00,1.0611
6403.00,1.0499
6402.00,1.0385
6401.00,1.0269
6400.00,1.0152
6399.00,1.0033
6398.00,0.9912
6397.00,0.9790
6396.00,0.9670
6395.00,0.9552
6394.00,0.9438
6393.00,0.9325
6392.00,0.9211
6391.00,0.9098
6390.00,0.8986
6389.00,0.8876
6388.00,0.8770
6387.00,0.8667
6386.00,0.8569
6385.00,0.8477
6384.00,0.8388
6383.00,0.8304
6382.00,0.8225
6381.00,0.8152
6380.00,0.8084
6379.00,0.8021
6378.00,0.7965
6377.00,0.7916
6376.00,0.7873
6375.00,0.7837
6374.00,0.7809
6373.00,0.7789
6372.00,0.7777
6371.00,0.7770
6370.00,0.7769
6369.00,0.7774
6368.00,0.7786
6367.00,0.7804
6366.00,0.7828
6365.00,0.7859
6364.00,0.7897
6363.00,0.7942
6362.00,0.7992
6361.00,0.8048
6360.00,0.8110
6359.00,0.8177
6358.00,0.8251
6357.00,0.8329
6356.00,0.8411
6355.00,0.8495
6354.00,0.8583
6353.00,0.8673
6352.00,0.8766
6351.00,0.8860
6350.00,0.8956
6349.00,0.9057
6348.00,0.9161
6347.00,0.9267
6346.00,0.9375
6345.00,0.9485
6344.00,0.9593
6343.00,0.9700
6342.00,0.9805
6341.00,0.9911
6340.00,1.0017
6339.00,1.0124
6338.00,1.0231
6337.00,1.0339
6336.00,1.0446
6335.00,1.0552
6334.00,1.0657
6333.00,1.0760
6332.00,1.0860
6331.00,1.0956
6330.00,1.1049
6329.00,1.1138
6328.00,1.1223
6327.00,1.1307
6326.00,1.1389
6325.00,1.1471
6324.00,1.1553
6323.00,1.1632
6322.00,1.1705
6321.00,1.1772
6320.00,1.1835
6319.00,1.1899
6318.00,1.1963
6317.00,1.2021
6316.00,1.2073
6315.00,1.2121
6314.00,1.2168
6313.00,1.2212
6312.00,1.2253
6311.00,1.2290
6310.00,1.2325
6309.00,1.2359
6308.00,1.2387
6307.00,1.2410
6306.00,1.2429
6305.00,1.2445
6304.00,1.2457
6303.00,1.2465
6302.00,1.2468
6301.00,1.2469
6300.00,1.2465
6299.00,1.2455
6298.00,1.2440
6297.00,1.2422
6296.00,1.2403
6295.00,1.2381
6294.00,1.2357
6293.00,1.2330
6292.00,1.2300
6291.00,1.2264
6290.00,1.2222
6289.00,1.2175
6288.00,1.2124
6287.00,1.2069
6286.00,1.2012
6285.00,1.1955
6284.00,1.1895
6283.00,1.1832
6282.00,1.1764
6281.00,1.1694
6280.00,1.1621
6279.00,1.1547
6278.00,1.1469
6277.00,1.1388
6276.00,1.1300
6275.00,1.1205
6274.00,1.1104
6273.00,1.1001
6272.00,1.0898
6271.00,1.0794
6270.00,1.0687
6269.00,1.0579
6268.00,1.0468
6267.00,1.0356
6266.00,1.0243
6265.00,1.0128
6264.00,1.0011
6263.00,0.9893
6262.00,0.9776
6261.00,0.9658
6260.00,0.9539
6259.00,0.9419
6258.00,0.9300
6257.00,0.9185
6256.00,0.9073
6255.00,0.8961
6254.00,0.8852
6253.00,0.8747
6252.00,0.8647
6251.00,0.8549
6250.00,0.8455
6249.00,0.8365
6248.00,0.8280
6247.00,0.8201
6246.00,0.8125
6245.00,0.8055
6244.00,0.7990
6243.00,0.7930
6242.00,0.7875
6241.00,0.7828
6240.00,0.7789
6239.00,0.7759
6238.00,0.7737
6237.00,0.7722
6236.00,0.7715
6235.00,0.7713
6234.00,0.7717
6233.00,0.7728
6232.00,0.7746
6231.00,0.7770
6230.00,0.7802
6229.00,0.7842
6228.00,0.7888
6227.00,0.7940
6226.00,0.7998
6225.00,0.8062
6224.00,0.8131
6223.00,0.8207
6222.00,0.8288
6221.00,0.8374
6220.00,0.8462
6219.00,0.8553
6218.00,0.8647
6217.00,0.8745
6216.00,0.8846
6215.00,0.8949
6214.00,0.9053
6213.00,0.9160
6212.00,0.9269
6211.00,0.9382
6210.00,0.9496
6209.00,0.9611
6208.00,0.9727
6207.00,0.9842
6206.00,0.9956
6205.00,1.0067
6204.00,1.0176
6203.00,1.0283
6202.00,1.0392
6201.00,1.0501
6200.00,1.0610
6199.00,1.0718
6198.00,1.0824
6197.00,1.0929
6196.00,1.1031
6195.00,1.1132
6194.00,1.1231
6193.00,1.1329
6192.00,1.1424
6191.00,1.1515
6190.00,1.1603
6189.00,1.1690
6188.00,1.1774
6187.00,1.1854
6186.00,1.1932
6185.00,1.2008
6184.00,1.2080
6183.00,1.2150
6182.00,1.2214
6181.00,1.2273
6180.00,1.2329
6179.00,1.2384
6178.00,1.2440
6177.00,1.2495
6176.00,1.2546
6175.00,1.2589
6174.00,1.2626
6173.00,1.2658
6172.00,1.2684
6171.00,1.2704
6170.00,1.2720
6169.00,1.2735
6168.00,1.2750
6167.00,1.2763
6166.00,1.2770
6165.00,1.2771
6164.00,1.2767
6163.00,1.2760
6162.00,1.2749
6161.00,1.2731
6160.00,1.2709
6159.00,1.2683
6158.00,1.2656
6157.00,1.2626
6156.00,1.2590
6155.00,1.2550
6154.00,1.2507
6153.00,1.2460
6152.00,1.2409
6151.00,1.2353
6150.00,1.2292
6149.00,1.2227
6148.00,1.2158
6147.00,1.2083
6146.00,1.2003
6145.00,1.1920
6144.00,1.1836
6143.00,1.1753
6142.00,1.1668
6141.00,1.1580
6140.00,1.1487
6139.00,1.1389
6138.00,1.1286
6137.00,1.1178
6136.00,1.1065
6135.00,1.0948
6134.00,1.0829
6133.00,1.0710
6132.00,1.0590
6131.00,1.0467
6130.00,1.0342
6129.00,1.0215
6128.00,1.0088
6127.00,0.9961
6126.00,0.9835
6125.00,0.9710
6124.00,0.9586
6123.00,0.9464
6122.00,0.9342
6121.00,0.9222
6120.00,0.9102
6119.00,0.8984
6118.00,0.8868
6117.00,0.8755
6116.00,0.8646
6115.00,0.8541
6114.00,0.8441
6113.00,0.8346
6112.00,0.8258
6111.00,0.8176
6110.00,0.8099
6109.00,0.8028
6108.00,0.7962
6107.00,0.7903
6106.00,0.7851
6105.00,0.7806
6104.00,0.7769
6103.00,0.7741
6102.00,0.7720
6101.00,0.7707
6100.00,0.7701
6099.00,0.7703
6098.00,0.7712
6097.00,0.7729
6096.00,0.7752
6095.00,0.7782
6094.00,0.7819
6093.00,0.7863
6092.00,0.7913
6091.00,0.7970
6090.00,0.8035
6089.00,0.8106
6088.00,0.8182
6087.00,0.8262
6086.00,0.8346
6085.00,0.8434
6084.00,0.8526
6083.00,0.8621
6082.00,0.8720
6081.00,0.8821
6080.00,0.8923
6079.00,0.9026
6078.00,0.9131
6077.00,0.9240
6076.00,0.9352
6075.00,0.9466
6074.00,0.9581
6073.00,0.9697
6072.00,0.9812
6071.00,0.9924
6070.00,1.0035
6069.00,1.0145
6068.00,1.0256
6067.00,1.0368
6066.00,1.0480
6065.00,1.0590
6064.00,1.0698
6063.00,1.0805
6062.00,1.0908
6061.00,1.1009
6060.00,1.1107
6059.00,1.1200
6058.00,1.1292
6057.00,1.1382
6056.00,1.1471
6055.00,1.1560
6054.00,1.1648
6053.00,1.1735
6052.00,1.1820
6051.00,1.1902
6050.00,1.1982
6049.00,1.2058
6048.00,1.2131
6047.00,1.2200
6046.00,1.2265
6045.00,1.2323
6044.00,1.2375
6043.00,1.2424
6042.00,1.2471
6041.00,1.2518
6040.00,1.2564
6039.00,1.2607
6038.00,1.2648
6037.00,1.2686
6036.00,1.2718
6035.00,1.2744
6034.00,1.2767
6033.00,1.2788
6032.00,1.2807
6031.00,1.2820
6030.00,1.2826
6029.00,1.2825
6028.00,1.2818
6027.00,1.2805
6026.00,1.2790
6025.00,1.2774
6024.00,1.2758
6023.00,1.2741
6022.00,1.2719
6021.00,1.2694
6020.00,1.2661
6019.00,1.2621
6018.00,1.2573
6017.00,1.2520
6016.00,1.2464
6015.00,1.2406
6014.00,1.2347
6013.00,1.2286
6012.00,1.2223
6011.00,1.2155
6010.00,1.2080
6009.00,1.1999
6008.00,1.1914
6007.00,1.1826
6006.00,1.1735
6005.00,1.1640
6004.00,1.1540
6003.00,1.1435
6002.00,1.1325
6001.00,1.1210
6000.00,1.1091
5999.00,1.0971
5998.00,1.0851
5997.00,1.0731
5996.00,1.0609
5995.00,1.0485
5994.00,1.0358
5993.00,1.0230
5992.00,1.0099
5991.00,0.9966
5990.00,0.9832
5989.00,0.9699
5988.00,0.9567
5987.00,0.9439
5986.00,0.9313
5985.00,0.9189
5984.00,0.9066
5983.00,0.8944
5982.00,0.8825
5981.00,0.8710
5980.00,0.8600
5979.00,0.8495
5978.00,0.8397
5977.00,0.8305
5976.00,0.8218
5975.00,0.8136
5974.00,0.8060
5973.00,0.7990
5972.00,0.7928
5971.00,0.7874
5970.00,0.7828
5969.00,0.7789
5968.00,0.7759
5967.00,0.7737
5966.00,0.7723
5965.00,0.7716
5964.00,0.7717
5963.00,0.7725
5962.00,0.7741
5961.00,0.7766
5960.00,0.7798
5959.00,0.7837
5958.00,0.7883
5957.00,0.7936
5956.00,0.7996
5955.00,0.8062
5954.00,0.8134
5953.00,0.8213
5952.00,0.8298
5951.00,0.8389
5950.00,0.8485
5949.00,0.8585
5948.00,0.8688
5947.00,0.8794
5946.00,0.8902
5945.00,0.9014
5944.00,0.9127
5943.00,0.9242
5942.00,0.9359
5941.00,0.9478
5940.00,0.9599
5939.00,0.9720
5938.00,0.9841
5937.00,0.9964
5936.00,1.0087
5935.00,1.0210
5934.00,1.0333
5933.00,1.0454
5932.00,1.0573
5931.00,1.0692
5930.00,1.0810
5929.00,1.0927
5928.00,1.1041
5927.00,1.1153
5926.00,1.1265
5925.00,1.1374
5924.00,1.1481
5923.00,1.1585
5922.00,1.1687
5921.00,1.1788
5920.00,1.1886
5919.00,1.1981
5918.00,1.2075
5917.00,1.2166
5916.00,1.2251
5915.00,1.2330
5914.00,1.2405
5913.00,1.2478
5912.00,1.2548
5911.00,1.2612
5910.00,1.2671
5909.00,1.2726
5908.00,1.2779
5907.00,1.2830
5906.00,1.2880
5905.00,1.2928
5904.00,1.2977
5903.00,1.3022
5902.00,1.3059
5901.00,1.3085
5900.00,1.3103
5899.00,1.3117
5898.00,1.3130
5897.00,1.3143
5896.00,1.3154
5895.00,1.3161
5894.00,1.3163
5893.00,1.3160
5892.00,1.3148
5891.00,1.3129
5890.00,1.3103
5889.00,1.3076
5888.00,1.3048
5887.00,1.3019
5886.00,1.2989
5885.00,1.2960
5884.00,1.2928
5883.00,1.2889
5882.00,1.2841
5881.00,1.2785
5880.00,1.2724
5879.00,1.2658
5878.00,1.2589
5877.00,1.2517
5876.00,1.2444
5875.00,1.2367
5874.00,1.2283
5873.00,1.2193
5872.00,1.2099
5871.00,1.2004
5870.00,1.1905
5869.00,1.1802
5868.00,1.1696
5867.00,1.1587
5866.00,1.1476
5865.00,1.1362
5864.00,1.1244
5863.00,1.1121
5862.00,1.0994
5861.00,1.0865
5860.00,1.0734
5859.00,1.0602
5858.00,1.0471
5857.00,1.0341
5856.00,1.0211
5855.00,1.0081
5854.00,0.9949
5853.00,0.9817
5852.00,0.9686
5851.00,0.9556
5850.00,0.9428
5849.00,0.9302
5848.00,0.9179
5847.00,0.9059
5846.00,0.8944
5845.00,0.8832
5844.00,0.8725
5843.00,0.8621
5842.00,0.8523
5841.00,0.8431
5840.00,0.8346
5839.00,0.8267
5838.00,0.8196
5837.00,0.8130
5836.00,0.8071
5835.00,0.8019
5834.00,0.7975
5833.00,0.7939
5832.00,0.7913
5831.00,0.7894
5830.00,0.7883
5829.00,0.7879
5828.00,0.7883
5827.00,0.7895
5826.00,0.7916
5825.00,0.7944
5824.00,0.7979
5823.00,0.8022
5822.00,0.8072
5821.00,0.8129
5820.00,0.8192
5819.00,0.8260
5818.00,0.8335
5817.00,0.8416
5816.00,0.8502
5815.00,0.8593
5814.00,0.8689
5813.00,0.8790
5812.00,0.8893
5811.00,0.9000
5810.00,0.9109
5809.00,0.9221
5808.00,0.9335
5807.00,0.9450
5806.00,0.9565
5805.00,0.9683
5804.00,0.9803
5803.00,0.9923
5802.00,1.0043
5801.00,1.0164
5800.00,1.0285
5799.00,1.0406
5798.00,1.0527
5797.00,1.0648
5796.00,1.0768
5795.00,1.0886
5794.00,1.1002
5793.00,1.1117
5792.00,1.1231
5791.00,1.1344
5790.00,1.1456
5789.00,1.1565
5788.00,1.1671
5787.00,1.1771
5786.00,1.1866
5785.00,1.1959
5784.00,1.2052
5783.00,1.2149
5782.00,1.2245
5781.00,1.2336
5780.00,1.2421
5779.00,1.2501
5778.00,1.2576
5777.00,1.2648
5776.00,1.2716
5775.00,1.2781
5774.00,1.2846
5773.00,1.2907
5772.00,1.2964
5771.00,1.3014
5770.00,1.3061
5769.00,1.3107
5768.00,1.3149
5767.00,1.3185
5766.00,1.3215
5765.00,1.3238
5764.00,1.3258
5763.00,1.3277
5762.00,1.3293
5761.00,1.3307
5760.00,1.3318
5759.00,1.3323
5758.00,1.3323
5757.00,1.3318
5756.00,1.3307
5755.00,1.3292
5754.00,1.3274
5753.00,1.3254
5752.00,1.3229
5751.00,1.3198
5750.00,1.3162
5749.00,1.3121
5748.00,1.3078
5747.00,1.3029
5746.00,1.2975
5745.00,1.2915
5744.00,1.2853
5743.00,1.2789
5742.00,1.2723
5741.00,1.2655
5740.00,1.2583
5739.00,1.2507
5738.00,1.2426
5737.00,1.2338
5736.00,1.2244
5735.00,1.2144
5734.00,1.2041
5733.00,1.1934
5732.00,1.1823
5731.00,1.1708
5730.00,1.1590
5729.00,1.1470
5728.00,1.1348
5727.00,1.1222
5726.00,1.1094
5725.00,1.0964
5724.00,1.0832
5723.00,1.0698
5722.00,1.0563
5721.00,1.0425
5720.00,1.0286
5719.00,1.0147
5718.00,1.0008
5717.00,0.9870
5716.00,0.9732
5715.00,0.9595
5714.00,0.9459
5713.00,0.9324
5712.00,0.9192
5711.00,0.9062
5710.00,0.8937
5709.00,0.8817
5708.00,0.8703
5707.00,0.8593
5706.00,0.8490
5705.00,0.8392
5704.00,0.8300
5703.00,0.8214
5702.00,0.8136
5701.00,0.8065
5700.00,0.8002
5699.00,0.7947
5698.00,0.7900
5697.00,0.7862
5696.00,0.7832
5695.00,0.7811
5694.00,0.7798
5693.00,0.7794
5692.00,0.7799
5691.00,0.7814
5690.00,0.7837
5689.00,0.7869
5688.00,0.7908
5687.00,0.7955
5686.00,0.8009
5685.00,0.8070
5684.00,0.8138
5683.00,0.8213
5682.00,0.8295
5681.00,0.8383
5680.00,0.8477
5679.00,0.8575
5678.00,0.8678
5677.00,0.8784
5676.00,0.8895
5675.00,0.9009
5674.00,0.9126
5673.00,0.9246
5672.00,0.9368
5671.00,0.9491
5670.00,0.9617
5669.00,0.9744
5668.00,0.9873
5667.00,1.0002
5666.00,1.0131
5665.00,1.0258
5664.00,1.0386
5663.00,1.0512
5662.00,1.0638
5661.00,1.0764
5660.00,1.0889
5659.00,1.1013
5658.00,1.1133
5657.00,1.1251
5656.00,1.1366
5655.00,1.1479
5654.00,1.1591
5653.00,1.1701
5652.00,1.1810
5651.00,1.1917
5650.00,1.2021
5649.00,1.2121
5648.00,1.2217
5647.00,1.2308
5646.00,1.2396
5645.00,1.2482
5644.00,1.2565
5643.00,1.2643
5642.00,1.2715
5641.00,1.2781
5640.00,1.2842
5639.00,1.2900
5638.00,1.2957
5637.00,1.3011
5636.00,1.3063
5635.00,1.3111
5634.00,1.3154
5633.00,1.3192
5632.00,1.3224
5631.00,1.3251
5630.00,1.3273
5629.00,1.3290
5628.00,1.3302
5627.00,1.3310
5626.00,1.3314
5625.00,1.3316
5624.00,1.3316
5623.00,1.3312
5622.00,1.3305
5621.00,1.3294
5620.00,1.3280
5619.00,1.3263
5618.00,1.3240
5617.00,1.3211
5616.00,1.3178
5615.00,1.3142
5614.00,1.3102
5613.00,1.3060
5612.00,1.3019
5611.00,1.2977
5610.00,1.2932
5609.00,1.2880
5608.00,1.2820
5607.00,1.2753
5606.00,1.2682
5605.00,1.2606
5604.00,1.2527
5603.00,1.2445
5602.00,1.2362
5601.00,1.2274
5600.00,1.2181
5599.00,1.2081
5598.00,1.1976
5597.00,1.1867
5596.00,1.1756
5595.00,1.1642
5594.00,1.1524
5593.00,1.1402
5592.00,1.1278
5591.00,1.1149
5590.00,1.1017
5589.00,1.0881
5588.00,1.0742
5587.00,1.0601
5586.00,1.0459
5585.00,1.0315
5584.00,1.0170
5583.00,1.0025
5582.00,0.9882
5581.00,0.9740
5580.00,0.9598
5579.00,0.9458
5578.00,0.9319
5577.00,0.9183
5576.00,0.9049
5575.00,0.8918
5574.00,0.8790
5573.00,0.8668
5572.00,0.8552
5571.00,0.8442
5570.00,0.8339
5569.00,0.8242
5568.00,0.8151
5567.00,0.8069
5566.00,0.7994
5565.00,0.7927
5564.00,0.7869
5563.00,0.7819
5562.00,0.7777
5561.00,0.7744
5560.00,0.7720
5559.00,0.7706
5558.00,0.7702
5557.00,0.7707
5556.00,0.7723
5555.00,0.7747
5554.00,0.7781
5553.00,0.7823
5552.00,0.7873
5551.00,0.7930
5550.00,0.7995
5549.00,0.8069
5548.00,0.8150
5547.00,0.8237
5546.00,0.8330
5545.00,0.8429
5544.00,0.8532
5543.00,0.8641
5542.00,0.8755
5541.00,0.8873
5540.00,0.8995
5539.00,0.9118
5538.00,0.9244
5537.00,0.9372
5536.00,0.9503
5535.00,0.9636
5534.00,0.9770
5533.00,0.9906
5532.00,1.0040
5531.00,1.0174
5530.00,1.0308
5529.00,1.0442
5528.00,1.0576
5527.00,1.0709
5526.00,1.0841
5525.00,1.0972
5524.00,1.1101
5523.00,1.1230
5522.00,1.1357
5521.00,1.1483
5520.00,1.1606
5519.00,1.1725
5518.00,1.1839
5517.00,1.1951
5516.00,1.2058
5515.00,1.2162
5514.00,1.2265
5513.00,1.2365
5512.00,1.2464
5511.00,1.2559
5510.00,1.2650
5509.00,1.2739
5508.00,1.2826
5507.00,1.2910
5506.00,1.2989
5505.00,1.3063
5504.00,1.3131
5503.00,1.3195
5502.00,1.3255
5501.00,1.3311
5500.00,1.3363
5499.00,1.3412
5498.00,1.3456
5497.00,1.3495
5496.00,1.3530
5495.00,1.3560
5494.00,1.3587
5493.00,1.3608
5492.00,1.3623
5491.00,1.3635
5490.00,1.3644
5489.00,1.3652
5488.00,1.3656
5487.00,1.3656
5486.00,1.3650
5485.00,1.3638
5484.00,1.3619
5483.00,1.3595
5482.00,1.3569
5481.00,1.3542
5480.00,1.3511
5479.00,1.3474
5478.00,1.3430
5477.00,1.3381
5476.00,1.3327
5475.00,1.3268
5474.00,1.3206
5473.00,1.3141
5472.00,1.3074
5471.00,1.3003
5470.00,1.2927
5469.00,1.2844
5468.00,1.2756
5467.00,1.2663
5466.00,1.2566
5465.00,1.2464
5464.00,1.2358
5463.00,1.2247
5462.00,1.2132
5461.00,1.2013
5460.00,1.1888
5459.00,1.1759
5458.00,1.1627
5457.00,1.1494
5456.00,1.1359
5455.00,1.1221
5454.00,1.1081
5453.00,1.0939
5452.00,1.0793
5451.00,1.0643
5450.00,1.0490
5449.00,1.0336
5448.00,1.0181
5447.00,1.0025
5446.00,0.9869
5445.00,0.9713
5444.00,0.9559
5443.00,0.9408
5442.00,0.9259
5441.00,0.9114
5440.00,0.8973
5439.00,0.8836
5438.00,0.8706
5437.00,0.8582
5436.00,0.8464
5435.00,0.8352
5434.00,0.8245
5433.00,0.8147
5432.00,0.8056
5431.00,0.7972
5430.00,0.7897
5429.00,0.7830
5428.00,0.7771
5427.00,0.7722
5426.00,0.7684
5425.00,0.7655
5424.00,0.7637
5423.00,0.7630
5422.00,0.7633
5421.00,0.7645
5420.00,0.7666
5419.00,0.7696
5418.00,0.7736
5417.00,0.7784
5416.00,0.7842
5415.00,0.7908
5414.00,0.7981
5413.00,0.8062
5412.00,0.8147
5411.00,0.8238
5410.00,0.8334
5409.00,0.8436
5408.00,0.8546
5407.00,0.8661
5406.00,0.8782
5405.00,0.8905
5404.00,0.9032
5403.00,0.9160
5402.00,0.9290
5401.00,0.9421
5400.00,0.9554
5399.00,0.9688
5398.00,0.9824
5397.00,0.9961
5396.00,1.0098
5395.00,1.0236
5394.00,1.0375
5393.00,1.0516
5392.00,1.0656
5391.00,1.0794
5390.00,1.0929
5389.00,1.1061
5388.00,1.1189
5387.00,1.1316
5386.00,1.1442
5385.00,1.1569
5384.00,1.1694
5383.00,1.1817
5382.00,1.1938
5381.00,1.2056
5380.00,1.2170
5379.00,1.2281
5378.00,1.2390
5377.00,1.2496
5376.00,1.2596
5375.00,1.2692
5374.00,1.2783
5373.00,1.2870
5372.00,1.2954
5371.00,1.3037
5370.00,1.3118
5369.00,1.3196
5368.00,1.3269
5367.00,1.3338
5366.00,1.3402
5365.00,1.3462
5364.00,1.3518
5363.00,1.3570
5362.00,1.3618
5361.00,1.3662
5360.00,1.3700
5359.00,1.3734
5358.00,1.3761
5357.00,1.3783
5356.00,1.3798
5355.00,1.3808
5354.00,1.3816
5353.00,1.3822
5352.00,1.3824
5351.00,1.3820
5350.00,1.3809
5349.00,1.3793
5348.00,1.3771
5347.00,1.3746
5346.00,1.3718
5345.00,1.3686
5344.00,1.3649
5343.00,1.3607
5342.00,1.3561
5341.00,1.3513
5340.00,1.3462
5339.00,1.3407
5338.00,1.3345
5337.00,1.3277
5336.00,1.3204
5335.00,1.3128
5334.00,1.3048
5333.00,1.2963
5332.00,1.2870
5331.00,1.2771
5330.00,1.2667
5329.00,1.2559
5328.00,1.2448
5327.00,1.2333
5326.00,1.2215
5325.00,1.2093
5324.00,1.1967
5323.00,1.1837
5322.00,1.1701
5321.00,1.1562
5320.00,1.1419
5319.00,1.1274
5318.00,1.1127
5317.00,1.0978
5316.00,1.0826
5315.00,1.0671
5314.00,1.0513
5313.00,1.0352
5312.00,1.0192
5311.00,1.0032
5310.00,0.9873
5309.00,0.9715
5308.00,0.9558
5307.00,0.9402
5306.00,0.9249
5305.00,0.9101
5304.00,0.8958
5303.00,0.8822
5302.00,0.8692
5301.00,0.8569
5300.00,0.8452
5299.00,0.8341
5298.00,0.8238
5297.00,0.8142
5296.00,0.8055
5295.00,0.7977
5294.00,0.7909
5293.00,0.7851
5292.00,0.7803
5291.00,0.7763
5290.00,0.7734
5289.00,0.7714
5288.00,0.7706
5287.00,0.7708
5286.00,0.7722
5285.00,0.7746
5284.00,0.7780
5283.00,0.7824
5282.00,0.7878
5281.00,0.7941
5280.00,0.8013
5279.00,0.8094
5278.00,0.8182
5277.00,0.8278
5276.00,0.8380
5275.00,0.8488
5274.00,0.8603
5273.00,0.8723
5272.00,0.8846
5271.00,0.8974
5270.00,0.9106
5269.00,0.9241
5268.00,0.9379
5267.00,0.9518
5266.00,0.9659
5265.00,0.9802
5264.00,0.9947
5263.00,1.0094
5262.00,1.0243
5261.00,1.0392
5260.00,1.0540
5259.00,1.0686
5258.00,1.0830
5257.00,1.0972
5256.00,1.1112
5255.00,1.1252
5254.00,1.1391
5253.00,1.1530
5252.00,1.1666
5251.00,1.1799
5250.00,1.1928
5249.00,1.2053
5248.00,1.2174
5247.00,1.2293
5246.00,1.2411
5245.00,1.2527
5244.00,1.2641
5243.00,1.2753
5242.00,1.2859
5241.00,1.2961
5240.00,1.3058
5239.00,1.3152
5238.00,1.3241
5237.00,1.3325
5236.00,1.3403
5235.00,1.3477
5234.00,1.3547
5233.00,1.3613
5232.00,1.3678
5231.00,1.3739
5230.00,1.3796
5229.00,1.3847
5228.00,1.3892
5227.00,1.3933
5226.00,1.3971
5225.00,1.4006
5224.00,1.4037
5223.00,1.4063
5222.00,1.4086
5221.00,1.4103
5220.00,1.4115
5219.00,1.4122
5218.00,1.4125
5217.00,1.4123
5216.00,1.4117
5215.00,1.4108
5214.00,1.4095
5213.00,1.4078
5212.00,1.4056
5211.00,1.4029
5210.00,1.3998
5209.00,1.3964
5208.00,1.3925
5207.00,1.3879
5206.00,1.3827
5205.00,1.3769
5204.00,1.3706
5203.00,1.3639
5202.00,1.3568
5201.00,1.3494
5200.00,1.3416
5199.00,1.3334
5198.00,1.3247
5197.00,1.3155
5196.00,1.3058
5195.00,1.2957
5194.00,1.2851
5193.00,1.2738
5192.00,1.2619
5191.00,1.2495
5190.00,1.2368
5189.00,1.2238
5188.00,1.2107
5187.00,1.1972
5186.00,1.1832
5185.00,1.1686
5184.00,1.1536
5183.00,1.1382
5182.00,1.1225
5181.00,1.1065
5180.00,1.0904
5179.00,1.0739
5178.00,1.0573
5177.00,1.0406
5176.00,1.0240
5175.00,1.0074
5174.00,0.9908
5173.00,0.9743
5172.00,0.9580
5171.00,0.9420
5170.00,0.9263
5169.00,0.9111
5168.00,0.8963
5167.00,0.8821
5166.00,0.8684
5165.00,0.8554
5164.00,0.8429
5163.00,0.8313
5162.00,0.8205
5161.00,0.8106
5160.00,0.8016
5159.00,0.7936
5158.00,0.7865
5157.00,0.7805
5156.00,0.7756
5155.00,0.7717
5154.00,0.7690
5153.00,0.7674
5152.00,0.7670
5151.00,0.7678
5150.00,0.7696
5149.00,0.7726
5148.00,0.7765
5147.00,0.7814
5146.00,0.7874
5145.00,0.7942
5144.00,0.8020
5143.00,0.8106
5142.00,0.8200
5141.00,0.8302
5140.00,0.8411
5139.00,0.8526
5138.00,0.8647
5137.00,0.8773
5136.00,0.8904
5135.00,0.9039
5134.00,0.9179
5133.00,0.9323
5132.00,0.9469
5131.00,0.9617
5130.00,0.9766
5129.00,0.9917
5128.00,1.0067
5127.00,1.0218
5126.00,1.0369
5125.00,1.0521
5124.00,1.0672
5123.00,1.0823
5122.00,1.0974
5121.00,1.1125
5120.00,1.1274
5119.00,1.1420
5118.00,1.1563
5117.00,1.1704
5116.00,1.1843
5115.00,1.1979
5114.00,1.2113
5113.00,1.2244
5112.00,1.2373
5111.00,1.2498
5110.00,1.2619
5109.00,1.2738
5108.00,1.2853
5107.00,1.2964
5106.00,1.3069
5105.00,1.3170
5104.00,1.3269
5103.00,1.3364
5102.00,1.3456
5101.00,1.3544
5100.00,1.3627
5099.00,1.3707
5098.00,1.3782
5097.00,1.3853
5096.00,1.3917
5095.00,1.3976
5094.00,1.4030
5093.00,1.4079
5092.00,1.4125
5091.00,1.4169
5090.00,1.4212
5089.00,1.4251
5088.00,1.4282
5087.00,1.4306
5086.00,1.4325
5085.00,1.4340
5084.00,1.4353
5083.00,1.4363
5082.00,1.4368
5081.00,1.4366
5080.00,1.4356
5079.00,1.4339
5078.00,1.4321
5077.00,1.4302
5076.00,1.4282
5075.00,1.4258
5074.00,1.4226
5073.00,1.4187
5072.00,1.4140
5071.00,1.4088
5070.00,1.4031
5069.00,1.3972
5068.00,1.3910
5067.00,1.3845
5066.00,1.3776
5065.00,1.3701
5064.00,1.3620
5063.00,1.3531
5062.00,1.3436
5061.00,1.3336
5060.00,1.3232
5059.00,1.3123
5058.00,1.3010
5057.00,1.2893
5056.00,1.2770
5055.00,1.2642
5054.00,1.2509
5053.00,1.2372
5052.00,1.2231
5051.00,1.2086
5050.00,1.1936
5049.00,1.1781
5048.00,1.1624
5047.00,1.1463
5046.00,1.1300
5045.00,1.1134
5044.00,1.0964
5043.00,1.0791
5042.00,1.0616
5041.00,1.0439
5040.00,1.0262
5039.00,1.0087
5038.00,0.9913
5037.00,0.9742
5036.00,0.9572
5035.00,0.9404
5034.00,0.9240
5033.00,0.9081
5032.00,0.8928
5031.00,0.8782
5030.00,0.8642
5029.00,0.8510
5028.00,0.8385
5027.00,0.8268
5026.00,0.8160
5025.00,0.8062
5024.00,0.7974
5023.00,0.7898
5022.00,0.7834
5021.00,0.7780
5020.00,0.7739
5019.00,0.7709
5018.00,0.7692
5017.00,0.7687
5016.00,0.7695
5015.00,0.7715
5014.00,0.7745
5013.00,0.7787
5012.00,0.7840
5011.00,0.7904
5010.00,0.7980
5009.00,0.8065
5008.00,0.8160
5007.00,0.8263
5006.00,0.8372
5005.00,0.8489
5004.00,0.8612
5003.00,0.8742
5002.00,0.8878
5001.00,0.9020
5000.00,0.9167
4999.00,0.9317
4998.00,0.9471
4997.00,0.9626
4996.00,0.9784
4995.00,0.9943
4994.00,1.0103
4993.00,1.0264
4992.00,1.0425
4991.00,1.0586
4990.00,1.0748
4989.00,1.0910
4988.00,1.1072
4987.00,1.1232
4986.00,1.1389
4985.00,1.1543
4984.00,1.1696
4983.00,1.1847
4982.00,1.1995
4981.00,1.2140
4980.00,1.2282
4979.00,1.2419
4978.00,1.2552
4977.00,1.2683
4976.00,1.2812
4975.00,1.2939
4974.00,1.3062
4973.00,1.3178
4972.00,1.3289
4971.00,1.3394
4970.00,1.3494
4969.00,1.3590
4968.00,1.3685
4967.00,1.3778
4966.00,1.3868
4965.00,1.3953
4964.00,1.4031
4963.00,1.4105
4962.00,1.4173
4961.00,1.4238
4960.00,1.4298
4959.00,1.4355
4958.00,1.4407
4957.00,1.4455
4956.00,1.4499
4955.00,1.4537
4954.00,1.4571
4953.00,1.4600
4952.00,1.4625
4951.00,1.4644
4950.00,1.4659
4949.00,1.4667
4948.00,1.4670
4947.00,1.4669
4946.00,1.4664
4945.00,1.4656
4944.00,1.4644
4943.00,1.4627
4942.00,1.4604
4941.00,1.4576
4940.00,1.4540
4939.00,1.4499
4938.00,1.4452
4937.00,1.4402
4936.00,1.4350
4935.00,1.4296
4934.00,1.4237
4933.00,1.4172
4932.00,1.4101
4931.00,1.4025
4930.00,1.3944
4929.00,1.3860
4928.00,1.3771
4927.00,1.3678
4926.00,1.3578
4925.00,1.3472
4924.00,1.3360
4923.00,1.3242
4922.00,1.3119
4921.00,1.2991
4920.00,1.2859
4919.00,1.2722
4918.00,1.2580
4917.00,1.2433
4916.00,1.2280
4915.00,1.2123
4914.00,1.1962
4913.00,1.1797
4912.00,1.1628
4911.00,1.1454
4910.00,1.1278
4909.00,1.1099
4908.00,1.0919
4907.00,1.0737
4906.00,1.0553
4905.00,1.0368
4904.00,1.0183
4903.00,0.9997
4902.00,0.9813
4901.00,0.9632
4900.00,0.9455
4899.00,0.9281
4898.00,0.9112
4897.00,0.8948
4896.00,0.8791
4895.00,0.8639
4894.00,0.8496
4893.00,0.8361
4892.00,0.8236
4891.00,0.8120
4890.00,0.8014
4889.00,0.7920
4888.00,0.7837
4887.00,0.7767
4886.00,0.7710
4885.00,0.7667
4884.00,0.7636
4883.00,0.7619
4882.00,0.7614
4881.00,0.7621
4880.00,0.7642
4879.00,0.7676
4878.00,0.7722
4877.00,0.7781
4876.00,0.7852
4875.00,0.7934
4874.00,0.8027
4873.00,0.8129
4872.00,0.8240
4871.00,0.8359
4870.00,0.8485
4869.00,0.8618
4868.00,0.8758
4867.00,0.8904
4866.00,0.9056
4865.00,0.9212
4864.00,0.9371
4863.00,0.9533
4862.00,0.9697
4861.00,0.9863
4860.00,1.0030
4859.00,1.0199
4858.00,1.0367
4857.00,1.0536
4856.00,1.0703
4855.00,1.0869
4854.00,1.1035
4853.00,1.1199
4852.00,1.1363
4851.00,1.1526
4850.00,1.1689
4849.00,1.1849
4848.00,1.2007
4847.00,1.2162
4846.00,1.2313
4845.00,1.2461
4844.00,1.2604
4843.00,1.2743
4842.00,1.2879
4841.00,1.3013
4840.00,1.3143
4839.00,1.3272
4838.00,1.3397
4837.00,1.3517
4836.00,1.3632
4835.00,1.3741
4834.00,1.3846
4833.00,1.3947
4832.00,1.4043
4831.00,1.4136
4830.00,1.4223
4829.00,1.4306
4828.00,1.4383
4827.00,1.4455
4826.00,1.4523
4825.00,1.4586
4824.00,1.4644
4823.00,1.4697
4822.00,1.4744
4821.00,1.4786
4820.00,1.4823
4819.00,1.4857
4818.00,1.4887
4817.00,1.4913
4816.00,1.4934
4815.00,1.4950
4814.00,1.4962
4813.00,1.4969
4812.00,1.4972
4811.00,1.4971
4810.00,1.4965
4809.00,1.4953
4808.00,1.4934
4807.00,1.4911
4806.00,1.4884
4805.00,1.4853
4804.00,1.4816
4803.00,1.4772
4802.00,1.4723
4801.00,1.4669
4800.00,1.4611
4799.00,1.4551
4798.00,1.4487
4797.00,1.4418
4796.00,1.4344
4795.00,1.4265
4794.00,1.4179
4793.00,1.4088
4792.00,1.3991
4791.00,1.3890
4790.00,1.3783
4789.00,1.3671
4788.00,1.3553
4787.00,1.3429
4786.00,1.3298
4785.00,1.3162
4784.00,1.3021
4783.00,1.2876
4782.00,1.2725
4781.00,1.2569
4780.00,1.2409
4779.00,1.2243
4778.00,1.2072
4777.00,1.1898
4776.00,1.1719
4775.00,1.1537
4774.00,1.1352
4773.00,1.1163
4772.00,1.0972
4771.00,1.0779
4770.00,1.0586
4769.00,1.0392
4768.00,1.0199
4767.00,1.0008
4766.00,0.9818
4765.00,0.9631
4764.00,0.9447
4763.00,0.9268
4762.00,0.9096
4761.00,0.8930
4760.00,0.8771
4759.00,0.8620
4758.00,0.8477
4757.00,0.8344
4756.00,0.8223
4755.00,0.8112
4754.00,0.8015
4753.00,0.7930
4752.00,0.7859
4751.00,0.7800
4750.00,0.7756
4749.00,0.7725
4748.00,0.7709
4747.00,0.7707
4746.00,0.7721
4745.00,0.7748
4744.00,0.7789
4743.00,0.7843
4742.00,0.7910
4741.00,0.7989
4740.00,0.8079
4739.00,0.8181
4738.00,0.8292
4737.00,0.8413
4736.00,0.8543
4735.00,0.8681
4734.00,0.8826
4733.00,0.8978
4732.00,0.9135
4731.00,0.9295
4730.00,0.9460
4729.00,0.9627
4728.00,0.9798
4727.00,0.9972
4726.00,1.0148
4725.00,1.0326
4724.00,1.0504
4723.00,1.0682
4722.00,1.0859
4721.00,1.1035
4720.00,1.1210
4719.00,1.1383
4718.00,1.1556
4717.00,1.1729
4716.00,1.1900
4715.00,1.2070
4714.00,1.2236
4713.00,1.2398
4712.00,1.2556
4711.00,1.2711
4710.00,1.2863
4709.00,1.3012
4708.00,1.3158
4707.00,1.3300
4706.00,1.3438
4705.00,1.3571
4704.00,1.3698
4703.00,1.3819
4702.00,1.3936
4701.00,1.4050
4700.00,1.4160
4699.00,1.4265
4698.00,1.4366
4697.00,1.4463
4696.00,1.4556
4695.00,1.4643
4694.00,1.4724
4693.00,1.4799
4692.00,1.4866
4691.00,1.4929
4690.00,1.4988
4689.00,1.5044
4688.00,1.5096
4687.00,1.5143
4686.00,1.5185
4685.00,1.5222
4684.00,1.5254
4683.00,1.5282
4682.00,1.5306
4681.00,1.5326
4680.00,1.5341
4679.00,1.5350
4678.00,1.5353
4677.00,1.5350
4676.00,1.5344
4675.00,1.5335
4674.00,1.5322
4673.00,1.5303
4672.00,1.5277
4671.00,1.5246
4670.00,1.5212
4669.00,1.5175
4668.00,1.5134
4667.00,1.5089
4666.00,1.5038
4665.00,1.4981
4664.00,1.4919
4663.00,1.4853
4662.00,1.4783
4661.00,1.4708
4660.00,1.4627
4659.00,1.4538
4658.00,1.4442
4657.00,1.4340
4656.00,1.4233
4655.00,1.4123
4654.00,1.4008
4653.00,1.3887
4652.00,1.3760
4651.00,1.3627
4650.00,1.3490
4649.00,1.3347
4648.00,1.3199
4647.00,1.3045
4646.00,1.2884
4645.00,1.2717
4644.00,1.2545
4643.00,1.2368
4642.00,1.2187
4641.00,1.2002
4640.00,1.1813
4639.00,1.1619
4638.00,1.1420
4637.00,1.1217
4636.00,1.1013
4635.00,1.0809
4634.00,1.0606
4633.00,1.0402
4632.00,1.0199
4631.00,0.9997
4630.00,0.9799
4629.00,0.9604
4628.00,0.9415
4627.00,0.9233
4626.00,0.9056
4625.00,0.8887
4624.00,0.8727
4623.00,0.8576
4622.00,0.8436
4621.00,0.8307
4620.00,0.8191
4619.00,0.8087
4618.00,0.7998
4617.00,0.7922
4616.00,0.7861
4615.00,0.7816
4614.00,0.7785
4613.00,0.7769
4612.00,0.7769
4611.00,0.7783
4610.00,0.7813
4609.00,0.7857
4608.00,0.7915
4607.00,0.7986
4606.00,0.8070
4605.00,0.8165
4604.00,0.8271
4603.00,0.8389
4602.00,0.8516
4601.00,0.8652
4600.00,0.8796
4599.00,0.8947
4598.00,0.9105
4597.00,0.9268
4596.00,0.9436
4595.00,0.9608
4594.00,0.9784
4593.00,0.9964
4592.00,1.0145
4591.00,1.0328
4590.00,1.0512
4589.00,1.0697
4588.00,1.0881
4587.00,1.1065
4586.00,1.1249
4585.00,1.1433
4584.00,1.1616
4583.00,1.1797
4582.00,1.1977
4581.00,1.2152
4580.00,1.2324
4579.00,1.2491
4578.00,1.2656
4577.00,1.2819
4576.00,1.2981
4575.00,1.3140
4574.00,1.3295
4573.00,1.3445
4572.00,1.3590
4571.00,1.3730
4570.00,1.3866
4569.00,1.3997
4568.00,1.4126
4567.00,1.4250
4566.00,1.4370
4565.00,1.4484
4564.00,1.4591
4563.00,1.4691
4562.00,1.4786
4561.00,1.4877
4560.00,1.4965
4559.00,1.5050
4558.00,1.5129
4557.00,1.5202
4556.00,1.5269
4555.00,1.5330
4554.00,1.5387
4553.00,1.5441
4552.00,1.5492
4551.00,1.5539
4550.00,1.5580
4549.00,1.5614
4548.00,1.5641
4547.00,1.5662
4546.00,1.5677
4545.00,1.5689
4544.00,1.5697
4543.00,1.5701
4542.00,1.5700
4541.00,1.5693
4540.00,1.5679
4539.00,1.5660
4538.00,1.5639
4537.00,1.5616
4536.00,1.5589
4535.00,1.5556
4534.00,1.5517
4533.00,1.5471
4532.00,1.5423
4531.00,1.5371
4530.00,1.5316
4529.00,1.5255
4528.00,1.5187
4527.00,1.5112
4526.00,1.5031
4525.00,1.4945
4524.00,1.4855
4523.00,1.4760
4522.00,1.4661
4521.00,1.4556
4520.00,1.4445
4519.00,1.4327
4518.00,1.4202
4517.00,1.4070
4516.00,1.3931
4515.00,1.3786
4514.00,1.3636
4513.00,1.3480
4512.00,1.3318
4511.00,1.3149
4510.00,1.2975
4509.00,1.2795
4508.00,1.2611
4507.00,1.2421
4506.00,1.2228
4505.00,1.2030
4504.00,1.1827
4503.00,1.1620
4502.00,1.1409
4501.00,1.1196
4500.00,1.0980
4499.00,1.0764
4498.00,1.0547
4497.00,1.0331
4496.00,1.0118
4495.00,0.9908
4494.00,0.9703
4493.00,0.9504
4492.00,0.9311
4491.00,0.9126
4490.00,0.8949
4489.00,0.8781
4488.00,0.8624
4487.00,0.8478
4486.00,0.8346
4485.00,0.8227
4484.00,0.8122
4483.00,0.8033
4482.00,0.7959
4481.00,0.7901
4480.00,0.7860
4479.00,0.7835
4478.00,0.7828
4477.00,0.7838
4476.00,0.7864
4475.00,0.7906
4474.00,0.7963
4473.00,0.8036
4472.00,0.8123
4471.00,0.8225
4470.00,0.8339
4469.00,0.8465
4468.00,0.8602
4467.00,0.8749
4466.00,0.8905
4465.00,0.9068
4464.00,0.9238
4463.00,0.9413
4462.00,0.9594
4461.00,0.9779
4460.00,0.9969
4459.00,1.0161
4458.00,1.0355
4457.00,1.0551
4456.00,1.0748
4455.00,1.0946
4454.00,1.1144
4453.00,1.1340
4452.00,1.1536
4451.00,1.1730
4450.00,1.1923
4449.00,1.2114
4448.00,1.2301
4447.00,1.2485
4446.00,1.2665
4445.00,1.2842
4444.00,1.3016
4443.00,1.3189
4442.00,1.3359
4441.00,1.3524
4440.00,1.3684
4439.00,1.3840
4438.00,1.3991
4437.00,1.4138
4436.00,1.4280
4435.00,1.4415
4434.00,1.4543
4433.00,1.4667
4432.00,1.4788
4431.00,1.4905
4430.00,1.5017
4429.00,1.5122
4428.00,1.5220
4427.00,1.5312
4426.00,1.5400
4425.00,1.5484
4424.00,1.5562
4423.00,1.5635
4422.00,1.5703
4421.00,1.5765
4420.00,1.5824
4419.00,1.5879
4418.00,1.5931
4417.00,1.5978
4416.00,1.6017
4415.00,1.6049
4414.00,1.6073
4413.00,1.6091
4412.00,1.6105
4411.00,1.6115
4410.00,1.6124
4409.00,1.6129
4408.00,1.6130
4407.00,1.6126
4406.00,1.6117
4405.00,1.6101
4404.00,1.6080
4403.00,1.6054
4402.00,1.6023
4401.00,1.5987
4400.00,1.5947
4399.00,1.5901
4398.00,1.5849
4397.00,1.5793
4396.00,1.5733
4395.00,1.5672
4394.00,1.5609
4393.00,1.5542
4392.00,1.5467
4391.00,1.5385
4390.00,1.5297
4389.00,1.5204
4388.00,1.5107
4387.00,1.5004
4386.00,1.4897
4385.00,1.4784
4384.00,1.4666
4383.00,1.4543
4382.00,1.4416
4381.00,1.4283
4380.00,1.4147
4379.00,1.4006
4378.00,1.3861
4377.00,1.3712
4376.00,1.3557
4375.00,1.3398
4374.00,1.3234
4373.00,1.3065
4372.00,1.2894
4371.00,1.2720
4370.00,1.2543
4369.00,1.2362
4368.00,1.2178
4367.00,1.1991
4366.00,1.1801
4365.00,1.1608
4364.00,1.1414
4363.00,1.1218
4362.00,1.1022
4361.00,1.0828
4360.00,1.0636
4359.00,1.0447
4358.00,1.0262
4357.00,1.0082
4356.00,0.9906
4355.00,0.9737
4354.00,0.9575
4353.00,0.9422
4352.00,0.9279
4351.00,0.9147
4350.00,0.9027
4349.00,0.8919
4348.00,0.8825
4347.00,0.8745
4346.00,0.8677
4345.00,0.8624
4344.00,0.8585
4343.00,0.8560
4342.00,0.8550
4341.00,0.8556
4340.00,0.8576
4339.00,0.8612
4338.00,0.8664
4337.00,0.8730
4336.00,0.8810
4335.00,0.8903
4334.00,0.9011
4333.00,0.9131
4332.00,0.9263
4331.00,0.9405
4330.00,0.9558
4329.00,0.9720
4328.00,0.9890
4327.00,1.0066
4326.00,1.0248
4325.00,1.0434
4324.00,1.0625
4323.00,1.0819
4322.00,1.1016
4321.00,1.1213
4320.00,1.1411
4319.00,1.1608
4318.00,1.1805
4317.00,1.2001
4316.00,1.2196
4315.00,1.2390
4314.00,1.2582
4313.00,1.2771
4312.00,1.2956
4311.00,1.3137
4310.00,1.3314
4309.00,1.3490
4308.00,1.3663
4307.00,1.3833
4306.00,1.3998
4305.00,1.4156
4304.00,1.4308
4303.00,1.4455
4302.00,1.4599
4301.00,1.4740
4300.00,1.4879
4299.00,1.5013
4298.00,1.5143
4297.00,1.5266
4296.00,1.5384
4295.00,1.5495
4294.00,1.5601
4293.00,1.5701
4292.00,1.5796
4291.00,1.5888
4290.00,1.5976
4289.00,1.6060
4288.00,1.6136
4287.00,1.6205
4286.00,1.6266
4285.00,1.6321
4284.00,1.6374
4283.00,1.6425
4282.00,1.6472
4281.00,1.6515
4280.00,1.6551
4279.00,1.6582
4278.00,1.6609
4277.00,1.6630
4276.00,1.6645
4275.00,1.6654
4274.00,1.6657
4273.00,1.6655
4272.00,1.6650
4271.00,1.6644
4270.00,1.6636
4269.00,1.6623
4268.00,1.6602
4267.00,1.6574
4266.00,1.6539
4265.00,1.6502
4264.00,1.6464
4263.00,1.6423
4262.00,1.6376
4261.00,1.6321
4260.00,1.6259
4259.00,1.6192
4258.00,1.6122
4257.00,1.6048
4256.00,1.5970
4255.00,1.5887
4254.00,1.5801
4253.00,1.5709
4252.00,1.5611
4251.00,1.5505
4250.00,1.5391
4249.00,1.5270
4248.00,1.5143
4247.00,1.5010
4246.00,1.4870
4245.00,1.4722
4244.00,1.4568
4243.00,1.4408
4242.00,1.4243
4241.00,1.4071
4240.00,1.3894
4239.00,1.3711
4238.00,1.3523
4237.00,1.3331
4236.00,1.3133
4235.00,1.2930
4234.00,1.2721
4233.00,1.2505
4232.00,1.2285
4231.00,1.2061
4230.00,1.1837
4229.00,1.1613
4228.00,1.1390
4227.00,1.1170
4226.00,1.0951
4225.00,1.0737
4224.00,1.0527
4223.00,1.0321
4222.00,1.0122
4221.00,0.9929
4220.00,0.9746
4219.00,0.9572
4218.00,0.9409
4217.00,0.9258
4216.00,0.9118
4215.00,0.8992
4214.00,0.8879
4213.00,0.8781
4212.00,0.8699
4211.00,0.8633
4210.00,0.8584
4209.00,0.8552
4208.00,0.8538
4207.00,0.8542
4206.00,0.8563
4205.00,0.8602
4204.00,0.8658
4203.00,0.8730
4202.00,0.8818
4201.00,0.8922
4200.00,0.9040
4199.00,0.9171
4198.00,0.9314
4197.00,0.9468
4196.00,0.9631
4195.00,0.9804
4194.00,0.9984
4193.00,1.0172
4192.00,1.0364
4191.00,1.0562
4190.00,1.0762
4189.00,1.0966
4188.00,1.1171
4187.00,1.1377
4186.00,1.1583
4185.00,1.1790
4184.00,1.1995
4183.00,1.2197
4182.00,1.2398
4181.00,1.2597
4180.00,1.2794
4179.00,1.2991
4178.00,1.3185
4177.00,1.3377
4176.00,1.3566
4175.00,1.3751
4174.00,1.3934
4173.00,1.4112
4172.00,1.4286
4171.00,1.4454
4170.00,1.4618
4169.00,1.4776
4168.00,1.4928
4167.00,1.5072
4166.00,1.5211
4165.00,1.5345
4164.00,1.5478
4163.00,1.5608
4162.00,1.5735
4161.00,1.5855
4160.00,1.5968
4159.00,1.6073
4158.00,1.6172
4157.00,1.6265
4156.00,1.6353
4155.00,1.6436
4154.00,1.6515
4153.00,1.6590
4152.00,1.6660
4151.00,1.6726
4150.00,1.6785
4149.00,1.6838
4148.00,1.6884
4147.00,1.6925
4146.00,1.6960
4145.00,1.6989
4144.00,1.7014
4143.00,1.7035
4142.00,1.7053
4141.00,1.7067
4140.00,1.7077
4139.00,1.7084
4138.00,1.7087
4137.00,1.7084
4136.00,1.7075
4135.00,1.7058
4134.00,1.7036
4133.00,1.7009
4132.00,1.6979
4131.00,1.6947
4130.00,1.6912
4129.00,1.6872
4128.00,1.6827
4127.00,1.6773
4126.00,1.6712
4125.00,1.6644
4124.00,1.6573
4123.00,1.6499
4122.00,1.6423
4121.00,1.6341
4120.00,1.6253
4119.00,1.6158
4118.00,1.6057
4117.00,1.5948
4116.00,1.5832
4115.00,1.5710
4114.00,1.5583
4113.00,1.5452
4112.00,1.5315
4111.00,1.5172
4110.00,1.5021
4109.00,1.4862
4108.00,1.4696
4107.00,1.4525
4106.00,1.4346
4105.00,1.4160
4104.00,1.3969
4103.00,1.3773
4102.00,1.3572
4101.00,1.3366
4100.00,1.3153
4099.00,1.2934
4098.00,1.2709
4097.00,1.2480
4096.00,1.2248
4095.00,1.2014
4094.00,1.1780
4093.00,1.1545
4092.00,1.1312
4091.00,1.1079
4090.00,1.0849
4089.00,1.0623
4088.00,1.0402
4087.00,1.0188
4086.00,0.9981
4085.00,0.9783
4084.00,0.9596
4083.00,0.9421
4082.00,0.9258
4081.00,0.9110
4080.00,0.8977
4079.00,0.8859
4078.00,0.8759
4077.00,0.8677
4076.00,0.8613
4075.00,0.8569
4074.00,0.8544
4073.00,0.8538
4072.00,0.8552
4071.00,0.8586
4070.00,0.8638
4069.00,0.8709
4068.00,0.8799
4067.00,0.8906
4066.00,0.9028
4065.00,0.9166
4064.00,0.9317
4063.00,0.9481
4062.00,0.9656
4061.00,0.9841
4060.00,1.0036
4059.00,1.0238
4058.00,1.0446
4057.00,1.0659
4056.00,1.0874
4055.00,1.1093
4054.00,1.1314
4053.00,1.1536
4052.00,1.1758
4051.00,1.1980
4050.00,1.2202
4049.00,1.2423
4048.00,1.2643
4047.00,1.2860
4046.00,1.3072
4045.00,1.3280
4044.00,1.3486
4043.00,1.3689
4042.00,1.3890
4041.00,1.4086
4040.00,1.4278
4039.00,1.4464
4038.00,1.4644
4037.00,1.4819
4036.00,1.4989
4035.00,1.5155
4034.00,1.5317
4033.00,1.5472
4032.00,1.5622
4031.00,1.5767
4030.00,1.5906
4029.00,1.6040
4028.00,1.6171
4027.00,1.6298
4026.00,1.6418
4025.00,1.6531
4024.00,1.6638
4023.00,1.6738
4022.00,1.6834
4021.00,1.6923
4020.00,1.7007
4019.00,1.7084
4018.00,1.7154
4017.00,1.7219
4016.00,1.7277
4015.00,1.7330
4014.00,1.7377
4013.00,1.7421
4012.00,1.7463
4011.00,1.7501
4010.00,1.7535
4009.00,1.7564
4008.00,1.7587
4007.00,1.7602
4006.00,1.7609
4005.00,1.7611
4004.00,1.7609
4003.00,1.7606
4002.00,1.7600
4001.00,1.7589
4000.00,1.7571
3999.00,1.7547
3998.00,1.7517
3997.00,1.7483
3996.00,1.7443
3995.00,1.7399
3994.00,1.7352
3993.00,1.7302
3992.00,1.7249
3991.00,1.7189
3990.00,1.7122
3989.00,1.7051
3988.00,1.6976
3987.00,1.6896
3986.00,1.6811
3985.00,1.6717
3984.00,1.6615
3983.00,1.6506
3982.00,1.6392
3981.00,1.6273
3980.00,1.6147
3979.00,1.6015
3978.00,1.5875
3977.00,1.5728
3976.00,1.5575
3975.00,1.5416
3974.00,1.5251
3973.00,1.5079
3972.00,1.4901
3971.00,1.4714
3970.00,1.4520
3969.00,1.4319
3968.00,1.4110
3967.00,1.3894
3966.00,1.3673
3965.00,1.3446
3964.00,1.3214
3963.00,1.2978
3962.00,1.2737
3961.00,1.2493
3960.00,1.2248
3959.00,1.2002
3958.00,1.1757
3957.00,1.1513
3956.00,1.1273
3955.00,1.1037
3954.00,1.0806
3953.00,1.0583
3952.00,1.0367
3951.00,1.0159
3950.00,0.9961
3949.00,0.9771
3948.00,0.9592
3947.00,0.9428
3946.00,0.9280
3945.00,0.9149
3944.00,0.9036
3943.00,0.8939
3942.00,0.8861
3941.00,0.8803
3940.00,0.8767
3939.00,0.8753
3938.00,0.8761
3937.00,0.8791
3936.00,0.8840
3935.00,0.8910
3934.00,0.8997
3933.00,0.9103
3932.00,0.9225
3931.00,0.9363
3930.00,0.9514
3929.00,0.9678
3928.00,0.9854
3927.00,1.0040
3926.00,1.0236
3925.00,1.0441
3924.00,1.0654
3923.00,1.0873
3922.00,1.1094
3921.00,1.1317
3920.00,1.1541
3919.00,1.1770
3918.00,1.2004
3917.00,1.2242
3916.00,1.2482
3915.00,1.2721
3914.00,1.2956
3913.00,1.3184
3912.00,1.3409
3911.00,1.3632
3910.00,1.3852
3909.00,1.4068
3908.00,1.4276
3907.00,1.4474
3906.00,1.4665
3905.00,1.4851
3904.00,1.5036
3903.00,1.5222
3902.00,1.5409
3901.00,1.5593
3900.00,1.5773
3899.00,1.5950
3898.00,1.6120
3897.00,1.6282
3896.00,1.6432
3895.00,1.6570
3894.00,1.6698
3893.00,1.6818
3892.00,1.6933
3891.00,1.7044
3890.00,1.7152
3889.00,1.7253
3888.00,1.7345
3887.00,1.7429
3886.00,1.7508
3885.00,1.7585
3884.00,1.7659
3883.00,1.7725
3882.00,1.7783
3881.00,1.7834
3880.00,1.7883
3879.00,1.7933
3878.00,1.7979
3877.00,1.8015
3876.00,1.8038
3875.00,1.8053
3874.00,1.8068
3873.00,1.8081
3872.00,1.8089
3871.00,1.8085
3870.00,1.8075
3869.00,1.8062
3868.00,1.8048
3867.00,1.8027
3866.00,1.7996
3865.00,1.7959
3864.00,1.7922
3863.00,1.7886
3862.00,1.7845
3861.00,1.7794
3860.00,1.7735
3859.00,1.7674
3858.00,1.7612
3857.00,1.7548
3856.00,1.7478
3855.00,1.7393
3854.00,1.7292
3853.00,1.7181
3852.00,1.7072
3851.00,1.6970
3850.00,1.6865
3849.00,1.6751
3848.00,1.6631
3847.00,1.6508
3846.00,1.6382
3845.00,1.6247
3844.00,1.6102
3843.00,1.5947
3842.00,1.5786
3841.00,1.5620
3840.00,1.5447
3839.00,1.5263
3838.00,1.5068
3837.00,1.4865
3836.00,1.4657
3835.00,1.4443
3834.00,1.4218
3833.00,1.3980
3832.00,1.3732
3831.00,1.3479
3830.00,1.3224
3829.00,1.2966
3828.00,1.2700
3827.00,1.2425
3826.00,1.2148
3825.00,1.1877
3824.00,1.1611
3823.00,1.1343
3822.00,1.1060
3821.00,1.0769
3820.00,1.0490
3819.00,1.0237
3818.00,1.0004
3817.00,0.9777
3816.00,0.9553
3815.00,0.9344
3814.00,0.9163
3813.00,0.9010
3812.00,0.8880
3811.00,0.8771
3810.00,0.8690
3809.00,0.8637
3808.00,0.8610
3807.00,0.8604
3806.00,0.8618
3805.00,0.8653
3804.00,0.8712
3803.00,0.8796
3802.00,0.8910
3801.00,0.9055
3800.00,0.9221
3799.00,0.9395
3798.00,0.9573
3797.00,0.9763
3796.00,0.9974
3795.00,1.0203
3794.00,1.0442
3793.00,1.0684
3792.00,1.0928
3791.00,1.1176
3790.00,1.1428
3789.00,1.1683
3788.00,1.1939
3787.00,1.2195
3786.00,1.2450
3785.00,1.2706
3784.00,1.2961
3783.00,1.3212
3782.00,1.3457
3781.00,1.3696
3780.00,1.3936
3779.00,1.4179
3778.00,1.4423
3777.00,1.4660
3776.00,1.4887
3775.00,1.5102
3774.00,1.5307
3773.00,1.5505
3772.00,1.5697
3771.00,1.5884
3770.00,1.6072
3769.00,1.6261
3768.00,1.6447
3767.00,1.6623
3766.00,1.6788
3765.00,1.6944
3764.00,1.7094
3763.00,1.7234
3762.00,1.7362
3761.00,1.7481
3760.00,1.7597
3759.00,1.7712
3758.00,1.7824
3757.00,1.7928
3756.00,1.8021
3755.00,1.8104
3754.00,1.8179
3753.00,1.8249
3752.00,1.8320
3751.00,1.8394
3750.00,1.8472
3749.00,1.8547
3748.00,1.8610
3747.00,1.8654
3746.00,1.8682
3745.00,1.8705
3744.00,1.8736
3743.00,1.8778
3742.00,1.8824
3741.00,1.8858
3740.00,1.8877
3739.00,1.8888
3738.00,1.8900
3737.00,1.8915
3736.00,1.8930
3735.00,1.8944
3734.00,1.8958
3733.00,1.8968
3732.00,1.8971
3731.00,1.8968
3730.00,1.8959
3729.00,1.8940
3728.00,1.8906
3727.00,1.8855
3726.00,1.8787
3725.00,1.8708
3724.00,1.8618
3723.00,1.8512
3722.00,1.8391
3721.00,1.8258
3720.00,1.8115
3719.00,1.7962
3718.00,1.7802
3717.00,1.7641
3716.00,1.7482
3715.00,1.7325
3714.00,1.7164
3713.00,1.6991
3712.00,1.6803
3711.00,1.6593
3710.00,1.6341
3709.00,1.6036
3708.00,1.5707
3707.00,1.5420
3706.00,1.5222
3705.00,1.5103
3704.00,1.4996
3703.00,1.4840
3702.00,1.4622
3701.00,1.4367
3700.00,1.4098
3699.00,1.3823
3698.00,1.3547
3697.00,1.3270
3696.00,1.2996
3695.00,1.2729
3694.00,1.2471
3693.00,1.2220
3692.00,1.1979
3691.00,1.1748
3690.00,1.1527
3689.00,1.1315
3688.00,1.1113
3687.00,1.0934
3686.00,1.0782
3685.00,1.0655
3684.00,1.0548
3683.00,1.0463
3682.00,1.0403
3681.00,1.0367
3680.00,1.0354
3679.00,1.0362
3678.00,1.0394
3677.00,1.0450
3676.00,1.0533
3675.00,1.0640
3674.00,1.0764
3673.00,1.0899
3672.00,1.1047
3671.00,1.1217
3670.00,1.1418
3669.00,1.1643
3668.00,1.1875
3667.00,1.2105
3666.00,1.2332
3665.00,1.2563
3664.00,1.2803
3663.00,1.3050
3662.00,1.3301
3661.00,1.3551
3660.00,1.3796
3659.00,1.4033
3658.00,1.4268
3657.00,1.4506
3656.00,1.4755
3655.00,1.5007
3654.00,1.5248
3653.00,1.5464
3652.00,1.5660
3651.00,1.5852
3650.00,1.6055
3649.00,1.6273
3648.00,1.6501
3647.00,1.6726
3646.00,1.6936
3645.00,1.7126
3644.00,1.7301
3643.00,1.7467
3642.00,1.7626
3641.00,1.7782
3640.00,1.7936
3639.00,1.8088
3638.00,1.8236
3637.00,1.8379
3636.00,1.8516
3635.00,1.8648
3634.00,1.8777
3633.00,1.8901
3632.00,1.9019
3631.00,1.9127
3630.00,1.9226
3629.00,1.9325
3628.00,1.9431
3627.00,1.9540
3626.00,1.9639
3625.00,1.9721
3624.00,1.9791
3623.00,1.9854
3622.00,1.9914
3621.00,1.9970
3620.00,2.0017
3619.00,2.0059
3618.00,2.0087
3617.00,2.0120
3616.00,2.0129
3615.00,2.0173
3614.00,2.0101
3613.00,2.0019
3612.00,2.0063
3611.00,2.0069
3610.00,2.0097
3609.00,2.0109
3608.00,2.0122
3607.00,2.0128
3606.00,2.0131
3605.00,2.0131
3604.00,2.0130
3603.00,2.0128
3602.00,2.0117
3601.00,2.0101
3600.00,2.0063
3599.00,2.0042
3598.00,1.9978
3597.00,2.0023
3596.00,2.0086
3595.00,2.0027
3594.00,2.0005
3593.00,1.9959
3592.00,1.9921
3591.00,1.9874
3590.00,1.9825
3589.00,1.9769
3588.00,1.9706
3587.00,1.9635
3586.00,1.9555
3585.00,1.9470
3584.00,1.9384
3583.00,1.9299
3582.00,1.9211
3581.00,1.9117
3580.00,1.9017
3579.00,1.8911
3578.00,1.8801
3577.00,1.8683
3576.00,1.8561
3575.00,1.8434
3574.00,1.8306
3573.00,1.8179
3572.00,1.8058
3571.00,1.7940
3570.00,1.7822
3569.00,1.7697
3568.00,1.7563
3567.00,1.7421
3566.00,1.7278
3565.00,1.7139
3564.00,1.7010
3563.00,1.6888
3562.00,1.6769
3561.00,1.6652
3560.00,1.6539
3559.00,1.6430
3558.00,1.6327
3557.00,1.6228
3556.00,1.6132
3555.00,1.6039
3554.00,1.5948
3553.00,1.5863
3552.00,1.5784
3551.00,1.5714
3550.00,1.5653
3549.00,1.5601
3548.00,1.5557
3547.00,1.5521
3546.00,1.5492
3545.00,1.5471
3544.00,1.5460
3543.00,1.5460
3542.00,1.5471
3541.00,1.5492
3540.00,1.5520
3539.00,1.5556
3538.00,1.5599
3537.00,1.5647
3536.00,1.5702
3535.00,1.5765
3534.00,1.5837
3533.00,1.5916
3532.00,1.6003
3531.00,1.6094
3530.00,1.6187
3529.00,1.6281
3528.00,1.6379
3527.00,1.6480
3526.00,1.6586
3525.00,1.6694
3524.00,1.6805
3523.00,1.6919
3522.00,1.7036
3521.00,1.7155
3520.00,1.7275
3519.00,1.7394
3518.00,1.7510
3517.00,1.7624
3516.00,1.7739
3515.00,1.7855
3514.00,1.7974
3513.00,1.8093
3512.00,1.8211
3511.00,1.8325
3510.00,1.8436
3509.00,1.8545
3508.00,1.8654
3507.00,1.8764
3506.00,1.8874
3505.00,1.8980
3504.00,1.9085
3503.00,1.9188
3502.00,1.9290
3501.00,1.9391
3500.00,1.9489
3499.00,1.9585
3498.00,1.9676
3497.00,1.9765
3496.00,1.9853
3495.00,1.9941
3494.00,2.0027
3493.00,2.0109
3492.00,2.0189
3491.00,2.0269
3490.00,2.0350
3489.00,2.0432
3488.00,2.0510
3487.00,2.0579
3486.00,2.0639
3485.00,2.0694
3484.00,2.0748
3483.00,2.0799
3482.00,2.0847
3481.00,2.0891
3480.00,2.0935
3479.00,2.0977
3478.00,2.1014
3477.00,2.1047
3476.00,2.1081
3475.00,2.1115
3474.00,2.1146
3473.00,2.1169
3472.00,2.1187
3471.00,2.1201
3470.00,2.1213
3469.00,2.1220
3468.00,2.1221
3467.00,2.1217
3466.00,2.1210
3465.00,2.1204
3464.00,2.1198
3463.00,2.1188
3462.00,2.1170
3461.00,2.1145
3460.00,2.1117
3459.00,2.1087
3458.00,2.1052
3457.00,2.1012
3456.00,2.0968
3455.00,2.0921
3454.00,2.0872
3453.00,2.0822
3452.00,2.0772
3451.00,2.0720
3450.00,2.0665
3449.00,2.0601
3448.00,2.0530
3447.00,2.0451
3446.00,2.0367
3445.00,2.0280
3444.00,2.0193
3443.00,2.0108
3442.00,2.0021
3441.00,1.9928
3440.00,1.9825
3439.00,1.9714
3438.00,1.9598
3437.00,1.9482
3436.00,1.9365
3435.00,1.9245
3434.00,1.9120
3433.00,1.8990
3432.00,1.8860
3431.00,1.8731
3430.00,1.8603
3429.00,1.8474
3428.00,1.8342
3427.00,1.8209
3426.00,1.8075
3425.00,1.7941
3424.00,1.7809
3423.00,1.7679
3422.00,1.7554
3421.00,1.7436
3420.00,1.7326
3419.00,1.7223
3418.00,1.7126
3417.00,1.7034
3416.00,1.6949
3415.00,1.6870
3414.00,1.6799
3413.00,1.6735
3412.00,1.6675
3411.00,1.6620
3410.00,1.6569
3409.00,1.6520
3408.00,1.6472
3407.00,1.6424
3406.00,1.6373
3405.00,1.6320
3404.00,1.6265
3403.00,1.6208
3402.00,1.6147
3401.00,1.6084
3400.00,1.6020
3399.00,1.5958
3398.00,1.5900
3397.00,1.5849
3396.00,1.5805
3395.00,1.5769
3394.00,1.5743
3393.00,1.5726
3392.00,1.5721
3391.00,1.5728
3390.00,1.5749
3389.00,1.5783
3388.00,1.5831
3387.00,1.5891
3386.00,1.5962
3385.00,1.6042
3384.00,1.6132
3383.00,1.6230
3382.00,1.6336
3381.00,1.6451
3380.00,1.6574
3379.00,1.6705
3378.00,1.6844
3377.00,1.6988
3376.00,1.7135
3375.00,1.7282
3374.00,1.7431
3373.00,1.7580
3372.00,1.7732
3371.00,1.7885
3370.00,1.8039
3369.00,1.8192
3368.00,1.8343
3367.00,1.8492
3366.00,1.8639
3365.00,1.8786
3364.00,1.8932
3363.00,1.9076
3362.00,1.9216
3361.00,1.9350
3360.00,1.9480
3359.00,1.9605
3358.00,1.9728
3357.00,1.9848
3356.00,1.9963
3355.00,2.0073
3354.00,2.0174
3353.00,2.0271
3352.00,2.0365
3351.00,2.0458
3350.00,2.0548
3349.00,2.0635
3348.00,2.0715
3347.00,2.0787
3346.00,2.0847
3345.00,2.0897
3344.00,2.0945
3343.00,2.0996
3342.00,2.1049
3341.00,2.1099
3340.00,2.1143
3339.00,2.1181
3338.00,2.1214
3337.00,2.1243
3336.00,2.1266
3335.00,2.1282
3334.00,2.1292
3333.00,2.1303
3332.00,2.1316
3331.00,2.1330
3330.00,2.1338
3329.00,2.1334
3328.00,2.1319
3327.00,2.1294
3326.00,2.1262
3325.00,2.1227
3324.00,2.1193
3323.00,2.1159
3322.00,2.1124
3321.00,2.1085
3320.00,2.1042
3319.00,2.0992
3318.00,2.0936
3317.00,2.0873
3316.00,2.0807
3315.00,2.0738
3314.00,2.0664
3313.00,2.0583
3312.00,2.0494
3311.00,2.0397
3310.00,2.0299
3309.00,2.0201
3308.00,2.0104
3307.00,2.0001
3306.00,1.9889
3305.00,1.9769
3304.00,1.9643
3303.00,1.9513
3302.00,1.9377
3301.00,1.9234
3300.00,1.9085
3299.00,1.8934
3298.00,1.8781
3297.00,1.8624
3296.00,1.8461
3295.00,1.8292
3294.00,1.8116
3293.00,1.7938
3292.00,1.7758
3291.00,1.7576
3290.00,1.7393
3289.00,1.7208
3288.00,1.7026
3287.00,1.6845
3286.00,1.6665
3285.00,1.6486
3284.00,1.6310
3283.00,1.6137
3282.00,1.5970
3281.00,1.5809
3280.00,1.5656
3279.00,1.5509
3278.00,1.5371
3277.00,1.5244
3276.00,1.5131
3275.00,1.5031
3274.00,1.4945
3273.00,1.4871
3272.00,1.4811
3271.00,1.4765
3270.00,1.4733
3269.00,1.4718
3268.00,1.4720
3267.00,1.4739
3266.00,1.4773
3265.00,1.4821
3264.00,1.4882
3263.00,1.4955
3262.00,1.5040
3261.00,1.5137
3260.00,1.5246
3259.00,1.5367
3258.00,1.5499
3257.00,1.5639
3256.00,1.5786
3255.00,1.5940
3254.00,1.6099
3253.00,1.6262
3252.00,1.6430
3251.00,1.6602
3250.00,1.6775
3249.00,1.6950
3248.00,1.7126
3247.00,1.7305
3246.00,1.7486
3245.00,1.7669
3244.00,1.7852
3243.00,1.8031
3242.00,1.8206
3241.00,1.8376
3240.00,1.8543
3239.00,1.8710
3238.00,1.8875
3237.00,1.9040
3236.00,1.9203
3235.00,1.9362
3234.00,1.9514
3233.00,1.9658
3232.00,1.9797
3231.00,1.9931
3230.00,2.0063
3229.00,2.0192
3228.00,2.0320
3227.00,2.0446
3226.00,2.0566
3225.00,2.0676
3224.00,2.0776
3223.00,2.0867
3222.00,2.0956
3221.00,2.1045
3220.00,2.1135
3219.00,2.1224
3218.00,2.1308
3217.00,2.1385
3216.00,2.1455
3215.00,2.1515
3214.00,2.1568
3213.00,2.1618
3212.00,2.1669
3211.00,2.1722
3210.00,2.1772
3209.00,2.1816
3208.00,2.1850
3207.00,2.1875
3206.00,2.1894
3205.00,2.1910
3204.00,2.1922
3203.00,2.1931
3202.00,2.1935
3201.00,2.1937
3200.00,2.1937
3199.00,2.1935
3198.00,2.1932
3197.00,2.1932
3196.00,2.1930
3195.00,2.1919
3194.00,2.1891
3193.00,2.1853
3192.00,2.1815
3191.00,2.1781
3190.00,2.1748
3189.00,2.1714
3188.00,2.1676
3187.00,2.1634
3186.00,2.1585
3185.00,2.1527
3184.00,2.1461
3183.00,2.1387
3182.00,2.1310
3181.00,2.1230
3180.00,2.1145
3179.00,2.1053
3178.00,2.0954
3177.00,2.0851
3176.00,2.0749
3175.00,2.0645
3174.00,2.0537
3173.00,2.0420
3172.00,2.0294
3171.00,2.0162
3170.00,2.0027
3169.00,1.9892
3168.00,1.9753
3167.00,1.9606
3166.00,1.9448
3165.00,1.9284
3164.00,1.9117
3163.00,1.8951
3162.00,1.8784
3161.00,1.8613
3160.00,1.8440
3159.00,1.8264
3158.00,1.8084
3157.00,1.7902
3156.00,1.7718
3155.00,1.7534
3154.00,1.7349
3153.00,1.7167
3152.00,1.6989
3151.00,1.6817
3150.00,1.6651
3149.00,1.6492
3148.00,1.6341
3147.00,1.6197
3146.00,1.6063
3145.00,1.5941
3144.00,1.5830
3143.00,1.5732
3142.00,1.5648
3141.00,1.5578
3140.00,1.5523
3139.00,1.5484
3138.00,1.5461
3137.00,1.5456
3136.00,1.5471
3135.00,1.5504
3134.00,1.5554
3133.00,1.5618
3132.00,1.5696
3131.00,1.5788
3130.00,1.5892
3129.00,1.6009
3128.00,1.6137
3127.00,1.6275
3126.00,1.6425
3125.00,1.6584
3124.00,1.6751
3123.00,1.6922
3122.00,1.7097
3121.00,1.7279
3120.00,1.7466
3119.00,1.7657
3118.00,1.7848
3117.00,1.8038
3116.00,1.8228
3115.00,1.8419
3114.00,1.8611
3113.00,1.8801
3112.00,1.8990
3111.00,1.9178
3110.00,1.9366
3109.00,1.9550
3108.00,1.9726
3107.00,1.9893
3106.00,2.0055
3105.00,2.0214
3104.00,2.0368
3103.00,2.0517
3102.00,2.0662
3101.00,2.0807
3100.00,2.0954
3099.00,2.1097
3098.00,2.1230
3097.00,2.1349
3096.00,2.1457
3095.00,2.1558
3094.00,2.1657
3093.00,2.1756
3092.00,2.1856
3091.00,2.1951
3090.00,2.2037
3089.00,2.2113
3088.00,2.2185
3087.00,2.2257
3086.00,2.2331
3085.00,2.2401
3084.00,2.2464
3083.00,2.2514
3082.00,2.2555
3081.00,2.2588
3080.00,2.2613
3079.00,2.2631
3078.00,2.2647
3077.00,2.2666
3076.00,2.2686
3075.00,2.2701
3074.00,2.2707
3073.00,2.2702
3072.00,2.2689
3071.00,2.2667
3070.00,2.2635
3069.00,2.2599
3068.00,2.2561
3067.00,2.2523
3066.00,2.2480
3065.00,2.2428
3064.00,2.2370
3063.00,2.2311
3062.00,2.2250
3061.00,2.2183
3060.00,2.2105
3059.00,2.2020
3058.00,2.1930
3057.00,2.1837
3056.00,2.1737
3055.00,2.1626
3054.00,2.1502
3053.00,2.1367
3052.00,2.1227
3051.00,2.1083
3050.00,2.0934
3049.00,2.0776
3048.00,2.0607
3047.00,2.0425
3046.00,2.0234
3045.00,2.0036
3044.00,1.9837
3043.00,1.9639
3042.00,1.9439
3041.00,1.9234
3040.00,1.9022
3039.00,1.8804
3038.00,1.8584
3037.00,1.8366
3036.00,1.8150
3035.00,1.7937
3034.00,1.7729
3033.00,1.7532
3032.00,1.7349
3031.00,1.7183
3030.00,1.7035
3029.00,1.6906
3028.00,1.6799
3027.00,1.6716
3026.00,1.6657
3025.00,1.6624
3024.00,1.6617
3023.00,1.6636
3022.00,1.6683
3021.00,1.6758
3020.00,1.6861
3019.00,1.6989
3018.00,1.7141
3017.00,1.7316
3016.00,1.7512
3015.00,1.7727
3014.00,1.7962
3013.00,1.8213
3012.00,1.8478
3011.00,1.8750
3010.00,1.9028
3009.00,1.9310
3008.00,1.9594
3007.00,1.9878
3006.00,2.0158
3005.00,2.0437
3004.00,2.0717
3003.00,2.0998
3002.00,2.1276
3001.00,2.1547
3000.00,2.1810
2999.00,2.2064
2998.00,2.2309
2997.00,2.2544
2996.00,2.2770
2995.00,2.2989
2994.00,2.3199
2993.00,2.3394
2992.00,2.3568
2991.00,2.3716
2990.00,2.3843
2989.00,2.3961
2988.00,2.4078
2987.00,2.4196
2986.00,2.4314
2985.00,2.4433
2984.00,2.4556
2983.00,2.4682
2982.00,2.4812
2981.00,2.4947
2980.00,2.5100
2979.00,2.5280
2978.00,2.5495
2977.00,2.5748
2976.00,2.6053
2975.00,2.6428
2974.00,2.6882
2973.00,2.7407
2972.00,2.7984
2971.00,2.8615
2970.00,2.9322
2969.00,3.0121
2968.00,3.0980
2967.00,3.1833
2966.00,3.2642
2965.00,3.3445
2964.00,3.4322
2963.00,3.5316
2962.00,3.6408
2961.00,3.7542
2960.00,3.8641
2959.00,3.9600
2958.00,4.0326
2957.00,4.0846
2956.00,4.1340
2955.00,4.1975
2954.00,4.2573
2953.00,4.2643
2952.00,4.2205
2951.00,4.1744
2950.00,4.1684
2949.00,4.2033
2948.00,4.2490
2947.00,4.2745
2946.00,4.2829
2945.00,4.3066
2944.00,4.3556
2943.00,4.4066
2942.00,4.4455
2941.00,4.4871
2940.00,4.5244
2939.00,4.5018
2938.00,4.4105
2937.00,4.3222
2936.00,4.2925
2935.00,4.3245
2934.00,4.4146
2933.00,4.5955
2932.00,4.9064
2931.00,5.0799
2930.00,4.8780
2929.00,4.6217
2928.00,4.5311
2927.00,4.4869
2926.00,4.4022
2925.00,4.2576
2924.00,4.1398
2923.00,4.0927
2922.00,4.0802
2921.00,4.0416
2920.00,3.9622
2919.00,3.8625
2918.00,3.7521
2917.00,3.6332
2916.00,3.5208
2915.00,3.4291
2914.00,3.3607
2913.00,3.3082
2912.00,3.2617
2911.00,3.2165
2910.00,3.1742
2909.00,3.1391
2908.00,3.1123
2907.00,3.0912
2906.00,3.0719
2905.00,3.0510
2904.00,3.0274
2903.00,3.0023
2902.00,2.9775
2901.00,2.9545
2900.00,2.9334
2899.00,2.9148
2898.00,2.8997
2897.00,2.8897
2896.00,2.8843
2895.00,2.8815
2894.00,2.8780
2893.00,2.8718
2892.00,2.8630
2891.00,2.8540
2890.00,2.8477
2889.00,2.8451
2888.00,2.8449
2887.00,2.8450
2886.00,2.8455
2885.00,2.8483
2884.00,2.8551
2883.00,2.8660
2882.00,2.8799
2881.00,2.8965
2880.00,2.9158
2879.00,2.9379
2878.00,2.9625
2877.00,2.9895
2876.00,3.0204
2875.00,3.0589
2874.00,3.1086
2873.00,3.1697
2872.00,3.2360
2871.00,3.2989
2870.00,3.3572
2869.00,3.4219
2868.00,3.5071
2867.00,3.6160
2866.00,3.7328
2865.00,3.8252
2864.00,3.8685
2863.00,3.8710
2862.00,3.8540
2861.00,3.8192
2860.00,3.7545
2859.00,3.6662
2858.00,3.5755
2857.00,3.4924
2856.00,3.4100
2855.00,3.3192
2854.00,3.2195
2853.00,3.1174
2852.00,3.0204
2851.00,2.9339
2850.00,2.8610
2849.00,2.8011
2848.00,2.7514
2847.00,2.7091
2846.00,2.6725
2845.00,2.6408
2844.00,2.6126
2843.00,2.5869
2842.00,2.5630
2841.00,2.5406
2840.00,2.5196
2839.00,2.4998
2838.00,2.4811
2837.00,2.4627
2836.00,2.4433
2835.00,2.4224
2834.00,2.4008
2833.00,2.3801
2832.00,2.3604
2831.00,2.3407
2830.00,2.3197
2829.00,2.2975
2828.00,2.2744
2827.00,2.2505
2826.00,2.2253
2825.00,2.1985
2824.00,2.1696
2823.00,2.1387
2822.00,2.1058
2821.00,2.0710
2820.00,2.0348
2819.00,1.9974
2818.00,1.9590
2817.00,1.9200
2816.00,1.8807
2815.00,1.8417
2814.00,1.8038
2813.00,1.7679
2812.00,1.7348
2811.00,1.7053
2810.00,1.6797
2809.00,1.6584
2808.00,1.6416
2807.00,1.6295
2806.00,1.6226
2805.00,1.6211
2804.00,1.6250
2803.00,1.6340
2802.00,1.6474
2801.00,1.6645
2800.00,1.6844
2799.00,1.7062
2798.00,1.7290
2797.00,1.7519
2796.00,1.7748
2795.00,1.7974
2794.00,1.8200
2793.00,1.8429
2792.00,1.8665
2791.00,1.8908
2790.00,1.9157
2789.00,1.9411
2788.00,1.9671
2787.00,1.9931
2786.00,2.0190
2785.00,2.0446
2784.00,2.0701
2783.00,2.0951
2782.00,2.1194
2781.00,2.1426
2780.00,2.1650
2779.00,2.1864
2778.00,2.2066
2777.00,2.2257
2776.00,2.2439
2775.00,2.2606
2774.00,2.2754
2773.00,2.2887
2772.00,2.3012
2771.00,2.3135
2770.00,2.3254
2769.00,2.3365
2768.00,2.3471
2767.00,2.3569
2766.00,2.3657
2765.00,2.3734
2764.00,2.3806
2763.00,2.3879
2762.00,2.3949
2761.00,2.4011
2760.00,2.4060
2759.00,2.4096
2758.00,2.4121
2757.00,2.4139
2756.00,2.4153
2755.00,2.4160
2754.00,2.4160
2753.00,2.4157
2752.00,2.4157
2751.00,2.4159
2750.00,2.4153
2749.00,2.4133
2748.00,2.4105
2747.00,2.4073
2746.00,2.4036
2745.00,2.3987
2744.00,2.3920
2743.00,2.3838
2742.00,2.3749
2741.00,2.3663
2740.00,2.3578
2739.00,2.3490
2738.00,2.3394
2737.00,2.3290
2736.00,2.3181
2735.00,2.3066
2734.00,2.2942
2733.00,2.2806
2732.00,2.2662
2731.00,2.2510
2730.00,2.2350
2729.00,2.2178
2728.00,2.1993
2727.00,2.1797
2726.00,2.1592
2725.00,2.1378
2724.00,2.1157
2723.00,2.0925
2722.00,2.0681
2721.00,2.0422
2720.00,2.0149
2719.00,1.9861
2718.00,1.9563
2717.00,1.9256
2716.00,1.8939
2715.00,1.8609
2714.00,1.8265
2713.00,1.7909
2712.00,1.7546
2711.00,1.7179
2710.00,1.6810
2709.00,1.6444
2708.00,1.6083
2707.00,1.5732
2706.00,1.5397
2705.00,1.5080
2704.00,1.4788
2703.00,1.4526
2702.00,1.4300
2701.00,1.4112
2700.00,1.3967
2699.00,1.3865
2698.00,1.3808
2697.00,1.3798
2696.00,1.3835
2695.00,1.3917
2694.00,1.4040
2693.00,1.4204
2692.00,1.4406
2691.00,1.4643
2690.00,1.4911
2689.00,1.5207
2688.00,1.5526
2687.00,1.5865
2686.00,1.6219
2685.00,1.6583
2684.00,1.6953
2683.00,1.7324
2682.00,1.7690
2681.00,1.8048
2680.00,1.8394
2679.00,1.8724
2678.00,1.9036
2677.00,1.9328
2676.00,1.9601
2675.00,1.9856
2674.00,2.0095
2673.00,2.0323
2672.00,2.0540
2671.00,2.0746
2670.00,2.0940
2669.00,2.1122
2668.00,2.1293
2667.00,2.1457
2666.00,2.1618
2665.00,2.1780
2664.00,2.1945
2663.00,2.2113
2662.00,2.2281
2661.00,2.2449
2660.00,2.2617
2659.00,2.2787
2658.00,2.2956
2657.00,2.3121
2656.00,2.3276
2655.00,2.3421
2654.00,2.3557
2653.00,2.3684
2652.00,2.3799
2651.00,2.3904
2650.00,2.4006
2649.00,2.4106
2648.00,2.4202
2647.00,2.4288
2646.00,2.4365
2645.00,2.4439
2644.00,2.4511
2643.00,2.4577
2642.00,2.4634
2641.00,2.4686
2640.00,2.4736
2639.00,2.4780
2638.00,2.4817
2637.00,2.4845
2636.00,2.4867
2635.00,2.4887
2634.00,2.4909
2633.00,2.4935
2632.00,2.4960
2631.00,2.4977
2630.00,2.4987
2629.00,2.4995
2628.00,2.5001
2627.00,2.4994
2626.00,2.4969
2625.00,2.4929
2624.00,2.4885
2623.00,2.4841
2622.00,2.4797
2621.00,2.4754
2620.00,2.4712
2619.00,2.4668
2618.00,2.4617
2617.00,2.4557
2616.00,2.4493
2615.00,2.4425
2614.00,2.4348
2613.00,2.4262
2612.00,2.4169
2611.00,2.4074
2610.00,2.3979
2609.00,2.3881
2608.00,2.3774
2607.00,2.3654
2606.00,2.3518
2605.00,2.3372
2604.00,2.3219
2603.00,2.3059
2602.00,2.2893
2601.00,2.2719
2600.00,2.2537
2599.00,2.2345
2598.00,2.2141
2597.00,2.1924
2596.00,2.1693
2595.00,2.1449
2594.00,2.1195
2593.00,2.0931
2592.00,2.0656
2591.00,2.0367
2590.00,2.0067
2589.00,1.9759
2588.00,1.9444
2587.00,1.9120
2586.00,1.8786
2585.00,1.8439
2584.00,1.8082
2583.00,1.7715
2582.00,1.7342
2581.00,1.6967
2580.00,1.6597
2579.00,1.6233
2578.00,1.5880
2577.00,1.5542
2576.00,1.5223
2575.00,1.4929
2574.00,1.4663
2573.00,1.4428
2572.00,1.4226
2571.00,1.4062
2570.00,1.3937
2569.00,1.3852
2568.00,1.3810
2567.00,1.3809
2566.00,1.3848
2565.00,1.3928
2564.00,1.4048
2563.00,1.4205
2562.00,1.4396
2561.00,1.4619
2560.00,1.4872
2559.00,1.5150
2558.00,1.5450
2557.00,1.5768
2556.00,1.6101
2555.00,1.6444
2554.00,1.6795
2553.00,1.7150
2552.00,1.7507
2551.00,1.7864
2550.00,1.8219
2549.00,1.8571
2548.00,1.8920
2547.00,1.9264
2546.00,1.9601
2545.00,1.9931
2544.00,2.0252
2543.00,2.0561
2542.00,2.0855
2541.00,2.1137
2540.00,2.1409
2539.00,2.1674
2538.00,2.1927
2537.00,2.2167
2536.00,2.2392
2535.00,2.2601
2534.00,2.2799
2533.00,2.2991
2532.00,2.3183
2531.00,2.3373
2530.00,2.3554
2529.00,2.3723
2528.00,2.3883
2527.00,2.4035
2526.00,2.4179
2525.00,2.4311
2524.00,2.4428
2523.00,2.4537
2522.00,2.4644
2521.00,2.4759
2520.00,2.4877
2519.00,2.4988
2518.00,2.5084
2517.00,2.5163
2516.00,2.5229
2515.00,2.5279
2514.00,2.5318
2513.00,2.5359
2512.00,2.5416
2511.00,2.5486
2510.00,2.5556
2509.00,2.5613
2508.00,2.5657
2507.00,2.5693
2506.00,2.5719
2505.00,2.5736
2504.00,2.5749
2503.00,2.5762
2502.00,2.5774
2501.00,2.5778
2500.00,2.5776
2499.00,2.5767
2498.00,2.5754
2497.00,2.5738
2496.00,2.5724
2495.00,2.5714
2494.00,2.5703
2493.00,2.5678
2492.00,2.5630
2491.00,2.5568
2490.00,2.5508
2489.00,2.5458
2488.00,2.5413
2487.00,2.5359
2486.00,2.5287
2485.00,2.5198
2484.00,2.5098
2483.00,2.4992
2482.00,2.4881
2481.00,2.4768
2480.00,2.4651
2479.00,2.4528
2478.00,2.4399
2477.00,2.4267
2476.00,2.4129
2475.00,2.3984
2474.00,2.3831
2473.00,2.3673
2472.00,2.3510
2471.00,2.3338
2470.00,2.3154
2469.00,2.2957
2468.00,2.2748
2467.00,2.2526
2466.00,2.2295
2465.00,2.2059
2464.00,2.1816
2463.00,2.1561
2462.00,2.1284
2461.00,2.0986
2460.00,2.0671
2459.00,2.0341
2458.00,1.9996
2457.00,1.9636
2456.00,1.9260
2455.00,1.8869
2454.00,1.8464
2453.00,1.8048
2452.00,1.7623
2451.00,1.7189
2450.00,1.6749
2449.00,1.6310
2448.00,1.5876
2447.00,1.5455
2446.00,1.5050
2445.00,1.4668
2444.00,1.4317
2443.00,1.4003
2442.00,1.3734
2441.00,1.3514
2440.00,1.3349
2439.00,1.3242
2438.00,1.3195
2437.00,1.3209
2436.00,1.3285
2435.00,1.3421
2434.00,1.3612
2433.00,1.3853
2432.00,1.4135
2431.00,1.4453
2430.00,1.4800
2429.00,1.5167
2428.00,1.5550
2427.00,1.5939
2426.00,1.6332
2425.00,1.6727
2424.00,1.7123
2423.00,1.7519
2422.00,1.7913
2421.00,1.8301
2420.00,1.8685
2419.00,1.9063
2418.00,1.9432
2417.00,1.9791
2416.00,2.0142
2415.00,2.0488
2414.00,2.0829
2413.00,2.1160
2412.00,2.1478
2411.00,2.1779
2410.00,2.2065
2409.00,2.2339
2408.00,2.2605
2407.00,2.2862
2406.00,2.3106
2405.00,2.3337
2404.00,2.3558
2403.00,2.3773
2402.00,2.3979
2401.00,2.4172
2400.00,2.4353
2399.00,2.4524
2398.00,2.4689
2397.00,2.4849
2396.00,2.5002
2395.00,2.5140
2394.00,2.5258
2393.00,2.5363
2392.00,2.5469
2391.00,2.5587
2390.00,2.5708
2389.00,2.5830
2388.00,2.5937
2387.00,2.6055
2386.00,2.6139
2385.00,2.6177
2384.00,2.6261
2383.00,2.6329
2382.00,2.6391
2381.00,2.6431
2380.00,2.6463
2379.00,2.6501
2378.00,2.6545
2377.00,2.6586
2376.00,2.6622
2375.00,2.6659
2374.00,2.6699
2373.00,2.6728
2372.00,2.6739
2371.00,2.6744
2370.00,2.6753
2369.00,2.6768
2368.00,2.6775
2367.00,2.6764
2366.00,2.6729
2365.00,2.6675
2364.00,2.6616
2363.00,2.6564
2362.00,2.6519
2361.00,2.6469
2360.00,2.6404
2359.00,2.6331
2358.00,2.6260
2357.00,2.6196
2356.00,2.6140
2355.00,2.6085
2354.00,2.6023
2353.00,2.5947
2352.00,2.5857
2351.00,2.5760
2350.00,2.5663
2349.00,2.5564
2348.00,2.5455
2347.00,2.5332
2346.00,2.5192
2345.00,2.5035
2344.00,2.4865
2343.00,2.4687
2342.00,2.4504
2341.00,2.4319
2340.00,2.4136
2339.00,2.3960
2338.00,2.3794
2337.00,2.3630
2336.00,2.3430
2335.00,2.3247
2334.00,2.2942
2333.00,2.2785
2332.00,2.2332
2331.00,2.2376
2330.00,2.1293
2329.00,2.0217
2328.00,2.0786
2327.00,2.1092
2326.00,2.1403
2325.00,2.1326
2324.00,2.1007
2323.00,2.0495
2322.00,2.0056
2321.00,1.9769
2320.00,1.9799
2319.00,1.9859
2318.00,1.9872
2317.00,1.9688
2316.00,1.9367
2315.00,1.8962
2314.00,1.8469
2313.00,1.8018
2312.00,1.7691
2311.00,1.7669
2310.00,1.7906
2309.00,1.8316
2308.00,1.8724
2307.00,1.9027
2306.00,1.9227
2305.00,1.9339
2304.00,1.9429
2303.00,1.9486
2302.00,1.9538
2301.00,1.9568
2300.00,1.9618
2299.00,1.9701
2298.00,1.9830
2297.00,2.0001
2296.00,2.0178
2295.00,2.0354
2294.00,2.0514
2293.00,2.0679
2292.00,2.0844
2291.00,2.1016
2290.00,2.1196
2289.00,2.1382
2288.00,2.1581
2287.00,2.1784
2286.00,2.2000
2285.00,2.2218
2284.00,2.2446
2283.00,2.2673
2282.00,2.2896
2281.00,2.3105
2280.00,2.3306
2279.00,2.3510
2278.00,2.3737
2277.00,2.3984
2276.00,2.4227
2275.00,2.4441
2274.00,2.4619
2273.00,2.4777
2272.00,2.4933
2271.00,2.5103
2270.00,2.5283
2269.00,2.5462
2268.00,2.5628
2267.00,2.5782
2266.00,2.5934
2265.00,2.6096
2264.00,2.6265
2263.00,2.6429
2262.00,2.6574
2261.00,2.6696
2260.00,2.6798
2259.00,2.6890
2258.00,2.6978
2257.00,2.7062
2256.00,2.7145
2255.00,2.7224
2254.00,2.7299
2253.00,2.7367
2252.00,2.7425
2251.00,2.7477
2250.00,2.7530
2249.00,2.7586
2248.00,2.7630
2247.00,2.7654
2246.00,2.7663
2245.00,2.7674
2244.00,2.7697
2243.00,2.7724
2242.00,2.7732
2241.00,2.7706
2240.00,2.7653
2239.00,2.7602
2238.00,2.7586
2237.00,2.7610
2236.00,2.7645
2235.00,2.7650
2234.00,2.7609
2233.00,2.7542
2232.00,2.7479
2231.00,2.7435
2230.00,2.7406
2229.00,2.7373
2228.00,2.7324
2227.00,2.7256
2226.00,2.7182
2225.00,2.7115
2224.00,2.7052
2223.00,2.6978
2222.00,2.6880
2221.00,2.6768
2220.00,2.6655
2219.00,2.6551
2218.00,2.6453
2217.00,2.6352
2216.00,2.6236
2215.00,2.6099
2214.00,2.5944
2213.00,2.5778
2212.00,2.5604
2211.00,2.5423
2210.00,2.5238
2209.00,2.5053
2208.00,2.4869
2207.00,2.4675
2206.00,2.4464
2205.00,2.4238
2204.00,2.4001
2203.00,2.3753
2202.00,2.3492
2201.00,2.3216
2200.00,2.2927
2199.00,2.2620
2198.00,2.2293
2197.00,2.1947
2196.00,2.1582
2195.00,2.1198
2194.00,2.0790
2193.00,2.0362
2192.00,1.9918
2191.00,1.9463
2190.00,1.8999
2189.00,1.8529
2188.00,1.8058
2187.00,1.7592
2186.00,1.7140
2185.00,1.6710
2184.00,1.6311
2183.00,1.5949
2182.00,1.5632
2181.00,1.5368
2180.00,1.5161
2179.00,1.5011
2178.00,1.4917
2177.00,1.4874
2176.00,1.4874
2175.00,1.4914
2174.00,1.4992
2173.00,1.5110
2172.00,1.5272
2171.00,1.5478
2170.00,1.5727
2169.00,1.6015
2168.00,1.6339
2167.00,1.6694
2166.00,1.7076
2165.00,1.7482
2164.00,1.7904
2163.00,1.8337
2162.00,1.8774
2161.00,1.9210
2160.00,1.9645
2159.00,2.0075
2158.00,2.0503
2157.00,2.0928
2156.00,2.1346
2155.00,2.1749
2154.00,2.2133
2153.00,2.2497
2152.00,2.2850
2151.00,2.3193
2150.00,2.3527
2149.00,2.3846
2148.00,2.4147
2147.00,2.4427
2146.00,2.4687
2145.00,2.4934
2144.00,2.5168
2143.00,2.5391
2142.00,2.5602
2141.00,2.5804
2140.00,2.5997
2139.00,2.6178
2138.00,2.6347
2137.00,2.6508
2136.00,2.6671
2135.00,2.6837
2134.00,2.6992
2133.00,2.7121
2132.00,2.7226
2131.00,2.7326
2130.00,2.7439
2129.00,2.7570
2128.00,2.7707
2127.00,2.7836
2126.00,2.7951
2125.00,2.8054
2124.00,2.8145
2123.00,2.8218
2122.00,2.8276
2121.00,2.8325
2120.00,2.8364
2119.00,2.8387
2118.00,2.8397
2117.00,2.8412
2116.00,2.8444
2115.00,2.8481
2114.00,2.8508
2113.00,2.8525
2112.00,2.8548
2111.00,2.8579
2110.00,2.8596
2109.00,2.8578
2108.00,2.8531
2107.00,2.8484
2106.00,2.8461
2105.00,2.8460
2104.00,2.8460
2103.00,2.8448
2102.00,2.8425
2101.00,2.8399
2100.00,2.8368
2099.00,2.8322
2098.00,2.8261
2097.00,2.8198
2096.00,2.8143
2095.00,2.8097
2094.00,2.8048
2093.00,2.7978
2092.00,2.7879
2091.00,2.7760
2090.00,2.7640
2089.00,2.7533
2088.00,2.7437
2087.00,2.7345
2086.00,2.7249
2085.00,2.7143
2084.00,2.7022
2083.00,2.6878
2082.00,2.6717
2081.00,2.6545
2080.00,2.6364
2079.00,2.6169
2078.00,2.5961
2077.00,2.5744
2076.00,2.5524
2075.00,2.5298
2074.00,2.5058
2073.00,2.4800
2072.00,2.4527
2071.00,2.4246
2070.00,2.3969
2069.00,2.3693
2068.00,2.3407
2067.00,2.3098
2066.00,2.2769
2065.00,2.2435
2064.00,2.2097
2063.00,2.1745
2062.00,2.1368
2061.00,2.0962
2060.00,2.0532
2059.00,2.0078
2058.00,1.9600
2057.00,1.9098
2056.00,1.8580
2055.00,1.8052
2054.00,1.7524
2053.00,1.7010
2052.00,1.6524
2051.00,1.6079
2050.00,1.5687
2049.00,1.5362
2048.00,1.5115
2047.00,1.4952
2046.00,1.4877
2045.00,1.4890
2044.00,1.4990
2043.00,1.5172
2042.00,1.5428
2041.00,1.5750
2040.00,1.6130
2039.00,1.6554
2038.00,1.7011
2037.00,1.7491
2036.00,1.7985
2035.00,1.8485
2034.00,1.8982
2033.00,1.9475
2032.00,1.9963
2031.00,2.0445
2030.00,2.0920
2029.00,2.1387
2028.00,2.1842
2027.00,2.2283
2026.00,2.2706
2025.00,2.3111
2024.00,2.3495
2023.00,2.3857
2022.00,2.4197
2021.00,2.4516
2020.00,2.4817
2019.00,2.5099
2018.00,2.5366
2017.00,2.5621
2016.00,2.5866
2015.00,2.6101
2014.00,2.6327
2013.00,2.6548
2012.00,2.6765
2011.00,2.6975
2010.00,2.7174
2009.00,2.7362
2008.00,2.7542
2007.00,2.7708
2006.00,2.7852
2005.00,2.7978
2004.00,2.8100
2003.00,2.8229
2002.00,2.8367
2001.00,2.8510
2000.00,2.8653
1999.00,2.8785
1998.00,2.8891
1997.00,2.8967
1996.00,2.9022
1995.00,2.9063
1994.00,2.9092
1993.00,2.9117
1992.00,2.9149
1991.00,2.9202
1990.00,2.9276
1989.00,2.9357
1988.00,2.9428
1987.00,2.9474
1986.00,2.9497
1985.00,2.9513
1984.00,2.9536
1983.00,2.9567
1982.00,2.9605
1981.00,2.9640
1980.00,2.9661
1979.00,2.9652
1978.00,2.9615
1977.00,2.9568
1976.00,2.9529
1975.00,2.9497
1974.00,2.9461
1973.00,2.9416
1972.00,2.9363
1971.00,2.9308
1970.00,2.9256
1969.00,2.9209
1968.00,2.9159
1967.00,2.9094
1966.00,2.9017
1965.00,2.8950
1964.00,2.8903
1963.00,2.8859
1962.00,2.8790
1961.00,2.8679
1960.00,2.8535
1959.00,2.8377
1958.00,2.8221
1957.00,2.8078
1956.00,2.7941
1955.00,2.7796
1954.00,2.7633
1953.00,2.7454
1952.00,2.7266
1951.00,2.7074
1950.00,2.6882
1949.00,2.6682
1948.00,2.6464
1947.00,2.6220
1946.00,2.5954
1945.00,2.5670
1944.00,2.5372
1943.00,2.5063
1942.00,2.4746
1941.00,2.4425
1940.00,2.4094
1939.00,2.3742
1938.00,2.3365
1937.00,2.2961
1936.00,2.2519
1935.00,2.2033
1934.00,2.1512
1933.00,2.0969
1932.00,2.0411
1931.00,1.9840
1930.00,1.9261
1929.00,1.8682
1928.00,1.8117
1927.00,1.7579
1926.00,1.7078
1925.00,1.6623
1924.00,1.6229
1923.00,1.5920
1922.00,1.5713
1921.00,1.5608
1920.00,1.5600
1919.00,1.5701
1918.00,1.5924
1917.00,1.6249
1916.00,1.6632
1915.00,1.7047
1914.00,1.7502
1913.00,1.8002
1912.00,1.8526
1911.00,1.9050
1910.00,1.9570
1909.00,2.0093
1908.00,2.0618
1907.00,2.1137
1906.00,2.1647
1905.00,2.2152
1904.00,2.2649
1903.00,2.3136
1902.00,2.3606
1901.00,2.4051
1900.00,2.4465
1899.00,2.4848
1898.00,2.5205
1897.00,2.5541
1896.00,2.5859
1895.00,2.6168
1894.00,2.6470
1893.00,2.6756
1892.00,2.7015
1891.00,2.7260
1890.00,2.7507
1889.00,2.7753
1888.00,2.7977
1887.00,2.8175
1886.00,2.8363
1885.00,2.8557
1884.00,2.8745
1883.00,2.8913
1882.00,2.9065
1881.00,2.9219
1880.00,2.9372
1879.00,2.9504
1878.00,2.9605
1877.00,2.9702
1876.00,2.9826
1875.00,2.9973
1874.00,3.0099
1873.00,3.0148
1872.00,3.0116
1871.00,3.0062
1870.00,3.0057
1869.00,3.0124
1868.00,3.0231
1867.00,3.0330
1866.00,3.0399
1865.00,3.0445
1864.00,3.0474
1863.00,3.0482
1862.00,3.0468
1861.00,3.0447
1860.00,3.0445
1859.00,3.0473
1858.00,3.0506
1857.00,3.0507
1856.00,3.0464
1855.00,3.0396
1854.00,3.0347
1853.00,3.0339
1852.00,3.0354
1851.00,3.0338
1850.00,3.0250
1849.00,3.0112
1848.00,2.9967
1847.00,2.9821
1846.00,2.9658
1845.00,2.9478
1844.00,2.9315
1843.00,2.9196
1842.00,2.9103
1841.00,2.9012
1840.00,2.8909
1839.00,2.8773
1838.00,2.8580
1837.00,2.8332
1836.00,2.8070
1835.00,2.7832
1834.00,2.7606
1833.00,2.7345
1832.00,2.7029
1831.00,2.6668
1830.00,2.6293
1829.00,2.5918
1828.00,2.5523
1827.00,2.5091
1826.00,2.4638
1825.00,2.4194
1824.00,2.3759
1823.00,2.3307
1822.00,2.2829
1821.00,2.2345
1820.00,2.1877
1819.00,2.1434
1818.00,2.1034
1817.00,2.0706
1816.00,2.0475
1815.00,2.0348
1814.00,2.0315
1813.00,2.0370
1812.00,2.0509
1811.00,2.0727
1810.00,2.1008
1809.00,2.1323
1808.00,2.1644
1807.00,2.1956
1806.00,2.2247
1805.00,2.2510
1804.00,2.2740
1803.00,2.2946
1802.00,2.3156
1801.00,2.3414
1800.00,2.3743
1799.00,2.4134
1798.00,2.4564
1797.00,2.5008
1796.00,2.5436
1795.00,2.5832
1794.00,2.6213
1793.00,2.6634
1792.00,2.7109
1791.00,2.7588
1790.00,2.8014
1789.00,2.8383
1788.00,2.8737
1787.00,2.9099
1786.00,2.9459
1785.00,2.9786
1784.00,3.0052
1783.00,3.0257
1782.00,3.0440
1781.00,3.0657
1780.00,3.0900
1779.00,3.1091
1778.00,3.1197
1777.00,3.1258
1776.00,3.1329
1775.00,3.1415
1774.00,3.1520
1773.00,3.1677
1772.00,3.1873
1771.00,3.2010
1770.00,3.2038
1769.00,3.2034
1768.00,3.2105
1767.00,3.2244
1766.00,3.2331
1765.00,3.2284
1764.00,3.2135
1763.00,3.1967
1762.00,3.1823
1761.00,3.1698
1760.00,3.1562
1759.00,3.1393
1758.00,3.1193
1757.00,3.1002
1756.00,3.0879
1755.00,3.0838
1754.00,3.0874
1753.00,3.1008
1752.00,3.1261
1751.00,3.1603
1750.00,3.1966
1749.00,3.2309
1748.00,3.2681
1747.00,3.3165
1746.00,3.3807
1745.00,3.4613
1744.00,3.5536
1743.00,3.6487
1742.00,3.7420
1741.00,3.8409
1740.00,3.9600
1739.00,4.0906
1738.00,4.1747
1737.00,4.1970
1736.00,4.2326
1735.00,4.2979
1734.00,4.3535
1733.00,4.4614
1732.00,4.7268
1731.00,5.0986
1730.00,4.9822
1729.00,4.7191
1728.00,4.6282
1727.00,4.6886
1726.00,4.8199
1725.00,4.7511
1724.00,4.5873
1723.00,4.5312
1722.00,4.6589
1721.00,4.9037
1720.00,4.6247
1719.00,4.4405
1718.00,4.4788
1717.00,4.4787
1716.00,4.3435
1715.00,4.2850
1714.00,4.3669
1713.00,4.6846
1712.00,5.3115
1711.00,5.0937
1710.00,5.4472
1709.00,5.1586
1708.00,4.8438
1707.00,4.7784
1706.00,4.6456
1705.00,4.5465
1704.00,4.5803
1703.00,4.7616
1702.00,4.8638
1701.00,4.7281
1700.00,4.5976
1699.00,4.6089
1698.00,4.8390
1697.00,4.7709
1696.00,4.5308
1695.00,4.4556
1694.00,4.3328
1693.00,4.1835
1692.00,4.0856
1691.00,4.0259
1690.00,3.9727
1689.00,3.9120
1688.00,3.8483
1687.00,3.7780
1686.00,3.6955
1685.00,3.6087
1684.00,3.5362
1683.00,3.4841
1682.00,3.4428
1681.00,3.4093
1680.00,3.3867
1679.00,3.3689
1678.00,3.3401
1677.00,3.2938
1676.00,3.2374
1675.00,3.1809
1674.00,3.1239
1673.00,3.0625
1672.00,3.0005
1671.00,2.9488
1670.00,2.9138
1669.00,2.8943
1668.00,2.8868
1667.00,2.8876
1666.00,2.8947
1665.00,2.9083
1664.00,2.9294
1663.00,2.9584
1662.00,2.9914
1661.00,3.0254
1660.00,3.0610
1659.00,3.0986
1658.00,3.1329
1657.00,3.1531
1656.00,3.1541
1655.00,3.1454
1654.00,3.1460
1653.00,3.1680
1652.00,3.2054
1651.00,3.2360
1650.00,3.2472
1649.00,3.2512
1648.00,3.2591
1647.00,3.2672
1646.00,3.2712
1645.00,3.2734
1644.00,3.2764
1643.00,3.2795
1642.00,3.2821
1641.00,3.2873
1640.00,3.2960
1639.00,3.3032
1638.00,3.3025
1637.00,3.2914
1636.00,3.2756
1635.00,3.2650
1634.00,3.2646
1633.00,3.2648
1632.00,3.2563
1631.00,3.2400
1630.00,3.2184
1629.00,3.1940
1628.00,3.1695
1627.00,3.1471
1626.00,3.1255
1625.00,3.1037
1624.00,3.0825
1623.00,3.0626
1622.00,3.0421
1621.00,3.0175
1620.00,2.9876
1619.00,2.9535
1618.00,2.9173
1617.00,2.8804
1616.00,2.8445
1615.00,2.8085
1614.00,2.7685
1613.00,2.7244
1612.00,2.6790
1611.00,2.6333
1610.00,2.5848
1609.00,2.5311
1608.00,2.4732
1607.00,2.4138
1606.00,2.3546
1605.00,2.2970
1604.00,2.2421
1603.00,2.1910
1602.00,2.1467
1601.00,2.1118
1600.00,2.0877
1599.00,2.0752
1598.00,2.0737
1597.00,2.0822
1596.00,2.0997
1595.00,2.1259
1594.00,2.1605
1593.00,2.2020
1592.00,2.2477
1591.00,2.2955
1590.00,2.3438
1589.00,2.3923
1588.00,2.4408
1587.00,2.4889
1586.00,2.5367
1585.00,2.5840
1584.00,2.6307
1583.00,2.6755
1582.00,2.7192
1581.00,2.7626
1580.00,2.8025
1579.00,2.8344
1578.00,2.8599
1577.00,2.8867
1576.00,2.9206
1575.00,2.9583
1574.00,2.9888
1573.00,3.0076
1572.00,3.0204
1571.00,3.0342
1570.00,3.0510
1569.00,3.0697
1568.00,3.0903
1567.00,3.1125
1566.00,3.1366
1565.00,3.1623
1564.00,3.1870
1563.00,3.2049
1562.00,3.2132
1561.00,3.2149
1560.00,3.2155
1559.00,3.2177
1558.00,3.2207
1557.00,3.2217
1556.00,3.2163
1555.00,3.2129
1554.00,3.2235
1553.00,3.2445
1552.00,3.2609
1551.00,3.2678
1550.00,3.2745
1549.00,3.2871
1548.00,3.3016
1547.00,3.3100
1546.00,3.3104
1545.00,3.3062
1544.00,3.3000
1543.00,3.2910
1542.00,3.2781
1541.00,3.2591
1540.00,3.2388
1539.00,3.2296
1538.00,3.2346
1537.00,3.2384
1536.00,3.2325
1535.00,3.2218
1534.00,3.2114
1533.00,3.2032
1532.00,3.1958
1531.00,3.1882
1530.00,3.1793
1529.00,3.1661
1528.00,3.1468
1527.00,3.1238
1526.00,3.1007
1525.00,3.0790
1524.00,3.0572
1523.00,3.0362
1522.00,3.0198
1521.00,3.0072
1520.00,2.9914
1519.00,2.9662
1518.00,2.9342
1517.00,2.9020
1516.00,2.8718
1515.00,2.8427
1514.00,2.8130
1513.00,2.7820
1512.00,2.7471
1511.00,2.7050
1510.00,2.6534
1509.00,2.5938
1508.00,2.5287
1507.00,2.4624
1506.00,2.4070
1505.00,2.3727
1504.00,2.3460
1503.00,2.3124
1502.00,2.2740
1501.00,2.2356
1500.00,2.1986
1499.00,2.1634
1498.00,2.1337
1497.00,2.1156
1496.00,2.1134
1495.00,2.1257
1494.00,2.1453
1493.00,2.1691
1492.00,2.1996
1491.00,2.2393
1490.00,2.2865
1489.00,2.3392
1488.00,2.3994
1487.00,2.4694
1486.00,2.5454
1485.00,2.6213
1484.00,2.6938
1483.00,2.7610
1482.00,2.8244
1481.00,2.8850
1480.00,2.9418
1479.00,2.9926
1478.00,3.0359
1477.00,3.0713
1476.00,3.0972
1475.00,3.1151
1474.00,3.1325
1473.00,3.1618
1472.00,3.2079
1471.00,3.2639
1470.00,3.3196
1469.00,3.3720
1468.00,3.4201
1467.00,3.4556
1466.00,3.4700
1465.00,3.4730
1464.00,3.4845
1463.00,3.5080
1462.00,3.5301
1461.00,3.5372
1460.00,3.5306
1459.00,3.5223
1458.00,3.5265
1457.00,3.5557
1456.00,3.6186
1455.00,3.7042
1454.00,3.7873
1453.00,3.8621
1452.00,3.9419
1451.00,4.0460
1450.00,4.1683
1449.00,4.2335
1448.00,4.2168
1447.00,4.1075
1446.00,3.9492
1445.00,3.8174
1444.00,3.7127
1443.00,3.6275
1442.00,3.5682
1441.00,3.5433
1440.00,3.5512
1439.00,3.5800
1438.00,3.6150
1437.00,3.6467
1436.00,3.6790
1435.00,3.7189
1434.00,3.7663
1433.00,3.8172
1432.00,3.8668
1431.00,3.9062
1430.00,3.9298
1429.00,3.9405
1428.00,3.9354
1427.00,3.9086
1426.00,3.8735
1425.00,3.8573
1424.00,3.8734
1423.00,3.9073
1422.00,3.9240
1421.00,3.8997
1420.00,3.8389
1419.00,3.7673
1418.00,3.7077
1417.00,3.6676
1416.00,3.6512
1415.00,3.6538
1414.00,3.6564
1413.00,3.6425
1412.00,3.6160
1411.00,3.5922
1410.00,3.5784
1409.00,3.5692
1408.00,3.5579
1407.00,3.5446
1406.00,3.5358
1405.00,3.5383
1404.00,3.5485
1403.00,3.5575
1402.00,3.5601
1401.00,3.5493
1400.00,3.5204
1399.00,3.4815
1398.00,3.4473
1397.00,3.4280
1396.00,3.4254
1395.00,3.4353
1394.00,3.4497
1393.00,3.4610
1392.00,3.4630
1391.00,3.4530
1390.00,3.4336
1389.00,3.4126
1388.00,3.3962
1387.00,3.3832
1386.00,3.3691
1385.00,3.3540
1384.00,3.3410
1383.00,3.3278
1382.00,3.3077
1381.00,3.2778
1380.00,3.2446
1379.00,3.2159
1378.00,3.1905
1377.00,3.1605
1376.00,3.1217
1375.00,3.0770
1374.00,3.0319
1373.00,2.9904
1372.00,2.9543
1371.00,2.9241
1370.00,2.8976
1369.00,2.8713
1368.00,2.8419
1367.00,2.8100
1366.00,2.7797
1365.00,2.7545
1364.00,2.7362
1363.00,2.7273
1362.00,2.7312
1361.00,2.7513
1360.00,2.7868
1359.00,2.8340
1358.00,2.8894
1357.00,2.9516
1356.00,3.0207
1355.00,3.0968
1354.00,3.1796
1353.00,3.2706
1352.00,3.3736
1351.00,3.4890
1350.00,3.6019
1349.00,3.6817
1348.00,3.7107
1347.00,3.7066
1346.00,3.6932
1345.00,3.6764
1344.00,3.6561
1343.00,3.6407
1342.00,3.6416
1341.00,3.6621
1340.00,3.6917
1339.00,3.7026
1338.00,3.6638
1337.00,3.5758
1336.00,3.4701
1335.00,3.3769
1334.00,3.3121
1333.00,3.2785
1332.00,3.2711
1331.00,3.2826
1330.00,3.3072
1329.00,3.3406
1328.00,3.3791
1327.00,3.4191
1326.00,3.4569
1325.00,3.4905
1324.00,3.5222
1323.00,3.5601
1322.00,3.6136
1321.00,3.6870
1320.00,3.7794
1319.00,3.8893
1318.00,4.0064
1317.00,4.1130
1316.00,4.2020
1315.00,4.2679
1314.00,4.3101
1313.00,4.3397
1312.00,4.3353
1311.00,4.2679
1310.00,4.1730
1309.00,4.0782
1308.00,3.9708
1307.00,3.8428
1306.00,3.7176
1305.00,3.6158
1304.00,3.5374
1303.00,3.4740
1302.00,3.4268
1301.00,3.4057
1300.00,3.4155
1299.00,3.4472
1298.00,3.4838
1297.00,3.5167
1296.00,3.5498
1295.00,3.5812
1294.00,3.5967
1293.00,3.5919
1292.00,3.5825
1291.00,3.5819
1290.00,3.5897
1289.00,3.6006
1288.00,3.6127
1287.00,3.6293
1286.00,3.6549
1285.00,3.6889
1284.00,3.7256
1283.00,3.7537
1282.00,3.7605
1281.00,3.7477
1280.00,3.7284
1279.00,3.7102
1278.00,3.6889
1277.00,3.6623
1276.00,3.6457
1275.00,3.6522
1274.00,3.6724
1273.00,3.6897
1272.00,3.7081
1271.00,3.7409
1270.00,3.7796
1269.00,3.7966
1268.00,3.7866
1267.00,3.7713
1266.00,3.7568
1265.00,3.7284
1264.00,3.6860
1263.00,3.6557
1262.00,3.6566
1261.00,3.6799
1260.00,3.6941
1259.00,3.6755
1258.00,3.6348
1257.00,3.5955
1256.00,3.5710
1255.00,3.5624
1254.00,3.5587
1253.00,3.5468
1252.00,3.5263
1251.00,3.5091
1250.00,3.5028
1249.00,3.5031
1248.00,3.5031
1247.00,3.4991
1246.00,3.4874
1245.00,3.4653
1244.00,3.4403
1243.00,3.4286
1242.00,3.4391
1241.00,3.4649
1240.00,3.4903
1239.00,3.5110
1238.00,3.5359
1237.00,3.5691
1236.00,3.6054
1235.00,3.6419
1234.00,3.6855
1233.00,3.7420
1232.00,3.8056
1231.00,3.8702
1230.00,3.9420
1229.00,4.0350
1228.00,4.1588
1227.00,4.3107
1226.00,4.4527
1225.00,4.4883
1224.00,4.3918
1223.00,4.2641
1222.00,4.1965
1221.00,4.2302
1220.00,4.3760
1219.00,4.5734
1218.00,4.5700
1217.00,4.3811
1216.00,4.2302
1215.00,4.1625
1214.00,4.1325
1213.00,4.0559
1212.00,3.9159
1211.00,3.7773
1210.00,3.6841
1209.00,3.6318
1208.00,3.5904
1207.00,3.5390
1206.00,3.4863
1205.00,3.4494
1204.00,3.4294
1203.00,3.4130
1202.00,3.3898
1201.00,3.3634
1200.00,3.3438
1199.00,3.3341
1198.00,3.3269
1197.00,3.3138
1196.00,3.2979
1195.00,3.2938
1194.00,3.3127
1193.00,3.3494
1192.00,3.3823
1191.00,3.3932
1190.00,3.3896
1189.00,3.3919
1188.00,3.4125
1187.00,3.4529
1186.00,3.5088
1185.00,3.5683
1184.00,3.6116
1183.00,3.6205
1182.00,3.6045
1181.00,3.5960
1180.00,3.6085
1179.00,3.6298
1178.00,3.6462
1177.00,3.6570
1176.00,3.6669
1175.00,3.6735
1174.00,3.6779
1173.00,3.6911
1172.00,3.7114
1171.00,3.7193
1170.00,3.7042
1169.00,3.6694
1168.00,3.6352
1167.00,3.6268
1166.00,3.6494
1165.00,3.6889
1164.00,3.7226
1163.00,3.7362
1162.00,3.7299
1161.00,3.7171
1160.00,3.7174
1159.00,3.7300
1158.00,3.7335
1157.00,3.7224
1156.00,3.7241
1155.00,3.7698
1154.00,3.8598
1153.00,3.9452
1152.00,3.9518
1151.00,3.8900
1150.00,3.8417
1149.00,3.8396
1148.00,3.8603
1147.00,3.8676
1146.00,3.8522
1145.00,3.8362
1144.00,3.8555
1143.00,3.9236
1142.00,4.0081
1141.00,4.0765
1140.00,4.1085
1139.00,4.0684
1138.00,4.0033
1137.00,3.9877
1136.00,4.0657
1135.00,4.2762
1134.00,4.5876
1133.00,4.5068
1132.00,4.2429
1131.00,4.0969
1130.00,4.0544
1129.00,4.0607
1128.00,4.0592
1127.00,4.0694
1126.00,4.1696
1125.00,4.3513
1124.00,4.2899
1123.00,4.1573
1122.00,4.1793
1121.00,4.3429
1120.00,4.7135
1119.00,5.3593
1118.00,4.7112
1117.00,4.4088
1116.00,4.2017
1115.00,4.0410
1114.00,3.9427
1113.00,3.9122
1112.00,3.9293
1111.00,3.9354
1110.00,3.9047
1109.00,3.8751
1108.00,3.8795
1107.00,3.9056
1106.00,3.9158
1105.00,3.8888
1104.00,3.8383
1103.00,3.8015
1102.00,3.8099
1101.00,3.8862
1100.00,4.0447
1099.00,4.3086
1098.00,4.6658
1097.00,4.6691
1096.00,4.5185
1095.00,4.3900
1094.00,4.1935
1093.00,4.0054
1092.00,3.8849
1091.00,3.8234
1090.00,3.7747
1089.00,3.7018
1088.00,3.6135
1087.00,3.5395
1086.00,3.4948
1085.00,3.4799
1084.00,3.4945
1083.00,3.5347
1082.00,3.5779
1081.00,3.5810
1080.00,3.5324
1079.00,3.4871
1078.00,3.4872
1077.00,3.5210
1076.00,3.5429
1075.00,3.5291
1074.00,3.5076
1073.00,3.5127
1072.00,3.5537
1071.00,3.6126
1070.00,3.6532
1069.00,3.6530
1068.00,3.6343
1067.00,3.6334
1066.00,3.6637
1065.00,3.7169
1064.00,3.7600
1063.00,3.7545
1062.00,3.7144
1061.00,3.6912
1060.00,3.7150
1059.00,3.7908
1058.00,3.9178
1057.00,4.0968
1056.00,4.2919
1055.00,4.4310
1054.00,4.3979
1053.00,4.2041
1052.00,4.0743
1051.00,4.0183
1050.00,3.9705
1049.00,3.8885
1048.00,3.7910
1047.00,3.7170
1046.00,3.6843
1045.00,3.6929
1044.00,3.7378
1043.00,3.8146
1042.00,3.8913
1041.00,3.9139
1040.00,3.8973
1039.00,3.9152
1038.00,3.9988
1037.00,4.0693
1036.00,4.0026
1035.00,3.8663
1034.00,3.7521
1033.00,3.6838
1032.00,3.6653
1031.00,3.6980
1030.00,3.7888
1029.00,3.9119
1028.00,3.9718
1027.00,3.9900
1026.00,4.0450
1025.00,4.0654
1024.00,3.9738
1023.00,3.8605
1022.00,3.8180
1021.00,3.8781
1020.00,4.0320
1019.00,4.2083
1018.00,4.3089
1017.00,4.4668
1016.00,4.5995
1015.00,4.2828
1014.00,4.0956
1013.00,4.0270
1012.00,4.0304
1011.00,4.1048
1010.00,4.3017
1009.00,4.8188
1008.00,4.5639
1007.00,4.2920
1006.00,4.4642
1005.00,4.5780
1004.00,4.3211
1003.00,4.2239
1002.00,4.1195
1001.00,4.0418
1000.00,4.0398
999.00,4.0522
998.00,4.0492
997.00,4.0388
996.00,4.0494
995.00,4.0514
994.00,4.0144
993.00,3.9823
992.00,3.9909
991.00,4.0318
990.00,4.0673
989.00,4.0692
988.00,4.0562
987.00,4.0502
986.00,4.0365
985.00,4.0008
984.00,3.9765
983.00,3.9990
982.00,4.0680
981.00,4.1519
980.00,4.2143
979.00,4.2474
978.00,4.2390
977.00,4.2068
976.00,4.2455
975.00,4.3939
974.00,4.4357
973.00,4.3382
972.00,4.2920
971.00,4.2526
970.00,4.2725
969.00,4.4669
968.00,4.6582
967.00,4.4967
966.00,4.3701
965.00,4.3373
964.00,4.4930
963.00,4.4781
962.00,4.1848
961.00,4.0993
960.00,4.1343
959.00,4.1733
958.00,4.1638
957.00,4.1713
956.00,4.2381
955.00,4.3224
954.00,4.3870
953.00,4.3193
952.00,4.1683
951.00,4.0372
950.00,3.9596
949.00,3.9502
948.00,4.0068
947.00,4.1072
946.00,4.1939
945.00,4.2182
944.00,4.2299
943.00,4.3182
942.00,4.4877
941.00,4.6073
940.00,4.4709
939.00,4.1983
938.00,4.0933
937.00,4.1546
936.00,4.4708
935.00,5.0380
934.00,4.4408
933.00,4.2452
932.00,4.1941
931.00,4.1883
930.00,4.2898
929.00,4.3668
928.00,4.3125
927.00,4.3149
926.00,4.5786
925.00,4.7189
924.00,4.4629
923.00,4.5275
922.00,4.6075
921.00,4.3204
920.00,4.0926
919.00,3.9837
918.00,3.9860
917.00,4.1280
916.00,4.3359
915.00,4.3058
914.00,4.2661
913.00,4.3169
912.00,4.3197
911.00,4.3744
910.00,4.4228
909.00,4.2576
908.00,4.1413
907.00,4.1243
906.00,4.1384
905.00,4.1752
904.00,4.2662
903.00,4.5387
902.00,5.1578
901.00,5.1632
900.00,5.0533
899.00,5.3173
898.00,4.8864
897.00,4.4562
896.00,4.2446
895.00,4.1707
894.00,4.1847
893.00,4.2493
892.00,4.3477
891.00,4.4471
890.00,4.5609
889.00,4.6824
888.00,4.5247
887.00,4.3360
886.00,4.3331
885.00,4.5210
884.00,4.6463
883.00,4.5000
882.00,4.3116
881.00,4.3321
880.00,4.5167
879.00,4.2079
878.00,3.9416
877.00,3.8408
876.00,3.8189
875.00,3.8424
874.00,3.8939
873.00,4.0123
872.00,4.0958
871.00,3.9957
870.00,3.9137
869.00,3.9444
868.00,4.0644
867.00,4.1228
866.00,4.0699
865.00,4.0646
864.00,4.1034
863.00,4.1607
862.00,4.2979
861.00,4.5582
860.00,4.5887
859.00,4.3083
858.00,4.0852
857.00,3.9726
856.00,3.9712
855.00,4.0052
854.00,4.0370
853.00,4.0660
852.00,4.0447
851.00,4.0154
850.00,4.1070
849.00,4.2452
848.00,4.0498
847.00,3.8557
846.00,3.8053
845.00,3.8331
844.00,3.9241
843.00,4.0462
842.00,4.2344
841.00,4.6737
840.00,4.5804
839.00,4.2093
838.00,4.1129
837.00,4.1152
836.00,4.2022
835.00,4.5444
834.00,4.5130
833.00,4.0767
832.00,3.9672
831.00,4.0291
830.00,4.2620
829.00,4.7841
828.00,4.6971
827.00,4.5139
826.00,4.3132
825.00,4.0304
824.00,3.9015
823.00,3.9008
822.00,3.9601
821.00,4.0478
820.00,4.1273
819.00,4.0883
818.00,4.0159
817.00,4.0266
816.00,4.0633
815.00,4.0410
814.00,3.9916
813.00,3.9566
812.00,3.9439
811.00,3.9403
810.00,3.9064
809.00,3.8553
808.00,3.8336
807.00,3.8694
806.00,3.9354
805.00,3.9294
804.00,3.8807
803.00,3.8937
802.00,3.9635
801.00,4.0594
800.00,4.1559
799.00,4.3035
798.00,4.4349
797.00,4.4808
796.00,4.4851
795.00,4.1551
794.00,3.9116
793.00,3.8086
792.00,3.7737
791.00,3.7940
790.00,3.8641
789.00,3.9541
788.00,3.9745
787.00,3.9507
786.00,3.9696
785.00,4.0651
784.00,4.2266
783.00,4.4769
782.00,5.0433
781.00,4.8912
780.00,4.4573
779.00,4.3306
778.00,4.4043
777.00,4.7811
776.00,4.6656
775.00,4.4907
774.00,4.7547
773.00,4.6664
772.00,4.4108
771.00,4.4601
770.00,4.5116
769.00,4.2074
768.00,3.9718
767.00,3.8932
766.00,3.9675
765.00,4.2323
764.00,4.3431
763.00,4.2346
762.00,4.2015
761.00,4.3743
760.00,4.7954
759.00,4.2756
758.00,4.0176
757.00,3.9260
756.00,3.8733
755.00,3.9120
754.00,4.0367
753.00,4.2318
752.00,4.2416
751.00,4.0062
750.00,3.8805
749.00,3.8829
748.00,4.0799
747.00,4.6308
746.00,4.5226
745.00,4.2764
744.00,4.1424
743.00,3.9869
742.00,3.8900
741.00,3.8729
740.00,3.9607
739.00,4.1962
738.00,4.7769
737.00,4.6494
736.00,4.2516
735.00,4.1285
734.00,4.2134
733.00,4.3971
732.00,4.1805
731.00,4.0257
730.00,4.0048
729.00,4.0209
728.00,4.0722
727.00,4.1479
726.00,4.1625
725.00,4.0268
724.00,3.9075
723.00,3.8746
722.00,3.9016
721.00,3.9403
720.00,3.9402
719.00,3.8891
718.00,3.8196
717.00,3.7702
716.00,3.7596
715.00,3.7713
714.00,3.7735
713.00,3.7403
712.00,3.6867
711.00,3.6723
710.00,3.7297
709.00,3.8203
708.00,3.9038
707.00,4.0528
706.00,4.3671
705.00,4.6911
704.00,4.4714
703.00,4.1956
702.00,4.0441
701.00,4.0150
700.00,4.0907
