Created as New Dataset,Sample 109 By Administrator Date Wednesday, November 24 2021
cm-1,A
7502.00,1.0893
7501.00,1.0775
7500.00,1.0660
7499.00,1.0548
7498.00,1.0439
7497.00,1.0332
7496.00,1.0228
7495.00,1.0127
7494.00,1.0028
7493.00,0.9937
7492.00,0.9854
7491.00,0.9770
7490.00,0.9682
7489.00,0.9595
7488.00,0.9510
7487.00,0.9422
7486.00,0.9326
7485.00,0.9226
7484.00,0.9132
7483.00,0.9046
7482.00,0.8962
7481.00,0.8875
7480.00,0.8787
7479.00,0.8705
7478.00,0.8629
7477.00,0.8556
7476.00,0.8485
7475.00,0.8418
7474.00,0.8355
7473.00,0.8297
7472.00,0.8241
7471.00,0.8186
7470.00,0.8133
7469.00,0.8085
7468.00,0.8044
7467.00,0.8010
7466.00,0.7980
7465.00,0.7951
7464.00,0.7926
7463.00,0.7908
7462.00,0.7897
7461.00,0.7891
7460.00,0.7888
7459.00,0.7886
7458.00,0.7889
7457.00,0.7900
7456.00,0.7919
7455.00,0.7946
7454.00,0.7978
7453.00,0.8018
7452.00,0.8064
7451.00,0.8118
7450.00,0.8176
7449.00,0.8233
7448.00,0.8288
7447.00,0.8342
7446.00,0.8400
7445.00,0.8462
7444.00,0.8528
7443.00,0.8595
7442.00,0.8662
7441.00,0.8731
7440.00,0.8805
7439.00,0.8886
7438.00,0.8969
7437.00,0.9052
7436.00,0.9132
7435.00,0.9213
7434.00,0.9295
7433.00,0.9376
7432.00,0.9456
7431.00,0.9534
7430.00,0.9610
7429.00,0.9687
7428.00,0.9770
7427.00,0.9858
7426.00,0.9949
7425.00,1.0036
7424.00,1.0116
7423.00,1.0189
7422.00,1.0260
7421.00,1.0327
7420.00,1.0389
7419.00,1.0448
7418.00,1.0504
7417.00,1.0560
7416.00,1.0616
7415.00,1.0671
7414.00,1.0724
7413.00,1.0778
7412.00,1.0832
7411.00,1.0878
7410.00,1.0912
7409.00,1.0937
7408.00,1.0960
7407.00,1.0984
7406.00,1.1008
7405.00,1.1031
7404.00,1.1050
7403.00,1.1066
7402.00,1.1075
7401.00,1.1077
7400.00,1.1072
7399.00,1.1065
7398.00,1.1057
7397.00,1.1046
7396.00,1.1029
7395.00,1.1006
7394.00,1.0982
7393.00,1.0957
7392.00,1.0932
7391.00,1.0903
7390.00,1.0870
7389.00,1.0835
7388.00,1.0802
7387.00,1.0776
7386.00,1.0759
7385.00,1.0748
7384.00,1.0735
7383.00,1.0715
7382.00,1.0690
7381.00,1.0670
7380.00,1.0661
7379.00,1.0654
7378.00,1.0634
7377.00,1.0596
7376.00,1.0548
7375.00,1.0501
7374.00,1.0456
7373.00,1.0404
7372.00,1.0343
7371.00,1.0278
7370.00,1.0217
7369.00,1.0164
7368.00,1.0114
7367.00,1.0061
7366.00,1.0001
7365.00,0.9936
7364.00,0.9871
7363.00,0.9810
7362.00,0.9752
7361.00,0.9696
7360.00,0.9641
7359.00,0.9585
7358.00,0.9526
7357.00,0.9462
7356.00,0.9397
7355.00,0.9333
7354.00,0.9272
7353.00,0.9213
7352.00,0.9152
7351.00,0.9089
7350.00,0.9021
7349.00,0.8945
7348.00,0.8861
7347.00,0.8771
7346.00,0.8680
7345.00,0.8594
7344.00,0.8515
7343.00,0.8445
7342.00,0.8381
7341.00,0.8322
7340.00,0.8265
7339.00,0.8206
7338.00,0.8146
7337.00,0.8085
7336.00,0.8027
7335.00,0.7973
7334.00,0.7926
7333.00,0.7886
7332.00,0.7853
7331.00,0.7825
7330.00,0.7801
7329.00,0.7782
7328.00,0.7767
7327.00,0.7760
7326.00,0.7759
7325.00,0.7763
7324.00,0.7768
7323.00,0.7777
7322.00,0.7793
7321.00,0.7817
7320.00,0.7847
7319.00,0.7881
7318.00,0.7917
7317.00,0.7957
7316.00,0.8006
7315.00,0.8061
7314.00,0.8122
7313.00,0.8185
7312.00,0.8249
7311.00,0.8317
7310.00,0.8388
7309.00,0.8463
7308.00,0.8537
7307.00,0.8612
7306.00,0.8688
7305.00,0.8769
7304.00,0.8856
7303.00,0.8948
7302.00,0.9043
7301.00,0.9139
7300.00,0.9234
7299.00,0.9328
7298.00,0.9418
7297.00,0.9506
7296.00,0.9593
7295.00,0.9681
7294.00,0.9767
7293.00,0.9850
7292.00,0.9933
7291.00,1.0019
7290.00,1.0109
7289.00,1.0197
7288.00,1.0281
7287.00,1.0364
7286.00,1.0453
7285.00,1.0546
7284.00,1.0639
7283.00,1.0727
7282.00,1.0808
7281.00,1.0883
7280.00,1.0955
7279.00,1.1026
7278.00,1.1098
7277.00,1.1171
7276.00,1.1241
7275.00,1.1304
7274.00,1.1365
7273.00,1.1427
7272.00,1.1491
7271.00,1.1552
7270.00,1.1605
7269.00,1.1650
7268.00,1.1693
7267.00,1.1737
7266.00,1.1779
7265.00,1.1816
7264.00,1.1847
7263.00,1.1873
7262.00,1.1896
7261.00,1.1915
7260.00,1.1930
7259.00,1.1941
7258.00,1.1952
7257.00,1.1961
7256.00,1.1964
7255.00,1.1961
7254.00,1.1956
7253.00,1.1951
7252.00,1.1945
7251.00,1.1928
7250.00,1.1901
7249.00,1.1868
7248.00,1.1834
7247.00,1.1800
7246.00,1.1760
7245.00,1.1716
7244.00,1.1670
7243.00,1.1628
7242.00,1.1587
7241.00,1.1540
7240.00,1.1481
7239.00,1.1414
7238.00,1.1344
7237.00,1.1275
7236.00,1.1203
7235.00,1.1127
7234.00,1.1050
7233.00,1.0978
7232.00,1.0910
7231.00,1.0840
7230.00,1.0762
7229.00,1.0675
7228.00,1.0585
7227.00,1.0496
7226.00,1.0408
7225.00,1.0321
7224.00,1.0230
7223.00,1.0137
7222.00,1.0042
7221.00,0.9949
7220.00,0.9853
7219.00,0.9751
7218.00,0.9645
7217.00,0.9540
7216.00,0.9443
7215.00,0.9355
7214.00,0.9268
7213.00,0.9180
7212.00,0.9088
7211.00,0.8996
7210.00,0.8905
7209.00,0.8816
7208.00,0.8729
7207.00,0.8644
7206.00,0.8562
7205.00,0.8485
7204.00,0.8413
7203.00,0.8346
7202.00,0.8283
7201.00,0.8223
7200.00,0.8167
7199.00,0.8116
7198.00,0.8071
7197.00,0.8031
7196.00,0.7995
7195.00,0.7964
7194.00,0.7936
7193.00,0.7914
7192.00,0.7896
7191.00,0.7883
7190.00,0.7876
7189.00,0.7874
7188.00,0.7877
7187.00,0.7886
7186.00,0.7899
7185.00,0.7919
7184.00,0.7945
7183.00,0.7979
7182.00,0.8019
7181.00,0.8064
7180.00,0.8114
7179.00,0.8169
7178.00,0.8228
7177.00,0.8288
7176.00,0.8349
7175.00,0.8412
7174.00,0.8481
7173.00,0.8554
7172.00,0.8630
7171.00,0.8707
7170.00,0.8787
7169.00,0.8871
7168.00,0.8956
7167.00,0.9040
7166.00,0.9123
7165.00,0.9207
7164.00,0.9293
7163.00,0.9380
7162.00,0.9469
7161.00,0.9560
7160.00,0.9651
7159.00,0.9741
7158.00,0.9829
7157.00,0.9917
7156.00,1.0004
7155.00,1.0091
7154.00,1.0175
7153.00,1.0257
7152.00,1.0337
7151.00,1.0418
7150.00,1.0497
7149.00,1.0575
7148.00,1.0649
7147.00,1.0723
7146.00,1.0798
7145.00,1.0875
7144.00,1.0950
7143.00,1.1022
7142.00,1.1091
7141.00,1.1160
7140.00,1.1225
7139.00,1.1287
7138.00,1.1348
7137.00,1.1410
7136.00,1.1469
7135.00,1.1519
7134.00,1.1562
7133.00,1.1603
7132.00,1.1643
7131.00,1.1674
7130.00,1.1693
7129.00,1.1705
7128.00,1.1720
7127.00,1.1739
7126.00,1.1758
7125.00,1.1775
7124.00,1.1789
7123.00,1.1801
7122.00,1.1804
7121.00,1.1795
7120.00,1.1779
7119.00,1.1762
7118.00,1.1745
7117.00,1.1725
7116.00,1.1701
7115.00,1.1674
7114.00,1.1648
7113.00,1.1623
7112.00,1.1596
7111.00,1.1567
7110.00,1.1535
7109.00,1.1497
7108.00,1.1455
7107.00,1.1408
7106.00,1.1362
7105.00,1.1315
7104.00,1.1264
7103.00,1.1205
7102.00,1.1142
7101.00,1.1079
7100.00,1.1017
7099.00,1.0956
7098.00,1.0890
7097.00,1.0818
7096.00,1.0743
7095.00,1.0665
7094.00,1.0585
7093.00,1.0506
7092.00,1.0426
7091.00,1.0343
7090.00,1.0257
7089.00,1.0167
7088.00,1.0077
7087.00,0.9988
7086.00,0.9900
7085.00,0.9809
7084.00,0.9713
7083.00,0.9614
7082.00,0.9514
7081.00,0.9418
7080.00,0.9325
7079.00,0.9231
7078.00,0.9137
7077.00,0.9043
7076.00,0.8953
7075.00,0.8867
7074.00,0.8782
7073.00,0.8695
7072.00,0.8607
7071.00,0.8521
7070.00,0.8441
7069.00,0.8367
7068.00,0.8298
7067.00,0.8234
7066.00,0.8173
7065.00,0.8119
7064.00,0.8069
7063.00,0.8022
7062.00,0.7977
7061.00,0.7934
7060.00,0.7896
7059.00,0.7864
7058.00,0.7839
7057.00,0.7821
7056.00,0.7809
7055.00,0.7804
7054.00,0.7805
7053.00,0.7814
7052.00,0.7830
7051.00,0.7850
7050.00,0.7875
7049.00,0.7902
7048.00,0.7933
7047.00,0.7970
7046.00,0.8012
7045.00,0.8060
7044.00,0.8113
7043.00,0.8170
7042.00,0.8231
7041.00,0.8298
7040.00,0.8368
7039.00,0.8441
7038.00,0.8515
7037.00,0.8589
7036.00,0.8666
7035.00,0.8749
7034.00,0.8838
7033.00,0.8930
7032.00,0.9018
7031.00,0.9106
7030.00,0.9196
7029.00,0.9289
7028.00,0.9383
7027.00,0.9478
7026.00,0.9573
7025.00,0.9669
7024.00,0.9766
7023.00,0.9862
7022.00,0.9959
7021.00,1.0056
7020.00,1.0150
7019.00,1.0241
7018.00,1.0335
7017.00,1.0430
7016.00,1.0523
7015.00,1.0612
7014.00,1.0698
7013.00,1.0782
7012.00,1.0865
7011.00,1.0944
7010.00,1.1020
7009.00,1.1096
7008.00,1.1175
7007.00,1.1254
7006.00,1.1328
7005.00,1.1395
7004.00,1.1457
7003.00,1.1517
7002.00,1.1575
7001.00,1.1631
7000.00,1.1688
6999.00,1.1744
6998.00,1.1800
6997.00,1.1854
6996.00,1.1903
6995.00,1.1943
6994.00,1.1974
6993.00,1.1996
6992.00,1.2015
6991.00,1.2034
6990.00,1.2050
6989.00,1.2062
6988.00,1.2071
6987.00,1.2080
6986.00,1.2089
6985.00,1.2094
6984.00,1.2094
6983.00,1.2090
6982.00,1.2084
6981.00,1.2077
6980.00,1.2066
6979.00,1.2048
6978.00,1.2022
6977.00,1.1989
6976.00,1.1954
6975.00,1.1917
6974.00,1.1876
6973.00,1.1830
6972.00,1.1780
6971.00,1.1729
6970.00,1.1676
6969.00,1.1619
6968.00,1.1557
6967.00,1.1491
6966.00,1.1425
6965.00,1.1357
6964.00,1.1286
6963.00,1.1213
6962.00,1.1138
6961.00,1.1060
6960.00,1.0974
6959.00,1.0882
6958.00,1.0789
6957.00,1.0699
6956.00,1.0609
6955.00,1.0519
6954.00,1.0428
6953.00,1.0335
6952.00,1.0240
6951.00,1.0141
6950.00,1.0037
6949.00,0.9929
6948.00,0.9820
6947.00,0.9712
6946.00,0.9607
6945.00,0.9504
6944.00,0.9400
6943.00,0.9298
6942.00,0.9198
6941.00,0.9102
6940.00,0.9008
6939.00,0.8916
6938.00,0.8827
6937.00,0.8742
6936.00,0.8656
6935.00,0.8569
6934.00,0.8484
6933.00,0.8404
6932.00,0.8328
6931.00,0.8256
6930.00,0.8189
6929.00,0.8129
6928.00,0.8076
6927.00,0.8028
6926.00,0.7985
6925.00,0.7945
6924.00,0.7909
6923.00,0.7879
6922.00,0.7856
6921.00,0.7840
6920.00,0.7829
6919.00,0.7823
6918.00,0.7824
6917.00,0.7831
6916.00,0.7846
6915.00,0.7866
6914.00,0.7890
6913.00,0.7919
6912.00,0.7953
6911.00,0.7992
6910.00,0.8037
6909.00,0.8087
6908.00,0.8141
6907.00,0.8199
6906.00,0.8261
6905.00,0.8328
6904.00,0.8398
6903.00,0.8471
6902.00,0.8548
6901.00,0.8629
6900.00,0.8713
6899.00,0.8800
6898.00,0.8889
6897.00,0.8982
6896.00,0.9079
6895.00,0.9175
6894.00,0.9269
6893.00,0.9361
6892.00,0.9454
6891.00,0.9549
6890.00,0.9643
6889.00,0.9736
6888.00,0.9828
6887.00,0.9921
6886.00,1.0018
6885.00,1.0118
6884.00,1.0220
6883.00,1.0321
6882.00,1.0420
6881.00,1.0517
6880.00,1.0609
6879.00,1.0691
6878.00,1.0766
6877.00,1.0840
6876.00,1.0915
6875.00,1.0992
6874.00,1.1066
6873.00,1.1141
6872.00,1.1220
6871.00,1.1301
6870.00,1.1375
6869.00,1.1440
6868.00,1.1497
6867.00,1.1556
6866.00,1.1616
6865.00,1.1674
6864.00,1.1724
6863.00,1.1766
6862.00,1.1807
6861.00,1.1848
6860.00,1.1887
6859.00,1.1920
6858.00,1.1946
6857.00,1.1965
6856.00,1.1981
6855.00,1.1993
6854.00,1.2000
6853.00,1.2003
6852.00,1.2005
6851.00,1.2008
6850.00,1.2013
6849.00,1.2018
6848.00,1.2019
6847.00,1.2012
6846.00,1.1998
6845.00,1.1978
6844.00,1.1953
6843.00,1.1924
6842.00,1.1895
6841.00,1.1863
6840.00,1.1828
6839.00,1.1790
6838.00,1.1748
6837.00,1.1704
6836.00,1.1656
6835.00,1.1603
6834.00,1.1548
6833.00,1.1494
6832.00,1.1439
6831.00,1.1380
6830.00,1.1319
6829.00,1.1255
6828.00,1.1188
6827.00,1.1113
6826.00,1.1030
6825.00,1.0941
6824.00,1.0850
6823.00,1.0759
6822.00,1.0669
6821.00,1.0579
6820.00,1.0490
6819.00,1.0399
6818.00,1.0306
6817.00,1.0213
6816.00,1.0115
6815.00,1.0013
6814.00,0.9909
6813.00,0.9807
6812.00,0.9708
6811.00,0.9608
6810.00,0.9506
6809.00,0.9405
6808.00,0.9305
6807.00,0.9205
6806.00,0.9104
6805.00,0.9003
6804.00,0.8906
6803.00,0.8811
6802.00,0.8718
6801.00,0.8628
6800.00,0.8541
6799.00,0.8457
6798.00,0.8377
6797.00,0.8302
6796.00,0.8231
6795.00,0.8164
6794.00,0.8099
6793.00,0.8038
6792.00,0.7983
6791.00,0.7933
6790.00,0.7890
6789.00,0.7853
6788.00,0.7821
6787.00,0.7794
6786.00,0.7773
6785.00,0.7759
6784.00,0.7752
6783.00,0.7750
6782.00,0.7753
6781.00,0.7761
6780.00,0.7777
6779.00,0.7800
6778.00,0.7827
6777.00,0.7858
6776.00,0.7892
6775.00,0.7934
6774.00,0.7984
6773.00,0.8041
6772.00,0.8104
6771.00,0.8171
6770.00,0.8243
6769.00,0.8319
6768.00,0.8400
6767.00,0.8481
6766.00,0.8563
6765.00,0.8646
6764.00,0.8731
6763.00,0.8817
6762.00,0.8906
6761.00,0.8999
6760.00,0.9097
6759.00,0.9198
6758.00,0.9298
6757.00,0.9399
6756.00,0.9500
6755.00,0.9600
6754.00,0.9698
6753.00,0.9794
6752.00,0.9890
6751.00,0.9990
6750.00,1.0093
6749.00,1.0196
6748.00,1.0297
6747.00,1.0397
6746.00,1.0495
6745.00,1.0591
6744.00,1.0685
6743.00,1.0777
6742.00,1.0869
6741.00,1.0961
6740.00,1.1051
6739.00,1.1137
6738.00,1.1222
6737.00,1.1304
6736.00,1.1384
6735.00,1.1462
6734.00,1.1536
6733.00,1.1605
6732.00,1.1671
6731.00,1.1732
6730.00,1.1790
6729.00,1.1845
6728.00,1.1900
6727.00,1.1957
6726.00,1.2013
6725.00,1.2062
6724.00,1.2100
6723.00,1.2132
6722.00,1.2162
6721.00,1.2185
6720.00,1.2203
6719.00,1.2217
6718.00,1.2233
6717.00,1.2251
6716.00,1.2266
6715.00,1.2273
6714.00,1.2275
6713.00,1.2274
6712.00,1.2273
6711.00,1.2269
6710.00,1.2258
6709.00,1.2241
6708.00,1.2216
6707.00,1.2187
6706.00,1.2154
6705.00,1.2120
6704.00,1.2086
6703.00,1.2051
6702.00,1.2011
6701.00,1.1967
6700.00,1.1917
6699.00,1.1862
6698.00,1.1805
6697.00,1.1744
6696.00,1.1678
6695.00,1.1609
6694.00,1.1534
6693.00,1.1456
6692.00,1.1374
6691.00,1.1290
6690.00,1.1205
6689.00,1.1120
6688.00,1.1034
6687.00,1.0945
6686.00,1.0850
6685.00,1.0750
6684.00,1.0646
6683.00,1.0541
6682.00,1.0438
6681.00,1.0334
6680.00,1.0230
6679.00,1.0124
6678.00,1.0018
6677.00,0.9911
6676.00,0.9802
6675.00,0.9693
6674.00,0.9586
6673.00,0.9481
6672.00,0.9375
6671.00,0.9270
6670.00,0.9165
6669.00,0.9063
6668.00,0.8964
6667.00,0.8867
6666.00,0.8773
6665.00,0.8682
6664.00,0.8594
6663.00,0.8508
6662.00,0.8425
6661.00,0.8345
6660.00,0.8269
6659.00,0.8199
6658.00,0.8133
6657.00,0.8071
6656.00,0.8013
6655.00,0.7961
6654.00,0.7916
6653.00,0.7879
6652.00,0.7849
6651.00,0.7824
6650.00,0.7806
6649.00,0.7794
6648.00,0.7787
6647.00,0.7785
6646.00,0.7788
6645.00,0.7798
6644.00,0.7815
6643.00,0.7840
6642.00,0.7870
6641.00,0.7907
6640.00,0.7949
6639.00,0.7998
6638.00,0.8055
6637.00,0.8117
6636.00,0.8181
6635.00,0.8249
6634.00,0.8321
6633.00,0.8396
6632.00,0.8473
6631.00,0.8551
6630.00,0.8634
6629.00,0.8722
6628.00,0.8816
6627.00,0.8912
6626.00,0.9009
6625.00,0.9109
6624.00,0.9207
6623.00,0.9305
6622.00,0.9403
6621.00,0.9502
6620.00,0.9601
6619.00,0.9699
6618.00,0.9800
6617.00,0.9904
6616.00,1.0010
6615.00,1.0117
6614.00,1.0222
6613.00,1.0324
6612.00,1.0422
6611.00,1.0515
6610.00,1.0607
6609.00,1.0699
6608.00,1.0790
6607.00,1.0879
6606.00,1.0968
6605.00,1.1058
6604.00,1.1144
6603.00,1.1223
6602.00,1.1294
6601.00,1.1363
6600.00,1.1436
6599.00,1.1511
6598.00,1.1583
6597.00,1.1649
6596.00,1.1709
6595.00,1.1763
6594.00,1.1813
6593.00,1.1857
6592.00,1.1898
6591.00,1.1940
6590.00,1.1983
6589.00,1.2025
6588.00,1.2063
6587.00,1.2094
6586.00,1.2119
6585.00,1.2138
6584.00,1.2153
6583.00,1.2165
6582.00,1.2173
6581.00,1.2175
6580.00,1.2173
6579.00,1.2168
6578.00,1.2163
6577.00,1.2157
6576.00,1.2147
6575.00,1.2131
6574.00,1.2108
6573.00,1.2081
6572.00,1.2051
6571.00,1.2016
6570.00,1.1977
6569.00,1.1936
6568.00,1.1896
6567.00,1.1853
6566.00,1.1805
6565.00,1.1751
6564.00,1.1695
6563.00,1.1638
6562.00,1.1581
6561.00,1.1521
6560.00,1.1456
6559.00,1.1385
6558.00,1.1312
6557.00,1.1236
6556.00,1.1156
6555.00,1.1074
6554.00,1.0991
6553.00,1.0908
6552.00,1.0826
6551.00,1.0740
6550.00,1.0650
6549.00,1.0557
6548.00,1.0460
6547.00,1.0360
6546.00,1.0257
6545.00,1.0153
6544.00,1.0048
6543.00,0.9944
6542.00,0.9842
6541.00,0.9740
6540.00,0.9637
6539.00,0.9534
6538.00,0.9431
6537.00,0.9328
6536.00,0.9225
6535.00,0.9122
6534.00,0.9019
6533.00,0.8918
6532.00,0.8819
6531.00,0.8721
6530.00,0.8625
6529.00,0.8533
6528.00,0.8446
6527.00,0.8364
6526.00,0.8286
6525.00,0.8212
6524.00,0.8141
6523.00,0.8072
6522.00,0.8007
6521.00,0.7948
6520.00,0.7895
6519.00,0.7848
6518.00,0.7808
6517.00,0.7776
6516.00,0.7750
6515.00,0.7729
6514.00,0.7715
6513.00,0.7707
6512.00,0.7704
6511.00,0.7708
6510.00,0.7717
6509.00,0.7735
6508.00,0.7760
6507.00,0.7792
6506.00,0.7830
6505.00,0.7874
6504.00,0.7923
6503.00,0.7977
6502.00,0.8036
6501.00,0.8100
6500.00,0.8168
6499.00,0.8241
6498.00,0.8320
6497.00,0.8403
6496.00,0.8489
6495.00,0.8577
6494.00,0.8668
6493.00,0.8762
6492.00,0.8860
6491.00,0.8959
6490.00,0.9062
6489.00,0.9168
6488.00,0.9275
6487.00,0.9382
6486.00,0.9489
6485.00,0.9595
6484.00,0.9703
6483.00,0.9810
6482.00,0.9916
6481.00,1.0020
6480.00,1.0125
6479.00,1.0229
6478.00,1.0333
6477.00,1.0436
6476.00,1.0537
6475.00,1.0639
6474.00,1.0741
6473.00,1.0844
6472.00,1.0945
6471.00,1.1046
6470.00,1.1144
6469.00,1.1236
6468.00,1.1324
6467.00,1.1410
6466.00,1.1497
6465.00,1.1582
6464.00,1.1665
6463.00,1.1743
6462.00,1.1817
6461.00,1.1884
6460.00,1.1944
6459.00,1.1998
6458.00,1.2051
6457.00,1.2105
6456.00,1.2160
6455.00,1.2215
6454.00,1.2268
6453.00,1.2318
6452.00,1.2361
6451.00,1.2397
6450.00,1.2426
6449.00,1.2449
6448.00,1.2467
6447.00,1.2481
6446.00,1.2489
6445.00,1.2494
6444.00,1.2496
6443.00,1.2496
6442.00,1.2495
6441.00,1.2489
6440.00,1.2480
6439.00,1.2468
6438.00,1.2455
6437.00,1.2437
6436.00,1.2411
6435.00,1.2379
6434.00,1.2346
6433.00,1.2310
6432.00,1.2270
6431.00,1.2221
6430.00,1.2167
6429.00,1.2110
6428.00,1.2052
6427.00,1.1991
6426.00,1.1927
6425.00,1.1861
6424.00,1.1793
6423.00,1.1724
6422.00,1.1651
6421.00,1.1572
6420.00,1.1487
6419.00,1.1396
6418.00,1.1302
6417.00,1.1208
6416.00,1.1112
6415.00,1.1013
6414.00,1.0912
6413.00,1.0808
6412.00,1.0701
6411.00,1.0591
6410.00,1.0479
6409.00,1.0367
6408.00,1.0255
6407.00,1.0142
6406.00,1.0028
6405.00,0.9913
6404.00,0.9798
6403.00,0.9683
6402.00,0.9569
6401.00,0.9457
6400.00,0.9346
6399.00,0.9237
6398.00,0.9128
6397.00,0.9019
6396.00,0.8913
6395.00,0.8809
6394.00,0.8708
6393.00,0.8609
6392.00,0.8515
6391.00,0.8424
6390.00,0.8338
6389.00,0.8256
6388.00,0.8177
6387.00,0.8105
6386.00,0.8040
6385.00,0.7982
6384.00,0.7929
6383.00,0.7881
6382.00,0.7840
6381.00,0.7806
6380.00,0.7779
6379.00,0.7757
6378.00,0.7742
6377.00,0.7734
6376.00,0.7734
6375.00,0.7742
6374.00,0.7756
6373.00,0.7777
6372.00,0.7804
6371.00,0.7837
6370.00,0.7877
6369.00,0.7923
6368.00,0.7975
6367.00,0.8033
6366.00,0.8098
6365.00,0.8168
6364.00,0.8242
6363.00,0.8320
6362.00,0.8403
6361.00,0.8490
6360.00,0.8581
6359.00,0.8673
6358.00,0.8767
6357.00,0.8863
6356.00,0.8961
6355.00,0.9061
6354.00,0.9162
6353.00,0.9265
6352.00,0.9371
6351.00,0.9479
6350.00,0.9587
6349.00,0.9695
6348.00,0.9802
6347.00,0.9908
6346.00,1.0014
6345.00,1.0121
6344.00,1.0229
6343.00,1.0338
6342.00,1.0447
6341.00,1.0555
6340.00,1.0661
6339.00,1.0765
6338.00,1.0867
6337.00,1.0965
6336.00,1.1060
6335.00,1.1152
6334.00,1.1242
6333.00,1.1328
6332.00,1.1412
6331.00,1.1494
6330.00,1.1574
6329.00,1.1651
6328.00,1.1726
6327.00,1.1798
6326.00,1.1869
6325.00,1.1937
6324.00,1.2000
6323.00,1.2058
6322.00,1.2110
6321.00,1.2158
6320.00,1.2202
6319.00,1.2241
6318.00,1.2276
6317.00,1.2305
6316.00,1.2330
6315.00,1.2354
6314.00,1.2377
6313.00,1.2396
6312.00,1.2412
6311.00,1.2424
6310.00,1.2433
6309.00,1.2438
6308.00,1.2438
6307.00,1.2432
6306.00,1.2422
6305.00,1.2409
6304.00,1.2391
6303.00,1.2371
6302.00,1.2349
6301.00,1.2325
6300.00,1.2296
6299.00,1.2260
6298.00,1.2220
6297.00,1.2178
6296.00,1.2133
6295.00,1.2084
6294.00,1.2033
6293.00,1.1978
6292.00,1.1920
6291.00,1.1858
6290.00,1.1791
6289.00,1.1721
6288.00,1.1649
6287.00,1.1575
6286.00,1.1499
6285.00,1.1423
6284.00,1.1343
6283.00,1.1258
6282.00,1.1167
6281.00,1.1070
6280.00,1.0971
6279.00,1.0871
6278.00,1.0770
6277.00,1.0668
6276.00,1.0565
6275.00,1.0460
6274.00,1.0355
6273.00,1.0249
6272.00,1.0140
6271.00,1.0029
6270.00,0.9916
6269.00,0.9802
6268.00,0.9687
6267.00,0.9571
6266.00,0.9455
6265.00,0.9340
6264.00,0.9226
6263.00,0.9113
6262.00,0.9000
6261.00,0.8889
6260.00,0.8782
6259.00,0.8680
6258.00,0.8582
6257.00,0.8488
6256.00,0.8400
6255.00,0.8316
6254.00,0.8235
6253.00,0.8157
6252.00,0.8083
6251.00,0.8012
6250.00,0.7948
6249.00,0.7890
6248.00,0.7837
6247.00,0.7791
6246.00,0.7750
6245.00,0.7718
6244.00,0.7694
6243.00,0.7679
6242.00,0.7671
6241.00,0.7671
6240.00,0.7679
6239.00,0.7694
6238.00,0.7714
6237.00,0.7740
6236.00,0.7772
6235.00,0.7811
6234.00,0.7857
6233.00,0.7910
6232.00,0.7968
6231.00,0.8032
6230.00,0.8102
6229.00,0.8178
6228.00,0.8258
6227.00,0.8341
6226.00,0.8429
6225.00,0.8521
6224.00,0.8617
6223.00,0.8716
6222.00,0.8818
6221.00,0.8924
6220.00,0.9032
6219.00,0.9141
6218.00,0.9251
6217.00,0.9360
6216.00,0.9469
6215.00,0.9578
6214.00,0.9688
6213.00,0.9801
6212.00,0.9916
6211.00,1.0033
6210.00,1.0151
6209.00,1.0270
6208.00,1.0387
6207.00,1.0500
6206.00,1.0609
6205.00,1.0716
6204.00,1.0822
6203.00,1.0927
6202.00,1.1032
6201.00,1.1137
6200.00,1.1241
6199.00,1.1343
6198.00,1.1440
6197.00,1.1534
6196.00,1.1625
6195.00,1.1715
6194.00,1.1801
6193.00,1.1883
6192.00,1.1962
6191.00,1.2041
6190.00,1.2118
6189.00,1.2189
6188.00,1.2251
6187.00,1.2307
6186.00,1.2361
6185.00,1.2412
6184.00,1.2459
6183.00,1.2504
6182.00,1.2549
6181.00,1.2592
6180.00,1.2630
6179.00,1.2660
6178.00,1.2682
6177.00,1.2698
6176.00,1.2708
6175.00,1.2715
6174.00,1.2724
6173.00,1.2731
6172.00,1.2734
6171.00,1.2727
6170.00,1.2714
6169.00,1.2699
6168.00,1.2681
6167.00,1.2659
6166.00,1.2633
6165.00,1.2605
6164.00,1.2575
6163.00,1.2541
6162.00,1.2502
6161.00,1.2458
6160.00,1.2410
6159.00,1.2359
6158.00,1.2306
6157.00,1.2251
6156.00,1.2192
6155.00,1.2128
6154.00,1.2057
6153.00,1.1982
6152.00,1.1903
6151.00,1.1824
6150.00,1.1745
6149.00,1.1662
6148.00,1.1575
6147.00,1.1482
6146.00,1.1384
6145.00,1.1282
6144.00,1.1175
6143.00,1.1065
6142.00,1.0953
6141.00,1.0841
6140.00,1.0726
6139.00,1.0609
6138.00,1.0490
6137.00,1.0369
6136.00,1.0248
6135.00,1.0126
6134.00,1.0005
6133.00,0.9884
6132.00,0.9761
6131.00,0.9637
6130.00,0.9514
6129.00,0.9393
6128.00,0.9272
6127.00,0.9154
6126.00,0.9037
6125.00,0.8925
6124.00,0.8815
6123.00,0.8707
6122.00,0.8602
6121.00,0.8502
6120.00,0.8405
6119.00,0.8312
6118.00,0.8224
6117.00,0.8141
6116.00,0.8065
6115.00,0.7996
6114.00,0.7932
6113.00,0.7876
6112.00,0.7825
6111.00,0.7781
6110.00,0.7743
6109.00,0.7712
6108.00,0.7687
6107.00,0.7670
6106.00,0.7662
6105.00,0.7664
6104.00,0.7673
6103.00,0.7691
6102.00,0.7716
6101.00,0.7749
6100.00,0.7787
6099.00,0.7831
6098.00,0.7881
6097.00,0.7939
6096.00,0.8003
6095.00,0.8073
6094.00,0.8147
6093.00,0.8226
6092.00,0.8309
6091.00,0.8396
6090.00,0.8488
6089.00,0.8582
6088.00,0.8681
6087.00,0.8784
6086.00,0.8890
6085.00,0.8999
6084.00,0.9108
6083.00,0.9217
6082.00,0.9327
6081.00,0.9438
6080.00,0.9550
6079.00,0.9661
6078.00,0.9773
6077.00,0.9885
6076.00,0.9998
6075.00,1.0112
6074.00,1.0226
6073.00,1.0341
6072.00,1.0455
6071.00,1.0567
6070.00,1.0676
6069.00,1.0782
6068.00,1.0887
6067.00,1.0992
6066.00,1.1099
6065.00,1.1205
6064.00,1.1307
6063.00,1.1405
6062.00,1.1496
6061.00,1.1582
6060.00,1.1662
6059.00,1.1740
6058.00,1.1818
6057.00,1.1896
6056.00,1.1975
6055.00,1.2053
6054.00,1.2129
6053.00,1.2200
6052.00,1.2266
6051.00,1.2325
6050.00,1.2379
6049.00,1.2429
6048.00,1.2477
6047.00,1.2523
6046.00,1.2565
6045.00,1.2603
6044.00,1.2636
6043.00,1.2665
6042.00,1.2688
6041.00,1.2706
6040.00,1.2723
6039.00,1.2739
6038.00,1.2755
6037.00,1.2768
6036.00,1.2773
6035.00,1.2770
6034.00,1.2763
6033.00,1.2752
6032.00,1.2739
6031.00,1.2721
6030.00,1.2699
6029.00,1.2672
6028.00,1.2641
6027.00,1.2604
6026.00,1.2562
6025.00,1.2515
6024.00,1.2465
6023.00,1.2413
6022.00,1.2361
6021.00,1.2306
6020.00,1.2246
6019.00,1.2179
6018.00,1.2107
6017.00,1.2034
6016.00,1.1958
6015.00,1.1879
6014.00,1.1794
6013.00,1.1704
6012.00,1.1610
6011.00,1.1512
6010.00,1.1410
6009.00,1.1306
6008.00,1.1199
6007.00,1.1092
6006.00,1.0983
6005.00,1.0870
6004.00,1.0754
6003.00,1.0634
6002.00,1.0511
6001.00,1.0388
6000.00,1.0262
5999.00,1.0135
5998.00,1.0007
5997.00,0.9879
5996.00,0.9752
5995.00,0.9624
5994.00,0.9497
5993.00,0.9372
5992.00,0.9250
5991.00,0.9129
5990.00,0.9011
5989.00,0.8895
5988.00,0.8783
5987.00,0.8674
5986.00,0.8568
5985.00,0.8465
5984.00,0.8368
5983.00,0.8275
5982.00,0.8187
5981.00,0.8105
5980.00,0.8029
5979.00,0.7961
5978.00,0.7900
5977.00,0.7846
5976.00,0.7800
5975.00,0.7761
5974.00,0.7729
5973.00,0.7705
5972.00,0.7687
5971.00,0.7677
5970.00,0.7676
5969.00,0.7682
5968.00,0.7697
5967.00,0.7720
5966.00,0.7751
5965.00,0.7790
5964.00,0.7837
5963.00,0.7889
5962.00,0.7948
5961.00,0.8014
5960.00,0.8087
5959.00,0.8165
5958.00,0.8248
5957.00,0.8336
5956.00,0.8428
5955.00,0.8526
5954.00,0.8628
5953.00,0.8734
5952.00,0.8843
5951.00,0.8955
5950.00,0.9071
5949.00,0.9189
5948.00,0.9308
5947.00,0.9428
5946.00,0.9549
5945.00,0.9673
5944.00,0.9796
5943.00,0.9918
5942.00,1.0039
5941.00,1.0160
5940.00,1.0283
5939.00,1.0406
5938.00,1.0530
5937.00,1.0653
5936.00,1.0776
5935.00,1.0898
5934.00,1.1019
5933.00,1.1137
5932.00,1.1252
5931.00,1.1363
5930.00,1.1471
5929.00,1.1576
5928.00,1.1680
5927.00,1.1783
5926.00,1.1886
5925.00,1.1986
5924.00,1.2084
5923.00,1.2177
5922.00,1.2264
5921.00,1.2347
5920.00,1.2425
5919.00,1.2499
5918.00,1.2567
5917.00,1.2630
5916.00,1.2688
5915.00,1.2743
5914.00,1.2797
5913.00,1.2848
5912.00,1.2896
5911.00,1.2941
5910.00,1.2980
5909.00,1.3015
5908.00,1.3044
5907.00,1.3070
5906.00,1.3090
5905.00,1.3105
5904.00,1.3114
5903.00,1.3121
5902.00,1.3124
5901.00,1.3123
5900.00,1.3120
5899.00,1.3114
5898.00,1.3104
5897.00,1.3087
5896.00,1.3063
5895.00,1.3036
5894.00,1.3006
5893.00,1.2973
5892.00,1.2935
5891.00,1.2891
5890.00,1.2843
5889.00,1.2792
5888.00,1.2739
5887.00,1.2682
5886.00,1.2622
5885.00,1.2557
5884.00,1.2487
5883.00,1.2413
5882.00,1.2334
5881.00,1.2253
5880.00,1.2168
5879.00,1.2079
5878.00,1.1986
5877.00,1.1888
5876.00,1.1786
5875.00,1.1681
5874.00,1.1575
5873.00,1.1469
5872.00,1.1363
5871.00,1.1253
5870.00,1.1140
5869.00,1.1022
5868.00,1.0901
5867.00,1.0777
5866.00,1.0651
5865.00,1.0525
5864.00,1.0398
5863.00,1.0270
5862.00,1.0142
5861.00,1.0015
5860.00,0.9887
5859.00,0.9759
5858.00,0.9632
5857.00,0.9506
5856.00,0.9383
5855.00,0.9261
5854.00,0.9142
5853.00,0.9027
5852.00,0.8915
5851.00,0.8808
5850.00,0.8704
5849.00,0.8603
5848.00,0.8506
5847.00,0.8413
5846.00,0.8326
5845.00,0.8245
5844.00,0.8170
5843.00,0.8102
5842.00,0.8041
5841.00,0.7989
5840.00,0.7943
5839.00,0.7905
5838.00,0.7876
5837.00,0.7856
5836.00,0.7845
5835.00,0.7842
5834.00,0.7847
5833.00,0.7858
5832.00,0.7876
5831.00,0.7901
5830.00,0.7933
5829.00,0.7973
5828.00,0.8022
5827.00,0.8078
5826.00,0.8141
5825.00,0.8210
5824.00,0.8284
5823.00,0.8363
5822.00,0.8447
5821.00,0.8537
5820.00,0.8632
5819.00,0.8733
5818.00,0.8839
5817.00,0.8948
5816.00,0.9058
5815.00,0.9170
5814.00,0.9283
5813.00,0.9397
5812.00,0.9513
5811.00,0.9630
5810.00,0.9750
5809.00,0.9872
5808.00,0.9994
5807.00,1.0117
5806.00,1.0241
5805.00,1.0364
5804.00,1.0488
5803.00,1.0610
5802.00,1.0731
5801.00,1.0852
5800.00,1.0971
5799.00,1.1092
5798.00,1.1213
5797.00,1.1334
5796.00,1.1450
5795.00,1.1559
5794.00,1.1664
5793.00,1.1763
5792.00,1.1861
5791.00,1.1957
5790.00,1.2055
5789.00,1.2154
5788.00,1.2252
5787.00,1.2348
5786.00,1.2438
5785.00,1.2520
5784.00,1.2594
5783.00,1.2663
5782.00,1.2730
5781.00,1.2796
5780.00,1.2859
5779.00,1.2918
5778.00,1.2973
5777.00,1.3023
5776.00,1.3067
5775.00,1.3105
5774.00,1.3137
5773.00,1.3165
5772.00,1.3191
5771.00,1.3214
5770.00,1.3236
5769.00,1.3256
5768.00,1.3273
5767.00,1.3286
5766.00,1.3293
5765.00,1.3292
5764.00,1.3284
5763.00,1.3268
5762.00,1.3248
5761.00,1.3228
5760.00,1.3206
5759.00,1.3181
5758.00,1.3153
5757.00,1.3122
5756.00,1.3089
5755.00,1.3051
5754.00,1.3009
5753.00,1.2961
5752.00,1.2908
5751.00,1.2850
5750.00,1.2788
5749.00,1.2719
5748.00,1.2645
5747.00,1.2566
5746.00,1.2483
5745.00,1.2396
5744.00,1.2307
5743.00,1.2219
5742.00,1.2130
5741.00,1.2040
5740.00,1.1947
5739.00,1.1846
5738.00,1.1739
5737.00,1.1625
5736.00,1.1506
5735.00,1.1383
5734.00,1.1259
5733.00,1.1134
5732.00,1.1008
5731.00,1.0883
5730.00,1.0757
5729.00,1.0631
5728.00,1.0502
5727.00,1.0371
5726.00,1.0239
5725.00,1.0105
5724.00,0.9969
5723.00,0.9832
5722.00,0.9696
5721.00,0.9563
5720.00,0.9432
5719.00,0.9305
5718.00,0.9180
5717.00,0.9058
5716.00,0.8939
5715.00,0.8823
5714.00,0.8709
5713.00,0.8600
5712.00,0.8496
5711.00,0.8398
5710.00,0.8305
5709.00,0.8219
5708.00,0.8139
5707.00,0.8066
5706.00,0.8001
5705.00,0.7943
5704.00,0.7893
5703.00,0.7851
5702.00,0.7818
5701.00,0.7794
5700.00,0.7779
5699.00,0.7773
5698.00,0.7775
5697.00,0.7786
5696.00,0.7805
5695.00,0.7831
5694.00,0.7867
5693.00,0.7910
5692.00,0.7962
5691.00,0.8021
5690.00,0.8086
5689.00,0.8158
5688.00,0.8236
5687.00,0.8320
5686.00,0.8410
5685.00,0.8506
5684.00,0.8607
5683.00,0.8712
5682.00,0.8822
5681.00,0.8935
5680.00,0.9051
5679.00,0.9171
5678.00,0.9293
5677.00,0.9417
5676.00,0.9542
5675.00,0.9668
5674.00,0.9796
5673.00,0.9926
5672.00,1.0057
5671.00,1.0187
5670.00,1.0317
5669.00,1.0447
5668.00,1.0576
5667.00,1.0703
5666.00,1.0830
5665.00,1.0956
5664.00,1.1082
5663.00,1.1207
5662.00,1.1331
5661.00,1.1453
5660.00,1.1572
5659.00,1.1685
5658.00,1.1794
5657.00,1.1899
5656.00,1.2001
5655.00,1.2103
5654.00,1.2205
5653.00,1.2305
5652.00,1.2402
5651.00,1.2493
5650.00,1.2578
5649.00,1.2659
5648.00,1.2734
5647.00,1.2804
5646.00,1.2871
5645.00,1.2933
5644.00,1.2990
5643.00,1.3039
5642.00,1.3084
5641.00,1.3126
5640.00,1.3165
5639.00,1.3202
5638.00,1.3235
5637.00,1.3262
5636.00,1.3282
5635.00,1.3295
5634.00,1.3303
5633.00,1.3306
5632.00,1.3307
5631.00,1.3307
5630.00,1.3305
5629.00,1.3301
5628.00,1.3292
5627.00,1.3277
5626.00,1.3259
5625.00,1.3238
5624.00,1.3212
5623.00,1.3184
5622.00,1.3151
5621.00,1.3115
5620.00,1.3072
5619.00,1.3023
5618.00,1.2970
5617.00,1.2916
5616.00,1.2860
5615.00,1.2802
5614.00,1.2741
5613.00,1.2677
5612.00,1.2609
5611.00,1.2535
5610.00,1.2456
5609.00,1.2374
5608.00,1.2288
5607.00,1.2197
5606.00,1.2100
5605.00,1.1999
5604.00,1.1895
5603.00,1.1788
5602.00,1.1679
5601.00,1.1568
5600.00,1.1454
5599.00,1.1334
5598.00,1.1210
5597.00,1.1082
5596.00,1.0951
5595.00,1.0819
5594.00,1.0686
5593.00,1.0551
5592.00,1.0415
5591.00,1.0276
5590.00,1.0137
5589.00,0.9998
5588.00,0.9861
5587.00,0.9724
5586.00,0.9588
5585.00,0.9452
5584.00,0.9317
5583.00,0.9183
5582.00,0.9051
5581.00,0.8923
5580.00,0.8799
5579.00,0.8679
5578.00,0.8564
5577.00,0.8453
5576.00,0.8349
5575.00,0.8250
5574.00,0.8157
5573.00,0.8071
5572.00,0.7993
5571.00,0.7923
5570.00,0.7861
5569.00,0.7807
5568.00,0.7760
5567.00,0.7722
5566.00,0.7693
5565.00,0.7674
5564.00,0.7665
5563.00,0.7666
5562.00,0.7676
5561.00,0.7695
5560.00,0.7722
5559.00,0.7757
5558.00,0.7802
5557.00,0.7855
5556.00,0.7917
5555.00,0.7987
5554.00,0.8064
5553.00,0.8148
5552.00,0.8238
5551.00,0.8333
5550.00,0.8435
5549.00,0.8542
5548.00,0.8654
5547.00,0.8770
5546.00,0.8891
5545.00,0.9014
5544.00,0.9142
5543.00,0.9272
5542.00,0.9405
5541.00,0.9538
5540.00,0.9672
5539.00,0.9806
5538.00,0.9940
5537.00,1.0075
5536.00,1.0210
5535.00,1.0346
5534.00,1.0484
5533.00,1.0623
5532.00,1.0761
5531.00,1.0898
5530.00,1.1033
5529.00,1.1166
5528.00,1.1294
5527.00,1.1421
5526.00,1.1546
5525.00,1.1669
5524.00,1.1790
5523.00,1.1908
5522.00,1.2024
5521.00,1.2137
5520.00,1.2248
5519.00,1.2355
5518.00,1.2459
5517.00,1.2559
5516.00,1.2654
5515.00,1.2744
5514.00,1.2829
5513.00,1.2908
5512.00,1.2981
5511.00,1.3050
5510.00,1.3113
5509.00,1.3173
5508.00,1.3230
5507.00,1.3285
5506.00,1.3340
5505.00,1.3392
5504.00,1.3439
5503.00,1.3481
5502.00,1.3517
5501.00,1.3547
5500.00,1.3572
5499.00,1.3591
5498.00,1.3607
5497.00,1.3619
5496.00,1.3627
5495.00,1.3628
5494.00,1.3624
5493.00,1.3619
5492.00,1.3611
5491.00,1.3599
5490.00,1.3582
5489.00,1.3560
5488.00,1.3533
5487.00,1.3503
5486.00,1.3468
5485.00,1.3430
5484.00,1.3391
5483.00,1.3347
5482.00,1.3296
5481.00,1.3235
5480.00,1.3168
5479.00,1.3096
5478.00,1.3021
5477.00,1.2946
5476.00,1.2867
5475.00,1.2784
5474.00,1.2695
5473.00,1.2602
5472.00,1.2505
5471.00,1.2405
5470.00,1.2302
5469.00,1.2195
5468.00,1.2082
5467.00,1.1964
5466.00,1.1842
5465.00,1.1718
5464.00,1.1591
5463.00,1.1462
5462.00,1.1329
5461.00,1.1193
5460.00,1.1053
5459.00,1.0910
5458.00,1.0765
5457.00,1.0618
5456.00,1.0470
5455.00,1.0320
5454.00,1.0172
5453.00,1.0024
5452.00,0.9878
5451.00,0.9731
5450.00,0.9586
5449.00,0.9440
5448.00,0.9295
5447.00,0.9151
5446.00,0.9012
5445.00,0.8877
5444.00,0.8748
5443.00,0.8622
5442.00,0.8500
5441.00,0.8382
5440.00,0.8271
5439.00,0.8167
5438.00,0.8071
5437.00,0.7985
5436.00,0.7907
5435.00,0.7836
5434.00,0.7773
5433.00,0.7718
5432.00,0.7673
5431.00,0.7638
5430.00,0.7614
5429.00,0.7599
5428.00,0.7593
5427.00,0.7596
5426.00,0.7610
5425.00,0.7634
5424.00,0.7667
5423.00,0.7708
5422.00,0.7757
5421.00,0.7816
5420.00,0.7883
5419.00,0.7959
5418.00,0.8043
5417.00,0.8133
5416.00,0.8228
5415.00,0.8329
5414.00,0.8436
5413.00,0.8548
5412.00,0.8663
5411.00,0.8782
5410.00,0.8905
5409.00,0.9032
5408.00,0.9161
5407.00,0.9294
5406.00,0.9429
5405.00,0.9566
5404.00,0.9704
5403.00,0.9845
5402.00,0.9986
5401.00,1.0129
5400.00,1.0272
5399.00,1.0413
5398.00,1.0553
5397.00,1.0691
5396.00,1.0828
5395.00,1.0965
5394.00,1.1104
5393.00,1.1245
5392.00,1.1385
5391.00,1.1520
5390.00,1.1649
5389.00,1.1771
5388.00,1.1888
5387.00,1.2004
5386.00,1.2120
5385.00,1.2236
5384.00,1.2351
5383.00,1.2461
5382.00,1.2565
5381.00,1.2663
5380.00,1.2757
5379.00,1.2847
5378.00,1.2934
5377.00,1.3016
5376.00,1.3093
5375.00,1.3165
5374.00,1.3234
5373.00,1.3300
5372.00,1.3366
5371.00,1.3431
5370.00,1.3491
5369.00,1.3544
5368.00,1.3588
5367.00,1.3626
5366.00,1.3658
5365.00,1.3688
5364.00,1.3715
5363.00,1.3738
5362.00,1.3756
5361.00,1.3769
5360.00,1.3777
5359.00,1.3783
5358.00,1.3787
5357.00,1.3785
5356.00,1.3776
5355.00,1.3761
5354.00,1.3740
5353.00,1.3715
5352.00,1.3686
5351.00,1.3653
5350.00,1.3617
5349.00,1.3574
5348.00,1.3526
5347.00,1.3474
5346.00,1.3418
5345.00,1.3360
5344.00,1.3299
5343.00,1.3233
5342.00,1.3162
5341.00,1.3085
5340.00,1.3003
5339.00,1.2918
5338.00,1.2829
5337.00,1.2732
5336.00,1.2629
5335.00,1.2521
5334.00,1.2409
5333.00,1.2293
5332.00,1.2174
5331.00,1.2053
5330.00,1.1931
5329.00,1.1804
5328.00,1.1672
5327.00,1.1536
5326.00,1.1396
5325.00,1.1253
5324.00,1.1108
5323.00,1.0961
5322.00,1.0812
5321.00,1.0662
5320.00,1.0510
5319.00,1.0358
5318.00,1.0206
5317.00,1.0054
5316.00,0.9901
5315.00,0.9749
5314.00,0.9598
5313.00,0.9449
5312.00,0.9303
5311.00,0.9158
5310.00,0.9016
5309.00,0.8879
5308.00,0.8745
5307.00,0.8616
5306.00,0.8493
5305.00,0.8376
5304.00,0.8267
5303.00,0.8165
5302.00,0.8072
5301.00,0.7988
5300.00,0.7914
5299.00,0.7848
5298.00,0.7793
5297.00,0.7748
5296.00,0.7712
5295.00,0.7687
5294.00,0.7672
5293.00,0.7667
5292.00,0.7672
5291.00,0.7687
5290.00,0.7712
5289.00,0.7747
5288.00,0.7791
5287.00,0.7845
5286.00,0.7909
5285.00,0.7983
5284.00,0.8065
5283.00,0.8154
5282.00,0.8251
5281.00,0.8355
5280.00,0.8466
5279.00,0.8582
5278.00,0.8704
5277.00,0.8830
5276.00,0.8961
5275.00,0.9095
5274.00,0.9233
5273.00,0.9373
5272.00,0.9515
5271.00,0.9658
5270.00,0.9803
5269.00,0.9949
5268.00,1.0096
5267.00,1.0244
5266.00,1.0393
5265.00,1.0544
5264.00,1.0695
5263.00,1.0847
5262.00,1.0997
5261.00,1.1146
5260.00,1.1292
5259.00,1.1434
5258.00,1.1573
5257.00,1.1709
5256.00,1.1843
5255.00,1.1976
5254.00,1.2106
5253.00,1.2232
5252.00,1.2354
5251.00,1.2473
5250.00,1.2589
5249.00,1.2701
5248.00,1.2810
5247.00,1.2914
5246.00,1.3014
5245.00,1.3110
5244.00,1.3201
5243.00,1.3288
5242.00,1.3371
5241.00,1.3451
5240.00,1.3527
5239.00,1.3598
5238.00,1.3664
5237.00,1.3724
5236.00,1.3779
5235.00,1.3830
5234.00,1.3877
5233.00,1.3920
5232.00,1.3957
5231.00,1.3989
5230.00,1.4017
5229.00,1.4041
5228.00,1.4061
5227.00,1.4080
5226.00,1.4095
5225.00,1.4104
5224.00,1.4104
5223.00,1.4099
5222.00,1.4092
5221.00,1.4083
5220.00,1.4070
5219.00,1.4051
5218.00,1.4027
5217.00,1.3999
5216.00,1.3966
5215.00,1.3929
5214.00,1.3888
5213.00,1.3844
5212.00,1.3795
5211.00,1.3740
5210.00,1.3680
5209.00,1.3616
5208.00,1.3547
5207.00,1.3473
5206.00,1.3393
5205.00,1.3307
5204.00,1.3217
5203.00,1.3122
5202.00,1.3023
5201.00,1.2919
5200.00,1.2813
5199.00,1.2704
5198.00,1.2593
5197.00,1.2478
5196.00,1.2358
5195.00,1.2231
5194.00,1.2099
5193.00,1.1962
5192.00,1.1822
5191.00,1.1680
5190.00,1.1535
5189.00,1.1388
5188.00,1.1237
5187.00,1.1083
5186.00,1.0926
5185.00,1.0767
5184.00,1.0607
5183.00,1.0445
5182.00,1.0284
5181.00,1.0123
5180.00,0.9963
5179.00,0.9804
5178.00,0.9646
5177.00,0.9491
5176.00,0.9337
5175.00,0.9186
5174.00,0.9037
5173.00,0.8893
5172.00,0.8755
5171.00,0.8622
5170.00,0.8496
5169.00,0.8377
5168.00,0.8265
5167.00,0.8160
5166.00,0.8064
5165.00,0.7976
5164.00,0.7897
5163.00,0.7828
5162.00,0.7768
5161.00,0.7719
5160.00,0.7681
5159.00,0.7654
5158.00,0.7639
5157.00,0.7634
5156.00,0.7641
5155.00,0.7659
5154.00,0.7688
5153.00,0.7729
5152.00,0.7780
5151.00,0.7840
5150.00,0.7910
5149.00,0.7989
5148.00,0.8076
5147.00,0.8172
5146.00,0.8275
5145.00,0.8385
5144.00,0.8500
5143.00,0.8622
5142.00,0.8749
5141.00,0.8882
5140.00,0.9021
5139.00,0.9163
5138.00,0.9309
5137.00,0.9457
5136.00,0.9606
5135.00,0.9754
5134.00,0.9904
5133.00,1.0057
5132.00,1.0212
5131.00,1.0369
5130.00,1.0527
5129.00,1.0685
5128.00,1.0841
5127.00,1.0996
5126.00,1.1149
5125.00,1.1301
5124.00,1.1451
5123.00,1.1599
5122.00,1.1743
5121.00,1.1885
5120.00,1.2023
5119.00,1.2160
5118.00,1.2294
5117.00,1.2426
5116.00,1.2553
5115.00,1.2676
5114.00,1.2794
5113.00,1.2907
5112.00,1.3016
5111.00,1.3123
5110.00,1.3228
5109.00,1.3329
5108.00,1.3426
5107.00,1.3518
5106.00,1.3604
5105.00,1.3685
5104.00,1.3759
5103.00,1.3827
5102.00,1.3889
5101.00,1.3946
5100.00,1.4001
5099.00,1.4053
5098.00,1.4101
5097.00,1.4142
5096.00,1.4177
5095.00,1.4207
5094.00,1.4233
5093.00,1.4257
5092.00,1.4280
5091.00,1.4299
5090.00,1.4314
5089.00,1.4322
5088.00,1.4324
5087.00,1.4321
5086.00,1.4315
5085.00,1.4304
5084.00,1.4290
5083.00,1.4272
5082.00,1.4249
5081.00,1.4220
5080.00,1.4185
5079.00,1.4144
5078.00,1.4098
5077.00,1.4049
5076.00,1.3997
5075.00,1.3943
5074.00,1.3884
5073.00,1.3820
5072.00,1.3749
5071.00,1.3671
5070.00,1.3588
5069.00,1.3502
5068.00,1.3413
5067.00,1.3320
5066.00,1.3222
5065.00,1.3117
5064.00,1.3005
5063.00,1.2888
5062.00,1.2769
5061.00,1.2646
5060.00,1.2518
5059.00,1.2384
5058.00,1.2244
5057.00,1.2099
5056.00,1.1950
5055.00,1.1798
5054.00,1.1645
5053.00,1.1489
5052.00,1.1329
5051.00,1.1168
5050.00,1.1005
5049.00,1.0840
5048.00,1.0673
5047.00,1.0505
5046.00,1.0336
5045.00,1.0166
5044.00,0.9996
5043.00,0.9827
5042.00,0.9661
5041.00,0.9497
5040.00,0.9336
5039.00,0.9178
5038.00,0.9024
5037.00,0.8875
5036.00,0.8732
5035.00,0.8596
5034.00,0.8467
5033.00,0.8345
5032.00,0.8231
5031.00,0.8124
5030.00,0.8027
5029.00,0.7940
5028.00,0.7865
5027.00,0.7801
5026.00,0.7748
5025.00,0.7706
5024.00,0.7674
5023.00,0.7655
5022.00,0.7648
5021.00,0.7654
5020.00,0.7672
5019.00,0.7703
5018.00,0.7745
5017.00,0.7799
5016.00,0.7862
5015.00,0.7937
5014.00,0.8021
5013.00,0.8115
5012.00,0.8218
5011.00,0.8329
5010.00,0.8448
5009.00,0.8573
5008.00,0.8704
5007.00,0.8839
5006.00,0.8979
5005.00,0.9124
5004.00,0.9273
5003.00,0.9426
5002.00,0.9582
5001.00,0.9741
5000.00,0.9901
4999.00,1.0063
4998.00,1.0227
4997.00,1.0393
4996.00,1.0561
4995.00,1.0728
4994.00,1.0894
4993.00,1.1060
4992.00,1.1225
4991.00,1.1387
4990.00,1.1546
4989.00,1.1703
4988.00,1.1858
4987.00,1.2010
4986.00,1.2160
4985.00,1.2308
4984.00,1.2453
4983.00,1.2593
4982.00,1.2728
4981.00,1.2859
4980.00,1.2987
4979.00,1.3110
4978.00,1.3228
4977.00,1.3341
4976.00,1.3448
4975.00,1.3549
4974.00,1.3641
4973.00,1.3727
4972.00,1.3808
4971.00,1.3890
4970.00,1.3974
4969.00,1.4058
4968.00,1.4137
4967.00,1.4207
4966.00,1.4268
4965.00,1.4323
4964.00,1.4373
4963.00,1.4419
4962.00,1.4461
4961.00,1.4498
4960.00,1.4531
4959.00,1.4559
4958.00,1.4582
4957.00,1.4602
4956.00,1.4616
4955.00,1.4623
4954.00,1.4626
4953.00,1.4625
4952.00,1.4623
4951.00,1.4618
4950.00,1.4609
4949.00,1.4594
4948.00,1.4573
4947.00,1.4545
4946.00,1.4513
4945.00,1.4477
4944.00,1.4434
4943.00,1.4386
4942.00,1.4332
4941.00,1.4275
4940.00,1.4215
4939.00,1.4154
4938.00,1.4088
4937.00,1.4017
4936.00,1.3939
4935.00,1.3855
4934.00,1.3764
4933.00,1.3669
4932.00,1.3568
4931.00,1.3462
4930.00,1.3351
4929.00,1.3237
4928.00,1.3120
4927.00,1.3000
4926.00,1.2875
4925.00,1.2743
4924.00,1.2605
4923.00,1.2461
4922.00,1.2312
4921.00,1.2159
4920.00,1.2002
4919.00,1.1842
4918.00,1.1680
4917.00,1.1515
4916.00,1.1347
4915.00,1.1175
4914.00,1.1000
4913.00,1.0822
4912.00,1.0643
4911.00,1.0463
4910.00,1.0285
4909.00,1.0107
4908.00,0.9929
4907.00,0.9753
4906.00,0.9578
4905.00,0.9405
4904.00,0.9235
4903.00,0.9070
4902.00,0.8911
4901.00,0.8757
4900.00,0.8611
4899.00,0.8470
4898.00,0.8337
4897.00,0.8212
4896.00,0.8096
4895.00,0.7989
4894.00,0.7894
4893.00,0.7810
4892.00,0.7739
4891.00,0.7679
4890.00,0.7632
4889.00,0.7597
4888.00,0.7576
4887.00,0.7568
4886.00,0.7574
4885.00,0.7593
4884.00,0.7625
4883.00,0.7670
4882.00,0.7728
4881.00,0.7797
4880.00,0.7877
4879.00,0.7967
4878.00,0.8067
4877.00,0.8177
4876.00,0.8295
4875.00,0.8421
4874.00,0.8554
4873.00,0.8693
4872.00,0.8838
4871.00,0.8987
4870.00,0.9142
4869.00,0.9300
4868.00,0.9462
4867.00,0.9627
4866.00,0.9794
4865.00,0.9964
4864.00,1.0135
4863.00,1.0308
4862.00,1.0481
4861.00,1.0656
4860.00,1.0832
4859.00,1.1006
4858.00,1.1179
4857.00,1.1350
4856.00,1.1519
4855.00,1.1684
4854.00,1.1846
4853.00,1.2006
4852.00,1.2165
4851.00,1.2322
4850.00,1.2476
4849.00,1.2626
4848.00,1.2772
4847.00,1.2915
4846.00,1.3054
4845.00,1.3191
4844.00,1.3324
4843.00,1.3450
4842.00,1.3568
4841.00,1.3679
4840.00,1.3783
4839.00,1.3884
4838.00,1.3980
4837.00,1.4073
4836.00,1.4162
4835.00,1.4246
4834.00,1.4326
4833.00,1.4402
4832.00,1.4474
4831.00,1.4540
4830.00,1.4598
4829.00,1.4650
4828.00,1.4698
4827.00,1.4741
4826.00,1.4780
4825.00,1.4815
4824.00,1.4844
4823.00,1.4869
4822.00,1.4889
4821.00,1.4906
4820.00,1.4921
4819.00,1.4932
4818.00,1.4937
4817.00,1.4936
4816.00,1.4930
4815.00,1.4919
4814.00,1.4901
4813.00,1.4876
4812.00,1.4846
4811.00,1.4813
4810.00,1.4778
4809.00,1.4741
4808.00,1.4701
4807.00,1.4656
4806.00,1.4605
4805.00,1.4548
4804.00,1.4486
4803.00,1.4420
4802.00,1.4348
4801.00,1.4269
4800.00,1.4183
4799.00,1.4091
4798.00,1.3994
4797.00,1.3894
4796.00,1.3790
4795.00,1.3682
4794.00,1.3569
4793.00,1.3450
4792.00,1.3325
4791.00,1.3195
4790.00,1.3060
4789.00,1.2921
4788.00,1.2777
4787.00,1.2628
4786.00,1.2473
4785.00,1.2313
4784.00,1.2147
4783.00,1.1978
4782.00,1.1806
4781.00,1.1631
4780.00,1.1453
4779.00,1.1273
4778.00,1.1090
4777.00,1.0905
4776.00,1.0718
4775.00,1.0530
4774.00,1.0342
4773.00,1.0154
4772.00,0.9968
4771.00,0.9783
4770.00,0.9601
4769.00,0.9422
4768.00,0.9248
4767.00,0.9078
4766.00,0.8915
4765.00,0.8759
4764.00,0.8610
4763.00,0.8470
4762.00,0.8338
4761.00,0.8217
4760.00,0.8105
4759.00,0.8005
4758.00,0.7916
4757.00,0.7840
4756.00,0.7777
4755.00,0.7729
4754.00,0.7695
4753.00,0.7675
4752.00,0.7668
4751.00,0.7676
4750.00,0.7697
4749.00,0.7732
4748.00,0.7781
4747.00,0.7843
4746.00,0.7918
4745.00,0.8005
4744.00,0.8103
4743.00,0.8212
4742.00,0.8330
4741.00,0.8458
4740.00,0.8592
4739.00,0.8734
4738.00,0.8883
4737.00,0.9037
4736.00,0.9197
4735.00,0.9362
4734.00,0.9531
4733.00,0.9703
4732.00,0.9878
4731.00,1.0055
4730.00,1.0235
4729.00,1.0415
4728.00,1.0597
4727.00,1.0780
4726.00,1.0964
4725.00,1.1147
4724.00,1.1330
4723.00,1.1511
4722.00,1.1689
4721.00,1.1866
4720.00,1.2040
4719.00,1.2212
4718.00,1.2379
4717.00,1.2543
4716.00,1.2704
4715.00,1.2861
4714.00,1.3014
4713.00,1.3165
4712.00,1.3311
4711.00,1.3453
4710.00,1.3589
4709.00,1.3720
4708.00,1.3845
4707.00,1.3964
4706.00,1.4077
4705.00,1.4183
4704.00,1.4285
4703.00,1.4383
4702.00,1.4475
4701.00,1.4561
4700.00,1.4643
4699.00,1.4721
4698.00,1.4797
4697.00,1.4870
4696.00,1.4937
4695.00,1.4996
4694.00,1.5047
4693.00,1.5091
4692.00,1.5133
4691.00,1.5172
4690.00,1.5207
4689.00,1.5237
4688.00,1.5262
4687.00,1.5283
4686.00,1.5298
4685.00,1.5308
4684.00,1.5313
4683.00,1.5314
4682.00,1.5310
4681.00,1.5301
4680.00,1.5288
4679.00,1.5273
4678.00,1.5254
4677.00,1.5230
4676.00,1.5201
4675.00,1.5166
4674.00,1.5124
4673.00,1.5078
4672.00,1.5027
4671.00,1.4974
4670.00,1.4915
4669.00,1.4852
4668.00,1.4785
4667.00,1.4714
4666.00,1.4638
4665.00,1.4556
4664.00,1.4466
4663.00,1.4371
4662.00,1.4270
4661.00,1.4165
4660.00,1.4056
4659.00,1.3942
4658.00,1.3821
4657.00,1.3693
4656.00,1.3559
4655.00,1.3420
4654.00,1.3276
4653.00,1.3129
4652.00,1.2975
4651.00,1.2817
4650.00,1.2652
4649.00,1.2481
4648.00,1.2306
4647.00,1.2126
4646.00,1.1941
4645.00,1.1753
4644.00,1.1562
4643.00,1.1369
4642.00,1.1174
4641.00,1.0978
4640.00,1.0780
4639.00,1.0582
4638.00,1.0384
4637.00,1.0187
4636.00,0.9992
4635.00,0.9799
4634.00,0.9609
4633.00,0.9424
4632.00,0.9242
4631.00,0.9067
4630.00,0.8899
4629.00,0.8739
4628.00,0.8588
4627.00,0.8447
4626.00,0.8317
4625.00,0.8197
4624.00,0.8090
4623.00,0.7995
4622.00,0.7914
4621.00,0.7847
4620.00,0.7793
4619.00,0.7755
4618.00,0.7733
4617.00,0.7726
4616.00,0.7734
4615.00,0.7757
4614.00,0.7794
4613.00,0.7846
4612.00,0.7911
4611.00,0.7989
4610.00,0.8079
4609.00,0.8181
4608.00,0.8295
4607.00,0.8418
4606.00,0.8552
4605.00,0.8693
4604.00,0.8842
4603.00,0.8997
4602.00,0.9158
4601.00,0.9326
4600.00,0.9498
4599.00,0.9674
4598.00,0.9853
4597.00,1.0034
4596.00,1.0218
4595.00,1.0403
4594.00,1.0591
4593.00,1.0781
4592.00,1.0971
4591.00,1.1161
4590.00,1.1350
4589.00,1.1539
4588.00,1.1728
4587.00,1.1914
4586.00,1.2097
4585.00,1.2278
4584.00,1.2456
4583.00,1.2631
4582.00,1.2804
4581.00,1.2972
4580.00,1.3136
4579.00,1.3295
4578.00,1.3449
4577.00,1.3597
4576.00,1.3740
4575.00,1.3877
4574.00,1.4011
4573.00,1.4140
4572.00,1.4264
4571.00,1.4383
4570.00,1.4496
4569.00,1.4602
4568.00,1.4701
4567.00,1.4795
4566.00,1.4885
4565.00,1.4969
4564.00,1.5049
4563.00,1.5125
4562.00,1.5196
4561.00,1.5263
4560.00,1.5324
4559.00,1.5380
4558.00,1.5431
4557.00,1.5475
4556.00,1.5514
4555.00,1.5547
4554.00,1.5576
4553.00,1.5601
4552.00,1.5621
4551.00,1.5637
4550.00,1.5649
4549.00,1.5657
4548.00,1.5660
4547.00,1.5660
4546.00,1.5654
4545.00,1.5644
4544.00,1.5629
4543.00,1.5610
4542.00,1.5585
4541.00,1.5553
4540.00,1.5514
4539.00,1.5469
4538.00,1.5419
4537.00,1.5366
4536.00,1.5310
4535.00,1.5252
4534.00,1.5191
4533.00,1.5125
4532.00,1.5054
4531.00,1.4976
4530.00,1.4890
4529.00,1.4798
4528.00,1.4699
4527.00,1.4594
4526.00,1.4484
4525.00,1.4370
4524.00,1.4252
4523.00,1.4130
4522.00,1.4002
4521.00,1.3868
4520.00,1.3726
4519.00,1.3579
4518.00,1.3427
4517.00,1.3270
4516.00,1.3105
4515.00,1.2934
4514.00,1.2755
4513.00,1.2572
4512.00,1.2384
4511.00,1.2193
4510.00,1.1999
4509.00,1.1801
4508.00,1.1600
4507.00,1.1397
4506.00,1.1190
4505.00,1.0982
4504.00,1.0772
4503.00,1.0562
4502.00,1.0355
4501.00,1.0149
4500.00,0.9946
4499.00,0.9746
4498.00,0.9548
4497.00,0.9356
4496.00,0.9171
4495.00,0.8993
4494.00,0.8826
4493.00,0.8667
4492.00,0.8518
4491.00,0.8380
4490.00,0.8255
4489.00,0.8143
4488.00,0.8045
4487.00,0.7962
4486.00,0.7894
4485.00,0.7842
4484.00,0.7807
4483.00,0.7788
4482.00,0.7788
4481.00,0.7804
4480.00,0.7836
4479.00,0.7884
4478.00,0.7947
4477.00,0.8024
4476.00,0.8116
4475.00,0.8222
4474.00,0.8340
4473.00,0.8470
4472.00,0.8611
4471.00,0.8762
4470.00,0.8921
4469.00,0.9087
4468.00,0.9259
4467.00,0.9437
4466.00,0.9621
4465.00,0.9809
4464.00,1.0001
4463.00,1.0196
4462.00,1.0394
4461.00,1.0594
4460.00,1.0795
4459.00,1.0997
4458.00,1.1200
4457.00,1.1402
4456.00,1.1604
4455.00,1.1806
4454.00,1.2005
4453.00,1.2204
4452.00,1.2399
4451.00,1.2591
4450.00,1.2778
4449.00,1.2960
4448.00,1.3139
4447.00,1.3314
4446.00,1.3487
4445.00,1.3655
4444.00,1.3817
4443.00,1.3974
4442.00,1.4124
4441.00,1.4268
4440.00,1.4405
4439.00,1.4537
4438.00,1.4664
4437.00,1.4786
4436.00,1.4903
4435.00,1.5016
4434.00,1.5122
4433.00,1.5220
4432.00,1.5311
4431.00,1.5396
4430.00,1.5478
4429.00,1.5556
4428.00,1.5629
4427.00,1.5695
4426.00,1.5752
4425.00,1.5804
4424.00,1.5851
4423.00,1.5896
4422.00,1.5937
4421.00,1.5974
4420.00,1.6005
4419.00,1.6030
4418.00,1.6051
4417.00,1.6067
4416.00,1.6079
4415.00,1.6085
4414.00,1.6086
4413.00,1.6082
4412.00,1.6073
4411.00,1.6062
4410.00,1.6047
4409.00,1.6028
4408.00,1.6003
4407.00,1.5974
4406.00,1.5940
4405.00,1.5902
4404.00,1.5858
4403.00,1.5809
4402.00,1.5753
4401.00,1.5694
4400.00,1.5630
4399.00,1.5563
4398.00,1.5489
4397.00,1.5410
4396.00,1.5325
4395.00,1.5236
4394.00,1.5142
4393.00,1.5044
4392.00,1.4939
4391.00,1.4830
4390.00,1.4716
4389.00,1.4599
4388.00,1.4479
4387.00,1.4353
4386.00,1.4221
4385.00,1.4081
4384.00,1.3936
4383.00,1.3789
4382.00,1.3638
4381.00,1.3484
4380.00,1.3325
4379.00,1.3161
4378.00,1.2993
4377.00,1.2822
4376.00,1.2649
4375.00,1.2474
4374.00,1.2298
4373.00,1.2121
4372.00,1.1941
4371.00,1.1758
4370.00,1.1573
4369.00,1.1388
4368.00,1.1203
4367.00,1.1020
4366.00,1.0839
4365.00,1.0659
4364.00,1.0481
4363.00,1.0305
4362.00,1.0133
4361.00,0.9965
4360.00,0.9801
4359.00,0.9643
4358.00,0.9491
4357.00,0.9348
4356.00,0.9214
4355.00,0.9092
4354.00,0.8980
4353.00,0.8880
4352.00,0.8793
4351.00,0.8719
4350.00,0.8658
4349.00,0.8613
4348.00,0.8582
4347.00,0.8565
4346.00,0.8563
4345.00,0.8576
4344.00,0.8603
4343.00,0.8645
4342.00,0.8700
4341.00,0.8769
4340.00,0.8851
4339.00,0.8947
4338.00,0.9054
4337.00,0.9174
4336.00,0.9304
4335.00,0.9444
4334.00,0.9594
4333.00,0.9753
4332.00,0.9920
4331.00,1.0094
4330.00,1.0273
4329.00,1.0457
4328.00,1.0646
4327.00,1.0840
4326.00,1.1038
4325.00,1.1238
4324.00,1.1439
4323.00,1.1641
4322.00,1.1843
4321.00,1.2046
4320.00,1.2250
4319.00,1.2451
4318.00,1.2650
4317.00,1.2844
4316.00,1.3035
4315.00,1.3224
4314.00,1.3409
4313.00,1.3590
4312.00,1.3766
4311.00,1.3937
4310.00,1.4105
4309.00,1.4269
4308.00,1.4427
4307.00,1.4579
4306.00,1.4724
4305.00,1.4863
4304.00,1.4996
4303.00,1.5125
4302.00,1.5248
4301.00,1.5365
4300.00,1.5474
4299.00,1.5577
4298.00,1.5672
4297.00,1.5760
4296.00,1.5845
4295.00,1.5928
4294.00,1.6011
4293.00,1.6091
4292.00,1.6166
4291.00,1.6234
4290.00,1.6294
4289.00,1.6347
4288.00,1.6393
4287.00,1.6434
4286.00,1.6471
4285.00,1.6504
4284.00,1.6533
4283.00,1.6558
4282.00,1.6578
4281.00,1.6594
4280.00,1.6605
4279.00,1.6612
4278.00,1.6613
4277.00,1.6612
4276.00,1.6608
4275.00,1.6603
4274.00,1.6594
4273.00,1.6578
4272.00,1.6555
4271.00,1.6524
4270.00,1.6488
4269.00,1.6448
4268.00,1.6406
4267.00,1.6360
4266.00,1.6311
4265.00,1.6258
4264.00,1.6198
4263.00,1.6130
4262.00,1.6055
4261.00,1.5972
4260.00,1.5884
4259.00,1.5791
4258.00,1.5694
4257.00,1.5594
4256.00,1.5490
4255.00,1.5379
4254.00,1.5261
4253.00,1.5136
4252.00,1.5004
4251.00,1.4867
4250.00,1.4725
4249.00,1.4577
4248.00,1.4424
4247.00,1.4263
4246.00,1.4095
4245.00,1.3921
4244.00,1.3741
4243.00,1.3556
4242.00,1.3364
4241.00,1.3167
4240.00,1.2963
4239.00,1.2756
4238.00,1.2544
4237.00,1.2329
4236.00,1.2112
4235.00,1.1893
4234.00,1.1674
4233.00,1.1454
4232.00,1.1237
4231.00,1.1021
4230.00,1.0808
4229.00,1.0598
4228.00,1.0391
4227.00,1.0191
4226.00,0.9998
4225.00,0.9814
4224.00,0.9639
4223.00,0.9474
4222.00,0.9319
4221.00,0.9176
4220.00,0.9044
4219.00,0.8925
4218.00,0.8820
4217.00,0.8730
4216.00,0.8654
4215.00,0.8594
4214.00,0.8551
4213.00,0.8523
4212.00,0.8513
4211.00,0.8520
4210.00,0.8545
4209.00,0.8586
4208.00,0.8644
4207.00,0.8718
4206.00,0.8808
4205.00,0.8912
4204.00,0.9029
4203.00,0.9160
4202.00,0.9302
4201.00,0.9456
4200.00,0.9618
4199.00,0.9790
4198.00,0.9970
4197.00,1.0157
4196.00,1.0350
4195.00,1.0549
4194.00,1.0752
4193.00,1.0958
4192.00,1.1166
4191.00,1.1376
4190.00,1.1588
4189.00,1.1802
4188.00,1.2016
4187.00,1.2230
4186.00,1.2443
4185.00,1.2654
4184.00,1.2863
4183.00,1.3068
4182.00,1.3270
4181.00,1.3469
4180.00,1.3663
4179.00,1.3853
4178.00,1.4037
4177.00,1.4216
4176.00,1.4390
4175.00,1.4560
4174.00,1.4723
4173.00,1.4880
4172.00,1.5031
4171.00,1.5177
4170.00,1.5316
4169.00,1.5450
4168.00,1.5579
4167.00,1.5703
4166.00,1.5821
4165.00,1.5932
4164.00,1.6035
4163.00,1.6132
4162.00,1.6224
4161.00,1.6314
4160.00,1.6400
4159.00,1.6479
4158.00,1.6550
4157.00,1.6614
4156.00,1.6673
4155.00,1.6731
4154.00,1.6787
4153.00,1.6838
4152.00,1.6882
4151.00,1.6915
4150.00,1.6941
4149.00,1.6964
4148.00,1.6987
4147.00,1.7008
4146.00,1.7026
4145.00,1.7038
4144.00,1.7044
4143.00,1.7045
4142.00,1.7043
4141.00,1.7037
4140.00,1.7027
4139.00,1.7013
4138.00,1.6992
4137.00,1.6966
4136.00,1.6932
4135.00,1.6892
4134.00,1.6845
4133.00,1.6794
4132.00,1.6740
4131.00,1.6685
4130.00,1.6628
4129.00,1.6566
4128.00,1.6496
4127.00,1.6419
4126.00,1.6334
4125.00,1.6244
4124.00,1.6150
4123.00,1.6052
4122.00,1.5948
4121.00,1.5836
4120.00,1.5718
4119.00,1.5592
4118.00,1.5461
4117.00,1.5324
4116.00,1.5182
4115.00,1.5036
4114.00,1.4885
4113.00,1.4726
4112.00,1.4558
4111.00,1.4383
4110.00,1.4201
4109.00,1.4015
4108.00,1.3824
4107.00,1.3628
4106.00,1.3426
4105.00,1.3218
4104.00,1.3005
4103.00,1.2786
4102.00,1.2565
4101.00,1.2341
4100.00,1.2116
4099.00,1.1891
4098.00,1.1665
4097.00,1.1438
4096.00,1.1210
4095.00,1.0983
4094.00,1.0757
4093.00,1.0537
4092.00,1.0323
4091.00,1.0116
4090.00,0.9917
4089.00,0.9726
4088.00,0.9545
4087.00,0.9375
4086.00,0.9217
4085.00,0.9073
4084.00,0.8944
4083.00,0.8831
4082.00,0.8733
4081.00,0.8653
4080.00,0.8592
4079.00,0.8548
4078.00,0.8524
4077.00,0.8520
4076.00,0.8534
4075.00,0.8568
4074.00,0.8621
4073.00,0.8691
4072.00,0.8779
4071.00,0.8883
4070.00,0.9004
4069.00,0.9139
4068.00,0.9289
4067.00,0.9450
4066.00,0.9623
4065.00,0.9807
4064.00,0.9998
4063.00,1.0198
4062.00,1.0404
4061.00,1.0617
4060.00,1.0834
4059.00,1.1056
4058.00,1.1282
4057.00,1.1510
4056.00,1.1740
4055.00,1.1970
4054.00,1.2201
4053.00,1.2430
4052.00,1.2658
4051.00,1.2885
4050.00,1.3109
4049.00,1.3329
4048.00,1.3546
4047.00,1.3759
4046.00,1.3968
4045.00,1.4173
4044.00,1.4372
4043.00,1.4565
4042.00,1.4751
4041.00,1.4931
4040.00,1.5104
4039.00,1.5270
4038.00,1.5430
4037.00,1.5582
4036.00,1.5727
4035.00,1.5866
4034.00,1.6001
4033.00,1.6131
4032.00,1.6257
4031.00,1.6377
4030.00,1.6490
4029.00,1.6596
4028.00,1.6694
4027.00,1.6786
4026.00,1.6871
4025.00,1.6949
4024.00,1.7022
4023.00,1.7092
4022.00,1.7159
4021.00,1.7224
4020.00,1.7284
4019.00,1.7339
4018.00,1.7387
4017.00,1.7430
4016.00,1.7469
4015.00,1.7504
4014.00,1.7536
4013.00,1.7562
4012.00,1.7582
4011.00,1.7593
4010.00,1.7597
4009.00,1.7596
4008.00,1.7592
4007.00,1.7586
4006.00,1.7577
4005.00,1.7564
4004.00,1.7545
4003.00,1.7519
4002.00,1.7487
4001.00,1.7451
4000.00,1.7410
3999.00,1.7365
3998.00,1.7315
3997.00,1.7261
3996.00,1.7201
3995.00,1.7137
3994.00,1.7069
3993.00,1.6995
3992.00,1.6913
3991.00,1.6824
3990.00,1.6728
3989.00,1.6627
3988.00,1.6523
3987.00,1.6415
3986.00,1.6302
3985.00,1.6181
3984.00,1.6051
3983.00,1.5915
3982.00,1.5773
3981.00,1.5626
3980.00,1.5472
3979.00,1.5312
3978.00,1.5143
3977.00,1.4968
3976.00,1.4785
3975.00,1.4596
3974.00,1.4402
3973.00,1.4202
3972.00,1.3995
3971.00,1.3782
3970.00,1.3561
3969.00,1.3335
3968.00,1.3103
3967.00,1.2866
3966.00,1.2627
3965.00,1.2385
3964.00,1.2142
3963.00,1.1899
3962.00,1.1657
3961.00,1.1417
3960.00,1.1183
3959.00,1.0954
3958.00,1.0730
3957.00,1.0511
3956.00,1.0301
3955.00,1.0100
3954.00,0.9910
3953.00,0.9733
3952.00,0.9568
3951.00,0.9415
3950.00,0.9276
3949.00,0.9151
3948.00,0.9041
3947.00,0.8948
3946.00,0.8874
3945.00,0.8817
3944.00,0.8781
3943.00,0.8765
3942.00,0.8770
3941.00,0.8796
3940.00,0.8842
3939.00,0.8907
3938.00,0.8991
3937.00,0.9093
3936.00,0.9211
3935.00,0.9344
3934.00,0.9493
3933.00,0.9655
3932.00,0.9833
3931.00,1.0023
3930.00,1.0223
3929.00,1.0429
3928.00,1.0639
3927.00,1.0854
3926.00,1.1074
3925.00,1.1301
3924.00,1.1534
3923.00,1.1771
3922.00,1.2008
3921.00,1.2244
3920.00,1.2479
3919.00,1.2716
3918.00,1.2955
3917.00,1.3199
3916.00,1.3443
3915.00,1.3685
3914.00,1.3920
3913.00,1.4145
3912.00,1.4362
3911.00,1.4573
3910.00,1.4778
3909.00,1.4977
3908.00,1.5167
3907.00,1.5348
3906.00,1.5521
3905.00,1.5689
3904.00,1.5857
3903.00,1.6023
3902.00,1.6186
3901.00,1.6342
3900.00,1.6492
3899.00,1.6635
3898.00,1.6770
3897.00,1.6895
3896.00,1.7006
3895.00,1.7105
3894.00,1.7197
3893.00,1.7285
3892.00,1.7372
3891.00,1.7459
3890.00,1.7543
3889.00,1.7621
3888.00,1.7688
3887.00,1.7744
3886.00,1.7793
3885.00,1.7841
3884.00,1.7889
3883.00,1.7934
3882.00,1.7971
3881.00,1.7998
3880.00,1.8020
3879.00,1.8039
3878.00,1.8056
3877.00,1.8067
3876.00,1.8069
3875.00,1.8065
3874.00,1.8057
3873.00,1.8047
3872.00,1.8032
3871.00,1.8009
3870.00,1.7979
3869.00,1.7945
3868.00,1.7910
3867.00,1.7873
3866.00,1.7826
3865.00,1.7767
3864.00,1.7699
3863.00,1.7631
3862.00,1.7562
3861.00,1.7491
3860.00,1.7414
3859.00,1.7333
3858.00,1.7252
3857.00,1.7171
3856.00,1.7083
3855.00,1.6979
3854.00,1.6849
3853.00,1.6701
3852.00,1.6555
3851.00,1.6422
3850.00,1.6297
3849.00,1.6167
3848.00,1.6028
3847.00,1.5883
3846.00,1.5733
3845.00,1.5574
3844.00,1.5403
3843.00,1.5219
3842.00,1.5028
3841.00,1.4831
3840.00,1.4628
3839.00,1.4411
3838.00,1.4179
3837.00,1.3936
3836.00,1.3688
3835.00,1.3440
3834.00,1.3185
3833.00,1.2920
3832.00,1.2645
3831.00,1.2367
3830.00,1.2093
3829.00,1.1825
3828.00,1.1557
3827.00,1.1289
3826.00,1.1023
3825.00,1.0768
3824.00,1.0529
3823.00,1.0295
3822.00,1.0057
3821.00,0.9814
3820.00,0.9584
3819.00,0.9383
3818.00,0.9212
3817.00,0.9058
3816.00,0.8914
3815.00,0.8787
3814.00,0.8686
3813.00,0.8614
3812.00,0.8569
3811.00,0.8546
3810.00,0.8549
3809.00,0.8580
3808.00,0.8643
3807.00,0.8735
3806.00,0.8847
3805.00,0.8972
3804.00,0.9107
3803.00,0.9259
3802.00,0.9442
3801.00,0.9659
3800.00,0.9896
3799.00,1.0133
3798.00,1.0362
3797.00,1.0590
3796.00,1.0828
3795.00,1.1079
3794.00,1.1336
3793.00,1.1592
3792.00,1.1849
3791.00,1.2109
3790.00,1.2372
3789.00,1.2639
3788.00,1.2905
3787.00,1.3168
3786.00,1.3430
3785.00,1.3693
3784.00,1.3954
3783.00,1.4209
3782.00,1.4454
3781.00,1.4688
3780.00,1.4917
3779.00,1.5144
3778.00,1.5369
3777.00,1.5588
3776.00,1.5797
3775.00,1.5994
3774.00,1.6180
3773.00,1.6357
3772.00,1.6525
3771.00,1.6686
3770.00,1.6840
3769.00,1.6990
3768.00,1.7132
3767.00,1.7267
3766.00,1.7396
3765.00,1.7521
3764.00,1.7641
3763.00,1.7752
3762.00,1.7853
3761.00,1.7946
3760.00,1.8035
3759.00,1.8123
3758.00,1.8208
3757.00,1.8288
3756.00,1.8358
3755.00,1.8418
3754.00,1.8471
3753.00,1.8522
3752.00,1.8575
3751.00,1.8628
3750.00,1.8679
3749.00,1.8723
3748.00,1.8760
3747.00,1.8789
3746.00,1.8810
3745.00,1.8825
3744.00,1.8837
3743.00,1.8849
3742.00,1.8862
3741.00,1.8873
3740.00,1.8879
3739.00,1.8880
3738.00,1.8878
3737.00,1.8871
3736.00,1.8860
3735.00,1.8846
3734.00,1.8828
3733.00,1.8797
3732.00,1.8745
3731.00,1.8675
3730.00,1.8599
3729.00,1.8503
3728.00,1.8413
3727.00,1.8282
3726.00,1.8188
3725.00,1.7945
3724.00,1.7723
3723.00,1.7642
3722.00,1.7504
3721.00,1.7385
3720.00,1.7246
3719.00,1.7106
3718.00,1.6953
3717.00,1.6794
3716.00,1.6631
3715.00,1.6463
3714.00,1.6287
3713.00,1.6095
3712.00,1.5883
3711.00,1.5652
3710.00,1.5417
3709.00,1.5173
3708.00,1.4933
3707.00,1.4672
3706.00,1.4449
3705.00,1.4233
3704.00,1.3965
3703.00,1.3683
3702.00,1.3384
3701.00,1.3082
3700.00,1.2782
3699.00,1.2494
3698.00,1.2217
3697.00,1.1951
3696.00,1.1695
3695.00,1.1456
3694.00,1.1237
3693.00,1.1037
3692.00,1.0857
3691.00,1.0694
3690.00,1.0549
3689.00,1.0416
3688.00,1.0301
3687.00,1.0207
3686.00,1.0140
3685.00,1.0099
3684.00,1.0079
3683.00,1.0083
3682.00,1.0109
3681.00,1.0161
3680.00,1.0233
3679.00,1.0326
3678.00,1.0438
3677.00,1.0574
3676.00,1.0741
3675.00,1.0936
3674.00,1.1143
3673.00,1.1345
3672.00,1.1542
3671.00,1.1752
3670.00,1.1992
3669.00,1.2260
3668.00,1.2536
3667.00,1.2802
3666.00,1.3052
3665.00,1.3294
3664.00,1.3538
3663.00,1.3790
3662.00,1.4047
3661.00,1.4303
3660.00,1.4553
3659.00,1.4795
3658.00,1.5032
3657.00,1.5272
3656.00,1.5519
3655.00,1.5768
3654.00,1.6004
3653.00,1.6218
3652.00,1.6411
3651.00,1.6597
3650.00,1.6786
3649.00,1.6984
3648.00,1.7189
3647.00,1.7393
3646.00,1.7583
3645.00,1.7750
3644.00,1.7898
3643.00,1.8038
3642.00,1.8177
3641.00,1.8315
3640.00,1.8449
3639.00,1.8574
3638.00,1.8690
3637.00,1.8800
3636.00,1.8910
3635.00,1.9019
3634.00,1.9121
3633.00,1.9215
3632.00,1.9304
3631.00,1.9383
3630.00,1.9450
3629.00,1.9514
3628.00,1.9585
3627.00,1.9656
3626.00,1.9717
3625.00,1.9767
3624.00,1.9798
3623.00,1.9833
3622.00,1.9839
3621.00,1.9863
3620.00,1.9915
3619.00,1.9949
3618.00,1.9981
3617.00,2.0005
3616.00,2.0028
3615.00,2.0048
3614.00,2.0063
3613.00,2.0074
3612.00,2.0082
3611.00,2.0086
3610.00,2.0083
3609.00,2.0073
3608.00,2.0060
3607.00,2.0047
3606.00,2.0034
3605.00,2.0016
3604.00,1.9993
3603.00,1.9964
3602.00,1.9934
3601.00,1.9903
3600.00,1.9876
3599.00,1.9845
3598.00,1.9810
3597.00,1.9754
3596.00,1.9720
3595.00,1.9679
3594.00,1.9617
3593.00,1.9562
3592.00,1.9503
3591.00,1.9442
3590.00,1.9376
3589.00,1.9304
3588.00,1.9225
3587.00,1.9139
3586.00,1.9050
3585.00,1.8960
3584.00,1.8867
3583.00,1.8770
3582.00,1.8668
3581.00,1.8564
3580.00,1.8454
3579.00,1.8338
3578.00,1.8213
3577.00,1.8088
3576.00,1.7964
3575.00,1.7839
3574.00,1.7714
3573.00,1.7589
3572.00,1.7467
3571.00,1.7347
3570.00,1.7225
3569.00,1.7098
3568.00,1.6969
3567.00,1.6838
3566.00,1.6706
3565.00,1.6578
3564.00,1.6457
3563.00,1.6341
3562.00,1.6229
3561.00,1.6120
3560.00,1.6017
3559.00,1.5922
3558.00,1.5833
3557.00,1.5749
3556.00,1.5671
3555.00,1.5598
3554.00,1.5534
3553.00,1.5478
3552.00,1.5431
3551.00,1.5394
3550.00,1.5366
3549.00,1.5347
3548.00,1.5337
3547.00,1.5334
3546.00,1.5340
3545.00,1.5353
3544.00,1.5377
3543.00,1.5411
3542.00,1.5454
3541.00,1.5506
3540.00,1.5564
3539.00,1.5628
3538.00,1.5698
3537.00,1.5775
3536.00,1.5859
3535.00,1.5949
3534.00,1.6044
3533.00,1.6143
3532.00,1.6246
3531.00,1.6354
3530.00,1.6465
3529.00,1.6580
3528.00,1.6699
3527.00,1.6821
3526.00,1.6943
3525.00,1.7064
3524.00,1.7185
3523.00,1.7309
3522.00,1.7436
3521.00,1.7564
3520.00,1.7691
3519.00,1.7816
3518.00,1.7939
3517.00,1.8060
3516.00,1.8180
3515.00,1.8297
3514.00,1.8412
3513.00,1.8527
3512.00,1.8640
3511.00,1.8750
3510.00,1.8857
3509.00,1.8963
3508.00,1.9068
3507.00,1.9171
3506.00,1.9271
3505.00,1.9369
3504.00,1.9469
3503.00,1.9574
3502.00,1.9679
3501.00,1.9780
3500.00,1.9874
3499.00,1.9963
3498.00,2.0047
3497.00,2.0128
3496.00,2.0206
3495.00,2.0282
3494.00,2.0354
3493.00,2.0422
3492.00,2.0487
3491.00,2.0551
3490.00,2.0613
3489.00,2.0668
3488.00,2.0718
3487.00,2.0767
3486.00,2.0818
3485.00,2.0870
3484.00,2.0916
3483.00,2.0953
3482.00,2.0984
3481.00,2.1016
3480.00,2.1053
3479.00,2.1091
3478.00,2.1123
3477.00,2.1146
3476.00,2.1162
3475.00,2.1172
3474.00,2.1177
3473.00,2.1176
3472.00,2.1172
3471.00,2.1170
3470.00,2.1172
3469.00,2.1174
3468.00,2.1173
3467.00,2.1165
3466.00,2.1150
3465.00,2.1132
3464.00,2.1111
3463.00,2.1082
3462.00,2.1043
3461.00,2.0998
3460.00,2.0954
3459.00,2.0914
3458.00,2.0872
3457.00,2.0825
3456.00,2.0769
3455.00,2.0707
3454.00,2.0638
3453.00,2.0566
3452.00,2.0493
3451.00,2.0418
3450.00,2.0341
3449.00,2.0260
3448.00,2.0177
3447.00,2.0088
3446.00,1.9994
3445.00,1.9896
3444.00,1.9795
3443.00,1.9692
3442.00,1.9588
3441.00,1.9483
3440.00,1.9376
3439.00,1.9262
3438.00,1.9139
3437.00,1.9006
3436.00,1.8869
3435.00,1.8729
3434.00,1.8589
3433.00,1.8449
3432.00,1.8310
3431.00,1.8172
3430.00,1.8036
3429.00,1.7901
3428.00,1.7766
3427.00,1.7629
3426.00,1.7492
3425.00,1.7357
3424.00,1.7228
3423.00,1.7109
3422.00,1.6998
3421.00,1.6896
3420.00,1.6801
3419.00,1.6713
3418.00,1.6633
3417.00,1.6560
3416.00,1.6495
3415.00,1.6437
3414.00,1.6387
3413.00,1.6343
3412.00,1.6306
3411.00,1.6277
3410.00,1.6252
3409.00,1.6230
3408.00,1.6208
3407.00,1.6183
3406.00,1.6156
3405.00,1.6128
3404.00,1.6099
3403.00,1.6067
3402.00,1.6034
3401.00,1.6000
3400.00,1.5967
3399.00,1.5936
3398.00,1.5909
3397.00,1.5888
3396.00,1.5877
3395.00,1.5875
3394.00,1.5883
3393.00,1.5903
3392.00,1.5934
3391.00,1.5978
3390.00,1.6033
3389.00,1.6099
3388.00,1.6175
3387.00,1.6262
3386.00,1.6359
3385.00,1.6465
3384.00,1.6578
3383.00,1.6696
3382.00,1.6819
3381.00,1.6948
3380.00,1.7083
3379.00,1.7224
3378.00,1.7370
3377.00,1.7520
3376.00,1.7673
3375.00,1.7825
3374.00,1.7975
3373.00,1.8124
3372.00,1.8274
3371.00,1.8424
3370.00,1.8575
3369.00,1.8723
3368.00,1.8871
3367.00,1.9016
3366.00,1.9159
3365.00,1.9296
3364.00,1.9427
3363.00,1.9552
3362.00,1.9674
3361.00,1.9793
3360.00,1.9910
3359.00,2.0019
3358.00,2.0121
3357.00,2.0215
3356.00,2.0306
3355.00,2.0395
3354.00,2.0481
3353.00,2.0563
3352.00,2.0642
3351.00,2.0715
3350.00,2.0783
3349.00,2.0848
3348.00,2.0913
3347.00,2.0975
3346.00,2.1028
3345.00,2.1070
3344.00,2.1103
3343.00,2.1132
3342.00,2.1158
3341.00,2.1181
3340.00,2.1204
3339.00,2.1230
3338.00,2.1259
3337.00,2.1283
3336.00,2.1295
3335.00,2.1292
3334.00,2.1280
3333.00,2.1265
3332.00,2.1249
3331.00,2.1230
3330.00,2.1206
3329.00,2.1183
3328.00,2.1161
3327.00,2.1138
3326.00,2.1110
3325.00,2.1074
3324.00,2.1034
3323.00,2.0986
3322.00,2.0930
3321.00,2.0868
3320.00,2.0803
3319.00,2.0738
3318.00,2.0667
3317.00,2.0587
3316.00,2.0499
3315.00,2.0403
3314.00,2.0302
3313.00,2.0199
3312.00,2.0093
3311.00,1.9985
3310.00,1.9874
3309.00,1.9760
3308.00,1.9642
3307.00,1.9521
3306.00,1.9391
3305.00,1.9253
3304.00,1.9107
3303.00,1.8954
3302.00,1.8797
3301.00,1.8636
3300.00,1.8473
3299.00,1.8307
3298.00,1.8136
3297.00,1.7963
3296.00,1.7789
3295.00,1.7615
3294.00,1.7436
3293.00,1.7252
3292.00,1.7065
3291.00,1.6878
3290.00,1.6695
3289.00,1.6516
3288.00,1.6339
3287.00,1.6164
3286.00,1.5994
3285.00,1.5830
3284.00,1.5674
3283.00,1.5524
3282.00,1.5382
3281.00,1.5250
3280.00,1.5128
3279.00,1.5017
3278.00,1.4917
3277.00,1.4830
3276.00,1.4758
3275.00,1.4702
3274.00,1.4662
3273.00,1.4637
3272.00,1.4625
3271.00,1.4628
3270.00,1.4645
3269.00,1.4678
3268.00,1.4727
3267.00,1.4792
3266.00,1.4870
3265.00,1.4962
3264.00,1.5065
3263.00,1.5178
3262.00,1.5301
3261.00,1.5435
3260.00,1.5578
3259.00,1.5730
3258.00,1.5889
3257.00,1.6055
3256.00,1.6227
3255.00,1.6403
3254.00,1.6582
3253.00,1.6760
3252.00,1.6937
3251.00,1.7115
3250.00,1.7296
3249.00,1.7479
3248.00,1.7663
3247.00,1.7844
3246.00,1.8023
3245.00,1.8200
3244.00,1.8376
3243.00,1.8548
3242.00,1.8717
3241.00,1.8884
3240.00,1.9049
3239.00,1.9212
3238.00,1.9370
3237.00,1.9523
3236.00,1.9669
3235.00,1.9811
3234.00,1.9947
3233.00,2.0075
3232.00,2.0198
3231.00,2.0319
3230.00,2.0439
3229.00,2.0555
3228.00,2.0665
3227.00,2.0770
3226.00,2.0874
3225.00,2.0975
3224.00,2.1069
3223.00,2.1152
3222.00,2.1228
3221.00,2.1303
3220.00,2.1379
3219.00,2.1451
3218.00,2.1512
3217.00,2.1561
3216.00,2.1603
3215.00,2.1642
3214.00,2.1682
3213.00,2.1720
3212.00,2.1753
3211.00,2.1782
3210.00,2.1808
3209.00,2.1835
3208.00,2.1863
3207.00,2.1886
3206.00,2.1900
3205.00,2.1905
3204.00,2.1900
3203.00,2.1889
3202.00,2.1876
3201.00,2.1864
3200.00,2.1853
3199.00,2.1839
3198.00,2.1819
3197.00,2.1792
3196.00,2.1759
3195.00,2.1722
3194.00,2.1684
3193.00,2.1648
3192.00,2.1611
3191.00,2.1568
3190.00,2.1518
3189.00,2.1464
3188.00,2.1407
3187.00,2.1343
3186.00,2.1270
3185.00,2.1189
3184.00,2.1108
3183.00,2.1026
3182.00,2.0942
3181.00,2.0852
3180.00,2.0756
3179.00,2.0651
3178.00,2.0538
3177.00,2.0420
3176.00,2.0299
3175.00,2.0177
3174.00,2.0050
3173.00,1.9919
3172.00,1.9781
3171.00,1.9638
3170.00,1.9490
3169.00,1.9336
3168.00,1.9178
3167.00,1.9017
3166.00,1.8854
3165.00,1.8688
3164.00,1.8519
3163.00,1.8347
3162.00,1.8171
3161.00,1.7989
3160.00,1.7805
3159.00,1.7621
3158.00,1.7438
3157.00,1.7259
3156.00,1.7084
3155.00,1.6912
3154.00,1.6743
3153.00,1.6578
3152.00,1.6420
3151.00,1.6270
3150.00,1.6128
3149.00,1.5998
3148.00,1.5879
3147.00,1.5771
3146.00,1.5673
3145.00,1.5587
3144.00,1.5516
3143.00,1.5461
3142.00,1.5423
3141.00,1.5402
3140.00,1.5397
3139.00,1.5409
3138.00,1.5438
3137.00,1.5484
3136.00,1.5545
3135.00,1.5620
3134.00,1.5707
3133.00,1.5810
3132.00,1.5927
3131.00,1.6058
3130.00,1.6200
3129.00,1.6352
3128.00,1.6511
3127.00,1.6678
3126.00,1.6851
3125.00,1.7029
3124.00,1.7213
3123.00,1.7401
3122.00,1.7594
3121.00,1.7789
3120.00,1.7985
3119.00,1.8183
3118.00,1.8381
3117.00,1.8578
3116.00,1.8772
3115.00,1.8962
3114.00,1.9147
3113.00,1.9331
3112.00,1.9512
3111.00,1.9689
3110.00,1.9862
3109.00,2.0032
3108.00,2.0198
3107.00,2.0357
3106.00,2.0507
3105.00,2.0649
3104.00,2.0786
3103.00,2.0921
3102.00,2.1056
3101.00,2.1187
3100.00,2.1312
3099.00,2.1425
3098.00,2.1528
3097.00,2.1626
3096.00,2.1723
3095.00,2.1820
3094.00,2.1914
3093.00,2.2000
3092.00,2.2077
3091.00,2.2145
3090.00,2.2208
3089.00,2.2270
3088.00,2.2331
3087.00,2.2387
3086.00,2.2434
3085.00,2.2473
3084.00,2.2509
3083.00,2.2542
3082.00,2.2570
3081.00,2.2591
3080.00,2.2605
3079.00,2.2615
3078.00,2.2619
3077.00,2.2618
3076.00,2.2612
3075.00,2.2599
3074.00,2.2576
3073.00,2.2544
3072.00,2.2510
3071.00,2.2479
3070.00,2.2453
3069.00,2.2424
3068.00,2.2386
3067.00,2.2335
3066.00,2.2273
3065.00,2.2206
3064.00,2.2133
3063.00,2.2054
3062.00,2.1967
3061.00,2.1873
3060.00,2.1772
3059.00,2.1664
3058.00,2.1549
3057.00,2.1429
3056.00,2.1306
3055.00,2.1179
3054.00,2.1046
3053.00,2.0905
3052.00,2.0756
3051.00,2.0597
3050.00,2.0431
3049.00,2.0256
3048.00,2.0071
3047.00,1.9874
3046.00,1.9669
3045.00,1.9462
3044.00,1.9257
3043.00,1.9049
3042.00,1.8836
3041.00,1.8617
3040.00,1.8396
3039.00,1.8175
3038.00,1.7959
3037.00,1.7751
3036.00,1.7553
3035.00,1.7365
3034.00,1.7190
3033.00,1.7031
3032.00,1.6890
3031.00,1.6767
3030.00,1.6664
3029.00,1.6583
3028.00,1.6528
3027.00,1.6500
3026.00,1.6498
3025.00,1.6521
3024.00,1.6567
3023.00,1.6640
3022.00,1.6740
3021.00,1.6868
3020.00,1.7021
3019.00,1.7195
3018.00,1.7389
3017.00,1.7599
3016.00,1.7827
3015.00,1.8070
3014.00,1.8327
3013.00,1.8596
3012.00,1.8874
3011.00,1.9155
3010.00,1.9438
3009.00,1.9720
3008.00,2.0000
3007.00,2.0279
3006.00,2.0555
3005.00,2.0829
3004.00,2.1102
3003.00,2.1370
3002.00,2.1626
3001.00,2.1869
3000.00,2.2101
2999.00,2.2325
2998.00,2.2542
2997.00,2.2751
2996.00,2.2948
2995.00,2.3129
2994.00,2.3295
2993.00,2.3451
2992.00,2.3598
2991.00,2.3734
2990.00,2.3858
2989.00,2.3978
2988.00,2.4096
2987.00,2.4207
2986.00,2.4300
2985.00,2.4380
2984.00,2.4461
2983.00,2.4551
2982.00,2.4648
2981.00,2.4749
2980.00,2.4860
2979.00,2.5005
2978.00,2.5208
2977.00,2.5488
2976.00,2.5848
2975.00,2.6276
2974.00,2.6758
2973.00,2.7290
2972.00,2.7878
2971.00,2.8520
2970.00,2.9208
2969.00,2.9944
2968.00,3.0746
2967.00,3.1631
2966.00,3.2579
2965.00,3.3525
2964.00,3.4383
2963.00,3.5120
2962.00,3.5813
2961.00,3.6613
2960.00,3.7604
2959.00,3.8667
2958.00,3.9504
2957.00,4.0033
2956.00,4.0556
2955.00,4.1381
2954.00,4.2574
2953.00,4.4065
2952.00,4.5640
2951.00,4.6611
2950.00,4.6419
2949.00,4.5693
2948.00,4.5102
2947.00,4.4850
2946.00,4.4951
2945.00,4.5141
2944.00,4.5122
2943.00,4.4961
2942.00,4.5215
2941.00,4.5946
2940.00,4.6978
2939.00,4.8528
2938.00,4.8945
2937.00,5.0021
2936.00,5.1350
2935.00,4.8656
2934.00,4.6654
2933.00,4.5194
2932.00,4.4949
2931.00,4.4214
2930.00,4.3489
2929.00,4.3393
2928.00,4.3476
2927.00,4.3697
2926.00,4.4044
2925.00,4.4421
2924.00,4.4561
2923.00,4.4083
2922.00,4.2915
2921.00,4.1393
2920.00,3.9827
2919.00,3.8374
2918.00,3.7103
2917.00,3.6009
2916.00,3.5036
2915.00,3.4147
2914.00,3.3377
2913.00,3.2782
2912.00,3.2362
2911.00,3.2054
2910.00,3.1790
2909.00,3.1537
2908.00,3.1287
2907.00,3.1028
2906.00,3.0758
2905.00,3.0503
2904.00,3.0295
2903.00,3.0127
2902.00,2.9964
2901.00,2.9776
2900.00,2.9571
2899.00,2.9368
2898.00,2.9181
2897.00,2.9017
2896.00,2.8884
2895.00,2.8787
2894.00,2.8719
2893.00,2.8666
2892.00,2.8613
2891.00,2.8561
2890.00,2.8516
2889.00,2.8477
2888.00,2.8441
2887.00,2.8408
2886.00,2.8393
2885.00,2.8415
2884.00,2.8486
2883.00,2.8598
2882.00,2.8739
2881.00,2.8894
2880.00,2.9057
2879.00,2.9233
2878.00,2.9451
2877.00,2.9747
2876.00,3.0133
2875.00,3.0586
2874.00,3.1082
2873.00,3.1639
2872.00,3.2293
2871.00,3.3048
2870.00,3.3851
2869.00,3.4649
2868.00,3.5415
2867.00,3.6109
2866.00,3.6630
2865.00,3.6889
2864.00,3.6926
2863.00,3.6863
2862.00,3.6766
2861.00,3.6584
2860.00,3.6233
2859.00,3.5709
2858.00,3.5068
2857.00,3.4338
2856.00,3.3505
2855.00,3.2575
2854.00,3.1601
2853.00,3.0663
2852.00,2.9817
2851.00,2.9086
2850.00,2.8462
2849.00,2.7923
2848.00,2.7444
2847.00,2.7008
2846.00,2.6617
2845.00,2.6281
2844.00,2.5996
2843.00,2.5744
2842.00,2.5505
2841.00,2.5268
2840.00,2.5031
2839.00,2.4798
2838.00,2.4571
2837.00,2.4353
2836.00,2.4137
2835.00,2.3915
2834.00,2.3683
2833.00,2.3451
2832.00,2.3227
2831.00,2.3010
2830.00,2.2789
2829.00,2.2558
2828.00,2.2314
2827.00,2.2060
2826.00,2.1790
2825.00,2.1502
2824.00,2.1194
2823.00,2.0867
2822.00,2.0521
2821.00,2.0161
2820.00,1.9787
2819.00,1.9402
2818.00,1.9013
2817.00,1.8626
2816.00,1.8250
2815.00,1.7889
2814.00,1.7552
2813.00,1.7244
2812.00,1.6975
2811.00,1.6750
2810.00,1.6569
2809.00,1.6434
2808.00,1.6347
2807.00,1.6309
2806.00,1.6321
2805.00,1.6384
2804.00,1.6495
2803.00,1.6650
2802.00,1.6843
2801.00,1.7065
2800.00,1.7309
2799.00,1.7567
2798.00,1.7829
2797.00,1.8090
2796.00,1.8343
2795.00,1.8591
2794.00,1.8834
2793.00,1.9076
2792.00,1.9319
2791.00,1.9565
2790.00,1.9812
2789.00,2.0062
2788.00,2.0313
2787.00,2.0566
2786.00,2.0816
2785.00,2.1059
2784.00,2.1296
2783.00,2.1529
2782.00,2.1756
2781.00,2.1971
2780.00,2.2165
2779.00,2.2338
2778.00,2.2497
2777.00,2.2651
2776.00,2.2801
2775.00,2.2942
2774.00,2.3071
2773.00,2.3188
2772.00,2.3295
2771.00,2.3396
2770.00,2.3493
2769.00,2.3590
2768.00,2.3688
2767.00,2.3781
2766.00,2.3860
2765.00,2.3918
2764.00,2.3961
2763.00,2.3996
2762.00,2.4033
2761.00,2.4070
2760.00,2.4102
2759.00,2.4125
2758.00,2.4138
2757.00,2.4145
2756.00,2.4146
2755.00,2.4139
2754.00,2.4127
2753.00,2.4113
2752.00,2.4097
2751.00,2.4073
2750.00,2.4039
2749.00,2.3996
2748.00,2.3945
2747.00,2.3884
2746.00,2.3812
2745.00,2.3732
2744.00,2.3649
2743.00,2.3565
2742.00,2.3479
2741.00,2.3387
2740.00,2.3285
2739.00,2.3174
2738.00,2.3056
2737.00,2.2934
2736.00,2.2807
2735.00,2.2671
2734.00,2.2524
2733.00,2.2364
2732.00,2.2193
2731.00,2.2011
2730.00,2.1820
2729.00,2.1619
2728.00,2.1407
2727.00,2.1186
2726.00,2.0953
2725.00,2.0707
2724.00,2.0448
2723.00,2.0176
2722.00,1.9892
2721.00,1.9597
2720.00,1.9290
2719.00,1.8975
2718.00,1.8650
2717.00,1.8317
2716.00,1.7975
2715.00,1.7624
2714.00,1.7267
2713.00,1.6907
2712.00,1.6546
2711.00,1.6188
2710.00,1.5836
2709.00,1.5494
2708.00,1.5169
2707.00,1.4866
2706.00,1.4588
2705.00,1.4341
2704.00,1.4130
2703.00,1.3957
2702.00,1.3827
2701.00,1.3740
2700.00,1.3699
2699.00,1.3703
2698.00,1.3754
2697.00,1.3849
2696.00,1.3987
2695.00,1.4164
2694.00,1.4376
2693.00,1.4619
2692.00,1.4891
2691.00,1.5190
2690.00,1.5511
2689.00,1.5851
2688.00,1.6204
2687.00,1.6569
2686.00,1.6944
2685.00,1.7325
2684.00,1.7709
2683.00,1.8088
2682.00,1.8455
2681.00,1.8808
2680.00,1.9146
2679.00,1.9469
2678.00,1.9775
2677.00,2.0062
2676.00,2.0328
2675.00,2.0573
2674.00,2.0801
2673.00,2.1014
2672.00,2.1213
2671.00,2.1400
2670.00,2.1573
2669.00,2.1734
2668.00,2.1884
2667.00,2.2027
2666.00,2.2166
2665.00,2.2305
2664.00,2.2448
2663.00,2.2592
2662.00,2.2736
2661.00,2.2881
2660.00,2.3030
2659.00,2.3185
2658.00,2.3341
2657.00,2.3494
2656.00,2.3641
2655.00,2.3773
2654.00,2.3885
2653.00,2.3979
2652.00,2.4068
2651.00,2.4160
2650.00,2.4254
2649.00,2.4340
2648.00,2.4413
2647.00,2.4480
2646.00,2.4546
2645.00,2.4612
2644.00,2.4672
2643.00,2.4722
2642.00,2.4760
2641.00,2.4793
2640.00,2.4826
2639.00,2.4859
2638.00,2.4887
2637.00,2.4906
2636.00,2.4916
2635.00,2.4923
2634.00,2.4930
2633.00,2.4935
2632.00,2.4932
2631.00,2.4921
2630.00,2.4908
2629.00,2.4895
2628.00,2.4887
2627.00,2.4878
2626.00,2.4858
2625.00,2.4821
2624.00,2.4769
2623.00,2.4713
2622.00,2.4660
2621.00,2.4604
2620.00,2.4535
2619.00,2.4455
2618.00,2.4375
2617.00,2.4307
2616.00,2.4245
2615.00,2.4173
2614.00,2.4080
2613.00,2.3968
2612.00,2.3850
2611.00,2.3735
2610.00,2.3622
2609.00,2.3503
2608.00,2.3371
2607.00,2.3230
2606.00,2.3082
2605.00,2.2927
2604.00,2.2760
2603.00,2.2575
2602.00,2.2373
2601.00,2.2160
2600.00,2.1941
2599.00,2.1715
2598.00,2.1478
2597.00,2.1227
2596.00,2.0963
2595.00,2.0689
2594.00,2.0405
2593.00,2.0110
2592.00,1.9803
2591.00,1.9483
2590.00,1.9153
2589.00,1.8817
2588.00,1.8473
2587.00,1.8122
2586.00,1.7764
2585.00,1.7403
2584.00,1.7039
2583.00,1.6675
2582.00,1.6315
2581.00,1.5964
2580.00,1.5626
2579.00,1.5306
2578.00,1.5007
2577.00,1.4732
2576.00,1.4485
2575.00,1.4270
2574.00,1.4090
2573.00,1.3950
2572.00,1.3851
2571.00,1.3794
2570.00,1.3779
2569.00,1.3806
2568.00,1.3873
2567.00,1.3978
2566.00,1.4119
2565.00,1.4294
2564.00,1.4501
2563.00,1.4737
2562.00,1.4999
2561.00,1.5285
2560.00,1.5592
2559.00,1.5916
2558.00,1.6256
2557.00,1.6608
2556.00,1.6969
2555.00,1.7335
2554.00,1.7704
2553.00,1.8073
2552.00,1.8441
2551.00,1.8808
2550.00,1.9172
2549.00,1.9531
2548.00,1.9878
2547.00,2.0207
2546.00,2.0518
2545.00,2.0814
2544.00,2.1098
2543.00,2.1372
2542.00,2.1633
2541.00,2.1881
2540.00,2.2116
2539.00,2.2338
2538.00,2.2549
2537.00,2.2753
2536.00,2.2952
2535.00,2.3144
2534.00,2.3326
2533.00,2.3499
2532.00,2.3660
2531.00,2.3812
2530.00,2.3953
2529.00,2.4085
2528.00,2.4213
2527.00,2.4346
2526.00,2.4483
2525.00,2.4617
2524.00,2.4737
2523.00,2.4839
2522.00,2.4929
2521.00,2.5011
2520.00,2.5084
2519.00,2.5146
2518.00,2.5202
2517.00,2.5260
2516.00,2.5320
2515.00,2.5378
2514.00,2.5430
2513.00,2.5479
2512.00,2.5528
2511.00,2.5580
2510.00,2.5629
2509.00,2.5666
2508.00,2.5684
2507.00,2.5691
2506.00,2.5704
2505.00,2.5734
2504.00,2.5773
2503.00,2.5799
2502.00,2.5799
2501.00,2.5776
2500.00,2.5744
2499.00,2.5718
2498.00,2.5701
2497.00,2.5683
2496.00,2.5651
2495.00,2.5601
2494.00,2.5543
2493.00,2.5489
2492.00,2.5439
2491.00,2.5383
2490.00,2.5317
2489.00,2.5244
2488.00,2.5162
2487.00,2.5069
2486.00,2.4968
2485.00,2.4866
2484.00,2.4767
2483.00,2.4663
2482.00,2.4549
2481.00,2.4425
2480.00,2.4294
2479.00,2.4158
2478.00,2.4018
2477.00,2.3873
2476.00,2.3725
2475.00,2.3570
2474.00,2.3400
2473.00,2.3215
2472.00,2.3015
2471.00,2.2804
2470.00,2.2584
2469.00,2.2357
2468.00,2.2119
2467.00,2.1867
2466.00,2.1599
2465.00,2.1318
2464.00,2.1027
2463.00,2.0725
2462.00,2.0409
2461.00,2.0078
2460.00,1.9728
2459.00,1.9359
2458.00,1.8972
2457.00,1.8573
2456.00,1.8164
2455.00,1.7746
2454.00,1.7322
2453.00,1.6895
2452.00,1.6467
2451.00,1.6045
2450.00,1.5631
2449.00,1.5231
2448.00,1.4850
2447.00,1.4492
2446.00,1.4164
2445.00,1.3874
2444.00,1.3627
2443.00,1.3430
2442.00,1.3286
2441.00,1.3198
2440.00,1.3169
2439.00,1.3201
2438.00,1.3291
2437.00,1.3437
2436.00,1.3636
2435.00,1.3882
2434.00,1.4171
2433.00,1.4497
2432.00,1.4854
2431.00,1.5235
2430.00,1.5633
2429.00,1.6042
2428.00,1.6457
2427.00,1.6875
2426.00,1.7294
2425.00,1.7713
2424.00,1.8129
2423.00,1.8540
2422.00,1.8942
2421.00,1.9335
2420.00,1.9718
2419.00,2.0088
2418.00,2.0443
2417.00,2.0780
2416.00,2.1104
2415.00,2.1417
2414.00,2.1718
2413.00,2.2002
2412.00,2.2269
2411.00,2.2523
2410.00,2.2769
2409.00,2.3010
2408.00,2.3246
2407.00,2.3471
2406.00,2.3683
2405.00,2.3882
2404.00,2.4069
2403.00,2.4247
2402.00,2.4416
2401.00,2.4580
2400.00,2.4744
2399.00,2.4905
2398.00,2.5056
2397.00,2.5194
2396.00,2.5320
2395.00,2.5437
2394.00,2.5548
2393.00,2.5652
2392.00,2.5753
2391.00,2.5851
2390.00,2.5953
2389.00,2.6041
2388.00,2.6128
2387.00,2.6211
2386.00,2.6283
2385.00,2.6347
2384.00,2.6404
2383.00,2.6455
2382.00,2.6498
2381.00,2.6536
2380.00,2.6572
2379.00,2.6607
2378.00,2.6636
2377.00,2.6660
2376.00,2.6680
2375.00,2.6700
2374.00,2.6724
2373.00,2.6747
2372.00,2.6755
2371.00,2.6746
2370.00,2.6732
2369.00,2.6736
2368.00,2.6759
2367.00,2.6778
2366.00,2.6767
2365.00,2.6726
2364.00,2.6671
2363.00,2.6607
2362.00,2.6528
2361.00,2.6436
2360.00,2.6344
2359.00,2.6260
2358.00,2.6180
2357.00,2.6098
2356.00,2.6010
2355.00,2.5914
2354.00,2.5806
2353.00,2.5686
2352.00,2.5558
2351.00,2.5428
2350.00,2.5300
2349.00,2.5177
2348.00,2.5061
2347.00,2.4945
2346.00,2.4818
2345.00,2.4676
2344.00,2.4517
2343.00,2.4343
2342.00,2.4154
2341.00,2.3950
2340.00,2.3738
2339.00,2.3525
2338.00,2.3315
2337.00,2.3102
2336.00,2.2876
2335.00,2.2623
2334.00,2.2342
2333.00,2.2039
2332.00,2.1723
2331.00,2.1397
2330.00,2.1057
2329.00,2.0702
2328.00,2.0328
2327.00,1.9936
2326.00,1.9522
2325.00,1.9109
2324.00,1.8633
2323.00,1.8220
2322.00,1.7654
2321.00,1.7301
2320.00,1.6529
2319.00,1.8488
2318.00,1.8850
2317.00,1.8282
2316.00,1.7875
2315.00,1.7418
2314.00,1.7041
2313.00,1.7136
2312.00,1.7465
2311.00,1.8115
2310.00,1.8605
2309.00,1.9052
2308.00,1.9251
2307.00,1.9455
2306.00,1.9550
2305.00,1.9696
2304.00,1.9751
2303.00,1.9834
2302.00,1.9860
2301.00,1.9973
2300.00,2.0076
2299.00,2.0285
2298.00,2.0447
2297.00,2.0654
2296.00,2.0796
2295.00,2.0983
2294.00,2.1139
2293.00,2.1334
2292.00,2.1518
2291.00,2.1708
2290.00,2.1888
2289.00,2.2063
2288.00,2.2258
2287.00,2.2463
2286.00,2.2694
2285.00,2.2918
2284.00,2.3137
2283.00,2.3318
2282.00,2.3477
2281.00,2.3630
2280.00,2.3824
2279.00,2.4056
2278.00,2.4297
2277.00,2.4508
2276.00,2.4681
2275.00,2.4841
2274.00,2.4991
2273.00,2.5146
2272.00,2.5291
2271.00,2.5431
2270.00,2.5561
2269.00,2.5693
2268.00,2.5832
2267.00,2.5978
2266.00,2.6117
2265.00,2.6243
2264.00,2.6356
2263.00,2.6471
2262.00,2.6593
2261.00,2.6723
2260.00,2.6855
2259.00,2.6968
2258.00,2.7064
2257.00,2.7136
2256.00,2.7205
2255.00,2.7281
2254.00,2.7373
2253.00,2.7478
2252.00,2.7571
2251.00,2.7634
2250.00,2.7651
2249.00,2.7647
2248.00,2.7644
2247.00,2.7662
2246.00,2.7690
2245.00,2.7710
2244.00,2.7710
2243.00,2.7690
2242.00,2.7659
2241.00,2.7625
2240.00,2.7590
2239.00,2.7557
2238.00,2.7532
2237.00,2.7526
2236.00,2.7537
2235.00,2.7543
2234.00,2.7521
2233.00,2.7466
2232.00,2.7393
2231.00,2.7321
2230.00,2.7256
2229.00,2.7192
2228.00,2.7124
2227.00,2.7051
2226.00,2.6977
2225.00,2.6909
2224.00,2.6841
2223.00,2.6760
2222.00,2.6656
2221.00,2.6536
2220.00,2.6410
2219.00,2.6282
2218.00,2.6148
2217.00,2.6006
2216.00,2.5851
2215.00,2.5683
2214.00,2.5502
2213.00,2.5319
2212.00,2.5142
2211.00,2.4968
2210.00,2.4783
2209.00,2.4578
2208.00,2.4356
2207.00,2.4127
2206.00,2.3890
2205.00,2.3639
2204.00,2.3370
2203.00,2.3081
2202.00,2.2776
2201.00,2.2459
2200.00,2.2131
2199.00,2.1789
2198.00,2.1424
2197.00,2.1035
2196.00,2.0621
2195.00,2.0187
2194.00,1.9738
2193.00,1.9277
2192.00,1.8806
2191.00,1.8331
2190.00,1.7857
2189.00,1.7394
2188.00,1.6946
2187.00,1.6522
2186.00,1.6126
2185.00,1.5768
2184.00,1.5453
2183.00,1.5190
2182.00,1.4985
2181.00,1.4842
2180.00,1.4763
2179.00,1.4745
2178.00,1.4783
2177.00,1.4869
2176.00,1.4994
2175.00,1.5155
2174.00,1.5346
2173.00,1.5570
2172.00,1.5828
2171.00,1.6119
2170.00,1.6442
2169.00,1.6796
2168.00,1.7178
2167.00,1.7582
2166.00,1.8005
2165.00,1.8441
2164.00,1.8887
2163.00,1.9341
2162.00,1.9796
2161.00,2.0246
2160.00,2.0686
2159.00,2.1115
2158.00,2.1531
2157.00,2.1932
2156.00,2.2317
2155.00,2.2685
2154.00,2.3032
2153.00,2.3355
2152.00,2.3658
2151.00,2.3946
2150.00,2.4223
2149.00,2.4494
2148.00,2.4758
2147.00,2.5011
2146.00,2.5247
2145.00,2.5464
2144.00,2.5667
2143.00,2.5862
2142.00,2.6049
2141.00,2.6226
2140.00,2.6389
2139.00,2.6543
2138.00,2.6687
2137.00,2.6822
2136.00,2.6953
2135.00,2.7082
2134.00,2.7207
2133.00,2.7323
2132.00,2.7432
2131.00,2.7539
2130.00,2.7647
2129.00,2.7751
2128.00,2.7844
2127.00,2.7925
2126.00,2.8002
2125.00,2.8077
2124.00,2.8154
2123.00,2.8228
2122.00,2.8291
2121.00,2.8329
2120.00,2.8341
2119.00,2.8350
2118.00,2.8382
2117.00,2.8436
2116.00,2.8483
2115.00,2.8496
2114.00,2.8482
2113.00,2.8469
2112.00,2.8470
2111.00,2.8485
2110.00,2.8503
2109.00,2.8515
2108.00,2.8503
2107.00,2.8454
2106.00,2.8384
2105.00,2.8329
2104.00,2.8315
2103.00,2.8333
2102.00,2.8352
2101.00,2.8347
2100.00,2.8314
2099.00,2.8253
2098.00,2.8171
2097.00,2.8078
2096.00,2.7982
2095.00,2.7888
2094.00,2.7792
2093.00,2.7696
2092.00,2.7600
2091.00,2.7503
2090.00,2.7401
2089.00,2.7295
2088.00,2.7185
2087.00,2.7064
2086.00,2.6924
2085.00,2.6762
2084.00,2.6587
2083.00,2.6410
2082.00,2.6236
2081.00,2.6062
2080.00,2.5880
2079.00,2.5677
2078.00,2.5450
2077.00,2.5209
2076.00,2.4965
2075.00,2.4715
2074.00,2.4449
2073.00,2.4160
2072.00,2.3855
2071.00,2.3544
2070.00,2.3231
2069.00,2.2914
2068.00,2.2591
2067.00,2.2255
2066.00,2.1900
2065.00,2.1524
2064.00,2.1137
2063.00,2.0742
2062.00,2.0339
2061.00,1.9921
2060.00,1.9484
2059.00,1.9024
2058.00,1.8544
2057.00,1.8051
2056.00,1.7554
2055.00,1.7064
2054.00,1.6593
2053.00,1.6154
2052.00,1.5762
2051.00,1.5430
2050.00,1.5169
2049.00,1.4988
2048.00,1.4893
2047.00,1.4886
2046.00,1.4967
2045.00,1.5132
2044.00,1.5374
2043.00,1.5683
2042.00,1.6046
2041.00,1.6453
2040.00,1.6901
2039.00,1.7383
2038.00,1.7892
2037.00,1.8416
2036.00,1.8947
2035.00,1.9477
2034.00,1.9997
2033.00,2.0503
2032.00,2.0990
2031.00,2.1460
2030.00,2.1916
2029.00,2.2360
2028.00,2.2790
2027.00,2.3196
2026.00,2.3571
2025.00,2.3918
2024.00,2.4243
2023.00,2.4554
2022.00,2.4854
2021.00,2.5141
2020.00,2.5408
2019.00,2.5652
2018.00,2.5875
2017.00,2.6088
2016.00,2.6303
2015.00,2.6519
2014.00,2.6731
2013.00,2.6932
2012.00,2.7125
2011.00,2.7318
2010.00,2.7506
2009.00,2.7680
2008.00,2.7828
2007.00,2.7950
2006.00,2.8053
2005.00,2.8149
2004.00,2.8249
2003.00,2.8366
2002.00,2.8503
2001.00,2.8641
2000.00,2.8748
1999.00,2.8817
1998.00,2.8877
1997.00,2.8963
1996.00,2.9072
1995.00,2.9163
1994.00,2.9206
1993.00,2.9222
1992.00,2.9257
1991.00,2.9326
1990.00,2.9410
1989.00,2.9480
1988.00,2.9517
1987.00,2.9529
1986.00,2.9536
1985.00,2.9544
1984.00,2.9540
1983.00,2.9506
1982.00,2.9456
1981.00,2.9433
1980.00,2.9453
1979.00,2.9490
1978.00,2.9503
1977.00,2.9494
1976.00,2.9485
1975.00,2.9479
1974.00,2.9447
1973.00,2.9380
1972.00,2.9303
1971.00,2.9241
1970.00,2.9198
1969.00,2.9154
1968.00,2.9091
1967.00,2.8996
1966.00,2.8872
1965.00,2.8739
1964.00,2.8622
1963.00,2.8523
1962.00,2.8428
1961.00,2.8323
1960.00,2.8203
1959.00,2.8072
1958.00,2.7929
1957.00,2.7770
1956.00,2.7596
1955.00,2.7411
1954.00,2.7219
1953.00,2.7020
1952.00,2.6808
1951.00,2.6578
1950.00,2.6335
1949.00,2.6092
1948.00,2.5857
1947.00,2.5622
1946.00,2.5371
1945.00,2.5088
1944.00,2.4770
1943.00,2.4427
1942.00,2.4070
1941.00,2.3704
1940.00,2.3326
1939.00,2.2924
1938.00,2.2490
1937.00,2.2029
1936.00,2.1541
1935.00,2.1022
1934.00,2.0475
1933.00,1.9909
1932.00,1.9335
1931.00,1.8762
1930.00,1.8203
1929.00,1.7671
1928.00,1.7176
1927.00,1.6729
1926.00,1.6340
1925.00,1.6019
1924.00,1.5772
1923.00,1.5611
1922.00,1.5550
1921.00,1.5599
1920.00,1.5762
1919.00,1.6039
1918.00,1.6424
1917.00,1.6885
1916.00,1.7371
1915.00,1.7852
1914.00,1.8342
1913.00,1.8863
1912.00,1.9412
1911.00,1.9962
1910.00,2.0500
1909.00,2.1025
1908.00,2.1543
1907.00,2.2058
1906.00,2.2568
1905.00,2.3068
1904.00,2.3545
1903.00,2.3992
1902.00,2.4409
1901.00,2.4801
1900.00,2.5173
1899.00,2.5531
1898.00,2.5871
1897.00,2.6186
1896.00,2.6470
1895.00,2.6731
1894.00,2.6983
1893.00,2.7226
1892.00,2.7455
1891.00,2.7684
1890.00,2.7935
1889.00,2.8200
1888.00,2.8441
1887.00,2.8636
1886.00,2.8790
1885.00,2.8922
1884.00,2.9052
1883.00,2.9189
1882.00,2.9328
1881.00,2.9444
1880.00,2.9522
1879.00,2.9577
1878.00,2.9647
1877.00,2.9751
1876.00,2.9875
1875.00,2.9988
1874.00,3.0080
1873.00,3.0147
1872.00,3.0193
1871.00,3.0235
1870.00,3.0293
1869.00,3.0355
1868.00,3.0373
1867.00,3.0341
1866.00,3.0321
1865.00,3.0366
1864.00,3.0467
1863.00,3.0564
1862.00,3.0606
1861.00,3.0586
1860.00,3.0537
1859.00,3.0487
1858.00,3.0441
1857.00,3.0395
1856.00,3.0356
1855.00,3.0332
1854.00,3.0314
1853.00,3.0276
1852.00,3.0199
1851.00,3.0083
1850.00,2.9942
1849.00,2.9796
1848.00,2.9657
1847.00,2.9526
1846.00,2.9409
1845.00,2.9316
1844.00,2.9250
1843.00,2.9182
1842.00,2.9064
1841.00,2.8890
1840.00,2.8694
1839.00,2.8486
1838.00,2.8245
1837.00,2.7966
1836.00,2.7672
1835.00,2.7392
1834.00,2.7119
1833.00,2.6827
1832.00,2.6509
1831.00,2.6183
1830.00,2.5857
1829.00,2.5507
1828.00,2.5096
1827.00,2.4617
1826.00,2.4099
1825.00,2.3584
1824.00,2.3085
1823.00,2.2579
1822.00,2.2058
1821.00,2.1551
1820.00,2.1097
1819.00,2.0708
1818.00,2.0382
1817.00,2.0137
1816.00,1.9999
1815.00,1.9981
1814.00,2.0069
1813.00,2.0244
1812.00,2.0493
1811.00,2.0803
1810.00,2.1159
1809.00,2.1537
1808.00,2.1909
1807.00,2.2257
1806.00,2.2578
1805.00,2.2877
1804.00,2.3156
1803.00,2.3419
1802.00,2.3682
1801.00,2.3980
1800.00,2.4343
1799.00,2.4760
1798.00,2.5196
1797.00,2.5615
1796.00,2.6005
1795.00,2.6384
1794.00,2.6781
1793.00,2.7219
1792.00,2.7685
1791.00,2.8108
1790.00,2.8440
1789.00,2.8715
1788.00,2.8998
1787.00,2.9321
1786.00,2.9673
1785.00,3.0013
1784.00,3.0300
1783.00,3.0520
1782.00,3.0690
1781.00,3.0844
1780.00,3.1011
1779.00,3.1190
1778.00,3.1383
1777.00,3.1577
1776.00,3.1744
1775.00,3.1850
1774.00,3.1891
1773.00,3.1917
1772.00,3.1970
1771.00,3.2019
1770.00,3.2021
1769.00,3.2000
1768.00,3.2015
1767.00,3.2096
1766.00,3.2196
1765.00,3.2248
1764.00,3.2224
1763.00,3.2128
1762.00,3.1953
1761.00,3.1704
1760.00,3.1411
1759.00,3.1129
1758.00,3.0905
1757.00,3.0764
1756.00,3.0711
1755.00,3.0724
1754.00,3.0784
1753.00,3.0909
1752.00,3.1140
1751.00,3.1496
1750.00,3.1932
1749.00,3.2382
1748.00,3.2853
1747.00,3.3397
1746.00,3.4014
1745.00,3.4685
1744.00,3.5420
1743.00,3.6270
1742.00,3.7285
1741.00,3.8448
1740.00,3.9669
1739.00,4.0633
1738.00,4.1114
1737.00,4.1417
1736.00,4.1654
1735.00,4.1670
1734.00,4.1433
1733.00,4.1126
1732.00,4.1085
1731.00,4.1546
1730.00,4.2735
1729.00,4.4916
1728.00,4.8326
1727.00,5.3339
1726.00,5.4456
1725.00,5.1047
1724.00,5.0894
1723.00,5.4055
1722.00,5.3677
1721.00,5.0799
1720.00,4.8606
1719.00,4.5913
1718.00,4.4707
1717.00,4.5150
1716.00,4.5420
1715.00,4.4579
1714.00,4.4151
1713.00,4.4332
1712.00,4.4471
1711.00,4.4566
1710.00,4.4937
1709.00,4.6502
1708.00,5.1154
1707.00,5.2643
1706.00,4.8763
1705.00,5.0650
1704.00,5.6061
1703.00,4.9832
1702.00,4.8173
1701.00,4.9088
1700.00,4.8394
1699.00,4.6737
1698.00,4.6464
1697.00,4.9097
1696.00,5.0972
1695.00,4.6677
1694.00,4.5448
1693.00,4.5090
1692.00,4.3805
1691.00,4.1948
1690.00,4.0243
1689.00,3.9068
1688.00,3.8288
1687.00,3.7659
1686.00,3.6866
1685.00,3.5885
1684.00,3.5046
1683.00,3.4505
1682.00,3.4117
1681.00,3.3721
1680.00,3.3304
1679.00,3.2963
1678.00,3.2709
1677.00,3.2466
1676.00,3.2160
1675.00,3.1793
1674.00,3.1366
1673.00,3.0838
1672.00,3.0270
1671.00,2.9829
1670.00,2.9596
1669.00,2.9510
1668.00,2.9464
1667.00,2.9401
1666.00,2.9350
1665.00,2.9400
1664.00,2.9615
1663.00,2.9989
1662.00,3.0426
1661.00,3.0797
1660.00,3.1062
1659.00,3.1267
1658.00,3.1460
1657.00,3.1639
1656.00,3.1763
1655.00,3.1800
1654.00,3.1806
1653.00,3.1904
1652.00,3.2091
1651.00,3.2194
1650.00,3.2168
1649.00,3.2253
1648.00,3.2457
1647.00,3.2557
1646.00,3.2539
1645.00,3.2513
1644.00,3.2509
1643.00,3.2511
1642.00,3.2558
1641.00,3.2607
1640.00,3.2571
1639.00,3.2450
1638.00,3.2320
1637.00,3.2248
1636.00,3.2258
1635.00,3.2321
1634.00,3.2372
1633.00,3.2321
1632.00,3.2164
1631.00,3.2025
1630.00,3.1932
1629.00,3.1832
1628.00,3.1687
1627.00,3.1487
1626.00,3.1244
1625.00,3.0982
1624.00,3.0715
1623.00,3.0442
1622.00,3.0145
1621.00,2.9819
1620.00,2.9480
1619.00,2.9131
1618.00,2.8738
1617.00,2.8272
1616.00,2.7772
1615.00,2.7300
1614.00,2.6884
1613.00,2.6515
1612.00,2.6143
1611.00,2.5714
1610.00,2.5208
1609.00,2.4640
1608.00,2.4039
1607.00,2.3440
1606.00,2.2868
1605.00,2.2336
1604.00,2.1853
1603.00,2.1429
1602.00,2.1089
1601.00,2.0854
1600.00,2.0733
1599.00,2.0727
1598.00,2.0827
1597.00,2.1023
1596.00,2.1300
1595.00,2.1652
1594.00,2.2070
1593.00,2.2541
1592.00,2.3046
1591.00,2.3568
1590.00,2.4094
1589.00,2.4613
1588.00,2.5113
1587.00,2.5589
1586.00,2.6041
1585.00,2.6469
1584.00,2.6877
1583.00,2.7275
1582.00,2.7672
1581.00,2.8070
1580.00,2.8443
1579.00,2.8751
1578.00,2.8970
1577.00,2.9124
1576.00,2.9283
1575.00,2.9509
1574.00,2.9789
1573.00,3.0075
1572.00,3.0359
1571.00,3.0655
1570.00,3.0986
1569.00,3.1321
1568.00,3.1567
1567.00,3.1694
1566.00,3.1768
1565.00,3.1872
1564.00,3.2000
1563.00,3.2075
1562.00,3.2065
1561.00,3.2051
1560.00,3.2200
1559.00,3.2587
1558.00,3.2839
1557.00,3.2829
1556.00,3.2704
1555.00,3.2525
1554.00,3.2486
1553.00,3.2568
1552.00,3.2662
1551.00,3.2722
1550.00,3.2798
1549.00,3.2932
1548.00,3.3099
1547.00,3.3221
1546.00,3.3224
1545.00,3.3100
1544.00,3.2883
1543.00,3.2639
1542.00,3.2459
1541.00,3.2367
1540.00,3.2299
1539.00,3.2238
1538.00,3.2267
1537.00,3.2317
1536.00,3.2331
1535.00,3.2347
1534.00,3.2312
1533.00,3.2219
1532.00,3.2079
1531.00,3.1923
1530.00,3.1789
1529.00,3.1690
1528.00,3.1605
1527.00,3.1475
1526.00,3.1276
1525.00,3.1042
1524.00,3.0790
1523.00,3.0481
1522.00,3.0091
1521.00,2.9662
1520.00,2.9284
1519.00,2.9014
1518.00,2.8832
1517.00,2.8678
1516.00,2.8465
1515.00,2.8161
1514.00,2.7798
1513.00,2.7402
1512.00,2.6987
1511.00,2.6540
1510.00,2.6031
1509.00,2.5443
1508.00,2.4755
1507.00,2.3996
1506.00,2.3316
1505.00,2.2976
1504.00,2.2755
1503.00,2.2392
1502.00,2.2047
1501.00,2.1773
1500.00,2.1553
1499.00,2.1394
1498.00,2.1280
1497.00,2.1197
1496.00,2.1183
1495.00,2.1307
1494.00,2.1578
1493.00,2.1975
1492.00,2.2480
1491.00,2.3067
1490.00,2.3680
1489.00,2.4262
1488.00,2.4846
1487.00,2.5499
1486.00,2.6191
1485.00,2.6858
1484.00,2.7484
1483.00,2.8077
1482.00,2.8648
1481.00,2.9193
1480.00,2.9698
1479.00,3.0177
1478.00,3.0661
1477.00,3.1167
1476.00,3.1650
1475.00,3.2046
1474.00,3.2368
1473.00,3.2735
1472.00,3.3239
1471.00,3.3810
1470.00,3.4269
1469.00,3.4523
1468.00,3.4680
1467.00,3.4880
1466.00,3.5139
1465.00,3.5342
1464.00,3.5397
1463.00,3.5385
1462.00,3.5486
1461.00,3.5819
1460.00,3.6352
1459.00,3.6863
1458.00,3.7114
1457.00,3.7081
1456.00,3.7072
1455.00,3.7385
1454.00,3.7968
1453.00,3.8709
1452.00,3.9573
1451.00,4.0440
1450.00,4.1202
1449.00,4.1768
1448.00,4.1754
1447.00,4.0662
1446.00,3.8997
1445.00,3.7574
1444.00,3.6648
1443.00,3.6197
1442.00,3.6082
1441.00,3.6074
1440.00,3.5996
1439.00,3.5847
1438.00,3.5789
1437.00,3.6013
1436.00,3.6579
1435.00,3.7312
1434.00,3.7921
1433.00,3.8212
1432.00,3.8169
1431.00,3.7934
1430.00,3.7669
1429.00,3.7457
1428.00,3.7340
1427.00,3.7349
1426.00,3.7505
1425.00,3.7818
1424.00,3.8229
1423.00,3.8578
1422.00,3.8672
1421.00,3.8442
1420.00,3.8022
1419.00,3.7545
1418.00,3.7005
1417.00,3.6445
1416.00,3.6015
1415.00,3.5814
1414.00,3.5822
1413.00,3.5919
1412.00,3.5926
1411.00,3.5734
1410.00,3.5444
1409.00,3.5235
1408.00,3.5185
1407.00,3.5293
1406.00,3.5509
1405.00,3.5741
1404.00,3.5881
1403.00,3.5871
1402.00,3.5736
1401.00,3.5542
1400.00,3.5377
1399.00,3.5267
1398.00,3.5141
1397.00,3.4920
1396.00,3.4617
1395.00,3.4334
1394.00,3.4164
1393.00,3.4123
1392.00,3.4120
1391.00,3.4046
1390.00,3.3862
1389.00,3.3603
1388.00,3.3347
1387.00,3.3153
1386.00,3.3017
1385.00,3.2886
1384.00,3.2721
1383.00,3.2544
1382.00,3.2384
1381.00,3.2207
1380.00,3.1959
1379.00,3.1634
1378.00,3.1277
1377.00,3.0927
1376.00,3.0591
1375.00,3.0255
1374.00,2.9907
1373.00,2.9552
1372.00,2.9194
1371.00,2.8830
1370.00,2.8463
1369.00,2.8118
1368.00,2.7815
1367.00,2.7573
1366.00,2.7403
1365.00,2.7307
1364.00,2.7271
1363.00,2.7279
1362.00,2.7339
1361.00,2.7503
1360.00,2.7816
1359.00,2.8272
1358.00,2.8841
1357.00,2.9489
1356.00,3.0189
1355.00,3.0939
1354.00,3.1771
1353.00,3.2725
1352.00,3.3780
1351.00,3.4793
1350.00,3.5525
1349.00,3.5876
1348.00,3.6002
1347.00,3.6076
1346.00,3.6092
1345.00,3.5978
1344.00,3.5806
1343.00,3.5738
1342.00,3.5869
1341.00,3.6192
1340.00,3.6618
1339.00,3.6929
1338.00,3.6756
1337.00,3.5992
1336.00,3.4970
1335.00,3.4007
1334.00,3.3263
1333.00,3.2805
1332.00,3.2648
1331.00,3.2773
1330.00,3.3119
1329.00,3.3586
1328.00,3.4084
1327.00,3.4585
1326.00,3.5086
1325.00,3.5525
1324.00,3.5820
1323.00,3.6003
1322.00,3.6229
1321.00,3.6638
1320.00,3.7257
1319.00,3.8036
1318.00,3.8785
1317.00,3.9260
1316.00,3.9645
1315.00,4.0164
1314.00,4.0653
1313.00,4.1078
1312.00,4.1475
1311.00,4.1474
1310.00,4.0682
1309.00,3.9360
1308.00,3.8065
1307.00,3.7086
1306.00,3.6432
1305.00,3.5992
1304.00,3.5663
1303.00,3.5405
1302.00,3.5194
1301.00,3.4996
1300.00,3.4802
1299.00,3.4662
1298.00,3.4651
1297.00,3.4816
1296.00,3.5145
1295.00,3.5568
1294.00,3.5962
1293.00,3.6216
1292.00,3.6319
1291.00,3.6315
1290.00,3.6200
1289.00,3.5956
1288.00,3.5656
1287.00,3.5483
1286.00,3.5599
1285.00,3.6015
1284.00,3.6540
1283.00,3.6843
1282.00,3.6705
1281.00,3.6265
1280.00,3.5849
1279.00,3.5708
1278.00,3.5930
1277.00,3.6424
1276.00,3.6934
1275.00,3.7197
1274.00,3.7133
1273.00,3.6835
1272.00,3.6494
1271.00,3.6324
1270.00,3.6446
1269.00,3.6778
1268.00,3.7113
1267.00,3.7316
1266.00,3.7386
1265.00,3.7348
1264.00,3.7148
1263.00,3.6753
1262.00,3.6287
1261.00,3.5962
1260.00,3.5872
1259.00,3.5888
1258.00,3.5773
1257.00,3.5473
1256.00,3.5170
1255.00,3.5037
1254.00,3.5081
1253.00,3.5177
1252.00,3.5196
1251.00,3.5106
1250.00,3.4930
1249.00,3.4695
1248.00,3.4431
1247.00,3.4188
1246.00,3.4014
1245.00,3.3918
1244.00,3.3890
1243.00,3.3937
1242.00,3.4066
1241.00,3.4247
1240.00,3.4438
1239.00,3.4657
1238.00,3.4962
1237.00,3.5395
1236.00,3.5945
1235.00,3.6571
1234.00,3.7233
1233.00,3.7925
1232.00,3.8618
1231.00,3.9281
1230.00,4.0005
1229.00,4.0926
1228.00,4.1906
1227.00,4.2292
1226.00,4.1888
1225.00,4.1554
1224.00,4.1801
1223.00,4.2500
1222.00,4.3017
1221.00,4.3060
1220.00,4.2997
1219.00,4.2841
1218.00,4.2325
1217.00,4.1279
1216.00,4.0026
1215.00,3.9110
1214.00,3.8717
1213.00,3.8671
1212.00,3.8616
1211.00,3.8238
1210.00,3.7506
1209.00,3.6629
1208.00,3.5830
1207.00,3.5246
1206.00,3.4906
1205.00,3.4731
1204.00,3.4582
1203.00,3.4369
1202.00,3.4101
1201.00,3.3822
1200.00,3.3548
1199.00,3.3286
1198.00,3.3064
1197.00,3.2920
1196.00,3.2890
1195.00,3.2986
1194.00,3.3199
1193.00,3.3494
1192.00,3.3780
1191.00,3.3961
1190.00,3.4034
1189.00,3.4128
1188.00,3.4381
1187.00,3.4788
1186.00,3.5177
1185.00,3.5370
1184.00,3.5367
1183.00,3.5250
1182.00,3.5097
1181.00,3.5028
1180.00,3.5151
1179.00,3.5492
1178.00,3.5964
1177.00,3.6421
1176.00,3.6794
1175.00,3.7136
1174.00,3.7530
1173.00,3.7886
1172.00,3.7988
1171.00,3.7861
1170.00,3.7761
1169.00,3.7822
1168.00,3.7981
1167.00,3.8143
1166.00,3.8313
1165.00,3.8647
1164.00,3.9283
1163.00,4.0169
1162.00,4.1022
1161.00,4.1115
1160.00,4.0079
1159.00,3.8885
1158.00,3.8096
1157.00,3.7715
1156.00,3.7581
1155.00,3.7569
1154.00,3.7708
1153.00,3.8153
1152.00,3.9013
1151.00,4.0070
1150.00,4.0971
1149.00,4.1757
1148.00,4.2210
1147.00,4.1518
1146.00,4.0066
1145.00,3.8978
1144.00,3.8654
1143.00,3.9092
1142.00,4.0077
1141.00,4.1025
1140.00,4.1206
1139.00,4.0436
1138.00,3.9426
1137.00,3.8665
1136.00,3.8168
1135.00,3.7852
1134.00,3.7682
1133.00,3.7813
1132.00,3.8307
1131.00,3.8874
1130.00,3.9058
1129.00,3.8794
1128.00,3.8462
1127.00,3.8313
1126.00,3.8304
1125.00,3.8328
1124.00,3.8404
1123.00,3.8581
1122.00,3.8886
1121.00,3.9259
1120.00,3.9461
1119.00,3.9345
1118.00,3.9084
1117.00,3.8890
1116.00,3.8703
1115.00,3.8363
1114.00,3.7948
1113.00,3.7692
1112.00,3.7687
1111.00,3.7746
1110.00,3.7705
1109.00,3.7795
1108.00,3.8154
1107.00,3.8558
1106.00,3.8888
1105.00,3.9406
1104.00,4.0324
1103.00,4.1318
1102.00,4.1542
1101.00,4.0912
1100.00,4.0113
1099.00,3.9540
1098.00,3.9232
1097.00,3.9006
1096.00,3.8572
1095.00,3.8051
1094.00,3.7649
1093.00,3.7232
1092.00,3.6729
1091.00,3.6333
1090.00,3.6127
1089.00,3.5991
1088.00,3.5835
1087.00,3.5695
1086.00,3.5559
1085.00,3.5304
1084.00,3.4968
1083.00,3.4829
1082.00,3.5113
1081.00,3.5708
1080.00,3.6097
1079.00,3.5893
1078.00,3.5461
1077.00,3.5248
1076.00,3.5248
1075.00,3.5266
1074.00,3.5262
1073.00,3.5342
1072.00,3.5560
1071.00,3.5871
1070.00,3.6268
1069.00,3.6813
1068.00,3.7402
1067.00,3.7693
1066.00,3.7581
1065.00,3.7493
1064.00,3.7724
1063.00,3.8066
1062.00,3.8028
1061.00,3.7604
1060.00,3.7295
1059.00,3.7381
1058.00,3.7855
1057.00,3.8626
1056.00,3.9472
1055.00,3.9875
1054.00,3.9694
1053.00,3.9288
1052.00,3.9000
1051.00,3.8983
1050.00,3.8867
1049.00,3.8179
1048.00,3.7196
1047.00,3.6524
1046.00,3.6400
1045.00,3.6738
1044.00,3.7316
1043.00,3.8005
1042.00,3.8724
1041.00,3.9157
1040.00,3.9067
1039.00,3.8789
1038.00,3.8811
1037.00,3.9340
1036.00,4.0039
1035.00,4.0231
1034.00,4.0143
1033.00,4.0417
1032.00,4.1124
1031.00,4.1619
1030.00,4.1511
1029.00,4.1645
1028.00,4.2123
1027.00,4.1872
1026.00,4.1247
1025.00,4.1071
1024.00,4.0928
1023.00,4.0048
1022.00,3.8914
1021.00,3.8348
1020.00,3.8635
1019.00,3.9631
1018.00,4.0580
1017.00,4.0909
1016.00,4.0795
1015.00,4.0559
1014.00,4.1080
1013.00,4.2641
1012.00,4.2868
1011.00,4.2122
1010.00,4.2921
1009.00,4.5162
1008.00,4.5075
1007.00,4.3073
1006.00,4.1487
1005.00,4.0462
1004.00,4.0409
1003.00,4.1619
1002.00,4.3983
1001.00,4.5557
1000.00,4.5194
999.00,4.5792
998.00,4.7787
997.00,4.8471
996.00,4.7078
995.00,4.2156
994.00,3.9790
993.00,3.8920
992.00,3.9071
991.00,3.9930
990.00,4.1029
989.00,4.2625
988.00,4.5640
987.00,4.3762
986.00,4.1540
985.00,4.1101
984.00,4.2109
983.00,4.4727
982.00,4.5245
981.00,4.3425
980.00,4.3342
979.00,4.4781
978.00,4.5775
977.00,4.5104
976.00,4.4667
975.00,4.4161
974.00,4.3960
973.00,4.4138
972.00,4.3495
971.00,4.1965
970.00,4.0756
969.00,4.0328
968.00,4.0517
967.00,4.0608
966.00,4.0185
965.00,3.9581
964.00,3.9214
963.00,3.9399
962.00,4.0208
961.00,4.1355
960.00,4.2031
959.00,4.2278
958.00,4.3285
957.00,4.4838
956.00,4.3696
955.00,4.1622
954.00,4.0426
953.00,4.0192
952.00,4.0514
951.00,4.0401
950.00,3.9612
949.00,3.9055
948.00,3.9201
947.00,3.9780
946.00,3.9846
945.00,3.8966
944.00,3.8148
943.00,3.8256
942.00,3.9657
941.00,4.2132
940.00,4.4707
939.00,4.9306
938.00,4.3428
937.00,4.1223
936.00,4.1135
935.00,4.1918
934.00,4.2164
933.00,4.1757
932.00,4.1235
931.00,4.0918
930.00,4.1109
929.00,4.1618
928.00,4.1787
927.00,4.1761
926.00,4.2204
925.00,4.2813
924.00,4.3023
923.00,4.3707
922.00,4.4436
921.00,4.4253
920.00,4.4596
919.00,4.4698
918.00,4.3514
917.00,4.2471
916.00,4.2820
915.00,4.5401
914.00,4.3577
913.00,4.0838
912.00,3.9982
911.00,3.9628
910.00,3.9502
909.00,4.0163
908.00,4.1671
907.00,4.2387
906.00,4.1521
905.00,4.1163
904.00,4.2136
903.00,4.4157
902.00,4.2741
901.00,4.0545
900.00,3.9360
899.00,3.8650
898.00,3.8350
897.00,3.8555
896.00,3.9202
895.00,3.9999
894.00,4.0725
893.00,4.1519
892.00,4.2283
891.00,4.2458
890.00,4.2823
889.00,4.3289
888.00,4.1712
887.00,4.0790
886.00,4.1813
885.00,4.2490
884.00,4.0792
883.00,4.0208
882.00,4.0804
881.00,4.1898
880.00,4.2639
879.00,4.4147
878.00,4.7842
877.00,4.4362
876.00,4.5126
875.00,4.8686
874.00,4.2429
873.00,4.1653
872.00,4.3017
871.00,4.4721
870.00,4.3878
869.00,4.2577
868.00,4.3058
867.00,4.5746
866.00,5.1231
865.00,4.8244
864.00,4.3402
863.00,4.1097
862.00,4.1324
861.00,4.5799
860.00,4.4159
859.00,4.0567
858.00,3.9702
857.00,3.9939
856.00,4.0584
855.00,4.1277
854.00,4.1819
853.00,4.2342
852.00,4.3073
851.00,4.5270
850.00,5.1585
849.00,4.6404
848.00,4.3324
847.00,4.1060
846.00,3.9641
845.00,3.9132
844.00,3.9108
843.00,3.9147
842.00,3.8730
841.00,3.8146
840.00,3.8000
839.00,3.8415
838.00,3.9162
837.00,3.9946
836.00,4.0704
835.00,4.1345
834.00,4.1332
833.00,4.0535
832.00,3.9780
831.00,4.0113
830.00,4.2020
829.00,4.3011
828.00,4.1839
827.00,4.1684
826.00,4.3656
825.00,4.8803
824.00,4.5350
823.00,4.3109
822.00,4.2193
821.00,4.1795
820.00,4.1293
819.00,3.9864
818.00,3.8836
817.00,3.9014
816.00,4.1719
815.00,4.7625
814.00,4.3661
813.00,4.2921
812.00,4.1298
811.00,4.0280
810.00,4.1797
809.00,4.3288
808.00,4.0404
807.00,3.8419
806.00,3.7417
805.00,3.6991
804.00,3.7078
803.00,3.7436
802.00,3.7859
801.00,3.8421
800.00,3.9538
799.00,4.1916
798.00,4.5156
797.00,4.2634
796.00,3.9797
795.00,3.8351
794.00,3.7955
793.00,3.8487
792.00,3.9386
791.00,3.9970
790.00,4.0420
789.00,4.1287
788.00,4.1941
787.00,4.0424
786.00,3.8721
785.00,3.8252
784.00,3.8964
783.00,4.0828
782.00,4.3491
781.00,4.5158
780.00,4.5182
779.00,4.4906
778.00,4.5756
777.00,4.6411
776.00,4.3893
775.00,4.1729
774.00,4.0603
773.00,4.0493
772.00,4.1778
771.00,4.4092
770.00,4.4454
769.00,4.5221
768.00,4.6982
767.00,4.4209
766.00,4.2348
765.00,4.1978
764.00,4.1963
763.00,4.1394
762.00,4.1301
761.00,4.2488
760.00,4.4136
759.00,4.4120
758.00,4.1620
757.00,3.9934
756.00,3.9361
755.00,3.9049
754.00,3.8695
753.00,3.8753
752.00,3.9734
751.00,4.1755
750.00,4.3829
749.00,4.2700
748.00,4.0279
747.00,3.8862
746.00,3.8450
745.00,3.8727
744.00,3.9577
743.00,4.0843
742.00,4.0586
741.00,3.9392
740.00,3.9336
739.00,4.0211
738.00,4.1135
737.00,4.1429
736.00,4.1650
735.00,4.2028
734.00,4.2027
733.00,4.1447
732.00,4.1871
731.00,4.4273
730.00,4.1738
729.00,3.9179
728.00,3.8941
727.00,4.0721
726.00,4.3295
725.00,4.1457
724.00,3.9916
723.00,3.9384
722.00,3.8902
721.00,3.8586
720.00,3.8736
719.00,3.9250
718.00,3.9627
717.00,3.9983
716.00,4.0773
715.00,4.1568
714.00,4.1008
713.00,3.9404
712.00,3.8082
711.00,3.7394
710.00,3.7102
709.00,3.7044
708.00,3.7213
707.00,3.7498
706.00,3.7722
705.00,3.7764
704.00,3.7614
703.00,3.7438
702.00,3.7498
701.00,3.7995
700.00,3.8753
