Created as New Dataset,Sample 110 By Administrator Date Wednesday, November 24 2021
cm-1,A
7502.00,0.9815
7501.00,0.9704
7500.00,0.9596
7499.00,0.9490
7498.00,0.9387
7497.00,0.9286
7496.00,0.9187
7495.00,0.9091
7494.00,0.8998
7493.00,0.8913
7492.00,0.8836
7491.00,0.8761
7490.00,0.8684
7489.00,0.8602
7488.00,0.8519
7487.00,0.8443
7486.00,0.8374
7485.00,0.8311
7484.00,0.8251
7483.00,0.8196
7482.00,0.8148
7481.00,0.8108
7480.00,0.8075
7479.00,0.8046
7478.00,0.8019
7477.00,0.7990
7476.00,0.7962
7475.00,0.7939
7474.00,0.7926
7473.00,0.7923
7472.00,0.7925
7471.00,0.7929
7470.00,0.7937
7469.00,0.7954
7468.00,0.7979
7467.00,0.8012
7466.00,0.8048
7465.00,0.8087
7464.00,0.8127
7463.00,0.8170
7462.00,0.8215
7461.00,0.8261
7460.00,0.8311
7459.00,0.8366
7458.00,0.8428
7457.00,0.8493
7456.00,0.8563
7455.00,0.8638
7454.00,0.8715
7453.00,0.8792
7452.00,0.8865
7451.00,0.8936
7450.00,0.9010
7449.00,0.9089
7448.00,0.9173
7447.00,0.9258
7446.00,0.9341
7445.00,0.9422
7444.00,0.9501
7443.00,0.9579
7442.00,0.9655
7441.00,0.9731
7440.00,0.9807
7439.00,0.9885
7438.00,0.9966
7437.00,1.0049
7436.00,1.0131
7435.00,1.0209
7434.00,1.0280
7433.00,1.0342
7432.00,1.0397
7431.00,1.0453
7430.00,1.0513
7429.00,1.0576
7428.00,1.0637
7427.00,1.0701
7426.00,1.0768
7425.00,1.0838
7424.00,1.0901
7423.00,1.0954
7422.00,1.0997
7421.00,1.1036
7420.00,1.1070
7419.00,1.1097
7418.00,1.1114
7417.00,1.1123
7416.00,1.1128
7415.00,1.1131
7414.00,1.1132
7413.00,1.1127
7412.00,1.1116
7411.00,1.1101
7410.00,1.1084
7409.00,1.1073
7408.00,1.1069
7407.00,1.1072
7406.00,1.1078
7405.00,1.1081
7404.00,1.1074
7403.00,1.1056
7402.00,1.1031
7401.00,1.1003
7400.00,1.0966
7399.00,1.0914
7398.00,1.0848
7397.00,1.0781
7396.00,1.0725
7395.00,1.0681
7394.00,1.0641
7393.00,1.0602
7392.00,1.0568
7391.00,1.0541
7390.00,1.0516
7389.00,1.0486
7388.00,1.0452
7387.00,1.0420
7386.00,1.0392
7385.00,1.0366
7384.00,1.0333
7383.00,1.0298
7382.00,1.0267
7381.00,1.0245
7380.00,1.0229
7379.00,1.0210
7378.00,1.0179
7377.00,1.0135
7376.00,1.0081
7375.00,1.0018
7374.00,0.9945
7373.00,0.9861
7372.00,0.9770
7371.00,0.9678
7370.00,0.9587
7369.00,0.9499
7368.00,0.9417
7367.00,0.9341
7366.00,0.9267
7365.00,0.9189
7364.00,0.9107
7363.00,0.9024
7362.00,0.8944
7361.00,0.8870
7360.00,0.8801
7359.00,0.8734
7358.00,0.8668
7357.00,0.8601
7356.00,0.8530
7355.00,0.8461
7354.00,0.8397
7353.00,0.8339
7352.00,0.8284
7351.00,0.8231
7350.00,0.8180
7349.00,0.8130
7348.00,0.8080
7347.00,0.8029
7346.00,0.7979
7345.00,0.7936
7344.00,0.7899
7343.00,0.7869
7342.00,0.7843
7341.00,0.7824
7340.00,0.7810
7339.00,0.7801
7338.00,0.7793
7337.00,0.7787
7336.00,0.7788
7335.00,0.7800
7334.00,0.7822
7333.00,0.7848
7332.00,0.7876
7331.00,0.7908
7330.00,0.7947
7329.00,0.7991
7328.00,0.8037
7327.00,0.8084
7326.00,0.8135
7325.00,0.8194
7324.00,0.8261
7323.00,0.8330
7322.00,0.8399
7321.00,0.8468
7320.00,0.8539
7319.00,0.8615
7318.00,0.8696
7317.00,0.8780
7316.00,0.8864
7315.00,0.8947
7314.00,0.9033
7313.00,0.9123
7312.00,0.9217
7311.00,0.9310
7310.00,0.9400
7309.00,0.9491
7308.00,0.9583
7307.00,0.9678
7306.00,0.9773
7305.00,0.9868
7304.00,0.9962
7303.00,1.0055
7302.00,1.0148
7301.00,1.0239
7300.00,1.0326
7299.00,1.0411
7298.00,1.0495
7297.00,1.0576
7296.00,1.0651
7295.00,1.0721
7294.00,1.0789
7293.00,1.0860
7292.00,1.0932
7291.00,1.1002
7290.00,1.1070
7289.00,1.1141
7288.00,1.1215
7287.00,1.1285
7286.00,1.1347
7285.00,1.1403
7284.00,1.1459
7283.00,1.1513
7282.00,1.1562
7281.00,1.1606
7280.00,1.1650
7279.00,1.1693
7278.00,1.1732
7277.00,1.1764
7276.00,1.1791
7275.00,1.1816
7274.00,1.1839
7273.00,1.1862
7272.00,1.1887
7271.00,1.1915
7270.00,1.1939
7269.00,1.1951
7268.00,1.1953
7267.00,1.1954
7266.00,1.1957
7265.00,1.1956
7264.00,1.1946
7263.00,1.1931
7262.00,1.1918
7261.00,1.1914
7260.00,1.1909
7259.00,1.1895
7258.00,1.1868
7257.00,1.1832
7256.00,1.1796
7255.00,1.1761
7254.00,1.1719
7253.00,1.1667
7252.00,1.1610
7251.00,1.1552
7250.00,1.1497
7249.00,1.1439
7248.00,1.1376
7247.00,1.1307
7246.00,1.1233
7245.00,1.1157
7244.00,1.1078
7243.00,1.0995
7242.00,1.0908
7241.00,1.0816
7240.00,1.0723
7239.00,1.0632
7238.00,1.0543
7237.00,1.0454
7236.00,1.0361
7235.00,1.0263
7234.00,1.0163
7233.00,1.0064
7232.00,0.9967
7231.00,0.9872
7230.00,0.9775
7229.00,0.9676
7228.00,0.9573
7227.00,0.9469
7226.00,0.9363
7225.00,0.9257
7224.00,0.9154
7223.00,0.9055
7222.00,0.8964
7221.00,0.8878
7220.00,0.8794
7219.00,0.8712
7218.00,0.8634
7217.00,0.8558
7216.00,0.8484
7215.00,0.8410
7214.00,0.8340
7213.00,0.8276
7212.00,0.8219
7211.00,0.8167
7210.00,0.8118
7209.00,0.8073
7208.00,0.8034
7207.00,0.8002
7206.00,0.7975
7205.00,0.7953
7204.00,0.7934
7203.00,0.7921
7202.00,0.7914
7201.00,0.7913
7200.00,0.7917
7199.00,0.7925
7198.00,0.7939
7197.00,0.7957
7196.00,0.7981
7195.00,0.8010
7194.00,0.8044
7193.00,0.8083
7192.00,0.8125
7191.00,0.8173
7190.00,0.8225
7189.00,0.8282
7188.00,0.8343
7187.00,0.8408
7186.00,0.8479
7185.00,0.8552
7184.00,0.8627
7183.00,0.8702
7182.00,0.8779
7181.00,0.8858
7180.00,0.8940
7179.00,0.9024
7178.00,0.9113
7177.00,0.9202
7176.00,0.9292
7175.00,0.9384
7174.00,0.9477
7173.00,0.9571
7172.00,0.9660
7171.00,0.9744
7170.00,0.9827
7169.00,0.9914
7168.00,1.0002
7167.00,1.0087
7166.00,1.0169
7165.00,1.0250
7164.00,1.0334
7163.00,1.0422
7162.00,1.0509
7161.00,1.0590
7160.00,1.0663
7159.00,1.0732
7158.00,1.0802
7157.00,1.0876
7156.00,1.0949
7155.00,1.1017
7154.00,1.1077
7153.00,1.1135
7152.00,1.1197
7151.00,1.1263
7150.00,1.1328
7149.00,1.1388
7148.00,1.1439
7147.00,1.1486
7146.00,1.1532
7145.00,1.1572
7144.00,1.1604
7143.00,1.1629
7142.00,1.1653
7141.00,1.1681
7140.00,1.1709
7139.00,1.1733
7138.00,1.1754
7137.00,1.1774
7136.00,1.1793
7135.00,1.1807
7134.00,1.1813
7133.00,1.1811
7132.00,1.1803
7131.00,1.1790
7130.00,1.1775
7129.00,1.1759
7128.00,1.1743
7127.00,1.1728
7126.00,1.1714
7125.00,1.1698
7124.00,1.1677
7123.00,1.1655
7122.00,1.1632
7121.00,1.1605
7120.00,1.1567
7119.00,1.1522
7118.00,1.1476
7117.00,1.1432
7116.00,1.1385
7115.00,1.1329
7114.00,1.1264
7113.00,1.1200
7112.00,1.1140
7111.00,1.1081
7110.00,1.1017
7109.00,1.0948
7108.00,1.0879
7107.00,1.0811
7106.00,1.0743
7105.00,1.0666
7104.00,1.0578
7103.00,1.0483
7102.00,1.0389
7101.00,1.0297
7100.00,1.0203
7099.00,1.0106
7098.00,1.0009
7097.00,0.9914
7096.00,0.9821
7095.00,0.9726
7094.00,0.9629
7093.00,0.9531
7092.00,0.9433
7091.00,0.9334
7090.00,0.9238
7089.00,0.9147
7088.00,0.9058
7087.00,0.8969
7086.00,0.8878
7085.00,0.8791
7084.00,0.8707
7083.00,0.8626
7082.00,0.8544
7081.00,0.8461
7080.00,0.8381
7079.00,0.8307
7078.00,0.8239
7077.00,0.8176
7076.00,0.8119
7075.00,0.8067
7074.00,0.8023
7073.00,0.7986
7072.00,0.7955
7071.00,0.7927
7070.00,0.7904
7069.00,0.7886
7068.00,0.7872
7067.00,0.7863
7066.00,0.7856
7065.00,0.7854
7064.00,0.7857
7063.00,0.7868
7062.00,0.7888
7061.00,0.7916
7060.00,0.7948
7059.00,0.7984
7058.00,0.8025
7057.00,0.8072
7056.00,0.8124
7055.00,0.8176
7054.00,0.8231
7053.00,0.8291
7052.00,0.8357
7051.00,0.8428
7050.00,0.8501
7049.00,0.8577
7048.00,0.8657
7047.00,0.8740
7046.00,0.8825
7045.00,0.8911
7044.00,0.8997
7043.00,0.9086
7042.00,0.9177
7041.00,0.9268
7040.00,0.9358
7039.00,0.9450
7038.00,0.9545
7037.00,0.9643
7036.00,0.9740
7035.00,0.9832
7034.00,0.9922
7033.00,1.0011
7032.00,1.0099
7031.00,1.0187
7030.00,1.0276
7029.00,1.0367
7028.00,1.0458
7027.00,1.0548
7026.00,1.0639
7025.00,1.0732
7024.00,1.0825
7023.00,1.0912
7022.00,1.0992
7021.00,1.1070
7020.00,1.1146
7019.00,1.1220
7018.00,1.1290
7017.00,1.1354
7016.00,1.1417
7015.00,1.1478
7014.00,1.1537
7013.00,1.1593
7012.00,1.1648
7011.00,1.1703
7010.00,1.1758
7009.00,1.1808
7008.00,1.1855
7007.00,1.1899
7006.00,1.1942
7005.00,1.1978
7004.00,1.2007
7003.00,1.2029
7002.00,1.2053
7001.00,1.2079
7000.00,1.2104
6999.00,1.2122
6998.00,1.2134
6997.00,1.2145
6996.00,1.2154
6995.00,1.2155
6994.00,1.2147
6993.00,1.2132
6992.00,1.2118
6991.00,1.2104
6990.00,1.2086
6989.00,1.2062
6988.00,1.2032
6987.00,1.2000
6986.00,1.1964
6985.00,1.1923
6984.00,1.1879
6983.00,1.1835
6982.00,1.1791
6981.00,1.1745
6980.00,1.1694
6979.00,1.1641
6978.00,1.1586
6977.00,1.1527
6976.00,1.1462
6975.00,1.1394
6974.00,1.1323
6973.00,1.1246
6972.00,1.1162
6971.00,1.1070
6970.00,1.0976
6969.00,1.0881
6968.00,1.0786
6967.00,1.0690
6966.00,1.0597
6965.00,1.0505
6964.00,1.0409
6963.00,1.0307
6962.00,1.0199
6961.00,1.0091
6960.00,0.9985
6959.00,0.9877
6958.00,0.9768
6957.00,0.9660
6956.00,0.9553
6955.00,0.9448
6954.00,0.9344
6953.00,0.9240
6952.00,0.9138
6951.00,0.9036
6950.00,0.8937
6949.00,0.8843
6948.00,0.8753
6947.00,0.8666
6946.00,0.8582
6945.00,0.8500
6944.00,0.8423
6943.00,0.8352
6942.00,0.8287
6941.00,0.8226
6940.00,0.8169
6939.00,0.8114
6938.00,0.8063
6937.00,0.8017
6936.00,0.7976
6935.00,0.7940
6934.00,0.7910
6933.00,0.7887
6932.00,0.7871
6931.00,0.7862
6930.00,0.7860
6929.00,0.7864
6928.00,0.7872
6927.00,0.7885
6926.00,0.7903
6925.00,0.7926
6924.00,0.7956
6923.00,0.7994
6922.00,0.8038
6921.00,0.8087
6920.00,0.8139
6919.00,0.8194
6918.00,0.8252
6917.00,0.8314
6916.00,0.8380
6915.00,0.8450
6914.00,0.8526
6913.00,0.8606
6912.00,0.8688
6911.00,0.8773
6910.00,0.8861
6909.00,0.8949
6908.00,0.9037
6907.00,0.9127
6906.00,0.9218
6905.00,0.9310
6904.00,0.9401
6903.00,0.9492
6902.00,0.9585
6901.00,0.9680
6900.00,0.9776
6899.00,0.9873
6898.00,0.9969
6897.00,1.0067
6896.00,1.0162
6895.00,1.0256
6894.00,1.0347
6893.00,1.0438
6892.00,1.0528
6891.00,1.0615
6890.00,1.0698
6889.00,1.0779
6888.00,1.0860
6887.00,1.0939
6886.00,1.1017
6885.00,1.1094
6884.00,1.1173
6883.00,1.1252
6882.00,1.1328
6881.00,1.1399
6880.00,1.1462
6879.00,1.1521
6878.00,1.1578
6877.00,1.1632
6876.00,1.1680
6875.00,1.1723
6874.00,1.1766
6873.00,1.1809
6872.00,1.1850
6871.00,1.1886
6870.00,1.1920
6869.00,1.1952
6868.00,1.1982
6867.00,1.2005
6866.00,1.2020
6865.00,1.2029
6864.00,1.2035
6863.00,1.2041
6862.00,1.2046
6861.00,1.2049
6860.00,1.2052
6859.00,1.2054
6858.00,1.2053
6857.00,1.2047
6856.00,1.2035
6855.00,1.2021
6854.00,1.2003
6853.00,1.1977
6852.00,1.1940
6851.00,1.1898
6850.00,1.1857
6849.00,1.1818
6848.00,1.1776
6847.00,1.1730
6846.00,1.1680
6845.00,1.1631
6844.00,1.1580
6843.00,1.1523
6842.00,1.1461
6841.00,1.1393
6840.00,1.1321
6839.00,1.1247
6838.00,1.1172
6837.00,1.1097
6836.00,1.1019
6835.00,1.0937
6834.00,1.0852
6833.00,1.0767
6832.00,1.0679
6831.00,1.0584
6830.00,1.0483
6829.00,1.0379
6828.00,1.0276
6827.00,1.0176
6826.00,1.0077
6825.00,0.9978
6824.00,0.9877
6823.00,0.9775
6822.00,0.9673
6821.00,0.9570
6820.00,0.9465
6819.00,0.9359
6818.00,0.9252
6817.00,0.9147
6816.00,0.9045
6815.00,0.8945
6814.00,0.8850
6813.00,0.8759
6812.00,0.8672
6811.00,0.8588
6810.00,0.8507
6809.00,0.8427
6808.00,0.8349
6807.00,0.8274
6806.00,0.8203
6805.00,0.8138
6804.00,0.8078
6803.00,0.8022
6802.00,0.7972
6801.00,0.7929
6800.00,0.7891
6799.00,0.7857
6798.00,0.7831
6797.00,0.7811
6796.00,0.7799
6795.00,0.7794
6794.00,0.7793
6793.00,0.7797
6792.00,0.7806
6791.00,0.7819
6790.00,0.7838
6789.00,0.7864
6788.00,0.7898
6787.00,0.7937
6786.00,0.7982
6785.00,0.8032
6784.00,0.8087
6783.00,0.8145
6782.00,0.8208
6781.00,0.8275
6780.00,0.8346
6779.00,0.8422
6778.00,0.8503
6777.00,0.8587
6776.00,0.8674
6775.00,0.8762
6774.00,0.8851
6773.00,0.8942
6772.00,0.9033
6771.00,0.9126
6770.00,0.9222
6769.00,0.9320
6768.00,0.9421
6767.00,0.9521
6766.00,0.9622
6765.00,0.9723
6764.00,0.9824
6763.00,0.9921
6762.00,1.0014
6761.00,1.0106
6760.00,1.0200
6759.00,1.0297
6758.00,1.0395
6757.00,1.0492
6756.00,1.0589
6755.00,1.0685
6754.00,1.0779
6753.00,1.0869
6752.00,1.0954
6751.00,1.1037
6750.00,1.1118
6749.00,1.1198
6748.00,1.1277
6747.00,1.1353
6746.00,1.1430
6745.00,1.1505
6744.00,1.1577
6743.00,1.1648
6742.00,1.1716
6741.00,1.1784
6740.00,1.1849
6739.00,1.1908
6738.00,1.1957
6737.00,1.1999
6736.00,1.2036
6735.00,1.2072
6734.00,1.2106
6733.00,1.2135
6732.00,1.2160
6731.00,1.2183
6730.00,1.2210
6729.00,1.2237
6728.00,1.2259
6727.00,1.2276
6726.00,1.2289
6725.00,1.2303
6724.00,1.2315
6723.00,1.2319
6722.00,1.2310
6721.00,1.2294
6720.00,1.2275
6719.00,1.2257
6718.00,1.2237
6717.00,1.2212
6716.00,1.2183
6715.00,1.2152
6714.00,1.2119
6713.00,1.2084
6712.00,1.2045
6711.00,1.2001
6710.00,1.1951
6709.00,1.1894
6708.00,1.1832
6707.00,1.1765
6706.00,1.1696
6705.00,1.1623
6704.00,1.1547
6703.00,1.1472
6702.00,1.1401
6701.00,1.1331
6700.00,1.1254
6699.00,1.1169
6698.00,1.1076
6697.00,1.0979
6696.00,1.0880
6695.00,1.0779
6694.00,1.0674
6693.00,1.0567
6692.00,1.0458
6691.00,1.0351
6690.00,1.0244
6689.00,1.0136
6688.00,1.0025
6687.00,0.9915
6686.00,0.9806
6685.00,0.9699
6684.00,0.9588
6683.00,0.9475
6682.00,0.9362
6681.00,0.9251
6680.00,0.9140
6679.00,0.9031
6678.00,0.8925
6677.00,0.8826
6676.00,0.8731
6675.00,0.8640
6674.00,0.8552
6673.00,0.8469
6672.00,0.8389
6671.00,0.8313
6670.00,0.8241
6669.00,0.8172
6668.00,0.8107
6667.00,0.8048
6666.00,0.7996
6665.00,0.7951
6664.00,0.7912
6663.00,0.7879
6662.00,0.7854
6661.00,0.7836
6660.00,0.7823
6659.00,0.7815
6658.00,0.7814
6657.00,0.7820
6656.00,0.7832
6655.00,0.7848
6654.00,0.7871
6653.00,0.7901
6652.00,0.7938
6651.00,0.7979
6650.00,0.8025
6649.00,0.8077
6648.00,0.8134
6647.00,0.8197
6646.00,0.8265
6645.00,0.8336
6644.00,0.8410
6643.00,0.8485
6642.00,0.8564
6641.00,0.8647
6640.00,0.8735
6639.00,0.8826
6638.00,0.8918
6637.00,0.9014
6636.00,0.9112
6635.00,0.9213
6634.00,0.9313
6633.00,0.9413
6632.00,0.9512
6631.00,0.9613
6630.00,0.9714
6629.00,0.9814
6628.00,0.9913
6627.00,1.0011
6626.00,1.0110
6625.00,1.0207
6624.00,1.0305
6623.00,1.0402
6622.00,1.0499
6621.00,1.0594
6620.00,1.0683
6619.00,1.0770
6618.00,1.0857
6617.00,1.0946
6616.00,1.1031
6615.00,1.1112
6614.00,1.1190
6613.00,1.1270
6612.00,1.1348
6611.00,1.1423
6610.00,1.1494
6609.00,1.1564
6608.00,1.1632
6607.00,1.1693
6606.00,1.1747
6605.00,1.1795
6604.00,1.1840
6603.00,1.1883
6602.00,1.1927
6601.00,1.1972
6600.00,1.2016
6599.00,1.2057
6598.00,1.2092
6597.00,1.2119
6596.00,1.2141
6595.00,1.2159
6594.00,1.2173
6593.00,1.2184
6592.00,1.2193
6591.00,1.2203
6590.00,1.2211
6589.00,1.2213
6588.00,1.2208
6587.00,1.2199
6586.00,1.2188
6585.00,1.2174
6584.00,1.2154
6583.00,1.2126
6582.00,1.2094
6581.00,1.2060
6580.00,1.2026
6579.00,1.1992
6578.00,1.1956
6577.00,1.1918
6576.00,1.1876
6575.00,1.1830
6574.00,1.1781
6573.00,1.1726
6572.00,1.1662
6571.00,1.1591
6570.00,1.1517
6569.00,1.1442
6568.00,1.1363
6567.00,1.1281
6566.00,1.1200
6565.00,1.1122
6564.00,1.1046
6563.00,1.0970
6562.00,1.0891
6561.00,1.0808
6560.00,1.0718
6559.00,1.0618
6558.00,1.0511
6557.00,1.0403
6556.00,1.0297
6555.00,1.0190
6554.00,1.0082
6553.00,0.9973
6552.00,0.9867
6551.00,0.9760
6550.00,0.9651
6549.00,0.9539
6548.00,0.9427
6547.00,0.9318
6546.00,0.9211
6545.00,0.9106
6544.00,0.9002
6543.00,0.8901
6542.00,0.8803
6541.00,0.8707
6540.00,0.8614
6539.00,0.8524
6538.00,0.8438
6537.00,0.8354
6536.00,0.8274
6535.00,0.8198
6534.00,0.8128
6533.00,0.8064
6532.00,0.8005
6531.00,0.7952
6530.00,0.7905
6529.00,0.7862
6528.00,0.7824
6527.00,0.7791
6526.00,0.7765
6525.00,0.7746
6524.00,0.7735
6523.00,0.7732
6522.00,0.7737
6521.00,0.7748
6520.00,0.7765
6519.00,0.7786
6518.00,0.7812
6517.00,0.7844
6516.00,0.7883
6515.00,0.7929
6514.00,0.7982
6513.00,0.8041
6512.00,0.8104
6511.00,0.8172
6510.00,0.8244
6509.00,0.8322
6508.00,0.8403
6507.00,0.8487
6506.00,0.8574
6505.00,0.8665
6504.00,0.8758
6503.00,0.8852
6502.00,0.8948
6501.00,0.9047
6500.00,0.9147
6499.00,0.9248
6498.00,0.9350
6497.00,0.9453
6496.00,0.9556
6495.00,0.9659
6494.00,0.9764
6493.00,0.9871
6492.00,0.9980
6491.00,1.0088
6490.00,1.0195
6489.00,1.0301
6488.00,1.0405
6487.00,1.0508
6486.00,1.0608
6485.00,1.0706
6484.00,1.0803
6483.00,1.0898
6482.00,1.0993
6481.00,1.1086
6480.00,1.1178
6479.00,1.1268
6478.00,1.1356
6477.00,1.1441
6476.00,1.1523
6475.00,1.1600
6474.00,1.1675
6473.00,1.1747
6472.00,1.1818
6471.00,1.1885
6470.00,1.1949
6469.00,1.2012
6468.00,1.2072
6467.00,1.2128
6466.00,1.2180
6465.00,1.2230
6464.00,1.2279
6463.00,1.2325
6462.00,1.2366
6461.00,1.2401
6460.00,1.2432
6459.00,1.2456
6458.00,1.2473
6457.00,1.2485
6456.00,1.2496
6455.00,1.2506
6454.00,1.2515
6453.00,1.2520
6452.00,1.2520
6451.00,1.2517
6450.00,1.2513
6449.00,1.2506
6448.00,1.2494
6447.00,1.2475
6446.00,1.2450
6445.00,1.2420
6444.00,1.2386
6443.00,1.2347
6442.00,1.2303
6441.00,1.2257
6440.00,1.2211
6439.00,1.2165
6438.00,1.2118
6437.00,1.2065
6436.00,1.2005
6435.00,1.1939
6434.00,1.1869
6433.00,1.1795
6432.00,1.1717
6431.00,1.1636
6430.00,1.1551
6429.00,1.1464
6428.00,1.1372
6427.00,1.1274
6426.00,1.1172
6425.00,1.1069
6424.00,1.0965
6423.00,1.0860
6422.00,1.0755
6421.00,1.0648
6420.00,1.0538
6419.00,1.0425
6418.00,1.0309
6417.00,1.0190
6416.00,1.0071
6415.00,0.9951
6414.00,0.9832
6413.00,0.9713
6412.00,0.9594
6411.00,0.9475
6410.00,0.9359
6409.00,0.9245
6408.00,0.9133
6407.00,0.9022
6406.00,0.8915
6405.00,0.8812
6404.00,0.8711
6403.00,0.8611
6402.00,0.8514
6401.00,0.8422
6400.00,0.8335
6399.00,0.8255
6398.00,0.8182
6397.00,0.8116
6396.00,0.8055
6395.00,0.7998
6394.00,0.7947
6393.00,0.7899
6392.00,0.7858
6391.00,0.7824
6390.00,0.7797
6389.00,0.7780
6388.00,0.7770
6387.00,0.7768
6386.00,0.7772
6385.00,0.7784
6384.00,0.7801
6383.00,0.7825
6382.00,0.7855
6381.00,0.7891
6380.00,0.7932
6379.00,0.7979
6378.00,0.8032
6377.00,0.8092
6376.00,0.8157
6375.00,0.8226
6374.00,0.8300
6373.00,0.8379
6372.00,0.8461
6371.00,0.8544
6370.00,0.8631
6369.00,0.8721
6368.00,0.8816
6367.00,0.8913
6366.00,0.9013
6365.00,0.9114
6364.00,0.9218
6363.00,0.9323
6362.00,0.9431
6361.00,0.9540
6360.00,0.9649
6359.00,0.9756
6358.00,0.9863
6357.00,0.9970
6356.00,1.0077
6355.00,1.0182
6354.00,1.0284
6353.00,1.0387
6352.00,1.0490
6351.00,1.0592
6350.00,1.0691
6349.00,1.0787
6348.00,1.0884
6347.00,1.0980
6346.00,1.1075
6345.00,1.1169
6344.00,1.1259
6343.00,1.1346
6342.00,1.1430
6341.00,1.1511
6340.00,1.1590
6339.00,1.1668
6338.00,1.1741
6337.00,1.1810
6336.00,1.1875
6335.00,1.1939
6334.00,1.2001
6333.00,1.2058
6332.00,1.2109
6331.00,1.2156
6330.00,1.2202
6329.00,1.2243
6328.00,1.2278
6327.00,1.2308
6326.00,1.2335
6325.00,1.2362
6324.00,1.2388
6323.00,1.2411
6322.00,1.2430
6321.00,1.2443
6320.00,1.2447
6319.00,1.2446
6318.00,1.2445
6317.00,1.2445
6316.00,1.2441
6315.00,1.2432
6314.00,1.2422
6313.00,1.2412
6312.00,1.2400
6311.00,1.2380
6310.00,1.2352
6309.00,1.2319
6308.00,1.2284
6307.00,1.2243
6306.00,1.2196
6305.00,1.2146
6304.00,1.2094
6303.00,1.2043
6302.00,1.1991
6301.00,1.1937
6300.00,1.1878
6299.00,1.1812
6298.00,1.1741
6297.00,1.1667
6296.00,1.1590
6295.00,1.1511
6294.00,1.1430
6293.00,1.1344
6292.00,1.1254
6291.00,1.1159
6290.00,1.1061
6289.00,1.0962
6288.00,1.0861
6287.00,1.0758
6286.00,1.0654
6285.00,1.0548
6284.00,1.0439
6283.00,1.0325
6282.00,1.0208
6281.00,1.0089
6280.00,0.9971
6279.00,0.9854
6278.00,0.9736
6277.00,0.9619
6276.00,0.9502
6275.00,0.9386
6274.00,0.9270
6273.00,0.9157
6272.00,0.9045
6271.00,0.8935
6270.00,0.8827
6269.00,0.8723
6268.00,0.8621
6267.00,0.8522
6266.00,0.8428
6265.00,0.8340
6264.00,0.8257
6263.00,0.8177
6262.00,0.8102
6261.00,0.8032
6260.00,0.7968
6259.00,0.7910
6258.00,0.7860
6257.00,0.7819
6256.00,0.7785
6255.00,0.7758
6254.00,0.7738
6253.00,0.7725
6252.00,0.7717
6251.00,0.7717
6250.00,0.7723
6249.00,0.7736
6248.00,0.7756
6247.00,0.7784
6246.00,0.7818
6245.00,0.7859
6244.00,0.7906
6243.00,0.7959
6242.00,0.8019
6241.00,0.8084
6240.00,0.8153
6239.00,0.8225
6238.00,0.8302
6237.00,0.8385
6236.00,0.8472
6235.00,0.8563
6234.00,0.8658
6233.00,0.8756
6232.00,0.8859
6231.00,0.8963
6230.00,0.9070
6229.00,0.9178
6228.00,0.9287
6227.00,0.9396
6226.00,0.9507
6225.00,0.9619
6224.00,0.9731
6223.00,0.9841
6222.00,0.9952
6221.00,1.0064
6220.00,1.0176
6219.00,1.0287
6218.00,1.0397
6217.00,1.0507
6216.00,1.0615
6215.00,1.0720
6214.00,1.0822
6213.00,1.0924
6212.00,1.1027
6211.00,1.1128
6210.00,1.1228
6209.00,1.1328
6208.00,1.1425
6207.00,1.1517
6206.00,1.1605
6205.00,1.1691
6204.00,1.1777
6203.00,1.1862
6202.00,1.1943
6201.00,1.2021
6200.00,1.2096
6199.00,1.2166
6198.00,1.2231
6197.00,1.2289
6196.00,1.2342
6195.00,1.2393
6194.00,1.2442
6193.00,1.2491
6192.00,1.2538
6191.00,1.2582
6190.00,1.2620
6189.00,1.2651
6188.00,1.2674
6187.00,1.2692
6186.00,1.2707
6185.00,1.2721
6184.00,1.2737
6183.00,1.2753
6182.00,1.2766
6181.00,1.2774
6180.00,1.2774
6179.00,1.2769
6178.00,1.2759
6177.00,1.2744
6176.00,1.2721
6175.00,1.2694
6174.00,1.2663
6173.00,1.2628
6172.00,1.2590
6171.00,1.2549
6170.00,1.2506
6169.00,1.2460
6168.00,1.2410
6167.00,1.2358
6166.00,1.2303
6165.00,1.2243
6164.00,1.2174
6163.00,1.2098
6162.00,1.2018
6161.00,1.1935
6160.00,1.1848
6159.00,1.1759
6158.00,1.1668
6157.00,1.1577
6156.00,1.1485
6155.00,1.1388
6154.00,1.1287
6153.00,1.1179
6152.00,1.1066
6151.00,1.0949
6150.00,1.0832
6149.00,1.0714
6148.00,1.0595
6147.00,1.0475
6146.00,1.0354
6145.00,1.0232
6144.00,1.0108
6143.00,0.9981
6142.00,0.9855
6141.00,0.9730
6140.00,0.9605
6139.00,0.9481
6138.00,0.9357
6137.00,0.9233
6136.00,0.9111
6135.00,0.8992
6134.00,0.8877
6133.00,0.8766
6132.00,0.8658
6131.00,0.8553
6130.00,0.8453
6129.00,0.8357
6128.00,0.8267
6127.00,0.8183
6126.00,0.8105
6125.00,0.8034
6124.00,0.7969
6123.00,0.7910
6122.00,0.7858
6121.00,0.7815
6120.00,0.7779
6119.00,0.7750
6118.00,0.7728
6117.00,0.7714
6116.00,0.7707
6115.00,0.7707
6114.00,0.7715
6113.00,0.7732
6112.00,0.7756
6111.00,0.7786
6110.00,0.7823
6109.00,0.7867
6108.00,0.7918
6107.00,0.7975
6106.00,0.8039
6105.00,0.8108
6104.00,0.8182
6103.00,0.8260
6102.00,0.8341
6101.00,0.8427
6100.00,0.8518
6099.00,0.8613
6098.00,0.8710
6097.00,0.8811
6096.00,0.8915
6095.00,0.9020
6094.00,0.9127
6093.00,0.9235
6092.00,0.9345
6091.00,0.9455
6090.00,0.9563
6089.00,0.9671
6088.00,0.9778
6087.00,0.9889
6086.00,1.0003
6085.00,1.0119
6084.00,1.0235
6083.00,1.0348
6082.00,1.0458
6081.00,1.0565
6080.00,1.0667
6079.00,1.0767
6078.00,1.0867
6077.00,1.0967
6076.00,1.1067
6075.00,1.1167
6074.00,1.1265
6073.00,1.1362
6072.00,1.1455
6071.00,1.1543
6070.00,1.1626
6069.00,1.1706
6068.00,1.1782
6067.00,1.1856
6066.00,1.1927
6065.00,1.1998
6064.00,1.2067
6063.00,1.2134
6062.00,1.2198
6061.00,1.2260
6060.00,1.2319
6059.00,1.2375
6058.00,1.2429
6057.00,1.2481
6056.00,1.2529
6055.00,1.2573
6054.00,1.2610
6053.00,1.2644
6052.00,1.2673
6051.00,1.2697
6050.00,1.2715
6049.00,1.2730
6048.00,1.2744
6047.00,1.2757
6046.00,1.2766
6045.00,1.2771
6044.00,1.2772
6043.00,1.2768
6042.00,1.2761
6041.00,1.2749
6040.00,1.2734
6039.00,1.2715
6038.00,1.2692
6037.00,1.2665
6036.00,1.2632
6035.00,1.2594
6034.00,1.2551
6033.00,1.2504
6032.00,1.2454
6031.00,1.2400
6030.00,1.2344
6029.00,1.2285
6028.00,1.2221
6027.00,1.2151
6026.00,1.2077
6025.00,1.2000
6024.00,1.1918
6023.00,1.1831
6022.00,1.1740
6021.00,1.1646
6020.00,1.1550
6019.00,1.1451
6018.00,1.1348
6017.00,1.1242
6016.00,1.1132
6015.00,1.1016
6014.00,1.0895
6013.00,1.0770
6012.00,1.0643
6011.00,1.0515
6010.00,1.0385
6009.00,1.0257
6008.00,1.0129
6007.00,1.0001
6006.00,0.9873
6005.00,0.9743
6004.00,0.9614
6003.00,0.9487
6002.00,0.9360
6001.00,0.9235
6000.00,0.9111
5999.00,0.8988
5998.00,0.8869
5997.00,0.8753
5996.00,0.8642
5995.00,0.8535
5994.00,0.8434
5993.00,0.8340
5992.00,0.8252
5991.00,0.8169
5990.00,0.8091
5989.00,0.8020
5988.00,0.7955
5987.00,0.7897
5986.00,0.7847
5985.00,0.7804
5984.00,0.7769
5983.00,0.7742
5982.00,0.7722
5981.00,0.7710
5980.00,0.7706
5979.00,0.7709
5978.00,0.7721
5977.00,0.7742
5976.00,0.7772
5975.00,0.7809
5974.00,0.7853
5973.00,0.7904
5972.00,0.7961
5971.00,0.8025
5970.00,0.8095
5969.00,0.8170
5968.00,0.8251
5967.00,0.8338
5966.00,0.8430
5965.00,0.8525
5964.00,0.8623
5963.00,0.8724
5962.00,0.8830
5961.00,0.8940
5960.00,0.9052
5959.00,0.9166
5958.00,0.9281
5957.00,0.9399
5956.00,0.9517
5955.00,0.9635
5954.00,0.9754
5953.00,0.9875
5952.00,0.9997
5951.00,1.0119
5950.00,1.0242
5949.00,1.0366
5948.00,1.0488
5947.00,1.0607
5946.00,1.0725
5945.00,1.0842
5944.00,1.0958
5943.00,1.1071
5942.00,1.1182
5941.00,1.1292
5940.00,1.1400
5939.00,1.1504
5938.00,1.1604
5937.00,1.1703
5936.00,1.1802
5935.00,1.1899
5934.00,1.1991
5933.00,1.2078
5932.00,1.2162
5931.00,1.2245
5930.00,1.2325
5929.00,1.2403
5928.00,1.2478
5927.00,1.2550
5926.00,1.2618
5925.00,1.2681
5924.00,1.2740
5923.00,1.2793
5922.00,1.2842
5921.00,1.2888
5920.00,1.2933
5919.00,1.2975
5918.00,1.3013
5917.00,1.3047
5916.00,1.3075
5915.00,1.3097
5914.00,1.3116
5913.00,1.3131
5912.00,1.3144
5911.00,1.3153
5910.00,1.3158
5909.00,1.3158
5908.00,1.3150
5907.00,1.3135
5906.00,1.3115
5905.00,1.3092
5904.00,1.3065
5903.00,1.3035
5902.00,1.3001
5901.00,1.2962
5900.00,1.2922
5899.00,1.2880
5898.00,1.2836
5897.00,1.2788
5896.00,1.2738
5895.00,1.2684
5894.00,1.2626
5893.00,1.2563
5892.00,1.2492
5891.00,1.2415
5890.00,1.2331
5889.00,1.2240
5888.00,1.2144
5887.00,1.2043
5886.00,1.1941
5885.00,1.1838
5884.00,1.1732
5883.00,1.1624
5882.00,1.1515
5881.00,1.1405
5880.00,1.1292
5879.00,1.1177
5878.00,1.1059
5877.00,1.0937
5876.00,1.0809
5875.00,1.0677
5874.00,1.0543
5873.00,1.0408
5872.00,1.0273
5871.00,1.0140
5870.00,1.0010
5869.00,0.9883
5868.00,0.9756
5867.00,0.9629
5866.00,0.9502
5865.00,0.9376
5864.00,0.9252
5863.00,0.9131
5862.00,0.9013
5861.00,0.8899
5860.00,0.8790
5859.00,0.8685
5858.00,0.8584
5857.00,0.8488
5856.00,0.8397
5855.00,0.8312
5854.00,0.8235
5853.00,0.8164
5852.00,0.8102
5851.00,0.8047
5850.00,0.8000
5849.00,0.7960
5848.00,0.7927
5847.00,0.7901
5846.00,0.7883
5845.00,0.7873
5844.00,0.7872
5843.00,0.7878
5842.00,0.7892
5841.00,0.7914
5840.00,0.7945
5839.00,0.7983
5838.00,0.8030
5837.00,0.8085
5836.00,0.8146
5835.00,0.8213
5834.00,0.8285
5833.00,0.8361
5832.00,0.8443
5831.00,0.8530
5830.00,0.8622
5829.00,0.8720
5828.00,0.8821
5827.00,0.8925
5826.00,0.9032
5825.00,0.9141
5824.00,0.9252
5823.00,0.9364
5822.00,0.9480
5821.00,0.9597
5820.00,0.9716
5819.00,0.9835
5818.00,0.9956
5817.00,1.0079
5816.00,1.0201
5815.00,1.0322
5814.00,1.0444
5813.00,1.0565
5812.00,1.0685
5811.00,1.0802
5810.00,1.0918
5809.00,1.1034
5808.00,1.1147
5807.00,1.1259
5806.00,1.1368
5805.00,1.1475
5804.00,1.1580
5803.00,1.1683
5802.00,1.1784
5801.00,1.1883
5800.00,1.1980
5799.00,1.2074
5798.00,1.2165
5797.00,1.2254
5796.00,1.2341
5795.00,1.2425
5794.00,1.2507
5793.00,1.2585
5792.00,1.2658
5791.00,1.2726
5790.00,1.2788
5789.00,1.2844
5788.00,1.2896
5787.00,1.2945
5786.00,1.2992
5785.00,1.3038
5784.00,1.3083
5783.00,1.3128
5782.00,1.3169
5781.00,1.3205
5780.00,1.3235
5779.00,1.3258
5778.00,1.3274
5777.00,1.3284
5776.00,1.3288
5775.00,1.3291
5774.00,1.3294
5773.00,1.3295
5772.00,1.3292
5771.00,1.3284
5770.00,1.3273
5769.00,1.3255
5768.00,1.3229
5767.00,1.3197
5766.00,1.3163
5765.00,1.3129
5764.00,1.3091
5763.00,1.3046
5762.00,1.2997
5761.00,1.2945
5760.00,1.2889
5759.00,1.2828
5758.00,1.2761
5757.00,1.2693
5756.00,1.2623
5755.00,1.2551
5754.00,1.2474
5753.00,1.2390
5752.00,1.2301
5751.00,1.2206
5750.00,1.2106
5749.00,1.2003
5748.00,1.1897
5747.00,1.1787
5746.00,1.1676
5745.00,1.1563
5744.00,1.1446
5743.00,1.1326
5742.00,1.1203
5741.00,1.1077
5740.00,1.0948
5739.00,1.0817
5738.00,1.0684
5737.00,1.0551
5736.00,1.0418
5735.00,1.0285
5734.00,1.0151
5733.00,1.0014
5732.00,0.9876
5731.00,0.9738
5730.00,0.9600
5729.00,0.9465
5728.00,0.9334
5727.00,0.9206
5726.00,0.9082
5725.00,0.8962
5724.00,0.8846
5723.00,0.8734
5722.00,0.8628
5721.00,0.8526
5720.00,0.8429
5719.00,0.8339
5718.00,0.8254
5717.00,0.8178
5716.00,0.8108
5715.00,0.8047
5714.00,0.7993
5713.00,0.7947
5712.00,0.7907
5711.00,0.7875
5710.00,0.7852
5709.00,0.7838
5708.00,0.7832
5707.00,0.7835
5706.00,0.7847
5705.00,0.7868
5704.00,0.7898
5703.00,0.7936
5702.00,0.7981
5701.00,0.8033
5700.00,0.8093
5699.00,0.8159
5698.00,0.8232
5697.00,0.8311
5696.00,0.8395
5695.00,0.8485
5694.00,0.8579
5693.00,0.8678
5692.00,0.8781
5691.00,0.8890
5690.00,0.9004
5689.00,0.9122
5688.00,0.9242
5687.00,0.9361
5686.00,0.9480
5685.00,0.9599
5684.00,0.9720
5683.00,0.9844
5682.00,0.9971
5681.00,1.0100
5680.00,1.0230
5679.00,1.0359
5678.00,1.0486
5677.00,1.0611
5676.00,1.0734
5675.00,1.0857
5674.00,1.0979
5673.00,1.1100
5672.00,1.1217
5671.00,1.1334
5670.00,1.1452
5669.00,1.1568
5668.00,1.1679
5667.00,1.1785
5666.00,1.1888
5665.00,1.1987
5664.00,1.2083
5663.00,1.2176
5662.00,1.2268
5661.00,1.2357
5660.00,1.2442
5659.00,1.2522
5658.00,1.2598
5657.00,1.2673
5656.00,1.2748
5655.00,1.2822
5654.00,1.2892
5653.00,1.2958
5652.00,1.3017
5651.00,1.3070
5650.00,1.3115
5649.00,1.3155
5648.00,1.3191
5647.00,1.3227
5646.00,1.3261
5645.00,1.3292
5644.00,1.3318
5643.00,1.3338
5642.00,1.3354
5641.00,1.3364
5640.00,1.3368
5639.00,1.3368
5638.00,1.3364
5637.00,1.3356
5636.00,1.3344
5635.00,1.3327
5634.00,1.3307
5633.00,1.3283
5632.00,1.3255
5631.00,1.3225
5630.00,1.3193
5629.00,1.3155
5628.00,1.3113
5627.00,1.3066
5626.00,1.3015
5625.00,1.2960
5624.00,1.2899
5623.00,1.2834
5622.00,1.2769
5621.00,1.2700
5620.00,1.2627
5619.00,1.2547
5618.00,1.2464
5617.00,1.2377
5616.00,1.2287
5615.00,1.2194
5614.00,1.2098
5613.00,1.1999
5612.00,1.1896
5611.00,1.1788
5610.00,1.1675
5609.00,1.1557
5608.00,1.1435
5607.00,1.1311
5606.00,1.1185
5605.00,1.1056
5604.00,1.0924
5603.00,1.0789
5602.00,1.0654
5601.00,1.0518
5600.00,1.0379
5599.00,1.0239
5598.00,1.0096
5597.00,0.9953
5596.00,0.9809
5595.00,0.9664
5594.00,0.9521
5593.00,0.9381
5592.00,0.9244
5591.00,0.9111
5590.00,0.8982
5589.00,0.8856
5588.00,0.8734
5587.00,0.8615
5586.00,0.8502
5585.00,0.8394
5584.00,0.8292
5583.00,0.8197
5582.00,0.8111
5581.00,0.8034
5580.00,0.7964
5579.00,0.7901
5578.00,0.7847
5577.00,0.7801
5576.00,0.7763
5575.00,0.7734
5574.00,0.7714
5573.00,0.7706
5572.00,0.7708
5571.00,0.7718
5570.00,0.7738
5569.00,0.7767
5568.00,0.7803
5567.00,0.7847
5566.00,0.7899
5565.00,0.7960
5564.00,0.8030
5563.00,0.8108
5562.00,0.8192
5561.00,0.8281
5560.00,0.8376
5559.00,0.8476
5558.00,0.8582
5557.00,0.8691
5556.00,0.8804
5555.00,0.8920
5554.00,0.9039
5553.00,0.9161
5552.00,0.9287
5551.00,0.9417
5550.00,0.9550
5549.00,0.9684
5548.00,0.9818
5547.00,0.9951
5546.00,1.0085
5545.00,1.0219
5544.00,1.0354
5543.00,1.0488
5542.00,1.0620
5541.00,1.0750
5540.00,1.0878
5539.00,1.1006
5538.00,1.1133
5537.00,1.1261
5536.00,1.1387
5535.00,1.1510
5534.00,1.1631
5533.00,1.1750
5532.00,1.1867
5531.00,1.1981
5530.00,1.2091
5529.00,1.2197
5528.00,1.2299
5527.00,1.2396
5526.00,1.2490
5525.00,1.2582
5524.00,1.2671
5523.00,1.2756
5522.00,1.2836
5521.00,1.2913
5520.00,1.2985
5519.00,1.3053
5518.00,1.3118
5517.00,1.3182
5516.00,1.3243
5515.00,1.3300
5514.00,1.3355
5513.00,1.3407
5512.00,1.3456
5511.00,1.3497
5510.00,1.3529
5509.00,1.3554
5508.00,1.3573
5507.00,1.3588
5506.00,1.3602
5505.00,1.3616
5504.00,1.3629
5503.00,1.3638
5502.00,1.3642
5501.00,1.3640
5500.00,1.3632
5499.00,1.3619
5498.00,1.3602
5497.00,1.3582
5496.00,1.3559
5495.00,1.3531
5494.00,1.3497
5493.00,1.3457
5492.00,1.3410
5491.00,1.3358
5490.00,1.3303
5489.00,1.3244
5488.00,1.3183
5487.00,1.3118
5486.00,1.3048
5485.00,1.2975
5484.00,1.2897
5483.00,1.2814
5482.00,1.2725
5481.00,1.2633
5480.00,1.2537
5479.00,1.2436
5478.00,1.2329
5477.00,1.2218
5476.00,1.2102
5475.00,1.1980
5474.00,1.1855
5473.00,1.1727
5472.00,1.1598
5471.00,1.1467
5470.00,1.1331
5469.00,1.1193
5468.00,1.1052
5467.00,1.0909
5466.00,1.0762
5465.00,1.0613
5464.00,1.0461
5463.00,1.0307
5462.00,1.0152
5461.00,0.9997
5460.00,0.9842
5459.00,0.9688
5458.00,0.9537
5457.00,0.9388
5456.00,0.9242
5455.00,0.9098
5454.00,0.8959
5453.00,0.8826
5452.00,0.8698
5451.00,0.8576
5450.00,0.8460
5449.00,0.8349
5448.00,0.8243
5447.00,0.8144
5446.00,0.8052
5445.00,0.7967
5444.00,0.7890
5443.00,0.7824
5442.00,0.7769
5441.00,0.7723
5440.00,0.7686
5439.00,0.7659
5438.00,0.7642
5437.00,0.7635
5436.00,0.7638
5435.00,0.7649
5434.00,0.7670
5433.00,0.7702
5432.00,0.7742
5431.00,0.7791
5430.00,0.7848
5429.00,0.7912
5428.00,0.7984
5427.00,0.8064
5426.00,0.8152
5425.00,0.8245
5424.00,0.8344
5423.00,0.8447
5422.00,0.8557
5421.00,0.8672
5420.00,0.8792
5419.00,0.8914
5418.00,0.9038
5417.00,0.9164
5416.00,0.9291
5415.00,0.9421
5414.00,0.9553
5413.00,0.9686
5412.00,0.9822
5411.00,0.9958
5410.00,1.0096
5409.00,1.0235
5408.00,1.0373
5407.00,1.0511
5406.00,1.0648
5405.00,1.0783
5404.00,1.0917
5403.00,1.1050
5402.00,1.1183
5401.00,1.1313
5400.00,1.1439
5399.00,1.1561
5398.00,1.1680
5397.00,1.1797
5396.00,1.1912
5395.00,1.2026
5394.00,1.2138
5393.00,1.2248
5392.00,1.2355
5391.00,1.2460
5390.00,1.2562
5389.00,1.2660
5388.00,1.2755
5387.00,1.2846
5386.00,1.2931
5385.00,1.3012
5384.00,1.3088
5383.00,1.3160
5382.00,1.3229
5381.00,1.3294
5380.00,1.3356
5379.00,1.3415
5378.00,1.3470
5377.00,1.3522
5376.00,1.3571
5375.00,1.3616
5374.00,1.3656
5373.00,1.3691
5372.00,1.3719
5371.00,1.3740
5370.00,1.3758
5369.00,1.3773
5368.00,1.3785
5367.00,1.3793
5366.00,1.3798
5365.00,1.3797
5364.00,1.3790
5363.00,1.3778
5362.00,1.3763
5361.00,1.3743
5360.00,1.3718
5359.00,1.3687
5358.00,1.3649
5357.00,1.3607
5356.00,1.3561
5355.00,1.3511
5354.00,1.3458
5353.00,1.3400
5352.00,1.3338
5351.00,1.3271
5350.00,1.3200
5349.00,1.3126
5348.00,1.3048
5347.00,1.2965
5346.00,1.2876
5345.00,1.2780
5344.00,1.2677
5343.00,1.2569
5342.00,1.2457
5341.00,1.2343
5340.00,1.2226
5339.00,1.2103
5338.00,1.1974
5337.00,1.1840
5336.00,1.1705
5335.00,1.1568
5334.00,1.1428
5333.00,1.1282
5332.00,1.1134
5331.00,1.0984
5330.00,1.0834
5329.00,1.0681
5328.00,1.0524
5327.00,1.0365
5326.00,1.0205
5325.00,1.0046
5324.00,0.9888
5323.00,0.9732
5322.00,0.9577
5321.00,0.9424
5320.00,0.9273
5319.00,0.9127
5318.00,0.8984
5317.00,0.8847
5316.00,0.8714
5315.00,0.8587
5314.00,0.8467
5313.00,0.8355
5312.00,0.8251
5311.00,0.8154
5310.00,0.8066
5309.00,0.7986
5308.00,0.7914
5307.00,0.7851
5306.00,0.7797
5305.00,0.7754
5304.00,0.7723
5303.00,0.7702
5302.00,0.7693
5301.00,0.7694
5300.00,0.7706
5299.00,0.7728
5298.00,0.7761
5297.00,0.7804
5296.00,0.7856
5295.00,0.7917
5294.00,0.7986
5293.00,0.8063
5292.00,0.8146
5291.00,0.8237
5290.00,0.8334
5289.00,0.8440
5288.00,0.8553
5287.00,0.8672
5286.00,0.8796
5285.00,0.8922
5284.00,0.9053
5283.00,0.9187
5282.00,0.9325
5281.00,0.9464
5280.00,0.9605
5279.00,0.9748
5278.00,0.9892
5277.00,1.0037
5276.00,1.0184
5275.00,1.0331
5274.00,1.0478
5273.00,1.0625
5272.00,1.0770
5271.00,1.0915
5270.00,1.1057
5269.00,1.1198
5268.00,1.1338
5267.00,1.1476
5266.00,1.1613
5265.00,1.1747
5264.00,1.1877
5263.00,1.2005
5262.00,1.2128
5261.00,1.2249
5260.00,1.2365
5259.00,1.2479
5258.00,1.2589
5257.00,1.2697
5256.00,1.2803
5255.00,1.2908
5254.00,1.3010
5253.00,1.3107
5252.00,1.3199
5251.00,1.3283
5250.00,1.3361
5249.00,1.3432
5248.00,1.3500
5247.00,1.3567
5246.00,1.3634
5245.00,1.3699
5244.00,1.3759
5243.00,1.3814
5242.00,1.3865
5241.00,1.3911
5240.00,1.3954
5239.00,1.3993
5238.00,1.4026
5237.00,1.4053
5236.00,1.4074
5235.00,1.4089
5234.00,1.4101
5233.00,1.4112
5232.00,1.4120
5231.00,1.4125
5230.00,1.4125
5229.00,1.4117
5228.00,1.4102
5227.00,1.4080
5226.00,1.4054
5225.00,1.4024
5224.00,1.3992
5223.00,1.3958
5222.00,1.3919
5221.00,1.3875
5220.00,1.3824
5219.00,1.3768
5218.00,1.3708
5217.00,1.3647
5216.00,1.3584
5215.00,1.3518
5214.00,1.3447
5213.00,1.3370
5212.00,1.3287
5211.00,1.3197
5210.00,1.3102
5209.00,1.3000
5208.00,1.2892
5207.00,1.2780
5206.00,1.2662
5205.00,1.2541
5204.00,1.2416
5203.00,1.2288
5202.00,1.2156
5201.00,1.2021
5200.00,1.1881
5199.00,1.1739
5198.00,1.1595
5197.00,1.1447
5196.00,1.1295
5195.00,1.1140
5194.00,1.0983
5193.00,1.0823
5192.00,1.0661
5191.00,1.0497
5190.00,1.0332
5189.00,1.0167
5188.00,1.0003
5187.00,0.9840
5186.00,0.9676
5185.00,0.9514
5184.00,0.9353
5183.00,0.9197
5182.00,0.9047
5181.00,0.8903
5180.00,0.8764
5179.00,0.8631
5178.00,0.8504
5177.00,0.8384
5176.00,0.8273
5175.00,0.8170
5174.00,0.8076
5173.00,0.7991
5172.00,0.7916
5171.00,0.7849
5170.00,0.7794
5169.00,0.7749
5168.00,0.7716
5167.00,0.7694
5166.00,0.7683
5165.00,0.7682
5164.00,0.7693
5163.00,0.7715
5162.00,0.7747
5161.00,0.7791
5160.00,0.7844
5159.00,0.7906
5158.00,0.7977
5157.00,0.8056
5156.00,0.8144
5155.00,0.8240
5154.00,0.8344
5153.00,0.8456
5152.00,0.8574
5151.00,0.8696
5150.00,0.8823
5149.00,0.8954
5148.00,0.9088
5147.00,0.9227
5146.00,0.9369
5145.00,0.9514
5144.00,0.9662
5143.00,0.9811
5142.00,0.9962
5141.00,1.0113
5140.00,1.0265
5139.00,1.0417
5138.00,1.0568
5137.00,1.0719
5136.00,1.0868
5135.00,1.1016
5134.00,1.1163
5133.00,1.1309
5132.00,1.1453
5131.00,1.1594
5130.00,1.1733
5129.00,1.1870
5128.00,1.2002
5127.00,1.2131
5126.00,1.2258
5125.00,1.2384
5124.00,1.2509
5123.00,1.2631
5122.00,1.2749
5121.00,1.2863
5120.00,1.2972
5119.00,1.3077
5118.00,1.3177
5117.00,1.3274
5116.00,1.3368
5115.00,1.3459
5114.00,1.3546
5113.00,1.3629
5112.00,1.3707
5111.00,1.3780
5110.00,1.3848
5109.00,1.3911
5108.00,1.3969
5107.00,1.4023
5106.00,1.4074
5105.00,1.4122
5104.00,1.4166
5103.00,1.4207
5102.00,1.4241
5101.00,1.4270
5100.00,1.4292
5099.00,1.4310
5098.00,1.4325
5097.00,1.4337
5096.00,1.4345
5095.00,1.4348
5094.00,1.4346
5093.00,1.4340
5092.00,1.4329
5091.00,1.4313
5090.00,1.4291
5089.00,1.4265
5088.00,1.4234
5087.00,1.4197
5086.00,1.4155
5085.00,1.4108
5084.00,1.4057
5083.00,1.4001
5082.00,1.3942
5081.00,1.3881
5080.00,1.3816
5079.00,1.3746
5078.00,1.3670
5077.00,1.3587
5076.00,1.3498
5075.00,1.3402
5074.00,1.3301
5073.00,1.3198
5072.00,1.3093
5071.00,1.2985
5070.00,1.2873
5069.00,1.2753
5068.00,1.2627
5067.00,1.2493
5066.00,1.2354
5065.00,1.2210
5064.00,1.2062
5063.00,1.1911
5062.00,1.1758
5061.00,1.1601
5060.00,1.1440
5059.00,1.1276
5058.00,1.1109
5057.00,1.0939
5056.00,1.0767
5055.00,1.0593
5054.00,1.0418
5053.00,1.0243
5052.00,1.0067
5051.00,0.9892
5050.00,0.9720
5049.00,0.9551
5048.00,0.9385
5047.00,0.9224
5046.00,0.9067
5045.00,0.8916
5044.00,0.8771
5043.00,0.8632
5042.00,0.8501
5041.00,0.8378
5040.00,0.8263
5039.00,0.8157
5038.00,0.8061
5037.00,0.7976
5036.00,0.7900
5035.00,0.7836
5034.00,0.7784
5033.00,0.7743
5032.00,0.7715
5031.00,0.7699
5030.00,0.7694
5029.00,0.7702
5028.00,0.7721
5027.00,0.7752
5026.00,0.7795
5025.00,0.7850
5024.00,0.7916
5023.00,0.7991
5022.00,0.8075
5021.00,0.8168
5020.00,0.8270
5019.00,0.8379
5018.00,0.8495
5017.00,0.8616
5016.00,0.8744
5015.00,0.8877
5014.00,0.9016
5013.00,0.9160
5012.00,0.9308
5011.00,0.9460
5010.00,0.9614
5009.00,0.9769
5008.00,0.9926
5007.00,1.0085
5006.00,1.0245
5005.00,1.0405
5004.00,1.0566
5003.00,1.0727
5002.00,1.0888
5001.00,1.1048
5000.00,1.1207
4999.00,1.1363
4998.00,1.1517
4997.00,1.1669
4996.00,1.1818
4995.00,1.1967
4994.00,1.2113
4993.00,1.2257
4992.00,1.2396
4991.00,1.2529
4990.00,1.2657
4989.00,1.2781
4988.00,1.2903
4987.00,1.3023
4986.00,1.3140
4985.00,1.3253
4984.00,1.3362
4983.00,1.3467
4982.00,1.3569
4981.00,1.3667
4980.00,1.3761
4979.00,1.3849
4978.00,1.3929
4977.00,1.4001
4976.00,1.4067
4975.00,1.4133
4974.00,1.4201
4973.00,1.4270
4972.00,1.4335
4971.00,1.4392
4970.00,1.4439
4969.00,1.4477
4968.00,1.4510
4967.00,1.4538
4966.00,1.4565
4965.00,1.4588
4964.00,1.4609
4963.00,1.4624
4962.00,1.4633
4961.00,1.4637
4960.00,1.4637
4959.00,1.4633
4958.00,1.4627
4957.00,1.4617
4956.00,1.4603
4955.00,1.4582
4954.00,1.4555
4953.00,1.4523
4952.00,1.4487
4951.00,1.4447
4950.00,1.4403
4949.00,1.4353
4948.00,1.4299
4947.00,1.4239
4946.00,1.4174
4945.00,1.4104
4944.00,1.4028
4943.00,1.3948
4942.00,1.3861
4941.00,1.3769
4940.00,1.3672
4939.00,1.3571
4938.00,1.3467
4937.00,1.3358
4936.00,1.3245
4935.00,1.3127
4934.00,1.3003
4933.00,1.2873
4932.00,1.2737
4931.00,1.2597
4930.00,1.2451
4929.00,1.2302
4928.00,1.2148
4927.00,1.1990
4926.00,1.1828
4925.00,1.1661
4924.00,1.1490
4923.00,1.1315
4922.00,1.1136
4921.00,1.0954
4920.00,1.0771
4919.00,1.0586
4918.00,1.0401
4917.00,1.0217
4916.00,1.0034
4915.00,0.9853
4914.00,0.9674
4913.00,0.9498
4912.00,0.9325
4911.00,0.9156
4910.00,0.8991
4909.00,0.8832
4908.00,0.8680
4907.00,0.8535
4906.00,0.8399
4905.00,0.8271
4904.00,0.8153
4903.00,0.8045
4902.00,0.7948
4901.00,0.7863
4900.00,0.7790
4899.00,0.7729
4898.00,0.7681
4897.00,0.7646
4896.00,0.7624
4895.00,0.7614
4894.00,0.7618
4893.00,0.7634
4892.00,0.7663
4891.00,0.7705
4890.00,0.7759
4889.00,0.7825
4888.00,0.7902
4887.00,0.7990
4886.00,0.8088
4885.00,0.8195
4884.00,0.8311
4883.00,0.8435
4882.00,0.8565
4881.00,0.8702
4880.00,0.8844
4879.00,0.8991
4878.00,0.9143
4877.00,0.9299
4876.00,0.9458
4875.00,0.9619
4874.00,0.9784
4873.00,0.9951
4872.00,1.0119
4871.00,1.0289
4870.00,1.0459
4869.00,1.0629
4868.00,1.0797
4867.00,1.0963
4866.00,1.1128
4865.00,1.1291
4864.00,1.1453
4863.00,1.1613
4862.00,1.1771
4861.00,1.1928
4860.00,1.2082
4859.00,1.2233
4858.00,1.2382
4857.00,1.2528
4856.00,1.2670
4855.00,1.2807
4854.00,1.2940
4853.00,1.3069
4852.00,1.3195
4851.00,1.3318
4850.00,1.3439
4849.00,1.3557
4848.00,1.3671
4847.00,1.3778
4846.00,1.3881
4845.00,1.3978
4844.00,1.4071
4843.00,1.4158
4842.00,1.4240
4841.00,1.4318
4840.00,1.4390
4839.00,1.4459
4838.00,1.4526
4837.00,1.4590
4836.00,1.4648
4835.00,1.4698
4834.00,1.4741
4833.00,1.4778
4832.00,1.4813
4831.00,1.4847
4830.00,1.4879
4829.00,1.4906
4828.00,1.4926
4827.00,1.4938
4826.00,1.4944
4825.00,1.4946
4824.00,1.4945
4823.00,1.4941
4822.00,1.4932
4821.00,1.4919
4820.00,1.4900
4819.00,1.4877
4818.00,1.4849
4817.00,1.4816
4816.00,1.4778
4815.00,1.4736
4814.00,1.4689
4813.00,1.4637
4812.00,1.4579
4811.00,1.4516
4810.00,1.4448
4809.00,1.4376
4808.00,1.4300
4807.00,1.4219
4806.00,1.4132
4805.00,1.4038
4804.00,1.3936
4803.00,1.3829
4802.00,1.3717
4801.00,1.3603
4800.00,1.3486
4799.00,1.3364
4798.00,1.3236
4797.00,1.3100
4796.00,1.2958
4795.00,1.2808
4794.00,1.2654
4793.00,1.2495
4792.00,1.2332
4791.00,1.2165
4790.00,1.1993
4789.00,1.1818
4788.00,1.1637
4787.00,1.1453
4786.00,1.1267
4785.00,1.1078
4784.00,1.0888
4783.00,1.0697
4782.00,1.0505
4781.00,1.0312
4780.00,1.0120
4779.00,0.9929
4778.00,0.9740
4777.00,0.9555
4776.00,0.9374
4775.00,0.9197
4774.00,0.9027
4773.00,0.8864
4772.00,0.8709
4771.00,0.8563
4770.00,0.8426
4769.00,0.8299
4768.00,0.8183
4767.00,0.8078
4766.00,0.7985
4765.00,0.7905
4764.00,0.7838
4763.00,0.7784
4762.00,0.7744
4761.00,0.7717
4760.00,0.7706
4759.00,0.7708
4758.00,0.7724
4757.00,0.7754
4756.00,0.7798
4755.00,0.7855
4754.00,0.7924
4753.00,0.8006
4752.00,0.8099
4751.00,0.8202
4750.00,0.8316
4749.00,0.8439
4748.00,0.8571
4747.00,0.8709
4746.00,0.8853
4745.00,0.9003
4744.00,0.9159
4743.00,0.9319
4742.00,0.9484
4741.00,0.9653
4740.00,0.9825
4739.00,0.9998
4738.00,1.0173
4737.00,1.0349
4736.00,1.0525
4735.00,1.0701
4734.00,1.0877
4733.00,1.1053
4732.00,1.1227
4731.00,1.1399
4730.00,1.1571
4729.00,1.1742
4728.00,1.1912
4727.00,1.2079
4726.00,1.2242
4725.00,1.2400
4724.00,1.2554
4723.00,1.2706
4722.00,1.2857
4721.00,1.3007
4720.00,1.3153
4719.00,1.3294
4718.00,1.3429
4717.00,1.3559
4716.00,1.3685
4715.00,1.3808
4714.00,1.3927
4713.00,1.4041
4712.00,1.4150
4711.00,1.4254
4710.00,1.4354
4709.00,1.4449
4708.00,1.4539
4707.00,1.4623
4706.00,1.4702
4705.00,1.4777
4704.00,1.4849
4703.00,1.4917
4702.00,1.4979
4701.00,1.5033
4700.00,1.5081
4699.00,1.5123
4698.00,1.5162
4697.00,1.5197
4696.00,1.5228
4695.00,1.5253
4694.00,1.5273
4693.00,1.5291
4692.00,1.5307
4691.00,1.5318
4690.00,1.5324
4689.00,1.5322
4688.00,1.5314
4687.00,1.5299
4686.00,1.5280
4685.00,1.5257
4684.00,1.5232
4683.00,1.5205
4682.00,1.5175
4681.00,1.5139
4680.00,1.5098
4679.00,1.5051
4678.00,1.5000
4677.00,1.4945
4676.00,1.4886
4675.00,1.4820
4674.00,1.4749
4673.00,1.4672
4672.00,1.4590
4671.00,1.4503
4670.00,1.4410
4669.00,1.4312
4668.00,1.4211
4667.00,1.4107
4666.00,1.3998
4665.00,1.3883
4664.00,1.3760
4663.00,1.3627
4662.00,1.3488
4661.00,1.3343
4660.00,1.3194
4659.00,1.3041
4658.00,1.2884
4657.00,1.2722
4656.00,1.2553
4655.00,1.2378
4654.00,1.2197
4653.00,1.2011
4652.00,1.1821
4651.00,1.1628
4650.00,1.1433
4649.00,1.1234
4648.00,1.1032
4647.00,1.0829
4646.00,1.0625
4645.00,1.0421
4644.00,1.0218
4643.00,1.0016
4642.00,0.9817
4641.00,0.9622
4640.00,0.9432
4639.00,0.9248
4638.00,0.9070
4637.00,0.8900
4636.00,0.8739
4635.00,0.8586
4634.00,0.8444
4633.00,0.8314
4632.00,0.8196
4631.00,0.8092
4630.00,0.8001
4629.00,0.7925
4628.00,0.7863
4627.00,0.7816
4626.00,0.7783
4625.00,0.7766
4624.00,0.7764
4623.00,0.7777
4622.00,0.7805
4621.00,0.7848
4620.00,0.7905
4619.00,0.7975
4618.00,0.8059
4617.00,0.8153
4616.00,0.8259
4615.00,0.8376
4614.00,0.8503
4613.00,0.8639
4612.00,0.8783
4611.00,0.8934
4610.00,0.9092
4609.00,0.9255
4608.00,0.9423
4607.00,0.9594
4606.00,0.9769
4605.00,0.9945
4604.00,1.0124
4603.00,1.0305
4602.00,1.0489
4601.00,1.0673
4600.00,1.0855
4599.00,1.1037
4598.00,1.1218
4597.00,1.1398
4596.00,1.1579
4595.00,1.1759
4594.00,1.1937
4593.00,1.2111
4592.00,1.2281
4591.00,1.2449
4590.00,1.2614
4589.00,1.2778
4588.00,1.2938
4587.00,1.3095
4586.00,1.3248
4585.00,1.3396
4584.00,1.3539
4583.00,1.3679
4582.00,1.3816
4581.00,1.3949
4580.00,1.4078
4579.00,1.4202
4578.00,1.4323
4577.00,1.4438
4576.00,1.4548
4575.00,1.4652
4574.00,1.4749
4573.00,1.4840
4572.00,1.4925
4571.00,1.5006
4570.00,1.5083
4569.00,1.5158
4568.00,1.5227
4567.00,1.5292
4566.00,1.5350
4565.00,1.5402
4564.00,1.5449
4563.00,1.5491
4562.00,1.5529
4561.00,1.5562
4560.00,1.5590
4559.00,1.5616
4558.00,1.5638
4557.00,1.5655
4556.00,1.5666
4555.00,1.5670
4554.00,1.5668
4553.00,1.5661
4552.00,1.5652
4551.00,1.5642
4550.00,1.5628
4549.00,1.5610
4548.00,1.5586
4547.00,1.5556
4546.00,1.5520
4545.00,1.5477
4544.00,1.5429
4543.00,1.5374
4542.00,1.5313
4541.00,1.5246
4540.00,1.5174
4539.00,1.5101
4538.00,1.5025
4537.00,1.4945
4536.00,1.4859
4535.00,1.4765
4534.00,1.4664
4533.00,1.4557
4532.00,1.4446
4531.00,1.4331
4530.00,1.4211
4529.00,1.4086
4528.00,1.3954
4527.00,1.3816
4526.00,1.3670
4525.00,1.3518
4524.00,1.3359
4523.00,1.3195
4522.00,1.3026
4521.00,1.2851
4520.00,1.2669
4519.00,1.2481
4518.00,1.2288
4517.00,1.2090
4516.00,1.1889
4515.00,1.1684
4514.00,1.1476
4513.00,1.1264
4512.00,1.1050
4511.00,1.0835
4510.00,1.0621
4509.00,1.0407
4508.00,1.0195
4507.00,0.9985
4506.00,0.9780
4505.00,0.9578
4504.00,0.9383
4503.00,0.9194
4502.00,0.9013
4501.00,0.8842
4500.00,0.8681
4499.00,0.8531
4498.00,0.8393
4497.00,0.8269
4496.00,0.8158
4495.00,0.8061
4494.00,0.7980
4493.00,0.7915
4492.00,0.7866
4491.00,0.7834
4490.00,0.7818
4489.00,0.7820
4488.00,0.7837
4487.00,0.7872
4486.00,0.7921
4485.00,0.7987
4484.00,0.8066
4483.00,0.8160
4482.00,0.8267
4481.00,0.8386
4480.00,0.8517
4479.00,0.8657
4478.00,0.8806
4477.00,0.8964
4476.00,0.9128
4475.00,0.9299
4474.00,0.9476
4473.00,0.9658
4472.00,0.9844
4471.00,1.0033
4470.00,1.0225
4469.00,1.0419
4468.00,1.0615
4467.00,1.0812
4466.00,1.1008
4465.00,1.1203
4464.00,1.1397
4463.00,1.1590
4462.00,1.1783
4461.00,1.1973
4460.00,1.2162
4459.00,1.2347
4458.00,1.2530
4457.00,1.2709
4456.00,1.2884
4455.00,1.3057
4454.00,1.3226
4453.00,1.3393
4452.00,1.3555
4451.00,1.3714
4450.00,1.3868
4449.00,1.4017
4448.00,1.4160
4447.00,1.4297
4446.00,1.4429
4445.00,1.4556
4444.00,1.4679
4443.00,1.4798
4442.00,1.4913
4441.00,1.5023
4440.00,1.5127
4439.00,1.5224
4438.00,1.5315
4437.00,1.5400
4436.00,1.5481
4435.00,1.5555
4434.00,1.5625
4433.00,1.5690
4432.00,1.5752
4431.00,1.5810
4430.00,1.5863
4429.00,1.5912
4428.00,1.5954
4427.00,1.5991
4426.00,1.6021
4425.00,1.6044
4424.00,1.6061
4423.00,1.6072
4422.00,1.6080
4421.00,1.6085
4420.00,1.6087
4419.00,1.6085
4418.00,1.6080
4417.00,1.6069
4416.00,1.6053
4415.00,1.6030
4414.00,1.6002
4413.00,1.5969
4412.00,1.5930
4411.00,1.5887
4410.00,1.5841
4409.00,1.5790
4408.00,1.5734
4407.00,1.5673
4406.00,1.5607
4405.00,1.5537
4404.00,1.5462
4403.00,1.5382
4402.00,1.5296
4401.00,1.5204
4400.00,1.5104
4399.00,1.5000
4398.00,1.4891
4397.00,1.4779
4396.00,1.4664
4395.00,1.4543
4394.00,1.4416
4393.00,1.4283
4392.00,1.4145
4391.00,1.4003
4390.00,1.3857
4389.00,1.3706
4388.00,1.3548
4387.00,1.3384
4386.00,1.3215
4385.00,1.3042
4384.00,1.2865
4383.00,1.2685
4382.00,1.2503
4381.00,1.2320
4380.00,1.2134
4379.00,1.1947
4378.00,1.1760
4377.00,1.1572
4376.00,1.1386
4375.00,1.1201
4374.00,1.1018
4373.00,1.0836
4372.00,1.0656
4371.00,1.0481
4370.00,1.0310
4369.00,1.0144
4368.00,0.9982
4367.00,0.9826
4366.00,0.9677
4365.00,0.9535
4364.00,0.9402
4363.00,0.9277
4362.00,0.9161
4361.00,0.9055
4360.00,0.8959
4359.00,0.8875
4358.00,0.8803
4357.00,0.8746
4356.00,0.8702
4355.00,0.8672
4354.00,0.8658
4353.00,0.8658
4352.00,0.8673
4351.00,0.8704
4350.00,0.8749
4349.00,0.8809
4348.00,0.8881
4347.00,0.8966
4346.00,0.9061
4345.00,0.9167
4344.00,0.9283
4343.00,0.9409
4342.00,0.9544
4341.00,0.9687
4340.00,0.9836
4339.00,0.9991
4338.00,1.0152
4337.00,1.0319
4336.00,1.0491
4335.00,1.0669
4334.00,1.0852
4333.00,1.1038
4332.00,1.1227
4331.00,1.1418
4330.00,1.1609
4329.00,1.1801
4328.00,1.1992
4327.00,1.2183
4326.00,1.2373
4325.00,1.2561
4324.00,1.2748
4323.00,1.2933
4322.00,1.3116
4321.00,1.3296
4320.00,1.3472
4319.00,1.3643
4318.00,1.3811
4317.00,1.3975
4316.00,1.4136
4315.00,1.4294
4314.00,1.4448
4313.00,1.4596
4312.00,1.4739
4311.00,1.4874
4310.00,1.5003
4309.00,1.5125
4308.00,1.5243
4307.00,1.5359
4306.00,1.5473
4305.00,1.5581
4304.00,1.5681
4303.00,1.5772
4302.00,1.5854
4301.00,1.5933
4300.00,1.6009
4299.00,1.6084
4298.00,1.6155
4297.00,1.6222
4296.00,1.6284
4295.00,1.6340
4294.00,1.6390
4293.00,1.6435
4292.00,1.6473
4291.00,1.6505
4290.00,1.6533
4289.00,1.6559
4288.00,1.6581
4287.00,1.6599
4286.00,1.6610
4285.00,1.6615
4284.00,1.6615
4283.00,1.6612
4282.00,1.6606
4281.00,1.6596
4280.00,1.6582
4279.00,1.6564
4278.00,1.6543
4277.00,1.6516
4276.00,1.6482
4275.00,1.6442
4274.00,1.6397
4273.00,1.6350
4272.00,1.6300
4271.00,1.6245
4270.00,1.6182
4269.00,1.6112
4268.00,1.6035
4267.00,1.5956
4266.00,1.5874
4265.00,1.5788
4264.00,1.5696
4263.00,1.5598
4262.00,1.5493
4261.00,1.5382
4260.00,1.5264
4259.00,1.5139
4258.00,1.5008
4257.00,1.4871
4256.00,1.4729
4255.00,1.4581
4254.00,1.4427
4253.00,1.4266
4252.00,1.4098
4251.00,1.3923
4250.00,1.3741
4249.00,1.3553
4248.00,1.3359
4247.00,1.3158
4246.00,1.2952
4245.00,1.2740
4244.00,1.2525
4243.00,1.2304
4242.00,1.2081
4241.00,1.1854
4240.00,1.1626
4239.00,1.1398
4238.00,1.1171
4237.00,1.0946
4236.00,1.0724
4235.00,1.0507
4234.00,1.0295
4233.00,1.0090
4232.00,0.9892
4231.00,0.9703
4230.00,0.9525
4229.00,0.9359
4228.00,0.9206
4227.00,0.9069
4226.00,0.8946
4225.00,0.8838
4224.00,0.8746
4223.00,0.8671
4222.00,0.8612
4221.00,0.8571
4220.00,0.8546
4219.00,0.8539
4218.00,0.8548
4217.00,0.8573
4216.00,0.8614
4215.00,0.8671
4214.00,0.8744
4213.00,0.8830
4212.00,0.8931
4211.00,0.9045
4210.00,0.9171
4209.00,0.9308
4208.00,0.9455
4207.00,0.9611
4206.00,0.9777
4205.00,0.9949
4204.00,1.0129
4203.00,1.0314
4202.00,1.0505
4201.00,1.0699
4200.00,1.0897
4199.00,1.1099
4198.00,1.1302
4197.00,1.1507
4196.00,1.1713
4195.00,1.1919
4194.00,1.2124
4193.00,1.2328
4192.00,1.2530
4191.00,1.2730
4190.00,1.2927
4189.00,1.3123
4188.00,1.3315
4187.00,1.3504
4186.00,1.3690
4185.00,1.3872
4184.00,1.4051
4183.00,1.4224
4182.00,1.4391
4181.00,1.4552
4180.00,1.4708
4179.00,1.4861
4178.00,1.5011
4177.00,1.5157
4176.00,1.5296
4175.00,1.5429
4174.00,1.5556
4173.00,1.5677
4172.00,1.5793
4171.00,1.5904
4170.00,1.6009
4169.00,1.6108
4168.00,1.6204
4167.00,1.6295
4166.00,1.6383
4165.00,1.6465
4164.00,1.6541
4163.00,1.6610
4162.00,1.6672
4161.00,1.6729
4160.00,1.6782
4159.00,1.6832
4158.00,1.6877
4157.00,1.6916
4156.00,1.6949
4155.00,1.6976
4154.00,1.6999
4153.00,1.7019
4152.00,1.7035
4151.00,1.7046
4150.00,1.7052
4149.00,1.7053
4148.00,1.7049
4147.00,1.7042
4146.00,1.7031
4145.00,1.7016
4144.00,1.6995
4143.00,1.6969
4142.00,1.6936
4141.00,1.6897
4140.00,1.6853
4139.00,1.6805
4138.00,1.6751
4137.00,1.6691
4136.00,1.6628
4135.00,1.6561
4134.00,1.6491
4133.00,1.6416
4132.00,1.6334
4131.00,1.6245
4130.00,1.6151
4129.00,1.6053
4128.00,1.5951
4127.00,1.5843
4126.00,1.5729
4125.00,1.5607
4124.00,1.5478
4123.00,1.5342
4122.00,1.5202
4121.00,1.5056
4120.00,1.4904
4119.00,1.4745
4118.00,1.4578
4117.00,1.4404
4116.00,1.4223
4115.00,1.4037
4114.00,1.3845
4113.00,1.3648
4112.00,1.3444
4111.00,1.3236
4110.00,1.3021
4109.00,1.2802
4108.00,1.2578
4107.00,1.2349
4106.00,1.2116
4105.00,1.1882
4104.00,1.1646
4103.00,1.1411
4102.00,1.1178
4101.00,1.0948
4100.00,1.0720
4099.00,1.0495
4098.00,1.0276
4097.00,1.0063
4096.00,0.9859
4095.00,0.9667
4094.00,0.9487
4093.00,0.9321
4092.00,0.9168
4091.00,0.9029
4090.00,0.8907
4089.00,0.8801
4088.00,0.8714
4087.00,0.8645
4086.00,0.8596
4085.00,0.8566
4084.00,0.8554
4083.00,0.8562
4082.00,0.8589
4081.00,0.8634
4080.00,0.8697
4079.00,0.8777
4078.00,0.8874
4077.00,0.8985
4076.00,0.9112
4075.00,0.9251
4074.00,0.9403
4073.00,0.9566
4072.00,0.9739
4071.00,0.9921
4070.00,1.0111
4069.00,1.0308
4068.00,1.0512
4067.00,1.0721
4066.00,1.0934
4065.00,1.1150
4064.00,1.1368
4063.00,1.1588
4062.00,1.1809
4061.00,1.2031
4060.00,1.2252
4059.00,1.2472
4058.00,1.2689
4057.00,1.2905
4056.00,1.3118
4055.00,1.3327
4054.00,1.3534
4053.00,1.3737
4052.00,1.3938
4051.00,1.4135
4050.00,1.4326
4049.00,1.4512
4048.00,1.4690
4047.00,1.4863
4046.00,1.5032
4045.00,1.5196
4044.00,1.5357
4043.00,1.5512
4042.00,1.5660
4041.00,1.5802
4040.00,1.5937
4039.00,1.6068
4038.00,1.6195
4037.00,1.6317
4036.00,1.6431
4035.00,1.6537
4034.00,1.6636
4033.00,1.6731
4032.00,1.6821
4031.00,1.6907
4030.00,1.6987
4029.00,1.7063
4028.00,1.7134
4027.00,1.7200
4026.00,1.7261
4025.00,1.7317
4024.00,1.7367
4023.00,1.7412
4022.00,1.7454
4021.00,1.7492
4020.00,1.7527
4019.00,1.7556
4018.00,1.7576
4017.00,1.7587
4016.00,1.7590
4015.00,1.7590
4014.00,1.7586
4013.00,1.7580
4012.00,1.7570
4011.00,1.7554
4010.00,1.7534
4009.00,1.7511
4008.00,1.7485
4007.00,1.7454
4006.00,1.7420
4005.00,1.7381
4004.00,1.7336
4003.00,1.7285
4002.00,1.7226
4001.00,1.7161
4000.00,1.7091
3999.00,1.7017
3998.00,1.6937
3997.00,1.6852
3996.00,1.6762
3995.00,1.6666
3994.00,1.6562
3993.00,1.6451
3992.00,1.6333
3991.00,1.6210
3990.00,1.6082
3989.00,1.5951
3988.00,1.5813
3987.00,1.5669
3986.00,1.5517
3985.00,1.5357
3984.00,1.5189
3983.00,1.5012
3982.00,1.4829
3981.00,1.4640
3980.00,1.4445
3979.00,1.4242
3978.00,1.4033
3977.00,1.3816
3976.00,1.3593
3975.00,1.3365
3974.00,1.3132
3973.00,1.2893
3972.00,1.2650
3971.00,1.2403
3970.00,1.2153
3969.00,1.1902
3968.00,1.1651
3967.00,1.1403
3966.00,1.1158
3965.00,1.0919
3964.00,1.0686
3963.00,1.0461
3962.00,1.0244
3961.00,1.0037
3960.00,0.9843
3959.00,0.9663
3958.00,0.9498
3957.00,0.9350
3956.00,0.9220
3955.00,0.9107
3954.00,0.9014
3953.00,0.8939
3952.00,0.8883
3951.00,0.8845
3950.00,0.8825
3949.00,0.8825
3948.00,0.8843
3947.00,0.8881
3946.00,0.8936
3945.00,0.9010
3944.00,0.9102
3943.00,0.9210
3942.00,0.9333
3941.00,0.9469
3940.00,0.9618
3939.00,0.9780
3938.00,0.9955
3937.00,1.0140
3936.00,1.0331
3935.00,1.0529
3934.00,1.0735
3933.00,1.0949
3932.00,1.1172
3931.00,1.1399
3930.00,1.1627
3929.00,1.1853
3928.00,1.2076
3927.00,1.2297
3926.00,1.2519
3925.00,1.2743
3924.00,1.2969
3923.00,1.3193
3922.00,1.3413
3921.00,1.3629
3920.00,1.3841
3919.00,1.4050
3918.00,1.4258
3917.00,1.4468
3916.00,1.4678
3915.00,1.4882
3914.00,1.5078
3913.00,1.5263
3912.00,1.5440
3911.00,1.5608
3910.00,1.5771
3909.00,1.5928
3908.00,1.6080
3907.00,1.6225
3906.00,1.6364
3905.00,1.6501
3904.00,1.6635
3903.00,1.6766
3902.00,1.6892
3901.00,1.7011
3900.00,1.7125
3899.00,1.7231
3898.00,1.7329
3897.00,1.7417
3896.00,1.7498
3895.00,1.7572
3894.00,1.7636
3893.00,1.7693
3892.00,1.7746
3891.00,1.7796
3890.00,1.7845
3889.00,1.7890
3888.00,1.7933
3887.00,1.7974
3886.00,1.8010
3885.00,1.8040
3884.00,1.8061
3883.00,1.8075
3882.00,1.8084
3881.00,1.8082
3880.00,1.8067
3879.00,1.8044
3878.00,1.8024
3877.00,1.8013
3876.00,1.8004
3875.00,1.7987
3874.00,1.7955
3873.00,1.7909
3872.00,1.7854
3871.00,1.7796
3870.00,1.7735
3869.00,1.7669
3868.00,1.7598
3867.00,1.7529
3866.00,1.7462
3865.00,1.7388
3864.00,1.7299
3863.00,1.7196
3862.00,1.7088
3861.00,1.6981
3860.00,1.6875
3859.00,1.6767
3858.00,1.6657
3857.00,1.6545
3856.00,1.6427
3855.00,1.6299
3854.00,1.6154
3853.00,1.5990
3852.00,1.5813
3851.00,1.5637
3850.00,1.5471
3849.00,1.5306
3848.00,1.5127
3847.00,1.4933
3846.00,1.4730
3845.00,1.4520
3844.00,1.4301
3843.00,1.4072
3842.00,1.3834
3841.00,1.3591
3840.00,1.3342
3839.00,1.3080
3838.00,1.2803
3837.00,1.2511
3836.00,1.2218
3835.00,1.1932
3834.00,1.1652
3833.00,1.1372
3832.00,1.1089
3831.00,1.0809
3830.00,1.0538
3829.00,1.0283
3828.00,1.0042
3827.00,0.9812
3826.00,0.9593
3825.00,0.9392
3824.00,0.9217
3823.00,0.9067
3822.00,0.8934
3821.00,0.8808
3820.00,0.8692
3819.00,0.8602
3818.00,0.8555
3817.00,0.8553
3816.00,0.8577
3815.00,0.8611
3814.00,0.8657
3813.00,0.8728
3812.00,0.8830
3811.00,0.8955
3810.00,0.9094
3809.00,0.9250
3808.00,0.9433
3807.00,0.9640
3806.00,0.9858
3805.00,1.0072
3804.00,1.0283
3803.00,1.0506
3802.00,1.0754
3801.00,1.1022
3800.00,1.1294
3799.00,1.1556
3798.00,1.1812
3797.00,1.2068
3796.00,1.2321
3795.00,1.2573
3794.00,1.2824
3793.00,1.3076
3792.00,1.3328
3791.00,1.3574
3790.00,1.3814
3789.00,1.4049
3788.00,1.4281
3787.00,1.4510
3786.00,1.4733
3785.00,1.4952
3784.00,1.5165
3783.00,1.5372
3782.00,1.5573
3781.00,1.5771
3780.00,1.5966
3779.00,1.6154
3778.00,1.6332
3777.00,1.6502
3776.00,1.6669
3775.00,1.6832
3774.00,1.6983
3773.00,1.7122
3772.00,1.7253
3771.00,1.7380
3770.00,1.7505
3769.00,1.7623
3768.00,1.7732
3767.00,1.7835
3766.00,1.7933
3765.00,1.8027
3764.00,1.8114
3763.00,1.8195
3762.00,1.8270
3761.00,1.8341
3760.00,1.8404
3759.00,1.8458
3758.00,1.8504
3757.00,1.8546
3756.00,1.8586
3755.00,1.8625
3754.00,1.8664
3753.00,1.8701
3752.00,1.8735
3751.00,1.8763
3750.00,1.8787
3749.00,1.8809
3748.00,1.8828
3747.00,1.8844
3746.00,1.8857
3745.00,1.8867
3744.00,1.8871
3743.00,1.8867
3742.00,1.8860
3741.00,1.8856
3740.00,1.8846
3739.00,1.8819
3738.00,1.8779
3737.00,1.8734
3736.00,1.8683
3735.00,1.8620
3734.00,1.8545
3733.00,1.8458
3732.00,1.8357
3731.00,1.8241
3730.00,1.8118
3729.00,1.7989
3728.00,1.7852
3727.00,1.7704
3726.00,1.7542
3725.00,1.7363
3724.00,1.7173
3723.00,1.6982
3722.00,1.6791
3721.00,1.6600
3720.00,1.6410
3719.00,1.6219
3718.00,1.6029
3717.00,1.5834
3716.00,1.5606
3715.00,1.5322
3714.00,1.4988
3713.00,1.4660
3712.00,1.4395
3711.00,1.4205
3710.00,1.4047
3709.00,1.3852
3708.00,1.3605
3707.00,1.3323
3706.00,1.3037
3705.00,1.2750
3704.00,1.2461
3703.00,1.2170
3702.00,1.1874
3701.00,1.1582
3700.00,1.1303
3699.00,1.1047
3698.00,1.0816
3697.00,1.0610
3696.00,1.0424
3695.00,1.0263
3694.00,1.0131
3693.00,1.0029
3692.00,0.9955
3691.00,0.9906
3690.00,0.9881
3689.00,0.9878
3688.00,0.9899
3687.00,0.9942
3686.00,1.0014
3685.00,1.0109
3684.00,1.0224
3683.00,1.0353
3682.00,1.0497
3681.00,1.0659
3680.00,1.0836
3679.00,1.1025
3678.00,1.1224
3677.00,1.1441
3676.00,1.1686
3675.00,1.1952
3674.00,1.2213
3673.00,1.2460
3672.00,1.2705
3671.00,1.2964
3670.00,1.3237
3669.00,1.3512
3668.00,1.3781
3667.00,1.4040
3666.00,1.4293
3665.00,1.4538
3664.00,1.4776
3663.00,1.5009
3662.00,1.5240
3661.00,1.5467
3660.00,1.5689
3659.00,1.5905
3658.00,1.6118
3657.00,1.6330
3656.00,1.6543
3655.00,1.6750
3654.00,1.6941
3653.00,1.7118
3652.00,1.7285
3651.00,1.7448
3650.00,1.7608
3649.00,1.7766
3648.00,1.7924
3647.00,1.8083
3646.00,1.8239
3645.00,1.8385
3644.00,1.8521
3643.00,1.8646
3642.00,1.8762
3641.00,1.8871
3640.00,1.8976
3639.00,1.9079
3638.00,1.9181
3637.00,1.9277
3636.00,1.9370
3635.00,1.9459
3634.00,1.9541
3633.00,1.9610
3632.00,1.9669
3631.00,1.9725
3630.00,1.9779
3629.00,1.9830
3628.00,1.9877
3627.00,1.9917
3626.00,1.9948
3625.00,1.9968
3624.00,1.9976
3623.00,1.9975
3622.00,1.9976
3621.00,1.9983
3620.00,1.9998
3619.00,2.0015
3618.00,2.0025
3617.00,2.0030
3616.00,2.0038
3615.00,2.0049
3614.00,2.0053
3613.00,2.0046
3612.00,2.0025
3611.00,1.9998
3610.00,1.9969
3609.00,1.9942
3608.00,1.9919
3607.00,1.9894
3606.00,1.9861
3605.00,1.9828
3604.00,1.9782
3603.00,1.9757
3602.00,1.9732
3601.00,1.9676
3600.00,1.9627
3599.00,1.9573
3598.00,1.9517
3597.00,1.9456
3596.00,1.9393
3595.00,1.9328
3594.00,1.9258
3593.00,1.9183
3592.00,1.9104
3591.00,1.9020
3590.00,1.8932
3589.00,1.8838
3588.00,1.8738
3587.00,1.8629
3586.00,1.8511
3585.00,1.8387
3584.00,1.8265
3583.00,1.8142
3582.00,1.8013
3581.00,1.7879
3580.00,1.7746
3579.00,1.7617
3578.00,1.7486
3577.00,1.7352
3576.00,1.7215
3575.00,1.7080
3574.00,1.6950
3573.00,1.6822
3572.00,1.6696
3571.00,1.6571
3570.00,1.6449
3569.00,1.6329
3568.00,1.6211
3567.00,1.6094
3566.00,1.5979
3565.00,1.5868
3564.00,1.5765
3563.00,1.5671
3562.00,1.5585
3561.00,1.5508
3560.00,1.5439
3559.00,1.5381
3558.00,1.5331
3557.00,1.5290
3556.00,1.5257
3555.00,1.5233
3554.00,1.5217
3553.00,1.5209
3552.00,1.5210
3551.00,1.5221
3550.00,1.5243
3549.00,1.5277
3548.00,1.5322
3547.00,1.5376
3546.00,1.5436
3545.00,1.5501
3544.00,1.5573
3543.00,1.5654
3542.00,1.5741
3541.00,1.5834
3540.00,1.5932
3539.00,1.6034
3538.00,1.6142
3537.00,1.6253
3536.00,1.6369
3535.00,1.6489
3534.00,1.6611
3533.00,1.6734
3532.00,1.6857
3531.00,1.6982
3530.00,1.7107
3529.00,1.7234
3528.00,1.7361
3527.00,1.7489
3526.00,1.7616
3525.00,1.7743
3524.00,1.7870
3523.00,1.7997
3522.00,1.8121
3521.00,1.8244
3520.00,1.8368
3519.00,1.8493
3518.00,1.8616
3517.00,1.8734
3516.00,1.8849
3515.00,1.8962
3514.00,1.9069
3513.00,1.9172
3512.00,1.9270
3511.00,1.9367
3510.00,1.9466
3509.00,1.9565
3508.00,1.9662
3507.00,1.9755
3506.00,1.9842
3505.00,1.9926
3504.00,2.0008
3503.00,2.0089
3502.00,2.0165
3501.00,2.0241
3500.00,2.0320
3499.00,2.0401
3498.00,2.0477
3497.00,2.0544
3496.00,2.0602
3495.00,2.0656
3494.00,2.0709
3493.00,2.0760
3492.00,2.0808
3491.00,2.0850
3490.00,2.0890
3489.00,2.0931
3488.00,2.0974
3487.00,2.1015
3486.00,2.1051
3485.00,2.1083
3484.00,2.1115
3483.00,2.1148
3482.00,2.1178
3481.00,2.1199
3480.00,2.1210
3479.00,2.1213
3478.00,2.1211
3477.00,2.1207
3476.00,2.1206
3475.00,2.1208
3474.00,2.1212
3473.00,2.1210
3472.00,2.1198
3471.00,2.1175
3470.00,2.1145
3469.00,2.1112
3468.00,2.1079
3467.00,2.1045
3466.00,2.1009
3465.00,2.0973
3464.00,2.0935
3463.00,2.0894
3462.00,2.0845
3461.00,2.0787
3460.00,2.0722
3459.00,2.0657
3458.00,2.0593
3457.00,2.0526
3456.00,2.0455
3455.00,2.0377
3454.00,2.0296
3453.00,2.0213
3452.00,2.0127
3451.00,2.0038
3450.00,1.9944
3449.00,1.9841
3448.00,1.9729
3447.00,1.9611
3446.00,1.9493
3445.00,1.9378
3444.00,1.9263
3443.00,1.9144
3442.00,1.9017
3441.00,1.8882
3440.00,1.8742
3439.00,1.8602
3438.00,1.8461
3437.00,1.8322
3436.00,1.8183
3435.00,1.8042
3434.00,1.7900
3433.00,1.7757
3432.00,1.7614
3431.00,1.7473
3430.00,1.7331
3429.00,1.7190
3428.00,1.7053
3427.00,1.6923
3426.00,1.6800
3425.00,1.6686
3424.00,1.6579
3423.00,1.6480
3422.00,1.6390
3421.00,1.6309
3420.00,1.6240
3419.00,1.6182
3418.00,1.6136
3417.00,1.6101
3416.00,1.6077
3415.00,1.6061
3414.00,1.6052
3413.00,1.6052
3412.00,1.6059
3411.00,1.6072
3410.00,1.6089
3409.00,1.6109
3408.00,1.6129
3407.00,1.6149
3406.00,1.6168
3405.00,1.6185
3404.00,1.6200
3403.00,1.6211
3402.00,1.6219
3401.00,1.6226
3400.00,1.6235
3399.00,1.6249
3398.00,1.6269
3397.00,1.6295
3396.00,1.6327
3395.00,1.6366
3394.00,1.6413
3393.00,1.6471
3392.00,1.6540
3391.00,1.6619
3390.00,1.6707
3389.00,1.6804
3388.00,1.6908
3387.00,1.7018
3386.00,1.7132
3385.00,1.7252
3384.00,1.7377
3383.00,1.7506
3382.00,1.7640
3381.00,1.7778
3380.00,1.7917
3379.00,1.8055
3378.00,1.8192
3377.00,1.8329
3376.00,1.8467
3375.00,1.8606
3374.00,1.8745
3373.00,1.8882
3372.00,1.9019
3371.00,1.9154
3370.00,1.9286
3369.00,1.9414
3368.00,1.9538
3367.00,1.9660
3366.00,1.9779
3365.00,1.9894
3364.00,2.0005
3363.00,2.0109
3362.00,2.0206
3361.00,2.0299
3360.00,2.0388
3359.00,2.0474
3358.00,2.0552
3357.00,2.0625
3356.00,2.0698
3355.00,2.0772
3354.00,2.0846
3353.00,2.0913
3352.00,2.0971
3351.00,2.1025
3350.00,2.1076
3349.00,2.1125
3348.00,2.1170
3347.00,2.1208
3346.00,2.1237
3345.00,2.1256
3344.00,2.1266
3343.00,2.1271
3342.00,2.1276
3341.00,2.1285
3340.00,2.1294
3339.00,2.1299
3338.00,2.1299
3337.00,2.1292
3336.00,2.1279
3335.00,2.1261
3334.00,2.1238
3333.00,2.1212
3332.00,2.1181
3331.00,2.1144
3330.00,2.1102
3329.00,2.1059
3328.00,2.1013
3327.00,2.0961
3326.00,2.0901
3325.00,2.0833
3324.00,2.0764
3323.00,2.0694
3322.00,2.0620
3321.00,2.0540
3320.00,2.0453
3319.00,2.0360
3318.00,2.0261
3317.00,2.0158
3316.00,2.0053
3315.00,1.9945
3314.00,1.9833
3313.00,1.9714
3312.00,1.9585
3311.00,1.9448
3310.00,1.9307
3309.00,1.9162
3308.00,1.9014
3307.00,1.8860
3306.00,1.8702
3305.00,1.8539
3304.00,1.8372
3303.00,1.8198
3302.00,1.8021
3301.00,1.7843
3300.00,1.7664
3299.00,1.7485
3298.00,1.7304
3297.00,1.7120
3296.00,1.6935
3295.00,1.6751
3294.00,1.6567
3293.00,1.6387
3292.00,1.6208
3291.00,1.6032
3290.00,1.5860
3289.00,1.5695
3288.00,1.5538
3287.00,1.5391
3286.00,1.5255
3285.00,1.5131
3284.00,1.5019
3283.00,1.4917
3282.00,1.4827
3281.00,1.4751
3280.00,1.4689
3279.00,1.4645
3278.00,1.4618
3277.00,1.4607
3276.00,1.4613
3275.00,1.4633
3274.00,1.4668
3273.00,1.4718
3272.00,1.4782
3271.00,1.4861
3270.00,1.4953
3269.00,1.5056
3268.00,1.5172
3267.00,1.5298
3266.00,1.5434
3265.00,1.5576
3264.00,1.5726
3263.00,1.5882
3262.00,1.6043
3261.00,1.6210
3260.00,1.6381
3259.00,1.6555
3258.00,1.6733
3257.00,1.6914
3256.00,1.7098
3255.00,1.7284
3254.00,1.7468
3253.00,1.7649
3252.00,1.7829
3251.00,1.8008
3250.00,1.8186
3249.00,1.8361
3248.00,1.8530
3247.00,1.8695
3246.00,1.8859
3245.00,1.9025
3244.00,1.9190
3243.00,1.9351
3242.00,1.9501
3241.00,1.9641
3240.00,1.9773
3239.00,1.9901
3238.00,2.0028
3237.00,2.0155
3236.00,2.0281
3235.00,2.0405
3234.00,2.0523
3233.00,2.0634
3232.00,2.0739
3231.00,2.0840
3230.00,2.0936
3229.00,2.1029
3228.00,2.1121
3227.00,2.1211
3226.00,2.1295
3225.00,2.1368
3224.00,2.1431
3223.00,2.1484
3222.00,2.1532
3221.00,2.1578
3220.00,2.1623
3219.00,2.1671
3218.00,2.1719
3217.00,2.1761
3216.00,2.1793
3215.00,2.1814
3214.00,2.1830
3213.00,2.1847
3212.00,2.1866
3211.00,2.1883
3210.00,2.1894
3209.00,2.1900
3208.00,2.1902
3207.00,2.1899
3206.00,2.1891
3205.00,2.1883
3204.00,2.1875
3203.00,2.1865
3202.00,2.1846
3201.00,2.1813
3200.00,2.1773
3199.00,2.1733
3198.00,2.1695
3197.00,2.1657
3196.00,2.1614
3195.00,2.1567
3194.00,2.1519
3193.00,2.1471
3192.00,2.1417
3191.00,2.1355
3190.00,2.1280
3189.00,2.1196
3188.00,2.1104
3187.00,2.1012
3186.00,2.0920
3185.00,2.0826
3184.00,2.0727
3183.00,2.0622
3182.00,2.0510
3181.00,2.0390
3180.00,2.0261
3179.00,2.0126
3178.00,1.9989
3177.00,1.9853
3176.00,1.9714
3175.00,1.9569
3174.00,1.9417
3173.00,1.9259
3172.00,1.9099
3171.00,1.8936
3170.00,1.8771
3169.00,1.8606
3168.00,1.8438
3167.00,1.8265
3166.00,1.8085
3165.00,1.7902
3164.00,1.7719
3163.00,1.7540
3162.00,1.7364
3161.00,1.7190
3160.00,1.7015
3159.00,1.6843
3158.00,1.6675
3157.00,1.6516
3156.00,1.6365
3155.00,1.6223
3154.00,1.6089
3153.00,1.5965
3152.00,1.5851
3151.00,1.5751
3150.00,1.5663
3149.00,1.5589
3148.00,1.5531
3147.00,1.5487
3146.00,1.5459
3145.00,1.5447
3144.00,1.5452
3143.00,1.5472
3142.00,1.5507
3141.00,1.5557
3140.00,1.5623
3139.00,1.5706
3138.00,1.5804
3137.00,1.5916
3136.00,1.6039
3135.00,1.6172
3134.00,1.6315
3133.00,1.6467
3132.00,1.6627
3131.00,1.6793
3130.00,1.6964
3129.00,1.7140
3128.00,1.7322
3127.00,1.7509
3126.00,1.7700
3125.00,1.7892
3124.00,1.8083
3123.00,1.8271
3122.00,1.8456
3121.00,1.8642
3120.00,1.8827
3119.00,1.9010
3118.00,1.9189
3117.00,1.9364
3116.00,1.9538
3115.00,1.9710
3114.00,1.9882
3113.00,2.0053
3112.00,2.0221
3111.00,2.0384
3110.00,2.0542
3109.00,2.0691
3108.00,2.0832
3107.00,2.0962
3106.00,2.1085
3105.00,2.1206
3104.00,2.1328
3103.00,2.1447
3102.00,2.1557
3101.00,2.1655
3100.00,2.1745
3099.00,2.1834
3098.00,2.1922
3097.00,2.2006
3096.00,2.2083
3095.00,2.2153
3094.00,2.2216
3093.00,2.2277
3092.00,2.2335
3091.00,2.2389
3090.00,2.2440
3089.00,2.2487
3088.00,2.2529
3087.00,2.2565
3086.00,2.2593
3085.00,2.2613
3084.00,2.2629
3083.00,2.2641
3082.00,2.2647
3081.00,2.2646
3080.00,2.2638
3079.00,2.2624
3078.00,2.2607
3077.00,2.2584
3076.00,2.2556
3075.00,2.2520
3074.00,2.2480
3073.00,2.2438
3072.00,2.2394
3071.00,2.2348
3070.00,2.2294
3069.00,2.2226
3068.00,2.2148
3067.00,2.2066
3066.00,2.1985
3065.00,2.1903
3064.00,2.1809
3063.00,2.1702
3062.00,2.1588
3061.00,2.1474
3060.00,2.1358
3059.00,2.1237
3058.00,2.1106
3057.00,2.0966
3056.00,2.0817
3055.00,2.0662
3054.00,2.0502
3053.00,2.0336
3052.00,2.0161
3051.00,1.9977
3050.00,1.9785
3049.00,1.9588
3048.00,1.9385
3047.00,1.9178
3046.00,1.8966
3045.00,1.8751
3044.00,1.8532
3043.00,1.8310
3042.00,1.8089
3041.00,1.7873
3040.00,1.7664
3039.00,1.7463
3038.00,1.7274
3037.00,1.7100
3036.00,1.6944
3035.00,1.6804
3034.00,1.6683
3033.00,1.6585
3032.00,1.6511
3031.00,1.6463
3030.00,1.6440
3029.00,1.6446
3028.00,1.6479
3027.00,1.6540
3026.00,1.6626
3025.00,1.6737
3024.00,1.6870
3023.00,1.7026
3022.00,1.7200
3021.00,1.7392
3020.00,1.7600
3019.00,1.7821
3018.00,1.8052
3017.00,1.8294
3016.00,1.8547
3015.00,1.8810
3014.00,1.9080
3013.00,1.9354
3012.00,1.9627
3011.00,1.9897
3010.00,2.0162
3009.00,2.0422
3008.00,2.0681
3007.00,2.0937
3006.00,2.1191
3005.00,2.1435
3004.00,2.1671
3003.00,2.1901
3002.00,2.2130
3001.00,2.2358
3000.00,2.2574
2999.00,2.2771
2998.00,2.2946
2997.00,2.3107
2996.00,2.3260
2995.00,2.3406
2994.00,2.3546
2993.00,2.3679
2992.00,2.3799
2991.00,2.3901
2990.00,2.3985
2989.00,2.4056
2988.00,2.4119
2987.00,2.4175
2986.00,2.4227
2985.00,2.4279
2984.00,2.4339
2983.00,2.4411
2982.00,2.4496
2981.00,2.4603
2980.00,2.4736
2979.00,2.4904
2978.00,2.5119
2977.00,2.5398
2976.00,2.5744
2975.00,2.6148
2974.00,2.6602
2973.00,2.7114
2972.00,2.7700
2971.00,2.8363
2970.00,2.9092
2969.00,2.9884
2968.00,3.0748
2967.00,3.1685
2966.00,3.2667
2965.00,3.3642
2964.00,3.4566
2963.00,3.5421
2962.00,3.6219
2961.00,3.6991
2960.00,3.7741
2959.00,3.8427
2958.00,3.9032
2957.00,3.9585
2956.00,4.0020
2955.00,4.0142
2954.00,3.9931
2953.00,3.9662
2952.00,3.9576
2951.00,3.9749
2950.00,4.0211
2949.00,4.1049
2948.00,4.2321
2947.00,4.3909
2946.00,4.5300
2945.00,4.5674
2944.00,4.5228
2943.00,4.4697
2942.00,4.4314
2941.00,4.3852
2940.00,4.3424
2939.00,4.3478
2938.00,4.3925
2937.00,4.3921
2936.00,4.3511
2935.00,4.3023
2934.00,4.2558
2933.00,4.2136
2932.00,4.2010
2931.00,4.2302
2930.00,4.2723
2929.00,4.3291
2928.00,4.3963
2927.00,4.3881
2926.00,4.2678
2925.00,4.1313
2924.00,4.0312
2923.00,3.9649
2922.00,3.9211
2921.00,3.8891
2920.00,3.8489
2919.00,3.7821
2918.00,3.6932
2917.00,3.6011
2916.00,3.5154
2915.00,3.4364
2914.00,3.3660
2913.00,3.3082
2912.00,3.2622
2911.00,3.2205
2910.00,3.1782
2909.00,3.1386
2908.00,3.1079
2907.00,3.0868
2906.00,3.0708
2905.00,3.0555
2904.00,3.0400
2903.00,3.0246
2902.00,3.0081
2901.00,2.9883
2900.00,2.9649
2899.00,2.9405
2898.00,2.9197
2897.00,2.9054
2896.00,2.8966
2895.00,2.8894
2894.00,2.8814
2893.00,2.8731
2892.00,2.8663
2891.00,2.8614
2890.00,2.8580
2889.00,2.8561
2888.00,2.8562
2887.00,2.8571
2886.00,2.8567
2885.00,2.8543
2884.00,2.8520
2883.00,2.8535
2882.00,2.8613
2881.00,2.8755
2880.00,2.8944
2879.00,2.9165
2878.00,2.9417
2877.00,2.9723
2876.00,3.0108
2875.00,3.0572
2874.00,3.1095
2873.00,3.1654
2872.00,3.2241
2871.00,3.2858
2870.00,3.3508
2869.00,3.4203
2868.00,3.4978
2867.00,3.5869
2866.00,3.6834
2865.00,3.7693
2864.00,3.8200
2863.00,3.8242
2862.00,3.7918
2861.00,3.7401
2860.00,3.6807
2859.00,3.6164
2858.00,3.5455
2857.00,3.4668
2856.00,3.3813
2855.00,3.2928
2854.00,3.2061
2853.00,3.1218
2852.00,3.0373
2851.00,2.9534
2850.00,2.8757
2849.00,2.8100
2848.00,2.7569
2847.00,2.7126
2846.00,2.6724
2845.00,2.6344
2844.00,2.5993
2843.00,2.5674
2842.00,2.5381
2841.00,2.5107
2840.00,2.4846
2839.00,2.4596
2838.00,2.4352
2837.00,2.4105
2836.00,2.3848
2835.00,2.3581
2834.00,2.3310
2833.00,2.3045
2832.00,2.2789
2831.00,2.2538
2830.00,2.2284
2829.00,2.2026
2828.00,2.1765
2827.00,2.1499
2826.00,2.1222
2825.00,2.0926
2824.00,2.0608
2823.00,2.0269
2822.00,1.9913
2821.00,1.9544
2820.00,1.9170
2819.00,1.8796
2818.00,1.8429
2817.00,1.8076
2816.00,1.7746
2815.00,1.7447
2814.00,1.7186
2813.00,1.6972
2812.00,1.6808
2811.00,1.6694
2810.00,1.6631
2809.00,1.6617
2808.00,1.6651
2807.00,1.6731
2806.00,1.6855
2805.00,1.7017
2804.00,1.7214
2803.00,1.7441
2802.00,1.7692
2801.00,1.7958
2800.00,1.8232
2799.00,1.8505
2798.00,1.8776
2797.00,1.9041
2796.00,1.9298
2795.00,1.9546
2794.00,1.9782
2793.00,2.0012
2792.00,2.0242
2791.00,2.0472
2790.00,2.0700
2789.00,2.0925
2788.00,2.1148
2787.00,2.1369
2786.00,2.1588
2785.00,2.1804
2784.00,2.2011
2783.00,2.2206
2782.00,2.2386
2781.00,2.2556
2780.00,2.2716
2779.00,2.2865
2778.00,2.3000
2777.00,2.3124
2776.00,2.3243
2775.00,2.3360
2774.00,2.3472
2773.00,2.3576
2772.00,2.3670
2771.00,2.3755
2770.00,2.3829
2769.00,2.3891
2768.00,2.3946
2767.00,2.3998
2766.00,2.4048
2765.00,2.4091
2764.00,2.4123
2763.00,2.4141
2762.00,2.4149
2761.00,2.4151
2760.00,2.4152
2759.00,2.4155
2758.00,2.4159
2757.00,2.4156
2756.00,2.4140
2755.00,2.4111
2754.00,2.4070
2753.00,2.4023
2752.00,2.3978
2751.00,2.3939
2750.00,2.3901
2749.00,2.3851
2748.00,2.3775
2747.00,2.3675
2746.00,2.3568
2745.00,2.3467
2744.00,2.3370
2743.00,2.3264
2742.00,2.3144
2741.00,2.3013
2740.00,2.2878
2739.00,2.2740
2738.00,2.2597
2737.00,2.2447
2736.00,2.2289
2735.00,2.2120
2734.00,2.1938
2733.00,2.1744
2732.00,2.1539
2731.00,2.1323
2730.00,2.1093
2729.00,2.0850
2728.00,2.0597
2727.00,2.0333
2726.00,2.0058
2725.00,1.9769
2724.00,1.9467
2723.00,1.9152
2722.00,1.8826
2721.00,1.8491
2720.00,1.8149
2719.00,1.7799
2718.00,1.7441
2717.00,1.7078
2716.00,1.6711
2715.00,1.6345
2714.00,1.5983
2713.00,1.5630
2712.00,1.5292
2711.00,1.4974
2710.00,1.4681
2709.00,1.4418
2708.00,1.4189
2707.00,1.3999
2706.00,1.3850
2705.00,1.3746
2704.00,1.3688
2703.00,1.3678
2702.00,1.3714
2701.00,1.3795
2700.00,1.3919
2699.00,1.4083
2698.00,1.4284
2697.00,1.4519
2696.00,1.4782
2695.00,1.5068
2694.00,1.5374
2693.00,1.5695
2692.00,1.6029
2691.00,1.6374
2690.00,1.6726
2689.00,1.7083
2688.00,1.7442
2687.00,1.7801
2686.00,1.8160
2685.00,1.8516
2684.00,1.8868
2683.00,1.9213
2682.00,1.9547
2681.00,1.9870
2680.00,2.0177
2679.00,2.0462
2678.00,2.0725
2677.00,2.0967
2676.00,2.1195
2675.00,2.1410
2674.00,2.1611
2673.00,2.1797
2672.00,2.1969
2671.00,2.2130
2670.00,2.2281
2669.00,2.2427
2668.00,2.2567
2667.00,2.2702
2666.00,2.2829
2665.00,2.2952
2664.00,2.3068
2663.00,2.3180
2662.00,2.3292
2661.00,2.3414
2660.00,2.3546
2659.00,2.3676
2658.00,2.3794
2657.00,2.3900
2656.00,2.4002
2655.00,2.4107
2654.00,2.4207
2653.00,2.4293
2652.00,2.4365
2651.00,2.4433
2650.00,2.4505
2649.00,2.4581
2648.00,2.4654
2647.00,2.4714
2646.00,2.4759
2645.00,2.4796
2644.00,2.4831
2643.00,2.4862
2642.00,2.4882
2641.00,2.4894
2640.00,2.4908
2639.00,2.4929
2638.00,2.4954
2637.00,2.4971
2636.00,2.4973
2635.00,2.4964
2634.00,2.4952
2633.00,2.4941
2632.00,2.4925
2631.00,2.4897
2630.00,2.4856
2629.00,2.4810
2628.00,2.4763
2627.00,2.4716
2626.00,2.4663
2625.00,2.4603
2624.00,2.4537
2623.00,2.4466
2622.00,2.4393
2621.00,2.4319
2620.00,2.4241
2619.00,2.4156
2618.00,2.4063
2617.00,2.3965
2616.00,2.3863
2615.00,2.3756
2614.00,2.3643
2613.00,2.3523
2612.00,2.3398
2611.00,2.3263
2610.00,2.3117
2609.00,2.2959
2608.00,2.2792
2607.00,2.2618
2606.00,2.2438
2605.00,2.2250
2604.00,2.2053
2603.00,2.1840
2602.00,2.1609
2601.00,2.1363
2600.00,2.1107
2599.00,2.0844
2598.00,2.0571
2597.00,2.0284
2596.00,1.9979
2595.00,1.9657
2594.00,1.9323
2593.00,1.8979
2592.00,1.8627
2591.00,1.8268
2590.00,1.7902
2589.00,1.7534
2588.00,1.7164
2587.00,1.6796
2586.00,1.6430
2585.00,1.6071
2584.00,1.5722
2583.00,1.5388
2582.00,1.5073
2581.00,1.4785
2580.00,1.4528
2579.00,1.4305
2578.00,1.4122
2577.00,1.3979
2576.00,1.3880
2575.00,1.3825
2574.00,1.3814
2573.00,1.3847
2572.00,1.3922
2571.00,1.4036
2570.00,1.4186
2569.00,1.4369
2568.00,1.4581
2567.00,1.4817
2566.00,1.5074
2565.00,1.5350
2564.00,1.5642
2563.00,1.5950
2562.00,1.6272
2561.00,1.6605
2560.00,1.6943
2559.00,1.7285
2558.00,1.7626
2557.00,1.7968
2556.00,1.8310
2555.00,1.8654
2554.00,1.8998
2553.00,1.9340
2552.00,1.9675
2551.00,1.9999
2550.00,2.0309
2549.00,2.0610
2548.00,2.0905
2547.00,2.1191
2546.00,2.1467
2545.00,2.1732
2544.00,2.1983
2543.00,2.2219
2542.00,2.2440
2541.00,2.2651
2540.00,2.2855
2539.00,2.3053
2538.00,2.3237
2537.00,2.3408
2536.00,2.3570
2535.00,2.3728
2534.00,2.3882
2533.00,2.4030
2532.00,2.4173
2531.00,2.4312
2530.00,2.4446
2529.00,2.4573
2528.00,2.4688
2527.00,2.4788
2526.00,2.4876
2525.00,2.4961
2524.00,2.5052
2523.00,2.5145
2522.00,2.5227
2521.00,2.5286
2520.00,2.5327
2519.00,2.5368
2518.00,2.5420
2517.00,2.5481
2516.00,2.5542
2515.00,2.5592
2514.00,2.5628
2513.00,2.5652
2512.00,2.5670
2511.00,2.5688
2510.00,2.5704
2509.00,2.5714
2508.00,2.5715
2507.00,2.5711
2506.00,2.5706
2505.00,2.5706
2504.00,2.5710
2503.00,2.5711
2502.00,2.5700
2501.00,2.5675
2500.00,2.5642
2499.00,2.5609
2498.00,2.5574
2497.00,2.5528
2496.00,2.5464
2495.00,2.5388
2494.00,2.5315
2493.00,2.5249
2492.00,2.5181
2491.00,2.5102
2490.00,2.5011
2489.00,2.4914
2488.00,2.4813
2487.00,2.4708
2486.00,2.4598
2485.00,2.4483
2484.00,2.4364
2483.00,2.4239
2482.00,2.4105
2481.00,2.3959
2480.00,2.3801
2479.00,2.3633
2478.00,2.3460
2477.00,2.3280
2476.00,2.3089
2475.00,2.2884
2474.00,2.2662
2473.00,2.2429
2472.00,2.2188
2471.00,2.1941
2470.00,2.1689
2469.00,2.1429
2468.00,2.1156
2467.00,2.0866
2466.00,2.0561
2465.00,2.0240
2464.00,1.9903
2463.00,1.9549
2462.00,1.9175
2461.00,1.8782
2460.00,1.8373
2459.00,1.7953
2458.00,1.7525
2457.00,1.7093
2456.00,1.6660
2455.00,1.6230
2454.00,1.5808
2453.00,1.5399
2452.00,1.5011
2451.00,1.4647
2450.00,1.4313
2449.00,1.4015
2448.00,1.3757
2447.00,1.3546
2446.00,1.3385
2445.00,1.3280
2444.00,1.3234
2443.00,1.3246
2442.00,1.3317
2441.00,1.3445
2440.00,1.3624
2439.00,1.3851
2438.00,1.4119
2437.00,1.4424
2436.00,1.4760
2435.00,1.5120
2434.00,1.5499
2433.00,1.5892
2432.00,1.6297
2431.00,1.6709
2430.00,1.7124
2429.00,1.7537
2428.00,1.7944
2427.00,1.8343
2426.00,1.8731
2425.00,1.9111
2424.00,1.9483
2423.00,1.9848
2422.00,2.0203
2421.00,2.0547
2420.00,2.0878
2419.00,2.1197
2418.00,2.1502
2417.00,2.1790
2416.00,2.2063
2415.00,2.2327
2414.00,2.2583
2413.00,2.2829
2412.00,2.3063
2411.00,2.3286
2410.00,2.3503
2409.00,2.3719
2408.00,2.3932
2407.00,2.4132
2406.00,2.4317
2405.00,2.4490
2404.00,2.4656
2403.00,2.4813
2402.00,2.4955
2401.00,2.5085
2400.00,2.5206
2399.00,2.5323
2398.00,2.5436
2397.00,2.5544
2396.00,2.5644
2395.00,2.5737
2394.00,2.5823
2393.00,2.5908
2392.00,2.5988
2391.00,2.6062
2390.00,2.6140
2389.00,2.6208
2388.00,2.6264
2387.00,2.6311
2386.00,2.6359
2385.00,2.6416
2384.00,2.6482
2383.00,2.6546
2382.00,2.6597
2381.00,2.6635
2380.00,2.6663
2379.00,2.6689
2378.00,2.6717
2377.00,2.6749
2376.00,2.6787
2375.00,2.6828
2374.00,2.6864
2373.00,2.6885
2372.00,2.6887
2371.00,2.6872
2370.00,2.6848
2369.00,2.6815
2368.00,2.6778
2367.00,2.6742
2366.00,2.6718
2365.00,2.6700
2364.00,2.6676
2363.00,2.6633
2362.00,2.6569
2361.00,2.6490
2360.00,2.6404
2359.00,2.6320
2358.00,2.6239
2357.00,2.6151
2356.00,2.6040
2355.00,2.5900
2354.00,2.5741
2353.00,2.5573
2352.00,2.5394
2351.00,2.5201
2350.00,2.5004
2349.00,2.4819
2348.00,2.4657
2347.00,2.4513
2346.00,2.4371
2345.00,2.4214
2344.00,2.4033
2343.00,2.3831
2342.00,2.3619
2341.00,2.3403
2340.00,2.3181
2339.00,2.2951
2338.00,2.2704
2337.00,2.2458
2336.00,2.2150
2335.00,2.1884
2334.00,2.1470
2333.00,2.1250
2332.00,2.0596
2331.00,2.0350
2330.00,2.0922
2329.00,2.0938
2328.00,2.0841
2327.00,2.0323
2326.00,1.9902
2325.00,1.9534
2324.00,1.9535
2323.00,1.9697
2322.00,1.9794
2321.00,1.9751
2320.00,1.9492
2319.00,1.9202
2318.00,1.8804
2317.00,1.8410
2316.00,1.8076
2315.00,1.7965
2314.00,1.8170
2313.00,1.8556
2312.00,1.9055
2311.00,1.9424
2310.00,1.9745
2309.00,1.9918
2308.00,2.0102
2307.00,2.0214
2306.00,2.0346
2305.00,2.0419
2304.00,2.0507
2303.00,2.0584
2302.00,2.0709
2301.00,2.0854
2300.00,2.1035
2299.00,2.1192
2298.00,2.1356
2297.00,2.1495
2296.00,2.1661
2295.00,2.1812
2294.00,2.1991
2293.00,2.2149
2292.00,2.2322
2291.00,2.2482
2290.00,2.2659
2289.00,2.2839
2288.00,2.3030
2287.00,2.3218
2286.00,2.3401
2285.00,2.3578
2284.00,2.3745
2283.00,2.3912
2282.00,2.4089
2281.00,2.4293
2280.00,2.4508
2279.00,2.4714
2278.00,2.4891
2277.00,2.5056
2276.00,2.5216
2275.00,2.5374
2274.00,2.5523
2273.00,2.5661
2272.00,2.5794
2271.00,2.5918
2270.00,2.6037
2269.00,2.6152
2268.00,2.6277
2267.00,2.6408
2266.00,2.6535
2265.00,2.6648
2264.00,2.6756
2263.00,2.6867
2262.00,2.6985
2261.00,2.7089
2260.00,2.7163
2259.00,2.7212
2258.00,2.7255
2257.00,2.7319
2256.00,2.7394
2255.00,2.7460
2254.00,2.7498
2253.00,2.7521
2252.00,2.7539
2251.00,2.7550
2250.00,2.7548
2249.00,2.7539
2248.00,2.7540
2247.00,2.7559
2246.00,2.7593
2245.00,2.7624
2244.00,2.7642
2243.00,2.7636
2242.00,2.7610
2241.00,2.7578
2240.00,2.7553
2239.00,2.7537
2238.00,2.7518
2237.00,2.7489
2236.00,2.7444
2235.00,2.7386
2234.00,2.7314
2233.00,2.7236
2232.00,2.7160
2231.00,2.7092
2230.00,2.7028
2229.00,2.6959
2228.00,2.6876
2227.00,2.6781
2226.00,2.6675
2225.00,2.6563
2224.00,2.6445
2223.00,2.6318
2222.00,2.6183
2221.00,2.6046
2220.00,2.5914
2219.00,2.5784
2218.00,2.5641
2217.00,2.5478
2216.00,2.5299
2215.00,2.5115
2214.00,2.4931
2213.00,2.4745
2212.00,2.4547
2211.00,2.4332
2210.00,2.4102
2209.00,2.3860
2208.00,2.3607
2207.00,2.3338
2206.00,2.3050
2205.00,2.2743
2204.00,2.2421
2203.00,2.2088
2202.00,2.1741
2201.00,2.1376
2200.00,2.0989
2199.00,2.0580
2198.00,2.0151
2197.00,1.9701
2196.00,1.9232
2195.00,1.8749
2194.00,1.8257
2193.00,1.7764
2192.00,1.7279
2191.00,1.6811
2190.00,1.6366
2189.00,1.5957
2188.00,1.5589
2187.00,1.5271
2186.00,1.5009
2185.00,1.4807
2184.00,1.4671
2183.00,1.4604
2182.00,1.4607
2181.00,1.4678
2180.00,1.4811
2179.00,1.4999
2178.00,1.5232
2177.00,1.5497
2176.00,1.5786
2175.00,1.6090
2174.00,1.6406
2173.00,1.6735
2172.00,1.7081
2171.00,1.7443
2170.00,1.7822
2169.00,1.8213
2168.00,1.8614
2167.00,1.9021
2166.00,1.9434
2165.00,1.9849
2164.00,2.0260
2163.00,2.0662
2162.00,2.1054
2161.00,2.1439
2160.00,2.1820
2159.00,2.2198
2158.00,2.2569
2157.00,2.2926
2156.00,2.3264
2155.00,2.3579
2154.00,2.3873
2153.00,2.4150
2152.00,2.4416
2151.00,2.4674
2150.00,2.4924
2149.00,2.5161
2148.00,2.5380
2147.00,2.5583
2146.00,2.5781
2145.00,2.5984
2144.00,2.6187
2143.00,2.6378
2142.00,2.6545
2141.00,2.6686
2140.00,2.6810
2139.00,2.6923
2138.00,2.7035
2137.00,2.7151
2136.00,2.7274
2135.00,2.7403
2134.00,2.7532
2133.00,2.7652
2132.00,2.7754
2131.00,2.7838
2130.00,2.7907
2129.00,2.7968
2128.00,2.8024
2127.00,2.8084
2126.00,2.8150
2125.00,2.8211
2124.00,2.8244
2123.00,2.8247
2122.00,2.8246
2121.00,2.8275
2120.00,2.8337
2119.00,2.8408
2118.00,2.8466
2117.00,2.8504
2116.00,2.8526
2115.00,2.8539
2114.00,2.8546
2113.00,2.8547
2112.00,2.8528
2111.00,2.8485
2110.00,2.8435
2109.00,2.8406
2108.00,2.8406
2107.00,2.8414
2106.00,2.8402
2105.00,2.8352
2104.00,2.8270
2103.00,2.8180
2102.00,2.8108
2101.00,2.8063
2100.00,2.8032
2099.00,2.7989
2098.00,2.7917
2097.00,2.7820
2096.00,2.7706
2095.00,2.7585
2094.00,2.7465
2093.00,2.7353
2092.00,2.7250
2091.00,2.7150
2090.00,2.7046
2089.00,2.6929
2088.00,2.6792
2087.00,2.6632
2086.00,2.6459
2085.00,2.6282
2084.00,2.6104
2083.00,2.5915
2082.00,2.5708
2081.00,2.5480
2080.00,2.5232
2079.00,2.4972
2078.00,2.4710
2077.00,2.4449
2076.00,2.4180
2075.00,2.3891
2074.00,2.3579
2073.00,2.3253
2072.00,2.2916
2071.00,2.2567
2070.00,2.2203
2069.00,2.1825
2068.00,2.1436
2067.00,2.1035
2066.00,2.0623
2065.00,2.0205
2064.00,1.9787
2063.00,1.9373
2062.00,1.8958
2061.00,1.8536
2060.00,1.8099
2059.00,1.7650
2058.00,1.7197
2057.00,1.6752
2056.00,1.6329
2055.00,1.5943
2054.00,1.5609
2053.00,1.5341
2052.00,1.5149
2051.00,1.5040
2050.00,1.5017
2049.00,1.5082
2048.00,1.5233
2047.00,1.5460
2046.00,1.5754
2045.00,1.6104
2044.00,1.6498
2043.00,1.6922
2042.00,1.7369
2041.00,1.7836
2040.00,1.8325
2039.00,1.8834
2038.00,1.9350
2037.00,1.9862
2036.00,2.0362
2035.00,2.0848
2034.00,2.1316
2033.00,2.1763
2032.00,2.2191
2031.00,2.2602
2030.00,2.2999
2029.00,2.3383
2028.00,2.3746
2027.00,2.4084
2026.00,2.4404
2025.00,2.4717
2024.00,2.5027
2023.00,2.5324
2022.00,2.5599
2021.00,2.5847
2020.00,2.6066
2019.00,2.6259
2018.00,2.6437
2017.00,2.6616
2016.00,2.6798
2015.00,2.6973
2014.00,2.7145
2013.00,2.7326
2012.00,2.7518
2011.00,2.7703
2010.00,2.7864
2009.00,2.8008
2008.00,2.8151
2007.00,2.8284
2006.00,2.8393
2005.00,2.8476
2004.00,2.8550
2003.00,2.8625
2002.00,2.8701
2001.00,2.8781
2000.00,2.8868
1999.00,2.8956
1998.00,2.9033
1997.00,2.9095
1996.00,2.9149
1995.00,2.9197
1994.00,2.9237
1993.00,2.9271
1992.00,2.9302
1991.00,2.9338
1990.00,2.9381
1989.00,2.9428
1988.00,2.9464
1987.00,2.9473
1986.00,2.9454
1985.00,2.9422
1984.00,2.9392
1983.00,2.9379
1982.00,2.9395
1981.00,2.9436
1980.00,2.9475
1979.00,2.9473
1978.00,2.9424
1977.00,2.9361
1976.00,2.9315
1975.00,2.9280
1974.00,2.9233
1973.00,2.9165
1972.00,2.9084
1971.00,2.8995
1970.00,2.8900
1969.00,2.8793
1968.00,2.8672
1967.00,2.8539
1966.00,2.8418
1965.00,2.8329
1964.00,2.8257
1963.00,2.8164
1962.00,2.8029
1961.00,2.7865
1960.00,2.7697
1959.00,2.7531
1958.00,2.7362
1957.00,2.7186
1956.00,2.6999
1955.00,2.6803
1954.00,2.6600
1953.00,2.6393
1952.00,2.6178
1951.00,2.5945
1950.00,2.5695
1949.00,2.5434
1948.00,2.5163
1947.00,2.4873
1946.00,2.4554
1945.00,2.4204
1944.00,2.3822
1943.00,2.3410
1942.00,2.2979
1941.00,2.2552
1940.00,2.2134
1939.00,2.1705
1938.00,2.1243
1937.00,2.0740
1936.00,2.0197
1935.00,1.9623
1934.00,1.9037
1933.00,1.8459
1932.00,1.7903
1931.00,1.7384
1930.00,1.6913
1929.00,1.6502
1928.00,1.6162
1927.00,1.5902
1926.00,1.5727
1925.00,1.5631
1924.00,1.5613
1923.00,1.5681
1922.00,1.5851
1921.00,1.6133
1920.00,1.6522
1919.00,1.7003
1918.00,1.7549
1917.00,1.8115
1916.00,1.8660
1915.00,1.9180
1914.00,1.9701
1913.00,2.0233
1912.00,2.0760
1911.00,2.1259
1910.00,2.1731
1909.00,2.2195
1908.00,2.2664
1907.00,2.3136
1906.00,2.3602
1905.00,2.4047
1904.00,2.4464
1903.00,2.4851
1902.00,2.5214
1901.00,2.5563
1900.00,2.5903
1899.00,2.6230
1898.00,2.6528
1897.00,2.6786
1896.00,2.7015
1895.00,2.7238
1894.00,2.7465
1893.00,2.7688
1892.00,2.7902
1891.00,2.8118
1890.00,2.8335
1889.00,2.8530
1888.00,2.8682
1887.00,2.8801
1886.00,2.8908
1885.00,2.9022
1884.00,2.9150
1883.00,2.9285
1882.00,2.9420
1881.00,2.9556
1880.00,2.9692
1879.00,2.9812
1878.00,2.9896
1877.00,2.9950
1876.00,3.0010
1875.00,3.0117
1874.00,3.0256
1873.00,3.0362
1872.00,3.0386
1871.00,3.0342
1870.00,3.0276
1869.00,3.0212
1868.00,3.0158
1867.00,3.0146
1866.00,3.0198
1865.00,3.0280
1864.00,3.0337
1863.00,3.0343
1862.00,3.0316
1861.00,3.0283
1860.00,3.0263
1859.00,3.0252
1858.00,3.0241
1857.00,3.0229
1856.00,3.0219
1855.00,3.0197
1854.00,3.0149
1853.00,3.0076
1852.00,2.9992
1851.00,2.9893
1850.00,2.9760
1849.00,2.9582
1848.00,2.9363
1847.00,2.9137
1846.00,2.8951
1845.00,2.8835
1844.00,2.8749
1843.00,2.8606
1842.00,2.8370
1841.00,2.8111
1840.00,2.7910
1839.00,2.7761
1838.00,2.7592
1837.00,2.7356
1836.00,2.7069
1835.00,2.6763
1834.00,2.6438
1833.00,2.6083
1832.00,2.5710
1831.00,2.5335
1830.00,2.4946
1829.00,2.4510
1828.00,2.4019
1827.00,2.3492
1826.00,2.2955
1825.00,2.2432
1824.00,2.1913
1823.00,2.1392
1822.00,2.0899
1821.00,2.0474
1820.00,2.0136
1819.00,1.9871
1818.00,1.9678
1817.00,1.9581
1816.00,1.9612
1815.00,1.9772
1814.00,2.0025
1813.00,2.0341
1812.00,2.0705
1811.00,2.1113
1810.00,2.1555
1809.00,2.2002
1808.00,2.2426
1807.00,2.2816
1806.00,2.3177
1805.00,2.3511
1804.00,2.3807
1803.00,2.4064
1802.00,2.4309
1801.00,2.4599
1800.00,2.4969
1799.00,2.5404
1798.00,2.5842
1797.00,2.6226
1796.00,2.6547
1795.00,2.6847
1794.00,2.7190
1793.00,2.7623
1792.00,2.8106
1791.00,2.8537
1790.00,2.8872
1789.00,2.9149
1788.00,2.9420
1787.00,2.9706
1786.00,3.0002
1785.00,3.0289
1784.00,3.0546
1783.00,3.0754
1782.00,3.0910
1781.00,3.1047
1780.00,3.1183
1779.00,3.1310
1778.00,3.1412
1777.00,3.1485
1776.00,3.1543
1775.00,3.1593
1774.00,3.1649
1773.00,3.1739
1772.00,3.1850
1771.00,3.1924
1770.00,3.1944
1769.00,3.1938
1768.00,3.1938
1767.00,3.1962
1766.00,3.1969
1765.00,3.1909
1764.00,3.1784
1763.00,3.1640
1762.00,3.1502
1761.00,3.1345
1760.00,3.1132
1759.00,3.0884
1758.00,3.0660
1757.00,3.0513
1756.00,3.0442
1755.00,3.0403
1754.00,3.0382
1753.00,3.0424
1752.00,3.0595
1751.00,3.0925
1750.00,3.1394
1749.00,3.1973
1748.00,3.2659
1747.00,3.3406
1746.00,3.4121
1745.00,3.4761
1744.00,3.5340
1743.00,3.5922
1742.00,3.6567
1741.00,3.7305
1740.00,3.8105
1739.00,3.8825
1738.00,3.9313
1737.00,3.9576
1736.00,3.9657
1735.00,3.9568
1734.00,3.9449
1733.00,3.9536
1732.00,4.0131
1731.00,4.1623
1730.00,4.4112
1729.00,4.5001
1728.00,4.3228
1727.00,4.2227
1726.00,4.2546
1725.00,4.4274
1724.00,4.6653
1723.00,4.7498
1722.00,4.6895
1721.00,4.5323
1720.00,4.4305
1719.00,4.4309
1718.00,4.5597
1717.00,4.9443
1716.00,4.9214
1715.00,4.6960
1714.00,4.6630
1713.00,4.5172
1712.00,4.4456
1711.00,4.4953
1710.00,4.6112
1709.00,4.6491
1708.00,4.5336
1707.00,4.4174
1706.00,4.3634
1705.00,4.3752
1704.00,4.4142
1703.00,4.4014
1702.00,4.3306
1701.00,4.3092
1700.00,4.4004
1699.00,4.5522
1698.00,4.6218
1697.00,4.4705
1696.00,4.2926
1695.00,4.2350
1694.00,4.2308
1693.00,4.1862
1692.00,4.0951
1691.00,3.9921
1690.00,3.8967
1689.00,3.8145
1688.00,3.7432
1687.00,3.6752
1686.00,3.6050
1685.00,3.5350
1684.00,3.4724
1683.00,3.4187
1682.00,3.3772
1681.00,3.3414
1680.00,3.3063
1679.00,3.2703
1678.00,3.2334
1677.00,3.1990
1676.00,3.1695
1675.00,3.1402
1674.00,3.0995
1673.00,3.0464
1672.00,2.9978
1671.00,2.9698
1670.00,2.9604
1669.00,2.9578
1668.00,2.9550
1667.00,2.9524
1666.00,2.9545
1665.00,2.9663
1664.00,2.9896
1663.00,3.0221
1662.00,3.0555
1661.00,3.0841
1660.00,3.1072
1659.00,3.1276
1658.00,3.1477
1657.00,3.1656
1656.00,3.1748
1655.00,3.1716
1654.00,3.1665
1653.00,3.1728
1652.00,3.1890
1651.00,3.1962
1650.00,3.1952
1649.00,3.2113
1648.00,3.2351
1647.00,3.2502
1646.00,3.2587
1645.00,3.2665
1644.00,3.2688
1643.00,3.2664
1642.00,3.2660
1641.00,3.2660
1640.00,3.2627
1639.00,3.2558
1638.00,3.2468
1637.00,3.2363
1636.00,3.2277
1635.00,3.2251
1634.00,3.2286
1633.00,3.2249
1632.00,3.2116
1631.00,3.1938
1630.00,3.1714
1629.00,3.1471
1628.00,3.1236
1627.00,3.1007
1626.00,3.0776
1625.00,3.0557
1624.00,3.0351
1623.00,3.0103
1622.00,2.9741
1621.00,2.9276
1620.00,2.8785
1619.00,2.8331
1618.00,2.7916
1617.00,2.7508
1616.00,2.7082
1615.00,2.6638
1614.00,2.6207
1613.00,2.5802
1612.00,2.5384
1611.00,2.4907
1610.00,2.4356
1609.00,2.3761
1608.00,2.3162
1607.00,2.2599
1606.00,2.2095
1605.00,2.1665
1604.00,2.1308
1603.00,2.1029
1602.00,2.0847
1601.00,2.0785
1600.00,2.0851
1599.00,2.1034
1598.00,2.1310
1597.00,2.1653
1596.00,2.2042
1595.00,2.2475
1594.00,2.2952
1593.00,2.3464
1592.00,2.3989
1591.00,2.4502
1590.00,2.4988
1589.00,2.5441
1588.00,2.5873
1587.00,2.6302
1586.00,2.6734
1585.00,2.7159
1584.00,2.7565
1583.00,2.7952
1582.00,2.8340
1581.00,2.8730
1580.00,2.9065
1579.00,2.9273
1578.00,2.9359
1577.00,2.9428
1576.00,2.9621
1575.00,2.9965
1574.00,3.0327
1573.00,3.0608
1572.00,3.0836
1571.00,3.1082
1570.00,3.1377
1569.00,3.1654
1568.00,3.1835
1567.00,3.1906
1566.00,3.1922
1565.00,3.1950
1564.00,3.2001
1563.00,3.2038
1562.00,3.2037
1561.00,3.2023
1560.00,3.2083
1559.00,3.2166
1558.00,3.2092
1557.00,3.2138
1556.00,3.2161
1555.00,3.2143
1554.00,3.2225
1553.00,3.2395
1552.00,3.2558
1551.00,3.2658
1550.00,3.2713
1549.00,3.2756
1548.00,3.2802
1547.00,3.2778
1546.00,3.2615
1545.00,3.2322
1544.00,3.1983
1543.00,3.1748
1542.00,3.1712
1541.00,3.1774
1540.00,3.1759
1539.00,3.1687
1538.00,3.1671
1537.00,3.1637
1536.00,3.1657
1535.00,3.1754
1534.00,3.1805
1533.00,3.1702
1532.00,3.1451
1531.00,3.1177
1530.00,3.0965
1529.00,3.0828
1528.00,3.0718
1527.00,3.0561
1526.00,3.0345
1525.00,3.0110
1524.00,2.9874
1523.00,2.9604
1522.00,2.9289
1521.00,2.8900
1520.00,2.8558
1519.00,2.8226
1518.00,2.8789
1517.00,2.8511
1516.00,2.8108
1515.00,2.7710
1514.00,2.7300
1513.00,2.6876
1512.00,2.6455
1511.00,2.5970
1510.00,2.5558
1509.00,2.3969
1508.00,2.3059
1507.00,2.2234
1506.00,2.1723
1505.00,2.1711
1504.00,2.1654
1503.00,2.1431
1502.00,2.1245
1501.00,2.1124
1500.00,2.1063
1499.00,2.1055
1498.00,2.1081
1497.00,2.1151
1496.00,2.1336
1495.00,2.1683
1494.00,2.2143
1493.00,2.2663
1492.00,2.3217
1491.00,2.3765
1490.00,2.4251
1489.00,2.4706
1488.00,2.5276
1487.00,2.6014
1486.00,2.6805
1485.00,2.7533
1484.00,2.8170
1483.00,2.8716
1482.00,2.9190
1481.00,2.9597
1480.00,2.9970
1479.00,3.0363
1478.00,3.0809
1477.00,3.1271
1476.00,3.1656
1475.00,3.1916
1474.00,3.2107
1473.00,3.2331
1472.00,3.2624
1471.00,3.2983
1470.00,3.3352
1469.00,3.3679
1468.00,3.3987
1467.00,3.4298
1466.00,3.4593
1465.00,3.4860
1464.00,3.5131
1463.00,3.5452
1462.00,3.5802
1461.00,3.6065
1460.00,3.6099
1459.00,3.5876
1458.00,3.5560
1457.00,3.5398
1456.00,3.5601
1455.00,3.6138
1454.00,3.6878
1453.00,3.7814
1452.00,3.8898
1451.00,4.0013
1450.00,4.0823
1449.00,4.0838
1448.00,4.0192
1447.00,3.9270
1446.00,3.8182
1445.00,3.7091
1444.00,3.6218
1443.00,3.5694
1442.00,3.5517
1441.00,3.5580
1440.00,3.5737
1439.00,3.5898
1438.00,3.6063
1437.00,3.6247
1436.00,3.6424
1435.00,3.6565
1434.00,3.6669
1433.00,3.6710
1432.00,3.6691
1431.00,3.6724
1430.00,3.6943
1429.00,3.7346
1428.00,3.7794
1427.00,3.8159
1426.00,3.8411
1425.00,3.8595
1424.00,3.8736
1423.00,3.8783
1422.00,3.8664
1421.00,3.8402
1420.00,3.8039
1419.00,3.7567
1418.00,3.7037
1417.00,3.6632
1416.00,3.6428
1415.00,3.6310
1414.00,3.6155
1413.00,3.5929
1412.00,3.5659
1411.00,3.5389
1410.00,3.5163
1409.00,3.5027
1408.00,3.5011
1407.00,3.5090
1406.00,3.5150
1405.00,3.5089
1404.00,3.4954
1403.00,3.4902
1402.00,3.4967
1401.00,3.5040
1400.00,3.4979
1399.00,3.4745
1398.00,3.4455
1397.00,3.4246
1396.00,3.4132
1395.00,3.4057
1394.00,3.3990
1393.00,3.3938
1392.00,3.3872
1391.00,3.3785
1390.00,3.3705
1389.00,3.3650
1388.00,3.3594
1387.00,3.3474
1386.00,3.3257
1385.00,3.2979
1384.00,3.2694
1383.00,3.2432
1382.00,3.2184
1381.00,3.1923
1380.00,3.1635
1379.00,3.1311
1378.00,3.0939
1377.00,3.0521
1376.00,3.0086
1375.00,2.9670
1374.00,2.9292
1373.00,2.8966
1372.00,2.8672
1371.00,2.8373
1370.00,2.8055
1369.00,2.7750
1368.00,2.7501
1367.00,2.7337
1366.00,2.7238
1365.00,2.7160
1364.00,2.7084
1363.00,2.7055
1362.00,2.7169
1361.00,2.7502
1360.00,2.8010
1359.00,2.8588
1358.00,2.9180
1357.00,2.9798
1356.00,3.0473
1355.00,3.1228
1354.00,3.2058
1353.00,3.2934
1352.00,3.3821
1351.00,3.4692
1350.00,3.5503
1349.00,3.6171
1348.00,3.6583
1347.00,3.6710
1346.00,3.6638
1345.00,3.6462
1344.00,3.6285
1343.00,3.6224
1342.00,3.6331
1341.00,3.6538
1340.00,3.6697
1339.00,3.6666
1338.00,3.6328
1337.00,3.5624
1336.00,3.4714
1335.00,3.3892
1334.00,3.3353
1333.00,3.3132
1332.00,3.3158
1331.00,3.3326
1330.00,3.3548
1329.00,3.3792
1328.00,3.4059
1327.00,3.4357
1326.00,3.4681
1325.00,3.5011
1324.00,3.5326
1323.00,3.5654
1322.00,3.6079
1321.00,3.6659
1320.00,3.7375
1319.00,3.8184
1318.00,3.9074
1317.00,3.9983
1316.00,4.0584
1315.00,4.0549
1314.00,4.0396
1313.00,4.0685
1312.00,4.1106
1311.00,4.0957
1310.00,4.0381
1309.00,3.9574
1308.00,3.8546
1307.00,3.7487
1306.00,3.6558
1305.00,3.5823
1304.00,3.5292
1303.00,3.4941
1302.00,3.4744
1301.00,3.4692
1300.00,3.4765
1299.00,3.4909
1298.00,3.5033
1297.00,3.5093
1296.00,3.5114
1295.00,3.5139
1294.00,3.5205
1293.00,3.5323
1292.00,3.5510
1291.00,3.5750
1290.00,3.5936
1289.00,3.5965
1288.00,3.5907
1287.00,3.5923
1286.00,3.6068
1285.00,3.6266
1284.00,3.6383
1283.00,3.6339
1282.00,3.6217
1281.00,3.6163
1280.00,3.6215
1279.00,3.6281
1278.00,3.6286
1277.00,3.6264
1276.00,3.6341
1275.00,3.6615
1274.00,3.7025
1273.00,3.7318
1272.00,3.7281
1271.00,3.7018
1270.00,3.6757
1269.00,3.6585
1268.00,3.6490
1267.00,3.6446
1266.00,3.6425
1265.00,3.6414
1264.00,3.6409
1263.00,3.6388
1262.00,3.6356
1261.00,3.6327
1260.00,3.6252
1259.00,3.6140
1258.00,3.6077
1257.00,3.6047
1256.00,3.5932
1255.00,3.5672
1254.00,3.5338
1253.00,3.5028
1252.00,3.4793
1251.00,3.4656
1250.00,3.4629
1249.00,3.4651
1248.00,3.4575
1247.00,3.4325
1246.00,3.4002
1245.00,3.3774
1244.00,3.3726
1243.00,3.3851
1242.00,3.4098
1241.00,3.4400
1240.00,3.4696
1239.00,3.4969
1238.00,3.5256
1237.00,3.5678
1236.00,3.6370
1235.00,3.7327
1234.00,3.8340
1233.00,3.9104
1232.00,3.9457
1231.00,3.9572
1230.00,3.9676
1229.00,3.9874
1228.00,4.0238
1227.00,4.0723
1226.00,4.1152
1225.00,4.1400
1224.00,4.1524
1223.00,4.1619
1222.00,4.1770
1221.00,4.2253
1220.00,4.3490
1219.00,4.4866
1218.00,4.3705
1217.00,4.2054
1216.00,4.1121
1215.00,4.0502
1214.00,3.9815
1213.00,3.8796
1212.00,3.7524
1211.00,3.6371
1210.00,3.5586
1209.00,3.5144
1208.00,3.4851
1207.00,3.4551
1206.00,3.4221
1205.00,3.3891
1204.00,3.3567
1203.00,3.3237
1202.00,3.2929
1201.00,3.2717
1200.00,3.2666
1199.00,3.2789
1198.00,3.3038
1197.00,3.3317
1196.00,3.3532
1195.00,3.3658
1194.00,3.3750
1193.00,3.3858
1192.00,3.3987
1191.00,3.4094
1190.00,3.4151
1189.00,3.4201
1188.00,3.4341
1187.00,3.4622
1186.00,3.5000
1185.00,3.5356
1184.00,3.5590
1183.00,3.5713
1182.00,3.5831
1181.00,3.6062
1180.00,3.6458
1179.00,3.6963
1178.00,3.7400
1177.00,3.7588
1176.00,3.7575
1175.00,3.7595
1174.00,3.7754
1173.00,3.7910
1172.00,3.7805
1171.00,3.7302
1170.00,3.6603
1169.00,3.6062
1168.00,3.5857
1167.00,3.6006
1166.00,3.6504
1165.00,3.7333
1164.00,3.8363
1163.00,3.9285
1162.00,3.9772
1161.00,3.9766
1160.00,3.9525
1159.00,3.9237
1158.00,3.8910
1157.00,3.8504
1156.00,3.8025
1155.00,3.7781
1154.00,3.8005
1153.00,3.8433
1152.00,3.8529
1151.00,3.8079
1150.00,3.7478
1149.00,3.7147
1148.00,3.7154
1147.00,3.7396
1146.00,3.7819
1145.00,3.8476
1144.00,3.9331
1143.00,3.9906
1142.00,3.9515
1141.00,3.8459
1140.00,3.7485
1139.00,3.6972
1138.00,3.6997
1137.00,3.7415
1136.00,3.7909
1135.00,3.8261
1134.00,3.8510
1133.00,3.8720
1132.00,3.8847
1131.00,3.8836
1130.00,3.8769
1129.00,3.8802
1128.00,3.8971
1127.00,3.9180
1126.00,3.9355
1125.00,3.9633
1124.00,4.0238
1123.00,4.1177
1122.00,4.2330
1121.00,4.3788
1120.00,4.4966
1119.00,4.4524
1118.00,4.4335
1117.00,4.3345
1116.00,4.1057
1115.00,4.0095
1114.00,4.0874
1113.00,4.2871
1112.00,4.2999
1111.00,4.1384
1110.00,4.0192
1109.00,3.9573
1108.00,3.9563
1107.00,4.0195
1106.00,4.1480
1105.00,4.3134
1104.00,4.4613
1103.00,4.4637
1102.00,4.3446
1101.00,4.1773
1100.00,4.0056
1099.00,3.9100
1098.00,3.8739
1097.00,3.8452
1096.00,3.8025
1095.00,3.7680
1094.00,3.7705
1093.00,3.8015
1092.00,3.8051
1091.00,3.7409
1090.00,3.6514
1089.00,3.5928
1088.00,3.5869
1087.00,3.6278
1086.00,3.6864
1085.00,3.7079
1084.00,3.6525
1083.00,3.5741
1082.00,3.5379
1081.00,3.5485
1080.00,3.5690
1079.00,3.5635
1078.00,3.5415
1077.00,3.5329
1076.00,3.5472
1075.00,3.5718
1074.00,3.5839
1073.00,3.5728
1072.00,3.5559
1071.00,3.5570
1070.00,3.5777
1069.00,3.5914
1068.00,3.5772
1067.00,3.5534
1066.00,3.5518
1065.00,3.5846
1064.00,3.6368
1063.00,3.6743
1062.00,3.6752
1061.00,3.6425
1060.00,3.5998
1059.00,3.5863
1058.00,3.6267
1057.00,3.7178
1056.00,3.8301
1055.00,3.9220
1054.00,3.9686
1053.00,3.9587
1052.00,3.8875
1051.00,3.7906
1050.00,3.7252
1049.00,3.7121
1048.00,3.7174
1047.00,3.6988
1046.00,3.6603
1045.00,3.6222
1044.00,3.6079
1043.00,3.6387
1042.00,3.7189
1041.00,3.8315
1040.00,3.9161
1039.00,3.9261
1038.00,3.9334
1037.00,4.0020
1036.00,4.1061
1035.00,4.2318
1034.00,4.4580
1033.00,4.6409
1032.00,4.5236
1031.00,4.2680
1030.00,4.0405
1029.00,3.9355
1028.00,3.9170
1027.00,3.9346
1026.00,3.9693
1025.00,4.0176
1024.00,4.0513
1023.00,4.0148
1022.00,3.9290
1021.00,3.8591
1020.00,3.8167
1019.00,3.7833
1018.00,3.7627
1017.00,3.7843
1016.00,3.8695
1015.00,4.0045
1014.00,4.1239
1013.00,4.1745
1012.00,4.2099
1011.00,4.2735
1010.00,4.3294
1009.00,4.3362
1008.00,4.2826
1007.00,4.1992
1006.00,4.1436
1005.00,4.1298
1004.00,4.1388
1003.00,4.1593
1002.00,4.1883
1001.00,4.2202
1000.00,4.2583
999.00,4.2519
998.00,4.1537
997.00,4.0618
996.00,4.0145
995.00,3.9783
994.00,3.9456
993.00,3.9394
992.00,3.9653
991.00,3.9887
990.00,3.9930
989.00,4.0156
988.00,4.0781
987.00,4.2051
986.00,4.3499
985.00,4.3536
984.00,4.2679
983.00,4.4362
982.00,4.8130
981.00,4.2927
980.00,4.0957
979.00,4.0460
978.00,4.0463
977.00,4.1173
976.00,4.3176
975.00,4.8448
974.00,4.9440
973.00,4.7273
972.00,4.5396
971.00,4.3121
970.00,4.1928
969.00,4.1374
968.00,4.1324
967.00,4.1833
966.00,4.3641
965.00,4.5642
964.00,4.3732
963.00,4.2461
962.00,4.3937
961.00,4.6803
960.00,4.4326
959.00,4.3324
958.00,4.4891
957.00,4.8782
956.00,4.7287
955.00,4.3586
954.00,4.1701
953.00,4.0681
952.00,4.0597
951.00,4.1162
950.00,4.1617
949.00,4.1372
948.00,4.1031
947.00,4.1439
946.00,4.3184
945.00,4.7214
944.00,5.3303
943.00,4.8109
942.00,4.3976
941.00,4.1938
940.00,4.1227
939.00,4.1352
938.00,4.2248
937.00,4.4037
936.00,4.3688
935.00,4.1719
934.00,4.0740
933.00,4.0080
932.00,3.9545
931.00,3.9477
930.00,3.9673
929.00,3.9956
928.00,4.0373
927.00,4.0991
926.00,4.1566
925.00,4.2597
924.00,4.4529
923.00,4.3009
922.00,4.0544
921.00,3.9666
920.00,3.9970
919.00,4.0805
918.00,4.0790
917.00,4.0072
916.00,3.9794
915.00,4.0471
914.00,4.1878
913.00,4.2725
912.00,4.3032
911.00,4.3297
910.00,4.2659
909.00,4.1229
908.00,3.9860
907.00,3.8962
906.00,3.8485
905.00,3.8340
904.00,3.8436
903.00,3.8430
902.00,3.8132
901.00,3.7934
900.00,3.8326
899.00,3.9541
898.00,4.0959
897.00,4.1697
896.00,4.1720
895.00,4.3047
894.00,4.8117
893.00,4.7839
892.00,4.7024
891.00,4.4331
890.00,3.9938
889.00,3.7831
888.00,3.6927
887.00,3.6722
886.00,3.6905
885.00,3.7228
884.00,3.7648
883.00,3.8078
882.00,3.8399
881.00,3.8694
880.00,3.9196
879.00,3.9733
878.00,3.9699
877.00,3.8793
876.00,3.7681
875.00,3.7053
874.00,3.6962
873.00,3.7212
872.00,3.7721
871.00,3.8485
870.00,3.9214
869.00,3.9352
868.00,3.9143
867.00,3.9333
866.00,4.0005
865.00,4.0758
864.00,4.1231
863.00,4.1140
862.00,4.0647
861.00,4.0290
860.00,4.0257
859.00,4.0109
858.00,3.9599
857.00,3.9144
856.00,3.9061
855.00,3.9514
854.00,4.0065
853.00,3.9794
852.00,3.8912
851.00,3.7933
850.00,3.7084
849.00,3.6644
848.00,3.6852
847.00,3.7706
846.00,3.8668
845.00,3.8855
844.00,3.8371
843.00,3.8033
842.00,3.8295
841.00,3.9098
840.00,3.9732
839.00,3.9484
838.00,3.9207
837.00,3.9651
836.00,4.1569
835.00,4.5809
834.00,4.9243
833.00,4.8240
832.00,4.3718
831.00,4.0970
830.00,4.0176
829.00,4.1102
828.00,4.3937
827.00,4.7023
826.00,4.6251
825.00,4.2528
824.00,4.0684
823.00,4.0970
822.00,4.1612
821.00,4.0678
820.00,3.9626
819.00,3.9300
818.00,4.0044
817.00,4.1852
816.00,4.3383
815.00,4.4102
814.00,4.4034
813.00,4.3280
812.00,4.1968
811.00,4.1620
810.00,4.3088
809.00,4.2999
808.00,4.1606
807.00,4.0880
806.00,3.9809
805.00,3.9113
804.00,3.9210
803.00,3.9966
802.00,4.2085
801.00,4.6355
800.00,4.5353
799.00,4.4162
798.00,4.6519
797.00,4.4254
796.00,4.1484
795.00,4.0971
794.00,4.1797
793.00,4.5410
792.00,4.6874
791.00,4.1549
790.00,4.0174
789.00,4.0798
788.00,4.2511
787.00,4.4997
786.00,4.4030
785.00,4.1663
784.00,3.9822
783.00,3.8308
782.00,3.7243
781.00,3.7133
780.00,3.8059
779.00,4.0618
778.00,4.5480
777.00,4.3923
776.00,4.1912
775.00,4.1737
774.00,4.1351
773.00,4.0624
772.00,4.0310
771.00,4.0938
770.00,4.0898
769.00,4.0141
768.00,4.0470
767.00,4.1536
766.00,4.1089
765.00,3.9566
764.00,3.8469
763.00,3.7868
762.00,3.7335
761.00,3.6751
760.00,3.6404
759.00,3.6479
758.00,3.7136
757.00,3.8460
756.00,4.0107
755.00,4.1057
754.00,4.0274
753.00,3.8699
752.00,3.7406
751.00,3.6669
750.00,3.6610
749.00,3.7347
748.00,3.8931
747.00,4.1572
746.00,4.3627
745.00,4.2243
744.00,4.0265
743.00,3.8531
742.00,3.7772
741.00,3.8508
740.00,4.0381
739.00,4.2178
738.00,4.4082
737.00,4.4415
736.00,4.2013
735.00,4.0499
734.00,3.9700
733.00,3.9262
732.00,3.8976
731.00,3.8613
730.00,3.8225
729.00,3.8123
728.00,3.8697
727.00,3.9881
726.00,4.0432
725.00,3.9841
724.00,3.9429
723.00,4.0127
722.00,4.1703
721.00,4.1967
720.00,4.1696
719.00,4.2398
718.00,4.2527
717.00,4.1298
716.00,4.0168
715.00,3.9737
714.00,3.9975
713.00,4.1036
712.00,4.2504
711.00,4.2506
710.00,4.0999
709.00,3.9214
708.00,3.7642
707.00,3.6562
706.00,3.6113
705.00,3.6326
704.00,3.7151
703.00,3.8499
702.00,3.9903
701.00,4.0765
700.00,4.0951
