Created as New Dataset,Sample 111 By Administrator Date Wednesday, November 24 2021
cm-1,A
7502.00,0.9974
7501.00,0.9879
7500.00,0.9786
7499.00,0.9695
7498.00,0.9605
7497.00,0.9518
7496.00,0.9432
7495.00,0.9345
7494.00,0.9256
7493.00,0.9166
7492.00,0.9079
7491.00,0.8996
7490.00,0.8914
7489.00,0.8832
7488.00,0.8748
7487.00,0.8664
7486.00,0.8582
7485.00,0.8504
7484.00,0.8431
7483.00,0.8360
7482.00,0.8293
7481.00,0.8231
7480.00,0.8177
7479.00,0.8131
7478.00,0.8091
7477.00,0.8052
7476.00,0.8015
7475.00,0.7982
7474.00,0.7956
7473.00,0.7937
7472.00,0.7921
7471.00,0.7908
7470.00,0.7901
7469.00,0.7901
7468.00,0.7907
7467.00,0.7918
7466.00,0.7935
7465.00,0.7960
7464.00,0.7988
7463.00,0.8017
7462.00,0.8046
7461.00,0.8078
7460.00,0.8114
7459.00,0.8154
7458.00,0.8198
7457.00,0.8249
7456.00,0.8309
7455.00,0.8380
7454.00,0.8457
7453.00,0.8537
7452.00,0.8615
7451.00,0.8690
7450.00,0.8763
7449.00,0.8834
7448.00,0.8906
7447.00,0.8979
7446.00,0.9052
7445.00,0.9125
7444.00,0.9200
7443.00,0.9277
7442.00,0.9356
7441.00,0.9434
7440.00,0.9511
7439.00,0.9587
7438.00,0.9665
7437.00,0.9743
7436.00,0.9821
7435.00,0.9898
7434.00,0.9973
7433.00,1.0047
7432.00,1.0122
7431.00,1.0197
7430.00,1.0270
7429.00,1.0340
7428.00,1.0412
7427.00,1.0486
7426.00,1.0556
7425.00,1.0622
7424.00,1.0685
7423.00,1.0749
7422.00,1.0811
7421.00,1.0862
7420.00,1.0897
7419.00,1.0923
7418.00,1.0949
7417.00,1.0978
7416.00,1.1003
7415.00,1.1016
7414.00,1.1017
7413.00,1.1013
7412.00,1.1014
7411.00,1.1017
7410.00,1.1017
7409.00,1.1012
7408.00,1.1005
7407.00,1.1006
7406.00,1.1015
7405.00,1.1025
7404.00,1.1027
7403.00,1.1016
7402.00,1.0992
7401.00,1.0958
7400.00,1.0921
7399.00,1.0880
7398.00,1.0835
7397.00,1.0786
7396.00,1.0736
7395.00,1.0692
7394.00,1.0654
7393.00,1.0617
7392.00,1.0581
7391.00,1.0548
7390.00,1.0518
7389.00,1.0487
7388.00,1.0450
7387.00,1.0408
7386.00,1.0372
7385.00,1.0351
7384.00,1.0341
7383.00,1.0330
7382.00,1.0312
7381.00,1.0289
7380.00,1.0272
7379.00,1.0259
7378.00,1.0241
7377.00,1.0207
7376.00,1.0156
7375.00,1.0094
7374.00,1.0029
7373.00,0.9960
7372.00,0.9882
7371.00,0.9797
7370.00,0.9710
7369.00,0.9631
7368.00,0.9562
7367.00,0.9497
7366.00,0.9431
7365.00,0.9362
7364.00,0.9293
7363.00,0.9227
7362.00,0.9161
7361.00,0.9091
7360.00,0.9016
7359.00,0.8941
7358.00,0.8868
7357.00,0.8798
7356.00,0.8728
7355.00,0.8659
7354.00,0.8594
7353.00,0.8534
7352.00,0.8475
7351.00,0.8414
7350.00,0.8347
7349.00,0.8277
7348.00,0.8208
7347.00,0.8141
7346.00,0.8076
7345.00,0.8016
7344.00,0.7966
7343.00,0.7928
7342.00,0.7899
7341.00,0.7872
7340.00,0.7845
7339.00,0.7820
7338.00,0.7799
7337.00,0.7783
7336.00,0.7770
7335.00,0.7760
7334.00,0.7755
7333.00,0.7758
7332.00,0.7770
7331.00,0.7790
7330.00,0.7815
7329.00,0.7843
7328.00,0.7874
7327.00,0.7908
7326.00,0.7946
7325.00,0.7989
7324.00,0.8036
7323.00,0.8088
7322.00,0.8148
7321.00,0.8214
7320.00,0.8284
7319.00,0.8356
7318.00,0.8427
7317.00,0.8499
7316.00,0.8575
7315.00,0.8655
7314.00,0.8739
7313.00,0.8826
7312.00,0.8913
7311.00,0.8999
7310.00,0.9083
7309.00,0.9166
7308.00,0.9250
7307.00,0.9336
7306.00,0.9423
7305.00,0.9514
7304.00,0.9612
7303.00,0.9713
7302.00,0.9813
7301.00,0.9906
7300.00,0.9995
7299.00,1.0080
7298.00,1.0164
7297.00,1.0247
7296.00,1.0330
7295.00,1.0412
7294.00,1.0491
7293.00,1.0568
7292.00,1.0646
7291.00,1.0727
7290.00,1.0808
7289.00,1.0887
7288.00,1.0962
7287.00,1.1037
7286.00,1.1111
7285.00,1.1182
7284.00,1.1249
7283.00,1.1312
7282.00,1.1370
7281.00,1.1423
7280.00,1.1471
7279.00,1.1520
7278.00,1.1569
7277.00,1.1618
7276.00,1.1664
7275.00,1.1706
7274.00,1.1745
7273.00,1.1780
7272.00,1.1811
7271.00,1.1836
7270.00,1.1854
7269.00,1.1866
7268.00,1.1877
7267.00,1.1891
7266.00,1.1906
7265.00,1.1915
7264.00,1.1915
7263.00,1.1909
7262.00,1.1903
7261.00,1.1894
7260.00,1.1878
7259.00,1.1855
7258.00,1.1831
7257.00,1.1808
7256.00,1.1780
7255.00,1.1741
7254.00,1.1694
7253.00,1.1646
7252.00,1.1598
7251.00,1.1548
7250.00,1.1496
7249.00,1.1444
7248.00,1.1396
7247.00,1.1347
7246.00,1.1294
7245.00,1.1236
7244.00,1.1175
7243.00,1.1113
7242.00,1.1043
7241.00,1.0963
7240.00,1.0874
7239.00,1.0785
7238.00,1.0700
7237.00,1.0618
7236.00,1.0532
7235.00,1.0444
7234.00,1.0355
7233.00,1.0269
7232.00,1.0183
7231.00,1.0091
7230.00,0.9992
7229.00,0.9889
7228.00,0.9787
7227.00,0.9687
7226.00,0.9587
7225.00,0.9489
7224.00,0.9393
7223.00,0.9300
7222.00,0.9210
7221.00,0.9120
7220.00,0.9028
7219.00,0.8936
7218.00,0.8843
7217.00,0.8753
7216.00,0.8669
7215.00,0.8590
7214.00,0.8515
7213.00,0.8442
7212.00,0.8374
7211.00,0.8311
7210.00,0.8252
7209.00,0.8196
7208.00,0.8142
7207.00,0.8091
7206.00,0.8045
7205.00,0.8006
7204.00,0.7971
7203.00,0.7942
7202.00,0.7917
7201.00,0.7897
7200.00,0.7882
7199.00,0.7875
7198.00,0.7876
7197.00,0.7883
7196.00,0.7894
7195.00,0.7907
7194.00,0.7925
7193.00,0.7948
7192.00,0.7975
7191.00,0.8006
7190.00,0.8041
7189.00,0.8080
7188.00,0.8125
7187.00,0.8179
7186.00,0.8241
7185.00,0.8306
7184.00,0.8372
7183.00,0.8440
7182.00,0.8511
7181.00,0.8587
7180.00,0.8663
7179.00,0.8741
7178.00,0.8819
7177.00,0.8902
7176.00,0.8989
7175.00,0.9080
7174.00,0.9172
7173.00,0.9261
7172.00,0.9346
7171.00,0.9430
7170.00,0.9513
7169.00,0.9596
7168.00,0.9680
7167.00,0.9767
7166.00,0.9857
7165.00,0.9947
7164.00,1.0034
7163.00,1.0118
7162.00,1.0202
7161.00,1.0284
7160.00,1.0363
7159.00,1.0441
7158.00,1.0521
7157.00,1.0605
7156.00,1.0688
7155.00,1.0768
7154.00,1.0842
7153.00,1.0910
7152.00,1.0969
7151.00,1.1024
7150.00,1.1080
7149.00,1.1140
7148.00,1.1198
7147.00,1.1254
7146.00,1.1311
7145.00,1.1369
7144.00,1.1422
7143.00,1.1463
7142.00,1.1497
7141.00,1.1533
7140.00,1.1575
7139.00,1.1620
7138.00,1.1658
7137.00,1.1687
7136.00,1.1710
7135.00,1.1730
7134.00,1.1748
7133.00,1.1760
7132.00,1.1766
7131.00,1.1765
7130.00,1.1759
7129.00,1.1751
7128.00,1.1742
7127.00,1.1731
7126.00,1.1720
7125.00,1.1707
7124.00,1.1694
7123.00,1.1682
7122.00,1.1670
7121.00,1.1652
7120.00,1.1622
7119.00,1.1582
7118.00,1.1539
7117.00,1.1493
7116.00,1.1442
7115.00,1.1383
7114.00,1.1322
7113.00,1.1266
7112.00,1.1211
7111.00,1.1153
7110.00,1.1093
7109.00,1.1035
7108.00,1.0980
7107.00,1.0920
7106.00,1.0847
7105.00,1.0764
7104.00,1.0680
7103.00,1.0600
7102.00,1.0521
7101.00,1.0437
7100.00,1.0350
7099.00,1.0267
7098.00,1.0188
7097.00,1.0110
7096.00,1.0026
7095.00,0.9935
7094.00,0.9841
7093.00,0.9748
7092.00,0.9655
7091.00,0.9560
7090.00,0.9463
7089.00,0.9365
7088.00,0.9271
7087.00,0.9179
7086.00,0.9089
7085.00,0.9002
7084.00,0.8919
7083.00,0.8837
7082.00,0.8755
7081.00,0.8671
7080.00,0.8586
7079.00,0.8504
7078.00,0.8425
7077.00,0.8352
7076.00,0.8283
7075.00,0.8219
7074.00,0.8161
7073.00,0.8108
7072.00,0.8058
7071.00,0.8010
7070.00,0.7967
7069.00,0.7929
7068.00,0.7896
7067.00,0.7868
7066.00,0.7847
7065.00,0.7833
7064.00,0.7827
7063.00,0.7825
7062.00,0.7826
7061.00,0.7831
7060.00,0.7842
7059.00,0.7858
7058.00,0.7882
7057.00,0.7911
7056.00,0.7946
7055.00,0.7986
7054.00,0.8029
7053.00,0.8078
7052.00,0.8131
7051.00,0.8190
7050.00,0.8254
7049.00,0.8321
7048.00,0.8391
7047.00,0.8465
7046.00,0.8543
7045.00,0.8624
7044.00,0.8703
7043.00,0.8780
7042.00,0.8861
7041.00,0.8948
7040.00,0.9040
7039.00,0.9133
7038.00,0.9224
7037.00,0.9316
7036.00,0.9408
7035.00,0.9499
7034.00,0.9589
7033.00,0.9682
7032.00,0.9776
7031.00,0.9872
7030.00,0.9969
7029.00,1.0070
7028.00,1.0172
7027.00,1.0272
7026.00,1.0362
7025.00,1.0447
7024.00,1.0533
7023.00,1.0623
7022.00,1.0712
7021.00,1.0797
7020.00,1.0879
7019.00,1.0960
7018.00,1.1040
7017.00,1.1120
7016.00,1.1198
7015.00,1.1274
7014.00,1.1348
7013.00,1.1421
7012.00,1.1490
7011.00,1.1555
7010.00,1.1618
7009.00,1.1675
7008.00,1.1727
7007.00,1.1771
7006.00,1.1809
7005.00,1.1843
7004.00,1.1874
7003.00,1.1904
7002.00,1.1934
7001.00,1.1964
7000.00,1.1991
6999.00,1.2014
6998.00,1.2037
6997.00,1.2061
6996.00,1.2079
6995.00,1.2087
6994.00,1.2085
6993.00,1.2081
6992.00,1.2080
6991.00,1.2082
6990.00,1.2079
6989.00,1.2065
6988.00,1.2039
6987.00,1.2006
6986.00,1.1974
6985.00,1.1941
6984.00,1.1904
6983.00,1.1862
6982.00,1.1821
6981.00,1.1785
6980.00,1.1749
6979.00,1.1705
6978.00,1.1650
6977.00,1.1588
6976.00,1.1526
6975.00,1.1463
6974.00,1.1399
6973.00,1.1331
6972.00,1.1259
6971.00,1.1184
6970.00,1.1107
6969.00,1.1027
6968.00,1.0944
6967.00,1.0858
6966.00,1.0770
6965.00,1.0681
6964.00,1.0588
6963.00,1.0489
6962.00,1.0385
6961.00,1.0281
6960.00,1.0177
6959.00,1.0074
6958.00,0.9971
6957.00,0.9870
6956.00,0.9771
6955.00,0.9673
6954.00,0.9573
6953.00,0.9471
6952.00,0.9369
6951.00,0.9268
6950.00,0.9169
6949.00,0.9074
6948.00,0.8981
6947.00,0.8890
6946.00,0.8800
6945.00,0.8711
6944.00,0.8625
6943.00,0.8542
6942.00,0.8464
6941.00,0.8390
6940.00,0.8319
6939.00,0.8252
6938.00,0.8190
6937.00,0.8134
6936.00,0.8081
6935.00,0.8029
6934.00,0.7980
6933.00,0.7939
6932.00,0.7905
6931.00,0.7879
6930.00,0.7858
6929.00,0.7842
6928.00,0.7832
6927.00,0.7828
6926.00,0.7829
6925.00,0.7837
6924.00,0.7851
6923.00,0.7871
6922.00,0.7897
6921.00,0.7929
6920.00,0.7965
6919.00,0.8004
6918.00,0.8047
6917.00,0.8094
6916.00,0.8146
6915.00,0.8202
6914.00,0.8265
6913.00,0.8335
6912.00,0.8410
6911.00,0.8487
6910.00,0.8567
6909.00,0.8648
6908.00,0.8733
6907.00,0.8819
6906.00,0.8907
6905.00,0.8998
6904.00,0.9091
6903.00,0.9186
6902.00,0.9283
6901.00,0.9380
6900.00,0.9476
6899.00,0.9571
6898.00,0.9664
6897.00,0.9756
6896.00,0.9848
6895.00,0.9943
6894.00,1.0041
6893.00,1.0139
6892.00,1.0235
6891.00,1.0326
6890.00,1.0413
6889.00,1.0497
6888.00,1.0580
6887.00,1.0659
6886.00,1.0736
6885.00,1.0817
6884.00,1.0903
6883.00,1.0993
6882.00,1.1081
6881.00,1.1161
6880.00,1.1231
6879.00,1.1294
6878.00,1.1354
6877.00,1.1414
6876.00,1.1471
6875.00,1.1526
6874.00,1.1581
6873.00,1.1639
6872.00,1.1697
6871.00,1.1748
6870.00,1.1788
6869.00,1.1822
6868.00,1.1853
6867.00,1.1883
6866.00,1.1909
6865.00,1.1933
6864.00,1.1957
6863.00,1.1980
6862.00,1.1993
6861.00,1.1995
6860.00,1.1992
6859.00,1.1993
6858.00,1.1998
6857.00,1.2001
6856.00,1.1997
6855.00,1.1986
6854.00,1.1972
6853.00,1.1953
6852.00,1.1929
6851.00,1.1898
6850.00,1.1865
6849.00,1.1834
6848.00,1.1804
6847.00,1.1771
6846.00,1.1733
6845.00,1.1688
6844.00,1.1638
6843.00,1.1585
6842.00,1.1530
6841.00,1.1470
6840.00,1.1407
6839.00,1.1341
6838.00,1.1274
6837.00,1.1209
6836.00,1.1141
6835.00,1.1070
6834.00,1.0995
6833.00,1.0917
6832.00,1.0835
6831.00,1.0748
6830.00,1.0656
6829.00,1.0562
6828.00,1.0468
6827.00,1.0373
6826.00,1.0278
6825.00,1.0183
6824.00,1.0089
6823.00,0.9996
6822.00,0.9902
6821.00,0.9807
6820.00,0.9710
6819.00,0.9610
6818.00,0.9508
6817.00,0.9404
6816.00,0.9299
6815.00,0.9196
6814.00,0.9096
6813.00,0.8999
6812.00,0.8905
6811.00,0.8814
6810.00,0.8724
6809.00,0.8634
6808.00,0.8547
6807.00,0.8462
6806.00,0.8381
6805.00,0.8304
6804.00,0.8230
6803.00,0.8161
6802.00,0.8098
6801.00,0.8039
6800.00,0.7986
6799.00,0.7939
6798.00,0.7896
6797.00,0.7857
6796.00,0.7825
6795.00,0.7799
6794.00,0.7781
6793.00,0.7767
6792.00,0.7759
6791.00,0.7755
6790.00,0.7759
6789.00,0.7768
6788.00,0.7783
6787.00,0.7804
6786.00,0.7832
6785.00,0.7868
6784.00,0.7909
6783.00,0.7956
6782.00,0.8007
6781.00,0.8062
6780.00,0.8122
6779.00,0.8185
6778.00,0.8253
6777.00,0.8323
6776.00,0.8397
6775.00,0.8475
6774.00,0.8556
6773.00,0.8642
6772.00,0.8730
6771.00,0.8821
6770.00,0.8914
6769.00,0.9007
6768.00,0.9101
6767.00,0.9195
6766.00,0.9289
6765.00,0.9386
6764.00,0.9485
6763.00,0.9584
6762.00,0.9683
6761.00,0.9783
6760.00,0.9883
6759.00,0.9982
6758.00,1.0079
6757.00,1.0175
6756.00,1.0271
6755.00,1.0371
6754.00,1.0472
6753.00,1.0569
6752.00,1.0663
6751.00,1.0753
6750.00,1.0843
6749.00,1.0932
6748.00,1.1019
6747.00,1.1103
6746.00,1.1186
6745.00,1.1268
6744.00,1.1350
6743.00,1.1428
6742.00,1.1502
6741.00,1.1571
6740.00,1.1635
6739.00,1.1698
6738.00,1.1760
6737.00,1.1820
6736.00,1.1875
6735.00,1.1926
6734.00,1.1972
6733.00,1.2015
6732.00,1.2053
6731.00,1.2088
6730.00,1.2122
6729.00,1.2153
6728.00,1.2181
6727.00,1.2207
6726.00,1.2230
6725.00,1.2248
6724.00,1.2259
6723.00,1.2265
6722.00,1.2269
6721.00,1.2270
6720.00,1.2262
6719.00,1.2247
6718.00,1.2230
6717.00,1.2212
6716.00,1.2191
6715.00,1.2163
6714.00,1.2131
6713.00,1.2100
6712.00,1.2070
6711.00,1.2040
6710.00,1.2005
6709.00,1.1962
6708.00,1.1911
6707.00,1.1855
6706.00,1.1796
6705.00,1.1734
6704.00,1.1667
6703.00,1.1595
6702.00,1.1524
6701.00,1.1455
6700.00,1.1383
6699.00,1.1302
6698.00,1.1213
6697.00,1.1118
6696.00,1.1024
6695.00,1.0930
6694.00,1.0837
6693.00,1.0745
6692.00,1.0652
6691.00,1.0556
6690.00,1.0457
6689.00,1.0355
6688.00,1.0250
6687.00,1.0141
6686.00,1.0030
6685.00,0.9919
6684.00,0.9811
6683.00,0.9705
6682.00,0.9600
6681.00,0.9494
6680.00,0.9386
6679.00,0.9278
6678.00,0.9173
6677.00,0.9071
6676.00,0.8971
6675.00,0.8872
6674.00,0.8776
6673.00,0.8683
6672.00,0.8595
6671.00,0.8509
6670.00,0.8425
6669.00,0.8344
6668.00,0.8267
6667.00,0.8196
6666.00,0.8130
6665.00,0.8068
6664.00,0.8010
6663.00,0.7957
6662.00,0.7912
6661.00,0.7876
6660.00,0.7846
6659.00,0.7821
6658.00,0.7804
6657.00,0.7793
6656.00,0.7788
6655.00,0.7789
6654.00,0.7795
6653.00,0.7806
6652.00,0.7824
6651.00,0.7847
6650.00,0.7877
6649.00,0.7914
6648.00,0.7956
6647.00,0.8003
6646.00,0.8054
6645.00,0.8112
6644.00,0.8174
6643.00,0.8240
6642.00,0.8309
6641.00,0.8384
6640.00,0.8463
6639.00,0.8547
6638.00,0.8632
6637.00,0.8719
6636.00,0.8809
6635.00,0.8901
6634.00,0.8994
6633.00,0.9088
6632.00,0.9183
6631.00,0.9279
6630.00,0.9377
6629.00,0.9476
6628.00,0.9577
6627.00,0.9679
6626.00,0.9781
6625.00,0.9882
6624.00,0.9983
6623.00,1.0083
6622.00,1.0181
6621.00,1.0276
6620.00,1.0370
6619.00,1.0464
6618.00,1.0560
6617.00,1.0657
6616.00,1.0753
6615.00,1.0846
6614.00,1.0937
6613.00,1.1024
6612.00,1.1106
6611.00,1.1184
6610.00,1.1260
6609.00,1.1336
6608.00,1.1412
6607.00,1.1487
6606.00,1.1559
6605.00,1.1627
6604.00,1.1689
6603.00,1.1742
6602.00,1.1788
6601.00,1.1828
6600.00,1.1865
6599.00,1.1903
6598.00,1.1944
6597.00,1.1986
6596.00,1.2025
6595.00,1.2057
6594.00,1.2082
6593.00,1.2102
6592.00,1.2117
6591.00,1.2130
6590.00,1.2139
6589.00,1.2144
6588.00,1.2144
6587.00,1.2141
6586.00,1.2135
6585.00,1.2126
6584.00,1.2113
6583.00,1.2097
6582.00,1.2079
6581.00,1.2060
6580.00,1.2036
6579.00,1.2009
6578.00,1.1977
6577.00,1.1941
6576.00,1.1900
6575.00,1.1855
6574.00,1.1808
6573.00,1.1758
6572.00,1.1702
6571.00,1.1641
6570.00,1.1576
6569.00,1.1511
6568.00,1.1447
6567.00,1.1383
6566.00,1.1318
6565.00,1.1247
6564.00,1.1169
6563.00,1.1087
6562.00,1.1002
6561.00,1.0914
6560.00,1.0823
6559.00,1.0732
6558.00,1.0642
6557.00,1.0553
6556.00,1.0461
6555.00,1.0364
6554.00,1.0264
6553.00,1.0161
6552.00,1.0059
6551.00,0.9958
6550.00,0.9859
6549.00,0.9761
6548.00,0.9661
6547.00,0.9557
6546.00,0.9453
6545.00,0.9348
6544.00,0.9244
6543.00,0.9141
6542.00,0.9040
6541.00,0.8941
6540.00,0.8843
6539.00,0.8746
6538.00,0.8650
6537.00,0.8557
6536.00,0.8468
6535.00,0.8381
6534.00,0.8299
6533.00,0.8223
6532.00,0.8152
6531.00,0.8085
6530.00,0.8023
6529.00,0.7964
6528.00,0.7911
6527.00,0.7863
6526.00,0.7822
6525.00,0.7788
6524.00,0.7759
6523.00,0.7735
6522.00,0.7718
6521.00,0.7707
6520.00,0.7702
6519.00,0.7704
6518.00,0.7712
6517.00,0.7728
6516.00,0.7751
6515.00,0.7781
6514.00,0.7817
6513.00,0.7860
6512.00,0.7908
6511.00,0.7960
6510.00,0.8016
6509.00,0.8079
6508.00,0.8147
6507.00,0.8219
6506.00,0.8295
6505.00,0.8376
6504.00,0.8461
6503.00,0.8548
6502.00,0.8637
6501.00,0.8730
6500.00,0.8827
6499.00,0.8926
6498.00,0.9026
6497.00,0.9129
6496.00,0.9233
6495.00,0.9337
6494.00,0.9441
6493.00,0.9545
6492.00,0.9649
6491.00,0.9752
6490.00,0.9856
6489.00,0.9964
6488.00,1.0074
6487.00,1.0183
6486.00,1.0288
6485.00,1.0391
6484.00,1.0495
6483.00,1.0598
6482.00,1.0697
6481.00,1.0792
6480.00,1.0888
6479.00,1.0984
6478.00,1.1081
6477.00,1.1174
6476.00,1.1265
6475.00,1.1351
6474.00,1.1434
6473.00,1.1513
6472.00,1.1589
6471.00,1.1664
6470.00,1.1737
6469.00,1.1807
6468.00,1.1875
6467.00,1.1941
6466.00,1.2006
6465.00,1.2069
6464.00,1.2128
6463.00,1.2182
6462.00,1.2232
6461.00,1.2277
6460.00,1.2317
6459.00,1.2352
6458.00,1.2382
6457.00,1.2407
6456.00,1.2429
6455.00,1.2448
6454.00,1.2466
6453.00,1.2482
6452.00,1.2494
6451.00,1.2498
6450.00,1.2494
6449.00,1.2485
6448.00,1.2474
6447.00,1.2459
6446.00,1.2440
6445.00,1.2419
6444.00,1.2398
6443.00,1.2375
6442.00,1.2347
6441.00,1.2310
6440.00,1.2266
6439.00,1.2219
6438.00,1.2170
6437.00,1.2119
6436.00,1.2066
6435.00,1.2010
6434.00,1.1951
6433.00,1.1890
6432.00,1.1824
6431.00,1.1752
6430.00,1.1672
6429.00,1.1586
6428.00,1.1497
6427.00,1.1407
6426.00,1.1316
6425.00,1.1224
6424.00,1.1133
6423.00,1.1041
6422.00,1.0947
6421.00,1.0846
6420.00,1.0738
6419.00,1.0625
6418.00,1.0511
6417.00,1.0396
6416.00,1.0282
6415.00,1.0169
6414.00,1.0058
6413.00,0.9948
6412.00,0.9838
6411.00,0.9726
6410.00,0.9613
6409.00,0.9500
6408.00,0.9387
6407.00,0.9274
6406.00,0.9164
6405.00,0.9055
6404.00,0.8948
6403.00,0.8841
6402.00,0.8736
6401.00,0.8636
6400.00,0.8540
6399.00,0.8449
6398.00,0.8363
6397.00,0.8282
6396.00,0.8207
6395.00,0.8137
6394.00,0.8070
6393.00,0.8008
6392.00,0.7950
6391.00,0.7900
6390.00,0.7856
6389.00,0.7820
6388.00,0.7791
6387.00,0.7768
6386.00,0.7752
6385.00,0.7743
6384.00,0.7741
6383.00,0.7744
6382.00,0.7753
6381.00,0.7770
6380.00,0.7794
6379.00,0.7826
6378.00,0.7865
6377.00,0.7911
6376.00,0.7962
6375.00,0.8019
6374.00,0.8081
6373.00,0.8147
6372.00,0.8217
6371.00,0.8291
6370.00,0.8369
6369.00,0.8451
6368.00,0.8537
6367.00,0.8625
6366.00,0.8715
6365.00,0.8807
6364.00,0.8901
6363.00,0.8999
6362.00,0.9101
6361.00,0.9207
6360.00,0.9316
6359.00,0.9425
6358.00,0.9534
6357.00,0.9641
6356.00,0.9745
6355.00,0.9846
6354.00,0.9946
6353.00,1.0048
6352.00,1.0151
6351.00,1.0255
6350.00,1.0359
6349.00,1.0463
6348.00,1.0568
6347.00,1.0673
6346.00,1.0778
6345.00,1.0883
6344.00,1.0986
6343.00,1.1086
6342.00,1.1181
6341.00,1.1271
6340.00,1.1356
6339.00,1.1438
6338.00,1.1516
6337.00,1.1590
6336.00,1.1664
6335.00,1.1737
6334.00,1.1809
6333.00,1.1875
6332.00,1.1936
6331.00,1.1991
6330.00,1.2043
6329.00,1.2091
6328.00,1.2137
6327.00,1.2181
6326.00,1.2224
6325.00,1.2265
6324.00,1.2302
6323.00,1.2334
6322.00,1.2359
6321.00,1.2376
6320.00,1.2388
6319.00,1.2399
6318.00,1.2408
6317.00,1.2415
6316.00,1.2417
6315.00,1.2417
6314.00,1.2414
6313.00,1.2403
6312.00,1.2384
6311.00,1.2359
6310.00,1.2332
6309.00,1.2303
6308.00,1.2273
6307.00,1.2242
6306.00,1.2211
6305.00,1.2178
6304.00,1.2141
6303.00,1.2099
6302.00,1.2052
6301.00,1.2000
6300.00,1.1944
6299.00,1.1882
6298.00,1.1815
6297.00,1.1745
6296.00,1.1672
6295.00,1.1598
6294.00,1.1523
6293.00,1.1445
6292.00,1.1364
6291.00,1.1282
6290.00,1.1198
6289.00,1.1111
6288.00,1.1020
6287.00,1.0925
6286.00,1.0828
6285.00,1.0729
6284.00,1.0625
6283.00,1.0517
6282.00,1.0407
6281.00,1.0295
6280.00,1.0182
6279.00,1.0068
6278.00,0.9955
6277.00,0.9844
6276.00,0.9733
6275.00,0.9622
6274.00,0.9510
6273.00,0.9397
6272.00,0.9284
6271.00,0.9172
6270.00,0.9061
6269.00,0.8954
6268.00,0.8848
6267.00,0.8744
6266.00,0.8644
6265.00,0.8548
6264.00,0.8454
6263.00,0.8364
6262.00,0.8278
6261.00,0.8197
6260.00,0.8121
6259.00,0.8050
6258.00,0.7984
6257.00,0.7924
6256.00,0.7871
6255.00,0.7824
6254.00,0.7784
6253.00,0.7751
6252.00,0.7722
6251.00,0.7699
6250.00,0.7684
6249.00,0.7677
6248.00,0.7679
6247.00,0.7688
6246.00,0.7706
6245.00,0.7731
6244.00,0.7764
6243.00,0.7801
6242.00,0.7843
6241.00,0.7892
6240.00,0.7947
6239.00,0.8008
6238.00,0.8075
6237.00,0.8146
6236.00,0.8221
6235.00,0.8301
6234.00,0.8386
6233.00,0.8476
6232.00,0.8569
6231.00,0.8665
6230.00,0.8763
6229.00,0.8863
6228.00,0.8966
6227.00,0.9069
6226.00,0.9174
6225.00,0.9282
6224.00,0.9394
6223.00,0.9508
6222.00,0.9622
6221.00,0.9735
6220.00,0.9846
6219.00,0.9957
6218.00,1.0069
6217.00,1.0182
6216.00,1.0295
6215.00,1.0407
6214.00,1.0519
6213.00,1.0632
6212.00,1.0742
6211.00,1.0850
6210.00,1.0954
6209.00,1.1059
6208.00,1.1163
6207.00,1.1264
6206.00,1.1362
6205.00,1.1455
6204.00,1.1544
6203.00,1.1630
6202.00,1.1715
6201.00,1.1798
6200.00,1.1876
6199.00,1.1950
6198.00,1.2023
6197.00,1.2096
6196.00,1.2165
6195.00,1.2229
6194.00,1.2291
6193.00,1.2352
6192.00,1.2410
6191.00,1.2459
6190.00,1.2501
6189.00,1.2540
6188.00,1.2575
6187.00,1.2606
6186.00,1.2632
6185.00,1.2655
6184.00,1.2675
6183.00,1.2690
6182.00,1.2701
6181.00,1.2707
6180.00,1.2709
6179.00,1.2707
6178.00,1.2700
6177.00,1.2691
6176.00,1.2680
6175.00,1.2666
6174.00,1.2647
6173.00,1.2628
6172.00,1.2606
6171.00,1.2579
6170.00,1.2544
6169.00,1.2502
6168.00,1.2456
6167.00,1.2406
6166.00,1.2353
6165.00,1.2295
6164.00,1.2233
6163.00,1.2167
6162.00,1.2099
6161.00,1.2026
6160.00,1.1948
6159.00,1.1865
6158.00,1.1779
6157.00,1.1693
6156.00,1.1606
6155.00,1.1517
6154.00,1.1425
6153.00,1.1331
6152.00,1.1234
6151.00,1.1131
6150.00,1.1023
6149.00,1.0910
6148.00,1.0795
6147.00,1.0680
6146.00,1.0565
6145.00,1.0448
6144.00,1.0330
6143.00,1.0210
6142.00,1.0090
6141.00,0.9968
6140.00,0.9845
6139.00,0.9720
6138.00,0.9595
6137.00,0.9472
6136.00,0.9352
6135.00,0.9233
6134.00,0.9117
6133.00,0.9004
6132.00,0.8894
6131.00,0.8785
6130.00,0.8678
6129.00,0.8574
6128.00,0.8473
6127.00,0.8376
6126.00,0.8285
6125.00,0.8200
6124.00,0.8121
6123.00,0.8047
6122.00,0.7978
6121.00,0.7917
6120.00,0.7862
6119.00,0.7813
6118.00,0.7771
6117.00,0.7737
6116.00,0.7709
6115.00,0.7690
6114.00,0.7677
6113.00,0.7673
6112.00,0.7676
6111.00,0.7688
6110.00,0.7707
6109.00,0.7733
6108.00,0.7765
6107.00,0.7804
6106.00,0.7850
6105.00,0.7902
6104.00,0.7962
6103.00,0.8026
6102.00,0.8096
6101.00,0.8172
6100.00,0.8252
6099.00,0.8336
6098.00,0.8425
6097.00,0.8517
6096.00,0.8614
6095.00,0.8712
6094.00,0.8811
6093.00,0.8912
6092.00,0.9015
6091.00,0.9120
6090.00,0.9229
6089.00,0.9340
6088.00,0.9452
6087.00,0.9563
6086.00,0.9673
6085.00,0.9784
6084.00,0.9896
6083.00,1.0008
6082.00,1.0122
6081.00,1.0236
6080.00,1.0347
6079.00,1.0457
6078.00,1.0565
6077.00,1.0672
6076.00,1.0779
6075.00,1.0885
6074.00,1.0991
6073.00,1.1095
6072.00,1.1194
6071.00,1.1289
6070.00,1.1381
6069.00,1.1471
6068.00,1.1560
6067.00,1.1648
6066.00,1.1736
6065.00,1.1822
6064.00,1.1904
6063.00,1.1980
6062.00,1.2050
6061.00,1.2115
6060.00,1.2177
6059.00,1.2236
6058.00,1.2294
6057.00,1.2351
6056.00,1.2407
6055.00,1.2458
6054.00,1.2503
6053.00,1.2542
6052.00,1.2576
6051.00,1.2607
6050.00,1.2636
6049.00,1.2662
6048.00,1.2684
6047.00,1.2703
6046.00,1.2719
6045.00,1.2734
6044.00,1.2745
6043.00,1.2750
6042.00,1.2749
6041.00,1.2744
6040.00,1.2737
6039.00,1.2724
6038.00,1.2705
6037.00,1.2682
6036.00,1.2657
6035.00,1.2627
6034.00,1.2591
6033.00,1.2548
6032.00,1.2505
6031.00,1.2460
6030.00,1.2413
6029.00,1.2359
6028.00,1.2297
6027.00,1.2228
6026.00,1.2155
6025.00,1.2079
6024.00,1.2001
6023.00,1.1924
6022.00,1.1846
6021.00,1.1766
6020.00,1.1680
6019.00,1.1587
6018.00,1.1488
6017.00,1.1386
6016.00,1.1281
6015.00,1.1174
6014.00,1.1064
6013.00,1.0952
6012.00,1.0836
6011.00,1.0719
6010.00,1.0599
6009.00,1.0477
6008.00,1.0354
6007.00,1.0230
6006.00,1.0108
6005.00,0.9984
6004.00,0.9860
6003.00,0.9734
6002.00,0.9609
6001.00,0.9486
6000.00,0.9363
5999.00,0.9240
5998.00,0.9118
5997.00,0.8999
5996.00,0.8882
5995.00,0.8769
5994.00,0.8660
5993.00,0.8555
5992.00,0.8454
5991.00,0.8357
5990.00,0.8265
5989.00,0.8179
5988.00,0.8098
5987.00,0.8022
5986.00,0.7953
5985.00,0.7892
5984.00,0.7839
5983.00,0.7794
5982.00,0.7756
5981.00,0.7726
5980.00,0.7703
5979.00,0.7688
5978.00,0.7680
5977.00,0.7679
5976.00,0.7686
5975.00,0.7702
5974.00,0.7727
5973.00,0.7760
5972.00,0.7800
5971.00,0.7846
5970.00,0.7900
5969.00,0.7960
5968.00,0.8026
5967.00,0.8097
5966.00,0.8174
5965.00,0.8256
5964.00,0.8343
5963.00,0.8435
5962.00,0.8530
5961.00,0.8630
5960.00,0.8733
5959.00,0.8838
5958.00,0.8948
5957.00,0.9060
5956.00,0.9174
5955.00,0.9291
5954.00,0.9410
5953.00,0.9531
5952.00,0.9653
5951.00,0.9773
5950.00,0.9894
5949.00,1.0017
5948.00,1.0141
5947.00,1.0265
5946.00,1.0387
5945.00,1.0509
5944.00,1.0629
5943.00,1.0746
5942.00,1.0863
5941.00,1.0978
5940.00,1.1095
5939.00,1.1212
5938.00,1.1327
5937.00,1.1439
5936.00,1.1547
5935.00,1.1651
5934.00,1.1752
5933.00,1.1852
5932.00,1.1949
5931.00,1.2041
5930.00,1.2128
5929.00,1.2210
5928.00,1.2289
5927.00,1.2366
5926.00,1.2443
5925.00,1.2520
5924.00,1.2595
5923.00,1.2665
5922.00,1.2727
5921.00,1.2782
5920.00,1.2831
5919.00,1.2876
5918.00,1.2918
5917.00,1.2956
5916.00,1.2988
5915.00,1.3015
5914.00,1.3039
5913.00,1.3059
5912.00,1.3076
5911.00,1.3090
5910.00,1.3100
5909.00,1.3106
5908.00,1.3105
5907.00,1.3097
5906.00,1.3085
5905.00,1.3071
5904.00,1.3055
5903.00,1.3035
5902.00,1.3011
5901.00,1.2984
5900.00,1.2954
5899.00,1.2919
5898.00,1.2882
5897.00,1.2842
5896.00,1.2797
5895.00,1.2744
5894.00,1.2683
5893.00,1.2617
5892.00,1.2547
5891.00,1.2474
5890.00,1.2397
5889.00,1.2317
5888.00,1.2234
5887.00,1.2149
5886.00,1.2060
5885.00,1.1968
5884.00,1.1872
5883.00,1.1775
5882.00,1.1676
5881.00,1.1574
5880.00,1.1467
5879.00,1.1355
5878.00,1.1241
5877.00,1.1125
5876.00,1.1006
5875.00,1.0885
5874.00,1.0763
5873.00,1.0641
5872.00,1.0517
5871.00,1.0391
5870.00,1.0262
5869.00,1.0133
5868.00,1.0004
5867.00,0.9877
5866.00,0.9750
5865.00,0.9625
5864.00,0.9501
5863.00,0.9378
5862.00,0.9257
5861.00,0.9140
5860.00,0.9026
5859.00,0.8915
5858.00,0.8807
5857.00,0.8703
5856.00,0.8602
5855.00,0.8506
5854.00,0.8414
5853.00,0.8328
5852.00,0.8249
5851.00,0.8176
5850.00,0.8109
5849.00,0.8048
5848.00,0.7995
5847.00,0.7950
5846.00,0.7912
5845.00,0.7883
5844.00,0.7861
5843.00,0.7848
5842.00,0.7844
5841.00,0.7848
5840.00,0.7859
5839.00,0.7878
5838.00,0.7905
5837.00,0.7939
5836.00,0.7979
5835.00,0.8026
5834.00,0.8080
5833.00,0.8140
5832.00,0.8207
5831.00,0.8281
5830.00,0.8360
5829.00,0.8446
5828.00,0.8536
5827.00,0.8631
5826.00,0.8729
5825.00,0.8831
5824.00,0.8936
5823.00,0.9043
5822.00,0.9154
5821.00,0.9268
5820.00,0.9384
5819.00,0.9502
5818.00,0.9622
5817.00,0.9743
5816.00,0.9863
5815.00,0.9982
5814.00,1.0101
5813.00,1.0220
5812.00,1.0341
5811.00,1.0463
5810.00,1.0586
5809.00,1.0708
5808.00,1.0827
5807.00,1.0943
5806.00,1.1057
5805.00,1.1170
5804.00,1.1283
5803.00,1.1396
5802.00,1.1510
5801.00,1.1623
5800.00,1.1732
5799.00,1.1836
5798.00,1.1937
5797.00,1.2035
5796.00,1.2129
5795.00,1.2220
5794.00,1.2307
5793.00,1.2392
5792.00,1.2473
5791.00,1.2550
5790.00,1.2624
5789.00,1.2695
5788.00,1.2763
5787.00,1.2826
5786.00,1.2884
5785.00,1.2936
5784.00,1.2982
5783.00,1.3023
5782.00,1.3061
5781.00,1.3099
5780.00,1.3134
5779.00,1.3166
5778.00,1.3194
5777.00,1.3218
5776.00,1.3236
5775.00,1.3248
5774.00,1.3255
5773.00,1.3260
5772.00,1.3263
5771.00,1.3261
5770.00,1.3253
5769.00,1.3239
5768.00,1.3222
5767.00,1.3202
5766.00,1.3178
5765.00,1.3150
5764.00,1.3116
5763.00,1.3079
5762.00,1.3038
5761.00,1.2992
5760.00,1.2942
5759.00,1.2889
5758.00,1.2834
5757.00,1.2776
5756.00,1.2712
5755.00,1.2643
5754.00,1.2570
5753.00,1.2492
5752.00,1.2411
5751.00,1.2324
5750.00,1.2231
5749.00,1.2133
5748.00,1.2033
5747.00,1.1932
5746.00,1.1828
5745.00,1.1721
5744.00,1.1611
5743.00,1.1499
5742.00,1.1384
5741.00,1.1267
5740.00,1.1147
5739.00,1.1026
5738.00,1.0902
5737.00,1.0775
5736.00,1.0644
5735.00,1.0509
5734.00,1.0372
5733.00,1.0236
5732.00,1.0102
5731.00,0.9971
5730.00,0.9843
5729.00,0.9715
5728.00,0.9588
5727.00,0.9461
5726.00,0.9334
5725.00,0.9208
5724.00,0.9084
5723.00,0.8963
5722.00,0.8847
5721.00,0.8735
5720.00,0.8628
5719.00,0.8525
5718.00,0.8428
5717.00,0.8337
5716.00,0.8251
5715.00,0.8172
5714.00,0.8099
5713.00,0.8034
5712.00,0.7976
5711.00,0.7925
5710.00,0.7881
5709.00,0.7845
5708.00,0.7818
5707.00,0.7799
5706.00,0.7790
5705.00,0.7789
5704.00,0.7797
5703.00,0.7815
5702.00,0.7841
5701.00,0.7876
5700.00,0.7918
5699.00,0.7968
5698.00,0.8024
5697.00,0.8087
5696.00,0.8155
5695.00,0.8228
5694.00,0.8308
5693.00,0.8396
5692.00,0.8490
5691.00,0.8590
5690.00,0.8695
5689.00,0.8804
5688.00,0.8916
5687.00,0.9030
5686.00,0.9145
5685.00,0.9261
5684.00,0.9380
5683.00,0.9501
5682.00,0.9625
5681.00,0.9752
5680.00,0.9880
5679.00,1.0010
5678.00,1.0139
5677.00,1.0269
5676.00,1.0396
5675.00,1.0522
5674.00,1.0648
5673.00,1.0775
5672.00,1.0901
5671.00,1.1026
5670.00,1.1150
5669.00,1.1271
5668.00,1.1390
5667.00,1.1507
5666.00,1.1622
5665.00,1.1735
5664.00,1.1845
5663.00,1.1950
5662.00,1.2050
5661.00,1.2146
5660.00,1.2236
5659.00,1.2325
5658.00,1.2414
5657.00,1.2504
5656.00,1.2592
5655.00,1.2677
5654.00,1.2755
5653.00,1.2826
5652.00,1.2888
5651.00,1.2943
5650.00,1.2993
5649.00,1.3042
5648.00,1.3091
5647.00,1.3137
5646.00,1.3179
5645.00,1.3216
5644.00,1.3246
5643.00,1.3268
5642.00,1.3285
5641.00,1.3298
5640.00,1.3310
5639.00,1.3321
5638.00,1.3328
5637.00,1.3331
5636.00,1.3327
5635.00,1.3315
5634.00,1.3298
5633.00,1.3276
5632.00,1.3253
5631.00,1.3227
5630.00,1.3200
5629.00,1.3167
5628.00,1.3128
5627.00,1.3083
5626.00,1.3035
5625.00,1.2986
5624.00,1.2935
5623.00,1.2881
5622.00,1.2823
5621.00,1.2763
5620.00,1.2698
5619.00,1.2628
5618.00,1.2552
5617.00,1.2473
5616.00,1.2392
5615.00,1.2307
5614.00,1.2218
5613.00,1.2123
5612.00,1.2023
5611.00,1.1920
5610.00,1.1815
5609.00,1.1707
5608.00,1.1596
5607.00,1.1481
5606.00,1.1363
5605.00,1.1241
5604.00,1.1117
5603.00,1.0991
5602.00,1.0864
5601.00,1.0734
5600.00,1.0601
5599.00,1.0464
5598.00,1.0326
5597.00,1.0187
5596.00,1.0048
5595.00,0.9909
5594.00,0.9771
5593.00,0.9635
5592.00,0.9498
5591.00,0.9363
5590.00,0.9229
5589.00,0.9099
5588.00,0.8972
5587.00,0.8849
5586.00,0.8729
5585.00,0.8614
5584.00,0.8504
5583.00,0.8397
5582.00,0.8296
5581.00,0.8200
5580.00,0.8111
5579.00,0.8029
5578.00,0.7955
5577.00,0.7889
5576.00,0.7831
5575.00,0.7781
5574.00,0.7740
5573.00,0.7710
5572.00,0.7688
5571.00,0.7676
5570.00,0.7673
5569.00,0.7678
5568.00,0.7693
5567.00,0.7717
5566.00,0.7750
5565.00,0.7792
5564.00,0.7843
5563.00,0.7902
5562.00,0.7969
5561.00,0.8041
5560.00,0.8120
5559.00,0.8205
5558.00,0.8295
5557.00,0.8391
5556.00,0.8492
5555.00,0.8599
5554.00,0.8711
5553.00,0.8827
5552.00,0.8947
5551.00,0.9071
5550.00,0.9197
5549.00,0.9326
5548.00,0.9457
5547.00,0.9591
5546.00,0.9727
5545.00,0.9863
5544.00,0.9998
5543.00,1.0132
5542.00,1.0267
5541.00,1.0402
5540.00,1.0538
5539.00,1.0673
5538.00,1.0807
5537.00,1.0940
5536.00,1.1071
5535.00,1.1200
5534.00,1.1330
5533.00,1.1459
5532.00,1.1587
5531.00,1.1712
5530.00,1.1834
5529.00,1.1950
5528.00,1.2061
5527.00,1.2169
5526.00,1.2274
5525.00,1.2376
5524.00,1.2476
5523.00,1.2573
5522.00,1.2667
5521.00,1.2756
5520.00,1.2837
5519.00,1.2912
5518.00,1.2983
5517.00,1.3053
5516.00,1.3120
5515.00,1.3183
5514.00,1.3243
5513.00,1.3297
5512.00,1.3345
5511.00,1.3389
5510.00,1.3430
5509.00,1.3469
5508.00,1.3503
5507.00,1.3532
5506.00,1.3554
5505.00,1.3572
5504.00,1.3585
5503.00,1.3592
5502.00,1.3596
5501.00,1.3598
5500.00,1.3600
5499.00,1.3600
5498.00,1.3596
5497.00,1.3587
5496.00,1.3570
5495.00,1.3545
5494.00,1.3513
5493.00,1.3476
5492.00,1.3438
5491.00,1.3396
5490.00,1.3349
5489.00,1.3296
5488.00,1.3238
5487.00,1.3175
5486.00,1.3109
5485.00,1.3041
5484.00,1.2971
5483.00,1.2899
5482.00,1.2821
5481.00,1.2737
5480.00,1.2648
5479.00,1.2555
5478.00,1.2457
5477.00,1.2355
5476.00,1.2248
5475.00,1.2135
5474.00,1.2017
5473.00,1.1895
5472.00,1.1772
5471.00,1.1648
5470.00,1.1522
5469.00,1.1392
5468.00,1.1258
5467.00,1.1120
5466.00,1.0980
5465.00,1.0838
5464.00,1.0694
5463.00,1.0547
5462.00,1.0398
5461.00,1.0248
5460.00,1.0097
5459.00,0.9947
5458.00,0.9799
5457.00,0.9653
5456.00,0.9508
5455.00,0.9365
5454.00,0.9223
5453.00,0.9085
5452.00,0.8951
5451.00,0.8820
5450.00,0.8694
5449.00,0.8571
5448.00,0.8453
5447.00,0.8340
5446.00,0.8233
5445.00,0.8132
5444.00,0.8038
5443.00,0.7953
5442.00,0.7876
5441.00,0.7809
5440.00,0.7750
5439.00,0.7701
5438.00,0.7662
5437.00,0.7632
5436.00,0.7613
5435.00,0.7603
5434.00,0.7602
5433.00,0.7610
5432.00,0.7626
5431.00,0.7653
5430.00,0.7690
5429.00,0.7737
5428.00,0.7793
5427.00,0.7855
5426.00,0.7923
5425.00,0.7997
5424.00,0.8080
5423.00,0.8172
5422.00,0.8272
5421.00,0.8377
5420.00,0.8487
5419.00,0.8599
5418.00,0.8713
5417.00,0.8829
5416.00,0.8949
5415.00,0.9072
5414.00,0.9199
5413.00,0.9328
5412.00,0.9459
5411.00,0.9593
5410.00,0.9730
5409.00,0.9869
5408.00,1.0010
5407.00,1.0151
5406.00,1.0293
5405.00,1.0435
5404.00,1.0577
5403.00,1.0719
5402.00,1.0859
5401.00,1.0998
5400.00,1.1133
5399.00,1.1266
5398.00,1.1397
5397.00,1.1525
5396.00,1.1650
5395.00,1.1772
5394.00,1.1891
5393.00,1.2008
5392.00,1.2123
5391.00,1.2236
5390.00,1.2346
5389.00,1.2453
5388.00,1.2555
5387.00,1.2655
5386.00,1.2752
5385.00,1.2844
5384.00,1.2931
5383.00,1.3011
5382.00,1.3087
5381.00,1.3158
5380.00,1.3225
5379.00,1.3288
5378.00,1.3349
5377.00,1.3408
5376.00,1.3463
5375.00,1.3513
5374.00,1.3559
5373.00,1.3600
5372.00,1.3635
5371.00,1.3664
5370.00,1.3691
5369.00,1.3715
5368.00,1.3738
5367.00,1.3757
5366.00,1.3769
5365.00,1.3773
5364.00,1.3770
5363.00,1.3762
5362.00,1.3751
5361.00,1.3736
5360.00,1.3718
5359.00,1.3698
5358.00,1.3673
5357.00,1.3642
5356.00,1.3605
5355.00,1.3563
5354.00,1.3516
5353.00,1.3464
5352.00,1.3408
5351.00,1.3346
5350.00,1.3279
5349.00,1.3207
5348.00,1.3130
5347.00,1.3050
5346.00,1.2966
5345.00,1.2877
5344.00,1.2783
5343.00,1.2685
5342.00,1.2582
5341.00,1.2475
5340.00,1.2364
5339.00,1.2249
5338.00,1.2129
5337.00,1.2004
5336.00,1.1878
5335.00,1.1750
5334.00,1.1620
5333.00,1.1486
5332.00,1.1348
5331.00,1.1206
5330.00,1.1060
5329.00,1.0912
5328.00,1.0761
5327.00,1.0609
5326.00,1.0455
5325.00,1.0301
5324.00,1.0146
5323.00,0.9993
5322.00,0.9842
5321.00,0.9691
5320.00,0.9541
5319.00,0.9393
5318.00,0.9248
5317.00,0.9105
5316.00,0.8966
5315.00,0.8831
5314.00,0.8701
5313.00,0.8576
5312.00,0.8457
5311.00,0.8344
5310.00,0.8238
5309.00,0.8140
5308.00,0.8050
5307.00,0.7967
5306.00,0.7893
5305.00,0.7829
5304.00,0.7775
5303.00,0.7730
5302.00,0.7697
5301.00,0.7675
5300.00,0.7664
5299.00,0.7662
5298.00,0.7671
5297.00,0.7689
5296.00,0.7718
5295.00,0.7756
5294.00,0.7804
5293.00,0.7861
5292.00,0.7928
5291.00,0.8003
5290.00,0.8087
5289.00,0.8179
5288.00,0.8277
5287.00,0.8380
5286.00,0.8490
5285.00,0.8607
5284.00,0.8728
5283.00,0.8854
5282.00,0.8983
5281.00,0.9116
5280.00,0.9252
5279.00,0.9391
5278.00,0.9534
5277.00,0.9678
5276.00,0.9824
5275.00,0.9971
5274.00,1.0118
5273.00,1.0266
5272.00,1.0415
5271.00,1.0563
5270.00,1.0712
5269.00,1.0859
5268.00,1.1004
5267.00,1.1146
5266.00,1.1285
5265.00,1.1424
5264.00,1.1563
5263.00,1.1701
5262.00,1.1838
5261.00,1.1973
5260.00,1.2105
5259.00,1.2233
5258.00,1.2358
5257.00,1.2479
5256.00,1.2596
5255.00,1.2709
5254.00,1.2818
5253.00,1.2922
5252.00,1.3022
5251.00,1.3115
5250.00,1.3203
5249.00,1.3286
5248.00,1.3364
5247.00,1.3436
5246.00,1.3507
5245.00,1.3575
5244.00,1.3642
5243.00,1.3705
5242.00,1.3763
5241.00,1.3817
5240.00,1.3865
5239.00,1.3907
5238.00,1.3944
5237.00,1.3978
5236.00,1.4008
5235.00,1.4033
5234.00,1.4053
5233.00,1.4068
5232.00,1.4079
5231.00,1.4084
5230.00,1.4085
5229.00,1.4084
5228.00,1.4079
5227.00,1.4069
5226.00,1.4053
5225.00,1.4030
5224.00,1.4003
5223.00,1.3971
5222.00,1.3935
5221.00,1.3897
5220.00,1.3856
5219.00,1.3810
5218.00,1.3758
5217.00,1.3703
5216.00,1.3644
5215.00,1.3580
5214.00,1.3510
5213.00,1.3434
5212.00,1.3355
5211.00,1.3273
5210.00,1.3188
5209.00,1.3099
5208.00,1.3005
5207.00,1.2903
5206.00,1.2794
5205.00,1.2680
5204.00,1.2564
5203.00,1.2447
5202.00,1.2327
5201.00,1.2202
5200.00,1.2072
5199.00,1.1937
5198.00,1.1797
5197.00,1.1654
5196.00,1.1508
5195.00,1.1359
5194.00,1.1208
5193.00,1.1054
5192.00,1.0898
5191.00,1.0740
5190.00,1.0581
5189.00,1.0421
5188.00,1.0260
5187.00,1.0099
5186.00,0.9938
5185.00,0.9778
5184.00,0.9619
5183.00,0.9463
5182.00,0.9310
5181.00,0.9161
5180.00,0.9016
5179.00,0.8875
5178.00,0.8737
5177.00,0.8605
5176.00,0.8479
5175.00,0.8361
5174.00,0.8250
5173.00,0.8148
5172.00,0.8054
5171.00,0.7969
5170.00,0.7893
5169.00,0.7826
5168.00,0.7770
5167.00,0.7723
5166.00,0.7687
5165.00,0.7662
5164.00,0.7648
5163.00,0.7646
5162.00,0.7655
5161.00,0.7675
5160.00,0.7704
5159.00,0.7743
5158.00,0.7791
5157.00,0.7851
5156.00,0.7921
5155.00,0.8001
5154.00,0.8090
5153.00,0.8186
5152.00,0.8289
5151.00,0.8398
5150.00,0.8513
5149.00,0.8634
5148.00,0.8760
5147.00,0.8890
5146.00,0.9024
5145.00,0.9162
5144.00,0.9303
5143.00,0.9447
5142.00,0.9595
5141.00,0.9744
5140.00,0.9896
5139.00,1.0048
5138.00,1.0201
5137.00,1.0354
5136.00,1.0509
5135.00,1.0664
5134.00,1.0818
5133.00,1.0971
5132.00,1.1122
5131.00,1.1271
5130.00,1.1418
5129.00,1.1564
5128.00,1.1709
5127.00,1.1853
5126.00,1.1995
5125.00,1.2133
5124.00,1.2267
5123.00,1.2397
5122.00,1.2523
5121.00,1.2646
5120.00,1.2764
5119.00,1.2880
5118.00,1.2992
5117.00,1.3099
5116.00,1.3200
5115.00,1.3296
5114.00,1.3387
5113.00,1.3475
5112.00,1.3560
5111.00,1.3642
5110.00,1.3721
5109.00,1.3796
5108.00,1.3864
5107.00,1.3926
5106.00,1.3984
5105.00,1.4038
5104.00,1.4089
5103.00,1.4136
5102.00,1.4175
5101.00,1.4208
5100.00,1.4232
5099.00,1.4249
5098.00,1.4264
5097.00,1.4280
5096.00,1.4295
5095.00,1.4308
5094.00,1.4314
5093.00,1.4313
5092.00,1.4307
5091.00,1.4299
5090.00,1.4288
5089.00,1.4273
5088.00,1.4252
5087.00,1.4221
5086.00,1.4183
5085.00,1.4137
5084.00,1.4090
5083.00,1.4041
5082.00,1.3989
5081.00,1.3933
5080.00,1.3871
5079.00,1.3805
5078.00,1.3735
5077.00,1.3662
5076.00,1.3585
5075.00,1.3501
5074.00,1.3411
5073.00,1.3315
5072.00,1.3214
5071.00,1.3110
5070.00,1.3002
5069.00,1.2889
5068.00,1.2770
5067.00,1.2644
5066.00,1.2513
5065.00,1.2379
5064.00,1.2240
5063.00,1.2097
5062.00,1.1951
5061.00,1.1802
5060.00,1.1650
5059.00,1.1494
5058.00,1.1334
5057.00,1.1172
5056.00,1.1009
5055.00,1.0844
5054.00,1.0677
5053.00,1.0510
5052.00,1.0341
5051.00,1.0170
5050.00,1.0000
5049.00,0.9831
5048.00,0.9665
5047.00,0.9501
5046.00,0.9341
5045.00,0.9183
5044.00,0.9030
5043.00,0.8881
5042.00,0.8738
5041.00,0.8602
5040.00,0.8473
5039.00,0.8351
5038.00,0.8237
5037.00,0.8131
5036.00,0.8035
5035.00,0.7948
5034.00,0.7872
5033.00,0.7808
5032.00,0.7755
5031.00,0.7713
5030.00,0.7684
5029.00,0.7665
5028.00,0.7659
5027.00,0.7665
5026.00,0.7683
5025.00,0.7713
5024.00,0.7755
5023.00,0.7807
5022.00,0.7870
5021.00,0.7944
5020.00,0.8026
5019.00,0.8118
5018.00,0.8219
5017.00,0.8327
5016.00,0.8443
5015.00,0.8566
5014.00,0.8695
5013.00,0.8828
5012.00,0.8967
5011.00,0.9109
5010.00,0.9256
5009.00,0.9406
5008.00,0.9560
5007.00,0.9716
5006.00,0.9875
5005.00,1.0035
5004.00,1.0197
5003.00,1.0358
5002.00,1.0520
5001.00,1.0683
5000.00,1.0847
4999.00,1.1011
4998.00,1.1175
4997.00,1.1337
4996.00,1.1497
4995.00,1.1654
4994.00,1.1809
4993.00,1.1962
4992.00,1.2113
4991.00,1.2261
4990.00,1.2403
4989.00,1.2540
4988.00,1.2671
4987.00,1.2800
4986.00,1.2927
4985.00,1.3051
4984.00,1.3173
4983.00,1.3290
4982.00,1.3401
4981.00,1.3506
4980.00,1.3605
4979.00,1.3700
4978.00,1.3791
4977.00,1.3878
4976.00,1.3959
4975.00,1.4034
4974.00,1.4104
4973.00,1.4171
4972.00,1.4234
4971.00,1.4292
4970.00,1.4344
4969.00,1.4389
4968.00,1.4429
4967.00,1.4465
4966.00,1.4497
4965.00,1.4524
4964.00,1.4547
4963.00,1.4564
4962.00,1.4576
4961.00,1.4586
4960.00,1.4593
4959.00,1.4598
4958.00,1.4599
4957.00,1.4594
4956.00,1.4583
4955.00,1.4566
4954.00,1.4545
4953.00,1.4521
4952.00,1.4495
4951.00,1.4464
4950.00,1.4427
4949.00,1.4382
4948.00,1.4331
4947.00,1.4274
4946.00,1.4214
4945.00,1.4150
4944.00,1.4082
4943.00,1.4008
4942.00,1.3930
4941.00,1.3848
4940.00,1.3761
4939.00,1.3670
4938.00,1.3573
4937.00,1.3471
4936.00,1.3363
4935.00,1.3251
4934.00,1.3134
4933.00,1.3012
4932.00,1.2884
4931.00,1.2752
4930.00,1.2615
4929.00,1.2476
4928.00,1.2332
4927.00,1.2183
4926.00,1.2028
4925.00,1.1867
4924.00,1.1703
4923.00,1.1537
4922.00,1.1369
4921.00,1.1200
4920.00,1.1029
4919.00,1.0854
4918.00,1.0676
4917.00,1.0496
4916.00,1.0316
4915.00,1.0137
4914.00,0.9959
4913.00,0.9782
4912.00,0.9607
4911.00,0.9434
4910.00,0.9265
4909.00,0.9100
4908.00,0.8940
4907.00,0.8785
4906.00,0.8636
4905.00,0.8495
4904.00,0.8360
4903.00,0.8234
4902.00,0.8118
4901.00,0.8013
4900.00,0.7918
4899.00,0.7833
4898.00,0.7759
4897.00,0.7697
4896.00,0.7647
4895.00,0.7610
4894.00,0.7587
4893.00,0.7577
4892.00,0.7580
4891.00,0.7596
4890.00,0.7625
4889.00,0.7666
4888.00,0.7719
4887.00,0.7785
4886.00,0.7863
4885.00,0.7952
4884.00,0.8050
4883.00,0.8156
4882.00,0.8270
4881.00,0.8391
4880.00,0.8520
4879.00,0.8657
4878.00,0.8799
4877.00,0.8947
4876.00,0.9099
4875.00,0.9254
4874.00,0.9413
4873.00,0.9575
4872.00,0.9740
4871.00,0.9907
4870.00,1.0077
4869.00,1.0247
4868.00,1.0417
4867.00,1.0587
4866.00,1.0757
4865.00,1.0928
4864.00,1.1099
4863.00,1.1270
4862.00,1.1439
4861.00,1.1606
4860.00,1.1770
4859.00,1.1932
4858.00,1.2091
4857.00,1.2249
4856.00,1.2404
4855.00,1.2555
4854.00,1.2703
4853.00,1.2845
4852.00,1.2981
4851.00,1.3112
4850.00,1.3238
4849.00,1.3360
4848.00,1.3477
4847.00,1.3592
4846.00,1.3705
4845.00,1.3815
4844.00,1.3920
4843.00,1.4021
4842.00,1.4114
4841.00,1.4200
4840.00,1.4279
4839.00,1.4353
4838.00,1.4424
4837.00,1.4492
4836.00,1.4553
4835.00,1.4609
4834.00,1.4659
4833.00,1.4705
4832.00,1.4746
4831.00,1.4785
4830.00,1.4819
4829.00,1.4850
4828.00,1.4874
4827.00,1.4892
4826.00,1.4903
4825.00,1.4908
4824.00,1.4908
4823.00,1.4905
4822.00,1.4902
4821.00,1.4897
4820.00,1.4887
4819.00,1.4871
4818.00,1.4850
4817.00,1.4823
4816.00,1.4792
4815.00,1.4756
4814.00,1.4714
4813.00,1.4665
4812.00,1.4611
4811.00,1.4553
4810.00,1.4490
4809.00,1.4424
4808.00,1.4354
4807.00,1.4280
4806.00,1.4202
4805.00,1.4118
4804.00,1.4028
4803.00,1.3931
4802.00,1.3827
4801.00,1.3717
4800.00,1.3602
4799.00,1.3483
4798.00,1.3360
4797.00,1.3233
4796.00,1.3102
4795.00,1.2967
4794.00,1.2826
4793.00,1.2680
4792.00,1.2528
4791.00,1.2370
4790.00,1.2207
4789.00,1.2038
4788.00,1.1865
4787.00,1.1689
4786.00,1.1510
4785.00,1.1330
4784.00,1.1148
4783.00,1.0965
4782.00,1.0780
4781.00,1.0592
4780.00,1.0404
4779.00,1.0215
4778.00,1.0029
4777.00,0.9844
4776.00,0.9663
4775.00,0.9484
4774.00,0.9309
4773.00,0.9138
4772.00,0.8972
4771.00,0.8813
4770.00,0.8661
4769.00,0.8518
4768.00,0.8383
4767.00,0.8259
4766.00,0.8145
4765.00,0.8042
4764.00,0.7950
4763.00,0.7870
4762.00,0.7803
4761.00,0.7749
4760.00,0.7708
4759.00,0.7682
4758.00,0.7670
4757.00,0.7672
4756.00,0.7690
4755.00,0.7721
4754.00,0.7766
4753.00,0.7823
4752.00,0.7892
4751.00,0.7973
4750.00,0.8065
4749.00,0.8168
4748.00,0.8282
4747.00,0.8405
4746.00,0.8536
4745.00,0.8674
4744.00,0.8819
4743.00,0.8969
4742.00,0.9124
4741.00,0.9283
4740.00,0.9446
4739.00,0.9613
4738.00,0.9785
4737.00,0.9959
4736.00,1.0137
4735.00,1.0316
4734.00,1.0496
4733.00,1.0676
4732.00,1.0856
4731.00,1.1034
4730.00,1.1213
4729.00,1.1392
4728.00,1.1571
4727.00,1.1749
4726.00,1.1926
4725.00,1.2099
4724.00,1.2269
4723.00,1.2434
4722.00,1.2596
4721.00,1.2754
4720.00,1.2909
4719.00,1.3060
4718.00,1.3209
4717.00,1.3353
4716.00,1.3493
4715.00,1.3626
4714.00,1.3753
4713.00,1.3872
4712.00,1.3985
4711.00,1.4091
4710.00,1.4194
4709.00,1.4293
4708.00,1.4391
4707.00,1.4485
4706.00,1.4575
4705.00,1.4660
4704.00,1.4739
4703.00,1.4812
4702.00,1.4877
4701.00,1.4934
4700.00,1.4985
4699.00,1.5030
4698.00,1.5071
4697.00,1.5109
4696.00,1.5146
4695.00,1.5178
4694.00,1.5206
4693.00,1.5227
4692.00,1.5244
4691.00,1.5259
4690.00,1.5272
4689.00,1.5282
4688.00,1.5285
4687.00,1.5280
4686.00,1.5268
4685.00,1.5251
4684.00,1.5231
4683.00,1.5208
4682.00,1.5182
4681.00,1.5150
4680.00,1.5115
4679.00,1.5077
4678.00,1.5036
4677.00,1.4989
4676.00,1.4936
4675.00,1.4876
4674.00,1.4810
4673.00,1.4740
4672.00,1.4666
4671.00,1.4587
4670.00,1.4501
4669.00,1.4407
4668.00,1.4308
4667.00,1.4204
4666.00,1.4096
4665.00,1.3986
4664.00,1.3870
4663.00,1.3749
4662.00,1.3622
4661.00,1.3488
4660.00,1.3348
4659.00,1.3202
4658.00,1.3050
4657.00,1.2894
4656.00,1.2733
4655.00,1.2567
4654.00,1.2397
4653.00,1.2221
4652.00,1.2041
4651.00,1.1856
4650.00,1.1668
4649.00,1.1477
4648.00,1.1284
4647.00,1.1088
4646.00,1.0892
4645.00,1.0695
4644.00,1.0498
4643.00,1.0301
4642.00,1.0105
4641.00,0.9910
4640.00,0.9717
4639.00,0.9529
4638.00,0.9345
4637.00,0.9167
4636.00,0.8995
4635.00,0.8831
4634.00,0.8674
4633.00,0.8527
4632.00,0.8390
4631.00,0.8264
4630.00,0.8150
4629.00,0.8047
4628.00,0.7958
4627.00,0.7883
4626.00,0.7822
4625.00,0.7776
4624.00,0.7745
4623.00,0.7729
4622.00,0.7729
4621.00,0.7744
4620.00,0.7774
4619.00,0.7818
4618.00,0.7875
4617.00,0.7946
4616.00,0.8029
4615.00,0.8125
4614.00,0.8232
4613.00,0.8350
4612.00,0.8477
4611.00,0.8612
4610.00,0.8756
4609.00,0.8905
4608.00,0.9061
4607.00,0.9223
4606.00,0.9389
4605.00,0.9561
4604.00,0.9736
4603.00,0.9915
4602.00,1.0095
4601.00,1.0278
4600.00,1.0463
4599.00,1.0649
4598.00,1.0835
4597.00,1.1022
4596.00,1.1208
4595.00,1.1395
4594.00,1.1580
4593.00,1.1765
4592.00,1.1949
4591.00,1.2131
4590.00,1.2311
4589.00,1.2487
4588.00,1.2660
4587.00,1.2827
4586.00,1.2992
4585.00,1.3153
4584.00,1.3310
4583.00,1.3463
4582.00,1.3610
4581.00,1.3752
4580.00,1.3890
4579.00,1.4023
4578.00,1.4151
4577.00,1.4273
4576.00,1.4388
4575.00,1.4497
4574.00,1.4600
4573.00,1.4698
4572.00,1.4791
4571.00,1.4879
4570.00,1.4962
4569.00,1.5040
4568.00,1.5114
4567.00,1.5183
4566.00,1.5248
4565.00,1.5308
4564.00,1.5361
4563.00,1.5410
4562.00,1.5454
4561.00,1.5494
4560.00,1.5529
4559.00,1.5560
4558.00,1.5584
4557.00,1.5603
4556.00,1.5616
4555.00,1.5625
4554.00,1.5630
4553.00,1.5630
4552.00,1.5628
4551.00,1.5621
4550.00,1.5610
4549.00,1.5593
4548.00,1.5574
4547.00,1.5550
4546.00,1.5521
4545.00,1.5485
4544.00,1.5442
4543.00,1.5393
4542.00,1.5341
4541.00,1.5285
4540.00,1.5225
4539.00,1.5161
4538.00,1.5091
4537.00,1.5016
4536.00,1.4936
4535.00,1.4851
4534.00,1.4759
4533.00,1.4659
4532.00,1.4552
4531.00,1.4440
4530.00,1.4324
4529.00,1.4204
4528.00,1.4081
4527.00,1.3952
4526.00,1.3817
4525.00,1.3674
4524.00,1.3525
4523.00,1.3370
4522.00,1.3209
4521.00,1.3041
4520.00,1.2868
4519.00,1.2690
4518.00,1.2507
4517.00,1.2321
4516.00,1.2129
4515.00,1.1934
4514.00,1.1735
4513.00,1.1533
4512.00,1.1329
4511.00,1.1122
4510.00,1.0914
4509.00,1.0706
4508.00,1.0497
4507.00,1.0288
4506.00,1.0082
4505.00,0.9880
4504.00,0.9681
4503.00,0.9487
4502.00,0.9299
4501.00,0.9117
4500.00,0.8942
4499.00,0.8777
4498.00,0.8621
4497.00,0.8476
4496.00,0.8343
4495.00,0.8222
4494.00,0.8115
4493.00,0.8021
4492.00,0.7943
4491.00,0.7880
4490.00,0.7833
4489.00,0.7802
4488.00,0.7788
4487.00,0.7790
4486.00,0.7810
4485.00,0.7846
4484.00,0.7898
4483.00,0.7966
4482.00,0.8048
4481.00,0.8144
4480.00,0.8251
4479.00,0.8370
4478.00,0.8500
4477.00,0.8641
4476.00,0.8790
4475.00,0.8949
4474.00,0.9114
4473.00,0.9286
4472.00,0.9463
4471.00,0.9645
4470.00,0.9831
4469.00,1.0020
4468.00,1.0211
4467.00,1.0406
4466.00,1.0603
4465.00,1.0803
4464.00,1.1004
4463.00,1.1206
4462.00,1.1407
4461.00,1.1607
4460.00,1.1805
4459.00,1.2001
4458.00,1.2196
4457.00,1.2390
4456.00,1.2581
4455.00,1.2769
4454.00,1.2952
4453.00,1.3131
4452.00,1.3306
4451.00,1.3475
4450.00,1.3638
4449.00,1.3797
4448.00,1.3951
4447.00,1.4102
4446.00,1.4251
4445.00,1.4394
4444.00,1.4530
4443.00,1.4658
4442.00,1.4777
4441.00,1.4890
4440.00,1.4998
4439.00,1.5101
4438.00,1.5200
4437.00,1.5293
4436.00,1.5378
4435.00,1.5455
4434.00,1.5527
4433.00,1.5594
4432.00,1.5658
4431.00,1.5719
4430.00,1.5776
4429.00,1.5828
4428.00,1.5875
4427.00,1.5918
4426.00,1.5956
4425.00,1.5990
4424.00,1.6017
4423.00,1.6036
4422.00,1.6048
4421.00,1.6053
4420.00,1.6054
4419.00,1.6052
4418.00,1.6047
4417.00,1.6039
4416.00,1.6029
4415.00,1.6016
4414.00,1.5997
4413.00,1.5972
4412.00,1.5941
4411.00,1.5904
4410.00,1.5863
4409.00,1.5819
4408.00,1.5771
4407.00,1.5718
4406.00,1.5660
4405.00,1.5595
4404.00,1.5523
4403.00,1.5444
4402.00,1.5361
4401.00,1.5273
4400.00,1.5183
4399.00,1.5090
4398.00,1.4993
4397.00,1.4890
4396.00,1.4779
4395.00,1.4661
4394.00,1.4540
4393.00,1.4416
4392.00,1.4289
4391.00,1.4156
4390.00,1.4016
4389.00,1.3868
4388.00,1.3715
4387.00,1.3557
4386.00,1.3397
4385.00,1.3233
4384.00,1.3065
4383.00,1.2894
4382.00,1.2721
4381.00,1.2547
4380.00,1.2372
4379.00,1.2195
4378.00,1.2016
4377.00,1.1834
4376.00,1.1652
4375.00,1.1469
4374.00,1.1287
4373.00,1.1106
4372.00,1.0927
4371.00,1.0750
4370.00,1.0576
4369.00,1.0405
4368.00,1.0238
4367.00,1.0074
4366.00,0.9916
4365.00,0.9762
4364.00,0.9615
4363.00,0.9475
4362.00,0.9342
4361.00,0.9217
4360.00,0.9101
4359.00,0.8996
4358.00,0.8901
4357.00,0.8818
4356.00,0.8747
4355.00,0.8691
4354.00,0.8649
4353.00,0.8622
4352.00,0.8610
4351.00,0.8613
4350.00,0.8631
4349.00,0.8663
4348.00,0.8710
4347.00,0.8771
4346.00,0.8844
4345.00,0.8930
4344.00,0.9026
4343.00,0.9134
4342.00,0.9251
4341.00,0.9377
4340.00,0.9512
4339.00,0.9656
4338.00,0.9808
4337.00,0.9967
4336.00,1.0134
4335.00,1.0305
4334.00,1.0482
4333.00,1.0663
4332.00,1.0848
4331.00,1.1037
4330.00,1.1230
4329.00,1.1425
4328.00,1.1622
4327.00,1.1820
4326.00,1.2019
4325.00,1.2218
4324.00,1.2417
4323.00,1.2614
4322.00,1.2808
4321.00,1.3000
4320.00,1.3189
4319.00,1.3374
4318.00,1.3556
4317.00,1.3734
4316.00,1.3906
4315.00,1.4072
4314.00,1.4233
4313.00,1.4389
4312.00,1.4539
4311.00,1.4685
4310.00,1.4825
4309.00,1.4961
4308.00,1.5091
4307.00,1.5216
4306.00,1.5335
4305.00,1.5446
4304.00,1.5551
4303.00,1.5651
4302.00,1.5746
4301.00,1.5837
4300.00,1.5923
4299.00,1.6001
4298.00,1.6073
4297.00,1.6140
4296.00,1.6204
4295.00,1.6265
4294.00,1.6320
4293.00,1.6367
4292.00,1.6407
4291.00,1.6444
4290.00,1.6477
4289.00,1.6505
4288.00,1.6529
4287.00,1.6547
4286.00,1.6565
4285.00,1.6582
4284.00,1.6597
4283.00,1.6608
4282.00,1.6610
4281.00,1.6604
4280.00,1.6591
4279.00,1.6574
4278.00,1.6553
4277.00,1.6526
4276.00,1.6495
4275.00,1.6462
4274.00,1.6426
4273.00,1.6387
4272.00,1.6342
4271.00,1.6290
4270.00,1.6232
4269.00,1.6168
4268.00,1.6100
4267.00,1.6027
4266.00,1.5951
4265.00,1.5871
4264.00,1.5785
4263.00,1.5692
4262.00,1.5593
4261.00,1.5487
4260.00,1.5375
4259.00,1.5258
4258.00,1.5135
4257.00,1.5006
4256.00,1.4870
4255.00,1.4729
4254.00,1.4582
4253.00,1.4429
4252.00,1.4268
4251.00,1.4099
4250.00,1.3924
4249.00,1.3743
4248.00,1.3557
4247.00,1.3367
4246.00,1.3172
4245.00,1.2972
4244.00,1.2766
4243.00,1.2554
4242.00,1.2339
4241.00,1.2122
4240.00,1.1903
4239.00,1.1684
4238.00,1.1464
4237.00,1.1244
4236.00,1.1025
4235.00,1.0807
4234.00,1.0592
4233.00,1.0383
4232.00,1.0180
4231.00,0.9984
4230.00,0.9796
4229.00,0.9618
4228.00,0.9450
4227.00,0.9293
4226.00,0.9149
4225.00,0.9019
4224.00,0.8902
4223.00,0.8799
4222.00,0.8712
4221.00,0.8641
4220.00,0.8586
4219.00,0.8547
4218.00,0.8525
4217.00,0.8519
4216.00,0.8530
4215.00,0.8557
4214.00,0.8600
4213.00,0.8659
4212.00,0.8733
4211.00,0.8822
4210.00,0.8924
4209.00,0.9039
4208.00,0.9166
4207.00,0.9305
4206.00,0.9454
4205.00,0.9613
4204.00,0.9780
4203.00,0.9955
4202.00,1.0135
4201.00,1.0322
4200.00,1.0514
4199.00,1.0712
4198.00,1.0914
4197.00,1.1120
4196.00,1.1327
4195.00,1.1537
4194.00,1.1749
4193.00,1.1961
4192.00,1.2173
4191.00,1.2383
4190.00,1.2592
4189.00,1.2799
4188.00,1.3004
4187.00,1.3205
4186.00,1.3404
4185.00,1.3599
4184.00,1.3789
4183.00,1.3976
4182.00,1.4158
4181.00,1.4335
4180.00,1.4507
4179.00,1.4673
4178.00,1.4833
4177.00,1.4986
4176.00,1.5131
4175.00,1.5270
4174.00,1.5404
4173.00,1.5533
4172.00,1.5656
4171.00,1.5772
4170.00,1.5882
4169.00,1.5987
4168.00,1.6089
4167.00,1.6186
4166.00,1.6279
4165.00,1.6365
4164.00,1.6446
4163.00,1.6519
4162.00,1.6587
4161.00,1.6648
4160.00,1.6703
4159.00,1.6754
4158.00,1.6800
4157.00,1.6843
4156.00,1.6882
4155.00,1.6916
4154.00,1.6946
4153.00,1.6974
4152.00,1.6998
4151.00,1.7019
4150.00,1.7033
4149.00,1.7038
4148.00,1.7037
4147.00,1.7031
4146.00,1.7023
4145.00,1.7012
4144.00,1.6996
4143.00,1.6974
4142.00,1.6947
4141.00,1.6915
4140.00,1.6879
4139.00,1.6839
4138.00,1.6791
4137.00,1.6738
4136.00,1.6680
4135.00,1.6618
4134.00,1.6553
4133.00,1.6485
4132.00,1.6411
4131.00,1.6330
4130.00,1.6241
4129.00,1.6146
4128.00,1.6048
4127.00,1.5948
4126.00,1.5844
4125.00,1.5733
4124.00,1.5614
4123.00,1.5485
4122.00,1.5350
4121.00,1.5206
4120.00,1.5057
4119.00,1.4902
4118.00,1.4742
4117.00,1.4579
4116.00,1.4410
4115.00,1.4233
4114.00,1.4048
4113.00,1.3855
4112.00,1.3657
4111.00,1.3456
4110.00,1.3252
4109.00,1.3043
4108.00,1.2829
4107.00,1.2610
4106.00,1.2387
4105.00,1.2162
4104.00,1.1935
4103.00,1.1708
4102.00,1.1480
4101.00,1.1252
4100.00,1.1026
4099.00,1.0802
4098.00,1.0581
4097.00,1.0366
4096.00,1.0156
4095.00,0.9954
4094.00,0.9759
4093.00,0.9575
4092.00,0.9403
4091.00,0.9243
4090.00,0.9098
4089.00,0.8967
4088.00,0.8852
4087.00,0.8753
4086.00,0.8672
4085.00,0.8608
4084.00,0.8564
4083.00,0.8538
4082.00,0.8532
4081.00,0.8544
4080.00,0.8576
4079.00,0.8625
4078.00,0.8692
4077.00,0.8776
4076.00,0.8876
4075.00,0.8992
4074.00,0.9122
4073.00,0.9265
4072.00,0.9420
4071.00,0.9585
4070.00,0.9760
4069.00,0.9944
4068.00,1.0135
4067.00,1.0334
4066.00,1.0540
4065.00,1.0751
4064.00,1.0967
4063.00,1.1187
4062.00,1.1409
4061.00,1.1635
4060.00,1.1863
4059.00,1.2091
4058.00,1.2319
4057.00,1.2547
4056.00,1.2773
4055.00,1.2999
4054.00,1.3222
4053.00,1.3442
4052.00,1.3656
4051.00,1.3865
4050.00,1.4069
4049.00,1.4270
4048.00,1.4465
4047.00,1.4652
4046.00,1.4832
4045.00,1.5005
4044.00,1.5173
4043.00,1.5337
4042.00,1.5496
4041.00,1.5649
4040.00,1.5794
4039.00,1.5932
4038.00,1.6060
4037.00,1.6182
4036.00,1.6298
4035.00,1.6412
4034.00,1.6521
4033.00,1.6626
4032.00,1.6724
4031.00,1.6815
4030.00,1.6899
4029.00,1.6977
4028.00,1.7051
4027.00,1.7120
4026.00,1.7185
4025.00,1.7245
4024.00,1.7300
4023.00,1.7350
4022.00,1.7395
4021.00,1.7436
4020.00,1.7474
4019.00,1.7507
4018.00,1.7535
4017.00,1.7556
4016.00,1.7571
4015.00,1.7579
4014.00,1.7582
4013.00,1.7580
4012.00,1.7574
4011.00,1.7565
4010.00,1.7552
4009.00,1.7536
4008.00,1.7514
4007.00,1.7486
4006.00,1.7452
4005.00,1.7412
4004.00,1.7368
4003.00,1.7322
4002.00,1.7272
4001.00,1.7217
4000.00,1.7156
3999.00,1.7089
3998.00,1.7017
3997.00,1.6939
3996.00,1.6854
3995.00,1.6761
3994.00,1.6660
3993.00,1.6554
3992.00,1.6445
3991.00,1.6331
3990.00,1.6211
3989.00,1.6083
3988.00,1.5947
3987.00,1.5804
3986.00,1.5657
3985.00,1.5506
3984.00,1.5349
3983.00,1.5184
3982.00,1.5012
3981.00,1.4832
3980.00,1.4645
3979.00,1.4452
3978.00,1.4254
3977.00,1.4048
3976.00,1.3836
3975.00,1.3617
3974.00,1.3392
3973.00,1.3162
3972.00,1.2928
3971.00,1.2690
3970.00,1.2449
3969.00,1.2205
3968.00,1.1961
3967.00,1.1718
3966.00,1.1477
3965.00,1.1239
3964.00,1.1005
3963.00,1.0775
3962.00,1.0551
3961.00,1.0334
3960.00,1.0128
3959.00,0.9933
3958.00,0.9750
3957.00,0.9582
3956.00,0.9428
3955.00,0.9289
3954.00,0.9167
3953.00,0.9061
3952.00,0.8973
3951.00,0.8903
3950.00,0.8850
3949.00,0.8814
3948.00,0.8797
3947.00,0.8798
3946.00,0.8819
3945.00,0.8860
3944.00,0.8921
3943.00,0.9001
3942.00,0.9097
3941.00,0.9208
3940.00,0.9334
3939.00,0.9476
3938.00,0.9632
3937.00,0.9799
3936.00,0.9975
3935.00,1.0158
3934.00,1.0351
3933.00,1.0555
3932.00,1.0769
3931.00,1.0991
3930.00,1.1216
3929.00,1.1444
3928.00,1.1671
3927.00,1.1899
3926.00,1.2129
3925.00,1.2362
3924.00,1.2598
3923.00,1.2834
3922.00,1.3066
3921.00,1.3297
3920.00,1.3526
3919.00,1.3753
3918.00,1.3981
3917.00,1.4210
3916.00,1.4436
3915.00,1.4654
3914.00,1.4863
3913.00,1.5062
3912.00,1.5253
3911.00,1.5437
3910.00,1.5612
3909.00,1.5778
3908.00,1.5934
3907.00,1.6082
3906.00,1.6225
3905.00,1.6367
3904.00,1.6509
3903.00,1.6650
3902.00,1.6787
3901.00,1.6916
3900.00,1.7036
3899.00,1.7145
3898.00,1.7244
3897.00,1.7335
3896.00,1.7423
3895.00,1.7505
3894.00,1.7577
3893.00,1.7639
3892.00,1.7693
3891.00,1.7748
3890.00,1.7802
3889.00,1.7853
3888.00,1.7899
3887.00,1.7940
3886.00,1.7978
3885.00,1.8009
3884.00,1.8031
3883.00,1.8045
3882.00,1.8054
3881.00,1.8061
3880.00,1.8062
3879.00,1.8056
3878.00,1.8044
3877.00,1.8030
3876.00,1.8014
3875.00,1.7995
3874.00,1.7968
3873.00,1.7935
3872.00,1.7896
3871.00,1.7854
3870.00,1.7808
3869.00,1.7752
3868.00,1.7686
3867.00,1.7617
3866.00,1.7549
3865.00,1.7476
3864.00,1.7391
3863.00,1.7293
3862.00,1.7189
3861.00,1.7085
3860.00,1.6982
3859.00,1.6877
3858.00,1.6773
3857.00,1.6669
3856.00,1.6561
3855.00,1.6444
3854.00,1.6311
3853.00,1.6162
3852.00,1.5999
3851.00,1.5833
3850.00,1.5670
3849.00,1.5505
3848.00,1.5326
3847.00,1.5134
3846.00,1.4936
3845.00,1.4735
3844.00,1.4525
3843.00,1.4306
3842.00,1.4079
3841.00,1.3848
3840.00,1.3613
3839.00,1.3368
3838.00,1.3107
3837.00,1.2834
3836.00,1.2558
3835.00,1.2285
3834.00,1.2015
3833.00,1.1739
3832.00,1.1458
3831.00,1.1176
3830.00,1.0902
3829.00,1.0639
3828.00,1.0389
3827.00,1.0146
3826.00,0.9913
3825.00,0.9694
3824.00,0.9498
3823.00,0.9325
3822.00,0.9166
3821.00,0.9013
3820.00,0.8869
3819.00,0.8747
3818.00,0.8662
3817.00,0.8616
3816.00,0.8597
3815.00,0.8593
3814.00,0.8603
3813.00,0.8635
3812.00,0.8693
3811.00,0.8773
3810.00,0.8870
3809.00,0.8990
3808.00,0.9143
3807.00,0.9330
3806.00,0.9533
3805.00,0.9735
3804.00,0.9931
3803.00,1.0137
3802.00,1.0370
3801.00,1.0634
3800.00,1.0909
3799.00,1.1176
3798.00,1.1432
3797.00,1.1683
3796.00,1.1934
3795.00,1.2187
3794.00,1.2443
3793.00,1.2701
3792.00,1.2963
3791.00,1.3222
3790.00,1.3478
3789.00,1.3730
3788.00,1.3980
3787.00,1.4227
3786.00,1.4470
3785.00,1.4708
3784.00,1.4938
3783.00,1.5158
3782.00,1.5370
3781.00,1.5577
3780.00,1.5785
3779.00,1.5989
3778.00,1.6186
3777.00,1.6370
3776.00,1.6544
3775.00,1.6708
3774.00,1.6861
3773.00,1.7003
3772.00,1.7139
3771.00,1.7273
3770.00,1.7403
3769.00,1.7526
3768.00,1.7640
3767.00,1.7751
3766.00,1.7862
3765.00,1.7968
3764.00,1.8064
3763.00,1.8147
3762.00,1.8221
3761.00,1.8290
3760.00,1.8352
3759.00,1.8407
3758.00,1.8460
3757.00,1.8513
3756.00,1.8567
3755.00,1.8618
3754.00,1.8668
3753.00,1.8717
3752.00,1.8762
3751.00,1.8799
3750.00,1.8826
3749.00,1.8847
3748.00,1.8864
3747.00,1.8879
3746.00,1.8893
3745.00,1.8904
3744.00,1.8909
3743.00,1.8906
3742.00,1.8898
3741.00,1.8892
3740.00,1.8882
3739.00,1.8857
3738.00,1.8818
3737.00,1.8775
3736.00,1.8732
3735.00,1.8681
3734.00,1.8618
3733.00,1.8543
3732.00,1.8455
3731.00,1.8354
3730.00,1.8243
3729.00,1.8123
3728.00,1.7991
3727.00,1.7841
3726.00,1.7675
3725.00,1.7500
3724.00,1.7319
3723.00,1.7139
3722.00,1.6957
3721.00,1.6772
3720.00,1.6585
3719.00,1.6397
3718.00,1.6209
3717.00,1.6022
3716.00,1.5827
3715.00,1.5606
3714.00,1.5343
3713.00,1.5046
3712.00,1.4754
3711.00,1.4505
3710.00,1.4303
3709.00,1.4111
3708.00,1.3890
3707.00,1.3634
3706.00,1.3358
3705.00,1.3080
3704.00,1.2798
3703.00,1.2512
3702.00,1.2221
3701.00,1.1931
3700.00,1.1651
3699.00,1.1389
3698.00,1.1147
3697.00,1.0924
3696.00,1.0719
3695.00,1.0535
3694.00,1.0378
3693.00,1.0249
3692.00,1.0147
3691.00,1.0069
3690.00,1.0014
3689.00,0.9981
3688.00,0.9970
3687.00,0.9981
3686.00,1.0012
3685.00,1.0065
3684.00,1.0134
3683.00,1.0221
3682.00,1.0328
3681.00,1.0457
3680.00,1.0607
3679.00,1.0772
3678.00,1.0950
3677.00,1.1149
3676.00,1.1383
3675.00,1.1645
3674.00,1.1909
3673.00,1.2153
3672.00,1.2389
3671.00,1.2636
3670.00,1.2903
3669.00,1.3183
3668.00,1.3461
3667.00,1.3728
3666.00,1.3982
3665.00,1.4227
3664.00,1.4465
3663.00,1.4703
3662.00,1.4944
3661.00,1.5185
3660.00,1.5423
3659.00,1.5654
3658.00,1.5880
3657.00,1.6104
3656.00,1.6331
3655.00,1.6554
3654.00,1.6763
3653.00,1.6955
3652.00,1.7136
3651.00,1.7311
3650.00,1.7485
3649.00,1.7659
3648.00,1.7831
3647.00,1.7999
3646.00,1.8153
3645.00,1.8289
3644.00,1.8413
3643.00,1.8530
3642.00,1.8645
3641.00,1.8757
3640.00,1.8868
3639.00,1.8976
3638.00,1.9081
3637.00,1.9181
3636.00,1.9276
3635.00,1.9366
3634.00,1.9449
3633.00,1.9521
3632.00,1.9582
3631.00,1.9640
3630.00,1.9700
3629.00,1.9763
3628.00,1.9823
3627.00,1.9873
3626.00,1.9913
3625.00,1.9947
3624.00,1.9974
3623.00,1.9994
3622.00,2.0009
3621.00,2.0018
3620.00,2.0024
3619.00,2.0027
3618.00,2.0026
3617.00,2.0029
3616.00,2.0031
3615.00,2.0043
3614.00,2.0049
3613.00,2.0034
3612.00,2.0015
3611.00,1.9994
3610.00,1.9981
3609.00,1.9968
3608.00,1.9958
3607.00,1.9931
3606.00,1.9911
3605.00,1.9895
3604.00,1.9859
3603.00,1.9824
3602.00,1.9778
3601.00,1.9724
3600.00,1.9665
3599.00,1.9608
3598.00,1.9558
3597.00,1.9513
3596.00,1.9465
3595.00,1.9405
3594.00,1.9334
3593.00,1.9254
3592.00,1.9174
3591.00,1.9095
3590.00,1.9015
3589.00,1.8930
3588.00,1.8838
3587.00,1.8734
3586.00,1.8619
3585.00,1.8497
3584.00,1.8376
3583.00,1.8258
3582.00,1.8136
3581.00,1.8008
3580.00,1.7876
3579.00,1.7744
3578.00,1.7613
3577.00,1.7484
3576.00,1.7356
3575.00,1.7228
3574.00,1.7101
3573.00,1.6974
3572.00,1.6847
3571.00,1.6721
3570.00,1.6596
3569.00,1.6474
3568.00,1.6351
3567.00,1.6225
3566.00,1.6100
3565.00,1.5981
3564.00,1.5873
3563.00,1.5777
3562.00,1.5687
3561.00,1.5601
3560.00,1.5521
3559.00,1.5451
3558.00,1.5390
3557.00,1.5337
3556.00,1.5293
3555.00,1.5258
3554.00,1.5231
3553.00,1.5213
3552.00,1.5202
3551.00,1.5200
3550.00,1.5208
3549.00,1.5229
3548.00,1.5262
3547.00,1.5303
3546.00,1.5350
3545.00,1.5403
3544.00,1.5464
3543.00,1.5532
3542.00,1.5609
3541.00,1.5693
3540.00,1.5783
3539.00,1.5878
3538.00,1.5978
3537.00,1.6082
3536.00,1.6192
3535.00,1.6306
3534.00,1.6422
3533.00,1.6541
3532.00,1.6663
3531.00,1.6788
3530.00,1.6914
3529.00,1.7041
3528.00,1.7167
3527.00,1.7294
3526.00,1.7419
3525.00,1.7545
3524.00,1.7673
3523.00,1.7803
3522.00,1.7933
3521.00,1.8061
3520.00,1.8189
3519.00,1.8319
3518.00,1.8447
3517.00,1.8569
3516.00,1.8684
3515.00,1.8794
3514.00,1.8901
3513.00,1.9007
3512.00,1.9114
3511.00,1.9220
3510.00,1.9323
3509.00,1.9423
3508.00,1.9521
3507.00,1.9616
3506.00,1.9708
3505.00,1.9798
3504.00,1.9885
3503.00,1.9969
3502.00,2.0049
3501.00,2.0125
3500.00,2.0204
3499.00,2.0284
3498.00,2.0361
3497.00,2.0431
3496.00,2.0494
3495.00,2.0554
3494.00,2.0613
3493.00,2.0670
3492.00,2.0725
3491.00,2.0778
3490.00,2.0829
3489.00,2.0877
3488.00,2.0924
3487.00,2.0967
3486.00,2.1006
3485.00,2.1042
3484.00,2.1075
3483.00,2.1105
3482.00,2.1127
3481.00,2.1141
3480.00,2.1147
3479.00,2.1150
3478.00,2.1153
3477.00,2.1159
3476.00,2.1171
3475.00,2.1186
3474.00,2.1197
3473.00,2.1197
3472.00,2.1186
3471.00,2.1165
3470.00,2.1138
3469.00,2.1111
3468.00,2.1089
3467.00,2.1069
3466.00,2.1044
3465.00,2.1011
3464.00,2.0971
3463.00,2.0924
3462.00,2.0872
3461.00,2.0814
3460.00,2.0753
3459.00,2.0691
3458.00,2.0630
3457.00,2.0568
3456.00,2.0502
3455.00,2.0430
3454.00,2.0349
3453.00,2.0261
3452.00,2.0168
3451.00,2.0074
3450.00,1.9978
3449.00,1.9880
3448.00,1.9780
3447.00,1.9677
3446.00,1.9572
3445.00,1.9463
3444.00,1.9351
3443.00,1.9232
3442.00,1.9108
3441.00,1.8979
3440.00,1.8845
3439.00,1.8708
3438.00,1.8568
3437.00,1.8428
3436.00,1.8288
3435.00,1.8148
3434.00,1.8009
3433.00,1.7872
3432.00,1.7736
3431.00,1.7599
3430.00,1.7460
3429.00,1.7320
3428.00,1.7182
3427.00,1.7048
3426.00,1.6919
3425.00,1.6798
3424.00,1.6684
3423.00,1.6580
3422.00,1.6484
3421.00,1.6398
3420.00,1.6320
3419.00,1.6252
3418.00,1.6195
3417.00,1.6150
3416.00,1.6118
3415.00,1.6097
3414.00,1.6082
3413.00,1.6074
3412.00,1.6070
3411.00,1.6068
3410.00,1.6069
3409.00,1.6073
3408.00,1.6082
3407.00,1.6093
3406.00,1.6102
3405.00,1.6106
3404.00,1.6106
3403.00,1.6105
3402.00,1.6104
3401.00,1.6105
3400.00,1.6107
3399.00,1.6113
3398.00,1.6123
3397.00,1.6139
3396.00,1.6161
3395.00,1.6192
3394.00,1.6231
3393.00,1.6282
3392.00,1.6344
3391.00,1.6417
3390.00,1.6499
3389.00,1.6588
3388.00,1.6686
3387.00,1.6794
3386.00,1.6910
3385.00,1.7031
3384.00,1.7157
3383.00,1.7287
3382.00,1.7421
3381.00,1.7559
3380.00,1.7701
3379.00,1.7844
3378.00,1.7988
3377.00,1.8134
3376.00,1.8281
3375.00,1.8427
3374.00,1.8572
3373.00,1.8716
3372.00,1.8857
3371.00,1.8994
3370.00,1.9127
3369.00,1.9256
3368.00,1.9382
3367.00,1.9504
3366.00,1.9624
3365.00,1.9742
3364.00,1.9861
3363.00,1.9977
3362.00,2.0087
3361.00,2.0189
3360.00,2.0283
3359.00,2.0370
3358.00,2.0452
3357.00,2.0531
3356.00,2.0612
3355.00,2.0690
3354.00,2.0762
3353.00,2.0827
3352.00,2.0885
3351.00,2.0938
3350.00,2.0987
3349.00,2.1033
3348.00,2.1077
3347.00,2.1117
3346.00,2.1150
3345.00,2.1174
3344.00,2.1192
3343.00,2.1210
3342.00,2.1230
3341.00,2.1248
3340.00,2.1260
3339.00,2.1263
3338.00,2.1257
3337.00,2.1246
3336.00,2.1233
3335.00,2.1222
3334.00,2.1209
3333.00,2.1194
3332.00,2.1173
3331.00,2.1147
3330.00,2.1112
3329.00,2.1071
3328.00,2.1022
3327.00,2.0968
3326.00,2.0911
3325.00,2.0851
3324.00,2.0789
3323.00,2.0723
3322.00,2.0654
3321.00,2.0581
3320.00,2.0503
3319.00,2.0419
3318.00,2.0325
3317.00,2.0225
3316.00,2.0123
3315.00,2.0018
3314.00,1.9908
3313.00,1.9791
3312.00,1.9666
3311.00,1.9535
3310.00,1.9400
3309.00,1.9260
3308.00,1.9116
3307.00,1.8967
3306.00,1.8814
3305.00,1.8655
3304.00,1.8492
3303.00,1.8327
3302.00,1.8160
3301.00,1.7991
3300.00,1.7818
3299.00,1.7640
3298.00,1.7457
3297.00,1.7273
3296.00,1.7089
3295.00,1.6905
3294.00,1.6723
3293.00,1.6541
3292.00,1.6360
3291.00,1.6181
3290.00,1.6006
3289.00,1.5837
3288.00,1.5676
3287.00,1.5522
3286.00,1.5375
3285.00,1.5237
3284.00,1.5109
3283.00,1.4994
3282.00,1.4892
3281.00,1.4804
3280.00,1.4730
3279.00,1.4671
3278.00,1.4626
3277.00,1.4595
3276.00,1.4577
3275.00,1.4573
3274.00,1.4586
3273.00,1.4616
3272.00,1.4663
3271.00,1.4724
3270.00,1.4798
3269.00,1.4883
3268.00,1.4983
3267.00,1.5094
3266.00,1.5217
3265.00,1.5349
3264.00,1.5489
3263.00,1.5638
3262.00,1.5794
3261.00,1.5958
3260.00,1.6127
3259.00,1.6300
3258.00,1.6476
3257.00,1.6655
3256.00,1.6837
3255.00,1.7021
3254.00,1.7206
3253.00,1.7392
3252.00,1.7580
3251.00,1.7766
3250.00,1.7950
3249.00,1.8129
3248.00,1.8306
3247.00,1.8480
3246.00,1.8651
3245.00,1.8819
3244.00,1.8983
3243.00,1.9145
3242.00,1.9305
3241.00,1.9461
3240.00,1.9612
3239.00,1.9755
3238.00,1.9892
3237.00,2.0027
3236.00,2.0161
3235.00,2.0291
3234.00,2.0415
3233.00,2.0529
3232.00,2.0632
3231.00,2.0726
3230.00,2.0816
3229.00,2.0907
3228.00,2.1001
3227.00,2.1096
3226.00,2.1189
3225.00,2.1274
3224.00,2.1350
3223.00,2.1414
3222.00,2.1472
3221.00,2.1528
3220.00,2.1581
3219.00,2.1627
3218.00,2.1666
3217.00,2.1700
3216.00,2.1731
3215.00,2.1760
3214.00,2.1786
3213.00,2.1811
3212.00,2.1836
3211.00,2.1857
3210.00,2.1872
3209.00,2.1881
3208.00,2.1884
3207.00,2.1880
3206.00,2.1870
3205.00,2.1858
3204.00,2.1848
3203.00,2.1839
3202.00,2.1824
3201.00,2.1798
3200.00,2.1763
3199.00,2.1724
3198.00,2.1687
3197.00,2.1654
3196.00,2.1620
3195.00,2.1581
3194.00,2.1533
3193.00,2.1480
3192.00,2.1424
3191.00,2.1362
3190.00,2.1291
3189.00,2.1211
3188.00,2.1127
3187.00,2.1042
3186.00,2.0956
3185.00,2.0866
3184.00,2.0768
3183.00,2.0664
3182.00,2.0558
3181.00,2.0449
3180.00,2.0336
3179.00,2.0216
3178.00,2.0090
3177.00,1.9960
3176.00,1.9830
3175.00,1.9697
3174.00,1.9555
3173.00,1.9403
3172.00,1.9243
3171.00,1.9080
3170.00,1.8914
3169.00,1.8746
3168.00,1.8574
3167.00,1.8399
3166.00,1.8222
3165.00,1.8044
3164.00,1.7865
3163.00,1.7685
3162.00,1.7505
3161.00,1.7327
3160.00,1.7151
3159.00,1.6979
3158.00,1.6811
3157.00,1.6647
3156.00,1.6487
3155.00,1.6333
3154.00,1.6187
3153.00,1.6050
3152.00,1.5924
3151.00,1.5810
3150.00,1.5709
3149.00,1.5621
3148.00,1.5546
3147.00,1.5485
3146.00,1.5438
3145.00,1.5407
3144.00,1.5393
3143.00,1.5396
3142.00,1.5416
3141.00,1.5452
3140.00,1.5504
3139.00,1.5571
3138.00,1.5651
3137.00,1.5744
3136.00,1.5850
3135.00,1.5968
3134.00,1.6099
3133.00,1.6240
3132.00,1.6392
3131.00,1.6552
3130.00,1.6718
3129.00,1.6891
3128.00,1.7070
3127.00,1.7254
3126.00,1.7442
3125.00,1.7633
3124.00,1.7823
3123.00,1.8016
3122.00,1.8212
3121.00,1.8411
3120.00,1.8610
3119.00,1.8805
3118.00,1.8994
3117.00,1.9175
3116.00,1.9352
3115.00,1.9527
3114.00,1.9701
3113.00,1.9873
3112.00,2.0041
3111.00,2.0202
3110.00,2.0356
3109.00,2.0507
3108.00,2.0655
3107.00,2.0797
3106.00,2.0931
3105.00,2.1059
3104.00,2.1184
3103.00,2.1305
3102.00,2.1421
3101.00,2.1529
3100.00,2.1629
3099.00,2.1722
3098.00,2.1810
3097.00,2.1898
3096.00,2.1985
3095.00,2.2071
3094.00,2.2149
3093.00,2.2218
3092.00,2.2277
3091.00,2.2329
3090.00,2.2376
3089.00,2.2422
3088.00,2.2466
3087.00,2.2506
3086.00,2.2540
3085.00,2.2565
3084.00,2.2580
3083.00,2.2586
3082.00,2.2590
3081.00,2.2597
3080.00,2.2607
3079.00,2.2612
3078.00,2.2605
3077.00,2.2584
3076.00,2.2551
3075.00,2.2513
3074.00,2.2473
3073.00,2.2434
3072.00,2.2395
3071.00,2.2354
3070.00,2.2306
3069.00,2.2251
3068.00,2.2183
3067.00,2.2103
3066.00,2.2015
3065.00,2.1924
3064.00,2.1831
3063.00,2.1731
3062.00,2.1624
3061.00,2.1515
3060.00,2.1404
3059.00,2.1285
3058.00,2.1158
3057.00,2.1023
3056.00,2.0885
3055.00,2.0741
3054.00,2.0589
3053.00,2.0427
3052.00,2.0255
3051.00,2.0075
3050.00,1.9888
3049.00,1.9694
3048.00,1.9495
3047.00,1.9290
3046.00,1.9079
3045.00,1.8863
3044.00,1.8646
3043.00,1.8430
3042.00,1.8214
3041.00,1.8000
3040.00,1.7790
3039.00,1.7588
3038.00,1.7394
3037.00,1.7210
3036.00,1.7037
3035.00,1.6881
3034.00,1.6744
3033.00,1.6629
3032.00,1.6538
3031.00,1.6470
3030.00,1.6427
3029.00,1.6411
3028.00,1.6423
3027.00,1.6460
3026.00,1.6522
3025.00,1.6609
3024.00,1.6719
3023.00,1.6853
3022.00,1.7010
3021.00,1.7185
3020.00,1.7379
3019.00,1.7590
3018.00,1.7819
3017.00,1.8062
3016.00,1.8316
3015.00,1.8577
3014.00,1.8845
3013.00,1.9118
3012.00,1.9394
3011.00,1.9670
3010.00,1.9944
3009.00,2.0219
3008.00,2.0493
3007.00,2.0763
3006.00,2.1022
3005.00,2.1272
3004.00,2.1515
3003.00,2.1749
3002.00,2.1977
3001.00,2.2200
3000.00,2.2416
2999.00,2.2621
2998.00,2.2810
2997.00,2.2984
2996.00,2.3146
2995.00,2.3296
2994.00,2.3433
2993.00,2.3560
2992.00,2.3684
2991.00,2.3805
2990.00,2.3914
2989.00,2.4006
2988.00,2.4081
2987.00,2.4146
2986.00,2.4207
2985.00,2.4265
2984.00,2.4323
2983.00,2.4391
2982.00,2.4478
2981.00,2.4593
2980.00,2.4737
2979.00,2.4913
2978.00,2.5131
2977.00,2.5403
2976.00,2.5736
2975.00,2.6135
2974.00,2.6606
2973.00,2.7150
2972.00,2.7757
2971.00,2.8414
2970.00,2.9120
2969.00,2.9891
2968.00,3.0749
2967.00,3.1697
2966.00,3.2709
2965.00,3.3737
2964.00,3.4719
2963.00,3.5638
2962.00,3.6565
2961.00,3.7560
2960.00,3.8478
2959.00,3.9049
2958.00,3.9362
2957.00,3.9861
2956.00,4.0790
2955.00,4.1976
2954.00,4.3136
2953.00,4.4617
2952.00,4.7619
2951.00,5.3476
2950.00,5.6887
2949.00,5.1829
2948.00,4.7878
2947.00,4.5414
2946.00,4.3171
2945.00,4.2118
2944.00,4.2338
2943.00,4.4150
2942.00,4.6030
2941.00,4.5069
2940.00,4.3476
2939.00,4.2654
2938.00,4.2372
2937.00,4.1989
2936.00,4.1871
2935.00,4.2178
2934.00,4.2951
2933.00,4.4098
2932.00,4.5292
2931.00,4.7011
2930.00,5.0936
2929.00,5.3071
2928.00,5.0030
2927.00,4.6191
2926.00,4.3946
2925.00,4.2100
2924.00,4.0803
2923.00,4.0071
2922.00,3.9582
2921.00,3.9044
2920.00,3.8323
2919.00,3.7484
2918.00,3.6678
2917.00,3.5942
2916.00,3.5236
2915.00,3.4505
2914.00,3.3759
2913.00,3.3088
2912.00,3.2551
2911.00,3.2129
2910.00,3.1768
2909.00,3.1439
2908.00,3.1141
2907.00,3.0881
2906.00,3.0663
2905.00,3.0478
2904.00,3.0296
2903.00,3.0090
2902.00,2.9860
2901.00,2.9641
2900.00,2.9467
2899.00,2.9337
2898.00,2.9228
2897.00,2.9126
2896.00,2.9032
2895.00,2.8947
2894.00,2.8859
2893.00,2.8768
2892.00,2.8681
2891.00,2.8606
2890.00,2.8539
2889.00,2.8474
2888.00,2.8413
2887.00,2.8364
2886.00,2.8338
2885.00,2.8344
2884.00,2.8397
2883.00,2.8505
2882.00,2.8657
2881.00,2.8831
2880.00,2.9015
2879.00,2.9213
2878.00,2.9445
2877.00,2.9724
2876.00,3.0065
2875.00,3.0479
2874.00,3.0966
2873.00,3.1517
2872.00,3.2131
2871.00,3.2826
2870.00,3.3617
2869.00,3.4446
2868.00,3.5180
2867.00,3.5747
2866.00,3.6271
2865.00,3.6959
2864.00,3.7799
2863.00,3.8359
2862.00,3.8221
2861.00,3.7606
2860.00,3.6865
2859.00,3.6042
2858.00,3.5106
2857.00,3.4142
2856.00,3.3236
2855.00,3.2405
2854.00,3.1623
2853.00,3.0857
2852.00,3.0093
2851.00,2.9352
2850.00,2.8672
2849.00,2.8073
2848.00,2.7549
2847.00,2.7080
2846.00,2.6657
2845.00,2.6284
2844.00,2.5961
2843.00,2.5675
2842.00,2.5409
2841.00,2.5151
2840.00,2.4895
2839.00,2.4637
2838.00,2.4376
2837.00,2.4119
2836.00,2.3871
2835.00,2.3626
2834.00,2.3377
2833.00,2.3121
2832.00,2.2866
2831.00,2.2617
2830.00,2.2374
2829.00,2.2126
2828.00,2.1868
2827.00,2.1600
2826.00,2.1322
2825.00,2.1028
2824.00,2.0715
2823.00,2.0379
2822.00,2.0024
2821.00,1.9655
2820.00,1.9278
2819.00,1.8898
2818.00,1.8524
2817.00,1.8162
2816.00,1.7822
2815.00,1.7508
2814.00,1.7226
2813.00,1.6985
2812.00,1.6789
2811.00,1.6642
2810.00,1.6547
2809.00,1.6504
2808.00,1.6510
2807.00,1.6563
2806.00,1.6659
2805.00,1.6796
2804.00,1.6971
2803.00,1.7181
2802.00,1.7419
2801.00,1.7680
2800.00,1.7956
2799.00,1.8240
2798.00,1.8522
2797.00,1.8797
2796.00,1.9060
2795.00,1.9310
2794.00,1.9548
2793.00,1.9779
2792.00,2.0009
2791.00,2.0241
2790.00,2.0474
2789.00,2.0707
2788.00,2.0939
2787.00,2.1169
2786.00,2.1395
2785.00,2.1613
2784.00,2.1820
2783.00,2.2016
2782.00,2.2201
2781.00,2.2378
2780.00,2.2549
2779.00,2.2712
2778.00,2.2863
2777.00,2.3002
2776.00,2.3128
2775.00,2.3243
2774.00,2.3346
2773.00,2.3441
2772.00,2.3534
2771.00,2.3624
2770.00,2.3707
2769.00,2.3778
2768.00,2.3838
2767.00,2.3890
2766.00,2.3938
2765.00,2.3987
2764.00,2.4038
2763.00,2.4087
2762.00,2.4126
2761.00,2.4150
2760.00,2.4161
2759.00,2.4163
2758.00,2.4159
2757.00,2.4148
2756.00,2.4128
2755.00,2.4101
2754.00,2.4067
2753.00,2.4030
2752.00,2.3987
2751.00,2.3939
2750.00,2.3884
2749.00,2.3820
2748.00,2.3748
2747.00,2.3669
2746.00,2.3586
2745.00,2.3501
2744.00,2.3409
2743.00,2.3309
2742.00,2.3199
2741.00,2.3083
2740.00,2.2961
2739.00,2.2831
2738.00,2.2690
2737.00,2.2538
2736.00,2.2375
2735.00,2.2203
2734.00,2.2023
2733.00,2.1835
2732.00,2.1638
2731.00,2.1431
2730.00,2.1213
2729.00,2.0986
2728.00,2.0748
2727.00,2.0495
2726.00,2.0227
2725.00,1.9945
2724.00,1.9651
2723.00,1.9347
2722.00,1.9033
2721.00,1.8710
2720.00,1.8378
2719.00,1.8035
2718.00,1.7683
2717.00,1.7324
2716.00,1.6962
2715.00,1.6599
2714.00,1.6237
2713.00,1.5883
2712.00,1.5541
2711.00,1.5214
2710.00,1.4906
2709.00,1.4621
2708.00,1.4366
2707.00,1.4144
2706.00,1.3960
2705.00,1.3816
2704.00,1.3715
2703.00,1.3660
2702.00,1.3651
2701.00,1.3689
2700.00,1.3773
2699.00,1.3900
2698.00,1.4066
2697.00,1.4268
2696.00,1.4501
2695.00,1.4764
2694.00,1.5052
2693.00,1.5360
2692.00,1.5684
2691.00,1.6023
2690.00,1.6372
2689.00,1.6732
2688.00,1.7100
2687.00,1.7475
2686.00,1.7851
2685.00,1.8226
2684.00,1.8596
2683.00,1.8960
2682.00,1.9312
2681.00,1.9648
2680.00,1.9963
2679.00,2.0254
2678.00,2.0522
2677.00,2.0771
2676.00,2.1007
2675.00,2.1234
2674.00,2.1450
2673.00,2.1649
2672.00,2.1828
2671.00,2.1987
2670.00,2.2133
2669.00,2.2272
2668.00,2.2406
2667.00,2.2538
2666.00,2.2672
2665.00,2.2811
2664.00,2.2955
2663.00,2.3099
2662.00,2.3241
2661.00,2.3375
2660.00,2.3500
2659.00,2.3617
2658.00,2.3731
2657.00,2.3846
2656.00,2.3962
2655.00,2.4077
2654.00,2.4185
2653.00,2.4281
2652.00,2.4364
2651.00,2.4438
2650.00,2.4509
2649.00,2.4578
2648.00,2.4636
2647.00,2.4674
2646.00,2.4697
2645.00,2.4717
2644.00,2.4742
2643.00,2.4770
2642.00,2.4800
2641.00,2.4830
2640.00,2.4857
2639.00,2.4879
2638.00,2.4899
2637.00,2.4916
2636.00,2.4929
2635.00,2.4929
2634.00,2.4916
2633.00,2.4898
2632.00,2.4881
2631.00,2.4862
2630.00,2.4833
2629.00,2.4797
2628.00,2.4758
2627.00,2.4719
2626.00,2.4678
2625.00,2.4632
2624.00,2.4579
2623.00,2.4513
2622.00,2.4431
2621.00,2.4339
2620.00,2.4245
2619.00,2.4156
2618.00,2.4076
2617.00,2.4003
2616.00,2.3927
2615.00,2.3834
2614.00,2.3723
2613.00,2.3603
2612.00,2.3481
2611.00,2.3356
2610.00,2.3222
2609.00,2.3076
2608.00,2.2920
2607.00,2.2755
2606.00,2.2578
2605.00,2.2390
2604.00,2.2189
2603.00,2.1978
2602.00,2.1757
2601.00,2.1528
2600.00,2.1288
2599.00,2.1030
2598.00,2.0754
2597.00,2.0463
2596.00,2.0160
2595.00,1.9847
2594.00,1.9524
2593.00,1.9192
2592.00,1.8852
2591.00,1.8504
2590.00,1.8148
2589.00,1.7787
2588.00,1.7424
2587.00,1.7061
2586.00,1.6700
2585.00,1.6342
2584.00,1.5990
2583.00,1.5647
2582.00,1.5321
2581.00,1.5016
2580.00,1.4737
2579.00,1.4489
2578.00,1.4273
2577.00,1.4093
2576.00,1.3952
2575.00,1.3853
2574.00,1.3796
2573.00,1.3782
2572.00,1.3811
2571.00,1.3882
2570.00,1.3993
2569.00,1.4140
2568.00,1.4320
2567.00,1.4530
2566.00,1.4764
2565.00,1.5020
2564.00,1.5297
2563.00,1.5594
2562.00,1.5907
2561.00,1.6235
2560.00,1.6573
2559.00,1.6921
2558.00,1.7276
2557.00,1.7635
2556.00,1.7997
2555.00,1.8358
2554.00,1.8717
2553.00,1.9071
2552.00,1.9416
2551.00,1.9751
2550.00,2.0075
2549.00,2.0392
2548.00,2.0699
2547.00,2.0996
2546.00,2.1278
2545.00,2.1542
2544.00,2.1792
2543.00,2.2033
2542.00,2.2270
2541.00,2.2502
2540.00,2.2724
2539.00,2.2929
2538.00,2.3116
2537.00,2.3288
2536.00,2.3450
2535.00,2.3608
2534.00,2.3765
2533.00,2.3922
2532.00,2.4074
2531.00,2.4216
2530.00,2.4347
2529.00,2.4469
2528.00,2.4588
2527.00,2.4704
2526.00,2.4815
2525.00,2.4915
2524.00,2.5001
2523.00,2.5076
2522.00,2.5146
2521.00,2.5217
2520.00,2.5290
2519.00,2.5364
2518.00,2.5433
2517.00,2.5494
2516.00,2.5541
2515.00,2.5575
2514.00,2.5596
2513.00,2.5605
2512.00,2.5606
2511.00,2.5611
2510.00,2.5629
2509.00,2.5660
2508.00,2.5693
2507.00,2.5717
2506.00,2.5731
2505.00,2.5741
2504.00,2.5748
2503.00,2.5744
2502.00,2.5727
2501.00,2.5702
2500.00,2.5675
2499.00,2.5649
2498.00,2.5621
2497.00,2.5586
2496.00,2.5534
2495.00,2.5460
2494.00,2.5374
2493.00,2.5290
2492.00,2.5217
2491.00,2.5149
2490.00,2.5076
2489.00,2.4994
2488.00,2.4904
2487.00,2.4804
2486.00,2.4693
2485.00,2.4572
2484.00,2.4445
2483.00,2.4314
2482.00,2.4175
2481.00,2.4030
2480.00,2.3881
2479.00,2.3729
2478.00,2.3570
2477.00,2.3396
2476.00,2.3205
2475.00,2.3003
2474.00,2.2793
2473.00,2.2576
2472.00,2.2350
2471.00,2.2112
2470.00,2.1864
2469.00,2.1607
2468.00,2.1341
2467.00,2.1062
2466.00,2.0764
2465.00,2.0449
2464.00,2.0116
2463.00,1.9769
2462.00,1.9408
2461.00,1.9033
2460.00,1.8642
2459.00,1.8237
2458.00,1.7821
2457.00,1.7397
2456.00,1.6971
2455.00,1.6544
2454.00,1.6122
2453.00,1.5710
2452.00,1.5312
2451.00,1.4933
2450.00,1.4577
2449.00,1.4250
2448.00,1.3958
2447.00,1.3705
2446.00,1.3497
2445.00,1.3340
2444.00,1.3239
2443.00,1.3196
2442.00,1.3211
2441.00,1.3285
2440.00,1.3415
2439.00,1.3596
2438.00,1.3823
2437.00,1.4093
2436.00,1.4400
2435.00,1.4737
2434.00,1.5101
2433.00,1.5486
2432.00,1.5887
2431.00,1.6301
2430.00,1.6721
2429.00,1.7146
2428.00,1.7572
2427.00,1.7996
2426.00,1.8413
2425.00,1.8821
2424.00,1.9218
2423.00,1.9602
2422.00,1.9974
2421.00,2.0332
2420.00,2.0679
2419.00,2.1011
2418.00,2.1327
2417.00,2.1627
2416.00,2.1914
2415.00,2.2186
2414.00,2.2443
2413.00,2.2688
2412.00,2.2926
2411.00,2.3161
2410.00,2.3389
2409.00,2.3606
2408.00,2.3812
2407.00,2.4005
2406.00,2.4186
2405.00,2.4358
2404.00,2.4527
2403.00,2.4693
2402.00,2.4852
2401.00,2.4991
2400.00,2.5108
2399.00,2.5213
2398.00,2.5326
2397.00,2.5453
2396.00,2.5585
2395.00,2.5709
2394.00,2.5819
2393.00,2.5926
2392.00,2.6025
2391.00,2.6130
2390.00,2.6210
2389.00,2.6254
2388.00,2.6317
2387.00,2.6360
2386.00,2.6396
2385.00,2.6424
2384.00,2.6456
2383.00,2.6492
2382.00,2.6529
2381.00,2.6562
2380.00,2.6587
2379.00,2.6603
2378.00,2.6612
2377.00,2.6617
2376.00,2.6619
2375.00,2.6622
2374.00,2.6634
2373.00,2.6657
2372.00,2.6678
2371.00,2.6686
2370.00,2.6680
2369.00,2.6670
2368.00,2.6655
2367.00,2.6626
2366.00,2.6580
2365.00,2.6526
2364.00,2.6468
2363.00,2.6400
2362.00,2.6316
2361.00,2.6223
2360.00,2.6130
2359.00,2.6039
2358.00,2.5946
2357.00,2.5844
2356.00,2.5730
2355.00,2.5600
2354.00,2.5462
2353.00,2.5320
2352.00,2.5178
2351.00,2.5035
2350.00,2.4896
2349.00,2.4766
2348.00,2.4636
2347.00,2.4490
2346.00,2.4323
2345.00,2.4136
2344.00,2.3936
2343.00,2.3724
2342.00,2.3502
2341.00,2.3280
2340.00,2.3033
2339.00,2.2838
2338.00,2.2518
2337.00,2.2396
2336.00,2.1902
2335.00,2.2022
2334.00,2.0728
2333.00,1.9389
2332.00,1.9810
2331.00,1.9967
2330.00,2.0418
2329.00,2.0525
2328.00,2.0501
2327.00,2.0173
2326.00,1.9767
2325.00,1.9411
2324.00,1.9214
2323.00,1.9259
2322.00,1.9307
2321.00,1.9300
2320.00,1.9124
2319.00,1.8857
2318.00,1.8526
2317.00,1.8148
2316.00,1.7818
2315.00,1.7615
2314.00,1.7680
2313.00,1.7961
2312.00,1.8391
2311.00,1.8806
2310.00,1.9147
2309.00,1.9391
2308.00,1.9574
2307.00,1.9725
2306.00,1.9853
2305.00,1.9960
2304.00,2.0049
2303.00,2.0141
2302.00,2.0260
2301.00,2.0412
2300.00,2.0602
2299.00,2.0797
2298.00,2.0996
2297.00,2.1183
2296.00,2.1379
2295.00,2.1569
2294.00,2.1765
2293.00,2.1955
2292.00,2.2142
2291.00,2.2329
2290.00,2.2517
2289.00,2.2713
2288.00,2.2913
2287.00,2.3117
2286.00,2.3314
2285.00,2.3508
2284.00,2.3693
2283.00,2.3877
2282.00,2.4061
2281.00,2.4253
2280.00,2.4449
2279.00,2.4639
2278.00,2.4814
2277.00,2.4978
2276.00,2.5135
2275.00,2.5280
2274.00,2.5415
2273.00,2.5545
2272.00,2.5685
2271.00,2.5831
2270.00,2.5973
2269.00,2.6105
2268.00,2.6233
2267.00,2.6369
2266.00,2.6514
2265.00,2.6656
2264.00,2.6787
2263.00,2.6895
2262.00,2.6981
2261.00,2.7053
2260.00,2.7122
2259.00,2.7199
2258.00,2.7276
2257.00,2.7346
2256.00,2.7400
2255.00,2.7436
2254.00,2.7462
2253.00,2.7488
2252.00,2.7520
2251.00,2.7548
2250.00,2.7569
2249.00,2.7589
2248.00,2.7623
2247.00,2.7669
2246.00,2.7709
2245.00,2.7727
2244.00,2.7722
2243.00,2.7705
2242.00,2.7683
2241.00,2.7658
2240.00,2.7638
2239.00,2.7624
2238.00,2.7604
2237.00,2.7560
2236.00,2.7485
2235.00,2.7395
2234.00,2.7311
2233.00,2.7245
2232.00,2.7188
2231.00,2.7129
2230.00,2.7062
2229.00,2.6988
2228.00,2.6908
2227.00,2.6817
2226.00,2.6715
2225.00,2.6613
2224.00,2.6519
2223.00,2.6431
2222.00,2.6333
2221.00,2.6217
2220.00,2.6083
2219.00,2.5937
2218.00,2.5782
2217.00,2.5616
2216.00,2.5436
2215.00,2.5246
2214.00,2.5049
2213.00,2.4852
2212.00,2.4657
2211.00,2.4456
2210.00,2.4238
2209.00,2.4001
2208.00,2.3746
2207.00,2.3481
2206.00,2.3204
2205.00,2.2915
2204.00,2.2611
2203.00,2.2293
2202.00,2.1959
2201.00,2.1605
2200.00,2.1228
2199.00,2.0829
2198.00,2.0409
2197.00,1.9971
2196.00,1.9516
2195.00,1.9045
2194.00,1.8565
2193.00,1.8082
2192.00,1.7603
2191.00,1.7135
2190.00,1.6686
2189.00,1.6262
2188.00,1.5873
2187.00,1.5525
2186.00,1.5225
2185.00,1.4980
2184.00,1.4794
2183.00,1.4672
2182.00,1.4617
2181.00,1.4629
2180.00,1.4707
2179.00,1.4843
2178.00,1.5029
2177.00,1.5253
2176.00,1.5506
2175.00,1.5782
2174.00,1.6076
2173.00,1.6389
2172.00,1.6722
2171.00,1.7074
2170.00,1.7445
2169.00,1.7837
2168.00,1.8246
2167.00,1.8668
2166.00,1.9097
2165.00,1.9532
2164.00,1.9968
2163.00,2.0401
2162.00,2.0826
2161.00,2.1242
2160.00,2.1647
2159.00,2.2037
2158.00,2.2409
2157.00,2.2765
2156.00,2.3105
2155.00,2.3432
2154.00,2.3744
2153.00,2.4040
2152.00,2.4320
2151.00,2.4583
2150.00,2.4835
2149.00,2.5087
2148.00,2.5338
2147.00,2.5570
2146.00,2.5771
2145.00,2.5949
2144.00,2.6122
2143.00,2.6297
2142.00,2.6462
2141.00,2.6607
2140.00,2.6736
2139.00,2.6858
2138.00,2.6982
2137.00,2.7108
2136.00,2.7229
2135.00,2.7342
2134.00,2.7450
2133.00,2.7559
2132.00,2.7678
2131.00,2.7805
2130.00,2.7923
2129.00,2.8017
2128.00,2.8079
2127.00,2.8119
2126.00,2.8161
2125.00,2.8220
2124.00,2.8291
2123.00,2.8353
2122.00,2.8393
2121.00,2.8411
2120.00,2.8421
2119.00,2.8436
2118.00,2.8467
2117.00,2.8509
2116.00,2.8548
2115.00,2.8567
2114.00,2.8567
2113.00,2.8569
2112.00,2.8578
2111.00,2.8578
2110.00,2.8545
2109.00,2.8484
2108.00,2.8421
2107.00,2.8377
2106.00,2.8356
2105.00,2.8348
2104.00,2.8337
2103.00,2.8307
2102.00,2.8253
2101.00,2.8188
2100.00,2.8126
2099.00,2.8064
2098.00,2.7986
2097.00,2.7885
2096.00,2.7774
2095.00,2.7668
2094.00,2.7571
2093.00,2.7474
2092.00,2.7370
2091.00,2.7254
2090.00,2.7123
2089.00,2.6977
2088.00,2.6826
2087.00,2.6683
2086.00,2.6550
2085.00,2.6413
2084.00,2.6256
2083.00,2.6075
2082.00,2.5871
2081.00,2.5647
2080.00,2.5404
2079.00,2.5150
2078.00,2.4892
2077.00,2.4630
2076.00,2.4357
2075.00,2.4066
2074.00,2.3757
2073.00,2.3437
2072.00,2.3112
2071.00,2.2777
2070.00,2.2432
2069.00,2.2074
2068.00,2.1705
2067.00,2.1321
2066.00,2.0922
2065.00,2.0511
2064.00,2.0093
2063.00,1.9676
2062.00,1.9260
2061.00,1.8836
2060.00,1.8395
2059.00,1.7936
2058.00,1.7470
2057.00,1.7012
2056.00,1.6573
2055.00,1.6161
2054.00,1.5791
2053.00,1.5475
2052.00,1.5228
2051.00,1.5058
2050.00,1.4971
2049.00,1.4972
2048.00,1.5060
2047.00,1.5230
2046.00,1.5474
2045.00,1.5784
2044.00,1.6148
2043.00,1.6554
2042.00,1.6991
2041.00,1.7453
2040.00,1.7942
2039.00,1.8457
2038.00,1.8989
2037.00,1.9525
2036.00,2.0054
2035.00,2.0566
2034.00,2.1060
2033.00,2.1537
2032.00,2.1995
2031.00,2.2429
2030.00,2.2837
2029.00,2.3222
2028.00,2.3594
2027.00,2.3951
2026.00,2.4292
2025.00,2.4617
2024.00,2.4927
2023.00,2.5219
2022.00,2.5493
2021.00,2.5750
2020.00,2.5988
2019.00,2.6197
2018.00,2.6375
2017.00,2.6538
2016.00,2.6716
2015.00,2.6920
2014.00,2.7141
2013.00,2.7359
2012.00,2.7561
2011.00,2.7737
2010.00,2.7888
2009.00,2.8023
2008.00,2.8153
2007.00,2.8273
2006.00,2.8375
2005.00,2.8462
2004.00,2.8547
2003.00,2.8641
2002.00,2.8745
2001.00,2.8856
2000.00,2.8964
1999.00,2.9054
1998.00,2.9115
1997.00,2.9155
1996.00,2.9187
1995.00,2.9217
1994.00,2.9245
1993.00,2.9274
1992.00,2.9308
1991.00,2.9351
1990.00,2.9399
1989.00,2.9439
1988.00,2.9449
1987.00,2.9423
1986.00,2.9390
1985.00,2.9398
1984.00,2.9455
1983.00,2.9522
1982.00,2.9549
1981.00,2.9520
1980.00,2.9459
1979.00,2.9393
1978.00,2.9342
1977.00,2.9326
1976.00,2.9348
1975.00,2.9380
1974.00,2.9379
1973.00,2.9326
1972.00,2.9234
1971.00,2.9134
1970.00,2.9052
1969.00,2.8991
1968.00,2.8927
1967.00,2.8820
1966.00,2.8663
1965.00,2.8496
1964.00,2.8360
1963.00,2.8254
1962.00,2.8151
1961.00,2.8031
1960.00,2.7898
1959.00,2.7760
1958.00,2.7619
1957.00,2.7464
1956.00,2.7285
1955.00,2.7080
1954.00,2.6859
1953.00,2.6632
1952.00,2.6400
1951.00,2.6155
1950.00,2.5894
1949.00,2.5623
1948.00,2.5344
1947.00,2.5053
1946.00,2.4739
1945.00,2.4402
1944.00,2.4036
1943.00,2.3635
1942.00,2.3205
1941.00,2.2767
1940.00,2.2343
1939.00,2.1922
1938.00,2.1481
1937.00,2.1003
1936.00,2.0483
1935.00,1.9929
1934.00,1.9353
1933.00,1.8774
1932.00,1.8208
1931.00,1.7670
1930.00,1.7173
1929.00,1.6729
1928.00,1.6348
1927.00,1.6038
1926.00,1.5809
1925.00,1.5663
1924.00,1.5595
1923.00,1.5603
1922.00,1.5702
1921.00,1.5915
1920.00,1.6254
1919.00,1.6700
1918.00,1.7216
1917.00,1.7757
1916.00,1.8290
1915.00,1.8813
1914.00,1.9347
1913.00,1.9901
1912.00,2.0460
1911.00,2.0998
1910.00,2.1505
1909.00,2.1990
1908.00,2.2467
1907.00,2.2946
1906.00,2.3427
1905.00,2.3898
1904.00,2.4343
1903.00,2.4753
1902.00,2.5123
1901.00,2.5457
1900.00,2.5768
1899.00,2.6070
1898.00,2.6370
1897.00,2.6658
1896.00,2.6920
1895.00,2.7149
1894.00,2.7358
1893.00,2.7566
1892.00,2.7784
1891.00,2.8014
1890.00,2.8243
1889.00,2.8453
1888.00,2.8636
1887.00,2.8802
1886.00,2.8958
1885.00,2.9102
1884.00,2.9241
1883.00,2.9379
1882.00,2.9520
1881.00,2.9651
1880.00,2.9767
1879.00,2.9871
1878.00,2.9977
1877.00,3.0087
1876.00,3.0187
1875.00,3.0273
1874.00,3.0355
1873.00,3.0435
1872.00,3.0497
1871.00,3.0527
1870.00,3.0528
1869.00,3.0504
1868.00,3.0445
1867.00,3.0363
1866.00,3.0312
1865.00,3.0334
1864.00,3.0424
1863.00,3.0529
1862.00,3.0585
1861.00,3.0566
1860.00,3.0503
1859.00,3.0439
1858.00,3.0395
1857.00,3.0374
1856.00,3.0359
1855.00,3.0324
1854.00,3.0256
1853.00,3.0169
1852.00,3.0093
1851.00,3.0022
1850.00,2.9916
1849.00,2.9759
1848.00,2.9574
1847.00,2.9399
1846.00,2.9255
1845.00,2.9139
1844.00,2.9029
1843.00,2.8880
1842.00,2.8664
1841.00,2.8419
1840.00,2.8204
1839.00,2.8023
1838.00,2.7825
1837.00,2.7568
1836.00,2.7264
1835.00,2.6954
1834.00,2.6653
1833.00,2.6343
1832.00,2.6008
1831.00,2.5646
1830.00,2.5249
1829.00,2.4802
1828.00,2.4311
1827.00,2.3800
1826.00,2.3278
1825.00,2.2748
1824.00,2.2211
1823.00,2.1673
1822.00,2.1161
1821.00,2.0712
1820.00,2.0343
1819.00,2.0050
1818.00,1.9827
1817.00,1.9693
1816.00,1.9678
1815.00,1.9790
1814.00,2.0008
1813.00,2.0301
1812.00,2.0647
1811.00,2.1034
1810.00,2.1447
1809.00,2.1870
1808.00,2.2280
1807.00,2.2663
1806.00,2.3019
1805.00,2.3359
1804.00,2.3679
1803.00,2.3971
1802.00,2.4242
1801.00,2.4528
1800.00,2.4869
1799.00,2.5266
1798.00,2.5680
1797.00,2.6062
1796.00,2.6413
1795.00,2.6776
1794.00,2.7193
1793.00,2.7671
1792.00,2.8155
1791.00,2.8565
1790.00,2.8893
1789.00,2.9194
1788.00,2.9506
1787.00,2.9829
1786.00,3.0149
1785.00,3.0445
1784.00,3.0691
1783.00,3.0875
1782.00,3.1002
1781.00,3.1097
1780.00,3.1174
1779.00,3.1247
1778.00,3.1331
1777.00,3.1425
1776.00,3.1508
1775.00,3.1564
1774.00,3.1617
1773.00,3.1727
1772.00,3.1903
1771.00,3.2059
1770.00,3.2141
1769.00,3.2168
1768.00,3.2173
1767.00,3.2167
1766.00,3.2138
1765.00,3.2078
1764.00,3.2004
1763.00,3.1924
1762.00,3.1802
1761.00,3.1594
1760.00,3.1313
1759.00,3.1032
1758.00,3.0811
1757.00,3.0676
1756.00,3.0623
1755.00,3.0630
1754.00,3.0691
1753.00,3.0822
1752.00,3.1050
1751.00,3.1378
1750.00,3.1764
1749.00,3.2164
1748.00,3.2595
1747.00,3.3094
1746.00,3.3664
1745.00,3.4312
1744.00,3.5060
1743.00,3.5945
1742.00,3.7008
1741.00,3.8253
1740.00,3.9563
1739.00,4.0576
1738.00,4.1015
1737.00,4.1231
1736.00,4.1751
1735.00,4.2982
1734.00,4.4805
1733.00,4.6386
1732.00,4.6919
1731.00,4.4523
1730.00,4.2697
1729.00,4.2478
1728.00,4.3198
1727.00,4.4105
1726.00,4.4235
1725.00,4.3588
1724.00,4.3064
1723.00,4.3249
1722.00,4.4246
1721.00,4.5748
1720.00,4.7056
1719.00,4.7431
1718.00,4.6729
1717.00,4.5662
1716.00,4.4986
1715.00,4.4788
1714.00,4.4797
1713.00,4.4651
1712.00,4.4567
1711.00,4.5169
1710.00,4.6036
1709.00,4.5793
1708.00,4.5075
1707.00,4.4757
1706.00,4.5361
1705.00,4.6845
1704.00,4.6555
1703.00,4.5599
1702.00,4.6885
1701.00,4.9294
1700.00,4.7465
1699.00,4.6344
1698.00,4.7669
1697.00,5.0000
1696.00,4.5925
1695.00,4.4119
1694.00,4.4358
1693.00,4.4210
1692.00,4.2689
1691.00,4.1044
1690.00,3.9721
1689.00,3.8681
1688.00,3.7839
1687.00,3.7080
1686.00,3.6319
1685.00,3.5606
1684.00,3.5065
1683.00,3.4651
1682.00,3.4304
1681.00,3.3918
1680.00,3.3457
1679.00,3.3018
1678.00,3.2643
1677.00,3.2302
1676.00,3.1945
1675.00,3.1550
1674.00,3.1075
1673.00,3.0521
1672.00,3.0017
1671.00,2.9694
1670.00,2.9558
1669.00,2.9525
1668.00,2.9530
1667.00,2.9550
1666.00,2.9595
1665.00,2.9719
1664.00,2.9961
1663.00,3.0295
1662.00,3.0619
1661.00,3.0855
1660.00,3.1041
1659.00,3.1252
1658.00,3.1504
1657.00,3.1743
1656.00,3.1897
1655.00,3.1926
1654.00,3.1898
1653.00,3.1893
1652.00,3.1883
1651.00,3.1843
1650.00,3.1872
1649.00,3.2165
1648.00,3.2544
1647.00,3.2717
1646.00,3.2717
1645.00,3.2734
1644.00,3.2782
1643.00,3.2796
1642.00,3.2796
1641.00,3.2769
1640.00,3.2685
1639.00,3.2561
1638.00,3.2455
1637.00,3.2400
1636.00,3.2395
1635.00,3.2383
1634.00,3.2328
1633.00,3.2195
1632.00,3.2036
1631.00,3.1934
1630.00,3.1843
1629.00,3.1711
1628.00,3.1543
1627.00,3.1349
1626.00,3.1132
1625.00,3.0901
1624.00,3.0659
1623.00,3.0371
1622.00,2.9986
1621.00,2.9529
1620.00,2.9080
1619.00,2.8674
1618.00,2.8253
1617.00,2.7753
1616.00,2.7194
1615.00,2.6675
1614.00,2.6264
1613.00,2.5926
1612.00,2.5561
1611.00,2.5099
1610.00,2.4545
1609.00,2.3936
1608.00,2.3314
1607.00,2.2724
1606.00,2.2199
1605.00,2.1752
1604.00,2.1375
1603.00,2.1070
1602.00,2.0855
1601.00,2.0756
1600.00,2.0784
1599.00,2.0933
1598.00,2.1182
1597.00,2.1503
1596.00,2.1875
1595.00,2.2290
1594.00,2.2750
1593.00,2.3253
1592.00,2.3783
1591.00,2.4312
1590.00,2.4821
1589.00,2.5309
1588.00,2.5786
1587.00,2.6260
1586.00,2.6730
1585.00,2.7185
1584.00,2.7610
1583.00,2.7988
1582.00,2.8321
1581.00,2.8625
1580.00,2.8919
1579.00,2.9182
1578.00,2.9362
1577.00,2.9444
1576.00,2.9505
1575.00,2.9672
1574.00,2.9990
1573.00,3.0401
1572.00,3.0835
1571.00,3.1252
1570.00,3.1634
1569.00,3.1911
1568.00,3.2030
1567.00,3.2043
1566.00,3.2057
1565.00,3.2147
1564.00,3.2291
1563.00,3.2395
1562.00,3.2382
1561.00,3.2290
1560.00,3.2295
1559.00,3.2481
1558.00,3.2503
1557.00,3.2515
1556.00,3.2531
1555.00,3.2482
1554.00,3.2520
1553.00,3.2629
1552.00,3.2712
1551.00,3.2718
1550.00,3.2674
1549.00,3.2633
1548.00,3.2645
1547.00,3.2704
1546.00,3.2766
1545.00,3.2784
1544.00,3.2710
1543.00,3.2578
1542.00,3.2496
1541.00,3.2475
1540.00,3.2395
1539.00,3.2210
1538.00,3.2040
1537.00,3.1878
1536.00,3.1791
1535.00,3.1836
1534.00,3.1914
1533.00,3.1909
1532.00,3.1769
1531.00,3.1576
1530.00,3.1431
1529.00,3.1373
1528.00,3.1354
1527.00,3.1249
1526.00,3.1003
1525.00,3.0687
1524.00,3.0371
1523.00,3.0032
1522.00,2.9622
1521.00,2.9144
1520.00,2.8712
1519.00,2.8430
1518.00,2.8272
1517.00,2.8115
1516.00,2.7841
1515.00,2.7464
1514.00,2.7060
1513.00,2.6654
1512.00,2.6228
1511.00,2.5742
1510.00,2.5160
1509.00,2.4480
1508.00,2.3690
1507.00,2.2817
1506.00,2.2096
1505.00,2.1860
1504.00,2.1757
1503.00,2.1536
1502.00,2.1364
1501.00,2.1247
1500.00,2.1173
1499.00,2.1154
1498.00,2.1162
1497.00,2.1180
1496.00,2.1267
1495.00,2.1511
1494.00,2.1923
1493.00,2.2463
1492.00,2.3079
1491.00,2.3706
1490.00,2.4263
1489.00,2.4740
1488.00,2.5270
1487.00,2.5938
1486.00,2.6659
1485.00,2.7327
1484.00,2.7925
1483.00,2.8481
1482.00,2.9025
1481.00,2.9554
1480.00,3.0062
1479.00,3.0555
1478.00,3.1018
1477.00,3.1409
1476.00,3.1694
1475.00,3.1914
1474.00,3.2170
1473.00,3.2527
1472.00,3.2922
1471.00,3.3276
1470.00,3.3563
1469.00,3.3801
1468.00,3.4065
1467.00,3.4425
1466.00,3.4916
1465.00,3.5496
1464.00,3.5987
1463.00,3.6162
1462.00,3.6058
1461.00,3.5939
1460.00,3.5958
1459.00,3.6058
1458.00,3.6123
1457.00,3.6164
1456.00,3.6442
1455.00,3.7115
1454.00,3.8042
1453.00,3.9174
1452.00,4.0611
1451.00,4.2600
1450.00,4.5022
1449.00,4.5815
1448.00,4.4191
1447.00,4.1262
1446.00,3.9123
1445.00,3.7914
1444.00,3.7266
1443.00,3.6914
1442.00,3.6723
1441.00,3.6598
1440.00,3.6475
1439.00,3.6363
1438.00,3.6336
1437.00,3.6470
1436.00,3.6758
1435.00,3.7141
1434.00,3.7603
1433.00,3.8121
1432.00,3.8625
1431.00,3.9016
1430.00,3.9208
1429.00,3.9271
1428.00,3.9297
1427.00,3.9276
1426.00,3.9197
1425.00,3.9074
1424.00,3.8878
1423.00,3.8604
1422.00,3.8372
1421.00,3.8228
1420.00,3.8009
1419.00,3.7523
1418.00,3.6868
1417.00,3.6347
1416.00,3.6099
1415.00,3.6010
1414.00,3.5946
1413.00,3.5873
1412.00,3.5817
1411.00,3.5805
1410.00,3.5860
1409.00,3.5996
1408.00,3.6177
1407.00,3.6271
1406.00,3.6123
1405.00,3.5757
1404.00,3.5387
1403.00,3.5207
1402.00,3.5220
1401.00,3.5283
1400.00,3.5240
1399.00,3.5022
1398.00,3.4733
1397.00,3.4549
1396.00,3.4532
1395.00,3.4613
1394.00,3.4668
1393.00,3.4626
1392.00,3.4506
1391.00,3.4385
1390.00,3.4298
1389.00,3.4166
1388.00,3.3872
1387.00,3.3423
1386.00,3.2972
1385.00,3.2674
1384.00,3.2532
1383.00,3.2436
1382.00,3.2285
1381.00,3.2044
1380.00,3.1742
1379.00,3.1419
1378.00,3.1097
1377.00,3.0766
1376.00,3.0394
1375.00,2.9952
1374.00,2.9462
1373.00,2.9008
1372.00,2.8660
1371.00,2.8392
1370.00,2.8140
1369.00,2.7874
1368.00,2.7610
1367.00,2.7396
1366.00,2.7261
1365.00,2.7195
1364.00,2.7164
1363.00,2.7153
1362.00,2.7213
1361.00,2.7439
1360.00,2.7865
1359.00,2.8426
1358.00,2.9043
1357.00,2.9678
1356.00,3.0340
1355.00,3.1068
1354.00,3.1875
1353.00,3.2722
1352.00,3.3566
1351.00,3.4443
1350.00,3.5448
1349.00,3.6596
1348.00,3.7634
1347.00,3.8068
1346.00,3.7720
1345.00,3.6930
1344.00,3.6106
1343.00,3.5493
1342.00,3.5219
1341.00,3.5320
1340.00,3.5723
1339.00,3.6179
1338.00,3.6315
1337.00,3.5952
1336.00,3.5246
1335.00,3.4431
1334.00,3.3716
1333.00,3.3269
1332.00,3.3165
1331.00,3.3354
1330.00,3.3679
1329.00,3.3970
1328.00,3.4196
1327.00,3.4464
1326.00,3.4875
1325.00,3.5422
1324.00,3.6003
1323.00,3.6498
1322.00,3.6854
1321.00,3.7100
1320.00,3.7329
1319.00,3.7718
1318.00,3.8545
1317.00,4.0227
1316.00,4.3673
1315.00,5.0223
1314.00,4.5543
1313.00,4.4034
1312.00,4.4291
1311.00,4.4937
1310.00,4.3617
1309.00,4.1715
1308.00,4.0430
1307.00,3.9400
1306.00,3.8322
1305.00,3.7252
1304.00,3.6363
1303.00,3.5729
1302.00,3.5334
1301.00,3.5135
1300.00,3.5074
1299.00,3.5077
1298.00,3.5115
1297.00,3.5259
1296.00,3.5601
1295.00,3.6085
1294.00,3.6464
1293.00,3.6539
1292.00,3.6416
1291.00,3.6306
1290.00,3.6276
1289.00,3.6297
1288.00,3.6367
1287.00,3.6531
1286.00,3.6839
1285.00,3.7331
1284.00,3.8064
1283.00,3.9035
1282.00,3.9983
1281.00,4.0383
1280.00,4.0045
1279.00,3.9371
1278.00,3.8799
1277.00,3.8520
1276.00,3.8488
1275.00,3.8428
1274.00,3.8019
1273.00,3.7327
1272.00,3.6723
1271.00,3.6401
1270.00,3.6294
1269.00,3.6263
1268.00,3.6326
1267.00,3.6603
1266.00,3.7063
1265.00,3.7398
1264.00,3.7244
1263.00,3.6664
1262.00,3.6063
1261.00,3.5708
1260.00,3.5654
1259.00,3.5734
1258.00,3.5617
1257.00,3.5218
1256.00,3.4815
1255.00,3.4683
1254.00,3.4853
1253.00,3.5099
1252.00,3.5132
1251.00,3.4896
1250.00,3.4568
1249.00,3.4275
1248.00,3.4051
1247.00,3.3895
1246.00,3.3775
1245.00,3.3660
1244.00,3.3571
1243.00,3.3584
1242.00,3.3731
1241.00,3.3947
1240.00,3.4139
1239.00,3.4326
1238.00,3.4609
1237.00,3.5000
1236.00,3.5366
1235.00,3.5612
1234.00,3.5824
1233.00,3.6170
1232.00,3.6732
1231.00,3.7458
1230.00,3.8292
1229.00,3.9429
1228.00,4.1204
1227.00,4.3671
1226.00,4.6700
1225.00,4.8646
1224.00,4.7482
1223.00,4.7129
1222.00,4.8939
1221.00,5.2998
1220.00,4.7131
1219.00,4.3964
1218.00,4.1748
1217.00,4.0095
1216.00,3.9179
1215.00,3.8720
1214.00,3.8356
1213.00,3.7884
1212.00,3.7231
1211.00,3.6476
1210.00,3.5793
1209.00,3.5293
1208.00,3.4967
1207.00,3.4741
1206.00,3.4517
1205.00,3.4209
1204.00,3.3840
1203.00,3.3520
1202.00,3.3309
1201.00,3.3187
1200.00,3.3091
1199.00,3.2967
1198.00,3.2817
1197.00,3.2729
1196.00,3.2829
1195.00,3.3167
1194.00,3.3632
1193.00,3.3989
1192.00,3.4106
1191.00,3.4127
1190.00,3.4307
1189.00,3.4741
1188.00,3.5330
1187.00,3.5926
1186.00,3.6389
1185.00,3.6567
1184.00,3.6426
1183.00,3.6189
1182.00,3.6141
1181.00,3.6331
1180.00,3.6543
1179.00,3.6639
1178.00,3.6770
1177.00,3.7025
1176.00,3.7231
1175.00,3.7221
1174.00,3.7075
1173.00,3.7025
1172.00,3.7157
1171.00,3.7355
1170.00,3.7545
1169.00,3.7723
1168.00,3.7787
1167.00,3.7628
1166.00,3.7331
1165.00,3.7190
1164.00,3.7450
1163.00,3.8132
1162.00,3.9057
1161.00,3.9999
1160.00,4.0712
1159.00,4.0856
1158.00,4.0592
1157.00,4.0537
1156.00,4.0792
1155.00,4.1015
1154.00,4.1178
1153.00,4.1794
1152.00,4.2895
1151.00,4.2195
1150.00,4.0322
1149.00,3.9134
1148.00,3.8634
1147.00,3.8655
1146.00,3.8976
1145.00,3.9458
1144.00,4.0242
1143.00,4.1397
1142.00,4.1959
1141.00,4.1969
1140.00,4.2852
1139.00,4.2857
1138.00,4.1556
1137.00,4.1092
1136.00,4.0866
1135.00,4.0481
1134.00,4.0331
1133.00,4.0220
1132.00,3.9675
1131.00,3.8733
1130.00,3.7923
1129.00,3.7597
1128.00,3.7843
1127.00,3.8639
1126.00,3.9856
1125.00,4.1205
1124.00,4.2103
1123.00,4.2302
1122.00,4.2588
1121.00,4.3264
1120.00,4.3763
1119.00,4.3628
1118.00,4.2925
1117.00,4.1933
1116.00,4.1017
1115.00,4.0430
1114.00,4.0177
1113.00,4.0094
1112.00,4.0035
1111.00,3.9863
1110.00,3.9773
1109.00,4.0287
1108.00,4.1735
1107.00,4.3760
1106.00,4.4715
1105.00,4.3756
1104.00,4.1478
1103.00,3.9638
1102.00,3.8581
1101.00,3.7900
1100.00,3.7499
1099.00,3.7390
1098.00,3.7480
1097.00,3.7822
1096.00,3.8433
1095.00,3.9028
1094.00,3.9251
1093.00,3.8945
1092.00,3.8256
1091.00,3.7579
1090.00,3.7231
1089.00,3.7207
1088.00,3.7105
1087.00,3.6521
1086.00,3.5694
1085.00,3.5060
1084.00,3.4679
1083.00,3.4382
1082.00,3.4080
1081.00,3.3857
1080.00,3.3807
1079.00,3.3908
1078.00,3.4097
1077.00,3.4366
1076.00,3.4650
1075.00,3.4774
1074.00,3.4665
1073.00,3.4505
1072.00,3.4520
1071.00,3.4739
1070.00,3.4955
1069.00,3.4988
1068.00,3.4979
1067.00,3.5195
1066.00,3.5697
1065.00,3.6308
1064.00,3.6813
1063.00,3.7178
1062.00,3.7493
1061.00,3.7967
1060.00,3.8784
1059.00,3.9673
1058.00,4.0207
1057.00,4.0256
1056.00,3.9535
1055.00,3.8642
1054.00,3.8345
1053.00,3.8887
1052.00,4.0449
1051.00,4.2778
1050.00,4.3439
1049.00,4.1590
1048.00,3.9818
1047.00,3.8951
1046.00,3.8779
1045.00,3.8901
1044.00,3.9068
1043.00,3.9193
1042.00,3.9240
1041.00,3.9210
1040.00,3.9236
1039.00,3.9550
1038.00,4.0320
1037.00,4.1443
1036.00,4.2186
1035.00,4.1922
1034.00,4.1493
1033.00,4.1512
1032.00,4.1913
1031.00,4.2415
1030.00,4.1653
1029.00,4.0111
1028.00,3.9609
1027.00,4.0406
1026.00,4.2057
1025.00,4.3399
1024.00,4.3686
1023.00,4.4293
1022.00,4.5773
1021.00,4.6542
1020.00,4.8405
1019.00,4.8047
1018.00,4.3422
1017.00,4.1653
1016.00,4.1379
1015.00,4.2586
1014.00,4.6575
1013.00,4.5148
1012.00,4.1433
1011.00,4.0360
1010.00,4.0752
1009.00,4.2193
1008.00,4.4523
1007.00,4.7451
1006.00,4.5624
1005.00,4.1938
1004.00,3.9774
1003.00,3.8857
1002.00,3.9159
1001.00,4.0920
1000.00,4.5541
999.00,4.8272
998.00,4.4607
997.00,4.4497
996.00,4.2968
995.00,4.0485
994.00,3.9395
993.00,3.9951
992.00,4.2527
991.00,4.4068
990.00,4.2643
989.00,4.2331
988.00,4.1672
987.00,4.0456
986.00,4.0011
985.00,4.1057
984.00,4.4018
983.00,4.7543
982.00,5.0565
981.00,4.9405
980.00,4.4278
979.00,4.1486
978.00,4.0495
977.00,4.1102
976.00,4.3081
975.00,4.5015
974.00,4.4935
973.00,4.3826
972.00,4.2738
971.00,4.1802
970.00,4.0988
969.00,4.0236
968.00,3.9319
967.00,3.8393
966.00,3.7967
965.00,3.8415
964.00,3.9930
963.00,4.2646
962.00,4.6134
961.00,4.5081
960.00,4.1908
959.00,4.0131
958.00,3.9367
957.00,3.9323
956.00,4.0022
955.00,4.1033
954.00,4.0527
953.00,3.9401
952.00,3.9432
951.00,4.0245
950.00,4.0405
949.00,4.0225
948.00,4.0393
947.00,4.0266
946.00,3.9604
945.00,3.8825
944.00,3.8264
943.00,3.8170
942.00,3.8775
941.00,3.9974
940.00,4.1078
939.00,4.1546
938.00,4.1615
937.00,4.1680
936.00,4.3509
935.00,4.6921
934.00,4.5157
933.00,4.4977
932.00,4.7496
931.00,4.9597
930.00,4.6340
929.00,4.3718
928.00,4.2915
927.00,4.3923
926.00,4.7301
925.00,4.5105
924.00,4.1938
923.00,4.0615
922.00,4.1143
921.00,4.3110
920.00,4.2012
919.00,4.0753
918.00,4.1504
917.00,4.3322
916.00,4.4734
915.00,4.4653
914.00,4.4647
913.00,4.4186
912.00,4.5523
911.00,5.1254
910.00,4.5060
909.00,4.2770
908.00,4.3020
907.00,4.5269
906.00,5.2424
905.00,5.6092
904.00,4.9764
903.00,4.4623
902.00,4.2042
901.00,4.0230
900.00,3.9019
899.00,3.8633
898.00,3.8815
897.00,3.9578
896.00,4.1147
895.00,4.3013
894.00,4.3260
893.00,4.3365
892.00,4.3915
891.00,4.2651
890.00,4.1639
889.00,4.1823
888.00,4.1800
887.00,4.0491
886.00,3.9086
885.00,3.8506
884.00,3.9297
883.00,4.2205
882.00,4.3131
881.00,4.0772
880.00,4.0947
879.00,4.1526
878.00,4.0282
877.00,3.9932
876.00,4.1056
875.00,4.2357
874.00,4.2921
873.00,4.2975
872.00,4.1793
871.00,4.0724
870.00,4.0680
869.00,4.1389
868.00,4.1981
867.00,4.1776
866.00,4.1646
865.00,4.1059
864.00,3.9673
863.00,3.9088
862.00,3.9726
861.00,4.0713
860.00,4.0605
859.00,3.9779
858.00,3.9404
857.00,3.9707
856.00,4.0250
855.00,4.0247
854.00,3.9734
853.00,3.9409
852.00,3.9597
851.00,4.0099
850.00,4.0536
849.00,4.0902
848.00,4.0843
847.00,4.0604
846.00,4.0872
845.00,4.2128
844.00,4.3024
843.00,4.4858
842.00,4.8127
841.00,4.2610
840.00,4.0245
839.00,3.9784
838.00,4.0116
837.00,4.1928
836.00,4.2885
835.00,4.0369
834.00,3.8934
833.00,3.8879
832.00,3.9338
831.00,3.9987
830.00,4.0659
829.00,4.1223
828.00,4.1170
827.00,4.0685
826.00,3.9892
825.00,3.8956
824.00,3.8050
823.00,3.7378
822.00,3.7064
821.00,3.6791
820.00,3.6425
819.00,3.6345
818.00,3.6807
817.00,3.7903
816.00,3.9412
815.00,4.0314
814.00,3.9912
813.00,3.9166
812.00,3.9133
811.00,3.9962
810.00,4.0874
809.00,4.1086
808.00,4.1042
807.00,4.1292
806.00,4.1324
805.00,4.1191
804.00,4.1828
803.00,4.5114
802.00,4.8722
801.00,4.4126
800.00,4.2276
799.00,4.1352
798.00,4.0632
797.00,4.0214
796.00,4.0163
795.00,4.1016
794.00,4.2307
793.00,4.2699
792.00,4.1670
791.00,4.0419
790.00,3.9631
789.00,3.8922
788.00,3.8110
787.00,3.7882
786.00,3.8355
785.00,3.9627
784.00,4.1253
783.00,4.4177
782.00,5.0562
781.00,4.4112
780.00,4.1378
779.00,4.1249
778.00,4.2609
777.00,4.4834
776.00,4.5627
775.00,4.4352
774.00,4.3984
773.00,4.5806
772.00,4.3828
771.00,4.1642
770.00,4.0868
769.00,4.0598
768.00,4.0960
767.00,4.1030
766.00,4.0860
765.00,4.1192
764.00,4.1227
763.00,4.0586
762.00,3.9755
761.00,3.8944
760.00,3.8486
759.00,3.8726
758.00,3.9635
757.00,4.0260
756.00,3.9974
755.00,3.9743
754.00,4.0350
753.00,4.1534
752.00,4.1880
751.00,4.2536
750.00,4.3794
749.00,4.2747
748.00,4.1956
747.00,4.2764
746.00,4.4401
745.00,4.5199
744.00,4.4323
743.00,4.3524
742.00,4.3009
741.00,4.1854
740.00,3.9995
739.00,3.8288
738.00,3.7358
737.00,3.7407
736.00,3.8386
735.00,3.9624
734.00,3.9841
733.00,3.9200
732.00,3.8708
731.00,3.8738
730.00,3.9434
729.00,4.0503
728.00,4.0190
727.00,3.9023
726.00,3.8778
725.00,3.9662
724.00,4.0875
723.00,4.1486
722.00,4.1511
721.00,4.2764
720.00,4.6641
719.00,4.4237
718.00,4.1215
717.00,4.0068
716.00,3.8787
715.00,3.7638
714.00,3.7044
713.00,3.7069
712.00,3.7704
711.00,3.9164
710.00,4.1413
709.00,4.2223
708.00,4.1961
707.00,4.4120
706.00,4.6348
705.00,4.6157
704.00,4.9771
703.00,4.7356
702.00,4.7893
701.00,4.9629
700.00,4.3456
