Created as New Dataset,Sample 112 By Administrator Date Wednesday, November 24 2021
cm-1,A
7502.00,1.0286
7501.00,1.0178
7500.00,1.0072
7499.00,0.9969
7498.00,0.9869
7497.00,0.9770
7496.00,0.9674
7495.00,0.9581
7494.00,0.9488
7493.00,0.9392
7492.00,0.9296
7491.00,0.9201
7490.00,0.9110
7489.00,0.9020
7488.00,0.8930
7487.00,0.8842
7486.00,0.8754
7485.00,0.8667
7484.00,0.8584
7483.00,0.8509
7482.00,0.8439
7481.00,0.8371
7480.00,0.8304
7479.00,0.8241
7478.00,0.8187
7477.00,0.8143
7476.00,0.8105
7475.00,0.8069
7474.00,0.8035
7473.00,0.8007
7472.00,0.7985
7471.00,0.7968
7470.00,0.7950
7469.00,0.7933
7468.00,0.7920
7467.00,0.7918
7466.00,0.7927
7465.00,0.7944
7464.00,0.7967
7463.00,0.7993
7462.00,0.8021
7461.00,0.8052
7460.00,0.8086
7459.00,0.8125
7458.00,0.8167
7457.00,0.8210
7456.00,0.8256
7455.00,0.8307
7454.00,0.8366
7453.00,0.8430
7452.00,0.8493
7451.00,0.8554
7450.00,0.8617
7449.00,0.8683
7448.00,0.8756
7447.00,0.8834
7446.00,0.8915
7445.00,0.8996
7444.00,0.9075
7443.00,0.9154
7442.00,0.9236
7441.00,0.9319
7440.00,0.9402
7439.00,0.9483
7438.00,0.9563
7437.00,0.9644
7436.00,0.9724
7435.00,0.9801
7434.00,0.9876
7433.00,0.9948
7432.00,1.0017
7431.00,1.0082
7430.00,1.0148
7429.00,1.0222
7428.00,1.0306
7427.00,1.0395
7426.00,1.0479
7425.00,1.0554
7424.00,1.0619
7423.00,1.0677
7422.00,1.0729
7421.00,1.0775
7420.00,1.0814
7419.00,1.0846
7418.00,1.0880
7417.00,1.0921
7416.00,1.0967
7415.00,1.1009
7414.00,1.1039
7413.00,1.1060
7412.00,1.1076
7411.00,1.1088
7410.00,1.1094
7409.00,1.1097
7408.00,1.1103
7407.00,1.1114
7406.00,1.1126
7405.00,1.1133
7404.00,1.1133
7403.00,1.1128
7402.00,1.1113
7401.00,1.1084
7400.00,1.1047
7399.00,1.1007
7398.00,1.0972
7397.00,1.0939
7396.00,1.0909
7395.00,1.0880
7394.00,1.0856
7393.00,1.0833
7392.00,1.0808
7391.00,1.0776
7390.00,1.0739
7389.00,1.0698
7388.00,1.0658
7387.00,1.0622
7386.00,1.0596
7385.00,1.0579
7384.00,1.0567
7383.00,1.0554
7382.00,1.0540
7381.00,1.0527
7380.00,1.0515
7379.00,1.0499
7378.00,1.0471
7377.00,1.0427
7376.00,1.0369
7375.00,1.0303
7374.00,1.0233
7373.00,1.0160
7372.00,1.0084
7371.00,1.0005
7370.00,0.9925
7369.00,0.9849
7368.00,0.9781
7367.00,0.9717
7366.00,0.9651
7365.00,0.9581
7364.00,0.9509
7363.00,0.9440
7362.00,0.9371
7361.00,0.9297
7360.00,0.9219
7359.00,0.9138
7358.00,0.9058
7357.00,0.8977
7356.00,0.8898
7355.00,0.8823
7354.00,0.8755
7353.00,0.8693
7352.00,0.8635
7351.00,0.8576
7350.00,0.8514
7349.00,0.8445
7348.00,0.8373
7347.00,0.8301
7346.00,0.8231
7345.00,0.8168
7344.00,0.8112
7343.00,0.8065
7342.00,0.8024
7341.00,0.7984
7340.00,0.7942
7339.00,0.7900
7338.00,0.7864
7337.00,0.7833
7336.00,0.7806
7335.00,0.7786
7334.00,0.7775
7333.00,0.7776
7332.00,0.7785
7331.00,0.7796
7330.00,0.7809
7329.00,0.7828
7328.00,0.7851
7327.00,0.7879
7326.00,0.7909
7325.00,0.7944
7324.00,0.7984
7323.00,0.8029
7322.00,0.8077
7321.00,0.8129
7320.00,0.8185
7319.00,0.8246
7318.00,0.8313
7317.00,0.8384
7316.00,0.8460
7315.00,0.8540
7314.00,0.8623
7313.00,0.8708
7312.00,0.8794
7311.00,0.8877
7310.00,0.8959
7309.00,0.9041
7308.00,0.9125
7307.00,0.9209
7306.00,0.9292
7305.00,0.9376
7304.00,0.9464
7303.00,0.9560
7302.00,0.9658
7301.00,0.9752
7300.00,0.9841
7299.00,0.9929
7298.00,1.0022
7297.00,1.0117
7296.00,1.0209
7295.00,1.0293
7294.00,1.0371
7293.00,1.0447
7292.00,1.0524
7291.00,1.0599
7290.00,1.0674
7289.00,1.0750
7288.00,1.0831
7287.00,1.0911
7286.00,1.0988
7285.00,1.1064
7284.00,1.1142
7283.00,1.1219
7282.00,1.1289
7281.00,1.1351
7280.00,1.1408
7279.00,1.1465
7278.00,1.1524
7277.00,1.1581
7276.00,1.1632
7275.00,1.1674
7274.00,1.1708
7273.00,1.1741
7272.00,1.1778
7271.00,1.1817
7270.00,1.1849
7269.00,1.1868
7268.00,1.1875
7267.00,1.1881
7266.00,1.1892
7265.00,1.1910
7264.00,1.1930
7263.00,1.1947
7262.00,1.1960
7261.00,1.1971
7260.00,1.1979
7259.00,1.1981
7258.00,1.1970
7257.00,1.1944
7256.00,1.1906
7255.00,1.1867
7254.00,1.1836
7253.00,1.1816
7252.00,1.1801
7251.00,1.1779
7250.00,1.1745
7249.00,1.1703
7248.00,1.1660
7247.00,1.1614
7246.00,1.1557
7245.00,1.1489
7244.00,1.1417
7243.00,1.1348
7242.00,1.1280
7241.00,1.1209
7240.00,1.1135
7239.00,1.1061
7238.00,1.0984
7237.00,1.0901
7236.00,1.0815
7235.00,1.0731
7234.00,1.0649
7233.00,1.0567
7232.00,1.0478
7231.00,1.0382
7230.00,1.0281
7229.00,1.0180
7228.00,1.0076
7227.00,0.9971
7226.00,0.9863
7225.00,0.9757
7224.00,0.9658
7223.00,0.9564
7222.00,0.9471
7221.00,0.9374
7220.00,0.9273
7219.00,0.9169
7218.00,0.9067
7217.00,0.8967
7216.00,0.8871
7215.00,0.8781
7214.00,0.8696
7213.00,0.8616
7212.00,0.8541
7211.00,0.8470
7210.00,0.8404
7209.00,0.8340
7208.00,0.8278
7207.00,0.8220
7206.00,0.8165
7205.00,0.8115
7204.00,0.8067
7203.00,0.8024
7202.00,0.7986
7201.00,0.7955
7200.00,0.7932
7199.00,0.7917
7198.00,0.7907
7197.00,0.7903
7196.00,0.7902
7195.00,0.7907
7194.00,0.7917
7193.00,0.7933
7192.00,0.7955
7191.00,0.7982
7190.00,0.8016
7189.00,0.8055
7188.00,0.8100
7187.00,0.8149
7186.00,0.8200
7185.00,0.8252
7184.00,0.8307
7183.00,0.8365
7182.00,0.8427
7181.00,0.8494
7180.00,0.8564
7179.00,0.8638
7178.00,0.8716
7177.00,0.8795
7176.00,0.8875
7175.00,0.8954
7174.00,0.9035
7173.00,0.9119
7172.00,0.9207
7171.00,0.9298
7170.00,0.9388
7169.00,0.9475
7168.00,0.9559
7167.00,0.9644
7166.00,0.9731
7165.00,0.9818
7164.00,0.9902
7163.00,0.9984
7162.00,1.0069
7161.00,1.0156
7160.00,1.0243
7159.00,1.0326
7158.00,1.0404
7157.00,1.0481
7156.00,1.0558
7155.00,1.0635
7154.00,1.0711
7153.00,1.0781
7152.00,1.0846
7151.00,1.0912
7150.00,1.0984
7149.00,1.1060
7148.00,1.1130
7147.00,1.1189
7146.00,1.1240
7145.00,1.1290
7144.00,1.1343
7143.00,1.1394
7142.00,1.1438
7141.00,1.1477
7140.00,1.1517
7139.00,1.1562
7138.00,1.1608
7137.00,1.1649
7136.00,1.1685
7135.00,1.1716
7134.00,1.1745
7133.00,1.1771
7132.00,1.1792
7131.00,1.1808
7130.00,1.1816
7129.00,1.1816
7128.00,1.1812
7127.00,1.1809
7126.00,1.1808
7125.00,1.1805
7124.00,1.1795
7123.00,1.1778
7122.00,1.1757
7121.00,1.1734
7120.00,1.1710
7119.00,1.1688
7118.00,1.1669
7117.00,1.1649
7116.00,1.1624
7115.00,1.1591
7114.00,1.1551
7113.00,1.1505
7112.00,1.1453
7111.00,1.1396
7110.00,1.1337
7109.00,1.1279
7108.00,1.1223
7107.00,1.1170
7106.00,1.1118
7105.00,1.1059
7104.00,1.0987
7103.00,1.0901
7102.00,1.0809
7101.00,1.0719
7100.00,1.0630
7099.00,1.0541
7098.00,1.0450
7097.00,1.0357
7096.00,1.0265
7095.00,1.0175
7094.00,1.0087
7093.00,0.9999
7092.00,0.9910
7091.00,0.9817
7090.00,0.9723
7089.00,0.9630
7088.00,0.9537
7087.00,0.9442
7086.00,0.9344
7085.00,0.9243
7084.00,0.9143
7083.00,0.9047
7082.00,0.8955
7081.00,0.8864
7080.00,0.8775
7079.00,0.8689
7078.00,0.8606
7077.00,0.8528
7076.00,0.8451
7075.00,0.8378
7074.00,0.8309
7073.00,0.8242
7072.00,0.8178
7071.00,0.8117
7070.00,0.8063
7069.00,0.8017
7068.00,0.7978
7067.00,0.7944
7066.00,0.7915
7065.00,0.7892
7064.00,0.7874
7063.00,0.7859
7062.00,0.7849
7061.00,0.7846
7060.00,0.7850
7059.00,0.7860
7058.00,0.7878
7057.00,0.7902
7056.00,0.7933
7055.00,0.7967
7054.00,0.8004
7053.00,0.8043
7052.00,0.8085
7051.00,0.8132
7050.00,0.8183
7049.00,0.8237
7048.00,0.8297
7047.00,0.8363
7046.00,0.8434
7045.00,0.8508
7044.00,0.8586
7043.00,0.8666
7042.00,0.8748
7041.00,0.8831
7040.00,0.8915
7039.00,0.9001
7038.00,0.9091
7037.00,0.9181
7036.00,0.9273
7035.00,0.9366
7034.00,0.9462
7033.00,0.9559
7032.00,0.9655
7031.00,0.9746
7030.00,0.9833
7029.00,0.9917
7028.00,1.0001
7027.00,1.0086
7026.00,1.0174
7025.00,1.0267
7024.00,1.0365
7023.00,1.0464
7022.00,1.0560
7021.00,1.0650
7020.00,1.0735
7019.00,1.0816
7018.00,1.0894
7017.00,1.0969
7016.00,1.1044
7015.00,1.1120
7014.00,1.1198
7013.00,1.1275
7012.00,1.1347
7011.00,1.1412
7010.00,1.1469
7009.00,1.1523
7008.00,1.1578
7007.00,1.1634
7006.00,1.1686
7005.00,1.1733
7004.00,1.1778
7003.00,1.1825
7002.00,1.1874
7001.00,1.1919
7000.00,1.1958
6999.00,1.1989
6998.00,1.2014
6997.00,1.2035
6996.00,1.2053
6995.00,1.2072
6994.00,1.2090
6993.00,1.2107
6992.00,1.2122
6991.00,1.2139
6990.00,1.2151
6989.00,1.2153
6988.00,1.2142
6987.00,1.2123
6986.00,1.2103
6985.00,1.2079
6984.00,1.2046
6983.00,1.2005
6982.00,1.1966
6981.00,1.1930
6980.00,1.1896
6979.00,1.1860
6978.00,1.1820
6977.00,1.1778
6976.00,1.1732
6975.00,1.1679
6974.00,1.1620
6973.00,1.1556
6972.00,1.1489
6971.00,1.1420
6970.00,1.1350
6969.00,1.1279
6968.00,1.1205
6967.00,1.1128
6966.00,1.1045
6965.00,1.0955
6964.00,1.0861
6963.00,1.0767
6962.00,1.0676
6961.00,1.0585
6960.00,1.0490
6959.00,1.0390
6958.00,1.0286
6957.00,1.0181
6956.00,1.0073
6955.00,0.9963
6954.00,0.9853
6953.00,0.9745
6952.00,0.9638
6951.00,0.9532
6950.00,0.9426
6949.00,0.9321
6948.00,0.9219
6947.00,0.9121
6946.00,0.9026
6945.00,0.8933
6944.00,0.8840
6943.00,0.8749
6942.00,0.8660
6941.00,0.8574
6940.00,0.8489
6939.00,0.8409
6938.00,0.8332
6937.00,0.8261
6936.00,0.8197
6935.00,0.8139
6934.00,0.8087
6933.00,0.8041
6932.00,0.7997
6931.00,0.7956
6930.00,0.7923
6929.00,0.7899
6928.00,0.7879
6927.00,0.7863
6926.00,0.7851
6925.00,0.7847
6924.00,0.7853
6923.00,0.7865
6922.00,0.7884
6921.00,0.7906
6920.00,0.7934
6919.00,0.7967
6918.00,0.8005
6917.00,0.8047
6916.00,0.8093
6915.00,0.8144
6914.00,0.8202
6913.00,0.8266
6912.00,0.8335
6911.00,0.8407
6910.00,0.8481
6909.00,0.8556
6908.00,0.8633
6907.00,0.8711
6906.00,0.8792
6905.00,0.8877
6904.00,0.8965
6903.00,0.9054
6902.00,0.9144
6901.00,0.9235
6900.00,0.9327
6899.00,0.9420
6898.00,0.9513
6897.00,0.9608
6896.00,0.9704
6895.00,0.9799
6894.00,0.9890
6893.00,0.9981
6892.00,1.0072
6891.00,1.0165
6890.00,1.0258
6889.00,1.0350
6888.00,1.0444
6887.00,1.0540
6886.00,1.0634
6885.00,1.0721
6884.00,1.0802
6883.00,1.0880
6882.00,1.0955
6881.00,1.1025
6880.00,1.1092
6879.00,1.1161
6878.00,1.1236
6877.00,1.1311
6876.00,1.1380
6875.00,1.1441
6874.00,1.1497
6873.00,1.1550
6872.00,1.1599
6871.00,1.1644
6870.00,1.1688
6869.00,1.1734
6868.00,1.1783
6867.00,1.1832
6866.00,1.1876
6865.00,1.1913
6864.00,1.1944
6863.00,1.1969
6862.00,1.1994
6861.00,1.2015
6860.00,1.2032
6859.00,1.2046
6858.00,1.2057
6857.00,1.2066
6856.00,1.2070
6855.00,1.2067
6854.00,1.2059
6853.00,1.2047
6852.00,1.2031
6851.00,1.2012
6850.00,1.1988
6849.00,1.1959
6848.00,1.1927
6847.00,1.1898
6846.00,1.1873
6845.00,1.1851
6844.00,1.1826
6843.00,1.1793
6842.00,1.1750
6841.00,1.1701
6840.00,1.1645
6839.00,1.1584
6838.00,1.1519
6837.00,1.1451
6836.00,1.1384
6835.00,1.1317
6834.00,1.1248
6833.00,1.1174
6832.00,1.1096
6831.00,1.1013
6830.00,1.0927
6829.00,1.0837
6828.00,1.0746
6827.00,1.0658
6826.00,1.0569
6825.00,1.0477
6824.00,1.0379
6823.00,1.0278
6822.00,1.0177
6821.00,1.0072
6820.00,0.9965
6819.00,0.9855
6818.00,0.9748
6817.00,0.9645
6816.00,0.9544
6815.00,0.9444
6814.00,0.9344
6813.00,0.9244
6812.00,0.9145
6811.00,0.9045
6810.00,0.8944
6809.00,0.8841
6808.00,0.8741
6807.00,0.8646
6806.00,0.8558
6805.00,0.8475
6804.00,0.8396
6803.00,0.8320
6802.00,0.8249
6801.00,0.8182
6800.00,0.8117
6799.00,0.8057
6798.00,0.8003
6797.00,0.7955
6796.00,0.7913
6795.00,0.7877
6794.00,0.7846
6793.00,0.7821
6792.00,0.7803
6791.00,0.7790
6790.00,0.7783
6789.00,0.7783
6788.00,0.7789
6787.00,0.7802
6786.00,0.7821
6785.00,0.7846
6784.00,0.7877
6783.00,0.7915
6782.00,0.7958
6781.00,0.8007
6780.00,0.8059
6779.00,0.8114
6778.00,0.8173
6777.00,0.8236
6776.00,0.8303
6775.00,0.8375
6774.00,0.8451
6773.00,0.8532
6772.00,0.8616
6771.00,0.8701
6770.00,0.8786
6769.00,0.8872
6768.00,0.8960
6767.00,0.9053
6766.00,0.9148
6765.00,0.9246
6764.00,0.9344
6763.00,0.9443
6762.00,0.9541
6761.00,0.9639
6760.00,0.9734
6759.00,0.9828
6758.00,0.9925
6757.00,1.0025
6756.00,1.0125
6755.00,1.0224
6754.00,1.0322
6753.00,1.0420
6752.00,1.0515
6751.00,1.0608
6750.00,1.0698
6749.00,1.0790
6748.00,1.0883
6747.00,1.0975
6746.00,1.1064
6745.00,1.1147
6744.00,1.1225
6743.00,1.1299
6742.00,1.1371
6741.00,1.1440
6740.00,1.1501
6739.00,1.1557
6738.00,1.1614
6737.00,1.1677
6736.00,1.1741
6735.00,1.1802
6734.00,1.1857
6733.00,1.1910
6732.00,1.1962
6731.00,1.2011
6730.00,1.2054
6729.00,1.2093
6728.00,1.2128
6727.00,1.2162
6726.00,1.2197
6725.00,1.2227
6724.00,1.2247
6723.00,1.2258
6722.00,1.2268
6721.00,1.2278
6720.00,1.2288
6719.00,1.2293
6718.00,1.2295
6717.00,1.2294
6716.00,1.2287
6715.00,1.2273
6714.00,1.2254
6713.00,1.2232
6712.00,1.2209
6711.00,1.2181
6710.00,1.2150
6709.00,1.2116
6708.00,1.2078
6707.00,1.2034
6706.00,1.1987
6705.00,1.1935
6704.00,1.1881
6703.00,1.1823
6702.00,1.1761
6701.00,1.1697
6700.00,1.1630
6699.00,1.1558
6698.00,1.1479
6697.00,1.1396
6696.00,1.1309
6695.00,1.1220
6694.00,1.1128
6693.00,1.1034
6692.00,1.0939
6691.00,1.0839
6690.00,1.0737
6689.00,1.0632
6688.00,1.0527
6687.00,1.0423
6686.00,1.0318
6685.00,1.0210
6684.00,1.0100
6683.00,0.9989
6682.00,0.9876
6681.00,0.9761
6680.00,0.9646
6679.00,0.9531
6678.00,0.9419
6677.00,0.9310
6676.00,0.9203
6675.00,0.9096
6674.00,0.8993
6673.00,0.8893
6672.00,0.8797
6671.00,0.8704
6670.00,0.8614
6669.00,0.8527
6668.00,0.8441
6667.00,0.8358
6666.00,0.8278
6665.00,0.8204
6664.00,0.8137
6663.00,0.8077
6662.00,0.8024
6661.00,0.7979
6660.00,0.7938
6659.00,0.7902
6658.00,0.7870
6657.00,0.7845
6656.00,0.7827
6655.00,0.7816
6654.00,0.7811
6653.00,0.7813
6652.00,0.7822
6651.00,0.7839
6650.00,0.7862
6649.00,0.7891
6648.00,0.7925
6647.00,0.7963
6646.00,0.8007
6645.00,0.8057
6644.00,0.8112
6643.00,0.8170
6642.00,0.8233
6641.00,0.8300
6640.00,0.8372
6639.00,0.8448
6638.00,0.8529
6637.00,0.8613
6636.00,0.8697
6635.00,0.8782
6634.00,0.8869
6633.00,0.8958
6632.00,0.9048
6631.00,0.9141
6630.00,0.9239
6629.00,0.9341
6628.00,0.9443
6627.00,0.9544
6626.00,0.9642
6625.00,0.9742
6624.00,0.9844
6623.00,0.9945
6622.00,1.0046
6621.00,1.0146
6620.00,1.0245
6619.00,1.0342
6618.00,1.0436
6617.00,1.0527
6616.00,1.0615
6615.00,1.0702
6614.00,1.0790
6613.00,1.0880
6612.00,1.0967
6611.00,1.1048
6610.00,1.1123
6609.00,1.1196
6608.00,1.1270
6607.00,1.1343
6606.00,1.1416
6605.00,1.1488
6604.00,1.1559
6603.00,1.1625
6602.00,1.1684
6601.00,1.1737
6600.00,1.1787
6599.00,1.1836
6598.00,1.1884
6597.00,1.1929
6596.00,1.1972
6595.00,1.2011
6594.00,1.2045
6593.00,1.2076
6592.00,1.2102
6591.00,1.2125
6590.00,1.2144
6589.00,1.2159
6588.00,1.2171
6587.00,1.2179
6586.00,1.2181
6585.00,1.2177
6584.00,1.2169
6583.00,1.2163
6582.00,1.2160
6581.00,1.2157
6580.00,1.2149
6579.00,1.2134
6578.00,1.2112
6577.00,1.2087
6576.00,1.2059
6575.00,1.2025
6574.00,1.1985
6573.00,1.1940
6572.00,1.1893
6571.00,1.1847
6570.00,1.1798
6569.00,1.1745
6568.00,1.1687
6567.00,1.1626
6566.00,1.1562
6565.00,1.1495
6564.00,1.1423
6563.00,1.1346
6562.00,1.1265
6561.00,1.1184
6560.00,1.1101
6559.00,1.1017
6558.00,1.0930
6557.00,1.0841
6556.00,1.0751
6555.00,1.0659
6554.00,1.0566
6553.00,1.0469
6552.00,1.0367
6551.00,1.0262
6550.00,1.0154
6549.00,1.0044
6548.00,0.9932
6547.00,0.9820
6546.00,0.9711
6545.00,0.9603
6544.00,0.9494
6543.00,0.9384
6542.00,0.9274
6541.00,0.9166
6540.00,0.9059
6539.00,0.8953
6538.00,0.8849
6537.00,0.8748
6536.00,0.8650
6535.00,0.8557
6534.00,0.8468
6533.00,0.8382
6532.00,0.8301
6531.00,0.8224
6530.00,0.8153
6529.00,0.8088
6528.00,0.8027
6527.00,0.7971
6526.00,0.7921
6525.00,0.7877
6524.00,0.7840
6523.00,0.7808
6522.00,0.7780
6521.00,0.7758
6520.00,0.7744
6519.00,0.7737
6518.00,0.7738
6517.00,0.7746
6516.00,0.7760
6515.00,0.7780
6514.00,0.7805
6513.00,0.7837
6512.00,0.7873
6511.00,0.7915
6510.00,0.7963
6509.00,0.8018
6508.00,0.8081
6507.00,0.8147
6506.00,0.8216
6505.00,0.8288
6504.00,0.8364
6503.00,0.8445
6502.00,0.8528
6501.00,0.8614
6500.00,0.8705
6499.00,0.8801
6498.00,0.8901
6497.00,0.9001
6496.00,0.9100
6495.00,0.9198
6494.00,0.9299
6493.00,0.9401
6492.00,0.9504
6491.00,0.9608
6490.00,0.9712
6489.00,0.9816
6488.00,0.9920
6487.00,1.0022
6486.00,1.0122
6485.00,1.0222
6484.00,1.0322
6483.00,1.0424
6482.00,1.0529
6481.00,1.0633
6480.00,1.0735
6479.00,1.0835
6478.00,1.0932
6477.00,1.1027
6476.00,1.1117
6475.00,1.1203
6474.00,1.1285
6473.00,1.1363
6472.00,1.1439
6471.00,1.1514
6470.00,1.1591
6469.00,1.1668
6468.00,1.1744
6467.00,1.1817
6466.00,1.1888
6465.00,1.1956
6464.00,1.2018
6463.00,1.2075
6462.00,1.2128
6461.00,1.2180
6460.00,1.2230
6459.00,1.2276
6458.00,1.2316
6457.00,1.2353
6456.00,1.2386
6455.00,1.2414
6454.00,1.2437
6453.00,1.2458
6452.00,1.2476
6451.00,1.2491
6450.00,1.2500
6449.00,1.2503
6448.00,1.2502
6447.00,1.2498
6446.00,1.2492
6445.00,1.2486
6444.00,1.2480
6443.00,1.2471
6442.00,1.2459
6441.00,1.2441
6440.00,1.2417
6439.00,1.2386
6438.00,1.2348
6437.00,1.2304
6436.00,1.2257
6435.00,1.2207
6434.00,1.2154
6433.00,1.2096
6432.00,1.2033
6431.00,1.1968
6430.00,1.1901
6429.00,1.1831
6428.00,1.1758
6427.00,1.1681
6426.00,1.1601
6425.00,1.1517
6424.00,1.1426
6423.00,1.1329
6422.00,1.1231
6421.00,1.1132
6420.00,1.1032
6419.00,1.0928
6418.00,1.0823
6417.00,1.0717
6416.00,1.0608
6415.00,1.0495
6414.00,1.0378
6413.00,1.0260
6412.00,1.0139
6411.00,1.0017
6410.00,0.9894
6409.00,0.9773
6408.00,0.9652
6407.00,0.9531
6406.00,0.9412
6405.00,0.9297
6404.00,0.9184
6403.00,0.9072
6402.00,0.8963
6401.00,0.8856
6400.00,0.8753
6399.00,0.8653
6398.00,0.8556
6397.00,0.8463
6396.00,0.8375
6395.00,0.8292
6394.00,0.8212
6393.00,0.8138
6392.00,0.8070
6391.00,0.8008
6390.00,0.7954
6389.00,0.7906
6388.00,0.7866
6387.00,0.7833
6386.00,0.7806
6385.00,0.7787
6384.00,0.7773
6383.00,0.7766
6382.00,0.7767
6381.00,0.7776
6380.00,0.7792
6379.00,0.7814
6378.00,0.7842
6377.00,0.7876
6376.00,0.7917
6375.00,0.7964
6374.00,0.8016
6373.00,0.8074
6372.00,0.8137
6371.00,0.8205
6370.00,0.8276
6369.00,0.8352
6368.00,0.8433
6367.00,0.8519
6366.00,0.8608
6365.00,0.8701
6364.00,0.8795
6363.00,0.8891
6362.00,0.8987
6361.00,0.9083
6360.00,0.9181
6359.00,0.9282
6358.00,0.9386
6357.00,0.9493
6356.00,0.9600
6355.00,0.9707
6354.00,0.9813
6353.00,0.9918
6352.00,1.0021
6351.00,1.0122
6350.00,1.0225
6349.00,1.0329
6348.00,1.0434
6347.00,1.0537
6346.00,1.0638
6345.00,1.0737
6344.00,1.0834
6343.00,1.0929
6342.00,1.1022
6341.00,1.1112
6340.00,1.1201
6339.00,1.1289
6338.00,1.1377
6337.00,1.1461
6336.00,1.1541
6335.00,1.1616
6334.00,1.1687
6333.00,1.1755
6332.00,1.1819
6331.00,1.1879
6330.00,1.1936
6329.00,1.1992
6328.00,1.2045
6327.00,1.2097
6326.00,1.2144
6325.00,1.2187
6324.00,1.2225
6323.00,1.2260
6322.00,1.2291
6321.00,1.2320
6320.00,1.2347
6319.00,1.2372
6318.00,1.2397
6317.00,1.2419
6316.00,1.2438
6315.00,1.2451
6314.00,1.2454
6313.00,1.2448
6312.00,1.2438
6311.00,1.2428
6310.00,1.2418
6309.00,1.2407
6308.00,1.2393
6307.00,1.2376
6306.00,1.2355
6305.00,1.2328
6304.00,1.2296
6303.00,1.2258
6302.00,1.2214
6301.00,1.2167
6300.00,1.2117
6299.00,1.2064
6298.00,1.2007
6297.00,1.1949
6296.00,1.1890
6295.00,1.1832
6294.00,1.1771
6293.00,1.1705
6292.00,1.1633
6291.00,1.1555
6290.00,1.1475
6289.00,1.1392
6288.00,1.1305
6287.00,1.1213
6286.00,1.1118
6285.00,1.1020
6284.00,1.0918
6283.00,1.0813
6282.00,1.0704
6281.00,1.0594
6280.00,1.0483
6279.00,1.0372
6278.00,1.0260
6277.00,1.0145
6276.00,1.0027
6275.00,0.9908
6274.00,0.9788
6273.00,0.9669
6272.00,0.9549
6271.00,0.9430
6270.00,0.9311
6269.00,0.9194
6268.00,0.9078
6267.00,0.8965
6266.00,0.8855
6265.00,0.8749
6264.00,0.8647
6263.00,0.8549
6262.00,0.8458
6261.00,0.8371
6260.00,0.8286
6259.00,0.8204
6258.00,0.8126
6257.00,0.8055
6256.00,0.7990
6255.00,0.7931
6254.00,0.7878
6253.00,0.7833
6252.00,0.7795
6251.00,0.7765
6250.00,0.7741
6249.00,0.7725
6248.00,0.7716
6247.00,0.7715
6246.00,0.7721
6245.00,0.7734
6244.00,0.7753
6243.00,0.7778
6242.00,0.7809
6241.00,0.7847
6240.00,0.7891
6239.00,0.7941
6238.00,0.7998
6237.00,0.8062
6236.00,0.8132
6235.00,0.8207
6234.00,0.8286
6233.00,0.8371
6232.00,0.8460
6231.00,0.8553
6230.00,0.8648
6229.00,0.8745
6228.00,0.8843
6227.00,0.8943
6226.00,0.9045
6225.00,0.9149
6224.00,0.9254
6223.00,0.9362
6222.00,0.9472
6221.00,0.9581
6220.00,0.9692
6219.00,0.9803
6218.00,0.9915
6217.00,1.0028
6216.00,1.0140
6215.00,1.0250
6214.00,1.0360
6213.00,1.0469
6212.00,1.0577
6211.00,1.0685
6210.00,1.0793
6209.00,1.0899
6208.00,1.1000
6207.00,1.1098
6206.00,1.1192
6205.00,1.1283
6204.00,1.1374
6203.00,1.1465
6202.00,1.1556
6201.00,1.1644
6200.00,1.1729
6199.00,1.1810
6198.00,1.1888
6197.00,1.1965
6196.00,1.2039
6195.00,1.2110
6194.00,1.2178
6193.00,1.2242
6192.00,1.2302
6191.00,1.2356
6190.00,1.2405
6189.00,1.2450
6188.00,1.2492
6187.00,1.2531
6186.00,1.2565
6185.00,1.2598
6184.00,1.2630
6183.00,1.2661
6182.00,1.2689
6181.00,1.2710
6180.00,1.2725
6179.00,1.2735
6178.00,1.2742
6177.00,1.2747
6176.00,1.2750
6175.00,1.2749
6174.00,1.2743
6173.00,1.2729
6172.00,1.2708
6171.00,1.2682
6170.00,1.2651
6169.00,1.2616
6168.00,1.2579
6167.00,1.2545
6166.00,1.2512
6165.00,1.2476
6164.00,1.2431
6163.00,1.2379
6162.00,1.2322
6161.00,1.2259
6160.00,1.2190
6159.00,1.2116
6158.00,1.2042
6157.00,1.1966
6156.00,1.1886
6155.00,1.1803
6154.00,1.1718
6153.00,1.1628
6152.00,1.1531
6151.00,1.1429
6150.00,1.1324
6149.00,1.1219
6148.00,1.1110
6147.00,1.0997
6146.00,1.0880
6145.00,1.0762
6144.00,1.0642
6143.00,1.0520
6142.00,1.0395
6141.00,1.0269
6140.00,1.0144
6139.00,1.0019
6138.00,0.9894
6137.00,0.9767
6136.00,0.9638
6135.00,0.9509
6134.00,0.9381
6133.00,0.9255
6132.00,0.9132
6131.00,0.9013
6130.00,0.8898
6129.00,0.8788
6128.00,0.8680
6127.00,0.8576
6126.00,0.8476
6125.00,0.8381
6124.00,0.8290
6123.00,0.8204
6122.00,0.8123
6121.00,0.8050
6120.00,0.7983
6119.00,0.7924
6118.00,0.7870
6117.00,0.7824
6116.00,0.7786
6115.00,0.7755
6114.00,0.7731
6113.00,0.7714
6112.00,0.7705
6111.00,0.7704
6110.00,0.7714
6109.00,0.7732
6108.00,0.7755
6107.00,0.7785
6106.00,0.7820
6105.00,0.7863
6104.00,0.7912
6103.00,0.7969
6102.00,0.8033
6101.00,0.8103
6100.00,0.8177
6099.00,0.8255
6098.00,0.8336
6097.00,0.8420
6096.00,0.8507
6095.00,0.8598
6094.00,0.8694
6093.00,0.8794
6092.00,0.8896
6091.00,0.8999
6090.00,0.9103
6089.00,0.9209
6088.00,0.9317
6087.00,0.9427
6086.00,0.9537
6085.00,0.9648
6084.00,0.9759
6083.00,0.9869
6082.00,0.9978
6081.00,1.0087
6080.00,1.0194
6079.00,1.0301
6078.00,1.0407
6077.00,1.0513
6076.00,1.0618
6075.00,1.0721
6074.00,1.0822
6073.00,1.0921
6072.00,1.1019
6071.00,1.1117
6070.00,1.1215
6069.00,1.1313
6068.00,1.1408
6067.00,1.1498
6066.00,1.1585
6065.00,1.1669
6064.00,1.1749
6063.00,1.1827
6062.00,1.1902
6061.00,1.1974
6060.00,1.2042
6059.00,1.2106
6058.00,1.2168
6057.00,1.2227
6056.00,1.2284
6055.00,1.2340
6054.00,1.2395
6053.00,1.2450
6052.00,1.2501
6051.00,1.2545
6050.00,1.2585
6049.00,1.2621
6048.00,1.2652
6047.00,1.2677
6046.00,1.2698
6045.00,1.2715
6044.00,1.2732
6043.00,1.2747
6042.00,1.2759
6041.00,1.2767
6040.00,1.2770
6039.00,1.2770
6038.00,1.2765
6037.00,1.2756
6036.00,1.2744
6035.00,1.2726
6034.00,1.2705
6033.00,1.2679
6032.00,1.2648
6031.00,1.2612
6030.00,1.2574
6029.00,1.2532
6028.00,1.2487
6027.00,1.2437
6026.00,1.2381
6025.00,1.2321
6024.00,1.2256
6023.00,1.2186
6022.00,1.2111
6021.00,1.2032
6020.00,1.1950
6019.00,1.1864
6018.00,1.1773
6017.00,1.1677
6016.00,1.1579
6015.00,1.1477
6014.00,1.1372
6013.00,1.1265
6012.00,1.1156
6011.00,1.1044
6010.00,1.0927
6009.00,1.0806
6008.00,1.0681
6007.00,1.0553
6006.00,1.0424
6005.00,1.0293
6004.00,1.0162
6003.00,1.0030
6002.00,0.9897
6001.00,0.9765
6000.00,0.9635
5999.00,0.9506
5998.00,0.9378
5997.00,0.9253
5996.00,0.9129
5995.00,0.9009
5994.00,0.8890
5993.00,0.8773
5992.00,0.8660
5991.00,0.8552
5990.00,0.8450
5989.00,0.8353
5988.00,0.8262
5987.00,0.8176
5986.00,0.8097
5985.00,0.8025
5984.00,0.7958
5983.00,0.7898
5982.00,0.7846
5981.00,0.7803
5980.00,0.7770
5979.00,0.7744
5978.00,0.7727
5977.00,0.7717
5976.00,0.7713
5975.00,0.7717
5974.00,0.7729
5973.00,0.7749
5972.00,0.7777
5971.00,0.7813
5970.00,0.7856
5969.00,0.7907
5968.00,0.7964
5967.00,0.8027
5966.00,0.8096
5965.00,0.8170
5964.00,0.8250
5963.00,0.8334
5962.00,0.8424
5961.00,0.8519
5960.00,0.8618
5959.00,0.8720
5958.00,0.8826
5957.00,0.8933
5956.00,0.9043
5955.00,0.9154
5954.00,0.9269
5953.00,0.9386
5952.00,0.9503
5951.00,0.9619
5950.00,0.9736
5949.00,0.9853
5948.00,0.9971
5947.00,1.0090
5946.00,1.0211
5945.00,1.0333
5944.00,1.0455
5943.00,1.0577
5942.00,1.0696
5941.00,1.0814
5940.00,1.0928
5939.00,1.1040
5938.00,1.1150
5937.00,1.1257
5936.00,1.1362
5935.00,1.1467
5934.00,1.1571
5933.00,1.1675
5932.00,1.1774
5931.00,1.1868
5930.00,1.1956
5929.00,1.2041
5928.00,1.2124
5927.00,1.2206
5926.00,1.2286
5925.00,1.2366
5924.00,1.2444
5923.00,1.2520
5922.00,1.2591
5921.00,1.2656
5920.00,1.2716
5919.00,1.2771
5918.00,1.2822
5917.00,1.2870
5916.00,1.2916
5915.00,1.2958
5914.00,1.2995
5913.00,1.3024
5912.00,1.3046
5911.00,1.3064
5910.00,1.3080
5909.00,1.3096
5908.00,1.3112
5907.00,1.3127
5906.00,1.3138
5905.00,1.3143
5904.00,1.3137
5903.00,1.3124
5902.00,1.3107
5901.00,1.3085
5900.00,1.3059
5899.00,1.3030
5898.00,1.3000
5897.00,1.2966
5896.00,1.2928
5895.00,1.2886
5894.00,1.2840
5893.00,1.2789
5892.00,1.2732
5891.00,1.2672
5890.00,1.2612
5889.00,1.2551
5888.00,1.2485
5887.00,1.2412
5886.00,1.2334
5885.00,1.2252
5884.00,1.2165
5883.00,1.2073
5882.00,1.1978
5881.00,1.1880
5880.00,1.1778
5879.00,1.1668
5878.00,1.1553
5877.00,1.1434
5876.00,1.1315
5875.00,1.1195
5874.00,1.1074
5873.00,1.0951
5872.00,1.0827
5871.00,1.0700
5870.00,1.0571
5869.00,1.0440
5868.00,1.0309
5867.00,1.0179
5866.00,1.0050
5865.00,0.9918
5864.00,0.9785
5863.00,0.9652
5862.00,0.9520
5861.00,0.9391
5860.00,0.9264
5859.00,0.9142
5858.00,0.9025
5857.00,0.8911
5856.00,0.8801
5855.00,0.8694
5854.00,0.8591
5853.00,0.8494
5852.00,0.8403
5851.00,0.8319
5850.00,0.8243
5849.00,0.8174
5848.00,0.8112
5847.00,0.8056
5846.00,0.8007
5845.00,0.7964
5844.00,0.7928
5843.00,0.7900
5842.00,0.7881
5841.00,0.7873
5840.00,0.7874
5839.00,0.7883
5838.00,0.7900
5837.00,0.7925
5836.00,0.7957
5835.00,0.7995
5834.00,0.8041
5833.00,0.8093
5832.00,0.8152
5831.00,0.8218
5830.00,0.8289
5829.00,0.8366
5828.00,0.8447
5827.00,0.8533
5826.00,0.8624
5825.00,0.8719
5824.00,0.8818
5823.00,0.8920
5822.00,0.9026
5821.00,0.9135
5820.00,0.9246
5819.00,0.9360
5818.00,0.9475
5817.00,0.9592
5816.00,0.9710
5815.00,0.9828
5814.00,0.9948
5813.00,1.0067
5812.00,1.0186
5811.00,1.0305
5810.00,1.0424
5809.00,1.0542
5808.00,1.0659
5807.00,1.0775
5806.00,1.0891
5805.00,1.1007
5804.00,1.1121
5803.00,1.1233
5802.00,1.1342
5801.00,1.1450
5800.00,1.1556
5799.00,1.1658
5798.00,1.1758
5797.00,1.1855
5796.00,1.1950
5795.00,1.2043
5794.00,1.2134
5793.00,1.2223
5792.00,1.2308
5791.00,1.2387
5790.00,1.2463
5789.00,1.2536
5788.00,1.2607
5787.00,1.2678
5786.00,1.2749
5785.00,1.2818
5784.00,1.2882
5783.00,1.2939
5782.00,1.2989
5781.00,1.3032
5780.00,1.3070
5779.00,1.3105
5778.00,1.3140
5777.00,1.3172
5776.00,1.3200
5775.00,1.3223
5774.00,1.3242
5773.00,1.3260
5772.00,1.3273
5771.00,1.3281
5770.00,1.3285
5769.00,1.3286
5768.00,1.3284
5767.00,1.3276
5766.00,1.3265
5765.00,1.3252
5764.00,1.3235
5763.00,1.3212
5762.00,1.3180
5761.00,1.3139
5760.00,1.3093
5759.00,1.3044
5758.00,1.2994
5757.00,1.2943
5756.00,1.2890
5755.00,1.2833
5754.00,1.2774
5753.00,1.2711
5752.00,1.2643
5751.00,1.2571
5750.00,1.2495
5749.00,1.2414
5748.00,1.2328
5747.00,1.2236
5746.00,1.2138
5745.00,1.2037
5744.00,1.1932
5743.00,1.1823
5742.00,1.1710
5741.00,1.1593
5740.00,1.1473
5739.00,1.1350
5738.00,1.1225
5737.00,1.1097
5736.00,1.0968
5735.00,1.0837
5734.00,1.0704
5733.00,1.0570
5732.00,1.0433
5731.00,1.0295
5730.00,1.0158
5729.00,1.0022
5728.00,0.9886
5727.00,0.9750
5726.00,0.9614
5725.00,0.9478
5724.00,0.9345
5723.00,0.9213
5722.00,0.9085
5721.00,0.8962
5720.00,0.8844
5719.00,0.8731
5718.00,0.8623
5717.00,0.8520
5716.00,0.8422
5715.00,0.8330
5714.00,0.8244
5713.00,0.8166
5712.00,0.8094
5711.00,0.8030
5710.00,0.7975
5709.00,0.7928
5708.00,0.7890
5707.00,0.7860
5706.00,0.7837
5705.00,0.7824
5704.00,0.7821
5703.00,0.7826
5702.00,0.7841
5701.00,0.7864
5700.00,0.7895
5699.00,0.7933
5698.00,0.7978
5697.00,0.8030
5696.00,0.8091
5695.00,0.8158
5694.00,0.8233
5693.00,0.8315
5692.00,0.8403
5691.00,0.8494
5690.00,0.8588
5689.00,0.8686
5688.00,0.8787
5687.00,0.8893
5686.00,0.9003
5685.00,0.9117
5684.00,0.9235
5683.00,0.9355
5682.00,0.9477
5681.00,0.9602
5680.00,0.9727
5679.00,0.9852
5678.00,0.9976
5677.00,1.0099
5676.00,1.0222
5675.00,1.0344
5674.00,1.0467
5673.00,1.0591
5672.00,1.0717
5671.00,1.0842
5670.00,1.0964
5669.00,1.1083
5668.00,1.1199
5667.00,1.1314
5666.00,1.1428
5665.00,1.1539
5664.00,1.1649
5663.00,1.1757
5662.00,1.1863
5661.00,1.1967
5660.00,1.2069
5659.00,1.2167
5658.00,1.2261
5657.00,1.2350
5656.00,1.2435
5655.00,1.2516
5654.00,1.2596
5653.00,1.2673
5652.00,1.2748
5651.00,1.2819
5650.00,1.2884
5649.00,1.2942
5648.00,1.2995
5647.00,1.3046
5646.00,1.3094
5645.00,1.3138
5644.00,1.3177
5643.00,1.3212
5642.00,1.3243
5641.00,1.3268
5640.00,1.3289
5639.00,1.3307
5638.00,1.3323
5637.00,1.3336
5636.00,1.3345
5635.00,1.3346
5634.00,1.3340
5633.00,1.3328
5632.00,1.3315
5631.00,1.3301
5630.00,1.3288
5629.00,1.3272
5628.00,1.3250
5627.00,1.3220
5626.00,1.3179
5625.00,1.3129
5624.00,1.3076
5623.00,1.3026
5622.00,1.2980
5621.00,1.2933
5620.00,1.2883
5619.00,1.2827
5618.00,1.2766
5617.00,1.2698
5616.00,1.2624
5615.00,1.2545
5614.00,1.2462
5613.00,1.2375
5612.00,1.2284
5611.00,1.2190
5610.00,1.2095
5609.00,1.1997
5608.00,1.1894
5607.00,1.1788
5606.00,1.1676
5605.00,1.1560
5604.00,1.1439
5603.00,1.1314
5602.00,1.1187
5601.00,1.1059
5600.00,1.0928
5599.00,1.0795
5598.00,1.0659
5597.00,1.0519
5596.00,1.0375
5595.00,1.0228
5594.00,1.0081
5593.00,0.9936
5592.00,0.9791
5591.00,0.9648
5590.00,0.9507
5589.00,0.9368
5588.00,0.9231
5587.00,0.9097
5586.00,0.8966
5585.00,0.8839
5584.00,0.8715
5583.00,0.8597
5582.00,0.8483
5581.00,0.8376
5580.00,0.8275
5579.00,0.8181
5578.00,0.8094
5577.00,0.8016
5576.00,0.7945
5575.00,0.7884
5574.00,0.7831
5573.00,0.7788
5572.00,0.7753
5571.00,0.7728
5570.00,0.7711
5569.00,0.7705
5568.00,0.7708
5567.00,0.7721
5566.00,0.7742
5565.00,0.7773
5564.00,0.7812
5563.00,0.7860
5562.00,0.7915
5561.00,0.7977
5560.00,0.8047
5559.00,0.8124
5558.00,0.8208
5557.00,0.8298
5556.00,0.8395
5555.00,0.8497
5554.00,0.8604
5553.00,0.8715
5552.00,0.8829
5551.00,0.8947
5550.00,0.9067
5549.00,0.9191
5548.00,0.9316
5547.00,0.9444
5546.00,0.9573
5545.00,0.9705
5544.00,0.9837
5543.00,0.9970
5542.00,1.0102
5541.00,1.0234
5540.00,1.0365
5539.00,1.0496
5538.00,1.0625
5537.00,1.0753
5536.00,1.0880
5535.00,1.1008
5534.00,1.1135
5533.00,1.1262
5532.00,1.1388
5531.00,1.1512
5530.00,1.1634
5529.00,1.1750
5528.00,1.1861
5527.00,1.1968
5526.00,1.2073
5525.00,1.2178
5524.00,1.2282
5523.00,1.2383
5522.00,1.2481
5521.00,1.2576
5520.00,1.2667
5519.00,1.2752
5518.00,1.2832
5517.00,1.2907
5516.00,1.2979
5515.00,1.3049
5514.00,1.3116
5513.00,1.3179
5512.00,1.3239
5511.00,1.3295
5510.00,1.3344
5509.00,1.3388
5508.00,1.3428
5507.00,1.3466
5506.00,1.3503
5505.00,1.3538
5504.00,1.3568
5503.00,1.3594
5502.00,1.3615
5501.00,1.3629
5500.00,1.3638
5499.00,1.3643
5498.00,1.3645
5497.00,1.3643
5496.00,1.3637
5495.00,1.3625
5494.00,1.3608
5493.00,1.3584
5492.00,1.3554
5491.00,1.3518
5490.00,1.3479
5489.00,1.3438
5488.00,1.3393
5487.00,1.3346
5486.00,1.3296
5485.00,1.3243
5484.00,1.3186
5483.00,1.3122
5482.00,1.3051
5481.00,1.2975
5480.00,1.2894
5479.00,1.2810
5478.00,1.2722
5477.00,1.2631
5476.00,1.2534
5475.00,1.2430
5474.00,1.2322
5473.00,1.2210
5472.00,1.2095
5471.00,1.1976
5470.00,1.1852
5469.00,1.1724
5468.00,1.1592
5467.00,1.1456
5466.00,1.1318
5465.00,1.1177
5464.00,1.1033
5463.00,1.0886
5462.00,1.0736
5461.00,1.0585
5460.00,1.0432
5459.00,1.0278
5458.00,1.0124
5457.00,0.9970
5456.00,0.9816
5455.00,0.9664
5454.00,0.9514
5453.00,0.9367
5452.00,0.9223
5451.00,0.9082
5450.00,0.8942
5449.00,0.8807
5448.00,0.8676
5447.00,0.8550
5446.00,0.8430
5445.00,0.8317
5444.00,0.8211
5443.00,0.8113
5442.00,0.8023
5441.00,0.7941
5440.00,0.7869
5439.00,0.7806
5438.00,0.7753
5437.00,0.7711
5436.00,0.7678
5435.00,0.7654
5434.00,0.7640
5433.00,0.7636
5432.00,0.7644
5431.00,0.7661
5430.00,0.7687
5429.00,0.7721
5428.00,0.7763
5427.00,0.7814
5426.00,0.7874
5425.00,0.7942
5424.00,0.8017
5423.00,0.8099
5422.00,0.8189
5421.00,0.8285
5420.00,0.8386
5419.00,0.8490
5418.00,0.8598
5417.00,0.8711
5416.00,0.8827
5415.00,0.8947
5414.00,0.9070
5413.00,0.9197
5412.00,0.9326
5411.00,0.9455
5410.00,0.9587
5409.00,0.9720
5408.00,0.9855
5407.00,0.9992
5406.00,1.0128
5405.00,1.0263
5404.00,1.0398
5403.00,1.0534
5402.00,1.0669
5401.00,1.0802
5400.00,1.0934
5399.00,1.1063
5398.00,1.1191
5397.00,1.1318
5396.00,1.1444
5395.00,1.1568
5394.00,1.1691
5393.00,1.1811
5392.00,1.1928
5391.00,1.2040
5390.00,1.2149
5389.00,1.2254
5388.00,1.2356
5387.00,1.2457
5386.00,1.2557
5385.00,1.2656
5384.00,1.2753
5383.00,1.2846
5382.00,1.2935
5381.00,1.3017
5380.00,1.3093
5379.00,1.3165
5378.00,1.3232
5377.00,1.3295
5376.00,1.3354
5375.00,1.3409
5374.00,1.3464
5373.00,1.3519
5372.00,1.3571
5371.00,1.3618
5370.00,1.3657
5369.00,1.3690
5368.00,1.3717
5367.00,1.3739
5366.00,1.3758
5365.00,1.3775
5364.00,1.3790
5363.00,1.3800
5362.00,1.3803
5361.00,1.3800
5360.00,1.3791
5359.00,1.3778
5358.00,1.3758
5357.00,1.3734
5356.00,1.3706
5355.00,1.3675
5354.00,1.3639
5353.00,1.3596
5352.00,1.3550
5351.00,1.3500
5350.00,1.3448
5349.00,1.3390
5348.00,1.3328
5347.00,1.3263
5346.00,1.3191
5345.00,1.3112
5344.00,1.3025
5343.00,1.2936
5342.00,1.2847
5341.00,1.2757
5340.00,1.2662
5339.00,1.2558
5338.00,1.2447
5337.00,1.2330
5336.00,1.2207
5335.00,1.2082
5334.00,1.1955
5333.00,1.1825
5332.00,1.1690
5331.00,1.1552
5330.00,1.1411
5329.00,1.1267
5328.00,1.1117
5327.00,1.0962
5326.00,1.0804
5325.00,1.0644
5324.00,1.0485
5323.00,1.0326
5322.00,1.0167
5321.00,1.0009
5320.00,0.9852
5319.00,0.9696
5318.00,0.9541
5317.00,0.9388
5316.00,0.9237
5315.00,0.9089
5314.00,0.8947
5313.00,0.8810
5312.00,0.8678
5311.00,0.8552
5310.00,0.8432
5309.00,0.8320
5308.00,0.8216
5307.00,0.8119
5306.00,0.8032
5305.00,0.7954
5304.00,0.7886
5303.00,0.7827
5302.00,0.7779
5301.00,0.7742
5300.00,0.7716
5299.00,0.7702
5298.00,0.7698
5297.00,0.7704
5296.00,0.7721
5295.00,0.7747
5294.00,0.7782
5293.00,0.7828
5292.00,0.7882
5291.00,0.7946
5290.00,0.8018
5289.00,0.8099
5288.00,0.8187
5287.00,0.8283
5286.00,0.8385
5285.00,0.8493
5284.00,0.8606
5283.00,0.8725
5282.00,0.8849
5281.00,0.8977
5280.00,0.9109
5279.00,0.9243
5278.00,0.9380
5277.00,0.9519
5276.00,0.9660
5275.00,0.9802
5274.00,0.9945
5273.00,1.0088
5272.00,1.0232
5271.00,1.0377
5270.00,1.0521
5269.00,1.0664
5268.00,1.0807
5267.00,1.0949
5266.00,1.1090
5265.00,1.1228
5264.00,1.1366
5263.00,1.1502
5262.00,1.1636
5261.00,1.1766
5260.00,1.1893
5259.00,1.2018
5258.00,1.2139
5257.00,1.2257
5256.00,1.2373
5255.00,1.2487
5254.00,1.2599
5253.00,1.2708
5252.00,1.2814
5251.00,1.2914
5250.00,1.3008
5249.00,1.3097
5248.00,1.3182
5247.00,1.3266
5246.00,1.3349
5245.00,1.3429
5244.00,1.3505
5243.00,1.3575
5242.00,1.3641
5241.00,1.3703
5240.00,1.3760
5239.00,1.3812
5238.00,1.3860
5237.00,1.3905
5236.00,1.3948
5235.00,1.3986
5234.00,1.4018
5233.00,1.4042
5232.00,1.4060
5231.00,1.4075
5230.00,1.4089
5229.00,1.4102
5228.00,1.4111
5227.00,1.4115
5226.00,1.4111
5225.00,1.4101
5224.00,1.4087
5223.00,1.4070
5222.00,1.4047
5221.00,1.4018
5220.00,1.3983
5219.00,1.3943
5218.00,1.3901
5217.00,1.3857
5216.00,1.3810
5215.00,1.3758
5214.00,1.3700
5213.00,1.3637
5212.00,1.3570
5211.00,1.3499
5210.00,1.3424
5209.00,1.3343
5208.00,1.3257
5207.00,1.3164
5206.00,1.3068
5205.00,1.2969
5204.00,1.2865
5203.00,1.2756
5202.00,1.2641
5201.00,1.2519
5200.00,1.2392
5199.00,1.2262
5198.00,1.2128
5197.00,1.1992
5196.00,1.1853
5195.00,1.1710
5194.00,1.1563
5193.00,1.1410
5192.00,1.1252
5191.00,1.1092
5190.00,1.0930
5189.00,1.0767
5188.00,1.0604
5187.00,1.0438
5186.00,1.0271
5185.00,1.0102
5184.00,0.9935
5183.00,0.9770
5182.00,0.9607
5181.00,0.9448
5180.00,0.9290
5179.00,0.9136
5178.00,0.8986
5177.00,0.8842
5176.00,0.8705
5175.00,0.8574
5174.00,0.8450
5173.00,0.8333
5172.00,0.8224
5171.00,0.8123
5170.00,0.8032
5169.00,0.7950
5168.00,0.7878
5167.00,0.7818
5166.00,0.7768
5165.00,0.7729
5164.00,0.7701
5163.00,0.7684
5162.00,0.7677
5161.00,0.7682
5160.00,0.7699
5159.00,0.7727
5158.00,0.7765
5157.00,0.7814
5156.00,0.7873
5155.00,0.7941
5154.00,0.8017
5153.00,0.8102
5152.00,0.8195
5151.00,0.8295
5150.00,0.8402
5149.00,0.8515
5148.00,0.8634
5147.00,0.8758
5146.00,0.8886
5145.00,0.9017
5144.00,0.9152
5143.00,0.9290
5142.00,0.9432
5141.00,0.9577
5140.00,0.9724
5139.00,0.9872
5138.00,1.0021
5137.00,1.0170
5136.00,1.0319
5135.00,1.0468
5134.00,1.0617
5133.00,1.0767
5132.00,1.0915
5131.00,1.1061
5130.00,1.1207
5129.00,1.1351
5128.00,1.1493
5127.00,1.1633
5126.00,1.1770
5125.00,1.1904
5124.00,1.2034
5123.00,1.2163
5122.00,1.2290
5121.00,1.2416
5120.00,1.2540
5119.00,1.2659
5118.00,1.2773
5117.00,1.2881
5116.00,1.2985
5115.00,1.3085
5114.00,1.3182
5113.00,1.3277
5112.00,1.3372
5111.00,1.3464
5110.00,1.3553
5109.00,1.3635
5108.00,1.3711
5107.00,1.3781
5106.00,1.3847
5105.00,1.3911
5104.00,1.3972
5103.00,1.4029
5102.00,1.4081
5101.00,1.4126
5100.00,1.4164
5099.00,1.4196
5098.00,1.4222
5097.00,1.4245
5096.00,1.4268
5095.00,1.4289
5094.00,1.4308
5093.00,1.4323
5092.00,1.4332
5091.00,1.4333
5090.00,1.4327
5089.00,1.4318
5088.00,1.4306
5087.00,1.4291
5086.00,1.4272
5085.00,1.4246
5084.00,1.4216
5083.00,1.4180
5082.00,1.4138
5081.00,1.4090
5080.00,1.4036
5079.00,1.3977
5078.00,1.3916
5077.00,1.3852
5076.00,1.3784
5075.00,1.3713
5074.00,1.3636
5073.00,1.3553
5072.00,1.3463
5071.00,1.3368
5070.00,1.3269
5069.00,1.3165
5068.00,1.3056
5067.00,1.2941
5066.00,1.2820
5065.00,1.2694
5064.00,1.2564
5063.00,1.2431
5062.00,1.2294
5061.00,1.2151
5060.00,1.2003
5059.00,1.1849
5058.00,1.1692
5057.00,1.1531
5056.00,1.1367
5055.00,1.1200
5054.00,1.1030
5053.00,1.0859
5052.00,1.0687
5051.00,1.0514
5050.00,1.0340
5049.00,1.0166
5048.00,0.9991
5047.00,0.9817
5046.00,0.9644
5045.00,0.9475
5044.00,0.9310
5043.00,0.9149
5042.00,0.8993
5041.00,0.8844
5040.00,0.8700
5039.00,0.8564
5038.00,0.8435
5037.00,0.8314
5036.00,0.8202
5035.00,0.8100
5034.00,0.8009
5033.00,0.7929
5032.00,0.7861
5031.00,0.7804
5030.00,0.7759
5029.00,0.7726
5028.00,0.7705
5027.00,0.7696
5026.00,0.7699
5025.00,0.7714
5024.00,0.7741
5023.00,0.7780
5022.00,0.7830
5021.00,0.7890
5020.00,0.7961
5019.00,0.8041
5018.00,0.8131
5017.00,0.8229
5016.00,0.8336
5015.00,0.8449
5014.00,0.8568
5013.00,0.8693
5012.00,0.8824
5011.00,0.8961
5010.00,0.9102
5009.00,0.9247
5008.00,0.9396
5007.00,0.9547
5006.00,0.9700
5005.00,0.9855
5004.00,1.0012
5003.00,1.0170
5002.00,1.0329
5001.00,1.0488
5000.00,1.0647
4999.00,1.0805
4998.00,1.0962
4997.00,1.1118
4996.00,1.1272
4995.00,1.1425
4994.00,1.1576
4993.00,1.1726
4992.00,1.1873
4991.00,1.2019
4990.00,1.2163
4989.00,1.2302
4988.00,1.2438
4987.00,1.2570
4986.00,1.2699
4985.00,1.2825
4984.00,1.2946
4983.00,1.3063
4982.00,1.3175
4981.00,1.3283
4980.00,1.3388
4979.00,1.3490
4978.00,1.3587
4977.00,1.3681
4976.00,1.3769
4975.00,1.3852
4974.00,1.3934
4973.00,1.4014
4972.00,1.4093
4971.00,1.4168
4970.00,1.4234
4969.00,1.4292
4968.00,1.4342
4967.00,1.4389
4966.00,1.4433
4965.00,1.4473
4964.00,1.4509
4963.00,1.4541
4962.00,1.4569
4961.00,1.4592
4960.00,1.4611
4959.00,1.4623
4958.00,1.4628
4957.00,1.4628
4956.00,1.4623
4955.00,1.4616
4954.00,1.4608
4953.00,1.4599
4952.00,1.4584
4951.00,1.4564
4950.00,1.4539
4949.00,1.4509
4948.00,1.4474
4947.00,1.4432
4946.00,1.4383
4945.00,1.4328
4944.00,1.4267
4943.00,1.4203
4942.00,1.4136
4941.00,1.4064
4940.00,1.3986
4939.00,1.3903
4938.00,1.3816
4937.00,1.3725
4936.00,1.3631
4935.00,1.3533
4934.00,1.3430
4933.00,1.3320
4932.00,1.3204
4931.00,1.3081
4930.00,1.2954
4929.00,1.2821
4928.00,1.2681
4927.00,1.2535
4926.00,1.2384
4925.00,1.2229
4924.00,1.2070
4923.00,1.1907
4922.00,1.1742
4921.00,1.1574
4920.00,1.1401
4919.00,1.1223
4918.00,1.1043
4917.00,1.0860
4916.00,1.0677
4915.00,1.0493
4914.00,1.0308
4913.00,1.0122
4912.00,0.9937
4911.00,0.9753
4910.00,0.9573
4909.00,0.9397
4908.00,0.9225
4907.00,0.9058
4906.00,0.8896
4905.00,0.8740
4904.00,0.8590
4903.00,0.8449
4902.00,0.8317
4901.00,0.8194
4900.00,0.8081
4899.00,0.7979
4898.00,0.7889
4897.00,0.7811
4896.00,0.7745
4895.00,0.7693
4894.00,0.7654
4893.00,0.7628
4892.00,0.7615
4891.00,0.7615
4890.00,0.7628
4889.00,0.7654
4888.00,0.7692
4887.00,0.7743
4886.00,0.7807
4885.00,0.7882
4884.00,0.7967
4883.00,0.8063
4882.00,0.8167
4881.00,0.8280
4880.00,0.8400
4879.00,0.8528
4878.00,0.8662
4877.00,0.8802
4876.00,0.8946
4875.00,0.9095
4874.00,0.9249
4873.00,0.9405
4872.00,0.9565
4871.00,0.9726
4870.00,0.9888
4869.00,1.0052
4868.00,1.0216
4867.00,1.0382
4866.00,1.0548
4865.00,1.0715
4864.00,1.0881
4863.00,1.1046
4862.00,1.1210
4861.00,1.1373
4860.00,1.1535
4859.00,1.1694
4858.00,1.1851
4857.00,1.2005
4856.00,1.2157
4855.00,1.2306
4854.00,1.2452
4853.00,1.2594
4852.00,1.2731
4851.00,1.2862
4850.00,1.2990
4849.00,1.3116
4848.00,1.3240
4847.00,1.3362
4846.00,1.3482
4845.00,1.3599
4844.00,1.3712
4843.00,1.3818
4842.00,1.3917
4841.00,1.4010
4840.00,1.4099
4839.00,1.4185
4838.00,1.4267
4837.00,1.4344
4836.00,1.4414
4835.00,1.4480
4834.00,1.4542
4833.00,1.4600
4832.00,1.4656
4831.00,1.4708
4830.00,1.4756
4829.00,1.4799
4828.00,1.4837
4827.00,1.4870
4826.00,1.4896
4825.00,1.4914
4824.00,1.4926
4823.00,1.4934
4822.00,1.4940
4821.00,1.4942
4820.00,1.4939
4819.00,1.4929
4818.00,1.4915
4817.00,1.4897
4816.00,1.4875
4815.00,1.4850
4814.00,1.4820
4813.00,1.4786
4812.00,1.4745
4811.00,1.4700
4810.00,1.4652
4809.00,1.4599
4808.00,1.4541
4807.00,1.4476
4806.00,1.4406
4805.00,1.4330
4804.00,1.4249
4803.00,1.4163
4802.00,1.4073
4801.00,1.3978
4800.00,1.3877
4799.00,1.3770
4798.00,1.3658
4797.00,1.3542
4796.00,1.3421
4795.00,1.3293
4794.00,1.3158
4793.00,1.3016
4792.00,1.2869
4791.00,1.2718
4790.00,1.2563
4789.00,1.2405
4788.00,1.2242
4787.00,1.2074
4786.00,1.1900
4785.00,1.1720
4784.00,1.1536
4783.00,1.1347
4782.00,1.1156
4781.00,1.0964
4780.00,1.0771
4779.00,1.0577
4778.00,1.0382
4777.00,1.0188
4776.00,0.9995
4775.00,0.9804
4774.00,0.9617
4773.00,0.9434
4772.00,0.9255
4771.00,0.9082
4770.00,0.8916
4769.00,0.8757
4768.00,0.8606
4767.00,0.8465
4766.00,0.8334
4765.00,0.8213
4764.00,0.8103
4763.00,0.8005
4762.00,0.7920
4761.00,0.7850
4760.00,0.7793
4759.00,0.7750
4758.00,0.7722
4757.00,0.7707
4756.00,0.7708
4755.00,0.7722
4754.00,0.7751
4753.00,0.7793
4752.00,0.7848
4751.00,0.7916
4750.00,0.7995
4749.00,0.8087
4748.00,0.8189
4747.00,0.8300
4746.00,0.8421
4745.00,0.8550
4744.00,0.8686
4743.00,0.8828
4742.00,0.8975
4741.00,0.9128
4740.00,0.9285
4739.00,0.9447
4738.00,0.9612
4737.00,0.9780
4736.00,0.9951
4735.00,1.0123
4734.00,1.0296
4733.00,1.0470
4732.00,1.0645
4731.00,1.0821
4730.00,1.0996
4729.00,1.1169
4728.00,1.1342
4727.00,1.1511
4726.00,1.1679
4725.00,1.1846
4724.00,1.2011
4723.00,1.2174
4722.00,1.2334
4721.00,1.2490
4720.00,1.2641
4719.00,1.2790
4718.00,1.2937
4717.00,1.3082
4716.00,1.3224
4715.00,1.3361
4714.00,1.3495
4713.00,1.3625
4712.00,1.3752
4711.00,1.3875
4710.00,1.3993
4709.00,1.4103
4708.00,1.4204
4707.00,1.4300
4706.00,1.4392
4705.00,1.4482
4704.00,1.4570
4703.00,1.4653
4702.00,1.4731
4701.00,1.4804
4700.00,1.4872
4699.00,1.4936
4698.00,1.4995
4697.00,1.5049
4696.00,1.5098
4695.00,1.5141
4694.00,1.5181
4693.00,1.5217
4692.00,1.5249
4691.00,1.5276
4690.00,1.5296
4689.00,1.5311
4688.00,1.5320
4687.00,1.5326
4686.00,1.5326
4685.00,1.5321
4684.00,1.5310
4683.00,1.5295
4682.00,1.5276
4681.00,1.5254
4680.00,1.5227
4679.00,1.5197
4678.00,1.5163
4677.00,1.5126
4676.00,1.5083
4675.00,1.5034
4674.00,1.4979
4673.00,1.4919
4672.00,1.4853
4671.00,1.4783
4670.00,1.4708
4669.00,1.4627
4668.00,1.4541
4667.00,1.4449
4666.00,1.4352
4665.00,1.4251
4664.00,1.4147
4663.00,1.4037
4662.00,1.3922
4661.00,1.3799
4660.00,1.3668
4659.00,1.3531
4658.00,1.3388
4657.00,1.3242
4656.00,1.3092
4655.00,1.2936
4654.00,1.2773
4653.00,1.2603
4652.00,1.2426
4651.00,1.2244
4650.00,1.2057
4649.00,1.1868
4648.00,1.1675
4647.00,1.1479
4646.00,1.1279
4645.00,1.1078
4644.00,1.0875
4643.00,1.0670
4642.00,1.0465
4641.00,1.0260
4640.00,1.0056
4639.00,0.9855
4638.00,0.9658
4637.00,0.9465
4636.00,0.9278
4635.00,0.9098
4634.00,0.8924
4633.00,0.8760
4632.00,0.8605
4631.00,0.8462
4630.00,0.8330
4629.00,0.8211
4628.00,0.8103
4627.00,0.8010
4626.00,0.7930
4625.00,0.7866
4624.00,0.7817
4623.00,0.7783
4622.00,0.7766
4621.00,0.7763
4620.00,0.7776
4619.00,0.7803
4618.00,0.7845
4617.00,0.7901
4616.00,0.7971
4615.00,0.8054
4614.00,0.8148
4613.00,0.8254
4612.00,0.8370
4611.00,0.8496
4610.00,0.8630
4609.00,0.8772
4608.00,0.8921
4607.00,0.9075
4606.00,0.9234
4605.00,0.9398
4604.00,0.9566
4603.00,0.9737
4602.00,0.9911
4601.00,1.0087
4600.00,1.0265
4599.00,1.0444
4598.00,1.0625
4597.00,1.0808
4596.00,1.0990
4595.00,1.1172
4594.00,1.1352
4593.00,1.1529
4592.00,1.1705
4591.00,1.1879
4590.00,1.2053
4589.00,1.2226
4588.00,1.2397
4587.00,1.2564
4586.00,1.2727
4585.00,1.2886
4584.00,1.3041
4583.00,1.3193
4582.00,1.3342
4581.00,1.3487
4580.00,1.3628
4579.00,1.3764
4578.00,1.3897
4577.00,1.4024
4576.00,1.4147
4575.00,1.4266
4574.00,1.4381
4573.00,1.4492
4572.00,1.4598
4571.00,1.4698
4570.00,1.4794
4569.00,1.4886
4568.00,1.4973
4567.00,1.5056
4566.00,1.5132
4565.00,1.5202
4564.00,1.5265
4563.00,1.5324
4562.00,1.5380
4561.00,1.5432
4560.00,1.5479
4559.00,1.5520
4558.00,1.5557
4557.00,1.5587
4556.00,1.5612
4555.00,1.5632
4554.00,1.5650
4553.00,1.5662
4552.00,1.5670
4551.00,1.5672
4550.00,1.5668
4549.00,1.5659
4548.00,1.5647
4547.00,1.5631
4546.00,1.5610
4545.00,1.5583
4544.00,1.5551
4543.00,1.5514
4542.00,1.5473
4541.00,1.5427
4540.00,1.5375
4539.00,1.5318
4538.00,1.5257
4537.00,1.5191
4536.00,1.5121
4535.00,1.5047
4534.00,1.4968
4533.00,1.4883
4532.00,1.4792
4531.00,1.4694
4530.00,1.4592
4529.00,1.4485
4528.00,1.4373
4527.00,1.4254
4526.00,1.4127
4525.00,1.3992
4524.00,1.3849
4523.00,1.3701
4522.00,1.3549
4521.00,1.3394
4520.00,1.3233
4519.00,1.3066
4518.00,1.2891
4517.00,1.2709
4516.00,1.2520
4515.00,1.2327
4514.00,1.2131
4513.00,1.1930
4512.00,1.1726
4511.00,1.1518
4510.00,1.1308
4509.00,1.1095
4508.00,1.0879
4507.00,1.0661
4506.00,1.0443
4505.00,1.0227
4504.00,1.0014
4503.00,0.9805
4502.00,0.9602
4501.00,0.9405
4500.00,0.9215
4499.00,0.9031
4498.00,0.8857
4497.00,0.8693
4496.00,0.8541
4495.00,0.8401
4494.00,0.8274
4493.00,0.8162
4492.00,0.8064
4491.00,0.7982
4490.00,0.7916
4489.00,0.7868
4488.00,0.7836
4487.00,0.7821
4486.00,0.7823
4485.00,0.7841
4484.00,0.7876
4483.00,0.7926
4482.00,0.7993
4481.00,0.8074
4480.00,0.8169
4479.00,0.8276
4478.00,0.8394
4477.00,0.8524
4476.00,0.8663
4475.00,0.8811
4474.00,0.8968
4473.00,0.9131
4472.00,0.9301
4471.00,0.9476
4470.00,0.9656
4469.00,0.9842
4468.00,1.0030
4467.00,1.0220
4466.00,1.0411
4465.00,1.0602
4464.00,1.0794
4463.00,1.0987
4462.00,1.1182
4461.00,1.1377
4460.00,1.1570
4459.00,1.1760
4458.00,1.1947
4457.00,1.2132
4456.00,1.2316
4455.00,1.2497
4454.00,1.2675
4453.00,1.2849
4452.00,1.3018
4451.00,1.3184
4450.00,1.3348
4449.00,1.3509
4448.00,1.3668
4447.00,1.3822
4446.00,1.3972
4445.00,1.4117
4444.00,1.4257
4443.00,1.4393
4442.00,1.4524
4441.00,1.4650
4440.00,1.4770
4439.00,1.4885
4438.00,1.4994
4437.00,1.5100
4436.00,1.5202
4435.00,1.5298
4434.00,1.5387
4433.00,1.5467
4432.00,1.5541
4431.00,1.5610
4430.00,1.5677
4429.00,1.5742
4428.00,1.5802
4427.00,1.5854
4426.00,1.5898
4425.00,1.5936
4424.00,1.5973
4423.00,1.6008
4422.00,1.6039
4421.00,1.6063
4420.00,1.6080
4419.00,1.6090
4418.00,1.6095
4417.00,1.6096
4416.00,1.6094
4415.00,1.6089
4414.00,1.6079
4413.00,1.6063
4412.00,1.6041
4411.00,1.6013
4410.00,1.5980
4409.00,1.5940
4408.00,1.5894
4407.00,1.5845
4406.00,1.5793
4405.00,1.5739
4404.00,1.5682
4403.00,1.5620
4402.00,1.5552
4401.00,1.5479
4400.00,1.5400
4399.00,1.5316
4398.00,1.5227
4397.00,1.5132
4396.00,1.5032
4395.00,1.4927
4394.00,1.4818
4393.00,1.4703
4392.00,1.4582
4391.00,1.4453
4390.00,1.4317
4389.00,1.4178
4388.00,1.4035
4387.00,1.3891
4386.00,1.3742
4385.00,1.3589
4384.00,1.3430
4383.00,1.3267
4382.00,1.3099
4381.00,1.2925
4380.00,1.2747
4379.00,1.2566
4378.00,1.2383
4377.00,1.2200
4376.00,1.2015
4375.00,1.1829
4374.00,1.1640
4373.00,1.1451
4372.00,1.1262
4371.00,1.1076
4370.00,1.0892
4369.00,1.0710
4368.00,1.0531
4367.00,1.0355
4366.00,1.0182
4365.00,1.0014
4364.00,0.9851
4363.00,0.9694
4362.00,0.9545
4361.00,0.9404
4360.00,0.9272
4359.00,0.9150
4358.00,0.9038
4357.00,0.8939
4356.00,0.8852
4355.00,0.8779
4354.00,0.8721
4353.00,0.8676
4352.00,0.8647
4351.00,0.8634
4350.00,0.8635
4349.00,0.8652
4348.00,0.8683
4347.00,0.8729
4346.00,0.8788
4345.00,0.8859
4344.00,0.8943
4343.00,0.9037
4342.00,0.9143
4341.00,0.9259
4340.00,0.9384
4339.00,0.9519
4338.00,0.9662
4337.00,0.9813
4336.00,0.9971
4335.00,1.0134
4334.00,1.0304
4333.00,1.0479
4332.00,1.0659
4331.00,1.0843
4330.00,1.1029
4329.00,1.1218
4328.00,1.1407
4327.00,1.1598
4326.00,1.1790
4325.00,1.1981
4324.00,1.2172
4323.00,1.2362
4322.00,1.2550
4321.00,1.2736
4320.00,1.2920
4319.00,1.3101
4318.00,1.3278
4317.00,1.3452
4316.00,1.3623
4315.00,1.3790
4314.00,1.3954
4313.00,1.4114
4312.00,1.4269
4311.00,1.4418
4310.00,1.4561
4309.00,1.4699
4308.00,1.4832
4307.00,1.4962
4306.00,1.5086
4305.00,1.5206
4304.00,1.5319
4303.00,1.5429
4302.00,1.5535
4301.00,1.5638
4300.00,1.5737
4299.00,1.5832
4298.00,1.5921
4297.00,1.6003
4296.00,1.6079
4295.00,1.6150
4294.00,1.6216
4293.00,1.6277
4292.00,1.6334
4291.00,1.6385
4290.00,1.6430
4289.00,1.6469
4288.00,1.6501
4287.00,1.6528
4286.00,1.6551
4285.00,1.6571
4284.00,1.6590
4283.00,1.6605
4282.00,1.6617
4281.00,1.6622
4280.00,1.6620
4279.00,1.6613
4278.00,1.6601
4277.00,1.6586
4276.00,1.6568
4275.00,1.6545
4274.00,1.6518
4273.00,1.6486
4272.00,1.6450
4271.00,1.6409
4270.00,1.6363
4269.00,1.6311
4268.00,1.6252
4267.00,1.6187
4266.00,1.6118
4265.00,1.6043
4264.00,1.5962
4263.00,1.5876
4262.00,1.5784
4261.00,1.5690
4260.00,1.5592
4259.00,1.5489
4258.00,1.5381
4257.00,1.5267
4256.00,1.5145
4255.00,1.5016
4254.00,1.4879
4253.00,1.4734
4252.00,1.4584
4251.00,1.4428
4250.00,1.4265
4249.00,1.4095
4248.00,1.3917
4247.00,1.3733
4246.00,1.3544
4245.00,1.3349
4244.00,1.3149
4243.00,1.2943
4242.00,1.2732
4241.00,1.2516
4240.00,1.2296
4239.00,1.2073
4238.00,1.1847
4237.00,1.1619
4236.00,1.1391
4235.00,1.1164
4234.00,1.0938
4233.00,1.0715
4232.00,1.0496
4231.00,1.0284
4230.00,1.0080
4229.00,0.9885
4228.00,0.9699
4227.00,0.9523
4226.00,0.9359
4225.00,0.9207
4224.00,0.9069
4223.00,0.8946
4222.00,0.8840
4221.00,0.8750
4220.00,0.8677
4219.00,0.8620
4218.00,0.8580
4217.00,0.8555
4216.00,0.8548
4215.00,0.8557
4214.00,0.8584
4213.00,0.8627
4212.00,0.8685
4211.00,0.8759
4210.00,0.8846
4209.00,0.8947
4208.00,0.9061
4207.00,0.9187
4206.00,0.9324
4205.00,0.9472
4204.00,0.9631
4203.00,0.9797
4202.00,0.9972
4201.00,1.0153
4200.00,1.0340
4199.00,1.0531
4198.00,1.0726
4197.00,1.0924
4196.00,1.1124
4195.00,1.1326
4194.00,1.1529
4193.00,1.1732
4192.00,1.1934
4191.00,1.2135
4190.00,1.2336
4189.00,1.2536
4188.00,1.2735
4187.00,1.2931
4186.00,1.3124
4185.00,1.3314
4184.00,1.3500
4183.00,1.3682
4182.00,1.3860
4181.00,1.4033
4180.00,1.4202
4179.00,1.4367
4178.00,1.4528
4177.00,1.4684
4176.00,1.4836
4175.00,1.4984
4174.00,1.5129
4173.00,1.5272
4172.00,1.5409
4171.00,1.5540
4170.00,1.5664
4169.00,1.5781
4168.00,1.5891
4167.00,1.5997
4166.00,1.6100
4165.00,1.6199
4164.00,1.6293
4163.00,1.6379
4162.00,1.6457
4161.00,1.6529
4160.00,1.6597
4159.00,1.6662
4158.00,1.6724
4157.00,1.6782
4156.00,1.6834
4155.00,1.6881
4154.00,1.6923
4153.00,1.6959
4152.00,1.6988
4151.00,1.7011
4150.00,1.7028
4149.00,1.7041
4148.00,1.7049
4147.00,1.7054
4146.00,1.7054
4145.00,1.7050
4144.00,1.7042
4143.00,1.7029
4142.00,1.7010
4141.00,1.6984
4140.00,1.6952
4139.00,1.6917
4138.00,1.6883
4137.00,1.6846
4136.00,1.6804
4135.00,1.6754
4134.00,1.6695
4133.00,1.6630
4132.00,1.6563
4131.00,1.6494
4130.00,1.6421
4129.00,1.6343
4128.00,1.6260
4127.00,1.6169
4126.00,1.6070
4125.00,1.5962
4124.00,1.5849
4123.00,1.5731
4122.00,1.5608
4121.00,1.5478
4120.00,1.5340
4119.00,1.5195
4118.00,1.5045
4117.00,1.4891
4116.00,1.4732
4115.00,1.4567
4114.00,1.4396
4113.00,1.4217
4112.00,1.4030
4111.00,1.3834
4110.00,1.3630
4109.00,1.3420
4108.00,1.3206
4107.00,1.2989
4106.00,1.2770
4105.00,1.2548
4104.00,1.2321
4103.00,1.2090
4102.00,1.1857
4101.00,1.1621
4100.00,1.1384
4099.00,1.1147
4098.00,1.0913
4097.00,1.0683
4096.00,1.0458
4095.00,1.0240
4094.00,1.0029
4093.00,0.9827
4092.00,0.9635
4091.00,0.9455
4090.00,0.9289
4089.00,0.9138
4088.00,0.9003
4087.00,0.8884
4086.00,0.8782
4085.00,0.8699
4084.00,0.8634
4083.00,0.8588
4082.00,0.8562
4081.00,0.8555
4080.00,0.8568
4079.00,0.8599
4078.00,0.8648
4077.00,0.8716
4076.00,0.8801
4075.00,0.8902
4074.00,0.9018
4073.00,0.9147
4072.00,0.9290
4071.00,0.9443
4070.00,0.9608
4069.00,0.9783
4068.00,0.9967
4067.00,1.0158
4066.00,1.0357
4065.00,1.0560
4064.00,1.0768
4063.00,1.0979
4062.00,1.1194
4061.00,1.1411
4060.00,1.1631
4059.00,1.1851
4058.00,1.2071
4057.00,1.2289
4056.00,1.2506
4055.00,1.2722
4054.00,1.2936
4053.00,1.3145
4052.00,1.3350
4051.00,1.3550
4050.00,1.3748
4049.00,1.3944
4048.00,1.4137
4047.00,1.4327
4046.00,1.4513
4045.00,1.4693
4044.00,1.4869
4043.00,1.5039
4042.00,1.5203
4041.00,1.5360
4040.00,1.5511
4039.00,1.5656
4038.00,1.5797
4037.00,1.5933
4036.00,1.6064
4035.00,1.6189
4034.00,1.6308
4033.00,1.6422
4032.00,1.6531
4031.00,1.6634
4030.00,1.6728
4029.00,1.6817
4028.00,1.6902
4027.00,1.6985
4026.00,1.7063
4025.00,1.7134
4024.00,1.7197
4023.00,1.7253
4022.00,1.7304
4021.00,1.7352
4020.00,1.7397
4019.00,1.7439
4018.00,1.7479
4017.00,1.7515
4016.00,1.7545
4015.00,1.7566
4014.00,1.7578
4013.00,1.7583
4012.00,1.7584
4011.00,1.7586
4010.00,1.7587
4009.00,1.7583
4008.00,1.7572
4007.00,1.7551
4006.00,1.7522
4005.00,1.7490
4004.00,1.7455
4003.00,1.7417
4002.00,1.7376
4001.00,1.7328
4000.00,1.7274
3999.00,1.7215
3998.00,1.7150
3997.00,1.7082
3996.00,1.7007
3995.00,1.6925
3994.00,1.6837
3993.00,1.6744
3992.00,1.6648
3991.00,1.6549
3990.00,1.6443
3989.00,1.6329
3988.00,1.6206
3987.00,1.6076
3986.00,1.5939
3985.00,1.5798
3984.00,1.5649
3983.00,1.5494
3982.00,1.5331
3981.00,1.5161
3980.00,1.4985
3979.00,1.4803
3978.00,1.4613
3977.00,1.4417
3976.00,1.4213
3975.00,1.4002
3974.00,1.3784
3973.00,1.3559
3972.00,1.3328
3971.00,1.3091
3970.00,1.2848
3969.00,1.2602
3968.00,1.2353
3967.00,1.2103
3966.00,1.1853
3965.00,1.1604
3964.00,1.1357
3963.00,1.1113
3962.00,1.0874
3961.00,1.0640
3960.00,1.0415
3959.00,1.0199
3958.00,0.9997
3957.00,0.9808
3956.00,0.9633
3955.00,0.9475
3954.00,0.9332
3953.00,0.9205
3952.00,0.9096
3951.00,0.9004
3950.00,0.8930
3949.00,0.8873
3948.00,0.8835
3947.00,0.8816
3946.00,0.8816
3945.00,0.8838
3944.00,0.8880
3943.00,0.8941
3942.00,0.9020
3941.00,0.9115
3940.00,0.9226
3939.00,0.9354
3938.00,0.9498
3937.00,0.9656
3936.00,0.9824
3935.00,1.0000
3934.00,1.0185
3933.00,1.0381
3932.00,1.0585
3931.00,1.0795
3930.00,1.1008
3929.00,1.1224
3928.00,1.1442
3927.00,1.1661
3926.00,1.1883
3925.00,1.2107
3924.00,1.2332
3923.00,1.2556
3922.00,1.2777
3921.00,1.2998
3920.00,1.3218
3919.00,1.3437
3918.00,1.3655
3917.00,1.3870
3916.00,1.4084
3915.00,1.4294
3914.00,1.4499
3913.00,1.4700
3912.00,1.4895
3911.00,1.5084
3910.00,1.5266
3909.00,1.5441
3908.00,1.5609
3907.00,1.5769
3906.00,1.5923
3905.00,1.6072
3904.00,1.6218
3903.00,1.6363
3902.00,1.6504
3901.00,1.6642
3900.00,1.6775
3899.00,1.6902
3898.00,1.7021
3897.00,1.7132
3896.00,1.7234
3895.00,1.7329
3894.00,1.7414
3893.00,1.7492
3892.00,1.7564
3891.00,1.7632
3890.00,1.7696
3889.00,1.7755
3888.00,1.7809
3887.00,1.7862
3886.00,1.7912
3885.00,1.7954
3884.00,1.7983
3883.00,1.8003
3882.00,1.8018
3881.00,1.8031
3880.00,1.8041
3879.00,1.8046
3878.00,1.8047
3877.00,1.8045
3876.00,1.8039
3875.00,1.8024
3874.00,1.8002
3873.00,1.7974
3872.00,1.7942
3871.00,1.7909
3870.00,1.7874
3869.00,1.7834
3868.00,1.7786
3867.00,1.7732
3866.00,1.7675
3865.00,1.7610
3864.00,1.7533
3863.00,1.7446
3862.00,1.7355
3861.00,1.7263
3860.00,1.7169
3859.00,1.7072
3858.00,1.6972
3857.00,1.6869
3856.00,1.6762
3855.00,1.6645
3854.00,1.6515
3853.00,1.6372
3852.00,1.6222
3851.00,1.6071
3850.00,1.5925
3849.00,1.5776
3848.00,1.5615
3847.00,1.5441
3846.00,1.5258
3845.00,1.5069
3844.00,1.4871
3843.00,1.4664
3842.00,1.4450
3841.00,1.4230
3840.00,1.4003
3839.00,1.3765
3838.00,1.3511
3837.00,1.3245
3836.00,1.2972
3835.00,1.2698
3834.00,1.2420
3833.00,1.2134
3832.00,1.1842
3831.00,1.1549
3830.00,1.1263
3829.00,1.0988
3828.00,1.0721
3827.00,1.0459
3826.00,1.0204
3825.00,0.9965
3824.00,0.9746
3823.00,0.9547
3822.00,0.9357
3821.00,0.9173
3820.00,0.9001
3819.00,0.8856
3818.00,0.8748
3817.00,0.8677
3816.00,0.8631
3815.00,0.8600
3814.00,0.8585
3813.00,0.8596
3812.00,0.8637
3811.00,0.8703
3810.00,0.8792
3809.00,0.8904
3808.00,0.9045
3807.00,0.9212
3806.00,0.9393
3805.00,0.9574
3804.00,0.9756
3803.00,0.9956
3802.00,1.0185
3801.00,1.0440
3800.00,1.0701
3799.00,1.0951
3798.00,1.1191
3797.00,1.1432
3796.00,1.1678
3795.00,1.1927
3794.00,1.2177
3793.00,1.2426
3792.00,1.2675
3791.00,1.2924
3790.00,1.3169
3789.00,1.3410
3788.00,1.3648
3787.00,1.3882
3786.00,1.4115
3785.00,1.4346
3784.00,1.4575
3783.00,1.4798
3782.00,1.5013
3781.00,1.5222
3780.00,1.5427
3779.00,1.5630
3778.00,1.5829
3777.00,1.6023
3776.00,1.6208
3775.00,1.6384
3774.00,1.6549
3773.00,1.6704
3772.00,1.6855
3771.00,1.7004
3770.00,1.7152
3769.00,1.7291
3768.00,1.7421
3767.00,1.7543
3766.00,1.7662
3765.00,1.7776
3764.00,1.7881
3763.00,1.7975
3762.00,1.8062
3761.00,1.8146
3760.00,1.8223
3759.00,1.8291
3758.00,1.8352
3757.00,1.8413
3756.00,1.8475
3755.00,1.8535
3754.00,1.8592
3753.00,1.8645
3752.00,1.8692
3751.00,1.8731
3750.00,1.8762
3749.00,1.8788
3748.00,1.8810
3747.00,1.8831
3746.00,1.8852
3745.00,1.8871
3744.00,1.8885
3743.00,1.8893
3742.00,1.8898
3741.00,1.8904
3740.00,1.8909
3739.00,1.8902
3738.00,1.8883
3737.00,1.8860
3736.00,1.8834
3735.00,1.8797
3734.00,1.8747
3733.00,1.8687
3732.00,1.8616
3731.00,1.8531
3730.00,1.8436
3729.00,1.8334
3728.00,1.8219
3727.00,1.8086
3726.00,1.7937
3725.00,1.7774
3724.00,1.7598
3723.00,1.7417
3722.00,1.7239
3721.00,1.7065
3720.00,1.6892
3719.00,1.6718
3718.00,1.6542
3717.00,1.6367
3716.00,1.6177
3715.00,1.5926
3714.00,1.5586
3713.00,1.5191
3712.00,1.4844
3711.00,1.4627
3710.00,1.4532
3709.00,1.4463
3708.00,1.4324
3707.00,1.4101
3706.00,1.3832
3705.00,1.3551
3704.00,1.3261
3703.00,1.2964
3702.00,1.2660
3701.00,1.2354
3700.00,1.2055
3699.00,1.1771
3698.00,1.1504
3697.00,1.1254
3696.00,1.1022
3695.00,1.0812
3694.00,1.0629
3693.00,1.0472
3692.00,1.0342
3691.00,1.0233
3690.00,1.0147
3689.00,1.0083
3688.00,1.0040
3687.00,1.0024
3686.00,1.0030
3685.00,1.0064
3684.00,1.0118
3683.00,1.0194
3682.00,1.0289
3681.00,1.0406
3680.00,1.0544
3679.00,1.0697
3678.00,1.0865
3677.00,1.1054
3676.00,1.1274
3675.00,1.1515
3674.00,1.1754
3673.00,1.1976
3672.00,1.2197
3671.00,1.2438
3670.00,1.2703
3669.00,1.2979
3668.00,1.3248
3667.00,1.3504
3666.00,1.3749
3665.00,1.3991
3664.00,1.4230
3663.00,1.4470
3662.00,1.4709
3661.00,1.4947
3660.00,1.5181
3659.00,1.5407
3658.00,1.5627
3657.00,1.5848
3656.00,1.6072
3655.00,1.6292
3654.00,1.6497
3653.00,1.6684
3652.00,1.6859
3651.00,1.7031
3650.00,1.7207
3649.00,1.7388
3648.00,1.7572
3647.00,1.7754
3646.00,1.7924
3645.00,1.8076
3644.00,1.8217
3643.00,1.8352
3642.00,1.8482
3641.00,1.8606
3640.00,1.8725
3639.00,1.8843
3638.00,1.8960
3637.00,1.9072
3636.00,1.9178
3635.00,1.9279
3634.00,1.9374
3633.00,1.9457
3632.00,1.9526
3631.00,1.9588
3630.00,1.9653
3629.00,1.9720
3628.00,1.9788
3627.00,1.9849
3626.00,1.9900
3625.00,1.9937
3624.00,1.9972
3623.00,1.9988
3622.00,2.0014
3621.00,1.9983
3620.00,1.9953
3619.00,1.9990
3618.00,2.0005
3617.00,2.0029
3616.00,2.0040
3615.00,2.0047
3614.00,2.0045
3613.00,2.0041
3612.00,2.0040
3611.00,2.0040
3610.00,2.0036
3609.00,2.0024
3608.00,2.0005
3607.00,1.9984
3606.00,1.9961
3605.00,1.9944
3604.00,1.9919
3603.00,1.9899
3602.00,1.9844
3601.00,1.9839
3600.00,1.9841
3599.00,1.9783
3598.00,1.9746
3597.00,1.9692
3596.00,1.9638
3595.00,1.9573
3594.00,1.9505
3593.00,1.9431
3592.00,1.9354
3591.00,1.9274
3590.00,1.9192
3589.00,1.9108
3588.00,1.9021
3587.00,1.8927
3586.00,1.8820
3585.00,1.8704
3584.00,1.8586
3583.00,1.8471
3582.00,1.8353
3581.00,1.8231
3580.00,1.8104
3579.00,1.7977
3578.00,1.7849
3577.00,1.7717
3576.00,1.7584
3575.00,1.7451
3574.00,1.7323
3573.00,1.7198
3572.00,1.7075
3571.00,1.6953
3570.00,1.6829
3569.00,1.6703
3568.00,1.6572
3567.00,1.6437
3566.00,1.6302
3565.00,1.6175
3564.00,1.6061
3563.00,1.5960
3562.00,1.5868
3561.00,1.5781
3560.00,1.5699
3559.00,1.5622
3558.00,1.5551
3557.00,1.5486
3556.00,1.5431
3555.00,1.5384
3554.00,1.5347
3553.00,1.5317
3552.00,1.5296
3551.00,1.5283
3550.00,1.5280
3549.00,1.5287
3548.00,1.5304
3547.00,1.5331
3546.00,1.5365
3545.00,1.5408
3544.00,1.5462
3543.00,1.5526
3542.00,1.5599
3541.00,1.5677
3540.00,1.5758
3539.00,1.5845
3538.00,1.5937
3537.00,1.6037
3536.00,1.6142
3535.00,1.6249
3534.00,1.6358
3533.00,1.6470
3532.00,1.6588
3531.00,1.6709
3530.00,1.6832
3529.00,1.6956
3528.00,1.7078
3527.00,1.7198
3526.00,1.7320
3525.00,1.7444
3524.00,1.7571
3523.00,1.7697
3522.00,1.7821
3521.00,1.7943
3520.00,1.8064
3519.00,1.8185
3518.00,1.8305
3517.00,1.8422
3516.00,1.8537
3515.00,1.8651
3514.00,1.8761
3513.00,1.8868
3512.00,1.8974
3511.00,1.9079
3510.00,1.9182
3509.00,1.9282
3508.00,1.9380
3507.00,1.9476
3506.00,1.9571
3505.00,1.9664
3504.00,1.9755
3503.00,1.9843
3502.00,1.9929
3501.00,2.0013
3500.00,2.0098
3499.00,2.0180
3498.00,2.0258
3497.00,2.0331
3496.00,2.0401
3495.00,2.0467
3494.00,2.0530
3493.00,2.0591
3492.00,2.0649
3491.00,2.0703
3490.00,2.0752
3489.00,2.0799
3488.00,2.0848
3487.00,2.0896
3486.00,2.0941
3485.00,2.0979
3484.00,2.1014
3483.00,2.1047
3482.00,2.1077
3481.00,2.1104
3480.00,2.1128
3479.00,2.1147
3478.00,2.1161
3477.00,2.1170
3476.00,2.1179
3475.00,2.1188
3474.00,2.1196
3473.00,2.1202
3472.00,2.1204
3471.00,2.1203
3470.00,2.1197
3469.00,2.1186
3468.00,2.1168
3467.00,2.1144
3466.00,2.1112
3465.00,2.1076
3464.00,2.1038
3463.00,2.0997
3462.00,2.0952
3461.00,2.0902
3460.00,2.0851
3459.00,2.0798
3458.00,2.0741
3457.00,2.0681
3456.00,2.0618
3455.00,2.0552
3454.00,2.0481
3453.00,2.0407
3452.00,2.0329
3451.00,2.0248
3450.00,2.0163
3449.00,2.0072
3448.00,1.9976
3447.00,1.9872
3446.00,1.9763
3445.00,1.9652
3444.00,1.9541
3443.00,1.9429
3442.00,1.9313
3441.00,1.9190
3440.00,1.9063
3439.00,1.8934
3438.00,1.8803
3437.00,1.8669
3436.00,1.8532
3435.00,1.8391
3434.00,1.8246
3433.00,1.8100
3432.00,1.7957
3431.00,1.7816
3430.00,1.7676
3429.00,1.7537
3428.00,1.7399
3427.00,1.7266
3426.00,1.7137
3425.00,1.7014
3424.00,1.6895
3423.00,1.6783
3422.00,1.6677
3421.00,1.6580
3420.00,1.6493
3419.00,1.6418
3418.00,1.6354
3417.00,1.6301
3416.00,1.6260
3415.00,1.6226
3414.00,1.6200
3413.00,1.6179
3412.00,1.6163
3411.00,1.6154
3410.00,1.6149
3409.00,1.6148
3408.00,1.6148
3407.00,1.6150
3406.00,1.6151
3405.00,1.6149
3404.00,1.6144
3403.00,1.6135
3402.00,1.6124
3401.00,1.6113
3400.00,1.6105
3399.00,1.6102
3398.00,1.6104
3397.00,1.6111
3396.00,1.6125
3395.00,1.6148
3394.00,1.6182
3393.00,1.6226
3392.00,1.6281
3391.00,1.6344
3390.00,1.6416
3389.00,1.6499
3388.00,1.6592
3387.00,1.6692
3386.00,1.6798
3385.00,1.6909
3384.00,1.7026
3383.00,1.7149
3382.00,1.7276
3381.00,1.7406
3380.00,1.7538
3379.00,1.7674
3378.00,1.7815
3377.00,1.7961
3376.00,1.8110
3375.00,1.8259
3374.00,1.8404
3373.00,1.8545
3372.00,1.8684
3371.00,1.8820
3370.00,1.8954
3369.00,1.9089
3368.00,1.9224
3367.00,1.9360
3366.00,1.9490
3365.00,1.9613
3364.00,1.9728
3363.00,1.9840
3362.00,1.9952
3361.00,2.0065
3360.00,2.0175
3359.00,2.0278
3358.00,2.0371
3357.00,2.0457
3356.00,2.0540
3355.00,2.0621
3354.00,2.0696
3353.00,2.0764
3352.00,2.0825
3351.00,2.0882
3350.00,2.0937
3349.00,2.0991
3348.00,2.1045
3347.00,2.1093
3346.00,2.1132
3345.00,2.1165
3344.00,2.1198
3343.00,2.1234
3342.00,2.1268
3341.00,2.1294
3340.00,2.1307
3339.00,2.1308
3338.00,2.1301
3337.00,2.1293
3336.00,2.1286
3335.00,2.1278
3334.00,2.1268
3333.00,2.1254
3332.00,2.1237
3331.00,2.1219
3330.00,2.1198
3329.00,2.1169
3328.00,2.1130
3327.00,2.1082
3326.00,2.1032
3325.00,2.0982
3324.00,2.0930
3323.00,2.0871
3322.00,2.0803
3321.00,2.0730
3320.00,2.0656
3319.00,2.0582
3318.00,2.0504
3317.00,2.0417
3316.00,2.0318
3315.00,2.0209
3314.00,2.0093
3313.00,1.9976
3312.00,1.9857
3311.00,1.9735
3310.00,1.9611
3309.00,1.9481
3308.00,1.9347
3307.00,1.9207
3306.00,1.9060
3305.00,1.8906
3304.00,1.8748
3303.00,1.8586
3302.00,1.8423
3301.00,1.8258
3300.00,1.8088
3299.00,1.7911
3298.00,1.7730
3297.00,1.7547
3296.00,1.7365
3295.00,1.7181
3294.00,1.6995
3293.00,1.6806
3292.00,1.6617
3291.00,1.6433
3290.00,1.6254
3289.00,1.6080
3288.00,1.5911
3287.00,1.5747
3286.00,1.5590
3285.00,1.5440
3284.00,1.5301
3283.00,1.5174
3282.00,1.5058
3281.00,1.4955
3280.00,1.4867
3279.00,1.4792
3278.00,1.4732
3277.00,1.4686
3276.00,1.4656
3275.00,1.4641
3274.00,1.4642
3273.00,1.4659
3272.00,1.4691
3271.00,1.4738
3270.00,1.4800
3269.00,1.4876
3268.00,1.4966
3267.00,1.5069
3266.00,1.5182
3265.00,1.5305
3264.00,1.5436
3263.00,1.5575
3262.00,1.5719
3261.00,1.5870
3260.00,1.6030
3259.00,1.6195
3258.00,1.6366
3257.00,1.6539
3256.00,1.6716
3255.00,1.6894
3254.00,1.7072
3253.00,1.7251
3252.00,1.7432
3251.00,1.7613
3250.00,1.7795
3249.00,1.7974
3248.00,1.8150
3247.00,1.8323
3246.00,1.8493
3245.00,1.8661
3244.00,1.8827
3243.00,1.8990
3242.00,1.9146
3241.00,1.9299
3240.00,1.9448
3239.00,1.9594
3238.00,1.9737
3237.00,1.9876
3236.00,2.0013
3235.00,2.0143
3234.00,2.0264
3233.00,2.0376
3232.00,2.0486
3231.00,2.0596
3230.00,2.0707
3229.00,2.0817
3228.00,2.0925
3227.00,2.1027
3226.00,2.1119
3225.00,2.1199
3224.00,2.1270
3223.00,2.1336
3222.00,2.1404
3221.00,2.1475
3220.00,2.1543
3219.00,2.1602
3218.00,2.1646
3217.00,2.1678
3216.00,2.1706
3215.00,2.1736
3214.00,2.1769
3213.00,2.1804
3212.00,2.1838
3211.00,2.1868
3210.00,2.1891
3209.00,2.1905
3208.00,2.1911
3207.00,2.1912
3206.00,2.1913
3205.00,2.1914
3204.00,2.1913
3203.00,2.1907
3202.00,2.1889
3201.00,2.1863
3200.00,2.1833
3199.00,2.1801
3198.00,2.1769
3197.00,2.1737
3196.00,2.1709
3195.00,2.1679
3194.00,2.1640
3193.00,2.1588
3192.00,2.1524
3191.00,2.1457
3190.00,2.1394
3189.00,2.1337
3188.00,2.1279
3187.00,2.1214
3186.00,2.1137
3185.00,2.1049
3184.00,2.0953
3183.00,2.0852
3182.00,2.0749
3181.00,2.0645
3180.00,2.0538
3179.00,2.0424
3178.00,2.0301
3177.00,2.0169
3176.00,2.0035
3175.00,1.9900
3174.00,1.9762
3173.00,1.9618
3172.00,1.9469
3171.00,1.9312
3170.00,1.9151
3169.00,1.8985
3168.00,1.8817
3167.00,1.8647
3166.00,1.8475
3165.00,1.8303
3164.00,1.8129
3163.00,1.7954
3162.00,1.7776
3161.00,1.7594
3160.00,1.7411
3159.00,1.7227
3158.00,1.7047
3157.00,1.6871
3156.00,1.6701
3155.00,1.6537
3154.00,1.6380
3153.00,1.6232
3152.00,1.6096
3151.00,1.5973
3150.00,1.5861
3149.00,1.5762
3148.00,1.5675
3147.00,1.5601
3146.00,1.5541
3145.00,1.5496
3144.00,1.5467
3143.00,1.5456
3142.00,1.5461
3141.00,1.5483
3140.00,1.5521
3139.00,1.5575
3138.00,1.5644
3137.00,1.5725
3136.00,1.5819
3135.00,1.5926
3134.00,1.6045
3133.00,1.6178
3132.00,1.6321
3131.00,1.6474
3130.00,1.6635
3129.00,1.6801
3128.00,1.6973
3127.00,1.7150
3126.00,1.7332
3125.00,1.7517
3124.00,1.7704
3123.00,1.7893
3122.00,1.8083
3121.00,1.8272
3120.00,1.8459
3119.00,1.8643
3118.00,1.8824
3117.00,1.9005
3116.00,1.9187
3115.00,1.9369
3114.00,1.9548
3113.00,1.9724
3112.00,1.9895
3111.00,2.0062
3110.00,2.0222
3109.00,2.0376
3108.00,2.0526
3107.00,2.0669
3106.00,2.0807
3105.00,2.0939
3104.00,2.1068
3103.00,2.1194
3102.00,2.1315
3101.00,2.1431
3100.00,2.1543
3099.00,2.1651
3098.00,2.1753
3097.00,2.1850
3096.00,2.1940
3095.00,2.2025
3094.00,2.2106
3093.00,2.2184
3092.00,2.2257
3091.00,2.2325
3090.00,2.2385
3089.00,2.2440
3088.00,2.2490
3087.00,2.2534
3086.00,2.2568
3085.00,2.2595
3084.00,2.2618
3083.00,2.2638
3082.00,2.2653
3081.00,2.2659
3080.00,2.2658
3079.00,2.2654
3078.00,2.2649
3077.00,2.2644
3076.00,2.2632
3075.00,2.2609
3074.00,2.2577
3073.00,2.2540
3072.00,2.2503
3071.00,2.2462
3070.00,2.2414
3069.00,2.2361
3068.00,2.2301
3067.00,2.2235
3066.00,2.2160
3065.00,2.2079
3064.00,2.1993
3063.00,2.1901
3062.00,2.1804
3061.00,2.1703
3060.00,2.1600
3059.00,2.1491
3058.00,2.1369
3057.00,2.1235
3056.00,2.1091
3055.00,2.0943
3054.00,2.0791
3053.00,2.0637
3052.00,2.0477
3051.00,2.0309
3050.00,2.0129
3049.00,1.9939
3048.00,1.9744
3047.00,1.9542
3046.00,1.9335
3045.00,1.9122
3044.00,1.8905
3043.00,1.8686
3042.00,1.8464
3041.00,1.8243
3040.00,1.8025
3039.00,1.7812
3038.00,1.7607
3037.00,1.7414
3036.00,1.7232
3035.00,1.7063
3034.00,1.6911
3033.00,1.6778
3032.00,1.6670
3031.00,1.6588
3030.00,1.6534
3029.00,1.6504
3028.00,1.6498
3027.00,1.6518
3026.00,1.6562
3025.00,1.6633
3024.00,1.6731
3023.00,1.6854
3022.00,1.7000
3021.00,1.7167
3020.00,1.7352
3019.00,1.7554
3018.00,1.7770
3017.00,1.7998
3016.00,1.8238
3015.00,1.8491
3014.00,1.8752
3013.00,1.9020
3012.00,1.9294
3011.00,1.9571
3010.00,1.9849
3009.00,2.0122
3008.00,2.0389
3007.00,2.0651
3006.00,2.0908
3005.00,2.1164
3004.00,2.1418
3003.00,2.1671
3002.00,2.1917
3001.00,2.2155
3000.00,2.2384
2999.00,2.2601
2998.00,2.2800
2997.00,2.2979
2996.00,2.3143
2995.00,2.3298
2994.00,2.3449
2993.00,2.3597
2992.00,2.3738
2991.00,2.3867
2990.00,2.3975
2989.00,2.4063
2988.00,2.4142
2987.00,2.4219
2986.00,2.4293
2985.00,2.4362
2984.00,2.4431
2983.00,2.4507
2982.00,2.4597
2981.00,2.4703
2980.00,2.4833
2979.00,2.4993
2978.00,2.5193
2977.00,2.5439
2976.00,2.5742
2975.00,2.6119
2974.00,2.6586
2973.00,2.7147
2972.00,2.7792
2971.00,2.8507
2970.00,2.9288
2969.00,3.0134
2968.00,3.1033
2967.00,3.1944
2966.00,3.2816
2965.00,3.3629
2964.00,3.4418
2963.00,3.5243
2962.00,3.6149
2961.00,3.7178
2960.00,3.8343
2959.00,3.9523
2958.00,4.0364
2957.00,4.0549
2956.00,4.0309
2955.00,4.0158
2954.00,4.0387
2953.00,4.1032
2952.00,4.2032
2951.00,4.3422
2950.00,4.5213
2949.00,4.6693
2948.00,4.6485
2947.00,4.5016
2946.00,4.3647
2945.00,4.2776
2944.00,4.2354
2943.00,4.2257
2942.00,4.2384
2941.00,4.2814
2940.00,4.3859
2939.00,4.6000
2938.00,4.9935
2937.00,5.2763
2936.00,4.9076
2935.00,4.6295
2934.00,4.4830
2933.00,4.3822
2932.00,4.3014
2931.00,4.2742
2930.00,4.2945
2929.00,4.3373
2928.00,4.3742
2927.00,4.3745
2926.00,4.3169
2925.00,4.1997
2924.00,4.0921
2923.00,4.0117
2922.00,3.9453
2921.00,3.8696
2920.00,3.7861
2919.00,3.7136
2918.00,3.6530
2917.00,3.5907
2916.00,3.5205
2915.00,3.4496
2914.00,3.3868
2913.00,3.3338
2912.00,3.2870
2911.00,3.2436
2910.00,3.2023
2909.00,3.1632
2908.00,3.1273
2907.00,3.0966
2906.00,3.0708
2905.00,3.0474
2904.00,3.0246
2903.00,3.0030
2902.00,2.9844
2901.00,2.9682
2900.00,2.9525
2899.00,2.9367
2898.00,2.9223
2897.00,2.9100
2896.00,2.8986
2895.00,2.8874
2894.00,2.8787
2893.00,2.8749
2892.00,2.8743
2891.00,2.8729
2890.00,2.8686
2889.00,2.8631
2888.00,2.8592
2887.00,2.8571
2886.00,2.8558
2885.00,2.8556
2884.00,2.8586
2883.00,2.8665
2882.00,2.8789
2881.00,2.8938
2880.00,2.9104
2879.00,2.9303
2878.00,2.9566
2877.00,2.9917
2876.00,3.0343
2875.00,3.0801
2874.00,3.1258
2873.00,3.1722
2872.00,3.2224
2871.00,3.2784
2870.00,3.3402
2869.00,3.4108
2868.00,3.4959
2867.00,3.5967
2866.00,3.6979
2865.00,3.7705
2864.00,3.7971
2863.00,3.7860
2862.00,3.7568
2861.00,3.7180
2860.00,3.6671
2859.00,3.6020
2858.00,3.5262
2857.00,3.4431
2856.00,3.3544
2855.00,3.2632
2854.00,3.1733
2853.00,3.0872
2852.00,3.0062
2851.00,2.9317
2850.00,2.8647
2849.00,2.8059
2848.00,2.7551
2847.00,2.7110
2846.00,2.6721
2845.00,2.6372
2844.00,2.6051
2843.00,2.5751
2842.00,2.5470
2841.00,2.5205
2840.00,2.4951
2839.00,2.4705
2838.00,2.4465
2837.00,2.4232
2836.00,2.4003
2835.00,2.3775
2834.00,2.3542
2833.00,2.3303
2832.00,2.3061
2831.00,2.2815
2830.00,2.2566
2829.00,2.2314
2828.00,2.2058
2827.00,2.1795
2826.00,2.1519
2825.00,2.1224
2824.00,2.0909
2823.00,2.0574
2822.00,2.0222
2821.00,1.9855
2820.00,1.9476
2819.00,1.9089
2818.00,1.8704
2817.00,1.8329
2816.00,1.7972
2815.00,1.7640
2814.00,1.7340
2813.00,1.7081
2812.00,1.6867
2811.00,1.6702
2810.00,1.6585
2809.00,1.6518
2808.00,1.6501
2807.00,1.6532
2806.00,1.6609
2805.00,1.6730
2804.00,1.6892
2803.00,1.7091
2802.00,1.7320
2801.00,1.7572
2800.00,1.7835
2799.00,1.8102
2798.00,1.8366
2797.00,1.8623
2796.00,1.8874
2795.00,1.9120
2794.00,1.9360
2793.00,1.9597
2792.00,1.9830
2791.00,2.0061
2790.00,2.0293
2789.00,2.0528
2788.00,2.0762
2787.00,2.0992
2786.00,2.1215
2785.00,2.1434
2784.00,2.1651
2783.00,2.1865
2782.00,2.2073
2781.00,2.2268
2780.00,2.2449
2779.00,2.2614
2778.00,2.2765
2777.00,2.2903
2776.00,2.3032
2775.00,2.3159
2774.00,2.3285
2773.00,2.3407
2772.00,2.3517
2771.00,2.3613
2770.00,2.3700
2769.00,2.3783
2768.00,2.3857
2767.00,2.3921
2766.00,2.3976
2765.00,2.4028
2764.00,2.4074
2763.00,2.4108
2762.00,2.4130
2761.00,2.4145
2760.00,2.4161
2759.00,2.4177
2758.00,2.4189
2757.00,2.4195
2756.00,2.4196
2755.00,2.4189
2754.00,2.4171
2753.00,2.4141
2752.00,2.4101
2751.00,2.4051
2750.00,2.3994
2749.00,2.3932
2748.00,2.3866
2747.00,2.3792
2746.00,2.3710
2745.00,2.3619
2744.00,2.3521
2743.00,2.3420
2742.00,2.3315
2741.00,2.3206
2740.00,2.3089
2739.00,2.2962
2738.00,2.2830
2737.00,2.2697
2736.00,2.2558
2735.00,2.2406
2734.00,2.2238
2733.00,2.2060
2732.00,2.1875
2731.00,2.1679
2730.00,2.1468
2729.00,2.1247
2728.00,2.1018
2727.00,2.0782
2726.00,2.0531
2725.00,2.0264
2724.00,1.9985
2723.00,1.9695
2722.00,1.9393
2721.00,1.9076
2720.00,1.8745
2719.00,1.8402
2718.00,1.8052
2717.00,1.7695
2716.00,1.7334
2715.00,1.6968
2714.00,1.6601
2713.00,1.6234
2712.00,1.5875
2711.00,1.5528
2710.00,1.5196
2709.00,1.4885
2708.00,1.4600
2707.00,1.4347
2706.00,1.4131
2705.00,1.3955
2704.00,1.3825
2703.00,1.3741
2702.00,1.3705
2701.00,1.3716
2700.00,1.3773
2699.00,1.3874
2698.00,1.4017
2697.00,1.4197
2696.00,1.4412
2695.00,1.4656
2694.00,1.4927
2693.00,1.5220
2692.00,1.5532
2691.00,1.5859
2690.00,1.6197
2689.00,1.6542
2688.00,1.6894
2687.00,1.7251
2686.00,1.7612
2685.00,1.7976
2684.00,1.8339
2683.00,1.8699
2682.00,1.9049
2681.00,1.9383
2680.00,1.9696
2679.00,1.9990
2678.00,2.0267
2677.00,2.0527
2676.00,2.0773
2675.00,2.1004
2674.00,2.1220
2673.00,2.1422
2672.00,2.1610
2671.00,2.1785
2670.00,2.1947
2669.00,2.2099
2668.00,2.2245
2667.00,2.2384
2666.00,2.2517
2665.00,2.2645
2664.00,2.2771
2663.00,2.2900
2662.00,2.3032
2661.00,2.3167
2660.00,2.3307
2659.00,2.3453
2658.00,2.3599
2657.00,2.3735
2656.00,2.3853
2655.00,2.3957
2654.00,2.4058
2653.00,2.4160
2652.00,2.4261
2651.00,2.4354
2650.00,2.4436
2649.00,2.4505
2648.00,2.4562
2647.00,2.4613
2646.00,2.4668
2645.00,2.4732
2644.00,2.4799
2643.00,2.4856
2642.00,2.4893
2641.00,2.4914
2640.00,2.4929
2639.00,2.4946
2638.00,2.4966
2637.00,2.4981
2636.00,2.4983
2635.00,2.4973
2634.00,2.4963
2633.00,2.4962
2632.00,2.4964
2631.00,2.4958
2630.00,2.4938
2629.00,2.4911
2628.00,2.4882
2627.00,2.4844
2626.00,2.4791
2625.00,2.4727
2624.00,2.4659
2623.00,2.4593
2622.00,2.4527
2621.00,2.4456
2620.00,2.4381
2619.00,2.4304
2618.00,2.4224
2617.00,2.4142
2616.00,2.4055
2615.00,2.3962
2614.00,2.3864
2613.00,2.3759
2612.00,2.3645
2611.00,2.3522
2610.00,2.3393
2609.00,2.3258
2608.00,2.3115
2607.00,2.2959
2606.00,2.2785
2605.00,2.2598
2604.00,2.2402
2603.00,2.2199
2602.00,2.1989
2601.00,2.1767
2600.00,2.1532
2599.00,2.1283
2598.00,2.1024
2597.00,2.0756
2596.00,2.0481
2595.00,2.0194
2594.00,1.9892
2593.00,1.9574
2592.00,1.9242
2591.00,1.8898
2590.00,1.8544
2589.00,1.8182
2588.00,1.7812
2587.00,1.7440
2586.00,1.7067
2585.00,1.6697
2584.00,1.6331
2583.00,1.5973
2582.00,1.5625
2581.00,1.5294
2580.00,1.4988
2579.00,1.4709
2578.00,1.4463
2577.00,1.4253
2576.00,1.4082
2575.00,1.3954
2574.00,1.3868
2573.00,1.3826
2572.00,1.3827
2571.00,1.3871
2570.00,1.3954
2569.00,1.4075
2568.00,1.4232
2567.00,1.4419
2566.00,1.4634
2565.00,1.4874
2564.00,1.5136
2563.00,1.5417
2562.00,1.5714
2561.00,1.6025
2560.00,1.6347
2559.00,1.6680
2558.00,1.7019
2557.00,1.7362
2556.00,1.7707
2555.00,1.8051
2554.00,1.8394
2553.00,1.8735
2552.00,1.9074
2551.00,1.9407
2550.00,1.9731
2549.00,2.0048
2548.00,2.0360
2547.00,2.0665
2546.00,2.0960
2545.00,2.1242
2544.00,2.1511
2543.00,2.1769
2542.00,2.2015
2541.00,2.2247
2540.00,2.2467
2539.00,2.2682
2538.00,2.2892
2537.00,2.3093
2536.00,2.3281
2535.00,2.3453
2534.00,2.3616
2533.00,2.3776
2532.00,2.3932
2531.00,2.4077
2530.00,2.4209
2529.00,2.4333
2528.00,2.4462
2527.00,2.4599
2526.00,2.4732
2525.00,2.4843
2524.00,2.4927
2523.00,2.4991
2522.00,2.5053
2521.00,2.5129
2520.00,2.5219
2519.00,2.5313
2518.00,2.5400
2517.00,2.5470
2516.00,2.5523
2515.00,2.5564
2514.00,2.5600
2513.00,2.5640
2512.00,2.5682
2511.00,2.5719
2510.00,2.5743
2509.00,2.5754
2508.00,2.5758
2507.00,2.5765
2506.00,2.5772
2505.00,2.5772
2504.00,2.5757
2503.00,2.5729
2502.00,2.5699
2501.00,2.5676
2500.00,2.5663
2499.00,2.5657
2498.00,2.5647
2497.00,2.5625
2496.00,2.5583
2495.00,2.5520
2494.00,2.5446
2493.00,2.5377
2492.00,2.5318
2491.00,2.5259
2490.00,2.5186
2489.00,2.5097
2488.00,2.5002
2487.00,2.4909
2486.00,2.4819
2485.00,2.4726
2484.00,2.4622
2483.00,2.4503
2482.00,2.4368
2481.00,2.4218
2480.00,2.4058
2479.00,2.3895
2478.00,2.3733
2477.00,2.3568
2476.00,2.3397
2475.00,2.3218
2474.00,2.3028
2473.00,2.2826
2472.00,2.2612
2471.00,2.2386
2470.00,2.2148
2469.00,2.1899
2468.00,2.1642
2467.00,2.1377
2466.00,2.1100
2465.00,2.0808
2464.00,2.0497
2463.00,2.0167
2462.00,1.9818
2461.00,1.9448
2460.00,1.9061
2459.00,1.8658
2458.00,1.8244
2457.00,1.7822
2456.00,1.7393
2455.00,1.6961
2454.00,1.6526
2453.00,1.6095
2452.00,1.5671
2451.00,1.5262
2450.00,1.4874
2449.00,1.4512
2448.00,1.4184
2447.00,1.3895
2446.00,1.3651
2445.00,1.3459
2444.00,1.3322
2443.00,1.3242
2442.00,1.3221
2441.00,1.3261
2440.00,1.3359
2439.00,1.3511
2438.00,1.3714
2437.00,1.3961
2436.00,1.4247
2435.00,1.4566
2434.00,1.4913
2433.00,1.5281
2432.00,1.5666
2431.00,1.6062
2430.00,1.6465
2429.00,1.6869
2428.00,1.7272
2427.00,1.7671
2426.00,1.8062
2425.00,1.8446
2424.00,1.8824
2423.00,1.9196
2422.00,1.9564
2421.00,1.9925
2420.00,2.0275
2419.00,2.0609
2418.00,2.0927
2417.00,2.1237
2416.00,2.1541
2415.00,2.1841
2414.00,2.2133
2413.00,2.2413
2412.00,2.2682
2411.00,2.2940
2410.00,2.3184
2409.00,2.3410
2408.00,2.3616
2407.00,2.3807
2406.00,2.3992
2405.00,2.4174
2404.00,2.4353
2403.00,2.4523
2402.00,2.4685
2401.00,2.4842
2400.00,2.4995
2399.00,2.5139
2398.00,2.5268
2397.00,2.5380
2396.00,2.5481
2395.00,2.5583
2394.00,2.5692
2393.00,2.5807
2392.00,2.5917
2391.00,2.6022
2390.00,2.6101
2389.00,2.6146
2388.00,2.6199
2387.00,2.6234
2386.00,2.6269
2385.00,2.6312
2384.00,2.6369
2383.00,2.6430
2382.00,2.6482
2381.00,2.6522
2380.00,2.6557
2379.00,2.6591
2378.00,2.6622
2377.00,2.6645
2376.00,2.6662
2375.00,2.6679
2374.00,2.6699
2373.00,2.6717
2372.00,2.6724
2371.00,2.6715
2370.00,2.6699
2369.00,2.6690
2368.00,2.6699
2367.00,2.6713
2366.00,2.6713
2365.00,2.6689
2364.00,2.6650
2363.00,2.6601
2362.00,2.6536
2361.00,2.6447
2360.00,2.6340
2359.00,2.6231
2358.00,2.6131
2357.00,2.6040
2356.00,2.5952
2355.00,2.5856
2354.00,2.5737
2353.00,2.5589
2352.00,2.5423
2351.00,2.5256
2350.00,2.5100
2349.00,2.4958
2348.00,2.4833
2347.00,2.4720
2346.00,2.4606
2345.00,2.4466
2344.00,2.4288
2343.00,2.4077
2342.00,2.3854
2341.00,2.3630
2340.00,2.3407
2339.00,2.3180
2338.00,2.2947
2337.00,2.2705
2336.00,2.2449
2335.00,2.2175
2334.00,2.1879
2333.00,2.1573
2332.00,2.1219
2331.00,2.0896
2330.00,2.0468
2329.00,2.0171
2328.00,1.9608
2327.00,1.9610
2326.00,1.9894
2325.00,1.9214
2324.00,1.9112
2323.00,1.9326
2322.00,1.9577
2321.00,1.9677
2320.00,1.9490
2319.00,1.9181
2318.00,1.8786
2317.00,1.8299
2316.00,1.7859
2315.00,1.7567
2314.00,1.7676
2313.00,1.8061
2312.00,1.8635
2311.00,1.9130
2310.00,1.9498
2309.00,1.9730
2308.00,1.9889
2307.00,2.0019
2306.00,2.0121
2305.00,2.0195
2304.00,2.0242
2303.00,2.0290
2302.00,2.0374
2301.00,2.0494
2300.00,2.0665
2299.00,2.0824
2298.00,2.0986
2297.00,2.1119
2296.00,2.1270
2295.00,2.1409
2294.00,2.1566
2293.00,2.1720
2292.00,2.1881
2291.00,2.2045
2290.00,2.2213
2289.00,2.2398
2288.00,2.2588
2287.00,2.2791
2286.00,2.2992
2285.00,2.3193
2284.00,2.3379
2283.00,2.3562
2282.00,2.3749
2281.00,2.3957
2280.00,2.4175
2279.00,2.4383
2278.00,2.4573
2277.00,2.4759
2276.00,2.4948
2275.00,2.5122
2274.00,2.5274
2273.00,2.5404
2272.00,2.5534
2271.00,2.5672
2270.00,2.5815
2269.00,2.5958
2268.00,2.6098
2267.00,2.6236
2266.00,2.6371
2265.00,2.6495
2264.00,2.6610
2263.00,2.6717
2262.00,2.6827
2261.00,2.6944
2260.00,2.7057
2259.00,2.7156
2258.00,2.7225
2257.00,2.7279
2256.00,2.7329
2255.00,2.7388
2254.00,2.7457
2253.00,2.7522
2252.00,2.7577
2251.00,2.7615
2250.00,2.7645
2249.00,2.7669
2248.00,2.7686
2247.00,2.7687
2246.00,2.7674
2245.00,2.7651
2244.00,2.7624
2243.00,2.7598
2242.00,2.7583
2241.00,2.7585
2240.00,2.7594
2239.00,2.7587
2238.00,2.7553
2237.00,2.7501
2236.00,2.7448
2235.00,2.7408
2234.00,2.7385
2233.00,2.7368
2232.00,2.7344
2231.00,2.7296
2230.00,2.7226
2229.00,2.7144
2228.00,2.7057
2227.00,2.6961
2226.00,2.6853
2225.00,2.6739
2224.00,2.6629
2223.00,2.6522
2222.00,2.6411
2221.00,2.6292
2220.00,2.6166
2219.00,2.6030
2218.00,2.5883
2217.00,2.5727
2216.00,2.5567
2215.00,2.5405
2214.00,2.5235
2213.00,2.5052
2212.00,2.4853
2211.00,2.4643
2210.00,2.4428
2209.00,2.4209
2208.00,2.3985
2207.00,2.3748
2206.00,2.3492
2205.00,2.3217
2204.00,2.2927
2203.00,2.2624
2202.00,2.2304
2201.00,2.1960
2200.00,2.1592
2199.00,2.1201
2198.00,2.0789
2197.00,2.0362
2196.00,1.9920
2195.00,1.9463
2194.00,1.8992
2193.00,1.8508
2192.00,1.8016
2191.00,1.7527
2190.00,1.7050
2189.00,1.6598
2188.00,1.6178
2187.00,1.5795
2186.00,1.5457
2185.00,1.5171
2184.00,1.4945
2183.00,1.4784
2182.00,1.4693
2181.00,1.4671
2180.00,1.4717
2179.00,1.4822
2178.00,1.4978
2177.00,1.5174
2176.00,1.5401
2175.00,1.5653
2174.00,1.5925
2173.00,1.6218
2172.00,1.6532
2171.00,1.6866
2170.00,1.7219
2169.00,1.7588
2168.00,1.7973
2167.00,1.8372
2166.00,1.8782
2165.00,1.9198
2164.00,1.9616
2163.00,2.0031
2162.00,2.0440
2161.00,2.0843
2160.00,2.1242
2159.00,2.1636
2158.00,2.2019
2157.00,2.2386
2156.00,2.2733
2155.00,2.3064
2154.00,2.3385
2153.00,2.3698
2152.00,2.3999
2151.00,2.4281
2150.00,2.4541
2149.00,2.4788
2148.00,2.5032
2147.00,2.5284
2146.00,2.5539
2145.00,2.5775
2144.00,2.5974
2143.00,2.6136
2142.00,2.6281
2141.00,2.6432
2140.00,2.6591
2139.00,2.6748
2138.00,2.6894
2137.00,2.7024
2136.00,2.7144
2135.00,2.7261
2134.00,2.7383
2133.00,2.7508
2132.00,2.7624
2131.00,2.7718
2130.00,2.7793
2129.00,2.7857
2128.00,2.7921
2127.00,2.7990
2126.00,2.8072
2125.00,2.8166
2124.00,2.8256
2123.00,2.8318
2122.00,2.8349
2121.00,2.8364
2120.00,2.8381
2119.00,2.8408
2118.00,2.8447
2117.00,2.8492
2116.00,2.8525
2115.00,2.8529
2114.00,2.8503
2113.00,2.8468
2112.00,2.8440
2111.00,2.8424
2110.00,2.8423
2109.00,2.8440
2108.00,2.8464
2107.00,2.8470
2106.00,2.8441
2105.00,2.8387
2104.00,2.8332
2103.00,2.8284
2102.00,2.8234
2101.00,2.8177
2100.00,2.8113
2099.00,2.8044
2098.00,2.7967
2097.00,2.7881
2096.00,2.7790
2095.00,2.7701
2094.00,2.7619
2093.00,2.7545
2092.00,2.7470
2091.00,2.7379
2090.00,2.7265
2089.00,2.7137
2088.00,2.7007
2087.00,2.6873
2086.00,2.6730
2085.00,2.6572
2084.00,2.6403
2083.00,2.6224
2082.00,2.6030
2081.00,2.5814
2080.00,2.5580
2079.00,2.5338
2078.00,2.5097
2077.00,2.4859
2076.00,2.4608
2075.00,2.4331
2074.00,2.4026
2073.00,2.3708
2072.00,2.3387
2071.00,2.3064
2070.00,2.2732
2069.00,2.2389
2068.00,2.2036
2067.00,2.1667
2066.00,2.1279
2065.00,2.0875
2064.00,2.0463
2063.00,2.0049
2062.00,1.9633
2061.00,1.9207
2060.00,1.8760
2059.00,1.8291
2058.00,1.7806
2057.00,1.7319
2056.00,1.6845
2055.00,1.6397
2054.00,1.5990
2053.00,1.5637
2052.00,1.5349
2051.00,1.5137
2050.00,1.5008
2049.00,1.4968
2048.00,1.5017
2047.00,1.5151
2046.00,1.5364
2045.00,1.5646
2044.00,1.5986
2043.00,1.6369
2042.00,1.6783
2041.00,1.7224
2040.00,1.7689
2039.00,1.8179
2038.00,1.8686
2037.00,1.9197
2036.00,1.9700
2035.00,2.0186
2034.00,2.0656
2033.00,2.1118
2032.00,2.1575
2031.00,2.2021
2030.00,2.2450
2029.00,2.2860
2028.00,2.3252
2027.00,2.3628
2026.00,2.3985
2025.00,2.4322
2024.00,2.4640
2023.00,2.4943
2022.00,2.5236
2021.00,2.5519
2020.00,2.5781
2019.00,2.6009
2018.00,2.6200
2017.00,2.6367
2016.00,2.6537
2015.00,2.6729
2014.00,2.6944
2013.00,2.7162
2012.00,2.7360
2011.00,2.7531
2010.00,2.7680
2009.00,2.7820
2008.00,2.7957
2007.00,2.8097
2006.00,2.8246
2005.00,2.8399
2004.00,2.8537
2003.00,2.8640
2002.00,2.8707
2001.00,2.8755
2000.00,2.8804
1999.00,2.8867
1998.00,2.8952
1997.00,2.9056
1996.00,2.9155
1995.00,2.9216
1994.00,2.9226
1993.00,2.9201
1992.00,2.9172
1991.00,2.9170
1990.00,2.9215
1989.00,2.9303
1988.00,2.9403
1987.00,2.9479
1986.00,2.9523
1985.00,2.9548
1984.00,2.9571
1983.00,2.9596
1982.00,2.9610
1981.00,2.9595
1980.00,2.9542
1979.00,2.9466
1978.00,2.9406
1977.00,2.9390
1976.00,2.9403
1975.00,2.9392
1974.00,2.9328
1973.00,2.9232
1972.00,2.9150
1971.00,2.9103
1970.00,2.9071
1969.00,2.9016
1968.00,2.8912
1967.00,2.8762
1966.00,2.8604
1965.00,2.8478
1964.00,2.8387
1963.00,2.8307
1962.00,2.8216
1961.00,2.8112
1960.00,2.7989
1959.00,2.7834
1958.00,2.7647
1957.00,2.7444
1956.00,2.7242
1955.00,2.7047
1954.00,2.6857
1953.00,2.6672
1952.00,2.6485
1951.00,2.6284
1950.00,2.6063
1949.00,2.5824
1948.00,2.5571
1947.00,2.5299
1946.00,2.4996
1945.00,2.4656
1944.00,2.4280
1943.00,2.3873
1942.00,2.3447
1941.00,2.3025
1940.00,2.2621
1939.00,2.2225
1938.00,2.1812
1937.00,2.1362
1936.00,2.0861
1935.00,2.0312
1934.00,1.9731
1933.00,1.9140
1932.00,1.8554
1931.00,1.7988
1930.00,1.7459
1929.00,1.6978
1928.00,1.6557
1927.00,1.6206
1926.00,1.5930
1925.00,1.5732
1924.00,1.5606
1923.00,1.5562
1922.00,1.5616
1921.00,1.5790
1920.00,1.6089
1919.00,1.6498
1918.00,1.6987
1917.00,1.7509
1916.00,1.8024
1915.00,1.8530
1914.00,1.9048
1913.00,1.9590
1912.00,2.0134
1911.00,2.0650
1910.00,2.1133
1909.00,2.1595
1908.00,2.2056
1907.00,2.2526
1906.00,2.3011
1905.00,2.3501
1904.00,2.3975
1903.00,2.4416
1902.00,2.4823
1901.00,2.5199
1900.00,2.5551
1899.00,2.5884
1898.00,2.6195
1897.00,2.6481
1896.00,2.6737
1895.00,2.6970
1894.00,2.7197
1893.00,2.7423
1892.00,2.7641
1891.00,2.7842
1890.00,2.8028
1889.00,2.8199
1888.00,2.8356
1887.00,2.8511
1886.00,2.8683
1885.00,2.8884
1884.00,2.9101
1883.00,2.9298
1882.00,2.9444
1881.00,2.9544
1880.00,2.9634
1879.00,2.9743
1878.00,2.9867
1877.00,2.9991
1876.00,3.0101
1875.00,3.0195
1874.00,3.0270
1873.00,3.0303
1872.00,3.0278
1871.00,3.0218
1870.00,3.0172
1869.00,3.0161
1868.00,3.0159
1867.00,3.0148
1866.00,3.0152
1865.00,3.0194
1864.00,3.0271
1863.00,3.0360
1862.00,3.0428
1861.00,3.0454
1860.00,3.0427
1859.00,3.0356
1858.00,3.0278
1857.00,3.0237
1856.00,3.0250
1855.00,3.0272
1854.00,3.0240
1853.00,3.0141
1852.00,3.0029
1851.00,2.9943
1850.00,2.9867
1849.00,2.9760
1848.00,2.9593
1847.00,2.9377
1846.00,2.9161
1845.00,2.8991
1844.00,2.8866
1843.00,2.8729
1842.00,2.8527
1841.00,2.8297
1840.00,2.8114
1839.00,2.7982
1838.00,2.7831
1837.00,2.7599
1836.00,2.7308
1835.00,2.7022
1834.00,2.6760
1833.00,2.6483
1832.00,2.6160
1831.00,2.5788
1830.00,2.5374
1829.00,2.4917
1828.00,2.4423
1827.00,2.3914
1826.00,2.3403
1825.00,2.2894
1824.00,2.2377
1823.00,2.1851
1822.00,2.1345
1821.00,2.0899
1820.00,2.0529
1819.00,2.0221
1818.00,1.9969
1817.00,1.9797
1816.00,1.9741
1815.00,1.9815
1814.00,1.9999
1813.00,2.0257
1812.00,2.0570
1811.00,2.0923
1810.00,2.1314
1809.00,2.1727
1808.00,2.2140
1807.00,2.2536
1806.00,2.2903
1805.00,2.3237
1804.00,2.3527
1803.00,2.3768
1802.00,2.3980
1801.00,2.4223
1800.00,2.4548
1799.00,2.4961
1798.00,2.5416
1797.00,2.5846
1796.00,2.6221
1795.00,2.6565
1794.00,2.6932
1793.00,2.7363
1792.00,2.7831
1791.00,2.8257
1790.00,2.8611
1789.00,2.8936
1788.00,2.9263
1787.00,2.9591
1786.00,2.9912
1785.00,3.0217
1784.00,3.0481
1783.00,3.0675
1782.00,3.0791
1781.00,3.0875
1780.00,3.0981
1779.00,3.1124
1778.00,3.1301
1777.00,3.1483
1776.00,3.1641
1775.00,3.1753
1774.00,3.1830
1773.00,3.1911
1772.00,3.1989
1771.00,3.2006
1770.00,3.1967
1769.00,3.1955
1768.00,3.2031
1767.00,3.2173
1766.00,3.2273
1765.00,3.2228
1764.00,3.2045
1763.00,3.1812
1762.00,3.1583
1761.00,3.1335
1760.00,3.1041
1759.00,3.0744
1758.00,3.0513
1757.00,3.0381
1756.00,3.0335
1755.00,3.0344
1754.00,3.0408
1753.00,3.0546
1752.00,3.0756
1751.00,3.1011
1750.00,3.1320
1749.00,3.1751
1748.00,3.2361
1747.00,3.3087
1746.00,3.3787
1745.00,3.4422
1744.00,3.5057
1743.00,3.5741
1742.00,3.6498
1741.00,3.7348
1740.00,3.8232
1739.00,3.8973
1738.00,3.9473
1737.00,3.9826
1736.00,4.0195
1735.00,4.0700
1734.00,4.1329
1733.00,4.1740
1732.00,4.1729
1731.00,4.1797
1730.00,4.2429
1729.00,4.4040
1728.00,4.6862
1727.00,4.8777
1726.00,4.9129
1725.00,4.9178
1724.00,4.7497
1723.00,4.6028
1722.00,4.5103
1721.00,4.4300
1720.00,4.3598
1719.00,4.3633
1718.00,4.4366
1717.00,4.3788
1716.00,4.2641
1715.00,4.2971
1714.00,4.4704
1713.00,4.6164
1712.00,4.5539
1711.00,4.4971
1710.00,4.5590
1709.00,4.7829
1708.00,5.2266
1707.00,5.1280
1706.00,4.9064
1705.00,4.7636
1704.00,4.5540
1703.00,4.4087
1702.00,4.3608
1701.00,4.4534
1700.00,4.6446
1699.00,4.6514
1698.00,4.5409
1697.00,4.4591
1696.00,4.5432
1695.00,4.5378
1694.00,4.2588
1693.00,4.1261
1692.00,4.0746
1691.00,4.0285
1690.00,3.9474
1689.00,3.8326
1688.00,3.7240
1687.00,3.6384
1686.00,3.5699
1685.00,3.5085
1684.00,3.4546
1683.00,3.4087
1682.00,3.3734
1681.00,3.3456
1680.00,3.3184
1679.00,3.2923
1678.00,3.2670
1677.00,3.2408
1676.00,3.2108
1675.00,3.1746
1674.00,3.1277
1673.00,3.0686
1672.00,3.0078
1671.00,2.9601
1670.00,2.9310
1669.00,2.9168
1668.00,2.9140
1667.00,2.9207
1666.00,2.9349
1665.00,2.9565
1664.00,2.9855
1663.00,3.0196
1662.00,3.0510
1661.00,3.0744
1660.00,3.0933
1659.00,3.1137
1658.00,3.1386
1657.00,3.1639
1656.00,3.1824
1655.00,3.1901
1654.00,3.1938
1653.00,3.2010
1652.00,3.2101
1651.00,3.2160
1650.00,3.2172
1649.00,3.2321
1648.00,3.2582
1647.00,3.2728
1646.00,3.2712
1645.00,3.2654
1644.00,3.2604
1643.00,3.2549
1642.00,3.2528
1641.00,3.2545
1640.00,3.2548
1639.00,3.2497
1638.00,3.2402
1637.00,3.2289
1636.00,3.2193
1635.00,3.2154
1634.00,3.2195
1633.00,3.2209
1632.00,3.2113
1631.00,3.1965
1630.00,3.1803
1629.00,3.1634
1628.00,3.1450
1627.00,3.1232
1626.00,3.0986
1625.00,3.0739
1624.00,3.0498
1623.00,3.0230
1622.00,2.9895
1621.00,2.9506
1620.00,2.9111
1619.00,2.8733
1618.00,2.8360
1617.00,2.7962
1616.00,2.7517
1615.00,2.7036
1614.00,2.6564
1613.00,2.6136
1612.00,2.5729
1611.00,2.5286
1610.00,2.4761
1609.00,2.4157
1608.00,2.3525
1607.00,2.2920
1606.00,2.2375
1605.00,2.1898
1604.00,2.1488
1603.00,2.1142
1602.00,2.0884
1601.00,2.0741
1600.00,2.0729
1599.00,2.0844
1598.00,2.1065
1597.00,2.1362
1596.00,2.1713
1595.00,2.2107
1594.00,2.2544
1593.00,2.3022
1592.00,2.3529
1591.00,2.4047
1590.00,2.4558
1589.00,2.5055
1588.00,2.5537
1587.00,2.6005
1586.00,2.6448
1585.00,2.6855
1584.00,2.7235
1583.00,2.7607
1582.00,2.7999
1581.00,2.8406
1580.00,2.8773
1579.00,2.9042
1578.00,2.9210
1577.00,2.9336
1576.00,2.9497
1575.00,2.9733
1574.00,3.0020
1573.00,3.0317
1572.00,3.0625
1571.00,3.0946
1570.00,3.1247
1569.00,3.1445
1568.00,3.1517
1567.00,3.1540
1566.00,3.1616
1565.00,3.1776
1564.00,3.1957
1563.00,3.2059
1562.00,3.2054
1561.00,3.2007
1560.00,3.2021
1559.00,3.2133
1558.00,3.2118
1557.00,3.2169
1556.00,3.2275
1555.00,3.2277
1554.00,3.2331
1553.00,3.2477
1552.00,3.2608
1551.00,3.2646
1550.00,3.2641
1549.00,3.2655
1548.00,3.2691
1547.00,3.2700
1546.00,3.2669
1545.00,3.2626
1544.00,3.2568
1543.00,3.2508
1542.00,3.2508
1541.00,3.2511
1540.00,3.2339
1539.00,3.2019
1538.00,3.1843
1537.00,3.1832
1536.00,3.1897
1535.00,3.1996
1534.00,3.2029
1533.00,3.1949
1532.00,3.1773
1531.00,3.1578
1530.00,3.1423
1529.00,3.1304
1528.00,3.1181
1527.00,3.0985
1526.00,3.0720
1525.00,3.0455
1524.00,3.0203
1523.00,2.9876
1522.00,2.9464
1521.00,2.8989
1520.00,2.8622
1519.00,2.8296
1518.00,2.9080
1517.00,2.8847
1516.00,2.8471
1515.00,2.8118
1514.00,2.7725
1513.00,2.7331
1512.00,2.6885
1511.00,2.6458
1510.00,2.5958
1509.00,2.5567
1508.00,2.3603
1507.00,2.2661
1506.00,2.1986
1505.00,2.1808
1504.00,2.1830
1503.00,2.1662
1502.00,2.1459
1501.00,2.1288
1500.00,2.1159
1499.00,2.1071
1498.00,2.1013
1497.00,2.0998
1496.00,2.1090
1495.00,2.1353
1494.00,2.1760
1493.00,2.2250
1492.00,2.2789
1491.00,2.3333
1490.00,2.3813
1489.00,2.4229
1488.00,2.4728
1487.00,2.5421
1486.00,2.6227
1485.00,2.7016
1484.00,2.7734
1483.00,2.8369
1482.00,2.8926
1481.00,2.9415
1480.00,2.9855
1479.00,3.0266
1478.00,3.0652
1477.00,3.0999
1476.00,3.1290
1475.00,3.1533
1474.00,3.1764
1473.00,3.2030
1472.00,3.2346
1471.00,3.2725
1470.00,3.3144
1469.00,3.3551
1468.00,3.3923
1467.00,3.4247
1466.00,3.4520
1465.00,3.4780
1464.00,3.5032
1463.00,3.5192
1462.00,3.5204
1461.00,3.5170
1460.00,3.5233
1459.00,3.5404
1458.00,3.5600
1457.00,3.5820
1456.00,3.6253
1455.00,3.6966
1454.00,3.7732
1453.00,3.8517
1452.00,3.9465
1451.00,4.0540
1450.00,4.1354
1449.00,4.1470
1448.00,4.0889
1447.00,3.9896
1446.00,3.8791
1445.00,3.7755
1444.00,3.6901
1443.00,3.6284
1442.00,3.5894
1441.00,3.5672
1440.00,3.5590
1439.00,3.5668
1438.00,3.5936
1437.00,3.6350
1436.00,3.6770
1435.00,3.7096
1434.00,3.7394
1433.00,3.7805
1432.00,3.8371
1431.00,3.8929
1430.00,3.9193
1429.00,3.9106
1428.00,3.8927
1427.00,3.8837
1426.00,3.8765
1425.00,3.8613
1424.00,3.8482
1423.00,3.8584
1422.00,3.8933
1421.00,3.9145
1420.00,3.8777
1419.00,3.7866
1418.00,3.6816
1417.00,3.6009
1416.00,3.5599
1415.00,3.5518
1414.00,3.5629
1413.00,3.5772
1412.00,3.5798
1411.00,3.5678
1410.00,3.5503
1409.00,3.5340
1408.00,3.5189
1407.00,3.5081
1406.00,3.5082
1405.00,3.5199
1404.00,3.5295
1403.00,3.5221
1402.00,3.5029
1401.00,3.4882
1400.00,3.4805
1399.00,3.4651
1398.00,3.4326
1397.00,3.3967
1396.00,3.3766
1395.00,3.3788
1394.00,3.3957
1393.00,3.4133
1392.00,3.4206
1391.00,3.4155
1390.00,3.4009
1389.00,3.3791
1388.00,3.3526
1387.00,3.3257
1386.00,3.3043
1385.00,3.2927
1384.00,3.2876
1383.00,3.2788
1382.00,3.2574
1381.00,3.2223
1380.00,3.1819
1379.00,3.1459
1378.00,3.1163
1377.00,3.0873
1376.00,3.0511
1375.00,3.0049
1374.00,2.9540
1373.00,2.9094
1372.00,2.8771
1371.00,2.8517
1370.00,2.8245
1369.00,2.7944
1368.00,2.7661
1367.00,2.7454
1366.00,2.7327
1365.00,2.7235
1364.00,2.7139
1363.00,2.7055
1362.00,2.7059
1361.00,2.7256
1360.00,2.7679
1359.00,2.8273
1358.00,2.8970
1357.00,2.9723
1356.00,3.0496
1355.00,3.1281
1354.00,3.2100
1353.00,3.2982
1352.00,3.3935
1351.00,3.4965
1350.00,3.6052
1349.00,3.7105
1348.00,3.7953
1347.00,3.8255
1346.00,3.7780
1345.00,3.6941
1344.00,3.6246
1343.00,3.5893
1342.00,3.5898
1341.00,3.6199
1340.00,3.6599
1339.00,3.6621
1338.00,3.5935
1337.00,3.4954
1336.00,3.4134
1335.00,3.3565
1334.00,3.3192
1333.00,3.2975
1332.00,3.2927
1331.00,3.3059
1330.00,3.3323
1329.00,3.3633
1328.00,3.3962
1327.00,3.4358
1326.00,3.4830
1325.00,3.5283
1324.00,3.5650
1323.00,3.6024
1322.00,3.6571
1321.00,3.7328
1320.00,3.8110
1319.00,3.8601
1318.00,3.8711
1317.00,3.8697
1316.00,3.8875
1315.00,3.9533
1314.00,4.0750
1313.00,4.1908
1312.00,4.2397
1311.00,4.2572
1310.00,4.2150
1309.00,4.0976
1308.00,3.9465
1307.00,3.8005
1306.00,3.6804
1305.00,3.5898
1304.00,3.5256
1303.00,3.4839
1302.00,3.4600
1301.00,3.4472
1300.00,3.4412
1299.00,3.4432
1298.00,3.4571
1297.00,3.4820
1296.00,3.5123
1295.00,3.5429
1294.00,3.5710
1293.00,3.5924
1292.00,3.6024
1291.00,3.6046
1290.00,3.6072
1289.00,3.6149
1288.00,3.6280
1287.00,3.6424
1286.00,3.6527
1285.00,3.6591
1284.00,3.6649
1283.00,3.6695
1282.00,3.6689
1281.00,3.6612
1280.00,3.6519
1279.00,3.6479
1278.00,3.6509
1277.00,3.6584
1276.00,3.6690
1275.00,3.6824
1274.00,3.6953
1273.00,3.7001
1272.00,3.6964
1271.00,3.6938
1270.00,3.6998
1269.00,3.7107
1268.00,3.7187
1267.00,3.7191
1266.00,3.7126
1265.00,3.6981
1264.00,3.6734
1263.00,3.6482
1262.00,3.6331
1261.00,3.6230
1260.00,3.6045
1259.00,3.5766
1258.00,3.5508
1257.00,3.5348
1256.00,3.5272
1255.00,3.5258
1254.00,3.5335
1253.00,3.5500
1252.00,3.5651
1251.00,3.5645
1250.00,3.5443
1249.00,3.5127
1248.00,3.4799
1247.00,3.4527
1246.00,3.4359
1245.00,3.4301
1244.00,3.4302
1243.00,3.4295
1242.00,3.4271
1241.00,3.4291
1240.00,3.4414
1239.00,3.4643
1238.00,3.4918
1237.00,3.5181
1236.00,3.5439
1235.00,3.5745
1234.00,3.6150
1233.00,3.6677
1232.00,3.7308
1231.00,3.8030
1230.00,3.8916
1229.00,4.0162
1228.00,4.2004
1227.00,4.5042
1226.00,5.1287
1225.00,5.0171
1224.00,4.7832
1223.00,4.5730
1222.00,4.4279
1221.00,4.4274
1220.00,4.5750
1219.00,4.8332
1218.00,4.8849
1217.00,4.6655
1216.00,4.4091
1215.00,4.1495
1214.00,3.9251
1213.00,3.7741
1212.00,3.7000
1211.00,3.6800
1210.00,3.6764
1209.00,3.6602
1208.00,3.6282
1207.00,3.5885
1206.00,3.5453
1205.00,3.5004
1204.00,3.4565
1203.00,3.4158
1202.00,3.3771
1201.00,3.3391
1200.00,3.3057
1199.00,3.2835
1198.00,3.2768
1197.00,3.2859
1196.00,3.3078
1195.00,3.3362
1194.00,3.3598
1193.00,3.3672
1192.00,3.3571
1191.00,3.3442
1190.00,3.3467
1189.00,3.3691
1188.00,3.3985
1187.00,3.4156
1186.00,3.4187
1185.00,3.4295
1184.00,3.4703
1183.00,3.5416
1182.00,3.6176
1181.00,3.6670
1180.00,3.6847
1179.00,3.6988
1178.00,3.7353
1177.00,3.7875
1176.00,3.8302
1175.00,3.8501
1174.00,3.8517
1173.00,3.8434
1172.00,3.8295
1171.00,3.8164
1170.00,3.8090
1169.00,3.7954
1168.00,3.7676
1167.00,3.7457
1166.00,3.7484
1165.00,3.7834
1164.00,3.8587
1163.00,3.9534
1162.00,3.9658
1161.00,3.8640
1160.00,3.7581
1159.00,3.6955
1158.00,3.6711
1157.00,3.6740
1156.00,3.7076
1155.00,3.7829
1154.00,3.8954
1153.00,3.9929
1152.00,3.9935
1151.00,3.9218
1150.00,3.8601
1149.00,3.8385
1148.00,3.8522
1147.00,3.8836
1146.00,3.9132
1145.00,3.9391
1144.00,3.9569
1143.00,3.9434
1142.00,3.9044
1141.00,3.8813
1140.00,3.9018
1139.00,3.9502
1138.00,3.9823
1137.00,3.9735
1136.00,3.9426
1135.00,3.9467
1134.00,4.0224
1133.00,4.0613
1132.00,3.9514
1131.00,3.8554
1130.00,3.8374
1129.00,3.8895
1128.00,3.9958
1127.00,4.1009
1126.00,4.1389
1125.00,4.1434
1124.00,4.1703
1123.00,4.2441
1122.00,4.3428
1121.00,4.3807
1120.00,4.3889
1119.00,4.5390
1118.00,4.6022
1117.00,4.3323
1116.00,4.3079
1115.00,4.4611
1114.00,4.3673
1113.00,4.2292
1112.00,4.2229
1111.00,4.2235
1110.00,4.1593
1109.00,4.1257
1108.00,4.1134
1107.00,4.0414
1106.00,3.9703
1105.00,3.9633
1104.00,3.9886
1103.00,3.9782
1102.00,3.9252
1101.00,3.8919
1100.00,3.9258
1099.00,4.0266
1098.00,4.1481
1097.00,4.1554
1096.00,4.0361
1095.00,3.9581
1094.00,3.9278
1093.00,3.8686
1092.00,3.7785
1091.00,3.7107
1090.00,3.6770
1089.00,3.6633
1088.00,3.6604
1087.00,3.6657
1086.00,3.6689
1085.00,3.6524
1084.00,3.6118
1083.00,3.5542
1082.00,3.4906
1081.00,3.4360
1080.00,3.3970
1079.00,3.3748
1078.00,3.3714
1077.00,3.3836
1076.00,3.4011
1075.00,3.4166
1074.00,3.4291
1073.00,3.4431
1072.00,3.4686
1071.00,3.5049
1070.00,3.5318
1069.00,3.5344
1068.00,3.5284
1067.00,3.5432
1066.00,3.5940
1065.00,3.6690
1064.00,3.7282
1063.00,3.7312
1062.00,3.6877
1061.00,3.6405
1060.00,3.6190
1059.00,3.6330
1058.00,3.6861
1057.00,3.7826
1056.00,3.9038
1055.00,3.9564
1054.00,3.9140
1053.00,3.8711
1052.00,3.8546
1051.00,3.8518
1050.00,3.8411
1049.00,3.8123
1048.00,3.7887
1047.00,3.7878
1046.00,3.7893
1045.00,3.7714
1044.00,3.7574
1043.00,3.7834
1042.00,3.8494
1041.00,3.9209
1040.00,3.9566
1039.00,3.9301
1038.00,3.8750
1037.00,3.8370
1036.00,3.8258
1035.00,3.8330
1034.00,3.8431
1033.00,3.8453
1032.00,3.8619
1031.00,3.9469
1030.00,4.1633
1029.00,4.5698
1028.00,4.7673
1027.00,4.5045
1026.00,4.3319
1025.00,4.1811
1024.00,4.0539
1023.00,4.0091
1022.00,4.0919
1021.00,4.3139
1020.00,4.3357
1019.00,4.1429
1018.00,4.0885
1017.00,4.1867
1016.00,4.3577
1015.00,4.3923
1014.00,4.3357
1013.00,4.2788
1012.00,4.2659
1011.00,4.4534
1010.00,4.6340
1009.00,4.3373
1008.00,4.2767
1007.00,4.2875
1006.00,4.1230
1005.00,4.0284
1004.00,4.0343
1003.00,4.0469
1002.00,4.0213
1001.00,4.0098
1000.00,4.0595
999.00,4.1675
998.00,4.2995
997.00,4.4029
996.00,4.3927
995.00,4.3168
994.00,4.2628
993.00,4.2142
992.00,4.1689
991.00,4.2094
990.00,4.3777
989.00,4.5438
988.00,4.5235
987.00,4.3484
986.00,4.1802
985.00,4.1181
984.00,4.2293
983.00,4.4196
982.00,4.2420
981.00,4.1042
980.00,4.1327
979.00,4.3217
978.00,4.5815
977.00,4.3622
976.00,4.1137
975.00,4.0082
974.00,4.0103
973.00,4.1590
972.00,4.6053
971.00,4.6260
970.00,4.3126
969.00,4.3335
968.00,4.4159
967.00,4.3847
966.00,4.4074
965.00,4.5243
964.00,4.5389
963.00,4.3773
962.00,4.2420
961.00,4.2013
960.00,4.2590
959.00,4.3627
958.00,4.3572
957.00,4.2891
956.00,4.3277
955.00,4.5114
954.00,4.7131
953.00,4.6099
952.00,4.3572
951.00,4.1836
950.00,4.1102
949.00,4.1066
948.00,4.1276
947.00,4.1441
946.00,4.1135
945.00,4.0114
944.00,3.9107
943.00,3.8709
942.00,3.9024
941.00,3.9842
940.00,4.0639
939.00,4.1111
938.00,4.1389
937.00,4.1361
936.00,4.0914
935.00,4.0352
934.00,3.9993
933.00,4.0170
932.00,4.1235
931.00,4.3047
930.00,4.3413
929.00,4.1212
928.00,3.9266
927.00,3.8530
926.00,3.8987
925.00,4.0559
924.00,4.3027
923.00,4.5165
922.00,4.5259
921.00,4.6389
920.00,4.8709
919.00,4.5779
918.00,4.3367
917.00,4.1606
916.00,4.0192
915.00,3.9634
914.00,4.0089
913.00,4.1602
912.00,4.3799
911.00,4.4845
910.00,4.3661
909.00,4.3180
908.00,4.3803
907.00,4.4833
906.00,4.4470
905.00,4.2276
904.00,4.1209
903.00,4.1532
902.00,4.2645
901.00,4.4665
900.00,4.5723
899.00,4.3774
898.00,4.2550
897.00,4.2092
896.00,4.1616
895.00,4.1091
894.00,4.0732
893.00,4.0667
892.00,4.0838
891.00,4.1386
890.00,4.2094
889.00,4.2743
888.00,4.3397
887.00,4.3064
886.00,4.2677
885.00,4.3435
884.00,4.4216
883.00,4.3351
882.00,4.1395
881.00,4.0088
880.00,4.0187
879.00,4.1516
878.00,4.1926
877.00,4.0967
876.00,4.0775
875.00,4.1135
874.00,4.1143
873.00,4.0616
872.00,4.0639
871.00,4.2154
870.00,4.4766
869.00,4.6432
868.00,4.5848
867.00,4.2171
866.00,4.2279
865.00,4.6346
864.00,4.1454
863.00,3.8631
862.00,3.7973
861.00,3.8259
860.00,3.8985
859.00,3.9142
858.00,3.8849
857.00,3.8737
856.00,3.9452
855.00,4.1082
854.00,4.2766
853.00,4.3243
852.00,4.3078
851.00,4.2465
850.00,4.1249
849.00,4.0161
848.00,3.9998
847.00,4.1239
846.00,4.3891
845.00,4.5660
844.00,4.4875
843.00,4.4138
842.00,4.3720
841.00,4.3121
840.00,4.2071
839.00,4.0840
838.00,3.9855
837.00,3.9306
836.00,3.9154
835.00,3.9336
834.00,3.9965
833.00,4.0850
832.00,4.1326
831.00,4.1463
830.00,4.1979
829.00,4.2735
828.00,4.2858
827.00,4.2051
826.00,4.1676
825.00,4.2187
824.00,4.2778
823.00,4.3778
822.00,4.1654
821.00,3.8619
820.00,3.7617
819.00,3.8164
818.00,3.9622
817.00,4.0568
816.00,4.0898
815.00,4.2169
814.00,4.5514
813.00,5.2703
812.00,4.8725
811.00,4.4557
810.00,4.2200
809.00,4.0934
808.00,4.0456
807.00,4.0355
806.00,4.0233
805.00,3.9276
804.00,3.7876
803.00,3.7241
802.00,3.7721
801.00,3.9816
800.00,4.5162
799.00,4.7449
798.00,4.4532
797.00,4.4216
796.00,4.3832
795.00,4.4532
794.00,4.6694
793.00,4.8323
792.00,4.6067
791.00,4.2357
790.00,4.0108
789.00,3.9149
788.00,3.9198
787.00,3.9750
786.00,3.9690
785.00,3.9021
784.00,3.8473
783.00,3.8283
782.00,3.8600
781.00,3.9619
780.00,4.1010
779.00,4.2126
778.00,4.2484
777.00,4.1681
776.00,4.0995
775.00,4.0834
774.00,4.1192
773.00,4.1694
772.00,4.1152
771.00,4.0316
770.00,3.9987
769.00,4.0075
768.00,4.0848
767.00,4.2809
766.00,4.3149
765.00,4.1545
764.00,4.1561
763.00,4.1376
762.00,4.0273
761.00,4.0390
760.00,4.2520
759.00,4.7324
758.00,4.7438
757.00,4.5286
756.00,4.8048
755.00,4.4353
754.00,3.9957
753.00,3.8725
752.00,3.9173
751.00,3.9819
750.00,3.8799
749.00,3.7689
748.00,3.7721
747.00,3.8367
746.00,3.8284
745.00,3.7355
744.00,3.6927
743.00,3.7505
742.00,3.9235
741.00,4.1677
740.00,4.2871
739.00,4.3173
738.00,4.5407
737.00,4.5339
736.00,4.1752
735.00,4.0747
734.00,4.1484
733.00,4.2755
732.00,4.2615
731.00,4.0728
730.00,3.9636
729.00,3.9781
728.00,4.0266
727.00,3.9819
726.00,3.8926
725.00,3.8520
724.00,3.8858
723.00,3.9863
722.00,4.0781
721.00,4.0699
720.00,4.0135
719.00,3.9415
718.00,3.8650
717.00,3.8060
716.00,3.8298
715.00,3.9439
714.00,4.2039
713.00,4.6782
712.00,4.3181
711.00,3.9932
710.00,3.8518
709.00,3.8212
708.00,3.9058
707.00,4.0773
706.00,4.2724
705.00,4.2242
704.00,4.0738
703.00,4.0602
702.00,4.2745
701.00,4.4465
700.00,4.2851
