Created as New Dataset,Sample 113 By Administrator Date Wednesday, November 24 2021
cm-1,A
7502.00,1.1109
7501.00,1.1009
7500.00,1.0912
7499.00,1.0816
7498.00,1.0723
7497.00,1.0632
7496.00,1.0542
7495.00,1.0456
7494.00,1.0373
7493.00,1.0285
7492.00,1.0193
7491.00,1.0103
7490.00,1.0013
7489.00,0.9921
7488.00,0.9824
7487.00,0.9722
7486.00,0.9621
7485.00,0.9523
7484.00,0.9428
7483.00,0.9332
7482.00,0.9236
7481.00,0.9141
7480.00,0.9051
7479.00,0.8966
7478.00,0.8885
7477.00,0.8805
7476.00,0.8725
7475.00,0.8646
7474.00,0.8570
7473.00,0.8495
7472.00,0.8423
7471.00,0.8353
7470.00,0.8287
7469.00,0.8226
7468.00,0.8170
7467.00,0.8119
7466.00,0.8073
7465.00,0.8031
7464.00,0.7993
7463.00,0.7960
7462.00,0.7936
7461.00,0.7921
7460.00,0.7913
7459.00,0.7909
7458.00,0.7907
7457.00,0.7909
7456.00,0.7916
7455.00,0.7928
7454.00,0.7944
7453.00,0.7964
7452.00,0.7987
7451.00,0.8017
7450.00,0.8055
7449.00,0.8102
7448.00,0.8155
7447.00,0.8210
7446.00,0.8264
7445.00,0.8318
7444.00,0.8377
7443.00,0.8441
7442.00,0.8507
7441.00,0.8572
7440.00,0.8637
7439.00,0.8703
7438.00,0.8774
7437.00,0.8849
7436.00,0.8925
7435.00,0.9003
7434.00,0.9082
7433.00,0.9159
7432.00,0.9234
7431.00,0.9310
7430.00,0.9391
7429.00,0.9476
7428.00,0.9564
7427.00,0.9653
7426.00,0.9744
7425.00,0.9835
7424.00,0.9921
7423.00,1.0000
7422.00,1.0074
7421.00,1.0144
7420.00,1.0207
7419.00,1.0264
7418.00,1.0319
7417.00,1.0381
7416.00,1.0446
7415.00,1.0510
7414.00,1.0566
7413.00,1.0614
7412.00,1.0659
7411.00,1.0701
7410.00,1.0743
7409.00,1.0784
7408.00,1.0827
7407.00,1.0873
7406.00,1.0921
7405.00,1.0966
7404.00,1.1007
7403.00,1.1040
7402.00,1.1063
7401.00,1.1080
7400.00,1.1089
7399.00,1.1091
7398.00,1.1087
7397.00,1.1079
7396.00,1.1069
7395.00,1.1060
7394.00,1.1049
7393.00,1.1036
7392.00,1.1020
7391.00,1.1000
7390.00,1.0978
7389.00,1.0952
7388.00,1.0923
7387.00,1.0891
7386.00,1.0862
7385.00,1.0842
7384.00,1.0830
7383.00,1.0820
7382.00,1.0810
7381.00,1.0806
7380.00,1.0811
7379.00,1.0816
7378.00,1.0812
7377.00,1.0793
7376.00,1.0760
7375.00,1.0717
7374.00,1.0663
7373.00,1.0596
7372.00,1.0520
7371.00,1.0445
7370.00,1.0375
7369.00,1.0311
7368.00,1.0254
7367.00,1.0203
7366.00,1.0158
7365.00,1.0117
7364.00,1.0076
7363.00,1.0034
7362.00,0.9990
7361.00,0.9945
7360.00,0.9895
7359.00,0.9837
7358.00,0.9771
7357.00,0.9699
7356.00,0.9627
7355.00,0.9557
7354.00,0.9492
7353.00,0.9432
7352.00,0.9375
7351.00,0.9317
7350.00,0.9253
7349.00,0.9182
7348.00,0.9103
7347.00,0.9018
7346.00,0.8928
7345.00,0.8839
7344.00,0.8755
7343.00,0.8679
7342.00,0.8607
7341.00,0.8534
7340.00,0.8461
7339.00,0.8389
7338.00,0.8320
7337.00,0.8249
7336.00,0.8176
7335.00,0.8106
7334.00,0.8044
7333.00,0.7994
7332.00,0.7952
7331.00,0.7915
7330.00,0.7880
7329.00,0.7850
7328.00,0.7824
7327.00,0.7804
7326.00,0.7787
7325.00,0.7773
7324.00,0.7764
7323.00,0.7760
7322.00,0.7762
7321.00,0.7771
7320.00,0.7786
7319.00,0.7807
7318.00,0.7832
7317.00,0.7861
7316.00,0.7896
7315.00,0.7940
7314.00,0.7991
7313.00,0.8047
7312.00,0.8106
7311.00,0.8167
7310.00,0.8228
7309.00,0.8291
7308.00,0.8356
7307.00,0.8423
7306.00,0.8492
7305.00,0.8564
7304.00,0.8639
7303.00,0.8718
7302.00,0.8800
7301.00,0.8885
7300.00,0.8973
7299.00,0.9061
7298.00,0.9151
7297.00,0.9242
7296.00,0.9334
7295.00,0.9425
7294.00,0.9515
7293.00,0.9603
7292.00,0.9688
7291.00,0.9771
7290.00,0.9855
7289.00,0.9943
7288.00,1.0033
7287.00,1.0121
7286.00,1.0208
7285.00,1.0295
7284.00,1.0384
7283.00,1.0474
7282.00,1.0563
7281.00,1.0649
7280.00,1.0733
7279.00,1.0817
7278.00,1.0899
7277.00,1.0980
7276.00,1.1057
7275.00,1.1125
7274.00,1.1186
7273.00,1.1243
7272.00,1.1301
7271.00,1.1359
7270.00,1.1413
7269.00,1.1460
7268.00,1.1504
7267.00,1.1550
7266.00,1.1602
7265.00,1.1653
7264.00,1.1698
7263.00,1.1732
7262.00,1.1763
7261.00,1.1797
7260.00,1.1835
7259.00,1.1870
7258.00,1.1896
7257.00,1.1915
7256.00,1.1935
7255.00,1.1958
7254.00,1.1975
7253.00,1.1980
7252.00,1.1974
7251.00,1.1963
7250.00,1.1951
7249.00,1.1936
7248.00,1.1917
7247.00,1.1894
7246.00,1.1872
7245.00,1.1849
7244.00,1.1820
7243.00,1.1785
7242.00,1.1748
7241.00,1.1712
7240.00,1.1676
7239.00,1.1633
7238.00,1.1583
7237.00,1.1527
7236.00,1.1467
7235.00,1.1403
7234.00,1.1335
7233.00,1.1261
7232.00,1.1183
7231.00,1.1103
7230.00,1.1023
7229.00,1.0945
7228.00,1.0869
7227.00,1.0791
7226.00,1.0707
7225.00,1.0617
7224.00,1.0526
7223.00,1.0436
7222.00,1.0348
7221.00,1.0257
7220.00,1.0162
7219.00,1.0062
7218.00,0.9962
7217.00,0.9862
7216.00,0.9761
7215.00,0.9659
7214.00,0.9556
7213.00,0.9452
7212.00,0.9350
7211.00,0.9249
7210.00,0.9151
7209.00,0.9055
7208.00,0.8963
7207.00,0.8873
7206.00,0.8787
7205.00,0.8705
7204.00,0.8626
7203.00,0.8548
7202.00,0.8472
7201.00,0.8400
7200.00,0.8332
7199.00,0.8267
7198.00,0.8206
7197.00,0.8151
7196.00,0.8102
7195.00,0.8058
7194.00,0.8017
7193.00,0.7978
7192.00,0.7943
7191.00,0.7916
7190.00,0.7896
7189.00,0.7882
7188.00,0.7873
7187.00,0.7869
7186.00,0.7871
7185.00,0.7880
7184.00,0.7894
7183.00,0.7915
7182.00,0.7942
7181.00,0.7975
7180.00,0.8013
7179.00,0.8052
7178.00,0.8095
7177.00,0.8143
7176.00,0.8196
7175.00,0.8255
7174.00,0.8317
7173.00,0.8381
7172.00,0.8448
7171.00,0.8517
7170.00,0.8590
7169.00,0.8666
7168.00,0.8741
7167.00,0.8818
7166.00,0.8896
7165.00,0.8979
7164.00,0.9066
7163.00,0.9154
7162.00,0.9239
7161.00,0.9321
7160.00,0.9404
7159.00,0.9489
7158.00,0.9575
7157.00,0.9659
7156.00,0.9743
7155.00,0.9830
7154.00,0.9919
7153.00,1.0009
7152.00,1.0098
7151.00,1.0188
7150.00,1.0281
7149.00,1.0374
7148.00,1.0461
7147.00,1.0540
7146.00,1.0614
7145.00,1.0687
7144.00,1.0758
7143.00,1.0825
7142.00,1.0888
7141.00,1.0953
7140.00,1.1025
7139.00,1.1100
7138.00,1.1172
7137.00,1.1239
7136.00,1.1304
7135.00,1.1369
7134.00,1.1429
7133.00,1.1478
7132.00,1.1515
7131.00,1.1546
7130.00,1.1575
7129.00,1.1604
7128.00,1.1632
7127.00,1.1660
7126.00,1.1688
7125.00,1.1712
7124.00,1.1733
7123.00,1.1754
7122.00,1.1773
7121.00,1.1786
7120.00,1.1787
7119.00,1.1782
7118.00,1.1777
7117.00,1.1777
7116.00,1.1775
7115.00,1.1765
7114.00,1.1750
7113.00,1.1734
7112.00,1.1717
7111.00,1.1695
7110.00,1.1668
7109.00,1.1640
7108.00,1.1612
7107.00,1.1581
7106.00,1.1546
7105.00,1.1507
7104.00,1.1465
7103.00,1.1420
7102.00,1.1369
7101.00,1.1311
7100.00,1.1247
7099.00,1.1185
7098.00,1.1128
7097.00,1.1071
7096.00,1.1004
7095.00,1.0928
7094.00,1.0850
7093.00,1.0776
7092.00,1.0702
7091.00,1.0620
7090.00,1.0529
7089.00,1.0438
7088.00,1.0352
7087.00,1.0267
7086.00,1.0175
7085.00,1.0078
7084.00,0.9981
7083.00,0.9888
7082.00,0.9794
7081.00,0.9700
7080.00,0.9606
7079.00,0.9515
7078.00,0.9425
7077.00,0.9333
7076.00,0.9239
7075.00,0.9145
7074.00,0.9051
7073.00,0.8957
7072.00,0.8862
7071.00,0.8770
7070.00,0.8682
7069.00,0.8599
7068.00,0.8518
7067.00,0.8439
7066.00,0.8363
7065.00,0.8292
7064.00,0.8228
7063.00,0.8168
7062.00,0.8112
7061.00,0.8059
7060.00,0.8013
7059.00,0.7972
7058.00,0.7937
7057.00,0.7904
7056.00,0.7876
7055.00,0.7851
7054.00,0.7833
7053.00,0.7820
7052.00,0.7815
7051.00,0.7817
7050.00,0.7827
7049.00,0.7841
7048.00,0.7859
7047.00,0.7882
7046.00,0.7912
7045.00,0.7950
7044.00,0.7993
7043.00,0.8039
7042.00,0.8089
7041.00,0.8146
7040.00,0.8209
7039.00,0.8273
7038.00,0.8338
7037.00,0.8403
7036.00,0.8471
7035.00,0.8542
7034.00,0.8614
7033.00,0.8689
7032.00,0.8769
7031.00,0.8856
7030.00,0.8946
7029.00,0.9038
7028.00,0.9130
7027.00,0.9224
7026.00,0.9321
7025.00,0.9417
7024.00,0.9510
7023.00,0.9600
7022.00,0.9690
7021.00,0.9783
7020.00,0.9878
7019.00,0.9971
7018.00,1.0062
7017.00,1.0153
7016.00,1.0246
7015.00,1.0341
7014.00,1.0434
7013.00,1.0525
7012.00,1.0616
7011.00,1.0706
7010.00,1.0795
7009.00,1.0879
7008.00,1.0956
7007.00,1.1031
7006.00,1.1107
7005.00,1.1186
7004.00,1.1266
7003.00,1.1344
7002.00,1.1416
7001.00,1.1484
7000.00,1.1548
6999.00,1.1608
6998.00,1.1662
6997.00,1.1708
6996.00,1.1749
6995.00,1.1789
6994.00,1.1830
6993.00,1.1870
6992.00,1.1908
6991.00,1.1945
6990.00,1.1981
6989.00,1.2015
6988.00,1.2044
6987.00,1.2067
6986.00,1.2084
6985.00,1.2097
6984.00,1.2107
6983.00,1.2113
6982.00,1.2115
6981.00,1.2114
6980.00,1.2113
6979.00,1.2111
6978.00,1.2103
6977.00,1.2084
6976.00,1.2057
6975.00,1.2027
6974.00,1.1996
6973.00,1.1963
6972.00,1.1927
6971.00,1.1888
6970.00,1.1845
6969.00,1.1799
6968.00,1.1751
6967.00,1.1701
6966.00,1.1651
6965.00,1.1597
6964.00,1.1537
6963.00,1.1471
6962.00,1.1400
6961.00,1.1323
6960.00,1.1241
6959.00,1.1155
6958.00,1.1068
6957.00,1.0983
6956.00,1.0898
6955.00,1.0812
6954.00,1.0721
6953.00,1.0627
6952.00,1.0530
6951.00,1.0432
6950.00,1.0333
6949.00,1.0232
6948.00,1.0128
6947.00,1.0024
6946.00,0.9922
6945.00,0.9821
6944.00,0.9717
6943.00,0.9611
6942.00,0.9505
6941.00,0.9401
6940.00,0.9298
6939.00,0.9196
6938.00,0.9096
6937.00,0.8998
6936.00,0.8902
6935.00,0.8808
6934.00,0.8718
6933.00,0.8631
6932.00,0.8547
6931.00,0.8464
6930.00,0.8384
6929.00,0.8309
6928.00,0.8242
6927.00,0.8180
6926.00,0.8124
6925.00,0.8071
6924.00,0.8023
6923.00,0.7978
6922.00,0.7939
6921.00,0.7906
6920.00,0.7880
6919.00,0.7861
6918.00,0.7849
6917.00,0.7841
6916.00,0.7838
6915.00,0.7839
6914.00,0.7847
6913.00,0.7862
6912.00,0.7883
6911.00,0.7909
6910.00,0.7941
6909.00,0.7980
6908.00,0.8025
6907.00,0.8074
6906.00,0.8126
6905.00,0.8182
6904.00,0.8241
6903.00,0.8304
6902.00,0.8372
6901.00,0.8445
6900.00,0.8524
6899.00,0.8608
6898.00,0.8693
6897.00,0.8777
6896.00,0.8862
6895.00,0.8949
6894.00,0.9037
6893.00,0.9123
6892.00,0.9208
6891.00,0.9296
6890.00,0.9391
6889.00,0.9489
6888.00,0.9586
6887.00,0.9680
6886.00,0.9774
6885.00,0.9866
6884.00,0.9956
6883.00,1.0044
6882.00,1.0133
6881.00,1.0225
6880.00,1.0321
6879.00,1.0416
6878.00,1.0508
6877.00,1.0597
6876.00,1.0683
6875.00,1.0769
6874.00,1.0854
6873.00,1.0935
6872.00,1.1011
6871.00,1.1084
6870.00,1.1158
6869.00,1.1232
6868.00,1.1305
6867.00,1.1373
6866.00,1.1440
6865.00,1.1506
6864.00,1.1571
6863.00,1.1630
6862.00,1.1684
6861.00,1.1733
6860.00,1.1778
6859.00,1.1818
6858.00,1.1853
6857.00,1.1885
6856.00,1.1915
6855.00,1.1944
6854.00,1.1968
6853.00,1.1987
6852.00,1.2004
6851.00,1.2019
6850.00,1.2031
6849.00,1.2038
6848.00,1.2038
6847.00,1.2033
6846.00,1.2027
6845.00,1.2020
6844.00,1.2011
6843.00,1.1999
6842.00,1.1983
6841.00,1.1966
6840.00,1.1950
6839.00,1.1928
6838.00,1.1899
6837.00,1.1862
6836.00,1.1821
6835.00,1.1779
6834.00,1.1734
6833.00,1.1687
6832.00,1.1637
6831.00,1.1586
6830.00,1.1532
6829.00,1.1474
6828.00,1.1409
6827.00,1.1338
6826.00,1.1262
6825.00,1.1184
6824.00,1.1105
6823.00,1.1025
6822.00,1.0944
6821.00,1.0864
6820.00,1.0784
6819.00,1.0701
6818.00,1.0613
6817.00,1.0521
6816.00,1.0426
6815.00,1.0331
6814.00,1.0235
6813.00,1.0135
6812.00,1.0029
6811.00,0.9922
6810.00,0.9816
6809.00,0.9711
6808.00,0.9607
6807.00,0.9502
6806.00,0.9398
6805.00,0.9296
6804.00,0.9193
6803.00,0.9091
6802.00,0.8990
6801.00,0.8889
6800.00,0.8791
6799.00,0.8695
6798.00,0.8605
6797.00,0.8520
6796.00,0.8438
6795.00,0.8358
6794.00,0.8282
6793.00,0.8212
6792.00,0.8146
6791.00,0.8082
6790.00,0.8022
6789.00,0.7969
6788.00,0.7922
6787.00,0.7881
6786.00,0.7843
6785.00,0.7811
6784.00,0.7786
6783.00,0.7770
6782.00,0.7760
6781.00,0.7757
6780.00,0.7757
6779.00,0.7763
6778.00,0.7776
6777.00,0.7797
6776.00,0.7822
6775.00,0.7852
6774.00,0.7886
6773.00,0.7928
6772.00,0.7976
6771.00,0.8028
6770.00,0.8084
6769.00,0.8143
6768.00,0.8208
6767.00,0.8278
6766.00,0.8351
6765.00,0.8430
6764.00,0.8513
6763.00,0.8599
6762.00,0.8686
6761.00,0.8773
6760.00,0.8862
6759.00,0.8955
6758.00,0.9049
6757.00,0.9144
6756.00,0.9241
6755.00,0.9339
6754.00,0.9440
6753.00,0.9539
6752.00,0.9635
6751.00,0.9729
6750.00,0.9822
6749.00,0.9918
6748.00,1.0018
6747.00,1.0119
6746.00,1.0221
6745.00,1.0322
6744.00,1.0423
6743.00,1.0520
6742.00,1.0611
6741.00,1.0698
6740.00,1.0781
6739.00,1.0866
6738.00,1.0955
6737.00,1.1046
6736.00,1.1136
6735.00,1.1225
6734.00,1.1311
6733.00,1.1393
6732.00,1.1468
6731.00,1.1537
6730.00,1.1603
6729.00,1.1668
6728.00,1.1732
6727.00,1.1796
6726.00,1.1859
6725.00,1.1918
6724.00,1.1971
6723.00,1.2017
6722.00,1.2055
6721.00,1.2087
6720.00,1.2116
6719.00,1.2144
6718.00,1.2175
6717.00,1.2208
6716.00,1.2239
6715.00,1.2264
6714.00,1.2283
6713.00,1.2295
6712.00,1.2299
6711.00,1.2296
6710.00,1.2287
6709.00,1.2276
6708.00,1.2267
6707.00,1.2259
6706.00,1.2247
6705.00,1.2227
6704.00,1.2201
6703.00,1.2172
6702.00,1.2139
6701.00,1.2103
6700.00,1.2063
6699.00,1.2017
6698.00,1.1968
6697.00,1.1916
6696.00,1.1862
6695.00,1.1805
6694.00,1.1745
6693.00,1.1681
6692.00,1.1615
6691.00,1.1547
6690.00,1.1474
6689.00,1.1395
6688.00,1.1312
6687.00,1.1227
6686.00,1.1142
6685.00,1.1055
6684.00,1.0964
6683.00,1.0868
6682.00,1.0767
6681.00,1.0663
6680.00,1.0558
6679.00,1.0453
6678.00,1.0346
6677.00,1.0239
6676.00,1.0131
6675.00,1.0025
6674.00,0.9918
6673.00,0.9811
6672.00,0.9703
6671.00,0.9593
6670.00,0.9483
6669.00,0.9373
6668.00,0.9263
6667.00,0.9154
6666.00,0.9048
6665.00,0.8945
6664.00,0.8844
6663.00,0.8745
6662.00,0.8652
6661.00,0.8563
6660.00,0.8477
6659.00,0.8392
6658.00,0.8311
6657.00,0.8235
6656.00,0.8164
6655.00,0.8099
6654.00,0.8040
6653.00,0.7987
6652.00,0.7940
6651.00,0.7902
6650.00,0.7870
6649.00,0.7845
6648.00,0.7826
6647.00,0.7812
6646.00,0.7804
6645.00,0.7803
6644.00,0.7805
6643.00,0.7812
6642.00,0.7825
6641.00,0.7845
6640.00,0.7873
6639.00,0.7908
6638.00,0.7949
6637.00,0.7996
6636.00,0.8048
6635.00,0.8104
6634.00,0.8162
6633.00,0.8226
6632.00,0.8295
6631.00,0.8370
6630.00,0.8449
6629.00,0.8531
6628.00,0.8615
6627.00,0.8702
6626.00,0.8790
6625.00,0.8879
6624.00,0.8969
6623.00,0.9060
6622.00,0.9154
6621.00,0.9250
6620.00,0.9348
6619.00,0.9446
6618.00,0.9544
6617.00,0.9643
6616.00,0.9744
6615.00,0.9846
6614.00,0.9946
6613.00,1.0046
6612.00,1.0145
6611.00,1.0246
6610.00,1.0348
6609.00,1.0447
6608.00,1.0541
6607.00,1.0633
6606.00,1.0723
6605.00,1.0812
6604.00,1.0898
6603.00,1.0982
6602.00,1.1069
6601.00,1.1156
6600.00,1.1241
6599.00,1.1321
6598.00,1.1396
6597.00,1.1470
6596.00,1.1540
6595.00,1.1605
6594.00,1.1665
6593.00,1.1721
6592.00,1.1775
6591.00,1.1826
6590.00,1.1876
6589.00,1.1924
6588.00,1.1967
6587.00,1.2005
6586.00,1.2039
6585.00,1.2069
6584.00,1.2095
6583.00,1.2118
6582.00,1.2136
6581.00,1.2153
6580.00,1.2167
6579.00,1.2177
6578.00,1.2183
6577.00,1.2184
6576.00,1.2180
6575.00,1.2172
6574.00,1.2161
6573.00,1.2148
6572.00,1.2133
6571.00,1.2116
6570.00,1.2095
6569.00,1.2069
6568.00,1.2039
6567.00,1.2006
6566.00,1.1971
6565.00,1.1931
6564.00,1.1887
6563.00,1.1837
6562.00,1.1785
6561.00,1.1730
6560.00,1.1672
6559.00,1.1613
6558.00,1.1549
6557.00,1.1482
6556.00,1.1410
6555.00,1.1335
6554.00,1.1257
6553.00,1.1175
6552.00,1.1090
6551.00,1.1004
6550.00,1.0919
6549.00,1.0834
6548.00,1.0745
6547.00,1.0649
6546.00,1.0549
6545.00,1.0449
6544.00,1.0349
6543.00,1.0249
6542.00,1.0147
6541.00,1.0044
6540.00,0.9942
6539.00,0.9840
6538.00,0.9736
6537.00,0.9627
6536.00,0.9517
6535.00,0.9407
6534.00,0.9300
6533.00,0.9194
6532.00,0.9091
6531.00,0.8992
6530.00,0.8895
6529.00,0.8798
6528.00,0.8701
6527.00,0.8605
6526.00,0.8511
6525.00,0.8419
6524.00,0.8331
6523.00,0.8247
6522.00,0.8171
6521.00,0.8103
6520.00,0.8042
6519.00,0.7986
6518.00,0.7935
6517.00,0.7889
6516.00,0.7846
6515.00,0.7809
6514.00,0.7776
6513.00,0.7749
6512.00,0.7729
6511.00,0.7716
6510.00,0.7713
6509.00,0.7718
6508.00,0.7729
6507.00,0.7743
6506.00,0.7763
6505.00,0.7790
6504.00,0.7823
6503.00,0.7863
6502.00,0.7910
6501.00,0.7964
6500.00,0.8023
6499.00,0.8086
6498.00,0.8153
6497.00,0.8224
6496.00,0.8299
6495.00,0.8378
6494.00,0.8461
6493.00,0.8547
6492.00,0.8635
6491.00,0.8726
6490.00,0.8821
6489.00,0.8918
6488.00,0.9017
6487.00,0.9118
6486.00,0.9222
6485.00,0.9327
6484.00,0.9430
6483.00,0.9529
6482.00,0.9629
6481.00,0.9733
6480.00,0.9839
6479.00,0.9945
6478.00,1.0050
6477.00,1.0155
6476.00,1.0259
6475.00,1.0362
6474.00,1.0464
6473.00,1.0564
6472.00,1.0664
6471.00,1.0765
6470.00,1.0865
6469.00,1.0963
6468.00,1.1060
6467.00,1.1156
6466.00,1.1250
6465.00,1.1342
6464.00,1.1430
6463.00,1.1514
6462.00,1.1595
6461.00,1.1672
6460.00,1.1745
6459.00,1.1816
6458.00,1.1888
6457.00,1.1958
6456.00,1.2022
6455.00,1.2080
6454.00,1.2133
6453.00,1.2182
6452.00,1.2226
6451.00,1.2266
6450.00,1.2306
6449.00,1.2344
6448.00,1.2380
6447.00,1.2412
6446.00,1.2440
6445.00,1.2465
6444.00,1.2485
6443.00,1.2501
6442.00,1.2510
6441.00,1.2514
6440.00,1.2515
6439.00,1.2515
6438.00,1.2513
6437.00,1.2509
6436.00,1.2498
6435.00,1.2480
6434.00,1.2456
6433.00,1.2429
6432.00,1.2397
6431.00,1.2359
6430.00,1.2316
6429.00,1.2268
6428.00,1.2216
6427.00,1.2163
6426.00,1.2110
6425.00,1.2057
6424.00,1.2000
6423.00,1.1940
6422.00,1.1877
6421.00,1.1811
6420.00,1.1740
6419.00,1.1662
6418.00,1.1579
6417.00,1.1494
6416.00,1.1404
6415.00,1.1311
6414.00,1.1214
6413.00,1.1111
6412.00,1.1004
6411.00,1.0896
6410.00,1.0792
6409.00,1.0689
6408.00,1.0584
6407.00,1.0472
6406.00,1.0359
6405.00,1.0245
6404.00,1.0133
6403.00,1.0018
6402.00,0.9902
6401.00,0.9784
6400.00,0.9666
6399.00,0.9548
6398.00,0.9430
6397.00,0.9313
6396.00,0.9198
6395.00,0.9085
6394.00,0.8976
6393.00,0.8869
6392.00,0.8765
6391.00,0.8662
6390.00,0.8562
6389.00,0.8467
6388.00,0.8377
6387.00,0.8293
6386.00,0.8215
6385.00,0.8143
6384.00,0.8076
6383.00,0.8014
6382.00,0.7959
6381.00,0.7910
6380.00,0.7867
6379.00,0.7828
6378.00,0.7796
6377.00,0.7773
6376.00,0.7759
6375.00,0.7751
6374.00,0.7749
6373.00,0.7753
6372.00,0.7765
6371.00,0.7782
6370.00,0.7805
6369.00,0.7834
6368.00,0.7871
6367.00,0.7916
6366.00,0.7968
6365.00,0.8026
6364.00,0.8090
6363.00,0.8159
6362.00,0.8232
6361.00,0.8308
6360.00,0.8387
6359.00,0.8468
6358.00,0.8553
6357.00,0.8643
6356.00,0.8735
6355.00,0.8830
6354.00,0.8926
6353.00,0.9024
6352.00,0.9123
6351.00,0.9224
6350.00,0.9327
6349.00,0.9433
6348.00,0.9540
6347.00,0.9649
6346.00,0.9759
6345.00,0.9868
6344.00,0.9976
6343.00,1.0081
6342.00,1.0186
6341.00,1.0289
6340.00,1.0392
6339.00,1.0491
6338.00,1.0588
6337.00,1.0684
6336.00,1.0780
6335.00,1.0877
6334.00,1.0974
6333.00,1.1070
6332.00,1.1163
6331.00,1.1253
6330.00,1.1339
6329.00,1.1424
6328.00,1.1509
6327.00,1.1591
6326.00,1.1671
6325.00,1.1746
6324.00,1.1817
6323.00,1.1882
6322.00,1.1944
6321.00,1.2002
6320.00,1.2058
6319.00,1.2111
6318.00,1.2159
6317.00,1.2205
6316.00,1.2246
6315.00,1.2281
6314.00,1.2309
6313.00,1.2332
6312.00,1.2355
6311.00,1.2379
6310.00,1.2402
6309.00,1.2421
6308.00,1.2434
6307.00,1.2445
6306.00,1.2451
6305.00,1.2451
6304.00,1.2443
6303.00,1.2430
6302.00,1.2417
6301.00,1.2403
6300.00,1.2385
6299.00,1.2362
6298.00,1.2333
6297.00,1.2298
6296.00,1.2258
6295.00,1.2216
6294.00,1.2172
6293.00,1.2127
6292.00,1.2080
6291.00,1.2033
6290.00,1.1983
6289.00,1.1928
6288.00,1.1865
6287.00,1.1796
6286.00,1.1725
6285.00,1.1654
6284.00,1.1582
6283.00,1.1506
6282.00,1.1427
6281.00,1.1345
6280.00,1.1257
6279.00,1.1165
6278.00,1.1068
6277.00,1.0970
6276.00,1.0869
6275.00,1.0766
6274.00,1.0662
6273.00,1.0557
6272.00,1.0448
6271.00,1.0337
6270.00,1.0226
6269.00,1.0116
6268.00,1.0006
6267.00,0.9893
6266.00,0.9777
6265.00,0.9662
6264.00,0.9546
6263.00,0.9429
6262.00,0.9312
6261.00,0.9195
6260.00,0.9080
6259.00,0.8967
6258.00,0.8856
6257.00,0.8748
6256.00,0.8643
6255.00,0.8543
6254.00,0.8448
6253.00,0.8358
6252.00,0.8274
6251.00,0.8194
6250.00,0.8120
6249.00,0.8052
6248.00,0.7988
6247.00,0.7927
6246.00,0.7872
6245.00,0.7823
6244.00,0.7781
6243.00,0.7745
6242.00,0.7718
6241.00,0.7699
6240.00,0.7689
6239.00,0.7686
6238.00,0.7689
6237.00,0.7699
6236.00,0.7716
6235.00,0.7740
6234.00,0.7772
6233.00,0.7812
6232.00,0.7858
6231.00,0.7911
6230.00,0.7970
6229.00,0.8035
6228.00,0.8103
6227.00,0.8175
6226.00,0.8252
6225.00,0.8333
6224.00,0.8418
6223.00,0.8507
6222.00,0.8601
6221.00,0.8698
6220.00,0.8797
6219.00,0.8899
6218.00,0.9003
6217.00,0.9109
6216.00,0.9216
6215.00,0.9325
6214.00,0.9434
6213.00,0.9545
6212.00,0.9656
6211.00,0.9767
6210.00,0.9877
6209.00,0.9986
6208.00,1.0097
6207.00,1.0208
6206.00,1.0321
6205.00,1.0436
6204.00,1.0549
6203.00,1.0659
6202.00,1.0765
6201.00,1.0869
6200.00,1.0971
6199.00,1.1071
6198.00,1.1170
6197.00,1.1270
6196.00,1.1370
6195.00,1.1469
6194.00,1.1563
6193.00,1.1653
6192.00,1.1739
6191.00,1.1824
6190.00,1.1907
6189.00,1.1988
6188.00,1.2065
6187.00,1.2137
6186.00,1.2203
6185.00,1.2265
6184.00,1.2323
6183.00,1.2376
6182.00,1.2426
6181.00,1.2472
6180.00,1.2515
6179.00,1.2557
6178.00,1.2595
6177.00,1.2629
6176.00,1.2656
6175.00,1.2678
6174.00,1.2698
6173.00,1.2715
6172.00,1.2728
6171.00,1.2736
6170.00,1.2739
6169.00,1.2739
6168.00,1.2737
6167.00,1.2732
6166.00,1.2722
6165.00,1.2707
6164.00,1.2688
6163.00,1.2664
6162.00,1.2635
6161.00,1.2597
6160.00,1.2554
6159.00,1.2509
6158.00,1.2465
6157.00,1.2422
6156.00,1.2374
6155.00,1.2319
6154.00,1.2259
6153.00,1.2198
6152.00,1.2132
6151.00,1.2061
6150.00,1.1984
6149.00,1.1903
6148.00,1.1820
6147.00,1.1734
6146.00,1.1646
6145.00,1.1554
6144.00,1.1457
6143.00,1.1359
6142.00,1.1258
6141.00,1.1154
6140.00,1.1045
6139.00,1.0932
6138.00,1.0817
6137.00,1.0702
6136.00,1.0586
6135.00,1.0466
6134.00,1.0343
6133.00,1.0218
6132.00,1.0092
6131.00,0.9966
6130.00,0.9839
6129.00,0.9713
6128.00,0.9589
6127.00,0.9468
6126.00,0.9349
6125.00,0.9229
6124.00,0.9110
6123.00,0.8992
6122.00,0.8876
6121.00,0.8763
6120.00,0.8653
6119.00,0.8546
6118.00,0.8445
6117.00,0.8350
6116.00,0.8260
6115.00,0.8175
6114.00,0.8096
6113.00,0.8025
6112.00,0.7961
6111.00,0.7902
6110.00,0.7850
6109.00,0.7803
6108.00,0.7763
6107.00,0.7730
6106.00,0.7706
6105.00,0.7689
6104.00,0.7680
6103.00,0.7679
6102.00,0.7686
6101.00,0.7701
6100.00,0.7723
6099.00,0.7752
6098.00,0.7789
6097.00,0.7834
6096.00,0.7884
6095.00,0.7940
6094.00,0.8003
6093.00,0.8070
6092.00,0.8142
6091.00,0.8218
6090.00,0.8298
6089.00,0.8384
6088.00,0.8474
6087.00,0.8566
6086.00,0.8662
6085.00,0.8761
6084.00,0.8862
6083.00,0.8965
6082.00,0.9068
6081.00,0.9174
6080.00,0.9281
6079.00,0.9392
6078.00,0.9504
6077.00,0.9617
6076.00,0.9730
6075.00,0.9843
6074.00,0.9957
6073.00,1.0070
6072.00,1.0180
6071.00,1.0289
6070.00,1.0397
6069.00,1.0506
6068.00,1.0614
6067.00,1.0722
6066.00,1.0829
6065.00,1.0936
6064.00,1.1038
6063.00,1.1136
6062.00,1.1230
6061.00,1.1323
6060.00,1.1415
6059.00,1.1506
6058.00,1.1598
6057.00,1.1692
6056.00,1.1784
6055.00,1.1872
6054.00,1.1955
6053.00,1.2036
6052.00,1.2112
6051.00,1.2180
6050.00,1.2241
6049.00,1.2297
6048.00,1.2351
6047.00,1.2403
6046.00,1.2453
6045.00,1.2503
6044.00,1.2552
6043.00,1.2596
6042.00,1.2635
6041.00,1.2666
6040.00,1.2690
6039.00,1.2709
6038.00,1.2726
6037.00,1.2742
6036.00,1.2756
6035.00,1.2767
6034.00,1.2776
6033.00,1.2783
6032.00,1.2785
6031.00,1.2782
6030.00,1.2775
6029.00,1.2764
6028.00,1.2746
6027.00,1.2720
6026.00,1.2684
6025.00,1.2645
6024.00,1.2605
6023.00,1.2564
6022.00,1.2522
6021.00,1.2480
6020.00,1.2436
6019.00,1.2390
6018.00,1.2336
6017.00,1.2273
6016.00,1.2202
6015.00,1.2125
6014.00,1.2047
6013.00,1.1966
6012.00,1.1881
6011.00,1.1790
6010.00,1.1695
6009.00,1.1599
6008.00,1.1500
6007.00,1.1398
6006.00,1.1291
6005.00,1.1184
6004.00,1.1074
6003.00,1.0961
6002.00,1.0843
6001.00,1.0721
6000.00,1.0598
5999.00,1.0474
5998.00,1.0349
5997.00,1.0223
5996.00,1.0097
5995.00,0.9969
5994.00,0.9841
5993.00,0.9712
5992.00,0.9583
5991.00,0.9454
5990.00,0.9326
5989.00,0.9200
5988.00,0.9077
5987.00,0.8958
5986.00,0.8843
5985.00,0.8731
5984.00,0.8622
5983.00,0.8515
5982.00,0.8413
5981.00,0.8316
5980.00,0.8226
5979.00,0.8143
5978.00,0.8066
5977.00,0.7996
5976.00,0.7931
5975.00,0.7872
5974.00,0.7820
5973.00,0.7777
5972.00,0.7742
5971.00,0.7716
5970.00,0.7698
5969.00,0.7690
5968.00,0.7688
5967.00,0.7695
5966.00,0.7708
5965.00,0.7730
5964.00,0.7760
5963.00,0.7798
5962.00,0.7843
5961.00,0.7894
5960.00,0.7952
5959.00,0.8016
5958.00,0.8087
5957.00,0.8164
5956.00,0.8246
5955.00,0.8333
5954.00,0.8424
5953.00,0.8519
5952.00,0.8617
5951.00,0.8719
5950.00,0.8825
5949.00,0.8935
5948.00,0.9048
5947.00,0.9163
5946.00,0.9279
5945.00,0.9396
5944.00,0.9513
5943.00,0.9631
5942.00,0.9752
5941.00,0.9874
5940.00,0.9997
5939.00,1.0120
5938.00,1.0243
5937.00,1.0367
5936.00,1.0490
5935.00,1.0611
5934.00,1.0732
5933.00,1.0851
5932.00,1.0969
5931.00,1.1084
5930.00,1.1195
5929.00,1.1305
5928.00,1.1414
5927.00,1.1523
5926.00,1.1632
5925.00,1.1737
5924.00,1.1837
5923.00,1.1930
5922.00,1.2017
5921.00,1.2102
5920.00,1.2186
5919.00,1.2271
5918.00,1.2354
5917.00,1.2436
5916.00,1.2512
5915.00,1.2583
5914.00,1.2648
5913.00,1.2708
5912.00,1.2763
5911.00,1.2811
5910.00,1.2855
5909.00,1.2897
5908.00,1.2937
5907.00,1.2975
5906.00,1.3013
5905.00,1.3048
5904.00,1.3078
5903.00,1.3100
5902.00,1.3114
5901.00,1.3123
5900.00,1.3130
5899.00,1.3135
5898.00,1.3138
5897.00,1.3138
5896.00,1.3133
5895.00,1.3121
5894.00,1.3102
5893.00,1.3081
5892.00,1.3059
5891.00,1.3032
5890.00,1.2997
5889.00,1.2956
5888.00,1.2909
5887.00,1.2859
5886.00,1.2805
5885.00,1.2747
5884.00,1.2688
5883.00,1.2626
5882.00,1.2560
5881.00,1.2490
5880.00,1.2415
5879.00,1.2337
5878.00,1.2255
5877.00,1.2171
5876.00,1.2082
5875.00,1.1988
5874.00,1.1888
5873.00,1.1784
5872.00,1.1678
5871.00,1.1570
5870.00,1.1459
5869.00,1.1346
5868.00,1.1230
5867.00,1.1111
5866.00,1.0991
5865.00,1.0868
5864.00,1.0743
5863.00,1.0616
5862.00,1.0487
5861.00,1.0358
5860.00,1.0227
5859.00,1.0096
5858.00,0.9964
5857.00,0.9833
5856.00,0.9703
5855.00,0.9575
5854.00,0.9448
5853.00,0.9325
5852.00,0.9205
5851.00,0.9087
5850.00,0.8970
5849.00,0.8855
5848.00,0.8744
5847.00,0.8637
5846.00,0.8537
5845.00,0.8444
5844.00,0.8356
5843.00,0.8274
5842.00,0.8199
5841.00,0.8131
5840.00,0.8070
5839.00,0.8015
5838.00,0.7967
5837.00,0.7928
5836.00,0.7896
5835.00,0.7873
5834.00,0.7858
5833.00,0.7852
5832.00,0.7855
5831.00,0.7865
5830.00,0.7883
5829.00,0.7907
5828.00,0.7937
5827.00,0.7975
5826.00,0.8022
5825.00,0.8077
5824.00,0.8139
5823.00,0.8207
5822.00,0.8280
5821.00,0.8358
5820.00,0.8441
5819.00,0.8528
5818.00,0.8621
5817.00,0.8718
5816.00,0.8820
5815.00,0.8924
5814.00,0.9030
5813.00,0.9137
5812.00,0.9247
5811.00,0.9359
5810.00,0.9474
5809.00,0.9590
5808.00,0.9708
5807.00,0.9826
5806.00,0.9944
5805.00,1.0063
5804.00,1.0184
5803.00,1.0307
5802.00,1.0431
5801.00,1.0555
5800.00,1.0677
5799.00,1.0796
5798.00,1.0913
5797.00,1.1028
5796.00,1.1143
5795.00,1.1257
5794.00,1.1372
5793.00,1.1485
5792.00,1.1595
5791.00,1.1703
5790.00,1.1809
5789.00,1.1911
5788.00,1.2011
5787.00,1.2109
5786.00,1.2203
5785.00,1.2294
5784.00,1.2378
5783.00,1.2458
5782.00,1.2535
5781.00,1.2610
5780.00,1.2682
5779.00,1.2750
5778.00,1.2814
5777.00,1.2874
5776.00,1.2929
5775.00,1.2981
5774.00,1.3031
5773.00,1.3080
5772.00,1.3124
5771.00,1.3163
5770.00,1.3196
5769.00,1.3223
5768.00,1.3245
5767.00,1.3263
5766.00,1.3278
5765.00,1.3289
5764.00,1.3296
5763.00,1.3299
5762.00,1.3298
5761.00,1.3293
5760.00,1.3284
5759.00,1.3272
5758.00,1.3258
5757.00,1.3240
5756.00,1.3216
5755.00,1.3185
5754.00,1.3149
5753.00,1.3109
5752.00,1.3067
5751.00,1.3021
5750.00,1.2971
5749.00,1.2916
5748.00,1.2855
5747.00,1.2788
5746.00,1.2714
5745.00,1.2638
5744.00,1.2561
5743.00,1.2484
5742.00,1.2403
5741.00,1.2316
5740.00,1.2222
5739.00,1.2124
5738.00,1.2021
5737.00,1.1914
5736.00,1.1805
5735.00,1.1695
5734.00,1.1583
5733.00,1.1467
5732.00,1.1346
5731.00,1.1222
5730.00,1.1096
5729.00,1.0969
5728.00,1.0840
5727.00,1.0710
5726.00,1.0578
5725.00,1.0445
5724.00,1.0310
5723.00,1.0174
5722.00,1.0037
5721.00,0.9899
5720.00,0.9762
5719.00,0.9627
5718.00,0.9493
5717.00,0.9360
5716.00,0.9230
5715.00,0.9104
5714.00,0.8981
5713.00,0.8863
5712.00,0.8748
5711.00,0.8637
5710.00,0.8531
5709.00,0.8431
5708.00,0.8335
5707.00,0.8244
5706.00,0.8160
5705.00,0.8085
5704.00,0.8017
5703.00,0.7958
5702.00,0.7907
5701.00,0.7865
5700.00,0.7831
5699.00,0.7806
5698.00,0.7789
5697.00,0.7782
5696.00,0.7783
5695.00,0.7792
5694.00,0.7809
5693.00,0.7834
5692.00,0.7867
5691.00,0.7909
5690.00,0.7961
5689.00,0.8021
5688.00,0.8089
5687.00,0.8161
5686.00,0.8239
5685.00,0.8322
5684.00,0.8408
5683.00,0.8500
5682.00,0.8596
5681.00,0.8697
5680.00,0.8803
5679.00,0.8914
5678.00,0.9029
5677.00,0.9146
5676.00,0.9267
5675.00,0.9388
5674.00,0.9511
5673.00,0.9635
5672.00,0.9761
5671.00,0.9887
5670.00,1.0014
5669.00,1.0142
5668.00,1.0270
5667.00,1.0399
5666.00,1.0526
5665.00,1.0653
5664.00,1.0778
5663.00,1.0902
5662.00,1.1026
5661.00,1.1149
5660.00,1.1271
5659.00,1.1392
5658.00,1.1511
5657.00,1.1627
5656.00,1.1741
5655.00,1.1851
5654.00,1.1957
5653.00,1.2058
5652.00,1.2154
5651.00,1.2249
5650.00,1.2341
5649.00,1.2432
5648.00,1.2520
5647.00,1.2605
5646.00,1.2685
5645.00,1.2760
5644.00,1.2828
5643.00,1.2891
5642.00,1.2950
5641.00,1.3005
5640.00,1.3054
5639.00,1.3099
5638.00,1.3141
5637.00,1.3181
5636.00,1.3214
5635.00,1.3240
5634.00,1.3259
5633.00,1.3274
5632.00,1.3288
5631.00,1.3299
5630.00,1.3307
5629.00,1.3310
5628.00,1.3307
5627.00,1.3301
5626.00,1.3291
5625.00,1.3279
5624.00,1.3266
5623.00,1.3251
5622.00,1.3232
5621.00,1.3205
5620.00,1.3173
5619.00,1.3137
5618.00,1.3100
5617.00,1.3061
5616.00,1.3019
5615.00,1.2974
5614.00,1.2923
5613.00,1.2866
5612.00,1.2802
5611.00,1.2734
5610.00,1.2662
5609.00,1.2589
5608.00,1.2515
5607.00,1.2437
5606.00,1.2355
5605.00,1.2269
5604.00,1.2177
5603.00,1.2080
5602.00,1.1979
5601.00,1.1873
5600.00,1.1763
5599.00,1.1649
5598.00,1.1531
5597.00,1.1410
5596.00,1.1288
5595.00,1.1163
5594.00,1.1036
5593.00,1.0905
5592.00,1.0771
5591.00,1.0633
5590.00,1.0495
5589.00,1.0355
5588.00,1.0214
5587.00,1.0071
5586.00,0.9929
5585.00,0.9788
5584.00,0.9647
5583.00,0.9507
5582.00,0.9369
5581.00,0.9233
5580.00,0.9098
5579.00,0.8965
5578.00,0.8837
5577.00,0.8714
5576.00,0.8597
5575.00,0.8485
5574.00,0.8378
5573.00,0.8277
5572.00,0.8183
5571.00,0.8095
5570.00,0.8014
5569.00,0.7941
5568.00,0.7877
5567.00,0.7821
5566.00,0.7773
5565.00,0.7734
5564.00,0.7705
5563.00,0.7686
5562.00,0.7677
5561.00,0.7678
5560.00,0.7687
5559.00,0.7706
5558.00,0.7733
5557.00,0.7769
5556.00,0.7814
5555.00,0.7865
5554.00,0.7926
5553.00,0.7995
5552.00,0.8072
5551.00,0.8156
5550.00,0.8246
5549.00,0.8342
5548.00,0.8443
5547.00,0.8548
5546.00,0.8657
5545.00,0.8769
5544.00,0.8886
5543.00,0.9005
5542.00,0.9128
5541.00,0.9254
5540.00,0.9382
5539.00,0.9511
5538.00,0.9641
5537.00,0.9773
5536.00,0.9906
5535.00,1.0040
5534.00,1.0176
5533.00,1.0312
5532.00,1.0449
5531.00,1.0584
5530.00,1.0718
5529.00,1.0850
5528.00,1.0980
5527.00,1.1108
5526.00,1.1236
5525.00,1.1363
5524.00,1.1488
5523.00,1.1612
5522.00,1.1735
5521.00,1.1857
5520.00,1.1975
5519.00,1.2088
5518.00,1.2197
5517.00,1.2302
5516.00,1.2403
5515.00,1.2501
5514.00,1.2596
5513.00,1.2688
5512.00,1.2775
5511.00,1.2857
5510.00,1.2935
5509.00,1.3009
5508.00,1.3079
5507.00,1.3147
5506.00,1.3211
5505.00,1.3271
5504.00,1.3327
5503.00,1.3377
5502.00,1.3420
5501.00,1.3457
5500.00,1.3490
5499.00,1.3519
5498.00,1.3549
5497.00,1.3578
5496.00,1.3603
5495.00,1.3623
5494.00,1.3634
5493.00,1.3639
5492.00,1.3640
5491.00,1.3638
5490.00,1.3631
5489.00,1.3621
5488.00,1.3606
5487.00,1.3585
5486.00,1.3559
5485.00,1.3529
5484.00,1.3496
5483.00,1.3459
5482.00,1.3418
5481.00,1.3373
5480.00,1.3324
5479.00,1.3272
5478.00,1.3214
5477.00,1.3151
5476.00,1.3081
5475.00,1.3003
5474.00,1.2919
5473.00,1.2834
5472.00,1.2749
5471.00,1.2662
5470.00,1.2572
5469.00,1.2479
5468.00,1.2379
5467.00,1.2271
5466.00,1.2157
5465.00,1.2037
5464.00,1.1915
5463.00,1.1792
5462.00,1.1666
5461.00,1.1536
5460.00,1.1403
5459.00,1.1265
5458.00,1.1124
5457.00,1.0980
5456.00,1.0833
5455.00,1.0685
5454.00,1.0537
5453.00,1.0387
5452.00,1.0237
5451.00,1.0086
5450.00,0.9936
5449.00,0.9786
5448.00,0.9637
5447.00,0.9488
5446.00,0.9339
5445.00,0.9193
5444.00,0.9050
5443.00,0.8911
5442.00,0.8776
5441.00,0.8646
5440.00,0.8522
5439.00,0.8403
5438.00,0.8292
5437.00,0.8187
5436.00,0.8090
5435.00,0.8001
5434.00,0.7920
5433.00,0.7848
5432.00,0.7785
5431.00,0.7731
5430.00,0.7687
5429.00,0.7653
5428.00,0.7628
5427.00,0.7612
5426.00,0.7605
5425.00,0.7608
5424.00,0.7621
5423.00,0.7644
5422.00,0.7679
5421.00,0.7724
5420.00,0.7778
5419.00,0.7840
5418.00,0.7908
5417.00,0.7981
5416.00,0.8061
5415.00,0.8148
5414.00,0.8241
5413.00,0.8340
5412.00,0.8444
5411.00,0.8553
5410.00,0.8666
5409.00,0.8784
5408.00,0.8906
5407.00,0.9031
5406.00,0.9160
5405.00,0.9290
5404.00,0.9422
5403.00,0.9556
5402.00,0.9692
5401.00,0.9828
5400.00,0.9964
5399.00,1.0101
5398.00,1.0238
5397.00,1.0374
5396.00,1.0511
5395.00,1.0648
5394.00,1.0786
5393.00,1.0925
5392.00,1.1063
5391.00,1.1199
5390.00,1.1333
5389.00,1.1464
5388.00,1.1591
5387.00,1.1717
5386.00,1.1841
5385.00,1.1963
5384.00,1.2083
5383.00,1.2201
5382.00,1.2315
5381.00,1.2424
5380.00,1.2529
5379.00,1.2629
5378.00,1.2726
5377.00,1.2817
5376.00,1.2905
5375.00,1.2989
5374.00,1.3071
5373.00,1.3147
5372.00,1.3220
5371.00,1.3290
5370.00,1.3357
5369.00,1.3419
5368.00,1.3476
5367.00,1.3528
5366.00,1.3575
5365.00,1.3616
5364.00,1.3651
5363.00,1.3683
5362.00,1.3713
5361.00,1.3740
5360.00,1.3763
5359.00,1.3782
5358.00,1.3796
5357.00,1.3804
5356.00,1.3806
5355.00,1.3804
5354.00,1.3797
5353.00,1.3784
5352.00,1.3766
5351.00,1.3743
5350.00,1.3715
5349.00,1.3683
5348.00,1.3646
5347.00,1.3605
5346.00,1.3561
5345.00,1.3512
5344.00,1.3459
5343.00,1.3402
5342.00,1.3342
5341.00,1.3278
5340.00,1.3210
5339.00,1.3137
5338.00,1.3059
5337.00,1.2975
5336.00,1.2886
5335.00,1.2792
5334.00,1.2693
5333.00,1.2590
5332.00,1.2483
5331.00,1.2371
5330.00,1.2256
5329.00,1.2135
5328.00,1.2010
5327.00,1.1879
5326.00,1.1745
5325.00,1.1607
5324.00,1.1468
5323.00,1.1327
5322.00,1.1183
5321.00,1.1035
5320.00,1.0884
5319.00,1.0732
5318.00,1.0578
5317.00,1.0424
5316.00,1.0268
5315.00,1.0111
5314.00,0.9954
5313.00,0.9796
5312.00,0.9640
5311.00,0.9486
5310.00,0.9335
5309.00,0.9188
5308.00,0.9044
5307.00,0.8904
5306.00,0.8769
5305.00,0.8640
5304.00,0.8516
5303.00,0.8399
5302.00,0.8289
5301.00,0.8186
5300.00,0.8091
5299.00,0.8006
5298.00,0.7930
5297.00,0.7863
5296.00,0.7806
5295.00,0.7759
5294.00,0.7723
5293.00,0.7698
5292.00,0.7683
5291.00,0.7678
5290.00,0.7684
5289.00,0.7700
5288.00,0.7725
5287.00,0.7762
5286.00,0.7808
5285.00,0.7864
5284.00,0.7930
5283.00,0.8005
5282.00,0.8088
5281.00,0.8178
5280.00,0.8274
5279.00,0.8376
5278.00,0.8485
5277.00,0.8599
5276.00,0.8718
5275.00,0.8841
5274.00,0.8968
5273.00,0.9099
5272.00,0.9232
5271.00,0.9369
5270.00,0.9509
5269.00,0.9651
5268.00,0.9793
5267.00,0.9935
5266.00,1.0077
5265.00,1.0221
5264.00,1.0366
5263.00,1.0515
5262.00,1.0664
5261.00,1.0814
5260.00,1.0963
5259.00,1.1109
5258.00,1.1252
5257.00,1.1393
5256.00,1.1532
5255.00,1.1669
5254.00,1.1804
5253.00,1.1938
5252.00,1.2068
5251.00,1.2196
5250.00,1.2319
5249.00,1.2438
5248.00,1.2553
5247.00,1.2665
5246.00,1.2773
5245.00,1.2880
5244.00,1.2985
5243.00,1.3087
5242.00,1.3184
5241.00,1.3275
5240.00,1.3361
5239.00,1.3442
5238.00,1.3520
5237.00,1.3595
5236.00,1.3665
5235.00,1.3728
5234.00,1.3785
5233.00,1.3836
5232.00,1.3882
5231.00,1.3925
5230.00,1.3964
5229.00,1.3998
5228.00,1.4027
5227.00,1.4051
5226.00,1.4073
5225.00,1.4093
5224.00,1.4109
5223.00,1.4120
5222.00,1.4125
5221.00,1.4125
5220.00,1.4117
5219.00,1.4105
5218.00,1.4088
5217.00,1.4068
5216.00,1.4044
5215.00,1.4016
5214.00,1.3986
5213.00,1.3953
5212.00,1.3916
5211.00,1.3873
5210.00,1.3823
5209.00,1.3767
5208.00,1.3706
5207.00,1.3642
5206.00,1.3575
5205.00,1.3506
5204.00,1.3433
5203.00,1.3355
5202.00,1.3272
5201.00,1.3183
5200.00,1.3090
5199.00,1.2991
5198.00,1.2889
5197.00,1.2781
5196.00,1.2666
5195.00,1.2547
5194.00,1.2423
5193.00,1.2296
5192.00,1.2165
5191.00,1.2032
5190.00,1.1894
5189.00,1.1752
5188.00,1.1606
5187.00,1.1456
5186.00,1.1303
5185.00,1.1147
5184.00,1.0988
5183.00,1.0828
5182.00,1.0665
5181.00,1.0502
5180.00,1.0336
5179.00,1.0170
5178.00,1.0005
5177.00,0.9842
5176.00,0.9681
5175.00,0.9521
5174.00,0.9364
5173.00,0.9210
5172.00,0.9059
5171.00,0.8912
5170.00,0.8771
5169.00,0.8636
5168.00,0.8508
5167.00,0.8388
5166.00,0.8274
5165.00,0.8168
5164.00,0.8069
5163.00,0.7979
5162.00,0.7898
5161.00,0.7828
5160.00,0.7768
5159.00,0.7719
5158.00,0.7683
5157.00,0.7658
5156.00,0.7644
5155.00,0.7643
5154.00,0.7652
5153.00,0.7673
5152.00,0.7704
5151.00,0.7747
5150.00,0.7799
5149.00,0.7861
5148.00,0.7931
5147.00,0.8010
5146.00,0.8096
5145.00,0.8190
5144.00,0.8292
5143.00,0.8400
5142.00,0.8516
5141.00,0.8637
5140.00,0.8763
5139.00,0.8893
5138.00,0.9027
5137.00,0.9163
5136.00,0.9304
5135.00,0.9448
5134.00,0.9596
5133.00,0.9746
5132.00,0.9898
5131.00,1.0051
5130.00,1.0203
5129.00,1.0355
5128.00,1.0507
5127.00,1.0658
5126.00,1.0808
5125.00,1.0959
5124.00,1.1108
5123.00,1.1257
5122.00,1.1405
5121.00,1.1552
5120.00,1.1696
5119.00,1.1839
5118.00,1.1979
5117.00,1.2117
5116.00,1.2250
5115.00,1.2380
5114.00,1.2507
5113.00,1.2632
5112.00,1.2755
5111.00,1.2873
5110.00,1.2987
5109.00,1.3095
5108.00,1.3198
5107.00,1.3296
5106.00,1.3392
5105.00,1.3486
5104.00,1.3576
5103.00,1.3660
5102.00,1.3737
5101.00,1.3806
5100.00,1.3871
5099.00,1.3933
5098.00,1.3992
5097.00,1.4049
5096.00,1.4100
5095.00,1.4144
5094.00,1.4179
5093.00,1.4208
5092.00,1.4232
5091.00,1.4253
5090.00,1.4273
5089.00,1.4293
5088.00,1.4312
5087.00,1.4328
5086.00,1.4340
5085.00,1.4346
5084.00,1.4345
5083.00,1.4336
5082.00,1.4322
5081.00,1.4303
5080.00,1.4281
5079.00,1.4255
5078.00,1.4223
5077.00,1.4186
5076.00,1.4144
5075.00,1.4096
5074.00,1.4043
5073.00,1.3985
5072.00,1.3923
5071.00,1.3859
5070.00,1.3792
5069.00,1.3721
5068.00,1.3645
5067.00,1.3563
5066.00,1.3473
5065.00,1.3376
5064.00,1.3275
5063.00,1.3170
5062.00,1.3061
5061.00,1.2947
5060.00,1.2828
5059.00,1.2704
5058.00,1.2576
5057.00,1.2444
5056.00,1.2306
5055.00,1.2164
5054.00,1.2017
5053.00,1.1865
5052.00,1.1708
5051.00,1.1549
5050.00,1.1388
5049.00,1.1225
5048.00,1.1059
5047.00,1.0890
5046.00,1.0720
5045.00,1.0549
5044.00,1.0377
5043.00,1.0204
5042.00,1.0032
5041.00,0.9861
5040.00,0.9690
5039.00,0.9521
5038.00,0.9355
5037.00,0.9194
5036.00,0.9039
5035.00,0.8888
5034.00,0.8743
5033.00,0.8605
5032.00,0.8474
5031.00,0.8350
5030.00,0.8235
5029.00,0.8129
5028.00,0.8032
5027.00,0.7945
5026.00,0.7869
5025.00,0.7805
5024.00,0.7752
5023.00,0.7711
5022.00,0.7682
5021.00,0.7665
5020.00,0.7661
5019.00,0.7668
5018.00,0.7688
5017.00,0.7720
5016.00,0.7764
5015.00,0.7820
5014.00,0.7886
5013.00,0.7962
5012.00,0.8047
5011.00,0.8141
5010.00,0.8244
5009.00,0.8355
5008.00,0.8472
5007.00,0.8596
5006.00,0.8724
5005.00,0.8857
5004.00,0.8995
5003.00,0.9137
5002.00,0.9284
5001.00,0.9435
5000.00,0.9589
4999.00,0.9745
4998.00,0.9903
4997.00,1.0062
4996.00,1.0222
4995.00,1.0383
4994.00,1.0543
4993.00,1.0705
4992.00,1.0867
4991.00,1.1028
4990.00,1.1189
4989.00,1.1349
4988.00,1.1507
4987.00,1.1664
4986.00,1.1820
4985.00,1.1975
4984.00,1.2126
4983.00,1.2275
4982.00,1.2419
4981.00,1.2558
4980.00,1.2694
4979.00,1.2825
4978.00,1.2953
4977.00,1.3078
4976.00,1.3199
4975.00,1.3315
4974.00,1.3425
4973.00,1.3528
4972.00,1.3621
4971.00,1.3706
4970.00,1.3788
4969.00,1.3872
4968.00,1.3959
4967.00,1.4046
4966.00,1.4126
4965.00,1.4196
4964.00,1.4258
4963.00,1.4315
4962.00,1.4367
4961.00,1.4414
4960.00,1.4458
4959.00,1.4498
4958.00,1.4534
4957.00,1.4567
4956.00,1.4595
4955.00,1.4617
4954.00,1.4632
4953.00,1.4640
4952.00,1.4644
4951.00,1.4645
4950.00,1.4643
4949.00,1.4638
4948.00,1.4626
4947.00,1.4609
4946.00,1.4587
4945.00,1.4560
4944.00,1.4529
4943.00,1.4495
4942.00,1.4458
4941.00,1.4417
4940.00,1.4371
4939.00,1.4319
4938.00,1.4261
4937.00,1.4196
4936.00,1.4125
4935.00,1.4049
4934.00,1.3970
4933.00,1.3887
4932.00,1.3800
4931.00,1.3708
4930.00,1.3611
4929.00,1.3510
4928.00,1.3405
4927.00,1.3295
4926.00,1.3179
4925.00,1.3056
4924.00,1.2927
4923.00,1.2793
4922.00,1.2656
4921.00,1.2515
4920.00,1.2369
4919.00,1.2218
4918.00,1.2063
4917.00,1.1903
4916.00,1.1739
4915.00,1.1571
4914.00,1.1399
4913.00,1.1223
4912.00,1.1045
4911.00,1.0865
4910.00,1.0684
4909.00,1.0501
4908.00,1.0318
4907.00,1.0135
4906.00,0.9952
4905.00,0.9771
4904.00,0.9592
4903.00,0.9417
4902.00,0.9245
4901.00,0.9079
4900.00,0.8918
4899.00,0.8762
4898.00,0.8612
4897.00,0.8469
4896.00,0.8334
4895.00,0.8209
4894.00,0.8093
4893.00,0.7988
4892.00,0.7894
4891.00,0.7810
4890.00,0.7739
4889.00,0.7681
4888.00,0.7636
4887.00,0.7604
4886.00,0.7586
4885.00,0.7581
4884.00,0.7590
4883.00,0.7611
4882.00,0.7647
4881.00,0.7696
4880.00,0.7757
4879.00,0.7829
4878.00,0.7911
4877.00,0.8002
4876.00,0.8102
4875.00,0.8211
4874.00,0.8328
4873.00,0.8453
4872.00,0.8585
4871.00,0.8723
4870.00,0.8866
4869.00,0.9015
4868.00,0.9168
4867.00,0.9325
4866.00,0.9484
4865.00,0.9647
4864.00,0.9811
4863.00,0.9977
4862.00,1.0144
4861.00,1.0313
4860.00,1.0482
4859.00,1.0652
4858.00,1.0823
4857.00,1.0993
4856.00,1.1163
4855.00,1.1332
4854.00,1.1500
4853.00,1.1666
4852.00,1.1830
4851.00,1.1991
4850.00,1.2149
4849.00,1.2304
4848.00,1.2454
4847.00,1.2600
4846.00,1.2743
4845.00,1.2885
4844.00,1.3025
4843.00,1.3162
4842.00,1.3294
4841.00,1.3420
4840.00,1.3539
4839.00,1.3654
4838.00,1.3764
4837.00,1.3869
4836.00,1.3969
4835.00,1.4062
4834.00,1.4150
4833.00,1.4235
4832.00,1.4316
4831.00,1.4393
4830.00,1.4466
4829.00,1.4535
4828.00,1.4596
4827.00,1.4650
4826.00,1.4698
4825.00,1.4742
4824.00,1.4784
4823.00,1.4823
4822.00,1.4859
4821.00,1.4889
4820.00,1.4912
4819.00,1.4929
4818.00,1.4941
4817.00,1.4949
4816.00,1.4954
4815.00,1.4957
4814.00,1.4955
4813.00,1.4948
4812.00,1.4934
4811.00,1.4912
4810.00,1.4884
4809.00,1.4853
4808.00,1.4821
4807.00,1.4785
4806.00,1.4745
4805.00,1.4699
4804.00,1.4646
4803.00,1.4588
4802.00,1.4526
4801.00,1.4460
4800.00,1.4390
4799.00,1.4315
4798.00,1.4233
4797.00,1.4146
4796.00,1.4054
4795.00,1.3954
4794.00,1.3849
4793.00,1.3738
4792.00,1.3623
4791.00,1.3504
4790.00,1.3381
4789.00,1.3254
4788.00,1.3121
4787.00,1.2983
4786.00,1.2839
4785.00,1.2688
4784.00,1.2530
4783.00,1.2367
4782.00,1.2198
4781.00,1.2027
4780.00,1.1853
4779.00,1.1676
4778.00,1.1496
4777.00,1.1311
4776.00,1.1124
4775.00,1.0934
4774.00,1.0743
4773.00,1.0552
4772.00,1.0360
4771.00,1.0169
4770.00,0.9978
4769.00,0.9790
4768.00,0.9605
4767.00,0.9423
4766.00,0.9246
4765.00,0.9075
4764.00,0.8909
4763.00,0.8751
4762.00,0.8600
4761.00,0.8459
4760.00,0.8327
4759.00,0.8205
4758.00,0.8095
4757.00,0.7997
4756.00,0.7910
4755.00,0.7836
4754.00,0.7775
4753.00,0.7729
4752.00,0.7697
4751.00,0.7680
4750.00,0.7677
4749.00,0.7689
4748.00,0.7716
4747.00,0.7755
4746.00,0.7808
4745.00,0.7875
4744.00,0.7953
4743.00,0.8043
4742.00,0.8144
4741.00,0.8254
4740.00,0.8373
4739.00,0.8500
4738.00,0.8634
4737.00,0.8776
4736.00,0.8924
4735.00,0.9077
4734.00,0.9234
4733.00,0.9396
4732.00,0.9561
4731.00,0.9730
4730.00,0.9903
4729.00,1.0077
4728.00,1.0254
4727.00,1.0430
4726.00,1.0607
4725.00,1.0785
4724.00,1.0963
4723.00,1.1142
4722.00,1.1322
4721.00,1.1500
4720.00,1.1675
4719.00,1.1849
4718.00,1.2021
4717.00,1.2193
4716.00,1.2363
4715.00,1.2530
4714.00,1.2693
4713.00,1.2851
4712.00,1.3004
4711.00,1.3152
4710.00,1.3295
4709.00,1.3434
4708.00,1.3568
4707.00,1.3696
4706.00,1.3821
4705.00,1.3941
4704.00,1.4057
4703.00,1.4170
4702.00,1.4279
4701.00,1.4383
4700.00,1.4480
4699.00,1.4571
4698.00,1.4656
4697.00,1.4734
4696.00,1.4807
4695.00,1.4874
4694.00,1.4937
4693.00,1.4996
4692.00,1.5052
4691.00,1.5102
4690.00,1.5148
4689.00,1.5187
4688.00,1.5220
4687.00,1.5247
4686.00,1.5271
4685.00,1.5291
4684.00,1.5308
4683.00,1.5321
4682.00,1.5329
4681.00,1.5331
4680.00,1.5327
4679.00,1.5318
4678.00,1.5307
4677.00,1.5292
4676.00,1.5274
4675.00,1.5252
4674.00,1.5224
4673.00,1.5192
4672.00,1.5156
4671.00,1.5116
4670.00,1.5073
4669.00,1.5024
4668.00,1.4966
4667.00,1.4901
4666.00,1.4828
4665.00,1.4751
4664.00,1.4671
4663.00,1.4587
4662.00,1.4499
4661.00,1.4406
4660.00,1.4308
4659.00,1.4204
4658.00,1.4095
4657.00,1.3980
4656.00,1.3858
4655.00,1.3728
4654.00,1.3592
4653.00,1.3451
4652.00,1.3306
4651.00,1.3158
4650.00,1.3006
4649.00,1.2849
4648.00,1.2686
4647.00,1.2516
4646.00,1.2339
4645.00,1.2156
4644.00,1.1970
4643.00,1.1780
4642.00,1.1588
4641.00,1.1393
4640.00,1.1194
4639.00,1.0994
4638.00,1.0792
4637.00,1.0589
4636.00,1.0387
4635.00,1.0185
4634.00,0.9985
4633.00,0.9789
4632.00,0.9596
4631.00,0.9408
4630.00,0.9226
4629.00,0.9050
4628.00,0.8881
4627.00,0.8719
4626.00,0.8568
4625.00,0.8426
4624.00,0.8296
4623.00,0.8178
4622.00,0.8073
4621.00,0.7982
4620.00,0.7904
4619.00,0.7841
4618.00,0.7792
4617.00,0.7759
4616.00,0.7741
4615.00,0.7739
4614.00,0.7751
4613.00,0.7778
4612.00,0.7820
4611.00,0.7877
4610.00,0.7947
4609.00,0.8031
4608.00,0.8126
4607.00,0.8231
4606.00,0.8346
4605.00,0.8469
4604.00,0.8601
4603.00,0.8740
4602.00,0.8887
4601.00,0.9040
4600.00,0.9199
4599.00,0.9364
4598.00,0.9533
4597.00,0.9707
4596.00,0.9884
4595.00,1.0064
4594.00,1.0245
4593.00,1.0427
4592.00,1.0610
4591.00,1.0794
4590.00,1.0978
4589.00,1.1164
4588.00,1.1350
4587.00,1.1536
4586.00,1.1721
4585.00,1.1905
4584.00,1.2086
4583.00,1.2266
4582.00,1.2442
4581.00,1.2614
4580.00,1.2782
4579.00,1.2949
4578.00,1.3113
4577.00,1.3275
4576.00,1.3432
4575.00,1.3584
4574.00,1.3732
4573.00,1.3876
4572.00,1.4013
4571.00,1.4144
4570.00,1.4267
4569.00,1.4382
4568.00,1.4491
4567.00,1.4596
4566.00,1.4697
4565.00,1.4794
4564.00,1.4886
4563.00,1.4972
4562.00,1.5053
4561.00,1.5129
4560.00,1.5199
4559.00,1.5265
4558.00,1.5324
4557.00,1.5378
4556.00,1.5429
4555.00,1.5476
4554.00,1.5519
4553.00,1.5558
4552.00,1.5591
4551.00,1.5618
4550.00,1.5639
4549.00,1.5654
4548.00,1.5666
4547.00,1.5674
4546.00,1.5678
4545.00,1.5676
4544.00,1.5670
4543.00,1.5659
4542.00,1.5644
4541.00,1.5626
4540.00,1.5603
4539.00,1.5575
4538.00,1.5542
4537.00,1.5502
4536.00,1.5456
4535.00,1.5405
4534.00,1.5348
4533.00,1.5287
4532.00,1.5224
4531.00,1.5158
4530.00,1.5087
4529.00,1.5009
4528.00,1.4926
4527.00,1.4836
4526.00,1.4739
4525.00,1.4635
4524.00,1.4525
4523.00,1.4408
4522.00,1.4287
4521.00,1.4160
4520.00,1.4029
4519.00,1.3894
4518.00,1.3755
4517.00,1.3609
4516.00,1.3457
4515.00,1.3297
4514.00,1.3129
4513.00,1.2955
4512.00,1.2776
4511.00,1.2594
4510.00,1.2408
4509.00,1.2217
4508.00,1.2021
4507.00,1.1821
4506.00,1.1616
4505.00,1.1407
4504.00,1.1196
4503.00,1.0983
4502.00,1.0769
4501.00,1.0556
4500.00,1.0344
4499.00,1.0134
4498.00,0.9927
4497.00,0.9722
4496.00,0.9523
4495.00,0.9329
4494.00,0.9143
4493.00,0.8966
4492.00,0.8797
4491.00,0.8639
4490.00,0.8492
4489.00,0.8356
4488.00,0.8233
4487.00,0.8123
4486.00,0.8028
4485.00,0.7949
4484.00,0.7887
4483.00,0.7840
4482.00,0.7811
4481.00,0.7797
4480.00,0.7801
4479.00,0.7823
4478.00,0.7861
4477.00,0.7917
4476.00,0.7987
4475.00,0.8071
4474.00,0.8168
4473.00,0.8278
4472.00,0.8399
4471.00,0.8532
4470.00,0.8674
4469.00,0.8826
4468.00,0.8986
4467.00,0.9151
4466.00,0.9322
4465.00,0.9498
4464.00,0.9678
4463.00,0.9863
4462.00,1.0052
4461.00,1.0245
4460.00,1.0440
4459.00,1.0636
4458.00,1.0833
4457.00,1.1030
4456.00,1.1227
4455.00,1.1424
4454.00,1.1622
4453.00,1.1821
4452.00,1.2018
4451.00,1.2213
4450.00,1.2405
4449.00,1.2596
4448.00,1.2785
4447.00,1.2972
4446.00,1.3153
4445.00,1.3328
4444.00,1.3496
4443.00,1.3658
4442.00,1.3818
4441.00,1.3973
4440.00,1.4124
4439.00,1.4269
4438.00,1.4407
4437.00,1.4538
4436.00,1.4664
4435.00,1.4785
4434.00,1.4901
4433.00,1.5013
4432.00,1.5119
4431.00,1.5219
4430.00,1.5312
4429.00,1.5398
4428.00,1.5479
4427.00,1.5555
4426.00,1.5628
4425.00,1.5697
4424.00,1.5761
4423.00,1.5819
4422.00,1.5869
4421.00,1.5914
4420.00,1.5955
4419.00,1.5993
4418.00,1.6027
4417.00,1.6054
4416.00,1.6073
4415.00,1.6086
4414.00,1.6097
4413.00,1.6106
4412.00,1.6113
4411.00,1.6113
4410.00,1.6105
4409.00,1.6090
4408.00,1.6070
4407.00,1.6047
4406.00,1.6020
4405.00,1.5989
4404.00,1.5953
4403.00,1.5913
4402.00,1.5869
4401.00,1.5822
4400.00,1.5770
4399.00,1.5713
4398.00,1.5651
4397.00,1.5583
4396.00,1.5510
4395.00,1.5431
4394.00,1.5346
4393.00,1.5258
4392.00,1.5167
4391.00,1.5073
4390.00,1.4974
4389.00,1.4869
4388.00,1.4757
4387.00,1.4639
4386.00,1.4516
4385.00,1.4387
4384.00,1.4253
4383.00,1.4113
4382.00,1.3968
4381.00,1.3820
4380.00,1.3669
4379.00,1.3514
4378.00,1.3356
4377.00,1.3194
4376.00,1.3029
4375.00,1.2861
4374.00,1.2688
4373.00,1.2512
4372.00,1.2331
4371.00,1.2147
4370.00,1.1962
4369.00,1.1776
4368.00,1.1589
4367.00,1.1401
4366.00,1.1213
4365.00,1.1025
4364.00,1.0838
4363.00,1.0653
4362.00,1.0469
4361.00,1.0288
4360.00,1.0110
4359.00,0.9936
4358.00,0.9769
4357.00,0.9608
4356.00,0.9455
4355.00,0.9310
4354.00,0.9176
4353.00,0.9054
4352.00,0.8943
4351.00,0.8846
4350.00,0.8762
4349.00,0.8692
4348.00,0.8636
4347.00,0.8595
4346.00,0.8568
4345.00,0.8557
4344.00,0.8560
4343.00,0.8578
4342.00,0.8611
4341.00,0.8657
4340.00,0.8717
4339.00,0.8791
4338.00,0.8877
4337.00,0.8976
4336.00,0.9088
4335.00,0.9211
4334.00,0.9345
4333.00,0.9489
4332.00,0.9641
4331.00,0.9800
4330.00,0.9968
4329.00,1.0142
4328.00,1.0323
4327.00,1.0508
4326.00,1.0697
4325.00,1.0889
4324.00,1.1082
4323.00,1.1278
4322.00,1.1477
4321.00,1.1678
4320.00,1.1879
4319.00,1.2080
4318.00,1.2281
4317.00,1.2480
4316.00,1.2676
4315.00,1.2871
4314.00,1.3062
4313.00,1.3250
4312.00,1.3433
4311.00,1.3612
4310.00,1.3786
4309.00,1.3956
4308.00,1.4121
4307.00,1.4281
4306.00,1.4435
4305.00,1.4583
4304.00,1.4726
4303.00,1.4864
4302.00,1.4998
4301.00,1.5125
4300.00,1.5246
4299.00,1.5360
4298.00,1.5470
4297.00,1.5576
4296.00,1.5678
4295.00,1.5776
4294.00,1.5869
4293.00,1.5956
4292.00,1.6038
4291.00,1.6113
4290.00,1.6182
4289.00,1.6246
4288.00,1.6304
4287.00,1.6358
4286.00,1.6407
4285.00,1.6453
4284.00,1.6494
4283.00,1.6530
4282.00,1.6560
4281.00,1.6585
4280.00,1.6604
4279.00,1.6620
4278.00,1.6635
4277.00,1.6647
4276.00,1.6654
4275.00,1.6653
4274.00,1.6643
4273.00,1.6627
4272.00,1.6608
4271.00,1.6588
4270.00,1.6567
4269.00,1.6542
4268.00,1.6511
4267.00,1.6472
4266.00,1.6425
4265.00,1.6373
4264.00,1.6318
4263.00,1.6261
4262.00,1.6198
4261.00,1.6128
4260.00,1.6050
4259.00,1.5966
4258.00,1.5879
4257.00,1.5791
4256.00,1.5700
4255.00,1.5603
4254.00,1.5499
4253.00,1.5388
4252.00,1.5270
4251.00,1.5147
4250.00,1.5017
4249.00,1.4880
4248.00,1.4736
4247.00,1.4583
4246.00,1.4425
4245.00,1.4262
4244.00,1.4093
4243.00,1.3919
4242.00,1.3738
4241.00,1.3551
4240.00,1.3357
4239.00,1.3159
4238.00,1.2955
4237.00,1.2747
4236.00,1.2534
4235.00,1.2318
4234.00,1.2099
4233.00,1.1879
4232.00,1.1657
4231.00,1.1434
4230.00,1.1213
4229.00,1.0994
4228.00,1.0777
4227.00,1.0565
4226.00,1.0358
4225.00,1.0159
4224.00,0.9967
4223.00,0.9782
4222.00,0.9607
4221.00,0.9440
4220.00,0.9285
4219.00,0.9143
4218.00,0.9014
4217.00,0.8898
4216.00,0.8796
4215.00,0.8708
4214.00,0.8637
4213.00,0.8583
4212.00,0.8545
4211.00,0.8525
4210.00,0.8523
4209.00,0.8537
4208.00,0.8569
4207.00,0.8618
4206.00,0.8683
4205.00,0.8764
4204.00,0.8859
4203.00,0.8969
4202.00,0.9091
4201.00,0.9226
4200.00,0.9371
4199.00,0.9527
4198.00,0.9692
4197.00,0.9865
4196.00,1.0045
4195.00,1.0232
4194.00,1.0423
4193.00,1.0619
4192.00,1.0818
4191.00,1.1021
4190.00,1.1227
4189.00,1.1435
4188.00,1.1644
4187.00,1.1853
4186.00,1.2062
4185.00,1.2270
4184.00,1.2478
4183.00,1.2685
4182.00,1.2890
4181.00,1.3093
4180.00,1.3292
4179.00,1.3488
4178.00,1.3680
4177.00,1.3869
4176.00,1.4054
4175.00,1.4233
4174.00,1.4406
4173.00,1.4574
4172.00,1.4738
4171.00,1.4897
4170.00,1.5050
4169.00,1.5196
4168.00,1.5334
4167.00,1.5468
4166.00,1.5598
4165.00,1.5723
4164.00,1.5840
4163.00,1.5948
4162.00,1.6049
4161.00,1.6144
4160.00,1.6236
4159.00,1.6324
4158.00,1.6408
4157.00,1.6489
4156.00,1.6566
4155.00,1.6637
4154.00,1.6701
4153.00,1.6756
4152.00,1.6803
4151.00,1.6847
4150.00,1.6890
4149.00,1.6931
4148.00,1.6967
4147.00,1.6997
4146.00,1.7020
4145.00,1.7039
4144.00,1.7055
4143.00,1.7067
4142.00,1.7072
4141.00,1.7069
4140.00,1.7059
4139.00,1.7045
4138.00,1.7028
4137.00,1.7009
4136.00,1.6989
4135.00,1.6966
4134.00,1.6939
4133.00,1.6906
4132.00,1.6865
4131.00,1.6819
4130.00,1.6766
4129.00,1.6707
4128.00,1.6642
4127.00,1.6572
4126.00,1.6498
4125.00,1.6422
4124.00,1.6342
4123.00,1.6257
4122.00,1.6165
4121.00,1.6066
4120.00,1.5959
4119.00,1.5845
4118.00,1.5724
4117.00,1.5597
4116.00,1.5465
4115.00,1.5329
4114.00,1.5188
4113.00,1.5043
4112.00,1.4890
4111.00,1.4729
4110.00,1.4559
4109.00,1.4382
4108.00,1.4199
4107.00,1.4012
4106.00,1.3818
4105.00,1.3618
4104.00,1.3410
4103.00,1.3198
4102.00,1.2983
4101.00,1.2765
4100.00,1.2544
4099.00,1.2319
4098.00,1.2090
4097.00,1.1858
4096.00,1.1625
4095.00,1.1391
4094.00,1.1159
4093.00,1.0929
4092.00,1.0704
4091.00,1.0483
4090.00,1.0269
4089.00,1.0061
4088.00,0.9860
4087.00,0.9668
4086.00,0.9487
4085.00,0.9319
4084.00,0.9165
4083.00,0.9026
4082.00,0.8902
4081.00,0.8793
4080.00,0.8702
4079.00,0.8628
4078.00,0.8573
4077.00,0.8538
4076.00,0.8522
4075.00,0.8527
4074.00,0.8551
4073.00,0.8595
4072.00,0.8657
4071.00,0.8736
4070.00,0.8832
4069.00,0.8944
4068.00,0.9071
4067.00,0.9212
4066.00,0.9366
4065.00,0.9532
4064.00,0.9708
4063.00,0.9893
4062.00,1.0087
4061.00,1.0287
4060.00,1.0492
4059.00,1.0703
4058.00,1.0918
4057.00,1.1137
4056.00,1.1359
4055.00,1.1583
4054.00,1.1808
4053.00,1.2035
4052.00,1.2263
4051.00,1.2491
4050.00,1.2717
4049.00,1.2940
4048.00,1.3159
4047.00,1.3373
4046.00,1.3585
4045.00,1.3794
4044.00,1.4000
4043.00,1.4203
4042.00,1.4400
4041.00,1.4590
4040.00,1.4773
4039.00,1.4951
4038.00,1.5124
4037.00,1.5291
4036.00,1.5453
4035.00,1.5608
4034.00,1.5756
4033.00,1.5897
4032.00,1.6032
4031.00,1.6161
4030.00,1.6285
4029.00,1.6402
4028.00,1.6512
4027.00,1.6615
4026.00,1.6711
4025.00,1.6802
4024.00,1.6889
4023.00,1.6973
4022.00,1.7051
4021.00,1.7124
4020.00,1.7192
4019.00,1.7254
4018.00,1.7311
4017.00,1.7363
4016.00,1.7409
4015.00,1.7448
4014.00,1.7482
4013.00,1.7511
4012.00,1.7536
4011.00,1.7558
4010.00,1.7576
4009.00,1.7587
4008.00,1.7592
4007.00,1.7592
4006.00,1.7587
4005.00,1.7580
4004.00,1.7570
4003.00,1.7557
4002.00,1.7540
4001.00,1.7519
4000.00,1.7491
3999.00,1.7457
3998.00,1.7418
3997.00,1.7377
3996.00,1.7332
3995.00,1.7280
3994.00,1.7218
3993.00,1.7149
3992.00,1.7076
3991.00,1.6999
3990.00,1.6919
3989.00,1.6831
3988.00,1.6735
3987.00,1.6632
3986.00,1.6525
3985.00,1.6414
3984.00,1.6299
3983.00,1.6178
3982.00,1.6052
3981.00,1.5918
3980.00,1.5779
3979.00,1.5633
3978.00,1.5478
3977.00,1.5314
3976.00,1.5140
3975.00,1.4959
3974.00,1.4772
3973.00,1.4579
3972.00,1.4382
3971.00,1.4178
3970.00,1.3968
3969.00,1.3751
3968.00,1.3527
3967.00,1.3298
3966.00,1.3065
3965.00,1.2827
3964.00,1.2587
3963.00,1.2344
3962.00,1.2099
3961.00,1.1853
3960.00,1.1607
3959.00,1.1364
3958.00,1.1126
3957.00,1.0894
3956.00,1.0669
3955.00,1.0451
3954.00,1.0241
3953.00,1.0041
3952.00,0.9852
3951.00,0.9674
3950.00,0.9509
3949.00,0.9357
3948.00,0.9219
3947.00,0.9096
3946.00,0.8991
3945.00,0.8906
3944.00,0.8841
3943.00,0.8796
3942.00,0.8769
3941.00,0.8762
3940.00,0.8775
3939.00,0.8811
3938.00,0.8870
3937.00,0.8947
3936.00,0.9041
3935.00,0.9151
3934.00,0.9278
3933.00,0.9421
3932.00,0.9578
3931.00,0.9747
3930.00,0.9926
3929.00,1.0113
3928.00,1.0307
3927.00,1.0508
3926.00,1.0716
3925.00,1.0932
3924.00,1.1155
3923.00,1.1381
3922.00,1.1610
3921.00,1.1841
3920.00,1.2073
3919.00,1.2307
3918.00,1.2543
3917.00,1.2784
3916.00,1.3027
3915.00,1.3271
3914.00,1.3509
3913.00,1.3742
3912.00,1.3968
3911.00,1.4188
3910.00,1.4403
3909.00,1.4611
3908.00,1.4812
3907.00,1.5004
3906.00,1.5189
3905.00,1.5370
3904.00,1.5552
3903.00,1.5731
3902.00,1.5907
3901.00,1.6078
3900.00,1.6244
3899.00,1.6403
3898.00,1.6550
3897.00,1.6684
3896.00,1.6807
3895.00,1.6922
3894.00,1.7031
3893.00,1.7133
3892.00,1.7231
3891.00,1.7326
3890.00,1.7417
3889.00,1.7500
3888.00,1.7576
3887.00,1.7647
3886.00,1.7712
3885.00,1.7770
3884.00,1.7820
3883.00,1.7867
3882.00,1.7915
3881.00,1.7962
3880.00,1.8002
3879.00,1.8032
3878.00,1.8055
3877.00,1.8075
3876.00,1.8091
3875.00,1.8099
3874.00,1.8096
3873.00,1.8085
3872.00,1.8070
3871.00,1.8058
3870.00,1.8046
3869.00,1.8028
3868.00,1.8000
3867.00,1.7967
3866.00,1.7932
3865.00,1.7891
3864.00,1.7839
3863.00,1.7777
3862.00,1.7713
3861.00,1.7649
3860.00,1.7582
3859.00,1.7509
3858.00,1.7433
3857.00,1.7355
3856.00,1.7275
3855.00,1.7187
3854.00,1.7083
3853.00,1.6964
3852.00,1.6835
3851.00,1.6709
3850.00,1.6589
3849.00,1.6469
3848.00,1.6336
3847.00,1.6190
3846.00,1.6037
3845.00,1.5880
3844.00,1.5718
3843.00,1.5548
3842.00,1.5372
3841.00,1.5191
3840.00,1.5005
3839.00,1.4808
3838.00,1.4595
3837.00,1.4366
3836.00,1.4129
3835.00,1.3889
3834.00,1.3645
3833.00,1.3392
3832.00,1.3127
3831.00,1.2855
3830.00,1.2580
3829.00,1.2306
3828.00,1.2032
3827.00,1.1755
3826.00,1.1478
3825.00,1.1207
3824.00,1.0950
3823.00,1.0701
3822.00,1.0449
3821.00,1.0187
3820.00,0.9930
3819.00,0.9697
3818.00,0.9498
3817.00,0.9325
3816.00,0.9161
3815.00,0.8999
3814.00,0.8853
3813.00,0.8737
3812.00,0.8656
3811.00,0.8602
3810.00,0.8572
3809.00,0.8569
3808.00,0.8599
3807.00,0.8658
3806.00,0.8736
3805.00,0.8826
3804.00,0.8933
3803.00,0.9067
3802.00,0.9236
3801.00,0.9433
3800.00,0.9638
3799.00,0.9842
3798.00,1.0048
3797.00,1.0263
3796.00,1.0489
3795.00,1.0723
3794.00,1.0962
3793.00,1.1207
3792.00,1.1456
3791.00,1.1709
3790.00,1.1963
3789.00,1.2218
3788.00,1.2477
3787.00,1.2737
3786.00,1.2998
3785.00,1.3260
3784.00,1.3520
3783.00,1.3776
3782.00,1.4024
3781.00,1.4268
3780.00,1.4510
3779.00,1.4751
3778.00,1.4989
3777.00,1.5222
3776.00,1.5448
3775.00,1.5663
3774.00,1.5864
3773.00,1.6049
3772.00,1.6224
3771.00,1.6395
3770.00,1.6566
3769.00,1.6734
3768.00,1.6896
3767.00,1.7052
3766.00,1.7201
3765.00,1.7342
3764.00,1.7471
3763.00,1.7586
3762.00,1.7694
3761.00,1.7800
3760.00,1.7903
3759.00,1.7998
3758.00,1.8084
3757.00,1.8166
3756.00,1.8243
3755.00,1.8317
3754.00,1.8392
3753.00,1.8468
3752.00,1.8542
3751.00,1.8606
3750.00,1.8658
3749.00,1.8704
3748.00,1.8744
3747.00,1.8779
3746.00,1.8813
3745.00,1.8843
3744.00,1.8867
3743.00,1.8882
3742.00,1.8892
3741.00,1.8906
3740.00,1.8920
3739.00,1.8923
3738.00,1.8916
3737.00,1.8907
3736.00,1.8896
3735.00,1.8881
3734.00,1.8865
3733.00,1.8848
3732.00,1.8824
3731.00,1.8784
3730.00,1.8727
3729.00,1.8665
3728.00,1.8583
3727.00,1.8493
3726.00,1.8366
3725.00,1.8265
3724.00,1.8051
3723.00,1.7816
3722.00,1.7733
3721.00,1.7602
3720.00,1.7484
3719.00,1.7349
3718.00,1.7213
3717.00,1.7069
3716.00,1.6921
3715.00,1.6769
3714.00,1.6611
3713.00,1.6440
3712.00,1.6249
3711.00,1.6036
3710.00,1.5809
3709.00,1.5576
3708.00,1.5338
3707.00,1.5101
3706.00,1.4856
3705.00,1.4614
3704.00,1.4349
3703.00,1.4102
3702.00,1.3849
3701.00,1.3535
3700.00,1.3232
3699.00,1.2933
3698.00,1.2645
3697.00,1.2368
3696.00,1.2097
3695.00,1.1838
3694.00,1.1592
3693.00,1.1370
3692.00,1.1166
3691.00,1.0982
3690.00,1.0811
3689.00,1.0652
3688.00,1.0507
3687.00,1.0382
3686.00,1.0286
3685.00,1.0215
3684.00,1.0171
3683.00,1.0144
3682.00,1.0140
3681.00,1.0159
3680.00,1.0203
3679.00,1.0270
3678.00,1.0357
3677.00,1.0474
3676.00,1.0622
3675.00,1.0799
3674.00,1.0977
3673.00,1.1154
3672.00,1.1338
3671.00,1.1547
3670.00,1.1779
3669.00,1.2026
3668.00,1.2274
3667.00,1.2517
3666.00,1.2758
3665.00,1.2996
3664.00,1.3234
3663.00,1.3476
3662.00,1.3723
3661.00,1.3972
3660.00,1.4221
3659.00,1.4464
3658.00,1.4705
3657.00,1.4950
3656.00,1.5202
3655.00,1.5454
3654.00,1.5691
3653.00,1.5907
3652.00,1.6108
3651.00,1.6303
3650.00,1.6503
3649.00,1.6711
3648.00,1.6924
3647.00,1.7135
3646.00,1.7332
3645.00,1.7510
3644.00,1.7674
3643.00,1.7829
3642.00,1.7975
3641.00,1.8114
3640.00,1.8249
3639.00,1.8380
3638.00,1.8508
3637.00,1.8632
3636.00,1.8754
3635.00,1.8876
3634.00,1.8992
3633.00,1.9092
3632.00,1.9179
3631.00,1.9260
3630.00,1.9342
3629.00,1.9425
3628.00,1.9505
3627.00,1.9584
3626.00,1.9657
3625.00,1.9723
3624.00,1.9776
3623.00,1.9815
3622.00,1.9839
3621.00,1.9857
3620.00,1.9883
3619.00,1.9923
3618.00,1.9962
3617.00,1.9993
3616.00,2.0020
3615.00,2.0045
3614.00,2.0065
3613.00,2.0078
3612.00,2.0083
3611.00,2.0085
3610.00,2.0089
3609.00,2.0097
3608.00,2.0105
3607.00,2.0108
3606.00,2.0102
3605.00,2.0087
3604.00,2.0067
3603.00,2.0040
3602.00,2.0008
3601.00,1.9973
3600.00,1.9939
3599.00,1.9908
3598.00,1.9875
3597.00,1.9841
3596.00,1.9799
3595.00,1.9758
3594.00,1.9714
3593.00,1.9664
3592.00,1.9613
3591.00,1.9561
3590.00,1.9503
3589.00,1.9439
3588.00,1.9368
3587.00,1.9291
3586.00,1.9211
3585.00,1.9129
3584.00,1.9049
3583.00,1.8961
3582.00,1.8867
3581.00,1.8763
3580.00,1.8656
3579.00,1.8543
3578.00,1.8421
3577.00,1.8294
3576.00,1.8165
3575.00,1.8043
3574.00,1.7923
3573.00,1.7805
3572.00,1.7688
3571.00,1.7574
3570.00,1.7459
3569.00,1.7339
3568.00,1.7210
3567.00,1.7073
3566.00,1.6934
3565.00,1.6799
3564.00,1.6673
3563.00,1.6555
3562.00,1.6442
3561.00,1.6331
3560.00,1.6222
3559.00,1.6118
3558.00,1.6019
3557.00,1.5926
3556.00,1.5839
3555.00,1.5758
3554.00,1.5684
3553.00,1.5615
3552.00,1.5555
3551.00,1.5503
3550.00,1.5461
3549.00,1.5427
3548.00,1.5402
3547.00,1.5386
3546.00,1.5377
3545.00,1.5377
3544.00,1.5387
3543.00,1.5408
3542.00,1.5439
3541.00,1.5479
3540.00,1.5527
3539.00,1.5582
3538.00,1.5642
3537.00,1.5708
3536.00,1.5781
3535.00,1.5861
3534.00,1.5945
3533.00,1.6034
3532.00,1.6128
3531.00,1.6226
3530.00,1.6328
3529.00,1.6436
3528.00,1.6550
3527.00,1.6668
3526.00,1.6787
3525.00,1.6905
3524.00,1.7024
3523.00,1.7146
3522.00,1.7268
3521.00,1.7389
3520.00,1.7506
3519.00,1.7621
3518.00,1.7738
3517.00,1.7857
3516.00,1.7979
3515.00,1.8102
3514.00,1.8224
3513.00,1.8343
3512.00,1.8460
3511.00,1.8576
3510.00,1.8687
3509.00,1.8794
3508.00,1.8899
3507.00,1.9002
3506.00,1.9106
3505.00,1.9209
3504.00,1.9314
3503.00,1.9418
3502.00,1.9518
3501.00,1.9611
3500.00,1.9701
3499.00,1.9792
3498.00,1.9885
3497.00,1.9977
3496.00,2.0067
3495.00,2.0151
3494.00,2.0228
3493.00,2.0297
3492.00,2.0363
3491.00,2.0428
3490.00,2.0493
3489.00,2.0557
3488.00,2.0617
3487.00,2.0676
3486.00,2.0735
3485.00,2.0792
3484.00,2.0845
3483.00,2.0891
3482.00,2.0928
3481.00,2.0962
3480.00,2.0996
3479.00,2.1030
3478.00,2.1061
3477.00,2.1089
3476.00,2.1112
3475.00,2.1131
3474.00,2.1148
3473.00,2.1164
3472.00,2.1179
3471.00,2.1188
3470.00,2.1185
3469.00,2.1172
3468.00,2.1158
3467.00,2.1149
3466.00,2.1143
3465.00,2.1135
3464.00,2.1119
3463.00,2.1098
3462.00,2.1073
3461.00,2.1047
3460.00,2.1019
3459.00,2.0988
3458.00,2.0954
3457.00,2.0915
3456.00,2.0872
3455.00,2.0823
3454.00,2.0765
3453.00,2.0697
3452.00,2.0623
3451.00,2.0549
3450.00,2.0478
3449.00,2.0408
3448.00,2.0336
3447.00,2.0259
3446.00,2.0174
3445.00,2.0081
3444.00,1.9983
3443.00,1.9878
3442.00,1.9768
3441.00,1.9655
3440.00,1.9544
3439.00,1.9434
3438.00,1.9320
3437.00,1.9199
3436.00,1.9071
3435.00,1.8938
3434.00,1.8803
3433.00,1.8667
3432.00,1.8531
3431.00,1.8392
3430.00,1.8254
3429.00,1.8117
3428.00,1.7982
3427.00,1.7850
3426.00,1.7719
3425.00,1.7589
3424.00,1.7462
3423.00,1.7340
3422.00,1.7223
3421.00,1.7112
3420.00,1.7007
3419.00,1.6909
3418.00,1.6820
3417.00,1.6739
3416.00,1.6666
3415.00,1.6601
3414.00,1.6542
3413.00,1.6490
3412.00,1.6444
3411.00,1.6403
3410.00,1.6365
3409.00,1.6328
3408.00,1.6291
3407.00,1.6255
3406.00,1.6217
3405.00,1.6178
3404.00,1.6135
3403.00,1.6090
3402.00,1.6043
3401.00,1.5997
3400.00,1.5953
3399.00,1.5914
3398.00,1.5881
3397.00,1.5852
3396.00,1.5831
3395.00,1.5816
3394.00,1.5811
3393.00,1.5816
3392.00,1.5832
3391.00,1.5860
3390.00,1.5901
3389.00,1.5954
3388.00,1.6018
3387.00,1.6094
3386.00,1.6180
3385.00,1.6275
3384.00,1.6377
3383.00,1.6487
3382.00,1.6604
3381.00,1.6728
3380.00,1.6860
3379.00,1.6997
3378.00,1.7138
3377.00,1.7282
3376.00,1.7429
3375.00,1.7580
3374.00,1.7737
3373.00,1.7897
3372.00,1.8055
3371.00,1.8208
3370.00,1.8355
3369.00,1.8499
3368.00,1.8644
3367.00,1.8788
3366.00,1.8930
3365.00,1.9072
3364.00,1.9213
3363.00,1.9352
3362.00,1.9486
3361.00,1.9614
3360.00,1.9734
3359.00,1.9847
3358.00,1.9954
3357.00,2.0058
3356.00,2.0162
3355.00,2.0265
3354.00,2.0362
3353.00,2.0449
3352.00,2.0529
3351.00,2.0603
3350.00,2.0676
3349.00,2.0746
3348.00,2.0813
3347.00,2.0875
3346.00,2.0929
3345.00,2.0977
3344.00,2.1024
3343.00,2.1073
3342.00,2.1122
3341.00,2.1167
3340.00,2.1202
3339.00,2.1223
3338.00,2.1237
3337.00,2.1248
3336.00,2.1258
3335.00,2.1266
3334.00,2.1271
3333.00,2.1275
3332.00,2.1275
3331.00,2.1269
3330.00,2.1255
3329.00,2.1238
3328.00,2.1220
3327.00,2.1200
3326.00,2.1174
3325.00,2.1139
3324.00,2.1099
3323.00,2.1056
3322.00,2.1010
3321.00,2.0962
3320.00,2.0909
3319.00,2.0847
3318.00,2.0777
3317.00,2.0703
3316.00,2.0626
3315.00,2.0545
3314.00,2.0459
3313.00,2.0367
3312.00,2.0270
3311.00,2.0169
3310.00,2.0062
3309.00,1.9949
3308.00,1.9830
3307.00,1.9706
3306.00,1.9578
3305.00,1.9449
3304.00,1.9318
3303.00,1.9184
3302.00,1.9041
3301.00,1.8888
3300.00,1.8727
3299.00,1.8559
3298.00,1.8389
3297.00,1.8220
3296.00,1.8052
3295.00,1.7882
3294.00,1.7708
3293.00,1.7530
3292.00,1.7348
3291.00,1.7164
3290.00,1.6980
3289.00,1.6795
3288.00,1.6610
3287.00,1.6427
3286.00,1.6247
3285.00,1.6074
3284.00,1.5907
3283.00,1.5746
3282.00,1.5591
3281.00,1.5444
3280.00,1.5308
3279.00,1.5184
3278.00,1.5072
3277.00,1.4972
3276.00,1.4883
3275.00,1.4807
3274.00,1.4744
3273.00,1.4696
3272.00,1.4665
3271.00,1.4649
3270.00,1.4649
3269.00,1.4665
3268.00,1.4697
3267.00,1.4744
3266.00,1.4805
3265.00,1.4879
3264.00,1.4966
3263.00,1.5064
3262.00,1.5173
3261.00,1.5293
3260.00,1.5424
3259.00,1.5564
3258.00,1.5711
3257.00,1.5864
3256.00,1.6023
3255.00,1.6187
3254.00,1.6355
3253.00,1.6528
3252.00,1.6705
3251.00,1.6885
3250.00,1.7067
3249.00,1.7251
3248.00,1.7435
3247.00,1.7619
3246.00,1.7801
3245.00,1.7981
3244.00,1.8162
3243.00,1.8341
3242.00,1.8518
3241.00,1.8687
3240.00,1.8850
3239.00,1.9008
3238.00,1.9161
3237.00,1.9309
3236.00,1.9455
3235.00,1.9599
3234.00,1.9743
3233.00,1.9885
3232.00,2.0024
3231.00,2.0159
3230.00,2.0289
3229.00,2.0415
3228.00,2.0534
3227.00,2.0644
3226.00,2.0746
3225.00,2.0842
3224.00,2.0933
3223.00,2.1022
3222.00,2.1109
3221.00,2.1194
3220.00,2.1277
3219.00,2.1354
3218.00,2.1423
3217.00,2.1482
3216.00,2.1534
3215.00,2.1583
3214.00,2.1631
3213.00,2.1678
3212.00,2.1722
3211.00,2.1763
3210.00,2.1799
3209.00,2.1829
3208.00,2.1849
3207.00,2.1860
3206.00,2.1863
3205.00,2.1864
3204.00,2.1868
3203.00,2.1874
3202.00,2.1883
3201.00,2.1888
3200.00,2.1885
3199.00,2.1873
3198.00,2.1855
3197.00,2.1836
3196.00,2.1816
3195.00,2.1792
3194.00,2.1764
3193.00,2.1733
3192.00,2.1699
3191.00,2.1659
3190.00,2.1608
3189.00,2.1553
3188.00,2.1499
3187.00,2.1445
3186.00,2.1383
3185.00,2.1311
3184.00,2.1233
3183.00,2.1153
3182.00,2.1074
3181.00,2.0992
3180.00,2.0906
3179.00,2.0815
3178.00,2.0717
3177.00,2.0611
3176.00,2.0500
3175.00,2.0383
3174.00,2.0262
3173.00,2.0137
3172.00,2.0005
3171.00,1.9864
3170.00,1.9715
3169.00,1.9561
3168.00,1.9403
3167.00,1.9243
3166.00,1.9082
3165.00,1.8919
3164.00,1.8754
3163.00,1.8588
3162.00,1.8416
3161.00,1.8238
3160.00,1.8057
3159.00,1.7872
3158.00,1.7687
3157.00,1.7504
3156.00,1.7323
3155.00,1.7146
3154.00,1.6974
3153.00,1.6804
3152.00,1.6638
3151.00,1.6476
3150.00,1.6320
3149.00,1.6174
3148.00,1.6039
3147.00,1.5915
3146.00,1.5804
3145.00,1.5705
3144.00,1.5620
3143.00,1.5547
3142.00,1.5488
3141.00,1.5445
3140.00,1.5418
3139.00,1.5408
3138.00,1.5414
3137.00,1.5439
3136.00,1.5483
3135.00,1.5544
3134.00,1.5619
3133.00,1.5707
3132.00,1.5807
3131.00,1.5921
3130.00,1.6047
3129.00,1.6186
3128.00,1.6335
3127.00,1.6491
3126.00,1.6652
3125.00,1.6819
3124.00,1.6996
3123.00,1.7182
3122.00,1.7374
3121.00,1.7567
3120.00,1.7760
3119.00,1.7953
3118.00,1.8146
3117.00,1.8340
3116.00,1.8534
3115.00,1.8727
3114.00,1.8920
3113.00,1.9111
3112.00,1.9296
3111.00,1.9474
3110.00,1.9645
3109.00,1.9815
3108.00,1.9983
3107.00,2.0149
3106.00,2.0312
3105.00,2.0470
3104.00,2.0622
3103.00,2.0766
3102.00,2.0899
3101.00,2.1025
3100.00,2.1147
3099.00,2.1268
3098.00,2.1386
3097.00,2.1501
3096.00,2.1612
3095.00,2.1717
3094.00,2.1815
3093.00,2.1905
3092.00,2.1987
3091.00,2.2062
3090.00,2.2129
3089.00,2.2194
3088.00,2.2259
3087.00,2.2325
3086.00,2.2388
3085.00,2.2440
3084.00,2.2481
3083.00,2.2515
3082.00,2.2547
3081.00,2.2579
3080.00,2.2608
3079.00,2.2624
3078.00,2.2627
3077.00,2.2621
3076.00,2.2613
3075.00,2.2605
3074.00,2.2596
3073.00,2.2581
3072.00,2.2556
3071.00,2.2525
3070.00,2.2493
3069.00,2.2463
3068.00,2.2432
3067.00,2.2391
3066.00,2.2338
3065.00,2.2277
3064.00,2.2209
3063.00,2.2136
3062.00,2.2056
3061.00,2.1970
3060.00,2.1880
3059.00,2.1788
3058.00,2.1692
3057.00,2.1590
3056.00,2.1481
3055.00,2.1359
3054.00,2.1225
3053.00,2.1083
3052.00,2.0936
3051.00,2.0784
3050.00,2.0626
3049.00,2.0460
3048.00,2.0286
3047.00,2.0105
3046.00,1.9915
3045.00,1.9715
3044.00,1.9507
3043.00,1.9293
3042.00,1.9078
3041.00,1.8861
3040.00,1.8644
3039.00,1.8425
3038.00,1.8207
3037.00,1.7991
3036.00,1.7782
3035.00,1.7580
3034.00,1.7388
3033.00,1.7210
3032.00,1.7050
3031.00,1.6909
3030.00,1.6789
3029.00,1.6691
3028.00,1.6616
3027.00,1.6563
3026.00,1.6534
3025.00,1.6532
3024.00,1.6558
3023.00,1.6614
3022.00,1.6697
3021.00,1.6804
3020.00,1.6935
3019.00,1.7086
3018.00,1.7258
3017.00,1.7451
3016.00,1.7667
3015.00,1.7905
3014.00,1.8160
3013.00,1.8425
3012.00,1.8694
3011.00,1.8965
3010.00,1.9239
3009.00,1.9517
3008.00,1.9800
3007.00,2.0088
3006.00,2.0379
3005.00,2.0670
3004.00,2.0955
3003.00,2.1229
3002.00,2.1490
3001.00,2.1743
3000.00,2.1993
2999.00,2.2237
2998.00,2.2465
2997.00,2.2674
2996.00,2.2872
2995.00,2.3064
2994.00,2.3246
2993.00,2.3410
2992.00,2.3554
2991.00,2.3687
2990.00,2.3817
2989.00,2.3945
2988.00,2.4066
2987.00,2.4180
2986.00,2.4288
2985.00,2.4391
2984.00,2.4487
2983.00,2.4580
2982.00,2.4685
2981.00,2.4815
2980.00,2.4973
2979.00,2.5155
2978.00,2.5360
2977.00,2.5604
2976.00,2.5911
2975.00,2.6296
2974.00,2.6752
2973.00,2.7261
2972.00,2.7810
2971.00,2.8402
2970.00,2.9057
2969.00,2.9793
2968.00,3.0614
2967.00,3.1498
2966.00,3.2408
2965.00,3.3298
2964.00,3.4141
2963.00,3.4927
2962.00,3.5665
2961.00,3.6377
2960.00,3.7089
2959.00,3.7860
2958.00,3.8805
2957.00,4.0060
2956.00,4.1579
2955.00,4.2760
2954.00,4.2920
2953.00,4.2486
2952.00,4.2277
2951.00,4.2513
2950.00,4.3007
2949.00,4.3501
2948.00,4.3837
2947.00,4.3893
2946.00,4.3519
2945.00,4.2894
2944.00,4.2413
2943.00,4.2309
2942.00,4.2510
2941.00,4.2933
2940.00,4.3794
2939.00,4.5688
2938.00,4.9169
2937.00,4.9980
2936.00,4.9042
2935.00,4.5913
2934.00,4.3943
2933.00,4.2482
2932.00,4.2099
2931.00,4.2299
2930.00,4.2237
2929.00,4.1777
2928.00,4.1067
2927.00,4.0356
2926.00,3.9870
2925.00,3.9720
2924.00,3.9874
2923.00,4.0074
2922.00,3.9913
2921.00,3.9291
2920.00,3.8487
2919.00,3.7666
2918.00,3.6796
2917.00,3.5839
2916.00,3.4895
2915.00,3.4092
2914.00,3.3478
2913.00,3.3003
2912.00,3.2583
2911.00,3.2164
2910.00,3.1762
2909.00,3.1412
2908.00,3.1125
2907.00,3.0876
2906.00,3.0636
2905.00,3.0402
2904.00,3.0179
2903.00,2.9970
2902.00,2.9771
2901.00,2.9579
2900.00,2.9394
2899.00,2.9216
2898.00,2.9051
2897.00,2.8910
2896.00,2.8802
2895.00,2.8721
2894.00,2.8647
2893.00,2.8566
2892.00,2.8478
2891.00,2.8397
2890.00,2.8346
2889.00,2.8332
2888.00,2.8337
2887.00,2.8342
2886.00,2.8348
2885.00,2.8383
2884.00,2.8465
2883.00,2.8581
2882.00,2.8709
2881.00,2.8848
2880.00,2.9021
2879.00,2.9250
2878.00,2.9532
2877.00,2.9858
2876.00,3.0225
2875.00,3.0637
2874.00,3.1104
2873.00,3.1639
2872.00,3.2244
2871.00,3.2892
2870.00,3.3548
2869.00,3.4227
2868.00,3.4981
2867.00,3.5786
2866.00,3.6464
2865.00,3.6835
2864.00,3.6942
2863.00,3.6934
2862.00,3.6833
2861.00,3.6580
2860.00,3.6166
2859.00,3.5634
2858.00,3.5014
2857.00,3.4302
2856.00,3.3488
2855.00,3.2592
2854.00,3.1674
2853.00,3.0789
2852.00,2.9966
2851.00,2.9221
2850.00,2.8564
2849.00,2.7997
2848.00,2.7503
2847.00,2.7063
2846.00,2.6665
2845.00,2.6313
2844.00,2.6012
2843.00,2.5755
2842.00,2.5526
2841.00,2.5313
2840.00,2.5105
2839.00,2.4891
2838.00,2.4669
2837.00,2.4444
2836.00,2.4223
2835.00,2.4009
2834.00,2.3797
2833.00,2.3584
2832.00,2.3367
2831.00,2.3146
2830.00,2.2922
2829.00,2.2694
2828.00,2.2460
2827.00,2.2213
2826.00,2.1950
2825.00,2.1669
2824.00,2.1372
2823.00,2.1056
2822.00,2.0721
2821.00,2.0370
2820.00,2.0006
2819.00,1.9630
2818.00,1.9240
2817.00,1.8843
2816.00,1.8447
2815.00,1.8066
2814.00,1.7708
2813.00,1.7378
2812.00,1.7084
2811.00,1.6830
2810.00,1.6620
2809.00,1.6456
2808.00,1.6339
2807.00,1.6269
2806.00,1.6251
2805.00,1.6286
2804.00,1.6371
2803.00,1.6502
2802.00,1.6670
2801.00,1.6867
2800.00,1.7089
2799.00,1.7329
2798.00,1.7577
2797.00,1.7827
2796.00,1.8071
2795.00,1.8309
2794.00,1.8543
2793.00,1.8779
2792.00,1.9021
2791.00,1.9272
2790.00,1.9531
2789.00,1.9791
2788.00,2.0049
2787.00,2.0306
2786.00,2.0563
2785.00,2.0819
2784.00,2.1068
2783.00,2.1305
2782.00,2.1529
2781.00,2.1741
2780.00,2.1946
2779.00,2.2142
2778.00,2.2327
2777.00,2.2498
2776.00,2.2652
2775.00,2.2792
2774.00,2.2921
2773.00,2.3047
2772.00,2.3171
2771.00,2.3293
2770.00,2.3407
2769.00,2.3515
2768.00,2.3616
2767.00,2.3709
2766.00,2.3790
2765.00,2.3859
2764.00,2.3924
2763.00,2.3987
2762.00,2.4044
2761.00,2.4082
2760.00,2.4099
2759.00,2.4105
2758.00,2.4114
2757.00,2.4130
2756.00,2.4149
2755.00,2.4162
2754.00,2.4168
2753.00,2.4169
2752.00,2.4161
2751.00,2.4138
2750.00,2.4096
2749.00,2.4039
2748.00,2.3976
2747.00,2.3913
2746.00,2.3855
2745.00,2.3802
2744.00,2.3746
2743.00,2.3679
2742.00,2.3594
2741.00,2.3495
2740.00,2.3390
2739.00,2.3285
2738.00,2.3178
2737.00,2.3065
2736.00,2.2947
2735.00,2.2825
2734.00,2.2697
2733.00,2.2557
2732.00,2.2399
2731.00,2.2226
2730.00,2.2042
2729.00,2.1851
2728.00,2.1651
2727.00,2.1441
2726.00,2.1217
2725.00,2.0980
2724.00,2.0734
2723.00,2.0478
2722.00,2.0212
2721.00,1.9935
2720.00,1.9647
2719.00,1.9346
2718.00,1.9032
2717.00,1.8707
2716.00,1.8371
2715.00,1.8025
2714.00,1.7670
2713.00,1.7308
2712.00,1.6941
2711.00,1.6575
2710.00,1.6212
2709.00,1.5856
2708.00,1.5512
2707.00,1.5184
2706.00,1.4878
2705.00,1.4600
2704.00,1.4354
2703.00,1.4142
2702.00,1.3970
2701.00,1.3841
2700.00,1.3759
2699.00,1.3724
2698.00,1.3736
2697.00,1.3792
2696.00,1.3891
2695.00,1.4031
2694.00,1.4209
2693.00,1.4424
2692.00,1.4670
2691.00,1.4944
2690.00,1.5241
2689.00,1.5558
2688.00,1.5894
2687.00,1.6247
2686.00,1.6612
2685.00,1.6986
2684.00,1.7362
2683.00,1.7737
2682.00,1.8105
2681.00,1.8466
2680.00,1.8816
2679.00,1.9150
2678.00,1.9464
2677.00,1.9757
2676.00,2.0028
2675.00,2.0276
2674.00,2.0505
2673.00,2.0722
2672.00,2.0931
2671.00,2.1133
2670.00,2.1324
2669.00,2.1497
2668.00,2.1652
2667.00,2.1797
2666.00,2.1941
2665.00,2.2096
2664.00,2.2259
2663.00,2.2420
2662.00,2.2571
2661.00,2.2715
2660.00,2.2866
2659.00,2.3028
2658.00,2.3193
2657.00,2.3344
2656.00,2.3477
2655.00,2.3599
2654.00,2.3717
2653.00,2.3834
2652.00,2.3946
2651.00,2.4051
2650.00,2.4148
2649.00,2.4237
2648.00,2.4318
2647.00,2.4393
2646.00,2.4466
2645.00,2.4538
2644.00,2.4607
2643.00,2.4667
2642.00,2.4716
2641.00,2.4758
2640.00,2.4798
2639.00,2.4839
2638.00,2.4878
2637.00,2.4906
2636.00,2.4920
2635.00,2.4922
2634.00,2.4917
2633.00,2.4914
2632.00,2.4920
2631.00,2.4935
2630.00,2.4951
2629.00,2.4958
2628.00,2.4954
2627.00,2.4942
2626.00,2.4920
2625.00,2.4882
2624.00,2.4828
2623.00,2.4770
2622.00,2.4718
2621.00,2.4673
2620.00,2.4629
2619.00,2.4580
2618.00,2.4525
2617.00,2.4461
2616.00,2.4385
2615.00,2.4296
2614.00,2.4199
2613.00,2.4101
2612.00,2.4005
2611.00,2.3907
2610.00,2.3802
2609.00,2.3683
2608.00,2.3548
2607.00,2.3401
2606.00,2.3251
2605.00,2.3097
2604.00,2.2940
2603.00,2.2775
2602.00,2.2598
2601.00,2.2405
2600.00,2.2194
2599.00,2.1967
2598.00,2.1733
2597.00,2.1497
2596.00,2.1258
2595.00,2.1009
2594.00,2.0745
2593.00,2.0464
2592.00,2.0168
2591.00,1.9859
2590.00,1.9541
2589.00,1.9212
2588.00,1.8875
2587.00,1.8531
2586.00,1.8180
2585.00,1.7821
2584.00,1.7457
2583.00,1.7088
2582.00,1.6718
2581.00,1.6353
2580.00,1.5995
2579.00,1.5649
2578.00,1.5320
2577.00,1.5013
2576.00,1.4734
2575.00,1.4486
2574.00,1.4271
2573.00,1.4093
2572.00,1.3953
2571.00,1.3854
2570.00,1.3796
2569.00,1.3781
2568.00,1.3809
2567.00,1.3876
2566.00,1.3980
2565.00,1.4120
2564.00,1.4294
2563.00,1.4500
2562.00,1.4734
2561.00,1.4995
2560.00,1.5278
2559.00,1.5581
2558.00,1.5902
2557.00,1.6239
2556.00,1.6587
2555.00,1.6943
2554.00,1.7302
2553.00,1.7666
2552.00,1.8032
2551.00,1.8400
2550.00,1.8763
2549.00,1.9120
2548.00,1.9468
2547.00,1.9806
2546.00,2.0133
2545.00,2.0450
2544.00,2.0754
2543.00,2.1044
2542.00,2.1316
2541.00,2.1572
2540.00,2.1814
2539.00,2.2048
2538.00,2.2275
2537.00,2.2497
2536.00,2.2713
2535.00,2.2921
2534.00,2.3117
2533.00,2.3300
2532.00,2.3474
2531.00,2.3643
2530.00,2.3810
2529.00,2.3969
2528.00,2.4111
2527.00,2.4236
2526.00,2.4356
2525.00,2.4480
2524.00,2.4605
2523.00,2.4719
2522.00,2.4817
2521.00,2.4901
2520.00,2.4979
2519.00,2.5057
2518.00,2.5137
2517.00,2.5217
2516.00,2.5294
2515.00,2.5366
2514.00,2.5437
2513.00,2.5507
2512.00,2.5567
2511.00,2.5604
2510.00,2.5623
2509.00,2.5642
2508.00,2.5672
2507.00,2.5710
2506.00,2.5740
2505.00,2.5750
2504.00,2.5740
2503.00,2.5713
2502.00,2.5685
2501.00,2.5669
2500.00,2.5667
2499.00,2.5670
2498.00,2.5671
2497.00,2.5670
2496.00,2.5667
2495.00,2.5654
2494.00,2.5625
2493.00,2.5581
2492.00,2.5527
2491.00,2.5465
2490.00,2.5397
2489.00,2.5331
2488.00,2.5270
2487.00,2.5201
2486.00,2.5112
2485.00,2.4999
2484.00,2.4879
2483.00,2.4764
2482.00,2.4655
2481.00,2.4545
2480.00,2.4428
2479.00,2.4305
2478.00,2.4176
2477.00,2.4038
2476.00,2.3887
2475.00,2.3722
2474.00,2.3547
2473.00,2.3369
2472.00,2.3189
2471.00,2.3003
2470.00,2.2804
2469.00,2.2593
2468.00,2.2372
2467.00,2.2140
2466.00,2.1895
2465.00,2.1634
2464.00,2.1358
2463.00,2.1070
2462.00,2.0768
2461.00,2.0451
2460.00,2.0116
2459.00,1.9763
2458.00,1.9393
2457.00,1.9006
2456.00,1.8607
2455.00,1.8199
2454.00,1.7783
2453.00,1.7360
2452.00,1.6931
2451.00,1.6498
2450.00,1.6067
2449.00,1.5644
2448.00,1.5234
2447.00,1.4845
2446.00,1.4481
2445.00,1.4149
2444.00,1.3858
2443.00,1.3612
2442.00,1.3417
2441.00,1.3277
2440.00,1.3195
2439.00,1.3174
2438.00,1.3214
2437.00,1.3313
2436.00,1.3468
2435.00,1.3675
2434.00,1.3928
2433.00,1.4220
2432.00,1.4546
2431.00,1.4898
2430.00,1.5270
2429.00,1.5656
2428.00,1.6052
2427.00,1.6455
2426.00,1.6865
2425.00,1.7276
2424.00,1.7687
2423.00,1.8094
2422.00,1.8497
2421.00,1.8896
2420.00,1.9288
2419.00,1.9670
2418.00,2.0039
2417.00,2.0395
2416.00,2.0735
2415.00,2.1060
2414.00,2.1372
2413.00,2.1675
2412.00,2.1969
2411.00,2.2251
2410.00,2.2515
2409.00,2.2765
2408.00,2.3002
2407.00,2.3229
2406.00,2.3446
2405.00,2.3654
2404.00,2.3856
2403.00,2.4053
2402.00,2.4247
2401.00,2.4434
2400.00,2.4608
2399.00,2.4761
2398.00,2.4893
2397.00,2.5018
2396.00,2.5148
2395.00,2.5285
2394.00,2.5422
2393.00,2.5549
2392.00,2.5661
2391.00,2.5765
2390.00,2.5863
2389.00,2.5968
2388.00,2.6064
2387.00,2.6140
2386.00,2.6218
2385.00,2.6279
2384.00,2.6328
2383.00,2.6367
2382.00,2.6400
2381.00,2.6434
2380.00,2.6473
2379.00,2.6515
2378.00,2.6552
2377.00,2.6578
2376.00,2.6596
2375.00,2.6616
2374.00,2.6639
2373.00,2.6661
2372.00,2.6670
2371.00,2.6661
2370.00,2.6641
2369.00,2.6624
2368.00,2.6618
2367.00,2.6617
2366.00,2.6608
2365.00,2.6577
2364.00,2.6520
2363.00,2.6451
2362.00,2.6388
2361.00,2.6344
2360.00,2.6310
2359.00,2.6271
2358.00,2.6221
2357.00,2.6158
2356.00,2.6077
2355.00,2.5969
2354.00,2.5842
2353.00,2.5718
2352.00,2.5616
2351.00,2.5529
2350.00,2.5432
2349.00,2.5308
2348.00,2.5162
2347.00,2.5012
2346.00,2.4868
2345.00,2.4728
2344.00,2.4579
2343.00,2.4416
2342.00,2.4242
2341.00,2.4065
2340.00,2.3886
2339.00,2.3699
2338.00,2.3496
2337.00,2.3277
2336.00,2.3043
2335.00,2.2792
2334.00,2.2521
2333.00,2.2233
2332.00,2.1935
2331.00,2.1629
2330.00,2.1314
2329.00,2.0986
2328.00,2.0639
2327.00,2.0265
2326.00,1.9895
2325.00,1.9443
2324.00,1.9080
2323.00,1.8507
2322.00,1.8221
2321.00,1.7400
2320.00,1.7806
2319.00,1.9537
2318.00,1.8947
2317.00,1.8855
2316.00,1.8398
2315.00,1.7962
2314.00,1.7485
2313.00,1.7138
2312.00,1.7206
2311.00,1.7601
2310.00,1.8200
2309.00,1.8765
2308.00,1.9139
2307.00,1.9408
2306.00,1.9549
2305.00,1.9705
2304.00,1.9801
2303.00,1.9901
2302.00,1.9940
2301.00,1.9996
2300.00,2.0069
2299.00,2.0189
2298.00,2.0356
2297.00,2.0523
2296.00,2.0688
2295.00,2.0831
2294.00,2.0985
2293.00,2.1137
2292.00,2.1297
2291.00,2.1467
2290.00,2.1640
2289.00,2.1834
2288.00,2.2029
2287.00,2.2246
2286.00,2.2459
2285.00,2.2687
2284.00,2.2907
2283.00,2.3120
2282.00,2.3302
2281.00,2.3461
2280.00,2.3617
2279.00,2.3811
2278.00,2.4047
2277.00,2.4289
2276.00,2.4496
2275.00,2.4659
2274.00,2.4806
2273.00,2.4952
2272.00,2.5111
2271.00,2.5265
2270.00,2.5414
2269.00,2.5555
2268.00,2.5695
2267.00,2.5840
2266.00,2.5986
2265.00,2.6135
2264.00,2.6281
2263.00,2.6412
2262.00,2.6527
2261.00,2.6627
2260.00,2.6725
2259.00,2.6826
2258.00,2.6924
2257.00,2.7019
2256.00,2.7104
2255.00,2.7185
2254.00,2.7259
2253.00,2.7325
2252.00,2.7386
2251.00,2.7436
2250.00,2.7485
2249.00,2.7528
2248.00,2.7569
2247.00,2.7603
2246.00,2.7629
2245.00,2.7649
2244.00,2.7663
2243.00,2.7674
2242.00,2.7679
2241.00,2.7675
2240.00,2.7656
2239.00,2.7620
2238.00,2.7573
2237.00,2.7532
2236.00,2.7507
2235.00,2.7498
2234.00,2.7493
2233.00,2.7483
2232.00,2.7465
2231.00,2.7436
2230.00,2.7391
2229.00,2.7325
2228.00,2.7241
2227.00,2.7149
2226.00,2.7056
2225.00,2.6964
2224.00,2.6872
2223.00,2.6777
2222.00,2.6680
2221.00,2.6583
2220.00,2.6489
2219.00,2.6398
2218.00,2.6301
2217.00,2.6189
2216.00,2.6054
2215.00,2.5902
2214.00,2.5740
2213.00,2.5570
2212.00,2.5390
2211.00,2.5198
2210.00,2.4994
2209.00,2.4780
2208.00,2.4560
2207.00,2.4336
2206.00,2.4110
2205.00,2.3877
2204.00,2.3633
2203.00,2.3374
2202.00,2.3099
2201.00,2.2807
2200.00,2.2496
2199.00,2.2166
2198.00,2.1815
2197.00,2.1441
2196.00,2.1044
2195.00,2.0628
2194.00,2.0194
2193.00,1.9745
2192.00,1.9283
2191.00,1.8808
2190.00,1.8329
2189.00,1.7852
2188.00,1.7386
2187.00,1.6937
2186.00,1.6511
2185.00,1.6118
2184.00,1.5763
2183.00,1.5455
2182.00,1.5200
2181.00,1.5005
2180.00,1.4873
2179.00,1.4803
2178.00,1.4790
2177.00,1.4828
2176.00,1.4909
2175.00,1.5027
2174.00,1.5179
2173.00,1.5366
2172.00,1.5588
2171.00,1.5846
2170.00,1.6138
2169.00,1.6463
2168.00,1.6818
2167.00,1.7199
2166.00,1.7601
2165.00,1.8022
2164.00,1.8458
2163.00,1.8903
2162.00,1.9352
2161.00,1.9801
2160.00,2.0248
2159.00,2.0690
2158.00,2.1122
2157.00,2.1539
2156.00,2.1937
2155.00,2.2315
2154.00,2.2676
2153.00,2.3026
2152.00,2.3365
2151.00,2.3692
2150.00,2.4001
2149.00,2.4290
2148.00,2.4560
2147.00,2.4812
2146.00,2.5049
2145.00,2.5275
2144.00,2.5494
2143.00,2.5701
2142.00,2.5890
2141.00,2.6059
2140.00,2.6216
2139.00,2.6372
2138.00,2.6536
2137.00,2.6706
2136.00,2.6870
2135.00,2.7017
2134.00,2.7139
2133.00,2.7240
2132.00,2.7330
2131.00,2.7419
2130.00,2.7514
2129.00,2.7614
2128.00,2.7716
2127.00,2.7813
2126.00,2.7906
2125.00,2.7995
2124.00,2.8081
2123.00,2.8161
2122.00,2.8226
2121.00,2.8269
2120.00,2.8293
2119.00,2.8309
2118.00,2.8331
2117.00,2.8369
2116.00,2.8420
2115.00,2.8473
2114.00,2.8520
2113.00,2.8552
2112.00,2.8564
2111.00,2.8557
2110.00,2.8542
2109.00,2.8530
2108.00,2.8516
2107.00,2.8492
2106.00,2.8458
2105.00,2.8430
2104.00,2.8421
2103.00,2.8427
2102.00,2.8427
2101.00,2.8398
2100.00,2.8334
2099.00,2.8248
2098.00,2.8167
2097.00,2.8102
2096.00,2.8044
2095.00,2.7976
2094.00,2.7891
2093.00,2.7799
2092.00,2.7713
2091.00,2.7635
2090.00,2.7559
2089.00,2.7474
2088.00,2.7366
2087.00,2.7229
2086.00,2.7073
2085.00,2.6916
2084.00,2.6765
2083.00,2.6611
2082.00,2.6447
2081.00,2.6273
2080.00,2.6093
2079.00,2.5902
2078.00,2.5691
2077.00,2.5461
2076.00,2.5220
2075.00,2.4974
2074.00,2.4716
2073.00,2.4441
2072.00,2.4153
2071.00,2.3860
2070.00,2.3565
2069.00,2.3261
2068.00,2.2945
2067.00,2.2616
2066.00,2.2278
2065.00,2.1928
2064.00,2.1561
2063.00,2.1177
2062.00,2.0776
2061.00,2.0358
2060.00,1.9921
2059.00,1.9460
2058.00,1.8973
2057.00,1.8466
2056.00,1.7948
2055.00,1.7431
2054.00,1.6929
2053.00,1.6456
2052.00,1.6023
2051.00,1.5644
2050.00,1.5330
2049.00,1.5092
2048.00,1.4938
2047.00,1.4874
2046.00,1.4898
2045.00,1.5009
2044.00,1.5200
2043.00,1.5462
2042.00,1.5787
2041.00,1.6164
2040.00,1.6584
2039.00,1.7037
2038.00,1.7515
2037.00,1.8011
2036.00,1.8522
2035.00,1.9038
2034.00,1.9554
2033.00,2.0065
2032.00,2.0568
2031.00,2.1061
2030.00,2.1539
2029.00,2.1998
2028.00,2.2438
2027.00,2.2855
2026.00,2.3250
2025.00,2.3623
2024.00,2.3976
2023.00,2.4310
2022.00,2.4625
2021.00,2.4923
2020.00,2.5204
2019.00,2.5472
2018.00,2.5728
2017.00,2.5969
2016.00,2.6192
2015.00,2.6398
2014.00,2.6595
2013.00,2.6793
2012.00,2.6988
2011.00,2.7168
2010.00,2.7319
2009.00,2.7442
2008.00,2.7553
2007.00,2.7674
2006.00,2.7822
2005.00,2.7989
2004.00,2.8148
2003.00,2.8278
2002.00,2.8383
2001.00,2.8484
2000.00,2.8587
1999.00,2.8682
1998.00,2.8770
1997.00,2.8864
1996.00,2.8967
1995.00,2.9057
1994.00,2.9115
1993.00,2.9145
1992.00,2.9171
1991.00,2.9216
1990.00,2.9286
1989.00,2.9369
1988.00,2.9440
1987.00,2.9479
1986.00,2.9486
1985.00,2.9481
1984.00,2.9479
1983.00,2.9484
1982.00,2.9497
1981.00,2.9515
1980.00,2.9528
1979.00,2.9519
1978.00,2.9482
1977.00,2.9428
1976.00,2.9371
1975.00,2.9318
1974.00,2.9280
1973.00,2.9264
1972.00,2.9255
1971.00,2.9228
1970.00,2.9175
1969.00,2.9109
1968.00,2.9037
1967.00,2.8949
1966.00,2.8844
1965.00,2.8740
1964.00,2.8651
1963.00,2.8566
1962.00,2.8470
1961.00,2.8361
1960.00,2.8248
1959.00,2.8131
1958.00,2.8008
1957.00,2.7880
1956.00,2.7740
1955.00,2.7576
1954.00,2.7380
1953.00,2.7163
1952.00,2.6941
1951.00,2.6722
1950.00,2.6507
1949.00,2.6294
1948.00,2.6077
1947.00,2.5846
1946.00,2.5597
1945.00,2.5329
1944.00,2.5041
1943.00,2.4728
1942.00,2.4390
1941.00,2.4033
1940.00,2.3665
1939.00,2.3282
1938.00,2.2878
1937.00,2.2445
1936.00,2.1974
1935.00,2.1465
1934.00,2.0923
1933.00,2.0359
1932.00,1.9781
1931.00,1.9197
1930.00,1.8617
1929.00,1.8056
1928.00,1.7527
1927.00,1.7038
1926.00,1.6600
1925.00,1.6226
1924.00,1.5929
1923.00,1.5723
1922.00,1.5613
1921.00,1.5605
1920.00,1.5704
1919.00,1.5912
1918.00,1.6218
1917.00,1.6590
1916.00,1.7003
1915.00,1.7453
1914.00,1.7947
1913.00,1.8479
1912.00,1.9024
1911.00,1.9566
1910.00,2.0103
1909.00,2.0640
1908.00,2.1173
1907.00,2.1700
1906.00,2.2219
1905.00,2.2725
1904.00,2.3209
1903.00,2.3666
1902.00,2.4095
1901.00,2.4500
1900.00,2.4886
1899.00,2.5251
1898.00,2.5593
1897.00,2.5908
1896.00,2.6203
1895.00,2.6494
1894.00,2.6785
1893.00,2.7060
1892.00,2.7301
1891.00,2.7510
1890.00,2.7706
1889.00,2.7908
1888.00,2.8123
1887.00,2.8350
1886.00,2.8577
1885.00,2.8780
1884.00,2.8951
1883.00,2.9102
1882.00,2.9243
1881.00,2.9372
1880.00,2.9489
1879.00,2.9607
1878.00,2.9731
1877.00,2.9843
1876.00,2.9925
1875.00,2.9986
1874.00,3.0048
1873.00,3.0113
1872.00,3.0170
1871.00,3.0207
1870.00,3.0207
1869.00,3.0169
1868.00,3.0128
1867.00,3.0148
1866.00,3.0254
1865.00,3.0395
1864.00,3.0494
1863.00,3.0524
1862.00,3.0515
1861.00,3.0502
1860.00,3.0499
1859.00,3.0504
1858.00,3.0516
1857.00,3.0519
1856.00,3.0489
1855.00,3.0422
1854.00,3.0333
1853.00,3.0239
1852.00,3.0150
1851.00,3.0064
1850.00,2.9981
1849.00,2.9894
1848.00,2.9786
1847.00,2.9654
1846.00,2.9524
1845.00,2.9418
1844.00,2.9327
1843.00,2.9211
1842.00,2.9048
1841.00,2.8863
1840.00,2.8686
1839.00,2.8516
1838.00,2.8327
1837.00,2.8099
1836.00,2.7845
1835.00,2.7584
1834.00,2.7315
1833.00,2.7026
1832.00,2.6717
1831.00,2.6391
1830.00,2.6044
1829.00,2.5663
1828.00,2.5240
1827.00,2.4791
1826.00,2.4330
1825.00,2.3852
1824.00,2.3351
1823.00,2.2839
1822.00,2.2340
1821.00,2.1870
1820.00,2.1428
1819.00,2.1015
1818.00,2.0650
1817.00,2.0366
1816.00,2.0188
1815.00,2.0121
1814.00,2.0158
1813.00,2.0292
1812.00,2.0511
1811.00,2.0795
1810.00,2.1121
1809.00,2.1466
1808.00,2.1813
1807.00,2.2148
1806.00,2.2459
1805.00,2.2741
1804.00,2.2999
1803.00,2.3243
1802.00,2.3495
1801.00,2.3784
1800.00,2.4126
1799.00,2.4514
1798.00,2.4932
1797.00,2.5361
1796.00,2.5792
1795.00,2.6227
1794.00,2.6675
1793.00,2.7134
1792.00,2.7579
1791.00,2.7985
1790.00,2.8357
1789.00,2.8711
1788.00,2.9047
1787.00,2.9346
1786.00,2.9610
1785.00,2.9859
1784.00,3.0110
1783.00,3.0361
1782.00,3.0602
1781.00,3.0833
1780.00,3.1047
1779.00,3.1236
1778.00,3.1395
1777.00,3.1507
1776.00,3.1573
1775.00,3.1622
1774.00,3.1698
1773.00,3.1797
1772.00,3.1843
1771.00,3.1804
1770.00,3.1764
1769.00,3.1820
1768.00,3.1954
1767.00,3.2064
1766.00,3.2083
1765.00,3.2042
1764.00,3.1999
1763.00,3.1955
1762.00,3.1858
1761.00,3.1669
1760.00,3.1418
1759.00,3.1175
1758.00,3.0999
1757.00,3.0909
1756.00,3.0882
1755.00,3.0882
1754.00,3.0914
1753.00,3.1025
1752.00,3.1256
1751.00,3.1597
1750.00,3.1990
1749.00,3.2389
1748.00,3.2831
1747.00,3.3379
1746.00,3.4053
1745.00,3.4817
1744.00,3.5618
1743.00,3.6433
1742.00,3.7243
1741.00,3.7978
1740.00,3.8586
1739.00,3.9161
1738.00,3.9856
1737.00,4.0717
1736.00,4.1667
1735.00,4.2481
1734.00,4.2990
1733.00,4.3115
1732.00,4.2863
1731.00,4.2828
1730.00,4.3499
1729.00,4.4675
1728.00,4.5306
1727.00,4.4473
1726.00,4.3208
1725.00,4.2610
1724.00,4.2841
1723.00,4.3708
1722.00,4.4696
1721.00,4.5242
1720.00,4.5422
1719.00,4.5896
1718.00,4.7403
1717.00,4.9554
1716.00,5.0412
1715.00,4.7054
1714.00,4.4430
1713.00,4.4081
1712.00,4.4879
1711.00,4.5781
1710.00,4.6383
1709.00,4.6317
1708.00,4.5912
1707.00,4.6163
1706.00,4.7036
1705.00,4.7918
1704.00,4.7267
1703.00,4.5119
1702.00,4.3831
1701.00,4.3459
1700.00,4.3036
1699.00,4.2502
1698.00,4.2555
1697.00,4.3056
1696.00,4.3137
1695.00,4.3077
1694.00,4.3527
1693.00,4.3600
1692.00,4.2506
1691.00,4.1059
1690.00,3.9726
1689.00,3.8579
1688.00,3.7611
1687.00,3.6806
1686.00,3.6165
1685.00,3.5649
1684.00,3.5191
1683.00,3.4727
1682.00,3.4259
1681.00,3.3831
1680.00,3.3437
1679.00,3.3052
1678.00,3.2668
1677.00,3.2286
1676.00,3.1890
1675.00,3.1448
1674.00,3.0953
1673.00,3.0455
1672.00,3.0013
1671.00,2.9670
1670.00,2.9426
1669.00,2.9259
1668.00,2.9162
1667.00,2.9132
1666.00,2.9168
1665.00,2.9260
1664.00,2.9412
1663.00,2.9635
1662.00,2.9923
1661.00,3.0259
1660.00,3.0612
1659.00,3.0955
1658.00,3.1263
1657.00,3.1478
1656.00,3.1557
1655.00,3.1548
1654.00,3.1582
1653.00,3.1742
1652.00,3.1964
1651.00,3.2122
1650.00,3.2194
1649.00,3.2270
1648.00,3.2394
1647.00,3.2509
1646.00,3.2553
1645.00,3.2538
1644.00,3.2522
1643.00,3.2533
1642.00,3.2573
1641.00,3.2620
1640.00,3.2627
1639.00,3.2571
1638.00,3.2488
1637.00,3.2432
1636.00,3.2408
1635.00,3.2369
1634.00,3.2296
1633.00,3.2207
1632.00,3.2119
1631.00,3.2025
1630.00,3.1903
1629.00,3.1749
1628.00,3.1562
1627.00,3.1343
1626.00,3.1105
1625.00,3.0868
1624.00,3.0632
1623.00,3.0374
1622.00,3.0082
1621.00,2.9782
1620.00,2.9502
1619.00,2.9236
1618.00,2.8946
1617.00,2.8589
1616.00,2.8166
1615.00,2.7723
1614.00,2.7304
1613.00,2.6913
1612.00,2.6511
1611.00,2.6053
1610.00,2.5519
1609.00,2.4929
1608.00,2.4322
1607.00,2.3724
1606.00,2.3146
1605.00,2.2595
1604.00,2.2078
1603.00,2.1612
1602.00,2.1226
1601.00,2.0942
1600.00,2.0771
1599.00,2.0717
1598.00,2.0773
1597.00,2.0931
1596.00,2.1174
1595.00,2.1494
1594.00,2.1886
1593.00,2.2334
1592.00,2.2819
1591.00,2.3323
1590.00,2.3832
1589.00,2.4337
1588.00,2.4829
1587.00,2.5305
1586.00,2.5772
1585.00,2.6237
1584.00,2.6692
1583.00,2.7118
1582.00,2.7510
1581.00,2.7872
1580.00,2.8198
1579.00,2.8491
1578.00,2.8788
1577.00,2.9117
1576.00,2.9456
1575.00,2.9753
1574.00,2.9999
1573.00,3.0244
1572.00,3.0521
1571.00,3.0798
1570.00,3.1008
1569.00,3.1122
1568.00,3.1196
1567.00,3.1291
1566.00,3.1429
1565.00,3.1584
1564.00,3.1721
1563.00,3.1816
1562.00,3.1890
1561.00,3.1973
1560.00,3.2064
1559.00,3.2120
1558.00,3.2145
1557.00,3.2241
1556.00,3.2425
1555.00,3.2614
1554.00,3.2712
1553.00,3.2676
1552.00,3.2555
1551.00,3.2454
1550.00,3.2439
1549.00,3.2494
1548.00,3.2570
1547.00,3.2616
1546.00,3.2613
1545.00,3.2551
1544.00,3.2437
1543.00,3.2312
1542.00,3.2233
1541.00,3.2208
1540.00,3.2221
1539.00,3.2252
1538.00,3.2274
1537.00,3.2262
1536.00,3.2256
1535.00,3.2295
1534.00,3.2330
1533.00,3.2243
1532.00,3.2009
1531.00,3.1754
1530.00,3.1586
1529.00,3.1500
1528.00,3.1434
1527.00,3.1335
1526.00,3.1190
1525.00,3.0998
1524.00,3.0761
1523.00,3.0502
1522.00,3.0250
1521.00,2.9998
1520.00,2.9720
1519.00,2.9421
1518.00,2.9130
1517.00,2.8848
1516.00,2.8549
1515.00,2.8229
1514.00,2.7912
1513.00,2.7595
1512.00,2.7232
1511.00,2.6790
1510.00,2.6284
1509.00,2.5758
1508.00,2.5217
1507.00,2.4638
1506.00,2.4053
1505.00,2.3555
1504.00,2.3139
1503.00,2.2756
1502.00,2.2402
1501.00,2.2078
1500.00,2.1782
1499.00,2.1519
1498.00,2.1321
1497.00,2.1224
1496.00,2.1251
1495.00,2.1390
1494.00,2.1608
1493.00,2.1908
1492.00,2.2303
1491.00,2.2784
1490.00,2.3306
1489.00,2.3851
1488.00,2.4453
1487.00,2.5134
1486.00,2.5855
1485.00,2.6566
1484.00,2.7238
1483.00,2.7854
1482.00,2.8416
1481.00,2.8933
1480.00,2.9422
1479.00,2.9896
1478.00,3.0348
1477.00,3.0755
1476.00,3.1099
1475.00,3.1387
1474.00,3.1647
1473.00,3.1909
1472.00,3.2192
1471.00,3.2525
1470.00,3.2948
1469.00,3.3473
1468.00,3.4053
1467.00,3.4582
1466.00,3.4947
1465.00,3.5145
1464.00,3.5289
1463.00,3.5455
1462.00,3.5614
1461.00,3.5688
1460.00,3.5652
1459.00,3.5553
1458.00,3.5510
1457.00,3.5676
1456.00,3.6167
1455.00,3.6953
1454.00,3.7885
1453.00,3.8840
1452.00,3.9664
1451.00,4.0125
1450.00,4.0114
1449.00,3.9804
1448.00,3.9354
1447.00,3.8714
1446.00,3.7828
1445.00,3.6867
1444.00,3.6040
1443.00,3.5454
1442.00,3.5119
1441.00,3.4985
1440.00,3.4978
1439.00,3.5048
1438.00,3.5202
1437.00,3.5477
1436.00,3.5851
1435.00,3.6213
1434.00,3.6499
1433.00,3.6774
1432.00,3.7138
1431.00,3.7572
1430.00,3.7903
1429.00,3.7987
1428.00,3.7875
1427.00,3.7700
1426.00,3.7563
1425.00,3.7537
1424.00,3.7653
1423.00,3.7839
1422.00,3.7928
1421.00,3.7804
1420.00,3.7479
1419.00,3.7068
1418.00,3.6691
1417.00,3.6372
1416.00,3.6057
1415.00,3.5729
1414.00,3.5485
1413.00,3.5420
1412.00,3.5503
1411.00,3.5587
1410.00,3.5543
1409.00,3.5384
1408.00,3.5196
1407.00,3.5012
1406.00,3.4828
1405.00,3.4695
1404.00,3.4666
1403.00,3.4702
1402.00,3.4695
1401.00,3.4622
1400.00,3.4578
1399.00,3.4623
1398.00,3.4710
1397.00,3.4753
1396.00,3.4726
1395.00,3.4643
1394.00,3.4527
1393.00,3.4420
1392.00,3.4336
1391.00,3.4231
1390.00,3.4045
1389.00,3.3774
1388.00,3.3472
1387.00,3.3192
1386.00,3.2940
1385.00,3.2711
1384.00,3.2518
1383.00,3.2362
1382.00,3.2218
1381.00,3.2054
1380.00,3.1863
1379.00,3.1639
1378.00,3.1359
1377.00,3.1016
1376.00,3.0632
1375.00,3.0242
1374.00,2.9873
1373.00,2.9544
1372.00,2.9260
1371.00,2.8995
1370.00,2.8709
1369.00,2.8392
1368.00,2.8075
1367.00,2.7800
1366.00,2.7581
1365.00,2.7405
1364.00,2.7272
1363.00,2.7215
1362.00,2.7277
1361.00,2.7480
1360.00,2.7822
1359.00,2.8282
1358.00,2.8831
1357.00,2.9429
1356.00,3.0043
1355.00,3.0681
1354.00,3.1386
1353.00,3.2199
1352.00,3.3127
1351.00,3.4164
1350.00,3.5285
1349.00,3.6336
1348.00,3.6929
1347.00,3.6844
1346.00,3.6402
1345.00,3.6030
1344.00,3.5908
1343.00,3.6031
1342.00,3.6326
1341.00,3.6678
1340.00,3.6876
1339.00,3.6686
1338.00,3.6095
1337.00,3.5296
1336.00,3.4485
1335.00,3.3799
1334.00,3.3317
1333.00,3.3064
1332.00,3.3016
1331.00,3.3108
1330.00,3.3266
1329.00,3.3461
1328.00,3.3717
1327.00,3.4079
1326.00,3.4552
1325.00,3.5061
1324.00,3.5488
1323.00,3.5791
1322.00,3.6064
1321.00,3.6441
1320.00,3.6990
1319.00,3.7660
1318.00,3.8285
1317.00,3.8733
1316.00,3.9118
1315.00,3.9676
1314.00,4.0563
1313.00,4.1785
1312.00,4.3156
1311.00,4.3999
1310.00,4.2694
1309.00,4.0337
1308.00,3.8454
1307.00,3.7185
1306.00,3.6404
1305.00,3.5928
1304.00,3.5564
1303.00,3.5219
1302.00,3.4914
1301.00,3.4660
1300.00,3.4461
1299.00,3.4362
1298.00,3.4415
1297.00,3.4617
1296.00,3.4894
1295.00,3.5167
1294.00,3.5382
1293.00,3.5507
1292.00,3.5501
1291.00,3.5351
1290.00,3.5156
1289.00,3.5099
1288.00,3.5312
1287.00,3.5764
1286.00,3.6239
1285.00,3.6480
1284.00,3.6449
1283.00,3.6345
1282.00,3.6357
1281.00,3.6538
1280.00,3.6814
1279.00,3.7030
1278.00,3.7039
1277.00,3.6862
1276.00,3.6692
1275.00,3.6692
1274.00,3.6865
1273.00,3.7069
1272.00,3.7130
1271.00,3.6968
1270.00,3.6663
1269.00,3.6404
1268.00,3.6394
1267.00,3.6714
1266.00,3.7174
1265.00,3.7288
1264.00,3.6811
1263.00,3.6186
1262.00,3.5863
1261.00,3.5860
1260.00,3.5925
1259.00,3.5862
1258.00,3.5712
1257.00,3.5556
1256.00,3.5353
1255.00,3.5075
1254.00,3.4782
1253.00,3.4567
1252.00,3.4481
1251.00,3.4526
1250.00,3.4662
1249.00,3.4803
1248.00,3.4843
1247.00,3.4761
1246.00,3.4648
1245.00,3.4589
1244.00,3.4551
1243.00,3.4428
1242.00,3.4196
1241.00,3.3963
1240.00,3.3865
1239.00,3.3969
1238.00,3.4275
1237.00,3.4758
1236.00,3.5373
1235.00,3.6016
1234.00,3.6555
1233.00,3.6938
1232.00,3.7235
1231.00,3.7536
1230.00,3.7841
1229.00,3.8173
1228.00,3.8740
1227.00,3.9753
1226.00,4.0953
1225.00,4.1579
1224.00,4.1623
1223.00,4.1410
1222.00,4.1038
1221.00,4.0602
1220.00,4.0236
1219.00,3.9834
1218.00,3.9233
1217.00,3.8753
1216.00,3.8582
1215.00,3.8462
1214.00,3.8114
1213.00,3.7571
1212.00,3.6980
1211.00,3.6440
1210.00,3.5992
1209.00,3.5646
1208.00,3.5353
1207.00,3.5023
1206.00,3.4641
1205.00,3.4289
1204.00,3.4031
1203.00,3.3819
1202.00,3.3534
1201.00,3.3149
1200.00,3.2794
1199.00,3.2595
1198.00,3.2557
1197.00,3.2601
1196.00,3.2654
1195.00,3.2697
1194.00,3.2738
1193.00,3.2782
1192.00,3.2846
1191.00,3.2974
1190.00,3.3227
1189.00,3.3612
1188.00,3.4041
1187.00,3.4388
1186.00,3.4622
1185.00,3.4885
1184.00,3.5361
1183.00,3.6074
1182.00,3.6815
1181.00,3.7240
1180.00,3.7219
1179.00,3.6965
1178.00,3.6729
1177.00,3.6593
1176.00,3.6548
1175.00,3.6620
1174.00,3.6876
1173.00,3.7307
1172.00,3.7773
1171.00,3.8012
1170.00,3.7867
1169.00,3.7604
1168.00,3.7583
1167.00,3.7827
1166.00,3.8006
1165.00,3.7796
1164.00,3.7336
1163.00,3.6958
1162.00,3.6883
1161.00,3.7206
1160.00,3.7870
1159.00,3.8623
1158.00,3.9089
1157.00,3.9051
1156.00,3.8783
1155.00,3.8637
1154.00,3.8672
1153.00,3.8809
1152.00,3.8941
1151.00,3.8990
1150.00,3.9010
1149.00,3.9132
1148.00,3.9414
1147.00,3.9694
1146.00,3.9645
1145.00,3.9259
1144.00,3.8910
1143.00,3.8841
1142.00,3.8884
1141.00,3.8688
1140.00,3.8333
1139.00,3.8131
1138.00,3.8102
1137.00,3.8045
1136.00,3.7853
1135.00,3.7649
1134.00,3.7629
1133.00,3.7854
1132.00,3.8217
1131.00,3.8607
1130.00,3.8936
1129.00,3.9098
1128.00,3.9198
1127.00,3.9354
1126.00,3.9493
1125.00,3.9390
1124.00,3.8914
1123.00,3.8385
1122.00,3.8186
1121.00,3.8358
1120.00,3.8594
1119.00,3.8713
1118.00,3.9056
1117.00,3.9771
1116.00,4.0811
1115.00,4.2640
1114.00,4.5577
1113.00,4.7365
1112.00,4.4541
1111.00,4.1340
1110.00,3.9256
1109.00,3.8077
1108.00,3.7500
1107.00,3.7272
1106.00,3.7295
1105.00,3.7495
1104.00,3.7650
1103.00,3.7572
1102.00,3.7348
1101.00,3.7128
1100.00,3.7015
1099.00,3.7148
1098.00,3.7618
1097.00,3.8271
1096.00,3.8653
1095.00,3.8462
1094.00,3.7794
1093.00,3.6875
1092.00,3.6030
1091.00,3.5521
1090.00,3.5406
1089.00,3.5529
1088.00,3.5612
1087.00,3.5460
1086.00,3.5091
1085.00,3.4630
1084.00,3.4213
1083.00,3.3927
1082.00,3.3764
1081.00,3.3675
1080.00,3.3644
1079.00,3.3678
1078.00,3.3756
1077.00,3.3811
1076.00,3.3813
1075.00,3.3838
1074.00,3.4022
1073.00,3.4431
1072.00,3.5011
1071.00,3.5622
1070.00,3.6096
1069.00,3.6273
1068.00,3.6130
1067.00,3.5851
1066.00,3.5590
1065.00,3.5337
1064.00,3.5110
1063.00,3.5020
1062.00,3.5156
1061.00,3.5519
1060.00,3.6032
1059.00,3.6623
1058.00,3.7218
1057.00,3.7633
1056.00,3.7663
1055.00,3.7455
1054.00,3.7426
1053.00,3.7772
1052.00,3.8229
1051.00,3.8252
1050.00,3.7831
1049.00,3.7517
1048.00,3.7604
1047.00,3.7911
1046.00,3.7995
1045.00,3.7639
1044.00,3.7020
1043.00,3.6456
1042.00,3.6212
1041.00,3.6383
1040.00,3.6851
1039.00,3.7372
1038.00,3.7818
1037.00,3.8296
1036.00,3.8929
1035.00,3.9586
1034.00,3.9757
1033.00,3.9179
1032.00,3.8554
1031.00,3.8422
1030.00,3.8606
1029.00,3.8683
1028.00,3.8431
1027.00,3.7856
1026.00,3.7251
1025.00,3.6965
1024.00,3.7129
1023.00,3.7665
1022.00,3.8316
1021.00,3.8819
1020.00,3.9300
1019.00,4.0270
1018.00,4.1890
1017.00,4.2653
1016.00,4.1594
1015.00,4.0637
1014.00,4.0549
1013.00,4.1150
1012.00,4.1921
1011.00,4.2079
1010.00,4.1508
1009.00,4.1016
1008.00,4.0787
1007.00,4.0601
1006.00,4.0486
1005.00,4.0561
1004.00,4.0776
1003.00,4.0913
1002.00,4.0675
1001.00,3.9975
1000.00,3.9102
999.00,3.8378
998.00,3.8100
997.00,3.8461
996.00,3.9378
995.00,4.0389
994.00,4.0891
993.00,4.1107
992.00,4.1651
991.00,4.2973
990.00,4.4130
989.00,4.5588
988.00,5.0087
987.00,4.6024
986.00,4.2828
985.00,4.1585
984.00,4.0488
983.00,3.9527
982.00,3.9111
981.00,3.9473
980.00,4.0398
979.00,4.1177
978.00,4.1103
977.00,4.0703
976.00,4.0533
975.00,4.0300
974.00,3.9612
973.00,3.8835
972.00,3.8421
971.00,3.8397
970.00,3.8558
969.00,3.8970
968.00,3.9864
967.00,4.1602
966.00,4.4406
965.00,4.3980
964.00,4.1896
963.00,4.1472
962.00,4.1569
961.00,4.1585
960.00,4.2001
959.00,4.2738
958.00,4.3021
957.00,4.2176
956.00,4.0825
955.00,3.9964
954.00,3.9795
953.00,4.0090
952.00,4.0455
951.00,4.0159
950.00,3.9148
949.00,3.8359
948.00,3.8225
947.00,3.8582
946.00,3.8969
945.00,3.9042
944.00,3.8889
943.00,3.8707
942.00,3.8541
941.00,3.8343
940.00,3.8207
939.00,3.8285
938.00,3.8560
937.00,3.8934
936.00,3.9502
935.00,4.0018
934.00,3.9759
933.00,3.9177
932.00,3.9018
931.00,3.9431
930.00,4.0322
929.00,4.1048
928.00,4.0876
927.00,4.0372
926.00,4.0326
925.00,4.0909
924.00,4.1631
923.00,4.1778
922.00,4.1278
921.00,4.0698
920.00,4.0615
919.00,4.1173
918.00,4.1451
917.00,4.0693
916.00,4.0139
915.00,4.0979
914.00,4.2766
913.00,4.2434
912.00,4.1274
911.00,4.1397
910.00,4.2154
909.00,4.3995
908.00,4.7326
907.00,4.3835
906.00,4.0864
905.00,3.9675
904.00,3.9441
903.00,4.0010
902.00,4.1190
901.00,4.2803
900.00,4.2804
899.00,4.1511
898.00,4.1225
897.00,4.1869
896.00,4.1782
895.00,4.0736
894.00,3.9985
893.00,3.9787
892.00,4.0246
891.00,4.1168
890.00,4.2136
889.00,4.2985
888.00,4.5060
887.00,4.6359
886.00,4.2409
885.00,4.0280
884.00,3.9623
883.00,3.9623
882.00,3.9512
881.00,3.8762
880.00,3.8008
879.00,3.7584
878.00,3.7595
877.00,3.8042
876.00,3.8425
875.00,3.8161
874.00,3.7871
873.00,3.8192
872.00,3.9111
871.00,4.0274
870.00,4.1196
869.00,4.1681
868.00,4.1842
867.00,4.1701
866.00,4.1216
865.00,4.0748
864.00,4.0738
863.00,4.1070
862.00,4.1912
861.00,4.4823
860.00,4.4992
859.00,4.1292
858.00,4.0158
857.00,4.0317
856.00,4.0803
855.00,4.1179
854.00,4.0761
853.00,3.9690
852.00,3.8558
851.00,3.7738
850.00,3.7305
849.00,3.7299
848.00,3.7619
847.00,3.7949
846.00,3.7911
845.00,3.7430
844.00,3.6991
843.00,3.7157
842.00,3.8034
841.00,3.9172
840.00,4.0063
839.00,4.1360
838.00,4.3851
837.00,4.5084
836.00,4.4530
835.00,4.4841
834.00,4.4054
833.00,4.2155
832.00,4.0792
831.00,4.0382
830.00,4.0759
829.00,4.1184
828.00,4.0759
827.00,4.0842
826.00,4.0940
825.00,3.8797
824.00,3.6869
823.00,3.5872
822.00,3.5564
821.00,3.5868
820.00,3.6624
819.00,3.7814
818.00,3.9384
817.00,4.0655
816.00,4.0472
815.00,3.9546
814.00,3.8879
813.00,3.8431
812.00,3.7946
811.00,3.7385
810.00,3.7021
809.00,3.7126
808.00,3.7629
807.00,3.8167
806.00,3.8508
805.00,3.8879
804.00,3.9591
803.00,4.0782
802.00,4.2181
801.00,4.2432
800.00,4.1391
799.00,4.0255
798.00,3.9389
797.00,3.8949
796.00,3.8848
795.00,3.8714
794.00,3.8383
793.00,3.8131
792.00,3.8168
791.00,3.8375
790.00,3.8526
789.00,3.8620
788.00,3.9004
787.00,3.9558
786.00,3.9292
785.00,3.8395
784.00,3.8078
783.00,3.8658
782.00,4.0032
781.00,4.2078
780.00,4.3336
779.00,4.2228
778.00,4.0038
777.00,3.8253
776.00,3.7331
775.00,3.7128
774.00,3.7433
773.00,3.7889
772.00,3.8090
771.00,3.8025
770.00,3.8008
769.00,3.8116
768.00,3.8052
767.00,3.7940
766.00,3.8407
765.00,3.9705
764.00,4.1537
763.00,4.3098
762.00,4.2870
761.00,4.1513
760.00,4.0792
759.00,4.0488
758.00,3.9518
757.00,3.8353
756.00,3.7863
755.00,3.8068
754.00,3.8639
753.00,3.9421
752.00,3.9992
751.00,3.9625
750.00,3.8947
749.00,3.8509
748.00,3.8374
747.00,3.8674
746.00,3.9452
745.00,4.0360
744.00,4.0266
743.00,3.9334
742.00,3.8667
741.00,3.8762
740.00,3.9422
739.00,3.9777
738.00,3.9980
737.00,4.0282
736.00,4.0339
735.00,4.0323
734.00,3.9808
733.00,3.8827
732.00,3.8034
731.00,3.7520
730.00,3.7127
729.00,3.6787
728.00,3.6547
727.00,3.6401
726.00,3.6367
725.00,3.6564
724.00,3.6972
723.00,3.7283
722.00,3.7408
721.00,3.7862
720.00,3.9141
719.00,4.0867
718.00,4.1175
717.00,3.9818
716.00,3.8650
715.00,3.8391
714.00,3.8860
713.00,3.9437
712.00,3.9753
711.00,4.0641
710.00,4.2516
709.00,4.3344
708.00,4.2602
707.00,4.2943
706.00,4.3582
705.00,4.5912
704.00,4.9011
703.00,4.2531
702.00,4.0117
701.00,3.9734
700.00,4.0443
