Created as New Dataset,Sample 114 By Administrator Date Wednesday, November 24 2021
cm-1,A
7502.00,1.1438
7501.00,1.1352
7500.00,1.1268
7499.00,1.1184
7498.00,1.1103
7497.00,1.1023
7496.00,1.0945
7495.00,1.0864
7494.00,1.0781
7493.00,1.0697
7492.00,1.0609
7491.00,1.0518
7490.00,1.0422
7489.00,1.0327
7488.00,1.0232
7487.00,1.0138
7486.00,1.0041
7485.00,0.9943
7484.00,0.9844
7483.00,0.9745
7482.00,0.9647
7481.00,0.9550
7480.00,0.9457
7479.00,0.9368
7478.00,0.9279
7477.00,0.9189
7476.00,0.9097
7475.00,0.9004
7474.00,0.8913
7473.00,0.8822
7472.00,0.8734
7471.00,0.8651
7470.00,0.8573
7469.00,0.8501
7468.00,0.8433
7467.00,0.8367
7466.00,0.8305
7465.00,0.8246
7464.00,0.8188
7463.00,0.8134
7462.00,0.8087
7461.00,0.8048
7460.00,0.8017
7459.00,0.7990
7458.00,0.7962
7457.00,0.7937
7456.00,0.7916
7455.00,0.7904
7454.00,0.7901
7453.00,0.7906
7452.00,0.7916
7451.00,0.7930
7450.00,0.7949
7449.00,0.7973
7448.00,0.8003
7447.00,0.8036
7446.00,0.8070
7445.00,0.8105
7444.00,0.8146
7443.00,0.8198
7442.00,0.8258
7441.00,0.8319
7440.00,0.8377
7439.00,0.8433
7438.00,0.8493
7437.00,0.8559
7436.00,0.8630
7435.00,0.8700
7434.00,0.8769
7433.00,0.8841
7432.00,0.8919
7431.00,0.9000
7430.00,0.9079
7429.00,0.9157
7428.00,0.9236
7427.00,0.9320
7426.00,0.9409
7425.00,0.9498
7424.00,0.9583
7423.00,0.9664
7422.00,0.9744
7421.00,0.9824
7420.00,0.9902
7419.00,0.9973
7418.00,1.0039
7417.00,1.0104
7416.00,1.0173
7415.00,1.0241
7414.00,1.0302
7413.00,1.0356
7412.00,1.0408
7411.00,1.0463
7410.00,1.0520
7409.00,1.0577
7408.00,1.0632
7407.00,1.0688
7406.00,1.0745
7405.00,1.0800
7404.00,1.0851
7403.00,1.0895
7402.00,1.0930
7401.00,1.0960
7400.00,1.0986
7399.00,1.1009
7398.00,1.1024
7397.00,1.1027
7396.00,1.1025
7395.00,1.1026
7394.00,1.1034
7393.00,1.1043
7392.00,1.1050
7391.00,1.1054
7390.00,1.1060
7389.00,1.1064
7388.00,1.1061
7387.00,1.1053
7386.00,1.1046
7385.00,1.1045
7384.00,1.1045
7383.00,1.1037
7382.00,1.1020
7381.00,1.1005
7380.00,1.0999
7379.00,1.0996
7378.00,1.0981
7377.00,1.0949
7376.00,1.0908
7375.00,1.0868
7374.00,1.0824
7373.00,1.0768
7372.00,1.0700
7371.00,1.0630
7370.00,1.0568
7369.00,1.0516
7368.00,1.0470
7367.00,1.0429
7366.00,1.0391
7365.00,1.0355
7364.00,1.0321
7363.00,1.0286
7362.00,1.0250
7361.00,1.0211
7360.00,1.0167
7359.00,1.0118
7358.00,1.0064
7357.00,1.0007
7356.00,0.9947
7355.00,0.9888
7354.00,0.9831
7353.00,0.9778
7352.00,0.9726
7351.00,0.9674
7350.00,0.9617
7349.00,0.9551
7348.00,0.9473
7347.00,0.9381
7346.00,0.9281
7345.00,0.9182
7344.00,0.9090
7343.00,0.9004
7342.00,0.8920
7341.00,0.8837
7340.00,0.8755
7339.00,0.8677
7338.00,0.8600
7337.00,0.8519
7336.00,0.8436
7335.00,0.8354
7334.00,0.8279
7333.00,0.8212
7332.00,0.8154
7331.00,0.8101
7330.00,0.8051
7329.00,0.8004
7328.00,0.7957
7327.00,0.7913
7326.00,0.7872
7325.00,0.7836
7324.00,0.7805
7323.00,0.7784
7322.00,0.7771
7321.00,0.7766
7320.00,0.7766
7319.00,0.7769
7318.00,0.7776
7317.00,0.7789
7316.00,0.7811
7315.00,0.7838
7314.00,0.7871
7313.00,0.7906
7312.00,0.7944
7311.00,0.7986
7310.00,0.8031
7309.00,0.8080
7308.00,0.8128
7307.00,0.8176
7306.00,0.8224
7305.00,0.8278
7304.00,0.8342
7303.00,0.8415
7302.00,0.8493
7301.00,0.8573
7300.00,0.8654
7299.00,0.8737
7298.00,0.8821
7297.00,0.8906
7296.00,0.8991
7295.00,0.9075
7294.00,0.9155
7293.00,0.9236
7292.00,0.9320
7291.00,0.9410
7290.00,0.9501
7289.00,0.9591
7288.00,0.9677
7287.00,0.9761
7286.00,0.9846
7285.00,0.9936
7284.00,1.0030
7283.00,1.0123
7282.00,1.0213
7281.00,1.0297
7280.00,1.0379
7279.00,1.0460
7278.00,1.0540
7277.00,1.0616
7276.00,1.0690
7275.00,1.0761
7274.00,1.0831
7273.00,1.0897
7272.00,1.0961
7271.00,1.1026
7270.00,1.1096
7269.00,1.1169
7268.00,1.1243
7267.00,1.1314
7266.00,1.1380
7265.00,1.1441
7264.00,1.1498
7263.00,1.1551
7262.00,1.1601
7261.00,1.1649
7260.00,1.1695
7259.00,1.1738
7258.00,1.1778
7257.00,1.1815
7256.00,1.1843
7255.00,1.1858
7254.00,1.1863
7253.00,1.1868
7252.00,1.1881
7251.00,1.1898
7250.00,1.1910
7249.00,1.1914
7248.00,1.1915
7247.00,1.1916
7246.00,1.1917
7245.00,1.1915
7244.00,1.1906
7243.00,1.1890
7242.00,1.1869
7241.00,1.1847
7240.00,1.1824
7239.00,1.1797
7238.00,1.1762
7237.00,1.1718
7236.00,1.1671
7235.00,1.1624
7234.00,1.1576
7233.00,1.1525
7232.00,1.1470
7231.00,1.1413
7230.00,1.1356
7229.00,1.1296
7228.00,1.1230
7227.00,1.1160
7226.00,1.1085
7225.00,1.1007
7224.00,1.0925
7223.00,1.0841
7222.00,1.0758
7221.00,1.0678
7220.00,1.0597
7219.00,1.0508
7218.00,1.0411
7217.00,1.0307
7216.00,1.0200
7215.00,1.0093
7214.00,0.9988
7213.00,0.9885
7212.00,0.9783
7211.00,0.9681
7210.00,0.9581
7209.00,0.9484
7208.00,0.9389
7207.00,0.9292
7206.00,0.9193
7205.00,0.9092
7204.00,0.8993
7203.00,0.8899
7202.00,0.8808
7201.00,0.8720
7200.00,0.8634
7199.00,0.8552
7198.00,0.8473
7197.00,0.8398
7196.00,0.8328
7195.00,0.8264
7194.00,0.8207
7193.00,0.8156
7192.00,0.8111
7191.00,0.8070
7190.00,0.8033
7189.00,0.7999
7188.00,0.7970
7187.00,0.7946
7186.00,0.7927
7185.00,0.7913
7184.00,0.7903
7183.00,0.7899
7182.00,0.7901
7181.00,0.7909
7180.00,0.7922
7179.00,0.7938
7178.00,0.7958
7177.00,0.7986
7176.00,0.8023
7175.00,0.8066
7174.00,0.8113
7173.00,0.8164
7172.00,0.8220
7171.00,0.8281
7170.00,0.8346
7169.00,0.8411
7168.00,0.8476
7167.00,0.8542
7166.00,0.8610
7165.00,0.8682
7164.00,0.8759
7163.00,0.8839
7162.00,0.8920
7161.00,0.8999
7160.00,0.9080
7159.00,0.9163
7158.00,0.9250
7157.00,0.9338
7156.00,0.9429
7155.00,0.9521
7154.00,0.9611
7153.00,0.9699
7152.00,0.9787
7151.00,0.9875
7150.00,0.9966
7149.00,1.0054
7148.00,1.0139
7147.00,1.0221
7146.00,1.0305
7145.00,1.0390
7144.00,1.0473
7143.00,1.0552
7142.00,1.0624
7141.00,1.0692
7140.00,1.0761
7139.00,1.0832
7138.00,1.0906
7137.00,1.0977
7136.00,1.1042
7135.00,1.1102
7134.00,1.1160
7133.00,1.1214
7132.00,1.1262
7131.00,1.1306
7130.00,1.1347
7129.00,1.1389
7128.00,1.1433
7127.00,1.1480
7126.00,1.1527
7125.00,1.1569
7124.00,1.1604
7123.00,1.1634
7122.00,1.1667
7121.00,1.1700
7120.00,1.1725
7119.00,1.1737
7118.00,1.1741
7117.00,1.1744
7116.00,1.1750
7115.00,1.1755
7114.00,1.1756
7113.00,1.1757
7112.00,1.1763
7111.00,1.1771
7110.00,1.1775
7109.00,1.1768
7108.00,1.1750
7107.00,1.1722
7106.00,1.1687
7105.00,1.1649
7104.00,1.1613
7103.00,1.1581
7102.00,1.1550
7101.00,1.1517
7100.00,1.1482
7099.00,1.1448
7098.00,1.1413
7097.00,1.1371
7096.00,1.1320
7095.00,1.1261
7094.00,1.1197
7093.00,1.1132
7092.00,1.1062
7091.00,1.0988
7090.00,1.0907
7089.00,1.0824
7088.00,1.0739
7087.00,1.0653
7086.00,1.0569
7085.00,1.0487
7084.00,1.0405
7083.00,1.0321
7082.00,1.0229
7081.00,1.0130
7080.00,1.0027
7079.00,0.9926
7078.00,0.9826
7077.00,0.9724
7076.00,0.9621
7075.00,0.9522
7074.00,0.9428
7073.00,0.9336
7072.00,0.9242
7071.00,0.9145
7070.00,0.9049
7069.00,0.8957
7068.00,0.8865
7067.00,0.8774
7066.00,0.8685
7065.00,0.8599
7064.00,0.8517
7063.00,0.8438
7062.00,0.8364
7061.00,0.8296
7060.00,0.8233
7059.00,0.8174
7058.00,0.8118
7057.00,0.8067
7056.00,0.8020
7055.00,0.7979
7054.00,0.7942
7053.00,0.7912
7052.00,0.7887
7051.00,0.7868
7050.00,0.7855
7049.00,0.7848
7048.00,0.7846
7047.00,0.7848
7046.00,0.7857
7045.00,0.7871
7044.00,0.7891
7043.00,0.7916
7042.00,0.7945
7041.00,0.7978
7040.00,0.8016
7039.00,0.8058
7038.00,0.8105
7037.00,0.8156
7036.00,0.8215
7035.00,0.8280
7034.00,0.8348
7033.00,0.8418
7032.00,0.8490
7031.00,0.8566
7030.00,0.8647
7029.00,0.8732
7028.00,0.8819
7027.00,0.8905
7026.00,0.8993
7025.00,0.9083
7024.00,0.9174
7023.00,0.9264
7022.00,0.9353
7021.00,0.9440
7020.00,0.9528
7019.00,0.9618
7018.00,0.9709
7017.00,0.9800
7016.00,0.9889
7015.00,0.9978
7014.00,1.0070
7013.00,1.0164
7012.00,1.0259
7011.00,1.0352
7010.00,1.0444
7009.00,1.0532
7008.00,1.0615
7007.00,1.0694
7006.00,1.0771
7005.00,1.0849
7004.00,1.0929
7003.00,1.1011
7002.00,1.1093
7001.00,1.1174
7000.00,1.1252
6999.00,1.1326
6998.00,1.1394
6997.00,1.1457
6996.00,1.1515
6995.00,1.1569
6994.00,1.1620
6993.00,1.1666
6992.00,1.1709
6991.00,1.1754
6990.00,1.1800
6989.00,1.1845
6988.00,1.1883
6987.00,1.1915
6986.00,1.1947
6985.00,1.1977
6984.00,1.2005
6983.00,1.2027
6982.00,1.2048
6981.00,1.2069
6980.00,1.2089
6979.00,1.2103
6978.00,1.2106
6977.00,1.2102
6976.00,1.2094
6975.00,1.2085
6974.00,1.2074
6973.00,1.2062
6972.00,1.2051
6971.00,1.2039
6970.00,1.2023
6969.00,1.1997
6968.00,1.1963
6967.00,1.1925
6966.00,1.1884
6965.00,1.1840
6964.00,1.1791
6963.00,1.1740
6962.00,1.1687
6961.00,1.1629
6960.00,1.1564
6959.00,1.1492
6958.00,1.1419
6957.00,1.1345
6956.00,1.1269
6955.00,1.1188
6954.00,1.1103
6953.00,1.1017
6952.00,1.0932
6951.00,1.0845
6950.00,1.0755
6949.00,1.0660
6948.00,1.0562
6947.00,1.0463
6946.00,1.0361
6945.00,1.0254
6944.00,1.0144
6943.00,1.0036
6942.00,0.9932
6941.00,0.9832
6940.00,0.9731
6939.00,0.9629
6938.00,0.9525
6937.00,0.9421
6936.00,0.9315
6935.00,0.9207
6934.00,0.9098
6933.00,0.8993
6932.00,0.8894
6931.00,0.8802
6930.00,0.8714
6929.00,0.8628
6928.00,0.8544
6927.00,0.8464
6926.00,0.8389
6925.00,0.8316
6924.00,0.8245
6923.00,0.8180
6922.00,0.8122
6921.00,0.8071
6920.00,0.8026
6919.00,0.7985
6918.00,0.7948
6917.00,0.7916
6916.00,0.7890
6915.00,0.7869
6914.00,0.7856
6913.00,0.7850
6912.00,0.7851
6911.00,0.7859
6910.00,0.7873
6909.00,0.7893
6908.00,0.7915
6907.00,0.7941
6906.00,0.7972
6905.00,0.8011
6904.00,0.8056
6903.00,0.8105
6902.00,0.8159
6901.00,0.8218
6900.00,0.8283
6899.00,0.8351
6898.00,0.8421
6897.00,0.8493
6896.00,0.8566
6895.00,0.8642
6894.00,0.8722
6893.00,0.8803
6892.00,0.8885
6891.00,0.8970
6890.00,0.9059
6889.00,0.9152
6888.00,0.9247
6887.00,0.9340
6886.00,0.9433
6885.00,0.9528
6884.00,0.9623
6883.00,0.9715
6882.00,0.9806
6881.00,0.9899
6880.00,0.9993
6879.00,1.0087
6878.00,1.0181
6877.00,1.0274
6876.00,1.0365
6875.00,1.0452
6874.00,1.0535
6873.00,1.0618
6872.00,1.0701
6871.00,1.0781
6870.00,1.0861
6869.00,1.0941
6868.00,1.1022
6867.00,1.1101
6866.00,1.1174
6865.00,1.1240
6864.00,1.1298
6863.00,1.1355
6862.00,1.1412
6861.00,1.1472
6860.00,1.1533
6859.00,1.1593
6858.00,1.1651
6857.00,1.1705
6856.00,1.1754
6855.00,1.1794
6854.00,1.1830
6853.00,1.1863
6852.00,1.1894
6851.00,1.1921
6850.00,1.1943
6849.00,1.1963
6848.00,1.1983
6847.00,1.2001
6846.00,1.2017
6845.00,1.2033
6844.00,1.2049
6843.00,1.2061
6842.00,1.2065
6841.00,1.2061
6840.00,1.2050
6839.00,1.2031
6838.00,1.2007
6837.00,1.1978
6836.00,1.1948
6835.00,1.1922
6834.00,1.1897
6833.00,1.1872
6832.00,1.1843
6831.00,1.1809
6830.00,1.1771
6829.00,1.1725
6828.00,1.1669
6827.00,1.1608
6826.00,1.1546
6825.00,1.1487
6824.00,1.1428
6823.00,1.1367
6822.00,1.1302
6821.00,1.1233
6820.00,1.1159
6819.00,1.1080
6818.00,1.0997
6817.00,1.0912
6816.00,1.0825
6815.00,1.0734
6814.00,1.0640
6813.00,1.0547
6812.00,1.0453
6811.00,1.0353
6810.00,1.0248
6809.00,1.0139
6808.00,1.0031
6807.00,0.9922
6806.00,0.9813
6805.00,0.9705
6804.00,0.9597
6803.00,0.9493
6802.00,0.9391
6801.00,0.9289
6800.00,0.9186
6799.00,0.9082
6798.00,0.8978
6797.00,0.8876
6796.00,0.8776
6795.00,0.8680
6794.00,0.8589
6793.00,0.8502
6792.00,0.8419
6791.00,0.8340
6790.00,0.8266
6789.00,0.8198
6788.00,0.8134
6787.00,0.8074
6786.00,0.8017
6785.00,0.7966
6784.00,0.7921
6783.00,0.7880
6782.00,0.7845
6781.00,0.7818
6780.00,0.7797
6779.00,0.7784
6778.00,0.7776
6777.00,0.7773
6776.00,0.7775
6775.00,0.7784
6774.00,0.7799
6773.00,0.7821
6772.00,0.7849
6771.00,0.7883
6770.00,0.7922
6769.00,0.7967
6768.00,0.8017
6767.00,0.8071
6766.00,0.8129
6765.00,0.8192
6764.00,0.8259
6763.00,0.8331
6762.00,0.8407
6761.00,0.8484
6760.00,0.8563
6759.00,0.8645
6758.00,0.8729
6757.00,0.8817
6756.00,0.8907
6755.00,0.8999
6754.00,0.9093
6753.00,0.9189
6752.00,0.9286
6751.00,0.9383
6750.00,0.9481
6749.00,0.9579
6748.00,0.9677
6747.00,0.9777
6746.00,0.9878
6745.00,0.9978
6744.00,1.0073
6743.00,1.0163
6742.00,1.0253
6741.00,1.0344
6740.00,1.0434
6739.00,1.0522
6738.00,1.0611
6737.00,1.0707
6736.00,1.0806
6735.00,1.0902
6734.00,1.0990
6733.00,1.1068
6732.00,1.1142
6731.00,1.1214
6730.00,1.1286
6729.00,1.1357
6728.00,1.1430
6727.00,1.1506
6726.00,1.1585
6725.00,1.1662
6724.00,1.1732
6723.00,1.1794
6722.00,1.1849
6721.00,1.1897
6720.00,1.1940
6719.00,1.1977
6718.00,1.2010
6717.00,1.2042
6716.00,1.2077
6715.00,1.2111
6714.00,1.2141
6713.00,1.2167
6712.00,1.2189
6711.00,1.2211
6710.00,1.2228
6709.00,1.2237
6708.00,1.2243
6707.00,1.2250
6706.00,1.2260
6705.00,1.2266
6704.00,1.2262
6703.00,1.2250
6702.00,1.2235
6701.00,1.2219
6700.00,1.2196
6699.00,1.2164
6698.00,1.2129
6697.00,1.2096
6696.00,1.2062
6695.00,1.2026
6694.00,1.1983
6693.00,1.1935
6692.00,1.1883
6691.00,1.1827
6690.00,1.1767
6689.00,1.1702
6688.00,1.1632
6687.00,1.1559
6686.00,1.1484
6685.00,1.1405
6684.00,1.1320
6683.00,1.1232
6682.00,1.1144
6681.00,1.1055
6680.00,1.0965
6679.00,1.0871
6678.00,1.0775
6677.00,1.0676
6676.00,1.0576
6675.00,1.0470
6674.00,1.0359
6673.00,1.0246
6672.00,1.0134
6671.00,1.0022
6670.00,0.9910
6669.00,0.9797
6668.00,0.9684
6667.00,0.9572
6666.00,0.9461
6665.00,0.9351
6664.00,0.9242
6663.00,0.9134
6662.00,0.9029
6661.00,0.8925
6660.00,0.8824
6659.00,0.8725
6658.00,0.8631
6657.00,0.8541
6656.00,0.8455
6655.00,0.8372
6654.00,0.8295
6653.00,0.8224
6652.00,0.8157
6651.00,0.8095
6650.00,0.8037
6649.00,0.7987
6648.00,0.7946
6647.00,0.7909
6646.00,0.7876
6645.00,0.7849
6644.00,0.7829
6643.00,0.7816
6642.00,0.7809
6641.00,0.7808
6640.00,0.7815
6639.00,0.7829
6638.00,0.7851
6637.00,0.7880
6636.00,0.7915
6635.00,0.7953
6634.00,0.7995
6633.00,0.8043
6632.00,0.8097
6631.00,0.8154
6630.00,0.8216
6629.00,0.8282
6628.00,0.8354
6627.00,0.8430
6626.00,0.8508
6625.00,0.8589
6624.00,0.8673
6623.00,0.8760
6622.00,0.8849
6621.00,0.8940
6620.00,0.9032
6619.00,0.9127
6618.00,0.9223
6617.00,0.9321
6616.00,0.9418
6615.00,0.9517
6614.00,0.9617
6613.00,0.9717
6612.00,0.9816
6611.00,0.9916
6610.00,1.0014
6609.00,1.0110
6608.00,1.0201
6607.00,1.0289
6606.00,1.0378
6605.00,1.0469
6604.00,1.0562
6603.00,1.0656
6602.00,1.0750
6601.00,1.0842
6600.00,1.0931
6599.00,1.1014
6598.00,1.1092
6597.00,1.1167
6596.00,1.1240
6595.00,1.1312
6594.00,1.1384
6593.00,1.1455
6592.00,1.1524
6591.00,1.1588
6590.00,1.1646
6589.00,1.1699
6588.00,1.1749
6587.00,1.1798
6586.00,1.1846
6585.00,1.1891
6584.00,1.1930
6583.00,1.1967
6582.00,1.2004
6581.00,1.2039
6580.00,1.2068
6579.00,1.2090
6578.00,1.2107
6577.00,1.2124
6576.00,1.2141
6575.00,1.2155
6574.00,1.2167
6573.00,1.2176
6572.00,1.2180
6571.00,1.2177
6570.00,1.2166
6569.00,1.2149
6568.00,1.2129
6567.00,1.2106
6566.00,1.2082
6565.00,1.2059
6564.00,1.2033
6563.00,1.2001
6562.00,1.1963
6561.00,1.1923
6560.00,1.1884
6559.00,1.1847
6558.00,1.1805
6557.00,1.1757
6556.00,1.1703
6555.00,1.1643
6554.00,1.1578
6553.00,1.1505
6552.00,1.1428
6551.00,1.1350
6550.00,1.1275
6549.00,1.1201
6548.00,1.1123
6547.00,1.1041
6546.00,1.0953
6545.00,1.0860
6544.00,1.0763
6543.00,1.0663
6542.00,1.0563
6541.00,1.0463
6540.00,1.0363
6539.00,1.0261
6538.00,1.0156
6537.00,1.0051
6536.00,0.9943
6535.00,0.9834
6534.00,0.9721
6533.00,0.9607
6532.00,0.9494
6531.00,0.9384
6530.00,0.9277
6529.00,0.9173
6528.00,0.9071
6527.00,0.8970
6526.00,0.8870
6525.00,0.8772
6524.00,0.8676
6523.00,0.8581
6522.00,0.8488
6521.00,0.8399
6520.00,0.8316
6519.00,0.8237
6518.00,0.8163
6517.00,0.8094
6516.00,0.8031
6515.00,0.7973
6514.00,0.7922
6513.00,0.7877
6512.00,0.7838
6511.00,0.7805
6510.00,0.7777
6509.00,0.7756
6508.00,0.7742
6507.00,0.7734
6506.00,0.7734
6505.00,0.7740
6504.00,0.7754
6503.00,0.7774
6502.00,0.7800
6501.00,0.7833
6500.00,0.7871
6499.00,0.7914
6498.00,0.7964
6497.00,0.8019
6496.00,0.8080
6495.00,0.8145
6494.00,0.8215
6493.00,0.8288
6492.00,0.8366
6491.00,0.8446
6490.00,0.8530
6489.00,0.8616
6488.00,0.8706
6487.00,0.8798
6486.00,0.8893
6485.00,0.8990
6484.00,0.9089
6483.00,0.9188
6482.00,0.9288
6481.00,0.9389
6480.00,0.9491
6479.00,0.9593
6478.00,0.9695
6477.00,0.9797
6476.00,0.9899
6475.00,1.0001
6474.00,1.0103
6473.00,1.0204
6472.00,1.0307
6471.00,1.0409
6470.00,1.0508
6469.00,1.0604
6468.00,1.0699
6467.00,1.0795
6466.00,1.0889
6465.00,1.0981
6464.00,1.1071
6463.00,1.1163
6462.00,1.1256
6461.00,1.1349
6460.00,1.1436
6459.00,1.1520
6458.00,1.1600
6457.00,1.1677
6456.00,1.1749
6455.00,1.1816
6454.00,1.1879
6453.00,1.1940
6452.00,1.2000
6451.00,1.2056
6450.00,1.2110
6449.00,1.2160
6448.00,1.2207
6447.00,1.2248
6446.00,1.2286
6445.00,1.2321
6444.00,1.2356
6443.00,1.2390
6442.00,1.2420
6441.00,1.2443
6440.00,1.2462
6439.00,1.2477
6438.00,1.2489
6437.00,1.2497
6436.00,1.2502
6435.00,1.2503
6434.00,1.2499
6433.00,1.2485
6432.00,1.2464
6431.00,1.2440
6430.00,1.2415
6429.00,1.2391
6428.00,1.2366
6427.00,1.2340
6426.00,1.2313
6425.00,1.2282
6424.00,1.2243
6423.00,1.2197
6422.00,1.2146
6421.00,1.2092
6420.00,1.2033
6419.00,1.1967
6418.00,1.1894
6417.00,1.1816
6416.00,1.1735
6415.00,1.1651
6414.00,1.1569
6413.00,1.1487
6412.00,1.1401
6411.00,1.1308
6410.00,1.1209
6409.00,1.1108
6408.00,1.1008
6407.00,1.0905
6406.00,1.0798
6405.00,1.0687
6404.00,1.0574
6403.00,1.0460
6402.00,1.0343
6401.00,1.0223
6400.00,1.0103
6399.00,0.9987
6398.00,0.9872
6397.00,0.9754
6396.00,0.9634
6395.00,0.9512
6394.00,0.9391
6393.00,0.9273
6392.00,0.9157
6391.00,0.9045
6390.00,0.8936
6389.00,0.8832
6388.00,0.8730
6387.00,0.8631
6386.00,0.8535
6385.00,0.8444
6384.00,0.8355
6383.00,0.8270
6382.00,0.8190
6381.00,0.8116
6380.00,0.8049
6379.00,0.7988
6378.00,0.7935
6377.00,0.7891
6376.00,0.7856
6375.00,0.7829
6374.00,0.7806
6373.00,0.7788
6372.00,0.7775
6371.00,0.7769
6370.00,0.7771
6369.00,0.7779
6368.00,0.7794
6367.00,0.7816
6366.00,0.7847
6365.00,0.7885
6364.00,0.7929
6363.00,0.7977
6362.00,0.8030
6361.00,0.8088
6360.00,0.8153
6359.00,0.8224
6358.00,0.8298
6357.00,0.8375
6356.00,0.8457
6355.00,0.8542
6354.00,0.8631
6353.00,0.8721
6352.00,0.8812
6351.00,0.8905
6350.00,0.9000
6349.00,0.9098
6348.00,0.9197
6347.00,0.9298
6346.00,0.9403
6345.00,0.9510
6344.00,0.9615
6343.00,0.9719
6342.00,0.9822
6341.00,0.9925
6340.00,1.0029
6339.00,1.0132
6338.00,1.0237
6337.00,1.0342
6336.00,1.0446
6335.00,1.0548
6334.00,1.0646
6333.00,1.0741
6332.00,1.0833
6331.00,1.0924
6330.00,1.1016
6329.00,1.1109
6328.00,1.1201
6327.00,1.1288
6326.00,1.1372
6325.00,1.1452
6324.00,1.1527
6323.00,1.1598
6322.00,1.1667
6321.00,1.1735
6320.00,1.1806
6319.00,1.1877
6318.00,1.1944
6317.00,1.2004
6316.00,1.2055
6315.00,1.2100
6314.00,1.2141
6313.00,1.2181
6312.00,1.2218
6311.00,1.2255
6310.00,1.2290
6309.00,1.2322
6308.00,1.2350
6307.00,1.2372
6306.00,1.2390
6305.00,1.2403
6304.00,1.2412
6303.00,1.2417
6302.00,1.2421
6301.00,1.2422
6300.00,1.2419
6299.00,1.2414
6298.00,1.2408
6297.00,1.2400
6296.00,1.2386
6295.00,1.2364
6294.00,1.2336
6293.00,1.2304
6292.00,1.2267
6291.00,1.2226
6290.00,1.2181
6289.00,1.2134
6288.00,1.2085
6287.00,1.2034
6286.00,1.1979
6285.00,1.1922
6284.00,1.1862
6283.00,1.1801
6282.00,1.1737
6281.00,1.1670
6280.00,1.1597
6279.00,1.1519
6278.00,1.1438
6277.00,1.1354
6276.00,1.1264
6275.00,1.1170
6274.00,1.1072
6273.00,1.0973
6272.00,1.0872
6271.00,1.0766
6270.00,1.0658
6269.00,1.0547
6268.00,1.0435
6267.00,1.0323
6266.00,1.0209
6265.00,1.0094
6264.00,0.9977
6263.00,0.9858
6262.00,0.9740
6261.00,0.9622
6260.00,0.9504
6259.00,0.9386
6258.00,0.9270
6257.00,0.9156
6256.00,0.9044
6255.00,0.8933
6254.00,0.8824
6253.00,0.8718
6252.00,0.8616
6251.00,0.8518
6250.00,0.8423
6249.00,0.8332
6248.00,0.8245
6247.00,0.8163
6246.00,0.8087
6245.00,0.8017
6244.00,0.7954
6243.00,0.7897
6242.00,0.7848
6241.00,0.7807
6240.00,0.7775
6239.00,0.7749
6238.00,0.7731
6237.00,0.7719
6236.00,0.7714
6235.00,0.7714
6234.00,0.7721
6233.00,0.7737
6232.00,0.7760
6231.00,0.7790
6230.00,0.7828
6229.00,0.7872
6228.00,0.7923
6227.00,0.7979
6226.00,0.8040
6225.00,0.8105
6224.00,0.8177
6223.00,0.8253
6222.00,0.8333
6221.00,0.8416
6220.00,0.8503
6219.00,0.8593
6218.00,0.8688
6217.00,0.8785
6216.00,0.8885
6215.00,0.8986
6214.00,0.9090
6213.00,0.9196
6212.00,0.9303
6211.00,0.9410
6210.00,0.9519
6209.00,0.9629
6208.00,0.9739
6207.00,0.9848
6206.00,0.9957
6205.00,1.0067
6204.00,1.0177
6203.00,1.0286
6202.00,1.0394
6201.00,1.0500
6200.00,1.0604
6199.00,1.0707
6198.00,1.0810
6197.00,1.0912
6196.00,1.1011
6195.00,1.1109
6194.00,1.1207
6193.00,1.1304
6192.00,1.1398
6191.00,1.1487
6190.00,1.1575
6189.00,1.1661
6188.00,1.1745
6187.00,1.1827
6186.00,1.1904
6185.00,1.1976
6184.00,1.2045
6183.00,1.2111
6182.00,1.2174
6181.00,1.2233
6180.00,1.2287
6179.00,1.2339
6178.00,1.2392
6177.00,1.2444
6176.00,1.2493
6175.00,1.2536
6174.00,1.2574
6173.00,1.2608
6172.00,1.2637
6171.00,1.2659
6170.00,1.2676
6169.00,1.2689
6168.00,1.2702
6167.00,1.2712
6166.00,1.2720
6165.00,1.2724
6164.00,1.2722
6163.00,1.2715
6162.00,1.2704
6161.00,1.2687
6160.00,1.2667
6159.00,1.2644
6158.00,1.2621
6157.00,1.2595
6156.00,1.2563
6155.00,1.2523
6154.00,1.2479
6153.00,1.2431
6152.00,1.2379
6151.00,1.2323
6150.00,1.2265
6149.00,1.2207
6148.00,1.2146
6147.00,1.2078
6146.00,1.2003
6145.00,1.1923
6144.00,1.1838
6143.00,1.1746
6142.00,1.1647
6141.00,1.1546
6140.00,1.1444
6139.00,1.1343
6138.00,1.1242
6137.00,1.1138
6136.00,1.1031
6135.00,1.0921
6134.00,1.0807
6133.00,1.0688
6132.00,1.0564
6131.00,1.0438
6130.00,1.0313
6129.00,1.0188
6128.00,1.0062
6127.00,0.9933
6126.00,0.9803
6125.00,0.9675
6124.00,0.9549
6123.00,0.9425
6122.00,0.9303
6121.00,0.9182
6120.00,0.9063
6119.00,0.8944
6118.00,0.8827
6117.00,0.8713
6116.00,0.8603
6115.00,0.8498
6114.00,0.8399
6113.00,0.8307
6112.00,0.8222
6111.00,0.8142
6110.00,0.8066
6109.00,0.7997
6108.00,0.7934
6107.00,0.7877
6106.00,0.7828
6105.00,0.7787
6104.00,0.7754
6103.00,0.7729
6102.00,0.7713
6101.00,0.7704
6100.00,0.7703
6099.00,0.7708
6098.00,0.7721
6097.00,0.7740
6096.00,0.7767
6095.00,0.7801
6094.00,0.7843
6093.00,0.7892
6092.00,0.7947
6091.00,0.8007
6090.00,0.8072
6089.00,0.8142
6088.00,0.8217
6087.00,0.8297
6086.00,0.8382
6085.00,0.8472
6084.00,0.8566
6083.00,0.8664
6082.00,0.8765
6081.00,0.8867
6080.00,0.8970
6079.00,0.9072
6078.00,0.9176
6077.00,0.9280
6076.00,0.9386
6075.00,0.9494
6074.00,0.9604
6073.00,0.9714
6072.00,0.9825
6071.00,0.9935
6070.00,1.0043
6069.00,1.0149
6068.00,1.0255
6067.00,1.0361
6066.00,1.0469
6065.00,1.0577
6064.00,1.0684
6063.00,1.0789
6062.00,1.0894
6061.00,1.0998
6060.00,1.1098
6059.00,1.1194
6058.00,1.1286
6057.00,1.1375
6056.00,1.1460
6055.00,1.1543
6054.00,1.1622
6053.00,1.1699
6052.00,1.1775
6051.00,1.1851
6050.00,1.1927
6049.00,1.2003
6048.00,1.2074
6047.00,1.2142
6046.00,1.2207
6045.00,1.2270
6044.00,1.2331
6043.00,1.2390
6042.00,1.2446
6041.00,1.2499
6040.00,1.2547
6039.00,1.2589
6038.00,1.2625
6037.00,1.2653
6036.00,1.2675
6035.00,1.2695
6034.00,1.2715
6033.00,1.2733
6032.00,1.2750
6031.00,1.2763
6030.00,1.2774
6029.00,1.2780
6028.00,1.2779
6027.00,1.2772
6026.00,1.2762
6025.00,1.2750
6024.00,1.2735
6023.00,1.2715
6022.00,1.2690
6021.00,1.2659
6020.00,1.2623
6019.00,1.2583
6018.00,1.2539
6017.00,1.2490
6016.00,1.2436
6015.00,1.2378
6014.00,1.2315
6013.00,1.2248
6012.00,1.2179
6011.00,1.2108
6010.00,1.2035
6009.00,1.1958
6008.00,1.1876
6007.00,1.1788
6006.00,1.1695
6005.00,1.1598
6004.00,1.1496
6003.00,1.1389
6002.00,1.1281
6001.00,1.1171
6000.00,1.1058
5999.00,1.0942
5998.00,1.0822
5997.00,1.0700
5996.00,1.0574
5995.00,1.0445
5994.00,1.0314
5993.00,1.0183
5992.00,1.0053
5991.00,0.9923
5990.00,0.9792
5989.00,0.9661
5988.00,0.9529
5987.00,0.9398
5986.00,0.9268
5985.00,0.9140
5984.00,0.9015
5983.00,0.8894
5982.00,0.8778
5981.00,0.8667
5980.00,0.8560
5979.00,0.8457
5978.00,0.8359
5977.00,0.8266
5976.00,0.8180
5975.00,0.8101
5974.00,0.8030
5973.00,0.7965
5972.00,0.7907
5971.00,0.7856
5970.00,0.7812
5969.00,0.7776
5968.00,0.7748
5967.00,0.7729
5966.00,0.7720
5965.00,0.7719
5964.00,0.7725
5963.00,0.7738
5962.00,0.7758
5961.00,0.7786
5960.00,0.7821
5959.00,0.7864
5958.00,0.7913
5957.00,0.7970
5956.00,0.8032
5955.00,0.8101
5954.00,0.8177
5953.00,0.8259
5952.00,0.8347
5951.00,0.8439
5950.00,0.8535
5949.00,0.8634
5948.00,0.8735
5947.00,0.8837
5946.00,0.8941
5945.00,0.9049
5944.00,0.9159
5943.00,0.9272
5942.00,0.9387
5941.00,0.9505
5940.00,0.9626
5939.00,0.9747
5938.00,0.9868
5937.00,0.9989
5936.00,1.0108
5935.00,1.0225
5934.00,1.0341
5933.00,1.0457
5932.00,1.0573
5931.00,1.0691
5930.00,1.0808
5929.00,1.0923
5928.00,1.1036
5927.00,1.1147
5926.00,1.1256
5925.00,1.1362
5924.00,1.1467
5923.00,1.1570
5922.00,1.1673
5921.00,1.1772
5920.00,1.1868
5919.00,1.1959
5918.00,1.2046
5917.00,1.2128
5916.00,1.2206
5915.00,1.2282
5914.00,1.2356
5913.00,1.2430
5912.00,1.2502
5911.00,1.2571
5910.00,1.2635
5909.00,1.2696
5908.00,1.2752
5907.00,1.2803
5906.00,1.2850
5905.00,1.2894
5904.00,1.2935
5903.00,1.2973
5902.00,1.3008
5901.00,1.3039
5900.00,1.3065
5899.00,1.3087
5898.00,1.3104
5897.00,1.3114
5896.00,1.3118
5895.00,1.3118
5894.00,1.3116
5893.00,1.3110
5892.00,1.3101
5891.00,1.3089
5890.00,1.3076
5889.00,1.3060
5888.00,1.3039
5887.00,1.3013
5886.00,1.2980
5885.00,1.2940
5884.00,1.2892
5883.00,1.2836
5882.00,1.2778
5881.00,1.2721
5880.00,1.2664
5879.00,1.2606
5878.00,1.2544
5877.00,1.2478
5876.00,1.2404
5875.00,1.2324
5874.00,1.2239
5873.00,1.2151
5872.00,1.2061
5871.00,1.1969
5870.00,1.1874
5869.00,1.1774
5868.00,1.1669
5867.00,1.1559
5866.00,1.1445
5865.00,1.1329
5864.00,1.1212
5863.00,1.1091
5862.00,1.0968
5861.00,1.0841
5860.00,1.0712
5859.00,1.0580
5858.00,1.0446
5857.00,1.0311
5856.00,1.0175
5855.00,1.0040
5854.00,0.9906
5853.00,0.9773
5852.00,0.9643
5851.00,0.9514
5850.00,0.9387
5849.00,0.9263
5848.00,0.9141
5847.00,0.9021
5846.00,0.8903
5845.00,0.8790
5844.00,0.8681
5843.00,0.8579
5842.00,0.8483
5841.00,0.8394
5840.00,0.8310
5839.00,0.8233
5838.00,0.8161
5837.00,0.8098
5836.00,0.8043
5835.00,0.7997
5834.00,0.7959
5833.00,0.7931
5832.00,0.7909
5831.00,0.7894
5830.00,0.7885
5829.00,0.7884
5828.00,0.7891
5827.00,0.7906
5826.00,0.7930
5825.00,0.7962
5824.00,0.8001
5823.00,0.8047
5822.00,0.8100
5821.00,0.8160
5820.00,0.8226
5819.00,0.8297
5818.00,0.8374
5817.00,0.8456
5816.00,0.8543
5815.00,0.8634
5814.00,0.8731
5813.00,0.8831
5812.00,0.8934
5811.00,0.9039
5810.00,0.9146
5809.00,0.9254
5808.00,0.9364
5807.00,0.9476
5806.00,0.9592
5805.00,0.9709
5804.00,0.9828
5803.00,0.9948
5802.00,1.0067
5801.00,1.0185
5800.00,1.0301
5799.00,1.0416
5798.00,1.0531
5797.00,1.0647
5796.00,1.0764
5795.00,1.0881
5794.00,1.0998
5793.00,1.1115
5792.00,1.1229
5791.00,1.1339
5790.00,1.1446
5789.00,1.1551
5788.00,1.1653
5787.00,1.1752
5786.00,1.1849
5785.00,1.1943
5784.00,1.2034
5783.00,1.2121
5782.00,1.2205
5781.00,1.2289
5780.00,1.2372
5779.00,1.2451
5778.00,1.2527
5777.00,1.2601
5776.00,1.2672
5775.00,1.2737
5774.00,1.2795
5773.00,1.2850
5772.00,1.2903
5771.00,1.2955
5770.00,1.3004
5769.00,1.3051
5768.00,1.3095
5767.00,1.3135
5766.00,1.3170
5765.00,1.3199
5764.00,1.3222
5763.00,1.3240
5762.00,1.3256
5761.00,1.3269
5760.00,1.3278
5759.00,1.3283
5758.00,1.3284
5757.00,1.3280
5756.00,1.3271
5755.00,1.3256
5754.00,1.3238
5753.00,1.3216
5752.00,1.3191
5751.00,1.3164
5750.00,1.3133
5749.00,1.3098
5748.00,1.3056
5747.00,1.3007
5746.00,1.2951
5745.00,1.2892
5744.00,1.2831
5743.00,1.2766
5742.00,1.2697
5741.00,1.2624
5740.00,1.2548
5739.00,1.2468
5738.00,1.2383
5737.00,1.2295
5736.00,1.2204
5735.00,1.2108
5734.00,1.2008
5733.00,1.1902
5732.00,1.1791
5731.00,1.1676
5730.00,1.1558
5729.00,1.1435
5728.00,1.1309
5727.00,1.1181
5726.00,1.1052
5725.00,1.0921
5724.00,1.0788
5723.00,1.0654
5722.00,1.0518
5721.00,1.0381
5720.00,1.0243
5719.00,1.0104
5718.00,0.9966
5717.00,0.9827
5716.00,0.9688
5715.00,0.9549
5714.00,0.9412
5713.00,0.9278
5712.00,0.9146
5711.00,0.9017
5710.00,0.8892
5709.00,0.8773
5708.00,0.8659
5707.00,0.8551
5706.00,0.8449
5705.00,0.8354
5704.00,0.8265
5703.00,0.8183
5702.00,0.8107
5701.00,0.8038
5700.00,0.7978
5699.00,0.7927
5698.00,0.7885
5697.00,0.7852
5696.00,0.7827
5695.00,0.7810
5694.00,0.7801
5693.00,0.7801
5692.00,0.7810
5691.00,0.7829
5690.00,0.7857
5689.00,0.7894
5688.00,0.7938
5687.00,0.7989
5686.00,0.8046
5685.00,0.8110
5684.00,0.8181
5683.00,0.8257
5682.00,0.8340
5681.00,0.8429
5680.00,0.8523
5679.00,0.8622
5678.00,0.8726
5677.00,0.8834
5676.00,0.8945
5675.00,0.9058
5674.00,0.9172
5673.00,0.9289
5672.00,0.9408
5671.00,0.9529
5670.00,0.9653
5669.00,0.9778
5668.00,0.9903
5667.00,1.0028
5666.00,1.0152
5665.00,1.0276
5664.00,1.0398
5663.00,1.0520
5662.00,1.0642
5661.00,1.0764
5660.00,1.0886
5659.00,1.1009
5658.00,1.1130
5657.00,1.1249
5656.00,1.1365
5655.00,1.1477
5654.00,1.1586
5653.00,1.1694
5652.00,1.1800
5651.00,1.1903
5650.00,1.2001
5649.00,1.2094
5648.00,1.2182
5647.00,1.2266
5646.00,1.2350
5645.00,1.2432
5644.00,1.2513
5643.00,1.2592
5642.00,1.2669
5641.00,1.2741
5640.00,1.2808
5639.00,1.2867
5638.00,1.2921
5637.00,1.2969
5636.00,1.3015
5635.00,1.3059
5634.00,1.3102
5633.00,1.3143
5632.00,1.3181
5631.00,1.3212
5630.00,1.3236
5629.00,1.3252
5628.00,1.3265
5627.00,1.3276
5626.00,1.3286
5625.00,1.3292
5624.00,1.3291
5623.00,1.3285
5622.00,1.3274
5621.00,1.3260
5620.00,1.3244
5619.00,1.3227
5618.00,1.3209
5617.00,1.3188
5616.00,1.3159
5615.00,1.3124
5614.00,1.3084
5613.00,1.3042
5612.00,1.2999
5611.00,1.2955
5610.00,1.2908
5609.00,1.2854
5608.00,1.2792
5607.00,1.2723
5606.00,1.2649
5605.00,1.2573
5604.00,1.2496
5603.00,1.2415
5602.00,1.2331
5601.00,1.2242
5600.00,1.2148
5599.00,1.2050
5598.00,1.1949
5597.00,1.1844
5596.00,1.1734
5595.00,1.1620
5594.00,1.1500
5593.00,1.1375
5592.00,1.1245
5591.00,1.1112
5590.00,1.0976
5589.00,1.0838
5588.00,1.0699
5587.00,1.0560
5586.00,1.0419
5585.00,1.0278
5584.00,1.0135
5583.00,0.9989
5582.00,0.9842
5581.00,0.9696
5580.00,0.9552
5579.00,0.9409
5578.00,0.9270
5577.00,0.9134
5576.00,0.9002
5575.00,0.8874
5574.00,0.8750
5573.00,0.8631
5572.00,0.8517
5571.00,0.8409
5570.00,0.8306
5569.00,0.8209
5568.00,0.8118
5567.00,0.8036
5566.00,0.7962
5565.00,0.7897
5564.00,0.7842
5563.00,0.7797
5562.00,0.7761
5561.00,0.7734
5560.00,0.7716
5559.00,0.7706
5558.00,0.7706
5557.00,0.7715
5556.00,0.7734
5555.00,0.7762
5554.00,0.7799
5553.00,0.7845
5552.00,0.7898
5551.00,0.7959
5550.00,0.8027
5549.00,0.8102
5548.00,0.8184
5547.00,0.8273
5546.00,0.8369
5545.00,0.8471
5544.00,0.8576
5543.00,0.8685
5542.00,0.8798
5541.00,0.8914
5540.00,0.9032
5539.00,0.9152
5538.00,0.9274
5537.00,0.9399
5536.00,0.9526
5535.00,0.9656
5534.00,0.9789
5533.00,0.9922
5532.00,1.0055
5531.00,1.0186
5530.00,1.0317
5529.00,1.0448
5528.00,1.0578
5527.00,1.0707
5526.00,1.0837
5525.00,1.0965
5524.00,1.1092
5523.00,1.1217
5522.00,1.1340
5521.00,1.1463
5520.00,1.1582
5519.00,1.1698
5518.00,1.1809
5517.00,1.1917
5516.00,1.2024
5515.00,1.2129
5514.00,1.2233
5513.00,1.2336
5512.00,1.2434
5511.00,1.2526
5510.00,1.2612
5509.00,1.2692
5508.00,1.2770
5507.00,1.2848
5506.00,1.2926
5505.00,1.3002
5504.00,1.3073
5503.00,1.3140
5502.00,1.3202
5501.00,1.3261
5500.00,1.3316
5499.00,1.3367
5498.00,1.3414
5497.00,1.3454
5496.00,1.3489
5495.00,1.3518
5494.00,1.3544
5493.00,1.3567
5492.00,1.3585
5491.00,1.3597
5490.00,1.3605
5489.00,1.3609
5488.00,1.3608
5487.00,1.3604
5486.00,1.3599
5485.00,1.3592
5484.00,1.3581
5483.00,1.3562
5482.00,1.3536
5481.00,1.3504
5480.00,1.3469
5479.00,1.3430
5478.00,1.3389
5477.00,1.3346
5476.00,1.3297
5475.00,1.3242
5474.00,1.3180
5473.00,1.3112
5472.00,1.3042
5471.00,1.2970
5470.00,1.2895
5469.00,1.2816
5468.00,1.2732
5467.00,1.2641
5466.00,1.2544
5465.00,1.2440
5464.00,1.2331
5463.00,1.2217
5462.00,1.2101
5461.00,1.1981
5460.00,1.1857
5459.00,1.1729
5458.00,1.1600
5457.00,1.1468
5456.00,1.1332
5455.00,1.1192
5454.00,1.1049
5453.00,1.0904
5452.00,1.0755
5451.00,1.0604
5450.00,1.0450
5449.00,1.0295
5448.00,1.0139
5447.00,0.9982
5446.00,0.9825
5445.00,0.9667
5444.00,0.9510
5443.00,0.9356
5442.00,0.9205
5441.00,0.9057
5440.00,0.8915
5439.00,0.8779
5438.00,0.8652
5437.00,0.8532
5436.00,0.8416
5435.00,0.8303
5434.00,0.8197
5433.00,0.8099
5432.00,0.8011
5431.00,0.7932
5430.00,0.7860
5429.00,0.7795
5428.00,0.7736
5427.00,0.7689
5426.00,0.7654
5425.00,0.7632
5424.00,0.7620
5423.00,0.7619
5422.00,0.7629
5421.00,0.7650
5420.00,0.7680
5419.00,0.7718
5418.00,0.7763
5417.00,0.7816
5416.00,0.7877
5415.00,0.7943
5414.00,0.8015
5413.00,0.8092
5412.00,0.8176
5411.00,0.8267
5410.00,0.8364
5409.00,0.8466
5408.00,0.8575
5407.00,0.8689
5406.00,0.8809
5405.00,0.8933
5404.00,0.9059
5403.00,0.9187
5402.00,0.9318
5401.00,0.9451
5400.00,0.9584
5399.00,0.9716
5398.00,0.9849
5397.00,0.9981
5396.00,1.0113
5395.00,1.0245
5394.00,1.0378
5393.00,1.0511
5392.00,1.0645
5391.00,1.0777
5390.00,1.0909
5389.00,1.1039
5388.00,1.1167
5387.00,1.1295
5386.00,1.1422
5385.00,1.1548
5384.00,1.1671
5383.00,1.1792
5382.00,1.1909
5381.00,1.2023
5380.00,1.2133
5379.00,1.2239
5378.00,1.2342
5377.00,1.2442
5376.00,1.2538
5375.00,1.2632
5374.00,1.2724
5373.00,1.2814
5372.00,1.2900
5371.00,1.2984
5370.00,1.3066
5369.00,1.3145
5368.00,1.3219
5367.00,1.3288
5366.00,1.3355
5365.00,1.3418
5364.00,1.3475
5363.00,1.3525
5362.00,1.3570
5361.00,1.3610
5360.00,1.3645
5359.00,1.3678
5358.00,1.3708
5357.00,1.3735
5356.00,1.3757
5355.00,1.3770
5354.00,1.3776
5353.00,1.3776
5352.00,1.3771
5351.00,1.3764
5350.00,1.3757
5349.00,1.3747
5348.00,1.3732
5347.00,1.3714
5346.00,1.3692
5345.00,1.3664
5344.00,1.3628
5343.00,1.3584
5342.00,1.3537
5341.00,1.3487
5340.00,1.3432
5339.00,1.3370
5338.00,1.3302
5337.00,1.3233
5336.00,1.3163
5335.00,1.3088
5334.00,1.3008
5333.00,1.2921
5332.00,1.2831
5331.00,1.2738
5330.00,1.2640
5329.00,1.2536
5328.00,1.2424
5327.00,1.2304
5326.00,1.2179
5325.00,1.2051
5324.00,1.1921
5323.00,1.1790
5322.00,1.1655
5321.00,1.1517
5320.00,1.1376
5319.00,1.1233
5318.00,1.1087
5317.00,1.0937
5316.00,1.0784
5315.00,1.0627
5314.00,1.0469
5313.00,1.0310
5312.00,1.0150
5311.00,0.9991
5310.00,0.9832
5309.00,0.9673
5308.00,0.9514
5307.00,0.9357
5306.00,0.9203
5305.00,0.9054
5304.00,0.8912
5303.00,0.8776
5302.00,0.8646
5301.00,0.8522
5300.00,0.8405
5299.00,0.8296
5298.00,0.8196
5297.00,0.8104
5296.00,0.8021
5295.00,0.7947
5294.00,0.7883
5293.00,0.7829
5292.00,0.7785
5291.00,0.7750
5290.00,0.7724
5289.00,0.7708
5288.00,0.7704
5287.00,0.7711
5286.00,0.7729
5285.00,0.7757
5284.00,0.7796
5283.00,0.7846
5282.00,0.7905
5281.00,0.7972
5280.00,0.8048
5279.00,0.8130
5278.00,0.8222
5277.00,0.8321
5276.00,0.8426
5275.00,0.8537
5274.00,0.8651
5273.00,0.8770
5272.00,0.8892
5271.00,0.9019
5270.00,0.9149
5269.00,0.9282
5268.00,0.9416
5267.00,0.9552
5266.00,0.9690
5265.00,0.9828
5264.00,0.9968
5263.00,1.0108
5262.00,1.0251
5261.00,1.0394
5260.00,1.0537
5259.00,1.0679
5258.00,1.0820
5257.00,1.0961
5256.00,1.1100
5255.00,1.1238
5254.00,1.1373
5253.00,1.1506
5252.00,1.1637
5251.00,1.1765
5250.00,1.1889
5249.00,1.2011
5248.00,1.2131
5247.00,1.2249
5246.00,1.2365
5245.00,1.2479
5244.00,1.2589
5243.00,1.2695
5242.00,1.2798
5241.00,1.2899
5240.00,1.2996
5239.00,1.3089
5238.00,1.3179
5237.00,1.3268
5236.00,1.3354
5235.00,1.3434
5234.00,1.3507
5233.00,1.3574
5232.00,1.3636
5231.00,1.3697
5230.00,1.3754
5229.00,1.3807
5228.00,1.3854
5227.00,1.3896
5226.00,1.3932
5225.00,1.3964
5224.00,1.3994
5223.00,1.4024
5222.00,1.4050
5221.00,1.4072
5220.00,1.4087
5219.00,1.4096
5218.00,1.4100
5217.00,1.4099
5216.00,1.4094
5215.00,1.4084
5214.00,1.4071
5213.00,1.4055
5212.00,1.4036
5211.00,1.4010
5210.00,1.3977
5209.00,1.3939
5208.00,1.3895
5207.00,1.3847
5206.00,1.3795
5205.00,1.3739
5204.00,1.3679
5203.00,1.3614
5202.00,1.3544
5201.00,1.3470
5200.00,1.3392
5199.00,1.3311
5198.00,1.3224
5197.00,1.3133
5196.00,1.3036
5195.00,1.2934
5194.00,1.2827
5193.00,1.2715
5192.00,1.2596
5191.00,1.2473
5190.00,1.2346
5189.00,1.2215
5188.00,1.2081
5187.00,1.1943
5186.00,1.1799
5185.00,1.1649
5184.00,1.1495
5183.00,1.1339
5182.00,1.1181
5181.00,1.1021
5180.00,1.0860
5179.00,1.0697
5178.00,1.0533
5177.00,1.0367
5176.00,1.0200
5175.00,1.0034
5174.00,0.9868
5173.00,0.9703
5172.00,0.9540
5171.00,0.9379
5170.00,0.9221
5169.00,0.9067
5168.00,0.8918
5167.00,0.8775
5166.00,0.8639
5165.00,0.8510
5164.00,0.8388
5163.00,0.8275
5162.00,0.8170
5161.00,0.8074
5160.00,0.7988
5159.00,0.7911
5158.00,0.7844
5157.00,0.7788
5156.00,0.7743
5155.00,0.7709
5154.00,0.7687
5153.00,0.7676
5152.00,0.7677
5151.00,0.7688
5150.00,0.7710
5149.00,0.7744
5148.00,0.7788
5147.00,0.7842
5146.00,0.7906
5145.00,0.7979
5144.00,0.8059
5143.00,0.8148
5142.00,0.8244
5141.00,0.8348
5140.00,0.8458
5139.00,0.8574
5138.00,0.8695
5137.00,0.8821
5136.00,0.8951
5135.00,0.9085
5134.00,0.9222
5133.00,0.9363
5132.00,0.9506
5131.00,0.9651
5130.00,0.9797
5129.00,0.9944
5128.00,1.0091
5127.00,1.0237
5126.00,1.0383
5125.00,1.0530
5124.00,1.0678
5123.00,1.0826
5122.00,1.0974
5121.00,1.1120
5120.00,1.1264
5119.00,1.1405
5118.00,1.1545
5117.00,1.1684
5116.00,1.1822
5115.00,1.1955
5114.00,1.2085
5113.00,1.2210
5112.00,1.2332
5111.00,1.2452
5110.00,1.2571
5109.00,1.2687
5108.00,1.2800
5107.00,1.2909
5106.00,1.3016
5105.00,1.3121
5104.00,1.3222
5103.00,1.3319
5102.00,1.3412
5101.00,1.3500
5100.00,1.3583
5099.00,1.3660
5098.00,1.3732
5097.00,1.3802
5096.00,1.3869
5095.00,1.3934
5094.00,1.3995
5093.00,1.4051
5092.00,1.4101
5091.00,1.4143
5090.00,1.4177
5089.00,1.4208
5088.00,1.4238
5087.00,1.4267
5086.00,1.4294
5085.00,1.4316
5084.00,1.4331
5083.00,1.4341
5082.00,1.4345
5081.00,1.4345
5080.00,1.4339
5079.00,1.4327
5078.00,1.4310
5077.00,1.4289
5076.00,1.4265
5075.00,1.4238
5074.00,1.4207
5073.00,1.4169
5072.00,1.4123
5071.00,1.4069
5070.00,1.4011
5069.00,1.3950
5068.00,1.3887
5067.00,1.3820
5066.00,1.3748
5065.00,1.3671
5064.00,1.3589
5063.00,1.3502
5062.00,1.3409
5061.00,1.3311
5060.00,1.3209
5059.00,1.3102
5058.00,1.2989
5057.00,1.2871
5056.00,1.2747
5055.00,1.2618
5054.00,1.2484
5053.00,1.2346
5052.00,1.2204
5051.00,1.2056
5050.00,1.1903
5049.00,1.1746
5048.00,1.1586
5047.00,1.1424
5046.00,1.1259
5045.00,1.1091
5044.00,1.0921
5043.00,1.0749
5042.00,1.0575
5041.00,1.0400
5040.00,1.0224
5039.00,1.0047
5038.00,0.9871
5037.00,0.9696
5036.00,0.9525
5035.00,0.9357
5034.00,0.9194
5033.00,0.9036
5032.00,0.8883
5031.00,0.8736
5030.00,0.8596
5029.00,0.8465
5028.00,0.8343
5027.00,0.8229
5026.00,0.8125
5025.00,0.8031
5024.00,0.7947
5023.00,0.7875
5022.00,0.7814
5021.00,0.7766
5020.00,0.7729
5019.00,0.7705
5018.00,0.7692
5017.00,0.7693
5016.00,0.7706
5015.00,0.7731
5014.00,0.7768
5013.00,0.7816
5012.00,0.7874
5011.00,0.7942
5010.00,0.8021
5009.00,0.8109
5008.00,0.8205
5007.00,0.8310
5006.00,0.8423
5005.00,0.8543
5004.00,0.8669
5003.00,0.8799
5002.00,0.8935
5001.00,0.9075
5000.00,0.9218
4999.00,0.9365
4998.00,0.9515
4997.00,0.9667
4996.00,0.9820
4995.00,0.9974
4994.00,1.0130
4993.00,1.0288
4992.00,1.0446
4991.00,1.0604
4990.00,1.0761
4989.00,1.0916
4988.00,1.1070
4987.00,1.1224
4986.00,1.1377
4985.00,1.1529
4984.00,1.1678
4983.00,1.1825
4982.00,1.1968
4981.00,1.2109
4980.00,1.2247
4979.00,1.2384
4978.00,1.2518
4977.00,1.2648
4976.00,1.2773
4975.00,1.2894
4974.00,1.3011
4973.00,1.3125
4972.00,1.3234
4971.00,1.3339
4970.00,1.3438
4969.00,1.3531
4968.00,1.3622
4967.00,1.3712
4966.00,1.3803
4965.00,1.3894
4964.00,1.3981
4963.00,1.4062
4962.00,1.4137
4961.00,1.4205
4960.00,1.4265
4959.00,1.4318
4958.00,1.4365
4957.00,1.4409
4956.00,1.4450
4955.00,1.4488
4954.00,1.4522
4953.00,1.4552
4952.00,1.4577
4951.00,1.4600
4950.00,1.4619
4949.00,1.4635
4948.00,1.4643
4947.00,1.4644
4946.00,1.4639
4945.00,1.4629
4944.00,1.4615
4943.00,1.4596
4942.00,1.4571
4941.00,1.4542
4940.00,1.4507
4939.00,1.4469
4938.00,1.4426
4937.00,1.4379
4936.00,1.4327
4935.00,1.4271
4934.00,1.4210
4933.00,1.4147
4932.00,1.4079
4931.00,1.4006
4930.00,1.3925
4929.00,1.3839
4928.00,1.3746
4927.00,1.3650
4926.00,1.3550
4925.00,1.3445
4924.00,1.3334
4923.00,1.3217
4922.00,1.3093
4921.00,1.2965
4920.00,1.2832
4919.00,1.2695
4918.00,1.2552
4917.00,1.2404
4916.00,1.2251
4915.00,1.2094
4914.00,1.1931
4913.00,1.1764
4912.00,1.1592
4911.00,1.1417
4910.00,1.1240
4909.00,1.1060
4908.00,1.0878
4907.00,1.0695
4906.00,1.0511
4905.00,1.0325
4904.00,1.0139
4903.00,0.9954
4902.00,0.9770
4901.00,0.9589
4900.00,0.9411
4899.00,0.9236
4898.00,0.9066
4897.00,0.8902
4896.00,0.8744
4895.00,0.8593
4894.00,0.8452
4893.00,0.8320
4892.00,0.8197
4891.00,0.8085
4890.00,0.7983
4889.00,0.7892
4888.00,0.7813
4887.00,0.7747
4886.00,0.7695
4885.00,0.7656
4884.00,0.7630
4883.00,0.7618
4882.00,0.7618
4881.00,0.7632
4880.00,0.7659
4879.00,0.7700
4878.00,0.7753
4877.00,0.7819
4876.00,0.7894
4875.00,0.7979
4874.00,0.8073
4873.00,0.8176
4872.00,0.8288
4871.00,0.8408
4870.00,0.8536
4869.00,0.8671
4868.00,0.8811
4867.00,0.8955
4866.00,0.9104
4865.00,0.9256
4864.00,0.9411
4863.00,0.9569
4862.00,0.9730
4861.00,0.9893
4860.00,1.0057
4859.00,1.0222
4858.00,1.0387
4857.00,1.0551
4856.00,1.0716
4855.00,1.0881
4854.00,1.1044
4853.00,1.1206
4852.00,1.1366
4851.00,1.1523
4850.00,1.1680
4849.00,1.1836
4848.00,1.1990
4847.00,1.2142
4846.00,1.2289
4845.00,1.2431
4844.00,1.2569
4843.00,1.2705
4842.00,1.2839
4841.00,1.2972
4840.00,1.3101
4839.00,1.3226
4838.00,1.3348
4837.00,1.3468
4836.00,1.3584
4835.00,1.3696
4834.00,1.3801
4833.00,1.3901
4832.00,1.3995
4831.00,1.4084
4830.00,1.4170
4829.00,1.4251
4828.00,1.4328
4827.00,1.4402
4826.00,1.4473
4825.00,1.4540
4824.00,1.4602
4823.00,1.4657
4822.00,1.4706
4821.00,1.4749
4820.00,1.4788
4819.00,1.4823
4818.00,1.4853
4817.00,1.4878
4816.00,1.4898
4815.00,1.4915
4814.00,1.4927
4813.00,1.4935
4812.00,1.4936
4811.00,1.4933
4810.00,1.4926
4809.00,1.4914
4808.00,1.4898
4807.00,1.4878
4806.00,1.4852
4805.00,1.4821
4804.00,1.4787
4803.00,1.4749
4802.00,1.4706
4801.00,1.4656
4800.00,1.4598
4799.00,1.4534
4798.00,1.4465
4797.00,1.4393
4796.00,1.4318
4795.00,1.4240
4794.00,1.4159
4793.00,1.4072
4792.00,1.3978
4791.00,1.3876
4790.00,1.3768
4789.00,1.3652
4788.00,1.3532
4787.00,1.3407
4786.00,1.3278
4785.00,1.3143
4784.00,1.3003
4783.00,1.2857
4782.00,1.2707
4781.00,1.2552
4780.00,1.2392
4779.00,1.2225
4778.00,1.2053
4777.00,1.1875
4776.00,1.1693
4775.00,1.1507
4774.00,1.1319
4773.00,1.1128
4772.00,1.0935
4771.00,1.0739
4770.00,1.0543
4769.00,1.0348
4768.00,1.0153
4767.00,0.9959
4766.00,0.9769
4765.00,0.9582
4764.00,0.9398
4763.00,0.9220
4762.00,0.9047
4761.00,0.8881
4760.00,0.8723
4759.00,0.8574
4758.00,0.8435
4757.00,0.8305
4756.00,0.8187
4755.00,0.8080
4754.00,0.7986
4753.00,0.7906
4752.00,0.7838
4751.00,0.7785
4750.00,0.7746
4749.00,0.7722
4748.00,0.7712
4747.00,0.7718
4746.00,0.7738
4745.00,0.7771
4744.00,0.7818
4743.00,0.7877
4742.00,0.7948
4741.00,0.8031
4740.00,0.8125
4739.00,0.8230
4738.00,0.8345
4737.00,0.8469
4736.00,0.8600
4735.00,0.8738
4734.00,0.8881
4733.00,0.9030
4732.00,0.9184
4731.00,0.9342
4730.00,0.9505
4729.00,0.9671
4728.00,0.9838
4727.00,1.0008
4726.00,1.0179
4725.00,1.0350
4724.00,1.0523
4723.00,1.0696
4722.00,1.0869
4721.00,1.1041
4720.00,1.1212
4719.00,1.1382
4718.00,1.1551
4717.00,1.1719
4716.00,1.1884
4715.00,1.2046
4714.00,1.2206
4713.00,1.2362
4712.00,1.2515
4711.00,1.2666
4710.00,1.2816
4709.00,1.2963
4708.00,1.3108
4707.00,1.3248
4706.00,1.3383
4705.00,1.3512
4704.00,1.3638
4703.00,1.3761
4702.00,1.3883
4701.00,1.4001
4700.00,1.4113
4699.00,1.4217
4698.00,1.4315
4697.00,1.4409
4696.00,1.4501
4695.00,1.4590
4694.00,1.4675
4693.00,1.4754
4692.00,1.4824
4691.00,1.4887
4690.00,1.4947
4689.00,1.5005
4688.00,1.5058
4687.00,1.5107
4686.00,1.5151
4685.00,1.5191
4684.00,1.5226
4683.00,1.5257
4682.00,1.5281
4681.00,1.5299
4680.00,1.5311
4679.00,1.5320
4678.00,1.5325
4677.00,1.5327
4676.00,1.5323
4675.00,1.5312
4674.00,1.5295
4673.00,1.5273
4672.00,1.5247
4671.00,1.5218
4670.00,1.5187
4669.00,1.5153
4668.00,1.5114
4667.00,1.5068
4666.00,1.5016
4665.00,1.4958
4664.00,1.4896
4663.00,1.4831
4662.00,1.4762
4661.00,1.4688
4660.00,1.4607
4659.00,1.4518
4658.00,1.4423
4657.00,1.4321
4656.00,1.4214
4655.00,1.4104
4654.00,1.3988
4653.00,1.3868
4652.00,1.3740
4651.00,1.3606
4650.00,1.3466
4649.00,1.3320
4648.00,1.3169
4647.00,1.3014
4646.00,1.2854
4645.00,1.2688
4644.00,1.2517
4643.00,1.2339
4642.00,1.2155
4641.00,1.1967
4640.00,1.1774
4639.00,1.1577
4638.00,1.1378
4637.00,1.1175
4636.00,1.0971
4635.00,1.0766
4634.00,1.0561
4633.00,1.0356
4632.00,1.0151
4631.00,0.9949
4630.00,0.9749
4629.00,0.9554
4628.00,0.9365
4627.00,0.9182
4626.00,0.9005
4625.00,0.8837
4624.00,0.8678
4623.00,0.8528
4622.00,0.8391
4621.00,0.8265
4620.00,0.8152
4619.00,0.8054
4618.00,0.7969
4617.00,0.7900
4616.00,0.7845
4615.00,0.7805
4614.00,0.7780
4613.00,0.7771
4612.00,0.7777
4611.00,0.7798
4610.00,0.7834
4609.00,0.7884
4608.00,0.7948
4607.00,0.8024
4606.00,0.8112
4605.00,0.8212
4604.00,0.8323
4603.00,0.8443
4602.00,0.8572
4601.00,0.8709
4600.00,0.8853
4599.00,0.9003
4598.00,0.9159
4597.00,0.9321
4596.00,0.9486
4595.00,0.9655
4594.00,0.9827
4593.00,1.0001
4592.00,1.0178
4591.00,1.0356
4590.00,1.0535
4589.00,1.0714
4588.00,1.0894
4587.00,1.1074
4586.00,1.1255
4585.00,1.1435
4584.00,1.1613
4583.00,1.1788
4582.00,1.1960
4581.00,1.2130
4580.00,1.2297
4579.00,1.2462
4578.00,1.2624
4577.00,1.2783
4576.00,1.2939
4575.00,1.3091
4574.00,1.3240
4573.00,1.3386
4572.00,1.3528
4571.00,1.3668
4570.00,1.3804
4569.00,1.3938
4568.00,1.4067
4567.00,1.4192
4566.00,1.4310
4565.00,1.4421
4564.00,1.4526
4563.00,1.4626
4562.00,1.4722
4561.00,1.4816
4560.00,1.4906
4559.00,1.4993
4558.00,1.5075
4557.00,1.5151
4556.00,1.5221
4555.00,1.5285
4554.00,1.5343
4553.00,1.5397
4552.00,1.5448
4551.00,1.5495
4550.00,1.5534
4549.00,1.5567
4548.00,1.5593
4547.00,1.5616
4546.00,1.5639
4545.00,1.5658
4544.00,1.5671
4543.00,1.5677
4542.00,1.5675
4541.00,1.5668
4540.00,1.5656
4539.00,1.5641
4538.00,1.5623
4537.00,1.5602
4536.00,1.5577
4535.00,1.5546
4534.00,1.5508
4533.00,1.5463
4532.00,1.5411
4531.00,1.5354
4530.00,1.5293
4529.00,1.5228
4528.00,1.5159
4527.00,1.5086
4526.00,1.5009
4525.00,1.4926
4524.00,1.4836
4523.00,1.4739
4522.00,1.4636
4521.00,1.4527
4520.00,1.4415
4519.00,1.4297
4518.00,1.4173
4517.00,1.4044
4516.00,1.3908
4515.00,1.3766
4514.00,1.3617
4513.00,1.3461
4512.00,1.3300
4511.00,1.3132
4510.00,1.2957
4509.00,1.2776
4508.00,1.2588
4507.00,1.2395
4506.00,1.2198
4505.00,1.1996
4504.00,1.1789
4503.00,1.1579
4502.00,1.1366
4501.00,1.1152
4500.00,1.0935
4499.00,1.0718
4498.00,1.0501
4497.00,1.0286
4496.00,1.0073
4495.00,0.9863
4494.00,0.9657
4493.00,0.9457
4492.00,0.9263
4491.00,0.9076
4490.00,0.8899
4489.00,0.8733
4488.00,0.8578
4487.00,0.8436
4486.00,0.8307
4485.00,0.8193
4484.00,0.8093
4483.00,0.8008
4482.00,0.7940
4481.00,0.7889
4480.00,0.7854
4479.00,0.7837
4478.00,0.7836
4477.00,0.7852
4476.00,0.7885
4475.00,0.7933
4474.00,0.7998
4473.00,0.8077
4472.00,0.8169
4471.00,0.8275
4470.00,0.8392
4469.00,0.8521
4468.00,0.8660
4467.00,0.8808
4466.00,0.8964
4465.00,0.9126
4464.00,0.9294
4463.00,0.9467
4462.00,0.9645
4461.00,0.9826
4460.00,1.0010
4459.00,1.0198
4458.00,1.0389
4457.00,1.0581
4456.00,1.0775
4455.00,1.0968
4454.00,1.1161
4453.00,1.1352
4452.00,1.1541
4451.00,1.1728
4450.00,1.1913
4449.00,1.2097
4448.00,1.2279
4447.00,1.2459
4446.00,1.2637
4445.00,1.2811
4444.00,1.2982
4443.00,1.3152
4442.00,1.3319
4441.00,1.3483
4440.00,1.3641
4439.00,1.3793
4438.00,1.3940
4437.00,1.4083
4436.00,1.4224
4435.00,1.4360
4434.00,1.4492
4433.00,1.4618
4432.00,1.4739
4431.00,1.4855
4430.00,1.4966
4429.00,1.5071
4428.00,1.5173
4427.00,1.5270
4426.00,1.5364
4425.00,1.5453
4424.00,1.5537
4423.00,1.5613
4422.00,1.5682
4421.00,1.5744
4420.00,1.5801
4419.00,1.5853
4418.00,1.5900
4417.00,1.5942
4416.00,1.5977
4415.00,1.6008
4414.00,1.6036
4413.00,1.6060
4412.00,1.6080
4411.00,1.6094
4410.00,1.6102
4409.00,1.6105
4408.00,1.6105
4407.00,1.6101
4406.00,1.6092
4405.00,1.6078
4404.00,1.6058
4403.00,1.6031
4402.00,1.6000
4401.00,1.5964
4400.00,1.5924
4399.00,1.5880
4398.00,1.5833
4397.00,1.5781
4396.00,1.5725
4395.00,1.5663
4394.00,1.5595
4393.00,1.5520
4392.00,1.5441
4391.00,1.5359
4390.00,1.5274
4389.00,1.5185
4388.00,1.5090
4387.00,1.4988
4386.00,1.4879
4385.00,1.4765
4384.00,1.4647
4383.00,1.4524
4382.00,1.4397
4381.00,1.4263
4380.00,1.4124
4379.00,1.3981
4378.00,1.3834
4377.00,1.3684
4376.00,1.3529
4375.00,1.3369
4374.00,1.3203
4373.00,1.3035
4372.00,1.2863
4371.00,1.2689
4370.00,1.2511
4369.00,1.2328
4368.00,1.2142
4367.00,1.1952
4366.00,1.1760
4365.00,1.1567
4364.00,1.1373
4363.00,1.1179
4362.00,1.0984
4361.00,1.0790
4360.00,1.0596
4359.00,1.0406
4358.00,1.0220
4357.00,1.0039
4356.00,0.9863
4355.00,0.9694
4354.00,0.9533
4353.00,0.9381
4352.00,0.9240
4351.00,0.9112
4350.00,0.8996
4349.00,0.8892
4348.00,0.8803
4347.00,0.8727
4346.00,0.8666
4345.00,0.8619
4344.00,0.8586
4343.00,0.8567
4342.00,0.8564
4341.00,0.8575
4340.00,0.8601
4339.00,0.8642
4338.00,0.8698
4337.00,0.8768
4336.00,0.8853
4335.00,0.8951
4334.00,0.9062
4333.00,0.9184
4332.00,0.9317
4331.00,0.9460
4330.00,0.9613
4329.00,0.9773
4328.00,0.9940
4327.00,1.0114
4326.00,1.0293
4325.00,1.0476
4324.00,1.0663
4323.00,1.0852
4322.00,1.1042
4321.00,1.1233
4320.00,1.1427
4319.00,1.1620
4318.00,1.1813
4317.00,1.2004
4316.00,1.2193
4315.00,1.2380
4314.00,1.2565
4313.00,1.2750
4312.00,1.2932
4311.00,1.3111
4310.00,1.3287
4309.00,1.3458
4308.00,1.3625
4307.00,1.3789
4306.00,1.3949
4305.00,1.4108
4304.00,1.4265
4303.00,1.4416
4302.00,1.4561
4301.00,1.4700
4300.00,1.4834
4299.00,1.4964
4298.00,1.5091
4297.00,1.5215
4296.00,1.5334
4295.00,1.5447
4294.00,1.5553
4293.00,1.5654
4292.00,1.5749
4291.00,1.5840
4290.00,1.5927
4289.00,1.6009
4288.00,1.6086
4287.00,1.6159
4286.00,1.6229
4285.00,1.6296
4284.00,1.6359
4283.00,1.6414
4282.00,1.6460
4281.00,1.6497
4280.00,1.6528
4279.00,1.6556
4278.00,1.6582
4277.00,1.6604
4276.00,1.6621
4275.00,1.6633
4274.00,1.6640
4273.00,1.6642
4272.00,1.6639
4271.00,1.6631
4270.00,1.6621
4269.00,1.6606
4268.00,1.6588
4267.00,1.6563
4266.00,1.6530
4265.00,1.6491
4264.00,1.6449
4263.00,1.6405
4262.00,1.6359
4261.00,1.6309
4260.00,1.6251
4259.00,1.6186
4258.00,1.6113
4257.00,1.6036
4256.00,1.5955
4255.00,1.5871
4254.00,1.5781
4253.00,1.5685
4252.00,1.5583
4251.00,1.5475
4250.00,1.5361
4249.00,1.5241
4248.00,1.5114
4247.00,1.4980
4246.00,1.4840
4245.00,1.4696
4244.00,1.4546
4243.00,1.4390
4242.00,1.4226
4241.00,1.4054
4240.00,1.3875
4239.00,1.3690
4238.00,1.3499
4237.00,1.3302
4236.00,1.3101
4235.00,1.2895
4234.00,1.2684
4233.00,1.2469
4232.00,1.2248
4231.00,1.2024
4230.00,1.1799
4229.00,1.1573
4228.00,1.1349
4227.00,1.1127
4226.00,1.0908
4225.00,1.0692
4224.00,1.0481
4223.00,1.0275
4222.00,1.0076
4221.00,0.9884
4220.00,0.9702
4219.00,0.9530
4218.00,0.9368
4217.00,0.9218
4216.00,0.9081
4215.00,0.8957
4214.00,0.8849
4213.00,0.8756
4212.00,0.8680
4211.00,0.8620
4210.00,0.8577
4209.00,0.8552
4208.00,0.8545
4207.00,0.8556
4206.00,0.8585
4205.00,0.8630
4204.00,0.8692
4203.00,0.8770
4202.00,0.8863
4201.00,0.8971
4200.00,0.9092
4199.00,0.9226
4198.00,0.9371
4197.00,0.9526
4196.00,0.9690
4195.00,0.9860
4194.00,1.0038
4193.00,1.0222
4192.00,1.0410
4191.00,1.0603
4190.00,1.0799
4189.00,1.0998
4188.00,1.1198
4187.00,1.1400
4186.00,1.1602
4185.00,1.1802
4184.00,1.2001
4183.00,1.2200
4182.00,1.2396
4181.00,1.2592
4180.00,1.2786
4179.00,1.2976
4178.00,1.3165
4177.00,1.3350
4176.00,1.3533
4175.00,1.3713
4174.00,1.3889
4173.00,1.4061
4172.00,1.4228
4171.00,1.4392
4170.00,1.4553
4169.00,1.4712
4168.00,1.4867
4167.00,1.5019
4166.00,1.5165
4165.00,1.5306
4164.00,1.5439
4163.00,1.5565
4162.00,1.5683
4161.00,1.5796
4160.00,1.5906
4159.00,1.6012
4158.00,1.6114
4157.00,1.6210
4156.00,1.6301
4155.00,1.6387
4154.00,1.6470
4153.00,1.6550
4152.00,1.6623
4151.00,1.6689
4150.00,1.6747
4149.00,1.6798
4148.00,1.6843
4147.00,1.6882
4146.00,1.6917
4145.00,1.6951
4144.00,1.6982
4143.00,1.7009
4142.00,1.7030
4141.00,1.7044
4140.00,1.7053
4139.00,1.7058
4138.00,1.7059
4137.00,1.7054
4136.00,1.7044
4135.00,1.7029
4134.00,1.7010
4133.00,1.6987
4132.00,1.6959
4131.00,1.6926
4130.00,1.6887
4129.00,1.6844
4128.00,1.6796
4127.00,1.6743
4126.00,1.6685
4125.00,1.6621
4124.00,1.6552
4123.00,1.6478
4122.00,1.6399
4121.00,1.6314
4120.00,1.6224
4119.00,1.6129
4118.00,1.6027
4117.00,1.5918
4116.00,1.5803
4115.00,1.5683
4114.00,1.5559
4113.00,1.5428
4112.00,1.5291
4111.00,1.5146
4110.00,1.4995
4109.00,1.4837
4108.00,1.4674
4107.00,1.4504
4106.00,1.4328
4105.00,1.4144
4104.00,1.3952
4103.00,1.3754
4102.00,1.3549
4101.00,1.3338
4100.00,1.3122
4099.00,1.2901
4098.00,1.2676
4097.00,1.2447
4096.00,1.2214
4095.00,1.1979
4094.00,1.1741
4093.00,1.1503
4092.00,1.1267
4091.00,1.1032
4090.00,1.0802
4089.00,1.0575
4088.00,1.0354
4087.00,1.0140
4086.00,0.9934
4085.00,0.9737
4084.00,0.9551
4083.00,0.9378
4082.00,0.9219
4081.00,0.9073
4080.00,0.8944
4079.00,0.8831
4078.00,0.8736
4077.00,0.8660
4076.00,0.8603
4075.00,0.8565
4074.00,0.8548
4073.00,0.8550
4072.00,0.8571
4071.00,0.8612
4070.00,0.8671
4069.00,0.8749
4068.00,0.8845
4067.00,0.8957
4066.00,0.9084
4065.00,0.9225
4064.00,0.9378
4063.00,0.9542
4062.00,0.9717
4061.00,0.9901
4060.00,1.0092
4059.00,1.0290
4058.00,1.0492
4057.00,1.0700
4056.00,1.0910
4055.00,1.1123
4054.00,1.1337
4053.00,1.1553
4052.00,1.1770
4051.00,1.1988
4050.00,1.2205
4049.00,1.2419
4048.00,1.2632
4047.00,1.2844
4046.00,1.3052
4045.00,1.3257
4044.00,1.3458
4043.00,1.3656
4042.00,1.3851
4041.00,1.4042
4040.00,1.4229
4039.00,1.4411
4038.00,1.4589
4037.00,1.4764
4036.00,1.4935
4035.00,1.5101
4034.00,1.5262
4033.00,1.5418
4032.00,1.5569
4031.00,1.5715
4030.00,1.5856
4029.00,1.5990
4028.00,1.6119
4027.00,1.6244
4026.00,1.6365
4025.00,1.6481
4024.00,1.6590
4023.00,1.6692
4022.00,1.6787
4021.00,1.6878
4020.00,1.6963
4019.00,1.7042
4018.00,1.7115
4017.00,1.7182
4016.00,1.7243
4015.00,1.7299
4014.00,1.7350
4013.00,1.7395
4012.00,1.7437
4011.00,1.7474
4010.00,1.7507
4009.00,1.7534
4008.00,1.7555
4007.00,1.7570
4006.00,1.7578
4005.00,1.7581
4004.00,1.7578
4003.00,1.7573
4002.00,1.7567
4001.00,1.7561
4000.00,1.7550
3999.00,1.7534
3998.00,1.7511
3997.00,1.7480
3996.00,1.7442
3995.00,1.7399
3994.00,1.7352
3993.00,1.7300
3992.00,1.7242
3991.00,1.7178
3990.00,1.7109
3989.00,1.7037
3988.00,1.6961
3987.00,1.6880
3986.00,1.6791
3985.00,1.6694
3984.00,1.6592
3983.00,1.6484
3982.00,1.6371
3981.00,1.6253
3980.00,1.6128
3979.00,1.5995
3978.00,1.5856
3977.00,1.5710
3976.00,1.5559
3975.00,1.5402
3974.00,1.5237
3973.00,1.5064
3972.00,1.4882
3971.00,1.4693
3970.00,1.4497
3969.00,1.4296
3968.00,1.4089
3967.00,1.3876
3966.00,1.3656
3965.00,1.3427
3964.00,1.3191
3963.00,1.2950
3962.00,1.2705
3961.00,1.2458
3960.00,1.2209
3959.00,1.1961
3958.00,1.1714
3957.00,1.1469
3956.00,1.1228
3955.00,1.0992
3954.00,1.0762
3953.00,1.0540
3952.00,1.0325
3951.00,1.0119
3950.00,0.9922
3949.00,0.9734
3948.00,0.9559
3947.00,0.9397
3946.00,0.9252
3945.00,0.9126
3944.00,0.9017
3943.00,0.8927
3942.00,0.8856
3941.00,0.8805
3940.00,0.8776
3939.00,0.8770
3938.00,0.8785
3937.00,0.8822
3936.00,0.8877
3935.00,0.8952
3934.00,0.9047
3933.00,0.9159
3932.00,0.9287
3931.00,0.9429
3930.00,0.9583
3929.00,0.9748
3928.00,0.9924
3927.00,1.0108
3926.00,1.0301
3925.00,1.0504
3924.00,1.0713
3923.00,1.0927
3922.00,1.1144
3921.00,1.1362
3920.00,1.1582
3919.00,1.1804
3918.00,1.2030
3917.00,1.2259
3916.00,1.2491
3915.00,1.2723
3914.00,1.2950
3913.00,1.3171
3912.00,1.3388
3911.00,1.3602
3910.00,1.3814
3909.00,1.4023
3908.00,1.4224
3907.00,1.4418
3906.00,1.4605
3905.00,1.4791
3904.00,1.4980
3903.00,1.5172
3902.00,1.5363
3901.00,1.5549
3900.00,1.5728
3899.00,1.5902
3898.00,1.6070
3897.00,1.6232
3896.00,1.6383
3895.00,1.6521
3894.00,1.6645
3893.00,1.6760
3892.00,1.6872
3891.00,1.6986
3890.00,1.7102
3889.00,1.7214
3888.00,1.7317
3887.00,1.7410
3886.00,1.7494
3885.00,1.7572
3884.00,1.7643
3883.00,1.7706
3882.00,1.7762
3881.00,1.7813
3880.00,1.7862
3879.00,1.7909
3878.00,1.7952
3877.00,1.7988
3876.00,1.8016
3875.00,1.8036
3874.00,1.8051
3873.00,1.8062
3872.00,1.8071
3871.00,1.8075
3870.00,1.8072
3869.00,1.8062
3868.00,1.8048
3867.00,1.8030
3866.00,1.8007
3865.00,1.7977
3864.00,1.7939
3863.00,1.7896
3862.00,1.7849
3861.00,1.7800
3860.00,1.7746
3859.00,1.7688
3858.00,1.7625
3857.00,1.7555
3856.00,1.7478
3855.00,1.7392
3854.00,1.7295
3853.00,1.7191
3852.00,1.7085
3851.00,1.6981
3850.00,1.6874
3849.00,1.6758
3848.00,1.6634
3847.00,1.6507
3846.00,1.6376
3845.00,1.6241
3844.00,1.6096
3843.00,1.5943
3842.00,1.5784
3841.00,1.5623
3840.00,1.5456
3839.00,1.5278
3838.00,1.5085
3837.00,1.4880
3836.00,1.4667
3835.00,1.4449
3834.00,1.4221
3833.00,1.3981
3832.00,1.3729
3831.00,1.3471
3830.00,1.3210
3829.00,1.2947
3828.00,1.2678
3827.00,1.2400
3826.00,1.2120
3825.00,1.1845
3824.00,1.1577
3823.00,1.1309
3822.00,1.1029
3821.00,1.0741
3820.00,1.0462
3819.00,1.0209
3818.00,0.9979
3817.00,0.9759
3816.00,0.9540
3815.00,0.9331
3814.00,0.9146
3813.00,0.8991
3812.00,0.8863
3811.00,0.8759
3810.00,0.8682
3809.00,0.8635
3808.00,0.8616
3807.00,0.8622
3806.00,0.8648
3805.00,0.8693
3804.00,0.8762
3803.00,0.8860
3802.00,0.8990
3801.00,0.9146
3800.00,0.9315
3799.00,0.9488
3798.00,0.9666
3797.00,0.9857
3796.00,1.0065
3795.00,1.0286
3794.00,1.0515
3793.00,1.0746
3792.00,1.0982
3791.00,1.1223
3790.00,1.1468
3789.00,1.1716
3788.00,1.1965
3787.00,1.2214
3786.00,1.2463
3785.00,1.2714
3784.00,1.2963
3783.00,1.3207
3782.00,1.3444
3781.00,1.3676
3780.00,1.3909
3779.00,1.4146
3778.00,1.4384
3777.00,1.4617
3776.00,1.4842
3775.00,1.5056
3774.00,1.5260
3773.00,1.5453
3772.00,1.5640
3771.00,1.5825
3770.00,1.6013
3769.00,1.6204
3768.00,1.6390
3767.00,1.6563
3766.00,1.6725
3765.00,1.6880
3764.00,1.7032
3763.00,1.7179
3762.00,1.7318
3761.00,1.7447
3760.00,1.7566
3759.00,1.7679
3758.00,1.7788
3757.00,1.7894
3756.00,1.7993
3755.00,1.8082
3754.00,1.8162
3753.00,1.8237
3752.00,1.8313
3751.00,1.8391
3750.00,1.8471
3749.00,1.8547
3748.00,1.8610
3747.00,1.8656
3746.00,1.8691
3745.00,1.8723
3744.00,1.8757
3743.00,1.8794
3742.00,1.8829
3741.00,1.8858
3740.00,1.8880
3739.00,1.8894
3738.00,1.8907
3737.00,1.8921
3736.00,1.8934
3735.00,1.8942
3734.00,1.8945
3733.00,1.8942
3732.00,1.8937
3731.00,1.8928
3730.00,1.8913
3729.00,1.8887
3728.00,1.8844
3727.00,1.8780
3726.00,1.8696
3725.00,1.8598
3724.00,1.8492
3723.00,1.8376
3722.00,1.8251
3721.00,1.8119
3720.00,1.7978
3719.00,1.7824
3718.00,1.7661
3717.00,1.7495
3716.00,1.7332
3715.00,1.7171
3714.00,1.7010
3713.00,1.6842
3712.00,1.6668
3711.00,1.6475
3710.00,1.6234
3709.00,1.5924
3708.00,1.5571
3707.00,1.5257
3706.00,1.5052
3705.00,1.4952
3704.00,1.4875
3703.00,1.4736
3702.00,1.4516
3701.00,1.4246
3700.00,1.3964
3699.00,1.3680
3698.00,1.3398
3697.00,1.3117
3696.00,1.2838
3695.00,1.2567
3694.00,1.2307
3693.00,1.2058
3692.00,1.1820
3691.00,1.1596
3690.00,1.1384
3689.00,1.1184
3688.00,1.0995
3687.00,1.0827
3686.00,1.0683
3685.00,1.0564
3684.00,1.0466
3683.00,1.0390
3682.00,1.0340
3681.00,1.0313
3680.00,1.0312
3679.00,1.0334
3678.00,1.0382
3677.00,1.0456
3676.00,1.0559
3675.00,1.0683
3674.00,1.0818
3673.00,1.0958
3672.00,1.1112
3671.00,1.1292
3670.00,1.1500
3669.00,1.1726
3668.00,1.1953
3667.00,1.2177
3666.00,1.2398
3665.00,1.2623
3664.00,1.2854
3663.00,1.3092
3662.00,1.3334
3661.00,1.3578
3660.00,1.3819
3659.00,1.4057
3658.00,1.4294
3657.00,1.4533
3656.00,1.4779
3655.00,1.5025
3654.00,1.5256
3653.00,1.5466
3652.00,1.5661
3651.00,1.5855
3650.00,1.6059
3649.00,1.6279
3648.00,1.6508
3647.00,1.6735
3646.00,1.6944
3645.00,1.7128
3644.00,1.7294
3643.00,1.7453
3642.00,1.7610
3641.00,1.7764
3640.00,1.7915
3639.00,1.8062
3638.00,1.8206
3637.00,1.8346
3636.00,1.8484
3635.00,1.8616
3634.00,1.8741
3633.00,1.8858
3632.00,1.8969
3631.00,1.9076
3630.00,1.9182
3629.00,1.9289
3628.00,1.9395
3627.00,1.9495
3626.00,1.9586
3625.00,1.9666
3624.00,1.9734
3623.00,1.9789
3622.00,1.9834
3621.00,1.9867
3620.00,1.9894
3619.00,1.9917
3618.00,1.9946
3617.00,1.9971
3616.00,2.0012
3615.00,2.0016
3614.00,2.0015
3613.00,2.0052
3612.00,2.0069
3611.00,2.0091
3610.00,2.0105
3609.00,2.0117
3608.00,2.0125
3607.00,2.0133
3606.00,2.0136
3605.00,2.0132
3604.00,2.0122
3603.00,2.0107
3602.00,2.0088
3601.00,2.0066
3600.00,2.0040
3599.00,2.0016
3598.00,1.9981
3597.00,1.9953
3596.00,1.9899
3595.00,1.9905
3594.00,1.9919
3593.00,1.9866
3592.00,1.9835
3591.00,1.9792
3590.00,1.9751
3589.00,1.9697
3588.00,1.9634
3587.00,1.9566
3586.00,1.9495
3585.00,1.9423
3584.00,1.9346
3583.00,1.9262
3582.00,1.9172
3581.00,1.9075
3580.00,1.8976
3579.00,1.8872
3578.00,1.8764
3577.00,1.8650
3576.00,1.8530
3575.00,1.8406
3574.00,1.8281
3573.00,1.8156
3572.00,1.8034
3571.00,1.7914
3570.00,1.7795
3569.00,1.7672
3568.00,1.7543
3567.00,1.7409
3566.00,1.7273
3565.00,1.7139
3564.00,1.7009
3563.00,1.6884
3562.00,1.6763
3561.00,1.6646
3560.00,1.6535
3559.00,1.6426
3558.00,1.6319
3557.00,1.6215
3556.00,1.6116
3555.00,1.6023
3554.00,1.5936
3553.00,1.5852
3552.00,1.5775
3551.00,1.5706
3550.00,1.5646
3549.00,1.5593
3548.00,1.5549
3547.00,1.5514
3546.00,1.5488
3545.00,1.5472
3544.00,1.5464
3543.00,1.5465
3542.00,1.5476
3541.00,1.5497
3540.00,1.5528
3539.00,1.5568
3538.00,1.5615
3537.00,1.5667
3536.00,1.5723
3535.00,1.5784
3534.00,1.5853
3533.00,1.5931
3532.00,1.6016
3531.00,1.6105
3530.00,1.6196
3529.00,1.6291
3528.00,1.6390
3527.00,1.6493
3526.00,1.6600
3525.00,1.6710
3524.00,1.6821
3523.00,1.6934
3522.00,1.7046
3521.00,1.7158
3520.00,1.7271
3519.00,1.7386
3518.00,1.7501
3517.00,1.7619
3516.00,1.7741
3515.00,1.7866
3514.00,1.7987
3513.00,1.8102
3512.00,1.8213
3511.00,1.8323
3510.00,1.8433
3509.00,1.8542
3508.00,1.8649
3507.00,1.8755
3506.00,1.8862
3505.00,1.8968
3504.00,1.9076
3503.00,1.9182
3502.00,1.9286
3501.00,1.9388
3500.00,1.9487
3499.00,1.9583
3498.00,1.9677
3497.00,1.9770
3496.00,1.9861
3495.00,1.9948
3494.00,2.0030
3493.00,2.0108
3492.00,2.0184
3491.00,2.0259
3490.00,2.0332
3489.00,2.0404
3488.00,2.0476
3487.00,2.0544
3486.00,2.0605
3485.00,2.0660
3484.00,2.0714
3483.00,2.0769
3482.00,2.0822
3481.00,2.0870
3480.00,2.0910
3479.00,2.0947
3478.00,2.0985
3477.00,2.1025
3476.00,2.1065
3475.00,2.1100
3474.00,2.1128
3473.00,2.1151
3472.00,2.1168
3471.00,2.1181
3470.00,2.1189
3469.00,2.1195
3468.00,2.1202
3467.00,2.1207
3466.00,2.1206
3465.00,2.1198
3464.00,2.1189
3463.00,2.1177
3462.00,2.1160
3461.00,2.1134
3460.00,2.1100
3459.00,2.1062
3458.00,2.1023
3457.00,2.0987
3456.00,2.0952
3455.00,2.0915
3454.00,2.0872
3453.00,2.0824
3452.00,2.0774
3451.00,2.0724
3450.00,2.0670
3449.00,2.0608
3448.00,2.0537
3447.00,2.0457
3446.00,2.0372
3445.00,2.0283
3444.00,2.0190
3443.00,2.0094
3442.00,1.9994
3441.00,1.9892
3440.00,1.9787
3439.00,1.9679
3438.00,1.9568
3437.00,1.9455
3436.00,1.9341
3435.00,1.9225
3434.00,1.9104
3433.00,1.8977
3432.00,1.8848
3431.00,1.8719
3430.00,1.8590
3429.00,1.8461
3428.00,1.8328
3427.00,1.8192
3426.00,1.8053
3425.00,1.7917
3424.00,1.7786
3423.00,1.7660
3422.00,1.7539
3421.00,1.7423
3420.00,1.7313
3419.00,1.7208
3418.00,1.7109
3417.00,1.7017
3416.00,1.6933
3415.00,1.6858
3414.00,1.6789
3413.00,1.6725
3412.00,1.6665
3411.00,1.6610
3410.00,1.6559
3409.00,1.6511
3408.00,1.6463
3407.00,1.6413
3406.00,1.6362
3405.00,1.6309
3404.00,1.6256
3403.00,1.6201
3402.00,1.6142
3401.00,1.6080
3400.00,1.6017
3399.00,1.5957
3398.00,1.5900
3397.00,1.5849
3396.00,1.5806
3395.00,1.5772
3394.00,1.5747
3393.00,1.5732
3392.00,1.5728
3391.00,1.5737
3390.00,1.5760
3389.00,1.5799
3388.00,1.5850
3387.00,1.5912
3386.00,1.5983
3385.00,1.6062
3384.00,1.6151
3383.00,1.6250
3382.00,1.6356
3381.00,1.6469
3380.00,1.6588
3379.00,1.6714
3378.00,1.6847
3377.00,1.6987
3376.00,1.7130
3375.00,1.7277
3374.00,1.7425
3373.00,1.7576
3372.00,1.7729
3371.00,1.7882
3370.00,1.8033
3369.00,1.8183
3368.00,1.8333
3367.00,1.8484
3366.00,1.8634
3365.00,1.8782
3364.00,1.8926
3363.00,1.9068
3362.00,1.9205
3361.00,1.9336
3360.00,1.9460
3359.00,1.9582
3358.00,1.9703
3357.00,1.9823
3356.00,1.9938
3355.00,2.0047
3354.00,2.0150
3353.00,2.0251
3352.00,2.0351
3351.00,2.0447
3350.00,2.0534
3349.00,2.0615
3348.00,2.0692
3347.00,2.0766
3346.00,2.0835
3345.00,2.0897
3344.00,2.0954
3343.00,2.1008
3342.00,2.1061
3341.00,2.1111
3340.00,2.1154
3339.00,2.1190
3338.00,2.1217
3337.00,2.1235
3336.00,2.1250
3335.00,2.1266
3334.00,2.1285
3333.00,2.1305
3332.00,2.1319
3331.00,2.1323
3330.00,2.1318
3329.00,2.1308
3328.00,2.1294
3327.00,2.1273
3326.00,2.1246
3325.00,2.1215
3324.00,2.1182
3323.00,2.1148
3322.00,2.1110
3321.00,2.1070
3320.00,2.1027
3319.00,2.0978
3318.00,2.0920
3317.00,2.0852
3316.00,2.0781
3315.00,2.0710
3314.00,2.0639
3313.00,2.0565
3312.00,2.0485
3311.00,2.0398
3310.00,2.0301
3309.00,2.0197
3308.00,2.0089
3307.00,1.9977
3306.00,1.9862
3305.00,1.9743
3304.00,1.9621
3303.00,1.9494
3302.00,1.9361
3301.00,1.9222
3300.00,1.9076
3299.00,1.8922
3298.00,1.8761
3297.00,1.8596
3296.00,1.8432
3295.00,1.8267
3294.00,1.8098
3293.00,1.7923
3292.00,1.7742
3291.00,1.7559
3290.00,1.7377
3289.00,1.7193
3288.00,1.7008
3287.00,1.6821
3286.00,1.6635
3285.00,1.6451
3284.00,1.6274
3283.00,1.6104
3282.00,1.5940
3281.00,1.5782
3280.00,1.5630
3279.00,1.5487
3278.00,1.5352
3277.00,1.5228
3276.00,1.5116
3275.00,1.5016
3274.00,1.4930
3273.00,1.4860
3272.00,1.4804
3271.00,1.4761
3270.00,1.4733
3269.00,1.4720
3268.00,1.4725
3267.00,1.4746
3266.00,1.4783
3265.00,1.4835
3264.00,1.4899
3263.00,1.4975
3262.00,1.5062
3261.00,1.5160
3260.00,1.5269
3259.00,1.5389
3258.00,1.5519
3257.00,1.5657
3256.00,1.5804
3255.00,1.5958
3254.00,1.6119
3253.00,1.6285
3252.00,1.6452
3251.00,1.6621
3250.00,1.6792
3249.00,1.6964
3248.00,1.7139
3247.00,1.7315
3246.00,1.7492
3245.00,1.7668
3244.00,1.7844
3243.00,1.8018
3242.00,1.8190
3241.00,1.8360
3240.00,1.8532
3239.00,1.8702
3238.00,1.8868
3237.00,1.9027
3236.00,1.9181
3235.00,1.9333
3234.00,1.9484
3233.00,1.9633
3232.00,1.9776
3231.00,1.9913
3230.00,2.0042
3229.00,2.0167
3228.00,2.0291
3227.00,2.0413
3226.00,2.0531
3225.00,2.0643
3224.00,2.0748
3223.00,2.0846
3222.00,2.0936
3221.00,2.1024
3220.00,2.1112
3219.00,2.1203
3218.00,2.1294
3217.00,2.1378
3216.00,2.1450
3215.00,2.1508
3214.00,2.1556
3213.00,2.1602
3212.00,2.1651
3211.00,2.1700
3210.00,2.1746
3209.00,2.1788
3208.00,2.1825
3207.00,2.1855
3206.00,2.1877
3205.00,2.1894
3204.00,2.1910
3203.00,2.1923
3202.00,2.1929
3201.00,2.1926
3200.00,2.1919
3199.00,2.1910
3198.00,2.1900
3197.00,2.1890
3196.00,2.1883
3195.00,2.1878
3194.00,2.1870
3193.00,2.1854
3192.00,2.1825
3191.00,2.1785
3190.00,2.1738
3189.00,2.1690
3188.00,2.1646
3187.00,2.1603
3186.00,2.1554
3185.00,2.1498
3184.00,2.1434
3183.00,2.1367
3182.00,2.1299
3181.00,2.1224
3180.00,2.1139
3179.00,2.1043
3178.00,2.0938
3177.00,2.0831
3176.00,2.0727
3175.00,2.0623
3174.00,2.0515
3173.00,2.0400
3172.00,2.0280
3171.00,2.0153
3170.00,2.0021
3169.00,1.9884
3168.00,1.9743
3167.00,1.9597
3166.00,1.9442
3165.00,1.9280
3164.00,1.9113
3163.00,1.8942
3162.00,1.8768
3161.00,1.8592
3160.00,1.8414
3159.00,1.8236
3158.00,1.8058
3157.00,1.7882
3156.00,1.7704
3155.00,1.7524
3154.00,1.7341
3153.00,1.7159
3152.00,1.6980
3151.00,1.6807
3150.00,1.6640
3149.00,1.6479
3148.00,1.6328
3147.00,1.6187
3146.00,1.6057
3145.00,1.5938
3144.00,1.5828
3143.00,1.5730
3142.00,1.5646
3141.00,1.5576
3140.00,1.5522
3139.00,1.5486
3138.00,1.5467
3137.00,1.5464
3136.00,1.5479
3135.00,1.5511
3134.00,1.5561
3133.00,1.5626
3132.00,1.5707
3131.00,1.5800
3130.00,1.5907
3129.00,1.6027
3128.00,1.6158
3127.00,1.6300
3126.00,1.6450
3125.00,1.6608
3124.00,1.6775
3123.00,1.6947
3122.00,1.7121
3121.00,1.7298
3120.00,1.7478
3119.00,1.7663
3118.00,1.7851
3117.00,1.8040
3116.00,1.8229
3115.00,1.8419
3114.00,1.8609
3113.00,1.8800
3112.00,1.8988
3111.00,1.9170
3110.00,1.9347
3109.00,1.9523
3108.00,1.9699
3107.00,1.9872
3106.00,2.0040
3105.00,2.0201
3104.00,2.0357
3103.00,2.0508
3102.00,2.0656
3101.00,2.0798
3100.00,2.0935
3099.00,2.1068
3098.00,2.1198
3097.00,2.1326
3096.00,2.1449
3095.00,2.1565
3094.00,2.1673
3093.00,2.1773
3092.00,2.1865
3091.00,2.1949
3090.00,2.2029
3089.00,2.2107
3088.00,2.2184
3087.00,2.2255
3086.00,2.2319
3085.00,2.2377
3084.00,2.2433
3083.00,2.2486
3082.00,2.2533
3081.00,2.2573
3080.00,2.2604
3079.00,2.2629
3078.00,2.2648
3077.00,2.2664
3076.00,2.2677
3075.00,2.2683
3074.00,2.2684
3073.00,2.2679
3072.00,2.2666
3071.00,2.2641
3070.00,2.2606
3069.00,2.2571
3068.00,2.2540
3067.00,2.2510
3066.00,2.2474
3065.00,2.2430
3064.00,2.2378
3063.00,2.2316
3062.00,2.2241
3061.00,2.2158
3060.00,2.2076
3059.00,2.1997
3058.00,2.1914
3057.00,2.1818
3056.00,2.1709
3055.00,2.1588
3054.00,2.1459
3053.00,2.1324
3052.00,2.1187
3051.00,2.1050
3050.00,2.0909
3049.00,2.0762
3048.00,2.0603
3047.00,2.0431
3046.00,2.0247
3045.00,2.0053
3044.00,1.9852
3043.00,1.9643
3042.00,1.9430
3041.00,1.9213
3040.00,1.8996
3039.00,1.8779
3038.00,1.8561
3037.00,1.8342
3036.00,1.8124
3035.00,1.7913
3034.00,1.7710
3033.00,1.7519
3032.00,1.7340
3031.00,1.7176
3030.00,1.7027
3029.00,1.6896
3028.00,1.6787
3027.00,1.6703
3026.00,1.6645
3025.00,1.6616
3024.00,1.6616
3023.00,1.6643
3022.00,1.6696
3021.00,1.6774
3020.00,1.6878
3019.00,1.7009
3018.00,1.7164
3017.00,1.7341
3016.00,1.7536
3015.00,1.7748
3014.00,1.7976
3013.00,1.8220
3012.00,1.8480
3011.00,1.8752
3010.00,1.9029
3009.00,1.9308
3008.00,1.9591
3007.00,1.9875
3006.00,2.0160
3005.00,2.0443
3004.00,2.0726
3003.00,2.1008
3002.00,2.1286
3001.00,2.1558
3000.00,2.1820
2999.00,2.2074
2998.00,2.2316
2997.00,2.2544
2996.00,2.2762
2995.00,2.2969
2994.00,2.3166
2993.00,2.3353
2992.00,2.3529
2991.00,2.3694
2990.00,2.3848
2989.00,2.3989
2988.00,2.4120
2987.00,2.4242
2986.00,2.4353
2985.00,2.4455
2984.00,2.4557
2983.00,2.4671
2982.00,2.4801
2981.00,2.4945
2980.00,2.5102
2979.00,2.5281
2978.00,2.5489
2977.00,2.5739
2976.00,2.6043
2975.00,2.6417
2974.00,2.6871
2973.00,2.7404
2972.00,2.8010
2971.00,2.8682
2970.00,2.9416
2969.00,3.0198
2968.00,3.1003
2967.00,3.1813
2966.00,3.2632
2965.00,3.3491
2964.00,3.4423
2963.00,3.5446
2962.00,3.6552
2961.00,3.7725
2960.00,3.9001
2959.00,4.0526
2958.00,4.2464
2957.00,4.4480
2956.00,4.5189
2955.00,4.4295
2954.00,4.3213
2953.00,4.2821
2952.00,4.3196
2951.00,4.4323
2950.00,4.5886
2949.00,4.6912
2948.00,4.7295
2947.00,4.7859
2946.00,4.6915
2945.00,4.5136
2944.00,4.4126
2943.00,4.4915
2942.00,4.7454
2941.00,4.9183
2940.00,4.8839
2939.00,4.7246
2938.00,4.7009
2937.00,4.8115
2936.00,5.0897
2935.00,5.5473
2934.00,5.4017
2933.00,5.0899
2932.00,4.9345
2931.00,4.7919
2930.00,4.7450
2929.00,4.7301
2928.00,4.6437
2927.00,4.4956
2926.00,4.4060
2925.00,4.5039
2924.00,4.6456
2923.00,4.3416
2922.00,4.0769
2921.00,3.9133
2920.00,3.8392
2919.00,3.7657
2918.00,3.6941
2917.00,3.6275
2916.00,3.5529
2915.00,3.4674
2914.00,3.3796
2913.00,3.3039
2912.00,3.2485
2911.00,3.2108
2910.00,3.1827
2909.00,3.1570
2908.00,3.1310
2907.00,3.1051
2906.00,3.0795
2905.00,3.0539
2904.00,3.0289
2903.00,3.0065
2902.00,2.9879
2901.00,2.9716
2900.00,2.9543
2899.00,2.9350
2898.00,2.9171
2897.00,2.9042
2896.00,2.8966
2895.00,2.8906
2894.00,2.8824
2893.00,2.8714
2892.00,2.8597
2891.00,2.8496
2890.00,2.8429
2889.00,2.8405
2888.00,2.8424
2887.00,2.8467
2886.00,2.8508
2885.00,2.8538
2884.00,2.8577
2883.00,2.8655
2882.00,2.8786
2881.00,2.8963
2880.00,2.9171
2879.00,2.9407
2878.00,2.9684
2877.00,3.0011
2876.00,3.0383
2875.00,3.0789
2874.00,3.1234
2873.00,3.1739
2872.00,3.2328
2871.00,3.3010
2870.00,3.3773
2869.00,3.4579
2868.00,3.5359
2867.00,3.6053
2866.00,3.6654
2865.00,3.7167
2864.00,3.7519
2863.00,3.7615
2862.00,3.7510
2861.00,3.7365
2860.00,3.7185
2859.00,3.6758
2858.00,3.5942
2857.00,3.4870
2856.00,3.3750
2855.00,3.2688
2854.00,3.1712
2853.00,3.0828
2852.00,3.0036
2851.00,2.9324
2850.00,2.8679
2849.00,2.8091
2848.00,2.7562
2847.00,2.7095
2846.00,2.6697
2845.00,2.6362
2844.00,2.6076
2843.00,2.5822
2842.00,2.5593
2841.00,2.5388
2840.00,2.5202
2839.00,2.5020
2838.00,2.4827
2837.00,2.4621
2836.00,2.4411
2835.00,2.4203
2834.00,2.3999
2833.00,2.3797
2832.00,2.3594
2831.00,2.3387
2830.00,2.3171
2829.00,2.2946
2828.00,2.2716
2827.00,2.2480
2826.00,2.2235
2825.00,2.1973
2824.00,2.1690
2823.00,2.1382
2822.00,2.1051
2821.00,2.0699
2820.00,2.0332
2819.00,1.9953
2818.00,1.9566
2817.00,1.9175
2816.00,1.8781
2815.00,1.8392
2814.00,1.8015
2813.00,1.7660
2812.00,1.7334
2811.00,1.7041
2810.00,1.6787
2809.00,1.6576
2808.00,1.6413
2807.00,1.6298
2806.00,1.6235
2805.00,1.6224
2804.00,1.6266
2803.00,1.6359
2802.00,1.6497
2801.00,1.6672
2800.00,1.6873
2799.00,1.7091
2798.00,1.7315
2797.00,1.7542
2796.00,1.7767
2795.00,1.7991
2794.00,1.8214
2793.00,1.8440
2792.00,1.8671
2791.00,1.8909
2790.00,1.9153
2789.00,1.9403
2788.00,1.9656
2787.00,1.9911
2786.00,2.0168
2785.00,2.0425
2784.00,2.0678
2783.00,2.0924
2782.00,2.1160
2781.00,2.1388
2780.00,2.1609
2779.00,2.1822
2778.00,2.2026
2777.00,2.2222
2776.00,2.2406
2775.00,2.2576
2774.00,2.2728
2773.00,2.2866
2772.00,2.2997
2771.00,2.3124
2770.00,2.3247
2769.00,2.3369
2768.00,2.3489
2767.00,2.3604
2766.00,2.3708
2765.00,2.3793
2764.00,2.3862
2763.00,2.3918
2762.00,2.3970
2761.00,2.4020
2760.00,2.4066
2759.00,2.4106
2758.00,2.4138
2757.00,2.4162
2756.00,2.4175
2755.00,2.4177
2754.00,2.4173
2753.00,2.4166
2752.00,2.4157
2751.00,2.4145
2750.00,2.4128
2749.00,2.4105
2748.00,2.4075
2747.00,2.4038
2746.00,2.3999
2745.00,2.3963
2744.00,2.3926
2743.00,2.3873
2742.00,2.3794
2741.00,2.3694
2740.00,2.3591
2739.00,2.3491
2738.00,2.3393
2737.00,2.3288
2736.00,2.3172
2735.00,2.3046
2734.00,2.2915
2733.00,2.2783
2732.00,2.2646
2731.00,2.2498
2730.00,2.2336
2729.00,2.2162
2728.00,2.1981
2727.00,2.1791
2726.00,2.1589
2725.00,2.1373
2724.00,2.1145
2723.00,2.0907
2722.00,2.0660
2721.00,2.0404
2720.00,2.0133
2719.00,1.9844
2718.00,1.9540
2717.00,1.9225
2716.00,1.8902
2715.00,1.8569
2714.00,1.8225
2713.00,1.7872
2712.00,1.7512
2711.00,1.7145
2710.00,1.6776
2709.00,1.6407
2708.00,1.6045
2707.00,1.5693
2706.00,1.5355
2705.00,1.5038
2704.00,1.4747
2703.00,1.4489
2702.00,1.4266
2701.00,1.4084
2700.00,1.3945
2699.00,1.3852
2698.00,1.3805
2697.00,1.3804
2696.00,1.3848
2695.00,1.3938
2694.00,1.4070
2693.00,1.4241
2692.00,1.4450
2691.00,1.4690
2690.00,1.4959
2689.00,1.5252
2688.00,1.5566
2687.00,1.5898
2686.00,1.6244
2685.00,1.6603
2684.00,1.6968
2683.00,1.7334
2682.00,1.7695
2681.00,1.8047
2680.00,1.8385
2679.00,1.8709
2678.00,1.9016
2677.00,1.9305
2676.00,1.9575
2675.00,1.9828
2674.00,2.0065
2673.00,2.0291
2672.00,2.0507
2671.00,2.0712
2670.00,2.0904
2669.00,2.1084
2668.00,2.1253
2667.00,2.1411
2666.00,2.1565
2665.00,2.1722
2664.00,2.1886
2663.00,2.2057
2662.00,2.2233
2661.00,2.2416
2660.00,2.2602
2659.00,2.2780
2658.00,2.2943
2657.00,2.3091
2656.00,2.3231
2655.00,2.3371
2654.00,2.3512
2653.00,2.3654
2652.00,2.3792
2651.00,2.3916
2650.00,2.4022
2649.00,2.4112
2648.00,2.4198
2647.00,2.4283
2646.00,2.4364
2645.00,2.4438
2644.00,2.4513
2643.00,2.4589
2642.00,2.4659
2641.00,2.4715
2640.00,2.4757
2639.00,2.4792
2638.00,2.4826
2637.00,2.4863
2636.00,2.4898
2635.00,2.4925
2634.00,2.4942
2633.00,2.4954
2632.00,2.4969
2631.00,2.4984
2630.00,2.4993
2629.00,2.4991
2628.00,2.4982
2627.00,2.4970
2626.00,2.4955
2625.00,2.4936
2624.00,2.4908
2623.00,2.4867
2622.00,2.4813
2621.00,2.4752
2620.00,2.4694
2619.00,2.4639
2618.00,2.4586
2617.00,2.4532
2616.00,2.4480
2615.00,2.4428
2614.00,2.4365
2613.00,2.4289
2612.00,2.4201
2611.00,2.4110
2610.00,2.4015
2609.00,2.3914
2608.00,2.3799
2607.00,2.3668
2606.00,2.3520
2605.00,2.3364
2604.00,2.3206
2603.00,2.3049
2602.00,2.2888
2601.00,2.2717
2600.00,2.2530
2599.00,2.2327
2598.00,2.2111
2597.00,2.1889
2596.00,2.1664
2595.00,2.1432
2594.00,2.1184
2593.00,2.0919
2592.00,2.0642
2591.00,2.0356
2590.00,2.0064
2589.00,1.9759
2588.00,1.9439
2587.00,1.9105
2586.00,1.8761
2585.00,1.8408
2584.00,1.8048
2583.00,1.7679
2582.00,1.7304
2581.00,1.6927
2580.00,1.6553
2579.00,1.6188
2578.00,1.5835
2577.00,1.5498
2576.00,1.5182
2575.00,1.4890
2574.00,1.4625
2573.00,1.4392
2572.00,1.4195
2571.00,1.4038
2570.00,1.3922
2569.00,1.3848
2568.00,1.3817
2567.00,1.3827
2566.00,1.3877
2565.00,1.3965
2564.00,1.4091
2563.00,1.4254
2562.00,1.4450
2561.00,1.4676
2560.00,1.4929
2559.00,1.5205
2558.00,1.5500
2557.00,1.5811
2556.00,1.6136
2555.00,1.6472
2554.00,1.6816
2553.00,1.7165
2552.00,1.7514
2551.00,1.7861
2550.00,1.8206
2549.00,1.8549
2548.00,1.8888
2547.00,1.9221
2546.00,1.9549
2545.00,1.9873
2544.00,2.0189
2543.00,2.0493
2542.00,2.0784
2541.00,2.1064
2540.00,2.1340
2539.00,2.1610
2538.00,2.1869
2537.00,2.2114
2536.00,2.2345
2535.00,2.2565
2534.00,2.2772
2533.00,2.2968
2532.00,2.3155
2531.00,2.3335
2530.00,2.3510
2529.00,2.3681
2528.00,2.3845
2527.00,2.4000
2526.00,2.4144
2525.00,2.4276
2524.00,2.4398
2523.00,2.4512
2522.00,2.4619
2521.00,2.4722
2520.00,2.4824
2519.00,2.4922
2518.00,2.5018
2517.00,2.5112
2516.00,2.5206
2515.00,2.5296
2514.00,2.5376
2513.00,2.5444
2512.00,2.5501
2511.00,2.5550
2510.00,2.5588
2509.00,2.5620
2508.00,2.5654
2507.00,2.5694
2506.00,2.5736
2505.00,2.5768
2504.00,2.5779
2503.00,2.5772
2502.00,2.5758
2501.00,2.5749
2500.00,2.5750
2499.00,2.5758
2498.00,2.5762
2497.00,2.5759
2496.00,2.5747
2495.00,2.5726
2494.00,2.5699
2493.00,2.5669
2492.00,2.5635
2491.00,2.5585
2490.00,2.5516
2489.00,2.5439
2488.00,2.5372
2487.00,2.5320
2486.00,2.5268
2485.00,2.5197
2484.00,2.5103
2483.00,2.4998
2482.00,2.4896
2481.00,2.4797
2480.00,2.4689
2479.00,2.4564
2478.00,2.4422
2477.00,2.4273
2476.00,2.4123
2475.00,2.3973
2474.00,2.3821
2473.00,2.3665
2472.00,2.3502
2471.00,2.3326
2470.00,2.3132
2469.00,2.2925
2468.00,2.2712
2467.00,2.2500
2466.00,2.2287
2465.00,2.2062
2464.00,2.1818
2463.00,2.1552
2462.00,2.1266
2461.00,2.0964
2460.00,2.0647
2459.00,2.0316
2458.00,1.9970
2457.00,1.9610
2456.00,1.9234
2455.00,1.8841
2454.00,1.8431
2453.00,1.8009
2452.00,1.7579
2451.00,1.7144
2450.00,1.6705
2449.00,1.6265
2448.00,1.5828
2447.00,1.5402
2446.00,1.4995
2445.00,1.4615
2444.00,1.4267
2443.00,1.3960
2442.00,1.3698
2441.00,1.3488
2440.00,1.3335
2439.00,1.3241
2438.00,1.3209
2437.00,1.3237
2436.00,1.3326
2435.00,1.3471
2434.00,1.3669
2433.00,1.3914
2432.00,1.4200
2431.00,1.4518
2430.00,1.4862
2429.00,1.5224
2428.00,1.5597
2427.00,1.5977
2426.00,1.6361
2425.00,1.6748
2424.00,1.7136
2423.00,1.7522
2422.00,1.7905
2421.00,1.8281
2420.00,1.8651
2419.00,1.9017
2418.00,1.9378
2417.00,1.9735
2416.00,2.0085
2415.00,2.0427
2414.00,2.0762
2413.00,2.1086
2412.00,2.1400
2411.00,2.1702
2410.00,2.1993
2409.00,2.2274
2408.00,2.2547
2407.00,2.2810
2406.00,2.3062
2405.00,2.3300
2404.00,2.3524
2403.00,2.3735
2402.00,2.3933
2401.00,2.4121
2400.00,2.4301
2399.00,2.4476
2398.00,2.4648
2397.00,2.4816
2396.00,2.4976
2395.00,2.5122
2394.00,2.5253
2393.00,2.5375
2392.00,2.5491
2391.00,2.5599
2390.00,2.5701
2389.00,2.5798
2388.00,2.5905
2387.00,2.6000
2386.00,2.6066
2385.00,2.6142
2384.00,2.6207
2383.00,2.6277
2382.00,2.6345
2381.00,2.6409
2380.00,2.6462
2379.00,2.6500
2378.00,2.6522
2377.00,2.6533
2376.00,2.6546
2375.00,2.6566
2374.00,2.6594
2373.00,2.6625
2372.00,2.6648
2371.00,2.6657
2370.00,2.6648
2369.00,2.6627
2368.00,2.6607
2367.00,2.6596
2366.00,2.6591
2365.00,2.6583
2364.00,2.6567
2363.00,2.6548
2362.00,2.6529
2361.00,2.6506
2360.00,2.6467
2359.00,2.6400
2358.00,2.6309
2357.00,2.6212
2356.00,2.6127
2355.00,2.6056
2354.00,2.5988
2353.00,2.5905
2352.00,2.5806
2351.00,2.5698
2350.00,2.5594
2349.00,2.5496
2348.00,2.5395
2347.00,2.5282
2346.00,2.5151
2345.00,2.5004
2344.00,2.4844
2343.00,2.4673
2342.00,2.4492
2341.00,2.4309
2340.00,2.4128
2339.00,2.3949
2338.00,2.3764
2337.00,2.3566
2336.00,2.3352
2335.00,2.3123
2334.00,2.2883
2333.00,2.2631
2332.00,2.2374
2331.00,2.2078
2330.00,2.1798
2329.00,2.1441
2328.00,2.1176
2327.00,2.0717
2326.00,2.0683
2325.00,2.1128
2324.00,2.0707
2323.00,2.0221
2322.00,1.9750
2321.00,1.9491
2320.00,1.9632
2319.00,1.9810
2318.00,1.9909
2317.00,1.9767
2316.00,1.9466
2315.00,1.9099
2314.00,1.8617
2313.00,1.8167
2312.00,1.7817
2311.00,1.7797
2310.00,1.8062
2309.00,1.8512
2308.00,1.8963
2307.00,1.9282
2306.00,1.9506
2305.00,1.9623
2304.00,1.9735
2303.00,1.9799
2302.00,1.9863
2301.00,1.9886
2300.00,1.9924
2299.00,1.9984
2298.00,2.0088
2297.00,2.0233
2296.00,2.0385
2295.00,2.0532
2294.00,2.0665
2293.00,2.0801
2292.00,2.0937
2291.00,2.1077
2290.00,2.1227
2289.00,2.1378
2288.00,2.1550
2287.00,2.1731
2286.00,2.1939
2285.00,2.2159
2284.00,2.2397
2283.00,2.2630
2282.00,2.2854
2281.00,2.3056
2280.00,2.3248
2279.00,2.3445
2278.00,2.3668
2277.00,2.3912
2276.00,2.4150
2275.00,2.4363
2274.00,2.4553
2273.00,2.4737
2272.00,2.4915
2271.00,2.5089
2270.00,2.5249
2269.00,2.5404
2268.00,2.5556
2267.00,2.5711
2266.00,2.5868
2265.00,2.6024
2264.00,2.6175
2263.00,2.6319
2262.00,2.6458
2261.00,2.6594
2260.00,2.6721
2259.00,2.6836
2258.00,2.6945
2257.00,2.7048
2256.00,2.7146
2255.00,2.7223
2254.00,2.7279
2253.00,2.7321
2252.00,2.7356
2251.00,2.7392
2250.00,2.7427
2249.00,2.7471
2248.00,2.7525
2247.00,2.7587
2246.00,2.7646
2245.00,2.7694
2244.00,2.7727
2243.00,2.7748
2242.00,2.7760
2241.00,2.7766
2240.00,2.7766
2239.00,2.7760
2238.00,2.7746
2237.00,2.7725
2236.00,2.7695
2235.00,2.7654
2234.00,2.7603
2233.00,2.7550
2232.00,2.7501
2231.00,2.7463
2230.00,2.7435
2229.00,2.7406
2228.00,2.7360
2227.00,2.7288
2226.00,2.7199
2225.00,2.7108
2224.00,2.7025
2223.00,2.6952
2222.00,2.6887
2221.00,2.6821
2220.00,2.6735
2219.00,2.6614
2218.00,2.6463
2217.00,2.6307
2216.00,2.6169
2215.00,2.6051
2214.00,2.5934
2213.00,2.5800
2212.00,2.5639
2211.00,2.5461
2210.00,2.5277
2209.00,2.5094
2208.00,2.4907
2207.00,2.4708
2206.00,2.4494
2205.00,2.4265
2204.00,2.4023
2203.00,2.3766
2202.00,2.3493
2201.00,2.3207
2200.00,2.2909
2199.00,2.2596
2198.00,2.2265
2197.00,2.1918
2196.00,2.1554
2195.00,2.1170
2194.00,2.0763
2193.00,2.0334
2192.00,1.9888
2191.00,1.9429
2190.00,1.8962
2189.00,1.8490
2188.00,1.8017
2187.00,1.7548
2186.00,1.7093
2185.00,1.6661
2184.00,1.6261
2183.00,1.5901
2182.00,1.5588
2181.00,1.5328
2180.00,1.5128
2179.00,1.4989
2178.00,1.4907
2177.00,1.4876
2176.00,1.4889
2175.00,1.4942
2174.00,1.5031
2173.00,1.5159
2172.00,1.5326
2171.00,1.5534
2170.00,1.5784
2169.00,1.6073
2168.00,1.6396
2167.00,1.6748
2166.00,1.7121
2165.00,1.7514
2164.00,1.7922
2163.00,1.8339
2162.00,1.8759
2161.00,1.9180
2160.00,1.9603
2159.00,2.0029
2158.00,2.0456
2157.00,2.0878
2156.00,2.1291
2155.00,2.1690
2154.00,2.2074
2153.00,2.2442
2152.00,2.2796
2151.00,2.3136
2150.00,2.3465
2149.00,2.3788
2148.00,2.4103
2147.00,2.4399
2146.00,2.4670
2145.00,2.4917
2144.00,2.5150
2143.00,2.5376
2142.00,2.5595
2141.00,2.5803
2140.00,2.5999
2139.00,2.6181
2138.00,2.6351
2137.00,2.6510
2136.00,2.6657
2135.00,2.6791
2134.00,2.6916
2133.00,2.7040
2132.00,2.7166
2131.00,2.7289
2130.00,2.7398
2129.00,2.7494
2128.00,2.7590
2127.00,2.7695
2126.00,2.7804
2125.00,2.7902
2124.00,2.7985
2123.00,2.8057
2122.00,2.8123
2121.00,2.8180
2120.00,2.8223
2119.00,2.8253
2118.00,2.8280
2117.00,2.8313
2116.00,2.8357
2115.00,2.8408
2114.00,2.8463
2113.00,2.8515
2112.00,2.8561
2111.00,2.8601
2110.00,2.8635
2109.00,2.8654
2108.00,2.8646
2107.00,2.8612
2106.00,2.8573
2105.00,2.8548
2104.00,2.8533
2103.00,2.8517
2102.00,2.8502
2101.00,2.8495
2100.00,2.8487
2099.00,2.8452
2098.00,2.8379
2097.00,2.8287
2096.00,2.8204
2095.00,2.8136
2094.00,2.8069
2093.00,2.7995
2092.00,2.7917
2091.00,2.7838
2090.00,2.7753
2089.00,2.7658
2088.00,2.7551
2087.00,2.7433
2086.00,2.7306
2085.00,2.7170
2084.00,2.7024
2083.00,2.6865
2082.00,2.6692
2081.00,2.6508
2080.00,2.6319
2079.00,2.6129
2078.00,2.5935
2077.00,2.5735
2076.00,2.5526
2075.00,2.5303
2074.00,2.5061
2073.00,2.4797
2072.00,2.4521
2071.00,2.4243
2070.00,2.3968
2069.00,2.3692
2068.00,2.3402
2067.00,2.3089
2066.00,2.2751
2065.00,2.2398
2064.00,2.2038
2063.00,2.1677
2062.00,2.1311
2061.00,2.0926
2060.00,2.0511
2059.00,2.0062
2058.00,1.9581
2057.00,1.9072
2056.00,1.8545
2055.00,1.8007
2054.00,1.7473
2053.00,1.6959
2052.00,1.6477
2051.00,1.6038
2050.00,1.5654
2049.00,1.5338
2048.00,1.5099
2047.00,1.4947
2046.00,1.4884
2045.00,1.4912
2044.00,1.5027
2043.00,1.5219
2042.00,1.5478
2041.00,1.5794
2040.00,1.6167
2039.00,1.6590
2038.00,1.7050
2037.00,1.7531
2036.00,1.8018
2035.00,1.8506
2034.00,1.8994
2033.00,1.9480
2032.00,1.9959
2031.00,2.0425
2030.00,2.0878
2029.00,2.1322
2028.00,2.1760
2027.00,2.2191
2026.00,2.2613
2025.00,2.3017
2024.00,2.3402
2023.00,2.3769
2022.00,2.4122
2021.00,2.4461
2020.00,2.4776
2019.00,2.5056
2018.00,2.5303
2017.00,2.5537
2016.00,2.5776
2015.00,2.6022
2014.00,2.6267
2013.00,2.6503
2012.00,2.6727
2011.00,2.6934
2010.00,2.7122
2009.00,2.7294
2008.00,2.7459
2007.00,2.7624
2006.00,2.7793
2005.00,2.7965
2004.00,2.8136
2003.00,2.8294
2002.00,2.8430
2001.00,2.8540
2000.00,2.8620
1999.00,2.8679
1998.00,2.8740
1997.00,2.8832
1996.00,2.8954
1995.00,2.9072
1994.00,2.9151
1993.00,2.9190
1992.00,2.9213
1991.00,2.9242
1990.00,2.9274
1989.00,2.9296
1988.00,2.9308
1987.00,2.9321
1986.00,2.9355
1985.00,2.9418
1984.00,2.9492
1983.00,2.9544
1982.00,2.9550
1981.00,2.9520
1980.00,2.9487
1979.00,2.9478
1978.00,2.9502
1977.00,2.9551
1976.00,2.9591
1975.00,2.9583
1974.00,2.9517
1973.00,2.9426
1972.00,2.9347
1971.00,2.9296
1970.00,2.9258
1969.00,2.9217
1968.00,2.9163
1967.00,2.9098
1966.00,2.9035
1965.00,2.8994
1964.00,2.8969
1963.00,2.8925
1962.00,2.8830
1961.00,2.8683
1960.00,2.8504
1959.00,2.8313
1958.00,2.8128
1957.00,2.7965
1956.00,2.7825
1955.00,2.7689
1954.00,2.7540
1953.00,2.7375
1952.00,2.7206
1951.00,2.7034
1950.00,2.6855
1949.00,2.6666
1948.00,2.6465
1947.00,2.6241
1946.00,2.5991
1945.00,2.5721
1944.00,2.5428
1943.00,2.5100
1942.00,2.4735
1941.00,2.4366
1940.00,2.4022
1939.00,2.3692
1938.00,2.3340
1937.00,2.2943
1936.00,2.2499
1935.00,2.2014
1934.00,2.1492
1933.00,2.0942
1932.00,2.0373
1931.00,1.9795
1930.00,1.9215
1929.00,1.8639
1928.00,1.8076
1927.00,1.7542
1926.00,1.7050
1925.00,1.6611
1924.00,1.6225
1923.00,1.5900
1922.00,1.5667
1921.00,1.5573
1920.00,1.5627
1919.00,1.5791
1918.00,1.6023
1917.00,1.6310
1916.00,1.6665
1915.00,1.7091
1914.00,1.7569
1913.00,1.8071
1912.00,1.8580
1911.00,1.9085
1910.00,1.9580
1909.00,2.0069
1908.00,2.0561
1907.00,2.1067
1906.00,2.1586
1905.00,2.2107
1904.00,2.2616
1903.00,2.3105
1902.00,2.3573
1901.00,2.4018
1900.00,2.4439
1899.00,2.4841
1898.00,2.5228
1897.00,2.5595
1896.00,2.5923
1895.00,2.6211
1894.00,2.6481
1893.00,2.6760
1892.00,2.7051
1891.00,2.7337
1890.00,2.7597
1889.00,2.7830
1888.00,2.8045
1887.00,2.8262
1886.00,2.8476
1885.00,2.8669
1884.00,2.8827
1883.00,2.8960
1882.00,2.9088
1881.00,2.9216
1880.00,2.9334
1879.00,2.9436
1878.00,2.9532
1877.00,2.9639
1876.00,2.9764
1875.00,2.9898
1874.00,3.0024
1873.00,3.0121
1872.00,3.0182
1871.00,3.0221
1870.00,3.0258
1869.00,3.0295
1868.00,3.0325
1867.00,3.0357
1866.00,3.0405
1865.00,3.0458
1864.00,3.0483
1863.00,3.0462
1862.00,3.0411
1861.00,3.0371
1860.00,3.0371
1859.00,3.0412
1858.00,3.0468
1857.00,3.0503
1856.00,3.0503
1855.00,3.0477
1854.00,3.0447
1853.00,3.0424
1852.00,3.0405
1851.00,3.0373
1850.00,3.0302
1849.00,3.0169
1848.00,2.9987
1847.00,2.9803
1846.00,2.9659
1845.00,2.9553
1844.00,2.9447
1843.00,2.9296
1842.00,2.9107
1841.00,2.8932
1840.00,2.8799
1839.00,2.8691
1838.00,2.8568
1837.00,2.8407
1836.00,2.8199
1835.00,2.7951
1834.00,2.7683
1833.00,2.7415
1832.00,2.7144
1831.00,2.6847
1830.00,2.6495
1829.00,2.6094
1828.00,2.5680
1827.00,2.5263
1826.00,2.4816
1825.00,2.4318
1824.00,2.3793
1823.00,2.3281
1822.00,2.2795
1821.00,2.2322
1820.00,2.1854
1819.00,2.1402
1818.00,2.0987
1817.00,2.0641
1816.00,2.0403
1815.00,2.0294
1814.00,2.0301
1813.00,2.0394
1812.00,2.0557
1811.00,2.0783
1810.00,2.1064
1809.00,2.1381
1808.00,2.1702
1807.00,2.2007
1806.00,2.2293
1805.00,2.2561
1804.00,2.2805
1803.00,2.3013
1802.00,2.3204
1801.00,2.3435
1800.00,2.3766
1799.00,2.4199
1798.00,2.4669
1797.00,2.5109
1796.00,2.5509
1795.00,2.5909
1794.00,2.6342
1793.00,2.6798
1792.00,2.7234
1791.00,2.7620
1790.00,2.7989
1789.00,2.8399
1788.00,2.8843
1787.00,2.9253
1786.00,2.9569
1785.00,2.9797
1784.00,2.9998
1783.00,3.0232
1782.00,3.0504
1781.00,3.0765
1780.00,3.0980
1779.00,3.1162
1778.00,3.1343
1777.00,3.1542
1776.00,3.1757
1775.00,3.1971
1774.00,3.2130
1773.00,3.2189
1772.00,3.2173
1771.00,3.2168
1770.00,3.2220
1769.00,3.2281
1768.00,3.2281
1767.00,3.2225
1766.00,3.2201
1765.00,3.2260
1764.00,3.2346
1763.00,3.2363
1762.00,3.2255
1761.00,3.2036
1760.00,3.1775
1759.00,3.1541
1758.00,3.1362
1757.00,3.1230
1756.00,3.1140
1755.00,3.1121
1754.00,3.1183
1753.00,3.1294
1752.00,3.1425
1751.00,3.1605
1750.00,3.1902
1749.00,3.2367
1748.00,3.2987
1747.00,3.3698
1746.00,3.4441
1745.00,3.5196
1744.00,3.5945
1743.00,3.6646
1742.00,3.7275
1741.00,3.7923
1740.00,3.8751
1739.00,3.9775
1738.00,4.0746
1737.00,4.1376
1736.00,4.1672
1735.00,4.1751
1734.00,4.1695
1733.00,4.1742
1732.00,4.2370
1731.00,4.4070
1730.00,4.6952
1729.00,4.8806
1728.00,4.7855
1727.00,4.6940
1726.00,4.6634
1725.00,4.6520
1724.00,4.5665
1723.00,4.4234
1722.00,4.2925
1721.00,4.1977
1720.00,4.1424
1719.00,4.1327
1718.00,4.1793
1717.00,4.2659
1716.00,4.3182
1715.00,4.2958
1714.00,4.2724
1713.00,4.2997
1712.00,4.3903
1711.00,4.5606
1710.00,4.9306
1709.00,5.1445
1708.00,4.6613
1707.00,4.5334
1706.00,4.5413
1705.00,4.5885
1704.00,4.6896
1703.00,4.9520
1702.00,5.4106
1701.00,5.0837
1700.00,4.8094
1699.00,4.5816
1698.00,4.4294
1697.00,4.3833
1696.00,4.3951
1695.00,4.3801
1694.00,4.2792
1693.00,4.1721
1692.00,4.1008
1691.00,4.0533
1690.00,4.0191
1689.00,3.9791
1688.00,3.9095
1687.00,3.8150
1686.00,3.7176
1685.00,3.6364
1684.00,3.5812
1683.00,3.5428
1682.00,3.5083
1681.00,3.4698
1680.00,3.4257
1679.00,3.3830
1678.00,3.3483
1677.00,3.3165
1676.00,3.2740
1675.00,3.2159
1674.00,3.1516
1673.00,3.0936
1672.00,3.0490
1671.00,3.0159
1670.00,2.9887
1669.00,2.9644
1668.00,2.9440
1667.00,2.9315
1666.00,2.9315
1665.00,2.9450
1664.00,2.9691
1663.00,3.0001
1662.00,3.0338
1661.00,3.0657
1660.00,3.0940
1659.00,3.1190
1658.00,3.1419
1657.00,3.1648
1656.00,3.1875
1655.00,3.2056
1654.00,3.2182
1653.00,3.2315
1652.00,3.2438
1651.00,3.2489
1650.00,3.2585
1649.00,3.2771
1648.00,3.2884
1647.00,3.2881
1646.00,3.2882
1645.00,3.2958
1644.00,3.3058
1643.00,3.3126
1642.00,3.3154
1641.00,3.3128
1640.00,3.3078
1639.00,3.3072
1638.00,3.3123
1637.00,3.3169
1636.00,3.3138
1635.00,3.3026
1634.00,3.2870
1633.00,3.2695
1632.00,3.2523
1631.00,3.2353
1630.00,3.2170
1629.00,3.2003
1628.00,3.1867
1627.00,3.1742
1626.00,3.1605
1625.00,3.1443
1624.00,3.1234
1623.00,3.0949
1622.00,3.0593
1621.00,3.0230
1620.00,2.9930
1619.00,2.9690
1618.00,2.9437
1617.00,2.9103
1616.00,2.8668
1615.00,2.8176
1614.00,2.7709
1613.00,2.7298
1612.00,2.6886
1611.00,2.6423
1610.00,2.5910
1609.00,2.5353
1608.00,2.4759
1607.00,2.4153
1606.00,2.3566
1605.00,2.3006
1604.00,2.2466
1603.00,2.1956
1602.00,2.1508
1601.00,2.1153
1600.00,2.0912
1599.00,2.0789
1598.00,2.0778
1597.00,2.0867
1596.00,2.1050
1595.00,2.1321
1594.00,2.1675
1593.00,2.2090
1592.00,2.2541
1591.00,2.3008
1590.00,2.3482
1589.00,2.3957
1588.00,2.4428
1587.00,2.4892
1586.00,2.5350
1585.00,2.5802
1584.00,2.6248
1583.00,2.6704
1582.00,2.7174
1581.00,2.7649
1580.00,2.8110
1579.00,2.8534
1578.00,2.8888
1577.00,2.9156
1576.00,2.9364
1575.00,2.9557
1574.00,2.9793
1573.00,3.0123
1572.00,3.0528
1571.00,3.0945
1570.00,3.1334
1569.00,3.1635
1568.00,3.1806
1567.00,3.1897
1566.00,3.1995
1565.00,3.2126
1564.00,3.2247
1563.00,3.2316
1562.00,3.2319
1561.00,3.2279
1560.00,3.2286
1559.00,3.2400
1558.00,3.2459
1557.00,3.2449
1556.00,3.2410
1555.00,3.2387
1554.00,3.2415
1553.00,3.2508
1552.00,3.2661
1551.00,3.2795
1550.00,3.2831
1549.00,3.2811
1548.00,3.2852
1547.00,3.2978
1546.00,3.3096
1545.00,3.3112
1544.00,3.3027
1543.00,3.2930
1542.00,3.2885
1541.00,3.2871
1540.00,3.2840
1539.00,3.2797
1538.00,3.2781
1537.00,3.2782
1536.00,3.2787
1535.00,3.2733
1534.00,3.2598
1533.00,3.2434
1532.00,3.2292
1531.00,3.2183
1530.00,3.2070
1529.00,3.1902
1528.00,3.1659
1527.00,3.1375
1526.00,3.1144
1525.00,3.1039
1524.00,3.1025
1523.00,3.0967
1522.00,3.0760
1521.00,3.0428
1520.00,3.0102
1519.00,2.9889
1518.00,2.9734
1517.00,2.9495
1516.00,2.9117
1515.00,2.8697
1514.00,2.8330
1513.00,2.7990
1512.00,2.7604
1511.00,2.7149
1510.00,2.6650
1509.00,2.6109
1508.00,2.5486
1507.00,2.4791
1506.00,2.4182
1505.00,2.3796
1504.00,2.3476
1503.00,2.3158
1502.00,2.2849
1501.00,2.2514
1500.00,2.2188
1499.00,2.1920
1498.00,2.1688
1497.00,2.1458
1496.00,2.1276
1495.00,2.1244
1494.00,2.1431
1493.00,2.1804
1492.00,2.2264
1491.00,2.2725
1490.00,2.3168
1489.00,2.3644
1488.00,2.4232
1487.00,2.4920
1486.00,2.5625
1485.00,2.6294
1484.00,2.6930
1483.00,2.7545
1482.00,2.8124
1481.00,2.8653
1480.00,2.9149
1479.00,2.9632
1478.00,3.0095
1477.00,3.0523
1476.00,3.0919
1475.00,3.1291
1474.00,3.1638
1473.00,3.1967
1472.00,3.2325
1471.00,3.2774
1470.00,3.3298
1469.00,3.3819
1468.00,3.4288
1467.00,3.4707
1466.00,3.5085
1465.00,3.5409
1464.00,3.5668
1463.00,3.5844
1462.00,3.5918
1461.00,3.5922
1460.00,3.5920
1459.00,3.5965
1458.00,3.6079
1457.00,3.6295
1456.00,3.6667
1455.00,3.7222
1454.00,3.8151
1453.00,3.9728
1452.00,4.1843
1451.00,4.3420
1450.00,4.3379
1449.00,4.2389
1448.00,4.1299
1447.00,4.0422
1446.00,3.9388
1445.00,3.7967
1444.00,3.6642
1443.00,3.5771
1442.00,3.5377
1441.00,3.5355
1440.00,3.5554
1439.00,3.5830
1438.00,3.6087
1437.00,3.6308
1436.00,3.6532
1435.00,3.6843
1434.00,3.7310
1433.00,3.7879
1432.00,3.8382
1431.00,3.8660
1430.00,3.8704
1429.00,3.8640
1428.00,3.8572
1427.00,3.8522
1426.00,3.8446
1425.00,3.8333
1424.00,3.8262
1423.00,3.8292
1422.00,3.8356
1421.00,3.8226
1420.00,3.7718
1419.00,3.7009
1418.00,3.6438
1417.00,3.6210
1416.00,3.6286
1415.00,3.6435
1414.00,3.6463
1413.00,3.6386
1412.00,3.6348
1411.00,3.6415
1410.00,3.6466
1409.00,3.6314
1408.00,3.5980
1407.00,3.5702
1406.00,3.5662
1405.00,3.5856
1404.00,3.6137
1403.00,3.6345
1402.00,3.6414
1401.00,3.6328
1400.00,3.6045
1399.00,3.5573
1398.00,3.5055
1397.00,3.4680
1396.00,3.4541
1395.00,3.4616
1394.00,3.4796
1393.00,3.4948
1392.00,3.5015
1391.00,3.5022
1390.00,3.4970
1389.00,3.4789
1388.00,3.4445
1387.00,3.4031
1386.00,3.3695
1385.00,3.3480
1384.00,3.3309
1383.00,3.3111
1382.00,3.2893
1381.00,3.2672
1380.00,3.2426
1379.00,3.2134
1378.00,3.1822
1377.00,3.1530
1376.00,3.1245
1375.00,3.0909
1374.00,3.0499
1373.00,3.0068
1372.00,2.9692
1371.00,2.9381
1370.00,2.9085
1369.00,2.8753
1368.00,2.8395
1367.00,2.8070
1366.00,2.7816
1365.00,2.7618
1364.00,2.7448
1363.00,2.7317
1362.00,2.7292
1361.00,2.7446
1360.00,2.7786
1359.00,2.8264
1358.00,2.8833
1357.00,2.9464
1356.00,3.0133
1355.00,3.0838
1354.00,3.1614
1353.00,3.2499
1352.00,3.3484
1351.00,3.4501
1350.00,3.5483
1349.00,3.6398
1348.00,3.7198
1347.00,3.7744
1346.00,3.7814
1345.00,3.7324
1344.00,3.6556
1343.00,3.5914
1342.00,3.5672
1341.00,3.5915
1340.00,3.6486
1339.00,3.6861
1338.00,3.6442
1337.00,3.5366
1336.00,3.4223
1335.00,3.3353
1334.00,3.2834
1333.00,3.2628
1332.00,3.2658
1331.00,3.2852
1330.00,3.3172
1329.00,3.3584
1328.00,3.4020
1327.00,3.4427
1326.00,3.4855
1325.00,3.5414
1324.00,3.6137
1323.00,3.6906
1322.00,3.7564
1321.00,3.8126
1320.00,3.8722
1319.00,3.9428
1318.00,4.0375
1317.00,4.1712
1316.00,4.3063
1315.00,4.3254
1314.00,4.2392
1313.00,4.1719
1312.00,4.1840
1311.00,4.2462
1310.00,4.2510
1309.00,4.1550
1308.00,4.0116
1307.00,3.8637
1306.00,3.7351
1305.00,3.6333
1304.00,3.5559
1303.00,3.4994
1302.00,3.4662
1301.00,3.4600
1300.00,3.4767
1299.00,3.5022
1298.00,3.5199
1297.00,3.5253
1296.00,3.5297
1295.00,3.5460
1294.00,3.5773
1293.00,3.6168
1292.00,3.6517
1291.00,3.6680
1290.00,3.6623
1289.00,3.6496
1288.00,3.6504
1287.00,3.6713
1286.00,3.6992
1285.00,3.7161
1284.00,3.7210
1283.00,3.7300
1282.00,3.7518
1281.00,3.7767
1280.00,3.7858
1279.00,3.7730
1278.00,3.7476
1277.00,3.7171
1276.00,3.6905
1275.00,3.6787
1274.00,3.6845
1273.00,3.6987
1272.00,3.7100
1271.00,3.7168
1270.00,3.7265
1269.00,3.7458
1268.00,3.7740
1267.00,3.8012
1266.00,3.8100
1265.00,3.7968
1264.00,3.7859
1263.00,3.7939
1262.00,3.8121
1261.00,3.8206
1260.00,3.8077
1259.00,3.7811
1258.00,3.7540
1257.00,3.7275
1256.00,3.6956
1255.00,3.6610
1254.00,3.6331
1253.00,3.6157
1252.00,3.6043
1251.00,3.5934
1250.00,3.5810
1249.00,3.5647
1248.00,3.5400
1247.00,3.5084
1246.00,3.4803
1245.00,3.4660
1244.00,3.4685
1243.00,3.4845
1242.00,3.5071
1241.00,3.5280
1240.00,3.5422
1239.00,3.5562
1238.00,3.5859
1237.00,3.6395
1236.00,3.7033
1235.00,3.7501
1234.00,3.7767
1233.00,3.8173
1232.00,3.9009
1231.00,4.0185
1230.00,4.1026
1229.00,4.1015
1228.00,4.1198
1227.00,4.2416
1226.00,4.4649
1225.00,4.6949
1224.00,4.7863
1223.00,4.6972
1222.00,4.5540
1221.00,4.4487
1220.00,4.2853
1219.00,4.1682
1218.00,4.2272
1217.00,4.6291
1216.00,4.4697
1215.00,4.0073
1214.00,3.8368
1213.00,3.7561
1212.00,3.7079
1211.00,3.6736
1210.00,3.6479
1209.00,3.6323
1208.00,3.6201
1207.00,3.5972
1206.00,3.5560
1205.00,3.5034
1204.00,3.4486
1203.00,3.4006
1202.00,3.3689
1201.00,3.3538
1200.00,3.3444
1199.00,3.3280
1198.00,3.3030
1197.00,3.2803
1196.00,3.2711
1195.00,3.2772
1194.00,3.2920
1193.00,3.3092
1192.00,3.3287
1191.00,3.3555
1190.00,3.3926
1189.00,3.4360
1188.00,3.4743
1187.00,3.4981
1186.00,3.5085
1185.00,3.5141
1184.00,3.5169
1183.00,3.5156
1182.00,3.5236
1181.00,3.5584
1180.00,3.6180
1179.00,3.6769
1178.00,3.7058
1177.00,3.6996
1176.00,3.6772
1175.00,3.6600
1174.00,3.6589
1173.00,3.6765
1172.00,3.7121
1171.00,3.7558
1170.00,3.7843
1169.00,3.7911
1168.00,3.7983
1167.00,3.8223
1166.00,3.8581
1165.00,3.8893
1164.00,3.9053
1163.00,3.8911
1162.00,3.8498
1161.00,3.8338
1160.00,3.8689
1159.00,3.9010
1158.00,3.8829
1157.00,3.8630
1156.00,3.8879
1155.00,3.9745
1154.00,4.1594
1153.00,4.5696
1152.00,4.6628
1151.00,4.2859
1150.00,4.1261
1149.00,4.0570
1148.00,4.0784
1147.00,4.1564
1146.00,4.1472
1145.00,4.0321
1144.00,3.9258
1143.00,3.8951
1142.00,3.9404
1141.00,4.0321
1140.00,4.1208
1139.00,4.1276
1138.00,4.0636
1137.00,4.0060
1136.00,3.9891
1135.00,4.0254
1134.00,4.1051
1133.00,4.1900
1132.00,4.2434
1131.00,4.3063
1130.00,4.3951
1129.00,4.4189
1128.00,4.3918
1127.00,4.4637
1126.00,4.6088
1125.00,4.3908
1124.00,4.2004
1123.00,4.1618
1122.00,4.1701
1121.00,4.1341
1120.00,4.0993
1119.00,4.1180
1118.00,4.1841
1117.00,4.2857
1116.00,4.4551
1115.00,4.6241
1114.00,4.4017
1113.00,4.2630
1112.00,4.3356
1111.00,4.7007
1110.00,5.1273
1109.00,4.3782
1108.00,4.1546
1107.00,4.0981
1106.00,4.2517
1105.00,4.6960
1104.00,4.5117
1103.00,4.4094
1102.00,4.3492
1101.00,4.2790
1100.00,4.3551
1099.00,4.4325
1098.00,4.4424
1097.00,4.5243
1096.00,4.4490
1095.00,4.2109
1094.00,4.0873
1093.00,4.1072
1092.00,4.2786
1091.00,4.4235
1090.00,4.2002
1089.00,3.8880
1088.00,3.6557
1087.00,3.5313
1086.00,3.4961
1085.00,3.5169
1084.00,3.5574
1083.00,3.5866
1082.00,3.5936
1081.00,3.5979
1080.00,3.6284
1079.00,3.6858
1078.00,3.7271
1077.00,3.7034
1076.00,3.6358
1075.00,3.5800
1074.00,3.5571
1073.00,3.5598
1072.00,3.5684
1071.00,3.5530
1070.00,3.5127
1069.00,3.4820
1068.00,3.4796
1067.00,3.5032
1066.00,3.5429
1065.00,3.5892
1064.00,3.6398
1063.00,3.6902
1062.00,3.7223
1061.00,3.7299
1060.00,3.7315
1059.00,3.7336
1058.00,3.7406
1057.00,3.7797
1056.00,3.8334
1055.00,3.8363
1054.00,3.8239
1053.00,3.8644
1052.00,3.9530
1051.00,4.0109
1050.00,4.0089
1049.00,4.0051
1048.00,3.9682
1047.00,3.8710
1046.00,3.7707
1045.00,3.7192
1044.00,3.7353
1043.00,3.8009
1042.00,3.8643
1041.00,3.8894
1040.00,3.8701
1039.00,3.8163
1038.00,3.7626
1037.00,3.7252
1036.00,3.7120
1035.00,3.7383
1034.00,3.8043
1033.00,3.8851
1032.00,3.9558
1031.00,4.0364
1030.00,4.1323
1029.00,4.1994
1028.00,4.2816
1027.00,4.5058
1026.00,4.7717
1025.00,4.7034
1024.00,4.5620
1023.00,4.6233
1022.00,5.0770
1021.00,4.7496
1020.00,4.5366
1019.00,4.6938
1018.00,5.0516
1017.00,4.8505
1016.00,4.5993
1015.00,4.4844
1014.00,4.3732
1013.00,4.2715
1012.00,4.1878
1011.00,4.1723
1010.00,4.2261
1009.00,4.4549
1008.00,5.1146
1007.00,4.6703
1006.00,4.4017
1005.00,4.3694
1004.00,4.3755
1003.00,4.3268
1002.00,4.2914
1001.00,4.3722
1000.00,4.4404
999.00,4.3172
998.00,4.1608
997.00,4.0928
996.00,4.1419
995.00,4.3014
994.00,4.5157
993.00,4.5230
992.00,4.3618
991.00,4.3370
990.00,4.5432
989.00,4.8655
988.00,4.5694
987.00,4.4282
986.00,4.4605
985.00,4.5928
984.00,5.0181
983.00,4.9133
982.00,4.4935
981.00,4.3395
980.00,4.2475
979.00,4.3017
978.00,4.6493
977.00,4.6278
976.00,4.3273
975.00,4.2929
974.00,4.3561
973.00,4.3620
972.00,4.4108
971.00,4.5132
970.00,4.3849
969.00,4.2477
968.00,4.2637
967.00,4.4433
966.00,4.6745
965.00,4.8745
964.00,4.7659
963.00,4.2827
962.00,4.0691
961.00,4.0128
960.00,4.0432
959.00,4.1027
958.00,4.1428
957.00,4.2002
956.00,4.3642
955.00,4.7971
954.00,4.9276
953.00,4.7250
952.00,4.6332
951.00,4.4003
950.00,4.2240
949.00,4.1352
948.00,4.1057
947.00,4.1070
946.00,4.1370
945.00,4.2278
944.00,4.3191
943.00,4.2957
942.00,4.2287
941.00,4.1822
940.00,4.1642
939.00,4.2044
938.00,4.3035
937.00,4.3206
936.00,4.1980
935.00,4.0846
934.00,4.0222
933.00,4.0073
932.00,4.0349
931.00,4.0944
930.00,4.1729
929.00,4.2335
928.00,4.2386
927.00,4.2230
926.00,4.1739
925.00,4.0915
924.00,4.0430
923.00,4.0391
922.00,4.0588
921.00,4.0661
920.00,4.0736
919.00,4.1495
918.00,4.2651
917.00,4.2270
916.00,4.0472
915.00,3.9161
914.00,3.8786
913.00,3.9155
912.00,4.0085
911.00,4.1493
910.00,4.3453
909.00,4.5131
908.00,4.3802
907.00,4.1637
906.00,4.0290
905.00,3.9901
904.00,4.0321
903.00,4.1661
902.00,4.3115
901.00,4.1424
900.00,3.9571
899.00,3.8919
898.00,3.9202
897.00,4.0301
896.00,4.2519
895.00,4.5938
894.00,4.4222
893.00,4.1207
892.00,3.9532
891.00,3.8799
890.00,3.9066
889.00,4.0375
888.00,4.2261
887.00,4.2888
886.00,4.2396
885.00,4.1705
884.00,4.0807
883.00,3.9680
882.00,3.9202
881.00,4.0026
880.00,4.3664
879.00,4.8496
878.00,4.3150
877.00,4.3978
876.00,4.8043
875.00,4.4984
874.00,4.4790
873.00,4.4505
872.00,4.2306
871.00,4.1714
870.00,4.3014
869.00,4.6516
868.00,4.7840
867.00,4.4137
866.00,4.2321
865.00,4.0993
864.00,3.9735
863.00,3.8938
862.00,3.8685
861.00,3.8993
860.00,3.9681
859.00,4.0234
858.00,4.0262
857.00,4.0186
856.00,4.0205
855.00,3.9945
854.00,3.9246
853.00,3.8486
852.00,3.8042
851.00,3.7921
850.00,3.8061
849.00,3.8606
848.00,3.9948
847.00,4.1927
846.00,4.3020
845.00,4.3303
844.00,4.6063
843.00,5.0997
842.00,4.6216
841.00,4.4486
840.00,4.3941
839.00,4.3749
838.00,4.3229
837.00,4.1278
836.00,3.9897
835.00,3.9700
834.00,4.0828
833.00,4.2725
832.00,4.2968
831.00,4.3306
830.00,4.4063
829.00,4.5496
828.00,5.1144
827.00,4.5002
826.00,4.0546
825.00,3.8420
824.00,3.7515
823.00,3.7703
822.00,3.8173
821.00,3.8009
820.00,3.7597
819.00,3.7781
818.00,3.8586
817.00,4.0445
816.00,4.4459
815.00,4.3603
814.00,4.0314
813.00,3.9700
812.00,4.1051
811.00,4.1897
810.00,4.0381
809.00,3.9942
808.00,4.0765
807.00,4.2114
806.00,4.3052
805.00,4.2228
804.00,4.0516
803.00,3.9108
802.00,3.8371
801.00,3.8014
800.00,3.8135
799.00,3.9125
798.00,4.1760
797.00,4.5567
796.00,4.5721
795.00,4.6592
794.00,4.6347
793.00,4.2577
792.00,3.9870
791.00,3.8424
790.00,3.8253
789.00,3.9324
788.00,4.1469
787.00,4.3622
786.00,4.5187
785.00,4.8150
784.00,5.4916
783.00,5.8217
782.00,4.9393
781.00,4.5618
780.00,4.4268
779.00,4.4366
778.00,4.4263
777.00,4.3474
776.00,4.2845
775.00,4.2420
774.00,4.1910
773.00,4.0987
772.00,4.0607
771.00,4.1440
770.00,4.3153
769.00,4.5279
768.00,4.7867
767.00,4.9031
766.00,4.7061
765.00,4.5573
764.00,4.5080
763.00,4.4692
762.00,4.3877
761.00,4.2313
760.00,4.0794
759.00,4.0091
758.00,4.0909
757.00,4.3379
756.00,4.4035
755.00,4.3707
754.00,4.4279
753.00,4.3014
752.00,4.1555
751.00,4.1148
750.00,4.1740
749.00,4.2578
748.00,4.2391
747.00,4.1550
746.00,4.0334
745.00,3.9347
744.00,3.9108
743.00,4.0591
742.00,4.3594
741.00,4.3366
740.00,4.2619
739.00,4.1715
738.00,4.0568
737.00,4.0042
736.00,3.9340
735.00,3.8759
734.00,3.9036
733.00,4.0041
732.00,4.0218
731.00,3.9714
730.00,3.9180
729.00,3.8084
728.00,3.7071
727.00,3.6946
726.00,3.8131
725.00,4.0813
724.00,4.3494
723.00,4.4382
722.00,4.5005
721.00,4.4335
720.00,4.2324
719.00,4.0537
718.00,3.9736
717.00,4.0086
716.00,4.1810
715.00,4.4753
714.00,4.6888
713.00,4.6238
712.00,4.3470
711.00,4.1277
710.00,4.0292
709.00,4.0351
708.00,4.0191
707.00,3.8958
706.00,3.8160
705.00,3.8242
704.00,3.8827
703.00,3.9357
702.00,3.9399
701.00,3.9107
700.00,3.9342
