Created as New Dataset,Sample 115 By Administrator Date Wednesday, November 24 2021
cm-1,A
7502.00,1.1714
7501.00,1.1664
7500.00,1.1613
7499.00,1.1564
7498.00,1.1515
7497.00,1.1466
7496.00,1.1418
7495.00,1.1368
7494.00,1.1317
7493.00,1.1267
7492.00,1.1212
7491.00,1.1149
7490.00,1.1080
7489.00,1.1009
7488.00,1.0937
7487.00,1.0856
7486.00,1.0765
7485.00,1.0667
7484.00,1.0570
7483.00,1.0479
7482.00,1.0394
7481.00,1.0312
7480.00,1.0228
7479.00,1.0141
7478.00,1.0050
7477.00,0.9958
7476.00,0.9866
7475.00,0.9775
7474.00,0.9681
7473.00,0.9583
7472.00,0.9483
7471.00,0.9385
7470.00,0.9289
7469.00,0.9193
7468.00,0.9098
7467.00,0.9006
7466.00,0.8918
7465.00,0.8833
7464.00,0.8750
7463.00,0.8669
7462.00,0.8592
7461.00,0.8517
7460.00,0.8442
7459.00,0.8371
7458.00,0.8307
7457.00,0.8248
7456.00,0.8194
7455.00,0.8143
7454.00,0.8097
7453.00,0.8056
7452.00,0.8019
7451.00,0.7983
7450.00,0.7951
7449.00,0.7929
7448.00,0.7915
7447.00,0.7906
7446.00,0.7899
7445.00,0.7895
7444.00,0.7899
7443.00,0.7913
7442.00,0.7935
7441.00,0.7961
7440.00,0.7988
7439.00,0.8019
7438.00,0.8054
7437.00,0.8094
7436.00,0.8137
7435.00,0.8183
7434.00,0.8232
7433.00,0.8286
7432.00,0.8345
7431.00,0.8409
7430.00,0.8475
7429.00,0.8539
7428.00,0.8604
7427.00,0.8674
7426.00,0.8749
7425.00,0.8827
7424.00,0.8902
7423.00,0.8975
7422.00,0.9050
7421.00,0.9131
7420.00,0.9216
7419.00,0.9300
7418.00,0.9380
7417.00,0.9459
7416.00,0.9539
7415.00,0.9619
7414.00,0.9696
7413.00,0.9766
7412.00,0.9831
7411.00,0.9898
7410.00,0.9970
7409.00,1.0048
7408.00,1.0127
7407.00,1.0205
7406.00,1.0281
7405.00,1.0356
7404.00,1.0428
7403.00,1.0496
7402.00,1.0558
7401.00,1.0615
7400.00,1.0667
7399.00,1.0711
7398.00,1.0748
7397.00,1.0778
7396.00,1.0806
7395.00,1.0835
7394.00,1.0866
7393.00,1.0898
7392.00,1.0931
7391.00,1.0966
7390.00,1.0997
7389.00,1.1022
7388.00,1.1039
7387.00,1.1052
7386.00,1.1065
7385.00,1.1077
7384.00,1.1083
7383.00,1.1082
7382.00,1.1080
7381.00,1.1089
7380.00,1.1114
7379.00,1.1145
7378.00,1.1169
7377.00,1.1175
7376.00,1.1163
7375.00,1.1136
7374.00,1.1093
7373.00,1.1032
7372.00,1.0957
7371.00,1.0875
7370.00,1.0802
7369.00,1.0747
7368.00,1.0710
7367.00,1.0680
7366.00,1.0651
7365.00,1.0622
7364.00,1.0596
7363.00,1.0574
7362.00,1.0556
7361.00,1.0537
7360.00,1.0515
7359.00,1.0485
7358.00,1.0446
7357.00,1.0402
7356.00,1.0362
7355.00,1.0332
7354.00,1.0312
7353.00,1.0292
7352.00,1.0266
7351.00,1.0234
7350.00,1.0195
7349.00,1.0144
7348.00,1.0073
7347.00,0.9982
7346.00,0.9884
7345.00,0.9791
7344.00,0.9708
7343.00,0.9632
7342.00,0.9558
7341.00,0.9485
7340.00,0.9411
7339.00,0.9336
7338.00,0.9256
7337.00,0.9173
7336.00,0.9088
7335.00,0.9001
7334.00,0.8913
7333.00,0.8827
7332.00,0.8744
7331.00,0.8665
7330.00,0.8588
7329.00,0.8512
7328.00,0.8436
7327.00,0.8361
7326.00,0.8290
7325.00,0.8226
7324.00,0.8167
7323.00,0.8114
7322.00,0.8064
7321.00,0.8019
7320.00,0.7979
7319.00,0.7942
7318.00,0.7907
7317.00,0.7875
7316.00,0.7847
7315.00,0.7824
7314.00,0.7808
7313.00,0.7798
7312.00,0.7791
7311.00,0.7786
7310.00,0.7785
7309.00,0.7791
7308.00,0.7806
7307.00,0.7827
7306.00,0.7852
7305.00,0.7884
7304.00,0.7924
7303.00,0.7971
7302.00,0.8021
7301.00,0.8071
7300.00,0.8121
7299.00,0.8176
7298.00,0.8236
7297.00,0.8301
7296.00,0.8369
7295.00,0.8435
7294.00,0.8502
7293.00,0.8572
7292.00,0.8648
7291.00,0.8728
7290.00,0.8808
7289.00,0.8886
7288.00,0.8965
7287.00,0.9049
7286.00,0.9137
7285.00,0.9226
7284.00,0.9315
7283.00,0.9405
7282.00,0.9495
7281.00,0.9586
7280.00,0.9678
7279.00,0.9771
7278.00,0.9863
7277.00,0.9949
7276.00,1.0029
7275.00,1.0108
7274.00,1.0192
7273.00,1.0284
7272.00,1.0377
7271.00,1.0468
7270.00,1.0557
7269.00,1.0647
7268.00,1.0736
7267.00,1.0821
7266.00,1.0900
7265.00,1.0977
7264.00,1.1056
7263.00,1.1132
7262.00,1.1203
7261.00,1.1270
7260.00,1.1339
7259.00,1.1407
7258.00,1.1469
7257.00,1.1519
7256.00,1.1561
7255.00,1.1602
7254.00,1.1645
7253.00,1.1689
7252.00,1.1729
7251.00,1.1761
7250.00,1.1789
7249.00,1.1817
7248.00,1.1847
7247.00,1.1875
7246.00,1.1896
7245.00,1.1909
7244.00,1.1917
7243.00,1.1922
7242.00,1.1925
7241.00,1.1928
7240.00,1.1932
7239.00,1.1935
7238.00,1.1935
7237.00,1.1931
7236.00,1.1921
7235.00,1.1902
7234.00,1.1874
7233.00,1.1841
7232.00,1.1808
7231.00,1.1775
7230.00,1.1737
7229.00,1.1692
7228.00,1.1645
7227.00,1.1598
7226.00,1.1551
7225.00,1.1498
7224.00,1.1435
7223.00,1.1366
7222.00,1.1297
7221.00,1.1230
7220.00,1.1165
7219.00,1.1096
7218.00,1.1023
7217.00,1.0947
7216.00,1.0872
7215.00,1.0795
7214.00,1.0711
7213.00,1.0620
7212.00,1.0527
7211.00,1.0436
7210.00,1.0345
7209.00,1.0248
7208.00,1.0146
7207.00,1.0041
7206.00,0.9940
7205.00,0.9841
7204.00,0.9743
7203.00,0.9644
7202.00,0.9547
7201.00,0.9453
7200.00,0.9362
7199.00,0.9271
7198.00,0.9177
7197.00,0.9082
7196.00,0.8987
7195.00,0.8894
7194.00,0.8802
7193.00,0.8715
7192.00,0.8633
7191.00,0.8555
7190.00,0.8479
7189.00,0.8405
7188.00,0.8335
7187.00,0.8271
7186.00,0.8212
7185.00,0.8156
7184.00,0.8104
7183.00,0.8057
7182.00,0.8018
7181.00,0.7987
7180.00,0.7962
7179.00,0.7940
7178.00,0.7919
7177.00,0.7903
7176.00,0.7894
7175.00,0.7891
7174.00,0.7895
7173.00,0.7903
7172.00,0.7917
7171.00,0.7937
7170.00,0.7964
7169.00,0.7995
7168.00,0.8026
7167.00,0.8059
7166.00,0.8097
7165.00,0.8144
7164.00,0.8199
7163.00,0.8261
7162.00,0.8325
7161.00,0.8391
7160.00,0.8460
7159.00,0.8533
7158.00,0.8607
7157.00,0.8681
7156.00,0.8754
7155.00,0.8832
7154.00,0.8916
7153.00,0.9003
7152.00,0.9091
7151.00,0.9179
7150.00,0.9268
7149.00,0.9356
7148.00,0.9444
7147.00,0.9530
7146.00,0.9615
7145.00,0.9701
7144.00,0.9785
7143.00,0.9868
7142.00,0.9952
7141.00,1.0038
7140.00,1.0126
7139.00,1.0216
7138.00,1.0306
7137.00,1.0392
7136.00,1.0475
7135.00,1.0556
7134.00,1.0636
7133.00,1.0714
7132.00,1.0785
7131.00,1.0849
7130.00,1.0911
7129.00,1.0975
7128.00,1.1043
7127.00,1.1108
7126.00,1.1169
7125.00,1.1226
7124.00,1.1282
7123.00,1.1338
7122.00,1.1391
7121.00,1.1440
7120.00,1.1487
7119.00,1.1535
7118.00,1.1581
7117.00,1.1620
7116.00,1.1650
7115.00,1.1672
7114.00,1.1692
7113.00,1.1710
7112.00,1.1729
7111.00,1.1747
7110.00,1.1766
7109.00,1.1786
7108.00,1.1805
7107.00,1.1818
7106.00,1.1824
7105.00,1.1822
7104.00,1.1812
7103.00,1.1796
7102.00,1.1776
7101.00,1.1753
7100.00,1.1727
7099.00,1.1699
7098.00,1.1668
7097.00,1.1639
7096.00,1.1612
7095.00,1.1587
7094.00,1.1558
7093.00,1.1523
7092.00,1.1479
7091.00,1.1425
7090.00,1.1367
7089.00,1.1309
7088.00,1.1252
7087.00,1.1191
7086.00,1.1125
7085.00,1.1056
7084.00,1.0986
7083.00,1.0914
7082.00,1.0838
7081.00,1.0760
7080.00,1.0682
7079.00,1.0603
7078.00,1.0519
7077.00,1.0429
7076.00,1.0335
7075.00,1.0242
7074.00,1.0149
7073.00,1.0053
7072.00,0.9955
7071.00,0.9860
7070.00,0.9767
7069.00,0.9674
7068.00,0.9578
7067.00,0.9481
7066.00,0.9383
7065.00,0.9286
7064.00,0.9189
7063.00,0.9094
7062.00,0.9003
7061.00,0.8915
7060.00,0.8829
7059.00,0.8743
7058.00,0.8657
7057.00,0.8574
7056.00,0.8493
7055.00,0.8416
7054.00,0.8342
7053.00,0.8272
7052.00,0.8210
7051.00,0.8156
7050.00,0.8109
7049.00,0.8064
7048.00,0.8020
7047.00,0.7977
7046.00,0.7939
7045.00,0.7906
7044.00,0.7877
7043.00,0.7854
7042.00,0.7837
7041.00,0.7829
7040.00,0.7829
7039.00,0.7833
7038.00,0.7841
7037.00,0.7857
7036.00,0.7882
7035.00,0.7912
7034.00,0.7946
7033.00,0.7981
7032.00,0.8021
7031.00,0.8067
7030.00,0.8117
7029.00,0.8172
7028.00,0.8230
7027.00,0.8293
7026.00,0.8360
7025.00,0.8429
7024.00,0.8501
7023.00,0.8576
7022.00,0.8653
7021.00,0.8732
7020.00,0.8816
7019.00,0.8906
7018.00,0.8998
7017.00,0.9092
7016.00,0.9184
7015.00,0.9277
7014.00,0.9370
7013.00,0.9459
7012.00,0.9546
7011.00,0.9633
7010.00,0.9723
7009.00,0.9814
7008.00,0.9903
7007.00,0.9992
7006.00,1.0084
7005.00,1.0181
7004.00,1.0279
7003.00,1.0373
7002.00,1.0461
7001.00,1.0545
7000.00,1.0631
6999.00,1.0720
6998.00,1.0813
6997.00,1.0907
6996.00,1.0995
6995.00,1.1075
6994.00,1.1149
6993.00,1.1221
6992.00,1.1293
6991.00,1.1361
6990.00,1.1424
6989.00,1.1483
6988.00,1.1543
6987.00,1.1604
6986.00,1.1662
6985.00,1.1712
6984.00,1.1756
6983.00,1.1799
6982.00,1.1845
6981.00,1.1893
6980.00,1.1939
6979.00,1.1978
6978.00,1.2008
6977.00,1.2034
6976.00,1.2056
6975.00,1.2077
6974.00,1.2095
6973.00,1.2108
6972.00,1.2118
6971.00,1.2122
6970.00,1.2118
6969.00,1.2104
6968.00,1.2082
6967.00,1.2060
6966.00,1.2040
6965.00,1.2023
6964.00,1.2007
6963.00,1.1988
6962.00,1.1965
6961.00,1.1938
6960.00,1.1905
6959.00,1.1866
6958.00,1.1822
6957.00,1.1774
6956.00,1.1724
6955.00,1.1671
6954.00,1.1610
6953.00,1.1542
6952.00,1.1473
6951.00,1.1403
6950.00,1.1331
6949.00,1.1253
6948.00,1.1173
6947.00,1.1092
6946.00,1.1012
6945.00,1.0928
6944.00,1.0840
6943.00,1.0751
6942.00,1.0661
6941.00,1.0570
6940.00,1.0477
6939.00,1.0382
6938.00,1.0285
6937.00,1.0183
6936.00,1.0077
6935.00,0.9971
6934.00,0.9867
6933.00,0.9763
6932.00,0.9658
6931.00,0.9552
6930.00,0.9447
6929.00,0.9343
6928.00,0.9240
6927.00,0.9138
6926.00,0.9039
6925.00,0.8944
6924.00,0.8850
6923.00,0.8759
6922.00,0.8671
6921.00,0.8588
6920.00,0.8510
6919.00,0.8434
6918.00,0.8360
6917.00,0.8289
6916.00,0.8222
6915.00,0.8160
6914.00,0.8104
6913.00,0.8054
6912.00,0.8010
6911.00,0.7972
6910.00,0.7939
6909.00,0.7912
6908.00,0.7890
6907.00,0.7872
6906.00,0.7858
6905.00,0.7848
6904.00,0.7846
6903.00,0.7852
6902.00,0.7867
6901.00,0.7887
6900.00,0.7911
6899.00,0.7939
6898.00,0.7973
6897.00,0.8014
6896.00,0.8059
6895.00,0.8109
6894.00,0.8164
6893.00,0.8226
6892.00,0.8292
6891.00,0.8363
6890.00,0.8436
6889.00,0.8511
6888.00,0.8588
6887.00,0.8666
6886.00,0.8746
6885.00,0.8829
6884.00,0.8914
6883.00,0.9000
6882.00,0.9088
6881.00,0.9179
6880.00,0.9274
6879.00,0.9370
6878.00,0.9464
6877.00,0.9557
6876.00,0.9648
6875.00,0.9740
6874.00,0.9833
6873.00,0.9925
6872.00,1.0019
6871.00,1.0115
6870.00,1.0213
6869.00,1.0310
6868.00,1.0403
6867.00,1.0492
6866.00,1.0577
6865.00,1.0659
6864.00,1.0738
6863.00,1.0818
6862.00,1.0902
6861.00,1.0990
6860.00,1.1076
6859.00,1.1158
6858.00,1.1235
6857.00,1.1305
6856.00,1.1370
6855.00,1.1429
6854.00,1.1485
6853.00,1.1538
6852.00,1.1592
6851.00,1.1646
6850.00,1.1701
6849.00,1.1755
6848.00,1.1803
6847.00,1.1844
6846.00,1.1881
6845.00,1.1916
6844.00,1.1948
6843.00,1.1974
6842.00,1.1995
6841.00,1.2014
6840.00,1.2032
6839.00,1.2048
6838.00,1.2058
6837.00,1.2062
6836.00,1.2062
6835.00,1.2062
6834.00,1.2058
6833.00,1.2048
6832.00,1.2034
6831.00,1.2019
6830.00,1.2003
6829.00,1.1980
6828.00,1.1950
6827.00,1.1917
6826.00,1.1884
6825.00,1.1852
6824.00,1.1817
6823.00,1.1776
6822.00,1.1731
6821.00,1.1683
6820.00,1.1630
6819.00,1.1571
6818.00,1.1504
6817.00,1.1434
6816.00,1.1364
6815.00,1.1297
6814.00,1.1229
6813.00,1.1154
6812.00,1.1072
6811.00,1.0987
6810.00,1.0899
6809.00,1.0809
6808.00,1.0715
6807.00,1.0621
6806.00,1.0528
6805.00,1.0437
6804.00,1.0343
6803.00,1.0245
6802.00,1.0143
6801.00,1.0039
6800.00,0.9934
6799.00,0.9827
6798.00,0.9720
6797.00,0.9616
6796.00,0.9515
6795.00,0.9415
6794.00,0.9315
6793.00,0.9213
6792.00,0.9108
6791.00,0.9003
6790.00,0.8901
6789.00,0.8803
6788.00,0.8708
6787.00,0.8617
6786.00,0.8529
6785.00,0.8447
6784.00,0.8370
6783.00,0.8297
6782.00,0.8226
6781.00,0.8157
6780.00,0.8094
6779.00,0.8036
6778.00,0.7983
6777.00,0.7935
6776.00,0.7891
6775.00,0.7853
6774.00,0.7821
6773.00,0.7797
6772.00,0.7780
6771.00,0.7768
6770.00,0.7762
6769.00,0.7762
6768.00,0.7766
6767.00,0.7777
6766.00,0.7795
6765.00,0.7820
6764.00,0.7851
6763.00,0.7885
6762.00,0.7925
6761.00,0.7970
6760.00,0.8021
6759.00,0.8077
6758.00,0.8139
6757.00,0.8206
6756.00,0.8278
6755.00,0.8354
6754.00,0.8434
6753.00,0.8517
6752.00,0.8602
6751.00,0.8688
6750.00,0.8775
6749.00,0.8863
6748.00,0.8952
6747.00,0.9044
6746.00,0.9136
6745.00,0.9229
6744.00,0.9321
6743.00,0.9415
6742.00,0.9512
6741.00,0.9612
6740.00,0.9713
6739.00,0.9813
6738.00,0.9913
6737.00,1.0013
6736.00,1.0112
6735.00,1.0211
6734.00,1.0310
6733.00,1.0409
6732.00,1.0506
6731.00,1.0600
6730.00,1.0695
6729.00,1.0791
6728.00,1.0885
6727.00,1.0975
6726.00,1.1062
6725.00,1.1147
6724.00,1.1230
6723.00,1.1309
6722.00,1.1387
6721.00,1.1465
6720.00,1.1542
6719.00,1.1615
6718.00,1.1683
6717.00,1.1748
6716.00,1.1810
6715.00,1.1867
6714.00,1.1918
6713.00,1.1963
6712.00,1.2004
6711.00,1.2042
6710.00,1.2079
6709.00,1.2115
6708.00,1.2146
6707.00,1.2171
6706.00,1.2192
6705.00,1.2212
6704.00,1.2234
6703.00,1.2253
6702.00,1.2268
6701.00,1.2278
6700.00,1.2287
6699.00,1.2293
6698.00,1.2294
6697.00,1.2287
6696.00,1.2272
6695.00,1.2251
6694.00,1.2228
6693.00,1.2203
6692.00,1.2176
6691.00,1.2147
6690.00,1.2115
6689.00,1.2080
6688.00,1.2040
6687.00,1.1994
6686.00,1.1942
6685.00,1.1883
6684.00,1.1818
6683.00,1.1750
6682.00,1.1681
6681.00,1.1612
6680.00,1.1543
6679.00,1.1472
6678.00,1.1396
6677.00,1.1314
6676.00,1.1227
6675.00,1.1136
6674.00,1.1045
6673.00,1.0952
6672.00,1.0857
6671.00,1.0761
6670.00,1.0664
6669.00,1.0563
6668.00,1.0457
6667.00,1.0346
6666.00,1.0232
6665.00,1.0117
6664.00,1.0004
6663.00,0.9893
6662.00,0.9786
6661.00,0.9681
6660.00,0.9576
6659.00,0.9472
6658.00,0.9369
6657.00,0.9266
6656.00,0.9163
6655.00,0.9057
6654.00,0.8952
6653.00,0.8849
6652.00,0.8750
6651.00,0.8653
6650.00,0.8560
6649.00,0.8473
6648.00,0.8392
6647.00,0.8316
6646.00,0.8244
6645.00,0.8176
6644.00,0.8113
6643.00,0.8056
6642.00,0.8004
6641.00,0.7957
6640.00,0.7916
6639.00,0.7882
6638.00,0.7855
6637.00,0.7832
6636.00,0.7813
6635.00,0.7799
6634.00,0.7793
6633.00,0.7795
6632.00,0.7805
6631.00,0.7823
6630.00,0.7848
6629.00,0.7880
6628.00,0.7917
6627.00,0.7959
6626.00,0.8005
6625.00,0.8057
6624.00,0.8115
6623.00,0.8177
6622.00,0.8243
6621.00,0.8314
6620.00,0.8389
6619.00,0.8465
6618.00,0.8543
6617.00,0.8624
6616.00,0.8710
6615.00,0.8800
6614.00,0.8892
6613.00,0.8987
6612.00,0.9083
6611.00,0.9179
6610.00,0.9275
6609.00,0.9371
6608.00,0.9466
6607.00,0.9563
6606.00,0.9661
6605.00,0.9760
6604.00,0.9861
6603.00,0.9961
6602.00,1.0062
6601.00,1.0163
6600.00,1.0264
6599.00,1.0363
6598.00,1.0460
6597.00,1.0555
6596.00,1.0645
6595.00,1.0732
6594.00,1.0817
6593.00,1.0900
6592.00,1.0984
6591.00,1.1068
6590.00,1.1156
6589.00,1.1246
6588.00,1.1335
6587.00,1.1418
6586.00,1.1491
6585.00,1.1557
6584.00,1.1617
6583.00,1.1672
6582.00,1.1722
6581.00,1.1769
6580.00,1.1814
6579.00,1.1860
6578.00,1.1906
6577.00,1.1951
6576.00,1.1993
6575.00,1.2029
6574.00,1.2062
6573.00,1.2091
6572.00,1.2119
6571.00,1.2145
6570.00,1.2166
6569.00,1.2180
6568.00,1.2187
6567.00,1.2188
6566.00,1.2183
6565.00,1.2173
6564.00,1.2161
6563.00,1.2150
6562.00,1.2140
6561.00,1.2131
6560.00,1.2119
6559.00,1.2102
6558.00,1.2077
6557.00,1.2044
6556.00,1.2003
6555.00,1.1959
6554.00,1.1913
6553.00,1.1866
6552.00,1.1818
6551.00,1.1767
6550.00,1.1714
6549.00,1.1657
6548.00,1.1595
6547.00,1.1526
6546.00,1.1455
6545.00,1.1384
6544.00,1.1312
6543.00,1.1238
6542.00,1.1160
6541.00,1.1077
6540.00,1.0991
6539.00,1.0903
6538.00,1.0814
6537.00,1.0724
6536.00,1.0633
6535.00,1.0541
6534.00,1.0447
6533.00,1.0351
6532.00,1.0251
6531.00,1.0146
6530.00,1.0038
6529.00,0.9929
6528.00,0.9821
6527.00,0.9714
6526.00,0.9607
6525.00,0.9501
6524.00,0.9394
6523.00,0.9288
6522.00,0.9182
6521.00,0.9077
6520.00,0.8974
6519.00,0.8873
6518.00,0.8775
6517.00,0.8679
6516.00,0.8586
6515.00,0.8495
6514.00,0.8408
6513.00,0.8325
6512.00,0.8246
6511.00,0.8171
6510.00,0.8102
6509.00,0.8039
6508.00,0.7982
6507.00,0.7928
6506.00,0.7880
6505.00,0.7837
6504.00,0.7801
6503.00,0.7771
6502.00,0.7748
6501.00,0.7732
6500.00,0.7723
6499.00,0.7721
6498.00,0.7727
6497.00,0.7740
6496.00,0.7758
6495.00,0.7782
6494.00,0.7812
6493.00,0.7849
6492.00,0.7892
6491.00,0.7940
6490.00,0.7993
6489.00,0.8052
6488.00,0.8116
6487.00,0.8184
6486.00,0.8256
6485.00,0.8334
6484.00,0.8416
6483.00,0.8503
6482.00,0.8591
6481.00,0.8682
6480.00,0.8775
6479.00,0.8870
6478.00,0.8967
6477.00,0.9063
6476.00,0.9160
6475.00,0.9258
6474.00,0.9360
6473.00,0.9464
6472.00,0.9569
6471.00,0.9675
6470.00,0.9783
6469.00,0.9892
6468.00,1.0002
6467.00,1.0108
6466.00,1.0209
6465.00,1.0308
6464.00,1.0406
6463.00,1.0505
6462.00,1.0605
6461.00,1.0705
6460.00,1.0806
6459.00,1.0907
6458.00,1.1009
6457.00,1.1109
6456.00,1.1205
6455.00,1.1295
6454.00,1.1381
6453.00,1.1465
6452.00,1.1546
6451.00,1.1624
6450.00,1.1699
6449.00,1.1773
6448.00,1.1845
6447.00,1.1914
6446.00,1.1980
6445.00,1.2041
6444.00,1.2099
6443.00,1.2154
6442.00,1.2206
6441.00,1.2254
6440.00,1.2297
6439.00,1.2335
6438.00,1.2371
6437.00,1.2403
6436.00,1.2429
6435.00,1.2449
6434.00,1.2464
6433.00,1.2477
6432.00,1.2490
6431.00,1.2501
6430.00,1.2509
6429.00,1.2512
6428.00,1.2511
6427.00,1.2501
6426.00,1.2485
6425.00,1.2465
6424.00,1.2445
6423.00,1.2424
6422.00,1.2400
6421.00,1.2372
6420.00,1.2340
6419.00,1.2303
6418.00,1.2260
6417.00,1.2210
6416.00,1.2157
6415.00,1.2104
6414.00,1.2051
6413.00,1.1992
6412.00,1.1927
6411.00,1.1855
6410.00,1.1778
6409.00,1.1698
6408.00,1.1617
6407.00,1.1534
6406.00,1.1447
6405.00,1.1356
6404.00,1.1261
6403.00,1.1163
6402.00,1.1064
6401.00,1.0962
6400.00,1.0858
6399.00,1.0751
6398.00,1.0645
6397.00,1.0537
6396.00,1.0426
6395.00,1.0312
6394.00,1.0196
6393.00,1.0079
6392.00,0.9962
6391.00,0.9846
6390.00,0.9729
6389.00,0.9612
6388.00,0.9496
6387.00,0.9381
6386.00,0.9267
6385.00,0.9155
6384.00,0.9043
6383.00,0.8933
6382.00,0.8825
6381.00,0.8721
6380.00,0.8619
6379.00,0.8523
6378.00,0.8434
6377.00,0.8350
6376.00,0.8270
6375.00,0.8194
6374.00,0.8123
6373.00,0.8057
6372.00,0.7995
6371.00,0.7939
6370.00,0.7891
6369.00,0.7851
6368.00,0.7819
6367.00,0.7793
6366.00,0.7773
6365.00,0.7761
6364.00,0.7756
6363.00,0.7757
6362.00,0.7765
6361.00,0.7781
6360.00,0.7804
6359.00,0.7832
6358.00,0.7867
6357.00,0.7909
6356.00,0.7958
6355.00,0.8012
6354.00,0.8072
6353.00,0.8135
6352.00,0.8203
6351.00,0.8275
6350.00,0.8351
6349.00,0.8432
6348.00,0.8517
6347.00,0.8606
6346.00,0.8699
6345.00,0.8794
6344.00,0.8890
6343.00,0.8985
6342.00,0.9080
6341.00,0.9179
6340.00,0.9280
6339.00,0.9384
6338.00,0.9489
6337.00,0.9596
6336.00,0.9704
6335.00,0.9813
6334.00,0.9921
6333.00,1.0030
6332.00,1.0137
6331.00,1.0243
6330.00,1.0347
6329.00,1.0449
6328.00,1.0551
6327.00,1.0650
6326.00,1.0746
6325.00,1.0841
6324.00,1.0937
6323.00,1.1032
6322.00,1.1127
6321.00,1.1220
6320.00,1.1311
6319.00,1.1401
6318.00,1.1489
6317.00,1.1572
6316.00,1.1649
6315.00,1.1720
6314.00,1.1789
6313.00,1.1855
6312.00,1.1918
6311.00,1.1977
6310.00,1.2034
6309.00,1.2088
6308.00,1.2139
6307.00,1.2187
6306.00,1.2229
6305.00,1.2268
6304.00,1.2303
6303.00,1.2331
6302.00,1.2354
6301.00,1.2373
6300.00,1.2391
6299.00,1.2409
6298.00,1.2422
6297.00,1.2431
6296.00,1.2437
6295.00,1.2440
6294.00,1.2437
6293.00,1.2428
6292.00,1.2414
6291.00,1.2399
6290.00,1.2383
6289.00,1.2362
6288.00,1.2336
6287.00,1.2307
6286.00,1.2276
6285.00,1.2240
6284.00,1.2198
6283.00,1.2152
6282.00,1.2105
6281.00,1.2056
6280.00,1.2002
6279.00,1.1944
6278.00,1.1884
6277.00,1.1823
6276.00,1.1757
6275.00,1.1686
6274.00,1.1611
6273.00,1.1532
6272.00,1.1450
6271.00,1.1366
6270.00,1.1281
6269.00,1.1194
6268.00,1.1104
6267.00,1.1009
6266.00,1.0910
6265.00,1.0807
6264.00,1.0702
6263.00,1.0593
6262.00,1.0484
6261.00,1.0373
6260.00,1.0263
6259.00,1.0151
6258.00,1.0039
6257.00,0.9925
6256.00,0.9809
6255.00,0.9690
6254.00,0.9572
6253.00,0.9455
6252.00,0.9339
6251.00,0.9226
6250.00,0.9114
6249.00,0.9006
6248.00,0.8899
6247.00,0.8793
6246.00,0.8689
6245.00,0.8588
6244.00,0.8491
6243.00,0.8397
6242.00,0.8310
6241.00,0.8228
6240.00,0.8150
6239.00,0.8078
6238.00,0.8010
6237.00,0.7949
6236.00,0.7894
6235.00,0.7845
6234.00,0.7803
6233.00,0.7767
6232.00,0.7738
6231.00,0.7716
6230.00,0.7703
6229.00,0.7699
6228.00,0.7702
6227.00,0.7712
6226.00,0.7730
6225.00,0.7754
6224.00,0.7785
6223.00,0.7821
6222.00,0.7863
6221.00,0.7913
6220.00,0.7970
6219.00,0.8032
6218.00,0.8100
6217.00,0.8173
6216.00,0.8250
6215.00,0.8329
6214.00,0.8411
6213.00,0.8497
6212.00,0.8586
6211.00,0.8680
6210.00,0.8778
6209.00,0.8879
6208.00,0.8982
6207.00,0.9087
6206.00,0.9194
6205.00,0.9301
6204.00,0.9407
6203.00,0.9514
6202.00,0.9622
6201.00,0.9733
6200.00,0.9845
6199.00,0.9958
6198.00,1.0072
6197.00,1.0187
6196.00,1.0301
6195.00,1.0415
6194.00,1.0529
6193.00,1.0641
6192.00,1.0751
6191.00,1.0858
6190.00,1.0964
6189.00,1.1067
6188.00,1.1168
6187.00,1.1267
6186.00,1.1364
6185.00,1.1457
6184.00,1.1548
6183.00,1.1636
6182.00,1.1724
6181.00,1.1811
6180.00,1.1894
6179.00,1.1972
6178.00,1.2046
6177.00,1.2116
6176.00,1.2183
6175.00,1.2247
6174.00,1.2309
6173.00,1.2367
6172.00,1.2422
6171.00,1.2473
6170.00,1.2519
6169.00,1.2557
6168.00,1.2588
6167.00,1.2617
6166.00,1.2647
6165.00,1.2676
6164.00,1.2702
6163.00,1.2722
6162.00,1.2739
6161.00,1.2750
6160.00,1.2756
6159.00,1.2755
6158.00,1.2748
6157.00,1.2737
6156.00,1.2723
6155.00,1.2706
6154.00,1.2687
6153.00,1.2665
6152.00,1.2637
6151.00,1.2605
6150.00,1.2570
6149.00,1.2533
6148.00,1.2493
6147.00,1.2448
6146.00,1.2399
6145.00,1.2344
6144.00,1.2283
6143.00,1.2217
6142.00,1.2148
6141.00,1.2080
6140.00,1.2010
6139.00,1.1938
6138.00,1.1859
6137.00,1.1773
6136.00,1.1679
6135.00,1.1579
6134.00,1.1476
6133.00,1.1371
6132.00,1.1266
6131.00,1.1160
6130.00,1.1055
6129.00,1.0947
6128.00,1.0837
6127.00,1.0723
6126.00,1.0608
6125.00,1.0491
6124.00,1.0369
6123.00,1.0243
6122.00,1.0114
6121.00,0.9985
6120.00,0.9856
6119.00,0.9729
6118.00,0.9603
6117.00,0.9478
6116.00,0.9353
6115.00,0.9229
6114.00,0.9109
6113.00,0.8992
6112.00,0.8880
6111.00,0.8771
6110.00,0.8665
6109.00,0.8562
6108.00,0.8463
6107.00,0.8367
6106.00,0.8275
6105.00,0.8190
6104.00,0.8111
6103.00,0.8039
6102.00,0.7973
6101.00,0.7914
6100.00,0.7862
6099.00,0.7815
6098.00,0.7776
6097.00,0.7744
6096.00,0.7719
6095.00,0.7701
6094.00,0.7689
6093.00,0.7685
6092.00,0.7691
6091.00,0.7706
6090.00,0.7730
6089.00,0.7760
6088.00,0.7797
6087.00,0.7840
6086.00,0.7889
6085.00,0.7943
6084.00,0.8003
6083.00,0.8070
6082.00,0.8143
6081.00,0.8222
6080.00,0.8305
6079.00,0.8390
6078.00,0.8479
6077.00,0.8570
6076.00,0.8665
6075.00,0.8762
6074.00,0.8862
6073.00,0.8965
6072.00,0.9070
6071.00,0.9176
6070.00,0.9284
6069.00,0.9392
6068.00,0.9501
6067.00,0.9611
6066.00,0.9723
6065.00,0.9836
6064.00,0.9950
6063.00,1.0064
6062.00,1.0178
6061.00,1.0293
6060.00,1.0405
6059.00,1.0515
6058.00,1.0624
6057.00,1.0732
6056.00,1.0839
6055.00,1.0943
6054.00,1.1046
6053.00,1.1149
6052.00,1.1250
6051.00,1.1348
6050.00,1.1442
6049.00,1.1535
6048.00,1.1626
6047.00,1.1713
6046.00,1.1796
6045.00,1.1877
6044.00,1.1958
6043.00,1.2035
6042.00,1.2107
6041.00,1.2174
6040.00,1.2241
6039.00,1.2307
6038.00,1.2369
6037.00,1.2427
6036.00,1.2479
6035.00,1.2527
6034.00,1.2571
6033.00,1.2610
6032.00,1.2645
6031.00,1.2679
6030.00,1.2713
6029.00,1.2744
6028.00,1.2769
6027.00,1.2786
6026.00,1.2795
6025.00,1.2799
6024.00,1.2800
6023.00,1.2797
6022.00,1.2794
6021.00,1.2792
6020.00,1.2787
6019.00,1.2779
6018.00,1.2765
6017.00,1.2744
6016.00,1.2717
6015.00,1.2683
6014.00,1.2644
6013.00,1.2602
6012.00,1.2558
6011.00,1.2510
6010.00,1.2457
6009.00,1.2400
6008.00,1.2338
6007.00,1.2271
6006.00,1.2200
6005.00,1.2126
6004.00,1.2050
6003.00,1.1972
6002.00,1.1891
6001.00,1.1805
6000.00,1.1715
5999.00,1.1617
5998.00,1.1513
5997.00,1.1404
5996.00,1.1292
5995.00,1.1179
5994.00,1.1065
5993.00,1.0950
5992.00,1.0833
5991.00,1.0715
5990.00,1.0594
5989.00,1.0470
5988.00,1.0344
5987.00,1.0216
5986.00,1.0086
5985.00,0.9957
5984.00,0.9827
5983.00,0.9696
5982.00,0.9565
5981.00,0.9435
5980.00,0.9309
5979.00,0.9184
5978.00,0.9062
5977.00,0.8944
5976.00,0.8830
5975.00,0.8719
5974.00,0.8612
5973.00,0.8509
5972.00,0.8409
5971.00,0.8314
5970.00,0.8225
5969.00,0.8141
5968.00,0.8065
5967.00,0.7995
5966.00,0.7933
5965.00,0.7878
5964.00,0.7830
5963.00,0.7789
5962.00,0.7754
5961.00,0.7728
5960.00,0.7710
5959.00,0.7701
5958.00,0.7701
5957.00,0.7709
5956.00,0.7725
5955.00,0.7750
5954.00,0.7783
5953.00,0.7823
5952.00,0.7871
5951.00,0.7924
5950.00,0.7984
5949.00,0.8049
5948.00,0.8120
5947.00,0.8196
5946.00,0.8278
5945.00,0.8366
5944.00,0.8459
5943.00,0.8556
5942.00,0.8658
5941.00,0.8763
5940.00,0.8871
5939.00,0.8980
5938.00,0.9091
5937.00,0.9206
5936.00,0.9323
5935.00,0.9439
5934.00,0.9556
5933.00,0.9674
5932.00,0.9795
5931.00,0.9915
5930.00,1.0037
5929.00,1.0158
5928.00,1.0281
5927.00,1.0404
5926.00,1.0525
5925.00,1.0644
5924.00,1.0761
5923.00,1.0878
5922.00,1.0995
5921.00,1.1110
5920.00,1.1224
5919.00,1.1336
5918.00,1.1448
5917.00,1.1558
5916.00,1.1665
5915.00,1.1769
5914.00,1.1870
5913.00,1.1966
5912.00,1.2058
5911.00,1.2144
5910.00,1.2227
5909.00,1.2310
5908.00,1.2391
5907.00,1.2467
5906.00,1.2541
5905.00,1.2611
5904.00,1.2678
5903.00,1.2739
5902.00,1.2796
5901.00,1.2849
5900.00,1.2899
5899.00,1.2944
5898.00,1.2984
5897.00,1.3018
5896.00,1.3047
5895.00,1.3071
5894.00,1.3091
5893.00,1.3108
5892.00,1.3123
5891.00,1.3135
5890.00,1.3143
5889.00,1.3147
5888.00,1.3147
5887.00,1.3143
5886.00,1.3132
5885.00,1.3116
5884.00,1.3096
5883.00,1.3072
5882.00,1.3044
5881.00,1.3013
5880.00,1.2980
5879.00,1.2944
5878.00,1.2903
5877.00,1.2855
5876.00,1.2803
5875.00,1.2748
5874.00,1.2691
5873.00,1.2630
5872.00,1.2566
5871.00,1.2497
5870.00,1.2422
5869.00,1.2339
5868.00,1.2248
5867.00,1.2155
5866.00,1.2061
5865.00,1.1968
5864.00,1.1871
5863.00,1.1770
5862.00,1.1663
5861.00,1.1551
5860.00,1.1433
5859.00,1.1314
5858.00,1.1194
5857.00,1.1074
5856.00,1.0952
5855.00,1.0827
5854.00,1.0701
5853.00,1.0572
5852.00,1.0441
5851.00,1.0309
5850.00,1.0178
5849.00,1.0049
5848.00,0.9922
5847.00,0.9795
5846.00,0.9669
5845.00,0.9545
5844.00,0.9421
5843.00,0.9298
5842.00,0.9176
5841.00,0.9056
5840.00,0.8941
5839.00,0.8830
5838.00,0.8723
5837.00,0.8620
5836.00,0.8521
5835.00,0.8428
5834.00,0.8341
5833.00,0.8260
5832.00,0.8186
5831.00,0.8120
5830.00,0.8061
5829.00,0.8010
5828.00,0.7966
5827.00,0.7929
5826.00,0.7901
5825.00,0.7882
5824.00,0.7870
5823.00,0.7866
5822.00,0.7870
5821.00,0.7881
5820.00,0.7900
5819.00,0.7926
5818.00,0.7961
5817.00,0.8002
5816.00,0.8050
5815.00,0.8105
5814.00,0.8167
5813.00,0.8237
5812.00,0.8313
5811.00,0.8394
5810.00,0.8480
5809.00,0.8570
5808.00,0.8661
5807.00,0.8755
5806.00,0.8853
5805.00,0.8954
5804.00,0.9060
5803.00,0.9169
5802.00,0.9282
5801.00,0.9398
5800.00,0.9516
5799.00,0.9635
5798.00,0.9755
5797.00,0.9876
5796.00,0.9996
5795.00,1.0117
5794.00,1.0237
5793.00,1.0359
5792.00,1.0480
5791.00,1.0600
5790.00,1.0719
5789.00,1.0837
5788.00,1.0954
5787.00,1.1071
5786.00,1.1188
5785.00,1.1305
5784.00,1.1419
5783.00,1.1531
5782.00,1.1641
5781.00,1.1749
5780.00,1.1855
5779.00,1.1959
5778.00,1.2059
5777.00,1.2155
5776.00,1.2247
5775.00,1.2335
5774.00,1.2422
5773.00,1.2508
5772.00,1.2589
5771.00,1.2665
5770.00,1.2736
5769.00,1.2801
5768.00,1.2861
5767.00,1.2916
5766.00,1.2966
5765.00,1.3015
5764.00,1.3062
5763.00,1.3107
5762.00,1.3149
5761.00,1.3186
5760.00,1.3217
5759.00,1.3241
5758.00,1.3258
5757.00,1.3271
5756.00,1.3281
5755.00,1.3292
5754.00,1.3302
5753.00,1.3308
5752.00,1.3309
5751.00,1.3303
5750.00,1.3291
5749.00,1.3275
5748.00,1.3256
5747.00,1.3233
5746.00,1.3205
5745.00,1.3171
5744.00,1.3131
5743.00,1.3087
5742.00,1.3041
5741.00,1.2994
5740.00,1.2944
5739.00,1.2889
5738.00,1.2829
5737.00,1.2763
5736.00,1.2691
5735.00,1.2616
5734.00,1.2538
5733.00,1.2457
5732.00,1.2371
5731.00,1.2281
5730.00,1.2184
5729.00,1.2081
5728.00,1.1974
5727.00,1.1864
5726.00,1.1752
5725.00,1.1639
5724.00,1.1525
5723.00,1.1408
5722.00,1.1290
5721.00,1.1168
5720.00,1.1042
5719.00,1.0913
5718.00,1.0780
5717.00,1.0645
5716.00,1.0507
5715.00,1.0369
5714.00,1.0231
5713.00,1.0092
5712.00,0.9953
5711.00,0.9814
5710.00,0.9675
5709.00,0.9539
5708.00,0.9406
5707.00,0.9275
5706.00,0.9148
5705.00,0.9023
5704.00,0.8901
5703.00,0.8783
5702.00,0.8669
5701.00,0.8561
5700.00,0.8458
5699.00,0.8361
5698.00,0.8270
5697.00,0.8186
5696.00,0.8108
5695.00,0.8037
5694.00,0.7974
5693.00,0.7919
5692.00,0.7873
5691.00,0.7834
5690.00,0.7805
5689.00,0.7783
5688.00,0.7770
5687.00,0.7767
5686.00,0.7773
5685.00,0.7790
5684.00,0.7815
5683.00,0.7848
5682.00,0.7889
5681.00,0.7936
5680.00,0.7991
5679.00,0.8053
5678.00,0.8122
5677.00,0.8200
5676.00,0.8283
5675.00,0.8370
5674.00,0.8462
5673.00,0.8559
5672.00,0.8661
5671.00,0.8768
5670.00,0.8879
5669.00,0.8994
5668.00,0.9112
5667.00,0.9231
5666.00,0.9351
5665.00,0.9473
5664.00,0.9597
5663.00,0.9722
5662.00,0.9849
5661.00,0.9976
5660.00,1.0103
5659.00,1.0230
5658.00,1.0358
5657.00,1.0486
5656.00,1.0613
5655.00,1.0740
5654.00,1.0865
5653.00,1.0990
5652.00,1.1112
5651.00,1.1232
5650.00,1.1349
5649.00,1.1464
5648.00,1.1578
5647.00,1.1690
5646.00,1.1800
5645.00,1.1908
5644.00,1.2015
5643.00,1.2119
5642.00,1.2219
5641.00,1.2313
5640.00,1.2402
5639.00,1.2486
5638.00,1.2566
5637.00,1.2641
5636.00,1.2712
5635.00,1.2778
5634.00,1.2842
5633.00,1.2902
5632.00,1.2958
5631.00,1.3010
5630.00,1.3059
5629.00,1.3105
5628.00,1.3145
5627.00,1.3179
5626.00,1.3205
5625.00,1.3227
5624.00,1.3244
5623.00,1.3258
5622.00,1.3267
5621.00,1.3273
5620.00,1.3277
5619.00,1.3279
5618.00,1.3279
5617.00,1.3278
5616.00,1.3272
5615.00,1.3261
5614.00,1.3245
5613.00,1.3223
5612.00,1.3197
5611.00,1.3171
5610.00,1.3144
5609.00,1.3115
5608.00,1.3082
5607.00,1.3041
5606.00,1.2993
5605.00,1.2937
5604.00,1.2879
5603.00,1.2819
5602.00,1.2756
5601.00,1.2690
5600.00,1.2619
5599.00,1.2544
5598.00,1.2466
5597.00,1.2383
5596.00,1.2296
5595.00,1.2204
5594.00,1.2106
5593.00,1.2005
5592.00,1.1899
5591.00,1.1788
5590.00,1.1675
5589.00,1.1560
5588.00,1.1441
5587.00,1.1320
5586.00,1.1194
5585.00,1.1065
5584.00,1.0932
5583.00,1.0797
5582.00,1.0660
5581.00,1.0521
5580.00,1.0382
5579.00,1.0243
5578.00,1.0104
5577.00,0.9964
5576.00,0.9822
5575.00,0.9679
5574.00,0.9538
5573.00,0.9398
5572.00,0.9260
5571.00,0.9126
5570.00,0.8995
5569.00,0.8868
5568.00,0.8745
5567.00,0.8625
5566.00,0.8510
5565.00,0.8401
5564.00,0.8298
5563.00,0.8202
5562.00,0.8114
5561.00,0.8033
5560.00,0.7960
5559.00,0.7894
5558.00,0.7837
5557.00,0.7790
5556.00,0.7751
5555.00,0.7722
5554.00,0.7702
5553.00,0.7692
5552.00,0.7691
5551.00,0.7700
5550.00,0.7717
5549.00,0.7744
5548.00,0.7779
5547.00,0.7822
5546.00,0.7874
5545.00,0.7933
5544.00,0.8000
5543.00,0.8075
5542.00,0.8156
5541.00,0.8244
5540.00,0.8338
5539.00,0.8436
5538.00,0.8540
5537.00,0.8649
5536.00,0.8763
5535.00,0.8881
5534.00,0.9002
5533.00,0.9127
5532.00,0.9253
5531.00,0.9379
5530.00,0.9507
5529.00,0.9636
5528.00,0.9766
5527.00,0.9899
5526.00,1.0033
5525.00,1.0170
5524.00,1.0307
5523.00,1.0443
5522.00,1.0579
5521.00,1.0714
5520.00,1.0847
5519.00,1.0979
5518.00,1.1109
5517.00,1.1239
5516.00,1.1368
5515.00,1.1494
5514.00,1.1618
5513.00,1.1739
5512.00,1.1856
5511.00,1.1970
5510.00,1.2080
5509.00,1.2189
5508.00,1.2297
5507.00,1.2402
5506.00,1.2503
5505.00,1.2600
5504.00,1.2690
5503.00,1.2776
5502.00,1.2859
5501.00,1.2940
5500.00,1.3018
5499.00,1.3090
5498.00,1.3157
5497.00,1.3220
5496.00,1.3278
5495.00,1.3333
5494.00,1.3383
5493.00,1.3431
5492.00,1.3477
5491.00,1.3518
5490.00,1.3552
5489.00,1.3579
5488.00,1.3600
5487.00,1.3617
5486.00,1.3629
5485.00,1.3637
5484.00,1.3641
5483.00,1.3644
5482.00,1.3645
5481.00,1.3642
5480.00,1.3636
5479.00,1.3625
5478.00,1.3609
5477.00,1.3585
5476.00,1.3552
5475.00,1.3512
5474.00,1.3469
5473.00,1.3425
5472.00,1.3382
5471.00,1.3335
5470.00,1.3283
5469.00,1.3224
5468.00,1.3158
5467.00,1.3087
5466.00,1.3011
5465.00,1.2931
5464.00,1.2848
5463.00,1.2760
5462.00,1.2669
5461.00,1.2573
5460.00,1.2475
5459.00,1.2374
5458.00,1.2269
5457.00,1.2159
5456.00,1.2043
5455.00,1.1922
5454.00,1.1796
5453.00,1.1667
5452.00,1.1535
5451.00,1.1400
5450.00,1.1263
5449.00,1.1122
5448.00,1.0977
5447.00,1.0829
5446.00,1.0678
5445.00,1.0527
5444.00,1.0376
5443.00,1.0225
5442.00,1.0074
5441.00,0.9923
5440.00,0.9773
5439.00,0.9624
5438.00,0.9476
5437.00,0.9331
5436.00,0.9187
5435.00,0.9044
5434.00,0.8904
5433.00,0.8769
5432.00,0.8641
5431.00,0.8519
5430.00,0.8404
5429.00,0.8294
5428.00,0.8189
5427.00,0.8090
5426.00,0.7999
5425.00,0.7918
5424.00,0.7846
5423.00,0.7785
5422.00,0.7734
5421.00,0.7693
5420.00,0.7662
5419.00,0.7640
5418.00,0.7626
5417.00,0.7622
5416.00,0.7626
5415.00,0.7640
5414.00,0.7663
5413.00,0.7694
5412.00,0.7734
5411.00,0.7783
5410.00,0.7842
5409.00,0.7911
5408.00,0.7987
5407.00,0.8070
5406.00,0.8161
5405.00,0.8257
5404.00,0.8359
5403.00,0.8465
5402.00,0.8576
5401.00,0.8691
5400.00,0.8807
5399.00,0.8926
5398.00,0.9048
5397.00,0.9174
5396.00,0.9304
5395.00,0.9439
5394.00,0.9576
5393.00,0.9715
5392.00,0.9852
5391.00,0.9989
5390.00,1.0125
5389.00,1.0261
5388.00,1.0398
5387.00,1.0536
5386.00,1.0678
5385.00,1.0821
5384.00,1.0964
5383.00,1.1105
5382.00,1.1244
5381.00,1.1378
5380.00,1.1508
5379.00,1.1633
5378.00,1.1756
5377.00,1.1877
5376.00,1.1996
5375.00,1.2114
5374.00,1.2231
5373.00,1.2344
5372.00,1.2454
5371.00,1.2561
5370.00,1.2664
5369.00,1.2765
5368.00,1.2861
5367.00,1.2951
5366.00,1.3035
5365.00,1.3115
5364.00,1.3192
5363.00,1.3266
5362.00,1.3335
5361.00,1.3402
5360.00,1.3465
5359.00,1.3522
5358.00,1.3571
5357.00,1.3611
5356.00,1.3645
5355.00,1.3676
5354.00,1.3705
5353.00,1.3734
5352.00,1.3762
5351.00,1.3786
5350.00,1.3804
5349.00,1.3815
5348.00,1.3819
5347.00,1.3819
5346.00,1.3814
5345.00,1.3804
5344.00,1.3790
5343.00,1.3770
5342.00,1.3746
5341.00,1.3718
5340.00,1.3687
5339.00,1.3652
5338.00,1.3614
5337.00,1.3569
5336.00,1.3518
5335.00,1.3460
5334.00,1.3399
5333.00,1.3335
5332.00,1.3269
5331.00,1.3200
5330.00,1.3127
5329.00,1.3048
5328.00,1.2962
5327.00,1.2869
5326.00,1.2769
5325.00,1.2665
5324.00,1.2560
5323.00,1.2453
5322.00,1.2344
5321.00,1.2230
5320.00,1.2112
5319.00,1.1989
5318.00,1.1860
5317.00,1.1727
5316.00,1.1588
5315.00,1.1446
5314.00,1.1300
5313.00,1.1152
5312.00,1.1002
5311.00,1.0851
5310.00,1.0699
5309.00,1.0544
5308.00,1.0387
5307.00,1.0229
5306.00,1.0070
5305.00,0.9914
5304.00,0.9759
5303.00,0.9606
5302.00,0.9454
5301.00,0.9304
5300.00,0.9156
5299.00,0.9012
5298.00,0.8874
5297.00,0.8742
5296.00,0.8616
5295.00,0.8496
5294.00,0.8384
5293.00,0.8278
5292.00,0.8181
5291.00,0.8090
5290.00,0.8008
5289.00,0.7934
5288.00,0.7870
5287.00,0.7816
5286.00,0.7772
5285.00,0.7738
5284.00,0.7715
5283.00,0.7702
5282.00,0.7699
5281.00,0.7708
5280.00,0.7727
5279.00,0.7758
5278.00,0.7798
5277.00,0.7849
5276.00,0.7908
5275.00,0.7977
5274.00,0.8053
5273.00,0.8137
5272.00,0.8228
5271.00,0.8324
5270.00,0.8427
5269.00,0.8536
5268.00,0.8650
5267.00,0.8769
5266.00,0.8892
5265.00,0.9020
5264.00,0.9152
5263.00,0.9288
5262.00,0.9427
5261.00,0.9569
5260.00,0.9713
5259.00,0.9857
5258.00,1.0001
5257.00,1.0145
5256.00,1.0291
5255.00,1.0439
5254.00,1.0587
5253.00,1.0735
5252.00,1.0882
5251.00,1.1025
5250.00,1.1167
5249.00,1.1308
5248.00,1.1449
5247.00,1.1589
5246.00,1.1729
5245.00,1.1866
5244.00,1.1999
5243.00,1.2126
5242.00,1.2250
5241.00,1.2372
5240.00,1.2492
5239.00,1.2611
5238.00,1.2726
5237.00,1.2837
5236.00,1.2942
5235.00,1.3042
5234.00,1.3136
5233.00,1.3227
5232.00,1.3315
5231.00,1.3399
5230.00,1.3478
5229.00,1.3552
5228.00,1.3622
5227.00,1.3689
5226.00,1.3752
5225.00,1.3808
5224.00,1.3857
5223.00,1.3900
5222.00,1.3938
5221.00,1.3972
5220.00,1.4004
5219.00,1.4034
5218.00,1.4061
5217.00,1.4084
5216.00,1.4103
5215.00,1.4118
5214.00,1.4128
5213.00,1.4132
5212.00,1.4130
5211.00,1.4124
5210.00,1.4114
5209.00,1.4099
5208.00,1.4079
5207.00,1.4052
5206.00,1.4020
5205.00,1.3984
5204.00,1.3946
5203.00,1.3906
5202.00,1.3863
5201.00,1.3815
5200.00,1.3761
5199.00,1.3700
5198.00,1.3636
5197.00,1.3568
5196.00,1.3497
5195.00,1.3420
5194.00,1.3337
5193.00,1.3248
5192.00,1.3153
5191.00,1.3054
5190.00,1.2952
5189.00,1.2845
5188.00,1.2734
5187.00,1.2619
5186.00,1.2498
5185.00,1.2372
5184.00,1.2241
5183.00,1.2107
5182.00,1.1968
5181.00,1.1826
5180.00,1.1681
5179.00,1.1532
5178.00,1.1382
5177.00,1.1228
5176.00,1.1071
5175.00,1.0911
5174.00,1.0749
5173.00,1.0586
5172.00,1.0422
5171.00,1.0256
5170.00,1.0091
5169.00,0.9927
5168.00,0.9764
5167.00,0.9602
5166.00,0.9443
5165.00,0.9287
5164.00,0.9135
5163.00,0.8987
5162.00,0.8844
5161.00,0.8706
5160.00,0.8575
5159.00,0.8449
5158.00,0.8331
5157.00,0.8220
5156.00,0.8118
5155.00,0.8026
5154.00,0.7943
5153.00,0.7871
5152.00,0.7808
5151.00,0.7755
5150.00,0.7713
5149.00,0.7683
5148.00,0.7664
5147.00,0.7656
5146.00,0.7660
5145.00,0.7675
5144.00,0.7701
5143.00,0.7737
5142.00,0.7785
5141.00,0.7842
5140.00,0.7910
5139.00,0.7986
5138.00,0.8070
5137.00,0.8162
5136.00,0.8260
5135.00,0.8365
5134.00,0.8476
5133.00,0.8594
5132.00,0.8717
5131.00,0.8846
5130.00,0.8979
5129.00,0.9116
5128.00,0.9256
5127.00,0.9399
5126.00,0.9544
5125.00,0.9691
5124.00,0.9841
5123.00,0.9993
5122.00,1.0146
5121.00,1.0300
5120.00,1.0455
5119.00,1.0608
5118.00,1.0760
5117.00,1.0910
5116.00,1.1060
5115.00,1.1209
5114.00,1.1359
5113.00,1.1508
5112.00,1.1654
5111.00,1.1796
5110.00,1.1935
5109.00,1.2071
5108.00,1.2206
5107.00,1.2339
5106.00,1.2471
5105.00,1.2599
5104.00,1.2722
5103.00,1.2840
5102.00,1.2952
5101.00,1.3059
5100.00,1.3164
5099.00,1.3266
5098.00,1.3366
5097.00,1.3462
5096.00,1.3554
5095.00,1.3638
5094.00,1.3716
5093.00,1.3787
5092.00,1.3855
5091.00,1.3919
5090.00,1.3980
5089.00,1.4036
5088.00,1.4086
5087.00,1.4132
5086.00,1.4176
5085.00,1.4217
5084.00,1.4256
5083.00,1.4290
5082.00,1.4318
5081.00,1.4339
5080.00,1.4353
5079.00,1.4362
5078.00,1.4366
5077.00,1.4364
5076.00,1.4355
5075.00,1.4342
5074.00,1.4327
5073.00,1.4312
5072.00,1.4295
5071.00,1.4275
5070.00,1.4251
5069.00,1.4219
5068.00,1.4179
5067.00,1.4132
5066.00,1.4079
5065.00,1.4023
5064.00,1.3963
5063.00,1.3899
5062.00,1.3829
5061.00,1.3754
5060.00,1.3673
5059.00,1.3587
5058.00,1.3497
5057.00,1.3405
5056.00,1.3308
5055.00,1.3207
5054.00,1.3102
5053.00,1.2991
5052.00,1.2875
5051.00,1.2752
5050.00,1.2623
5049.00,1.2488
5048.00,1.2348
5047.00,1.2206
5046.00,1.2060
5045.00,1.1913
5044.00,1.1761
5043.00,1.1605
5042.00,1.1444
5041.00,1.1280
5040.00,1.1112
5039.00,1.0941
5038.00,1.0770
5037.00,1.0597
5036.00,1.0424
5035.00,1.0251
5034.00,1.0078
5033.00,0.9905
5032.00,0.9734
5031.00,0.9565
5030.00,0.9400
5029.00,0.9239
5028.00,0.9082
5027.00,0.8930
5026.00,0.8783
5025.00,0.8644
5024.00,0.8510
5023.00,0.8384
5022.00,0.8266
5021.00,0.8157
5020.00,0.8057
5019.00,0.7968
5018.00,0.7891
5017.00,0.7825
5016.00,0.7771
5015.00,0.7728
5014.00,0.7698
5013.00,0.7680
5012.00,0.7675
5011.00,0.7680
5010.00,0.7698
5009.00,0.7727
5008.00,0.7767
5007.00,0.7820
5006.00,0.7883
5005.00,0.7957
5004.00,0.8040
5003.00,0.8131
5002.00,0.8231
5001.00,0.8339
5000.00,0.8456
4999.00,0.8579
4998.00,0.8709
4997.00,0.8843
4996.00,0.8982
4995.00,0.9124
4994.00,0.9271
4993.00,0.9423
4992.00,0.9577
4991.00,0.9733
4990.00,0.9891
4989.00,1.0050
4988.00,1.0210
4987.00,1.0372
4986.00,1.0534
4985.00,1.0696
4984.00,1.0857
4983.00,1.1018
4982.00,1.1179
4981.00,1.1339
4980.00,1.1497
4979.00,1.1652
4978.00,1.1805
4977.00,1.1955
4976.00,1.2103
4975.00,1.2249
4974.00,1.2392
4973.00,1.2531
4972.00,1.2665
4971.00,1.2795
4970.00,1.2922
4969.00,1.3050
4968.00,1.3177
4967.00,1.3301
4966.00,1.3418
4965.00,1.3525
4964.00,1.3622
4963.00,1.3713
4962.00,1.3802
4961.00,1.3888
4960.00,1.3972
4959.00,1.4051
4958.00,1.4124
4957.00,1.4191
4956.00,1.4253
4955.00,1.4314
4954.00,1.4373
4953.00,1.4429
4952.00,1.4479
4951.00,1.4521
4950.00,1.4555
4949.00,1.4581
4948.00,1.4601
4947.00,1.4618
4946.00,1.4634
4945.00,1.4648
4944.00,1.4658
4943.00,1.4664
4942.00,1.4663
4941.00,1.4655
4940.00,1.4642
4939.00,1.4625
4938.00,1.4605
4937.00,1.4581
4936.00,1.4551
4935.00,1.4516
4934.00,1.4476
4933.00,1.4432
4932.00,1.4383
4931.00,1.4329
4930.00,1.4273
4929.00,1.4212
4928.00,1.4145
4927.00,1.4072
4926.00,1.3994
4925.00,1.3912
4924.00,1.3825
4923.00,1.3733
4922.00,1.3636
4921.00,1.3534
4920.00,1.3428
4919.00,1.3317
4918.00,1.3201
4917.00,1.3079
4916.00,1.2951
4915.00,1.2817
4914.00,1.2678
4913.00,1.2535
4912.00,1.2386
4911.00,1.2232
4910.00,1.2074
4909.00,1.1911
4908.00,1.1745
4907.00,1.1577
4906.00,1.1407
4905.00,1.1234
4904.00,1.1059
4903.00,1.0880
4902.00,1.0699
4901.00,1.0517
4900.00,1.0333
4899.00,1.0149
4898.00,0.9967
4897.00,0.9785
4896.00,0.9606
4895.00,0.9429
4894.00,0.9255
4893.00,0.9087
4892.00,0.8923
4891.00,0.8767
4890.00,0.8618
4889.00,0.8477
4888.00,0.8344
4887.00,0.8220
4886.00,0.8104
4885.00,0.8000
4884.00,0.7906
4883.00,0.7823
4882.00,0.7754
4881.00,0.7697
4880.00,0.7653
4879.00,0.7622
4878.00,0.7604
4877.00,0.7599
4876.00,0.7608
4875.00,0.7630
4874.00,0.7665
4873.00,0.7713
4872.00,0.7773
4871.00,0.7844
4870.00,0.7926
4869.00,0.8018
4868.00,0.8120
4867.00,0.8230
4866.00,0.8348
4865.00,0.8474
4864.00,0.8605
4863.00,0.8743
4862.00,0.8886
4861.00,0.9033
4860.00,0.9185
4859.00,0.9341
4858.00,0.9500
4857.00,0.9662
4856.00,0.9827
4855.00,0.9993
4854.00,1.0162
4853.00,1.0331
4852.00,1.0501
4851.00,1.0670
4850.00,1.0839
4849.00,1.1008
4848.00,1.1177
4847.00,1.1347
4846.00,1.1516
4845.00,1.1683
4844.00,1.1848
4843.00,1.2009
4842.00,1.2167
4841.00,1.2323
4840.00,1.2475
4839.00,1.2625
4838.00,1.2769
4837.00,1.2910
4836.00,1.3045
4835.00,1.3177
4834.00,1.3308
4833.00,1.3437
4832.00,1.3562
4831.00,1.3682
4830.00,1.3793
4829.00,1.3897
4828.00,1.3994
4827.00,1.4086
4826.00,1.4174
4825.00,1.4259
4824.00,1.4339
4823.00,1.4413
4822.00,1.4484
4821.00,1.4552
4820.00,1.4617
4819.00,1.4676
4818.00,1.4728
4817.00,1.4772
4816.00,1.4809
4815.00,1.4844
4814.00,1.4876
4813.00,1.4905
4812.00,1.4929
4811.00,1.4947
4810.00,1.4960
4809.00,1.4970
4808.00,1.4976
4807.00,1.4976
4806.00,1.4970
4805.00,1.4957
4804.00,1.4937
4803.00,1.4914
4802.00,1.4889
4801.00,1.4862
4800.00,1.4831
4799.00,1.4794
4798.00,1.4751
4797.00,1.4702
4796.00,1.4649
4795.00,1.4591
4794.00,1.4530
4793.00,1.4464
4792.00,1.4392
4791.00,1.4313
4790.00,1.4227
4789.00,1.4137
4788.00,1.4044
4787.00,1.3949
4786.00,1.3850
4785.00,1.3743
4784.00,1.3627
4783.00,1.3503
4782.00,1.3373
4781.00,1.3239
4780.00,1.3102
4779.00,1.2961
4778.00,1.2815
4777.00,1.2663
4776.00,1.2505
4775.00,1.2342
4774.00,1.2175
4773.00,1.2004
4772.00,1.1829
4771.00,1.1651
4770.00,1.1468
4769.00,1.1283
4768.00,1.1094
4767.00,1.0903
4766.00,1.0710
4765.00,1.0518
4764.00,1.0325
4763.00,1.0134
4762.00,0.9945
4761.00,0.9758
4760.00,0.9574
4759.00,0.9393
4758.00,0.9217
4757.00,0.9047
4756.00,0.8883
4755.00,0.8727
4754.00,0.8580
4753.00,0.8441
4752.00,0.8311
4751.00,0.8192
4750.00,0.8085
4749.00,0.7990
4748.00,0.7908
4747.00,0.7838
4746.00,0.7783
4745.00,0.7742
4744.00,0.7714
4743.00,0.7701
4742.00,0.7703
4741.00,0.7718
4740.00,0.7747
4739.00,0.7790
4738.00,0.7847
4737.00,0.7916
4736.00,0.7997
4735.00,0.8089
4734.00,0.8191
4733.00,0.8303
4732.00,0.8423
4731.00,0.8552
4730.00,0.8688
4729.00,0.8831
4728.00,0.8980
4727.00,0.9135
4726.00,0.9294
4725.00,0.9457
4724.00,0.9623
4723.00,0.9793
4722.00,0.9966
4721.00,1.0141
4720.00,1.0318
4719.00,1.0496
4718.00,1.0675
4717.00,1.0854
4716.00,1.1033
4715.00,1.1213
4714.00,1.1392
4713.00,1.1570
4712.00,1.1747
4711.00,1.1921
4710.00,1.2092
4709.00,1.2261
4708.00,1.2428
4707.00,1.2593
4706.00,1.2755
4705.00,1.2914
4704.00,1.3069
4703.00,1.3219
4702.00,1.3363
4701.00,1.3501
4700.00,1.3634
4699.00,1.3764
4698.00,1.3890
4697.00,1.4012
4696.00,1.4127
4695.00,1.4236
4694.00,1.4339
4693.00,1.4435
4692.00,1.4525
4691.00,1.4610
4690.00,1.4691
4689.00,1.4768
4688.00,1.4842
4687.00,1.4913
4686.00,1.4982
4685.00,1.5046
4684.00,1.5103
4683.00,1.5152
4682.00,1.5192
4681.00,1.5226
4680.00,1.5257
4679.00,1.5285
4678.00,1.5310
4677.00,1.5330
4676.00,1.5346
4675.00,1.5356
4674.00,1.5362
4673.00,1.5364
4672.00,1.5361
4671.00,1.5352
4670.00,1.5337
4669.00,1.5317
4668.00,1.5293
4667.00,1.5265
4666.00,1.5233
4665.00,1.5196
4664.00,1.5154
4663.00,1.5108
4662.00,1.5058
4661.00,1.5003
4660.00,1.4944
4659.00,1.4879
4658.00,1.4807
4657.00,1.4728
4656.00,1.4644
4655.00,1.4555
4654.00,1.4462
4653.00,1.4365
4652.00,1.4262
4651.00,1.4155
4650.00,1.4043
4649.00,1.3926
4648.00,1.3804
4647.00,1.3676
4646.00,1.3542
4645.00,1.3401
4644.00,1.3254
4643.00,1.3100
4642.00,1.2941
4641.00,1.2777
4640.00,1.2609
4639.00,1.2436
4638.00,1.2259
4637.00,1.2078
4636.00,1.1891
4635.00,1.1701
4634.00,1.1507
4633.00,1.1310
4632.00,1.1109
4631.00,1.0906
4630.00,1.0702
4629.00,1.0499
4628.00,1.0297
4627.00,1.0097
4626.00,0.9900
4625.00,0.9705
4624.00,0.9516
4623.00,0.9331
4622.00,0.9153
4621.00,0.8982
4620.00,0.8817
4619.00,0.8661
4618.00,0.8515
4617.00,0.8380
4616.00,0.8258
4615.00,0.8148
4614.00,0.8051
4613.00,0.7967
4612.00,0.7897
4611.00,0.7840
4610.00,0.7798
4609.00,0.7772
4608.00,0.7760
4607.00,0.7764
4606.00,0.7783
4605.00,0.7817
4604.00,0.7864
4603.00,0.7925
4602.00,0.7999
4601.00,0.8086
4600.00,0.8183
4599.00,0.8291
4598.00,0.8409
4597.00,0.8537
4596.00,0.8673
4595.00,0.8817
4594.00,0.8968
4593.00,0.9126
4592.00,0.9288
4591.00,0.9455
4590.00,0.9626
4589.00,0.9801
4588.00,0.9979
4587.00,1.0161
4586.00,1.0344
4585.00,1.0527
4584.00,1.0712
4583.00,1.0896
4582.00,1.1081
4581.00,1.1266
4580.00,1.1451
4579.00,1.1637
4578.00,1.1822
4577.00,1.2006
4576.00,1.2188
4575.00,1.2366
4574.00,1.2541
4573.00,1.2713
4572.00,1.2881
4571.00,1.3047
4570.00,1.3209
4569.00,1.3367
4568.00,1.3519
4567.00,1.3666
4566.00,1.3808
4565.00,1.3946
4564.00,1.4079
4563.00,1.4209
4562.00,1.4334
4561.00,1.4452
4560.00,1.4564
4559.00,1.4668
4558.00,1.4765
4557.00,1.4855
4556.00,1.4941
4555.00,1.5023
4554.00,1.5101
4553.00,1.5176
4552.00,1.5247
4551.00,1.5314
4550.00,1.5378
4549.00,1.5435
4548.00,1.5486
4547.00,1.5530
4546.00,1.5567
4545.00,1.5597
4544.00,1.5622
4543.00,1.5644
4542.00,1.5663
4541.00,1.5680
4540.00,1.5694
4539.00,1.5701
4538.00,1.5702
4537.00,1.5696
4536.00,1.5684
4535.00,1.5670
4534.00,1.5652
4533.00,1.5632
4532.00,1.5608
4531.00,1.5580
4530.00,1.5547
4529.00,1.5506
4528.00,1.5456
4527.00,1.5398
4526.00,1.5334
4525.00,1.5269
4524.00,1.5202
4523.00,1.5133
4522.00,1.5058
4521.00,1.4975
4520.00,1.4884
4519.00,1.4787
4518.00,1.4686
4517.00,1.4581
4516.00,1.4470
4515.00,1.4354
4514.00,1.4232
4513.00,1.4103
4512.00,1.3969
4511.00,1.3829
4510.00,1.3682
4509.00,1.3527
4508.00,1.3366
4507.00,1.3200
4506.00,1.3029
4505.00,1.2853
4504.00,1.2672
4503.00,1.2486
4502.00,1.2294
4501.00,1.2098
4500.00,1.1897
4499.00,1.1692
4498.00,1.1484
4497.00,1.1273
4496.00,1.1061
4495.00,1.0847
4494.00,1.0634
4493.00,1.0422
4492.00,1.0211
4491.00,1.0002
4490.00,0.9796
4489.00,0.9596
4488.00,0.9401
4487.00,0.9213
4486.00,0.9032
4485.00,0.8861
4484.00,0.8699
4483.00,0.8548
4482.00,0.8409
4481.00,0.8284
4480.00,0.8172
4479.00,0.8074
4478.00,0.7992
4477.00,0.7926
4476.00,0.7876
4475.00,0.7844
4474.00,0.7828
4473.00,0.7829
4472.00,0.7847
4471.00,0.7881
4470.00,0.7930
4469.00,0.7996
4468.00,0.8076
4467.00,0.8170
4466.00,0.8277
4465.00,0.8396
4464.00,0.8526
4463.00,0.8665
4462.00,0.8813
4461.00,0.8969
4460.00,0.9132
4459.00,0.9301
4458.00,0.9475
4457.00,0.9656
4456.00,0.9841
4455.00,1.0031
4454.00,1.0223
4453.00,1.0418
4452.00,1.0613
4451.00,1.0809
4450.00,1.1006
4449.00,1.1203
4448.00,1.1402
4447.00,1.1601
4446.00,1.1801
4445.00,1.1999
4444.00,1.2195
4443.00,1.2387
4442.00,1.2577
4441.00,1.2765
4440.00,1.2950
4439.00,1.3133
4438.00,1.3311
4437.00,1.3485
4436.00,1.3653
4435.00,1.3815
4434.00,1.3972
4433.00,1.4123
4432.00,1.4270
4431.00,1.4411
4430.00,1.4547
4429.00,1.4677
4428.00,1.4801
4427.00,1.4919
4426.00,1.5029
4425.00,1.5132
4424.00,1.5229
4423.00,1.5321
4422.00,1.5410
4421.00,1.5496
4420.00,1.5577
4419.00,1.5653
4418.00,1.5722
4417.00,1.5783
4416.00,1.5839
4415.00,1.5890
4414.00,1.5938
4413.00,1.5982
4412.00,1.6021
4411.00,1.6053
4410.00,1.6078
4409.00,1.6096
4408.00,1.6109
4407.00,1.6119
4406.00,1.6129
4405.00,1.6138
4404.00,1.6143
4403.00,1.6139
4402.00,1.6127
4401.00,1.6109
4400.00,1.6088
4399.00,1.6064
4398.00,1.6038
4397.00,1.6008
4396.00,1.5972
4395.00,1.5929
4394.00,1.5881
4393.00,1.5827
4392.00,1.5770
4391.00,1.5710
4390.00,1.5647
4389.00,1.5578
4388.00,1.5503
4387.00,1.5421
4386.00,1.5334
4385.00,1.5242
4384.00,1.5145
4383.00,1.5044
4382.00,1.4939
4381.00,1.4830
4380.00,1.4717
4379.00,1.4601
4378.00,1.4481
4377.00,1.4355
4376.00,1.4221
4375.00,1.4081
4374.00,1.3934
4373.00,1.3783
4372.00,1.3630
4371.00,1.3474
4370.00,1.3315
4369.00,1.3152
4368.00,1.2984
4367.00,1.2811
4366.00,1.2633
4365.00,1.2450
4364.00,1.2262
4363.00,1.2071
4362.00,1.1877
4361.00,1.1681
4360.00,1.1484
4359.00,1.1286
4358.00,1.1088
4357.00,1.0890
4356.00,1.0694
4355.00,1.0501
4354.00,1.0312
4353.00,1.0127
4352.00,0.9948
4351.00,0.9775
4350.00,0.9610
4349.00,0.9453
4348.00,0.9305
4347.00,0.9168
4346.00,0.9042
4345.00,0.8927
4344.00,0.8823
4343.00,0.8732
4342.00,0.8654
4341.00,0.8590
4340.00,0.8541
4339.00,0.8507
4338.00,0.8488
4337.00,0.8486
4336.00,0.8500
4335.00,0.8531
4334.00,0.8579
4333.00,0.8643
4332.00,0.8723
4331.00,0.8817
4330.00,0.8925
4329.00,0.9045
4328.00,0.9176
4327.00,0.9318
4326.00,0.9470
4325.00,0.9631
4324.00,0.9800
4323.00,0.9976
4322.00,1.0157
4321.00,1.0342
4320.00,1.0531
4319.00,1.0723
4318.00,1.0918
4317.00,1.1115
4316.00,1.1314
4315.00,1.1513
4314.00,1.1711
4313.00,1.1909
4312.00,1.2106
4311.00,1.2304
4310.00,1.2500
4309.00,1.2695
4308.00,1.2887
4307.00,1.3075
4306.00,1.3261
4305.00,1.3443
4304.00,1.3622
4303.00,1.3797
4302.00,1.3971
4301.00,1.4141
4300.00,1.4307
4299.00,1.4467
4298.00,1.4619
4297.00,1.4764
4296.00,1.4903
4295.00,1.5037
4294.00,1.5165
4293.00,1.5286
4292.00,1.5401
4291.00,1.5511
4290.00,1.5616
4289.00,1.5717
4288.00,1.5813
4287.00,1.5905
4286.00,1.5992
4285.00,1.6072
4284.00,1.6146
4283.00,1.6214
4282.00,1.6279
4281.00,1.6340
4280.00,1.6395
4279.00,1.6443
4278.00,1.6484
4277.00,1.6518
4276.00,1.6549
4275.00,1.6578
4274.00,1.6604
4273.00,1.6625
4272.00,1.6640
4271.00,1.6651
4270.00,1.6657
4269.00,1.6660
4268.00,1.6658
4267.00,1.6651
4266.00,1.6641
4265.00,1.6626
4264.00,1.6607
4263.00,1.6583
4262.00,1.6554
4261.00,1.6521
4260.00,1.6481
4259.00,1.6435
4258.00,1.6384
4257.00,1.6329
4256.00,1.6271
4255.00,1.6210
4254.00,1.6143
4253.00,1.6069
4252.00,1.5987
4251.00,1.5899
4250.00,1.5808
4249.00,1.5711
4248.00,1.5609
4247.00,1.5502
4246.00,1.5389
4245.00,1.5269
4244.00,1.5142
4243.00,1.5008
4242.00,1.4867
4241.00,1.4719
4240.00,1.4565
4239.00,1.4408
4238.00,1.4247
4237.00,1.4081
4236.00,1.3909
4235.00,1.3728
4234.00,1.3539
4233.00,1.3343
4232.00,1.3143
4231.00,1.2939
4230.00,1.2732
4229.00,1.2522
4228.00,1.2309
4227.00,1.2094
4226.00,1.1877
4225.00,1.1660
4224.00,1.1442
4223.00,1.1224
4222.00,1.1008
4221.00,1.0795
4220.00,1.0585
4219.00,1.0380
4218.00,1.0181
4217.00,0.9989
4216.00,0.9804
4215.00,0.9626
4214.00,0.9457
4213.00,0.9299
4212.00,0.9153
4211.00,0.9019
4210.00,0.8900
4209.00,0.8796
4208.00,0.8708
4207.00,0.8637
4206.00,0.8582
4205.00,0.8545
4204.00,0.8526
4203.00,0.8525
4202.00,0.8543
4201.00,0.8578
4200.00,0.8631
4199.00,0.8700
4198.00,0.8785
4197.00,0.8885
4196.00,0.9000
4195.00,0.9129
4194.00,0.9269
4193.00,0.9420
4192.00,0.9581
4191.00,0.9750
4190.00,0.9927
4189.00,1.0110
4188.00,1.0297
4187.00,1.0488
4186.00,1.0683
4185.00,1.0882
4184.00,1.1085
4183.00,1.1290
4182.00,1.1497
4181.00,1.1705
4180.00,1.1913
4179.00,1.2121
4178.00,1.2329
4177.00,1.2535
4176.00,1.2740
4175.00,1.2944
4174.00,1.3145
4173.00,1.3343
4172.00,1.3538
4171.00,1.3728
4170.00,1.3914
4169.00,1.4096
4168.00,1.4274
4167.00,1.4448
4166.00,1.4617
4165.00,1.4782
4164.00,1.4940
4163.00,1.5093
4162.00,1.5238
4161.00,1.5377
4160.00,1.5509
4159.00,1.5637
4158.00,1.5759
4157.00,1.5876
4156.00,1.5986
4155.00,1.6091
4154.00,1.6191
4153.00,1.6285
4152.00,1.6374
4151.00,1.6459
4150.00,1.6538
4149.00,1.6611
4148.00,1.6678
4147.00,1.6739
4146.00,1.6795
4145.00,1.6844
4144.00,1.6888
4143.00,1.6926
4142.00,1.6960
4141.00,1.6990
4140.00,1.7018
4139.00,1.7043
4138.00,1.7064
4137.00,1.7079
4136.00,1.7089
4135.00,1.7092
4134.00,1.7090
4133.00,1.7085
4132.00,1.7077
4131.00,1.7064
4130.00,1.7044
4129.00,1.7018
4128.00,1.6986
4127.00,1.6951
4126.00,1.6915
4125.00,1.6875
4124.00,1.6830
4123.00,1.6779
4122.00,1.6721
4121.00,1.6657
4120.00,1.6588
4119.00,1.6514
4118.00,1.6434
4117.00,1.6347
4116.00,1.6253
4115.00,1.6153
4114.00,1.6047
4113.00,1.5938
4112.00,1.5824
4111.00,1.5705
4110.00,1.5579
4109.00,1.5445
4108.00,1.5303
4107.00,1.5156
4106.00,1.5003
4105.00,1.4845
4104.00,1.4682
4103.00,1.4512
4102.00,1.4335
4101.00,1.4151
4100.00,1.3960
4099.00,1.3766
4098.00,1.3566
4097.00,1.3360
4096.00,1.3147
4095.00,1.2928
4094.00,1.2704
4093.00,1.2477
4092.00,1.2247
4091.00,1.2016
4090.00,1.1784
4089.00,1.1551
4088.00,1.1319
4087.00,1.1089
4086.00,1.0862
4085.00,1.0638
4084.00,1.0419
4083.00,1.0205
4082.00,0.9999
4081.00,0.9801
4080.00,0.9613
4079.00,0.9436
4078.00,0.9272
4077.00,0.9120
4076.00,0.8983
4075.00,0.8863
4074.00,0.8759
4073.00,0.8674
4072.00,0.8607
4071.00,0.8559
4070.00,0.8531
4069.00,0.8523
4068.00,0.8534
4067.00,0.8567
4066.00,0.8620
4065.00,0.8692
4064.00,0.8781
4063.00,0.8888
4062.00,0.9010
4061.00,0.9148
4060.00,0.9299
4059.00,0.9462
4058.00,0.9635
4057.00,0.9818
4056.00,1.0009
4055.00,1.0207
4054.00,1.0411
4053.00,1.0620
4052.00,1.0833
4051.00,1.1050
4050.00,1.1269
4049.00,1.1491
4048.00,1.1713
4047.00,1.1936
4046.00,1.2159
4045.00,1.2383
4044.00,1.2607
4043.00,1.2831
4042.00,1.3052
4041.00,1.3270
4040.00,1.3484
4039.00,1.3693
4038.00,1.3898
4037.00,1.4098
4036.00,1.4296
4035.00,1.4489
4034.00,1.4678
4033.00,1.4862
4032.00,1.5039
4031.00,1.5209
4030.00,1.5372
4029.00,1.5529
4028.00,1.5681
4027.00,1.5827
4026.00,1.5967
4025.00,1.6102
4024.00,1.6231
4023.00,1.6355
4022.00,1.6473
4021.00,1.6585
4020.00,1.6691
4019.00,1.6791
4018.00,1.6884
4017.00,1.6970
4016.00,1.7048
4015.00,1.7120
4014.00,1.7186
4013.00,1.7247
4012.00,1.7303
4011.00,1.7356
4010.00,1.7405
4009.00,1.7450
4008.00,1.7489
4007.00,1.7522
4006.00,1.7552
4005.00,1.7578
4004.00,1.7599
4003.00,1.7612
4002.00,1.7618
4001.00,1.7620
4000.00,1.7620
3999.00,1.7617
3998.00,1.7612
3997.00,1.7604
3996.00,1.7591
3995.00,1.7573
3994.00,1.7548
3993.00,1.7516
3992.00,1.7477
3991.00,1.7430
3990.00,1.7377
3989.00,1.7320
3988.00,1.7261
3987.00,1.7198
3986.00,1.7130
3985.00,1.7056
3984.00,1.6974
3983.00,1.6886
3982.00,1.6793
3981.00,1.6696
3980.00,1.6595
3979.00,1.6491
3978.00,1.6381
3977.00,1.6265
3976.00,1.6140
3975.00,1.6006
3974.00,1.5866
3973.00,1.5719
3972.00,1.5564
3971.00,1.5401
3970.00,1.5232
3969.00,1.5059
3968.00,1.4879
3967.00,1.4693
3966.00,1.4498
3965.00,1.4297
3964.00,1.4089
3963.00,1.3876
3962.00,1.3657
3961.00,1.3432
3960.00,1.3201
3959.00,1.2966
3958.00,1.2729
3957.00,1.2489
3956.00,1.2248
3955.00,1.2006
3954.00,1.1764
3953.00,1.1524
3952.00,1.1287
3951.00,1.1053
3950.00,1.0822
3949.00,1.0595
3948.00,1.0373
3947.00,1.0159
3946.00,0.9955
3945.00,0.9764
3944.00,0.9584
3943.00,0.9417
3942.00,0.9264
3941.00,0.9127
3940.00,0.9009
3939.00,0.8911
3938.00,0.8834
3937.00,0.8779
3936.00,0.8744
3935.00,0.8731
3934.00,0.8738
3933.00,0.8766
3932.00,0.8814
3931.00,0.8882
3930.00,0.8968
3929.00,0.9072
3928.00,0.9193
3927.00,0.9330
3926.00,0.9482
3925.00,0.9647
3924.00,0.9825
3923.00,1.0012
3922.00,1.0205
3921.00,1.0404
3920.00,1.0610
3919.00,1.0824
3918.00,1.1047
3917.00,1.1278
3916.00,1.1517
3915.00,1.1758
3914.00,1.1999
3913.00,1.2238
3912.00,1.2477
3911.00,1.2717
3910.00,1.2957
3909.00,1.3193
3908.00,1.3422
3907.00,1.3645
3906.00,1.3862
3905.00,1.4079
3904.00,1.4298
3903.00,1.4519
3902.00,1.4740
3901.00,1.4956
3900.00,1.5168
3899.00,1.5374
3898.00,1.5572
3897.00,1.5757
3896.00,1.5927
3895.00,1.6084
3894.00,1.6230
3893.00,1.6372
3892.00,1.6514
3891.00,1.6658
3890.00,1.6799
3889.00,1.6929
3888.00,1.7042
3887.00,1.7143
3886.00,1.7238
3885.00,1.7333
3884.00,1.7425
3883.00,1.7510
3882.00,1.7585
3881.00,1.7654
3880.00,1.7719
3879.00,1.7784
3878.00,1.7847
3877.00,1.7905
3876.00,1.7955
3875.00,1.7997
3874.00,1.8030
3873.00,1.8054
3872.00,1.8073
3871.00,1.8089
3870.00,1.8104
3869.00,1.8119
3868.00,1.8129
3867.00,1.8129
3866.00,1.8115
3865.00,1.8092
3864.00,1.8067
3863.00,1.8043
3862.00,1.8021
3861.00,1.7994
3860.00,1.7961
3859.00,1.7920
3858.00,1.7875
3857.00,1.7828
3856.00,1.7779
3855.00,1.7723
3854.00,1.7656
3853.00,1.7577
3852.00,1.7493
3851.00,1.7408
3850.00,1.7316
3849.00,1.7214
3848.00,1.7104
3847.00,1.6991
3846.00,1.6876
3845.00,1.6755
3844.00,1.6628
3843.00,1.6495
3842.00,1.6359
3841.00,1.6223
3840.00,1.6083
3839.00,1.5935
3838.00,1.5777
3837.00,1.5610
3836.00,1.5434
3835.00,1.5249
3834.00,1.5050
3833.00,1.4838
3832.00,1.4615
3831.00,1.4387
3830.00,1.4158
3829.00,1.3926
3828.00,1.3685
3827.00,1.3434
3826.00,1.3176
3825.00,1.2920
3824.00,1.2666
3823.00,1.2405
3822.00,1.2126
3821.00,1.1831
3820.00,1.1539
3819.00,1.1268
3818.00,1.1010
3817.00,1.0750
3816.00,1.0482
3815.00,1.0217
3814.00,0.9970
3813.00,0.9744
3812.00,0.9535
3811.00,0.9343
3810.00,0.9175
3809.00,0.9033
3808.00,0.8914
3807.00,0.8813
3806.00,0.8732
3805.00,0.8674
3804.00,0.8644
3803.00,0.8642
3802.00,0.8672
3801.00,0.8732
3800.00,0.8816
3799.00,0.8914
3798.00,0.9021
3797.00,0.9144
3796.00,0.9291
3795.00,0.9461
3794.00,0.9647
3793.00,0.9843
3792.00,1.0047
3791.00,1.0262
3790.00,1.0488
3789.00,1.0722
3788.00,1.0961
3787.00,1.1206
3786.00,1.1456
3785.00,1.1714
3784.00,1.1977
3783.00,1.2240
3782.00,1.2499
3781.00,1.2755
3780.00,1.3014
3779.00,1.3279
3778.00,1.3547
3777.00,1.3813
3776.00,1.4068
3775.00,1.4312
3774.00,1.4546
3773.00,1.4772
3772.00,1.4992
3771.00,1.5211
3770.00,1.5431
3769.00,1.5652
3768.00,1.5866
3767.00,1.6068
3766.00,1.6258
3765.00,1.6440
3764.00,1.6616
3763.00,1.6782
3762.00,1.6936
3761.00,1.7081
3760.00,1.7222
3759.00,1.7361
3758.00,1.7496
3757.00,1.7623
3756.00,1.7737
3755.00,1.7838
3754.00,1.7929
3753.00,1.8019
3752.00,1.8116
3751.00,1.8221
3750.00,1.8332
3749.00,1.8439
3748.00,1.8527
3747.00,1.8589
3746.00,1.8632
3745.00,1.8672
3744.00,1.8721
3743.00,1.8778
3742.00,1.8833
3741.00,1.8875
3740.00,1.8905
3739.00,1.8930
3738.00,1.8955
3737.00,1.8982
3736.00,1.9008
3735.00,1.9031
3734.00,1.9049
3733.00,1.9062
3732.00,1.9066
3731.00,1.9062
3730.00,1.9052
3729.00,1.9032
3728.00,1.8994
3727.00,1.8937
3726.00,1.8866
3725.00,1.8784
3724.00,1.8690
3723.00,1.8592
3722.00,1.8485
3721.00,1.8376
3720.00,1.8250
3719.00,1.8140
3718.00,1.7986
3717.00,1.7824
3716.00,1.7732
3715.00,1.7617
3714.00,1.7501
3713.00,1.7373
3712.00,1.7207
3711.00,1.6947
3710.00,1.6653
3709.00,1.6405
3708.00,1.6256
3707.00,1.6193
3706.00,1.6144
3705.00,1.6043
3704.00,1.5874
3703.00,1.5660
3702.00,1.5425
3701.00,1.5176
3700.00,1.4922
3699.00,1.4665
3698.00,1.4405
3697.00,1.4141
3696.00,1.3875
3695.00,1.3612
3694.00,1.3354
3693.00,1.3102
3692.00,1.2854
3691.00,1.2612
3690.00,1.2370
3689.00,1.2130
3688.00,1.1891
3687.00,1.1666
3686.00,1.1456
3685.00,1.1264
3684.00,1.1087
3683.00,1.0927
3682.00,1.0789
3681.00,1.0673
3680.00,1.0581
3679.00,1.0512
3678.00,1.0470
3677.00,1.0455
3676.00,1.0465
3675.00,1.0499
3674.00,1.0549
3673.00,1.0614
3672.00,1.0695
3671.00,1.0804
3670.00,1.0948
3669.00,1.1121
3668.00,1.1305
3667.00,1.1490
3666.00,1.1674
3665.00,1.1866
3664.00,1.2072
3663.00,1.2292
3662.00,1.2523
3661.00,1.2760
3660.00,1.2998
3659.00,1.3236
3658.00,1.3476
3657.00,1.3724
3656.00,1.3984
3655.00,1.4249
3654.00,1.4503
3653.00,1.4735
3652.00,1.4951
3651.00,1.5167
3650.00,1.5396
3649.00,1.5641
3648.00,1.5894
3647.00,1.6142
3646.00,1.6372
3645.00,1.6578
3644.00,1.6765
3643.00,1.6943
3642.00,1.7117
3641.00,1.7290
3640.00,1.7461
3639.00,1.7629
3638.00,1.7793
3637.00,1.7952
3636.00,1.8107
3635.00,1.8261
3634.00,1.8410
3633.00,1.8549
3632.00,1.8675
3631.00,1.8792
3630.00,1.8906
3629.00,1.9019
3628.00,1.9134
3627.00,1.9245
3626.00,1.9343
3625.00,1.9428
3624.00,1.9506
3623.00,1.9580
3622.00,1.9643
3621.00,1.9698
3620.00,1.9747
3619.00,1.9797
3618.00,1.9845
3617.00,1.9896
3616.00,1.9937
3615.00,1.9982
3614.00,1.9992
3613.00,1.9996
3612.00,2.0031
3611.00,2.0055
3610.00,2.0087
3609.00,2.0117
3608.00,2.0149
3607.00,2.0173
3606.00,2.0186
3605.00,2.0187
3604.00,2.0190
3603.00,2.0190
3602.00,2.0200
3601.00,2.0186
3600.00,2.0217
3599.00,2.0249
3598.00,2.0216
3597.00,2.0202
3596.00,2.0176
3595.00,2.0154
3594.00,2.0122
3593.00,2.0089
3592.00,2.0058
3591.00,2.0030
3590.00,2.0001
3589.00,1.9962
3588.00,1.9911
3587.00,1.9851
3586.00,1.9783
3585.00,1.9710
3584.00,1.9634
3583.00,1.9555
3582.00,1.9473
3581.00,1.9389
3580.00,1.9304
3579.00,1.9216
3578.00,1.9126
3577.00,1.9031
3576.00,1.8934
3575.00,1.8831
3574.00,1.8722
3573.00,1.8608
3572.00,1.8493
3571.00,1.8383
3570.00,1.8271
3569.00,1.8153
3568.00,1.8024
3567.00,1.7889
3566.00,1.7753
3565.00,1.7624
3564.00,1.7502
3563.00,1.7385
3562.00,1.7269
3561.00,1.7152
3560.00,1.7031
3559.00,1.6911
3558.00,1.6792
3557.00,1.6677
3556.00,1.6564
3555.00,1.6455
3554.00,1.6350
3553.00,1.6250
3552.00,1.6155
3551.00,1.6063
3550.00,1.5977
3549.00,1.5897
3548.00,1.5825
3547.00,1.5762
3546.00,1.5705
3545.00,1.5655
3544.00,1.5614
3543.00,1.5581
3542.00,1.5559
3541.00,1.5546
3540.00,1.5542
3539.00,1.5545
3538.00,1.5555
3537.00,1.5574
3536.00,1.5600
3535.00,1.5635
3534.00,1.5675
3533.00,1.5722
3532.00,1.5775
3531.00,1.5836
3530.00,1.5905
3529.00,1.5983
3528.00,1.6068
3527.00,1.6157
3526.00,1.6247
3525.00,1.6337
3524.00,1.6428
3523.00,1.6524
3522.00,1.6624
3521.00,1.6730
3520.00,1.6841
3519.00,1.6953
3518.00,1.7067
3517.00,1.7180
3516.00,1.7293
3515.00,1.7407
3514.00,1.7521
3513.00,1.7637
3512.00,1.7754
3511.00,1.7871
3510.00,1.7984
3509.00,1.8096
3508.00,1.8207
3507.00,1.8318
3506.00,1.8430
3505.00,1.8542
3504.00,1.8655
3503.00,1.8768
3502.00,1.8879
3501.00,1.8986
3500.00,1.9089
3499.00,1.9191
3498.00,1.9290
3497.00,1.9389
3496.00,1.9490
3495.00,1.9592
3494.00,1.9692
3493.00,1.9790
3492.00,1.9884
3491.00,1.9972
3490.00,2.0057
3489.00,2.0141
3488.00,2.0227
3487.00,2.0311
3486.00,2.0388
3485.00,2.0455
3484.00,2.0516
3483.00,2.0573
3482.00,2.0628
3481.00,2.0683
3480.00,2.0742
3479.00,2.0802
3478.00,2.0858
3477.00,2.0908
3476.00,2.0953
3475.00,2.0991
3474.00,2.1025
3473.00,2.1056
3472.00,2.1086
3471.00,2.1114
3470.00,2.1138
3469.00,2.1159
3468.00,2.1180
3467.00,2.1197
3466.00,2.1209
3465.00,2.1214
3464.00,2.1218
3463.00,2.1221
3462.00,2.1217
3461.00,2.1204
3460.00,2.1187
3459.00,2.1170
3458.00,2.1152
3457.00,2.1127
3456.00,2.1095
3455.00,2.1059
3454.00,2.1024
3453.00,2.0988
3452.00,2.0946
3451.00,2.0897
3450.00,2.0842
3449.00,2.0783
3448.00,2.0724
3447.00,2.0663
3446.00,2.0597
3445.00,2.0526
3444.00,2.0453
3443.00,2.0376
3442.00,2.0295
3441.00,2.0209
3440.00,2.0118
3439.00,2.0025
3438.00,1.9929
3437.00,1.9830
3436.00,1.9728
3435.00,1.9623
3434.00,1.9514
3433.00,1.9400
3432.00,1.9279
3431.00,1.9154
3430.00,1.9029
3429.00,1.8906
3428.00,1.8786
3427.00,1.8666
3426.00,1.8542
3425.00,1.8415
3424.00,1.8288
3423.00,1.8160
3422.00,1.8031
3421.00,1.7903
3420.00,1.7780
3419.00,1.7664
3418.00,1.7557
3417.00,1.7459
3416.00,1.7368
3415.00,1.7283
3414.00,1.7201
3413.00,1.7120
3412.00,1.7042
3411.00,1.6966
3410.00,1.6893
3409.00,1.6822
3408.00,1.6751
3407.00,1.6680
3406.00,1.6607
3405.00,1.6532
3404.00,1.6454
3403.00,1.6372
3402.00,1.6287
3401.00,1.6198
3400.00,1.6109
3399.00,1.6020
3398.00,1.5935
3397.00,1.5854
3396.00,1.5776
3395.00,1.5704
3394.00,1.5639
3393.00,1.5585
3392.00,1.5544
3391.00,1.5518
3390.00,1.5506
3389.00,1.5507
3388.00,1.5520
3387.00,1.5546
3386.00,1.5585
3385.00,1.5638
3384.00,1.5703
3383.00,1.5780
3382.00,1.5868
3381.00,1.5965
3380.00,1.6071
3379.00,1.6183
3378.00,1.6302
3377.00,1.6429
3376.00,1.6563
3375.00,1.6706
3374.00,1.6856
3373.00,1.7011
3372.00,1.7169
3371.00,1.7328
3370.00,1.7486
3369.00,1.7644
3368.00,1.7803
3367.00,1.7963
3366.00,1.8122
3365.00,1.8279
3364.00,1.8434
3363.00,1.8588
3362.00,1.8741
3361.00,1.8890
3360.00,1.9033
3359.00,1.9170
3358.00,1.9302
3357.00,1.9433
3356.00,1.9566
3355.00,1.9696
3354.00,1.9822
3353.00,1.9942
3352.00,2.0058
3351.00,2.0168
3350.00,2.0270
3349.00,2.0363
3348.00,2.0451
3347.00,2.0537
3346.00,2.0621
3345.00,2.0699
3344.00,2.0770
3343.00,2.0834
3342.00,2.0893
3341.00,2.0946
3340.00,2.0994
3339.00,2.1041
3338.00,2.1089
3337.00,2.1137
3336.00,2.1183
3335.00,2.1221
3334.00,2.1251
3333.00,2.1273
3332.00,2.1288
3331.00,2.1294
3330.00,2.1296
3329.00,2.1297
3328.00,2.1302
3327.00,2.1305
3326.00,2.1301
3325.00,2.1289
3324.00,2.1274
3323.00,2.1260
3322.00,2.1244
3321.00,2.1220
3320.00,2.1185
3319.00,2.1142
3318.00,2.1096
3317.00,2.1049
3316.00,2.1000
3315.00,2.0945
3314.00,2.0882
3313.00,2.0810
3312.00,2.0732
3311.00,2.0649
3310.00,2.0567
3309.00,2.0486
3308.00,2.0403
3307.00,2.0312
3306.00,2.0209
3305.00,2.0097
3304.00,1.9983
3303.00,1.9867
3302.00,1.9748
3301.00,1.9625
3300.00,1.9498
3299.00,1.9365
3298.00,1.9226
3297.00,1.9085
3296.00,1.8940
3295.00,1.8792
3294.00,1.8636
3293.00,1.8472
3292.00,1.8301
3291.00,1.8127
3290.00,1.7952
3289.00,1.7776
3288.00,1.7600
3287.00,1.7421
3286.00,1.7240
3285.00,1.7057
3284.00,1.6874
3283.00,1.6692
3282.00,1.6513
3281.00,1.6337
3280.00,1.6167
3279.00,1.6003
3278.00,1.5843
3277.00,1.5689
3276.00,1.5543
3275.00,1.5407
3274.00,1.5280
3273.00,1.5164
3272.00,1.5061
3271.00,1.4973
3270.00,1.4898
3269.00,1.4837
3268.00,1.4790
3267.00,1.4757
3266.00,1.4739
3265.00,1.4736
3264.00,1.4749
3263.00,1.4776
3262.00,1.4819
3261.00,1.4875
3260.00,1.4944
3259.00,1.5025
3258.00,1.5117
3257.00,1.5220
3256.00,1.5336
3255.00,1.5466
3254.00,1.5606
3253.00,1.5752
3252.00,1.5903
3251.00,1.6058
3250.00,1.6217
3249.00,1.6382
3248.00,1.6552
3247.00,1.6727
3246.00,1.6906
3245.00,1.7087
3244.00,1.7268
3243.00,1.7447
3242.00,1.7625
3241.00,1.7803
3240.00,1.7984
3239.00,1.8166
3238.00,1.8346
3237.00,1.8521
3236.00,1.8690
3235.00,1.8854
3234.00,1.9015
3233.00,1.9172
3232.00,1.9325
3231.00,1.9473
3230.00,1.9616
3229.00,1.9757
3228.00,1.9896
3227.00,2.0031
3226.00,2.0162
3225.00,2.0288
3224.00,2.0407
3223.00,2.0520
3222.00,2.0628
3221.00,2.0735
3220.00,2.0842
3219.00,2.0949
3218.00,2.1050
3217.00,2.1142
3216.00,2.1223
3215.00,2.1293
3214.00,2.1355
3213.00,2.1414
3212.00,2.1473
3211.00,2.1535
3210.00,2.1595
3209.00,2.1650
3208.00,2.1699
3207.00,2.1738
3206.00,2.1768
3205.00,2.1790
3204.00,2.1810
3203.00,2.1830
3202.00,2.1850
3201.00,2.1868
3200.00,2.1882
3199.00,2.1893
3198.00,2.1901
3197.00,2.1907
3196.00,2.1913
3195.00,2.1914
3194.00,2.1906
3193.00,2.1889
3192.00,2.1870
3191.00,2.1853
3190.00,2.1835
3189.00,2.1810
3188.00,2.1777
3187.00,2.1738
3186.00,2.1697
3185.00,2.1654
3184.00,2.1607
3183.00,2.1555
3182.00,2.1497
3181.00,2.1436
3180.00,2.1369
3179.00,2.1295
3178.00,2.1213
3177.00,2.1123
3176.00,2.1029
3175.00,2.0933
3174.00,2.0835
3173.00,2.0733
3172.00,2.0624
3171.00,2.0510
3170.00,2.0390
3169.00,2.0265
3168.00,2.0137
3167.00,2.0007
3166.00,1.9874
3165.00,1.9735
3164.00,1.9591
3163.00,1.9439
3162.00,1.9282
3161.00,1.9118
3160.00,1.8950
3159.00,1.8778
3158.00,1.8604
3157.00,1.8428
3156.00,1.8250
3155.00,1.8066
3154.00,1.7879
3153.00,1.7693
3152.00,1.7509
3151.00,1.7328
3150.00,1.7149
3149.00,1.6971
3148.00,1.6797
3147.00,1.6629
3146.00,1.6469
3145.00,1.6318
3144.00,1.6176
3143.00,1.6042
3142.00,1.5919
3141.00,1.5806
3140.00,1.5707
3139.00,1.5623
3138.00,1.5554
3137.00,1.5499
3136.00,1.5460
3135.00,1.5438
3134.00,1.5434
3133.00,1.5449
3132.00,1.5482
3131.00,1.5530
3130.00,1.5592
3129.00,1.5670
3128.00,1.5764
3127.00,1.5872
3126.00,1.5993
3125.00,1.6124
3124.00,1.6263
3123.00,1.6412
3122.00,1.6570
3121.00,1.6737
3120.00,1.6911
3119.00,1.7091
3118.00,1.7275
3117.00,1.7462
3116.00,1.7652
3115.00,1.7843
3114.00,1.8035
3113.00,1.8230
3112.00,1.8427
3111.00,1.8624
3110.00,1.8819
3109.00,1.9011
3108.00,1.9201
3107.00,1.9386
3106.00,1.9563
3105.00,1.9732
3104.00,1.9897
3103.00,2.0063
3102.00,2.0231
3101.00,2.0396
3100.00,2.0556
3099.00,2.0707
3098.00,2.0850
3097.00,2.0987
3096.00,2.1121
3095.00,2.1253
3094.00,2.1381
3093.00,2.1503
3092.00,2.1616
3091.00,2.1722
3090.00,2.1821
3089.00,2.1913
3088.00,2.1998
3087.00,2.2075
3086.00,2.2144
3085.00,2.2211
3084.00,2.2278
3083.00,2.2342
3082.00,2.2401
3081.00,2.2454
3080.00,2.2502
3079.00,2.2547
3078.00,2.2589
3077.00,2.2626
3076.00,2.2657
3075.00,2.2677
3074.00,2.2685
3073.00,2.2684
3072.00,2.2680
3071.00,2.2676
3070.00,2.2668
3069.00,2.2655
3068.00,2.2636
3067.00,2.2612
3066.00,2.2584
3065.00,2.2549
3064.00,2.2507
3063.00,2.2455
3062.00,2.2397
3061.00,2.2334
3060.00,2.2269
3059.00,2.2202
3058.00,2.2130
3057.00,2.2054
3056.00,2.1972
3055.00,2.1881
3054.00,2.1780
3053.00,2.1671
3052.00,2.1556
3051.00,2.1433
3050.00,2.1298
3049.00,2.1150
3048.00,2.0992
3047.00,2.0829
3046.00,2.0663
3045.00,2.0494
3044.00,2.0318
3043.00,2.0132
3042.00,1.9933
3041.00,1.9721
3040.00,1.9501
3039.00,1.9278
3038.00,1.9056
3037.00,1.8837
3036.00,1.8621
3035.00,1.8408
3034.00,1.8197
3033.00,1.7990
3032.00,1.7787
3031.00,1.7593
3030.00,1.7410
3029.00,1.7242
3028.00,1.7093
3027.00,1.6964
3026.00,1.6856
3025.00,1.6769
3024.00,1.6705
3023.00,1.6665
3022.00,1.6653
3021.00,1.6668
3020.00,1.6713
3019.00,1.6787
3018.00,1.6891
3017.00,1.7022
3016.00,1.7179
3015.00,1.7359
3014.00,1.7562
3013.00,1.7784
3012.00,1.8025
3011.00,1.8281
3010.00,1.8549
3009.00,1.8829
3008.00,1.9119
3007.00,1.9413
3006.00,1.9709
3005.00,2.0005
3004.00,2.0300
3003.00,2.0597
3002.00,2.0893
3001.00,2.1188
3000.00,2.1477
2999.00,2.1755
2998.00,2.2017
2997.00,2.2265
2996.00,2.2502
2995.00,2.2737
2994.00,2.2969
2993.00,2.3193
2992.00,2.3401
2991.00,2.3584
2990.00,2.3743
2989.00,2.3888
2988.00,2.4030
2987.00,2.4172
2986.00,2.4314
2985.00,2.4452
2984.00,2.4587
2983.00,2.4720
2982.00,2.4859
2981.00,2.5009
2980.00,2.5176
2979.00,2.5364
2978.00,2.5578
2977.00,2.5830
2976.00,2.6129
2975.00,2.6484
2974.00,2.6903
2973.00,2.7401
2972.00,2.7987
2971.00,2.8648
2970.00,2.9352
2969.00,3.0073
2968.00,3.0824
2967.00,3.1661
2966.00,3.2641
2965.00,3.3787
2964.00,3.5047
2963.00,3.6290
2962.00,3.7334
2961.00,3.8044
2960.00,3.8433
2959.00,3.8660
2958.00,3.8886
2957.00,3.9197
2956.00,3.9580
2955.00,3.9961
2954.00,4.0373
2953.00,4.0993
2952.00,4.1940
2951.00,4.2889
2950.00,4.3202
2949.00,4.2673
2948.00,4.1846
2947.00,4.1239
2946.00,4.1081
2945.00,4.1388
2944.00,4.1774
2943.00,4.1807
2942.00,4.1870
2941.00,4.2614
2940.00,4.4754
2939.00,5.0254
2938.00,5.0449
2937.00,4.7273
2936.00,4.4604
2935.00,4.4531
2934.00,4.5114
2933.00,4.6218
2932.00,4.8218
2931.00,4.8322
2930.00,4.6544
2929.00,4.5612
2928.00,4.6618
2927.00,4.9981
2926.00,4.9778
2925.00,4.5257
2924.00,4.2060
2923.00,4.0338
2922.00,3.9514
2921.00,3.9223
2920.00,3.9089
2919.00,3.8680
2918.00,3.7774
2917.00,3.6557
2916.00,3.5365
2915.00,3.4375
2914.00,3.3609
2913.00,3.3019
2912.00,3.2550
2911.00,3.2155
2910.00,3.1811
2909.00,3.1514
2908.00,3.1258
2907.00,3.1019
2906.00,3.0769
2905.00,3.0501
2904.00,3.0227
2903.00,2.9960
2902.00,2.9715
2901.00,2.9506
2900.00,2.9341
2899.00,2.9212
2898.00,2.9096
2897.00,2.8974
2896.00,2.8852
2895.00,2.8747
2894.00,2.8673
2893.00,2.8622
2892.00,2.8581
2891.00,2.8538
2890.00,2.8489
2889.00,2.8438
2888.00,2.8385
2887.00,2.8342
2886.00,2.8331
2885.00,2.8377
2884.00,2.8485
2883.00,2.8635
2882.00,2.8801
2881.00,2.8980
2880.00,2.9186
2879.00,2.9424
2878.00,2.9688
2877.00,2.9982
2876.00,3.0320
2875.00,3.0713
2874.00,3.1163
2873.00,3.1684
2872.00,3.2309
2871.00,3.3051
2870.00,3.3857
2869.00,3.4653
2868.00,3.5409
2867.00,3.6130
2866.00,3.6743
2865.00,3.7104
2864.00,3.7208
2863.00,3.7243
2862.00,3.7348
2861.00,3.7437
2860.00,3.7262
2859.00,3.6677
2858.00,3.5794
2857.00,3.4810
2856.00,3.3829
2855.00,3.2859
2854.00,3.1898
2853.00,3.0971
2852.00,3.0107
2851.00,2.9317
2850.00,2.8601
2849.00,2.7963
2848.00,2.7416
2847.00,2.6965
2846.00,2.6604
2845.00,2.6311
2844.00,2.6067
2843.00,2.5853
2842.00,2.5655
2841.00,2.5463
2840.00,2.5273
2839.00,2.5085
2838.00,2.4900
2837.00,2.4717
2836.00,2.4533
2835.00,2.4348
2834.00,2.4161
2833.00,2.3977
2832.00,2.3797
2831.00,2.3619
2830.00,2.3434
2829.00,2.3237
2828.00,2.3024
2827.00,2.2796
2826.00,2.2556
2825.00,2.2304
2824.00,2.2038
2823.00,2.1757
2822.00,2.1458
2821.00,2.1137
2820.00,2.0794
2819.00,2.0431
2818.00,2.0051
2817.00,1.9659
2816.00,1.9260
2815.00,1.8861
2814.00,1.8467
2813.00,1.8085
2812.00,1.7721
2811.00,1.7381
2810.00,1.7071
2809.00,1.6794
2808.00,1.6556
2807.00,1.6360
2806.00,1.6213
2805.00,1.6117
2804.00,1.6078
2803.00,1.6092
2802.00,1.6157
2801.00,1.6264
2800.00,1.6405
2799.00,1.6570
2798.00,1.6752
2797.00,1.6945
2796.00,1.7145
2795.00,1.7351
2794.00,1.7563
2793.00,1.7780
2792.00,1.8007
2791.00,1.8245
2790.00,1.8492
2789.00,1.8748
2788.00,1.9013
2787.00,1.9287
2786.00,1.9571
2785.00,1.9858
2784.00,2.0140
2783.00,2.0411
2782.00,2.0672
2781.00,2.0923
2780.00,2.1165
2779.00,2.1398
2778.00,2.1622
2777.00,2.1836
2776.00,2.2040
2775.00,2.2230
2774.00,2.2406
2773.00,2.2571
2772.00,2.2731
2771.00,2.2884
2770.00,2.3026
2769.00,2.3149
2768.00,2.3257
2767.00,2.3361
2766.00,2.3467
2765.00,2.3572
2764.00,2.3670
2763.00,2.3754
2762.00,2.3828
2761.00,2.3896
2760.00,2.3958
2759.00,2.4013
2758.00,2.4058
2757.00,2.4091
2756.00,2.4113
2755.00,2.4124
2754.00,2.4131
2753.00,2.4140
2752.00,2.4150
2751.00,2.4152
2750.00,2.4143
2749.00,2.4126
2748.00,2.4106
2747.00,2.4088
2746.00,2.4068
2745.00,2.4045
2744.00,2.4015
2743.00,2.3978
2742.00,2.3935
2741.00,2.3883
2740.00,2.3819
2739.00,2.3743
2738.00,2.3655
2737.00,2.3562
2736.00,2.3465
2735.00,2.3361
2734.00,2.3247
2733.00,2.3121
2732.00,2.2985
2731.00,2.2840
2730.00,2.2691
2729.00,2.2539
2728.00,2.2384
2727.00,2.2218
2726.00,2.2040
2725.00,2.1852
2724.00,2.1655
2723.00,2.1447
2722.00,2.1223
2721.00,2.0984
2720.00,2.0733
2719.00,2.0475
2718.00,2.0208
2717.00,1.9933
2716.00,1.9645
2715.00,1.9345
2714.00,1.9029
2713.00,1.8701
2712.00,1.8362
2711.00,1.8014
2710.00,1.7659
2709.00,1.7298
2708.00,1.6933
2707.00,1.6567
2706.00,1.6206
2705.00,1.5854
2704.00,1.5516
2703.00,1.5196
2702.00,1.4900
2701.00,1.4632
2700.00,1.4398
2699.00,1.4200
2698.00,1.4044
2697.00,1.3931
2696.00,1.3863
2695.00,1.3839
2694.00,1.3861
2693.00,1.3926
2692.00,1.4035
2691.00,1.4187
2690.00,1.4380
2689.00,1.4610
2688.00,1.4875
2687.00,1.5170
2686.00,1.5489
2685.00,1.5826
2684.00,1.6178
2683.00,1.6539
2682.00,1.6905
2681.00,1.7270
2680.00,1.7630
2679.00,1.7978
2678.00,1.8310
2677.00,1.8622
2676.00,1.8914
2675.00,1.9186
2674.00,1.9441
2673.00,1.9683
2672.00,1.9912
2671.00,2.0128
2670.00,2.0333
2669.00,2.0531
2668.00,2.0723
2667.00,2.0908
2666.00,2.1087
2665.00,2.1262
2664.00,2.1437
2663.00,2.1615
2662.00,2.1799
2661.00,2.1987
2660.00,2.2180
2659.00,2.2372
2658.00,2.2559
2657.00,2.2736
2656.00,2.2904
2655.00,2.3060
2654.00,2.3206
2653.00,2.3348
2652.00,2.3490
2651.00,2.3627
2650.00,2.3755
2649.00,2.3872
2648.00,2.3977
2647.00,2.4072
2646.00,2.4163
2645.00,2.4254
2644.00,2.4350
2643.00,2.4444
2642.00,2.4526
2641.00,2.4589
2640.00,2.4636
2639.00,2.4675
2638.00,2.4715
2637.00,2.4762
2636.00,2.4818
2635.00,2.4873
2634.00,2.4913
2633.00,2.4937
2632.00,2.4952
2631.00,2.4967
2630.00,2.4986
2629.00,2.5005
2628.00,2.5016
2627.00,2.5016
2626.00,2.5003
2625.00,2.4980
2624.00,2.4957
2623.00,2.4935
2622.00,2.4915
2621.00,2.4890
2620.00,2.4859
2619.00,2.4819
2618.00,2.4770
2617.00,2.4709
2616.00,2.4641
2615.00,2.4569
2614.00,2.4494
2613.00,2.4418
2612.00,2.4345
2611.00,2.4277
2610.00,2.4211
2609.00,2.4138
2608.00,2.4051
2607.00,2.3951
2606.00,2.3841
2605.00,2.3723
2604.00,2.3592
2603.00,2.3443
2602.00,2.3278
2601.00,2.3109
2600.00,2.2940
2599.00,2.2769
2598.00,2.2589
2597.00,2.2396
2596.00,2.2192
2595.00,2.1978
2594.00,2.1757
2593.00,2.1527
2592.00,2.1287
2591.00,2.1035
2590.00,2.0771
2589.00,2.0494
2588.00,2.0204
2587.00,1.9900
2586.00,1.9584
2585.00,1.9257
2584.00,1.8919
2583.00,1.8572
2582.00,1.8216
2581.00,1.7855
2580.00,1.7488
2579.00,1.7118
2578.00,1.6747
2577.00,1.6381
2576.00,1.6027
2575.00,1.5686
2574.00,1.5362
2573.00,1.5059
2572.00,1.4780
2571.00,1.4529
2570.00,1.4308
2569.00,1.4121
2568.00,1.3971
2567.00,1.3859
2566.00,1.3788
2565.00,1.3759
2564.00,1.3772
2563.00,1.3828
2562.00,1.3927
2561.00,1.4066
2560.00,1.4243
2559.00,1.4454
2558.00,1.4696
2557.00,1.4963
2556.00,1.5254
2555.00,1.5564
2554.00,1.5892
2553.00,1.6234
2552.00,1.6588
2551.00,1.6952
2550.00,1.7322
2549.00,1.7696
2548.00,1.8071
2547.00,1.8443
2546.00,1.8809
2545.00,1.9166
2544.00,1.9513
2543.00,1.9849
2542.00,2.0173
2541.00,2.0484
2540.00,2.0781
2539.00,2.1064
2538.00,2.1335
2537.00,2.1596
2536.00,2.1845
2535.00,2.2085
2534.00,2.2318
2533.00,2.2543
2532.00,2.2757
2531.00,2.2955
2530.00,2.3139
2529.00,2.3315
2528.00,2.3488
2527.00,2.3657
2526.00,2.3819
2525.00,2.3971
2524.00,2.4115
2523.00,2.4252
2522.00,2.4382
2521.00,2.4510
2520.00,2.4635
2519.00,2.4751
2518.00,2.4852
2517.00,2.4941
2516.00,2.5027
2515.00,2.5115
2514.00,2.5201
2513.00,2.5276
2512.00,2.5337
2511.00,2.5390
2510.00,2.5442
2509.00,2.5498
2508.00,2.5557
2507.00,2.5616
2506.00,2.5669
2505.00,2.5711
2504.00,2.5741
2503.00,2.5765
2502.00,2.5789
2501.00,2.5817
2500.00,2.5846
2499.00,2.5866
2498.00,2.5868
2497.00,2.5857
2496.00,2.5842
2495.00,2.5825
2494.00,2.5801
2493.00,2.5767
2492.00,2.5729
2491.00,2.5690
2490.00,2.5648
2489.00,2.5596
2488.00,2.5535
2487.00,2.5470
2486.00,2.5407
2485.00,2.5347
2484.00,2.5283
2483.00,2.5210
2482.00,2.5125
2481.00,2.5030
2480.00,2.4926
2479.00,2.4817
2478.00,2.4706
2477.00,2.4596
2476.00,2.4491
2475.00,2.4385
2474.00,2.4265
2473.00,2.4124
2472.00,2.3965
2471.00,2.3796
2470.00,2.3623
2469.00,2.3442
2468.00,2.3251
2467.00,2.3051
2466.00,2.2843
2465.00,2.2630
2464.00,2.2407
2463.00,2.2172
2462.00,2.1922
2461.00,2.1656
2460.00,2.1374
2459.00,2.1075
2458.00,2.0762
2457.00,2.0437
2456.00,2.0100
2455.00,1.9751
2454.00,1.9385
2453.00,1.9001
2452.00,1.8600
2451.00,1.8184
2450.00,1.7758
2449.00,1.7323
2448.00,1.6883
2447.00,1.6441
2446.00,1.6002
2445.00,1.5572
2444.00,1.5157
2443.00,1.4765
2442.00,1.4404
2441.00,1.4081
2440.00,1.3800
2439.00,1.3566
2438.00,1.3383
2437.00,1.3257
2436.00,1.3192
2435.00,1.3191
2434.00,1.3253
2433.00,1.3375
2432.00,1.3552
2431.00,1.3777
2430.00,1.4043
2429.00,1.4343
2428.00,1.4671
2427.00,1.5020
2426.00,1.5385
2425.00,1.5762
2424.00,1.6149
2423.00,1.6544
2422.00,1.6944
2421.00,1.7348
2420.00,1.7754
2419.00,1.8156
2418.00,1.8554
2417.00,1.8947
2416.00,1.9333
2415.00,1.9711
2414.00,2.0080
2413.00,2.0439
2412.00,2.0785
2411.00,2.1121
2410.00,2.1445
2409.00,2.1759
2408.00,2.2060
2407.00,2.2344
2406.00,2.2611
2405.00,2.2863
2404.00,2.3107
2403.00,2.3345
2402.00,2.3574
2401.00,2.3790
2400.00,2.3991
2399.00,2.4177
2398.00,2.4351
2397.00,2.4518
2396.00,2.4681
2395.00,2.4841
2394.00,2.4995
2393.00,2.5142
2392.00,2.5279
2391.00,2.5412
2390.00,2.5537
2389.00,2.5660
2388.00,2.5763
2387.00,2.5841
2386.00,2.5935
2385.00,2.6024
2384.00,2.6113
2383.00,2.6191
2382.00,2.6263
2381.00,2.6332
2380.00,2.6398
2379.00,2.6457
2378.00,2.6511
2377.00,2.6559
2376.00,2.6601
2375.00,2.6628
2374.00,2.6642
2373.00,2.6657
2372.00,2.6682
2371.00,2.6710
2370.00,2.6727
2369.00,2.6726
2368.00,2.6710
2367.00,2.6694
2366.00,2.6688
2365.00,2.6692
2364.00,2.6698
2363.00,2.6691
2362.00,2.6660
2361.00,2.6607
2360.00,2.6540
2359.00,2.6471
2358.00,2.6409
2357.00,2.6358
2356.00,2.6309
2355.00,2.6252
2354.00,2.6175
2353.00,2.6083
2352.00,2.5984
2351.00,2.5892
2350.00,2.5815
2349.00,2.5749
2348.00,2.5679
2347.00,2.5590
2346.00,2.5479
2345.00,2.5351
2344.00,2.5214
2343.00,2.5066
2342.00,2.4908
2341.00,2.4743
2340.00,2.4582
2339.00,2.4427
2338.00,2.4271
2337.00,2.4102
2336.00,2.3910
2335.00,2.3691
2334.00,2.3457
2333.00,2.3218
2332.00,2.2978
2331.00,2.2728
2330.00,2.2463
2329.00,2.2185
2328.00,2.1885
2327.00,2.1593
2326.00,2.1236
2325.00,2.0943
2324.00,2.0490
2323.00,2.0253
2322.00,1.9480
2321.00,1.8853
2320.00,1.9090
2319.00,1.9003
2318.00,1.8810
2317.00,1.8472
2316.00,1.8061
2315.00,1.7581
2314.00,1.7138
2313.00,1.6842
2312.00,1.6849
2311.00,1.7053
2310.00,1.7388
2309.00,1.7631
2308.00,1.7784
2307.00,1.7807
2306.00,1.7794
2305.00,1.7745
2304.00,1.7704
2303.00,1.7647
2302.00,1.7608
2301.00,1.7599
2300.00,1.7658
2299.00,1.7772
2298.00,1.7948
2297.00,1.8127
2296.00,1.8328
2295.00,1.8514
2294.00,1.8729
2293.00,1.8936
2292.00,1.9175
2291.00,1.9412
2290.00,1.9671
2289.00,1.9933
2288.00,2.0210
2287.00,2.0499
2286.00,2.0800
2285.00,2.1108
2284.00,2.1409
2283.00,2.1700
2282.00,2.1970
2281.00,2.2230
2280.00,2.2490
2279.00,2.2775
2278.00,2.3079
2277.00,2.3380
2276.00,2.3650
2275.00,2.3887
2274.00,2.4100
2273.00,2.4304
2272.00,2.4504
2271.00,2.4697
2270.00,2.4884
2269.00,2.5065
2268.00,2.5249
2267.00,2.5437
2266.00,2.5626
2265.00,2.5803
2264.00,2.5958
2263.00,2.6095
2262.00,2.6229
2261.00,2.6366
2260.00,2.6507
2259.00,2.6636
2258.00,2.6747
2257.00,2.6852
2256.00,2.6952
2255.00,2.7046
2254.00,2.7120
2253.00,2.7177
2252.00,2.7225
2251.00,2.7276
2250.00,2.7333
2249.00,2.7390
2248.00,2.7443
2247.00,2.7481
2246.00,2.7505
2245.00,2.7521
2244.00,2.7550
2243.00,2.7601
2242.00,2.7667
2241.00,2.7727
2240.00,2.7761
2239.00,2.7766
2238.00,2.7751
2237.00,2.7726
2236.00,2.7702
2235.00,2.7681
2234.00,2.7659
2233.00,2.7633
2232.00,2.7598
2231.00,2.7559
2230.00,2.7522
2229.00,2.7489
2228.00,2.7451
2227.00,2.7403
2226.00,2.7346
2225.00,2.7284
2224.00,2.7217
2223.00,2.7140
2222.00,2.7054
2221.00,2.6965
2220.00,2.6878
2219.00,2.6790
2218.00,2.6693
2217.00,2.6585
2216.00,2.6473
2215.00,2.6358
2214.00,2.6237
2213.00,2.6108
2212.00,2.5971
2211.00,2.5825
2210.00,2.5672
2209.00,2.5509
2208.00,2.5336
2207.00,2.5149
2206.00,2.4947
2205.00,2.4732
2204.00,2.4507
2203.00,2.4273
2202.00,2.4032
2201.00,2.3784
2200.00,2.3528
2199.00,2.3260
2198.00,2.2976
2197.00,2.2673
2196.00,2.2349
2195.00,2.2003
2194.00,2.1631
2193.00,2.1236
2192.00,2.0823
2191.00,2.0396
2190.00,1.9959
2189.00,1.9511
2188.00,1.9053
2187.00,1.8588
2186.00,1.8121
2185.00,1.7662
2184.00,1.7220
2183.00,1.6802
2182.00,1.6416
2181.00,1.6068
2180.00,1.5763
2179.00,1.5507
2178.00,1.5297
2177.00,1.5132
2176.00,1.5007
2175.00,1.4919
2174.00,1.4869
2173.00,1.4861
2172.00,1.4902
2171.00,1.4993
2170.00,1.5137
2169.00,1.5332
2168.00,1.5576
2167.00,1.5865
2166.00,1.6193
2165.00,1.6555
2164.00,1.6946
2163.00,1.7361
2162.00,1.7794
2161.00,1.8241
2160.00,1.8697
2159.00,1.9160
2158.00,1.9625
2157.00,2.0086
2156.00,2.0541
2155.00,2.0986
2154.00,2.1417
2153.00,2.1833
2152.00,2.2231
2151.00,2.2612
2150.00,2.2974
2149.00,2.3315
2148.00,2.3633
2147.00,2.3929
2146.00,2.4205
2145.00,2.4464
2144.00,2.4712
2143.00,2.4953
2142.00,2.5186
2141.00,2.5413
2140.00,2.5642
2139.00,2.5870
2138.00,2.6081
2137.00,2.6255
2136.00,2.6398
2135.00,2.6534
2134.00,2.6683
2133.00,2.6834
2132.00,2.6971
2131.00,2.7090
2130.00,2.7206
2129.00,2.7328
2128.00,2.7455
2127.00,2.7577
2126.00,2.7687
2125.00,2.7786
2124.00,2.7881
2123.00,2.7976
2122.00,2.8065
2121.00,2.8139
2120.00,2.8198
2119.00,2.8256
2118.00,2.8320
2117.00,2.8375
2116.00,2.8402
2115.00,2.8407
2114.00,2.8414
2113.00,2.8440
2112.00,2.8485
2111.00,2.8537
2110.00,2.8587
2109.00,2.8622
2108.00,2.8633
2107.00,2.8625
2106.00,2.8614
2105.00,2.8608
2104.00,2.8600
2103.00,2.8582
2102.00,2.8554
2101.00,2.8524
2100.00,2.8495
2099.00,2.8463
2098.00,2.8428
2097.00,2.8392
2096.00,2.8355
2095.00,2.8310
2094.00,2.8249
2093.00,2.8163
2092.00,2.8054
2091.00,2.7933
2090.00,2.7818
2089.00,2.7718
2088.00,2.7634
2087.00,2.7559
2086.00,2.7486
2085.00,2.7401
2084.00,2.7293
2083.00,2.7160
2082.00,2.7011
2081.00,2.6854
2080.00,2.6691
2079.00,2.6516
2078.00,2.6330
2077.00,2.6137
2076.00,2.5941
2075.00,2.5737
2074.00,2.5520
2073.00,2.5290
2072.00,2.5053
2071.00,2.4809
2070.00,2.4557
2069.00,2.4293
2068.00,2.4017
2067.00,2.3729
2066.00,2.3427
2065.00,2.3110
2064.00,2.2783
2063.00,2.2453
2062.00,2.2118
2061.00,2.1769
2060.00,2.1392
2059.00,2.0977
2058.00,2.0526
2057.00,2.0044
2056.00,1.9536
2055.00,1.9007
2054.00,1.8466
2053.00,1.7924
2052.00,1.7391
2051.00,1.6876
2050.00,1.6393
2049.00,1.5957
2048.00,1.5579
2047.00,1.5271
2046.00,1.5041
2045.00,1.4894
2044.00,1.4833
2043.00,1.4855
2042.00,1.4958
2041.00,1.5141
2040.00,1.5403
2039.00,1.5740
2038.00,1.6135
2037.00,1.6574
2036.00,1.7039
2035.00,1.7522
2034.00,1.8015
2033.00,1.8515
2032.00,1.9020
2031.00,1.9529
2030.00,2.0037
2029.00,2.0538
2028.00,2.1027
2027.00,2.1499
2026.00,2.1953
2025.00,2.2392
2024.00,2.2814
2023.00,2.3215
2022.00,2.3594
2021.00,2.3955
2020.00,2.4294
2019.00,2.4598
2018.00,2.4861
2017.00,2.5097
2016.00,2.5332
2015.00,2.5584
2014.00,2.5851
2013.00,2.6120
2012.00,2.6377
2011.00,2.6613
2010.00,2.6828
2009.00,2.7029
2008.00,2.7225
2007.00,2.7416
2006.00,2.7599
2005.00,2.7767
2004.00,2.7911
2003.00,2.8031
2002.00,2.8144
2001.00,2.8274
2000.00,2.8422
1999.00,2.8558
1998.00,2.8660
1997.00,2.8741
1996.00,2.8828
1995.00,2.8913
1994.00,2.8967
1993.00,2.8981
1992.00,2.8977
1991.00,2.8984
1990.00,2.9014
1989.00,2.9072
1988.00,2.9159
1987.00,2.9269
1986.00,2.9386
1985.00,2.9491
1984.00,2.9575
1983.00,2.9638
1982.00,2.9686
1981.00,2.9721
1980.00,2.9739
1979.00,2.9734
1978.00,2.9714
1977.00,2.9704
1976.00,2.9712
1975.00,2.9719
1974.00,2.9691
1973.00,2.9620
1972.00,2.9528
1971.00,2.9442
1970.00,2.9374
1969.00,2.9320
1968.00,2.9265
1967.00,2.9195
1966.00,2.9117
1965.00,2.9053
1964.00,2.9002
1963.00,2.8941
1962.00,2.8854
1961.00,2.8757
1960.00,2.8676
1959.00,2.8608
1958.00,2.8527
1957.00,2.8409
1956.00,2.8249
1955.00,2.8060
1954.00,2.7866
1953.00,2.7687
1952.00,2.7528
1951.00,2.7376
1950.00,2.7217
1949.00,2.7045
1948.00,2.6861
1947.00,2.6660
1946.00,2.6426
1945.00,2.6156
1944.00,2.5848
1943.00,2.5509
1942.00,2.5155
1941.00,2.4821
1940.00,2.4524
1939.00,2.4249
1938.00,2.3961
1937.00,2.3634
1936.00,2.3256
1935.00,2.2827
1934.00,2.2353
1933.00,2.1845
1932.00,2.1312
1931.00,2.0759
1930.00,2.0197
1929.00,1.9629
1928.00,1.9058
1927.00,1.8486
1926.00,1.7923
1925.00,1.7376
1924.00,1.6853
1923.00,1.6376
1922.00,1.5979
1921.00,1.5698
1920.00,1.5550
1919.00,1.5524
1918.00,1.5605
1917.00,1.5770
1916.00,1.6006
1915.00,1.6318
1914.00,1.6706
1913.00,1.7157
1912.00,1.7636
1911.00,1.8119
1910.00,1.8605
1909.00,1.9106
1908.00,1.9632
1907.00,2.0181
1906.00,2.0749
1905.00,2.1321
1904.00,2.1877
1903.00,2.2404
1902.00,2.2898
1901.00,2.3363
1900.00,2.3809
1899.00,2.4241
1898.00,2.4658
1897.00,2.5050
1896.00,2.5404
1895.00,2.5721
1894.00,2.6009
1893.00,2.6280
1892.00,2.6541
1891.00,2.6804
1890.00,2.7069
1889.00,2.7322
1888.00,2.7559
1887.00,2.7798
1886.00,2.8056
1885.00,2.8325
1884.00,2.8577
1883.00,2.8792
1882.00,2.8958
1881.00,2.9073
1880.00,2.9166
1879.00,2.9275
1878.00,2.9418
1877.00,2.9576
1876.00,2.9716
1875.00,2.9843
1874.00,2.9970
1873.00,3.0071
1872.00,3.0108
1871.00,3.0082
1870.00,3.0035
1869.00,2.9993
1868.00,2.9958
1867.00,2.9947
1866.00,2.9998
1865.00,3.0119
1864.00,3.0272
1863.00,3.0401
1862.00,3.0464
1861.00,3.0472
1860.00,3.0471
1859.00,3.0497
1858.00,3.0541
1857.00,3.0571
1856.00,3.0575
1855.00,3.0577
1854.00,3.0593
1853.00,3.0607
1852.00,3.0588
1851.00,3.0516
1850.00,3.0399
1849.00,3.0253
1848.00,3.0085
1847.00,2.9901
1846.00,2.9715
1845.00,2.9553
1844.00,2.9425
1843.00,2.9317
1842.00,2.9206
1841.00,2.9099
1840.00,2.9010
1839.00,2.8920
1838.00,2.8793
1837.00,2.8607
1836.00,2.8378
1835.00,2.8137
1834.00,2.7892
1833.00,2.7632
1832.00,2.7361
1831.00,2.7078
1830.00,2.6770
1829.00,2.6412
1828.00,2.6002
1827.00,2.5566
1826.00,2.5129
1825.00,2.4692
1824.00,2.4244
1823.00,2.3783
1822.00,2.3331
1821.00,2.2901
1820.00,2.2484
1819.00,2.2054
1818.00,2.1615
1817.00,2.1206
1816.00,2.0882
1815.00,2.0673
1814.00,2.0569
1813.00,2.0545
1812.00,2.0588
1811.00,2.0699
1810.00,2.0880
1809.00,2.1111
1808.00,2.1367
1807.00,2.1628
1806.00,2.1882
1805.00,2.2114
1804.00,2.2307
1803.00,2.2454
1802.00,2.2585
1801.00,2.2773
1800.00,2.3075
1799.00,2.3488
1798.00,2.3955
1797.00,2.4411
1796.00,2.4837
1795.00,2.5258
1794.00,2.5708
1793.00,2.6202
1792.00,2.6703
1791.00,2.7153
1790.00,2.7562
1789.00,2.7986
1788.00,2.8433
1787.00,2.8858
1786.00,2.9222
1785.00,2.9535
1784.00,2.9830
1783.00,3.0123
1782.00,3.0404
1781.00,3.0666
1780.00,3.0896
1779.00,3.1079
1778.00,3.1227
1777.00,3.1358
1776.00,3.1483
1775.00,3.1605
1774.00,3.1754
1773.00,3.1960
1772.00,3.2167
1771.00,3.2241
1770.00,3.2144
1769.00,3.1996
1768.00,3.1924
1767.00,3.1972
1766.00,3.2081
1765.00,3.2177
1764.00,3.2214
1763.00,3.2183
1762.00,3.2077
1761.00,3.1897
1760.00,3.1683
1759.00,3.1491
1758.00,3.1339
1757.00,3.1204
1756.00,3.1073
1755.00,3.0965
1754.00,3.0928
1753.00,3.1007
1752.00,3.1209
1751.00,3.1487
1750.00,3.1775
1749.00,3.2057
1748.00,3.2406
1747.00,3.2888
1746.00,3.3484
1745.00,3.4139
1744.00,3.4807
1743.00,3.5504
1742.00,3.6287
1741.00,3.7163
1740.00,3.8066
1739.00,3.8869
1738.00,3.9389
1737.00,3.9471
1736.00,3.9237
1735.00,3.9168
1734.00,3.9816
1733.00,4.1399
1732.00,4.3540
1731.00,4.5442
1730.00,4.7598
1729.00,4.8898
1728.00,4.6537
1727.00,4.4915
1726.00,4.4697
1725.00,4.5572
1724.00,4.6317
1723.00,4.5757
1722.00,4.5863
1721.00,4.7589
1720.00,4.9242
1719.00,4.8986
1718.00,4.6907
1717.00,4.3738
1716.00,4.2298
1715.00,4.2730
1714.00,4.4899
1713.00,4.7071
1712.00,4.7079
1711.00,4.9279
1710.00,5.0458
1709.00,4.6683
1708.00,4.6713
1707.00,4.9138
1706.00,4.7337
1705.00,4.5717
1704.00,4.6411
1703.00,4.8540
1702.00,5.0451
1701.00,4.7271
1700.00,4.5447
1699.00,4.5640
1698.00,4.6276
1697.00,4.6127
1696.00,4.5844
1695.00,4.4941
1694.00,4.3559
1693.00,4.2718
1692.00,4.2264
1691.00,4.1714
1690.00,4.0805
1689.00,3.9674
1688.00,3.8537
1687.00,3.7508
1686.00,3.6626
1685.00,3.5855
1684.00,3.5173
1683.00,3.4567
1682.00,3.4061
1681.00,3.3674
1680.00,3.3381
1679.00,3.3145
1678.00,3.2922
1677.00,3.2652
1676.00,3.2275
1675.00,3.1779
1674.00,3.1179
1673.00,3.0526
1672.00,2.9918
1671.00,2.9455
1670.00,2.9161
1669.00,2.8991
1668.00,2.8888
1667.00,2.8833
1666.00,2.8846
1665.00,2.8952
1664.00,2.9150
1663.00,2.9422
1662.00,2.9719
1661.00,3.0018
1660.00,3.0330
1659.00,3.0664
1658.00,3.0985
1657.00,3.1226
1656.00,3.1337
1655.00,3.1344
1654.00,3.1382
1653.00,3.1575
1652.00,3.1857
1651.00,3.2013
1650.00,3.2052
1649.00,3.2145
1648.00,3.2271
1647.00,3.2356
1646.00,3.2424
1645.00,3.2531
1644.00,3.2680
1643.00,3.2848
1642.00,3.3010
1641.00,3.3125
1640.00,3.3149
1639.00,3.3065
1638.00,3.2893
1637.00,3.2681
1636.00,3.2519
1635.00,3.2463
1634.00,3.2483
1633.00,3.2479
1632.00,3.2440
1631.00,3.2400
1630.00,3.2334
1629.00,3.2218
1628.00,3.2060
1627.00,3.1889
1626.00,3.1728
1625.00,3.1575
1624.00,3.1391
1623.00,3.1131
1622.00,3.0789
1621.00,3.0419
1620.00,3.0080
1619.00,2.9783
1618.00,2.9488
1617.00,2.9151
1616.00,2.8766
1615.00,2.8350
1614.00,2.7943
1613.00,2.7578
1612.00,2.7224
1611.00,2.6820
1610.00,2.6333
1609.00,2.5779
1608.00,2.5194
1607.00,2.4606
1606.00,2.4022
1605.00,2.3451
1604.00,2.2891
1603.00,2.2347
1602.00,2.1842
1601.00,2.1408
1600.00,2.1067
1599.00,2.0832
1598.00,2.0701
1597.00,2.0665
1596.00,2.0720
1595.00,2.0872
1594.00,2.1125
1593.00,2.1468
1592.00,2.1875
1591.00,2.2322
1590.00,2.2794
1589.00,2.3283
1588.00,2.3776
1587.00,2.4263
1586.00,2.4739
1585.00,2.5210
1584.00,2.5686
1583.00,2.6164
1582.00,2.6646
1581.00,2.7124
1580.00,2.7572
1579.00,2.7965
1578.00,2.8319
1577.00,2.8673
1576.00,2.9046
1575.00,2.9396
1574.00,2.9661
1573.00,2.9865
1572.00,3.0070
1571.00,3.0305
1570.00,3.0561
1569.00,3.0784
1568.00,3.0939
1567.00,3.1062
1566.00,3.1231
1565.00,3.1464
1564.00,3.1708
1563.00,3.1879
1562.00,3.1953
1561.00,3.1986
1560.00,3.2074
1559.00,3.2245
1558.00,3.2348
1557.00,3.2391
1556.00,3.2407
1555.00,3.2467
1554.00,3.2605
1553.00,3.2712
1552.00,3.2674
1551.00,3.2538
1550.00,3.2460
1549.00,3.2509
1548.00,3.2631
1547.00,3.2712
1546.00,3.2707
1545.00,3.2633
1544.00,3.2511
1543.00,3.2391
1542.00,3.2347
1541.00,3.2362
1540.00,3.2323
1539.00,3.2179
1538.00,3.2008
1537.00,3.1867
1536.00,3.1811
1535.00,3.1831
1534.00,3.1862
1533.00,3.1869
1532.00,3.1848
1531.00,3.1844
1530.00,3.1887
1529.00,3.1932
1528.00,3.1893
1527.00,3.1710
1526.00,3.1417
1525.00,3.1124
1524.00,3.0884
1523.00,3.0653
1522.00,3.0370
1521.00,3.0033
1520.00,2.9714
1519.00,2.9483
1518.00,2.9325
1517.00,2.9151
1516.00,2.8890
1515.00,2.8577
1514.00,2.8271
1513.00,2.7968
1512.00,2.7606
1511.00,2.7136
1510.00,2.6550
1509.00,2.5880
1508.00,2.5158
1507.00,2.4464
1506.00,2.3990
1505.00,2.3843
1504.00,2.3737
1503.00,2.3499
1502.00,2.3188
1501.00,2.2825
1500.00,2.2428
1499.00,2.2025
1498.00,2.1635
1497.00,2.1292
1496.00,2.1057
1495.00,2.0990
1494.00,2.1080
1493.00,2.1287
1492.00,2.1564
1491.00,2.1865
1490.00,2.2167
1489.00,2.2527
1488.00,2.3070
1487.00,2.3831
1486.00,2.4694
1485.00,2.5529
1484.00,2.6289
1483.00,2.6975
1482.00,2.7617
1481.00,2.8228
1480.00,2.8803
1479.00,2.9321
1478.00,2.9772
1477.00,3.0157
1476.00,3.0486
1475.00,3.0788
1474.00,3.1112
1473.00,3.1518
1472.00,3.2000
1471.00,3.2488
1470.00,3.2914
1469.00,3.3286
1468.00,3.3671
1467.00,3.4105
1466.00,3.4542
1465.00,3.4887
1464.00,3.5082
1463.00,3.5177
1462.00,3.5261
1461.00,3.5365
1460.00,3.5466
1459.00,3.5542
1458.00,3.5662
1457.00,3.5996
1456.00,3.6750
1455.00,3.7995
1454.00,3.9601
1453.00,4.1216
1452.00,4.2227
1451.00,4.2578
1450.00,4.2772
1449.00,4.2775
1448.00,4.2024
1447.00,4.0484
1446.00,3.8816
1445.00,3.7475
1444.00,3.6533
1443.00,3.5938
1442.00,3.5625
1441.00,3.5508
1440.00,3.5499
1439.00,3.5558
1438.00,3.5708
1437.00,3.5983
1436.00,3.6384
1435.00,3.6906
1434.00,3.7561
1433.00,3.8256
1432.00,3.8715
1431.00,3.8748
1430.00,3.8584
1429.00,3.8514
1428.00,3.8553
1427.00,3.8574
1426.00,3.8544
1425.00,3.8521
1424.00,3.8530
1423.00,3.8587
1422.00,3.8727
1421.00,3.8928
1420.00,3.9026
1419.00,3.8741
1418.00,3.7985
1417.00,3.7126
1416.00,3.6539
1415.00,3.6231
1414.00,3.6023
1413.00,3.5771
1412.00,3.5470
1411.00,3.5215
1410.00,3.5093
1409.00,3.5128
1408.00,3.5273
1407.00,3.5411
1406.00,3.5445
1405.00,3.5375
1404.00,3.5268
1403.00,3.5227
1402.00,3.5299
1401.00,3.5429
1400.00,3.5540
1399.00,3.5607
1398.00,3.5616
1397.00,3.5501
1396.00,3.5235
1395.00,3.4934
1394.00,3.4774
1393.00,3.4796
1392.00,3.4825
1391.00,3.4682
1390.00,3.4387
1389.00,3.4091
1388.00,3.3909
1387.00,3.3846
1386.00,3.3815
1385.00,3.3735
1384.00,3.3595
1383.00,3.3414
1382.00,3.3192
1381.00,3.2908
1380.00,3.2559
1379.00,3.2179
1378.00,3.1813
1377.00,3.1476
1376.00,3.1142
1375.00,3.0782
1374.00,3.0400
1373.00,3.0043
1372.00,2.9745
1371.00,2.9486
1370.00,2.9217
1369.00,2.8914
1368.00,2.8590
1367.00,2.8285
1366.00,2.8014
1365.00,2.7750
1364.00,2.7463
1363.00,2.7184
1362.00,2.7022
1361.00,2.7091
1360.00,2.7403
1359.00,2.7872
1358.00,2.8430
1357.00,2.9076
1356.00,2.9838
1355.00,3.0709
1354.00,3.1615
1353.00,3.2485
1352.00,3.3337
1351.00,3.4247
1350.00,3.5222
1349.00,3.6125
1348.00,3.6757
1347.00,3.7010
1346.00,3.6884
1345.00,3.6457
1344.00,3.5916
1343.00,3.5496
1342.00,3.5355
1341.00,3.5564
1340.00,3.6078
1339.00,3.6570
1338.00,3.6434
1337.00,3.5547
1336.00,3.4469
1335.00,3.3612
1334.00,3.3060
1333.00,3.2756
1332.00,3.2618
1331.00,3.2597
1330.00,3.2688
1329.00,3.2914
1328.00,3.3288
1327.00,3.3792
1326.00,3.4375
1325.00,3.4956
1324.00,3.5463
1323.00,3.5865
1322.00,3.6187
1321.00,3.6488
1320.00,3.6833
1319.00,3.7237
1318.00,3.7644
1317.00,3.8030
1316.00,3.8505
1315.00,3.9234
1314.00,4.0228
1313.00,4.1129
1312.00,4.1346
1311.00,4.0850
1310.00,4.0188
1309.00,3.9642
1308.00,3.9094
1307.00,3.8331
1306.00,3.7371
1305.00,3.6443
1304.00,3.5719
1303.00,3.5231
1302.00,3.4935
1301.00,3.4774
1300.00,3.4696
1299.00,3.4663
1298.00,3.4665
1297.00,3.4707
1296.00,3.4829
1295.00,3.5060
1294.00,3.5342
1293.00,3.5572
1292.00,3.5737
1291.00,3.5923
1290.00,3.6170
1289.00,3.6405
1288.00,3.6542
1287.00,3.6596
1286.00,3.6633
1285.00,3.6688
1284.00,3.6719
1283.00,3.6662
1282.00,3.6550
1281.00,3.6540
1280.00,3.6784
1279.00,3.7273
1278.00,3.7730
1277.00,3.7753
1276.00,3.7364
1275.00,3.6910
1274.00,3.6611
1273.00,3.6522
1272.00,3.6610
1271.00,3.6816
1270.00,3.7082
1269.00,3.7332
1268.00,3.7527
1267.00,3.7695
1266.00,3.7847
1265.00,3.7894
1264.00,3.7749
1263.00,3.7505
1262.00,3.7376
1261.00,3.7479
1260.00,3.7719
1259.00,3.7829
1258.00,3.7597
1257.00,3.7098
1256.00,3.6577
1255.00,3.6167
1254.00,3.5858
1253.00,3.5602
1252.00,3.5405
1251.00,3.5323
1250.00,3.5334
1249.00,3.5301
1248.00,3.5114
1247.00,3.4827
1246.00,3.4573
1245.00,3.4420
1244.00,3.4343
1243.00,3.4297
1242.00,3.4261
1241.00,3.4269
1240.00,3.4384
1239.00,3.4632
1238.00,3.4999
1237.00,3.5483
1236.00,3.6033
1235.00,3.6529
1234.00,3.6980
1233.00,3.7542
1232.00,3.8342
1231.00,3.9381
1230.00,4.0470
1229.00,4.1251
1228.00,4.1577
1227.00,4.1854
1226.00,4.2455
1225.00,4.2855
1224.00,4.2328
1223.00,4.1732
1222.00,4.1732
1221.00,4.2137
1220.00,4.2094
1219.00,4.1324
1218.00,4.0371
1217.00,3.9298
1216.00,3.8185
1215.00,3.7410
1214.00,3.7201
1213.00,3.7373
1212.00,3.7337
1211.00,3.6753
1210.00,3.6046
1209.00,3.5658
1208.00,3.5560
1207.00,3.5419
1206.00,3.5022
1205.00,3.4521
1204.00,3.4153
1203.00,3.3958
1202.00,3.3792
1201.00,3.3521
1200.00,3.3166
1199.00,3.2853
1198.00,3.2686
1197.00,3.2683
1196.00,3.2772
1195.00,3.2845
1194.00,3.2859
1193.00,3.2846
1192.00,3.2827
1191.00,3.2799
1190.00,3.2793
1189.00,3.2888
1188.00,3.3138
1187.00,3.3505
1186.00,3.3887
1185.00,3.4216
1184.00,3.4518
1183.00,3.4824
1182.00,3.5115
1181.00,3.5375
1180.00,3.5640
1179.00,3.5920
1178.00,3.6161
1177.00,3.6358
1176.00,3.6605
1175.00,3.6920
1174.00,3.7183
1173.00,3.7307
1172.00,3.7436
1171.00,3.7743
1170.00,3.8112
1169.00,3.8278
1168.00,3.8264
1167.00,3.8306
1166.00,3.8463
1165.00,3.8597
1164.00,3.8628
1163.00,3.8647
1162.00,3.8587
1161.00,3.8246
1160.00,3.8018
1159.00,3.8498
1158.00,3.9979
1157.00,4.2393
1156.00,4.4681
1155.00,4.4995
1154.00,4.3182
1153.00,4.1294
1152.00,4.0208
1151.00,3.9694
1150.00,3.9440
1149.00,3.9460
1148.00,3.9992
1147.00,4.1253
1146.00,4.2962
1145.00,4.3423
1144.00,4.2973
1143.00,4.2146
1142.00,4.0464
1141.00,3.9205
1140.00,3.8754
1139.00,3.8898
1138.00,3.9436
1137.00,3.9913
1136.00,3.9934
1135.00,4.0096
1134.00,4.0785
1133.00,4.1563
1132.00,4.1684
1131.00,4.1114
1130.00,4.0680
1129.00,4.1007
1128.00,4.1805
1127.00,4.1706
1126.00,4.0752
1125.00,3.9848
1124.00,3.9163
1123.00,3.8777
1122.00,3.8737
1121.00,3.8943
1120.00,3.9329
1119.00,4.0157
1118.00,4.1828
1117.00,4.4715
1116.00,4.6986
1115.00,4.7916
1114.00,5.1055
1113.00,4.6600
1112.00,4.4358
1111.00,4.3719
1110.00,4.2727
1109.00,4.1390
1108.00,4.0532
1107.00,4.0365
1106.00,4.0875
1105.00,4.1607
1104.00,4.0952
1103.00,3.9706
1102.00,3.9249
1101.00,3.9579
1100.00,3.9760
1099.00,3.8946
1098.00,3.8254
1097.00,3.8301
1096.00,3.8664
1095.00,3.8802
1094.00,3.8723
1093.00,3.8581
1092.00,3.8321
1091.00,3.7772
1090.00,3.6983
1089.00,3.6360
1088.00,3.6122
1087.00,3.6031
1086.00,3.5794
1085.00,3.5492
1084.00,3.5281
1083.00,3.5079
1082.00,3.4702
1081.00,3.4182
1080.00,3.3792
1079.00,3.3763
1078.00,3.4127
1077.00,3.4735
1076.00,3.5362
1075.00,3.5821
1074.00,3.6017
1073.00,3.5913
1072.00,3.5559
1071.00,3.5157
1070.00,3.4975
1069.00,3.5143
1068.00,3.5569
1067.00,3.5968
1066.00,3.6051
1065.00,3.5828
1064.00,3.5594
1063.00,3.5608
1062.00,3.5875
1061.00,3.6151
1060.00,3.6195
1059.00,3.6086
1058.00,3.6106
1057.00,3.6381
1056.00,3.6792
1055.00,3.7181
1054.00,3.7507
1053.00,3.7748
1052.00,3.7954
1051.00,3.8079
1050.00,3.7919
1049.00,3.7595
1048.00,3.7256
1047.00,3.6877
1046.00,3.6584
1045.00,3.6591
1044.00,3.6891
1043.00,3.7178
1042.00,3.7311
1041.00,3.7526
1040.00,3.8044
1039.00,3.8897
1038.00,3.9934
1037.00,4.1258
1036.00,4.1852
1035.00,4.0773
1034.00,4.0270
1033.00,4.0764
1032.00,4.1594
1031.00,4.1741
1030.00,4.0760
1029.00,3.9533
1028.00,3.8715
1027.00,3.8599
1026.00,3.9280
1025.00,4.0542
1024.00,4.1340
1023.00,4.1248
1022.00,4.1313
1021.00,4.1426
1020.00,4.0867
1019.00,3.9989
1018.00,3.9534
1017.00,3.9723
1016.00,4.0196
1015.00,4.0569
1014.00,4.1216
1013.00,4.2313
1012.00,4.2815
1011.00,4.2350
1010.00,4.2149
1009.00,4.2685
1008.00,4.5716
1007.00,4.6985
1006.00,4.1480
1005.00,3.9845
1004.00,4.0158
1003.00,4.2340
1002.00,4.7474
1001.00,4.6551
1000.00,4.3984
999.00,4.2770
998.00,4.1966
997.00,4.1514
996.00,4.1476
995.00,4.2138
994.00,4.3084
993.00,4.3498
992.00,4.3627
991.00,4.4107
990.00,4.4993
989.00,4.4831
988.00,4.3654
987.00,4.2828
986.00,4.2372
985.00,4.2344
984.00,4.2867
983.00,4.3916
982.00,4.5089
981.00,4.5287
980.00,4.4321
979.00,4.3383
978.00,4.2850
977.00,4.2557
976.00,4.2625
975.00,4.3601
974.00,4.5238
973.00,4.5657
972.00,4.8275
971.00,4.7740
970.00,4.2425
969.00,4.0867
968.00,4.0994
967.00,4.2315
966.00,4.4321
965.00,4.4472
964.00,4.4636
963.00,4.6150
962.00,4.9694
961.00,5.1678
960.00,4.4983
959.00,4.2103
958.00,4.1327
957.00,4.2533
956.00,4.6032
955.00,4.7594
954.00,4.5535
953.00,4.3213
952.00,4.1493
951.00,4.0565
950.00,4.0075
949.00,3.9842
948.00,3.9837
947.00,4.0063
946.00,4.0504
945.00,4.1150
944.00,4.1954
943.00,4.2338
942.00,4.1842
941.00,4.1390
940.00,4.1509
939.00,4.1834
938.00,4.1671
937.00,4.0757
936.00,3.9893
935.00,3.9653
934.00,3.9926
933.00,4.0257
932.00,4.0243
931.00,4.0197
930.00,4.0658
929.00,4.1801
928.00,4.2866
927.00,4.2068
926.00,4.0731
925.00,4.0557
924.00,4.0928
923.00,4.0360
922.00,3.9750
921.00,3.9793
920.00,3.9764
919.00,3.9522
918.00,3.9542
917.00,4.0070
916.00,4.0936
915.00,4.3101
914.00,4.6468
913.00,4.9282
912.00,5.0904
911.00,4.3928
910.00,4.2635
909.00,4.4229
908.00,4.7808
907.00,5.1430
906.00,4.5104
905.00,4.1678
904.00,4.0099
903.00,3.9996
902.00,4.1695
901.00,4.3924
900.00,4.2997
899.00,4.2128
898.00,4.1891
897.00,4.1705
896.00,4.2110
895.00,4.3438
894.00,4.5560
893.00,4.6954
892.00,4.5946
891.00,4.3408
890.00,4.1699
889.00,4.1692
888.00,4.4473
887.00,4.5864
886.00,4.2517
885.00,4.1654
884.00,4.1377
883.00,4.0778
882.00,4.0591
881.00,4.1072
880.00,4.1762
879.00,4.1158
878.00,3.9568
877.00,3.8319
876.00,3.7906
875.00,3.8213
874.00,3.8643
873.00,3.8506
872.00,3.8252
871.00,3.8551
870.00,3.9259
869.00,3.9979
868.00,4.0754
867.00,4.1199
866.00,4.0640
865.00,3.9668
864.00,3.9033
863.00,3.9209
862.00,4.0371
861.00,4.1293
860.00,4.0514
859.00,3.9494
858.00,3.8976
857.00,3.8741
856.00,3.8508
855.00,3.8357
854.00,3.8534
853.00,3.8876
852.00,3.8757
851.00,3.8094
850.00,3.7744
849.00,3.8122
848.00,3.9060
847.00,3.9455
846.00,3.9162
845.00,3.9290
844.00,4.1176
843.00,4.5699
842.00,4.5466
841.00,4.6035
840.00,4.4894
839.00,4.0491
838.00,3.8685
837.00,3.8189
836.00,3.8147
835.00,3.7841
834.00,3.7377
833.00,3.7304
832.00,3.7748
831.00,3.8692
830.00,3.9852
829.00,4.0207
828.00,3.9496
827.00,3.9537
826.00,4.1532
825.00,4.1849
824.00,3.9107
823.00,3.8434
822.00,3.9268
821.00,4.1637
820.00,4.4495
819.00,4.0895
818.00,3.8875
817.00,3.8858
816.00,3.9620
815.00,4.0298
814.00,4.0063
813.00,3.8754
812.00,3.8113
811.00,3.9092
810.00,4.2879
809.00,4.6683
808.00,4.1818
807.00,4.0345
806.00,4.0191
805.00,4.0740
804.00,4.2019
803.00,4.2880
802.00,4.3092
801.00,4.1815
800.00,4.0263
799.00,3.9162
798.00,3.8188
797.00,3.7293
796.00,3.6891
795.00,3.7202
794.00,3.8358
793.00,4.0480
792.00,4.3248
791.00,4.5815
790.00,4.4607
789.00,4.1646
788.00,4.0154
787.00,3.9520
786.00,3.9017
785.00,3.8330
784.00,3.7598
783.00,3.7271
782.00,3.7694
781.00,3.9171
780.00,4.1864
779.00,4.4498
778.00,4.3985
777.00,4.1912
776.00,4.0424
775.00,3.9655
774.00,3.9352
773.00,3.9543
772.00,4.0445
771.00,4.1768
770.00,4.1601
769.00,4.0375
768.00,3.9651
767.00,3.9184
766.00,3.8951
765.00,3.9219
764.00,3.9826
763.00,4.0508
762.00,4.1427
761.00,4.2520
760.00,4.3419
759.00,4.5028
758.00,4.7277
757.00,4.7509
756.00,4.8183
755.00,4.7755
754.00,4.4613
753.00,4.2463
752.00,4.1236
751.00,4.0646
750.00,4.0375
749.00,3.9604
748.00,3.8322
747.00,3.7381
746.00,3.7103
745.00,3.7559
744.00,3.8571
743.00,3.9772
742.00,4.0442
741.00,4.1852
740.00,4.6261
739.00,4.5112
738.00,4.1780
737.00,4.1989
736.00,4.5462
735.00,4.4399
734.00,4.0791
733.00,3.9814
732.00,3.9463
731.00,3.9686
730.00,4.0514
729.00,4.3036
728.00,4.8503
727.00,4.4011
726.00,4.2855
725.00,4.5701
724.00,4.5301
723.00,4.2935
722.00,4.3060
721.00,4.4246
720.00,4.4694
719.00,4.3777
718.00,4.2784
717.00,4.3891
716.00,4.4912
715.00,4.3238
714.00,4.1057
713.00,3.9148
712.00,3.8382
711.00,3.9040
710.00,4.1261
709.00,4.4937
708.00,4.4268
707.00,4.0963
706.00,3.9413
705.00,3.9122
704.00,3.9350
703.00,3.9768
702.00,4.0315
701.00,4.0384
700.00,3.9636
