Created as New Dataset,Sample 116 By Administrator Date Wednesday, November 24 2021
cm-1,A
7502.00,1.1839
7501.00,1.1817
7500.00,1.1795
7499.00,1.1774
7498.00,1.1752
7497.00,1.1731
7496.00,1.1710
7495.00,1.1684
7494.00,1.1646
7493.00,1.1601
7492.00,1.1558
7491.00,1.1520
7490.00,1.1483
7489.00,1.1436
7488.00,1.1379
7487.00,1.1319
7486.00,1.1259
7485.00,1.1197
7484.00,1.1124
7483.00,1.1036
7482.00,1.0940
7481.00,1.0847
7480.00,1.0764
7479.00,1.0690
7478.00,1.0616
7477.00,1.0539
7476.00,1.0458
7475.00,1.0375
7474.00,1.0286
7473.00,1.0188
7472.00,1.0082
7471.00,0.9974
7470.00,0.9868
7469.00,0.9769
7468.00,0.9674
7467.00,0.9581
7466.00,0.9488
7465.00,0.9393
7464.00,0.9299
7463.00,0.9205
7462.00,0.9110
7461.00,0.9016
7460.00,0.8925
7459.00,0.8840
7458.00,0.8759
7457.00,0.8679
7456.00,0.8599
7455.00,0.8518
7454.00,0.8442
7453.00,0.8372
7452.00,0.8308
7451.00,0.8249
7450.00,0.8195
7449.00,0.8144
7448.00,0.8099
7447.00,0.8060
7446.00,0.8025
7445.00,0.7993
7444.00,0.7966
7443.00,0.7944
7442.00,0.7930
7441.00,0.7921
7440.00,0.7916
7439.00,0.7914
7438.00,0.7918
7437.00,0.7928
7436.00,0.7942
7435.00,0.7961
7434.00,0.7986
7433.00,0.8019
7432.00,0.8059
7431.00,0.8105
7430.00,0.8154
7429.00,0.8206
7428.00,0.8260
7427.00,0.8318
7426.00,0.8378
7425.00,0.8440
7424.00,0.8504
7423.00,0.8568
7422.00,0.8634
7421.00,0.8702
7420.00,0.8773
7419.00,0.8848
7418.00,0.8927
7417.00,0.9009
7416.00,0.9093
7415.00,0.9177
7414.00,0.9258
7413.00,0.9336
7412.00,0.9409
7411.00,0.9479
7410.00,0.9545
7409.00,0.9608
7408.00,0.9673
7407.00,0.9747
7406.00,0.9832
7405.00,0.9920
7404.00,1.0004
7403.00,1.0085
7402.00,1.0164
7401.00,1.0241
7400.00,1.0311
7399.00,1.0372
7398.00,1.0429
7397.00,1.0484
7396.00,1.0538
7395.00,1.0589
7394.00,1.0639
7393.00,1.0689
7392.00,1.0738
7391.00,1.0785
7390.00,1.0830
7389.00,1.0872
7388.00,1.0913
7387.00,1.0951
7386.00,1.0986
7385.00,1.1016
7384.00,1.1039
7383.00,1.1057
7382.00,1.1076
7381.00,1.1096
7380.00,1.1120
7379.00,1.1146
7378.00,1.1173
7377.00,1.1194
7376.00,1.1202
7375.00,1.1195
7374.00,1.1177
7373.00,1.1151
7372.00,1.1118
7371.00,1.1081
7370.00,1.1045
7369.00,1.1014
7368.00,1.0983
7367.00,1.0950
7366.00,1.0915
7365.00,1.0882
7364.00,1.0851
7363.00,1.0822
7362.00,1.0797
7361.00,1.0779
7360.00,1.0769
7359.00,1.0760
7358.00,1.0743
7357.00,1.0717
7356.00,1.0688
7355.00,1.0663
7354.00,1.0646
7353.00,1.0635
7352.00,1.0625
7351.00,1.0611
7350.00,1.0587
7349.00,1.0543
7348.00,1.0476
7347.00,1.0390
7346.00,1.0300
7345.00,1.0220
7344.00,1.0153
7343.00,1.0098
7342.00,1.0049
7341.00,1.0000
7340.00,0.9945
7339.00,0.9876
7338.00,0.9792
7337.00,0.9698
7336.00,0.9601
7335.00,0.9507
7334.00,0.9417
7333.00,0.9330
7332.00,0.9244
7331.00,0.9157
7330.00,0.9066
7329.00,0.8975
7328.00,0.8888
7327.00,0.8805
7326.00,0.8726
7325.00,0.8648
7324.00,0.8573
7323.00,0.8503
7322.00,0.8436
7321.00,0.8369
7320.00,0.8301
7319.00,0.8234
7318.00,0.8174
7317.00,0.8123
7316.00,0.8079
7315.00,0.8040
7314.00,0.8002
7313.00,0.7965
7312.00,0.7929
7311.00,0.7895
7310.00,0.7864
7309.00,0.7839
7308.00,0.7821
7307.00,0.7810
7306.00,0.7806
7305.00,0.7808
7304.00,0.7814
7303.00,0.7827
7302.00,0.7846
7301.00,0.7872
7300.00,0.7900
7299.00,0.7930
7298.00,0.7966
7297.00,0.8008
7296.00,0.8055
7295.00,0.8104
7294.00,0.8152
7293.00,0.8202
7292.00,0.8256
7291.00,0.8316
7290.00,0.8380
7289.00,0.8449
7288.00,0.8522
7287.00,0.8599
7286.00,0.8678
7285.00,0.8758
7284.00,0.8840
7283.00,0.8927
7282.00,0.9016
7281.00,0.9106
7280.00,0.9193
7279.00,0.9281
7278.00,0.9372
7277.00,0.9465
7276.00,0.9556
7275.00,0.9643
7274.00,0.9728
7273.00,0.9814
7272.00,0.9899
7271.00,0.9979
7270.00,1.0060
7269.00,1.0148
7268.00,1.0244
7267.00,1.0339
7266.00,1.0425
7265.00,1.0503
7264.00,1.0580
7263.00,1.0658
7262.00,1.0735
7261.00,1.0806
7260.00,1.0874
7259.00,1.0944
7258.00,1.1018
7257.00,1.1094
7256.00,1.1165
7255.00,1.1229
7254.00,1.1287
7253.00,1.1346
7252.00,1.1405
7251.00,1.1462
7250.00,1.1515
7249.00,1.1565
7248.00,1.1612
7247.00,1.1655
7246.00,1.1692
7245.00,1.1727
7244.00,1.1762
7243.00,1.1798
7242.00,1.1832
7241.00,1.1860
7240.00,1.1884
7239.00,1.1906
7238.00,1.1925
7237.00,1.1939
7236.00,1.1950
7235.00,1.1957
7234.00,1.1960
7233.00,1.1955
7232.00,1.1942
7231.00,1.1921
7230.00,1.1898
7229.00,1.1874
7228.00,1.1847
7227.00,1.1817
7226.00,1.1785
7225.00,1.1754
7224.00,1.1721
7223.00,1.1684
7222.00,1.1643
7221.00,1.1600
7220.00,1.1559
7219.00,1.1515
7218.00,1.1468
7217.00,1.1418
7216.00,1.1365
7215.00,1.1305
7214.00,1.1233
7213.00,1.1149
7212.00,1.1061
7211.00,1.0974
7210.00,1.0889
7209.00,1.0806
7208.00,1.0722
7207.00,1.0638
7206.00,1.0555
7205.00,1.0470
7204.00,1.0378
7203.00,1.0279
7202.00,1.0175
7201.00,1.0069
7200.00,0.9964
7199.00,0.9861
7198.00,0.9758
7197.00,0.9655
7196.00,0.9553
7195.00,0.9456
7194.00,0.9363
7193.00,0.9272
7192.00,0.9177
7191.00,0.9079
7190.00,0.8984
7189.00,0.8892
7188.00,0.8801
7187.00,0.8709
7186.00,0.8621
7185.00,0.8540
7184.00,0.8467
7183.00,0.8401
7182.00,0.8336
7181.00,0.8272
7180.00,0.8209
7179.00,0.8149
7178.00,0.8094
7177.00,0.8047
7176.00,0.8007
7175.00,0.7972
7174.00,0.7943
7173.00,0.7921
7172.00,0.7907
7171.00,0.7900
7170.00,0.7898
7169.00,0.7901
7168.00,0.7910
7167.00,0.7925
7166.00,0.7944
7165.00,0.7967
7164.00,0.7995
7163.00,0.8027
7162.00,0.8064
7161.00,0.8102
7160.00,0.8143
7159.00,0.8189
7158.00,0.8246
7157.00,0.8311
7156.00,0.8380
7155.00,0.8447
7154.00,0.8515
7153.00,0.8586
7152.00,0.8662
7151.00,0.8740
7150.00,0.8819
7149.00,0.8896
7148.00,0.8973
7147.00,0.9052
7146.00,0.9133
7145.00,0.9217
7144.00,0.9302
7143.00,0.9387
7142.00,0.9474
7141.00,0.9566
7140.00,0.9658
7139.00,0.9748
7138.00,0.9833
7137.00,0.9916
7136.00,0.9998
7135.00,1.0078
7134.00,1.0156
7133.00,1.0234
7132.00,1.0313
7131.00,1.0394
7130.00,1.0475
7129.00,1.0556
7128.00,1.0635
7127.00,1.0710
7126.00,1.0782
7125.00,1.0854
7124.00,1.0926
7123.00,1.0997
7122.00,1.1066
7121.00,1.1133
7120.00,1.1197
7119.00,1.1257
7118.00,1.1311
7117.00,1.1358
7116.00,1.1400
7115.00,1.1440
7114.00,1.1479
7113.00,1.1518
7112.00,1.1555
7111.00,1.1591
7110.00,1.1626
7109.00,1.1663
7108.00,1.1697
7107.00,1.1725
7106.00,1.1749
7105.00,1.1770
7104.00,1.1788
7103.00,1.1801
7102.00,1.1809
7101.00,1.1814
7100.00,1.1817
7099.00,1.1816
7098.00,1.1812
7097.00,1.1809
7096.00,1.1806
7095.00,1.1798
7094.00,1.1781
7093.00,1.1758
7092.00,1.1735
7091.00,1.1710
7090.00,1.1681
7089.00,1.1644
7088.00,1.1601
7087.00,1.1557
7086.00,1.1513
7085.00,1.1467
7084.00,1.1416
7083.00,1.1359
7082.00,1.1297
7081.00,1.1232
7080.00,1.1164
7079.00,1.1095
7078.00,1.1027
7077.00,1.0959
7076.00,1.0890
7075.00,1.0818
7074.00,1.0740
7073.00,1.0654
7072.00,1.0562
7071.00,1.0465
7070.00,1.0365
7069.00,1.0265
7068.00,1.0167
7067.00,1.0071
7066.00,0.9979
7065.00,0.9887
7064.00,0.9791
7063.00,0.9691
7062.00,0.9588
7061.00,0.9487
7060.00,0.9388
7059.00,0.9290
7058.00,0.9193
7057.00,0.9098
7056.00,0.9006
7055.00,0.8915
7054.00,0.8824
7053.00,0.8735
7052.00,0.8649
7051.00,0.8568
7050.00,0.8490
7049.00,0.8417
7048.00,0.8347
7047.00,0.8278
7046.00,0.8211
7045.00,0.8145
7044.00,0.8084
7043.00,0.8031
7042.00,0.7987
7041.00,0.7950
7040.00,0.7916
7039.00,0.7888
7038.00,0.7867
7037.00,0.7855
7036.00,0.7848
7035.00,0.7843
7034.00,0.7841
7033.00,0.7848
7032.00,0.7864
7031.00,0.7886
7030.00,0.7911
7029.00,0.7939
7028.00,0.7971
7027.00,0.8008
7026.00,0.8051
7025.00,0.8100
7024.00,0.8153
7023.00,0.8209
7022.00,0.8270
7021.00,0.8334
7020.00,0.8401
7019.00,0.8472
7018.00,0.8547
7017.00,0.8627
7016.00,0.8709
7015.00,0.8792
7014.00,0.8877
7013.00,0.8964
7012.00,0.9052
7011.00,0.9139
7010.00,0.9228
7009.00,0.9321
7008.00,0.9416
7007.00,0.9512
7006.00,0.9607
7005.00,0.9700
7004.00,0.9792
7003.00,0.9879
7002.00,0.9963
7001.00,1.0047
7000.00,1.0137
6999.00,1.0231
6998.00,1.0327
6997.00,1.0421
6996.00,1.0513
6995.00,1.0603
6994.00,1.0688
6993.00,1.0766
6992.00,1.0838
6991.00,1.0908
6990.00,1.0981
6989.00,1.1055
6988.00,1.1131
6987.00,1.1205
6986.00,1.1278
6985.00,1.1347
6984.00,1.1414
6983.00,1.1480
6982.00,1.1543
6981.00,1.1603
6980.00,1.1656
6979.00,1.1704
6978.00,1.1749
6977.00,1.1792
6976.00,1.1833
6975.00,1.1870
6974.00,1.1905
6973.00,1.1940
6972.00,1.1980
6971.00,1.2021
6970.00,1.2055
6969.00,1.2076
6968.00,1.2087
6967.00,1.2095
6966.00,1.2102
6965.00,1.2106
6964.00,1.2103
6963.00,1.2093
6962.00,1.2082
6961.00,1.2073
6960.00,1.2061
6959.00,1.2044
6958.00,1.2021
6957.00,1.1995
6956.00,1.1972
6955.00,1.1952
6954.00,1.1930
6953.00,1.1900
6952.00,1.1860
6951.00,1.1814
6950.00,1.1762
6949.00,1.1703
6948.00,1.1638
6947.00,1.1573
6946.00,1.1511
6945.00,1.1447
6944.00,1.1379
6943.00,1.1307
6942.00,1.1234
6941.00,1.1159
6940.00,1.1077
6939.00,1.0987
6938.00,1.0890
6937.00,1.0793
6936.00,1.0695
6935.00,1.0593
6934.00,1.0487
6933.00,1.0380
6932.00,1.0276
6931.00,1.0175
6930.00,1.0076
6929.00,0.9976
6928.00,0.9871
6927.00,0.9762
6926.00,0.9651
6925.00,0.9539
6924.00,0.9426
6923.00,0.9314
6922.00,0.9206
6921.00,0.9104
6920.00,0.9005
6919.00,0.8908
6918.00,0.8813
6917.00,0.8722
6916.00,0.8632
6915.00,0.8546
6914.00,0.8465
6913.00,0.8389
6912.00,0.8318
6911.00,0.8253
6910.00,0.8191
6909.00,0.8135
6908.00,0.8082
6907.00,0.8034
6906.00,0.7992
6905.00,0.7955
6904.00,0.7923
6903.00,0.7896
6902.00,0.7875
6901.00,0.7860
6900.00,0.7852
6899.00,0.7851
6898.00,0.7857
6897.00,0.7871
6896.00,0.7892
6895.00,0.7917
6894.00,0.7945
6893.00,0.7978
6892.00,0.8015
6891.00,0.8058
6890.00,0.8106
6889.00,0.8160
6888.00,0.8218
6887.00,0.8280
6886.00,0.8348
6885.00,0.8419
6884.00,0.8492
6883.00,0.8568
6882.00,0.8647
6881.00,0.8730
6880.00,0.8814
6879.00,0.8899
6878.00,0.8983
6877.00,0.9070
6876.00,0.9157
6875.00,0.9245
6874.00,0.9336
6873.00,0.9429
6872.00,0.9526
6871.00,0.9624
6870.00,0.9720
6869.00,0.9813
6868.00,0.9905
6867.00,0.9997
6866.00,1.0087
6865.00,1.0174
6864.00,1.0260
6863.00,1.0345
6862.00,1.0432
6861.00,1.0522
6860.00,1.0613
6859.00,1.0702
6858.00,1.0788
6857.00,1.0871
6856.00,1.0949
6855.00,1.1023
6854.00,1.1091
6853.00,1.1157
6852.00,1.1220
6851.00,1.1285
6850.00,1.1353
6849.00,1.1420
6848.00,1.1483
6847.00,1.1541
6846.00,1.1596
6845.00,1.1649
6844.00,1.1699
6843.00,1.1747
6842.00,1.1792
6841.00,1.1834
6840.00,1.1870
6839.00,1.1901
6838.00,1.1928
6837.00,1.1952
6836.00,1.1973
6835.00,1.1991
6834.00,1.2007
6833.00,1.2022
6832.00,1.2033
6831.00,1.2036
6830.00,1.2035
6829.00,1.2035
6828.00,1.2036
6827.00,1.2036
6826.00,1.2033
6825.00,1.2028
6824.00,1.2020
6823.00,1.2005
6822.00,1.1982
6821.00,1.1950
6820.00,1.1913
6819.00,1.1871
6818.00,1.1826
6817.00,1.1779
6816.00,1.1732
6815.00,1.1681
6814.00,1.1627
6813.00,1.1575
6812.00,1.1524
6811.00,1.1473
6810.00,1.1413
6809.00,1.1343
6808.00,1.1265
6807.00,1.1185
6806.00,1.1101
6805.00,1.1014
6804.00,1.0921
6803.00,1.0827
6802.00,1.0733
6801.00,1.0639
6800.00,1.0541
6799.00,1.0437
6798.00,1.0329
6797.00,1.0222
6796.00,1.0117
6795.00,1.0011
6794.00,0.9904
6793.00,0.9797
6792.00,0.9692
6791.00,0.9589
6790.00,0.9486
6789.00,0.9380
6788.00,0.9273
6787.00,0.9166
6786.00,0.9061
6785.00,0.8958
6784.00,0.8857
6783.00,0.8758
6782.00,0.8662
6781.00,0.8571
6780.00,0.8484
6779.00,0.8401
6778.00,0.8321
6777.00,0.8244
6776.00,0.8172
6775.00,0.8106
6774.00,0.8047
6773.00,0.7996
6772.00,0.7948
6771.00,0.7903
6770.00,0.7865
6769.00,0.7834
6768.00,0.7811
6767.00,0.7793
6766.00,0.7780
6765.00,0.7773
6764.00,0.7773
6763.00,0.7779
6762.00,0.7791
6761.00,0.7808
6760.00,0.7829
6759.00,0.7857
6758.00,0.7893
6757.00,0.7935
6756.00,0.7983
6755.00,0.8033
6754.00,0.8087
6753.00,0.8146
6752.00,0.8209
6751.00,0.8275
6750.00,0.8344
6749.00,0.8417
6748.00,0.8496
6747.00,0.8579
6746.00,0.8664
6745.00,0.8750
6744.00,0.8838
6743.00,0.8926
6742.00,0.9016
6741.00,0.9107
6740.00,0.9200
6739.00,0.9295
6738.00,0.9393
6737.00,0.9492
6736.00,0.9593
6735.00,0.9692
6734.00,0.9791
6733.00,0.9889
6732.00,0.9987
6731.00,1.0084
6730.00,1.0182
6729.00,1.0281
6728.00,1.0379
6727.00,1.0474
6726.00,1.0566
6725.00,1.0657
6724.00,1.0747
6723.00,1.0837
6722.00,1.0924
6721.00,1.1008
6720.00,1.1089
6719.00,1.1168
6718.00,1.1244
6717.00,1.1316
6716.00,1.1386
6715.00,1.1457
6714.00,1.1530
6713.00,1.1603
6712.00,1.1673
6711.00,1.1738
6710.00,1.1795
6709.00,1.1845
6708.00,1.1890
6707.00,1.1934
6706.00,1.1978
6705.00,1.2021
6704.00,1.2060
6703.00,1.2096
6702.00,1.2130
6701.00,1.2162
6700.00,1.2190
6699.00,1.2215
6698.00,1.2238
6697.00,1.2259
6696.00,1.2276
6695.00,1.2289
6694.00,1.2294
6693.00,1.2292
6692.00,1.2286
6691.00,1.2277
6690.00,1.2265
6689.00,1.2250
6688.00,1.2231
6687.00,1.2210
6686.00,1.2187
6685.00,1.2160
6684.00,1.2125
6683.00,1.2085
6682.00,1.2041
6681.00,1.1992
6680.00,1.1936
6679.00,1.1876
6678.00,1.1815
6677.00,1.1755
6676.00,1.1694
6675.00,1.1628
6674.00,1.1558
6673.00,1.1484
6672.00,1.1405
6671.00,1.1320
6670.00,1.1229
6669.00,1.1134
6668.00,1.1037
6667.00,1.0936
6666.00,1.0835
6665.00,1.0733
6664.00,1.0630
6663.00,1.0524
6662.00,1.0417
6661.00,1.0311
6660.00,1.0204
6659.00,1.0095
6658.00,0.9985
6657.00,0.9874
6656.00,0.9762
6655.00,0.9649
6654.00,0.9537
6653.00,0.9425
6652.00,0.9314
6651.00,0.9202
6650.00,0.9092
6649.00,0.8984
6648.00,0.8880
6647.00,0.8780
6646.00,0.8682
6645.00,0.8590
6644.00,0.8505
6643.00,0.8424
6642.00,0.8348
6641.00,0.8276
6640.00,0.8206
6639.00,0.8141
6638.00,0.8081
6637.00,0.8025
6636.00,0.7974
6635.00,0.7930
6634.00,0.7893
6633.00,0.7865
6632.00,0.7843
6631.00,0.7829
6630.00,0.7822
6629.00,0.7823
6628.00,0.7830
6627.00,0.7842
6626.00,0.7858
6625.00,0.7879
6624.00,0.7906
6623.00,0.7937
6622.00,0.7972
6621.00,0.8011
6620.00,0.8056
6619.00,0.8109
6618.00,0.8170
6617.00,0.8236
6616.00,0.8306
6615.00,0.8382
6614.00,0.8462
6613.00,0.8545
6612.00,0.8631
6611.00,0.8718
6610.00,0.8807
6609.00,0.8898
6608.00,0.8991
6607.00,0.9083
6606.00,0.9174
6605.00,0.9264
6604.00,0.9355
6603.00,0.9450
6602.00,0.9547
6601.00,0.9644
6600.00,0.9742
6599.00,0.9843
6598.00,0.9947
6597.00,1.0049
6596.00,1.0147
6595.00,1.0242
6594.00,1.0336
6593.00,1.0432
6592.00,1.0527
6591.00,1.0618
6590.00,1.0708
6589.00,1.0797
6588.00,1.0884
6587.00,1.0967
6586.00,1.1044
6585.00,1.1119
6584.00,1.1194
6583.00,1.1269
6582.00,1.1345
6581.00,1.1419
6580.00,1.1491
6579.00,1.1560
6578.00,1.1624
6577.00,1.1684
6576.00,1.1741
6575.00,1.1793
6574.00,1.1842
6573.00,1.1887
6572.00,1.1930
6571.00,1.1971
6570.00,1.2009
6569.00,1.2041
6568.00,1.2068
6567.00,1.2092
6566.00,1.2113
6565.00,1.2129
6564.00,1.2140
6563.00,1.2152
6562.00,1.2165
6561.00,1.2179
6560.00,1.2190
6559.00,1.2196
6558.00,1.2195
6557.00,1.2183
6556.00,1.2162
6555.00,1.2137
6554.00,1.2111
6553.00,1.2085
6552.00,1.2055
6551.00,1.2022
6550.00,1.1989
6549.00,1.1956
6548.00,1.1917
6547.00,1.1868
6546.00,1.1815
6545.00,1.1763
6544.00,1.1715
6543.00,1.1665
6542.00,1.1609
6541.00,1.1548
6540.00,1.1484
6539.00,1.1415
6538.00,1.1341
6537.00,1.1263
6536.00,1.1180
6535.00,1.1094
6534.00,1.1006
6533.00,1.0918
6532.00,1.0830
6531.00,1.0738
6530.00,1.0640
6529.00,1.0538
6528.00,1.0435
6527.00,1.0330
6526.00,1.0222
6525.00,1.0111
6524.00,1.0001
6523.00,0.9892
6522.00,0.9783
6521.00,0.9672
6520.00,0.9561
6519.00,0.9450
6518.00,0.9340
6517.00,0.9231
6516.00,0.9123
6515.00,0.9017
6514.00,0.8914
6513.00,0.8813
6512.00,0.8713
6511.00,0.8615
6510.00,0.8520
6509.00,0.8431
6508.00,0.8348
6507.00,0.8271
6506.00,0.8197
6505.00,0.8126
6504.00,0.8060
6503.00,0.7999
6502.00,0.7943
6501.00,0.7893
6500.00,0.7850
6499.00,0.7814
6498.00,0.7785
6497.00,0.7762
6496.00,0.7747
6495.00,0.7739
6494.00,0.7738
6493.00,0.7744
6492.00,0.7755
6491.00,0.7772
6490.00,0.7795
6489.00,0.7825
6488.00,0.7860
6487.00,0.7900
6486.00,0.7948
6485.00,0.8003
6484.00,0.8062
6483.00,0.8125
6482.00,0.8192
6481.00,0.8265
6480.00,0.8342
6479.00,0.8422
6478.00,0.8505
6477.00,0.8591
6476.00,0.8680
6475.00,0.8769
6474.00,0.8862
6473.00,0.8958
6472.00,0.9059
6471.00,0.9162
6470.00,0.9266
6469.00,0.9369
6468.00,0.9472
6467.00,0.9574
6466.00,0.9677
6465.00,0.9780
6464.00,0.9881
6463.00,0.9983
6462.00,1.0085
6461.00,1.0187
6460.00,1.0288
6459.00,1.0389
6458.00,1.0489
6457.00,1.0591
6456.00,1.0693
6455.00,1.0793
6454.00,1.0890
6453.00,1.0983
6452.00,1.1073
6451.00,1.1160
6450.00,1.1243
6449.00,1.1323
6448.00,1.1402
6447.00,1.1482
6446.00,1.1562
6445.00,1.1641
6444.00,1.1715
6443.00,1.1785
6442.00,1.1851
6441.00,1.1913
6440.00,1.1968
6439.00,1.2021
6438.00,1.2075
6437.00,1.2130
6436.00,1.2182
6435.00,1.2230
6434.00,1.2275
6433.00,1.2317
6432.00,1.2354
6431.00,1.2386
6430.00,1.2411
6429.00,1.2432
6428.00,1.2450
6427.00,1.2467
6426.00,1.2481
6425.00,1.2494
6424.00,1.2504
6423.00,1.2511
6422.00,1.2511
6421.00,1.2506
6420.00,1.2494
6419.00,1.2475
6418.00,1.2451
6417.00,1.2425
6416.00,1.2399
6415.00,1.2372
6414.00,1.2341
6413.00,1.2304
6412.00,1.2260
6411.00,1.2210
6410.00,1.2156
6409.00,1.2101
6408.00,1.2044
6407.00,1.1984
6406.00,1.1920
6405.00,1.1850
6404.00,1.1776
6403.00,1.1695
6402.00,1.1608
6401.00,1.1516
6400.00,1.1422
6399.00,1.1329
6398.00,1.1237
6397.00,1.1141
6396.00,1.1038
6395.00,1.0931
6394.00,1.0821
6393.00,1.0710
6392.00,1.0599
6391.00,1.0486
6390.00,1.0372
6389.00,1.0258
6388.00,1.0142
6387.00,1.0023
6386.00,0.9902
6385.00,0.9779
6384.00,0.9655
6383.00,0.9532
6382.00,0.9411
6381.00,0.9292
6380.00,0.9175
6379.00,0.9062
6378.00,0.8953
6377.00,0.8847
6376.00,0.8744
6375.00,0.8643
6374.00,0.8545
6373.00,0.8452
6372.00,0.8364
6371.00,0.8280
6370.00,0.8202
6369.00,0.8130
6368.00,0.8065
6367.00,0.8006
6366.00,0.7953
6365.00,0.7908
6364.00,0.7870
6363.00,0.7838
6362.00,0.7811
6361.00,0.7789
6360.00,0.7773
6359.00,0.7764
6358.00,0.7764
6357.00,0.7773
6356.00,0.7790
6355.00,0.7815
6354.00,0.7848
6353.00,0.7888
6352.00,0.7932
6351.00,0.7979
6350.00,0.8031
6349.00,0.8089
6348.00,0.8153
6347.00,0.8221
6346.00,0.8294
6345.00,0.8372
6344.00,0.8454
6343.00,0.8539
6342.00,0.8628
6341.00,0.8719
6340.00,0.8813
6339.00,0.8907
6338.00,0.9003
6337.00,0.9102
6336.00,0.9204
6335.00,0.9307
6334.00,0.9410
6333.00,0.9513
6332.00,0.9616
6331.00,0.9719
6330.00,0.9820
6329.00,0.9922
6328.00,1.0025
6327.00,1.0130
6326.00,1.0235
6325.00,1.0340
6324.00,1.0444
6323.00,1.0543
6322.00,1.0639
6321.00,1.0733
6320.00,1.0827
6319.00,1.0922
6318.00,1.1016
6317.00,1.1106
6316.00,1.1192
6315.00,1.1276
6314.00,1.1357
6313.00,1.1435
6312.00,1.1512
6311.00,1.1589
6310.00,1.1668
6309.00,1.1745
6308.00,1.1818
6307.00,1.1884
6306.00,1.1943
6305.00,1.1996
6304.00,1.2044
6303.00,1.2092
6302.00,1.2138
6301.00,1.2182
6300.00,1.2223
6299.00,1.2261
6298.00,1.2296
6297.00,1.2326
6296.00,1.2351
6295.00,1.2369
6294.00,1.2384
6293.00,1.2396
6292.00,1.2405
6291.00,1.2411
6290.00,1.2416
6289.00,1.2421
6288.00,1.2425
6287.00,1.2425
6286.00,1.2417
6285.00,1.2403
6284.00,1.2383
6283.00,1.2356
6282.00,1.2326
6281.00,1.2294
6280.00,1.2261
6279.00,1.2227
6278.00,1.2191
6277.00,1.2151
6276.00,1.2105
6275.00,1.2055
6274.00,1.2003
6273.00,1.1947
6272.00,1.1887
6271.00,1.1822
6270.00,1.1753
6269.00,1.1681
6268.00,1.1604
6267.00,1.1524
6266.00,1.1442
6265.00,1.1357
6264.00,1.1268
6263.00,1.1175
6262.00,1.1078
6261.00,1.0976
6260.00,1.0870
6259.00,1.0761
6258.00,1.0652
6257.00,1.0544
6256.00,1.0434
6255.00,1.0322
6254.00,1.0207
6253.00,1.0090
6252.00,0.9972
6251.00,0.9853
6250.00,0.9732
6249.00,0.9612
6248.00,0.9492
6247.00,0.9374
6246.00,0.9258
6245.00,0.9142
6244.00,0.9027
6243.00,0.8914
6242.00,0.8804
6241.00,0.8698
6240.00,0.8597
6239.00,0.8499
6238.00,0.8405
6237.00,0.8316
6236.00,0.8232
6235.00,0.8152
6234.00,0.8077
6233.00,0.8010
6232.00,0.7951
6231.00,0.7898
6230.00,0.7852
6229.00,0.7813
6228.00,0.7779
6227.00,0.7750
6226.00,0.7728
6225.00,0.7715
6224.00,0.7710
6223.00,0.7714
6222.00,0.7724
6221.00,0.7743
6220.00,0.7768
6219.00,0.7801
6218.00,0.7839
6217.00,0.7884
6216.00,0.7935
6215.00,0.7992
6214.00,0.8054
6213.00,0.8121
6212.00,0.8191
6211.00,0.8267
6210.00,0.8347
6209.00,0.8433
6208.00,0.8523
6207.00,0.8616
6206.00,0.8712
6205.00,0.8811
6204.00,0.8912
6203.00,0.9016
6202.00,0.9123
6201.00,0.9230
6200.00,0.9339
6199.00,0.9448
6198.00,0.9560
6197.00,0.9672
6196.00,0.9781
6195.00,0.9889
6194.00,0.9997
6193.00,1.0107
6192.00,1.0217
6191.00,1.0325
6190.00,1.0433
6189.00,1.0539
6188.00,1.0643
6187.00,1.0745
6186.00,1.0846
6185.00,1.0945
6184.00,1.1043
6183.00,1.1139
6182.00,1.1237
6181.00,1.1333
6180.00,1.1427
6179.00,1.1517
6178.00,1.1603
6177.00,1.1688
6176.00,1.1771
6175.00,1.1848
6174.00,1.1920
6173.00,1.1991
6172.00,1.2060
6171.00,1.2126
6170.00,1.2189
6169.00,1.2249
6168.00,1.2306
6167.00,1.2359
6166.00,1.2407
6165.00,1.2454
6164.00,1.2499
6163.00,1.2543
6162.00,1.2583
6161.00,1.2619
6160.00,1.2649
6159.00,1.2674
6158.00,1.2691
6157.00,1.2703
6156.00,1.2712
6155.00,1.2722
6154.00,1.2731
6153.00,1.2736
6152.00,1.2738
6151.00,1.2735
6150.00,1.2727
6149.00,1.2712
6148.00,1.2690
6147.00,1.2664
6146.00,1.2636
6145.00,1.2603
6144.00,1.2565
6143.00,1.2523
6142.00,1.2479
6141.00,1.2430
6140.00,1.2378
6139.00,1.2322
6138.00,1.2264
6137.00,1.2203
6136.00,1.2134
6135.00,1.2058
6134.00,1.1977
6133.00,1.1895
6132.00,1.1812
6131.00,1.1723
6130.00,1.1631
6129.00,1.1535
6128.00,1.1436
6127.00,1.1333
6126.00,1.1225
6125.00,1.1115
6124.00,1.1003
6123.00,1.0889
6122.00,1.0772
6121.00,1.0653
6120.00,1.0530
6119.00,1.0404
6118.00,1.0275
6117.00,1.0144
6116.00,1.0013
6115.00,0.9882
6114.00,0.9752
6113.00,0.9625
6112.00,0.9498
6111.00,0.9374
6110.00,0.9250
6109.00,0.9129
6108.00,0.9009
6107.00,0.8892
6106.00,0.8779
6105.00,0.8671
6104.00,0.8566
6103.00,0.8464
6102.00,0.8365
6101.00,0.8272
6100.00,0.8185
6099.00,0.8104
6098.00,0.8029
6097.00,0.7963
6096.00,0.7905
6095.00,0.7855
6094.00,0.7812
6093.00,0.7777
6092.00,0.7749
6091.00,0.7728
6090.00,0.7714
6089.00,0.7708
6088.00,0.7709
6087.00,0.7718
6086.00,0.7733
6085.00,0.7757
6084.00,0.7787
6083.00,0.7825
6082.00,0.7870
6081.00,0.7922
6080.00,0.7979
6079.00,0.8043
6078.00,0.8111
6077.00,0.8184
6076.00,0.8261
6075.00,0.8342
6074.00,0.8428
6073.00,0.8519
6072.00,0.8614
6071.00,0.8713
6070.00,0.8814
6069.00,0.8917
6068.00,0.9022
6067.00,0.9128
6066.00,0.9233
6065.00,0.9338
6064.00,0.9444
6063.00,0.9552
6062.00,0.9662
6061.00,0.9771
6060.00,0.9881
6059.00,0.9990
6058.00,1.0100
6057.00,1.0208
6056.00,1.0316
6055.00,1.0422
6054.00,1.0527
6053.00,1.0631
6052.00,1.0734
6051.00,1.0837
6050.00,1.0939
6049.00,1.1042
6048.00,1.1144
6047.00,1.1245
6046.00,1.1340
6045.00,1.1430
6044.00,1.1516
6043.00,1.1600
6042.00,1.1684
6041.00,1.1766
6040.00,1.1846
6039.00,1.1925
6038.00,1.2001
6037.00,1.2073
6036.00,1.2141
6035.00,1.2205
6034.00,1.2267
6033.00,1.2327
6032.00,1.2385
6031.00,1.2440
6030.00,1.2493
6029.00,1.2541
6028.00,1.2584
6027.00,1.2621
6026.00,1.2655
6025.00,1.2683
6024.00,1.2706
6023.00,1.2729
6022.00,1.2753
6021.00,1.2775
6020.00,1.2793
6019.00,1.2804
6018.00,1.2810
6017.00,1.2811
6016.00,1.2805
6015.00,1.2794
6014.00,1.2780
6013.00,1.2764
6012.00,1.2748
6011.00,1.2729
6010.00,1.2705
6009.00,1.2676
6008.00,1.2640
6007.00,1.2598
6006.00,1.2550
6005.00,1.2498
6004.00,1.2442
6003.00,1.2383
6002.00,1.2322
6001.00,1.2254
6000.00,1.2180
5999.00,1.2102
5998.00,1.2019
5997.00,1.1934
5996.00,1.1845
5995.00,1.1756
5994.00,1.1665
5993.00,1.1569
5992.00,1.1466
5991.00,1.1356
5990.00,1.1240
5989.00,1.1121
5988.00,1.1000
5987.00,1.0878
5986.00,1.0757
5985.00,1.0634
5984.00,1.0509
5983.00,1.0380
5982.00,1.0250
5981.00,1.0118
5980.00,0.9984
5979.00,0.9850
5978.00,0.9716
5977.00,0.9584
5976.00,0.9453
5975.00,0.9323
5974.00,0.9194
5973.00,0.9068
5972.00,0.8946
5971.00,0.8826
5970.00,0.8712
5969.00,0.8602
5968.00,0.8499
5967.00,0.8400
5966.00,0.8308
5965.00,0.8221
5964.00,0.8140
5963.00,0.8064
5962.00,0.7995
5961.00,0.7934
5960.00,0.7879
5959.00,0.7831
5958.00,0.7792
5957.00,0.7763
5956.00,0.7743
5955.00,0.7731
5954.00,0.7727
5953.00,0.7732
5952.00,0.7744
5951.00,0.7762
5950.00,0.7788
5949.00,0.7823
5948.00,0.7865
5947.00,0.7915
5946.00,0.7971
5945.00,0.8034
5944.00,0.8102
5943.00,0.8176
5942.00,0.8256
5941.00,0.8341
5940.00,0.8432
5939.00,0.8526
5938.00,0.8623
5937.00,0.8724
5936.00,0.8828
5935.00,0.8934
5934.00,0.9043
5933.00,0.9156
5932.00,0.9273
5931.00,0.9391
5930.00,0.9508
5929.00,0.9625
5928.00,0.9741
5927.00,0.9855
5926.00,0.9970
5925.00,1.0086
5924.00,1.0204
5923.00,1.0324
5922.00,1.0445
5921.00,1.0564
5920.00,1.0682
5919.00,1.0799
5918.00,1.0913
5917.00,1.1024
5916.00,1.1133
5915.00,1.1241
5914.00,1.1348
5913.00,1.1453
5912.00,1.1555
5911.00,1.1655
5910.00,1.1754
5909.00,1.1850
5908.00,1.1942
5907.00,1.2030
5906.00,1.2116
5905.00,1.2199
5904.00,1.2278
5903.00,1.2352
5902.00,1.2423
5901.00,1.2491
5900.00,1.2556
5899.00,1.2620
5898.00,1.2684
5897.00,1.2745
5896.00,1.2802
5895.00,1.2856
5894.00,1.2907
5893.00,1.2954
5892.00,1.2994
5891.00,1.3027
5890.00,1.3056
5889.00,1.3079
5888.00,1.3097
5887.00,1.3110
5886.00,1.3121
5885.00,1.3133
5884.00,1.3144
5883.00,1.3150
5882.00,1.3150
5881.00,1.3143
5880.00,1.3129
5879.00,1.3110
5878.00,1.3088
5877.00,1.3064
5876.00,1.3038
5875.00,1.3010
5874.00,1.2977
5873.00,1.2936
5872.00,1.2888
5871.00,1.2835
5870.00,1.2782
5869.00,1.2729
5868.00,1.2672
5867.00,1.2608
5866.00,1.2537
5865.00,1.2462
5864.00,1.2381
5863.00,1.2294
5862.00,1.2204
5861.00,1.2112
5860.00,1.2018
5859.00,1.1919
5858.00,1.1815
5857.00,1.1707
5856.00,1.1595
5855.00,1.1482
5854.00,1.1367
5853.00,1.1249
5852.00,1.1127
5851.00,1.1001
5850.00,1.0873
5849.00,1.0743
5848.00,1.0612
5847.00,1.0479
5846.00,1.0345
5845.00,1.0211
5844.00,1.0076
5843.00,0.9942
5842.00,0.9808
5841.00,0.9676
5840.00,0.9546
5839.00,0.9418
5838.00,0.9293
5837.00,0.9170
5836.00,0.9050
5835.00,0.8934
5834.00,0.8821
5833.00,0.8713
5832.00,0.8609
5831.00,0.8509
5830.00,0.8415
5829.00,0.8329
5828.00,0.8250
5827.00,0.8179
5826.00,0.8116
5825.00,0.8059
5824.00,0.8010
5823.00,0.7968
5822.00,0.7935
5821.00,0.7911
5820.00,0.7895
5819.00,0.7887
5818.00,0.7887
5817.00,0.7896
5816.00,0.7911
5815.00,0.7932
5814.00,0.7963
5813.00,0.8001
5812.00,0.8047
5811.00,0.8099
5810.00,0.8157
5809.00,0.8222
5808.00,0.8292
5807.00,0.8368
5806.00,0.8448
5805.00,0.8533
5804.00,0.8624
5803.00,0.8718
5802.00,0.8816
5801.00,0.8918
5800.00,0.9023
5799.00,0.9130
5798.00,0.9238
5797.00,0.9349
5796.00,0.9462
5795.00,0.9577
5794.00,0.9693
5793.00,0.9811
5792.00,0.9931
5791.00,1.0052
5790.00,1.0172
5789.00,1.0291
5788.00,1.0410
5787.00,1.0528
5786.00,1.0645
5785.00,1.0762
5784.00,1.0878
5783.00,1.0993
5782.00,1.1107
5781.00,1.1218
5780.00,1.1326
5779.00,1.1432
5778.00,1.1538
5777.00,1.1643
5776.00,1.1747
5775.00,1.1849
5774.00,1.1950
5773.00,1.2047
5772.00,1.2139
5771.00,1.2228
5770.00,1.2313
5769.00,1.2395
5768.00,1.2473
5767.00,1.2547
5766.00,1.2618
5765.00,1.2687
5764.00,1.2752
5763.00,1.2814
5762.00,1.2873
5761.00,1.2930
5760.00,1.2983
5759.00,1.3031
5758.00,1.3076
5757.00,1.3119
5756.00,1.3158
5755.00,1.3191
5754.00,1.3219
5753.00,1.3245
5752.00,1.3266
5751.00,1.3282
5750.00,1.3294
5749.00,1.3303
5748.00,1.3309
5747.00,1.3310
5746.00,1.3306
5745.00,1.3296
5744.00,1.3280
5743.00,1.3258
5742.00,1.3235
5741.00,1.3212
5740.00,1.3190
5739.00,1.3164
5738.00,1.3133
5737.00,1.3093
5736.00,1.3044
5735.00,1.2987
5734.00,1.2927
5733.00,1.2868
5732.00,1.2807
5731.00,1.2740
5730.00,1.2666
5729.00,1.2585
5728.00,1.2497
5727.00,1.2405
5726.00,1.2310
5725.00,1.2214
5724.00,1.2115
5723.00,1.2011
5722.00,1.1903
5721.00,1.1790
5720.00,1.1674
5719.00,1.1553
5718.00,1.1429
5717.00,1.1303
5716.00,1.1175
5715.00,1.1045
5714.00,1.0914
5713.00,1.0781
5712.00,1.0646
5711.00,1.0507
5710.00,1.0365
5709.00,1.0221
5708.00,1.0077
5707.00,0.9934
5706.00,0.9793
5705.00,0.9653
5704.00,0.9515
5703.00,0.9379
5702.00,0.9244
5701.00,0.9112
5700.00,0.8983
5699.00,0.8859
5698.00,0.8740
5697.00,0.8626
5696.00,0.8518
5695.00,0.8416
5694.00,0.8321
5693.00,0.8231
5692.00,0.8149
5691.00,0.8073
5690.00,0.8007
5689.00,0.7950
5688.00,0.7901
5687.00,0.7861
5686.00,0.7829
5685.00,0.7807
5684.00,0.7792
5683.00,0.7786
5682.00,0.7789
5681.00,0.7801
5680.00,0.7822
5679.00,0.7851
5678.00,0.7889
5677.00,0.7935
5676.00,0.7988
5675.00,0.8048
5674.00,0.8115
5673.00,0.8189
5672.00,0.8270
5671.00,0.8358
5670.00,0.8452
5669.00,0.8550
5668.00,0.8652
5667.00,0.8756
5666.00,0.8862
5665.00,0.8972
5664.00,0.9084
5663.00,0.9200
5662.00,0.9319
5661.00,0.9439
5660.00,0.9562
5659.00,0.9684
5658.00,0.9807
5657.00,0.9931
5656.00,1.0056
5655.00,1.0183
5654.00,1.0310
5653.00,1.0437
5652.00,1.0565
5651.00,1.0692
5650.00,1.0816
5649.00,1.0935
5648.00,1.1051
5647.00,1.1165
5646.00,1.1277
5645.00,1.1388
5644.00,1.1497
5643.00,1.1605
5642.00,1.1710
5641.00,1.1812
5640.00,1.1909
5639.00,1.2003
5638.00,1.2095
5637.00,1.2184
5636.00,1.2272
5635.00,1.2359
5634.00,1.2442
5633.00,1.2523
5632.00,1.2599
5631.00,1.2669
5630.00,1.2736
5629.00,1.2798
5628.00,1.2857
5627.00,1.2914
5626.00,1.2966
5625.00,1.3014
5624.00,1.3056
5623.00,1.3093
5622.00,1.3125
5621.00,1.3155
5620.00,1.3181
5619.00,1.3205
5618.00,1.3227
5617.00,1.3245
5616.00,1.3259
5615.00,1.3267
5614.00,1.3270
5613.00,1.3268
5612.00,1.3263
5611.00,1.3257
5610.00,1.3248
5609.00,1.3235
5608.00,1.3219
5607.00,1.3197
5606.00,1.3172
5605.00,1.3142
5604.00,1.3110
5603.00,1.3076
5602.00,1.3040
5601.00,1.2999
5600.00,1.2951
5599.00,1.2898
5598.00,1.2842
5597.00,1.2781
5596.00,1.2715
5595.00,1.2643
5594.00,1.2567
5593.00,1.2488
5592.00,1.2404
5591.00,1.2315
5590.00,1.2222
5589.00,1.2125
5588.00,1.2025
5587.00,1.1919
5586.00,1.1809
5585.00,1.1696
5584.00,1.1579
5583.00,1.1458
5582.00,1.1332
5581.00,1.1201
5580.00,1.1066
5579.00,1.0930
5578.00,1.0793
5577.00,1.0653
5576.00,1.0512
5575.00,1.0369
5574.00,1.0225
5573.00,1.0081
5572.00,0.9936
5571.00,0.9791
5570.00,0.9646
5569.00,0.9502
5568.00,0.9359
5567.00,0.9219
5566.00,0.9081
5565.00,0.8947
5564.00,0.8819
5563.00,0.8695
5562.00,0.8577
5561.00,0.8465
5560.00,0.8358
5559.00,0.8259
5558.00,0.8166
5557.00,0.8081
5556.00,0.8004
5555.00,0.7935
5554.00,0.7875
5553.00,0.7823
5552.00,0.7781
5551.00,0.7747
5550.00,0.7724
5549.00,0.7710
5548.00,0.7706
5547.00,0.7713
5546.00,0.7729
5545.00,0.7754
5544.00,0.7787
5543.00,0.7829
5542.00,0.7878
5541.00,0.7936
5540.00,0.8001
5539.00,0.8074
5538.00,0.8155
5537.00,0.8243
5536.00,0.8336
5535.00,0.8434
5534.00,0.8537
5533.00,0.8644
5532.00,0.8754
5531.00,0.8867
5530.00,0.8983
5529.00,0.9103
5528.00,0.9225
5527.00,0.9350
5526.00,0.9477
5525.00,0.9607
5524.00,0.9738
5523.00,0.9869
5522.00,1.0000
5521.00,1.0132
5520.00,1.0264
5519.00,1.0396
5518.00,1.0527
5517.00,1.0657
5516.00,1.0786
5515.00,1.0913
5514.00,1.1039
5513.00,1.1164
5512.00,1.1288
5511.00,1.1409
5510.00,1.1527
5509.00,1.1643
5508.00,1.1758
5507.00,1.1870
5506.00,1.1980
5505.00,1.2089
5504.00,1.2194
5503.00,1.2296
5502.00,1.2395
5501.00,1.2489
5500.00,1.2579
5499.00,1.2665
5498.00,1.2746
5497.00,1.2824
5496.00,1.2897
5495.00,1.2969
5494.00,1.3039
5493.00,1.3107
5492.00,1.3170
5491.00,1.3230
5490.00,1.3288
5489.00,1.3343
5488.00,1.3394
5487.00,1.3439
5486.00,1.3479
5485.00,1.3513
5484.00,1.3542
5483.00,1.3567
5482.00,1.3589
5481.00,1.3610
5480.00,1.3627
5479.00,1.3638
5478.00,1.3642
5477.00,1.3642
5476.00,1.3637
5475.00,1.3626
5474.00,1.3609
5473.00,1.3589
5472.00,1.3564
5471.00,1.3536
5470.00,1.3505
5469.00,1.3471
5468.00,1.3435
5467.00,1.3395
5466.00,1.3349
5465.00,1.3296
5464.00,1.3234
5463.00,1.3166
5462.00,1.3094
5461.00,1.3018
5460.00,1.2938
5459.00,1.2854
5458.00,1.2767
5457.00,1.2678
5456.00,1.2584
5455.00,1.2486
5454.00,1.2384
5453.00,1.2278
5452.00,1.2168
5451.00,1.2052
5450.00,1.1929
5449.00,1.1802
5448.00,1.1669
5447.00,1.1531
5446.00,1.1389
5445.00,1.1243
5444.00,1.1095
5443.00,1.0944
5442.00,1.0792
5441.00,1.0638
5440.00,1.0484
5439.00,1.0330
5438.00,1.0177
5437.00,1.0027
5436.00,0.9875
5435.00,0.9722
5434.00,0.9568
5433.00,0.9416
5432.00,0.9268
5431.00,0.9122
5430.00,0.8978
5429.00,0.8837
5428.00,0.8701
5427.00,0.8571
5426.00,0.8448
5425.00,0.8333
5424.00,0.8227
5423.00,0.8129
5422.00,0.8040
5421.00,0.7961
5420.00,0.7891
5419.00,0.7829
5418.00,0.7775
5417.00,0.7731
5416.00,0.7695
5415.00,0.7669
5414.00,0.7651
5413.00,0.7641
5412.00,0.7641
5411.00,0.7650
5410.00,0.7670
5409.00,0.7702
5408.00,0.7744
5407.00,0.7795
5406.00,0.7856
5405.00,0.7925
5404.00,0.8002
5403.00,0.8085
5402.00,0.8175
5401.00,0.8271
5400.00,0.8371
5399.00,0.8475
5398.00,0.8583
5397.00,0.8694
5396.00,0.8808
5395.00,0.8926
5394.00,0.9048
5393.00,0.9173
5392.00,0.9301
5391.00,0.9430
5390.00,0.9560
5389.00,0.9691
5388.00,0.9823
5387.00,0.9959
5386.00,1.0098
5385.00,1.0238
5384.00,1.0378
5383.00,1.0516
5382.00,1.0653
5381.00,1.0786
5380.00,1.0917
5379.00,1.1045
5378.00,1.1172
5377.00,1.1298
5376.00,1.1424
5375.00,1.1549
5374.00,1.1674
5373.00,1.1797
5372.00,1.1916
5371.00,1.2032
5370.00,1.2144
5369.00,1.2254
5368.00,1.2362
5367.00,1.2467
5366.00,1.2568
5365.00,1.2667
5364.00,1.2761
5363.00,1.2851
5362.00,1.2937
5361.00,1.3019
5360.00,1.3098
5359.00,1.3172
5358.00,1.3242
5357.00,1.3308
5356.00,1.3370
5355.00,1.3428
5354.00,1.3482
5353.00,1.3531
5352.00,1.3575
5351.00,1.3617
5350.00,1.3653
5349.00,1.3684
5348.00,1.3709
5347.00,1.3731
5346.00,1.3750
5345.00,1.3765
5344.00,1.3774
5343.00,1.3780
5342.00,1.3783
5341.00,1.3782
5340.00,1.3776
5339.00,1.3766
5338.00,1.3749
5337.00,1.3726
5336.00,1.3697
5335.00,1.3665
5334.00,1.3630
5333.00,1.3594
5332.00,1.3557
5331.00,1.3518
5330.00,1.3474
5329.00,1.3421
5328.00,1.3359
5327.00,1.3289
5326.00,1.3213
5325.00,1.3134
5324.00,1.3050
5323.00,1.2962
5322.00,1.2871
5321.00,1.2774
5320.00,1.2674
5319.00,1.2571
5318.00,1.2464
5317.00,1.2350
5316.00,1.2230
5315.00,1.2106
5314.00,1.1978
5313.00,1.1846
5312.00,1.1709
5311.00,1.1567
5310.00,1.1422
5309.00,1.1273
5308.00,1.1121
5307.00,1.0965
5306.00,1.0807
5305.00,1.0649
5304.00,1.0490
5303.00,1.0330
5302.00,1.0169
5301.00,1.0009
5300.00,0.9850
5299.00,0.9692
5298.00,0.9536
5297.00,0.9383
5296.00,0.9233
5295.00,0.9087
5294.00,0.8946
5293.00,0.8810
5292.00,0.8680
5291.00,0.8555
5290.00,0.8436
5289.00,0.8325
5288.00,0.8221
5287.00,0.8127
5286.00,0.8042
5285.00,0.7966
5284.00,0.7900
5283.00,0.7846
5282.00,0.7802
5281.00,0.7769
5280.00,0.7746
5279.00,0.7733
5278.00,0.7731
5277.00,0.7740
5276.00,0.7760
5275.00,0.7789
5274.00,0.7828
5273.00,0.7876
5272.00,0.7934
5271.00,0.8000
5270.00,0.8074
5269.00,0.8157
5268.00,0.8246
5267.00,0.8343
5266.00,0.8446
5265.00,0.8556
5264.00,0.8671
5263.00,0.8790
5262.00,0.8912
5261.00,0.9037
5260.00,0.9165
5259.00,0.9295
5258.00,0.9428
5257.00,0.9565
5256.00,0.9706
5255.00,0.9849
5254.00,0.9992
5253.00,1.0136
5252.00,1.0277
5251.00,1.0417
5250.00,1.0557
5249.00,1.0698
5248.00,1.0840
5247.00,1.0982
5246.00,1.1124
5245.00,1.1264
5244.00,1.1401
5243.00,1.1536
5242.00,1.1670
5241.00,1.1801
5240.00,1.1927
5239.00,1.2049
5238.00,1.2167
5237.00,1.2283
5236.00,1.2399
5235.00,1.2513
5234.00,1.2625
5233.00,1.2735
5232.00,1.2840
5231.00,1.2941
5230.00,1.3036
5229.00,1.3127
5228.00,1.3214
5227.00,1.3295
5226.00,1.3374
5225.00,1.3451
5224.00,1.3524
5223.00,1.3593
5222.00,1.3657
5221.00,1.3716
5220.00,1.3771
5219.00,1.3824
5218.00,1.3874
5217.00,1.3920
5216.00,1.3960
5215.00,1.3995
5214.00,1.4026
5213.00,1.4052
5212.00,1.4075
5211.00,1.4094
5210.00,1.4110
5209.00,1.4120
5208.00,1.4124
5207.00,1.4121
5206.00,1.4112
5205.00,1.4099
5204.00,1.4081
5203.00,1.4060
5202.00,1.4037
5201.00,1.4011
5200.00,1.3983
5199.00,1.3951
5198.00,1.3913
5197.00,1.3867
5196.00,1.3814
5195.00,1.3756
5194.00,1.3695
5193.00,1.3630
5192.00,1.3561
5191.00,1.3487
5190.00,1.3408
5189.00,1.3324
5188.00,1.3233
5187.00,1.3137
5186.00,1.3037
5185.00,1.2934
5184.00,1.2826
5183.00,1.2714
5182.00,1.2596
5181.00,1.2473
5180.00,1.2344
5179.00,1.2209
5178.00,1.2071
5177.00,1.1932
5176.00,1.1789
5175.00,1.1642
5174.00,1.1490
5173.00,1.1335
5172.00,1.1175
5171.00,1.1011
5170.00,1.0845
5169.00,1.0679
5168.00,1.0511
5167.00,1.0342
5166.00,1.0173
5165.00,1.0005
5164.00,0.9836
5163.00,0.9669
5162.00,0.9504
5161.00,0.9343
5160.00,0.9185
5159.00,0.9032
5158.00,0.8885
5157.00,0.8743
5156.00,0.8609
5155.00,0.8481
5154.00,0.8360
5153.00,0.8248
5152.00,0.8144
5151.00,0.8049
5150.00,0.7964
5149.00,0.7890
5148.00,0.7826
5147.00,0.7773
5146.00,0.7732
5145.00,0.7702
5144.00,0.7685
5143.00,0.7678
5142.00,0.7683
5141.00,0.7698
5140.00,0.7723
5139.00,0.7760
5138.00,0.7807
5137.00,0.7866
5136.00,0.7933
5135.00,0.8009
5134.00,0.8092
5133.00,0.8183
5132.00,0.8281
5131.00,0.8387
5130.00,0.8499
5129.00,0.8616
5128.00,0.8739
5127.00,0.8866
5126.00,0.8998
5125.00,0.9135
5124.00,0.9275
5123.00,0.9417
5122.00,0.9560
5121.00,0.9704
5120.00,0.9849
5119.00,0.9996
5118.00,1.0145
5117.00,1.0295
5116.00,1.0445
5115.00,1.0594
5114.00,1.0742
5113.00,1.0887
5112.00,1.1032
5111.00,1.1175
5110.00,1.1318
5109.00,1.1460
5108.00,1.1601
5107.00,1.1740
5106.00,1.1875
5105.00,1.2007
5104.00,1.2136
5103.00,1.2262
5102.00,1.2385
5101.00,1.2507
5100.00,1.2626
5099.00,1.2744
5098.00,1.2859
5097.00,1.2970
5096.00,1.3075
5095.00,1.3174
5094.00,1.3268
5093.00,1.3359
5092.00,1.3448
5091.00,1.3537
5090.00,1.3623
5089.00,1.3702
5088.00,1.3774
5087.00,1.3840
5086.00,1.3903
5085.00,1.3963
5084.00,1.4019
5083.00,1.4072
5082.00,1.4121
5081.00,1.4165
5080.00,1.4204
5079.00,1.4239
5078.00,1.4270
5077.00,1.4297
5076.00,1.4318
5075.00,1.4333
5074.00,1.4344
5073.00,1.4352
5072.00,1.4356
5071.00,1.4356
5070.00,1.4352
5069.00,1.4342
5068.00,1.4326
5067.00,1.4302
5066.00,1.4272
5065.00,1.4238
5064.00,1.4202
5063.00,1.4163
5062.00,1.4119
5061.00,1.4069
5060.00,1.4012
5059.00,1.3949
5058.00,1.3882
5057.00,1.3812
5056.00,1.3740
5055.00,1.3663
5054.00,1.3579
5053.00,1.3486
5052.00,1.3386
5051.00,1.3281
5050.00,1.3173
5049.00,1.3061
5048.00,1.2946
5047.00,1.2826
5046.00,1.2701
5045.00,1.2571
5044.00,1.2436
5043.00,1.2298
5042.00,1.2155
5041.00,1.2008
5040.00,1.1856
5039.00,1.1699
5038.00,1.1537
5037.00,1.1370
5036.00,1.1201
5035.00,1.1029
5034.00,1.0854
5033.00,1.0678
5032.00,1.0501
5031.00,1.0324
5030.00,1.0147
5029.00,0.9971
5028.00,0.9795
5027.00,0.9622
5026.00,0.9452
5025.00,0.9286
5024.00,0.9124
5023.00,0.8967
5022.00,0.8817
5021.00,0.8672
5020.00,0.8535
5019.00,0.8407
5018.00,0.8287
5017.00,0.8176
5016.00,0.8076
5015.00,0.7987
5014.00,0.7909
5013.00,0.7843
5012.00,0.7789
5011.00,0.7747
5010.00,0.7717
5009.00,0.7699
5008.00,0.7694
5007.00,0.7701
5006.00,0.7721
5005.00,0.7753
5004.00,0.7796
5003.00,0.7851
5002.00,0.7916
5001.00,0.7992
5000.00,0.8076
4999.00,0.8169
4998.00,0.8270
4997.00,0.8380
4996.00,0.8497
4995.00,0.8622
4994.00,0.8752
4993.00,0.8887
4992.00,0.9025
4991.00,0.9166
4990.00,0.9311
4989.00,0.9460
4988.00,0.9613
4987.00,0.9768
4986.00,0.9925
4985.00,1.0082
4984.00,1.0239
4983.00,1.0395
4982.00,1.0552
4981.00,1.0708
4980.00,1.0863
4979.00,1.1017
4978.00,1.1170
4977.00,1.1323
4976.00,1.1474
4975.00,1.1625
4974.00,1.1772
4973.00,1.1914
4972.00,1.2050
4971.00,1.2184
4970.00,1.2319
4969.00,1.2456
4968.00,1.2594
4967.00,1.2729
4966.00,1.2858
4965.00,1.2979
4964.00,1.3094
4963.00,1.3204
4962.00,1.3313
4961.00,1.3419
4960.00,1.3521
4959.00,1.3620
4958.00,1.3715
4957.00,1.3806
4956.00,1.3893
4955.00,1.3975
4954.00,1.4053
4953.00,1.4125
4952.00,1.4190
4951.00,1.4249
4950.00,1.4305
4949.00,1.4359
4948.00,1.4410
4947.00,1.4455
4946.00,1.4496
4945.00,1.4532
4944.00,1.4562
4943.00,1.4588
4942.00,1.4611
4941.00,1.4630
4940.00,1.4645
4939.00,1.4654
4938.00,1.4657
4937.00,1.4653
4936.00,1.4643
4935.00,1.4630
4934.00,1.4613
4933.00,1.4592
4932.00,1.4566
4931.00,1.4533
4930.00,1.4497
4929.00,1.4458
4928.00,1.4417
4927.00,1.4372
4926.00,1.4322
4925.00,1.4263
4924.00,1.4196
4923.00,1.4124
4922.00,1.4050
4921.00,1.3973
4920.00,1.3892
4919.00,1.3804
4918.00,1.3708
4917.00,1.3605
4916.00,1.3497
4915.00,1.3385
4914.00,1.3269
4913.00,1.3149
4912.00,1.3025
4911.00,1.2895
4910.00,1.2759
4909.00,1.2618
4908.00,1.2473
4907.00,1.2321
4906.00,1.2164
4905.00,1.2002
4904.00,1.1835
4903.00,1.1664
4902.00,1.1491
4901.00,1.1315
4900.00,1.1136
4899.00,1.0953
4898.00,1.0768
4897.00,1.0580
4896.00,1.0390
4895.00,1.0201
4894.00,1.0012
4893.00,0.9824
4892.00,0.9640
4891.00,0.9458
4890.00,0.9281
4889.00,0.9109
4888.00,0.8943
4887.00,0.8784
4886.00,0.8632
4885.00,0.8489
4884.00,0.8354
4883.00,0.8228
4882.00,0.8112
4881.00,0.8007
4880.00,0.7914
4879.00,0.7834
4878.00,0.7766
4877.00,0.7711
4876.00,0.7669
4875.00,0.7641
4874.00,0.7627
4873.00,0.7626
4872.00,0.7639
4871.00,0.7664
4870.00,0.7702
4869.00,0.7752
4868.00,0.7814
4867.00,0.7888
4866.00,0.7972
4865.00,0.8067
4864.00,0.8170
4863.00,0.8282
4862.00,0.8401
4861.00,0.8527
4860.00,0.8660
4859.00,0.8799
4858.00,0.8944
4857.00,0.9092
4856.00,0.9244
4855.00,0.9399
4854.00,0.9556
4853.00,0.9717
4852.00,0.9879
4851.00,1.0042
4850.00,1.0205
4849.00,1.0367
4848.00,1.0530
4847.00,1.0694
4846.00,1.0860
4845.00,1.1025
4844.00,1.1188
4843.00,1.1349
4842.00,1.1509
4841.00,1.1666
4840.00,1.1822
4839.00,1.1976
4838.00,1.2128
4837.00,1.2276
4836.00,1.2422
4835.00,1.2565
4834.00,1.2705
4833.00,1.2842
4832.00,1.2975
4831.00,1.3103
4830.00,1.3227
4829.00,1.3348
4828.00,1.3464
4827.00,1.3578
4826.00,1.3687
4825.00,1.3793
4824.00,1.3894
4823.00,1.3992
4822.00,1.4087
4821.00,1.4179
4820.00,1.4265
4819.00,1.4346
4818.00,1.4420
4817.00,1.4488
4816.00,1.4554
4815.00,1.4618
4814.00,1.4679
4813.00,1.4734
4812.00,1.4780
4811.00,1.4819
4810.00,1.4851
4809.00,1.4879
4808.00,1.4905
4807.00,1.4928
4806.00,1.4946
4805.00,1.4958
4804.00,1.4965
4803.00,1.4967
4802.00,1.4964
4801.00,1.4955
4800.00,1.4941
4799.00,1.4923
4798.00,1.4901
4797.00,1.4875
4796.00,1.4845
4795.00,1.4812
4794.00,1.4776
4793.00,1.4736
4792.00,1.4688
4791.00,1.4632
4790.00,1.4570
4789.00,1.4502
4788.00,1.4429
4787.00,1.4353
4786.00,1.4271
4785.00,1.4185
4784.00,1.4093
4783.00,1.3997
4782.00,1.3897
4781.00,1.3790
4780.00,1.3677
4779.00,1.3556
4778.00,1.3429
4777.00,1.3298
4776.00,1.3162
4775.00,1.3022
4774.00,1.2878
4773.00,1.2728
4772.00,1.2572
4771.00,1.2409
4770.00,1.2241
4769.00,1.2067
4768.00,1.1889
4767.00,1.1706
4766.00,1.1521
4765.00,1.1333
4764.00,1.1143
4763.00,1.0950
4762.00,1.0755
4761.00,1.0559
4760.00,1.0362
4759.00,1.0165
4758.00,0.9970
4757.00,0.9778
4756.00,0.9590
4755.00,0.9406
4754.00,0.9227
4753.00,0.9054
4752.00,0.8887
4751.00,0.8728
4750.00,0.8577
4749.00,0.8437
4748.00,0.8307
4747.00,0.8188
4746.00,0.8082
4745.00,0.7989
4744.00,0.7909
4743.00,0.7843
4742.00,0.7792
4741.00,0.7755
4740.00,0.7733
4739.00,0.7726
4738.00,0.7733
4737.00,0.7755
4736.00,0.7789
4735.00,0.7837
4734.00,0.7898
4733.00,0.7971
4732.00,0.8057
4731.00,0.8154
4730.00,0.8261
4729.00,0.8376
4728.00,0.8499
4727.00,0.8630
4726.00,0.8768
4725.00,0.8914
4724.00,0.9065
4723.00,0.9221
4722.00,0.9381
4721.00,0.9543
4720.00,0.9708
4719.00,0.9875
4718.00,1.0044
4717.00,1.0215
4716.00,1.0388
4715.00,1.0562
4714.00,1.0736
4713.00,1.0911
4712.00,1.1085
4711.00,1.1258
4710.00,1.1428
4709.00,1.1596
4708.00,1.1762
4707.00,1.1927
4706.00,1.2091
4705.00,1.2255
4704.00,1.2415
4703.00,1.2571
4702.00,1.2723
4701.00,1.2870
4700.00,1.3013
4699.00,1.3154
4698.00,1.3293
4697.00,1.3428
4696.00,1.3557
4695.00,1.3682
4694.00,1.3803
4693.00,1.3922
4692.00,1.4038
4691.00,1.4151
4690.00,1.4258
4689.00,1.4360
4688.00,1.4456
4687.00,1.4547
4686.00,1.4634
4685.00,1.4716
4684.00,1.4792
4683.00,1.4863
4682.00,1.4929
4681.00,1.4991
4680.00,1.5049
4679.00,1.5101
4678.00,1.5148
4677.00,1.5191
4676.00,1.5229
4675.00,1.5262
4674.00,1.5290
4673.00,1.5312
4672.00,1.5330
4671.00,1.5344
4670.00,1.5353
4669.00,1.5359
4668.00,1.5358
4667.00,1.5349
4666.00,1.5333
4665.00,1.5311
4664.00,1.5287
4663.00,1.5262
4662.00,1.5235
4661.00,1.5205
4660.00,1.5170
4659.00,1.5128
4658.00,1.5081
4657.00,1.5030
4656.00,1.4974
4655.00,1.4911
4654.00,1.4840
4653.00,1.4763
4652.00,1.4683
4651.00,1.4599
4650.00,1.4512
4649.00,1.4419
4648.00,1.4320
4647.00,1.4214
4646.00,1.4102
4645.00,1.3983
4644.00,1.3859
4643.00,1.3729
4642.00,1.3594
4641.00,1.3452
4640.00,1.3304
4639.00,1.3149
4638.00,1.2989
4637.00,1.2825
4636.00,1.2658
4635.00,1.2484
4634.00,1.2304
4633.00,1.2118
4632.00,1.1926
4631.00,1.1732
4630.00,1.1536
4629.00,1.1338
4628.00,1.1137
4627.00,1.0932
4626.00,1.0726
4625.00,1.0518
4624.00,1.0311
4623.00,1.0105
4622.00,0.9902
4621.00,0.9703
4620.00,0.9509
4619.00,0.9321
4618.00,0.9140
4617.00,0.8966
4616.00,0.8801
4615.00,0.8646
4614.00,0.8501
4613.00,0.8368
4612.00,0.8247
4611.00,0.8139
4610.00,0.8043
4609.00,0.7962
4608.00,0.7895
4607.00,0.7843
4606.00,0.7808
4605.00,0.7788
4604.00,0.7783
4603.00,0.7793
4602.00,0.7818
4601.00,0.7858
4600.00,0.7911
4599.00,0.7978
4598.00,0.8058
4597.00,0.8150
4596.00,0.8254
4595.00,0.8367
4594.00,0.8490
4593.00,0.8622
4592.00,0.8761
4591.00,0.8907
4590.00,0.9059
4589.00,0.9216
4588.00,0.9379
4587.00,0.9548
4586.00,0.9720
4585.00,0.9895
4584.00,1.0072
4583.00,1.0250
4582.00,1.0429
4581.00,1.0609
4580.00,1.0790
4579.00,1.0970
4578.00,1.1150
4577.00,1.1329
4576.00,1.1508
4575.00,1.1685
4574.00,1.1860
4573.00,1.2033
4572.00,1.2203
4571.00,1.2371
4570.00,1.2535
4569.00,1.2697
4568.00,1.2856
4567.00,1.3013
4566.00,1.3167
4565.00,1.3318
4564.00,1.3466
4563.00,1.3610
4562.00,1.3751
4561.00,1.3885
4560.00,1.4013
4559.00,1.4135
4558.00,1.4252
4557.00,1.4365
4556.00,1.4476
4555.00,1.4583
4554.00,1.4686
4553.00,1.4782
4552.00,1.4874
4551.00,1.4963
4550.00,1.5048
4549.00,1.5130
4548.00,1.5206
4547.00,1.5275
4546.00,1.5337
4545.00,1.5392
4544.00,1.5443
4543.00,1.5491
4542.00,1.5536
4541.00,1.5573
4540.00,1.5603
4539.00,1.5627
4538.00,1.5647
4537.00,1.5666
4536.00,1.5681
4535.00,1.5690
4534.00,1.5694
4533.00,1.5692
4532.00,1.5685
4531.00,1.5674
4530.00,1.5658
4529.00,1.5635
4528.00,1.5607
4527.00,1.5576
4526.00,1.5543
4525.00,1.5506
4524.00,1.5463
4523.00,1.5413
4522.00,1.5356
4521.00,1.5293
4520.00,1.5225
4519.00,1.5151
4518.00,1.5071
4517.00,1.4987
4516.00,1.4898
4515.00,1.4804
4514.00,1.4707
4513.00,1.4604
4512.00,1.4495
4511.00,1.4378
4510.00,1.4255
4509.00,1.4127
4508.00,1.3994
4507.00,1.3857
4506.00,1.3712
4505.00,1.3559
4504.00,1.3398
4503.00,1.3229
4502.00,1.3055
4501.00,1.2877
4500.00,1.2693
4499.00,1.2503
4498.00,1.2308
4497.00,1.2107
4496.00,1.1903
4495.00,1.1696
4494.00,1.1485
4493.00,1.1272
4492.00,1.1055
4491.00,1.0836
4490.00,1.0616
4489.00,1.0397
4488.00,1.0180
4487.00,0.9967
4486.00,0.9758
4485.00,0.9555
4484.00,0.9357
4483.00,0.9167
4482.00,0.8985
4481.00,0.8813
4480.00,0.8653
4479.00,0.8505
4478.00,0.8371
4477.00,0.8250
4476.00,0.8144
4475.00,0.8054
4474.00,0.7980
4473.00,0.7923
4472.00,0.7882
4471.00,0.7859
4470.00,0.7853
4469.00,0.7865
4468.00,0.7893
4467.00,0.7938
4466.00,0.7998
4465.00,0.8073
4464.00,0.8162
4463.00,0.8264
4462.00,0.8379
4461.00,0.8504
4460.00,0.8639
4459.00,0.8784
4458.00,0.8937
4457.00,0.9098
4456.00,0.9265
4455.00,0.9436
4454.00,0.9612
4453.00,0.9792
4452.00,0.9975
4451.00,1.0162
4450.00,1.0351
4449.00,1.0543
4448.00,1.0735
4447.00,1.0929
4446.00,1.1122
4445.00,1.1315
4444.00,1.1507
4443.00,1.1697
4442.00,1.1885
4441.00,1.2071
4440.00,1.2256
4439.00,1.2438
4438.00,1.2617
4437.00,1.2792
4436.00,1.2964
4435.00,1.3132
4434.00,1.3298
4433.00,1.3460
4432.00,1.3617
4431.00,1.3771
4430.00,1.3922
4429.00,1.4069
4428.00,1.4213
4427.00,1.4353
4426.00,1.4487
4425.00,1.4615
4424.00,1.4737
4423.00,1.4853
4422.00,1.4965
4421.00,1.5073
4420.00,1.5178
4419.00,1.5277
4418.00,1.5370
4417.00,1.5454
4416.00,1.5533
4415.00,1.5608
4414.00,1.5682
4413.00,1.5753
4412.00,1.5818
4411.00,1.5875
4410.00,1.5925
4409.00,1.5970
4408.00,1.6011
4407.00,1.6048
4406.00,1.6079
4405.00,1.6104
4404.00,1.6121
4403.00,1.6133
4402.00,1.6141
4401.00,1.6146
4400.00,1.6149
4399.00,1.6148
4398.00,1.6143
4397.00,1.6131
4396.00,1.6113
4395.00,1.6088
4394.00,1.6057
4393.00,1.6021
4392.00,1.5982
4391.00,1.5939
4390.00,1.5892
4389.00,1.5840
4388.00,1.5782
4387.00,1.5721
4386.00,1.5659
4385.00,1.5594
4384.00,1.5527
4383.00,1.5453
4382.00,1.5371
4381.00,1.5282
4380.00,1.5187
4379.00,1.5086
4378.00,1.4982
4377.00,1.4874
4376.00,1.4762
4375.00,1.4645
4374.00,1.4523
4373.00,1.4396
4372.00,1.4264
4371.00,1.4128
4370.00,1.3986
4369.00,1.3837
4368.00,1.3682
4367.00,1.3521
4366.00,1.3354
4365.00,1.3183
4364.00,1.3007
4363.00,1.2828
4362.00,1.2644
4361.00,1.2457
4360.00,1.2266
4359.00,1.2070
4358.00,1.1871
4357.00,1.1668
4356.00,1.1464
4355.00,1.1259
4354.00,1.1053
4353.00,1.0849
4352.00,1.0647
4351.00,1.0448
4350.00,1.0255
4349.00,1.0067
4348.00,0.9884
4347.00,0.9709
4346.00,0.9541
4345.00,0.9381
4344.00,0.9232
4343.00,0.9093
4342.00,0.8965
4341.00,0.8850
4340.00,0.8748
4339.00,0.8660
4338.00,0.8588
4337.00,0.8532
4336.00,0.8492
4335.00,0.8470
4334.00,0.8465
4333.00,0.8478
4332.00,0.8507
4331.00,0.8554
4330.00,0.8618
4329.00,0.8697
4328.00,0.8792
4327.00,0.8900
4326.00,0.9022
4325.00,0.9154
4324.00,0.9297
4323.00,0.9449
4322.00,0.9609
4321.00,0.9776
4320.00,0.9949
4319.00,1.0127
4318.00,1.0308
4317.00,1.0493
4316.00,1.0682
4315.00,1.0873
4314.00,1.1064
4313.00,1.1255
4312.00,1.1446
4311.00,1.1636
4310.00,1.1826
4309.00,1.2016
4308.00,1.2206
4307.00,1.2394
4306.00,1.2580
4305.00,1.2764
4304.00,1.2947
4303.00,1.3126
4302.00,1.3303
4301.00,1.3476
4300.00,1.3645
4299.00,1.3811
4298.00,1.3973
4297.00,1.4131
4296.00,1.4285
4295.00,1.4436
4294.00,1.4582
4293.00,1.4725
4292.00,1.4862
4291.00,1.4995
4290.00,1.5123
4289.00,1.5247
4288.00,1.5364
4287.00,1.5476
4286.00,1.5583
4285.00,1.5685
4284.00,1.5784
4283.00,1.5877
4282.00,1.5964
4281.00,1.6044
4280.00,1.6116
4279.00,1.6182
4278.00,1.6243
4277.00,1.6302
4276.00,1.6357
4275.00,1.6410
4274.00,1.6459
4273.00,1.6503
4272.00,1.6542
4271.00,1.6575
4270.00,1.6602
4269.00,1.6624
4268.00,1.6641
4267.00,1.6651
4266.00,1.6656
4265.00,1.6655
4264.00,1.6651
4263.00,1.6643
4262.00,1.6632
4261.00,1.6618
4260.00,1.6599
4259.00,1.6574
4258.00,1.6545
4257.00,1.6511
4256.00,1.6472
4255.00,1.6429
4254.00,1.6380
4253.00,1.6325
4252.00,1.6264
4251.00,1.6197
4250.00,1.6126
4249.00,1.6051
4248.00,1.5974
4247.00,1.5893
4246.00,1.5805
4245.00,1.5707
4244.00,1.5600
4243.00,1.5487
4242.00,1.5371
4241.00,1.5251
4240.00,1.5127
4239.00,1.4996
4238.00,1.4857
4237.00,1.4710
4236.00,1.4556
4235.00,1.4396
4234.00,1.4230
4233.00,1.4058
4232.00,1.3881
4231.00,1.3698
4230.00,1.3508
4229.00,1.3312
4228.00,1.3111
4227.00,1.2905
4226.00,1.2696
4225.00,1.2484
4224.00,1.2269
4223.00,1.2052
4222.00,1.1832
4221.00,1.1611
4220.00,1.1390
4219.00,1.1168
4218.00,1.0948
4217.00,1.0730
4216.00,1.0516
4215.00,1.0306
4214.00,1.0103
4213.00,0.9907
4212.00,0.9718
4211.00,0.9540
4210.00,0.9372
4209.00,0.9217
4208.00,0.9074
4207.00,0.8946
4206.00,0.8834
4205.00,0.8739
4204.00,0.8662
4203.00,0.8602
4202.00,0.8562
4201.00,0.8539
4200.00,0.8535
4199.00,0.8550
4198.00,0.8584
4197.00,0.8636
4196.00,0.8705
4195.00,0.8790
4194.00,0.8890
4193.00,0.9003
4192.00,0.9130
4191.00,0.9267
4190.00,0.9416
4189.00,0.9574
4188.00,0.9740
4187.00,0.9914
4186.00,1.0095
4185.00,1.0281
4184.00,1.0470
4183.00,1.0662
4182.00,1.0856
4181.00,1.1052
4180.00,1.1249
4179.00,1.1449
4178.00,1.1649
4177.00,1.1849
4176.00,1.2050
4175.00,1.2250
4174.00,1.2448
4173.00,1.2644
4172.00,1.2837
4171.00,1.3027
4170.00,1.3214
4169.00,1.3399
4168.00,1.3580
4167.00,1.3757
4166.00,1.3933
4165.00,1.4107
4164.00,1.4278
4163.00,1.4444
4162.00,1.4603
4161.00,1.4756
4160.00,1.4905
4159.00,1.5050
4158.00,1.5193
4157.00,1.5330
4156.00,1.5462
4155.00,1.5589
4154.00,1.5712
4153.00,1.5831
4152.00,1.5944
4151.00,1.6053
4150.00,1.6157
4149.00,1.6257
4148.00,1.6350
4147.00,1.6438
4146.00,1.6518
4145.00,1.6592
4144.00,1.6660
4143.00,1.6721
4142.00,1.6777
4141.00,1.6827
4140.00,1.6872
4139.00,1.6913
4138.00,1.6949
4137.00,1.6981
4136.00,1.7009
4135.00,1.7034
4134.00,1.7055
4133.00,1.7072
4132.00,1.7084
4131.00,1.7091
4130.00,1.7092
4129.00,1.7088
4128.00,1.7078
4127.00,1.7063
4126.00,1.7043
4125.00,1.7019
4124.00,1.6992
4123.00,1.6959
4122.00,1.6920
4121.00,1.6872
4120.00,1.6816
4119.00,1.6757
4118.00,1.6696
4117.00,1.6633
4116.00,1.6565
4115.00,1.6490
4114.00,1.6408
4113.00,1.6320
4112.00,1.6227
4111.00,1.6129
4110.00,1.6026
4109.00,1.5916
4108.00,1.5801
4107.00,1.5681
4106.00,1.5553
4105.00,1.5418
4104.00,1.5276
4103.00,1.5128
4102.00,1.4973
4101.00,1.4812
4100.00,1.4645
4099.00,1.4470
4098.00,1.4288
4097.00,1.4098
4096.00,1.3901
4095.00,1.3700
4094.00,1.3494
4093.00,1.3284
4092.00,1.3068
4091.00,1.2846
4090.00,1.2620
4089.00,1.2389
4088.00,1.2157
4087.00,1.1923
4086.00,1.1688
4085.00,1.1453
4084.00,1.1217
4083.00,1.0982
4082.00,1.0750
4081.00,1.0522
4080.00,1.0300
4079.00,1.0085
4078.00,0.9877
4077.00,0.9680
4076.00,0.9494
4075.00,0.9321
4074.00,0.9162
4073.00,0.9018
4072.00,0.8891
4071.00,0.8782
4070.00,0.8691
4069.00,0.8620
4068.00,0.8569
4067.00,0.8539
4066.00,0.8530
4065.00,0.8543
4064.00,0.8577
4063.00,0.8631
4062.00,0.8704
4061.00,0.8795
4060.00,0.8903
4059.00,0.9027
4058.00,0.9165
4057.00,0.9316
4056.00,0.9479
4055.00,0.9652
4054.00,0.9833
4053.00,1.0022
4052.00,1.0217
4051.00,1.0417
4050.00,1.0622
4049.00,1.0829
4048.00,1.1040
4047.00,1.1253
4046.00,1.1467
4045.00,1.1683
4044.00,1.1898
4043.00,1.2114
4042.00,1.2328
4041.00,1.2540
4040.00,1.2749
4039.00,1.2956
4038.00,1.3161
4037.00,1.3362
4036.00,1.3560
4035.00,1.3755
4034.00,1.3946
4033.00,1.4135
4032.00,1.4323
4031.00,1.4508
4030.00,1.4689
4029.00,1.4865
4028.00,1.5034
4027.00,1.5200
4026.00,1.5361
4025.00,1.5519
4024.00,1.5671
4023.00,1.5814
4022.00,1.5949
4021.00,1.6077
4020.00,1.6202
4019.00,1.6324
4018.00,1.6441
4017.00,1.6552
4016.00,1.6657
4015.00,1.6756
4014.00,1.6850
4013.00,1.6938
4012.00,1.7021
4011.00,1.7097
4010.00,1.7166
4009.00,1.7231
4008.00,1.7291
4007.00,1.7347
4006.00,1.7399
4005.00,1.7444
4004.00,1.7482
4003.00,1.7514
4002.00,1.7542
4001.00,1.7567
4000.00,1.7586
3999.00,1.7601
3998.00,1.7611
3997.00,1.7616
3996.00,1.7617
3995.00,1.7616
3994.00,1.7610
3993.00,1.7599
3992.00,1.7581
3991.00,1.7553
3990.00,1.7518
3989.00,1.7478
3988.00,1.7436
3987.00,1.7392
3986.00,1.7345
3985.00,1.7292
3984.00,1.7235
3983.00,1.7174
3982.00,1.7110
3981.00,1.7042
3980.00,1.6965
3979.00,1.6878
3978.00,1.6781
3977.00,1.6677
3976.00,1.6567
3975.00,1.6452
3974.00,1.6334
3973.00,1.6213
3972.00,1.6088
3971.00,1.5955
3970.00,1.5813
3969.00,1.5664
3968.00,1.5508
3967.00,1.5346
3966.00,1.5178
3965.00,1.5002
3964.00,1.4818
3963.00,1.4627
3962.00,1.4429
3961.00,1.4225
3960.00,1.4015
3959.00,1.3798
3958.00,1.3574
3957.00,1.3345
3956.00,1.3110
3955.00,1.2872
3954.00,1.2632
3953.00,1.2388
3952.00,1.2143
3951.00,1.1895
3950.00,1.1647
3949.00,1.1399
3948.00,1.1153
3947.00,1.0910
3946.00,1.0672
3945.00,1.0442
3944.00,1.0219
3943.00,1.0004
3942.00,0.9799
3941.00,0.9608
3940.00,0.9433
3939.00,0.9275
3938.00,0.9135
3937.00,0.9015
3936.00,0.8916
3935.00,0.8838
3934.00,0.8781
3933.00,0.8743
3932.00,0.8724
3931.00,0.8727
3930.00,0.8753
3929.00,0.8801
3928.00,0.8871
3927.00,0.8960
3926.00,0.9068
3925.00,0.9193
3924.00,0.9332
3923.00,0.9484
3922.00,0.9647
3921.00,0.9821
3920.00,1.0004
3919.00,1.0197
3918.00,1.0399
3917.00,1.0610
3916.00,1.0830
3915.00,1.1055
3914.00,1.1283
3913.00,1.1511
3912.00,1.1740
3911.00,1.1971
3910.00,1.2201
3909.00,1.2428
3908.00,1.2649
3907.00,1.2864
3906.00,1.3075
3905.00,1.3289
3904.00,1.3506
3903.00,1.3727
3902.00,1.3948
3901.00,1.4167
3900.00,1.4383
3899.00,1.4597
3898.00,1.4808
3897.00,1.5010
3896.00,1.5201
3895.00,1.5380
3894.00,1.5549
3893.00,1.5712
3892.00,1.5875
3891.00,1.6039
3890.00,1.6202
3889.00,1.6356
3888.00,1.6499
3887.00,1.6631
3886.00,1.6760
3885.00,1.6888
3884.00,1.7009
3883.00,1.7117
3882.00,1.7215
3881.00,1.7308
3880.00,1.7401
3879.00,1.7494
3878.00,1.7580
3877.00,1.7655
3876.00,1.7718
3875.00,1.7774
3874.00,1.7826
3873.00,1.7876
3872.00,1.7922
3871.00,1.7966
3870.00,1.8004
3869.00,1.8037
3868.00,1.8063
3867.00,1.8081
3866.00,1.8090
3865.00,1.8096
3864.00,1.8101
3863.00,1.8103
3862.00,1.8097
3861.00,1.8084
3860.00,1.8062
3859.00,1.8037
3858.00,1.8009
3857.00,1.7978
3856.00,1.7940
3855.00,1.7893
3854.00,1.7835
3853.00,1.7770
3852.00,1.7704
3851.00,1.7643
3850.00,1.7580
3849.00,1.7507
3848.00,1.7425
3847.00,1.7337
3846.00,1.7244
3845.00,1.7144
3844.00,1.7037
3843.00,1.6924
3842.00,1.6804
3841.00,1.6679
3840.00,1.6548
3839.00,1.6412
3838.00,1.6273
3837.00,1.6132
3836.00,1.5988
3835.00,1.5836
3834.00,1.5669
3833.00,1.5487
3832.00,1.5295
3831.00,1.5098
3830.00,1.4897
3829.00,1.4691
3828.00,1.4476
3827.00,1.4251
3826.00,1.4018
3825.00,1.3783
3824.00,1.3546
3823.00,1.3298
3822.00,1.3027
3821.00,1.2734
3820.00,1.2439
3819.00,1.2159
3818.00,1.1890
3817.00,1.1613
3816.00,1.1322
3815.00,1.1028
3814.00,1.0747
3813.00,1.0482
3812.00,1.0230
3811.00,0.9992
3810.00,0.9771
3809.00,0.9570
3808.00,0.9381
3807.00,0.9202
3806.00,0.9040
3805.00,0.8908
3804.00,0.8810
3803.00,0.8741
3802.00,0.8696
3801.00,0.8673
3800.00,0.8673
3799.00,0.8698
3798.00,0.8747
3797.00,0.8820
3796.00,0.8917
3795.00,0.9037
3794.00,0.9176
3793.00,0.9331
3792.00,0.9503
3791.00,0.9691
3790.00,0.9892
3789.00,1.0104
3788.00,1.0324
3787.00,1.0550
3786.00,1.0783
3785.00,1.1024
3784.00,1.1270
3783.00,1.1517
3782.00,1.1762
3781.00,1.2006
3780.00,1.2253
3779.00,1.2508
3778.00,1.2767
3777.00,1.3023
3776.00,1.3272
3775.00,1.3511
3774.00,1.3741
3773.00,1.3964
3772.00,1.4182
3771.00,1.4399
3770.00,1.4622
3769.00,1.4850
3768.00,1.5078
3767.00,1.5297
3766.00,1.5505
3765.00,1.5706
3764.00,1.5899
3763.00,1.6083
3762.00,1.6257
3761.00,1.6423
3760.00,1.6587
3759.00,1.6749
3758.00,1.6911
3757.00,1.7067
3756.00,1.7212
3755.00,1.7342
3754.00,1.7460
3753.00,1.7576
3752.00,1.7695
3751.00,1.7821
3750.00,1.7951
3749.00,1.8076
3748.00,1.8185
3747.00,1.8270
3746.00,1.8338
3745.00,1.8405
3744.00,1.8480
3743.00,1.8559
3742.00,1.8634
3741.00,1.8700
3740.00,1.8758
3739.00,1.8813
3738.00,1.8866
3737.00,1.8918
3736.00,1.8966
3735.00,1.9007
3734.00,1.9044
3733.00,1.9075
3732.00,1.9097
3731.00,1.9111
3730.00,1.9122
3729.00,1.9125
3728.00,1.9113
3727.00,1.9083
3726.00,1.9042
3725.00,1.8978
3724.00,1.8920
3723.00,1.8825
3722.00,1.8778
3721.00,1.8591
3720.00,1.8366
3719.00,1.8339
3718.00,1.8251
3717.00,1.8186
3716.00,1.8098
3715.00,1.8005
3714.00,1.7904
3713.00,1.7777
3712.00,1.7668
3711.00,1.7500
3710.00,1.7419
3709.00,1.7120
3708.00,1.6807
3707.00,1.6847
3706.00,1.6789
3705.00,1.6714
3704.00,1.6555
3703.00,1.6376
3702.00,1.6171
3701.00,1.5954
3700.00,1.5729
3699.00,1.5497
3698.00,1.5261
3697.00,1.5019
3696.00,1.4773
3695.00,1.4521
3694.00,1.4268
3693.00,1.4013
3692.00,1.3758
3691.00,1.3500
3690.00,1.3239
3689.00,1.2972
3688.00,1.2703
3687.00,1.2445
3686.00,1.2199
3685.00,1.1969
3684.00,1.1749
3683.00,1.1542
3682.00,1.1350
3681.00,1.1176
3680.00,1.1022
3679.00,1.0891
3678.00,1.0787
3677.00,1.0704
3676.00,1.0639
3675.00,1.0588
3674.00,1.0559
3673.00,1.0559
3672.00,1.0589
3671.00,1.0650
3670.00,1.0742
3669.00,1.0859
3668.00,1.0990
3667.00,1.1133
3666.00,1.1286
3665.00,1.1454
3664.00,1.1638
3663.00,1.1839
3662.00,1.2051
3661.00,1.2271
3660.00,1.2493
3659.00,1.2716
3658.00,1.2942
3657.00,1.3178
3656.00,1.3424
3655.00,1.3675
3654.00,1.3915
3653.00,1.4138
3652.00,1.4350
3651.00,1.4563
3650.00,1.4789
3649.00,1.5031
3648.00,1.5285
3647.00,1.5538
3646.00,1.5776
3645.00,1.5988
3644.00,1.6184
3643.00,1.6374
3642.00,1.6564
3641.00,1.6754
3640.00,1.6940
3639.00,1.7121
3638.00,1.7299
3637.00,1.7472
3636.00,1.7642
3635.00,1.7809
3634.00,1.7968
3633.00,1.8119
3632.00,1.8261
3631.00,1.8396
3630.00,1.8527
3629.00,1.8659
3628.00,1.8797
3627.00,1.8933
3626.00,1.9056
3625.00,1.9162
3624.00,1.9257
3623.00,1.9344
3622.00,1.9422
3621.00,1.9495
3620.00,1.9561
3619.00,1.9630
3618.00,1.9682
3617.00,1.9759
3616.00,1.9763
3615.00,1.9763
3614.00,1.9844
3613.00,1.9885
3612.00,1.9933
3611.00,1.9967
3610.00,2.0002
3609.00,2.0033
3608.00,2.0064
3607.00,2.0095
3606.00,2.0124
3605.00,2.0150
3604.00,2.0170
3603.00,2.0188
3602.00,2.0197
3601.00,2.0208
3600.00,2.0204
3599.00,2.0215
3598.00,2.0186
3597.00,2.0244
3596.00,2.0313
3595.00,2.0278
3594.00,2.0277
3593.00,2.0258
3592.00,2.0246
3591.00,2.0223
3590.00,2.0192
3589.00,2.0154
3588.00,2.0111
3587.00,2.0064
3586.00,2.0009
3585.00,1.9947
3584.00,1.9880
3583.00,1.9814
3582.00,1.9748
3581.00,1.9681
3580.00,1.9610
3579.00,1.9532
3578.00,1.9447
3577.00,1.9356
3576.00,1.9265
3575.00,1.9174
3574.00,1.9083
3573.00,1.8988
3572.00,1.8892
3571.00,1.8792
3570.00,1.8688
3569.00,1.8575
3568.00,1.8454
3567.00,1.8325
3566.00,1.8196
3565.00,1.8072
3564.00,1.7954
3563.00,1.7839
3562.00,1.7724
3561.00,1.7606
3560.00,1.7485
3559.00,1.7363
3558.00,1.7241
3557.00,1.7120
3556.00,1.7003
3555.00,1.6888
3554.00,1.6774
3553.00,1.6660
3552.00,1.6549
3551.00,1.6444
3550.00,1.6345
3549.00,1.6251
3548.00,1.6161
3547.00,1.6075
3546.00,1.5995
3545.00,1.5921
3544.00,1.5857
3543.00,1.5804
3542.00,1.5761
3541.00,1.5726
3540.00,1.5699
3539.00,1.5680
3538.00,1.5668
3537.00,1.5663
3536.00,1.5664
3535.00,1.5673
3534.00,1.5688
3533.00,1.5712
3532.00,1.5744
3531.00,1.5784
3530.00,1.5831
3529.00,1.5885
3528.00,1.5944
3527.00,1.6009
3526.00,1.6077
3525.00,1.6149
3524.00,1.6225
3523.00,1.6306
3522.00,1.6393
3521.00,1.6484
3520.00,1.6580
3519.00,1.6678
3518.00,1.6778
3517.00,1.6879
3516.00,1.6982
3515.00,1.7088
3514.00,1.7196
3513.00,1.7307
3512.00,1.7419
3511.00,1.7530
3510.00,1.7639
3509.00,1.7746
3508.00,1.7855
3507.00,1.7964
3506.00,1.8074
3505.00,1.8182
3504.00,1.8292
3503.00,1.8401
3502.00,1.8511
3501.00,1.8619
3500.00,1.8727
3499.00,1.8836
3498.00,1.8944
3497.00,1.9049
3496.00,1.9151
3495.00,1.9250
3494.00,1.9348
3493.00,1.9447
3492.00,1.9544
3491.00,1.9638
3490.00,1.9733
3489.00,1.9829
3488.00,1.9927
3487.00,2.0022
3486.00,2.0108
3485.00,2.0186
3484.00,2.0260
3483.00,2.0336
3482.00,2.0414
3481.00,2.0492
3480.00,2.0564
3479.00,2.0626
3478.00,2.0681
3477.00,2.0732
3476.00,2.0784
3475.00,2.0836
3474.00,2.0886
3473.00,2.0932
3472.00,2.0976
3471.00,2.1016
3470.00,2.1051
3469.00,2.1077
3468.00,2.1100
3467.00,2.1120
3466.00,2.1138
3465.00,2.1153
3464.00,2.1168
3463.00,2.1181
3462.00,2.1191
3461.00,2.1197
3460.00,2.1197
3459.00,2.1191
3458.00,2.1181
3457.00,2.1168
3456.00,2.1156
3455.00,2.1141
3454.00,2.1121
3453.00,2.1094
3452.00,2.1065
3451.00,2.1033
3450.00,2.0996
3449.00,2.0949
3448.00,2.0894
3447.00,2.0839
3446.00,2.0788
3445.00,2.0741
3444.00,2.0690
3443.00,2.0630
3442.00,2.0559
3441.00,2.0480
3440.00,2.0399
3439.00,2.0315
3438.00,2.0227
3437.00,2.0136
3436.00,2.0043
3435.00,1.9951
3434.00,1.9856
3433.00,1.9756
3432.00,1.9649
3431.00,1.9538
3430.00,1.9425
3429.00,1.9309
3428.00,1.9192
3427.00,1.9072
3426.00,1.8951
3425.00,1.8831
3424.00,1.8711
3423.00,1.8591
3422.00,1.8471
3421.00,1.8352
3420.00,1.8235
3419.00,1.8121
3418.00,1.8011
3417.00,1.7904
3416.00,1.7802
3415.00,1.7705
3414.00,1.7612
3413.00,1.7522
3412.00,1.7434
3411.00,1.7349
3410.00,1.7266
3409.00,1.7183
3408.00,1.7101
3407.00,1.7019
3406.00,1.6933
3405.00,1.6843
3404.00,1.6749
3403.00,1.6653
3402.00,1.6553
3401.00,1.6449
3400.00,1.6341
3399.00,1.6231
3398.00,1.6120
3397.00,1.6011
3396.00,1.5907
3395.00,1.5809
3394.00,1.5719
3393.00,1.5638
3392.00,1.5567
3391.00,1.5509
3390.00,1.5464
3389.00,1.5434
3388.00,1.5418
3387.00,1.5416
3386.00,1.5427
3385.00,1.5451
3384.00,1.5487
3383.00,1.5536
3382.00,1.5598
3381.00,1.5672
3380.00,1.5756
3379.00,1.5849
3378.00,1.5950
3377.00,1.6059
3376.00,1.6178
3375.00,1.6307
3374.00,1.6443
3373.00,1.6583
3372.00,1.6727
3371.00,1.6876
3370.00,1.7029
3369.00,1.7186
3368.00,1.7347
3367.00,1.7509
3366.00,1.7670
3365.00,1.7830
3364.00,1.7987
3363.00,1.8142
3362.00,1.8297
3361.00,1.8451
3360.00,1.8605
3359.00,1.8755
3358.00,1.8899
3357.00,1.9039
3356.00,1.9179
3355.00,1.9319
3354.00,1.9457
3353.00,1.9590
3352.00,1.9718
3351.00,1.9840
3350.00,1.9955
3349.00,2.0063
3348.00,2.0164
3347.00,2.0260
3346.00,2.0352
3345.00,2.0441
3344.00,2.0528
3343.00,2.0612
3342.00,2.0692
3341.00,2.0765
3340.00,2.0831
3339.00,2.0891
3338.00,2.0947
3337.00,2.1002
3336.00,2.1051
3335.00,2.1092
3334.00,2.1124
3333.00,2.1153
3332.00,2.1185
3331.00,2.1219
3330.00,2.1251
3329.00,2.1277
3328.00,2.1296
3327.00,2.1310
3326.00,2.1321
3325.00,2.1325
3324.00,2.1322
3323.00,2.1314
3322.00,2.1302
3321.00,2.1287
3320.00,2.1272
3319.00,2.1252
3318.00,2.1226
3317.00,2.1191
3316.00,2.1148
3315.00,2.1101
3314.00,2.1052
3313.00,2.1004
3312.00,2.0953
3311.00,2.0893
3310.00,2.0826
3309.00,2.0753
3308.00,2.0677
3307.00,2.0596
3306.00,2.0510
3305.00,2.0419
3304.00,2.0322
3303.00,2.0218
3302.00,2.0109
3301.00,2.0000
3300.00,1.9890
3299.00,1.9775
3298.00,1.9649
3297.00,1.9514
3296.00,1.9375
3295.00,1.9237
3294.00,1.9097
3293.00,1.8953
3292.00,1.8802
3291.00,1.8644
3290.00,1.8479
3289.00,1.8310
3288.00,1.8139
3287.00,1.7964
3286.00,1.7787
3285.00,1.7608
3284.00,1.7428
3283.00,1.7247
3282.00,1.7064
3281.00,1.6882
3280.00,1.6702
3279.00,1.6526
3278.00,1.6353
3277.00,1.6183
3276.00,1.6016
3275.00,1.5856
3274.00,1.5703
3273.00,1.5559
3272.00,1.5425
3271.00,1.5305
3270.00,1.5196
3269.00,1.5101
3268.00,1.5019
3267.00,1.4950
3266.00,1.4894
3265.00,1.4852
3264.00,1.4825
3263.00,1.4813
3262.00,1.4816
3261.00,1.4834
3260.00,1.4866
3259.00,1.4912
3258.00,1.4973
3257.00,1.5049
3256.00,1.5139
3255.00,1.5242
3254.00,1.5354
3253.00,1.5474
3252.00,1.5601
3251.00,1.5737
3250.00,1.5880
3249.00,1.6030
3248.00,1.6185
3247.00,1.6344
3246.00,1.6507
3245.00,1.6673
3244.00,1.6843
3243.00,1.7017
3242.00,1.7192
3241.00,1.7368
3240.00,1.7544
3239.00,1.7719
3238.00,1.7894
3237.00,1.8065
3236.00,1.8234
3235.00,1.8401
3234.00,1.8566
3233.00,1.8728
3232.00,1.8889
3231.00,1.9049
3230.00,1.9211
3229.00,1.9370
3228.00,1.9523
3227.00,1.9665
3226.00,1.9800
3225.00,1.9932
3224.00,2.0062
3223.00,2.0190
3222.00,2.0314
3221.00,2.0436
3220.00,2.0556
3219.00,2.0672
3218.00,2.0783
3217.00,2.0887
3216.00,2.0984
3215.00,2.1076
3214.00,2.1164
3213.00,2.1247
3212.00,2.1326
3211.00,2.1403
3210.00,2.1477
3209.00,2.1546
3208.00,2.1605
3207.00,2.1651
3206.00,2.1691
3205.00,2.1731
3204.00,2.1772
3203.00,2.1809
3202.00,2.1837
3201.00,2.1858
3200.00,2.1877
3199.00,2.1895
3198.00,2.1912
3197.00,2.1923
3196.00,2.1928
3195.00,2.1930
3194.00,2.1932
3193.00,2.1935
3192.00,2.1934
3191.00,2.1927
3190.00,2.1913
3189.00,2.1895
3188.00,2.1874
3187.00,2.1849
3186.00,2.1819
3185.00,2.1785
3184.00,2.1746
3183.00,2.1705
3182.00,2.1662
3181.00,2.1615
3180.00,2.1562
3179.00,2.1500
3178.00,2.1434
3177.00,2.1366
3176.00,2.1295
3175.00,2.1217
3174.00,2.1133
3173.00,2.1044
3172.00,2.0950
3171.00,2.0851
3170.00,2.0744
3169.00,2.0634
3168.00,2.0522
3167.00,2.0408
3166.00,2.0289
3165.00,2.0163
3164.00,2.0028
3163.00,1.9883
3162.00,1.9733
3161.00,1.9580
3160.00,1.9423
3159.00,1.9259
3158.00,1.9088
3157.00,1.8912
3156.00,1.8735
3155.00,1.8559
3154.00,1.8384
3153.00,1.8207
3152.00,1.8026
3151.00,1.7841
3150.00,1.7654
3149.00,1.7468
3148.00,1.7285
3147.00,1.7105
3146.00,1.6930
3145.00,1.6758
3144.00,1.6591
3143.00,1.6430
3142.00,1.6278
3141.00,1.6137
3140.00,1.6009
3139.00,1.5893
3138.00,1.5788
3137.00,1.5696
3136.00,1.5620
3135.00,1.5562
3134.00,1.5521
3133.00,1.5497
3132.00,1.5489
3131.00,1.5498
3130.00,1.5525
3129.00,1.5568
3128.00,1.5627
3127.00,1.5701
3126.00,1.5789
3125.00,1.5890
3124.00,1.6004
3123.00,1.6130
3122.00,1.6267
3121.00,1.6413
3120.00,1.6568
3119.00,1.6730
3118.00,1.6898
3117.00,1.7071
3116.00,1.7250
3115.00,1.7434
3114.00,1.7622
3113.00,1.7811
3112.00,1.8000
3111.00,1.8188
3110.00,1.8376
3109.00,1.8563
3108.00,1.8752
3107.00,1.8943
3106.00,1.9132
3105.00,1.9318
3104.00,1.9497
3103.00,1.9670
3102.00,1.9840
3101.00,2.0009
3100.00,2.0180
3099.00,2.0348
3098.00,2.0508
3097.00,2.0661
3096.00,2.0809
3095.00,2.0954
3094.00,2.1093
3093.00,2.1224
3092.00,2.1351
3091.00,2.1471
3090.00,2.1581
3089.00,2.1678
3088.00,2.1770
3087.00,2.1862
3086.00,2.1957
3085.00,2.2048
3084.00,2.2132
3083.00,2.2207
3082.00,2.2278
3081.00,2.2343
3080.00,2.2403
3079.00,2.2452
3078.00,2.2494
3077.00,2.2533
3076.00,2.2573
3075.00,2.2617
3074.00,2.2657
3073.00,2.2689
3072.00,2.2712
3071.00,2.2727
3070.00,2.2737
3069.00,2.2739
3068.00,2.2733
3067.00,2.2715
3066.00,2.2685
3065.00,2.2648
3064.00,2.2614
3063.00,2.2583
3062.00,2.2551
3061.00,2.2510
3060.00,2.2461
3059.00,2.2408
3058.00,2.2353
3057.00,2.2291
3056.00,2.2218
3055.00,2.2132
3054.00,2.2035
3053.00,2.1930
3052.00,2.1820
3051.00,2.1709
3050.00,2.1594
3049.00,2.1472
3048.00,2.1341
3047.00,2.1198
3046.00,2.1046
3045.00,2.0884
3044.00,2.0712
3043.00,2.0530
3042.00,2.0340
3041.00,2.0143
3040.00,1.9943
3039.00,1.9738
3038.00,1.9530
3037.00,1.9318
3036.00,1.9103
3035.00,1.8887
3034.00,1.8671
3033.00,1.8455
3032.00,1.8240
3031.00,1.8029
3030.00,1.7824
3029.00,1.7632
3028.00,1.7457
3027.00,1.7298
3026.00,1.7155
3025.00,1.7031
3024.00,1.6926
3023.00,1.6845
3022.00,1.6790
3021.00,1.6761
3020.00,1.6760
3019.00,1.6788
3018.00,1.6845
3017.00,1.6932
3016.00,1.7049
3015.00,1.7194
3014.00,1.7365
3013.00,1.7557
3012.00,1.7768
3011.00,1.7998
3010.00,1.8249
3009.00,1.8517
3008.00,1.8798
3007.00,1.9088
3006.00,1.9381
3005.00,1.9676
3004.00,1.9975
3003.00,2.0279
3002.00,2.0588
3001.00,2.0896
3000.00,2.1196
2999.00,2.1483
2998.00,2.1759
2997.00,2.2026
2996.00,2.2287
2995.00,2.2540
2994.00,2.2785
2993.00,2.3017
2992.00,2.3234
2991.00,2.3435
2990.00,2.3621
2989.00,2.3796
2988.00,2.3962
2987.00,2.4121
2986.00,2.4272
2985.00,2.4418
2984.00,2.4564
2983.00,2.4718
2982.00,2.4889
2981.00,2.5076
2980.00,2.5274
2979.00,2.5479
2978.00,2.5695
2977.00,2.5942
2976.00,2.6239
2975.00,2.6600
2974.00,2.7033
2973.00,2.7540
2972.00,2.8116
2971.00,2.8755
2970.00,2.9445
2969.00,3.0177
2968.00,3.0943
2967.00,3.1740
2966.00,3.2570
2965.00,3.3426
2964.00,3.4285
2963.00,3.5146
2962.00,3.6058
2961.00,3.7075
2960.00,3.8176
2959.00,3.9234
2958.00,4.0044
2957.00,4.0482
2956.00,4.0690
2955.00,4.0946
2954.00,4.1406
2953.00,4.1930
2952.00,4.2215
2951.00,4.2189
2950.00,4.2150
2949.00,4.2426
2948.00,4.3097
2947.00,4.3963
2946.00,4.4694
2945.00,4.5127
2944.00,4.5461
2943.00,4.5994
2942.00,4.6512
2941.00,4.6517
2940.00,4.6503
2939.00,4.6988
2938.00,4.7106
2937.00,4.6086
2936.00,4.4703
2935.00,4.3632
2934.00,4.2846
2933.00,4.2302
2932.00,4.2073
2931.00,4.2106
2930.00,4.2457
2929.00,4.3120
2928.00,4.3464
2927.00,4.2795
2926.00,4.1840
2925.00,4.1391
2924.00,4.1408
2923.00,4.1170
2922.00,4.0244
2921.00,3.8984
2920.00,3.7839
2919.00,3.6947
2918.00,3.6266
2917.00,3.5665
2916.00,3.4999
2915.00,3.4246
2914.00,3.3516
2913.00,3.2927
2912.00,3.2493
2911.00,3.2140
2910.00,3.1789
2909.00,3.1424
2908.00,3.1071
2907.00,3.0758
2906.00,3.0490
2905.00,3.0252
2904.00,3.0023
2903.00,2.9792
2902.00,2.9574
2901.00,2.9390
2900.00,2.9244
2899.00,2.9119
2898.00,2.9004
2897.00,2.8899
2896.00,2.8804
2895.00,2.8712
2894.00,2.8627
2893.00,2.8565
2892.00,2.8528
2891.00,2.8493
2890.00,2.8444
2889.00,2.8396
2888.00,2.8377
2887.00,2.8401
2886.00,2.8457
2885.00,2.8535
2884.00,2.8632
2883.00,2.8750
2882.00,2.8884
2881.00,2.9031
2880.00,2.9201
2879.00,2.9414
2878.00,2.9689
2877.00,3.0030
2876.00,3.0418
2875.00,3.0829
2874.00,3.1271
2873.00,3.1789
2872.00,3.2427
2871.00,3.3167
2870.00,3.3930
2869.00,3.4646
2868.00,3.5272
2867.00,3.5772
2866.00,3.6136
2865.00,3.6427
2864.00,3.6719
2863.00,3.6992
2862.00,3.7177
2861.00,3.7263
2860.00,3.7232
2859.00,3.6921
2858.00,3.6173
2857.00,3.5108
2856.00,3.3976
2855.00,3.2897
2854.00,3.1881
2853.00,3.0930
2852.00,3.0056
2851.00,2.9264
2850.00,2.8551
2849.00,2.7918
2848.00,2.7375
2847.00,2.6924
2846.00,2.6559
2845.00,2.6264
2844.00,2.6026
2843.00,2.5832
2842.00,2.5667
2841.00,2.5516
2840.00,2.5366
2839.00,2.5210
2838.00,2.5047
2837.00,2.4878
2836.00,2.4707
2835.00,2.4534
2834.00,2.4359
2833.00,2.4186
2832.00,2.4020
2831.00,2.3859
2830.00,2.3692
2829.00,2.3513
2828.00,2.3320
2827.00,2.3114
2826.00,2.2893
2825.00,2.2656
2824.00,2.2404
2823.00,2.2139
2822.00,2.1857
2821.00,2.1554
2820.00,2.1225
2819.00,2.0875
2818.00,2.0508
2817.00,2.0126
2816.00,1.9734
2815.00,1.9336
2814.00,1.8940
2813.00,1.8553
2812.00,1.8176
2811.00,1.7809
2810.00,1.7459
2809.00,1.7133
2808.00,1.6841
2807.00,1.6588
2806.00,1.6379
2805.00,1.6219
2804.00,1.6112
2803.00,1.6061
2802.00,1.6062
2801.00,1.6110
2800.00,1.6198
2799.00,1.6319
2798.00,1.6464
2797.00,1.6623
2796.00,1.6791
2795.00,1.6962
2794.00,1.7138
2793.00,1.7321
2792.00,1.7517
2791.00,1.7729
2790.00,1.7958
2789.00,1.8204
2788.00,1.8465
2787.00,1.8736
2786.00,1.9012
2785.00,1.9290
2784.00,1.9567
2783.00,1.9842
2782.00,2.0112
2781.00,2.0376
2780.00,2.0632
2779.00,2.0881
2778.00,2.1125
2777.00,2.1364
2776.00,2.1592
2775.00,2.1804
2774.00,2.2000
2773.00,2.2183
2772.00,2.2357
2771.00,2.2528
2770.00,2.2697
2769.00,2.2862
2768.00,2.3015
2767.00,2.3151
2766.00,2.3274
2765.00,2.3387
2764.00,2.3492
2763.00,2.3588
2762.00,2.3674
2761.00,2.3754
2760.00,2.3833
2759.00,2.3906
2758.00,2.3966
2757.00,2.4014
2756.00,2.4056
2755.00,2.4095
2754.00,2.4130
2753.00,2.4158
2752.00,2.4177
2751.00,2.4188
2750.00,2.4194
2749.00,2.4195
2748.00,2.4189
2747.00,2.4176
2746.00,2.4157
2745.00,2.4137
2744.00,2.4115
2743.00,2.4088
2742.00,2.4052
2741.00,2.4007
2740.00,2.3951
2739.00,2.3887
2738.00,2.3817
2737.00,2.3746
2736.00,2.3671
2735.00,2.3587
2734.00,2.3490
2733.00,2.3382
2732.00,2.3267
2731.00,2.3147
2730.00,2.3021
2729.00,2.2890
2728.00,2.2751
2727.00,2.2603
2726.00,2.2443
2725.00,2.2271
2724.00,2.2088
2723.00,2.1896
2722.00,2.1698
2721.00,2.1492
2720.00,2.1277
2719.00,2.1048
2718.00,2.0805
2717.00,2.0549
2716.00,2.0284
2715.00,2.0008
2714.00,1.9724
2713.00,1.9428
2712.00,1.9118
2711.00,1.8791
2710.00,1.8447
2709.00,1.8093
2708.00,1.7732
2707.00,1.7368
2706.00,1.7001
2705.00,1.6634
2704.00,1.6270
2703.00,1.5915
2702.00,1.5574
2701.00,1.5252
2700.00,1.4957
2699.00,1.4691
2698.00,1.4459
2697.00,1.4265
2696.00,1.4112
2695.00,1.4004
2694.00,1.3943
2693.00,1.3928
2692.00,1.3961
2691.00,1.4040
2690.00,1.4166
2689.00,1.4335
2688.00,1.4545
2687.00,1.4792
2686.00,1.5071
2685.00,1.5377
2684.00,1.5704
2683.00,1.6045
2682.00,1.6395
2681.00,1.6746
2680.00,1.7090
2679.00,1.7421
2678.00,1.7737
2677.00,1.8037
2676.00,1.8322
2675.00,1.8590
2674.00,1.8843
2673.00,1.9084
2672.00,1.9317
2671.00,1.9542
2670.00,1.9757
2669.00,1.9958
2668.00,2.0148
2667.00,2.0331
2666.00,2.0510
2665.00,2.0687
2664.00,2.0864
2663.00,2.1048
2662.00,2.1243
2661.00,2.1450
2660.00,2.1664
2659.00,2.1876
2658.00,2.2081
2657.00,2.2279
2656.00,2.2472
2655.00,2.2660
2654.00,2.2835
2653.00,2.2996
2652.00,2.3147
2651.00,2.3294
2650.00,2.3438
2649.00,2.3577
2648.00,2.3704
2647.00,2.3819
2646.00,2.3926
2645.00,2.4029
2644.00,2.4128
2643.00,2.4221
2642.00,2.4304
2641.00,2.4380
2640.00,2.4455
2639.00,2.4528
2638.00,2.4595
2637.00,2.4652
2636.00,2.4699
2635.00,2.4742
2634.00,2.4783
2633.00,2.4826
2632.00,2.4871
2631.00,2.4913
2630.00,2.4950
2629.00,2.4977
2628.00,2.4995
2627.00,2.5003
2626.00,2.5005
2625.00,2.5010
2624.00,2.5023
2623.00,2.5038
2622.00,2.5039
2621.00,2.5018
2620.00,2.4980
2619.00,2.4937
2618.00,2.4894
2617.00,2.4854
2616.00,2.4819
2615.00,2.4787
2614.00,2.4750
2613.00,2.4695
2612.00,2.4621
2611.00,2.4535
2610.00,2.4448
2609.00,2.4362
2608.00,2.4277
2607.00,2.4189
2606.00,2.4096
2605.00,2.3996
2604.00,2.3889
2603.00,2.3777
2602.00,2.3658
2601.00,2.3528
2600.00,2.3382
2599.00,2.3219
2598.00,2.3042
2597.00,2.2857
2596.00,2.2667
2595.00,2.2471
2594.00,2.2266
2593.00,2.2049
2592.00,2.1821
2591.00,2.1583
2590.00,2.1339
2589.00,2.1092
2588.00,2.0837
2587.00,2.0569
2586.00,2.0284
2585.00,1.9982
2584.00,1.9667
2583.00,1.9343
2582.00,1.9009
2581.00,1.8664
2580.00,1.8308
2579.00,1.7943
2578.00,1.7573
2577.00,1.7201
2576.00,1.6829
2575.00,1.6461
2574.00,1.6102
2573.00,1.5756
2572.00,1.5427
2571.00,1.5115
2570.00,1.4827
2569.00,1.4565
2568.00,1.4334
2567.00,1.4139
2566.00,1.3981
2565.00,1.3864
2564.00,1.3788
2563.00,1.3756
2562.00,1.3768
2561.00,1.3825
2560.00,1.3927
2559.00,1.4072
2558.00,1.4255
2557.00,1.4474
2556.00,1.4723
2555.00,1.4998
2554.00,1.5293
2553.00,1.5607
2552.00,1.5935
2551.00,1.6274
2550.00,1.6620
2549.00,1.6971
2548.00,1.7325
2547.00,1.7679
2546.00,1.8032
2545.00,1.8380
2544.00,1.8722
2543.00,1.9056
2542.00,1.9383
2541.00,1.9703
2540.00,2.0016
2539.00,2.0320
2538.00,2.0614
2537.00,2.0900
2536.00,2.1176
2535.00,2.1442
2534.00,2.1699
2533.00,2.1953
2532.00,2.2202
2531.00,2.2443
2530.00,2.2667
2529.00,2.2871
2528.00,2.3059
2527.00,2.3238
2526.00,2.3414
2525.00,2.3585
2524.00,2.3746
2523.00,2.3896
2522.00,2.4038
2521.00,2.4178
2520.00,2.4319
2519.00,2.4457
2518.00,2.4591
2517.00,2.4715
2516.00,2.4826
2515.00,2.4922
2514.00,2.5009
2513.00,2.5095
2512.00,2.5179
2511.00,2.5258
2510.00,2.5325
2509.00,2.5385
2508.00,2.5440
2507.00,2.5492
2506.00,2.5539
2505.00,2.5583
2504.00,2.5627
2503.00,2.5669
2502.00,2.5706
2501.00,2.5735
2500.00,2.5761
2499.00,2.5786
2498.00,2.5807
2497.00,2.5823
2496.00,2.5831
2495.00,2.5830
2494.00,2.5820
2493.00,2.5802
2492.00,2.5781
2491.00,2.5758
2490.00,2.5733
2489.00,2.5706
2488.00,2.5672
2487.00,2.5632
2486.00,2.5585
2485.00,2.5529
2484.00,2.5461
2483.00,2.5380
2482.00,2.5293
2481.00,2.5209
2480.00,2.5135
2479.00,2.5064
2478.00,2.4982
2477.00,2.4881
2476.00,2.4758
2475.00,2.4625
2474.00,2.4492
2473.00,2.4364
2472.00,2.4236
2471.00,2.4099
2470.00,2.3950
2469.00,2.3793
2468.00,2.3631
2467.00,2.3461
2466.00,2.3281
2465.00,2.3092
2464.00,2.2894
2463.00,2.2685
2462.00,2.2462
2461.00,2.2225
2460.00,2.1973
2459.00,2.1707
2458.00,2.1427
2457.00,2.1135
2456.00,2.0834
2455.00,2.0520
2454.00,2.0187
2453.00,1.9832
2452.00,1.9458
2451.00,1.9068
2450.00,1.8663
2449.00,1.8244
2448.00,1.7813
2447.00,1.7372
2446.00,1.6923
2445.00,1.6472
2444.00,1.6023
2443.00,1.5583
2442.00,1.5161
2441.00,1.4762
2440.00,1.4396
2439.00,1.4068
2438.00,1.3785
2437.00,1.3554
2436.00,1.3381
2435.00,1.3270
2434.00,1.3223
2433.00,1.3241
2432.00,1.3322
2431.00,1.3461
2430.00,1.3651
2429.00,1.3885
2428.00,1.4155
2427.00,1.4455
2426.00,1.4778
2425.00,1.5119
2424.00,1.5474
2423.00,1.5839
2422.00,1.6212
2421.00,1.6589
2420.00,1.6967
2419.00,1.7345
2418.00,1.7722
2417.00,1.8097
2416.00,1.8471
2415.00,1.8843
2414.00,1.9212
2413.00,1.9576
2412.00,1.9933
2411.00,2.0279
2410.00,2.0616
2409.00,2.0949
2408.00,2.1278
2407.00,2.1597
2406.00,2.1901
2405.00,2.2188
2404.00,2.2461
2403.00,2.2723
2402.00,2.2977
2401.00,2.3224
2400.00,2.3461
2399.00,2.3689
2398.00,2.3906
2397.00,2.4110
2396.00,2.4298
2395.00,2.4474
2394.00,2.4642
2393.00,2.4806
2392.00,2.4961
2391.00,2.5104
2390.00,2.5237
2389.00,2.5372
2388.00,2.5495
2387.00,2.5593
2386.00,2.5700
2385.00,2.5798
2384.00,2.5896
2383.00,2.5982
2382.00,2.6058
2381.00,2.6127
2380.00,2.6197
2379.00,2.6268
2378.00,2.6343
2377.00,2.6424
2376.00,2.6504
2375.00,2.6575
2374.00,2.6632
2373.00,2.6682
2372.00,2.6735
2371.00,2.6789
2370.00,2.6832
2369.00,2.6861
2368.00,2.6875
2367.00,2.6879
2366.00,2.6874
2365.00,2.6859
2364.00,2.6833
2363.00,2.6796
2362.00,2.6755
2361.00,2.6720
2360.00,2.6697
2359.00,2.6681
2358.00,2.6670
2357.00,2.6653
2356.00,2.6616
2355.00,2.6550
2354.00,2.6464
2353.00,2.6379
2352.00,2.6301
2351.00,2.6223
2350.00,2.6136
2349.00,2.6043
2348.00,2.5953
2347.00,2.5869
2346.00,2.5783
2345.00,2.5689
2344.00,2.5581
2343.00,2.5462
2342.00,2.5332
2341.00,2.5194
2340.00,2.5050
2339.00,2.4902
2338.00,2.4755
2337.00,2.4606
2336.00,2.4445
2335.00,2.4263
2334.00,2.4061
2333.00,2.3844
2332.00,2.3614
2331.00,2.3370
2330.00,2.3113
2329.00,2.2849
2328.00,2.2579
2327.00,2.2301
2326.00,2.1999
2325.00,2.1694
2324.00,2.1336
2323.00,2.1018
2322.00,2.0578
2321.00,2.0289
2320.00,1.9606
2319.00,1.8974
2318.00,1.8817
2317.00,1.8445
2316.00,1.8018
2315.00,1.7531
2314.00,1.7092
2313.00,1.6837
2312.00,1.6865
2311.00,1.7054
2310.00,1.7328
2309.00,1.7464
2308.00,1.7523
2307.00,1.7432
2306.00,1.7335
2305.00,1.7182
2304.00,1.7058
2303.00,1.6907
2302.00,1.6802
2301.00,1.6735
2300.00,1.6760
2299.00,1.6846
2298.00,1.7002
2297.00,1.7160
2296.00,1.7350
2295.00,1.7529
2294.00,1.7748
2293.00,1.7958
2292.00,1.8204
2291.00,1.8438
2290.00,1.8699
2289.00,1.8955
2288.00,1.9234
2287.00,1.9516
2286.00,1.9813
2285.00,2.0117
2284.00,2.0423
2283.00,2.0723
2282.00,2.1009
2281.00,2.1296
2280.00,2.1594
2279.00,2.1923
2278.00,2.2264
2277.00,2.2600
2276.00,2.2911
2275.00,2.3203
2274.00,2.3477
2273.00,2.3738
2272.00,2.3985
2271.00,2.4216
2270.00,2.4438
2269.00,2.4647
2268.00,2.4844
2267.00,2.5026
2266.00,2.5203
2265.00,2.5387
2264.00,2.5579
2263.00,2.5766
2262.00,2.5938
2261.00,2.6092
2260.00,2.6238
2259.00,2.6381
2258.00,2.6519
2257.00,2.6643
2256.00,2.6743
2255.00,2.6824
2254.00,2.6897
2253.00,2.6978
2252.00,2.7067
2251.00,2.7156
2250.00,2.7237
2249.00,2.7308
2248.00,2.7369
2247.00,2.7419
2246.00,2.7462
2245.00,2.7500
2244.00,2.7534
2243.00,2.7566
2242.00,2.7599
2241.00,2.7636
2240.00,2.7670
2239.00,2.7684
2238.00,2.7680
2237.00,2.7673
2236.00,2.7673
2235.00,2.7674
2234.00,2.7664
2233.00,2.7645
2232.00,2.7620
2231.00,2.7592
2230.00,2.7561
2229.00,2.7530
2228.00,2.7498
2227.00,2.7459
2226.00,2.7405
2225.00,2.7340
2224.00,2.7272
2223.00,2.7206
2222.00,2.7143
2221.00,2.7079
2220.00,2.7010
2219.00,2.6931
2218.00,2.6848
2217.00,2.6765
2216.00,2.6682
2215.00,2.6587
2214.00,2.6476
2213.00,2.6354
2212.00,2.6227
2211.00,2.6096
2210.00,2.5957
2209.00,2.5813
2208.00,2.5663
2207.00,2.5504
2206.00,2.5333
2205.00,2.5151
2204.00,2.4959
2203.00,2.4753
2202.00,2.4531
2201.00,2.4298
2200.00,2.4057
2199.00,2.3808
2198.00,2.3543
2197.00,2.3258
2196.00,2.2955
2195.00,2.2636
2194.00,2.2299
2193.00,2.1944
2192.00,2.1573
2191.00,2.1184
2190.00,2.0776
2189.00,2.0353
2188.00,1.9916
2187.00,1.9469
2186.00,1.9016
2185.00,1.8561
2184.00,1.8107
2183.00,1.7660
2182.00,1.7230
2181.00,1.6824
2180.00,1.6451
2179.00,1.6115
2178.00,1.5818
2177.00,1.5560
2176.00,1.5338
2175.00,1.5150
2174.00,1.4998
2173.00,1.4887
2172.00,1.4825
2171.00,1.4817
2170.00,1.4867
2169.00,1.4975
2168.00,1.5142
2167.00,1.5363
2166.00,1.5632
2165.00,1.5945
2164.00,1.6294
2163.00,1.6673
2162.00,1.7072
2161.00,1.7485
2160.00,1.7912
2159.00,1.8349
2158.00,1.8794
2157.00,1.9239
2156.00,1.9680
2155.00,2.0114
2154.00,2.0539
2153.00,2.0955
2152.00,2.1363
2151.00,2.1760
2150.00,2.2144
2149.00,2.2518
2148.00,2.2879
2147.00,2.3226
2146.00,2.3554
2145.00,2.3863
2144.00,2.4157
2143.00,2.4441
2142.00,2.4714
2141.00,2.4971
2140.00,2.5207
2139.00,2.5422
2138.00,2.5626
2137.00,2.5830
2136.00,2.6038
2135.00,2.6242
2134.00,2.6430
2133.00,2.6597
2132.00,2.6744
2131.00,2.6871
2130.00,2.6978
2129.00,2.7076
2128.00,2.7188
2127.00,2.7322
2126.00,2.7468
2125.00,2.7599
2124.00,2.7704
2123.00,2.7787
2122.00,2.7868
2121.00,2.7961
2120.00,2.8066
2119.00,2.8164
2118.00,2.8234
2117.00,2.8271
2116.00,2.8292
2115.00,2.8312
2114.00,2.8337
2113.00,2.8362
2112.00,2.8385
2111.00,2.8408
2110.00,2.8430
2109.00,2.8452
2108.00,2.8478
2107.00,2.8512
2106.00,2.8548
2105.00,2.8571
2104.00,2.8574
2103.00,2.8560
2102.00,2.8536
2101.00,2.8512
2100.00,2.8494
2099.00,2.8478
2098.00,2.8453
2097.00,2.8413
2096.00,2.8364
2095.00,2.8317
2094.00,2.8272
2093.00,2.8218
2092.00,2.8146
2091.00,2.8063
2090.00,2.7979
2089.00,2.7898
2088.00,2.7821
2087.00,2.7748
2086.00,2.7678
2085.00,2.7605
2084.00,2.7517
2083.00,2.7411
2082.00,2.7288
2081.00,2.7152
2080.00,2.7003
2079.00,2.6843
2078.00,2.6679
2077.00,2.6510
2076.00,2.6330
2075.00,2.6130
2074.00,2.5914
2073.00,2.5690
2072.00,2.5465
2071.00,2.5241
2070.00,2.5009
2069.00,2.4766
2068.00,2.4509
2067.00,2.4239
2066.00,2.3960
2065.00,2.3674
2064.00,2.3383
2063.00,2.3086
2062.00,2.2779
2061.00,2.2456
2060.00,2.2108
2059.00,2.1729
2058.00,2.1314
2057.00,2.0864
2056.00,2.0383
2055.00,1.9873
2054.00,1.9342
2053.00,1.8795
2052.00,1.8240
2051.00,1.7688
2050.00,1.7149
2049.00,1.6640
2048.00,1.6174
2047.00,1.5761
2046.00,1.5412
2045.00,1.5140
2044.00,1.4952
2043.00,1.4851
2042.00,1.4837
2041.00,1.4912
2040.00,1.5075
2039.00,1.5321
2038.00,1.5639
2037.00,1.6011
2036.00,1.6421
2035.00,1.6858
2034.00,1.7314
2033.00,1.7785
2032.00,1.8265
2031.00,1.8749
2030.00,1.9231
2029.00,1.9709
2028.00,2.0182
2027.00,2.0649
2026.00,2.1108
2025.00,2.1558
2024.00,2.2000
2023.00,2.2429
2022.00,2.2839
2021.00,2.3226
2020.00,2.3592
2019.00,2.3937
2018.00,2.4258
2017.00,2.4558
2016.00,2.4847
2015.00,2.5134
2014.00,2.5414
2013.00,2.5680
2012.00,2.5927
2011.00,2.6161
2010.00,2.6391
2009.00,2.6620
2008.00,2.6845
2007.00,2.7057
2006.00,2.7251
2005.00,2.7438
2004.00,2.7625
2003.00,2.7798
2002.00,2.7942
2001.00,2.8055
2000.00,2.8158
1999.00,2.8268
1998.00,2.8392
1997.00,2.8523
1996.00,2.8648
1995.00,2.8750
1994.00,2.8818
1993.00,2.8860
1992.00,2.8895
1991.00,2.8933
1990.00,2.8981
1989.00,2.9042
1988.00,2.9116
1987.00,2.9195
1986.00,2.9267
1985.00,2.9329
1984.00,2.9384
1983.00,2.9430
1982.00,2.9465
1981.00,2.9498
1980.00,2.9537
1979.00,2.9579
1978.00,2.9612
1977.00,2.9633
1976.00,2.9645
1975.00,2.9643
1974.00,2.9617
1973.00,2.9570
1972.00,2.9522
1971.00,2.9497
1970.00,2.9495
1969.00,2.9488
1968.00,2.9434
1967.00,2.9312
1966.00,2.9157
1965.00,2.9039
1964.00,2.8988
1963.00,2.8973
1962.00,2.8940
1961.00,2.8876
1960.00,2.8806
1959.00,2.8742
1958.00,2.8666
1957.00,2.8555
1956.00,2.8412
1955.00,2.8256
1954.00,2.8110
1953.00,2.7982
1952.00,2.7861
1951.00,2.7731
1950.00,2.7581
1949.00,2.7409
1948.00,2.7212
1947.00,2.6985
1946.00,2.6735
1945.00,2.6481
1944.00,2.6229
1943.00,2.5968
1942.00,2.5695
1941.00,2.5422
1940.00,2.5158
1939.00,2.4886
1938.00,2.4583
1937.00,2.4244
1936.00,2.3873
1935.00,2.3470
1934.00,2.3035
1933.00,2.2574
1932.00,2.2092
1931.00,2.1588
1930.00,2.1059
1929.00,2.0507
1928.00,1.9937
1927.00,1.9355
1926.00,1.8767
1925.00,1.8181
1924.00,1.7602
1923.00,1.7046
1922.00,1.6553
1921.00,1.6166
1920.00,1.5905
1919.00,1.5756
1918.00,1.5700
1917.00,1.5729
1916.00,1.5847
1915.00,1.6055
1914.00,1.6346
1913.00,1.6704
1912.00,1.7110
1911.00,1.7541
1910.00,1.7990
1909.00,1.8456
1908.00,1.8947
1907.00,1.9462
1906.00,1.9998
1905.00,2.0543
1904.00,2.1082
1903.00,2.1604
1902.00,2.2111
1901.00,2.2601
1900.00,2.3075
1899.00,2.3533
1898.00,2.3968
1897.00,2.4375
1896.00,2.4752
1895.00,2.5110
1894.00,2.5463
1893.00,2.5810
1892.00,2.6143
1891.00,2.6457
1890.00,2.6752
1889.00,2.7025
1888.00,2.7282
1887.00,2.7533
1886.00,2.7780
1885.00,2.8011
1884.00,2.8214
1883.00,2.8389
1882.00,2.8551
1881.00,2.8711
1880.00,2.8886
1879.00,2.9079
1878.00,2.9267
1877.00,2.9415
1876.00,2.9516
1875.00,2.9607
1874.00,2.9717
1873.00,2.9835
1872.00,2.9938
1871.00,3.0024
1870.00,3.0100
1869.00,3.0147
1868.00,3.0153
1867.00,3.0159
1866.00,3.0212
1865.00,3.0301
1864.00,3.0386
1863.00,3.0457
1862.00,3.0528
1861.00,3.0592
1860.00,3.0618
1859.00,3.0602
1858.00,3.0566
1857.00,3.0529
1856.00,3.0491
1855.00,3.0454
1854.00,3.0431
1853.00,3.0424
1852.00,3.0422
1851.00,3.0417
1850.00,3.0409
1849.00,3.0385
1848.00,3.0316
1847.00,3.0190
1846.00,3.0038
1845.00,2.9898
1844.00,2.9774
1843.00,2.9650
1842.00,2.9518
1841.00,2.9392
1840.00,2.9274
1839.00,2.9139
1838.00,2.8966
1837.00,2.8763
1836.00,2.8559
1835.00,2.8365
1834.00,2.8170
1833.00,2.7959
1832.00,2.7729
1831.00,2.7485
1830.00,2.7215
1829.00,2.6903
1828.00,2.6549
1827.00,2.6163
1826.00,2.5754
1825.00,2.5330
1824.00,2.4897
1823.00,2.4462
1822.00,2.4025
1821.00,2.3583
1820.00,2.3133
1819.00,2.2668
1818.00,2.2199
1817.00,2.1756
1816.00,2.1386
1815.00,2.1116
1814.00,2.0942
1813.00,2.0848
1812.00,2.0824
1811.00,2.0877
1810.00,2.1005
1809.00,2.1188
1808.00,2.1390
1807.00,2.1584
1806.00,2.1764
1805.00,2.1932
1804.00,2.2081
1803.00,2.2203
1802.00,2.2317
1801.00,2.2484
1800.00,2.2763
1799.00,2.3158
1798.00,2.3611
1797.00,2.4058
1796.00,2.4479
1795.00,2.4900
1794.00,2.5357
1793.00,2.5865
1792.00,2.6394
1791.00,2.6888
1790.00,2.7338
1789.00,2.7782
1788.00,2.8233
1787.00,2.8658
1786.00,2.9018
1785.00,2.9320
1784.00,2.9610
1783.00,2.9923
1782.00,3.0245
1781.00,3.0536
1780.00,3.0767
1779.00,3.0950
1778.00,3.1119
1777.00,3.1293
1776.00,3.1463
1775.00,3.1618
1774.00,3.1768
1773.00,3.1941
1772.00,3.2132
1771.00,3.2277
1770.00,3.2328
1769.00,3.2305
1768.00,3.2273
1767.00,3.2285
1766.00,3.2339
1765.00,3.2396
1764.00,3.2411
1763.00,3.2373
1762.00,3.2284
1761.00,3.2143
1760.00,3.1945
1759.00,3.1701
1758.00,3.1447
1757.00,3.1239
1756.00,3.1135
1755.00,3.1145
1754.00,3.1228
1753.00,3.1331
1752.00,3.1456
1751.00,3.1675
1750.00,3.2075
1749.00,3.2664
1748.00,3.3328
1747.00,3.3906
1746.00,3.4351
1745.00,3.4771
1744.00,3.5283
1743.00,3.5922
1742.00,3.6683
1741.00,3.7540
1740.00,3.8409
1739.00,3.9121
1738.00,3.9553
1737.00,3.9897
1736.00,4.0545
1735.00,4.1775
1734.00,4.3588
1733.00,4.5414
1732.00,4.6227
1731.00,4.5140
1730.00,4.3077
1729.00,4.1719
1728.00,4.1550
1727.00,4.2690
1726.00,4.5367
1725.00,4.7038
1724.00,4.4921
1723.00,4.3864
1722.00,4.4113
1721.00,4.5367
1720.00,4.6776
1719.00,4.6443
1718.00,4.5975
1717.00,4.7345
1716.00,5.0312
1715.00,4.7075
1714.00,4.4098
1713.00,4.3054
1712.00,4.3025
1711.00,4.3904
1710.00,4.5530
1709.00,4.7580
1708.00,4.9356
1707.00,4.9595
1706.00,4.8746
1705.00,4.7542
1704.00,4.6910
1703.00,4.8930
1702.00,4.9324
1701.00,4.4574
1700.00,4.2746
1699.00,4.2326
1698.00,4.2302
1697.00,4.2466
1696.00,4.3101
1695.00,4.4375
1694.00,4.4698
1693.00,4.3088
1692.00,4.1278
1691.00,3.9836
1690.00,3.8788
1689.00,3.8059
1688.00,3.7550
1687.00,3.7204
1686.00,3.6992
1685.00,3.6815
1684.00,3.6413
1683.00,3.5635
1682.00,3.4756
1681.00,3.4094
1680.00,3.3729
1679.00,3.3543
1678.00,3.3328
1677.00,3.2960
1676.00,3.2459
1675.00,3.1917
1674.00,3.1385
1673.00,3.0866
1672.00,3.0387
1671.00,2.9980
1670.00,2.9636
1669.00,2.9326
1668.00,2.9053
1667.00,2.8848
1666.00,2.8752
1665.00,2.8795
1664.00,2.8988
1663.00,2.9316
1662.00,2.9701
1661.00,3.0039
1660.00,3.0282
1659.00,3.0483
1658.00,3.0731
1657.00,3.1062
1656.00,3.1428
1655.00,3.1758
1654.00,3.2046
1653.00,3.2336
1652.00,3.2604
1651.00,3.2739
1650.00,3.2766
1649.00,3.2856
1648.00,3.2989
1647.00,3.3048
1646.00,3.3027
1645.00,3.2998
1644.00,3.2992
1643.00,3.3004
1642.00,3.3024
1641.00,3.3020
1640.00,3.2965
1639.00,3.2873
1638.00,3.2790
1637.00,3.2760
1636.00,3.2790
1635.00,3.2820
1634.00,3.2763
1633.00,3.2593
1632.00,3.2397
1631.00,3.2270
1630.00,3.2205
1629.00,3.2147
1628.00,3.2052
1627.00,3.1906
1626.00,3.1728
1625.00,3.1555
1624.00,3.1412
1623.00,3.1277
1622.00,3.1082
1621.00,3.0801
1620.00,3.0487
1619.00,3.0205
1618.00,2.9962
1617.00,2.9704
1616.00,2.9380
1615.00,2.8977
1614.00,2.8536
1613.00,2.8113
1612.00,2.7710
1611.00,2.7294
1610.00,2.6832
1609.00,2.6314
1608.00,2.5758
1607.00,2.5189
1606.00,2.4624
1605.00,2.4064
1604.00,2.3495
1603.00,2.2918
1602.00,2.2360
1601.00,2.1853
1600.00,2.1425
1599.00,2.1092
1598.00,2.0859
1597.00,2.0724
1596.00,2.0688
1595.00,2.0753
1594.00,2.0923
1593.00,2.1190
1592.00,2.1533
1591.00,2.1925
1590.00,2.2344
1589.00,2.2778
1588.00,2.3226
1587.00,2.3693
1586.00,2.4178
1585.00,2.4671
1584.00,2.5159
1583.00,2.5635
1582.00,2.6105
1581.00,2.6571
1580.00,2.7023
1579.00,2.7449
1578.00,2.7849
1577.00,2.8238
1576.00,2.8633
1575.00,2.9026
1574.00,2.9382
1573.00,2.9690
1572.00,2.9970
1571.00,3.0245
1570.00,3.0552
1569.00,3.0889
1568.00,3.1192
1567.00,3.1397
1566.00,3.1518
1565.00,3.1625
1564.00,3.1764
1563.00,3.1918
1562.00,3.2042
1561.00,3.2131
1560.00,3.2227
1559.00,3.2356
1558.00,3.2420
1557.00,3.2454
1556.00,3.2461
1555.00,3.2455
1554.00,3.2495
1553.00,3.2557
1552.00,3.2600
1551.00,3.2623
1550.00,3.2683
1549.00,3.2823
1548.00,3.3007
1547.00,3.3120
1546.00,3.3101
1545.00,3.3003
1544.00,3.2916
1543.00,3.2887
1542.00,3.2891
1541.00,3.2871
1540.00,3.2844
1539.00,3.2882
1538.00,3.2985
1537.00,3.3054
1536.00,3.3072
1535.00,3.3046
1534.00,3.2936
1533.00,3.2735
1532.00,3.2494
1531.00,3.2282
1530.00,3.2121
1529.00,3.1971
1528.00,3.1792
1527.00,3.1583
1526.00,3.1395
1525.00,3.1291
1524.00,3.1258
1523.00,3.1201
1522.00,3.1025
1521.00,3.0725
1520.00,3.0410
1519.00,3.0185
1518.00,3.0030
1517.00,2.9837
1516.00,2.9545
1515.00,2.9210
1514.00,2.8908
1513.00,2.8635
1512.00,2.8331
1511.00,2.7954
1510.00,2.7490
1509.00,2.6950
1508.00,2.6347
1507.00,2.5738
1506.00,2.5276
1505.00,2.5056
1504.00,2.4830
1503.00,2.4455
1502.00,2.4022
1501.00,2.3574
1500.00,2.3128
1499.00,2.2701
1498.00,2.2288
1497.00,2.1893
1496.00,2.1559
1495.00,2.1349
1494.00,2.1294
1493.00,2.1382
1492.00,2.1584
1491.00,2.1853
1490.00,2.2159
1489.00,2.2529
1488.00,2.3049
1487.00,2.3738
1486.00,2.4507
1485.00,2.5258
1484.00,2.5957
1483.00,2.6607
1482.00,2.7222
1481.00,2.7808
1480.00,2.8364
1479.00,2.8890
1478.00,2.9381
1477.00,2.9841
1476.00,3.0277
1475.00,3.0696
1474.00,3.1110
1473.00,3.1546
1472.00,3.2038
1471.00,3.2602
1470.00,3.3188
1469.00,3.3711
1468.00,3.4130
1467.00,3.4470
1466.00,3.4805
1465.00,3.5178
1464.00,3.5532
1463.00,3.5763
1462.00,3.5845
1461.00,3.5843
1460.00,3.5814
1459.00,3.5751
1458.00,3.5712
1457.00,3.5922
1456.00,3.6670
1455.00,3.7965
1454.00,3.9347
1453.00,4.0145
1452.00,4.0140
1451.00,3.9738
1450.00,3.9394
1449.00,3.9239
1448.00,3.9058
1447.00,3.8516
1446.00,3.7543
1445.00,3.6450
1444.00,3.5568
1443.00,3.5024
1442.00,3.4810
1441.00,3.4871
1440.00,3.5150
1439.00,3.5561
1438.00,3.5944
1437.00,3.6127
1436.00,3.6130
1435.00,3.6189
1434.00,3.6497
1433.00,3.7038
1432.00,3.7626
1431.00,3.8064
1430.00,3.8359
1429.00,3.8646
1428.00,3.8993
1427.00,3.9268
1426.00,3.9194
1425.00,3.8839
1424.00,3.8534
1423.00,3.8430
1422.00,3.8467
1421.00,3.8498
1420.00,3.8417
1419.00,3.8124
1418.00,3.7542
1417.00,3.6797
1416.00,3.6137
1415.00,3.5726
1414.00,3.5598
1413.00,3.5680
1412.00,3.5856
1411.00,3.6008
1410.00,3.6000
1409.00,3.5744
1408.00,3.5340
1407.00,3.5015
1406.00,3.4930
1405.00,3.5094
1404.00,3.5377
1403.00,3.5628
1402.00,3.5823
1401.00,3.6020
1400.00,3.6155
1399.00,3.6007
1398.00,3.5502
1397.00,3.4903
1396.00,3.4482
1395.00,3.4346
1394.00,3.4476
1393.00,3.4750
1392.00,3.4992
1391.00,3.5053
1390.00,3.4892
1389.00,3.4557
1388.00,3.4140
1387.00,3.3759
1386.00,3.3515
1385.00,3.3430
1384.00,3.3419
1383.00,3.3367
1382.00,3.3203
1381.00,3.2929
1380.00,3.2606
1379.00,3.2307
1378.00,3.2064
1377.00,3.1851
1376.00,3.1607
1375.00,3.1294
1374.00,3.0933
1373.00,3.0584
1372.00,3.0280
1371.00,2.9996
1370.00,2.9685
1369.00,2.9334
1368.00,2.8965
1367.00,2.8612
1366.00,2.8284
1365.00,2.7962
1364.00,2.7632
1363.00,2.7331
1362.00,2.7158
1361.00,2.7216
1360.00,2.7515
1359.00,2.7968
1358.00,2.8485
1357.00,2.9039
1356.00,2.9667
1355.00,3.0433
1354.00,3.1365
1353.00,3.2422
1352.00,3.3495
1351.00,3.4474
1350.00,3.5318
1349.00,3.6032
1348.00,3.6576
1347.00,3.6843
1346.00,3.6799
1345.00,3.6564
1344.00,3.6323
1343.00,3.6200
1342.00,3.6248
1341.00,3.6481
1340.00,3.6860
1339.00,3.7162
1338.00,3.6946
1337.00,3.6029
1336.00,3.4785
1335.00,3.3659
1334.00,3.2866
1333.00,3.2442
1332.00,3.2327
1331.00,3.2429
1330.00,3.2676
1329.00,3.3045
1328.00,3.3519
1327.00,3.4043
1326.00,3.4530
1325.00,3.4957
1324.00,3.5409
1323.00,3.5982
1322.00,3.6672
1321.00,3.7340
1320.00,3.7862
1319.00,3.8289
1318.00,3.8771
1317.00,3.9371
1316.00,3.9993
1315.00,4.0478
1314.00,4.0810
1313.00,4.1084
1312.00,4.1381
1311.00,4.1663
1310.00,4.1612
1309.00,4.0977
1308.00,3.9935
1307.00,3.8744
1306.00,3.7569
1305.00,3.6502
1304.00,3.5603
1303.00,3.4920
1302.00,3.4487
1301.00,3.4308
1300.00,3.4334
1299.00,3.4455
1298.00,3.4559
1297.00,3.4603
1296.00,3.4622
1295.00,3.4715
1294.00,3.4961
1293.00,3.5340
1292.00,3.5733
1291.00,3.5936
1290.00,3.5902
1289.00,3.5844
1288.00,3.5976
1287.00,3.6378
1286.00,3.6911
1285.00,3.7224
1284.00,3.7043
1283.00,3.6554
1282.00,3.6163
1281.00,3.6057
1280.00,3.6196
1279.00,3.6464
1278.00,3.6785
1277.00,3.7121
1276.00,3.7370
1275.00,3.7369
1274.00,3.7106
1273.00,3.6792
1272.00,3.6614
1271.00,3.6590
1270.00,3.6671
1269.00,3.6869
1268.00,3.7212
1267.00,3.7581
1266.00,3.7720
1265.00,3.7513
1264.00,3.7124
1263.00,3.6763
1262.00,3.6492
1261.00,3.6298
1260.00,3.6228
1259.00,3.6336
1258.00,3.6524
1257.00,3.6595
1256.00,3.6502
1255.00,3.6329
1254.00,3.6098
1253.00,3.5789
1252.00,3.5448
1251.00,3.5185
1250.00,3.5083
1249.00,3.5123
1248.00,3.5193
1247.00,3.5162
1246.00,3.4986
1245.00,3.4769
1244.00,3.4670
1243.00,3.4763
1242.00,3.4986
1241.00,3.5178
1240.00,3.5216
1239.00,3.5152
1238.00,3.5190
1237.00,3.5495
1236.00,3.5975
1235.00,3.6349
1234.00,3.6570
1233.00,3.6814
1232.00,3.7241
1231.00,3.7973
1230.00,3.9075
1229.00,4.0641
1228.00,4.2785
1227.00,4.4952
1226.00,4.7677
1225.00,5.0952
1224.00,4.5672
1223.00,4.4003
1222.00,4.3226
1221.00,4.2674
1220.00,4.2732
1219.00,4.3716
1218.00,4.4170
1217.00,4.2720
1216.00,4.1159
1215.00,4.0019
1214.00,3.9312
1213.00,3.8852
1212.00,3.8439
1211.00,3.7923
1210.00,3.7279
1209.00,3.6609
1208.00,3.6004
1207.00,3.5528
1206.00,3.5168
1205.00,3.4836
1204.00,3.4466
1203.00,3.4078
1202.00,3.3730
1201.00,3.3447
1200.00,3.3211
1199.00,3.2980
1198.00,3.2728
1197.00,3.2496
1196.00,3.2370
1195.00,3.2394
1194.00,3.2529
1193.00,3.2701
1192.00,3.2874
1191.00,3.3058
1190.00,3.3290
1189.00,3.3575
1188.00,3.3858
1187.00,3.4112
1186.00,3.4373
1185.00,3.4618
1184.00,3.4800
1183.00,3.4977
1182.00,3.5257
1181.00,3.5667
1180.00,3.6147
1179.00,3.6569
1178.00,3.6707
1177.00,3.6372
1176.00,3.5793
1175.00,3.5459
1174.00,3.5712
1173.00,3.6651
1172.00,3.8102
1171.00,3.9390
1170.00,3.9517
1169.00,3.8709
1168.00,3.8015
1167.00,3.7814
1166.00,3.7911
1165.00,3.7886
1164.00,3.7576
1163.00,3.7228
1162.00,3.7064
1161.00,3.7075
1160.00,3.7145
1159.00,3.7256
1158.00,3.7518
1157.00,3.7932
1156.00,3.8366
1155.00,3.8906
1154.00,3.9708
1153.00,4.0317
1152.00,4.0382
1151.00,3.9762
1150.00,3.8549
1149.00,3.7733
1148.00,3.7558
1147.00,3.7833
1146.00,3.8550
1145.00,3.9855
1144.00,4.1262
1143.00,4.1253
1142.00,3.9769
1141.00,3.8261
1140.00,3.7574
1139.00,3.7729
1138.00,3.8450
1137.00,3.9186
1136.00,3.9096
1135.00,3.8480
1134.00,3.8070
1133.00,3.8072
1132.00,3.8691
1131.00,4.0011
1130.00,4.1381
1129.00,4.1560
1128.00,4.1366
1127.00,4.1899
1126.00,4.2165
1125.00,4.1409
1124.00,4.1678
1123.00,4.3874
1122.00,4.3834
1121.00,4.1479
1120.00,4.0955
1119.00,4.1756
1118.00,4.2967
1117.00,4.4268
1116.00,4.7193
1115.00,4.7486
1114.00,4.3575
1113.00,4.1494
1112.00,4.0214
1111.00,3.9643
1110.00,3.9716
1109.00,3.9943
1108.00,3.9599
1107.00,3.9001
1106.00,3.9121
1105.00,4.0285
1104.00,4.2432
1103.00,4.3446
1102.00,4.1451
1101.00,4.0245
1100.00,4.0632
1099.00,4.2698
1098.00,4.4853
1097.00,4.3459
1096.00,4.1273
1095.00,3.9669
1094.00,3.8712
1093.00,3.7855
1092.00,3.7167
1091.00,3.7146
1090.00,3.7790
1089.00,3.8514
1088.00,3.8480
1087.00,3.7585
1086.00,3.6593
1085.00,3.6021
1084.00,3.5850
1083.00,3.5818
1082.00,3.5705
1081.00,3.5459
1080.00,3.5103
1079.00,3.4715
1078.00,3.4426
1077.00,3.4341
1076.00,3.4451
1075.00,3.4630
1074.00,3.4752
1073.00,3.4871
1072.00,3.5151
1071.00,3.5541
1070.00,3.5682
1069.00,3.5373
1068.00,3.4956
1067.00,3.4855
1066.00,3.5181
1065.00,3.5823
1064.00,3.6653
1063.00,3.7434
1062.00,3.7728
1061.00,3.7661
1060.00,3.7871
1059.00,3.8544
1058.00,3.9144
1057.00,3.9080
1056.00,3.8662
1055.00,3.8327
1054.00,3.8187
1053.00,3.8154
1052.00,3.8190
1051.00,3.8406
1050.00,3.8763
1049.00,3.9013
1048.00,3.8978
1047.00,3.8674
1046.00,3.8231
1045.00,3.7778
1044.00,3.7452
1043.00,3.7398
1042.00,3.7566
1041.00,3.7619
1040.00,3.7303
1039.00,3.6850
1038.00,3.6615
1037.00,3.6630
1036.00,3.6799
1035.00,3.7178
1034.00,3.7748
1033.00,3.8267
1032.00,3.8413
1031.00,3.8024
1030.00,3.7439
1029.00,3.7196
1028.00,3.7557
1027.00,3.8416
1026.00,3.9308
1025.00,3.9761
1024.00,3.9893
1023.00,4.0079
1022.00,4.0378
1021.00,4.0508
1020.00,4.0211
1019.00,3.9866
1018.00,3.9992
1017.00,4.0638
1016.00,4.1489
1015.00,4.2261
1014.00,4.3019
1013.00,4.4033
1012.00,4.4905
1011.00,4.4349
1010.00,4.3120
1009.00,4.2150
1008.00,4.1520
1007.00,4.1291
1006.00,4.1452
1005.00,4.1898
1004.00,4.2494
1003.00,4.2725
1002.00,4.1656
1001.00,4.0647
1000.00,4.0831
999.00,4.2853
998.00,4.7286
997.00,4.7370
996.00,4.4848
995.00,4.3860
994.00,4.2891
993.00,4.3423
992.00,4.6786
991.00,4.3282
990.00,4.0169
989.00,3.9432
988.00,4.0127
987.00,4.2637
986.00,4.8198
985.00,4.6201
984.00,4.2047
983.00,4.0751
982.00,4.0650
981.00,4.0798
980.00,4.0942
979.00,4.2437
978.00,4.6669
977.00,4.9256
976.00,4.9450
975.00,4.5613
974.00,4.1558
973.00,3.9699
972.00,3.9144
971.00,3.9661
970.00,4.0918
969.00,4.2096
968.00,4.2788
967.00,4.3379
966.00,4.3957
965.00,4.3735
964.00,4.2406
963.00,4.1173
962.00,4.0730
961.00,4.0955
960.00,4.1510
959.00,4.2403
958.00,4.3929
957.00,4.4847
956.00,4.4570
955.00,4.4893
954.00,4.4545
953.00,4.2677
952.00,4.0614
951.00,3.9008
950.00,3.8206
949.00,3.8158
948.00,3.8571
947.00,3.9131
946.00,3.9430
945.00,3.9052
944.00,3.8432
943.00,3.8267
942.00,3.8578
941.00,3.8925
940.00,3.9254
939.00,4.0086
938.00,4.1305
937.00,4.2004
936.00,4.2397
935.00,4.3175
934.00,4.4510
933.00,4.5642
932.00,4.5232
931.00,4.3285
930.00,4.1281
929.00,4.0370
928.00,4.0203
927.00,4.0257
926.00,4.0750
925.00,4.1988
924.00,4.3207
923.00,4.3178
922.00,4.2705
921.00,4.1944
920.00,4.1038
919.00,4.0721
918.00,4.0892
917.00,4.0782
916.00,4.0038
915.00,3.9310
914.00,3.9039
913.00,3.9513
912.00,4.0553
911.00,4.3110
910.00,4.4889
909.00,4.0928
908.00,3.9541
907.00,3.9871
906.00,4.0588
905.00,4.1012
904.00,4.1053
903.00,4.1312
902.00,4.1814
901.00,4.2736
900.00,4.4038
899.00,4.5004
898.00,4.4307
897.00,4.2984
896.00,4.3214
895.00,4.5018
894.00,4.3311
893.00,4.0499
892.00,3.8823
891.00,3.8093
890.00,3.8601
889.00,4.0525
888.00,4.1822
887.00,4.0846
886.00,4.0427
885.00,4.1643
884.00,4.5366
883.00,4.5968
882.00,4.2781
881.00,4.1028
880.00,3.9801
879.00,3.9428
878.00,4.0041
877.00,4.1644
876.00,4.3195
875.00,4.2380
874.00,4.0861
873.00,3.9982
872.00,3.9691
871.00,4.0244
870.00,4.1388
869.00,4.1102
868.00,4.0100
867.00,4.0483
866.00,4.1303
865.00,4.0788
864.00,4.0484
863.00,4.2080
862.00,4.6436
861.00,4.7256
860.00,4.4512
859.00,4.2564
858.00,4.0394
857.00,3.9874
856.00,4.0655
855.00,4.4034
854.00,5.1047
853.00,4.2747
852.00,4.1134
851.00,4.1389
850.00,4.2500
849.00,4.3798
848.00,4.1973
847.00,4.1222
846.00,4.1484
845.00,4.2392
844.00,4.5226
843.00,4.4416
842.00,4.1674
841.00,4.0784
840.00,4.2375
839.00,4.4831
838.00,4.0561
837.00,3.8896
836.00,3.9699
835.00,4.2395
834.00,4.3458
833.00,4.1420
832.00,4.1368
831.00,4.3804
830.00,4.6422
829.00,4.2930
828.00,4.2731
827.00,4.2688
826.00,4.0736
825.00,4.0076
824.00,4.1567
823.00,4.7428
822.00,4.5714
821.00,4.1813
820.00,4.1235
819.00,4.1724
818.00,4.1284
817.00,4.0399
816.00,4.0635
815.00,4.1706
814.00,4.2729
813.00,4.2741
812.00,4.2624
811.00,4.3356
810.00,4.4900
809.00,4.6061
808.00,4.5685
807.00,4.4837
806.00,4.5391
805.00,4.6719
804.00,4.5013
803.00,4.3086
802.00,4.3000
801.00,4.5760
800.00,4.6200
799.00,4.2894
798.00,4.2311
797.00,4.2275
796.00,4.1615
795.00,4.1533
794.00,4.1664
793.00,4.1508
792.00,4.1227
791.00,4.2528
790.00,4.5456
789.00,4.3515
788.00,4.2341
787.00,4.3020
786.00,4.4500
785.00,4.5102
784.00,4.1483
783.00,3.8911
782.00,3.7925
781.00,3.8089
780.00,3.9080
779.00,4.0306
778.00,4.1153
777.00,4.1741
776.00,4.2037
775.00,4.2334
774.00,4.2334
773.00,4.0787
772.00,3.9243
771.00,3.8525
770.00,3.8539
769.00,3.9779
768.00,4.0877
767.00,3.9319
766.00,3.7969
765.00,3.8117
764.00,3.9371
763.00,4.2086
762.00,4.6426
761.00,4.2303
760.00,3.9250
759.00,3.8637
758.00,3.9532
757.00,4.1938
756.00,4.4475
755.00,4.3037
754.00,4.0663
753.00,3.9835
752.00,4.0676
751.00,4.2610
750.00,4.2135
749.00,4.0629
748.00,3.9641
747.00,3.8795
746.00,3.8725
745.00,3.9885
744.00,4.2007
743.00,4.4521
742.00,4.4557
741.00,4.1714
740.00,4.0359
739.00,4.0382
738.00,4.0833
737.00,4.0443
736.00,3.9547
735.00,3.9474
734.00,4.0621
733.00,4.1849
732.00,4.2017
731.00,4.2427
730.00,4.4949
729.00,5.1130
728.00,4.6641
727.00,4.6127
726.00,4.6451
725.00,4.2688
724.00,4.0884
723.00,4.0414
722.00,4.0782
721.00,4.2409
720.00,4.3917
719.00,4.1940
718.00,3.9951
717.00,3.8944
716.00,3.9071
715.00,4.0805
714.00,4.3536
713.00,4.5076
712.00,4.5976
711.00,4.6497
710.00,4.5958
709.00,4.5222
708.00,4.3762
707.00,4.2863
706.00,4.3267
705.00,4.4589
704.00,4.6636
703.00,4.7154
702.00,4.6185
701.00,4.5350
700.00,4.3279
