Created as New Dataset,Sample 117 By Administrator Date Wednesday, November 24 2021
cm-1,A
7502.00,1.1716
7501.00,1.1736
7500.00,1.1746
7499.00,1.1746
7498.00,1.1739
7497.00,1.1732
7496.00,1.1731
7495.00,1.1737
7494.00,1.1748
7493.00,1.1759
7492.00,1.1765
7491.00,1.1761
7490.00,1.1746
7489.00,1.1727
7488.00,1.1709
7487.00,1.1688
7486.00,1.1659
7485.00,1.1617
7484.00,1.1565
7483.00,1.1505
7482.00,1.1445
7481.00,1.1390
7480.00,1.1340
7479.00,1.1290
7478.00,1.1235
7477.00,1.1179
7476.00,1.1128
7475.00,1.1078
7474.00,1.1021
7473.00,1.0954
7472.00,1.0885
7471.00,1.0815
7470.00,1.0742
7469.00,1.0661
7468.00,1.0574
7467.00,1.0484
7466.00,1.0394
7465.00,1.0302
7464.00,1.0208
7463.00,1.0113
7462.00,1.0016
7461.00,0.9918
7460.00,0.9822
7459.00,0.9730
7458.00,0.9639
7457.00,0.9545
7456.00,0.9446
7455.00,0.9346
7454.00,0.9251
7453.00,0.9163
7452.00,0.9079
7451.00,0.8991
7450.00,0.8897
7449.00,0.8804
7448.00,0.8717
7447.00,0.8639
7446.00,0.8565
7445.00,0.8494
7444.00,0.8425
7443.00,0.8363
7442.00,0.8305
7441.00,0.8250
7440.00,0.8195
7439.00,0.8143
7438.00,0.8096
7437.00,0.8052
7436.00,0.8014
7435.00,0.7982
7434.00,0.7959
7433.00,0.7941
7432.00,0.7927
7431.00,0.7917
7430.00,0.7911
7429.00,0.7911
7428.00,0.7914
7427.00,0.7922
7426.00,0.7937
7425.00,0.7959
7424.00,0.7988
7423.00,0.8023
7422.00,0.8063
7421.00,0.8108
7420.00,0.8157
7419.00,0.8207
7418.00,0.8254
7417.00,0.8301
7416.00,0.8352
7415.00,0.8409
7414.00,0.8473
7413.00,0.8541
7412.00,0.8611
7411.00,0.8684
7410.00,0.8761
7409.00,0.8839
7408.00,0.8917
7407.00,0.8996
7406.00,0.9075
7405.00,0.9155
7404.00,0.9235
7403.00,0.9312
7402.00,0.9389
7401.00,0.9464
7400.00,0.9537
7399.00,0.9610
7398.00,0.9680
7397.00,0.9752
7396.00,0.9828
7395.00,0.9906
7394.00,0.9985
7393.00,1.0061
7392.00,1.0132
7391.00,1.0203
7390.00,1.0277
7389.00,1.0355
7388.00,1.0433
7387.00,1.0507
7386.00,1.0576
7385.00,1.0639
7384.00,1.0698
7383.00,1.0750
7382.00,1.0795
7381.00,1.0837
7380.00,1.0882
7379.00,1.0932
7378.00,1.0986
7377.00,1.1036
7376.00,1.1074
7375.00,1.1100
7374.00,1.1113
7373.00,1.1119
7372.00,1.1119
7371.00,1.1115
7370.00,1.1107
7369.00,1.1095
7368.00,1.1084
7367.00,1.1074
7366.00,1.1066
7365.00,1.1057
7364.00,1.1041
7363.00,1.1019
7362.00,1.0996
7361.00,1.0979
7360.00,1.0967
7359.00,1.0957
7358.00,1.0944
7357.00,1.0931
7356.00,1.0923
7355.00,1.0926
7354.00,1.0941
7353.00,1.0963
7352.00,1.0983
7351.00,1.0990
7350.00,1.0976
7349.00,1.0940
7348.00,1.0886
7347.00,1.0817
7346.00,1.0738
7345.00,1.0662
7344.00,1.0602
7343.00,1.0561
7342.00,1.0531
7341.00,1.0502
7340.00,1.0470
7339.00,1.0432
7338.00,1.0384
7337.00,1.0322
7336.00,1.0249
7335.00,1.0174
7334.00,1.0102
7333.00,1.0034
7332.00,0.9967
7331.00,0.9901
7330.00,0.9833
7329.00,0.9761
7328.00,0.9684
7327.00,0.9602
7326.00,0.9518
7325.00,0.9431
7324.00,0.9346
7323.00,0.9266
7322.00,0.9190
7321.00,0.9115
7320.00,0.9039
7319.00,0.8960
7318.00,0.8880
7317.00,0.8799
7316.00,0.8718
7315.00,0.8642
7314.00,0.8573
7313.00,0.8511
7312.00,0.8450
7311.00,0.8387
7310.00,0.8323
7309.00,0.8258
7308.00,0.8193
7307.00,0.8130
7306.00,0.8070
7305.00,0.8016
7304.00,0.7970
7303.00,0.7931
7302.00,0.7902
7301.00,0.7880
7300.00,0.7862
7299.00,0.7847
7298.00,0.7833
7297.00,0.7824
7296.00,0.7822
7295.00,0.7826
7294.00,0.7832
7293.00,0.7839
7292.00,0.7849
7291.00,0.7867
7290.00,0.7891
7289.00,0.7920
7288.00,0.7956
7287.00,0.7997
7286.00,0.8046
7285.00,0.8099
7284.00,0.8154
7283.00,0.8211
7282.00,0.8269
7281.00,0.8331
7280.00,0.8397
7279.00,0.8466
7278.00,0.8539
7277.00,0.8618
7276.00,0.8701
7275.00,0.8787
7274.00,0.8873
7273.00,0.8957
7272.00,0.9040
7271.00,0.9124
7270.00,0.9213
7269.00,0.9304
7268.00,0.9395
7267.00,0.9485
7266.00,0.9574
7265.00,0.9665
7264.00,0.9758
7263.00,0.9849
7262.00,0.9937
7261.00,1.0025
7260.00,1.0117
7259.00,1.0213
7258.00,1.0304
7257.00,1.0387
7256.00,1.0464
7255.00,1.0541
7254.00,1.0619
7253.00,1.0694
7252.00,1.0768
7251.00,1.0844
7250.00,1.0923
7249.00,1.1004
7248.00,1.1078
7247.00,1.1145
7246.00,1.1208
7245.00,1.1269
7244.00,1.1331
7243.00,1.1392
7242.00,1.1455
7241.00,1.1517
7240.00,1.1577
7239.00,1.1629
7238.00,1.1674
7237.00,1.1715
7236.00,1.1752
7235.00,1.1784
7234.00,1.1812
7233.00,1.1839
7232.00,1.1864
7231.00,1.1884
7230.00,1.1895
7229.00,1.1901
7228.00,1.1905
7227.00,1.1908
7226.00,1.1908
7225.00,1.1905
7224.00,1.1904
7223.00,1.1906
7222.00,1.1907
7221.00,1.1903
7220.00,1.1894
7219.00,1.1880
7218.00,1.1858
7217.00,1.1824
7216.00,1.1783
7215.00,1.1741
7214.00,1.1698
7213.00,1.1650
7212.00,1.1597
7211.00,1.1547
7210.00,1.1501
7209.00,1.1456
7208.00,1.1406
7207.00,1.1348
7206.00,1.1283
7205.00,1.1209
7204.00,1.1129
7203.00,1.1047
7202.00,1.0967
7201.00,1.0890
7200.00,1.0810
7199.00,1.0725
7198.00,1.0638
7197.00,1.0550
7196.00,1.0459
7195.00,1.0364
7194.00,1.0262
7193.00,1.0156
7192.00,1.0047
7191.00,0.9942
7190.00,0.9843
7189.00,0.9748
7188.00,0.9653
7187.00,0.9556
7186.00,0.9462
7185.00,0.9372
7184.00,0.9282
7183.00,0.9190
7182.00,0.9094
7181.00,0.8996
7180.00,0.8897
7179.00,0.8799
7178.00,0.8706
7177.00,0.8621
7176.00,0.8542
7175.00,0.8467
7174.00,0.8398
7173.00,0.8334
7172.00,0.8277
7171.00,0.8223
7170.00,0.8171
7169.00,0.8123
7168.00,0.8080
7167.00,0.8041
7166.00,0.8004
7165.00,0.7971
7164.00,0.7942
7163.00,0.7918
7162.00,0.7898
7161.00,0.7885
7160.00,0.7879
7159.00,0.7880
7158.00,0.7888
7157.00,0.7903
7156.00,0.7926
7155.00,0.7955
7154.00,0.7990
7153.00,0.8026
7152.00,0.8064
7151.00,0.8106
7150.00,0.8155
7149.00,0.8211
7148.00,0.8269
7147.00,0.8328
7146.00,0.8391
7145.00,0.8459
7144.00,0.8530
7143.00,0.8603
7142.00,0.8675
7141.00,0.8748
7140.00,0.8824
7139.00,0.8904
7138.00,0.8987
7137.00,0.9073
7136.00,0.9160
7135.00,0.9248
7134.00,0.9334
7133.00,0.9419
7132.00,0.9504
7131.00,0.9591
7130.00,0.9679
7129.00,0.9768
7128.00,0.9856
7127.00,0.9945
7126.00,1.0036
7125.00,1.0127
7124.00,1.0214
7123.00,1.0293
7122.00,1.0366
7121.00,1.0439
7120.00,1.0514
7119.00,1.0591
7118.00,1.0668
7117.00,1.0745
7116.00,1.0822
7115.00,1.0902
7114.00,1.0981
7113.00,1.1054
7112.00,1.1121
7111.00,1.1183
7110.00,1.1243
7109.00,1.1297
7108.00,1.1346
7107.00,1.1394
7106.00,1.1444
7105.00,1.1496
7104.00,1.1544
7103.00,1.1585
7102.00,1.1623
7101.00,1.1660
7100.00,1.1694
7099.00,1.1719
7098.00,1.1737
7097.00,1.1754
7096.00,1.1774
7095.00,1.1793
7094.00,1.1806
7093.00,1.1814
7092.00,1.1820
7091.00,1.1822
7090.00,1.1819
7089.00,1.1811
7088.00,1.1797
7087.00,1.1778
7086.00,1.1750
7085.00,1.1717
7084.00,1.1682
7083.00,1.1650
7082.00,1.1620
7081.00,1.1593
7080.00,1.1567
7079.00,1.1540
7078.00,1.1509
7077.00,1.1472
7076.00,1.1427
7075.00,1.1375
7074.00,1.1317
7073.00,1.1255
7072.00,1.1190
7071.00,1.1123
7070.00,1.1055
7069.00,1.0985
7068.00,1.0915
7067.00,1.0843
7066.00,1.0769
7065.00,1.0692
7064.00,1.0613
7063.00,1.0532
7062.00,1.0448
7061.00,1.0357
7060.00,1.0262
7059.00,1.0166
7058.00,1.0073
7057.00,0.9980
7056.00,0.9885
7055.00,0.9787
7054.00,0.9687
7053.00,0.9589
7052.00,0.9492
7051.00,0.9396
7050.00,0.9301
7049.00,0.9205
7048.00,0.9109
7047.00,0.9014
7046.00,0.8919
7045.00,0.8828
7044.00,0.8739
7043.00,0.8653
7042.00,0.8572
7041.00,0.8495
7040.00,0.8423
7039.00,0.8353
7038.00,0.8285
7037.00,0.8219
7036.00,0.8156
7035.00,0.8100
7034.00,0.8052
7033.00,0.8011
7032.00,0.7975
7031.00,0.7941
7030.00,0.7912
7029.00,0.7888
7028.00,0.7868
7027.00,0.7852
7026.00,0.7840
7025.00,0.7835
7024.00,0.7838
7023.00,0.7849
7022.00,0.7865
7021.00,0.7886
7020.00,0.7913
7019.00,0.7945
7018.00,0.7983
7017.00,0.8028
7016.00,0.8076
7015.00,0.8128
7014.00,0.8183
7013.00,0.8243
7012.00,0.8309
7011.00,0.8378
7010.00,0.8450
7009.00,0.8522
7008.00,0.8597
7007.00,0.8674
7006.00,0.8756
7005.00,0.8840
7004.00,0.8926
7003.00,0.9012
7002.00,0.9099
7001.00,0.9189
7000.00,0.9281
6999.00,0.9373
6998.00,0.9463
6997.00,0.9555
6996.00,0.9649
6995.00,0.9744
6994.00,0.9838
6993.00,0.9930
6992.00,1.0022
6991.00,1.0114
6990.00,1.0205
6989.00,1.0295
6988.00,1.0385
6987.00,1.0476
6986.00,1.0564
6985.00,1.0646
6984.00,1.0722
6983.00,1.0798
6982.00,1.0880
6981.00,1.0965
6980.00,1.1050
6979.00,1.1131
6978.00,1.1211
6977.00,1.1287
6976.00,1.1356
6975.00,1.1417
6974.00,1.1473
6973.00,1.1532
6972.00,1.1594
6971.00,1.1657
6970.00,1.1718
6969.00,1.1776
6968.00,1.1832
6967.00,1.1882
6966.00,1.1922
6965.00,1.1954
6964.00,1.1981
6963.00,1.2005
6962.00,1.2025
6961.00,1.2039
6960.00,1.2049
6959.00,1.2058
6958.00,1.2068
6957.00,1.2079
6956.00,1.2090
6955.00,1.2099
6954.00,1.2101
6953.00,1.2095
6952.00,1.2081
6951.00,1.2060
6950.00,1.2032
6949.00,1.1997
6948.00,1.1961
6947.00,1.1929
6946.00,1.1903
6945.00,1.1878
6944.00,1.1846
6943.00,1.1808
6942.00,1.1767
6941.00,1.1723
6940.00,1.1673
6939.00,1.1614
6938.00,1.1549
6937.00,1.1480
6936.00,1.1407
6935.00,1.1328
6934.00,1.1245
6933.00,1.1159
6932.00,1.1071
6931.00,1.0983
6930.00,1.0896
6929.00,1.0810
6928.00,1.0720
6927.00,1.0626
6926.00,1.0529
6925.00,1.0432
6924.00,1.0334
6923.00,1.0237
6922.00,1.0138
6921.00,1.0038
6920.00,0.9936
6919.00,0.9830
6918.00,0.9722
6917.00,0.9613
6916.00,0.9506
6915.00,0.9401
6914.00,0.9299
6913.00,0.9200
6912.00,0.9103
6911.00,0.9006
6910.00,0.8910
6909.00,0.8817
6908.00,0.8727
6907.00,0.8641
6906.00,0.8557
6905.00,0.8478
6904.00,0.8404
6903.00,0.8334
6902.00,0.8267
6901.00,0.8202
6900.00,0.8140
6899.00,0.8084
6898.00,0.8034
6897.00,0.7991
6896.00,0.7952
6895.00,0.7919
6894.00,0.7892
6893.00,0.7872
6892.00,0.7859
6891.00,0.7850
6890.00,0.7847
6889.00,0.7849
6888.00,0.7856
6887.00,0.7868
6886.00,0.7886
6885.00,0.7911
6884.00,0.7942
6883.00,0.7978
6882.00,0.8022
6881.00,0.8073
6880.00,0.8129
6879.00,0.8189
6878.00,0.8252
6877.00,0.8318
6876.00,0.8388
6875.00,0.8461
6874.00,0.8537
6873.00,0.8614
6872.00,0.8692
6871.00,0.8773
6870.00,0.8857
6869.00,0.8944
6868.00,0.9035
6867.00,0.9128
6866.00,0.9222
6865.00,0.9317
6864.00,0.9410
6863.00,0.9501
6862.00,0.9590
6861.00,0.9679
6860.00,0.9769
6859.00,0.9861
6858.00,0.9956
6857.00,1.0052
6856.00,1.0148
6855.00,1.0241
6854.00,1.0332
6853.00,1.0424
6852.00,1.0515
6851.00,1.0604
6850.00,1.0690
6849.00,1.0775
6848.00,1.0858
6847.00,1.0938
6846.00,1.1015
6845.00,1.1089
6844.00,1.1160
6843.00,1.1230
6842.00,1.1297
6841.00,1.1361
6840.00,1.1425
6839.00,1.1487
6838.00,1.1548
6837.00,1.1608
6836.00,1.1666
6835.00,1.1722
6834.00,1.1772
6833.00,1.1815
6832.00,1.1851
6831.00,1.1885
6830.00,1.1917
6829.00,1.1949
6828.00,1.1978
6827.00,1.2003
6826.00,1.2021
6825.00,1.2034
6824.00,1.2043
6823.00,1.2049
6822.00,1.2053
6821.00,1.2054
6820.00,1.2054
6819.00,1.2053
6818.00,1.2050
6817.00,1.2044
6816.00,1.2030
6815.00,1.2010
6814.00,1.1983
6813.00,1.1953
6812.00,1.1920
6811.00,1.1885
6810.00,1.1847
6809.00,1.1805
6808.00,1.1758
6807.00,1.1707
6806.00,1.1652
6805.00,1.1594
6804.00,1.1532
6803.00,1.1466
6802.00,1.1398
6801.00,1.1330
6800.00,1.1259
6799.00,1.1185
6798.00,1.1107
6797.00,1.1023
6796.00,1.0934
6795.00,1.0839
6794.00,1.0739
6793.00,1.0639
6792.00,1.0541
6791.00,1.0446
6790.00,1.0350
6789.00,1.0252
6788.00,1.0155
6787.00,1.0057
6786.00,0.9957
6785.00,0.9854
6784.00,0.9748
6783.00,0.9643
6782.00,0.9540
6781.00,0.9438
6780.00,0.9335
6779.00,0.9231
6778.00,0.9128
6777.00,0.9026
6776.00,0.8924
6775.00,0.8821
6774.00,0.8723
6773.00,0.8632
6772.00,0.8547
6771.00,0.8464
6770.00,0.8385
6769.00,0.8310
6768.00,0.8239
6767.00,0.8170
6766.00,0.8104
6765.00,0.8043
6764.00,0.7988
6763.00,0.7939
6762.00,0.7893
6761.00,0.7854
6760.00,0.7820
6759.00,0.7794
6758.00,0.7774
6757.00,0.7760
6756.00,0.7753
6755.00,0.7753
6754.00,0.7760
6753.00,0.7772
6752.00,0.7789
6751.00,0.7811
6750.00,0.7838
6749.00,0.7873
6748.00,0.7914
6747.00,0.7960
6746.00,0.8010
6745.00,0.8064
6744.00,0.8124
6743.00,0.8189
6742.00,0.8259
6741.00,0.8334
6740.00,0.8411
6739.00,0.8492
6738.00,0.8576
6737.00,0.8661
6736.00,0.8746
6735.00,0.8829
6734.00,0.8914
6733.00,0.9002
6732.00,0.9094
6731.00,0.9188
6730.00,0.9283
6729.00,0.9381
6728.00,0.9482
6727.00,0.9584
6726.00,0.9686
6725.00,0.9788
6724.00,0.9888
6723.00,0.9986
6722.00,1.0083
6721.00,1.0178
6720.00,1.0274
6719.00,1.0371
6718.00,1.0469
6717.00,1.0569
6716.00,1.0668
6715.00,1.0767
6714.00,1.0864
6713.00,1.0956
6712.00,1.1043
6711.00,1.1123
6710.00,1.1198
6709.00,1.1270
6708.00,1.1343
6707.00,1.1417
6706.00,1.1493
6705.00,1.1569
6704.00,1.1643
6703.00,1.1713
6702.00,1.1778
6701.00,1.1836
6700.00,1.1889
6699.00,1.1939
6698.00,1.1986
6697.00,1.2031
6696.00,1.2073
6695.00,1.2109
6694.00,1.2141
6693.00,1.2168
6692.00,1.2191
6691.00,1.2211
6690.00,1.2227
6689.00,1.2239
6688.00,1.2250
6687.00,1.2260
6686.00,1.2269
6685.00,1.2274
6684.00,1.2275
6683.00,1.2274
6682.00,1.2268
6681.00,1.2257
6680.00,1.2237
6679.00,1.2211
6678.00,1.2181
6677.00,1.2150
6676.00,1.2117
6675.00,1.2081
6674.00,1.2039
6673.00,1.1990
6672.00,1.1934
6671.00,1.1875
6670.00,1.1815
6669.00,1.1755
6668.00,1.1692
6667.00,1.1626
6666.00,1.1556
6665.00,1.1483
6664.00,1.1408
6663.00,1.1330
6662.00,1.1248
6661.00,1.1161
6660.00,1.1070
6659.00,1.0977
6658.00,1.0879
6657.00,1.0774
6656.00,1.0667
6655.00,1.0559
6654.00,1.0454
6653.00,1.0348
6652.00,1.0240
6651.00,1.0130
6650.00,1.0020
6649.00,0.9909
6648.00,0.9797
6647.00,0.9686
6646.00,0.9577
6645.00,0.9470
6644.00,0.9363
6643.00,0.9257
6642.00,0.9154
6641.00,0.9052
6640.00,0.8950
6639.00,0.8850
6638.00,0.8754
6637.00,0.8662
6636.00,0.8571
6635.00,0.8481
6634.00,0.8395
6633.00,0.8315
6632.00,0.8242
6631.00,0.8173
6630.00,0.8108
6629.00,0.8050
6628.00,0.7998
6627.00,0.7952
6626.00,0.7912
6625.00,0.7878
6624.00,0.7850
6623.00,0.7830
6622.00,0.7815
6621.00,0.7805
6620.00,0.7801
6619.00,0.7804
6618.00,0.7814
6617.00,0.7831
6616.00,0.7855
6615.00,0.7885
6614.00,0.7922
6613.00,0.7964
6612.00,0.8009
6611.00,0.8060
6610.00,0.8114
6609.00,0.8174
6608.00,0.8238
6607.00,0.8306
6606.00,0.8379
6605.00,0.8457
6604.00,0.8537
6603.00,0.8619
6602.00,0.8705
6601.00,0.8794
6600.00,0.8887
6599.00,0.8980
6598.00,0.9073
6597.00,0.9167
6596.00,0.9264
6595.00,0.9361
6594.00,0.9459
6593.00,0.9559
6592.00,0.9663
6591.00,0.9767
6590.00,0.9870
6589.00,0.9970
6588.00,1.0069
6587.00,1.0165
6586.00,1.0257
6585.00,1.0348
6584.00,1.0440
6583.00,1.0534
6582.00,1.0628
6581.00,1.0719
6580.00,1.0808
6579.00,1.0896
6578.00,1.0985
6577.00,1.1073
6576.00,1.1156
6575.00,1.1236
6574.00,1.1312
6573.00,1.1387
6572.00,1.1458
6571.00,1.1525
6570.00,1.1588
6569.00,1.1650
6568.00,1.1710
6567.00,1.1768
6566.00,1.1821
6565.00,1.1870
6564.00,1.1915
6563.00,1.1959
6562.00,1.2002
6561.00,1.2040
6560.00,1.2073
6559.00,1.2103
6558.00,1.2134
6557.00,1.2160
6556.00,1.2179
6555.00,1.2190
6554.00,1.2197
6553.00,1.2201
6552.00,1.2202
6551.00,1.2196
6550.00,1.2187
6549.00,1.2176
6548.00,1.2161
6547.00,1.2139
6546.00,1.2111
6545.00,1.2078
6544.00,1.2044
6543.00,1.2013
6542.00,1.1981
6541.00,1.1947
6540.00,1.1908
6539.00,1.1865
6538.00,1.1819
6537.00,1.1768
6536.00,1.1713
6535.00,1.1656
6534.00,1.1598
6533.00,1.1537
6532.00,1.1470
6531.00,1.1396
6530.00,1.1319
6529.00,1.1240
6528.00,1.1157
6527.00,1.1070
6526.00,1.0981
6525.00,1.0894
6524.00,1.0807
6523.00,1.0716
6522.00,1.0621
6521.00,1.0522
6520.00,1.0423
6519.00,1.0324
6518.00,1.0224
6517.00,1.0122
6516.00,1.0018
6515.00,0.9912
6514.00,0.9805
6513.00,0.9697
6512.00,0.9587
6511.00,0.9476
6510.00,0.9366
6509.00,0.9259
6508.00,0.9154
6507.00,0.9049
6506.00,0.8946
6505.00,0.8843
6504.00,0.8743
6503.00,0.8647
6502.00,0.8554
6501.00,0.8467
6500.00,0.8384
6499.00,0.8305
6498.00,0.8230
6497.00,0.8158
6496.00,0.8089
6495.00,0.8025
6494.00,0.7967
6493.00,0.7916
6492.00,0.7871
6491.00,0.7831
6490.00,0.7798
6489.00,0.7771
6488.00,0.7750
6487.00,0.7734
6486.00,0.7726
6485.00,0.7725
6484.00,0.7732
6483.00,0.7745
6482.00,0.7765
6481.00,0.7792
6480.00,0.7825
6479.00,0.7863
6478.00,0.7906
6477.00,0.7955
6476.00,0.8011
6475.00,0.8071
6474.00,0.8136
6473.00,0.8205
6472.00,0.8278
6471.00,0.8355
6470.00,0.8435
6469.00,0.8518
6468.00,0.8605
6467.00,0.8695
6466.00,0.8788
6465.00,0.8884
6464.00,0.8983
6463.00,0.9083
6462.00,0.9185
6461.00,0.9287
6460.00,0.9390
6459.00,0.9494
6458.00,0.9600
6457.00,0.9708
6456.00,0.9815
6455.00,0.9921
6454.00,1.0027
6453.00,1.0133
6452.00,1.0237
6451.00,1.0338
6450.00,1.0438
6449.00,1.0537
6448.00,1.0637
6447.00,1.0740
6446.00,1.0842
6445.00,1.0939
6444.00,1.1032
6443.00,1.1125
6442.00,1.1218
6441.00,1.1309
6440.00,1.1396
6439.00,1.1480
6438.00,1.1565
6437.00,1.1648
6436.00,1.1725
6435.00,1.1796
6434.00,1.1864
6433.00,1.1931
6432.00,1.1997
6431.00,1.2060
6430.00,1.2120
6429.00,1.2177
6428.00,1.2226
6427.00,1.2267
6426.00,1.2304
6425.00,1.2338
6424.00,1.2369
6423.00,1.2398
6422.00,1.2429
6421.00,1.2458
6420.00,1.2481
6419.00,1.2498
6418.00,1.2510
6417.00,1.2520
6416.00,1.2524
6415.00,1.2521
6414.00,1.2511
6413.00,1.2500
6412.00,1.2488
6411.00,1.2472
6410.00,1.2451
6409.00,1.2424
6408.00,1.2394
6407.00,1.2362
6406.00,1.2326
6405.00,1.2284
6404.00,1.2235
6403.00,1.2182
6402.00,1.2127
6401.00,1.2073
6400.00,1.2017
6399.00,1.1957
6398.00,1.1891
6397.00,1.1822
6396.00,1.1750
6395.00,1.1675
6394.00,1.1595
6393.00,1.1510
6392.00,1.1419
6391.00,1.1324
6390.00,1.1224
6389.00,1.1121
6388.00,1.1014
6387.00,1.0905
6386.00,1.0796
6385.00,1.0685
6384.00,1.0572
6383.00,1.0457
6382.00,1.0343
6381.00,1.0230
6380.00,1.0117
6379.00,1.0002
6378.00,0.9888
6377.00,0.9774
6376.00,0.9659
6375.00,0.9542
6374.00,0.9424
6373.00,0.9307
6372.00,0.9191
6371.00,0.9078
6370.00,0.8968
6369.00,0.8861
6368.00,0.8757
6367.00,0.8658
6366.00,0.8564
6365.00,0.8474
6364.00,0.8389
6363.00,0.8305
6362.00,0.8226
6361.00,0.8153
6360.00,0.8085
6359.00,0.8023
6358.00,0.7966
6357.00,0.7914
6356.00,0.7870
6355.00,0.7832
6354.00,0.7802
6353.00,0.7779
6352.00,0.7763
6351.00,0.7755
6350.00,0.7754
6349.00,0.7759
6348.00,0.7770
6347.00,0.7788
6346.00,0.7814
6345.00,0.7847
6344.00,0.7887
6343.00,0.7932
6342.00,0.7982
6341.00,0.8038
6340.00,0.8099
6339.00,0.8164
6338.00,0.8235
6337.00,0.8312
6336.00,0.8394
6335.00,0.8480
6334.00,0.8569
6333.00,0.8660
6332.00,0.8752
6331.00,0.8845
6330.00,0.8940
6329.00,0.9040
6328.00,0.9141
6327.00,0.9241
6326.00,0.9342
6325.00,0.9445
6324.00,0.9551
6323.00,0.9656
6322.00,0.9761
6321.00,0.9867
6320.00,0.9976
6319.00,1.0086
6318.00,1.0195
6317.00,1.0301
6316.00,1.0404
6315.00,1.0504
6314.00,1.0604
6313.00,1.0704
6312.00,1.0803
6311.00,1.0900
6310.00,1.0997
6309.00,1.1094
6308.00,1.1190
6307.00,1.1280
6306.00,1.1366
6305.00,1.1447
6304.00,1.1526
6303.00,1.1603
6302.00,1.1679
6301.00,1.1752
6300.00,1.1821
6299.00,1.1886
6298.00,1.1945
6297.00,1.1999
6296.00,1.2050
6295.00,1.2099
6294.00,1.2145
6293.00,1.2189
6292.00,1.2231
6291.00,1.2271
6290.00,1.2307
6289.00,1.2335
6288.00,1.2357
6287.00,1.2375
6286.00,1.2391
6285.00,1.2405
6284.00,1.2414
6283.00,1.2418
6282.00,1.2419
6281.00,1.2417
6280.00,1.2411
6279.00,1.2401
6278.00,1.2389
6277.00,1.2378
6276.00,1.2365
6275.00,1.2349
6274.00,1.2325
6273.00,1.2295
6272.00,1.2260
6271.00,1.2219
6270.00,1.2174
6269.00,1.2125
6268.00,1.2073
6267.00,1.2020
6266.00,1.1965
6265.00,1.1906
6264.00,1.1843
6263.00,1.1778
6262.00,1.1710
6261.00,1.1638
6260.00,1.1560
6259.00,1.1476
6258.00,1.1391
6257.00,1.1303
6256.00,1.1214
6255.00,1.1121
6254.00,1.1025
6253.00,1.0928
6252.00,1.0828
6251.00,1.0726
6250.00,1.0621
6249.00,1.0514
6248.00,1.0405
6247.00,1.0293
6246.00,1.0180
6245.00,1.0066
6244.00,0.9950
6243.00,0.9833
6242.00,0.9715
6241.00,0.9596
6240.00,0.9477
6239.00,0.9358
6238.00,0.9240
6237.00,0.9126
6236.00,0.9016
6235.00,0.8909
6234.00,0.8804
6233.00,0.8703
6232.00,0.8603
6231.00,0.8505
6230.00,0.8411
6229.00,0.8322
6228.00,0.8237
6227.00,0.8158
6226.00,0.8085
6225.00,0.8019
6224.00,0.7957
6223.00,0.7900
6222.00,0.7850
6221.00,0.7807
6220.00,0.7771
6219.00,0.7743
6218.00,0.7724
6217.00,0.7712
6216.00,0.7708
6215.00,0.7708
6214.00,0.7714
6213.00,0.7727
6212.00,0.7747
6211.00,0.7775
6210.00,0.7810
6209.00,0.7853
6208.00,0.7903
6207.00,0.7958
6206.00,0.8017
6205.00,0.8081
6204.00,0.8149
6203.00,0.8224
6202.00,0.8304
6201.00,0.8389
6200.00,0.8479
6199.00,0.8572
6198.00,0.8669
6197.00,0.8770
6196.00,0.8872
6195.00,0.8975
6194.00,0.9080
6193.00,0.9187
6192.00,0.9293
6191.00,0.9399
6190.00,0.9508
6189.00,0.9618
6188.00,0.9730
6187.00,0.9842
6186.00,0.9953
6185.00,1.0066
6184.00,1.0179
6183.00,1.0290
6182.00,1.0399
6181.00,1.0508
6180.00,1.0617
6179.00,1.0724
6178.00,1.0828
6177.00,1.0929
6176.00,1.1030
6175.00,1.1131
6174.00,1.1231
6173.00,1.1330
6172.00,1.1426
6171.00,1.1522
6170.00,1.1616
6169.00,1.1707
6168.00,1.1795
6167.00,1.1880
6166.00,1.1960
6165.00,1.2036
6164.00,1.2106
6163.00,1.2170
6162.00,1.2232
6161.00,1.2290
6160.00,1.2345
6159.00,1.2398
6158.00,1.2449
6157.00,1.2497
6156.00,1.2540
6155.00,1.2579
6154.00,1.2613
6153.00,1.2644
6152.00,1.2671
6151.00,1.2695
6150.00,1.2717
6149.00,1.2736
6148.00,1.2749
6147.00,1.2756
6146.00,1.2759
6145.00,1.2758
6144.00,1.2751
6143.00,1.2737
6142.00,1.2718
6141.00,1.2698
6140.00,1.2675
6139.00,1.2648
6138.00,1.2615
6137.00,1.2580
6136.00,1.2541
6135.00,1.2497
6134.00,1.2446
6133.00,1.2388
6132.00,1.2325
6131.00,1.2262
6130.00,1.2201
6129.00,1.2140
6128.00,1.2074
6127.00,1.2001
6126.00,1.1920
6125.00,1.1832
6124.00,1.1741
6123.00,1.1647
6122.00,1.1552
6121.00,1.1456
6120.00,1.1359
6119.00,1.1260
6118.00,1.1157
6117.00,1.1051
6116.00,1.0940
6115.00,1.0826
6114.00,1.0709
6113.00,1.0589
6112.00,1.0465
6111.00,1.0339
6110.00,1.0211
6109.00,1.0086
6108.00,0.9961
6107.00,0.9838
6106.00,0.9713
6105.00,0.9587
6104.00,0.9461
6103.00,0.9337
6102.00,0.9215
6101.00,0.9096
6100.00,0.8979
6099.00,0.8866
6098.00,0.8756
6097.00,0.8648
6096.00,0.8544
6095.00,0.8443
6094.00,0.8349
6093.00,0.8261
6092.00,0.8177
6091.00,0.8098
6090.00,0.8025
6089.00,0.7959
6088.00,0.7899
6087.00,0.7846
6086.00,0.7800
6085.00,0.7761
6084.00,0.7730
6083.00,0.7707
6082.00,0.7691
6081.00,0.7684
6080.00,0.7684
6079.00,0.7693
6078.00,0.7709
6077.00,0.7733
6076.00,0.7764
6075.00,0.7800
6074.00,0.7844
6073.00,0.7894
6072.00,0.7951
6071.00,0.8013
6070.00,0.8080
6069.00,0.8152
6068.00,0.8228
6067.00,0.8309
6066.00,0.8393
6065.00,0.8482
6064.00,0.8574
6063.00,0.8670
6062.00,0.8769
6061.00,0.8871
6060.00,0.8975
6059.00,0.9080
6058.00,0.9186
6057.00,0.9294
6056.00,0.9403
6055.00,0.9515
6054.00,0.9629
6053.00,0.9745
6052.00,0.9863
6051.00,0.9979
6050.00,1.0093
6049.00,1.0204
6048.00,1.0314
6047.00,1.0422
6046.00,1.0531
6045.00,1.0641
6044.00,1.0751
6043.00,1.0858
6042.00,1.0963
6041.00,1.1067
6040.00,1.1169
6039.00,1.1269
6038.00,1.1367
6037.00,1.1464
6036.00,1.1560
6035.00,1.1651
6034.00,1.1737
6033.00,1.1818
6032.00,1.1895
6031.00,1.1971
6030.00,1.2048
6029.00,1.2123
6028.00,1.2194
6027.00,1.2264
6026.00,1.2332
6025.00,1.2397
6024.00,1.2456
6023.00,1.2509
6022.00,1.2559
6021.00,1.2607
6020.00,1.2650
6019.00,1.2688
6018.00,1.2721
6017.00,1.2751
6016.00,1.2777
6015.00,1.2795
6014.00,1.2807
6013.00,1.2815
6012.00,1.2823
6011.00,1.2829
6010.00,1.2834
6009.00,1.2837
6008.00,1.2836
6007.00,1.2828
6006.00,1.2811
6005.00,1.2786
6004.00,1.2757
6003.00,1.2727
6002.00,1.2695
6001.00,1.2663
6000.00,1.2627
5999.00,1.2586
5998.00,1.2537
5997.00,1.2480
5996.00,1.2415
5995.00,1.2347
5994.00,1.2276
5993.00,1.2204
5992.00,1.2129
5991.00,1.2051
5990.00,1.1968
5989.00,1.1880
5988.00,1.1785
5987.00,1.1684
5986.00,1.1580
5985.00,1.1474
5984.00,1.1366
5983.00,1.1255
5982.00,1.1141
5981.00,1.1025
5980.00,1.0908
5979.00,1.0790
5978.00,1.0669
5977.00,1.0545
5976.00,1.0419
5975.00,1.0291
5974.00,1.0163
5973.00,1.0033
5972.00,0.9903
5971.00,0.9773
5970.00,0.9644
5969.00,0.9516
5968.00,0.9388
5967.00,0.9262
5966.00,0.9139
5965.00,0.9020
5964.00,0.8904
5963.00,0.8791
5962.00,0.8681
5961.00,0.8574
5960.00,0.8471
5959.00,0.8372
5958.00,0.8279
5957.00,0.8193
5956.00,0.8113
5955.00,0.8040
5954.00,0.7975
5953.00,0.7918
5952.00,0.7866
5951.00,0.7821
5950.00,0.7784
5949.00,0.7755
5948.00,0.7735
5947.00,0.7723
5946.00,0.7719
5945.00,0.7724
5944.00,0.7737
5943.00,0.7757
5942.00,0.7785
5941.00,0.7820
5940.00,0.7862
5939.00,0.7912
5938.00,0.7967
5937.00,0.8029
5936.00,0.8096
5935.00,0.8168
5934.00,0.8248
5933.00,0.8335
5932.00,0.8428
5931.00,0.8523
5930.00,0.8620
5929.00,0.8720
5928.00,0.8822
5927.00,0.8927
5926.00,0.9036
5925.00,0.9148
5924.00,0.9264
5923.00,0.9382
5922.00,0.9501
5921.00,0.9620
5920.00,0.9740
5919.00,0.9859
5918.00,0.9979
5917.00,1.0100
5916.00,1.0220
5915.00,1.0342
5914.00,1.0465
5913.00,1.0588
5912.00,1.0711
5911.00,1.0833
5910.00,1.0953
5909.00,1.1069
5908.00,1.1182
5907.00,1.1291
5906.00,1.1400
5905.00,1.1507
5904.00,1.1611
5903.00,1.1711
5902.00,1.1808
5901.00,1.1904
5900.00,1.1997
5899.00,1.2088
5898.00,1.2178
5897.00,1.2267
5896.00,1.2352
5895.00,1.2432
5894.00,1.2507
5893.00,1.2577
5892.00,1.2641
5891.00,1.2699
5890.00,1.2755
5889.00,1.2808
5888.00,1.2860
5887.00,1.2908
5886.00,1.2953
5885.00,1.2995
5884.00,1.3031
5883.00,1.3061
5882.00,1.3085
5881.00,1.3105
5880.00,1.3123
5879.00,1.3139
5878.00,1.3151
5877.00,1.3162
5876.00,1.3171
5875.00,1.3176
5874.00,1.3176
5873.00,1.3168
5872.00,1.3151
5871.00,1.3125
5870.00,1.3092
5869.00,1.3056
5868.00,1.3018
5867.00,1.2977
5866.00,1.2933
5865.00,1.2885
5864.00,1.2833
5863.00,1.2776
5862.00,1.2715
5861.00,1.2653
5860.00,1.2588
5859.00,1.2521
5858.00,1.2449
5857.00,1.2373
5856.00,1.2291
5855.00,1.2203
5854.00,1.2111
5853.00,1.2014
5852.00,1.1913
5851.00,1.1809
5850.00,1.1703
5849.00,1.1597
5848.00,1.1489
5847.00,1.1376
5846.00,1.1259
5845.00,1.1140
5844.00,1.1019
5843.00,1.0895
5842.00,1.0768
5841.00,1.0640
5840.00,1.0511
5839.00,1.0380
5838.00,1.0247
5837.00,1.0113
5836.00,0.9982
5835.00,0.9853
5834.00,0.9727
5833.00,0.9601
5832.00,0.9476
5831.00,0.9352
5830.00,0.9228
5829.00,0.9105
5828.00,0.8985
5827.00,0.8868
5826.00,0.8757
5825.00,0.8653
5824.00,0.8554
5823.00,0.8461
5822.00,0.8373
5821.00,0.8292
5820.00,0.8216
5819.00,0.8148
5818.00,0.8086
5817.00,0.8030
5816.00,0.7982
5815.00,0.7940
5814.00,0.7907
5813.00,0.7883
5812.00,0.7866
5811.00,0.7858
5810.00,0.7857
5809.00,0.7865
5808.00,0.7879
5807.00,0.7901
5806.00,0.7931
5805.00,0.7969
5804.00,0.8016
5803.00,0.8069
5802.00,0.8128
5801.00,0.8194
5800.00,0.8266
5799.00,0.8342
5798.00,0.8424
5797.00,0.8511
5796.00,0.8602
5795.00,0.8698
5794.00,0.8798
5793.00,0.8901
5792.00,0.9007
5791.00,0.9117
5790.00,0.9229
5789.00,0.9345
5788.00,0.9463
5787.00,0.9583
5786.00,0.9705
5785.00,0.9828
5784.00,0.9952
5783.00,1.0076
5782.00,1.0199
5781.00,1.0323
5780.00,1.0446
5779.00,1.0569
5778.00,1.0690
5777.00,1.0807
5776.00,1.0922
5775.00,1.1037
5774.00,1.1152
5773.00,1.1267
5772.00,1.1380
5771.00,1.1493
5770.00,1.1603
5769.00,1.1712
5768.00,1.1818
5767.00,1.1921
5766.00,1.2022
5765.00,1.2123
5764.00,1.2220
5763.00,1.2312
5762.00,1.2400
5761.00,1.2484
5760.00,1.2565
5759.00,1.2642
5758.00,1.2715
5757.00,1.2784
5756.00,1.2848
5755.00,1.2907
5754.00,1.2963
5753.00,1.3017
5752.00,1.3070
5751.00,1.3121
5750.00,1.3169
5749.00,1.3212
5748.00,1.3247
5747.00,1.3272
5746.00,1.3289
5745.00,1.3300
5744.00,1.3308
5743.00,1.3317
5742.00,1.3326
5741.00,1.3333
5740.00,1.3336
5739.00,1.3331
5738.00,1.3321
5737.00,1.3305
5736.00,1.3285
5735.00,1.3261
5734.00,1.3234
5733.00,1.3203
5732.00,1.3165
5731.00,1.3122
5730.00,1.3076
5729.00,1.3029
5728.00,1.2979
5727.00,1.2924
5726.00,1.2862
5725.00,1.2793
5724.00,1.2719
5723.00,1.2640
5722.00,1.2557
5721.00,1.2472
5720.00,1.2384
5719.00,1.2292
5718.00,1.2196
5717.00,1.2096
5716.00,1.1991
5715.00,1.1884
5714.00,1.1774
5713.00,1.1662
5712.00,1.1546
5711.00,1.1426
5710.00,1.1304
5709.00,1.1179
5708.00,1.1050
5707.00,1.0916
5706.00,1.0779
5705.00,1.0641
5704.00,1.0502
5703.00,1.0362
5702.00,1.0221
5701.00,1.0080
5700.00,0.9940
5699.00,0.9801
5698.00,0.9661
5697.00,0.9524
5696.00,0.9389
5695.00,0.9257
5694.00,0.9127
5693.00,0.9001
5692.00,0.8877
5691.00,0.8758
5690.00,0.8643
5689.00,0.8535
5688.00,0.8432
5687.00,0.8335
5686.00,0.8244
5685.00,0.8161
5684.00,0.8084
5683.00,0.8013
5682.00,0.7951
5681.00,0.7896
5680.00,0.7851
5679.00,0.7813
5678.00,0.7785
5677.00,0.7766
5676.00,0.7757
5675.00,0.7757
5674.00,0.7765
5673.00,0.7782
5672.00,0.7808
5671.00,0.7841
5670.00,0.7883
5669.00,0.7932
5668.00,0.7989
5667.00,0.8053
5666.00,0.8124
5665.00,0.8201
5664.00,0.8286
5663.00,0.8375
5662.00,0.8470
5661.00,0.8569
5660.00,0.8671
5659.00,0.8776
5658.00,0.8884
5657.00,0.8996
5656.00,0.9111
5655.00,0.9230
5654.00,0.9351
5653.00,0.9475
5652.00,0.9602
5651.00,0.9729
5650.00,0.9855
5649.00,0.9982
5648.00,1.0108
5647.00,1.0234
5646.00,1.0359
5645.00,1.0485
5644.00,1.0611
5643.00,1.0738
5642.00,1.0864
5641.00,1.0988
5640.00,1.1109
5639.00,1.1230
5638.00,1.1349
5637.00,1.1465
5636.00,1.1578
5635.00,1.1687
5634.00,1.1793
5633.00,1.1897
5632.00,1.1998
5631.00,1.2094
5630.00,1.2187
5629.00,1.2277
5628.00,1.2365
5627.00,1.2449
5626.00,1.2530
5625.00,1.2607
5624.00,1.2681
5623.00,1.2751
5622.00,1.2817
5621.00,1.2879
5620.00,1.2938
5619.00,1.2990
5618.00,1.3036
5617.00,1.3075
5616.00,1.3109
5615.00,1.3137
5614.00,1.3163
5613.00,1.3188
5612.00,1.3210
5611.00,1.3229
5610.00,1.3244
5609.00,1.3255
5608.00,1.3262
5607.00,1.3267
5606.00,1.3270
5605.00,1.3271
5604.00,1.3267
5603.00,1.3257
5602.00,1.3241
5601.00,1.3221
5600.00,1.3197
5599.00,1.3170
5598.00,1.3141
5597.00,1.3111
5596.00,1.3077
5595.00,1.3038
5594.00,1.2993
5593.00,1.2945
5592.00,1.2893
5591.00,1.2836
5590.00,1.2775
5589.00,1.2709
5588.00,1.2637
5587.00,1.2559
5586.00,1.2475
5585.00,1.2386
5584.00,1.2293
5583.00,1.2196
5582.00,1.2095
5581.00,1.1991
5580.00,1.1885
5579.00,1.1774
5578.00,1.1660
5577.00,1.1542
5576.00,1.1421
5575.00,1.1296
5574.00,1.1168
5573.00,1.1039
5572.00,1.0907
5571.00,1.0772
5570.00,1.0635
5569.00,1.0495
5568.00,1.0354
5567.00,1.0210
5566.00,1.0066
5565.00,0.9921
5564.00,0.9779
5563.00,0.9638
5562.00,0.9499
5561.00,0.9363
5560.00,0.9228
5559.00,0.9095
5558.00,0.8964
5557.00,0.8835
5556.00,0.8711
5555.00,0.8591
5554.00,0.8478
5553.00,0.8371
5552.00,0.8271
5551.00,0.8178
5550.00,0.8093
5549.00,0.8015
5548.00,0.7944
5547.00,0.7882
5546.00,0.7828
5545.00,0.7784
5544.00,0.7749
5543.00,0.7723
5542.00,0.7706
5541.00,0.7697
5540.00,0.7697
5539.00,0.7706
5538.00,0.7725
5537.00,0.7754
5536.00,0.7793
5535.00,0.7840
5534.00,0.7895
5533.00,0.7957
5532.00,0.8026
5531.00,0.8104
5530.00,0.8189
5529.00,0.8281
5528.00,0.8378
5527.00,0.8479
5526.00,0.8585
5525.00,0.8694
5524.00,0.8806
5523.00,0.8922
5522.00,0.9043
5521.00,0.9168
5520.00,0.9295
5519.00,0.9424
5518.00,0.9553
5517.00,0.9683
5516.00,0.9814
5515.00,0.9946
5514.00,1.0080
5513.00,1.0215
5512.00,1.0350
5511.00,1.0485
5510.00,1.0619
5509.00,1.0752
5508.00,1.0883
5507.00,1.1014
5506.00,1.1144
5505.00,1.1273
5504.00,1.1401
5503.00,1.1526
5502.00,1.1648
5501.00,1.1768
5500.00,1.1885
5499.00,1.2001
5498.00,1.2113
5497.00,1.2221
5496.00,1.2327
5495.00,1.2428
5494.00,1.2524
5493.00,1.2618
5492.00,1.2708
5491.00,1.2794
5490.00,1.2877
5489.00,1.2956
5488.00,1.3031
5487.00,1.3102
5486.00,1.3168
5485.00,1.3229
5484.00,1.3287
5483.00,1.3341
5482.00,1.3391
5481.00,1.3438
5480.00,1.3480
5479.00,1.3517
5478.00,1.3550
5477.00,1.3578
5476.00,1.3602
5475.00,1.3621
5474.00,1.3634
5473.00,1.3644
5472.00,1.3649
5471.00,1.3650
5470.00,1.3647
5469.00,1.3639
5468.00,1.3625
5467.00,1.3608
5466.00,1.3587
5465.00,1.3563
5464.00,1.3534
5463.00,1.3500
5462.00,1.3460
5461.00,1.3416
5460.00,1.3368
5459.00,1.3315
5458.00,1.3258
5457.00,1.3196
5456.00,1.3131
5455.00,1.3061
5454.00,1.2986
5453.00,1.2906
5452.00,1.2822
5451.00,1.2731
5450.00,1.2636
5449.00,1.2536
5448.00,1.2434
5447.00,1.2327
5446.00,1.2216
5445.00,1.2101
5444.00,1.1982
5443.00,1.1859
5442.00,1.1732
5441.00,1.1601
5440.00,1.1465
5439.00,1.1325
5438.00,1.1181
5437.00,1.1036
5436.00,1.0890
5435.00,1.0741
5434.00,1.0591
5433.00,1.0441
5432.00,1.0290
5431.00,1.0141
5430.00,0.9991
5429.00,0.9840
5428.00,0.9688
5427.00,0.9534
5426.00,0.9383
5425.00,0.9235
5424.00,0.9093
5423.00,0.8956
5422.00,0.8823
5421.00,0.8695
5420.00,0.8572
5419.00,0.8454
5418.00,0.8343
5417.00,0.8240
5416.00,0.8144
5415.00,0.8055
5414.00,0.7971
5413.00,0.7894
5412.00,0.7825
5411.00,0.7764
5410.00,0.7713
5409.00,0.7673
5408.00,0.7643
5407.00,0.7623
5406.00,0.7614
5405.00,0.7615
5404.00,0.7626
5403.00,0.7647
5402.00,0.7678
5401.00,0.7718
5400.00,0.7767
5399.00,0.7824
5398.00,0.7889
5397.00,0.7962
5396.00,0.8042
5395.00,0.8127
5394.00,0.8220
5393.00,0.8318
5392.00,0.8421
5391.00,0.8529
5390.00,0.8641
5389.00,0.8757
5388.00,0.8878
5387.00,0.9002
5386.00,0.9130
5385.00,0.9261
5384.00,0.9394
5383.00,0.9529
5382.00,0.9667
5381.00,0.9805
5380.00,0.9943
5379.00,1.0082
5378.00,1.0221
5377.00,1.0362
5376.00,1.0503
5375.00,1.0645
5374.00,1.0785
5373.00,1.0925
5372.00,1.1064
5371.00,1.1202
5370.00,1.1338
5369.00,1.1473
5368.00,1.1603
5367.00,1.1729
5366.00,1.1851
5365.00,1.1970
5364.00,1.2089
5363.00,1.2208
5362.00,1.2325
5361.00,1.2438
5360.00,1.2546
5359.00,1.2649
5358.00,1.2747
5357.00,1.2840
5356.00,1.2928
5355.00,1.3013
5354.00,1.3093
5353.00,1.3169
5352.00,1.3238
5351.00,1.3305
5350.00,1.3369
5349.00,1.3430
5348.00,1.3486
5347.00,1.3536
5346.00,1.3581
5345.00,1.3623
5344.00,1.3661
5343.00,1.3697
5342.00,1.3729
5341.00,1.3755
5340.00,1.3776
5339.00,1.3790
5338.00,1.3800
5337.00,1.3807
5336.00,1.3809
5335.00,1.3806
5334.00,1.3797
5333.00,1.3785
5332.00,1.3768
5331.00,1.3748
5330.00,1.3726
5329.00,1.3701
5328.00,1.3672
5327.00,1.3637
5326.00,1.3594
5325.00,1.3543
5324.00,1.3487
5323.00,1.3428
5322.00,1.3367
5321.00,1.3303
5320.00,1.3236
5319.00,1.3165
5318.00,1.3086
5317.00,1.2998
5316.00,1.2903
5315.00,1.2803
5314.00,1.2702
5313.00,1.2601
5312.00,1.2499
5311.00,1.2392
5310.00,1.2278
5309.00,1.2156
5308.00,1.2027
5307.00,1.1893
5306.00,1.1754
5305.00,1.1616
5304.00,1.1476
5303.00,1.1334
5302.00,1.1189
5301.00,1.1040
5300.00,1.0888
5299.00,1.0733
5298.00,1.0576
5297.00,1.0418
5296.00,1.0260
5295.00,1.0103
5294.00,0.9947
5293.00,0.9793
5292.00,0.9641
5291.00,0.9490
5290.00,0.9341
5289.00,0.9193
5288.00,0.9050
5287.00,0.8912
5286.00,0.8779
5285.00,0.8652
5284.00,0.8530
5283.00,0.8414
5282.00,0.8306
5281.00,0.8206
5280.00,0.8114
5279.00,0.8031
5278.00,0.7958
5277.00,0.7894
5276.00,0.7839
5275.00,0.7795
5274.00,0.7760
5273.00,0.7736
5272.00,0.7722
5271.00,0.7718
5270.00,0.7724
5269.00,0.7742
5268.00,0.7771
5267.00,0.7810
5266.00,0.7860
5265.00,0.7919
5264.00,0.7985
5263.00,0.8059
5262.00,0.8139
5261.00,0.8227
5260.00,0.8323
5259.00,0.8424
5258.00,0.8532
5257.00,0.8645
5256.00,0.8764
5255.00,0.8889
5254.00,0.9019
5253.00,0.9153
5252.00,0.9288
5251.00,0.9424
5250.00,0.9560
5249.00,0.9699
5248.00,0.9841
5247.00,0.9985
5246.00,1.0132
5245.00,1.0280
5244.00,1.0428
5243.00,1.0576
5242.00,1.0722
5241.00,1.0868
5240.00,1.1011
5239.00,1.1153
5238.00,1.1295
5237.00,1.1436
5236.00,1.1574
5235.00,1.1710
5234.00,1.1844
5233.00,1.1977
5232.00,1.2108
5231.00,1.2237
5230.00,1.2362
5229.00,1.2481
5228.00,1.2594
5227.00,1.2703
5226.00,1.2810
5225.00,1.2917
5224.00,1.3023
5223.00,1.3124
5222.00,1.3218
5221.00,1.3306
5220.00,1.3388
5219.00,1.3466
5218.00,1.3540
5217.00,1.3611
5216.00,1.3679
5215.00,1.3741
5214.00,1.3797
5213.00,1.3848
5212.00,1.3897
5211.00,1.3944
5210.00,1.3986
5209.00,1.4022
5208.00,1.4052
5207.00,1.4077
5206.00,1.4095
5205.00,1.4108
5204.00,1.4117
5203.00,1.4123
5202.00,1.4126
5201.00,1.4125
5200.00,1.4121
5199.00,1.4113
5198.00,1.4102
5197.00,1.4087
5196.00,1.4066
5195.00,1.4038
5194.00,1.4004
5193.00,1.3964
5192.00,1.3919
5191.00,1.3873
5190.00,1.3826
5189.00,1.3775
5188.00,1.3718
5187.00,1.3654
5186.00,1.3583
5185.00,1.3506
5184.00,1.3425
5183.00,1.3339
5182.00,1.3249
5181.00,1.3154
5180.00,1.3056
5179.00,1.2956
5178.00,1.2852
5177.00,1.2745
5176.00,1.2629
5175.00,1.2506
5174.00,1.2376
5173.00,1.2241
5172.00,1.2104
5171.00,1.1965
5170.00,1.1823
5169.00,1.1676
5168.00,1.1526
5167.00,1.1373
5166.00,1.1217
5165.00,1.1060
5164.00,1.0901
5163.00,1.0740
5162.00,1.0576
5161.00,1.0410
5160.00,1.0244
5159.00,1.0076
5158.00,0.9910
5157.00,0.9744
5156.00,0.9580
5155.00,0.9419
5154.00,0.9261
5153.00,0.9108
5152.00,0.8960
5151.00,0.8818
5150.00,0.8681
5149.00,0.8551
5148.00,0.8428
5147.00,0.8311
5146.00,0.8203
5145.00,0.8103
5144.00,0.8012
5143.00,0.7931
5142.00,0.7859
5141.00,0.7799
5140.00,0.7749
5139.00,0.7710
5138.00,0.7682
5137.00,0.7666
5136.00,0.7659
5135.00,0.7664
5134.00,0.7679
5133.00,0.7707
5132.00,0.7745
5131.00,0.7793
5130.00,0.7852
5129.00,0.7920
5128.00,0.7998
5127.00,0.8083
5126.00,0.8177
5125.00,0.8278
5124.00,0.8386
5123.00,0.8501
5122.00,0.8621
5121.00,0.8746
5120.00,0.8876
5119.00,0.9011
5118.00,0.9148
5117.00,0.9288
5116.00,0.9430
5115.00,0.9574
5114.00,0.9720
5113.00,0.9868
5112.00,1.0018
5111.00,1.0169
5110.00,1.0322
5109.00,1.0477
5108.00,1.0632
5107.00,1.0786
5106.00,1.0940
5105.00,1.1093
5104.00,1.1244
5103.00,1.1393
5102.00,1.1539
5101.00,1.1682
5100.00,1.1822
5099.00,1.1961
5098.00,1.2101
5097.00,1.2239
5096.00,1.2373
5095.00,1.2502
5094.00,1.2625
5093.00,1.2744
5092.00,1.2860
5091.00,1.2975
5090.00,1.3088
5089.00,1.3197
5088.00,1.3300
5087.00,1.3396
5086.00,1.3487
5085.00,1.3574
5084.00,1.3659
5083.00,1.3741
5082.00,1.3817
5081.00,1.3888
5080.00,1.3952
5079.00,1.4010
5078.00,1.4064
5077.00,1.4115
5076.00,1.4164
5075.00,1.4209
5074.00,1.4246
5073.00,1.4275
5072.00,1.4297
5071.00,1.4316
5070.00,1.4334
5069.00,1.4352
5068.00,1.4368
5067.00,1.4379
5066.00,1.4384
5065.00,1.4380
5064.00,1.4369
5063.00,1.4354
5062.00,1.4335
5061.00,1.4311
5060.00,1.4282
5059.00,1.4246
5058.00,1.4205
5057.00,1.4160
5056.00,1.4112
5055.00,1.4060
5054.00,1.4007
5053.00,1.3950
5052.00,1.3889
5051.00,1.3822
5050.00,1.3749
5049.00,1.3670
5048.00,1.3585
5047.00,1.3494
5046.00,1.3396
5045.00,1.3292
5044.00,1.3184
5043.00,1.3072
5042.00,1.2957
5041.00,1.2837
5040.00,1.2712
5039.00,1.2581
5038.00,1.2444
5037.00,1.2303
5036.00,1.2160
5035.00,1.2013
5034.00,1.1864
5033.00,1.1709
5032.00,1.1550
5031.00,1.1385
5030.00,1.1217
5029.00,1.1047
5028.00,1.0876
5027.00,1.0704
5026.00,1.0530
5025.00,1.0356
5024.00,1.0181
5023.00,1.0007
5022.00,0.9834
5021.00,0.9662
5020.00,0.9494
5019.00,0.9329
5018.00,0.9169
5017.00,0.9014
5016.00,0.8864
5015.00,0.8721
5014.00,0.8584
5013.00,0.8454
5012.00,0.8331
5011.00,0.8217
5010.00,0.8113
5009.00,0.8019
5008.00,0.7936
5007.00,0.7863
5006.00,0.7802
5005.00,0.7754
5004.00,0.7717
5003.00,0.7693
5002.00,0.7680
5001.00,0.7680
5000.00,0.7690
4999.00,0.7713
4998.00,0.7747
4997.00,0.7793
4996.00,0.7850
4995.00,0.7918
4994.00,0.7996
4993.00,0.8084
4992.00,0.8181
4991.00,0.8285
4990.00,0.8397
4989.00,0.8517
4988.00,0.8642
4987.00,0.8774
4986.00,0.8911
4985.00,0.9053
4984.00,0.9198
4983.00,0.9346
4982.00,0.9497
4981.00,0.9651
4980.00,0.9808
4979.00,0.9966
4978.00,1.0125
4977.00,1.0284
4976.00,1.0444
4975.00,1.0604
4974.00,1.0766
4973.00,1.0928
4972.00,1.1090
4971.00,1.1252
4970.00,1.1412
4969.00,1.1570
4968.00,1.1726
4967.00,1.1878
4966.00,1.2027
4965.00,1.2173
4964.00,1.2316
4963.00,1.2457
4962.00,1.2594
4961.00,1.2729
4960.00,1.2861
4959.00,1.2989
4958.00,1.3112
4957.00,1.3231
4956.00,1.3344
4955.00,1.3453
4954.00,1.3557
4953.00,1.3657
4952.00,1.3753
4951.00,1.3844
4950.00,1.3929
4949.00,1.4010
4948.00,1.4088
4947.00,1.4162
4946.00,1.4231
4945.00,1.4293
4944.00,1.4347
4943.00,1.4396
4942.00,1.4441
4941.00,1.4483
4940.00,1.4522
4939.00,1.4558
4938.00,1.4588
4937.00,1.4611
4936.00,1.4626
4935.00,1.4637
4934.00,1.4646
4933.00,1.4654
4932.00,1.4660
4931.00,1.4660
4930.00,1.4655
4929.00,1.4645
4928.00,1.4629
4927.00,1.4607
4926.00,1.4579
4925.00,1.4544
4924.00,1.4504
4923.00,1.4461
4922.00,1.4415
4921.00,1.4366
4920.00,1.4314
4919.00,1.4255
4918.00,1.4188
4917.00,1.4114
4916.00,1.4034
4915.00,1.3951
4914.00,1.3864
4913.00,1.3776
4912.00,1.3684
4911.00,1.3587
4910.00,1.3483
4909.00,1.3370
4908.00,1.3251
4907.00,1.3126
4906.00,1.2999
4905.00,1.2868
4904.00,1.2733
4903.00,1.2592
4902.00,1.2446
4901.00,1.2294
4900.00,1.2138
4899.00,1.1978
4898.00,1.1814
4897.00,1.1646
4896.00,1.1474
4895.00,1.1298
4894.00,1.1118
4893.00,1.0936
4892.00,1.0752
4891.00,1.0568
4890.00,1.0384
4889.00,1.0202
4888.00,1.0021
4887.00,0.9840
4886.00,0.9660
4885.00,0.9482
4884.00,0.9307
4883.00,0.9136
4882.00,0.8971
4881.00,0.8812
4880.00,0.8660
4879.00,0.8515
4878.00,0.8379
4877.00,0.8252
4876.00,0.8134
4875.00,0.8027
4874.00,0.7932
4873.00,0.7848
4872.00,0.7776
4871.00,0.7716
4870.00,0.7670
4869.00,0.7636
4868.00,0.7615
4867.00,0.7607
4866.00,0.7612
4865.00,0.7631
4864.00,0.7662
4863.00,0.7707
4862.00,0.7764
4861.00,0.7834
4860.00,0.7914
4859.00,0.8004
4858.00,0.8103
4857.00,0.8212
4856.00,0.8328
4855.00,0.8452
4854.00,0.8583
4853.00,0.8719
4852.00,0.8860
4851.00,0.9006
4850.00,0.9157
4849.00,0.9312
4848.00,0.9471
4847.00,0.9633
4846.00,0.9797
4845.00,0.9962
4844.00,1.0128
4843.00,1.0296
4842.00,1.0465
4841.00,1.0635
4840.00,1.0806
4839.00,1.0976
4838.00,1.1146
4837.00,1.1316
4836.00,1.1483
4835.00,1.1649
4834.00,1.1810
4833.00,1.1969
4832.00,1.2125
4831.00,1.2279
4830.00,1.2433
4829.00,1.2585
4828.00,1.2735
4827.00,1.2879
4826.00,1.3018
4825.00,1.3150
4824.00,1.3279
4823.00,1.3404
4822.00,1.3525
4821.00,1.3643
4820.00,1.3756
4819.00,1.3863
4818.00,1.3965
4817.00,1.4064
4816.00,1.4159
4815.00,1.4251
4814.00,1.4336
4813.00,1.4412
4812.00,1.4479
4811.00,1.4541
4810.00,1.4599
4809.00,1.4656
4808.00,1.4710
4807.00,1.4760
4806.00,1.4804
4805.00,1.4843
4804.00,1.4876
4803.00,1.4905
4802.00,1.4929
4801.00,1.4948
4800.00,1.4964
4799.00,1.4976
4798.00,1.4986
4797.00,1.4992
4796.00,1.4990
4795.00,1.4981
4794.00,1.4963
4793.00,1.4939
4792.00,1.4911
4791.00,1.4881
4790.00,1.4849
4789.00,1.4812
4788.00,1.4771
4787.00,1.4724
4786.00,1.4671
4785.00,1.4614
4784.00,1.4551
4783.00,1.4482
4782.00,1.4407
4781.00,1.4327
4780.00,1.4244
4779.00,1.4157
4778.00,1.4065
4777.00,1.3966
4776.00,1.3861
4775.00,1.3751
4774.00,1.3637
4773.00,1.3518
4772.00,1.3394
4771.00,1.3264
4770.00,1.3127
4769.00,1.2985
4768.00,1.2838
4767.00,1.2685
4766.00,1.2526
4765.00,1.2362
4764.00,1.2193
4763.00,1.2019
4762.00,1.1843
4761.00,1.1663
4760.00,1.1480
4759.00,1.1293
4758.00,1.1102
4757.00,1.0910
4756.00,1.0716
4755.00,1.0523
4754.00,1.0331
4753.00,1.0139
4752.00,0.9949
4751.00,0.9761
4750.00,0.9576
4749.00,0.9394
4748.00,0.9218
4747.00,0.9048
4746.00,0.8885
4745.00,0.8729
4744.00,0.8582
4743.00,0.8445
4742.00,0.8317
4741.00,0.8200
4740.00,0.8094
4739.00,0.8000
4738.00,0.7919
4737.00,0.7851
4736.00,0.7796
4735.00,0.7754
4734.00,0.7728
4733.00,0.7716
4732.00,0.7719
4731.00,0.7736
4730.00,0.7767
4729.00,0.7811
4728.00,0.7869
4727.00,0.7938
4726.00,0.8020
4725.00,0.8113
4724.00,0.8217
4723.00,0.8330
4722.00,0.8453
4721.00,0.8584
4720.00,0.8722
4719.00,0.8866
4718.00,0.9015
4717.00,0.9170
4716.00,0.9330
4715.00,0.9493
4714.00,0.9661
4713.00,0.9832
4712.00,1.0005
4711.00,1.0179
4710.00,1.0355
4709.00,1.0533
4708.00,1.0711
4707.00,1.0890
4706.00,1.1070
4705.00,1.1249
4704.00,1.1427
4703.00,1.1603
4702.00,1.1778
4701.00,1.1951
4700.00,1.2122
4699.00,1.2291
4698.00,1.2458
4697.00,1.2623
4696.00,1.2786
4695.00,1.2944
4694.00,1.3097
4693.00,1.3245
4692.00,1.3387
4691.00,1.3524
4690.00,1.3659
4689.00,1.3790
4688.00,1.3916
4687.00,1.4037
4686.00,1.4152
4685.00,1.4259
4684.00,1.4359
4683.00,1.4453
4682.00,1.4541
4681.00,1.4627
4680.00,1.4709
4679.00,1.4788
4678.00,1.4862
4677.00,1.4930
4676.00,1.4992
4675.00,1.5049
4674.00,1.5101
4673.00,1.5150
4672.00,1.5195
4671.00,1.5234
4670.00,1.5268
4669.00,1.5294
4668.00,1.5314
4667.00,1.5329
4666.00,1.5339
4665.00,1.5345
4664.00,1.5350
4663.00,1.5353
4662.00,1.5352
4661.00,1.5347
4660.00,1.5337
4659.00,1.5321
4658.00,1.5299
4657.00,1.5273
4656.00,1.5242
4655.00,1.5206
4654.00,1.5164
4653.00,1.5117
4652.00,1.5063
4651.00,1.5005
4650.00,1.4942
4649.00,1.4874
4648.00,1.4801
4647.00,1.4723
4646.00,1.4639
4645.00,1.4550
4644.00,1.4455
4643.00,1.4357
4642.00,1.4254
4641.00,1.4145
4640.00,1.4030
4639.00,1.3909
4638.00,1.3784
4637.00,1.3653
4636.00,1.3517
4635.00,1.3375
4634.00,1.3224
4633.00,1.3067
4632.00,1.2904
4631.00,1.2737
4630.00,1.2566
4629.00,1.2392
4628.00,1.2213
4627.00,1.2028
4626.00,1.1840
4625.00,1.1647
4624.00,1.1451
4623.00,1.1253
4622.00,1.1053
4621.00,1.0851
4620.00,1.0648
4619.00,1.0446
4618.00,1.0245
4617.00,1.0046
4616.00,0.9850
4615.00,0.9658
4614.00,0.9471
4613.00,0.9288
4612.00,0.9111
4611.00,0.8941
4610.00,0.8779
4609.00,0.8628
4608.00,0.8487
4607.00,0.8357
4606.00,0.8238
4605.00,0.8131
4604.00,0.8036
4603.00,0.7954
4602.00,0.7887
4601.00,0.7835
4600.00,0.7797
4599.00,0.7774
4598.00,0.7766
4597.00,0.7773
4596.00,0.7795
4595.00,0.7832
4594.00,0.7883
4593.00,0.7948
4592.00,0.8025
4591.00,0.8116
4590.00,0.8218
4589.00,0.8330
4588.00,0.8452
4587.00,0.8583
4586.00,0.8722
4585.00,0.8868
4584.00,0.9021
4583.00,0.9181
4582.00,0.9346
4581.00,0.9516
4580.00,0.9689
4579.00,0.9865
4578.00,1.0044
4577.00,1.0226
4576.00,1.0411
4575.00,1.0597
4574.00,1.0784
4573.00,1.0971
4572.00,1.1156
4571.00,1.1341
4570.00,1.1526
4569.00,1.1711
4568.00,1.1896
4567.00,1.2079
4566.00,1.2260
4565.00,1.2438
4564.00,1.2613
4563.00,1.2785
4562.00,1.2953
4561.00,1.3115
4560.00,1.3273
4559.00,1.3426
4558.00,1.3577
4557.00,1.3725
4556.00,1.3869
4555.00,1.4006
4554.00,1.4136
4553.00,1.4260
4552.00,1.4379
4551.00,1.4493
4550.00,1.4600
4549.00,1.4701
4548.00,1.4798
4547.00,1.4894
4546.00,1.4985
4545.00,1.5071
4544.00,1.5148
4543.00,1.5218
4542.00,1.5284
4541.00,1.5347
4540.00,1.5407
4539.00,1.5463
4538.00,1.5511
4537.00,1.5551
4536.00,1.5585
4535.00,1.5615
4534.00,1.5641
4533.00,1.5664
4532.00,1.5683
4531.00,1.5699
4530.00,1.5710
4529.00,1.5716
4528.00,1.5717
4527.00,1.5712
4526.00,1.5701
4525.00,1.5684
4524.00,1.5662
4523.00,1.5634
4522.00,1.5600
4521.00,1.5561
4520.00,1.5519
4519.00,1.5475
4518.00,1.5430
4517.00,1.5380
4516.00,1.5323
4515.00,1.5258
4514.00,1.5185
4513.00,1.5107
4512.00,1.5024
4511.00,1.4939
4510.00,1.4851
4509.00,1.4756
4508.00,1.4654
4507.00,1.4544
4506.00,1.4427
4505.00,1.4305
4504.00,1.4176
4503.00,1.4042
4502.00,1.3903
4501.00,1.3757
4500.00,1.3607
4499.00,1.3450
4498.00,1.3287
4497.00,1.3118
4496.00,1.2942
4495.00,1.2760
4494.00,1.2574
4493.00,1.2382
4492.00,1.2186
4491.00,1.1985
4490.00,1.1780
4489.00,1.1572
4488.00,1.1362
4487.00,1.1150
4486.00,1.0936
4485.00,1.0722
4484.00,1.0508
4483.00,1.0295
4482.00,1.0084
4481.00,0.9877
4480.00,0.9673
4479.00,0.9475
4478.00,0.9284
4477.00,0.9101
4476.00,0.8928
4475.00,0.8764
4474.00,0.8612
4473.00,0.8471
4472.00,0.8342
4471.00,0.8227
4470.00,0.8126
4469.00,0.8039
4468.00,0.7969
4467.00,0.7914
4466.00,0.7877
4465.00,0.7857
4464.00,0.7853
4463.00,0.7866
4462.00,0.7895
4461.00,0.7940
4460.00,0.8000
4459.00,0.8077
4458.00,0.8167
4457.00,0.8272
4456.00,0.8388
4455.00,0.8514
4454.00,0.8651
4453.00,0.8797
4452.00,0.8951
4451.00,0.9113
4450.00,0.9282
4449.00,0.9456
4448.00,0.9636
4447.00,0.9821
4446.00,1.0009
4445.00,1.0199
4444.00,1.0392
4443.00,1.0587
4442.00,1.0784
4441.00,1.0983
4440.00,1.1181
4439.00,1.1380
4438.00,1.1577
4437.00,1.1774
4436.00,1.1970
4435.00,1.2166
4434.00,1.2360
4433.00,1.2553
4432.00,1.2741
4431.00,1.2926
4430.00,1.3106
4429.00,1.3282
4428.00,1.3454
4427.00,1.3623
4426.00,1.3787
4425.00,1.3947
4424.00,1.4102
4423.00,1.4251
4422.00,1.4393
4421.00,1.4528
4420.00,1.4657
4419.00,1.4781
4418.00,1.4901
4417.00,1.5017
4416.00,1.5129
4415.00,1.5235
4414.00,1.5335
4413.00,1.5427
4412.00,1.5510
4411.00,1.5587
4410.00,1.5657
4409.00,1.5724
4408.00,1.5789
4407.00,1.5851
4406.00,1.5908
4405.00,1.5960
4404.00,1.6004
4403.00,1.6040
4402.00,1.6069
4401.00,1.6095
4400.00,1.6121
4399.00,1.6145
4398.00,1.6165
4397.00,1.6177
4396.00,1.6181
4395.00,1.6180
4394.00,1.6177
4393.00,1.6170
4392.00,1.6158
4391.00,1.6138
4390.00,1.6112
4389.00,1.6083
4388.00,1.6055
4387.00,1.6025
4386.00,1.5991
4385.00,1.5948
4384.00,1.5898
4383.00,1.5842
4382.00,1.5782
4381.00,1.5719
4380.00,1.5651
4379.00,1.5579
4378.00,1.5502
4377.00,1.5419
4376.00,1.5331
4375.00,1.5238
4374.00,1.5141
4373.00,1.5042
4372.00,1.4940
4371.00,1.4833
4370.00,1.4720
4369.00,1.4599
4368.00,1.4471
4367.00,1.4338
4366.00,1.4201
4365.00,1.4059
4364.00,1.3911
4363.00,1.3757
4362.00,1.3597
4361.00,1.3431
4360.00,1.3261
4359.00,1.3084
4358.00,1.2902
4357.00,1.2715
4356.00,1.2523
4355.00,1.2328
4354.00,1.2130
4353.00,1.1930
4352.00,1.1727
4351.00,1.1523
4350.00,1.1319
4349.00,1.1115
4348.00,1.0913
4347.00,1.0713
4346.00,1.0514
4345.00,1.0318
4344.00,1.0126
4343.00,0.9937
4342.00,0.9755
4341.00,0.9580
4340.00,0.9412
4339.00,0.9254
4338.00,0.9105
4337.00,0.8967
4336.00,0.8841
4335.00,0.8729
4334.00,0.8633
4333.00,0.8553
4332.00,0.8490
4331.00,0.8444
4330.00,0.8416
4329.00,0.8405
4328.00,0.8413
4327.00,0.8438
4326.00,0.8481
4325.00,0.8540
4324.00,0.8616
4323.00,0.8706
4322.00,0.8810
4321.00,0.8927
4320.00,0.9056
4319.00,0.9196
4318.00,0.9345
4317.00,0.9502
4316.00,0.9666
4315.00,0.9836
4314.00,1.0011
4313.00,1.0191
4312.00,1.0374
4311.00,1.0560
4310.00,1.0749
4309.00,1.0941
4308.00,1.1136
4307.00,1.1333
4306.00,1.1531
4305.00,1.1729
4304.00,1.1929
4303.00,1.2128
4302.00,1.2325
4301.00,1.2520
4300.00,1.2713
4299.00,1.2904
4298.00,1.3093
4297.00,1.3281
4296.00,1.3465
4295.00,1.3645
4294.00,1.3820
4293.00,1.3992
4292.00,1.4159
4291.00,1.4322
4290.00,1.4478
4289.00,1.4629
4288.00,1.4774
4287.00,1.4915
4286.00,1.5051
4285.00,1.5181
4284.00,1.5302
4283.00,1.5414
4282.00,1.5520
4281.00,1.5624
4280.00,1.5725
4279.00,1.5823
4278.00,1.5915
4277.00,1.5997
4276.00,1.6072
4275.00,1.6141
4274.00,1.6206
4273.00,1.6269
4272.00,1.6330
4271.00,1.6386
4270.00,1.6437
4269.00,1.6482
4268.00,1.6519
4267.00,1.6552
4266.00,1.6581
4265.00,1.6606
4264.00,1.6626
4263.00,1.6639
4262.00,1.6647
4261.00,1.6651
4260.00,1.6655
4259.00,1.6656
4258.00,1.6653
4257.00,1.6643
4256.00,1.6629
4255.00,1.6611
4254.00,1.6589
4253.00,1.6561
4252.00,1.6526
4251.00,1.6483
4250.00,1.6436
4249.00,1.6387
4248.00,1.6335
4247.00,1.6279
4246.00,1.6215
4245.00,1.6142
4244.00,1.6063
4243.00,1.5978
4242.00,1.5891
4241.00,1.5799
4240.00,1.5703
4239.00,1.5599
4238.00,1.5489
4237.00,1.5374
4236.00,1.5255
4235.00,1.5130
4234.00,1.4998
4233.00,1.4858
4232.00,1.4711
4231.00,1.4559
4230.00,1.4403
4229.00,1.4241
4228.00,1.4074
4227.00,1.3900
4226.00,1.3719
4225.00,1.3533
4224.00,1.3342
4223.00,1.3146
4222.00,1.2945
4221.00,1.2741
4220.00,1.2533
4219.00,1.2321
4218.00,1.2105
4217.00,1.1887
4216.00,1.1667
4215.00,1.1447
4214.00,1.1227
4213.00,1.1008
4212.00,1.0791
4211.00,1.0576
4210.00,1.0365
4209.00,1.0159
4208.00,0.9961
4207.00,0.9770
4206.00,0.9589
4205.00,0.9420
4204.00,0.9261
4203.00,0.9116
4202.00,0.8984
4201.00,0.8867
4200.00,0.8767
4199.00,0.8682
4198.00,0.8616
4197.00,0.8567
4196.00,0.8537
4195.00,0.8526
4194.00,0.8534
4193.00,0.8562
4192.00,0.8607
4191.00,0.8669
4190.00,0.8747
4189.00,0.8840
4188.00,0.8946
4187.00,0.9066
4186.00,0.9197
4185.00,0.9339
4184.00,0.9491
4183.00,0.9651
4182.00,0.9820
4181.00,0.9996
4180.00,1.0178
4179.00,1.0365
4178.00,1.0558
4177.00,1.0755
4176.00,1.0955
4175.00,1.1158
4174.00,1.1362
4173.00,1.1567
4172.00,1.1771
4171.00,1.1976
4170.00,1.2182
4169.00,1.2389
4168.00,1.2594
4167.00,1.2798
4166.00,1.2999
4165.00,1.3199
4164.00,1.3397
4163.00,1.3593
4162.00,1.3784
4161.00,1.3970
4160.00,1.4151
4159.00,1.4326
4158.00,1.4495
4157.00,1.4660
4156.00,1.4820
4155.00,1.4976
4154.00,1.5127
4153.00,1.5273
4152.00,1.5413
4151.00,1.5546
4150.00,1.5671
4149.00,1.5791
4148.00,1.5907
4147.00,1.6020
4146.00,1.6129
4145.00,1.6231
4144.00,1.6325
4143.00,1.6410
4142.00,1.6489
4141.00,1.6565
4140.00,1.6637
4139.00,1.6707
4138.00,1.6772
4137.00,1.6830
4136.00,1.6882
4135.00,1.6926
4134.00,1.6964
4133.00,1.6997
4132.00,1.7026
4131.00,1.7050
4130.00,1.7070
4129.00,1.7087
4128.00,1.7102
4127.00,1.7111
4126.00,1.7114
4125.00,1.7110
4124.00,1.7102
4123.00,1.7091
4122.00,1.7077
4121.00,1.7057
4120.00,1.7030
4119.00,1.6997
4118.00,1.6962
4117.00,1.6926
4116.00,1.6888
4115.00,1.6843
4114.00,1.6787
4113.00,1.6721
4112.00,1.6647
4111.00,1.6567
4110.00,1.6484
4109.00,1.6400
4108.00,1.6312
4107.00,1.6221
4106.00,1.6126
4105.00,1.6025
4104.00,1.5917
4103.00,1.5802
4102.00,1.5678
4101.00,1.5546
4100.00,1.5407
4099.00,1.5263
4098.00,1.5113
4097.00,1.4957
4096.00,1.4795
4095.00,1.4626
4094.00,1.4450
4093.00,1.4267
4092.00,1.4078
4091.00,1.3883
4090.00,1.3683
4089.00,1.3478
4088.00,1.3267
4087.00,1.3052
4086.00,1.2833
4085.00,1.2611
4084.00,1.2385
4083.00,1.2155
4082.00,1.1922
4081.00,1.1688
4080.00,1.1454
4079.00,1.1221
4078.00,1.0990
4077.00,1.0761
4076.00,1.0535
4075.00,1.0315
4074.00,1.0102
4073.00,0.9896
4072.00,0.9700
4071.00,0.9514
4070.00,0.9339
4069.00,0.9179
4068.00,0.9033
4067.00,0.8904
4066.00,0.8792
4065.00,0.8700
4064.00,0.8626
4063.00,0.8572
4062.00,0.8539
4061.00,0.8527
4060.00,0.8536
4059.00,0.8566
4058.00,0.8616
4057.00,0.8684
4056.00,0.8770
4055.00,0.8873
4054.00,0.8991
4053.00,0.9125
4052.00,0.9271
4051.00,0.9431
4050.00,0.9601
4049.00,0.9780
4048.00,0.9966
4047.00,1.0158
4046.00,1.0356
4045.00,1.0560
4044.00,1.0768
4043.00,1.0981
4042.00,1.1196
4041.00,1.1414
4040.00,1.1633
4039.00,1.1853
4038.00,1.2073
4037.00,1.2293
4036.00,1.2514
4035.00,1.2734
4034.00,1.2952
4033.00,1.3168
4032.00,1.3382
4031.00,1.3594
4030.00,1.3804
4029.00,1.4011
4028.00,1.4214
4027.00,1.4412
4026.00,1.4604
4025.00,1.4791
4024.00,1.4972
4023.00,1.5145
4022.00,1.5312
4021.00,1.5475
4020.00,1.5632
4019.00,1.5785
4018.00,1.5931
4017.00,1.6068
4016.00,1.6198
4015.00,1.6322
4014.00,1.6440
4013.00,1.6551
4012.00,1.6655
4011.00,1.6753
4010.00,1.6845
4009.00,1.6932
4008.00,1.7014
4007.00,1.7090
4006.00,1.7162
4005.00,1.7230
4004.00,1.7294
4003.00,1.7355
4002.00,1.7410
4001.00,1.7458
4000.00,1.7497
3999.00,1.7528
3998.00,1.7553
3997.00,1.7576
3996.00,1.7599
3995.00,1.7619
3994.00,1.7635
3993.00,1.7644
3992.00,1.7647
3991.00,1.7644
3990.00,1.7639
3989.00,1.7632
3988.00,1.7620
3987.00,1.7602
3986.00,1.7574
3985.00,1.7539
3984.00,1.7498
3983.00,1.7454
3982.00,1.7408
3981.00,1.7360
3980.00,1.7308
3979.00,1.7249
3978.00,1.7182
3977.00,1.7108
3976.00,1.7030
3975.00,1.6949
3974.00,1.6864
3973.00,1.6773
3972.00,1.6673
3971.00,1.6564
3970.00,1.6447
3969.00,1.6324
3968.00,1.6196
3967.00,1.6065
3966.00,1.5929
3965.00,1.5786
3964.00,1.5636
3963.00,1.5481
3962.00,1.5320
3961.00,1.5151
3960.00,1.4973
3959.00,1.4787
3958.00,1.4595
3957.00,1.4398
3956.00,1.4195
3955.00,1.3985
3954.00,1.3769
3953.00,1.3546
3952.00,1.3318
3951.00,1.3084
3950.00,1.2843
3949.00,1.2599
3948.00,1.2354
3947.00,1.2109
3946.00,1.1863
3945.00,1.1615
3944.00,1.1367
3943.00,1.1121
3942.00,1.0877
3941.00,1.0637
3940.00,1.0402
3939.00,1.0176
3938.00,0.9961
3937.00,0.9761
3936.00,0.9575
3935.00,0.9403
3934.00,0.9247
3933.00,0.9105
3932.00,0.8978
3931.00,0.8869
3930.00,0.8782
3929.00,0.8718
3928.00,0.8676
3927.00,0.8652
3926.00,0.8651
3925.00,0.8672
3924.00,0.8715
3923.00,0.8776
3922.00,0.8856
3921.00,0.8959
3920.00,0.9081
3919.00,0.9222
3918.00,0.9381
3917.00,0.9558
3916.00,0.9749
3915.00,0.9947
3914.00,1.0147
3913.00,1.0350
3912.00,1.0556
3911.00,1.0767
3910.00,1.0982
3909.00,1.1199
3908.00,1.1414
3907.00,1.1624
3906.00,1.1835
3905.00,1.2061
3904.00,1.2307
3903.00,1.2566
3902.00,1.2829
3901.00,1.3090
3900.00,1.3351
3899.00,1.3609
3898.00,1.3860
3897.00,1.4100
3896.00,1.4328
3895.00,1.4539
3894.00,1.4732
3893.00,1.4913
3892.00,1.5099
3891.00,1.5300
3890.00,1.5504
3889.00,1.5689
3888.00,1.5846
3887.00,1.5992
3886.00,1.6148
3885.00,1.6314
3884.00,1.6472
3883.00,1.6608
3882.00,1.6726
3881.00,1.6842
3880.00,1.6966
3879.00,1.7091
3878.00,1.7202
3877.00,1.7290
3876.00,1.7367
3875.00,1.7447
3874.00,1.7530
3873.00,1.7598
3872.00,1.7647
3871.00,1.7695
3870.00,1.7757
3869.00,1.7826
3868.00,1.7882
3867.00,1.7922
3866.00,1.7955
3865.00,1.7987
3864.00,1.8016
3863.00,1.8037
3862.00,1.8048
3861.00,1.8050
3860.00,1.8044
3859.00,1.8035
3858.00,1.8027
3857.00,1.8016
3856.00,1.7994
3855.00,1.7970
3854.00,1.7947
3853.00,1.7915
3852.00,1.7869
3851.00,1.7817
3850.00,1.7772
3849.00,1.7733
3848.00,1.7694
3847.00,1.7645
3846.00,1.7579
3845.00,1.7500
3844.00,1.7415
3843.00,1.7326
3842.00,1.7229
3841.00,1.7118
3840.00,1.6997
3839.00,1.6873
3838.00,1.6751
3837.00,1.6632
3836.00,1.6512
3835.00,1.6389
3834.00,1.6258
3833.00,1.6120
3832.00,1.5980
3831.00,1.5837
3830.00,1.5685
3829.00,1.5515
3828.00,1.5328
3827.00,1.5136
3826.00,1.4945
3825.00,1.4755
3824.00,1.4548
3823.00,1.4321
3822.00,1.4083
3821.00,1.3842
3820.00,1.3596
3819.00,1.3343
3818.00,1.3080
3817.00,1.2812
3816.00,1.2535
3815.00,1.2245
3814.00,1.1951
3813.00,1.1667
3812.00,1.1402
3811.00,1.1151
3810.00,1.0901
3809.00,1.0642
3808.00,1.0380
3807.00,1.0127
3806.00,0.9890
3805.00,0.9670
3804.00,0.9462
3803.00,0.9273
3802.00,0.9110
3801.00,0.8968
3800.00,0.8840
3799.00,0.8731
3798.00,0.8653
3797.00,0.8615
3796.00,0.8612
3795.00,0.8633
3794.00,0.8673
3793.00,0.8732
3792.00,0.8814
3791.00,0.8920
3790.00,0.9047
3789.00,0.9193
3788.00,0.9352
3787.00,0.9520
3786.00,0.9700
3785.00,0.9897
3784.00,1.0112
3783.00,1.0334
3782.00,1.0557
3781.00,1.0785
3780.00,1.1027
3779.00,1.1286
3778.00,1.1549
3777.00,1.1807
3776.00,1.2061
3775.00,1.2314
3774.00,1.2566
3773.00,1.2811
3772.00,1.3049
3771.00,1.3294
3770.00,1.3554
3769.00,1.3823
3768.00,1.4084
3767.00,1.4329
3766.00,1.4568
3765.00,1.4810
3764.00,1.5049
3763.00,1.5274
3762.00,1.5480
3761.00,1.5675
3760.00,1.5861
3759.00,1.6041
3758.00,1.6219
3757.00,1.6393
3756.00,1.6557
3755.00,1.6706
3754.00,1.6839
3753.00,1.6961
3752.00,1.7074
3751.00,1.7185
3750.00,1.7306
3749.00,1.7438
3748.00,1.7563
3747.00,1.7664
3746.00,1.7755
3745.00,1.7862
3744.00,1.7977
3743.00,1.8080
3742.00,1.8160
3741.00,1.8226
3740.00,1.8288
3739.00,1.8342
3738.00,1.8388
3737.00,1.8435
3736.00,1.8487
3735.00,1.8538
3734.00,1.8582
3733.00,1.8624
3732.00,1.8667
3731.00,1.8705
3730.00,1.8729
3729.00,1.8739
3728.00,1.8742
3727.00,1.8746
3726.00,1.8744
3725.00,1.8722
3724.00,1.8677
3723.00,1.8623
3722.00,1.8585
3721.00,1.8568
3720.00,1.8556
3719.00,1.8526
3718.00,1.8476
3717.00,1.8414
3716.00,1.8348
3715.00,1.8277
3714.00,1.8199
3713.00,1.8115
3712.00,1.8023
3711.00,1.7921
3710.00,1.7808
3709.00,1.7689
3708.00,1.7565
3707.00,1.7441
3706.00,1.7317
3705.00,1.7192
3704.00,1.7059
3703.00,1.6913
3702.00,1.6754
3701.00,1.6582
3700.00,1.6398
3699.00,1.6203
3698.00,1.6000
3697.00,1.5790
3696.00,1.5572
3695.00,1.5346
3694.00,1.5120
3693.00,1.4896
3692.00,1.4666
3691.00,1.4427
3690.00,1.4178
3689.00,1.3919
3688.00,1.3652
3687.00,1.3384
3686.00,1.3128
3685.00,1.2887
3684.00,1.2658
3683.00,1.2429
3682.00,1.2198
3681.00,1.1972
3680.00,1.1763
3679.00,1.1568
3678.00,1.1376
3677.00,1.1191
3676.00,1.1027
3675.00,1.0885
3674.00,1.0766
3673.00,1.0668
3672.00,1.0601
3671.00,1.0573
3670.00,1.0582
3669.00,1.0614
3668.00,1.0659
3667.00,1.0721
3666.00,1.0806
3665.00,1.0914
3664.00,1.1041
3663.00,1.1181
3662.00,1.1333
3661.00,1.1500
3660.00,1.1677
3659.00,1.1856
3658.00,1.2038
3657.00,1.2233
3656.00,1.2448
3655.00,1.2674
3654.00,1.2895
3653.00,1.3105
3652.00,1.3310
3651.00,1.3525
3650.00,1.3763
3649.00,1.4021
3648.00,1.4291
3647.00,1.4562
3646.00,1.4821
3645.00,1.5062
3644.00,1.5286
3643.00,1.5503
3642.00,1.5716
3641.00,1.5925
3640.00,1.6128
3639.00,1.6328
3638.00,1.6523
3637.00,1.6706
3636.00,1.6874
3635.00,1.7031
3634.00,1.7187
3633.00,1.7343
3632.00,1.7490
3631.00,1.7626
3630.00,1.7770
3629.00,1.7932
3628.00,1.8103
3627.00,1.8265
3626.00,1.8406
3625.00,1.8533
3624.00,1.8649
3623.00,1.8749
3622.00,1.8829
3621.00,1.8898
3620.00,1.8979
3619.00,1.9083
3618.00,1.9200
3617.00,1.9307
3616.00,1.9389
3615.00,1.9453
3614.00,1.9512
3613.00,1.9574
3612.00,1.9639
3611.00,1.9705
3610.00,1.9766
3609.00,1.9824
3608.00,1.9878
3607.00,1.9929
3606.00,1.9976
3605.00,2.0022
3604.00,2.0066
3603.00,2.0104
3602.00,2.0134
3601.00,2.0155
3600.00,2.0172
3599.00,2.0186
3598.00,2.0196
3597.00,2.0197
3596.00,2.0192
3595.00,2.0183
3594.00,2.0173
3593.00,2.0165
3592.00,2.0158
3591.00,2.0147
3590.00,2.0128
3589.00,2.0106
3588.00,2.0085
3587.00,2.0065
3586.00,2.0043
3585.00,2.0015
3584.00,1.9983
3583.00,1.9949
3582.00,1.9910
3581.00,1.9864
3580.00,1.9812
3579.00,1.9752
3578.00,1.9687
3577.00,1.9618
3576.00,1.9545
3575.00,1.9467
3574.00,1.9382
3573.00,1.9292
3572.00,1.9204
3571.00,1.9121
3570.00,1.9040
3569.00,1.8956
3568.00,1.8865
3567.00,1.8765
3566.00,1.8658
3565.00,1.8548
3564.00,1.8440
3563.00,1.8336
3562.00,1.8230
3561.00,1.8122
3560.00,1.8009
3559.00,1.7894
3558.00,1.7779
3557.00,1.7666
3556.00,1.7553
3555.00,1.7436
3554.00,1.7315
3553.00,1.7193
3552.00,1.7074
3551.00,1.6961
3550.00,1.6852
3549.00,1.6747
3548.00,1.6645
3547.00,1.6547
3546.00,1.6452
3545.00,1.6362
3544.00,1.6276
3543.00,1.6194
3542.00,1.6118
3541.00,1.6049
3540.00,1.5987
3539.00,1.5931
3538.00,1.5880
3537.00,1.5837
3536.00,1.5802
3535.00,1.5776
3534.00,1.5759
3533.00,1.5749
3532.00,1.5746
3531.00,1.5748
3530.00,1.5754
3529.00,1.5767
3528.00,1.5788
3527.00,1.5818
3526.00,1.5854
3525.00,1.5896
3524.00,1.5944
3523.00,1.5998
3522.00,1.6058
3521.00,1.6122
3520.00,1.6190
3519.00,1.6262
3518.00,1.6340
3517.00,1.6422
3516.00,1.6510
3515.00,1.6603
3514.00,1.6699
3513.00,1.6796
3512.00,1.6893
3511.00,1.6990
3510.00,1.7089
3509.00,1.7192
3508.00,1.7299
3507.00,1.7407
3506.00,1.7515
3505.00,1.7624
3504.00,1.7737
3503.00,1.7850
3502.00,1.7964
3501.00,1.8078
3500.00,1.8192
3499.00,1.8305
3498.00,1.8418
3497.00,1.8530
3496.00,1.8641
3495.00,1.8752
3494.00,1.8863
3493.00,1.8973
3492.00,1.9082
3491.00,1.9188
3490.00,1.9289
3489.00,1.9387
3488.00,1.9484
3487.00,1.9583
3486.00,1.9682
3485.00,1.9782
3484.00,1.9879
3483.00,1.9972
3482.00,2.0057
3481.00,2.0135
3480.00,2.0211
3479.00,2.0287
3478.00,2.0360
3477.00,2.0431
3476.00,2.0502
3475.00,2.0572
3474.00,2.0639
3473.00,2.0701
3472.00,2.0759
3471.00,2.0812
3470.00,2.0861
3469.00,2.0908
3468.00,2.0954
3467.00,2.0999
3466.00,2.1037
3465.00,2.1067
3464.00,2.1094
3463.00,2.1119
3462.00,2.1139
3461.00,2.1151
3460.00,2.1155
3459.00,2.1160
3458.00,2.1172
3457.00,2.1189
3456.00,2.1199
3455.00,2.1196
3454.00,2.1180
3453.00,2.1164
3452.00,2.1155
3451.00,2.1149
3450.00,2.1134
3449.00,2.1108
3448.00,2.1073
3447.00,2.1038
3446.00,2.1003
3445.00,2.0966
3444.00,2.0924
3443.00,2.0876
3442.00,2.0824
3441.00,2.0766
3440.00,2.0700
3439.00,2.0626
3438.00,2.0544
3437.00,2.0461
3436.00,2.0384
3435.00,2.0312
3434.00,2.0239
3433.00,2.0159
3432.00,2.0069
3431.00,1.9971
3430.00,1.9869
3429.00,1.9766
3428.00,1.9662
3427.00,1.9558
3426.00,1.9454
3425.00,1.9350
3424.00,1.9246
3423.00,1.9138
3422.00,1.9026
3421.00,1.8912
3420.00,1.8800
3419.00,1.8689
3418.00,1.8579
3417.00,1.8472
3416.00,1.8370
3415.00,1.8273
3414.00,1.8177
3413.00,1.8081
3412.00,1.7984
3411.00,1.7889
3410.00,1.7795
3409.00,1.7701
3408.00,1.7603
3407.00,1.7504
3406.00,1.7405
3405.00,1.7305
3404.00,1.7202
3403.00,1.7090
3402.00,1.6969
3401.00,1.6839
3400.00,1.6703
3399.00,1.6565
3398.00,1.6427
3397.00,1.6291
3396.00,1.6159
3395.00,1.6029
3394.00,1.5903
3393.00,1.5783
3392.00,1.5671
3391.00,1.5570
3390.00,1.5478
3389.00,1.5396
3388.00,1.5328
3387.00,1.5273
3386.00,1.5233
3385.00,1.5207
3384.00,1.5196
3383.00,1.5198
3382.00,1.5215
3381.00,1.5245
3380.00,1.5289
3379.00,1.5344
3378.00,1.5411
3377.00,1.5490
3376.00,1.5582
3375.00,1.5687
3374.00,1.5804
3373.00,1.5928
3372.00,1.6058
3371.00,1.6194
3370.00,1.6337
3369.00,1.6487
3368.00,1.6642
3367.00,1.6801
3366.00,1.6962
3365.00,1.7124
3364.00,1.7290
3363.00,1.7457
3362.00,1.7625
3361.00,1.7792
3360.00,1.7957
3359.00,1.8122
3358.00,1.8285
3357.00,1.8447
3356.00,1.8606
3355.00,1.8762
3354.00,1.8912
3353.00,1.9053
3352.00,1.9188
3351.00,1.9319
3350.00,1.9450
3349.00,1.9580
3348.00,1.9707
3347.00,1.9829
3346.00,1.9943
3345.00,2.0053
3344.00,2.0161
3343.00,2.0265
3342.00,2.0362
3341.00,2.0452
3340.00,2.0538
3339.00,2.0622
3338.00,2.0702
3337.00,2.0778
3336.00,2.0846
3335.00,2.0905
3334.00,2.0958
3333.00,2.1008
3332.00,2.1059
3331.00,2.1106
3330.00,2.1146
3329.00,2.1181
3328.00,2.1216
3327.00,2.1249
3326.00,2.1276
3325.00,2.1292
3324.00,2.1303
3323.00,2.1313
3322.00,2.1325
3321.00,2.1334
3320.00,2.1335
3319.00,2.1326
3318.00,2.1310
3317.00,2.1288
3316.00,2.1263
3315.00,2.1237
3314.00,2.1208
3313.00,2.1177
3312.00,2.1144
3311.00,2.1106
3310.00,2.1059
3309.00,2.1004
3308.00,2.0945
3307.00,2.0886
3306.00,2.0825
3305.00,2.0759
3304.00,2.0684
3303.00,2.0601
3302.00,2.0511
3301.00,2.0414
3300.00,2.0314
3299.00,2.0211
3298.00,2.0104
3297.00,1.9991
3296.00,1.9872
3295.00,1.9748
3294.00,1.9620
3293.00,1.9489
3292.00,1.9353
3291.00,1.9214
3290.00,1.9069
3289.00,1.8921
3288.00,1.8767
3287.00,1.8609
3286.00,1.8447
3285.00,1.8282
3284.00,1.8113
3283.00,1.7941
3282.00,1.7768
3281.00,1.7593
3280.00,1.7415
3279.00,1.7234
3278.00,1.7054
3277.00,1.6876
3276.00,1.6699
3275.00,1.6525
3274.00,1.6352
3273.00,1.6184
3272.00,1.6022
3271.00,1.5867
3270.00,1.5721
3269.00,1.5583
3268.00,1.5454
3267.00,1.5332
3266.00,1.5221
3265.00,1.5123
3264.00,1.5038
3263.00,1.4968
3262.00,1.4912
3261.00,1.4870
3260.00,1.4841
3259.00,1.4827
3258.00,1.4829
3257.00,1.4846
3256.00,1.4878
3255.00,1.4924
3254.00,1.4983
3253.00,1.5055
3252.00,1.5141
3251.00,1.5240
3250.00,1.5349
3249.00,1.5467
3248.00,1.5591
3247.00,1.5723
3246.00,1.5864
3245.00,1.6014
3244.00,1.6170
3243.00,1.6329
3242.00,1.6492
3241.00,1.6659
3240.00,1.6831
3239.00,1.7007
3238.00,1.7184
3237.00,1.7361
3236.00,1.7538
3235.00,1.7716
3234.00,1.7893
3233.00,1.8072
3232.00,1.8250
3231.00,1.8424
3230.00,1.8592
3229.00,1.8758
3228.00,1.8924
3227.00,1.9089
3226.00,1.9251
3225.00,1.9406
3224.00,1.9554
3223.00,1.9698
3222.00,1.9839
3221.00,1.9976
3220.00,2.0106
3219.00,2.0232
3218.00,2.0354
3217.00,2.0473
3216.00,2.0588
3215.00,2.0696
3214.00,2.0797
3213.00,2.0893
3212.00,2.0987
3211.00,2.1080
3210.00,2.1170
3209.00,2.1252
3208.00,2.1325
3207.00,2.1391
3206.00,2.1455
3205.00,2.1521
3204.00,2.1585
3203.00,2.1643
3202.00,2.1691
3201.00,2.1732
3200.00,2.1771
3199.00,2.1810
3198.00,2.1849
3197.00,2.1883
3196.00,2.1907
3195.00,2.1922
3194.00,2.1931
3193.00,2.1938
3192.00,2.1943
3191.00,2.1946
3190.00,2.1946
3189.00,2.1942
3188.00,2.1933
3187.00,2.1918
3186.00,2.1899
3185.00,2.1878
3184.00,2.1855
3183.00,2.1828
3182.00,2.1797
3181.00,2.1765
3180.00,2.1731
3179.00,2.1691
3178.00,2.1643
3177.00,2.1591
3176.00,2.1537
3175.00,2.1480
3174.00,2.1418
3173.00,2.1349
3172.00,2.1272
3171.00,2.1189
3170.00,2.1101
3169.00,2.1008
3168.00,2.0913
3167.00,2.0813
3166.00,2.0707
3165.00,2.0594
3164.00,2.0477
3163.00,2.0354
3162.00,2.0228
3161.00,2.0098
3160.00,1.9964
3159.00,1.9824
3158.00,1.9676
3157.00,1.9521
3156.00,1.9361
3155.00,1.9195
3154.00,1.9025
3153.00,1.8849
3152.00,1.8671
3151.00,1.8491
3150.00,1.8311
3149.00,1.8129
3148.00,1.7945
3147.00,1.7759
3146.00,1.7572
3145.00,1.7387
3144.00,1.7204
3143.00,1.7025
3142.00,1.6850
3141.00,1.6682
3140.00,1.6519
3139.00,1.6364
3138.00,1.6215
3137.00,1.6077
3136.00,1.5950
3135.00,1.5836
3134.00,1.5735
3133.00,1.5650
3132.00,1.5581
3131.00,1.5530
3130.00,1.5495
3129.00,1.5476
3128.00,1.5472
3127.00,1.5485
3126.00,1.5514
3125.00,1.5560
3124.00,1.5622
3123.00,1.5699
3122.00,1.5791
3121.00,1.5897
3120.00,1.6018
3119.00,1.6151
3118.00,1.6294
3117.00,1.6446
3116.00,1.6605
3115.00,1.6771
3114.00,1.6943
3113.00,1.7121
3112.00,1.7306
3111.00,1.7497
3110.00,1.7691
3109.00,1.7886
3108.00,1.8081
3107.00,1.8275
3106.00,1.8466
3105.00,1.8657
3104.00,1.8848
3103.00,1.9039
3102.00,1.9229
3101.00,1.9417
3100.00,1.9600
3099.00,1.9779
3098.00,1.9953
3097.00,2.0123
3096.00,2.0288
3095.00,2.0448
3094.00,2.0600
3093.00,2.0746
3092.00,2.0885
3091.00,2.1020
3090.00,2.1154
3089.00,2.1286
3088.00,2.1412
3087.00,2.1534
3086.00,2.1650
3085.00,2.1764
3084.00,2.1874
3083.00,2.1975
3082.00,2.2062
3081.00,2.2136
3080.00,2.2200
3079.00,2.2260
3078.00,2.2322
3077.00,2.2384
3076.00,2.2441
3075.00,2.2487
3074.00,2.2522
3073.00,2.2552
3072.00,2.2584
3071.00,2.2618
3070.00,2.2650
3069.00,2.2676
3068.00,2.2696
3067.00,2.2711
3066.00,2.2716
3065.00,2.2711
3064.00,2.2699
3063.00,2.2683
3062.00,2.2662
3061.00,2.2634
3060.00,2.2597
3059.00,2.2553
3058.00,2.2509
3057.00,2.2463
3056.00,2.2410
3055.00,2.2345
3054.00,2.2266
3053.00,2.2182
3052.00,2.2098
3051.00,2.2015
3050.00,2.1925
3049.00,2.1824
3048.00,2.1710
3047.00,2.1585
3046.00,2.1451
3045.00,2.1307
3044.00,2.1154
3043.00,2.0995
3042.00,2.0832
3041.00,2.0664
3040.00,2.0487
3039.00,2.0302
3038.00,2.0110
3037.00,1.9912
3036.00,1.9708
3035.00,1.9499
3034.00,1.9285
3033.00,1.9067
3032.00,1.8848
3031.00,1.8629
3030.00,1.8414
3029.00,1.8204
3028.00,1.8001
3027.00,1.7803
3026.00,1.7616
3025.00,1.7443
3024.00,1.7288
3023.00,1.7151
3022.00,1.7034
3021.00,1.6939
3020.00,1.6870
3019.00,1.6828
3018.00,1.6813
3017.00,1.6826
3016.00,1.6870
3015.00,1.6944
3014.00,1.7050
3013.00,1.7185
3012.00,1.7348
3011.00,1.7537
3010.00,1.7752
3009.00,1.7993
3008.00,1.8257
3007.00,1.8538
3006.00,1.8832
3005.00,1.9133
3004.00,1.9441
3003.00,1.9753
3002.00,2.0070
3001.00,2.0387
3000.00,2.0701
2999.00,2.1011
2998.00,2.1316
2997.00,2.1616
2996.00,2.1910
2995.00,2.2196
2994.00,2.2471
2993.00,2.2735
2992.00,2.2983
2991.00,2.3216
2990.00,2.3438
2989.00,2.3655
2988.00,2.3865
2987.00,2.4065
2986.00,2.4250
2985.00,2.4422
2984.00,2.4589
2983.00,2.4762
2982.00,2.4943
2981.00,2.5128
2980.00,2.5312
2979.00,2.5505
2978.00,2.5732
2977.00,2.6011
2976.00,2.6347
2975.00,2.6729
2974.00,2.7155
2973.00,2.7629
2972.00,2.8156
2971.00,2.8738
2970.00,2.9383
2969.00,3.0102
2968.00,3.0884
2967.00,3.1690
2966.00,3.2483
2965.00,3.3243
2964.00,3.3966
2963.00,3.4659
2962.00,3.5366
2961.00,3.6133
2960.00,3.6898
2959.00,3.7467
2958.00,3.7721
2957.00,3.7818
2956.00,3.8020
2955.00,3.8491
2954.00,3.9302
2953.00,4.0447
2952.00,4.1576
2951.00,4.2034
2950.00,4.1988
2949.00,4.2164
2948.00,4.2781
2947.00,4.3365
2946.00,4.3867
2945.00,4.4626
2944.00,4.5247
2943.00,4.5195
2942.00,4.4656
2941.00,4.4268
2940.00,4.4264
2939.00,4.4529
2938.00,4.4860
2937.00,4.4672
2936.00,4.3882
2935.00,4.3013
2934.00,4.2471
2933.00,4.2547
2932.00,4.3367
2931.00,4.4618
2930.00,4.5057
2929.00,4.4252
2928.00,4.3389
2927.00,4.3398
2926.00,4.4117
2925.00,4.4001
2924.00,4.2529
2923.00,4.0921
2922.00,3.9842
2921.00,3.9147
2920.00,3.8532
2919.00,3.7860
2918.00,3.7032
2917.00,3.6074
2916.00,3.5105
2915.00,3.4212
2914.00,3.3436
2913.00,3.2789
2912.00,3.2272
2911.00,3.1877
2910.00,3.1587
2909.00,3.1366
2908.00,3.1169
2907.00,3.0964
2906.00,3.0737
2905.00,3.0491
2904.00,3.0230
2903.00,2.9961
2902.00,2.9706
2901.00,2.9484
2900.00,2.9300
2899.00,2.9140
2898.00,2.8986
2897.00,2.8829
2896.00,2.8679
2895.00,2.8560
2894.00,2.8493
2893.00,2.8474
2892.00,2.8474
2891.00,2.8461
2890.00,2.8427
2889.00,2.8384
2888.00,2.8345
2887.00,2.8325
2886.00,2.8341
2885.00,2.8408
2884.00,2.8526
2883.00,2.8673
2882.00,2.8830
2881.00,2.8995
2880.00,2.9178
2879.00,2.9399
2878.00,2.9686
2877.00,3.0055
2876.00,3.0496
2875.00,3.0980
2874.00,3.1504
2873.00,3.2095
2872.00,3.2765
2871.00,3.3460
2870.00,3.4108
2869.00,3.4700
2868.00,3.5297
2867.00,3.5955
2866.00,3.6706
2865.00,3.7561
2864.00,3.8426
2863.00,3.8973
2862.00,3.8863
2861.00,3.8188
2860.00,3.7302
2859.00,3.6411
2858.00,3.5567
2857.00,3.4738
2856.00,3.3841
2855.00,3.2826
2854.00,3.1750
2853.00,3.0727
2852.00,2.9829
2851.00,2.9060
2850.00,2.8391
2849.00,2.7798
2848.00,2.7274
2847.00,2.6821
2846.00,2.6448
2845.00,2.6158
2844.00,2.5941
2843.00,2.5774
2842.00,2.5630
2841.00,2.5490
2840.00,2.5347
2839.00,2.5206
2838.00,2.5071
2837.00,2.4940
2836.00,2.4809
2835.00,2.4673
2834.00,2.4534
2833.00,2.4394
2832.00,2.4251
2831.00,2.4099
2830.00,2.3937
2829.00,2.3769
2828.00,2.3600
2827.00,2.3428
2826.00,2.3246
2825.00,2.3047
2824.00,2.2826
2823.00,2.2582
2822.00,2.2315
2821.00,2.2030
2820.00,2.1729
2819.00,2.1411
2818.00,2.1076
2817.00,2.0724
2816.00,2.0355
2815.00,1.9972
2814.00,1.9581
2813.00,1.9188
2812.00,1.8799
2811.00,1.8417
2810.00,1.8045
2809.00,1.7686
2808.00,1.7345
2807.00,1.7028
2806.00,1.6739
2805.00,1.6488
2804.00,1.6283
2803.00,1.6128
2802.00,1.6026
2801.00,1.5974
2800.00,1.5967
2799.00,1.5998
2798.00,1.6056
2797.00,1.6136
2796.00,1.6231
2795.00,1.6339
2794.00,1.6459
2793.00,1.6596
2792.00,1.6754
2791.00,1.6937
2790.00,1.7144
2789.00,1.7373
2788.00,1.7621
2787.00,1.7887
2786.00,1.8165
2785.00,1.8453
2784.00,1.8746
2783.00,1.9042
2782.00,1.9340
2781.00,1.9637
2780.00,1.9932
2779.00,2.0218
2778.00,2.0492
2777.00,2.0754
2776.00,2.1004
2775.00,2.1241
2774.00,2.1465
2773.00,2.1678
2772.00,2.1882
2771.00,2.2079
2770.00,2.2267
2769.00,2.2447
2768.00,2.2620
2767.00,2.2783
2766.00,2.2933
2765.00,2.3071
2764.00,2.3205
2763.00,2.3336
2762.00,2.3455
2761.00,2.3556
2760.00,2.3640
2759.00,2.3712
2758.00,2.3777
2757.00,2.3836
2756.00,2.3894
2755.00,2.3953
2754.00,2.4014
2753.00,2.4075
2752.00,2.4130
2751.00,2.4171
2750.00,2.4193
2749.00,2.4200
2748.00,2.4207
2747.00,2.4221
2746.00,2.4231
2745.00,2.4225
2744.00,2.4204
2743.00,2.4181
2742.00,2.4163
2741.00,2.4144
2740.00,2.4117
2739.00,2.4081
2738.00,2.4039
2737.00,2.3987
2736.00,2.3917
2735.00,2.3827
2734.00,2.3729
2733.00,2.3634
2732.00,2.3542
2731.00,2.3445
2730.00,2.3340
2729.00,2.3231
2728.00,2.3120
2727.00,2.3002
2726.00,2.2871
2725.00,2.2727
2724.00,2.2574
2723.00,2.2414
2722.00,2.2247
2721.00,2.2071
2720.00,2.1884
2719.00,2.1687
2718.00,2.1481
2717.00,2.1265
2716.00,2.1039
2715.00,2.0799
2714.00,2.0545
2713.00,2.0279
2712.00,2.0001
2711.00,1.9708
2710.00,1.9399
2709.00,1.9076
2708.00,1.8744
2707.00,1.8404
2706.00,1.8056
2705.00,1.7700
2704.00,1.7338
2703.00,1.6975
2702.00,1.6614
2701.00,1.6262
2700.00,1.5920
2699.00,1.5592
2698.00,1.5284
2697.00,1.4999
2696.00,1.4742
2695.00,1.4519
2694.00,1.4332
2693.00,1.4185
2692.00,1.4082
2691.00,1.4026
2690.00,1.4018
2689.00,1.4061
2688.00,1.4153
2687.00,1.4294
2686.00,1.4480
2685.00,1.4707
2684.00,1.4969
2683.00,1.5258
2682.00,1.5568
2681.00,1.5891
2680.00,1.6218
2679.00,1.6544
2678.00,1.6860
2677.00,1.7163
2676.00,1.7452
2675.00,1.7727
2674.00,1.7989
2673.00,1.8242
2672.00,1.8489
2671.00,1.8730
2670.00,1.8960
2669.00,1.9177
2668.00,1.9378
2667.00,1.9569
2666.00,1.9754
2665.00,1.9943
2664.00,2.0144
2663.00,2.0358
2662.00,2.0580
2661.00,2.0805
2660.00,2.1033
2659.00,2.1265
2658.00,2.1500
2657.00,2.1730
2656.00,2.1947
2655.00,2.2151
2654.00,2.2346
2653.00,2.2534
2652.00,2.2714
2651.00,2.2885
2650.00,2.3043
2649.00,2.3190
2648.00,2.3326
2647.00,2.3454
2646.00,2.3574
2645.00,2.3689
2644.00,2.3801
2643.00,2.3912
2642.00,2.4020
2641.00,2.4121
2640.00,2.4214
2639.00,2.4301
2638.00,2.4386
2637.00,2.4466
2636.00,2.4536
2635.00,2.4593
2634.00,2.4646
2633.00,2.4704
2632.00,2.4772
2631.00,2.4843
2630.00,2.4909
2629.00,2.4964
2628.00,2.5002
2627.00,2.5023
2626.00,2.5034
2625.00,2.5045
2624.00,2.5064
2623.00,2.5083
2622.00,2.5093
2621.00,2.5090
2620.00,2.5080
2619.00,2.5066
2618.00,2.5047
2617.00,2.5016
2616.00,2.4973
2615.00,2.4925
2614.00,2.4878
2613.00,2.4833
2612.00,2.4784
2611.00,2.4728
2610.00,2.4672
2609.00,2.4622
2608.00,2.4574
2607.00,2.4519
2606.00,2.4447
2605.00,2.4357
2604.00,2.4252
2603.00,2.4140
2602.00,2.4022
2601.00,2.3899
2600.00,2.3770
2599.00,2.3633
2598.00,2.3487
2597.00,2.3332
2596.00,2.3171
2595.00,2.3003
2594.00,2.2824
2593.00,2.2636
2592.00,2.2439
2591.00,2.2236
2590.00,2.2030
2589.00,2.1815
2588.00,2.1589
2587.00,2.1348
2586.00,2.1093
2585.00,2.0828
2584.00,2.0556
2583.00,2.0273
2582.00,1.9979
2581.00,1.9672
2580.00,1.9352
2579.00,1.9018
2578.00,1.8672
2577.00,1.8315
2576.00,1.7951
2575.00,1.7583
2574.00,1.7215
2573.00,1.6849
2572.00,1.6488
2571.00,1.6133
2570.00,1.5787
2569.00,1.5454
2568.00,1.5137
2567.00,1.4841
2566.00,1.4570
2565.00,1.4328
2564.00,1.4119
2563.00,1.3947
2562.00,1.3814
2561.00,1.3723
2560.00,1.3679
2559.00,1.3683
2558.00,1.3735
2557.00,1.3833
2556.00,1.3974
2555.00,1.4155
2554.00,1.4374
2553.00,1.4625
2552.00,1.4906
2551.00,1.5210
2550.00,1.5533
2549.00,1.5870
2548.00,1.6219
2547.00,1.6576
2546.00,1.6939
2545.00,1.7307
2544.00,1.7677
2543.00,1.8047
2542.00,1.8412
2541.00,1.8771
2540.00,1.9122
2539.00,1.9466
2538.00,1.9799
2537.00,2.0121
2536.00,2.0430
2535.00,2.0729
2534.00,2.1019
2533.00,2.1302
2532.00,2.1572
2531.00,2.1827
2530.00,2.2066
2529.00,2.2294
2528.00,2.2511
2527.00,2.2719
2526.00,2.2916
2525.00,2.3108
2524.00,2.3297
2523.00,2.3481
2522.00,2.3656
2521.00,2.3818
2520.00,2.3969
2519.00,2.4112
2518.00,2.4250
2517.00,2.4386
2516.00,2.4517
2515.00,2.4640
2514.00,2.4752
2513.00,2.4858
2512.00,2.4962
2511.00,2.5064
2510.00,2.5158
2509.00,2.5236
2508.00,2.5302
2507.00,2.5366
2506.00,2.5436
2505.00,2.5510
2504.00,2.5579
2503.00,2.5635
2502.00,2.5680
2501.00,2.5722
2500.00,2.5761
2499.00,2.5792
2498.00,2.5809
2497.00,2.5819
2496.00,2.5829
2495.00,2.5841
2494.00,2.5854
2493.00,2.5867
2492.00,2.5872
2491.00,2.5861
2490.00,2.5833
2489.00,2.5796
2488.00,2.5760
2487.00,2.5729
2486.00,2.5699
2485.00,2.5666
2484.00,2.5627
2483.00,2.5580
2482.00,2.5529
2481.00,2.5479
2480.00,2.5426
2479.00,2.5359
2478.00,2.5266
2477.00,2.5153
2476.00,2.5042
2475.00,2.4949
2474.00,2.4872
2473.00,2.4789
2472.00,2.4683
2471.00,2.4550
2470.00,2.4402
2469.00,2.4254
2468.00,2.4111
2467.00,2.3968
2466.00,2.3815
2465.00,2.3652
2464.00,2.3479
2463.00,2.3297
2462.00,2.3104
2461.00,2.2897
2460.00,2.2680
2459.00,2.2452
2458.00,2.2211
2457.00,2.1956
2456.00,2.1687
2455.00,2.1407
2454.00,2.1112
2453.00,2.0802
2452.00,2.0478
2451.00,2.0138
2450.00,1.9783
2449.00,1.9410
2448.00,1.9018
2447.00,1.8608
2446.00,1.8182
2445.00,1.7744
2444.00,1.7297
2443.00,1.6846
2442.00,1.6396
2441.00,1.5953
2440.00,1.5523
2439.00,1.5110
2438.00,1.4721
2437.00,1.4363
2436.00,1.4045
2435.00,1.3774
2434.00,1.3556
2433.00,1.3395
2432.00,1.3295
2431.00,1.3257
2430.00,1.3278
2429.00,1.3355
2428.00,1.3484
2427.00,1.3660
2426.00,1.3877
2425.00,1.4130
2424.00,1.4414
2423.00,1.4725
2422.00,1.5058
2421.00,1.5409
2420.00,1.5775
2419.00,1.6153
2418.00,1.6539
2417.00,1.6932
2416.00,1.7329
2415.00,1.7729
2414.00,1.8129
2413.00,1.8527
2412.00,1.8925
2411.00,1.9319
2410.00,1.9708
2409.00,2.0089
2408.00,2.0456
2407.00,2.0809
2406.00,2.1145
2405.00,2.1465
2404.00,2.1772
2403.00,2.2067
2402.00,2.2353
2401.00,2.2628
2400.00,2.2888
2399.00,2.3133
2398.00,2.3368
2397.00,2.3595
2396.00,2.3810
2395.00,2.4012
2394.00,2.4186
2393.00,2.4351
2392.00,2.4467
2391.00,2.4631
2390.00,2.4915
2389.00,2.5057
2388.00,2.5229
2387.00,2.5370
2386.00,2.5501
2385.00,2.5613
2384.00,2.5722
2383.00,2.5825
2382.00,2.5926
2381.00,2.6025
2380.00,2.6119
2379.00,2.6208
2378.00,2.6290
2377.00,2.6364
2376.00,2.6428
2375.00,2.6482
2374.00,2.6539
2373.00,2.6613
2372.00,2.6706
2371.00,2.6803
2370.00,2.6888
2369.00,2.6961
2368.00,2.7029
2367.00,2.7082
2366.00,2.7100
2365.00,2.7084
2364.00,2.7058
2363.00,2.7048
2362.00,2.7058
2361.00,2.7074
2360.00,2.7084
2359.00,2.7075
2358.00,2.7040
2357.00,2.6978
2356.00,2.6902
2355.00,2.6827
2354.00,2.6760
2353.00,2.6693
2352.00,2.6621
2351.00,2.6542
2350.00,2.6461
2349.00,2.6386
2348.00,2.6324
2347.00,2.6271
2346.00,2.6217
2345.00,2.6151
2344.00,2.6072
2343.00,2.5954
2342.00,2.5867
2341.00,2.5659
2340.00,2.5628
2339.00,2.5280
2338.00,2.5539
2337.00,2.4495
2336.00,2.1973
2335.00,2.2051
2334.00,2.1726
2333.00,2.1507
2332.00,2.1212
2331.00,2.0937
2330.00,2.0695
2329.00,2.0469
2328.00,2.0246
2327.00,2.0022
2326.00,1.9785
2325.00,1.9559
2324.00,1.9318
2323.00,1.9088
2322.00,1.8868
2321.00,1.8678
2320.00,1.8513
2319.00,1.8346
2318.00,1.8170
2317.00,1.7951
2316.00,1.7704
2315.00,1.7410
2314.00,1.7094
2313.00,1.6741
2312.00,1.6374
2311.00,1.5981
2310.00,1.5591
2309.00,1.5204
2308.00,1.4843
2307.00,1.4505
2306.00,1.4202
2305.00,1.3931
2304.00,1.3709
2303.00,1.3536
2302.00,1.3428
2301.00,1.3379
2300.00,1.3402
2299.00,1.3484
2298.00,1.3631
2297.00,1.3831
2296.00,1.4083
2295.00,1.4375
2294.00,1.4700
2293.00,1.5048
2292.00,1.5415
2291.00,1.5796
2290.00,1.6187
2289.00,1.6590
2288.00,1.7004
2287.00,1.7431
2286.00,1.7866
2285.00,1.8306
2284.00,1.8742
2283.00,1.9175
2282.00,1.9603
2281.00,2.0026
2280.00,2.0439
2279.00,2.0836
2278.00,2.1218
2277.00,2.1587
2276.00,2.1949
2275.00,2.2301
2274.00,2.2635
2273.00,2.2944
2272.00,2.3230
2271.00,2.3498
2270.00,2.3757
2269.00,2.4007
2268.00,2.4244
2267.00,2.4461
2266.00,2.4664
2265.00,2.4862
2264.00,2.5060
2263.00,2.5258
2262.00,2.5450
2261.00,2.5630
2260.00,2.5788
2259.00,2.5923
2258.00,2.6046
2257.00,2.6171
2256.00,2.6306
2255.00,2.6443
2254.00,2.6572
2253.00,2.6692
2252.00,2.6802
2251.00,2.6896
2250.00,2.6972
2249.00,2.7033
2248.00,2.7089
2247.00,2.7144
2246.00,2.7197
2245.00,2.7250
2244.00,2.7304
2243.00,2.7359
2242.00,2.7411
2241.00,2.7457
2240.00,2.7500
2239.00,2.7545
2238.00,2.7592
2237.00,2.7632
2236.00,2.7656
2235.00,2.7667
2234.00,2.7675
2233.00,2.7687
2232.00,2.7697
2231.00,2.7695
2230.00,2.7681
2229.00,2.7666
2228.00,2.7658
2227.00,2.7654
2226.00,2.7644
2225.00,2.7616
2224.00,2.7569
2223.00,2.7506
2222.00,2.7439
2221.00,2.7375
2220.00,2.7312
2219.00,2.7238
2218.00,2.7145
2217.00,2.7038
2216.00,2.6929
2215.00,2.6830
2214.00,2.6742
2213.00,2.6657
2212.00,2.6564
2211.00,2.6462
2210.00,2.6359
2209.00,2.6253
2208.00,2.6135
2207.00,2.5991
2206.00,2.5822
2205.00,2.5643
2204.00,2.5461
2203.00,2.5271
2202.00,2.5064
2201.00,2.4844
2200.00,2.4620
2199.00,2.4395
2198.00,2.4166
2197.00,2.3926
2196.00,2.3672
2195.00,2.3402
2194.00,2.3116
2193.00,2.2811
2192.00,2.2487
2191.00,2.2142
2190.00,2.1780
2189.00,2.1404
2188.00,2.1018
2187.00,2.0620
2186.00,2.0207
2185.00,1.9778
2184.00,1.9338
2183.00,1.8892
2182.00,1.8450
2181.00,1.8017
2180.00,1.7599
2179.00,1.7200
2178.00,1.6822
2177.00,1.6466
2176.00,1.6132
2175.00,1.5819
2174.00,1.5530
2173.00,1.5269
2172.00,1.5044
2171.00,1.4862
2170.00,1.4733
2169.00,1.4667
2168.00,1.4666
2167.00,1.4733
2166.00,1.4863
2165.00,1.5056
2164.00,1.5306
2163.00,1.5608
2162.00,1.5953
2161.00,1.6335
2160.00,1.6744
2159.00,1.7174
2158.00,1.7618
2157.00,1.8073
2156.00,1.8536
2155.00,1.9004
2154.00,1.9473
2153.00,1.9941
2152.00,2.0403
2151.00,2.0857
2150.00,2.1295
2149.00,2.1713
2148.00,2.2111
2147.00,2.2490
2146.00,2.2856
2145.00,2.3208
2144.00,2.3543
2143.00,2.3856
2142.00,2.4148
2141.00,2.4427
2140.00,2.4696
2139.00,2.4955
2138.00,2.5196
2137.00,2.5416
2136.00,2.5614
2135.00,2.5794
2134.00,2.5962
2133.00,2.6129
2132.00,2.6303
2131.00,2.6488
2130.00,2.6676
2129.00,2.6851
2128.00,2.6997
2127.00,2.7107
2126.00,2.7195
2125.00,2.7291
2124.00,2.7414
2123.00,2.7553
2122.00,2.7677
2121.00,2.7771
2120.00,2.7845
2119.00,2.7927
2118.00,2.8030
2117.00,2.8142
2116.00,2.8239
2115.00,2.8305
2114.00,2.8344
2113.00,2.8375
2112.00,2.8416
2111.00,2.8471
2110.00,2.8529
2109.00,2.8572
2108.00,2.8592
2107.00,2.8602
2106.00,2.8625
2105.00,2.8667
2104.00,2.8713
2103.00,2.8736
2102.00,2.8719
2101.00,2.8672
2100.00,2.8619
2099.00,2.8580
2098.00,2.8564
2097.00,2.8562
2096.00,2.8562
2095.00,2.8552
2094.00,2.8529
2093.00,2.8488
2092.00,2.8428
2091.00,2.8359
2090.00,2.8297
2089.00,2.8252
2088.00,2.8211
2087.00,2.8146
2086.00,2.8047
2085.00,2.7927
2084.00,2.7808
2083.00,2.7699
2082.00,2.7597
2081.00,2.7493
2080.00,2.7381
2079.00,2.7256
2078.00,2.7115
2077.00,2.6959
2076.00,2.6790
2075.00,2.6609
2074.00,2.6420
2073.00,2.6224
2072.00,2.6023
2071.00,2.5816
2070.00,2.5602
2069.00,2.5377
2068.00,2.5139
2067.00,2.4891
2066.00,2.4644
2065.00,2.4405
2064.00,2.4166
2063.00,2.3912
2062.00,2.3633
2061.00,2.3329
2060.00,2.3006
2059.00,2.2663
2058.00,2.2295
2057.00,2.1898
2056.00,2.1471
2055.00,2.1013
2054.00,2.0523
2053.00,2.0007
2052.00,1.9469
2051.00,1.8917
2050.00,1.8360
2049.00,1.7806
2048.00,1.7267
2047.00,1.6754
2046.00,1.6277
2045.00,1.5847
2044.00,1.5478
2043.00,1.5184
2042.00,1.4976
2041.00,1.4857
2040.00,1.4828
2039.00,1.4884
2038.00,1.5022
2037.00,1.5236
2036.00,1.5517
2035.00,1.5852
2034.00,1.6232
2033.00,1.6648
2032.00,1.7094
2031.00,1.7561
2030.00,1.8044
2029.00,1.8540
2028.00,1.9046
2027.00,1.9558
2026.00,2.0068
2025.00,2.0572
2024.00,2.1063
2023.00,2.1536
2022.00,2.1986
2021.00,2.2413
2020.00,2.2820
2019.00,2.3212
2018.00,2.3597
2017.00,2.3973
2016.00,2.4333
2015.00,2.4663
2014.00,2.4961
2013.00,2.5235
2012.00,2.5498
2011.00,2.5759
2010.00,2.6020
2009.00,2.6272
2008.00,2.6502
2007.00,2.6706
2006.00,2.6892
2005.00,2.7076
2004.00,2.7261
2003.00,2.7442
2002.00,2.7617
2001.00,2.7793
2000.00,2.7965
1999.00,2.8122
1998.00,2.8256
1997.00,2.8373
1996.00,2.8483
1995.00,2.8590
1994.00,2.8700
1993.00,2.8814
1992.00,2.8914
1991.00,2.8980
1990.00,2.9021
1989.00,2.9073
1988.00,2.9154
1987.00,2.9246
1986.00,2.9325
1985.00,2.9390
1984.00,2.9444
1983.00,2.9483
1982.00,2.9503
1981.00,2.9521
1980.00,2.9554
1979.00,2.9603
1978.00,2.9650
1977.00,2.9687
1976.00,2.9710
1975.00,2.9714
1974.00,2.9697
1973.00,2.9671
1972.00,2.9639
1971.00,2.9593
1970.00,2.9521
1969.00,2.9442
1968.00,2.9385
1967.00,2.9359
1966.00,2.9348
1965.00,2.9330
1964.00,2.9298
1963.00,2.9250
1962.00,2.9190
1961.00,2.9123
1960.00,2.9038
1959.00,2.8925
1958.00,2.8799
1957.00,2.8698
1956.00,2.8634
1955.00,2.8572
1954.00,2.8474
1953.00,2.8339
1952.00,2.8192
1951.00,2.8045
1950.00,2.7891
1949.00,2.7722
1948.00,2.7545
1947.00,2.7362
1946.00,2.7172
1945.00,2.6972
1944.00,2.6762
1943.00,2.6547
1942.00,2.6329
1941.00,2.6111
1940.00,2.5887
1939.00,2.5637
1938.00,2.5346
1937.00,2.5024
1936.00,2.4681
1935.00,2.4318
1934.00,2.3932
1933.00,2.3527
1932.00,2.3101
1931.00,2.2647
1930.00,2.2163
1929.00,2.1649
1928.00,2.1108
1927.00,2.0533
1926.00,1.9924
1925.00,1.9299
1924.00,1.8692
1923.00,1.8139
1922.00,1.7655
1921.00,1.7234
1920.00,1.6846
1919.00,1.6473
1918.00,1.6143
1917.00,1.5905
1916.00,1.5789
1915.00,1.5786
1914.00,1.5873
1913.00,1.6034
1912.00,1.6265
1911.00,1.6571
1910.00,1.6952
1909.00,1.7402
1908.00,1.7900
1907.00,1.8420
1906.00,1.8949
1905.00,1.9484
1904.00,2.0025
1903.00,2.0570
1902.00,2.1114
1901.00,2.1653
1900.00,2.2178
1899.00,2.2679
1898.00,2.3153
1897.00,2.3610
1896.00,2.4058
1895.00,2.4504
1894.00,2.4941
1893.00,2.5358
1892.00,2.5737
1891.00,2.6072
1890.00,2.6370
1889.00,2.6637
1888.00,2.6889
1887.00,2.7146
1886.00,2.7414
1885.00,2.7679
1884.00,2.7926
1883.00,2.8161
1882.00,2.8386
1881.00,2.8584
1880.00,2.8737
1879.00,2.8854
1878.00,2.8974
1877.00,2.9121
1876.00,2.9285
1875.00,2.9443
1874.00,2.9597
1873.00,2.9748
1872.00,2.9874
1871.00,2.9939
1870.00,2.9960
1869.00,2.9998
1868.00,3.0086
1867.00,3.0209
1866.00,3.0340
1865.00,3.0438
1864.00,3.0474
1863.00,3.0455
1862.00,3.0421
1861.00,3.0419
1860.00,3.0463
1859.00,3.0527
1858.00,3.0569
1857.00,3.0579
1856.00,3.0579
1855.00,3.0595
1854.00,3.0614
1853.00,3.0600
1852.00,3.0533
1851.00,3.0422
1850.00,3.0302
1849.00,3.0215
1848.00,3.0192
1847.00,3.0223
1846.00,3.0237
1845.00,3.0174
1844.00,3.0053
1843.00,2.9934
1842.00,2.9832
1841.00,2.9717
1840.00,2.9567
1839.00,2.9393
1838.00,2.9232
1837.00,2.9101
1836.00,2.8989
1835.00,2.8880
1834.00,2.8765
1833.00,2.8617
1832.00,2.8395
1831.00,2.8101
1830.00,2.7790
1829.00,2.7506
1828.00,2.7250
1827.00,2.6970
1826.00,2.6607
1825.00,2.6173
1824.00,2.5725
1823.00,2.5304
1822.00,2.4897
1821.00,2.4476
1820.00,2.4027
1819.00,2.3557
1818.00,2.3085
1817.00,2.2627
1816.00,2.2208
1815.00,2.1853
1814.00,2.1573
1813.00,2.1375
1812.00,2.1261
1811.00,2.1223
1810.00,2.1248
1809.00,2.1321
1808.00,2.1428
1807.00,2.1545
1806.00,2.1651
1805.00,2.1743
1804.00,2.1833
1803.00,2.1937
1802.00,2.2069
1801.00,2.2231
1800.00,2.2421
1799.00,2.2656
1798.00,2.2971
1797.00,2.3395
1796.00,2.3922
1795.00,2.4495
1794.00,2.5033
1793.00,2.5522
1792.00,2.6012
1791.00,2.6524
1790.00,2.7042
1789.00,2.7548
1788.00,2.8030
1787.00,2.8470
1786.00,2.8864
1785.00,2.9220
1784.00,2.9542
1783.00,2.9828
1782.00,3.0093
1781.00,3.0370
1780.00,3.0658
1779.00,3.0912
1778.00,3.1095
1777.00,3.1220
1776.00,3.1348
1775.00,3.1511
1774.00,3.1678
1773.00,3.1835
1772.00,3.2012
1771.00,3.2212
1770.00,3.2413
1769.00,3.2586
1768.00,3.2706
1767.00,3.2764
1766.00,3.2772
1765.00,3.2764
1764.00,3.2747
1763.00,3.2683
1762.00,3.2540
1761.00,3.2330
1760.00,3.2115
1759.00,3.1941
1758.00,3.1798
1757.00,3.1664
1756.00,3.1559
1755.00,3.1512
1754.00,3.1520
1753.00,3.1559
1752.00,3.1642
1751.00,3.1856
1750.00,3.2256
1749.00,3.2773
1748.00,3.3293
1747.00,3.3773
1746.00,3.4284
1745.00,3.4936
1744.00,3.5797
1743.00,3.6801
1742.00,3.7711
1741.00,3.8259
1740.00,3.8490
1739.00,3.8797
1738.00,3.9498
1737.00,4.0586
1736.00,4.1666
1735.00,4.2203
1734.00,4.2202
1733.00,4.2295
1732.00,4.2622
1731.00,4.2820
1730.00,4.2919
1729.00,4.3057
1728.00,4.3152
1727.00,4.3331
1726.00,4.3852
1725.00,4.4346
1724.00,4.4211
1723.00,4.3864
1722.00,4.4366
1721.00,4.6017
1720.00,4.5768
1719.00,4.4047
1718.00,4.4255
1717.00,4.5347
1716.00,4.5418
1715.00,4.5069
1714.00,4.4658
1713.00,4.5069
1712.00,4.6826
1711.00,4.7175
1710.00,4.5974
1709.00,4.5819
1708.00,4.5651
1707.00,4.5073
1706.00,4.4670
1705.00,4.4495
1704.00,4.4350
1703.00,4.4016
1702.00,4.3620
1701.00,4.3536
1700.00,4.4561
1699.00,4.5647
1698.00,4.5551
1697.00,4.6904
1696.00,4.7826
1695.00,4.5535
1694.00,4.4024
1693.00,4.3275
1692.00,4.2619
1691.00,4.1683
1690.00,4.0334
1689.00,3.8893
1688.00,3.7707
1687.00,3.6949
1686.00,3.6502
1685.00,3.6242
1684.00,3.6056
1683.00,3.5787
1682.00,3.5425
1681.00,3.5017
1680.00,3.4633
1679.00,3.4342
1678.00,3.4117
1677.00,3.3800
1676.00,3.3216
1675.00,3.2437
1674.00,3.1711
1673.00,3.1153
1672.00,3.0696
1671.00,3.0235
1670.00,2.9739
1669.00,2.9248
1668.00,2.8868
1667.00,2.8685
1666.00,2.8699
1665.00,2.8810
1664.00,2.8920
1663.00,2.9047
1662.00,2.9265
1661.00,2.9591
1660.00,2.9979
1659.00,3.0366
1658.00,3.0683
1657.00,3.0885
1656.00,3.1062
1655.00,3.1100
1654.00,3.1158
1653.00,3.1100
1652.00,3.1990
1651.00,3.2777
1650.00,3.2621
1649.00,3.2805
1648.00,3.2862
1647.00,3.3010
1646.00,3.3148
1645.00,3.2998
1644.00,3.2902
1643.00,3.3034
1642.00,3.3031
1641.00,3.3050
1640.00,3.3042
1639.00,3.3083
1638.00,3.3148
1637.00,3.3204
1636.00,3.3152
1635.00,3.2979
1634.00,3.2830
1633.00,3.2750
1632.00,3.2694
1631.00,3.2647
1630.00,3.2577
1629.00,3.2476
1628.00,3.2379
1627.00,3.2316
1626.00,3.2254
1625.00,3.2094
1624.00,3.1789
1623.00,3.1405
1622.00,3.1015
1621.00,3.0619
1620.00,3.0197
1619.00,2.9786
1618.00,2.9452
1617.00,2.9241
1616.00,2.9136
1615.00,2.9052
1614.00,2.8892
1613.00,2.8616
1612.00,2.8246
1611.00,2.7820
1610.00,2.7368
1609.00,2.6901
1608.00,2.6414
1607.00,2.5891
1606.00,2.5330
1605.00,2.4740
1604.00,2.4142
1603.00,2.3558
1602.00,2.2998
1601.00,2.2460
1600.00,2.1951
1599.00,2.1491
1598.00,2.1106
1597.00,2.0815
1596.00,2.0634
1595.00,2.0569
1594.00,2.0616
1593.00,2.0758
1592.00,2.0984
1591.00,2.1284
1590.00,2.1650
1589.00,2.2061
1588.00,2.2495
1587.00,2.2940
1586.00,2.3398
1585.00,2.3874
1584.00,2.4364
1583.00,2.4866
1582.00,2.5371
1581.00,2.5822
1580.00,2.6133
1579.00,2.6307
1578.00,2.6485
1577.00,2.6848
1576.00,2.7439
1575.00,2.8145
1574.00,2.8808
1573.00,2.9361
1572.00,2.9805
1571.00,3.0124
1570.00,3.0344
1569.00,3.0513
1568.00,3.0676
1567.00,3.0855
1566.00,3.1026
1565.00,3.1156
1564.00,3.1263
1563.00,3.1432
1562.00,3.1847
1561.00,3.2210
1560.00,3.2293
1559.00,3.2360
1558.00,3.2349
1557.00,3.2382
1556.00,3.2494
1555.00,3.2601
1554.00,3.2687
1553.00,3.2741
1552.00,3.2782
1551.00,3.2869
1550.00,3.3065
1549.00,3.3339
1548.00,3.3591
1547.00,3.3693
1546.00,3.3574
1545.00,3.3303
1544.00,3.2971
1543.00,3.2598
1542.00,3.2188
1541.00,3.1961
1540.00,3.2003
1539.00,3.2212
1538.00,3.2594
1537.00,3.3034
1536.00,3.3352
1535.00,3.3455
1534.00,3.3352
1533.00,3.3135
1532.00,3.2911
1531.00,3.2797
1530.00,3.2789
1529.00,3.2767
1528.00,3.2637
1527.00,3.2406
1526.00,3.2132
1525.00,3.1855
1524.00,3.1570
1523.00,3.1302
1522.00,3.1149
1521.00,3.1138
1520.00,3.1177
1519.00,3.1113
1518.00,3.0895
1517.00,3.0613
1516.00,3.0341
1515.00,3.0096
1514.00,2.9861
1513.00,2.9569
1512.00,2.9184
1511.00,2.8680
1510.00,2.8086
1509.00,2.7427
1508.00,2.6967
1507.00,2.6672
1506.00,2.6188
1505.00,2.5727
1504.00,2.5441
1503.00,2.5191
1502.00,2.4908
1501.00,2.4548
1500.00,2.4053
1499.00,2.3416
1498.00,2.2742
1497.00,2.2164
1496.00,2.1766
1495.00,2.1575
1494.00,2.1547
1493.00,2.1592
1492.00,2.1620
1491.00,2.1663
1490.00,2.1868
1489.00,2.2272
1488.00,2.2792
1487.00,2.3361
1486.00,2.3958
1485.00,2.4590
1484.00,2.5249
1483.00,2.5909
1482.00,2.6566
1481.00,2.7246
1480.00,2.7967
1479.00,2.8690
1478.00,2.9330
1477.00,2.9843
1476.00,3.0272
1475.00,3.0673
1474.00,3.1066
1473.00,3.1460
1472.00,3.1871
1471.00,3.2359
1470.00,3.2965
1469.00,3.3638
1468.00,3.4271
1467.00,3.4754
1466.00,3.5038
1465.00,3.5179
1464.00,3.5300
1463.00,3.5513
1462.00,3.5811
1461.00,3.6081
1460.00,3.6237
1459.00,3.6297
1458.00,3.6358
1457.00,3.6478
1456.00,3.6814
1455.00,3.7551
1454.00,3.8641
1453.00,4.0008
1452.00,4.1660
1451.00,4.3872
1450.00,4.6184
1449.00,4.4899
1448.00,4.2123
1447.00,4.0099
1446.00,3.8702
1445.00,3.7686
1444.00,3.6863
1443.00,3.6251
1442.00,3.5947
1441.00,3.5968
1440.00,3.6184
1439.00,3.6405
1438.00,3.6548
1437.00,3.6758
1436.00,3.7237
1435.00,3.7826
1434.00,3.8142
1433.00,3.8194
1432.00,3.8195
1431.00,3.8194
1430.00,3.8163
1429.00,3.8166
1428.00,3.8319
1427.00,3.8712
1426.00,3.9399
1425.00,4.0189
1424.00,4.0556
1423.00,4.0431
1422.00,4.0176
1421.00,3.9637
1420.00,3.8676
1419.00,3.7713
1418.00,3.7105
1417.00,3.6804
1416.00,3.6566
1415.00,3.6241
1414.00,3.5879
1413.00,3.5610
1412.00,3.5483
1411.00,3.5455
1410.00,3.5484
1409.00,3.5587
1408.00,3.5758
1407.00,3.5913
1406.00,3.5964
1405.00,3.5926
1404.00,3.5860
1403.00,3.5761
1402.00,3.5588
1401.00,3.5375
1400.00,3.5249
1399.00,3.5304
1398.00,3.5473
1397.00,3.5581
1396.00,3.5588
1395.00,3.5590
1394.00,3.5615
1393.00,3.5612
1392.00,3.5557
1391.00,3.5447
1390.00,3.5246
1389.00,3.4964
1388.00,3.4710
1387.00,3.4587
1386.00,3.4553
1385.00,3.4467
1384.00,3.4259
1383.00,3.3978
1382.00,3.3699
1381.00,3.3429
1380.00,3.3132
1379.00,3.2804
1378.00,3.2489
1377.00,3.2213
1376.00,3.1955
1375.00,3.1684
1374.00,3.1384
1373.00,3.1053
1372.00,3.0716
1371.00,3.0386
1370.00,3.0056
1369.00,2.9727
1368.00,2.9417
1367.00,2.9127
1366.00,2.8836
1365.00,2.8519
1364.00,2.8204
1363.00,2.7968
1362.00,2.7853
1361.00,2.7855
1360.00,2.7972
1359.00,2.8203
1358.00,2.8539
1357.00,2.8977
1356.00,2.9536
1355.00,3.0247
1354.00,3.1108
1353.00,3.2071
1352.00,3.3098
1351.00,3.4215
1350.00,3.5456
1349.00,3.6703
1348.00,3.7627
1347.00,3.7900
1346.00,3.7524
1345.00,3.6843
1344.00,3.6256
1343.00,3.6007
1342.00,3.6191
1341.00,3.6747
1340.00,3.7419
1339.00,3.7804
1338.00,3.7504
1337.00,3.6447
1336.00,3.5090
1335.00,3.3896
1334.00,3.3063
1333.00,3.2594
1332.00,3.2409
1331.00,3.2413
1330.00,3.2543
1329.00,3.2774
1328.00,3.3111
1327.00,3.3571
1326.00,3.4159
1325.00,3.4840
1324.00,3.5537
1323.00,3.6186
1322.00,3.6768
1321.00,3.7267
1320.00,3.7719
1319.00,3.8304
1318.00,3.9223
1317.00,4.0549
1316.00,4.2075
1315.00,4.3121
1314.00,4.3164
1313.00,4.2666
1312.00,4.2359
1311.00,4.2466
1310.00,4.2715
1309.00,4.2474
1308.00,4.1202
1307.00,3.9464
1306.00,3.7949
1305.00,3.6780
1304.00,3.5871
1303.00,3.5136
1302.00,3.4561
1301.00,3.4191
1300.00,3.4063
1299.00,3.4169
1298.00,3.4434
1297.00,3.4736
1296.00,3.5010
1295.00,3.5295
1294.00,3.5638
1293.00,3.5997
1292.00,3.6301
1291.00,3.6583
1290.00,3.6942
1289.00,3.7370
1288.00,3.7708
1287.00,3.7843
1286.00,3.7852
1285.00,3.7882
1284.00,3.7967
1283.00,3.8016
1282.00,3.7951
1281.00,3.7788
1280.00,3.7628
1279.00,3.7629
1278.00,3.7824
1277.00,3.8003
1276.00,3.8020
1275.00,3.8093
1274.00,3.8448
1273.00,3.8889
1272.00,3.8948
1271.00,3.8582
1270.00,3.8038
1269.00,3.7462
1268.00,3.6997
1267.00,3.6793
1266.00,3.6937
1265.00,3.7363
1264.00,3.7794
1263.00,3.7921
1262.00,3.7745
1261.00,3.7438
1260.00,3.7096
1259.00,3.6823
1258.00,3.6712
1257.00,3.6699
1256.00,3.6587
1255.00,3.6268
1254.00,3.5864
1253.00,3.5543
1252.00,3.5362
1251.00,3.5305
1250.00,3.5350
1249.00,3.5459
1248.00,3.5561
1247.00,3.5614
1246.00,3.5644
1245.00,3.5670
1244.00,3.5642
1243.00,3.5526
1242.00,3.5399
1241.00,3.5375
1240.00,3.5512
1239.00,3.5790
1238.00,3.6128
1237.00,3.6409
1236.00,3.6601
1235.00,3.6856
1234.00,3.7403
1233.00,3.8328
1232.00,3.9342
1231.00,3.9844
1230.00,3.9817
1229.00,3.9996
1228.00,4.0987
1227.00,4.3134
1226.00,4.6682
1225.00,4.8635
1224.00,4.5837
1223.00,4.3679
1222.00,4.2480
1221.00,4.1954
1220.00,4.1595
1219.00,4.0990
1218.00,4.0378
1217.00,4.0110
1216.00,4.0071
1215.00,3.9654
1214.00,3.8745
1213.00,3.7979
1212.00,3.7624
1211.00,3.7555
1210.00,3.7577
1209.00,3.7558
1208.00,3.7387
1207.00,3.6952
1206.00,3.6303
1205.00,3.5603
1204.00,3.4939
1203.00,3.4338
1202.00,3.3854
1201.00,3.3530
1200.00,3.3340
1199.00,3.3197
1198.00,3.3069
1197.00,3.3005
1196.00,3.3059
1195.00,3.3206
1194.00,3.3335
1193.00,3.3353
1192.00,3.3291
1191.00,3.3271
1190.00,3.3385
1189.00,3.3627
1188.00,3.3901
1187.00,3.4127
1186.00,3.4337
1185.00,3.4591
1184.00,3.4887
1183.00,3.5245
1182.00,3.5741
1181.00,3.6398
1180.00,3.7006
1179.00,3.7193
1178.00,3.6938
1177.00,3.6645
1176.00,3.6610
1175.00,3.6820
1174.00,3.7123
1173.00,3.7488
1172.00,3.7877
1171.00,3.8037
1170.00,3.7851
1169.00,3.7634
1168.00,3.7708
1167.00,3.8069
1166.00,3.8425
1165.00,3.8430
1164.00,3.8127
1163.00,3.7831
1162.00,3.7688
1161.00,3.7720
1160.00,3.7914
1159.00,3.8168
1158.00,3.8287
1157.00,3.8241
1156.00,3.8474
1155.00,3.9507
1154.00,4.1307
1153.00,4.2299
1152.00,4.2023
1151.00,4.1733
1150.00,4.1294
1149.00,4.0754
1148.00,4.0352
1147.00,4.0165
1146.00,4.0226
1145.00,4.0489
1144.00,4.0700
1143.00,4.0610
1142.00,4.0268
1141.00,3.9992
1140.00,4.0211
1139.00,4.1072
1138.00,4.2311
1137.00,4.3153
1136.00,4.2673
1135.00,4.1423
1134.00,4.0266
1133.00,3.9633
1132.00,3.9509
1131.00,3.9594
1130.00,3.9806
1129.00,4.0251
1128.00,4.0874
1127.00,4.1447
1126.00,4.1742
1125.00,4.1988
1124.00,4.2696
1123.00,4.2829
1122.00,4.1050
1121.00,3.9629
1120.00,3.9020
1119.00,3.8933
1118.00,3.9145
1117.00,3.9551
1116.00,4.0060
1115.00,4.0541
1114.00,4.0923
1113.00,4.1337
1112.00,4.2301
1111.00,4.4417
1110.00,4.6783
1109.00,4.5598
1108.00,4.2359
1107.00,4.0045
1106.00,3.8983
1105.00,3.8745
1104.00,3.8761
1103.00,3.8796
1102.00,3.9092
1101.00,3.9717
1100.00,4.0371
1099.00,4.0944
1098.00,4.1971
1097.00,4.3358
1096.00,4.2424
1095.00,4.1118
1094.00,4.0521
1093.00,3.9888
1092.00,3.9330
1091.00,3.9212
1090.00,3.9334
1089.00,3.9390
1088.00,3.9210
1087.00,3.8717
1086.00,3.8314
1085.00,3.8189
1084.00,3.7938
1083.00,3.7438
1082.00,3.6958
1081.00,3.6475
1080.00,3.5925
1079.00,3.5449
1078.00,3.5219
1077.00,3.5336
1076.00,3.5765
1075.00,3.6340
1074.00,3.6844
1073.00,3.7107
1072.00,3.7082
1071.00,3.6795
1070.00,3.6380
1069.00,3.5991
1068.00,3.5674
1067.00,3.5424
1066.00,3.5328
1065.00,3.5552
1064.00,3.6135
1063.00,3.6772
1062.00,3.7065
1061.00,3.7213
1060.00,3.7516
1059.00,3.7904
1058.00,3.8311
1057.00,3.8922
1056.00,3.9978
1055.00,4.1487
1054.00,4.1573
1053.00,3.9151
1052.00,3.7412
1051.00,3.6727
1050.00,3.6661
1049.00,3.6686
1048.00,3.6726
1047.00,3.6983
1046.00,3.7404
1045.00,3.7668
1044.00,3.7520
1043.00,3.7182
1042.00,3.7135
1041.00,3.7626
1040.00,3.8463
1039.00,3.9076
1038.00,3.9029
1037.00,3.8859
1036.00,3.9247
1035.00,4.0000
1034.00,4.0281
1033.00,3.9736
1032.00,3.9250
1031.00,3.9522
1030.00,4.0455
1029.00,4.0973
1028.00,4.0071
1027.00,3.9428
1026.00,3.9879
1025.00,4.0720
1024.00,4.0707
1023.00,4.1052
1022.00,4.2231
1021.00,4.1116
1020.00,3.9238
1019.00,3.8450
1018.00,3.8496
1017.00,3.9117
1016.00,4.0218
1015.00,4.1829
1014.00,4.3052
1013.00,4.1983
1012.00,4.0665
1011.00,4.0189
1010.00,4.0697
1009.00,4.2097
1008.00,4.3154
1007.00,4.2198
1006.00,4.0637
1005.00,3.9900
1004.00,3.9862
1003.00,4.0017
1002.00,3.9912
1001.00,3.9882
1000.00,4.0686
999.00,4.2237
998.00,4.3849
997.00,4.4332
996.00,4.3675
995.00,4.3227
994.00,4.2417
993.00,4.1051
992.00,4.0019
991.00,3.9685
990.00,3.9711
989.00,3.9455
988.00,3.9160
987.00,3.9663
986.00,4.0952
985.00,4.1397
984.00,4.0296
983.00,3.9175
982.00,3.8799
981.00,3.9174
980.00,3.9890
979.00,4.0638
978.00,4.1460
977.00,4.1817
976.00,4.1247
975.00,4.0923
974.00,4.1663
973.00,4.3423
972.00,4.5175
971.00,4.8434
970.00,4.6037
969.00,4.2218
968.00,4.1161
967.00,4.1483
966.00,4.3157
965.00,4.8053
964.00,4.8828
963.00,4.4440
962.00,4.2846
961.00,4.2041
960.00,4.1557
959.00,4.1534
958.00,4.2423
957.00,4.4250
956.00,4.4501
955.00,4.3409
954.00,4.2585
953.00,4.1662
952.00,4.0739
951.00,4.0051
950.00,3.9731
949.00,3.9860
948.00,4.0437
947.00,4.1495
946.00,4.2990
945.00,4.3794
944.00,4.2788
943.00,4.1796
942.00,4.1944
941.00,4.3352
940.00,4.4038
939.00,4.2423
938.00,4.0950
937.00,4.0136
936.00,3.9930
935.00,3.9887
934.00,3.9780
933.00,4.0019
932.00,4.0882
931.00,4.2037
930.00,4.2588
929.00,4.2545
928.00,4.2825
927.00,4.3649
926.00,4.3821
925.00,4.2404
924.00,4.1235
923.00,4.0565
922.00,3.9808
921.00,3.9057
920.00,3.8761
919.00,3.9020
918.00,3.9563
917.00,4.0120
916.00,4.0926
915.00,4.2412
914.00,4.3679
913.00,4.3603
912.00,4.5497
911.00,4.8739
910.00,4.2927
909.00,4.0982
908.00,4.0377
907.00,4.0369
906.00,4.1008
905.00,4.3345
904.00,4.6043
903.00,4.1928
902.00,4.0789
901.00,4.1720
900.00,4.3414
899.00,4.3692
898.00,4.4730
897.00,4.7419
896.00,4.2482
895.00,4.1099
894.00,4.3798
893.00,4.3968
892.00,3.9570
891.00,3.8256
890.00,3.8015
889.00,3.7955
888.00,3.7902
887.00,3.7791
886.00,3.7710
885.00,3.7732
884.00,3.7878
883.00,3.8270
882.00,3.8809
881.00,3.9069
880.00,3.9306
879.00,4.0363
878.00,4.3025
877.00,4.4256
876.00,4.1874
875.00,4.0850
874.00,4.1176
873.00,4.3412
872.00,4.2601
871.00,3.9412
870.00,3.8340
869.00,3.8545
868.00,3.9366
867.00,3.9783
866.00,3.9139
865.00,3.8435
864.00,3.8364
863.00,3.8902
862.00,3.9472
861.00,3.9417
860.00,3.9225
859.00,3.9887
858.00,4.1819
857.00,4.3387
856.00,4.2725
855.00,4.1716
854.00,4.0514
853.00,3.9758
852.00,4.0234
851.00,4.2467
850.00,4.5239
849.00,4.5637
848.00,4.3101
847.00,3.9949
846.00,3.8461
845.00,3.7955
844.00,3.7805
843.00,3.7669
842.00,3.7441
841.00,3.7272
840.00,3.7310
839.00,3.7477
838.00,3.7459
837.00,3.7301
836.00,3.7396
835.00,3.7769
834.00,3.8172
833.00,3.8366
832.00,3.8043
831.00,3.7586
830.00,3.7581
829.00,3.8115
828.00,3.8931
827.00,3.9706
826.00,4.0448
825.00,4.1574
824.00,4.2917
823.00,4.2949
822.00,4.2640
821.00,4.2464
820.00,4.1908
819.00,4.1498
818.00,4.2115
817.00,4.3148
816.00,4.2477
815.00,4.2023
814.00,4.2390
813.00,4.2479
812.00,4.1997
811.00,4.1679
810.00,4.1876
809.00,4.3325
808.00,4.6410
807.00,4.9152
806.00,5.2259
805.00,4.5559
804.00,4.3180
803.00,4.1536
802.00,3.9366
801.00,3.8173
800.00,3.8163
799.00,3.9313
798.00,4.1349
797.00,4.3429
796.00,4.3995
795.00,4.4680
794.00,4.8338
793.00,4.5092
792.00,4.2111
791.00,4.0995
790.00,3.9870
789.00,3.8674
788.00,3.8031
787.00,3.8396
786.00,3.9603
785.00,4.0811
784.00,4.1367
783.00,4.0635
782.00,3.9752
781.00,3.9893
780.00,4.1613
779.00,4.5115
778.00,4.4694
777.00,4.3140
776.00,4.2397
775.00,4.2168
774.00,4.3072
773.00,4.3272
772.00,4.2120
771.00,4.2207
770.00,4.4636
769.00,4.4530
768.00,4.5033
767.00,4.6823
766.00,4.1407
765.00,3.9799
764.00,4.0325
763.00,4.2201
762.00,4.3387
761.00,4.2084
760.00,4.2198
759.00,4.2348
758.00,4.1678
757.00,4.2271
756.00,4.5218
755.00,4.7464
754.00,4.4260
753.00,4.1795
752.00,4.0367
751.00,4.0019
750.00,4.0717
749.00,4.2099
748.00,4.2332
747.00,4.0065
746.00,3.7730
745.00,3.6474
744.00,3.6404
743.00,3.7559
742.00,4.0048
741.00,4.1921
740.00,4.0782
739.00,4.0129
738.00,4.0738
737.00,4.3389
736.00,5.1166
735.00,4.8221
734.00,4.2292
733.00,3.9754
732.00,3.9128
731.00,3.9866
730.00,4.0945
729.00,4.1083
728.00,4.2109
727.00,4.1684
726.00,3.8308
725.00,3.6828
724.00,3.7002
723.00,3.8414
722.00,4.0350
721.00,4.1164
720.00,4.1226
719.00,4.0495
718.00,3.9369
717.00,3.8937
716.00,3.9521
715.00,4.1357
714.00,4.3165
713.00,4.1995
712.00,4.1277
711.00,4.1745
710.00,4.1160
709.00,3.9951
708.00,3.9607
707.00,3.9379
706.00,3.8623
705.00,3.7992
704.00,3.7799
703.00,3.8100
702.00,3.8751
701.00,3.9467
700.00,4.0039
