Created as New Dataset,Sample 002 By Administrator Date Wednesday, November 24 2021
cm-1,A
7502.00,0.7475
7501.00,0.7364
7500.00,0.7255
7499.00,0.7148
7498.00,0.7045
7497.00,0.6943
7496.00,0.6844
7495.00,0.6747
7494.00,0.6655
7493.00,0.6574
7492.00,0.6508
7491.00,0.6460
7490.00,0.6424
7489.00,0.6388
7488.00,0.6338
7487.00,0.6266
7486.00,0.6177
7485.00,0.6078
7484.00,0.5972
7483.00,0.5865
7482.00,0.5767
7481.00,0.5689
7480.00,0.5629
7479.00,0.5579
7478.00,0.5532
7477.00,0.5487
7476.00,0.5447
7475.00,0.5411
7474.00,0.5378
7473.00,0.5347
7472.00,0.5318
7471.00,0.5288
7470.00,0.5256
7469.00,0.5221
7468.00,0.5184
7467.00,0.5146
7466.00,0.5111
7465.00,0.5081
7464.00,0.5053
7463.00,0.5027
7462.00,0.5003
7461.00,0.4986
7460.00,0.4974
7459.00,0.4965
7458.00,0.4958
7457.00,0.4956
7456.00,0.4961
7455.00,0.4973
7454.00,0.4987
7453.00,0.5003
7452.00,0.5021
7451.00,0.5044
7450.00,0.5072
7449.00,0.5105
7448.00,0.5142
7447.00,0.5182
7446.00,0.5228
7445.00,0.5279
7444.00,0.5331
7443.00,0.5381
7442.00,0.5431
7441.00,0.5488
7440.00,0.5553
7439.00,0.5622
7438.00,0.5693
7437.00,0.5765
7436.00,0.5837
7435.00,0.5910
7434.00,0.5982
7433.00,0.6055
7432.00,0.6131
7431.00,0.6211
7430.00,0.6292
7429.00,0.6376
7428.00,0.6465
7427.00,0.6561
7426.00,0.6660
7425.00,0.6755
7424.00,0.6845
7423.00,0.6931
7422.00,0.7020
7421.00,0.7113
7420.00,0.7206
7419.00,0.7294
7418.00,0.7375
7417.00,0.7451
7416.00,0.7526
7415.00,0.7603
7414.00,0.7684
7413.00,0.7768
7412.00,0.7853
7411.00,0.7935
7410.00,0.8017
7409.00,0.8104
7408.00,0.8198
7407.00,0.8291
7406.00,0.8377
7405.00,0.8453
7404.00,0.8525
7403.00,0.8601
7402.00,0.8680
7401.00,0.8755
7400.00,0.8818
7399.00,0.8872
7398.00,0.8925
7397.00,0.8985
7396.00,0.9050
7395.00,0.9112
7394.00,0.9170
7393.00,0.9221
7392.00,0.9269
7391.00,0.9317
7390.00,0.9369
7389.00,0.9420
7388.00,0.9467
7387.00,0.9507
7386.00,0.9545
7385.00,0.9583
7384.00,0.9616
7383.00,0.9637
7382.00,0.9646
7381.00,0.9648
7380.00,0.9648
7379.00,0.9651
7378.00,0.9659
7377.00,0.9675
7376.00,0.9697
7375.00,0.9718
7374.00,0.9731
7373.00,0.9732
7372.00,0.9718
7371.00,0.9691
7370.00,0.9655
7369.00,0.9617
7368.00,0.9581
7367.00,0.9547
7366.00,0.9514
7365.00,0.9483
7364.00,0.9457
7363.00,0.9432
7362.00,0.9405
7361.00,0.9369
7360.00,0.9323
7359.00,0.9267
7358.00,0.9206
7357.00,0.9143
7356.00,0.9078
7355.00,0.9012
7354.00,0.8946
7353.00,0.8880
7352.00,0.8813
7351.00,0.8742
7350.00,0.8669
7349.00,0.8597
7348.00,0.8527
7347.00,0.8451
7346.00,0.8368
7345.00,0.8284
7344.00,0.8206
7343.00,0.8136
7342.00,0.8067
7341.00,0.7990
7340.00,0.7908
7339.00,0.7828
7338.00,0.7752
7337.00,0.7677
7336.00,0.7594
7335.00,0.7508
7334.00,0.7425
7333.00,0.7351
7332.00,0.7283
7331.00,0.7214
7330.00,0.7146
7329.00,0.7081
7328.00,0.7020
7327.00,0.6958
7326.00,0.6896
7325.00,0.6834
7324.00,0.6777
7323.00,0.6726
7322.00,0.6679
7321.00,0.6635
7320.00,0.6595
7319.00,0.6559
7318.00,0.6528
7317.00,0.6501
7316.00,0.6476
7315.00,0.6452
7314.00,0.6432
7313.00,0.6419
7312.00,0.6413
7311.00,0.6412
7310.00,0.6414
7309.00,0.6420
7308.00,0.6432
7307.00,0.6452
7306.00,0.6478
7305.00,0.6507
7304.00,0.6536
7303.00,0.6567
7302.00,0.6601
7301.00,0.6639
7300.00,0.6680
7299.00,0.6724
7298.00,0.6772
7297.00,0.6824
7296.00,0.6879
7295.00,0.6938
7294.00,0.7003
7293.00,0.7075
7292.00,0.7151
7291.00,0.7228
7290.00,0.7304
7289.00,0.7379
7288.00,0.7455
7287.00,0.7531
7286.00,0.7607
7285.00,0.7683
7284.00,0.7759
7283.00,0.7837
7282.00,0.7918
7281.00,0.8000
7280.00,0.8084
7279.00,0.8166
7278.00,0.8247
7277.00,0.8328
7276.00,0.8408
7275.00,0.8485
7274.00,0.8563
7273.00,0.8643
7272.00,0.8725
7271.00,0.8809
7270.00,0.8893
7269.00,0.8977
7268.00,0.9059
7267.00,0.9136
7266.00,0.9204
7265.00,0.9267
7264.00,0.9327
7263.00,0.9386
7262.00,0.9446
7261.00,0.9511
7260.00,0.9583
7259.00,0.9660
7258.00,0.9736
7257.00,0.9804
7256.00,0.9860
7255.00,0.9905
7254.00,0.9944
7253.00,0.9983
7252.00,1.0023
7251.00,1.0062
7250.00,1.0100
7249.00,1.0138
7248.00,1.0175
7247.00,1.0211
7246.00,1.0242
7245.00,1.0267
7244.00,1.0286
7243.00,1.0308
7242.00,1.0337
7241.00,1.0370
7240.00,1.0398
7239.00,1.0417
7238.00,1.0426
7237.00,1.0431
7236.00,1.0433
7235.00,1.0425
7234.00,1.0404
7233.00,1.0378
7232.00,1.0356
7231.00,1.0343
7230.00,1.0334
7229.00,1.0322
7228.00,1.0303
7227.00,1.0281
7226.00,1.0255
7225.00,1.0221
7224.00,1.0176
7223.00,1.0121
7222.00,1.0065
7221.00,1.0014
7220.00,0.9968
7219.00,0.9922
7218.00,0.9874
7217.00,0.9824
7216.00,0.9771
7215.00,0.9709
7214.00,0.9639
7213.00,0.9565
7212.00,0.9492
7211.00,0.9421
7210.00,0.9348
7209.00,0.9275
7208.00,0.9201
7207.00,0.9126
7206.00,0.9049
7205.00,0.8971
7204.00,0.8894
7203.00,0.8818
7202.00,0.8742
7201.00,0.8664
7200.00,0.8584
7199.00,0.8503
7198.00,0.8418
7197.00,0.8330
7196.00,0.8241
7195.00,0.8152
7194.00,0.8067
7193.00,0.7986
7192.00,0.7910
7191.00,0.7837
7190.00,0.7764
7189.00,0.7688
7188.00,0.7611
7187.00,0.7536
7186.00,0.7464
7185.00,0.7396
7184.00,0.7330
7183.00,0.7268
7182.00,0.7212
7181.00,0.7162
7180.00,0.7116
7179.00,0.7075
7178.00,0.7038
7177.00,0.7004
7176.00,0.6974
7175.00,0.6947
7174.00,0.6921
7173.00,0.6896
7172.00,0.6871
7171.00,0.6847
7170.00,0.6826
7169.00,0.6813
7168.00,0.6809
7167.00,0.6812
7166.00,0.6821
7165.00,0.6834
7164.00,0.6851
7163.00,0.6872
7162.00,0.6898
7161.00,0.6928
7160.00,0.6962
7159.00,0.6999
7158.00,0.7038
7157.00,0.7080
7156.00,0.7127
7155.00,0.7178
7154.00,0.7234
7153.00,0.7292
7152.00,0.7352
7151.00,0.7414
7150.00,0.7481
7149.00,0.7551
7148.00,0.7624
7147.00,0.7698
7146.00,0.7772
7145.00,0.7848
7144.00,0.7926
7143.00,0.8005
7142.00,0.8087
7141.00,0.8170
7140.00,0.8255
7139.00,0.8344
7138.00,0.8436
7137.00,0.8527
7136.00,0.8616
7135.00,0.8700
7134.00,0.8783
7133.00,0.8866
7132.00,0.8948
7131.00,0.9028
7130.00,0.9107
7129.00,0.9188
7128.00,0.9270
7127.00,0.9350
7126.00,0.9429
7125.00,0.9505
7124.00,0.9581
7123.00,0.9656
7122.00,0.9732
7121.00,0.9807
7120.00,0.9882
7119.00,0.9953
7118.00,1.0022
7117.00,1.0092
7116.00,1.0165
7115.00,1.0239
7114.00,1.0308
7113.00,1.0370
7112.00,1.0430
7111.00,1.0495
7110.00,1.0563
7109.00,1.0625
7108.00,1.0675
7107.00,1.0716
7106.00,1.0758
7105.00,1.0801
7104.00,1.0841
7103.00,1.0877
7102.00,1.0911
7101.00,1.0945
7100.00,1.0977
7099.00,1.1006
7098.00,1.1030
7097.00,1.1051
7096.00,1.1070
7095.00,1.1088
7094.00,1.1105
7093.00,1.1115
7092.00,1.1118
7091.00,1.1113
7090.00,1.1107
7089.00,1.1096
7088.00,1.1077
7087.00,1.1054
7086.00,1.1034
7085.00,1.1023
7084.00,1.1013
7083.00,1.0997
7082.00,1.0975
7081.00,1.0948
7080.00,1.0916
7079.00,1.0877
7078.00,1.0836
7077.00,1.0796
7076.00,1.0753
7075.00,1.0705
7074.00,1.0651
7073.00,1.0594
7072.00,1.0535
7071.00,1.0472
7070.00,1.0403
7069.00,1.0334
7068.00,1.0266
7067.00,1.0201
7066.00,1.0139
7065.00,1.0075
7064.00,1.0003
7063.00,0.9921
7062.00,0.9836
7061.00,0.9752
7060.00,0.9670
7059.00,0.9586
7058.00,0.9499
7057.00,0.9411
7056.00,0.9324
7055.00,0.9238
7054.00,0.9150
7053.00,0.9059
7052.00,0.8965
7051.00,0.8870
7050.00,0.8778
7049.00,0.8690
7048.00,0.8604
7047.00,0.8515
7046.00,0.8426
7045.00,0.8341
7044.00,0.8262
7043.00,0.8185
7042.00,0.8109
7041.00,0.8035
7040.00,0.7967
7039.00,0.7902
7038.00,0.7840
7037.00,0.7779
7036.00,0.7720
7035.00,0.7665
7034.00,0.7614
7033.00,0.7567
7032.00,0.7525
7031.00,0.7487
7030.00,0.7453
7029.00,0.7425
7028.00,0.7403
7027.00,0.7384
7026.00,0.7369
7025.00,0.7360
7024.00,0.7356
7023.00,0.7358
7022.00,0.7365
7021.00,0.7378
7020.00,0.7394
7019.00,0.7413
7018.00,0.7436
7017.00,0.7464
7016.00,0.7497
7015.00,0.7533
7014.00,0.7572
7013.00,0.7616
7012.00,0.7665
7011.00,0.7719
7010.00,0.7776
7009.00,0.7836
7008.00,0.7899
7007.00,0.7963
7006.00,0.8029
7005.00,0.8096
7004.00,0.8165
7003.00,0.8235
7002.00,0.8305
7001.00,0.8378
7000.00,0.8455
6999.00,0.8538
6998.00,0.8623
6997.00,0.8708
6996.00,0.8791
6995.00,0.8872
6994.00,0.8954
6993.00,0.9039
6992.00,0.9124
6991.00,0.9208
6990.00,0.9291
6989.00,0.9374
6988.00,0.9457
6987.00,0.9539
6986.00,0.9619
6985.00,0.9697
6984.00,0.9776
6983.00,0.9859
6982.00,0.9943
6981.00,1.0026
6980.00,1.0104
6979.00,1.0177
6978.00,1.0245
6977.00,1.0311
6976.00,1.0375
6975.00,1.0439
6974.00,1.0503
6973.00,1.0568
6972.00,1.0632
6971.00,1.0691
6970.00,1.0745
6969.00,1.0794
6968.00,1.0841
6967.00,1.0889
6966.00,1.0937
6965.00,1.0984
6964.00,1.1028
6963.00,1.1067
6962.00,1.1101
6961.00,1.1130
6960.00,1.1155
6959.00,1.1179
6958.00,1.1202
6957.00,1.1226
6956.00,1.1250
6955.00,1.1270
6954.00,1.1286
6953.00,1.1299
6952.00,1.1308
6951.00,1.1310
6950.00,1.1304
6949.00,1.1291
6948.00,1.1278
6947.00,1.1265
6946.00,1.1252
6945.00,1.1236
6944.00,1.1217
6943.00,1.1195
6942.00,1.1170
6941.00,1.1143
6940.00,1.1111
6939.00,1.1073
6938.00,1.1028
6937.00,1.0979
6936.00,1.0929
6935.00,1.0880
6934.00,1.0827
6933.00,1.0769
6932.00,1.0706
6931.00,1.0643
6930.00,1.0579
6929.00,1.0513
6928.00,1.0445
6927.00,1.0376
6926.00,1.0307
6925.00,1.0237
6924.00,1.0164
6923.00,1.0089
6922.00,1.0012
6921.00,0.9933
6920.00,0.9847
6919.00,0.9754
6918.00,0.9658
6917.00,0.9563
6916.00,0.9468
6915.00,0.9373
6914.00,0.9280
6913.00,0.9190
6912.00,0.9101
6911.00,0.9012
6910.00,0.8922
6909.00,0.8831
6908.00,0.8737
6907.00,0.8643
6906.00,0.8552
6905.00,0.8467
6904.00,0.8386
6903.00,0.8307
6902.00,0.8229
6901.00,0.8154
6900.00,0.8081
6899.00,0.8008
6898.00,0.7936
6897.00,0.7866
6896.00,0.7801
6895.00,0.7741
6894.00,0.7685
6893.00,0.7632
6892.00,0.7583
6891.00,0.7538
6890.00,0.7496
6889.00,0.7459
6888.00,0.7427
6887.00,0.7399
6886.00,0.7376
6885.00,0.7356
6884.00,0.7340
6883.00,0.7327
6882.00,0.7319
6881.00,0.7317
6880.00,0.7321
6879.00,0.7330
6878.00,0.7342
6877.00,0.7359
6876.00,0.7381
6875.00,0.7405
6874.00,0.7434
6873.00,0.7467
6872.00,0.7505
6871.00,0.7550
6870.00,0.7600
6869.00,0.7655
6868.00,0.7710
6867.00,0.7767
6866.00,0.7826
6865.00,0.7888
6864.00,0.7952
6863.00,0.8018
6862.00,0.8088
6861.00,0.8161
6860.00,0.8238
6859.00,0.8317
6858.00,0.8398
6857.00,0.8481
6856.00,0.8567
6855.00,0.8653
6854.00,0.8737
6853.00,0.8819
6852.00,0.8901
6851.00,0.8983
6850.00,0.9067
6849.00,0.9152
6848.00,0.9240
6847.00,0.9331
6846.00,0.9422
6845.00,0.9513
6844.00,0.9602
6843.00,0.9692
6842.00,0.9781
6841.00,0.9868
6840.00,0.9954
6839.00,1.0037
6838.00,1.0117
6837.00,1.0195
6836.00,1.0269
6835.00,1.0344
6834.00,1.0421
6833.00,1.0500
6832.00,1.0580
6831.00,1.0657
6830.00,1.0731
6829.00,1.0802
6828.00,1.0869
6827.00,1.0933
6826.00,1.0995
6825.00,1.1054
6824.00,1.1110
6823.00,1.1165
6822.00,1.1222
6821.00,1.1277
6820.00,1.1328
6819.00,1.1374
6818.00,1.1416
6817.00,1.1456
6816.00,1.1492
6815.00,1.1521
6814.00,1.1543
6813.00,1.1565
6812.00,1.1592
6811.00,1.1622
6810.00,1.1651
6809.00,1.1676
6808.00,1.1695
6807.00,1.1710
6806.00,1.1717
6805.00,1.1716
6804.00,1.1708
6803.00,1.1695
6802.00,1.1683
6801.00,1.1674
6800.00,1.1664
6799.00,1.1651
6798.00,1.1633
6797.00,1.1611
6796.00,1.1586
6795.00,1.1554
6794.00,1.1514
6793.00,1.1469
6792.00,1.1422
6791.00,1.1374
6790.00,1.1326
6789.00,1.1278
6788.00,1.1227
6787.00,1.1172
6786.00,1.1115
6785.00,1.1054
6784.00,1.0992
6783.00,1.0927
6782.00,1.0859
6781.00,1.0788
6780.00,1.0713
6779.00,1.0633
6778.00,1.0549
6777.00,1.0463
6776.00,1.0376
6775.00,1.0287
6774.00,1.0196
6773.00,1.0103
6772.00,1.0008
6771.00,0.9912
6770.00,0.9815
6769.00,0.9717
6768.00,0.9618
6767.00,0.9517
6766.00,0.9418
6765.00,0.9322
6764.00,0.9230
6763.00,0.9138
6762.00,0.9047
6761.00,0.8956
6760.00,0.8866
6759.00,0.8776
6758.00,0.8688
6757.00,0.8602
6756.00,0.8516
6755.00,0.8432
6754.00,0.8352
6753.00,0.8276
6752.00,0.8203
6751.00,0.8132
6750.00,0.8064
6749.00,0.8001
6748.00,0.7943
6747.00,0.7890
6746.00,0.7843
6745.00,0.7800
6744.00,0.7760
6743.00,0.7724
6742.00,0.7692
6741.00,0.7665
6740.00,0.7643
6739.00,0.7626
6738.00,0.7615
6737.00,0.7611
6736.00,0.7612
6735.00,0.7618
6734.00,0.7628
6733.00,0.7644
6732.00,0.7664
6731.00,0.7690
6730.00,0.7724
6729.00,0.7763
6728.00,0.7805
6727.00,0.7851
6726.00,0.7900
6725.00,0.7953
6724.00,0.8009
6723.00,0.8067
6722.00,0.8127
6721.00,0.8192
6720.00,0.8262
6719.00,0.8334
6718.00,0.8408
6717.00,0.8484
6716.00,0.8561
6715.00,0.8638
6714.00,0.8716
6713.00,0.8795
6712.00,0.8876
6711.00,0.8959
6710.00,0.9043
6709.00,0.9128
6708.00,0.9214
6707.00,0.9301
6706.00,0.9389
6705.00,0.9476
6704.00,0.9562
6703.00,0.9645
6702.00,0.9729
6701.00,0.9816
6700.00,0.9904
6699.00,0.9992
6698.00,1.0080
6697.00,1.0169
6696.00,1.0256
6695.00,1.0337
6694.00,1.0416
6693.00,1.0494
6692.00,1.0570
6691.00,1.0643
6690.00,1.0713
6689.00,1.0784
6688.00,1.0854
6687.00,1.0922
6686.00,1.0983
6685.00,1.1043
6684.00,1.1102
6683.00,1.1161
6682.00,1.1217
6681.00,1.1271
6680.00,1.1321
6679.00,1.1369
6678.00,1.1413
6677.00,1.1452
6676.00,1.1487
6675.00,1.1519
6674.00,1.1549
6673.00,1.1578
6672.00,1.1603
6671.00,1.1624
6670.00,1.1642
6669.00,1.1661
6668.00,1.1679
6667.00,1.1693
6666.00,1.1702
6665.00,1.1705
6664.00,1.1706
6663.00,1.1703
6662.00,1.1695
6661.00,1.1681
6660.00,1.1664
6659.00,1.1645
6658.00,1.1625
6657.00,1.1602
6656.00,1.1573
6655.00,1.1538
6654.00,1.1500
6653.00,1.1464
6652.00,1.1428
6651.00,1.1390
6650.00,1.1349
6649.00,1.1303
6648.00,1.1252
6647.00,1.1196
6646.00,1.1134
6645.00,1.1068
6644.00,1.0998
6643.00,1.0925
6642.00,1.0850
6641.00,1.0773
6640.00,1.0696
6639.00,1.0616
6638.00,1.0536
6637.00,1.0454
6636.00,1.0371
6635.00,1.0287
6634.00,1.0202
6633.00,1.0114
6632.00,1.0024
6631.00,0.9932
6630.00,0.9838
6629.00,0.9744
6628.00,0.9648
6627.00,0.9550
6626.00,0.9451
6625.00,0.9351
6624.00,0.9251
6623.00,0.9152
6622.00,0.9055
6621.00,0.8960
6620.00,0.8867
6619.00,0.8776
6618.00,0.8686
6617.00,0.8596
6616.00,0.8508
6615.00,0.8422
6614.00,0.8339
6613.00,0.8259
6612.00,0.8184
6611.00,0.8112
6610.00,0.8042
6609.00,0.7974
6608.00,0.7907
6607.00,0.7841
6606.00,0.7778
6605.00,0.7720
6604.00,0.7667
6603.00,0.7619
6602.00,0.7578
6601.00,0.7545
6600.00,0.7519
6599.00,0.7496
6598.00,0.7477
6597.00,0.7463
6596.00,0.7453
6595.00,0.7446
6594.00,0.7442
6593.00,0.7442
6592.00,0.7447
6591.00,0.7458
6590.00,0.7474
6589.00,0.7496
6588.00,0.7525
6587.00,0.7560
6586.00,0.7601
6585.00,0.7646
6584.00,0.7694
6583.00,0.7744
6582.00,0.7796
6581.00,0.7853
6580.00,0.7913
6579.00,0.7977
6578.00,0.8044
6577.00,0.8115
6576.00,0.8191
6575.00,0.8269
6574.00,0.8349
6573.00,0.8430
6572.00,0.8512
6571.00,0.8597
6570.00,0.8684
6569.00,0.8771
6568.00,0.8857
6567.00,0.8943
6566.00,0.9030
6565.00,0.9119
6564.00,0.9208
6563.00,0.9299
6562.00,0.9391
6561.00,0.9484
6560.00,0.9578
6559.00,0.9671
6558.00,0.9762
6557.00,0.9852
6556.00,0.9941
6555.00,1.0029
6554.00,1.0119
6553.00,1.0210
6552.00,1.0300
6551.00,1.0387
6550.00,1.0470
6549.00,1.0552
6548.00,1.0633
6547.00,1.0711
6546.00,1.0786
6545.00,1.0859
6544.00,1.0934
6543.00,1.1011
6542.00,1.1085
6541.00,1.1152
6540.00,1.1213
6539.00,1.1272
6538.00,1.1332
6537.00,1.1393
6536.00,1.1451
6535.00,1.1507
6534.00,1.1561
6533.00,1.1612
6532.00,1.1657
6531.00,1.1694
6530.00,1.1728
6529.00,1.1759
6528.00,1.1788
6527.00,1.1815
6526.00,1.1841
6525.00,1.1867
6524.00,1.1892
6523.00,1.1913
6522.00,1.1928
6521.00,1.1942
6520.00,1.1954
6519.00,1.1959
6518.00,1.1955
6517.00,1.1943
6516.00,1.1926
6515.00,1.1910
6514.00,1.1895
6513.00,1.1880
6512.00,1.1864
6511.00,1.1845
6510.00,1.1820
6509.00,1.1789
6508.00,1.1749
6507.00,1.1704
6506.00,1.1655
6505.00,1.1605
6504.00,1.1556
6503.00,1.1507
6502.00,1.1456
6501.00,1.1405
6500.00,1.1349
6499.00,1.1289
6498.00,1.1222
6497.00,1.1150
6496.00,1.1074
6495.00,1.0994
6494.00,1.0912
6493.00,1.0826
6492.00,1.0739
6491.00,1.0649
6490.00,1.0558
6489.00,1.0467
6488.00,1.0376
6487.00,1.0281
6486.00,1.0183
6485.00,1.0081
6484.00,0.9979
6483.00,0.9876
6482.00,0.9771
6481.00,0.9663
6480.00,0.9556
6479.00,0.9451
6478.00,0.9348
6477.00,0.9246
6476.00,0.9142
6475.00,0.9039
6474.00,0.8938
6473.00,0.8841
6472.00,0.8746
6471.00,0.8653
6470.00,0.8560
6469.00,0.8469
6468.00,0.8379
6467.00,0.8292
6466.00,0.8208
6465.00,0.8129
6464.00,0.8053
6463.00,0.7983
6462.00,0.7918
6461.00,0.7858
6460.00,0.7801
6459.00,0.7749
6458.00,0.7702
6457.00,0.7661
6456.00,0.7624
6455.00,0.7591
6454.00,0.7564
6453.00,0.7544
6452.00,0.7532
6451.00,0.7526
6450.00,0.7526
6449.00,0.7532
6448.00,0.7543
6447.00,0.7558
6446.00,0.7577
6445.00,0.7601
6444.00,0.7629
6443.00,0.7662
6442.00,0.7701
6441.00,0.7747
6440.00,0.7799
6439.00,0.7854
6438.00,0.7912
6437.00,0.7972
6436.00,0.8035
6435.00,0.8101
6434.00,0.8169
6433.00,0.8241
6432.00,0.8315
6431.00,0.8393
6430.00,0.8474
6429.00,0.8558
6428.00,0.8643
6427.00,0.8730
6426.00,0.8816
6425.00,0.8904
6424.00,0.8994
6423.00,0.9085
6422.00,0.9176
6421.00,0.9267
6420.00,0.9358
6419.00,0.9447
6418.00,0.9538
6417.00,0.9631
6416.00,0.9723
6415.00,0.9814
6414.00,0.9903
6413.00,0.9993
6412.00,1.0083
6411.00,1.0170
6410.00,1.0255
6409.00,1.0342
6408.00,1.0430
6407.00,1.0518
6406.00,1.0602
6405.00,1.0682
6404.00,1.0761
6403.00,1.0838
6402.00,1.0913
6401.00,1.0983
6400.00,1.1050
6399.00,1.1114
6398.00,1.1174
6397.00,1.1234
6396.00,1.1292
6395.00,1.1349
6394.00,1.1404
6393.00,1.1455
6392.00,1.1503
6391.00,1.1546
6390.00,1.1583
6389.00,1.1617
6388.00,1.1651
6387.00,1.1687
6386.00,1.1722
6385.00,1.1753
6384.00,1.1776
6383.00,1.1792
6382.00,1.1803
6381.00,1.1813
6380.00,1.1823
6379.00,1.1830
6378.00,1.1836
6377.00,1.1838
6376.00,1.1836
6375.00,1.1830
6374.00,1.1817
6373.00,1.1797
6372.00,1.1771
6371.00,1.1742
6370.00,1.1713
6369.00,1.1683
6368.00,1.1649
6367.00,1.1611
6366.00,1.1570
6365.00,1.1528
6364.00,1.1483
6363.00,1.1434
6362.00,1.1379
6361.00,1.1323
6360.00,1.1265
6359.00,1.1205
6358.00,1.1140
6357.00,1.1071
6356.00,1.1000
6355.00,1.0927
6354.00,1.0852
6353.00,1.0777
6352.00,1.0700
6351.00,1.0620
6350.00,1.0536
6349.00,1.0450
6348.00,1.0364
6347.00,1.0279
6346.00,1.0191
6345.00,1.0100
6344.00,1.0009
6343.00,0.9917
6342.00,0.9826
6341.00,0.9734
6340.00,0.9641
6339.00,0.9548
6338.00,0.9455
6337.00,0.9364
6336.00,0.9272
6335.00,0.9178
6334.00,0.9081
6333.00,0.8984
6332.00,0.8887
6331.00,0.8791
6330.00,0.8693
6329.00,0.8595
6328.00,0.8497
6327.00,0.8403
6326.00,0.8310
6325.00,0.8218
6324.00,0.8126
6323.00,0.8035
6322.00,0.7948
6321.00,0.7865
6320.00,0.7786
6319.00,0.7711
6318.00,0.7641
6317.00,0.7579
6316.00,0.7522
6315.00,0.7471
6314.00,0.7425
6313.00,0.7384
6312.00,0.7350
6311.00,0.7322
6310.00,0.7299
6309.00,0.7283
6308.00,0.7273
6307.00,0.7269
6306.00,0.7272
6305.00,0.7282
6304.00,0.7298
6303.00,0.7319
6302.00,0.7346
6301.00,0.7378
6300.00,0.7415
6299.00,0.7457
6298.00,0.7504
6297.00,0.7555
6296.00,0.7610
6295.00,0.7669
6294.00,0.7731
6293.00,0.7798
6292.00,0.7869
6291.00,0.7943
6290.00,0.8022
6289.00,0.8103
6288.00,0.8186
6287.00,0.8271
6286.00,0.8357
6285.00,0.8445
6284.00,0.8534
6283.00,0.8626
6282.00,0.8719
6281.00,0.8816
6280.00,0.8913
6279.00,0.9010
6278.00,0.9107
6277.00,0.9205
6276.00,0.9304
6275.00,0.9402
6274.00,0.9500
6273.00,0.9597
6272.00,0.9693
6271.00,0.9788
6270.00,0.9881
6269.00,0.9972
6268.00,1.0063
6267.00,1.0153
6266.00,1.0242
6265.00,1.0329
6264.00,1.0415
6263.00,1.0499
6262.00,1.0584
6261.00,1.0668
6260.00,1.0750
6259.00,1.0831
6258.00,1.0912
6257.00,1.0991
6256.00,1.1066
6255.00,1.1136
6254.00,1.1203
6253.00,1.1266
6252.00,1.1326
6251.00,1.1383
6250.00,1.1440
6249.00,1.1499
6248.00,1.1557
6247.00,1.1613
6246.00,1.1666
6245.00,1.1714
6244.00,1.1754
6243.00,1.1785
6242.00,1.1813
6241.00,1.1840
6240.00,1.1867
6239.00,1.1890
6238.00,1.1909
6237.00,1.1927
6236.00,1.1941
6235.00,1.1952
6234.00,1.1961
6233.00,1.1967
6232.00,1.1969
6231.00,1.1966
6230.00,1.1959
6229.00,1.1950
6228.00,1.1935
6227.00,1.1915
6226.00,1.1890
6225.00,1.1864
6224.00,1.1837
6223.00,1.1807
6222.00,1.1773
6221.00,1.1736
6220.00,1.1695
6219.00,1.1650
6218.00,1.1599
6217.00,1.1544
6216.00,1.1484
6215.00,1.1420
6214.00,1.1353
6213.00,1.1284
6212.00,1.1213
6211.00,1.1139
6210.00,1.1062
6209.00,1.0986
6208.00,1.0910
6207.00,1.0830
6206.00,1.0746
6205.00,1.0655
6204.00,1.0560
6203.00,1.0459
6202.00,1.0355
6201.00,1.0250
6200.00,1.0146
6199.00,1.0043
6198.00,0.9940
6197.00,0.9834
6196.00,0.9725
6195.00,0.9610
6194.00,0.9493
6193.00,0.9375
6192.00,0.9259
6191.00,0.9145
6190.00,0.9034
6189.00,0.8927
6188.00,0.8822
6187.00,0.8719
6186.00,0.8613
6185.00,0.8508
6184.00,0.8403
6183.00,0.8300
6182.00,0.8200
6181.00,0.8103
6180.00,0.8010
6179.00,0.7922
6178.00,0.7838
6177.00,0.7760
6176.00,0.7685
6175.00,0.7615
6174.00,0.7550
6173.00,0.7492
6172.00,0.7438
6171.00,0.7389
6170.00,0.7345
6169.00,0.7307
6168.00,0.7275
6167.00,0.7249
6166.00,0.7230
6165.00,0.7219
6164.00,0.7214
6163.00,0.7216
6162.00,0.7224
6161.00,0.7237
6160.00,0.7256
6159.00,0.7280
6158.00,0.7309
6157.00,0.7344
6156.00,0.7384
6155.00,0.7429
6154.00,0.7479
6153.00,0.7534
6152.00,0.7593
6151.00,0.7657
6150.00,0.7726
6149.00,0.7798
6148.00,0.7874
6147.00,0.7953
6146.00,0.8034
6145.00,0.8117
6144.00,0.8202
6143.00,0.8289
6142.00,0.8380
6141.00,0.8474
6140.00,0.8570
6139.00,0.8665
6138.00,0.8759
6137.00,0.8853
6136.00,0.8947
6135.00,0.9041
6134.00,0.9138
6133.00,0.9236
6132.00,0.9335
6131.00,0.9434
6130.00,0.9532
6129.00,0.9631
6128.00,0.9732
6127.00,0.9833
6126.00,0.9934
6125.00,1.0032
6124.00,1.0127
6123.00,1.0218
6122.00,1.0305
6121.00,1.0391
6120.00,1.0476
6119.00,1.0561
6118.00,1.0645
6117.00,1.0726
6116.00,1.0803
6115.00,1.0878
6114.00,1.0949
6113.00,1.1019
6112.00,1.1087
6111.00,1.1153
6110.00,1.1218
6109.00,1.1278
6108.00,1.1335
6107.00,1.1390
6106.00,1.1443
6105.00,1.1495
6104.00,1.1541
6103.00,1.1582
6102.00,1.1620
6101.00,1.1655
6100.00,1.1687
6099.00,1.1716
6098.00,1.1742
6097.00,1.1766
6096.00,1.1784
6095.00,1.1797
6094.00,1.1804
6093.00,1.1809
6092.00,1.1813
6091.00,1.1816
6090.00,1.1819
6089.00,1.1819
6088.00,1.1813
6087.00,1.1798
6086.00,1.1777
6085.00,1.1752
6084.00,1.1724
6083.00,1.1694
6082.00,1.1664
6081.00,1.1635
6080.00,1.1605
6079.00,1.1570
6078.00,1.1529
6077.00,1.1482
6076.00,1.1431
6075.00,1.1375
6074.00,1.1316
6073.00,1.1254
6072.00,1.1190
6071.00,1.1125
6070.00,1.1057
6069.00,1.0987
6068.00,1.0913
6067.00,1.0834
6066.00,1.0749
6065.00,1.0662
6064.00,1.0575
6063.00,1.0488
6062.00,1.0401
6061.00,1.0311
6060.00,1.0218
6059.00,1.0121
6058.00,1.0021
6057.00,0.9917
6056.00,0.9812
6055.00,0.9705
6054.00,0.9598
6053.00,0.9492
6052.00,0.9385
6051.00,0.9277
6050.00,0.9167
6049.00,0.9057
6048.00,0.8948
6047.00,0.8839
6046.00,0.8729
6045.00,0.8619
6044.00,0.8510
6043.00,0.8403
6042.00,0.8298
6041.00,0.8195
6040.00,0.8095
6039.00,0.7996
6038.00,0.7901
6037.00,0.7808
6036.00,0.7718
6035.00,0.7633
6034.00,0.7552
6033.00,0.7476
6032.00,0.7406
6031.00,0.7341
6030.00,0.7282
6029.00,0.7229
6028.00,0.7183
6027.00,0.7142
6026.00,0.7106
6025.00,0.7076
6024.00,0.7051
6023.00,0.7032
6022.00,0.7019
6021.00,0.7013
6020.00,0.7013
6019.00,0.7020
6018.00,0.7034
6017.00,0.7056
6016.00,0.7084
6015.00,0.7118
6014.00,0.7158
6013.00,0.7203
6012.00,0.7254
6011.00,0.7308
6010.00,0.7365
6009.00,0.7429
6008.00,0.7497
6007.00,0.7569
6006.00,0.7646
6005.00,0.7726
6004.00,0.7809
6003.00,0.7894
6002.00,0.7982
6001.00,0.8072
6000.00,0.8164
5999.00,0.8258
5998.00,0.8354
5997.00,0.8452
5996.00,0.8551
5995.00,0.8651
5994.00,0.8753
5993.00,0.8857
5992.00,0.8961
5991.00,0.9063
5990.00,0.9165
5989.00,0.9267
5988.00,0.9368
5987.00,0.9468
5986.00,0.9568
5985.00,0.9670
5984.00,0.9772
5983.00,0.9873
5982.00,0.9972
5981.00,1.0070
5980.00,1.0167
5979.00,1.0262
5978.00,1.0355
5977.00,1.0447
5976.00,1.0537
5975.00,1.0626
5974.00,1.0713
5973.00,1.0799
5972.00,1.0882
5971.00,1.0965
5970.00,1.1044
5969.00,1.1121
5968.00,1.1194
5967.00,1.1266
5966.00,1.1336
5965.00,1.1404
5964.00,1.1468
5963.00,1.1529
5962.00,1.1586
5961.00,1.1640
5960.00,1.1691
5959.00,1.1739
5958.00,1.1784
5957.00,1.1826
5956.00,1.1866
5955.00,1.1899
5954.00,1.1929
5953.00,1.1956
5952.00,1.1983
5951.00,1.2010
5950.00,1.2032
5949.00,1.2046
5948.00,1.2052
5947.00,1.2051
5946.00,1.2045
5945.00,1.2034
5944.00,1.2018
5943.00,1.2000
5942.00,1.1982
5941.00,1.1963
5940.00,1.1942
5939.00,1.1918
5938.00,1.1891
5937.00,1.1862
5936.00,1.1826
5935.00,1.1784
5934.00,1.1736
5933.00,1.1685
5932.00,1.1632
5931.00,1.1577
5930.00,1.1520
5929.00,1.1459
5928.00,1.1394
5927.00,1.1325
5926.00,1.1253
5925.00,1.1177
5924.00,1.1098
5923.00,1.1014
5922.00,1.0928
5921.00,1.0841
5920.00,1.0750
5919.00,1.0655
5918.00,1.0556
5917.00,1.0455
5916.00,1.0352
5915.00,1.0245
5914.00,1.0135
5913.00,1.0023
5912.00,0.9911
5911.00,0.9799
5910.00,0.9686
5909.00,0.9571
5908.00,0.9453
5907.00,0.9333
5906.00,0.9210
5905.00,0.9088
5904.00,0.8965
5903.00,0.8844
5902.00,0.8725
5901.00,0.8607
5900.00,0.8490
5899.00,0.8373
5898.00,0.8258
5897.00,0.8147
5896.00,0.8040
5895.00,0.7937
5894.00,0.7839
5893.00,0.7744
5892.00,0.7653
5891.00,0.7565
5890.00,0.7480
5889.00,0.7402
5888.00,0.7329
5887.00,0.7262
5886.00,0.7203
5885.00,0.7149
5884.00,0.7103
5883.00,0.7062
5882.00,0.7027
5881.00,0.6999
5880.00,0.6978
5879.00,0.6963
5878.00,0.6955
5877.00,0.6954
5876.00,0.6960
5875.00,0.6971
5874.00,0.6989
5873.00,0.7015
5872.00,0.7046
5871.00,0.7083
5870.00,0.7127
5869.00,0.7177
5868.00,0.7232
5867.00,0.7292
5866.00,0.7359
5865.00,0.7431
5864.00,0.7507
5863.00,0.7587
5862.00,0.7671
5861.00,0.7758
5860.00,0.7847
5859.00,0.7939
5858.00,0.8033
5857.00,0.8131
5856.00,0.8232
5855.00,0.8334
5854.00,0.8437
5853.00,0.8540
5852.00,0.8645
5851.00,0.8749
5850.00,0.8853
5849.00,0.8959
5848.00,0.9067
5847.00,0.9176
5846.00,0.9286
5845.00,0.9398
5844.00,0.9510
5843.00,0.9620
5842.00,0.9728
5841.00,0.9833
5840.00,0.9935
5839.00,1.0037
5838.00,1.0139
5837.00,1.0242
5836.00,1.0344
5835.00,1.0445
5834.00,1.0541
5833.00,1.0633
5832.00,1.0722
5831.00,1.0806
5830.00,1.0889
5829.00,1.0971
5828.00,1.1053
5827.00,1.1131
5826.00,1.1205
5825.00,1.1277
5824.00,1.1346
5823.00,1.1412
5822.00,1.1472
5821.00,1.1529
5820.00,1.1585
5819.00,1.1641
5818.00,1.1697
5817.00,1.1752
5816.00,1.1803
5815.00,1.1848
5814.00,1.1888
5813.00,1.1924
5812.00,1.1956
5811.00,1.1984
5810.00,1.2009
5809.00,1.2031
5808.00,1.2051
5807.00,1.2067
5806.00,1.2077
5805.00,1.2082
5804.00,1.2081
5803.00,1.2077
5802.00,1.2070
5801.00,1.2062
5800.00,1.2052
5799.00,1.2040
5798.00,1.2026
5797.00,1.2009
5796.00,1.1985
5795.00,1.1955
5794.00,1.1921
5793.00,1.1884
5792.00,1.1845
5791.00,1.1801
5790.00,1.1755
5789.00,1.1707
5788.00,1.1656
5787.00,1.1600
5786.00,1.1540
5785.00,1.1476
5784.00,1.1408
5783.00,1.1336
5782.00,1.1259
5781.00,1.1179
5780.00,1.1094
5779.00,1.1005
5778.00,1.0912
5777.00,1.0817
5776.00,1.0720
5775.00,1.0622
5774.00,1.0523
5773.00,1.0422
5772.00,1.0316
5771.00,1.0205
5770.00,1.0092
5769.00,0.9977
5768.00,0.9860
5767.00,0.9742
5766.00,0.9623
5765.00,0.9502
5764.00,0.9379
5763.00,0.9254
5762.00,0.9128
5761.00,0.9002
5760.00,0.8878
5759.00,0.8756
5758.00,0.8635
5757.00,0.8514
5756.00,0.8394
5755.00,0.8275
5754.00,0.8157
5753.00,0.8043
5752.00,0.7933
5751.00,0.7827
5750.00,0.7725
5749.00,0.7627
5748.00,0.7533
5747.00,0.7443
5746.00,0.7358
5745.00,0.7279
5744.00,0.7206
5743.00,0.7139
5742.00,0.7078
5741.00,0.7023
5740.00,0.6975
5739.00,0.6933
5738.00,0.6898
5737.00,0.6870
5736.00,0.6849
5735.00,0.6835
5734.00,0.6828
5733.00,0.6828
5732.00,0.6835
5731.00,0.6849
5730.00,0.6871
5729.00,0.6899
5728.00,0.6934
5727.00,0.6975
5726.00,0.7022
5725.00,0.7075
5724.00,0.7134
5723.00,0.7198
5722.00,0.7266
5721.00,0.7339
5720.00,0.7417
5719.00,0.7497
5718.00,0.7582
5717.00,0.7671
5716.00,0.7764
5715.00,0.7860
5714.00,0.7958
5713.00,0.8058
5712.00,0.8159
5711.00,0.8261
5710.00,0.8363
5709.00,0.8466
5708.00,0.8571
5707.00,0.8677
5706.00,0.8785
5705.00,0.8896
5704.00,0.9007
5703.00,0.9118
5702.00,0.9228
5701.00,0.9338
5700.00,0.9448
5699.00,0.9558
5698.00,0.9667
5697.00,0.9776
5696.00,0.9883
5695.00,0.9988
5694.00,1.0090
5693.00,1.0190
5692.00,1.0291
5691.00,1.0390
5690.00,1.0488
5689.00,1.0583
5688.00,1.0675
5687.00,1.0762
5686.00,1.0848
5685.00,1.0934
5684.00,1.1023
5683.00,1.1113
5682.00,1.1202
5681.00,1.1285
5680.00,1.1363
5679.00,1.1436
5678.00,1.1502
5677.00,1.1566
5676.00,1.1628
5675.00,1.1689
5674.00,1.1747
5673.00,1.1798
5672.00,1.1845
5671.00,1.1888
5670.00,1.1930
5669.00,1.1969
5668.00,1.2005
5667.00,1.2038
5666.00,1.2068
5665.00,1.2097
5664.00,1.2121
5663.00,1.2140
5662.00,1.2153
5661.00,1.2162
5660.00,1.2167
5659.00,1.2170
5658.00,1.2170
5657.00,1.2168
5656.00,1.2163
5655.00,1.2152
5654.00,1.2136
5653.00,1.2112
5652.00,1.2085
5651.00,1.2056
5650.00,1.2025
5649.00,1.1990
5648.00,1.1950
5647.00,1.1906
5646.00,1.1856
5645.00,1.1802
5644.00,1.1744
5643.00,1.1684
5642.00,1.1623
5641.00,1.1560
5640.00,1.1494
5639.00,1.1422
5638.00,1.1345
5637.00,1.1263
5636.00,1.1175
5635.00,1.1083
5634.00,1.0989
5633.00,1.0896
5632.00,1.0802
5631.00,1.0704
5630.00,1.0601
5629.00,1.0493
5628.00,1.0379
5627.00,1.0261
5626.00,1.0140
5625.00,1.0018
5624.00,0.9895
5623.00,0.9772
5622.00,0.9648
5621.00,0.9522
5620.00,0.9394
5619.00,0.9265
5618.00,0.9135
5617.00,0.9004
5616.00,0.8875
5615.00,0.8745
5614.00,0.8616
5613.00,0.8489
5612.00,0.8362
5611.00,0.8238
5610.00,0.8116
5609.00,0.7998
5608.00,0.7885
5607.00,0.7775
5606.00,0.7670
5605.00,0.7569
5604.00,0.7472
5603.00,0.7379
5602.00,0.7291
5601.00,0.7209
5600.00,0.7133
5599.00,0.7064
5598.00,0.7003
5597.00,0.6949
5596.00,0.6904
5595.00,0.6866
5594.00,0.6836
5593.00,0.6813
5592.00,0.6797
5591.00,0.6789
5590.00,0.6788
5589.00,0.6796
5588.00,0.6811
5587.00,0.6833
5586.00,0.6863
5585.00,0.6899
5584.00,0.6943
5583.00,0.6993
5582.00,0.7050
5581.00,0.7114
5580.00,0.7184
5579.00,0.7260
5578.00,0.7340
5577.00,0.7425
5576.00,0.7513
5575.00,0.7605
5574.00,0.7700
5573.00,0.7799
5572.00,0.7901
5571.00,0.8006
5570.00,0.8114
5569.00,0.8223
5568.00,0.8333
5567.00,0.8444
5566.00,0.8557
5565.00,0.8672
5564.00,0.8790
5563.00,0.8909
5562.00,0.9031
5561.00,0.9153
5560.00,0.9274
5559.00,0.9392
5558.00,0.9510
5557.00,0.9627
5556.00,0.9743
5555.00,0.9860
5554.00,0.9978
5553.00,1.0095
5552.00,1.0209
5551.00,1.0320
5550.00,1.0429
5549.00,1.0535
5548.00,1.0639
5547.00,1.0741
5546.00,1.0842
5545.00,1.0942
5544.00,1.1039
5543.00,1.1132
5542.00,1.1223
5541.00,1.1312
5540.00,1.1398
5539.00,1.1481
5538.00,1.1560
5537.00,1.1637
5536.00,1.1711
5535.00,1.1783
5534.00,1.1850
5533.00,1.1913
5532.00,1.1970
5531.00,1.2021
5530.00,1.2070
5529.00,1.2116
5528.00,1.2160
5527.00,1.2203
5526.00,1.2244
5525.00,1.2281
5524.00,1.2312
5523.00,1.2337
5522.00,1.2356
5521.00,1.2371
5520.00,1.2382
5519.00,1.2391
5518.00,1.2398
5517.00,1.2402
5516.00,1.2403
5515.00,1.2399
5514.00,1.2392
5513.00,1.2381
5512.00,1.2368
5511.00,1.2352
5510.00,1.2331
5509.00,1.2304
5508.00,1.2272
5507.00,1.2236
5506.00,1.2198
5505.00,1.2158
5504.00,1.2114
5503.00,1.2066
5502.00,1.2013
5501.00,1.1956
5500.00,1.1894
5499.00,1.1829
5498.00,1.1760
5497.00,1.1688
5496.00,1.1612
5495.00,1.1531
5494.00,1.1446
5493.00,1.1357
5492.00,1.1265
5491.00,1.1168
5490.00,1.1065
5489.00,1.0956
5488.00,1.0846
5487.00,1.0735
5486.00,1.0621
5485.00,1.0503
5484.00,1.0381
5483.00,1.0256
5482.00,1.0128
5481.00,0.9999
5480.00,0.9869
5479.00,0.9738
5478.00,0.9606
5477.00,0.9471
5476.00,0.9335
5475.00,0.9197
5474.00,0.9059
5473.00,0.8921
5472.00,0.8782
5471.00,0.8643
5470.00,0.8506
5469.00,0.8371
5468.00,0.8239
5467.00,0.8109
5466.00,0.7982
5465.00,0.7860
5464.00,0.7742
5463.00,0.7627
5462.00,0.7518
5461.00,0.7414
5460.00,0.7316
5459.00,0.7223
5458.00,0.7136
5457.00,0.7057
5456.00,0.6985
5455.00,0.6921
5454.00,0.6865
5453.00,0.6816
5452.00,0.6775
5451.00,0.6743
5450.00,0.6719
5449.00,0.6705
5448.00,0.6698
5447.00,0.6699
5446.00,0.6708
5445.00,0.6726
5444.00,0.6751
5443.00,0.6783
5442.00,0.6824
5441.00,0.6873
5440.00,0.6930
5439.00,0.6992
5438.00,0.7059
5437.00,0.7130
5436.00,0.7208
5435.00,0.7292
5434.00,0.7383
5433.00,0.7477
5432.00,0.7573
5431.00,0.7672
5430.00,0.7777
5429.00,0.7887
5428.00,0.8003
5427.00,0.8121
5426.00,0.8240
5425.00,0.8360
5424.00,0.8480
5423.00,0.8599
5422.00,0.8719
5421.00,0.8840
5420.00,0.8963
5419.00,0.9086
5418.00,0.9210
5417.00,0.9333
5416.00,0.9454
5415.00,0.9576
5414.00,0.9700
5413.00,0.9825
5412.00,0.9951
5411.00,1.0079
5410.00,1.0208
5409.00,1.0335
5408.00,1.0458
5407.00,1.0576
5406.00,1.0689
5405.00,1.0798
5404.00,1.0902
5403.00,1.1004
5402.00,1.1103
5401.00,1.1201
5400.00,1.1299
5399.00,1.1396
5398.00,1.1491
5397.00,1.1583
5396.00,1.1673
5395.00,1.1760
5394.00,1.1845
5393.00,1.1926
5392.00,1.2001
5391.00,1.2070
5390.00,1.2133
5389.00,1.2192
5388.00,1.2252
5387.00,1.2312
5386.00,1.2372
5385.00,1.2428
5384.00,1.2477
5383.00,1.2519
5382.00,1.2553
5381.00,1.2583
5380.00,1.2608
5379.00,1.2631
5378.00,1.2652
5377.00,1.2672
5376.00,1.2690
5375.00,1.2705
5374.00,1.2716
5373.00,1.2723
5372.00,1.2725
5371.00,1.2722
5370.00,1.2712
5369.00,1.2695
5368.00,1.2673
5367.00,1.2649
5366.00,1.2624
5365.00,1.2597
5364.00,1.2567
5363.00,1.2534
5362.00,1.2496
5361.00,1.2453
5360.00,1.2406
5359.00,1.2355
5358.00,1.2301
5357.00,1.2242
5356.00,1.2177
5355.00,1.2107
5354.00,1.2033
5353.00,1.1955
5352.00,1.1874
5351.00,1.1789
5350.00,1.1702
5349.00,1.1612
5348.00,1.1518
5347.00,1.1421
5346.00,1.1318
5345.00,1.1212
5344.00,1.1103
5343.00,1.0990
5342.00,1.0873
5341.00,1.0751
5340.00,1.0626
5339.00,1.0496
5338.00,1.0362
5337.00,1.0224
5336.00,1.0084
5335.00,0.9944
5334.00,0.9804
5333.00,0.9664
5332.00,0.9524
5331.00,0.9383
5330.00,0.9241
5329.00,0.9098
5328.00,0.8954
5327.00,0.8812
5326.00,0.8672
5325.00,0.8533
5324.00,0.8397
5323.00,0.8264
5322.00,0.8136
5321.00,0.8011
5320.00,0.7889
5319.00,0.7773
5318.00,0.7663
5317.00,0.7558
5316.00,0.7459
5315.00,0.7365
5314.00,0.7279
5313.00,0.7201
5312.00,0.7131
5311.00,0.7070
5310.00,0.7017
5309.00,0.6973
5308.00,0.6939
5307.00,0.6913
5306.00,0.6895
5305.00,0.6886
5304.00,0.6885
5303.00,0.6893
5302.00,0.6910
5301.00,0.6935
5300.00,0.6968
5299.00,0.7009
5298.00,0.7057
5297.00,0.7114
5296.00,0.7179
5295.00,0.7250
5294.00,0.7327
5293.00,0.7411
5292.00,0.7499
5291.00,0.7594
5290.00,0.7695
5289.00,0.7802
5288.00,0.7912
5287.00,0.8023
5286.00,0.8136
5285.00,0.8253
5284.00,0.8373
5283.00,0.8494
5282.00,0.8618
5281.00,0.8743
5280.00,0.8870
5279.00,0.8998
5278.00,0.9128
5277.00,0.9259
5276.00,0.9390
5275.00,0.9522
5274.00,0.9652
5273.00,0.9782
5272.00,0.9910
5271.00,1.0038
5270.00,1.0165
5269.00,1.0293
5268.00,1.0418
5267.00,1.0540
5266.00,1.0659
5265.00,1.0779
5264.00,1.0900
5263.00,1.1022
5262.00,1.1143
5261.00,1.1260
5260.00,1.1371
5259.00,1.1475
5258.00,1.1574
5257.00,1.1669
5256.00,1.1762
5255.00,1.1857
5254.00,1.1952
5253.00,1.2044
5252.00,1.2130
5251.00,1.2209
5250.00,1.2284
5249.00,1.2357
5248.00,1.2428
5247.00,1.2496
5246.00,1.2561
5245.00,1.2621
5244.00,1.2677
5243.00,1.2729
5242.00,1.2777
5241.00,1.2819
5240.00,1.2857
5239.00,1.2891
5238.00,1.2922
5237.00,1.2949
5236.00,1.2972
5235.00,1.2991
5234.00,1.3006
5233.00,1.3017
5232.00,1.3024
5231.00,1.3027
5230.00,1.3028
5229.00,1.3027
5228.00,1.3023
5227.00,1.3014
5226.00,1.3001
5225.00,1.2985
5224.00,1.2964
5223.00,1.2937
5222.00,1.2904
5221.00,1.2868
5220.00,1.2830
5219.00,1.2789
5218.00,1.2744
5217.00,1.2695
5216.00,1.2640
5215.00,1.2579
5214.00,1.2513
5213.00,1.2443
5212.00,1.2372
5211.00,1.2299
5210.00,1.2223
5209.00,1.2143
5208.00,1.2057
5207.00,1.1964
5206.00,1.1865
5205.00,1.1764
5204.00,1.1661
5203.00,1.1557
5202.00,1.1449
5201.00,1.1338
5200.00,1.1222
5199.00,1.1101
5198.00,1.0977
5197.00,1.0852
5196.00,1.0726
5195.00,1.0597
5194.00,1.0465
5193.00,1.0328
5192.00,1.0187
5191.00,1.0042
5190.00,0.9893
5189.00,0.9741
5188.00,0.9587
5187.00,0.9431
5186.00,0.9274
5185.00,0.9119
5184.00,0.8965
5183.00,0.8813
5182.00,0.8663
5181.00,0.8514
5180.00,0.8368
5179.00,0.8223
5178.00,0.8083
5177.00,0.7950
5176.00,0.7823
5175.00,0.7704
5174.00,0.7590
5173.00,0.7483
5172.00,0.7383
5171.00,0.7289
5170.00,0.7203
5169.00,0.7126
5168.00,0.7057
5167.00,0.6997
5166.00,0.6946
5165.00,0.6905
5164.00,0.6874
5163.00,0.6851
5162.00,0.6838
5161.00,0.6835
5160.00,0.6840
5159.00,0.6854
5158.00,0.6877
5157.00,0.6909
5156.00,0.6949
5155.00,0.6999
5154.00,0.7057
5153.00,0.7124
5152.00,0.7197
5151.00,0.7278
5150.00,0.7364
5149.00,0.7456
5148.00,0.7554
5147.00,0.7657
5146.00,0.7766
5145.00,0.7879
5144.00,0.7996
5143.00,0.8116
5142.00,0.8240
5141.00,0.8367
5140.00,0.8497
5139.00,0.8629
5138.00,0.8762
5137.00,0.8896
5136.00,0.9030
5135.00,0.9165
5134.00,0.9301
5133.00,0.9439
5132.00,0.9577
5131.00,0.9716
5130.00,0.9855
5129.00,0.9994
5128.00,1.0132
5127.00,1.0269
5126.00,1.0403
5125.00,1.0536
5124.00,1.0667
5123.00,1.0796
5122.00,1.0924
5121.00,1.1051
5120.00,1.1175
5119.00,1.1296
5118.00,1.1416
5117.00,1.1533
5116.00,1.1648
5115.00,1.1760
5114.00,1.1869
5113.00,1.1975
5112.00,1.2077
5111.00,1.2176
5110.00,1.2271
5109.00,1.2360
5108.00,1.2444
5107.00,1.2525
5106.00,1.2603
5105.00,1.2678
5104.00,1.2750
5103.00,1.2818
5102.00,1.2883
5101.00,1.2944
5100.00,1.3001
5099.00,1.3055
5098.00,1.3105
5097.00,1.3151
5096.00,1.3192
5095.00,1.3227
5094.00,1.3258
5093.00,1.3285
5092.00,1.3305
5091.00,1.3321
5090.00,1.3335
5089.00,1.3348
5088.00,1.3361
5087.00,1.3372
5086.00,1.3377
5085.00,1.3374
5084.00,1.3362
5083.00,1.3345
5082.00,1.3324
5081.00,1.3301
5080.00,1.3277
5079.00,1.3251
5078.00,1.3222
5077.00,1.3188
5076.00,1.3149
5075.00,1.3106
5074.00,1.3059
5073.00,1.3009
5072.00,1.2955
5071.00,1.2897
5070.00,1.2834
5069.00,1.2767
5068.00,1.2694
5067.00,1.2614
5066.00,1.2528
5065.00,1.2439
5064.00,1.2345
5063.00,1.2249
5062.00,1.2151
5061.00,1.2051
5060.00,1.1947
5059.00,1.1836
5058.00,1.1719
5057.00,1.1596
5056.00,1.1470
5055.00,1.1340
5054.00,1.1207
5053.00,1.1072
5052.00,1.0934
5051.00,1.0792
5050.00,1.0647
5049.00,1.0499
5048.00,1.0348
5047.00,1.0194
5046.00,1.0037
5045.00,0.9877
5044.00,0.9716
5043.00,0.9556
5042.00,0.9396
5041.00,0.9239
5040.00,0.9082
5039.00,0.8926
5038.00,0.8772
5037.00,0.8620
5036.00,0.8471
5035.00,0.8327
5034.00,0.8187
5033.00,0.8052
5032.00,0.7922
5031.00,0.7798
5030.00,0.7682
5029.00,0.7573
5028.00,0.7471
5027.00,0.7377
5026.00,0.7292
5025.00,0.7216
5024.00,0.7149
5023.00,0.7091
5022.00,0.7044
5021.00,0.7007
5020.00,0.6981
5019.00,0.6964
5018.00,0.6959
5017.00,0.6963
5016.00,0.6978
5015.00,0.7003
5014.00,0.7037
5013.00,0.7082
5012.00,0.7135
5011.00,0.7197
5010.00,0.7266
5009.00,0.7345
5008.00,0.7431
5007.00,0.7525
5006.00,0.7625
5005.00,0.7732
5004.00,0.7844
5003.00,0.7960
5002.00,0.8080
5001.00,0.8204
5000.00,0.8332
4999.00,0.8464
4998.00,0.8598
4997.00,0.8735
4996.00,0.8875
4995.00,0.9016
4994.00,0.9157
4993.00,0.9299
4992.00,0.9441
4991.00,0.9582
4990.00,0.9723
4989.00,0.9864
4988.00,1.0005
4987.00,1.0148
4986.00,1.0290
4985.00,1.0432
4984.00,1.0573
4983.00,1.0712
4982.00,1.0850
4981.00,1.0985
4980.00,1.1117
4979.00,1.1246
4978.00,1.1371
4977.00,1.1494
4976.00,1.1617
4975.00,1.1741
4974.00,1.1865
4973.00,1.1985
4972.00,1.2098
4971.00,1.2208
4970.00,1.2314
4969.00,1.2418
4968.00,1.2520
4967.00,1.2619
4966.00,1.2714
4965.00,1.2805
4964.00,1.2892
4963.00,1.2973
4962.00,1.3050
4961.00,1.3123
4960.00,1.3190
4959.00,1.3252
4958.00,1.3310
4957.00,1.3365
4956.00,1.3415
4955.00,1.3462
4954.00,1.3506
4953.00,1.3546
4952.00,1.3582
4951.00,1.3614
4950.00,1.3641
4949.00,1.3664
4948.00,1.3685
4947.00,1.3701
4946.00,1.3712
4945.00,1.3718
4944.00,1.3719
4943.00,1.3715
4942.00,1.3707
4941.00,1.3697
4940.00,1.3683
4939.00,1.3664
4938.00,1.3640
4937.00,1.3611
4936.00,1.3578
4935.00,1.3543
4934.00,1.3505
4933.00,1.3463
4932.00,1.3416
4931.00,1.3366
4930.00,1.3310
4929.00,1.3250
4928.00,1.3186
4927.00,1.3117
4926.00,1.3044
4925.00,1.2965
4924.00,1.2881
4923.00,1.2792
4922.00,1.2699
4921.00,1.2602
4920.00,1.2501
4919.00,1.2397
4918.00,1.2288
4917.00,1.2176
4916.00,1.2059
4915.00,1.1938
4914.00,1.1812
4913.00,1.1681
4912.00,1.1546
4911.00,1.1407
4910.00,1.1264
4909.00,1.1117
4908.00,1.0966
4907.00,1.0811
4906.00,1.0654
4905.00,1.0493
4904.00,1.0330
4903.00,1.0167
4902.00,1.0003
4901.00,0.9837
4900.00,0.9670
4899.00,0.9503
4898.00,0.9336
4897.00,0.9169
4896.00,0.9004
4895.00,0.8841
4894.00,0.8681
4893.00,0.8526
4892.00,0.8375
4891.00,0.8229
4890.00,0.8089
4889.00,0.7954
4888.00,0.7824
4887.00,0.7701
4886.00,0.7586
4885.00,0.7480
4884.00,0.7383
4883.00,0.7294
4882.00,0.7215
4881.00,0.7144
4880.00,0.7084
4879.00,0.7034
4878.00,0.6996
4877.00,0.6969
4876.00,0.6953
4875.00,0.6948
4874.00,0.6954
4873.00,0.6971
4872.00,0.6998
4871.00,0.7037
4870.00,0.7085
4869.00,0.7143
4868.00,0.7210
4867.00,0.7286
4866.00,0.7370
4865.00,0.7462
4864.00,0.7563
4863.00,0.7669
4862.00,0.7782
4861.00,0.7901
4860.00,0.8024
4859.00,0.8153
4858.00,0.8286
4857.00,0.8423
4856.00,0.8563
4855.00,0.8706
4854.00,0.8850
4853.00,0.8996
4852.00,0.9144
4851.00,0.9294
4850.00,0.9447
4849.00,0.9602
4848.00,0.9757
4847.00,0.9912
4846.00,1.0065
4845.00,1.0218
4844.00,1.0369
4843.00,1.0520
4842.00,1.0670
4841.00,1.0819
4840.00,1.0966
4839.00,1.1112
4838.00,1.1257
4837.00,1.1400
4836.00,1.1540
4835.00,1.1675
4834.00,1.1808
4833.00,1.1938
4832.00,1.2066
4831.00,1.2191
4830.00,1.2313
4829.00,1.2431
4828.00,1.2544
4827.00,1.2653
4826.00,1.2759
4825.00,1.2864
4824.00,1.2965
4823.00,1.3063
4822.00,1.3155
4821.00,1.3244
4820.00,1.3330
4819.00,1.3413
4818.00,1.3492
4817.00,1.3565
4816.00,1.3631
4815.00,1.3689
4814.00,1.3741
4813.00,1.3790
4812.00,1.3838
4811.00,1.3885
4810.00,1.3929
4809.00,1.3969
4808.00,1.4004
4807.00,1.4033
4806.00,1.4057
4805.00,1.4077
4804.00,1.4093
4803.00,1.4105
4802.00,1.4113
4801.00,1.4114
4800.00,1.4111
4799.00,1.4104
4798.00,1.4094
4797.00,1.4082
4796.00,1.4069
4795.00,1.4052
4794.00,1.4030
4793.00,1.4002
4792.00,1.3968
4791.00,1.3928
4790.00,1.3883
4789.00,1.3836
4788.00,1.3787
4787.00,1.3736
4786.00,1.3680
4785.00,1.3618
4784.00,1.3550
4783.00,1.3478
4782.00,1.3401
4781.00,1.3320
4780.00,1.3235
4779.00,1.3144
4778.00,1.3048
4777.00,1.2947
4776.00,1.2841
4775.00,1.2732
4774.00,1.2619
4773.00,1.2504
4772.00,1.2383
4771.00,1.2258
4770.00,1.2126
4769.00,1.1988
4768.00,1.1845
4767.00,1.1697
4766.00,1.1544
4765.00,1.1387
4764.00,1.1228
4763.00,1.1065
4762.00,1.0900
4761.00,1.0731
4760.00,1.0559
4759.00,1.0384
4758.00,1.0207
4757.00,1.0029
4756.00,0.9851
4755.00,0.9674
4754.00,0.9496
4753.00,0.9320
4752.00,0.9145
4751.00,0.8972
4750.00,0.8802
4749.00,0.8636
4748.00,0.8475
4747.00,0.8318
4746.00,0.8169
4745.00,0.8026
4744.00,0.7892
4743.00,0.7766
4742.00,0.7648
4741.00,0.7539
4740.00,0.7440
4739.00,0.7350
4738.00,0.7272
4737.00,0.7206
4736.00,0.7152
4735.00,0.7110
4734.00,0.7080
4733.00,0.7062
4732.00,0.7056
4731.00,0.7062
4730.00,0.7081
4729.00,0.7111
4728.00,0.7153
4727.00,0.7205
4726.00,0.7269
4725.00,0.7342
4724.00,0.7425
4723.00,0.7517
4722.00,0.7617
4721.00,0.7725
4720.00,0.7841
4719.00,0.7962
4718.00,0.8090
4717.00,0.8223
4716.00,0.8361
4715.00,0.8502
4714.00,0.8648
4713.00,0.8798
4712.00,0.8951
4711.00,0.9106
4710.00,0.9262
4709.00,0.9421
4708.00,0.9580
4707.00,0.9741
4706.00,0.9902
4705.00,1.0064
4704.00,1.0226
4703.00,1.0387
4702.00,1.0549
4701.00,1.0710
4700.00,1.0869
4699.00,1.1027
4698.00,1.1183
4697.00,1.1338
4696.00,1.1489
4695.00,1.1638
4694.00,1.1783
4693.00,1.1926
4692.00,1.2067
4691.00,1.2206
4690.00,1.2342
4689.00,1.2474
4688.00,1.2602
4687.00,1.2726
4686.00,1.2848
4685.00,1.2969
4684.00,1.3086
4683.00,1.3198
4682.00,1.3305
4681.00,1.3405
4680.00,1.3500
4679.00,1.3590
4678.00,1.3676
4677.00,1.3759
4676.00,1.3839
4675.00,1.3916
4674.00,1.3987
4673.00,1.4053
4672.00,1.4113
4671.00,1.4167
4670.00,1.4218
4669.00,1.4267
4668.00,1.4313
4667.00,1.4355
4666.00,1.4391
4665.00,1.4420
4664.00,1.4443
4663.00,1.4462
4662.00,1.4478
4661.00,1.4492
4660.00,1.4502
4659.00,1.4508
4658.00,1.4509
4657.00,1.4504
4656.00,1.4494
4655.00,1.4480
4654.00,1.4463
4653.00,1.4442
4652.00,1.4419
4651.00,1.4392
4650.00,1.4363
4649.00,1.4329
4648.00,1.4289
4647.00,1.4243
4646.00,1.4191
4645.00,1.4134
4644.00,1.4074
4643.00,1.4010
4642.00,1.3943
4641.00,1.3872
4640.00,1.3796
4639.00,1.3714
4638.00,1.3625
4637.00,1.3530
4636.00,1.3429
4635.00,1.3323
4634.00,1.3214
4633.00,1.3103
4632.00,1.2988
4631.00,1.2868
4630.00,1.2744
4629.00,1.2615
4628.00,1.2482
4627.00,1.2344
4626.00,1.2201
4625.00,1.2055
4624.00,1.1905
4623.00,1.1751
4622.00,1.1595
4621.00,1.1437
4620.00,1.1275
4619.00,1.1109
4618.00,1.0940
4617.00,1.0766
4616.00,1.0590
4615.00,1.0410
4614.00,1.0228
4613.00,1.0045
4612.00,0.9860
4611.00,0.9676
4610.00,0.9494
4609.00,0.9314
4608.00,0.9136
4607.00,0.8961
4606.00,0.8789
4605.00,0.8621
4604.00,0.8459
4603.00,0.8302
4602.00,0.8152
4601.00,0.8011
4600.00,0.7878
4599.00,0.7755
4598.00,0.7642
4597.00,0.7540
4596.00,0.7448
4595.00,0.7368
4594.00,0.7300
4593.00,0.7246
4592.00,0.7204
4591.00,0.7176
4590.00,0.7162
4589.00,0.7162
4588.00,0.7175
4587.00,0.7199
4586.00,0.7237
4585.00,0.7287
4584.00,0.7348
4583.00,0.7421
4582.00,0.7504
4581.00,0.7598
4580.00,0.7700
4579.00,0.7811
4578.00,0.7930
4577.00,0.8057
4576.00,0.8191
4575.00,0.8330
4574.00,0.8475
4573.00,0.8623
4572.00,0.8776
4571.00,0.8932
4570.00,0.9091
4569.00,0.9254
4568.00,0.9419
4567.00,0.9585
4566.00,0.9754
4565.00,0.9925
4564.00,1.0096
4563.00,1.0267
4562.00,1.0437
4561.00,1.0606
4560.00,1.0774
4559.00,1.0943
4558.00,1.1112
4557.00,1.1280
4556.00,1.1445
4555.00,1.1608
4554.00,1.1768
4553.00,1.1926
4552.00,1.2080
4551.00,1.2231
4550.00,1.2380
4549.00,1.2527
4548.00,1.2671
4547.00,1.2811
4546.00,1.2949
4545.00,1.3082
4544.00,1.3212
4543.00,1.3337
4542.00,1.3458
4541.00,1.3576
4540.00,1.3690
4539.00,1.3799
4538.00,1.3903
4537.00,1.4003
4536.00,1.4097
4535.00,1.4187
4534.00,1.4271
4533.00,1.4349
4532.00,1.4423
4531.00,1.4492
4530.00,1.4557
4529.00,1.4618
4528.00,1.4675
4527.00,1.4728
4526.00,1.4777
4525.00,1.4824
4524.00,1.4866
4523.00,1.4902
4522.00,1.4931
4521.00,1.4956
4520.00,1.4977
4519.00,1.4995
4518.00,1.5011
4517.00,1.5022
4516.00,1.5027
4515.00,1.5026
4514.00,1.5017
4513.00,1.5005
4512.00,1.4990
4511.00,1.4973
4510.00,1.4956
4509.00,1.4937
4508.00,1.4914
4507.00,1.4884
4506.00,1.4847
4505.00,1.4802
4504.00,1.4752
4503.00,1.4697
4502.00,1.4639
4501.00,1.4580
4500.00,1.4516
4499.00,1.4448
4498.00,1.4375
4497.00,1.4295
4496.00,1.4208
4495.00,1.4115
4494.00,1.4017
4493.00,1.3915
4492.00,1.3810
4491.00,1.3701
4490.00,1.3586
4489.00,1.3468
4488.00,1.3344
4487.00,1.3217
4486.00,1.3086
4485.00,1.2950
4484.00,1.2808
4483.00,1.2661
4482.00,1.2509
4481.00,1.2351
4480.00,1.2189
4479.00,1.2022
4478.00,1.1851
4477.00,1.1677
4476.00,1.1500
4475.00,1.1320
4474.00,1.1138
4473.00,1.0953
4472.00,1.0767
4471.00,1.0579
4470.00,1.0391
4469.00,1.0205
4468.00,1.0021
4467.00,0.9840
4466.00,0.9663
4465.00,0.9491
4464.00,0.9323
4463.00,0.9162
4462.00,0.9009
4461.00,0.8864
4460.00,0.8729
4459.00,0.8605
4458.00,0.8493
4457.00,0.8393
4456.00,0.8306
4455.00,0.8233
4454.00,0.8175
4453.00,0.8132
4452.00,0.8104
4451.00,0.8090
4450.00,0.8092
4449.00,0.8107
4448.00,0.8136
4447.00,0.8177
4446.00,0.8229
4445.00,0.8291
4444.00,0.8361
4443.00,0.8437
4442.00,0.8519
4441.00,0.8605
4440.00,0.8693
4439.00,0.8781
4438.00,0.8868
4437.00,0.8953
4436.00,0.9037
4435.00,0.9120
4434.00,0.9204
4433.00,0.9290
4432.00,0.9378
4431.00,0.9471
4430.00,0.9570
4429.00,0.9676
4428.00,0.9789
4427.00,0.9908
4426.00,1.0034
4425.00,1.0167
4424.00,1.0308
4423.00,1.0455
4422.00,1.0607
4421.00,1.0764
4420.00,1.0922
4419.00,1.1084
4418.00,1.1248
4417.00,1.1415
4416.00,1.1585
4415.00,1.1755
4414.00,1.1924
4413.00,1.2092
4412.00,1.2258
4411.00,1.2423
4410.00,1.2588
4409.00,1.2752
4408.00,1.2913
4407.00,1.3070
4406.00,1.3223
4405.00,1.3372
4404.00,1.3519
4403.00,1.3662
4402.00,1.3801
4401.00,1.3933
4400.00,1.4058
4399.00,1.4175
4398.00,1.4285
4397.00,1.4389
4396.00,1.4489
4395.00,1.4583
4394.00,1.4673
4393.00,1.4757
4392.00,1.4837
4391.00,1.4912
4390.00,1.4985
4389.00,1.5055
4388.00,1.5124
4387.00,1.5189
4386.00,1.5249
4385.00,1.5304
4384.00,1.5354
4383.00,1.5398
4382.00,1.5439
4381.00,1.5478
4380.00,1.5516
4379.00,1.5552
4378.00,1.5585
4377.00,1.5614
4376.00,1.5638
4375.00,1.5658
4374.00,1.5674
4373.00,1.5687
4372.00,1.5698
4371.00,1.5705
4370.00,1.5709
4369.00,1.5707
4368.00,1.5698
4367.00,1.5684
4366.00,1.5665
4365.00,1.5641
4364.00,1.5615
4363.00,1.5588
4362.00,1.5559
4361.00,1.5526
4360.00,1.5490
4359.00,1.5447
4358.00,1.5396
4357.00,1.5339
4356.00,1.5275
4355.00,1.5205
4354.00,1.5132
4353.00,1.5056
4352.00,1.4977
4351.00,1.4894
4350.00,1.4805
4349.00,1.4710
4348.00,1.4609
4347.00,1.4502
4346.00,1.4392
4345.00,1.4277
4344.00,1.4158
4343.00,1.4031
4342.00,1.3898
4341.00,1.3757
4340.00,1.3610
4339.00,1.3458
4338.00,1.3301
4337.00,1.3141
4336.00,1.2977
4335.00,1.2809
4334.00,1.2636
4333.00,1.2457
4332.00,1.2274
4331.00,1.2085
4330.00,1.1891
4329.00,1.1694
4328.00,1.1496
4327.00,1.1297
4326.00,1.1099
4325.00,1.0902
4324.00,1.0705
4323.00,1.0508
4322.00,1.0312
4321.00,1.0118
4320.00,0.9924
4319.00,0.9732
4318.00,0.9540
4317.00,0.9349
4316.00,0.9160
4315.00,0.8976
4314.00,0.8797
4313.00,0.8625
4312.00,0.8462
4311.00,0.8309
4310.00,0.8168
4309.00,0.8040
4308.00,0.7927
4307.00,0.7828
4306.00,0.7745
4305.00,0.7677
4304.00,0.7626
4303.00,0.7592
4302.00,0.7575
4301.00,0.7573
4300.00,0.7587
4299.00,0.7617
4298.00,0.7663
4297.00,0.7724
4296.00,0.7798
4295.00,0.7886
4294.00,0.7986
4293.00,0.8098
4292.00,0.8219
4291.00,0.8349
4290.00,0.8487
4289.00,0.8633
4288.00,0.8786
4287.00,0.8944
4286.00,0.9110
4285.00,0.9280
4284.00,0.9454
4283.00,0.9631
4282.00,0.9810
4281.00,0.9991
4280.00,1.0174
4279.00,1.0359
4278.00,1.0546
4277.00,1.0735
4276.00,1.0923
4275.00,1.1111
4274.00,1.1298
4273.00,1.1484
4272.00,1.1669
4271.00,1.1853
4270.00,1.2035
4269.00,1.2215
4268.00,1.2393
4267.00,1.2568
4266.00,1.2741
4265.00,1.2911
4264.00,1.3078
4263.00,1.3241
4262.00,1.3400
4261.00,1.3554
4260.00,1.3704
4259.00,1.3851
4258.00,1.3995
4257.00,1.4134
4256.00,1.4268
4255.00,1.4396
4254.00,1.4520
4253.00,1.4639
4252.00,1.4753
4251.00,1.4862
4250.00,1.4965
4249.00,1.5065
4248.00,1.5159
4247.00,1.5248
4246.00,1.5333
4245.00,1.5413
4244.00,1.5489
4243.00,1.5560
4242.00,1.5624
4241.00,1.5681
4240.00,1.5733
4239.00,1.5782
4238.00,1.5828
4237.00,1.5870
4236.00,1.5907
4235.00,1.5940
4234.00,1.5968
4233.00,1.5991
4232.00,1.6010
4231.00,1.6026
4230.00,1.6038
4229.00,1.6046
4228.00,1.6049
4227.00,1.6046
4226.00,1.6038
4225.00,1.6027
4224.00,1.6013
4223.00,1.5996
4222.00,1.5975
4221.00,1.5949
4220.00,1.5918
4219.00,1.5881
4218.00,1.5837
4217.00,1.5787
4216.00,1.5734
4215.00,1.5677
4214.00,1.5617
4213.00,1.5554
4212.00,1.5485
4211.00,1.5412
4210.00,1.5333
4209.00,1.5250
4208.00,1.5161
4207.00,1.5067
4206.00,1.4969
4205.00,1.4865
4204.00,1.4757
4203.00,1.4644
4202.00,1.4525
4201.00,1.4400
4200.00,1.4267
4199.00,1.4128
4198.00,1.3982
4197.00,1.3829
4196.00,1.3671
4195.00,1.3508
4194.00,1.3342
4193.00,1.3170
4192.00,1.2992
4191.00,1.2806
4190.00,1.2612
4189.00,1.2413
4188.00,1.2209
4187.00,1.2001
4186.00,1.1789
4185.00,1.1573
4184.00,1.1353
4183.00,1.1131
4182.00,1.0907
4181.00,1.0681
4180.00,1.0456
4179.00,1.0232
4178.00,1.0011
4177.00,0.9792
4176.00,0.9577
4175.00,0.9368
4174.00,0.9165
4173.00,0.8970
4172.00,0.8785
4171.00,0.8610
4170.00,0.8446
4169.00,0.8295
4168.00,0.8156
4167.00,0.8030
4166.00,0.7919
4165.00,0.7824
4164.00,0.7745
4163.00,0.7683
4162.00,0.7638
4161.00,0.7611
4160.00,0.7602
4159.00,0.7610
4158.00,0.7634
4157.00,0.7675
4156.00,0.7732
4155.00,0.7804
4154.00,0.7891
4153.00,0.7991
4152.00,0.8104
4151.00,0.8229
4150.00,0.8365
4149.00,0.8511
4148.00,0.8666
4147.00,0.8828
4146.00,0.8996
4145.00,0.9171
4144.00,0.9351
4143.00,0.9536
4142.00,0.9726
4141.00,0.9920
4140.00,1.0117
4139.00,1.0317
4138.00,1.0518
4137.00,1.0720
4136.00,1.0922
4135.00,1.1125
4134.00,1.1326
4133.00,1.1526
4132.00,1.1725
4131.00,1.1923
4130.00,1.2121
4129.00,1.2318
4128.00,1.2514
4127.00,1.2706
4126.00,1.2895
4125.00,1.3081
4124.00,1.3264
4123.00,1.3443
4122.00,1.3619
4121.00,1.3790
4120.00,1.3955
4119.00,1.4115
4118.00,1.4269
4117.00,1.4419
4116.00,1.4566
4115.00,1.4710
4114.00,1.4850
4113.00,1.4984
4112.00,1.5111
4111.00,1.5233
4110.00,1.5350
4109.00,1.5463
4108.00,1.5569
4107.00,1.5668
4106.00,1.5760
4105.00,1.5847
4104.00,1.5929
4103.00,1.6007
4102.00,1.6080
4101.00,1.6147
4100.00,1.6210
4099.00,1.6269
4098.00,1.6324
4097.00,1.6375
4096.00,1.6420
4095.00,1.6458
4094.00,1.6490
4093.00,1.6518
4092.00,1.6542
4091.00,1.6564
4090.00,1.6585
4089.00,1.6604
4088.00,1.6620
4087.00,1.6632
4086.00,1.6639
4085.00,1.6640
4084.00,1.6634
4083.00,1.6622
4082.00,1.6606
4081.00,1.6586
4080.00,1.6562
4079.00,1.6533
4078.00,1.6499
4077.00,1.6459
4076.00,1.6415
4075.00,1.6369
4074.00,1.6320
4073.00,1.6268
4072.00,1.6211
4071.00,1.6148
4070.00,1.6078
4069.00,1.6004
4068.00,1.5924
4067.00,1.5839
4066.00,1.5751
4065.00,1.5659
4064.00,1.5564
4063.00,1.5464
4062.00,1.5359
4061.00,1.5247
4060.00,1.5127
4059.00,1.5000
4058.00,1.4865
4057.00,1.4724
4056.00,1.4577
4055.00,1.4424
4054.00,1.4266
4053.00,1.4102
4052.00,1.3933
4051.00,1.3757
4050.00,1.3575
4049.00,1.3387
4048.00,1.3193
4047.00,1.2994
4046.00,1.2790
4045.00,1.2582
4044.00,1.2370
4043.00,1.2157
4042.00,1.1942
4041.00,1.1726
4040.00,1.1509
4039.00,1.1293
4038.00,1.1079
4037.00,1.0869
4036.00,1.0664
4035.00,1.0464
4034.00,1.0271
4033.00,1.0084
4032.00,0.9903
4031.00,0.9729
4030.00,0.9560
4029.00,0.9397
4028.00,0.9239
4027.00,0.9086
4026.00,0.8938
4025.00,0.8796
4024.00,0.8663
4023.00,0.8539
4022.00,0.8426
4021.00,0.8328
4020.00,0.8244
4019.00,0.8178
4018.00,0.8129
4017.00,0.8098
4016.00,0.8087
4015.00,0.8094
4014.00,0.8120
4013.00,0.8164
4012.00,0.8225
4011.00,0.8303
4010.00,0.8397
4009.00,0.8506
4008.00,0.8630
4007.00,0.8766
4006.00,0.8914
4005.00,0.9072
4004.00,0.9240
4003.00,0.9418
4002.00,0.9603
4001.00,0.9795
4000.00,0.9993
3999.00,1.0195
3998.00,1.0401
3997.00,1.0610
3996.00,1.0822
3995.00,1.1035
3994.00,1.1249
3993.00,1.1465
3992.00,1.1680
3991.00,1.1897
3990.00,1.2114
3989.00,1.2331
3988.00,1.2546
3987.00,1.2758
3986.00,1.2966
3985.00,1.3172
3984.00,1.3374
3983.00,1.3572
3982.00,1.3765
3981.00,1.3954
3980.00,1.4138
3979.00,1.4316
3978.00,1.4489
3977.00,1.4656
3976.00,1.4817
3975.00,1.4971
3974.00,1.5118
3973.00,1.5258
3972.00,1.5391
3971.00,1.5518
3970.00,1.5641
3969.00,1.5761
3968.00,1.5878
3967.00,1.5991
3966.00,1.6098
3965.00,1.6198
3964.00,1.6293
3963.00,1.6384
3962.00,1.6473
3961.00,1.6558
3960.00,1.6639
3959.00,1.6714
3958.00,1.6782
3957.00,1.6845
3956.00,1.6903
3955.00,1.6957
3954.00,1.7006
3953.00,1.7051
3952.00,1.7092
3951.00,1.7128
3950.00,1.7160
3949.00,1.7191
3948.00,1.7221
3947.00,1.7249
3946.00,1.7273
3945.00,1.7288
3944.00,1.7294
3943.00,1.7293
3942.00,1.7288
3941.00,1.7280
3940.00,1.7270
3939.00,1.7255
3938.00,1.7235
3937.00,1.7211
3936.00,1.7184
3935.00,1.7154
3934.00,1.7122
3933.00,1.7085
3932.00,1.7044
3931.00,1.6998
3930.00,1.6945
3929.00,1.6884
3928.00,1.6816
3927.00,1.6743
3926.00,1.6666
3925.00,1.6587
3924.00,1.6506
3923.00,1.6422
3922.00,1.6331
3921.00,1.6232
3920.00,1.6127
3919.00,1.6018
3918.00,1.5905
3917.00,1.5786
3916.00,1.5661
3915.00,1.5529
3914.00,1.5389
3913.00,1.5238
3912.00,1.5077
3911.00,1.4910
3910.00,1.4740
3909.00,1.4569
3908.00,1.4394
3907.00,1.4214
3906.00,1.4023
3905.00,1.3820
3904.00,1.3603
3903.00,1.3378
3902.00,1.3146
3901.00,1.2907
3900.00,1.2660
3899.00,1.2406
3898.00,1.2150
3897.00,1.1898
3896.00,1.1648
3895.00,1.1399
3894.00,1.1149
3893.00,1.0893
3892.00,1.0629
3891.00,1.0360
3890.00,1.0098
3889.00,0.9854
3888.00,0.9626
3887.00,0.9402
3886.00,0.9179
3885.00,0.8962
3884.00,0.8765
3883.00,0.8591
3882.00,0.8431
3881.00,0.8284
3880.00,0.8153
3879.00,0.8046
3878.00,0.7966
3877.00,0.7909
3876.00,0.7871
3875.00,0.7852
3874.00,0.7855
3873.00,0.7880
3872.00,0.7926
3871.00,0.7991
3870.00,0.8075
3869.00,0.8179
3868.00,0.8297
3867.00,0.8426
3866.00,0.8567
3865.00,0.8727
3864.00,0.8907
3863.00,0.9101
3862.00,0.9302
3861.00,0.9505
3860.00,0.9712
3859.00,0.9920
3858.00,1.0122
3857.00,1.0312
3856.00,1.0493
3855.00,1.0682
3854.00,1.0905
3853.00,1.1178
3852.00,1.1481
3851.00,1.1773
3850.00,1.2028
3849.00,1.2254
3848.00,1.2467
3847.00,1.2680
3846.00,1.2894
3845.00,1.3108
3844.00,1.3322
3843.00,1.3534
3842.00,1.3740
3841.00,1.3938
3840.00,1.4127
3839.00,1.4313
3838.00,1.4504
3837.00,1.4705
3836.00,1.4907
3835.00,1.5104
3834.00,1.5290
3833.00,1.5469
3832.00,1.5640
3831.00,1.5804
3830.00,1.5960
3829.00,1.6105
3828.00,1.6239
3827.00,1.6366
3826.00,1.6488
3825.00,1.6605
3824.00,1.6713
3823.00,1.6810
3822.00,1.6902
3821.00,1.6994
3820.00,1.7089
3819.00,1.7178
3818.00,1.7257
3817.00,1.7326
3816.00,1.7387
3815.00,1.7447
3814.00,1.7511
3813.00,1.7576
3812.00,1.7637
3811.00,1.7694
3810.00,1.7748
3809.00,1.7794
3808.00,1.7826
3807.00,1.7849
3806.00,1.7866
3805.00,1.7882
3804.00,1.7891
3803.00,1.7891
3802.00,1.7883
3801.00,1.7871
3800.00,1.7857
3799.00,1.7843
3798.00,1.7829
3797.00,1.7816
3796.00,1.7801
3795.00,1.7787
3794.00,1.7773
3793.00,1.7753
3792.00,1.7725
3791.00,1.7687
3790.00,1.7643
3789.00,1.7592
3788.00,1.7535
3787.00,1.7473
3786.00,1.7404
3785.00,1.7327
3784.00,1.7242
3783.00,1.7154
3782.00,1.7066
3781.00,1.6972
3780.00,1.6869
3779.00,1.6757
3778.00,1.6641
3777.00,1.6519
3776.00,1.6392
3775.00,1.6262
3774.00,1.6131
3773.00,1.5996
3772.00,1.5852
3771.00,1.5695
3770.00,1.5523
3769.00,1.5338
3768.00,1.5147
3767.00,1.4952
3766.00,1.4750
3765.00,1.4541
3764.00,1.4329
3763.00,1.4114
3762.00,1.3894
3761.00,1.3659
3760.00,1.3408
3759.00,1.3147
3758.00,1.2881
3757.00,1.2614
3756.00,1.2350
3755.00,1.2093
3754.00,1.1837
3753.00,1.1571
3752.00,1.1285
3751.00,1.0980
3750.00,1.0663
3749.00,1.0358
3748.00,1.0089
3747.00,0.9864
3746.00,0.9661
3745.00,0.9452
3744.00,0.9236
3743.00,0.9038
3742.00,0.8880
3741.00,0.8753
3740.00,0.8644
3739.00,0.8557
3738.00,0.8495
3737.00,0.8451
3736.00,0.8415
3735.00,0.8392
3734.00,0.8386
3733.00,0.8396
3732.00,0.8421
3731.00,0.8465
3730.00,0.8529
3729.00,0.8611
3728.00,0.8716
3727.00,0.8845
3726.00,0.8994
3725.00,0.9159
3724.00,0.9335
3723.00,0.9524
3722.00,0.9727
3721.00,0.9945
3720.00,1.0177
3719.00,1.0420
3718.00,1.0671
3717.00,1.0906
3716.00,1.1099
3715.00,1.1252
3714.00,1.1413
3713.00,1.1647
3712.00,1.1980
3711.00,1.2371
3710.00,1.2745
3709.00,1.3067
3708.00,1.3347
3707.00,1.3610
3706.00,1.3863
3705.00,1.4104
3704.00,1.4339
3703.00,1.4569
3702.00,1.4802
3701.00,1.5041
3700.00,1.5283
3699.00,1.5518
3698.00,1.5742
3697.00,1.5956
3696.00,1.6162
3695.00,1.6358
3694.00,1.6539
3693.00,1.6707
3692.00,1.6862
3691.00,1.7013
3690.00,1.7159
3689.00,1.7309
3688.00,1.7458
3687.00,1.7604
3686.00,1.7741
3685.00,1.7871
3684.00,1.7991
3683.00,1.8097
3682.00,1.8192
3681.00,1.8276
3680.00,1.8355
3679.00,1.8428
3678.00,1.8494
3677.00,1.8555
3676.00,1.8612
3675.00,1.8669
3674.00,1.8723
3673.00,1.8771
3672.00,1.8810
3671.00,1.8842
3670.00,1.8872
3669.00,1.8908
3668.00,1.8948
3667.00,1.8983
3666.00,1.9010
3665.00,1.9034
3664.00,1.9056
3663.00,1.9074
3662.00,1.9085
3661.00,1.9091
3660.00,1.9094
3659.00,1.9093
3658.00,1.9085
3657.00,1.9072
3656.00,1.9055
3655.00,1.9034
3654.00,1.9009
3653.00,1.8977
3652.00,1.8939
3651.00,1.8895
3650.00,1.8849
3649.00,1.8802
3648.00,1.8751
3647.00,1.8697
3646.00,1.8648
3645.00,1.8608
3644.00,1.8575
3643.00,1.8539
3642.00,1.8496
3641.00,1.8446
3640.00,1.8391
3639.00,1.8328
3638.00,1.8258
3637.00,1.8184
3636.00,1.8106
3635.00,1.8023
3634.00,1.7930
3633.00,1.7834
3632.00,1.7736
3631.00,1.7632
3630.00,1.7513
3629.00,1.7376
3628.00,1.7229
3627.00,1.7081
3626.00,1.6935
3625.00,1.6791
3624.00,1.6647
3623.00,1.6507
3622.00,1.6369
3621.00,1.6226
3620.00,1.6073
3619.00,1.5911
3618.00,1.5741
3617.00,1.5570
3616.00,1.5398
3615.00,1.5212
3614.00,1.4995
3613.00,1.4756
3612.00,1.4529
3611.00,1.4345
3610.00,1.4204
3609.00,1.4078
3608.00,1.3932
3607.00,1.3760
3606.00,1.3574
3605.00,1.3388
3604.00,1.3205
3603.00,1.3025
3602.00,1.2853
3601.00,1.2686
3600.00,1.2526
3599.00,1.2373
3598.00,1.2231
3597.00,1.2101
3596.00,1.1983
3595.00,1.1878
3594.00,1.1787
3593.00,1.1709
3592.00,1.1646
3591.00,1.1599
3590.00,1.1567
3589.00,1.1552
3588.00,1.1552
3587.00,1.1568
3586.00,1.1596
3585.00,1.1635
3584.00,1.1684
3583.00,1.1744
3582.00,1.1819
3581.00,1.1912
3580.00,1.2025
3579.00,1.2155
3578.00,1.2296
3577.00,1.2446
3576.00,1.2607
3575.00,1.2776
3574.00,1.2952
3573.00,1.3133
3572.00,1.3316
3571.00,1.3502
3570.00,1.3691
3569.00,1.3884
3568.00,1.4087
3567.00,1.4300
3566.00,1.4518
3565.00,1.4732
3564.00,1.4933
3563.00,1.5123
3562.00,1.5306
3561.00,1.5490
3560.00,1.5677
3559.00,1.5866
3558.00,1.6052
3557.00,1.6233
3556.00,1.6410
3555.00,1.6580
3554.00,1.6745
3553.00,1.6906
3552.00,1.7066
3551.00,1.7224
3550.00,1.7376
3549.00,1.7521
3548.00,1.7657
3547.00,1.7787
3546.00,1.7916
3545.00,1.8045
3544.00,1.8171
3543.00,1.8289
3542.00,1.8397
3541.00,1.8497
3540.00,1.8593
3539.00,1.8685
3538.00,1.8774
3537.00,1.8862
3536.00,1.8946
3535.00,1.9024
3534.00,1.9094
3533.00,1.9158
3532.00,1.9219
3531.00,1.9279
3530.00,1.9336
3529.00,1.9391
3528.00,1.9443
3527.00,1.9489
3526.00,1.9530
3525.00,1.9565
3524.00,1.9598
3523.00,1.9630
3522.00,1.9662
3521.00,1.9693
3520.00,1.9720
3519.00,1.9738
3518.00,1.9751
3517.00,1.9764
3516.00,1.9777
3515.00,1.9784
3514.00,1.9784
3513.00,1.9778
3512.00,1.9770
3511.00,1.9759
3510.00,1.9745
3509.00,1.9729
3508.00,1.9710
3507.00,1.9688
3506.00,1.9661
3505.00,1.9629
3504.00,1.9592
3503.00,1.9551
3502.00,1.9504
3501.00,1.9453
3500.00,1.9396
3499.00,1.9331
3498.00,1.9260
3497.00,1.9189
3496.00,1.9118
3495.00,1.9047
3494.00,1.8970
3493.00,1.8886
3492.00,1.8793
3491.00,1.8695
3490.00,1.8594
3489.00,1.8493
3488.00,1.8386
3487.00,1.8271
3486.00,1.8148
3485.00,1.8019
3484.00,1.7887
3483.00,1.7749
3482.00,1.7604
3481.00,1.7453
3480.00,1.7295
3479.00,1.7131
3478.00,1.6960
3477.00,1.6784
3476.00,1.6602
3475.00,1.6410
3474.00,1.6209
3473.00,1.6000
3472.00,1.5785
3471.00,1.5566
3470.00,1.5341
3469.00,1.5110
3468.00,1.4871
3467.00,1.4625
3466.00,1.4374
3465.00,1.4121
3464.00,1.3868
3463.00,1.3614
3462.00,1.3360
3461.00,1.3106
3460.00,1.2854
3459.00,1.2606
3458.00,1.2365
3457.00,1.2132
3456.00,1.1909
3455.00,1.1699
3454.00,1.1500
3453.00,1.1315
3452.00,1.1147
3451.00,1.0995
3450.00,1.0864
3449.00,1.0752
3448.00,1.0661
3447.00,1.0590
3446.00,1.0542
3445.00,1.0516
3444.00,1.0512
3443.00,1.0532
3442.00,1.0574
3441.00,1.0638
3440.00,1.0721
3439.00,1.0823
3438.00,1.0943
3437.00,1.1080
3436.00,1.1232
3435.00,1.1397
3434.00,1.1575
3433.00,1.1764
3432.00,1.1963
3431.00,1.2171
3430.00,1.2385
3429.00,1.2606
3428.00,1.2832
3427.00,1.3064
3426.00,1.3299
3425.00,1.3536
3424.00,1.3772
3423.00,1.4009
3422.00,1.4247
3421.00,1.4486
3420.00,1.4725
3419.00,1.4961
3418.00,1.5194
3417.00,1.5424
3416.00,1.5650
3415.00,1.5873
3414.00,1.6093
3413.00,1.6310
3412.00,1.6521
3411.00,1.6725
3410.00,1.6922
3409.00,1.7112
3408.00,1.7295
3407.00,1.7473
3406.00,1.7646
3405.00,1.7814
3404.00,1.7977
3403.00,1.8133
3402.00,1.8280
3401.00,1.8420
3400.00,1.8552
3399.00,1.8675
3398.00,1.8792
3397.00,1.8905
3396.00,1.9017
3395.00,1.9124
3394.00,1.9225
3393.00,1.9321
3392.00,1.9413
3391.00,1.9499
3390.00,1.9580
3389.00,1.9655
3388.00,1.9727
3387.00,1.9796
3386.00,1.9859
3385.00,1.9913
3384.00,1.9961
3383.00,2.0009
3382.00,2.0060
3381.00,2.0111
3380.00,2.0156
3379.00,2.0194
3378.00,2.0227
3377.00,2.0256
3376.00,2.0281
3375.00,2.0298
3374.00,2.0309
3373.00,2.0314
3372.00,2.0314
3371.00,2.0310
3370.00,2.0305
3369.00,2.0297
3368.00,2.0282
3367.00,2.0262
3366.00,2.0237
3365.00,2.0211
3364.00,2.0179
3363.00,2.0141
3362.00,2.0098
3361.00,2.0055
3360.00,2.0010
3359.00,1.9961
3358.00,1.9904
3357.00,1.9841
3356.00,1.9773
3355.00,1.9703
3354.00,1.9629
3353.00,1.9551
3352.00,1.9467
3351.00,1.9376
3350.00,1.9279
3349.00,1.9175
3348.00,1.9066
3347.00,1.8949
3346.00,1.8829
3345.00,1.8707
3344.00,1.8581
3343.00,1.8447
3342.00,1.8305
3341.00,1.8156
3340.00,1.8001
3339.00,1.7839
3338.00,1.7668
3337.00,1.7491
3336.00,1.7306
3335.00,1.7116
3334.00,1.6919
3333.00,1.6714
3332.00,1.6502
3331.00,1.6283
3330.00,1.6059
3329.00,1.5830
3328.00,1.5596
3327.00,1.5355
3326.00,1.5108
3325.00,1.4857
3324.00,1.4604
3323.00,1.4346
3322.00,1.4083
3321.00,1.3817
3320.00,1.3548
3319.00,1.3280
3318.00,1.3014
3317.00,1.2754
3316.00,1.2502
3315.00,1.2259
3314.00,1.2027
3313.00,1.1807
3312.00,1.1603
3311.00,1.1416
3310.00,1.1247
3309.00,1.1100
3308.00,1.0974
3307.00,1.0872
3306.00,1.0795
3305.00,1.0743
3304.00,1.0716
3303.00,1.0715
3302.00,1.0738
3301.00,1.0785
3300.00,1.0855
3299.00,1.0947
3298.00,1.1059
3297.00,1.1190
3296.00,1.1337
3295.00,1.1500
3294.00,1.1678
3293.00,1.1869
3292.00,1.2071
3291.00,1.2283
3290.00,1.2503
3289.00,1.2729
3288.00,1.2959
3287.00,1.3193
3286.00,1.3431
3285.00,1.3674
3284.00,1.3920
3283.00,1.4167
3282.00,1.4415
3281.00,1.4662
3280.00,1.4908
3279.00,1.5153
3278.00,1.5396
3277.00,1.5636
3276.00,1.5874
3275.00,1.6108
3274.00,1.6338
3273.00,1.6565
3272.00,1.6787
3271.00,1.7004
3270.00,1.7217
3269.00,1.7426
3268.00,1.7629
3267.00,1.7821
3266.00,1.8000
3265.00,1.8172
3264.00,1.8339
3263.00,1.8506
3262.00,1.8671
3261.00,1.8829
3260.00,1.8980
3259.00,1.9125
3258.00,1.9263
3257.00,1.9396
3256.00,1.9523
3255.00,1.9641
3254.00,1.9750
3253.00,1.9850
3252.00,1.9945
3251.00,2.0036
3250.00,2.0127
3249.00,2.0217
3248.00,2.0304
3247.00,2.0385
3246.00,2.0458
3245.00,2.0523
3244.00,2.0580
3243.00,2.0632
3242.00,2.0683
3241.00,2.0733
3240.00,2.0782
3239.00,2.0826
3238.00,2.0861
3237.00,2.0890
3236.00,2.0914
3235.00,2.0935
3234.00,2.0953
3233.00,2.0965
3232.00,2.0965
3231.00,2.0955
3230.00,2.0945
3229.00,2.0942
3228.00,2.0944
3227.00,2.0945
3226.00,2.0938
3225.00,2.0925
3224.00,2.0904
3223.00,2.0877
3222.00,2.0842
3221.00,2.0801
3220.00,2.0754
3219.00,2.0700
3218.00,2.0643
3217.00,2.0586
3216.00,2.0528
3215.00,2.0465
3214.00,2.0394
3213.00,2.0317
3212.00,2.0240
3211.00,2.0161
3210.00,2.0081
3209.00,1.9997
3208.00,1.9908
3207.00,1.9815
3206.00,1.9719
3205.00,1.9621
3204.00,1.9521
3203.00,1.9418
3202.00,1.9312
3201.00,1.9199
3200.00,1.9078
3199.00,1.8944
3198.00,1.8799
3197.00,1.8642
3196.00,1.8473
3195.00,1.8288
3194.00,1.8091
3193.00,1.7884
3192.00,1.7670
3191.00,1.7451
3190.00,1.7225
3189.00,1.6991
3188.00,1.6749
3187.00,1.6498
3186.00,1.6241
3185.00,1.5978
3184.00,1.5711
3183.00,1.5442
3182.00,1.5172
3181.00,1.4903
3180.00,1.4637
3179.00,1.4378
3178.00,1.4130
3177.00,1.3900
3176.00,1.3693
3175.00,1.3518
3174.00,1.3380
3173.00,1.3288
3172.00,1.3251
3171.00,1.3277
3170.00,1.3370
3169.00,1.3533
3168.00,1.3756
3167.00,1.4016
3166.00,1.4276
3165.00,1.4481
3164.00,1.4577
3163.00,1.4527
3162.00,1.4335
3161.00,1.4039
3160.00,1.3697
3159.00,1.3360
3158.00,1.3065
3157.00,1.2835
3156.00,1.2677
3155.00,1.2590
3154.00,1.2567
3153.00,1.2600
3152.00,1.2679
3151.00,1.2796
3150.00,1.2945
3149.00,1.3119
3148.00,1.3312
3147.00,1.3520
3146.00,1.3738
3145.00,1.3966
3144.00,1.4201
3143.00,1.4443
3142.00,1.4688
3141.00,1.4938
3140.00,1.5190
3139.00,1.5444
3138.00,1.5700
3137.00,1.5954
3136.00,1.6207
3135.00,1.6456
3134.00,1.6702
3133.00,1.6944
3132.00,1.7182
3131.00,1.7413
3130.00,1.7638
3129.00,1.7858
3128.00,1.8072
3127.00,1.8281
3126.00,1.8488
3125.00,1.8691
3124.00,1.8889
3123.00,1.9076
3122.00,1.9253
3121.00,1.9423
3120.00,1.9588
3119.00,1.9747
3118.00,1.9900
3117.00,2.0045
3116.00,2.0180
3115.00,2.0306
3114.00,2.0422
3113.00,2.0532
3112.00,2.0640
3111.00,2.0745
3110.00,2.0849
3109.00,2.0949
3108.00,2.1042
3107.00,2.1125
3106.00,2.1201
3105.00,2.1272
3104.00,2.1341
3103.00,2.1410
3102.00,2.1477
3101.00,2.1543
3100.00,2.1604
3099.00,2.1658
3098.00,2.1704
3097.00,2.1747
3096.00,2.1788
3095.00,2.1823
3094.00,2.1850
3093.00,2.1871
3092.00,2.1887
3091.00,2.1898
3090.00,2.1903
3089.00,2.1903
3088.00,2.1901
3087.00,2.1898
3086.00,2.1893
3085.00,2.1888
3084.00,2.1879
3083.00,2.1866
3082.00,2.1847
3081.00,2.1821
3080.00,2.1789
3079.00,2.1751
3078.00,2.1709
3077.00,2.1667
3076.00,2.1623
3075.00,2.1574
3074.00,2.1517
3073.00,2.1450
3072.00,2.1374
3071.00,2.1293
3070.00,2.1209
3069.00,2.1123
3068.00,2.1033
3067.00,2.0938
3066.00,2.0840
3065.00,2.0742
3064.00,2.0640
3063.00,2.0528
3062.00,2.0408
3061.00,2.0282
3060.00,2.0153
3059.00,2.0021
3058.00,1.9884
3057.00,1.9739
3056.00,1.9585
3055.00,1.9423
3054.00,1.9253
3053.00,1.9079
3052.00,1.8900
3051.00,1.8715
3050.00,1.8524
3049.00,1.8327
3048.00,1.8125
3047.00,1.7919
3046.00,1.7707
3045.00,1.7494
3044.00,1.7280
3043.00,1.7065
3042.00,1.6850
3041.00,1.6637
3040.00,1.6426
3039.00,1.6221
3038.00,1.6022
3037.00,1.5830
3036.00,1.5647
3035.00,1.5476
3034.00,1.5320
3033.00,1.5182
3032.00,1.5061
3031.00,1.4960
3030.00,1.4879
3029.00,1.4821
3028.00,1.4787
3027.00,1.4777
3026.00,1.4794
3025.00,1.4836
3024.00,1.4903
3023.00,1.4992
3022.00,1.5103
3021.00,1.5234
3020.00,1.5386
3019.00,1.5558
3018.00,1.5747
3017.00,1.5952
3016.00,1.6168
3015.00,1.6393
3014.00,1.6627
3013.00,1.6866
3012.00,1.7107
3011.00,1.7347
3010.00,1.7583
3009.00,1.7815
3008.00,1.8037
3007.00,1.8246
3006.00,1.8437
3005.00,1.8608
3004.00,1.8758
3003.00,1.8885
3002.00,1.8989
3001.00,1.9071
3000.00,1.9133
2999.00,1.9179
2998.00,1.9217
2997.00,1.9252
2996.00,1.9288
2995.00,1.9329
2994.00,1.9379
2993.00,1.9441
2992.00,1.9517
2991.00,1.9605
2990.00,1.9705
2989.00,1.9821
2988.00,1.9953
2987.00,2.0099
2986.00,2.0253
2985.00,2.0415
2984.00,2.0583
2983.00,2.0756
2982.00,2.0931
2981.00,2.1107
2980.00,2.1285
2979.00,2.1465
2978.00,2.1646
2977.00,2.1825
2976.00,2.1998
2975.00,2.2164
2974.00,2.2324
2973.00,2.2482
2972.00,2.2637
2971.00,2.2787
2970.00,2.2928
2969.00,2.3059
2968.00,2.3183
2967.00,2.3302
2966.00,2.3420
2965.00,2.3541
2964.00,2.3662
2963.00,2.3778
2962.00,2.3886
2961.00,2.3981
2960.00,2.4065
2959.00,2.4143
2958.00,2.4224
2957.00,2.4315
2956.00,2.4414
2955.00,2.4517
2954.00,2.4628
2953.00,2.4749
2952.00,2.4874
2951.00,2.4999
2950.00,2.5131
2949.00,2.5282
2948.00,2.5449
2947.00,2.5612
2946.00,2.5744
2945.00,2.5829
2944.00,2.5861
2943.00,2.5842
2942.00,2.5777
2941.00,2.5670
2940.00,2.5528
2939.00,2.5356
2938.00,2.5171
2937.00,2.4993
2936.00,2.4837
2935.00,2.4708
2934.00,2.4602
2933.00,2.4507
2932.00,2.4414
2931.00,2.4323
2930.00,2.4239
2929.00,2.4163
2928.00,2.4092
2927.00,2.4025
2926.00,2.3964
2925.00,2.3905
2924.00,2.3837
2923.00,2.3754
2922.00,2.3666
2921.00,2.3587
2920.00,2.3524
2919.00,2.3469
2918.00,2.3411
2917.00,2.3349
2916.00,2.3281
2915.00,2.3209
2914.00,2.3134
2913.00,2.3055
2912.00,2.2970
2911.00,2.2877
2910.00,2.2776
2909.00,2.2672
2908.00,2.2567
2907.00,2.2461
2906.00,2.2352
2905.00,2.2238
2904.00,2.2115
2903.00,2.1981
2902.00,2.1838
2901.00,2.1689
2900.00,2.1536
2899.00,2.1380
2898.00,2.1220
2897.00,2.1055
2896.00,2.0879
2895.00,2.0687
2894.00,2.0480
2893.00,2.0262
2892.00,2.0040
2891.00,1.9815
2890.00,1.9587
2889.00,1.9357
2888.00,1.9124
2887.00,1.8890
2886.00,1.8658
2885.00,1.8429
2884.00,1.8205
2883.00,1.7989
2882.00,1.7789
2881.00,1.7611
2880.00,1.7460
2879.00,1.7339
2878.00,1.7248
2877.00,1.7190
2876.00,1.7165
2875.00,1.7172
2874.00,1.7207
2873.00,1.7264
2872.00,1.7331
2871.00,1.7394
2870.00,1.7441
2869.00,1.7463
2868.00,1.7454
2867.00,1.7411
2866.00,1.7333
2865.00,1.7225
2864.00,1.7091
2863.00,1.6933
2862.00,1.6750
2861.00,1.6541
2860.00,1.6309
2859.00,1.6058
2858.00,1.5798
2857.00,1.5542
2856.00,1.5304
2855.00,1.5097
2854.00,1.4929
2853.00,1.4807
2852.00,1.4735
2851.00,1.4712
2850.00,1.4736
2849.00,1.4805
2848.00,1.4915
2847.00,1.5060
2846.00,1.5236
2845.00,1.5436
2844.00,1.5657
2843.00,1.5893
2842.00,1.6141
2841.00,1.6398
2840.00,1.6660
2839.00,1.6925
2838.00,1.7191
2837.00,1.7461
2836.00,1.7731
2835.00,1.8001
2834.00,1.8265
2833.00,1.8525
2832.00,1.8781
2831.00,1.9034
2830.00,1.9281
2829.00,1.9519
2828.00,1.9748
2827.00,1.9969
2826.00,2.0184
2825.00,2.0395
2824.00,2.0597
2823.00,2.0790
2822.00,2.0973
2821.00,2.1149
2820.00,2.1319
2819.00,2.1484
2818.00,2.1645
2817.00,2.1805
2816.00,2.1961
2815.00,2.2107
2814.00,2.2238
2813.00,2.2356
2812.00,2.2468
2811.00,2.2578
2810.00,2.2687
2809.00,2.2790
2808.00,2.2883
2807.00,2.2967
2806.00,2.3047
2805.00,2.3127
2804.00,2.3205
2803.00,2.3274
2802.00,2.3328
2801.00,2.3373
2800.00,2.3421
2799.00,2.3475
2798.00,2.3531
2797.00,2.3578
2796.00,2.3607
2795.00,2.3618
2794.00,2.3624
2793.00,2.3635
2792.00,2.3650
2791.00,2.3661
2790.00,2.3663
2789.00,2.3658
2788.00,2.3652
2787.00,2.3646
2786.00,2.3638
2785.00,2.3623
2784.00,2.3597
2783.00,2.3561
2782.00,2.3522
2781.00,2.3487
2780.00,2.3458
2779.00,2.3425
2778.00,2.3378
2777.00,2.3317
2776.00,2.3249
2775.00,2.3180
2774.00,2.3107
2773.00,2.3031
2772.00,2.2950
2771.00,2.2862
2770.00,2.2766
2769.00,2.2661
2768.00,2.2546
2767.00,2.2427
2766.00,2.2306
2765.00,2.2183
2764.00,2.2051
2763.00,2.1908
2762.00,2.1755
2761.00,2.1596
2760.00,2.1433
2759.00,2.1263
2758.00,2.1083
2757.00,2.0896
2756.00,2.0702
2755.00,2.0498
2754.00,2.0280
2753.00,2.0045
2752.00,1.9798
2751.00,1.9542
2750.00,1.9276
2749.00,1.8999
2748.00,1.8707
2747.00,1.8401
2746.00,1.8079
2745.00,1.7745
2744.00,1.7397
2743.00,1.7037
2742.00,1.6666
2741.00,1.6285
2740.00,1.5895
2739.00,1.5497
2738.00,1.5094
2737.00,1.4689
2736.00,1.4288
2735.00,1.3894
2734.00,1.3510
2733.00,1.3143
2732.00,1.2796
2731.00,1.2473
2730.00,1.2178
2729.00,1.1913
2728.00,1.1684
2727.00,1.1493
2726.00,1.1345
2725.00,1.1242
2724.00,1.1187
2723.00,1.1179
2722.00,1.1220
2721.00,1.1305
2720.00,1.1434
2719.00,1.1603
2718.00,1.1807
2717.00,1.2042
2716.00,1.2305
2715.00,1.2591
2714.00,1.2896
2713.00,1.3216
2712.00,1.3548
2711.00,1.3891
2710.00,1.4243
2709.00,1.4602
2708.00,1.4968
2707.00,1.5336
2706.00,1.5704
2705.00,1.6072
2704.00,1.6438
2703.00,1.6800
2702.00,1.7159
2701.00,1.7511
2700.00,1.7856
2699.00,1.8193
2698.00,1.8523
2697.00,1.8847
2696.00,1.9164
2695.00,1.9472
2694.00,1.9769
2693.00,2.0052
2692.00,2.0320
2691.00,2.0577
2690.00,2.0825
2689.00,2.1062
2688.00,2.1286
2687.00,2.1494
2686.00,2.1688
2685.00,2.1874
2684.00,2.2053
2683.00,2.2228
2682.00,2.2396
2681.00,2.2556
2680.00,2.2707
2679.00,2.2849
2678.00,2.2981
2677.00,2.3102
2676.00,2.3212
2675.00,2.3320
2674.00,2.3437
2673.00,2.3562
2672.00,2.3680
2671.00,2.3774
2670.00,2.3842
2669.00,2.3896
2668.00,2.3953
2667.00,2.4019
2666.00,2.4094
2665.00,2.4172
2664.00,2.4247
2663.00,2.4314
2662.00,2.4373
2661.00,2.4424
2660.00,2.4462
2659.00,2.4489
2658.00,2.4512
2657.00,2.4539
2656.00,2.4570
2655.00,2.4597
2654.00,2.4616
2653.00,2.4630
2652.00,2.4643
2651.00,2.4651
2650.00,2.4649
2649.00,2.4632
2648.00,2.4603
2647.00,2.4568
2646.00,2.4535
2645.00,2.4511
2644.00,2.4496
2643.00,2.4483
2642.00,2.4463
2641.00,2.4432
2640.00,2.4383
2639.00,2.4319
2638.00,2.4247
2637.00,2.4174
2636.00,2.4104
2635.00,2.4035
2634.00,2.3966
2633.00,2.3894
2632.00,2.3822
2631.00,2.3750
2630.00,2.3679
2629.00,2.3606
2628.00,2.3531
2627.00,2.3451
2626.00,2.3362
2625.00,2.3260
2624.00,2.3141
2623.00,2.3009
2622.00,2.2865
2621.00,2.2713
2620.00,2.2552
2619.00,2.2382
2618.00,2.2203
2617.00,2.2015
2616.00,2.1819
2615.00,2.1613
2614.00,2.1395
2613.00,2.1162
2612.00,2.0919
2611.00,2.0666
2610.00,2.0403
2609.00,2.0127
2608.00,1.9836
2607.00,1.9529
2606.00,1.9205
2605.00,1.8864
2604.00,1.8502
2603.00,1.8120
2602.00,1.7721
2601.00,1.7307
2600.00,1.6882
2599.00,1.6444
2598.00,1.5993
2597.00,1.5533
2596.00,1.5070
2595.00,1.4609
2594.00,1.4158
2593.00,1.3723
2592.00,1.3307
2591.00,1.2919
2590.00,1.2562
2589.00,1.2242
2588.00,1.1965
2587.00,1.1734
2586.00,1.1554
2585.00,1.1428
2584.00,1.1358
2583.00,1.1346
2582.00,1.1390
2581.00,1.1490
2580.00,1.1641
2579.00,1.1838
2578.00,1.2075
2577.00,1.2348
2576.00,1.2650
2575.00,1.2976
2574.00,1.3321
2573.00,1.3681
2572.00,1.4053
2571.00,1.4432
2570.00,1.4815
2569.00,1.5203
2568.00,1.5593
2567.00,1.5984
2566.00,1.6376
2565.00,1.6767
2564.00,1.7155
2563.00,1.7535
2562.00,1.7909
2561.00,1.8278
2560.00,1.8644
2559.00,1.9003
2558.00,1.9353
2557.00,1.9690
2556.00,2.0013
2555.00,2.0320
2554.00,2.0612
2553.00,2.0894
2552.00,2.1167
2551.00,2.1431
2550.00,2.1684
2549.00,2.1926
2548.00,2.2159
2547.00,2.2384
2546.00,2.2600
2545.00,2.2804
2544.00,2.2997
2543.00,2.3180
2542.00,2.3354
2541.00,2.3514
2540.00,2.3658
2539.00,2.3789
2538.00,2.3916
2537.00,2.4046
2536.00,2.4172
2535.00,2.4288
2534.00,2.4393
2533.00,2.4494
2532.00,2.4595
2531.00,2.4694
2530.00,2.4786
2529.00,2.4871
2528.00,2.4951
2527.00,2.5030
2526.00,2.5107
2525.00,2.5183
2524.00,2.5253
2523.00,2.5316
2522.00,2.5373
2521.00,2.5421
2520.00,2.5458
2519.00,2.5488
2518.00,2.5520
2517.00,2.5560
2516.00,2.5598
2515.00,2.5626
2514.00,2.5643
2513.00,2.5654
2512.00,2.5663
2511.00,2.5666
2510.00,2.5666
2509.00,2.5663
2508.00,2.5652
2507.00,2.5630
2506.00,2.5601
2505.00,2.5575
2504.00,2.5553
2503.00,2.5530
2502.00,2.5499
2501.00,2.5464
2500.00,2.5423
2499.00,2.5374
2498.00,2.5318
2497.00,2.5262
2496.00,2.5209
2495.00,2.5148
2494.00,2.5069
2493.00,2.4975
2492.00,2.4880
2491.00,2.4796
2490.00,2.4715
2489.00,2.4627
2488.00,2.4524
2487.00,2.4413
2486.00,2.4301
2485.00,2.4183
2484.00,2.4053
2483.00,2.3908
2482.00,2.3754
2481.00,2.3597
2480.00,2.3437
2479.00,2.3270
2478.00,2.3095
2477.00,2.2917
2476.00,2.2735
2475.00,2.2542
2474.00,2.2337
2473.00,2.2120
2472.00,2.1891
2471.00,2.1648
2470.00,2.1388
2469.00,2.1110
2468.00,2.0817
2467.00,2.0514
2466.00,2.0199
2465.00,1.9870
2464.00,1.9524
2463.00,1.9159
2462.00,1.8773
2461.00,1.8369
2460.00,1.7951
2459.00,1.7521
2458.00,1.7081
2457.00,1.6635
2456.00,1.6185
2455.00,1.5738
2454.00,1.5297
2453.00,1.4872
2452.00,1.4469
2451.00,1.4094
2450.00,1.3754
2449.00,1.3454
2448.00,1.3199
2447.00,1.2993
2446.00,1.2837
2445.00,1.2735
2444.00,1.2688
2443.00,1.2696
2442.00,1.2758
2441.00,1.2872
2440.00,1.3034
2439.00,1.3239
2438.00,1.3482
2437.00,1.3757
2436.00,1.4061
2435.00,1.4387
2434.00,1.4732
2433.00,1.5094
2432.00,1.5469
2431.00,1.5855
2430.00,1.6247
2429.00,1.6643
2428.00,1.7039
2427.00,1.7436
2426.00,1.7832
2425.00,1.8227
2424.00,1.8619
2423.00,1.9004
2422.00,1.9381
2421.00,1.9746
2420.00,2.0098
2419.00,2.0435
2418.00,2.0757
2417.00,2.1067
2416.00,2.1368
2415.00,2.1656
2414.00,2.1929
2413.00,2.2182
2412.00,2.2418
2411.00,2.2641
2410.00,2.2854
2409.00,2.3058
2408.00,2.3249
2407.00,2.3430
2406.00,2.3604
2405.00,2.3778
2404.00,2.3949
2403.00,2.4113
2402.00,2.4270
2401.00,2.4419
2400.00,2.4563
2399.00,2.4703
2398.00,2.4843
2397.00,2.4983
2396.00,2.5121
2395.00,2.5255
2394.00,2.5378
2393.00,2.5488
2392.00,2.5578
2391.00,2.5684
2390.00,2.5792
2389.00,2.5989
2388.00,2.6090
2387.00,2.6034
2386.00,2.6152
2385.00,2.6208
2384.00,2.6280
2383.00,2.6323
2382.00,2.6361
2381.00,2.6391
2380.00,2.6426
2379.00,2.6469
2378.00,2.6513
2377.00,2.6547
2376.00,2.6563
2375.00,2.6566
2374.00,2.6576
2373.00,2.6605
2372.00,2.6644
2371.00,2.6672
2370.00,2.6674
2369.00,2.6654
2368.00,2.6623
2367.00,2.6584
2366.00,2.6540
2365.00,2.6497
2364.00,2.6461
2363.00,2.6432
2362.00,2.6402
2361.00,2.6360
2360.00,2.6308
2359.00,2.6257
2358.00,2.6220
2357.00,2.6196
2356.00,2.6171
2355.00,2.6129
2354.00,2.6064
2353.00,2.5981
2352.00,2.5888
2351.00,2.5788
2350.00,2.5680
2349.00,2.5565
2348.00,2.5448
2347.00,2.5334
2346.00,2.5217
2345.00,2.5084
2344.00,2.4924
2343.00,2.4751
2342.00,2.4582
2341.00,2.4421
2340.00,2.4257
2339.00,2.4058
2338.00,2.3884
2337.00,2.3621
2336.00,2.3502
2335.00,2.3120
2334.00,2.3182
2333.00,2.2224
2332.00,2.1401
2331.00,2.2131
2330.00,2.2222
2329.00,2.2322
2328.00,2.1997
2327.00,2.1646
2326.00,2.1321
2325.00,2.1179
2324.00,2.1284
2323.00,2.1359
2322.00,2.1347
2321.00,2.1121
2320.00,2.0783
2319.00,2.0347
2318.00,1.9832
2317.00,1.9333
2316.00,1.8944
2315.00,1.8825
2314.00,1.8923
2313.00,1.9180
2312.00,1.9431
2311.00,1.9634
2310.00,1.9779
2309.00,1.9915
2308.00,2.0076
2307.00,2.0275
2306.00,2.0512
2305.00,2.0787
2304.00,2.1113
2303.00,2.1508
2302.00,2.1963
2301.00,2.2483
2300.00,2.3015
2299.00,2.3551
2298.00,2.4053
2297.00,2.4527
2296.00,2.4925
2295.00,2.5217
2294.00,2.5334
2293.00,2.5237
2292.00,2.4906
2291.00,2.4380
2290.00,2.3738
2289.00,2.3072
2288.00,2.2468
2287.00,2.1977
2286.00,2.1625
2285.00,2.1409
2284.00,2.1323
2283.00,2.1352
2282.00,2.1490
2281.00,2.1721
2280.00,2.2020
2279.00,2.2365
2278.00,2.2738
2277.00,2.3128
2276.00,2.3516
2275.00,2.3898
2274.00,2.4271
2273.00,2.4641
2272.00,2.5001
2271.00,2.5349
2270.00,2.5683
2269.00,2.6003
2268.00,2.6308
2267.00,2.6603
2266.00,2.6898
2265.00,2.7203
2264.00,2.7510
2263.00,2.7816
2262.00,2.8127
2261.00,2.8467
2260.00,2.8874
2259.00,2.9407
2258.00,3.0157
2257.00,3.1214
2256.00,3.2626
2255.00,3.4331
2254.00,3.6029
2253.00,3.7018
2252.00,3.6526
2251.00,3.4823
2250.00,3.2764
2249.00,3.0818
2248.00,2.9119
2247.00,2.7680
2246.00,2.6497
2245.00,2.5569
2244.00,2.4899
2243.00,2.4480
2242.00,2.4290
2241.00,2.4292
2240.00,2.4436
2239.00,2.4670
2238.00,2.4945
2237.00,2.5231
2236.00,2.5510
2235.00,2.5777
2234.00,2.6032
2233.00,2.6273
2232.00,2.6493
2231.00,2.6687
2230.00,2.6861
2229.00,2.7024
2228.00,2.7178
2227.00,2.7315
2226.00,2.7425
2225.00,2.7501
2224.00,2.7548
2223.00,2.7582
2222.00,2.7622
2221.00,2.7676
2220.00,2.7731
2219.00,2.7769
2218.00,2.7787
2217.00,2.7802
2216.00,2.7824
2215.00,2.7850
2214.00,2.7867
2213.00,2.7875
2212.00,2.7880
2211.00,2.7879
2210.00,2.7857
2209.00,2.7803
2208.00,2.7723
2207.00,2.7640
2206.00,2.7580
2205.00,2.7552
2204.00,2.7546
2203.00,2.7534
2202.00,2.7498
2201.00,2.7428
2200.00,2.7336
2199.00,2.7241
2198.00,2.7154
2197.00,2.7070
2196.00,2.6975
2195.00,2.6858
2194.00,2.6725
2193.00,2.6589
2192.00,2.6457
2191.00,2.6320
2190.00,2.6166
2189.00,2.5996
2188.00,2.5817
2187.00,2.5636
2186.00,2.5449
2185.00,2.5252
2184.00,2.5045
2183.00,2.4834
2182.00,2.4617
2181.00,2.4388
2180.00,2.4141
2179.00,2.3877
2178.00,2.3600
2177.00,2.3313
2176.00,2.3014
2175.00,2.2699
2174.00,2.2367
2173.00,2.2015
2172.00,2.1643
2171.00,2.1248
2170.00,2.0827
2169.00,2.0380
2168.00,1.9905
2167.00,1.9406
2166.00,1.8887
2165.00,1.8349
2164.00,1.7797
2163.00,1.7235
2162.00,1.6672
2161.00,1.6117
2160.00,1.5582
2159.00,1.5076
2158.00,1.4610
2157.00,1.4193
2156.00,1.3836
2155.00,1.3545
2154.00,1.3328
2153.00,1.3191
2152.00,1.3138
2151.00,1.3168
2150.00,1.3279
2149.00,1.3464
2148.00,1.3715
2147.00,1.4024
2146.00,1.4380
2145.00,1.4776
2144.00,1.5201
2143.00,1.5647
2142.00,1.6110
2141.00,1.6586
2140.00,1.7070
2139.00,1.7557
2138.00,1.8044
2137.00,1.8528
2136.00,1.9008
2135.00,1.9480
2134.00,1.9945
2133.00,2.0400
2132.00,2.0843
2131.00,2.1270
2130.00,2.1681
2129.00,2.2075
2128.00,2.2450
2127.00,2.2805
2126.00,2.3141
2125.00,2.3467
2124.00,2.3783
2123.00,2.4086
2122.00,2.4373
2121.00,2.4646
2120.00,2.4909
2119.00,2.5164
2118.00,2.5407
2117.00,2.5632
2116.00,2.5832
2115.00,2.6013
2114.00,2.6188
2113.00,2.6368
2112.00,2.6546
2111.00,2.6705
2110.00,2.6836
2109.00,2.6949
2108.00,2.7067
2107.00,2.7204
2106.00,2.7358
2105.00,2.7510
2104.00,2.7638
2103.00,2.7742
2102.00,2.7837
2101.00,2.7936
2100.00,2.8035
2099.00,2.8126
2098.00,2.8212
2097.00,2.8305
2096.00,2.8404
2095.00,2.8495
2094.00,2.8561
2093.00,2.8603
2092.00,2.8635
2091.00,2.8676
2090.00,2.8737
2089.00,2.8803
2088.00,2.8848
2087.00,2.8859
2086.00,2.8852
2085.00,2.8850
2084.00,2.8862
2083.00,2.8882
2082.00,2.8889
2081.00,2.8869
2080.00,2.8828
2079.00,2.8787
2078.00,2.8769
2077.00,2.8771
2076.00,2.8774
2075.00,2.8764
2074.00,2.8747
2073.00,2.8727
2072.00,2.8697
2071.00,2.8656
2070.00,2.8616
2069.00,2.8588
2068.00,2.8557
2067.00,2.8509
2066.00,2.8457
2065.00,2.8428
2064.00,2.8420
2063.00,2.8396
2062.00,2.8323
2061.00,2.8205
2060.00,2.8073
2059.00,2.7952
2058.00,2.7847
2057.00,2.7745
2056.00,2.7632
2055.00,2.7502
2054.00,2.7361
2053.00,2.7216
2052.00,2.7069
2051.00,2.6910
2050.00,2.6737
2049.00,2.6559
2048.00,2.6389
2047.00,2.6227
2046.00,2.6064
2045.00,2.5893
2044.00,2.5706
2043.00,2.5499
2042.00,2.5273
2041.00,2.5032
2040.00,2.4777
2039.00,2.4504
2038.00,2.4206
2037.00,2.3886
2036.00,2.3554
2035.00,2.3217
2034.00,2.2869
2033.00,2.2500
2032.00,2.2104
2031.00,2.1683
2030.00,2.1240
2029.00,2.0776
2028.00,2.0289
2027.00,1.9779
2026.00,1.9247
2025.00,1.8697
2024.00,1.8136
2023.00,1.7572
2022.00,1.7014
2021.00,1.6471
2020.00,1.5955
2019.00,1.5478
2018.00,1.5055
2017.00,1.4697
2016.00,1.4407
2015.00,1.4180
2014.00,1.4018
2013.00,1.3933
2012.00,1.3940
2011.00,1.4040
2010.00,1.4222
2009.00,1.4474
2008.00,1.4784
2007.00,1.5143
2006.00,1.5543
2005.00,1.5973
2004.00,1.6428
2003.00,1.6901
2002.00,1.7386
2001.00,1.7878
2000.00,1.8376
1999.00,1.8878
1998.00,1.9379
1997.00,1.9874
1996.00,2.0360
1995.00,2.0831
1994.00,2.1289
1993.00,2.1744
1992.00,2.2204
1991.00,2.2661
1990.00,2.3089
1989.00,2.3479
1988.00,2.3839
1987.00,2.4183
1986.00,2.4510
1985.00,2.4816
1984.00,2.5104
1983.00,2.5385
1982.00,2.5664
1981.00,2.5931
1980.00,2.6171
1979.00,2.6377
1978.00,2.6557
1977.00,2.6731
1976.00,2.6912
1975.00,2.7104
1974.00,2.7298
1973.00,2.7480
1972.00,2.7635
1971.00,2.7768
1970.00,2.7904
1969.00,2.8071
1968.00,2.8273
1967.00,2.8471
1966.00,2.8618
1965.00,2.8699
1964.00,2.8741
1963.00,2.8783
1962.00,2.8847
1961.00,2.8926
1960.00,2.9012
1959.00,2.9111
1958.00,2.9233
1957.00,2.9365
1956.00,2.9480
1955.00,2.9564
1954.00,2.9630
1953.00,2.9699
1952.00,2.9775
1951.00,2.9843
1950.00,2.9877
1949.00,2.9864
1948.00,2.9817
1947.00,2.9782
1946.00,2.9792
1945.00,2.9834
1944.00,2.9868
1943.00,2.9878
1942.00,2.9887
1941.00,2.9914
1940.00,2.9943
1939.00,2.9955
1938.00,2.9962
1937.00,2.9970
1936.00,2.9962
1935.00,2.9920
1934.00,2.9863
1933.00,2.9827
1932.00,2.9821
1931.00,2.9818
1930.00,2.9799
1929.00,2.9759
1928.00,2.9706
1927.00,2.9640
1926.00,2.9562
1925.00,2.9487
1924.00,2.9428
1923.00,2.9392
1922.00,2.9362
1921.00,2.9300
1920.00,2.9182
1919.00,2.9019
1918.00,2.8848
1917.00,2.8694
1916.00,2.8554
1915.00,2.8421
1914.00,2.8302
1913.00,2.8207
1912.00,2.8119
1911.00,2.8014
1910.00,2.7885
1909.00,2.7741
1908.00,2.7585
1907.00,2.7403
1906.00,2.7189
1905.00,2.6959
1904.00,2.6726
1903.00,2.6496
1902.00,2.6265
1901.00,2.6032
1900.00,2.5796
1899.00,2.5547
1898.00,2.5266
1897.00,2.4949
1896.00,2.4604
1895.00,2.4249
1894.00,2.3889
1893.00,2.3511
1892.00,2.3100
1891.00,2.2653
1890.00,2.2183
1889.00,2.1703
1888.00,2.1205
1887.00,2.0670
1886.00,2.0103
1885.00,1.9535
1884.00,1.8980
1883.00,1.8428
1882.00,1.7873
1881.00,1.7331
1880.00,1.6831
1879.00,1.6387
1878.00,1.6001
1877.00,1.5678
1876.00,1.5428
1875.00,1.5253
1874.00,1.5157
1873.00,1.5142
1872.00,1.5196
1871.00,1.5311
1870.00,1.5499
1869.00,1.5775
1868.00,1.6134
1867.00,1.6541
1866.00,1.6959
1865.00,1.7401
1864.00,1.7890
1863.00,1.8420
1862.00,1.8968
1861.00,1.9517
1860.00,2.0061
1859.00,2.0595
1858.00,2.1116
1857.00,2.1627
1856.00,2.2126
1855.00,2.2601
1854.00,2.3053
1853.00,2.3488
1852.00,2.3914
1851.00,2.4324
1850.00,2.4710
1849.00,2.5086
1848.00,2.5448
1847.00,2.5768
1846.00,2.6033
1845.00,2.6272
1844.00,2.6526
1843.00,2.6802
1842.00,2.7071
1841.00,2.7313
1840.00,2.7539
1839.00,2.7771
1838.00,2.8022
1837.00,2.8281
1836.00,2.8517
1835.00,2.8704
1834.00,2.8841
1833.00,2.8935
1832.00,2.8996
1831.00,2.9047
1830.00,2.9127
1829.00,2.9258
1828.00,2.9402
1827.00,2.9522
1826.00,2.9652
1825.00,2.9822
1824.00,2.9993
1823.00,3.0122
1822.00,3.0226
1821.00,3.0345
1820.00,3.0456
1819.00,3.0511
1818.00,3.0533
1817.00,3.0586
1816.00,3.0681
1815.00,3.0780
1814.00,3.0848
1813.00,3.0893
1812.00,3.0934
1811.00,3.0971
1810.00,3.1002
1809.00,3.1025
1808.00,3.1044
1807.00,3.1081
1806.00,3.1146
1805.00,3.1210
1804.00,3.1235
1803.00,3.1218
1802.00,3.1190
1801.00,3.1171
1800.00,3.1161
1799.00,3.1152
1798.00,3.1164
1797.00,3.1200
1796.00,3.1223
1795.00,3.1197
1794.00,3.1114
1793.00,3.0994
1792.00,3.0856
1791.00,3.0722
1790.00,3.0615
1789.00,3.0529
1788.00,3.0462
1787.00,3.0411
1786.00,3.0369
1785.00,3.0321
1784.00,3.0246
1783.00,3.0143
1782.00,3.0032
1781.00,2.9949
1780.00,2.9894
1779.00,2.9818
1778.00,2.9699
1777.00,2.9559
1776.00,2.9417
1775.00,2.9249
1774.00,2.9021
1773.00,2.8747
1772.00,2.8462
1771.00,2.8181
1770.00,2.7906
1769.00,2.7670
1768.00,2.7508
1767.00,2.7392
1766.00,2.7233
1765.00,2.6972
1764.00,2.6629
1763.00,2.6265
1762.00,2.5903
1761.00,2.5532
1760.00,2.5132
1759.00,2.4706
1758.00,2.4287
1757.00,2.3890
1756.00,2.3507
1755.00,2.3107
1754.00,2.2672
1753.00,2.2252
1752.00,2.1903
1751.00,2.1622
1750.00,2.1360
1749.00,2.1080
1748.00,2.0816
1747.00,2.0645
1746.00,2.0599
1745.00,2.0671
1744.00,2.0842
1743.00,2.1071
1742.00,2.1307
1741.00,2.1518
1740.00,2.1732
1739.00,2.2011
1738.00,2.2348
1737.00,2.2662
1736.00,2.2959
1735.00,2.3357
1734.00,2.3934
1733.00,2.4611
1732.00,2.5206
1731.00,2.5660
1730.00,2.6104
1729.00,2.6640
1728.00,2.7252
1727.00,2.7857
1726.00,2.8416
1725.00,2.8959
1724.00,2.9522
1723.00,3.0116
1722.00,3.0723
1721.00,3.1257
1720.00,3.1671
1719.00,3.2059
1718.00,3.2603
1717.00,3.3372
1716.00,3.4206
1715.00,3.4942
1714.00,3.5643
1713.00,3.6394
1712.00,3.7107
1711.00,3.7669
1710.00,3.8133
1709.00,3.8490
1708.00,3.8513
1707.00,3.8077
1706.00,3.7276
1705.00,3.6249
1704.00,3.5112
1703.00,3.3863
1702.00,3.2378
1701.00,3.0606
1700.00,2.8795
1699.00,2.7288
1698.00,2.6193
1697.00,2.5463
1696.00,2.5075
1695.00,2.4974
1694.00,2.4979
1693.00,2.4975
1692.00,2.5052
1691.00,2.5318
1690.00,2.5762
1689.00,2.6274
1688.00,2.6748
1687.00,2.7143
1686.00,2.7503
1685.00,2.7899
1684.00,2.8320
1683.00,2.8695
1682.00,2.8909
1681.00,2.9068
1680.00,2.9390
1679.00,2.9825
1678.00,3.0170
1677.00,3.0339
1676.00,3.0419
1675.00,3.0519
1674.00,3.0630
1673.00,3.0703
1672.00,3.0753
1671.00,3.0837
1670.00,3.0989
1669.00,3.1182
1668.00,3.1374
1667.00,3.1548
1666.00,3.1707
1665.00,3.1849
1664.00,3.1964
1663.00,3.2063
1662.00,3.2142
1661.00,3.2185
1660.00,3.2198
1659.00,3.2208
1658.00,3.2230
1657.00,3.2245
1656.00,3.2213
1655.00,3.2150
1654.00,3.2119
1653.00,3.2140
1652.00,3.2179
1651.00,3.2178
1650.00,3.2160
1649.00,3.2131
1648.00,3.2113
1647.00,3.2188
1646.00,3.2313
1645.00,3.2381
1644.00,3.2392
1643.00,3.2428
1642.00,3.2459
1641.00,3.2441
1640.00,3.2395
1639.00,3.2313
1638.00,3.2179
1637.00,3.1988
1636.00,3.1766
1635.00,3.1567
1634.00,3.1442
1633.00,3.1432
1632.00,3.1525
1631.00,3.1641
1630.00,3.1700
1629.00,3.1683
1628.00,3.1611
1627.00,3.1529
1626.00,3.1445
1625.00,3.1324
1624.00,3.1131
1623.00,3.0869
1622.00,3.0599
1621.00,3.0372
1620.00,3.0194
1619.00,3.0035
1618.00,2.9872
1617.00,2.9694
1616.00,2.9495
1615.00,2.9270
1614.00,2.9019
1613.00,2.8780
1612.00,2.8584
1611.00,2.8413
1610.00,2.8198
1609.00,2.7905
1608.00,2.7576
1607.00,2.7256
1606.00,2.6938
1605.00,2.6589
1604.00,2.6199
1603.00,2.5775
1602.00,2.5334
1601.00,2.4877
1600.00,2.4399
1599.00,2.3907
1598.00,2.3415
1597.00,2.2926
1596.00,2.2436
1595.00,2.1952
1594.00,2.1493
1593.00,2.1068
1592.00,2.0686
1591.00,2.0362
1590.00,2.0111
1589.00,1.9937
1588.00,1.9839
1587.00,1.9819
1586.00,1.9885
1585.00,2.0037
1584.00,2.0272
1583.00,2.0576
1582.00,2.0936
1581.00,2.1349
1580.00,2.1768
1579.00,2.2146
1578.00,2.2514
1577.00,2.2963
1576.00,2.3516
1575.00,2.4071
1574.00,2.4489
1573.00,2.4778
1572.00,2.5052
1571.00,2.5398
1570.00,2.5824
1569.00,2.6270
1568.00,2.6685
1567.00,2.7051
1566.00,2.7412
1565.00,2.7802
1564.00,2.8195
1563.00,2.8528
1562.00,2.8776
1561.00,2.8981
1560.00,2.9176
1559.00,2.9301
1558.00,2.9432
1557.00,2.9529
1556.00,2.9628
1555.00,2.9944
1554.00,3.0418
1553.00,3.0935
1552.00,3.1364
1551.00,3.1643
1550.00,3.1830
1549.00,3.1969
1548.00,3.2037
1547.00,3.2024
1546.00,3.1997
1545.00,3.2033
1544.00,3.2137
1543.00,3.2239
1542.00,3.2298
1541.00,3.2360
1540.00,3.2509
1539.00,3.2766
1538.00,3.3032
1537.00,3.3254
1536.00,3.3388
1535.00,3.3384
1534.00,3.3311
1533.00,3.3299
1532.00,3.3404
1531.00,3.3582
1530.00,3.3761
1529.00,3.3856
1528.00,3.3838
1527.00,3.3772
1526.00,3.3708
1525.00,3.3623
1524.00,3.3486
1523.00,3.3351
1522.00,3.3324
1521.00,3.3467
1520.00,3.3700
1519.00,3.3843
1518.00,3.3848
1517.00,3.3796
1516.00,3.3734
1515.00,3.3667
1514.00,3.3611
1513.00,3.3624
1512.00,3.3689
1511.00,3.3718
1510.00,3.3672
1509.00,3.3594
1508.00,3.3569
1507.00,3.3621
1506.00,3.3680
1505.00,3.3587
1504.00,3.3497
1503.00,3.3598
1502.00,3.3739
1501.00,3.3783
1500.00,3.3681
1499.00,3.3466
1498.00,3.3263
1497.00,3.3179
1496.00,3.3179
1495.00,3.3143
1494.00,3.3003
1493.00,3.2805
1492.00,3.2650
1491.00,3.2589
1490.00,3.2596
1489.00,3.2607
1488.00,3.2562
1487.00,3.2467
1486.00,3.2381
1485.00,3.2319
1484.00,3.2267
1483.00,3.2186
1482.00,3.2049
1481.00,3.1860
1480.00,3.1632
1479.00,3.1389
1478.00,3.1161
1477.00,3.0971
1476.00,3.0820
1475.00,3.0706
1474.00,3.0621
1473.00,3.0555
1472.00,3.0495
1471.00,3.0426
1470.00,3.0384
1469.00,3.0426
1468.00,3.0552
1467.00,3.0716
1466.00,3.0890
1465.00,3.1077
1464.00,3.1278
1463.00,3.1475
1462.00,3.1690
1461.00,3.1943
1460.00,3.2231
1459.00,3.2580
1458.00,3.3061
1457.00,3.3692
1456.00,3.4316
1455.00,3.4770
1454.00,3.5146
1453.00,3.5620
1452.00,3.6199
1451.00,3.6754
1450.00,3.7131
1449.00,3.7250
1448.00,3.7099
1447.00,3.6773
1446.00,3.6443
1445.00,3.6225
1444.00,3.6107
1443.00,3.6053
1442.00,3.6111
1441.00,3.6273
1440.00,3.6391
1439.00,3.6311
1438.00,3.6091
1437.00,3.5870
1436.00,3.5641
1435.00,3.5341
1434.00,3.5041
1433.00,3.4891
1432.00,3.4952
1431.00,3.5150
1430.00,3.5334
1429.00,3.5386
1428.00,3.5295
1427.00,3.5142
1426.00,3.5022
1425.00,3.4994
1424.00,3.5005
1423.00,3.4927
1422.00,3.4742
1421.00,3.4573
1420.00,3.4544
1419.00,3.4653
1418.00,3.4792
1417.00,3.4826
1416.00,3.4725
1415.00,3.4564
1414.00,3.4402
1413.00,3.4244
1412.00,3.4085
1411.00,3.3939
1410.00,3.3834
1409.00,3.3767
1408.00,3.3716
1407.00,3.3678
1406.00,3.3660
1405.00,3.3647
1404.00,3.3611
1403.00,3.3546
1402.00,3.3497
1401.00,3.3512
1400.00,3.3590
1399.00,3.3685
1398.00,3.3758
1397.00,3.3818
1396.00,3.3909
1395.00,3.4077
1394.00,3.4322
1393.00,3.4597
1392.00,3.4841
1391.00,3.5027
1390.00,3.5198
1389.00,3.5414
1388.00,3.5677
1387.00,3.5921
1386.00,3.6073
1385.00,3.6107
1384.00,3.6049
1383.00,3.5945
1382.00,3.5865
1381.00,3.5886
1380.00,3.6085
1379.00,3.6545
1378.00,3.7336
1377.00,3.8449
1376.00,3.9588
1375.00,3.9975
1374.00,3.9495
1373.00,3.8793
1372.00,3.7963
1371.00,3.7027
1370.00,3.6218
1369.00,3.5716
1368.00,3.5524
1367.00,3.5503
1366.00,3.5500
1365.00,3.5446
1364.00,3.5329
1363.00,3.5181
1362.00,3.5087
1361.00,3.5135
1360.00,3.5372
1359.00,3.5793
1358.00,3.6299
1357.00,3.6704
1356.00,3.6821
1355.00,3.6659
1354.00,3.6419
1353.00,3.6295
1352.00,3.6327
1351.00,3.6411
1350.00,3.6431
1349.00,3.6409
1348.00,3.6488
1347.00,3.6730
1346.00,3.6973
1345.00,3.6928
1344.00,3.6565
1343.00,3.6194
1342.00,3.6143
1341.00,3.6508
1340.00,3.7070
1339.00,3.7437
1338.00,3.7416
1337.00,3.7105
1336.00,3.6651
1335.00,3.6187
1334.00,3.5875
1333.00,3.5836
1332.00,3.6063
1331.00,3.6418
1330.00,3.6693
1329.00,3.6703
1328.00,3.6381
1327.00,3.5838
1326.00,3.5244
1325.00,3.4758
1324.00,3.4481
1323.00,3.4427
1322.00,3.4549
1321.00,3.4741
1320.00,3.4838
1319.00,3.4735
1318.00,3.4510
1317.00,3.4339
1316.00,3.4299
1315.00,3.4323
1314.00,3.4296
1313.00,3.4157
1312.00,3.3941
1311.00,3.3734
1310.00,3.3593
1309.00,3.3501
1308.00,3.3380
1307.00,3.3161
1306.00,3.2841
1305.00,3.2450
1304.00,3.2009
1303.00,3.1545
1302.00,3.1098
1301.00,3.0684
1300.00,3.0275
1299.00,2.9836
1298.00,2.9361
1297.00,2.8866
1296.00,2.8347
1295.00,2.7789
1294.00,2.7187
1293.00,2.6564
1292.00,2.5942
1291.00,2.5341
1290.00,2.4774
1289.00,2.4260
1288.00,2.3816
1287.00,2.3455
1286.00,2.3187
1285.00,2.3023
1284.00,2.2980
1283.00,2.3077
1282.00,2.3313
1281.00,2.3670
1280.00,2.4107
1279.00,2.4587
1278.00,2.5083
1277.00,2.5580
1276.00,2.6062
1275.00,2.6507
1274.00,2.6905
1273.00,2.7275
1272.00,2.7657
1271.00,2.8079
1270.00,2.8536
1269.00,2.8999
1268.00,2.9446
1267.00,2.9878
1266.00,3.0302
1265.00,3.0709
1264.00,3.1082
1263.00,3.1439
1262.00,3.1817
1261.00,3.2220
1260.00,3.2595
1259.00,3.2902
1258.00,3.3164
1257.00,3.3425
1256.00,3.3680
1255.00,3.3898
1254.00,3.4079
1253.00,3.4254
1252.00,3.4446
1251.00,3.4644
1250.00,3.4843
1249.00,3.5058
1248.00,3.5296
1247.00,3.5561
1246.00,3.5839
1245.00,3.6069
1244.00,3.6202
1243.00,3.6286
1242.00,3.6440
1241.00,3.6722
1240.00,3.7060
1239.00,3.7319
1238.00,3.7435
1237.00,3.7437
1236.00,3.7350
1235.00,3.7293
1234.00,3.7465
1233.00,3.7914
1232.00,3.8424
1231.00,3.8703
1230.00,3.8831
1229.00,3.9099
1228.00,3.9436
1227.00,3.9314
1226.00,3.8587
1225.00,3.7819
1224.00,3.7390
1223.00,3.7340
1222.00,3.7651
1221.00,3.8284
1220.00,3.8976
1219.00,3.9238
1218.00,3.8988
1217.00,3.8636
1216.00,3.8435
1215.00,3.8418
1214.00,3.8573
1213.00,3.8907
1212.00,3.9357
1211.00,3.9700
1210.00,3.9794
1209.00,3.9828
1208.00,4.0015
1207.00,4.0280
1206.00,4.0372
1205.00,4.0243
1204.00,4.0177
1203.00,4.0519
1202.00,4.1341
1201.00,4.2079
1200.00,4.1671
1199.00,4.0315
1198.00,3.9155
1197.00,3.8655
1196.00,3.8700
1195.00,3.8892
1194.00,3.8708
1193.00,3.8055
1192.00,3.7379
1191.00,3.7048
1190.00,3.7250
1189.00,3.8016
1188.00,3.8986
1187.00,3.9308
1186.00,3.8771
1185.00,3.8188
1184.00,3.8066
1183.00,3.8267
1182.00,3.8374
1181.00,3.8138
1180.00,3.7544
1179.00,3.6810
1178.00,3.6269
1177.00,3.6104
1176.00,3.6177
1175.00,3.6039
1174.00,3.5481
1173.00,3.4873
1172.00,3.4548
1171.00,3.4490
1170.00,3.4446
1169.00,3.4193
1168.00,3.3723
1167.00,3.3168
1166.00,3.2662
1165.00,3.2275
1164.00,3.1991
1163.00,3.1688
1162.00,3.1255
1161.00,3.0733
1160.00,3.0213
1159.00,2.9708
1158.00,2.9176
1157.00,2.8608
1156.00,2.8044
1155.00,2.7518
1154.00,2.7027
1153.00,2.6561
1152.00,2.6147
1151.00,2.5835
1150.00,2.5658
1149.00,2.5616
1148.00,2.5691
1147.00,2.5871
1146.00,2.6142
1145.00,2.6489
1144.00,2.6899
1143.00,2.7364
1142.00,2.7880
1141.00,2.8444
1140.00,2.9052
1139.00,2.9697
1138.00,3.0342
1137.00,3.0916
1136.00,3.1367
1135.00,3.1730
1134.00,3.2091
1133.00,3.2522
1132.00,3.3053
1131.00,3.3681
1130.00,3.4354
1129.00,3.4992
1128.00,3.5543
1127.00,3.6048
1126.00,3.6624
1125.00,3.7244
1124.00,3.7606
1123.00,3.7460
1122.00,3.6980
1121.00,3.6548
1120.00,3.6385
1119.00,3.6456
1118.00,3.6548
1117.00,3.6488
1116.00,3.6373
1115.00,3.6497
1114.00,3.7007
1113.00,3.7793
1112.00,3.8654
1111.00,3.9475
1110.00,4.0131
1109.00,4.0404
1108.00,4.0165
1107.00,3.9570
1106.00,3.8962
1105.00,3.8599
1104.00,3.8593
1103.00,3.8844
1102.00,3.9021
1101.00,3.9030
1100.00,3.8930
1099.00,3.8721
1098.00,3.8702
1097.00,3.9275
1096.00,4.0341
1095.00,4.0807
1094.00,3.9926
1093.00,3.8727
1092.00,3.7861
1091.00,3.7271
1090.00,3.6929
1089.00,3.7089
1088.00,3.7926
1087.00,3.9014
1086.00,3.9561
1085.00,3.9723
1084.00,4.0095
1083.00,4.0745
1082.00,4.0825
1081.00,3.9749
1080.00,3.8452
1079.00,3.7727
1078.00,3.7717
1077.00,3.8238
1076.00,3.9008
1075.00,3.9844
1074.00,4.0667
1073.00,4.1602
1072.00,4.2725
1071.00,4.2635
1070.00,4.1792
1069.00,4.2416
1068.00,4.5895
1067.00,5.4004
1066.00,4.9494
1065.00,4.4941
1064.00,4.1945
1063.00,4.0804
1062.00,4.0550
1061.00,4.0317
1060.00,4.0465
1059.00,4.1703
1058.00,4.4903
1057.00,4.8333
1056.00,4.5778
1055.00,4.3145
1054.00,4.0892
1053.00,3.9711
1052.00,3.9962
1051.00,4.2505
1050.00,4.5712
1049.00,4.2694
1048.00,4.1926
1047.00,4.2503
1046.00,4.3690
1045.00,4.7155
1044.00,5.2648
1043.00,4.7097
1042.00,4.8317
1041.00,4.9565
1040.00,4.3994
1039.00,4.2113
1038.00,4.1615
1037.00,4.1972
1036.00,4.2590
1035.00,4.1807
1034.00,4.0692
1033.00,4.0652
1032.00,4.1528
1031.00,4.1309
1030.00,3.9670
1029.00,3.8582
1028.00,3.8499
1027.00,3.9398
1026.00,4.1262
1025.00,4.3484
1024.00,4.6509
1023.00,5.2482
1022.00,4.9481
1021.00,4.8781
1020.00,4.9726
1019.00,4.6908
1018.00,4.3244
1017.00,4.0884
1016.00,3.9605
1015.00,3.9296
1014.00,4.0151
1013.00,4.1951
1012.00,4.2496
1011.00,4.0705
1010.00,3.9025
1009.00,3.8091
1008.00,3.7734
1007.00,3.7675
1006.00,3.7597
1005.00,3.7141
1004.00,3.6160
1003.00,3.4970
1002.00,3.3962
1001.00,3.3277
1000.00,3.2855
999.00,3.2604
998.00,3.2511
997.00,3.2610
996.00,3.2917
995.00,3.3436
994.00,3.4148
993.00,3.4931
992.00,3.5494
991.00,3.5606
990.00,3.5512
989.00,3.5664
988.00,3.6207
987.00,3.6929
986.00,3.7443
985.00,3.7603
984.00,3.7701
983.00,3.8144
982.00,3.9133
981.00,4.0391
980.00,4.0845
979.00,4.0169
978.00,3.9356
977.00,3.9336
976.00,4.0220
975.00,4.2619
974.00,4.6292
973.00,4.3274
972.00,4.1509
971.00,4.1726
970.00,4.3051
969.00,4.4462
968.00,4.3702
967.00,4.2459
966.00,4.1657
965.00,4.1497
964.00,4.2074
963.00,4.4377
962.00,4.5039
961.00,4.1432
960.00,4.0500
959.00,4.1867
958.00,4.2208
957.00,4.0717
956.00,4.0422
955.00,4.1110
954.00,4.1922
953.00,4.2664
952.00,4.3487
951.00,4.4724
950.00,4.6373
949.00,4.6063
948.00,4.4328
947.00,4.3792
946.00,4.2480
945.00,4.0763
944.00,4.0160
943.00,4.0520
942.00,4.0872
941.00,4.0455
940.00,4.0017
939.00,3.9596
938.00,3.9004
937.00,3.9055
936.00,4.0166
935.00,4.1774
934.00,4.2282
933.00,4.1525
932.00,4.1074
931.00,4.1964
930.00,4.4041
929.00,4.4409
928.00,4.3494
927.00,4.3257
926.00,4.2405
925.00,4.0809
924.00,3.9375
923.00,3.8314
922.00,3.7775
921.00,3.7780
920.00,3.8174
919.00,3.8834
918.00,3.9722
917.00,4.0751
916.00,4.1681
915.00,4.2384
914.00,4.2944
913.00,4.3149
912.00,4.2752
911.00,4.1753
910.00,4.0384
909.00,3.9278
908.00,3.8810
907.00,3.8874
906.00,3.9173
905.00,3.9566
904.00,3.9801
903.00,3.9881
902.00,4.0419
901.00,4.1809
900.00,4.3743
899.00,4.4567
898.00,4.3134
897.00,4.0860
896.00,3.9134
895.00,3.8260
894.00,3.8029
893.00,3.8097
892.00,3.7987
891.00,3.7674
890.00,3.7692
889.00,3.8298
888.00,3.9230
887.00,3.9869
886.00,3.9842
885.00,3.9412
884.00,3.9033
883.00,3.9075
882.00,3.9623
881.00,4.0312
880.00,4.0535
879.00,4.0121
878.00,3.9354
877.00,3.8488
876.00,3.7767
875.00,3.7386
874.00,3.7320
873.00,3.7299
872.00,3.7059
871.00,3.6713
870.00,3.6665
869.00,3.7261
868.00,3.8770
867.00,4.1051
866.00,4.3793
865.00,4.4609
864.00,4.1943
863.00,4.0663
862.00,4.0821
861.00,4.1608
860.00,4.2433
859.00,4.2903
858.00,4.3488
857.00,4.4831
856.00,4.6695
855.00,4.6302
854.00,4.5095
853.00,4.7664
852.00,4.6961
851.00,4.2603
850.00,4.1379
849.00,4.3266
848.00,4.8700
847.00,4.3566
846.00,4.0643
845.00,3.9423
844.00,3.8686
843.00,3.8901
842.00,4.0146
841.00,4.2633
840.00,4.4488
839.00,4.2018
838.00,3.9388
837.00,3.8512
836.00,3.9049
835.00,4.0562
834.00,4.2043
833.00,4.2314
832.00,4.1698
831.00,4.1300
830.00,4.1372
829.00,4.2574
828.00,4.3112
827.00,4.0158
826.00,3.8155
825.00,3.7713
824.00,3.8558
823.00,4.0983
822.00,4.3566
821.00,4.3272
820.00,4.3285
819.00,4.3136
818.00,4.2154
817.00,4.1663
816.00,4.1087
815.00,4.0295
814.00,3.9731
813.00,3.9327
812.00,3.8886
811.00,3.8650
810.00,3.8614
809.00,3.8852
808.00,3.9601
807.00,4.1406
806.00,4.4322
805.00,4.3833
804.00,4.2023
803.00,4.1557
802.00,4.1309
801.00,4.0327
800.00,3.8878
799.00,3.7781
798.00,3.7245
797.00,3.7204
796.00,3.7459
795.00,3.7642
794.00,3.7346
793.00,3.6830
792.00,3.6875
791.00,3.7935
790.00,3.9876
789.00,4.1307
788.00,4.0834
787.00,3.9949
786.00,3.9813
785.00,4.0367
784.00,4.0912
783.00,4.0724
782.00,4.0026
781.00,3.9431
780.00,3.9340
779.00,3.9641
778.00,4.0643
777.00,4.3366
776.00,4.4223
775.00,4.2271
774.00,4.1773
773.00,4.1342
772.00,4.0911
771.00,4.1102
770.00,4.2040
769.00,4.2897
768.00,4.1604
767.00,3.9930
766.00,3.9458
765.00,4.0077
764.00,4.0699
763.00,4.1079
762.00,4.0971
761.00,3.9635
760.00,3.8605
759.00,3.8362
758.00,3.8473
757.00,3.8618
756.00,3.8614
755.00,3.9078
754.00,4.0340
753.00,4.0361
752.00,3.9448
751.00,3.9609
750.00,4.0147
749.00,3.9906
748.00,3.9177
747.00,3.8620
746.00,3.8343
745.00,3.8260
744.00,3.8794
743.00,4.0365
742.00,4.2907
741.00,4.5691
740.00,4.5967
739.00,4.4186
738.00,4.3061
737.00,4.3022
736.00,4.3659
735.00,4.3554
734.00,4.1256
733.00,3.8943
732.00,3.7919
731.00,3.8016
730.00,3.8495
729.00,3.8483
728.00,3.8275
727.00,3.8625
726.00,3.9703
725.00,4.1205
724.00,4.2307
723.00,4.1875
722.00,4.0488
721.00,3.9336
720.00,3.8638
719.00,3.8390
718.00,3.8602
717.00,3.9280
716.00,4.0040
715.00,4.0143
714.00,3.9891
713.00,4.0591
712.00,4.3970
711.00,4.5013
710.00,4.1153
709.00,4.0394
708.00,4.1061
707.00,4.2089
706.00,4.2798
705.00,4.4358
704.00,4.8519
703.00,4.4827
702.00,4.3709
701.00,4.4327
700.00,4.3920
