Created as New Dataset,Sample 003 By Administrator Date Wednesday, November 24 2021
cm-1,A
7502.00,0.8188
7501.00,0.8123
7500.00,0.8059
7499.00,0.7996
7498.00,0.7933
7497.00,0.7872
7496.00,0.7811
7495.00,0.7754
7494.00,0.7701
7493.00,0.7649
7492.00,0.7602
7491.00,0.7565
7490.00,0.7539
7489.00,0.7514
7488.00,0.7472
7487.00,0.7403
7486.00,0.7312
7485.00,0.7213
7484.00,0.7111
7483.00,0.7008
7482.00,0.6905
7481.00,0.6808
7480.00,0.6721
7479.00,0.6644
7478.00,0.6572
7477.00,0.6506
7476.00,0.6447
7475.00,0.6395
7474.00,0.6348
7473.00,0.6305
7472.00,0.6260
7471.00,0.6210
7470.00,0.6152
7469.00,0.6085
7468.00,0.6015
7467.00,0.5946
7466.00,0.5883
7465.00,0.5825
7464.00,0.5767
7463.00,0.5709
7462.00,0.5654
7461.00,0.5602
7460.00,0.5549
7459.00,0.5492
7458.00,0.5435
7457.00,0.5385
7456.00,0.5347
7455.00,0.5318
7454.00,0.5292
7453.00,0.5267
7452.00,0.5243
7451.00,0.5223
7450.00,0.5207
7449.00,0.5193
7448.00,0.5179
7447.00,0.5167
7446.00,0.5159
7445.00,0.5156
7444.00,0.5158
7443.00,0.5161
7442.00,0.5166
7441.00,0.5175
7440.00,0.5189
7439.00,0.5205
7438.00,0.5226
7437.00,0.5251
7436.00,0.5280
7435.00,0.5312
7434.00,0.5348
7433.00,0.5390
7432.00,0.5436
7431.00,0.5483
7430.00,0.5530
7429.00,0.5581
7428.00,0.5641
7427.00,0.5710
7426.00,0.5783
7425.00,0.5855
7424.00,0.5926
7423.00,0.5995
7422.00,0.6068
7421.00,0.6143
7420.00,0.6220
7419.00,0.6297
7418.00,0.6378
7417.00,0.6463
7416.00,0.6552
7415.00,0.6642
7414.00,0.6730
7413.00,0.6815
7412.00,0.6897
7411.00,0.6978
7410.00,0.7061
7409.00,0.7148
7408.00,0.7240
7407.00,0.7333
7406.00,0.7426
7405.00,0.7518
7404.00,0.7607
7403.00,0.7694
7402.00,0.7781
7401.00,0.7871
7400.00,0.7960
7399.00,0.8048
7398.00,0.8134
7397.00,0.8219
7396.00,0.8302
7395.00,0.8382
7394.00,0.8460
7393.00,0.8540
7392.00,0.8622
7391.00,0.8701
7390.00,0.8776
7389.00,0.8846
7388.00,0.8916
7387.00,0.8985
7386.00,0.9051
7385.00,0.9115
7384.00,0.9175
7383.00,0.9232
7382.00,0.9289
7381.00,0.9349
7380.00,0.9411
7379.00,0.9474
7378.00,0.9533
7377.00,0.9585
7376.00,0.9627
7375.00,0.9662
7374.00,0.9693
7373.00,0.9718
7372.00,0.9737
7371.00,0.9751
7370.00,0.9768
7369.00,0.9789
7368.00,0.9811
7367.00,0.9827
7366.00,0.9836
7365.00,0.9842
7364.00,0.9845
7363.00,0.9845
7362.00,0.9842
7361.00,0.9838
7360.00,0.9832
7359.00,0.9823
7358.00,0.9812
7357.00,0.9796
7356.00,0.9771
7355.00,0.9739
7354.00,0.9708
7353.00,0.9685
7352.00,0.9666
7351.00,0.9640
7350.00,0.9604
7349.00,0.9561
7348.00,0.9514
7347.00,0.9459
7346.00,0.9397
7345.00,0.9332
7344.00,0.9268
7343.00,0.9203
7342.00,0.9136
7341.00,0.9067
7340.00,0.8997
7339.00,0.8926
7338.00,0.8852
7337.00,0.8776
7336.00,0.8702
7335.00,0.8631
7334.00,0.8562
7333.00,0.8492
7332.00,0.8421
7331.00,0.8348
7330.00,0.8274
7329.00,0.8201
7328.00,0.8127
7327.00,0.8051
7326.00,0.7975
7325.00,0.7899
7324.00,0.7820
7323.00,0.7736
7322.00,0.7647
7321.00,0.7557
7320.00,0.7469
7319.00,0.7388
7318.00,0.7313
7317.00,0.7246
7316.00,0.7184
7315.00,0.7123
7314.00,0.7063
7313.00,0.7006
7312.00,0.6951
7311.00,0.6898
7310.00,0.6844
7309.00,0.6792
7308.00,0.6746
7307.00,0.6705
7306.00,0.6669
7305.00,0.6635
7304.00,0.6603
7303.00,0.6573
7302.00,0.6548
7301.00,0.6528
7300.00,0.6514
7299.00,0.6505
7298.00,0.6500
7297.00,0.6501
7296.00,0.6509
7295.00,0.6523
7294.00,0.6540
7293.00,0.6562
7292.00,0.6587
7291.00,0.6617
7290.00,0.6649
7289.00,0.6685
7288.00,0.6724
7287.00,0.6767
7286.00,0.6816
7285.00,0.6871
7284.00,0.6931
7283.00,0.6993
7282.00,0.7054
7281.00,0.7115
7280.00,0.7179
7279.00,0.7246
7278.00,0.7316
7277.00,0.7388
7276.00,0.7461
7275.00,0.7540
7274.00,0.7624
7273.00,0.7709
7272.00,0.7791
7271.00,0.7868
7270.00,0.7945
7269.00,0.8025
7268.00,0.8106
7267.00,0.8187
7266.00,0.8267
7265.00,0.8349
7264.00,0.8432
7263.00,0.8517
7262.00,0.8600
7261.00,0.8681
7260.00,0.8759
7259.00,0.8838
7258.00,0.8920
7257.00,0.9005
7256.00,0.9092
7255.00,0.9174
7254.00,0.9250
7253.00,0.9323
7252.00,0.9394
7251.00,0.9461
7250.00,0.9523
7249.00,0.9582
7248.00,0.9641
7247.00,0.9701
7246.00,0.9763
7245.00,0.9824
7244.00,0.9886
7243.00,0.9945
7242.00,1.0001
7241.00,1.0056
7240.00,1.0109
7239.00,1.0159
7238.00,1.0206
7237.00,1.0252
7236.00,1.0295
7235.00,1.0332
7234.00,1.0361
7233.00,1.0385
7232.00,1.0408
7231.00,1.0428
7230.00,1.0441
7229.00,1.0450
7228.00,1.0460
7227.00,1.0477
7226.00,1.0499
7225.00,1.0519
7224.00,1.0530
7223.00,1.0530
7222.00,1.0523
7221.00,1.0512
7220.00,1.0500
7219.00,1.0487
7218.00,1.0474
7217.00,1.0460
7216.00,1.0441
7215.00,1.0413
7214.00,1.0374
7213.00,1.0328
7212.00,1.0277
7211.00,1.0226
7210.00,1.0176
7209.00,1.0129
7208.00,1.0084
7207.00,1.0040
7206.00,0.9992
7205.00,0.9938
7204.00,0.9879
7203.00,0.9817
7202.00,0.9753
7201.00,0.9690
7200.00,0.9628
7199.00,0.9563
7198.00,0.9496
7197.00,0.9427
7196.00,0.9356
7195.00,0.9283
7194.00,0.9208
7193.00,0.9128
7192.00,0.9045
7191.00,0.8958
7190.00,0.8869
7189.00,0.8781
7188.00,0.8695
7187.00,0.8609
7186.00,0.8526
7185.00,0.8447
7184.00,0.8369
7183.00,0.8287
7182.00,0.8201
7181.00,0.8114
7180.00,0.8033
7179.00,0.7958
7178.00,0.7887
7177.00,0.7818
7176.00,0.7750
7175.00,0.7686
7174.00,0.7622
7173.00,0.7557
7172.00,0.7489
7171.00,0.7421
7170.00,0.7355
7169.00,0.7294
7168.00,0.7237
7167.00,0.7182
7166.00,0.7131
7165.00,0.7086
7164.00,0.7048
7163.00,0.7016
7162.00,0.6988
7161.00,0.6963
7160.00,0.6943
7159.00,0.6926
7158.00,0.6912
7157.00,0.6900
7156.00,0.6893
7155.00,0.6891
7154.00,0.6895
7153.00,0.6903
7152.00,0.6915
7151.00,0.6930
7150.00,0.6950
7149.00,0.6973
7148.00,0.7001
7147.00,0.7034
7146.00,0.7072
7145.00,0.7117
7144.00,0.7167
7143.00,0.7220
7142.00,0.7276
7141.00,0.7332
7140.00,0.7390
7139.00,0.7451
7138.00,0.7514
7137.00,0.7580
7136.00,0.7648
7135.00,0.7721
7134.00,0.7797
7133.00,0.7876
7132.00,0.7955
7131.00,0.8033
7130.00,0.8111
7129.00,0.8191
7128.00,0.8272
7127.00,0.8353
7126.00,0.8434
7125.00,0.8517
7124.00,0.8601
7123.00,0.8689
7122.00,0.8778
7121.00,0.8867
7120.00,0.8957
7119.00,0.9048
7118.00,0.9141
7117.00,0.9230
7116.00,0.9313
7115.00,0.9393
7114.00,0.9473
7113.00,0.9555
7112.00,0.9637
7111.00,0.9718
7110.00,0.9801
7109.00,0.9885
7108.00,0.9968
7107.00,1.0044
7106.00,1.0114
7105.00,1.0181
7104.00,1.0246
7103.00,1.0308
7102.00,1.0368
7101.00,1.0429
7100.00,1.0494
7099.00,1.0561
7098.00,1.0625
7097.00,1.0683
7096.00,1.0735
7095.00,1.0787
7094.00,1.0835
7093.00,1.0876
7092.00,1.0910
7091.00,1.0942
7090.00,1.0978
7089.00,1.1018
7088.00,1.1055
7087.00,1.1089
7086.00,1.1118
7085.00,1.1142
7084.00,1.1155
7083.00,1.1161
7082.00,1.1164
7081.00,1.1166
7080.00,1.1167
7079.00,1.1165
7078.00,1.1164
7077.00,1.1167
7076.00,1.1170
7075.00,1.1166
7074.00,1.1157
7073.00,1.1146
7072.00,1.1134
7071.00,1.1118
7070.00,1.1096
7069.00,1.1070
7068.00,1.1041
7067.00,1.1007
7066.00,1.0965
7065.00,1.0917
7064.00,1.0863
7063.00,1.0808
7062.00,1.0752
7061.00,1.0697
7060.00,1.0642
7059.00,1.0585
7058.00,1.0527
7057.00,1.0467
7056.00,1.0405
7055.00,1.0340
7054.00,1.0269
7053.00,1.0194
7052.00,1.0113
7051.00,1.0030
7050.00,0.9946
7049.00,0.9863
7048.00,0.9778
7047.00,0.9691
7046.00,0.9603
7045.00,0.9517
7044.00,0.9429
7043.00,0.9338
7042.00,0.9244
7041.00,0.9150
7040.00,0.9057
7039.00,0.8965
7038.00,0.8876
7037.00,0.8790
7036.00,0.8705
7035.00,0.8621
7034.00,0.8538
7033.00,0.8457
7032.00,0.8376
7031.00,0.8294
7030.00,0.8215
7029.00,0.8140
7028.00,0.8069
7027.00,0.8000
7026.00,0.7935
7025.00,0.7873
7024.00,0.7814
7023.00,0.7758
7022.00,0.7705
7021.00,0.7654
7020.00,0.7608
7019.00,0.7568
7018.00,0.7533
7017.00,0.7505
7016.00,0.7480
7015.00,0.7457
7014.00,0.7438
7013.00,0.7425
7012.00,0.7417
7011.00,0.7413
7010.00,0.7414
7009.00,0.7421
7008.00,0.7436
7007.00,0.7456
7006.00,0.7478
7005.00,0.7501
7004.00,0.7528
7003.00,0.7559
7002.00,0.7596
7001.00,0.7639
7000.00,0.7687
6999.00,0.7739
6998.00,0.7794
6997.00,0.7853
6996.00,0.7916
6995.00,0.7982
6994.00,0.8050
6993.00,0.8121
6992.00,0.8193
6991.00,0.8268
6990.00,0.8344
6989.00,0.8420
6988.00,0.8494
6987.00,0.8567
6986.00,0.8642
6985.00,0.8721
6984.00,0.8807
6983.00,0.8896
6982.00,0.8983
6981.00,0.9068
6980.00,0.9150
6979.00,0.9232
6978.00,0.9315
6977.00,0.9399
6976.00,0.9484
6975.00,0.9569
6974.00,0.9656
6973.00,0.9743
6972.00,0.9829
6971.00,0.9910
6970.00,0.9986
6969.00,1.0058
6968.00,1.0128
6967.00,1.0197
6966.00,1.0269
6965.00,1.0344
6964.00,1.0420
6963.00,1.0494
6962.00,1.0564
6961.00,1.0630
6960.00,1.0694
6959.00,1.0755
6958.00,1.0810
6957.00,1.0859
6956.00,1.0904
6955.00,1.0950
6954.00,1.1000
6953.00,1.1050
6952.00,1.1096
6951.00,1.1133
6950.00,1.1165
6949.00,1.1196
6948.00,1.1225
6947.00,1.1250
6946.00,1.1272
6945.00,1.1292
6944.00,1.1316
6943.00,1.1342
6942.00,1.1366
6941.00,1.1383
6940.00,1.1392
6939.00,1.1395
6938.00,1.1395
6937.00,1.1392
6936.00,1.1383
6935.00,1.1368
6934.00,1.1351
6933.00,1.1336
6932.00,1.1320
6931.00,1.1295
6930.00,1.1259
6929.00,1.1217
6928.00,1.1174
6927.00,1.1131
6926.00,1.1085
6925.00,1.1037
6924.00,1.0988
6923.00,1.0942
6922.00,1.0895
6921.00,1.0844
6920.00,1.0787
6919.00,1.0727
6918.00,1.0665
6917.00,1.0604
6916.00,1.0538
6915.00,1.0467
6914.00,1.0391
6913.00,1.0315
6912.00,1.0240
6911.00,1.0163
6910.00,1.0081
6909.00,0.9993
6908.00,0.9903
6907.00,0.9813
6906.00,0.9722
6905.00,0.9631
6904.00,0.9537
6903.00,0.9442
6902.00,0.9347
6901.00,0.9255
6900.00,0.9164
6899.00,0.9072
6898.00,0.8981
6897.00,0.8891
6896.00,0.8805
6895.00,0.8722
6894.00,0.8640
6893.00,0.8556
6892.00,0.8472
6891.00,0.8388
6890.00,0.8305
6889.00,0.8226
6888.00,0.8148
6887.00,0.8073
6886.00,0.8002
6885.00,0.7936
6884.00,0.7873
6883.00,0.7813
6882.00,0.7757
6881.00,0.7705
6880.00,0.7654
6879.00,0.7606
6878.00,0.7562
6877.00,0.7522
6876.00,0.7485
6875.00,0.7453
6874.00,0.7427
6873.00,0.7408
6872.00,0.7395
6871.00,0.7383
6870.00,0.7374
6869.00,0.7369
6868.00,0.7369
6867.00,0.7374
6866.00,0.7385
6865.00,0.7400
6864.00,0.7422
6863.00,0.7448
6862.00,0.7478
6861.00,0.7512
6860.00,0.7549
6859.00,0.7591
6858.00,0.7637
6857.00,0.7687
6856.00,0.7741
6855.00,0.7800
6854.00,0.7862
6853.00,0.7927
6852.00,0.7992
6851.00,0.8060
6850.00,0.8132
6849.00,0.8207
6848.00,0.8282
6847.00,0.8359
6846.00,0.8437
6845.00,0.8518
6844.00,0.8600
6843.00,0.8681
6842.00,0.8764
6841.00,0.8850
6840.00,0.8939
6839.00,0.9032
6838.00,0.9127
6837.00,0.9222
6836.00,0.9314
6835.00,0.9403
6834.00,0.9490
6833.00,0.9575
6832.00,0.9660
6831.00,0.9743
6830.00,0.9830
6829.00,0.9920
6828.00,1.0012
6827.00,1.0101
6826.00,1.0186
6825.00,1.0268
6824.00,1.0347
6823.00,1.0423
6822.00,1.0498
6821.00,1.0573
6820.00,1.0650
6819.00,1.0727
6818.00,1.0805
6817.00,1.0880
6816.00,1.0951
6815.00,1.1017
6814.00,1.1080
6813.00,1.1142
6812.00,1.1201
6811.00,1.1255
6810.00,1.1305
6809.00,1.1355
6808.00,1.1405
6807.00,1.1451
6806.00,1.1491
6805.00,1.1528
6804.00,1.1562
6803.00,1.1594
6802.00,1.1624
6801.00,1.1650
6800.00,1.1675
6799.00,1.1698
6798.00,1.1717
6797.00,1.1734
6796.00,1.1745
6795.00,1.1751
6794.00,1.1753
6793.00,1.1754
6792.00,1.1754
6791.00,1.1752
6790.00,1.1746
6789.00,1.1733
6788.00,1.1714
6787.00,1.1691
6786.00,1.1668
6785.00,1.1646
6784.00,1.1622
6783.00,1.1594
6782.00,1.1564
6781.00,1.1532
6780.00,1.1495
6779.00,1.1450
6778.00,1.1397
6777.00,1.1340
6776.00,1.1282
6775.00,1.1226
6774.00,1.1171
6773.00,1.1115
6772.00,1.1054
6771.00,1.0985
6770.00,1.0911
6769.00,1.0835
6768.00,1.0757
6767.00,1.0676
6766.00,1.0591
6765.00,1.0504
6764.00,1.0417
6763.00,1.0330
6762.00,1.0240
6761.00,1.0145
6760.00,1.0046
6759.00,0.9948
6758.00,0.9852
6757.00,0.9758
6756.00,0.9663
6755.00,0.9566
6754.00,0.9468
6753.00,0.9372
6752.00,0.9276
6751.00,0.9183
6750.00,0.9090
6749.00,0.9001
6748.00,0.8912
6747.00,0.8824
6746.00,0.8735
6745.00,0.8646
6744.00,0.8560
6743.00,0.8475
6742.00,0.8394
6741.00,0.8317
6740.00,0.8243
6739.00,0.8173
6738.00,0.8106
6737.00,0.8043
6736.00,0.7985
6735.00,0.7931
6734.00,0.7881
6733.00,0.7838
6732.00,0.7798
6731.00,0.7763
6730.00,0.7732
6729.00,0.7706
6728.00,0.7686
6727.00,0.7670
6726.00,0.7660
6725.00,0.7656
6724.00,0.7656
6723.00,0.7661
6722.00,0.7671
6721.00,0.7687
6720.00,0.7709
6719.00,0.7735
6718.00,0.7765
6717.00,0.7799
6716.00,0.7838
6715.00,0.7880
6714.00,0.7926
6713.00,0.7977
6712.00,0.8033
6711.00,0.8093
6710.00,0.8157
6709.00,0.8226
6708.00,0.8297
6707.00,0.8369
6706.00,0.8440
6705.00,0.8513
6704.00,0.8588
6703.00,0.8666
6702.00,0.8748
6701.00,0.8833
6700.00,0.8919
6699.00,0.9004
6698.00,0.9089
6697.00,0.9174
6696.00,0.9259
6695.00,0.9345
6694.00,0.9432
6693.00,0.9522
6692.00,0.9615
6691.00,0.9710
6690.00,0.9802
6689.00,0.9891
6688.00,0.9976
6687.00,1.0062
6686.00,1.0148
6685.00,1.0234
6684.00,1.0316
6683.00,1.0396
6682.00,1.0474
6681.00,1.0552
6680.00,1.0629
6679.00,1.0705
6678.00,1.0779
6677.00,1.0852
6676.00,1.0921
6675.00,1.0989
6674.00,1.1055
6673.00,1.1119
6672.00,1.1178
6671.00,1.1232
6670.00,1.1283
6669.00,1.1336
6668.00,1.1388
6667.00,1.1437
6666.00,1.1478
6665.00,1.1514
6664.00,1.1549
6663.00,1.1585
6662.00,1.1621
6661.00,1.1652
6660.00,1.1678
6659.00,1.1701
6658.00,1.1723
6657.00,1.1742
6656.00,1.1754
6655.00,1.1758
6654.00,1.1759
6653.00,1.1762
6652.00,1.1766
6651.00,1.1767
6650.00,1.1761
6649.00,1.1749
6648.00,1.1733
6647.00,1.1715
6646.00,1.1695
6645.00,1.1670
6644.00,1.1642
6643.00,1.1610
6642.00,1.1575
6641.00,1.1538
6640.00,1.1497
6639.00,1.1451
6638.00,1.1399
6637.00,1.1341
6636.00,1.1279
6635.00,1.1216
6634.00,1.1154
6633.00,1.1090
6632.00,1.1024
6631.00,1.0956
6630.00,1.0887
6629.00,1.0815
6628.00,1.0738
6627.00,1.0655
6626.00,1.0570
6625.00,1.0484
6624.00,1.0396
6623.00,1.0306
6622.00,1.0216
6621.00,1.0127
6620.00,1.0036
6619.00,0.9943
6618.00,0.9849
6617.00,0.9755
6616.00,0.9662
6615.00,0.9567
6614.00,0.9468
6613.00,0.9368
6612.00,0.9270
6611.00,0.9173
6610.00,0.9078
6609.00,0.8985
6608.00,0.8892
6607.00,0.8800
6606.00,0.8710
6605.00,0.8621
6604.00,0.8533
6603.00,0.8446
6602.00,0.8361
6601.00,0.8281
6600.00,0.8204
6599.00,0.8132
6598.00,0.8062
6597.00,0.7995
6596.00,0.7931
6595.00,0.7870
6594.00,0.7813
6593.00,0.7760
6592.00,0.7711
6591.00,0.7666
6590.00,0.7625
6589.00,0.7590
6588.00,0.7559
6587.00,0.7534
6586.00,0.7514
6585.00,0.7500
6584.00,0.7490
6583.00,0.7483
6582.00,0.7482
6581.00,0.7485
6580.00,0.7492
6579.00,0.7503
6578.00,0.7519
6577.00,0.7541
6576.00,0.7569
6575.00,0.7603
6574.00,0.7642
6573.00,0.7687
6572.00,0.7735
6571.00,0.7787
6570.00,0.7843
6569.00,0.7902
6568.00,0.7963
6567.00,0.8025
6566.00,0.8091
6565.00,0.8161
6564.00,0.8235
6563.00,0.8311
6562.00,0.8391
6561.00,0.8475
6560.00,0.8562
6559.00,0.8650
6558.00,0.8740
6557.00,0.8830
6556.00,0.8921
6555.00,0.9012
6554.00,0.9103
6553.00,0.9196
6552.00,0.9290
6551.00,0.9383
6550.00,0.9475
6549.00,0.9566
6548.00,0.9657
6547.00,0.9748
6546.00,0.9839
6545.00,0.9931
6544.00,1.0024
6543.00,1.0117
6542.00,1.0212
6541.00,1.0307
6540.00,1.0398
6539.00,1.0485
6538.00,1.0570
6537.00,1.0653
6536.00,1.0735
6535.00,1.0813
6534.00,1.0888
6533.00,1.0961
6532.00,1.1034
6531.00,1.1105
6530.00,1.1173
6529.00,1.1239
6528.00,1.1304
6527.00,1.1367
6526.00,1.1429
6525.00,1.1489
6524.00,1.1544
6523.00,1.1594
6522.00,1.1640
6521.00,1.1685
6520.00,1.1730
6519.00,1.1771
6518.00,1.1808
6517.00,1.1839
6516.00,1.1866
6515.00,1.1890
6514.00,1.1910
6513.00,1.1928
6512.00,1.1943
6511.00,1.1955
6510.00,1.1966
6509.00,1.1976
6508.00,1.1983
6507.00,1.1986
6506.00,1.1984
6505.00,1.1979
6504.00,1.1970
6503.00,1.1956
6502.00,1.1938
6501.00,1.1919
6500.00,1.1896
6499.00,1.1869
6498.00,1.1839
6497.00,1.1808
6496.00,1.1773
6495.00,1.1733
6494.00,1.1686
6493.00,1.1636
6492.00,1.1585
6491.00,1.1533
6490.00,1.1479
6489.00,1.1418
6488.00,1.1352
6487.00,1.1281
6486.00,1.1208
6485.00,1.1133
6484.00,1.1054
6483.00,1.0971
6482.00,1.0887
6481.00,1.0804
6480.00,1.0718
6479.00,1.0629
6478.00,1.0537
6477.00,1.0444
6476.00,1.0351
6475.00,1.0256
6474.00,1.0158
6473.00,1.0058
6472.00,0.9958
6471.00,0.9856
6470.00,0.9752
6469.00,0.9648
6468.00,0.9543
6467.00,0.9438
6466.00,0.9332
6465.00,0.9225
6464.00,0.9120
6463.00,0.9015
6462.00,0.8912
6461.00,0.8812
6460.00,0.8715
6459.00,0.8621
6458.00,0.8530
6457.00,0.8441
6456.00,0.8356
6455.00,0.8273
6454.00,0.8193
6453.00,0.8117
6452.00,0.8045
6451.00,0.7978
6450.00,0.7915
6449.00,0.7856
6448.00,0.7801
6447.00,0.7751
6446.00,0.7706
6445.00,0.7668
6444.00,0.7637
6443.00,0.7611
6442.00,0.7589
6441.00,0.7573
6440.00,0.7562
6439.00,0.7557
6438.00,0.7556
6437.00,0.7561
6436.00,0.7571
6435.00,0.7587
6434.00,0.7609
6433.00,0.7635
6432.00,0.7665
6431.00,0.7701
6430.00,0.7741
6429.00,0.7788
6428.00,0.7838
6427.00,0.7893
6426.00,0.7951
6425.00,0.8015
6424.00,0.8082
6423.00,0.8153
6422.00,0.8225
6421.00,0.8300
6420.00,0.8376
6419.00,0.8454
6418.00,0.8535
6417.00,0.8618
6416.00,0.8706
6415.00,0.8797
6414.00,0.8890
6413.00,0.8985
6412.00,0.9078
6411.00,0.9170
6410.00,0.9262
6409.00,0.9356
6408.00,0.9451
6407.00,0.9546
6406.00,0.9641
6405.00,0.9739
6404.00,0.9836
6403.00,0.9930
6402.00,1.0021
6401.00,1.0109
6400.00,1.0195
6399.00,1.0280
6398.00,1.0363
6397.00,1.0446
6396.00,1.0530
6395.00,1.0615
6394.00,1.0699
6393.00,1.0781
6392.00,1.0860
6391.00,1.0936
6390.00,1.1009
6389.00,1.1081
6388.00,1.1153
6387.00,1.1222
6386.00,1.1286
6385.00,1.1345
6384.00,1.1402
6383.00,1.1456
6382.00,1.1507
6381.00,1.1555
6380.00,1.1600
6379.00,1.1644
6378.00,1.1687
6377.00,1.1724
6376.00,1.1753
6375.00,1.1776
6374.00,1.1798
6373.00,1.1820
6372.00,1.1840
6371.00,1.1857
6370.00,1.1868
6369.00,1.1876
6368.00,1.1880
6367.00,1.1879
6366.00,1.1875
6365.00,1.1868
6364.00,1.1859
6363.00,1.1851
6362.00,1.1840
6361.00,1.1823
6360.00,1.1799
6359.00,1.1769
6358.00,1.1736
6357.00,1.1702
6356.00,1.1665
6355.00,1.1624
6354.00,1.1580
6353.00,1.1537
6352.00,1.1491
6351.00,1.1440
6350.00,1.1386
6349.00,1.1329
6348.00,1.1271
6347.00,1.1210
6346.00,1.1146
6345.00,1.1080
6344.00,1.1013
6343.00,1.0943
6342.00,1.0872
6341.00,1.0800
6340.00,1.0727
6339.00,1.0652
6338.00,1.0574
6337.00,1.0494
6336.00,1.0413
6335.00,1.0329
6334.00,1.0244
6333.00,1.0157
6332.00,1.0069
6331.00,0.9979
6330.00,0.9888
6329.00,0.9793
6328.00,0.9693
6327.00,0.9589
6326.00,0.9481
6325.00,0.9372
6324.00,0.9261
6323.00,0.9148
6322.00,0.9035
6321.00,0.8922
6320.00,0.8812
6319.00,0.8703
6318.00,0.8597
6317.00,0.8493
6316.00,0.8391
6315.00,0.8290
6314.00,0.8193
6313.00,0.8101
6312.00,0.8013
6311.00,0.7930
6310.00,0.7851
6309.00,0.7778
6308.00,0.7709
6307.00,0.7645
6306.00,0.7585
6305.00,0.7529
6304.00,0.7479
6303.00,0.7434
6302.00,0.7396
6301.00,0.7364
6300.00,0.7339
6299.00,0.7320
6298.00,0.7307
6297.00,0.7301
6296.00,0.7299
6295.00,0.7301
6294.00,0.7309
6293.00,0.7323
6292.00,0.7342
6291.00,0.7366
6290.00,0.7396
6289.00,0.7431
6288.00,0.7471
6287.00,0.7514
6286.00,0.7563
6285.00,0.7617
6284.00,0.7677
6283.00,0.7741
6282.00,0.7809
6281.00,0.7879
6280.00,0.7953
6279.00,0.8029
6278.00,0.8106
6277.00,0.8187
6276.00,0.8271
6275.00,0.8359
6274.00,0.8450
6273.00,0.8541
6272.00,0.8634
6271.00,0.8729
6270.00,0.8827
6269.00,0.8924
6268.00,0.9021
6267.00,0.9117
6266.00,0.9215
6265.00,0.9313
6264.00,0.9411
6263.00,0.9507
6262.00,0.9605
6261.00,0.9705
6260.00,0.9805
6259.00,0.9903
6258.00,1.0000
6257.00,1.0095
6256.00,1.0190
6255.00,1.0283
6254.00,1.0376
6253.00,1.0469
6252.00,1.0559
6251.00,1.0647
6250.00,1.0731
6249.00,1.0813
6248.00,1.0892
6247.00,1.0969
6246.00,1.1044
6245.00,1.1119
6244.00,1.1193
6243.00,1.1264
6242.00,1.1332
6241.00,1.1398
6240.00,1.1460
6239.00,1.1518
6238.00,1.1571
6237.00,1.1622
6236.00,1.1672
6235.00,1.1718
6234.00,1.1762
6233.00,1.1803
6232.00,1.1843
6231.00,1.1878
6230.00,1.1908
6229.00,1.1933
6228.00,1.1954
6227.00,1.1973
6226.00,1.1989
6225.00,1.2002
6224.00,1.2012
6223.00,1.2019
6222.00,1.2023
6221.00,1.2024
6220.00,1.2021
6219.00,1.2014
6218.00,1.2003
6217.00,1.1986
6216.00,1.1962
6215.00,1.1933
6214.00,1.1903
6213.00,1.1873
6212.00,1.1841
6211.00,1.1807
6210.00,1.1771
6209.00,1.1731
6208.00,1.1688
6207.00,1.1640
6206.00,1.1588
6205.00,1.1533
6204.00,1.1474
6203.00,1.1410
6202.00,1.1341
6201.00,1.1267
6200.00,1.1188
6199.00,1.1106
6198.00,1.1024
6197.00,1.0941
6196.00,1.0854
6195.00,1.0761
6194.00,1.0666
6193.00,1.0570
6192.00,1.0472
6191.00,1.0371
6190.00,1.0267
6189.00,1.0163
6188.00,1.0058
6187.00,0.9952
6186.00,0.9844
6185.00,0.9735
6184.00,0.9625
6183.00,0.9514
6182.00,0.9402
6181.00,0.9290
6180.00,0.9177
6179.00,0.9065
6178.00,0.8955
6177.00,0.8845
6176.00,0.8737
6175.00,0.8630
6174.00,0.8525
6173.00,0.8422
6172.00,0.8321
6171.00,0.8223
6170.00,0.8127
6169.00,0.8035
6168.00,0.7948
6167.00,0.7864
6166.00,0.7786
6165.00,0.7712
6164.00,0.7642
6163.00,0.7576
6162.00,0.7516
6161.00,0.7462
6160.00,0.7413
6159.00,0.7370
6158.00,0.7332
6157.00,0.7301
6156.00,0.7276
6155.00,0.7255
6154.00,0.7242
6153.00,0.7237
6152.00,0.7238
6151.00,0.7243
6150.00,0.7254
6149.00,0.7271
6148.00,0.7293
6147.00,0.7320
6146.00,0.7354
6145.00,0.7395
6144.00,0.7442
6143.00,0.7494
6142.00,0.7551
6141.00,0.7612
6140.00,0.7677
6139.00,0.7745
6138.00,0.7816
6137.00,0.7891
6136.00,0.7971
6135.00,0.8053
6134.00,0.8139
6133.00,0.8228
6132.00,0.8318
6131.00,0.8409
6130.00,0.8500
6129.00,0.8594
6128.00,0.8690
6127.00,0.8787
6126.00,0.8885
6125.00,0.8984
6124.00,0.9084
6123.00,0.9185
6122.00,0.9285
6121.00,0.9386
6120.00,0.9488
6119.00,0.9590
6118.00,0.9691
6117.00,0.9791
6116.00,0.9890
6115.00,0.9988
6114.00,1.0085
6113.00,1.0181
6112.00,1.0275
6111.00,1.0365
6110.00,1.0454
6109.00,1.0542
6108.00,1.0627
6107.00,1.0709
6106.00,1.0787
6105.00,1.0866
6104.00,1.0946
6103.00,1.1023
6102.00,1.1096
6101.00,1.1164
6100.00,1.1231
6099.00,1.1294
6098.00,1.1352
6097.00,1.1404
6096.00,1.1455
6095.00,1.1506
6094.00,1.1555
6093.00,1.1600
6092.00,1.1641
6091.00,1.1676
6090.00,1.1708
6089.00,1.1736
6088.00,1.1761
6087.00,1.1783
6086.00,1.1804
6085.00,1.1823
6084.00,1.1839
6083.00,1.1851
6082.00,1.1858
6081.00,1.1861
6080.00,1.1863
6079.00,1.1862
6078.00,1.1858
6077.00,1.1849
6076.00,1.1835
6075.00,1.1816
6074.00,1.1794
6073.00,1.1767
6072.00,1.1737
6071.00,1.1703
6070.00,1.1668
6069.00,1.1632
6068.00,1.1593
6067.00,1.1550
6066.00,1.1504
6065.00,1.1455
6064.00,1.1402
6063.00,1.1345
6062.00,1.1283
6061.00,1.1217
6060.00,1.1148
6059.00,1.1077
6058.00,1.1003
6057.00,1.0927
6056.00,1.0848
6055.00,1.0768
6054.00,1.0684
6053.00,1.0598
6052.00,1.0510
6051.00,1.0419
6050.00,1.0326
6049.00,1.0230
6048.00,1.0132
6047.00,1.0033
6046.00,0.9934
6045.00,0.9833
6044.00,0.9729
6043.00,0.9624
6042.00,0.9516
6041.00,0.9409
6040.00,0.9299
6039.00,0.9188
6038.00,0.9075
6037.00,0.8964
6036.00,0.8854
6035.00,0.8743
6034.00,0.8633
6033.00,0.8524
6032.00,0.8417
6031.00,0.8314
6030.00,0.8213
6029.00,0.8114
6028.00,0.8016
6027.00,0.7920
6026.00,0.7829
6025.00,0.7742
6024.00,0.7659
6023.00,0.7580
6022.00,0.7506
6021.00,0.7438
6020.00,0.7374
6019.00,0.7314
6018.00,0.7259
6017.00,0.7211
6016.00,0.7171
6015.00,0.7138
6014.00,0.7110
6013.00,0.7087
6012.00,0.7069
6011.00,0.7057
6010.00,0.7050
6009.00,0.7051
6008.00,0.7060
6007.00,0.7076
6006.00,0.7101
6005.00,0.7132
6004.00,0.7169
6003.00,0.7210
6002.00,0.7256
6001.00,0.7306
6000.00,0.7361
5999.00,0.7420
5998.00,0.7483
5997.00,0.7551
5996.00,0.7624
5995.00,0.7700
5994.00,0.7780
5993.00,0.7865
5992.00,0.7952
5991.00,0.8041
5990.00,0.8131
5989.00,0.8223
5988.00,0.8317
5987.00,0.8413
5986.00,0.8511
5985.00,0.8612
5984.00,0.8714
5983.00,0.8818
5982.00,0.8923
5981.00,0.9030
5980.00,0.9139
5979.00,0.9246
5978.00,0.9352
5977.00,0.9458
5976.00,0.9564
5975.00,0.9668
5974.00,0.9773
5973.00,0.9876
5972.00,0.9979
5971.00,1.0079
5970.00,1.0178
5969.00,1.0276
5968.00,1.0372
5967.00,1.0469
5966.00,1.0566
5965.00,1.0662
5964.00,1.0756
5963.00,1.0848
5962.00,1.0938
5961.00,1.1026
5960.00,1.1112
5959.00,1.1195
5958.00,1.1273
5957.00,1.1347
5956.00,1.1416
5955.00,1.1481
5954.00,1.1545
5953.00,1.1606
5952.00,1.1664
5951.00,1.1715
5950.00,1.1762
5949.00,1.1804
5948.00,1.1842
5947.00,1.1877
5946.00,1.1910
5945.00,1.1941
5944.00,1.1968
5943.00,1.1990
5942.00,1.2008
5941.00,1.2022
5940.00,1.2035
5939.00,1.2045
5938.00,1.2052
5937.00,1.2056
5936.00,1.2058
5935.00,1.2055
5934.00,1.2049
5933.00,1.2040
5932.00,1.2028
5931.00,1.2013
5930.00,1.1994
5929.00,1.1970
5928.00,1.1941
5927.00,1.1906
5926.00,1.1869
5925.00,1.1829
5924.00,1.1786
5923.00,1.1741
5922.00,1.1694
5921.00,1.1644
5920.00,1.1591
5919.00,1.1533
5918.00,1.1469
5917.00,1.1400
5916.00,1.1326
5915.00,1.1248
5914.00,1.1166
5913.00,1.1083
5912.00,1.0998
5911.00,1.0910
5910.00,1.0820
5909.00,1.0727
5908.00,1.0629
5907.00,1.0526
5906.00,1.0421
5905.00,1.0315
5904.00,1.0208
5903.00,1.0099
5902.00,0.9988
5901.00,0.9875
5900.00,0.9760
5899.00,0.9643
5898.00,0.9523
5897.00,0.9403
5896.00,0.9284
5895.00,0.9165
5894.00,0.9046
5893.00,0.8928
5892.00,0.8810
5891.00,0.8692
5890.00,0.8576
5889.00,0.8461
5888.00,0.8350
5887.00,0.8240
5886.00,0.8133
5885.00,0.8029
5884.00,0.7928
5883.00,0.7830
5882.00,0.7737
5881.00,0.7647
5880.00,0.7562
5879.00,0.7483
5878.00,0.7410
5877.00,0.7341
5876.00,0.7276
5875.00,0.7216
5874.00,0.7162
5873.00,0.7115
5872.00,0.7075
5871.00,0.7043
5870.00,0.7020
5869.00,0.7005
5868.00,0.6996
5867.00,0.6993
5866.00,0.6996
5865.00,0.7005
5864.00,0.7021
5863.00,0.7044
5862.00,0.7073
5861.00,0.7109
5860.00,0.7152
5859.00,0.7200
5858.00,0.7253
5857.00,0.7313
5856.00,0.7379
5855.00,0.7450
5854.00,0.7526
5853.00,0.7607
5852.00,0.7691
5851.00,0.7777
5850.00,0.7866
5849.00,0.7958
5848.00,0.8052
5847.00,0.8149
5846.00,0.8249
5845.00,0.8353
5844.00,0.8459
5843.00,0.8565
5842.00,0.8673
5841.00,0.8781
5840.00,0.8891
5839.00,0.9000
5838.00,0.9110
5837.00,0.9220
5836.00,0.9330
5835.00,0.9440
5834.00,0.9548
5833.00,0.9654
5832.00,0.9758
5831.00,0.9860
5830.00,0.9962
5829.00,1.0062
5828.00,1.0161
5827.00,1.0260
5826.00,1.0359
5825.00,1.0457
5824.00,1.0553
5823.00,1.0646
5822.00,1.0734
5821.00,1.0819
5820.00,1.0900
5819.00,1.0980
5818.00,1.1059
5817.00,1.1138
5816.00,1.1218
5815.00,1.1296
5814.00,1.1371
5813.00,1.1442
5812.00,1.1507
5811.00,1.1568
5810.00,1.1626
5809.00,1.1683
5808.00,1.1739
5807.00,1.1791
5806.00,1.1839
5805.00,1.1884
5804.00,1.1925
5803.00,1.1960
5802.00,1.1989
5801.00,1.2013
5800.00,1.2035
5799.00,1.2056
5798.00,1.2075
5797.00,1.2090
5796.00,1.2101
5795.00,1.2109
5794.00,1.2112
5793.00,1.2112
5792.00,1.2108
5791.00,1.2103
5790.00,1.2098
5789.00,1.2090
5788.00,1.2076
5787.00,1.2057
5786.00,1.2032
5785.00,1.2000
5784.00,1.1962
5783.00,1.1922
5782.00,1.1881
5781.00,1.1841
5780.00,1.1799
5779.00,1.1752
5778.00,1.1700
5777.00,1.1643
5776.00,1.1579
5775.00,1.1511
5774.00,1.1441
5773.00,1.1371
5772.00,1.1299
5771.00,1.1222
5770.00,1.1143
5769.00,1.1058
5768.00,1.0969
5767.00,1.0875
5766.00,1.0778
5765.00,1.0679
5764.00,1.0578
5763.00,1.0474
5762.00,1.0368
5761.00,1.0259
5760.00,1.0148
5759.00,1.0034
5758.00,0.9917
5757.00,0.9797
5756.00,0.9676
5755.00,0.9554
5754.00,0.9432
5753.00,0.9310
5752.00,0.9188
5751.00,0.9065
5750.00,0.8943
5749.00,0.8821
5748.00,0.8699
5747.00,0.8578
5746.00,0.8459
5745.00,0.8342
5744.00,0.8227
5743.00,0.8114
5742.00,0.8004
5741.00,0.7897
5740.00,0.7794
5739.00,0.7694
5738.00,0.7598
5737.00,0.7507
5736.00,0.7421
5735.00,0.7339
5734.00,0.7263
5733.00,0.7193
5732.00,0.7130
5731.00,0.7072
5730.00,0.7020
5729.00,0.6975
5728.00,0.6937
5727.00,0.6906
5726.00,0.6882
5725.00,0.6866
5724.00,0.6857
5723.00,0.6855
5722.00,0.6862
5721.00,0.6875
5720.00,0.6894
5719.00,0.6919
5718.00,0.6952
5717.00,0.6990
5716.00,0.7035
5715.00,0.7087
5714.00,0.7144
5713.00,0.7206
5712.00,0.7273
5711.00,0.7343
5710.00,0.7419
5709.00,0.7501
5708.00,0.7587
5707.00,0.7676
5706.00,0.7768
5705.00,0.7862
5704.00,0.7958
5703.00,0.8055
5702.00,0.8155
5701.00,0.8258
5700.00,0.8365
5699.00,0.8472
5698.00,0.8580
5697.00,0.8690
5696.00,0.8800
5695.00,0.8910
5694.00,0.9022
5693.00,0.9134
5692.00,0.9247
5691.00,0.9360
5690.00,0.9475
5689.00,0.9590
5688.00,0.9704
5687.00,0.9815
5686.00,0.9925
5685.00,1.0035
5684.00,1.0143
5683.00,1.0249
5682.00,1.0353
5681.00,1.0458
5680.00,1.0562
5679.00,1.0664
5678.00,1.0763
5677.00,1.0857
5676.00,1.0949
5675.00,1.1038
5674.00,1.1124
5673.00,1.1206
5672.00,1.1286
5671.00,1.1363
5670.00,1.1439
5669.00,1.1511
5668.00,1.1577
5667.00,1.1641
5666.00,1.1704
5665.00,1.1766
5664.00,1.1823
5663.00,1.1875
5662.00,1.1924
5661.00,1.1970
5660.00,1.2012
5659.00,1.2050
5658.00,1.2085
5657.00,1.2118
5656.00,1.2146
5655.00,1.2170
5654.00,1.2189
5653.00,1.2206
5652.00,1.2218
5651.00,1.2226
5650.00,1.2228
5649.00,1.2225
5648.00,1.2218
5647.00,1.2211
5646.00,1.2202
5645.00,1.2192
5644.00,1.2179
5643.00,1.2161
5642.00,1.2139
5641.00,1.2112
5640.00,1.2081
5639.00,1.2045
5638.00,1.2006
5637.00,1.1963
5636.00,1.1913
5635.00,1.1857
5634.00,1.1799
5633.00,1.1739
5632.00,1.1678
5631.00,1.1614
5630.00,1.1544
5629.00,1.1469
5628.00,1.1391
5627.00,1.1308
5626.00,1.1221
5625.00,1.1131
5624.00,1.1038
5623.00,1.0941
5622.00,1.0842
5621.00,1.0740
5620.00,1.0635
5619.00,1.0527
5618.00,1.0414
5617.00,1.0296
5616.00,1.0174
5615.00,1.0051
5614.00,0.9926
5613.00,0.9802
5612.00,0.9676
5611.00,0.9549
5610.00,0.9421
5609.00,0.9292
5608.00,0.9161
5607.00,0.9031
5606.00,0.8902
5605.00,0.8773
5604.00,0.8646
5603.00,0.8520
5602.00,0.8396
5601.00,0.8273
5600.00,0.8153
5599.00,0.8036
5598.00,0.7922
5597.00,0.7812
5596.00,0.7706
5595.00,0.7604
5594.00,0.7508
5593.00,0.7416
5592.00,0.7329
5591.00,0.7248
5590.00,0.7173
5589.00,0.7105
5588.00,0.7043
5587.00,0.6989
5586.00,0.6942
5585.00,0.6903
5584.00,0.6871
5583.00,0.6846
5582.00,0.6830
5581.00,0.6823
5580.00,0.6823
5579.00,0.6831
5578.00,0.6846
5577.00,0.6869
5576.00,0.6899
5575.00,0.6936
5574.00,0.6981
5573.00,0.7032
5572.00,0.7090
5571.00,0.7154
5570.00,0.7223
5569.00,0.7298
5568.00,0.7377
5567.00,0.7462
5566.00,0.7552
5565.00,0.7647
5564.00,0.7745
5563.00,0.7846
5562.00,0.7951
5561.00,0.8059
5560.00,0.8169
5559.00,0.8280
5558.00,0.8393
5557.00,0.8509
5556.00,0.8627
5555.00,0.8745
5554.00,0.8864
5553.00,0.8985
5552.00,0.9106
5551.00,0.9227
5550.00,0.9347
5549.00,0.9468
5548.00,0.9588
5547.00,0.9707
5546.00,0.9825
5545.00,0.9943
5544.00,1.0060
5543.00,1.0177
5542.00,1.0292
5541.00,1.0407
5540.00,1.0518
5539.00,1.0627
5538.00,1.0733
5537.00,1.0836
5536.00,1.0938
5535.00,1.1037
5534.00,1.1134
5533.00,1.1228
5532.00,1.1319
5531.00,1.1404
5530.00,1.1485
5529.00,1.1566
5528.00,1.1645
5527.00,1.1722
5526.00,1.1797
5525.00,1.1870
5524.00,1.1937
5523.00,1.1998
5522.00,1.2055
5521.00,1.2108
5520.00,1.2161
5519.00,1.2211
5518.00,1.2257
5517.00,1.2298
5516.00,1.2332
5515.00,1.2361
5514.00,1.2387
5513.00,1.2409
5512.00,1.2430
5511.00,1.2449
5510.00,1.2467
5509.00,1.2482
5508.00,1.2492
5507.00,1.2494
5506.00,1.2489
5505.00,1.2479
5504.00,1.2464
5503.00,1.2446
5502.00,1.2428
5501.00,1.2409
5500.00,1.2389
5499.00,1.2362
5498.00,1.2330
5497.00,1.2293
5496.00,1.2253
5495.00,1.2208
5494.00,1.2159
5493.00,1.2104
5492.00,1.2043
5491.00,1.1977
5490.00,1.1907
5489.00,1.1837
5488.00,1.1768
5487.00,1.1697
5486.00,1.1622
5485.00,1.1541
5484.00,1.1452
5483.00,1.1358
5482.00,1.1260
5481.00,1.1161
5480.00,1.1060
5479.00,1.0957
5478.00,1.0850
5477.00,1.0740
5476.00,1.0625
5475.00,1.0505
5474.00,1.0382
5473.00,1.0256
5472.00,1.0129
5471.00,0.9998
5470.00,0.9865
5469.00,0.9731
5468.00,0.9595
5467.00,0.9457
5466.00,0.9319
5465.00,0.9182
5464.00,0.9044
5463.00,0.8906
5462.00,0.8769
5461.00,0.8632
5460.00,0.8497
5459.00,0.8363
5458.00,0.8231
5457.00,0.8103
5456.00,0.7979
5455.00,0.7858
5454.00,0.7741
5453.00,0.7629
5452.00,0.7522
5451.00,0.7421
5450.00,0.7325
5449.00,0.7234
5448.00,0.7150
5447.00,0.7072
5446.00,0.7000
5445.00,0.6936
5444.00,0.6880
5443.00,0.6832
5442.00,0.6792
5441.00,0.6762
5440.00,0.6740
5439.00,0.6728
5438.00,0.6724
5437.00,0.6728
5436.00,0.6740
5435.00,0.6761
5434.00,0.6789
5433.00,0.6823
5432.00,0.6865
5431.00,0.6913
5430.00,0.6969
5429.00,0.7032
5428.00,0.7102
5427.00,0.7178
5426.00,0.7259
5425.00,0.7345
5424.00,0.7434
5423.00,0.7530
5422.00,0.7632
5421.00,0.7740
5420.00,0.7851
5419.00,0.7964
5418.00,0.8078
5417.00,0.8194
5416.00,0.8309
5415.00,0.8427
5414.00,0.8547
5413.00,0.8669
5412.00,0.8793
5411.00,0.8918
5410.00,0.9047
5409.00,0.9177
5408.00,0.9306
5407.00,0.9436
5406.00,0.9566
5405.00,0.9696
5404.00,0.9825
5403.00,0.9952
5402.00,1.0079
5401.00,1.0205
5400.00,1.0329
5399.00,1.0451
5398.00,1.0571
5397.00,1.0688
5396.00,1.0803
5395.00,1.0916
5394.00,1.1026
5393.00,1.1135
5392.00,1.1240
5391.00,1.1341
5390.00,1.1439
5389.00,1.1531
5388.00,1.1620
5387.00,1.1706
5386.00,1.1794
5385.00,1.1881
5384.00,1.1965
5383.00,1.2044
5382.00,1.2118
5381.00,1.2186
5380.00,1.2249
5379.00,1.2308
5378.00,1.2365
5377.00,1.2418
5376.00,1.2468
5375.00,1.2511
5374.00,1.2550
5373.00,1.2585
5372.00,1.2618
5371.00,1.2650
5370.00,1.2680
5369.00,1.2708
5368.00,1.2730
5367.00,1.2749
5366.00,1.2763
5365.00,1.2773
5364.00,1.2778
5363.00,1.2780
5362.00,1.2779
5361.00,1.2775
5360.00,1.2766
5359.00,1.2751
5358.00,1.2731
5357.00,1.2707
5356.00,1.2677
5355.00,1.2641
5354.00,1.2602
5353.00,1.2562
5352.00,1.2519
5351.00,1.2471
5350.00,1.2419
5349.00,1.2364
5348.00,1.2305
5347.00,1.2241
5346.00,1.2172
5345.00,1.2100
5344.00,1.2025
5343.00,1.1945
5342.00,1.1861
5341.00,1.1773
5340.00,1.1681
5339.00,1.1585
5338.00,1.1483
5337.00,1.1378
5336.00,1.1269
5335.00,1.1158
5334.00,1.1044
5333.00,1.0925
5332.00,1.0804
5331.00,1.0681
5330.00,1.0557
5329.00,1.0429
5328.00,1.0298
5327.00,1.0164
5326.00,1.0028
5325.00,0.9890
5324.00,0.9751
5323.00,0.9611
5322.00,0.9470
5321.00,0.9328
5320.00,0.9186
5319.00,0.9043
5318.00,0.8902
5317.00,0.8762
5316.00,0.8624
5315.00,0.8488
5314.00,0.8356
5313.00,0.8227
5312.00,0.8102
5311.00,0.7981
5310.00,0.7865
5309.00,0.7754
5308.00,0.7648
5307.00,0.7547
5306.00,0.7452
5305.00,0.7363
5304.00,0.7282
5303.00,0.7208
5302.00,0.7142
5301.00,0.7084
5300.00,0.7034
5299.00,0.6994
5298.00,0.6962
5297.00,0.6941
5296.00,0.6928
5295.00,0.6924
5294.00,0.6929
5293.00,0.6942
5292.00,0.6965
5291.00,0.6996
5290.00,0.7036
5289.00,0.7083
5288.00,0.7138
5287.00,0.7199
5286.00,0.7266
5285.00,0.7341
5284.00,0.7422
5283.00,0.7509
5282.00,0.7600
5281.00,0.7697
5280.00,0.7799
5279.00,0.7905
5278.00,0.8017
5277.00,0.8133
5276.00,0.8252
5275.00,0.8373
5274.00,0.8496
5273.00,0.8622
5272.00,0.8750
5271.00,0.8880
5270.00,0.9010
5269.00,0.9141
5268.00,0.9271
5267.00,0.9399
5266.00,0.9528
5265.00,0.9657
5264.00,0.9789
5263.00,0.9922
5262.00,1.0056
5261.00,1.0189
5260.00,1.0321
5259.00,1.0449
5258.00,1.0575
5257.00,1.0700
5256.00,1.0824
5255.00,1.0947
5254.00,1.1068
5253.00,1.1186
5252.00,1.1300
5251.00,1.1408
5250.00,1.1513
5249.00,1.1614
5248.00,1.1712
5247.00,1.1807
5246.00,1.1899
5245.00,1.1989
5244.00,1.2077
5243.00,1.2162
5242.00,1.2245
5241.00,1.2324
5240.00,1.2400
5239.00,1.2472
5238.00,1.2541
5237.00,1.2607
5236.00,1.2670
5235.00,1.2729
5234.00,1.2781
5233.00,1.2827
5232.00,1.2869
5231.00,1.2906
5230.00,1.2940
5229.00,1.2970
5228.00,1.2997
5227.00,1.3020
5226.00,1.3040
5225.00,1.3055
5224.00,1.3066
5223.00,1.3072
5222.00,1.3075
5221.00,1.3077
5220.00,1.3078
5219.00,1.3077
5218.00,1.3072
5217.00,1.3061
5216.00,1.3042
5215.00,1.3016
5214.00,1.2984
5213.00,1.2950
5212.00,1.2914
5211.00,1.2878
5210.00,1.2841
5209.00,1.2800
5208.00,1.2751
5207.00,1.2695
5206.00,1.2632
5205.00,1.2565
5204.00,1.2495
5203.00,1.2424
5202.00,1.2352
5201.00,1.2278
5200.00,1.2201
5199.00,1.2120
5198.00,1.2036
5197.00,1.1947
5196.00,1.1853
5195.00,1.1752
5194.00,1.1646
5193.00,1.1537
5192.00,1.1425
5191.00,1.1308
5190.00,1.1186
5189.00,1.1058
5188.00,1.0926
5187.00,1.0790
5186.00,1.0652
5185.00,1.0512
5184.00,1.0370
5183.00,1.0223
5182.00,1.0073
5181.00,0.9919
5180.00,0.9765
5179.00,0.9609
5178.00,0.9455
5177.00,0.9300
5176.00,0.9147
5175.00,0.8995
5174.00,0.8845
5173.00,0.8697
5172.00,0.8552
5171.00,0.8410
5170.00,0.8270
5169.00,0.8134
5168.00,0.8002
5167.00,0.7876
5166.00,0.7756
5165.00,0.7642
5164.00,0.7534
5163.00,0.7432
5162.00,0.7337
5161.00,0.7250
5160.00,0.7172
5159.00,0.7103
5158.00,0.7042
5157.00,0.6990
5156.00,0.6947
5155.00,0.6912
5154.00,0.6886
5153.00,0.6871
5152.00,0.6865
5151.00,0.6869
5150.00,0.6883
5149.00,0.6906
5148.00,0.6938
5147.00,0.6978
5146.00,0.7026
5145.00,0.7083
5144.00,0.7147
5143.00,0.7219
5142.00,0.7298
5141.00,0.7385
5140.00,0.7477
5139.00,0.7574
5138.00,0.7677
5137.00,0.7786
5136.00,0.7899
5135.00,0.8017
5134.00,0.8140
5133.00,0.8265
5132.00,0.8393
5131.00,0.8523
5130.00,0.8655
5129.00,0.8790
5128.00,0.8927
5127.00,0.9065
5126.00,0.9205
5125.00,0.9346
5124.00,0.9487
5123.00,0.9628
5122.00,0.9770
5121.00,0.9911
5120.00,1.0052
5119.00,1.0190
5118.00,1.0327
5117.00,1.0463
5116.00,1.0599
5115.00,1.0735
5114.00,1.0870
5113.00,1.1002
5112.00,1.1130
5111.00,1.1255
5110.00,1.1378
5109.00,1.1499
5108.00,1.1619
5107.00,1.1735
5106.00,1.1845
5105.00,1.1950
5104.00,1.2050
5103.00,1.2149
5102.00,1.2247
5101.00,1.2344
5100.00,1.2438
5099.00,1.2527
5098.00,1.2611
5097.00,1.2689
5096.00,1.2763
5095.00,1.2833
5094.00,1.2901
5093.00,1.2965
5092.00,1.3026
5091.00,1.3083
5090.00,1.3136
5089.00,1.3184
5088.00,1.3227
5087.00,1.3266
5086.00,1.3301
5085.00,1.3334
5084.00,1.3364
5083.00,1.3390
5082.00,1.3410
5081.00,1.3426
5080.00,1.3436
5079.00,1.3441
5078.00,1.3440
5077.00,1.3436
5076.00,1.3428
5075.00,1.3417
5074.00,1.3404
5073.00,1.3388
5072.00,1.3370
5071.00,1.3346
5070.00,1.3317
5069.00,1.3282
5068.00,1.3243
5067.00,1.3201
5066.00,1.3157
5065.00,1.3110
5064.00,1.3060
5063.00,1.3005
5062.00,1.2944
5061.00,1.2879
5060.00,1.2808
5059.00,1.2733
5058.00,1.2654
5057.00,1.2571
5056.00,1.2484
5055.00,1.2393
5054.00,1.2298
5053.00,1.2198
5052.00,1.2093
5051.00,1.1984
5050.00,1.1869
5049.00,1.1751
5048.00,1.1628
5047.00,1.1500
5046.00,1.1369
5045.00,1.1234
5044.00,1.1096
5043.00,1.0955
5042.00,1.0811
5041.00,1.0664
5040.00,1.0514
5039.00,1.0362
5038.00,1.0208
5037.00,1.0053
5036.00,0.9896
5035.00,0.9738
5034.00,0.9579
5033.00,0.9419
5032.00,0.9261
5031.00,0.9104
5030.00,0.8949
5029.00,0.8796
5028.00,0.8646
5027.00,0.8499
5026.00,0.8355
5025.00,0.8217
5024.00,0.8084
5023.00,0.7956
5022.00,0.7833
5021.00,0.7718
5020.00,0.7609
5019.00,0.7507
5018.00,0.7413
5017.00,0.7329
5016.00,0.7253
5015.00,0.7187
5014.00,0.7131
5013.00,0.7085
5012.00,0.7048
5011.00,0.7022
5010.00,0.7005
5009.00,0.7000
5008.00,0.7007
5007.00,0.7023
5006.00,0.7050
5005.00,0.7086
5004.00,0.7131
5003.00,0.7185
5002.00,0.7248
5001.00,0.7320
5000.00,0.7399
4999.00,0.7485
4998.00,0.7578
4997.00,0.7678
4996.00,0.7783
4995.00,0.7894
4994.00,0.8009
4993.00,0.8129
4992.00,0.8252
4991.00,0.8380
4990.00,0.8511
4989.00,0.8645
4988.00,0.8782
4987.00,0.8922
4986.00,0.9064
4985.00,0.9208
4984.00,0.9353
4983.00,0.9499
4982.00,0.9644
4981.00,0.9790
4980.00,0.9936
4979.00,1.0080
4978.00,1.0222
4977.00,1.0363
4976.00,1.0504
4975.00,1.0646
4974.00,1.0791
4973.00,1.0937
4972.00,1.1081
4971.00,1.1220
4970.00,1.1354
4969.00,1.1485
4968.00,1.1614
4967.00,1.1740
4966.00,1.1863
4965.00,1.1982
4964.00,1.2096
4963.00,1.2206
4962.00,1.2314
4961.00,1.2419
4960.00,1.2523
4959.00,1.2624
4958.00,1.2721
4957.00,1.2815
4956.00,1.2904
4955.00,1.2988
4954.00,1.3065
4953.00,1.3138
4952.00,1.3207
4951.00,1.3272
4950.00,1.3334
4949.00,1.3394
4948.00,1.3451
4947.00,1.3505
4946.00,1.3552
4945.00,1.3593
4944.00,1.3628
4943.00,1.3657
4942.00,1.3681
4941.00,1.3703
4940.00,1.3725
4939.00,1.3746
4938.00,1.3764
4937.00,1.3777
4936.00,1.3785
4935.00,1.3787
4934.00,1.3783
4933.00,1.3772
4932.00,1.3756
4931.00,1.3735
4930.00,1.3711
4929.00,1.3685
4928.00,1.3658
4927.00,1.3626
4926.00,1.3590
4925.00,1.3550
4924.00,1.3504
4923.00,1.3455
4922.00,1.3401
4921.00,1.3344
4920.00,1.3283
4919.00,1.3216
4918.00,1.3144
4917.00,1.3068
4916.00,1.2987
4915.00,1.2902
4914.00,1.2813
4913.00,1.2721
4912.00,1.2624
4911.00,1.2523
4910.00,1.2417
4909.00,1.2306
4908.00,1.2192
4907.00,1.2074
4906.00,1.1951
4905.00,1.1822
4904.00,1.1687
4903.00,1.1547
4902.00,1.1404
4901.00,1.1257
4900.00,1.1107
4899.00,1.0955
4898.00,1.0799
4897.00,1.0640
4896.00,1.0477
4895.00,1.0313
4894.00,1.0148
4893.00,0.9982
4892.00,0.9815
4891.00,0.9649
4890.00,0.9482
4889.00,0.9316
4888.00,0.9152
4887.00,0.8989
4886.00,0.8829
4885.00,0.8672
4884.00,0.8518
4883.00,0.8369
4882.00,0.8224
4881.00,0.8086
4880.00,0.7954
4879.00,0.7827
4878.00,0.7708
4877.00,0.7597
4876.00,0.7493
4875.00,0.7398
4874.00,0.7311
4873.00,0.7233
4872.00,0.7166
4871.00,0.7108
4870.00,0.7062
4869.00,0.7026
4868.00,0.7001
4867.00,0.6987
4866.00,0.6984
4865.00,0.6992
4864.00,0.7012
4863.00,0.7042
4862.00,0.7083
4861.00,0.7135
4860.00,0.7197
4859.00,0.7268
4858.00,0.7347
4857.00,0.7435
4856.00,0.7530
4855.00,0.7633
4854.00,0.7742
4853.00,0.7857
4852.00,0.7978
4851.00,0.8105
4850.00,0.8237
4849.00,0.8375
4848.00,0.8516
4847.00,0.8660
4846.00,0.8806
4845.00,0.8954
4844.00,0.9105
4843.00,0.9258
4842.00,0.9413
4841.00,0.9569
4840.00,0.9726
4839.00,0.9883
4838.00,1.0041
4837.00,1.0199
4836.00,1.0356
4835.00,1.0510
4834.00,1.0664
4833.00,1.0815
4832.00,1.0965
4831.00,1.1114
4830.00,1.1261
4829.00,1.1408
4828.00,1.1554
4827.00,1.1697
4826.00,1.1836
4825.00,1.1971
4824.00,1.2101
4823.00,1.2227
4822.00,1.2349
4821.00,1.2468
4820.00,1.2583
4819.00,1.2696
4818.00,1.2805
4817.00,1.2910
4816.00,1.3011
4815.00,1.3108
4814.00,1.3203
4813.00,1.3295
4812.00,1.3383
4811.00,1.3464
4810.00,1.3540
4809.00,1.3611
4808.00,1.3679
4807.00,1.3743
4806.00,1.3803
4805.00,1.3857
4804.00,1.3906
4803.00,1.3949
4802.00,1.3990
4801.00,1.4029
4800.00,1.4065
4799.00,1.4096
4798.00,1.4122
4797.00,1.4143
4796.00,1.4159
4795.00,1.4172
4794.00,1.4182
4793.00,1.4187
4792.00,1.4188
4791.00,1.4185
4790.00,1.4177
4789.00,1.4164
4788.00,1.4147
4787.00,1.4126
4786.00,1.4102
4785.00,1.4075
4784.00,1.4043
4783.00,1.4007
4782.00,1.3966
4781.00,1.3921
4780.00,1.3871
4779.00,1.3817
4778.00,1.3760
4777.00,1.3698
4776.00,1.3631
4775.00,1.3560
4774.00,1.3485
4773.00,1.3406
4772.00,1.3323
4771.00,1.3235
4770.00,1.3143
4769.00,1.3045
4768.00,1.2941
4767.00,1.2832
4766.00,1.2718
4765.00,1.2599
4764.00,1.2476
4763.00,1.2347
4762.00,1.2214
4761.00,1.2076
4760.00,1.1933
4759.00,1.1787
4758.00,1.1637
4757.00,1.1483
4756.00,1.1324
4755.00,1.1162
4754.00,1.0998
4753.00,1.0832
4752.00,1.0663
4751.00,1.0490
4750.00,1.0315
4749.00,1.0137
4748.00,0.9958
4747.00,0.9780
4746.00,0.9601
4745.00,0.9425
4744.00,0.9250
4743.00,0.9077
4742.00,0.8908
4741.00,0.8743
4740.00,0.8581
4739.00,0.8425
4738.00,0.8274
4737.00,0.8129
4736.00,0.7991
4735.00,0.7860
4734.00,0.7738
4733.00,0.7626
4732.00,0.7523
4731.00,0.7430
4730.00,0.7348
4729.00,0.7277
4728.00,0.7217
4727.00,0.7168
4726.00,0.7131
4725.00,0.7107
4724.00,0.7095
4723.00,0.7095
4722.00,0.7109
4721.00,0.7134
4720.00,0.7171
4719.00,0.7219
4718.00,0.7279
4717.00,0.7349
4716.00,0.7430
4715.00,0.7519
4714.00,0.7617
4713.00,0.7724
4712.00,0.7837
4711.00,0.7958
4710.00,0.8085
4709.00,0.8217
4708.00,0.8354
4707.00,0.8496
4706.00,0.8643
4705.00,0.8794
4704.00,0.8949
4703.00,0.9107
4702.00,0.9268
4701.00,0.9430
4700.00,0.9593
4699.00,0.9757
4698.00,0.9920
4697.00,1.0084
4696.00,1.0248
4695.00,1.0412
4694.00,1.0576
4693.00,1.0740
4692.00,1.0902
4691.00,1.1063
4690.00,1.1223
4689.00,1.1380
4688.00,1.1535
4687.00,1.1688
4686.00,1.1838
4685.00,1.1986
4684.00,1.2130
4683.00,1.2271
4682.00,1.2409
4681.00,1.2543
4680.00,1.2673
4679.00,1.2799
4678.00,1.2920
4677.00,1.3038
4676.00,1.3152
4675.00,1.3262
4674.00,1.3369
4673.00,1.3471
4672.00,1.3569
4671.00,1.3662
4670.00,1.3752
4669.00,1.3836
4668.00,1.3915
4667.00,1.3988
4666.00,1.4056
4665.00,1.4121
4664.00,1.4182
4663.00,1.4240
4662.00,1.4294
4661.00,1.4343
4660.00,1.4387
4659.00,1.4427
4658.00,1.4461
4657.00,1.4490
4656.00,1.4514
4655.00,1.4534
4654.00,1.4550
4653.00,1.4562
4652.00,1.4570
4651.00,1.4574
4650.00,1.4573
4649.00,1.4569
4648.00,1.4562
4647.00,1.4550
4646.00,1.4535
4645.00,1.4516
4644.00,1.4493
4643.00,1.4466
4642.00,1.4433
4641.00,1.4393
4640.00,1.4349
4639.00,1.4299
4638.00,1.4246
4637.00,1.4189
4636.00,1.4129
4635.00,1.4065
4634.00,1.3996
4633.00,1.3923
4632.00,1.3845
4631.00,1.3763
4630.00,1.3675
4629.00,1.3583
4628.00,1.3486
4627.00,1.3386
4626.00,1.3281
4625.00,1.3171
4624.00,1.3057
4623.00,1.2937
4622.00,1.2812
4621.00,1.2683
4620.00,1.2550
4619.00,1.2413
4618.00,1.2272
4617.00,1.2129
4616.00,1.1981
4615.00,1.1830
4614.00,1.1675
4613.00,1.1515
4612.00,1.1352
4611.00,1.1186
4610.00,1.1017
4609.00,1.0845
4608.00,1.0669
4607.00,1.0491
4606.00,1.0310
4605.00,1.0127
4604.00,0.9943
4603.00,0.9759
4602.00,0.9577
4601.00,0.9397
4600.00,0.9217
4599.00,0.9040
4598.00,0.8866
4597.00,0.8696
4596.00,0.8533
4595.00,0.8376
4594.00,0.8226
4593.00,0.8084
4592.00,0.7950
4591.00,0.7825
4590.00,0.7710
4589.00,0.7605
4588.00,0.7510
4587.00,0.7427
4586.00,0.7357
4585.00,0.7300
4584.00,0.7257
4583.00,0.7226
4582.00,0.7209
4581.00,0.7204
4580.00,0.7212
4579.00,0.7233
4578.00,0.7268
4577.00,0.7315
4576.00,0.7374
4575.00,0.7445
4574.00,0.7527
4573.00,0.7620
4572.00,0.7722
4571.00,0.7834
4570.00,0.7953
4569.00,0.8081
4568.00,0.8216
4567.00,0.8356
4566.00,0.8501
4565.00,0.8652
4564.00,0.8807
4563.00,0.8967
4562.00,0.9130
4561.00,0.9297
4560.00,0.9466
4559.00,0.9636
4558.00,0.9807
4557.00,0.9981
4556.00,1.0156
4555.00,1.0332
4554.00,1.0507
4553.00,1.0682
4552.00,1.0856
4551.00,1.1029
4550.00,1.1201
4549.00,1.1372
4548.00,1.1542
4547.00,1.1709
4546.00,1.1873
4545.00,1.2033
4544.00,1.2190
4543.00,1.2343
4542.00,1.2494
4541.00,1.2642
4540.00,1.2787
4539.00,1.2929
4538.00,1.3065
4537.00,1.3195
4536.00,1.3320
4535.00,1.3442
4534.00,1.3562
4533.00,1.3679
4532.00,1.3792
4531.00,1.3901
4530.00,1.4004
4529.00,1.4103
4528.00,1.4198
4527.00,1.4287
4526.00,1.4370
4525.00,1.4447
4524.00,1.4518
4523.00,1.4584
4522.00,1.4647
4521.00,1.4706
4520.00,1.4762
4519.00,1.4813
4518.00,1.4861
4517.00,1.4905
4516.00,1.4946
4515.00,1.4983
4514.00,1.5013
4513.00,1.5038
4512.00,1.5057
4511.00,1.5073
4510.00,1.5086
4509.00,1.5095
4508.00,1.5098
4507.00,1.5096
4506.00,1.5087
4505.00,1.5075
4504.00,1.5061
4503.00,1.5045
4502.00,1.5024
4501.00,1.4998
4500.00,1.4967
4499.00,1.4931
4498.00,1.4889
4497.00,1.4842
4496.00,1.4790
4495.00,1.4735
4494.00,1.4676
4493.00,1.4614
4492.00,1.4548
4491.00,1.4478
4490.00,1.4402
4489.00,1.4322
4488.00,1.4236
4487.00,1.4144
4486.00,1.4047
4485.00,1.3946
4484.00,1.3843
4483.00,1.3738
4482.00,1.3629
4481.00,1.3512
4480.00,1.3387
4479.00,1.3255
4478.00,1.3118
4477.00,1.2979
4476.00,1.2837
4475.00,1.2691
4474.00,1.2539
4473.00,1.2381
4472.00,1.2220
4471.00,1.2053
4470.00,1.1883
4469.00,1.1709
4468.00,1.1532
4467.00,1.1353
4466.00,1.1173
4465.00,1.0992
4464.00,1.0810
4463.00,1.0628
4462.00,1.0447
4461.00,1.0270
4460.00,1.0096
4459.00,0.9926
4458.00,0.9760
4457.00,0.9601
4456.00,0.9449
4455.00,0.9305
4454.00,0.9172
4453.00,0.9049
4452.00,0.8936
4451.00,0.8834
4450.00,0.8744
4449.00,0.8666
4448.00,0.8600
4447.00,0.8548
4446.00,0.8508
4445.00,0.8481
4444.00,0.8464
4443.00,0.8456
4442.00,0.8455
4441.00,0.8461
4440.00,0.8471
4439.00,0.8484
4438.00,0.8499
4437.00,0.8515
4436.00,0.8530
4435.00,0.8545
4434.00,0.8562
4433.00,0.8583
4432.00,0.8609
4431.00,0.8643
4430.00,0.8684
4429.00,0.8736
4428.00,0.8798
4427.00,0.8873
4426.00,0.8958
4425.00,0.9056
4424.00,0.9164
4423.00,0.9282
4422.00,0.9411
4421.00,0.9548
4420.00,0.9694
4419.00,0.9846
4418.00,1.0005
4417.00,1.0170
4416.00,1.0339
4415.00,1.0512
4414.00,1.0688
4413.00,1.0867
4412.00,1.1047
4411.00,1.1228
4410.00,1.1409
4409.00,1.1591
4408.00,1.1772
4407.00,1.1953
4406.00,1.2131
4405.00,1.2307
4404.00,1.2478
4403.00,1.2646
4402.00,1.2811
4401.00,1.2971
4400.00,1.3126
4399.00,1.3275
4398.00,1.3418
4397.00,1.3553
4396.00,1.3683
4395.00,1.3807
4394.00,1.3927
4393.00,1.4043
4392.00,1.4156
4391.00,1.4265
4390.00,1.4372
4389.00,1.4475
4388.00,1.4574
4387.00,1.4668
4386.00,1.4756
4385.00,1.4840
4384.00,1.4921
4383.00,1.4999
4382.00,1.5076
4381.00,1.5151
4380.00,1.5221
4379.00,1.5288
4378.00,1.5348
4377.00,1.5404
4376.00,1.5454
4375.00,1.5502
4374.00,1.5547
4373.00,1.5588
4372.00,1.5627
4371.00,1.5661
4370.00,1.5691
4369.00,1.5716
4368.00,1.5736
4367.00,1.5750
4366.00,1.5760
4365.00,1.5767
4364.00,1.5771
4363.00,1.5771
4362.00,1.5766
4361.00,1.5755
4360.00,1.5740
4359.00,1.5721
4358.00,1.5699
4357.00,1.5672
4356.00,1.5639
4355.00,1.5602
4354.00,1.5561
4353.00,1.5519
4352.00,1.5475
4351.00,1.5427
4350.00,1.5375
4349.00,1.5317
4348.00,1.5253
4347.00,1.5184
4346.00,1.5110
4345.00,1.5029
4344.00,1.4942
4343.00,1.4849
4342.00,1.4752
4341.00,1.4652
4340.00,1.4550
4339.00,1.4443
4338.00,1.4331
4337.00,1.4213
4336.00,1.4090
4335.00,1.3963
4334.00,1.3830
4333.00,1.3690
4332.00,1.3543
4331.00,1.3389
4330.00,1.3230
4329.00,1.3068
4328.00,1.2904
4327.00,1.2737
4326.00,1.2568
4325.00,1.2395
4324.00,1.2219
4323.00,1.2039
4322.00,1.1854
4321.00,1.1665
4320.00,1.1472
4319.00,1.1276
4318.00,1.1077
4317.00,1.0875
4316.00,1.0669
4315.00,1.0460
4314.00,1.0249
4313.00,1.0037
4312.00,0.9826
4311.00,0.9618
4310.00,0.9414
4309.00,0.9216
4308.00,0.9025
4307.00,0.8842
4306.00,0.8668
4305.00,0.8503
4304.00,0.8349
4303.00,0.8207
4302.00,0.8077
4301.00,0.7962
4300.00,0.7860
4299.00,0.7773
4298.00,0.7702
4297.00,0.7646
4296.00,0.7606
4295.00,0.7582
4294.00,0.7574
4293.00,0.7582
4292.00,0.7606
4291.00,0.7645
4290.00,0.7699
4289.00,0.7766
4288.00,0.7847
4287.00,0.7941
4286.00,0.8046
4285.00,0.8162
4284.00,0.8288
4283.00,0.8423
4282.00,0.8567
4281.00,0.8718
4280.00,0.8876
4279.00,0.9041
4278.00,0.9212
4277.00,0.9387
4276.00,0.9567
4275.00,0.9750
4274.00,0.9936
4273.00,1.0123
4272.00,1.0312
4271.00,1.0502
4270.00,1.0693
4269.00,1.0885
4268.00,1.1078
4267.00,1.1270
4266.00,1.1462
4265.00,1.1653
4264.00,1.1842
4263.00,1.2030
4262.00,1.2215
4261.00,1.2397
4260.00,1.2576
4259.00,1.2753
4258.00,1.2928
4257.00,1.3098
4256.00,1.3264
4255.00,1.3425
4254.00,1.3581
4253.00,1.3735
4252.00,1.3884
4251.00,1.4030
4250.00,1.4171
4249.00,1.4305
4248.00,1.4434
4247.00,1.4558
4246.00,1.4677
4245.00,1.4792
4244.00,1.4903
4243.00,1.5007
4242.00,1.5106
4241.00,1.5200
4240.00,1.5289
4239.00,1.5374
4238.00,1.5454
4237.00,1.5530
4236.00,1.5600
4235.00,1.5664
4234.00,1.5724
4233.00,1.5779
4232.00,1.5830
4231.00,1.5876
4230.00,1.5917
4229.00,1.5954
4228.00,1.5987
4227.00,1.6016
4226.00,1.6041
4225.00,1.6063
4224.00,1.6082
4223.00,1.6095
4222.00,1.6103
4221.00,1.6103
4220.00,1.6099
4219.00,1.6092
4218.00,1.6084
4217.00,1.6072
4216.00,1.6055
4215.00,1.6030
4214.00,1.5999
4213.00,1.5965
4212.00,1.5928
4211.00,1.5888
4210.00,1.5844
4209.00,1.5795
4208.00,1.5742
4207.00,1.5686
4206.00,1.5625
4205.00,1.5559
4204.00,1.5487
4203.00,1.5409
4202.00,1.5323
4201.00,1.5234
4200.00,1.5140
4199.00,1.5043
4198.00,1.4940
4197.00,1.4831
4196.00,1.4716
4195.00,1.4595
4194.00,1.4469
4193.00,1.4339
4192.00,1.4204
4191.00,1.4063
4190.00,1.3915
4189.00,1.3760
4188.00,1.3599
4187.00,1.3432
4186.00,1.3259
4185.00,1.3080
4184.00,1.2896
4183.00,1.2705
4182.00,1.2509
4181.00,1.2307
4180.00,1.2101
4179.00,1.1890
4178.00,1.1675
4177.00,1.1456
4176.00,1.1234
4175.00,1.1011
4174.00,1.0786
4173.00,1.0563
4172.00,1.0340
4171.00,1.0120
4170.00,0.9902
4169.00,0.9689
4168.00,0.9480
4167.00,0.9277
4166.00,0.9080
4165.00,0.8893
4164.00,0.8715
4163.00,0.8548
4162.00,0.8393
4161.00,0.8250
4160.00,0.8121
4159.00,0.8005
4158.00,0.7904
4157.00,0.7818
4156.00,0.7749
4155.00,0.7696
4154.00,0.7661
4153.00,0.7642
4152.00,0.7641
4151.00,0.7657
4150.00,0.7691
4149.00,0.7741
4148.00,0.7807
4147.00,0.7887
4146.00,0.7983
4145.00,0.8092
4144.00,0.8213
4143.00,0.8346
4142.00,0.8489
4141.00,0.8643
4140.00,0.8805
4139.00,0.8975
4138.00,0.9153
4137.00,0.9336
4136.00,0.9524
4135.00,0.9717
4134.00,0.9913
4133.00,1.0112
4132.00,1.0315
4131.00,1.0519
4130.00,1.0724
4129.00,1.0931
4128.00,1.1139
4127.00,1.1346
4126.00,1.1553
4125.00,1.1758
4124.00,1.1962
4123.00,1.2164
4122.00,1.2365
4121.00,1.2563
4120.00,1.2757
4119.00,1.2947
4118.00,1.3133
4117.00,1.3317
4116.00,1.3500
4115.00,1.3679
4114.00,1.3852
4113.00,1.4019
4112.00,1.4180
4111.00,1.4336
4110.00,1.4487
4109.00,1.4633
4108.00,1.4774
4107.00,1.4909
4106.00,1.5041
4105.00,1.5169
4104.00,1.5291
4103.00,1.5407
4102.00,1.5516
4101.00,1.5620
4100.00,1.5721
4099.00,1.5818
4098.00,1.5908
4097.00,1.5991
4096.00,1.6067
4095.00,1.6139
4094.00,1.6207
4093.00,1.6270
4092.00,1.6327
4091.00,1.6377
4090.00,1.6422
4089.00,1.6464
4088.00,1.6504
4087.00,1.6540
4086.00,1.6572
4085.00,1.6602
4084.00,1.6628
4083.00,1.6649
4082.00,1.6666
4081.00,1.6678
4080.00,1.6688
4079.00,1.6693
4078.00,1.6693
4077.00,1.6686
4076.00,1.6672
4075.00,1.6652
4074.00,1.6629
4073.00,1.6604
4072.00,1.6578
4071.00,1.6549
4070.00,1.6517
4069.00,1.6479
4068.00,1.6436
4067.00,1.6386
4066.00,1.6330
4065.00,1.6269
4064.00,1.6202
4063.00,1.6129
4062.00,1.6053
4061.00,1.5975
4060.00,1.5895
4059.00,1.5810
4058.00,1.5718
4057.00,1.5620
4056.00,1.5517
4055.00,1.5408
4054.00,1.5294
4053.00,1.5173
4052.00,1.5045
4051.00,1.4912
4050.00,1.4773
4049.00,1.4628
4048.00,1.4477
4047.00,1.4319
4046.00,1.4155
4045.00,1.3985
4044.00,1.3811
4043.00,1.3632
4042.00,1.3448
4041.00,1.3260
4040.00,1.3069
4039.00,1.2874
4038.00,1.2677
4037.00,1.2478
4036.00,1.2278
4035.00,1.2076
4034.00,1.1875
4033.00,1.1674
4032.00,1.1472
4031.00,1.1270
4030.00,1.1067
4029.00,1.0864
4028.00,1.0660
4027.00,1.0456
4026.00,1.0251
4025.00,1.0046
4024.00,0.9842
4023.00,0.9642
4022.00,0.9446
4021.00,0.9257
4020.00,0.9076
4019.00,0.8904
4018.00,0.8742
4017.00,0.8594
4016.00,0.8460
4015.00,0.8342
4014.00,0.8241
4013.00,0.8157
4012.00,0.8092
4011.00,0.8045
4010.00,0.8018
4009.00,0.8011
4008.00,0.8023
4007.00,0.8054
4006.00,0.8104
4005.00,0.8173
4004.00,0.8259
4003.00,0.8362
4002.00,0.8481
4001.00,0.8614
4000.00,0.8760
3999.00,0.8917
3998.00,0.9085
3997.00,0.9262
3996.00,0.9449
3995.00,0.9642
3994.00,0.9842
3993.00,1.0047
3992.00,1.0257
3991.00,1.0471
3990.00,1.0690
3989.00,1.0912
3988.00,1.1135
3987.00,1.1359
3986.00,1.1582
3985.00,1.1803
3984.00,1.2025
3983.00,1.2245
3982.00,1.2464
3981.00,1.2681
3980.00,1.2894
3979.00,1.3102
3978.00,1.3303
3977.00,1.3498
3976.00,1.3688
3975.00,1.3873
3974.00,1.4051
3973.00,1.4223
3972.00,1.4388
3971.00,1.4549
3970.00,1.4706
3969.00,1.4860
3968.00,1.5011
3967.00,1.5157
3966.00,1.5297
3965.00,1.5431
3964.00,1.5561
3963.00,1.5686
3962.00,1.5809
3961.00,1.5927
3960.00,1.6040
3959.00,1.6149
3958.00,1.6253
3957.00,1.6353
3956.00,1.6447
3955.00,1.6535
3954.00,1.6615
3953.00,1.6688
3952.00,1.6757
3951.00,1.6822
3950.00,1.6885
3949.00,1.6947
3948.00,1.7007
3947.00,1.7066
3946.00,1.7120
3945.00,1.7165
3944.00,1.7202
3943.00,1.7233
3942.00,1.7261
3941.00,1.7285
3940.00,1.7305
3939.00,1.7319
3938.00,1.7328
3937.00,1.7334
3936.00,1.7337
3935.00,1.7336
3934.00,1.7328
3933.00,1.7313
3932.00,1.7295
3931.00,1.7276
3930.00,1.7256
3929.00,1.7231
3928.00,1.7197
3927.00,1.7156
3926.00,1.7111
3925.00,1.7065
3924.00,1.7016
3923.00,1.6963
3922.00,1.6903
3921.00,1.6838
3920.00,1.6769
3919.00,1.6699
3918.00,1.6625
3917.00,1.6546
3916.00,1.6459
3915.00,1.6363
3914.00,1.6257
3913.00,1.6145
3912.00,1.6029
3911.00,1.5910
3910.00,1.5788
3909.00,1.5662
3908.00,1.5531
3907.00,1.5394
3906.00,1.5250
3905.00,1.5097
3904.00,1.4935
3903.00,1.4764
3902.00,1.4585
3901.00,1.4397
3900.00,1.4202
3899.00,1.3998
3898.00,1.3786
3897.00,1.3569
3896.00,1.3347
3895.00,1.3122
3894.00,1.2890
3893.00,1.2650
3892.00,1.2399
3891.00,1.2139
3890.00,1.1879
3889.00,1.1625
3888.00,1.1377
3887.00,1.1124
3886.00,1.0860
3885.00,1.0593
3884.00,1.0334
3883.00,1.0086
3882.00,0.9846
3881.00,0.9607
3880.00,0.9374
3879.00,0.9155
3878.00,0.8956
3877.00,0.8776
3876.00,0.8610
3875.00,0.8455
3874.00,0.8315
3873.00,0.8196
3872.00,0.8098
3871.00,0.8019
3870.00,0.7957
3869.00,0.7912
3868.00,0.7888
3867.00,0.7888
3866.00,0.7915
3865.00,0.7968
3864.00,0.8043
3863.00,0.8133
3862.00,0.8238
3861.00,0.8359
3860.00,0.8496
3859.00,0.8646
3858.00,0.8801
3857.00,0.8959
3856.00,0.9124
3855.00,0.9310
3854.00,0.9533
3853.00,0.9796
3852.00,1.0073
3851.00,1.0328
3850.00,1.0551
3849.00,1.0758
3848.00,1.0965
3847.00,1.1178
3846.00,1.1398
3845.00,1.1627
3844.00,1.1861
3843.00,1.2099
3842.00,1.2334
3841.00,1.2562
3840.00,1.2785
3839.00,1.3006
3838.00,1.3235
3837.00,1.3471
3836.00,1.3707
3835.00,1.3938
3834.00,1.4160
3833.00,1.4375
3832.00,1.4585
3831.00,1.4789
3830.00,1.4984
3829.00,1.5168
3828.00,1.5339
3827.00,1.5502
3826.00,1.5660
3825.00,1.5810
3824.00,1.5952
3823.00,1.6087
3822.00,1.6224
3821.00,1.6369
3820.00,1.6514
3819.00,1.6643
3818.00,1.6753
3817.00,1.6855
3816.00,1.6955
3815.00,1.7052
3814.00,1.7146
3813.00,1.7235
3812.00,1.7319
3811.00,1.7400
3810.00,1.7477
3809.00,1.7547
3808.00,1.7607
3807.00,1.7660
3806.00,1.7710
3805.00,1.7756
3804.00,1.7796
3803.00,1.7831
3802.00,1.7865
3801.00,1.7894
3800.00,1.7911
3799.00,1.7919
3798.00,1.7925
3797.00,1.7938
3796.00,1.7953
3795.00,1.7964
3794.00,1.7969
3793.00,1.7965
3792.00,1.7954
3791.00,1.7939
3790.00,1.7924
3789.00,1.7908
3788.00,1.7886
3787.00,1.7854
3786.00,1.7814
3785.00,1.7768
3784.00,1.7717
3783.00,1.7663
3782.00,1.7607
3781.00,1.7549
3780.00,1.7485
3779.00,1.7414
3778.00,1.7337
3777.00,1.7252
3776.00,1.7161
3775.00,1.7067
3774.00,1.6972
3773.00,1.6873
3772.00,1.6765
3771.00,1.6646
3770.00,1.6519
3769.00,1.6385
3768.00,1.6247
3767.00,1.6105
3766.00,1.5956
3765.00,1.5800
3764.00,1.5636
3763.00,1.5467
3762.00,1.5293
3761.00,1.5107
3760.00,1.4907
3759.00,1.4697
3758.00,1.4481
3757.00,1.4260
3756.00,1.4038
3755.00,1.3815
3754.00,1.3587
3753.00,1.3345
3752.00,1.3083
3751.00,1.2796
3750.00,1.2494
3749.00,1.2192
3748.00,1.1911
3747.00,1.1656
3746.00,1.1407
3745.00,1.1137
3744.00,1.0848
3743.00,1.0567
3742.00,1.0314
3741.00,1.0081
3740.00,0.9857
3739.00,0.9640
3738.00,0.9436
3737.00,0.9241
3736.00,0.9050
3735.00,0.8868
3734.00,0.8701
3733.00,0.8550
3732.00,0.8413
3731.00,0.8294
3730.00,0.8202
3729.00,0.8137
3728.00,0.8099
3727.00,0.8093
3726.00,0.8116
3725.00,0.8160
3724.00,0.8225
3723.00,0.8316
3722.00,0.8434
3721.00,0.8582
3720.00,0.8747
3719.00,0.8947
3718.00,0.9145
3717.00,0.9422
3716.00,0.9726
3715.00,0.9925
3714.00,1.0165
3713.00,1.0403
3712.00,1.0673
3711.00,1.0955
3710.00,1.1241
3709.00,1.1523
3708.00,1.1796
3707.00,1.2078
3706.00,1.2320
3705.00,1.2530
3704.00,1.2781
3703.00,1.3023
3702.00,1.3284
3701.00,1.3555
3700.00,1.3832
3699.00,1.4102
3698.00,1.4358
3697.00,1.4605
3696.00,1.4843
3695.00,1.5075
3694.00,1.5298
3693.00,1.5515
3692.00,1.5725
3691.00,1.5930
3690.00,1.6133
3689.00,1.6335
3688.00,1.6539
3687.00,1.6736
3686.00,1.6925
3685.00,1.7098
3684.00,1.7255
3683.00,1.7397
3682.00,1.7530
3681.00,1.7657
3680.00,1.7779
3679.00,1.7896
3678.00,1.8003
3677.00,1.8105
3676.00,1.8208
3675.00,1.8314
3674.00,1.8414
3673.00,1.8500
3672.00,1.8576
3671.00,1.8645
3670.00,1.8709
3669.00,1.8769
3668.00,1.8824
3667.00,1.8873
3666.00,1.8917
3665.00,1.8957
3664.00,1.8994
3663.00,1.9029
3662.00,1.9062
3661.00,1.9090
3660.00,1.9112
3659.00,1.9128
3658.00,1.9142
3657.00,1.9157
3656.00,1.9171
3655.00,1.9181
3654.00,1.9185
3653.00,1.9185
3652.00,1.9184
3651.00,1.9179
3650.00,1.9167
3649.00,1.9145
3648.00,1.9111
3647.00,1.9068
3646.00,1.9027
3645.00,1.8997
3644.00,1.8969
3643.00,1.8937
3642.00,1.8897
3641.00,1.8858
3640.00,1.8822
3639.00,1.8786
3638.00,1.8743
3637.00,1.8687
3636.00,1.8621
3635.00,1.8548
3634.00,1.8474
3633.00,1.8399
3632.00,1.8323
3631.00,1.8242
3630.00,1.8154
3629.00,1.8056
3628.00,1.7952
3627.00,1.7840
3626.00,1.7718
3625.00,1.7590
3624.00,1.7461
3623.00,1.7337
3622.00,1.7218
3621.00,1.7100
3620.00,1.6978
3619.00,1.6849
3618.00,1.6717
3617.00,1.6585
3616.00,1.6452
3615.00,1.6313
3614.00,1.6147
3613.00,1.5942
3612.00,1.5709
3611.00,1.5494
3610.00,1.5329
3609.00,1.5210
3608.00,1.5098
3607.00,1.4953
3606.00,1.4770
3605.00,1.4567
3604.00,1.4360
3603.00,1.4154
3602.00,1.3948
3601.00,1.3745
3600.00,1.3544
3599.00,1.3347
3598.00,1.3153
3597.00,1.2966
3596.00,1.2786
3595.00,1.2613
3594.00,1.2448
3593.00,1.2294
3592.00,1.2151
3591.00,1.2021
3590.00,1.1903
3589.00,1.1798
3588.00,1.1705
3587.00,1.1623
3586.00,1.1553
3585.00,1.1494
3584.00,1.1449
3583.00,1.1421
3582.00,1.1410
3581.00,1.1417
3580.00,1.1444
3579.00,1.1494
3578.00,1.1563
3577.00,1.1649
3576.00,1.1750
3575.00,1.1866
3574.00,1.1996
3573.00,1.2137
3572.00,1.2285
3571.00,1.2439
3570.00,1.2602
3569.00,1.2776
3568.00,1.2965
3567.00,1.3166
3566.00,1.3373
3565.00,1.3576
3564.00,1.3772
3563.00,1.3964
3562.00,1.4155
3561.00,1.4350
3560.00,1.4549
3559.00,1.4752
3558.00,1.4954
3557.00,1.5153
3556.00,1.5347
3555.00,1.5537
3554.00,1.5726
3553.00,1.5913
3552.00,1.6098
3551.00,1.6277
3550.00,1.6449
3549.00,1.6614
3548.00,1.6776
3547.00,1.6936
3546.00,1.7093
3545.00,1.7246
3544.00,1.7393
3543.00,1.7532
3542.00,1.7667
3541.00,1.7797
3540.00,1.7924
3539.00,1.8045
3538.00,1.8161
3537.00,1.8271
3536.00,1.8376
3535.00,1.8479
3534.00,1.8578
3533.00,1.8674
3532.00,1.8765
3531.00,1.8852
3530.00,1.8934
3529.00,1.9010
3528.00,1.9081
3527.00,1.9146
3526.00,1.9206
3525.00,1.9264
3524.00,1.9325
3523.00,1.9387
3522.00,1.9448
3521.00,1.9504
3520.00,1.9553
3519.00,1.9597
3518.00,1.9636
3517.00,1.9673
3516.00,1.9707
3515.00,1.9736
3514.00,1.9760
3513.00,1.9781
3512.00,1.9796
3511.00,1.9806
3510.00,1.9811
3509.00,1.9813
3508.00,1.9812
3507.00,1.9809
3506.00,1.9803
3505.00,1.9792
3504.00,1.9778
3503.00,1.9762
3502.00,1.9745
3501.00,1.9726
3500.00,1.9701
3499.00,1.9665
3498.00,1.9622
3497.00,1.9577
3496.00,1.9531
3495.00,1.9482
3494.00,1.9427
3493.00,1.9367
3492.00,1.9303
3491.00,1.9235
3490.00,1.9166
3489.00,1.9095
3488.00,1.9022
3487.00,1.8941
3486.00,1.8851
3485.00,1.8752
3484.00,1.8647
3483.00,1.8538
3482.00,1.8429
3481.00,1.8319
3480.00,1.8203
3479.00,1.8077
3478.00,1.7939
3477.00,1.7795
3476.00,1.7647
3475.00,1.7494
3474.00,1.7334
3473.00,1.7168
3472.00,1.6996
3471.00,1.6819
3470.00,1.6635
3469.00,1.6445
3468.00,1.6245
3467.00,1.6036
3466.00,1.5818
3465.00,1.5594
3464.00,1.5365
3463.00,1.5130
3462.00,1.4890
3461.00,1.4645
3460.00,1.4396
3459.00,1.4141
3458.00,1.3885
3457.00,1.3627
3456.00,1.3371
3455.00,1.3117
3454.00,1.2866
3453.00,1.2619
3452.00,1.2379
3451.00,1.2147
3450.00,1.1924
3449.00,1.1712
3448.00,1.1513
3447.00,1.1327
3446.00,1.1157
3445.00,1.1003
3444.00,1.0870
3443.00,1.0757
3442.00,1.0665
3441.00,1.0595
3440.00,1.0548
3439.00,1.0524
3438.00,1.0523
3437.00,1.0545
3436.00,1.0590
3435.00,1.0657
3434.00,1.0744
3433.00,1.0851
3432.00,1.0975
3431.00,1.1116
3430.00,1.1273
3429.00,1.1444
3428.00,1.1629
3427.00,1.1824
3426.00,1.2029
3425.00,1.2243
3424.00,1.2463
3423.00,1.2691
3422.00,1.2924
3421.00,1.3163
3420.00,1.3405
3419.00,1.3649
3418.00,1.3893
3417.00,1.4137
3416.00,1.4378
3415.00,1.4619
3414.00,1.4859
3413.00,1.5098
3412.00,1.5336
3411.00,1.5570
3410.00,1.5800
3409.00,1.6022
3408.00,1.6239
3407.00,1.6449
3406.00,1.6653
3405.00,1.6851
3404.00,1.7044
3403.00,1.7231
3402.00,1.7413
3401.00,1.7588
3400.00,1.7755
3399.00,1.7915
3398.00,1.8068
3397.00,1.8215
3396.00,1.8356
3395.00,1.8492
3394.00,1.8625
3393.00,1.8754
3392.00,1.8877
3391.00,1.8991
3390.00,1.9094
3389.00,1.9189
3388.00,1.9282
3387.00,1.9376
3386.00,1.9471
3385.00,1.9565
3384.00,1.9652
3383.00,1.9730
3382.00,1.9803
3381.00,1.9873
3380.00,1.9937
3379.00,1.9994
3378.00,2.0046
3377.00,2.0096
3376.00,2.0144
3375.00,2.0188
3374.00,2.0225
3373.00,2.0255
3372.00,2.0280
3371.00,2.0301
3370.00,2.0319
3369.00,2.0335
3368.00,2.0348
3367.00,2.0358
3366.00,2.0364
3365.00,2.0364
3364.00,2.0359
3363.00,2.0349
3362.00,2.0335
3361.00,2.0315
3360.00,2.0290
3359.00,2.0260
3358.00,2.0226
3357.00,2.0189
3356.00,2.0148
3355.00,2.0102
3354.00,2.0051
3353.00,1.9997
3352.00,1.9941
3351.00,1.9886
3350.00,1.9826
3349.00,1.9757
3348.00,1.9677
3347.00,1.9588
3346.00,1.9494
3345.00,1.9398
3344.00,1.9299
3343.00,1.9197
3342.00,1.9091
3341.00,1.8980
3340.00,1.8865
3339.00,1.8743
3338.00,1.8614
3337.00,1.8474
3336.00,1.8327
3335.00,1.8174
3334.00,1.8017
3333.00,1.7855
3332.00,1.7687
3331.00,1.7511
3330.00,1.7327
3329.00,1.7137
3328.00,1.6941
3327.00,1.6739
3326.00,1.6531
3325.00,1.6315
3324.00,1.6091
3323.00,1.5860
3322.00,1.5621
3321.00,1.5376
3320.00,1.5124
3319.00,1.4867
3318.00,1.4604
3317.00,1.4337
3316.00,1.4068
3315.00,1.3797
3314.00,1.3526
3313.00,1.3258
3312.00,1.2993
3311.00,1.2734
3310.00,1.2485
3309.00,1.2246
3308.00,1.2020
3307.00,1.1807
3306.00,1.1611
3305.00,1.1432
3304.00,1.1273
3303.00,1.1136
3302.00,1.1020
3301.00,1.0928
3300.00,1.0859
3299.00,1.0815
3298.00,1.0795
3297.00,1.0799
3296.00,1.0827
3295.00,1.0879
3294.00,1.0953
3293.00,1.1049
3292.00,1.1165
3291.00,1.1300
3290.00,1.1452
3289.00,1.1620
3288.00,1.1802
3287.00,1.1997
3286.00,1.2202
3285.00,1.2416
3284.00,1.2638
3283.00,1.2868
3282.00,1.3104
3281.00,1.3345
3280.00,1.3590
3279.00,1.3837
3278.00,1.4087
3277.00,1.4339
3276.00,1.4591
3275.00,1.4843
3274.00,1.5092
3273.00,1.5339
3272.00,1.5584
3271.00,1.5826
3270.00,1.6064
3269.00,1.6300
3268.00,1.6532
3267.00,1.6758
3266.00,1.6979
3265.00,1.7195
3264.00,1.7404
3263.00,1.7607
3262.00,1.7805
3261.00,1.7998
3260.00,1.8186
3259.00,1.8368
3258.00,1.8541
3257.00,1.8705
3256.00,1.8860
3255.00,1.9009
3254.00,1.9151
3253.00,1.9286
3252.00,1.9416
3251.00,1.9540
3250.00,1.9661
3249.00,1.9780
3248.00,1.9892
3247.00,1.9996
3246.00,2.0091
3245.00,2.0180
3244.00,2.0262
3243.00,2.0337
3242.00,2.0406
3241.00,2.0471
3240.00,2.0536
3239.00,2.0601
3238.00,2.0669
3237.00,2.0736
3236.00,2.0794
3235.00,2.0840
3234.00,2.0877
3233.00,2.0907
3232.00,2.0936
3231.00,2.0963
3230.00,2.0988
3229.00,2.1010
3228.00,2.1026
3227.00,2.1033
3226.00,2.1032
3225.00,2.1027
3224.00,2.1024
3223.00,2.1022
3222.00,2.1022
3221.00,2.1021
3220.00,2.1013
3219.00,2.0992
3218.00,2.0958
3217.00,2.0919
3216.00,2.0878
3215.00,2.0836
3214.00,2.0793
3213.00,2.0745
3212.00,2.0694
3211.00,2.0639
3210.00,2.0583
3209.00,2.0526
3208.00,2.0467
3207.00,2.0404
3206.00,2.0336
3205.00,2.0264
3204.00,2.0190
3203.00,2.0115
3202.00,2.0037
3201.00,1.9954
3200.00,1.9858
3199.00,1.9750
3198.00,1.9630
3197.00,1.9500
3196.00,1.9363
3195.00,1.9218
3194.00,1.9064
3193.00,1.8904
3192.00,1.8734
3191.00,1.8554
3190.00,1.8364
3189.00,1.8166
3188.00,1.7963
3187.00,1.7754
3186.00,1.7537
3185.00,1.7311
3184.00,1.7077
3183.00,1.6835
3182.00,1.6586
3181.00,1.6332
3180.00,1.6075
3179.00,1.5816
3178.00,1.5560
3177.00,1.5310
3176.00,1.5071
3175.00,1.4846
3174.00,1.4644
3173.00,1.4474
3172.00,1.4347
3171.00,1.4274
3170.00,1.4266
3169.00,1.4327
3168.00,1.4457
3167.00,1.4638
3166.00,1.4836
3165.00,1.5003
3164.00,1.5083
3163.00,1.5033
3162.00,1.4839
3161.00,1.4528
3160.00,1.4146
3159.00,1.3744
3158.00,1.3361
3157.00,1.3024
3156.00,1.2745
3155.00,1.2528
3154.00,1.2373
3153.00,1.2275
3152.00,1.2229
3151.00,1.2230
3150.00,1.2271
3149.00,1.2347
3148.00,1.2453
3147.00,1.2585
3146.00,1.2740
3145.00,1.2913
3144.00,1.3103
3143.00,1.3307
3142.00,1.3524
3141.00,1.3751
3140.00,1.3988
3139.00,1.4232
3138.00,1.4483
3137.00,1.4737
3136.00,1.4994
3135.00,1.5251
3134.00,1.5509
3133.00,1.5767
3132.00,1.6025
3131.00,1.6281
3130.00,1.6534
3129.00,1.6781
3128.00,1.7025
3127.00,1.7264
3126.00,1.7498
3125.00,1.7725
3124.00,1.7946
3123.00,1.8160
3122.00,1.8368
3121.00,1.8573
3120.00,1.8773
3119.00,1.8963
3118.00,1.9145
3117.00,1.9319
3116.00,1.9489
3115.00,1.9653
3114.00,1.9808
3113.00,1.9955
3112.00,2.0094
3111.00,2.0230
3110.00,2.0364
3109.00,2.0495
3108.00,2.0620
3107.00,2.0739
3106.00,2.0852
3105.00,2.0957
3104.00,2.1052
3103.00,2.1137
3102.00,2.1215
3101.00,2.1292
3100.00,2.1371
3099.00,2.1447
3098.00,2.1516
3097.00,2.1574
3096.00,2.1627
3095.00,2.1681
3094.00,2.1737
3093.00,2.1791
3092.00,2.1836
3091.00,2.1870
3090.00,2.1893
3089.00,2.1912
3088.00,2.1930
3087.00,2.1950
3086.00,2.1972
3085.00,2.1991
3084.00,2.2001
3083.00,2.2001
3082.00,2.1995
3081.00,2.1988
3080.00,2.1981
3079.00,2.1971
3078.00,2.1956
3077.00,2.1936
3076.00,2.1910
3075.00,2.1879
3074.00,2.1842
3073.00,2.1798
3072.00,2.1753
3071.00,2.1707
3070.00,2.1657
3069.00,2.1602
3068.00,2.1539
3067.00,2.1472
3066.00,2.1404
3065.00,2.1332
3064.00,2.1248
3063.00,2.1152
3062.00,2.1049
3061.00,2.0945
3060.00,2.0843
3059.00,2.0738
3058.00,2.0627
3057.00,2.0509
3056.00,2.0386
3055.00,2.0261
3054.00,2.0131
3053.00,1.9994
3052.00,1.9845
3051.00,1.9688
3050.00,1.9527
3049.00,1.9365
3048.00,1.9200
3047.00,1.9028
3046.00,1.8844
3045.00,1.8650
3044.00,1.8450
3043.00,1.8247
3042.00,1.8041
3041.00,1.7833
3040.00,1.7623
3039.00,1.7414
3038.00,1.7207
3037.00,1.7001
3036.00,1.6797
3035.00,1.6597
3034.00,1.6404
3033.00,1.6220
3032.00,1.6047
3031.00,1.5885
3030.00,1.5736
3029.00,1.5604
3028.00,1.5490
3027.00,1.5397
3026.00,1.5324
3025.00,1.5272
3024.00,1.5243
3023.00,1.5238
3022.00,1.5260
3021.00,1.5307
3020.00,1.5378
3019.00,1.5473
3018.00,1.5590
3017.00,1.5729
3016.00,1.5887
3015.00,1.6063
3014.00,1.6252
3013.00,1.6453
3012.00,1.6662
3011.00,1.6878
3010.00,1.7097
3009.00,1.7314
3008.00,1.7524
3007.00,1.7722
3006.00,1.7906
3005.00,1.8070
3004.00,1.8210
3003.00,1.8326
3002.00,1.8419
3001.00,1.8492
3000.00,1.8543
2999.00,1.8576
2998.00,1.8596
2997.00,1.8610
2996.00,1.8626
2995.00,1.8650
2994.00,1.8688
2993.00,1.8742
2992.00,1.8813
2991.00,1.8899
2990.00,1.8999
2989.00,1.9114
2988.00,1.9243
2987.00,1.9388
2986.00,1.9549
2985.00,1.9726
2984.00,1.9916
2983.00,2.0113
2982.00,2.0310
2981.00,2.0509
2980.00,2.0711
2979.00,2.0917
2978.00,2.1126
2977.00,2.1336
2976.00,2.1543
2975.00,2.1744
2974.00,2.1936
2973.00,2.2119
2972.00,2.2293
2971.00,2.2460
2970.00,2.2625
2969.00,2.2786
2968.00,2.2940
2967.00,2.3084
2966.00,2.3221
2965.00,2.3357
2964.00,2.3491
2963.00,2.3619
2962.00,2.3736
2961.00,2.3841
2960.00,2.3939
2959.00,2.4037
2958.00,2.4144
2957.00,2.4264
2956.00,2.4391
2955.00,2.4515
2954.00,2.4629
2953.00,2.4733
2952.00,2.4837
2951.00,2.4951
2950.00,2.5079
2949.00,2.5224
2948.00,2.5382
2947.00,2.5542
2946.00,2.5685
2945.00,2.5785
2944.00,2.5823
2943.00,2.5789
2942.00,2.5692
2941.00,2.5550
2940.00,2.5385
2939.00,2.5216
2938.00,2.5059
2937.00,2.4915
2936.00,2.4784
2935.00,2.4663
2934.00,2.4552
2933.00,2.4447
2932.00,2.4350
2931.00,2.4267
2930.00,2.4203
2929.00,2.4154
2928.00,2.4108
2927.00,2.4057
2926.00,2.3998
2925.00,2.3933
2924.00,2.3867
2923.00,2.3802
2922.00,2.3743
2921.00,2.3691
2920.00,2.3643
2919.00,2.3597
2918.00,2.3552
2917.00,2.3508
2916.00,2.3461
2915.00,2.3413
2914.00,2.3366
2913.00,2.3318
2912.00,2.3265
2911.00,2.3205
2910.00,2.3140
2909.00,2.3068
2908.00,2.2983
2907.00,2.2888
2906.00,2.2793
2905.00,2.2703
2904.00,2.2615
2903.00,2.2521
2902.00,2.2415
2901.00,2.2298
2900.00,2.2171
2899.00,2.2038
2898.00,2.1900
2897.00,2.1761
2896.00,2.1615
2895.00,2.1458
2894.00,2.1288
2893.00,2.1110
2892.00,2.0927
2891.00,2.0742
2890.00,2.0550
2889.00,2.0349
2888.00,2.0138
2887.00,1.9919
2886.00,1.9700
2885.00,1.9486
2884.00,1.9280
2883.00,1.9082
2882.00,1.8889
2881.00,1.8703
2880.00,1.8529
2879.00,1.8374
2878.00,1.8244
2877.00,1.8146
2876.00,1.8079
2875.00,1.8044
2874.00,1.8034
2873.00,1.8043
2872.00,1.8061
2871.00,1.8080
2870.00,1.8090
2869.00,1.8083
2868.00,1.8050
2867.00,1.7988
2866.00,1.7896
2865.00,1.7775
2864.00,1.7624
2863.00,1.7445
2862.00,1.7235
2861.00,1.6995
2860.00,1.6724
2859.00,1.6426
2858.00,1.6109
2857.00,1.5784
2856.00,1.5463
2855.00,1.5158
2854.00,1.4881
2853.00,1.4640
2852.00,1.4443
2851.00,1.4293
2850.00,1.4193
2849.00,1.4144
2848.00,1.4143
2847.00,1.4189
2846.00,1.4277
2845.00,1.4402
2844.00,1.4561
2843.00,1.4748
2842.00,1.4959
2841.00,1.5188
2840.00,1.5431
2839.00,1.5683
2838.00,1.5944
2837.00,1.6211
2836.00,1.6485
2835.00,1.6763
2834.00,1.7042
2833.00,1.7321
2832.00,1.7598
2831.00,1.7873
2830.00,1.8144
2829.00,1.8408
2828.00,1.8666
2827.00,1.8918
2826.00,1.9167
2825.00,1.9411
2824.00,1.9649
2823.00,1.9880
2822.00,2.0104
2821.00,2.0324
2820.00,2.0538
2819.00,2.0745
2818.00,2.0943
2817.00,2.1132
2816.00,2.1310
2815.00,2.1478
2814.00,2.1638
2813.00,2.1794
2812.00,2.1943
2811.00,2.2082
2810.00,2.2213
2809.00,2.2340
2808.00,2.2462
2807.00,2.2576
2806.00,2.2685
2805.00,2.2790
2804.00,2.2889
2803.00,2.2978
2802.00,2.3059
2801.00,2.3136
2800.00,2.3214
2799.00,2.3289
2798.00,2.3356
2797.00,2.3414
2796.00,2.3462
2795.00,2.3499
2794.00,2.3524
2793.00,2.3547
2792.00,2.3574
2791.00,2.3608
2790.00,2.3641
2789.00,2.3668
2788.00,2.3690
2787.00,2.3710
2786.00,2.3728
2785.00,2.3740
2784.00,2.3742
2783.00,2.3734
2782.00,2.3717
2781.00,2.3691
2780.00,2.3657
2779.00,2.3621
2778.00,2.3587
2777.00,2.3555
2776.00,2.3518
2775.00,2.3470
2774.00,2.3412
2773.00,2.3352
2772.00,2.3296
2771.00,2.3244
2770.00,2.3188
2769.00,2.3120
2768.00,2.3041
2767.00,2.2954
2766.00,2.2861
2765.00,2.2759
2764.00,2.2647
2763.00,2.2531
2762.00,2.2416
2761.00,2.2301
2760.00,2.2181
2759.00,2.2048
2758.00,2.1902
2757.00,2.1744
2756.00,2.1579
2755.00,2.1410
2754.00,2.1239
2753.00,2.1061
2752.00,2.0873
2751.00,2.0674
2750.00,2.0465
2749.00,2.0244
2748.00,2.0010
2747.00,1.9764
2746.00,1.9507
2745.00,1.9238
2744.00,1.8956
2743.00,1.8658
2742.00,1.8346
2741.00,1.8021
2740.00,1.7684
2739.00,1.7335
2738.00,1.6973
2737.00,1.6600
2736.00,1.6216
2735.00,1.5823
2734.00,1.5423
2733.00,1.5019
2732.00,1.4615
2731.00,1.4213
2730.00,1.3819
2729.00,1.3435
2728.00,1.3068
2727.00,1.2721
2726.00,1.2400
2725.00,1.2109
2724.00,1.1851
2723.00,1.1630
2722.00,1.1449
2721.00,1.1312
2720.00,1.1221
2719.00,1.1179
2718.00,1.1185
2717.00,1.1240
2716.00,1.1340
2715.00,1.1485
2714.00,1.1669
2713.00,1.1890
2712.00,1.2141
2711.00,1.2420
2710.00,1.2721
2709.00,1.3041
2708.00,1.3377
2707.00,1.3725
2706.00,1.4083
2705.00,1.4450
2704.00,1.4823
2703.00,1.5199
2702.00,1.5575
2701.00,1.5951
2700.00,1.6326
2699.00,1.6696
2698.00,1.7061
2697.00,1.7419
2696.00,1.7771
2695.00,1.8117
2694.00,1.8457
2693.00,1.8792
2692.00,1.9117
2691.00,1.9428
2690.00,1.9723
2689.00,2.0004
2688.00,2.0273
2687.00,2.0530
2686.00,2.0776
2685.00,2.1013
2684.00,2.1241
2683.00,2.1460
2682.00,2.1669
2681.00,2.1868
2680.00,2.2054
2679.00,2.2227
2678.00,2.2392
2677.00,2.2550
2676.00,2.2700
2675.00,2.2840
2674.00,2.2970
2673.00,2.3095
2672.00,2.3217
2671.00,2.3334
2670.00,2.3446
2669.00,2.3551
2668.00,2.3647
2667.00,2.3736
2666.00,2.3822
2665.00,2.3905
2664.00,2.3985
2663.00,2.4059
2662.00,2.4130
2661.00,2.4202
2660.00,2.4270
2659.00,2.4328
2658.00,2.4374
2657.00,2.4414
2656.00,2.4453
2655.00,2.4495
2654.00,2.4541
2653.00,2.4586
2652.00,2.4623
2651.00,2.4646
2650.00,2.4661
2649.00,2.4673
2648.00,2.4684
2647.00,2.4684
2646.00,2.4671
2645.00,2.4652
2644.00,2.4634
2643.00,2.4618
2642.00,2.4601
2641.00,2.4580
2640.00,2.4556
2639.00,2.4529
2638.00,2.4497
2637.00,2.4454
2636.00,2.4396
2635.00,2.4329
2634.00,2.4263
2633.00,2.4211
2632.00,2.4174
2631.00,2.4147
2630.00,2.4120
2629.00,2.4084
2628.00,2.4034
2627.00,2.3971
2626.00,2.3896
2625.00,2.3813
2624.00,2.3720
2623.00,2.3618
2622.00,2.3507
2621.00,2.3389
2620.00,2.3263
2619.00,2.3123
2618.00,2.2972
2617.00,2.2813
2616.00,2.2654
2615.00,2.2491
2614.00,2.2319
2613.00,2.2133
2612.00,2.1935
2611.00,2.1727
2610.00,2.1512
2609.00,2.1289
2608.00,2.1053
2607.00,2.0803
2606.00,2.0538
2605.00,2.0260
2604.00,1.9969
2603.00,1.9666
2602.00,1.9347
2601.00,1.9010
2600.00,1.8656
2599.00,1.8284
2598.00,1.7897
2597.00,1.7495
2596.00,1.7078
2595.00,1.6644
2594.00,1.6195
2593.00,1.5736
2592.00,1.5274
2591.00,1.4816
2590.00,1.4366
2589.00,1.3930
2588.00,1.3513
2587.00,1.3118
2586.00,1.2752
2585.00,1.2420
2584.00,1.2127
2583.00,1.1878
2582.00,1.1678
2581.00,1.1529
2580.00,1.1436
2579.00,1.1399
2578.00,1.1420
2577.00,1.1497
2576.00,1.1626
2575.00,1.1803
2574.00,1.2023
2573.00,1.2281
2572.00,1.2571
2571.00,1.2888
2570.00,1.3226
2569.00,1.3580
2568.00,1.3948
2567.00,1.4326
2566.00,1.4713
2565.00,1.5108
2564.00,1.5508
2563.00,1.5911
2562.00,1.6313
2561.00,1.6711
2560.00,1.7103
2559.00,1.7489
2558.00,1.7869
2557.00,1.8243
2556.00,1.8611
2555.00,1.8971
2554.00,1.9321
2553.00,1.9661
2552.00,1.9992
2551.00,2.0316
2550.00,2.0627
2549.00,2.0925
2548.00,2.1207
2547.00,2.1476
2546.00,2.1729
2545.00,2.1964
2544.00,2.2183
2543.00,2.2391
2542.00,2.2590
2541.00,2.2784
2540.00,2.2971
2539.00,2.3153
2538.00,2.3328
2537.00,2.3495
2536.00,2.3654
2535.00,2.3807
2534.00,2.3953
2533.00,2.4090
2532.00,2.4215
2531.00,2.4330
2530.00,2.4438
2529.00,2.4539
2528.00,2.4629
2527.00,2.4708
2526.00,2.4787
2525.00,2.4874
2524.00,2.4972
2523.00,2.5071
2522.00,2.5159
2521.00,2.5230
2520.00,2.5289
2519.00,2.5340
2518.00,2.5387
2517.00,2.5431
2516.00,2.5471
2515.00,2.5506
2514.00,2.5537
2513.00,2.5568
2512.00,2.5601
2511.00,2.5634
2510.00,2.5663
2509.00,2.5684
2508.00,2.5695
2507.00,2.5694
2506.00,2.5682
2505.00,2.5669
2504.00,2.5661
2503.00,2.5654
2502.00,2.5634
2501.00,2.5596
2500.00,2.5555
2499.00,2.5527
2498.00,2.5517
2497.00,2.5512
2496.00,2.5494
2495.00,2.5459
2494.00,2.5404
2493.00,2.5334
2492.00,2.5254
2491.00,2.5171
2490.00,2.5085
2489.00,2.4993
2488.00,2.4899
2487.00,2.4811
2486.00,2.4732
2485.00,2.4656
2484.00,2.4572
2483.00,2.4474
2482.00,2.4364
2481.00,2.4245
2480.00,2.4122
2479.00,2.3995
2478.00,2.3858
2477.00,2.3708
2476.00,2.3548
2475.00,2.3384
2474.00,2.3216
2473.00,2.3037
2472.00,2.2844
2471.00,2.2641
2470.00,2.2429
2469.00,2.2207
2468.00,2.1973
2467.00,2.1728
2466.00,2.1474
2465.00,2.1204
2464.00,2.0917
2463.00,2.0616
2462.00,2.0301
2461.00,1.9973
2460.00,1.9626
2459.00,1.9260
2458.00,1.8879
2457.00,1.8482
2456.00,1.8068
2455.00,1.7639
2454.00,1.7199
2453.00,1.6755
2452.00,1.6312
2451.00,1.5873
2450.00,1.5443
2449.00,1.5028
2448.00,1.4635
2447.00,1.4269
2446.00,1.3934
2445.00,1.3636
2444.00,1.3379
2443.00,1.3167
2442.00,1.3004
2441.00,1.2891
2440.00,1.2832
2439.00,1.2825
2438.00,1.2872
2437.00,1.2971
2436.00,1.3120
2435.00,1.3313
2434.00,1.3548
2433.00,1.3819
2432.00,1.4121
2431.00,1.4448
2430.00,1.4796
2429.00,1.5162
2428.00,1.5542
2427.00,1.5932
2426.00,1.6330
2425.00,1.6731
2424.00,1.7135
2423.00,1.7538
2422.00,1.7937
2421.00,1.8330
2420.00,1.8715
2419.00,1.9092
2418.00,1.9461
2417.00,1.9819
2416.00,2.0163
2415.00,2.0489
2414.00,2.0797
2413.00,2.1091
2412.00,2.1371
2411.00,2.1638
2410.00,2.1892
2409.00,2.2132
2408.00,2.2355
2407.00,2.2566
2406.00,2.2770
2405.00,2.2971
2404.00,2.3170
2403.00,2.3361
2402.00,2.3545
2401.00,2.3722
2400.00,2.3889
2399.00,2.4049
2398.00,2.4204
2397.00,2.4361
2396.00,2.4522
2395.00,2.4684
2394.00,2.4843
2393.00,2.4994
2392.00,2.5135
2391.00,2.5266
2390.00,2.5400
2389.00,2.5526
2388.00,2.5689
2387.00,2.5831
2386.00,2.6094
2385.00,2.6158
2384.00,2.5969
2383.00,2.6097
2382.00,2.6128
2381.00,2.6208
2380.00,2.6263
2379.00,2.6326
2378.00,2.6376
2377.00,2.6425
2376.00,2.6464
2375.00,2.6486
2374.00,2.6495
2373.00,2.6506
2372.00,2.6532
2371.00,2.6565
2370.00,2.6589
2369.00,2.6597
2368.00,2.6596
2367.00,2.6588
2366.00,2.6564
2365.00,2.6520
2364.00,2.6477
2363.00,2.6470
2362.00,2.6506
2361.00,2.6546
2360.00,2.6546
2359.00,2.6501
2358.00,2.6443
2357.00,2.6393
2356.00,2.6344
2355.00,2.6288
2354.00,2.6231
2353.00,2.6180
2352.00,2.6127
2351.00,2.6063
2350.00,2.5993
2349.00,2.5927
2348.00,2.5864
2347.00,2.5790
2346.00,2.5692
2345.00,2.5570
2344.00,2.5436
2343.00,2.5299
2342.00,2.5165
2341.00,2.5028
2340.00,2.4886
2339.00,2.4738
2338.00,2.4585
2337.00,2.4419
2336.00,2.4239
2335.00,2.4033
2334.00,2.3823
2333.00,2.3585
2332.00,2.3369
2331.00,2.3088
2330.00,2.2962
2329.00,2.3157
2328.00,2.2999
2327.00,2.2610
2326.00,2.2250
2325.00,2.1950
2324.00,2.1955
2323.00,2.2048
2322.00,2.2039
2321.00,2.1871
2320.00,2.1505
2319.00,2.1118
2318.00,2.0608
2317.00,2.0073
2316.00,1.9517
2315.00,1.9106
2314.00,1.8881
2313.00,1.8777
2312.00,1.8730
2311.00,1.8618
2310.00,1.8516
2309.00,1.8393
2308.00,1.8374
2307.00,1.8400
2306.00,1.8551
2305.00,1.8750
2304.00,1.9064
2303.00,1.9445
2302.00,1.9941
2301.00,2.0497
2300.00,2.1132
2299.00,2.1762
2298.00,2.2415
2297.00,2.3015
2296.00,2.3583
2295.00,2.4010
2294.00,2.4282
2293.00,2.4292
2292.00,2.4052
2291.00,2.3564
2290.00,2.2935
2289.00,2.2252
2288.00,2.1617
2287.00,2.1079
2286.00,2.0671
2285.00,2.0397
2284.00,2.0251
2283.00,2.0232
2282.00,2.0338
2281.00,2.0565
2280.00,2.0876
2279.00,2.1238
2278.00,2.1621
2277.00,2.2030
2276.00,2.2459
2275.00,2.2900
2274.00,2.3337
2273.00,2.3758
2272.00,2.4160
2271.00,2.4539
2270.00,2.4909
2269.00,2.5282
2268.00,2.5668
2267.00,2.6062
2266.00,2.6445
2265.00,2.6805
2264.00,2.7140
2263.00,2.7459
2262.00,2.7786
2261.00,2.8150
2260.00,2.8599
2259.00,2.9194
2258.00,3.0005
2257.00,3.1111
2256.00,3.2547
2255.00,3.4253
2254.00,3.5884
2253.00,3.6695
2252.00,3.6117
2251.00,3.4559
2250.00,3.2681
2249.00,3.0803
2248.00,2.9056
2247.00,2.7508
2246.00,2.6206
2245.00,2.5173
2244.00,2.4414
2243.00,2.3915
2242.00,2.3655
2241.00,2.3598
2240.00,2.3702
2239.00,2.3919
2238.00,2.4201
2237.00,2.4517
2236.00,2.4844
2235.00,2.5173
2234.00,2.5496
2233.00,2.5803
2232.00,2.6079
2231.00,2.6320
2230.00,2.6529
2229.00,2.6715
2228.00,2.6875
2227.00,2.7002
2226.00,2.7095
2225.00,2.7172
2224.00,2.7251
2223.00,2.7341
2222.00,2.7436
2221.00,2.7527
2220.00,2.7605
2219.00,2.7673
2218.00,2.7736
2217.00,2.7797
2216.00,2.7849
2215.00,2.7884
2214.00,2.7897
2213.00,2.7892
2212.00,2.7878
2211.00,2.7861
2210.00,2.7842
2209.00,2.7819
2208.00,2.7792
2207.00,2.7769
2206.00,2.7762
2205.00,2.7774
2204.00,2.7791
2203.00,2.7789
2202.00,2.7751
2201.00,2.7680
2200.00,2.7593
2199.00,2.7507
2198.00,2.7428
2197.00,2.7354
2196.00,2.7280
2195.00,2.7198
2194.00,2.7101
2193.00,2.6983
2192.00,2.6849
2191.00,2.6709
2190.00,2.6571
2189.00,2.6436
2188.00,2.6301
2187.00,2.6167
2186.00,2.6036
2185.00,2.5900
2184.00,2.5752
2183.00,2.5582
2182.00,2.5388
2181.00,2.5176
2180.00,2.4954
2179.00,2.4731
2178.00,2.4510
2177.00,2.4283
2176.00,2.4043
2175.00,2.3785
2174.00,2.3510
2173.00,2.3220
2172.00,2.2915
2171.00,2.2593
2170.00,2.2254
2169.00,2.1894
2168.00,2.1507
2167.00,2.1092
2166.00,2.0651
2165.00,2.0190
2164.00,1.9707
2163.00,1.9202
2162.00,1.8674
2161.00,1.8128
2160.00,1.7567
2159.00,1.7002
2158.00,1.6440
2157.00,1.5895
2156.00,1.5375
2155.00,1.4891
2154.00,1.4452
2153.00,1.4066
2152.00,1.3740
2151.00,1.3482
2150.00,1.3297
2149.00,1.3193
2148.00,1.3173
2147.00,1.3234
2146.00,1.3374
2145.00,1.3586
2144.00,1.3862
2143.00,1.4192
2142.00,1.4567
2141.00,1.4980
2140.00,1.5421
2139.00,1.5885
2138.00,1.6363
2137.00,1.6851
2136.00,1.7347
2135.00,1.7845
2134.00,1.8343
2133.00,1.8835
2132.00,1.9317
2131.00,1.9787
2130.00,2.0246
2129.00,2.0697
2128.00,2.1142
2127.00,2.1576
2126.00,2.1992
2125.00,2.2381
2124.00,2.2743
2123.00,2.3082
2122.00,2.3406
2121.00,2.3720
2120.00,2.4025
2119.00,2.4312
2118.00,2.4578
2117.00,2.4823
2116.00,2.5053
2115.00,2.5278
2114.00,2.5503
2113.00,2.5726
2112.00,2.5933
2111.00,2.6117
2110.00,2.6286
2109.00,2.6455
2108.00,2.6633
2107.00,2.6818
2106.00,2.6997
2105.00,2.7157
2104.00,2.7286
2103.00,2.7384
2102.00,2.7464
2101.00,2.7550
2100.00,2.7652
2099.00,2.7763
2098.00,2.7865
2097.00,2.7949
2096.00,2.8019
2095.00,2.8095
2094.00,2.8192
2093.00,2.8303
2092.00,2.8402
2091.00,2.8465
2090.00,2.8493
2089.00,2.8517
2088.00,2.8559
2087.00,2.8619
2086.00,2.8682
2085.00,2.8736
2084.00,2.8779
2083.00,2.8817
2082.00,2.8853
2081.00,2.8886
2080.00,2.8910
2079.00,2.8916
2078.00,2.8900
2077.00,2.8863
2076.00,2.8819
2075.00,2.8782
2074.00,2.8762
2073.00,2.8758
2072.00,2.8764
2071.00,2.8776
2070.00,2.8787
2069.00,2.8786
2068.00,2.8760
2067.00,2.8711
2066.00,2.8652
2065.00,2.8594
2064.00,2.8538
2063.00,2.8483
2062.00,2.8431
2061.00,2.8383
2060.00,2.8335
2059.00,2.8284
2058.00,2.8229
2057.00,2.8165
2056.00,2.8081
2055.00,2.7972
2054.00,2.7840
2053.00,2.7694
2052.00,2.7541
2051.00,2.7386
2050.00,2.7234
2049.00,2.7090
2048.00,2.6954
2047.00,2.6821
2046.00,2.6687
2045.00,2.6547
2044.00,2.6393
2043.00,2.6220
2042.00,2.6030
2041.00,2.5830
2040.00,2.5618
2039.00,2.5392
2038.00,2.5148
2037.00,2.4890
2036.00,2.4622
2035.00,2.4342
2034.00,2.4043
2033.00,2.3723
2032.00,2.3386
2031.00,2.3038
2030.00,2.2678
2029.00,2.2301
2028.00,2.1900
2027.00,2.1474
2026.00,2.1022
2025.00,2.0547
2024.00,2.0049
2023.00,1.9527
2022.00,1.8983
2021.00,1.8425
2020.00,1.7861
2019.00,1.7303
2018.00,1.6764
2017.00,1.6253
2016.00,1.5774
2015.00,1.5327
2014.00,1.4918
2013.00,1.4566
2012.00,1.4289
2011.00,1.4096
2010.00,1.3989
2009.00,1.3966
2008.00,1.4028
2007.00,1.4171
2006.00,1.4387
2005.00,1.4667
2004.00,1.5005
2003.00,1.5390
2002.00,1.5813
2001.00,1.6265
2000.00,1.6740
1999.00,1.7233
1998.00,1.7739
1997.00,1.8253
1996.00,1.8766
1995.00,1.9273
1994.00,1.9773
1993.00,2.0276
1992.00,2.0786
1991.00,2.1287
1990.00,2.1761
1989.00,2.2199
1988.00,2.2616
1987.00,2.3021
1986.00,2.3412
1985.00,2.3781
1984.00,2.4125
1983.00,2.4450
1982.00,2.4760
1981.00,2.5061
1980.00,2.5351
1979.00,2.5622
1978.00,2.5868
1977.00,2.6098
1976.00,2.6323
1975.00,2.6543
1974.00,2.6749
1973.00,2.6936
1972.00,2.7117
1971.00,2.7300
1970.00,2.7482
1969.00,2.7658
1968.00,2.7831
1967.00,2.8005
1966.00,2.8171
1965.00,2.8315
1964.00,2.8425
1963.00,2.8507
1962.00,2.8579
1961.00,2.8666
1960.00,2.8783
1959.00,2.8921
1958.00,2.9058
1957.00,2.9178
1956.00,2.9284
1955.00,2.9384
1954.00,2.9466
1953.00,2.9513
1952.00,2.9526
1951.00,2.9527
1950.00,2.9540
1949.00,2.9577
1948.00,2.9641
1947.00,2.9724
1946.00,2.9808
1945.00,2.9870
1944.00,2.9904
1943.00,2.9926
1942.00,2.9960
1941.00,3.0004
1940.00,3.0040
1939.00,3.0056
1938.00,3.0052
1937.00,3.0036
1936.00,3.0011
1935.00,2.9975
1934.00,2.9927
1933.00,2.9878
1932.00,2.9843
1931.00,2.9831
1930.00,2.9837
1929.00,2.9852
1928.00,2.9861
1927.00,2.9847
1926.00,2.9799
1925.00,2.9727
1924.00,2.9660
1923.00,2.9617
1922.00,2.9581
1921.00,2.9519
1920.00,2.9419
1919.00,2.9305
1918.00,2.9196
1917.00,2.9083
1916.00,2.8962
1915.00,2.8845
1914.00,2.8753
1913.00,2.8680
1912.00,2.8599
1911.00,2.8485
1910.00,2.8339
1909.00,2.8192
1908.00,2.8067
1907.00,2.7953
1906.00,2.7815
1905.00,2.7636
1904.00,2.7426
1903.00,2.7208
1902.00,2.6991
1901.00,2.6772
1900.00,2.6551
1899.00,2.6329
1898.00,2.6100
1897.00,2.5855
1896.00,2.5588
1895.00,2.5299
1894.00,2.4992
1893.00,2.4671
1892.00,2.4336
1891.00,2.3984
1890.00,2.3605
1889.00,2.3197
1888.00,2.2761
1887.00,2.2302
1886.00,2.1825
1885.00,2.1338
1884.00,2.0838
1883.00,2.0312
1882.00,1.9756
1881.00,1.9183
1880.00,1.8614
1879.00,1.8064
1878.00,1.7537
1877.00,1.7043
1876.00,1.6591
1875.00,1.6188
1874.00,1.5842
1873.00,1.5564
1872.00,1.5358
1871.00,1.5224
1870.00,1.5160
1869.00,1.5170
1868.00,1.5262
1867.00,1.5441
1866.00,1.5702
1865.00,1.6047
1864.00,1.6466
1863.00,1.6937
1862.00,1.7438
1861.00,1.7961
1860.00,1.8500
1859.00,1.9046
1858.00,1.9590
1857.00,2.0130
1856.00,2.0663
1855.00,2.1182
1854.00,2.1688
1853.00,2.2184
1852.00,2.2667
1851.00,2.3134
1850.00,2.3583
1849.00,2.4026
1848.00,2.4457
1847.00,2.4850
1846.00,2.5197
1845.00,2.5515
1844.00,2.5821
1843.00,2.6118
1842.00,2.6405
1841.00,2.6686
1840.00,2.6957
1839.00,2.7212
1838.00,2.7455
1837.00,2.7685
1836.00,2.7903
1835.00,2.8113
1834.00,2.8321
1833.00,2.8521
1832.00,2.8693
1831.00,2.8827
1830.00,2.8930
1829.00,2.9024
1828.00,2.9119
1827.00,2.9232
1826.00,2.9383
1825.00,2.9552
1824.00,2.9685
1823.00,2.9768
1822.00,2.9853
1821.00,2.9992
1820.00,3.0165
1819.00,3.0310
1818.00,3.0403
1817.00,3.0470
1816.00,3.0534
1815.00,3.0600
1814.00,3.0654
1813.00,3.0690
1812.00,3.0701
1811.00,3.0693
1810.00,3.0694
1809.00,3.0731
1808.00,3.0825
1807.00,3.0970
1806.00,3.1119
1805.00,3.1199
1804.00,3.1182
1803.00,3.1119
1802.00,3.1091
1801.00,3.1122
1800.00,3.1163
1799.00,3.1158
1798.00,3.1116
1797.00,3.1082
1796.00,3.1076
1795.00,3.1087
1794.00,3.1090
1793.00,3.1057
1792.00,3.0969
1791.00,3.0859
1790.00,3.0785
1789.00,3.0764
1788.00,3.0766
1787.00,3.0754
1786.00,3.0704
1785.00,3.0609
1784.00,3.0483
1783.00,3.0358
1782.00,3.0254
1781.00,3.0171
1780.00,3.0097
1779.00,3.0027
1778.00,2.9966
1777.00,2.9895
1776.00,2.9776
1775.00,2.9592
1774.00,2.9379
1773.00,2.9183
1772.00,2.8996
1771.00,2.8794
1770.00,2.8593
1769.00,2.8427
1768.00,2.8301
1767.00,2.8180
1766.00,2.8013
1765.00,2.7769
1764.00,2.7462
1763.00,2.7124
1762.00,2.6773
1761.00,2.6413
1760.00,2.6061
1759.00,2.5729
1758.00,2.5410
1757.00,2.5067
1756.00,2.4686
1755.00,2.4279
1754.00,2.3883
1753.00,2.3533
1752.00,2.3229
1751.00,2.2927
1750.00,2.2579
1749.00,2.2177
1748.00,2.1772
1747.00,2.1445
1746.00,2.1249
1745.00,2.1185
1744.00,2.1220
1743.00,2.1309
1742.00,2.1412
1741.00,2.1509
1740.00,2.1605
1739.00,2.1738
1738.00,2.1939
1737.00,2.2206
1736.00,2.2547
1735.00,2.3000
1734.00,2.3558
1733.00,2.4134
1732.00,2.4662
1731.00,2.5123
1730.00,2.5549
1729.00,2.6013
1728.00,2.6553
1727.00,2.7143
1726.00,2.7762
1725.00,2.8409
1724.00,2.9066
1723.00,2.9711
1722.00,3.0337
1721.00,3.0931
1720.00,3.1486
1719.00,3.2036
1718.00,3.2644
1717.00,3.3351
1716.00,3.4142
1715.00,3.4966
1714.00,3.5785
1713.00,3.6533
1712.00,3.7132
1711.00,3.7599
1710.00,3.7955
1709.00,3.8163
1708.00,3.8203
1707.00,3.8053
1706.00,3.7475
1705.00,3.6276
1704.00,3.4809
1703.00,3.3458
1702.00,3.2171
1701.00,3.0698
1700.00,2.9035
1699.00,2.7509
1698.00,2.6436
1697.00,2.5773
1696.00,2.5320
1695.00,2.4994
1694.00,2.4740
1693.00,2.4573
1692.00,2.4552
1691.00,2.4715
1690.00,2.5066
1689.00,2.5519
1688.00,2.5977
1687.00,2.6424
1686.00,2.6918
1685.00,2.7477
1684.00,2.7970
1683.00,2.8280
1682.00,2.8447
1681.00,2.8642
1680.00,2.8977
1679.00,2.9374
1678.00,2.9712
1677.00,2.9936
1676.00,3.0073
1675.00,3.0141
1674.00,3.0166
1673.00,3.0229
1672.00,3.0363
1671.00,3.0519
1670.00,3.0660
1669.00,3.0803
1668.00,3.0988
1667.00,3.1223
1666.00,3.1452
1665.00,3.1611
1664.00,3.1689
1663.00,3.1723
1662.00,3.1755
1661.00,3.1815
1660.00,3.1915
1659.00,3.2042
1658.00,3.2173
1657.00,3.2262
1656.00,3.2275
1655.00,3.2263
1654.00,3.2317
1653.00,3.2424
1652.00,3.2483
1651.00,3.2502
1650.00,3.2499
1649.00,3.2353
1648.00,3.2159
1647.00,3.2139
1646.00,3.2261
1645.00,3.2351
1644.00,3.2347
1643.00,3.2321
1642.00,3.2310
1641.00,3.2344
1640.00,3.2393
1639.00,3.2363
1638.00,3.2242
1637.00,3.2113
1636.00,3.2033
1635.00,3.1968
1634.00,3.1907
1633.00,3.1940
1632.00,3.2078
1631.00,3.2188
1630.00,3.2175
1629.00,3.2035
1628.00,3.1822
1627.00,3.1604
1626.00,3.1404
1625.00,3.1207
1624.00,3.1000
1623.00,3.0804
1622.00,3.0668
1621.00,3.0621
1620.00,3.0623
1619.00,3.0607
1618.00,3.0535
1617.00,3.0393
1616.00,3.0176
1615.00,2.9925
1614.00,2.9684
1613.00,2.9452
1612.00,2.9216
1611.00,2.8985
1610.00,2.8765
1609.00,2.8555
1608.00,2.8339
1607.00,2.8083
1606.00,2.7766
1605.00,2.7405
1604.00,2.7037
1603.00,2.6674
1602.00,2.6308
1601.00,2.5925
1600.00,2.5517
1599.00,2.5089
1598.00,2.4647
1597.00,2.4189
1596.00,2.3708
1595.00,2.3208
1594.00,2.2706
1593.00,2.2220
1592.00,2.1760
1591.00,2.1338
1590.00,2.0958
1589.00,2.0623
1588.00,2.0340
1587.00,2.0122
1586.00,1.9989
1585.00,1.9950
1584.00,2.0004
1583.00,2.0140
1582.00,2.0349
1581.00,2.0626
1580.00,2.0940
1579.00,2.1270
1578.00,2.1651
1577.00,2.2142
1576.00,2.2713
1575.00,2.3242
1574.00,2.3642
1573.00,2.3936
1572.00,2.4208
1571.00,2.4528
1570.00,2.4897
1569.00,2.5280
1568.00,2.5684
1567.00,2.6128
1566.00,2.6589
1565.00,2.7020
1564.00,2.7388
1563.00,2.7700
1562.00,2.8012
1561.00,2.8385
1560.00,2.8793
1559.00,2.9041
1558.00,2.9134
1557.00,2.9192
1556.00,2.9366
1555.00,2.9731
1554.00,3.0144
1553.00,3.0543
1552.00,3.0892
1551.00,3.1186
1550.00,3.1448
1549.00,3.1663
1548.00,3.1806
1547.00,3.1898
1546.00,3.2005
1545.00,3.2158
1544.00,3.2326
1543.00,3.2453
1542.00,3.2520
1541.00,3.2580
1540.00,3.2680
1539.00,3.2776
1538.00,3.2802
1537.00,3.2836
1536.00,3.2917
1535.00,3.3019
1534.00,3.3144
1533.00,3.3240
1532.00,3.3311
1531.00,3.3442
1530.00,3.3662
1529.00,3.3891
1528.00,3.4030
1527.00,3.4072
1526.00,3.4058
1525.00,3.3987
1524.00,3.3843
1523.00,3.3691
1522.00,3.3656
1521.00,3.3790
1520.00,3.3986
1519.00,3.4071
1518.00,3.4004
1517.00,3.3878
1516.00,3.3805
1515.00,3.3813
1514.00,3.3877
1513.00,3.3977
1512.00,3.4086
1511.00,3.4167
1510.00,3.4205
1509.00,3.4207
1508.00,3.4188
1507.00,3.4137
1506.00,3.4023
1505.00,3.3785
1504.00,3.3621
1503.00,3.3643
1502.00,3.3672
1501.00,3.3650
1500.00,3.3520
1499.00,3.3216
1498.00,3.2830
1497.00,3.2576
1496.00,3.2572
1495.00,3.2744
1494.00,3.2929
1493.00,3.3027
1492.00,3.3041
1491.00,3.2989
1490.00,3.2856
1489.00,3.2646
1488.00,3.2396
1487.00,3.2163
1486.00,3.1991
1485.00,3.1852
1484.00,3.1687
1483.00,3.1499
1482.00,3.1364
1481.00,3.1342
1480.00,3.1387
1479.00,3.1383
1478.00,3.1265
1477.00,3.1078
1476.00,3.0906
1475.00,3.0792
1474.00,3.0718
1473.00,3.0652
1472.00,3.0592
1471.00,3.0541
1470.00,3.0513
1469.00,3.0520
1468.00,3.0556
1467.00,3.0637
1466.00,3.0782
1465.00,3.0982
1464.00,3.1190
1463.00,3.1365
1462.00,3.1532
1461.00,3.1709
1460.00,3.1874
1459.00,3.2045
1458.00,3.2324
1457.00,3.2836
1456.00,3.3573
1455.00,3.4379
1454.00,3.5128
1453.00,3.5766
1452.00,3.6243
1451.00,3.6498
1450.00,3.6526
1449.00,3.6406
1448.00,3.6161
1447.00,3.5788
1446.00,3.5407
1445.00,3.5215
1444.00,3.5279
1443.00,3.5486
1442.00,3.5665
1441.00,3.5712
1440.00,3.5630
1439.00,3.5483
1438.00,3.5364
1437.00,3.5340
1436.00,3.5414
1435.00,3.5505
1434.00,3.5490
1433.00,3.5351
1432.00,3.5180
1431.00,3.5064
1430.00,3.5001
1429.00,3.4896
1428.00,3.4692
1427.00,3.4472
1426.00,3.4372
1425.00,3.4434
1424.00,3.4576
1423.00,3.4691
1422.00,3.4789
1421.00,3.4937
1420.00,3.5065
1419.00,3.4998
1418.00,3.4782
1417.00,3.4650
1416.00,3.4679
1415.00,3.4729
1414.00,3.4608
1413.00,3.4311
1412.00,3.4023
1411.00,3.3876
1410.00,3.3848
1409.00,3.3816
1408.00,3.3678
1407.00,3.3440
1406.00,3.3194
1405.00,3.3047
1404.00,3.3036
1403.00,3.3114
1402.00,3.3201
1401.00,3.3242
1400.00,3.3234
1399.00,3.3204
1398.00,3.3165
1397.00,3.3115
1396.00,3.3075
1395.00,3.3111
1394.00,3.3282
1393.00,3.3603
1392.00,3.4016
1391.00,3.4391
1390.00,3.4632
1389.00,3.4775
1388.00,3.4931
1387.00,3.5146
1386.00,3.5378
1385.00,3.5590
1384.00,3.5808
1383.00,3.6087
1382.00,3.6449
1381.00,3.6862
1380.00,3.7286
1379.00,3.7739
1378.00,3.8230
1377.00,3.8647
1376.00,3.8764
1375.00,3.8415
1374.00,3.7728
1373.00,3.6981
1372.00,3.6307
1371.00,3.5738
1370.00,3.5299
1369.00,3.5015
1368.00,3.4861
1367.00,3.4786
1366.00,3.4768
1365.00,3.4809
1364.00,3.4877
1363.00,3.4941
1362.00,3.5059
1361.00,3.5318
1360.00,3.5710
1359.00,3.6079
1358.00,3.6206
1357.00,3.6050
1356.00,3.5770
1355.00,3.5516
1354.00,3.5358
1353.00,3.5312
1352.00,3.5375
1351.00,3.5520
1350.00,3.5708
1349.00,3.5885
1348.00,3.5959
1347.00,3.5847
1346.00,3.5592
1345.00,3.5356
1344.00,3.5275
1343.00,3.5365
1342.00,3.5563
1341.00,3.5799
1340.00,3.5994
1339.00,3.6032
1338.00,3.5890
1337.00,3.5728
1336.00,3.5706
1335.00,3.5762
1334.00,3.5669
1333.00,3.5369
1332.00,3.5091
1331.00,3.5051
1330.00,3.5200
1329.00,3.5301
1328.00,3.5205
1327.00,3.5003
1326.00,3.4828
1325.00,3.4697
1324.00,3.4581
1323.00,3.4501
1322.00,3.4491
1321.00,3.4500
1320.00,3.4426
1319.00,3.4268
1318.00,3.4117
1317.00,3.4022
1316.00,3.3959
1315.00,3.3897
1314.00,3.3834
1313.00,3.3764
1312.00,3.3659
1311.00,3.3512
1310.00,3.3379
1309.00,3.3321
1308.00,3.3329
1307.00,3.3329
1306.00,3.3251
1305.00,3.3073
1304.00,3.2791
1303.00,3.2406
1302.00,3.1930
1301.00,3.1404
1300.00,3.0883
1299.00,3.0412
1298.00,3.0002
1297.00,2.9615
1296.00,2.9195
1295.00,2.8705
1294.00,2.8150
1293.00,2.7561
1292.00,2.6960
1291.00,2.6356
1290.00,2.5760
1289.00,2.5188
1288.00,2.4652
1287.00,2.4165
1286.00,2.3743
1285.00,2.3411
1284.00,2.3194
1283.00,2.3105
1282.00,2.3150
1281.00,2.3325
1280.00,2.3619
1279.00,2.4007
1278.00,2.4447
1277.00,2.4886
1276.00,2.5289
1275.00,2.5653
1274.00,2.5994
1273.00,2.6340
1272.00,2.6718
1271.00,2.7141
1270.00,2.7601
1269.00,2.8063
1268.00,2.8495
1267.00,2.8892
1266.00,2.9272
1265.00,2.9650
1264.00,3.0034
1263.00,3.0448
1262.00,3.0918
1261.00,3.1424
1260.00,3.1866
1259.00,3.2140
1258.00,3.2266
1257.00,3.2373
1256.00,3.2557
1255.00,3.2824
1254.00,3.3142
1253.00,3.3488
1252.00,3.3837
1251.00,3.4128
1250.00,3.4300
1249.00,3.4374
1248.00,3.4443
1247.00,3.4567
1246.00,3.4720
1245.00,3.4851
1244.00,3.4949
1243.00,3.5067
1242.00,3.5278
1241.00,3.5601
1240.00,3.5976
1239.00,3.6285
1238.00,3.6464
1237.00,3.6543
1236.00,3.6570
1235.00,3.6567
1234.00,3.6532
1233.00,3.6440
1232.00,3.6365
1231.00,3.6431
1230.00,3.6579
1229.00,3.6717
1228.00,3.6976
1227.00,3.7451
1226.00,3.8011
1225.00,3.8507
1224.00,3.8808
1223.00,3.8753
1222.00,3.8329
1221.00,3.7737
1220.00,3.7173
1219.00,3.6696
1218.00,3.6340
1217.00,3.6175
1216.00,3.6241
1215.00,3.6467
1214.00,3.6696
1213.00,3.6852
1212.00,3.7000
1211.00,3.7189
1210.00,3.7337
1209.00,3.7299
1208.00,3.7109
1207.00,3.6973
1206.00,3.6975
1205.00,3.7119
1204.00,3.7438
1203.00,3.7838
1202.00,3.8033
1201.00,3.7766
1200.00,3.7143
1199.00,3.6525
1198.00,3.6168
1197.00,3.6134
1196.00,3.6381
1195.00,3.6791
1194.00,3.7149
1193.00,3.7341
1192.00,3.7467
1191.00,3.7476
1190.00,3.7089
1189.00,3.6381
1188.00,3.5786
1187.00,3.5591
1186.00,3.5849
1185.00,3.6418
1184.00,3.6931
1183.00,3.7006
1182.00,3.6696
1181.00,3.6269
1180.00,3.5818
1179.00,3.5323
1178.00,3.4829
1177.00,3.4465
1176.00,3.4313
1175.00,3.4337
1174.00,3.4431
1173.00,3.4515
1172.00,3.4538
1171.00,3.4424
1170.00,3.4132
1169.00,3.3743
1168.00,3.3387
1167.00,3.3095
1166.00,3.2788
1165.00,3.2399
1164.00,3.1978
1163.00,3.1618
1162.00,3.1323
1161.00,3.1003
1160.00,3.0579
1159.00,3.0069
1158.00,2.9540
1157.00,2.9033
1156.00,2.8554
1155.00,2.8090
1154.00,2.7629
1153.00,2.7168
1152.00,2.6717
1151.00,2.6308
1150.00,2.5981
1149.00,2.5766
1148.00,2.5665
1147.00,2.5666
1146.00,2.5756
1145.00,2.5935
1144.00,2.6207
1143.00,2.6559
1142.00,2.6966
1141.00,2.7415
1140.00,2.7922
1139.00,2.8505
1138.00,2.9152
1137.00,2.9822
1136.00,3.0476
1135.00,3.1098
1134.00,3.1704
1133.00,3.2350
1132.00,3.3089
1131.00,3.3874
1130.00,3.4493
1129.00,3.4729
1128.00,3.4647
1127.00,3.4516
1126.00,3.4534
1125.00,3.4757
1124.00,3.5152
1123.00,3.5575
1122.00,3.5811
1121.00,3.5803
1120.00,3.5757
1119.00,3.5910
1118.00,3.6243
1117.00,3.6555
1116.00,3.6763
1115.00,3.6963
1114.00,3.7293
1113.00,3.7748
1112.00,3.8064
1111.00,3.7971
1110.00,3.7530
1109.00,3.7015
1108.00,3.6634
1107.00,3.6407
1106.00,3.6194
1105.00,3.5948
1104.00,3.5888
1103.00,3.6263
1102.00,3.7135
1101.00,3.8302
1100.00,3.9350
1099.00,3.9884
1098.00,3.9690
1097.00,3.9013
1096.00,3.8321
1095.00,3.7944
1094.00,3.8157
1093.00,3.9054
1092.00,4.0122
1091.00,4.0742
1090.00,4.1397
1089.00,4.1962
1088.00,4.1941
1087.00,4.1975
1086.00,4.2117
1085.00,4.2235
1084.00,4.2499
1083.00,4.3006
1082.00,4.4012
1081.00,4.2844
1080.00,4.0349
1079.00,3.9307
1078.00,3.9473
1077.00,4.0028
1076.00,4.0382
1075.00,4.1462
1074.00,4.3209
1073.00,4.2587
1072.00,4.1547
1071.00,4.1232
1070.00,4.1144
1069.00,4.0972
1068.00,4.0558
1067.00,4.0181
1066.00,3.9978
1065.00,3.9667
1064.00,3.8875
1063.00,3.7860
1062.00,3.7207
1061.00,3.7214
1060.00,3.7933
1059.00,3.9192
1058.00,4.0314
1057.00,4.0226
1056.00,3.9189
1055.00,3.8318
1054.00,3.8003
1053.00,3.8108
1052.00,3.8285
1051.00,3.8211
1050.00,3.7900
1049.00,3.7592
1048.00,3.7506
1047.00,3.7782
1046.00,3.8410
1045.00,3.9156
1044.00,3.9591
1043.00,3.9481
1042.00,3.9015
1041.00,3.8487
1040.00,3.8222
1039.00,3.8432
1038.00,3.8956
1037.00,3.9274
1036.00,3.9222
1035.00,3.9310
1034.00,3.9698
1033.00,3.9942
1032.00,3.9698
1031.00,3.8845
1030.00,3.7911
1029.00,3.7536
1028.00,3.7802
1027.00,3.8495
1026.00,3.9260
1025.00,3.9635
1024.00,3.9618
1023.00,3.9739
1022.00,4.0134
1021.00,4.0474
1020.00,4.0405
1019.00,3.9985
1018.00,3.9704
1017.00,3.9548
1016.00,3.9142
1015.00,3.8619
1014.00,3.8290
1013.00,3.8153
1012.00,3.8023
1011.00,3.7862
1010.00,3.7885
1009.00,3.8194
1008.00,3.8532
1007.00,3.8415
1006.00,3.7600
1005.00,3.6385
1004.00,3.5191
1003.00,3.4272
1002.00,3.3702
1001.00,3.3380
1000.00,3.3118
999.00,3.2829
998.00,3.2612
997.00,3.2583
996.00,3.2708
995.00,3.2852
994.00,3.2969
993.00,3.3180
992.00,3.3625
991.00,3.4297
990.00,3.5029
989.00,3.5690
988.00,3.6285
987.00,3.6698
986.00,3.6836
985.00,3.6910
984.00,3.7170
983.00,3.7761
982.00,3.8688
981.00,3.9786
980.00,4.0836
979.00,4.1717
978.00,4.2720
977.00,4.4187
976.00,4.4235
975.00,4.2647
974.00,4.1175
973.00,3.9946
972.00,3.9354
971.00,3.9473
970.00,4.0390
969.00,4.2521
968.00,4.6748
967.00,5.5811
966.00,4.9017
965.00,4.4517
964.00,4.2562
963.00,4.1156
962.00,4.0113
961.00,3.9810
960.00,4.0259
959.00,4.0980
958.00,4.0970
957.00,3.9880
956.00,3.8735
955.00,3.8226
954.00,3.8461
953.00,3.9350
952.00,4.0573
951.00,4.1804
950.00,4.3155
949.00,4.5813
948.00,5.1526
947.00,4.8507
946.00,4.5150
945.00,4.4034
944.00,4.4670
943.00,4.6306
942.00,4.4402
941.00,4.2046
940.00,4.0700
939.00,4.0063
938.00,3.9865
937.00,3.9642
936.00,3.9358
935.00,3.9359
934.00,3.9884
933.00,4.0962
932.00,4.2096
931.00,4.3420
930.00,4.5320
929.00,4.4528
928.00,4.2957
927.00,4.3294
926.00,4.5260
925.00,4.6288
924.00,4.4900
923.00,4.2371
922.00,4.0415
921.00,3.9842
920.00,4.0183
919.00,4.1275
918.00,4.3083
917.00,4.6500
916.00,5.4255
915.00,4.7224
914.00,4.4656
913.00,4.3625
912.00,4.1485
911.00,3.9709
910.00,3.9007
909.00,3.9322
908.00,4.0459
907.00,4.2549
906.00,4.5581
905.00,4.8993
904.00,4.7115
903.00,4.3129
902.00,4.1208
901.00,4.0084
900.00,3.9186
899.00,3.8760
898.00,3.9277
897.00,4.0378
896.00,4.0086
895.00,3.9312
894.00,3.9506
893.00,4.0348
892.00,4.1054
891.00,4.1326
890.00,4.1869
889.00,4.3306
888.00,4.3609
887.00,4.1638
886.00,4.0142
885.00,3.9362
884.00,3.8823
883.00,3.8280
882.00,3.7967
881.00,3.8221
880.00,3.8795
879.00,3.9277
878.00,3.9781
877.00,4.0029
876.00,3.9686
875.00,3.9350
874.00,3.9426
873.00,3.9884
872.00,4.0492
871.00,4.0918
870.00,4.0896
869.00,4.0642
868.00,4.1092
867.00,4.2507
866.00,4.4216
865.00,4.4543
864.00,4.1893
863.00,3.9751
862.00,3.8801
861.00,3.8353
860.00,3.8187
859.00,3.8112
858.00,3.7802
857.00,3.7622
856.00,3.8190
855.00,3.9605
854.00,4.1315
853.00,4.2267
852.00,4.3647
851.00,4.4485
850.00,4.1650
849.00,3.9886
848.00,3.9769
847.00,4.0846
846.00,4.1880
845.00,4.2883
844.00,4.4592
843.00,4.2339
842.00,4.0603
841.00,4.0930
840.00,4.3683
839.00,4.8176
838.00,4.4247
837.00,4.5274
836.00,4.7044
835.00,4.2427
834.00,4.1223
833.00,4.3692
832.00,4.8288
831.00,4.2820
830.00,4.2898
829.00,4.6583
828.00,4.5856
827.00,4.7746
826.00,4.3559
825.00,3.9148
824.00,3.7671
823.00,3.8061
822.00,4.0272
821.00,4.5089
820.00,5.0305
819.00,4.5584
818.00,4.2739
817.00,4.2054
816.00,4.2614
815.00,4.3300
814.00,4.3202
813.00,4.2487
812.00,4.1179
811.00,3.9986
810.00,3.9665
809.00,4.0215
808.00,4.1909
807.00,4.3888
806.00,4.2509
805.00,4.1259
804.00,4.1330
803.00,4.1584
802.00,4.1526
801.00,4.1664
800.00,4.2562
799.00,4.6261
798.00,4.7379
797.00,4.1871
796.00,4.0293
795.00,3.9858
794.00,4.0035
793.00,4.1390
792.00,4.0878
791.00,3.9184
790.00,3.9032
789.00,4.0743
788.00,4.5203
787.00,4.6556
786.00,4.6373
785.00,4.8999
784.00,4.2050
783.00,3.8883
782.00,3.7840
781.00,3.8106
780.00,3.9249
779.00,3.9389
778.00,3.8195
777.00,3.7198
776.00,3.7171
775.00,3.8066
774.00,3.9030
773.00,3.9546
772.00,4.0800
771.00,4.5122
770.00,4.6412
769.00,4.2451
768.00,4.2000
767.00,4.1111
766.00,4.0198
765.00,4.0958
764.00,4.2715
763.00,4.3564
762.00,4.3492
761.00,4.3675
760.00,4.3479
759.00,4.3301
758.00,4.2879
757.00,4.2275
756.00,4.2236
755.00,4.2303
754.00,4.2042
753.00,4.1825
752.00,4.1553
751.00,4.1095
750.00,4.0545
749.00,3.9599
748.00,3.8274
747.00,3.7253
746.00,3.6988
745.00,3.7551
744.00,3.8985
743.00,4.1174
742.00,4.5251
741.00,5.0225
740.00,4.5390
739.00,4.3686
738.00,4.2991
737.00,4.2563
736.00,4.2063
735.00,4.0561
734.00,3.9350
733.00,3.8664
732.00,3.8737
731.00,3.9474
730.00,4.1953
729.00,4.7472
728.00,4.5036
727.00,4.3469
726.00,4.3795
725.00,4.4170
724.00,4.4684
723.00,4.3845
722.00,4.3058
721.00,4.2574
720.00,4.2184
719.00,4.1761
718.00,4.1627
717.00,4.2069
716.00,4.2665
715.00,4.2538
714.00,4.1888
713.00,4.1357
712.00,4.0722
711.00,3.9650
710.00,3.8802
709.00,3.8599
708.00,3.9422
707.00,4.1114
706.00,4.4731
705.00,4.7321
704.00,4.1384
703.00,3.9074
702.00,3.8707
701.00,3.9419
700.00,4.0062
