Created as New Dataset,Sample 004 By Administrator Date Wednesday, November 24 2021
cm-1,A
7502.00,0.8194
7501.00,0.8225
7500.00,0.8245
7499.00,0.8261
7498.00,0.8282
7497.00,0.8308
7496.00,0.8326
7495.00,0.8329
7494.00,0.8319
7493.00,0.8311
7492.00,0.8314
7491.00,0.8325
7490.00,0.8336
7489.00,0.8341
7488.00,0.8336
7487.00,0.8323
7486.00,0.8300
7485.00,0.8263
7484.00,0.8209
7483.00,0.8142
7482.00,0.8073
7481.00,0.8013
7480.00,0.7962
7479.00,0.7916
7478.00,0.7873
7477.00,0.7832
7476.00,0.7790
7475.00,0.7744
7474.00,0.7695
7473.00,0.7648
7472.00,0.7605
7471.00,0.7557
7470.00,0.7498
7469.00,0.7427
7468.00,0.7350
7467.00,0.7272
7466.00,0.7195
7465.00,0.7116
7464.00,0.7033
7463.00,0.6943
7462.00,0.6846
7461.00,0.6750
7460.00,0.6658
7459.00,0.6574
7458.00,0.6496
7457.00,0.6422
7456.00,0.6353
7455.00,0.6290
7454.00,0.6234
7453.00,0.6179
7452.00,0.6121
7451.00,0.6056
7450.00,0.5990
7449.00,0.5928
7448.00,0.5875
7447.00,0.5830
7446.00,0.5789
7445.00,0.5747
7444.00,0.5702
7443.00,0.5656
7442.00,0.5611
7441.00,0.5568
7440.00,0.5525
7439.00,0.5483
7438.00,0.5444
7437.00,0.5411
7436.00,0.5385
7435.00,0.5363
7434.00,0.5345
7433.00,0.5330
7432.00,0.5317
7431.00,0.5303
7430.00,0.5290
7429.00,0.5283
7428.00,0.5284
7427.00,0.5294
7426.00,0.5308
7425.00,0.5323
7424.00,0.5337
7423.00,0.5352
7422.00,0.5371
7421.00,0.5396
7420.00,0.5422
7419.00,0.5448
7418.00,0.5475
7417.00,0.5509
7416.00,0.5554
7415.00,0.5607
7414.00,0.5660
7413.00,0.5711
7412.00,0.5761
7411.00,0.5815
7410.00,0.5879
7409.00,0.5950
7408.00,0.6023
7407.00,0.6096
7406.00,0.6170
7405.00,0.6249
7404.00,0.6331
7403.00,0.6411
7402.00,0.6486
7401.00,0.6561
7400.00,0.6638
7399.00,0.6721
7398.00,0.6809
7397.00,0.6900
7396.00,0.6992
7395.00,0.7083
7394.00,0.7174
7393.00,0.7267
7392.00,0.7360
7391.00,0.7450
7390.00,0.7537
7389.00,0.7624
7388.00,0.7713
7387.00,0.7800
7386.00,0.7884
7385.00,0.7964
7384.00,0.8045
7383.00,0.8131
7382.00,0.8223
7381.00,0.8319
7380.00,0.8416
7379.00,0.8509
7378.00,0.8594
7377.00,0.8673
7376.00,0.8748
7375.00,0.8822
7374.00,0.8891
7373.00,0.8953
7372.00,0.9009
7371.00,0.9068
7370.00,0.9132
7369.00,0.9197
7368.00,0.9256
7367.00,0.9308
7366.00,0.9361
7365.00,0.9422
7364.00,0.9491
7363.00,0.9557
7362.00,0.9612
7361.00,0.9658
7360.00,0.9698
7359.00,0.9735
7358.00,0.9768
7357.00,0.9796
7356.00,0.9823
7355.00,0.9852
7354.00,0.9885
7353.00,0.9917
7352.00,0.9942
7351.00,0.9956
7350.00,0.9964
7349.00,0.9969
7348.00,0.9973
7347.00,0.9976
7346.00,0.9978
7345.00,0.9979
7344.00,0.9975
7343.00,0.9964
7342.00,0.9950
7341.00,0.9936
7340.00,0.9918
7339.00,0.9890
7338.00,0.9855
7337.00,0.9818
7336.00,0.9784
7335.00,0.9749
7334.00,0.9708
7333.00,0.9661
7332.00,0.9613
7331.00,0.9566
7330.00,0.9521
7329.00,0.9476
7328.00,0.9428
7327.00,0.9374
7326.00,0.9313
7325.00,0.9247
7324.00,0.9176
7323.00,0.9102
7322.00,0.9026
7321.00,0.8947
7320.00,0.8868
7319.00,0.8790
7318.00,0.8712
7317.00,0.8636
7316.00,0.8559
7315.00,0.8480
7314.00,0.8400
7313.00,0.8319
7312.00,0.8237
7311.00,0.8154
7310.00,0.8071
7309.00,0.7988
7308.00,0.7902
7307.00,0.7815
7306.00,0.7729
7305.00,0.7647
7304.00,0.7568
7303.00,0.7490
7302.00,0.7412
7301.00,0.7337
7300.00,0.7265
7299.00,0.7196
7298.00,0.7129
7297.00,0.7065
7296.00,0.7004
7295.00,0.6946
7294.00,0.6893
7293.00,0.6846
7292.00,0.6803
7291.00,0.6763
7290.00,0.6725
7289.00,0.6691
7288.00,0.6664
7287.00,0.6642
7286.00,0.6625
7285.00,0.6610
7284.00,0.6597
7283.00,0.6589
7282.00,0.6586
7281.00,0.6589
7280.00,0.6593
7279.00,0.6599
7278.00,0.6609
7277.00,0.6629
7276.00,0.6657
7275.00,0.6692
7274.00,0.6729
7273.00,0.6768
7272.00,0.6809
7271.00,0.6853
7270.00,0.6899
7269.00,0.6949
7268.00,0.7001
7267.00,0.7056
7266.00,0.7116
7265.00,0.7181
7264.00,0.7248
7263.00,0.7316
7262.00,0.7386
7261.00,0.7457
7260.00,0.7531
7259.00,0.7607
7258.00,0.7686
7257.00,0.7768
7256.00,0.7852
7255.00,0.7935
7254.00,0.8017
7253.00,0.8100
7252.00,0.8185
7251.00,0.8270
7250.00,0.8352
7249.00,0.8432
7248.00,0.8512
7247.00,0.8594
7246.00,0.8679
7245.00,0.8763
7244.00,0.8845
7243.00,0.8924
7242.00,0.9005
7241.00,0.9089
7240.00,0.9171
7239.00,0.9246
7238.00,0.9313
7237.00,0.9379
7236.00,0.9448
7235.00,0.9522
7234.00,0.9595
7233.00,0.9666
7232.00,0.9734
7231.00,0.9800
7230.00,0.9864
7229.00,0.9924
7228.00,0.9978
7227.00,1.0027
7226.00,1.0074
7225.00,1.0119
7224.00,1.0166
7223.00,1.0216
7222.00,1.0271
7221.00,1.0324
7220.00,1.0371
7219.00,1.0408
7218.00,1.0438
7217.00,1.0466
7216.00,1.0491
7215.00,1.0510
7214.00,1.0521
7213.00,1.0528
7212.00,1.0533
7211.00,1.0540
7210.00,1.0546
7209.00,1.0546
7208.00,1.0542
7207.00,1.0536
7206.00,1.0532
7205.00,1.0531
7204.00,1.0532
7203.00,1.0529
7202.00,1.0518
7201.00,1.0498
7200.00,1.0471
7199.00,1.0438
7198.00,1.0399
7197.00,1.0353
7196.00,1.0305
7195.00,1.0260
7194.00,1.0217
7193.00,1.0177
7192.00,1.0137
7191.00,1.0095
7190.00,1.0048
7189.00,0.9995
7188.00,0.9932
7187.00,0.9862
7186.00,0.9789
7185.00,0.9716
7184.00,0.9643
7183.00,0.9571
7182.00,0.9501
7181.00,0.9434
7180.00,0.9369
7179.00,0.9304
7178.00,0.9235
7177.00,0.9161
7176.00,0.9085
7175.00,0.9006
7174.00,0.8925
7173.00,0.8840
7172.00,0.8752
7171.00,0.8662
7170.00,0.8573
7169.00,0.8484
7168.00,0.8393
7167.00,0.8303
7166.00,0.8215
7165.00,0.8131
7164.00,0.8048
7163.00,0.7965
7162.00,0.7885
7161.00,0.7809
7160.00,0.7739
7159.00,0.7670
7158.00,0.7601
7157.00,0.7533
7156.00,0.7467
7155.00,0.7404
7154.00,0.7346
7153.00,0.7290
7152.00,0.7238
7151.00,0.7188
7150.00,0.7142
7149.00,0.7102
7148.00,0.7066
7147.00,0.7035
7146.00,0.7006
7145.00,0.6981
7144.00,0.6961
7143.00,0.6946
7142.00,0.6937
7141.00,0.6930
7140.00,0.6926
7139.00,0.6925
7138.00,0.6930
7137.00,0.6941
7136.00,0.6959
7135.00,0.6982
7134.00,0.7009
7133.00,0.7039
7132.00,0.7069
7131.00,0.7101
7130.00,0.7137
7129.00,0.7178
7128.00,0.7225
7127.00,0.7275
7126.00,0.7329
7125.00,0.7386
7124.00,0.7446
7123.00,0.7508
7122.00,0.7573
7121.00,0.7640
7120.00,0.7709
7119.00,0.7780
7118.00,0.7853
7117.00,0.7931
7116.00,0.8011
7115.00,0.8093
7114.00,0.8174
7113.00,0.8255
7112.00,0.8338
7111.00,0.8421
7110.00,0.8503
7109.00,0.8585
7108.00,0.8667
7107.00,0.8752
7106.00,0.8838
7105.00,0.8926
7104.00,0.9014
7103.00,0.9104
7102.00,0.9194
7101.00,0.9280
7100.00,0.9361
7099.00,0.9439
7098.00,0.9518
7097.00,0.9601
7096.00,0.9688
7095.00,0.9777
7094.00,0.9863
7093.00,0.9945
7092.00,1.0022
7091.00,1.0096
7090.00,1.0165
7089.00,1.0231
7088.00,1.0293
7087.00,1.0356
7086.00,1.0422
7085.00,1.0489
7084.00,1.0555
7083.00,1.0618
7082.00,1.0679
7081.00,1.0735
7080.00,1.0785
7079.00,1.0829
7078.00,1.0870
7077.00,1.0910
7076.00,1.0948
7075.00,1.0982
7074.00,1.1015
7073.00,1.1051
7072.00,1.1088
7071.00,1.1123
7070.00,1.1154
7069.00,1.1183
7068.00,1.1208
7067.00,1.1227
7066.00,1.1236
7065.00,1.1235
7064.00,1.1230
7063.00,1.1225
7062.00,1.1223
7061.00,1.1222
7060.00,1.1220
7059.00,1.1219
7058.00,1.1216
7057.00,1.1204
7056.00,1.1178
7055.00,1.1140
7054.00,1.1101
7053.00,1.1066
7052.00,1.1033
7051.00,1.0996
7050.00,1.0958
7049.00,1.0923
7048.00,1.0886
7047.00,1.0840
7046.00,1.0784
7045.00,1.0720
7044.00,1.0652
7043.00,1.0582
7042.00,1.0514
7041.00,1.0450
7040.00,1.0386
7039.00,1.0318
7038.00,1.0244
7037.00,1.0168
7036.00,1.0092
7035.00,1.0012
7034.00,0.9928
7033.00,0.9839
7032.00,0.9750
7031.00,0.9660
7030.00,0.9571
7029.00,0.9482
7028.00,0.9395
7027.00,0.9308
7026.00,0.9220
7025.00,0.9131
7024.00,0.9042
7023.00,0.8952
7022.00,0.8862
7021.00,0.8773
7020.00,0.8686
7019.00,0.8599
7018.00,0.8512
7017.00,0.8426
7016.00,0.8341
7015.00,0.8258
7014.00,0.8179
7013.00,0.8106
7012.00,0.8037
7011.00,0.7974
7010.00,0.7914
7009.00,0.7855
7008.00,0.7797
7007.00,0.7741
7006.00,0.7689
7005.00,0.7641
7004.00,0.7597
7003.00,0.7557
7002.00,0.7522
7001.00,0.7491
7000.00,0.7466
6999.00,0.7445
6998.00,0.7430
6997.00,0.7421
6996.00,0.7417
6995.00,0.7419
6994.00,0.7427
6993.00,0.7442
6992.00,0.7459
6991.00,0.7479
6990.00,0.7504
6989.00,0.7535
6988.00,0.7572
6987.00,0.7611
6986.00,0.7651
6985.00,0.7695
6984.00,0.7744
6983.00,0.7797
6982.00,0.7853
6981.00,0.7912
6980.00,0.7974
6979.00,0.8038
6978.00,0.8104
6977.00,0.8172
6976.00,0.8241
6975.00,0.8314
6974.00,0.8390
6973.00,0.8469
6972.00,0.8549
6971.00,0.8628
6970.00,0.8708
6969.00,0.8789
6968.00,0.8872
6967.00,0.8955
6966.00,0.9039
6965.00,0.9125
6964.00,0.9212
6963.00,0.9299
6962.00,0.9383
6961.00,0.9465
6960.00,0.9547
6959.00,0.9629
6958.00,0.9712
6957.00,0.9795
6956.00,0.9876
6955.00,0.9954
6954.00,1.0033
6953.00,1.0113
6952.00,1.0194
6951.00,1.0274
6950.00,1.0351
6949.00,1.0427
6948.00,1.0498
6947.00,1.0565
6946.00,1.0628
6945.00,1.0690
6944.00,1.0752
6943.00,1.0815
6942.00,1.0875
6941.00,1.0931
6940.00,1.0982
6939.00,1.1029
6938.00,1.1073
6937.00,1.1111
6936.00,1.1145
6935.00,1.1178
6934.00,1.1216
6933.00,1.1255
6932.00,1.1290
6931.00,1.1317
6930.00,1.1338
6929.00,1.1355
6928.00,1.1369
6927.00,1.1378
6926.00,1.1384
6925.00,1.1387
6924.00,1.1388
6923.00,1.1389
6922.00,1.1387
6921.00,1.1382
6920.00,1.1373
6919.00,1.1360
6918.00,1.1347
6917.00,1.1333
6916.00,1.1313
6915.00,1.1285
6914.00,1.1252
6913.00,1.1217
6912.00,1.1177
6911.00,1.1130
6910.00,1.1080
6909.00,1.1032
6908.00,1.0986
6907.00,1.0937
6906.00,1.0884
6905.00,1.0829
6904.00,1.0773
6903.00,1.0712
6902.00,1.0644
6901.00,1.0571
6900.00,1.0498
6899.00,1.0426
6898.00,1.0353
6897.00,1.0277
6896.00,1.0199
6895.00,1.0120
6894.00,1.0040
6893.00,0.9957
6892.00,0.9869
6891.00,0.9776
6890.00,0.9681
6889.00,0.9584
6888.00,0.9490
6887.00,0.9396
6886.00,0.9304
6885.00,0.9212
6884.00,0.9120
6883.00,0.9029
6882.00,0.8939
6881.00,0.8850
6880.00,0.8760
6879.00,0.8668
6878.00,0.8575
6877.00,0.8485
6876.00,0.8397
6875.00,0.8311
6874.00,0.8229
6873.00,0.8151
6872.00,0.8077
6871.00,0.8007
6870.00,0.7941
6869.00,0.7877
6868.00,0.7815
6867.00,0.7753
6866.00,0.7693
6865.00,0.7638
6864.00,0.7589
6863.00,0.7546
6862.00,0.7508
6861.00,0.7475
6860.00,0.7447
6859.00,0.7422
6858.00,0.7402
6857.00,0.7388
6856.00,0.7377
6855.00,0.7370
6854.00,0.7367
6853.00,0.7369
6852.00,0.7377
6851.00,0.7388
6850.00,0.7403
6849.00,0.7421
6848.00,0.7443
6847.00,0.7470
6846.00,0.7503
6845.00,0.7543
6844.00,0.7588
6843.00,0.7636
6842.00,0.7688
6841.00,0.7743
6840.00,0.7803
6839.00,0.7865
6838.00,0.7928
6837.00,0.7993
6836.00,0.8059
6835.00,0.8129
6834.00,0.8202
6833.00,0.8279
6832.00,0.8358
6831.00,0.8438
6830.00,0.8518
6829.00,0.8602
6828.00,0.8687
6827.00,0.8774
6826.00,0.8861
6825.00,0.8950
6824.00,0.9039
6823.00,0.9128
6822.00,0.9218
6821.00,0.9308
6820.00,0.9399
6819.00,0.9489
6818.00,0.9577
6817.00,0.9663
6816.00,0.9750
6815.00,0.9838
6814.00,0.9927
6813.00,1.0014
6812.00,1.0097
6811.00,1.0178
6810.00,1.0260
6809.00,1.0344
6808.00,1.0430
6807.00,1.0515
6806.00,1.0597
6805.00,1.0675
6804.00,1.0752
6803.00,1.0827
6802.00,1.0898
6801.00,1.0961
6800.00,1.1017
6799.00,1.1073
6798.00,1.1133
6797.00,1.1193
6796.00,1.1247
6795.00,1.1293
6794.00,1.1337
6793.00,1.1386
6792.00,1.1437
6791.00,1.1484
6790.00,1.1525
6789.00,1.1565
6788.00,1.1604
6787.00,1.1640
6786.00,1.1670
6785.00,1.1693
6784.00,1.1713
6783.00,1.1730
6782.00,1.1745
6781.00,1.1756
6780.00,1.1763
6779.00,1.1766
6778.00,1.1765
6777.00,1.1762
6776.00,1.1758
6775.00,1.1755
6774.00,1.1749
6773.00,1.1740
6772.00,1.1725
6771.00,1.1704
6770.00,1.1681
6769.00,1.1652
6768.00,1.1617
6767.00,1.1576
6766.00,1.1536
6765.00,1.1499
6764.00,1.1463
6763.00,1.1419
6762.00,1.1366
6761.00,1.1307
6760.00,1.1243
6759.00,1.1174
6758.00,1.1101
6757.00,1.1029
6756.00,1.0960
6755.00,1.0893
6754.00,1.0824
6753.00,1.0751
6752.00,1.0671
6751.00,1.0585
6750.00,1.0494
6749.00,1.0404
6748.00,1.0316
6747.00,1.0230
6746.00,1.0144
6745.00,1.0055
6744.00,0.9963
6743.00,0.9868
6742.00,0.9770
6741.00,0.9669
6740.00,0.9567
6739.00,0.9466
6738.00,0.9367
6737.00,0.9271
6736.00,0.9174
6735.00,0.9076
6734.00,0.8979
6733.00,0.8883
6732.00,0.8788
6731.00,0.8697
6730.00,0.8610
6729.00,0.8527
6728.00,0.8447
6727.00,0.8368
6726.00,0.8294
6725.00,0.8223
6724.00,0.8153
6723.00,0.8083
6722.00,0.8015
6721.00,0.7954
6720.00,0.7899
6719.00,0.7850
6718.00,0.7806
6717.00,0.7767
6716.00,0.7732
6715.00,0.7703
6714.00,0.7679
6713.00,0.7660
6712.00,0.7647
6711.00,0.7638
6710.00,0.7636
6709.00,0.7642
6708.00,0.7652
6707.00,0.7666
6706.00,0.7683
6705.00,0.7704
6704.00,0.7731
6703.00,0.7762
6702.00,0.7796
6701.00,0.7835
6700.00,0.7878
6699.00,0.7926
6698.00,0.7980
6697.00,0.8039
6696.00,0.8101
6695.00,0.8166
6694.00,0.8233
6693.00,0.8304
6692.00,0.8377
6691.00,0.8450
6690.00,0.8525
6689.00,0.8604
6688.00,0.8686
6687.00,0.8771
6686.00,0.8856
6685.00,0.8942
6684.00,0.9028
6683.00,0.9116
6682.00,0.9204
6681.00,0.9292
6680.00,0.9380
6679.00,0.9469
6678.00,0.9559
6677.00,0.9649
6676.00,0.9738
6675.00,0.9824
6674.00,0.9910
6673.00,0.9996
6672.00,1.0081
6671.00,1.0164
6670.00,1.0245
6669.00,1.0326
6668.00,1.0407
6667.00,1.0486
6666.00,1.0564
6665.00,1.0640
6664.00,1.0712
6663.00,1.0780
6662.00,1.0848
6661.00,1.0915
6660.00,1.0982
6659.00,1.1046
6658.00,1.1111
6657.00,1.1176
6656.00,1.1241
6655.00,1.1302
6654.00,1.1358
6653.00,1.1409
6652.00,1.1455
6651.00,1.1493
6650.00,1.1527
6649.00,1.1560
6648.00,1.1593
6647.00,1.1625
6646.00,1.1655
6645.00,1.1685
6644.00,1.1714
6643.00,1.1738
6642.00,1.1753
6641.00,1.1759
6640.00,1.1760
6639.00,1.1757
6638.00,1.1753
6637.00,1.1751
6636.00,1.1749
6635.00,1.1745
6634.00,1.1737
6633.00,1.1723
6632.00,1.1702
6631.00,1.1674
6630.00,1.1643
6629.00,1.1612
6628.00,1.1579
6627.00,1.1542
6626.00,1.1504
6625.00,1.1466
6624.00,1.1425
6623.00,1.1376
6622.00,1.1319
6621.00,1.1257
6620.00,1.1196
6619.00,1.1135
6618.00,1.1069
6617.00,1.0998
6616.00,1.0924
6615.00,1.0850
6614.00,1.0777
6613.00,1.0704
6612.00,1.0627
6611.00,1.0544
6610.00,1.0458
6609.00,1.0370
6608.00,1.0280
6607.00,1.0188
6606.00,1.0093
6605.00,0.9997
6604.00,0.9900
6603.00,0.9803
6602.00,0.9703
6601.00,0.9602
6600.00,0.9499
6599.00,0.9398
6598.00,0.9299
6597.00,0.9204
6596.00,0.9112
6595.00,0.9020
6594.00,0.8928
6593.00,0.8837
6592.00,0.8746
6591.00,0.8656
6590.00,0.8566
6589.00,0.8478
6588.00,0.8393
6587.00,0.8310
6586.00,0.8230
6585.00,0.8153
6584.00,0.8079
6583.00,0.8007
6582.00,0.7939
6581.00,0.7876
6580.00,0.7817
6579.00,0.7761
6578.00,0.7709
6577.00,0.7662
6576.00,0.7619
6575.00,0.7580
6574.00,0.7546
6573.00,0.7517
6572.00,0.7494
6571.00,0.7476
6570.00,0.7463
6569.00,0.7456
6568.00,0.7452
6567.00,0.7454
6566.00,0.7460
6565.00,0.7472
6564.00,0.7489
6563.00,0.7510
6562.00,0.7536
6561.00,0.7567
6560.00,0.7602
6559.00,0.7642
6558.00,0.7687
6557.00,0.7738
6556.00,0.7795
6555.00,0.7855
6554.00,0.7920
6553.00,0.7988
6552.00,0.8059
6551.00,0.8130
6550.00,0.8203
6549.00,0.8279
6548.00,0.8357
6547.00,0.8437
6546.00,0.8518
6545.00,0.8602
6544.00,0.8688
6543.00,0.8778
6542.00,0.8869
6541.00,0.8961
6540.00,0.9055
6539.00,0.9149
6538.00,0.9243
6537.00,0.9337
6536.00,0.9429
6535.00,0.9520
6534.00,0.9610
6533.00,0.9701
6532.00,0.9793
6531.00,0.9887
6530.00,0.9982
6529.00,1.0078
6528.00,1.0170
6527.00,1.0258
6526.00,1.0342
6525.00,1.0424
6524.00,1.0504
6523.00,1.0585
6522.00,1.0666
6521.00,1.0748
6520.00,1.0830
6519.00,1.0911
6518.00,1.0989
6517.00,1.1062
6516.00,1.1130
6515.00,1.1196
6514.00,1.1263
6513.00,1.1330
6512.00,1.1394
6511.00,1.1454
6510.00,1.1510
6509.00,1.1564
6508.00,1.1614
6507.00,1.1660
6506.00,1.1702
6505.00,1.1743
6504.00,1.1785
6503.00,1.1824
6502.00,1.1859
6501.00,1.1889
6500.00,1.1915
6499.00,1.1936
6498.00,1.1953
6497.00,1.1966
6496.00,1.1976
6495.00,1.1984
6494.00,1.1989
6493.00,1.1990
6492.00,1.1989
6491.00,1.1984
6490.00,1.1976
6489.00,1.1966
6488.00,1.1953
6487.00,1.1934
6486.00,1.1910
6485.00,1.1881
6484.00,1.1847
6483.00,1.1811
6482.00,1.1773
6481.00,1.1737
6480.00,1.1700
6479.00,1.1657
6478.00,1.1607
6477.00,1.1551
6476.00,1.1490
6475.00,1.1425
6474.00,1.1356
6473.00,1.1286
6472.00,1.1216
6471.00,1.1142
6470.00,1.1065
6469.00,1.0985
6468.00,1.0903
6467.00,1.0819
6466.00,1.0732
6465.00,1.0644
6464.00,1.0556
6463.00,1.0466
6462.00,1.0371
6461.00,1.0272
6460.00,1.0171
6459.00,1.0069
6458.00,0.9969
6457.00,0.9868
6456.00,0.9766
6455.00,0.9662
6454.00,0.9556
6453.00,0.9450
6452.00,0.9343
6451.00,0.9236
6450.00,0.9132
6449.00,0.9030
6448.00,0.8929
6447.00,0.8831
6446.00,0.8734
6445.00,0.8639
6444.00,0.8544
6443.00,0.8450
6442.00,0.8359
6441.00,0.8273
6440.00,0.8191
6439.00,0.8112
6438.00,0.8037
6437.00,0.7968
6436.00,0.7905
6435.00,0.7845
6434.00,0.7788
6433.00,0.7736
6432.00,0.7690
6431.00,0.7649
6430.00,0.7613
6429.00,0.7583
6428.00,0.7560
6427.00,0.7542
6426.00,0.7531
6425.00,0.7527
6424.00,0.7528
6423.00,0.7534
6422.00,0.7545
6421.00,0.7562
6420.00,0.7583
6419.00,0.7609
6418.00,0.7639
6417.00,0.7674
6416.00,0.7714
6415.00,0.7760
6414.00,0.7812
6413.00,0.7868
6412.00,0.7929
6411.00,0.7993
6410.00,0.8061
6409.00,0.8131
6408.00,0.8204
6407.00,0.8280
6406.00,0.8359
6405.00,0.8443
6404.00,0.8529
6403.00,0.8615
6402.00,0.8700
6401.00,0.8786
6400.00,0.8872
6399.00,0.8960
6398.00,0.9049
6397.00,0.9141
6396.00,0.9233
6395.00,0.9327
6394.00,0.9421
6393.00,0.9516
6392.00,0.9609
6391.00,0.9700
6390.00,0.9790
6389.00,0.9881
6388.00,0.9972
6387.00,1.0063
6386.00,1.0153
6385.00,1.0244
6384.00,1.0336
6383.00,1.0428
6382.00,1.0520
6381.00,1.0608
6380.00,1.0692
6379.00,1.0772
6378.00,1.0847
6377.00,1.0918
6376.00,1.0987
6375.00,1.1054
6374.00,1.1121
6373.00,1.1185
6372.00,1.1246
6371.00,1.1307
6370.00,1.1367
6369.00,1.1424
6368.00,1.1475
6367.00,1.1521
6366.00,1.1564
6365.00,1.1608
6364.00,1.1648
6363.00,1.1683
6362.00,1.1714
6361.00,1.1744
6360.00,1.1773
6359.00,1.1797
6358.00,1.1816
6357.00,1.1831
6356.00,1.1844
6355.00,1.1852
6354.00,1.1857
6353.00,1.1857
6352.00,1.1855
6351.00,1.1850
6350.00,1.1842
6349.00,1.1831
6348.00,1.1818
6347.00,1.1802
6346.00,1.1782
6345.00,1.1758
6344.00,1.1730
6343.00,1.1699
6342.00,1.1668
6341.00,1.1637
6340.00,1.1604
6339.00,1.1567
6338.00,1.1528
6337.00,1.1486
6336.00,1.1440
6335.00,1.1388
6334.00,1.1334
6333.00,1.1280
6332.00,1.1229
6331.00,1.1176
6330.00,1.1118
6329.00,1.1055
6328.00,1.0989
6327.00,1.0917
6326.00,1.0838
6325.00,1.0753
6324.00,1.0662
6323.00,1.0568
6322.00,1.0469
6321.00,1.0366
6320.00,1.0259
6319.00,1.0149
6318.00,1.0039
6317.00,0.9930
6316.00,0.9821
6315.00,0.9708
6314.00,0.9593
6313.00,0.9477
6312.00,0.9362
6311.00,0.9247
6310.00,0.9132
6309.00,0.9019
6308.00,0.8909
6307.00,0.8803
6306.00,0.8699
6305.00,0.8597
6304.00,0.8496
6303.00,0.8398
6302.00,0.8303
6301.00,0.8211
6300.00,0.8122
6299.00,0.8035
6298.00,0.7951
6297.00,0.7870
6296.00,0.7794
6295.00,0.7723
6294.00,0.7656
6293.00,0.7595
6292.00,0.7540
6291.00,0.7490
6290.00,0.7444
6289.00,0.7403
6288.00,0.7368
6287.00,0.7338
6286.00,0.7313
6285.00,0.7293
6284.00,0.7278
6283.00,0.7267
6282.00,0.7262
6281.00,0.7264
6280.00,0.7273
6279.00,0.7288
6278.00,0.7309
6277.00,0.7336
6276.00,0.7368
6275.00,0.7405
6274.00,0.7447
6273.00,0.7494
6272.00,0.7546
6271.00,0.7603
6270.00,0.7664
6269.00,0.7728
6268.00,0.7795
6267.00,0.7865
6266.00,0.7939
6265.00,0.8017
6264.00,0.8098
6263.00,0.8182
6262.00,0.8269
6261.00,0.8359
6260.00,0.8451
6259.00,0.8543
6258.00,0.8635
6257.00,0.8728
6256.00,0.8823
6255.00,0.8921
6254.00,0.9020
6253.00,0.9119
6252.00,0.9220
6251.00,0.9319
6250.00,0.9417
6249.00,0.9512
6248.00,0.9607
6247.00,0.9703
6246.00,0.9802
6245.00,0.9903
6244.00,1.0001
6243.00,1.0098
6242.00,1.0192
6241.00,1.0284
6240.00,1.0375
6239.00,1.0466
6238.00,1.0557
6237.00,1.0648
6236.00,1.0737
6235.00,1.0822
6234.00,1.0904
6233.00,1.0984
6232.00,1.1060
6231.00,1.1132
6230.00,1.1199
6229.00,1.1265
6228.00,1.1330
6227.00,1.1392
6226.00,1.1451
6225.00,1.1508
6224.00,1.1564
6223.00,1.1619
6222.00,1.1670
6221.00,1.1716
6220.00,1.1756
6219.00,1.1793
6218.00,1.1827
6217.00,1.1856
6216.00,1.1883
6215.00,1.1907
6214.00,1.1932
6213.00,1.1954
6212.00,1.1972
6211.00,1.1985
6210.00,1.1993
6209.00,1.1999
6208.00,1.2001
6207.00,1.2000
6206.00,1.1997
6205.00,1.1992
6204.00,1.1983
6203.00,1.1968
6202.00,1.1947
6201.00,1.1924
6200.00,1.1897
6199.00,1.1866
6198.00,1.1832
6197.00,1.1795
6196.00,1.1751
6195.00,1.1701
6194.00,1.1645
6193.00,1.1586
6192.00,1.1523
6191.00,1.1459
6190.00,1.1394
6189.00,1.1331
6188.00,1.1269
6187.00,1.1203
6186.00,1.1133
6185.00,1.1059
6184.00,1.0980
6183.00,1.0896
6182.00,1.0807
6181.00,1.0713
6180.00,1.0618
6179.00,1.0521
6178.00,1.0422
6177.00,1.0321
6176.00,1.0218
6175.00,1.0115
6174.00,1.0009
6173.00,0.9901
6172.00,0.9791
6171.00,0.9678
6170.00,0.9565
6169.00,0.9451
6168.00,0.9337
6167.00,0.9224
6166.00,0.9111
6165.00,0.8998
6164.00,0.8885
6163.00,0.8772
6162.00,0.8662
6161.00,0.8555
6160.00,0.8451
6159.00,0.8349
6158.00,0.8249
6157.00,0.8152
6156.00,0.8058
6155.00,0.7967
6154.00,0.7879
6153.00,0.7796
6152.00,0.7719
6151.00,0.7646
6150.00,0.7577
6149.00,0.7512
6148.00,0.7453
6147.00,0.7399
6146.00,0.7352
6145.00,0.7312
6144.00,0.7278
6143.00,0.7251
6142.00,0.7229
6141.00,0.7214
6140.00,0.7205
6139.00,0.7203
6138.00,0.7206
6137.00,0.7217
6136.00,0.7233
6135.00,0.7255
6134.00,0.7282
6133.00,0.7314
6132.00,0.7352
6131.00,0.7395
6130.00,0.7443
6129.00,0.7497
6128.00,0.7555
6127.00,0.7619
6126.00,0.7687
6125.00,0.7760
6124.00,0.7835
6123.00,0.7914
6122.00,0.7996
6121.00,0.8080
6120.00,0.8165
6119.00,0.8252
6118.00,0.8341
6117.00,0.8433
6116.00,0.8527
6115.00,0.8622
6114.00,0.8719
6113.00,0.8817
6112.00,0.8917
6111.00,0.9018
6110.00,0.9118
6109.00,0.9218
6108.00,0.9317
6107.00,0.9416
6106.00,0.9515
6105.00,0.9615
6104.00,0.9715
6103.00,0.9814
6102.00,0.9914
6101.00,1.0011
6100.00,1.0107
6099.00,1.0201
6098.00,1.0293
6097.00,1.0383
6096.00,1.0472
6095.00,1.0559
6094.00,1.0644
6093.00,1.0727
6092.00,1.0808
6091.00,1.0886
6090.00,1.0962
6089.00,1.1036
6088.00,1.1107
6087.00,1.1176
6086.00,1.1243
6085.00,1.1309
6084.00,1.1372
6083.00,1.1429
6082.00,1.1482
6081.00,1.1530
6080.00,1.1574
6079.00,1.1616
6078.00,1.1657
6077.00,1.1697
6076.00,1.1731
6075.00,1.1759
6074.00,1.1781
6073.00,1.1799
6072.00,1.1815
6071.00,1.1830
6070.00,1.1845
6069.00,1.1859
6068.00,1.1868
6067.00,1.1868
6066.00,1.1862
6065.00,1.1853
6064.00,1.1842
6063.00,1.1830
6062.00,1.1815
6061.00,1.1798
6060.00,1.1775
6059.00,1.1747
6058.00,1.1712
6057.00,1.1673
6056.00,1.1632
6055.00,1.1591
6054.00,1.1550
6053.00,1.1509
6052.00,1.1467
6051.00,1.1420
6050.00,1.1369
6049.00,1.1313
6048.00,1.1254
6047.00,1.1190
6046.00,1.1122
6045.00,1.1050
6044.00,1.0973
6043.00,1.0893
6042.00,1.0812
6041.00,1.0729
6040.00,1.0645
6039.00,1.0559
6038.00,1.0471
6037.00,1.0379
6036.00,1.0284
6035.00,1.0184
6034.00,1.0080
6033.00,0.9975
6032.00,0.9870
6031.00,0.9764
6030.00,0.9657
6029.00,0.9550
6028.00,0.9441
6027.00,0.9331
6026.00,0.9219
6025.00,0.9105
6024.00,0.8991
6023.00,0.8878
6022.00,0.8766
6021.00,0.8655
6020.00,0.8546
6019.00,0.8439
6018.00,0.8335
6017.00,0.8233
6016.00,0.8131
6015.00,0.8031
6014.00,0.7933
6013.00,0.7840
6012.00,0.7750
6011.00,0.7664
6010.00,0.7582
6009.00,0.7506
6008.00,0.7434
6007.00,0.7367
6006.00,0.7306
6005.00,0.7251
6004.00,0.7201
6003.00,0.7158
6002.00,0.7121
6001.00,0.7092
6000.00,0.7068
5999.00,0.7050
5998.00,0.7037
5997.00,0.7033
5996.00,0.7034
5995.00,0.7041
5994.00,0.7054
5993.00,0.7074
5992.00,0.7102
5991.00,0.7137
5990.00,0.7176
5989.00,0.7221
5988.00,0.7270
5987.00,0.7324
5986.00,0.7382
5985.00,0.7446
5984.00,0.7513
5983.00,0.7584
5982.00,0.7660
5981.00,0.7740
5980.00,0.7823
5979.00,0.7909
5978.00,0.7999
5977.00,0.8093
5976.00,0.8191
5975.00,0.8290
5974.00,0.8391
5973.00,0.8492
5972.00,0.8595
5971.00,0.8698
5970.00,0.8803
5969.00,0.8910
5968.00,0.9018
5967.00,0.9127
5966.00,0.9236
5965.00,0.9347
5964.00,0.9458
5963.00,0.9568
5962.00,0.9676
5961.00,0.9784
5960.00,0.9892
5959.00,0.9999
5958.00,1.0105
5957.00,1.0209
5956.00,1.0310
5955.00,1.0409
5954.00,1.0504
5953.00,1.0596
5952.00,1.0684
5951.00,1.0769
5950.00,1.0851
5949.00,1.0931
5948.00,1.1008
5947.00,1.1081
5946.00,1.1151
5945.00,1.1217
5944.00,1.1281
5943.00,1.1342
5942.00,1.1402
5941.00,1.1462
5940.00,1.1523
5939.00,1.1583
5938.00,1.1640
5937.00,1.1693
5936.00,1.1742
5935.00,1.1785
5934.00,1.1822
5933.00,1.1857
5932.00,1.1890
5931.00,1.1924
5930.00,1.1955
5929.00,1.1981
5928.00,1.2002
5927.00,1.2017
5926.00,1.2028
5925.00,1.2034
5924.00,1.2037
5923.00,1.2037
5922.00,1.2035
5921.00,1.2031
5920.00,1.2024
5919.00,1.2014
5918.00,1.1998
5917.00,1.1977
5916.00,1.1954
5915.00,1.1928
5914.00,1.1901
5913.00,1.1870
5912.00,1.1835
5911.00,1.1796
5910.00,1.1752
5909.00,1.1701
5908.00,1.1644
5907.00,1.1583
5906.00,1.1519
5905.00,1.1453
5904.00,1.1386
5903.00,1.1315
5902.00,1.1240
5901.00,1.1162
5900.00,1.1080
5899.00,1.0995
5898.00,1.0907
5897.00,1.0816
5896.00,1.0724
5895.00,1.0629
5894.00,1.0531
5893.00,1.0428
5892.00,1.0321
5891.00,1.0211
5890.00,1.0100
5889.00,0.9988
5888.00,0.9876
5887.00,0.9761
5886.00,0.9645
5885.00,0.9528
5884.00,0.9409
5883.00,0.9287
5882.00,0.9163
5881.00,0.9040
5880.00,0.8917
5879.00,0.8796
5878.00,0.8676
5877.00,0.8558
5876.00,0.8441
5875.00,0.8327
5874.00,0.8216
5873.00,0.8108
5872.00,0.8004
5871.00,0.7902
5870.00,0.7804
5869.00,0.7710
5868.00,0.7619
5867.00,0.7534
5866.00,0.7453
5865.00,0.7379
5864.00,0.7311
5863.00,0.7250
5862.00,0.7196
5861.00,0.7149
5860.00,0.7107
5859.00,0.7071
5858.00,0.7041
5857.00,0.7017
5856.00,0.6999
5855.00,0.6988
5854.00,0.6986
5853.00,0.6992
5852.00,0.7008
5851.00,0.7030
5850.00,0.7059
5849.00,0.7092
5848.00,0.7129
5847.00,0.7172
5846.00,0.7222
5845.00,0.7280
5844.00,0.7345
5843.00,0.7416
5842.00,0.7491
5841.00,0.7570
5840.00,0.7651
5839.00,0.7733
5838.00,0.7818
5837.00,0.7906
5836.00,0.7998
5835.00,0.8091
5834.00,0.8187
5833.00,0.8283
5832.00,0.8379
5831.00,0.8476
5830.00,0.8576
5829.00,0.8678
5828.00,0.8783
5827.00,0.8888
5826.00,0.8993
5825.00,0.9097
5824.00,0.9199
5823.00,0.9299
5822.00,0.9401
5821.00,0.9505
5820.00,0.9611
5819.00,0.9719
5818.00,0.9827
5817.00,0.9933
5816.00,1.0035
5815.00,1.0134
5814.00,1.0230
5813.00,1.0327
5812.00,1.0421
5811.00,1.0513
5810.00,1.0604
5809.00,1.0695
5808.00,1.0784
5807.00,1.0870
5806.00,1.0954
5805.00,1.1037
5804.00,1.1119
5803.00,1.1200
5802.00,1.1278
5801.00,1.1352
5800.00,1.1422
5799.00,1.1488
5798.00,1.1552
5797.00,1.1612
5796.00,1.1668
5795.00,1.1722
5794.00,1.1774
5793.00,1.1824
5792.00,1.1870
5791.00,1.1911
5790.00,1.1947
5789.00,1.1979
5788.00,1.2006
5787.00,1.2029
5786.00,1.2049
5785.00,1.2068
5784.00,1.2083
5783.00,1.2094
5782.00,1.2101
5781.00,1.2104
5780.00,1.2102
5779.00,1.2095
5778.00,1.2087
5777.00,1.2078
5776.00,1.2067
5775.00,1.2053
5774.00,1.2036
5773.00,1.2014
5772.00,1.1987
5771.00,1.1953
5770.00,1.1915
5769.00,1.1874
5768.00,1.1831
5767.00,1.1784
5766.00,1.1735
5765.00,1.1682
5764.00,1.1624
5763.00,1.1560
5762.00,1.1491
5761.00,1.1419
5760.00,1.1346
5759.00,1.1272
5758.00,1.1196
5757.00,1.1118
5756.00,1.1035
5755.00,1.0947
5754.00,1.0854
5753.00,1.0758
5752.00,1.0659
5751.00,1.0557
5750.00,1.0453
5749.00,1.0347
5748.00,1.0237
5747.00,1.0123
5746.00,1.0007
5745.00,0.9890
5744.00,0.9772
5743.00,0.9652
5742.00,0.9530
5741.00,0.9405
5740.00,0.9279
5739.00,0.9153
5738.00,0.9028
5737.00,0.8903
5736.00,0.8779
5735.00,0.8655
5734.00,0.8532
5733.00,0.8411
5732.00,0.8291
5731.00,0.8172
5730.00,0.8056
5729.00,0.7945
5728.00,0.7838
5727.00,0.7735
5726.00,0.7635
5725.00,0.7539
5724.00,0.7448
5723.00,0.7362
5722.00,0.7281
5721.00,0.7207
5720.00,0.7139
5719.00,0.7077
5718.00,0.7021
5717.00,0.6971
5716.00,0.6928
5715.00,0.6892
5714.00,0.6864
5713.00,0.6844
5712.00,0.6831
5711.00,0.6825
5710.00,0.6825
5709.00,0.6831
5708.00,0.6845
5707.00,0.6865
5706.00,0.6893
5705.00,0.6927
5704.00,0.6968
5703.00,0.7014
5702.00,0.7065
5701.00,0.7123
5700.00,0.7187
5699.00,0.7257
5698.00,0.7332
5697.00,0.7412
5696.00,0.7495
5695.00,0.7581
5694.00,0.7670
5693.00,0.7763
5692.00,0.7859
5691.00,0.7958
5690.00,0.8059
5689.00,0.8164
5688.00,0.8270
5687.00,0.8377
5686.00,0.8487
5685.00,0.8600
5684.00,0.8714
5683.00,0.8828
5682.00,0.8942
5681.00,0.9056
5680.00,0.9169
5679.00,0.9282
5678.00,0.9396
5677.00,0.9510
5676.00,0.9624
5675.00,0.9738
5674.00,0.9850
5673.00,0.9961
5672.00,1.0070
5671.00,1.0178
5670.00,1.0285
5669.00,1.0391
5668.00,1.0493
5667.00,1.0593
5666.00,1.0690
5665.00,1.0785
5664.00,1.0878
5663.00,1.0968
5662.00,1.1057
5661.00,1.1146
5660.00,1.1232
5659.00,1.1312
5658.00,1.1389
5657.00,1.1464
5656.00,1.1536
5655.00,1.1603
5654.00,1.1666
5653.00,1.1728
5652.00,1.1788
5651.00,1.1846
5650.00,1.1901
5649.00,1.1952
5648.00,1.1999
5647.00,1.2039
5646.00,1.2073
5645.00,1.2103
5644.00,1.2130
5643.00,1.2157
5642.00,1.2182
5641.00,1.2203
5640.00,1.2216
5639.00,1.2223
5638.00,1.2228
5637.00,1.2232
5636.00,1.2235
5635.00,1.2234
5634.00,1.2230
5633.00,1.2222
5632.00,1.2208
5631.00,1.2189
5630.00,1.2164
5629.00,1.2136
5628.00,1.2105
5627.00,1.2069
5626.00,1.2030
5625.00,1.1987
5624.00,1.1942
5623.00,1.1894
5622.00,1.1840
5621.00,1.1783
5620.00,1.1721
5619.00,1.1654
5618.00,1.1582
5617.00,1.1505
5616.00,1.1426
5615.00,1.1344
5614.00,1.1260
5613.00,1.1172
5612.00,1.1081
5611.00,1.0985
5610.00,1.0885
5609.00,1.0781
5608.00,1.0673
5607.00,1.0563
5606.00,1.0451
5605.00,1.0338
5604.00,1.0222
5603.00,1.0103
5602.00,0.9981
5601.00,0.9857
5600.00,0.9731
5599.00,0.9605
5598.00,0.9477
5597.00,0.9348
5596.00,0.9217
5595.00,0.9084
5594.00,0.8950
5593.00,0.8817
5592.00,0.8685
5591.00,0.8555
5590.00,0.8429
5589.00,0.8305
5588.00,0.8183
5587.00,0.8063
5586.00,0.7945
5585.00,0.7831
5584.00,0.7721
5583.00,0.7616
5582.00,0.7517
5581.00,0.7423
5580.00,0.7334
5579.00,0.7250
5578.00,0.7173
5577.00,0.7102
5576.00,0.7038
5575.00,0.6981
5574.00,0.6932
5573.00,0.6891
5572.00,0.6858
5571.00,0.6832
5570.00,0.6814
5569.00,0.6804
5568.00,0.6802
5567.00,0.6809
5566.00,0.6824
5565.00,0.6847
5564.00,0.6877
5563.00,0.6914
5562.00,0.6957
5561.00,0.7008
5560.00,0.7065
5559.00,0.7128
5558.00,0.7197
5557.00,0.7271
5556.00,0.7350
5555.00,0.7433
5554.00,0.7521
5553.00,0.7614
5552.00,0.7711
5551.00,0.7812
5550.00,0.7916
5549.00,0.8023
5548.00,0.8131
5547.00,0.8243
5546.00,0.8358
5545.00,0.8476
5544.00,0.8595
5543.00,0.8713
5542.00,0.8832
5541.00,0.8951
5540.00,0.9070
5539.00,0.9190
5538.00,0.9311
5537.00,0.9433
5536.00,0.9556
5535.00,0.9677
5534.00,0.9797
5533.00,0.9914
5532.00,1.0031
5531.00,1.0147
5530.00,1.0262
5529.00,1.0378
5528.00,1.0492
5527.00,1.0604
5526.00,1.0712
5525.00,1.0817
5524.00,1.0918
5523.00,1.1016
5522.00,1.1112
5521.00,1.1208
5520.00,1.1303
5519.00,1.1395
5518.00,1.1482
5517.00,1.1564
5516.00,1.1641
5515.00,1.1714
5514.00,1.1785
5513.00,1.1856
5512.00,1.1925
5511.00,1.1991
5510.00,1.2052
5509.00,1.2107
5508.00,1.2159
5507.00,1.2208
5506.00,1.2254
5505.00,1.2298
5504.00,1.2338
5503.00,1.2372
5502.00,1.2401
5501.00,1.2427
5500.00,1.2448
5499.00,1.2466
5498.00,1.2478
5497.00,1.2487
5496.00,1.2492
5495.00,1.2493
5494.00,1.2489
5493.00,1.2482
5492.00,1.2472
5491.00,1.2458
5490.00,1.2440
5489.00,1.2417
5488.00,1.2393
5487.00,1.2365
5486.00,1.2333
5485.00,1.2297
5484.00,1.2258
5483.00,1.2215
5482.00,1.2169
5481.00,1.2119
5480.00,1.2065
5479.00,1.2007
5478.00,1.1946
5477.00,1.1881
5476.00,1.1812
5475.00,1.1736
5474.00,1.1656
5473.00,1.1572
5472.00,1.1484
5471.00,1.1391
5470.00,1.1295
5469.00,1.1194
5468.00,1.1090
5467.00,1.0983
5466.00,1.0872
5465.00,1.0759
5464.00,1.0643
5463.00,1.0523
5462.00,1.0399
5461.00,1.0271
5460.00,1.0140
5459.00,1.0008
5458.00,0.9874
5457.00,0.9740
5456.00,0.9605
5455.00,0.9469
5454.00,0.9332
5453.00,0.9194
5452.00,0.9055
5451.00,0.8915
5450.00,0.8775
5449.00,0.8637
5448.00,0.8500
5447.00,0.8364
5446.00,0.8229
5445.00,0.8097
5444.00,0.7969
5443.00,0.7843
5442.00,0.7723
5441.00,0.7607
5440.00,0.7496
5439.00,0.7392
5438.00,0.7294
5437.00,0.7205
5436.00,0.7122
5435.00,0.7047
5434.00,0.6977
5433.00,0.6914
5432.00,0.6859
5431.00,0.6812
5430.00,0.6774
5429.00,0.6744
5428.00,0.6723
5427.00,0.6710
5426.00,0.6705
5425.00,0.6709
5424.00,0.6723
5423.00,0.6745
5422.00,0.6777
5421.00,0.6817
5420.00,0.6864
5419.00,0.6917
5418.00,0.6975
5417.00,0.7039
5416.00,0.7109
5415.00,0.7185
5414.00,0.7266
5413.00,0.7353
5412.00,0.7444
5411.00,0.7541
5410.00,0.7642
5409.00,0.7747
5408.00,0.7856
5407.00,0.7969
5406.00,0.8085
5405.00,0.8204
5404.00,0.8325
5403.00,0.8447
5402.00,0.8570
5401.00,0.8694
5400.00,0.8820
5399.00,0.8947
5398.00,0.9076
5397.00,0.9205
5396.00,0.9333
5395.00,0.9461
5394.00,0.9590
5393.00,0.9719
5392.00,0.9848
5391.00,0.9976
5390.00,1.0102
5389.00,1.0227
5388.00,1.0349
5387.00,1.0470
5386.00,1.0590
5385.00,1.0709
5384.00,1.0825
5383.00,1.0938
5382.00,1.1048
5381.00,1.1155
5380.00,1.1261
5379.00,1.1364
5378.00,1.1465
5377.00,1.1562
5376.00,1.1655
5375.00,1.1746
5374.00,1.1834
5373.00,1.1919
5372.00,1.2000
5371.00,1.2076
5370.00,1.2146
5369.00,1.2211
5368.00,1.2272
5367.00,1.2331
5366.00,1.2388
5365.00,1.2442
5364.00,1.2493
5363.00,1.2538
5362.00,1.2580
5361.00,1.2618
5360.00,1.2653
5359.00,1.2684
5358.00,1.2712
5357.00,1.2735
5356.00,1.2753
5355.00,1.2767
5354.00,1.2776
5353.00,1.2782
5352.00,1.2785
5351.00,1.2784
5350.00,1.2781
5349.00,1.2774
5348.00,1.2763
5347.00,1.2747
5346.00,1.2725
5345.00,1.2698
5344.00,1.2668
5343.00,1.2635
5342.00,1.2599
5341.00,1.2560
5340.00,1.2517
5339.00,1.2469
5338.00,1.2416
5337.00,1.2358
5336.00,1.2295
5335.00,1.2230
5334.00,1.2163
5333.00,1.2092
5332.00,1.2020
5331.00,1.1944
5330.00,1.1865
5329.00,1.1781
5328.00,1.1691
5327.00,1.1595
5326.00,1.1494
5325.00,1.1388
5324.00,1.1279
5323.00,1.1167
5322.00,1.1052
5321.00,1.0934
5320.00,1.0813
5319.00,1.0690
5318.00,1.0564
5317.00,1.0433
5316.00,1.0299
5315.00,1.0161
5314.00,1.0020
5313.00,0.9877
5312.00,0.9735
5311.00,0.9593
5310.00,0.9452
5309.00,0.9310
5308.00,0.9167
5307.00,0.9023
5306.00,0.8879
5305.00,0.8735
5304.00,0.8593
5303.00,0.8455
5302.00,0.8320
5301.00,0.8190
5300.00,0.8064
5299.00,0.7942
5298.00,0.7826
5297.00,0.7715
5296.00,0.7610
5295.00,0.7511
5294.00,0.7421
5293.00,0.7339
5292.00,0.7263
5291.00,0.7194
5290.00,0.7130
5289.00,0.7073
5288.00,0.7024
5287.00,0.6984
5286.00,0.6955
5285.00,0.6937
5284.00,0.6929
5283.00,0.6930
5282.00,0.6939
5281.00,0.6958
5280.00,0.6984
5279.00,0.7018
5278.00,0.7060
5277.00,0.7111
5276.00,0.7170
5275.00,0.7236
5274.00,0.7309
5273.00,0.7388
5272.00,0.7473
5271.00,0.7562
5270.00,0.7657
5269.00,0.7757
5268.00,0.7862
5267.00,0.7971
5266.00,0.8084
5265.00,0.8200
5264.00,0.8318
5263.00,0.8440
5262.00,0.8564
5261.00,0.8689
5260.00,0.8816
5259.00,0.8943
5258.00,0.9072
5257.00,0.9202
5256.00,0.9334
5255.00,0.9466
5254.00,0.9600
5253.00,0.9733
5252.00,0.9863
5251.00,0.9991
5250.00,1.0117
5249.00,1.0242
5248.00,1.0366
5247.00,1.0490
5246.00,1.0614
5245.00,1.0738
5244.00,1.0861
5243.00,1.0982
5242.00,1.1100
5241.00,1.1215
5240.00,1.1329
5239.00,1.1440
5238.00,1.1547
5237.00,1.1651
5236.00,1.1749
5235.00,1.1844
5234.00,1.1935
5233.00,1.2027
5232.00,1.2118
5231.00,1.2206
5230.00,1.2289
5229.00,1.2366
5228.00,1.2437
5227.00,1.2503
5226.00,1.2566
5225.00,1.2627
5224.00,1.2686
5223.00,1.2742
5222.00,1.2792
5221.00,1.2838
5220.00,1.2879
5219.00,1.2917
5218.00,1.2951
5217.00,1.2982
5216.00,1.3011
5215.00,1.3037
5214.00,1.3059
5213.00,1.3076
5212.00,1.3088
5211.00,1.3097
5210.00,1.3102
5209.00,1.3101
5208.00,1.3096
5207.00,1.3086
5206.00,1.3072
5205.00,1.3055
5204.00,1.3035
5203.00,1.3010
5202.00,1.2982
5201.00,1.2952
5200.00,1.2919
5199.00,1.2885
5198.00,1.2848
5197.00,1.2806
5196.00,1.2759
5195.00,1.2705
5194.00,1.2646
5193.00,1.2582
5192.00,1.2515
5191.00,1.2443
5190.00,1.2366
5189.00,1.2284
5188.00,1.2197
5187.00,1.2104
5186.00,1.2009
5185.00,1.1911
5184.00,1.1810
5183.00,1.1705
5182.00,1.1594
5181.00,1.1479
5180.00,1.1359
5179.00,1.1234
5178.00,1.1106
5177.00,1.0975
5176.00,1.0840
5175.00,1.0702
5174.00,1.0560
5173.00,1.0415
5172.00,1.0268
5171.00,1.0120
5170.00,0.9970
5169.00,0.9818
5168.00,0.9665
5167.00,0.9511
5166.00,0.9355
5165.00,0.9200
5164.00,0.9045
5163.00,0.8891
5162.00,0.8739
5161.00,0.8588
5160.00,0.8441
5159.00,0.8297
5158.00,0.8158
5157.00,0.8025
5156.00,0.7897
5155.00,0.7774
5154.00,0.7657
5153.00,0.7547
5152.00,0.7443
5151.00,0.7347
5150.00,0.7258
5149.00,0.7178
5148.00,0.7106
5147.00,0.7042
5146.00,0.6986
5145.00,0.6940
5144.00,0.6902
5143.00,0.6875
5142.00,0.6858
5141.00,0.6851
5140.00,0.6854
5139.00,0.6866
5138.00,0.6887
5137.00,0.6916
5136.00,0.6954
5135.00,0.7001
5134.00,0.7057
5133.00,0.7121
5132.00,0.7192
5131.00,0.7270
5130.00,0.7355
5129.00,0.7448
5128.00,0.7546
5127.00,0.7649
5126.00,0.7758
5125.00,0.7871
5124.00,0.7987
5123.00,0.8108
5122.00,0.8232
5121.00,0.8360
5120.00,0.8491
5119.00,0.8624
5118.00,0.8759
5117.00,0.8897
5116.00,0.9035
5115.00,0.9173
5114.00,0.9313
5113.00,0.9453
5112.00,0.9594
5111.00,0.9736
5110.00,0.9878
5109.00,1.0019
5108.00,1.0159
5107.00,1.0297
5106.00,1.0434
5105.00,1.0571
5104.00,1.0705
5103.00,1.0838
5102.00,1.0969
5101.00,1.1098
5100.00,1.1225
5099.00,1.1351
5098.00,1.1474
5097.00,1.1595
5096.00,1.1713
5095.00,1.1827
5094.00,1.1937
5093.00,1.2045
5092.00,1.2148
5091.00,1.2249
5090.00,1.2346
5089.00,1.2440
5088.00,1.2529
5087.00,1.2613
5086.00,1.2693
5085.00,1.2767
5084.00,1.2837
5083.00,1.2904
5082.00,1.2968
5081.00,1.3031
5080.00,1.3091
5079.00,1.3147
5078.00,1.3198
5077.00,1.3242
5076.00,1.3282
5075.00,1.3316
5074.00,1.3346
5073.00,1.3373
5072.00,1.3398
5071.00,1.3420
5070.00,1.3437
5069.00,1.3448
5068.00,1.3453
5067.00,1.3455
5066.00,1.3452
5065.00,1.3446
5064.00,1.3437
5063.00,1.3426
5062.00,1.3412
5061.00,1.3393
5060.00,1.3369
5059.00,1.3340
5058.00,1.3308
5057.00,1.3272
5056.00,1.3234
5055.00,1.3194
5054.00,1.3149
5053.00,1.3100
5052.00,1.3043
5051.00,1.2980
5050.00,1.2912
5049.00,1.2841
5048.00,1.2765
5047.00,1.2686
5046.00,1.2603
5045.00,1.2516
5044.00,1.2423
5043.00,1.2326
5042.00,1.2226
5041.00,1.2122
5040.00,1.2015
5039.00,1.1903
5038.00,1.1786
5037.00,1.1664
5036.00,1.1538
5035.00,1.1407
5034.00,1.1272
5033.00,1.1134
5032.00,1.0992
5031.00,1.0847
5030.00,1.0699
5029.00,1.0548
5028.00,1.0395
5027.00,1.0239
5026.00,1.0082
5025.00,0.9924
5024.00,0.9763
5023.00,0.9601
5022.00,0.9439
5021.00,0.9278
5020.00,0.9119
5019.00,0.8962
5018.00,0.8806
5017.00,0.8654
5016.00,0.8503
5015.00,0.8357
5014.00,0.8215
5013.00,0.8080
5012.00,0.7951
5011.00,0.7828
5010.00,0.7714
5009.00,0.7606
5008.00,0.7506
5007.00,0.7414
5006.00,0.7331
5005.00,0.7258
5004.00,0.7194
5003.00,0.7141
5002.00,0.7097
5001.00,0.7065
5000.00,0.7042
4999.00,0.7030
4998.00,0.7028
4997.00,0.7035
4996.00,0.7052
4995.00,0.7077
4994.00,0.7112
4993.00,0.7156
4992.00,0.7209
4991.00,0.7270
4990.00,0.7339
4989.00,0.7416
4988.00,0.7501
4987.00,0.7591
4986.00,0.7688
4985.00,0.7790
4984.00,0.7897
4983.00,0.8009
4982.00,0.8125
4981.00,0.8246
4980.00,0.8373
4979.00,0.8505
4978.00,0.8642
4977.00,0.8783
4976.00,0.8925
4975.00,0.9069
4974.00,0.9214
4973.00,0.9360
4972.00,0.9508
4971.00,0.9657
4970.00,0.9806
4969.00,0.9955
4968.00,1.0102
4967.00,1.0249
4966.00,1.0394
4965.00,1.0540
4964.00,1.0684
4963.00,1.0827
4962.00,1.0967
4961.00,1.1104
4960.00,1.1240
4959.00,1.1374
4958.00,1.1507
4957.00,1.1639
4956.00,1.1767
4955.00,1.1891
4954.00,1.2011
4953.00,1.2127
4952.00,1.2241
4951.00,1.2351
4950.00,1.2459
4949.00,1.2562
4948.00,1.2661
4947.00,1.2757
4946.00,1.2848
4945.00,1.2936
4944.00,1.3019
4943.00,1.3097
4942.00,1.3170
4941.00,1.3239
4940.00,1.3305
4939.00,1.3366
4938.00,1.3422
4937.00,1.3475
4936.00,1.3524
4935.00,1.3569
4934.00,1.3611
4933.00,1.3649
4932.00,1.3683
4931.00,1.3713
4930.00,1.3737
4929.00,1.3758
4928.00,1.3774
4927.00,1.3785
4926.00,1.3791
4925.00,1.3794
4924.00,1.3793
4923.00,1.3788
4922.00,1.3780
4921.00,1.3766
4920.00,1.3749
4919.00,1.3729
4918.00,1.3707
4917.00,1.3682
4916.00,1.3651
4915.00,1.3613
4914.00,1.3568
4913.00,1.3518
4912.00,1.3466
4911.00,1.3413
4910.00,1.3357
4909.00,1.3297
4908.00,1.3231
4907.00,1.3158
4906.00,1.3079
4905.00,1.2995
4904.00,1.2908
4903.00,1.2816
4902.00,1.2721
4901.00,1.2623
4900.00,1.2522
4899.00,1.2416
4898.00,1.2306
4897.00,1.2190
4896.00,1.2069
4895.00,1.1941
4894.00,1.1807
4893.00,1.1671
4892.00,1.1532
4891.00,1.1390
4890.00,1.1246
4889.00,1.1097
4888.00,1.0943
4887.00,1.0784
4886.00,1.0622
4885.00,1.0458
4884.00,1.0292
4883.00,1.0125
4882.00,0.9958
4881.00,0.9791
4880.00,0.9622
4879.00,0.9454
4878.00,0.9286
4877.00,0.9119
4876.00,0.8955
4875.00,0.8794
4874.00,0.8636
4873.00,0.8481
4872.00,0.8331
4871.00,0.8185
4870.00,0.8045
4869.00,0.7912
4868.00,0.7785
4867.00,0.7665
4866.00,0.7553
4865.00,0.7450
4864.00,0.7356
4863.00,0.7271
4862.00,0.7197
4861.00,0.7132
4860.00,0.7077
4859.00,0.7033
4858.00,0.7000
4857.00,0.6980
4856.00,0.6971
4855.00,0.6973
4854.00,0.6988
4853.00,0.7013
4852.00,0.7050
4851.00,0.7096
4850.00,0.7152
4849.00,0.7219
4848.00,0.7294
4847.00,0.7378
4846.00,0.7470
4845.00,0.7570
4844.00,0.7677
4843.00,0.7790
4842.00,0.7909
4841.00,0.8034
4840.00,0.8163
4839.00,0.8297
4838.00,0.8435
4837.00,0.8576
4836.00,0.8720
4835.00,0.8866
4834.00,0.9014
4833.00,0.9165
4832.00,0.9318
4831.00,0.9473
4830.00,0.9629
4829.00,0.9786
4828.00,0.9943
4827.00,1.0100
4826.00,1.0256
4825.00,1.0413
4824.00,1.0568
4823.00,1.0722
4822.00,1.0875
4821.00,1.1025
4820.00,1.1173
4819.00,1.1318
4818.00,1.1462
4817.00,1.1606
4816.00,1.1748
4815.00,1.1889
4814.00,1.2025
4813.00,1.2156
4812.00,1.2282
4811.00,1.2406
4810.00,1.2527
4809.00,1.2646
4808.00,1.2760
4807.00,1.2868
4806.00,1.2969
4805.00,1.3065
4804.00,1.3156
4803.00,1.3246
4802.00,1.3334
4801.00,1.3420
4800.00,1.3504
4799.00,1.3584
4798.00,1.3659
4797.00,1.3727
4796.00,1.3789
4795.00,1.3844
4794.00,1.3893
4793.00,1.3938
4792.00,1.3979
4791.00,1.4019
4790.00,1.4056
4789.00,1.4090
4788.00,1.4121
4787.00,1.4148
4786.00,1.4172
4785.00,1.4191
4784.00,1.4203
4783.00,1.4208
4782.00,1.4207
4781.00,1.4202
4780.00,1.4195
4779.00,1.4186
4778.00,1.4175
4777.00,1.4161
4776.00,1.4141
4775.00,1.4116
4774.00,1.4087
4773.00,1.4055
4772.00,1.4019
4771.00,1.3978
4770.00,1.3930
4769.00,1.3876
4768.00,1.3816
4767.00,1.3753
4766.00,1.3687
4765.00,1.3619
4764.00,1.3546
4763.00,1.3468
4762.00,1.3385
4761.00,1.3298
4760.00,1.3207
4759.00,1.3113
4758.00,1.3013
4757.00,1.2908
4756.00,1.2797
4755.00,1.2679
4754.00,1.2556
4753.00,1.2429
4752.00,1.2298
4751.00,1.2163
4750.00,1.2022
4749.00,1.1878
4748.00,1.1729
4747.00,1.1576
4746.00,1.1420
4745.00,1.1260
4744.00,1.1097
4743.00,1.0929
4742.00,1.0757
4741.00,1.0581
4740.00,1.0403
4739.00,1.0223
4738.00,1.0044
4737.00,0.9865
4736.00,0.9686
4735.00,0.9506
4734.00,0.9326
4733.00,0.9148
4732.00,0.8973
4731.00,0.8802
4730.00,0.8637
4729.00,0.8476
4728.00,0.8320
4727.00,0.8170
4726.00,0.8028
4725.00,0.7893
4724.00,0.7767
4723.00,0.7650
4722.00,0.7542
4721.00,0.7444
4720.00,0.7357
4719.00,0.7282
4718.00,0.7218
4717.00,0.7167
4716.00,0.7128
4715.00,0.7101
4714.00,0.7086
4713.00,0.7084
4712.00,0.7095
4711.00,0.7118
4710.00,0.7152
4709.00,0.7198
4708.00,0.7255
4707.00,0.7322
4706.00,0.7400
4705.00,0.7488
4704.00,0.7585
4703.00,0.7690
4702.00,0.7803
4701.00,0.7924
4700.00,0.8050
4699.00,0.8183
4698.00,0.8321
4697.00,0.8463
4696.00,0.8608
4695.00,0.8756
4694.00,0.8908
4693.00,0.9063
4692.00,0.9221
4691.00,0.9380
4690.00,0.9542
4689.00,0.9705
4688.00,0.9869
4687.00,1.0034
4686.00,1.0199
4685.00,1.0365
4684.00,1.0530
4683.00,1.0695
4682.00,1.0858
4681.00,1.1019
4680.00,1.1178
4679.00,1.1334
4678.00,1.1488
4677.00,1.1641
4676.00,1.1792
4675.00,1.1942
4674.00,1.2090
4673.00,1.2235
4672.00,1.2377
4671.00,1.2515
4670.00,1.2647
4669.00,1.2775
4668.00,1.2897
4667.00,1.3015
4666.00,1.3130
4665.00,1.3243
4664.00,1.3352
4663.00,1.3456
4662.00,1.3556
4661.00,1.3649
4660.00,1.3737
4659.00,1.3820
4658.00,1.3899
4657.00,1.3976
4656.00,1.4049
4655.00,1.4117
4654.00,1.4180
4653.00,1.4238
4652.00,1.4290
4651.00,1.4337
4650.00,1.4382
4649.00,1.4425
4648.00,1.4464
4647.00,1.4498
4646.00,1.4527
4645.00,1.4550
4644.00,1.4567
4643.00,1.4579
4642.00,1.4587
4641.00,1.4590
4640.00,1.4590
4639.00,1.4585
4638.00,1.4578
4637.00,1.4568
4636.00,1.4554
4635.00,1.4535
4634.00,1.4512
4633.00,1.4483
4632.00,1.4449
4631.00,1.4411
4630.00,1.4370
4629.00,1.4326
4628.00,1.4278
4627.00,1.4225
4626.00,1.4165
4625.00,1.4099
4624.00,1.4028
4623.00,1.3952
4622.00,1.3871
4621.00,1.3786
4620.00,1.3697
4619.00,1.3606
4618.00,1.3512
4617.00,1.3415
4616.00,1.3314
4615.00,1.3209
4614.00,1.3098
4613.00,1.2983
4612.00,1.2865
4611.00,1.2743
4610.00,1.2617
4609.00,1.2487
4608.00,1.2352
4607.00,1.2213
4606.00,1.2069
4605.00,1.1919
4604.00,1.1765
4603.00,1.1605
4602.00,1.1440
4601.00,1.1271
4600.00,1.1096
4599.00,1.0918
4598.00,1.0736
4597.00,1.0552
4596.00,1.0367
4595.00,1.0180
4594.00,0.9993
4593.00,0.9806
4592.00,0.9619
4591.00,0.9432
4590.00,0.9247
4589.00,0.9065
4588.00,0.8885
4587.00,0.8711
4586.00,0.8543
4585.00,0.8382
4584.00,0.8228
4583.00,0.8081
4582.00,0.7943
4581.00,0.7815
4580.00,0.7697
4579.00,0.7590
4578.00,0.7495
4577.00,0.7412
4576.00,0.7342
4575.00,0.7284
4574.00,0.7239
4573.00,0.7208
4572.00,0.7191
4571.00,0.7187
4570.00,0.7198
4569.00,0.7221
4568.00,0.7258
4567.00,0.7306
4566.00,0.7367
4565.00,0.7440
4564.00,0.7524
4563.00,0.7619
4562.00,0.7724
4561.00,0.7837
4560.00,0.7958
4559.00,0.8086
4558.00,0.8221
4557.00,0.8362
4556.00,0.8508
4555.00,0.8660
4554.00,0.8815
4553.00,0.8975
4552.00,0.9139
4551.00,0.9307
4550.00,0.9477
4549.00,0.9649
4548.00,0.9822
4547.00,0.9995
4546.00,1.0168
4545.00,1.0342
4544.00,1.0517
4543.00,1.0693
4542.00,1.0868
4541.00,1.1042
4540.00,1.1214
4539.00,1.1385
4538.00,1.1555
4537.00,1.1722
4536.00,1.1888
4535.00,1.2051
4534.00,1.2211
4533.00,1.2367
4532.00,1.2520
4531.00,1.2669
4530.00,1.2814
4529.00,1.2955
4528.00,1.3092
4527.00,1.3227
4526.00,1.3358
4525.00,1.3486
4524.00,1.3609
4523.00,1.3727
4522.00,1.3839
4521.00,1.3945
4520.00,1.4045
4519.00,1.4140
4518.00,1.4232
4517.00,1.4321
4516.00,1.4407
4515.00,1.4486
4514.00,1.4560
4513.00,1.4626
4512.00,1.4688
4511.00,1.4746
4510.00,1.4802
4509.00,1.4855
4508.00,1.4904
4507.00,1.4949
4506.00,1.4988
4505.00,1.5021
4504.00,1.5049
4503.00,1.5073
4502.00,1.5094
4501.00,1.5110
4500.00,1.5122
4499.00,1.5128
4498.00,1.5127
4497.00,1.5121
4496.00,1.5112
4495.00,1.5099
4494.00,1.5084
4493.00,1.5064
4492.00,1.5040
4491.00,1.5010
4490.00,1.4976
4489.00,1.4936
4488.00,1.4892
4487.00,1.4844
4486.00,1.4793
4485.00,1.4740
4484.00,1.4684
4483.00,1.4624
4482.00,1.4559
4481.00,1.4490
4480.00,1.4414
4479.00,1.4333
4478.00,1.4246
4477.00,1.4154
4476.00,1.4059
4475.00,1.3960
4474.00,1.3858
4473.00,1.3752
4472.00,1.3639
4471.00,1.3521
4470.00,1.3398
4469.00,1.3271
4468.00,1.3139
4467.00,1.3002
4466.00,1.2858
4465.00,1.2709
4464.00,1.2556
4463.00,1.2400
4462.00,1.2240
4461.00,1.2077
4460.00,1.1911
4459.00,1.1743
4458.00,1.1574
4457.00,1.1404
4456.00,1.1235
4455.00,1.1065
4454.00,1.0896
4453.00,1.0729
4452.00,1.0566
4451.00,1.0408
4450.00,1.0256
4449.00,1.0111
4448.00,0.9972
4447.00,0.9840
4446.00,0.9716
4445.00,0.9600
4444.00,0.9492
4443.00,0.9392
4442.00,0.9297
4441.00,0.9208
4440.00,0.9122
4439.00,0.9039
4438.00,0.8956
4437.00,0.8874
4436.00,0.8792
4435.00,0.8708
4434.00,0.8626
4433.00,0.8544
4432.00,0.8465
4431.00,0.8390
4430.00,0.8323
4429.00,0.8267
4428.00,0.8222
4427.00,0.8192
4426.00,0.8176
4425.00,0.8177
4424.00,0.8194
4423.00,0.8227
4422.00,0.8276
4421.00,0.8340
4420.00,0.8418
4419.00,0.8510
4418.00,0.8614
4417.00,0.8731
4416.00,0.8859
4415.00,0.8996
4414.00,0.9141
4413.00,0.9293
4412.00,0.9452
4411.00,0.9616
4410.00,0.9787
4409.00,0.9963
4408.00,1.0143
4407.00,1.0326
4406.00,1.0511
4405.00,1.0697
4404.00,1.0884
4403.00,1.1069
4402.00,1.1252
4401.00,1.1432
4400.00,1.1608
4399.00,1.1780
4398.00,1.1947
4397.00,1.2111
4396.00,1.2271
4395.00,1.2427
4394.00,1.2580
4393.00,1.2729
4392.00,1.2876
4391.00,1.3019
4390.00,1.3159
4389.00,1.3298
4388.00,1.3432
4387.00,1.3564
4386.00,1.3692
4385.00,1.3819
4384.00,1.3944
4383.00,1.4068
4382.00,1.4189
4381.00,1.4305
4380.00,1.4416
4379.00,1.4523
4378.00,1.4626
4377.00,1.4727
4376.00,1.4823
4375.00,1.4914
4374.00,1.4999
4373.00,1.5080
4372.00,1.5157
4371.00,1.5231
4370.00,1.5299
4369.00,1.5361
4368.00,1.5418
4367.00,1.5469
4366.00,1.5515
4365.00,1.5558
4364.00,1.5596
4363.00,1.5630
4362.00,1.5658
4361.00,1.5681
4360.00,1.5700
4359.00,1.5716
4358.00,1.5728
4357.00,1.5737
4356.00,1.5743
4355.00,1.5746
4354.00,1.5747
4353.00,1.5745
4352.00,1.5738
4351.00,1.5726
4350.00,1.5708
4349.00,1.5686
4348.00,1.5661
4347.00,1.5633
4346.00,1.5600
4345.00,1.5562
4344.00,1.5519
4343.00,1.5473
4342.00,1.5424
4341.00,1.5373
4340.00,1.5318
4339.00,1.5257
4338.00,1.5191
4337.00,1.5120
4336.00,1.5044
4335.00,1.4963
4334.00,1.4878
4333.00,1.4789
4332.00,1.4695
4331.00,1.4595
4330.00,1.4490
4329.00,1.4381
4328.00,1.4268
4327.00,1.4151
4326.00,1.4029
4325.00,1.3903
4324.00,1.3771
4323.00,1.3635
4322.00,1.3496
4321.00,1.3352
4320.00,1.3203
4319.00,1.3047
4318.00,1.2883
4317.00,1.2712
4316.00,1.2535
4315.00,1.2351
4314.00,1.2162
4313.00,1.1967
4312.00,1.1765
4311.00,1.1557
4310.00,1.1346
4309.00,1.1132
4308.00,1.0916
4307.00,1.0698
4306.00,1.0480
4305.00,1.0262
4304.00,1.0047
4303.00,0.9833
4302.00,0.9623
4301.00,0.9418
4300.00,0.9218
4299.00,0.9025
4298.00,0.8839
4297.00,0.8663
4296.00,0.8496
4295.00,0.8341
4294.00,0.8197
4293.00,0.8066
4292.00,0.7948
4291.00,0.7844
4290.00,0.7754
4289.00,0.7679
4288.00,0.7619
4287.00,0.7575
4286.00,0.7547
4285.00,0.7535
4284.00,0.7540
4283.00,0.7560
4282.00,0.7596
4281.00,0.7646
4280.00,0.7711
4279.00,0.7789
4278.00,0.7881
4277.00,0.7984
4276.00,0.8099
4275.00,0.8223
4274.00,0.8357
4273.00,0.8500
4272.00,0.8651
4271.00,0.8808
4270.00,0.8971
4269.00,0.9139
4268.00,0.9313
4267.00,0.9492
4266.00,0.9675
4265.00,0.9861
4264.00,1.0049
4263.00,1.0239
4262.00,1.0429
4261.00,1.0621
4260.00,1.0814
4259.00,1.1008
4258.00,1.1202
4257.00,1.1395
4256.00,1.1588
4255.00,1.1779
4254.00,1.1969
4253.00,1.2158
4252.00,1.2344
4251.00,1.2528
4250.00,1.2710
4249.00,1.2889
4248.00,1.3063
4247.00,1.3233
4246.00,1.3398
4245.00,1.3558
4244.00,1.3713
4243.00,1.3866
4242.00,1.4014
4241.00,1.4158
4240.00,1.4295
4239.00,1.4426
4238.00,1.4550
4237.00,1.4670
4236.00,1.4787
4235.00,1.4900
4234.00,1.5008
4233.00,1.5111
4232.00,1.5209
4231.00,1.5301
4230.00,1.5389
4229.00,1.5471
4228.00,1.5547
4227.00,1.5616
4226.00,1.5680
4225.00,1.5740
4224.00,1.5796
4223.00,1.5846
4222.00,1.5893
4221.00,1.5935
4220.00,1.5973
4219.00,1.6008
4218.00,1.6038
4217.00,1.6065
4216.00,1.6086
4215.00,1.6103
4214.00,1.6114
4213.00,1.6120
4212.00,1.6124
4211.00,1.6125
4210.00,1.6122
4209.00,1.6115
4208.00,1.6102
4207.00,1.6085
4206.00,1.6064
4205.00,1.6038
4204.00,1.6009
4203.00,1.5975
4202.00,1.5937
4201.00,1.5895
4200.00,1.5850
4199.00,1.5801
4198.00,1.5748
4197.00,1.5689
4196.00,1.5622
4195.00,1.5547
4194.00,1.5467
4193.00,1.5381
4192.00,1.5292
4191.00,1.5200
4190.00,1.5103
4189.00,1.5002
4188.00,1.4896
4187.00,1.4783
4186.00,1.4665
4185.00,1.4540
4184.00,1.4410
4183.00,1.4274
4182.00,1.4134
4181.00,1.3988
4180.00,1.3835
4179.00,1.3674
4178.00,1.3508
4177.00,1.3335
4176.00,1.3156
4175.00,1.2971
4174.00,1.2779
4173.00,1.2583
4172.00,1.2381
4171.00,1.2175
4170.00,1.1964
4169.00,1.1748
4168.00,1.1528
4167.00,1.1305
4166.00,1.1081
4165.00,1.0856
4164.00,1.0630
4163.00,1.0404
4162.00,1.0179
4161.00,0.9957
4160.00,0.9740
4159.00,0.9527
4158.00,0.9320
4157.00,0.9120
4156.00,0.8927
4155.00,0.8745
4154.00,0.8573
4153.00,0.8413
4152.00,0.8265
4151.00,0.8131
4150.00,0.8011
4149.00,0.7906
4148.00,0.7818
4147.00,0.7747
4146.00,0.7692
4145.00,0.7656
4144.00,0.7636
4143.00,0.7634
4142.00,0.7651
4141.00,0.7685
4140.00,0.7737
4139.00,0.7804
4138.00,0.7887
4137.00,0.7983
4136.00,0.8094
4135.00,0.8217
4134.00,0.8352
4133.00,0.8497
4132.00,0.8652
4131.00,0.8814
4130.00,0.8984
4129.00,0.9162
4128.00,0.9345
4127.00,0.9532
4126.00,0.9724
4125.00,0.9920
4124.00,1.0119
4123.00,1.0321
4122.00,1.0525
4121.00,1.0730
4120.00,1.0936
4119.00,1.1142
4118.00,1.1350
4117.00,1.1558
4116.00,1.1765
4115.00,1.1972
4114.00,1.2176
4113.00,1.2378
4112.00,1.2578
4111.00,1.2775
4110.00,1.2968
4109.00,1.3158
4108.00,1.3343
4107.00,1.3524
4106.00,1.3702
4105.00,1.3876
4104.00,1.4047
4103.00,1.4212
4102.00,1.4371
4101.00,1.4525
4100.00,1.4672
4099.00,1.4814
4098.00,1.4950
4097.00,1.5083
4096.00,1.5211
4095.00,1.5334
4094.00,1.5450
4093.00,1.5560
4092.00,1.5662
4091.00,1.5758
4090.00,1.5849
4089.00,1.5936
4088.00,1.6021
4087.00,1.6102
4086.00,1.6180
4085.00,1.6254
4084.00,1.6321
4083.00,1.6379
4082.00,1.6430
4081.00,1.6476
4080.00,1.6521
4079.00,1.6563
4078.00,1.6602
4077.00,1.6636
4076.00,1.6665
4075.00,1.6689
4074.00,1.6708
4073.00,1.6721
4072.00,1.6729
4071.00,1.6733
4070.00,1.6735
4069.00,1.6736
4068.00,1.6733
4067.00,1.6723
4066.00,1.6708
4065.00,1.6687
4064.00,1.6662
4063.00,1.6633
4062.00,1.6599
4061.00,1.6560
4060.00,1.6517
4059.00,1.6469
4058.00,1.6417
4057.00,1.6361
4056.00,1.6302
4055.00,1.6240
4054.00,1.6173
4053.00,1.6101
4052.00,1.6022
4051.00,1.5936
4050.00,1.5845
4049.00,1.5751
4048.00,1.5654
4047.00,1.5552
4046.00,1.5445
4045.00,1.5330
4044.00,1.5209
4043.00,1.5083
4042.00,1.4952
4041.00,1.4818
4040.00,1.4679
4039.00,1.4534
4038.00,1.4383
4037.00,1.4227
4036.00,1.4067
4035.00,1.3905
4034.00,1.3739
4033.00,1.3568
4032.00,1.3393
4031.00,1.3213
4030.00,1.3030
4029.00,1.2841
4028.00,1.2645
4027.00,1.2443
4026.00,1.2235
4025.00,1.2020
4024.00,1.1799
4023.00,1.1573
4022.00,1.1342
4021.00,1.1106
4020.00,1.0869
4019.00,1.0632
4018.00,1.0397
4017.00,1.0164
4016.00,0.9936
4015.00,0.9713
4014.00,0.9498
4013.00,0.9291
4012.00,0.9095
4011.00,0.8910
4010.00,0.8737
4009.00,0.8577
4008.00,0.8433
4007.00,0.8305
4006.00,0.8194
4005.00,0.8103
4004.00,0.8032
4003.00,0.7981
4002.00,0.7951
4001.00,0.7941
4000.00,0.7950
3999.00,0.7980
3998.00,0.8029
3997.00,0.8097
3996.00,0.8183
3995.00,0.8285
3994.00,0.8403
3993.00,0.8536
3992.00,0.8681
3991.00,0.8840
3990.00,0.9009
3989.00,0.9188
3988.00,0.9377
3987.00,0.9572
3986.00,0.9774
3985.00,0.9981
3984.00,1.0193
3983.00,1.0409
3982.00,1.0626
3981.00,1.0844
3980.00,1.1063
3979.00,1.1280
3978.00,1.1497
3977.00,1.1712
3976.00,1.1924
3975.00,1.2133
3974.00,1.2338
3973.00,1.2539
3972.00,1.2736
3971.00,1.2931
3970.00,1.3124
3969.00,1.3315
3968.00,1.3503
3967.00,1.3688
3966.00,1.3869
3965.00,1.4046
3964.00,1.4220
3963.00,1.4390
3962.00,1.4558
3961.00,1.4723
3960.00,1.4886
3959.00,1.5043
3958.00,1.5194
3957.00,1.5338
3956.00,1.5478
3955.00,1.5612
3954.00,1.5741
3953.00,1.5862
3952.00,1.5975
3951.00,1.6084
3950.00,1.6191
3949.00,1.6300
3948.00,1.6407
3947.00,1.6509
3946.00,1.6600
3945.00,1.6682
3944.00,1.6757
3943.00,1.6829
3942.00,1.6899
3941.00,1.6965
3940.00,1.7028
3939.00,1.7085
3938.00,1.7137
3937.00,1.7180
3936.00,1.7215
3935.00,1.7243
3934.00,1.7268
3933.00,1.7292
3932.00,1.7316
3931.00,1.7338
3930.00,1.7355
3929.00,1.7366
3928.00,1.7371
3927.00,1.7370
3926.00,1.7365
3925.00,1.7356
3924.00,1.7344
3923.00,1.7327
3922.00,1.7302
3921.00,1.7271
3920.00,1.7235
3919.00,1.7195
3918.00,1.7155
3917.00,1.7114
3916.00,1.7073
3915.00,1.7030
3914.00,1.6979
3913.00,1.6921
3912.00,1.6859
3911.00,1.6792
3910.00,1.6719
3909.00,1.6637
3908.00,1.6544
3907.00,1.6439
3906.00,1.6326
3905.00,1.6206
3904.00,1.6082
3903.00,1.5955
3902.00,1.5824
3901.00,1.5691
3900.00,1.5556
3899.00,1.5420
3898.00,1.5283
3897.00,1.5142
3896.00,1.4996
3895.00,1.4843
3894.00,1.4679
3893.00,1.4502
3892.00,1.4310
3891.00,1.4106
3890.00,1.3896
3889.00,1.3683
3888.00,1.3467
3887.00,1.3243
3886.00,1.3006
3885.00,1.2755
3884.00,1.2498
3883.00,1.2241
3882.00,1.1982
3881.00,1.1721
3880.00,1.1459
3879.00,1.1198
3878.00,1.0941
3877.00,1.0688
3876.00,1.0437
3875.00,1.0188
3874.00,0.9944
3873.00,0.9708
3872.00,0.9478
3871.00,0.9252
3870.00,0.9027
3869.00,0.8811
3868.00,0.8613
3867.00,0.8441
3866.00,0.8295
3865.00,0.8170
3864.00,0.8064
3863.00,0.7975
3862.00,0.7908
3861.00,0.7864
3860.00,0.7845
3859.00,0.7849
3858.00,0.7875
3857.00,0.7918
3856.00,0.7976
3855.00,0.8058
3854.00,0.8172
3853.00,0.8310
3852.00,0.8453
3851.00,0.8594
3850.00,0.8742
3849.00,0.8907
3848.00,0.9089
3847.00,0.9283
3846.00,0.9482
3845.00,0.9687
3844.00,0.9899
3843.00,1.0120
3842.00,1.0347
3841.00,1.0574
3840.00,1.0801
3839.00,1.1032
3838.00,1.1274
3837.00,1.1528
3836.00,1.1787
3835.00,1.2040
3834.00,1.2283
3833.00,1.2522
3832.00,1.2762
3831.00,1.3003
3830.00,1.3240
3829.00,1.3468
3828.00,1.3689
3827.00,1.3907
3826.00,1.4123
3825.00,1.4329
3824.00,1.4516
3823.00,1.4689
3822.00,1.4868
3821.00,1.5065
3820.00,1.5268
3819.00,1.5460
3818.00,1.5632
3817.00,1.5793
3816.00,1.5956
3815.00,1.6121
3814.00,1.6278
3813.00,1.6423
3812.00,1.6553
3811.00,1.6673
3810.00,1.6782
3809.00,1.6884
3808.00,1.6982
3807.00,1.7080
3806.00,1.7177
3805.00,1.7268
3804.00,1.7347
3803.00,1.7422
3802.00,1.7498
3801.00,1.7575
3800.00,1.7643
3799.00,1.7699
3798.00,1.7748
3797.00,1.7797
3796.00,1.7844
3795.00,1.7885
3794.00,1.7920
3793.00,1.7949
3792.00,1.7975
3791.00,1.7999
3790.00,1.8020
3789.00,1.8036
3788.00,1.8045
3787.00,1.8048
3786.00,1.8047
3785.00,1.8040
3784.00,1.8029
3783.00,1.8013
3782.00,1.7992
3781.00,1.7967
3780.00,1.7937
3779.00,1.7902
3778.00,1.7866
3777.00,1.7828
3776.00,1.7786
3775.00,1.7740
3774.00,1.7689
3773.00,1.7630
3772.00,1.7560
3771.00,1.7481
3770.00,1.7397
3769.00,1.7306
3768.00,1.7208
3767.00,1.7107
3766.00,1.7007
3765.00,1.6909
3764.00,1.6807
3763.00,1.6697
3762.00,1.6579
3761.00,1.6452
3760.00,1.6316
3759.00,1.6172
3758.00,1.6022
3757.00,1.5869
3756.00,1.5716
3755.00,1.5563
3754.00,1.5407
3753.00,1.5241
3752.00,1.5055
3751.00,1.4845
3750.00,1.4619
3749.00,1.4392
3748.00,1.4179
3747.00,1.3982
3746.00,1.3785
3745.00,1.3575
3744.00,1.3349
3743.00,1.3122
3742.00,1.2913
3741.00,1.2725
3740.00,1.2548
3739.00,1.2368
3738.00,1.2173
3737.00,1.1956
3736.00,1.1718
3735.00,1.1471
3734.00,1.1224
3733.00,1.0982
3732.00,1.0742
3731.00,1.0505
3730.00,1.0275
3729.00,1.0055
3728.00,0.9843
3727.00,0.9641
3726.00,0.9449
3725.00,0.9268
3724.00,0.9101
3723.00,0.8951
3722.00,0.8820
3721.00,0.8709
3720.00,0.8615
3719.00,0.8541
3718.00,0.8499
3717.00,0.8513
3716.00,0.8599
3715.00,0.8759
3714.00,0.8976
3713.00,0.9228
3712.00,0.9497
3711.00,0.9768
3710.00,1.0040
3709.00,1.0312
3708.00,1.0585
3707.00,1.0856
3706.00,1.1119
3705.00,1.1371
3704.00,1.1618
3703.00,1.1867
3702.00,1.2127
3701.00,1.2398
3700.00,1.2671
3699.00,1.2937
3698.00,1.3191
3697.00,1.3438
3696.00,1.3680
3695.00,1.3913
3694.00,1.4136
3693.00,1.4350
3692.00,1.4559
3691.00,1.4768
3690.00,1.4979
3689.00,1.5201
3688.00,1.5435
3687.00,1.5671
3686.00,1.5892
3685.00,1.6092
3684.00,1.6276
3683.00,1.6449
3682.00,1.6612
3681.00,1.6765
3680.00,1.6908
3679.00,1.7040
3678.00,1.7158
3677.00,1.7273
3676.00,1.7399
3675.00,1.7541
3674.00,1.7683
3673.00,1.7808
3672.00,1.7914
3671.00,1.8013
3670.00,1.8115
3669.00,1.8220
3668.00,1.8322
3667.00,1.8417
3666.00,1.8507
3665.00,1.8594
3664.00,1.8678
3663.00,1.8756
3662.00,1.8827
3661.00,1.8891
3660.00,1.8947
3659.00,1.8994
3658.00,1.9035
3657.00,1.9072
3656.00,1.9107
3655.00,1.9136
3654.00,1.9156
3653.00,1.9169
3652.00,1.9181
3651.00,1.9199
3650.00,1.9220
3649.00,1.9240
3648.00,1.9257
3647.00,1.9275
3646.00,1.9299
3645.00,1.9332
3644.00,1.9369
3643.00,1.9405
3642.00,1.9439
3641.00,1.9468
3640.00,1.9491
3639.00,1.9509
3638.00,1.9523
3637.00,1.9534
3636.00,1.9542
3635.00,1.9545
3634.00,1.9544
3633.00,1.9534
3632.00,1.9510
3631.00,1.9469
3630.00,1.9415
3629.00,1.9355
3628.00,1.9291
3627.00,1.9224
3626.00,1.9151
3625.00,1.9068
3624.00,1.8972
3623.00,1.8862
3622.00,1.8741
3621.00,1.8612
3620.00,1.8473
3619.00,1.8322
3618.00,1.8155
3617.00,1.7977
3616.00,1.7801
3615.00,1.7642
3614.00,1.7513
3613.00,1.7414
3612.00,1.7333
3611.00,1.7255
3610.00,1.7169
3609.00,1.7072
3608.00,1.6963
3607.00,1.6842
3606.00,1.6710
3605.00,1.6571
3604.00,1.6423
3603.00,1.6266
3602.00,1.6097
3601.00,1.5916
3600.00,1.5722
3599.00,1.5517
3598.00,1.5302
3597.00,1.5081
3596.00,1.4856
3595.00,1.4627
3594.00,1.4395
3593.00,1.4161
3592.00,1.3926
3591.00,1.3692
3590.00,1.3462
3589.00,1.3236
3588.00,1.3014
3587.00,1.2798
3586.00,1.2593
3585.00,1.2404
3584.00,1.2233
3583.00,1.2080
3582.00,1.1945
3581.00,1.1827
3580.00,1.1726
3579.00,1.1644
3578.00,1.1579
3577.00,1.1532
3576.00,1.1503
3575.00,1.1492
3574.00,1.1498
3573.00,1.1520
3572.00,1.1556
3571.00,1.1604
3570.00,1.1667
3569.00,1.1749
3568.00,1.1856
3567.00,1.1986
3566.00,1.2130
3565.00,1.2281
3564.00,1.2436
3563.00,1.2595
3562.00,1.2761
3561.00,1.2936
3560.00,1.3119
3559.00,1.3307
3558.00,1.3496
3557.00,1.3685
3556.00,1.3874
3555.00,1.4063
3554.00,1.4255
3553.00,1.4450
3552.00,1.4646
3551.00,1.4840
3550.00,1.5028
3549.00,1.5210
3548.00,1.5387
3547.00,1.5566
3546.00,1.5747
3545.00,1.5931
3544.00,1.6112
3543.00,1.6286
3542.00,1.6452
3541.00,1.6610
3540.00,1.6760
3539.00,1.6905
3538.00,1.7049
3537.00,1.7194
3536.00,1.7339
3535.00,1.7480
3534.00,1.7612
3533.00,1.7736
3532.00,1.7855
3531.00,1.7970
3530.00,1.8082
3529.00,1.8193
3528.00,1.8300
3527.00,1.8406
3526.00,1.8508
3525.00,1.8607
3524.00,1.8703
3523.00,1.8796
3522.00,1.8886
3521.00,1.8972
3520.00,1.9053
3519.00,1.9131
3518.00,1.9205
3517.00,1.9274
3516.00,1.9338
3515.00,1.9398
3514.00,1.9457
3513.00,1.9512
3512.00,1.9561
3511.00,1.9602
3510.00,1.9639
3509.00,1.9677
3508.00,1.9714
3507.00,1.9745
3506.00,1.9768
3505.00,1.9786
3504.00,1.9801
3503.00,1.9813
3502.00,1.9820
3501.00,1.9825
3500.00,1.9827
3499.00,1.9830
3498.00,1.9829
3497.00,1.9823
3496.00,1.9808
3495.00,1.9786
3494.00,1.9760
3493.00,1.9731
3492.00,1.9698
3491.00,1.9660
3490.00,1.9619
3489.00,1.9575
3488.00,1.9530
3487.00,1.9483
3486.00,1.9432
3485.00,1.9375
3484.00,1.9311
3483.00,1.9242
3482.00,1.9173
3481.00,1.9103
3480.00,1.9030
3479.00,1.8947
3478.00,1.8854
3477.00,1.8753
3476.00,1.8644
3475.00,1.8528
3474.00,1.8409
3473.00,1.8288
3472.00,1.8165
3471.00,1.8038
3470.00,1.7905
3469.00,1.7765
3468.00,1.7616
3467.00,1.7458
3466.00,1.7292
3465.00,1.7119
3464.00,1.6939
3463.00,1.6752
3462.00,1.6557
3461.00,1.6356
3460.00,1.6147
3459.00,1.5933
3458.00,1.5712
3457.00,1.5486
3456.00,1.5253
3455.00,1.5015
3454.00,1.4771
3453.00,1.4521
3452.00,1.4266
3451.00,1.4008
3450.00,1.3748
3449.00,1.3489
3448.00,1.3229
3447.00,1.2970
3446.00,1.2714
3445.00,1.2464
3444.00,1.2222
3443.00,1.1990
3442.00,1.1769
3441.00,1.1561
3440.00,1.1366
3439.00,1.1187
3438.00,1.1026
3437.00,1.0884
3436.00,1.0762
3435.00,1.0661
3434.00,1.0583
3433.00,1.0528
3432.00,1.0497
3431.00,1.0490
3430.00,1.0506
3429.00,1.0545
3428.00,1.0606
3427.00,1.0689
3426.00,1.0792
3425.00,1.0915
3424.00,1.1054
3423.00,1.1209
3422.00,1.1378
3421.00,1.1560
3420.00,1.1755
3419.00,1.1959
3418.00,1.2173
3417.00,1.2394
3416.00,1.2621
3415.00,1.2852
3414.00,1.3087
3413.00,1.3323
3412.00,1.3563
3411.00,1.3805
3410.00,1.4049
3409.00,1.4294
3408.00,1.4539
3407.00,1.4781
3406.00,1.5020
3405.00,1.5254
3404.00,1.5482
3403.00,1.5706
3402.00,1.5924
3401.00,1.6137
3400.00,1.6344
3399.00,1.6545
3398.00,1.6743
3397.00,1.6937
3396.00,1.7125
3395.00,1.7305
3394.00,1.7480
3393.00,1.7654
3392.00,1.7826
3391.00,1.7993
3390.00,1.8151
3389.00,1.8297
3388.00,1.8434
3387.00,1.8563
3386.00,1.8687
3385.00,1.8810
3384.00,1.8929
3383.00,1.9044
3382.00,1.9153
3381.00,1.9258
3380.00,1.9360
3379.00,1.9457
3378.00,1.9550
3377.00,1.9637
3376.00,1.9718
3375.00,1.9792
3374.00,1.9860
3373.00,1.9925
3372.00,1.9987
3371.00,2.0045
3370.00,2.0099
3369.00,2.0151
3368.00,2.0198
3367.00,2.0237
3366.00,2.0268
3365.00,2.0292
3364.00,2.0313
3363.00,2.0333
3362.00,2.0352
3361.00,2.0368
3360.00,2.0377
3359.00,2.0380
3358.00,2.0379
3357.00,2.0377
3356.00,2.0372
3355.00,2.0365
3354.00,2.0351
3353.00,2.0331
3352.00,2.0304
3351.00,2.0274
3350.00,2.0239
3349.00,2.0200
3348.00,2.0154
3347.00,2.0102
3346.00,2.0047
3345.00,1.9991
3344.00,1.9933
3343.00,1.9869
3342.00,1.9797
3341.00,1.9716
3340.00,1.9631
3339.00,1.9543
3338.00,1.9453
3337.00,1.9357
3336.00,1.9253
3335.00,1.9144
3334.00,1.9031
3333.00,1.8912
3332.00,1.8788
3331.00,1.8660
3330.00,1.8529
3329.00,1.8395
3328.00,1.8255
3327.00,1.8105
3326.00,1.7945
3325.00,1.7778
3324.00,1.7606
3323.00,1.7428
3322.00,1.7244
3321.00,1.7051
3320.00,1.6847
3319.00,1.6633
3318.00,1.6411
3317.00,1.6183
3316.00,1.5950
3315.00,1.5709
3314.00,1.5459
3313.00,1.5200
3312.00,1.4935
3311.00,1.4666
3310.00,1.4396
3309.00,1.4125
3308.00,1.3854
3307.00,1.3583
3306.00,1.3314
3305.00,1.3048
3304.00,1.2789
3303.00,1.2539
3302.00,1.2300
3301.00,1.2073
3300.00,1.1860
3299.00,1.1663
3298.00,1.1482
3297.00,1.1321
3296.00,1.1180
3295.00,1.1061
3294.00,1.0965
3293.00,1.0893
3292.00,1.0845
3291.00,1.0821
3290.00,1.0821
3289.00,1.0845
3288.00,1.0893
3287.00,1.0963
3286.00,1.1054
3285.00,1.1165
3284.00,1.1295
3283.00,1.1443
3282.00,1.1608
3281.00,1.1787
3280.00,1.1978
3279.00,1.2180
3278.00,1.2393
3277.00,1.2613
3276.00,1.2841
3275.00,1.3074
3274.00,1.3313
3273.00,1.3557
3272.00,1.3805
3271.00,1.4055
3270.00,1.4307
3269.00,1.4560
3268.00,1.4814
3267.00,1.5067
3266.00,1.5319
3265.00,1.5570
3264.00,1.5819
3263.00,1.6061
3262.00,1.6297
3261.00,1.6526
3260.00,1.6750
3259.00,1.6969
3258.00,1.7183
3257.00,1.7393
3256.00,1.7597
3255.00,1.7795
3254.00,1.7986
3253.00,1.8172
3252.00,1.8349
3251.00,1.8521
3250.00,1.8687
3249.00,1.8848
3248.00,1.9002
3247.00,1.9148
3246.00,1.9288
3245.00,1.9423
3244.00,1.9553
3243.00,1.9675
3242.00,1.9787
3241.00,1.9892
3240.00,1.9991
3239.00,2.0088
3238.00,2.0183
3237.00,2.0275
3236.00,2.0361
3235.00,2.0439
3234.00,2.0509
3233.00,2.0573
3232.00,2.0635
3231.00,2.0697
3230.00,2.0760
3229.00,2.0820
3228.00,2.0871
3227.00,2.0911
3226.00,2.0945
3225.00,2.0979
3224.00,2.1013
3223.00,2.1043
3222.00,2.1065
3221.00,2.1075
3220.00,2.1075
3219.00,2.1072
3218.00,2.1073
3217.00,2.1076
3216.00,2.1076
3215.00,2.1068
3214.00,2.1052
3213.00,2.1033
3212.00,2.1011
3211.00,2.0985
3210.00,2.0954
3209.00,2.0921
3208.00,2.0886
3207.00,2.0851
3206.00,2.0819
3205.00,2.0787
3204.00,2.0750
3203.00,2.0704
3202.00,2.0648
3201.00,2.0586
3200.00,2.0519
3199.00,2.0447
3198.00,2.0368
3197.00,2.0279
3196.00,2.0181
3195.00,2.0074
3194.00,1.9960
3193.00,1.9840
3192.00,1.9716
3191.00,1.9585
3190.00,1.9447
3189.00,1.9301
3188.00,1.9147
3187.00,1.8983
3186.00,1.8811
3185.00,1.8634
3184.00,1.8454
3183.00,1.8271
3182.00,1.8080
3181.00,1.7879
3180.00,1.7665
3179.00,1.7442
3178.00,1.7212
3177.00,1.6980
3176.00,1.6748
3175.00,1.6521
3174.00,1.6303
3173.00,1.6103
3172.00,1.5928
3171.00,1.5789
3170.00,1.5697
3169.00,1.5664
3168.00,1.5695
3167.00,1.5783
3166.00,1.5906
3165.00,1.6021
3164.00,1.6081
3163.00,1.6039
3162.00,1.5872
3161.00,1.5589
3160.00,1.5221
3159.00,1.4807
3158.00,1.4383
3157.00,1.3971
3156.00,1.3590
3155.00,1.3248
3154.00,1.2949
3153.00,1.2694
3152.00,1.2481
3151.00,1.2310
3150.00,1.2179
3149.00,1.2087
3148.00,1.2031
3147.00,1.2008
3146.00,1.2017
3145.00,1.2056
3144.00,1.2122
3143.00,1.2214
3142.00,1.2331
3141.00,1.2468
3140.00,1.2625
3139.00,1.2800
3138.00,1.2990
3137.00,1.3195
3136.00,1.3412
3135.00,1.3638
3134.00,1.3873
3133.00,1.4115
3132.00,1.4363
3131.00,1.4615
3130.00,1.4869
3129.00,1.5126
3128.00,1.5383
3127.00,1.5640
3126.00,1.5896
3125.00,1.6150
3124.00,1.6401
3123.00,1.6649
3122.00,1.6896
3121.00,1.7140
3120.00,1.7379
3119.00,1.7612
3118.00,1.7841
3117.00,1.8065
3116.00,1.8282
3115.00,1.8490
3114.00,1.8689
3113.00,1.8879
3112.00,1.9061
3111.00,1.9237
3110.00,1.9409
3109.00,1.9576
3108.00,1.9735
3107.00,1.9885
3106.00,2.0030
3105.00,2.0172
3104.00,2.0308
3103.00,2.0437
3102.00,2.0557
3101.00,2.0672
3100.00,2.0784
3099.00,2.0890
3098.00,2.0989
3097.00,2.1082
3096.00,2.1168
3095.00,2.1248
3094.00,2.1326
3093.00,2.1402
3092.00,2.1479
3091.00,2.1555
3090.00,2.1627
3089.00,2.1690
3088.00,2.1741
3087.00,2.1784
3086.00,2.1823
3085.00,2.1864
3084.00,2.1903
3083.00,2.1937
3082.00,2.1962
3081.00,2.1980
3080.00,2.1991
3079.00,2.1998
3078.00,2.2003
3077.00,2.2008
3076.00,2.2010
3075.00,2.2011
3074.00,2.2007
3073.00,2.1997
3072.00,2.1978
3071.00,2.1956
3070.00,2.1937
3069.00,2.1922
3068.00,2.1901
3067.00,2.1865
3066.00,2.1814
3065.00,2.1755
3064.00,2.1695
3063.00,2.1639
3062.00,2.1583
3061.00,2.1522
3060.00,2.1449
3059.00,2.1367
3058.00,2.1283
3057.00,2.1202
3056.00,2.1120
3055.00,2.1031
3054.00,2.0930
3053.00,2.0822
3052.00,2.0711
3051.00,2.0600
3050.00,2.0485
3049.00,2.0361
3048.00,2.0224
3047.00,2.0079
3046.00,1.9930
3045.00,1.9778
3044.00,1.9623
3043.00,1.9463
3042.00,1.9299
3041.00,1.9129
3040.00,1.8952
3039.00,1.8766
3038.00,1.8576
3037.00,1.8382
3036.00,1.8187
3035.00,1.7990
3034.00,1.7793
3033.00,1.7597
3032.00,1.7404
3031.00,1.7213
3030.00,1.7027
3029.00,1.6848
3028.00,1.6675
3027.00,1.6512
3026.00,1.6362
3025.00,1.6228
3024.00,1.6112
3023.00,1.6016
3022.00,1.5938
3021.00,1.5881
3020.00,1.5848
3019.00,1.5839
3018.00,1.5856
3017.00,1.5896
3016.00,1.5959
3015.00,1.6043
3014.00,1.6149
3013.00,1.6276
3012.00,1.6423
3011.00,1.6584
3010.00,1.6754
3009.00,1.6926
3008.00,1.7097
3007.00,1.7261
3006.00,1.7416
3005.00,1.7555
3004.00,1.7672
3003.00,1.7766
3002.00,1.7834
3001.00,1.7879
3000.00,1.7905
2999.00,1.7912
2998.00,1.7905
2997.00,1.7892
2996.00,1.7877
2995.00,1.7867
2994.00,1.7863
2993.00,1.7872
2992.00,1.7896
2991.00,1.7942
2990.00,1.8012
2989.00,1.8105
2988.00,1.8219
2987.00,1.8353
2986.00,1.8508
2985.00,1.8681
2984.00,1.8868
2983.00,1.9068
2982.00,1.9280
2981.00,1.9504
2980.00,1.9737
2979.00,1.9976
2978.00,2.0219
2977.00,2.0463
2976.00,2.0702
2975.00,2.0933
2974.00,2.1156
2973.00,2.1374
2972.00,2.1589
2971.00,2.1801
2970.00,2.2008
2969.00,2.2206
2968.00,2.2393
2967.00,2.2568
2966.00,2.2731
2965.00,2.2885
2964.00,2.3029
2963.00,2.3164
2962.00,2.3289
2961.00,2.3411
2960.00,2.3538
2959.00,2.3675
2958.00,2.3818
2957.00,2.3957
2956.00,2.4081
2955.00,2.4192
2954.00,2.4310
2953.00,2.4452
2952.00,2.4618
2951.00,2.4792
2950.00,2.4960
2949.00,2.5120
2948.00,2.5274
2947.00,2.5423
2946.00,2.5557
2945.00,2.5655
2944.00,2.5686
2943.00,2.5637
2942.00,2.5521
2941.00,2.5359
2940.00,2.5174
2939.00,2.4981
2938.00,2.4802
2937.00,2.4653
2936.00,2.4531
2935.00,2.4421
2934.00,2.4311
2933.00,2.4198
2932.00,2.4087
2931.00,2.3989
2930.00,2.3912
2929.00,2.3862
2928.00,2.3833
2927.00,2.3812
2926.00,2.3791
2925.00,2.3765
2924.00,2.3734
2923.00,2.3698
2922.00,2.3660
2921.00,2.3626
2920.00,2.3598
2919.00,2.3576
2918.00,2.3558
2917.00,2.3544
2916.00,2.3534
2915.00,2.3524
2914.00,2.3510
2913.00,2.3490
2912.00,2.3463
2911.00,2.3429
2910.00,2.3385
2909.00,2.3331
2908.00,2.3269
2907.00,2.3206
2906.00,2.3146
2905.00,2.3089
2904.00,2.3029
2903.00,2.2958
2902.00,2.2878
2901.00,2.2794
2900.00,2.2711
2899.00,2.2624
2898.00,2.2529
2897.00,2.2422
2896.00,2.2303
2895.00,2.2178
2894.00,2.2050
2893.00,2.1921
2892.00,2.1784
2891.00,2.1634
2890.00,2.1472
2889.00,2.1308
2888.00,2.1145
2887.00,2.0983
2886.00,2.0816
2885.00,2.0642
2884.00,2.0461
2883.00,2.0278
2882.00,2.0098
2881.00,1.9925
2880.00,1.9763
2879.00,1.9614
2878.00,1.9481
2877.00,1.9366
2876.00,1.9270
2875.00,1.9195
2874.00,1.9145
2873.00,1.9116
2872.00,1.9103
2871.00,1.9093
2870.00,1.9075
2869.00,1.9043
2868.00,1.8991
2867.00,1.8917
2866.00,1.8817
2865.00,1.8689
2864.00,1.8534
2863.00,1.8350
2862.00,1.8138
2861.00,1.7896
2860.00,1.7623
2859.00,1.7315
2858.00,1.6975
2857.00,1.6609
2856.00,1.6228
2855.00,1.5843
2854.00,1.5466
2853.00,1.5107
2852.00,1.4772
2851.00,1.4470
2850.00,1.4206
2849.00,1.3984
2848.00,1.3808
2847.00,1.3678
2846.00,1.3596
2845.00,1.3561
2844.00,1.3572
2843.00,1.3626
2842.00,1.3716
2841.00,1.3839
2840.00,1.3990
2839.00,1.4167
2838.00,1.4365
2837.00,1.4581
2836.00,1.4813
2835.00,1.5057
2834.00,1.5312
2833.00,1.5577
2832.00,1.5849
2831.00,1.6128
2830.00,1.6409
2829.00,1.6692
2828.00,1.6976
2827.00,1.7260
2826.00,1.7544
2825.00,1.7827
2824.00,1.8106
2823.00,1.8381
2822.00,1.8650
2821.00,1.8915
2820.00,1.9176
2819.00,1.9431
2818.00,1.9678
2817.00,1.9914
2816.00,2.0142
2815.00,2.0363
2814.00,2.0580
2813.00,2.0790
2812.00,2.0990
2811.00,2.1177
2810.00,2.1349
2809.00,2.1510
2808.00,2.1663
2807.00,2.1814
2806.00,2.1966
2805.00,2.2115
2804.00,2.2257
2803.00,2.2392
2802.00,2.2521
2801.00,2.2642
2800.00,2.2747
2799.00,2.2836
2798.00,2.2914
2797.00,2.2990
2796.00,2.3066
2795.00,2.3143
2794.00,2.3217
2793.00,2.3290
2792.00,2.3359
2791.00,2.3423
2790.00,2.3479
2789.00,2.3530
2788.00,2.3576
2787.00,2.3616
2786.00,2.3647
2785.00,2.3673
2784.00,2.3693
2783.00,2.3707
2782.00,2.3715
2781.00,2.3719
2780.00,2.3725
2779.00,2.3734
2778.00,2.3744
2777.00,2.3746
2776.00,2.3735
2775.00,2.3713
2774.00,2.3688
2773.00,2.3663
2772.00,2.3639
2771.00,2.3609
2770.00,2.3572
2769.00,2.3528
2768.00,2.3477
2767.00,2.3422
2766.00,2.3364
2765.00,2.3302
2764.00,2.3234
2763.00,2.3158
2762.00,2.3078
2761.00,2.2991
2760.00,2.2898
2759.00,2.2797
2758.00,2.2691
2757.00,2.2580
2756.00,2.2462
2755.00,2.2335
2754.00,2.2203
2753.00,2.2066
2752.00,2.1922
2751.00,2.1769
2750.00,2.1607
2749.00,2.1439
2748.00,2.1263
2747.00,2.1079
2746.00,2.0885
2745.00,2.0681
2744.00,2.0468
2743.00,2.0245
2742.00,2.0010
2741.00,1.9763
2740.00,1.9505
2739.00,1.9235
2738.00,1.8952
2737.00,1.8656
2736.00,1.8349
2735.00,1.8031
2734.00,1.7700
2733.00,1.7354
2732.00,1.6991
2731.00,1.6611
2730.00,1.6217
2729.00,1.5813
2728.00,1.5401
2727.00,1.4985
2726.00,1.4569
2725.00,1.4155
2724.00,1.3749
2723.00,1.3355
2722.00,1.2979
2721.00,1.2626
2720.00,1.2299
2719.00,1.2005
2718.00,1.1746
2717.00,1.1526
2716.00,1.1351
2715.00,1.1222
2714.00,1.1142
2713.00,1.1112
2712.00,1.1132
2711.00,1.1201
2710.00,1.1318
2709.00,1.1478
2708.00,1.1677
2707.00,1.1911
2706.00,1.2175
2705.00,1.2465
2704.00,1.2776
2703.00,1.3103
2702.00,1.3444
2701.00,1.3796
2700.00,1.4157
2699.00,1.4526
2698.00,1.4900
2697.00,1.5279
2696.00,1.5659
2695.00,1.6039
2694.00,1.6417
2693.00,1.6794
2692.00,1.7169
2691.00,1.7537
2690.00,1.7895
2689.00,1.8242
2688.00,1.8580
2687.00,1.8909
2686.00,1.9231
2685.00,1.9543
2684.00,1.9840
2683.00,2.0122
2682.00,2.0392
2681.00,2.0651
2680.00,2.0899
2679.00,2.1134
2678.00,2.1354
2677.00,2.1560
2676.00,2.1753
2675.00,2.1937
2674.00,2.2115
2673.00,2.2289
2672.00,2.2456
2671.00,2.2616
2670.00,2.2768
2669.00,2.2910
2668.00,2.3039
2667.00,2.3155
2666.00,2.3267
2665.00,2.3378
2664.00,2.3487
2663.00,2.3589
2662.00,2.3685
2661.00,2.3780
2660.00,2.3878
2659.00,2.3977
2658.00,2.4070
2657.00,2.4151
2656.00,2.4218
2655.00,2.4274
2654.00,2.4328
2653.00,2.4383
2652.00,2.4435
2651.00,2.4474
2650.00,2.4502
2649.00,2.4526
2648.00,2.4547
2647.00,2.4567
2646.00,2.4585
2645.00,2.4606
2644.00,2.4632
2643.00,2.4659
2642.00,2.4681
2641.00,2.4699
2640.00,2.4712
2639.00,2.4719
2638.00,2.4714
2637.00,2.4698
2636.00,2.4676
2635.00,2.4650
2634.00,2.4619
2633.00,2.4581
2632.00,2.4539
2631.00,2.4504
2630.00,2.4485
2629.00,2.4478
2628.00,2.4469
2627.00,2.4442
2626.00,2.4395
2625.00,2.4334
2624.00,2.4266
2623.00,2.4190
2622.00,2.4103
2621.00,2.4006
2620.00,2.3902
2619.00,2.3795
2618.00,2.3685
2617.00,2.3570
2616.00,2.3447
2615.00,2.3318
2614.00,2.3185
2613.00,2.3049
2612.00,2.2908
2611.00,2.2759
2610.00,2.2601
2609.00,2.2436
2608.00,2.2262
2607.00,2.2080
2606.00,2.1884
2605.00,2.1674
2604.00,2.1451
2603.00,2.1217
2602.00,2.0973
2601.00,2.0718
2600.00,2.0450
2599.00,2.0166
2598.00,1.9865
2597.00,1.9548
2596.00,1.9218
2595.00,1.8876
2594.00,1.8519
2593.00,1.8146
2592.00,1.7754
2591.00,1.7342
2590.00,1.6914
2589.00,1.6473
2588.00,1.6021
2587.00,1.5563
2586.00,1.5102
2585.00,1.4643
2584.00,1.4192
2583.00,1.3757
2582.00,1.3344
2581.00,1.2959
2580.00,1.2607
2579.00,1.2292
2578.00,1.2019
2577.00,1.1793
2576.00,1.1619
2575.00,1.1499
2574.00,1.1435
2573.00,1.1429
2572.00,1.1478
2571.00,1.1581
2570.00,1.1732
2569.00,1.1928
2568.00,1.2162
2567.00,1.2429
2566.00,1.2725
2565.00,1.3044
2564.00,1.3383
2563.00,1.3739
2562.00,1.4108
2561.00,1.4489
2560.00,1.4880
2559.00,1.5278
2558.00,1.5679
2557.00,1.6081
2556.00,1.6484
2555.00,1.6885
2554.00,1.7284
2553.00,1.7681
2552.00,1.8073
2551.00,1.8461
2550.00,1.8840
2549.00,1.9206
2548.00,1.9556
2547.00,1.9888
2546.00,2.0205
2545.00,2.0510
2544.00,2.0807
2543.00,2.1095
2542.00,2.1368
2541.00,2.1625
2540.00,2.1866
2539.00,2.2095
2538.00,2.2314
2537.00,2.2526
2536.00,2.2728
2535.00,2.2921
2534.00,2.3103
2533.00,2.3278
2532.00,2.3448
2531.00,2.3616
2530.00,2.3781
2529.00,2.3932
2528.00,2.4068
2527.00,2.4190
2526.00,2.4306
2525.00,2.4416
2524.00,2.4520
2523.00,2.4621
2522.00,2.4725
2521.00,2.4831
2520.00,2.4928
2519.00,2.5009
2518.00,2.5076
2517.00,2.5136
2516.00,2.5198
2515.00,2.5262
2514.00,2.5326
2513.00,2.5390
2512.00,2.5453
2511.00,2.5513
2510.00,2.5561
2509.00,2.5594
2508.00,2.5623
2507.00,2.5657
2506.00,2.5698
2505.00,2.5735
2504.00,2.5758
2503.00,2.5764
2502.00,2.5752
2501.00,2.5724
2500.00,2.5692
2499.00,2.5670
2498.00,2.5661
2497.00,2.5658
2496.00,2.5652
2495.00,2.5640
2494.00,2.5622
2493.00,2.5591
2492.00,2.5543
2491.00,2.5492
2490.00,2.5452
2489.00,2.5422
2488.00,2.5388
2487.00,2.5341
2486.00,2.5280
2485.00,2.5206
2484.00,2.5125
2483.00,2.5043
2482.00,2.4964
2481.00,2.4886
2480.00,2.4800
2479.00,2.4701
2478.00,2.4592
2477.00,2.4476
2476.00,2.4354
2475.00,2.4226
2474.00,2.4091
2473.00,2.3949
2472.00,2.3800
2471.00,2.3646
2470.00,2.3487
2469.00,2.3317
2468.00,2.3132
2467.00,2.2934
2466.00,2.2733
2465.00,2.2531
2464.00,2.2325
2463.00,2.2106
2462.00,2.1870
2461.00,2.1617
2460.00,2.1348
2459.00,2.1063
2458.00,2.0762
2457.00,2.0445
2456.00,2.0112
2455.00,1.9766
2454.00,1.9409
2453.00,1.9039
2452.00,1.8654
2451.00,1.8252
2450.00,1.7835
2449.00,1.7407
2448.00,1.6972
2447.00,1.6533
2446.00,1.6095
2445.00,1.5665
2444.00,1.5248
2443.00,1.4850
2442.00,1.4478
2441.00,1.4135
2440.00,1.3827
2439.00,1.3558
2438.00,1.3332
2437.00,1.3154
2436.00,1.3027
2435.00,1.2954
2434.00,1.2935
2433.00,1.2973
2432.00,1.3064
2431.00,1.3207
2430.00,1.3396
2429.00,1.3627
2428.00,1.3896
2427.00,1.4196
2426.00,1.4522
2425.00,1.4870
2424.00,1.5236
2423.00,1.5615
2422.00,1.6002
2421.00,1.6393
2420.00,1.6786
2419.00,1.7178
2418.00,1.7570
2417.00,1.7960
2416.00,1.8343
2415.00,1.8717
2414.00,1.9078
2413.00,1.9424
2412.00,1.9753
2411.00,2.0064
2410.00,2.0361
2409.00,2.0646
2408.00,2.0921
2407.00,2.1189
2406.00,2.1449
2405.00,2.1702
2404.00,2.1949
2403.00,2.2189
2402.00,2.2420
2401.00,2.2642
2400.00,2.2857
2399.00,2.3066
2398.00,2.3274
2397.00,2.3483
2396.00,2.3688
2395.00,2.3881
2394.00,2.4059
2393.00,2.4240
2392.00,2.4413
2391.00,2.4653
2390.00,2.4863
2389.00,2.5264
2388.00,2.5212
2387.00,2.5097
2386.00,2.5297
2385.00,2.5368
2384.00,2.5521
2383.00,2.5636
2382.00,2.5764
2381.00,2.5861
2380.00,2.5938
2379.00,2.6000
2378.00,2.6061
2377.00,2.6127
2376.00,2.6193
2375.00,2.6259
2374.00,2.6327
2373.00,2.6391
2372.00,2.6440
2371.00,2.6464
2370.00,2.6475
2369.00,2.6486
2368.00,2.6501
2367.00,2.6514
2366.00,2.6526
2365.00,2.6540
2364.00,2.6558
2363.00,2.6576
2362.00,2.6595
2361.00,2.6614
2360.00,2.6618
2359.00,2.6588
2358.00,2.6530
2357.00,2.6481
2356.00,2.6466
2355.00,2.6477
2354.00,2.6485
2353.00,2.6472
2352.00,2.6442
2351.00,2.6411
2350.00,2.6384
2349.00,2.6353
2348.00,2.6308
2347.00,2.6242
2346.00,2.6155
2345.00,2.6056
2344.00,2.5955
2343.00,2.5860
2342.00,2.5769
2341.00,2.5676
2340.00,2.5572
2339.00,2.5464
2338.00,2.5326
2337.00,2.5203
2336.00,2.5006
2335.00,2.4897
2334.00,2.4608
2333.00,2.4900
2332.00,2.5353
2331.00,2.5261
2330.00,2.5138
2329.00,2.4880
2328.00,2.4717
2327.00,2.4657
2326.00,2.4775
2325.00,2.4971
2324.00,2.5153
2323.00,2.5186
2322.00,2.5021
2321.00,2.4669
2320.00,2.4201
2319.00,2.3741
2318.00,2.3398
2317.00,2.3257
2316.00,2.3287
2315.00,2.3395
2314.00,2.3436
2313.00,2.3319
2312.00,2.3022
2311.00,2.2588
2310.00,2.2078
2309.00,2.1539
2308.00,2.1016
2307.00,2.0549
2306.00,2.0194
2305.00,1.9992
2304.00,1.9965
2303.00,2.0103
2302.00,2.0376
2301.00,2.0760
2300.00,2.1234
2299.00,2.1780
2298.00,2.2373
2297.00,2.2972
2296.00,2.3532
2295.00,2.3996
2294.00,2.4299
2293.00,2.4369
2292.00,2.4159
2291.00,2.3678
2290.00,2.2999
2289.00,2.2216
2288.00,2.1424
2287.00,2.0697
2286.00,2.0090
2285.00,1.9637
2284.00,1.9360
2283.00,1.9257
2282.00,1.9312
2281.00,1.9497
2280.00,1.9784
2279.00,2.0147
2278.00,2.0565
2277.00,2.1025
2276.00,2.1515
2275.00,2.2024
2274.00,2.2538
2273.00,2.3048
2272.00,2.3548
2271.00,2.4037
2270.00,2.4515
2269.00,2.4979
2268.00,2.5424
2267.00,2.5849
2266.00,2.6258
2265.00,2.6662
2264.00,2.7066
2263.00,2.7476
2262.00,2.7901
2261.00,2.8363
2260.00,2.8889
2259.00,2.9520
2258.00,3.0320
2257.00,3.1375
2256.00,3.2760
2255.00,3.4474
2254.00,3.6248
2253.00,3.7287
2252.00,3.6759
2251.00,3.5046
2250.00,3.2980
2249.00,3.0945
2248.00,2.9071
2247.00,2.7405
2246.00,2.5974
2245.00,2.4797
2244.00,2.3884
2243.00,2.3236
2242.00,2.2842
2241.00,2.2676
2240.00,2.2700
2239.00,2.2871
2238.00,2.3148
2237.00,2.3495
2236.00,2.3879
2235.00,2.4272
2234.00,2.4651
2233.00,2.5004
2232.00,2.5329
2231.00,2.5622
2230.00,2.5883
2229.00,2.6110
2228.00,2.6308
2227.00,2.6488
2226.00,2.6657
2225.00,2.6817
2224.00,2.6958
2223.00,2.7077
2222.00,2.7181
2221.00,2.7279
2220.00,2.7373
2219.00,2.7460
2218.00,2.7536
2217.00,2.7600
2216.00,2.7655
2215.00,2.7704
2214.00,2.7744
2213.00,2.7777
2212.00,2.7806
2211.00,2.7831
2210.00,2.7847
2209.00,2.7852
2208.00,2.7850
2207.00,2.7854
2206.00,2.7866
2205.00,2.7882
2204.00,2.7894
2203.00,2.7900
2202.00,2.7895
2201.00,2.7866
2200.00,2.7811
2199.00,2.7744
2198.00,2.7685
2197.00,2.7635
2196.00,2.7576
2195.00,2.7494
2194.00,2.7394
2193.00,2.7293
2192.00,2.7205
2191.00,2.7129
2190.00,2.7055
2189.00,2.6970
2188.00,2.6872
2187.00,2.6770
2186.00,2.6675
2185.00,2.6587
2184.00,2.6494
2183.00,2.6384
2182.00,2.6247
2181.00,2.6082
2180.00,2.5897
2179.00,2.5704
2178.00,2.5514
2177.00,2.5321
2176.00,2.5116
2175.00,2.4899
2174.00,2.4680
2173.00,2.4463
2172.00,2.4240
2171.00,2.3998
2170.00,2.3732
2169.00,2.3446
2168.00,2.3144
2167.00,2.2822
2166.00,2.2477
2165.00,2.2109
2164.00,2.1722
2163.00,2.1316
2162.00,2.0893
2161.00,2.0449
2160.00,1.9983
2159.00,1.9491
2158.00,1.8975
2157.00,1.8437
2156.00,1.7883
2155.00,1.7317
2154.00,1.6749
2153.00,1.6190
2152.00,1.5651
2151.00,1.5142
2150.00,1.4673
2149.00,1.4252
2148.00,1.3890
2147.00,1.3594
2146.00,1.3373
2145.00,1.3231
2144.00,1.3174
2143.00,1.3199
2142.00,1.3305
2141.00,1.3485
2140.00,1.3733
2139.00,1.4039
2138.00,1.4393
2137.00,1.4786
2136.00,1.5211
2135.00,1.5659
2134.00,1.6124
2133.00,1.6601
2132.00,1.7089
2131.00,1.7585
2130.00,1.8085
2129.00,1.8584
2128.00,1.9076
2127.00,1.9560
2126.00,2.0036
2125.00,2.0504
2124.00,2.0958
2123.00,2.1395
2122.00,2.1815
2121.00,2.2216
2120.00,2.2597
2119.00,2.2958
2118.00,2.3304
2117.00,2.3633
2116.00,2.3942
2115.00,2.4228
2114.00,2.4494
2113.00,2.4749
2112.00,2.4995
2111.00,2.5233
2110.00,2.5460
2109.00,2.5672
2108.00,2.5864
2107.00,2.6044
2106.00,2.6225
2105.00,2.6411
2104.00,2.6596
2103.00,2.6768
2102.00,2.6928
2101.00,2.7077
2100.00,2.7209
2099.00,2.7321
2098.00,2.7422
2097.00,2.7527
2096.00,2.7639
2095.00,2.7748
2094.00,2.7844
2093.00,2.7921
2092.00,2.7985
2091.00,2.8051
2090.00,2.8134
2089.00,2.8236
2088.00,2.8340
2087.00,2.8424
2086.00,2.8488
2085.00,2.8545
2084.00,2.8606
2083.00,2.8668
2082.00,2.8723
2081.00,2.8769
2080.00,2.8806
2079.00,2.8840
2078.00,2.8876
2077.00,2.8917
2076.00,2.8954
2075.00,2.8976
2074.00,2.8978
2073.00,2.8974
2072.00,2.8985
2071.00,2.9015
2070.00,2.9040
2069.00,2.9029
2068.00,2.8976
2067.00,2.8902
2066.00,2.8828
2065.00,2.8761
2064.00,2.8708
2063.00,2.8672
2062.00,2.8649
2061.00,2.8623
2060.00,2.8587
2059.00,2.8555
2058.00,2.8535
2057.00,2.8511
2056.00,2.8454
2055.00,2.8360
2054.00,2.8255
2053.00,2.8164
2052.00,2.8090
2051.00,2.8014
2050.00,2.7920
2049.00,2.7803
2048.00,2.7671
2047.00,2.7535
2046.00,2.7402
2045.00,2.7268
2044.00,2.7128
2043.00,2.6974
2042.00,2.6803
2041.00,2.6617
2040.00,2.6425
2039.00,2.6240
2038.00,2.6069
2037.00,2.5904
2036.00,2.5732
2035.00,2.5544
2034.00,2.5334
2033.00,2.5097
2032.00,2.4832
2031.00,2.4544
2030.00,2.4241
2029.00,2.3925
2028.00,2.3597
2027.00,2.3253
2026.00,2.2893
2025.00,2.2513
2024.00,2.2115
2023.00,2.1696
2022.00,2.1253
2021.00,2.0781
2020.00,2.0280
2019.00,1.9754
2018.00,1.9207
2017.00,1.8643
2016.00,1.8072
2015.00,1.7505
2014.00,1.6953
2013.00,1.6421
2012.00,1.5916
2011.00,1.5448
2010.00,1.5026
2009.00,1.4663
2008.00,1.4369
2007.00,1.4150
2006.00,1.4014
2005.00,1.3965
2004.00,1.4002
2003.00,1.4122
2002.00,1.4319
2001.00,1.4586
2000.00,1.4910
1999.00,1.5284
1998.00,1.5696
1997.00,1.6138
1996.00,1.6600
1995.00,1.7075
1994.00,1.7560
1993.00,1.8057
1992.00,1.8566
1991.00,1.9088
1990.00,1.9619
1989.00,2.0147
1988.00,2.0663
1987.00,2.1161
1986.00,2.1637
1985.00,2.2093
1984.00,2.2528
1983.00,2.2943
1982.00,2.3340
1981.00,2.3717
1980.00,2.4067
1979.00,2.4387
1978.00,2.4686
1977.00,2.4972
1976.00,2.5248
1975.00,2.5513
1974.00,2.5775
1973.00,2.6042
1972.00,2.6307
1971.00,2.6555
1970.00,2.6777
1969.00,2.6976
1968.00,2.7162
1967.00,2.7336
1966.00,2.7492
1965.00,2.7634
1964.00,2.7773
1963.00,2.7920
1962.00,2.8079
1961.00,2.8238
1960.00,2.8386
1959.00,2.8520
1958.00,2.8644
1957.00,2.8760
1956.00,2.8858
1955.00,2.8934
1954.00,2.9001
1953.00,2.9077
1952.00,2.9173
1951.00,2.9278
1950.00,2.9377
1949.00,2.9465
1948.00,2.9548
1947.00,2.9634
1946.00,2.9720
1945.00,2.9790
1944.00,2.9828
1943.00,2.9838
1942.00,2.9844
1941.00,2.9872
1940.00,2.9929
1939.00,2.9999
1938.00,3.0061
1937.00,3.0093
1936.00,3.0085
1935.00,3.0052
1934.00,3.0020
1933.00,3.0010
1932.00,3.0016
1931.00,3.0006
1930.00,2.9967
1929.00,2.9913
1928.00,2.9865
1927.00,2.9833
1926.00,2.9815
1925.00,2.9813
1924.00,2.9816
1923.00,2.9803
1922.00,2.9762
1921.00,2.9709
1920.00,2.9666
1919.00,2.9632
1918.00,2.9582
1917.00,2.9502
1916.00,2.9402
1915.00,2.9298
1914.00,2.9195
1913.00,2.9104
1912.00,2.9040
1911.00,2.8996
1910.00,2.8936
1909.00,2.8833
1908.00,2.8701
1907.00,2.8571
1906.00,2.8444
1905.00,2.8301
1904.00,2.8138
1903.00,2.7971
1902.00,2.7815
1901.00,2.7657
1900.00,2.7479
1899.00,2.7272
1898.00,2.7045
1897.00,2.6818
1896.00,2.6602
1895.00,2.6383
1894.00,2.6145
1893.00,2.5882
1892.00,2.5599
1891.00,2.5297
1890.00,2.4969
1889.00,2.4623
1888.00,2.4283
1887.00,2.3959
1886.00,2.3629
1885.00,2.3262
1884.00,2.2853
1883.00,2.2408
1882.00,2.1937
1881.00,2.1438
1880.00,2.0914
1879.00,2.0375
1878.00,1.9827
1877.00,1.9275
1876.00,1.8725
1875.00,1.8177
1874.00,1.7632
1873.00,1.7100
1872.00,1.6604
1871.00,1.6166
1870.00,1.5797
1869.00,1.5491
1868.00,1.5248
1867.00,1.5089
1866.00,1.5039
1865.00,1.5096
1864.00,1.5242
1863.00,1.5466
1862.00,1.5760
1861.00,1.6120
1860.00,1.6536
1859.00,1.6995
1858.00,1.7487
1857.00,1.8005
1856.00,1.8539
1855.00,1.9082
1854.00,1.9630
1853.00,2.0179
1852.00,2.0720
1851.00,2.1248
1850.00,2.1757
1849.00,2.2240
1848.00,2.2693
1847.00,2.3118
1846.00,2.3537
1845.00,2.3955
1844.00,2.4356
1843.00,2.4735
1842.00,2.5117
1841.00,2.5512
1840.00,2.5896
1839.00,2.6249
1838.00,2.6561
1837.00,2.6840
1836.00,2.7089
1835.00,2.7312
1834.00,2.7525
1833.00,2.7739
1832.00,2.7947
1831.00,2.8135
1830.00,2.8284
1829.00,2.8402
1828.00,2.8532
1827.00,2.8699
1826.00,2.8893
1825.00,2.9097
1824.00,2.9299
1823.00,2.9494
1822.00,2.9679
1821.00,2.9835
1820.00,2.9944
1819.00,3.0004
1818.00,3.0043
1817.00,3.0110
1816.00,3.0223
1815.00,3.0368
1814.00,3.0516
1813.00,3.0634
1812.00,3.0700
1811.00,3.0720
1810.00,3.0731
1809.00,3.0780
1808.00,3.0871
1807.00,3.0970
1806.00,3.1038
1805.00,3.1050
1804.00,3.1011
1803.00,3.0963
1802.00,3.0963
1801.00,3.1023
1800.00,3.1105
1799.00,3.1156
1798.00,3.1145
1797.00,3.1081
1796.00,3.1006
1795.00,3.0983
1794.00,3.1039
1793.00,3.1111
1792.00,3.1094
1791.00,3.0987
1790.00,3.0906
1789.00,3.0908
1788.00,3.0936
1787.00,3.0927
1786.00,3.0881
1785.00,3.0830
1784.00,3.0788
1783.00,3.0755
1782.00,3.0721
1781.00,3.0649
1780.00,3.0514
1779.00,3.0350
1778.00,3.0223
1777.00,3.0153
1776.00,3.0108
1775.00,3.0069
1774.00,3.0033
1773.00,2.9947
1772.00,2.9728
1771.00,2.9409
1770.00,2.9125
1769.00,2.8948
1768.00,2.8847
1767.00,2.8765
1766.00,2.8665
1765.00,2.8518
1764.00,2.8301
1763.00,2.8026
1762.00,2.7720
1761.00,2.7413
1760.00,2.7122
1759.00,2.6835
1758.00,2.6533
1757.00,2.6194
1756.00,2.5819
1755.00,2.5450
1754.00,2.5101
1753.00,2.4742
1752.00,2.4352
1751.00,2.3954
1750.00,2.3595
1749.00,2.3286
1748.00,2.2989
1747.00,2.2687
1746.00,2.2412
1745.00,2.2188
1744.00,2.2021
1743.00,2.1910
1742.00,2.1865
1741.00,2.1889
1740.00,2.1943
1739.00,2.1976
1738.00,2.2006
1737.00,2.2086
1736.00,2.2245
1735.00,2.2484
1734.00,2.2751
1733.00,2.3053
1732.00,2.3468
1731.00,2.3991
1730.00,2.4568
1729.00,2.5174
1728.00,2.5805
1727.00,2.6466
1726.00,2.7140
1725.00,2.7801
1724.00,2.8445
1723.00,2.9080
1722.00,2.9706
1721.00,3.0318
1720.00,3.0937
1719.00,3.1625
1718.00,3.2388
1717.00,3.3152
1716.00,3.3902
1715.00,3.4740
1714.00,3.5772
1713.00,3.6948
1712.00,3.8075
1711.00,3.9034
1710.00,3.9744
1709.00,3.9857
1708.00,3.9307
1707.00,3.8622
1706.00,3.7975
1705.00,3.7044
1704.00,3.5740
1703.00,3.4334
1702.00,3.2905
1701.00,3.1311
1700.00,2.9603
1699.00,2.8133
1698.00,2.7064
1697.00,2.6204
1696.00,2.5318
1695.00,2.4458
1694.00,2.3875
1693.00,2.3660
1692.00,2.3699
1691.00,2.3864
1690.00,2.4098
1689.00,2.4392
1688.00,2.4754
1687.00,2.5197
1686.00,2.5733
1685.00,2.6338
1684.00,2.6836
1683.00,2.7172
1682.00,2.7519
1681.00,2.7924
1680.00,2.8324
1679.00,2.8671
1678.00,2.8955
1677.00,2.9209
1676.00,2.9463
1675.00,2.9712
1674.00,2.9945
1673.00,3.0166
1672.00,3.0372
1671.00,3.0555
1670.00,3.0703
1669.00,3.0815
1668.00,3.0932
1667.00,3.1090
1666.00,3.1283
1665.00,3.1504
1664.00,3.1729
1663.00,3.1881
1662.00,3.1909
1661.00,3.1879
1660.00,3.1886
1659.00,3.1950
1658.00,3.2013
1657.00,3.2026
1656.00,3.2011
1655.00,3.2068
1654.00,3.2244
1653.00,3.2317
1652.00,3.2279
1651.00,3.2387
1650.00,3.2604
1649.00,3.2835
1648.00,3.3022
1647.00,3.3068
1646.00,3.2959
1645.00,3.2827
1644.00,3.2748
1643.00,3.2706
1642.00,3.2719
1641.00,3.2788
1640.00,3.2876
1639.00,3.2921
1638.00,3.2896
1637.00,3.2818
1636.00,3.2669
1635.00,3.2470
1634.00,3.2367
1633.00,3.2413
1632.00,3.2487
1631.00,3.2483
1630.00,3.2390
1629.00,3.2268
1628.00,3.2163
1627.00,3.2081
1626.00,3.1995
1625.00,3.1875
1624.00,3.1730
1623.00,3.1598
1622.00,3.1514
1621.00,3.1476
1620.00,3.1451
1619.00,3.1431
1618.00,3.1402
1617.00,3.1265
1616.00,3.0942
1615.00,3.0556
1614.00,3.0266
1613.00,3.0082
1612.00,2.9933
1611.00,2.9783
1610.00,2.9642
1609.00,2.9503
1608.00,2.9323
1607.00,2.9087
1606.00,2.8822
1605.00,2.8543
1604.00,2.8243
1603.00,2.7914
1602.00,2.7561
1601.00,2.7193
1600.00,2.6813
1599.00,2.6426
1598.00,2.6037
1597.00,2.5639
1596.00,2.5224
1595.00,2.4786
1594.00,2.4324
1593.00,2.3844
1592.00,2.3353
1591.00,2.2862
1590.00,2.2380
1589.00,2.1912
1588.00,2.1469
1587.00,2.1065
1586.00,2.0723
1585.00,2.0452
1584.00,2.0260
1583.00,2.0160
1582.00,2.0158
1581.00,2.0232
1580.00,2.0368
1579.00,2.0580
1578.00,2.0889
1577.00,2.1262
1576.00,2.1591
1575.00,2.1848
1574.00,2.2126
1573.00,2.2477
1572.00,2.2898
1571.00,2.3382
1570.00,2.3888
1569.00,2.4365
1568.00,2.4828
1567.00,2.5314
1566.00,2.5805
1565.00,2.6264
1564.00,2.6657
1563.00,2.6971
1562.00,2.7222
1561.00,2.7473
1560.00,2.7870
1559.00,2.8275
1558.00,2.8460
1557.00,2.8674
1556.00,2.8978
1555.00,2.9264
1554.00,2.9527
1553.00,2.9796
1552.00,3.0090
1551.00,3.0368
1550.00,3.0610
1549.00,3.0850
1548.00,3.1125
1547.00,3.1413
1546.00,3.1660
1545.00,3.1830
1544.00,3.1920
1543.00,3.1979
1542.00,3.2097
1541.00,3.2321
1540.00,3.2511
1539.00,3.2568
1538.00,3.2613
1537.00,3.2692
1536.00,3.2766
1535.00,3.2837
1534.00,3.2915
1533.00,3.2996
1532.00,3.3118
1531.00,3.3293
1530.00,3.3447
1529.00,3.3511
1528.00,3.3452
1527.00,3.3281
1526.00,3.3096
1525.00,3.3036
1524.00,3.3161
1523.00,3.3438
1522.00,3.3778
1521.00,3.4079
1520.00,3.4298
1519.00,3.4391
1518.00,3.4313
1517.00,3.4079
1516.00,3.3789
1515.00,3.3609
1514.00,3.3617
1513.00,3.3747
1512.00,3.3864
1511.00,3.3854
1510.00,3.3727
1509.00,3.3607
1508.00,3.3638
1507.00,3.3738
1506.00,3.3755
1505.00,3.3785
1504.00,3.3859
1503.00,3.3908
1502.00,3.3949
1501.00,3.4030
1500.00,3.4150
1499.00,3.4239
1498.00,3.4212
1497.00,3.4058
1496.00,3.3843
1495.00,3.3605
1494.00,3.3333
1493.00,3.3029
1492.00,3.2766
1491.00,3.2655
1490.00,3.2732
1489.00,3.2894
1488.00,3.2975
1487.00,3.2877
1486.00,3.2647
1485.00,3.2401
1484.00,3.2217
1483.00,3.2123
1482.00,3.2102
1481.00,3.2114
1480.00,3.2097
1479.00,3.1997
1478.00,3.1807
1477.00,3.1573
1476.00,3.1345
1475.00,3.1157
1474.00,3.1029
1473.00,3.0952
1472.00,3.0909
1471.00,3.0924
1470.00,3.1007
1469.00,3.1121
1468.00,3.1240
1467.00,3.1367
1466.00,3.1507
1465.00,3.1617
1464.00,3.1676
1463.00,3.1753
1462.00,3.1927
1461.00,3.2198
1460.00,3.2501
1459.00,3.2792
1458.00,3.3082
1457.00,3.3423
1456.00,3.3877
1455.00,3.4434
1454.00,3.5007
1453.00,3.5577
1452.00,3.6113
1451.00,3.6478
1450.00,3.6581
1449.00,3.6508
1448.00,3.6352
1447.00,3.6154
1446.00,3.6016
1445.00,3.6050
1444.00,3.6245
1443.00,3.6419
1442.00,3.6354
1441.00,3.6048
1440.00,3.5707
1439.00,3.5473
1438.00,3.5332
1437.00,3.5202
1436.00,3.5048
1435.00,3.4939
1434.00,3.4931
1433.00,3.4973
1432.00,3.4966
1431.00,3.4862
1430.00,3.4711
1429.00,3.4584
1428.00,3.4480
1427.00,3.4358
1426.00,3.4244
1425.00,3.4244
1424.00,3.4447
1423.00,3.4822
1422.00,3.5202
1421.00,3.5391
1420.00,3.5308
1419.00,3.5035
1418.00,3.4743
1417.00,3.4560
1416.00,3.4484
1415.00,3.4439
1414.00,3.4343
1413.00,3.4148
1412.00,3.3878
1411.00,3.3627
1410.00,3.3480
1409.00,3.3423
1408.00,3.3357
1407.00,3.3227
1406.00,3.3086
1405.00,3.2989
1404.00,3.2914
1403.00,3.2833
1402.00,3.2763
1401.00,3.2746
1400.00,3.2793
1399.00,3.2874
1398.00,3.2957
1397.00,3.3043
1396.00,3.3138
1395.00,3.3234
1394.00,3.3345
1393.00,3.3535
1392.00,3.3818
1391.00,3.4103
1390.00,3.4298
1389.00,3.4410
1388.00,3.4529
1387.00,3.4740
1386.00,3.5082
1385.00,3.5530
1384.00,3.5988
1383.00,3.6363
1382.00,3.6634
1381.00,3.6864
1380.00,3.7141
1379.00,3.7520
1378.00,3.7985
1377.00,3.8422
1376.00,3.8631
1375.00,3.8445
1374.00,3.7854
1373.00,3.7029
1372.00,3.6226
1371.00,3.5605
1370.00,3.5164
1369.00,3.4841
1368.00,3.4596
1367.00,3.4447
1366.00,3.4431
1365.00,3.4539
1364.00,3.4696
1363.00,3.4803
1362.00,3.4833
1361.00,3.4850
1360.00,3.4905
1359.00,3.5001
1358.00,3.5153
1357.00,3.5398
1356.00,3.5718
1355.00,3.5991
1354.00,3.6092
1353.00,3.6047
1352.00,3.5985
1351.00,3.5956
1350.00,3.5908
1349.00,3.5803
1348.00,3.5704
1347.00,3.5697
1346.00,3.5772
1345.00,3.5828
1344.00,3.5781
1343.00,3.5665
1342.00,3.5574
1341.00,3.5556
1340.00,3.5572
1339.00,3.5574
1338.00,3.5614
1337.00,3.5751
1336.00,3.5936
1335.00,3.6090
1334.00,3.6200
1333.00,3.6256
1332.00,3.6209
1331.00,3.6026
1330.00,3.5750
1329.00,3.5481
1328.00,3.5305
1327.00,3.5252
1326.00,3.5289
1325.00,3.5329
1324.00,3.5282
1323.00,3.5113
1322.00,3.4865
1321.00,3.4619
1320.00,3.4435
1319.00,3.4336
1318.00,3.4326
1317.00,3.4404
1316.00,3.4514
1315.00,3.4554
1314.00,3.4488
1313.00,3.4434
1312.00,3.4551
1311.00,3.4837
1310.00,3.5069
1309.00,3.4969
1308.00,3.4520
1307.00,3.3956
1306.00,3.3474
1305.00,3.3127
1304.00,3.2875
1303.00,3.2655
1302.00,3.2411
1301.00,3.2115
1300.00,3.1775
1299.00,3.1412
1298.00,3.1034
1297.00,3.0634
1296.00,3.0211
1295.00,2.9767
1294.00,2.9292
1293.00,2.8774
1292.00,2.8219
1291.00,2.7649
1290.00,2.7078
1289.00,2.6502
1288.00,2.5921
1287.00,2.5351
1286.00,2.4814
1285.00,2.4330
1284.00,2.3920
1283.00,2.3611
1282.00,2.3426
1281.00,2.3373
1280.00,2.3446
1279.00,2.3627
1278.00,2.3889
1277.00,2.4189
1276.00,2.4484
1275.00,2.4754
1274.00,2.5014
1273.00,2.5287
1272.00,2.5592
1271.00,2.5941
1270.00,2.6343
1269.00,2.6790
1268.00,2.7259
1267.00,2.7728
1266.00,2.8187
1265.00,2.8628
1264.00,2.9029
1263.00,2.9377
1262.00,2.9705
1261.00,3.0076
1260.00,3.0537
1259.00,3.1087
1258.00,3.1688
1257.00,3.2268
1256.00,3.2733
1255.00,3.3029
1254.00,3.3210
1253.00,3.3410
1252.00,3.3716
1251.00,3.4101
1250.00,3.4454
1249.00,3.4680
1248.00,3.4766
1247.00,3.4790
1246.00,3.4868
1245.00,3.5079
1244.00,3.5415
1243.00,3.5812
1242.00,3.6185
1241.00,3.6407
1240.00,3.6364
1239.00,3.6137
1238.00,3.5983
1237.00,3.6070
1236.00,3.6321
1235.00,3.6547
1234.00,3.6663
1233.00,3.6693
1232.00,3.6707
1231.00,3.6796
1230.00,3.6998
1229.00,3.7278
1228.00,3.7533
1227.00,3.7633
1226.00,3.7527
1225.00,3.7264
1224.00,3.6982
1223.00,3.6836
1222.00,3.6899
1221.00,3.7154
1220.00,3.7452
1219.00,3.7558
1218.00,3.7360
1217.00,3.6992
1216.00,3.6671
1215.00,3.6457
1214.00,3.6283
1213.00,3.6157
1212.00,3.6223
1211.00,3.6618
1210.00,3.7286
1209.00,3.7863
1208.00,3.7932
1207.00,3.7612
1206.00,3.7379
1205.00,3.7488
1204.00,3.7850
1203.00,3.8132
1202.00,3.8060
1201.00,3.7753
1200.00,3.7515
1199.00,3.7462
1198.00,3.7405
1197.00,3.7086
1196.00,3.6614
1195.00,3.6366
1194.00,3.6536
1193.00,3.6962
1192.00,3.7219
1191.00,3.7176
1190.00,3.7154
1189.00,3.7273
1188.00,3.7339
1187.00,3.7229
1186.00,3.7022
1185.00,3.6812
1184.00,3.6634
1183.00,3.6579
1182.00,3.6745
1181.00,3.7045
1180.00,3.7222
1179.00,3.7159
1178.00,3.6967
1177.00,3.6742
1176.00,3.6448
1175.00,3.6117
1174.00,3.5935
1173.00,3.5986
1172.00,3.6066
1171.00,3.5886
1170.00,3.5469
1169.00,3.5060
1168.00,3.4755
1167.00,3.4489
1166.00,3.4185
1165.00,3.3825
1164.00,3.3434
1163.00,3.3051
1162.00,3.2702
1161.00,3.2369
1160.00,3.1984
1159.00,3.1524
1158.00,3.1063
1157.00,3.0665
1156.00,3.0286
1155.00,2.9808
1154.00,2.9191
1153.00,2.8522
1152.00,2.7919
1151.00,2.7428
1150.00,2.7026
1149.00,2.6666
1148.00,2.6337
1147.00,2.6079
1146.00,2.5937
1145.00,2.5928
1144.00,2.6024
1143.00,2.6181
1142.00,2.6384
1141.00,2.6659
1140.00,2.7037
1139.00,2.7525
1138.00,2.8092
1137.00,2.8701
1136.00,2.9325
1135.00,2.9949
1134.00,3.0550
1133.00,3.1083
1132.00,3.1521
1131.00,3.1930
1130.00,3.2463
1129.00,3.3225
1128.00,3.4112
1127.00,3.4806
1126.00,3.5125
1125.00,3.5283
1124.00,3.5548
1123.00,3.5952
1122.00,3.6374
1121.00,3.6701
1120.00,3.6849
1119.00,3.6789
1118.00,3.6585
1117.00,3.6384
1116.00,3.6358
1115.00,3.6635
1114.00,3.7249
1113.00,3.8099
1112.00,3.8918
1111.00,3.9391
1110.00,3.9338
1109.00,3.8910
1108.00,3.8447
1107.00,3.8192
1106.00,3.8342
1105.00,3.8868
1104.00,3.9371
1103.00,3.9819
1102.00,4.0931
1101.00,4.1733
1100.00,4.0135
1099.00,3.8446
1098.00,3.7588
1097.00,3.7664
1096.00,3.8841
1095.00,4.0789
1094.00,4.1602
1093.00,4.1174
1092.00,4.0776
1091.00,3.9885
1090.00,3.8792
1089.00,3.8136
1088.00,3.8132
1087.00,3.9066
1086.00,4.0884
1085.00,4.1420
1084.00,4.0800
1083.00,4.1468
1082.00,4.3469
1081.00,4.6233
1080.00,5.0414
1079.00,4.5864
1078.00,4.2140
1077.00,4.1546
1076.00,4.2239
1075.00,4.1731
1074.00,4.0860
1073.00,4.1245
1072.00,4.2483
1071.00,4.2604
1070.00,4.1698
1069.00,4.0957
1068.00,4.0124
1067.00,3.8958
1066.00,3.7823
1065.00,3.7203
1064.00,3.7254
1063.00,3.7804
1062.00,3.8375
1061.00,3.8382
1060.00,3.7749
1059.00,3.7114
1058.00,3.7025
1057.00,3.7531
1056.00,3.8289
1055.00,3.8930
1054.00,3.9425
1053.00,3.9857
1052.00,4.0274
1051.00,4.1070
1050.00,4.2814
1049.00,4.6780
1048.00,5.3551
1047.00,4.8538
1046.00,4.6489
1045.00,4.5288
1044.00,4.4066
1043.00,4.1416
1042.00,3.9110
1041.00,3.7906
1040.00,3.7383
1039.00,3.7289
1038.00,3.7624
1037.00,3.8412
1036.00,3.9412
1035.00,4.0292
1034.00,4.1134
1033.00,4.2434
1032.00,4.3111
1031.00,4.1223
1030.00,3.9378
1029.00,3.8499
1028.00,3.8450
1027.00,3.9104
1026.00,4.0301
1025.00,4.1341
1024.00,4.1204
1023.00,4.0601
1022.00,4.0041
1021.00,3.9550
1020.00,3.9250
1019.00,3.9146
1018.00,3.9283
1017.00,3.9740
1016.00,4.0388
1015.00,4.0691
1014.00,4.0203
1013.00,3.9401
1012.00,3.8760
1011.00,3.8295
1010.00,3.8013
1009.00,3.8006
1008.00,3.8159
1007.00,3.8109
1006.00,3.7721
1005.00,3.7152
1004.00,3.6530
1003.00,3.5938
1002.00,3.5424
1001.00,3.5013
1000.00,3.4674
999.00,3.4326
998.00,3.3942
997.00,3.3586
996.00,3.3318
995.00,3.3154
994.00,3.3104
993.00,3.3218
992.00,3.3538
991.00,3.4020
990.00,3.4503
989.00,3.4846
988.00,3.5109
987.00,3.5503
986.00,3.6178
985.00,3.7107
984.00,3.8149
983.00,3.9240
982.00,4.0386
981.00,4.0587
980.00,3.9334
979.00,3.8380
978.00,3.8308
977.00,3.8935
976.00,3.9816
975.00,4.0399
974.00,4.0680
973.00,4.1087
972.00,4.1917
971.00,4.3099
970.00,4.4228
969.00,4.5441
968.00,4.6707
967.00,4.6025
966.00,4.4740
965.00,4.4236
964.00,4.4001
963.00,4.3828
962.00,4.3942
961.00,4.3815
960.00,4.2942
959.00,4.2054
958.00,4.1844
957.00,4.2518
956.00,4.3565
955.00,4.3899
954.00,4.3111
953.00,4.1924
952.00,4.1266
951.00,4.0795
950.00,4.0055
949.00,3.9523
948.00,3.9772
947.00,4.1312
946.00,4.5360
945.00,4.7054
944.00,4.2238
943.00,4.0392
942.00,3.9978
941.00,4.1322
940.00,4.5179
939.00,4.4733
938.00,4.2486
937.00,4.1447
936.00,4.0913
935.00,4.1028
934.00,4.1340
933.00,4.0898
932.00,3.9637
931.00,3.8511
930.00,3.7972
929.00,3.7885
928.00,3.7956
927.00,3.8045
926.00,3.8165
925.00,3.8314
924.00,3.8406
923.00,3.8282
922.00,3.7927
921.00,3.7506
920.00,3.7177
919.00,3.7060
918.00,3.7330
917.00,3.8183
916.00,3.9635
915.00,4.1447
914.00,4.3031
913.00,4.3151
912.00,4.2379
911.00,4.1919
910.00,4.0677
909.00,3.8595
908.00,3.7076
907.00,3.6460
906.00,3.6684
905.00,3.7606
904.00,3.9034
903.00,4.0813
902.00,4.2751
901.00,4.3737
900.00,4.2723
899.00,4.1286
898.00,4.0543
897.00,4.0567
896.00,4.0972
895.00,4.1408
894.00,4.1434
893.00,4.0706
892.00,3.9763
891.00,3.9254
890.00,3.9589
889.00,4.0988
888.00,4.2549
887.00,4.1934
886.00,4.0610
885.00,3.9698
884.00,3.9282
883.00,3.9620
882.00,4.0699
881.00,4.1791
880.00,4.2101
879.00,4.1970
878.00,4.2154
877.00,4.2358
876.00,4.1325
875.00,4.0028
874.00,3.9618
873.00,4.0074
872.00,4.1022
871.00,4.1728
870.00,4.1276
869.00,4.0103
868.00,3.8937
867.00,3.8057
866.00,3.7566
865.00,3.7414
864.00,3.7497
863.00,3.7804
862.00,3.8355
861.00,3.9127
860.00,3.9731
859.00,3.9362
858.00,3.8793
857.00,3.8873
856.00,3.9314
855.00,3.9495
854.00,3.9619
853.00,4.0365
852.00,4.1944
851.00,4.3838
850.00,4.5263
849.00,4.7973
848.00,4.7162
847.00,4.2774
846.00,4.1258
845.00,4.1281
844.00,4.1731
843.00,4.1429
842.00,4.0348
841.00,3.9850
840.00,4.0128
839.00,4.0373
838.00,3.9928
837.00,3.9237
836.00,3.8809
835.00,3.8662
834.00,3.8704
833.00,3.9030
832.00,3.9934
831.00,4.1778
830.00,4.4390
829.00,4.5204
828.00,4.3135
827.00,4.0678
826.00,3.8606
825.00,3.7378
824.00,3.7237
823.00,3.8168
822.00,3.9707
821.00,4.0505
820.00,4.0191
819.00,3.9611
818.00,3.9175
817.00,3.9294
816.00,4.0349
815.00,4.2212
814.00,4.3163
813.00,4.2368
812.00,4.1249
811.00,4.0475
810.00,4.0496
809.00,4.0879
808.00,4.0951
807.00,4.2047
806.00,4.2545
805.00,4.0177
804.00,3.8775
803.00,3.8286
802.00,3.8452
801.00,3.9159
800.00,4.0011
799.00,4.0552
798.00,4.1341
797.00,4.2834
796.00,4.2802
795.00,4.0461
794.00,3.8493
793.00,3.7589
792.00,3.7541
791.00,3.7966
790.00,3.8712
789.00,3.9814
788.00,4.2194
787.00,4.7349
786.00,4.3309
785.00,4.1492
784.00,4.0499
783.00,3.8783
782.00,3.7707
781.00,3.7574
780.00,3.7957
779.00,3.8161
778.00,3.8032
777.00,3.7882
776.00,3.7908
775.00,3.8272
774.00,3.9091
773.00,4.0224
772.00,4.1065
771.00,4.1221
770.00,4.1312
769.00,4.1043
768.00,3.9441
767.00,3.7679
766.00,3.6688
765.00,3.6564
764.00,3.7036
763.00,3.7506
762.00,3.7488
761.00,3.7166
760.00,3.6897
759.00,3.6844
758.00,3.7191
757.00,3.8028
756.00,3.9111
755.00,3.9978
754.00,4.0104
753.00,3.9142
752.00,3.7840
751.00,3.7036
750.00,3.7092
749.00,3.8100
748.00,3.9930
747.00,4.2176
746.00,4.3717
745.00,4.3098
744.00,4.0883
743.00,3.8633
742.00,3.7288
741.00,3.6988
740.00,3.7160
739.00,3.7230
738.00,3.7274
737.00,3.7177
736.00,3.6878
735.00,3.6662
734.00,3.6860
733.00,3.7768
732.00,3.9331
731.00,4.0940
730.00,4.1920
729.00,4.1541
728.00,4.0264
727.00,3.9351
726.00,3.9375
725.00,4.0441
724.00,4.1100
723.00,4.0504
722.00,4.0221
721.00,3.9792
720.00,3.9195
719.00,3.9065
718.00,3.9604
717.00,4.0620
716.00,4.1849
715.00,4.3288
714.00,4.3401
713.00,4.2032
712.00,4.0851
711.00,3.9643
710.00,3.8878
709.00,3.9250
708.00,4.1148
707.00,4.4318
706.00,4.4944
705.00,4.4003
704.00,4.2993
703.00,4.1798
702.00,4.0795
701.00,4.0262
700.00,4.0328
