Created as New Dataset,Sample 005 By Administrator Date Wednesday, November 24 2021
cm-1,A
7502.00,0.7486
7501.00,0.7535
7500.00,0.7585
7499.00,0.7635
7498.00,0.7686
7497.00,0.7738
7496.00,0.7790
7495.00,0.7843
7494.00,0.7896
7493.00,0.7951
7492.00,0.8007
7491.00,0.8064
7490.00,0.8125
7489.00,0.8184
7488.00,0.8235
7487.00,0.8277
7486.00,0.8311
7485.00,0.8338
7484.00,0.8358
7483.00,0.8374
7482.00,0.8392
7481.00,0.8418
7480.00,0.8445
7479.00,0.8463
7478.00,0.8470
7477.00,0.8473
7476.00,0.8477
7475.00,0.8483
7474.00,0.8488
7473.00,0.8493
7472.00,0.8496
7471.00,0.8495
7470.00,0.8491
7469.00,0.8482
7468.00,0.8466
7467.00,0.8439
7466.00,0.8403
7465.00,0.8362
7464.00,0.8315
7463.00,0.8263
7462.00,0.8206
7461.00,0.8144
7460.00,0.8077
7459.00,0.8004
7458.00,0.7926
7457.00,0.7851
7456.00,0.7786
7455.00,0.7730
7454.00,0.7678
7453.00,0.7623
7452.00,0.7564
7451.00,0.7501
7450.00,0.7435
7449.00,0.7364
7448.00,0.7290
7447.00,0.7213
7446.00,0.7137
7445.00,0.7062
7444.00,0.6989
7443.00,0.6915
7442.00,0.6840
7441.00,0.6766
7440.00,0.6691
7439.00,0.6614
7438.00,0.6535
7437.00,0.6458
7436.00,0.6385
7435.00,0.6318
7434.00,0.6255
7433.00,0.6196
7432.00,0.6141
7431.00,0.6089
7430.00,0.6041
7429.00,0.5998
7428.00,0.5962
7427.00,0.5933
7426.00,0.5907
7425.00,0.5881
7424.00,0.5851
7423.00,0.5816
7422.00,0.5778
7421.00,0.5740
7420.00,0.5700
7419.00,0.5657
7418.00,0.5612
7417.00,0.5571
7416.00,0.5538
7415.00,0.5514
7414.00,0.5498
7413.00,0.5484
7412.00,0.5470
7411.00,0.5459
7410.00,0.5454
7409.00,0.5458
7408.00,0.5467
7407.00,0.5478
7406.00,0.5491
7405.00,0.5509
7404.00,0.5530
7403.00,0.5553
7402.00,0.5577
7401.00,0.5603
7400.00,0.5635
7399.00,0.5670
7398.00,0.5710
7397.00,0.5756
7396.00,0.5810
7395.00,0.5868
7394.00,0.5927
7393.00,0.5985
7392.00,0.6044
7391.00,0.6107
7390.00,0.6174
7389.00,0.6245
7388.00,0.6317
7387.00,0.6389
7386.00,0.6465
7385.00,0.6545
7384.00,0.6629
7383.00,0.6714
7382.00,0.6798
7381.00,0.6884
7380.00,0.6976
7379.00,0.7075
7378.00,0.7179
7377.00,0.7281
7376.00,0.7373
7375.00,0.7457
7374.00,0.7538
7373.00,0.7618
7372.00,0.7700
7371.00,0.7782
7370.00,0.7868
7369.00,0.7958
7368.00,0.8051
7367.00,0.8143
7366.00,0.8231
7365.00,0.8313
7364.00,0.8389
7363.00,0.8461
7362.00,0.8536
7361.00,0.8617
7360.00,0.8706
7359.00,0.8798
7358.00,0.8886
7357.00,0.8967
7356.00,0.9042
7355.00,0.9116
7354.00,0.9189
7353.00,0.9262
7352.00,0.9332
7351.00,0.9400
7350.00,0.9463
7349.00,0.9516
7348.00,0.9558
7347.00,0.9593
7346.00,0.9630
7345.00,0.9669
7344.00,0.9710
7343.00,0.9754
7342.00,0.9804
7341.00,0.9860
7340.00,0.9913
7339.00,0.9955
7338.00,0.9985
7337.00,1.0007
7336.00,1.0023
7335.00,1.0036
7334.00,1.0048
7333.00,1.0061
7332.00,1.0072
7331.00,1.0080
7330.00,1.0087
7329.00,1.0091
7328.00,1.0088
7327.00,1.0078
7326.00,1.0061
7325.00,1.0041
7324.00,1.0018
7323.00,0.9996
7322.00,0.9974
7321.00,0.9951
7320.00,0.9923
7319.00,0.9890
7318.00,0.9856
7317.00,0.9823
7316.00,0.9789
7315.00,0.9750
7314.00,0.9707
7313.00,0.9661
7312.00,0.9611
7311.00,0.9555
7310.00,0.9491
7309.00,0.9424
7308.00,0.9357
7307.00,0.9291
7306.00,0.9225
7305.00,0.9156
7304.00,0.9083
7303.00,0.9007
7302.00,0.8930
7301.00,0.8854
7300.00,0.8779
7299.00,0.8701
7298.00,0.8622
7297.00,0.8544
7296.00,0.8469
7295.00,0.8393
7294.00,0.8310
7293.00,0.8223
7292.00,0.8133
7291.00,0.8046
7290.00,0.7960
7289.00,0.7873
7288.00,0.7785
7287.00,0.7698
7286.00,0.7617
7285.00,0.7545
7284.00,0.7478
7283.00,0.7411
7282.00,0.7343
7281.00,0.7277
7280.00,0.7214
7279.00,0.7155
7278.00,0.7097
7277.00,0.7040
7276.00,0.6985
7275.00,0.6935
7274.00,0.6893
7273.00,0.6856
7272.00,0.6822
7271.00,0.6789
7270.00,0.6759
7269.00,0.6732
7268.00,0.6708
7267.00,0.6689
7266.00,0.6675
7265.00,0.6668
7264.00,0.6666
7263.00,0.6668
7262.00,0.6674
7261.00,0.6687
7260.00,0.6705
7259.00,0.6727
7258.00,0.6751
7257.00,0.6777
7256.00,0.6808
7255.00,0.6843
7254.00,0.6883
7253.00,0.6929
7252.00,0.6981
7251.00,0.7037
7250.00,0.7094
7249.00,0.7153
7248.00,0.7215
7247.00,0.7282
7246.00,0.7352
7245.00,0.7422
7244.00,0.7491
7243.00,0.7560
7242.00,0.7636
7241.00,0.7718
7240.00,0.7802
7239.00,0.7882
7238.00,0.7959
7237.00,0.8036
7236.00,0.8118
7235.00,0.8203
7234.00,0.8289
7233.00,0.8374
7232.00,0.8459
7231.00,0.8544
7230.00,0.8626
7229.00,0.8706
7228.00,0.8785
7227.00,0.8864
7226.00,0.8944
7225.00,0.9026
7224.00,0.9109
7223.00,0.9192
7222.00,0.9277
7221.00,0.9361
7220.00,0.9443
7219.00,0.9520
7218.00,0.9591
7217.00,0.9658
7216.00,0.9723
7215.00,0.9787
7214.00,0.9849
7213.00,0.9908
7212.00,0.9963
7211.00,1.0013
7210.00,1.0061
7209.00,1.0112
7208.00,1.0166
7207.00,1.0220
7206.00,1.0269
7205.00,1.0314
7204.00,1.0361
7203.00,1.0407
7202.00,1.0448
7201.00,1.0478
7200.00,1.0500
7199.00,1.0518
7198.00,1.0535
7197.00,1.0550
7196.00,1.0561
7195.00,1.0572
7194.00,1.0586
7193.00,1.0601
7192.00,1.0612
7191.00,1.0619
7190.00,1.0623
7189.00,1.0626
7188.00,1.0626
7187.00,1.0618
7186.00,1.0599
7185.00,1.0576
7184.00,1.0555
7183.00,1.0533
7182.00,1.0505
7181.00,1.0467
7180.00,1.0428
7179.00,1.0395
7178.00,1.0368
7177.00,1.0338
7176.00,1.0300
7175.00,1.0256
7174.00,1.0210
7173.00,1.0162
7172.00,1.0106
7171.00,1.0041
7170.00,0.9969
7169.00,0.9893
7168.00,0.9817
7167.00,0.9742
7166.00,0.9671
7165.00,0.9599
7164.00,0.9525
7163.00,0.9446
7162.00,0.9369
7161.00,0.9294
7160.00,0.9218
7159.00,0.9137
7158.00,0.9051
7157.00,0.8961
7156.00,0.8871
7155.00,0.8782
7154.00,0.8694
7153.00,0.8608
7152.00,0.8526
7151.00,0.8447
7150.00,0.8371
7149.00,0.8294
7148.00,0.8218
7147.00,0.8141
7146.00,0.8066
7145.00,0.7989
7144.00,0.7911
7143.00,0.7833
7142.00,0.7761
7141.00,0.7693
7140.00,0.7626
7139.00,0.7559
7138.00,0.7497
7137.00,0.7442
7136.00,0.7393
7135.00,0.7346
7134.00,0.7300
7133.00,0.7257
7132.00,0.7215
7131.00,0.7175
7130.00,0.7136
7129.00,0.7098
7128.00,0.7064
7127.00,0.7034
7126.00,0.7011
7125.00,0.6995
7124.00,0.6986
7123.00,0.6981
7122.00,0.6978
7121.00,0.6980
7120.00,0.6988
7119.00,0.7001
7118.00,0.7020
7117.00,0.7044
7116.00,0.7071
7115.00,0.7101
7114.00,0.7134
7113.00,0.7169
7112.00,0.7209
7111.00,0.7252
7110.00,0.7299
7109.00,0.7350
7108.00,0.7407
7107.00,0.7468
7106.00,0.7533
7105.00,0.7600
7104.00,0.7668
7103.00,0.7736
7102.00,0.7805
7101.00,0.7878
7100.00,0.7954
7099.00,0.8032
7098.00,0.8112
7097.00,0.8195
7096.00,0.8278
7095.00,0.8360
7094.00,0.8444
7093.00,0.8529
7092.00,0.8617
7091.00,0.8706
7090.00,0.8794
7089.00,0.8881
7088.00,0.8966
7087.00,0.9052
7086.00,0.9138
7085.00,0.9223
7084.00,0.9305
7083.00,0.9385
7082.00,0.9468
7081.00,0.9553
7080.00,0.9639
7079.00,0.9721
7078.00,0.9800
7077.00,0.9878
7076.00,0.9954
7075.00,1.0030
7074.00,1.0107
7073.00,1.0184
7072.00,1.0260
7071.00,1.0331
7070.00,1.0399
7069.00,1.0462
7068.00,1.0521
7067.00,1.0577
7066.00,1.0631
7065.00,1.0688
7064.00,1.0747
7063.00,1.0803
7062.00,1.0857
7061.00,1.0906
7060.00,1.0954
7059.00,1.1000
7058.00,1.1041
7057.00,1.1076
7056.00,1.1104
7055.00,1.1129
7054.00,1.1155
7053.00,1.1180
7052.00,1.1201
7051.00,1.1216
7050.00,1.1229
7049.00,1.1240
7048.00,1.1247
7047.00,1.1247
7046.00,1.1244
7045.00,1.1243
7044.00,1.1243
7043.00,1.1239
7042.00,1.1229
7041.00,1.1215
7040.00,1.1197
7039.00,1.1173
7038.00,1.1143
7037.00,1.1110
7036.00,1.1077
7035.00,1.1046
7034.00,1.1015
7033.00,1.0985
7032.00,1.0951
7031.00,1.0909
7030.00,1.0860
7029.00,1.0805
7028.00,1.0746
7027.00,1.0686
7026.00,1.0625
7025.00,1.0564
7024.00,1.0502
7023.00,1.0436
7022.00,1.0367
7021.00,1.0295
7020.00,1.0220
7019.00,1.0140
7018.00,1.0056
7017.00,0.9969
7016.00,0.9882
7015.00,0.9793
7014.00,0.9703
7013.00,0.9613
7012.00,0.9521
7011.00,0.9429
7010.00,0.9337
7009.00,0.9247
7008.00,0.9158
7007.00,0.9071
7006.00,0.8984
7005.00,0.8897
7004.00,0.8810
7003.00,0.8722
7002.00,0.8632
7001.00,0.8540
7000.00,0.8451
6999.00,0.8367
6998.00,0.8287
6997.00,0.8211
6996.00,0.8139
6995.00,0.8069
6994.00,0.8002
6993.00,0.7937
6992.00,0.7873
6991.00,0.7812
6990.00,0.7756
6989.00,0.7707
6988.00,0.7664
6987.00,0.7625
6986.00,0.7588
6985.00,0.7555
6984.00,0.7526
6983.00,0.7500
6982.00,0.7478
6981.00,0.7461
6980.00,0.7450
6979.00,0.7445
6978.00,0.7447
6977.00,0.7455
6976.00,0.7466
6975.00,0.7480
6974.00,0.7498
6973.00,0.7521
6972.00,0.7552
6971.00,0.7589
6970.00,0.7629
6969.00,0.7673
6968.00,0.7720
6967.00,0.7770
6966.00,0.7823
6965.00,0.7877
6964.00,0.7930
6963.00,0.7986
6962.00,0.8047
6961.00,0.8116
6960.00,0.8190
6959.00,0.8266
6958.00,0.8345
6957.00,0.8427
6956.00,0.8511
6955.00,0.8594
6954.00,0.8675
6953.00,0.8752
6952.00,0.8828
6951.00,0.8905
6950.00,0.8987
6949.00,0.9071
6948.00,0.9155
6947.00,0.9238
6946.00,0.9323
6945.00,0.9410
6944.00,0.9496
6943.00,0.9580
6942.00,0.9662
6941.00,0.9747
6940.00,0.9835
6939.00,0.9924
6938.00,1.0009
6937.00,1.0090
6936.00,1.0166
6935.00,1.0239
6934.00,1.0310
6933.00,1.0381
6932.00,1.0449
6931.00,1.0515
6930.00,1.0581
6929.00,1.0651
6928.00,1.0719
6927.00,1.0782
6926.00,1.0838
6925.00,1.0892
6924.00,1.0947
6923.00,1.0999
6922.00,1.1047
6921.00,1.1093
6920.00,1.1137
6919.00,1.1179
6918.00,1.1217
6917.00,1.1253
6916.00,1.1285
6915.00,1.1313
6914.00,1.1337
6913.00,1.1357
6912.00,1.1374
6911.00,1.1389
6910.00,1.1402
6909.00,1.1412
6908.00,1.1418
6907.00,1.1419
6906.00,1.1416
6905.00,1.1412
6904.00,1.1405
6903.00,1.1393
6902.00,1.1377
6901.00,1.1357
6900.00,1.1336
6899.00,1.1312
6898.00,1.1284
6897.00,1.1253
6896.00,1.1222
6895.00,1.1192
6894.00,1.1162
6893.00,1.1128
6892.00,1.1087
6891.00,1.1037
6890.00,1.0981
6889.00,1.0920
6888.00,1.0856
6887.00,1.0790
6886.00,1.0722
6885.00,1.0652
6884.00,1.0582
6883.00,1.0510
6882.00,1.0436
6881.00,1.0361
6880.00,1.0281
6879.00,1.0196
6878.00,1.0109
6877.00,1.0022
6876.00,0.9933
6875.00,0.9842
6874.00,0.9750
6873.00,0.9658
6872.00,0.9567
6871.00,0.9475
6870.00,0.9381
6869.00,0.9288
6868.00,0.9194
6867.00,0.9099
6866.00,0.9004
6865.00,0.8911
6864.00,0.8821
6863.00,0.8733
6862.00,0.8644
6861.00,0.8554
6860.00,0.8465
6859.00,0.8379
6858.00,0.8299
6857.00,0.8222
6856.00,0.8147
6855.00,0.8074
6854.00,0.8003
6853.00,0.7936
6852.00,0.7872
6851.00,0.7810
6850.00,0.7752
6849.00,0.7698
6848.00,0.7650
6847.00,0.7605
6846.00,0.7564
6845.00,0.7527
6844.00,0.7494
6843.00,0.7464
6842.00,0.7440
6841.00,0.7420
6840.00,0.7406
6839.00,0.7395
6838.00,0.7388
6837.00,0.7386
6836.00,0.7389
6835.00,0.7395
6834.00,0.7406
6833.00,0.7422
6832.00,0.7443
6831.00,0.7466
6830.00,0.7495
6829.00,0.7531
6828.00,0.7573
6827.00,0.7619
6826.00,0.7668
6825.00,0.7721
6824.00,0.7778
6823.00,0.7838
6822.00,0.7900
6821.00,0.7964
6820.00,0.8031
6819.00,0.8101
6818.00,0.8176
6817.00,0.8254
6816.00,0.8334
6815.00,0.8414
6814.00,0.8495
6813.00,0.8577
6812.00,0.8659
6811.00,0.8740
6810.00,0.8822
6809.00,0.8906
6808.00,0.8995
6807.00,0.9086
6806.00,0.9180
6805.00,0.9275
6804.00,0.9369
6803.00,0.9461
6802.00,0.9548
6801.00,0.9633
6800.00,0.9718
6799.00,0.9805
6798.00,0.9893
6797.00,0.9982
6796.00,1.0068
6795.00,1.0152
6794.00,1.0233
6793.00,1.0312
6792.00,1.0389
6791.00,1.0464
6790.00,1.0540
6789.00,1.0620
6788.00,1.0701
6787.00,1.0779
6786.00,1.0852
6785.00,1.0921
6784.00,1.0987
6783.00,1.1052
6782.00,1.1114
6781.00,1.1176
6780.00,1.1236
6779.00,1.1290
6778.00,1.1339
6777.00,1.1384
6776.00,1.1427
6775.00,1.1466
6774.00,1.1503
6773.00,1.1539
6772.00,1.1575
6771.00,1.1612
6770.00,1.1650
6769.00,1.1686
6768.00,1.1716
6767.00,1.1741
6766.00,1.1762
6765.00,1.1780
6764.00,1.1793
6763.00,1.1796
6762.00,1.1796
6761.00,1.1796
6760.00,1.1795
6759.00,1.1789
6758.00,1.1775
6757.00,1.1758
6756.00,1.1738
6755.00,1.1715
6754.00,1.1690
6753.00,1.1666
6752.00,1.1643
6751.00,1.1615
6750.00,1.1578
6749.00,1.1534
6748.00,1.1487
6747.00,1.1436
6746.00,1.1380
6745.00,1.1324
6744.00,1.1269
6743.00,1.1216
6742.00,1.1156
6741.00,1.1088
6740.00,1.1015
6739.00,1.0941
6738.00,1.0864
6737.00,1.0783
6736.00,1.0699
6735.00,1.0613
6734.00,1.0528
6733.00,1.0442
6732.00,1.0353
6731.00,1.0262
6730.00,1.0172
6729.00,1.0083
6728.00,0.9993
6727.00,0.9899
6726.00,0.9801
6725.00,0.9699
6724.00,0.9596
6723.00,0.9494
6722.00,0.9396
6721.00,0.9300
6720.00,0.9205
6719.00,0.9110
6718.00,0.9017
6717.00,0.8925
6716.00,0.8834
6715.00,0.8743
6714.00,0.8654
6713.00,0.8567
6712.00,0.8483
6711.00,0.8402
6710.00,0.8322
6709.00,0.8245
6708.00,0.8173
6707.00,0.8105
6706.00,0.8042
6705.00,0.7983
6704.00,0.7927
6703.00,0.7876
6702.00,0.7829
6701.00,0.7787
6700.00,0.7750
6699.00,0.7718
6698.00,0.7691
6697.00,0.7670
6696.00,0.7655
6695.00,0.7643
6694.00,0.7636
6693.00,0.7633
6692.00,0.7638
6691.00,0.7651
6690.00,0.7669
6689.00,0.7692
6688.00,0.7719
6687.00,0.7748
6686.00,0.7782
6685.00,0.7819
6684.00,0.7860
6683.00,0.7906
6682.00,0.7957
6681.00,0.8014
6680.00,0.8076
6679.00,0.8143
6678.00,0.8213
6677.00,0.8286
6676.00,0.8359
6675.00,0.8433
6674.00,0.8509
6673.00,0.8588
6672.00,0.8668
6671.00,0.8750
6670.00,0.8832
6669.00,0.8917
6668.00,0.9007
6667.00,0.9097
6666.00,0.9186
6665.00,0.9273
6664.00,0.9359
6663.00,0.9446
6662.00,0.9534
6661.00,0.9621
6660.00,0.9709
6659.00,0.9797
6658.00,0.9890
6657.00,0.9984
6656.00,1.0074
6655.00,1.0158
6654.00,1.0239
6653.00,1.0321
6652.00,1.0402
6651.00,1.0481
6650.00,1.0557
6649.00,1.0633
6648.00,1.0710
6647.00,1.0787
6646.00,1.0860
6645.00,1.0929
6644.00,1.0995
6643.00,1.1057
6642.00,1.1117
6641.00,1.1177
6640.00,1.1235
6639.00,1.1291
6638.00,1.1345
6637.00,1.1398
6636.00,1.1449
6635.00,1.1499
6634.00,1.1545
6633.00,1.1585
6632.00,1.1619
6631.00,1.1648
6630.00,1.1673
6629.00,1.1694
6628.00,1.1710
6627.00,1.1725
6626.00,1.1740
6625.00,1.1756
6624.00,1.1769
6623.00,1.1776
6622.00,1.1778
6621.00,1.1775
6620.00,1.1767
6619.00,1.1756
6618.00,1.1741
6617.00,1.1724
6616.00,1.1707
6615.00,1.1688
6614.00,1.1665
6613.00,1.1637
6612.00,1.1606
6611.00,1.1574
6610.00,1.1538
6609.00,1.1495
6608.00,1.1445
6607.00,1.1389
6606.00,1.1333
6605.00,1.1276
6604.00,1.1215
6603.00,1.1149
6602.00,1.1082
6601.00,1.1014
6600.00,1.0946
6599.00,1.0875
6598.00,1.0801
6597.00,1.0724
6596.00,1.0642
6595.00,1.0555
6594.00,1.0466
6593.00,1.0374
6592.00,1.0281
6591.00,1.0185
6590.00,1.0091
6589.00,1.0000
6588.00,0.9908
6587.00,0.9813
6586.00,0.9715
6585.00,0.9617
6584.00,0.9519
6583.00,0.9421
6582.00,0.9325
6581.00,0.9229
6580.00,0.9135
6579.00,0.9037
6578.00,0.8938
6577.00,0.8840
6576.00,0.8744
6575.00,0.8652
6574.00,0.8563
6573.00,0.8477
6572.00,0.8394
6571.00,0.8314
6570.00,0.8236
6569.00,0.8162
6568.00,0.8089
6567.00,0.8017
6566.00,0.7947
6565.00,0.7881
6564.00,0.7821
6563.00,0.7764
6562.00,0.7712
6561.00,0.7664
6560.00,0.7622
6559.00,0.7583
6558.00,0.7550
6557.00,0.7521
6556.00,0.7496
6555.00,0.7476
6554.00,0.7460
6553.00,0.7451
6552.00,0.7448
6551.00,0.7450
6550.00,0.7457
6549.00,0.7469
6548.00,0.7487
6547.00,0.7510
6546.00,0.7538
6545.00,0.7571
6544.00,0.7608
6543.00,0.7649
6542.00,0.7695
6541.00,0.7747
6540.00,0.7801
6539.00,0.7859
6538.00,0.7920
6537.00,0.7985
6536.00,0.8052
6535.00,0.8122
6534.00,0.8195
6533.00,0.8273
6532.00,0.8355
6531.00,0.8439
6530.00,0.8525
6529.00,0.8614
6528.00,0.8703
6527.00,0.8792
6526.00,0.8882
6525.00,0.8974
6524.00,0.9067
6523.00,0.9161
6522.00,0.9254
6521.00,0.9348
6520.00,0.9442
6519.00,0.9534
6518.00,0.9626
6517.00,0.9720
6516.00,0.9814
6515.00,0.9908
6514.00,1.0001
6513.00,1.0094
6512.00,1.0187
6511.00,1.0275
6510.00,1.0361
6509.00,1.0447
6508.00,1.0534
6507.00,1.0620
6506.00,1.0702
6505.00,1.0780
6504.00,1.0858
6503.00,1.0936
6502.00,1.1011
6501.00,1.1084
6500.00,1.1155
6499.00,1.1225
6498.00,1.1293
6497.00,1.1358
6496.00,1.1419
6495.00,1.1477
6494.00,1.1533
6493.00,1.1585
6492.00,1.1634
6491.00,1.1679
6490.00,1.1720
6489.00,1.1757
6488.00,1.1793
6487.00,1.1827
6486.00,1.1859
6485.00,1.1887
6484.00,1.1911
6483.00,1.1930
6482.00,1.1946
6481.00,1.1958
6480.00,1.1966
6479.00,1.1970
6478.00,1.1974
6477.00,1.1978
6476.00,1.1980
6475.00,1.1978
6474.00,1.1972
6473.00,1.1959
6472.00,1.1940
6471.00,1.1915
6470.00,1.1886
6469.00,1.1856
6468.00,1.1826
6467.00,1.1796
6466.00,1.1766
6465.00,1.1731
6464.00,1.1691
6463.00,1.1643
6462.00,1.1590
6461.00,1.1533
6460.00,1.1472
6459.00,1.1405
6458.00,1.1336
6457.00,1.1265
6456.00,1.1193
6455.00,1.1119
6454.00,1.1041
6453.00,1.0961
6452.00,1.0880
6451.00,1.0797
6450.00,1.0711
6449.00,1.0621
6448.00,1.0527
6447.00,1.0430
6446.00,1.0332
6445.00,1.0235
6444.00,1.0136
6443.00,1.0034
6442.00,0.9930
6441.00,0.9825
6440.00,0.9721
6439.00,0.9614
6438.00,0.9507
6437.00,0.9400
6436.00,0.9296
6435.00,0.9193
6434.00,0.9090
6433.00,0.8989
6432.00,0.8889
6431.00,0.8789
6430.00,0.8689
6429.00,0.8591
6428.00,0.8494
6427.00,0.8401
6426.00,0.8311
6425.00,0.8226
6424.00,0.8146
6423.00,0.8069
6422.00,0.7997
6421.00,0.7931
6420.00,0.7869
6419.00,0.7811
6418.00,0.7756
6417.00,0.7707
6416.00,0.7663
6415.00,0.7625
6414.00,0.7592
6413.00,0.7564
6412.00,0.7540
6411.00,0.7522
6410.00,0.7510
6409.00,0.7504
6408.00,0.7504
6407.00,0.7510
6406.00,0.7522
6405.00,0.7542
6404.00,0.7567
6403.00,0.7598
6402.00,0.7633
6401.00,0.7673
6400.00,0.7717
6399.00,0.7766
6398.00,0.7818
6397.00,0.7875
6396.00,0.7938
6395.00,0.8004
6394.00,0.8073
6393.00,0.8145
6392.00,0.8220
6391.00,0.8297
6390.00,0.8375
6389.00,0.8457
6388.00,0.8541
6387.00,0.8629
6386.00,0.8719
6385.00,0.8809
6384.00,0.8900
6383.00,0.8989
6382.00,0.9077
6381.00,0.9167
6380.00,0.9259
6379.00,0.9354
6378.00,0.9451
6377.00,0.9548
6376.00,0.9644
6375.00,0.9738
6374.00,0.9832
6373.00,0.9925
6372.00,1.0018
6371.00,1.0110
6370.00,1.0202
6369.00,1.0291
6368.00,1.0378
6367.00,1.0462
6366.00,1.0546
6365.00,1.0632
6364.00,1.0717
6363.00,1.0799
6362.00,1.0879
6361.00,1.0954
6360.00,1.1026
6359.00,1.1092
6358.00,1.1155
6357.00,1.1215
6356.00,1.1276
6355.00,1.1335
6354.00,1.1393
6353.00,1.1448
6352.00,1.1502
6351.00,1.1552
6350.00,1.1599
6349.00,1.1641
6348.00,1.1677
6347.00,1.1708
6346.00,1.1735
6345.00,1.1761
6344.00,1.1787
6343.00,1.1811
6342.00,1.1832
6341.00,1.1848
6340.00,1.1862
6339.00,1.1872
6338.00,1.1879
6337.00,1.1883
6336.00,1.1886
6335.00,1.1889
6334.00,1.1890
6333.00,1.1888
6332.00,1.1884
6331.00,1.1877
6330.00,1.1868
6329.00,1.1855
6328.00,1.1836
6327.00,1.1808
6326.00,1.1772
6325.00,1.1732
6324.00,1.1689
6323.00,1.1641
6322.00,1.1585
6321.00,1.1526
6320.00,1.1464
6319.00,1.1400
6318.00,1.1331
6317.00,1.1257
6316.00,1.1182
6315.00,1.1108
6314.00,1.1032
6313.00,1.0951
6312.00,1.0865
6311.00,1.0775
6310.00,1.0682
6309.00,1.0587
6308.00,1.0490
6307.00,1.0392
6306.00,1.0291
6305.00,1.0187
6304.00,1.0082
6303.00,0.9975
6302.00,0.9869
6301.00,0.9760
6300.00,0.9652
6299.00,0.9544
6298.00,0.9437
6297.00,0.9331
6296.00,0.9223
6295.00,0.9115
6294.00,0.9009
6293.00,0.8905
6292.00,0.8803
6291.00,0.8703
6290.00,0.8604
6289.00,0.8505
6288.00,0.8407
6287.00,0.8311
6286.00,0.8217
6285.00,0.8126
6284.00,0.8040
6283.00,0.7958
6282.00,0.7882
6281.00,0.7808
6280.00,0.7738
6279.00,0.7670
6278.00,0.7607
6277.00,0.7549
6276.00,0.7495
6275.00,0.7446
6274.00,0.7402
6273.00,0.7363
6272.00,0.7330
6271.00,0.7302
6270.00,0.7281
6269.00,0.7265
6268.00,0.7255
6267.00,0.7250
6266.00,0.7251
6265.00,0.7258
6264.00,0.7271
6263.00,0.7290
6262.00,0.7315
6261.00,0.7346
6260.00,0.7383
6259.00,0.7425
6258.00,0.7473
6257.00,0.7525
6256.00,0.7580
6255.00,0.7640
6254.00,0.7704
6253.00,0.7771
6252.00,0.7841
6251.00,0.7913
6250.00,0.7989
6249.00,0.8070
6248.00,0.8154
6247.00,0.8239
6246.00,0.8327
6245.00,0.8418
6244.00,0.8510
6243.00,0.8604
6242.00,0.8699
6241.00,0.8796
6240.00,0.8895
6239.00,0.8993
6238.00,0.9091
6237.00,0.9190
6236.00,0.9288
6235.00,0.9388
6234.00,0.9489
6233.00,0.9588
6232.00,0.9687
6231.00,0.9785
6230.00,0.9882
6229.00,0.9977
6228.00,1.0071
6227.00,1.0164
6226.00,1.0258
6225.00,1.0353
6224.00,1.0446
6223.00,1.0535
6222.00,1.0624
6221.00,1.0711
6220.00,1.0798
6219.00,1.0880
6218.00,1.0957
6217.00,1.1029
6216.00,1.1098
6215.00,1.1164
6214.00,1.1231
6213.00,1.1297
6212.00,1.1363
6211.00,1.1428
6210.00,1.1493
6209.00,1.1554
6208.00,1.1608
6207.00,1.1653
6206.00,1.1692
6205.00,1.1729
6204.00,1.1764
6203.00,1.1797
6202.00,1.1828
6201.00,1.1859
6200.00,1.1892
6199.00,1.1922
6198.00,1.1947
6197.00,1.1966
6196.00,1.1980
6195.00,1.1989
6194.00,1.1994
6193.00,1.1996
6192.00,1.1995
6191.00,1.1991
6190.00,1.1983
6189.00,1.1970
6188.00,1.1954
6187.00,1.1935
6186.00,1.1913
6185.00,1.1888
6184.00,1.1858
6183.00,1.1827
6182.00,1.1793
6181.00,1.1752
6180.00,1.1703
6179.00,1.1648
6178.00,1.1592
6177.00,1.1535
6176.00,1.1473
6175.00,1.1407
6174.00,1.1340
6173.00,1.1275
6172.00,1.1207
6171.00,1.1131
6170.00,1.1050
6169.00,1.0966
6168.00,1.0881
6167.00,1.0793
6166.00,1.0701
6165.00,1.0608
6164.00,1.0513
6163.00,1.0414
6162.00,1.0311
6161.00,1.0206
6160.00,1.0099
6159.00,0.9989
6158.00,0.9878
6157.00,0.9766
6156.00,0.9654
6155.00,0.9542
6154.00,0.9428
6153.00,0.9313
6152.00,0.9199
6151.00,0.9085
6150.00,0.8971
6149.00,0.8857
6148.00,0.8745
6147.00,0.8635
6146.00,0.8527
6145.00,0.8422
6144.00,0.8321
6143.00,0.8222
6142.00,0.8126
6141.00,0.8033
6140.00,0.7943
6139.00,0.7857
6138.00,0.7775
6137.00,0.7698
6136.00,0.7625
6135.00,0.7556
6134.00,0.7492
6133.00,0.7434
6132.00,0.7381
6131.00,0.7333
6130.00,0.7292
6129.00,0.7257
6128.00,0.7230
6127.00,0.7209
6126.00,0.7194
6125.00,0.7185
6124.00,0.7184
6123.00,0.7189
6122.00,0.7200
6121.00,0.7216
6120.00,0.7238
6119.00,0.7264
6118.00,0.7297
6117.00,0.7336
6116.00,0.7380
6115.00,0.7430
6114.00,0.7486
6113.00,0.7548
6112.00,0.7614
6111.00,0.7683
6110.00,0.7756
6109.00,0.7831
6108.00,0.7909
6107.00,0.7991
6106.00,0.8075
6105.00,0.8163
6104.00,0.8253
6103.00,0.8345
6102.00,0.8439
6101.00,0.8534
6100.00,0.8630
6099.00,0.8725
6098.00,0.8822
6097.00,0.8920
6096.00,0.9019
6095.00,0.9117
6094.00,0.9216
6093.00,0.9316
6092.00,0.9418
6091.00,0.9521
6090.00,0.9622
6089.00,0.9724
6088.00,0.9824
6087.00,0.9922
6086.00,1.0019
6085.00,1.0115
6084.00,1.0209
6083.00,1.0303
6082.00,1.0394
6081.00,1.0483
6080.00,1.0569
6079.00,1.0652
6078.00,1.0734
6077.00,1.0813
6076.00,1.0889
6075.00,1.0965
6074.00,1.1039
6073.00,1.1113
6072.00,1.1183
6071.00,1.1252
6070.00,1.1318
6069.00,1.1380
6068.00,1.1436
6067.00,1.1488
6066.00,1.1536
6065.00,1.1582
6064.00,1.1626
6063.00,1.1666
6062.00,1.1703
6061.00,1.1737
6060.00,1.1766
6059.00,1.1788
6058.00,1.1806
6057.00,1.1823
6056.00,1.1839
6055.00,1.1852
6054.00,1.1861
6053.00,1.1868
6052.00,1.1870
6051.00,1.1867
6050.00,1.1860
6049.00,1.1850
6048.00,1.1837
6047.00,1.1820
6046.00,1.1799
6045.00,1.1775
6044.00,1.1749
6043.00,1.1722
6042.00,1.1694
6041.00,1.1666
6040.00,1.1634
6039.00,1.1596
6038.00,1.1552
6037.00,1.1502
6036.00,1.1447
6035.00,1.1389
6034.00,1.1329
6033.00,1.1265
6032.00,1.1199
6031.00,1.1131
6030.00,1.1059
6029.00,1.0983
6028.00,1.0903
6027.00,1.0820
6026.00,1.0736
6025.00,1.0650
6024.00,1.0560
6023.00,1.0467
6022.00,1.0373
6021.00,1.0277
6020.00,1.0178
6019.00,1.0074
6018.00,0.9966
6017.00,0.9858
6016.00,0.9748
6015.00,0.9637
6014.00,0.9526
6013.00,0.9414
6012.00,0.9301
6011.00,0.9188
6010.00,0.9075
6009.00,0.8963
6008.00,0.8850
6007.00,0.8736
6006.00,0.8624
6005.00,0.8514
6004.00,0.8406
6003.00,0.8300
6002.00,0.8196
6001.00,0.8094
6000.00,0.7995
5999.00,0.7898
5998.00,0.7804
5997.00,0.7715
5996.00,0.7630
5995.00,0.7550
5994.00,0.7475
5993.00,0.7405
5992.00,0.7341
5991.00,0.7282
5990.00,0.7228
5989.00,0.7180
5988.00,0.7138
5987.00,0.7100
5986.00,0.7070
5985.00,0.7046
5984.00,0.7030
5983.00,0.7020
5982.00,0.7017
5981.00,0.7022
5980.00,0.7034
5979.00,0.7051
5978.00,0.7074
5977.00,0.7104
5976.00,0.7142
5975.00,0.7186
5974.00,0.7236
5973.00,0.7292
5972.00,0.7352
5971.00,0.7417
5970.00,0.7486
5969.00,0.7560
5968.00,0.7638
5967.00,0.7722
5966.00,0.7811
5965.00,0.7905
5964.00,0.8002
5963.00,0.8101
5962.00,0.8202
5961.00,0.8305
5960.00,0.8410
5959.00,0.8516
5958.00,0.8621
5957.00,0.8728
5956.00,0.8836
5955.00,0.8943
5954.00,0.9047
5953.00,0.9149
5952.00,0.9249
5951.00,0.9350
5950.00,0.9450
5949.00,0.9549
5948.00,0.9646
5947.00,0.9740
5946.00,0.9834
5945.00,0.9927
5944.00,1.0018
5943.00,1.0108
5942.00,1.0199
5941.00,1.0291
5940.00,1.0384
5939.00,1.0477
5938.00,1.0569
5937.00,1.0661
5936.00,1.0750
5935.00,1.0835
5934.00,1.0914
5933.00,1.0991
5932.00,1.1066
5931.00,1.1140
5930.00,1.1213
5929.00,1.1287
5928.00,1.1361
5927.00,1.1432
5926.00,1.1496
5925.00,1.1554
5924.00,1.1607
5923.00,1.1656
5922.00,1.1701
5921.00,1.1743
5920.00,1.1784
5919.00,1.1825
5918.00,1.1864
5917.00,1.1900
5916.00,1.1932
5915.00,1.1960
5914.00,1.1984
5913.00,1.2002
5912.00,1.2015
5911.00,1.2023
5910.00,1.2029
5909.00,1.2033
5908.00,1.2034
5907.00,1.2032
5906.00,1.2027
5905.00,1.2019
5904.00,1.2007
5903.00,1.1990
5902.00,1.1969
5901.00,1.1946
5900.00,1.1921
5899.00,1.1893
5898.00,1.1859
5897.00,1.1819
5896.00,1.1772
5895.00,1.1721
5894.00,1.1666
5893.00,1.1607
5892.00,1.1546
5891.00,1.1481
5890.00,1.1413
5889.00,1.1342
5888.00,1.1268
5887.00,1.1191
5886.00,1.1113
5885.00,1.1031
5884.00,1.0944
5883.00,1.0852
5882.00,1.0756
5881.00,1.0657
5880.00,1.0554
5879.00,1.0449
5878.00,1.0342
5877.00,1.0235
5876.00,1.0125
5875.00,1.0013
5874.00,0.9898
5873.00,0.9780
5872.00,0.9660
5871.00,0.9539
5870.00,0.9419
5869.00,0.9299
5868.00,0.9181
5867.00,0.9064
5866.00,0.8947
5865.00,0.8829
5864.00,0.8711
5863.00,0.8592
5862.00,0.8477
5861.00,0.8365
5860.00,0.8255
5859.00,0.8147
5858.00,0.8042
5857.00,0.7940
5856.00,0.7843
5855.00,0.7749
5854.00,0.7660
5853.00,0.7576
5852.00,0.7497
5851.00,0.7424
5850.00,0.7357
5849.00,0.7297
5848.00,0.7244
5847.00,0.7198
5846.00,0.7159
5845.00,0.7125
5844.00,0.7097
5843.00,0.7074
5842.00,0.7058
5841.00,0.7051
5840.00,0.7051
5839.00,0.7058
5838.00,0.7071
5837.00,0.7091
5836.00,0.7116
5835.00,0.7146
5834.00,0.7180
5833.00,0.7219
5832.00,0.7264
5831.00,0.7315
5830.00,0.7372
5829.00,0.7434
5828.00,0.7501
5827.00,0.7570
5826.00,0.7643
5825.00,0.7717
5824.00,0.7795
5823.00,0.7876
5822.00,0.7961
5821.00,0.8051
5820.00,0.8144
5819.00,0.8239
5818.00,0.8333
5817.00,0.8429
5816.00,0.8526
5815.00,0.8624
5814.00,0.8726
5813.00,0.8830
5812.00,0.8936
5811.00,0.9043
5810.00,0.9149
5809.00,0.9255
5808.00,0.9361
5807.00,0.9468
5806.00,0.9575
5805.00,0.9682
5804.00,0.9790
5803.00,0.9896
5802.00,1.0001
5801.00,1.0102
5800.00,1.0200
5799.00,1.0297
5798.00,1.0393
5797.00,1.0489
5796.00,1.0585
5795.00,1.0678
5794.00,1.0772
5793.00,1.0863
5792.00,1.0951
5791.00,1.1033
5790.00,1.1110
5789.00,1.1185
5788.00,1.1260
5787.00,1.1333
5786.00,1.1403
5785.00,1.1470
5784.00,1.1534
5783.00,1.1595
5782.00,1.1653
5781.00,1.1709
5780.00,1.1762
5779.00,1.1813
5778.00,1.1862
5777.00,1.1908
5776.00,1.1948
5775.00,1.1982
5774.00,1.2009
5773.00,1.2031
5772.00,1.2049
5771.00,1.2062
5770.00,1.2073
5769.00,1.2084
5768.00,1.2092
5767.00,1.2096
5766.00,1.2098
5765.00,1.2099
5764.00,1.2100
5763.00,1.2097
5762.00,1.2088
5761.00,1.2073
5760.00,1.2050
5759.00,1.2019
5758.00,1.1983
5757.00,1.1947
5756.00,1.1912
5755.00,1.1877
5754.00,1.1839
5753.00,1.1795
5752.00,1.1745
5751.00,1.1690
5750.00,1.1632
5749.00,1.1572
5748.00,1.1511
5747.00,1.1445
5746.00,1.1375
5745.00,1.1300
5744.00,1.1221
5743.00,1.1137
5742.00,1.1050
5741.00,1.0960
5740.00,1.0866
5739.00,1.0767
5738.00,1.0664
5737.00,1.0559
5736.00,1.0454
5735.00,1.0347
5734.00,1.0238
5733.00,1.0127
5732.00,1.0012
5731.00,0.9893
5730.00,0.9771
5729.00,0.9649
5728.00,0.9525
5727.00,0.9399
5726.00,0.9272
5725.00,0.9145
5724.00,0.9018
5723.00,0.8891
5722.00,0.8766
5721.00,0.8642
5720.00,0.8519
5719.00,0.8397
5718.00,0.8276
5717.00,0.8158
5716.00,0.8043
5715.00,0.7932
5714.00,0.7825
5713.00,0.7721
5712.00,0.7621
5711.00,0.7525
5710.00,0.7433
5709.00,0.7346
5708.00,0.7265
5707.00,0.7189
5706.00,0.7120
5705.00,0.7057
5704.00,0.7000
5703.00,0.6949
5702.00,0.6905
5701.00,0.6869
5700.00,0.6841
5699.00,0.6820
5698.00,0.6806
5697.00,0.6799
5696.00,0.6799
5695.00,0.6806
5694.00,0.6819
5693.00,0.6840
5692.00,0.6868
5691.00,0.6903
5690.00,0.6944
5689.00,0.6992
5688.00,0.7046
5687.00,0.7107
5686.00,0.7173
5685.00,0.7245
5684.00,0.7322
5683.00,0.7403
5682.00,0.7489
5681.00,0.7580
5680.00,0.7675
5679.00,0.7773
5678.00,0.7874
5677.00,0.7977
5676.00,0.8083
5675.00,0.8189
5674.00,0.8296
5673.00,0.8405
5672.00,0.8517
5671.00,0.8629
5670.00,0.8744
5669.00,0.8859
5668.00,0.8975
5667.00,0.9090
5666.00,0.9205
5665.00,0.9319
5664.00,0.9433
5663.00,0.9546
5662.00,0.9660
5661.00,0.9774
5660.00,0.9886
5659.00,0.9995
5658.00,1.0100
5657.00,1.0205
5656.00,1.0308
5655.00,1.0412
5654.00,1.0515
5653.00,1.0618
5652.00,1.0720
5651.00,1.0820
5650.00,1.0916
5649.00,1.1008
5648.00,1.1097
5647.00,1.1183
5646.00,1.1266
5645.00,1.1347
5644.00,1.1425
5643.00,1.1502
5642.00,1.1576
5641.00,1.1648
5640.00,1.1715
5639.00,1.1776
5638.00,1.1833
5637.00,1.1885
5636.00,1.1933
5635.00,1.1976
5634.00,1.2015
5633.00,1.2051
5632.00,1.2086
5631.00,1.2119
5630.00,1.2149
5629.00,1.2175
5628.00,1.2199
5627.00,1.2219
5626.00,1.2235
5625.00,1.2247
5624.00,1.2254
5623.00,1.2259
5622.00,1.2259
5621.00,1.2254
5620.00,1.2244
5619.00,1.2229
5618.00,1.2210
5617.00,1.2187
5616.00,1.2161
5615.00,1.2132
5614.00,1.2098
5613.00,1.2061
5612.00,1.2020
5611.00,1.1976
5610.00,1.1929
5609.00,1.1879
5608.00,1.1824
5607.00,1.1764
5606.00,1.1699
5605.00,1.1630
5604.00,1.1557
5603.00,1.1484
5602.00,1.1408
5601.00,1.1329
5600.00,1.1247
5599.00,1.1159
5598.00,1.1064
5597.00,1.0964
5596.00,1.0860
5595.00,1.0752
5594.00,1.0641
5593.00,1.0528
5592.00,1.0414
5591.00,1.0299
5590.00,1.0183
5589.00,1.0063
5588.00,0.9939
5587.00,0.9811
5586.00,0.9681
5585.00,0.9548
5584.00,0.9416
5583.00,0.9284
5582.00,0.9155
5581.00,0.9028
5580.00,0.8899
5579.00,0.8769
5578.00,0.8639
5577.00,0.8510
5576.00,0.8382
5575.00,0.8257
5574.00,0.8134
5573.00,0.8015
5572.00,0.7901
5571.00,0.7789
5570.00,0.7682
5569.00,0.7579
5568.00,0.7481
5567.00,0.7388
5566.00,0.7302
5565.00,0.7221
5564.00,0.7147
5563.00,0.7080
5562.00,0.7019
5561.00,0.6966
5560.00,0.6919
5559.00,0.6880
5558.00,0.6850
5557.00,0.6828
5556.00,0.6814
5555.00,0.6808
5554.00,0.6810
5553.00,0.6819
5552.00,0.6837
5551.00,0.6862
5550.00,0.6896
5549.00,0.6937
5548.00,0.6985
5547.00,0.7040
5546.00,0.7101
5545.00,0.7167
5544.00,0.7240
5543.00,0.7318
5542.00,0.7401
5541.00,0.7490
5540.00,0.7584
5539.00,0.7680
5538.00,0.7780
5537.00,0.7883
5536.00,0.7989
5535.00,0.8098
5534.00,0.8210
5533.00,0.8324
5532.00,0.8440
5531.00,0.8558
5530.00,0.8677
5529.00,0.8796
5528.00,0.8917
5527.00,0.9038
5526.00,0.9160
5525.00,0.9282
5524.00,0.9403
5523.00,0.9524
5522.00,0.9647
5521.00,0.9770
5520.00,0.9892
5519.00,1.0012
5518.00,1.0129
5517.00,1.0245
5516.00,1.0358
5515.00,1.0469
5514.00,1.0579
5513.00,1.0687
5512.00,1.0794
5511.00,1.0896
5510.00,1.0996
5509.00,1.1094
5508.00,1.1191
5507.00,1.1286
5506.00,1.1378
5505.00,1.1469
5504.00,1.1555
5503.00,1.1637
5502.00,1.1715
5501.00,1.1789
5500.00,1.1861
5499.00,1.1928
5498.00,1.1990
5497.00,1.2048
5496.00,1.2104
5495.00,1.2157
5494.00,1.2207
5493.00,1.2255
5492.00,1.2298
5491.00,1.2336
5490.00,1.2369
5489.00,1.2399
5488.00,1.2427
5487.00,1.2453
5486.00,1.2477
5485.00,1.2498
5484.00,1.2512
5483.00,1.2521
5482.00,1.2524
5481.00,1.2523
5480.00,1.2516
5479.00,1.2505
5478.00,1.2489
5477.00,1.2470
5476.00,1.2447
5475.00,1.2424
5474.00,1.2401
5473.00,1.2376
5472.00,1.2344
5471.00,1.2305
5470.00,1.2261
5469.00,1.2213
5468.00,1.2160
5467.00,1.2101
5466.00,1.2040
5465.00,1.1977
5464.00,1.1910
5463.00,1.1838
5462.00,1.1762
5461.00,1.1683
5460.00,1.1601
5459.00,1.1515
5458.00,1.1426
5457.00,1.1333
5456.00,1.1237
5455.00,1.1135
5454.00,1.1029
5453.00,1.0919
5452.00,1.0804
5451.00,1.0686
5450.00,1.0565
5449.00,1.0444
5448.00,1.0319
5447.00,1.0191
5446.00,1.0058
5445.00,0.9923
5444.00,0.9786
5443.00,0.9647
5442.00,0.9506
5441.00,0.9365
5440.00,0.9225
5439.00,0.9084
5438.00,0.8943
5437.00,0.8803
5436.00,0.8663
5435.00,0.8524
5434.00,0.8386
5433.00,0.8252
5432.00,0.8123
5431.00,0.7998
5430.00,0.7876
5429.00,0.7756
5428.00,0.7639
5427.00,0.7526
5426.00,0.7420
5425.00,0.7322
5424.00,0.7231
5423.00,0.7147
5422.00,0.7070
5421.00,0.7000
5420.00,0.6939
5419.00,0.6885
5418.00,0.6838
5417.00,0.6799
5416.00,0.6769
5415.00,0.6746
5414.00,0.6731
5413.00,0.6724
5412.00,0.6725
5411.00,0.6734
5410.00,0.6751
5409.00,0.6778
5408.00,0.6815
5407.00,0.6860
5406.00,0.6912
5405.00,0.6972
5404.00,0.7038
5403.00,0.7111
5402.00,0.7190
5401.00,0.7274
5400.00,0.7364
5399.00,0.7457
5398.00,0.7555
5397.00,0.7656
5396.00,0.7760
5395.00,0.7869
5394.00,0.7982
5393.00,0.8099
5392.00,0.8218
5391.00,0.8339
5390.00,0.8460
5389.00,0.8582
5388.00,0.8705
5387.00,0.8830
5386.00,0.8959
5385.00,0.9090
5384.00,0.9223
5383.00,0.9355
5382.00,0.9486
5381.00,0.9614
5380.00,0.9738
5379.00,0.9860
5378.00,0.9981
5377.00,1.0104
5376.00,1.0230
5375.00,1.0356
5374.00,1.0481
5373.00,1.0604
5372.00,1.0724
5371.00,1.0841
5370.00,1.0956
5369.00,1.1069
5368.00,1.1179
5367.00,1.1285
5366.00,1.1387
5365.00,1.1486
5364.00,1.1581
5363.00,1.1674
5362.00,1.1762
5361.00,1.1846
5360.00,1.1926
5359.00,1.2004
5358.00,1.2080
5357.00,1.2154
5356.00,1.2224
5355.00,1.2289
5354.00,1.2350
5353.00,1.2408
5352.00,1.2462
5351.00,1.2514
5350.00,1.2561
5349.00,1.2603
5348.00,1.2640
5347.00,1.2672
5346.00,1.2701
5345.00,1.2727
5344.00,1.2749
5343.00,1.2767
5342.00,1.2781
5341.00,1.2790
5340.00,1.2797
5339.00,1.2800
5338.00,1.2800
5337.00,1.2795
5336.00,1.2787
5335.00,1.2773
5334.00,1.2756
5333.00,1.2735
5332.00,1.2712
5331.00,1.2687
5330.00,1.2659
5329.00,1.2626
5328.00,1.2587
5327.00,1.2542
5326.00,1.2492
5325.00,1.2438
5324.00,1.2380
5323.00,1.2320
5322.00,1.2256
5321.00,1.2187
5320.00,1.2115
5319.00,1.2041
5318.00,1.1963
5317.00,1.1881
5316.00,1.1793
5315.00,1.1701
5314.00,1.1605
5313.00,1.1504
5312.00,1.1400
5311.00,1.1291
5310.00,1.1178
5309.00,1.1060
5308.00,1.0938
5307.00,1.0812
5306.00,1.0684
5305.00,1.0555
5304.00,1.0423
5303.00,1.0288
5302.00,1.0152
5301.00,1.0013
5300.00,0.9872
5299.00,0.9730
5298.00,0.9587
5297.00,0.9444
5296.00,0.9301
5295.00,0.9157
5294.00,0.9015
5293.00,0.8876
5292.00,0.8737
5291.00,0.8599
5290.00,0.8462
5289.00,0.8328
5288.00,0.8197
5287.00,0.8070
5286.00,0.7949
5285.00,0.7835
5284.00,0.7726
5283.00,0.7624
5282.00,0.7527
5281.00,0.7437
5280.00,0.7353
5279.00,0.7276
5278.00,0.7207
5277.00,0.7147
5276.00,0.7095
5275.00,0.7051
5274.00,0.7016
5273.00,0.6989
5272.00,0.6972
5271.00,0.6964
5270.00,0.6966
5269.00,0.6978
5268.00,0.6997
5267.00,0.7025
5266.00,0.7061
5265.00,0.7105
5264.00,0.7158
5263.00,0.7218
5262.00,0.7284
5261.00,0.7356
5260.00,0.7434
5259.00,0.7517
5258.00,0.7606
5257.00,0.7701
5256.00,0.7803
5255.00,0.7911
5254.00,0.8023
5253.00,0.8138
5252.00,0.8253
5251.00,0.8367
5250.00,0.8483
5249.00,0.8602
5248.00,0.8724
5247.00,0.8848
5246.00,0.8975
5245.00,0.9105
5244.00,0.9235
5243.00,0.9368
5242.00,0.9502
5241.00,0.9637
5240.00,0.9770
5239.00,0.9901
5238.00,1.0031
5237.00,1.0159
5236.00,1.0287
5235.00,1.0413
5234.00,1.0538
5233.00,1.0662
5232.00,1.0784
5231.00,1.0906
5230.00,1.1026
5229.00,1.1143
5228.00,1.1257
5227.00,1.1367
5226.00,1.1473
5225.00,1.1578
5224.00,1.1683
5223.00,1.1786
5222.00,1.1888
5221.00,1.1988
5220.00,1.2081
5219.00,1.2168
5218.00,1.2249
5217.00,1.2327
5216.00,1.2403
5215.00,1.2476
5214.00,1.2547
5213.00,1.2614
5212.00,1.2677
5211.00,1.2736
5210.00,1.2789
5209.00,1.2839
5208.00,1.2885
5207.00,1.2926
5206.00,1.2964
5205.00,1.2998
5204.00,1.3029
5203.00,1.3057
5202.00,1.3080
5201.00,1.3100
5200.00,1.3116
5199.00,1.3128
5198.00,1.3137
5197.00,1.3141
5196.00,1.3140
5195.00,1.3135
5194.00,1.3126
5193.00,1.3114
5192.00,1.3096
5191.00,1.3074
5190.00,1.3048
5189.00,1.3018
5188.00,1.2983
5187.00,1.2945
5186.00,1.2903
5185.00,1.2857
5184.00,1.2807
5183.00,1.2753
5182.00,1.2694
5181.00,1.2632
5180.00,1.2565
5179.00,1.2494
5178.00,1.2417
5177.00,1.2335
5176.00,1.2248
5175.00,1.2158
5174.00,1.2066
5173.00,1.1972
5172.00,1.1874
5171.00,1.1772
5170.00,1.1664
5169.00,1.1551
5168.00,1.1434
5167.00,1.1313
5166.00,1.1188
5165.00,1.1060
5164.00,1.0928
5163.00,1.0791
5162.00,1.0650
5161.00,1.0506
5160.00,1.0360
5159.00,1.0211
5158.00,1.0059
5157.00,0.9905
5156.00,0.9749
5155.00,0.9591
5154.00,0.9434
5153.00,0.9279
5152.00,0.9126
5151.00,0.8974
5150.00,0.8823
5149.00,0.8675
5148.00,0.8529
5147.00,0.8386
5146.00,0.8245
5145.00,0.8109
5144.00,0.7977
5143.00,0.7849
5142.00,0.7728
5141.00,0.7613
5140.00,0.7505
5139.00,0.7404
5138.00,0.7311
5137.00,0.7227
5136.00,0.7150
5135.00,0.7082
5134.00,0.7022
5133.00,0.6971
5132.00,0.6929
5131.00,0.6897
5130.00,0.6875
5129.00,0.6862
5128.00,0.6860
5127.00,0.6867
5126.00,0.6884
5125.00,0.6910
5124.00,0.6943
5123.00,0.6986
5122.00,0.7037
5121.00,0.7096
5120.00,0.7164
5119.00,0.7240
5118.00,0.7324
5117.00,0.7414
5116.00,0.7510
5115.00,0.7612
5114.00,0.7719
5113.00,0.7832
5112.00,0.7950
5111.00,0.8071
5110.00,0.8196
5109.00,0.8324
5108.00,0.8454
5107.00,0.8586
5106.00,0.8720
5105.00,0.8856
5104.00,0.8994
5103.00,0.9134
5102.00,0.9275
5101.00,0.9417
5100.00,0.9558
5099.00,0.9700
5098.00,0.9842
5097.00,0.9984
5096.00,1.0127
5095.00,1.0270
5094.00,1.0413
5093.00,1.0554
5092.00,1.0691
5091.00,1.0825
5090.00,1.0956
5089.00,1.1085
5088.00,1.1214
5087.00,1.1340
5086.00,1.1463
5085.00,1.1583
5084.00,1.1700
5083.00,1.1814
5082.00,1.1926
5081.00,1.2034
5080.00,1.2139
5079.00,1.2239
5078.00,1.2336
5077.00,1.2431
5076.00,1.2524
5075.00,1.2613
5074.00,1.2697
5073.00,1.2776
5072.00,1.2847
5071.00,1.2913
5070.00,1.2976
5069.00,1.3035
5068.00,1.3093
5067.00,1.3146
5066.00,1.3197
5065.00,1.3244
5064.00,1.3286
5063.00,1.3323
5062.00,1.3356
5061.00,1.3385
5060.00,1.3411
5059.00,1.3433
5058.00,1.3449
5057.00,1.3461
5056.00,1.3469
5055.00,1.3475
5054.00,1.3477
5053.00,1.3476
5052.00,1.3471
5051.00,1.3463
5050.00,1.3451
5049.00,1.3432
5048.00,1.3407
5047.00,1.3377
5046.00,1.3343
5045.00,1.3305
5044.00,1.3265
5043.00,1.3223
5042.00,1.3177
5041.00,1.3127
5040.00,1.3070
5039.00,1.3008
5038.00,1.2942
5037.00,1.2872
5036.00,1.2800
5035.00,1.2725
5034.00,1.2645
5033.00,1.2559
5032.00,1.2466
5031.00,1.2368
5030.00,1.2266
5029.00,1.2159
5028.00,1.2048
5027.00,1.1933
5026.00,1.1815
5025.00,1.1695
5024.00,1.1571
5023.00,1.1445
5022.00,1.1314
5021.00,1.1178
5020.00,1.1038
5019.00,1.0892
5018.00,1.0742
5017.00,1.0589
5016.00,1.0433
5015.00,1.0276
5014.00,1.0119
5013.00,0.9961
5012.00,0.9803
5011.00,0.9644
5010.00,0.9484
5009.00,0.9323
5008.00,0.9163
5007.00,0.9003
5006.00,0.8847
5005.00,0.8694
5004.00,0.8546
5003.00,0.8402
5002.00,0.8263
5001.00,0.8129
5000.00,0.7999
4999.00,0.7875
4998.00,0.7758
4997.00,0.7648
4996.00,0.7545
4995.00,0.7451
4994.00,0.7365
4993.00,0.7287
4992.00,0.7217
4991.00,0.7156
4990.00,0.7106
4989.00,0.7065
4988.00,0.7035
4987.00,0.7015
4986.00,0.7006
4985.00,0.7007
4984.00,0.7019
4983.00,0.7040
4982.00,0.7072
4981.00,0.7114
4980.00,0.7166
4979.00,0.7227
4978.00,0.7297
4977.00,0.7375
4976.00,0.7462
4975.00,0.7555
4974.00,0.7654
4973.00,0.7760
4972.00,0.7872
4971.00,0.7990
4970.00,0.8112
4969.00,0.8239
4968.00,0.8371
4967.00,0.8505
4966.00,0.8643
4965.00,0.8783
4964.00,0.8926
4963.00,0.9070
4962.00,0.9215
4961.00,0.9362
4960.00,0.9510
4959.00,0.9659
4958.00,0.9808
4957.00,0.9957
4956.00,1.0105
4955.00,1.0253
4954.00,1.0400
4953.00,1.0547
4952.00,1.0693
4951.00,1.0837
4950.00,1.0980
4949.00,1.1121
4948.00,1.1259
4947.00,1.1394
4946.00,1.1525
4945.00,1.1651
4944.00,1.1775
4943.00,1.1896
4942.00,1.2015
4941.00,1.2132
4940.00,1.2247
4939.00,1.2359
4938.00,1.2467
4937.00,1.2571
4936.00,1.2670
4935.00,1.2764
4934.00,1.2855
4933.00,1.2944
4932.00,1.3031
4931.00,1.3115
4930.00,1.3192
4929.00,1.3262
4928.00,1.3324
4927.00,1.3379
4926.00,1.3432
4925.00,1.3484
4924.00,1.3536
4923.00,1.3584
4922.00,1.3628
4921.00,1.3665
4920.00,1.3697
4919.00,1.3726
4918.00,1.3752
4917.00,1.3774
4916.00,1.3792
4915.00,1.3804
4914.00,1.3811
4913.00,1.3814
4912.00,1.3814
4911.00,1.3812
4910.00,1.3807
4909.00,1.3795
4908.00,1.3777
4907.00,1.3752
4906.00,1.3722
4905.00,1.3688
4904.00,1.3651
4903.00,1.3612
4902.00,1.3570
4901.00,1.3525
4900.00,1.3476
4899.00,1.3424
4898.00,1.3366
4897.00,1.3304
4896.00,1.3237
4895.00,1.3164
4894.00,1.3088
4893.00,1.3008
4892.00,1.2924
4891.00,1.2835
4890.00,1.2740
4889.00,1.2640
4888.00,1.2535
4887.00,1.2425
4886.00,1.2310
4885.00,1.2190
4884.00,1.2067
4883.00,1.1940
4882.00,1.1809
4881.00,1.1673
4880.00,1.1533
4879.00,1.1388
4878.00,1.1240
4877.00,1.1087
4876.00,1.0930
4875.00,1.0769
4874.00,1.0607
4873.00,1.0443
4872.00,1.0278
4871.00,1.0110
4870.00,0.9942
4869.00,0.9772
4868.00,0.9601
4867.00,0.9431
4866.00,0.9262
4865.00,0.9096
4864.00,0.8932
4863.00,0.8771
4862.00,0.8614
4861.00,0.8460
4860.00,0.8309
4859.00,0.8164
4858.00,0.8024
4857.00,0.7892
4856.00,0.7767
4855.00,0.7650
4854.00,0.7540
4853.00,0.7439
4852.00,0.7346
4851.00,0.7263
4850.00,0.7190
4849.00,0.7127
4848.00,0.7075
4847.00,0.7034
4846.00,0.7004
4845.00,0.6987
4844.00,0.6981
4843.00,0.6987
4842.00,0.7004
4841.00,0.7032
4840.00,0.7071
4839.00,0.7120
4838.00,0.7179
4837.00,0.7248
4836.00,0.7325
4835.00,0.7411
4834.00,0.7505
4833.00,0.7607
4832.00,0.7716
4831.00,0.7832
4830.00,0.7955
4829.00,0.8083
4828.00,0.8216
4827.00,0.8352
4826.00,0.8491
4825.00,0.8634
4824.00,0.8780
4823.00,0.8929
4822.00,0.9080
4821.00,0.9234
4820.00,0.9390
4819.00,0.9547
4818.00,0.9704
4817.00,0.9861
4816.00,1.0018
4815.00,1.0175
4814.00,1.0332
4813.00,1.0488
4812.00,1.0642
4811.00,1.0795
4810.00,1.0946
4809.00,1.1097
4808.00,1.1247
4807.00,1.1396
4806.00,1.1542
4805.00,1.1685
4804.00,1.1824
4803.00,1.1959
4802.00,1.2092
4801.00,1.2224
4800.00,1.2352
4799.00,1.2477
4798.00,1.2596
4797.00,1.2710
4796.00,1.2819
4795.00,1.2925
4794.00,1.3028
4793.00,1.3128
4792.00,1.3226
4791.00,1.3320
4790.00,1.3411
4789.00,1.3495
4788.00,1.3572
4787.00,1.3642
4786.00,1.3707
4785.00,1.3768
4784.00,1.3827
4783.00,1.3884
4782.00,1.3939
4781.00,1.3990
4780.00,1.4035
4779.00,1.4075
4778.00,1.4110
4777.00,1.4141
4776.00,1.4168
4775.00,1.4190
4774.00,1.4208
4773.00,1.4220
4772.00,1.4229
4771.00,1.4234
4770.00,1.4236
4769.00,1.4233
4768.00,1.4227
4767.00,1.4215
4766.00,1.4199
4765.00,1.4178
4764.00,1.4154
4763.00,1.4124
4762.00,1.4091
4761.00,1.4054
4760.00,1.4015
4759.00,1.3973
4758.00,1.3926
4757.00,1.3873
4756.00,1.3812
4755.00,1.3746
4754.00,1.3677
4753.00,1.3606
4752.00,1.3533
4751.00,1.3456
4750.00,1.3374
4749.00,1.3284
4748.00,1.3189
4747.00,1.3088
4746.00,1.2984
4745.00,1.2875
4744.00,1.2761
4743.00,1.2641
4742.00,1.2516
4741.00,1.2386
4740.00,1.2252
4739.00,1.2115
4738.00,1.1974
4737.00,1.1827
4736.00,1.1675
4735.00,1.1518
4734.00,1.1356
4733.00,1.1190
4732.00,1.1022
4731.00,1.0851
4730.00,1.0677
4729.00,1.0500
4728.00,1.0322
4727.00,1.0143
4726.00,0.9963
4725.00,0.9783
4724.00,0.9603
4723.00,0.9423
4722.00,0.9245
4721.00,0.9070
4720.00,0.8897
4719.00,0.8728
4718.00,0.8565
4717.00,0.8407
4716.00,0.8254
4715.00,0.8108
4714.00,0.7970
4713.00,0.7839
4712.00,0.7717
4711.00,0.7605
4710.00,0.7503
4709.00,0.7411
4708.00,0.7331
4707.00,0.7262
4706.00,0.7205
4705.00,0.7160
4704.00,0.7128
4703.00,0.7108
4702.00,0.7101
4701.00,0.7108
4700.00,0.7127
4699.00,0.7157
4698.00,0.7199
4697.00,0.7251
4696.00,0.7314
4695.00,0.7387
4694.00,0.7471
4693.00,0.7565
4692.00,0.7667
4691.00,0.7778
4690.00,0.7896
4689.00,0.8021
4688.00,0.8151
4687.00,0.8288
4686.00,0.8430
4685.00,0.8577
4684.00,0.8727
4683.00,0.8881
4682.00,0.9036
4681.00,0.9195
4680.00,0.9355
4679.00,0.9518
4678.00,0.9682
4677.00,0.9848
4676.00,1.0013
4675.00,1.0178
4674.00,1.0342
4673.00,1.0506
4672.00,1.0670
4671.00,1.0835
4670.00,1.0998
4669.00,1.1160
4668.00,1.1319
4667.00,1.1475
4666.00,1.1628
4665.00,1.1780
4664.00,1.1929
4663.00,1.2077
4662.00,1.2221
4661.00,1.2362
4660.00,1.2499
4659.00,1.2631
4658.00,1.2759
4657.00,1.2884
4656.00,1.3006
4655.00,1.3124
4654.00,1.3239
4653.00,1.3350
4652.00,1.3457
4651.00,1.3557
4650.00,1.3653
4649.00,1.3744
4648.00,1.3830
4647.00,1.3911
4646.00,1.3988
4645.00,1.4060
4644.00,1.4129
4643.00,1.4195
4642.00,1.4257
4641.00,1.4313
4640.00,1.4362
4639.00,1.4405
4638.00,1.4443
4637.00,1.4478
4636.00,1.4510
4635.00,1.4538
4634.00,1.4563
4633.00,1.4583
4632.00,1.4600
4631.00,1.4612
4630.00,1.4619
4629.00,1.4620
4628.00,1.4617
4627.00,1.4609
4626.00,1.4598
4625.00,1.4582
4624.00,1.4562
4623.00,1.4536
4622.00,1.4506
4621.00,1.4471
4620.00,1.4432
4619.00,1.4390
4618.00,1.4345
4617.00,1.4296
4616.00,1.4245
4615.00,1.4189
4614.00,1.4130
4613.00,1.4066
4612.00,1.3996
4611.00,1.3921
4610.00,1.3841
4609.00,1.3758
4608.00,1.3672
4607.00,1.3583
4606.00,1.3490
4605.00,1.3392
4604.00,1.3289
4603.00,1.3182
4602.00,1.3070
4601.00,1.2955
4600.00,1.2834
4599.00,1.2708
4598.00,1.2576
4597.00,1.2440
4596.00,1.2298
4595.00,1.2151
4594.00,1.1997
4593.00,1.1837
4592.00,1.1671
4591.00,1.1502
4590.00,1.1329
4589.00,1.1153
4588.00,1.0973
4587.00,1.0788
4586.00,1.0600
4585.00,1.0410
4584.00,1.0219
4583.00,1.0027
4582.00,0.9835
4581.00,0.9645
4580.00,0.9456
4579.00,0.9270
4578.00,0.9087
4577.00,0.8908
4576.00,0.8734
4575.00,0.8566
4574.00,0.8403
4573.00,0.8248
4572.00,0.8101
4571.00,0.7962
4570.00,0.7833
4569.00,0.7715
4568.00,0.7607
4567.00,0.7510
4566.00,0.7425
4565.00,0.7353
4564.00,0.7295
4563.00,0.7250
4562.00,0.7219
4561.00,0.7202
4560.00,0.7199
4559.00,0.7209
4558.00,0.7234
4557.00,0.7272
4556.00,0.7323
4555.00,0.7385
4554.00,0.7459
4553.00,0.7544
4552.00,0.7640
4551.00,0.7746
4550.00,0.7861
4549.00,0.7984
4548.00,0.8115
4547.00,0.8252
4546.00,0.8396
4545.00,0.8545
4544.00,0.8700
4543.00,0.8858
4542.00,0.9021
4541.00,0.9187
4540.00,0.9356
4539.00,0.9527
4538.00,0.9700
4537.00,0.9874
4536.00,1.0050
4535.00,1.0226
4534.00,1.0403
4533.00,1.0578
4532.00,1.0753
4531.00,1.0927
4530.00,1.1102
4529.00,1.1276
4528.00,1.1448
4527.00,1.1618
4526.00,1.1785
4525.00,1.1951
4524.00,1.2113
4523.00,1.2274
4522.00,1.2431
4521.00,1.2585
4520.00,1.2735
4519.00,1.2881
4518.00,1.3022
4517.00,1.3160
4516.00,1.3292
4515.00,1.3422
4514.00,1.3548
4513.00,1.3670
4512.00,1.3787
4511.00,1.3898
4510.00,1.4003
4509.00,1.4104
4508.00,1.4202
4507.00,1.4296
4506.00,1.4386
4505.00,1.4468
4504.00,1.4544
4503.00,1.4614
4502.00,1.4680
4501.00,1.4744
4500.00,1.4805
4499.00,1.4862
4498.00,1.4913
4497.00,1.4957
4496.00,1.4992
4495.00,1.5021
4494.00,1.5047
4493.00,1.5071
4492.00,1.5091
4491.00,1.5107
4490.00,1.5118
4489.00,1.5124
4488.00,1.5126
4487.00,1.5124
4486.00,1.5119
4485.00,1.5109
4484.00,1.5095
4483.00,1.5078
4482.00,1.5058
4481.00,1.5035
4480.00,1.5008
4479.00,1.4977
4478.00,1.4941
4477.00,1.4902
4476.00,1.4858
4475.00,1.4811
4474.00,1.4760
4473.00,1.4705
4472.00,1.4644
4471.00,1.4577
4470.00,1.4505
4469.00,1.4429
4468.00,1.4349
4467.00,1.4265
4466.00,1.4177
4465.00,1.4083
4464.00,1.3984
4463.00,1.3880
4462.00,1.3773
4461.00,1.3662
4460.00,1.3546
4459.00,1.3424
4458.00,1.3297
4457.00,1.3166
4456.00,1.3033
4455.00,1.2897
4454.00,1.2759
4453.00,1.2619
4452.00,1.2476
4451.00,1.2331
4450.00,1.2184
4449.00,1.2035
4448.00,1.1887
4447.00,1.1740
4446.00,1.1596
4445.00,1.1456
4444.00,1.1319
4443.00,1.1182
4442.00,1.1046
4441.00,1.0911
4440.00,1.0774
4439.00,1.0636
4438.00,1.0496
4437.00,1.0352
4436.00,1.0205
4435.00,1.0053
4434.00,0.9896
4433.00,0.9735
4432.00,0.9569
4431.00,0.9402
4430.00,0.9235
4429.00,0.9072
4428.00,0.8914
4427.00,0.8763
4426.00,0.8621
4425.00,0.8489
4424.00,0.8370
4423.00,0.8264
4422.00,0.8173
4421.00,0.8099
4420.00,0.8041
4419.00,0.8001
4418.00,0.7978
4417.00,0.7974
4416.00,0.7987
4415.00,0.8017
4414.00,0.8064
4413.00,0.8126
4412.00,0.8202
4411.00,0.8293
4410.00,0.8397
4409.00,0.8513
4408.00,0.8641
4407.00,0.8779
4406.00,0.8925
4405.00,0.9079
4404.00,0.9238
4403.00,0.9402
4402.00,0.9569
4401.00,0.9737
4400.00,0.9905
4399.00,1.0072
4398.00,1.0236
4397.00,1.0399
4396.00,1.0560
4395.00,1.0720
4394.00,1.0879
4393.00,1.1038
4392.00,1.1196
4391.00,1.1354
4390.00,1.1512
4389.00,1.1670
4388.00,1.1829
4387.00,1.1989
4386.00,1.2150
4385.00,1.2310
4384.00,1.2468
4383.00,1.2624
4382.00,1.2778
4381.00,1.2930
4380.00,1.3082
4379.00,1.3234
4378.00,1.3385
4377.00,1.3533
4376.00,1.3675
4375.00,1.3810
4374.00,1.3939
4373.00,1.4063
4372.00,1.4182
4371.00,1.4298
4370.00,1.4408
4369.00,1.4514
4368.00,1.4615
4367.00,1.4711
4366.00,1.4800
4365.00,1.4882
4364.00,1.4957
4363.00,1.5028
4362.00,1.5095
4361.00,1.5159
4360.00,1.5219
4359.00,1.5275
4358.00,1.5327
4357.00,1.5374
4356.00,1.5418
4355.00,1.5460
4354.00,1.5500
4353.00,1.5539
4352.00,1.5575
4351.00,1.5606
4350.00,1.5633
4349.00,1.5654
4348.00,1.5672
4347.00,1.5686
4346.00,1.5698
4345.00,1.5706
4344.00,1.5712
4343.00,1.5713
4342.00,1.5712
4341.00,1.5706
4340.00,1.5695
4339.00,1.5677
4338.00,1.5655
4337.00,1.5628
4336.00,1.5598
4335.00,1.5565
4334.00,1.5529
4333.00,1.5489
4332.00,1.5446
4331.00,1.5398
4330.00,1.5343
4329.00,1.5282
4328.00,1.5216
4327.00,1.5146
4326.00,1.5075
4325.00,1.5004
4324.00,1.4930
4323.00,1.4850
4322.00,1.4762
4321.00,1.4668
4320.00,1.4567
4319.00,1.4462
4318.00,1.4353
4317.00,1.4238
4316.00,1.4117
4315.00,1.3990
4314.00,1.3856
4313.00,1.3717
4312.00,1.3570
4311.00,1.3416
4310.00,1.3256
4309.00,1.3091
4308.00,1.2920
4307.00,1.2743
4306.00,1.2561
4305.00,1.2373
4304.00,1.2181
4303.00,1.1983
4302.00,1.1781
4301.00,1.1574
4300.00,1.1364
4299.00,1.1151
4298.00,1.0937
4297.00,1.0722
4296.00,1.0507
4295.00,1.0293
4294.00,1.0079
4293.00,0.9868
4292.00,0.9659
4291.00,0.9454
4290.00,0.9254
4289.00,0.9060
4288.00,0.8874
4287.00,0.8697
4286.00,0.8529
4285.00,0.8371
4284.00,0.8224
4283.00,0.8087
4282.00,0.7964
4281.00,0.7854
4280.00,0.7759
4279.00,0.7679
4278.00,0.7615
4277.00,0.7567
4276.00,0.7534
4275.00,0.7518
4274.00,0.7517
4273.00,0.7533
4272.00,0.7565
4271.00,0.7611
4270.00,0.7673
4269.00,0.7749
4268.00,0.7838
4267.00,0.7939
4266.00,0.8053
4265.00,0.8178
4264.00,0.8312
4263.00,0.8455
4262.00,0.8605
4261.00,0.8763
4260.00,0.8928
4259.00,0.9099
4258.00,0.9276
4257.00,0.9458
4256.00,0.9642
4255.00,0.9830
4254.00,1.0020
4253.00,1.0212
4252.00,1.0407
4251.00,1.0602
4250.00,1.0799
4249.00,1.0995
4248.00,1.1191
4247.00,1.1386
4246.00,1.1580
4245.00,1.1774
4244.00,1.1965
4243.00,1.2155
4242.00,1.2341
4241.00,1.2525
4240.00,1.2705
4239.00,1.2883
4238.00,1.3058
4237.00,1.3230
4236.00,1.3398
4235.00,1.3561
4234.00,1.3721
4233.00,1.3875
4232.00,1.4024
4231.00,1.4167
4230.00,1.4304
4229.00,1.4438
4228.00,1.4567
4227.00,1.4691
4226.00,1.4807
4225.00,1.4917
4224.00,1.5022
4223.00,1.5123
4222.00,1.5221
4221.00,1.5313
4220.00,1.5400
4219.00,1.5482
4218.00,1.5559
4217.00,1.5631
4216.00,1.5697
4215.00,1.5757
4214.00,1.5813
4213.00,1.5866
4212.00,1.5916
4211.00,1.5962
4210.00,1.6002
4209.00,1.6037
4208.00,1.6066
4207.00,1.6092
4206.00,1.6115
4205.00,1.6133
4204.00,1.6148
4203.00,1.6159
4202.00,1.6165
4201.00,1.6166
4200.00,1.6162
4199.00,1.6152
4198.00,1.6140
4197.00,1.6124
4196.00,1.6104
4195.00,1.6078
4194.00,1.6047
4193.00,1.6011
4192.00,1.5971
4191.00,1.5927
4190.00,1.5878
4189.00,1.5826
4188.00,1.5769
4187.00,1.5706
4186.00,1.5639
4185.00,1.5567
4184.00,1.5491
4183.00,1.5411
4182.00,1.5328
4181.00,1.5238
4180.00,1.5143
4179.00,1.5041
4178.00,1.4932
4177.00,1.4817
4176.00,1.4696
4175.00,1.4571
4174.00,1.4441
4173.00,1.4306
4172.00,1.4166
4171.00,1.4019
4170.00,1.3865
4169.00,1.3704
4168.00,1.3536
4167.00,1.3362
4166.00,1.3181
4165.00,1.2996
4164.00,1.2806
4163.00,1.2611
4162.00,1.2412
4161.00,1.2207
4160.00,1.1996
4159.00,1.1780
4158.00,1.1558
4157.00,1.1333
4156.00,1.1106
4155.00,1.0879
4154.00,1.0651
4153.00,1.0425
4152.00,1.0200
4151.00,0.9977
4150.00,0.9758
4149.00,0.9544
4148.00,0.9336
4147.00,0.9134
4146.00,0.8942
4145.00,0.8758
4144.00,0.8586
4143.00,0.8425
4142.00,0.8277
4141.00,0.8143
4140.00,0.8023
4139.00,0.7919
4138.00,0.7830
4137.00,0.7759
4136.00,0.7706
4135.00,0.7671
4134.00,0.7654
4133.00,0.7654
4132.00,0.7672
4131.00,0.7707
4130.00,0.7759
4129.00,0.7828
4128.00,0.7912
4127.00,0.8011
4126.00,0.8123
4125.00,0.8248
4124.00,0.8384
4123.00,0.8531
4122.00,0.8688
4121.00,0.8852
4120.00,0.9024
4119.00,0.9203
4118.00,0.9388
4117.00,0.9578
4116.00,0.9774
4115.00,0.9974
4114.00,1.0177
4113.00,1.0382
4112.00,1.0588
4111.00,1.0795
4110.00,1.1003
4109.00,1.1211
4108.00,1.1418
4107.00,1.1625
4106.00,1.1832
4105.00,1.2037
4104.00,1.2240
4103.00,1.2441
4102.00,1.2640
4101.00,1.2836
4100.00,1.3029
4099.00,1.3217
4098.00,1.3400
4097.00,1.3579
4096.00,1.3756
4095.00,1.3930
4094.00,1.4101
4093.00,1.4268
4092.00,1.4427
4091.00,1.4580
4090.00,1.4725
4089.00,1.4864
4088.00,1.5000
4087.00,1.5131
4086.00,1.5259
4085.00,1.5380
4084.00,1.5494
4083.00,1.5601
4082.00,1.5703
4081.00,1.5802
4080.00,1.5899
4079.00,1.5990
4078.00,1.6075
4077.00,1.6153
4076.00,1.6226
4075.00,1.6295
4074.00,1.6359
4073.00,1.6417
4072.00,1.6471
4071.00,1.6520
4070.00,1.6566
4069.00,1.6609
4068.00,1.6646
4067.00,1.6675
4066.00,1.6699
4065.00,1.6718
4064.00,1.6734
4063.00,1.6749
4062.00,1.6763
4061.00,1.6775
4060.00,1.6781
4059.00,1.6780
4058.00,1.6769
4057.00,1.6751
4056.00,1.6728
4055.00,1.6703
4054.00,1.6676
4053.00,1.6649
4052.00,1.6620
4051.00,1.6586
4050.00,1.6547
4049.00,1.6501
4048.00,1.6449
4047.00,1.6392
4046.00,1.6332
4045.00,1.6268
4044.00,1.6198
4043.00,1.6121
4042.00,1.6038
4041.00,1.5952
4040.00,1.5863
4039.00,1.5772
4038.00,1.5678
4037.00,1.5578
4036.00,1.5473
4035.00,1.5363
4034.00,1.5250
4033.00,1.5134
4032.00,1.5014
4031.00,1.4889
4030.00,1.4757
4029.00,1.4618
4028.00,1.4472
4027.00,1.4319
4026.00,1.4160
4025.00,1.3994
4024.00,1.3820
4023.00,1.3637
4022.00,1.3446
4021.00,1.3247
4020.00,1.3042
4019.00,1.2830
4018.00,1.2610
4017.00,1.2384
4016.00,1.2153
4015.00,1.1916
4014.00,1.1676
4013.00,1.1433
4012.00,1.1189
4011.00,1.0944
4010.00,1.0700
4009.00,1.0458
4008.00,1.0220
4007.00,0.9986
4006.00,0.9758
4005.00,0.9538
4004.00,0.9328
4003.00,0.9128
4002.00,0.8941
4001.00,0.8767
4000.00,0.8606
3999.00,0.8460
3998.00,0.8331
3997.00,0.8220
3996.00,0.8128
3995.00,0.8055
3994.00,0.8003
3993.00,0.7971
3992.00,0.7959
3991.00,0.7969
3990.00,0.8000
3989.00,0.8052
3988.00,0.8122
3987.00,0.8210
3986.00,0.8315
3985.00,0.8437
3984.00,0.8574
3983.00,0.8724
3982.00,0.8884
3981.00,0.9054
3980.00,0.9230
3979.00,0.9412
3978.00,0.9599
3977.00,0.9789
3976.00,0.9981
3975.00,1.0174
3974.00,1.0369
3973.00,1.0564
3972.00,1.0758
3971.00,1.0953
3970.00,1.1148
3969.00,1.1344
3968.00,1.1541
3967.00,1.1738
3966.00,1.1937
3965.00,1.2136
3964.00,1.2336
3963.00,1.2537
3962.00,1.2740
3961.00,1.2943
3960.00,1.3146
3959.00,1.3345
3958.00,1.3540
3957.00,1.3732
3956.00,1.3921
3955.00,1.4105
3954.00,1.4284
3953.00,1.4460
3952.00,1.4632
3951.00,1.4798
3950.00,1.4960
3949.00,1.5118
3948.00,1.5274
3947.00,1.5427
3946.00,1.5574
3945.00,1.5715
3944.00,1.5848
3943.00,1.5973
3942.00,1.6093
3941.00,1.6205
3940.00,1.6309
3939.00,1.6407
3938.00,1.6501
3937.00,1.6591
3936.00,1.6677
3935.00,1.6757
3934.00,1.6831
3933.00,1.6902
3932.00,1.6972
3931.00,1.7040
3930.00,1.7103
3929.00,1.7159
3928.00,1.7205
3927.00,1.7243
3926.00,1.7276
3925.00,1.7306
3924.00,1.7333
3923.00,1.7355
3922.00,1.7370
3921.00,1.7380
3920.00,1.7390
3919.00,1.7402
3918.00,1.7411
3917.00,1.7415
3916.00,1.7415
3915.00,1.7411
3914.00,1.7397
3913.00,1.7374
3912.00,1.7341
3911.00,1.7304
3910.00,1.7264
3909.00,1.7225
3908.00,1.7186
3907.00,1.7145
3906.00,1.7101
3905.00,1.7053
3904.00,1.7002
3903.00,1.6945
3902.00,1.6880
3901.00,1.6808
3900.00,1.6734
3899.00,1.6656
3898.00,1.6569
3897.00,1.6469
3896.00,1.6356
3895.00,1.6239
3894.00,1.6121
3893.00,1.5997
3892.00,1.5867
3891.00,1.5730
3890.00,1.5589
3889.00,1.5447
3888.00,1.5301
3887.00,1.5148
3886.00,1.4985
3885.00,1.4813
3884.00,1.4633
3883.00,1.4446
3882.00,1.4250
3881.00,1.4045
3880.00,1.3829
3879.00,1.3603
3878.00,1.3370
3877.00,1.3136
3876.00,1.2902
3875.00,1.2664
3874.00,1.2419
3873.00,1.2168
3872.00,1.1912
3871.00,1.1645
3870.00,1.1369
3869.00,1.1096
3868.00,1.0832
3867.00,1.0577
3866.00,1.0327
3865.00,1.0084
3864.00,0.9841
3863.00,0.9596
3862.00,0.9352
3861.00,0.9123
3860.00,0.8916
3859.00,0.8735
3858.00,0.8579
3857.00,0.8447
3856.00,0.8339
3855.00,0.8249
3854.00,0.8167
3853.00,0.8094
3852.00,0.8036
3851.00,0.7997
3850.00,0.7973
3849.00,0.7971
3848.00,0.7995
3847.00,0.8034
3846.00,0.8090
3845.00,0.8173
3844.00,0.8286
3843.00,0.8424
3842.00,0.8576
3841.00,0.8737
3840.00,0.8910
3839.00,0.9101
3838.00,0.9314
3837.00,0.9542
3836.00,0.9772
3835.00,0.9997
3834.00,1.0221
3833.00,1.0449
3832.00,1.0683
3831.00,1.0920
3830.00,1.1154
3829.00,1.1384
3828.00,1.1613
3827.00,1.1846
3826.00,1.2081
3825.00,1.2310
3824.00,1.2525
3823.00,1.2733
3822.00,1.2958
3821.00,1.3211
3820.00,1.3480
3819.00,1.3733
3818.00,1.3954
3817.00,1.4164
3816.00,1.4386
3815.00,1.4618
3814.00,1.4837
3813.00,1.5034
3812.00,1.5215
3811.00,1.5387
3810.00,1.5544
3809.00,1.5684
3808.00,1.5822
3807.00,1.5975
3806.00,1.6143
3805.00,1.6305
3804.00,1.6444
3803.00,1.6567
3802.00,1.6694
3801.00,1.6829
3800.00,1.6959
3799.00,1.7067
3798.00,1.7160
3797.00,1.7253
3796.00,1.7344
3795.00,1.7423
3794.00,1.7490
3793.00,1.7555
3792.00,1.7624
3791.00,1.7692
3790.00,1.7754
3789.00,1.7804
3788.00,1.7847
3787.00,1.7887
3786.00,1.7924
3785.00,1.7960
3784.00,1.7989
3783.00,1.8013
3782.00,1.8031
3781.00,1.8046
3780.00,1.8061
3779.00,1.8073
3778.00,1.8080
3777.00,1.8079
3776.00,1.8071
3775.00,1.8062
3774.00,1.8053
3773.00,1.8039
3772.00,1.8016
3771.00,1.7986
3770.00,1.7953
3769.00,1.7919
3768.00,1.7880
3767.00,1.7836
3766.00,1.7786
3765.00,1.7732
3764.00,1.7670
3763.00,1.7600
3762.00,1.7526
3761.00,1.7450
3760.00,1.7370
3759.00,1.7283
3758.00,1.7188
3757.00,1.7088
3756.00,1.6985
3755.00,1.6881
3754.00,1.6774
3753.00,1.6660
3752.00,1.6537
3751.00,1.6403
3750.00,1.6257
3749.00,1.6104
3748.00,1.5951
3747.00,1.5799
3746.00,1.5641
3745.00,1.5463
3744.00,1.5264
3743.00,1.5056
3742.00,1.4853
3741.00,1.4651
3740.00,1.4447
3739.00,1.4229
3738.00,1.3988
3737.00,1.3724
3736.00,1.3453
3735.00,1.3183
3734.00,1.2914
3733.00,1.2637
3732.00,1.2348
3731.00,1.2058
3730.00,1.1774
3729.00,1.1495
3728.00,1.1216
3727.00,1.0937
3726.00,1.0660
3725.00,1.0388
3724.00,1.0124
3723.00,0.9871
3722.00,0.9631
3721.00,0.9403
3720.00,0.9188
3719.00,0.8991
3718.00,0.8817
3717.00,0.8669
3716.00,0.8547
3715.00,0.8451
3714.00,0.8385
3713.00,0.8355
3712.00,0.8360
3711.00,0.8393
3710.00,0.8445
3709.00,0.8511
3708.00,0.8597
3707.00,0.8708
3706.00,0.8846
3705.00,0.9003
3704.00,0.9177
3703.00,0.9371
3702.00,0.9586
3701.00,0.9819
3700.00,1.0061
3699.00,1.0305
3698.00,1.0552
3697.00,1.0806
3696.00,1.1068
3695.00,1.1329
3694.00,1.1584
3693.00,1.1838
3692.00,1.2097
3691.00,1.2363
3690.00,1.2642
3689.00,1.2938
3688.00,1.3248
3687.00,1.3559
3686.00,1.3851
3685.00,1.4120
3684.00,1.4368
3683.00,1.4597
3682.00,1.4813
3681.00,1.5021
3680.00,1.5230
3679.00,1.5438
3678.00,1.5640
3677.00,1.5838
3676.00,1.6049
3675.00,1.6281
3674.00,1.6515
3673.00,1.6720
3672.00,1.6893
3671.00,1.7060
3670.00,1.7231
3669.00,1.7392
3668.00,1.7535
3667.00,1.7658
3666.00,1.7775
3665.00,1.7891
3664.00,1.8000
3663.00,1.8099
3662.00,1.8192
3661.00,1.8284
3660.00,1.8373
3659.00,1.8456
3658.00,1.8535
3657.00,1.8614
3656.00,1.8698
3655.00,1.8780
3654.00,1.8853
3653.00,1.8914
3652.00,1.8968
3651.00,1.9021
3650.00,1.9076
3649.00,1.9134
3648.00,1.9190
3647.00,1.9236
3646.00,1.9271
3645.00,1.9300
3644.00,1.9323
3643.00,1.9337
3642.00,1.9342
3641.00,1.9343
3640.00,1.9344
3639.00,1.9346
3638.00,1.9350
3637.00,1.9354
3636.00,1.9355
3635.00,1.9352
3634.00,1.9349
3633.00,1.9349
3632.00,1.9348
3631.00,1.9342
3630.00,1.9332
3629.00,1.9323
3628.00,1.9313
3627.00,1.9297
3626.00,1.9266
3625.00,1.9223
3624.00,1.9172
3623.00,1.9111
3622.00,1.9043
3621.00,1.8977
3620.00,1.8919
3619.00,1.8864
3618.00,1.8805
3617.00,1.8737
3616.00,1.8659
3615.00,1.8573
3614.00,1.8482
3613.00,1.8386
3612.00,1.8286
3611.00,1.8183
3610.00,1.8080
3609.00,1.7979
3608.00,1.7878
3607.00,1.7769
3606.00,1.7650
3605.00,1.7520
3604.00,1.7384
3603.00,1.7242
3602.00,1.7094
3601.00,1.6941
3600.00,1.6782
3599.00,1.6619
3598.00,1.6450
3597.00,1.6277
3596.00,1.6098
3595.00,1.5914
3594.00,1.5726
3593.00,1.5536
3592.00,1.5343
3591.00,1.5148
3590.00,1.4950
3589.00,1.4747
3588.00,1.4539
3587.00,1.4324
3586.00,1.4106
3585.00,1.3886
3584.00,1.3667
3583.00,1.3453
3582.00,1.3243
3581.00,1.3036
3580.00,1.2833
3579.00,1.2642
3578.00,1.2465
3577.00,1.2302
3576.00,1.2150
3575.00,1.2011
3574.00,1.1887
3573.00,1.1778
3572.00,1.1687
3571.00,1.1615
3570.00,1.1562
3569.00,1.1531
3568.00,1.1519
3567.00,1.1526
3566.00,1.1547
3565.00,1.1577
3564.00,1.1616
3563.00,1.1671
3562.00,1.1743
3561.00,1.1831
3560.00,1.1932
3559.00,1.2048
3558.00,1.2176
3557.00,1.2314
3556.00,1.2460
3555.00,1.2613
3554.00,1.2775
3553.00,1.2944
3552.00,1.3119
3551.00,1.3297
3550.00,1.3473
3549.00,1.3647
3548.00,1.3825
3547.00,1.4008
3546.00,1.4197
3545.00,1.4386
3544.00,1.4574
3543.00,1.4756
3542.00,1.4931
3541.00,1.5100
3540.00,1.5266
3539.00,1.5431
3538.00,1.5596
3537.00,1.5762
3536.00,1.5929
3535.00,1.6094
3534.00,1.6254
3533.00,1.6409
3532.00,1.6558
3531.00,1.6705
3530.00,1.6851
3529.00,1.6999
3528.00,1.7146
3527.00,1.7290
3526.00,1.7427
3525.00,1.7560
3524.00,1.7690
3523.00,1.7819
3522.00,1.7944
3521.00,1.8065
3520.00,1.8182
3519.00,1.8296
3518.00,1.8405
3517.00,1.8511
3516.00,1.8614
3515.00,1.8715
3514.00,1.8812
3513.00,1.8904
3512.00,1.8988
3511.00,1.9067
3510.00,1.9142
3509.00,1.9217
3508.00,1.9292
3507.00,1.9364
3506.00,1.9432
3505.00,1.9494
3504.00,1.9548
3503.00,1.9594
3502.00,1.9631
3501.00,1.9664
3500.00,1.9696
3499.00,1.9729
3498.00,1.9762
3497.00,1.9791
3496.00,1.9816
3495.00,1.9833
3494.00,1.9841
3493.00,1.9842
3492.00,1.9839
3491.00,1.9837
3490.00,1.9835
3489.00,1.9832
3488.00,1.9824
3487.00,1.9808
3486.00,1.9786
3485.00,1.9760
3484.00,1.9730
3483.00,1.9698
3482.00,1.9665
3481.00,1.9630
3480.00,1.9591
3479.00,1.9545
3478.00,1.9489
3477.00,1.9427
3476.00,1.9360
3475.00,1.9292
3474.00,1.9220
3473.00,1.9144
3472.00,1.9061
3471.00,1.8974
3470.00,1.8885
3469.00,1.8795
3468.00,1.8701
3467.00,1.8598
3466.00,1.8483
3465.00,1.8358
3464.00,1.8225
3463.00,1.8088
3462.00,1.7949
3461.00,1.7808
3460.00,1.7662
3459.00,1.7508
3458.00,1.7346
3457.00,1.7176
3456.00,1.6998
3455.00,1.6811
3454.00,1.6617
3453.00,1.6416
3452.00,1.6211
3451.00,1.6001
3450.00,1.5783
3449.00,1.5556
3448.00,1.5320
3447.00,1.5077
3446.00,1.4827
3445.00,1.4572
3444.00,1.4313
3443.00,1.4052
3442.00,1.3790
3441.00,1.3527
3440.00,1.3264
3439.00,1.3003
3438.00,1.2746
3437.00,1.2496
3436.00,1.2253
3435.00,1.2018
3434.00,1.1794
3433.00,1.1583
3432.00,1.1386
3431.00,1.1206
3430.00,1.1045
3429.00,1.0902
3428.00,1.0780
3427.00,1.0680
3426.00,1.0602
3425.00,1.0548
3424.00,1.0519
3423.00,1.0514
3422.00,1.0534
3421.00,1.0576
3420.00,1.0640
3419.00,1.0725
3418.00,1.0831
3417.00,1.0956
3416.00,1.1098
3415.00,1.1257
3414.00,1.1431
3413.00,1.1617
3412.00,1.1814
3411.00,1.2020
3410.00,1.2234
3409.00,1.2455
3408.00,1.2681
3407.00,1.2912
3406.00,1.3146
3405.00,1.3381
3404.00,1.3617
3403.00,1.3853
3402.00,1.4088
3401.00,1.4320
3400.00,1.4549
3399.00,1.4776
3398.00,1.5001
3397.00,1.5226
3396.00,1.5450
3395.00,1.5671
3394.00,1.5889
3393.00,1.6104
3392.00,1.6315
3391.00,1.6523
3390.00,1.6727
3389.00,1.6923
3388.00,1.7111
3387.00,1.7290
3386.00,1.7463
3385.00,1.7634
3384.00,1.7803
3383.00,1.7969
3382.00,1.8131
3381.00,1.8287
3380.00,1.8435
3379.00,1.8576
3378.00,1.8711
3377.00,1.8840
3376.00,1.8963
3375.00,1.9081
3374.00,1.9192
3373.00,1.9299
3372.00,1.9401
3371.00,1.9498
3370.00,1.9587
3369.00,1.9671
3368.00,1.9750
3367.00,1.9826
3366.00,1.9897
3365.00,1.9964
3364.00,2.0027
3363.00,2.0085
3362.00,2.0140
3361.00,2.0192
3360.00,2.0239
3359.00,2.0280
3358.00,2.0312
3357.00,2.0337
3356.00,2.0356
3355.00,2.0371
3354.00,2.0384
3353.00,2.0399
3352.00,2.0414
3351.00,2.0424
3350.00,2.0422
3349.00,2.0411
3348.00,2.0396
3347.00,2.0381
3346.00,2.0366
3345.00,2.0346
3344.00,2.0320
3343.00,2.0290
3342.00,2.0260
3341.00,2.0230
3340.00,2.0194
3339.00,2.0149
3338.00,2.0094
3337.00,2.0030
3336.00,1.9960
3335.00,1.9886
3334.00,1.9809
3333.00,1.9731
3332.00,1.9652
3331.00,1.9570
3330.00,1.9484
3329.00,1.9395
3328.00,1.9300
3327.00,1.9200
3326.00,1.9094
3325.00,1.8982
3324.00,1.8861
3323.00,1.8731
3322.00,1.8594
3321.00,1.8452
3320.00,1.8306
3319.00,1.8155
3318.00,1.7996
3317.00,1.7827
3316.00,1.7648
3315.00,1.7461
3314.00,1.7267
3313.00,1.7065
3312.00,1.6856
3311.00,1.6640
3310.00,1.6415
3309.00,1.6183
3308.00,1.5943
3307.00,1.5698
3306.00,1.5448
3305.00,1.5194
3304.00,1.4934
3303.00,1.4670
3302.00,1.4402
3301.00,1.4132
3300.00,1.3862
3299.00,1.3593
3298.00,1.3327
3297.00,1.3066
3296.00,1.2812
3295.00,1.2567
3294.00,1.2333
3293.00,1.2111
3292.00,1.1903
3291.00,1.1709
3290.00,1.1533
3289.00,1.1374
3288.00,1.1235
3287.00,1.1118
3286.00,1.1023
3285.00,1.0953
3284.00,1.0907
3283.00,1.0884
3282.00,1.0886
3281.00,1.0912
3280.00,1.0961
3279.00,1.1034
3278.00,1.1129
3277.00,1.1245
3276.00,1.1380
3275.00,1.1533
3274.00,1.1701
3273.00,1.1883
3272.00,1.2078
3271.00,1.2285
3270.00,1.2501
3269.00,1.2727
3268.00,1.2960
3267.00,1.3199
3266.00,1.3442
3265.00,1.3689
3264.00,1.3938
3263.00,1.4189
3262.00,1.4442
3261.00,1.4696
3260.00,1.4952
3259.00,1.5205
3258.00,1.5455
3257.00,1.5699
3256.00,1.5938
3255.00,1.6173
3254.00,1.6406
3253.00,1.6637
3252.00,1.6866
3251.00,1.7088
3250.00,1.7302
3249.00,1.7508
3248.00,1.7708
3247.00,1.7904
3246.00,1.8095
3245.00,1.8282
3244.00,1.8464
3243.00,1.8639
3242.00,1.8804
3241.00,1.8959
3240.00,1.9105
3239.00,1.9243
3238.00,1.9376
3237.00,1.9508
3236.00,1.9636
3235.00,1.9758
3234.00,1.9874
3233.00,1.9983
3232.00,2.0087
3231.00,2.0187
3230.00,2.0283
3229.00,2.0374
3228.00,2.0459
3227.00,2.0536
3226.00,2.0608
3225.00,2.0677
3224.00,2.0743
3223.00,2.0804
3222.00,2.0859
3221.00,2.0906
3220.00,2.0945
3219.00,2.0977
3218.00,2.1006
3217.00,2.1036
3216.00,2.1066
3215.00,2.1092
3214.00,2.1112
3213.00,2.1124
3212.00,2.1133
3211.00,2.1140
3210.00,2.1149
3209.00,2.1158
3208.00,2.1165
3207.00,2.1162
3206.00,2.1150
3205.00,2.1130
3204.00,2.1110
3203.00,2.1091
3202.00,2.1075
3201.00,2.1056
3200.00,2.1029
3199.00,2.0989
3198.00,2.0936
3197.00,2.0876
3196.00,2.0813
3195.00,2.0747
3194.00,2.0676
3193.00,2.0600
3192.00,2.0515
3191.00,2.0423
3190.00,2.0326
3189.00,2.0223
3188.00,2.0113
3187.00,1.9996
3186.00,1.9875
3185.00,1.9752
3184.00,1.9625
3183.00,1.9488
3182.00,1.9338
3181.00,1.9180
3180.00,1.9019
3179.00,1.8854
3178.00,1.8686
3177.00,1.8511
3176.00,1.8332
3175.00,1.8148
3174.00,1.7962
3173.00,1.7777
3172.00,1.7604
3171.00,1.7452
3170.00,1.7337
3169.00,1.7267
3168.00,1.7249
3167.00,1.7282
3166.00,1.7351
3165.00,1.7429
3164.00,1.7475
3163.00,1.7447
3162.00,1.7320
3161.00,1.7093
3160.00,1.6787
3159.00,1.6427
3158.00,1.6041
3157.00,1.5645
3156.00,1.5255
3155.00,1.4876
3154.00,1.4515
3153.00,1.4175
3152.00,1.3857
3151.00,1.3562
3150.00,1.3290
3149.00,1.3041
3148.00,1.2817
3147.00,1.2619
3146.00,1.2448
3145.00,1.2303
3144.00,1.2185
3143.00,1.2095
3142.00,1.2032
3141.00,1.1997
3140.00,1.1991
3139.00,1.2013
3138.00,1.2063
3137.00,1.2140
3136.00,1.2241
3135.00,1.2365
3134.00,1.2510
3133.00,1.2673
3132.00,1.2853
3131.00,1.3046
3130.00,1.3252
3129.00,1.3469
3128.00,1.3697
3127.00,1.3932
3126.00,1.4174
3125.00,1.4420
3124.00,1.4670
3123.00,1.4924
3122.00,1.5180
3121.00,1.5438
3120.00,1.5694
3119.00,1.5950
3118.00,1.6205
3117.00,1.6460
3116.00,1.6712
3115.00,1.6960
3114.00,1.7204
3113.00,1.7440
3112.00,1.7666
3111.00,1.7883
3110.00,1.8094
3109.00,1.8301
3108.00,1.8504
3107.00,1.8700
3106.00,1.8892
3105.00,1.9079
3104.00,1.9262
3103.00,1.9438
3102.00,1.9606
3101.00,1.9766
3100.00,1.9921
3099.00,2.0069
3098.00,2.0211
3097.00,2.0348
3096.00,2.0480
3095.00,2.0606
3094.00,2.0722
3093.00,2.0829
3092.00,2.0932
3091.00,2.1032
3090.00,2.1132
3089.00,2.1227
3088.00,2.1317
3087.00,2.1401
3086.00,2.1480
3085.00,2.1556
3084.00,2.1626
3083.00,2.1688
3082.00,2.1744
3081.00,2.1796
3080.00,2.1846
3079.00,2.1891
3078.00,2.1929
3077.00,2.1961
3076.00,2.1990
3075.00,2.2016
3074.00,2.2037
3073.00,2.2054
3072.00,2.2066
3071.00,2.2074
3070.00,2.2078
3069.00,2.2078
3068.00,2.2075
3067.00,2.2067
3066.00,2.2059
3065.00,2.2050
3064.00,2.2036
3063.00,2.2013
3062.00,2.1982
3061.00,2.1948
3060.00,2.1912
3059.00,2.1871
3058.00,2.1825
3057.00,2.1776
3056.00,2.1724
3055.00,2.1667
3054.00,2.1604
3053.00,2.1534
3052.00,2.1458
3051.00,2.1376
3050.00,2.1287
3049.00,2.1192
3048.00,2.1097
3047.00,2.1003
3046.00,2.0909
3045.00,2.0809
3044.00,2.0697
3043.00,2.0571
3042.00,2.0437
3041.00,2.0299
3040.00,2.0158
3039.00,2.0014
3038.00,1.9867
3037.00,1.9715
3036.00,1.9556
3035.00,1.9391
3034.00,1.9219
3033.00,1.9045
3032.00,1.8870
3031.00,1.8694
3030.00,1.8517
3029.00,1.8341
3028.00,1.8165
3027.00,1.7991
3026.00,1.7818
3025.00,1.7651
3024.00,1.7491
3023.00,1.7341
3022.00,1.7203
3021.00,1.7078
3020.00,1.6969
3019.00,1.6877
3018.00,1.6804
3017.00,1.6751
3016.00,1.6719
3015.00,1.6711
3014.00,1.6725
3013.00,1.6762
3012.00,1.6820
3011.00,1.6896
3010.00,1.6985
3009.00,1.7086
3008.00,1.7193
3007.00,1.7301
3006.00,1.7405
3005.00,1.7498
3004.00,1.7576
3003.00,1.7634
3002.00,1.7670
3001.00,1.7682
3000.00,1.7668
2999.00,1.7629
2998.00,1.7570
2997.00,1.7498
2996.00,1.7421
2995.00,1.7344
2994.00,1.7276
2993.00,1.7220
2992.00,1.7182
2991.00,1.7166
2990.00,1.7175
2989.00,1.7212
2988.00,1.7275
2987.00,1.7366
2986.00,1.7483
2985.00,1.7625
2984.00,1.7791
2983.00,1.7979
2982.00,1.8187
2981.00,1.8416
2980.00,1.8665
2979.00,1.8927
2978.00,1.9196
2977.00,1.9464
2976.00,1.9727
2975.00,1.9987
2974.00,2.0248
2973.00,2.0512
2972.00,2.0775
2971.00,2.1030
2970.00,2.1269
2969.00,2.1496
2968.00,2.1715
2967.00,2.1928
2966.00,2.2132
2965.00,2.2324
2964.00,2.2503
2963.00,2.2668
2962.00,2.2817
2961.00,2.2957
2960.00,2.3097
2959.00,2.3243
2958.00,2.3397
2957.00,2.3553
2956.00,2.3709
2955.00,2.3864
2954.00,2.4026
2953.00,2.4197
2952.00,2.4377
2951.00,2.4556
2950.00,2.4730
2949.00,2.4899
2948.00,2.5062
2947.00,2.5207
2946.00,2.5318
2945.00,2.5382
2944.00,2.5389
2943.00,2.5336
2942.00,2.5225
2941.00,2.5069
2940.00,2.4889
2939.00,2.4698
2938.00,2.4507
2937.00,2.4324
2936.00,2.4157
2935.00,2.4015
2934.00,2.3902
2933.00,2.3814
2932.00,2.3742
2931.00,2.3678
2930.00,2.3616
2929.00,2.3557
2928.00,2.3505
2927.00,2.3463
2926.00,2.3436
2925.00,2.3426
2924.00,2.3427
2923.00,2.3434
2922.00,2.3439
2921.00,2.3439
2920.00,2.3433
2919.00,2.3428
2918.00,2.3431
2917.00,2.3445
2916.00,2.3466
2915.00,2.3481
2914.00,2.3483
2913.00,2.3477
2912.00,2.3471
2911.00,2.3469
2910.00,2.3470
2909.00,2.3469
2908.00,2.3463
2907.00,2.3451
2906.00,2.3431
2905.00,2.3404
2904.00,2.3370
2903.00,2.3326
2902.00,2.3270
2901.00,2.3205
2900.00,2.3140
2899.00,2.3078
2898.00,2.3013
2897.00,2.2939
2896.00,2.2854
2895.00,2.2762
2894.00,2.2669
2893.00,2.2578
2892.00,2.2482
2891.00,2.2378
2890.00,2.2264
2889.00,2.2144
2888.00,2.2022
2887.00,2.1898
2886.00,2.1768
2885.00,2.1634
2884.00,2.1498
2883.00,2.1362
2882.00,2.1227
2881.00,2.1092
2880.00,2.0959
2879.00,2.0830
2878.00,2.0708
2877.00,2.0598
2876.00,2.0503
2875.00,2.0428
2874.00,2.0374
2873.00,2.0338
2872.00,2.0312
2871.00,2.0286
2870.00,2.0253
2869.00,2.0210
2868.00,2.0155
2867.00,2.0083
2866.00,1.9990
2865.00,1.9876
2864.00,1.9740
2863.00,1.9580
2862.00,1.9392
2861.00,1.9173
2860.00,1.8922
2859.00,1.8639
2858.00,1.8325
2857.00,1.7984
2856.00,1.7619
2855.00,1.7234
2854.00,1.6836
2853.00,1.6432
2852.00,1.6030
2851.00,1.5635
2850.00,1.5254
2849.00,1.4893
2848.00,1.4557
2847.00,1.4251
2846.00,1.3979
2845.00,1.3744
2844.00,1.3551
2843.00,1.3398
2842.00,1.3287
2841.00,1.3217
2840.00,1.3187
2839.00,1.3195
2838.00,1.3240
2837.00,1.3319
2836.00,1.3429
2835.00,1.3566
2834.00,1.3729
2833.00,1.3913
2832.00,1.4117
2831.00,1.4339
2830.00,1.4575
2829.00,1.4825
2828.00,1.5085
2827.00,1.5355
2826.00,1.5633
2825.00,1.5918
2824.00,1.6209
2823.00,1.6505
2822.00,1.6803
2821.00,1.7101
2820.00,1.7397
2819.00,1.7691
2818.00,1.7981
2817.00,1.8267
2816.00,1.8547
2815.00,1.8820
2814.00,1.9088
2813.00,1.9352
2812.00,1.9612
2811.00,1.9861
2810.00,2.0096
2809.00,2.0320
2808.00,2.0535
2807.00,2.0744
2806.00,2.0947
2805.00,2.1140
2804.00,2.1323
2803.00,2.1497
2802.00,2.1662
2801.00,2.1820
2800.00,2.1971
2799.00,2.2115
2798.00,2.2252
2797.00,2.2382
2796.00,2.2505
2795.00,2.2621
2794.00,2.2727
2793.00,2.2823
2792.00,2.2912
2791.00,2.3003
2790.00,2.3096
2789.00,2.3186
2788.00,2.3264
2787.00,2.3325
2786.00,2.3375
2785.00,2.3424
2784.00,2.3482
2783.00,2.3546
2782.00,2.3610
2781.00,2.3663
2780.00,2.3698
2779.00,2.3716
2778.00,2.3725
2777.00,2.3739
2776.00,2.3759
2775.00,2.3779
2774.00,2.3787
2773.00,2.3781
2772.00,2.3770
2771.00,2.3764
2770.00,2.3763
2769.00,2.3759
2768.00,2.3748
2767.00,2.3726
2766.00,2.3692
2765.00,2.3649
2764.00,2.3598
2763.00,2.3546
2762.00,2.3494
2761.00,2.3444
2760.00,2.3396
2759.00,2.3348
2758.00,2.3291
2757.00,2.3219
2756.00,2.3131
2755.00,2.3032
2754.00,2.2929
2753.00,2.2826
2752.00,2.2726
2751.00,2.2627
2750.00,2.2523
2749.00,2.2409
2748.00,2.2286
2747.00,2.2157
2746.00,2.2020
2745.00,2.1874
2744.00,2.1716
2743.00,2.1546
2742.00,2.1367
2741.00,2.1180
2740.00,2.0989
2739.00,2.0795
2738.00,2.0595
2737.00,2.0384
2736.00,2.0158
2735.00,1.9919
2734.00,1.9669
2733.00,1.9407
2732.00,1.9133
2731.00,1.8844
2730.00,1.8540
2729.00,1.8222
2728.00,1.7888
2727.00,1.7536
2726.00,1.7169
2725.00,1.6787
2724.00,1.6393
2723.00,1.5988
2722.00,1.5573
2721.00,1.5151
2720.00,1.4727
2719.00,1.4305
2718.00,1.3890
2717.00,1.3486
2716.00,1.3100
2715.00,1.2735
2714.00,1.2395
2713.00,1.2086
2712.00,1.1813
2711.00,1.1579
2710.00,1.1389
2709.00,1.1247
2708.00,1.1154
2707.00,1.1112
2706.00,1.1121
2705.00,1.1181
2704.00,1.1290
2703.00,1.1443
2702.00,1.1638
2701.00,1.1868
2700.00,1.2128
2699.00,1.2416
2698.00,1.2725
2697.00,1.3052
2696.00,1.3395
2695.00,1.3749
2694.00,1.4113
2693.00,1.4485
2692.00,1.4864
2691.00,1.5245
2690.00,1.5627
2689.00,1.6009
2688.00,1.6389
2687.00,1.6768
2686.00,1.7142
2685.00,1.7510
2684.00,1.7870
2683.00,1.8221
2682.00,1.8562
2681.00,1.8892
2680.00,1.9212
2679.00,1.9518
2678.00,1.9810
2677.00,2.0085
2676.00,2.0345
2675.00,2.0596
2674.00,2.0837
2673.00,2.1068
2672.00,2.1285
2671.00,2.1489
2670.00,2.1682
2669.00,2.1866
2668.00,2.2043
2667.00,2.2214
2666.00,2.2382
2665.00,2.2546
2664.00,2.2705
2663.00,2.2855
2662.00,2.2998
2661.00,2.3135
2660.00,2.3270
2659.00,2.3400
2658.00,2.3520
2657.00,2.3626
2656.00,2.3720
2655.00,2.3809
2654.00,2.3899
2653.00,2.3990
2652.00,2.4078
2651.00,2.4158
2650.00,2.4232
2649.00,2.4301
2648.00,2.4366
2647.00,2.4429
2646.00,2.4490
2645.00,2.4545
2644.00,2.4586
2643.00,2.4615
2642.00,2.4635
2641.00,2.4654
2640.00,2.4672
2639.00,2.4688
2638.00,2.4704
2637.00,2.4722
2636.00,2.4746
2635.00,2.4771
2634.00,2.4790
2633.00,2.4795
2632.00,2.4783
2631.00,2.4764
2630.00,2.4750
2629.00,2.4744
2628.00,2.4736
2627.00,2.4717
2626.00,2.4685
2625.00,2.4647
2624.00,2.4611
2623.00,2.4575
2622.00,2.4538
2621.00,2.4494
2620.00,2.4443
2619.00,2.4382
2618.00,2.4308
2617.00,2.4221
2616.00,2.4124
2615.00,2.4025
2614.00,2.3928
2613.00,2.3830
2612.00,2.3724
2611.00,2.3605
2610.00,2.3478
2609.00,2.3349
2608.00,2.3216
2607.00,2.3078
2606.00,2.2936
2605.00,2.2789
2604.00,2.2635
2603.00,2.2470
2602.00,2.2291
2601.00,2.2100
2600.00,2.1898
2599.00,2.1685
2598.00,2.1462
2597.00,2.1234
2596.00,2.0998
2595.00,2.0750
2594.00,2.0483
2593.00,2.0198
2592.00,1.9898
2591.00,1.9584
2590.00,1.9256
2589.00,1.8911
2588.00,1.8551
2587.00,1.8175
2586.00,1.7783
2585.00,1.7374
2584.00,1.6948
2583.00,1.6509
2582.00,1.6059
2581.00,1.5602
2580.00,1.5143
2579.00,1.4689
2578.00,1.4244
2577.00,1.3814
2576.00,1.3406
2575.00,1.3026
2574.00,1.2677
2573.00,1.2366
2572.00,1.2097
2571.00,1.1872
2570.00,1.1695
2569.00,1.1571
2568.00,1.1500
2567.00,1.1484
2566.00,1.1523
2565.00,1.1615
2564.00,1.1757
2563.00,1.1945
2562.00,1.2175
2561.00,1.2440
2560.00,1.2737
2559.00,1.3059
2558.00,1.3402
2557.00,1.3762
2556.00,1.4137
2555.00,1.4523
2554.00,1.4916
2553.00,1.5314
2552.00,1.5716
2551.00,1.6120
2550.00,1.6525
2549.00,1.6929
2548.00,1.7329
2547.00,1.7723
2546.00,1.8109
2545.00,1.8486
2544.00,1.8854
2543.00,1.9215
2542.00,1.9567
2541.00,1.9907
2540.00,2.0234
2539.00,2.0543
2538.00,2.0836
2537.00,2.1114
2536.00,2.1382
2535.00,2.1640
2534.00,2.1891
2533.00,2.2130
2532.00,2.2356
2531.00,2.2568
2530.00,2.2768
2529.00,2.2957
2528.00,2.3136
2527.00,2.3304
2526.00,2.3463
2525.00,2.3620
2524.00,2.3777
2523.00,2.3933
2522.00,2.4082
2521.00,2.4223
2520.00,2.4350
2519.00,2.4461
2518.00,2.4556
2517.00,2.4644
2516.00,2.4738
2515.00,2.4842
2514.00,2.4950
2513.00,2.5055
2512.00,2.5151
2511.00,2.5233
2510.00,2.5295
2509.00,2.5335
2508.00,2.5362
2507.00,2.5390
2506.00,2.5433
2505.00,2.5490
2504.00,2.5553
2503.00,2.5610
2502.00,2.5653
2501.00,2.5679
2500.00,2.5693
2499.00,2.5701
2498.00,2.5710
2497.00,2.5726
2496.00,2.5753
2495.00,2.5783
2494.00,2.5804
2493.00,2.5806
2492.00,2.5793
2491.00,2.5771
2490.00,2.5747
2489.00,2.5718
2488.00,2.5681
2487.00,2.5635
2486.00,2.5584
2485.00,2.5532
2484.00,2.5483
2483.00,2.5437
2482.00,2.5391
2481.00,2.5343
2480.00,2.5286
2479.00,2.5219
2478.00,2.5143
2477.00,2.5062
2476.00,2.4981
2475.00,2.4901
2474.00,2.4818
2473.00,2.4725
2472.00,2.4619
2471.00,2.4504
2470.00,2.4382
2469.00,2.4255
2468.00,2.4120
2467.00,2.3976
2466.00,2.3823
2465.00,2.3662
2464.00,2.3491
2463.00,2.3308
2462.00,2.3113
2461.00,2.2911
2460.00,2.2704
2459.00,2.2491
2458.00,2.2270
2457.00,2.2040
2456.00,2.1799
2455.00,2.1546
2454.00,2.1279
2453.00,2.0995
2452.00,2.0697
2451.00,2.0383
2450.00,2.0055
2449.00,1.9713
2448.00,1.9358
2447.00,1.8987
2446.00,1.8601
2445.00,1.8201
2444.00,1.7788
2443.00,1.7366
2442.00,1.6937
2441.00,1.6505
2440.00,1.6077
2439.00,1.5657
2438.00,1.5250
2437.00,1.4863
2436.00,1.4502
2435.00,1.4173
2434.00,1.3881
2433.00,1.3630
2432.00,1.3424
2431.00,1.3269
2430.00,1.3167
2429.00,1.3121
2428.00,1.3131
2427.00,1.3195
2426.00,1.3313
2425.00,1.3480
2424.00,1.3693
2423.00,1.3945
2422.00,1.4229
2421.00,1.4540
2420.00,1.4872
2419.00,1.5220
2418.00,1.5580
2417.00,1.5946
2416.00,1.6314
2415.00,1.6680
2414.00,1.7041
2413.00,1.7396
2412.00,1.7744
2411.00,1.8083
2410.00,1.8414
2409.00,1.8736
2408.00,1.9048
2407.00,1.9353
2406.00,1.9654
2405.00,1.9952
2404.00,2.0246
2403.00,2.0533
2402.00,2.0814
2401.00,2.1088
2400.00,2.1360
2399.00,2.1632
2398.00,2.1904
2397.00,2.2172
2396.00,2.2434
2395.00,2.2687
2394.00,2.2931
2393.00,2.3164
2392.00,2.3385
2391.00,2.3592
2390.00,2.3787
2389.00,2.3978
2388.00,2.4172
2387.00,2.4369
2386.00,2.4565
2385.00,2.4760
2384.00,2.4955
2383.00,2.5149
2382.00,2.5341
2381.00,2.5538
2380.00,2.5746
2379.00,2.5961
2378.00,2.6157
2377.00,2.6305
2376.00,2.6407
2375.00,2.6483
2374.00,2.6548
2373.00,2.6595
2372.00,2.6610
2371.00,2.6608
2370.00,2.6622
2369.00,2.6675
2368.00,2.6762
2367.00,2.6856
2366.00,2.6931
2365.00,2.6982
2364.00,2.7026
2363.00,2.7068
2362.00,2.7097
2361.00,2.7112
2360.00,2.7114
2359.00,2.7120
2358.00,2.7137
2357.00,2.7152
2356.00,2.7161
2355.00,2.7153
2354.00,2.7133
2353.00,2.7113
2352.00,2.7105
2351.00,2.7099
2350.00,2.7059
2349.00,2.6993
2348.00,2.6941
2347.00,2.6931
2346.00,2.6958
2345.00,2.6961
2344.00,2.6895
2343.00,2.6752
2342.00,2.6595
2341.00,2.6473
2340.00,2.6377
2339.00,2.6283
2338.00,2.6167
2337.00,2.6040
2336.00,2.5914
2335.00,2.5802
2334.00,2.5697
2333.00,2.5609
2332.00,2.5530
2331.00,2.5461
2330.00,2.5362
2329.00,2.5229
2328.00,2.5059
2327.00,2.4874
2326.00,2.4687
2325.00,2.4490
2324.00,2.4290
2323.00,2.4080
2322.00,2.3863
2321.00,2.3631
2320.00,2.3370
2319.00,2.3077
2318.00,2.2743
2317.00,2.2382
2316.00,2.1998
2315.00,2.1616
2314.00,2.1233
2313.00,2.0849
2312.00,2.0440
2311.00,2.0006
2310.00,1.9547
2309.00,1.9088
2308.00,1.8648
2307.00,1.8256
2306.00,1.7935
2305.00,1.7713
2304.00,1.7612
2303.00,1.7654
2302.00,1.7846
2301.00,1.8194
2300.00,1.8683
2299.00,1.9294
2298.00,1.9992
2297.00,2.0741
2296.00,2.1485
2295.00,2.2162
2294.00,2.2692
2293.00,2.2996
2292.00,2.3013
2291.00,2.2736
2290.00,2.2213
2289.00,2.1534
2288.00,2.0792
2287.00,2.0064
2286.00,1.9404
2285.00,1.8844
2284.00,1.8407
2283.00,1.8103
2282.00,1.7936
2281.00,1.7908
2280.00,1.8011
2279.00,1.8234
2278.00,1.8561
2277.00,1.8973
2276.00,1.9450
2275.00,1.9973
2274.00,2.0525
2273.00,2.1090
2272.00,2.1659
2271.00,2.2225
2270.00,2.2789
2269.00,2.3347
2268.00,2.3900
2267.00,2.4448
2266.00,2.4991
2265.00,2.5523
2264.00,2.6043
2263.00,2.6553
2262.00,2.7069
2261.00,2.7613
2260.00,2.8214
2259.00,2.8918
2258.00,2.9783
2257.00,3.0880
2256.00,3.2283
2255.00,3.4032
2254.00,3.5949
2253.00,3.7224
2252.00,3.6768
2251.00,3.4980
2250.00,3.2875
2249.00,3.0839
2248.00,2.8957
2247.00,2.7251
2246.00,2.5733
2245.00,2.4418
2244.00,2.3328
2243.00,2.2486
2242.00,2.1906
2241.00,2.1582
2240.00,2.1487
2239.00,2.1581
2238.00,2.1817
2237.00,2.2152
2236.00,2.2550
2235.00,2.2978
2234.00,2.3412
2233.00,2.3834
2232.00,2.4236
2231.00,2.4618
2230.00,2.4975
2229.00,2.5295
2228.00,2.5569
2227.00,2.5799
2226.00,2.5997
2225.00,2.6175
2224.00,2.6342
2223.00,2.6498
2222.00,2.6644
2221.00,2.6785
2220.00,2.6932
2219.00,2.7084
2218.00,2.7224
2217.00,2.7329
2216.00,2.7393
2215.00,2.7441
2214.00,2.7497
2213.00,2.7567
2212.00,2.7639
2211.00,2.7706
2210.00,2.7765
2209.00,2.7814
2208.00,2.7855
2207.00,2.7887
2206.00,2.7913
2205.00,2.7925
2204.00,2.7925
2203.00,2.7921
2202.00,2.7920
2201.00,2.7918
2200.00,2.7903
2199.00,2.7873
2198.00,2.7840
2197.00,2.7812
2196.00,2.7795
2195.00,2.7785
2194.00,2.7772
2193.00,2.7741
2192.00,2.7685
2191.00,2.7608
2190.00,2.7518
2189.00,2.7416
2188.00,2.7305
2187.00,2.7200
2186.00,2.7113
2185.00,2.7042
2184.00,2.6970
2183.00,2.6886
2182.00,2.6790
2181.00,2.6685
2180.00,2.6567
2179.00,2.6439
2178.00,2.6306
2177.00,2.6166
2176.00,2.6013
2175.00,2.5841
2174.00,2.5655
2173.00,2.5462
2172.00,2.5266
2171.00,2.5066
2170.00,2.4863
2169.00,2.4655
2168.00,2.4438
2167.00,2.4204
2166.00,2.3947
2165.00,2.3671
2164.00,2.3379
2163.00,2.3075
2162.00,2.2757
2161.00,2.2423
2160.00,2.2072
2159.00,2.1699
2158.00,2.1300
2157.00,2.0874
2156.00,2.0423
2155.00,1.9949
2154.00,1.9451
2153.00,1.8928
2152.00,1.8384
2151.00,1.7825
2150.00,1.7260
2149.00,1.6697
2148.00,1.6144
2147.00,1.5611
2146.00,1.5107
2145.00,1.4644
2144.00,1.4232
2143.00,1.3880
2142.00,1.3596
2141.00,1.3386
2140.00,1.3254
2139.00,1.3202
2138.00,1.3232
2137.00,1.3342
2136.00,1.3525
2135.00,1.3776
2134.00,1.4082
2133.00,1.4437
2132.00,1.4833
2131.00,1.5260
2130.00,1.5711
2129.00,1.6180
2128.00,1.6662
2127.00,1.7153
2126.00,1.7651
2125.00,1.8151
2124.00,1.8649
2123.00,1.9139
2122.00,1.9620
2121.00,2.0089
2120.00,2.0547
2119.00,2.0993
2118.00,2.1427
2117.00,2.1845
2116.00,2.2246
2115.00,2.2625
2114.00,2.2984
2113.00,2.3326
2112.00,2.3657
2111.00,2.3975
2110.00,2.4276
2109.00,2.4554
2108.00,2.4811
2107.00,2.5053
2106.00,2.5282
2105.00,2.5493
2104.00,2.5688
2103.00,2.5877
2102.00,2.6074
2101.00,2.6276
2100.00,2.6473
2099.00,2.6654
2098.00,2.6819
2097.00,2.6971
2096.00,2.7114
2095.00,2.7251
2094.00,2.7378
2093.00,2.7486
2092.00,2.7573
2091.00,2.7655
2090.00,2.7750
2089.00,2.7862
2088.00,2.7981
2087.00,2.8095
2086.00,2.8195
2085.00,2.8275
2084.00,2.8336
2083.00,2.8392
2082.00,2.8456
2081.00,2.8532
2080.00,2.8609
2079.00,2.8677
2078.00,2.8730
2077.00,2.8767
2076.00,2.8788
2075.00,2.8802
2074.00,2.8821
2073.00,2.8851
2072.00,2.8886
2071.00,2.8917
2070.00,2.8933
2069.00,2.8935
2068.00,2.8938
2067.00,2.8963
2066.00,2.9003
2065.00,2.9025
2064.00,2.9003
2063.00,2.8945
2062.00,2.8885
2061.00,2.8842
2060.00,2.8817
2059.00,2.8803
2058.00,2.8790
2057.00,2.8761
2056.00,2.8705
2055.00,2.8633
2054.00,2.8569
2053.00,2.8520
2052.00,2.8481
2051.00,2.8437
2050.00,2.8379
2049.00,2.8302
2048.00,2.8209
2047.00,2.8112
2046.00,2.8018
2045.00,2.7918
2044.00,2.7796
2043.00,2.7656
2042.00,2.7514
2041.00,2.7380
2040.00,2.7250
2039.00,2.7112
2038.00,2.6963
2037.00,2.6805
2036.00,2.6636
2035.00,2.6456
2034.00,2.6264
2033.00,2.6060
2032.00,2.5850
2031.00,2.5640
2030.00,2.5433
2029.00,2.5214
2028.00,2.4971
2027.00,2.4703
2026.00,2.4420
2025.00,2.4128
2024.00,2.3826
2023.00,2.3508
2022.00,2.3175
2021.00,2.2825
2020.00,2.2452
2019.00,2.2048
2018.00,2.1609
2017.00,2.1137
2016.00,2.0639
2015.00,2.0119
2014.00,1.9585
2013.00,1.9043
2012.00,1.8499
2011.00,1.7952
2010.00,1.7400
2009.00,1.6851
2008.00,1.6316
2007.00,1.5810
2006.00,1.5347
2005.00,1.4939
2004.00,1.4594
2003.00,1.4321
2002.00,1.4127
2001.00,1.4016
2000.00,1.3992
1999.00,1.4055
1998.00,1.4201
1997.00,1.4422
1996.00,1.4710
1995.00,1.5051
1994.00,1.5435
1993.00,1.5850
1992.00,1.6290
1991.00,1.6749
1990.00,1.7223
1989.00,1.7710
1988.00,1.8218
1987.00,1.8749
1986.00,1.9293
1985.00,1.9832
1984.00,2.0352
1983.00,2.0856
1982.00,2.1343
1981.00,2.1811
1980.00,2.2257
1979.00,2.2682
1978.00,2.3088
1977.00,2.3473
1976.00,2.3836
1975.00,2.4178
1974.00,2.4503
1973.00,2.4811
1972.00,2.5100
1971.00,2.5371
1970.00,2.5630
1969.00,2.5881
1968.00,2.6121
1967.00,2.6342
1966.00,2.6542
1965.00,2.6726
1964.00,2.6908
1963.00,2.7102
1962.00,2.7308
1961.00,2.7512
1960.00,2.7700
1959.00,2.7877
1958.00,2.8056
1957.00,2.8237
1956.00,2.8401
1955.00,2.8538
1954.00,2.8652
1953.00,2.8750
1952.00,2.8830
1951.00,2.8894
1950.00,2.8960
1949.00,2.9037
1948.00,2.9117
1947.00,2.9192
1946.00,2.9275
1945.00,2.9380
1944.00,2.9496
1943.00,2.9595
1942.00,2.9653
1941.00,2.9667
1940.00,2.9648
1939.00,2.9613
1938.00,2.9591
1937.00,2.9601
1936.00,2.9646
1935.00,2.9720
1934.00,2.9822
1933.00,2.9938
1932.00,3.0037
1931.00,3.0091
1930.00,3.0103
1929.00,3.0100
1928.00,3.0102
1927.00,3.0105
1926.00,3.0098
1925.00,3.0073
1924.00,3.0026
1923.00,2.9957
1922.00,2.9880
1921.00,2.9810
1920.00,2.9749
1919.00,2.9699
1918.00,2.9654
1917.00,2.9606
1916.00,2.9555
1915.00,2.9513
1914.00,2.9497
1913.00,2.9504
1912.00,2.9502
1911.00,2.9453
1910.00,2.9352
1909.00,2.9219
1908.00,2.9077
1907.00,2.8942
1906.00,2.8822
1905.00,2.8719
1904.00,2.8627
1903.00,2.8528
1902.00,2.8416
1901.00,2.8295
1900.00,2.8167
1899.00,2.8028
1898.00,2.7873
1897.00,2.7701
1896.00,2.7517
1895.00,2.7320
1894.00,2.7114
1893.00,2.6898
1892.00,2.6669
1891.00,2.6422
1890.00,2.6164
1889.00,2.5903
1888.00,2.5641
1887.00,2.5367
1886.00,2.5075
1885.00,2.4779
1884.00,2.4487
1883.00,2.4177
1882.00,2.3825
1881.00,2.3428
1880.00,2.3003
1879.00,2.2567
1878.00,2.2119
1877.00,2.1651
1876.00,2.1164
1875.00,2.0653
1874.00,2.0123
1873.00,1.9584
1872.00,1.9034
1871.00,1.8457
1870.00,1.7840
1869.00,1.7206
1868.00,1.6616
1867.00,1.6123
1866.00,1.5731
1865.00,1.5422
1864.00,1.5202
1863.00,1.5079
1862.00,1.5042
1861.00,1.5081
1860.00,1.5201
1859.00,1.5405
1858.00,1.5690
1857.00,1.6048
1856.00,1.6468
1855.00,1.6932
1854.00,1.7429
1853.00,1.7953
1852.00,1.8495
1851.00,1.9045
1850.00,1.9587
1849.00,2.0114
1848.00,2.0629
1847.00,2.1119
1846.00,2.1575
1845.00,2.2011
1844.00,2.2462
1843.00,2.2929
1842.00,2.3374
1841.00,2.3775
1840.00,2.4171
1839.00,2.4613
1838.00,2.5078
1837.00,2.5508
1836.00,2.5867
1835.00,2.6159
1834.00,2.6420
1833.00,2.6669
1832.00,2.6904
1831.00,2.7121
1830.00,2.7340
1829.00,2.7593
1828.00,2.7875
1827.00,2.8101
1826.00,2.8223
1825.00,2.8296
1824.00,2.8392
1823.00,2.8542
1822.00,2.8742
1821.00,2.8969
1820.00,2.9194
1819.00,2.9384
1818.00,2.9524
1817.00,2.9637
1816.00,2.9749
1815.00,2.9870
1814.00,2.9999
1813.00,3.0120
1812.00,3.0226
1811.00,3.0324
1810.00,3.0424
1809.00,3.0528
1808.00,3.0618
1807.00,3.0696
1806.00,3.0777
1805.00,3.0847
1804.00,3.0869
1803.00,3.0826
1802.00,3.0740
1801.00,3.0659
1800.00,3.0646
1799.00,3.0736
1798.00,3.0899
1797.00,3.1061
1796.00,3.1160
1795.00,3.1191
1794.00,3.1174
1793.00,3.1114
1792.00,3.1024
1791.00,3.0937
1790.00,3.0872
1789.00,3.0823
1788.00,3.0803
1787.00,3.0838
1786.00,3.0893
1785.00,3.0897
1784.00,3.0815
1783.00,3.0692
1782.00,3.0613
1781.00,3.0602
1780.00,3.0624
1779.00,3.0623
1778.00,3.0574
1777.00,3.0502
1776.00,3.0441
1775.00,3.0390
1774.00,3.0323
1773.00,3.0234
1772.00,3.0149
1771.00,3.0076
1770.00,2.9946
1769.00,2.9674
1768.00,2.9324
1767.00,2.9037
1766.00,2.8865
1765.00,2.8765
1764.00,2.8668
1763.00,2.8529
1762.00,2.8339
1761.00,2.8106
1760.00,2.7848
1759.00,2.7578
1758.00,2.7313
1757.00,2.7060
1756.00,2.6796
1755.00,2.6519
1754.00,2.6228
1753.00,2.5934
1752.00,2.5631
1751.00,2.5281
1750.00,2.4866
1749.00,2.4429
1748.00,2.4046
1747.00,2.3767
1746.00,2.3564
1745.00,2.3366
1744.00,2.3146
1743.00,2.2923
1742.00,2.2723
1741.00,2.2562
1740.00,2.2442
1739.00,2.2377
1738.00,2.2365
1737.00,2.2357
1736.00,2.2327
1735.00,2.2330
1734.00,2.2424
1733.00,2.2621
1732.00,2.2880
1731.00,2.3161
1730.00,2.3541
1729.00,2.4090
1728.00,2.4739
1727.00,2.5428
1726.00,2.6144
1725.00,2.6902
1724.00,2.7678
1723.00,2.8430
1722.00,2.9158
1721.00,2.9875
1720.00,3.0553
1719.00,3.1188
1718.00,3.1834
1717.00,3.2592
1716.00,3.3484
1715.00,3.4429
1714.00,3.5392
1713.00,3.6388
1712.00,3.7294
1711.00,3.7954
1710.00,3.8324
1709.00,3.8404
1708.00,3.8284
1707.00,3.8134
1706.00,3.7863
1705.00,3.7116
1704.00,3.5913
1703.00,3.4570
1702.00,3.3124
1701.00,3.1436
1700.00,2.9644
1699.00,2.8100
1698.00,2.6900
1697.00,2.5874
1696.00,2.4963
1695.00,2.4240
1694.00,2.3684
1693.00,2.3186
1692.00,2.2823
1691.00,2.2740
1690.00,2.2918
1689.00,2.3240
1688.00,2.3586
1687.00,2.3919
1686.00,2.4299
1685.00,2.4829
1684.00,2.5509
1683.00,2.6204
1682.00,2.6671
1681.00,2.6801
1680.00,2.6952
1679.00,2.7346
1678.00,2.7806
1677.00,2.8177
1676.00,2.8450
1675.00,2.8695
1674.00,2.8935
1673.00,2.9151
1672.00,2.9346
1671.00,2.9567
1670.00,2.9843
1669.00,3.0152
1668.00,3.0421
1667.00,3.0578
1666.00,3.0674
1665.00,3.0845
1664.00,3.1102
1663.00,3.1336
1662.00,3.1468
1661.00,3.1505
1660.00,3.1506
1659.00,3.1536
1658.00,3.1650
1657.00,3.1840
1656.00,3.2023
1655.00,3.2106
1654.00,3.2095
1653.00,3.2128
1652.00,3.2388
1651.00,3.2694
1650.00,3.2702
1649.00,3.2639
1648.00,3.2633
1647.00,3.2609
1646.00,3.2631
1645.00,3.2664
1644.00,3.2608
1643.00,3.2523
1642.00,3.2540
1641.00,3.2605
1640.00,3.2665
1639.00,3.2699
1638.00,3.2675
1637.00,3.2602
1636.00,3.2530
1635.00,3.2527
1634.00,3.2549
1633.00,3.2462
1632.00,3.2346
1631.00,3.2363
1630.00,3.2458
1629.00,3.2499
1628.00,3.2447
1627.00,3.2337
1626.00,3.2208
1625.00,3.2076
1624.00,3.1982
1623.00,3.1951
1622.00,3.1942
1621.00,3.1864
1620.00,3.1673
1619.00,3.1440
1618.00,3.1243
1617.00,3.1128
1616.00,3.1119
1615.00,3.1154
1614.00,3.1066
1613.00,3.0827
1612.00,3.0585
1611.00,3.0422
1610.00,3.0307
1609.00,3.0172
1608.00,2.9993
1607.00,2.9786
1606.00,2.9562
1605.00,2.9320
1604.00,2.9077
1603.00,2.8840
1602.00,2.8591
1601.00,2.8306
1600.00,2.7974
1599.00,2.7612
1598.00,2.7248
1597.00,2.6894
1596.00,2.6547
1595.00,2.6193
1594.00,2.5817
1593.00,2.5406
1592.00,2.4960
1591.00,2.4498
1590.00,2.4033
1589.00,2.3563
1588.00,2.3087
1587.00,2.2617
1586.00,2.2167
1585.00,2.1747
1584.00,2.1364
1583.00,2.1038
1582.00,2.0780
1581.00,2.0606
1580.00,2.0516
1579.00,2.0479
1578.00,2.0485
1577.00,2.0580
1576.00,2.0815
1575.00,2.1159
1574.00,2.1447
1573.00,2.1570
1572.00,2.1679
1571.00,2.1929
1570.00,2.2336
1569.00,2.2846
1568.00,2.3366
1567.00,2.3808
1566.00,2.4201
1565.00,2.4664
1564.00,2.5197
1563.00,2.5701
1562.00,2.6091
1561.00,2.6362
1560.00,2.6592
1559.00,2.6823
1558.00,2.7197
1557.00,2.7692
1556.00,2.7869
1555.00,2.7973
1554.00,2.8324
1553.00,2.8722
1552.00,2.9085
1551.00,2.9382
1550.00,2.9647
1549.00,2.9888
1548.00,3.0091
1547.00,3.0261
1546.00,3.0423
1545.00,3.0591
1544.00,3.0752
1543.00,3.0890
1542.00,3.1005
1541.00,3.1145
1540.00,3.1411
1539.00,3.1860
1538.00,3.2272
1537.00,3.2371
1536.00,3.2346
1535.00,3.2402
1534.00,3.2533
1533.00,3.2717
1532.00,3.2893
1531.00,3.2972
1530.00,3.2994
1529.00,3.3071
1528.00,3.3173
1527.00,3.3229
1526.00,3.3256
1525.00,3.3302
1524.00,3.3350
1523.00,3.3331
1522.00,3.3236
1521.00,3.3154
1520.00,3.3141
1519.00,3.3142
1518.00,3.3173
1517.00,3.3288
1516.00,3.3386
1515.00,3.3361
1514.00,3.3264
1513.00,3.3275
1512.00,3.3464
1511.00,3.3685
1510.00,3.3807
1509.00,3.3869
1508.00,3.3984
1507.00,3.4151
1506.00,3.4252
1505.00,3.4158
1504.00,3.3826
1503.00,3.3592
1502.00,3.3597
1501.00,3.3636
1500.00,3.3611
1499.00,3.3525
1498.00,3.3449
1497.00,3.3454
1496.00,3.3522
1495.00,3.3556
1494.00,3.3515
1493.00,3.3455
1492.00,3.3414
1491.00,3.3352
1490.00,3.3211
1489.00,3.2991
1488.00,3.2742
1487.00,3.2539
1486.00,3.2481
1485.00,3.2574
1484.00,3.2707
1483.00,3.2752
1482.00,3.2663
1481.00,3.2506
1480.00,3.2353
1479.00,3.2212
1478.00,3.2059
1477.00,3.1883
1476.00,3.1679
1475.00,3.1431
1474.00,3.1151
1473.00,3.0900
1472.00,3.0777
1471.00,3.0791
1470.00,3.0862
1469.00,3.0986
1468.00,3.1195
1467.00,3.1446
1466.00,3.1666
1465.00,3.1809
1464.00,3.1874
1463.00,3.1894
1462.00,3.1937
1461.00,3.2078
1460.00,3.2297
1459.00,3.2500
1458.00,3.2654
1457.00,3.2843
1456.00,3.3166
1455.00,3.3573
1454.00,3.3998
1453.00,3.4448
1452.00,3.4850
1451.00,3.5206
1450.00,3.5593
1449.00,3.5959
1448.00,3.6107
1447.00,3.5939
1446.00,3.5635
1445.00,3.5438
1444.00,3.5418
1443.00,3.5468
1442.00,3.5479
1441.00,3.5455
1440.00,3.5467
1439.00,3.5518
1438.00,3.5478
1437.00,3.5181
1436.00,3.4603
1435.00,3.3992
1434.00,3.3664
1433.00,3.3709
1432.00,3.3967
1431.00,3.4225
1430.00,3.4366
1429.00,3.4392
1428.00,3.4364
1427.00,3.4335
1426.00,3.4333
1425.00,3.4362
1424.00,3.4443
1423.00,3.4588
1422.00,3.4765
1421.00,3.4880
1420.00,3.4779
1419.00,3.4373
1418.00,3.3819
1417.00,3.3368
1416.00,3.3127
1415.00,3.3094
1414.00,3.3214
1413.00,3.3403
1412.00,3.3563
1411.00,3.3602
1410.00,3.3495
1409.00,3.3312
1408.00,3.3124
1407.00,3.2942
1406.00,3.2745
1405.00,3.2552
1404.00,3.2433
1403.00,3.2411
1402.00,3.2451
1401.00,3.2503
1400.00,3.2540
1399.00,3.2553
1398.00,3.2537
1397.00,3.2508
1396.00,3.2494
1395.00,3.2513
1394.00,3.2563
1393.00,3.2675
1392.00,3.2913
1391.00,3.3260
1390.00,3.3568
1389.00,3.3709
1388.00,3.3754
1387.00,3.3911
1386.00,3.4318
1385.00,3.4901
1384.00,3.5444
1383.00,3.5825
1382.00,3.6079
1381.00,3.6226
1380.00,3.6287
1379.00,3.6414
1378.00,3.6768
1377.00,3.7350
1376.00,3.7897
1375.00,3.7946
1374.00,3.7331
1373.00,3.6391
1372.00,3.5491
1371.00,3.4811
1370.00,3.4383
1369.00,3.4141
1368.00,3.4006
1367.00,3.3940
1366.00,3.3945
1365.00,3.4030
1364.00,3.4196
1363.00,3.4414
1362.00,3.4589
1361.00,3.4613
1360.00,3.4549
1359.00,3.4610
1358.00,3.4916
1357.00,3.5353
1356.00,3.5686
1355.00,3.5808
1354.00,3.5817
1353.00,3.5808
1352.00,3.5773
1351.00,3.5722
1350.00,3.5733
1349.00,3.5825
1348.00,3.5894
1347.00,3.5855
1346.00,3.5781
1345.00,3.5795
1344.00,3.5904
1343.00,3.6033
1342.00,3.6147
1341.00,3.6242
1340.00,3.6224
1339.00,3.5974
1338.00,3.5578
1337.00,3.5288
1336.00,3.5241
1335.00,3.5357
1334.00,3.5474
1333.00,3.5511
1332.00,3.5512
1331.00,3.5581
1330.00,3.5759
1329.00,3.5941
1328.00,3.5957
1327.00,3.5747
1326.00,3.5438
1325.00,3.5184
1324.00,3.5014
1323.00,3.4887
1322.00,3.4794
1321.00,3.4765
1320.00,3.4779
1319.00,3.4749
1318.00,3.4625
1317.00,3.4475
1316.00,3.4409
1315.00,3.4467
1314.00,3.4585
1313.00,3.4652
1312.00,3.4629
1311.00,3.4591
1310.00,3.4621
1309.00,3.4702
1308.00,3.4701
1307.00,3.4503
1306.00,3.4153
1305.00,3.3790
1304.00,3.3494
1303.00,3.3265
1302.00,3.3077
1301.00,3.2895
1300.00,3.2677
1299.00,3.2397
1298.00,3.2045
1297.00,3.1611
1296.00,3.1114
1295.00,3.0613
1294.00,3.0169
1293.00,2.9785
1292.00,2.9403
1291.00,2.8966
1290.00,2.8467
1289.00,2.7932
1288.00,2.7383
1287.00,2.6828
1286.00,2.6277
1285.00,2.5740
1284.00,2.5229
1283.00,2.4759
1282.00,2.4360
1281.00,2.4064
1280.00,2.3887
1279.00,2.3827
1278.00,2.3858
1277.00,2.3946
1276.00,2.4054
1275.00,2.4158
1274.00,2.4259
1273.00,2.4380
1272.00,2.4549
1271.00,2.4786
1270.00,2.5098
1269.00,2.5480
1268.00,2.5909
1267.00,2.6354
1266.00,2.6784
1265.00,2.7192
1264.00,2.7590
1263.00,2.8005
1262.00,2.8456
1261.00,2.8940
1260.00,2.9429
1259.00,2.9892
1258.00,3.0338
1257.00,3.0796
1256.00,3.1266
1255.00,3.1699
1254.00,3.2067
1253.00,3.2414
1252.00,3.2792
1251.00,3.3155
1250.00,3.3395
1249.00,3.3487
1248.00,3.3512
1247.00,3.3543
1246.00,3.3614
1245.00,3.3792
1244.00,3.4166
1243.00,3.4744
1242.00,3.5361
1241.00,3.5754
1240.00,3.5842
1239.00,3.5791
1238.00,3.5781
1237.00,3.5877
1236.00,3.6067
1235.00,3.6325
1234.00,3.6614
1233.00,3.6845
1232.00,3.6890
1231.00,3.6726
1230.00,3.6498
1229.00,3.6398
1228.00,3.6495
1227.00,3.6706
1226.00,3.6964
1225.00,3.7284
1224.00,3.7638
1223.00,3.7930
1222.00,3.8072
1221.00,3.8144
1220.00,3.8338
1219.00,3.8676
1218.00,3.8943
1217.00,3.8981
1216.00,3.8933
1215.00,3.8927
1214.00,3.8813
1213.00,3.8457
1212.00,3.7961
1211.00,3.7504
1210.00,3.7218
1209.00,3.7111
1208.00,3.7048
1207.00,3.6862
1206.00,3.6539
1205.00,3.6245
1204.00,3.6159
1203.00,3.6401
1202.00,3.6981
1201.00,3.7675
1200.00,3.8056
1199.00,3.7948
1198.00,3.7649
1197.00,3.7506
1196.00,3.7582
1195.00,3.7703
1194.00,3.7762
1193.00,3.7718
1192.00,3.7450
1191.00,3.6990
1190.00,3.6526
1189.00,3.6258
1188.00,3.6261
1187.00,3.6424
1186.00,3.6573
1185.00,3.6589
1184.00,3.6477
1183.00,3.6325
1182.00,3.6135
1181.00,3.5860
1180.00,3.5558
1179.00,3.5312
1178.00,3.5145
1177.00,3.5084
1176.00,3.5191
1175.00,3.5461
1174.00,3.5751
1173.00,3.5908
1172.00,3.5970
1171.00,3.6070
1170.00,3.6162
1169.00,3.5984
1168.00,3.5415
1167.00,3.4670
1166.00,3.4026
1165.00,3.3598
1164.00,3.3361
1163.00,3.3229
1162.00,3.3106
1161.00,3.2939
1160.00,3.2729
1159.00,3.2476
1158.00,3.2131
1157.00,3.1661
1156.00,3.1129
1155.00,3.0641
1154.00,3.0241
1153.00,2.9879
1152.00,2.9480
1151.00,2.9006
1150.00,2.8481
1149.00,2.7958
1148.00,2.7479
1147.00,2.7060
1146.00,2.6699
1145.00,2.6397
1144.00,2.6170
1143.00,2.6045
1142.00,2.6029
1141.00,2.6107
1140.00,2.6263
1139.00,2.6499
1138.00,2.6827
1137.00,2.7247
1136.00,2.7756
1135.00,2.8363
1134.00,2.9070
1133.00,2.9831
1132.00,3.0543
1131.00,3.1133
1130.00,3.1645
1129.00,3.2184
1128.00,3.2812
1127.00,3.3519
1126.00,3.4249
1125.00,3.4912
1124.00,3.5410
1123.00,3.5665
1122.00,3.5675
1121.00,3.5562
1120.00,3.5469
1119.00,3.5510
1118.00,3.5762
1117.00,3.6173
1116.00,3.6554
1115.00,3.6752
1114.00,3.6773
1113.00,3.6713
1112.00,3.6678
1111.00,3.6709
1110.00,3.6808
1109.00,3.6906
1108.00,3.6816
1107.00,3.6617
1106.00,3.6705
1105.00,3.7335
1104.00,3.8495
1103.00,3.9926
1102.00,4.1036
1101.00,4.1155
1100.00,4.0224
1099.00,3.9019
1098.00,3.8198
1097.00,3.7715
1096.00,3.7310
1095.00,3.7085
1094.00,3.7319
1093.00,3.8033
1092.00,3.8854
1091.00,3.9296
1090.00,3.9461
1089.00,3.9876
1088.00,4.0713
1087.00,4.1536
1086.00,4.1810
1085.00,4.1596
1084.00,4.0947
1083.00,3.9941
1082.00,3.9033
1081.00,3.8665
1080.00,3.8917
1079.00,3.9412
1078.00,3.9804
1077.00,4.0406
1076.00,4.1282
1075.00,4.1211
1074.00,4.0095
1073.00,3.9135
1072.00,3.8373
1071.00,3.7660
1070.00,3.7187
1069.00,3.7215
1068.00,3.7826
1067.00,3.8807
1066.00,3.9560
1065.00,3.9765
1064.00,4.0099
1063.00,4.0904
1062.00,4.0378
1061.00,3.8883
1060.00,3.8074
1059.00,3.7883
1058.00,3.8083
1057.00,3.8427
1056.00,3.8628
1055.00,3.8717
1054.00,3.8854
1053.00,3.9091
1052.00,3.9598
1051.00,4.0782
1050.00,4.2975
1049.00,4.4646
1048.00,4.3978
1047.00,4.1907
1046.00,4.0353
1045.00,4.0235
1044.00,4.1128
1043.00,4.1604
1042.00,4.0582
1041.00,3.9376
1040.00,3.8905
1039.00,3.9043
1038.00,3.9240
1037.00,3.9324
1036.00,3.9642
1035.00,4.0256
1034.00,4.0644
1033.00,4.0684
1032.00,4.1006
1031.00,4.1759
1030.00,4.2311
1029.00,4.2015
1028.00,4.1185
1027.00,4.0676
1026.00,4.1137
1025.00,4.2618
1024.00,4.4138
1023.00,4.4350
1022.00,4.3139
1021.00,4.1583
1020.00,4.0337
1019.00,3.9430
1018.00,3.9028
1017.00,3.9501
1016.00,4.1377
1015.00,4.4750
1014.00,4.4028
1013.00,4.1343
1012.00,3.9023
1011.00,3.7666
1010.00,3.7109
1009.00,3.6985
1008.00,3.7025
1007.00,3.7150
1006.00,3.7334
1005.00,3.7351
1004.00,3.6857
1003.00,3.5935
1002.00,3.5081
1001.00,3.4549
1000.00,3.4242
999.00,3.3941
998.00,3.3550
997.00,3.3163
996.00,3.2899
995.00,3.2763
994.00,3.2685
993.00,3.2635
992.00,3.2641
991.00,3.2721
990.00,3.2844
989.00,3.2967
988.00,3.3114
987.00,3.3348
986.00,3.3686
985.00,3.4111
984.00,3.4606
983.00,3.5206
982.00,3.6040
981.00,3.7288
980.00,3.9021
979.00,4.0801
978.00,4.1544
977.00,4.1476
976.00,4.1205
975.00,4.0504
974.00,3.9459
973.00,3.8622
972.00,3.8421
971.00,3.9011
970.00,4.0324
969.00,4.2052
968.00,4.3844
967.00,4.4811
966.00,4.3601
965.00,4.2316
964.00,4.1530
963.00,4.0974
962.00,4.0717
961.00,4.0958
960.00,4.1596
959.00,4.2039
958.00,4.1648
957.00,4.0597
956.00,3.9498
955.00,3.8783
954.00,3.8606
953.00,3.8799
952.00,3.8891
951.00,3.8597
950.00,3.8261
949.00,3.8320
948.00,3.8759
947.00,3.9049
946.00,3.8922
945.00,3.8871
944.00,3.9224
943.00,3.9825
942.00,4.0636
941.00,4.1863
940.00,4.2329
939.00,4.1651
938.00,4.1376
937.00,4.1251
936.00,4.0780
935.00,4.0358
934.00,4.0409
933.00,4.0893
932.00,4.1490
931.00,4.2442
930.00,4.4972
929.00,4.5512
928.00,4.2879
927.00,4.2693
926.00,4.3676
925.00,4.2777
924.00,4.1411
923.00,4.0821
922.00,4.0565
921.00,4.0138
920.00,3.9403
919.00,3.8716
918.00,3.8573
917.00,3.9261
916.00,4.0604
915.00,4.1413
914.00,4.0635
913.00,3.9389
912.00,3.8675
911.00,3.8587
910.00,3.8906
909.00,3.9534
908.00,4.0292
907.00,4.0571
906.00,4.0127
905.00,3.9022
904.00,3.7905
903.00,3.7448
902.00,3.7750
901.00,3.8400
900.00,3.8759
899.00,3.8756
898.00,3.8248
897.00,3.7567
896.00,3.7385
895.00,3.7759
894.00,3.8481
893.00,3.9377
892.00,3.9863
891.00,3.9420
890.00,3.9195
889.00,3.9833
888.00,4.0477
887.00,3.9702
886.00,3.8299
885.00,3.7349
884.00,3.7311
883.00,3.8308
882.00,4.0581
881.00,4.5656
880.00,4.5896
879.00,4.1963
878.00,4.0485
877.00,3.9751
876.00,3.9391
875.00,3.9493
874.00,4.0117
873.00,4.0889
872.00,4.1290
871.00,4.1835
870.00,4.2734
869.00,4.3586
868.00,4.4573
867.00,4.4047
866.00,4.1315
865.00,3.9319
864.00,3.8350
863.00,3.8225
862.00,3.8865
861.00,4.0045
860.00,4.0473
859.00,3.9730
858.00,3.9374
857.00,3.9327
856.00,3.9081
855.00,3.9107
854.00,3.9749
853.00,4.0695
852.00,4.1201
851.00,4.0951
850.00,4.0822
849.00,4.1716
848.00,4.4462
847.00,5.1247
846.00,5.0575
845.00,4.5147
844.00,4.1868
843.00,3.9890
842.00,3.8894
841.00,3.8560
840.00,3.8575
839.00,3.9046
838.00,4.0790
837.00,4.5426
836.00,4.8224
835.00,4.4981
834.00,4.4930
833.00,4.3747
832.00,4.1615
831.00,4.0056
830.00,3.9231
829.00,3.9250
828.00,4.0038
827.00,4.0770
826.00,4.1706
825.00,4.4524
824.00,4.1502
823.00,3.7986
822.00,3.6293
821.00,3.5501
820.00,3.5340
819.00,3.5796
818.00,3.6987
817.00,3.9085
816.00,4.1373
815.00,4.1954
814.00,4.2556
813.00,4.3461
812.00,4.3136
811.00,4.2804
810.00,4.2905
809.00,4.1822
808.00,3.9906
807.00,3.8717
806.00,3.8433
805.00,3.8603
804.00,3.8425
803.00,3.7676
802.00,3.7045
801.00,3.6989
800.00,3.7377
799.00,3.7783
798.00,3.8211
797.00,3.9282
796.00,4.1594
795.00,4.4610
794.00,4.4183
793.00,4.1436
792.00,3.9710
791.00,3.9121
790.00,3.9281
789.00,3.9803
788.00,4.0236
787.00,4.0109
786.00,3.9511
785.00,3.9093
784.00,3.9174
783.00,4.0001
782.00,4.1794
781.00,4.1857
780.00,4.0216
779.00,3.9638
778.00,3.9561
777.00,3.9425
776.00,3.9467
775.00,3.9729
774.00,4.1215
773.00,4.6121
772.00,4.4119
771.00,3.9797
770.00,3.8403
769.00,3.8427
768.00,3.9928
767.00,4.3139
766.00,4.4812
765.00,4.3397
764.00,4.0818
763.00,3.8924
762.00,3.8422
761.00,3.8977
760.00,3.9884
759.00,4.0235
758.00,4.0362
757.00,4.0863
756.00,4.0629
755.00,3.9542
754.00,3.8961
753.00,3.9138
752.00,4.0113
751.00,4.1885
750.00,4.2691
749.00,4.1452
748.00,4.0476
747.00,4.0118
746.00,3.9883
745.00,3.9775
744.00,4.0069
743.00,4.0552
742.00,4.0243
741.00,3.9010
740.00,3.8081
739.00,3.7775
738.00,3.7741
737.00,3.7846
736.00,3.8799
735.00,4.0910
734.00,4.1527
733.00,4.0608
732.00,4.1783
731.00,4.6898
730.00,4.5804
729.00,4.2175
728.00,4.0745
727.00,4.0034
726.00,4.0017
725.00,4.0142
724.00,3.9588
723.00,3.8338
722.00,3.7321
721.00,3.6821
720.00,3.7148
719.00,3.8352
718.00,4.1723
717.00,4.5848
716.00,3.9975
715.00,3.8250
714.00,3.7919
713.00,3.7865
712.00,3.8428
711.00,3.9517
710.00,4.0824
709.00,4.0845
708.00,4.0342
707.00,3.9366
706.00,3.7999
705.00,3.7223
704.00,3.7481
703.00,3.8869
702.00,4.1325
701.00,4.3980
700.00,4.3982
