Created as New Dataset,Sample 006 By Administrator Date Wednesday, November 24 2021
cm-1,A
7502.00,0.6079
7501.00,0.6164
7500.00,0.6255
7499.00,0.6348
7498.00,0.6439
7497.00,0.6527
7496.00,0.6614
7495.00,0.6705
7494.00,0.6796
7493.00,0.6882
7492.00,0.6961
7491.00,0.7038
7490.00,0.7117
7489.00,0.7204
7488.00,0.7294
7487.00,0.7382
7486.00,0.7467
7485.00,0.7549
7484.00,0.7627
7483.00,0.7700
7482.00,0.7770
7481.00,0.7838
7480.00,0.7904
7479.00,0.7967
7478.00,0.8027
7477.00,0.8089
7476.00,0.8153
7475.00,0.8210
7474.00,0.8258
7473.00,0.8300
7472.00,0.8348
7471.00,0.8403
7470.00,0.8457
7469.00,0.8501
7468.00,0.8535
7467.00,0.8572
7466.00,0.8613
7465.00,0.8652
7464.00,0.8680
7463.00,0.8695
7462.00,0.8703
7461.00,0.8706
7460.00,0.8702
7459.00,0.8690
7458.00,0.8672
7457.00,0.8652
7456.00,0.8633
7455.00,0.8615
7454.00,0.8596
7453.00,0.8580
7452.00,0.8565
7451.00,0.8547
7450.00,0.8522
7449.00,0.8488
7448.00,0.8453
7447.00,0.8418
7446.00,0.8382
7445.00,0.8340
7444.00,0.8289
7443.00,0.8231
7442.00,0.8172
7441.00,0.8112
7440.00,0.8051
7439.00,0.7987
7438.00,0.7919
7437.00,0.7846
7436.00,0.7771
7435.00,0.7695
7434.00,0.7619
7433.00,0.7542
7432.00,0.7462
7431.00,0.7381
7430.00,0.7305
7429.00,0.7235
7428.00,0.7174
7427.00,0.7125
7426.00,0.7086
7425.00,0.7050
7424.00,0.7008
7423.00,0.6956
7422.00,0.6897
7421.00,0.6837
7420.00,0.6772
7419.00,0.6695
7418.00,0.6609
7417.00,0.6524
7416.00,0.6447
7415.00,0.6380
7414.00,0.6317
7413.00,0.6256
7412.00,0.6197
7411.00,0.6144
7410.00,0.6096
7409.00,0.6053
7408.00,0.6012
7407.00,0.5972
7406.00,0.5936
7405.00,0.5905
7404.00,0.5875
7403.00,0.5843
7402.00,0.5811
7401.00,0.5781
7400.00,0.5753
7399.00,0.5723
7398.00,0.5692
7397.00,0.5663
7396.00,0.5641
7395.00,0.5627
7394.00,0.5621
7393.00,0.5621
7392.00,0.5622
7391.00,0.5625
7390.00,0.5633
7389.00,0.5645
7388.00,0.5659
7387.00,0.5673
7386.00,0.5690
7385.00,0.5715
7384.00,0.5748
7383.00,0.5787
7382.00,0.5828
7381.00,0.5872
7380.00,0.5920
7379.00,0.5974
7378.00,0.6032
7377.00,0.6092
7376.00,0.6151
7375.00,0.6208
7374.00,0.6267
7373.00,0.6330
7372.00,0.6395
7371.00,0.6460
7370.00,0.6527
7369.00,0.6600
7368.00,0.6680
7367.00,0.6764
7366.00,0.6847
7365.00,0.6930
7364.00,0.7012
7363.00,0.7095
7362.00,0.7178
7361.00,0.7262
7360.00,0.7346
7359.00,0.7433
7358.00,0.7524
7357.00,0.7618
7356.00,0.7715
7355.00,0.7811
7354.00,0.7906
7353.00,0.8001
7352.00,0.8094
7351.00,0.8184
7350.00,0.8270
7349.00,0.8355
7348.00,0.8437
7347.00,0.8515
7346.00,0.8592
7345.00,0.8671
7344.00,0.8753
7343.00,0.8834
7342.00,0.8913
7341.00,0.8993
7340.00,0.9076
7339.00,0.9157
7338.00,0.9231
7337.00,0.9296
7336.00,0.9358
7335.00,0.9420
7334.00,0.9485
7333.00,0.9548
7332.00,0.9605
7331.00,0.9656
7330.00,0.9703
7329.00,0.9749
7328.00,0.9797
7327.00,0.9845
7326.00,0.9890
7325.00,0.9933
7324.00,0.9971
7323.00,1.0002
7322.00,1.0030
7321.00,1.0056
7320.00,1.0082
7319.00,1.0104
7318.00,1.0122
7317.00,1.0143
7316.00,1.0169
7315.00,1.0193
7314.00,1.0204
7313.00,1.0200
7312.00,1.0191
7311.00,1.0183
7310.00,1.0173
7309.00,1.0158
7308.00,1.0139
7307.00,1.0122
7306.00,1.0107
7305.00,1.0088
7304.00,1.0063
7303.00,1.0032
7302.00,1.0003
7301.00,0.9975
7300.00,0.9943
7299.00,0.9899
7298.00,0.9847
7297.00,0.9794
7296.00,0.9746
7295.00,0.9700
7294.00,0.9650
7293.00,0.9592
7292.00,0.9531
7291.00,0.9468
7290.00,0.9404
7289.00,0.9334
7288.00,0.9255
7287.00,0.9170
7286.00,0.9086
7285.00,0.9006
7284.00,0.8929
7283.00,0.8851
7282.00,0.8773
7281.00,0.8693
7280.00,0.8612
7279.00,0.8533
7278.00,0.8454
7277.00,0.8374
7276.00,0.8291
7275.00,0.8205
7274.00,0.8119
7273.00,0.8035
7272.00,0.7953
7271.00,0.7871
7270.00,0.7791
7269.00,0.7714
7268.00,0.7642
7267.00,0.7572
7266.00,0.7501
7265.00,0.7429
7264.00,0.7358
7263.00,0.7289
7262.00,0.7223
7261.00,0.7159
7260.00,0.7097
7259.00,0.7038
7258.00,0.6986
7257.00,0.6939
7256.00,0.6898
7255.00,0.6864
7254.00,0.6836
7253.00,0.6814
7252.00,0.6794
7251.00,0.6776
7250.00,0.6762
7249.00,0.6755
7248.00,0.6753
7247.00,0.6755
7246.00,0.6761
7245.00,0.6773
7244.00,0.6789
7243.00,0.6807
7242.00,0.6828
7241.00,0.6850
7240.00,0.6875
7239.00,0.6905
7238.00,0.6939
7237.00,0.6981
7236.00,0.7027
7235.00,0.7077
7234.00,0.7128
7233.00,0.7181
7232.00,0.7237
7231.00,0.7295
7230.00,0.7356
7229.00,0.7417
7228.00,0.7480
7227.00,0.7546
7226.00,0.7618
7225.00,0.7694
7224.00,0.7773
7223.00,0.7853
7222.00,0.7935
7221.00,0.8021
7220.00,0.8109
7219.00,0.8196
7218.00,0.8278
7217.00,0.8356
7216.00,0.8433
7215.00,0.8513
7214.00,0.8595
7213.00,0.8676
7212.00,0.8755
7211.00,0.8834
7210.00,0.8916
7209.00,0.8999
7208.00,0.9082
7207.00,0.9162
7206.00,0.9244
7205.00,0.9327
7204.00,0.9410
7203.00,0.9486
7202.00,0.9558
7201.00,0.9628
7200.00,0.9699
7199.00,0.9769
7198.00,0.9838
7197.00,0.9902
7196.00,0.9962
7195.00,1.0019
7194.00,1.0075
7193.00,1.0132
7192.00,1.0188
7191.00,1.0243
7190.00,1.0296
7189.00,1.0348
7188.00,1.0397
7187.00,1.0439
7186.00,1.0474
7185.00,1.0506
7184.00,1.0536
7183.00,1.0563
7182.00,1.0585
7181.00,1.0604
7180.00,1.0620
7179.00,1.0636
7178.00,1.0649
7177.00,1.0661
7176.00,1.0673
7175.00,1.0684
7174.00,1.0692
7173.00,1.0695
7172.00,1.0692
7171.00,1.0683
7170.00,1.0671
7169.00,1.0651
7168.00,1.0622
7167.00,1.0584
7166.00,1.0545
7165.00,1.0507
7164.00,1.0474
7163.00,1.0442
7162.00,1.0410
7161.00,1.0378
7160.00,1.0341
7159.00,1.0299
7158.00,1.0250
7157.00,1.0195
7156.00,1.0135
7155.00,1.0073
7154.00,1.0011
7153.00,0.9948
7152.00,0.9885
7151.00,0.9821
7150.00,0.9754
7149.00,0.9684
7148.00,0.9612
7147.00,0.9542
7146.00,0.9473
7145.00,0.9402
7144.00,0.9328
7143.00,0.9249
7142.00,0.9166
7141.00,0.9082
7140.00,0.8997
7139.00,0.8915
7138.00,0.8837
7137.00,0.8762
7136.00,0.8686
7135.00,0.8609
7134.00,0.8530
7133.00,0.8449
7132.00,0.8361
7131.00,0.8269
7130.00,0.8179
7129.00,0.8097
7128.00,0.8023
7127.00,0.7953
7126.00,0.7883
7125.00,0.7814
7124.00,0.7745
7123.00,0.7677
7122.00,0.7611
7121.00,0.7544
7120.00,0.7479
7119.00,0.7418
7118.00,0.7362
7117.00,0.7313
7116.00,0.7265
7115.00,0.7219
7114.00,0.7178
7113.00,0.7143
7112.00,0.7116
7111.00,0.7093
7110.00,0.7074
7109.00,0.7059
7108.00,0.7048
7107.00,0.7040
7106.00,0.7034
7105.00,0.7031
7104.00,0.7032
7103.00,0.7037
7102.00,0.7047
7101.00,0.7063
7100.00,0.7084
7099.00,0.7111
7098.00,0.7143
7097.00,0.7180
7096.00,0.7222
7095.00,0.7267
7094.00,0.7315
7093.00,0.7365
7092.00,0.7417
7091.00,0.7472
7090.00,0.7530
7089.00,0.7592
7088.00,0.7658
7087.00,0.7727
7086.00,0.7797
7085.00,0.7869
7084.00,0.7943
7083.00,0.8019
7082.00,0.8096
7081.00,0.8172
7080.00,0.8248
7079.00,0.8327
7078.00,0.8410
7077.00,0.8496
7076.00,0.8582
7075.00,0.8668
7074.00,0.8756
7073.00,0.8846
7072.00,0.8934
7071.00,0.9018
7070.00,0.9100
7069.00,0.9184
7068.00,0.9272
7067.00,0.9359
7066.00,0.9444
7065.00,0.9527
7064.00,0.9611
7063.00,0.9698
7062.00,0.9784
7061.00,0.9866
7060.00,0.9943
7059.00,1.0017
7058.00,1.0092
7057.00,1.0172
7056.00,1.0252
7055.00,1.0326
7054.00,1.0394
7053.00,1.0459
7052.00,1.0522
7051.00,1.0581
7050.00,1.0634
7049.00,1.0681
7048.00,1.0728
7047.00,1.0779
7046.00,1.0833
7045.00,1.0887
7044.00,1.0939
7043.00,1.0985
7042.00,1.1026
7041.00,1.1061
7040.00,1.1094
7039.00,1.1127
7038.00,1.1159
7037.00,1.1190
7036.00,1.1216
7035.00,1.1239
7034.00,1.1255
7033.00,1.1264
7032.00,1.1267
7031.00,1.1266
7030.00,1.1263
7029.00,1.1260
7028.00,1.1257
7027.00,1.1254
7026.00,1.1251
7025.00,1.1246
7024.00,1.1238
7023.00,1.1226
7022.00,1.1207
7021.00,1.1181
7020.00,1.1151
7019.00,1.1118
7018.00,1.1082
7017.00,1.1040
7016.00,1.0992
7015.00,1.0940
7014.00,1.0889
7013.00,1.0838
7012.00,1.0784
7011.00,1.0729
7010.00,1.0673
7009.00,1.0614
7008.00,1.0551
7007.00,1.0484
7006.00,1.0415
7005.00,1.0345
7004.00,1.0270
7003.00,1.0188
7002.00,1.0105
7001.00,1.0025
7000.00,0.9944
6999.00,0.9859
6998.00,0.9769
6997.00,0.9678
6996.00,0.9585
6995.00,0.9493
6994.00,0.9401
6993.00,0.9310
6992.00,0.9218
6991.00,0.9127
6990.00,0.9037
6989.00,0.8948
6988.00,0.8859
6987.00,0.8769
6986.00,0.8680
6985.00,0.8595
6984.00,0.8514
6983.00,0.8433
6982.00,0.8353
6981.00,0.8275
6980.00,0.8200
6979.00,0.8125
6978.00,0.8051
6977.00,0.7979
6976.00,0.7913
6975.00,0.7853
6974.00,0.7797
6973.00,0.7746
6972.00,0.7697
6971.00,0.7651
6970.00,0.7609
6969.00,0.7573
6968.00,0.7543
6967.00,0.7517
6966.00,0.7496
6965.00,0.7483
6964.00,0.7475
6963.00,0.7472
6962.00,0.7472
6961.00,0.7476
6960.00,0.7485
6959.00,0.7498
6958.00,0.7516
6957.00,0.7538
6956.00,0.7565
6955.00,0.7595
6954.00,0.7627
6953.00,0.7661
6952.00,0.7701
6951.00,0.7747
6950.00,0.7799
6949.00,0.7856
6948.00,0.7917
6947.00,0.7983
6946.00,0.8052
6945.00,0.8123
6944.00,0.8194
6943.00,0.8265
6942.00,0.8336
6941.00,0.8409
6940.00,0.8483
6939.00,0.8558
6938.00,0.8636
6937.00,0.8716
6936.00,0.8800
6935.00,0.8885
6934.00,0.8972
6933.00,0.9060
6932.00,0.9149
6931.00,0.9238
6930.00,0.9326
6929.00,0.9412
6928.00,0.9494
6927.00,0.9574
6926.00,0.9654
6925.00,0.9735
6924.00,0.9817
6923.00,0.9896
6922.00,0.9973
6921.00,1.0053
6920.00,1.0134
6919.00,1.0215
6918.00,1.0293
6917.00,1.0367
6916.00,1.0437
6915.00,1.0503
6914.00,1.0567
6913.00,1.0631
6912.00,1.0692
6911.00,1.0753
6910.00,1.0813
6909.00,1.0873
6908.00,1.0932
6907.00,1.0987
6906.00,1.1039
6905.00,1.1090
6904.00,1.1140
6903.00,1.1184
6902.00,1.1223
6901.00,1.1258
6900.00,1.1291
6899.00,1.1322
6898.00,1.1349
6897.00,1.1374
6896.00,1.1398
6895.00,1.1419
6894.00,1.1436
6893.00,1.1447
6892.00,1.1453
6891.00,1.1453
6890.00,1.1449
6889.00,1.1440
6888.00,1.1429
6887.00,1.1418
6886.00,1.1405
6885.00,1.1386
6884.00,1.1363
6883.00,1.1336
6882.00,1.1310
6881.00,1.1283
6880.00,1.1253
6879.00,1.1219
6878.00,1.1181
6877.00,1.1141
6876.00,1.1097
6875.00,1.1044
6874.00,1.0983
6873.00,1.0917
6872.00,1.0850
6871.00,1.0784
6870.00,1.0715
6869.00,1.0643
6868.00,1.0569
6867.00,1.0498
6866.00,1.0427
6865.00,1.0353
6864.00,1.0274
6863.00,1.0191
6862.00,1.0107
6861.00,1.0023
6860.00,0.9938
6859.00,0.9848
6858.00,0.9756
6857.00,0.9665
6856.00,0.9572
6855.00,0.9477
6854.00,0.9380
6853.00,0.9284
6852.00,0.9191
6851.00,0.9100
6850.00,0.9011
6849.00,0.8922
6848.00,0.8833
6847.00,0.8744
6846.00,0.8655
6845.00,0.8568
6844.00,0.8482
6843.00,0.8398
6842.00,0.8316
6841.00,0.8236
6840.00,0.8159
6839.00,0.8085
6838.00,0.8016
6837.00,0.7951
6836.00,0.7889
6835.00,0.7830
6834.00,0.7772
6833.00,0.7718
6832.00,0.7668
6831.00,0.7621
6830.00,0.7577
6829.00,0.7539
6828.00,0.7505
6827.00,0.7475
6826.00,0.7450
6825.00,0.7430
6824.00,0.7415
6823.00,0.7404
6822.00,0.7398
6821.00,0.7397
6820.00,0.7401
6819.00,0.7411
6818.00,0.7425
6817.00,0.7442
6816.00,0.7463
6815.00,0.7488
6814.00,0.7518
6813.00,0.7554
6812.00,0.7594
6811.00,0.7637
6810.00,0.7682
6809.00,0.7731
6808.00,0.7785
6807.00,0.7843
6806.00,0.7906
6805.00,0.7973
6804.00,0.8042
6803.00,0.8115
6802.00,0.8190
6801.00,0.8267
6800.00,0.8345
6799.00,0.8421
6798.00,0.8498
6797.00,0.8578
6796.00,0.8663
6795.00,0.8750
6794.00,0.8837
6793.00,0.8926
6792.00,0.9016
6791.00,0.9107
6790.00,0.9196
6789.00,0.9283
6788.00,0.9368
6787.00,0.9456
6786.00,0.9546
6785.00,0.9636
6784.00,0.9726
6783.00,0.9815
6782.00,0.9905
6781.00,0.9993
6780.00,1.0079
6779.00,1.0163
6778.00,1.0245
6777.00,1.0327
6776.00,1.0409
6775.00,1.0490
6774.00,1.0569
6773.00,1.0644
6772.00,1.0717
6771.00,1.0789
6770.00,1.0862
6769.00,1.0937
6768.00,1.1009
6767.00,1.1076
6766.00,1.1139
6765.00,1.1199
6764.00,1.1255
6763.00,1.1307
6762.00,1.1358
6761.00,1.1408
6760.00,1.1454
6759.00,1.1494
6758.00,1.1530
6757.00,1.1565
6756.00,1.1596
6755.00,1.1624
6754.00,1.1651
6753.00,1.1681
6752.00,1.1712
6751.00,1.1739
6750.00,1.1758
6749.00,1.1771
6748.00,1.1779
6747.00,1.1784
6746.00,1.1788
6745.00,1.1792
6744.00,1.1793
6743.00,1.1789
6742.00,1.1778
6741.00,1.1761
6740.00,1.1741
6739.00,1.1717
6738.00,1.1689
6737.00,1.1657
6736.00,1.1624
6735.00,1.1589
6734.00,1.1551
6733.00,1.1508
6732.00,1.1457
6731.00,1.1402
6730.00,1.1347
6729.00,1.1293
6728.00,1.1238
6727.00,1.1179
6726.00,1.1118
6725.00,1.1054
6724.00,1.0985
6723.00,1.0912
6722.00,1.0835
6721.00,1.0758
6720.00,1.0680
6719.00,1.0599
6718.00,1.0516
6717.00,1.0430
6716.00,1.0341
6715.00,1.0248
6714.00,1.0152
6713.00,1.0056
6712.00,0.9960
6711.00,0.9864
6710.00,0.9765
6709.00,0.9663
6708.00,0.9560
6707.00,0.9460
6706.00,0.9363
6705.00,0.9268
6704.00,0.9172
6703.00,0.9075
6702.00,0.8980
6701.00,0.8887
6700.00,0.8796
6699.00,0.8705
6698.00,0.8614
6697.00,0.8527
6696.00,0.8445
6695.00,0.8366
6694.00,0.8288
6693.00,0.8212
6692.00,0.8140
6691.00,0.8074
6690.00,0.8013
6689.00,0.7957
6688.00,0.7904
6687.00,0.7855
6686.00,0.7811
6685.00,0.7771
6684.00,0.7734
6683.00,0.7702
6682.00,0.7675
6681.00,0.7656
6680.00,0.7643
6679.00,0.7634
6678.00,0.7632
6677.00,0.7635
6676.00,0.7644
6675.00,0.7655
6674.00,0.7670
6673.00,0.7690
6672.00,0.7717
6671.00,0.7749
6670.00,0.7786
6669.00,0.7829
6668.00,0.7877
6667.00,0.7929
6666.00,0.7983
6665.00,0.8040
6664.00,0.8099
6663.00,0.8161
6662.00,0.8227
6661.00,0.8297
6660.00,0.8371
6659.00,0.8448
6658.00,0.8528
6657.00,0.8610
6656.00,0.8693
6655.00,0.8776
6654.00,0.8859
6653.00,0.8943
6652.00,0.9025
6651.00,0.9107
6650.00,0.9192
6649.00,0.9283
6648.00,0.9378
6647.00,0.9473
6646.00,0.9567
6645.00,0.9659
6644.00,0.9751
6643.00,0.9839
6642.00,0.9924
6641.00,1.0007
6640.00,1.0091
6639.00,1.0177
6638.00,1.0263
6637.00,1.0350
6636.00,1.0435
6635.00,1.0517
6634.00,1.0597
6633.00,1.0674
6632.00,1.0749
6631.00,1.0821
6630.00,1.0890
6629.00,1.0958
6628.00,1.1024
6627.00,1.1089
6626.00,1.1153
6625.00,1.1216
6624.00,1.1278
6623.00,1.1336
6622.00,1.1388
6621.00,1.1435
6620.00,1.1477
6619.00,1.1514
6618.00,1.1549
6617.00,1.1581
6616.00,1.1612
6615.00,1.1640
6614.00,1.1665
6613.00,1.1689
6612.00,1.1713
6611.00,1.1734
6610.00,1.1750
6609.00,1.1761
6608.00,1.1769
6607.00,1.1775
6606.00,1.1776
6605.00,1.1773
6604.00,1.1764
6603.00,1.1751
6602.00,1.1733
6601.00,1.1708
6600.00,1.1679
6599.00,1.1649
6598.00,1.1618
6597.00,1.1588
6596.00,1.1558
6595.00,1.1526
6594.00,1.1490
6593.00,1.1448
6592.00,1.1401
6591.00,1.1351
6590.00,1.1297
6589.00,1.1239
6588.00,1.1176
6587.00,1.1111
6586.00,1.1043
6585.00,1.0973
6584.00,1.0899
6583.00,1.0823
6582.00,1.0744
6581.00,1.0660
6580.00,1.0574
6579.00,1.0486
6578.00,1.0395
6577.00,1.0301
6576.00,1.0207
6575.00,1.0113
6574.00,1.0021
6573.00,0.9929
6572.00,0.9836
6571.00,0.9741
6570.00,0.9644
6569.00,0.9547
6568.00,0.9448
6567.00,0.9348
6566.00,0.9249
6565.00,0.9152
6564.00,0.9055
6563.00,0.8959
6562.00,0.8866
6561.00,0.8775
6560.00,0.8685
6559.00,0.8596
6558.00,0.8506
6557.00,0.8419
6556.00,0.8335
6555.00,0.8253
6554.00,0.8175
6553.00,0.8101
6552.00,0.8030
6551.00,0.7963
6550.00,0.7900
6549.00,0.7841
6548.00,0.7783
6547.00,0.7728
6546.00,0.7677
6545.00,0.7631
6544.00,0.7590
6543.00,0.7554
6542.00,0.7522
6541.00,0.7495
6540.00,0.7474
6539.00,0.7457
6538.00,0.7444
6537.00,0.7435
6536.00,0.7432
6535.00,0.7436
6534.00,0.7447
6533.00,0.7465
6532.00,0.7487
6531.00,0.7515
6530.00,0.7548
6529.00,0.7586
6528.00,0.7629
6527.00,0.7674
6526.00,0.7723
6525.00,0.7775
6524.00,0.7831
6523.00,0.7891
6522.00,0.7955
6521.00,0.8023
6520.00,0.8094
6519.00,0.8168
6518.00,0.8246
6517.00,0.8326
6516.00,0.8407
6515.00,0.8491
6514.00,0.8578
6513.00,0.8669
6512.00,0.8759
6511.00,0.8849
6510.00,0.8939
6509.00,0.9031
6508.00,0.9123
6507.00,0.9213
6506.00,0.9304
6505.00,0.9398
6504.00,0.9494
6503.00,0.9590
6502.00,0.9686
6501.00,0.9782
6500.00,0.9878
6499.00,0.9971
6498.00,1.0063
6497.00,1.0153
6496.00,1.0241
6495.00,1.0327
6494.00,1.0413
6493.00,1.0501
6492.00,1.0591
6491.00,1.0679
6490.00,1.0765
6489.00,1.0845
6488.00,1.0920
6487.00,1.0990
6486.00,1.1059
6485.00,1.1128
6484.00,1.1196
6483.00,1.1264
6482.00,1.1331
6481.00,1.1396
6480.00,1.1457
6479.00,1.1514
6478.00,1.1566
6477.00,1.1614
6476.00,1.1660
6475.00,1.1705
6474.00,1.1749
6473.00,1.1789
6472.00,1.1822
6471.00,1.1849
6470.00,1.1876
6469.00,1.1903
6468.00,1.1926
6467.00,1.1945
6466.00,1.1961
6465.00,1.1975
6464.00,1.1982
6463.00,1.1981
6462.00,1.1975
6461.00,1.1967
6460.00,1.1959
6459.00,1.1949
6458.00,1.1937
6457.00,1.1923
6456.00,1.1905
6455.00,1.1881
6454.00,1.1852
6453.00,1.1819
6452.00,1.1783
6451.00,1.1746
6450.00,1.1707
6449.00,1.1664
6448.00,1.1614
6447.00,1.1557
6446.00,1.1499
6445.00,1.1440
6444.00,1.1380
6443.00,1.1316
6442.00,1.1251
6441.00,1.1186
6440.00,1.1118
6439.00,1.1044
6438.00,1.0961
6437.00,1.0873
6436.00,1.0782
6435.00,1.0690
6434.00,1.0598
6433.00,1.0506
6432.00,1.0411
6431.00,1.0314
6430.00,1.0216
6429.00,1.0115
6428.00,1.0012
6427.00,0.9906
6426.00,0.9800
6425.00,0.9697
6424.00,0.9595
6423.00,0.9494
6422.00,0.9390
6421.00,0.9284
6420.00,0.9177
6419.00,0.9071
6418.00,0.8966
6417.00,0.8863
6416.00,0.8761
6415.00,0.8662
6414.00,0.8568
6413.00,0.8477
6412.00,0.8389
6411.00,0.8302
6410.00,0.8218
6409.00,0.8138
6408.00,0.8061
6407.00,0.7987
6406.00,0.7916
6405.00,0.7850
6404.00,0.7789
6403.00,0.7733
6402.00,0.7684
6401.00,0.7640
6400.00,0.7603
6399.00,0.7569
6398.00,0.7540
6397.00,0.7518
6396.00,0.7504
6395.00,0.7495
6394.00,0.7491
6393.00,0.7492
6392.00,0.7500
6391.00,0.7513
6390.00,0.7531
6389.00,0.7554
6388.00,0.7584
6387.00,0.7620
6386.00,0.7660
6385.00,0.7704
6384.00,0.7752
6383.00,0.7804
6382.00,0.7860
6381.00,0.7921
6380.00,0.7984
6379.00,0.8053
6378.00,0.8125
6377.00,0.8200
6376.00,0.8276
6375.00,0.8354
6374.00,0.8434
6373.00,0.8518
6372.00,0.8604
6371.00,0.8692
6370.00,0.8783
6369.00,0.8876
6368.00,0.8969
6367.00,0.9062
6366.00,0.9155
6365.00,0.9249
6364.00,0.9343
6363.00,0.9437
6362.00,0.9531
6361.00,0.9626
6360.00,0.9723
6359.00,0.9820
6358.00,0.9916
6357.00,1.0009
6356.00,1.0100
6355.00,1.0189
6354.00,1.0279
6353.00,1.0367
6352.00,1.0451
6351.00,1.0531
6350.00,1.0610
6349.00,1.0692
6348.00,1.0774
6347.00,1.0854
6346.00,1.0929
6345.00,1.1004
6344.00,1.1079
6343.00,1.1153
6342.00,1.1222
6341.00,1.1285
6340.00,1.1342
6339.00,1.1396
6338.00,1.1448
6337.00,1.1496
6336.00,1.1541
6335.00,1.1585
6334.00,1.1632
6333.00,1.1683
6332.00,1.1731
6331.00,1.1773
6330.00,1.1809
6329.00,1.1840
6328.00,1.1867
6327.00,1.1890
6326.00,1.1911
6325.00,1.1928
6324.00,1.1942
6323.00,1.1951
6322.00,1.1955
6321.00,1.1956
6320.00,1.1950
6319.00,1.1937
6318.00,1.1917
6317.00,1.1893
6316.00,1.1866
6315.00,1.1836
6314.00,1.1803
6313.00,1.1767
6312.00,1.1729
6311.00,1.1687
6310.00,1.1641
6309.00,1.1591
6308.00,1.1538
6307.00,1.1483
6306.00,1.1427
6305.00,1.1371
6304.00,1.1310
6303.00,1.1244
6302.00,1.1174
6301.00,1.1099
6300.00,1.1019
6299.00,1.0936
6298.00,1.0851
6297.00,1.0765
6296.00,1.0677
6295.00,1.0587
6294.00,1.0495
6293.00,1.0401
6292.00,1.0305
6291.00,1.0206
6290.00,1.0104
6289.00,1.0002
6288.00,0.9899
6287.00,0.9795
6286.00,0.9689
6285.00,0.9584
6284.00,0.9479
6283.00,0.9375
6282.00,0.9272
6281.00,0.9168
6280.00,0.9062
6279.00,0.8956
6278.00,0.8850
6277.00,0.8744
6276.00,0.8641
6275.00,0.8542
6274.00,0.8445
6273.00,0.8352
6272.00,0.8261
6271.00,0.8171
6270.00,0.8084
6269.00,0.8000
6268.00,0.7919
6267.00,0.7841
6266.00,0.7767
6265.00,0.7699
6264.00,0.7635
6263.00,0.7573
6262.00,0.7514
6261.00,0.7461
6260.00,0.7413
6259.00,0.7370
6258.00,0.7331
6257.00,0.7299
6256.00,0.7272
6255.00,0.7250
6254.00,0.7235
6253.00,0.7226
6252.00,0.7224
6251.00,0.7229
6250.00,0.7240
6249.00,0.7257
6248.00,0.7280
6247.00,0.7307
6246.00,0.7340
6245.00,0.7377
6244.00,0.7419
6243.00,0.7465
6242.00,0.7517
6241.00,0.7575
6240.00,0.7635
6239.00,0.7700
6238.00,0.7768
6237.00,0.7842
6236.00,0.7920
6235.00,0.7999
6234.00,0.8081
6233.00,0.8166
6232.00,0.8254
6231.00,0.8343
6230.00,0.8434
6229.00,0.8529
6228.00,0.8627
6227.00,0.8726
6226.00,0.8822
6225.00,0.8919
6224.00,0.9016
6223.00,0.9114
6222.00,0.9213
6221.00,0.9313
6220.00,0.9414
6219.00,0.9512
6218.00,0.9609
6217.00,0.9705
6216.00,0.9800
6215.00,0.9897
6214.00,0.9995
6213.00,1.0093
6212.00,1.0190
6211.00,1.0285
6210.00,1.0378
6209.00,1.0469
6208.00,1.0558
6207.00,1.0645
6206.00,1.0731
6205.00,1.0816
6204.00,1.0897
6203.00,1.0973
6202.00,1.1048
6201.00,1.1123
6200.00,1.1197
6199.00,1.1267
6198.00,1.1332
6197.00,1.1395
6196.00,1.1457
6195.00,1.1516
6194.00,1.1570
6193.00,1.1620
6192.00,1.1667
6191.00,1.1712
6190.00,1.1751
6189.00,1.1785
6188.00,1.1814
6187.00,1.1842
6186.00,1.1869
6185.00,1.1895
6184.00,1.1920
6183.00,1.1942
6182.00,1.1961
6181.00,1.1977
6180.00,1.1986
6179.00,1.1988
6178.00,1.1984
6177.00,1.1976
6176.00,1.1965
6175.00,1.1950
6174.00,1.1931
6173.00,1.1909
6172.00,1.1884
6171.00,1.1856
6170.00,1.1827
6169.00,1.1795
6168.00,1.1760
6167.00,1.1722
6166.00,1.1683
6165.00,1.1642
6164.00,1.1595
6163.00,1.1542
6162.00,1.1485
6161.00,1.1426
6160.00,1.1362
6159.00,1.1291
6158.00,1.1217
6157.00,1.1141
6156.00,1.1063
6155.00,1.0981
6154.00,1.0895
6153.00,1.0807
6152.00,1.0717
6151.00,1.0622
6150.00,1.0522
6149.00,1.0420
6148.00,1.0317
6147.00,1.0213
6146.00,1.0108
6145.00,1.0001
6144.00,0.9894
6143.00,0.9786
6142.00,0.9675
6141.00,0.9563
6140.00,0.9451
6139.00,0.9337
6138.00,0.9222
6137.00,0.9107
6136.00,0.8993
6135.00,0.8879
6134.00,0.8766
6133.00,0.8654
6132.00,0.8546
6131.00,0.8441
6130.00,0.8338
6129.00,0.8237
6128.00,0.8138
6127.00,0.8043
6126.00,0.7951
6125.00,0.7863
6124.00,0.7779
6123.00,0.7699
6122.00,0.7622
6121.00,0.7551
6120.00,0.7484
6119.00,0.7424
6118.00,0.7370
6117.00,0.7324
6116.00,0.7283
6115.00,0.7248
6114.00,0.7219
6113.00,0.7195
6112.00,0.7177
6111.00,0.7166
6110.00,0.7161
6109.00,0.7162
6108.00,0.7171
6107.00,0.7186
6106.00,0.7206
6105.00,0.7231
6104.00,0.7262
6103.00,0.7300
6102.00,0.7344
6101.00,0.7394
6100.00,0.7448
6099.00,0.7507
6098.00,0.7570
6097.00,0.7636
6096.00,0.7706
6095.00,0.7781
6094.00,0.7861
6093.00,0.7943
6092.00,0.8028
6091.00,0.8114
6090.00,0.8203
6089.00,0.8294
6088.00,0.8387
6087.00,0.8481
6086.00,0.8579
6085.00,0.8679
6084.00,0.8779
6083.00,0.8878
6082.00,0.8976
6081.00,0.9075
6080.00,0.9174
6079.00,0.9274
6078.00,0.9376
6077.00,0.9479
6076.00,0.9584
6075.00,0.9688
6074.00,0.9790
6073.00,0.9891
6072.00,0.9989
6071.00,1.0085
6070.00,1.0180
6069.00,1.0273
6068.00,1.0366
6067.00,1.0458
6066.00,1.0548
6065.00,1.0634
6064.00,1.0714
6063.00,1.0790
6062.00,1.0866
6061.00,1.0943
6060.00,1.1017
6059.00,1.1090
6058.00,1.1162
6057.00,1.1234
6056.00,1.1303
6055.00,1.1367
6054.00,1.1424
6053.00,1.1477
6052.00,1.1524
6051.00,1.1565
6050.00,1.1603
6049.00,1.1640
6048.00,1.1677
6047.00,1.1713
6046.00,1.1747
6045.00,1.1776
6044.00,1.1800
6043.00,1.1818
6042.00,1.1832
6041.00,1.1844
6040.00,1.1854
6039.00,1.1860
6038.00,1.1862
6037.00,1.1862
6036.00,1.1858
6035.00,1.1851
6034.00,1.1841
6033.00,1.1831
6032.00,1.1816
6031.00,1.1798
6030.00,1.1774
6029.00,1.1747
6028.00,1.1717
6027.00,1.1684
6026.00,1.1649
6025.00,1.1611
6024.00,1.1568
6023.00,1.1519
6022.00,1.1465
6021.00,1.1409
6020.00,1.1350
6019.00,1.1286
6018.00,1.1220
6017.00,1.1152
6016.00,1.1080
6015.00,1.1004
6014.00,1.0922
6013.00,1.0838
6012.00,1.0751
6011.00,1.0660
6010.00,1.0565
6009.00,1.0470
6008.00,1.0373
6007.00,1.0275
6006.00,1.0176
6005.00,1.0076
6004.00,0.9974
6003.00,0.9869
6002.00,0.9759
6001.00,0.9647
6000.00,0.9535
5999.00,0.9422
5998.00,0.9307
5997.00,0.9191
5996.00,0.9074
5995.00,0.8957
5994.00,0.8841
5993.00,0.8726
5992.00,0.8612
5991.00,0.8500
5990.00,0.8391
5989.00,0.8283
5988.00,0.8177
5987.00,0.8070
5986.00,0.7967
5985.00,0.7867
5984.00,0.7774
5983.00,0.7685
5982.00,0.7601
5981.00,0.7523
5980.00,0.7449
5979.00,0.7379
5978.00,0.7315
5977.00,0.7256
5976.00,0.7203
5975.00,0.7156
5974.00,0.7115
5973.00,0.7082
5972.00,0.7056
5971.00,0.7037
5970.00,0.7025
5969.00,0.7023
5968.00,0.7028
5967.00,0.7040
5966.00,0.7058
5965.00,0.7083
5964.00,0.7115
5963.00,0.7153
5962.00,0.7197
5961.00,0.7248
5960.00,0.7306
5959.00,0.7369
5958.00,0.7437
5957.00,0.7510
5956.00,0.7585
5955.00,0.7662
5954.00,0.7741
5953.00,0.7821
5952.00,0.7902
5951.00,0.7984
5950.00,0.8066
5949.00,0.8148
5948.00,0.8229
5947.00,0.8310
5946.00,0.8394
5945.00,0.8480
5944.00,0.8568
5943.00,0.8659
5942.00,0.8752
5941.00,0.8847
5940.00,0.8944
5939.00,0.9042
5938.00,0.9143
5937.00,0.9245
5936.00,0.9348
5935.00,0.9450
5934.00,0.9552
5933.00,0.9655
5932.00,0.9758
5931.00,0.9860
5930.00,0.9963
5929.00,1.0065
5928.00,1.0166
5927.00,1.0264
5926.00,1.0360
5925.00,1.0456
5924.00,1.0550
5923.00,1.0641
5922.00,1.0731
5921.00,1.0820
5920.00,1.0908
5919.00,1.0995
5918.00,1.1078
5917.00,1.1157
5916.00,1.1232
5915.00,1.1302
5914.00,1.1368
5913.00,1.1431
5912.00,1.1491
5911.00,1.1549
5910.00,1.1605
5909.00,1.1659
5908.00,1.1709
5907.00,1.1755
5906.00,1.1799
5905.00,1.1841
5904.00,1.1881
5903.00,1.1916
5902.00,1.1947
5901.00,1.1973
5900.00,1.1994
5899.00,1.2009
5898.00,1.2020
5897.00,1.2027
5896.00,1.2032
5895.00,1.2032
5894.00,1.2029
5893.00,1.2024
5892.00,1.2017
5891.00,1.2005
5890.00,1.1991
5889.00,1.1976
5888.00,1.1960
5887.00,1.1941
5886.00,1.1915
5885.00,1.1882
5884.00,1.1842
5883.00,1.1796
5882.00,1.1744
5881.00,1.1688
5880.00,1.1631
5879.00,1.1572
5878.00,1.1511
5877.00,1.1446
5876.00,1.1378
5875.00,1.1308
5874.00,1.1235
5873.00,1.1158
5872.00,1.1076
5871.00,1.0990
5870.00,1.0900
5869.00,1.0806
5868.00,1.0706
5867.00,1.0601
5866.00,1.0494
5865.00,1.0388
5864.00,1.0282
5863.00,1.0177
5862.00,1.0070
5861.00,0.9962
5860.00,0.9850
5859.00,0.9735
5858.00,0.9618
5857.00,0.9499
5856.00,0.9381
5855.00,0.9264
5854.00,0.9148
5853.00,0.9032
5852.00,0.8915
5851.00,0.8799
5850.00,0.8684
5849.00,0.8571
5848.00,0.8460
5847.00,0.8350
5846.00,0.8243
5845.00,0.8140
5844.00,0.8040
5843.00,0.7944
5842.00,0.7851
5841.00,0.7764
5840.00,0.7680
5839.00,0.7601
5838.00,0.7527
5837.00,0.7459
5836.00,0.7397
5835.00,0.7340
5834.00,0.7288
5833.00,0.7243
5832.00,0.7204
5831.00,0.7169
5830.00,0.7138
5829.00,0.7112
5828.00,0.7092
5827.00,0.7079
5826.00,0.7073
5825.00,0.7073
5824.00,0.7078
5823.00,0.7088
5822.00,0.7105
5821.00,0.7128
5820.00,0.7157
5819.00,0.7192
5818.00,0.7235
5817.00,0.7285
5816.00,0.7341
5815.00,0.7402
5814.00,0.7467
5813.00,0.7538
5812.00,0.7613
5811.00,0.7691
5810.00,0.7772
5809.00,0.7856
5808.00,0.7943
5807.00,0.8032
5806.00,0.8124
5805.00,0.8219
5804.00,0.8318
5803.00,0.8418
5802.00,0.8521
5801.00,0.8625
5800.00,0.8731
5799.00,0.8837
5798.00,0.8942
5797.00,0.9047
5796.00,0.9153
5795.00,0.9259
5794.00,0.9366
5793.00,0.9474
5792.00,0.9582
5791.00,0.9690
5790.00,0.9797
5789.00,0.9902
5788.00,1.0005
5787.00,1.0106
5786.00,1.0207
5785.00,1.0307
5784.00,1.0407
5783.00,1.0504
5782.00,1.0599
5781.00,1.0694
5780.00,1.0788
5779.00,1.0881
5778.00,1.0971
5777.00,1.1058
5776.00,1.1144
5775.00,1.1225
5774.00,1.1301
5773.00,1.1372
5772.00,1.1440
5771.00,1.1503
5770.00,1.1562
5769.00,1.1619
5768.00,1.1675
5767.00,1.1731
5766.00,1.1786
5765.00,1.1838
5764.00,1.1886
5763.00,1.1929
5762.00,1.1967
5761.00,1.2000
5760.00,1.2029
5759.00,1.2055
5758.00,1.2077
5757.00,1.2094
5756.00,1.2106
5755.00,1.2113
5754.00,1.2117
5753.00,1.2119
5752.00,1.2118
5751.00,1.2113
5750.00,1.2104
5749.00,1.2090
5748.00,1.2074
5747.00,1.2055
5746.00,1.2031
5745.00,1.2003
5744.00,1.1973
5743.00,1.1941
5742.00,1.1906
5741.00,1.1868
5740.00,1.1826
5739.00,1.1778
5738.00,1.1724
5737.00,1.1665
5736.00,1.1602
5735.00,1.1538
5734.00,1.1474
5733.00,1.1407
5732.00,1.1336
5731.00,1.1260
5730.00,1.1178
5729.00,1.1089
5728.00,1.0996
5727.00,1.0899
5726.00,1.0801
5725.00,1.0701
5724.00,1.0599
5723.00,1.0497
5722.00,1.0394
5721.00,1.0288
5720.00,1.0177
5719.00,1.0061
5718.00,0.9939
5717.00,0.9814
5716.00,0.9687
5715.00,0.9559
5714.00,0.9432
5713.00,0.9307
5712.00,0.9182
5711.00,0.9056
5710.00,0.8931
5709.00,0.8804
5708.00,0.8678
5707.00,0.8552
5706.00,0.8429
5705.00,0.8307
5704.00,0.8189
5703.00,0.8072
5702.00,0.7958
5701.00,0.7847
5700.00,0.7739
5699.00,0.7634
5698.00,0.7534
5697.00,0.7440
5696.00,0.7351
5695.00,0.7267
5694.00,0.7187
5693.00,0.7114
5692.00,0.7046
5691.00,0.6984
5690.00,0.6929
5689.00,0.6881
5688.00,0.6842
5687.00,0.6810
5686.00,0.6786
5685.00,0.6771
5684.00,0.6763
5683.00,0.6762
5682.00,0.6770
5681.00,0.6785
5680.00,0.6806
5679.00,0.6834
5678.00,0.6869
5677.00,0.6911
5676.00,0.6961
5675.00,0.7016
5674.00,0.7078
5673.00,0.7146
5672.00,0.7219
5671.00,0.7295
5670.00,0.7375
5669.00,0.7459
5668.00,0.7546
5667.00,0.7637
5666.00,0.7732
5665.00,0.7832
5664.00,0.7934
5663.00,0.8038
5662.00,0.8143
5661.00,0.8250
5660.00,0.8359
5659.00,0.8470
5658.00,0.8582
5657.00,0.8696
5656.00,0.8811
5655.00,0.8926
5654.00,0.9040
5653.00,0.9155
5652.00,0.9270
5651.00,0.9386
5650.00,0.9502
5649.00,0.9617
5648.00,0.9731
5647.00,0.9845
5646.00,0.9960
5645.00,1.0074
5644.00,1.0187
5643.00,1.0299
5642.00,1.0408
5641.00,1.0513
5640.00,1.0615
5639.00,1.0713
5638.00,1.0808
5637.00,1.0902
5636.00,1.0994
5635.00,1.1086
5634.00,1.1177
5633.00,1.1265
5632.00,1.1349
5631.00,1.1428
5630.00,1.1502
5629.00,1.1571
5628.00,1.1636
5627.00,1.1699
5626.00,1.1759
5625.00,1.1817
5624.00,1.1872
5623.00,1.1923
5622.00,1.1972
5621.00,1.2017
5620.00,1.2060
5619.00,1.2099
5618.00,1.2133
5617.00,1.2163
5616.00,1.2187
5615.00,1.2207
5614.00,1.2223
5613.00,1.2235
5612.00,1.2246
5611.00,1.2256
5610.00,1.2264
5609.00,1.2267
5608.00,1.2265
5607.00,1.2258
5606.00,1.2247
5605.00,1.2231
5604.00,1.2208
5603.00,1.2180
5602.00,1.2146
5601.00,1.2109
5600.00,1.2067
5599.00,1.2024
5598.00,1.1981
5597.00,1.1938
5596.00,1.1890
5595.00,1.1836
5594.00,1.1776
5593.00,1.1712
5592.00,1.1643
5591.00,1.1570
5590.00,1.1494
5589.00,1.1415
5588.00,1.1334
5587.00,1.1249
5586.00,1.1161
5585.00,1.1071
5584.00,1.0975
5583.00,1.0874
5582.00,1.0768
5581.00,1.0658
5580.00,1.0545
5579.00,1.0428
5578.00,1.0310
5577.00,1.0190
5576.00,1.0068
5575.00,0.9942
5574.00,0.9814
5573.00,0.9683
5572.00,0.9552
5571.00,0.9419
5570.00,0.9286
5569.00,0.9154
5568.00,0.9022
5567.00,0.8890
5566.00,0.8759
5565.00,0.8629
5564.00,0.8500
5563.00,0.8373
5562.00,0.8248
5561.00,0.8127
5560.00,0.8008
5559.00,0.7891
5558.00,0.7778
5557.00,0.7669
5556.00,0.7566
5555.00,0.7468
5554.00,0.7376
5553.00,0.7291
5552.00,0.7211
5551.00,0.7138
5550.00,0.7071
5549.00,0.7011
5548.00,0.6959
5547.00,0.6914
5546.00,0.6876
5545.00,0.6846
5544.00,0.6823
5543.00,0.6808
5542.00,0.6801
5541.00,0.6802
5540.00,0.6812
5539.00,0.6831
5538.00,0.6857
5537.00,0.6892
5536.00,0.6933
5535.00,0.6980
5534.00,0.7035
5533.00,0.7096
5532.00,0.7163
5531.00,0.7237
5530.00,0.7317
5529.00,0.7401
5528.00,0.7490
5527.00,0.7583
5526.00,0.7680
5525.00,0.7780
5524.00,0.7883
5523.00,0.7989
5522.00,0.8099
5521.00,0.8211
5520.00,0.8325
5519.00,0.8442
5518.00,0.8561
5517.00,0.8682
5516.00,0.8805
5515.00,0.8928
5514.00,0.9051
5513.00,0.9174
5512.00,0.9295
5511.00,0.9414
5510.00,0.9533
5509.00,0.9653
5508.00,0.9775
5507.00,0.9897
5506.00,1.0019
5505.00,1.0140
5504.00,1.0257
5503.00,1.0371
5502.00,1.0484
5501.00,1.0596
5500.00,1.0708
5499.00,1.0819
5498.00,1.0928
5497.00,1.1032
5496.00,1.1131
5495.00,1.1226
5494.00,1.1318
5493.00,1.1408
5492.00,1.1496
5491.00,1.1580
5490.00,1.1662
5489.00,1.1740
5488.00,1.1813
5487.00,1.1882
5486.00,1.1948
5485.00,1.2013
5484.00,1.2076
5483.00,1.2136
5482.00,1.2193
5481.00,1.2243
5480.00,1.2287
5479.00,1.2324
5478.00,1.2359
5477.00,1.2392
5476.00,1.2424
5475.00,1.2453
5474.00,1.2478
5473.00,1.2499
5472.00,1.2515
5471.00,1.2526
5470.00,1.2532
5469.00,1.2534
5468.00,1.2532
5467.00,1.2526
5466.00,1.2516
5465.00,1.2502
5464.00,1.2482
5463.00,1.2459
5462.00,1.2433
5461.00,1.2403
5460.00,1.2368
5459.00,1.2330
5458.00,1.2288
5457.00,1.2244
5456.00,1.2196
5455.00,1.2145
5454.00,1.2090
5453.00,1.2033
5452.00,1.1971
5451.00,1.1906
5450.00,1.1835
5449.00,1.1761
5448.00,1.1683
5447.00,1.1600
5446.00,1.1511
5445.00,1.1417
5444.00,1.1316
5443.00,1.1211
5442.00,1.1105
5441.00,1.0998
5440.00,1.0887
5439.00,1.0773
5438.00,1.0655
5437.00,1.0537
5436.00,1.0416
5435.00,1.0291
5434.00,1.0161
5433.00,1.0028
5432.00,0.9892
5431.00,0.9755
5430.00,0.9616
5429.00,0.9474
5428.00,0.9328
5427.00,0.9181
5426.00,0.9036
5425.00,0.8894
5424.00,0.8755
5423.00,0.8619
5422.00,0.8485
5421.00,0.8355
5420.00,0.8228
5419.00,0.8104
5418.00,0.7982
5417.00,0.7862
5416.00,0.7746
5415.00,0.7633
5414.00,0.7522
5413.00,0.7413
5412.00,0.7309
5411.00,0.7212
5410.00,0.7124
5409.00,0.7044
5408.00,0.6973
5407.00,0.6911
5406.00,0.6859
5405.00,0.6817
5404.00,0.6784
5403.00,0.6759
5402.00,0.6742
5401.00,0.6734
5400.00,0.6735
5399.00,0.6744
5398.00,0.6760
5397.00,0.6784
5396.00,0.6814
5395.00,0.6853
5394.00,0.6898
5393.00,0.6952
5392.00,0.7011
5391.00,0.7077
5390.00,0.7150
5389.00,0.7229
5388.00,0.7313
5387.00,0.7404
5386.00,0.7501
5385.00,0.7602
5384.00,0.7708
5383.00,0.7817
5382.00,0.7930
5381.00,0.8044
5380.00,0.8160
5379.00,0.8278
5378.00,0.8399
5377.00,0.8522
5376.00,0.8647
5375.00,0.8773
5374.00,0.8900
5373.00,0.9028
5372.00,0.9155
5371.00,0.9282
5370.00,0.9410
5369.00,0.9540
5368.00,0.9668
5367.00,0.9795
5366.00,0.9922
5365.00,1.0049
5364.00,1.0176
5363.00,1.0303
5362.00,1.0430
5361.00,1.0557
5360.00,1.0681
5359.00,1.0801
5358.00,1.0916
5357.00,1.1027
5356.00,1.1135
5355.00,1.1240
5354.00,1.1343
5353.00,1.1445
5352.00,1.1545
5351.00,1.1643
5350.00,1.1741
5349.00,1.1833
5348.00,1.1920
5347.00,1.2000
5346.00,1.2076
5345.00,1.2150
5344.00,1.2222
5343.00,1.2290
5342.00,1.2352
5341.00,1.2408
5340.00,1.2460
5339.00,1.2509
5338.00,1.2556
5337.00,1.2600
5336.00,1.2641
5335.00,1.2679
5334.00,1.2715
5333.00,1.2746
5332.00,1.2772
5331.00,1.2792
5330.00,1.2808
5329.00,1.2820
5328.00,1.2828
5327.00,1.2833
5326.00,1.2835
5325.00,1.2831
5324.00,1.2822
5323.00,1.2809
5322.00,1.2793
5321.00,1.2774
5320.00,1.2752
5319.00,1.2729
5318.00,1.2703
5317.00,1.2671
5316.00,1.2632
5315.00,1.2587
5314.00,1.2536
5313.00,1.2484
5312.00,1.2430
5311.00,1.2373
5310.00,1.2311
5309.00,1.2244
5308.00,1.2172
5307.00,1.2095
5306.00,1.2013
5305.00,1.1927
5304.00,1.1837
5303.00,1.1745
5302.00,1.1649
5301.00,1.1549
5300.00,1.1444
5299.00,1.1338
5298.00,1.1227
5297.00,1.1113
5296.00,1.0994
5295.00,1.0873
5294.00,1.0750
5293.00,1.0624
5292.00,1.0494
5291.00,1.0360
5290.00,1.0222
5289.00,1.0079
5288.00,0.9935
5287.00,0.9790
5286.00,0.9648
5285.00,0.9506
5284.00,0.9364
5283.00,0.9221
5282.00,0.9079
5281.00,0.8939
5280.00,0.8799
5279.00,0.8660
5278.00,0.8523
5277.00,0.8389
5276.00,0.8260
5275.00,0.8135
5274.00,0.8016
5273.00,0.7902
5272.00,0.7794
5271.00,0.7692
5270.00,0.7595
5269.00,0.7505
5268.00,0.7420
5267.00,0.7341
5266.00,0.7270
5265.00,0.7206
5264.00,0.7150
5263.00,0.7100
5262.00,0.7059
5261.00,0.7027
5260.00,0.7007
5259.00,0.6996
5258.00,0.6994
5257.00,0.7002
5256.00,0.7019
5255.00,0.7045
5254.00,0.7078
5253.00,0.7118
5252.00,0.7163
5251.00,0.7216
5250.00,0.7276
5249.00,0.7345
5248.00,0.7419
5247.00,0.7499
5246.00,0.7584
5245.00,0.7675
5244.00,0.7770
5243.00,0.7870
5242.00,0.7973
5241.00,0.8080
5240.00,0.8192
5239.00,0.8308
5238.00,0.8427
5237.00,0.8549
5236.00,0.8674
5235.00,0.8800
5234.00,0.8928
5233.00,0.9058
5232.00,0.9190
5231.00,0.9322
5230.00,0.9455
5229.00,0.9587
5228.00,0.9718
5227.00,0.9849
5226.00,0.9980
5225.00,1.0111
5224.00,1.0241
5223.00,1.0370
5222.00,1.0499
5221.00,1.0629
5220.00,1.0757
5219.00,1.0884
5218.00,1.1008
5217.00,1.1128
5216.00,1.1244
5215.00,1.1358
5214.00,1.1471
5213.00,1.1581
5212.00,1.1688
5211.00,1.1791
5210.00,1.1890
5209.00,1.1987
5208.00,1.2081
5207.00,1.2172
5206.00,1.2260
5205.00,1.2343
5204.00,1.2421
5203.00,1.2495
5202.00,1.2567
5201.00,1.2636
5200.00,1.2703
5199.00,1.2766
5198.00,1.2825
5197.00,1.2878
5196.00,1.2926
5195.00,1.2968
5194.00,1.3006
5193.00,1.3040
5192.00,1.3070
5191.00,1.3095
5190.00,1.3115
5189.00,1.3130
5188.00,1.3139
5187.00,1.3144
5186.00,1.3146
5185.00,1.3147
5184.00,1.3144
5183.00,1.3137
5182.00,1.3126
5181.00,1.3111
5180.00,1.3091
5179.00,1.3067
5178.00,1.3040
5177.00,1.3012
5176.00,1.2981
5175.00,1.2946
5174.00,1.2905
5173.00,1.2858
5172.00,1.2806
5171.00,1.2750
5170.00,1.2692
5169.00,1.2632
5168.00,1.2568
5167.00,1.2499
5166.00,1.2425
5165.00,1.2345
5164.00,1.2260
5163.00,1.2171
5162.00,1.2078
5161.00,1.1980
5160.00,1.1878
5159.00,1.1772
5158.00,1.1662
5157.00,1.1549
5156.00,1.1431
5155.00,1.1307
5154.00,1.1179
5153.00,1.1048
5152.00,1.0914
5151.00,1.0778
5150.00,1.0640
5149.00,1.0498
5148.00,1.0353
5147.00,1.0204
5146.00,1.0053
5145.00,0.9901
5144.00,0.9746
5143.00,0.9591
5142.00,0.9436
5141.00,0.9281
5140.00,0.9126
5139.00,0.8973
5138.00,0.8822
5137.00,0.8673
5136.00,0.8526
5135.00,0.8381
5134.00,0.8240
5133.00,0.8103
5132.00,0.7971
5131.00,0.7844
5130.00,0.7723
5129.00,0.7608
5128.00,0.7501
5127.00,0.7400
5126.00,0.7308
5125.00,0.7223
5124.00,0.7147
5123.00,0.7078
5122.00,0.7018
5121.00,0.6967
5120.00,0.6925
5119.00,0.6893
5118.00,0.6870
5117.00,0.6857
5116.00,0.6854
5115.00,0.6861
5114.00,0.6879
5113.00,0.6906
5112.00,0.6942
5111.00,0.6986
5110.00,0.7039
5109.00,0.7100
5108.00,0.7168
5107.00,0.7245
5106.00,0.7329
5105.00,0.7420
5104.00,0.7517
5103.00,0.7619
5102.00,0.7727
5101.00,0.7840
5100.00,0.7957
5099.00,0.8079
5098.00,0.8204
5097.00,0.8333
5096.00,0.8464
5095.00,0.8598
5094.00,0.8734
5093.00,0.8873
5092.00,0.9014
5091.00,0.9156
5090.00,0.9298
5089.00,0.9441
5088.00,0.9584
5087.00,0.9727
5086.00,0.9870
5085.00,1.0013
5084.00,1.0155
5083.00,1.0296
5082.00,1.0436
5081.00,1.0576
5080.00,1.0715
5079.00,1.0851
5078.00,1.0986
5077.00,1.1117
5076.00,1.1247
5075.00,1.1374
5074.00,1.1499
5073.00,1.1622
5072.00,1.1743
5071.00,1.1859
5070.00,1.1971
5069.00,1.2078
5068.00,1.2180
5067.00,1.2277
5066.00,1.2370
5065.00,1.2461
5064.00,1.2551
5063.00,1.2638
5062.00,1.2721
5061.00,1.2801
5060.00,1.2875
5059.00,1.2942
5058.00,1.3005
5057.00,1.3064
5056.00,1.3120
5055.00,1.3172
5054.00,1.3220
5053.00,1.3264
5052.00,1.3304
5051.00,1.3339
5050.00,1.3372
5049.00,1.3402
5048.00,1.3430
5047.00,1.3453
5046.00,1.3471
5045.00,1.3483
5044.00,1.3490
5043.00,1.3494
5042.00,1.3493
5041.00,1.3489
5040.00,1.3479
5039.00,1.3466
5038.00,1.3451
5037.00,1.3434
5036.00,1.3414
5035.00,1.3388
5034.00,1.3355
5033.00,1.3315
5032.00,1.3270
5031.00,1.3221
5030.00,1.3171
5029.00,1.3120
5028.00,1.3065
5027.00,1.3005
5026.00,1.2941
5025.00,1.2873
5024.00,1.2800
5023.00,1.2720
5022.00,1.2634
5021.00,1.2542
5020.00,1.2446
5019.00,1.2346
5018.00,1.2245
5017.00,1.2141
5016.00,1.2032
5015.00,1.1918
5014.00,1.1798
5013.00,1.1673
5012.00,1.1544
5011.00,1.1412
5010.00,1.1275
5009.00,1.1136
5008.00,1.0993
5007.00,1.0848
5006.00,1.0699
5005.00,1.0548
5004.00,1.0396
5003.00,1.0241
5002.00,1.0085
5001.00,0.9927
5000.00,0.9767
4999.00,0.9607
4998.00,0.9447
4997.00,0.9287
4996.00,0.9129
4995.00,0.8972
4994.00,0.8817
4993.00,0.8663
4992.00,0.8513
4991.00,0.8366
4990.00,0.8225
4989.00,0.8089
4988.00,0.7959
4987.00,0.7834
4986.00,0.7716
4985.00,0.7605
4984.00,0.7502
4983.00,0.7407
4982.00,0.7320
4981.00,0.7244
4980.00,0.7176
4979.00,0.7118
4978.00,0.7071
4977.00,0.7034
4976.00,0.7008
4975.00,0.6993
4974.00,0.6989
4973.00,0.6995
4972.00,0.7012
4971.00,0.7038
4970.00,0.7075
4969.00,0.7122
4968.00,0.7179
4967.00,0.7245
4966.00,0.7320
4965.00,0.7403
4964.00,0.7494
4963.00,0.7591
4962.00,0.7694
4961.00,0.7803
4960.00,0.7918
4959.00,0.8039
4958.00,0.8165
4957.00,0.8295
4956.00,0.8429
4955.00,0.8565
4954.00,0.8704
4953.00,0.8846
4952.00,0.8989
4951.00,0.9135
4950.00,0.9281
4949.00,0.9429
4948.00,0.9577
4947.00,0.9726
4946.00,0.9876
4945.00,1.0027
4944.00,1.0177
4943.00,1.0326
4942.00,1.0475
4941.00,1.0621
4940.00,1.0766
4939.00,1.0908
4938.00,1.1050
4937.00,1.1190
4936.00,1.1329
4935.00,1.1465
4934.00,1.1597
4933.00,1.1727
4932.00,1.1854
4931.00,1.1977
4930.00,1.2098
4929.00,1.2216
4928.00,1.2331
4927.00,1.2442
4926.00,1.2548
4925.00,1.2650
4924.00,1.2748
4923.00,1.2840
4922.00,1.2928
4921.00,1.3012
4920.00,1.3094
4919.00,1.3172
4918.00,1.3246
4917.00,1.3317
4916.00,1.3382
4915.00,1.3441
4914.00,1.3495
4913.00,1.3546
4912.00,1.3594
4911.00,1.3637
4910.00,1.3675
4909.00,1.3708
4908.00,1.3738
4907.00,1.3765
4906.00,1.3787
4905.00,1.3806
4904.00,1.3822
4903.00,1.3834
4902.00,1.3840
4901.00,1.3841
4900.00,1.3836
4899.00,1.3826
4898.00,1.3811
4897.00,1.3794
4896.00,1.3775
4895.00,1.3753
4894.00,1.3728
4893.00,1.3698
4892.00,1.3662
4891.00,1.3620
4890.00,1.3573
4889.00,1.3522
4888.00,1.3468
4887.00,1.3409
4886.00,1.3345
4885.00,1.3277
4884.00,1.3205
4883.00,1.3130
4882.00,1.3051
4881.00,1.2968
4880.00,1.2878
4879.00,1.2782
4878.00,1.2679
4877.00,1.2573
4876.00,1.2463
4875.00,1.2351
4874.00,1.2235
4873.00,1.2115
4872.00,1.1989
4871.00,1.1858
4870.00,1.1721
4869.00,1.1581
4868.00,1.1437
4867.00,1.1290
4866.00,1.1139
4865.00,1.0985
4864.00,1.0828
4863.00,1.0667
4862.00,1.0504
4861.00,1.0339
4860.00,1.0171
4859.00,1.0002
4858.00,0.9833
4857.00,0.9665
4856.00,0.9497
4855.00,0.9329
4854.00,0.9162
4853.00,0.8996
4852.00,0.8832
4851.00,0.8671
4850.00,0.8514
4849.00,0.8362
4848.00,0.8214
4847.00,0.8073
4846.00,0.7939
4845.00,0.7812
4844.00,0.7692
4843.00,0.7579
4842.00,0.7475
4841.00,0.7379
4840.00,0.7292
4839.00,0.7215
4838.00,0.7149
4837.00,0.7094
4836.00,0.7050
4835.00,0.7017
4834.00,0.6996
4833.00,0.6986
4832.00,0.6988
4831.00,0.7000
4830.00,0.7024
4829.00,0.7059
4828.00,0.7105
4827.00,0.7161
4826.00,0.7227
4825.00,0.7302
4824.00,0.7387
4823.00,0.7480
4822.00,0.7580
4821.00,0.7688
4820.00,0.7802
4819.00,0.7923
4818.00,0.8049
4817.00,0.8181
4816.00,0.8316
4815.00,0.8455
4814.00,0.8598
4813.00,0.8744
4812.00,0.8893
4811.00,0.9045
4810.00,0.9198
4809.00,0.9354
4808.00,0.9511
4807.00,0.9670
4806.00,0.9828
4805.00,0.9987
4804.00,1.0145
4803.00,1.0304
4802.00,1.0462
4801.00,1.0620
4800.00,1.0777
4799.00,1.0932
4798.00,1.1085
4797.00,1.1236
4796.00,1.1385
4795.00,1.1531
4794.00,1.1676
4793.00,1.1817
4792.00,1.1955
4791.00,1.2089
4790.00,1.2220
4789.00,1.2347
4788.00,1.2472
4787.00,1.2593
4786.00,1.2712
4785.00,1.2827
4784.00,1.2938
4783.00,1.3044
4782.00,1.3144
4781.00,1.3238
4780.00,1.3327
4779.00,1.3412
4778.00,1.3493
4777.00,1.3572
4776.00,1.3647
4775.00,1.3718
4774.00,1.3786
4773.00,1.3849
4772.00,1.3907
4771.00,1.3961
4770.00,1.4010
4769.00,1.4056
4768.00,1.4097
4767.00,1.4131
4766.00,1.4159
4765.00,1.4181
4764.00,1.4198
4763.00,1.4213
4762.00,1.4225
4761.00,1.4236
4760.00,1.4243
4759.00,1.4247
4758.00,1.4247
4757.00,1.4243
4756.00,1.4234
4755.00,1.4220
4754.00,1.4202
4753.00,1.4179
4752.00,1.4154
4751.00,1.4123
4750.00,1.4088
4749.00,1.4047
4748.00,1.4000
4747.00,1.3948
4746.00,1.3892
4745.00,1.3833
4744.00,1.3769
4743.00,1.3702
4742.00,1.3631
4741.00,1.3558
4740.00,1.3480
4739.00,1.3396
4738.00,1.3304
4737.00,1.3206
4736.00,1.3102
4735.00,1.2995
4734.00,1.2885
4733.00,1.2771
4732.00,1.2651
4731.00,1.2525
4730.00,1.2394
4729.00,1.2259
4728.00,1.2120
4727.00,1.1976
4726.00,1.1828
4725.00,1.1675
4724.00,1.1517
4723.00,1.1355
4722.00,1.1190
4721.00,1.1022
4720.00,1.0852
4719.00,1.0680
4718.00,1.0504
4717.00,1.0326
4716.00,1.0146
4715.00,0.9965
4714.00,0.9784
4713.00,0.9603
4712.00,0.9423
4711.00,0.9244
4710.00,0.9068
4709.00,0.8896
4708.00,0.8728
4707.00,0.8566
4706.00,0.8408
4705.00,0.8256
4704.00,0.8110
4703.00,0.7971
4702.00,0.7841
4701.00,0.7720
4700.00,0.7609
4699.00,0.7508
4698.00,0.7417
4697.00,0.7338
4696.00,0.7269
4695.00,0.7213
4694.00,0.7168
4693.00,0.7136
4692.00,0.7116
4691.00,0.7109
4690.00,0.7114
4689.00,0.7132
4688.00,0.7162
4687.00,0.7205
4686.00,0.7259
4685.00,0.7324
4684.00,0.7400
4683.00,0.7485
4682.00,0.7580
4681.00,0.7684
4680.00,0.7796
4679.00,0.7914
4678.00,0.8039
4677.00,0.8170
4676.00,0.8306
4675.00,0.8447
4674.00,0.8592
4673.00,0.8742
4672.00,0.8895
4671.00,0.9053
4670.00,0.9213
4669.00,0.9374
4668.00,0.9537
4667.00,0.9699
4666.00,0.9863
4665.00,1.0027
4664.00,1.0193
4663.00,1.0359
4662.00,1.0525
4661.00,1.0691
4660.00,1.0856
4659.00,1.1020
4658.00,1.1184
4657.00,1.1347
4656.00,1.1508
4655.00,1.1666
4654.00,1.1820
4653.00,1.1969
4652.00,1.2116
4651.00,1.2261
4650.00,1.2404
4649.00,1.2545
4648.00,1.2682
4647.00,1.2814
4646.00,1.2942
4645.00,1.3065
4644.00,1.3183
4643.00,1.3295
4642.00,1.3401
4641.00,1.3501
4640.00,1.3597
4639.00,1.3690
4638.00,1.3780
4637.00,1.3868
4636.00,1.3951
4635.00,1.4030
4634.00,1.4104
4633.00,1.4171
4632.00,1.4231
4631.00,1.4287
4630.00,1.4338
4629.00,1.4387
4628.00,1.4432
4627.00,1.4474
4626.00,1.4513
4625.00,1.4545
4624.00,1.4572
4623.00,1.4593
4622.00,1.4610
4621.00,1.4622
4620.00,1.4631
4619.00,1.4635
4618.00,1.4635
4617.00,1.4631
4616.00,1.4623
4615.00,1.4610
4614.00,1.4592
4613.00,1.4569
4612.00,1.4542
4611.00,1.4512
4610.00,1.4480
4609.00,1.4443
4608.00,1.4400
4607.00,1.4352
4606.00,1.4301
4605.00,1.4249
4604.00,1.4195
4603.00,1.4138
4602.00,1.4078
4601.00,1.4013
4600.00,1.3944
4599.00,1.3869
4598.00,1.3790
4597.00,1.3706
4596.00,1.3616
4595.00,1.3521
4594.00,1.3421
4593.00,1.3317
4592.00,1.3208
4591.00,1.3095
4590.00,1.2975
4589.00,1.2849
4588.00,1.2715
4587.00,1.2575
4586.00,1.2427
4585.00,1.2275
4584.00,1.2118
4583.00,1.1958
4582.00,1.1793
4581.00,1.1624
4580.00,1.1449
4579.00,1.1269
4578.00,1.1086
4577.00,1.0901
4576.00,1.0713
4575.00,1.0524
4574.00,1.0333
4573.00,1.0142
4572.00,0.9950
4571.00,0.9759
4570.00,0.9568
4569.00,0.9379
4568.00,0.9193
4567.00,0.9011
4566.00,0.8833
4565.00,0.8661
4564.00,0.8494
4563.00,0.8334
4562.00,0.8182
4561.00,0.8039
4560.00,0.7906
4559.00,0.7783
4558.00,0.7670
4557.00,0.7569
4556.00,0.7478
4555.00,0.7400
4554.00,0.7335
4553.00,0.7283
4552.00,0.7246
4551.00,0.7222
4550.00,0.7212
4549.00,0.7215
4548.00,0.7232
4547.00,0.7263
4546.00,0.7307
4545.00,0.7363
4544.00,0.7432
4543.00,0.7512
4542.00,0.7603
4541.00,0.7704
4540.00,0.7815
4539.00,0.7934
4538.00,0.8061
4537.00,0.8196
4536.00,0.8337
4535.00,0.8483
4534.00,0.8636
4533.00,0.8793
4532.00,0.8955
4531.00,0.9119
4530.00,0.9287
4529.00,0.9458
4528.00,0.9631
4527.00,0.9807
4526.00,0.9984
4525.00,1.0162
4524.00,1.0339
4523.00,1.0516
4522.00,1.0693
4521.00,1.0870
4520.00,1.1047
4519.00,1.1224
4518.00,1.1401
4517.00,1.1575
4516.00,1.1747
4515.00,1.1915
4514.00,1.2081
4513.00,1.2243
4512.00,1.2401
4511.00,1.2555
4510.00,1.2707
4509.00,1.2856
4508.00,1.3002
4507.00,1.3144
4506.00,1.3281
4505.00,1.3414
4504.00,1.3541
4503.00,1.3663
4502.00,1.3780
4501.00,1.3893
4500.00,1.3999
4499.00,1.4101
4498.00,1.4198
4497.00,1.4292
4496.00,1.4382
4495.00,1.4467
4494.00,1.4544
4493.00,1.4615
4492.00,1.4680
4491.00,1.4741
4490.00,1.4798
4489.00,1.4851
4488.00,1.4899
4487.00,1.4941
4486.00,1.4976
4485.00,1.5005
4484.00,1.5027
4483.00,1.5045
4482.00,1.5061
4481.00,1.5078
4480.00,1.5096
4479.00,1.5113
4478.00,1.5127
4477.00,1.5135
4476.00,1.5137
4475.00,1.5133
4474.00,1.5126
4473.00,1.5116
4472.00,1.5102
4471.00,1.5085
4470.00,1.5062
4469.00,1.5034
4468.00,1.5001
4467.00,1.4962
4466.00,1.4918
4465.00,1.4869
4464.00,1.4815
4463.00,1.4760
4462.00,1.4703
4461.00,1.4644
4460.00,1.4581
4459.00,1.4513
4458.00,1.4438
4457.00,1.4358
4456.00,1.4272
4455.00,1.4183
4454.00,1.4090
4453.00,1.3992
4452.00,1.3891
4451.00,1.3786
4450.00,1.3679
4449.00,1.3570
4448.00,1.3460
4447.00,1.3349
4446.00,1.3237
4445.00,1.3123
4444.00,1.3005
4443.00,1.2885
4442.00,1.2763
4441.00,1.2639
4440.00,1.2514
4439.00,1.2386
4438.00,1.2253
4437.00,1.2115
4436.00,1.1970
4435.00,1.1816
4434.00,1.1654
4433.00,1.1485
4432.00,1.1307
4431.00,1.1122
4430.00,1.0930
4429.00,1.0733
4428.00,1.0533
4427.00,1.0331
4426.00,1.0130
4425.00,0.9931
4424.00,0.9734
4423.00,0.9542
4422.00,0.9356
4421.00,0.9178
4420.00,0.9009
4419.00,0.8849
4418.00,0.8701
4417.00,0.8565
4416.00,0.8442
4415.00,0.8333
4414.00,0.8239
4413.00,0.8162
4412.00,0.8102
4411.00,0.8059
4410.00,0.8034
4409.00,0.8026
4408.00,0.8035
4407.00,0.8061
4406.00,0.8104
4405.00,0.8162
4404.00,0.8234
4403.00,0.8316
4402.00,0.8408
4401.00,0.8507
4400.00,0.8612
4399.00,0.8722
4398.00,0.8835
4397.00,0.8951
4396.00,0.9071
4395.00,0.9194
4394.00,0.9320
4393.00,0.9450
4392.00,0.9584
4391.00,0.9722
4390.00,0.9864
4389.00,1.0011
4388.00,1.0161
4387.00,1.0316
4386.00,1.0474
4385.00,1.0637
4384.00,1.0803
4383.00,1.0971
4382.00,1.1141
4381.00,1.1313
4380.00,1.1486
4379.00,1.1659
4378.00,1.1831
4377.00,1.2003
4376.00,1.2172
4375.00,1.2339
4374.00,1.2503
4373.00,1.2666
4372.00,1.2826
4371.00,1.2982
4370.00,1.3132
4369.00,1.3276
4368.00,1.3413
4367.00,1.3545
4366.00,1.3672
4365.00,1.3793
4364.00,1.3907
4363.00,1.4014
4362.00,1.4116
4361.00,1.4215
4360.00,1.4312
4359.00,1.4406
4358.00,1.4497
4357.00,1.4583
4356.00,1.4667
4355.00,1.4748
4354.00,1.4828
4353.00,1.4905
4352.00,1.4977
4351.00,1.5046
4350.00,1.5112
4349.00,1.5176
4348.00,1.5239
4347.00,1.5299
4346.00,1.5354
4345.00,1.5404
4344.00,1.5450
4343.00,1.5493
4342.00,1.5532
4341.00,1.5569
4340.00,1.5602
4339.00,1.5631
4338.00,1.5655
4337.00,1.5675
4336.00,1.5689
4335.00,1.5697
4334.00,1.5700
4333.00,1.5698
4332.00,1.5692
4331.00,1.5685
4330.00,1.5677
4329.00,1.5667
4328.00,1.5655
4327.00,1.5638
4326.00,1.5617
4325.00,1.5589
4324.00,1.5554
4323.00,1.5512
4322.00,1.5466
4321.00,1.5417
4320.00,1.5366
4319.00,1.5310
4318.00,1.5250
4317.00,1.5184
4316.00,1.5112
4315.00,1.5033
4314.00,1.4949
4313.00,1.4859
4312.00,1.4765
4311.00,1.4665
4310.00,1.4561
4309.00,1.4452
4308.00,1.4337
4307.00,1.4216
4306.00,1.4091
4305.00,1.3960
4304.00,1.3824
4303.00,1.3683
4302.00,1.3535
4301.00,1.3380
4300.00,1.3218
4299.00,1.3050
4298.00,1.2877
4297.00,1.2699
4296.00,1.2517
4295.00,1.2329
4294.00,1.2137
4293.00,1.1941
4292.00,1.1741
4291.00,1.1537
4290.00,1.1329
4289.00,1.1118
4288.00,1.0904
4287.00,1.0688
4286.00,1.0472
4285.00,1.0256
4284.00,1.0042
4283.00,0.9830
4282.00,0.9620
4281.00,0.9415
4280.00,0.9215
4279.00,0.9022
4278.00,0.8836
4277.00,0.8658
4276.00,0.8490
4275.00,0.8332
4274.00,0.8186
4273.00,0.8051
4272.00,0.7930
4271.00,0.7821
4270.00,0.7727
4269.00,0.7648
4268.00,0.7585
4267.00,0.7537
4266.00,0.7506
4265.00,0.7492
4264.00,0.7494
4263.00,0.7512
4262.00,0.7545
4261.00,0.7595
4260.00,0.7659
4259.00,0.7737
4258.00,0.7830
4257.00,0.7935
4256.00,0.8052
4255.00,0.8180
4254.00,0.8317
4253.00,0.8463
4252.00,0.8617
4251.00,0.8779
4250.00,0.8948
4249.00,0.9122
4248.00,0.9301
4247.00,0.9483
4246.00,0.9670
4245.00,0.9860
4244.00,1.0052
4243.00,1.0247
4242.00,1.0443
4241.00,1.0639
4240.00,1.0837
4239.00,1.1036
4238.00,1.1234
4237.00,1.1432
4236.00,1.1629
4235.00,1.1823
4234.00,1.2016
4233.00,1.2206
4232.00,1.2395
4231.00,1.2581
4230.00,1.2765
4229.00,1.2946
4228.00,1.3122
4227.00,1.3294
4226.00,1.3461
4225.00,1.3624
4224.00,1.3783
4223.00,1.3939
4222.00,1.4089
4221.00,1.4233
4220.00,1.4370
4219.00,1.4501
4218.00,1.4626
4217.00,1.4748
4216.00,1.4866
4215.00,1.4978
4214.00,1.5085
4213.00,1.5185
4212.00,1.5278
4211.00,1.5365
4210.00,1.5450
4209.00,1.5533
4208.00,1.5612
4207.00,1.5686
4206.00,1.5754
4205.00,1.5814
4204.00,1.5869
4203.00,1.5920
4202.00,1.5965
4201.00,1.6005
4200.00,1.6043
4199.00,1.6079
4198.00,1.6113
4197.00,1.6141
4196.00,1.6162
4195.00,1.6175
4194.00,1.6183
4193.00,1.6188
4192.00,1.6190
4191.00,1.6187
4190.00,1.6181
4189.00,1.6171
4188.00,1.6157
4187.00,1.6140
4186.00,1.6117
4185.00,1.6091
4184.00,1.6060
4183.00,1.6025
4182.00,1.5983
4181.00,1.5935
4180.00,1.5882
4179.00,1.5827
4178.00,1.5769
4177.00,1.5709
4176.00,1.5644
4175.00,1.5572
4174.00,1.5493
4173.00,1.5408
4172.00,1.5317
4171.00,1.5220
4170.00,1.5120
4169.00,1.5016
4168.00,1.4908
4167.00,1.4795
4166.00,1.4676
4165.00,1.4549
4164.00,1.4415
4163.00,1.4276
4162.00,1.4131
4161.00,1.3982
4160.00,1.3825
4159.00,1.3662
4158.00,1.3493
4157.00,1.3318
4156.00,1.3138
4155.00,1.2952
4154.00,1.2759
4153.00,1.2560
4152.00,1.2353
4151.00,1.2141
4150.00,1.1924
4149.00,1.1703
4148.00,1.1481
4147.00,1.1256
4146.00,1.1030
4145.00,1.0802
4144.00,1.0574
4143.00,1.0346
4142.00,1.0121
4141.00,0.9899
4140.00,0.9682
4139.00,0.9471
4138.00,0.9267
4137.00,0.9069
4136.00,0.8881
4135.00,0.8701
4134.00,0.8533
4133.00,0.8377
4132.00,0.8234
4131.00,0.8105
4130.00,0.7992
4129.00,0.7894
4128.00,0.7813
4127.00,0.7749
4126.00,0.7703
4125.00,0.7675
4124.00,0.7664
4123.00,0.7671
4122.00,0.7696
4121.00,0.7739
4120.00,0.7799
4119.00,0.7876
4118.00,0.7968
4117.00,0.8074
4116.00,0.8193
4115.00,0.8324
4114.00,0.8466
4113.00,0.8619
4112.00,0.8780
4111.00,0.8950
4110.00,0.9126
4109.00,0.9309
4108.00,0.9497
4107.00,0.9690
4106.00,0.9887
4105.00,1.0088
4104.00,1.0292
4103.00,1.0498
4102.00,1.0706
4101.00,1.0915
4100.00,1.1124
4099.00,1.1333
4098.00,1.1542
4097.00,1.1750
4096.00,1.1957
4095.00,1.2162
4094.00,1.2366
4093.00,1.2568
4092.00,1.2768
4091.00,1.2965
4090.00,1.3158
4089.00,1.3348
4088.00,1.3534
4087.00,1.3716
4086.00,1.3893
4085.00,1.4065
4084.00,1.4232
4083.00,1.4394
4082.00,1.4551
4081.00,1.4703
4080.00,1.4850
4079.00,1.4992
4078.00,1.5128
4077.00,1.5259
4076.00,1.5381
4075.00,1.5496
4074.00,1.5605
4073.00,1.5708
4072.00,1.5807
4071.00,1.5901
4070.00,1.5989
4069.00,1.6071
4068.00,1.6147
4067.00,1.6218
4066.00,1.6287
4065.00,1.6355
4064.00,1.6419
4063.00,1.6479
4062.00,1.6534
4061.00,1.6582
4060.00,1.6625
4059.00,1.6663
4058.00,1.6695
4057.00,1.6721
4056.00,1.6743
4055.00,1.6763
4054.00,1.6782
4053.00,1.6797
4052.00,1.6807
4051.00,1.6810
4050.00,1.6808
4049.00,1.6800
4048.00,1.6789
4047.00,1.6775
4046.00,1.6759
4045.00,1.6739
4044.00,1.6714
4043.00,1.6681
4042.00,1.6640
4041.00,1.6595
4040.00,1.6548
4039.00,1.6501
4038.00,1.6450
4037.00,1.6395
4036.00,1.6336
4035.00,1.6271
4034.00,1.6203
4033.00,1.6130
4032.00,1.6054
4031.00,1.5974
4030.00,1.5890
4029.00,1.5802
4028.00,1.5708
4027.00,1.5608
4026.00,1.5501
4025.00,1.5387
4024.00,1.5267
4023.00,1.5140
4022.00,1.5008
4021.00,1.4868
4020.00,1.4721
4019.00,1.4565
4018.00,1.4400
4017.00,1.4229
4016.00,1.4052
4015.00,1.3869
4014.00,1.3680
4013.00,1.3483
4012.00,1.3278
4011.00,1.3066
4010.00,1.2847
4009.00,1.2621
4008.00,1.2390
4007.00,1.2155
4006.00,1.1916
4005.00,1.1675
4004.00,1.1432
4003.00,1.1188
4002.00,1.0944
4001.00,1.0701
4000.00,1.0461
3999.00,1.0225
3998.00,0.9995
3997.00,0.9772
3996.00,0.9556
3995.00,0.9350
3994.00,0.9154
3993.00,0.8970
3992.00,0.8801
3991.00,0.8646
3990.00,0.8508
3989.00,0.8387
3988.00,0.8285
3987.00,0.8203
3986.00,0.8141
3985.00,0.8099
3984.00,0.8078
3983.00,0.8077
3982.00,0.8096
3981.00,0.8134
3980.00,0.8189
3979.00,0.8260
3978.00,0.8344
3977.00,0.8441
3976.00,0.8547
3975.00,0.8662
3974.00,0.8785
3973.00,0.8914
3972.00,0.9051
3971.00,0.9195
3970.00,0.9345
3969.00,0.9502
3968.00,0.9665
3967.00,0.9835
3966.00,1.0011
3965.00,1.0194
3964.00,1.0381
3963.00,1.0574
3962.00,1.0773
3961.00,1.0976
3960.00,1.1184
3959.00,1.1395
3958.00,1.1606
3957.00,1.1819
3956.00,1.2032
3955.00,1.2245
3954.00,1.2457
3953.00,1.2666
3952.00,1.2873
3951.00,1.3077
3950.00,1.3279
3949.00,1.3481
3948.00,1.3683
3947.00,1.3883
3946.00,1.4078
3945.00,1.4265
3944.00,1.4446
3943.00,1.4623
3942.00,1.4798
3941.00,1.4971
3940.00,1.5139
3939.00,1.5297
3938.00,1.5445
3937.00,1.5583
3936.00,1.5711
3935.00,1.5834
3934.00,1.5952
3933.00,1.6070
3932.00,1.6187
3931.00,1.6300
3930.00,1.6407
3929.00,1.6505
3928.00,1.6596
3927.00,1.6680
3926.00,1.6757
3925.00,1.6829
3924.00,1.6897
3923.00,1.6961
3922.00,1.7019
3921.00,1.7070
3920.00,1.7117
3919.00,1.7161
3918.00,1.7206
3917.00,1.7249
3916.00,1.7290
3915.00,1.7327
3914.00,1.7359
3913.00,1.7385
3912.00,1.7405
3911.00,1.7415
3910.00,1.7416
3909.00,1.7408
3908.00,1.7392
3907.00,1.7371
3906.00,1.7342
3905.00,1.7307
3904.00,1.7270
3903.00,1.7236
3902.00,1.7207
3901.00,1.7181
3900.00,1.7156
3899.00,1.7127
3898.00,1.7095
3897.00,1.7055
3896.00,1.7005
3895.00,1.6948
3894.00,1.6886
3893.00,1.6818
3892.00,1.6741
3891.00,1.6652
3890.00,1.6555
3889.00,1.6456
3888.00,1.6359
3887.00,1.6256
3886.00,1.6142
3885.00,1.6020
3884.00,1.5897
3883.00,1.5772
3882.00,1.5642
3881.00,1.5503
3880.00,1.5357
3879.00,1.5207
3878.00,1.5053
3877.00,1.4893
3876.00,1.4721
3875.00,1.4532
3874.00,1.4332
3873.00,1.4128
3872.00,1.3923
3871.00,1.3705
3870.00,1.3468
3869.00,1.3223
3868.00,1.2986
3867.00,1.2755
3866.00,1.2519
3865.00,1.2272
3864.00,1.2017
3863.00,1.1760
3862.00,1.1501
3861.00,1.1239
3860.00,1.0972
3859.00,1.0698
3858.00,1.0421
3857.00,1.0152
3856.00,0.9897
3855.00,0.9650
3854.00,0.9396
3853.00,0.9136
3852.00,0.8894
3851.00,0.8689
3850.00,0.8519
3849.00,0.8375
3848.00,0.8251
3847.00,0.8143
3846.00,0.8049
3845.00,0.7967
3844.00,0.7895
3843.00,0.7837
3842.00,0.7796
3841.00,0.7777
3840.00,0.7783
3839.00,0.7817
3838.00,0.7880
3837.00,0.7970
3836.00,0.8080
3835.00,0.8206
3834.00,0.8349
3833.00,0.8511
3832.00,0.8693
3831.00,0.8889
3830.00,0.9093
3829.00,0.9300
3828.00,0.9508
3827.00,0.9716
3826.00,0.9924
3825.00,1.0129
3824.00,1.0331
3823.00,1.0536
3822.00,1.0757
3821.00,1.1003
3820.00,1.1268
3819.00,1.1530
3818.00,1.1776
3817.00,1.2015
3816.00,1.2269
3815.00,1.2550
3814.00,1.2839
3813.00,1.3106
3812.00,1.3341
3811.00,1.3547
3810.00,1.3740
3809.00,1.3930
3808.00,1.4125
3807.00,1.4330
3806.00,1.4541
3805.00,1.4747
3804.00,1.4936
3803.00,1.5110
3802.00,1.5282
3801.00,1.5469
3800.00,1.5668
3799.00,1.5860
3798.00,1.6034
3797.00,1.6191
3796.00,1.6339
3795.00,1.6483
3794.00,1.6622
3793.00,1.6753
3792.00,1.6877
3791.00,1.6994
3790.00,1.7104
3789.00,1.7204
3788.00,1.7292
3787.00,1.7370
3786.00,1.7444
3785.00,1.7515
3784.00,1.7585
3783.00,1.7652
3782.00,1.7714
3781.00,1.7771
3780.00,1.7822
3779.00,1.7869
3778.00,1.7916
3777.00,1.7959
3776.00,1.7992
3775.00,1.8016
3774.00,1.8034
3773.00,1.8051
3772.00,1.8065
3771.00,1.8073
3770.00,1.8073
3769.00,1.8069
3768.00,1.8062
3767.00,1.8056
3766.00,1.8047
3765.00,1.8034
3764.00,1.8013
3763.00,1.7986
3762.00,1.7952
3761.00,1.7911
3760.00,1.7864
3759.00,1.7814
3758.00,1.7760
3757.00,1.7700
3756.00,1.7628
3755.00,1.7547
3754.00,1.7458
3753.00,1.7364
3752.00,1.7268
3751.00,1.7165
3750.00,1.7051
3749.00,1.6928
3748.00,1.6806
3747.00,1.6693
3746.00,1.6588
3745.00,1.6480
3744.00,1.6366
3743.00,1.6251
3742.00,1.6135
3741.00,1.6008
3740.00,1.5869
3739.00,1.5720
3738.00,1.5562
3737.00,1.5386
3736.00,1.5189
3735.00,1.4980
3734.00,1.4770
3733.00,1.4560
3732.00,1.4345
3731.00,1.4127
3730.00,1.3907
3729.00,1.3682
3728.00,1.3443
3727.00,1.3187
3726.00,1.2918
3725.00,1.2641
3724.00,1.2360
3723.00,1.2072
3722.00,1.1781
3721.00,1.1492
3720.00,1.1210
3719.00,1.0934
3718.00,1.0660
3717.00,1.0389
3716.00,1.0126
3715.00,0.9879
3714.00,0.9649
3713.00,0.9431
3712.00,0.9224
3711.00,0.9032
3710.00,0.8865
3709.00,0.8728
3708.00,0.8621
3707.00,0.8542
3706.00,0.8488
3705.00,0.8461
3704.00,0.8461
3703.00,0.8489
3702.00,0.8544
3701.00,0.8624
3700.00,0.8728
3699.00,0.8853
3698.00,0.8998
3697.00,0.9159
3696.00,0.9335
3695.00,0.9521
3694.00,0.9711
3693.00,0.9906
3692.00,1.0112
3691.00,1.0333
3690.00,1.0577
3689.00,1.0852
3688.00,1.1158
3687.00,1.1478
3686.00,1.1786
3685.00,1.2071
3684.00,1.2337
3683.00,1.2594
3682.00,1.2847
3681.00,1.3092
3680.00,1.3324
3679.00,1.3544
3678.00,1.3758
3677.00,1.3977
3676.00,1.4214
3675.00,1.4477
3674.00,1.4751
3673.00,1.5009
3672.00,1.5242
3671.00,1.5462
3670.00,1.5687
3669.00,1.5924
3668.00,1.6160
3667.00,1.6379
3666.00,1.6575
3665.00,1.6753
3664.00,1.6918
3663.00,1.7072
3662.00,1.7215
3661.00,1.7345
3660.00,1.7463
3659.00,1.7575
3658.00,1.7685
3657.00,1.7798
3656.00,1.7911
3655.00,1.8016
3654.00,1.8102
3653.00,1.8170
3652.00,1.8229
3651.00,1.8294
3650.00,1.8375
3649.00,1.8471
3648.00,1.8574
3647.00,1.8671
3646.00,1.8758
3645.00,1.8836
3644.00,1.8910
3643.00,1.8978
3642.00,1.9037
3641.00,1.9086
3640.00,1.9127
3639.00,1.9166
3638.00,1.9206
3637.00,1.9247
3636.00,1.9284
3635.00,1.9304
3634.00,1.9304
3633.00,1.9291
3632.00,1.9277
3631.00,1.9274
3630.00,1.9282
3629.00,1.9298
3628.00,1.9319
3627.00,1.9337
3626.00,1.9346
3625.00,1.9343
3624.00,1.9329
3623.00,1.9309
3622.00,1.9285
3621.00,1.9261
3620.00,1.9236
3619.00,1.9210
3618.00,1.9183
3617.00,1.9154
3616.00,1.9119
3615.00,1.9071
3614.00,1.9009
3613.00,1.8938
3612.00,1.8867
3611.00,1.8802
3610.00,1.8742
3609.00,1.8681
3608.00,1.8615
3607.00,1.8547
3606.00,1.8476
3605.00,1.8402
3604.00,1.8320
3603.00,1.8230
3602.00,1.8130
3601.00,1.8022
3600.00,1.7906
3599.00,1.7784
3598.00,1.7655
3597.00,1.7521
3596.00,1.7381
3595.00,1.7236
3594.00,1.7084
3593.00,1.6925
3592.00,1.6760
3591.00,1.6591
3590.00,1.6420
3589.00,1.6244
3588.00,1.6059
3587.00,1.5868
3586.00,1.5675
3585.00,1.5482
3584.00,1.5289
3583.00,1.5095
3582.00,1.4899
3581.00,1.4700
3580.00,1.4496
3579.00,1.4287
3578.00,1.4077
3577.00,1.3867
3576.00,1.3660
3575.00,1.3457
3574.00,1.3257
3573.00,1.3061
3572.00,1.2869
3571.00,1.2686
3570.00,1.2517
3569.00,1.2361
3568.00,1.2217
3567.00,1.2083
3566.00,1.1964
3565.00,1.1864
3564.00,1.1784
3563.00,1.1723
3562.00,1.1679
3561.00,1.1651
3560.00,1.1639
3559.00,1.1642
3558.00,1.1660
3557.00,1.1692
3556.00,1.1738
3555.00,1.1798
3554.00,1.1870
3553.00,1.1954
3552.00,1.2049
3551.00,1.2152
3550.00,1.2265
3549.00,1.2385
3548.00,1.2514
3547.00,1.2651
3546.00,1.2796
3545.00,1.2948
3544.00,1.3103
3543.00,1.3261
3542.00,1.3420
3541.00,1.3579
3540.00,1.3739
3539.00,1.3901
3538.00,1.4065
3537.00,1.4230
3536.00,1.4396
3535.00,1.4563
3534.00,1.4730
3533.00,1.4896
3532.00,1.5059
3531.00,1.5222
3530.00,1.5385
3529.00,1.5548
3528.00,1.5712
3527.00,1.5875
3526.00,1.6037
3525.00,1.6199
3524.00,1.6362
3523.00,1.6526
3522.00,1.6689
3521.00,1.6849
3520.00,1.7004
3519.00,1.7154
3518.00,1.7300
3517.00,1.7446
3516.00,1.7590
3515.00,1.7730
3514.00,1.7863
3513.00,1.7989
3512.00,1.8109
3511.00,1.8224
3510.00,1.8338
3509.00,1.8451
3508.00,1.8564
3507.00,1.8674
3506.00,1.8777
3505.00,1.8872
3504.00,1.8961
3503.00,1.9045
3502.00,1.9126
3501.00,1.9202
3500.00,1.9272
3499.00,1.9337
3498.00,1.9399
3497.00,1.9457
3496.00,1.9512
3495.00,1.9565
3494.00,1.9615
3493.00,1.9663
3492.00,1.9704
3491.00,1.9740
3490.00,1.9773
3489.00,1.9804
3488.00,1.9828
3487.00,1.9843
3486.00,1.9851
3485.00,1.9856
3484.00,1.9863
3483.00,1.9867
3482.00,1.9866
3481.00,1.9859
3480.00,1.9846
3479.00,1.9826
3478.00,1.9800
3477.00,1.9772
3476.00,1.9745
3475.00,1.9719
3474.00,1.9688
3473.00,1.9647
3472.00,1.9598
3471.00,1.9546
3470.00,1.9493
3469.00,1.9438
3468.00,1.9377
3467.00,1.9308
3466.00,1.9233
3465.00,1.9152
3464.00,1.9066
3463.00,1.8976
3462.00,1.8881
3461.00,1.8783
3460.00,1.8683
3459.00,1.8578
3458.00,1.8466
3457.00,1.8347
3456.00,1.8222
3455.00,1.8091
3454.00,1.7953
3453.00,1.7808
3452.00,1.7655
3451.00,1.7497
3450.00,1.7332
3449.00,1.7161
3448.00,1.6981
3447.00,1.6793
3446.00,1.6598
3445.00,1.6397
3444.00,1.6189
3443.00,1.5974
3442.00,1.5750
3441.00,1.5517
3440.00,1.5278
3439.00,1.5033
3438.00,1.4783
3437.00,1.4528
3436.00,1.4269
3435.00,1.4007
3434.00,1.3743
3433.00,1.3479
3432.00,1.3215
3431.00,1.2955
3430.00,1.2698
3429.00,1.2449
3428.00,1.2207
3427.00,1.1976
3426.00,1.1757
3425.00,1.1553
3424.00,1.1364
3423.00,1.1191
3422.00,1.1036
3421.00,1.0900
3420.00,1.0786
3419.00,1.0694
3418.00,1.0625
3417.00,1.0580
3416.00,1.0560
3415.00,1.0564
3414.00,1.0592
3413.00,1.0643
3412.00,1.0715
3411.00,1.0808
3410.00,1.0920
3409.00,1.1051
3408.00,1.1198
3407.00,1.1358
3406.00,1.1531
3405.00,1.1714
3404.00,1.1905
3403.00,1.2103
3402.00,1.2306
3401.00,1.2514
3400.00,1.2725
3399.00,1.2941
3398.00,1.3161
3397.00,1.3385
3396.00,1.3614
3395.00,1.3846
3394.00,1.4079
3393.00,1.4312
3392.00,1.4543
3391.00,1.4774
3390.00,1.5004
3389.00,1.5233
3388.00,1.5460
3387.00,1.5684
3386.00,1.5904
3385.00,1.6121
3384.00,1.6334
3383.00,1.6544
3382.00,1.6750
3381.00,1.6950
3380.00,1.7143
3379.00,1.7329
3378.00,1.7511
3377.00,1.7688
3376.00,1.7860
3375.00,1.8024
3374.00,1.8181
3373.00,1.8331
3372.00,1.8477
3371.00,1.8620
3370.00,1.8758
3369.00,1.8891
3368.00,1.9016
3367.00,1.9135
3366.00,1.9246
3365.00,1.9350
3364.00,1.9448
3363.00,1.9541
3362.00,1.9630
3361.00,1.9715
3360.00,1.9796
3359.00,1.9870
3358.00,1.9937
3357.00,2.0001
3356.00,2.0062
3355.00,2.0119
3354.00,2.0171
3353.00,2.0217
3352.00,2.0260
3351.00,2.0299
3350.00,2.0332
3349.00,2.0357
3348.00,2.0377
3347.00,2.0396
3346.00,2.0414
3345.00,2.0428
3344.00,2.0436
3343.00,2.0439
3342.00,2.0439
3341.00,2.0436
3340.00,2.0429
3339.00,2.0415
3338.00,2.0394
3337.00,2.0365
3336.00,2.0333
3335.00,2.0300
3334.00,2.0268
3333.00,2.0233
3332.00,2.0191
3331.00,2.0141
3330.00,2.0087
3329.00,2.0031
3328.00,1.9972
3327.00,1.9911
3326.00,1.9844
3325.00,1.9769
3324.00,1.9685
3323.00,1.9594
3322.00,1.9500
3321.00,1.9402
3320.00,1.9301
3319.00,1.9193
3318.00,1.9081
3317.00,1.8962
3316.00,1.8835
3315.00,1.8701
3314.00,1.8558
3313.00,1.8410
3312.00,1.8254
3311.00,1.8090
3310.00,1.7920
3309.00,1.7746
3308.00,1.7566
3307.00,1.7383
3306.00,1.7193
3305.00,1.6996
3304.00,1.6790
3303.00,1.6573
3302.00,1.6346
3301.00,1.6111
3300.00,1.5870
3299.00,1.5622
3298.00,1.5370
3297.00,1.5113
3296.00,1.4852
3295.00,1.4587
3294.00,1.4319
3293.00,1.4050
3292.00,1.3781
3291.00,1.3516
3290.00,1.3256
3289.00,1.3001
3288.00,1.2752
3287.00,1.2511
3286.00,1.2280
3285.00,1.2060
3284.00,1.1856
3283.00,1.1667
3282.00,1.1497
3281.00,1.1348
3280.00,1.1219
3279.00,1.1111
3278.00,1.1026
3277.00,1.0964
3276.00,1.0927
3275.00,1.0915
3274.00,1.0929
3273.00,1.0966
3272.00,1.1028
3271.00,1.1112
3270.00,1.1217
3269.00,1.1343
3268.00,1.1487
3267.00,1.1647
3266.00,1.1822
3265.00,1.2011
3264.00,1.2212
3263.00,1.2424
3262.00,1.2645
3261.00,1.2875
3260.00,1.3110
3259.00,1.3351
3258.00,1.3595
3257.00,1.3843
3256.00,1.4094
3255.00,1.4347
3254.00,1.4603
3253.00,1.4860
3252.00,1.5116
3251.00,1.5368
3250.00,1.5616
3249.00,1.5859
3248.00,1.6100
3247.00,1.6338
3246.00,1.6573
3245.00,1.6802
3244.00,1.7028
3243.00,1.7248
3242.00,1.7465
3241.00,1.7676
3240.00,1.7879
3239.00,1.8071
3238.00,1.8253
3237.00,1.8429
3236.00,1.8603
3235.00,1.8773
3234.00,1.8937
3233.00,1.9091
3232.00,1.9236
3231.00,1.9372
3230.00,1.9504
3229.00,1.9634
3228.00,1.9758
3227.00,1.9875
3226.00,1.9985
3225.00,2.0090
3224.00,2.0191
3223.00,2.0289
3222.00,2.0383
3221.00,2.0470
3220.00,2.0551
3219.00,2.0629
3218.00,2.0706
3217.00,2.0780
3216.00,2.0844
3215.00,2.0894
3214.00,2.0935
3213.00,2.0973
3212.00,2.1010
3211.00,2.1048
3210.00,2.1083
3209.00,2.1116
3208.00,2.1146
3207.00,2.1173
3206.00,2.1200
3205.00,2.1226
3204.00,2.1248
3203.00,2.1261
3202.00,2.1262
3201.00,2.1254
3200.00,2.1240
3199.00,2.1222
3198.00,2.1199
3197.00,2.1172
3196.00,2.1141
3195.00,2.1108
3194.00,2.1074
3193.00,2.1034
3192.00,2.0986
3191.00,2.0930
3190.00,2.0869
3189.00,2.0806
3188.00,2.0737
3187.00,2.0662
3186.00,2.0585
3185.00,2.0506
3184.00,2.0422
3183.00,2.0330
3182.00,2.0230
3181.00,2.0125
3180.00,2.0014
3179.00,1.9893
3178.00,1.9762
3177.00,1.9622
3176.00,1.9478
3175.00,1.9336
3174.00,1.9196
3173.00,1.9058
3172.00,1.8925
3171.00,1.8803
3170.00,1.8704
3169.00,1.8636
3168.00,1.8604
3167.00,1.8611
3166.00,1.8648
3165.00,1.8698
3164.00,1.8730
3163.00,1.8711
3162.00,1.8621
3161.00,1.8455
3160.00,1.8223
3159.00,1.7940
3158.00,1.7626
3157.00,1.7295
3156.00,1.6959
3155.00,1.6625
3154.00,1.6295
3153.00,1.5970
3152.00,1.5649
3151.00,1.5331
3150.00,1.5020
3149.00,1.4718
3148.00,1.4424
3147.00,1.4141
3146.00,1.3868
3145.00,1.3606
3144.00,1.3357
3143.00,1.3124
3142.00,1.2909
3141.00,1.2713
3140.00,1.2539
3139.00,1.2389
3138.00,1.2263
3137.00,1.2164
3136.00,1.2092
3135.00,1.2047
3134.00,1.2029
3133.00,1.2037
3132.00,1.2071
3131.00,1.2129
3130.00,1.2210
3129.00,1.2315
3128.00,1.2440
3127.00,1.2585
3126.00,1.2749
3125.00,1.2929
3124.00,1.3124
3123.00,1.3332
3122.00,1.3552
3121.00,1.3780
3120.00,1.4015
3119.00,1.4257
3118.00,1.4504
3117.00,1.4757
3116.00,1.5013
3115.00,1.5270
3114.00,1.5526
3113.00,1.5780
3112.00,1.6031
3111.00,1.6279
3110.00,1.6524
3109.00,1.6765
3108.00,1.7003
3107.00,1.7238
3106.00,1.7471
3105.00,1.7701
3104.00,1.7927
3103.00,1.8146
3102.00,1.8357
3101.00,1.8562
3100.00,1.8759
3099.00,1.8950
3098.00,1.9135
3097.00,1.9317
3096.00,1.9494
3095.00,1.9663
3094.00,1.9824
3093.00,1.9976
3092.00,2.0119
3091.00,2.0255
3090.00,2.0386
3089.00,2.0515
3088.00,2.0641
3087.00,2.0766
3086.00,2.0887
3085.00,2.0998
3084.00,2.1097
3083.00,2.1185
3082.00,2.1269
3081.00,2.1356
3080.00,2.1444
3079.00,2.1529
3078.00,2.1606
3077.00,2.1675
3076.00,2.1739
3075.00,2.1799
3074.00,2.1856
3073.00,2.1905
3072.00,2.1943
3071.00,2.1972
3070.00,2.2002
3069.00,2.2037
3068.00,2.2074
3067.00,2.2103
3066.00,2.2124
3065.00,2.2137
3064.00,2.2146
3063.00,2.2149
3062.00,2.2145
3061.00,2.2137
3060.00,2.2129
3059.00,2.2121
3058.00,2.2110
3057.00,2.2095
3056.00,2.2075
3055.00,2.2048
3054.00,2.2013
3053.00,2.1973
3052.00,2.1928
3051.00,2.1882
3050.00,2.1833
3049.00,2.1778
3048.00,2.1716
3047.00,2.1647
3046.00,2.1577
3045.00,2.1505
3044.00,2.1428
3043.00,2.1342
3042.00,2.1248
3041.00,2.1148
3040.00,2.1045
3039.00,2.0936
3038.00,2.0821
3037.00,2.0700
3036.00,2.0574
3035.00,2.0444
3034.00,2.0314
3033.00,2.0182
3032.00,2.0042
3031.00,1.9894
3030.00,1.9740
3029.00,1.9588
3028.00,1.9439
3027.00,1.9291
3026.00,1.9140
3025.00,1.8986
3024.00,1.8830
3023.00,1.8675
3022.00,1.8524
3021.00,1.8379
3020.00,1.8244
3019.00,1.8119
3018.00,1.8005
3017.00,1.7901
3016.00,1.7811
3015.00,1.7740
3014.00,1.7689
3013.00,1.7657
3012.00,1.7642
3011.00,1.7645
3010.00,1.7666
3009.00,1.7703
3008.00,1.7752
3007.00,1.7804
3006.00,1.7855
3005.00,1.7900
3004.00,1.7933
3003.00,1.7950
3002.00,1.7946
3001.00,1.7918
3000.00,1.7864
2999.00,1.7786
2998.00,1.7686
2997.00,1.7568
2996.00,1.7437
2995.00,1.7298
2994.00,1.7159
2993.00,1.7028
2992.00,1.6910
2991.00,1.6812
2990.00,1.6737
2989.00,1.6688
2988.00,1.6668
2987.00,1.6679
2986.00,1.6722
2985.00,1.6798
2984.00,1.6908
2983.00,1.7051
2982.00,1.7222
2981.00,1.7418
2980.00,1.7635
2979.00,1.7872
2978.00,1.8127
2977.00,1.8398
2976.00,1.8681
2975.00,1.8970
2974.00,1.9259
2973.00,1.9546
2972.00,1.9829
2971.00,2.0109
2970.00,2.0383
2969.00,2.0648
2968.00,2.0900
2967.00,2.1137
2966.00,2.1362
2965.00,2.1576
2964.00,2.1778
2963.00,2.1970
2962.00,2.2156
2961.00,2.2338
2960.00,2.2517
2959.00,2.2695
2958.00,2.2873
2957.00,2.3054
2956.00,2.3238
2955.00,2.3425
2954.00,2.3615
2953.00,2.3807
2952.00,2.3999
2951.00,2.4183
2950.00,2.4360
2949.00,2.4528
2948.00,2.4690
2947.00,2.4847
2946.00,2.4991
2945.00,2.5099
2944.00,2.5139
2943.00,2.5091
2942.00,2.4962
2941.00,2.4779
2940.00,2.4565
2939.00,2.4338
2938.00,2.4116
2937.00,2.3911
2936.00,2.3731
2935.00,2.3579
2934.00,2.3451
2933.00,2.3339
2932.00,2.3237
2931.00,2.3147
2930.00,2.3076
2929.00,2.3027
2928.00,2.3002
2927.00,2.2994
2926.00,2.3002
2925.00,2.3019
2924.00,2.3038
2923.00,2.3052
2922.00,2.3066
2921.00,2.3086
2920.00,2.3114
2919.00,2.3148
2918.00,2.3183
2917.00,2.3218
2916.00,2.3251
2915.00,2.3280
2914.00,2.3305
2913.00,2.3328
2912.00,2.3348
2911.00,2.3363
2910.00,2.3375
2909.00,2.3391
2908.00,2.3411
2907.00,2.3430
2906.00,2.3441
2905.00,2.3442
2904.00,2.3438
2903.00,2.3433
2902.00,2.3426
2901.00,2.3411
2900.00,2.3384
2899.00,2.3348
2898.00,2.3306
2897.00,2.3263
2896.00,2.3213
2895.00,2.3154
2894.00,2.3089
2893.00,2.3026
2892.00,2.2964
2891.00,2.2902
2890.00,2.2833
2889.00,2.2756
2888.00,2.2673
2887.00,2.2583
2886.00,2.2486
2885.00,2.2384
2884.00,2.2278
2883.00,2.2171
2882.00,2.2064
2881.00,2.1957
2880.00,2.1854
2879.00,2.1754
2878.00,2.1660
2877.00,2.1574
2876.00,2.1500
2875.00,2.1440
2874.00,2.1394
2873.00,2.1359
2872.00,2.1331
2871.00,2.1303
2870.00,2.1272
2869.00,2.1233
2868.00,2.1182
2867.00,2.1113
2866.00,2.1024
2865.00,2.0915
2864.00,2.0793
2863.00,2.0662
2862.00,2.0520
2861.00,2.0360
2860.00,2.0169
2859.00,1.9942
2858.00,1.9680
2857.00,1.9388
2856.00,1.9072
2855.00,1.8736
2854.00,1.8383
2853.00,1.8016
2852.00,1.7636
2851.00,1.7247
2850.00,1.6852
2849.00,1.6458
2848.00,1.6069
2847.00,1.5689
2846.00,1.5321
2845.00,1.4967
2844.00,1.4631
2843.00,1.4316
2842.00,1.4027
2841.00,1.3768
2840.00,1.3540
2839.00,1.3345
2838.00,1.3184
2837.00,1.3058
2836.00,1.2968
2835.00,1.2914
2834.00,1.2897
2833.00,1.2916
2832.00,1.2969
2831.00,1.3053
2830.00,1.3166
2829.00,1.3305
2828.00,1.3470
2827.00,1.3659
2826.00,1.3871
2825.00,1.4101
2824.00,1.4347
2823.00,1.4607
2822.00,1.4879
2821.00,1.5163
2820.00,1.5455
2819.00,1.5755
2818.00,1.6061
2817.00,1.6372
2816.00,1.6685
2815.00,1.6997
2814.00,1.7309
2813.00,1.7617
2812.00,1.7921
2811.00,1.8218
2810.00,1.8507
2809.00,1.8791
2808.00,1.9071
2807.00,1.9345
2806.00,1.9610
2805.00,1.9863
2804.00,2.0103
2803.00,2.0329
2802.00,2.0544
2801.00,2.0752
2800.00,2.0954
2799.00,2.1147
2798.00,2.1329
2797.00,2.1501
2796.00,2.1664
2795.00,2.1818
2794.00,2.1966
2793.00,2.2109
2792.00,2.2248
2791.00,2.2384
2790.00,2.2513
2789.00,2.2632
2788.00,2.2741
2787.00,2.2843
2786.00,2.2942
2785.00,2.3039
2784.00,2.3129
2783.00,2.3208
2782.00,2.3278
2781.00,2.3344
2780.00,2.3412
2779.00,2.3477
2778.00,2.3533
2777.00,2.3575
2776.00,2.3608
2775.00,2.3638
2774.00,2.3672
2773.00,2.3704
2772.00,2.3729
2771.00,2.3749
2770.00,2.3768
2769.00,2.3785
2768.00,2.3798
2767.00,2.3804
2766.00,2.3806
2765.00,2.3805
2764.00,2.3802
2763.00,2.3795
2762.00,2.3785
2761.00,2.3766
2760.00,2.3735
2759.00,2.3694
2758.00,2.3650
2757.00,2.3609
2756.00,2.3571
2755.00,2.3529
2754.00,2.3480
2753.00,2.3419
2752.00,2.3343
2751.00,2.3255
2750.00,2.3165
2749.00,2.3080
2748.00,2.3002
2747.00,2.2920
2746.00,2.2827
2745.00,2.2722
2744.00,2.2607
2743.00,2.2487
2742.00,2.2360
2741.00,2.2223
2740.00,2.2077
2739.00,2.1924
2738.00,2.1767
2737.00,2.1606
2736.00,2.1436
2735.00,2.1257
2734.00,2.1072
2733.00,2.0879
2732.00,2.0677
2731.00,2.0461
2730.00,2.0231
2729.00,1.9989
2728.00,1.9735
2727.00,1.9471
2726.00,1.9197
2725.00,1.8911
2724.00,1.8609
2723.00,1.8289
2722.00,1.7953
2721.00,1.7601
2720.00,1.7234
2719.00,1.6852
2718.00,1.6454
2717.00,1.6044
2716.00,1.5624
2715.00,1.5197
2714.00,1.4766
2713.00,1.4338
2712.00,1.3919
2711.00,1.3513
2710.00,1.3124
2709.00,1.2757
2708.00,1.2416
2707.00,1.2106
2706.00,1.1831
2705.00,1.1595
2704.00,1.1403
2703.00,1.1259
2702.00,1.1164
2701.00,1.1119
2700.00,1.1126
2699.00,1.1183
2698.00,1.1288
2697.00,1.1440
2696.00,1.1633
2695.00,1.1862
2694.00,1.2124
2693.00,1.2412
2692.00,1.2724
2691.00,1.3055
2690.00,1.3402
2689.00,1.3761
2688.00,1.4131
2687.00,1.4509
2686.00,1.4892
2685.00,1.5279
2684.00,1.5666
2683.00,1.6051
2682.00,1.6433
2681.00,1.6810
2680.00,1.7181
2679.00,1.7545
2678.00,1.7901
2677.00,1.8249
2676.00,1.8586
2675.00,1.8908
2674.00,1.9215
2673.00,1.9508
2672.00,1.9789
2671.00,2.0061
2670.00,2.0326
2669.00,2.0583
2668.00,2.0831
2667.00,2.1066
2666.00,2.1288
2665.00,2.1497
2664.00,2.1698
2663.00,2.1891
2662.00,2.2080
2661.00,2.2265
2660.00,2.2446
2659.00,2.2619
2658.00,2.2782
2657.00,2.2932
2656.00,2.3070
2655.00,2.3199
2654.00,2.3323
2653.00,2.3445
2652.00,2.3565
2651.00,2.3683
2650.00,2.3798
2649.00,2.3904
2648.00,2.3997
2647.00,2.4077
2646.00,2.4149
2645.00,2.4220
2644.00,2.4296
2643.00,2.4375
2642.00,2.4452
2641.00,2.4516
2640.00,2.4562
2639.00,2.4595
2638.00,2.4628
2637.00,2.4668
2636.00,2.4713
2635.00,2.4751
2634.00,2.4777
2633.00,2.4799
2632.00,2.4824
2631.00,2.4853
2630.00,2.4877
2629.00,2.4891
2628.00,2.4895
2627.00,2.4893
2626.00,2.4886
2625.00,2.4874
2624.00,2.4860
2623.00,2.4848
2622.00,2.4833
2621.00,2.4808
2620.00,2.4766
2619.00,2.4708
2618.00,2.4642
2617.00,2.4575
2616.00,2.4508
2615.00,2.4445
2614.00,2.4389
2613.00,2.4337
2612.00,2.4281
2611.00,2.4214
2610.00,2.4132
2609.00,2.4039
2608.00,2.3939
2607.00,2.3835
2606.00,2.3730
2605.00,2.3622
2604.00,2.3508
2603.00,2.3384
2602.00,2.3251
2601.00,2.3107
2600.00,2.2956
2599.00,2.2800
2598.00,2.2637
2597.00,2.2462
2596.00,2.2273
2595.00,2.2071
2594.00,2.1863
2593.00,2.1652
2592.00,2.1433
2591.00,2.1203
2590.00,2.0960
2589.00,2.0706
2588.00,2.0440
2587.00,2.0161
2586.00,1.9867
2585.00,1.9556
2584.00,1.9228
2583.00,1.8881
2582.00,1.8518
2581.00,1.8139
2580.00,1.7746
2579.00,1.7337
2578.00,1.6910
2577.00,1.6468
2576.00,1.6018
2575.00,1.5564
2574.00,1.5112
2573.00,1.4665
2572.00,1.4228
2571.00,1.3806
2570.00,1.3405
2569.00,1.3030
2568.00,1.2686
2567.00,1.2376
2566.00,1.2106
2565.00,1.1880
2564.00,1.1702
2563.00,1.1577
2562.00,1.1506
2561.00,1.1492
2560.00,1.1535
2559.00,1.1633
2558.00,1.1783
2557.00,1.1979
2556.00,1.2217
2555.00,1.2491
2554.00,1.2795
2553.00,1.3125
2552.00,1.3476
2551.00,1.3843
2550.00,1.4224
2549.00,1.4615
2548.00,1.5014
2547.00,1.5418
2546.00,1.5823
2545.00,1.6229
2544.00,1.6635
2543.00,1.7041
2542.00,1.7445
2541.00,1.7846
2540.00,1.8240
2539.00,1.8625
2538.00,1.8996
2537.00,1.9353
2536.00,1.9697
2535.00,2.0029
2534.00,2.0351
2533.00,2.0661
2532.00,2.0957
2531.00,2.1236
2530.00,2.1498
2529.00,2.1750
2528.00,2.1996
2527.00,2.2234
2526.00,2.2459
2525.00,2.2668
2524.00,2.2866
2523.00,2.3055
2522.00,2.3237
2521.00,2.3409
2520.00,2.3573
2519.00,2.3733
2518.00,2.3891
2517.00,2.4042
2516.00,2.4186
2515.00,2.4322
2514.00,2.4451
2513.00,2.4572
2512.00,2.4683
2511.00,2.4783
2510.00,2.4873
2509.00,2.4951
2508.00,2.5022
2507.00,2.5094
2506.00,2.5177
2505.00,2.5267
2504.00,2.5352
2503.00,2.5423
2502.00,2.5480
2501.00,2.5527
2500.00,2.5570
2499.00,2.5618
2498.00,2.5675
2497.00,2.5736
2496.00,2.5786
2495.00,2.5812
2494.00,2.5815
2493.00,2.5805
2492.00,2.5797
2491.00,2.5799
2490.00,2.5812
2489.00,2.5825
2488.00,2.5831
2487.00,2.5830
2486.00,2.5825
2485.00,2.5811
2484.00,2.5783
2483.00,2.5746
2482.00,2.5713
2481.00,2.5685
2480.00,2.5650
2479.00,2.5603
2478.00,2.5550
2477.00,2.5502
2476.00,2.5456
2475.00,2.5403
2474.00,2.5336
2473.00,2.5257
2472.00,2.5167
2471.00,2.5068
2470.00,2.4968
2469.00,2.4871
2468.00,2.4775
2467.00,2.4676
2466.00,2.4574
2465.00,2.4472
2464.00,2.4365
2463.00,2.4242
2462.00,2.4097
2461.00,2.3936
2460.00,2.3771
2459.00,2.3607
2458.00,2.3442
2457.00,2.3265
2456.00,2.3071
2455.00,2.2866
2454.00,2.2657
2453.00,2.2447
2452.00,2.2228
2451.00,2.1992
2450.00,2.1736
2449.00,2.1466
2448.00,2.1187
2447.00,2.0898
2446.00,2.0598
2445.00,2.0284
2444.00,1.9954
2443.00,1.9609
2442.00,1.9249
2441.00,1.8874
2440.00,1.8485
2439.00,1.8081
2438.00,1.7665
2437.00,1.7242
2436.00,1.6818
2435.00,1.6395
2434.00,1.5978
2433.00,1.5571
2432.00,1.5182
2431.00,1.4817
2430.00,1.4481
2429.00,1.4180
2428.00,1.3920
2427.00,1.3706
2426.00,1.3541
2425.00,1.3430
2424.00,1.3373
2423.00,1.3373
2422.00,1.3426
2421.00,1.3531
2420.00,1.3682
2419.00,1.3873
2418.00,1.4099
2417.00,1.4352
2416.00,1.4629
2415.00,1.4921
2414.00,1.5225
2413.00,1.5535
2412.00,1.5847
2411.00,1.6160
2410.00,1.6473
2409.00,1.6784
2408.00,1.7093
2407.00,1.7402
2406.00,1.7709
2405.00,1.8018
2404.00,1.8328
2403.00,1.8641
2402.00,1.8956
2401.00,1.9276
2400.00,1.9599
2399.00,1.9920
2398.00,2.0237
2397.00,2.0549
2396.00,2.0858
2395.00,2.1165
2394.00,2.1467
2393.00,2.1762
2392.00,2.2049
2391.00,2.2326
2390.00,2.2591
2389.00,2.2843
2388.00,2.3079
2387.00,2.3305
2386.00,2.3526
2385.00,2.3743
2384.00,2.3951
2383.00,2.4148
2382.00,2.4341
2381.00,2.4534
2380.00,2.4731
2379.00,2.4925
2378.00,2.5112
2377.00,2.5287
2376.00,2.5451
2375.00,2.5607
2374.00,2.5756
2373.00,2.5900
2372.00,2.6041
2371.00,2.6182
2370.00,2.6323
2369.00,2.6457
2368.00,2.6569
2367.00,2.6651
2366.00,2.6721
2365.00,2.6801
2364.00,2.6896
2363.00,2.6997
2362.00,2.7084
2361.00,2.7143
2360.00,2.7184
2359.00,2.7220
2358.00,2.7273
2357.00,2.7336
2356.00,2.7385
2355.00,2.7402
2354.00,2.7402
2353.00,2.7420
2352.00,2.7446
2351.00,2.7443
2350.00,2.7400
2349.00,2.7348
2348.00,2.7340
2347.00,2.7378
2346.00,2.7424
2345.00,2.7416
2344.00,2.7341
2343.00,2.7233
2342.00,2.7125
2341.00,2.7037
2340.00,2.6953
2339.00,2.6869
2338.00,2.6781
2337.00,2.6699
2336.00,2.6612
2335.00,2.6515
2334.00,2.6396
2333.00,2.6273
2332.00,2.6147
2331.00,2.6029
2330.00,2.5911
2329.00,2.5786
2328.00,2.5649
2327.00,2.5487
2326.00,2.5310
2325.00,2.5124
2324.00,2.4939
2323.00,2.4757
2322.00,2.4566
2321.00,2.4362
2320.00,2.4133
2319.00,2.3883
2318.00,2.3609
2317.00,2.3318
2316.00,2.3005
2315.00,2.2679
2314.00,2.2341
2313.00,2.1994
2312.00,2.1632
2311.00,2.1248
2310.00,2.0839
2309.00,2.0412
2308.00,1.9978
2307.00,1.9559
2306.00,1.9175
2305.00,1.8851
2304.00,1.8610
2303.00,1.8479
2302.00,1.8480
2301.00,1.8630
2300.00,1.8932
2299.00,1.9380
2298.00,1.9953
2297.00,2.0620
2296.00,2.1335
2295.00,2.2030
2294.00,2.2619
2293.00,2.3009
2292.00,2.3126
2291.00,2.2950
2290.00,2.2521
2289.00,2.1913
2288.00,2.1206
2287.00,2.0463
2286.00,1.9733
2285.00,1.9047
2284.00,1.8435
2283.00,1.7918
2282.00,1.7520
2281.00,1.7257
2280.00,1.7138
2279.00,1.7164
2278.00,1.7325
2277.00,1.7607
2276.00,1.7990
2275.00,1.8453
2274.00,1.8977
2273.00,1.9544
2272.00,2.0139
2271.00,2.0751
2270.00,2.1375
2269.00,2.2007
2268.00,2.2646
2267.00,2.3287
2266.00,2.3930
2265.00,2.4573
2264.00,2.5217
2263.00,2.5864
2262.00,2.6519
2261.00,2.7197
2260.00,2.7925
2259.00,2.8748
2258.00,2.9732
2257.00,3.0948
2256.00,3.2431
2255.00,3.4112
2254.00,3.5668
2253.00,3.6441
2252.00,3.5996
2251.00,3.4647
2250.00,3.2886
2249.00,3.0993
2248.00,2.9130
2247.00,2.7376
2246.00,2.5763
2245.00,2.4314
2244.00,2.3055
2243.00,2.2020
2242.00,2.1235
2241.00,2.0710
2240.00,2.0434
2239.00,2.0379
2238.00,2.0509
2237.00,2.0782
2236.00,2.1155
2235.00,2.1589
2234.00,2.2056
2233.00,2.2537
2232.00,2.3016
2231.00,2.3472
2230.00,2.3886
2229.00,2.4255
2228.00,2.4588
2227.00,2.4891
2226.00,2.5166
2225.00,2.5414
2224.00,2.5643
2223.00,2.5860
2222.00,2.6065
2221.00,2.6259
2220.00,2.6444
2219.00,2.6621
2218.00,2.6789
2217.00,2.6940
2216.00,2.7071
2215.00,2.7184
2214.00,2.7285
2213.00,2.7373
2212.00,2.7446
2211.00,2.7507
2210.00,2.7562
2209.00,2.7627
2208.00,2.7707
2207.00,2.7791
2206.00,2.7860
2205.00,2.7900
2204.00,2.7917
2203.00,2.7922
2202.00,2.7922
2201.00,2.7923
2200.00,2.7935
2199.00,2.7961
2198.00,2.7993
2197.00,2.8015
2196.00,2.8021
2195.00,2.8011
2194.00,2.7977
2193.00,2.7918
2192.00,2.7857
2191.00,2.7823
2190.00,2.7813
2189.00,2.7792
2188.00,2.7732
2187.00,2.7641
2186.00,2.7552
2185.00,2.7484
2184.00,2.7428
2183.00,2.7368
2182.00,2.7295
2181.00,2.7203
2180.00,2.7096
2179.00,2.6985
2178.00,2.6879
2177.00,2.6777
2176.00,2.6668
2175.00,2.6550
2174.00,2.6427
2173.00,2.6302
2172.00,2.6170
2171.00,2.6022
2170.00,2.5858
2169.00,2.5680
2168.00,2.5491
2167.00,2.5292
2166.00,2.5086
2165.00,2.4872
2164.00,2.4646
2163.00,2.4404
2162.00,2.4145
2161.00,2.3874
2160.00,2.3595
2159.00,2.3308
2158.00,2.3012
2157.00,2.2700
2156.00,2.2369
2155.00,2.2012
2154.00,2.1626
2153.00,2.1214
2152.00,2.0778
2151.00,2.0321
2150.00,1.9840
2149.00,1.9334
2148.00,1.8805
2147.00,1.8257
2146.00,1.7697
2145.00,1.7133
2144.00,1.6573
2143.00,1.6028
2142.00,1.5506
2141.00,1.5018
2140.00,1.4573
2139.00,1.4179
2138.00,1.3843
2137.00,1.3575
2136.00,1.3379
2135.00,1.3261
2134.00,1.3225
2133.00,1.3271
2132.00,1.3395
2131.00,1.3592
2130.00,1.3854
2129.00,1.4172
2128.00,1.4537
2127.00,1.4940
2126.00,1.5371
2125.00,1.5826
2124.00,1.6298
2123.00,1.6784
2122.00,1.7278
2121.00,1.7778
2120.00,1.8280
2119.00,1.8783
2118.00,1.9284
2117.00,1.9779
2116.00,2.0263
2115.00,2.0732
2114.00,2.1183
2113.00,2.1613
2112.00,2.2019
2111.00,2.2405
2110.00,2.2776
2109.00,2.3135
2108.00,2.3477
2107.00,2.3795
2106.00,2.4093
2105.00,2.4380
2104.00,2.4663
2103.00,2.4944
2102.00,2.5216
2101.00,2.5472
2100.00,2.5703
2099.00,2.5908
2098.00,2.6093
2097.00,2.6266
2096.00,2.6432
2095.00,2.6592
2094.00,2.6743
2093.00,2.6880
2092.00,2.7008
2091.00,2.7136
2090.00,2.7276
2089.00,2.7428
2088.00,2.7581
2087.00,2.7716
2086.00,2.7825
2085.00,2.7916
2084.00,2.8000
2083.00,2.8084
2082.00,2.8164
2081.00,2.8238
2080.00,2.8312
2079.00,2.8392
2078.00,2.8472
2077.00,2.8538
2076.00,2.8596
2075.00,2.8667
2074.00,2.8760
2073.00,2.8856
2072.00,2.8921
2071.00,2.8942
2070.00,2.8926
2069.00,2.8894
2068.00,2.8873
2067.00,2.8887
2066.00,2.8937
2065.00,2.8992
2064.00,2.9019
2063.00,2.9017
2062.00,2.9009
2061.00,2.9013
2060.00,2.9024
2059.00,2.9034
2058.00,2.9026
2057.00,2.8987
2056.00,2.8920
2055.00,2.8852
2054.00,2.8807
2053.00,2.8781
2052.00,2.8751
2051.00,2.8712
2050.00,2.8675
2049.00,2.8639
2048.00,2.8591
2047.00,2.8521
2046.00,2.8436
2045.00,2.8347
2044.00,2.8259
2043.00,2.8171
2042.00,2.8077
2041.00,2.7968
2040.00,2.7842
2039.00,2.7714
2038.00,2.7600
2037.00,2.7497
2036.00,2.7387
2035.00,2.7258
2034.00,2.7110
2033.00,2.6948
2032.00,2.6769
2031.00,2.6582
2030.00,2.6398
2029.00,2.6222
2028.00,2.6046
2027.00,2.5859
2026.00,2.5656
2025.00,2.5431
2024.00,2.5180
2023.00,2.4909
2022.00,2.4631
2021.00,2.4351
2020.00,2.4062
2019.00,2.3754
2018.00,2.3424
2017.00,2.3071
2016.00,2.2692
2015.00,2.2289
2014.00,2.1867
2013.00,2.1433
2012.00,2.0980
2011.00,2.0498
2010.00,1.9983
2009.00,1.9439
2008.00,1.8878
2007.00,1.8307
2006.00,1.7735
2005.00,1.7168
2004.00,1.6618
2003.00,1.6095
2002.00,1.5612
2001.00,1.5178
2000.00,1.4802
1999.00,1.4492
1998.00,1.4254
1997.00,1.4092
1996.00,1.4012
1995.00,1.4020
1994.00,1.4121
1993.00,1.4307
1992.00,1.4565
1991.00,1.4883
1990.00,1.5252
1989.00,1.5667
1988.00,1.6116
1987.00,1.6589
1986.00,1.7080
1985.00,1.7584
1984.00,1.8099
1983.00,1.8617
1982.00,1.9135
1981.00,1.9650
1980.00,2.0161
1979.00,2.0662
1978.00,2.1150
1977.00,2.1621
1976.00,2.2076
1975.00,2.2516
1974.00,2.2937
1973.00,2.3333
1972.00,2.3702
1971.00,2.4045
1970.00,2.4370
1969.00,2.4689
1968.00,2.5007
1967.00,2.5318
1966.00,2.5615
1965.00,2.5893
1964.00,2.6152
1963.00,2.6391
1962.00,2.6610
1961.00,2.6814
1960.00,2.7015
1959.00,2.7215
1958.00,2.7407
1957.00,2.7580
1956.00,2.7731
1955.00,2.7864
1954.00,2.7991
1953.00,2.8133
1952.00,2.8303
1951.00,2.8497
1950.00,2.8686
1949.00,2.8827
1948.00,2.8897
1947.00,2.8907
1946.00,2.8910
1945.00,2.8960
1944.00,2.9067
1943.00,2.9190
1942.00,2.9283
1941.00,2.9347
1940.00,2.9419
1939.00,2.9521
1938.00,2.9637
1937.00,2.9735
1936.00,2.9802
1935.00,2.9844
1934.00,2.9866
1933.00,2.9876
1932.00,2.9896
1931.00,2.9945
1930.00,3.0017
1929.00,3.0077
1928.00,3.0100
1927.00,3.0093
1926.00,3.0086
1925.00,3.0101
1924.00,3.0128
1923.00,3.0147
1922.00,3.0145
1921.00,3.0125
1920.00,3.0091
1919.00,3.0040
1918.00,2.9963
1917.00,2.9879
1916.00,2.9819
1915.00,2.9798
1914.00,2.9802
1913.00,2.9806
1912.00,2.9783
1911.00,2.9721
1910.00,2.9629
1909.00,2.9533
1908.00,2.9465
1907.00,2.9433
1906.00,2.9410
1905.00,2.9365
1904.00,2.9282
1903.00,2.9171
1902.00,2.9053
1901.00,2.8932
1900.00,2.8804
1899.00,2.8665
1898.00,2.8521
1897.00,2.8382
1896.00,2.8246
1895.00,2.8096
1894.00,2.7920
1893.00,2.7732
1892.00,2.7558
1891.00,2.7404
1890.00,2.7248
1889.00,2.7066
1888.00,2.6852
1887.00,2.6616
1886.00,2.6367
1885.00,2.6109
1884.00,2.5845
1883.00,2.5576
1882.00,2.5294
1881.00,2.4990
1880.00,2.4664
1879.00,2.4320
1878.00,2.3962
1877.00,2.3591
1876.00,2.3208
1875.00,2.2798
1874.00,2.2345
1873.00,2.1849
1872.00,2.1328
1871.00,2.0788
1870.00,2.0221
1869.00,1.9623
1868.00,1.9016
1867.00,1.8427
1866.00,1.7870
1865.00,1.7346
1864.00,1.6850
1863.00,1.6390
1862.00,1.5979
1861.00,1.5634
1860.00,1.5372
1859.00,1.5199
1858.00,1.5122
1857.00,1.5142
1856.00,1.5260
1855.00,1.5467
1854.00,1.5753
1853.00,1.6103
1852.00,1.6507
1851.00,1.6955
1850.00,1.7432
1849.00,1.7921
1848.00,1.8419
1847.00,1.8940
1846.00,1.9498
1845.00,2.0086
1844.00,2.0679
1843.00,2.1247
1842.00,2.1784
1841.00,2.2297
1840.00,2.2792
1839.00,2.3264
1838.00,2.3714
1837.00,2.4145
1836.00,2.4549
1835.00,2.4904
1834.00,2.5205
1833.00,2.5478
1832.00,2.5759
1831.00,2.6068
1830.00,2.6389
1829.00,2.6703
1828.00,2.7006
1827.00,2.7297
1826.00,2.7556
1825.00,2.7760
1824.00,2.7921
1823.00,2.8089
1822.00,2.8298
1821.00,2.8541
1820.00,2.8787
1819.00,2.9005
1818.00,2.9179
1817.00,2.9313
1816.00,2.9426
1815.00,2.9542
1814.00,2.9673
1813.00,2.9798
1812.00,2.9883
1811.00,2.9922
1810.00,2.9957
1809.00,3.0030
1808.00,3.0145
1807.00,3.0275
1806.00,3.0394
1805.00,3.0485
1804.00,3.0542
1803.00,3.0572
1802.00,3.0602
1801.00,3.0654
1800.00,3.0722
1799.00,3.0771
1798.00,3.0782
1797.00,3.0777
1796.00,3.0796
1795.00,3.0863
1794.00,3.0960
1793.00,3.1045
1792.00,3.1095
1791.00,3.1121
1790.00,3.1133
1789.00,3.1125
1788.00,3.1094
1787.00,3.1075
1786.00,3.1112
1785.00,3.1189
1784.00,3.1239
1783.00,3.1233
1782.00,3.1201
1781.00,3.1161
1780.00,3.1092
1779.00,3.0979
1778.00,3.0861
1777.00,3.0774
1776.00,3.0709
1775.00,3.0636
1774.00,3.0541
1773.00,3.0435
1772.00,3.0352
1771.00,3.0313
1770.00,3.0308
1769.00,3.0305
1768.00,3.0244
1767.00,3.0096
1766.00,2.9905
1765.00,2.9751
1764.00,2.9660
1763.00,2.9583
1762.00,2.9444
1761.00,2.9216
1760.00,2.8947
1759.00,2.8701
1758.00,2.8493
1757.00,2.8274
1756.00,2.8012
1755.00,2.7737
1754.00,2.7498
1753.00,2.7285
1752.00,2.7027
1751.00,2.6678
1750.00,2.6281
1749.00,2.5914
1748.00,2.5599
1747.00,2.5318
1746.00,2.5046
1745.00,2.4766
1744.00,2.4476
1743.00,2.4188
1742.00,2.3933
1741.00,2.3723
1740.00,2.3523
1739.00,2.3292
1738.00,2.3064
1737.00,2.2918
1736.00,2.2883
1735.00,2.2896
1734.00,2.2886
1733.00,2.2868
1732.00,2.2932
1731.00,2.3137
1730.00,2.3479
1729.00,2.3916
1728.00,2.4416
1727.00,2.4974
1726.00,2.5590
1725.00,2.6261
1724.00,2.6973
1723.00,2.7696
1722.00,2.8413
1721.00,2.9131
1720.00,2.9868
1719.00,3.0660
1718.00,3.1550
1717.00,3.2527
1716.00,3.3479
1715.00,3.4342
1714.00,3.5172
1713.00,3.5974
1712.00,3.6679
1711.00,3.7258
1710.00,3.7764
1709.00,3.8187
1708.00,3.8455
1707.00,3.8501
1706.00,3.8109
1705.00,3.7075
1704.00,3.5701
1703.00,3.4420
1702.00,3.3248
1701.00,3.1897
1700.00,3.0331
1699.00,2.8877
1698.00,2.7727
1697.00,2.6761
1696.00,2.5771
1695.00,2.4728
1694.00,2.3798
1693.00,2.3107
1692.00,2.2642
1691.00,2.2342
1690.00,2.2183
1689.00,2.2159
1688.00,2.2273
1687.00,2.2525
1686.00,2.2911
1685.00,2.3426
1684.00,2.4046
1683.00,2.4685
1682.00,2.5260
1681.00,2.5758
1680.00,2.6184
1679.00,2.6554
1678.00,2.6908
1677.00,2.7291
1676.00,2.7692
1675.00,2.8047
1674.00,2.8301
1673.00,2.8472
1672.00,2.8639
1671.00,2.8861
1670.00,2.9153
1669.00,2.9475
1668.00,2.9762
1667.00,2.9985
1666.00,3.0160
1665.00,3.0312
1664.00,3.0469
1663.00,3.0668
1662.00,3.0932
1661.00,3.1232
1660.00,3.1520
1659.00,3.1747
1658.00,3.1879
1657.00,3.1912
1656.00,3.1895
1655.00,3.1895
1654.00,3.1964
1653.00,3.2076
1652.00,3.2071
1651.00,3.1933
1650.00,3.1804
1649.00,3.1758
1648.00,3.1827
1647.00,3.2009
1646.00,3.2220
1645.00,3.2339
1644.00,3.2362
1643.00,3.2378
1642.00,3.2438
1641.00,3.2503
1640.00,3.2518
1639.00,3.2478
1638.00,3.2437
1637.00,3.2435
1636.00,3.2463
1635.00,3.2475
1634.00,3.2460
1633.00,3.2474
1632.00,3.2531
1631.00,3.2583
1630.00,3.2576
1629.00,3.2491
1628.00,3.2352
1627.00,3.2210
1626.00,3.2108
1625.00,3.2064
1624.00,3.2070
1623.00,3.2101
1622.00,3.2102
1621.00,3.2029
1620.00,3.1897
1619.00,3.1756
1618.00,3.1639
1617.00,3.1543
1616.00,3.1448
1615.00,3.1349
1614.00,3.1259
1613.00,3.1165
1612.00,3.1040
1611.00,3.0894
1610.00,3.0763
1609.00,3.0655
1608.00,3.0537
1607.00,3.0386
1606.00,3.0204
1605.00,2.9987
1604.00,2.9737
1603.00,2.9471
1602.00,2.9211
1601.00,2.8966
1600.00,2.8734
1599.00,2.8505
1598.00,2.8263
1597.00,2.7985
1596.00,2.7669
1595.00,2.7336
1594.00,2.7007
1593.00,2.6676
1592.00,2.6330
1591.00,2.5957
1590.00,2.5557
1589.00,2.5128
1588.00,2.4680
1587.00,2.4221
1586.00,2.3759
1585.00,2.3292
1584.00,2.2829
1583.00,2.2391
1582.00,2.1984
1581.00,2.1595
1580.00,2.1234
1579.00,2.0937
1578.00,2.0723
1577.00,2.0581
1576.00,2.0476
1575.00,2.0394
1574.00,2.0364
1573.00,2.0422
1572.00,2.0572
1571.00,2.0799
1570.00,2.1106
1569.00,2.1481
1568.00,2.1890
1567.00,2.2316
1566.00,2.2759
1565.00,2.3201
1564.00,2.3614
1563.00,2.3994
1562.00,2.4361
1561.00,2.4723
1560.00,2.5077
1559.00,2.5541
1558.00,2.6099
1557.00,2.6600
1556.00,2.7050
1555.00,2.7480
1554.00,2.7864
1553.00,2.8194
1552.00,2.8504
1551.00,2.8818
1550.00,2.9127
1549.00,2.9419
1548.00,2.9699
1547.00,2.9972
1546.00,3.0213
1545.00,3.0389
1544.00,3.0499
1543.00,3.0570
1542.00,3.0639
1541.00,3.0772
1540.00,3.1031
1539.00,3.1343
1538.00,3.1617
1537.00,3.1866
1536.00,3.2105
1535.00,3.2321
1534.00,3.2499
1533.00,3.2621
1532.00,3.2682
1531.00,3.2701
1530.00,3.2734
1529.00,3.2805
1528.00,3.2892
1527.00,3.2971
1526.00,3.3040
1525.00,3.3108
1524.00,3.3168
1523.00,3.3221
1522.00,3.3297
1521.00,3.3402
1520.00,3.3479
1519.00,3.3503
1518.00,3.3530
1517.00,3.3633
1516.00,3.3803
1515.00,3.3952
1514.00,3.4006
1513.00,3.3961
1512.00,3.3872
1511.00,3.3802
1510.00,3.3789
1509.00,3.3811
1508.00,3.3815
1507.00,3.3821
1506.00,3.3834
1505.00,3.3844
1504.00,3.3915
1503.00,3.4074
1502.00,3.4261
1501.00,3.4374
1500.00,3.4337
1499.00,3.4177
1498.00,3.3995
1497.00,3.3854
1496.00,3.3713
1495.00,3.3537
1494.00,3.3397
1493.00,3.3372
1492.00,3.3455
1491.00,3.3566
1490.00,3.3624
1489.00,3.3600
1488.00,3.3533
1487.00,3.3470
1486.00,3.3418
1485.00,3.3360
1484.00,3.3297
1483.00,3.3266
1482.00,3.3289
1481.00,3.3297
1480.00,3.3163
1479.00,3.2868
1478.00,3.2546
1477.00,3.2338
1476.00,3.2269
1475.00,3.2272
1474.00,3.2265
1473.00,3.2222
1472.00,3.2156
1471.00,3.2073
1470.00,3.1990
1469.00,3.1931
1468.00,3.1899
1467.00,3.1897
1466.00,3.1947
1465.00,3.2056
1464.00,3.2196
1463.00,3.2305
1462.00,3.2357
1461.00,3.2366
1460.00,3.2372
1459.00,3.2448
1458.00,3.2704
1457.00,3.3208
1456.00,3.3863
1455.00,3.4506
1454.00,3.5065
1453.00,3.5555
1452.00,3.5969
1451.00,3.6229
1450.00,3.6250
1449.00,3.6050
1448.00,3.5755
1447.00,3.5544
1446.00,3.5537
1445.00,3.5714
1444.00,3.5930
1443.00,3.6021
1442.00,3.5958
1441.00,3.5831
1440.00,3.5726
1439.00,3.5683
1438.00,3.5713
1437.00,3.5797
1436.00,3.5863
1435.00,3.5845
1434.00,3.5758
1433.00,3.5644
1432.00,3.5485
1431.00,3.5282
1430.00,3.5132
1429.00,3.5127
1428.00,3.5236
1427.00,3.5357
1426.00,3.5417
1425.00,3.5393
1424.00,3.5293
1423.00,3.5151
1422.00,3.5023
1421.00,3.4904
1420.00,3.4721
1419.00,3.4459
1418.00,3.4215
1417.00,3.4082
1416.00,3.4038
1415.00,3.4013
1414.00,3.3967
1413.00,3.3896
1412.00,3.3800
1411.00,3.3671
1410.00,3.3529
1409.00,3.3406
1408.00,3.3295
1407.00,3.3172
1406.00,3.3054
1405.00,3.2968
1404.00,3.2896
1403.00,3.2799
1402.00,3.2698
1401.00,3.2649
1400.00,3.2655
1399.00,3.2667
1398.00,3.2664
1397.00,3.2689
1396.00,3.2759
1395.00,3.2835
1394.00,3.2883
1393.00,3.2933
1392.00,3.3034
1391.00,3.3193
1390.00,3.3397
1389.00,3.3668
1388.00,3.4011
1387.00,3.4366
1386.00,3.4658
1385.00,3.4927
1384.00,3.5293
1383.00,3.5777
1382.00,3.6253
1381.00,3.6612
1380.00,3.6901
1379.00,3.7225
1378.00,3.7553
1377.00,3.7691
1376.00,3.7492
1375.00,3.7011
1374.00,3.6409
1373.00,3.5827
1372.00,3.5316
1371.00,3.4872
1370.00,3.4484
1369.00,3.4155
1368.00,3.3909
1367.00,3.3774
1366.00,3.3759
1365.00,3.3844
1364.00,3.3964
1363.00,3.4053
1362.00,3.4109
1361.00,3.4201
1360.00,3.4382
1359.00,3.4610
1358.00,3.4796
1357.00,3.4908
1356.00,3.5008
1355.00,3.5157
1354.00,3.5322
1353.00,3.5422
1352.00,3.5448
1351.00,3.5480
1350.00,3.5587
1349.00,3.5753
1348.00,3.5928
1347.00,3.6095
1346.00,3.6262
1345.00,3.6390
1344.00,3.6377
1343.00,3.6176
1342.00,3.5874
1341.00,3.5638
1340.00,3.5603
1339.00,3.5802
1338.00,3.6123
1337.00,3.6351
1336.00,3.6343
1335.00,3.6207
1334.00,3.6155
1333.00,3.6258
1332.00,3.6393
1331.00,3.6388
1330.00,3.6215
1329.00,3.5989
1328.00,3.5845
1327.00,3.5846
1326.00,3.5915
1325.00,3.5879
1324.00,3.5664
1323.00,3.5370
1322.00,3.5164
1321.00,3.5126
1320.00,3.5200
1319.00,3.5277
1318.00,3.5308
1317.00,3.5312
1316.00,3.5309
1315.00,3.5303
1314.00,3.5316
1313.00,3.5351
1312.00,3.5345
1311.00,3.5229
1310.00,3.5046
1309.00,3.4912
1308.00,3.4861
1307.00,3.4816
1306.00,3.4688
1305.00,3.4482
1304.00,3.4253
1303.00,3.4027
1302.00,3.3781
1301.00,3.3488
1300.00,3.3142
1299.00,3.2763
1298.00,3.2394
1297.00,3.2066
1296.00,3.1784
1295.00,3.1520
1294.00,3.1247
1293.00,3.0950
1292.00,3.0612
1291.00,3.0217
1290.00,2.9764
1289.00,2.9271
1288.00,2.8755
1287.00,2.8219
1286.00,2.7666
1285.00,2.7108
1284.00,2.6561
1283.00,2.6045
1282.00,2.5576
1281.00,2.5170
1280.00,2.4838
1279.00,2.4584
1278.00,2.4407
1277.00,2.4292
1276.00,2.4215
1275.00,2.4150
1274.00,2.4085
1273.00,2.4034
1272.00,2.4028
1271.00,2.4100
1270.00,2.4259
1269.00,2.4496
1268.00,2.4785
1267.00,2.5109
1266.00,2.5463
1265.00,2.5858
1264.00,2.6303
1263.00,2.6794
1262.00,2.7304
1261.00,2.7803
1260.00,2.8277
1259.00,2.8741
1258.00,2.9223
1257.00,2.9723
1256.00,3.0210
1255.00,3.0651
1254.00,3.1031
1253.00,3.1360
1252.00,3.1663
1251.00,3.1968
1250.00,3.2299
1249.00,3.2652
1248.00,3.3003
1247.00,3.3340
1246.00,3.3666
1245.00,3.3965
1244.00,3.4177
1243.00,3.4297
1242.00,3.4414
1241.00,3.4611
1240.00,3.4848
1239.00,3.4995
1238.00,3.5029
1237.00,3.5076
1236.00,3.5221
1235.00,3.5421
1234.00,3.5646
1233.00,3.5923
1232.00,3.6194
1231.00,3.6338
1230.00,3.6404
1229.00,3.6571
1228.00,3.6865
1227.00,3.7067
1226.00,3.6993
1225.00,3.6783
1224.00,3.6705
1223.00,3.6796
1222.00,3.6875
1221.00,3.6861
1220.00,3.6892
1219.00,3.7048
1218.00,3.7163
1217.00,3.7022
1216.00,3.6703
1215.00,3.6486
1214.00,3.6547
1213.00,3.6857
1212.00,3.7258
1211.00,3.7592
1210.00,3.7744
1209.00,3.7629
1208.00,3.7272
1207.00,3.6842
1206.00,3.6581
1205.00,3.6644
1204.00,3.6931
1203.00,3.7091
1202.00,3.7028
1201.00,3.7074
1200.00,3.7450
1199.00,3.8047
1198.00,3.8490
1197.00,3.8449
1196.00,3.8101
1195.00,3.7803
1194.00,3.7748
1193.00,3.7993
1192.00,3.8290
1191.00,3.8163
1190.00,3.7616
1189.00,3.7057
1188.00,3.6705
1187.00,3.6588
1186.00,3.6703
1185.00,3.7085
1184.00,3.7751
1183.00,3.8376
1182.00,3.8262
1181.00,3.7519
1180.00,3.6943
1179.00,3.6842
1178.00,3.7017
1177.00,3.7109
1176.00,3.6952
1175.00,3.6611
1174.00,3.6292
1173.00,3.6115
1172.00,3.5974
1171.00,3.5715
1170.00,3.5388
1169.00,3.5185
1168.00,3.5194
1167.00,3.5317
1166.00,3.5373
1165.00,3.5243
1164.00,3.4944
1163.00,3.4546
1162.00,3.4074
1161.00,3.3522
1160.00,3.2963
1159.00,3.2543
1158.00,3.2336
1157.00,3.2263
1156.00,3.2134
1155.00,3.1814
1154.00,3.1360
1153.00,3.0915
1152.00,3.0531
1151.00,3.0153
1150.00,2.9716
1149.00,2.9217
1148.00,2.8698
1147.00,2.8195
1146.00,2.7726
1145.00,2.7303
1144.00,2.6938
1143.00,2.6638
1142.00,2.6409
1141.00,2.6261
1140.00,2.6215
1139.00,2.6289
1138.00,2.6486
1137.00,2.6789
1136.00,2.7175
1135.00,2.7626
1134.00,2.8134
1133.00,2.8687
1132.00,2.9260
1131.00,2.9820
1130.00,3.0367
1129.00,3.0946
1128.00,3.1606
1127.00,3.2335
1126.00,3.3063
1125.00,3.3730
1124.00,3.4312
1123.00,3.4730
1122.00,3.4836
1121.00,3.4633
1120.00,3.4336
1119.00,3.4194
1118.00,3.4301
1117.00,3.4557
1116.00,3.4878
1115.00,3.5225
1114.00,3.5511
1113.00,3.5747
1112.00,3.6101
1111.00,3.6648
1110.00,3.7198
1109.00,3.7441
1108.00,3.7353
1107.00,3.7217
1106.00,3.7198
1105.00,3.7177
1104.00,3.6992
1103.00,3.6716
1102.00,3.6596
1101.00,3.6753
1100.00,3.7050
1099.00,3.7445
1098.00,3.8161
1097.00,3.9264
1096.00,3.9946
1095.00,3.9467
1094.00,3.8877
1093.00,3.8855
1092.00,3.9071
1091.00,3.8947
1090.00,3.8544
1089.00,3.8202
1088.00,3.8132
1087.00,3.8553
1086.00,3.9449
1085.00,3.9926
1084.00,3.9308
1083.00,3.8766
1082.00,3.8939
1081.00,3.9270
1080.00,3.9033
1079.00,3.8552
1078.00,3.8319
1077.00,3.8467
1076.00,3.9073
1075.00,4.0037
1074.00,4.0994
1073.00,4.1379
1072.00,4.0845
1071.00,3.9895
1070.00,3.9285
1069.00,3.9358
1068.00,4.0224
1067.00,4.1701
1066.00,4.2209
1065.00,4.0651
1064.00,3.8912
1063.00,3.7812
1062.00,3.7355
1061.00,3.7427
1060.00,3.7872
1059.00,3.8535
1058.00,3.9189
1057.00,3.9574
1056.00,3.9632
1055.00,3.9574
1054.00,3.9464
1053.00,3.9084
1052.00,3.8463
1051.00,3.7978
1050.00,3.7888
1049.00,3.8149
1048.00,3.8523
1047.00,3.8942
1046.00,3.9452
1045.00,3.9627
1044.00,3.9224
1043.00,3.8679
1042.00,3.8251
1041.00,3.8130
1040.00,3.8484
1039.00,3.9212
1038.00,3.9817
1037.00,3.9761
1036.00,3.9322
1035.00,3.9193
1034.00,3.9606
1033.00,4.0149
1032.00,4.0109
1031.00,3.9487
1030.00,3.9039
1029.00,3.9091
1028.00,3.9283
1027.00,3.8987
1026.00,3.8151
1025.00,3.7467
1024.00,3.7293
1023.00,3.7343
1022.00,3.7215
1021.00,3.6972
1020.00,3.6872
1019.00,3.6988
1018.00,3.7294
1017.00,3.7738
1016.00,3.8219
1015.00,3.8554
1014.00,3.8532
1013.00,3.8316
1012.00,3.8379
1011.00,3.8848
1010.00,3.9260
1009.00,3.9063
1008.00,3.8481
1007.00,3.8096
1006.00,3.8107
1005.00,3.8394
1004.00,3.8711
1003.00,3.8614
1002.00,3.7992
1001.00,3.7290
1000.00,3.6638
999.00,3.5882
998.00,3.5056
997.00,3.4342
996.00,3.3855
995.00,3.3602
994.00,3.3499
993.00,3.3414
992.00,3.3243
991.00,3.3014
990.00,3.2871
989.00,3.2959
988.00,3.3318
987.00,3.3836
986.00,3.4313
985.00,3.4638
984.00,3.4870
983.00,3.5116
982.00,3.5394
981.00,3.5701
980.00,3.6067
979.00,3.6506
978.00,3.7075
977.00,3.7947
976.00,3.9260
975.00,4.0108
974.00,3.9655
973.00,3.9082
972.00,3.8858
971.00,3.8901
970.00,3.9192
969.00,3.9164
968.00,3.8360
967.00,3.7582
966.00,3.7460
965.00,3.7831
964.00,3.8104
963.00,3.8214
962.00,3.8886
961.00,4.0555
960.00,4.2294
959.00,4.1829
958.00,4.3673
957.00,4.5907
956.00,4.0713
955.00,3.9217
954.00,3.9823
953.00,4.1264
952.00,4.2373
951.00,4.1374
950.00,3.9845
949.00,3.8786
948.00,3.8621
947.00,3.9473
946.00,4.1395
945.00,4.3799
944.00,4.4563
943.00,4.2679
942.00,4.0947
941.00,4.0431
940.00,4.0999
939.00,4.1806
938.00,4.2095
937.00,4.2333
936.00,4.2373
935.00,4.2719
934.00,4.3767
933.00,4.3996
932.00,4.2811
931.00,4.1493
930.00,4.0733
929.00,4.0149
928.00,3.9441
927.00,3.8930
926.00,3.8882
925.00,3.9279
924.00,3.9830
923.00,4.0183
922.00,4.0287
921.00,4.0454
920.00,4.1002
919.00,4.1473
918.00,4.1138
917.00,4.0341
916.00,3.9646
915.00,3.9349
914.00,3.9956
913.00,4.1260
912.00,4.1121
911.00,4.1172
910.00,4.4578
909.00,4.5991
908.00,4.3097
907.00,4.5670
906.00,4.9791
905.00,4.4924
904.00,4.3455
903.00,4.2239
902.00,4.0988
901.00,4.0465
900.00,4.0802
899.00,4.1730
898.00,4.2612
897.00,4.3097
896.00,4.2571
895.00,4.1872
894.00,4.1769
893.00,4.1841
892.00,4.1169
891.00,3.9913
890.00,3.8819
889.00,3.8737
888.00,3.9869
887.00,4.3009
886.00,5.0288
885.00,4.7104
884.00,4.5194
883.00,4.4267
882.00,4.1794
881.00,4.0121
880.00,3.9368
879.00,3.9345
878.00,3.9646
877.00,4.0349
876.00,4.1879
875.00,4.4826
874.00,4.5544
873.00,4.1761
872.00,3.9243
871.00,3.7959
870.00,3.7612
869.00,3.7636
868.00,3.7389
867.00,3.7218
866.00,3.7483
865.00,3.8240
864.00,3.9329
863.00,3.9767
862.00,3.9390
861.00,3.9516
860.00,4.0206
859.00,4.1172
858.00,4.1662
857.00,4.2873
856.00,4.8160
855.00,4.6405
854.00,4.1879
853.00,4.0310
852.00,4.0168
851.00,4.0970
850.00,4.1540
849.00,4.0744
848.00,3.9541
847.00,3.9047
846.00,3.9235
845.00,3.9563
844.00,3.9830
843.00,4.0043
842.00,4.0004
841.00,4.0045
840.00,4.0797
839.00,4.1773
838.00,4.0720
837.00,3.9135
836.00,3.8788
835.00,3.9503
834.00,4.0118
833.00,3.9209
832.00,3.7703
831.00,3.6861
830.00,3.6835
829.00,3.7290
828.00,3.7824
827.00,3.7955
826.00,3.7431
825.00,3.6789
824.00,3.6670
823.00,3.7315
822.00,3.8576
821.00,3.9929
820.00,4.0637
819.00,4.0545
818.00,4.0417
817.00,4.0590
816.00,4.0583
815.00,4.0315
814.00,4.0224
813.00,4.0075
812.00,3.9540
811.00,3.9051
810.00,3.9300
809.00,4.0664
808.00,4.3860
807.00,4.7329
806.00,4.4934
805.00,4.3350
804.00,4.2251
803.00,4.1503
802.00,4.1537
801.00,4.1817
800.00,4.2010
799.00,4.1899
798.00,4.1555
797.00,4.0925
796.00,4.0126
795.00,3.9586
794.00,3.9466
793.00,3.9635
792.00,3.9708
791.00,3.9140
790.00,3.8263
789.00,3.7800
788.00,3.7919
787.00,3.8330
786.00,3.8861
785.00,3.9949
784.00,4.2203
783.00,4.5569
782.00,4.6330
781.00,4.3787
780.00,4.2167
779.00,4.1410
778.00,4.0456
777.00,3.9124
776.00,3.8180
775.00,3.7965
774.00,3.8037
773.00,3.7892
772.00,3.7901
771.00,3.8762
770.00,4.0781
769.00,4.2740
768.00,4.3534
767.00,4.3662
766.00,4.2505
765.00,4.1626
764.00,4.1432
763.00,4.1573
762.00,4.1184
761.00,4.0244
760.00,3.9713
759.00,3.9899
758.00,4.0782
757.00,4.1620
756.00,4.1440
755.00,4.0564
754.00,3.9697
753.00,3.9498
752.00,3.9696
751.00,3.8831
750.00,3.7494
749.00,3.6880
748.00,3.7075
747.00,3.7869
746.00,3.8602
745.00,3.8644
744.00,3.8716
743.00,3.9535
742.00,4.1030
741.00,4.2147
740.00,4.2816
739.00,4.2106
738.00,3.9650
737.00,3.8437
736.00,3.8295
735.00,3.8158
734.00,3.7885
733.00,3.7821
732.00,3.8179
731.00,3.9059
730.00,4.0401
729.00,4.1421
728.00,4.1313
727.00,4.0014
726.00,3.9589
725.00,4.0260
724.00,4.3072
723.00,5.1452
722.00,4.2466
721.00,3.9525
720.00,3.8753
719.00,3.8737
718.00,3.8831
717.00,3.8421
716.00,3.8222
715.00,3.8196
714.00,3.8237
713.00,3.8466
712.00,3.9097
711.00,3.9719
710.00,3.9964
709.00,3.9440
708.00,3.8186
707.00,3.7316
706.00,3.6970
705.00,3.6696
704.00,3.6385
703.00,3.6322
702.00,3.6718
701.00,3.7419
700.00,3.7996
