Created as New Dataset,Sample 007 By Administrator Date Wednesday, November 24 2021
cm-1,A
7502.00,0.4769
7501.00,0.4806
7500.00,0.4849
7499.00,0.4897
7498.00,0.4946
7497.00,0.4998
7496.00,0.5056
7495.00,0.5121
7494.00,0.5191
7493.00,0.5260
7492.00,0.5324
7491.00,0.5385
7490.00,0.5450
7489.00,0.5523
7488.00,0.5598
7487.00,0.5674
7486.00,0.5752
7485.00,0.5839
7484.00,0.5934
7483.00,0.6032
7482.00,0.6126
7481.00,0.6216
7480.00,0.6307
7479.00,0.6399
7478.00,0.6489
7477.00,0.6575
7476.00,0.6658
7475.00,0.6739
7474.00,0.6819
7473.00,0.6897
7472.00,0.6974
7471.00,0.7052
7470.00,0.7133
7469.00,0.7217
7468.00,0.7301
7467.00,0.7384
7466.00,0.7466
7465.00,0.7548
7464.00,0.7631
7463.00,0.7714
7462.00,0.7796
7461.00,0.7873
7460.00,0.7943
7459.00,0.8007
7458.00,0.8069
7457.00,0.8133
7456.00,0.8196
7455.00,0.8256
7454.00,0.8313
7453.00,0.8370
7452.00,0.8427
7451.00,0.8480
7450.00,0.8527
7449.00,0.8569
7448.00,0.8609
7447.00,0.8647
7446.00,0.8681
7445.00,0.8709
7444.00,0.8731
7443.00,0.8748
7442.00,0.8763
7441.00,0.8777
7440.00,0.8794
7439.00,0.8812
7438.00,0.8828
7437.00,0.8837
7436.00,0.8839
7435.00,0.8837
7434.00,0.8832
7433.00,0.8824
7432.00,0.8813
7431.00,0.8797
7430.00,0.8779
7429.00,0.8763
7428.00,0.8753
7427.00,0.8746
7426.00,0.8737
7425.00,0.8717
7424.00,0.8683
7423.00,0.8641
7422.00,0.8596
7421.00,0.8550
7420.00,0.8495
7419.00,0.8429
7418.00,0.8354
7417.00,0.8280
7416.00,0.8211
7415.00,0.8146
7414.00,0.8079
7413.00,0.8010
7412.00,0.7938
7411.00,0.7866
7410.00,0.7796
7409.00,0.7728
7408.00,0.7661
7407.00,0.7597
7406.00,0.7538
7405.00,0.7483
7404.00,0.7427
7403.00,0.7366
7402.00,0.7297
7401.00,0.7224
7400.00,0.7150
7399.00,0.7074
7398.00,0.6996
7397.00,0.6917
7396.00,0.6842
7395.00,0.6775
7394.00,0.6713
7393.00,0.6655
7392.00,0.6600
7391.00,0.6546
7390.00,0.6495
7389.00,0.6445
7388.00,0.6397
7387.00,0.6351
7386.00,0.6308
7385.00,0.6269
7384.00,0.6231
7383.00,0.6194
7382.00,0.6158
7381.00,0.6127
7380.00,0.6099
7379.00,0.6074
7378.00,0.6046
7377.00,0.6015
7376.00,0.5978
7375.00,0.5941
7374.00,0.5907
7373.00,0.5880
7372.00,0.5857
7371.00,0.5837
7370.00,0.5822
7369.00,0.5815
7368.00,0.5817
7367.00,0.5826
7366.00,0.5838
7365.00,0.5852
7364.00,0.5868
7363.00,0.5889
7362.00,0.5916
7361.00,0.5947
7360.00,0.5979
7359.00,0.6013
7358.00,0.6053
7357.00,0.6101
7356.00,0.6154
7355.00,0.6209
7354.00,0.6268
7353.00,0.6332
7352.00,0.6401
7351.00,0.6470
7350.00,0.6537
7349.00,0.6603
7348.00,0.6669
7347.00,0.6734
7346.00,0.6802
7345.00,0.6875
7344.00,0.6955
7343.00,0.7041
7342.00,0.7132
7341.00,0.7227
7340.00,0.7323
7339.00,0.7415
7338.00,0.7500
7337.00,0.7578
7336.00,0.7654
7335.00,0.7730
7334.00,0.7807
7333.00,0.7887
7332.00,0.7970
7331.00,0.8059
7330.00,0.8150
7329.00,0.8240
7328.00,0.8325
7327.00,0.8407
7326.00,0.8490
7325.00,0.8577
7324.00,0.8663
7323.00,0.8745
7322.00,0.8822
7321.00,0.8898
7320.00,0.8975
7319.00,0.9052
7318.00,0.9128
7317.00,0.9201
7316.00,0.9267
7315.00,0.9328
7314.00,0.9387
7313.00,0.9448
7312.00,0.9508
7311.00,0.9566
7310.00,0.9623
7309.00,0.9683
7308.00,0.9742
7307.00,0.9797
7306.00,0.9846
7305.00,0.9894
7304.00,0.9942
7303.00,0.9984
7302.00,1.0020
7301.00,1.0055
7300.00,1.0096
7299.00,1.0139
7298.00,1.0177
7297.00,1.0205
7296.00,1.0226
7295.00,1.0244
7294.00,1.0259
7293.00,1.0268
7292.00,1.0271
7291.00,1.0272
7290.00,1.0271
7289.00,1.0269
7288.00,1.0265
7287.00,1.0257
7286.00,1.0244
7285.00,1.0226
7284.00,1.0207
7283.00,1.0192
7282.00,1.0178
7281.00,1.0158
7280.00,1.0128
7279.00,1.0093
7278.00,1.0057
7277.00,1.0021
7276.00,0.9979
7275.00,0.9931
7274.00,0.9881
7273.00,0.9833
7272.00,0.9785
7271.00,0.9735
7270.00,0.9681
7269.00,0.9623
7268.00,0.9560
7267.00,0.9492
7266.00,0.9421
7265.00,0.9348
7264.00,0.9274
7263.00,0.9200
7262.00,0.9128
7261.00,0.9060
7260.00,0.8988
7259.00,0.8912
7258.00,0.8832
7257.00,0.8751
7256.00,0.8665
7255.00,0.8572
7254.00,0.8476
7253.00,0.8383
7252.00,0.8294
7251.00,0.8208
7250.00,0.8124
7249.00,0.8044
7248.00,0.7966
7247.00,0.7888
7246.00,0.7808
7245.00,0.7726
7244.00,0.7647
7243.00,0.7571
7242.00,0.7499
7241.00,0.7430
7240.00,0.7365
7239.00,0.7303
7238.00,0.7245
7237.00,0.7191
7236.00,0.7142
7235.00,0.7096
7234.00,0.7051
7233.00,0.7009
7232.00,0.6969
7231.00,0.6934
7230.00,0.6905
7229.00,0.6881
7228.00,0.6862
7227.00,0.6846
7226.00,0.6836
7225.00,0.6834
7224.00,0.6839
7223.00,0.6848
7222.00,0.6862
7221.00,0.6879
7220.00,0.6900
7219.00,0.6924
7218.00,0.6950
7217.00,0.6980
7216.00,0.7016
7215.00,0.7057
7214.00,0.7103
7213.00,0.7151
7212.00,0.7203
7211.00,0.7257
7210.00,0.7314
7209.00,0.7374
7208.00,0.7437
7207.00,0.7502
7206.00,0.7568
7205.00,0.7638
7204.00,0.7712
7203.00,0.7789
7202.00,0.7864
7201.00,0.7939
7200.00,0.8014
7199.00,0.8095
7198.00,0.8179
7197.00,0.8263
7196.00,0.8343
7195.00,0.8423
7194.00,0.8507
7193.00,0.8595
7192.00,0.8682
7191.00,0.8763
7190.00,0.8842
7189.00,0.8922
7188.00,0.9006
7187.00,0.9088
7186.00,0.9166
7185.00,0.9238
7184.00,0.9308
7183.00,0.9380
7182.00,0.9454
7181.00,0.9528
7180.00,0.9601
7179.00,0.9672
7178.00,0.9743
7177.00,0.9813
7176.00,0.9880
7175.00,0.9943
7174.00,1.0005
7173.00,1.0067
7172.00,1.0127
7171.00,1.0183
7170.00,1.0235
7169.00,1.0280
7168.00,1.0319
7167.00,1.0351
7166.00,1.0380
7165.00,1.0412
7164.00,1.0447
7163.00,1.0485
7162.00,1.0523
7161.00,1.0561
7160.00,1.0595
7159.00,1.0622
7158.00,1.0639
7157.00,1.0651
7156.00,1.0662
7155.00,1.0674
7154.00,1.0684
7153.00,1.0691
7152.00,1.0695
7151.00,1.0699
7150.00,1.0699
7149.00,1.0691
7148.00,1.0675
7147.00,1.0657
7146.00,1.0641
7145.00,1.0626
7144.00,1.0608
7143.00,1.0585
7142.00,1.0557
7141.00,1.0528
7140.00,1.0497
7139.00,1.0465
7138.00,1.0433
7137.00,1.0399
7136.00,1.0363
7135.00,1.0326
7134.00,1.0287
7133.00,1.0243
7132.00,1.0188
7131.00,1.0121
7130.00,1.0046
7129.00,0.9969
7128.00,0.9894
7127.00,0.9820
7126.00,0.9749
7125.00,0.9679
7124.00,0.9609
7123.00,0.9536
7122.00,0.9460
7121.00,0.9383
7120.00,0.9304
7119.00,0.9221
7118.00,0.9133
7117.00,0.9042
7116.00,0.8949
7115.00,0.8855
7114.00,0.8765
7113.00,0.8679
7112.00,0.8595
7111.00,0.8512
7110.00,0.8430
7109.00,0.8353
7108.00,0.8279
7107.00,0.8206
7106.00,0.8131
7105.00,0.8053
7104.00,0.7974
7103.00,0.7896
7102.00,0.7823
7101.00,0.7755
7100.00,0.7690
7099.00,0.7628
7098.00,0.7567
7097.00,0.7510
7096.00,0.7456
7095.00,0.7405
7094.00,0.7355
7093.00,0.7309
7092.00,0.7266
7091.00,0.7227
7090.00,0.7193
7089.00,0.7163
7088.00,0.7138
7087.00,0.7118
7086.00,0.7103
7085.00,0.7092
7084.00,0.7087
7083.00,0.7088
7082.00,0.7094
7081.00,0.7104
7080.00,0.7117
7079.00,0.7133
7078.00,0.7154
7077.00,0.7181
7076.00,0.7215
7075.00,0.7253
7074.00,0.7294
7073.00,0.7340
7072.00,0.7390
7071.00,0.7443
7070.00,0.7498
7069.00,0.7557
7068.00,0.7616
7067.00,0.7676
7066.00,0.7736
7065.00,0.7798
7064.00,0.7864
7063.00,0.7935
7062.00,0.8009
7061.00,0.8087
7060.00,0.8168
7059.00,0.8250
7058.00,0.8334
7057.00,0.8419
7056.00,0.8503
7055.00,0.8584
7054.00,0.8664
7053.00,0.8747
7052.00,0.8832
7051.00,0.8916
7050.00,0.8997
7049.00,0.9077
7048.00,0.9158
7047.00,0.9243
7046.00,0.9329
7045.00,0.9415
7044.00,0.9501
7043.00,0.9585
7042.00,0.9667
7041.00,0.9744
7040.00,0.9817
7039.00,0.9888
7038.00,0.9961
7037.00,1.0035
7036.00,1.0109
7035.00,1.0181
7034.00,1.0251
7033.00,1.0320
7032.00,1.0387
7031.00,1.0450
7030.00,1.0511
7029.00,1.0574
7028.00,1.0637
7027.00,1.0698
7026.00,1.0754
7025.00,1.0807
7024.00,1.0858
7023.00,1.0908
7022.00,1.0952
7021.00,1.0988
7020.00,1.1021
7019.00,1.1055
7018.00,1.1089
7017.00,1.1119
7016.00,1.1142
7015.00,1.1166
7014.00,1.1197
7013.00,1.1233
7012.00,1.1264
7011.00,1.1284
7010.00,1.1295
7009.00,1.1303
7008.00,1.1309
7007.00,1.1309
7006.00,1.1302
7005.00,1.1288
7004.00,1.1270
7003.00,1.1251
7002.00,1.1235
7001.00,1.1220
7000.00,1.1204
6999.00,1.1180
6998.00,1.1151
6997.00,1.1118
6996.00,1.1086
6995.00,1.1054
6994.00,1.1018
6993.00,1.0979
6992.00,1.0937
6991.00,1.0894
6990.00,1.0851
6989.00,1.0806
6988.00,1.0754
6987.00,1.0688
6986.00,1.0612
6985.00,1.0532
6984.00,1.0456
6983.00,1.0383
6982.00,1.0309
6981.00,1.0230
6980.00,1.0147
6979.00,1.0064
6978.00,0.9983
6977.00,0.9902
6976.00,0.9817
6975.00,0.9728
6974.00,0.9637
6973.00,0.9546
6972.00,0.9453
6971.00,0.9359
6970.00,0.9263
6969.00,0.9166
6968.00,0.9070
6967.00,0.8977
6966.00,0.8888
6965.00,0.8801
6964.00,0.8714
6963.00,0.8626
6962.00,0.8538
6961.00,0.8451
6960.00,0.8367
6959.00,0.8287
6958.00,0.8210
6957.00,0.8136
6956.00,0.8064
6955.00,0.7995
6954.00,0.7929
6953.00,0.7865
6952.00,0.7804
6951.00,0.7750
6950.00,0.7703
6949.00,0.7664
6948.00,0.7631
6947.00,0.7603
6946.00,0.7580
6945.00,0.7561
6944.00,0.7545
6943.00,0.7530
6942.00,0.7519
6941.00,0.7511
6940.00,0.7510
6939.00,0.7513
6938.00,0.7524
6937.00,0.7540
6936.00,0.7563
6935.00,0.7590
6934.00,0.7624
6933.00,0.7663
6932.00,0.7706
6931.00,0.7751
6930.00,0.7797
6929.00,0.7847
6928.00,0.7900
6927.00,0.7954
6926.00,0.8010
6925.00,0.8070
6924.00,0.8135
6923.00,0.8204
6922.00,0.8276
6921.00,0.8352
6920.00,0.8430
6919.00,0.8511
6918.00,0.8593
6917.00,0.8676
6916.00,0.8757
6915.00,0.8836
6914.00,0.8915
6913.00,0.8994
6912.00,0.9074
6911.00,0.9154
6910.00,0.9236
6909.00,0.9319
6908.00,0.9403
6907.00,0.9487
6906.00,0.9573
6905.00,0.9661
6904.00,0.9748
6903.00,0.9833
6902.00,0.9917
6901.00,0.9999
6900.00,1.0077
6899.00,1.0151
6898.00,1.0223
6897.00,1.0294
6896.00,1.0361
6895.00,1.0427
6894.00,1.0493
6893.00,1.0563
6892.00,1.0633
6891.00,1.0699
6890.00,1.0759
6889.00,1.0818
6888.00,1.0875
6887.00,1.0929
6886.00,1.0980
6885.00,1.1028
6884.00,1.1074
6883.00,1.1116
6882.00,1.1152
6881.00,1.1185
6880.00,1.1218
6879.00,1.1252
6878.00,1.1285
6877.00,1.1317
6876.00,1.1345
6875.00,1.1368
6874.00,1.1388
6873.00,1.1406
6872.00,1.1419
6871.00,1.1424
6870.00,1.1422
6869.00,1.1419
6868.00,1.1416
6867.00,1.1412
6866.00,1.1402
6865.00,1.1387
6864.00,1.1372
6863.00,1.1358
6862.00,1.1342
6861.00,1.1324
6860.00,1.1302
6859.00,1.1274
6858.00,1.1241
6857.00,1.1201
6856.00,1.1156
6855.00,1.1109
6854.00,1.1061
6853.00,1.1011
6852.00,1.0959
6851.00,1.0903
6850.00,1.0844
6849.00,1.0784
6848.00,1.0722
6847.00,1.0655
6846.00,1.0584
6845.00,1.0509
6844.00,1.0432
6843.00,1.0352
6842.00,1.0270
6841.00,1.0188
6840.00,1.0104
6839.00,1.0018
6838.00,0.9928
6837.00,0.9837
6836.00,0.9746
6835.00,0.9653
6834.00,0.9558
6833.00,0.9459
6832.00,0.9362
6831.00,0.9266
6830.00,0.9173
6829.00,0.9081
6828.00,0.8991
6827.00,0.8902
6826.00,0.8814
6825.00,0.8728
6824.00,0.8643
6823.00,0.8558
6822.00,0.8474
6821.00,0.8389
6820.00,0.8307
6819.00,0.8229
6818.00,0.8154
6817.00,0.8083
6816.00,0.8011
6815.00,0.7942
6814.00,0.7876
6813.00,0.7816
6812.00,0.7761
6811.00,0.7710
6810.00,0.7663
6809.00,0.7621
6808.00,0.7584
6807.00,0.7549
6806.00,0.7518
6805.00,0.7490
6804.00,0.7466
6803.00,0.7447
6802.00,0.7433
6801.00,0.7424
6800.00,0.7420
6799.00,0.7421
6798.00,0.7427
6797.00,0.7439
6796.00,0.7457
6795.00,0.7482
6794.00,0.7512
6793.00,0.7546
6792.00,0.7582
6791.00,0.7620
6790.00,0.7660
6789.00,0.7705
6788.00,0.7757
6787.00,0.7814
6786.00,0.7876
6785.00,0.7940
6784.00,0.8006
6783.00,0.8073
6782.00,0.8143
6781.00,0.8215
6780.00,0.8291
6779.00,0.8368
6778.00,0.8448
6777.00,0.8530
6776.00,0.8616
6775.00,0.8702
6774.00,0.8787
6773.00,0.8869
6772.00,0.8952
6771.00,0.9038
6770.00,0.9126
6769.00,0.9215
6768.00,0.9302
6767.00,0.9388
6766.00,0.9476
6765.00,0.9566
6764.00,0.9656
6763.00,0.9742
6762.00,0.9826
6761.00,0.9910
6760.00,0.9995
6759.00,1.0083
6758.00,1.0170
6757.00,1.0253
6756.00,1.0334
6755.00,1.0412
6754.00,1.0489
6753.00,1.0562
6752.00,1.0631
6751.00,1.0700
6750.00,1.0771
6749.00,1.0845
6748.00,1.0917
6747.00,1.0983
6746.00,1.1043
6745.00,1.1100
6744.00,1.1157
6743.00,1.1213
6742.00,1.1264
6741.00,1.1310
6740.00,1.1354
6739.00,1.1399
6738.00,1.1446
6737.00,1.1490
6736.00,1.1529
6735.00,1.1565
6734.00,1.1600
6733.00,1.1633
6732.00,1.1660
6731.00,1.1678
6730.00,1.1690
6729.00,1.1703
6728.00,1.1718
6727.00,1.1734
6726.00,1.1747
6725.00,1.1758
6724.00,1.1765
6723.00,1.1768
6722.00,1.1765
6721.00,1.1754
6720.00,1.1737
6719.00,1.1719
6718.00,1.1701
6717.00,1.1681
6716.00,1.1659
6715.00,1.1632
6714.00,1.1600
6713.00,1.1565
6712.00,1.1526
6711.00,1.1481
6710.00,1.1428
6709.00,1.1372
6708.00,1.1315
6707.00,1.1259
6706.00,1.1202
6705.00,1.1141
6704.00,1.1076
6703.00,1.1009
6702.00,1.0941
6701.00,1.0870
6700.00,1.0794
6699.00,1.0712
6698.00,1.0627
6697.00,1.0540
6696.00,1.0452
6695.00,1.0363
6694.00,1.0272
6693.00,1.0179
6692.00,1.0084
6691.00,0.9990
6690.00,0.9895
6689.00,0.9798
6688.00,0.9696
6687.00,0.9591
6686.00,0.9487
6685.00,0.9387
6684.00,0.9288
6683.00,0.9189
6682.00,0.9091
6681.00,0.8994
6680.00,0.8898
6679.00,0.8804
6678.00,0.8712
6677.00,0.8621
6676.00,0.8533
6675.00,0.8447
6674.00,0.8364
6673.00,0.8286
6672.00,0.8210
6671.00,0.8138
6670.00,0.8071
6669.00,0.8009
6668.00,0.7953
6667.00,0.7901
6666.00,0.7854
6665.00,0.7810
6664.00,0.7769
6663.00,0.7735
6662.00,0.7707
6661.00,0.7686
6660.00,0.7672
6659.00,0.7661
6658.00,0.7656
6657.00,0.7654
6656.00,0.7657
6655.00,0.7664
6654.00,0.7676
6653.00,0.7697
6652.00,0.7725
6651.00,0.7759
6650.00,0.7798
6649.00,0.7841
6648.00,0.7887
6647.00,0.7936
6646.00,0.7989
6645.00,0.8044
6644.00,0.8101
6643.00,0.8161
6642.00,0.8226
6641.00,0.8296
6640.00,0.8368
6639.00,0.8442
6638.00,0.8518
6637.00,0.8599
6636.00,0.8683
6635.00,0.8768
6634.00,0.8850
6633.00,0.8932
6632.00,0.9016
6631.00,0.9101
6630.00,0.9189
6629.00,0.9277
6628.00,0.9365
6627.00,0.9455
6626.00,0.9546
6625.00,0.9637
6624.00,0.9724
6623.00,0.9810
6622.00,0.9896
6621.00,0.9984
6620.00,1.0071
6619.00,1.0156
6618.00,1.0239
6617.00,1.0321
6616.00,1.0399
6615.00,1.0473
6614.00,1.0544
6613.00,1.0616
6612.00,1.0690
6611.00,1.0762
6610.00,1.0832
6609.00,1.0898
6608.00,1.0961
6607.00,1.1023
6606.00,1.1080
6605.00,1.1134
6604.00,1.1188
6603.00,1.1242
6602.00,1.1299
6601.00,1.1352
6600.00,1.1400
6599.00,1.1443
6598.00,1.1481
6597.00,1.1517
6596.00,1.1547
6595.00,1.1573
6594.00,1.1598
6593.00,1.1620
6592.00,1.1640
6591.00,1.1657
6590.00,1.1673
6589.00,1.1690
6588.00,1.1703
6587.00,1.1712
6586.00,1.1720
6585.00,1.1727
6584.00,1.1732
6583.00,1.1730
6582.00,1.1719
6581.00,1.1704
6580.00,1.1687
6579.00,1.1667
6578.00,1.1642
6577.00,1.1612
6576.00,1.1577
6575.00,1.1538
6574.00,1.1497
6573.00,1.1455
6572.00,1.1413
6571.00,1.1370
6570.00,1.1324
6569.00,1.1274
6568.00,1.1219
6567.00,1.1158
6566.00,1.1092
6565.00,1.1019
6564.00,1.0943
6563.00,1.0865
6562.00,1.0790
6561.00,1.0717
6560.00,1.0641
6559.00,1.0560
6558.00,1.0471
6557.00,1.0378
6556.00,1.0286
6555.00,1.0195
6554.00,1.0103
6553.00,1.0011
6552.00,0.9917
6551.00,0.9822
6550.00,0.9726
6549.00,0.9626
6548.00,0.9525
6547.00,0.9422
6546.00,0.9320
6545.00,0.9222
6544.00,0.9127
6543.00,0.9031
6542.00,0.8935
6541.00,0.8838
6540.00,0.8743
6539.00,0.8651
6538.00,0.8560
6537.00,0.8471
6536.00,0.8385
6535.00,0.8302
6534.00,0.8221
6533.00,0.8144
6532.00,0.8068
6531.00,0.7996
6530.00,0.7929
6529.00,0.7865
6528.00,0.7806
6527.00,0.7750
6526.00,0.7697
6525.00,0.7650
6524.00,0.7608
6523.00,0.7571
6522.00,0.7537
6521.00,0.7509
6520.00,0.7486
6519.00,0.7468
6518.00,0.7455
6517.00,0.7448
6516.00,0.7446
6515.00,0.7451
6514.00,0.7462
6513.00,0.7479
6512.00,0.7502
6511.00,0.7528
6510.00,0.7559
6509.00,0.7595
6508.00,0.7635
6507.00,0.7679
6506.00,0.7728
6505.00,0.7783
6504.00,0.7843
6503.00,0.7907
6502.00,0.7974
6501.00,0.8044
6500.00,0.8116
6499.00,0.8190
6498.00,0.8266
6497.00,0.8345
6496.00,0.8426
6495.00,0.8508
6494.00,0.8592
6493.00,0.8678
6492.00,0.8765
6491.00,0.8853
6490.00,0.8943
6489.00,0.9033
6488.00,0.9124
6487.00,0.9217
6486.00,0.9310
6485.00,0.9403
6484.00,0.9497
6483.00,0.9589
6482.00,0.9681
6481.00,0.9772
6480.00,0.9864
6479.00,0.9954
6478.00,1.0044
6477.00,1.0134
6476.00,1.0224
6475.00,1.0313
6474.00,1.0400
6473.00,1.0482
6472.00,1.0560
6471.00,1.0636
6470.00,1.0711
6469.00,1.0786
6468.00,1.0860
6467.00,1.0934
6466.00,1.1006
6465.00,1.1076
6464.00,1.1143
6463.00,1.1208
6462.00,1.1268
6461.00,1.1324
6460.00,1.1375
6459.00,1.1425
6458.00,1.1475
6457.00,1.1527
6456.00,1.1578
6455.00,1.1630
6454.00,1.1680
6453.00,1.1726
6452.00,1.1765
6451.00,1.1795
6450.00,1.1818
6449.00,1.1835
6448.00,1.1851
6447.00,1.1868
6446.00,1.1886
6445.00,1.1903
6444.00,1.1916
6443.00,1.1924
6442.00,1.1928
6441.00,1.1930
6440.00,1.1930
6439.00,1.1926
6438.00,1.1917
6437.00,1.1903
6436.00,1.1887
6435.00,1.1869
6434.00,1.1847
6433.00,1.1817
6432.00,1.1780
6431.00,1.1740
6430.00,1.1700
6429.00,1.1660
6428.00,1.1616
6427.00,1.1568
6426.00,1.1518
6425.00,1.1465
6424.00,1.1406
6423.00,1.1342
6422.00,1.1273
6421.00,1.1201
6420.00,1.1127
6419.00,1.1051
6418.00,1.0977
6417.00,1.0900
6416.00,1.0819
6415.00,1.0730
6414.00,1.0638
6413.00,1.0543
6412.00,1.0446
6411.00,1.0344
6410.00,1.0240
6409.00,1.0136
6408.00,1.0034
6407.00,0.9932
6406.00,0.9827
6405.00,0.9722
6404.00,0.9616
6403.00,0.9509
6402.00,0.9402
6401.00,0.9294
6400.00,0.9187
6399.00,0.9081
6398.00,0.8975
6397.00,0.8870
6396.00,0.8768
6395.00,0.8667
6394.00,0.8568
6393.00,0.8472
6392.00,0.8380
6391.00,0.8291
6390.00,0.8204
6389.00,0.8122
6388.00,0.8045
6387.00,0.7971
6386.00,0.7902
6385.00,0.7836
6384.00,0.7775
6383.00,0.7720
6382.00,0.7669
6381.00,0.7625
6380.00,0.7587
6379.00,0.7556
6378.00,0.7532
6377.00,0.7513
6376.00,0.7501
6375.00,0.7494
6374.00,0.7492
6373.00,0.7496
6372.00,0.7505
6371.00,0.7520
6370.00,0.7541
6369.00,0.7568
6368.00,0.7599
6367.00,0.7635
6366.00,0.7677
6365.00,0.7724
6364.00,0.7774
6363.00,0.7828
6362.00,0.7887
6361.00,0.7951
6360.00,0.8020
6359.00,0.8093
6358.00,0.8169
6357.00,0.8249
6356.00,0.8331
6355.00,0.8413
6354.00,0.8497
6353.00,0.8581
6352.00,0.8665
6351.00,0.8751
6350.00,0.8840
6349.00,0.8931
6348.00,0.9023
6347.00,0.9115
6346.00,0.9208
6345.00,0.9302
6344.00,0.9397
6343.00,0.9492
6342.00,0.9587
6341.00,0.9682
6340.00,0.9775
6339.00,0.9867
6338.00,0.9957
6337.00,1.0043
6336.00,1.0128
6335.00,1.0212
6334.00,1.0298
6333.00,1.0384
6332.00,1.0469
6331.00,1.0554
6330.00,1.0640
6329.00,1.0724
6328.00,1.0805
6327.00,1.0881
6326.00,1.0954
6325.00,1.1023
6324.00,1.1090
6323.00,1.1154
6322.00,1.1214
6321.00,1.1271
6320.00,1.1325
6319.00,1.1378
6318.00,1.1431
6317.00,1.1481
6316.00,1.1529
6315.00,1.1576
6314.00,1.1621
6313.00,1.1660
6312.00,1.1694
6311.00,1.1723
6310.00,1.1749
6309.00,1.1769
6308.00,1.1782
6307.00,1.1790
6306.00,1.1799
6305.00,1.1810
6304.00,1.1818
6303.00,1.1823
6302.00,1.1825
6301.00,1.1825
6300.00,1.1821
6299.00,1.1811
6298.00,1.1795
6297.00,1.1777
6296.00,1.1759
6295.00,1.1741
6294.00,1.1721
6293.00,1.1694
6292.00,1.1660
6291.00,1.1621
6290.00,1.1578
6289.00,1.1531
6288.00,1.1478
6287.00,1.1422
6286.00,1.1364
6285.00,1.1303
6284.00,1.1238
6283.00,1.1170
6282.00,1.1102
6281.00,1.1034
6280.00,1.0962
6279.00,1.0885
6278.00,1.0805
6277.00,1.0723
6276.00,1.0638
6275.00,1.0547
6274.00,1.0452
6273.00,1.0355
6272.00,1.0258
6271.00,1.0161
6270.00,1.0063
6269.00,0.9966
6268.00,0.9867
6267.00,0.9767
6266.00,0.9666
6265.00,0.9561
6264.00,0.9452
6263.00,0.9342
6262.00,0.9233
6261.00,0.9126
6260.00,0.9020
6259.00,0.8914
6258.00,0.8809
6257.00,0.8706
6256.00,0.8605
6255.00,0.8503
6254.00,0.8404
6253.00,0.8307
6252.00,0.8214
6251.00,0.8124
6250.00,0.8037
6249.00,0.7953
6248.00,0.7872
6247.00,0.7795
6246.00,0.7722
6245.00,0.7654
6244.00,0.7590
6243.00,0.7529
6242.00,0.7475
6241.00,0.7426
6240.00,0.7382
6239.00,0.7343
6238.00,0.7308
6237.00,0.7280
6236.00,0.7256
6235.00,0.7238
6234.00,0.7226
6233.00,0.7223
6232.00,0.7227
6231.00,0.7238
6230.00,0.7253
6229.00,0.7275
6228.00,0.7300
6227.00,0.7331
6226.00,0.7366
6225.00,0.7408
6224.00,0.7457
6223.00,0.7510
6222.00,0.7567
6221.00,0.7629
6220.00,0.7695
6219.00,0.7764
6218.00,0.7836
6217.00,0.7912
6216.00,0.7993
6215.00,0.8078
6214.00,0.8165
6213.00,0.8253
6212.00,0.8341
6211.00,0.8431
6210.00,0.8520
6209.00,0.8612
6208.00,0.8704
6207.00,0.8799
6206.00,0.8896
6205.00,0.8998
6204.00,0.9100
6203.00,0.9200
6202.00,0.9299
6201.00,0.9395
6200.00,0.9490
6199.00,0.9584
6198.00,0.9676
6197.00,0.9770
6196.00,0.9866
6195.00,0.9962
6194.00,1.0057
6193.00,1.0150
6192.00,1.0241
6191.00,1.0331
6190.00,1.0421
6189.00,1.0507
6188.00,1.0589
6187.00,1.0668
6186.00,1.0747
6185.00,1.0825
6184.00,1.0902
6183.00,1.0975
6182.00,1.1046
6181.00,1.1113
6180.00,1.1178
6179.00,1.1240
6178.00,1.1297
6177.00,1.1353
6176.00,1.1409
6175.00,1.1466
6174.00,1.1523
6173.00,1.1577
6172.00,1.1626
6171.00,1.1670
6170.00,1.1711
6169.00,1.1749
6168.00,1.1781
6167.00,1.1810
6166.00,1.1836
6165.00,1.1860
6164.00,1.1882
6163.00,1.1899
6162.00,1.1912
6161.00,1.1921
6160.00,1.1925
6159.00,1.1926
6158.00,1.1924
6157.00,1.1921
6156.00,1.1915
6155.00,1.1906
6154.00,1.1892
6153.00,1.1873
6152.00,1.1849
6151.00,1.1822
6150.00,1.1791
6149.00,1.1758
6148.00,1.1723
6147.00,1.1684
6146.00,1.1641
6145.00,1.1592
6144.00,1.1539
6143.00,1.1484
6142.00,1.1427
6141.00,1.1367
6140.00,1.1302
6139.00,1.1233
6138.00,1.1159
6137.00,1.1082
6136.00,1.1001
6135.00,1.0917
6134.00,1.0830
6133.00,1.0741
6132.00,1.0648
6131.00,1.0550
6130.00,1.0450
6129.00,1.0348
6128.00,1.0245
6127.00,1.0141
6126.00,1.0034
6125.00,0.9926
6124.00,0.9815
6123.00,0.9702
6122.00,0.9587
6121.00,0.9472
6120.00,0.9356
6119.00,0.9238
6118.00,0.9120
6117.00,0.9003
6116.00,0.8887
6115.00,0.8771
6114.00,0.8658
6113.00,0.8548
6112.00,0.8440
6111.00,0.8334
6110.00,0.8230
6109.00,0.8130
6108.00,0.8034
6107.00,0.7942
6106.00,0.7852
6105.00,0.7767
6104.00,0.7686
6103.00,0.7610
6102.00,0.7538
6101.00,0.7473
6100.00,0.7413
6099.00,0.7360
6098.00,0.7313
6097.00,0.7271
6096.00,0.7235
6095.00,0.7205
6094.00,0.7182
6093.00,0.7168
6092.00,0.7160
6091.00,0.7157
6090.00,0.7160
6089.00,0.7170
6088.00,0.7186
6087.00,0.7208
6086.00,0.7236
6085.00,0.7272
6084.00,0.7314
6083.00,0.7362
6082.00,0.7414
6081.00,0.7471
6080.00,0.7531
6079.00,0.7596
6078.00,0.7665
6077.00,0.7737
6076.00,0.7812
6075.00,0.7890
6074.00,0.7972
6073.00,0.8057
6072.00,0.8146
6071.00,0.8237
6070.00,0.8329
6069.00,0.8423
6068.00,0.8518
6067.00,0.8613
6066.00,0.8710
6065.00,0.8808
6064.00,0.8907
6063.00,0.9007
6062.00,0.9107
6061.00,0.9208
6060.00,0.9308
6059.00,0.9407
6058.00,0.9506
6057.00,0.9604
6056.00,0.9701
6055.00,0.9797
6054.00,0.9892
6053.00,0.9985
6052.00,1.0079
6051.00,1.0172
6050.00,1.0262
6049.00,1.0350
6048.00,1.0435
6047.00,1.0519
6046.00,1.0602
6045.00,1.0683
6044.00,1.0762
6043.00,1.0839
6042.00,1.0913
6041.00,1.0982
6040.00,1.1049
6039.00,1.1113
6038.00,1.1176
6037.00,1.1239
6036.00,1.1300
6035.00,1.1359
6034.00,1.1415
6033.00,1.1467
6032.00,1.1515
6031.00,1.1560
6030.00,1.1603
6029.00,1.1641
6028.00,1.1674
6027.00,1.1704
6026.00,1.1732
6025.00,1.1758
6024.00,1.1779
6023.00,1.1796
6022.00,1.1810
6021.00,1.1824
6020.00,1.1836
6019.00,1.1846
6018.00,1.1853
6017.00,1.1857
6016.00,1.1857
6015.00,1.1850
6014.00,1.1837
6013.00,1.1818
6012.00,1.1797
6011.00,1.1777
6010.00,1.1754
6009.00,1.1727
6008.00,1.1693
6007.00,1.1656
6006.00,1.1616
6005.00,1.1573
6004.00,1.1525
6003.00,1.1473
6002.00,1.1418
6001.00,1.1359
6000.00,1.1295
5999.00,1.1225
5998.00,1.1153
5997.00,1.1080
5996.00,1.1007
5995.00,1.0929
5994.00,1.0847
5993.00,1.0762
5992.00,1.0674
5991.00,1.0581
5990.00,1.0484
5989.00,1.0381
5988.00,1.0275
5987.00,1.0167
5986.00,1.0059
5985.00,0.9951
5984.00,0.9841
5983.00,0.9728
5982.00,0.9614
5981.00,0.9499
5980.00,0.9382
5979.00,0.9264
5978.00,0.9145
5977.00,0.9028
5976.00,0.8911
5975.00,0.8795
5974.00,0.8679
5973.00,0.8565
5972.00,0.8453
5971.00,0.8345
5970.00,0.8239
5969.00,0.8135
5968.00,0.8034
5967.00,0.7938
5966.00,0.7847
5965.00,0.7762
5964.00,0.7684
5963.00,0.7612
5962.00,0.7547
5961.00,0.7488
5960.00,0.7435
5959.00,0.7388
5958.00,0.7347
5957.00,0.7311
5956.00,0.7280
5955.00,0.7254
5954.00,0.7232
5953.00,0.7213
5952.00,0.7197
5951.00,0.7184
5950.00,0.7174
5949.00,0.7168
5948.00,0.7166
5947.00,0.7169
5946.00,0.7177
5945.00,0.7190
5944.00,0.7210
5943.00,0.7236
5942.00,0.7270
5941.00,0.7311
5940.00,0.7358
5939.00,0.7410
5938.00,0.7467
5937.00,0.7529
5936.00,0.7595
5935.00,0.7666
5934.00,0.7743
5933.00,0.7825
5932.00,0.7912
5931.00,0.8001
5930.00,0.8092
5929.00,0.8186
5928.00,0.8281
5927.00,0.8377
5926.00,0.8477
5925.00,0.8580
5924.00,0.8685
5923.00,0.8789
5922.00,0.8892
5921.00,0.8996
5920.00,0.9099
5919.00,0.9202
5918.00,0.9304
5917.00,0.9406
5916.00,0.9509
5915.00,0.9612
5914.00,0.9717
5913.00,0.9821
5912.00,0.9924
5911.00,1.0024
5910.00,1.0122
5909.00,1.0218
5908.00,1.0311
5907.00,1.0401
5906.00,1.0490
5905.00,1.0579
5904.00,1.0667
5903.00,1.0753
5902.00,1.0835
5901.00,1.0915
5900.00,1.0993
5899.00,1.1071
5898.00,1.1147
5897.00,1.1221
5896.00,1.1293
5895.00,1.1363
5894.00,1.1430
5893.00,1.1490
5892.00,1.1545
5891.00,1.1597
5890.00,1.1645
5889.00,1.1692
5888.00,1.1735
5887.00,1.1778
5886.00,1.1819
5885.00,1.1856
5884.00,1.1886
5883.00,1.1910
5882.00,1.1930
5881.00,1.1950
5880.00,1.1968
5879.00,1.1983
5878.00,1.1994
5877.00,1.1999
5876.00,1.1998
5875.00,1.1992
5874.00,1.1982
5873.00,1.1969
5872.00,1.1955
5871.00,1.1942
5870.00,1.1928
5869.00,1.1912
5868.00,1.1890
5867.00,1.1863
5866.00,1.1831
5865.00,1.1794
5864.00,1.1750
5863.00,1.1699
5862.00,1.1644
5861.00,1.1586
5860.00,1.1527
5859.00,1.1466
5858.00,1.1404
5857.00,1.1339
5856.00,1.1270
5855.00,1.1197
5854.00,1.1120
5853.00,1.1039
5852.00,1.0953
5851.00,1.0865
5850.00,1.0774
5849.00,1.0682
5848.00,1.0587
5847.00,1.0487
5846.00,1.0383
5845.00,1.0277
5844.00,1.0169
5843.00,1.0059
5842.00,0.9947
5841.00,0.9834
5840.00,0.9721
5839.00,0.9607
5838.00,0.9494
5837.00,0.9380
5836.00,0.9266
5835.00,0.9151
5834.00,0.9036
5833.00,0.8921
5832.00,0.8806
5831.00,0.8691
5830.00,0.8577
5829.00,0.8464
5828.00,0.8354
5827.00,0.8245
5826.00,0.8139
5825.00,0.8036
5824.00,0.7935
5823.00,0.7836
5822.00,0.7742
5821.00,0.7651
5820.00,0.7566
5819.00,0.7486
5818.00,0.7412
5817.00,0.7346
5816.00,0.7286
5815.00,0.7232
5814.00,0.7185
5813.00,0.7144
5812.00,0.7110
5811.00,0.7082
5810.00,0.7061
5809.00,0.7047
5808.00,0.7040
5807.00,0.7038
5806.00,0.7043
5805.00,0.7055
5804.00,0.7073
5803.00,0.7099
5802.00,0.7131
5801.00,0.7170
5800.00,0.7215
5799.00,0.7267
5798.00,0.7324
5797.00,0.7388
5796.00,0.7455
5795.00,0.7526
5794.00,0.7600
5793.00,0.7679
5792.00,0.7761
5791.00,0.7846
5790.00,0.7934
5789.00,0.8025
5788.00,0.8119
5787.00,0.8215
5786.00,0.8314
5785.00,0.8415
5784.00,0.8517
5783.00,0.8619
5782.00,0.8722
5781.00,0.8825
5780.00,0.8928
5779.00,0.9031
5778.00,0.9138
5777.00,0.9247
5776.00,0.9357
5775.00,0.9465
5774.00,0.9571
5773.00,0.9677
5772.00,0.9784
5771.00,0.9889
5770.00,0.9992
5769.00,1.0094
5768.00,1.0194
5767.00,1.0290
5766.00,1.0383
5765.00,1.0475
5764.00,1.0566
5763.00,1.0656
5762.00,1.0744
5761.00,1.0832
5760.00,1.0917
5759.00,1.1000
5758.00,1.1080
5757.00,1.1157
5756.00,1.1231
5755.00,1.1300
5754.00,1.1367
5753.00,1.1433
5752.00,1.1497
5751.00,1.1561
5750.00,1.1622
5749.00,1.1679
5748.00,1.1731
5747.00,1.1777
5746.00,1.1819
5745.00,1.1858
5744.00,1.1894
5743.00,1.1928
5742.00,1.1958
5741.00,1.1986
5740.00,1.2011
5739.00,1.2033
5738.00,1.2053
5737.00,1.2071
5736.00,1.2085
5735.00,1.2096
5734.00,1.2102
5733.00,1.2103
5732.00,1.2097
5731.00,1.2085
5730.00,1.2069
5729.00,1.2050
5728.00,1.2027
5727.00,1.2001
5726.00,1.1973
5725.00,1.1944
5724.00,1.1913
5723.00,1.1875
5722.00,1.1831
5721.00,1.1783
5720.00,1.1732
5719.00,1.1677
5718.00,1.1619
5717.00,1.1558
5716.00,1.1494
5715.00,1.1424
5714.00,1.1348
5713.00,1.1266
5712.00,1.1181
5711.00,1.1093
5710.00,1.1002
5709.00,1.0909
5708.00,1.0812
5707.00,1.0712
5706.00,1.0610
5705.00,1.0506
5704.00,1.0398
5703.00,1.0287
5702.00,1.0172
5701.00,1.0054
5700.00,0.9934
5699.00,0.9811
5698.00,0.9685
5697.00,0.9558
5696.00,0.9430
5695.00,0.9301
5694.00,0.9172
5693.00,0.9043
5692.00,0.8914
5691.00,0.8784
5690.00,0.8655
5689.00,0.8526
5688.00,0.8398
5687.00,0.8273
5686.00,0.8150
5685.00,0.8031
5684.00,0.7915
5683.00,0.7801
5682.00,0.7691
5681.00,0.7586
5680.00,0.7485
5679.00,0.7390
5678.00,0.7301
5677.00,0.7220
5676.00,0.7146
5675.00,0.7077
5674.00,0.7015
5673.00,0.6960
5672.00,0.6912
5671.00,0.6870
5670.00,0.6836
5669.00,0.6809
5668.00,0.6788
5667.00,0.6775
5666.00,0.6768
5665.00,0.6769
5664.00,0.6778
5663.00,0.6794
5662.00,0.6818
5661.00,0.6849
5660.00,0.6887
5659.00,0.6932
5658.00,0.6984
5657.00,0.7043
5656.00,0.7109
5655.00,0.7181
5654.00,0.7257
5653.00,0.7337
5652.00,0.7421
5651.00,0.7509
5650.00,0.7601
5649.00,0.7697
5648.00,0.7796
5647.00,0.7896
5646.00,0.7999
5645.00,0.8105
5644.00,0.8213
5643.00,0.8322
5642.00,0.8434
5641.00,0.8547
5640.00,0.8659
5639.00,0.8771
5638.00,0.8882
5637.00,0.8993
5636.00,0.9106
5635.00,0.9220
5634.00,0.9334
5633.00,0.9448
5632.00,0.9561
5631.00,0.9672
5630.00,0.9784
5629.00,0.9894
5628.00,1.0003
5627.00,1.0112
5626.00,1.0219
5625.00,1.0325
5624.00,1.0428
5623.00,1.0527
5622.00,1.0622
5621.00,1.0716
5620.00,1.0808
5619.00,1.0899
5618.00,1.0987
5617.00,1.1074
5616.00,1.1159
5615.00,1.1241
5614.00,1.1319
5613.00,1.1394
5612.00,1.1467
5611.00,1.1536
5610.00,1.1602
5609.00,1.1666
5608.00,1.1727
5607.00,1.1785
5606.00,1.1841
5605.00,1.1895
5604.00,1.1945
5603.00,1.1989
5602.00,1.2028
5601.00,1.2064
5600.00,1.2098
5599.00,1.2131
5598.00,1.2159
5597.00,1.2182
5596.00,1.2201
5595.00,1.2216
5594.00,1.2228
5593.00,1.2235
5592.00,1.2240
5591.00,1.2244
5590.00,1.2244
5589.00,1.2238
5588.00,1.2225
5587.00,1.2207
5586.00,1.2186
5585.00,1.2163
5584.00,1.2136
5583.00,1.2104
5582.00,1.2068
5581.00,1.2029
5580.00,1.1985
5579.00,1.1937
5578.00,1.1886
5577.00,1.1831
5576.00,1.1772
5575.00,1.1707
5574.00,1.1638
5573.00,1.1565
5572.00,1.1489
5571.00,1.1410
5570.00,1.1329
5569.00,1.1244
5568.00,1.1154
5567.00,1.1058
5566.00,1.0958
5565.00,1.0855
5564.00,1.0748
5563.00,1.0637
5562.00,1.0523
5561.00,1.0405
5560.00,1.0285
5559.00,1.0163
5558.00,1.0040
5557.00,0.9914
5556.00,0.9786
5555.00,0.9656
5554.00,0.9524
5553.00,0.9390
5552.00,0.9253
5551.00,0.9116
5550.00,0.8978
5549.00,0.8841
5548.00,0.8706
5547.00,0.8572
5546.00,0.8442
5545.00,0.8315
5544.00,0.8191
5543.00,0.8068
5542.00,0.7949
5541.00,0.7835
5540.00,0.7725
5539.00,0.7619
5538.00,0.7518
5537.00,0.7422
5536.00,0.7332
5535.00,0.7248
5534.00,0.7171
5533.00,0.7101
5532.00,0.7039
5531.00,0.6985
5530.00,0.6939
5529.00,0.6901
5528.00,0.6871
5527.00,0.6849
5526.00,0.6836
5525.00,0.6831
5524.00,0.6834
5523.00,0.6845
5522.00,0.6863
5521.00,0.6888
5520.00,0.6921
5519.00,0.6961
5518.00,0.7010
5517.00,0.7066
5516.00,0.7129
5515.00,0.7198
5514.00,0.7273
5513.00,0.7354
5512.00,0.7440
5511.00,0.7531
5510.00,0.7626
5509.00,0.7726
5508.00,0.7829
5507.00,0.7934
5506.00,0.8040
5505.00,0.8149
5504.00,0.8259
5503.00,0.8371
5502.00,0.8484
5501.00,0.8600
5500.00,0.8717
5499.00,0.8835
5498.00,0.8954
5497.00,0.9074
5496.00,0.9194
5495.00,0.9314
5494.00,0.9433
5493.00,0.9553
5492.00,0.9673
5491.00,0.9793
5490.00,0.9911
5489.00,1.0028
5488.00,1.0141
5487.00,1.0250
5486.00,1.0358
5485.00,1.0465
5484.00,1.0571
5483.00,1.0677
5482.00,1.0782
5481.00,1.0884
5480.00,1.0985
5479.00,1.1082
5478.00,1.1175
5477.00,1.1265
5476.00,1.1352
5475.00,1.1437
5474.00,1.1519
5473.00,1.1599
5472.00,1.1676
5471.00,1.1751
5470.00,1.1822
5469.00,1.1889
5468.00,1.1951
5467.00,1.2012
5466.00,1.2071
5465.00,1.2128
5464.00,1.2181
5463.00,1.2229
5462.00,1.2273
5461.00,1.2312
5460.00,1.2346
5459.00,1.2377
5458.00,1.2405
5457.00,1.2433
5456.00,1.2458
5455.00,1.2479
5454.00,1.2496
5453.00,1.2508
5452.00,1.2517
5451.00,1.2519
5450.00,1.2515
5449.00,1.2506
5448.00,1.2492
5447.00,1.2475
5446.00,1.2455
5445.00,1.2434
5444.00,1.2409
5443.00,1.2380
5442.00,1.2346
5441.00,1.2307
5440.00,1.2261
5439.00,1.2211
5438.00,1.2160
5437.00,1.2106
5436.00,1.2049
5435.00,1.1987
5434.00,1.1919
5433.00,1.1849
5432.00,1.1775
5431.00,1.1697
5430.00,1.1612
5429.00,1.1523
5428.00,1.1430
5427.00,1.1335
5426.00,1.1239
5425.00,1.1139
5424.00,1.1035
5423.00,1.0927
5422.00,1.0814
5421.00,1.0696
5420.00,1.0575
5419.00,1.0449
5418.00,1.0318
5417.00,1.0186
5416.00,1.0050
5415.00,0.9911
5414.00,0.9769
5413.00,0.9625
5412.00,0.9481
5411.00,0.9337
5410.00,0.9194
5409.00,0.9052
5408.00,0.8911
5407.00,0.8771
5406.00,0.8633
5405.00,0.8496
5404.00,0.8361
5403.00,0.8227
5402.00,0.8095
5401.00,0.7967
5400.00,0.7843
5399.00,0.7722
5398.00,0.7605
5397.00,0.7493
5396.00,0.7388
5395.00,0.7289
5394.00,0.7198
5393.00,0.7116
5392.00,0.7042
5391.00,0.6978
5390.00,0.6922
5389.00,0.6875
5388.00,0.6837
5387.00,0.6806
5386.00,0.6782
5385.00,0.6768
5384.00,0.6761
5383.00,0.6762
5382.00,0.6770
5381.00,0.6786
5380.00,0.6810
5379.00,0.6844
5378.00,0.6887
5377.00,0.6937
5376.00,0.6996
5375.00,0.7062
5374.00,0.7135
5373.00,0.7213
5372.00,0.7297
5371.00,0.7385
5370.00,0.7480
5369.00,0.7580
5368.00,0.7683
5367.00,0.7790
5366.00,0.7900
5365.00,0.8013
5364.00,0.8128
5363.00,0.8245
5362.00,0.8365
5361.00,0.8487
5360.00,0.8610
5359.00,0.8734
5358.00,0.8859
5357.00,0.8985
5356.00,0.9110
5355.00,0.9235
5354.00,0.9360
5353.00,0.9484
5352.00,0.9609
5351.00,0.9732
5350.00,0.9855
5349.00,0.9976
5348.00,1.0095
5347.00,1.0214
5346.00,1.0331
5345.00,1.0447
5344.00,1.0560
5343.00,1.0670
5342.00,1.0780
5341.00,1.0888
5340.00,1.0996
5339.00,1.1103
5338.00,1.1209
5337.00,1.1314
5336.00,1.1417
5335.00,1.1516
5334.00,1.1610
5333.00,1.1698
5332.00,1.1782
5331.00,1.1862
5330.00,1.1941
5329.00,1.2018
5328.00,1.2091
5327.00,1.2162
5326.00,1.2231
5325.00,1.2298
5324.00,1.2361
5323.00,1.2421
5322.00,1.2476
5321.00,1.2527
5320.00,1.2572
5319.00,1.2614
5318.00,1.2654
5317.00,1.2691
5316.00,1.2725
5315.00,1.2754
5314.00,1.2778
5313.00,1.2796
5312.00,1.2807
5311.00,1.2814
5310.00,1.2819
5309.00,1.2821
5308.00,1.2821
5307.00,1.2817
5306.00,1.2810
5305.00,1.2798
5304.00,1.2781
5303.00,1.2759
5302.00,1.2732
5301.00,1.2700
5300.00,1.2665
5299.00,1.2628
5298.00,1.2589
5297.00,1.2547
5296.00,1.2499
5295.00,1.2446
5294.00,1.2387
5293.00,1.2322
5292.00,1.2251
5291.00,1.2176
5290.00,1.2098
5289.00,1.2016
5288.00,1.1931
5287.00,1.1843
5286.00,1.1752
5285.00,1.1657
5284.00,1.1557
5283.00,1.1453
5282.00,1.1346
5281.00,1.1236
5280.00,1.1122
5279.00,1.1003
5278.00,1.0880
5277.00,1.0754
5276.00,1.0624
5275.00,1.0490
5274.00,1.0353
5273.00,1.0215
5272.00,1.0075
5271.00,0.9934
5270.00,0.9790
5269.00,0.9644
5268.00,0.9497
5267.00,0.9350
5266.00,0.9205
5265.00,0.9062
5264.00,0.8919
5263.00,0.8777
5262.00,0.8637
5261.00,0.8500
5260.00,0.8366
5259.00,0.8237
5258.00,0.8114
5257.00,0.7996
5256.00,0.7884
5255.00,0.7777
5254.00,0.7674
5253.00,0.7578
5252.00,0.7488
5251.00,0.7407
5250.00,0.7333
5249.00,0.7265
5248.00,0.7203
5247.00,0.7149
5246.00,0.7105
5245.00,0.7069
5244.00,0.7041
5243.00,0.7022
5242.00,0.7012
5241.00,0.7012
5240.00,0.7022
5239.00,0.7042
5238.00,0.7069
5237.00,0.7106
5236.00,0.7151
5235.00,0.7204
5234.00,0.7264
5233.00,0.7332
5232.00,0.7407
5231.00,0.7488
5230.00,0.7574
5229.00,0.7665
5228.00,0.7762
5227.00,0.7864
5226.00,0.7971
5225.00,0.8082
5224.00,0.8197
5223.00,0.8314
5222.00,0.8433
5221.00,0.8554
5220.00,0.8677
5219.00,0.8802
5218.00,0.8930
5217.00,0.9060
5216.00,0.9190
5215.00,0.9321
5214.00,0.9452
5213.00,0.9583
5212.00,0.9715
5211.00,0.9845
5210.00,0.9974
5209.00,1.0101
5208.00,1.0228
5207.00,1.0354
5206.00,1.0481
5205.00,1.0606
5204.00,1.0728
5203.00,1.0848
5202.00,1.0966
5201.00,1.1083
5200.00,1.1198
5199.00,1.1312
5198.00,1.1424
5197.00,1.1533
5196.00,1.1637
5195.00,1.1738
5194.00,1.1835
5193.00,1.1930
5192.00,1.2020
5191.00,1.2105
5190.00,1.2186
5189.00,1.2263
5188.00,1.2337
5187.00,1.2410
5186.00,1.2483
5185.00,1.2554
5184.00,1.2620
5183.00,1.2679
5182.00,1.2732
5181.00,1.2781
5180.00,1.2828
5179.00,1.2874
5178.00,1.2918
5177.00,1.2960
5176.00,1.2998
5175.00,1.3030
5174.00,1.3059
5173.00,1.3085
5172.00,1.3106
5171.00,1.3123
5170.00,1.3134
5169.00,1.3141
5168.00,1.3143
5167.00,1.3139
5166.00,1.3132
5165.00,1.3122
5164.00,1.3110
5163.00,1.3094
5162.00,1.3073
5161.00,1.3046
5160.00,1.3012
5159.00,1.2974
5158.00,1.2933
5157.00,1.2891
5156.00,1.2847
5155.00,1.2797
5154.00,1.2741
5153.00,1.2680
5152.00,1.2613
5151.00,1.2540
5150.00,1.2464
5149.00,1.2383
5148.00,1.2300
5147.00,1.2213
5146.00,1.2122
5145.00,1.2029
5144.00,1.1932
5143.00,1.1830
5142.00,1.1722
5141.00,1.1609
5140.00,1.1492
5139.00,1.1369
5138.00,1.1243
5137.00,1.1113
5136.00,1.0979
5135.00,1.0842
5134.00,1.0701
5133.00,1.0557
5132.00,1.0410
5131.00,1.0261
5130.00,1.0110
5129.00,0.9956
5128.00,0.9800
5127.00,0.9643
5126.00,0.9484
5125.00,0.9326
5124.00,0.9169
5123.00,0.9014
5122.00,0.8860
5121.00,0.8708
5120.00,0.8557
5119.00,0.8409
5118.00,0.8264
5117.00,0.8123
5116.00,0.7988
5115.00,0.7858
5114.00,0.7735
5113.00,0.7620
5112.00,0.7511
5111.00,0.7411
5110.00,0.7318
5109.00,0.7234
5108.00,0.7158
5107.00,0.7090
5106.00,0.7031
5105.00,0.6983
5104.00,0.6944
5103.00,0.6914
5102.00,0.6896
5101.00,0.6887
5100.00,0.6888
5099.00,0.6900
5098.00,0.6921
5097.00,0.6952
5096.00,0.6992
5095.00,0.7041
5094.00,0.7098
5093.00,0.7164
5092.00,0.7236
5091.00,0.7316
5090.00,0.7404
5089.00,0.7499
5088.00,0.7600
5087.00,0.7706
5086.00,0.7817
5085.00,0.7933
5084.00,0.8052
5083.00,0.8174
5082.00,0.8300
5081.00,0.8429
5080.00,0.8560
5079.00,0.8694
5078.00,0.8829
5077.00,0.8966
5076.00,0.9103
5075.00,0.9241
5074.00,0.9380
5073.00,0.9520
5072.00,0.9660
5071.00,0.9799
5070.00,0.9937
5069.00,1.0073
5068.00,1.0208
5067.00,1.0342
5066.00,1.0475
5065.00,1.0608
5064.00,1.0738
5063.00,1.0867
5062.00,1.0994
5061.00,1.1119
5060.00,1.1240
5059.00,1.1359
5058.00,1.1476
5057.00,1.1591
5056.00,1.1704
5055.00,1.1816
5054.00,1.1926
5053.00,1.2032
5052.00,1.2133
5051.00,1.2231
5050.00,1.2326
5049.00,1.2417
5048.00,1.2504
5047.00,1.2587
5046.00,1.2666
5045.00,1.2742
5044.00,1.2816
5043.00,1.2886
5042.00,1.2954
5041.00,1.3017
5040.00,1.3077
5039.00,1.3134
5038.00,1.3189
5037.00,1.3240
5036.00,1.3285
5035.00,1.3323
5034.00,1.3356
5033.00,1.3383
5032.00,1.3408
5031.00,1.3430
5030.00,1.3450
5029.00,1.3466
5028.00,1.3478
5027.00,1.3486
5026.00,1.3489
5025.00,1.3489
5024.00,1.3483
5023.00,1.3474
5022.00,1.3462
5021.00,1.3446
5020.00,1.3424
5019.00,1.3396
5018.00,1.3364
5017.00,1.3327
5016.00,1.3285
5015.00,1.3240
5014.00,1.3191
5013.00,1.3140
5012.00,1.3084
5011.00,1.3023
5010.00,1.2958
5009.00,1.2888
5008.00,1.2813
5007.00,1.2733
5006.00,1.2648
5005.00,1.2559
5004.00,1.2467
5003.00,1.2370
5002.00,1.2269
5001.00,1.2163
5000.00,1.2053
4999.00,1.1938
4998.00,1.1818
4997.00,1.1694
4996.00,1.1567
4995.00,1.1437
4994.00,1.1302
4993.00,1.1164
4992.00,1.1021
4991.00,1.0872
4990.00,1.0718
4989.00,1.0561
4988.00,1.0401
4987.00,1.0239
4986.00,1.0076
4985.00,0.9913
4984.00,0.9749
4983.00,0.9584
4982.00,0.9417
4981.00,0.9251
4980.00,0.9086
4979.00,0.8924
4978.00,0.8765
4977.00,0.8610
4976.00,0.8458
4975.00,0.8311
4974.00,0.8168
4973.00,0.8031
4972.00,0.7900
4971.00,0.7777
4970.00,0.7661
4969.00,0.7553
4968.00,0.7454
4967.00,0.7364
4966.00,0.7283
4965.00,0.7213
4964.00,0.7152
4963.00,0.7102
4962.00,0.7063
4961.00,0.7036
4960.00,0.7019
4959.00,0.7013
4958.00,0.7018
4957.00,0.7034
4956.00,0.7061
4955.00,0.7098
4954.00,0.7146
4953.00,0.7202
4952.00,0.7268
4951.00,0.7342
4950.00,0.7425
4949.00,0.7514
4948.00,0.7611
4947.00,0.7715
4946.00,0.7825
4945.00,0.7940
4944.00,0.8060
4943.00,0.8185
4942.00,0.8313
4941.00,0.8445
4940.00,0.8579
4939.00,0.8716
4938.00,0.8855
4937.00,0.8996
4936.00,0.9139
4935.00,0.9284
4934.00,0.9430
4933.00,0.9576
4932.00,0.9723
4931.00,0.9868
4930.00,1.0013
4929.00,1.0158
4928.00,1.0301
4927.00,1.0442
4926.00,1.0582
4925.00,1.0720
4924.00,1.0855
4923.00,1.0989
4922.00,1.1121
4921.00,1.1253
4920.00,1.1385
4919.00,1.1515
4918.00,1.1642
4917.00,1.1764
4916.00,1.1883
4915.00,1.1998
4914.00,1.2111
4913.00,1.2222
4912.00,1.2331
4911.00,1.2437
4910.00,1.2540
4909.00,1.2639
4908.00,1.2734
4907.00,1.2827
4906.00,1.2916
4905.00,1.3001
4904.00,1.3082
4903.00,1.3157
4902.00,1.3226
4901.00,1.3292
4900.00,1.3355
4899.00,1.3417
4898.00,1.3476
4897.00,1.3532
4896.00,1.3582
4895.00,1.3627
4894.00,1.3667
4893.00,1.3702
4892.00,1.3734
4891.00,1.3761
4890.00,1.3784
4889.00,1.3802
4888.00,1.3814
4887.00,1.3822
4886.00,1.3827
4885.00,1.3828
4884.00,1.3826
4883.00,1.3820
4882.00,1.3810
4881.00,1.3795
4880.00,1.3775
4879.00,1.3751
4878.00,1.3722
4877.00,1.3689
4876.00,1.3651
4875.00,1.3609
4874.00,1.3564
4873.00,1.3515
4872.00,1.3461
4871.00,1.3400
4870.00,1.3334
4869.00,1.3262
4868.00,1.3187
4867.00,1.3109
4866.00,1.3028
4865.00,1.2942
4864.00,1.2849
4863.00,1.2751
4862.00,1.2648
4861.00,1.2542
4860.00,1.2432
4859.00,1.2317
4858.00,1.2198
4857.00,1.2074
4856.00,1.1945
4855.00,1.1810
4854.00,1.1671
4853.00,1.1528
4852.00,1.1382
4851.00,1.1231
4850.00,1.1076
4849.00,1.0918
4848.00,1.0755
4847.00,1.0589
4846.00,1.0420
4845.00,1.0251
4844.00,1.0081
4843.00,0.9910
4842.00,0.9739
4841.00,0.9569
4840.00,0.9399
4839.00,0.9229
4838.00,0.9060
4837.00,0.8893
4836.00,0.8728
4835.00,0.8568
4834.00,0.8412
4833.00,0.8262
4832.00,0.8118
4831.00,0.7979
4830.00,0.7848
4829.00,0.7724
4828.00,0.7609
4827.00,0.7503
4826.00,0.7406
4825.00,0.7320
4824.00,0.7244
4823.00,0.7178
4822.00,0.7124
4821.00,0.7081
4820.00,0.7049
4819.00,0.7029
4818.00,0.7021
4817.00,0.7026
4816.00,0.7041
4815.00,0.7068
4814.00,0.7106
4813.00,0.7154
4812.00,0.7213
4811.00,0.7282
4810.00,0.7362
4809.00,0.7450
4808.00,0.7547
4807.00,0.7650
4806.00,0.7760
4805.00,0.7877
4804.00,0.8000
4803.00,0.8128
4802.00,0.8261
4801.00,0.8399
4800.00,0.8539
4799.00,0.8683
4798.00,0.8829
4797.00,0.8978
4796.00,0.9129
4795.00,0.9280
4794.00,0.9432
4793.00,0.9585
4792.00,0.9737
4791.00,0.9890
4790.00,1.0043
4789.00,1.0197
4788.00,1.0350
4787.00,1.0503
4786.00,1.0654
4785.00,1.0803
4784.00,1.0950
4783.00,1.1094
4782.00,1.1236
4781.00,1.1376
4780.00,1.1514
4779.00,1.1651
4778.00,1.1785
4777.00,1.1917
4776.00,1.2047
4775.00,1.2173
4774.00,1.2296
4773.00,1.2416
4772.00,1.2531
4771.00,1.2644
4770.00,1.2754
4769.00,1.2862
4768.00,1.2968
4767.00,1.3069
4766.00,1.3166
4765.00,1.3259
4764.00,1.3349
4763.00,1.3435
4762.00,1.3519
4761.00,1.3598
4760.00,1.3673
4759.00,1.3744
4758.00,1.3810
4757.00,1.3872
4756.00,1.3928
4755.00,1.3979
4754.00,1.4024
4753.00,1.4067
4752.00,1.4105
4751.00,1.4140
4750.00,1.4170
4749.00,1.4195
4748.00,1.4215
4747.00,1.4231
4746.00,1.4244
4745.00,1.4253
4744.00,1.4256
4743.00,1.4255
4742.00,1.4249
4741.00,1.4240
4740.00,1.4227
4739.00,1.4210
4738.00,1.4187
4737.00,1.4160
4736.00,1.4130
4735.00,1.4096
4734.00,1.4058
4733.00,1.4016
4732.00,1.3970
4731.00,1.3919
4730.00,1.3864
4729.00,1.3804
4728.00,1.3739
4727.00,1.3668
4726.00,1.3590
4725.00,1.3506
4724.00,1.3416
4723.00,1.3321
4722.00,1.3223
4721.00,1.3123
4720.00,1.3019
4719.00,1.2912
4718.00,1.2799
4717.00,1.2681
4716.00,1.2556
4715.00,1.2424
4714.00,1.2288
4713.00,1.2148
4712.00,1.2004
4711.00,1.1856
4710.00,1.1702
4709.00,1.1543
4708.00,1.1379
4707.00,1.1211
4706.00,1.1040
4705.00,1.0867
4704.00,1.0691
4703.00,1.0512
4702.00,1.0329
4701.00,1.0145
4700.00,0.9960
4699.00,0.9775
4698.00,0.9592
4697.00,0.9410
4696.00,0.9230
4695.00,0.9052
4694.00,0.8876
4693.00,0.8705
4692.00,0.8538
4691.00,0.8378
4690.00,0.8225
4689.00,0.8080
4688.00,0.7943
4687.00,0.7815
4686.00,0.7697
4685.00,0.7589
4684.00,0.7491
4683.00,0.7406
4682.00,0.7332
4681.00,0.7270
4680.00,0.7221
4679.00,0.7184
4678.00,0.7160
4677.00,0.7148
4676.00,0.7150
4675.00,0.7164
4674.00,0.7191
4673.00,0.7229
4672.00,0.7279
4671.00,0.7340
4670.00,0.7413
4669.00,0.7496
4668.00,0.7589
4667.00,0.7690
4666.00,0.7800
4665.00,0.7918
4664.00,0.8043
4663.00,0.8174
4662.00,0.8310
4661.00,0.8451
4660.00,0.8595
4659.00,0.8743
4658.00,0.8893
4657.00,0.9048
4656.00,0.9204
4655.00,0.9363
4654.00,0.9522
4653.00,0.9682
4652.00,0.9842
4651.00,1.0003
4650.00,1.0164
4649.00,1.0325
4648.00,1.0486
4647.00,1.0646
4646.00,1.0804
4645.00,1.0960
4644.00,1.1114
4643.00,1.1267
4642.00,1.1418
4641.00,1.1567
4640.00,1.1713
4639.00,1.1855
4638.00,1.1997
4637.00,1.2137
4636.00,1.2276
4635.00,1.2412
4634.00,1.2544
4633.00,1.2670
4632.00,1.2791
4631.00,1.2910
4630.00,1.3028
4629.00,1.3145
4628.00,1.3259
4627.00,1.3370
4626.00,1.3475
4625.00,1.3576
4624.00,1.3671
4623.00,1.3761
4622.00,1.3847
4621.00,1.3930
4620.00,1.4009
4619.00,1.4083
4618.00,1.4153
4617.00,1.4218
4616.00,1.4278
4615.00,1.4333
4614.00,1.4382
4613.00,1.4424
4612.00,1.4461
4611.00,1.4495
4610.00,1.4526
4609.00,1.4555
4608.00,1.4582
4607.00,1.4605
4606.00,1.4625
4605.00,1.4639
4604.00,1.4648
4603.00,1.4653
4602.00,1.4653
4601.00,1.4649
4600.00,1.4640
4599.00,1.4627
4598.00,1.4608
4597.00,1.4586
4596.00,1.4561
4595.00,1.4532
4594.00,1.4498
4593.00,1.4459
4592.00,1.4415
4591.00,1.4368
4590.00,1.4319
4589.00,1.4267
4588.00,1.4210
4587.00,1.4146
4586.00,1.4076
4585.00,1.3999
4584.00,1.3917
4583.00,1.3829
4582.00,1.3736
4581.00,1.3635
4580.00,1.3529
4579.00,1.3419
4578.00,1.3306
4577.00,1.3190
4576.00,1.3070
4575.00,1.2943
4574.00,1.2809
4573.00,1.2668
4572.00,1.2520
4571.00,1.2367
4570.00,1.2208
4569.00,1.2045
4568.00,1.1877
4567.00,1.1705
4566.00,1.1528
4565.00,1.1348
4564.00,1.1164
4563.00,1.0978
4562.00,1.0790
4561.00,1.0598
4560.00,1.0404
4559.00,1.0209
4558.00,1.0014
4557.00,0.9820
4556.00,0.9627
4555.00,0.9437
4554.00,0.9250
4553.00,0.9066
4552.00,0.8887
4551.00,0.8712
4550.00,0.8544
4549.00,0.8384
4548.00,0.8231
4547.00,0.8087
4546.00,0.7954
4545.00,0.7830
4544.00,0.7717
4543.00,0.7616
4542.00,0.7526
4541.00,0.7449
4540.00,0.7385
4539.00,0.7335
4538.00,0.7299
4537.00,0.7278
4536.00,0.7270
4535.00,0.7276
4534.00,0.7297
4533.00,0.7330
4532.00,0.7378
4531.00,0.7438
4530.00,0.7511
4529.00,0.7596
4528.00,0.7691
4527.00,0.7797
4526.00,0.7911
4525.00,0.8035
4524.00,0.8166
4523.00,0.8303
4522.00,0.8448
4521.00,0.8597
4520.00,0.8752
4519.00,0.8911
4518.00,0.9073
4517.00,0.9237
4516.00,0.9404
4515.00,0.9573
4514.00,0.9744
4513.00,0.9917
4512.00,1.0090
4511.00,1.0264
4510.00,1.0438
4509.00,1.0609
4508.00,1.0779
4507.00,1.0947
4506.00,1.1114
4505.00,1.1280
4504.00,1.1444
4503.00,1.1607
4502.00,1.1770
4501.00,1.1932
4500.00,1.2090
4499.00,1.2245
4498.00,1.2396
4497.00,1.2543
4496.00,1.2686
4495.00,1.2826
4494.00,1.2962
4493.00,1.3096
4492.00,1.3227
4491.00,1.3354
4490.00,1.3477
4489.00,1.3596
4488.00,1.3709
4487.00,1.3817
4486.00,1.3918
4485.00,1.4015
4484.00,1.4109
4483.00,1.4199
4482.00,1.4285
4481.00,1.4368
4480.00,1.4445
4479.00,1.4519
4478.00,1.4588
4477.00,1.4655
4476.00,1.4717
4475.00,1.4775
4474.00,1.4829
4473.00,1.4881
4472.00,1.4933
4471.00,1.4985
4470.00,1.5032
4469.00,1.5073
4468.00,1.5106
4467.00,1.5132
4466.00,1.5153
4465.00,1.5170
4464.00,1.5182
4463.00,1.5189
4462.00,1.5192
4461.00,1.5191
4460.00,1.5188
4459.00,1.5181
4458.00,1.5169
4457.00,1.5151
4456.00,1.5128
4455.00,1.5102
4454.00,1.5075
4453.00,1.5046
4452.00,1.5013
4451.00,1.4975
4450.00,1.4932
4449.00,1.4885
4448.00,1.4835
4447.00,1.4782
4446.00,1.4726
4445.00,1.4667
4444.00,1.4605
4443.00,1.4542
4442.00,1.4477
4441.00,1.4407
4440.00,1.4333
4439.00,1.4254
4438.00,1.4170
4437.00,1.4082
4436.00,1.3990
4435.00,1.3891
4434.00,1.3784
4433.00,1.3666
4432.00,1.3539
4431.00,1.3404
4430.00,1.3261
4429.00,1.3112
4428.00,1.2956
4427.00,1.2792
4426.00,1.2622
4425.00,1.2444
4424.00,1.2260
4423.00,1.2071
4422.00,1.1879
4421.00,1.1684
4420.00,1.1487
4419.00,1.1288
4418.00,1.1087
4417.00,1.0885
4416.00,1.0684
4415.00,1.0485
4414.00,1.0290
4413.00,1.0099
4412.00,0.9914
4411.00,0.9735
4410.00,0.9565
4409.00,0.9404
4408.00,0.9254
4407.00,0.9116
4406.00,0.8990
4405.00,0.8879
4404.00,0.8781
4403.00,0.8697
4402.00,0.8625
4401.00,0.8565
4400.00,0.8515
4399.00,0.8473
4398.00,0.8439
4397.00,0.8411
4396.00,0.8392
4395.00,0.8380
4394.00,0.8376
4393.00,0.8381
4392.00,0.8396
4391.00,0.8420
4390.00,0.8456
4389.00,0.8504
4388.00,0.8564
4387.00,0.8637
4386.00,0.8722
4385.00,0.8819
4384.00,0.8926
4383.00,0.9043
4382.00,0.9168
4381.00,0.9300
4380.00,0.9440
4379.00,0.9587
4378.00,0.9740
4377.00,0.9898
4376.00,1.0059
4375.00,1.0223
4374.00,1.0389
4373.00,1.0555
4372.00,1.0721
4371.00,1.0884
4370.00,1.1044
4369.00,1.1200
4368.00,1.1353
4367.00,1.1501
4366.00,1.1644
4365.00,1.1784
4364.00,1.1919
4363.00,1.2050
4362.00,1.2179
4361.00,1.2305
4360.00,1.2429
4359.00,1.2550
4358.00,1.2671
4357.00,1.2789
4356.00,1.2907
4355.00,1.3024
4354.00,1.3141
4353.00,1.3260
4352.00,1.3379
4351.00,1.3498
4350.00,1.3616
4349.00,1.3735
4348.00,1.3851
4347.00,1.3967
4346.00,1.4079
4345.00,1.4189
4344.00,1.4296
4343.00,1.4401
4342.00,1.4504
4341.00,1.4602
4340.00,1.4698
4339.00,1.4790
4338.00,1.4880
4337.00,1.4967
4336.00,1.5051
4335.00,1.5129
4334.00,1.5203
4333.00,1.5272
4332.00,1.5336
4331.00,1.5395
4330.00,1.5447
4329.00,1.5494
4328.00,1.5540
4327.00,1.5584
4326.00,1.5624
4325.00,1.5657
4324.00,1.5683
4323.00,1.5703
4322.00,1.5719
4321.00,1.5732
4320.00,1.5738
4319.00,1.5737
4318.00,1.5730
4317.00,1.5720
4316.00,1.5711
4315.00,1.5700
4314.00,1.5683
4313.00,1.5659
4312.00,1.5629
4311.00,1.5595
4310.00,1.5559
4309.00,1.5519
4308.00,1.5472
4307.00,1.5419
4306.00,1.5362
4305.00,1.5300
4304.00,1.5235
4303.00,1.5164
4302.00,1.5085
4301.00,1.5000
4300.00,1.4910
4299.00,1.4816
4298.00,1.4721
4297.00,1.4623
4296.00,1.4519
4295.00,1.4410
4294.00,1.4295
4293.00,1.4173
4292.00,1.4045
4291.00,1.3912
4290.00,1.3773
4289.00,1.3629
4288.00,1.3480
4287.00,1.3324
4286.00,1.3161
4285.00,1.2992
4284.00,1.2816
4283.00,1.2635
4282.00,1.2447
4281.00,1.2254
4280.00,1.2055
4279.00,1.1852
4278.00,1.1645
4277.00,1.1436
4276.00,1.1222
4275.00,1.1005
4274.00,1.0784
4273.00,1.0562
4272.00,1.0340
4271.00,1.0119
4270.00,0.9901
4269.00,0.9685
4268.00,0.9473
4267.00,0.9266
4266.00,0.9066
4265.00,0.8874
4264.00,0.8690
4263.00,0.8516
4262.00,0.8353
4261.00,0.8201
4260.00,0.8063
4259.00,0.7938
4258.00,0.7828
4257.00,0.7733
4256.00,0.7654
4255.00,0.7591
4254.00,0.7545
4253.00,0.7516
4252.00,0.7504
4251.00,0.7509
4250.00,0.7530
4249.00,0.7568
4248.00,0.7622
4247.00,0.7692
4246.00,0.7776
4245.00,0.7874
4244.00,0.7983
4243.00,0.8104
4242.00,0.8236
4241.00,0.8378
4240.00,0.8528
4239.00,0.8686
4238.00,0.8851
4237.00,0.9022
4236.00,0.9197
4235.00,0.9376
4234.00,0.9558
4233.00,0.9743
4232.00,0.9930
4231.00,1.0119
4230.00,1.0310
4229.00,1.0501
4228.00,1.0692
4227.00,1.0883
4226.00,1.1073
4225.00,1.1262
4224.00,1.1449
4223.00,1.1634
4222.00,1.1817
4221.00,1.1999
4220.00,1.2179
4219.00,1.2357
4218.00,1.2533
4217.00,1.2707
4216.00,1.2877
4215.00,1.3043
4214.00,1.3205
4213.00,1.3364
4212.00,1.3520
4211.00,1.3674
4210.00,1.3827
4209.00,1.3977
4208.00,1.4122
4207.00,1.4261
4206.00,1.4393
4205.00,1.4521
4204.00,1.4646
4203.00,1.4771
4202.00,1.4893
4201.00,1.5009
4200.00,1.5116
4199.00,1.5215
4198.00,1.5309
4197.00,1.5400
4196.00,1.5487
4195.00,1.5571
4194.00,1.5650
4193.00,1.5725
4192.00,1.5795
4191.00,1.5860
4190.00,1.5918
4189.00,1.5969
4188.00,1.6014
4187.00,1.6055
4186.00,1.6093
4185.00,1.6128
4184.00,1.6161
4183.00,1.6189
4182.00,1.6212
4181.00,1.6229
4180.00,1.6239
4179.00,1.6245
4178.00,1.6246
4177.00,1.6244
4176.00,1.6237
4175.00,1.6225
4174.00,1.6207
4173.00,1.6183
4172.00,1.6154
4171.00,1.6121
4170.00,1.6085
4169.00,1.6046
4168.00,1.6002
4167.00,1.5954
4166.00,1.5900
4165.00,1.5842
4164.00,1.5780
4163.00,1.5713
4162.00,1.5640
4161.00,1.5562
4160.00,1.5479
4159.00,1.5391
4158.00,1.5298
4157.00,1.5199
4156.00,1.5096
4155.00,1.4989
4154.00,1.4877
4153.00,1.4759
4152.00,1.4634
4151.00,1.4503
4150.00,1.4364
4149.00,1.4219
4148.00,1.4069
4147.00,1.3912
4146.00,1.3748
4145.00,1.3576
4144.00,1.3396
4143.00,1.3210
4142.00,1.3020
4141.00,1.2824
4140.00,1.2623
4139.00,1.2416
4138.00,1.2204
4137.00,1.1988
4136.00,1.1767
4135.00,1.1542
4134.00,1.1312
4133.00,1.1079
4132.00,1.0845
4131.00,1.0612
4130.00,1.0380
4129.00,1.0151
4128.00,0.9926
4127.00,0.9704
4126.00,0.9488
4125.00,0.9278
4124.00,0.9077
4123.00,0.8886
4122.00,0.8707
4121.00,0.8540
4120.00,0.8385
4119.00,0.8245
4118.00,0.8120
4117.00,0.8011
4116.00,0.7919
4115.00,0.7845
4114.00,0.7788
4113.00,0.7751
4112.00,0.7732
4111.00,0.7731
4110.00,0.7749
4109.00,0.7786
4108.00,0.7839
4107.00,0.7910
4106.00,0.7996
4105.00,0.8097
4104.00,0.8211
4103.00,0.8339
4102.00,0.8477
4101.00,0.8626
4100.00,0.8783
4099.00,0.8948
4098.00,0.9121
4097.00,0.9299
4096.00,0.9483
4095.00,0.9671
4094.00,0.9864
4093.00,1.0061
4092.00,1.0260
4091.00,1.0461
4090.00,1.0663
4089.00,1.0865
4088.00,1.1067
4087.00,1.1269
4086.00,1.1471
4085.00,1.1671
4084.00,1.1871
4083.00,1.2068
4082.00,1.2263
4081.00,1.2456
4080.00,1.2646
4079.00,1.2833
4078.00,1.3018
4077.00,1.3199
4076.00,1.3377
4075.00,1.3551
4074.00,1.3720
4073.00,1.3884
4072.00,1.4045
4071.00,1.4203
4070.00,1.4360
4069.00,1.4513
4068.00,1.4661
4067.00,1.4805
4066.00,1.4944
4065.00,1.5080
4064.00,1.5213
4063.00,1.5342
4062.00,1.5466
4061.00,1.5584
4060.00,1.5694
4059.00,1.5798
4058.00,1.5897
4057.00,1.5991
4056.00,1.6082
4055.00,1.6168
4054.00,1.6250
4053.00,1.6326
4052.00,1.6396
4051.00,1.6460
4050.00,1.6518
4049.00,1.6572
4048.00,1.6622
4047.00,1.6667
4046.00,1.6708
4045.00,1.6744
4044.00,1.6775
4043.00,1.6801
4042.00,1.6822
4041.00,1.6839
4040.00,1.6851
4039.00,1.6861
4038.00,1.6867
4037.00,1.6869
4036.00,1.6865
4035.00,1.6856
4034.00,1.6843
4033.00,1.6827
4032.00,1.6811
4031.00,1.6791
4030.00,1.6768
4029.00,1.6740
4028.00,1.6707
4027.00,1.6667
4026.00,1.6620
4025.00,1.6564
4024.00,1.6502
4023.00,1.6437
4022.00,1.6370
4021.00,1.6298
4020.00,1.6222
4019.00,1.6139
4018.00,1.6050
4017.00,1.5957
4016.00,1.5858
4015.00,1.5752
4014.00,1.5639
4013.00,1.5518
4012.00,1.5391
4011.00,1.5259
4010.00,1.5121
4009.00,1.4978
4008.00,1.4829
4007.00,1.4675
4006.00,1.4514
4005.00,1.4347
4004.00,1.4172
4003.00,1.3990
4002.00,1.3801
4001.00,1.3604
4000.00,1.3400
3999.00,1.3189
3998.00,1.2972
3997.00,1.2749
3996.00,1.2521
3995.00,1.2288
3994.00,1.2050
3993.00,1.1809
3992.00,1.1566
3991.00,1.1323
3990.00,1.1082
3989.00,1.0843
3988.00,1.0609
3987.00,1.0379
3986.00,1.0157
3985.00,0.9942
3984.00,0.9737
3983.00,0.9544
3982.00,0.9363
3981.00,0.9196
3980.00,0.9043
3979.00,0.8905
3978.00,0.8782
3977.00,0.8672
3976.00,0.8575
3975.00,0.8490
3974.00,0.8416
3973.00,0.8353
3972.00,0.8302
3971.00,0.8263
3970.00,0.8239
3969.00,0.8231
3968.00,0.8239
3967.00,0.8263
3966.00,0.8305
3965.00,0.8364
3964.00,0.8441
3963.00,0.8534
3962.00,0.8643
3961.00,0.8767
3960.00,0.8903
3959.00,0.9052
3958.00,0.9211
3957.00,0.9380
3956.00,0.9558
3955.00,0.9742
3954.00,0.9931
3953.00,1.0124
3952.00,1.0320
3951.00,1.0520
3950.00,1.0724
3949.00,1.0932
3948.00,1.1144
3947.00,1.1355
3946.00,1.1565
3945.00,1.1772
3944.00,1.1979
3943.00,1.2187
3942.00,1.2397
3941.00,1.2607
3940.00,1.2814
3939.00,1.3016
3938.00,1.3212
3937.00,1.3402
3936.00,1.3586
3935.00,1.3765
3934.00,1.3942
3933.00,1.4120
3932.00,1.4299
3931.00,1.4479
3930.00,1.4655
3929.00,1.4826
3928.00,1.4988
3927.00,1.5145
3926.00,1.5297
3925.00,1.5448
3924.00,1.5595
3923.00,1.5737
3922.00,1.5870
3921.00,1.5993
3920.00,1.6108
3919.00,1.6221
3918.00,1.6332
3917.00,1.6444
3916.00,1.6552
3915.00,1.6655
3914.00,1.6750
3913.00,1.6836
3912.00,1.6914
3911.00,1.6985
3910.00,1.7049
3909.00,1.7106
3908.00,1.7157
3907.00,1.7200
3906.00,1.7237
3905.00,1.7268
3904.00,1.7297
3903.00,1.7324
3902.00,1.7351
3901.00,1.7376
3900.00,1.7399
3899.00,1.7419
3898.00,1.7438
3897.00,1.7452
3896.00,1.7456
3895.00,1.7450
3894.00,1.7438
3893.00,1.7422
3892.00,1.7405
3891.00,1.7382
3890.00,1.7351
3889.00,1.7315
3888.00,1.7276
3887.00,1.7235
3886.00,1.7190
3885.00,1.7138
3884.00,1.7082
3883.00,1.7023
3882.00,1.6962
3881.00,1.6897
3880.00,1.6823
3879.00,1.6744
3878.00,1.6662
3877.00,1.6577
3876.00,1.6488
3875.00,1.6388
3874.00,1.6276
3873.00,1.6157
3872.00,1.6033
3871.00,1.5903
3870.00,1.5762
3869.00,1.5609
3868.00,1.5454
3867.00,1.5301
3866.00,1.5149
3865.00,1.4990
3864.00,1.4821
3863.00,1.4641
3862.00,1.4452
3861.00,1.4256
3860.00,1.4053
3859.00,1.3842
3858.00,1.3621
3857.00,1.3393
3856.00,1.3159
3855.00,1.2911
3854.00,1.2635
3853.00,1.2327
3852.00,1.2014
3851.00,1.1727
3850.00,1.1468
3849.00,1.1225
3848.00,1.0988
3847.00,1.0750
3846.00,1.0510
3845.00,1.0265
3844.00,1.0015
3843.00,0.9763
3842.00,0.9515
3841.00,0.9276
3840.00,0.9049
3839.00,0.8836
3838.00,0.8634
3837.00,0.8449
3836.00,0.8286
3835.00,0.8153
3834.00,0.8049
3833.00,0.7972
3832.00,0.7919
3831.00,0.7888
3830.00,0.7877
3829.00,0.7889
3828.00,0.7926
3827.00,0.7986
3826.00,0.8062
3825.00,0.8149
3824.00,0.8251
3823.00,0.8377
3822.00,0.8533
3821.00,0.8710
3820.00,0.8889
3819.00,0.9058
3818.00,0.9226
3817.00,0.9418
3816.00,0.9648
3815.00,0.9904
3814.00,1.0160
3813.00,1.0397
3812.00,1.0619
3811.00,1.0832
3810.00,1.1042
3809.00,1.1253
3808.00,1.1475
3807.00,1.1715
3806.00,1.1964
3805.00,1.2201
3804.00,1.2413
3803.00,1.2612
3802.00,1.2823
3801.00,1.3061
3800.00,1.3316
3799.00,1.3566
3798.00,1.3795
3797.00,1.4007
3796.00,1.4212
3795.00,1.4415
3794.00,1.4615
3793.00,1.4809
3792.00,1.4998
3791.00,1.5181
3790.00,1.5359
3789.00,1.5531
3788.00,1.5697
3787.00,1.5860
3786.00,1.6019
3785.00,1.6176
3784.00,1.6328
3783.00,1.6470
3782.00,1.6605
3781.00,1.6732
3780.00,1.6855
3779.00,1.6974
3778.00,1.7087
3777.00,1.7195
3776.00,1.7298
3775.00,1.7396
3774.00,1.7486
3773.00,1.7569
3772.00,1.7644
3771.00,1.7715
3770.00,1.7782
3769.00,1.7841
3768.00,1.7893
3767.00,1.7940
3766.00,1.7984
3765.00,1.8026
3764.00,1.8062
3763.00,1.8091
3762.00,1.8114
3761.00,1.8133
3760.00,1.8146
3759.00,1.8155
3758.00,1.8159
3757.00,1.8155
3756.00,1.8141
3755.00,1.8116
3754.00,1.8084
3753.00,1.8049
3752.00,1.8013
3751.00,1.7974
3750.00,1.7929
3749.00,1.7877
3748.00,1.7822
3747.00,1.7768
3746.00,1.7721
3745.00,1.7677
3744.00,1.7624
3743.00,1.7562
3742.00,1.7498
3741.00,1.7436
3740.00,1.7369
3739.00,1.7296
3738.00,1.7213
3737.00,1.7117
3736.00,1.7008
3735.00,1.6894
3734.00,1.6778
3733.00,1.6657
3732.00,1.6526
3731.00,1.6389
3730.00,1.6249
3729.00,1.6107
3728.00,1.5957
3727.00,1.5794
3726.00,1.5618
3725.00,1.5431
3724.00,1.5235
3723.00,1.5030
3722.00,1.4816
3721.00,1.4592
3720.00,1.4359
3719.00,1.4119
3718.00,1.3872
3717.00,1.3618
3716.00,1.3358
3715.00,1.3096
3714.00,1.2828
3713.00,1.2549
3712.00,1.2255
3711.00,1.1950
3710.00,1.1645
3709.00,1.1349
3708.00,1.1066
3707.00,1.0798
3706.00,1.0547
3705.00,1.0311
3704.00,1.0087
3703.00,0.9874
3702.00,0.9670
3701.00,0.9476
3700.00,0.9301
3699.00,0.9153
3698.00,0.9036
3697.00,0.8947
3696.00,0.8886
3695.00,0.8850
3694.00,0.8840
3693.00,0.8854
3692.00,0.8893
3691.00,0.8957
3690.00,0.9048
3689.00,0.9170
3688.00,0.9320
3687.00,0.9491
3686.00,0.9674
3685.00,0.9869
3684.00,1.0078
3683.00,1.0302
3682.00,1.0535
3681.00,1.0771
3680.00,1.1003
3679.00,1.1226
3678.00,1.1445
3677.00,1.1675
3676.00,1.1932
3675.00,1.2211
3674.00,1.2485
3673.00,1.2732
3672.00,1.2958
3671.00,1.3190
3670.00,1.3444
3669.00,1.3713
3668.00,1.3977
3667.00,1.4224
3666.00,1.4452
3665.00,1.4667
3664.00,1.4874
3663.00,1.5075
3662.00,1.5271
3661.00,1.5460
3660.00,1.5641
3659.00,1.5811
3658.00,1.5976
3657.00,1.6142
3656.00,1.6313
3655.00,1.6483
3654.00,1.6639
3653.00,1.6775
3652.00,1.6898
3651.00,1.7023
3650.00,1.7157
3649.00,1.7302
3648.00,1.7450
3647.00,1.7595
3646.00,1.7731
3645.00,1.7855
3644.00,1.7969
3643.00,1.8072
3642.00,1.8169
3641.00,1.8262
3640.00,1.8356
3639.00,1.8451
3638.00,1.8544
3637.00,1.8632
3636.00,1.8714
3635.00,1.8790
3634.00,1.8854
3633.00,1.8902
3632.00,1.8937
3631.00,1.8971
3630.00,1.9016
3629.00,1.9073
3628.00,1.9134
3627.00,1.9189
3626.00,1.9236
3625.00,1.9275
3624.00,1.9311
3623.00,1.9340
3622.00,1.9360
3621.00,1.9373
3620.00,1.9385
3619.00,1.9394
3618.00,1.9399
3617.00,1.9400
3616.00,1.9399
3615.00,1.9400
3614.00,1.9399
3613.00,1.9393
3612.00,1.9381
3611.00,1.9363
3610.00,1.9341
3609.00,1.9319
3608.00,1.9294
3607.00,1.9266
3606.00,1.9230
3605.00,1.9189
3604.00,1.9143
3603.00,1.9094
3602.00,1.9042
3601.00,1.8986
3600.00,1.8928
3599.00,1.8864
3598.00,1.8794
3597.00,1.8719
3596.00,1.8641
3595.00,1.8559
3594.00,1.8469
3593.00,1.8370
3592.00,1.8264
3591.00,1.8154
3590.00,1.8041
3589.00,1.7923
3588.00,1.7797
3587.00,1.7664
3586.00,1.7526
3585.00,1.7388
3584.00,1.7251
3583.00,1.7112
3582.00,1.6968
3581.00,1.6816
3580.00,1.6656
3579.00,1.6489
3578.00,1.6317
3577.00,1.6138
3576.00,1.5955
3575.00,1.5768
3574.00,1.5576
3573.00,1.5380
3572.00,1.5180
3571.00,1.4978
3570.00,1.4774
3569.00,1.4569
3568.00,1.4360
3567.00,1.4150
3566.00,1.3942
3565.00,1.3741
3564.00,1.3549
3563.00,1.3367
3562.00,1.3194
3561.00,1.3030
3560.00,1.2875
3559.00,1.2729
3558.00,1.2592
3557.00,1.2466
3556.00,1.2351
3555.00,1.2250
3554.00,1.2161
3553.00,1.2085
3552.00,1.2021
3551.00,1.1969
3550.00,1.1932
3549.00,1.1909
3548.00,1.1901
3547.00,1.1906
3546.00,1.1924
3545.00,1.1952
3544.00,1.1990
3543.00,1.2037
3542.00,1.2094
3541.00,1.2161
3540.00,1.2237
3539.00,1.2322
3538.00,1.2416
3537.00,1.2516
3536.00,1.2623
3535.00,1.2735
3534.00,1.2853
3533.00,1.2976
3532.00,1.3103
3531.00,1.3236
3530.00,1.3375
3529.00,1.3518
3528.00,1.3666
3527.00,1.3816
3526.00,1.3968
3525.00,1.4124
3524.00,1.4285
3523.00,1.4451
3522.00,1.4619
3521.00,1.4788
3520.00,1.4956
3519.00,1.5124
3518.00,1.5294
3517.00,1.5465
3516.00,1.5638
3515.00,1.5810
3514.00,1.5979
3513.00,1.6145
3512.00,1.6309
3511.00,1.6473
3510.00,1.6637
3509.00,1.6801
3508.00,1.6962
3507.00,1.7119
3506.00,1.7270
3505.00,1.7419
3504.00,1.7567
3503.00,1.7714
3502.00,1.7856
3501.00,1.7992
3500.00,1.8122
3499.00,1.8248
3498.00,1.8369
3497.00,1.8484
3496.00,1.8596
3495.00,1.8704
3494.00,1.8809
3493.00,1.8907
3492.00,1.8999
3491.00,1.9087
3490.00,1.9171
3489.00,1.9250
3488.00,1.9322
3487.00,1.9388
3486.00,1.9449
3485.00,1.9508
3484.00,1.9565
3483.00,1.9617
3482.00,1.9663
3481.00,1.9703
3480.00,1.9740
3479.00,1.9775
3478.00,1.9805
3477.00,1.9829
3476.00,1.9847
3475.00,1.9861
3474.00,1.9871
3473.00,1.9876
3472.00,1.9878
3471.00,1.9880
3470.00,1.9879
3469.00,1.9874
3468.00,1.9860
3467.00,1.9836
3466.00,1.9803
3465.00,1.9762
3464.00,1.9720
3463.00,1.9679
3462.00,1.9641
3461.00,1.9603
3460.00,1.9560
3459.00,1.9508
3458.00,1.9447
3457.00,1.9380
3456.00,1.9310
3455.00,1.9239
3454.00,1.9166
3453.00,1.9086
3452.00,1.8999
3451.00,1.8902
3450.00,1.8795
3449.00,1.8682
3448.00,1.8567
3447.00,1.8451
3446.00,1.8333
3445.00,1.8209
3444.00,1.8077
3443.00,1.7936
3442.00,1.7788
3441.00,1.7632
3440.00,1.7470
3439.00,1.7299
3438.00,1.7118
3437.00,1.6929
3436.00,1.6732
3435.00,1.6530
3434.00,1.6322
3433.00,1.6109
3432.00,1.5888
3431.00,1.5659
3430.00,1.5423
3429.00,1.5181
3428.00,1.4933
3427.00,1.4678
3426.00,1.4420
3425.00,1.4157
3424.00,1.3893
3423.00,1.3626
3422.00,1.3359
3421.00,1.3094
3420.00,1.2834
3419.00,1.2581
3418.00,1.2337
3417.00,1.2105
3416.00,1.1886
3415.00,1.1680
3414.00,1.1490
3413.00,1.1317
3412.00,1.1163
3411.00,1.1030
3410.00,1.0920
3409.00,1.0832
3408.00,1.0766
3407.00,1.0721
3406.00,1.0698
3405.00,1.0696
3404.00,1.0714
3403.00,1.0753
3402.00,1.0810
3401.00,1.0885
3400.00,1.0976
3399.00,1.1083
3398.00,1.1205
3397.00,1.1342
3396.00,1.1491
3395.00,1.1652
3394.00,1.1824
3393.00,1.2007
3392.00,1.2201
3391.00,1.2403
3390.00,1.2611
3389.00,1.2825
3388.00,1.3043
3387.00,1.3264
3386.00,1.3489
3385.00,1.3714
3384.00,1.3939
3383.00,1.4163
3382.00,1.4384
3381.00,1.4604
3380.00,1.4824
3379.00,1.5044
3378.00,1.5264
3377.00,1.5482
3376.00,1.5698
3375.00,1.5911
3374.00,1.6120
3373.00,1.6325
3372.00,1.6526
3371.00,1.6723
3370.00,1.6916
3369.00,1.7107
3368.00,1.7295
3367.00,1.7478
3366.00,1.7658
3365.00,1.7834
3364.00,1.8009
3363.00,1.8179
3362.00,1.8340
3361.00,1.8491
3360.00,1.8631
3359.00,1.8764
3358.00,1.8890
3357.00,1.9010
3356.00,1.9126
3355.00,1.9239
3354.00,1.9347
3353.00,1.9453
3352.00,1.9555
3351.00,1.9654
3350.00,1.9747
3349.00,1.9831
3348.00,1.9908
3347.00,1.9978
3346.00,2.0042
3345.00,2.0099
3344.00,2.0149
3343.00,2.0197
3342.00,2.0246
3341.00,2.0294
3340.00,2.0334
3339.00,2.0363
3338.00,2.0384
3337.00,2.0403
3336.00,2.0422
3335.00,2.0437
3334.00,2.0448
3333.00,2.0458
3332.00,2.0467
3331.00,2.0471
3330.00,2.0465
3329.00,2.0450
3328.00,2.0431
3327.00,2.0411
3326.00,2.0389
3325.00,2.0362
3324.00,2.0330
3323.00,2.0293
3322.00,2.0253
3321.00,2.0209
3320.00,2.0159
3319.00,2.0102
3318.00,2.0037
3317.00,1.9966
3316.00,1.9891
3315.00,1.9814
3314.00,1.9735
3313.00,1.9653
3312.00,1.9565
3311.00,1.9468
3310.00,1.9363
3309.00,1.9250
3308.00,1.9133
3307.00,1.9014
3306.00,1.8890
3305.00,1.8760
3304.00,1.8624
3303.00,1.8481
3302.00,1.8331
3301.00,1.8173
3300.00,1.8007
3299.00,1.7833
3298.00,1.7653
3297.00,1.7467
3296.00,1.7273
3295.00,1.7073
3294.00,1.6866
3293.00,1.6653
3292.00,1.6434
3291.00,1.6208
3290.00,1.5972
3289.00,1.5727
3288.00,1.5474
3287.00,1.5215
3286.00,1.4952
3285.00,1.4686
3284.00,1.4418
3283.00,1.4148
3282.00,1.3876
3281.00,1.3604
3280.00,1.3336
3279.00,1.3072
3278.00,1.2817
3277.00,1.2571
3276.00,1.2337
3275.00,1.2115
3274.00,1.1907
3273.00,1.1716
3272.00,1.1545
3271.00,1.1394
3270.00,1.1266
3269.00,1.1161
3268.00,1.1080
3267.00,1.1023
3266.00,1.0991
3265.00,1.0985
3264.00,1.1003
3263.00,1.1046
3262.00,1.1113
3261.00,1.1201
3260.00,1.1310
3259.00,1.1439
3258.00,1.1586
3257.00,1.1749
3256.00,1.1927
3255.00,1.2118
3254.00,1.2320
3253.00,1.2531
3252.00,1.2749
3251.00,1.2974
3250.00,1.3205
3249.00,1.3442
3248.00,1.3681
3247.00,1.3922
3246.00,1.4163
3245.00,1.4403
3244.00,1.4643
3243.00,1.4884
3242.00,1.5125
3241.00,1.5366
3240.00,1.5605
3239.00,1.5840
3238.00,1.6071
3237.00,1.6299
3236.00,1.6525
3235.00,1.6747
3234.00,1.6965
3233.00,1.7180
3232.00,1.7392
3231.00,1.7600
3230.00,1.7802
3229.00,1.7996
3228.00,1.8184
3227.00,1.8365
3226.00,1.8541
3225.00,1.8713
3224.00,1.8878
3223.00,1.9038
3222.00,1.9193
3221.00,1.9345
3220.00,1.9492
3219.00,1.9629
3218.00,1.9757
3217.00,1.9879
3216.00,1.9999
3215.00,2.0118
3214.00,2.0232
3213.00,2.0340
3212.00,2.0442
3211.00,2.0536
3210.00,2.0618
3209.00,2.0690
3208.00,2.0756
3207.00,2.0820
3206.00,2.0883
3205.00,2.0945
3204.00,2.1003
3203.00,2.1058
3202.00,2.1107
3201.00,2.1148
3200.00,2.1178
3199.00,2.1196
3198.00,2.1205
3197.00,2.1211
3196.00,2.1220
3195.00,2.1232
3194.00,2.1242
3193.00,2.1246
3192.00,2.1243
3191.00,2.1232
3190.00,2.1214
3189.00,2.1194
3188.00,2.1175
3187.00,2.1156
3186.00,2.1135
3185.00,2.1105
3184.00,2.1066
3183.00,2.1017
3182.00,2.0964
3181.00,2.0905
3180.00,2.0842
3179.00,2.0774
3178.00,2.0704
3177.00,2.0631
3176.00,2.0554
3175.00,2.0471
3174.00,2.0382
3173.00,2.0295
3172.00,2.0214
3171.00,2.0141
3170.00,2.0080
3169.00,2.0035
3168.00,2.0015
3167.00,2.0023
3166.00,2.0055
3165.00,2.0095
3164.00,2.0122
3163.00,2.0115
3162.00,2.0056
3161.00,1.9942
3160.00,1.9777
3159.00,1.9577
3158.00,1.9357
3157.00,1.9126
3156.00,1.8890
3155.00,1.8651
3154.00,1.8409
3153.00,1.8165
3152.00,1.7919
3151.00,1.7669
3150.00,1.7412
3149.00,1.7151
3148.00,1.6887
3147.00,1.6622
3146.00,1.6352
3145.00,1.6078
3144.00,1.5800
3143.00,1.5520
3142.00,1.5240
3141.00,1.4962
3140.00,1.4685
3139.00,1.4412
3138.00,1.4144
3137.00,1.3885
3136.00,1.3638
3135.00,1.3404
3134.00,1.3186
3133.00,1.2985
3132.00,1.2802
3131.00,1.2637
3130.00,1.2493
3129.00,1.2373
3128.00,1.2277
3127.00,1.2207
3126.00,1.2164
3125.00,1.2147
3124.00,1.2156
3123.00,1.2192
3122.00,1.2253
3121.00,1.2338
3120.00,1.2446
3119.00,1.2575
3118.00,1.2723
3117.00,1.2888
3116.00,1.3070
3115.00,1.3263
3114.00,1.3467
3113.00,1.3677
3112.00,1.3893
3111.00,1.4112
3110.00,1.4335
3109.00,1.4563
3108.00,1.4795
3107.00,1.5030
3106.00,1.5268
3105.00,1.5507
3104.00,1.5746
3103.00,1.5986
3102.00,1.6224
3101.00,1.6462
3100.00,1.6697
3099.00,1.6930
3098.00,1.7158
3097.00,1.7382
3096.00,1.7601
3095.00,1.7817
3094.00,1.8030
3093.00,1.8239
3092.00,1.8444
3091.00,1.8645
3090.00,1.8839
3089.00,1.9029
3088.00,1.9215
3087.00,1.9400
3086.00,1.9580
3085.00,1.9751
3084.00,1.9910
3083.00,2.0060
3082.00,2.0204
3081.00,2.0346
3080.00,2.0483
3079.00,2.0615
3078.00,2.0738
3077.00,2.0856
3076.00,2.0970
3075.00,2.1081
3074.00,2.1186
3073.00,2.1282
3072.00,2.1369
3071.00,2.1452
3070.00,2.1534
3069.00,2.1615
3068.00,2.1689
3067.00,2.1754
3066.00,2.1810
3065.00,2.1860
3064.00,2.1910
3063.00,2.1958
3062.00,2.2001
3061.00,2.2039
3060.00,2.2076
3059.00,2.2112
3058.00,2.2145
3057.00,2.2173
3056.00,2.2196
3055.00,2.2211
3054.00,2.2218
3053.00,2.2216
3052.00,2.2208
3051.00,2.2197
3050.00,2.2184
3049.00,2.2169
3048.00,2.2150
3047.00,2.2126
3046.00,2.2099
3045.00,2.2068
3044.00,2.2033
3043.00,2.1994
3042.00,2.1947
3041.00,2.1895
3040.00,2.1837
3039.00,2.1777
3038.00,2.1714
3037.00,2.1647
3036.00,2.1576
3035.00,2.1502
3034.00,2.1425
3033.00,2.1343
3032.00,2.1255
3031.00,2.1161
3030.00,2.1059
3029.00,2.0952
3028.00,2.0841
3027.00,2.0724
3026.00,2.0602
3025.00,2.0477
3024.00,2.0354
3023.00,2.0235
3022.00,2.0119
3021.00,2.0002
3020.00,1.9883
3019.00,1.9761
3018.00,1.9641
3017.00,1.9526
3016.00,1.9420
3015.00,1.9323
3014.00,1.9236
3013.00,1.9162
3012.00,1.9103
3011.00,1.9061
3010.00,1.9034
3009.00,1.9016
3008.00,1.9004
3007.00,1.8998
3006.00,1.8997
3005.00,1.8999
3004.00,1.8995
3003.00,1.8979
3002.00,1.8944
3001.00,1.8886
3000.00,1.8803
2999.00,1.8695
2998.00,1.8560
2997.00,1.8403
2996.00,1.8227
2995.00,1.8035
2994.00,1.7833
2993.00,1.7627
2992.00,1.7421
2991.00,1.7223
2990.00,1.7037
2989.00,1.6867
2988.00,1.6718
2987.00,1.6595
2986.00,1.6502
2985.00,1.6441
2984.00,1.6416
2983.00,1.6428
2982.00,1.6477
2981.00,1.6565
2980.00,1.6689
2979.00,1.6847
2978.00,1.7037
2977.00,1.7255
2976.00,1.7494
2975.00,1.7751
2974.00,1.8020
2973.00,1.8301
2972.00,1.8591
2971.00,1.8883
2970.00,1.9172
2969.00,1.9455
2968.00,1.9730
2967.00,1.9992
2966.00,2.0241
2965.00,2.0478
2964.00,2.0709
2963.00,2.0938
2962.00,2.1161
2961.00,2.1376
2960.00,2.1580
2959.00,2.1777
2958.00,2.1975
2957.00,2.2181
2956.00,2.2398
2955.00,2.2622
2954.00,2.2846
2953.00,2.3064
2952.00,2.3274
2951.00,2.3477
2950.00,2.3679
2949.00,2.3892
2948.00,2.4114
2947.00,2.4326
2946.00,2.4498
2945.00,2.4599
2944.00,2.4611
2943.00,2.4530
2942.00,2.4368
2941.00,2.4150
2940.00,2.3904
2939.00,2.3651
2938.00,2.3410
2937.00,2.3189
2936.00,2.2991
2935.00,2.2813
2934.00,2.2654
2933.00,2.2518
2932.00,2.2406
2931.00,2.2315
2930.00,2.2240
2929.00,2.2181
2928.00,2.2144
2927.00,2.2130
2926.00,2.2134
2925.00,2.2145
2924.00,2.2162
2923.00,2.2184
2922.00,2.2211
2921.00,2.2245
2920.00,2.2285
2919.00,2.2337
2918.00,2.2406
2917.00,2.2490
2916.00,2.2578
2915.00,2.2660
2914.00,2.2732
2913.00,2.2797
2912.00,2.2865
2911.00,2.2936
2910.00,2.3004
2909.00,2.3059
2908.00,2.3102
2907.00,2.3142
2906.00,2.3187
2905.00,2.3237
2904.00,2.3280
2903.00,2.3312
2902.00,2.3333
2901.00,2.3349
2900.00,2.3367
2899.00,2.3387
2898.00,2.3404
2897.00,2.3411
2896.00,2.3406
2895.00,2.3391
2894.00,2.3368
2893.00,2.3342
2892.00,2.3316
2891.00,2.3286
2890.00,2.3251
2889.00,2.3210
2888.00,2.3171
2887.00,2.3137
2886.00,2.3103
2885.00,2.3059
2884.00,2.3003
2883.00,2.2937
2882.00,2.2866
2881.00,2.2793
2880.00,2.2724
2879.00,2.2664
2878.00,2.2615
2877.00,2.2570
2876.00,2.2523
2875.00,2.2478
2874.00,2.2443
2873.00,2.2421
2872.00,2.2407
2871.00,2.2398
2870.00,2.2388
2869.00,2.2373
2868.00,2.2344
2867.00,2.2296
2866.00,2.2225
2865.00,2.2136
2864.00,2.2033
2863.00,2.1922
2862.00,2.1806
2861.00,2.1681
2860.00,2.1536
2859.00,2.1365
2858.00,2.1169
2857.00,2.0957
2856.00,2.0733
2855.00,2.0494
2854.00,2.0234
2853.00,1.9954
2852.00,1.9656
2851.00,1.9346
2850.00,1.9032
2849.00,1.8712
2848.00,1.8385
2847.00,1.8047
2846.00,1.7698
2845.00,1.7343
2844.00,1.6984
2843.00,1.6624
2842.00,1.6262
2841.00,1.5902
2840.00,1.5546
2839.00,1.5195
2838.00,1.4855
2837.00,1.4526
2836.00,1.4214
2835.00,1.3920
2834.00,1.3647
2833.00,1.3399
2832.00,1.3179
2831.00,1.2990
2830.00,1.2832
2829.00,1.2707
2828.00,1.2619
2827.00,1.2566
2826.00,1.2551
2825.00,1.2573
2824.00,1.2633
2823.00,1.2727
2822.00,1.2855
2821.00,1.3012
2820.00,1.3197
2819.00,1.3408
2818.00,1.3640
2817.00,1.3892
2816.00,1.4158
2815.00,1.4436
2814.00,1.4722
2813.00,1.5013
2812.00,1.5309
2811.00,1.5608
2810.00,1.5911
2809.00,1.6216
2808.00,1.6521
2807.00,1.6825
2806.00,1.7126
2805.00,1.7425
2804.00,1.7723
2803.00,1.8017
2802.00,1.8304
2801.00,1.8583
2800.00,1.8855
2799.00,1.9121
2798.00,1.9380
2797.00,1.9631
2796.00,1.9875
2795.00,2.0111
2794.00,2.0341
2793.00,2.0562
2792.00,2.0772
2791.00,2.0971
2790.00,2.1163
2789.00,2.1352
2788.00,2.1538
2787.00,2.1716
2786.00,2.1881
2785.00,2.2033
2784.00,2.2176
2783.00,2.2314
2782.00,2.2451
2781.00,2.2584
2780.00,2.2707
2779.00,2.2817
2778.00,2.2916
2777.00,2.3011
2776.00,2.3105
2775.00,2.3199
2774.00,2.3287
2773.00,2.3367
2772.00,2.3439
2771.00,2.3503
2770.00,2.3562
2769.00,2.3615
2768.00,2.3659
2767.00,2.3693
2766.00,2.3721
2765.00,2.3749
2764.00,2.3781
2763.00,2.3815
2762.00,2.3841
2761.00,2.3854
2760.00,2.3855
2759.00,2.3850
2758.00,2.3843
2757.00,2.3840
2756.00,2.3843
2755.00,2.3853
2754.00,2.3858
2753.00,2.3846
2752.00,2.3812
2751.00,2.3767
2750.00,2.3724
2749.00,2.3686
2748.00,2.3645
2747.00,2.3593
2746.00,2.3532
2745.00,2.3464
2744.00,2.3393
2743.00,2.3319
2742.00,2.3240
2741.00,2.3158
2740.00,2.3074
2739.00,2.2988
2738.00,2.2897
2737.00,2.2800
2736.00,2.2694
2735.00,2.2578
2734.00,2.2453
2733.00,2.2319
2732.00,2.2179
2731.00,2.2031
2730.00,2.1877
2729.00,2.1719
2728.00,2.1556
2727.00,2.1387
2726.00,2.1209
2725.00,2.1017
2724.00,2.0810
2723.00,2.0590
2722.00,2.0361
2721.00,2.0123
2720.00,1.9873
2719.00,1.9608
2718.00,1.9328
2717.00,1.9035
2716.00,1.8729
2715.00,1.8410
2714.00,1.8075
2713.00,1.7724
2712.00,1.7356
2711.00,1.6970
2710.00,1.6568
2709.00,1.6153
2708.00,1.5727
2707.00,1.5294
2706.00,1.4858
2705.00,1.4423
2704.00,1.3995
2703.00,1.3579
2702.00,1.3182
2701.00,1.2806
2700.00,1.2459
2699.00,1.2145
2698.00,1.1868
2697.00,1.1633
2696.00,1.1443
2695.00,1.1302
2694.00,1.1212
2693.00,1.1174
2692.00,1.1190
2691.00,1.1258
2690.00,1.1378
2689.00,1.1546
2688.00,1.1757
2687.00,1.2004
2686.00,1.2282
2685.00,1.2585
2684.00,1.2908
2683.00,1.3246
2682.00,1.3593
2681.00,1.3946
2680.00,1.4301
2679.00,1.4656
2678.00,1.5010
2677.00,1.5362
2676.00,1.5710
2675.00,1.6054
2674.00,1.6393
2673.00,1.6725
2672.00,1.7052
2671.00,1.7372
2670.00,1.7687
2669.00,1.7996
2668.00,1.8302
2667.00,1.8606
2666.00,1.8907
2665.00,1.9206
2664.00,1.9500
2663.00,1.9789
2662.00,2.0072
2661.00,2.0350
2660.00,2.0619
2659.00,2.0878
2658.00,2.1128
2657.00,2.1366
2656.00,2.1593
2655.00,2.1807
2654.00,2.2011
2653.00,2.2208
2652.00,2.2399
2651.00,2.2581
2650.00,2.2752
2649.00,2.2910
2648.00,2.3057
2647.00,2.3196
2646.00,2.3328
2645.00,2.3457
2644.00,2.3586
2643.00,2.3709
2642.00,2.3824
2641.00,2.3931
2640.00,2.4034
2639.00,2.4130
2638.00,2.4213
2637.00,2.4283
2636.00,2.4348
2635.00,2.4421
2634.00,2.4502
2633.00,2.4580
2632.00,2.4646
2631.00,2.4701
2630.00,2.4752
2629.00,2.4801
2628.00,2.4844
2627.00,2.4873
2626.00,2.4886
2625.00,2.4886
2624.00,2.4883
2623.00,2.4882
2622.00,2.4887
2621.00,2.4897
2620.00,2.4908
2619.00,2.4917
2618.00,2.4918
2617.00,2.4909
2616.00,2.4889
2615.00,2.4858
2614.00,2.4818
2613.00,2.4772
2612.00,2.4727
2611.00,2.4692
2610.00,2.4667
2609.00,2.4639
2608.00,2.4594
2607.00,2.4532
2606.00,2.4463
2605.00,2.4396
2604.00,2.4332
2603.00,2.4264
2602.00,2.4183
2601.00,2.4087
2600.00,2.3980
2599.00,2.3870
2598.00,2.3761
2597.00,2.3646
2596.00,2.3518
2595.00,2.3379
2594.00,2.3237
2593.00,2.3098
2592.00,2.2958
2591.00,2.2810
2590.00,2.2649
2589.00,2.2480
2588.00,2.2301
2587.00,2.2109
2586.00,2.1903
2585.00,2.1688
2584.00,2.1470
2583.00,2.1244
2582.00,2.1004
2581.00,2.0748
2580.00,2.0477
2579.00,2.0196
2578.00,1.9904
2577.00,1.9595
2576.00,1.9268
2575.00,1.8921
2574.00,1.8556
2573.00,1.8176
2572.00,1.7779
2571.00,1.7366
2570.00,1.6936
2569.00,1.6495
2568.00,1.6045
2567.00,1.5588
2566.00,1.5128
2565.00,1.4670
2564.00,1.4221
2563.00,1.3787
2562.00,1.3376
2561.00,1.2992
2560.00,1.2642
2559.00,1.2332
2558.00,1.2067
2557.00,1.1851
2556.00,1.1689
2555.00,1.1583
2554.00,1.1536
2553.00,1.1547
2552.00,1.1618
2551.00,1.1743
2550.00,1.1921
2549.00,1.2144
2548.00,1.2408
2547.00,1.2705
2546.00,1.3028
2545.00,1.3370
2544.00,1.3727
2543.00,1.4095
2542.00,1.4471
2541.00,1.4852
2540.00,1.5235
2539.00,1.5619
2538.00,1.6003
2537.00,1.6385
2536.00,1.6764
2535.00,1.7138
2534.00,1.7506
2533.00,1.7869
2532.00,1.8228
2531.00,1.8582
2530.00,1.8930
2529.00,1.9269
2528.00,1.9601
2527.00,1.9925
2526.00,2.0243
2525.00,2.0556
2524.00,2.0863
2523.00,2.1158
2522.00,2.1439
2521.00,2.1705
2520.00,2.1957
2519.00,2.2197
2518.00,2.2426
2517.00,2.2648
2516.00,2.2868
2515.00,2.3087
2514.00,2.3300
2513.00,2.3496
2512.00,2.3667
2511.00,2.3817
2510.00,2.3956
2509.00,2.4088
2508.00,2.4217
2507.00,2.4346
2506.00,2.4479
2505.00,2.4612
2504.00,2.4738
2503.00,2.4846
2502.00,2.4938
2501.00,2.5015
2500.00,2.5087
2499.00,2.5159
2498.00,2.5236
2497.00,2.5314
2496.00,2.5384
2495.00,2.5444
2494.00,2.5500
2493.00,2.5559
2492.00,2.5620
2491.00,2.5678
2490.00,2.5728
2489.00,2.5767
2488.00,2.5797
2487.00,2.5824
2486.00,2.5853
2485.00,2.5879
2484.00,2.5899
2483.00,2.5913
2482.00,2.5927
2481.00,2.5940
2480.00,2.5942
2479.00,2.5926
2478.00,2.5897
2477.00,2.5860
2476.00,2.5820
2475.00,2.5777
2474.00,2.5736
2473.00,2.5699
2472.00,2.5661
2471.00,2.5622
2470.00,2.5584
2469.00,2.5548
2468.00,2.5508
2467.00,2.5455
2466.00,2.5391
2465.00,2.5320
2464.00,2.5237
2463.00,2.5137
2462.00,2.5023
2461.00,2.4910
2460.00,2.4804
2459.00,2.4705
2458.00,2.4607
2457.00,2.4502
2456.00,2.4387
2455.00,2.4255
2454.00,2.4107
2453.00,2.3946
2452.00,2.3779
2451.00,2.3607
2450.00,2.3430
2449.00,2.3244
2448.00,2.3048
2447.00,2.2844
2446.00,2.2631
2445.00,2.2412
2444.00,2.2183
2443.00,2.1944
2442.00,2.1695
2441.00,2.1435
2440.00,2.1158
2439.00,2.0861
2438.00,2.0549
2437.00,2.0226
2436.00,1.9891
2435.00,1.9541
2434.00,1.9172
2433.00,1.8788
2432.00,1.8390
2431.00,1.7982
2430.00,1.7566
2429.00,1.7146
2428.00,1.6729
2427.00,1.6320
2426.00,1.5925
2425.00,1.5550
2424.00,1.5201
2423.00,1.4885
2422.00,1.4605
2421.00,1.4368
2420.00,1.4176
2419.00,1.4032
2418.00,1.3935
2417.00,1.3885
2416.00,1.3878
2415.00,1.3911
2414.00,1.3980
2413.00,1.4081
2412.00,1.4209
2411.00,1.4359
2410.00,1.4526
2409.00,1.4709
2408.00,1.4905
2407.00,1.5114
2406.00,1.5335
2405.00,1.5568
2404.00,1.5814
2403.00,1.6073
2402.00,1.6346
2401.00,1.6634
2400.00,1.6935
2399.00,1.7246
2398.00,1.7565
2397.00,1.7890
2396.00,1.8218
2395.00,1.8551
2394.00,1.8887
2393.00,1.9227
2392.00,1.9566
2391.00,1.9901
2390.00,2.0226
2389.00,2.0542
2388.00,2.0847
2387.00,2.1141
2386.00,2.1422
2385.00,2.1690
2384.00,2.1946
2383.00,2.2190
2382.00,2.2423
2381.00,2.2647
2380.00,2.2867
2379.00,2.3090
2378.00,2.3315
2377.00,2.3541
2376.00,2.3759
2375.00,2.3964
2374.00,2.4155
2373.00,2.4335
2372.00,2.4510
2371.00,2.4684
2370.00,2.4858
2369.00,2.5031
2368.00,2.5194
2367.00,2.5342
2366.00,2.5477
2365.00,2.5603
2364.00,2.5723
2363.00,2.5843
2362.00,2.5966
2361.00,2.6094
2360.00,2.6222
2359.00,2.6340
2358.00,2.6438
2357.00,2.6505
2356.00,2.6538
2355.00,2.6555
2354.00,2.6589
2353.00,2.6664
2352.00,2.6756
2351.00,2.6821
2350.00,2.6844
2349.00,2.6846
2348.00,2.6862
2347.00,2.6896
2346.00,2.6936
2345.00,2.6967
2344.00,2.6976
2343.00,2.6956
2342.00,2.6907
2341.00,2.6852
2340.00,2.6816
2339.00,2.6800
2338.00,2.6778
2337.00,2.6734
2336.00,2.6670
2335.00,2.6600
2334.00,2.6529
2333.00,2.6454
2332.00,2.6366
2331.00,2.6263
2330.00,2.6149
2329.00,2.6029
2328.00,2.5910
2327.00,2.5792
2326.00,2.5681
2325.00,2.5576
2324.00,2.5473
2323.00,2.5359
2322.00,2.5225
2321.00,2.5072
2320.00,2.4909
2319.00,2.4740
2318.00,2.4560
2317.00,2.4362
2316.00,2.4147
2315.00,2.3923
2314.00,2.3695
2313.00,2.3464
2312.00,2.3221
2311.00,2.2960
2310.00,2.2676
2309.00,2.2371
2308.00,2.2048
2307.00,2.1714
2306.00,2.1378
2305.00,2.1055
2304.00,2.0763
2303.00,2.0524
2302.00,2.0365
2301.00,2.0313
2300.00,2.0394
2299.00,2.0620
2298.00,2.0991
2297.00,2.1484
2296.00,2.2061
2295.00,2.2661
2294.00,2.3209
2293.00,2.3622
2292.00,2.3828
2291.00,2.3787
2290.00,2.3505
2289.00,2.3031
2288.00,2.2432
2287.00,2.1760
2286.00,2.1053
2285.00,2.0333
2284.00,1.9619
2283.00,1.8931
2282.00,1.8291
2281.00,1.7724
2280.00,1.7258
2279.00,1.6915
2278.00,1.6712
2277.00,1.6656
2276.00,1.6744
2275.00,1.6966
2274.00,1.7304
2273.00,1.7736
2272.00,1.8243
2271.00,1.8805
2270.00,1.9413
2269.00,2.0064
2268.00,2.0753
2267.00,2.1478
2266.00,2.2230
2265.00,2.3001
2264.00,2.3785
2263.00,2.4584
2262.00,2.5408
2261.00,2.6271
2260.00,2.7187
2259.00,2.8189
2258.00,2.9338
2257.00,3.0707
2256.00,3.2353
2255.00,3.4249
2254.00,3.6124
2253.00,3.7222
2252.00,3.6733
2251.00,3.5039
2250.00,3.3032
2249.00,3.1110
2248.00,2.9351
2247.00,2.7718
2246.00,2.6164
2245.00,2.4677
2244.00,2.3280
2243.00,2.2016
2242.00,2.0932
2241.00,2.0069
2240.00,1.9447
2239.00,1.9071
2238.00,1.8924
2237.00,1.8977
2236.00,1.9191
2235.00,1.9525
2234.00,1.9939
2233.00,2.0401
2232.00,2.0884
2231.00,2.1369
2230.00,2.1846
2229.00,2.2311
2228.00,2.2759
2227.00,2.3185
2226.00,2.3582
2225.00,2.3947
2224.00,2.4281
2223.00,2.4589
2222.00,2.4876
2221.00,2.5149
2220.00,2.5408
2219.00,2.5647
2218.00,2.5858
2217.00,2.6037
2216.00,2.6200
2215.00,2.6364
2214.00,2.6536
2213.00,2.6702
2212.00,2.6847
2211.00,2.6969
2210.00,2.7082
2209.00,2.7198
2208.00,2.7316
2207.00,2.7424
2206.00,2.7513
2205.00,2.7592
2204.00,2.7675
2203.00,2.7765
2202.00,2.7844
2201.00,2.7885
2200.00,2.7892
2199.00,2.7891
2198.00,2.7911
2197.00,2.7955
2196.00,2.8003
2195.00,2.8035
2194.00,2.8042
2193.00,2.8035
2192.00,2.8030
2191.00,2.8038
2190.00,2.8052
2189.00,2.8053
2188.00,2.8025
2187.00,2.7971
2186.00,2.7913
2185.00,2.7866
2184.00,2.7835
2183.00,2.7810
2182.00,2.7780
2181.00,2.7737
2180.00,2.7681
2179.00,2.7617
2178.00,2.7549
2177.00,2.7483
2176.00,2.7414
2175.00,2.7335
2174.00,2.7239
2173.00,2.7125
2172.00,2.7003
2171.00,2.6889
2170.00,2.6790
2169.00,2.6696
2168.00,2.6588
2167.00,2.6454
2166.00,2.6292
2165.00,2.6117
2164.00,2.5944
2163.00,2.5778
2162.00,2.5614
2161.00,2.5441
2160.00,2.5252
2159.00,2.5047
2158.00,2.4827
2157.00,2.4593
2156.00,2.4345
2155.00,2.4081
2154.00,2.3802
2153.00,2.3509
2152.00,2.3205
2151.00,2.2891
2150.00,2.2563
2149.00,2.2211
2148.00,2.1833
2147.00,2.1431
2146.00,2.1009
2145.00,2.0568
2144.00,2.0103
2143.00,1.9612
2142.00,1.9096
2141.00,1.8558
2140.00,1.8004
2139.00,1.7441
2138.00,1.6875
2137.00,1.6317
2136.00,1.5775
2135.00,1.5262
2134.00,1.4789
2133.00,1.4367
2132.00,1.4003
2131.00,1.3705
2130.00,1.3479
2129.00,1.3333
2128.00,1.3271
2127.00,1.3294
2126.00,1.3401
2125.00,1.3585
2124.00,1.3838
2123.00,1.4151
2122.00,1.4513
2121.00,1.4912
2120.00,1.5339
2119.00,1.5785
2118.00,1.6245
2117.00,1.6712
2116.00,1.7183
2115.00,1.7653
2114.00,1.8121
2113.00,1.8584
2112.00,1.9042
2111.00,1.9494
2110.00,1.9941
2109.00,2.0382
2108.00,2.0816
2107.00,2.1239
2106.00,2.1650
2105.00,2.2048
2104.00,2.2432
2103.00,2.2802
2102.00,2.3160
2101.00,2.3503
2100.00,2.3829
2099.00,2.4135
2098.00,2.4426
2097.00,2.4707
2096.00,2.4979
2095.00,2.5237
2094.00,2.5482
2093.00,2.5716
2092.00,2.5938
2091.00,2.6144
2090.00,2.6337
2089.00,2.6522
2088.00,2.6699
2087.00,2.6861
2086.00,2.7000
2085.00,2.7121
2084.00,2.7238
2083.00,2.7361
2082.00,2.7497
2081.00,2.7639
2080.00,2.7775
2079.00,2.7897
2078.00,2.8006
2077.00,2.8112
2076.00,2.8216
2075.00,2.8312
2074.00,2.8396
2073.00,2.8468
2072.00,2.8526
2071.00,2.8571
2070.00,2.8616
2069.00,2.8676
2068.00,2.8752
2067.00,2.8827
2066.00,2.8887
2065.00,2.8937
2064.00,2.8990
2063.00,2.9041
2062.00,2.9079
2061.00,2.9100
2060.00,2.9107
2059.00,2.9098
2058.00,2.9067
2057.00,2.9024
2056.00,2.8998
2055.00,2.9012
2054.00,2.9056
2053.00,2.9096
2052.00,2.9101
2051.00,2.9062
2050.00,2.8992
2049.00,2.8913
2048.00,2.8852
2047.00,2.8822
2046.00,2.8810
2045.00,2.8791
2044.00,2.8752
2043.00,2.8704
2042.00,2.8656
2041.00,2.8604
2040.00,2.8531
2039.00,2.8432
2038.00,2.8318
2037.00,2.8210
2036.00,2.8120
2035.00,2.8044
2034.00,2.7963
2033.00,2.7859
2032.00,2.7728
2031.00,2.7583
2030.00,2.7440
2029.00,2.7303
2028.00,2.7171
2027.00,2.7039
2026.00,2.6902
2025.00,2.6752
2024.00,2.6585
2023.00,2.6401
2022.00,2.6206
2021.00,2.5998
2020.00,2.5777
2019.00,2.5545
2018.00,2.5301
2017.00,2.5047
2016.00,2.4783
2015.00,2.4508
2014.00,2.4217
2013.00,2.3902
2012.00,2.3563
2011.00,2.3206
2010.00,2.2836
2009.00,2.2450
2008.00,2.2040
2007.00,2.1605
2006.00,2.1142
2005.00,2.0650
2004.00,2.0128
2003.00,1.9583
2002.00,1.9021
2001.00,1.8448
2000.00,1.7870
1999.00,1.7294
1998.00,1.6731
1997.00,1.6197
1996.00,1.5703
1995.00,1.5262
1994.00,1.4886
1993.00,1.4582
1992.00,1.4352
1991.00,1.4198
1990.00,1.4129
1989.00,1.4150
1988.00,1.4260
1987.00,1.4450
1986.00,1.4709
1985.00,1.5029
1984.00,1.5402
1983.00,1.5815
1982.00,1.6256
1981.00,1.6716
1980.00,1.7189
1979.00,1.7670
1978.00,1.8153
1977.00,1.8633
1976.00,1.9107
1975.00,1.9574
1974.00,2.0037
1973.00,2.0495
1972.00,2.0949
1971.00,2.1395
1970.00,2.1834
1969.00,2.2270
1968.00,2.2700
1967.00,2.3116
1966.00,2.3510
1965.00,2.3885
1964.00,2.4246
1963.00,2.4592
1962.00,2.4917
1961.00,2.5220
1960.00,2.5504
1959.00,2.5778
1958.00,2.6043
1957.00,2.6295
1956.00,2.6525
1955.00,2.6734
1954.00,2.6929
1953.00,2.7123
1952.00,2.7321
1951.00,2.7520
1950.00,2.7708
1949.00,2.7879
1948.00,2.8034
1947.00,2.8179
1946.00,2.8325
1945.00,2.8472
1944.00,2.8614
1943.00,2.8743
1942.00,2.8852
1941.00,2.8947
1940.00,2.9039
1939.00,2.9136
1938.00,2.9240
1937.00,2.9348
1936.00,2.9446
1935.00,2.9524
1934.00,2.9590
1933.00,2.9664
1932.00,2.9759
1931.00,2.9863
1930.00,2.9953
1929.00,3.0015
1928.00,3.0057
1927.00,3.0077
1926.00,3.0070
1925.00,3.0044
1924.00,3.0035
1923.00,3.0075
1922.00,3.0146
1921.00,3.0195
1920.00,3.0184
1919.00,3.0125
1918.00,3.0065
1917.00,3.0040
1916.00,3.0054
1915.00,3.0093
1914.00,3.0136
1913.00,3.0173
1912.00,3.0206
1911.00,3.0235
1910.00,3.0255
1909.00,3.0250
1908.00,3.0211
1907.00,3.0138
1906.00,3.0038
1905.00,2.9926
1904.00,2.9826
1903.00,2.9746
1902.00,2.9660
1901.00,2.9546
1900.00,2.9414
1899.00,2.9306
1898.00,2.9242
1897.00,2.9198
1896.00,2.9130
1895.00,2.9017
1894.00,2.8869
1893.00,2.8712
1892.00,2.8572
1891.00,2.8459
1890.00,2.8359
1889.00,2.8236
1888.00,2.8071
1887.00,2.7878
1886.00,2.7676
1885.00,2.7474
1884.00,2.7269
1883.00,2.7063
1882.00,2.6854
1881.00,2.6634
1880.00,2.6395
1879.00,2.6139
1878.00,2.5868
1877.00,2.5583
1876.00,2.5284
1875.00,2.4976
1874.00,2.4659
1873.00,2.4325
1872.00,2.3962
1871.00,2.3565
1870.00,2.3139
1869.00,2.2697
1868.00,2.2239
1867.00,2.1759
1866.00,2.1250
1865.00,2.0708
1864.00,2.0136
1863.00,1.9544
1862.00,1.8944
1861.00,1.8348
1860.00,1.7768
1859.00,1.7215
1858.00,1.6703
1857.00,1.6247
1856.00,1.5863
1855.00,1.5562
1854.00,1.5354
1853.00,1.5245
1852.00,1.5239
1851.00,1.5332
1850.00,1.5523
1849.00,1.5802
1848.00,1.6140
1847.00,1.6503
1846.00,1.6881
1845.00,1.7311
1844.00,1.7828
1843.00,1.8407
1842.00,1.8983
1841.00,1.9517
1840.00,2.0021
1839.00,2.0517
1838.00,2.1013
1837.00,2.1501
1836.00,2.1979
1835.00,2.2445
1834.00,2.2895
1833.00,2.3319
1832.00,2.3714
1831.00,2.4103
1830.00,2.4507
1829.00,2.4919
1828.00,2.5312
1827.00,2.5669
1826.00,2.5995
1825.00,2.6309
1824.00,2.6612
1823.00,2.6890
1822.00,2.7141
1821.00,2.7381
1820.00,2.7616
1819.00,2.7840
1818.00,2.8054
1817.00,2.8273
1816.00,2.8504
1815.00,2.8728
1814.00,2.8928
1813.00,2.9105
1812.00,2.9268
1811.00,2.9407
1810.00,2.9519
1809.00,2.9619
1808.00,2.9728
1807.00,2.9847
1806.00,2.9972
1805.00,3.0108
1804.00,3.0248
1803.00,3.0372
1802.00,3.0468
1801.00,3.0549
1800.00,3.0629
1799.00,3.0715
1798.00,3.0811
1797.00,3.0919
1796.00,3.1017
1795.00,3.1073
1794.00,3.1097
1793.00,3.1145
1792.00,3.1249
1791.00,3.1357
1790.00,3.1402
1789.00,3.1382
1788.00,3.1331
1787.00,3.1285
1786.00,3.1275
1785.00,3.1318
1784.00,3.1395
1783.00,3.1459
1782.00,3.1476
1781.00,3.1445
1780.00,3.1377
1779.00,3.1292
1778.00,3.1227
1777.00,3.1206
1776.00,3.1193
1775.00,3.1123
1774.00,3.0983
1773.00,3.0852
1772.00,3.0805
1771.00,3.0819
1770.00,3.0831
1769.00,3.0814
1768.00,3.0775
1767.00,3.0709
1766.00,3.0607
1765.00,3.0476
1764.00,3.0325
1763.00,3.0165
1762.00,3.0013
1761.00,2.9884
1760.00,2.9773
1759.00,2.9650
1758.00,2.9495
1757.00,2.9328
1756.00,2.9172
1755.00,2.9024
1754.00,2.8862
1753.00,2.8678
1752.00,2.8483
1751.00,2.8278
1750.00,2.8043
1749.00,2.7765
1748.00,2.7468
1747.00,2.7185
1746.00,2.6931
1745.00,2.6695
1744.00,2.6454
1743.00,2.6177
1742.00,2.5852
1741.00,2.5499
1740.00,2.5169
1739.00,2.4894
1738.00,2.4652
1737.00,2.4400
1736.00,2.4119
1735.00,2.3842
1734.00,2.3640
1733.00,2.3537
1732.00,2.3509
1731.00,2.3543
1730.00,2.3649
1729.00,2.3848
1728.00,2.4151
1727.00,2.4563
1726.00,2.5077
1725.00,2.5678
1724.00,2.6348
1723.00,2.7071
1722.00,2.7829
1721.00,2.8600
1720.00,2.9387
1719.00,3.0255
1718.00,3.1257
1717.00,3.2301
1716.00,3.3245
1715.00,3.4159
1714.00,3.5233
1713.00,3.6475
1712.00,3.7632
1711.00,3.8456
1710.00,3.8994
1709.00,3.9313
1708.00,3.9305
1707.00,3.8981
1706.00,3.8352
1705.00,3.7312
1704.00,3.6029
1703.00,3.4762
1702.00,3.3494
1701.00,3.2077
1700.00,3.0683
1699.00,2.9592
1698.00,2.8731
1697.00,2.7824
1696.00,2.6731
1695.00,2.5574
1694.00,2.4554
1693.00,2.3709
1692.00,2.2996
1691.00,2.2409
1690.00,2.1975
1689.00,2.1705
1688.00,2.1574
1687.00,2.1554
1686.00,2.1642
1685.00,2.1907
1684.00,2.2397
1683.00,2.3002
1682.00,2.3610
1681.00,2.4194
1680.00,2.4733
1679.00,2.5194
1678.00,2.5548
1677.00,2.5825
1676.00,2.6108
1675.00,2.6471
1674.00,2.6898
1673.00,2.7309
1672.00,2.7655
1671.00,2.7948
1670.00,2.8239
1669.00,2.8568
1668.00,2.8928
1667.00,2.9260
1666.00,2.9509
1665.00,2.9688
1664.00,2.9877
1663.00,3.0135
1662.00,3.0437
1661.00,3.0712
1660.00,3.0923
1659.00,3.1071
1658.00,3.1166
1657.00,3.1221
1656.00,3.1250
1655.00,3.1266
1654.00,3.1327
1653.00,3.1481
1652.00,3.1689
1651.00,3.1880
1650.00,3.1968
1649.00,3.1975
1648.00,3.1996
1647.00,3.2055
1646.00,3.2138
1645.00,3.2264
1644.00,3.2447
1643.00,3.2629
1642.00,3.2768
1641.00,3.2872
1640.00,3.2963
1639.00,3.3041
1638.00,3.3058
1637.00,3.2967
1636.00,3.2781
1635.00,3.2593
1634.00,3.2541
1633.00,3.2653
1632.00,3.2837
1631.00,3.3002
1630.00,3.3091
1629.00,3.3105
1628.00,3.3082
1627.00,3.3032
1626.00,3.2924
1625.00,3.2741
1624.00,3.2544
1623.00,3.2430
1622.00,3.2429
1621.00,3.2460
1620.00,3.2424
1619.00,3.2296
1618.00,3.2135
1617.00,3.2013
1616.00,3.1950
1615.00,3.1915
1614.00,3.1873
1613.00,3.1803
1612.00,3.1698
1611.00,3.1575
1610.00,3.1469
1609.00,3.1399
1608.00,3.1336
1607.00,3.1225
1606.00,3.1054
1605.00,3.0878
1604.00,3.0753
1603.00,3.0683
1602.00,3.0605
1601.00,3.0443
1600.00,3.0179
1599.00,2.9863
1598.00,2.9562
1597.00,2.9308
1596.00,2.9090
1595.00,2.8874
1594.00,2.8619
1593.00,2.8310
1592.00,2.7969
1591.00,2.7633
1590.00,2.7312
1589.00,2.6983
1588.00,2.6621
1587.00,2.6220
1586.00,2.5796
1585.00,2.5364
1584.00,2.4929
1583.00,2.4496
1582.00,2.4068
1581.00,2.3647
1580.00,2.3235
1579.00,2.2834
1578.00,2.2438
1577.00,2.2039
1576.00,2.1648
1575.00,2.1305
1574.00,2.1040
1573.00,2.0835
1572.00,2.0660
1571.00,2.0536
1570.00,2.0522
1569.00,2.0643
1568.00,2.0863
1567.00,2.1140
1566.00,2.1454
1565.00,2.1806
1564.00,2.2181
1563.00,2.2529
1562.00,2.2809
1561.00,2.3007
1560.00,2.3259
1559.00,2.3757
1558.00,2.4379
1557.00,2.4974
1556.00,2.5527
1555.00,2.6004
1554.00,2.6459
1553.00,2.6904
1552.00,2.7332
1551.00,2.7727
1550.00,2.8090
1549.00,2.8412
1548.00,2.8674
1547.00,2.8888
1546.00,2.9101
1545.00,2.9360
1544.00,2.9625
1543.00,2.9800
1542.00,2.9870
1541.00,2.9950
1540.00,3.0149
1539.00,3.0470
1538.00,3.0875
1537.00,3.1267
1536.00,3.1553
1535.00,3.1745
1534.00,3.1918
1533.00,3.2139
1532.00,3.2405
1531.00,3.2660
1530.00,3.2836
1529.00,3.2908
1528.00,3.2909
1527.00,3.2885
1526.00,3.2877
1525.00,3.2929
1524.00,3.3060
1523.00,3.3258
1522.00,3.3497
1521.00,3.3724
1520.00,3.3882
1519.00,3.3964
1518.00,3.3992
1517.00,3.3993
1516.00,3.3971
1515.00,3.3949
1514.00,3.3989
1513.00,3.4124
1512.00,3.4308
1511.00,3.4435
1510.00,3.4471
1509.00,3.4483
1508.00,3.4530
1507.00,3.4546
1506.00,3.4434
1505.00,3.4341
1504.00,3.4335
1503.00,3.4272
1502.00,3.4116
1501.00,3.3957
1500.00,3.3902
1499.00,3.3974
1498.00,3.4102
1497.00,3.4197
1496.00,3.4247
1495.00,3.4311
1494.00,3.4401
1493.00,3.4448
1492.00,3.4411
1491.00,3.4342
1490.00,3.4306
1489.00,3.4304
1488.00,3.4306
1487.00,3.4309
1486.00,3.4329
1485.00,3.4338
1484.00,3.4267
1483.00,3.4094
1482.00,3.3875
1481.00,3.3687
1480.00,3.3567
1479.00,3.3503
1478.00,3.3463
1477.00,3.3402
1476.00,3.3265
1475.00,3.3030
1474.00,3.2769
1473.00,3.2614
1472.00,3.2632
1471.00,3.2773
1470.00,3.2926
1469.00,3.3006
1468.00,3.3004
1467.00,3.2964
1466.00,3.2948
1465.00,3.2997
1464.00,3.3086
1463.00,3.3153
1462.00,3.3186
1461.00,3.3232
1460.00,3.3351
1459.00,3.3579
1458.00,3.3911
1457.00,3.4311
1456.00,3.4749
1455.00,3.5239
1454.00,3.5788
1453.00,3.6389
1452.00,3.6928
1451.00,3.7138
1450.00,3.6933
1449.00,3.6560
1448.00,3.6259
1447.00,3.6043
1446.00,3.5833
1445.00,3.5604
1444.00,3.5425
1443.00,3.5405
1442.00,3.5598
1441.00,3.5946
1440.00,3.6284
1439.00,3.6407
1438.00,3.6199
1437.00,3.5797
1436.00,3.5494
1435.00,3.5464
1434.00,3.5645
1433.00,3.5824
1432.00,3.5808
1431.00,3.5596
1430.00,3.5354
1429.00,3.5200
1428.00,3.5135
1427.00,3.5122
1426.00,3.5137
1425.00,3.5132
1424.00,3.5014
1423.00,3.4770
1422.00,3.4535
1421.00,3.4444
1420.00,3.4502
1419.00,3.4597
1418.00,3.4605
1417.00,3.4510
1416.00,3.4358
1415.00,3.4173
1414.00,3.3991
1413.00,3.3866
1412.00,3.3798
1411.00,3.3726
1410.00,3.3603
1409.00,3.3432
1408.00,3.3215
1407.00,3.2930
1406.00,3.2602
1405.00,3.2324
1404.00,3.2181
1403.00,3.2169
1402.00,3.2220
1401.00,3.2264
1400.00,3.2276
1399.00,3.2245
1398.00,3.2171
1397.00,3.2110
1396.00,3.2140
1395.00,3.2281
1394.00,3.2463
1393.00,3.2613
1392.00,3.2764
1391.00,3.3004
1390.00,3.3358
1389.00,3.3756
1388.00,3.4099
1387.00,3.4385
1386.00,3.4683
1385.00,3.5003
1384.00,3.5289
1383.00,3.5584
1382.00,3.6063
1381.00,3.6848
1380.00,3.7880
1379.00,3.8854
1378.00,3.9345
1377.00,3.9270
1376.00,3.8773
1375.00,3.7968
1374.00,3.7042
1373.00,3.6175
1372.00,3.5431
1371.00,3.4799
1370.00,3.4262
1369.00,3.3840
1368.00,3.3564
1367.00,3.3456
1366.00,3.3520
1365.00,3.3737
1364.00,3.4046
1363.00,3.4326
1362.00,3.4458
1361.00,3.4448
1360.00,3.4434
1359.00,3.4538
1358.00,3.4766
1357.00,3.5019
1356.00,3.5217
1355.00,3.5400
1354.00,3.5682
1353.00,3.6092
1352.00,3.6526
1351.00,3.6843
1350.00,3.7016
1349.00,3.7098
1348.00,3.7081
1347.00,3.6949
1346.00,3.6778
1345.00,3.6680
1344.00,3.6677
1343.00,3.6724
1342.00,3.6798
1341.00,3.6877
1340.00,3.6917
1339.00,3.6897
1338.00,3.6851
1337.00,3.6820
1336.00,3.6796
1335.00,3.6772
1334.00,3.6826
1333.00,3.7040
1332.00,3.7320
1331.00,3.7398
1330.00,3.7140
1329.00,3.6658
1328.00,3.6110
1327.00,3.5618
1326.00,3.5299
1325.00,3.5239
1324.00,3.5417
1323.00,3.5703
1322.00,3.5967
1321.00,3.6200
1320.00,3.6472
1319.00,3.6732
1318.00,3.6750
1317.00,3.6377
1316.00,3.5800
1315.00,3.5348
1314.00,3.5203
1313.00,3.5350
1312.00,3.5640
1311.00,3.5909
1310.00,3.6060
1309.00,3.6034
1308.00,3.5822
1307.00,3.5491
1306.00,3.5147
1305.00,3.4866
1304.00,3.4648
1303.00,3.4451
1302.00,3.4244
1301.00,3.4024
1300.00,3.3789
1299.00,3.3541
1298.00,3.3297
1297.00,3.3079
1296.00,3.2890
1295.00,3.2721
1294.00,3.2549
1293.00,3.2332
1292.00,3.2032
1291.00,3.1665
1290.00,3.1285
1289.00,3.0915
1288.00,3.0526
1287.00,3.0073
1286.00,2.9552
1285.00,2.8996
1284.00,2.8438
1283.00,2.7907
1282.00,2.7424
1281.00,2.6990
1280.00,2.6589
1279.00,2.6211
1278.00,2.5863
1277.00,2.5552
1276.00,2.5268
1275.00,2.4989
1274.00,2.4706
1273.00,2.4428
1272.00,2.4172
1271.00,2.3960
1270.00,2.3823
1269.00,2.3785
1268.00,2.3845
1267.00,2.3982
1266.00,2.4165
1265.00,2.4385
1264.00,2.4654
1263.00,2.4994
1262.00,2.5415
1261.00,2.5905
1260.00,2.6434
1259.00,2.6960
1258.00,2.7463
1257.00,2.7962
1256.00,2.8485
1255.00,2.9032
1254.00,2.9571
1253.00,3.0074
1252.00,3.0552
1251.00,3.1028
1250.00,3.1506
1249.00,3.1961
1248.00,3.2347
1247.00,3.2644
1246.00,3.2898
1245.00,3.3210
1244.00,3.3643
1243.00,3.4171
1242.00,3.4712
1241.00,3.5193
1240.00,3.5559
1239.00,3.5723
1238.00,3.5651
1237.00,3.5488
1236.00,3.5433
1235.00,3.5567
1234.00,3.5873
1233.00,3.6328
1232.00,3.6899
1231.00,3.7472
1230.00,3.7879
1229.00,3.8058
1228.00,3.8094
1227.00,3.8110
1226.00,3.8265
1225.00,3.8724
1224.00,3.9405
1223.00,3.9750
1222.00,3.9318
1221.00,3.8482
1220.00,3.7742
1219.00,3.7268
1218.00,3.7086
1217.00,3.7230
1216.00,3.7672
1215.00,3.8148
1214.00,3.8349
1213.00,3.8391
1212.00,3.8620
1211.00,3.9004
1210.00,3.9072
1209.00,3.8781
1208.00,3.8635
1207.00,3.8775
1206.00,3.8767
1205.00,3.8315
1204.00,3.7888
1203.00,3.7919
1202.00,3.8339
1201.00,3.8820
1200.00,3.9054
1199.00,3.8939
1198.00,3.8683
1197.00,3.8511
1196.00,3.8406
1195.00,3.8204
1194.00,3.7813
1193.00,3.7344
1192.00,3.6962
1191.00,3.6707
1190.00,3.6544
1189.00,3.6553
1188.00,3.6841
1187.00,3.7344
1186.00,3.7803
1185.00,3.8046
1184.00,3.8162
1183.00,3.7993
1182.00,3.7327
1181.00,3.6519
1180.00,3.5971
1179.00,3.5743
1178.00,3.5652
1177.00,3.5538
1176.00,3.5478
1175.00,3.5647
1174.00,3.6035
1173.00,3.6392
1172.00,3.6505
1171.00,3.6476
1170.00,3.6519
1169.00,3.6673
1168.00,3.6840
1167.00,3.6903
1166.00,3.6825
1165.00,3.6617
1164.00,3.6215
1163.00,3.5614
1162.00,3.5019
1161.00,3.4677
1160.00,3.4649
1159.00,3.4756
1158.00,3.4704
1157.00,3.4368
1156.00,3.3925
1155.00,3.3613
1154.00,3.3479
1153.00,3.3339
1152.00,3.2961
1151.00,3.2340
1150.00,3.1676
1149.00,3.1122
1148.00,3.0681
1147.00,3.0270
1146.00,2.9815
1145.00,2.9297
1144.00,2.8736
1143.00,2.8177
1142.00,2.7673
1141.00,2.7259
1140.00,2.6942
1139.00,2.6713
1138.00,2.6569
1137.00,2.6518
1136.00,2.6570
1135.00,2.6733
1134.00,2.7018
1133.00,2.7431
1132.00,2.7959
1131.00,2.8554
1130.00,2.9155
1129.00,2.9740
1128.00,3.0357
1127.00,3.1084
1126.00,3.1967
1125.00,3.2979
1124.00,3.3986
1123.00,3.4789
1122.00,3.5269
1121.00,3.5497
1120.00,3.5547
1119.00,3.5373
1118.00,3.4996
1117.00,3.4608
1116.00,3.4421
1115.00,3.4543
1114.00,3.4945
1113.00,3.5495
1112.00,3.6042
1111.00,3.6547
1110.00,3.7120
1109.00,3.7806
1108.00,3.8468
1107.00,3.9030
1106.00,3.9624
1105.00,4.0269
1104.00,4.0487
1103.00,3.9812
1102.00,3.8645
1101.00,3.7741
1100.00,3.7586
1099.00,3.8330
1098.00,3.9790
1097.00,4.1203
1096.00,4.1539
1095.00,4.1045
1094.00,4.0637
1093.00,4.0668
1092.00,4.0930
1091.00,4.0912
1090.00,4.0302
1089.00,3.9557
1088.00,3.9072
1087.00,3.9199
1086.00,4.0033
1085.00,4.2750
1084.00,4.7668
1083.00,4.3179
1082.00,4.2158
1081.00,4.5300
1080.00,4.8103
1079.00,4.2995
1078.00,4.2091
1077.00,4.2668
1076.00,4.3859
1075.00,4.5282
1074.00,4.3599
1073.00,4.2979
1072.00,4.5734
1071.00,4.7622
1070.00,4.4137
1069.00,4.3820
1068.00,4.4958
1067.00,4.4562
1066.00,4.2913
1065.00,4.2186
1064.00,4.4264
1063.00,4.7885
1062.00,4.2755
1061.00,4.1087
1060.00,4.1241
1059.00,4.2584
1058.00,4.5999
1057.00,4.8251
1056.00,4.7334
1055.00,4.6978
1054.00,4.3326
1053.00,4.1519
1052.00,4.1338
1051.00,4.1733
1050.00,4.2220
1049.00,4.2587
1048.00,4.2650
1047.00,4.1881
1046.00,4.0784
1045.00,4.0026
1044.00,3.9757
1043.00,4.0001
1042.00,4.0749
1041.00,4.1849
1040.00,4.3061
1039.00,4.4325
1038.00,4.3850
1037.00,4.1722
1036.00,4.0587
1035.00,4.0708
1034.00,4.1510
1033.00,4.1933
1032.00,4.1745
1031.00,4.2574
1030.00,4.6208
1029.00,4.4641
1028.00,4.1104
1027.00,4.0225
1026.00,4.0935
1025.00,4.2658
1024.00,4.2824
1023.00,4.1506
1022.00,4.0828
1021.00,4.0783
1020.00,4.1000
1019.00,4.1115
1018.00,4.1284
1017.00,4.1345
1016.00,4.0933
1015.00,4.0369
1014.00,3.9805
1013.00,3.9304
1012.00,3.9285
1011.00,3.9967
1010.00,4.0560
1009.00,4.0176
1008.00,3.9337
1007.00,3.8494
1006.00,3.7994
1005.00,3.7925
1004.00,3.7957
1003.00,3.7715
1002.00,3.7323
1001.00,3.7204
1000.00,3.7594
999.00,3.8374
998.00,3.8767
997.00,3.7924
996.00,3.6530
995.00,3.5437
994.00,3.4802
993.00,3.4475
992.00,3.4241
991.00,3.3983
990.00,3.3719
989.00,3.3493
988.00,3.3318
987.00,3.3228
986.00,3.3310
985.00,3.3624
984.00,3.4084
983.00,3.4475
982.00,3.4715
981.00,3.5007
980.00,3.5622
979.00,3.6672
978.00,3.8004
977.00,3.9099
976.00,3.9442
975.00,3.9193
974.00,3.8857
973.00,3.8839
972.00,3.9229
971.00,3.9820
970.00,4.0371
969.00,4.0463
968.00,4.0172
967.00,4.0159
966.00,4.0366
965.00,4.0418
964.00,4.0472
963.00,4.0537
962.00,4.0178
961.00,3.9515
960.00,3.9058
959.00,3.8980
958.00,3.9062
957.00,3.9211
956.00,3.9841
955.00,4.1274
954.00,4.3358
953.00,4.5094
952.00,4.5901
951.00,4.7257
950.00,4.8833
949.00,5.0040
948.00,4.7752
947.00,4.4155
946.00,4.2845
945.00,4.2902
944.00,4.3415
943.00,4.3462
942.00,4.2541
941.00,4.1451
940.00,4.1008
939.00,4.1439
938.00,4.2331
937.00,4.3810
936.00,4.6140
935.00,4.4186
934.00,4.2256
933.00,4.1431
932.00,4.0324
931.00,3.9139
930.00,3.8470
929.00,3.8573
928.00,3.9479
927.00,4.1126
926.00,4.2734
925.00,4.2789
924.00,4.2456
923.00,4.2198
922.00,4.0866
921.00,3.9382
920.00,3.8982
919.00,3.9925
918.00,4.2835
917.00,4.8415
916.00,4.5704
915.00,4.3194
914.00,4.1510
913.00,4.0407
912.00,4.0235
911.00,4.0941
910.00,4.2185
909.00,4.2753
908.00,4.2057
907.00,4.1081
906.00,4.0915
905.00,4.1873
904.00,4.4838
903.00,5.0503
902.00,4.5442
901.00,4.4235
900.00,4.4474
899.00,4.4624
898.00,4.4558
897.00,4.3429
896.00,4.1563
895.00,3.9996
894.00,3.9250
893.00,3.9289
892.00,3.9417
891.00,3.8720
890.00,3.7898
889.00,3.7741
888.00,3.8302
887.00,3.9242
886.00,4.0361
885.00,4.1247
884.00,4.0410
883.00,3.9292
882.00,3.9211
881.00,4.0267
880.00,4.1753
879.00,4.1658
878.00,4.0635
877.00,3.9704
876.00,3.9007
875.00,3.8664
874.00,3.8612
873.00,3.8795
872.00,3.9318
871.00,4.0619
870.00,4.3226
869.00,4.4026
868.00,4.2071
867.00,4.1476
866.00,4.2044
865.00,4.3955
864.00,4.7925
863.00,4.5813
862.00,4.2107
861.00,4.0690
860.00,4.0598
859.00,4.1015
858.00,4.0960
857.00,4.0326
856.00,3.9490
855.00,3.8605
854.00,3.7917
853.00,3.7577
852.00,3.7630
851.00,3.8207
850.00,3.9442
849.00,4.1129
848.00,4.2321
847.00,4.1299
846.00,3.9544
845.00,3.8807
844.00,3.8932
843.00,3.9390
842.00,3.9951
841.00,4.0507
840.00,4.0662
839.00,4.0264
838.00,3.9825
837.00,3.9848
836.00,4.0416
835.00,4.1425
834.00,4.2491
833.00,4.2665
832.00,4.2623
831.00,4.2812
830.00,4.1918
829.00,4.0822
828.00,4.0458
827.00,4.0343
826.00,3.9774
825.00,3.8796
824.00,3.7987
823.00,3.7657
822.00,3.7776
821.00,3.8214
820.00,3.8845
819.00,3.9536
818.00,4.0026
817.00,3.9993
816.00,3.9503
815.00,3.9104
814.00,3.9250
813.00,4.0048
812.00,4.1382
811.00,4.2853
810.00,4.3744
809.00,4.3526
808.00,4.2498
807.00,4.1666
806.00,4.1981
805.00,4.3118
804.00,4.2423
803.00,4.0636
802.00,3.9643
801.00,3.9595
800.00,4.0355
799.00,4.1440
798.00,4.1522
797.00,4.1135
796.00,4.1546
795.00,4.3588
794.00,4.5511
793.00,4.1304
792.00,3.8977
791.00,3.8330
790.00,3.9010
789.00,3.9994
788.00,3.9199
787.00,3.8079
786.00,3.7658
785.00,3.8001
784.00,3.9148
783.00,4.0789
782.00,4.1614
781.00,4.1340
780.00,4.1216
779.00,4.1549
778.00,4.1725
777.00,4.0855
776.00,3.9424
775.00,3.8352
774.00,3.7996
773.00,3.8263
772.00,3.8920
771.00,3.9926
770.00,4.1868
769.00,4.5046
768.00,4.7853
767.00,4.8936
766.00,4.3892
765.00,4.2239
764.00,4.1653
763.00,4.1142
762.00,4.2472
761.00,4.6829
760.00,4.7450
759.00,5.0293
758.00,4.3890
757.00,4.1583
756.00,4.1274
755.00,4.0920
754.00,3.9700
753.00,3.8504
752.00,3.8115
751.00,3.8632
750.00,3.9738
749.00,4.0053
748.00,3.9340
747.00,3.9276
746.00,4.0201
745.00,4.0999
744.00,4.0730
743.00,3.9614
742.00,3.8001
741.00,3.7041
740.00,3.7086
739.00,3.7955
738.00,3.9293
737.00,4.0484
736.00,4.1105
735.00,4.1890
734.00,4.3677
733.00,4.6276
732.00,4.4330
731.00,4.0387
730.00,3.8381
729.00,3.7837
728.00,3.8298
727.00,3.9054
726.00,3.8988
725.00,3.8411
724.00,3.8681
723.00,4.0252
722.00,4.1851
721.00,4.2478
720.00,4.5800
719.00,4.7002
718.00,4.1090
717.00,3.9465
716.00,3.9277
715.00,4.0210
714.00,4.2978
713.00,4.3980
712.00,4.2627
711.00,4.5811
710.00,4.4199
709.00,3.9969
708.00,3.8898
707.00,3.9124
706.00,3.9685
705.00,3.9778
704.00,3.9467
703.00,3.9162
702.00,3.8965
701.00,3.9305
700.00,4.0404
