Created as New Dataset,Sample 008 By Administrator Date Wednesday, November 24 2021
cm-1,A
7502.00,0.5647
7501.00,0.5604
7500.00,0.5561
7499.00,0.5519
7498.00,0.5477
7497.00,0.5435
7496.00,0.5394
7495.00,0.5353
7494.00,0.5313
7493.00,0.5272
7492.00,0.5230
7491.00,0.5186
7490.00,0.5146
7489.00,0.5111
7488.00,0.5081
7487.00,0.5053
7486.00,0.5029
7485.00,0.5012
7484.00,0.5002
7483.00,0.4998
7482.00,0.4997
7481.00,0.5000
7480.00,0.5007
7479.00,0.5019
7478.00,0.5036
7477.00,0.5058
7476.00,0.5084
7475.00,0.5112
7474.00,0.5141
7473.00,0.5172
7472.00,0.5208
7471.00,0.5248
7470.00,0.5291
7469.00,0.5337
7468.00,0.5386
7467.00,0.5441
7466.00,0.5500
7465.00,0.5564
7464.00,0.5630
7463.00,0.5700
7462.00,0.5777
7461.00,0.5859
7460.00,0.5942
7459.00,0.6025
7458.00,0.6106
7457.00,0.6188
7456.00,0.6271
7455.00,0.6355
7454.00,0.6438
7453.00,0.6522
7452.00,0.6608
7451.00,0.6695
7450.00,0.6782
7449.00,0.6870
7448.00,0.6958
7447.00,0.7045
7446.00,0.7130
7445.00,0.7213
7444.00,0.7298
7443.00,0.7383
7442.00,0.7467
7441.00,0.7547
7440.00,0.7627
7439.00,0.7707
7438.00,0.7788
7437.00,0.7868
7436.00,0.7944
7435.00,0.8016
7434.00,0.8088
7433.00,0.8162
7432.00,0.8237
7431.00,0.8311
7430.00,0.8382
7429.00,0.8446
7428.00,0.8507
7427.00,0.8566
7426.00,0.8624
7425.00,0.8678
7424.00,0.8724
7423.00,0.8766
7422.00,0.8812
7421.00,0.8865
7420.00,0.8920
7419.00,0.8964
7418.00,0.8992
7417.00,0.9007
7416.00,0.9020
7415.00,0.9035
7414.00,0.9051
7413.00,0.9064
7412.00,0.9069
7411.00,0.9070
7410.00,0.9073
7409.00,0.9082
7408.00,0.9088
7407.00,0.9084
7406.00,0.9069
7405.00,0.9054
7404.00,0.9048
7403.00,0.9047
7402.00,0.9042
7401.00,0.9021
7400.00,0.8986
7399.00,0.8942
7398.00,0.8894
7397.00,0.8844
7396.00,0.8790
7395.00,0.8733
7394.00,0.8674
7393.00,0.8617
7392.00,0.8567
7391.00,0.8524
7390.00,0.8482
7389.00,0.8432
7388.00,0.8373
7387.00,0.8315
7386.00,0.8264
7385.00,0.8219
7384.00,0.8173
7383.00,0.8122
7382.00,0.8070
7381.00,0.8022
7380.00,0.7978
7379.00,0.7932
7378.00,0.7877
7377.00,0.7811
7376.00,0.7734
7375.00,0.7652
7374.00,0.7569
7373.00,0.7488
7372.00,0.7405
7371.00,0.7322
7370.00,0.7240
7369.00,0.7166
7368.00,0.7100
7367.00,0.7042
7366.00,0.6987
7365.00,0.6931
7364.00,0.6874
7363.00,0.6819
7362.00,0.6768
7361.00,0.6718
7360.00,0.6668
7359.00,0.6618
7358.00,0.6571
7357.00,0.6528
7356.00,0.6486
7355.00,0.6442
7354.00,0.6402
7353.00,0.6369
7352.00,0.6340
7351.00,0.6310
7350.00,0.6277
7349.00,0.6244
7348.00,0.6214
7347.00,0.6185
7346.00,0.6157
7345.00,0.6130
7344.00,0.6106
7343.00,0.6085
7342.00,0.6072
7341.00,0.6066
7340.00,0.6068
7339.00,0.6076
7338.00,0.6087
7337.00,0.6102
7336.00,0.6120
7335.00,0.6138
7334.00,0.6156
7333.00,0.6178
7332.00,0.6206
7331.00,0.6241
7330.00,0.6282
7329.00,0.6330
7328.00,0.6384
7327.00,0.6442
7326.00,0.6504
7325.00,0.6569
7324.00,0.6635
7323.00,0.6698
7322.00,0.6763
7321.00,0.6830
7320.00,0.6903
7319.00,0.6980
7318.00,0.7059
7317.00,0.7139
7316.00,0.7219
7315.00,0.7295
7314.00,0.7371
7313.00,0.7449
7312.00,0.7532
7311.00,0.7617
7310.00,0.7702
7309.00,0.7787
7308.00,0.7877
7307.00,0.7970
7306.00,0.8064
7305.00,0.8158
7304.00,0.8252
7303.00,0.8344
7302.00,0.8435
7301.00,0.8525
7300.00,0.8614
7299.00,0.8703
7298.00,0.8791
7297.00,0.8877
7296.00,0.8960
7295.00,0.9041
7294.00,0.9118
7293.00,0.9192
7292.00,0.9264
7291.00,0.9337
7290.00,0.9408
7289.00,0.9474
7288.00,0.9531
7287.00,0.9584
7286.00,0.9640
7285.00,0.9704
7284.00,0.9772
7283.00,0.9837
7282.00,0.9894
7281.00,0.9947
7280.00,1.0000
7279.00,1.0053
7278.00,1.0103
7277.00,1.0145
7276.00,1.0178
7275.00,1.0207
7274.00,1.0241
7273.00,1.0281
7272.00,1.0324
7271.00,1.0360
7270.00,1.0387
7269.00,1.0410
7268.00,1.0431
7267.00,1.0453
7266.00,1.0469
7265.00,1.0475
7264.00,1.0474
7263.00,1.0469
7262.00,1.0464
7261.00,1.0462
7260.00,1.0460
7259.00,1.0458
7258.00,1.0453
7257.00,1.0440
7256.00,1.0419
7255.00,1.0387
7254.00,1.0348
7253.00,1.0303
7252.00,1.0256
7251.00,1.0209
7250.00,1.0167
7249.00,1.0128
7248.00,1.0087
7247.00,1.0040
7246.00,0.9986
7245.00,0.9927
7244.00,0.9862
7243.00,0.9795
7242.00,0.9727
7241.00,0.9660
7240.00,0.9595
7239.00,0.9531
7238.00,0.9463
7237.00,0.9389
7236.00,0.9307
7235.00,0.9221
7234.00,0.9136
7233.00,0.9052
7232.00,0.8968
7231.00,0.8883
7230.00,0.8800
7229.00,0.8719
7228.00,0.8638
7227.00,0.8554
7226.00,0.8469
7225.00,0.8385
7224.00,0.8303
7223.00,0.8221
7222.00,0.8139
7221.00,0.8059
7220.00,0.7977
7219.00,0.7896
7218.00,0.7817
7217.00,0.7742
7216.00,0.7671
7215.00,0.7602
7214.00,0.7536
7213.00,0.7472
7212.00,0.7409
7211.00,0.7347
7210.00,0.7290
7209.00,0.7238
7208.00,0.7191
7207.00,0.7145
7206.00,0.7102
7205.00,0.7066
7204.00,0.7038
7203.00,0.7013
7202.00,0.6991
7201.00,0.6971
7200.00,0.6953
7199.00,0.6941
7198.00,0.6933
7197.00,0.6932
7196.00,0.6935
7195.00,0.6942
7194.00,0.6955
7193.00,0.6974
7192.00,0.6997
7191.00,0.7022
7190.00,0.7050
7189.00,0.7084
7188.00,0.7124
7187.00,0.7168
7186.00,0.7217
7185.00,0.7272
7184.00,0.7331
7183.00,0.7390
7182.00,0.7448
7181.00,0.7507
7180.00,0.7571
7179.00,0.7641
7178.00,0.7714
7177.00,0.7789
7176.00,0.7865
7175.00,0.7942
7174.00,0.8021
7173.00,0.8103
7172.00,0.8186
7171.00,0.8268
7170.00,0.8347
7169.00,0.8425
7168.00,0.8506
7167.00,0.8594
7166.00,0.8688
7165.00,0.8780
7164.00,0.8866
7163.00,0.8947
7162.00,0.9029
7161.00,0.9114
7160.00,0.9200
7159.00,0.9283
7158.00,0.9363
7157.00,0.9444
7156.00,0.9525
7155.00,0.9605
7154.00,0.9681
7153.00,0.9755
7152.00,0.9826
7151.00,0.9893
7150.00,0.9956
7149.00,1.0018
7148.00,1.0079
7147.00,1.0143
7146.00,1.0206
7145.00,1.0265
7144.00,1.0318
7143.00,1.0367
7142.00,1.0418
7141.00,1.0471
7140.00,1.0519
7139.00,1.0560
7138.00,1.0599
7137.00,1.0643
7136.00,1.0692
7135.00,1.0737
7134.00,1.0770
7133.00,1.0794
7132.00,1.0810
7131.00,1.0823
7130.00,1.0832
7129.00,1.0840
7128.00,1.0846
7127.00,1.0848
7126.00,1.0848
7125.00,1.0847
7124.00,1.0844
7123.00,1.0837
7122.00,1.0827
7121.00,1.0817
7120.00,1.0805
7119.00,1.0789
7118.00,1.0767
7117.00,1.0741
7116.00,1.0713
7115.00,1.0681
7114.00,1.0642
7113.00,1.0598
7112.00,1.0554
7111.00,1.0512
7110.00,1.0470
7109.00,1.0424
7108.00,1.0371
7107.00,1.0313
7106.00,1.0250
7105.00,1.0184
7104.00,1.0117
7103.00,1.0052
7102.00,0.9987
7101.00,0.9921
7100.00,0.9851
7099.00,0.9776
7098.00,0.9702
7097.00,0.9631
7096.00,0.9559
7095.00,0.9482
7094.00,0.9401
7093.00,0.9319
7092.00,0.9237
7091.00,0.9151
7090.00,0.9061
7089.00,0.8970
7088.00,0.8883
7087.00,0.8799
7086.00,0.8717
7085.00,0.8636
7084.00,0.8554
7083.00,0.8469
7082.00,0.8382
7081.00,0.8295
7080.00,0.8210
7079.00,0.8128
7078.00,0.8051
7077.00,0.7977
7076.00,0.7906
7075.00,0.7839
7074.00,0.7775
7073.00,0.7712
7072.00,0.7647
7071.00,0.7583
7070.00,0.7524
7069.00,0.7470
7068.00,0.7420
7067.00,0.7372
7066.00,0.7326
7065.00,0.7285
7064.00,0.7249
7063.00,0.7217
7062.00,0.7190
7061.00,0.7169
7060.00,0.7153
7059.00,0.7141
7058.00,0.7135
7057.00,0.7135
7056.00,0.7140
7055.00,0.7147
7054.00,0.7155
7053.00,0.7168
7052.00,0.7185
7051.00,0.7206
7050.00,0.7229
7049.00,0.7258
7048.00,0.7292
7047.00,0.7333
7046.00,0.7380
7045.00,0.7431
7044.00,0.7487
7043.00,0.7547
7042.00,0.7610
7041.00,0.7674
7040.00,0.7738
7039.00,0.7803
7038.00,0.7871
7037.00,0.7943
7036.00,0.8018
7035.00,0.8093
7034.00,0.8169
7033.00,0.8250
7032.00,0.8334
7031.00,0.8419
7030.00,0.8503
7029.00,0.8587
7028.00,0.8673
7027.00,0.8761
7026.00,0.8850
7025.00,0.8937
7024.00,0.9024
7023.00,0.9111
7022.00,0.9198
7021.00,0.9285
7020.00,0.9373
7019.00,0.9462
7018.00,0.9548
7017.00,0.9630
7016.00,0.9709
7015.00,0.9791
7014.00,0.9875
7013.00,0.9958
7012.00,1.0035
7011.00,1.0106
7010.00,1.0180
7009.00,1.0263
7008.00,1.0349
7007.00,1.0428
7006.00,1.0496
7005.00,1.0561
7004.00,1.0630
7003.00,1.0701
7002.00,1.0768
7001.00,1.0826
7000.00,1.0877
6999.00,1.0926
6998.00,1.0976
6997.00,1.1025
6996.00,1.1071
6995.00,1.1111
6994.00,1.1148
6993.00,1.1185
6992.00,1.1224
6991.00,1.1260
6990.00,1.1287
6989.00,1.1304
6988.00,1.1318
6987.00,1.1334
6986.00,1.1353
6985.00,1.1371
6984.00,1.1386
6983.00,1.1398
6982.00,1.1405
6981.00,1.1405
6980.00,1.1394
6979.00,1.1375
6978.00,1.1355
6977.00,1.1337
6976.00,1.1321
6975.00,1.1302
6974.00,1.1278
6973.00,1.1249
6972.00,1.1214
6971.00,1.1174
6970.00,1.1132
6969.00,1.1090
6968.00,1.1049
6967.00,1.1008
6966.00,1.0965
6965.00,1.0919
6964.00,1.0868
6963.00,1.0810
6962.00,1.0747
6961.00,1.0680
6960.00,1.0610
6959.00,1.0540
6958.00,1.0468
6957.00,1.0393
6956.00,1.0314
6955.00,1.0231
6954.00,1.0146
6953.00,1.0061
6952.00,0.9976
6951.00,0.9890
6950.00,0.9802
6949.00,0.9710
6948.00,0.9616
6947.00,0.9520
6946.00,0.9425
6945.00,0.9333
6944.00,0.9241
6943.00,0.9147
6942.00,0.9053
6941.00,0.8962
6940.00,0.8871
6939.00,0.8780
6938.00,0.8688
6937.00,0.8598
6936.00,0.8511
6935.00,0.8427
6934.00,0.8349
6933.00,0.8277
6932.00,0.8209
6931.00,0.8140
6930.00,0.8071
6929.00,0.8005
6928.00,0.7942
6927.00,0.7880
6926.00,0.7820
6925.00,0.7764
6924.00,0.7716
6923.00,0.7674
6922.00,0.7638
6921.00,0.7609
6920.00,0.7584
6919.00,0.7561
6918.00,0.7540
6917.00,0.7525
6916.00,0.7517
6915.00,0.7514
6914.00,0.7518
6913.00,0.7528
6912.00,0.7543
6911.00,0.7561
6910.00,0.7581
6909.00,0.7606
6908.00,0.7634
6907.00,0.7667
6906.00,0.7704
6905.00,0.7747
6904.00,0.7797
6903.00,0.7851
6902.00,0.7908
6901.00,0.7968
6900.00,0.8030
6899.00,0.8094
6898.00,0.8161
6897.00,0.8231
6896.00,0.8304
6895.00,0.8380
6894.00,0.8457
6893.00,0.8536
6892.00,0.8619
6891.00,0.8703
6890.00,0.8786
6889.00,0.8869
6888.00,0.8952
6887.00,0.9036
6886.00,0.9121
6885.00,0.9206
6884.00,0.9289
6883.00,0.9373
6882.00,0.9460
6881.00,0.9550
6880.00,0.9641
6879.00,0.9730
6878.00,0.9815
6877.00,0.9899
6876.00,0.9983
6875.00,1.0067
6874.00,1.0150
6873.00,1.0232
6872.00,1.0312
6871.00,1.0388
6870.00,1.0462
6869.00,1.0532
6868.00,1.0602
6867.00,1.0672
6866.00,1.0742
6865.00,1.0808
6864.00,1.0873
6863.00,1.0938
6862.00,1.1000
6861.00,1.1056
6860.00,1.1103
6859.00,1.1143
6858.00,1.1182
6857.00,1.1224
6856.00,1.1266
6855.00,1.1304
6854.00,1.1338
6853.00,1.1369
6852.00,1.1400
6851.00,1.1428
6850.00,1.1452
6849.00,1.1469
6848.00,1.1482
6847.00,1.1495
6846.00,1.1505
6845.00,1.1510
6844.00,1.1508
6843.00,1.1502
6842.00,1.1496
6841.00,1.1488
6840.00,1.1476
6839.00,1.1460
6838.00,1.1441
6837.00,1.1418
6836.00,1.1391
6835.00,1.1361
6834.00,1.1328
6833.00,1.1291
6832.00,1.1249
6831.00,1.1202
6830.00,1.1156
6829.00,1.1108
6828.00,1.1058
6827.00,1.1002
6826.00,1.0944
6825.00,1.0884
6824.00,1.0823
6823.00,1.0756
6822.00,1.0684
6821.00,1.0610
6820.00,1.0536
6819.00,1.0462
6818.00,1.0384
6817.00,1.0306
6816.00,1.0225
6815.00,1.0142
6814.00,1.0054
6813.00,0.9961
6812.00,0.9865
6811.00,0.9771
6810.00,0.9679
6809.00,0.9589
6808.00,0.9498
6807.00,0.9406
6806.00,0.9315
6805.00,0.9225
6804.00,0.9135
6803.00,0.9043
6802.00,0.8950
6801.00,0.8857
6800.00,0.8766
6799.00,0.8677
6798.00,0.8590
6797.00,0.8507
6796.00,0.8425
6795.00,0.8344
6794.00,0.8266
6793.00,0.8190
6792.00,0.8116
6791.00,0.8042
6790.00,0.7971
6789.00,0.7905
6788.00,0.7844
6787.00,0.7786
6786.00,0.7731
6785.00,0.7679
6784.00,0.7631
6783.00,0.7587
6782.00,0.7547
6781.00,0.7513
6780.00,0.7484
6779.00,0.7461
6778.00,0.7443
6777.00,0.7432
6776.00,0.7426
6775.00,0.7424
6774.00,0.7425
6773.00,0.7431
6772.00,0.7444
6771.00,0.7460
6770.00,0.7480
6769.00,0.7502
6768.00,0.7529
6767.00,0.7561
6766.00,0.7598
6765.00,0.7640
6764.00,0.7685
6763.00,0.7735
6762.00,0.7791
6761.00,0.7852
6760.00,0.7916
6759.00,0.7980
6758.00,0.8046
6757.00,0.8115
6756.00,0.8189
6755.00,0.8266
6754.00,0.8343
6753.00,0.8421
6752.00,0.8502
6751.00,0.8586
6750.00,0.8675
6749.00,0.8765
6748.00,0.8854
6747.00,0.8941
6746.00,0.9028
6745.00,0.9116
6744.00,0.9203
6743.00,0.9290
6742.00,0.9379
6741.00,0.9469
6740.00,0.9561
6739.00,0.9653
6738.00,0.9744
6737.00,0.9833
6736.00,0.9922
6735.00,1.0010
6734.00,1.0099
6733.00,1.0191
6732.00,1.0283
6731.00,1.0375
6730.00,1.0463
6729.00,1.0548
6728.00,1.0627
6727.00,1.0703
6726.00,1.0780
6725.00,1.0857
6724.00,1.0933
6723.00,1.1004
6722.00,1.1070
6721.00,1.1132
6720.00,1.1192
6719.00,1.1247
6718.00,1.1299
6717.00,1.1349
6716.00,1.1400
6715.00,1.1453
6714.00,1.1507
6713.00,1.1556
6712.00,1.1598
6711.00,1.1634
6710.00,1.1666
6709.00,1.1696
6708.00,1.1721
6707.00,1.1742
6706.00,1.1759
6705.00,1.1776
6704.00,1.1792
6703.00,1.1806
6702.00,1.1815
6701.00,1.1820
6700.00,1.1822
6699.00,1.1822
6698.00,1.1820
6697.00,1.1814
6696.00,1.1801
6695.00,1.1781
6694.00,1.1757
6693.00,1.1730
6692.00,1.1700
6691.00,1.1666
6690.00,1.1630
6689.00,1.1595
6688.00,1.1562
6687.00,1.1527
6686.00,1.1487
6685.00,1.1441
6684.00,1.1388
6683.00,1.1328
6682.00,1.1263
6681.00,1.1193
6680.00,1.1122
6679.00,1.1049
6678.00,1.0977
6677.00,1.0905
6676.00,1.0831
6675.00,1.0754
6674.00,1.0670
6673.00,1.0582
6672.00,1.0493
6671.00,1.0403
6670.00,1.0312
6669.00,1.0219
6668.00,1.0125
6667.00,1.0032
6666.00,0.9939
6665.00,0.9845
6664.00,0.9747
6663.00,0.9645
6662.00,0.9542
6661.00,0.9442
6660.00,0.9343
6659.00,0.9245
6658.00,0.9148
6657.00,0.9053
6656.00,0.8960
6655.00,0.8868
6654.00,0.8776
6653.00,0.8684
6652.00,0.8593
6651.00,0.8506
6650.00,0.8423
6649.00,0.8344
6648.00,0.8268
6647.00,0.8193
6646.00,0.8122
6645.00,0.8054
6644.00,0.7991
6643.00,0.7931
6642.00,0.7877
6641.00,0.7828
6640.00,0.7784
6639.00,0.7745
6638.00,0.7712
6637.00,0.7684
6636.00,0.7662
6635.00,0.7645
6634.00,0.7633
6633.00,0.7627
6632.00,0.7627
6631.00,0.7633
6630.00,0.7644
6629.00,0.7661
6628.00,0.7684
6627.00,0.7710
6626.00,0.7740
6625.00,0.7774
6624.00,0.7813
6623.00,0.7857
6622.00,0.7904
6621.00,0.7958
6620.00,0.8016
6619.00,0.8080
6618.00,0.8146
6617.00,0.8215
6616.00,0.8286
6615.00,0.8359
6614.00,0.8436
6613.00,0.8516
6612.00,0.8597
6611.00,0.8679
6610.00,0.8763
6609.00,0.8847
6608.00,0.8931
6607.00,0.9016
6606.00,0.9103
6605.00,0.9193
6604.00,0.9283
6603.00,0.9373
6602.00,0.9463
6601.00,0.9554
6600.00,0.9643
6599.00,0.9731
6598.00,0.9822
6597.00,0.9916
6596.00,1.0011
6595.00,1.0103
6594.00,1.0191
6593.00,1.0275
6592.00,1.0357
6591.00,1.0435
6590.00,1.0511
6589.00,1.0589
6588.00,1.0671
6587.00,1.0755
6586.00,1.0836
6585.00,1.0912
6584.00,1.0985
6583.00,1.1056
6582.00,1.1128
6581.00,1.1195
6580.00,1.1256
6579.00,1.1312
6578.00,1.1366
6577.00,1.1418
6576.00,1.1467
6575.00,1.1511
6574.00,1.1552
6573.00,1.1594
6572.00,1.1635
6571.00,1.1669
6570.00,1.1696
6569.00,1.1719
6568.00,1.1744
6567.00,1.1770
6566.00,1.1792
6565.00,1.1808
6564.00,1.1816
6563.00,1.1816
6562.00,1.1809
6561.00,1.1799
6560.00,1.1788
6559.00,1.1777
6558.00,1.1767
6557.00,1.1758
6556.00,1.1747
6555.00,1.1730
6554.00,1.1703
6553.00,1.1668
6552.00,1.1626
6551.00,1.1584
6550.00,1.1541
6549.00,1.1497
6548.00,1.1450
6547.00,1.1402
6546.00,1.1352
6545.00,1.1298
6544.00,1.1240
6543.00,1.1175
6542.00,1.1106
6541.00,1.1035
6540.00,1.0964
6539.00,1.0889
6538.00,1.0809
6537.00,1.0727
6536.00,1.0644
6535.00,1.0558
6534.00,1.0470
6533.00,1.0380
6532.00,1.0290
6531.00,1.0200
6530.00,1.0111
6529.00,1.0019
6528.00,0.9921
6527.00,0.9820
6526.00,0.9717
6525.00,0.9614
6524.00,0.9513
6523.00,0.9413
6522.00,0.9314
6521.00,0.9218
6520.00,0.9122
6519.00,0.9026
6518.00,0.8929
6517.00,0.8833
6516.00,0.8739
6515.00,0.8647
6514.00,0.8556
6513.00,0.8468
6512.00,0.8383
6511.00,0.8300
6510.00,0.8220
6509.00,0.8144
6508.00,0.8069
6507.00,0.7998
6506.00,0.7928
6505.00,0.7862
6504.00,0.7801
6503.00,0.7743
6502.00,0.7690
6501.00,0.7643
6500.00,0.7601
6499.00,0.7565
6498.00,0.7534
6497.00,0.7505
6496.00,0.7479
6495.00,0.7457
6494.00,0.7441
6493.00,0.7431
6492.00,0.7426
6491.00,0.7427
6490.00,0.7434
6489.00,0.7446
6488.00,0.7465
6487.00,0.7487
6486.00,0.7515
6485.00,0.7549
6484.00,0.7588
6483.00,0.7633
6482.00,0.7683
6481.00,0.7737
6480.00,0.7794
6479.00,0.7855
6478.00,0.7919
6477.00,0.7988
6476.00,0.8059
6475.00,0.8134
6474.00,0.8212
6473.00,0.8291
6472.00,0.8371
6471.00,0.8452
6470.00,0.8536
6469.00,0.8623
6468.00,0.8712
6467.00,0.8803
6466.00,0.8896
6465.00,0.8992
6464.00,0.9089
6463.00,0.9187
6462.00,0.9284
6461.00,0.9381
6460.00,0.9478
6459.00,0.9574
6458.00,0.9670
6457.00,0.9765
6456.00,0.9858
6455.00,0.9951
6454.00,1.0045
6453.00,1.0140
6452.00,1.0234
6451.00,1.0325
6450.00,1.0416
6449.00,1.0506
6448.00,1.0596
6447.00,1.0683
6446.00,1.0767
6445.00,1.0848
6444.00,1.0925
6443.00,1.0999
6442.00,1.1070
6441.00,1.1141
6440.00,1.1212
6439.00,1.1282
6438.00,1.1350
6437.00,1.1412
6436.00,1.1470
6435.00,1.1524
6434.00,1.1577
6433.00,1.1629
6432.00,1.1679
6431.00,1.1728
6430.00,1.1776
6429.00,1.1820
6428.00,1.1858
6427.00,1.1887
6426.00,1.1911
6425.00,1.1934
6424.00,1.1955
6423.00,1.1973
6422.00,1.1987
6421.00,1.1998
6420.00,1.2005
6419.00,1.2006
6418.00,1.2003
6417.00,1.1999
6416.00,1.1992
6415.00,1.1981
6414.00,1.1963
6413.00,1.1943
6412.00,1.1920
6411.00,1.1893
6410.00,1.1862
6409.00,1.1828
6408.00,1.1794
6407.00,1.1756
6406.00,1.1716
6405.00,1.1671
6404.00,1.1622
6403.00,1.1568
6402.00,1.1510
6401.00,1.1448
6400.00,1.1384
6399.00,1.1315
6398.00,1.1241
6397.00,1.1162
6396.00,1.1081
6395.00,1.0996
6394.00,1.0910
6393.00,1.0824
6392.00,1.0739
6391.00,1.0652
6390.00,1.0563
6389.00,1.0471
6388.00,1.0374
6387.00,1.0273
6386.00,1.0169
6385.00,1.0064
6384.00,0.9957
6383.00,0.9851
6382.00,0.9745
6381.00,0.9640
6380.00,0.9534
6379.00,0.9427
6378.00,0.9320
6377.00,0.9212
6376.00,0.9104
6375.00,0.8997
6374.00,0.8892
6373.00,0.8791
6372.00,0.8694
6371.00,0.8598
6370.00,0.8503
6369.00,0.8411
6368.00,0.8321
6367.00,0.8233
6366.00,0.8148
6365.00,0.8065
6364.00,0.7986
6363.00,0.7912
6362.00,0.7843
6361.00,0.7781
6360.00,0.7725
6359.00,0.7673
6358.00,0.7626
6357.00,0.7584
6356.00,0.7547
6355.00,0.7515
6354.00,0.7487
6353.00,0.7466
6352.00,0.7452
6351.00,0.7445
6350.00,0.7445
6349.00,0.7451
6348.00,0.7462
6347.00,0.7478
6346.00,0.7500
6345.00,0.7528
6344.00,0.7562
6343.00,0.7600
6342.00,0.7644
6341.00,0.7691
6340.00,0.7743
6339.00,0.7799
6338.00,0.7858
6337.00,0.7921
6336.00,0.7989
6335.00,0.8060
6334.00,0.8136
6333.00,0.8215
6332.00,0.8298
6331.00,0.8385
6330.00,0.8474
6329.00,0.8565
6328.00,0.8656
6327.00,0.8748
6326.00,0.8840
6325.00,0.8934
6324.00,0.9029
6323.00,0.9126
6322.00,0.9223
6321.00,0.9322
6320.00,0.9420
6319.00,0.9515
6318.00,0.9609
6317.00,0.9702
6316.00,0.9797
6315.00,0.9893
6314.00,0.9988
6313.00,1.0082
6312.00,1.0175
6311.00,1.0267
6310.00,1.0359
6309.00,1.0450
6308.00,1.0538
6307.00,1.0624
6306.00,1.0708
6305.00,1.0789
6304.00,1.0867
6303.00,1.0940
6302.00,1.1012
6301.00,1.1083
6300.00,1.1153
6299.00,1.1222
6298.00,1.1288
6297.00,1.1349
6296.00,1.1406
6295.00,1.1459
6294.00,1.1510
6293.00,1.1562
6292.00,1.1612
6291.00,1.1659
6290.00,1.1701
6289.00,1.1738
6288.00,1.1769
6287.00,1.1794
6286.00,1.1811
6285.00,1.1824
6284.00,1.1836
6283.00,1.1850
6282.00,1.1862
6281.00,1.1870
6280.00,1.1874
6279.00,1.1876
6278.00,1.1875
6277.00,1.1869
6276.00,1.1859
6275.00,1.1845
6274.00,1.1827
6273.00,1.1805
6272.00,1.1777
6271.00,1.1746
6270.00,1.1714
6269.00,1.1679
6268.00,1.1640
6267.00,1.1593
6266.00,1.1543
6265.00,1.1489
6264.00,1.1432
6263.00,1.1372
6262.00,1.1309
6261.00,1.1247
6260.00,1.1183
6259.00,1.1113
6258.00,1.1037
6257.00,1.0957
6256.00,1.0875
6255.00,1.0790
6254.00,1.0702
6253.00,1.0613
6252.00,1.0525
6251.00,1.0435
6250.00,1.0343
6249.00,1.0247
6248.00,1.0149
6247.00,1.0050
6246.00,0.9949
6245.00,0.9846
6244.00,0.9740
6243.00,0.9633
6242.00,0.9527
6241.00,0.9421
6240.00,0.9317
6239.00,0.9211
6238.00,0.9104
6237.00,0.8998
6236.00,0.8893
6235.00,0.8790
6234.00,0.8686
6233.00,0.8584
6232.00,0.8485
6231.00,0.8388
6230.00,0.8292
6229.00,0.8199
6228.00,0.8109
6227.00,0.8022
6226.00,0.7937
6225.00,0.7855
6224.00,0.7775
6223.00,0.7700
6222.00,0.7629
6221.00,0.7564
6220.00,0.7503
6219.00,0.7447
6218.00,0.7395
6217.00,0.7349
6216.00,0.7308
6215.00,0.7272
6214.00,0.7241
6213.00,0.7218
6212.00,0.7201
6211.00,0.7191
6210.00,0.7186
6209.00,0.7188
6208.00,0.7194
6207.00,0.7206
6206.00,0.7224
6205.00,0.7248
6204.00,0.7278
6203.00,0.7314
6202.00,0.7356
6201.00,0.7402
6200.00,0.7453
6199.00,0.7508
6198.00,0.7567
6197.00,0.7632
6196.00,0.7701
6195.00,0.7774
6194.00,0.7851
6193.00,0.7931
6192.00,0.8013
6191.00,0.8097
6190.00,0.8184
6189.00,0.8276
6188.00,0.8370
6187.00,0.8467
6186.00,0.8565
6185.00,0.8665
6184.00,0.8764
6183.00,0.8863
6182.00,0.8961
6181.00,0.9059
6180.00,0.9159
6179.00,0.9261
6178.00,0.9363
6177.00,0.9466
6176.00,0.9569
6175.00,0.9671
6174.00,0.9772
6173.00,0.9871
6172.00,0.9969
6171.00,1.0066
6170.00,1.0164
6169.00,1.0260
6168.00,1.0353
6167.00,1.0444
6166.00,1.0535
6165.00,1.0624
6164.00,1.0711
6163.00,1.0794
6162.00,1.0876
6161.00,1.0958
6160.00,1.1039
6159.00,1.1117
6158.00,1.1191
6157.00,1.1263
6156.00,1.1333
6155.00,1.1397
6154.00,1.1455
6153.00,1.1508
6152.00,1.1559
6151.00,1.1610
6150.00,1.1660
6149.00,1.1707
6148.00,1.1751
6147.00,1.1790
6146.00,1.1826
6145.00,1.1859
6144.00,1.1890
6143.00,1.1918
6142.00,1.1941
6141.00,1.1958
6140.00,1.1967
6139.00,1.1972
6138.00,1.1974
6137.00,1.1972
6136.00,1.1967
6135.00,1.1963
6134.00,1.1959
6133.00,1.1953
6132.00,1.1938
6131.00,1.1916
6130.00,1.1889
6129.00,1.1863
6128.00,1.1836
6127.00,1.1805
6126.00,1.1769
6125.00,1.1729
6124.00,1.1684
6123.00,1.1634
6122.00,1.1576
6121.00,1.1512
6120.00,1.1447
6119.00,1.1382
6118.00,1.1316
6117.00,1.1248
6116.00,1.1178
6115.00,1.1102
6114.00,1.1023
6113.00,1.0939
6112.00,1.0852
6111.00,1.0763
6110.00,1.0669
6109.00,1.0570
6108.00,1.0468
6107.00,1.0363
6106.00,1.0257
6105.00,1.0150
6104.00,1.0042
6103.00,0.9935
6102.00,0.9827
6101.00,0.9716
6100.00,0.9603
6099.00,0.9488
6098.00,0.9376
6097.00,0.9263
6096.00,0.9149
6095.00,0.9033
6094.00,0.8917
6093.00,0.8803
6092.00,0.8689
6091.00,0.8578
6090.00,0.8468
6089.00,0.8363
6088.00,0.8259
6087.00,0.8158
6086.00,0.8058
6085.00,0.7962
6084.00,0.7871
6083.00,0.7785
6082.00,0.7702
6081.00,0.7624
6080.00,0.7550
6079.00,0.7481
6078.00,0.7416
6077.00,0.7359
6076.00,0.7307
6075.00,0.7261
6074.00,0.7221
6073.00,0.7186
6072.00,0.7157
6071.00,0.7134
6070.00,0.7119
6069.00,0.7111
6068.00,0.7110
6067.00,0.7116
6066.00,0.7128
6065.00,0.7147
6064.00,0.7170
6063.00,0.7198
6062.00,0.7233
6061.00,0.7274
6060.00,0.7322
6059.00,0.7376
6058.00,0.7435
6057.00,0.7499
6056.00,0.7566
6055.00,0.7636
6054.00,0.7710
6053.00,0.7786
6052.00,0.7867
6051.00,0.7952
6050.00,0.8041
6049.00,0.8133
6048.00,0.8226
6047.00,0.8321
6046.00,0.8418
6045.00,0.8517
6044.00,0.8616
6043.00,0.8716
6042.00,0.8817
6041.00,0.8921
6040.00,0.9025
6039.00,0.9130
6038.00,0.9235
6037.00,0.9342
6036.00,0.9448
6035.00,0.9553
6034.00,0.9657
6033.00,0.9760
6032.00,0.9861
6031.00,0.9960
6030.00,1.0060
6029.00,1.0160
6028.00,1.0259
6027.00,1.0356
6026.00,1.0449
6025.00,1.0540
6024.00,1.0629
6023.00,1.0716
6022.00,1.0802
6021.00,1.0886
6020.00,1.0970
6019.00,1.1051
6018.00,1.1128
6017.00,1.1199
6016.00,1.1267
6015.00,1.1332
6014.00,1.1395
6013.00,1.1458
6012.00,1.1517
6011.00,1.1572
6010.00,1.1623
6009.00,1.1668
6008.00,1.1708
6007.00,1.1743
6006.00,1.1775
6005.00,1.1806
6004.00,1.1836
6003.00,1.1865
6002.00,1.1892
6001.00,1.1915
6000.00,1.1934
5999.00,1.1946
5998.00,1.1953
5997.00,1.1955
5996.00,1.1953
5995.00,1.1948
5994.00,1.1940
5993.00,1.1928
5992.00,1.1914
5991.00,1.1895
5990.00,1.1872
5989.00,1.1844
5988.00,1.1811
5987.00,1.1774
5986.00,1.1734
5985.00,1.1690
5984.00,1.1642
5983.00,1.1591
5982.00,1.1536
5981.00,1.1477
5980.00,1.1416
5979.00,1.1353
5978.00,1.1288
5977.00,1.1220
5976.00,1.1148
5975.00,1.1072
5974.00,1.0992
5973.00,1.0907
5972.00,1.0817
5971.00,1.0723
5970.00,1.0629
5969.00,1.0533
5968.00,1.0435
5967.00,1.0334
5966.00,1.0231
5965.00,1.0128
5964.00,1.0025
5963.00,0.9922
5962.00,0.9819
5961.00,0.9716
5960.00,0.9614
5959.00,0.9511
5958.00,0.9409
5957.00,0.9307
5956.00,0.9206
5955.00,0.9107
5954.00,0.9008
5953.00,0.8908
5952.00,0.8806
5951.00,0.8701
5950.00,0.8595
5949.00,0.8489
5948.00,0.8382
5947.00,0.8276
5946.00,0.8171
5945.00,0.8067
5944.00,0.7963
5943.00,0.7860
5942.00,0.7762
5941.00,0.7668
5940.00,0.7580
5939.00,0.7495
5938.00,0.7416
5937.00,0.7343
5936.00,0.7277
5935.00,0.7217
5934.00,0.7163
5933.00,0.7115
5932.00,0.7075
5931.00,0.7041
5930.00,0.7013
5929.00,0.6993
5928.00,0.6980
5927.00,0.6975
5926.00,0.6978
5925.00,0.6989
5924.00,0.7007
5923.00,0.7031
5922.00,0.7062
5921.00,0.7099
5920.00,0.7143
5919.00,0.7193
5918.00,0.7248
5917.00,0.7308
5916.00,0.7373
5915.00,0.7442
5914.00,0.7515
5913.00,0.7593
5912.00,0.7676
5911.00,0.7762
5910.00,0.7852
5909.00,0.7947
5908.00,0.8043
5907.00,0.8142
5906.00,0.8243
5905.00,0.8347
5904.00,0.8452
5903.00,0.8558
5902.00,0.8665
5901.00,0.8773
5900.00,0.8882
5899.00,0.8992
5898.00,0.9102
5897.00,0.9214
5896.00,0.9325
5895.00,0.9435
5894.00,0.9543
5893.00,0.9651
5892.00,0.9759
5891.00,0.9867
5890.00,0.9974
5889.00,1.0081
5888.00,1.0185
5887.00,1.0288
5886.00,1.0389
5885.00,1.0488
5884.00,1.0585
5883.00,1.0679
5882.00,1.0769
5881.00,1.0855
5880.00,1.0937
5879.00,1.1018
5878.00,1.1100
5877.00,1.1183
5876.00,1.1263
5875.00,1.1340
5874.00,1.1413
5873.00,1.1480
5872.00,1.1540
5871.00,1.1593
5870.00,1.1642
5869.00,1.1692
5868.00,1.1742
5867.00,1.1791
5866.00,1.1836
5865.00,1.1878
5864.00,1.1914
5863.00,1.1944
5862.00,1.1968
5861.00,1.1988
5860.00,1.2007
5859.00,1.2024
5858.00,1.2041
5857.00,1.2056
5856.00,1.2066
5855.00,1.2069
5854.00,1.2064
5853.00,1.2054
5852.00,1.2040
5851.00,1.2022
5850.00,1.2003
5849.00,1.1982
5848.00,1.1959
5847.00,1.1934
5846.00,1.1907
5845.00,1.1875
5844.00,1.1838
5843.00,1.1797
5842.00,1.1753
5841.00,1.1705
5840.00,1.1654
5839.00,1.1598
5838.00,1.1541
5837.00,1.1481
5836.00,1.1418
5835.00,1.1349
5834.00,1.1276
5833.00,1.1199
5832.00,1.1119
5831.00,1.1034
5830.00,1.0948
5829.00,1.0861
5828.00,1.0772
5827.00,1.0679
5826.00,1.0582
5825.00,1.0478
5824.00,1.0371
5823.00,1.0259
5822.00,1.0146
5821.00,1.0034
5820.00,0.9920
5819.00,0.9804
5818.00,0.9687
5817.00,0.9569
5816.00,0.9450
5815.00,0.9330
5814.00,0.9209
5813.00,0.9089
5812.00,0.8968
5811.00,0.8847
5810.00,0.8725
5809.00,0.8605
5808.00,0.8488
5807.00,0.8374
5806.00,0.8263
5805.00,0.8153
5804.00,0.8045
5803.00,0.7940
5802.00,0.7838
5801.00,0.7740
5800.00,0.7647
5799.00,0.7559
5798.00,0.7477
5797.00,0.7401
5796.00,0.7329
5795.00,0.7261
5794.00,0.7200
5793.00,0.7145
5792.00,0.7098
5791.00,0.7057
5790.00,0.7023
5789.00,0.6995
5788.00,0.6973
5787.00,0.6956
5786.00,0.6947
5785.00,0.6946
5784.00,0.6953
5783.00,0.6967
5782.00,0.6988
5781.00,0.7017
5780.00,0.7052
5779.00,0.7093
5778.00,0.7141
5777.00,0.7194
5776.00,0.7254
5775.00,0.7319
5774.00,0.7390
5773.00,0.7465
5772.00,0.7546
5771.00,0.7631
5770.00,0.7720
5769.00,0.7813
5768.00,0.7908
5767.00,0.8006
5766.00,0.8107
5765.00,0.8210
5764.00,0.8316
5763.00,0.8423
5762.00,0.8531
5761.00,0.8640
5760.00,0.8750
5759.00,0.8861
5758.00,0.8973
5757.00,0.9085
5756.00,0.9197
5755.00,0.9310
5754.00,0.9423
5753.00,0.9534
5752.00,0.9646
5751.00,0.9757
5750.00,0.9869
5749.00,0.9980
5748.00,1.0090
5747.00,1.0198
5746.00,1.0305
5745.00,1.0411
5744.00,1.0514
5743.00,1.0615
5742.00,1.0713
5741.00,1.0811
5740.00,1.0908
5739.00,1.1001
5738.00,1.1092
5737.00,1.1179
5736.00,1.1261
5735.00,1.1340
5734.00,1.1414
5733.00,1.1485
5732.00,1.1553
5731.00,1.1619
5730.00,1.1682
5729.00,1.1744
5728.00,1.1803
5727.00,1.1860
5726.00,1.1911
5725.00,1.1955
5724.00,1.1993
5723.00,1.2025
5722.00,1.2054
5721.00,1.2080
5720.00,1.2103
5719.00,1.2127
5718.00,1.2151
5717.00,1.2170
5716.00,1.2182
5715.00,1.2186
5714.00,1.2187
5713.00,1.2184
5712.00,1.2178
5711.00,1.2167
5710.00,1.2152
5709.00,1.2135
5708.00,1.2113
5707.00,1.2089
5706.00,1.2062
5705.00,1.2033
5704.00,1.2001
5703.00,1.1965
5702.00,1.1923
5701.00,1.1873
5700.00,1.1817
5699.00,1.1757
5698.00,1.1696
5697.00,1.1632
5696.00,1.1566
5695.00,1.1496
5694.00,1.1423
5693.00,1.1344
5692.00,1.1261
5691.00,1.1174
5690.00,1.1085
5689.00,1.0993
5688.00,1.0898
5687.00,1.0800
5686.00,1.0699
5685.00,1.0594
5684.00,1.0485
5683.00,1.0373
5682.00,1.0259
5681.00,1.0143
5680.00,1.0025
5679.00,0.9903
5678.00,0.9779
5677.00,0.9653
5676.00,0.9526
5675.00,0.9399
5674.00,0.9271
5673.00,0.9143
5672.00,0.9015
5671.00,0.8885
5670.00,0.8755
5669.00,0.8626
5668.00,0.8498
5667.00,0.8371
5666.00,0.8247
5665.00,0.8125
5664.00,0.8005
5663.00,0.7889
5662.00,0.7777
5661.00,0.7668
5660.00,0.7563
5659.00,0.7463
5658.00,0.7366
5657.00,0.7275
5656.00,0.7190
5655.00,0.7111
5654.00,0.7038
5653.00,0.6973
5652.00,0.6913
5651.00,0.6860
5650.00,0.6814
5649.00,0.6776
5648.00,0.6746
5647.00,0.6725
5646.00,0.6712
5645.00,0.6706
5644.00,0.6707
5643.00,0.6716
5642.00,0.6733
5641.00,0.6758
5640.00,0.6790
5639.00,0.6831
5638.00,0.6879
5637.00,0.6934
5636.00,0.6995
5635.00,0.7060
5634.00,0.7130
5633.00,0.7207
5632.00,0.7288
5631.00,0.7374
5630.00,0.7465
5629.00,0.7562
5628.00,0.7661
5627.00,0.7763
5626.00,0.7867
5625.00,0.7975
5624.00,0.8085
5623.00,0.8198
5622.00,0.8312
5621.00,0.8427
5620.00,0.8544
5619.00,0.8662
5618.00,0.8780
5617.00,0.8898
5616.00,0.9017
5615.00,0.9136
5614.00,0.9255
5613.00,0.9375
5612.00,0.9494
5611.00,0.9614
5610.00,0.9733
5609.00,0.9852
5608.00,0.9971
5607.00,1.0088
5606.00,1.0203
5605.00,1.0316
5604.00,1.0425
5603.00,1.0533
5602.00,1.0640
5601.00,1.0745
5600.00,1.0846
5599.00,1.0944
5598.00,1.1041
5597.00,1.1136
5596.00,1.1229
5595.00,1.1318
5594.00,1.1405
5593.00,1.1490
5592.00,1.1571
5591.00,1.1646
5590.00,1.1717
5589.00,1.1784
5588.00,1.1847
5587.00,1.1903
5586.00,1.1956
5585.00,1.2006
5584.00,1.2055
5583.00,1.2101
5582.00,1.2145
5581.00,1.2184
5580.00,1.2219
5579.00,1.2249
5578.00,1.2276
5577.00,1.2301
5576.00,1.2322
5575.00,1.2337
5574.00,1.2344
5573.00,1.2344
5572.00,1.2341
5571.00,1.2335
5570.00,1.2327
5569.00,1.2315
5568.00,1.2298
5567.00,1.2277
5566.00,1.2253
5565.00,1.2226
5564.00,1.2198
5563.00,1.2168
5562.00,1.2135
5561.00,1.2096
5560.00,1.2051
5559.00,1.2000
5558.00,1.1946
5557.00,1.1890
5556.00,1.1831
5555.00,1.1768
5554.00,1.1699
5553.00,1.1625
5552.00,1.1547
5551.00,1.1465
5550.00,1.1380
5549.00,1.1291
5548.00,1.1197
5547.00,1.1099
5546.00,1.0998
5545.00,1.0894
5544.00,1.0787
5543.00,1.0677
5542.00,1.0563
5541.00,1.0446
5540.00,1.0325
5539.00,1.0201
5538.00,1.0076
5537.00,0.9951
5536.00,0.9823
5535.00,0.9693
5534.00,0.9561
5533.00,0.9428
5532.00,0.9294
5531.00,0.9160
5530.00,0.9026
5529.00,0.8894
5528.00,0.8761
5527.00,0.8628
5526.00,0.8496
5525.00,0.8366
5524.00,0.8239
5523.00,0.8115
5522.00,0.7995
5521.00,0.7879
5520.00,0.7767
5519.00,0.7658
5518.00,0.7555
5517.00,0.7456
5516.00,0.7364
5515.00,0.7279
5514.00,0.7200
5513.00,0.7128
5512.00,0.7062
5511.00,0.7003
5510.00,0.6951
5509.00,0.6908
5508.00,0.6872
5507.00,0.6844
5506.00,0.6825
5505.00,0.6814
5504.00,0.6811
5503.00,0.6816
5502.00,0.6830
5501.00,0.6852
5500.00,0.6882
5499.00,0.6919
5498.00,0.6964
5497.00,0.7016
5496.00,0.7074
5495.00,0.7139
5494.00,0.7210
5493.00,0.7288
5492.00,0.7371
5491.00,0.7459
5490.00,0.7553
5489.00,0.7650
5488.00,0.7751
5487.00,0.7857
5486.00,0.7966
5485.00,0.8078
5484.00,0.8191
5483.00,0.8306
5482.00,0.8423
5481.00,0.8542
5480.00,0.8663
5479.00,0.8783
5478.00,0.8905
5477.00,0.9027
5476.00,0.9151
5475.00,0.9279
5474.00,0.9410
5473.00,0.9542
5472.00,0.9673
5471.00,0.9800
5470.00,0.9925
5469.00,1.0049
5468.00,1.0171
5467.00,1.0291
5466.00,1.0409
5465.00,1.0526
5464.00,1.0642
5463.00,1.0756
5462.00,1.0867
5461.00,1.0976
5460.00,1.1083
5459.00,1.1187
5458.00,1.1289
5457.00,1.1389
5456.00,1.1485
5455.00,1.1577
5454.00,1.1663
5453.00,1.1744
5452.00,1.1819
5451.00,1.1889
5450.00,1.1955
5449.00,1.2020
5448.00,1.2084
5447.00,1.2148
5446.00,1.2208
5445.00,1.2263
5444.00,1.2315
5443.00,1.2362
5442.00,1.2405
5441.00,1.2444
5440.00,1.2480
5439.00,1.2513
5438.00,1.2540
5437.00,1.2558
5436.00,1.2568
5435.00,1.2576
5434.00,1.2584
5433.00,1.2591
5432.00,1.2597
5431.00,1.2597
5430.00,1.2593
5429.00,1.2585
5428.00,1.2572
5427.00,1.2556
5426.00,1.2535
5425.00,1.2510
5424.00,1.2481
5423.00,1.2449
5422.00,1.2413
5421.00,1.2372
5420.00,1.2326
5419.00,1.2275
5418.00,1.2221
5417.00,1.2163
5416.00,1.2102
5415.00,1.2036
5414.00,1.1967
5413.00,1.1893
5412.00,1.1814
5411.00,1.1729
5410.00,1.1638
5409.00,1.1544
5408.00,1.1446
5407.00,1.1347
5406.00,1.1246
5405.00,1.1143
5404.00,1.1036
5403.00,1.0925
5402.00,1.0810
5401.00,1.0692
5400.00,1.0568
5399.00,1.0440
5398.00,1.0310
5397.00,1.0177
5396.00,1.0042
5395.00,0.9904
5394.00,0.9765
5393.00,0.9624
5392.00,0.9483
5391.00,0.9340
5390.00,0.9198
5389.00,0.9056
5388.00,0.8915
5387.00,0.8775
5386.00,0.8636
5385.00,0.8499
5384.00,0.8363
5383.00,0.8230
5382.00,0.8098
5381.00,0.7971
5380.00,0.7848
5379.00,0.7729
5378.00,0.7615
5377.00,0.7506
5376.00,0.7403
5375.00,0.7307
5374.00,0.7217
5373.00,0.7135
5372.00,0.7059
5371.00,0.6991
5370.00,0.6930
5369.00,0.6879
5368.00,0.6836
5367.00,0.6801
5366.00,0.6775
5365.00,0.6758
5364.00,0.6750
5363.00,0.6752
5362.00,0.6762
5361.00,0.6781
5360.00,0.6807
5359.00,0.6840
5358.00,0.6880
5357.00,0.6929
5356.00,0.6985
5355.00,0.7048
5354.00,0.7119
5353.00,0.7199
5352.00,0.7286
5351.00,0.7378
5350.00,0.7473
5349.00,0.7570
5348.00,0.7670
5347.00,0.7775
5346.00,0.7884
5345.00,0.7999
5344.00,0.8119
5343.00,0.8243
5342.00,0.8368
5341.00,0.8494
5340.00,0.8618
5339.00,0.8744
5338.00,0.8876
5337.00,0.9013
5336.00,0.9151
5335.00,0.9287
5334.00,0.9419
5333.00,0.9549
5332.00,0.9680
5331.00,0.9810
5330.00,0.9940
5329.00,1.0069
5328.00,1.0197
5327.00,1.0326
5326.00,1.0456
5325.00,1.0587
5324.00,1.0715
5323.00,1.0839
5322.00,1.0960
5321.00,1.1078
5320.00,1.1192
5319.00,1.1300
5318.00,1.1404
5317.00,1.1504
5316.00,1.1603
5315.00,1.1700
5314.00,1.1797
5313.00,1.1891
5312.00,1.1980
5311.00,1.2063
5310.00,1.2142
5309.00,1.2219
5308.00,1.2294
5307.00,1.2366
5306.00,1.2436
5305.00,1.2501
5304.00,1.2558
5303.00,1.2609
5302.00,1.2654
5301.00,1.2696
5300.00,1.2736
5299.00,1.2771
5298.00,1.2804
5297.00,1.2834
5296.00,1.2862
5295.00,1.2886
5294.00,1.2906
5293.00,1.2921
5292.00,1.2930
5291.00,1.2933
5290.00,1.2932
5289.00,1.2930
5288.00,1.2927
5287.00,1.2919
5286.00,1.2906
5285.00,1.2888
5284.00,1.2864
5283.00,1.2836
5282.00,1.2802
5281.00,1.2764
5280.00,1.2723
5279.00,1.2680
5278.00,1.2632
5277.00,1.2581
5276.00,1.2525
5275.00,1.2465
5274.00,1.2401
5273.00,1.2332
5272.00,1.2259
5271.00,1.2179
5270.00,1.2094
5269.00,1.2005
5268.00,1.1913
5267.00,1.1821
5266.00,1.1728
5265.00,1.1631
5264.00,1.1530
5263.00,1.1424
5262.00,1.1312
5261.00,1.1195
5260.00,1.1074
5259.00,1.0951
5258.00,1.0827
5257.00,1.0700
5256.00,1.0570
5255.00,1.0435
5254.00,1.0298
5253.00,1.0160
5252.00,1.0021
5251.00,0.9880
5250.00,0.9737
5249.00,0.9593
5248.00,0.9447
5247.00,0.9302
5246.00,0.9157
5245.00,0.9011
5244.00,0.8866
5243.00,0.8724
5242.00,0.8584
5241.00,0.8448
5240.00,0.8315
5239.00,0.8186
5238.00,0.8061
5237.00,0.7942
5236.00,0.7827
5235.00,0.7716
5234.00,0.7611
5233.00,0.7512
5232.00,0.7420
5231.00,0.7335
5230.00,0.7258
5229.00,0.7190
5228.00,0.7130
5227.00,0.7078
5226.00,0.7035
5225.00,0.7001
5224.00,0.6978
5223.00,0.6964
5222.00,0.6959
5221.00,0.6964
5220.00,0.6977
5219.00,0.7001
5218.00,0.7035
5217.00,0.7077
5216.00,0.7127
5215.00,0.7185
5214.00,0.7250
5213.00,0.7322
5212.00,0.7401
5211.00,0.7486
5210.00,0.7579
5209.00,0.7677
5208.00,0.7781
5207.00,0.7892
5206.00,0.8008
5205.00,0.8131
5204.00,0.8258
5203.00,0.8387
5202.00,0.8519
5201.00,0.8653
5200.00,0.8788
5199.00,0.8923
5198.00,0.9058
5197.00,0.9193
5196.00,0.9329
5195.00,0.9465
5194.00,0.9599
5193.00,0.9731
5192.00,0.9862
5191.00,0.9993
5190.00,1.0124
5189.00,1.0255
5188.00,1.0383
5187.00,1.0509
5186.00,1.0634
5185.00,1.0758
5184.00,1.0883
5183.00,1.1008
5182.00,1.1133
5181.00,1.1256
5180.00,1.1376
5179.00,1.1493
5178.00,1.1609
5177.00,1.1722
5176.00,1.1830
5175.00,1.1934
5174.00,1.2034
5173.00,1.2130
5172.00,1.2223
5171.00,1.2312
5170.00,1.2397
5169.00,1.2480
5168.00,1.2557
5167.00,1.2629
5166.00,1.2696
5165.00,1.2759
5164.00,1.2817
5163.00,1.2870
5162.00,1.2920
5161.00,1.2966
5160.00,1.3010
5159.00,1.3049
5158.00,1.3084
5157.00,1.3116
5156.00,1.3144
5155.00,1.3169
5154.00,1.3189
5153.00,1.3203
5152.00,1.3213
5151.00,1.3217
5150.00,1.3217
5149.00,1.3214
5148.00,1.3209
5147.00,1.3202
5146.00,1.3191
5145.00,1.3174
5144.00,1.3152
5143.00,1.3126
5142.00,1.3095
5141.00,1.3060
5140.00,1.3022
5139.00,1.2979
5138.00,1.2933
5137.00,1.2882
5136.00,1.2826
5135.00,1.2766
5134.00,1.2702
5133.00,1.2633
5132.00,1.2560
5131.00,1.2483
5130.00,1.2401
5129.00,1.2315
5128.00,1.2225
5127.00,1.2131
5126.00,1.2034
5125.00,1.1933
5124.00,1.1827
5123.00,1.1715
5122.00,1.1599
5121.00,1.1478
5120.00,1.1354
5119.00,1.1225
5118.00,1.1093
5117.00,1.0958
5116.00,1.0819
5115.00,1.0676
5114.00,1.0530
5113.00,1.0381
5112.00,1.0230
5111.00,1.0076
5110.00,0.9921
5109.00,0.9765
5108.00,0.9608
5107.00,0.9450
5106.00,0.9293
5105.00,0.9136
5104.00,0.8981
5103.00,0.8827
5102.00,0.8676
5101.00,0.8526
5100.00,0.8380
5099.00,0.8238
5098.00,0.8101
5097.00,0.7969
5096.00,0.7843
5095.00,0.7723
5094.00,0.7610
5093.00,0.7503
5092.00,0.7402
5091.00,0.7309
5090.00,0.7224
5089.00,0.7148
5088.00,0.7080
5087.00,0.7023
5086.00,0.6975
5085.00,0.6937
5084.00,0.6908
5083.00,0.6888
5082.00,0.6879
5081.00,0.6879
5080.00,0.6889
5079.00,0.6909
5078.00,0.6939
5077.00,0.6978
5076.00,0.7027
5075.00,0.7084
5074.00,0.7150
5073.00,0.7224
5072.00,0.7304
5071.00,0.7392
5070.00,0.7487
5069.00,0.7589
5068.00,0.7696
5067.00,0.7808
5066.00,0.7924
5065.00,0.8045
5064.00,0.8171
5063.00,0.8300
5062.00,0.8433
5061.00,0.8569
5060.00,0.8707
5059.00,0.8846
5058.00,0.8987
5057.00,0.9130
5056.00,0.9275
5055.00,0.9419
5054.00,0.9564
5053.00,0.9710
5052.00,0.9857
5051.00,1.0005
5050.00,1.0153
5049.00,1.0301
5048.00,1.0447
5047.00,1.0590
5046.00,1.0730
5045.00,1.0869
5044.00,1.1006
5043.00,1.1142
5042.00,1.1276
5041.00,1.1407
5040.00,1.1536
5039.00,1.1660
5038.00,1.1781
5037.00,1.1899
5036.00,1.2014
5035.00,1.2125
5034.00,1.2232
5033.00,1.2334
5032.00,1.2433
5031.00,1.2529
5030.00,1.2623
5029.00,1.2714
5028.00,1.2800
5027.00,1.2881
5026.00,1.2957
5025.00,1.3026
5024.00,1.3091
5023.00,1.3153
5022.00,1.3210
5021.00,1.3264
5020.00,1.3314
5019.00,1.3360
5018.00,1.3402
5017.00,1.3439
5016.00,1.3472
5015.00,1.3500
5014.00,1.3525
5013.00,1.3546
5012.00,1.3562
5011.00,1.3574
5010.00,1.3581
5009.00,1.3584
5008.00,1.3583
5007.00,1.3580
5006.00,1.3574
5005.00,1.3564
5004.00,1.3549
5003.00,1.3530
5002.00,1.3506
5001.00,1.3477
5000.00,1.3444
4999.00,1.3406
4998.00,1.3365
4997.00,1.3320
4996.00,1.3270
4995.00,1.3216
4994.00,1.3158
4993.00,1.3094
4992.00,1.3025
4991.00,1.2953
4990.00,1.2877
4989.00,1.2800
4988.00,1.2718
4987.00,1.2632
4986.00,1.2538
4985.00,1.2436
4984.00,1.2327
4983.00,1.2216
4982.00,1.2102
4981.00,1.1987
4980.00,1.1867
4979.00,1.1741
4978.00,1.1609
4977.00,1.1473
4976.00,1.1334
4975.00,1.1192
4974.00,1.1048
4973.00,1.0901
4972.00,1.0748
4971.00,1.0592
4970.00,1.0434
4969.00,1.0274
4968.00,1.0112
4967.00,0.9949
4966.00,0.9785
4965.00,0.9619
4964.00,0.9452
4963.00,0.9285
4962.00,0.9121
4961.00,0.8959
4960.00,0.8800
4959.00,0.8645
4958.00,0.8493
4957.00,0.8346
4956.00,0.8204
4955.00,0.8068
4954.00,0.7938
4953.00,0.7813
4952.00,0.7695
4951.00,0.7584
4950.00,0.7480
4949.00,0.7386
4948.00,0.7301
4947.00,0.7226
4946.00,0.7161
4945.00,0.7105
4944.00,0.7060
4943.00,0.7026
4942.00,0.7002
4941.00,0.6990
4940.00,0.6989
4939.00,0.6999
4938.00,0.7020
4937.00,0.7051
4936.00,0.7093
4935.00,0.7144
4934.00,0.7205
4933.00,0.7276
4932.00,0.7355
4931.00,0.7441
4930.00,0.7536
4929.00,0.7637
4928.00,0.7745
4927.00,0.7860
4926.00,0.7979
4925.00,0.8104
4924.00,0.8234
4923.00,0.8367
4922.00,0.8505
4921.00,0.8647
4920.00,0.8792
4919.00,0.8939
4918.00,0.9087
4917.00,0.9236
4916.00,0.9387
4915.00,0.9540
4914.00,0.9695
4913.00,0.9850
4912.00,1.0005
4911.00,1.0158
4910.00,1.0312
4909.00,1.0464
4908.00,1.0617
4907.00,1.0769
4906.00,1.0919
4905.00,1.1067
4904.00,1.1212
4903.00,1.1355
4902.00,1.1494
4901.00,1.1630
4900.00,1.1762
4899.00,1.1892
4898.00,1.2021
4897.00,1.2149
4896.00,1.2273
4895.00,1.2393
4894.00,1.2508
4893.00,1.2616
4892.00,1.2718
4891.00,1.2816
4890.00,1.2911
4889.00,1.3003
4888.00,1.3092
4887.00,1.3177
4886.00,1.3257
4885.00,1.3333
4884.00,1.3402
4883.00,1.3467
4882.00,1.3528
4881.00,1.3586
4880.00,1.3639
4879.00,1.3687
4878.00,1.3728
4877.00,1.3764
4876.00,1.3795
4875.00,1.3823
4874.00,1.3850
4873.00,1.3876
4872.00,1.3899
4871.00,1.3915
4870.00,1.3924
4869.00,1.3925
4868.00,1.3921
4867.00,1.3915
4866.00,1.3907
4865.00,1.3898
4864.00,1.3885
4863.00,1.3869
4862.00,1.3848
4861.00,1.3821
4860.00,1.3787
4859.00,1.3747
4858.00,1.3700
4857.00,1.3651
4856.00,1.3599
4855.00,1.3546
4854.00,1.3490
4853.00,1.3429
4852.00,1.3363
4851.00,1.3290
4850.00,1.3213
4849.00,1.3130
4848.00,1.3043
4847.00,1.2952
4846.00,1.2857
4845.00,1.2759
4844.00,1.2657
4843.00,1.2550
4842.00,1.2437
4841.00,1.2320
4840.00,1.2197
4839.00,1.2069
4838.00,1.1936
4837.00,1.1799
4836.00,1.1656
4835.00,1.1509
4834.00,1.1359
4833.00,1.1206
4832.00,1.1050
4831.00,1.0892
4830.00,1.0730
4829.00,1.0566
4828.00,1.0398
4827.00,1.0227
4826.00,1.0055
4825.00,0.9882
4824.00,0.9710
4823.00,0.9539
4822.00,0.9369
4821.00,0.9200
4820.00,0.9032
4819.00,0.8867
4818.00,0.8704
4817.00,0.8545
4816.00,0.8391
4815.00,0.8241
4814.00,0.8097
4813.00,0.7960
4812.00,0.7830
4811.00,0.7707
4810.00,0.7592
4809.00,0.7486
4808.00,0.7388
4807.00,0.7300
4806.00,0.7223
4805.00,0.7157
4804.00,0.7102
4803.00,0.7059
4802.00,0.7027
4801.00,0.7008
4800.00,0.7000
4799.00,0.7004
4798.00,0.7020
4797.00,0.7047
4796.00,0.7086
4795.00,0.7135
4794.00,0.7195
4793.00,0.7265
4792.00,0.7345
4791.00,0.7434
4790.00,0.7532
4789.00,0.7637
4788.00,0.7750
4787.00,0.7870
4786.00,0.7995
4785.00,0.8127
4784.00,0.8263
4783.00,0.8404
4782.00,0.8550
4781.00,0.8698
4780.00,0.8850
4779.00,0.9003
4778.00,0.9159
4777.00,0.9317
4776.00,0.9477
4775.00,0.9638
4774.00,0.9801
4773.00,0.9965
4772.00,1.0129
4771.00,1.0292
4770.00,1.0455
4769.00,1.0616
4768.00,1.0776
4767.00,1.0935
4766.00,1.1093
4765.00,1.1250
4764.00,1.1404
4763.00,1.1556
4762.00,1.1706
4761.00,1.1853
4760.00,1.1998
4759.00,1.2140
4758.00,1.2278
4757.00,1.2410
4756.00,1.2538
4755.00,1.2662
4754.00,1.2784
4753.00,1.2902
4752.00,1.3016
4751.00,1.3124
4750.00,1.3225
4749.00,1.3321
4748.00,1.3411
4747.00,1.3498
4746.00,1.3583
4745.00,1.3664
4744.00,1.3743
4743.00,1.3815
4742.00,1.3882
4741.00,1.3941
4740.00,1.3995
4739.00,1.4045
4738.00,1.4092
4737.00,1.4138
4736.00,1.4179
4735.00,1.4214
4734.00,1.4243
4733.00,1.4268
4732.00,1.4290
4731.00,1.4310
4730.00,1.4328
4729.00,1.4341
4728.00,1.4350
4727.00,1.4353
4726.00,1.4351
4725.00,1.4344
4724.00,1.4334
4723.00,1.4320
4722.00,1.4301
4721.00,1.4277
4720.00,1.4247
4719.00,1.4212
4718.00,1.4173
4717.00,1.4131
4716.00,1.4088
4715.00,1.4041
4714.00,1.3990
4713.00,1.3933
4712.00,1.3870
4711.00,1.3801
4710.00,1.3727
4709.00,1.3649
4708.00,1.3568
4707.00,1.3482
4706.00,1.3389
4705.00,1.3291
4704.00,1.3188
4703.00,1.3080
4702.00,1.2970
4701.00,1.2855
4700.00,1.2736
4699.00,1.2612
4698.00,1.2481
4697.00,1.2345
4696.00,1.2204
4695.00,1.2058
4694.00,1.1906
4693.00,1.1749
4692.00,1.1588
4691.00,1.1423
4690.00,1.1254
4689.00,1.1081
4688.00,1.0906
4687.00,1.0728
4686.00,1.0549
4685.00,1.0368
4684.00,1.0187
4683.00,1.0004
4682.00,0.9821
4681.00,0.9639
4680.00,0.9458
4679.00,0.9279
4678.00,0.9103
4677.00,0.8930
4676.00,0.8760
4675.00,0.8595
4674.00,0.8434
4673.00,0.8281
4672.00,0.8134
4671.00,0.7995
4670.00,0.7864
4669.00,0.7741
4668.00,0.7628
4667.00,0.7525
4666.00,0.7432
4665.00,0.7351
4664.00,0.7282
4663.00,0.7225
4662.00,0.7181
4661.00,0.7150
4660.00,0.7131
4659.00,0.7126
4658.00,0.7133
4657.00,0.7153
4656.00,0.7186
4655.00,0.7232
4654.00,0.7290
4653.00,0.7358
4652.00,0.7437
4651.00,0.7526
4650.00,0.7625
4649.00,0.7733
4648.00,0.7850
4647.00,0.7974
4646.00,0.8104
4645.00,0.8240
4644.00,0.8382
4643.00,0.8528
4642.00,0.8679
4641.00,0.8834
4640.00,0.8993
4639.00,0.9156
4638.00,0.9320
4637.00,0.9487
4636.00,0.9655
4635.00,0.9825
4634.00,0.9996
4633.00,1.0169
4632.00,1.0342
4631.00,1.0514
4630.00,1.0685
4629.00,1.0855
4628.00,1.1025
4627.00,1.1193
4626.00,1.1360
4625.00,1.1526
4624.00,1.1689
4623.00,1.1851
4622.00,1.2009
4621.00,1.2164
4620.00,1.2315
4619.00,1.2463
4618.00,1.2605
4617.00,1.2743
4616.00,1.2876
4615.00,1.3003
4614.00,1.3126
4613.00,1.3246
4612.00,1.3362
4611.00,1.3476
4610.00,1.3585
4609.00,1.3689
4608.00,1.3787
4607.00,1.3878
4606.00,1.3963
4605.00,1.4043
4604.00,1.4118
4603.00,1.4190
4602.00,1.4258
4601.00,1.4322
4600.00,1.4381
4599.00,1.4436
4598.00,1.4485
4597.00,1.4531
4596.00,1.4575
4595.00,1.4616
4594.00,1.4653
4593.00,1.4685
4592.00,1.4712
4591.00,1.4733
4590.00,1.4751
4589.00,1.4766
4588.00,1.4778
4587.00,1.4785
4586.00,1.4785
4585.00,1.4779
4584.00,1.4766
4583.00,1.4750
4582.00,1.4731
4581.00,1.4708
4580.00,1.4682
4579.00,1.4652
4578.00,1.4618
4577.00,1.4579
4576.00,1.4533
4575.00,1.4481
4574.00,1.4423
4573.00,1.4361
4572.00,1.4294
4571.00,1.4225
4570.00,1.4153
4569.00,1.4076
4568.00,1.3994
4567.00,1.3908
4566.00,1.3815
4565.00,1.3717
4564.00,1.3613
4563.00,1.3503
4562.00,1.3387
4561.00,1.3266
4560.00,1.3139
4559.00,1.3008
4558.00,1.2871
4557.00,1.2730
4556.00,1.2583
4555.00,1.2432
4554.00,1.2277
4553.00,1.2118
4552.00,1.1955
4551.00,1.1788
4550.00,1.1617
4549.00,1.1444
4548.00,1.1267
4547.00,1.1087
4546.00,1.0903
4545.00,1.0717
4544.00,1.0528
4543.00,1.0338
4542.00,1.0149
4541.00,0.9960
4540.00,0.9771
4539.00,0.9584
4538.00,0.9398
4537.00,0.9215
4536.00,0.9035
4535.00,0.8860
4534.00,0.8691
4533.00,0.8527
4532.00,0.8370
4531.00,0.8220
4530.00,0.8080
4529.00,0.7948
4528.00,0.7828
4527.00,0.7717
4526.00,0.7618
4525.00,0.7531
4524.00,0.7456
4523.00,0.7394
4522.00,0.7347
4521.00,0.7314
4520.00,0.7295
4519.00,0.7291
4518.00,0.7300
4517.00,0.7324
4516.00,0.7362
4515.00,0.7413
4514.00,0.7478
4513.00,0.7554
4512.00,0.7642
4511.00,0.7741
4510.00,0.7850
4509.00,0.7969
4508.00,0.8097
4507.00,0.8233
4506.00,0.8375
4505.00,0.8524
4504.00,0.8678
4503.00,0.8838
4502.00,0.9002
4501.00,0.9170
4500.00,0.9342
4499.00,0.9516
4498.00,0.9693
4497.00,0.9872
4496.00,1.0052
4495.00,1.0234
4494.00,1.0416
4493.00,1.0598
4492.00,1.0781
4491.00,1.0963
4490.00,1.1145
4489.00,1.1325
4488.00,1.1502
4487.00,1.1677
4486.00,1.1849
4485.00,1.2018
4484.00,1.2184
4483.00,1.2347
4482.00,1.2505
4481.00,1.2658
4480.00,1.2804
4479.00,1.2946
4478.00,1.3084
4477.00,1.3218
4476.00,1.3349
4475.00,1.3477
4474.00,1.3603
4473.00,1.3726
4472.00,1.3843
4471.00,1.3955
4470.00,1.4060
4469.00,1.4160
4468.00,1.4258
4467.00,1.4355
4466.00,1.4450
4465.00,1.4541
4464.00,1.4627
4463.00,1.4708
4462.00,1.4782
4461.00,1.4851
4460.00,1.4914
4459.00,1.4973
4458.00,1.5029
4457.00,1.5081
4456.00,1.5130
4455.00,1.5175
4454.00,1.5215
4453.00,1.5249
4452.00,1.5277
4451.00,1.5301
4450.00,1.5322
4449.00,1.5341
4448.00,1.5357
4447.00,1.5371
4446.00,1.5381
4445.00,1.5385
4444.00,1.5384
4443.00,1.5377
4442.00,1.5367
4441.00,1.5356
4440.00,1.5346
4439.00,1.5334
4438.00,1.5318
4437.00,1.5293
4436.00,1.5259
4435.00,1.5217
4434.00,1.5170
4433.00,1.5118
4432.00,1.5062
4431.00,1.5000
4430.00,1.4931
4429.00,1.4857
4428.00,1.4777
4427.00,1.4694
4426.00,1.4607
4425.00,1.4514
4424.00,1.4416
4423.00,1.4312
4422.00,1.4202
4421.00,1.4087
4420.00,1.3967
4419.00,1.3842
4418.00,1.3712
4417.00,1.3577
4416.00,1.3437
4415.00,1.3292
4414.00,1.3141
4413.00,1.2985
4412.00,1.2825
4411.00,1.2662
4410.00,1.2496
4409.00,1.2329
4408.00,1.2160
4407.00,1.1992
4406.00,1.1824
4405.00,1.1656
4404.00,1.1491
4403.00,1.1328
4402.00,1.1167
4401.00,1.1008
4400.00,1.0850
4399.00,1.0692
4398.00,1.0534
4397.00,1.0377
4396.00,1.0219
4395.00,1.0061
4394.00,0.9904
4393.00,0.9747
4392.00,0.9594
4391.00,0.9444
4390.00,0.9299
4389.00,0.9162
4388.00,0.9032
4387.00,0.8911
4386.00,0.8802
4385.00,0.8704
4384.00,0.8619
4383.00,0.8549
4382.00,0.8493
4381.00,0.8452
4380.00,0.8426
4379.00,0.8416
4378.00,0.8421
4377.00,0.8441
4376.00,0.8474
4375.00,0.8521
4374.00,0.8579
4373.00,0.8649
4372.00,0.8727
4371.00,0.8813
4370.00,0.8905
4369.00,0.9001
4368.00,0.9100
4367.00,0.9201
4366.00,0.9303
4365.00,0.9405
4364.00,0.9507
4363.00,0.9609
4362.00,0.9712
4361.00,0.9818
4360.00,0.9924
4359.00,1.0033
4358.00,1.0146
4357.00,1.0262
4356.00,1.0382
4355.00,1.0508
4354.00,1.0638
4353.00,1.0774
4352.00,1.0916
4351.00,1.1062
4350.00,1.1212
4349.00,1.1365
4348.00,1.1521
4347.00,1.1680
4346.00,1.1841
4345.00,1.2005
4344.00,1.2170
4343.00,1.2335
4342.00,1.2498
4341.00,1.2660
4340.00,1.2819
4339.00,1.2976
4338.00,1.3131
4337.00,1.3283
4336.00,1.3433
4335.00,1.3582
4334.00,1.3728
4333.00,1.3869
4332.00,1.4005
4331.00,1.4135
4330.00,1.4261
4329.00,1.4382
4328.00,1.4497
4327.00,1.4607
4326.00,1.4711
4325.00,1.4811
4324.00,1.4906
4323.00,1.4998
4322.00,1.5084
4321.00,1.5163
4320.00,1.5236
4319.00,1.5305
4318.00,1.5368
4317.00,1.5427
4316.00,1.5481
4315.00,1.5530
4314.00,1.5575
4313.00,1.5617
4312.00,1.5652
4311.00,1.5682
4310.00,1.5706
4309.00,1.5726
4308.00,1.5747
4307.00,1.5767
4306.00,1.5785
4305.00,1.5796
4304.00,1.5797
4303.00,1.5792
4302.00,1.5782
4301.00,1.5771
4300.00,1.5758
4299.00,1.5741
4298.00,1.5719
4297.00,1.5690
4296.00,1.5658
4295.00,1.5622
4294.00,1.5582
4293.00,1.5536
4292.00,1.5485
4291.00,1.5428
4290.00,1.5368
4289.00,1.5303
4288.00,1.5234
4287.00,1.5160
4286.00,1.5081
4285.00,1.4998
4284.00,1.4909
4283.00,1.4814
4282.00,1.4712
4281.00,1.4605
4280.00,1.4494
4279.00,1.4378
4278.00,1.4258
4277.00,1.4131
4276.00,1.3999
4275.00,1.3861
4274.00,1.3717
4273.00,1.3567
4272.00,1.3408
4271.00,1.3244
4270.00,1.3074
4269.00,1.2900
4268.00,1.2720
4267.00,1.2535
4266.00,1.2344
4265.00,1.2146
4264.00,1.1943
4263.00,1.1736
4262.00,1.1524
4261.00,1.1309
4260.00,1.1091
4259.00,1.0871
4258.00,1.0651
4257.00,1.0430
4256.00,1.0209
4255.00,0.9990
4254.00,0.9773
4253.00,0.9560
4252.00,0.9353
4251.00,0.9152
4250.00,0.8957
4249.00,0.8771
4248.00,0.8592
4247.00,0.8424
4246.00,0.8266
4245.00,0.8120
4244.00,0.7987
4243.00,0.7867
4242.00,0.7763
4241.00,0.7674
4240.00,0.7601
4239.00,0.7543
4238.00,0.7502
4237.00,0.7478
4236.00,0.7471
4235.00,0.7481
4234.00,0.7508
4233.00,0.7551
4232.00,0.7610
4231.00,0.7685
4230.00,0.7773
4229.00,0.7876
4228.00,0.7991
4227.00,0.8117
4226.00,0.8254
4225.00,0.8401
4224.00,0.8556
4223.00,0.8720
4222.00,0.8890
4221.00,0.9066
4220.00,0.9247
4219.00,0.9432
4218.00,0.9621
4217.00,0.9814
4216.00,1.0010
4215.00,1.0210
4214.00,1.0412
4213.00,1.0615
4212.00,1.0819
4211.00,1.1022
4210.00,1.1225
4209.00,1.1429
4208.00,1.1632
4207.00,1.1835
4206.00,1.2036
4205.00,1.2234
4204.00,1.2429
4203.00,1.2620
4202.00,1.2809
4201.00,1.2994
4200.00,1.3175
4199.00,1.3353
4198.00,1.3527
4197.00,1.3696
4196.00,1.3860
4195.00,1.4018
4194.00,1.4170
4193.00,1.4316
4192.00,1.4457
4191.00,1.4591
4190.00,1.4720
4189.00,1.4843
4188.00,1.4962
4187.00,1.5076
4186.00,1.5185
4185.00,1.5287
4184.00,1.5384
4183.00,1.5474
4182.00,1.5559
4181.00,1.5640
4180.00,1.5715
4179.00,1.5786
4178.00,1.5852
4177.00,1.5914
4176.00,1.5972
4175.00,1.6027
4174.00,1.6077
4173.00,1.6121
4172.00,1.6159
4171.00,1.6193
4170.00,1.6221
4169.00,1.6246
4168.00,1.6266
4167.00,1.6282
4166.00,1.6294
4165.00,1.6302
4164.00,1.6305
4163.00,1.6306
4162.00,1.6304
4161.00,1.6299
4160.00,1.6290
4159.00,1.6275
4158.00,1.6253
4157.00,1.6224
4156.00,1.6189
4155.00,1.6149
4154.00,1.6107
4153.00,1.6063
4152.00,1.6016
4151.00,1.5964
4150.00,1.5906
4149.00,1.5842
4148.00,1.5774
4147.00,1.5702
4146.00,1.5624
4145.00,1.5540
4144.00,1.5449
4143.00,1.5352
4142.00,1.5251
4141.00,1.5146
4140.00,1.5036
4139.00,1.4921
4138.00,1.4799
4137.00,1.4672
4136.00,1.4539
4135.00,1.4401
4134.00,1.4254
4133.00,1.4101
4132.00,1.3940
4131.00,1.3772
4130.00,1.3598
4129.00,1.3418
4128.00,1.3233
4127.00,1.3043
4126.00,1.2846
4125.00,1.2643
4124.00,1.2434
4123.00,1.2219
4122.00,1.1999
4121.00,1.1775
4120.00,1.1549
4119.00,1.1320
4118.00,1.1089
4117.00,1.0858
4116.00,1.0627
4115.00,1.0398
4114.00,1.0172
4113.00,0.9948
4112.00,0.9729
4111.00,0.9515
4110.00,0.9309
4109.00,0.9112
4108.00,0.8924
4107.00,0.8746
4106.00,0.8580
4105.00,0.8426
4104.00,0.8286
4103.00,0.8159
4102.00,0.8048
4101.00,0.7953
4100.00,0.7874
4099.00,0.7811
4098.00,0.7767
4097.00,0.7741
4096.00,0.7733
4095.00,0.7743
4094.00,0.7773
4093.00,0.7821
4092.00,0.7886
4091.00,0.7969
4090.00,0.8066
4089.00,0.8179
4088.00,0.8305
4087.00,0.8444
4086.00,0.8594
4085.00,0.8755
4084.00,0.8924
4083.00,0.9102
4082.00,0.9286
4081.00,0.9477
4080.00,0.9673
4079.00,0.9874
4078.00,1.0078
4077.00,1.0284
4076.00,1.0494
4075.00,1.0705
4074.00,1.0917
4073.00,1.1129
4072.00,1.1341
4071.00,1.1555
4070.00,1.1769
4069.00,1.1983
4068.00,1.2196
4067.00,1.2405
4066.00,1.2611
4065.00,1.2814
4064.00,1.3014
4063.00,1.3213
4062.00,1.3409
4061.00,1.3600
4060.00,1.3787
4059.00,1.3967
4058.00,1.4142
4057.00,1.4312
4056.00,1.4478
4055.00,1.4639
4054.00,1.4793
4053.00,1.4941
4052.00,1.5084
4051.00,1.5221
4050.00,1.5353
4049.00,1.5480
4048.00,1.5601
4047.00,1.5715
4046.00,1.5822
4045.00,1.5924
4044.00,1.6022
4043.00,1.6115
4042.00,1.6204
4041.00,1.6289
4040.00,1.6370
4039.00,1.6445
4038.00,1.6513
4037.00,1.6574
4036.00,1.6629
4035.00,1.6680
4034.00,1.6728
4033.00,1.6773
4032.00,1.6813
4031.00,1.6849
4030.00,1.6883
4029.00,1.6913
4028.00,1.6937
4027.00,1.6953
4026.00,1.6961
4025.00,1.6965
4024.00,1.6968
4023.00,1.6969
4022.00,1.6969
4021.00,1.6963
4020.00,1.6949
4019.00,1.6929
4018.00,1.6904
4017.00,1.6875
4016.00,1.6843
4015.00,1.6806
4014.00,1.6764
4013.00,1.6716
4012.00,1.6665
4011.00,1.6611
4010.00,1.6554
4009.00,1.6491
4008.00,1.6422
4007.00,1.6347
4006.00,1.6267
4005.00,1.6184
4004.00,1.6098
4003.00,1.6005
4002.00,1.5906
4001.00,1.5800
4000.00,1.5688
3999.00,1.5571
3998.00,1.5449
3997.00,1.5321
3996.00,1.5187
3995.00,1.5048
3994.00,1.4902
3993.00,1.4750
3992.00,1.4591
3991.00,1.4424
3990.00,1.4250
3989.00,1.4069
3988.00,1.3882
3987.00,1.3691
3986.00,1.3496
3985.00,1.3296
3984.00,1.3091
3983.00,1.2883
3982.00,1.2672
3981.00,1.2458
3980.00,1.2244
3979.00,1.2028
3978.00,1.1812
3977.00,1.1596
3976.00,1.1379
3975.00,1.1162
3974.00,1.0942
3973.00,1.0722
3972.00,1.0502
3971.00,1.0282
3970.00,1.0064
3969.00,0.9848
3968.00,0.9637
3967.00,0.9431
3966.00,0.9232
3965.00,0.9044
3964.00,0.8866
3963.00,0.8701
3962.00,0.8550
3961.00,0.8414
3960.00,0.8294
3959.00,0.8194
3958.00,0.8112
3957.00,0.8050
3956.00,0.8008
3955.00,0.7987
3954.00,0.7987
3953.00,0.8008
3952.00,0.8050
3951.00,0.8111
3950.00,0.8191
3949.00,0.8288
3948.00,0.8402
3947.00,0.8531
3946.00,0.8672
3945.00,0.8824
3944.00,0.8988
3943.00,0.9165
3942.00,0.9354
3941.00,0.9551
3940.00,0.9752
3939.00,0.9956
3938.00,1.0164
3937.00,1.0376
3936.00,1.0592
3935.00,1.0811
3934.00,1.1033
3933.00,1.1260
3932.00,1.1493
3931.00,1.1728
3930.00,1.1963
3929.00,1.2193
3928.00,1.2419
3927.00,1.2640
3926.00,1.2860
3925.00,1.3080
3924.00,1.3299
3923.00,1.3516
3922.00,1.3727
3921.00,1.3931
3920.00,1.4129
3919.00,1.4323
3918.00,1.4515
3917.00,1.4705
3916.00,1.4890
3915.00,1.5067
3914.00,1.5232
3913.00,1.5386
3912.00,1.5532
3911.00,1.5672
3910.00,1.5808
3909.00,1.5938
3908.00,1.6061
3907.00,1.6176
3906.00,1.6285
3905.00,1.6391
3904.00,1.6496
3903.00,1.6601
3902.00,1.6703
3901.00,1.6799
3900.00,1.6889
3899.00,1.6974
3898.00,1.7054
3897.00,1.7127
3896.00,1.7191
3895.00,1.7246
3894.00,1.7293
3893.00,1.7333
3892.00,1.7369
3891.00,1.7404
3890.00,1.7439
3889.00,1.7474
3888.00,1.7503
3887.00,1.7525
3886.00,1.7541
3885.00,1.7554
3884.00,1.7565
3883.00,1.7571
3882.00,1.7567
3881.00,1.7554
3880.00,1.7535
3879.00,1.7516
3878.00,1.7500
3877.00,1.7484
3876.00,1.7460
3875.00,1.7427
3874.00,1.7388
3873.00,1.7347
3872.00,1.7305
3871.00,1.7259
3870.00,1.7205
3869.00,1.7142
3868.00,1.7075
3867.00,1.7004
3866.00,1.6928
3865.00,1.6844
3864.00,1.6751
3863.00,1.6652
3862.00,1.6549
3861.00,1.6445
3860.00,1.6336
3859.00,1.6224
3858.00,1.6112
3857.00,1.6002
3856.00,1.5889
3855.00,1.5761
3854.00,1.5607
3853.00,1.5426
3852.00,1.5236
3851.00,1.5055
3850.00,1.4879
3849.00,1.4695
3848.00,1.4502
3847.00,1.4302
3846.00,1.4098
3845.00,1.3887
3844.00,1.3667
3843.00,1.3438
3842.00,1.3204
3841.00,1.2966
3840.00,1.2721
3839.00,1.2462
3838.00,1.2185
3837.00,1.1897
3836.00,1.1611
3835.00,1.1334
3834.00,1.1065
3833.00,1.0796
3832.00,1.0526
3831.00,1.0259
3830.00,1.0002
3829.00,0.9756
3828.00,0.9520
3827.00,0.9293
3826.00,0.9077
3825.00,0.8880
3824.00,0.8706
3823.00,0.8550
3822.00,0.8403
3821.00,0.8266
3820.00,0.8145
3819.00,0.8052
3818.00,0.7989
3817.00,0.7950
3816.00,0.7933
3815.00,0.7934
3814.00,0.7956
3813.00,0.8000
3812.00,0.8066
3811.00,0.8154
3810.00,0.8259
3809.00,0.8384
3808.00,0.8534
3807.00,0.8712
3806.00,0.8908
3805.00,0.9107
3804.00,0.9298
3803.00,0.9491
3802.00,0.9705
3801.00,0.9951
3800.00,1.0215
3799.00,1.0474
3798.00,1.0716
3797.00,1.0949
3796.00,1.1186
3795.00,1.1431
3794.00,1.1681
3793.00,1.1929
3792.00,1.2174
3791.00,1.2417
3790.00,1.2658
3789.00,1.2899
3788.00,1.3140
3787.00,1.3381
3786.00,1.3619
3785.00,1.3854
3784.00,1.4087
3783.00,1.4313
3782.00,1.4532
3781.00,1.4744
3780.00,1.4953
3779.00,1.5159
3778.00,1.5362
3777.00,1.5556
3776.00,1.5740
3775.00,1.5909
3774.00,1.6066
3773.00,1.6213
3772.00,1.6355
3771.00,1.6495
3770.00,1.6635
3769.00,1.6775
3768.00,1.6909
3767.00,1.7032
3766.00,1.7146
3765.00,1.7251
3764.00,1.7352
3763.00,1.7446
3762.00,1.7534
3761.00,1.7615
3760.00,1.7691
3759.00,1.7764
3758.00,1.7835
3757.00,1.7902
3756.00,1.7963
3755.00,1.8014
3754.00,1.8055
3753.00,1.8090
3752.00,1.8124
3751.00,1.8161
3750.00,1.8200
3749.00,1.8239
3748.00,1.8269
3747.00,1.8285
3746.00,1.8286
3745.00,1.8278
3744.00,1.8267
3743.00,1.8259
3742.00,1.8255
3741.00,1.8247
3740.00,1.8226
3739.00,1.8193
3738.00,1.8155
3737.00,1.8116
3736.00,1.8076
3735.00,1.8033
3734.00,1.7985
3733.00,1.7929
3732.00,1.7868
3731.00,1.7805
3730.00,1.7743
3729.00,1.7676
3728.00,1.7599
3727.00,1.7511
3726.00,1.7417
3725.00,1.7321
3724.00,1.7222
3723.00,1.7115
3722.00,1.7000
3721.00,1.6876
3720.00,1.6748
3719.00,1.6617
3718.00,1.6482
3717.00,1.6339
3716.00,1.6189
3715.00,1.6032
3714.00,1.5867
3713.00,1.5689
3712.00,1.5494
3711.00,1.5284
3710.00,1.5068
3709.00,1.4850
3708.00,1.4628
3707.00,1.4399
3706.00,1.4164
3705.00,1.3921
3704.00,1.3671
3703.00,1.3410
3702.00,1.3141
3701.00,1.2866
3700.00,1.2593
3699.00,1.2325
3698.00,1.2061
3697.00,1.1798
3696.00,1.1540
3695.00,1.1291
3694.00,1.1056
3693.00,1.0836
3692.00,1.0629
3691.00,1.0436
3690.00,1.0254
3689.00,1.0082
3688.00,0.9921
3687.00,0.9781
3686.00,0.9668
3685.00,0.9584
3684.00,0.9526
3683.00,0.9494
3682.00,0.9487
3681.00,0.9506
3680.00,0.9550
3679.00,0.9616
3678.00,0.9704
3677.00,0.9816
3676.00,0.9955
3675.00,1.0117
3674.00,1.0288
3673.00,1.0456
3672.00,1.0624
3671.00,1.0806
3670.00,1.1011
3669.00,1.1235
3668.00,1.1462
3667.00,1.1681
3666.00,1.1892
3665.00,1.2099
3664.00,1.2307
3663.00,1.2519
3662.00,1.2735
3661.00,1.2953
3660.00,1.3170
3659.00,1.3384
3658.00,1.3595
3657.00,1.3811
3656.00,1.4034
3655.00,1.4261
3654.00,1.4475
3653.00,1.4668
3652.00,1.4843
3651.00,1.5015
3650.00,1.5198
3649.00,1.5397
3648.00,1.5610
3647.00,1.5822
3646.00,1.6016
3645.00,1.6188
3644.00,1.6342
3643.00,1.6488
3642.00,1.6631
3641.00,1.6770
3640.00,1.6907
3639.00,1.7042
3638.00,1.7175
3637.00,1.7304
3636.00,1.7429
3635.00,1.7553
3634.00,1.7673
3633.00,1.7786
3632.00,1.7891
3631.00,1.7990
3630.00,1.8090
3629.00,1.8198
3628.00,1.8315
3627.00,1.8434
3626.00,1.8540
3625.00,1.8627
3624.00,1.8699
3623.00,1.8763
3622.00,1.8823
3621.00,1.8882
3620.00,1.8944
3619.00,1.9007
3618.00,1.9069
3617.00,1.9128
3616.00,1.9182
3615.00,1.9229
3614.00,1.9269
3613.00,1.9303
3612.00,1.9335
3611.00,1.9364
3610.00,1.9384
3609.00,1.9394
3608.00,1.9400
3607.00,1.9407
3606.00,1.9416
3605.00,1.9425
3604.00,1.9435
3603.00,1.9442
3602.00,1.9444
3601.00,1.9441
3600.00,1.9431
3599.00,1.9415
3598.00,1.9388
3597.00,1.9354
3596.00,1.9321
3595.00,1.9292
3594.00,1.9263
3593.00,1.9231
3592.00,1.9195
3591.00,1.9155
3590.00,1.9111
3589.00,1.9059
3588.00,1.9002
3587.00,1.8940
3586.00,1.8873
3585.00,1.8801
3584.00,1.8724
3583.00,1.8643
3582.00,1.8558
3581.00,1.8468
3580.00,1.8377
3579.00,1.8283
3578.00,1.8182
3577.00,1.8074
3576.00,1.7960
3575.00,1.7842
3574.00,1.7721
3573.00,1.7596
3572.00,1.7467
3571.00,1.7333
3570.00,1.7193
3569.00,1.7044
3568.00,1.6887
3567.00,1.6722
3566.00,1.6553
3565.00,1.6383
3564.00,1.6211
3563.00,1.6039
3562.00,1.5864
3561.00,1.5687
3560.00,1.5506
3559.00,1.5324
3558.00,1.5140
3557.00,1.4956
3556.00,1.4775
3555.00,1.4595
3554.00,1.4416
3553.00,1.4237
3552.00,1.4060
3551.00,1.3886
3550.00,1.3719
3549.00,1.3558
3548.00,1.3403
3547.00,1.3253
3546.00,1.3105
3545.00,1.2961
3544.00,1.2824
3543.00,1.2695
3542.00,1.2575
3541.00,1.2464
3540.00,1.2361
3539.00,1.2267
3538.00,1.2182
3537.00,1.2106
3536.00,1.2040
3535.00,1.1984
3534.00,1.1939
3533.00,1.1905
3532.00,1.1882
3531.00,1.1872
3530.00,1.1875
3529.00,1.1890
3528.00,1.1917
3527.00,1.1958
3526.00,1.2010
3525.00,1.2075
3524.00,1.2152
3523.00,1.2242
3522.00,1.2343
3521.00,1.2455
3520.00,1.2578
3519.00,1.2710
3518.00,1.2853
3517.00,1.3004
3516.00,1.3163
3515.00,1.3329
3514.00,1.3502
3513.00,1.3680
3512.00,1.3863
3511.00,1.4051
3510.00,1.4244
3509.00,1.4440
3508.00,1.4638
3507.00,1.4837
3506.00,1.5034
3505.00,1.5232
3504.00,1.5430
3503.00,1.5630
3502.00,1.5829
3501.00,1.6026
3500.00,1.6219
3499.00,1.6407
3498.00,1.6593
3497.00,1.6776
3496.00,1.6956
3495.00,1.7131
3494.00,1.7300
3493.00,1.7462
3492.00,1.7616
3491.00,1.7765
3490.00,1.7908
3489.00,1.8047
3488.00,1.8181
3487.00,1.8310
3486.00,1.8433
3485.00,1.8549
3484.00,1.8662
3483.00,1.8772
3482.00,1.8880
3481.00,1.8982
3480.00,1.9077
3479.00,1.9164
3478.00,1.9244
3477.00,1.9318
3476.00,1.9389
3475.00,1.9459
3474.00,1.9526
3473.00,1.9589
3472.00,1.9645
3471.00,1.9696
3470.00,1.9741
3469.00,1.9784
3468.00,1.9822
3467.00,1.9857
3466.00,1.9885
3465.00,1.9905
3464.00,1.9918
3463.00,1.9924
3462.00,1.9927
3461.00,1.9931
3460.00,1.9937
3459.00,1.9941
3458.00,1.9939
3457.00,1.9931
3456.00,1.9919
3455.00,1.9903
3454.00,1.9880
3453.00,1.9851
3452.00,1.9819
3451.00,1.9785
3450.00,1.9747
3449.00,1.9704
3448.00,1.9654
3447.00,1.9596
3446.00,1.9531
3445.00,1.9463
3444.00,1.9394
3443.00,1.9326
3442.00,1.9253
3441.00,1.9174
3440.00,1.9087
3439.00,1.8993
3438.00,1.8894
3437.00,1.8788
3436.00,1.8676
3435.00,1.8557
3434.00,1.8430
3433.00,1.8297
3432.00,1.8159
3431.00,1.8017
3430.00,1.7868
3429.00,1.7711
3428.00,1.7547
3427.00,1.7375
3426.00,1.7198
3425.00,1.7017
3424.00,1.6831
3423.00,1.6638
3422.00,1.6433
3421.00,1.6217
3420.00,1.5993
3419.00,1.5762
3418.00,1.5526
3417.00,1.5286
3416.00,1.5042
3415.00,1.4795
3414.00,1.4544
3413.00,1.4289
3412.00,1.4034
3411.00,1.3779
3410.00,1.3525
3409.00,1.3275
3408.00,1.3030
3407.00,1.2790
3406.00,1.2558
3405.00,1.2334
3404.00,1.2120
3403.00,1.1915
3402.00,1.1722
3401.00,1.1540
3400.00,1.1371
3399.00,1.1217
3398.00,1.1078
3397.00,1.0956
3396.00,1.0853
3395.00,1.0771
3394.00,1.0711
3393.00,1.0673
3392.00,1.0658
3391.00,1.0666
3390.00,1.0697
3389.00,1.0751
3388.00,1.0825
3387.00,1.0920
3386.00,1.1034
3385.00,1.1165
3384.00,1.1313
3383.00,1.1474
3382.00,1.1649
3381.00,1.1835
3380.00,1.2033
3379.00,1.2241
3378.00,1.2457
3377.00,1.2679
3376.00,1.2906
3375.00,1.3139
3374.00,1.3376
3373.00,1.3617
3372.00,1.3861
3371.00,1.4107
3370.00,1.4355
3369.00,1.4605
3368.00,1.4856
3367.00,1.5104
3366.00,1.5347
3365.00,1.5584
3364.00,1.5818
3363.00,1.6049
3362.00,1.6277
3361.00,1.6502
3360.00,1.6722
3359.00,1.6937
3358.00,1.7143
3357.00,1.7341
3356.00,1.7530
3355.00,1.7713
3354.00,1.7890
3353.00,1.8063
3352.00,1.8230
3351.00,1.8389
3350.00,1.8540
3349.00,1.8682
3348.00,1.8817
3347.00,1.8948
3346.00,1.9074
3345.00,1.9195
3344.00,1.9310
3343.00,1.9418
3342.00,1.9519
3341.00,1.9614
3340.00,1.9709
3339.00,1.9800
3338.00,1.9885
3337.00,1.9960
3336.00,2.0028
3335.00,2.0092
3334.00,2.0154
3333.00,2.0213
3332.00,2.0267
3331.00,2.0313
3330.00,2.0354
3329.00,2.0392
3328.00,2.0431
3327.00,2.0469
3326.00,2.0502
3325.00,2.0525
3324.00,2.0538
3323.00,2.0543
3322.00,2.0544
3321.00,2.0543
3320.00,2.0540
3319.00,2.0533
3318.00,2.0524
3317.00,2.0514
3316.00,2.0507
3315.00,2.0497
3314.00,2.0481
3313.00,2.0454
3312.00,2.0418
3311.00,2.0370
3310.00,2.0316
3309.00,2.0260
3308.00,2.0206
3307.00,2.0152
3306.00,2.0093
3305.00,2.0028
3304.00,1.9957
3303.00,1.9880
3302.00,1.9794
3301.00,1.9701
3300.00,1.9603
3299.00,1.9502
3298.00,1.9399
3297.00,1.9292
3296.00,1.9182
3295.00,1.9067
3294.00,1.8944
3293.00,1.8811
3292.00,1.8670
3291.00,1.8521
3290.00,1.8368
3289.00,1.8211
3288.00,1.8050
3287.00,1.7881
3286.00,1.7703
3285.00,1.7516
3284.00,1.7322
3283.00,1.7121
3282.00,1.6913
3281.00,1.6696
3280.00,1.6471
3279.00,1.6239
3278.00,1.5998
3277.00,1.5750
3276.00,1.5495
3275.00,1.5234
3274.00,1.4970
3273.00,1.4702
3272.00,1.4432
3271.00,1.4160
3270.00,1.3889
3269.00,1.3622
3268.00,1.3359
3267.00,1.3101
3266.00,1.2851
3265.00,1.2608
3264.00,1.2377
3263.00,1.2158
3262.00,1.1954
3261.00,1.1766
3260.00,1.1597
3259.00,1.1449
3258.00,1.1322
3257.00,1.1218
3256.00,1.1136
3255.00,1.1078
3254.00,1.1045
3253.00,1.1038
3252.00,1.1055
3251.00,1.1098
3250.00,1.1164
3249.00,1.1253
3248.00,1.1362
3247.00,1.1491
3246.00,1.1640
3245.00,1.1807
3244.00,1.1989
3243.00,1.2185
3242.00,1.2392
3241.00,1.2608
3240.00,1.2835
3239.00,1.3070
3238.00,1.3312
3237.00,1.3559
3236.00,1.3811
3235.00,1.4066
3234.00,1.4326
3233.00,1.4589
3232.00,1.4854
3231.00,1.5119
3230.00,1.5382
3229.00,1.5641
3228.00,1.5897
3227.00,1.6150
3226.00,1.6399
3225.00,1.6643
3224.00,1.6882
3223.00,1.7116
3222.00,1.7346
3221.00,1.7570
3220.00,1.7788
3219.00,1.7999
3218.00,1.8204
3217.00,1.8402
3216.00,1.8593
3215.00,1.8775
3214.00,1.8952
3213.00,1.9122
3212.00,1.9282
3211.00,1.9432
3210.00,1.9572
3209.00,1.9708
3208.00,1.9842
3207.00,1.9970
3206.00,2.0090
3205.00,2.0201
3204.00,2.0307
3203.00,2.0407
3202.00,2.0500
3201.00,2.0582
3200.00,2.0651
3199.00,2.0711
3198.00,2.0767
3197.00,2.0823
3196.00,2.0880
3195.00,2.0936
3194.00,2.0985
3193.00,2.1029
3192.00,2.1074
3191.00,2.1119
3190.00,2.1162
3189.00,2.1199
3188.00,2.1227
3187.00,2.1250
3186.00,2.1272
3185.00,2.1294
3184.00,2.1312
3183.00,2.1322
3182.00,2.1323
3181.00,2.1317
3180.00,2.1309
3179.00,2.1300
3178.00,2.1287
3177.00,2.1269
3176.00,2.1248
3175.00,2.1226
3174.00,2.1203
3173.00,2.1181
3172.00,2.1161
3171.00,2.1142
3170.00,2.1123
3169.00,2.1109
3168.00,2.1107
3167.00,2.1123
3166.00,2.1156
3165.00,2.1194
3164.00,2.1219
3163.00,2.1212
3162.00,2.1165
3161.00,2.1080
3160.00,2.0969
3159.00,2.0843
3158.00,2.0707
3157.00,2.0564
3156.00,2.0416
3155.00,2.0265
3154.00,2.0111
3153.00,1.9955
3152.00,1.9798
3151.00,1.9639
3150.00,1.9478
3149.00,1.9311
3148.00,1.9137
3147.00,1.8957
3146.00,1.8771
3145.00,1.8580
3144.00,1.8383
3143.00,1.8180
3142.00,1.7969
3141.00,1.7752
3140.00,1.7527
3139.00,1.7294
3138.00,1.7052
3137.00,1.6804
3136.00,1.6554
3135.00,1.6302
3134.00,1.6046
3133.00,1.5785
3132.00,1.5521
3131.00,1.5256
3130.00,1.4990
3129.00,1.4726
3128.00,1.4466
3127.00,1.4212
3126.00,1.3967
3125.00,1.3733
3124.00,1.3512
3123.00,1.3304
3122.00,1.3113
3121.00,1.2939
3120.00,1.2785
3119.00,1.2653
3118.00,1.2544
3117.00,1.2459
3116.00,1.2398
3115.00,1.2362
3114.00,1.2348
3113.00,1.2357
3112.00,1.2387
3111.00,1.2439
3110.00,1.2512
3109.00,1.2605
3108.00,1.2719
3107.00,1.2852
3106.00,1.3003
3105.00,1.3171
3104.00,1.3354
3103.00,1.3550
3102.00,1.3758
3101.00,1.3976
3100.00,1.4202
3099.00,1.4435
3098.00,1.4672
3097.00,1.4913
3096.00,1.5160
3095.00,1.5412
3094.00,1.5667
3093.00,1.5923
3092.00,1.6178
3091.00,1.6431
3090.00,1.6681
3089.00,1.6925
3088.00,1.7165
3087.00,1.7401
3086.00,1.7632
3085.00,1.7860
3084.00,1.8084
3083.00,1.8306
3082.00,1.8525
3081.00,1.8739
3080.00,1.8945
3079.00,1.9140
3078.00,1.9326
3077.00,1.9504
3076.00,1.9677
3075.00,1.9845
3074.00,2.0006
3073.00,2.0160
3072.00,2.0306
3071.00,2.0443
3070.00,2.0571
3069.00,2.0691
3068.00,2.0806
3067.00,2.0920
3066.00,2.1036
3065.00,2.1152
3064.00,2.1268
3063.00,2.1378
3062.00,2.1477
3061.00,2.1566
3060.00,2.1646
3059.00,2.1721
3058.00,2.1792
3057.00,2.1860
3056.00,2.1927
3055.00,2.1990
3054.00,2.2045
3053.00,2.2089
3052.00,2.2124
3051.00,2.2155
3050.00,2.2188
3049.00,2.2225
3048.00,2.2265
3047.00,2.2299
3046.00,2.2322
3045.00,2.2336
3044.00,2.2345
3043.00,2.2349
3042.00,2.2348
3041.00,2.2340
3040.00,2.2326
3039.00,2.2307
3038.00,2.2285
3037.00,2.2261
3036.00,2.2239
3035.00,2.2216
3034.00,2.2187
3033.00,2.2150
3032.00,2.2111
3031.00,2.2072
3030.00,2.2030
3029.00,2.1978
3028.00,2.1917
3027.00,2.1850
3026.00,2.1780
3025.00,2.1710
3024.00,2.1640
3023.00,2.1568
3022.00,2.1492
3021.00,2.1411
3020.00,2.1327
3019.00,2.1242
3018.00,2.1161
3017.00,2.1083
3016.00,2.1007
3015.00,2.0931
3014.00,2.0858
3013.00,2.0794
3012.00,2.0739
3011.00,2.0692
3010.00,2.0650
3009.00,2.0611
3008.00,2.0578
3007.00,2.0553
3006.00,2.0536
3005.00,2.0520
3004.00,2.0500
3003.00,2.0469
3002.00,2.0421
3001.00,2.0356
3000.00,2.0269
2999.00,2.0161
2998.00,2.0032
2997.00,1.9884
2996.00,1.9721
2995.00,1.9543
2994.00,1.9349
2993.00,1.9139
2992.00,1.8915
2991.00,1.8680
2990.00,1.8440
2989.00,1.8200
2988.00,1.7964
2987.00,1.7735
2986.00,1.7520
2985.00,1.7321
2984.00,1.7144
2983.00,1.6994
2982.00,1.6873
2981.00,1.6788
2980.00,1.6739
2979.00,1.6731
2978.00,1.6762
2977.00,1.6831
2976.00,1.6938
2975.00,1.7080
2974.00,1.7255
2973.00,1.7460
2972.00,1.7686
2971.00,1.7927
2970.00,1.8178
2969.00,1.8434
2968.00,1.8694
2967.00,1.8951
2966.00,1.9203
2965.00,1.9452
2964.00,1.9696
2963.00,1.9930
2962.00,2.0150
2961.00,2.0362
2960.00,2.0576
2959.00,2.0801
2958.00,2.1035
2957.00,2.1274
2956.00,2.1514
2955.00,2.1757
2954.00,2.2002
2953.00,2.2248
2952.00,2.2493
2951.00,2.2737
2950.00,2.2981
2949.00,2.3231
2948.00,2.3485
2947.00,2.3726
2946.00,2.3927
2945.00,2.4059
2944.00,2.4098
2943.00,2.4028
2942.00,2.3853
2941.00,2.3602
2940.00,2.3312
2939.00,2.3012
2938.00,2.2718
2937.00,2.2437
2936.00,2.2180
2935.00,2.1950
2934.00,2.1748
2933.00,2.1571
2932.00,2.1417
2931.00,2.1285
2930.00,2.1175
2929.00,2.1091
2928.00,2.1032
2927.00,2.0995
2926.00,2.0974
2925.00,2.0969
2924.00,2.0979
2923.00,2.1006
2922.00,2.1046
2921.00,2.1099
2920.00,2.1164
2919.00,2.1244
2918.00,2.1337
2917.00,2.1440
2916.00,2.1548
2915.00,2.1658
2914.00,2.1768
2913.00,2.1876
2912.00,2.1985
2911.00,2.2095
2910.00,2.2208
2909.00,2.2318
2908.00,2.2421
2907.00,2.2517
2906.00,2.2606
2905.00,2.2692
2904.00,2.2773
2903.00,2.2846
2902.00,2.2914
2901.00,2.2980
2900.00,2.3041
2899.00,2.3093
2898.00,2.3133
2897.00,2.3169
2896.00,2.3205
2895.00,2.3240
2894.00,2.3269
2893.00,2.3292
2892.00,2.3316
2891.00,2.3344
2890.00,2.3373
2889.00,2.3396
2888.00,2.3406
2887.00,2.3405
2886.00,2.3399
2885.00,2.3395
2884.00,2.3395
2883.00,2.3394
2882.00,2.3386
2881.00,2.3372
2880.00,2.3358
2879.00,2.3348
2878.00,2.3341
2877.00,2.3335
2876.00,2.3327
2875.00,2.3318
2874.00,2.3312
2873.00,2.3309
2872.00,2.3308
2871.00,2.3303
2870.00,2.3289
2869.00,2.3265
2868.00,2.3240
2867.00,2.3215
2866.00,2.3186
2865.00,2.3144
2864.00,2.3086
2863.00,2.3014
2862.00,2.2929
2861.00,2.2834
2860.00,2.2731
2859.00,2.2617
2858.00,2.2492
2857.00,2.2354
2856.00,2.2203
2855.00,2.2037
2854.00,2.1856
2853.00,2.1661
2852.00,2.1458
2851.00,2.1251
2850.00,2.1041
2849.00,2.0829
2848.00,2.0608
2847.00,2.0376
2846.00,2.0131
2845.00,1.9878
2844.00,1.9619
2843.00,1.9353
2842.00,1.9077
2841.00,1.8791
2840.00,1.8494
2839.00,1.8187
2838.00,1.7869
2837.00,1.7542
2836.00,1.7209
2835.00,1.6870
2834.00,1.6525
2833.00,1.6172
2832.00,1.5814
2831.00,1.5455
2830.00,1.5099
2829.00,1.4748
2828.00,1.4404
2827.00,1.4069
2826.00,1.3747
2825.00,1.3443
2824.00,1.3160
2823.00,1.2903
2822.00,1.2675
2821.00,1.2481
2820.00,1.2324
2819.00,1.2208
2818.00,1.2134
2817.00,1.2102
2816.00,1.2113
2815.00,1.2165
2814.00,1.2257
2813.00,1.2386
2812.00,1.2549
2811.00,1.2743
2810.00,1.2963
2809.00,1.3208
2808.00,1.3474
2807.00,1.3759
2806.00,1.4058
2805.00,1.4371
2804.00,1.4694
2803.00,1.5025
2802.00,1.5361
2801.00,1.5699
2800.00,1.6038
2799.00,1.6377
2798.00,1.6714
2797.00,1.7048
2796.00,1.7379
2795.00,1.7702
2794.00,1.8017
2793.00,1.8323
2792.00,1.8621
2791.00,1.8913
2790.00,1.9199
2789.00,1.9479
2788.00,1.9749
2787.00,2.0006
2786.00,2.0248
2785.00,2.0476
2784.00,2.0698
2783.00,2.0914
2782.00,2.1120
2781.00,2.1313
2780.00,2.1496
2779.00,2.1673
2778.00,2.1843
2777.00,2.2001
2776.00,2.2144
2775.00,2.2275
2774.00,2.2399
2773.00,2.2524
2772.00,2.2650
2771.00,2.2772
2770.00,2.2882
2769.00,2.2976
2768.00,2.3062
2767.00,2.3147
2766.00,2.3235
2765.00,2.3324
2764.00,2.3409
2763.00,2.3488
2762.00,2.3557
2761.00,2.3614
2760.00,2.3663
2759.00,2.3708
2758.00,2.3748
2757.00,2.3779
2756.00,2.3805
2755.00,2.3832
2754.00,2.3861
2753.00,2.3888
2752.00,2.3906
2751.00,2.3919
2750.00,2.3929
2749.00,2.3937
2748.00,2.3940
2747.00,2.3935
2746.00,2.3924
2745.00,2.3912
2744.00,2.3900
2743.00,2.3885
2742.00,2.3867
2741.00,2.3845
2740.00,2.3819
2739.00,2.3787
2738.00,2.3746
2737.00,2.3690
2736.00,2.3624
2735.00,2.3552
2734.00,2.3480
2733.00,2.3406
2732.00,2.3331
2731.00,2.3250
2730.00,2.3160
2729.00,2.3058
2728.00,2.2946
2727.00,2.2830
2726.00,2.2712
2725.00,2.2592
2724.00,2.2466
2723.00,2.2333
2722.00,2.2191
2721.00,2.2041
2720.00,2.1881
2719.00,2.1712
2718.00,2.1534
2717.00,2.1350
2716.00,2.1163
2715.00,2.0970
2714.00,2.0764
2713.00,2.0541
2712.00,2.0303
2711.00,2.0053
2710.00,1.9794
2709.00,1.9524
2708.00,1.9240
2707.00,1.8942
2706.00,1.8628
2705.00,1.8299
2704.00,1.7954
2703.00,1.7594
2702.00,1.7216
2701.00,1.6821
2700.00,1.6411
2699.00,1.5989
2698.00,1.5561
2697.00,1.5130
2696.00,1.4697
2695.00,1.4268
2694.00,1.3849
2693.00,1.3446
2692.00,1.3064
2691.00,1.2707
2690.00,1.2380
2689.00,1.2088
2688.00,1.1837
2687.00,1.1630
2686.00,1.1471
2685.00,1.1363
2684.00,1.1308
2683.00,1.1306
2682.00,1.1355
2681.00,1.1451
2680.00,1.1589
2679.00,1.1764
2678.00,1.1973
2677.00,1.2210
2676.00,1.2473
2675.00,1.2756
2674.00,1.3056
2673.00,1.3369
2672.00,1.3692
2671.00,1.4026
2670.00,1.4367
2669.00,1.4715
2668.00,1.5070
2667.00,1.5433
2666.00,1.5803
2665.00,1.6178
2664.00,1.6557
2663.00,1.6938
2662.00,1.7316
2661.00,1.7689
2660.00,1.8058
2659.00,1.8419
2658.00,1.8769
2657.00,1.9107
2656.00,1.9430
2655.00,1.9740
2654.00,2.0039
2653.00,2.0326
2652.00,2.0597
2651.00,2.0850
2650.00,2.1090
2649.00,2.1322
2648.00,2.1550
2647.00,2.1770
2646.00,2.1982
2645.00,2.2184
2644.00,2.2376
2643.00,2.2556
2642.00,2.2720
2641.00,2.2874
2640.00,2.3023
2639.00,2.3176
2638.00,2.3332
2637.00,2.3487
2636.00,2.3631
2635.00,2.3757
2634.00,2.3867
2633.00,2.3966
2632.00,2.4059
2631.00,2.4148
2630.00,2.4229
2629.00,2.4302
2628.00,2.4371
2627.00,2.4440
2626.00,2.4511
2625.00,2.4580
2624.00,2.4640
2623.00,2.4682
2622.00,2.4707
2621.00,2.4726
2620.00,2.4754
2619.00,2.4796
2618.00,2.4844
2617.00,2.4883
2616.00,2.4902
2615.00,2.4906
2614.00,2.4907
2613.00,2.4916
2612.00,2.4935
2611.00,2.4954
2610.00,2.4960
2609.00,2.4955
2608.00,2.4946
2607.00,2.4936
2606.00,2.4922
2605.00,2.4899
2604.00,2.4870
2603.00,2.4841
2602.00,2.4809
2601.00,2.4765
2600.00,2.4703
2599.00,2.4627
2598.00,2.4551
2597.00,2.4486
2596.00,2.4428
2595.00,2.4366
2594.00,2.4291
2593.00,2.4205
2592.00,2.4116
2591.00,2.4026
2590.00,2.3929
2589.00,2.3821
2588.00,2.3707
2587.00,2.3593
2586.00,2.3474
2585.00,2.3345
2584.00,2.3201
2583.00,2.3049
2582.00,2.2892
2581.00,2.2731
2580.00,2.2562
2579.00,2.2383
2578.00,2.2190
2577.00,2.1983
2576.00,2.1766
2575.00,2.1543
2574.00,2.1315
2573.00,2.1078
2572.00,2.0828
2571.00,2.0562
2570.00,2.0282
2569.00,1.9989
2568.00,1.9684
2567.00,1.9365
2566.00,1.9029
2565.00,1.8674
2564.00,1.8299
2563.00,1.7902
2562.00,1.7487
2561.00,1.7056
2560.00,1.6612
2559.00,1.6157
2558.00,1.5696
2557.00,1.5232
2556.00,1.4771
2555.00,1.4321
2554.00,1.3887
2553.00,1.3475
2552.00,1.3089
2551.00,1.2737
2550.00,1.2422
2549.00,1.2151
2548.00,1.1927
2547.00,1.1753
2546.00,1.1633
2545.00,1.1570
2544.00,1.1565
2543.00,1.1619
2542.00,1.1728
2541.00,1.1890
2540.00,1.2098
2539.00,1.2348
2538.00,1.2633
2537.00,1.2946
2536.00,1.3283
2535.00,1.3640
2534.00,1.4015
2533.00,1.4403
2532.00,1.4803
2531.00,1.5211
2530.00,1.5624
2529.00,1.6042
2528.00,1.6462
2527.00,1.6881
2526.00,1.7297
2525.00,1.7708
2524.00,1.8116
2523.00,1.8517
2522.00,1.8906
2521.00,1.9282
2520.00,1.9642
2519.00,1.9990
2518.00,2.0326
2517.00,2.0647
2516.00,2.0950
2515.00,2.1236
2514.00,2.1506
2513.00,2.1762
2512.00,2.2006
2511.00,2.2242
2510.00,2.2472
2509.00,2.2694
2508.00,2.2905
2507.00,2.3104
2506.00,2.3293
2505.00,2.3472
2504.00,2.3638
2503.00,2.3793
2502.00,2.3943
2501.00,2.4088
2500.00,2.4224
2499.00,2.4352
2498.00,2.4480
2497.00,2.4612
2496.00,2.4742
2495.00,2.4862
2494.00,2.4968
2493.00,2.5064
2492.00,2.5152
2491.00,2.5231
2490.00,2.5306
2489.00,2.5382
2488.00,2.5466
2487.00,2.5551
2486.00,2.5628
2485.00,2.5684
2484.00,2.5718
2483.00,2.5736
2482.00,2.5748
2481.00,2.5766
2480.00,2.5794
2479.00,2.5830
2478.00,2.5870
2477.00,2.5906
2476.00,2.5935
2475.00,2.5956
2474.00,2.5972
2473.00,2.5986
2472.00,2.5994
2471.00,2.5989
2470.00,2.5969
2469.00,2.5938
2468.00,2.5901
2467.00,2.5861
2466.00,2.5825
2465.00,2.5798
2464.00,2.5780
2463.00,2.5760
2462.00,2.5728
2461.00,2.5677
2460.00,2.5610
2459.00,2.5536
2458.00,2.5463
2457.00,2.5392
2456.00,2.5317
2455.00,2.5235
2454.00,2.5149
2453.00,2.5059
2452.00,2.4965
2451.00,2.4864
2450.00,2.4755
2449.00,2.4635
2448.00,2.4505
2447.00,2.4364
2446.00,2.4220
2445.00,2.4078
2444.00,2.3935
2443.00,2.3784
2442.00,2.3619
2441.00,2.3442
2440.00,2.3253
2439.00,2.3058
2438.00,2.2858
2437.00,2.2651
2436.00,2.2431
2435.00,2.2194
2434.00,2.1940
2433.00,2.1674
2432.00,2.1399
2431.00,2.1116
2430.00,2.0822
2429.00,2.0516
2428.00,2.0195
2427.00,1.9860
2426.00,1.9510
2425.00,1.9148
2424.00,1.8777
2423.00,1.8399
2422.00,1.8019
2421.00,1.7642
2420.00,1.7273
2419.00,1.6914
2418.00,1.6569
2417.00,1.6239
2416.00,1.5929
2415.00,1.5641
2414.00,1.5374
2413.00,1.5130
2412.00,1.4906
2411.00,1.4702
2410.00,1.4519
2409.00,1.4356
2408.00,1.4215
2407.00,1.4095
2406.00,1.4000
2405.00,1.3934
2404.00,1.3902
2403.00,1.3908
2402.00,1.3954
2401.00,1.4041
2400.00,1.4169
2399.00,1.4337
2398.00,1.4544
2397.00,1.4788
2396.00,1.5065
2395.00,1.5371
2394.00,1.5700
2393.00,1.6050
2392.00,1.6418
2391.00,1.6800
2390.00,1.7194
2389.00,1.7595
2388.00,1.7998
2387.00,1.8397
2386.00,1.8786
2385.00,1.9162
2384.00,1.9523
2383.00,1.9866
2382.00,2.0184
2381.00,2.0476
2380.00,2.0743
2379.00,2.0992
2378.00,2.1224
2377.00,2.1442
2376.00,2.1651
2375.00,2.1854
2374.00,2.2056
2373.00,2.2260
2372.00,2.2472
2371.00,2.2690
2370.00,2.2908
2369.00,2.3118
2368.00,2.3321
2367.00,2.3522
2366.00,2.3722
2365.00,2.3916
2364.00,2.4097
2363.00,2.4257
2362.00,2.4401
2361.00,2.4541
2360.00,2.4683
2359.00,2.4823
2358.00,2.4953
2357.00,2.5068
2356.00,2.5173
2355.00,2.5273
2354.00,2.5373
2353.00,2.5479
2352.00,2.5593
2351.00,2.5702
2350.00,2.5790
2349.00,2.5863
2348.00,2.5938
2347.00,2.6025
2346.00,2.6110
2345.00,2.6171
2344.00,2.6205
2343.00,2.6227
2342.00,2.6256
2341.00,2.6287
2340.00,2.6305
2339.00,2.6309
2338.00,2.6311
2337.00,2.6330
2336.00,2.6368
2335.00,2.6406
2334.00,2.6405
2333.00,2.6352
2332.00,2.6262
2331.00,2.6180
2330.00,2.6120
2329.00,2.6079
2328.00,2.6031
2327.00,2.5969
2326.00,2.5900
2325.00,2.5837
2324.00,2.5782
2323.00,2.5723
2322.00,2.5645
2321.00,2.5553
2320.00,2.5458
2319.00,2.5367
2318.00,2.5266
2317.00,2.5144
2316.00,2.5001
2315.00,2.4852
2314.00,2.4700
2313.00,2.4543
2312.00,2.4377
2311.00,2.4213
2310.00,2.4052
2309.00,2.3888
2308.00,2.3704
2307.00,2.3496
2306.00,2.3268
2305.00,2.3032
2304.00,2.2801
2303.00,2.2592
2302.00,2.2424
2301.00,2.2318
2300.00,2.2293
2299.00,2.2371
2298.00,2.2569
2297.00,2.2887
2296.00,2.3307
2295.00,2.3784
2294.00,2.4255
2293.00,2.4638
2292.00,2.4860
2291.00,2.4884
2290.00,2.4720
2289.00,2.4407
2288.00,2.3985
2287.00,2.3482
2286.00,2.2925
2285.00,2.2329
2284.00,2.1705
2283.00,2.1062
2282.00,2.0407
2281.00,1.9748
2280.00,1.9098
2279.00,1.8476
2278.00,1.7906
2277.00,1.7418
2276.00,1.7036
2275.00,1.6778
2274.00,1.6656
2273.00,1.6674
2272.00,1.6830
2271.00,1.7117
2270.00,1.7525
2269.00,1.8047
2268.00,1.8673
2267.00,1.9395
2266.00,2.0199
2265.00,2.1073
2264.00,2.1999
2263.00,2.2965
2262.00,2.3972
2261.00,2.5033
2260.00,2.6168
2259.00,2.7396
2258.00,2.8751
2257.00,3.0289
2256.00,3.2095
2255.00,3.4246
2254.00,3.6612
2253.00,3.8254
2252.00,3.7693
2251.00,3.5656
2250.00,3.3545
2249.00,3.1699
2248.00,3.0055
2247.00,2.8517
2246.00,2.7035
2245.00,2.5597
2244.00,2.4197
2243.00,2.2843
2242.00,2.1555
2241.00,2.0375
2240.00,1.9346
2239.00,1.8507
2238.00,1.7882
2237.00,1.7483
2236.00,1.7305
2235.00,1.7327
2234.00,1.7521
2233.00,1.7850
2232.00,1.8275
2231.00,1.8763
2230.00,1.9287
2229.00,1.9830
2228.00,2.0372
2227.00,2.0898
2226.00,2.1395
2225.00,2.1865
2224.00,2.2312
2223.00,2.2737
2222.00,2.3136
2221.00,2.3508
2220.00,2.3855
2219.00,2.4181
2218.00,2.4491
2217.00,2.4790
2216.00,2.5072
2215.00,2.5333
2214.00,2.5564
2213.00,2.5768
2212.00,2.5949
2211.00,2.6118
2210.00,2.6281
2209.00,2.6440
2208.00,2.6597
2207.00,2.6750
2206.00,2.6898
2205.00,2.7035
2204.00,2.7149
2203.00,2.7231
2202.00,2.7291
2201.00,2.7354
2200.00,2.7436
2199.00,2.7529
2198.00,2.7612
2197.00,2.7672
2196.00,2.7716
2195.00,2.7764
2194.00,2.7824
2193.00,2.7891
2192.00,2.7948
2191.00,2.7989
2190.00,2.8023
2189.00,2.8063
2188.00,2.8095
2187.00,2.8090
2186.00,2.8039
2185.00,2.7974
2184.00,2.7943
2183.00,2.7965
2182.00,2.8009
2181.00,2.8035
2180.00,2.8028
2179.00,2.8005
2178.00,2.7988
2177.00,2.7970
2176.00,2.7932
2175.00,2.7865
2174.00,2.7789
2173.00,2.7732
2172.00,2.7699
2171.00,2.7667
2170.00,2.7609
2169.00,2.7525
2168.00,2.7430
2167.00,2.7341
2166.00,2.7259
2165.00,2.7174
2164.00,2.7070
2163.00,2.6940
2162.00,2.6791
2161.00,2.6636
2160.00,2.6491
2159.00,2.6359
2158.00,2.6230
2157.00,2.6086
2156.00,2.5913
2155.00,2.5714
2154.00,2.5505
2153.00,2.5306
2152.00,2.5118
2151.00,2.4925
2150.00,2.4712
2149.00,2.4480
2148.00,2.4232
2147.00,2.3971
2146.00,2.3692
2145.00,2.3394
2144.00,2.3083
2143.00,2.2761
2142.00,2.2421
2141.00,2.2060
2140.00,2.1673
2139.00,2.1263
2138.00,2.0829
2137.00,2.0371
2136.00,1.9888
2135.00,1.9382
2134.00,1.8854
2133.00,1.8311
2132.00,1.7755
2131.00,1.7193
2130.00,1.6632
2129.00,1.6083
2128.00,1.5556
2127.00,1.5063
2126.00,1.4612
2125.00,1.4214
2124.00,1.3877
2123.00,1.3609
2122.00,1.3416
2121.00,1.3304
2120.00,1.3277
2119.00,1.3334
2118.00,1.3469
2117.00,1.3679
2116.00,1.3954
2115.00,1.4285
2114.00,1.4661
2113.00,1.5073
2112.00,1.5516
2111.00,1.5983
2110.00,1.6468
2109.00,1.6969
2108.00,1.7481
2107.00,1.8000
2106.00,1.8520
2105.00,1.9039
2104.00,1.9551
2103.00,2.0052
2102.00,2.0536
2101.00,2.0999
2100.00,2.1444
2099.00,2.1875
2098.00,2.2293
2097.00,2.2692
2096.00,2.3069
2095.00,2.3421
2094.00,2.3749
2093.00,2.4057
2092.00,2.4350
2091.00,2.4631
2090.00,2.4902
2089.00,2.5161
2088.00,2.5408
2087.00,2.5638
2086.00,2.5848
2085.00,2.6039
2084.00,2.6221
2083.00,2.6405
2082.00,2.6601
2081.00,2.6808
2080.00,2.7013
2079.00,2.7198
2078.00,2.7346
2077.00,2.7457
2076.00,2.7551
2075.00,2.7655
2074.00,2.7779
2073.00,2.7915
2072.00,2.8045
2071.00,2.8151
2070.00,2.8232
2069.00,2.8300
2068.00,2.8378
2067.00,2.8469
2066.00,2.8553
2065.00,2.8609
2064.00,2.8642
2063.00,2.8678
2062.00,2.8727
2061.00,2.8774
2060.00,2.8808
2059.00,2.8839
2058.00,2.8882
2057.00,2.8934
2056.00,2.8980
2055.00,2.9011
2054.00,2.9032
2053.00,2.9044
2052.00,2.9045
2051.00,2.9041
2050.00,2.9050
2049.00,2.9077
2048.00,2.9116
2047.00,2.9147
2046.00,2.9153
2045.00,2.9129
2044.00,2.9083
2043.00,2.9033
2042.00,2.8987
2041.00,2.8947
2040.00,2.8913
2039.00,2.8887
2038.00,2.8861
2037.00,2.8822
2036.00,2.8765
2035.00,2.8700
2034.00,2.8637
2033.00,2.8572
2032.00,2.8494
2031.00,2.8409
2030.00,2.8333
2029.00,2.8271
2028.00,2.8205
2027.00,2.8107
2026.00,2.7970
2025.00,2.7816
2024.00,2.7668
2023.00,2.7535
2022.00,2.7404
2021.00,2.7261
2020.00,2.7105
2019.00,2.6936
2018.00,2.6754
2017.00,2.6563
2016.00,2.6372
2015.00,2.6190
2014.00,2.6012
2013.00,2.5817
2012.00,2.5596
2011.00,2.5356
2010.00,2.5105
2009.00,2.4845
2008.00,2.4569
2007.00,2.4276
2006.00,2.3967
2005.00,2.3642
2004.00,2.3299
2003.00,2.2936
2002.00,2.2550
2001.00,2.2140
2000.00,2.1702
1999.00,2.1234
1998.00,2.0742
1997.00,2.0228
1996.00,1.9695
1995.00,1.9142
1994.00,1.8572
1993.00,1.7981
1992.00,1.7375
1991.00,1.6782
1990.00,1.6238
1989.00,1.5763
1988.00,1.5346
1987.00,1.4977
1986.00,1.4661
1985.00,1.4417
1984.00,1.4258
1983.00,1.4181
1982.00,1.4185
1981.00,1.4269
1980.00,1.4434
1979.00,1.4673
1978.00,1.4976
1977.00,1.5332
1976.00,1.5732
1975.00,1.6166
1974.00,1.6628
1973.00,1.7111
1972.00,1.7611
1971.00,1.8123
1970.00,1.8645
1969.00,1.9170
1968.00,1.9691
1967.00,2.0202
1966.00,2.0709
1965.00,2.1220
1964.00,2.1729
1963.00,2.2218
1962.00,2.2670
1961.00,2.3087
1960.00,2.3480
1959.00,2.3854
1958.00,2.4205
1957.00,2.4530
1956.00,2.4838
1955.00,2.5139
1954.00,2.5435
1953.00,2.5722
1952.00,2.5999
1951.00,2.6268
1950.00,2.6527
1949.00,2.6766
1948.00,2.6977
1947.00,2.7158
1946.00,2.7322
1945.00,2.7481
1944.00,2.7644
1943.00,2.7807
1942.00,2.7969
1941.00,2.8141
1940.00,2.8332
1939.00,2.8519
1938.00,2.8666
1937.00,2.8758
1936.00,2.8832
1935.00,2.8933
1934.00,2.9068
1933.00,2.9202
1932.00,2.9314
1931.00,2.9409
1930.00,2.9495
1929.00,2.9568
1928.00,2.9635
1927.00,2.9712
1926.00,2.9804
1925.00,2.9889
1924.00,2.9947
1923.00,2.9978
1922.00,3.0004
1921.00,3.0049
1920.00,3.0110
1919.00,3.0156
1918.00,3.0156
1917.00,3.0118
1916.00,3.0093
1915.00,3.0117
1914.00,3.0163
1913.00,3.0181
1912.00,3.0166
1911.00,3.0141
1910.00,3.0114
1909.00,3.0075
1908.00,3.0035
1907.00,3.0016
1906.00,3.0024
1905.00,3.0037
1904.00,3.0052
1903.00,3.0079
1902.00,3.0099
1901.00,3.0076
1900.00,3.0005
1899.00,2.9925
1898.00,2.9867
1897.00,2.9826
1896.00,2.9790
1895.00,2.9764
1894.00,2.9743
1893.00,2.9694
1892.00,2.9601
1891.00,2.9473
1890.00,2.9318
1889.00,2.9138
1888.00,2.8958
1887.00,2.8823
1886.00,2.8738
1885.00,2.8655
1884.00,2.8531
1883.00,2.8375
1882.00,2.8210
1881.00,2.8041
1880.00,2.7856
1879.00,2.7661
1878.00,2.7463
1877.00,2.7255
1876.00,2.7035
1875.00,2.6813
1874.00,2.6592
1873.00,2.6359
1872.00,2.6107
1871.00,2.5829
1870.00,2.5511
1869.00,2.5150
1868.00,2.4786
1867.00,2.4472
1866.00,2.4199
1865.00,2.3898
1864.00,2.3522
1863.00,2.3077
1862.00,2.2586
1861.00,2.2065
1860.00,2.1519
1859.00,2.0958
1858.00,2.0390
1857.00,1.9815
1856.00,1.9231
1855.00,1.8645
1854.00,1.8069
1853.00,1.7514
1852.00,1.6997
1851.00,1.6534
1850.00,1.6138
1849.00,1.5805
1848.00,1.5541
1847.00,1.5369
1846.00,1.5300
1845.00,1.5312
1844.00,1.5388
1843.00,1.5564
1842.00,1.5891
1841.00,1.6359
1840.00,1.6881
1839.00,1.7385
1838.00,1.7860
1837.00,1.8346
1836.00,1.8868
1835.00,1.9411
1834.00,1.9948
1833.00,2.0475
1832.00,2.0997
1831.00,2.1508
1830.00,2.2010
1829.00,2.2531
1828.00,2.3085
1827.00,2.3621
1826.00,2.4059
1825.00,2.4386
1824.00,2.4667
1823.00,2.4988
1822.00,2.5364
1821.00,2.5753
1820.00,2.6111
1819.00,2.6425
1818.00,2.6698
1817.00,2.6943
1816.00,2.7187
1815.00,2.7446
1814.00,2.7720
1813.00,2.7986
1812.00,2.8213
1811.00,2.8395
1810.00,2.8556
1809.00,2.8736
1808.00,2.8940
1807.00,2.9128
1806.00,2.9276
1805.00,2.9404
1804.00,2.9528
1803.00,2.9633
1802.00,2.9703
1801.00,2.9775
1800.00,2.9908
1799.00,3.0114
1798.00,3.0341
1797.00,3.0529
1796.00,3.0662
1795.00,3.0759
1794.00,3.0839
1793.00,3.0901
1792.00,3.0932
1791.00,3.0942
1790.00,3.0967
1789.00,3.1037
1788.00,3.1143
1787.00,3.1228
1786.00,3.1231
1785.00,3.1152
1784.00,3.1060
1783.00,3.1036
1782.00,3.1105
1781.00,3.1209
1780.00,3.1266
1779.00,3.1268
1778.00,3.1266
1777.00,3.1300
1776.00,3.1356
1775.00,3.1403
1774.00,3.1445
1773.00,3.1482
1772.00,3.1498
1771.00,3.1502
1770.00,3.1493
1769.00,3.1423
1768.00,3.1265
1767.00,3.1056
1766.00,3.0887
1765.00,3.0833
1764.00,3.0852
1763.00,3.0833
1762.00,3.0723
1761.00,3.0572
1760.00,3.0466
1759.00,3.0417
1758.00,3.0365
1757.00,3.0267
1756.00,3.0128
1755.00,2.9999
1754.00,2.9912
1753.00,2.9808
1752.00,2.9593
1751.00,2.9248
1750.00,2.8882
1749.00,2.8644
1748.00,2.8563
1747.00,2.8535
1746.00,2.8461
1745.00,2.8307
1744.00,2.8076
1743.00,2.7797
1742.00,2.7514
1741.00,2.7261
1740.00,2.7023
1739.00,2.6778
1738.00,2.6552
1737.00,2.6378
1736.00,2.6177
1735.00,2.5803
1734.00,2.5228
1733.00,2.4688
1732.00,2.4456
1731.00,2.4487
1730.00,2.4542
1729.00,2.4537
1728.00,2.4556
1727.00,2.4709
1726.00,2.5023
1725.00,2.5448
1724.00,2.5955
1723.00,2.6563
1722.00,2.7279
1721.00,2.8085
1720.00,2.8939
1719.00,2.9807
1718.00,3.0711
1717.00,3.1718
1716.00,3.2880
1715.00,3.4158
1714.00,3.5410
1713.00,3.6372
1712.00,3.6879
1711.00,3.7173
1710.00,3.7604
1709.00,3.8224
1708.00,3.8847
1707.00,3.9247
1706.00,3.9125
1705.00,3.8269
1704.00,3.7033
1703.00,3.5902
1702.00,3.4847
1701.00,3.3541
1700.00,3.1978
1699.00,3.0699
1698.00,2.9984
1697.00,2.9428
1696.00,2.8537
1695.00,2.7338
1694.00,2.6185
1693.00,2.5289
1692.00,2.4532
1691.00,2.3719
1690.00,2.2849
1689.00,2.2065
1688.00,2.1492
1687.00,2.1145
1686.00,2.0961
1685.00,2.0872
1684.00,2.0910
1683.00,2.1201
1682.00,2.1724
1681.00,2.2272
1680.00,2.2732
1679.00,2.3118
1678.00,2.3488
1677.00,2.3880
1676.00,2.4269
1675.00,2.4652
1674.00,2.5098
1673.00,2.5662
1672.00,2.6260
1671.00,2.6754
1670.00,2.7114
1669.00,2.7448
1668.00,2.7845
1667.00,2.8260
1666.00,2.8609
1665.00,2.8870
1664.00,2.9076
1663.00,2.9274
1662.00,2.9524
1661.00,2.9853
1660.00,3.0184
1659.00,3.0427
1658.00,3.0581
1657.00,3.0730
1656.00,3.0943
1655.00,3.1169
1654.00,3.1272
1653.00,3.1255
1652.00,3.1408
1651.00,3.1821
1650.00,3.2247
1649.00,3.2529
1648.00,3.2610
1647.00,3.2532
1646.00,3.2433
1645.00,3.2412
1644.00,3.2472
1643.00,3.2563
1642.00,3.2640
1641.00,3.2692
1640.00,3.2754
1639.00,3.2862
1638.00,3.2974
1637.00,3.3018
1636.00,3.2982
1635.00,3.2942
1634.00,3.2968
1633.00,3.3040
1632.00,3.3117
1631.00,3.3140
1630.00,3.3088
1629.00,3.3034
1628.00,3.3050
1627.00,3.3100
1626.00,3.3079
1625.00,3.2959
1624.00,3.2810
1623.00,3.2724
1622.00,3.2749
1621.00,3.2874
1620.00,3.3043
1619.00,3.3187
1618.00,3.3233
1617.00,3.3146
1616.00,3.3000
1615.00,3.2898
1614.00,3.2838
1613.00,3.2773
1612.00,3.2691
1611.00,3.2601
1610.00,3.2524
1609.00,3.2462
1608.00,3.2386
1607.00,3.2253
1606.00,3.2066
1605.00,3.1863
1604.00,3.1685
1603.00,3.1543
1602.00,3.1419
1601.00,3.1295
1600.00,3.1154
1599.00,3.0977
1598.00,3.0759
1597.00,3.0525
1596.00,3.0305
1595.00,3.0112
1594.00,2.9946
1593.00,2.9800
1592.00,2.9650
1591.00,2.9450
1590.00,2.9162
1589.00,2.8805
1588.00,2.8449
1587.00,2.8137
1586.00,2.7846
1585.00,2.7531
1584.00,2.7172
1583.00,2.6788
1582.00,2.6401
1581.00,2.6018
1580.00,2.5658
1579.00,2.5330
1578.00,2.4991
1577.00,2.4569
1576.00,2.4079
1575.00,2.3639
1574.00,2.3305
1573.00,2.3001
1572.00,2.2641
1571.00,2.2206
1570.00,2.1758
1569.00,2.1430
1568.00,2.1286
1567.00,2.1261
1566.00,2.1267
1565.00,2.1284
1564.00,2.1341
1563.00,2.1478
1562.00,2.1668
1561.00,2.1830
1560.00,2.1919
1559.00,2.2117
1558.00,2.2666
1557.00,2.3618
1556.00,2.3978
1555.00,2.4132
1554.00,2.4643
1553.00,2.5016
1552.00,2.5454
1551.00,2.5839
1550.00,2.6216
1549.00,2.6546
1548.00,2.6937
1547.00,2.7340
1546.00,2.7685
1545.00,2.7926
1544.00,2.8146
1543.00,2.8459
1542.00,2.8880
1541.00,2.9342
1540.00,2.9818
1539.00,3.0309
1538.00,3.0718
1537.00,3.0985
1536.00,3.1172
1535.00,3.1278
1534.00,3.1332
1533.00,3.1458
1532.00,3.1727
1531.00,3.2044
1530.00,3.2279
1529.00,3.2452
1528.00,3.2628
1527.00,3.2802
1526.00,3.2916
1525.00,3.2954
1524.00,3.2974
1523.00,3.2989
1522.00,3.2950
1521.00,3.2904
1520.00,3.2986
1519.00,3.3235
1518.00,3.3522
1517.00,3.3686
1516.00,3.3730
1515.00,3.3760
1514.00,3.3789
1513.00,3.3747
1512.00,3.3617
1511.00,3.3495
1510.00,3.3475
1509.00,3.3536
1508.00,3.3618
1507.00,3.3768
1506.00,3.4146
1505.00,3.4660
1504.00,3.5002
1503.00,3.5119
1502.00,3.5084
1501.00,3.4964
1500.00,3.4834
1499.00,3.4724
1498.00,3.4640
1497.00,3.4588
1496.00,3.4575
1495.00,3.4584
1494.00,3.4596
1493.00,3.4601
1492.00,3.4572
1491.00,3.4516
1490.00,3.4519
1489.00,3.4678
1488.00,3.4905
1487.00,3.4958
1486.00,3.4760
1485.00,3.4482
1484.00,3.4300
1483.00,3.4279
1482.00,3.4372
1481.00,3.4467
1480.00,3.4464
1479.00,3.4337
1478.00,3.4146
1477.00,3.3977
1476.00,3.3899
1475.00,3.3904
1474.00,3.3889
1473.00,3.3761
1472.00,3.3589
1471.00,3.3533
1470.00,3.3634
1469.00,3.3798
1468.00,3.3899
1467.00,3.3863
1466.00,3.3722
1465.00,3.3593
1464.00,3.3589
1463.00,3.3746
1462.00,3.4002
1461.00,3.4272
1460.00,3.4483
1459.00,3.4594
1458.00,3.4627
1457.00,3.4675
1456.00,3.4837
1455.00,3.5123
1454.00,3.5469
1453.00,3.5781
1452.00,3.6005
1451.00,3.6197
1450.00,3.6434
1449.00,3.6683
1448.00,3.6774
1447.00,3.6637
1446.00,3.6471
1445.00,3.6456
1444.00,3.6578
1443.00,3.6738
1442.00,3.6878
1441.00,3.6998
1440.00,3.7063
1439.00,3.6963
1438.00,3.6675
1437.00,3.6335
1436.00,3.6084
1435.00,3.5929
1434.00,3.5813
1433.00,3.5709
1432.00,3.5621
1431.00,3.5555
1430.00,3.5504
1429.00,3.5463
1428.00,3.5433
1427.00,3.5398
1426.00,3.5330
1425.00,3.5225
1424.00,3.5154
1423.00,3.5214
1422.00,3.5366
1421.00,3.5413
1420.00,3.5198
1419.00,3.4799
1418.00,3.4470
1417.00,3.4360
1416.00,3.4376
1415.00,3.4349
1414.00,3.4218
1413.00,3.4040
1412.00,3.3912
1411.00,3.3856
1410.00,3.3803
1409.00,3.3681
1408.00,3.3480
1407.00,3.3217
1406.00,3.2913
1405.00,3.2592
1404.00,3.2301
1403.00,3.2090
1402.00,3.1962
1401.00,3.1866
1400.00,3.1760
1399.00,3.1659
1398.00,3.1619
1397.00,3.1645
1396.00,3.1686
1395.00,3.1701
1394.00,3.1735
1393.00,3.1862
1392.00,3.2095
1391.00,3.2357
1390.00,3.2559
1389.00,3.2692
1388.00,3.2829
1387.00,3.3057
1386.00,3.3411
1385.00,3.3859
1384.00,3.4374
1383.00,3.4992
1382.00,3.5727
1381.00,3.6469
1380.00,3.7035
1379.00,3.7424
1378.00,3.7843
1377.00,3.8387
1376.00,3.8804
1375.00,3.8672
1374.00,3.7911
1373.00,3.6809
1372.00,3.5636
1371.00,3.4562
1370.00,3.3691
1369.00,3.3057
1368.00,3.2647
1367.00,3.2452
1366.00,3.2461
1365.00,3.2645
1364.00,3.2924
1363.00,3.3191
1362.00,3.3398
1361.00,3.3586
1360.00,3.3797
1359.00,3.3989
1358.00,3.4123
1357.00,3.4270
1356.00,3.4534
1355.00,3.4894
1354.00,3.5183
1353.00,3.5307
1352.00,3.5400
1351.00,3.5616
1350.00,3.5956
1349.00,3.6283
1348.00,3.6478
1347.00,3.6518
1346.00,3.6430
1345.00,3.6278
1344.00,3.6166
1343.00,3.6157
1342.00,3.6261
1341.00,3.6464
1340.00,3.6766
1339.00,3.7152
1338.00,3.7332
1337.00,3.6958
1336.00,3.6289
1335.00,3.5805
1334.00,3.5697
1333.00,3.5892
1332.00,3.6198
1331.00,3.6476
1330.00,3.6677
1329.00,3.6714
1328.00,3.6530
1327.00,3.6259
1326.00,3.6105
1325.00,3.6130
1324.00,3.6200
1323.00,3.6179
1322.00,3.6125
1321.00,3.6194
1320.00,3.6414
1319.00,3.6666
1318.00,3.6848
1317.00,3.6982
1316.00,3.7081
1315.00,3.7060
1314.00,3.6877
1313.00,3.6669
1312.00,3.6602
1311.00,3.6643
1310.00,3.6598
1309.00,3.6385
1308.00,3.6127
1307.00,3.5976
1306.00,3.5981
1305.00,3.6054
1304.00,3.6025
1303.00,3.5798
1302.00,3.5422
1301.00,3.5001
1300.00,3.4626
1299.00,3.4363
1298.00,3.4204
1297.00,3.4055
1296.00,3.3826
1295.00,3.3522
1294.00,3.3222
1293.00,3.2995
1292.00,3.2840
1291.00,3.2691
1290.00,3.2490
1289.00,3.2236
1288.00,3.1951
1287.00,3.1631
1286.00,3.1252
1285.00,3.0823
1284.00,3.0391
1283.00,2.9988
1282.00,2.9605
1281.00,2.9218
1280.00,2.8824
1279.00,2.8434
1278.00,2.8057
1277.00,2.7685
1276.00,2.7310
1275.00,2.6919
1274.00,2.6496
1273.00,2.6034
1272.00,2.5547
1271.00,2.5071
1270.00,2.4644
1269.00,2.4287
1268.00,2.4000
1267.00,2.3772
1266.00,2.3597
1265.00,2.3483
1264.00,2.3451
1263.00,2.3524
1262.00,2.3708
1261.00,2.3998
1260.00,2.4384
1259.00,2.4849
1258.00,2.5371
1257.00,2.5925
1256.00,2.6500
1255.00,2.7103
1254.00,2.7730
1253.00,2.8347
1252.00,2.8914
1251.00,2.9432
1250.00,2.9943
1249.00,3.0468
1248.00,3.0979
1247.00,3.1447
1246.00,3.1882
1245.00,3.2308
1244.00,3.2712
1243.00,3.3043
1242.00,3.3293
1241.00,3.3533
1240.00,3.3837
1239.00,3.4203
1238.00,3.4566
1237.00,3.4847
1236.00,3.5006
1235.00,3.5067
1234.00,3.5124
1233.00,3.5293
1232.00,3.5626
1231.00,3.6037
1230.00,3.6363
1229.00,3.6571
1228.00,3.6772
1227.00,3.6970
1226.00,3.6951
1225.00,3.6594
1224.00,3.6121
1223.00,3.5823
1222.00,3.5779
1221.00,3.5888
1220.00,3.6071
1219.00,3.6418
1218.00,3.7106
1217.00,3.8183
1216.00,3.9076
1215.00,3.8852
1214.00,3.8155
1213.00,3.7844
1212.00,3.8006
1211.00,3.8326
1210.00,3.8377
1209.00,3.8094
1208.00,3.7809
1207.00,3.7768
1206.00,3.7938
1205.00,3.8121
1204.00,3.8153
1203.00,3.8063
1202.00,3.8027
1201.00,3.8169
1200.00,3.8460
1199.00,3.8760
1198.00,3.8941
1197.00,3.8946
1196.00,3.8777
1195.00,3.8447
1194.00,3.7996
1193.00,3.7605
1192.00,3.7405
1191.00,3.7345
1190.00,3.7374
1189.00,3.7488
1188.00,3.7637
1187.00,3.7706
1186.00,3.7600
1185.00,3.7332
1184.00,3.7001
1183.00,3.6757
1182.00,3.6733
1181.00,3.6972
1180.00,3.7401
1179.00,3.7767
1178.00,3.7735
1177.00,3.7373
1176.00,3.7076
1175.00,3.7040
1174.00,3.7194
1173.00,3.7289
1172.00,3.7138
1171.00,3.6867
1170.00,3.6745
1169.00,3.6908
1168.00,3.7311
1167.00,3.7710
1166.00,3.7642
1165.00,3.6971
1164.00,3.6178
1163.00,3.5618
1162.00,3.5342
1161.00,3.5291
1160.00,3.5394
1159.00,3.5539
1158.00,3.5573
1157.00,3.5403
1156.00,3.5094
1155.00,3.4784
1154.00,3.4525
1153.00,3.4223
1152.00,3.3764
1151.00,3.3186
1150.00,3.2637
1149.00,3.2228
1148.00,3.1954
1147.00,3.1734
1146.00,3.1490
1145.00,3.1185
1144.00,3.0800
1143.00,3.0313
1142.00,2.9743
1141.00,2.9159
1140.00,2.8623
1139.00,2.8143
1138.00,2.7705
1137.00,2.7326
1136.00,2.7054
1135.00,2.6932
1134.00,2.6953
1133.00,2.7077
1132.00,2.7277
1131.00,2.7566
1130.00,2.7982
1129.00,2.8543
1128.00,2.9215
1127.00,2.9913
1126.00,3.0545
1125.00,3.1100
1124.00,3.1656
1123.00,3.2285
1122.00,3.2922
1121.00,3.3371
1120.00,3.3493
1119.00,3.3363
1118.00,3.3200
1117.00,3.3186
1116.00,3.3402
1115.00,3.3834
1114.00,3.4379
1113.00,3.4832
1112.00,3.4998
1111.00,3.4933
1110.00,3.4934
1109.00,3.5220
1108.00,3.5709
1107.00,3.6055
1106.00,3.6061
1105.00,3.5977
1104.00,3.6120
1103.00,3.6497
1102.00,3.6826
1101.00,3.6878
1100.00,3.6794
1099.00,3.6922
1098.00,3.7470
1097.00,3.8397
1096.00,3.9646
1095.00,4.1448
1094.00,4.2657
1093.00,4.0963
1092.00,3.8639
1091.00,3.7034
1090.00,3.6409
1089.00,3.6614
1088.00,3.7305
1087.00,3.8089
1086.00,3.8862
1085.00,3.9778
1084.00,4.0667
1083.00,4.0883
1082.00,4.0480
1081.00,3.9914
1080.00,3.9315
1079.00,3.9021
1078.00,3.9189
1077.00,3.9465
1076.00,3.9394
1075.00,3.9067
1074.00,3.8798
1073.00,3.8408
1072.00,3.7737
1071.00,3.7172
1070.00,3.7109
1069.00,3.7660
1068.00,3.8526
1067.00,3.9107
1066.00,3.9311
1065.00,3.9708
1064.00,4.0534
1063.00,4.1283
1062.00,4.1813
1061.00,4.1726
1060.00,4.0450
1059.00,3.9200
1058.00,3.8188
1057.00,3.7399
1056.00,3.6985
1055.00,3.6946
1054.00,3.7187
1053.00,3.7735
1052.00,3.8811
1051.00,4.0639
1050.00,4.2762
1049.00,4.3183
1048.00,4.1678
1047.00,4.0204
1046.00,3.9499
1045.00,3.9504
1044.00,4.0178
1043.00,4.1537
1042.00,4.2987
1041.00,4.3020
1040.00,4.1747
1039.00,4.0504
1038.00,3.9755
1037.00,3.9430
1036.00,3.9416
1035.00,3.9558
1034.00,3.9854
1033.00,4.0450
1032.00,4.1060
1031.00,4.0970
1030.00,4.0117
1029.00,3.9305
1028.00,3.9027
1027.00,3.9211
1026.00,3.9490
1025.00,3.9656
1024.00,4.0012
1023.00,4.1062
1022.00,4.3009
1021.00,4.4698
1020.00,4.3684
1019.00,4.1224
1018.00,3.9353
1017.00,3.8318
1016.00,3.7948
1015.00,3.8084
1014.00,3.8587
1013.00,3.9096
1012.00,3.9013
1011.00,3.8418
1010.00,3.7841
1009.00,3.7470
1008.00,3.7244
1007.00,3.7120
1006.00,3.7248
1005.00,3.7802
1004.00,3.8671
1003.00,3.9455
1002.00,3.9707
1001.00,3.9159
1000.00,3.8095
999.00,3.6973
998.00,3.6045
997.00,3.5407
996.00,3.5064
995.00,3.4960
994.00,3.4984
993.00,3.4985
992.00,3.4852
991.00,3.4596
990.00,3.4291
989.00,3.3981
988.00,3.3697
987.00,3.3471
986.00,3.3321
985.00,3.3256
984.00,3.3279
983.00,3.3384
982.00,3.3527
981.00,3.3630
980.00,3.3674
979.00,3.3722
978.00,3.3916
977.00,3.4430
976.00,3.5347
975.00,3.6609
974.00,3.8037
973.00,3.9308
972.00,4.0001
971.00,4.0071
970.00,3.9937
969.00,3.9949
968.00,4.0209
967.00,4.0655
966.00,4.1098
965.00,4.1454
964.00,4.1956
963.00,4.2592
962.00,4.2991
961.00,4.2505
960.00,4.1233
959.00,4.0452
958.00,4.0448
957.00,4.0664
956.00,4.0533
955.00,4.0371
954.00,4.0456
953.00,4.0438
952.00,4.0061
951.00,3.9426
950.00,3.8803
949.00,3.8559
948.00,3.8639
947.00,3.8593
946.00,3.8319
945.00,3.8083
944.00,3.8145
943.00,3.8621
942.00,3.9275
941.00,3.9658
940.00,3.9744
939.00,3.9829
938.00,3.9822
937.00,3.9348
936.00,3.8577
935.00,3.8125
934.00,3.8336
933.00,3.9118
932.00,4.0010
931.00,4.0130
930.00,3.9503
929.00,3.9357
928.00,4.0285
927.00,4.2366
926.00,4.4701
925.00,4.5241
924.00,4.3450
923.00,4.1882
922.00,4.1570
921.00,4.1789
920.00,4.1428
919.00,4.0624
918.00,4.0274
917.00,4.0535
916.00,4.0331
915.00,3.9221
914.00,3.8228
913.00,3.7710
912.00,3.7680
911.00,3.8151
910.00,3.9137
909.00,4.0313
908.00,4.0700
907.00,4.0062
906.00,3.9186
905.00,3.8731
904.00,3.8942
903.00,3.9707
902.00,4.0673
901.00,4.1326
900.00,4.1218
899.00,4.0392
898.00,3.9399
897.00,3.8827
896.00,3.8854
895.00,3.9287
894.00,3.9739
893.00,3.9783
892.00,3.9057
891.00,3.7731
890.00,3.6549
889.00,3.6024
888.00,3.6215
887.00,3.6856
886.00,3.7373
885.00,3.7346
884.00,3.7286
883.00,3.7658
882.00,3.8031
881.00,3.7877
880.00,3.7503
879.00,3.7416
878.00,3.8039
877.00,3.9230
876.00,3.9746
875.00,3.9682
874.00,3.9685
873.00,3.9111
872.00,3.8043
871.00,3.7019
870.00,3.6509
869.00,3.6794
868.00,3.7823
867.00,3.8879
866.00,3.8637
865.00,3.7368
864.00,3.6363
863.00,3.6083
862.00,3.6426
861.00,3.7106
860.00,3.8002
859.00,3.9270
858.00,4.1043
857.00,4.3269
856.00,4.4151
855.00,4.2678
854.00,4.1464
853.00,4.0560
852.00,3.9369
851.00,3.8106
850.00,3.7223
849.00,3.6710
848.00,3.6385
847.00,3.6212
846.00,3.6285
845.00,3.6650
844.00,3.7167
843.00,3.7624
842.00,3.7971
841.00,3.8119
840.00,3.7915
839.00,3.7576
838.00,3.7557
837.00,3.8002
836.00,3.8402
835.00,3.8109
834.00,3.7532
833.00,3.7359
832.00,3.7908
831.00,3.9287
830.00,4.1593
829.00,4.3635
828.00,4.1808
827.00,3.9599
826.00,3.8625
825.00,3.8933
824.00,3.9727
823.00,3.8875
822.00,3.7314
821.00,3.6205
820.00,3.5571
819.00,3.5306
818.00,3.5348
817.00,3.5804
816.00,3.6917
815.00,3.8542
814.00,3.9249
813.00,3.8923
812.00,3.9007
811.00,3.9953
810.00,4.1014
809.00,4.0152
808.00,3.8064
807.00,3.6446
806.00,3.5785
805.00,3.5990
804.00,3.6809
803.00,3.7795
802.00,3.8095
801.00,3.7660
800.00,3.7475
799.00,3.8054
798.00,3.9320
797.00,4.0209
796.00,3.9497
795.00,3.8397
794.00,3.8068
793.00,3.8336
792.00,3.8033
791.00,3.7462
790.00,3.7738
789.00,3.8122
788.00,3.7525
787.00,3.7046
786.00,3.7333
785.00,3.8436
784.00,4.0138
783.00,4.1175
782.00,4.0351
781.00,3.8800
780.00,3.7767
779.00,3.7609
778.00,3.8274
777.00,3.9202
776.00,3.9127
775.00,3.8073
774.00,3.7374
773.00,3.7557
772.00,3.8415
771.00,3.8950
770.00,3.8609
769.00,3.8325
768.00,3.8517
767.00,3.8955
766.00,3.9062
765.00,3.8683
764.00,3.8484
763.00,3.8779
762.00,3.9124
761.00,3.8925
760.00,3.8854
759.00,3.9260
758.00,3.9066
757.00,3.8325
756.00,3.7854
755.00,3.7660
754.00,3.7554
753.00,3.7347
752.00,3.7110
751.00,3.7089
750.00,3.7519
749.00,3.8434
748.00,3.9337
747.00,3.9534
746.00,3.9130
745.00,3.8448
744.00,3.7582
743.00,3.6842
742.00,3.6458
741.00,3.6397
740.00,3.6514
739.00,3.6591
738.00,3.6421
737.00,3.6098
736.00,3.5901
735.00,3.5977
734.00,3.6434
733.00,3.7406
732.00,3.8717
731.00,4.0016
730.00,4.0975
729.00,4.0277
728.00,3.8799
727.00,3.7802
726.00,3.7112
725.00,3.6449
724.00,3.5789
723.00,3.5389
722.00,3.5487
721.00,3.6114
720.00,3.7127
719.00,3.8360
718.00,3.9413
717.00,3.9328
716.00,3.8535
715.00,3.7997
714.00,3.7628
713.00,3.7072
712.00,3.6392
711.00,3.5959
710.00,3.6036
709.00,3.6686
708.00,3.7818
707.00,3.9081
706.00,3.9795
705.00,3.9394
704.00,3.8311
703.00,3.7382
702.00,3.6869
701.00,3.6604
700.00,3.6393
