Created as New Dataset,Sample 009 By Administrator Date Wednesday, November 24 2021
cm-1,A
7502.00,0.7464
7501.00,0.7389
7500.00,0.7315
7499.00,0.7242
7498.00,0.7171
7497.00,0.7100
7496.00,0.7031
7495.00,0.6965
7494.00,0.6903
7493.00,0.6835
7492.00,0.6758
7491.00,0.6675
7490.00,0.6590
7489.00,0.6507
7488.00,0.6427
7487.00,0.6351
7486.00,0.6280
7485.00,0.6214
7484.00,0.6148
7483.00,0.6082
7482.00,0.6017
7481.00,0.5953
7480.00,0.5889
7479.00,0.5823
7478.00,0.5757
7477.00,0.5697
7476.00,0.5643
7475.00,0.5591
7474.00,0.5538
7473.00,0.5485
7472.00,0.5431
7471.00,0.5382
7470.00,0.5339
7469.00,0.5302
7468.00,0.5271
7467.00,0.5246
7466.00,0.5231
7465.00,0.5224
7464.00,0.5223
7463.00,0.5223
7462.00,0.5226
7461.00,0.5233
7460.00,0.5244
7459.00,0.5259
7458.00,0.5278
7457.00,0.5301
7456.00,0.5329
7455.00,0.5359
7454.00,0.5392
7453.00,0.5428
7452.00,0.5467
7451.00,0.5508
7450.00,0.5551
7449.00,0.5600
7448.00,0.5655
7447.00,0.5717
7446.00,0.5785
7445.00,0.5858
7444.00,0.5935
7443.00,0.6015
7442.00,0.6095
7441.00,0.6174
7440.00,0.6251
7439.00,0.6325
7438.00,0.6400
7437.00,0.6477
7436.00,0.6559
7435.00,0.6641
7434.00,0.6723
7433.00,0.6808
7432.00,0.6896
7431.00,0.6986
7430.00,0.7074
7429.00,0.7157
7428.00,0.7237
7427.00,0.7317
7426.00,0.7402
7425.00,0.7489
7424.00,0.7572
7423.00,0.7649
7422.00,0.7723
7421.00,0.7800
7420.00,0.7881
7419.00,0.7960
7418.00,0.8034
7417.00,0.8104
7416.00,0.8173
7415.00,0.8242
7414.00,0.8311
7413.00,0.8378
7412.00,0.8442
7411.00,0.8500
7410.00,0.8558
7409.00,0.8618
7408.00,0.8683
7407.00,0.8749
7406.00,0.8810
7405.00,0.8861
7404.00,0.8905
7403.00,0.8946
7402.00,0.8986
7401.00,0.9023
7400.00,0.9051
7399.00,0.9069
7398.00,0.9083
7397.00,0.9101
7396.00,0.9122
7395.00,0.9142
7394.00,0.9160
7393.00,0.9175
7392.00,0.9186
7391.00,0.9191
7390.00,0.9193
7389.00,0.9194
7388.00,0.9196
7387.00,0.9196
7386.00,0.9192
7385.00,0.9190
7384.00,0.9194
7383.00,0.9200
7382.00,0.9196
7381.00,0.9180
7380.00,0.9157
7379.00,0.9136
7378.00,0.9116
7377.00,0.9089
7376.00,0.9053
7375.00,0.9006
7374.00,0.8949
7373.00,0.8883
7372.00,0.8808
7371.00,0.8732
7370.00,0.8659
7369.00,0.8594
7368.00,0.8536
7367.00,0.8483
7366.00,0.8431
7365.00,0.8376
7364.00,0.8316
7363.00,0.8254
7362.00,0.8194
7361.00,0.8136
7360.00,0.8078
7359.00,0.8020
7358.00,0.7963
7357.00,0.7909
7356.00,0.7858
7355.00,0.7808
7354.00,0.7758
7353.00,0.7710
7352.00,0.7665
7351.00,0.7615
7350.00,0.7557
7349.00,0.7489
7348.00,0.7412
7347.00,0.7328
7346.00,0.7240
7345.00,0.7155
7344.00,0.7080
7343.00,0.7018
7342.00,0.6962
7341.00,0.6906
7340.00,0.6848
7339.00,0.6786
7338.00,0.6724
7337.00,0.6663
7336.00,0.6603
7335.00,0.6546
7334.00,0.6494
7333.00,0.6448
7332.00,0.6407
7331.00,0.6370
7330.00,0.6335
7329.00,0.6300
7328.00,0.6266
7327.00,0.6237
7326.00,0.6216
7325.00,0.6201
7324.00,0.6189
7323.00,0.6177
7322.00,0.6169
7321.00,0.6166
7320.00,0.6170
7319.00,0.6178
7318.00,0.6191
7317.00,0.6209
7316.00,0.6236
7315.00,0.6271
7314.00,0.6310
7313.00,0.6352
7312.00,0.6392
7311.00,0.6434
7310.00,0.6480
7309.00,0.6530
7308.00,0.6581
7307.00,0.6632
7306.00,0.6685
7305.00,0.6744
7304.00,0.6809
7303.00,0.6879
7302.00,0.6952
7301.00,0.7029
7300.00,0.7111
7299.00,0.7196
7298.00,0.7280
7297.00,0.7363
7296.00,0.7445
7295.00,0.7527
7294.00,0.7608
7293.00,0.7688
7292.00,0.7766
7291.00,0.7845
7290.00,0.7926
7289.00,0.8009
7288.00,0.8090
7287.00,0.8169
7286.00,0.8249
7285.00,0.8335
7284.00,0.8427
7283.00,0.8521
7282.00,0.8610
7281.00,0.8692
7280.00,0.8770
7279.00,0.8848
7278.00,0.8926
7277.00,0.9000
7276.00,0.9067
7275.00,0.9132
7274.00,0.9205
7273.00,0.9285
7272.00,0.9368
7271.00,0.9445
7270.00,0.9515
7269.00,0.9583
7268.00,0.9652
7267.00,0.9722
7266.00,0.9789
7265.00,0.9850
7264.00,0.9904
7263.00,0.9953
7262.00,1.0001
7261.00,1.0052
7260.00,1.0102
7259.00,1.0149
7258.00,1.0193
7257.00,1.0233
7256.00,1.0268
7255.00,1.0294
7254.00,1.0315
7253.00,1.0336
7252.00,1.0358
7251.00,1.0379
7250.00,1.0398
7249.00,1.0418
7248.00,1.0440
7247.00,1.0460
7246.00,1.0472
7245.00,1.0473
7244.00,1.0465
7243.00,1.0456
7242.00,1.0450
7241.00,1.0449
7240.00,1.0447
7239.00,1.0442
7238.00,1.0430
7237.00,1.0413
7236.00,1.0391
7235.00,1.0364
7234.00,1.0334
7233.00,1.0301
7232.00,1.0265
7231.00,1.0225
7230.00,1.0180
7229.00,1.0136
7228.00,1.0093
7227.00,1.0045
7226.00,0.9987
7225.00,0.9924
7224.00,0.9862
7223.00,0.9804
7222.00,0.9746
7221.00,0.9683
7220.00,0.9614
7219.00,0.9542
7218.00,0.9470
7217.00,0.9394
7216.00,0.9316
7215.00,0.9235
7214.00,0.9155
7213.00,0.9076
7212.00,0.8994
7211.00,0.8910
7210.00,0.8824
7209.00,0.8736
7208.00,0.8646
7207.00,0.8555
7206.00,0.8469
7205.00,0.8385
7204.00,0.8301
7203.00,0.8213
7202.00,0.8124
7201.00,0.8039
7200.00,0.7955
7199.00,0.7872
7198.00,0.7792
7197.00,0.7717
7196.00,0.7647
7195.00,0.7580
7194.00,0.7512
7193.00,0.7446
7192.00,0.7382
7191.00,0.7322
7190.00,0.7267
7189.00,0.7218
7188.00,0.7178
7187.00,0.7144
7186.00,0.7113
7185.00,0.7086
7184.00,0.7062
7183.00,0.7040
7182.00,0.7019
7181.00,0.7003
7180.00,0.6992
7179.00,0.6987
7178.00,0.6988
7177.00,0.6994
7176.00,0.7004
7175.00,0.7019
7174.00,0.7041
7173.00,0.7068
7172.00,0.7102
7171.00,0.7140
7170.00,0.7181
7169.00,0.7225
7168.00,0.7273
7167.00,0.7324
7166.00,0.7377
7165.00,0.7432
7164.00,0.7490
7163.00,0.7553
7162.00,0.7620
7161.00,0.7689
7160.00,0.7763
7159.00,0.7840
7158.00,0.7919
7157.00,0.7998
7156.00,0.8077
7155.00,0.8157
7154.00,0.8238
7153.00,0.8319
7152.00,0.8397
7151.00,0.8475
7150.00,0.8557
7149.00,0.8641
7148.00,0.8724
7147.00,0.8805
7146.00,0.8886
7145.00,0.8970
7144.00,0.9054
7143.00,0.9135
7142.00,0.9213
7141.00,0.9291
7140.00,0.9371
7139.00,0.9454
7138.00,0.9537
7137.00,0.9616
7136.00,0.9689
7135.00,0.9756
7134.00,0.9824
7133.00,0.9893
7132.00,0.9964
7131.00,1.0029
7130.00,1.0088
7129.00,1.0145
7128.00,1.0204
7127.00,1.0262
7126.00,1.0314
7125.00,1.0359
7124.00,1.0402
7123.00,1.0449
7122.00,1.0499
7121.00,1.0550
7120.00,1.0596
7119.00,1.0635
7118.00,1.0669
7117.00,1.0701
7116.00,1.0730
7115.00,1.0754
7114.00,1.0773
7113.00,1.0789
7112.00,1.0806
7111.00,1.0820
7110.00,1.0828
7109.00,1.0829
7108.00,1.0828
7107.00,1.0831
7106.00,1.0838
7105.00,1.0843
7104.00,1.0842
7103.00,1.0839
7102.00,1.0836
7101.00,1.0830
7100.00,1.0817
7099.00,1.0792
7098.00,1.0759
7097.00,1.0724
7096.00,1.0693
7095.00,1.0665
7094.00,1.0636
7093.00,1.0605
7092.00,1.0571
7091.00,1.0534
7090.00,1.0492
7089.00,1.0443
7088.00,1.0389
7087.00,1.0332
7086.00,1.0273
7085.00,1.0210
7084.00,1.0143
7083.00,1.0073
7082.00,1.0000
7081.00,0.9924
7080.00,0.9845
7079.00,0.9765
7078.00,0.9685
7077.00,0.9608
7076.00,0.9532
7075.00,0.9455
7074.00,0.9375
7073.00,0.9292
7072.00,0.9205
7071.00,0.9114
7070.00,0.9022
7069.00,0.8929
7068.00,0.8839
7067.00,0.8750
7066.00,0.8661
7065.00,0.8570
7064.00,0.8481
7063.00,0.8392
7062.00,0.8305
7061.00,0.8220
7060.00,0.8137
7059.00,0.8057
7058.00,0.7981
7057.00,0.7909
7056.00,0.7838
7055.00,0.7767
7054.00,0.7698
7053.00,0.7631
7052.00,0.7568
7051.00,0.7509
7050.00,0.7455
7049.00,0.7406
7048.00,0.7362
7047.00,0.7322
7046.00,0.7285
7045.00,0.7251
7044.00,0.7221
7043.00,0.7194
7042.00,0.7174
7041.00,0.7160
7040.00,0.7152
7039.00,0.7147
7038.00,0.7147
7037.00,0.7154
7036.00,0.7165
7035.00,0.7180
7034.00,0.7197
7033.00,0.7220
7032.00,0.7247
7031.00,0.7281
7030.00,0.7320
7029.00,0.7364
7028.00,0.7412
7027.00,0.7464
7026.00,0.7521
7025.00,0.7581
7024.00,0.7642
7023.00,0.7706
7022.00,0.7771
7021.00,0.7839
7020.00,0.7907
7019.00,0.7976
7018.00,0.8048
7017.00,0.8123
7016.00,0.8199
7015.00,0.8277
7014.00,0.8356
7013.00,0.8440
7012.00,0.8526
7011.00,0.8614
7010.00,0.8701
7009.00,0.8787
7008.00,0.8873
7007.00,0.8959
7006.00,0.9043
7005.00,0.9125
7004.00,0.9205
7003.00,0.9285
7002.00,0.9366
7001.00,0.9450
7000.00,0.9533
6999.00,0.9617
6998.00,0.9701
6997.00,0.9784
6996.00,0.9866
6995.00,0.9944
6994.00,1.0021
6993.00,1.0096
6992.00,1.0169
6991.00,1.0240
6990.00,1.0312
6989.00,1.0386
6988.00,1.0460
6987.00,1.0532
6986.00,1.0599
6985.00,1.0664
6984.00,1.0726
6983.00,1.0784
6982.00,1.0834
6981.00,1.0877
6980.00,1.0919
6979.00,1.0961
6978.00,1.1003
6977.00,1.1044
6976.00,1.1084
6975.00,1.1125
6974.00,1.1165
6973.00,1.1201
6972.00,1.1233
6971.00,1.1261
6970.00,1.1286
6969.00,1.1306
6968.00,1.1320
6967.00,1.1327
6966.00,1.1330
6965.00,1.1334
6964.00,1.1341
6963.00,1.1348
6962.00,1.1352
6961.00,1.1351
6960.00,1.1347
6959.00,1.1341
6958.00,1.1332
6957.00,1.1317
6956.00,1.1295
6955.00,1.1269
6954.00,1.1242
6953.00,1.1214
6952.00,1.1183
6951.00,1.1148
6950.00,1.1108
6949.00,1.1062
6948.00,1.1012
6947.00,1.0961
6946.00,1.0912
6945.00,1.0862
6944.00,1.0806
6943.00,1.0744
6942.00,1.0679
6941.00,1.0612
6940.00,1.0539
6939.00,1.0458
6938.00,1.0371
6937.00,1.0284
6936.00,1.0201
6935.00,1.0122
6934.00,1.0043
6933.00,0.9961
6932.00,0.9876
6931.00,0.9788
6930.00,0.9697
6929.00,0.9603
6928.00,0.9505
6927.00,0.9406
6926.00,0.9308
6925.00,0.9212
6924.00,0.9117
6923.00,0.9024
6922.00,0.8933
6921.00,0.8842
6920.00,0.8751
6919.00,0.8661
6918.00,0.8572
6917.00,0.8486
6916.00,0.8403
6915.00,0.8322
6914.00,0.8246
6913.00,0.8173
6912.00,0.8103
6911.00,0.8034
6910.00,0.7968
6909.00,0.7904
6908.00,0.7843
6907.00,0.7785
6906.00,0.7735
6905.00,0.7694
6904.00,0.7661
6903.00,0.7632
6902.00,0.7607
6901.00,0.7587
6900.00,0.7572
6899.00,0.7559
6898.00,0.7549
6897.00,0.7543
6896.00,0.7544
6895.00,0.7551
6894.00,0.7564
6893.00,0.7584
6892.00,0.7608
6891.00,0.7636
6890.00,0.7669
6889.00,0.7709
6888.00,0.7753
6887.00,0.7801
6886.00,0.7852
6885.00,0.7907
6884.00,0.7965
6883.00,0.8026
6882.00,0.8090
6881.00,0.8154
6880.00,0.8220
6879.00,0.8288
6878.00,0.8361
6877.00,0.8440
6876.00,0.8522
6875.00,0.8603
6874.00,0.8686
6873.00,0.8769
6872.00,0.8852
6871.00,0.8933
6870.00,0.9015
6869.00,0.9097
6868.00,0.9181
6867.00,0.9265
6866.00,0.9350
6865.00,0.9437
6864.00,0.9524
6863.00,0.9609
6862.00,0.9691
6861.00,0.9772
6860.00,0.9853
6859.00,0.9934
6858.00,1.0016
6857.00,1.0096
6856.00,1.0174
6855.00,1.0250
6854.00,1.0324
6853.00,1.0398
6852.00,1.0468
6851.00,1.0533
6850.00,1.0594
6849.00,1.0654
6848.00,1.0716
6847.00,1.0778
6846.00,1.0837
6845.00,1.0893
6844.00,1.0947
6843.00,1.0999
6842.00,1.1052
6841.00,1.1105
6840.00,1.1153
6839.00,1.1197
6838.00,1.1239
6837.00,1.1277
6836.00,1.1310
6835.00,1.1336
6834.00,1.1357
6833.00,1.1377
6832.00,1.1395
6831.00,1.1413
6830.00,1.1430
6829.00,1.1446
6828.00,1.1459
6827.00,1.1466
6826.00,1.1466
6825.00,1.1462
6824.00,1.1456
6823.00,1.1450
6822.00,1.1443
6821.00,1.1433
6820.00,1.1420
6819.00,1.1402
6818.00,1.1380
6817.00,1.1354
6816.00,1.1324
6815.00,1.1292
6814.00,1.1257
6813.00,1.1221
6812.00,1.1181
6811.00,1.1137
6810.00,1.1087
6809.00,1.1032
6808.00,1.0974
6807.00,1.0914
6806.00,1.0853
6805.00,1.0790
6804.00,1.0723
6803.00,1.0652
6802.00,1.0580
6801.00,1.0505
6800.00,1.0427
6799.00,1.0345
6798.00,1.0260
6797.00,1.0174
6796.00,1.0087
6795.00,0.9998
6794.00,0.9908
6793.00,0.9815
6792.00,0.9720
6791.00,0.9624
6790.00,0.9529
6789.00,0.9435
6788.00,0.9339
6787.00,0.9243
6786.00,0.9148
6785.00,0.9055
6784.00,0.8962
6783.00,0.8867
6782.00,0.8772
6781.00,0.8680
6780.00,0.8589
6779.00,0.8501
6778.00,0.8415
6777.00,0.8333
6776.00,0.8253
6775.00,0.8176
6774.00,0.8099
6773.00,0.8026
6772.00,0.7958
6771.00,0.7893
6770.00,0.7832
6769.00,0.7774
6768.00,0.7720
6767.00,0.7671
6766.00,0.7627
6765.00,0.7587
6764.00,0.7551
6763.00,0.7519
6762.00,0.7493
6761.00,0.7472
6760.00,0.7455
6759.00,0.7442
6758.00,0.7433
6757.00,0.7430
6756.00,0.7433
6755.00,0.7441
6754.00,0.7454
6753.00,0.7472
6752.00,0.7495
6751.00,0.7523
6750.00,0.7555
6749.00,0.7592
6748.00,0.7635
6747.00,0.7681
6746.00,0.7732
6745.00,0.7786
6744.00,0.7846
6743.00,0.7909
6742.00,0.7975
6741.00,0.8042
6740.00,0.8113
6739.00,0.8186
6738.00,0.8262
6737.00,0.8339
6736.00,0.8418
6735.00,0.8500
6734.00,0.8585
6733.00,0.8671
6732.00,0.8757
6731.00,0.8843
6730.00,0.8931
6729.00,0.9018
6728.00,0.9104
6727.00,0.9190
6726.00,0.9278
6725.00,0.9368
6724.00,0.9457
6723.00,0.9544
6722.00,0.9630
6721.00,0.9716
6720.00,0.9800
6719.00,0.9883
6718.00,0.9967
6717.00,1.0054
6716.00,1.0141
6715.00,1.0227
6714.00,1.0310
6713.00,1.0392
6712.00,1.0473
6711.00,1.0552
6710.00,1.0628
6709.00,1.0704
6708.00,1.0778
6707.00,1.0850
6706.00,1.0918
6705.00,1.0983
6704.00,1.1046
6703.00,1.1105
6702.00,1.1162
6701.00,1.1215
6700.00,1.1263
6699.00,1.1309
6698.00,1.1356
6697.00,1.1404
6696.00,1.1452
6695.00,1.1497
6694.00,1.1540
6693.00,1.1580
6692.00,1.1614
6691.00,1.1641
6690.00,1.1662
6689.00,1.1681
6688.00,1.1699
6687.00,1.1717
6686.00,1.1736
6685.00,1.1755
6684.00,1.1769
6683.00,1.1778
6682.00,1.1782
6681.00,1.1784
6680.00,1.1781
6679.00,1.1772
6678.00,1.1758
6677.00,1.1740
6676.00,1.1722
6675.00,1.1702
6674.00,1.1680
6673.00,1.1653
6672.00,1.1621
6671.00,1.1584
6670.00,1.1546
6669.00,1.1506
6668.00,1.1461
6667.00,1.1408
6666.00,1.1352
6665.00,1.1296
6664.00,1.1240
6663.00,1.1181
6662.00,1.1118
6661.00,1.1053
6660.00,1.0985
6659.00,1.0913
6658.00,1.0835
6657.00,1.0752
6656.00,1.0665
6655.00,1.0577
6654.00,1.0489
6653.00,1.0402
6652.00,1.0313
6651.00,1.0221
6650.00,1.0126
6649.00,1.0028
6648.00,0.9926
6647.00,0.9821
6646.00,0.9713
6645.00,0.9608
6644.00,0.9505
6643.00,0.9405
6642.00,0.9304
6641.00,0.9204
6640.00,0.9105
6639.00,0.9005
6638.00,0.8906
6637.00,0.8809
6636.00,0.8715
6635.00,0.8626
6634.00,0.8539
6633.00,0.8456
6632.00,0.8373
6631.00,0.8292
6630.00,0.8214
6629.00,0.8139
6628.00,0.8069
6627.00,0.8005
6626.00,0.7946
6625.00,0.7894
6624.00,0.7847
6623.00,0.7804
6622.00,0.7764
6621.00,0.7730
6620.00,0.7702
6619.00,0.7678
6618.00,0.7659
6617.00,0.7646
6616.00,0.7639
6615.00,0.7638
6614.00,0.7643
6613.00,0.7654
6612.00,0.7672
6611.00,0.7695
6610.00,0.7722
6609.00,0.7754
6608.00,0.7791
6607.00,0.7831
6606.00,0.7876
6605.00,0.7925
6604.00,0.7980
6603.00,0.8040
6602.00,0.8104
6601.00,0.8172
6600.00,0.8241
6599.00,0.8313
6598.00,0.8387
6597.00,0.8464
6596.00,0.8541
6595.00,0.8620
6594.00,0.8701
6593.00,0.8785
6592.00,0.8869
6591.00,0.8953
6590.00,0.9037
6589.00,0.9122
6588.00,0.9209
6587.00,0.9299
6586.00,0.9390
6585.00,0.9483
6584.00,0.9576
6583.00,0.9667
6582.00,0.9756
6581.00,0.9845
6580.00,0.9930
6579.00,1.0014
6578.00,1.0096
6577.00,1.0179
6576.00,1.0263
6575.00,1.0346
6574.00,1.0427
6573.00,1.0504
6572.00,1.0581
6571.00,1.0655
6570.00,1.0726
6569.00,1.0793
6568.00,1.0856
6567.00,1.0920
6566.00,1.0987
6565.00,1.1056
6564.00,1.1121
6563.00,1.1181
6562.00,1.1238
6561.00,1.1292
6560.00,1.1341
6559.00,1.1385
6558.00,1.1424
6557.00,1.1460
6556.00,1.1494
6555.00,1.1526
6554.00,1.1558
6553.00,1.1592
6552.00,1.1627
6551.00,1.1660
6550.00,1.1687
6549.00,1.1708
6548.00,1.1724
6547.00,1.1734
6546.00,1.1736
6545.00,1.1733
6544.00,1.1730
6543.00,1.1730
6542.00,1.1730
6541.00,1.1727
6540.00,1.1718
6539.00,1.1701
6538.00,1.1680
6537.00,1.1654
6536.00,1.1625
6535.00,1.1594
6534.00,1.1562
6533.00,1.1528
6532.00,1.1490
6531.00,1.1448
6530.00,1.1402
6529.00,1.1353
6528.00,1.1299
6527.00,1.1239
6526.00,1.1176
6525.00,1.1111
6524.00,1.1045
6523.00,1.0975
6522.00,1.0901
6521.00,1.0824
6520.00,1.0745
6519.00,1.0664
6518.00,1.0581
6517.00,1.0497
6516.00,1.0410
6515.00,1.0320
6514.00,1.0228
6513.00,1.0136
6512.00,1.0043
6511.00,0.9948
6510.00,0.9850
6509.00,0.9752
6508.00,0.9653
6507.00,0.9554
6506.00,0.9453
6505.00,0.9351
6504.00,0.9249
6503.00,0.9148
6502.00,0.9048
6501.00,0.8948
6500.00,0.8848
6499.00,0.8749
6498.00,0.8654
6497.00,0.8562
6496.00,0.8472
6495.00,0.8385
6494.00,0.8300
6493.00,0.8220
6492.00,0.8141
6491.00,0.8064
6490.00,0.7988
6489.00,0.7917
6488.00,0.7850
6487.00,0.7786
6486.00,0.7727
6485.00,0.7674
6484.00,0.7626
6483.00,0.7583
6482.00,0.7544
6481.00,0.7511
6480.00,0.7483
6479.00,0.7462
6478.00,0.7445
6477.00,0.7434
6476.00,0.7428
6475.00,0.7427
6474.00,0.7431
6473.00,0.7441
6472.00,0.7456
6471.00,0.7476
6470.00,0.7500
6469.00,0.7531
6468.00,0.7568
6467.00,0.7610
6466.00,0.7659
6465.00,0.7713
6464.00,0.7771
6463.00,0.7832
6462.00,0.7895
6461.00,0.7963
6460.00,0.8032
6459.00,0.8103
6458.00,0.8176
6457.00,0.8253
6456.00,0.8335
6455.00,0.8419
6454.00,0.8503
6453.00,0.8590
6452.00,0.8679
6451.00,0.8770
6450.00,0.8863
6449.00,0.8958
6448.00,0.9054
6447.00,0.9151
6446.00,0.9247
6445.00,0.9341
6444.00,0.9433
6443.00,0.9525
6442.00,0.9616
6441.00,0.9707
6440.00,0.9798
6439.00,0.9889
6438.00,0.9980
6437.00,1.0071
6436.00,1.0160
6435.00,1.0246
6434.00,1.0332
6433.00,1.0418
6432.00,1.0503
6431.00,1.0585
6430.00,1.0665
6429.00,1.0744
6428.00,1.0823
6427.00,1.0897
6426.00,1.0966
6425.00,1.1034
6424.00,1.1101
6423.00,1.1165
6422.00,1.1226
6421.00,1.1286
6420.00,1.1346
6419.00,1.1406
6418.00,1.1464
6417.00,1.1519
6416.00,1.1572
6415.00,1.1621
6414.00,1.1663
6413.00,1.1701
6412.00,1.1735
6411.00,1.1765
6410.00,1.1793
6409.00,1.1822
6408.00,1.1850
6407.00,1.1872
6406.00,1.1889
6405.00,1.1903
6404.00,1.1916
6403.00,1.1926
6402.00,1.1931
6401.00,1.1932
6400.00,1.1930
6399.00,1.1924
6398.00,1.1913
6397.00,1.1899
6396.00,1.1883
6395.00,1.1865
6394.00,1.1843
6393.00,1.1818
6392.00,1.1787
6391.00,1.1751
6390.00,1.1711
6389.00,1.1669
6388.00,1.1625
6387.00,1.1580
6386.00,1.1532
6385.00,1.1479
6384.00,1.1420
6383.00,1.1355
6382.00,1.1285
6381.00,1.1213
6380.00,1.1141
6379.00,1.1066
6378.00,1.0988
6377.00,1.0906
6376.00,1.0823
6375.00,1.0737
6374.00,1.0648
6373.00,1.0554
6372.00,1.0458
6371.00,1.0358
6370.00,1.0257
6369.00,1.0154
6368.00,1.0049
6367.00,0.9939
6366.00,0.9829
6365.00,0.9720
6364.00,0.9613
6363.00,0.9506
6362.00,0.9398
6361.00,0.9291
6360.00,0.9184
6359.00,0.9078
6358.00,0.8970
6357.00,0.8862
6356.00,0.8757
6355.00,0.8655
6354.00,0.8556
6353.00,0.8458
6352.00,0.8363
6351.00,0.8270
6350.00,0.8181
6349.00,0.8096
6348.00,0.8016
6347.00,0.7940
6346.00,0.7869
6345.00,0.7804
6344.00,0.7743
6343.00,0.7687
6342.00,0.7637
6341.00,0.7592
6340.00,0.7554
6339.00,0.7521
6338.00,0.7494
6337.00,0.7473
6336.00,0.7459
6335.00,0.7450
6334.00,0.7448
6333.00,0.7452
6332.00,0.7463
6331.00,0.7479
6330.00,0.7500
6329.00,0.7527
6328.00,0.7561
6327.00,0.7600
6326.00,0.7643
6325.00,0.7691
6324.00,0.7744
6323.00,0.7801
6322.00,0.7861
6321.00,0.7926
6320.00,0.7993
6319.00,0.8063
6318.00,0.8137
6317.00,0.8215
6316.00,0.8297
6315.00,0.8382
6314.00,0.8470
6313.00,0.8560
6312.00,0.8651
6311.00,0.8742
6310.00,0.8832
6309.00,0.8921
6308.00,0.9010
6307.00,0.9103
6306.00,0.9198
6305.00,0.9295
6304.00,0.9391
6303.00,0.9484
6302.00,0.9576
6301.00,0.9666
6300.00,0.9756
6299.00,0.9845
6298.00,0.9934
6297.00,1.0024
6296.00,1.0114
6295.00,1.0205
6294.00,1.0293
6293.00,1.0377
6292.00,1.0458
6291.00,1.0538
6290.00,1.0618
6289.00,1.0696
6288.00,1.0770
6287.00,1.0841
6286.00,1.0912
6285.00,1.0981
6284.00,1.1047
6283.00,1.1111
6282.00,1.1174
6281.00,1.1236
6280.00,1.1298
6279.00,1.1356
6278.00,1.1408
6277.00,1.1456
6276.00,1.1501
6275.00,1.1542
6274.00,1.1580
6273.00,1.1613
6272.00,1.1644
6271.00,1.1673
6270.00,1.1697
6269.00,1.1718
6268.00,1.1735
6267.00,1.1751
6266.00,1.1765
6265.00,1.1778
6264.00,1.1790
6263.00,1.1800
6262.00,1.1804
6261.00,1.1802
6260.00,1.1794
6259.00,1.1783
6258.00,1.1770
6257.00,1.1752
6256.00,1.1728
6255.00,1.1698
6254.00,1.1667
6253.00,1.1635
6252.00,1.1601
6251.00,1.1563
6250.00,1.1521
6249.00,1.1476
6248.00,1.1430
6247.00,1.1378
6246.00,1.1321
6245.00,1.1259
6244.00,1.1195
6243.00,1.1128
6242.00,1.1058
6241.00,1.0985
6240.00,1.0910
6239.00,1.0831
6238.00,1.0749
6237.00,1.0664
6236.00,1.0577
6235.00,1.0487
6234.00,1.0393
6233.00,1.0297
6232.00,1.0197
6231.00,1.0096
6230.00,0.9994
6229.00,0.9892
6228.00,0.9789
6227.00,0.9685
6226.00,0.9580
6225.00,0.9475
6224.00,0.9369
6223.00,0.9261
6222.00,0.9152
6221.00,0.9043
6220.00,0.8934
6219.00,0.8827
6218.00,0.8721
6217.00,0.8617
6216.00,0.8513
6215.00,0.8411
6214.00,0.8312
6213.00,0.8216
6212.00,0.8122
6211.00,0.8030
6210.00,0.7941
6209.00,0.7857
6208.00,0.7778
6207.00,0.7701
6206.00,0.7627
6205.00,0.7558
6204.00,0.7495
6203.00,0.7438
6202.00,0.7385
6201.00,0.7338
6200.00,0.7296
6199.00,0.7260
6198.00,0.7231
6197.00,0.7208
6196.00,0.7191
6195.00,0.7181
6194.00,0.7177
6193.00,0.7180
6192.00,0.7188
6191.00,0.7202
6190.00,0.7221
6189.00,0.7246
6188.00,0.7278
6187.00,0.7315
6186.00,0.7359
6185.00,0.7407
6184.00,0.7461
6183.00,0.7519
6182.00,0.7582
6181.00,0.7649
6180.00,0.7721
6179.00,0.7795
6178.00,0.7873
6177.00,0.7954
6176.00,0.8037
6175.00,0.8122
6174.00,0.8209
6173.00,0.8299
6172.00,0.8392
6171.00,0.8486
6170.00,0.8583
6169.00,0.8680
6168.00,0.8777
6167.00,0.8873
6166.00,0.8969
6165.00,0.9066
6164.00,0.9164
6163.00,0.9265
6162.00,0.9366
6161.00,0.9467
6160.00,0.9566
6159.00,0.9663
6158.00,0.9758
6157.00,0.9852
6156.00,0.9944
6155.00,1.0037
6154.00,1.0132
6153.00,1.0225
6152.00,1.0315
6151.00,1.0401
6150.00,1.0483
6149.00,1.0564
6148.00,1.0644
6147.00,1.0722
6146.00,1.0800
6145.00,1.0877
6144.00,1.0954
6143.00,1.1029
6142.00,1.1099
6141.00,1.1165
6140.00,1.1229
6139.00,1.1291
6138.00,1.1352
6137.00,1.1412
6136.00,1.1468
6135.00,1.1520
6134.00,1.1568
6133.00,1.1611
6132.00,1.1650
6131.00,1.1686
6130.00,1.1721
6129.00,1.1754
6128.00,1.1785
6127.00,1.1816
6126.00,1.1842
6125.00,1.1864
6124.00,1.1879
6123.00,1.1890
6122.00,1.1899
6121.00,1.1907
6120.00,1.1910
6119.00,1.1910
6118.00,1.1906
6117.00,1.1897
6116.00,1.1883
6115.00,1.1865
6114.00,1.1842
6113.00,1.1817
6112.00,1.1788
6111.00,1.1757
6110.00,1.1725
6109.00,1.1690
6108.00,1.1649
6107.00,1.1605
6106.00,1.1557
6105.00,1.1505
6104.00,1.1446
6103.00,1.1383
6102.00,1.1317
6101.00,1.1249
6100.00,1.1178
6099.00,1.1104
6098.00,1.1027
6097.00,1.0947
6096.00,1.0862
6095.00,1.0771
6094.00,1.0675
6093.00,1.0577
6092.00,1.0478
6091.00,1.0376
6090.00,1.0272
6089.00,1.0166
6088.00,1.0057
6087.00,0.9947
6086.00,0.9834
6085.00,0.9720
6084.00,0.9605
6083.00,0.9489
6082.00,0.9373
6081.00,0.9258
6080.00,0.9142
6079.00,0.9026
6078.00,0.8911
6077.00,0.8796
6076.00,0.8681
6075.00,0.8566
6074.00,0.8453
6073.00,0.8341
6072.00,0.8232
6071.00,0.8127
6070.00,0.8027
6069.00,0.7931
6068.00,0.7838
6067.00,0.7750
6066.00,0.7666
6065.00,0.7587
6064.00,0.7513
6063.00,0.7444
6062.00,0.7381
6061.00,0.7325
6060.00,0.7274
6059.00,0.7230
6058.00,0.7191
6057.00,0.7158
6056.00,0.7133
6055.00,0.7114
6054.00,0.7103
6053.00,0.7100
6052.00,0.7103
6051.00,0.7114
6050.00,0.7131
6049.00,0.7155
6048.00,0.7184
6047.00,0.7217
6046.00,0.7257
6045.00,0.7302
6044.00,0.7352
6043.00,0.7407
6042.00,0.7468
6041.00,0.7535
6040.00,0.7606
6039.00,0.7681
6038.00,0.7760
6037.00,0.7843
6036.00,0.7929
6035.00,0.8017
6034.00,0.8107
6033.00,0.8198
6032.00,0.8291
6031.00,0.8386
6030.00,0.8482
6029.00,0.8581
6028.00,0.8681
6027.00,0.8781
6026.00,0.8882
6025.00,0.8982
6024.00,0.9082
6023.00,0.9181
6022.00,0.9283
6021.00,0.9386
6020.00,0.9489
6019.00,0.9591
6018.00,0.9690
6017.00,0.9788
6016.00,0.9884
6015.00,0.9979
6014.00,1.0074
6013.00,1.0170
6012.00,1.0265
6011.00,1.0356
6010.00,1.0442
6009.00,1.0525
6008.00,1.0604
6007.00,1.0682
6006.00,1.0762
6005.00,1.0842
6004.00,1.0922
6003.00,1.1001
6002.00,1.1077
6001.00,1.1148
6000.00,1.1213
5999.00,1.1272
5998.00,1.1328
5997.00,1.1383
5996.00,1.1436
5995.00,1.1485
5994.00,1.1532
5993.00,1.1577
5992.00,1.1620
5991.00,1.1661
5990.00,1.1699
5989.00,1.1735
5988.00,1.1769
5987.00,1.1800
5986.00,1.1827
5985.00,1.1847
5984.00,1.1860
5983.00,1.1865
5982.00,1.1865
5981.00,1.1861
5980.00,1.1856
5979.00,1.1850
5978.00,1.1842
5977.00,1.1833
5976.00,1.1821
5975.00,1.1806
5974.00,1.1784
5973.00,1.1757
5972.00,1.1728
5971.00,1.1697
5970.00,1.1665
5969.00,1.1629
5968.00,1.1587
5967.00,1.1539
5966.00,1.1489
5965.00,1.1437
5964.00,1.1380
5963.00,1.1321
5962.00,1.1259
5961.00,1.1196
5960.00,1.1131
5959.00,1.1064
5958.00,1.0996
5957.00,1.0927
5956.00,1.0855
5955.00,1.0780
5954.00,1.0700
5953.00,1.0615
5952.00,1.0524
5951.00,1.0429
5950.00,1.0330
5949.00,1.0230
5948.00,1.0128
5947.00,1.0024
5946.00,0.9916
5945.00,0.9804
5944.00,0.9688
5943.00,0.9569
5942.00,0.9449
5941.00,0.9328
5940.00,0.9206
5939.00,0.9083
5938.00,0.8960
5937.00,0.8837
5936.00,0.8714
5935.00,0.8593
5934.00,0.8473
5933.00,0.8358
5932.00,0.8244
5931.00,0.8133
5930.00,0.8024
5929.00,0.7918
5928.00,0.7817
5927.00,0.7720
5926.00,0.7629
5925.00,0.7542
5924.00,0.7460
5923.00,0.7383
5922.00,0.7311
5921.00,0.7246
5920.00,0.7186
5919.00,0.7133
5918.00,0.7087
5917.00,0.7049
5916.00,0.7017
5915.00,0.6993
5914.00,0.6976
5913.00,0.6967
5912.00,0.6966
5911.00,0.6972
5910.00,0.6985
5909.00,0.7006
5908.00,0.7033
5907.00,0.7065
5906.00,0.7103
5905.00,0.7147
5904.00,0.7197
5903.00,0.7253
5902.00,0.7315
5901.00,0.7382
5900.00,0.7455
5899.00,0.7533
5898.00,0.7615
5897.00,0.7699
5896.00,0.7786
5895.00,0.7876
5894.00,0.7969
5893.00,0.8063
5892.00,0.8159
5891.00,0.8256
5890.00,0.8356
5889.00,0.8458
5888.00,0.8563
5887.00,0.8669
5886.00,0.8776
5885.00,0.8883
5884.00,0.8988
5883.00,0.9090
5882.00,0.9192
5881.00,0.9297
5880.00,0.9404
5879.00,0.9512
5878.00,0.9618
5877.00,0.9723
5876.00,0.9824
5875.00,0.9921
5874.00,1.0017
5873.00,1.0112
5872.00,1.0209
5871.00,1.0305
5870.00,1.0400
5869.00,1.0494
5868.00,1.0585
5867.00,1.0671
5866.00,1.0754
5865.00,1.0835
5864.00,1.0913
5863.00,1.0988
5862.00,1.1061
5861.00,1.1132
5860.00,1.1202
5859.00,1.1270
5858.00,1.1334
5857.00,1.1396
5856.00,1.1456
5855.00,1.1515
5854.00,1.1572
5853.00,1.1628
5852.00,1.1683
5851.00,1.1734
5850.00,1.1778
5849.00,1.1814
5848.00,1.1843
5847.00,1.1866
5846.00,1.1885
5845.00,1.1902
5844.00,1.1921
5843.00,1.1942
5842.00,1.1962
5841.00,1.1979
5840.00,1.1991
5839.00,1.1997
5838.00,1.1997
5837.00,1.1992
5836.00,1.1985
5835.00,1.1978
5834.00,1.1971
5833.00,1.1961
5832.00,1.1947
5831.00,1.1926
5830.00,1.1899
5829.00,1.1866
5828.00,1.1827
5827.00,1.1783
5826.00,1.1735
5825.00,1.1687
5824.00,1.1635
5823.00,1.1579
5822.00,1.1519
5821.00,1.1455
5820.00,1.1388
5819.00,1.1319
5818.00,1.1245
5817.00,1.1168
5816.00,1.1088
5815.00,1.1004
5814.00,1.0916
5813.00,1.0822
5812.00,1.0724
5811.00,1.0623
5810.00,1.0522
5809.00,1.0419
5808.00,1.0313
5807.00,1.0203
5806.00,1.0090
5805.00,0.9975
5804.00,0.9856
5803.00,0.9735
5802.00,0.9613
5801.00,0.9492
5800.00,0.9371
5799.00,0.9248
5798.00,0.9123
5797.00,0.8997
5796.00,0.8870
5795.00,0.8744
5794.00,0.8620
5793.00,0.8499
5792.00,0.8381
5791.00,0.8266
5790.00,0.8153
5789.00,0.8041
5788.00,0.7932
5787.00,0.7826
5786.00,0.7724
5785.00,0.7626
5784.00,0.7533
5783.00,0.7445
5782.00,0.7364
5781.00,0.7289
5780.00,0.7221
5779.00,0.7158
5778.00,0.7102
5777.00,0.7053
5776.00,0.7012
5775.00,0.6978
5774.00,0.6952
5773.00,0.6934
5772.00,0.6924
5771.00,0.6920
5770.00,0.6924
5769.00,0.6934
5768.00,0.6953
5767.00,0.6980
5766.00,0.7014
5765.00,0.7055
5764.00,0.7102
5763.00,0.7155
5762.00,0.7213
5761.00,0.7277
5760.00,0.7345
5759.00,0.7417
5758.00,0.7495
5757.00,0.7578
5756.00,0.7665
5755.00,0.7755
5754.00,0.7850
5753.00,0.7947
5752.00,0.8046
5751.00,0.8145
5750.00,0.8247
5749.00,0.8351
5748.00,0.8456
5747.00,0.8563
5746.00,0.8673
5745.00,0.8783
5744.00,0.8895
5743.00,0.9004
5742.00,0.9114
5741.00,0.9224
5740.00,0.9334
5739.00,0.9444
5738.00,0.9553
5737.00,0.9660
5736.00,0.9767
5735.00,0.9871
5734.00,0.9975
5733.00,1.0077
5732.00,1.0177
5731.00,1.0275
5730.00,1.0371
5729.00,1.0465
5728.00,1.0557
5727.00,1.0649
5726.00,1.0741
5725.00,1.0833
5724.00,1.0922
5723.00,1.1008
5722.00,1.1088
5721.00,1.1164
5720.00,1.1237
5719.00,1.1308
5718.00,1.1377
5717.00,1.1445
5716.00,1.1511
5715.00,1.1575
5714.00,1.1636
5713.00,1.1693
5712.00,1.1744
5711.00,1.1792
5710.00,1.1835
5709.00,1.1876
5708.00,1.1915
5707.00,1.1951
5706.00,1.1986
5705.00,1.2018
5704.00,1.2044
5703.00,1.2063
5702.00,1.2077
5701.00,1.2086
5700.00,1.2093
5699.00,1.2099
5698.00,1.2106
5697.00,1.2110
5696.00,1.2110
5695.00,1.2102
5694.00,1.2088
5693.00,1.2069
5692.00,1.2046
5691.00,1.2018
5690.00,1.1987
5689.00,1.1955
5688.00,1.1920
5687.00,1.1881
5686.00,1.1838
5685.00,1.1791
5684.00,1.1740
5683.00,1.1687
5682.00,1.1629
5681.00,1.1569
5680.00,1.1504
5679.00,1.1434
5678.00,1.1360
5677.00,1.1280
5676.00,1.1195
5675.00,1.1106
5674.00,1.1016
5673.00,1.0923
5672.00,1.0827
5671.00,1.0726
5670.00,1.0622
5669.00,1.0514
5668.00,1.0402
5667.00,1.0287
5666.00,1.0169
5665.00,1.0048
5664.00,0.9926
5663.00,0.9801
5662.00,0.9672
5661.00,0.9542
5660.00,0.9411
5659.00,0.9278
5658.00,0.9142
5657.00,0.9006
5656.00,0.8870
5655.00,0.8735
5654.00,0.8602
5653.00,0.8471
5652.00,0.8342
5651.00,0.8215
5650.00,0.8089
5649.00,0.7966
5648.00,0.7846
5647.00,0.7730
5646.00,0.7620
5645.00,0.7514
5644.00,0.7415
5643.00,0.7320
5642.00,0.7231
5641.00,0.7147
5640.00,0.7070
5639.00,0.6998
5638.00,0.6933
5637.00,0.6875
5636.00,0.6825
5635.00,0.6783
5634.00,0.6750
5633.00,0.6727
5632.00,0.6712
5631.00,0.6704
5630.00,0.6704
5629.00,0.6711
5628.00,0.6727
5627.00,0.6750
5626.00,0.6781
5625.00,0.6821
5624.00,0.6866
5623.00,0.6918
5622.00,0.6975
5621.00,0.7040
5620.00,0.7112
5619.00,0.7190
5618.00,0.7274
5617.00,0.7361
5616.00,0.7451
5615.00,0.7545
5614.00,0.7641
5613.00,0.7740
5612.00,0.7842
5611.00,0.7947
5610.00,0.8055
5609.00,0.8167
5608.00,0.8281
5607.00,0.8397
5606.00,0.8515
5605.00,0.8632
5604.00,0.8748
5603.00,0.8862
5602.00,0.8975
5601.00,0.9088
5600.00,0.9203
5599.00,0.9318
5598.00,0.9436
5597.00,0.9554
5596.00,0.9670
5595.00,0.9784
5594.00,0.9895
5593.00,1.0004
5592.00,1.0112
5591.00,1.0218
5590.00,1.0323
5589.00,1.0426
5588.00,1.0527
5587.00,1.0625
5586.00,1.0719
5585.00,1.0812
5584.00,1.0904
5583.00,1.0995
5582.00,1.1084
5581.00,1.1173
5580.00,1.1259
5579.00,1.1344
5578.00,1.1424
5577.00,1.1501
5576.00,1.1573
5575.00,1.1638
5574.00,1.1699
5573.00,1.1757
5572.00,1.1813
5571.00,1.1869
5570.00,1.1925
5569.00,1.1979
5568.00,1.2029
5567.00,1.2073
5566.00,1.2111
5565.00,1.2143
5564.00,1.2171
5563.00,1.2195
5562.00,1.2219
5561.00,1.2241
5560.00,1.2261
5559.00,1.2278
5558.00,1.2292
5557.00,1.2301
5556.00,1.2306
5555.00,1.2306
5554.00,1.2299
5553.00,1.2287
5552.00,1.2271
5551.00,1.2251
5550.00,1.2226
5549.00,1.2194
5548.00,1.2158
5547.00,1.2121
5546.00,1.2080
5545.00,1.2037
5544.00,1.1991
5543.00,1.1943
5542.00,1.1890
5541.00,1.1830
5540.00,1.1764
5539.00,1.1695
5538.00,1.1623
5537.00,1.1546
5536.00,1.1465
5535.00,1.1378
5534.00,1.1287
5533.00,1.1193
5532.00,1.1094
5531.00,1.0994
5530.00,1.0892
5529.00,1.0786
5528.00,1.0675
5527.00,1.0559
5526.00,1.0439
5525.00,1.0318
5524.00,1.0196
5523.00,1.0070
5522.00,0.9942
5521.00,0.9810
5520.00,0.9675
5519.00,0.9538
5518.00,0.9400
5517.00,0.9261
5516.00,0.9122
5515.00,0.8984
5514.00,0.8846
5513.00,0.8710
5512.00,0.8574
5511.00,0.8441
5510.00,0.8311
5509.00,0.8184
5508.00,0.8059
5507.00,0.7937
5506.00,0.7820
5505.00,0.7707
5504.00,0.7600
5503.00,0.7499
5502.00,0.7403
5501.00,0.7314
5500.00,0.7231
5499.00,0.7155
5498.00,0.7087
5497.00,0.7027
5496.00,0.6975
5495.00,0.6929
5494.00,0.6892
5493.00,0.6863
5492.00,0.6843
5491.00,0.6832
5490.00,0.6830
5489.00,0.6836
5488.00,0.6851
5487.00,0.6873
5486.00,0.6904
5485.00,0.6942
5484.00,0.6988
5483.00,0.7041
5482.00,0.7100
5481.00,0.7166
5480.00,0.7237
5479.00,0.7313
5478.00,0.7396
5477.00,0.7484
5476.00,0.7579
5475.00,0.7680
5474.00,0.7785
5473.00,0.7894
5472.00,0.8003
5471.00,0.8113
5470.00,0.8224
5469.00,0.8336
5468.00,0.8451
5467.00,0.8567
5466.00,0.8687
5465.00,0.8807
5464.00,0.8927
5463.00,0.9046
5462.00,0.9166
5461.00,0.9287
5460.00,0.9408
5459.00,0.9530
5458.00,0.9652
5457.00,0.9774
5456.00,0.9893
5455.00,1.0010
5454.00,1.0124
5453.00,1.0235
5452.00,1.0344
5451.00,1.0450
5450.00,1.0555
5449.00,1.0659
5448.00,1.0761
5447.00,1.0862
5446.00,1.0962
5445.00,1.1060
5444.00,1.1157
5443.00,1.1251
5442.00,1.1342
5441.00,1.1431
5440.00,1.1518
5439.00,1.1601
5438.00,1.1681
5437.00,1.1757
5436.00,1.1831
5435.00,1.1902
5434.00,1.1968
5433.00,1.2029
5432.00,1.2087
5431.00,1.2142
5430.00,1.2195
5429.00,1.2246
5428.00,1.2293
5427.00,1.2337
5426.00,1.2377
5425.00,1.2412
5424.00,1.2442
5423.00,1.2468
5422.00,1.2492
5421.00,1.2513
5420.00,1.2531
5419.00,1.2542
5418.00,1.2549
5417.00,1.2551
5416.00,1.2550
5415.00,1.2546
5414.00,1.2538
5413.00,1.2526
5412.00,1.2511
5411.00,1.2490
5410.00,1.2461
5409.00,1.2428
5408.00,1.2392
5407.00,1.2357
5406.00,1.2321
5405.00,1.2283
5404.00,1.2241
5403.00,1.2192
5402.00,1.2136
5401.00,1.2073
5400.00,1.2006
5399.00,1.1935
5398.00,1.1860
5397.00,1.1780
5396.00,1.1695
5395.00,1.1604
5394.00,1.1508
5393.00,1.1409
5392.00,1.1308
5391.00,1.1206
5390.00,1.1100
5389.00,1.0990
5388.00,1.0876
5387.00,1.0759
5386.00,1.0637
5385.00,1.0510
5384.00,1.0380
5383.00,1.0247
5382.00,1.0113
5381.00,0.9978
5380.00,0.9840
5379.00,0.9700
5378.00,0.9556
5377.00,0.9408
5376.00,0.9256
5375.00,0.9103
5374.00,0.8952
5373.00,0.8806
5372.00,0.8663
5371.00,0.8522
5370.00,0.8385
5369.00,0.8250
5368.00,0.8119
5367.00,0.7989
5366.00,0.7864
5365.00,0.7743
5364.00,0.7628
5363.00,0.7519
5362.00,0.7415
5361.00,0.7318
5360.00,0.7228
5359.00,0.7144
5358.00,0.7068
5357.00,0.7000
5356.00,0.6941
5355.00,0.6890
5354.00,0.6847
5353.00,0.6813
5352.00,0.6788
5351.00,0.6772
5350.00,0.6766
5349.00,0.6769
5348.00,0.6780
5347.00,0.6799
5346.00,0.6826
5345.00,0.6863
5344.00,0.6907
5343.00,0.6960
5342.00,0.7019
5341.00,0.7086
5340.00,0.7159
5339.00,0.7239
5338.00,0.7326
5337.00,0.7419
5336.00,0.7517
5335.00,0.7617
5334.00,0.7721
5333.00,0.7830
5332.00,0.7944
5331.00,0.8061
5330.00,0.8181
5329.00,0.8303
5328.00,0.8427
5327.00,0.8553
5326.00,0.8681
5325.00,0.8811
5324.00,0.8940
5323.00,0.9069
5322.00,0.9197
5321.00,0.9325
5320.00,0.9453
5319.00,0.9582
5318.00,0.9710
5317.00,0.9837
5316.00,0.9964
5315.00,1.0088
5314.00,1.0209
5313.00,1.0329
5312.00,1.0446
5311.00,1.0562
5310.00,1.0676
5309.00,1.0790
5308.00,1.0901
5307.00,1.1010
5306.00,1.1118
5305.00,1.1224
5304.00,1.1326
5303.00,1.1426
5302.00,1.1523
5301.00,1.1619
5300.00,1.1713
5299.00,1.1804
5298.00,1.1892
5297.00,1.1977
5296.00,1.2056
5295.00,1.2131
5294.00,1.2202
5293.00,1.2269
5292.00,1.2331
5291.00,1.2390
5290.00,1.2447
5289.00,1.2503
5288.00,1.2557
5287.00,1.2609
5286.00,1.2657
5285.00,1.2703
5284.00,1.2744
5283.00,1.2779
5282.00,1.2808
5281.00,1.2833
5280.00,1.2853
5279.00,1.2869
5278.00,1.2882
5277.00,1.2893
5276.00,1.2900
5275.00,1.2901
5274.00,1.2897
5273.00,1.2888
5272.00,1.2877
5271.00,1.2862
5270.00,1.2844
5269.00,1.2822
5268.00,1.2793
5267.00,1.2760
5266.00,1.2722
5265.00,1.2680
5264.00,1.2635
5263.00,1.2585
5262.00,1.2531
5261.00,1.2473
5260.00,1.2411
5259.00,1.2346
5258.00,1.2276
5257.00,1.2204
5256.00,1.2127
5255.00,1.2046
5254.00,1.1962
5253.00,1.1874
5252.00,1.1781
5251.00,1.1682
5250.00,1.1577
5249.00,1.1466
5248.00,1.1351
5247.00,1.1233
5246.00,1.1112
5245.00,1.0988
5244.00,1.0859
5243.00,1.0728
5242.00,1.0594
5241.00,1.0459
5240.00,1.0321
5239.00,1.0180
5238.00,1.0036
5237.00,0.9890
5236.00,0.9743
5235.00,0.9594
5234.00,0.9446
5233.00,0.9296
5232.00,0.9145
5231.00,0.8994
5230.00,0.8844
5229.00,0.8697
5228.00,0.8553
5227.00,0.8412
5226.00,0.8274
5225.00,0.8140
5224.00,0.8010
5223.00,0.7887
5222.00,0.7770
5221.00,0.7660
5220.00,0.7556
5219.00,0.7459
5218.00,0.7369
5217.00,0.7288
5216.00,0.7216
5215.00,0.7153
5214.00,0.7099
5213.00,0.7055
5212.00,0.7020
5211.00,0.6995
5210.00,0.6980
5209.00,0.6975
5208.00,0.6980
5207.00,0.6995
5206.00,0.7019
5205.00,0.7053
5204.00,0.7097
5203.00,0.7150
5202.00,0.7213
5201.00,0.7284
5200.00,0.7364
5199.00,0.7451
5198.00,0.7545
5197.00,0.7644
5196.00,0.7746
5195.00,0.7850
5194.00,0.7954
5193.00,0.8059
5192.00,0.8166
5191.00,0.8275
5190.00,0.8386
5189.00,0.8501
5188.00,0.8618
5187.00,0.8737
5186.00,0.8859
5185.00,0.8984
5184.00,0.9111
5183.00,0.9241
5182.00,0.9372
5181.00,0.9504
5180.00,0.9636
5179.00,0.9768
5178.00,0.9898
5177.00,1.0026
5176.00,1.0152
5175.00,1.0277
5174.00,1.0402
5173.00,1.0526
5172.00,1.0649
5171.00,1.0769
5170.00,1.0888
5169.00,1.1005
5168.00,1.1119
5167.00,1.1233
5166.00,1.1345
5165.00,1.1456
5164.00,1.1565
5163.00,1.1671
5162.00,1.1774
5161.00,1.1872
5160.00,1.1966
5159.00,1.2056
5158.00,1.2143
5157.00,1.2229
5156.00,1.2313
5155.00,1.2394
5154.00,1.2473
5153.00,1.2550
5152.00,1.2623
5151.00,1.2690
5150.00,1.2751
5149.00,1.2807
5148.00,1.2858
5147.00,1.2906
5146.00,1.2950
5145.00,1.2991
5144.00,1.3029
5143.00,1.3063
5142.00,1.3092
5141.00,1.3117
5140.00,1.3139
5139.00,1.3159
5138.00,1.3174
5137.00,1.3184
5136.00,1.3190
5135.00,1.3191
5134.00,1.3187
5133.00,1.3177
5132.00,1.3163
5131.00,1.3146
5130.00,1.3126
5129.00,1.3103
5128.00,1.3076
5127.00,1.3045
5126.00,1.3010
5125.00,1.2971
5124.00,1.2927
5123.00,1.2878
5122.00,1.2823
5121.00,1.2762
5120.00,1.2698
5119.00,1.2629
5118.00,1.2557
5117.00,1.2481
5116.00,1.2400
5115.00,1.2314
5114.00,1.2222
5113.00,1.2124
5112.00,1.2021
5111.00,1.1914
5110.00,1.1804
5109.00,1.1692
5108.00,1.1577
5107.00,1.1457
5106.00,1.1333
5105.00,1.1205
5104.00,1.1071
5103.00,1.0934
5102.00,1.0793
5101.00,1.0648
5100.00,1.0498
5099.00,1.0344
5098.00,1.0189
5097.00,1.0032
5096.00,0.9876
5095.00,0.9718
5094.00,0.9558
5093.00,0.9398
5092.00,0.9237
5091.00,0.9076
5090.00,0.8917
5089.00,0.8761
5088.00,0.8607
5087.00,0.8455
5086.00,0.8308
5085.00,0.8166
5084.00,0.8029
5083.00,0.7898
5082.00,0.7772
5081.00,0.7653
5080.00,0.7540
5079.00,0.7436
5078.00,0.7341
5077.00,0.7255
5076.00,0.7178
5075.00,0.7110
5074.00,0.7052
5073.00,0.7003
5072.00,0.6963
5071.00,0.6933
5070.00,0.6913
5069.00,0.6903
5068.00,0.6904
5067.00,0.6916
5066.00,0.6937
5065.00,0.6968
5064.00,0.7009
5063.00,0.7059
5062.00,0.7117
5061.00,0.7184
5060.00,0.7259
5059.00,0.7342
5058.00,0.7433
5057.00,0.7530
5056.00,0.7633
5055.00,0.7742
5054.00,0.7854
5053.00,0.7971
5052.00,0.8092
5051.00,0.8216
5050.00,0.8345
5049.00,0.8476
5048.00,0.8610
5047.00,0.8744
5046.00,0.8881
5045.00,0.9019
5044.00,0.9158
5043.00,0.9298
5042.00,0.9439
5041.00,0.9580
5040.00,0.9720
5039.00,0.9859
5038.00,0.9997
5037.00,1.0135
5036.00,1.0272
5035.00,1.0407
5034.00,1.0542
5033.00,1.0675
5032.00,1.0807
5031.00,1.0936
5030.00,1.1064
5029.00,1.1189
5028.00,1.1313
5027.00,1.1434
5026.00,1.1552
5025.00,1.1667
5024.00,1.1779
5023.00,1.1888
5022.00,1.1996
5021.00,1.2102
5020.00,1.2206
5019.00,1.2305
5018.00,1.2399
5017.00,1.2487
5016.00,1.2572
5015.00,1.2656
5014.00,1.2738
5013.00,1.2819
5012.00,1.2896
5011.00,1.2969
5010.00,1.3036
5009.00,1.3100
5008.00,1.3160
5007.00,1.3218
5006.00,1.3272
5005.00,1.3319
5004.00,1.3361
5003.00,1.3398
5002.00,1.3432
5001.00,1.3462
5000.00,1.3488
4999.00,1.3511
4998.00,1.3530
4997.00,1.3546
4996.00,1.3557
4995.00,1.3565
4994.00,1.3568
4993.00,1.3565
4992.00,1.3556
4991.00,1.3544
4990.00,1.3529
4989.00,1.3510
4988.00,1.3485
4987.00,1.3454
4986.00,1.3418
4985.00,1.3378
4984.00,1.3336
4983.00,1.3291
4982.00,1.3244
4981.00,1.3190
4980.00,1.3128
4979.00,1.3061
4978.00,1.2989
4977.00,1.2914
4976.00,1.2836
4975.00,1.2753
4974.00,1.2666
4973.00,1.2574
4972.00,1.2478
4971.00,1.2377
4970.00,1.2272
4969.00,1.2162
4968.00,1.2045
4967.00,1.1923
4966.00,1.1796
4965.00,1.1665
4964.00,1.1531
4963.00,1.1393
4962.00,1.1251
4961.00,1.1105
4960.00,1.0955
4959.00,1.0801
4958.00,1.0644
4957.00,1.0483
4956.00,1.0321
4955.00,1.0156
4954.00,0.9990
4953.00,0.9823
4952.00,0.9655
4951.00,0.9486
4950.00,0.9318
4949.00,0.9151
4948.00,0.8987
4947.00,0.8824
4946.00,0.8665
4945.00,0.8509
4944.00,0.8358
4943.00,0.8211
4942.00,0.8070
4941.00,0.7935
4940.00,0.7807
4939.00,0.7686
4938.00,0.7574
4937.00,0.7471
4936.00,0.7378
4935.00,0.7294
4934.00,0.7220
4933.00,0.7156
4932.00,0.7103
4931.00,0.7061
4930.00,0.7031
4929.00,0.7014
4928.00,0.7007
4927.00,0.7012
4926.00,0.7029
4925.00,0.7056
4924.00,0.7093
4923.00,0.7140
4922.00,0.7198
4921.00,0.7265
4920.00,0.7341
4919.00,0.7425
4918.00,0.7517
4917.00,0.7617
4916.00,0.7723
4915.00,0.7835
4914.00,0.7954
4913.00,0.8077
4912.00,0.8206
4911.00,0.8337
4910.00,0.8473
4909.00,0.8611
4908.00,0.8751
4907.00,0.8893
4906.00,0.9038
4905.00,0.9184
4904.00,0.9331
4903.00,0.9478
4902.00,0.9625
4901.00,0.9772
4900.00,0.9919
4899.00,1.0066
4898.00,1.0212
4897.00,1.0357
4896.00,1.0500
4895.00,1.0641
4894.00,1.0781
4893.00,1.0919
4892.00,1.1056
4891.00,1.1191
4890.00,1.1323
4889.00,1.1453
4888.00,1.1581
4887.00,1.1707
4886.00,1.1831
4885.00,1.1953
4884.00,1.2071
4883.00,1.2186
4882.00,1.2298
4881.00,1.2406
4880.00,1.2510
4879.00,1.2611
4878.00,1.2711
4877.00,1.2808
4876.00,1.2901
4875.00,1.2990
4874.00,1.3073
4873.00,1.3152
4872.00,1.3227
4871.00,1.3298
4870.00,1.3366
4869.00,1.3430
4868.00,1.3490
4867.00,1.3546
4866.00,1.3598
4865.00,1.3646
4864.00,1.3691
4863.00,1.3732
4862.00,1.3770
4861.00,1.3803
4860.00,1.3832
4859.00,1.3856
4858.00,1.3874
4857.00,1.3887
4856.00,1.3895
4855.00,1.3897
4854.00,1.3896
4853.00,1.3892
4852.00,1.3884
4851.00,1.3874
4850.00,1.3861
4849.00,1.3844
4848.00,1.3823
4847.00,1.3794
4846.00,1.3757
4845.00,1.3713
4844.00,1.3664
4843.00,1.3612
4842.00,1.3557
4841.00,1.3500
4840.00,1.3440
4839.00,1.3376
4838.00,1.3307
4837.00,1.3233
4836.00,1.3154
4835.00,1.3070
4834.00,1.2981
4833.00,1.2888
4832.00,1.2790
4831.00,1.2686
4830.00,1.2577
4829.00,1.2461
4828.00,1.2339
4827.00,1.2213
4826.00,1.2084
4825.00,1.1952
4824.00,1.1816
4823.00,1.1675
4822.00,1.1530
4821.00,1.1380
4820.00,1.1226
4819.00,1.1068
4818.00,1.0906
4817.00,1.0741
4816.00,1.0571
4815.00,1.0398
4814.00,1.0224
4813.00,1.0048
4812.00,0.9873
4811.00,0.9696
4810.00,0.9519
4809.00,0.9342
4808.00,0.9165
4807.00,0.8990
4806.00,0.8819
4805.00,0.8652
4804.00,0.8489
4803.00,0.8332
4802.00,0.8181
4801.00,0.8037
4800.00,0.7900
4799.00,0.7771
4798.00,0.7651
4797.00,0.7539
4796.00,0.7436
4795.00,0.7344
4794.00,0.7262
4793.00,0.7193
4792.00,0.7135
4791.00,0.7089
4790.00,0.7055
4789.00,0.7033
4788.00,0.7023
4787.00,0.7026
4786.00,0.7040
4785.00,0.7067
4784.00,0.7106
4783.00,0.7156
4782.00,0.7216
4781.00,0.7287
4780.00,0.7367
4779.00,0.7456
4778.00,0.7554
4777.00,0.7659
4776.00,0.7772
4775.00,0.7892
4774.00,0.8017
4773.00,0.8147
4772.00,0.8282
4771.00,0.8422
4770.00,0.8566
4769.00,0.8713
4768.00,0.8861
4767.00,0.9011
4766.00,0.9164
4765.00,0.9317
4764.00,0.9472
4763.00,0.9628
4762.00,0.9785
4761.00,0.9941
4760.00,1.0097
4759.00,1.0251
4758.00,1.0402
4757.00,1.0552
4756.00,1.0700
4755.00,1.0848
4754.00,1.0996
4753.00,1.1142
4752.00,1.1287
4751.00,1.1429
4750.00,1.1569
4749.00,1.1706
4748.00,1.1841
4747.00,1.1974
4746.00,1.2105
4745.00,1.2233
4744.00,1.2358
4743.00,1.2481
4742.00,1.2601
4741.00,1.2717
4740.00,1.2827
4739.00,1.2933
4738.00,1.3036
4737.00,1.3136
4736.00,1.3233
4735.00,1.3326
4734.00,1.3414
4733.00,1.3499
4732.00,1.3581
4731.00,1.3663
4730.00,1.3741
4729.00,1.3816
4728.00,1.3884
4727.00,1.3945
4726.00,1.4000
4725.00,1.4051
4724.00,1.4098
4723.00,1.4141
4722.00,1.4178
4721.00,1.4210
4720.00,1.4238
4719.00,1.4263
4718.00,1.4286
4717.00,1.4307
4716.00,1.4323
4715.00,1.4334
4714.00,1.4338
4713.00,1.4337
4712.00,1.4331
4711.00,1.4321
4710.00,1.4309
4709.00,1.4292
4708.00,1.4270
4707.00,1.4243
4706.00,1.4211
4705.00,1.4173
4704.00,1.4131
4703.00,1.4085
4702.00,1.4035
4701.00,1.3982
4700.00,1.3923
4699.00,1.3857
4698.00,1.3784
4697.00,1.3706
4696.00,1.3624
4695.00,1.3540
4694.00,1.3453
4693.00,1.3361
4692.00,1.3263
4691.00,1.3160
4690.00,1.3051
4689.00,1.2939
4688.00,1.2823
4687.00,1.2701
4686.00,1.2573
4685.00,1.2438
4684.00,1.2299
4683.00,1.2155
4682.00,1.2007
4681.00,1.1855
4680.00,1.1697
4679.00,1.1534
4678.00,1.1367
4677.00,1.1196
4676.00,1.1022
4675.00,1.0844
4674.00,1.0663
4673.00,1.0480
4672.00,1.0294
4671.00,1.0106
4670.00,0.9917
4669.00,0.9729
4668.00,0.9541
4667.00,0.9355
4666.00,0.9171
4665.00,0.8990
4664.00,0.8812
4663.00,0.8640
4662.00,0.8473
4661.00,0.8314
4660.00,0.8162
4659.00,0.8018
4658.00,0.7883
4657.00,0.7758
4656.00,0.7643
4655.00,0.7538
4654.00,0.7444
4653.00,0.7362
4652.00,0.7293
4651.00,0.7237
4650.00,0.7195
4649.00,0.7166
4648.00,0.7151
4647.00,0.7149
4646.00,0.7160
4645.00,0.7184
4644.00,0.7221
4643.00,0.7270
4642.00,0.7331
4641.00,0.7403
4640.00,0.7486
4639.00,0.7579
4638.00,0.7683
4637.00,0.7796
4636.00,0.7916
4635.00,0.8043
4634.00,0.8176
4633.00,0.8315
4632.00,0.8458
4631.00,0.8607
4630.00,0.8760
4629.00,0.8916
4628.00,0.9074
4627.00,0.9234
4626.00,0.9394
4625.00,0.9555
4624.00,0.9716
4623.00,0.9879
4622.00,1.0043
4621.00,1.0206
4620.00,1.0368
4619.00,1.0530
4618.00,1.0691
4617.00,1.0851
4616.00,1.1010
4615.00,1.1166
4614.00,1.1321
4613.00,1.1474
4612.00,1.1624
4611.00,1.1771
4610.00,1.1915
4609.00,1.2058
4608.00,1.2198
4607.00,1.2336
4606.00,1.2472
4605.00,1.2604
4604.00,1.2733
4603.00,1.2859
4602.00,1.2981
4601.00,1.3099
4600.00,1.3214
4599.00,1.3327
4598.00,1.3436
4597.00,1.3543
4596.00,1.3645
4595.00,1.3742
4594.00,1.3834
4593.00,1.3922
4592.00,1.4006
4591.00,1.4086
4590.00,1.4162
4589.00,1.4233
4588.00,1.4300
4587.00,1.4363
4586.00,1.4422
4585.00,1.4477
4584.00,1.4527
4583.00,1.4574
4582.00,1.4615
4581.00,1.4651
4580.00,1.4683
4579.00,1.4710
4578.00,1.4731
4577.00,1.4747
4576.00,1.4758
4575.00,1.4764
4574.00,1.4766
4573.00,1.4763
4572.00,1.4754
4571.00,1.4742
4570.00,1.4725
4569.00,1.4705
4568.00,1.4682
4567.00,1.4654
4566.00,1.4620
4565.00,1.4580
4564.00,1.4532
4563.00,1.4480
4562.00,1.4423
4561.00,1.4363
4560.00,1.4299
4559.00,1.4231
4558.00,1.4160
4557.00,1.4084
4556.00,1.4003
4555.00,1.3917
4554.00,1.3825
4553.00,1.3727
4552.00,1.3622
4551.00,1.3513
4550.00,1.3399
4549.00,1.3281
4548.00,1.3158
4547.00,1.3029
4546.00,1.2896
4545.00,1.2758
4544.00,1.2618
4543.00,1.2473
4542.00,1.2323
4541.00,1.2168
4540.00,1.2008
4539.00,1.1842
4538.00,1.1673
4537.00,1.1502
4536.00,1.1326
4535.00,1.1147
4534.00,1.0964
4533.00,1.0775
4532.00,1.0584
4531.00,1.0390
4530.00,1.0195
4529.00,1.0000
4528.00,0.9805
4527.00,0.9611
4526.00,0.9419
4525.00,0.9230
4524.00,0.9044
4523.00,0.8864
4522.00,0.8691
4521.00,0.8526
4520.00,0.8367
4519.00,0.8217
4518.00,0.8077
4517.00,0.7947
4516.00,0.7828
4515.00,0.7721
4514.00,0.7627
4513.00,0.7546
4512.00,0.7479
4511.00,0.7426
4510.00,0.7388
4509.00,0.7365
4508.00,0.7356
4507.00,0.7362
4506.00,0.7383
4505.00,0.7417
4504.00,0.7466
4503.00,0.7528
4502.00,0.7603
4501.00,0.7690
4500.00,0.7789
4499.00,0.7897
4498.00,0.8016
4497.00,0.8142
4496.00,0.8277
4495.00,0.8419
4494.00,0.8567
4493.00,0.8720
4492.00,0.8878
4491.00,0.9039
4490.00,0.9204
4489.00,0.9371
4488.00,0.9541
4487.00,0.9712
4486.00,0.9883
4485.00,1.0054
4484.00,1.0225
4483.00,1.0396
4482.00,1.0567
4481.00,1.0738
4480.00,1.0906
4479.00,1.1071
4478.00,1.1232
4477.00,1.1390
4476.00,1.1546
4475.00,1.1701
4474.00,1.1855
4473.00,1.2007
4472.00,1.2158
4471.00,1.2308
4470.00,1.2456
4469.00,1.2603
4468.00,1.2748
4467.00,1.2890
4466.00,1.3028
4465.00,1.3164
4464.00,1.3297
4463.00,1.3426
4462.00,1.3553
4461.00,1.3677
4460.00,1.3798
4459.00,1.3918
4458.00,1.4036
4457.00,1.4150
4456.00,1.4259
4455.00,1.4360
4454.00,1.4455
4453.00,1.4544
4452.00,1.4632
4451.00,1.4719
4450.00,1.4802
4449.00,1.4880
4448.00,1.4949
4447.00,1.5013
4446.00,1.5071
4445.00,1.5127
4444.00,1.5180
4443.00,1.5229
4442.00,1.5272
4441.00,1.5308
4440.00,1.5338
4439.00,1.5363
4438.00,1.5384
4437.00,1.5400
4436.00,1.5412
4435.00,1.5420
4434.00,1.5423
4433.00,1.5421
4432.00,1.5415
4431.00,1.5405
4430.00,1.5391
4429.00,1.5373
4428.00,1.5350
4427.00,1.5321
4426.00,1.5287
4425.00,1.5247
4424.00,1.5203
4423.00,1.5157
4422.00,1.5108
4421.00,1.5053
4420.00,1.4993
4419.00,1.4926
4418.00,1.4856
4417.00,1.4782
4416.00,1.4705
4415.00,1.4622
4414.00,1.4534
4413.00,1.4440
4412.00,1.4343
4411.00,1.4244
4410.00,1.4141
4409.00,1.4033
4408.00,1.3919
4407.00,1.3802
4406.00,1.3681
4405.00,1.3558
4404.00,1.3432
4403.00,1.3303
4402.00,1.3172
4401.00,1.3039
4400.00,1.2904
4399.00,1.2766
4398.00,1.2623
4397.00,1.2475
4396.00,1.2321
4395.00,1.2162
4394.00,1.1997
4393.00,1.1826
4392.00,1.1651
4391.00,1.1472
4390.00,1.1291
4389.00,1.1109
4388.00,1.0926
4387.00,1.0743
4386.00,1.0560
4385.00,1.0380
4384.00,1.0205
4383.00,1.0036
4382.00,0.9874
4381.00,0.9721
4380.00,0.9577
4379.00,0.9442
4378.00,0.9318
4377.00,0.9207
4376.00,0.9108
4375.00,0.9022
4374.00,0.8948
4373.00,0.8887
4372.00,0.8837
4371.00,0.8797
4370.00,0.8768
4369.00,0.8747
4368.00,0.8732
4367.00,0.8723
4366.00,0.8719
4365.00,0.8719
4364.00,0.8722
4363.00,0.8728
4362.00,0.8737
4361.00,0.8750
4360.00,0.8768
4359.00,0.8793
4358.00,0.8825
4357.00,0.8866
4356.00,0.8916
4355.00,0.8976
4354.00,0.9045
4353.00,0.9124
4352.00,0.9214
4351.00,0.9314
4350.00,0.9424
4349.00,0.9543
4348.00,0.9669
4347.00,0.9802
4346.00,0.9942
4345.00,1.0088
4344.00,1.0238
4343.00,1.0392
4342.00,1.0549
4341.00,1.0709
4340.00,1.0871
4339.00,1.1035
4338.00,1.1200
4337.00,1.1367
4336.00,1.1534
4335.00,1.1702
4334.00,1.1868
4333.00,1.2032
4332.00,1.2193
4331.00,1.2353
4330.00,1.2512
4329.00,1.2670
4328.00,1.2827
4327.00,1.2981
4326.00,1.3133
4325.00,1.3281
4324.00,1.3427
4323.00,1.3569
4322.00,1.3707
4321.00,1.3841
4320.00,1.3970
4319.00,1.4094
4318.00,1.4214
4317.00,1.4328
4316.00,1.4437
4315.00,1.4542
4314.00,1.4642
4313.00,1.4737
4312.00,1.4828
4311.00,1.4915
4310.00,1.5000
4309.00,1.5081
4308.00,1.5160
4307.00,1.5235
4306.00,1.5304
4305.00,1.5365
4304.00,1.5420
4303.00,1.5472
4302.00,1.5524
4301.00,1.5574
4300.00,1.5619
4299.00,1.5657
4298.00,1.5688
4297.00,1.5712
4296.00,1.5731
4295.00,1.5748
4294.00,1.5762
4293.00,1.5772
4292.00,1.5778
4291.00,1.5777
4290.00,1.5771
4289.00,1.5760
4288.00,1.5744
4287.00,1.5725
4286.00,1.5701
4285.00,1.5674
4284.00,1.5641
4283.00,1.5603
4282.00,1.5561
4281.00,1.5515
4280.00,1.5464
4279.00,1.5409
4278.00,1.5350
4277.00,1.5285
4276.00,1.5216
4275.00,1.5141
4274.00,1.5059
4273.00,1.4971
4272.00,1.4876
4271.00,1.4776
4270.00,1.4671
4269.00,1.4562
4268.00,1.4448
4267.00,1.4330
4266.00,1.4205
4265.00,1.4073
4264.00,1.3934
4263.00,1.3790
4262.00,1.3641
4261.00,1.3488
4260.00,1.3329
4259.00,1.3163
4258.00,1.2991
4257.00,1.2811
4256.00,1.2624
4255.00,1.2431
4254.00,1.2232
4253.00,1.2028
4252.00,1.1819
4251.00,1.1606
4250.00,1.1390
4249.00,1.1170
4248.00,1.0948
4247.00,1.0723
4246.00,1.0496
4245.00,1.0268
4244.00,1.0042
4243.00,0.9819
4242.00,0.9599
4241.00,0.9384
4240.00,0.9175
4239.00,0.8975
4238.00,0.8783
4237.00,0.8601
4236.00,0.8429
4235.00,0.8270
4234.00,0.8123
4233.00,0.7991
4232.00,0.7874
4231.00,0.7772
4230.00,0.7686
4229.00,0.7616
4228.00,0.7562
4227.00,0.7526
4226.00,0.7508
4225.00,0.7508
4224.00,0.7525
4223.00,0.7559
4222.00,0.7609
4221.00,0.7676
4220.00,0.7758
4219.00,0.7853
4218.00,0.7962
4217.00,0.8083
4216.00,0.8215
4215.00,0.8357
4214.00,0.8508
4213.00,0.8667
4212.00,0.8833
4211.00,0.9005
4210.00,0.9183
4209.00,0.9365
4208.00,0.9550
4207.00,0.9737
4206.00,0.9927
4205.00,1.0119
4204.00,1.0311
4203.00,1.0503
4202.00,1.0694
4201.00,1.0884
4200.00,1.1074
4199.00,1.1264
4198.00,1.1454
4197.00,1.1643
4196.00,1.1829
4195.00,1.2013
4194.00,1.2195
4193.00,1.2375
4192.00,1.2552
4191.00,1.2726
4190.00,1.2898
4189.00,1.3067
4188.00,1.3232
4187.00,1.3393
4186.00,1.3549
4185.00,1.3702
4184.00,1.3853
4183.00,1.4004
4182.00,1.4152
4181.00,1.4295
4180.00,1.4432
4179.00,1.4563
4178.00,1.4689
4177.00,1.4811
4176.00,1.4931
4175.00,1.5048
4174.00,1.5161
4173.00,1.5269
4172.00,1.5369
4171.00,1.5463
4170.00,1.5551
4169.00,1.5635
4168.00,1.5716
4167.00,1.5794
4166.00,1.5867
4165.00,1.5933
4164.00,1.5992
4163.00,1.6045
4162.00,1.6093
4161.00,1.6138
4160.00,1.6179
4159.00,1.6215
4158.00,1.6246
4157.00,1.6272
4156.00,1.6295
4155.00,1.6315
4154.00,1.6329
4153.00,1.6335
4152.00,1.6335
4151.00,1.6329
4150.00,1.6321
4149.00,1.6309
4148.00,1.6295
4147.00,1.6277
4146.00,1.6255
4145.00,1.6228
4144.00,1.6196
4143.00,1.6156
4142.00,1.6109
4141.00,1.6054
4140.00,1.5994
4139.00,1.5933
4138.00,1.5872
4137.00,1.5810
4136.00,1.5743
4135.00,1.5669
4134.00,1.5586
4133.00,1.5497
4132.00,1.5403
4131.00,1.5305
4130.00,1.5201
4129.00,1.5090
4128.00,1.4970
4127.00,1.4844
4126.00,1.4713
4125.00,1.4577
4124.00,1.4436
4123.00,1.4289
4122.00,1.4137
4121.00,1.3978
4120.00,1.3813
4119.00,1.3641
4118.00,1.3463
4117.00,1.3277
4116.00,1.3086
4115.00,1.2889
4114.00,1.2686
4113.00,1.2476
4112.00,1.2260
4111.00,1.2039
4110.00,1.1813
4109.00,1.1583
4108.00,1.1349
4107.00,1.1113
4106.00,1.0877
4105.00,1.0640
4104.00,1.0405
4103.00,1.0174
4102.00,0.9945
4101.00,0.9722
4100.00,0.9504
4099.00,0.9294
4098.00,0.9092
4097.00,0.8901
4096.00,0.8720
4095.00,0.8553
4094.00,0.8399
4093.00,0.8261
4092.00,0.8140
4091.00,0.8036
4090.00,0.7950
4089.00,0.7883
4088.00,0.7835
4087.00,0.7807
4086.00,0.7798
4085.00,0.7808
4084.00,0.7838
4083.00,0.7886
4082.00,0.7952
4081.00,0.8034
4080.00,0.8132
4079.00,0.8244
4078.00,0.8370
4077.00,0.8507
4076.00,0.8654
4075.00,0.8812
4074.00,0.8978
4073.00,0.9152
4072.00,0.9331
4071.00,0.9515
4070.00,0.9703
4069.00,0.9895
4068.00,1.0090
4067.00,1.0288
4066.00,1.0487
4065.00,1.0687
4064.00,1.0888
4063.00,1.1088
4062.00,1.1287
4061.00,1.1485
4060.00,1.1683
4059.00,1.1881
4058.00,1.2077
4057.00,1.2272
4056.00,1.2464
4055.00,1.2654
4054.00,1.2842
4053.00,1.3028
4052.00,1.3211
4051.00,1.3391
4050.00,1.3568
4049.00,1.3742
4048.00,1.3914
4047.00,1.4082
4046.00,1.4247
4045.00,1.4409
4044.00,1.4570
4043.00,1.4727
4042.00,1.4879
4041.00,1.5025
4040.00,1.5165
4039.00,1.5299
4038.00,1.5430
4037.00,1.5558
4036.00,1.5680
4035.00,1.5795
4034.00,1.5903
4033.00,1.6004
4032.00,1.6099
4031.00,1.6189
4030.00,1.6274
4029.00,1.6352
4028.00,1.6422
4027.00,1.6486
4026.00,1.6547
4025.00,1.6606
4024.00,1.6662
4023.00,1.6714
4022.00,1.6758
4021.00,1.6798
4020.00,1.6834
4019.00,1.6866
4018.00,1.6894
4017.00,1.6916
4016.00,1.6932
4015.00,1.6943
4014.00,1.6952
4013.00,1.6960
4012.00,1.6965
4011.00,1.6966
4010.00,1.6960
4009.00,1.6946
4008.00,1.6926
4007.00,1.6902
4006.00,1.6876
4005.00,1.6847
4004.00,1.6811
4003.00,1.6770
4002.00,1.6725
4001.00,1.6677
4000.00,1.6624
3999.00,1.6565
3998.00,1.6499
3997.00,1.6427
3996.00,1.6350
3995.00,1.6269
3994.00,1.6183
3993.00,1.6092
3992.00,1.5997
3991.00,1.5899
3990.00,1.5795
3989.00,1.5683
3988.00,1.5564
3987.00,1.5439
3986.00,1.5311
3985.00,1.5180
3984.00,1.5045
3983.00,1.4903
3982.00,1.4754
3981.00,1.4599
3980.00,1.4440
3979.00,1.4276
3978.00,1.4108
3977.00,1.3935
3976.00,1.3757
3975.00,1.3572
3974.00,1.3381
3973.00,1.3183
3972.00,1.2977
3971.00,1.2762
3970.00,1.2540
3969.00,1.2311
3968.00,1.2076
3967.00,1.1835
3966.00,1.1590
3965.00,1.1342
3964.00,1.1092
3963.00,1.0840
3962.00,1.0587
3961.00,1.0336
3960.00,1.0090
3959.00,0.9851
3958.00,0.9621
3957.00,0.9401
3956.00,0.9192
3955.00,0.8995
3954.00,0.8813
3953.00,0.8645
3952.00,0.8494
3951.00,0.8360
3950.00,0.8243
3949.00,0.8143
3948.00,0.8062
3947.00,0.8002
3946.00,0.7963
3945.00,0.7949
3944.00,0.7957
3943.00,0.7987
3942.00,0.8037
3941.00,0.8105
3940.00,0.8192
3939.00,0.8297
3938.00,0.8420
3937.00,0.8558
3936.00,0.8709
3935.00,0.8869
3934.00,0.9040
3933.00,0.9220
3932.00,0.9409
3931.00,0.9604
3930.00,0.9804
3929.00,1.0007
3928.00,1.0214
3927.00,1.0423
3926.00,1.0634
3925.00,1.0849
3924.00,1.1067
3923.00,1.1284
3922.00,1.1498
3921.00,1.1708
3920.00,1.1916
3919.00,1.2124
3918.00,1.2332
3917.00,1.2541
3916.00,1.2752
3915.00,1.2962
3914.00,1.3166
3913.00,1.3365
3912.00,1.3557
3911.00,1.3745
3910.00,1.3930
3909.00,1.4111
3908.00,1.4286
3907.00,1.4453
3906.00,1.4613
3905.00,1.4769
3904.00,1.4926
3903.00,1.5086
3902.00,1.5249
3901.00,1.5411
3900.00,1.5569
3899.00,1.5724
3898.00,1.5874
3897.00,1.6018
3896.00,1.6152
3895.00,1.6273
3894.00,1.6380
3893.00,1.6479
3892.00,1.6576
3891.00,1.6676
3890.00,1.6778
3889.00,1.6877
3888.00,1.6964
3887.00,1.7039
3886.00,1.7106
3885.00,1.7170
3884.00,1.7232
3883.00,1.7290
3882.00,1.7343
3881.00,1.7390
3880.00,1.7430
3879.00,1.7464
3878.00,1.7492
3877.00,1.7515
3876.00,1.7533
3875.00,1.7547
3874.00,1.7558
3873.00,1.7565
3872.00,1.7568
3871.00,1.7567
3870.00,1.7561
3869.00,1.7553
3868.00,1.7545
3867.00,1.7533
3866.00,1.7511
3865.00,1.7477
3864.00,1.7435
3863.00,1.7391
3862.00,1.7346
3861.00,1.7296
3860.00,1.7240
3859.00,1.7180
3858.00,1.7121
3857.00,1.7065
3856.00,1.7008
3855.00,1.6943
3854.00,1.6861
3853.00,1.6763
3852.00,1.6657
3851.00,1.6552
3850.00,1.6442
3849.00,1.6321
3848.00,1.6189
3847.00,1.6054
3846.00,1.5918
3845.00,1.5780
3844.00,1.5634
3843.00,1.5481
3842.00,1.5321
3841.00,1.5156
3840.00,1.4983
3839.00,1.4797
3838.00,1.4597
3837.00,1.4387
3836.00,1.4174
3835.00,1.3958
3834.00,1.3734
3833.00,1.3496
3832.00,1.3246
3831.00,1.2990
3830.00,1.2734
3829.00,1.2476
3828.00,1.2212
3827.00,1.1939
3826.00,1.1662
3825.00,1.1391
3824.00,1.1128
3823.00,1.0865
3822.00,1.0587
3821.00,1.0297
3820.00,1.0014
3819.00,0.9758
3818.00,0.9524
3817.00,0.9297
3816.00,0.9069
3815.00,0.8852
3814.00,0.8659
3813.00,0.8493
3812.00,0.8348
3811.00,0.8221
3810.00,0.8119
3809.00,0.8046
3808.00,0.8000
3807.00,0.7975
3806.00,0.7970
3805.00,0.7986
3804.00,0.8024
3803.00,0.8087
3802.00,0.8181
3801.00,0.8303
3800.00,0.8444
3799.00,0.8592
3798.00,0.8744
3797.00,0.8905
3796.00,0.9082
3795.00,0.9277
3794.00,0.9482
3793.00,0.9693
3792.00,0.9909
3791.00,1.0131
3790.00,1.0358
3789.00,1.0589
3788.00,1.0822
3787.00,1.1055
3786.00,1.1290
3785.00,1.1526
3784.00,1.1764
3783.00,1.1999
3782.00,1.2229
3781.00,1.2454
3780.00,1.2679
3779.00,1.2909
3778.00,1.3143
3777.00,1.3373
3776.00,1.3596
3775.00,1.3809
3774.00,1.4011
3773.00,1.4205
3772.00,1.4394
3771.00,1.4581
3770.00,1.4774
3769.00,1.4975
3768.00,1.5177
3767.00,1.5374
3766.00,1.5562
3765.00,1.5742
3764.00,1.5915
3763.00,1.6078
3762.00,1.6228
3761.00,1.6371
3760.00,1.6511
3759.00,1.6651
3758.00,1.6793
3757.00,1.6931
3756.00,1.7059
3755.00,1.7171
3754.00,1.7271
3753.00,1.7366
3752.00,1.7463
3751.00,1.7563
3750.00,1.7668
3749.00,1.7770
3748.00,1.7861
3747.00,1.7935
3746.00,1.7991
3745.00,1.8039
3744.00,1.8086
3743.00,1.8134
3742.00,1.8179
3741.00,1.8211
3740.00,1.8226
3739.00,1.8226
3738.00,1.8223
3737.00,1.8222
3736.00,1.8224
3735.00,1.8224
3734.00,1.8220
3733.00,1.8213
3732.00,1.8203
3731.00,1.8191
3730.00,1.8175
3729.00,1.8153
3728.00,1.8122
3727.00,1.8083
3726.00,1.8039
3725.00,1.7993
3724.00,1.7943
3723.00,1.7887
3722.00,1.7828
3721.00,1.7769
3720.00,1.7708
3719.00,1.7642
3718.00,1.7571
3717.00,1.7494
3716.00,1.7412
3715.00,1.7322
3714.00,1.7220
3713.00,1.7108
3712.00,1.6988
3711.00,1.6863
3710.00,1.6732
3709.00,1.6593
3708.00,1.6440
3707.00,1.6279
3706.00,1.6114
3705.00,1.5948
3704.00,1.5775
3703.00,1.5590
3702.00,1.5392
3701.00,1.5183
3700.00,1.4970
3699.00,1.4755
3698.00,1.4536
3697.00,1.4310
3696.00,1.4078
3695.00,1.3844
3694.00,1.3609
3693.00,1.3373
3692.00,1.3134
3691.00,1.2889
3690.00,1.2638
3689.00,1.2379
3688.00,1.2117
3687.00,1.1867
3686.00,1.1635
3685.00,1.1418
3684.00,1.1211
3683.00,1.1016
3682.00,1.0839
3681.00,1.0683
3680.00,1.0549
3679.00,1.0438
3678.00,1.0349
3677.00,1.0281
3676.00,1.0227
3675.00,1.0186
3674.00,1.0162
3673.00,1.0159
3672.00,1.0180
3671.00,1.0223
3670.00,1.0292
3669.00,1.0380
3668.00,1.0479
3667.00,1.0585
3666.00,1.0699
3665.00,1.0826
3664.00,1.0968
3663.00,1.1124
3662.00,1.1291
3661.00,1.1464
3660.00,1.1639
3659.00,1.1816
3658.00,1.1995
3657.00,1.2182
3656.00,1.2378
3655.00,1.2574
3654.00,1.2762
3653.00,1.2934
3652.00,1.3096
3651.00,1.3262
3650.00,1.3444
3649.00,1.3643
3648.00,1.3850
3647.00,1.4054
3646.00,1.4245
3645.00,1.4419
3644.00,1.4583
3643.00,1.4743
3642.00,1.4907
3641.00,1.5074
3640.00,1.5244
3639.00,1.5414
3638.00,1.5581
3637.00,1.5743
3636.00,1.5898
3635.00,1.6050
3634.00,1.6199
3633.00,1.6342
3632.00,1.6478
3631.00,1.6608
3630.00,1.6739
3629.00,1.6881
3628.00,1.7036
3627.00,1.7193
3626.00,1.7338
3625.00,1.7464
3624.00,1.7576
3623.00,1.7678
3622.00,1.7776
3621.00,1.7873
3620.00,1.7973
3619.00,1.8079
3618.00,1.8188
3617.00,1.8295
3616.00,1.8396
3615.00,1.8488
3614.00,1.8566
3613.00,1.8633
3612.00,1.8694
3611.00,1.8758
3610.00,1.8825
3609.00,1.8894
3608.00,1.8961
3607.00,1.9019
3606.00,1.9067
3605.00,1.9108
3604.00,1.9146
3603.00,1.9185
3602.00,1.9224
3601.00,1.9261
3600.00,1.9294
3599.00,1.9322
3598.00,1.9343
3597.00,1.9357
3596.00,1.9367
3595.00,1.9375
3594.00,1.9384
3593.00,1.9392
3592.00,1.9400
3591.00,1.9404
3590.00,1.9402
3589.00,1.9392
3588.00,1.9371
3587.00,1.9341
3586.00,1.9304
3585.00,1.9268
3584.00,1.9237
3583.00,1.9212
3582.00,1.9185
3581.00,1.9151
3580.00,1.9108
3579.00,1.9054
3578.00,1.8992
3577.00,1.8925
3576.00,1.8858
3575.00,1.8793
3574.00,1.8727
3573.00,1.8654
3572.00,1.8574
3571.00,1.8487
3570.00,1.8392
3569.00,1.8291
3568.00,1.8181
3567.00,1.8061
3566.00,1.7933
3565.00,1.7805
3564.00,1.7682
3563.00,1.7562
3562.00,1.7441
3561.00,1.7314
3560.00,1.7181
3559.00,1.7041
3558.00,1.6896
3557.00,1.6745
3556.00,1.6592
3555.00,1.6437
3554.00,1.6280
3553.00,1.6118
3552.00,1.5952
3551.00,1.5781
3550.00,1.5610
3549.00,1.5439
3548.00,1.5267
3547.00,1.5092
3546.00,1.4911
3545.00,1.4727
3544.00,1.4543
3543.00,1.4362
3542.00,1.4185
3541.00,1.4012
3540.00,1.3839
3539.00,1.3667
3538.00,1.3494
3537.00,1.3323
3536.00,1.3155
3535.00,1.2991
3534.00,1.2832
3533.00,1.2681
3532.00,1.2537
3531.00,1.2400
3530.00,1.2272
3529.00,1.2153
3528.00,1.2044
3527.00,1.1945
3526.00,1.1859
3525.00,1.1785
3524.00,1.1724
3523.00,1.1678
3522.00,1.1649
3521.00,1.1637
3520.00,1.1643
3519.00,1.1667
3518.00,1.1706
3517.00,1.1760
3516.00,1.1829
3515.00,1.1913
3514.00,1.2011
3513.00,1.2122
3512.00,1.2244
3511.00,1.2377
3510.00,1.2519
3509.00,1.2670
3508.00,1.2828
3507.00,1.2994
3506.00,1.3167
3505.00,1.3346
3504.00,1.3532
3503.00,1.3721
3502.00,1.3913
3501.00,1.4105
3500.00,1.4298
3499.00,1.4491
3498.00,1.4685
3497.00,1.4878
3496.00,1.5071
3495.00,1.5265
3494.00,1.5459
3493.00,1.5653
3492.00,1.5845
3491.00,1.6034
3490.00,1.6219
3489.00,1.6399
3488.00,1.6573
3487.00,1.6745
3486.00,1.6914
3485.00,1.7081
3484.00,1.7247
3483.00,1.7411
3482.00,1.7571
3481.00,1.7725
3480.00,1.7873
3479.00,1.8015
3478.00,1.8154
3477.00,1.8288
3476.00,1.8418
3475.00,1.8542
3474.00,1.8661
3473.00,1.8774
3472.00,1.8881
3471.00,1.8984
3470.00,1.9083
3469.00,1.9179
3468.00,1.9271
3467.00,1.9352
3466.00,1.9423
3465.00,1.9486
3464.00,1.9545
3463.00,1.9602
3462.00,1.9657
3461.00,1.9708
3460.00,1.9754
3459.00,1.9794
3458.00,1.9828
3457.00,1.9857
3456.00,1.9884
3455.00,1.9909
3454.00,1.9929
3453.00,1.9945
3452.00,1.9955
3451.00,1.9960
3450.00,1.9960
3449.00,1.9955
3448.00,1.9946
3447.00,1.9933
3446.00,1.9916
3445.00,1.9895
3444.00,1.9870
3443.00,1.9839
3442.00,1.9802
3441.00,1.9762
3440.00,1.9718
3439.00,1.9669
3438.00,1.9613
3437.00,1.9551
3436.00,1.9486
3435.00,1.9419
3434.00,1.9348
3433.00,1.9272
3432.00,1.9190
3431.00,1.9102
3430.00,1.9008
3429.00,1.8909
3428.00,1.8804
3427.00,1.8691
3426.00,1.8569
3425.00,1.8441
3424.00,1.8309
3423.00,1.8174
3422.00,1.8034
3421.00,1.7886
3420.00,1.7729
3419.00,1.7565
3418.00,1.7396
3417.00,1.7221
3416.00,1.7040
3415.00,1.6853
3414.00,1.6657
3413.00,1.6453
3412.00,1.6243
3411.00,1.6025
3410.00,1.5802
3409.00,1.5572
3408.00,1.5338
3407.00,1.5101
3406.00,1.4860
3405.00,1.4616
3404.00,1.4368
3403.00,1.4116
3402.00,1.3862
3401.00,1.3607
3400.00,1.3352
3399.00,1.3099
3398.00,1.2848
3397.00,1.2600
3396.00,1.2357
3395.00,1.2122
3394.00,1.1898
3393.00,1.1688
3392.00,1.1493
3391.00,1.1314
3390.00,1.1153
3389.00,1.1013
3388.00,1.0894
3387.00,1.0797
3386.00,1.0722
3385.00,1.0671
3384.00,1.0644
3383.00,1.0640
3382.00,1.0659
3381.00,1.0701
3380.00,1.0765
3379.00,1.0851
3378.00,1.0957
3377.00,1.1082
3376.00,1.1223
3375.00,1.1379
3374.00,1.1549
3373.00,1.1732
3372.00,1.1926
3371.00,1.2130
3370.00,1.2341
3369.00,1.2559
3368.00,1.2782
3367.00,1.3009
3366.00,1.3239
3365.00,1.3469
3364.00,1.3700
3363.00,1.3933
3362.00,1.4168
3361.00,1.4403
3360.00,1.4636
3359.00,1.4867
3358.00,1.5095
3357.00,1.5319
3356.00,1.5541
3355.00,1.5760
3354.00,1.5977
3353.00,1.6192
3352.00,1.6403
3351.00,1.6610
3350.00,1.6813
3349.00,1.7013
3348.00,1.7207
3347.00,1.7395
3346.00,1.7577
3345.00,1.7755
3344.00,1.7929
3343.00,1.8098
3342.00,1.8260
3341.00,1.8415
3340.00,1.8564
3339.00,1.8710
3338.00,1.8851
3337.00,1.8989
3336.00,1.9121
3335.00,1.9244
3334.00,1.9356
3333.00,1.9460
3332.00,1.9560
3331.00,1.9659
3330.00,1.9755
3329.00,1.9849
3328.00,1.9938
3327.00,2.0019
3326.00,2.0090
3325.00,2.0152
3324.00,2.0206
3323.00,2.0255
3322.00,2.0301
3321.00,2.0342
3320.00,2.0380
3319.00,2.0413
3318.00,2.0441
3317.00,2.0465
3316.00,2.0486
3315.00,2.0504
3314.00,2.0519
3313.00,2.0532
3312.00,2.0541
3311.00,2.0546
3310.00,2.0544
3309.00,2.0536
3308.00,2.0524
3307.00,2.0508
3306.00,2.0484
3305.00,2.0453
3304.00,2.0418
3303.00,2.0381
3302.00,2.0345
3301.00,2.0307
3300.00,2.0266
3299.00,2.0220
3298.00,2.0165
3297.00,2.0101
3296.00,2.0031
3295.00,1.9958
3294.00,1.9880
3293.00,1.9796
3292.00,1.9705
3291.00,1.9607
3290.00,1.9506
3289.00,1.9404
3288.00,1.9299
3287.00,1.9186
3286.00,1.9065
3285.00,1.8936
3284.00,1.8801
3283.00,1.8660
3282.00,1.8512
3281.00,1.8355
3280.00,1.8192
3279.00,1.8022
3278.00,1.7844
3277.00,1.7659
3276.00,1.7467
3275.00,1.7271
3274.00,1.7069
3273.00,1.6858
3272.00,1.6637
3271.00,1.6407
3270.00,1.6168
3269.00,1.5923
3268.00,1.5672
3267.00,1.5415
3266.00,1.5153
3265.00,1.4887
3264.00,1.4617
3263.00,1.4344
3262.00,1.4069
3261.00,1.3795
3260.00,1.3524
3259.00,1.3259
3258.00,1.3000
3257.00,1.2750
3256.00,1.2511
3255.00,1.2284
3254.00,1.2071
3253.00,1.1875
3252.00,1.1698
3251.00,1.1542
3250.00,1.1409
3249.00,1.1299
3248.00,1.1212
3247.00,1.1149
3246.00,1.1112
3245.00,1.1101
3244.00,1.1116
3243.00,1.1157
3242.00,1.1222
3241.00,1.1311
3240.00,1.1421
3239.00,1.1551
3238.00,1.1699
3237.00,1.1864
3236.00,1.2043
3235.00,1.2237
3234.00,1.2443
3233.00,1.2659
3232.00,1.2884
3231.00,1.3116
3230.00,1.3352
3229.00,1.3593
3228.00,1.3836
3227.00,1.4082
3226.00,1.4329
3225.00,1.4577
3224.00,1.4827
3223.00,1.5077
3222.00,1.5325
3221.00,1.5571
3220.00,1.5815
3219.00,1.6057
3218.00,1.6296
3217.00,1.6533
3216.00,1.6767
3215.00,1.6997
3214.00,1.7222
3213.00,1.7442
3212.00,1.7656
3211.00,1.7866
3210.00,1.8071
3209.00,1.8272
3208.00,1.8467
3207.00,1.8653
3206.00,1.8830
3205.00,1.8998
3204.00,1.9158
3203.00,1.9306
3202.00,1.9441
3201.00,1.9563
3200.00,1.9675
3199.00,1.9783
3198.00,1.9887
3197.00,1.9987
3196.00,2.0083
3195.00,2.0179
3194.00,2.0275
3193.00,2.0370
3192.00,2.0464
3191.00,2.0555
3190.00,2.0643
3189.00,2.0727
3188.00,2.0806
3187.00,2.0877
3186.00,2.0939
3185.00,2.0995
3184.00,2.1050
3183.00,2.1105
3182.00,2.1157
3181.00,2.1201
3180.00,2.1234
3179.00,2.1258
3178.00,2.1279
3177.00,2.1302
3176.00,2.1328
3175.00,2.1356
3174.00,2.1381
3173.00,2.1402
3172.00,2.1415
3171.00,2.1420
3170.00,2.1424
3169.00,2.1438
3168.00,2.1468
3167.00,2.1513
3166.00,2.1561
3165.00,2.1600
3164.00,2.1624
3163.00,2.1624
3162.00,2.1596
3161.00,2.1542
3160.00,2.1468
3159.00,2.1383
3158.00,2.1290
3157.00,2.1191
3156.00,2.1087
3155.00,2.0982
3154.00,2.0880
3153.00,2.0780
3152.00,2.0681
3151.00,2.0576
3150.00,2.0464
3149.00,2.0346
3148.00,2.0227
3147.00,2.0108
3146.00,1.9985
3145.00,1.9855
3144.00,1.9715
3143.00,1.9566
3142.00,1.9411
3141.00,1.9253
3140.00,1.9092
3139.00,1.8926
3138.00,1.8749
3137.00,1.8560
3136.00,1.8361
3135.00,1.8157
3134.00,1.7948
3133.00,1.7736
3132.00,1.7517
3131.00,1.7293
3130.00,1.7062
3129.00,1.6824
3128.00,1.6579
3127.00,1.6327
3126.00,1.6069
3125.00,1.5808
3124.00,1.5546
3123.00,1.5286
3122.00,1.5028
3121.00,1.4773
3120.00,1.4522
3119.00,1.4276
3118.00,1.4039
3117.00,1.3815
3116.00,1.3605
3115.00,1.3410
3114.00,1.3230
3113.00,1.3066
3112.00,1.2919
3111.00,1.2791
3110.00,1.2682
3109.00,1.2596
3108.00,1.2532
3107.00,1.2494
3106.00,1.2480
3105.00,1.2491
3104.00,1.2527
3103.00,1.2587
3102.00,1.2670
3101.00,1.2774
3100.00,1.2898
3099.00,1.3040
3098.00,1.3197
3097.00,1.3369
3096.00,1.3554
3095.00,1.3751
3094.00,1.3957
3093.00,1.4172
3092.00,1.4393
3091.00,1.4619
3090.00,1.4849
3089.00,1.5082
3088.00,1.5317
3087.00,1.5552
3086.00,1.5788
3085.00,1.6025
3084.00,1.6261
3083.00,1.6496
3082.00,1.6728
3081.00,1.6956
3080.00,1.7181
3079.00,1.7402
3078.00,1.7621
3077.00,1.7839
3076.00,1.8055
3075.00,1.8270
3074.00,1.8478
3073.00,1.8679
3072.00,1.8872
3071.00,1.9061
3070.00,1.9246
3069.00,1.9429
3068.00,1.9610
3067.00,1.9784
3066.00,1.9949
3065.00,2.0105
3064.00,2.0256
3063.00,2.0404
3062.00,2.0549
3061.00,2.0689
3060.00,2.0822
3059.00,2.0946
3058.00,2.1062
3057.00,2.1173
3056.00,2.1282
3055.00,2.1385
3054.00,2.1481
3053.00,2.1566
3052.00,2.1647
3051.00,2.1727
3050.00,2.1810
3049.00,2.1888
3048.00,2.1959
3047.00,2.2019
3046.00,2.2072
3045.00,2.2118
3044.00,2.2160
3043.00,2.2201
3042.00,2.2240
3041.00,2.2275
3040.00,2.2301
3039.00,2.2322
3038.00,2.2343
3037.00,2.2368
3036.00,2.2391
3035.00,2.2406
3034.00,2.2410
3033.00,2.2406
3032.00,2.2398
3031.00,2.2385
3030.00,2.2365
3029.00,2.2340
3028.00,2.2314
3027.00,2.2286
3026.00,2.2256
3025.00,2.2226
3024.00,2.2197
3023.00,2.2167
3022.00,2.2130
3021.00,2.2085
3020.00,2.2035
3019.00,2.1988
3018.00,2.1945
3017.00,2.1901
3016.00,2.1851
3015.00,2.1794
3014.00,2.1733
3013.00,2.1678
3012.00,2.1636
3011.00,2.1608
3010.00,2.1594
3009.00,2.1585
3008.00,2.1574
3007.00,2.1556
3006.00,2.1530
3005.00,2.1500
3004.00,2.1468
3003.00,2.1434
3002.00,2.1393
3001.00,2.1343
3000.00,2.1279
2999.00,2.1200
2998.00,2.1102
2997.00,2.0983
2996.00,2.0843
2995.00,2.0681
2994.00,2.0502
2993.00,2.0310
2992.00,2.0110
2991.00,1.9901
2990.00,1.9686
2989.00,1.9463
2988.00,1.9234
2987.00,1.8999
2986.00,1.8762
2985.00,1.8529
2984.00,1.8306
2983.00,1.8100
2982.00,1.7911
2981.00,1.7743
2980.00,1.7599
2979.00,1.7485
2978.00,1.7402
2977.00,1.7354
2976.00,1.7342
2975.00,1.7368
2974.00,1.7434
2973.00,1.7537
2972.00,1.7673
2971.00,1.7833
2970.00,1.8013
2969.00,1.8208
2968.00,1.8415
2967.00,1.8630
2966.00,1.8846
2965.00,1.9060
2964.00,1.9266
2963.00,1.9466
2962.00,1.9661
2961.00,1.9856
2960.00,2.0055
2959.00,2.0261
2958.00,2.0475
2957.00,2.0698
2956.00,2.0931
2955.00,2.1174
2954.00,2.1427
2953.00,2.1688
2952.00,2.1953
2951.00,2.2219
2950.00,2.2483
2949.00,2.2747
2948.00,2.3013
2947.00,2.3268
2946.00,2.3488
2945.00,2.3641
2944.00,2.3700
2943.00,2.3654
2942.00,2.3505
2941.00,2.3270
2940.00,2.2980
2939.00,2.2669
2938.00,2.2358
2937.00,2.2056
2936.00,2.1765
2935.00,2.1487
2934.00,2.1230
2933.00,2.0998
2932.00,2.0794
2931.00,2.0615
2930.00,2.0457
2929.00,2.0316
2928.00,2.0195
2927.00,2.0096
2926.00,2.0023
2925.00,1.9978
2924.00,1.9956
2923.00,1.9954
2922.00,1.9972
2921.00,2.0008
2920.00,2.0063
2919.00,2.0130
2918.00,2.0206
2917.00,2.0294
2916.00,2.0398
2915.00,2.0518
2914.00,2.0650
2913.00,2.0788
2912.00,2.0929
2911.00,2.1069
2910.00,2.1208
2909.00,2.1346
2908.00,2.1481
2907.00,2.1611
2906.00,2.1732
2905.00,2.1845
2904.00,2.1955
2903.00,2.2071
2902.00,2.2191
2901.00,2.2306
2900.00,2.2409
2899.00,2.2499
2898.00,2.2582
2897.00,2.2662
2896.00,2.2741
2895.00,2.2821
2894.00,2.2901
2893.00,2.2977
2892.00,2.3048
2891.00,2.3112
2890.00,2.3172
2889.00,2.3224
2888.00,2.3265
2887.00,2.3297
2886.00,2.3328
2885.00,2.3365
2884.00,2.3404
2883.00,2.3433
2882.00,2.3448
2881.00,2.3460
2880.00,2.3478
2879.00,2.3505
2878.00,2.3534
2877.00,2.3560
2876.00,2.3580
2875.00,2.3594
2874.00,2.3608
2873.00,2.3628
2872.00,2.3656
2871.00,2.3689
2870.00,2.3713
2869.00,2.3718
2868.00,2.3697
2867.00,2.3656
2866.00,2.3610
2865.00,2.3568
2864.00,2.3533
2863.00,2.3494
2862.00,2.3441
2861.00,2.3371
2860.00,2.3286
2859.00,2.3191
2858.00,2.3091
2857.00,2.2991
2856.00,2.2888
2855.00,2.2777
2854.00,2.2653
2853.00,2.2521
2852.00,2.2385
2851.00,2.2243
2850.00,2.2091
2849.00,2.1927
2848.00,2.1757
2847.00,2.1584
2846.00,2.1408
2845.00,2.1228
2844.00,2.1042
2843.00,2.0848
2842.00,2.0646
2841.00,2.0431
2840.00,2.0205
2839.00,1.9972
2838.00,1.9732
2837.00,1.9486
2836.00,1.9231
2835.00,1.8963
2834.00,1.8681
2833.00,1.8385
2832.00,1.8077
2831.00,1.7756
2830.00,1.7424
2829.00,1.7083
2828.00,1.6735
2827.00,1.6376
2826.00,1.6008
2825.00,1.5633
2824.00,1.5253
2823.00,1.4875
2822.00,1.4500
2821.00,1.4135
2820.00,1.3783
2819.00,1.3450
2818.00,1.3139
2817.00,1.2856
2816.00,1.2604
2815.00,1.2387
2814.00,1.2209
2813.00,1.2072
2812.00,1.1979
2811.00,1.1931
2810.00,1.1926
2809.00,1.1966
2808.00,1.2048
2807.00,1.2170
2806.00,1.2330
2805.00,1.2522
2804.00,1.2744
2803.00,1.2991
2802.00,1.3255
2801.00,1.3534
2800.00,1.3821
2799.00,1.4116
2798.00,1.4415
2797.00,1.4718
2796.00,1.5024
2795.00,1.5332
2794.00,1.5643
2793.00,1.5954
2792.00,1.6265
2791.00,1.6574
2790.00,1.6881
2789.00,1.7187
2788.00,1.7490
2787.00,1.7790
2786.00,1.8082
2785.00,1.8369
2784.00,1.8651
2783.00,1.8928
2782.00,1.9200
2781.00,1.9468
2780.00,1.9733
2779.00,1.9993
2778.00,2.0244
2777.00,2.0482
2776.00,2.0708
2775.00,2.0926
2774.00,2.1137
2773.00,2.1342
2772.00,2.1537
2771.00,2.1719
2770.00,2.1887
2769.00,2.2044
2768.00,2.2191
2767.00,2.2328
2766.00,2.2457
2765.00,2.2580
2764.00,2.2700
2763.00,2.2816
2762.00,2.2925
2761.00,2.3027
2760.00,2.3124
2759.00,2.3216
2758.00,2.3300
2757.00,2.3379
2756.00,2.3457
2755.00,2.3534
2754.00,2.3606
2753.00,2.3667
2752.00,2.3720
2751.00,2.3769
2750.00,2.3817
2749.00,2.3862
2748.00,2.3907
2747.00,2.3949
2746.00,2.3982
2745.00,2.3997
2744.00,2.3993
2743.00,2.3980
2742.00,2.3967
2741.00,2.3963
2740.00,2.3966
2739.00,2.3972
2738.00,2.3969
2737.00,2.3952
2736.00,2.3922
2735.00,2.3883
2734.00,2.3839
2733.00,2.3793
2732.00,2.3748
2731.00,2.3708
2730.00,2.3666
2729.00,2.3615
2728.00,2.3553
2727.00,2.3481
2726.00,2.3403
2725.00,2.3321
2724.00,2.3235
2723.00,2.3150
2722.00,2.3065
2721.00,2.2974
2720.00,2.2873
2719.00,2.2761
2718.00,2.2641
2717.00,2.2516
2716.00,2.2386
2715.00,2.2247
2714.00,2.2096
2713.00,2.1935
2712.00,2.1767
2711.00,2.1595
2710.00,2.1415
2709.00,2.1225
2708.00,2.1022
2707.00,2.0805
2706.00,2.0577
2705.00,2.0338
2704.00,2.0092
2703.00,1.9836
2702.00,1.9567
2701.00,1.9283
2700.00,1.8983
2699.00,1.8666
2698.00,1.8332
2697.00,1.7979
2696.00,1.7610
2695.00,1.7226
2694.00,1.6829
2693.00,1.6418
2692.00,1.5994
2691.00,1.5562
2690.00,1.5126
2689.00,1.4691
2688.00,1.4263
2687.00,1.3847
2686.00,1.3450
2685.00,1.3079
2684.00,1.2740
2683.00,1.2437
2682.00,1.2174
2681.00,1.1952
2680.00,1.1772
2679.00,1.1636
2678.00,1.1543
2677.00,1.1495
2676.00,1.1493
2675.00,1.1536
2674.00,1.1621
2673.00,1.1745
2672.00,1.1904
2671.00,1.2095
2670.00,1.2313
2669.00,1.2558
2668.00,1.2825
2667.00,1.3114
2666.00,1.3421
2665.00,1.3743
2664.00,1.4078
2663.00,1.4424
2662.00,1.4778
2661.00,1.5135
2660.00,1.5493
2659.00,1.5850
2658.00,1.6203
2657.00,1.6552
2656.00,1.6895
2655.00,1.7236
2654.00,1.7573
2653.00,1.7909
2652.00,1.8240
2651.00,1.8566
2650.00,1.8887
2649.00,1.9201
2648.00,1.9508
2647.00,1.9808
2646.00,2.0103
2645.00,2.0392
2644.00,2.0672
2643.00,2.0942
2642.00,2.1200
2641.00,2.1449
2640.00,2.1691
2639.00,2.1928
2638.00,2.2153
2637.00,2.2358
2636.00,2.2544
2635.00,2.2720
2634.00,2.2895
2633.00,2.3072
2632.00,2.3243
2631.00,2.3403
2630.00,2.3547
2629.00,2.3675
2628.00,2.3785
2627.00,2.3875
2626.00,2.3950
2625.00,2.4021
2624.00,2.4095
2623.00,2.4173
2622.00,2.4251
2621.00,2.4322
2620.00,2.4384
2619.00,2.4443
2618.00,2.4501
2617.00,2.4557
2616.00,2.4608
2615.00,2.4658
2614.00,2.4708
2613.00,2.4755
2612.00,2.4794
2611.00,2.4825
2610.00,2.4851
2609.00,2.4873
2608.00,2.4894
2607.00,2.4913
2606.00,2.4932
2605.00,2.4948
2604.00,2.4957
2603.00,2.4957
2602.00,2.4952
2601.00,2.4942
2600.00,2.4927
2599.00,2.4908
2598.00,2.4890
2597.00,2.4875
2596.00,2.4857
2595.00,2.4828
2594.00,2.4784
2593.00,2.4728
2592.00,2.4665
2591.00,2.4601
2590.00,2.4536
2589.00,2.4464
2588.00,2.4384
2587.00,2.4295
2586.00,2.4202
2585.00,2.4108
2584.00,2.4013
2583.00,2.3915
2582.00,2.3815
2581.00,2.3708
2580.00,2.3592
2579.00,2.3465
2578.00,2.3330
2577.00,2.3193
2576.00,2.3052
2575.00,2.2902
2574.00,2.2738
2573.00,2.2561
2572.00,2.2378
2571.00,2.2192
2570.00,2.2000
2569.00,2.1795
2568.00,2.1572
2567.00,2.1334
2566.00,2.1087
2565.00,2.0830
2564.00,2.0560
2563.00,2.0275
2562.00,1.9975
2561.00,1.9658
2560.00,1.9324
2559.00,1.8972
2558.00,1.8602
2557.00,1.8216
2556.00,1.7813
2555.00,1.7390
2554.00,1.6949
2553.00,1.6491
2552.00,1.6024
2551.00,1.5552
2550.00,1.5082
2549.00,1.4618
2548.00,1.4166
2547.00,1.3734
2546.00,1.3327
2545.00,1.2952
2544.00,1.2615
2543.00,1.2320
2542.00,1.2073
2541.00,1.1878
2540.00,1.1739
2539.00,1.1658
2538.00,1.1637
2537.00,1.1675
2536.00,1.1771
2535.00,1.1921
2534.00,1.2121
2533.00,1.2363
2532.00,1.2642
2531.00,1.2951
2530.00,1.3284
2529.00,1.3636
2528.00,1.4001
2527.00,1.4376
2526.00,1.4756
2525.00,1.5140
2524.00,1.5525
2523.00,1.5910
2522.00,1.6292
2521.00,1.6669
2520.00,1.7044
2519.00,1.7415
2518.00,1.7781
2517.00,1.8141
2516.00,1.8493
2515.00,1.8840
2514.00,1.9183
2513.00,1.9521
2512.00,1.9854
2511.00,2.0182
2510.00,2.0504
2509.00,2.0819
2508.00,2.1123
2507.00,2.1412
2506.00,2.1687
2505.00,2.1947
2504.00,2.2195
2503.00,2.2429
2502.00,2.2651
2501.00,2.2860
2500.00,2.3061
2499.00,2.3256
2498.00,2.3445
2497.00,2.3627
2496.00,2.3799
2495.00,2.3964
2494.00,2.4125
2493.00,2.4282
2492.00,2.4431
2491.00,2.4563
2490.00,2.4674
2489.00,2.4772
2488.00,2.4866
2487.00,2.4964
2486.00,2.5064
2485.00,2.5158
2484.00,2.5241
2483.00,2.5315
2482.00,2.5386
2481.00,2.5460
2480.00,2.5537
2479.00,2.5613
2478.00,2.5683
2477.00,2.5741
2476.00,2.5784
2475.00,2.5818
2474.00,2.5848
2473.00,2.5879
2472.00,2.5908
2471.00,2.5935
2470.00,2.5957
2469.00,2.5972
2468.00,2.5979
2467.00,2.5980
2466.00,2.5979
2465.00,2.5975
2464.00,2.5967
2463.00,2.5953
2462.00,2.5937
2461.00,2.5920
2460.00,2.5900
2459.00,2.5875
2458.00,2.5844
2457.00,2.5806
2456.00,2.5761
2455.00,2.5709
2454.00,2.5654
2453.00,2.5594
2452.00,2.5524
2451.00,2.5444
2450.00,2.5359
2449.00,2.5276
2448.00,2.5197
2447.00,2.5119
2446.00,2.5036
2445.00,2.4942
2444.00,2.4836
2443.00,2.4720
2442.00,2.4599
2441.00,2.4474
2440.00,2.4341
2439.00,2.4199
2438.00,2.4050
2437.00,2.3897
2436.00,2.3738
2435.00,2.3571
2434.00,2.3393
2433.00,2.3202
2432.00,2.2996
2431.00,2.2778
2430.00,2.2551
2429.00,2.2317
2428.00,2.2076
2427.00,2.1825
2426.00,2.1563
2425.00,2.1292
2424.00,2.1011
2423.00,2.0720
2422.00,2.0417
2421.00,2.0105
2420.00,1.9785
2419.00,1.9457
2418.00,1.9120
2417.00,1.8777
2416.00,1.8433
2415.00,1.8093
2414.00,1.7757
2413.00,1.7421
2412.00,1.7084
2411.00,1.6748
2410.00,1.6415
2409.00,1.6084
2408.00,1.5756
2407.00,1.5432
2406.00,1.5114
2405.00,1.4808
2404.00,1.4519
2403.00,1.4253
2402.00,1.4018
2401.00,1.3821
2400.00,1.3669
2399.00,1.3566
2398.00,1.3517
2397.00,1.3523
2396.00,1.3585
2395.00,1.3701
2394.00,1.3868
2393.00,1.4081
2392.00,1.4336
2391.00,1.4625
2390.00,1.4941
2389.00,1.5277
2388.00,1.5627
2387.00,1.5986
2386.00,1.6351
2385.00,1.6715
2384.00,1.7075
2383.00,1.7425
2382.00,1.7762
2381.00,1.8086
2380.00,1.8391
2379.00,1.8676
2378.00,1.8936
2377.00,1.9173
2376.00,1.9395
2375.00,1.9609
2374.00,1.9824
2373.00,2.0044
2372.00,2.0272
2371.00,2.0504
2370.00,2.0740
2369.00,2.0980
2368.00,2.1224
2367.00,2.1465
2366.00,2.1689
2365.00,2.1895
2364.00,2.2092
2363.00,2.2275
2362.00,2.2430
2361.00,2.2572
2360.00,2.2713
2359.00,2.2874
2358.00,2.3025
2357.00,2.3217
2356.00,2.3336
2355.00,2.3627
2354.00,2.3609
2353.00,2.4446
2352.00,2.6164
2351.00,2.5823
2350.00,2.6102
2349.00,2.6076
2348.00,2.6240
2347.00,2.6314
2346.00,2.6440
2345.00,2.6536
2344.00,2.6663
2343.00,2.6708
2342.00,2.6852
2341.00,2.6729
2340.00,2.7047
2339.00,2.6288
2338.00,2.5233
2337.00,2.5580
2336.00,2.5549
2335.00,2.5682
2334.00,2.5690
2333.00,2.5747
2332.00,2.5764
2331.00,2.5780
2330.00,2.5778
2329.00,2.5783
2328.00,2.5797
2327.00,2.5793
2326.00,2.5767
2325.00,2.5711
2324.00,2.5669
2323.00,2.5645
2322.00,2.5643
2321.00,2.5645
2320.00,2.5633
2319.00,2.5606
2318.00,2.5563
2317.00,2.5519
2316.00,2.5472
2315.00,2.5427
2314.00,2.5376
2313.00,2.5314
2312.00,2.5239
2311.00,2.5145
2310.00,2.5034
2309.00,2.4907
2308.00,2.4777
2307.00,2.4645
2306.00,2.4515
2305.00,2.4368
2304.00,2.4203
2303.00,2.4027
2302.00,2.3868
2301.00,2.3753
2300.00,2.3708
2299.00,2.3748
2298.00,2.3885
2297.00,2.4120
2296.00,2.4439
2295.00,2.4802
2294.00,2.5162
2293.00,2.5462
2292.00,2.5655
2291.00,2.5705
2290.00,2.5606
2289.00,2.5377
2288.00,2.5053
2287.00,2.4661
2286.00,2.4224
2285.00,2.3755
2284.00,2.3258
2283.00,2.2732
2282.00,2.2177
2281.00,2.1591
2280.00,2.0976
2279.00,2.0339
2278.00,1.9700
2277.00,1.9080
2276.00,1.8501
2275.00,1.7986
2274.00,1.7559
2273.00,1.7239
2272.00,1.7045
2271.00,1.6987
2270.00,1.7076
2269.00,1.7319
2268.00,1.7721
2267.00,1.8276
2266.00,1.8969
2265.00,1.9782
2264.00,2.0697
2263.00,2.1700
2262.00,2.2781
2261.00,2.3932
2260.00,2.5161
2259.00,2.6487
2258.00,2.7946
2257.00,2.9582
2256.00,3.1423
2255.00,3.3466
2254.00,3.5540
2253.00,3.7062
2252.00,3.7114
2251.00,3.5728
2250.00,3.3865
2249.00,3.2080
2248.00,3.0483
2247.00,2.9028
2246.00,2.7663
2245.00,2.6363
2244.00,2.5103
2243.00,2.3858
2242.00,2.2616
2241.00,2.1390
2240.00,2.0217
2239.00,1.9142
2238.00,1.8208
2237.00,1.7447
2236.00,1.6884
2235.00,1.6526
2234.00,1.6372
2233.00,1.6403
2232.00,1.6592
2231.00,1.6908
2230.00,1.7312
2229.00,1.7772
2228.00,1.8259
2227.00,1.8750
2226.00,1.9234
2225.00,1.9706
2224.00,2.0170
2223.00,2.0626
2222.00,2.1074
2221.00,2.1511
2220.00,2.1934
2219.00,2.2346
2218.00,2.2747
2217.00,2.3132
2216.00,2.3494
2215.00,2.3833
2214.00,2.4151
2213.00,2.4448
2212.00,2.4726
2211.00,2.4989
2210.00,2.5242
2209.00,2.5488
2208.00,2.5717
2207.00,2.5921
2206.00,2.6101
2205.00,2.6259
2204.00,2.6395
2203.00,2.6516
2202.00,2.6634
2201.00,2.6759
2200.00,2.6891
2199.00,2.7015
2198.00,2.7118
2197.00,2.7203
2196.00,2.7280
2195.00,2.7364
2194.00,2.7462
2193.00,2.7572
2192.00,2.7678
2191.00,2.7762
2190.00,2.7815
2189.00,2.7845
2188.00,2.7867
2187.00,2.7888
2186.00,2.7908
2185.00,2.7923
2184.00,2.7934
2183.00,2.7945
2182.00,2.7965
2181.00,2.7998
2180.00,2.8040
2179.00,2.8072
2178.00,2.8079
2177.00,2.8064
2176.00,2.8040
2175.00,2.8021
2174.00,2.8005
2173.00,2.7980
2172.00,2.7943
2171.00,2.7899
2170.00,2.7860
2169.00,2.7833
2168.00,2.7810
2167.00,2.7774
2166.00,2.7717
2165.00,2.7647
2164.00,2.7580
2163.00,2.7513
2162.00,2.7428
2161.00,2.7316
2160.00,2.7192
2159.00,2.7067
2158.00,2.6945
2157.00,2.6821
2156.00,2.6697
2155.00,2.6578
2154.00,2.6461
2153.00,2.6335
2152.00,2.6191
2151.00,2.6029
2150.00,2.5852
2149.00,2.5663
2148.00,2.5465
2147.00,2.5261
2146.00,2.5049
2145.00,2.4829
2144.00,2.4599
2143.00,2.4358
2142.00,2.4103
2141.00,2.3830
2140.00,2.3540
2139.00,2.3237
2138.00,2.2925
2137.00,2.2600
2136.00,2.2257
2135.00,2.1889
2134.00,2.1494
2133.00,2.1075
2132.00,2.0631
2131.00,2.0161
2130.00,1.9664
2129.00,1.9139
2128.00,1.8590
2127.00,1.8024
2126.00,1.7450
2125.00,1.6875
2124.00,1.6311
2123.00,1.5766
2122.00,1.5252
2121.00,1.4781
2120.00,1.4363
2119.00,1.4006
2118.00,1.3718
2117.00,1.3506
2116.00,1.3377
2115.00,1.3335
2114.00,1.3379
2113.00,1.3507
2112.00,1.3711
2111.00,1.3984
2110.00,1.4314
2109.00,1.4691
2108.00,1.5104
2107.00,1.5542
2106.00,1.5996
2105.00,1.6460
2104.00,1.6929
2103.00,1.7401
2102.00,1.7873
2101.00,1.8340
2100.00,1.8799
2099.00,1.9249
2098.00,1.9691
2097.00,2.0128
2096.00,2.0559
2095.00,2.0983
2094.00,2.1399
2093.00,2.1807
2092.00,2.2204
2091.00,2.2589
2090.00,2.2963
2089.00,2.3326
2088.00,2.3675
2087.00,2.4005
2086.00,2.4315
2085.00,2.4603
2084.00,2.4871
2083.00,2.5119
2082.00,2.5351
2081.00,2.5577
2080.00,2.5801
2079.00,2.6020
2078.00,2.6227
2077.00,2.6416
2076.00,2.6592
2075.00,2.6757
2074.00,2.6915
2073.00,2.7071
2072.00,2.7227
2071.00,2.7381
2070.00,2.7525
2069.00,2.7653
2068.00,2.7769
2067.00,2.7880
2066.00,2.7990
2065.00,2.8099
2064.00,2.8199
2063.00,2.8285
2062.00,2.8353
2061.00,2.8418
2060.00,2.8501
2059.00,2.8605
2058.00,2.8706
2057.00,2.8782
2056.00,2.8834
2055.00,2.8882
2054.00,2.8926
2053.00,2.8957
2052.00,2.8980
2051.00,2.9010
2050.00,2.9050
2049.00,2.9080
2048.00,2.9092
2047.00,2.9099
2046.00,2.9109
2045.00,2.9109
2044.00,2.9087
2043.00,2.9062
2042.00,2.9063
2041.00,2.9088
2040.00,2.9101
2039.00,2.9073
2038.00,2.9014
2037.00,2.8958
2036.00,2.8924
2035.00,2.8908
2034.00,2.8897
2033.00,2.8889
2032.00,2.8887
2031.00,2.8880
2030.00,2.8841
2029.00,2.8752
2028.00,2.8630
2027.00,2.8507
2026.00,2.8405
2025.00,2.8325
2024.00,2.8257
2023.00,2.8193
2022.00,2.8124
2021.00,2.8034
2020.00,2.7912
2019.00,2.7769
2018.00,2.7630
2017.00,2.7507
2016.00,2.7391
2015.00,2.7257
2014.00,2.7092
2013.00,2.6906
2012.00,2.6717
2011.00,2.6529
2010.00,2.6337
2009.00,2.6133
2008.00,2.5919
2007.00,2.5698
2006.00,2.5464
2005.00,2.5212
2004.00,2.4942
2003.00,2.4662
2002.00,2.4376
2001.00,2.4084
2000.00,2.3777
1999.00,2.3448
1998.00,2.3088
1997.00,2.2695
1996.00,2.2274
1995.00,2.1831
1994.00,2.1369
1993.00,2.0886
1992.00,2.0380
1991.00,1.9849
1990.00,1.9291
1989.00,1.8710
1988.00,1.8124
1987.00,1.7546
1986.00,1.6983
1985.00,1.6443
1984.00,1.5936
1983.00,1.5481
1982.00,1.5088
1981.00,1.4764
1980.00,1.4515
1979.00,1.4346
1978.00,1.4262
1977.00,1.4264
1976.00,1.4353
1975.00,1.4523
1974.00,1.4765
1973.00,1.5070
1972.00,1.5427
1971.00,1.5826
1970.00,1.6255
1969.00,1.6708
1968.00,1.7184
1967.00,1.7680
1966.00,1.8183
1965.00,1.8674
1964.00,1.9143
1963.00,1.9600
1962.00,2.0060
1961.00,2.0524
1960.00,2.0982
1959.00,2.1428
1958.00,2.1866
1957.00,2.2299
1956.00,2.2727
1955.00,2.3143
1954.00,2.3540
1953.00,2.3913
1952.00,2.4262
1951.00,2.4599
1950.00,2.4934
1949.00,2.5266
1948.00,2.5583
1947.00,2.5878
1946.00,2.6148
1945.00,2.6393
1944.00,2.6618
1943.00,2.6836
1942.00,2.7054
1941.00,2.7263
1940.00,2.7448
1939.00,2.7612
1938.00,2.7768
1937.00,2.7923
1936.00,2.8075
1935.00,2.8225
1934.00,2.8380
1933.00,2.8539
1932.00,2.8694
1931.00,2.8829
1930.00,2.8931
1929.00,2.9004
1928.00,2.9073
1927.00,2.9160
1926.00,2.9268
1925.00,2.9384
1924.00,2.9502
1923.00,2.9632
1922.00,2.9765
1921.00,2.9869
1920.00,2.9928
1919.00,2.9963
1918.00,2.9995
1917.00,3.0026
1916.00,3.0044
1915.00,3.0041
1914.00,3.0019
1913.00,2.9990
1912.00,2.9980
1911.00,3.0016
1910.00,3.0089
1909.00,3.0159
1908.00,3.0198
1907.00,3.0217
1906.00,3.0231
1905.00,3.0235
1904.00,3.0224
1903.00,3.0215
1902.00,3.0216
1901.00,3.0205
1900.00,3.0171
1899.00,3.0142
1898.00,3.0147
1897.00,3.0166
1896.00,3.0150
1895.00,3.0074
1894.00,2.9963
1893.00,2.9847
1892.00,2.9747
1891.00,2.9671
1890.00,2.9611
1889.00,2.9550
1888.00,2.9468
1887.00,2.9360
1886.00,2.9237
1885.00,2.9124
1884.00,2.9037
1883.00,2.8975
1882.00,2.8900
1881.00,2.8775
1880.00,2.8605
1879.00,2.8433
1878.00,2.8288
1877.00,2.8162
1876.00,2.8034
1875.00,2.7889
1874.00,2.7715
1873.00,2.7503
1872.00,2.7262
1871.00,2.7015
1870.00,2.6778
1869.00,2.6552
1868.00,2.6338
1867.00,2.6122
1866.00,2.5874
1865.00,2.5579
1864.00,2.5249
1863.00,2.4903
1862.00,2.4545
1861.00,2.4169
1860.00,2.3773
1859.00,2.3361
1858.00,2.2928
1857.00,2.2458
1856.00,2.1952
1855.00,2.1416
1854.00,2.0859
1853.00,2.0282
1852.00,1.9690
1851.00,1.9093
1850.00,1.8499
1849.00,1.7929
1848.00,1.7404
1847.00,1.6929
1846.00,1.6497
1845.00,1.6118
1844.00,1.5823
1843.00,1.5638
1842.00,1.5558
1841.00,1.5567
1840.00,1.5668
1839.00,1.5865
1838.00,1.6148
1837.00,1.6501
1836.00,1.6901
1835.00,1.7330
1834.00,1.7774
1833.00,1.8225
1832.00,1.8683
1831.00,1.9162
1830.00,1.9686
1829.00,2.0250
1828.00,2.0789
1827.00,2.1245
1826.00,2.1650
1825.00,2.2069
1824.00,2.2525
1823.00,2.2983
1822.00,2.3409
1821.00,2.3810
1820.00,2.4203
1819.00,2.4588
1818.00,2.4971
1817.00,2.5365
1816.00,2.5765
1815.00,2.6143
1814.00,2.6475
1813.00,2.6770
1812.00,2.7048
1811.00,2.7318
1810.00,2.7575
1809.00,2.7811
1808.00,2.8021
1807.00,2.8208
1806.00,2.8375
1805.00,2.8537
1804.00,2.8706
1803.00,2.8885
1802.00,2.9069
1801.00,2.9260
1800.00,2.9459
1799.00,2.9651
1798.00,2.9825
1797.00,2.9984
1796.00,3.0130
1795.00,3.0253
1794.00,3.0349
1793.00,3.0431
1792.00,3.0518
1791.00,3.0602
1790.00,3.0659
1789.00,3.0686
1788.00,3.0711
1787.00,3.0758
1786.00,3.0834
1785.00,3.0936
1784.00,3.1035
1783.00,3.1089
1782.00,3.1101
1781.00,3.1128
1780.00,3.1217
1779.00,3.1339
1778.00,3.1431
1777.00,3.1462
1776.00,3.1448
1775.00,3.1421
1774.00,3.1411
1773.00,3.1432
1772.00,3.1468
1771.00,3.1475
1770.00,3.1417
1769.00,3.1330
1768.00,3.1276
1767.00,3.1262
1766.00,3.1256
1765.00,3.1241
1764.00,3.1212
1763.00,3.1171
1762.00,3.1122
1761.00,3.1077
1760.00,3.1027
1759.00,3.0956
1758.00,3.0861
1757.00,3.0750
1756.00,3.0620
1755.00,3.0459
1754.00,3.0269
1753.00,3.0087
1752.00,2.9947
1751.00,2.9851
1750.00,2.9783
1749.00,2.9713
1748.00,2.9617
1747.00,2.9485
1746.00,2.9318
1745.00,2.9135
1744.00,2.8955
1743.00,2.8782
1742.00,2.8596
1741.00,2.8375
1740.00,2.8121
1739.00,2.7870
1738.00,2.7638
1737.00,2.7400
1736.00,2.7131
1735.00,2.6836
1734.00,2.6545
1733.00,2.6309
1732.00,2.6095
1731.00,2.5853
1730.00,2.5613
1729.00,2.5429
1728.00,2.5331
1727.00,2.5330
1726.00,2.5437
1725.00,2.5675
1724.00,2.6050
1723.00,2.6554
1722.00,2.7151
1721.00,2.7794
1720.00,2.8478
1719.00,2.9288
1718.00,3.0330
1717.00,3.1581
1716.00,3.2822
1715.00,3.3889
1714.00,3.4825
1713.00,3.5599
1712.00,3.6117
1711.00,3.6539
1710.00,3.7162
1709.00,3.7996
1708.00,3.8678
1707.00,3.8891
1706.00,3.8589
1705.00,3.7807
1704.00,3.6733
1703.00,3.5599
1702.00,3.4435
1701.00,3.3157
1700.00,3.1896
1699.00,3.0961
1698.00,3.0355
1697.00,2.9811
1696.00,2.9139
1695.00,2.8332
1694.00,2.7437
1693.00,2.6506
1692.00,2.5589
1691.00,2.4706
1690.00,2.3869
1689.00,2.3093
1688.00,2.2400
1687.00,2.1813
1686.00,2.1356
1685.00,2.1042
1684.00,2.0899
1683.00,2.0918
1682.00,2.0954
1681.00,2.1025
1680.00,2.1251
1679.00,2.1585
1678.00,2.1925
1677.00,2.2240
1676.00,2.2577
1675.00,2.2996
1674.00,2.3480
1673.00,2.3960
1672.00,2.4400
1671.00,2.4829
1670.00,2.5294
1669.00,2.5808
1668.00,2.6317
1667.00,2.6752
1666.00,2.7109
1665.00,2.7424
1664.00,2.7737
1663.00,2.8080
1662.00,2.8446
1661.00,2.8797
1660.00,2.9108
1659.00,2.9393
1658.00,2.9657
1657.00,2.9883
1656.00,3.0055
1655.00,3.0199
1654.00,3.0386
1653.00,3.0696
1652.00,3.1066
1651.00,3.1258
1650.00,3.1317
1649.00,3.1389
1648.00,3.1519
1647.00,3.1722
1646.00,3.1934
1645.00,3.2069
1644.00,3.2138
1643.00,3.2193
1642.00,3.2221
1641.00,3.2242
1640.00,3.2291
1639.00,3.2347
1638.00,3.2387
1637.00,3.2445
1636.00,3.2571
1635.00,3.2725
1634.00,3.2777
1633.00,3.2726
1632.00,3.2696
1631.00,3.2727
1630.00,3.2785
1629.00,3.2852
1628.00,3.2942
1627.00,3.3048
1626.00,3.3113
1625.00,3.3094
1624.00,3.3008
1623.00,3.2922
1622.00,3.2897
1621.00,3.2921
1620.00,3.2940
1619.00,3.2916
1618.00,3.2875
1617.00,3.2896
1616.00,3.3005
1615.00,3.3090
1614.00,3.3050
1613.00,3.2933
1612.00,3.2811
1611.00,3.2693
1610.00,3.2573
1609.00,3.2479
1608.00,3.2427
1607.00,3.2371
1606.00,3.2259
1605.00,3.2110
1604.00,3.1972
1603.00,3.1846
1602.00,3.1705
1601.00,3.1552
1600.00,3.1417
1599.00,3.1312
1598.00,3.1219
1597.00,3.1115
1596.00,3.0992
1595.00,3.0859
1594.00,3.0719
1593.00,3.0564
1592.00,3.0378
1591.00,3.0156
1590.00,2.9909
1589.00,2.9663
1588.00,2.9431
1587.00,2.9202
1586.00,2.8957
1585.00,2.8686
1584.00,2.8396
1583.00,2.8090
1582.00,2.7775
1581.00,2.7465
1580.00,2.7167
1579.00,2.6876
1578.00,2.6588
1577.00,2.6294
1576.00,2.5972
1575.00,2.5587
1574.00,2.5102
1573.00,2.4555
1572.00,2.4018
1571.00,2.3518
1570.00,2.3067
1569.00,2.2678
1568.00,2.2335
1567.00,2.2015
1566.00,2.1747
1565.00,2.1552
1564.00,2.1427
1563.00,2.1353
1562.00,2.1322
1561.00,2.1338
1560.00,2.1425
1559.00,2.1661
1558.00,2.2133
1557.00,2.2494
1556.00,2.2678
1555.00,2.2960
1554.00,2.3338
1553.00,2.3742
1552.00,2.4120
1551.00,2.4480
1550.00,2.4870
1549.00,2.5288
1548.00,2.5688
1547.00,2.6050
1546.00,2.6403
1545.00,2.6772
1544.00,2.7149
1543.00,2.7504
1542.00,2.7841
1541.00,2.8234
1540.00,2.8773
1539.00,2.9371
1538.00,2.9763
1537.00,2.9931
1536.00,3.0029
1535.00,3.0145
1534.00,3.0328
1533.00,3.0567
1532.00,3.0781
1531.00,3.0931
1530.00,3.1089
1529.00,3.1307
1528.00,3.1573
1527.00,3.1871
1526.00,3.2191
1525.00,3.2492
1524.00,3.2713
1523.00,3.2853
1522.00,3.2985
1521.00,3.3164
1520.00,3.3308
1519.00,3.3301
1518.00,3.3190
1517.00,3.3113
1516.00,3.3159
1515.00,3.3286
1514.00,3.3402
1513.00,3.3478
1512.00,3.3523
1511.00,3.3569
1510.00,3.3643
1509.00,3.3765
1508.00,3.3994
1507.00,3.4395
1506.00,3.4832
1505.00,3.4912
1504.00,3.4688
1503.00,3.4506
1502.00,3.4473
1501.00,3.4561
1500.00,3.4649
1499.00,3.4611
1498.00,3.4476
1497.00,3.4368
1496.00,3.4369
1495.00,3.4479
1494.00,3.4658
1493.00,3.4843
1492.00,3.4911
1491.00,3.4798
1490.00,3.4632
1489.00,3.4587
1488.00,3.4650
1487.00,3.4714
1486.00,3.4745
1485.00,3.4772
1484.00,3.4801
1483.00,3.4780
1482.00,3.4683
1481.00,3.4561
1480.00,3.4468
1479.00,3.4398
1478.00,3.4327
1477.00,3.4263
1476.00,3.4205
1475.00,3.4108
1474.00,3.3935
1473.00,3.3754
1472.00,3.3685
1471.00,3.3732
1470.00,3.3810
1469.00,3.3885
1468.00,3.3964
1467.00,3.4049
1466.00,3.4103
1465.00,3.4058
1464.00,3.3894
1463.00,3.3717
1462.00,3.3672
1461.00,3.3810
1460.00,3.4061
1459.00,3.4298
1458.00,3.4424
1457.00,3.4461
1456.00,3.4506
1455.00,3.4626
1454.00,3.4849
1453.00,3.5113
1452.00,3.5353
1451.00,3.5592
1450.00,3.5885
1449.00,3.6260
1448.00,3.6664
1447.00,3.6908
1446.00,3.6842
1445.00,3.6650
1444.00,3.6531
1443.00,3.6474
1442.00,3.6423
1441.00,3.6341
1440.00,3.6247
1439.00,3.6209
1438.00,3.6256
1437.00,3.6283
1436.00,3.6105
1435.00,3.5756
1434.00,3.5461
1433.00,3.5300
1432.00,3.5193
1431.00,3.5079
1430.00,3.4998
1429.00,3.5009
1428.00,3.5114
1427.00,3.5276
1426.00,3.5440
1425.00,3.5549
1424.00,3.5535
1423.00,3.5405
1422.00,3.5244
1421.00,3.5131
1420.00,3.5073
1419.00,3.5037
1418.00,3.4995
1417.00,3.4910
1416.00,3.4753
1415.00,3.4542
1414.00,3.4313
1413.00,3.4107
1412.00,3.3943
1411.00,3.3810
1410.00,3.3694
1409.00,3.3600
1408.00,3.3528
1407.00,3.3455
1406.00,3.3328
1405.00,3.3119
1404.00,3.2844
1403.00,3.2539
1402.00,3.2230
1401.00,3.1932
1400.00,3.1669
1399.00,3.1488
1398.00,3.1409
1397.00,3.1410
1396.00,3.1475
1395.00,3.1599
1394.00,3.1752
1393.00,3.1881
1392.00,3.1961
1391.00,3.2017
1390.00,3.2081
1389.00,3.2166
1388.00,3.2298
1387.00,3.2525
1386.00,3.2874
1385.00,3.3327
1384.00,3.3843
1383.00,3.4380
1382.00,3.4912
1381.00,3.5460
1380.00,3.6053
1379.00,3.6657
1378.00,3.7169
1377.00,3.7501
1376.00,3.7646
1375.00,3.7620
1374.00,3.7359
1373.00,3.6744
1372.00,3.5799
1371.00,3.4748
1370.00,3.3796
1369.00,3.3031
1368.00,3.2463
1367.00,3.2095
1366.00,3.1933
1365.00,3.1967
1364.00,3.2144
1363.00,3.2385
1362.00,3.2619
1361.00,3.2799
1360.00,3.2922
1359.00,3.3007
1358.00,3.3083
1357.00,3.3193
1356.00,3.3381
1355.00,3.3672
1354.00,3.4041
1353.00,3.4423
1352.00,3.4759
1351.00,3.5017
1350.00,3.5178
1349.00,3.5244
1348.00,3.5238
1347.00,3.5216
1346.00,3.5246
1345.00,3.5358
1344.00,3.5528
1343.00,3.5720
1342.00,3.5910
1341.00,3.6058
1340.00,3.6132
1339.00,3.6161
1338.00,3.6186
1337.00,3.6209
1336.00,3.6197
1335.00,3.6150
1334.00,3.6141
1333.00,3.6237
1332.00,3.6408
1331.00,3.6524
1330.00,3.6474
1329.00,3.6269
1328.00,3.6015
1327.00,3.5809
1326.00,3.5683
1325.00,3.5599
1324.00,3.5483
1323.00,3.5326
1322.00,3.5218
1321.00,3.5244
1320.00,3.5378
1319.00,3.5506
1318.00,3.5553
1317.00,3.5578
1316.00,3.5705
1315.00,3.5982
1314.00,3.6309
1313.00,3.6473
1312.00,3.6372
1311.00,3.6167
1310.00,3.6103
1309.00,3.6263
1308.00,3.6502
1307.00,3.6594
1306.00,3.6424
1305.00,3.6058
1304.00,3.5678
1303.00,3.5410
1302.00,3.5265
1301.00,3.5189
1300.00,3.5109
1299.00,3.4961
1298.00,3.4737
1297.00,3.4491
1296.00,3.4290
1295.00,3.4150
1294.00,3.4017
1293.00,3.3828
1292.00,3.3583
1291.00,3.3318
1290.00,3.3035
1289.00,3.2703
1288.00,3.2339
1287.00,3.2018
1286.00,3.1781
1285.00,3.1577
1284.00,3.1310
1283.00,3.0952
1282.00,3.0564
1281.00,3.0214
1280.00,2.9915
1279.00,2.9642
1278.00,2.9364
1277.00,2.9058
1276.00,2.8704
1275.00,2.8308
1274.00,2.7885
1273.00,2.7440
1272.00,2.6962
1271.00,2.6448
1270.00,2.5928
1269.00,2.5439
1268.00,2.4994
1267.00,2.4586
1266.00,2.4203
1265.00,2.3850
1264.00,2.3546
1263.00,2.3319
1262.00,2.3195
1261.00,2.3190
1260.00,2.3306
1259.00,2.3538
1258.00,2.3876
1257.00,2.4306
1256.00,2.4815
1255.00,2.5386
1254.00,2.5995
1253.00,2.6619
1252.00,2.7238
1251.00,2.7841
1250.00,2.8412
1249.00,2.8927
1248.00,2.9377
1247.00,2.9793
1246.00,3.0239
1245.00,3.0751
1244.00,3.1301
1243.00,3.1818
1242.00,3.2266
1241.00,3.2663
1240.00,3.3030
1239.00,3.3350
1238.00,3.3596
1237.00,3.3786
1236.00,3.3997
1235.00,3.4332
1234.00,3.4844
1233.00,3.5448
1232.00,3.5929
1231.00,3.6133
1230.00,3.6194
1229.00,3.6328
1228.00,3.6513
1227.00,3.6531
1226.00,3.6323
1225.00,3.6108
1224.00,3.6085
1223.00,3.6248
1222.00,3.6448
1221.00,3.6571
1220.00,3.6639
1219.00,3.6701
1218.00,3.6801
1217.00,3.7041
1216.00,3.7458
1215.00,3.7792
1214.00,3.7633
1213.00,3.7089
1212.00,3.6666
1211.00,3.6670
1210.00,3.7142
1209.00,3.7883
1208.00,3.8477
1207.00,3.8617
1206.00,3.8503
1205.00,3.8471
1204.00,3.8572
1203.00,3.8673
1202.00,3.8652
1201.00,3.8469
1200.00,3.8128
1199.00,3.7686
1198.00,3.7344
1197.00,3.7289
1196.00,3.7464
1195.00,3.7649
1194.00,3.7706
1193.00,3.7645
1192.00,3.7562
1191.00,3.7598
1190.00,3.7873
1189.00,3.8312
1188.00,3.8542
1187.00,3.8283
1186.00,3.7762
1185.00,3.7379
1184.00,3.7321
1183.00,3.7585
1182.00,3.7993
1181.00,3.8224
1180.00,3.8209
1179.00,3.8164
1178.00,3.8312
1177.00,3.8692
1176.00,3.8904
1175.00,3.8437
1174.00,3.7540
1173.00,3.6815
1172.00,3.6473
1171.00,3.6373
1170.00,3.6339
1169.00,3.6398
1168.00,3.6690
1167.00,3.7204
1166.00,3.7703
1165.00,3.7900
1164.00,3.7735
1163.00,3.7484
1162.00,3.7402
1161.00,3.7283
1160.00,3.6787
1159.00,3.6106
1158.00,3.5593
1157.00,3.5356
1156.00,3.5246
1155.00,3.4995
1154.00,3.4521
1153.00,3.4024
1152.00,3.3722
1151.00,3.3645
1150.00,3.3635
1149.00,3.3468
1148.00,3.3076
1147.00,3.2588
1146.00,3.2157
1145.00,3.1816
1144.00,3.1478
1143.00,3.1057
1142.00,3.0590
1141.00,3.0177
1140.00,2.9843
1139.00,2.9501
1138.00,2.9057
1137.00,2.8531
1136.00,2.8038
1135.00,2.7673
1134.00,2.7448
1133.00,2.7315
1132.00,2.7247
1131.00,2.7275
1130.00,2.7461
1129.00,2.7830
1128.00,2.8328
1127.00,2.8866
1126.00,2.9410
1125.00,3.0019
1124.00,3.0753
1123.00,3.1565
1122.00,3.2256
1121.00,3.2603
1120.00,3.2576
1119.00,3.2359
1118.00,3.2175
1117.00,3.2158
1116.00,3.2324
1115.00,3.2606
1114.00,3.2909
1113.00,3.3155
1112.00,3.3290
1111.00,3.3342
1110.00,3.3464
1109.00,3.3847
1108.00,3.4534
1107.00,3.5336
1106.00,3.5980
1105.00,3.6458
1104.00,3.6984
1103.00,3.7514
1102.00,3.7650
1101.00,3.7302
1100.00,3.6953
1099.00,3.7007
1098.00,3.7570
1097.00,3.8544
1096.00,3.9620
1095.00,4.0320
1094.00,4.0317
1093.00,3.9713
1092.00,3.8908
1091.00,3.8342
1090.00,3.8316
1089.00,3.8975
1088.00,4.0322
1087.00,4.1853
1086.00,4.2255
1085.00,4.1521
1084.00,4.0741
1083.00,4.0418
1082.00,4.0749
1081.00,4.1785
1080.00,4.2692
1079.00,4.2101
1078.00,4.1162
1077.00,4.0909
1076.00,4.1433
1075.00,4.2237
1074.00,4.2310
1073.00,4.2306
1072.00,4.3356
1071.00,4.5166
1070.00,4.4880
1069.00,4.2629
1068.00,4.1267
1067.00,4.0944
1066.00,4.1188
1065.00,4.1619
1064.00,4.1905
1063.00,4.2058
1062.00,4.2507
1061.00,4.4273
1060.00,4.7411
1059.00,4.5592
1058.00,4.2995
1057.00,4.1407
1056.00,4.0256
1055.00,3.9112
1054.00,3.8274
1053.00,3.8216
1052.00,3.9114
1051.00,4.0867
1050.00,4.3108
1049.00,4.5589
1048.00,4.4374
1047.00,4.2572
1046.00,4.2887
1045.00,4.5304
1044.00,4.5517
1043.00,4.1773
1042.00,4.0241
1041.00,4.0228
1040.00,4.0884
1039.00,4.1276
1038.00,4.1334
1037.00,4.1676
1036.00,4.2388
1035.00,4.4032
1034.00,4.4406
1033.00,4.2180
1032.00,4.1862
1031.00,4.4067
1030.00,4.3259
1029.00,3.9967
1028.00,3.8433
1027.00,3.8010
1026.00,3.8362
1025.00,3.9385
1024.00,4.0648
1023.00,4.1424
1022.00,4.1464
1021.00,4.1042
1020.00,4.0278
1019.00,3.9497
1018.00,3.9021
1017.00,3.8924
1016.00,3.9012
1015.00,3.9114
1014.00,3.9357
1013.00,3.9616
1012.00,3.9209
1011.00,3.8085
1010.00,3.7116
1009.00,3.6857
1008.00,3.7278
1007.00,3.7912
1006.00,3.8103
1005.00,3.7666
1004.00,3.7002
1003.00,3.6545
1002.00,3.6554
1001.00,3.7039
1000.00,3.7779
999.00,3.8544
998.00,3.9142
997.00,3.9497
996.00,3.9750
995.00,3.9858
994.00,3.9579
993.00,3.8889
992.00,3.8013
991.00,3.7140
990.00,3.6417
989.00,3.5916
988.00,3.5560
987.00,3.5225
986.00,3.4829
985.00,3.4355
984.00,3.3869
983.00,3.3480
982.00,3.3268
981.00,3.3241
980.00,3.3328
979.00,3.3480
978.00,3.3746
977.00,3.4144
976.00,3.4582
975.00,3.5031
974.00,3.5651
973.00,3.6633
972.00,3.7990
971.00,3.9329
970.00,3.9967
969.00,4.0005
968.00,4.0195
967.00,4.1166
966.00,4.3137
965.00,4.6510
964.00,4.9176
963.00,4.5566
962.00,4.3254
961.00,4.3276
960.00,4.5020
959.00,4.3919
958.00,4.1994
957.00,4.1768
956.00,4.2622
955.00,4.4111
954.00,4.5170
953.00,4.6376
952.00,4.7156
951.00,4.4395
950.00,4.2629
949.00,4.2196
948.00,4.1445
947.00,4.0259
946.00,3.9605
945.00,3.9624
944.00,4.0040
943.00,4.0707
942.00,4.1170
941.00,4.0803
940.00,4.0234
939.00,4.0379
938.00,4.1137
937.00,4.1201
936.00,4.0541
935.00,4.0728
934.00,4.1984
933.00,4.2273
932.00,4.1797
931.00,4.1783
930.00,4.0719
929.00,3.9382
928.00,3.8746
927.00,3.8417
926.00,3.8536
925.00,3.9361
924.00,4.1898
923.00,4.7128
922.00,4.4008
921.00,4.1075
920.00,3.9906
919.00,3.9936
918.00,4.1545
917.00,4.3425
916.00,4.3327
915.00,4.2778
914.00,4.2254
913.00,4.1777
912.00,4.2091
911.00,4.2302
910.00,4.1685
909.00,4.1707
908.00,4.2072
907.00,4.1452
906.00,4.1192
905.00,4.2372
904.00,4.4059
903.00,4.4460
902.00,4.5636
901.00,4.7367
900.00,4.7112
899.00,4.4911
898.00,4.2261
897.00,4.0945
896.00,4.0706
895.00,4.1329
894.00,4.3098
893.00,4.4728
892.00,4.4263
891.00,4.3046
890.00,4.1333
889.00,4.0041
888.00,3.9420
887.00,3.9218
886.00,3.9510
885.00,4.0408
884.00,4.1674
883.00,4.2104
882.00,4.1342
881.00,4.0739
880.00,4.0977
879.00,4.1712
878.00,4.2466
877.00,4.3774
876.00,4.5745
875.00,4.5745
874.00,4.3158
873.00,4.0726
872.00,3.9083
871.00,3.8264
870.00,3.8309
869.00,3.8970
868.00,3.9619
867.00,3.9724
866.00,3.9261
865.00,3.8953
864.00,3.9327
863.00,4.0514
862.00,4.2688
861.00,4.3932
860.00,4.3635
859.00,4.3568
858.00,4.2961
857.00,4.2891
856.00,4.3287
855.00,4.2895
854.00,4.1990
853.00,4.1213
852.00,4.0642
851.00,3.9966
850.00,3.9401
849.00,3.9283
848.00,3.9639
847.00,4.0638
846.00,4.2576
845.00,4.5139
844.00,4.7294
843.00,4.9973
842.00,5.0208
841.00,4.4851
840.00,4.1337
839.00,3.9544
838.00,3.8919
837.00,3.9129
836.00,3.9976
835.00,4.1191
834.00,4.3211
833.00,4.5764
832.00,4.4764
831.00,4.3636
830.00,4.3161
829.00,4.1638
828.00,3.9714
827.00,3.8128
826.00,3.7053
825.00,3.6560
824.00,3.6791
823.00,3.7847
822.00,3.9670
821.00,4.2110
820.00,4.6415
819.00,4.9811
818.00,4.6431
817.00,4.4923
816.00,4.3624
815.00,4.2887
814.00,4.4131
813.00,4.4795
812.00,4.1240
811.00,3.9022
810.00,3.8284
809.00,3.8438
808.00,3.9561
807.00,4.1309
806.00,4.1966
805.00,4.1195
804.00,4.0471
803.00,4.0003
802.00,3.9868
801.00,3.9983
800.00,4.0092
799.00,4.0120
798.00,4.0101
797.00,4.0489
796.00,4.1547
795.00,4.3593
794.00,4.6457
793.00,4.3359
792.00,4.0072
791.00,3.8843
790.00,3.8786
789.00,3.9404
788.00,4.0294
787.00,4.1397
786.00,4.2055
785.00,4.1177
784.00,3.9652
783.00,3.9061
782.00,3.9289
781.00,4.1049
780.00,4.3734
779.00,4.0945
778.00,3.9212
777.00,3.9173
776.00,3.9274
775.00,3.9097
774.00,3.8872
773.00,3.8972
772.00,3.9032
771.00,3.8923
770.00,3.8897
769.00,3.9357
768.00,4.0347
767.00,4.1791
766.00,4.3420
765.00,4.3549
764.00,4.1526
763.00,4.0065
762.00,3.9357
761.00,4.0252
760.00,4.4152
759.00,4.2718
758.00,3.9549
757.00,3.9094
756.00,3.9588
755.00,3.9655
754.00,3.8939
753.00,3.8207
752.00,3.7911
751.00,3.8363
750.00,3.9956
749.00,4.1839
748.00,4.3009
747.00,4.3071
746.00,4.1834
745.00,4.1622
744.00,4.3106
743.00,4.6495
742.00,4.5486
741.00,4.1885
740.00,4.2011
739.00,4.3999
738.00,4.0892
737.00,3.8210
736.00,3.7342
735.00,3.7389
734.00,3.8040
733.00,3.8899
732.00,4.0256
731.00,4.1902
730.00,4.5151
729.00,5.2373
728.00,5.1443
727.00,5.2036
726.00,4.4182
725.00,4.2244
724.00,4.3489
723.00,4.1755
722.00,4.0228
721.00,4.0242
720.00,4.2629
719.00,4.7648
718.00,4.1830
717.00,3.8763
716.00,3.7634
715.00,3.7228
714.00,3.7252
713.00,3.7318
712.00,3.7612
711.00,3.8278
710.00,3.8876
709.00,3.9209
708.00,3.9116
707.00,4.0541
706.00,4.5367
705.00,4.2709
704.00,4.1134
703.00,4.2909
702.00,4.6491
701.00,4.9093
700.00,4.4578
