Created as New Dataset,Sample 010 By Administrator Date Wednesday, November 24 2021
cm-1,A
7502.00,0.8380
7501.00,0.8406
7500.00,0.8421
7499.00,0.8430
7498.00,0.8439
7497.00,0.8453
7496.00,0.8468
7495.00,0.8480
7494.00,0.8485
7493.00,0.8480
7492.00,0.8468
7491.00,0.8456
7490.00,0.8451
7489.00,0.8448
7488.00,0.8436
7487.00,0.8414
7486.00,0.8389
7485.00,0.8369
7484.00,0.8349
7483.00,0.8320
7482.00,0.8278
7481.00,0.8231
7480.00,0.8188
7479.00,0.8150
7478.00,0.8107
7477.00,0.8052
7476.00,0.7989
7475.00,0.7926
7474.00,0.7868
7473.00,0.7811
7472.00,0.7749
7471.00,0.7683
7470.00,0.7622
7469.00,0.7565
7468.00,0.7505
7467.00,0.7435
7466.00,0.7355
7465.00,0.7275
7464.00,0.7198
7463.00,0.7124
7462.00,0.7050
7461.00,0.6978
7460.00,0.6909
7459.00,0.6840
7458.00,0.6771
7457.00,0.6700
7456.00,0.6628
7455.00,0.6554
7454.00,0.6480
7453.00,0.6408
7452.00,0.6338
7451.00,0.6270
7450.00,0.6203
7449.00,0.6138
7448.00,0.6074
7447.00,0.6013
7446.00,0.5956
7445.00,0.5904
7444.00,0.5855
7443.00,0.5811
7442.00,0.5770
7441.00,0.5732
7440.00,0.5694
7439.00,0.5657
7438.00,0.5625
7437.00,0.5599
7436.00,0.5578
7435.00,0.5562
7434.00,0.5551
7433.00,0.5546
7432.00,0.5547
7431.00,0.5552
7430.00,0.5559
7429.00,0.5569
7428.00,0.5584
7427.00,0.5602
7426.00,0.5625
7425.00,0.5652
7424.00,0.5681
7423.00,0.5711
7422.00,0.5741
7421.00,0.5777
7420.00,0.5821
7419.00,0.5874
7418.00,0.5932
7417.00,0.5992
7416.00,0.6056
7415.00,0.6126
7414.00,0.6199
7413.00,0.6273
7412.00,0.6343
7411.00,0.6411
7410.00,0.6481
7409.00,0.6556
7408.00,0.6637
7407.00,0.6722
7406.00,0.6809
7405.00,0.6896
7404.00,0.6981
7403.00,0.7064
7402.00,0.7149
7401.00,0.7237
7400.00,0.7325
7399.00,0.7411
7398.00,0.7494
7397.00,0.7574
7396.00,0.7656
7395.00,0.7739
7394.00,0.7823
7393.00,0.7905
7392.00,0.7986
7391.00,0.8066
7390.00,0.8147
7389.00,0.8228
7388.00,0.8306
7387.00,0.8378
7386.00,0.8449
7385.00,0.8521
7384.00,0.8592
7383.00,0.8662
7382.00,0.8735
7381.00,0.8812
7380.00,0.8890
7379.00,0.8964
7378.00,0.9029
7377.00,0.9081
7376.00,0.9121
7375.00,0.9154
7374.00,0.9184
7373.00,0.9213
7372.00,0.9239
7371.00,0.9259
7370.00,0.9282
7369.00,0.9311
7368.00,0.9347
7367.00,0.9382
7366.00,0.9411
7365.00,0.9434
7364.00,0.9452
7363.00,0.9465
7362.00,0.9475
7361.00,0.9485
7360.00,0.9498
7359.00,0.9507
7358.00,0.9510
7357.00,0.9505
7356.00,0.9499
7355.00,0.9498
7354.00,0.9501
7353.00,0.9506
7352.00,0.9507
7351.00,0.9502
7350.00,0.9486
7349.00,0.9454
7348.00,0.9405
7347.00,0.9340
7346.00,0.9268
7345.00,0.9202
7344.00,0.9149
7343.00,0.9109
7342.00,0.9077
7341.00,0.9047
7340.00,0.9014
7339.00,0.8975
7338.00,0.8923
7337.00,0.8855
7336.00,0.8776
7335.00,0.8695
7334.00,0.8617
7333.00,0.8541
7332.00,0.8464
7331.00,0.8389
7330.00,0.8318
7329.00,0.8250
7328.00,0.8184
7327.00,0.8117
7326.00,0.8050
7325.00,0.7984
7324.00,0.7918
7323.00,0.7851
7322.00,0.7782
7321.00,0.7713
7320.00,0.7643
7319.00,0.7576
7318.00,0.7512
7317.00,0.7451
7316.00,0.7394
7315.00,0.7339
7314.00,0.7285
7313.00,0.7228
7312.00,0.7169
7311.00,0.7107
7310.00,0.7043
7309.00,0.6977
7308.00,0.6909
7307.00,0.6842
7306.00,0.6782
7305.00,0.6731
7304.00,0.6688
7303.00,0.6648
7302.00,0.6609
7301.00,0.6574
7300.00,0.6542
7299.00,0.6513
7298.00,0.6486
7297.00,0.6460
7296.00,0.6436
7295.00,0.6413
7294.00,0.6394
7293.00,0.6381
7292.00,0.6373
7291.00,0.6370
7290.00,0.6370
7289.00,0.6375
7288.00,0.6387
7287.00,0.6406
7286.00,0.6430
7285.00,0.6458
7284.00,0.6489
7283.00,0.6524
7282.00,0.6565
7281.00,0.6611
7280.00,0.6662
7279.00,0.6714
7278.00,0.6767
7277.00,0.6823
7276.00,0.6881
7275.00,0.6941
7274.00,0.7004
7273.00,0.7071
7272.00,0.7141
7271.00,0.7213
7270.00,0.7288
7269.00,0.7366
7268.00,0.7445
7267.00,0.7524
7266.00,0.7603
7265.00,0.7685
7264.00,0.7770
7263.00,0.7858
7262.00,0.7948
7261.00,0.8042
7260.00,0.8137
7259.00,0.8232
7258.00,0.8326
7257.00,0.8418
7256.00,0.8505
7255.00,0.8586
7254.00,0.8663
7253.00,0.8742
7252.00,0.8822
7251.00,0.8902
7250.00,0.8978
7249.00,0.9055
7248.00,0.9136
7247.00,0.9221
7246.00,0.9303
7245.00,0.9379
7244.00,0.9450
7243.00,0.9522
7242.00,0.9597
7241.00,0.9675
7240.00,0.9752
7239.00,0.9827
7238.00,0.9898
7237.00,0.9965
7236.00,1.0027
7235.00,1.0087
7234.00,1.0143
7233.00,1.0196
7232.00,1.0246
7231.00,1.0296
7230.00,1.0345
7229.00,1.0391
7228.00,1.0432
7227.00,1.0468
7226.00,1.0498
7225.00,1.0520
7224.00,1.0535
7223.00,1.0550
7222.00,1.0568
7221.00,1.0588
7220.00,1.0604
7219.00,1.0615
7218.00,1.0628
7217.00,1.0645
7216.00,1.0659
7215.00,1.0662
7214.00,1.0653
7213.00,1.0635
7212.00,1.0615
7211.00,1.0593
7210.00,1.0569
7209.00,1.0542
7208.00,1.0518
7207.00,1.0499
7206.00,1.0483
7205.00,1.0464
7204.00,1.0436
7203.00,1.0396
7202.00,1.0350
7201.00,1.0300
7200.00,1.0244
7199.00,1.0183
7198.00,1.0119
7197.00,1.0059
7196.00,1.0002
7195.00,0.9944
7194.00,0.9879
7193.00,0.9811
7192.00,0.9743
7191.00,0.9674
7190.00,0.9599
7189.00,0.9517
7188.00,0.9432
7187.00,0.9349
7186.00,0.9267
7185.00,0.9183
7184.00,0.9096
7183.00,0.9011
7182.00,0.8931
7181.00,0.8853
7180.00,0.8772
7179.00,0.8686
7178.00,0.8599
7177.00,0.8513
7176.00,0.8429
7175.00,0.8344
7174.00,0.8259
7173.00,0.8174
7172.00,0.8091
7171.00,0.8010
7170.00,0.7932
7169.00,0.7857
7168.00,0.7785
7167.00,0.7714
7166.00,0.7646
7165.00,0.7584
7164.00,0.7526
7163.00,0.7470
7162.00,0.7414
7161.00,0.7359
7160.00,0.7307
7159.00,0.7262
7158.00,0.7224
7157.00,0.7188
7156.00,0.7155
7155.00,0.7125
7154.00,0.7100
7153.00,0.7081
7152.00,0.7067
7151.00,0.7059
7150.00,0.7058
7149.00,0.7065
7148.00,0.7076
7147.00,0.7093
7146.00,0.7113
7145.00,0.7138
7144.00,0.7166
7143.00,0.7197
7142.00,0.7232
7141.00,0.7272
7140.00,0.7317
7139.00,0.7365
7138.00,0.7418
7137.00,0.7477
7136.00,0.7538
7135.00,0.7596
7134.00,0.7652
7133.00,0.7711
7132.00,0.7777
7131.00,0.7846
7130.00,0.7916
7129.00,0.7987
7128.00,0.8062
7127.00,0.8144
7126.00,0.8230
7125.00,0.8315
7124.00,0.8397
7123.00,0.8478
7122.00,0.8561
7121.00,0.8646
7120.00,0.8730
7119.00,0.8811
7118.00,0.8891
7117.00,0.8973
7116.00,0.9057
7115.00,0.9144
7114.00,0.9231
7113.00,0.9315
7112.00,0.9397
7111.00,0.9477
7110.00,0.9558
7109.00,0.9640
7108.00,0.9721
7107.00,0.9798
7106.00,0.9872
7105.00,0.9946
7104.00,1.0020
7103.00,1.0092
7102.00,1.0159
7101.00,1.0220
7100.00,1.0279
7099.00,1.0338
7098.00,1.0400
7097.00,1.0462
7096.00,1.0520
7095.00,1.0575
7094.00,1.0628
7093.00,1.0681
7092.00,1.0731
7091.00,1.0775
7090.00,1.0813
7089.00,1.0849
7088.00,1.0882
7087.00,1.0911
7086.00,1.0935
7085.00,1.0954
7084.00,1.0969
7083.00,1.0980
7082.00,1.0987
7081.00,1.0993
7080.00,1.0999
7079.00,1.1005
7078.00,1.1007
7077.00,1.1003
7076.00,1.0993
7075.00,1.0979
7074.00,1.0961
7073.00,1.0940
7072.00,1.0916
7071.00,1.0894
7070.00,1.0875
7069.00,1.0856
7068.00,1.0831
7067.00,1.0799
7066.00,1.0760
7065.00,1.0716
7064.00,1.0669
7063.00,1.0617
7062.00,1.0562
7061.00,1.0504
7060.00,1.0444
7059.00,1.0383
7058.00,1.0321
7057.00,1.0256
7056.00,1.0189
7055.00,1.0119
7054.00,1.0047
7053.00,0.9970
7052.00,0.9887
7051.00,0.9802
7050.00,0.9719
7049.00,0.9637
7048.00,0.9554
7047.00,0.9468
7046.00,0.9382
7045.00,0.9297
7044.00,0.9212
7043.00,0.9124
7042.00,0.9032
7041.00,0.8939
7040.00,0.8845
7039.00,0.8752
7038.00,0.8661
7037.00,0.8572
7036.00,0.8484
7035.00,0.8396
7034.00,0.8313
7033.00,0.8234
7032.00,0.8159
7031.00,0.8084
7030.00,0.8007
7029.00,0.7931
7028.00,0.7857
7027.00,0.7784
7026.00,0.7714
7025.00,0.7648
7024.00,0.7589
7023.00,0.7533
7022.00,0.7482
7021.00,0.7435
7020.00,0.7393
7019.00,0.7355
7018.00,0.7320
7017.00,0.7288
7016.00,0.7258
7015.00,0.7232
7014.00,0.7211
7013.00,0.7197
7012.00,0.7187
7011.00,0.7182
7010.00,0.7182
7009.00,0.7187
7008.00,0.7197
7007.00,0.7212
7006.00,0.7230
7005.00,0.7254
7004.00,0.7281
7003.00,0.7312
7002.00,0.7349
7001.00,0.7391
7000.00,0.7437
6999.00,0.7485
6998.00,0.7536
6997.00,0.7592
6996.00,0.7651
6995.00,0.7713
6994.00,0.7777
6993.00,0.7845
6992.00,0.7917
6991.00,0.7990
6990.00,0.8065
6989.00,0.8143
6988.00,0.8224
6987.00,0.8308
6986.00,0.8392
6985.00,0.8475
6984.00,0.8555
6983.00,0.8635
6982.00,0.8719
6981.00,0.8808
6980.00,0.8896
6979.00,0.8984
6978.00,0.9073
6977.00,0.9166
6976.00,0.9261
6975.00,0.9354
6974.00,0.9440
6973.00,0.9520
6972.00,0.9597
6971.00,0.9678
6970.00,0.9764
6969.00,0.9852
6968.00,0.9937
6967.00,1.0017
6966.00,1.0096
6965.00,1.0177
6964.00,1.0256
6963.00,1.0331
6962.00,1.0404
6961.00,1.0476
6960.00,1.0549
6959.00,1.0622
6958.00,1.0693
6957.00,1.0762
6956.00,1.0824
6955.00,1.0879
6954.00,1.0930
6953.00,1.0984
6952.00,1.1041
6951.00,1.1100
6950.00,1.1154
6949.00,1.1201
6948.00,1.1241
6947.00,1.1275
6946.00,1.1305
6945.00,1.1329
6944.00,1.1349
6943.00,1.1363
6942.00,1.1375
6941.00,1.1388
6940.00,1.1404
6939.00,1.1424
6938.00,1.1444
6937.00,1.1459
6936.00,1.1466
6935.00,1.1465
6934.00,1.1461
6933.00,1.1455
6932.00,1.1444
6931.00,1.1426
6930.00,1.1403
6929.00,1.1379
6928.00,1.1356
6927.00,1.1331
6926.00,1.1299
6925.00,1.1264
6924.00,1.1224
6923.00,1.1184
6922.00,1.1144
6921.00,1.1102
6920.00,1.1056
6919.00,1.1001
6918.00,1.0937
6917.00,1.0869
6916.00,1.0799
6915.00,1.0726
6914.00,1.0651
6913.00,1.0576
6912.00,1.0501
6911.00,1.0423
6910.00,1.0345
6909.00,1.0264
6908.00,1.0180
6907.00,1.0093
6906.00,1.0004
6905.00,0.9917
6904.00,0.9831
6903.00,0.9744
6902.00,0.9655
6901.00,0.9563
6900.00,0.9471
6899.00,0.9376
6898.00,0.9279
6897.00,0.9181
6896.00,0.9084
6895.00,0.8988
6894.00,0.8896
6893.00,0.8807
6892.00,0.8720
6891.00,0.8633
6890.00,0.8546
6889.00,0.8462
6888.00,0.8382
6887.00,0.8304
6886.00,0.8228
6885.00,0.8157
6884.00,0.8090
6883.00,0.8026
6882.00,0.7965
6881.00,0.7907
6880.00,0.7853
6879.00,0.7803
6878.00,0.7758
6877.00,0.7717
6876.00,0.7682
6875.00,0.7652
6874.00,0.7625
6873.00,0.7602
6872.00,0.7584
6871.00,0.7572
6870.00,0.7566
6869.00,0.7564
6868.00,0.7567
6867.00,0.7574
6866.00,0.7589
6865.00,0.7610
6864.00,0.7637
6863.00,0.7666
6862.00,0.7699
6861.00,0.7736
6860.00,0.7778
6859.00,0.7825
6858.00,0.7873
6857.00,0.7924
6856.00,0.7979
6855.00,0.8039
6854.00,0.8104
6853.00,0.8174
6852.00,0.8245
6851.00,0.8319
6850.00,0.8396
6849.00,0.8475
6848.00,0.8554
6847.00,0.8634
6846.00,0.8714
6845.00,0.8795
6844.00,0.8878
6843.00,0.8961
6842.00,0.9047
6841.00,0.9134
6840.00,0.9221
6839.00,0.9308
6838.00,0.9396
6837.00,0.9485
6836.00,0.9576
6835.00,0.9665
6834.00,0.9752
6833.00,0.9839
6832.00,0.9924
6831.00,1.0006
6830.00,1.0086
6829.00,1.0166
6828.00,1.0246
6827.00,1.0328
6826.00,1.0410
6825.00,1.0492
6824.00,1.0569
6823.00,1.0641
6822.00,1.0708
6821.00,1.0776
6820.00,1.0843
6819.00,1.0907
6818.00,1.0966
6817.00,1.1021
6816.00,1.1075
6815.00,1.1129
6814.00,1.1181
6813.00,1.1227
6812.00,1.1270
6811.00,1.1310
6810.00,1.1349
6809.00,1.1386
6808.00,1.1417
6807.00,1.1441
6806.00,1.1460
6805.00,1.1478
6804.00,1.1496
6803.00,1.1512
6802.00,1.1526
6801.00,1.1539
6800.00,1.1550
6799.00,1.1558
6798.00,1.1560
6797.00,1.1559
6796.00,1.1554
6795.00,1.1546
6794.00,1.1532
6793.00,1.1512
6792.00,1.1487
6791.00,1.1458
6790.00,1.1425
6789.00,1.1389
6788.00,1.1349
6787.00,1.1305
6786.00,1.1260
6785.00,1.1216
6784.00,1.1173
6783.00,1.1126
6782.00,1.1074
6781.00,1.1014
6780.00,1.0949
6779.00,1.0880
6778.00,1.0807
6777.00,1.0732
6776.00,1.0656
6775.00,1.0580
6774.00,1.0503
6773.00,1.0425
6772.00,1.0344
6771.00,1.0257
6770.00,1.0167
6769.00,1.0073
6768.00,0.9976
6767.00,0.9880
6766.00,0.9786
6765.00,0.9692
6764.00,0.9599
6763.00,0.9504
6762.00,0.9410
6761.00,0.9318
6760.00,0.9225
6759.00,0.9131
6758.00,0.9034
6757.00,0.8936
6756.00,0.8841
6755.00,0.8749
6754.00,0.8661
6753.00,0.8574
6752.00,0.8488
6751.00,0.8405
6750.00,0.8325
6749.00,0.8249
6748.00,0.8174
6747.00,0.8100
6746.00,0.8029
6745.00,0.7962
6744.00,0.7898
6743.00,0.7837
6742.00,0.7778
6741.00,0.7723
6740.00,0.7673
6739.00,0.7628
6738.00,0.7589
6737.00,0.7554
6736.00,0.7524
6735.00,0.7497
6734.00,0.7475
6733.00,0.7456
6732.00,0.7442
6731.00,0.7432
6730.00,0.7427
6729.00,0.7428
6728.00,0.7436
6727.00,0.7450
6726.00,0.7471
6725.00,0.7494
6724.00,0.7519
6723.00,0.7548
6722.00,0.7583
6721.00,0.7624
6720.00,0.7669
6719.00,0.7718
6718.00,0.7771
6717.00,0.7830
6716.00,0.7894
6715.00,0.7960
6714.00,0.8027
6713.00,0.8095
6712.00,0.8166
6711.00,0.8240
6710.00,0.8318
6709.00,0.8397
6708.00,0.8476
6707.00,0.8556
6706.00,0.8640
6705.00,0.8730
6704.00,0.8822
6703.00,0.8914
6702.00,0.9005
6701.00,0.9098
6700.00,0.9192
6699.00,0.9283
6698.00,0.9372
6697.00,0.9459
6696.00,0.9547
6695.00,0.9637
6694.00,0.9728
6693.00,0.9822
6692.00,0.9917
6691.00,1.0011
6690.00,1.0104
6689.00,1.0196
6688.00,1.0283
6687.00,1.0366
6686.00,1.0444
6685.00,1.0524
6684.00,1.0606
6683.00,1.0689
6682.00,1.0769
6681.00,1.0845
6680.00,1.0916
6679.00,1.0988
6678.00,1.1060
6677.00,1.1129
6676.00,1.1194
6675.00,1.1255
6674.00,1.1317
6673.00,1.1382
6672.00,1.1445
6671.00,1.1500
6670.00,1.1548
6669.00,1.1595
6668.00,1.1640
6667.00,1.1681
6666.00,1.1712
6665.00,1.1735
6664.00,1.1754
6663.00,1.1772
6662.00,1.1790
6661.00,1.1806
6660.00,1.1819
6659.00,1.1832
6658.00,1.1848
6657.00,1.1863
6656.00,1.1873
6655.00,1.1874
6654.00,1.1868
6653.00,1.1860
6652.00,1.1849
6651.00,1.1833
6650.00,1.1811
6649.00,1.1787
6648.00,1.1760
6647.00,1.1728
6646.00,1.1691
6645.00,1.1646
6644.00,1.1596
6643.00,1.1543
6642.00,1.1492
6641.00,1.1443
6640.00,1.1394
6639.00,1.1341
6638.00,1.1283
6637.00,1.1220
6636.00,1.1153
6635.00,1.1078
6634.00,1.0997
6633.00,1.0913
6632.00,1.0830
6631.00,1.0748
6630.00,1.0667
6629.00,1.0586
6628.00,1.0502
6627.00,1.0414
6626.00,1.0324
6625.00,1.0230
6624.00,1.0133
6623.00,1.0033
6622.00,0.9932
6621.00,0.9831
6620.00,0.9730
6619.00,0.9628
6618.00,0.9525
6617.00,0.9422
6616.00,0.9321
6615.00,0.9220
6614.00,0.9119
6613.00,0.9020
6612.00,0.8924
6611.00,0.8831
6610.00,0.8739
6609.00,0.8648
6608.00,0.8557
6607.00,0.8470
6606.00,0.8386
6605.00,0.8307
6604.00,0.8230
6603.00,0.8155
6602.00,0.8084
6601.00,0.8018
6600.00,0.7955
6599.00,0.7896
6598.00,0.7842
6597.00,0.7793
6596.00,0.7750
6595.00,0.7714
6594.00,0.7683
6593.00,0.7659
6592.00,0.7639
6591.00,0.7625
6590.00,0.7617
6589.00,0.7615
6588.00,0.7617
6587.00,0.7624
6586.00,0.7635
6585.00,0.7654
6584.00,0.7678
6583.00,0.7706
6582.00,0.7740
6581.00,0.7779
6580.00,0.7823
6579.00,0.7871
6578.00,0.7923
6577.00,0.7978
6576.00,0.8036
6575.00,0.8099
6574.00,0.8165
6573.00,0.8234
6572.00,0.8306
6571.00,0.8380
6570.00,0.8457
6569.00,0.8539
6568.00,0.8625
6567.00,0.8711
6566.00,0.8798
6565.00,0.8886
6564.00,0.8976
6563.00,0.9066
6562.00,0.9157
6561.00,0.9249
6560.00,0.9341
6559.00,0.9433
6558.00,0.9524
6557.00,0.9615
6556.00,0.9707
6555.00,0.9800
6554.00,0.9893
6553.00,0.9985
6552.00,1.0076
6551.00,1.0165
6550.00,1.0251
6549.00,1.0338
6548.00,1.0423
6547.00,1.0505
6546.00,1.0585
6545.00,1.0663
6544.00,1.0743
6543.00,1.0821
6542.00,1.0895
6541.00,1.0965
6540.00,1.1034
6539.00,1.1105
6538.00,1.1175
6537.00,1.1242
6536.00,1.1304
6535.00,1.1360
6534.00,1.1411
6533.00,1.1457
6532.00,1.1498
6531.00,1.1537
6530.00,1.1574
6529.00,1.1609
6528.00,1.1642
6527.00,1.1674
6526.00,1.1701
6525.00,1.1723
6524.00,1.1740
6523.00,1.1754
6522.00,1.1767
6521.00,1.1780
6520.00,1.1791
6519.00,1.1797
6518.00,1.1798
6517.00,1.1792
6516.00,1.1781
6515.00,1.1766
6514.00,1.1749
6513.00,1.1732
6512.00,1.1714
6511.00,1.1695
6510.00,1.1672
6509.00,1.1644
6508.00,1.1609
6507.00,1.1568
6506.00,1.1522
6505.00,1.1471
6504.00,1.1415
6503.00,1.1356
6502.00,1.1294
6501.00,1.1229
6500.00,1.1162
6499.00,1.1094
6498.00,1.1027
6497.00,1.0960
6496.00,1.0889
6495.00,1.0812
6494.00,1.0729
6493.00,1.0642
6492.00,1.0553
6491.00,1.0460
6490.00,1.0365
6489.00,1.0270
6488.00,1.0176
6487.00,1.0081
6486.00,0.9987
6485.00,0.9890
6484.00,0.9790
6483.00,0.9688
6482.00,0.9588
6481.00,0.9490
6480.00,0.9393
6479.00,0.9296
6478.00,0.9199
6477.00,0.9104
6476.00,0.9011
6475.00,0.8916
6474.00,0.8820
6473.00,0.8722
6472.00,0.8625
6471.00,0.8530
6470.00,0.8438
6469.00,0.8351
6468.00,0.8266
6467.00,0.8185
6466.00,0.8107
6465.00,0.8032
6464.00,0.7961
6463.00,0.7892
6462.00,0.7825
6461.00,0.7764
6460.00,0.7707
6459.00,0.7655
6458.00,0.7607
6457.00,0.7564
6456.00,0.7524
6455.00,0.7490
6454.00,0.7461
6453.00,0.7438
6452.00,0.7421
6451.00,0.7410
6450.00,0.7403
6449.00,0.7402
6448.00,0.7406
6447.00,0.7415
6446.00,0.7429
6445.00,0.7449
6444.00,0.7474
6443.00,0.7505
6442.00,0.7542
6441.00,0.7585
6440.00,0.7633
6439.00,0.7684
6438.00,0.7739
6437.00,0.7798
6436.00,0.7861
6435.00,0.7927
6434.00,0.7996
6433.00,0.8069
6432.00,0.8146
6431.00,0.8226
6430.00,0.8307
6429.00,0.8391
6428.00,0.8478
6427.00,0.8568
6426.00,0.8662
6425.00,0.8758
6424.00,0.8854
6423.00,0.8950
6422.00,0.9045
6421.00,0.9139
6420.00,0.9233
6419.00,0.9328
6418.00,0.9425
6417.00,0.9525
6416.00,0.9627
6415.00,0.9730
6414.00,0.9829
6413.00,0.9925
6412.00,1.0019
6411.00,1.0111
6410.00,1.0200
6409.00,1.0287
6408.00,1.0372
6407.00,1.0459
6406.00,1.0547
6405.00,1.0636
6404.00,1.0723
6403.00,1.0810
6402.00,1.0896
6401.00,1.0980
6400.00,1.1058
6399.00,1.1130
6398.00,1.1199
6397.00,1.1267
6396.00,1.1332
6395.00,1.1394
6394.00,1.1453
6393.00,1.1510
6392.00,1.1564
6391.00,1.1616
6390.00,1.1666
6389.00,1.1715
6388.00,1.1761
6387.00,1.1801
6386.00,1.1834
6385.00,1.1862
6384.00,1.1888
6383.00,1.1911
6382.00,1.1929
6381.00,1.1944
6380.00,1.1959
6379.00,1.1972
6378.00,1.1980
6377.00,1.1982
6376.00,1.1978
6375.00,1.1970
6374.00,1.1963
6373.00,1.1955
6372.00,1.1944
6371.00,1.1928
6370.00,1.1906
6369.00,1.1881
6368.00,1.1854
6367.00,1.1822
6366.00,1.1784
6365.00,1.1740
6364.00,1.1693
6363.00,1.1643
6362.00,1.1590
6361.00,1.1533
6360.00,1.1471
6359.00,1.1409
6358.00,1.1346
6357.00,1.1280
6356.00,1.1207
6355.00,1.1131
6354.00,1.1054
6353.00,1.0976
6352.00,1.0894
6351.00,1.0807
6350.00,1.0718
6349.00,1.0628
6348.00,1.0536
6347.00,1.0438
6346.00,1.0337
6345.00,1.0235
6344.00,1.0134
6343.00,1.0031
6342.00,0.9924
6341.00,0.9815
6340.00,0.9705
6339.00,0.9595
6338.00,0.9487
6337.00,0.9379
6336.00,0.9272
6335.00,0.9165
6334.00,0.9059
6333.00,0.8953
6332.00,0.8848
6331.00,0.8745
6330.00,0.8644
6329.00,0.8548
6328.00,0.8455
6327.00,0.8365
6326.00,0.8276
6325.00,0.8188
6324.00,0.8101
6323.00,0.8017
6322.00,0.7938
6321.00,0.7865
6320.00,0.7797
6319.00,0.7733
6318.00,0.7675
6317.00,0.7624
6316.00,0.7577
6315.00,0.7534
6314.00,0.7495
6313.00,0.7464
6312.00,0.7440
6311.00,0.7423
6310.00,0.7411
6309.00,0.7405
6308.00,0.7405
6307.00,0.7410
6306.00,0.7422
6305.00,0.7439
6304.00,0.7463
6303.00,0.7492
6302.00,0.7528
6301.00,0.7570
6300.00,0.7617
6299.00,0.7667
6298.00,0.7721
6297.00,0.7780
6296.00,0.7842
6295.00,0.7908
6294.00,0.7978
6293.00,0.8053
6292.00,0.8131
6291.00,0.8212
6290.00,0.8295
6289.00,0.8382
6288.00,0.8471
6287.00,0.8561
6286.00,0.8653
6285.00,0.8747
6284.00,0.8844
6283.00,0.8940
6282.00,0.9037
6281.00,0.9133
6280.00,0.9227
6279.00,0.9318
6278.00,0.9409
6277.00,0.9503
6276.00,0.9600
6275.00,0.9699
6274.00,0.9800
6273.00,0.9902
6272.00,1.0003
6271.00,1.0099
6270.00,1.0190
6269.00,1.0280
6268.00,1.0371
6267.00,1.0461
6266.00,1.0551
6265.00,1.0638
6264.00,1.0724
6263.00,1.0807
6262.00,1.0885
6261.00,1.0958
6260.00,1.1028
6259.00,1.1096
6258.00,1.1163
6257.00,1.1228
6256.00,1.1289
6255.00,1.1349
6254.00,1.1408
6253.00,1.1466
6252.00,1.1521
6251.00,1.1570
6250.00,1.1615
6249.00,1.1655
6248.00,1.1691
6247.00,1.1721
6246.00,1.1747
6245.00,1.1771
6244.00,1.1793
6243.00,1.1812
6242.00,1.1827
6241.00,1.1840
6240.00,1.1854
6239.00,1.1863
6238.00,1.1868
6237.00,1.1865
6236.00,1.1857
6235.00,1.1843
6234.00,1.1823
6233.00,1.1799
6232.00,1.1775
6231.00,1.1750
6230.00,1.1722
6229.00,1.1689
6228.00,1.1651
6227.00,1.1608
6226.00,1.1561
6225.00,1.1511
6224.00,1.1460
6223.00,1.1410
6222.00,1.1358
6221.00,1.1299
6220.00,1.1234
6219.00,1.1164
6218.00,1.1089
6217.00,1.1010
6216.00,1.0929
6215.00,1.0847
6214.00,1.0767
6213.00,1.0685
6212.00,1.0599
6211.00,1.0512
6210.00,1.0423
6209.00,1.0332
6208.00,1.0237
6207.00,1.0139
6206.00,1.0038
6205.00,0.9936
6204.00,0.9832
6203.00,0.9726
6202.00,0.9618
6201.00,0.9510
6200.00,0.9401
6199.00,0.9291
6198.00,0.9182
6197.00,0.9073
6196.00,0.8966
6195.00,0.8860
6194.00,0.8755
6193.00,0.8651
6192.00,0.8547
6191.00,0.8446
6190.00,0.8348
6189.00,0.8253
6188.00,0.8160
6187.00,0.8068
6186.00,0.7977
6185.00,0.7890
6184.00,0.7806
6183.00,0.7725
6182.00,0.7648
6181.00,0.7576
6180.00,0.7511
6179.00,0.7451
6178.00,0.7395
6177.00,0.7345
6176.00,0.7300
6175.00,0.7259
6174.00,0.7223
6173.00,0.7193
6172.00,0.7167
6171.00,0.7148
6170.00,0.7136
6169.00,0.7132
6168.00,0.7135
6167.00,0.7144
6166.00,0.7160
6165.00,0.7182
6164.00,0.7209
6163.00,0.7240
6162.00,0.7277
6161.00,0.7320
6160.00,0.7368
6159.00,0.7422
6158.00,0.7480
6157.00,0.7543
6156.00,0.7611
6155.00,0.7683
6154.00,0.7759
6153.00,0.7838
6152.00,0.7920
6151.00,0.8006
6150.00,0.8095
6149.00,0.8187
6148.00,0.8281
6147.00,0.8375
6146.00,0.8471
6145.00,0.8567
6144.00,0.8665
6143.00,0.8764
6142.00,0.8864
6141.00,0.8965
6140.00,0.9067
6139.00,0.9170
6138.00,0.9272
6137.00,0.9375
6136.00,0.9476
6135.00,0.9577
6134.00,0.9680
6133.00,0.9782
6132.00,0.9883
6131.00,0.9982
6130.00,1.0080
6129.00,1.0178
6128.00,1.0277
6127.00,1.0375
6126.00,1.0470
6125.00,1.0563
6124.00,1.0654
6123.00,1.0741
6122.00,1.0826
6121.00,1.0909
6120.00,1.0989
6119.00,1.1067
6118.00,1.1141
6117.00,1.1213
6116.00,1.1281
6115.00,1.1347
6114.00,1.1410
6113.00,1.1472
6112.00,1.1530
6111.00,1.1584
6110.00,1.1633
6109.00,1.1678
6108.00,1.1720
6107.00,1.1759
6106.00,1.1796
6105.00,1.1830
6104.00,1.1861
6103.00,1.1888
6102.00,1.1909
6101.00,1.1926
6100.00,1.1938
6099.00,1.1949
6098.00,1.1958
6097.00,1.1964
6096.00,1.1965
6095.00,1.1961
6094.00,1.1953
6093.00,1.1940
6092.00,1.1922
6091.00,1.1900
6090.00,1.1873
6089.00,1.1840
6088.00,1.1804
6087.00,1.1767
6086.00,1.1731
6085.00,1.1693
6084.00,1.1651
6083.00,1.1603
6082.00,1.1553
6081.00,1.1501
6080.00,1.1442
6079.00,1.1378
6078.00,1.1309
6077.00,1.1237
6076.00,1.1163
6075.00,1.1083
6074.00,1.0999
6073.00,1.0913
6072.00,1.0825
6071.00,1.0736
6070.00,1.0644
6069.00,1.0549
6068.00,1.0449
6067.00,1.0343
6066.00,1.0234
6065.00,1.0125
6064.00,1.0015
6063.00,0.9904
6062.00,0.9792
6061.00,0.9680
6060.00,0.9567
6059.00,0.9453
6058.00,0.9340
6057.00,0.9227
6056.00,0.9114
6055.00,0.8998
6054.00,0.8883
6053.00,0.8769
6052.00,0.8656
6051.00,0.8542
6050.00,0.8429
6049.00,0.8318
6048.00,0.8211
6047.00,0.8107
6046.00,0.8008
6045.00,0.7912
6044.00,0.7821
6043.00,0.7734
6042.00,0.7650
6041.00,0.7569
6040.00,0.7494
6039.00,0.7423
6038.00,0.7359
6037.00,0.7301
6036.00,0.7249
6035.00,0.7204
6034.00,0.7164
6033.00,0.7130
6032.00,0.7102
6031.00,0.7081
6030.00,0.7068
6029.00,0.7062
6028.00,0.7063
6027.00,0.7070
6026.00,0.7084
6025.00,0.7105
6024.00,0.7130
6023.00,0.7162
6022.00,0.7201
6021.00,0.7246
6020.00,0.7297
6019.00,0.7352
6018.00,0.7413
6017.00,0.7479
6016.00,0.7549
6015.00,0.7624
6014.00,0.7703
6013.00,0.7786
6012.00,0.7873
6011.00,0.7962
6010.00,0.8054
6009.00,0.8148
6008.00,0.8243
6007.00,0.8340
6006.00,0.8440
6005.00,0.8543
6004.00,0.8647
6003.00,0.8751
6002.00,0.8856
6001.00,0.8961
6000.00,0.9065
5999.00,0.9169
5998.00,0.9272
5997.00,0.9377
5996.00,0.9483
5995.00,0.9590
5994.00,0.9698
5993.00,0.9804
5992.00,0.9909
5991.00,1.0012
5990.00,1.0113
5989.00,1.0214
5988.00,1.0314
5987.00,1.0412
5986.00,1.0507
5985.00,1.0597
5984.00,1.0685
5983.00,1.0770
5982.00,1.0852
5981.00,1.0933
5980.00,1.1013
5979.00,1.1091
5978.00,1.1165
5977.00,1.1235
5976.00,1.1299
5975.00,1.1360
5974.00,1.1417
5973.00,1.1473
5972.00,1.1529
5971.00,1.1583
5970.00,1.1635
5969.00,1.1685
5968.00,1.1732
5967.00,1.1776
5966.00,1.1816
5965.00,1.1848
5964.00,1.1874
5963.00,1.1894
5962.00,1.1910
5961.00,1.1925
5960.00,1.1937
5959.00,1.1950
5958.00,1.1962
5957.00,1.1972
5956.00,1.1978
5955.00,1.1976
5954.00,1.1969
5953.00,1.1955
5952.00,1.1935
5951.00,1.1911
5950.00,1.1885
5949.00,1.1857
5948.00,1.1826
5947.00,1.1790
5946.00,1.1749
5945.00,1.1704
5944.00,1.1654
5943.00,1.1600
5942.00,1.1545
5941.00,1.1490
5940.00,1.1432
5939.00,1.1370
5938.00,1.1303
5937.00,1.1230
5936.00,1.1153
5935.00,1.1071
5934.00,1.0986
5933.00,1.0901
5932.00,1.0814
5931.00,1.0725
5930.00,1.0632
5929.00,1.0536
5928.00,1.0437
5927.00,1.0333
5926.00,1.0227
5925.00,1.0117
5924.00,1.0005
5923.00,0.9890
5922.00,0.9774
5921.00,0.9656
5920.00,0.9537
5919.00,0.9417
5918.00,0.9298
5917.00,0.9179
5916.00,0.9060
5915.00,0.8942
5914.00,0.8824
5913.00,0.8707
5912.00,0.8591
5911.00,0.8474
5910.00,0.8359
5909.00,0.8247
5908.00,0.8138
5907.00,0.8032
5906.00,0.7930
5905.00,0.7832
5904.00,0.7739
5903.00,0.7650
5902.00,0.7563
5901.00,0.7481
5900.00,0.7403
5899.00,0.7330
5898.00,0.7263
5897.00,0.7201
5896.00,0.7145
5895.00,0.7095
5894.00,0.7053
5893.00,0.7019
5892.00,0.6991
5891.00,0.6970
5890.00,0.6957
5889.00,0.6952
5888.00,0.6953
5887.00,0.6960
5886.00,0.6972
5885.00,0.6992
5884.00,0.7020
5883.00,0.7054
5882.00,0.7096
5881.00,0.7144
5880.00,0.7198
5879.00,0.7256
5878.00,0.7319
5877.00,0.7387
5876.00,0.7459
5875.00,0.7535
5874.00,0.7617
5873.00,0.7702
5872.00,0.7791
5871.00,0.7882
5870.00,0.7977
5869.00,0.8074
5868.00,0.8174
5867.00,0.8276
5866.00,0.8381
5865.00,0.8487
5864.00,0.8593
5863.00,0.8699
5862.00,0.8806
5861.00,0.8915
5860.00,0.9025
5859.00,0.9136
5858.00,0.9249
5857.00,0.9363
5856.00,0.9474
5855.00,0.9583
5854.00,0.9691
5853.00,0.9798
5852.00,0.9905
5851.00,1.0011
5850.00,1.0117
5849.00,1.0222
5848.00,1.0324
5847.00,1.0422
5846.00,1.0517
5845.00,1.0610
5844.00,1.0703
5843.00,1.0797
5842.00,1.0890
5841.00,1.0982
5840.00,1.1070
5839.00,1.1154
5838.00,1.1233
5837.00,1.1309
5836.00,1.1378
5835.00,1.1443
5834.00,1.1506
5833.00,1.1567
5832.00,1.1625
5831.00,1.1678
5830.00,1.1728
5829.00,1.1775
5828.00,1.1818
5827.00,1.1856
5826.00,1.1889
5825.00,1.1918
5824.00,1.1946
5823.00,1.1973
5822.00,1.1997
5821.00,1.2018
5820.00,1.2035
5819.00,1.2048
5818.00,1.2057
5817.00,1.2062
5816.00,1.2063
5815.00,1.2060
5814.00,1.2053
5813.00,1.2044
5812.00,1.2033
5811.00,1.2019
5810.00,1.2000
5809.00,1.1974
5808.00,1.1943
5807.00,1.1908
5806.00,1.1870
5805.00,1.1829
5804.00,1.1787
5803.00,1.1743
5802.00,1.1695
5801.00,1.1641
5800.00,1.1580
5799.00,1.1513
5798.00,1.1443
5797.00,1.1371
5796.00,1.1297
5795.00,1.1221
5794.00,1.1143
5793.00,1.1061
5792.00,1.0975
5791.00,1.0884
5790.00,1.0790
5789.00,1.0690
5788.00,1.0586
5787.00,1.0479
5786.00,1.0370
5785.00,1.0259
5784.00,1.0146
5783.00,1.0030
5782.00,0.9912
5781.00,0.9792
5780.00,0.9669
5779.00,0.9545
5778.00,0.9419
5777.00,0.9293
5776.00,0.9168
5775.00,0.9044
5774.00,0.8920
5773.00,0.8797
5772.00,0.8675
5771.00,0.8555
5770.00,0.8436
5769.00,0.8318
5768.00,0.8202
5767.00,0.8088
5766.00,0.7976
5765.00,0.7869
5764.00,0.7767
5763.00,0.7669
5762.00,0.7576
5761.00,0.7488
5760.00,0.7404
5759.00,0.7322
5758.00,0.7247
5757.00,0.7178
5756.00,0.7116
5755.00,0.7063
5754.00,0.7016
5753.00,0.6977
5752.00,0.6945
5751.00,0.6919
5750.00,0.6899
5749.00,0.6887
5748.00,0.6881
5747.00,0.6883
5746.00,0.6893
5745.00,0.6910
5744.00,0.6934
5743.00,0.6965
5742.00,0.7003
5741.00,0.7049
5740.00,0.7101
5739.00,0.7160
5738.00,0.7225
5737.00,0.7296
5736.00,0.7372
5735.00,0.7452
5734.00,0.7535
5733.00,0.7621
5732.00,0.7710
5731.00,0.7801
5730.00,0.7896
5729.00,0.7995
5728.00,0.8097
5727.00,0.8202
5726.00,0.8311
5725.00,0.8423
5724.00,0.8537
5723.00,0.8651
5722.00,0.8767
5721.00,0.8883
5720.00,0.8999
5719.00,0.9114
5718.00,0.9230
5717.00,0.9346
5716.00,0.9462
5715.00,0.9577
5714.00,0.9691
5713.00,0.9804
5712.00,0.9916
5711.00,1.0025
5710.00,1.0134
5709.00,1.0241
5708.00,1.0347
5707.00,1.0452
5706.00,1.0556
5705.00,1.0661
5704.00,1.0764
5703.00,1.0863
5702.00,1.0957
5701.00,1.1048
5700.00,1.1135
5699.00,1.1221
5698.00,1.1306
5697.00,1.1389
5696.00,1.1468
5695.00,1.1541
5694.00,1.1608
5693.00,1.1669
5692.00,1.1724
5691.00,1.1777
5690.00,1.1830
5689.00,1.1881
5688.00,1.1929
5687.00,1.1973
5686.00,1.2014
5685.00,1.2053
5684.00,1.2085
5683.00,1.2110
5682.00,1.2130
5681.00,1.2149
5680.00,1.2165
5679.00,1.2177
5678.00,1.2187
5677.00,1.2195
5676.00,1.2198
5675.00,1.2196
5674.00,1.2189
5673.00,1.2177
5672.00,1.2163
5671.00,1.2145
5670.00,1.2124
5669.00,1.2099
5668.00,1.2070
5667.00,1.2035
5666.00,1.1993
5665.00,1.1944
5664.00,1.1892
5663.00,1.1838
5662.00,1.1783
5661.00,1.1727
5660.00,1.1666
5659.00,1.1601
5658.00,1.1533
5657.00,1.1461
5656.00,1.1385
5655.00,1.1304
5654.00,1.1219
5653.00,1.1131
5652.00,1.1038
5651.00,1.0940
5650.00,1.0837
5649.00,1.0732
5648.00,1.0624
5647.00,1.0513
5646.00,1.0399
5645.00,1.0283
5644.00,1.0164
5643.00,1.0044
5642.00,0.9922
5641.00,0.9799
5640.00,0.9672
5639.00,0.9542
5638.00,0.9409
5637.00,0.9275
5636.00,0.9141
5635.00,0.9007
5634.00,0.8874
5633.00,0.8742
5632.00,0.8612
5631.00,0.8482
5630.00,0.8355
5629.00,0.8229
5628.00,0.8105
5627.00,0.7982
5626.00,0.7863
5625.00,0.7747
5624.00,0.7636
5623.00,0.7529
5622.00,0.7427
5621.00,0.7330
5620.00,0.7239
5619.00,0.7152
5618.00,0.7071
5617.00,0.6997
5616.00,0.6931
5615.00,0.6872
5614.00,0.6820
5613.00,0.6776
5612.00,0.6738
5611.00,0.6709
5610.00,0.6687
5609.00,0.6674
5608.00,0.6669
5607.00,0.6672
5606.00,0.6684
5605.00,0.6704
5604.00,0.6732
5603.00,0.6768
5602.00,0.6812
5601.00,0.6863
5600.00,0.6920
5599.00,0.6983
5598.00,0.7051
5597.00,0.7125
5596.00,0.7204
5595.00,0.7289
5594.00,0.7378
5593.00,0.7471
5592.00,0.7569
5591.00,0.7670
5590.00,0.7775
5589.00,0.7882
5588.00,0.7991
5587.00,0.8103
5586.00,0.8218
5585.00,0.8334
5584.00,0.8452
5583.00,0.8571
5582.00,0.8692
5581.00,0.8815
5580.00,0.8937
5579.00,0.9059
5578.00,0.9182
5577.00,0.9305
5576.00,0.9428
5575.00,0.9553
5574.00,0.9677
5573.00,0.9799
5572.00,0.9919
5571.00,1.0036
5570.00,1.0151
5569.00,1.0266
5568.00,1.0380
5567.00,1.0494
5566.00,1.0606
5565.00,1.0716
5564.00,1.0821
5563.00,1.0922
5562.00,1.1020
5561.00,1.1117
5560.00,1.1213
5559.00,1.1306
5558.00,1.1397
5557.00,1.1485
5556.00,1.1569
5555.00,1.1647
5554.00,1.1720
5553.00,1.1787
5552.00,1.1849
5551.00,1.1908
5550.00,1.1964
5549.00,1.2018
5548.00,1.2070
5547.00,1.2119
5546.00,1.2164
5545.00,1.2205
5544.00,1.2242
5543.00,1.2274
5542.00,1.2302
5541.00,1.2324
5540.00,1.2343
5539.00,1.2359
5538.00,1.2372
5537.00,1.2381
5536.00,1.2386
5535.00,1.2387
5534.00,1.2384
5533.00,1.2377
5532.00,1.2366
5531.00,1.2350
5530.00,1.2331
5529.00,1.2307
5528.00,1.2277
5527.00,1.2242
5526.00,1.2203
5525.00,1.2161
5524.00,1.2116
5523.00,1.2067
5522.00,1.2014
5521.00,1.1957
5520.00,1.1897
5519.00,1.1833
5518.00,1.1766
5517.00,1.1695
5516.00,1.1618
5515.00,1.1536
5514.00,1.1449
5513.00,1.1359
5512.00,1.1266
5511.00,1.1170
5510.00,1.1071
5509.00,1.0969
5508.00,1.0863
5507.00,1.0753
5506.00,1.0638
5505.00,1.0519
5504.00,1.0396
5503.00,1.0271
5502.00,1.0144
5501.00,1.0017
5500.00,0.9889
5499.00,0.9759
5498.00,0.9628
5497.00,0.9495
5496.00,0.9361
5495.00,0.9225
5494.00,0.9087
5493.00,0.8948
5492.00,0.8810
5491.00,0.8673
5490.00,0.8538
5489.00,0.8406
5488.00,0.8278
5487.00,0.8153
5486.00,0.8032
5485.00,0.7916
5484.00,0.7804
5483.00,0.7697
5482.00,0.7594
5481.00,0.7493
5480.00,0.7398
5479.00,0.7309
5478.00,0.7228
5477.00,0.7152
5476.00,0.7082
5475.00,0.7018
5474.00,0.6962
5473.00,0.6915
5472.00,0.6876
5471.00,0.6846
5470.00,0.6827
5469.00,0.6817
5468.00,0.6816
5467.00,0.6822
5466.00,0.6836
5465.00,0.6858
5464.00,0.6886
5463.00,0.6921
5462.00,0.6964
5461.00,0.7016
5460.00,0.7076
5459.00,0.7143
5458.00,0.7217
5457.00,0.7298
5456.00,0.7383
5455.00,0.7474
5454.00,0.7570
5453.00,0.7670
5452.00,0.7773
5451.00,0.7878
5450.00,0.7987
5449.00,0.8099
5448.00,0.8214
5447.00,0.8330
5446.00,0.8448
5445.00,0.8570
5444.00,0.8693
5443.00,0.8818
5442.00,0.8946
5441.00,0.9075
5440.00,0.9205
5439.00,0.9334
5438.00,0.9462
5437.00,0.9589
5436.00,0.9714
5435.00,0.9838
5434.00,0.9963
5433.00,1.0088
5432.00,1.0211
5431.00,1.0331
5430.00,1.0450
5429.00,1.0569
5428.00,1.0688
5427.00,1.0805
5426.00,1.0921
5425.00,1.1033
5424.00,1.1142
5423.00,1.1248
5422.00,1.1351
5421.00,1.1450
5420.00,1.1546
5419.00,1.1637
5418.00,1.1724
5417.00,1.1807
5416.00,1.1885
5415.00,1.1960
5414.00,1.2030
5413.00,1.2097
5412.00,1.2160
5411.00,1.2218
5410.00,1.2273
5409.00,1.2326
5408.00,1.2377
5407.00,1.2426
5406.00,1.2473
5405.00,1.2514
5404.00,1.2550
5403.00,1.2580
5402.00,1.2602
5401.00,1.2619
5400.00,1.2633
5399.00,1.2646
5398.00,1.2656
5397.00,1.2662
5396.00,1.2664
5395.00,1.2660
5394.00,1.2653
5393.00,1.2641
5392.00,1.2625
5391.00,1.2605
5390.00,1.2579
5389.00,1.2549
5388.00,1.2514
5387.00,1.2475
5386.00,1.2434
5385.00,1.2393
5384.00,1.2351
5383.00,1.2304
5382.00,1.2252
5381.00,1.2194
5380.00,1.2130
5379.00,1.2062
5378.00,1.1988
5377.00,1.1910
5376.00,1.1828
5375.00,1.1739
5374.00,1.1646
5373.00,1.1548
5372.00,1.1448
5371.00,1.1345
5370.00,1.1239
5369.00,1.1132
5368.00,1.1020
5367.00,1.0905
5366.00,1.0785
5365.00,1.0662
5364.00,1.0535
5363.00,1.0405
5362.00,1.0274
5361.00,1.0140
5360.00,1.0002
5359.00,0.9861
5358.00,0.9718
5357.00,0.9576
5356.00,0.9432
5355.00,0.9286
5354.00,0.9139
5353.00,0.8994
5352.00,0.8850
5351.00,0.8707
5350.00,0.8565
5349.00,0.8426
5348.00,0.8291
5347.00,0.8158
5346.00,0.8027
5345.00,0.7899
5344.00,0.7774
5343.00,0.7652
5342.00,0.7537
5341.00,0.7429
5340.00,0.7328
5339.00,0.7234
5338.00,0.7148
5337.00,0.7069
5336.00,0.6999
5335.00,0.6938
5334.00,0.6884
5333.00,0.6838
5332.00,0.6802
5331.00,0.6775
5330.00,0.6757
5329.00,0.6747
5328.00,0.6747
5327.00,0.6754
5326.00,0.6772
5325.00,0.6799
5324.00,0.6835
5323.00,0.6878
5322.00,0.6928
5321.00,0.6987
5320.00,0.7053
5319.00,0.7126
5318.00,0.7206
5317.00,0.7294
5316.00,0.7389
5315.00,0.7488
5314.00,0.7590
5313.00,0.7696
5312.00,0.7805
5311.00,0.7917
5310.00,0.8032
5309.00,0.8151
5308.00,0.8274
5307.00,0.8401
5306.00,0.8531
5305.00,0.8663
5304.00,0.8796
5303.00,0.8930
5302.00,0.9066
5301.00,0.9202
5300.00,0.9339
5299.00,0.9477
5298.00,0.9616
5297.00,0.9754
5296.00,0.9891
5295.00,1.0026
5294.00,1.0159
5293.00,1.0288
5292.00,1.0415
5291.00,1.0540
5290.00,1.0667
5289.00,1.0794
5288.00,1.0921
5287.00,1.1043
5286.00,1.1162
5285.00,1.1277
5284.00,1.1389
5283.00,1.1498
5282.00,1.1604
5281.00,1.1706
5280.00,1.1804
5279.00,1.1897
5278.00,1.1987
5277.00,1.2074
5276.00,1.2160
5275.00,1.2242
5274.00,1.2322
5273.00,1.2397
5272.00,1.2469
5271.00,1.2535
5270.00,1.2596
5269.00,1.2650
5268.00,1.2699
5267.00,1.2743
5266.00,1.2783
5265.00,1.2822
5264.00,1.2861
5263.00,1.2897
5262.00,1.2928
5261.00,1.2953
5260.00,1.2972
5259.00,1.2986
5258.00,1.2996
5257.00,1.3004
5256.00,1.3007
5255.00,1.3005
5254.00,1.2999
5253.00,1.2991
5252.00,1.2980
5251.00,1.2965
5250.00,1.2945
5249.00,1.2919
5248.00,1.2889
5247.00,1.2855
5246.00,1.2817
5245.00,1.2774
5244.00,1.2727
5243.00,1.2677
5242.00,1.2623
5241.00,1.2565
5240.00,1.2503
5239.00,1.2436
5238.00,1.2363
5237.00,1.2285
5236.00,1.2204
5235.00,1.2121
5234.00,1.2037
5233.00,1.1950
5232.00,1.1857
5231.00,1.1759
5230.00,1.1654
5229.00,1.1546
5228.00,1.1432
5227.00,1.1313
5226.00,1.1188
5225.00,1.1059
5224.00,1.0927
5223.00,1.0794
5222.00,1.0660
5221.00,1.0525
5220.00,1.0388
5219.00,1.0247
5218.00,1.0102
5217.00,0.9956
5216.00,0.9809
5215.00,0.9662
5214.00,0.9514
5213.00,0.9365
5212.00,0.9216
5211.00,0.9068
5210.00,0.8922
5209.00,0.8778
5208.00,0.8634
5207.00,0.8491
5206.00,0.8351
5205.00,0.8215
5204.00,0.8086
5203.00,0.7963
5202.00,0.7848
5201.00,0.7742
5200.00,0.7644
5199.00,0.7554
5198.00,0.7472
5197.00,0.7396
5196.00,0.7326
5195.00,0.7263
5194.00,0.7206
5193.00,0.7153
5192.00,0.7106
5191.00,0.7064
5190.00,0.7030
5189.00,0.7004
5188.00,0.6988
5187.00,0.6982
5186.00,0.6987
5185.00,0.7002
5184.00,0.7026
5183.00,0.7059
5182.00,0.7103
5181.00,0.7155
5180.00,0.7217
5179.00,0.7286
5178.00,0.7364
5177.00,0.7449
5176.00,0.7540
5175.00,0.7637
5174.00,0.7741
5173.00,0.7850
5172.00,0.7964
5171.00,0.8082
5170.00,0.8204
5169.00,0.8329
5168.00,0.8457
5167.00,0.8588
5166.00,0.8721
5165.00,0.8856
5164.00,0.8992
5163.00,0.9129
5162.00,0.9268
5161.00,0.9407
5160.00,0.9548
5159.00,0.9689
5158.00,0.9830
5157.00,0.9971
5156.00,1.0112
5155.00,1.0251
5154.00,1.0391
5153.00,1.0529
5152.00,1.0665
5151.00,1.0799
5150.00,1.0929
5149.00,1.1058
5148.00,1.1186
5147.00,1.1312
5146.00,1.1435
5145.00,1.1555
5144.00,1.1670
5143.00,1.1782
5142.00,1.1889
5141.00,1.1993
5140.00,1.2093
5139.00,1.2189
5138.00,1.2283
5137.00,1.2373
5136.00,1.2461
5135.00,1.2545
5134.00,1.2624
5133.00,1.2697
5132.00,1.2763
5131.00,1.2824
5130.00,1.2880
5129.00,1.2934
5128.00,1.2983
5127.00,1.3030
5126.00,1.3073
5125.00,1.3112
5124.00,1.3145
5123.00,1.3174
5122.00,1.3199
5121.00,1.3220
5120.00,1.3237
5119.00,1.3250
5118.00,1.3260
5117.00,1.3268
5116.00,1.3273
5115.00,1.3273
5114.00,1.3268
5113.00,1.3258
5112.00,1.3244
5111.00,1.3226
5110.00,1.3203
5109.00,1.3175
5108.00,1.3141
5107.00,1.3101
5106.00,1.3058
5105.00,1.3011
5104.00,1.2962
5103.00,1.2910
5102.00,1.2853
5101.00,1.2793
5100.00,1.2728
5099.00,1.2659
5098.00,1.2588
5097.00,1.2512
5096.00,1.2429
5095.00,1.2341
5094.00,1.2247
5093.00,1.2148
5092.00,1.2044
5091.00,1.1935
5090.00,1.1821
5089.00,1.1703
5088.00,1.1582
5087.00,1.1457
5086.00,1.1331
5085.00,1.1201
5084.00,1.1066
5083.00,1.0927
5082.00,1.0784
5081.00,1.0638
5080.00,1.0488
5079.00,1.0336
5078.00,1.0182
5077.00,1.0027
5076.00,0.9871
5075.00,0.9713
5074.00,0.9555
5073.00,0.9397
5072.00,0.9238
5071.00,0.9080
5070.00,0.8923
5069.00,0.8768
5068.00,0.8617
5067.00,0.8470
5066.00,0.8327
5065.00,0.8188
5064.00,0.8054
5063.00,0.7923
5062.00,0.7798
5061.00,0.7679
5060.00,0.7567
5059.00,0.7462
5058.00,0.7365
5057.00,0.7275
5056.00,0.7194
5055.00,0.7122
5054.00,0.7059
5053.00,0.7006
5052.00,0.6961
5051.00,0.6926
5050.00,0.6901
5049.00,0.6886
5048.00,0.6883
5047.00,0.6890
5046.00,0.6907
5045.00,0.6934
5044.00,0.6970
5043.00,0.7015
5042.00,0.7070
5041.00,0.7134
5040.00,0.7207
5039.00,0.7288
5038.00,0.7376
5037.00,0.7472
5036.00,0.7574
5035.00,0.7682
5034.00,0.7795
5033.00,0.7914
5032.00,0.8037
5031.00,0.8164
5030.00,0.8296
5029.00,0.8432
5028.00,0.8570
5027.00,0.8710
5026.00,0.8853
5025.00,0.8997
5024.00,0.9143
5023.00,0.9290
5022.00,0.9438
5021.00,0.9587
5020.00,0.9736
5019.00,0.9885
5018.00,1.0034
5017.00,1.0183
5016.00,1.0332
5015.00,1.0480
5014.00,1.0628
5013.00,1.0774
5012.00,1.0918
5011.00,1.1059
5010.00,1.1198
5009.00,1.1335
5008.00,1.1468
5007.00,1.1598
5006.00,1.1725
5005.00,1.1848
5004.00,1.1967
5003.00,1.2082
5002.00,1.2193
5001.00,1.2301
5000.00,1.2405
4999.00,1.2505
4998.00,1.2601
4997.00,1.2694
4996.00,1.2782
4995.00,1.2863
4994.00,1.2938
4993.00,1.3008
4992.00,1.3075
4991.00,1.3138
4990.00,1.3198
4989.00,1.3254
4988.00,1.3306
4987.00,1.3355
4986.00,1.3402
4985.00,1.3447
4984.00,1.3488
4983.00,1.3524
4982.00,1.3554
4981.00,1.3578
4980.00,1.3598
4979.00,1.3614
4978.00,1.3628
4977.00,1.3637
4976.00,1.3641
4975.00,1.3639
4974.00,1.3633
4973.00,1.3624
4972.00,1.3610
4971.00,1.3591
4970.00,1.3566
4969.00,1.3537
4968.00,1.3504
4967.00,1.3470
4966.00,1.3432
4965.00,1.3391
4964.00,1.3344
4963.00,1.3291
4962.00,1.3232
4961.00,1.3169
4960.00,1.3102
4959.00,1.3032
4958.00,1.2958
4957.00,1.2881
4956.00,1.2800
4955.00,1.2715
4954.00,1.2625
4953.00,1.2529
4952.00,1.2427
4951.00,1.2319
4950.00,1.2208
4949.00,1.2093
4948.00,1.1974
4947.00,1.1852
4946.00,1.1725
4945.00,1.1593
4944.00,1.1457
4943.00,1.1316
4942.00,1.1171
4941.00,1.1022
4940.00,1.0868
4939.00,1.0711
4938.00,1.0550
4937.00,1.0388
4936.00,1.0225
4935.00,1.0060
4934.00,0.9895
4933.00,0.9729
4932.00,0.9562
4931.00,0.9396
4930.00,0.9230
4929.00,0.9066
4928.00,0.8904
4927.00,0.8745
4926.00,0.8588
4925.00,0.8437
4924.00,0.8290
4923.00,0.8147
4922.00,0.8010
4921.00,0.7879
4920.00,0.7754
4919.00,0.7637
4918.00,0.7529
4917.00,0.7429
4916.00,0.7338
4915.00,0.7257
4914.00,0.7185
4913.00,0.7124
4912.00,0.7073
4911.00,0.7034
4910.00,0.7007
4909.00,0.6991
4908.00,0.6986
4907.00,0.6992
4906.00,0.7009
4905.00,0.7037
4904.00,0.7076
4903.00,0.7125
4902.00,0.7185
4901.00,0.7256
4900.00,0.7335
4899.00,0.7422
4898.00,0.7517
4897.00,0.7620
4896.00,0.7729
4895.00,0.7844
4894.00,0.7966
4893.00,0.8094
4892.00,0.8227
4891.00,0.8363
4890.00,0.8503
4889.00,0.8646
4888.00,0.8792
4887.00,0.8940
4886.00,0.9090
4885.00,0.9243
4884.00,0.9398
4883.00,0.9552
4882.00,0.9708
4881.00,0.9864
4880.00,1.0021
4879.00,1.0178
4878.00,1.0335
4877.00,1.0492
4876.00,1.0647
4875.00,1.0800
4874.00,1.0950
4873.00,1.1099
4872.00,1.1246
4871.00,1.1392
4870.00,1.1536
4869.00,1.1678
4868.00,1.1816
4867.00,1.1948
4866.00,1.2074
4865.00,1.2197
4864.00,1.2317
4863.00,1.2436
4862.00,1.2552
4861.00,1.2665
4860.00,1.2773
4859.00,1.2877
4858.00,1.2977
4857.00,1.3072
4856.00,1.3162
4855.00,1.3247
4854.00,1.3327
4853.00,1.3401
4852.00,1.3472
4851.00,1.3537
4850.00,1.3599
4849.00,1.3655
4848.00,1.3707
4847.00,1.3754
4846.00,1.3798
4845.00,1.3837
4844.00,1.3872
4843.00,1.3902
4842.00,1.3929
4841.00,1.3950
4840.00,1.3967
4839.00,1.3978
4838.00,1.3984
4837.00,1.3987
4836.00,1.3987
4835.00,1.3986
4834.00,1.3983
4833.00,1.3973
4832.00,1.3957
4831.00,1.3934
4830.00,1.3908
4829.00,1.3880
4828.00,1.3848
4827.00,1.3812
4826.00,1.3770
4825.00,1.3723
4824.00,1.3671
4823.00,1.3616
4822.00,1.3556
4821.00,1.3491
4820.00,1.3421
4819.00,1.3347
4818.00,1.3270
4817.00,1.3189
4816.00,1.3104
4815.00,1.3013
4814.00,1.2917
4813.00,1.2816
4812.00,1.2709
4811.00,1.2598
4810.00,1.2480
4809.00,1.2355
4808.00,1.2226
4807.00,1.2093
4806.00,1.1958
4805.00,1.1820
4804.00,1.1677
4803.00,1.1530
4802.00,1.1376
4801.00,1.1217
4800.00,1.1054
4799.00,1.0888
4798.00,1.0720
4797.00,1.0550
4796.00,1.0377
4795.00,1.0202
4794.00,1.0025
4793.00,0.9847
4792.00,0.9670
4791.00,0.9493
4790.00,0.9319
4789.00,0.9146
4788.00,0.8975
4787.00,0.8806
4786.00,0.8642
4785.00,0.8483
4784.00,0.8329
4783.00,0.8181
4782.00,0.8039
4781.00,0.7904
4780.00,0.7775
4779.00,0.7655
4778.00,0.7544
4777.00,0.7442
4776.00,0.7349
4775.00,0.7266
4774.00,0.7195
4773.00,0.7135
4772.00,0.7087
4771.00,0.7049
4770.00,0.7024
4769.00,0.7010
4768.00,0.7009
4767.00,0.7020
4766.00,0.7043
4765.00,0.7079
4764.00,0.7126
4763.00,0.7183
4762.00,0.7251
4761.00,0.7329
4760.00,0.7417
4759.00,0.7513
4758.00,0.7618
4757.00,0.7731
4756.00,0.7851
4755.00,0.7977
4754.00,0.8110
4753.00,0.8248
4752.00,0.8391
4751.00,0.8537
4750.00,0.8688
4749.00,0.8841
4748.00,0.8997
4747.00,0.9155
4746.00,0.9316
4745.00,0.9479
4744.00,0.9644
4743.00,0.9809
4742.00,0.9975
4741.00,1.0142
4740.00,1.0307
4739.00,1.0471
4738.00,1.0636
4737.00,1.0800
4736.00,1.0965
4735.00,1.1128
4734.00,1.1290
4733.00,1.1448
4732.00,1.1603
4731.00,1.1756
4730.00,1.1906
4729.00,1.2053
4728.00,1.2196
4727.00,1.2336
4726.00,1.2471
4725.00,1.2601
4724.00,1.2727
4723.00,1.2848
4722.00,1.2965
4721.00,1.3079
4720.00,1.3189
4719.00,1.3295
4718.00,1.3397
4717.00,1.3493
4716.00,1.3584
4715.00,1.3671
4714.00,1.3753
4713.00,1.3829
4712.00,1.3899
4711.00,1.3964
4710.00,1.4025
4709.00,1.4082
4708.00,1.4136
4707.00,1.4187
4706.00,1.4233
4705.00,1.4274
4704.00,1.4310
4703.00,1.4341
4702.00,1.4366
4701.00,1.4386
4700.00,1.4402
4699.00,1.4412
4698.00,1.4419
4697.00,1.4423
4696.00,1.4423
4695.00,1.4422
4694.00,1.4418
4693.00,1.4409
4692.00,1.4395
4691.00,1.4376
4690.00,1.4352
4689.00,1.4324
4688.00,1.4292
4687.00,1.4255
4686.00,1.4214
4685.00,1.4167
4684.00,1.4115
4683.00,1.4059
4682.00,1.3999
4681.00,1.3935
4680.00,1.3865
4679.00,1.3789
4678.00,1.3706
4677.00,1.3618
4676.00,1.3527
4675.00,1.3434
4674.00,1.3337
4673.00,1.3235
4672.00,1.3127
4671.00,1.3014
4670.00,1.2896
4669.00,1.2773
4668.00,1.2644
4667.00,1.2509
4666.00,1.2370
4665.00,1.2225
4664.00,1.2076
4663.00,1.1921
4662.00,1.1761
4661.00,1.1596
4660.00,1.1427
4659.00,1.1254
4658.00,1.1079
4657.00,1.0901
4656.00,1.0720
4655.00,1.0537
4654.00,1.0353
4653.00,1.0167
4652.00,0.9981
4651.00,0.9795
4650.00,0.9609
4649.00,0.9423
4648.00,0.9239
4647.00,0.9059
4646.00,0.8882
4645.00,0.8710
4644.00,0.8544
4643.00,0.8383
4642.00,0.8229
4641.00,0.8082
4640.00,0.7944
4639.00,0.7814
4638.00,0.7695
4637.00,0.7585
4636.00,0.7485
4635.00,0.7397
4634.00,0.7320
4633.00,0.7256
4632.00,0.7205
4631.00,0.7168
4630.00,0.7144
4629.00,0.7133
4628.00,0.7136
4627.00,0.7152
4626.00,0.7181
4625.00,0.7224
4624.00,0.7279
4623.00,0.7345
4622.00,0.7423
4621.00,0.7511
4620.00,0.7609
4619.00,0.7716
4618.00,0.7832
4617.00,0.7956
4616.00,0.8088
4615.00,0.8226
4614.00,0.8370
4613.00,0.8518
4612.00,0.8672
4611.00,0.8829
4610.00,0.8990
4609.00,0.9154
4608.00,0.9320
4607.00,0.9490
4606.00,0.9662
4605.00,0.9836
4604.00,1.0011
4603.00,1.0186
4602.00,1.0361
4601.00,1.0536
4600.00,1.0710
4599.00,1.0885
4598.00,1.1059
4597.00,1.1232
4596.00,1.1403
4595.00,1.1572
4594.00,1.1740
4593.00,1.1905
4592.00,1.2067
4591.00,1.2224
4590.00,1.2378
4589.00,1.2527
4588.00,1.2671
4587.00,1.2811
4586.00,1.2947
4585.00,1.3080
4584.00,1.3209
4583.00,1.3333
4582.00,1.3453
4581.00,1.3567
4580.00,1.3675
4579.00,1.3778
4578.00,1.3877
4577.00,1.3974
4576.00,1.4065
4575.00,1.4151
4574.00,1.4230
4573.00,1.4303
4572.00,1.4371
4571.00,1.4435
4570.00,1.4494
4569.00,1.4547
4568.00,1.4595
4567.00,1.4637
4566.00,1.4676
4565.00,1.4713
4564.00,1.4748
4563.00,1.4779
4562.00,1.4805
4561.00,1.4823
4560.00,1.4834
4559.00,1.4841
4558.00,1.4845
4557.00,1.4846
4556.00,1.4844
4555.00,1.4839
4554.00,1.4829
4553.00,1.4813
4552.00,1.4790
4551.00,1.4761
4550.00,1.4727
4549.00,1.4690
4548.00,1.4650
4547.00,1.4606
4546.00,1.4556
4545.00,1.4501
4544.00,1.4440
4543.00,1.4375
4542.00,1.4307
4541.00,1.4236
4540.00,1.4159
4539.00,1.4077
4538.00,1.3990
4537.00,1.3899
4536.00,1.3807
4535.00,1.3712
4534.00,1.3613
4533.00,1.3510
4532.00,1.3401
4531.00,1.3287
4530.00,1.3169
4529.00,1.3047
4528.00,1.2920
4527.00,1.2789
4526.00,1.2652
4525.00,1.2507
4524.00,1.2355
4523.00,1.2194
4522.00,1.2027
4521.00,1.1856
4520.00,1.1680
4519.00,1.1502
4518.00,1.1321
4517.00,1.1136
4516.00,1.0947
4515.00,1.0755
4514.00,1.0562
4513.00,1.0368
4512.00,1.0174
4511.00,0.9980
4510.00,0.9788
4509.00,0.9597
4508.00,0.9408
4507.00,0.9223
4506.00,0.9042
4505.00,0.8867
4504.00,0.8699
4503.00,0.8538
4502.00,0.8385
4501.00,0.8240
4500.00,0.8106
4499.00,0.7982
4498.00,0.7869
4497.00,0.7767
4496.00,0.7677
4495.00,0.7600
4494.00,0.7537
4493.00,0.7489
4492.00,0.7456
4491.00,0.7438
4490.00,0.7434
4489.00,0.7444
4488.00,0.7468
4487.00,0.7506
4486.00,0.7558
4485.00,0.7623
4484.00,0.7699
4483.00,0.7787
4482.00,0.7885
4481.00,0.7992
4480.00,0.8109
4479.00,0.8235
4478.00,0.8370
4477.00,0.8512
4476.00,0.8661
4475.00,0.8815
4474.00,0.8975
4473.00,0.9138
4472.00,0.9305
4471.00,0.9475
4470.00,0.9648
4469.00,0.9824
4468.00,1.0001
4467.00,1.0180
4466.00,1.0360
4465.00,1.0542
4464.00,1.0725
4463.00,1.0908
4462.00,1.1092
4461.00,1.1276
4460.00,1.1460
4459.00,1.1643
4458.00,1.1824
4457.00,1.2003
4456.00,1.2179
4455.00,1.2352
4454.00,1.2524
4453.00,1.2693
4452.00,1.2859
4451.00,1.3020
4450.00,1.3177
4449.00,1.3328
4448.00,1.3473
4447.00,1.3611
4446.00,1.3744
4445.00,1.3871
4444.00,1.3993
4443.00,1.4110
4442.00,1.4221
4441.00,1.4327
4440.00,1.4428
4439.00,1.4521
4438.00,1.4607
4437.00,1.4685
4436.00,1.4757
4435.00,1.4825
4434.00,1.4888
4433.00,1.4947
4432.00,1.5001
4431.00,1.5053
4430.00,1.5103
4429.00,1.5153
4428.00,1.5198
4427.00,1.5237
4426.00,1.5269
4425.00,1.5295
4424.00,1.5319
4423.00,1.5343
4422.00,1.5368
4421.00,1.5391
4420.00,1.5411
4419.00,1.5426
4418.00,1.5435
4417.00,1.5439
4416.00,1.5437
4415.00,1.5429
4414.00,1.5417
4413.00,1.5402
4412.00,1.5384
4411.00,1.5363
4410.00,1.5338
4409.00,1.5309
4408.00,1.5277
4407.00,1.5242
4406.00,1.5203
4405.00,1.5159
4404.00,1.5111
4403.00,1.5058
4402.00,1.5003
4401.00,1.4944
4400.00,1.4882
4399.00,1.4817
4398.00,1.4749
4397.00,1.4678
4396.00,1.4602
4395.00,1.4519
4394.00,1.4427
4393.00,1.4327
4392.00,1.4220
4391.00,1.4108
4390.00,1.3991
4389.00,1.3870
4388.00,1.3745
4387.00,1.3615
4386.00,1.3482
4385.00,1.3345
4384.00,1.3204
4383.00,1.3059
4382.00,1.2908
4381.00,1.2753
4380.00,1.2596
4379.00,1.2438
4378.00,1.2280
4377.00,1.2123
4376.00,1.1965
4375.00,1.1807
4374.00,1.1650
4373.00,1.1495
4372.00,1.1343
4371.00,1.1193
4370.00,1.1047
4369.00,1.0903
4368.00,1.0760
4367.00,1.0617
4366.00,1.0474
4365.00,1.0331
4364.00,1.0185
4363.00,1.0037
4362.00,0.9886
4361.00,0.9733
4360.00,0.9577
4359.00,0.9421
4358.00,0.9266
4357.00,0.9114
4356.00,0.8966
4355.00,0.8823
4354.00,0.8689
4353.00,0.8564
4352.00,0.8451
4351.00,0.8349
4350.00,0.8262
4349.00,0.8189
4348.00,0.8131
4347.00,0.8089
4346.00,0.8064
4345.00,0.8055
4344.00,0.8063
4343.00,0.8087
4342.00,0.8128
4341.00,0.8184
4340.00,0.8254
4339.00,0.8338
4338.00,0.8436
4337.00,0.8545
4336.00,0.8666
4335.00,0.8797
4334.00,0.8937
4333.00,0.9086
4332.00,0.9242
4331.00,0.9406
4330.00,0.9575
4329.00,0.9750
4328.00,0.9929
4327.00,1.0112
4326.00,1.0297
4325.00,1.0483
4324.00,1.0671
4323.00,1.0858
4322.00,1.1046
4321.00,1.1232
4320.00,1.1416
4319.00,1.1598
4318.00,1.1778
4317.00,1.1954
4316.00,1.2127
4315.00,1.2298
4314.00,1.2467
4313.00,1.2635
4312.00,1.2800
4311.00,1.2964
4310.00,1.3125
4309.00,1.3282
4308.00,1.3436
4307.00,1.3586
4306.00,1.3732
4305.00,1.3875
4304.00,1.4014
4303.00,1.4148
4302.00,1.4278
4301.00,1.4403
4300.00,1.4521
4299.00,1.4632
4298.00,1.4736
4297.00,1.4837
4296.00,1.4935
4295.00,1.5030
4294.00,1.5122
4293.00,1.5208
4292.00,1.5288
4291.00,1.5360
4290.00,1.5427
4289.00,1.5490
4288.00,1.5548
4287.00,1.5600
4286.00,1.5648
4285.00,1.5691
4284.00,1.5729
4283.00,1.5762
4282.00,1.5789
4281.00,1.5812
4280.00,1.5830
4279.00,1.5842
4278.00,1.5850
4277.00,1.5853
4276.00,1.5854
4275.00,1.5851
4274.00,1.5844
4273.00,1.5835
4272.00,1.5822
4271.00,1.5806
4270.00,1.5787
4269.00,1.5762
4268.00,1.5730
4267.00,1.5694
4266.00,1.5653
4265.00,1.5606
4264.00,1.5554
4263.00,1.5495
4262.00,1.5431
4261.00,1.5362
4260.00,1.5290
4259.00,1.5214
4258.00,1.5135
4257.00,1.5051
4256.00,1.4961
4255.00,1.4865
4254.00,1.4762
4253.00,1.4653
4252.00,1.4539
4251.00,1.4419
4250.00,1.4294
4249.00,1.4163
4248.00,1.4027
4247.00,1.3884
4246.00,1.3734
4245.00,1.3579
4244.00,1.3419
4243.00,1.3252
4242.00,1.3080
4241.00,1.2901
4240.00,1.2716
4239.00,1.2524
4238.00,1.2326
4237.00,1.2123
4236.00,1.1916
4235.00,1.1705
4234.00,1.1490
4233.00,1.1272
4232.00,1.1051
4231.00,1.0829
4230.00,1.0605
4229.00,1.0382
4228.00,1.0159
4227.00,0.9940
4226.00,0.9724
4225.00,0.9512
4224.00,0.9305
4223.00,0.9103
4222.00,0.8909
4221.00,0.8724
4220.00,0.8548
4219.00,0.8384
4218.00,0.8230
4217.00,0.8089
4216.00,0.7960
4215.00,0.7846
4214.00,0.7746
4213.00,0.7662
4212.00,0.7594
4211.00,0.7543
4210.00,0.7508
4209.00,0.7492
4208.00,0.7492
4207.00,0.7511
4206.00,0.7546
4205.00,0.7598
4204.00,0.7665
4203.00,0.7748
4202.00,0.7846
4201.00,0.7957
4200.00,0.8080
4199.00,0.8215
4198.00,0.8360
4197.00,0.8514
4196.00,0.8677
4195.00,0.8846
4194.00,0.9022
4193.00,0.9204
4192.00,0.9391
4191.00,0.9583
4190.00,0.9780
4189.00,0.9979
4188.00,1.0182
4187.00,1.0386
4186.00,1.0592
4185.00,1.0799
4184.00,1.1008
4183.00,1.1217
4182.00,1.1425
4181.00,1.1633
4180.00,1.1840
4179.00,1.2045
4178.00,1.2248
4177.00,1.2449
4176.00,1.2648
4175.00,1.2842
4174.00,1.3031
4173.00,1.3216
4172.00,1.3396
4171.00,1.3572
4170.00,1.3741
4169.00,1.3905
4168.00,1.4064
4167.00,1.4219
4166.00,1.4371
4165.00,1.4519
4164.00,1.4660
4163.00,1.4794
4162.00,1.4919
4161.00,1.5037
4160.00,1.5150
4159.00,1.5258
4158.00,1.5362
4157.00,1.5463
4156.00,1.5559
4155.00,1.5649
4154.00,1.5732
4153.00,1.5808
4152.00,1.5878
4151.00,1.5945
4150.00,1.6009
4149.00,1.6070
4148.00,1.6126
4147.00,1.6176
4146.00,1.6219
4145.00,1.6257
4144.00,1.6290
4143.00,1.6320
4142.00,1.6347
4141.00,1.6370
4140.00,1.6388
4139.00,1.6400
4138.00,1.6408
4137.00,1.6412
4136.00,1.6413
4135.00,1.6411
4134.00,1.6404
4133.00,1.6390
4132.00,1.6370
4131.00,1.6347
4130.00,1.6322
4129.00,1.6292
4128.00,1.6256
4127.00,1.6212
4126.00,1.6163
4125.00,1.6110
4124.00,1.6054
4123.00,1.5997
4122.00,1.5935
4121.00,1.5869
4120.00,1.5795
4119.00,1.5715
4118.00,1.5628
4117.00,1.5537
4116.00,1.5439
4115.00,1.5338
4114.00,1.5231
4113.00,1.5120
4112.00,1.5002
4111.00,1.4879
4110.00,1.4750
4109.00,1.4615
4108.00,1.4473
4107.00,1.4323
4106.00,1.4168
4105.00,1.4006
4104.00,1.3839
4103.00,1.3664
4102.00,1.3483
4101.00,1.3294
4100.00,1.3099
4099.00,1.2898
4098.00,1.2691
4097.00,1.2479
4096.00,1.2262
4095.00,1.2042
4094.00,1.1818
4093.00,1.1590
4092.00,1.1360
4091.00,1.1126
4090.00,1.0892
4089.00,1.0658
4088.00,1.0427
4087.00,1.0199
4086.00,0.9975
4085.00,0.9758
4084.00,0.9548
4083.00,0.9345
4082.00,0.9152
4081.00,0.8968
4080.00,0.8795
4079.00,0.8633
4078.00,0.8485
4077.00,0.8350
4076.00,0.8230
4075.00,0.8126
4074.00,0.8037
4073.00,0.7966
4072.00,0.7912
4071.00,0.7876
4070.00,0.7859
4069.00,0.7861
4068.00,0.7881
4067.00,0.7919
4066.00,0.7974
4065.00,0.8046
4064.00,0.8134
4063.00,0.8236
4062.00,0.8352
4061.00,0.8480
4060.00,0.8619
4059.00,0.8769
4058.00,0.8930
4057.00,0.9100
4056.00,0.9279
4055.00,0.9465
4054.00,0.9659
4053.00,0.9858
4052.00,1.0063
4051.00,1.0272
4050.00,1.0486
4049.00,1.0703
4048.00,1.0922
4047.00,1.1141
4046.00,1.1360
4045.00,1.1581
4044.00,1.1802
4043.00,1.2024
4042.00,1.2245
4041.00,1.2464
4040.00,1.2681
4039.00,1.2895
4038.00,1.3106
4037.00,1.3313
4036.00,1.3514
4035.00,1.3709
4034.00,1.3896
4033.00,1.4076
4032.00,1.4250
4031.00,1.4417
4030.00,1.4579
4029.00,1.4733
4028.00,1.4880
4027.00,1.5020
4026.00,1.5153
4025.00,1.5281
4024.00,1.5404
4023.00,1.5522
4022.00,1.5634
4021.00,1.5742
4020.00,1.5845
4019.00,1.5943
4018.00,1.6037
4017.00,1.6128
4016.00,1.6217
4015.00,1.6302
4014.00,1.6381
4013.00,1.6456
4012.00,1.6526
4011.00,1.6592
4010.00,1.6653
4009.00,1.6709
4008.00,1.6760
4007.00,1.6807
4006.00,1.6850
4005.00,1.6888
4004.00,1.6919
4003.00,1.6944
4002.00,1.6967
4001.00,1.6989
4000.00,1.7009
3999.00,1.7023
3998.00,1.7028
3997.00,1.7024
3996.00,1.7015
3995.00,1.7005
3994.00,1.6996
3993.00,1.6987
3992.00,1.6973
3991.00,1.6951
3990.00,1.6920
3989.00,1.6882
3988.00,1.6839
3987.00,1.6794
3986.00,1.6748
3985.00,1.6697
3984.00,1.6639
3983.00,1.6575
3982.00,1.6508
3981.00,1.6440
3980.00,1.6370
3979.00,1.6297
3978.00,1.6218
3977.00,1.6134
3976.00,1.6043
3975.00,1.5946
3974.00,1.5844
3973.00,1.5736
3972.00,1.5623
3971.00,1.5503
3970.00,1.5376
3969.00,1.5241
3968.00,1.5100
3967.00,1.4952
3966.00,1.4798
3965.00,1.4634
3964.00,1.4462
3963.00,1.4281
3962.00,1.4092
3961.00,1.3897
3960.00,1.3696
3959.00,1.3489
3958.00,1.3277
3957.00,1.3056
3956.00,1.2828
3955.00,1.2592
3954.00,1.2350
3953.00,1.2104
3952.00,1.1855
3951.00,1.1603
3950.00,1.1348
3949.00,1.1093
3948.00,1.0839
3947.00,1.0590
3946.00,1.0345
3945.00,1.0103
3944.00,0.9867
3943.00,0.9638
3942.00,0.9417
3941.00,0.9206
3940.00,0.9004
3939.00,0.8816
3938.00,0.8643
3937.00,0.8488
3936.00,0.8349
3935.00,0.8227
3934.00,0.8123
3933.00,0.8035
3932.00,0.7966
3931.00,0.7916
3930.00,0.7888
3929.00,0.7883
3928.00,0.7897
3927.00,0.7930
3926.00,0.7982
3925.00,0.8057
3924.00,0.8151
3923.00,0.8260
3922.00,0.8384
3921.00,0.8523
3920.00,0.8677
3919.00,0.8845
3918.00,0.9027
3917.00,0.9222
3916.00,0.9428
3915.00,0.9638
3914.00,0.9848
3913.00,1.0057
3912.00,1.0267
3911.00,1.0479
3910.00,1.0695
3909.00,1.0911
3908.00,1.1124
3907.00,1.1332
3906.00,1.1538
3905.00,1.1755
3904.00,1.1989
3903.00,1.2235
3902.00,1.2485
3901.00,1.2733
3900.00,1.2981
3899.00,1.3227
3898.00,1.3467
3897.00,1.3695
3896.00,1.3909
3895.00,1.4108
3894.00,1.4288
3893.00,1.4458
3892.00,1.4632
3891.00,1.4820
3890.00,1.5014
3889.00,1.5192
3888.00,1.5346
3887.00,1.5488
3886.00,1.5638
3885.00,1.5797
3884.00,1.5950
3883.00,1.6082
3882.00,1.6197
3881.00,1.6309
3880.00,1.6428
3879.00,1.6547
3878.00,1.6653
3877.00,1.6740
3876.00,1.6817
3875.00,1.6900
3874.00,1.6987
3873.00,1.7058
3872.00,1.7109
3871.00,1.7157
3870.00,1.7220
3869.00,1.7294
3868.00,1.7360
3867.00,1.7409
3866.00,1.7445
3865.00,1.7480
3864.00,1.7517
3863.00,1.7549
3862.00,1.7568
3861.00,1.7570
3860.00,1.7559
3859.00,1.7550
3858.00,1.7551
3857.00,1.7556
3856.00,1.7548
3855.00,1.7531
3854.00,1.7517
3853.00,1.7499
3852.00,1.7473
3851.00,1.7443
3850.00,1.7416
3849.00,1.7394
3848.00,1.7374
3847.00,1.7346
3846.00,1.7303
3845.00,1.7247
3844.00,1.7184
3843.00,1.7117
3842.00,1.7041
3841.00,1.6954
3840.00,1.6858
3839.00,1.6759
3838.00,1.6658
3837.00,1.6556
3836.00,1.6451
3835.00,1.6342
3834.00,1.6226
3833.00,1.6106
3832.00,1.5986
3831.00,1.5864
3830.00,1.5731
3829.00,1.5579
3828.00,1.5410
3827.00,1.5235
3826.00,1.5065
3825.00,1.4898
3824.00,1.4718
3823.00,1.4514
3822.00,1.4296
3821.00,1.4072
3820.00,1.3846
3819.00,1.3616
3818.00,1.3378
3817.00,1.3130
3816.00,1.2872
3815.00,1.2601
3814.00,1.2324
3813.00,1.2052
3812.00,1.1792
3811.00,1.1543
3810.00,1.1291
3809.00,1.1025
3808.00,1.0747
3807.00,1.0467
3806.00,1.0199
3805.00,0.9943
3804.00,0.9693
3803.00,0.9449
3802.00,0.9215
3801.00,0.8991
3800.00,0.8780
3799.00,0.8586
3798.00,0.8418
3797.00,0.8279
3796.00,0.8166
3795.00,0.8076
3794.00,0.8004
3793.00,0.7953
3792.00,0.7926
3791.00,0.7924
3790.00,0.7948
3789.00,0.7995
3788.00,0.8061
3787.00,0.8142
3786.00,0.8243
3785.00,0.8366
3784.00,0.8514
3783.00,0.8676
3782.00,0.8845
3781.00,0.9024
3780.00,0.9222
3779.00,0.9441
3778.00,0.9670
3777.00,0.9900
3776.00,1.0129
3775.00,1.0363
3774.00,1.0600
3773.00,1.0835
3772.00,1.1066
3771.00,1.1306
3770.00,1.1564
3769.00,1.1837
3768.00,1.2108
3767.00,1.2369
3766.00,1.2629
3765.00,1.2893
3764.00,1.3157
3763.00,1.3409
3762.00,1.3646
3761.00,1.3873
3760.00,1.4097
3759.00,1.4321
3758.00,1.4544
3757.00,1.4762
3756.00,1.4969
3755.00,1.5157
3754.00,1.5327
3753.00,1.5482
3752.00,1.5629
3751.00,1.5777
3750.00,1.5939
3749.00,1.6112
3748.00,1.6271
3747.00,1.6394
3746.00,1.6495
3745.00,1.6605
3744.00,1.6725
3743.00,1.6831
3742.00,1.6900
3741.00,1.6935
3740.00,1.6943
3739.00,1.6930
3738.00,1.6900
3737.00,1.6866
3736.00,1.6829
3735.00,1.6800
3734.00,1.6730
3733.00,1.6720
3732.00,1.6590
3731.00,1.6684
3730.00,1.6380
3729.00,1.7298
3728.00,1.8477
3727.00,1.8123
3726.00,1.8356
3725.00,1.8268
3724.00,1.8345
3723.00,1.8326
3722.00,1.8351
3721.00,1.8356
3720.00,1.8355
3719.00,1.8343
3718.00,1.8325
3717.00,1.8309
3716.00,1.8294
3715.00,1.8279
3714.00,1.8245
3713.00,1.8224
3712.00,1.8145
3711.00,1.8148
3710.00,1.7991
3709.00,1.8131
3708.00,1.7472
3707.00,1.6807
3706.00,1.6783
3705.00,1.6562
3704.00,1.6456
3703.00,1.6301
3702.00,1.6189
3701.00,1.6077
3700.00,1.5980
3699.00,1.5885
3698.00,1.5792
3697.00,1.5702
3696.00,1.5611
3695.00,1.5522
3694.00,1.5436
3693.00,1.5351
3692.00,1.5256
3691.00,1.5148
3690.00,1.5028
3689.00,1.4901
3688.00,1.4765
3687.00,1.4622
3686.00,1.4479
3685.00,1.4338
3684.00,1.4199
3683.00,1.4052
3682.00,1.3893
3681.00,1.3723
3680.00,1.3555
3679.00,1.3386
3678.00,1.3203
3677.00,1.3005
3676.00,1.2801
3675.00,1.2604
3674.00,1.2421
3673.00,1.2253
3672.00,1.2095
3671.00,1.1946
3670.00,1.1808
3669.00,1.1678
3668.00,1.1558
3667.00,1.1452
3666.00,1.1362
3665.00,1.1286
3664.00,1.1221
3663.00,1.1163
3662.00,1.1115
3661.00,1.1081
3660.00,1.1060
3659.00,1.1046
3658.00,1.1038
3657.00,1.1039
3656.00,1.1053
3655.00,1.1079
3654.00,1.1116
3653.00,1.1162
3652.00,1.1218
3651.00,1.1287
3650.00,1.1371
3649.00,1.1466
3648.00,1.1571
3647.00,1.1682
3646.00,1.1799
3645.00,1.1919
3644.00,1.2043
3643.00,1.2169
3642.00,1.2298
3641.00,1.2425
3640.00,1.2546
3639.00,1.2665
3638.00,1.2780
3637.00,1.2884
3636.00,1.2975
3635.00,1.3059
3634.00,1.3146
3633.00,1.3239
3632.00,1.3327
3631.00,1.3408
3630.00,1.3503
3629.00,1.3629
3628.00,1.3781
3627.00,1.3937
3626.00,1.4082
3625.00,1.4222
3624.00,1.4369
3623.00,1.4527
3622.00,1.4696
3621.00,1.4877
3620.00,1.5076
3619.00,1.5300
3618.00,1.5535
3617.00,1.5786
3616.00,1.6008
3615.00,1.6274
3614.00,1.6430
3613.00,1.6834
3612.00,1.7308
3611.00,1.7351
3610.00,1.7523
3609.00,1.7635
3608.00,1.7758
3607.00,1.7909
3606.00,1.7959
3605.00,1.8203
3604.00,1.7910
3603.00,1.7444
3602.00,1.7611
3601.00,1.7600
3600.00,1.7694
3599.00,1.7738
3598.00,1.7815
3597.00,1.7882
3596.00,1.7958
3595.00,1.8037
3594.00,1.8118
3593.00,1.8204
3592.00,1.8295
3591.00,1.8389
3590.00,1.8480
3589.00,1.8565
3588.00,1.8647
3587.00,1.8727
3586.00,1.8809
3585.00,1.8891
3584.00,1.8971
3583.00,1.9041
3582.00,1.9101
3581.00,1.9154
3580.00,1.9204
3579.00,1.9250
3578.00,1.9285
3577.00,1.9309
3576.00,1.9320
3575.00,1.9319
3574.00,1.9307
3573.00,1.9287
3572.00,1.9265
3571.00,1.9246
3570.00,1.9225
3569.00,1.9198
3568.00,1.9166
3567.00,1.9128
3566.00,1.9086
3565.00,1.9041
3564.00,1.8994
3563.00,1.8944
3562.00,1.8891
3561.00,1.8831
3560.00,1.8764
3559.00,1.8690
3558.00,1.8612
3557.00,1.8534
3556.00,1.8455
3555.00,1.8371
3554.00,1.8280
3553.00,1.8182
3552.00,1.8078
3551.00,1.7971
3550.00,1.7861
3549.00,1.7749
3548.00,1.7632
3547.00,1.7508
3546.00,1.7379
3545.00,1.7245
3544.00,1.7108
3543.00,1.6970
3542.00,1.6830
3541.00,1.6685
3540.00,1.6534
3539.00,1.6377
3538.00,1.6214
3537.00,1.6047
3536.00,1.5875
3535.00,1.5696
3534.00,1.5511
3533.00,1.5322
3532.00,1.5129
3531.00,1.4932
3530.00,1.4730
3529.00,1.4524
3528.00,1.4317
3527.00,1.4108
3526.00,1.3897
3525.00,1.3685
3524.00,1.3472
3523.00,1.3261
3522.00,1.3054
3521.00,1.2853
3520.00,1.2657
3519.00,1.2468
3518.00,1.2286
3517.00,1.2115
3516.00,1.1956
3515.00,1.1809
3514.00,1.1678
3513.00,1.1561
3512.00,1.1459
3511.00,1.1373
3510.00,1.1305
3509.00,1.1257
3508.00,1.1229
3507.00,1.1220
3506.00,1.1229
3505.00,1.1257
3504.00,1.1304
3503.00,1.1370
3502.00,1.1455
3501.00,1.1557
3500.00,1.1673
3499.00,1.1803
3498.00,1.1946
3497.00,1.2101
3496.00,1.2267
3495.00,1.2443
3494.00,1.2627
3493.00,1.2819
3492.00,1.3019
3491.00,1.3225
3490.00,1.3435
3489.00,1.3648
3488.00,1.3866
3487.00,1.4086
3486.00,1.4308
3485.00,1.4529
3484.00,1.4748
3483.00,1.4967
3482.00,1.5187
3481.00,1.5408
3480.00,1.5629
3479.00,1.5847
3478.00,1.6060
3477.00,1.6267
3476.00,1.6466
3475.00,1.6658
3474.00,1.6843
3473.00,1.7025
3472.00,1.7201
3471.00,1.7374
3470.00,1.7542
3469.00,1.7708
3468.00,1.7871
3467.00,1.8029
3466.00,1.8179
3465.00,1.8319
3464.00,1.8449
3463.00,1.8571
3462.00,1.8686
3461.00,1.8794
3460.00,1.8897
3459.00,1.8996
3458.00,1.9093
3457.00,1.9187
3456.00,1.9277
3455.00,1.9360
3454.00,1.9435
3453.00,1.9505
3452.00,1.9573
3451.00,1.9638
3450.00,1.9696
3449.00,1.9745
3448.00,1.9789
3447.00,1.9831
3446.00,1.9875
3445.00,1.9920
3444.00,1.9962
3443.00,1.9994
3442.00,2.0016
3441.00,2.0029
3440.00,2.0036
3439.00,2.0037
3438.00,2.0035
3437.00,2.0032
3436.00,2.0032
3435.00,2.0032
3434.00,2.0026
3433.00,2.0010
3432.00,1.9986
3431.00,1.9957
3430.00,1.9924
3429.00,1.9886
3428.00,1.9843
3427.00,1.9799
3426.00,1.9753
3425.00,1.9703
3424.00,1.9647
3423.00,1.9584
3422.00,1.9515
3421.00,1.9440
3420.00,1.9359
3419.00,1.9270
3418.00,1.9176
3417.00,1.9075
3416.00,1.8969
3415.00,1.8860
3414.00,1.8749
3413.00,1.8637
3412.00,1.8520
3411.00,1.8396
3410.00,1.8265
3409.00,1.8128
3408.00,1.7986
3407.00,1.7836
3406.00,1.7678
3405.00,1.7514
3404.00,1.7345
3403.00,1.7171
3402.00,1.6990
3401.00,1.6802
3400.00,1.6606
3399.00,1.6400
3398.00,1.6185
3397.00,1.5961
3396.00,1.5730
3395.00,1.5492
3394.00,1.5247
3393.00,1.4996
3392.00,1.4740
3391.00,1.4480
3390.00,1.4217
3389.00,1.3952
3388.00,1.3686
3387.00,1.3420
3386.00,1.3156
3385.00,1.2895
3384.00,1.2640
3383.00,1.2392
3382.00,1.2153
3381.00,1.1925
3380.00,1.1710
3379.00,1.1507
3378.00,1.1319
3377.00,1.1148
3376.00,1.0994
3375.00,1.0860
3374.00,1.0748
3373.00,1.0660
3372.00,1.0596
3371.00,1.0557
3370.00,1.0543
3369.00,1.0553
3368.00,1.0588
3367.00,1.0646
3366.00,1.0726
3365.00,1.0829
3364.00,1.0952
3363.00,1.1094
3362.00,1.1254
3361.00,1.1430
3360.00,1.1620
3359.00,1.1822
3358.00,1.2033
3357.00,1.2253
3356.00,1.2481
3355.00,1.2717
3354.00,1.2959
3353.00,1.3206
3352.00,1.3458
3351.00,1.3712
3350.00,1.3969
3349.00,1.4226
3348.00,1.4484
3347.00,1.4741
3346.00,1.4997
3345.00,1.5250
3344.00,1.5499
3343.00,1.5742
3342.00,1.5979
3341.00,1.6212
3340.00,1.6442
3339.00,1.6668
3338.00,1.6892
3337.00,1.7109
3336.00,1.7317
3335.00,1.7515
3334.00,1.7703
3333.00,1.7886
3332.00,1.8064
3331.00,1.8235
3330.00,1.8394
3329.00,1.8545
3328.00,1.8693
3327.00,1.8838
3326.00,1.8977
3325.00,1.9106
3324.00,1.9224
3323.00,1.9333
3322.00,1.9439
3321.00,1.9543
3320.00,1.9644
3319.00,1.9741
3318.00,1.9829
3317.00,1.9909
3316.00,1.9983
3315.00,2.0052
3314.00,2.0122
3313.00,2.0193
3312.00,2.0263
3311.00,2.0326
3310.00,2.0379
3309.00,2.0425
3308.00,2.0467
3307.00,2.0503
3306.00,2.0532
3305.00,2.0557
3304.00,2.0582
3303.00,2.0607
3302.00,2.0630
3301.00,2.0647
3300.00,2.0658
3299.00,2.0662
3298.00,2.0659
3297.00,2.0651
3296.00,2.0638
3295.00,2.0621
3294.00,2.0599
3293.00,2.0570
3292.00,2.0536
3291.00,2.0500
3290.00,2.0463
3289.00,2.0427
3288.00,2.0388
3287.00,2.0341
3286.00,2.0285
3285.00,2.0222
3284.00,2.0154
3283.00,2.0081
3282.00,2.0004
3281.00,1.9922
3280.00,1.9837
3279.00,1.9747
3278.00,1.9651
3277.00,1.9547
3276.00,1.9436
3275.00,1.9319
3274.00,1.9197
3273.00,1.9071
3272.00,1.8940
3271.00,1.8803
3270.00,1.8659
3269.00,1.8510
3268.00,1.8355
3267.00,1.8192
3266.00,1.8020
3265.00,1.7841
3264.00,1.7656
3263.00,1.7463
3262.00,1.7262
3261.00,1.7051
3260.00,1.6832
3259.00,1.6605
3258.00,1.6372
3257.00,1.6132
3256.00,1.5885
3255.00,1.5631
3254.00,1.5370
3253.00,1.5105
3252.00,1.4836
3251.00,1.4566
3250.00,1.4294
3249.00,1.4022
3248.00,1.3753
3247.00,1.3486
3246.00,1.3225
3245.00,1.2971
3244.00,1.2727
3243.00,1.2495
3242.00,1.2276
3241.00,1.2072
3240.00,1.1884
3239.00,1.1714
3238.00,1.1563
3237.00,1.1434
3236.00,1.1328
3235.00,1.1248
3234.00,1.1192
3233.00,1.1163
3232.00,1.1160
3231.00,1.1184
3230.00,1.1234
3229.00,1.1309
3228.00,1.1408
3227.00,1.1530
3226.00,1.1673
3225.00,1.1836
3224.00,1.2016
3223.00,1.2213
3222.00,1.2424
3221.00,1.2647
3220.00,1.2882
3219.00,1.3127
3218.00,1.3381
3217.00,1.3643
3216.00,1.3912
3215.00,1.4185
3214.00,1.4461
3213.00,1.4739
3212.00,1.5018
3211.00,1.5296
3210.00,1.5572
3209.00,1.5845
3208.00,1.6114
3207.00,1.6377
3206.00,1.6632
3205.00,1.6876
3204.00,1.7107
3203.00,1.7322
3202.00,1.7523
3201.00,1.7710
3200.00,1.7886
3199.00,1.8053
3198.00,1.8214
3197.00,1.8373
3196.00,1.8533
3195.00,1.8694
3194.00,1.8857
3193.00,1.9020
3192.00,1.9178
3191.00,1.9331
3190.00,1.9478
3189.00,1.9623
3188.00,1.9766
3187.00,1.9903
3186.00,2.0031
3185.00,2.0150
3184.00,2.0264
3183.00,2.0375
3182.00,2.0484
3181.00,2.0588
3180.00,2.0686
3179.00,2.0778
3178.00,2.0869
3177.00,2.0961
3176.00,2.1051
3175.00,2.1134
3174.00,2.1206
3173.00,2.1271
3172.00,2.1334
3171.00,2.1402
3170.00,2.1476
3169.00,2.1554
3168.00,2.1630
3167.00,2.1698
3166.00,2.1756
3165.00,2.1801
3164.00,2.1828
3163.00,2.1828
3162.00,2.1798
3161.00,2.1745
3160.00,2.1685
3159.00,2.1632
3158.00,2.1590
3157.00,2.1559
3156.00,2.1535
3155.00,2.1510
3154.00,2.1480
3153.00,2.1446
3152.00,2.1410
3151.00,2.1372
3150.00,2.1333
3149.00,2.1290
3148.00,2.1241
3147.00,2.1185
3146.00,2.1121
3145.00,2.1052
3144.00,2.0978
3143.00,2.0898
3142.00,2.0813
3141.00,2.0721
3140.00,2.0626
3139.00,2.0527
3138.00,2.0424
3137.00,2.0316
3136.00,2.0202
3135.00,2.0084
3134.00,1.9963
3133.00,1.9836
3132.00,1.9701
3131.00,1.9559
3130.00,1.9410
3129.00,1.9253
3128.00,1.9091
3127.00,1.8921
3126.00,1.8746
3125.00,1.8564
3124.00,1.8374
3123.00,1.8177
3122.00,1.7973
3121.00,1.7764
3120.00,1.7552
3119.00,1.7334
3118.00,1.7108
3117.00,1.6876
3116.00,1.6640
3115.00,1.6399
3114.00,1.6155
3113.00,1.5908
3112.00,1.5659
3111.00,1.5410
3110.00,1.5160
3109.00,1.4912
3108.00,1.4666
3107.00,1.4425
3106.00,1.4191
3105.00,1.3969
3104.00,1.3760
3103.00,1.3565
3102.00,1.3385
3101.00,1.3222
3100.00,1.3077
3099.00,1.2952
3098.00,1.2847
3097.00,1.2764
3096.00,1.2705
3095.00,1.2670
3094.00,1.2660
3093.00,1.2673
3092.00,1.2710
3091.00,1.2769
3090.00,1.2850
3089.00,1.2951
3088.00,1.3072
3087.00,1.3211
3086.00,1.3366
3085.00,1.3537
3084.00,1.3722
3083.00,1.3921
3082.00,1.4132
3081.00,1.4351
3080.00,1.4577
3079.00,1.4810
3078.00,1.5048
3077.00,1.5291
3076.00,1.5538
3075.00,1.5788
3074.00,1.6038
3073.00,1.6288
3072.00,1.6537
3071.00,1.6786
3070.00,1.7033
3069.00,1.7279
3068.00,1.7523
3067.00,1.7761
3066.00,1.7990
3065.00,1.8211
3064.00,1.8428
3063.00,1.8644
3062.00,1.8858
3061.00,1.9066
3060.00,1.9267
3059.00,1.9459
3058.00,1.9642
3057.00,1.9816
3056.00,1.9983
3055.00,2.0145
3054.00,2.0303
3053.00,2.0459
3052.00,2.0610
3051.00,2.0749
3050.00,2.0877
3049.00,2.0998
3048.00,2.1118
3047.00,2.1239
3046.00,2.1353
3045.00,2.1456
3044.00,2.1550
3043.00,2.1641
3042.00,2.1732
3041.00,2.1824
3040.00,2.1917
3039.00,2.2008
3038.00,2.2091
3037.00,2.2162
3036.00,2.2222
3035.00,2.2275
3034.00,2.2324
3033.00,2.2369
3032.00,2.2408
3031.00,2.2442
3030.00,2.2474
3029.00,2.2506
3028.00,2.2536
3027.00,2.2564
3026.00,2.2588
3025.00,2.2608
3024.00,2.2623
3023.00,2.2631
3022.00,2.2633
3021.00,2.2629
3020.00,2.2622
3019.00,2.2612
3018.00,2.2599
3017.00,2.2585
3016.00,2.2574
3015.00,2.2566
3014.00,2.2555
3013.00,2.2543
3012.00,2.2534
3011.00,2.2533
3010.00,2.2538
3009.00,2.2541
3008.00,2.2539
3007.00,2.2535
3006.00,2.2535
3005.00,2.2542
3004.00,2.2551
3003.00,2.2549
3002.00,2.2527
3001.00,2.2485
3000.00,2.2432
2999.00,2.2376
2998.00,2.2316
2997.00,2.2241
2996.00,2.2145
2995.00,2.2031
2994.00,2.1907
2993.00,2.1774
2992.00,2.1630
2991.00,2.1473
2990.00,2.1308
2989.00,2.1139
2988.00,2.0966
2987.00,2.0790
2986.00,2.0607
2985.00,2.0414
2984.00,2.0214
2983.00,2.0013
2982.00,1.9816
2981.00,1.9626
2980.00,1.9445
2979.00,1.9273
2978.00,1.9117
2977.00,1.8984
2976.00,1.8877
2975.00,1.8793
2974.00,1.8732
2973.00,1.8695
2972.00,1.8686
2971.00,1.8709
2970.00,1.8761
2969.00,1.8835
2968.00,1.8925
2967.00,1.9028
2966.00,1.9141
2965.00,1.9262
2964.00,1.9387
2963.00,1.9514
2962.00,1.9642
2961.00,1.9774
2960.00,1.9912
2959.00,2.0062
2958.00,2.0228
2957.00,2.0410
2956.00,2.0606
2955.00,2.0816
2954.00,2.1040
2953.00,2.1279
2952.00,2.1535
2951.00,2.1802
2950.00,2.2081
2949.00,2.2370
2948.00,2.2665
2947.00,2.2950
2946.00,2.3200
2945.00,2.3382
2944.00,2.3470
2943.00,2.3449
2942.00,2.3325
2941.00,2.3117
2940.00,2.2845
2939.00,2.2531
2938.00,2.2195
2937.00,2.1855
2936.00,2.1526
2935.00,2.1209
2934.00,2.0903
2933.00,2.0606
2932.00,2.0321
2931.00,2.0050
2930.00,1.9797
2929.00,1.9563
2928.00,1.9351
2927.00,1.9163
2926.00,1.8996
2925.00,1.8852
2924.00,1.8729
2923.00,1.8631
2922.00,1.8557
2921.00,1.8509
2920.00,1.8486
2919.00,1.8490
2918.00,1.8523
2917.00,1.8586
2916.00,1.8677
2915.00,1.8789
2914.00,1.8915
2913.00,1.9053
2912.00,1.9201
2911.00,1.9358
2910.00,1.9519
2909.00,1.9680
2908.00,1.9842
2907.00,2.0007
2906.00,2.0177
2905.00,2.0352
2904.00,2.0526
2903.00,2.0695
2902.00,2.0857
2901.00,2.1012
2900.00,2.1161
2899.00,2.1303
2898.00,2.1439
2897.00,2.1571
2896.00,2.1702
2895.00,2.1833
2894.00,2.1965
2893.00,2.2096
2892.00,2.2222
2891.00,2.2340
2890.00,2.2451
2889.00,2.2557
2888.00,2.2662
2887.00,2.2769
2886.00,2.2874
2885.00,2.2970
2884.00,2.3052
2883.00,2.3127
2882.00,2.3206
2881.00,2.3293
2880.00,2.3380
2879.00,2.3461
2878.00,2.3533
2877.00,2.3599
2876.00,2.3659
2875.00,2.3708
2874.00,2.3745
2873.00,2.3776
2872.00,2.3808
2871.00,2.3847
2870.00,2.3890
2869.00,2.3926
2868.00,2.3943
2867.00,2.3937
2866.00,2.3918
2865.00,2.3902
2864.00,2.3889
2863.00,2.3873
2862.00,2.3844
2861.00,2.3798
2860.00,2.3738
2859.00,2.3674
2858.00,2.3615
2857.00,2.3563
2856.00,2.3508
2855.00,2.3440
2854.00,2.3361
2853.00,2.3281
2852.00,2.3207
2851.00,2.3132
2850.00,2.3048
2849.00,2.2957
2848.00,2.2866
2847.00,2.2779
2846.00,2.2688
2845.00,2.2584
2844.00,2.2466
2843.00,2.2343
2842.00,2.2223
2841.00,2.2103
2840.00,2.1977
2839.00,2.1838
2838.00,2.1686
2837.00,2.1525
2836.00,2.1359
2835.00,2.1187
2834.00,2.1006
2833.00,2.0817
2832.00,2.0618
2831.00,2.0410
2830.00,2.0193
2829.00,1.9969
2828.00,1.9736
2827.00,1.9490
2826.00,1.9228
2825.00,1.8949
2824.00,1.8658
2823.00,1.8355
2822.00,1.8041
2821.00,1.7714
2820.00,1.7374
2819.00,1.7021
2818.00,1.6657
2817.00,1.6284
2816.00,1.5903
2815.00,1.5516
2814.00,1.5127
2813.00,1.4740
2812.00,1.4360
2811.00,1.3990
2810.00,1.3632
2809.00,1.3293
2808.00,1.2977
2807.00,1.2687
2806.00,1.2429
2805.00,1.2206
2804.00,1.2022
2803.00,1.1880
2802.00,1.1781
2801.00,1.1724
2800.00,1.1707
2799.00,1.1731
2798.00,1.1793
2797.00,1.1893
2796.00,1.2029
2795.00,1.2199
2794.00,1.2401
2793.00,1.2631
2792.00,1.2886
2791.00,1.3162
2790.00,1.3457
2789.00,1.3768
2788.00,1.4092
2787.00,1.4428
2786.00,1.4773
2785.00,1.5123
2784.00,1.5477
2783.00,1.5832
2782.00,1.6189
2781.00,1.6548
2780.00,1.6906
2779.00,1.7258
2778.00,1.7600
2777.00,1.7934
2776.00,1.8260
2775.00,1.8579
2774.00,1.8889
2773.00,1.9184
2772.00,1.9464
2771.00,1.9730
2770.00,1.9988
2769.00,2.0239
2768.00,2.0480
2767.00,2.0707
2766.00,2.0920
2765.00,2.1123
2764.00,2.1321
2763.00,2.1514
2762.00,2.1700
2761.00,2.1877
2760.00,2.2042
2759.00,2.2196
2758.00,2.2341
2757.00,2.2482
2756.00,2.2617
2755.00,2.2741
2754.00,2.2854
2753.00,2.2960
2752.00,2.3060
2751.00,2.3154
2750.00,2.3239
2749.00,2.3314
2748.00,2.3383
2747.00,2.3450
2746.00,2.3519
2745.00,2.3587
2744.00,2.3652
2743.00,2.3712
2742.00,2.3769
2741.00,2.3827
2740.00,2.3880
2739.00,2.3922
2738.00,2.3948
2737.00,2.3966
2736.00,2.3983
2735.00,2.4000
2734.00,2.4012
2733.00,2.4018
2732.00,2.4023
2731.00,2.4033
2730.00,2.4049
2729.00,2.4068
2728.00,2.4077
2727.00,2.4067
2726.00,2.4036
2725.00,2.3987
2724.00,2.3926
2723.00,2.3863
2722.00,2.3808
2721.00,2.3764
2720.00,2.3725
2719.00,2.3682
2718.00,2.3632
2717.00,2.3576
2716.00,2.3518
2715.00,2.3456
2714.00,2.3387
2713.00,2.3305
2712.00,2.3207
2711.00,2.3095
2710.00,2.2973
2709.00,2.2846
2708.00,2.2716
2707.00,2.2580
2706.00,2.2441
2705.00,2.2300
2704.00,2.2156
2703.00,2.2005
2702.00,2.1847
2701.00,2.1680
2700.00,2.1500
2699.00,2.1305
2698.00,2.1097
2697.00,2.0880
2696.00,2.0656
2695.00,2.0422
2694.00,2.0177
2693.00,1.9921
2692.00,1.9652
2691.00,1.9369
2690.00,1.9071
2689.00,1.8758
2688.00,1.8429
2687.00,1.8086
2686.00,1.7728
2685.00,1.7357
2684.00,1.6973
2683.00,1.6579
2682.00,1.6180
2681.00,1.5776
2680.00,1.5372
2679.00,1.4969
2678.00,1.4571
2677.00,1.4181
2676.00,1.3805
2675.00,1.3443
2674.00,1.3100
2673.00,1.2777
2672.00,1.2477
2671.00,1.2201
2670.00,1.1954
2669.00,1.1740
2668.00,1.1566
2667.00,1.1437
2666.00,1.1359
2665.00,1.1335
2664.00,1.1366
2663.00,1.1451
2662.00,1.1588
2661.00,1.1772
2660.00,1.1999
2659.00,1.2262
2658.00,1.2556
2657.00,1.2875
2656.00,1.3213
2655.00,1.3567
2654.00,1.3934
2653.00,1.4311
2652.00,1.4697
2651.00,1.5091
2650.00,1.5490
2649.00,1.5892
2648.00,1.6296
2647.00,1.6700
2646.00,1.7102
2645.00,1.7500
2644.00,1.7892
2643.00,1.8275
2642.00,1.8649
2641.00,1.9012
2640.00,1.9363
2639.00,1.9700
2638.00,2.0026
2637.00,2.0341
2636.00,2.0643
2635.00,2.0930
2634.00,2.1203
2633.00,2.1463
2632.00,2.1712
2631.00,2.1943
2630.00,2.2150
2629.00,2.2325
2628.00,2.2470
2627.00,2.2597
2626.00,2.2717
2625.00,2.2840
2624.00,2.2965
2623.00,2.3089
2622.00,2.3209
2621.00,2.3326
2620.00,2.3441
2619.00,2.3554
2618.00,2.3668
2617.00,2.3785
2616.00,2.3902
2615.00,2.4011
2614.00,2.4106
2613.00,2.4189
2612.00,2.4264
2611.00,2.4334
2610.00,2.4398
2609.00,2.4459
2608.00,2.4522
2607.00,2.4587
2606.00,2.4653
2605.00,2.4717
2604.00,2.4775
2603.00,2.4826
2602.00,2.4866
2601.00,2.4900
2600.00,2.4932
2599.00,2.4964
2598.00,2.4992
2597.00,2.5012
2596.00,2.5023
2595.00,2.5025
2594.00,2.5027
2593.00,2.5031
2592.00,2.5031
2591.00,2.5019
2590.00,2.4993
2589.00,2.4964
2588.00,2.4942
2587.00,2.4922
2586.00,2.4890
2585.00,2.4838
2584.00,2.4776
2583.00,2.4716
2582.00,2.4663
2581.00,2.4612
2580.00,2.4550
2579.00,2.4474
2578.00,2.4384
2577.00,2.4293
2576.00,2.4209
2575.00,2.4136
2574.00,2.4064
2573.00,2.3978
2572.00,2.3870
2571.00,2.3746
2570.00,2.3617
2569.00,2.3492
2568.00,2.3367
2567.00,2.3233
2566.00,2.3085
2565.00,2.2924
2564.00,2.2753
2563.00,2.2573
2562.00,2.2387
2561.00,2.2195
2560.00,2.1993
2559.00,2.1778
2558.00,2.1549
2557.00,2.1308
2556.00,2.1056
2555.00,2.0792
2554.00,2.0515
2553.00,2.0224
2552.00,1.9920
2551.00,1.9599
2550.00,1.9260
2549.00,1.8905
2548.00,1.8532
2547.00,1.8142
2546.00,1.7735
2545.00,1.7311
2544.00,1.6872
2543.00,1.6419
2542.00,1.5956
2541.00,1.5491
2540.00,1.5029
2539.00,1.4577
2538.00,1.4139
2537.00,1.3721
2536.00,1.3329
2535.00,1.2966
2534.00,1.2639
2533.00,1.2351
2532.00,1.2109
2531.00,1.1917
2530.00,1.1780
2529.00,1.1699
2528.00,1.1678
2527.00,1.1716
2526.00,1.1810
2525.00,1.1957
2524.00,1.2153
2523.00,1.2392
2522.00,1.2669
2521.00,1.2978
2520.00,1.3314
2519.00,1.3671
2518.00,1.4045
2517.00,1.4434
2516.00,1.4834
2515.00,1.5245
2514.00,1.5663
2513.00,1.6087
2512.00,1.6514
2511.00,1.6942
2510.00,1.7369
2509.00,1.7792
2508.00,1.8208
2507.00,1.8612
2506.00,1.9003
2505.00,1.9381
2504.00,1.9747
2503.00,2.0098
2502.00,2.0431
2501.00,2.0746
2500.00,2.1044
2499.00,2.1329
2498.00,2.1604
2497.00,2.1871
2496.00,2.2126
2495.00,2.2368
2494.00,2.2594
2493.00,2.2811
2492.00,2.3021
2491.00,2.3222
2490.00,2.3407
2489.00,2.3574
2488.00,2.3727
2487.00,2.3876
2486.00,2.4028
2485.00,2.4183
2484.00,2.4334
2483.00,2.4475
2482.00,2.4604
2481.00,2.4723
2480.00,2.4833
2479.00,2.4933
2478.00,2.5023
2477.00,2.5106
2476.00,2.5191
2475.00,2.5281
2474.00,2.5374
2473.00,2.5460
2472.00,2.5530
2471.00,2.5585
2470.00,2.5637
2469.00,2.5691
2468.00,2.5743
2467.00,2.5785
2466.00,2.5821
2465.00,2.5858
2464.00,2.5900
2463.00,2.5943
2462.00,2.5979
2461.00,2.6004
2460.00,2.6012
2459.00,2.6002
2458.00,2.5985
2457.00,2.5974
2456.00,2.5975
2455.00,2.5980
2454.00,2.5979
2453.00,2.5971
2452.00,2.5956
2451.00,2.5933
2450.00,2.5901
2449.00,2.5865
2448.00,2.5832
2447.00,2.5802
2446.00,2.5774
2445.00,2.5742
2444.00,2.5701
2443.00,2.5645
2442.00,2.5575
2441.00,2.5498
2440.00,2.5421
2439.00,2.5337
2438.00,2.5237
2437.00,2.5126
2436.00,2.5013
2435.00,2.4904
2434.00,2.4793
2433.00,2.4674
2432.00,2.4546
2431.00,2.4415
2430.00,2.4283
2429.00,2.4145
2428.00,2.3994
2427.00,2.3830
2426.00,2.3653
2425.00,2.3465
2424.00,2.3269
2423.00,2.3069
2422.00,2.2868
2421.00,2.2663
2420.00,2.2451
2419.00,2.2234
2418.00,2.2013
2417.00,2.1788
2416.00,2.1556
2415.00,2.1313
2414.00,2.1058
2413.00,2.0793
2412.00,2.0518
2411.00,2.0234
2410.00,1.9941
2409.00,1.9634
2408.00,1.9309
2407.00,1.8964
2406.00,1.8600
2405.00,1.8221
2404.00,1.7824
2403.00,1.7411
2402.00,1.6985
2401.00,1.6549
2400.00,1.6109
2399.00,1.5670
2398.00,1.5239
2397.00,1.4826
2396.00,1.4438
2395.00,1.4081
2394.00,1.3763
2393.00,1.3488
2392.00,1.3269
2391.00,1.3098
2390.00,1.2998
2389.00,1.2990
2388.00,1.3016
2387.00,1.3112
2386.00,1.3263
2385.00,1.3468
2384.00,1.3720
2383.00,1.4012
2382.00,1.4338
2381.00,1.4690
2380.00,1.5062
2379.00,1.5450
2378.00,1.5852
2377.00,1.6266
2376.00,1.6690
2375.00,1.7121
2374.00,1.7555
2373.00,1.7991
2372.00,1.8426
2371.00,1.8857
2370.00,1.9276
2369.00,1.9684
2368.00,2.0080
2367.00,2.0463
2366.00,2.0829
2365.00,2.1176
2364.00,2.1508
2363.00,2.1824
2362.00,2.2121
2361.00,2.2402
2360.00,2.2670
2359.00,2.2932
2358.00,2.3187
2357.00,2.3431
2356.00,2.3661
2355.00,2.3878
2354.00,2.4085
2353.00,2.4290
2352.00,2.4492
2351.00,2.4684
2350.00,2.4861
2349.00,2.5027
2348.00,2.5191
2347.00,2.5352
2346.00,2.5503
2345.00,2.5639
2344.00,2.5762
2343.00,2.5872
2342.00,2.5967
2341.00,2.6046
2340.00,2.6119
2339.00,2.6197
2338.00,2.6278
2337.00,2.6355
2336.00,2.6420
2335.00,2.6470
2334.00,2.6514
2333.00,2.6566
2332.00,2.6634
2331.00,2.6708
2330.00,2.6769
2329.00,2.6806
2328.00,2.6827
2327.00,2.6848
2326.00,2.6874
2325.00,2.6904
2324.00,2.6934
2323.00,2.6963
2322.00,2.6986
2321.00,2.6993
2320.00,2.6980
2319.00,2.6947
2318.00,2.6897
2317.00,2.6844
2316.00,2.6803
2315.00,2.6780
2314.00,2.6765
2313.00,2.6737
2312.00,2.6684
2311.00,2.6612
2310.00,2.6531
2309.00,2.6418
2308.00,2.6346
2307.00,2.6152
2306.00,2.6145
2305.00,2.5778
2304.00,2.6042
2303.00,2.4928
2302.00,2.1971
2301.00,2.2374
2300.00,2.2408
2299.00,2.2676
2298.00,2.2898
2297.00,2.3234
2296.00,2.3602
2295.00,2.4020
2294.00,2.4456
2293.00,2.4845
2292.00,2.5150
2291.00,2.5329
2290.00,2.5403
2289.00,2.5377
2288.00,2.5281
2287.00,2.5132
2286.00,2.4953
2285.00,2.4743
2284.00,2.4490
2283.00,2.4180
2282.00,2.3812
2281.00,2.3394
2280.00,2.2926
2279.00,2.2408
2278.00,2.1844
2277.00,2.1252
2276.00,2.0644
2275.00,2.0034
2274.00,1.9430
2273.00,1.8849
2272.00,1.8307
2271.00,1.7822
2270.00,1.7424
2269.00,1.7150
2268.00,1.7037
2267.00,1.7116
2266.00,1.7405
2265.00,1.7911
2264.00,1.8628
2263.00,1.9538
2262.00,2.0626
2261.00,2.1867
2260.00,2.3255
2259.00,2.4788
2258.00,2.6481
2257.00,2.8366
2256.00,3.0465
2255.00,3.2753
2254.00,3.4963
2253.00,3.6411
2252.00,3.6399
2251.00,3.5236
2250.00,3.3670
2249.00,3.2098
2248.00,3.0659
2247.00,2.9381
2246.00,2.8252
2245.00,2.7230
2244.00,2.6263
2243.00,2.5305
2242.00,2.4329
2241.00,2.3324
2240.00,2.2295
2239.00,2.1254
2238.00,2.0217
2237.00,1.9207
2236.00,1.8252
2235.00,1.7386
2234.00,1.6640
2233.00,1.6042
2232.00,1.5612
2231.00,1.5354
2230.00,1.5262
2229.00,1.5320
2228.00,1.5499
2227.00,1.5772
2226.00,1.6114
2225.00,1.6506
2224.00,1.6941
2223.00,1.7410
2222.00,1.7907
2221.00,1.8424
2220.00,1.8956
2219.00,1.9491
2218.00,2.0021
2217.00,2.0535
2216.00,2.1028
2215.00,2.1499
2214.00,2.1949
2213.00,2.2376
2212.00,2.2779
2211.00,2.3153
2210.00,2.3498
2209.00,2.3818
2208.00,2.4119
2207.00,2.4406
2206.00,2.4677
2205.00,2.4928
2204.00,2.5155
2203.00,2.5358
2202.00,2.5541
2201.00,2.5714
2200.00,2.5890
2199.00,2.6066
2198.00,2.6229
2197.00,2.6370
2196.00,2.6498
2195.00,2.6631
2194.00,2.6775
2193.00,2.6913
2192.00,2.7025
2191.00,2.7112
2190.00,2.7193
2189.00,2.7292
2188.00,2.7414
2187.00,2.7542
2186.00,2.7657
2185.00,2.7742
2184.00,2.7801
2183.00,2.7845
2182.00,2.7882
2181.00,2.7912
2180.00,2.7932
2179.00,2.7945
2178.00,2.7957
2177.00,2.7973
2176.00,2.7996
2175.00,2.8026
2174.00,2.8067
2173.00,2.8114
2172.00,2.8147
2171.00,2.8150
2170.00,2.8125
2169.00,2.8092
2168.00,2.8071
2167.00,2.8067
2166.00,2.8067
2165.00,2.8059
2164.00,2.8038
2163.00,2.8005
2162.00,2.7967
2161.00,2.7918
2160.00,2.7853
2159.00,2.7774
2158.00,2.7699
2157.00,2.7641
2156.00,2.7592
2155.00,2.7535
2154.00,2.7460
2153.00,2.7374
2152.00,2.7285
2151.00,2.7188
2150.00,2.7069
2149.00,2.6927
2148.00,2.6773
2147.00,2.6624
2146.00,2.6489
2145.00,2.6363
2144.00,2.6234
2143.00,2.6090
2142.00,2.5925
2141.00,2.5738
2140.00,2.5535
2139.00,2.5319
2138.00,2.5096
2137.00,2.4871
2136.00,2.4643
2135.00,2.4406
2134.00,2.4155
2133.00,2.3888
2132.00,2.3604
2131.00,2.3305
2130.00,2.2989
2129.00,2.2656
2128.00,2.2301
2127.00,2.1920
2126.00,2.1513
2125.00,2.1081
2124.00,2.0628
2123.00,2.0154
2122.00,1.9659
2121.00,1.9143
2120.00,1.8608
2119.00,1.8056
2118.00,1.7490
2117.00,1.6921
2116.00,1.6363
2115.00,1.5827
2114.00,1.5322
2113.00,1.4857
2112.00,1.4441
2111.00,1.4083
2110.00,1.3791
2109.00,1.3572
2108.00,1.3433
2107.00,1.3376
2106.00,1.3405
2105.00,1.3516
2104.00,1.3706
2103.00,1.3965
2102.00,1.4283
2101.00,1.4650
2100.00,1.5057
2099.00,1.5495
2098.00,1.5957
2097.00,1.6436
2096.00,1.6928
2095.00,1.7431
2094.00,1.7943
2093.00,1.8460
2092.00,1.8976
2091.00,1.9487
2090.00,1.9989
2089.00,2.0480
2088.00,2.0958
2087.00,2.1418
2086.00,2.1854
2085.00,2.2268
2084.00,2.2659
2083.00,2.3029
2082.00,2.3381
2081.00,2.3718
2080.00,2.4042
2079.00,2.4351
2078.00,2.4643
2077.00,2.4918
2076.00,2.5181
2075.00,2.5431
2074.00,2.5663
2073.00,2.5871
2072.00,2.6060
2071.00,2.6241
2070.00,2.6423
2069.00,2.6595
2068.00,2.6742
2067.00,2.6870
2066.00,2.7002
2065.00,2.7155
2064.00,2.7320
2063.00,2.7468
2062.00,2.7588
2061.00,2.7693
2060.00,2.7809
2059.00,2.7940
2058.00,2.8069
2057.00,2.8180
2056.00,2.8272
2055.00,2.8363
2054.00,2.8460
2053.00,2.8555
2052.00,2.8627
2051.00,2.8670
2050.00,2.8698
2049.00,2.8732
2048.00,2.8784
2047.00,2.8854
2046.00,2.8928
2045.00,2.8991
2044.00,2.9030
2043.00,2.9051
2042.00,2.9071
2041.00,2.9105
2040.00,2.9149
2039.00,2.9185
2038.00,2.9199
2037.00,2.9192
2036.00,2.9174
2035.00,2.9159
2034.00,2.9158
2033.00,2.9169
2032.00,2.9184
2031.00,2.9190
2030.00,2.9181
2029.00,2.9150
2028.00,2.9091
2027.00,2.9012
2026.00,2.8938
2025.00,2.8889
2024.00,2.8855
2023.00,2.8801
2022.00,2.8708
2021.00,2.8588
2020.00,2.8479
2019.00,2.8412
2018.00,2.8385
2017.00,2.8367
2016.00,2.8313
2015.00,2.8205
2014.00,2.8063
2013.00,2.7931
2012.00,2.7830
2011.00,2.7745
2010.00,2.7644
2009.00,2.7509
2008.00,2.7348
2007.00,2.7177
2006.00,2.7007
2005.00,2.6838
2004.00,2.6659
2003.00,2.6466
2002.00,2.6262
2001.00,2.6057
2000.00,2.5856
1999.00,2.5648
1998.00,2.5419
1997.00,2.5161
1996.00,2.4875
1995.00,2.4572
1994.00,2.4262
1993.00,2.3949
1992.00,2.3624
1991.00,2.3279
1990.00,2.2908
1989.00,2.2515
1988.00,2.2101
1987.00,2.1663
1986.00,2.1199
1985.00,2.0708
1984.00,2.0193
1983.00,1.9657
1982.00,1.9102
1981.00,1.8534
1980.00,1.7965
1979.00,1.7402
1978.00,1.6856
1977.00,1.6337
1976.00,1.5855
1975.00,1.5419
1974.00,1.5039
1973.00,1.4725
1972.00,1.4485
1971.00,1.4323
1970.00,1.4242
1969.00,1.4249
1968.00,1.4349
1967.00,1.4541
1966.00,1.4811
1965.00,1.5139
1964.00,1.5513
1963.00,1.5926
1962.00,1.6377
1961.00,1.6858
1960.00,1.7362
1959.00,1.7882
1958.00,1.8411
1957.00,1.8946
1956.00,1.9485
1955.00,2.0024
1954.00,2.0557
1953.00,2.1076
1952.00,2.1575
1951.00,2.2053
1950.00,2.2505
1949.00,2.2931
1948.00,2.3339
1947.00,2.3732
1946.00,2.4100
1945.00,2.4437
1944.00,2.4752
1943.00,2.5061
1942.00,2.5370
1941.00,2.5669
1940.00,2.5947
1939.00,2.6202
1938.00,2.6439
1937.00,2.6660
1936.00,2.6869
1935.00,2.7076
1934.00,2.7287
1933.00,2.7496
1932.00,2.7688
1931.00,2.7855
1930.00,2.8009
1929.00,2.8174
1928.00,2.8358
1927.00,2.8537
1926.00,2.8678
1925.00,2.8772
1924.00,2.8858
1923.00,2.8970
1922.00,2.9103
1921.00,2.9228
1920.00,2.9334
1919.00,2.9427
1918.00,2.9518
1917.00,2.9612
1916.00,2.9712
1915.00,2.9810
1914.00,2.9884
1913.00,2.9923
1912.00,2.9945
1911.00,2.9970
1910.00,2.9997
1909.00,3.0016
1908.00,3.0032
1907.00,3.0066
1906.00,3.0121
1905.00,3.0177
1904.00,3.0213
1903.00,3.0227
1902.00,3.0229
1901.00,3.0234
1900.00,3.0242
1899.00,3.0242
1898.00,3.0219
1897.00,3.0181
1896.00,3.0161
1895.00,3.0178
1894.00,3.0209
1893.00,3.0217
1892.00,3.0196
1891.00,3.0169
1890.00,3.0158
1889.00,3.0163
1888.00,3.0164
1887.00,3.0133
1886.00,3.0048
1885.00,2.9919
1884.00,2.9781
1883.00,2.9664
1882.00,2.9562
1881.00,2.9459
1880.00,2.9357
1879.00,2.9273
1878.00,2.9212
1877.00,2.9161
1876.00,2.9101
1875.00,2.9018
1874.00,2.8893
1873.00,2.8720
1872.00,2.8525
1871.00,2.8347
1870.00,2.8204
1869.00,2.8073
1868.00,2.7921
1867.00,2.7737
1866.00,2.7531
1865.00,2.7315
1864.00,2.7093
1863.00,2.6861
1862.00,2.6615
1861.00,2.6359
1860.00,2.6099
1859.00,2.5831
1858.00,2.5539
1857.00,2.5215
1856.00,2.4865
1855.00,2.4497
1854.00,2.4114
1853.00,2.3713
1852.00,2.3292
1851.00,2.2844
1850.00,2.2372
1849.00,2.1877
1848.00,2.1351
1847.00,2.0783
1846.00,2.0185
1845.00,1.9586
1844.00,1.9012
1843.00,1.8473
1842.00,1.7964
1841.00,1.7481
1840.00,1.7035
1839.00,1.6646
1838.00,1.6324
1837.00,1.6070
1836.00,1.5893
1835.00,1.5805
1834.00,1.5807
1833.00,1.5896
1832.00,1.6077
1831.00,1.6353
1830.00,1.6718
1829.00,1.7131
1828.00,1.7542
1827.00,1.7945
1826.00,1.8373
1825.00,1.8849
1824.00,1.9354
1823.00,1.9852
1822.00,2.0338
1821.00,2.0829
1820.00,2.1333
1819.00,2.1845
1818.00,2.2359
1817.00,2.2869
1816.00,2.3362
1815.00,2.3823
1814.00,2.4256
1813.00,2.4679
1812.00,2.5093
1811.00,2.5484
1810.00,2.5836
1809.00,2.6149
1808.00,2.6435
1807.00,2.6705
1806.00,2.6961
1805.00,2.7204
1804.00,2.7436
1803.00,2.7668
1802.00,2.7920
1801.00,2.8191
1800.00,2.8449
1799.00,2.8672
1798.00,2.8869
1797.00,2.9045
1796.00,2.9183
1795.00,2.9276
1794.00,2.9373
1793.00,2.9527
1792.00,2.9727
1791.00,2.9911
1790.00,3.0036
1789.00,3.0118
1788.00,3.0197
1787.00,3.0301
1786.00,3.0426
1785.00,3.0552
1784.00,3.0664
1783.00,3.0763
1782.00,3.0868
1781.00,3.0989
1780.00,3.1104
1779.00,3.1195
1778.00,3.1259
1777.00,3.1283
1776.00,3.1238
1775.00,3.1134
1774.00,3.1065
1773.00,3.1114
1772.00,3.1251
1771.00,3.1375
1770.00,3.1431
1769.00,3.1439
1768.00,3.1449
1767.00,3.1471
1766.00,3.1472
1765.00,3.1418
1764.00,3.1320
1763.00,3.1226
1762.00,3.1183
1761.00,3.1194
1760.00,3.1223
1759.00,3.1238
1758.00,3.1236
1757.00,3.1239
1756.00,3.1234
1755.00,3.1175
1754.00,3.1034
1753.00,3.0839
1752.00,3.0658
1751.00,3.0550
1750.00,3.0523
1749.00,3.0532
1748.00,3.0507
1747.00,3.0395
1746.00,3.0208
1745.00,2.9998
1744.00,2.9823
1743.00,2.9716
1742.00,2.9662
1741.00,2.9609
1740.00,2.9518
1739.00,2.9366
1738.00,2.9110
1737.00,2.8714
1736.00,2.8245
1735.00,2.7848
1734.00,2.7597
1733.00,2.7466
1732.00,2.7363
1731.00,2.7197
1730.00,2.6967
1729.00,2.6737
1728.00,2.6549
1727.00,2.6418
1726.00,2.6371
1725.00,2.6429
1724.00,2.6611
1723.00,2.6927
1722.00,2.7353
1721.00,2.7837
1720.00,2.8367
1719.00,2.9026
1718.00,2.9928
1717.00,3.1081
1716.00,3.2347
1715.00,3.3585
1714.00,3.4771
1713.00,3.5932
1712.00,3.7092
1711.00,3.8304
1710.00,3.9526
1709.00,4.0177
1708.00,3.9715
1707.00,3.8849
1706.00,3.8246
1705.00,3.7812
1704.00,3.7145
1703.00,3.6103
1702.00,3.4923
1701.00,3.3804
1700.00,3.2794
1699.00,3.1916
1698.00,3.1097
1697.00,3.0272
1696.00,2.9531
1695.00,2.8960
1694.00,2.8508
1693.00,2.8007
1692.00,2.7370
1691.00,2.6650
1690.00,2.5897
1689.00,2.5092
1688.00,2.4189
1687.00,2.3237
1686.00,2.2390
1685.00,2.1751
1684.00,2.1291
1683.00,2.0944
1682.00,2.0667
1681.00,2.0450
1680.00,2.0318
1679.00,2.0270
1678.00,2.0274
1677.00,2.0344
1676.00,2.0537
1675.00,2.0863
1674.00,2.1264
1673.00,2.1663
1672.00,2.2038
1671.00,2.2449
1670.00,2.2942
1669.00,2.3494
1668.00,2.4045
1667.00,2.4543
1666.00,2.4974
1665.00,2.5379
1664.00,2.5817
1663.00,2.6296
1662.00,2.6770
1661.00,2.7203
1660.00,2.7582
1659.00,2.7919
1658.00,2.8200
1657.00,2.8350
1656.00,2.8330
1655.00,2.8292
1654.00,2.8462
1653.00,2.8863
1652.00,2.9423
1651.00,3.0017
1650.00,3.0414
1649.00,3.0556
1648.00,3.0582
1647.00,3.0609
1646.00,3.0676
1645.00,3.0839
1644.00,3.1109
1643.00,3.1374
1642.00,3.1536
1641.00,3.1620
1640.00,3.1683
1639.00,3.1739
1638.00,3.1804
1637.00,3.1937
1636.00,3.2142
1635.00,3.2328
1634.00,3.2463
1633.00,3.2579
1632.00,3.2693
1631.00,3.2800
1630.00,3.2876
1629.00,3.2891
1628.00,3.2831
1627.00,3.2696
1626.00,3.2529
1625.00,3.2418
1624.00,3.2421
1623.00,3.2512
1622.00,3.2612
1621.00,3.2649
1620.00,3.2578
1619.00,3.2420
1618.00,3.2290
1617.00,3.2315
1616.00,3.2517
1615.00,3.2777
1614.00,3.2940
1613.00,3.2968
1612.00,3.2931
1611.00,3.2865
1610.00,3.2756
1609.00,3.2634
1608.00,3.2562
1607.00,3.2557
1606.00,3.2582
1605.00,3.2603
1604.00,3.2599
1603.00,3.2545
1602.00,3.2436
1601.00,3.2311
1600.00,3.2221
1599.00,3.2170
1598.00,3.2112
1597.00,3.2006
1596.00,3.1852
1595.00,3.1671
1594.00,3.1489
1593.00,3.1333
1592.00,3.1224
1591.00,3.1148
1590.00,3.1056
1589.00,3.0905
1588.00,3.0693
1587.00,3.0448
1586.00,3.0196
1585.00,2.9959
1584.00,2.9733
1583.00,2.9505
1582.00,2.9283
1581.00,2.9063
1580.00,2.8791
1579.00,2.8423
1578.00,2.8010
1577.00,2.7662
1576.00,2.7413
1575.00,2.7221
1574.00,2.7012
1573.00,2.6723
1572.00,2.6363
1571.00,2.5994
1570.00,2.5622
1569.00,2.5224
1568.00,2.4808
1567.00,2.4394
1566.00,2.3988
1565.00,2.3586
1564.00,2.3146
1563.00,2.2621
1562.00,2.2054
1561.00,2.1653
1560.00,2.1525
1559.00,2.1546
1558.00,2.1578
1557.00,2.1602
1556.00,2.1630
1555.00,2.1687
1554.00,2.1848
1553.00,2.2107
1552.00,2.2391
1551.00,2.2685
1550.00,2.3023
1549.00,2.3397
1548.00,2.3750
1547.00,2.4063
1546.00,2.4384
1545.00,2.4751
1544.00,2.5137
1543.00,2.5495
1542.00,2.5818
1541.00,2.6149
1540.00,2.6548
1539.00,2.7044
1538.00,2.7603
1537.00,2.8097
1536.00,2.8436
1535.00,2.8702
1534.00,2.9016
1533.00,2.9396
1532.00,2.9775
1531.00,3.0118
1530.00,3.0426
1529.00,3.0691
1528.00,3.0907
1527.00,3.1103
1526.00,3.1317
1525.00,3.1533
1524.00,3.1698
1523.00,3.1810
1522.00,3.1930
1521.00,3.2092
1520.00,3.2276
1519.00,3.2437
1518.00,3.2550
1517.00,3.2637
1516.00,3.2729
1515.00,3.2824
1514.00,3.2921
1513.00,3.3046
1512.00,3.3223
1511.00,3.3420
1510.00,3.3551
1509.00,3.3585
1508.00,3.3611
1507.00,3.3720
1506.00,3.3842
1505.00,3.3925
1504.00,3.3983
1503.00,3.3971
1502.00,3.3916
1501.00,3.3893
1500.00,3.3931
1499.00,3.3998
1498.00,3.4062
1497.00,3.4115
1496.00,3.4183
1495.00,3.4298
1494.00,3.4411
1493.00,3.4411
1492.00,3.4247
1491.00,3.4011
1490.00,3.3866
1489.00,3.3908
1488.00,3.4107
1487.00,3.4364
1486.00,3.4595
1485.00,3.4772
1484.00,3.4890
1483.00,3.4928
1482.00,3.4869
1481.00,3.4753
1480.00,3.4662
1479.00,3.4630
1478.00,3.4647
1477.00,3.4685
1476.00,3.4725
1475.00,3.4743
1474.00,3.4709
1473.00,3.4606
1472.00,3.4450
1471.00,3.4324
1470.00,3.4279
1469.00,3.4282
1468.00,3.4295
1467.00,3.4337
1466.00,3.4433
1465.00,3.4552
1464.00,3.4649
1463.00,3.4761
1462.00,3.4940
1461.00,3.5171
1460.00,3.5375
1459.00,3.5479
1458.00,3.5459
1457.00,3.5366
1456.00,3.5420
1455.00,3.5782
1454.00,3.6305
1453.00,3.6761
1452.00,3.7068
1451.00,3.7236
1450.00,3.7267
1449.00,3.7141
1448.00,3.6944
1447.00,3.6836
1446.00,3.6863
1445.00,3.6917
1444.00,3.6897
1443.00,3.6873
1442.00,3.6946
1441.00,3.7031
1440.00,3.6905
1439.00,3.6520
1438.00,3.6095
1437.00,3.5853
1436.00,3.5854
1435.00,3.6007
1434.00,3.6183
1433.00,3.6317
1432.00,3.6405
1431.00,3.6404
1430.00,3.6266
1429.00,3.6060
1428.00,3.5927
1427.00,3.5922
1426.00,3.5965
1425.00,3.5932
1424.00,3.5788
1423.00,3.5622
1422.00,3.5514
1421.00,3.5446
1420.00,3.5322
1419.00,3.5082
1418.00,3.4806
1417.00,3.4570
1416.00,3.4351
1415.00,3.4137
1414.00,3.3982
1413.00,3.3926
1412.00,3.3932
1411.00,3.3906
1410.00,3.3780
1409.00,3.3568
1408.00,3.3333
1407.00,3.3112
1406.00,3.2896
1405.00,3.2683
1404.00,3.2507
1403.00,3.2403
1402.00,3.2356
1401.00,3.2311
1400.00,3.2223
1399.00,3.2083
1398.00,3.1903
1397.00,3.1694
1396.00,3.1490
1395.00,3.1337
1394.00,3.1258
1393.00,3.1248
1392.00,3.1292
1391.00,3.1390
1390.00,3.1559
1389.00,3.1812
1388.00,3.2149
1387.00,3.2537
1386.00,3.2916
1385.00,3.3247
1384.00,3.3562
1383.00,3.3945
1382.00,3.4437
1381.00,3.4984
1380.00,3.5539
1379.00,3.6162
1378.00,3.6932
1377.00,3.7750
1376.00,3.8245
1375.00,3.8038
1374.00,3.7200
1373.00,3.6063
1372.00,3.4891
1371.00,3.3836
1370.00,3.2955
1369.00,3.2257
1368.00,3.1735
1367.00,3.1370
1366.00,3.1140
1365.00,3.1039
1364.00,3.1067
1363.00,3.1203
1362.00,3.1391
1361.00,3.1569
1360.00,3.1741
1359.00,3.1957
1358.00,3.2240
1357.00,3.2557
1356.00,3.2867
1355.00,3.3163
1354.00,3.3463
1353.00,3.3759
1352.00,3.4013
1351.00,3.4212
1350.00,3.4378
1349.00,3.4521
1348.00,3.4636
1347.00,3.4743
1346.00,3.4841
1345.00,3.4878
1344.00,3.4829
1343.00,3.4776
1342.00,3.4829
1341.00,3.4990
1340.00,3.5152
1339.00,3.5218
1338.00,3.5206
1337.00,3.5213
1336.00,3.5322
1335.00,3.5556
1334.00,3.5851
1333.00,3.6046
1332.00,3.6016
1331.00,3.5845
1330.00,3.5749
1329.00,3.5822
1328.00,3.5971
1327.00,3.6083
1326.00,3.6164
1325.00,3.6265
1324.00,3.6364
1323.00,3.6420
1322.00,3.6475
1321.00,3.6578
1320.00,3.6669
1319.00,3.6643
1318.00,3.6473
1317.00,3.6247
1316.00,3.6074
1315.00,3.5977
1314.00,3.5926
1313.00,3.5897
1312.00,3.5866
1311.00,3.5819
1310.00,3.5780
1309.00,3.5791
1308.00,3.5891
1307.00,3.6089
1306.00,3.6321
1305.00,3.6441
1304.00,3.6299
1303.00,3.5936
1302.00,3.5565
1301.00,3.5312
1300.00,3.5170
1299.00,3.5112
1298.00,3.5120
1297.00,3.5141
1296.00,3.5078
1295.00,3.4883
1294.00,3.4639
1293.00,3.4474
1292.00,3.4406
1291.00,3.4326
1290.00,3.4123
1289.00,3.3794
1288.00,3.3429
1287.00,3.3123
1286.00,3.2909
1285.00,3.2755
1284.00,3.2593
1283.00,3.2373
1282.00,3.2089
1281.00,3.1773
1280.00,3.1463
1279.00,3.1188
1278.00,3.0953
1277.00,3.0732
1276.00,3.0485
1275.00,3.0187
1274.00,2.9844
1273.00,2.9472
1272.00,2.9083
1271.00,2.8671
1270.00,2.8229
1269.00,2.7749
1268.00,2.7236
1267.00,2.6702
1266.00,2.6157
1265.00,2.5604
1264.00,2.5046
1263.00,2.4503
1262.00,2.4001
1261.00,2.3566
1260.00,2.3224
1259.00,2.2997
1258.00,2.2901
1257.00,2.2941
1256.00,2.3112
1255.00,2.3402
1254.00,2.3794
1253.00,2.4266
1252.00,2.4794
1251.00,2.5360
1250.00,2.5961
1249.00,2.6599
1248.00,2.7261
1247.00,2.7909
1246.00,2.8507
1245.00,2.9057
1244.00,2.9597
1243.00,3.0165
1242.00,3.0758
1241.00,3.1321
1240.00,3.1790
1239.00,3.2145
1238.00,3.2427
1237.00,3.2706
1236.00,3.3032
1235.00,3.3416
1234.00,3.3812
1233.00,3.4136
1232.00,3.4370
1231.00,3.4590
1230.00,3.4880
1229.00,3.5229
1228.00,3.5515
1227.00,3.5648
1226.00,3.5679
1225.00,3.5703
1224.00,3.5723
1223.00,3.5718
1222.00,3.5731
1221.00,3.5815
1220.00,3.5943
1219.00,3.6034
1218.00,3.6089
1217.00,3.6208
1216.00,3.6445
1215.00,3.6739
1214.00,3.6988
1213.00,3.7163
1212.00,3.7350
1211.00,3.7575
1210.00,3.7673
1209.00,3.7465
1208.00,3.7026
1207.00,3.6652
1206.00,3.6610
1205.00,3.6947
1204.00,3.7412
1203.00,3.7595
1202.00,3.7442
1201.00,3.7370
1200.00,3.7657
1199.00,3.8130
1198.00,3.8257
1197.00,3.7836
1196.00,3.7356
1195.00,3.7262
1194.00,3.7595
1193.00,3.8036
1192.00,3.8192
1191.00,3.8032
1190.00,3.7881
1189.00,3.8019
1188.00,3.8300
1187.00,3.8329
1186.00,3.8140
1185.00,3.8113
1184.00,3.8350
1183.00,3.8540
1182.00,3.8336
1181.00,3.7798
1180.00,3.7294
1179.00,3.7129
1178.00,3.7382
1177.00,3.7902
1176.00,3.8367
1175.00,3.8574
1174.00,3.8686
1173.00,3.8879
1172.00,3.8920
1171.00,3.8527
1170.00,3.7872
1169.00,3.7346
1168.00,3.7133
1167.00,3.7157
1166.00,3.7356
1165.00,3.7820
1164.00,3.8548
1163.00,3.9215
1162.00,3.9353
1161.00,3.8940
1160.00,3.8402
1159.00,3.7961
1158.00,3.7510
1157.00,3.6958
1156.00,3.6430
1155.00,3.6061
1154.00,3.5820
1153.00,3.5608
1152.00,3.5383
1151.00,3.5147
1150.00,3.4885
1149.00,3.4593
1148.00,3.4315
1147.00,3.4099
1146.00,3.3937
1145.00,3.3762
1144.00,3.3500
1143.00,3.3117
1142.00,3.2645
1141.00,3.2177
1140.00,3.1798
1139.00,3.1521
1138.00,3.1266
1137.00,3.0934
1136.00,3.0504
1135.00,3.0023
1134.00,2.9530
1133.00,2.9043
1132.00,2.8593
1131.00,2.8239
1130.00,2.8035
1129.00,2.8004
1128.00,2.8147
1127.00,2.8450
1126.00,2.8892
1125.00,2.9446
1124.00,3.0095
1123.00,3.0814
1122.00,3.1482
1121.00,3.1859
1120.00,3.1797
1119.00,3.1455
1118.00,3.1106
1117.00,3.0869
1116.00,3.0725
1115.00,3.0651
1114.00,3.0690
1113.00,3.0902
1112.00,3.1286
1111.00,3.1769
1110.00,3.2253
1109.00,3.2691
1108.00,3.3129
1107.00,3.3676
1106.00,3.4426
1105.00,3.5391
1104.00,3.6475
1103.00,3.7504
1102.00,3.8207
1101.00,3.8320
1100.00,3.7960
1099.00,3.7669
1098.00,3.7883
1097.00,3.8558
1096.00,3.9222
1095.00,3.9488
1094.00,3.9730
1093.00,4.0759
1092.00,4.3310
1091.00,4.7292
1090.00,4.7570
1089.00,5.1508
1088.00,4.9854
1087.00,4.5560
1086.00,4.3842
1085.00,4.2930
1084.00,4.2536
1083.00,4.2353
1082.00,4.2120
1081.00,4.1501
1080.00,4.0525
1079.00,4.0106
1078.00,4.1021
1077.00,4.1808
1076.00,4.0321
1075.00,3.9888
1074.00,4.0842
1073.00,4.2729
1072.00,4.3719
1071.00,4.2164
1070.00,4.0405
1069.00,3.9144
1068.00,3.8479
1067.00,3.8382
1066.00,3.8755
1065.00,3.9352
1064.00,3.9477
1063.00,3.8707
1062.00,3.7687
1061.00,3.6976
1060.00,3.6690
1059.00,3.6706
1058.00,3.6924
1057.00,3.7464
1056.00,3.8427
1055.00,3.9309
1054.00,3.9427
1053.00,3.9293
1052.00,3.9266
1051.00,3.9347
1050.00,3.9526
1049.00,3.9822
1048.00,4.0454
1047.00,4.1758
1046.00,4.3118
1045.00,4.2291
1044.00,4.1447
1043.00,4.1661
1042.00,4.2823
1041.00,4.4424
1040.00,4.2167
1039.00,4.0298
1038.00,4.0177
1037.00,4.0897
1036.00,4.1239
1035.00,4.1481
1034.00,4.1168
1033.00,3.9978
1032.00,3.9255
1031.00,3.9468
1030.00,4.0622
1029.00,4.2028
1028.00,4.1802
1027.00,4.0713
1026.00,4.0013
1025.00,3.9984
1024.00,4.0912
1023.00,4.2664
1022.00,4.2687
1021.00,4.1949
1020.00,4.1857
1019.00,4.1051
1018.00,3.9996
1017.00,3.9468
1016.00,3.9519
1015.00,4.0130
1014.00,4.0852
1013.00,4.1020
1012.00,4.1105
1011.00,4.0667
1010.00,4.0132
1009.00,4.0817
1008.00,4.2329
1007.00,4.3030
1006.00,4.4407
1005.00,4.5439
1004.00,4.3259
1003.00,4.2000
1002.00,4.1608
1001.00,4.1756
1000.00,4.1529
999.00,4.0583
998.00,4.0016
997.00,4.0221
996.00,4.1077
995.00,4.1519
994.00,4.0268
993.00,3.8922
992.00,3.8036
991.00,3.7360
990.00,3.6870
989.00,3.6631
988.00,3.6486
987.00,3.6141
986.00,3.5512
985.00,3.4844
984.00,3.4375
983.00,3.4126
982.00,3.3991
981.00,3.3884
980.00,3.3771
979.00,3.3615
978.00,3.3434
977.00,3.3336
976.00,3.3409
975.00,3.3675
974.00,3.4133
973.00,3.4830
972.00,3.5843
971.00,3.7142
970.00,3.8364
969.00,3.8879
968.00,3.8552
967.00,3.7982
966.00,3.7768
965.00,3.8160
964.00,3.9042
963.00,3.9917
962.00,4.0319
961.00,4.0438
960.00,4.0912
959.00,4.1913
958.00,4.2497
957.00,4.1831
956.00,4.1028
955.00,4.0867
954.00,4.1521
953.00,4.2881
952.00,4.4308
951.00,4.4634
950.00,4.3588
949.00,4.2470
948.00,4.1768
947.00,4.0944
946.00,4.0025
945.00,3.9629
944.00,4.0167
943.00,4.1448
942.00,4.3485
941.00,5.0355
940.00,4.2593
939.00,3.9979
938.00,3.9480
937.00,4.0482
936.00,4.2531
935.00,4.2712
934.00,4.1573
933.00,4.1186
932.00,4.1525
931.00,4.2338
930.00,4.2784
929.00,4.2385
928.00,4.2436
927.00,4.3627
926.00,4.4633
925.00,4.3189
924.00,4.1558
923.00,4.0705
922.00,4.0663
921.00,4.1170
920.00,4.1673
919.00,4.1629
918.00,4.1011
917.00,4.0211
916.00,3.9606
915.00,3.9433
914.00,3.9734
913.00,4.0287
912.00,4.0737
911.00,4.1235
910.00,4.1767
909.00,4.1093
908.00,3.9930
907.00,3.9505
906.00,3.9688
905.00,4.0006
904.00,4.0369
903.00,4.1134
902.00,4.2490
901.00,4.5306
900.00,5.4030
899.00,4.6630
898.00,4.8356
897.00,4.5667
896.00,4.1401
895.00,4.0518
894.00,4.1593
893.00,4.4278
892.00,4.3245
891.00,4.1484
890.00,4.1526
889.00,4.1806
888.00,4.0799
887.00,4.0042
886.00,3.9957
885.00,4.0372
884.00,4.0829
883.00,3.9823
882.00,3.8837
881.00,3.8905
880.00,3.9738
879.00,4.0350
878.00,4.0100
877.00,4.0042
876.00,4.0754
875.00,4.2086
874.00,4.2139
873.00,4.0931
872.00,4.0571
871.00,4.1190
870.00,4.2096
869.00,4.2083
868.00,4.1901
867.00,4.3066
866.00,4.4975
865.00,4.4135
864.00,4.3451
863.00,4.3243
862.00,4.2197
861.00,4.0831
860.00,3.9604
859.00,3.8873
858.00,3.8942
857.00,3.9769
856.00,4.0890
855.00,4.1563
854.00,4.1420
853.00,4.1331
852.00,4.1830
851.00,4.2158
850.00,4.1438
849.00,4.0139
848.00,3.8847
847.00,3.7692
846.00,3.6778
845.00,3.6353
844.00,3.6676
843.00,3.7871
842.00,3.9462
841.00,4.0243
840.00,4.0652
839.00,4.1459
838.00,4.2062
837.00,4.1603
836.00,4.0551
835.00,3.9985
834.00,4.0105
833.00,4.0259
832.00,3.9831
831.00,3.9882
830.00,4.0916
829.00,4.0545
828.00,3.9309
827.00,3.9125
826.00,3.9561
825.00,4.0340
824.00,4.1684
823.00,4.2457
822.00,4.2104
821.00,4.2148
820.00,4.3685
819.00,4.7755
818.00,4.6171
817.00,4.3840
816.00,4.2916
815.00,4.1023
814.00,3.9429
813.00,3.8981
812.00,3.9644
811.00,4.1192
810.00,4.2522
809.00,4.2551
808.00,4.1816
807.00,4.1349
806.00,4.1241
805.00,4.3114
804.00,5.2038
803.00,4.4014
802.00,4.3068
801.00,4.5434
800.00,4.5215
799.00,4.3754
798.00,4.5149
797.00,4.6129
796.00,4.1996
795.00,4.0348
794.00,4.0593
793.00,4.2067
792.00,4.2753
791.00,4.2880
790.00,4.4601
789.00,4.8109
788.00,4.7359
787.00,4.3431
786.00,4.1687
785.00,4.2564
784.00,4.7971
783.00,4.4766
782.00,4.1736
781.00,4.0644
780.00,3.9713
779.00,3.9238
778.00,3.9513
777.00,4.0489
776.00,4.1234
775.00,4.0907
774.00,4.0507
773.00,4.0999
772.00,4.2557
771.00,4.3635
770.00,4.1602
769.00,4.0036
768.00,4.0361
767.00,4.1555
766.00,4.0337
765.00,3.8990
764.00,3.9061
763.00,4.0236
762.00,4.2433
761.00,4.5703
760.00,4.8683
759.00,4.6632
758.00,4.3243
757.00,4.1283
756.00,4.0606
755.00,4.0192
754.00,3.9165
753.00,3.8192
752.00,3.7746
751.00,3.7617
750.00,3.7652
749.00,3.7923
748.00,3.8517
747.00,3.9599
746.00,4.1363
745.00,4.2892
744.00,4.1946
743.00,3.9975
742.00,3.9278
741.00,4.0123
740.00,4.0386
739.00,3.9547
738.00,3.9999
737.00,4.1562
736.00,4.1696
735.00,4.1412
734.00,4.1486
733.00,3.9825
732.00,3.8486
731.00,3.8126
730.00,3.7963
729.00,3.8056
728.00,3.8758
727.00,3.9958
726.00,4.0376
725.00,4.0251
724.00,4.0777
723.00,4.3545
722.00,4.8863
721.00,4.1696
720.00,4.1266
719.00,4.5815
718.00,4.2839
717.00,3.9839
716.00,3.8978
715.00,3.8840
714.00,3.9041
713.00,4.0392
712.00,4.4625
711.00,4.7313
710.00,4.2957
709.00,4.0678
708.00,3.9366
707.00,3.9004
706.00,3.9513
705.00,3.9726
704.00,3.9305
703.00,3.9305
702.00,3.9831
701.00,4.0447
700.00,4.2505
