Created as New Dataset,Sample 011 By Administrator Date Wednesday, November 24 2021
cm-1,A
7502.00,0.7116
7501.00,0.7203
7500.00,0.7290
7499.00,0.7377
7498.00,0.7461
7497.00,0.7544
7496.00,0.7625
7495.00,0.7697
7494.00,0.7761
7493.00,0.7819
7492.00,0.7877
7491.00,0.7935
7490.00,0.7992
7489.00,0.8044
7488.00,0.8093
7487.00,0.8144
7486.00,0.8195
7485.00,0.8245
7484.00,0.8292
7483.00,0.8335
7482.00,0.8379
7481.00,0.8428
7480.00,0.8478
7479.00,0.8523
7478.00,0.8558
7477.00,0.8585
7476.00,0.8611
7475.00,0.8636
7474.00,0.8658
7473.00,0.8678
7472.00,0.8700
7471.00,0.8723
7470.00,0.8741
7469.00,0.8744
7468.00,0.8734
7467.00,0.8720
7466.00,0.8708
7465.00,0.8696
7464.00,0.8678
7463.00,0.8654
7462.00,0.8633
7461.00,0.8619
7460.00,0.8609
7459.00,0.8597
7458.00,0.8579
7457.00,0.8553
7456.00,0.8523
7455.00,0.8488
7454.00,0.8449
7453.00,0.8404
7452.00,0.8351
7451.00,0.8290
7450.00,0.8225
7449.00,0.8163
7448.00,0.8104
7447.00,0.8045
7446.00,0.7984
7445.00,0.7920
7444.00,0.7851
7443.00,0.7775
7442.00,0.7696
7441.00,0.7616
7440.00,0.7536
7439.00,0.7454
7438.00,0.7372
7437.00,0.7290
7436.00,0.7212
7435.00,0.7137
7434.00,0.7066
7433.00,0.6994
7432.00,0.6915
7431.00,0.6830
7430.00,0.6743
7429.00,0.6661
7428.00,0.6583
7427.00,0.6508
7426.00,0.6436
7425.00,0.6368
7424.00,0.6303
7423.00,0.6240
7422.00,0.6176
7421.00,0.6112
7420.00,0.6051
7419.00,0.5993
7418.00,0.5939
7417.00,0.5892
7416.00,0.5854
7415.00,0.5828
7414.00,0.5809
7413.00,0.5794
7412.00,0.5780
7411.00,0.5768
7410.00,0.5759
7409.00,0.5753
7408.00,0.5749
7407.00,0.5749
7406.00,0.5753
7405.00,0.5763
7404.00,0.5780
7403.00,0.5802
7402.00,0.5829
7401.00,0.5861
7400.00,0.5895
7399.00,0.5930
7398.00,0.5969
7397.00,0.6015
7396.00,0.6067
7395.00,0.6122
7394.00,0.6178
7393.00,0.6238
7392.00,0.6301
7391.00,0.6368
7390.00,0.6436
7389.00,0.6505
7388.00,0.6574
7387.00,0.6644
7386.00,0.6716
7385.00,0.6791
7384.00,0.6867
7383.00,0.6946
7382.00,0.7028
7381.00,0.7115
7380.00,0.7206
7379.00,0.7295
7378.00,0.7379
7377.00,0.7464
7376.00,0.7553
7375.00,0.7643
7374.00,0.7725
7373.00,0.7800
7372.00,0.7875
7371.00,0.7954
7370.00,0.8035
7369.00,0.8111
7368.00,0.8184
7367.00,0.8259
7366.00,0.8336
7365.00,0.8410
7364.00,0.8481
7363.00,0.8550
7362.00,0.8622
7361.00,0.8694
7360.00,0.8759
7359.00,0.8817
7358.00,0.8870
7357.00,0.8925
7356.00,0.8983
7355.00,0.9044
7354.00,0.9107
7353.00,0.9170
7352.00,0.9230
7351.00,0.9283
7350.00,0.9329
7349.00,0.9370
7348.00,0.9407
7347.00,0.9437
7346.00,0.9462
7345.00,0.9486
7344.00,0.9509
7343.00,0.9532
7342.00,0.9556
7341.00,0.9583
7340.00,0.9611
7339.00,0.9632
7338.00,0.9643
7337.00,0.9647
7336.00,0.9646
7335.00,0.9642
7334.00,0.9632
7333.00,0.9617
7332.00,0.9601
7331.00,0.9587
7330.00,0.9576
7329.00,0.9565
7328.00,0.9556
7327.00,0.9549
7326.00,0.9543
7325.00,0.9530
7324.00,0.9505
7323.00,0.9470
7322.00,0.9430
7321.00,0.9390
7320.00,0.9348
7319.00,0.9301
7318.00,0.9253
7317.00,0.9210
7316.00,0.9170
7315.00,0.9131
7314.00,0.9088
7313.00,0.9041
7312.00,0.8989
7311.00,0.8931
7310.00,0.8865
7309.00,0.8796
7308.00,0.8730
7307.00,0.8668
7306.00,0.8608
7305.00,0.8546
7304.00,0.8482
7303.00,0.8418
7302.00,0.8356
7301.00,0.8296
7300.00,0.8234
7299.00,0.8164
7298.00,0.8086
7297.00,0.8003
7296.00,0.7921
7295.00,0.7840
7294.00,0.7759
7293.00,0.7674
7292.00,0.7586
7291.00,0.7498
7290.00,0.7414
7289.00,0.7335
7288.00,0.7261
7287.00,0.7190
7286.00,0.7121
7285.00,0.7056
7284.00,0.6994
7283.00,0.6935
7282.00,0.6878
7281.00,0.6822
7280.00,0.6768
7279.00,0.6718
7278.00,0.6673
7277.00,0.6635
7276.00,0.6600
7275.00,0.6568
7274.00,0.6540
7273.00,0.6517
7272.00,0.6497
7271.00,0.6482
7270.00,0.6471
7269.00,0.6468
7268.00,0.6470
7267.00,0.6477
7266.00,0.6487
7265.00,0.6501
7264.00,0.6520
7263.00,0.6543
7262.00,0.6572
7261.00,0.6607
7260.00,0.6646
7259.00,0.6688
7258.00,0.6730
7257.00,0.6773
7256.00,0.6819
7255.00,0.6867
7254.00,0.6919
7253.00,0.6974
7252.00,0.7031
7251.00,0.7091
7250.00,0.7157
7249.00,0.7232
7248.00,0.7310
7247.00,0.7384
7246.00,0.7456
7245.00,0.7532
7244.00,0.7615
7243.00,0.7705
7242.00,0.7795
7241.00,0.7882
7240.00,0.7966
7239.00,0.8051
7238.00,0.8136
7237.00,0.8219
7236.00,0.8300
7235.00,0.8380
7234.00,0.8462
7233.00,0.8550
7232.00,0.8642
7231.00,0.8731
7230.00,0.8814
7229.00,0.8892
7228.00,0.8968
7227.00,0.9045
7226.00,0.9125
7225.00,0.9208
7224.00,0.9289
7223.00,0.9366
7222.00,0.9440
7221.00,0.9510
7220.00,0.9577
7219.00,0.9641
7218.00,0.9705
7217.00,0.9770
7216.00,0.9835
7215.00,0.9898
7214.00,0.9960
7213.00,1.0020
7212.00,1.0077
7211.00,1.0129
7210.00,1.0176
7209.00,1.0221
7208.00,1.0264
7207.00,1.0306
7206.00,1.0347
7205.00,1.0390
7204.00,1.0434
7203.00,1.0477
7202.00,1.0514
7201.00,1.0547
7200.00,1.0577
7199.00,1.0605
7198.00,1.0629
7197.00,1.0647
7196.00,1.0657
7195.00,1.0661
7194.00,1.0666
7193.00,1.0671
7192.00,1.0674
7191.00,1.0673
7190.00,1.0669
7189.00,1.0665
7188.00,1.0661
7187.00,1.0653
7186.00,1.0639
7185.00,1.0621
7184.00,1.0601
7183.00,1.0579
7182.00,1.0554
7181.00,1.0528
7180.00,1.0501
7179.00,1.0471
7178.00,1.0432
7177.00,1.0385
7176.00,1.0332
7175.00,1.0277
7174.00,1.0221
7173.00,1.0161
7172.00,1.0094
7171.00,1.0022
7170.00,0.9949
7169.00,0.9876
7168.00,0.9802
7167.00,0.9725
7166.00,0.9647
7165.00,0.9568
7164.00,0.9486
7163.00,0.9401
7162.00,0.9318
7161.00,0.9237
7160.00,0.9155
7159.00,0.9069
7158.00,0.8980
7157.00,0.8892
7156.00,0.8803
7155.00,0.8712
7154.00,0.8618
7153.00,0.8523
7152.00,0.8430
7151.00,0.8337
7150.00,0.8246
7149.00,0.8158
7148.00,0.8074
7147.00,0.7994
7146.00,0.7919
7145.00,0.7849
7144.00,0.7783
7143.00,0.7718
7142.00,0.7653
7141.00,0.7589
7140.00,0.7528
7139.00,0.7470
7138.00,0.7416
7137.00,0.7364
7136.00,0.7315
7135.00,0.7269
7134.00,0.7229
7133.00,0.7196
7132.00,0.7170
7131.00,0.7150
7130.00,0.7135
7129.00,0.7128
7128.00,0.7129
7127.00,0.7134
7126.00,0.7142
7125.00,0.7150
7124.00,0.7163
7123.00,0.7182
7122.00,0.7206
7121.00,0.7232
7120.00,0.7262
7119.00,0.7297
7118.00,0.7341
7117.00,0.7392
7116.00,0.7445
7115.00,0.7498
7114.00,0.7553
7113.00,0.7612
7112.00,0.7676
7111.00,0.7742
7110.00,0.7812
7109.00,0.7885
7108.00,0.7959
7107.00,0.8033
7106.00,0.8109
7105.00,0.8186
7104.00,0.8263
7103.00,0.8340
7102.00,0.8419
7101.00,0.8501
7100.00,0.8583
7099.00,0.8665
7098.00,0.8750
7097.00,0.8839
7096.00,0.8930
7095.00,0.9021
7094.00,0.9108
7093.00,0.9194
7092.00,0.9277
7091.00,0.9355
7090.00,0.9428
7089.00,0.9496
7088.00,0.9563
7087.00,0.9632
7086.00,0.9704
7085.00,0.9781
7084.00,0.9858
7083.00,0.9931
7082.00,1.0002
7081.00,1.0073
7080.00,1.0144
7079.00,1.0212
7078.00,1.0275
7077.00,1.0333
7076.00,1.0389
7075.00,1.0440
7074.00,1.0487
7073.00,1.0531
7072.00,1.0578
7071.00,1.0625
7070.00,1.0671
7069.00,1.0718
7068.00,1.0765
7067.00,1.0811
7066.00,1.0850
7065.00,1.0880
7064.00,1.0903
7063.00,1.0926
7062.00,1.0952
7061.00,1.0979
7060.00,1.1005
7059.00,1.1024
7058.00,1.1036
7057.00,1.1041
7056.00,1.1041
7055.00,1.1038
7054.00,1.1033
7053.00,1.1028
7052.00,1.1024
7051.00,1.1018
7050.00,1.1005
7049.00,1.0986
7048.00,1.0963
7047.00,1.0938
7046.00,1.0913
7045.00,1.0884
7044.00,1.0847
7043.00,1.0806
7042.00,1.0762
7041.00,1.0716
7040.00,1.0668
7039.00,1.0615
7038.00,1.0559
7037.00,1.0504
7036.00,1.0452
7035.00,1.0398
7034.00,1.0339
7033.00,1.0270
7032.00,1.0195
7031.00,1.0118
7030.00,1.0044
7029.00,0.9971
7028.00,0.9896
7027.00,0.9815
7026.00,0.9730
7025.00,0.9645
7024.00,0.9557
7023.00,0.9464
7022.00,0.9368
7021.00,0.9272
7020.00,0.9178
7019.00,0.9086
7018.00,0.8994
7017.00,0.8900
7016.00,0.8804
7015.00,0.8707
7014.00,0.8611
7013.00,0.8518
7012.00,0.8429
7011.00,0.8343
7010.00,0.8262
7009.00,0.8185
7008.00,0.8110
7007.00,0.8034
7006.00,0.7956
7005.00,0.7878
7004.00,0.7800
7003.00,0.7725
7002.00,0.7654
7001.00,0.7588
7000.00,0.7529
6999.00,0.7475
6998.00,0.7426
6997.00,0.7384
6996.00,0.7345
6995.00,0.7310
6994.00,0.7278
6993.00,0.7252
6992.00,0.7231
6991.00,0.7215
6990.00,0.7204
6989.00,0.7197
6988.00,0.7195
6987.00,0.7196
6986.00,0.7203
6985.00,0.7217
6984.00,0.7236
6983.00,0.7259
6982.00,0.7287
6981.00,0.7321
6980.00,0.7360
6979.00,0.7403
6978.00,0.7448
6977.00,0.7496
6976.00,0.7546
6975.00,0.7601
6974.00,0.7660
6973.00,0.7725
6972.00,0.7795
6971.00,0.7868
6970.00,0.7942
6969.00,0.8016
6968.00,0.8092
6967.00,0.8169
6966.00,0.8249
6965.00,0.8331
6964.00,0.8413
6963.00,0.8493
6962.00,0.8574
6961.00,0.8657
6960.00,0.8740
6959.00,0.8823
6958.00,0.8906
6957.00,0.8993
6956.00,0.9082
6955.00,0.9170
6954.00,0.9257
6953.00,0.9343
6952.00,0.9430
6951.00,0.9514
6950.00,0.9595
6949.00,0.9675
6948.00,0.9757
6947.00,0.9838
6946.00,0.9916
6945.00,0.9991
6944.00,1.0067
6943.00,1.0146
6942.00,1.0226
6941.00,1.0305
6940.00,1.0381
6939.00,1.0452
6938.00,1.0518
6937.00,1.0581
6936.00,1.0643
6935.00,1.0705
6934.00,1.0764
6933.00,1.0819
6932.00,1.0873
6931.00,1.0927
6930.00,1.0978
6929.00,1.1024
6928.00,1.1069
6927.00,1.1115
6926.00,1.1163
6925.00,1.1210
6924.00,1.1254
6923.00,1.1293
6922.00,1.1329
6921.00,1.1361
6920.00,1.1387
6919.00,1.1408
6918.00,1.1425
6917.00,1.1440
6916.00,1.1452
6915.00,1.1462
6914.00,1.1467
6913.00,1.1468
6912.00,1.1469
6911.00,1.1470
6910.00,1.1468
6909.00,1.1460
6908.00,1.1444
6907.00,1.1426
6906.00,1.1406
6905.00,1.1382
6904.00,1.1351
6903.00,1.1313
6902.00,1.1272
6901.00,1.1232
6900.00,1.1191
6899.00,1.1147
6898.00,1.1098
6897.00,1.1047
6896.00,1.0998
6895.00,1.0948
6894.00,1.0893
6893.00,1.0831
6892.00,1.0762
6891.00,1.0690
6890.00,1.0616
6889.00,1.0542
6888.00,1.0464
6887.00,1.0384
6886.00,1.0302
6885.00,1.0219
6884.00,1.0134
6883.00,1.0046
6882.00,0.9955
6881.00,0.9861
6880.00,0.9765
6879.00,0.9668
6878.00,0.9572
6877.00,0.9473
6876.00,0.9372
6875.00,0.9271
6874.00,0.9172
6873.00,0.9076
6872.00,0.8981
6871.00,0.8887
6870.00,0.8794
6869.00,0.8702
6868.00,0.8612
6867.00,0.8523
6866.00,0.8437
6865.00,0.8354
6864.00,0.8274
6863.00,0.8200
6862.00,0.8129
6861.00,0.8061
6860.00,0.7994
6859.00,0.7931
6858.00,0.7872
6857.00,0.7818
6856.00,0.7769
6855.00,0.7724
6854.00,0.7685
6853.00,0.7653
6852.00,0.7628
6851.00,0.7608
6850.00,0.7593
6849.00,0.7583
6848.00,0.7577
6847.00,0.7577
6846.00,0.7580
6845.00,0.7589
6844.00,0.7603
6843.00,0.7624
6842.00,0.7652
6841.00,0.7686
6840.00,0.7724
6839.00,0.7766
6838.00,0.7811
6837.00,0.7860
6836.00,0.7911
6835.00,0.7967
6834.00,0.8028
6833.00,0.8094
6832.00,0.8163
6831.00,0.8233
6830.00,0.8305
6829.00,0.8379
6828.00,0.8455
6827.00,0.8530
6826.00,0.8608
6825.00,0.8689
6824.00,0.8772
6823.00,0.8856
6822.00,0.8940
6821.00,0.9023
6820.00,0.9108
6819.00,0.9193
6818.00,0.9280
6817.00,0.9367
6816.00,0.9454
6815.00,0.9539
6814.00,0.9623
6813.00,0.9707
6812.00,0.9791
6811.00,0.9875
6810.00,0.9959
6809.00,1.0043
6808.00,1.0125
6807.00,1.0204
6806.00,1.0282
6805.00,1.0359
6804.00,1.0431
6803.00,1.0499
6802.00,1.0565
6801.00,1.0634
6800.00,1.0702
6799.00,1.0764
6798.00,1.0819
6797.00,1.0872
6796.00,1.0926
6795.00,1.0979
6794.00,1.1031
6793.00,1.1080
6792.00,1.1127
6791.00,1.1170
6790.00,1.1210
6789.00,1.1248
6788.00,1.1285
6787.00,1.1322
6786.00,1.1357
6785.00,1.1392
6784.00,1.1426
6783.00,1.1456
6782.00,1.1482
6781.00,1.1503
6780.00,1.1519
6779.00,1.1530
6778.00,1.1537
6777.00,1.1543
6776.00,1.1547
6775.00,1.1545
6774.00,1.1536
6773.00,1.1522
6772.00,1.1506
6771.00,1.1488
6770.00,1.1467
6769.00,1.1444
6768.00,1.1423
6767.00,1.1402
6766.00,1.1378
6765.00,1.1349
6764.00,1.1313
6763.00,1.1271
6762.00,1.1223
6761.00,1.1168
6760.00,1.1107
6759.00,1.1042
6758.00,1.0976
6757.00,1.0912
6756.00,1.0848
6755.00,1.0784
6754.00,1.0715
6753.00,1.0641
6752.00,1.0563
6751.00,1.0482
6750.00,1.0398
6749.00,1.0313
6748.00,1.0226
6747.00,1.0137
6746.00,1.0044
6745.00,0.9948
6744.00,0.9852
6743.00,0.9755
6742.00,0.9657
6741.00,0.9557
6740.00,0.9459
6739.00,0.9362
6738.00,0.9266
6737.00,0.9168
6736.00,0.9066
6735.00,0.8965
6734.00,0.8868
6733.00,0.8776
6732.00,0.8686
6731.00,0.8597
6730.00,0.8509
6729.00,0.8424
6728.00,0.8339
6727.00,0.8253
6726.00,0.8169
6725.00,0.8089
6724.00,0.8015
6723.00,0.7946
6722.00,0.7881
6721.00,0.7820
6720.00,0.7763
6719.00,0.7709
6718.00,0.7659
6717.00,0.7613
6716.00,0.7572
6715.00,0.7536
6714.00,0.7505
6713.00,0.7480
6712.00,0.7460
6711.00,0.7443
6710.00,0.7432
6709.00,0.7426
6708.00,0.7426
6707.00,0.7432
6706.00,0.7443
6705.00,0.7461
6704.00,0.7485
6703.00,0.7513
6702.00,0.7545
6701.00,0.7581
6700.00,0.7621
6699.00,0.7665
6698.00,0.7712
6697.00,0.7764
6696.00,0.7819
6695.00,0.7878
6694.00,0.7940
6693.00,0.8006
6692.00,0.8076
6691.00,0.8149
6690.00,0.8226
6689.00,0.8305
6688.00,0.8387
6687.00,0.8470
6686.00,0.8556
6685.00,0.8643
6684.00,0.8731
6683.00,0.8818
6682.00,0.8904
6681.00,0.8992
6680.00,0.9082
6679.00,0.9171
6678.00,0.9259
6677.00,0.9348
6676.00,0.9438
6675.00,0.9529
6674.00,0.9620
6673.00,0.9713
6672.00,0.9806
6671.00,0.9899
6670.00,0.9988
6669.00,1.0071
6668.00,1.0150
6667.00,1.0226
6666.00,1.0302
6665.00,1.0381
6664.00,1.0460
6663.00,1.0541
6662.00,1.0622
6661.00,1.0703
6660.00,1.0780
6659.00,1.0851
6658.00,1.0917
6657.00,1.0982
6656.00,1.1047
6655.00,1.1110
6654.00,1.1169
6653.00,1.1225
6652.00,1.1279
6651.00,1.1332
6650.00,1.1386
6649.00,1.1440
6648.00,1.1492
6647.00,1.1540
6646.00,1.1582
6645.00,1.1619
6644.00,1.1651
6643.00,1.1680
6642.00,1.1706
6641.00,1.1730
6640.00,1.1754
6639.00,1.1776
6638.00,1.1793
6637.00,1.1805
6636.00,1.1814
6635.00,1.1820
6634.00,1.1825
6633.00,1.1826
6632.00,1.1821
6631.00,1.1811
6630.00,1.1797
6629.00,1.1780
6628.00,1.1757
6627.00,1.1732
6626.00,1.1706
6625.00,1.1682
6624.00,1.1656
6623.00,1.1625
6622.00,1.1587
6621.00,1.1546
6620.00,1.1502
6619.00,1.1455
6618.00,1.1400
6617.00,1.1339
6616.00,1.1274
6615.00,1.1210
6614.00,1.1145
6613.00,1.1077
6612.00,1.1005
6611.00,1.0931
6610.00,1.0855
6609.00,1.0774
6608.00,1.0685
6607.00,1.0591
6606.00,1.0495
6605.00,1.0398
6604.00,1.0302
6603.00,1.0206
6602.00,1.0111
6601.00,1.0016
6600.00,0.9919
6599.00,0.9818
6598.00,0.9713
6597.00,0.9608
6596.00,0.9504
6595.00,0.9399
6594.00,0.9294
6593.00,0.9192
6592.00,0.9093
6591.00,0.8996
6590.00,0.8898
6589.00,0.8797
6588.00,0.8697
6587.00,0.8600
6586.00,0.8506
6585.00,0.8416
6584.00,0.8331
6583.00,0.8251
6582.00,0.8175
6581.00,0.8103
6580.00,0.8034
6579.00,0.7969
6578.00,0.7908
6577.00,0.7853
6576.00,0.7805
6575.00,0.7762
6574.00,0.7723
6573.00,0.7689
6572.00,0.7660
6571.00,0.7636
6570.00,0.7618
6569.00,0.7607
6568.00,0.7603
6567.00,0.7607
6566.00,0.7618
6565.00,0.7633
6564.00,0.7652
6563.00,0.7675
6562.00,0.7702
6561.00,0.7735
6560.00,0.7774
6559.00,0.7820
6558.00,0.7871
6557.00,0.7929
6556.00,0.7990
6555.00,0.8055
6554.00,0.8124
6553.00,0.8195
6552.00,0.8268
6551.00,0.8341
6550.00,0.8416
6549.00,0.8495
6548.00,0.8576
6547.00,0.8659
6546.00,0.8744
6545.00,0.8831
6544.00,0.8920
6543.00,0.9009
6542.00,0.9098
6541.00,0.9186
6540.00,0.9274
6539.00,0.9363
6538.00,0.9454
6537.00,0.9546
6536.00,0.9637
6535.00,0.9727
6534.00,0.9816
6533.00,0.9905
6532.00,0.9993
6531.00,1.0079
6530.00,1.0164
6529.00,1.0249
6528.00,1.0331
6527.00,1.0410
6526.00,1.0488
6525.00,1.0563
6524.00,1.0636
6523.00,1.0707
6522.00,1.0775
6521.00,1.0842
6520.00,1.0908
6519.00,1.0973
6518.00,1.1037
6517.00,1.1100
6516.00,1.1161
6515.00,1.1221
6514.00,1.1279
6513.00,1.1336
6512.00,1.1389
6511.00,1.1438
6510.00,1.1481
6509.00,1.1519
6508.00,1.1552
6507.00,1.1582
6506.00,1.1611
6505.00,1.1641
6504.00,1.1670
6503.00,1.1698
6502.00,1.1722
6501.00,1.1740
6500.00,1.1750
6499.00,1.1752
6498.00,1.1748
6497.00,1.1742
6496.00,1.1737
6495.00,1.1731
6494.00,1.1722
6493.00,1.1710
6492.00,1.1693
6491.00,1.1673
6490.00,1.1651
6489.00,1.1626
6488.00,1.1600
6487.00,1.1572
6486.00,1.1542
6485.00,1.1508
6484.00,1.1467
6483.00,1.1421
6482.00,1.1371
6481.00,1.1318
6480.00,1.1260
6479.00,1.1198
6478.00,1.1135
6477.00,1.1071
6476.00,1.1003
6475.00,1.0929
6474.00,1.0848
6473.00,1.0764
6472.00,1.0678
6471.00,1.0591
6470.00,1.0503
6469.00,1.0415
6468.00,1.0326
6467.00,1.0235
6466.00,1.0140
6465.00,1.0040
6464.00,0.9938
6463.00,0.9836
6462.00,0.9736
6461.00,0.9638
6460.00,0.9541
6459.00,0.9442
6458.00,0.9343
6457.00,0.9242
6456.00,0.9140
6455.00,0.9037
6454.00,0.8934
6453.00,0.8835
6452.00,0.8739
6451.00,0.8643
6450.00,0.8548
6449.00,0.8454
6448.00,0.8362
6447.00,0.8273
6446.00,0.8186
6445.00,0.8103
6444.00,0.8023
6443.00,0.7947
6442.00,0.7876
6441.00,0.7809
6440.00,0.7748
6439.00,0.7690
6438.00,0.7637
6437.00,0.7589
6436.00,0.7545
6435.00,0.7505
6434.00,0.7472
6433.00,0.7444
6432.00,0.7423
6431.00,0.7407
6430.00,0.7398
6429.00,0.7394
6428.00,0.7395
6427.00,0.7401
6426.00,0.7413
6425.00,0.7432
6424.00,0.7456
6423.00,0.7485
6422.00,0.7519
6421.00,0.7558
6420.00,0.7603
6419.00,0.7654
6418.00,0.7711
6417.00,0.7774
6416.00,0.7841
6415.00,0.7912
6414.00,0.7985
6413.00,0.8061
6412.00,0.8138
6411.00,0.8216
6410.00,0.8296
6409.00,0.8380
6408.00,0.8466
6407.00,0.8554
6406.00,0.8643
6405.00,0.8734
6404.00,0.8827
6403.00,0.8920
6402.00,0.9014
6401.00,0.9108
6400.00,0.9202
6399.00,0.9294
6398.00,0.9387
6397.00,0.9481
6396.00,0.9574
6395.00,0.9666
6394.00,0.9758
6393.00,0.9850
6392.00,0.9943
6391.00,1.0034
6390.00,1.0124
6389.00,1.0214
6388.00,1.0302
6387.00,1.0388
6386.00,1.0469
6385.00,1.0547
6384.00,1.0624
6383.00,1.0698
6382.00,1.0771
6381.00,1.0844
6380.00,1.0918
6379.00,1.0992
6378.00,1.1062
6377.00,1.1128
6376.00,1.1192
6375.00,1.1254
6374.00,1.1315
6373.00,1.1373
6372.00,1.1430
6371.00,1.1485
6370.00,1.1540
6369.00,1.1591
6368.00,1.1636
6367.00,1.1674
6366.00,1.1707
6365.00,1.1739
6364.00,1.1769
6363.00,1.1796
6362.00,1.1819
6361.00,1.1840
6360.00,1.1861
6359.00,1.1880
6358.00,1.1896
6357.00,1.1908
6356.00,1.1916
6355.00,1.1919
6354.00,1.1919
6353.00,1.1914
6352.00,1.1904
6351.00,1.1890
6350.00,1.1875
6349.00,1.1859
6348.00,1.1841
6347.00,1.1819
6346.00,1.1794
6345.00,1.1764
6344.00,1.1729
6343.00,1.1687
6342.00,1.1641
6341.00,1.1591
6340.00,1.1536
6339.00,1.1476
6338.00,1.1411
6337.00,1.1345
6336.00,1.1277
6335.00,1.1207
6334.00,1.1135
6333.00,1.1063
6332.00,1.0988
6331.00,1.0907
6330.00,1.0821
6329.00,1.0730
6328.00,1.0638
6327.00,1.0543
6326.00,1.0446
6325.00,1.0347
6324.00,1.0245
6323.00,1.0140
6322.00,1.0031
6321.00,0.9919
6320.00,0.9807
6319.00,0.9693
6318.00,0.9579
6317.00,0.9464
6316.00,0.9349
6315.00,0.9236
6314.00,0.9123
6313.00,0.9013
6312.00,0.8903
6311.00,0.8795
6310.00,0.8690
6309.00,0.8587
6308.00,0.8485
6307.00,0.8386
6306.00,0.8289
6305.00,0.8197
6304.00,0.8109
6303.00,0.8022
6302.00,0.7939
6301.00,0.7859
6300.00,0.7786
6299.00,0.7718
6298.00,0.7658
6297.00,0.7603
6296.00,0.7555
6295.00,0.7514
6294.00,0.7479
6293.00,0.7450
6292.00,0.7425
6291.00,0.7406
6290.00,0.7392
6289.00,0.7386
6288.00,0.7387
6287.00,0.7392
6286.00,0.7403
6285.00,0.7422
6284.00,0.7447
6283.00,0.7478
6282.00,0.7515
6281.00,0.7557
6280.00,0.7605
6279.00,0.7658
6278.00,0.7716
6277.00,0.7778
6276.00,0.7843
6275.00,0.7912
6274.00,0.7984
6273.00,0.8059
6272.00,0.8138
6271.00,0.8219
6270.00,0.8303
6269.00,0.8389
6268.00,0.8477
6267.00,0.8568
6266.00,0.8659
6265.00,0.8750
6264.00,0.8843
6263.00,0.8936
6262.00,0.9031
6261.00,0.9127
6260.00,0.9224
6259.00,0.9322
6258.00,0.9420
6257.00,0.9516
6256.00,0.9609
6255.00,0.9699
6254.00,0.9786
6253.00,0.9872
6252.00,0.9959
6251.00,1.0048
6250.00,1.0139
6249.00,1.0229
6248.00,1.0318
6247.00,1.0404
6246.00,1.0487
6245.00,1.0566
6244.00,1.0643
6243.00,1.0717
6242.00,1.0789
6241.00,1.0860
6240.00,1.0926
6239.00,1.0990
6238.00,1.1051
6237.00,1.1111
6236.00,1.1172
6235.00,1.1235
6234.00,1.1296
6233.00,1.1355
6232.00,1.1409
6231.00,1.1459
6230.00,1.1504
6229.00,1.1543
6228.00,1.1578
6227.00,1.1612
6226.00,1.1645
6225.00,1.1675
6224.00,1.1698
6223.00,1.1719
6222.00,1.1738
6221.00,1.1755
6220.00,1.1768
6219.00,1.1776
6218.00,1.1779
6217.00,1.1780
6216.00,1.1778
6215.00,1.1771
6214.00,1.1760
6213.00,1.1746
6212.00,1.1729
6211.00,1.1708
6210.00,1.1683
6209.00,1.1653
6208.00,1.1620
6207.00,1.1583
6206.00,1.1542
6205.00,1.1498
6204.00,1.1451
6203.00,1.1402
6202.00,1.1350
6201.00,1.1294
6200.00,1.1236
6199.00,1.1176
6198.00,1.1112
6197.00,1.1044
6196.00,1.0970
6195.00,1.0893
6194.00,1.0815
6193.00,1.0736
6192.00,1.0652
6191.00,1.0563
6190.00,1.0469
6189.00,1.0372
6188.00,1.0272
6187.00,1.0170
6186.00,1.0068
6185.00,0.9965
6184.00,0.9862
6183.00,0.9758
6182.00,0.9650
6181.00,0.9541
6180.00,0.9431
6179.00,0.9321
6178.00,0.9213
6177.00,0.9105
6176.00,0.8997
6175.00,0.8889
6174.00,0.8782
6173.00,0.8674
6172.00,0.8566
6171.00,0.8459
6170.00,0.8353
6169.00,0.8249
6168.00,0.8148
6167.00,0.8051
6166.00,0.7957
6165.00,0.7867
6164.00,0.7782
6163.00,0.7700
6162.00,0.7623
6161.00,0.7550
6160.00,0.7481
6159.00,0.7417
6158.00,0.7359
6157.00,0.7308
6156.00,0.7263
6155.00,0.7223
6154.00,0.7190
6153.00,0.7162
6152.00,0.7141
6151.00,0.7126
6150.00,0.7118
6149.00,0.7116
6148.00,0.7122
6147.00,0.7134
6146.00,0.7152
6145.00,0.7176
6144.00,0.7205
6143.00,0.7240
6142.00,0.7282
6141.00,0.7330
6140.00,0.7382
6139.00,0.7439
6138.00,0.7501
6137.00,0.7569
6136.00,0.7642
6135.00,0.7718
6134.00,0.7799
6133.00,0.7884
6132.00,0.7970
6131.00,0.8056
6130.00,0.8143
6129.00,0.8232
6128.00,0.8324
6127.00,0.8420
6126.00,0.8517
6125.00,0.8617
6124.00,0.8718
6123.00,0.8818
6122.00,0.8918
6121.00,0.9018
6120.00,0.9118
6119.00,0.9219
6118.00,0.9319
6117.00,0.9419
6116.00,0.9519
6115.00,0.9617
6114.00,0.9713
6113.00,0.9808
6112.00,0.9902
6111.00,0.9994
6110.00,1.0087
6109.00,1.0178
6108.00,1.0269
6107.00,1.0359
6106.00,1.0446
6105.00,1.0530
6104.00,1.0609
6103.00,1.0687
6102.00,1.0764
6101.00,1.0840
6100.00,1.0915
6099.00,1.0989
6098.00,1.1062
6097.00,1.1133
6096.00,1.1199
6095.00,1.1262
6094.00,1.1323
6093.00,1.1384
6092.00,1.1445
6091.00,1.1502
6090.00,1.1553
6089.00,1.1598
6088.00,1.1636
6087.00,1.1669
6086.00,1.1698
6085.00,1.1726
6084.00,1.1754
6083.00,1.1783
6082.00,1.1815
6081.00,1.1844
6080.00,1.1868
6079.00,1.1885
6078.00,1.1897
6077.00,1.1903
6076.00,1.1904
6075.00,1.1899
6074.00,1.1891
6073.00,1.1882
6072.00,1.1871
6071.00,1.1854
6070.00,1.1833
6069.00,1.1809
6068.00,1.1783
6067.00,1.1755
6066.00,1.1722
6065.00,1.1685
6064.00,1.1641
6063.00,1.1592
6062.00,1.1538
6061.00,1.1481
6060.00,1.1421
6059.00,1.1359
6058.00,1.1296
6057.00,1.1231
6056.00,1.1164
6055.00,1.1092
6054.00,1.1015
6053.00,1.0931
6052.00,1.0842
6051.00,1.0749
6050.00,1.0651
6049.00,1.0552
6048.00,1.0451
6047.00,1.0349
6046.00,1.0245
6045.00,1.0138
6044.00,1.0029
6043.00,0.9917
6042.00,0.9803
6041.00,0.9687
6040.00,0.9569
6039.00,0.9450
6038.00,0.9330
6037.00,0.9208
6036.00,0.9086
6035.00,0.8963
6034.00,0.8840
6033.00,0.8719
6032.00,0.8599
6031.00,0.8482
6030.00,0.8369
6029.00,0.8260
6028.00,0.8154
6027.00,0.8050
6026.00,0.7949
6025.00,0.7852
6024.00,0.7758
6023.00,0.7667
6022.00,0.7582
6021.00,0.7503
6020.00,0.7431
6019.00,0.7364
6018.00,0.7303
6017.00,0.7248
6016.00,0.7199
6015.00,0.7157
6014.00,0.7122
6013.00,0.7095
6012.00,0.7075
6011.00,0.7064
6010.00,0.7059
6009.00,0.7061
6008.00,0.7068
6007.00,0.7082
6006.00,0.7103
6005.00,0.7131
6004.00,0.7167
6003.00,0.7209
6002.00,0.7256
6001.00,0.7310
6000.00,0.7369
5999.00,0.7432
5998.00,0.7499
5997.00,0.7572
5996.00,0.7649
5995.00,0.7729
5994.00,0.7812
5993.00,0.7897
5992.00,0.7986
5991.00,0.8076
5990.00,0.8170
5989.00,0.8265
5988.00,0.8363
5987.00,0.8462
5986.00,0.8563
5985.00,0.8664
5984.00,0.8764
5983.00,0.8864
5982.00,0.8963
5981.00,0.9064
5980.00,0.9167
5979.00,0.9272
5978.00,0.9377
5977.00,0.9481
5976.00,0.9584
5975.00,0.9684
5974.00,0.9781
5973.00,0.9876
5972.00,0.9972
5971.00,1.0068
5970.00,1.0165
5969.00,1.0260
5968.00,1.0353
5967.00,1.0442
5966.00,1.0529
5965.00,1.0616
5964.00,1.0702
5963.00,1.0788
5962.00,1.0870
5961.00,1.0949
5960.00,1.1025
5959.00,1.1098
5958.00,1.1169
5957.00,1.1238
5956.00,1.1303
5955.00,1.1364
5954.00,1.1419
5953.00,1.1469
5952.00,1.1513
5951.00,1.1554
5950.00,1.1595
5949.00,1.1636
5948.00,1.1678
5947.00,1.1718
5946.00,1.1753
5945.00,1.1780
5944.00,1.1800
5943.00,1.1816
5942.00,1.1832
5941.00,1.1849
5940.00,1.1863
5939.00,1.1876
5938.00,1.1888
5937.00,1.1896
5936.00,1.1897
5935.00,1.1888
5934.00,1.1876
5933.00,1.1866
5932.00,1.1857
5931.00,1.1846
5930.00,1.1830
5929.00,1.1807
5928.00,1.1778
5927.00,1.1743
5926.00,1.1704
5925.00,1.1661
5924.00,1.1617
5923.00,1.1570
5922.00,1.1522
5921.00,1.1470
5920.00,1.1412
5919.00,1.1347
5918.00,1.1276
5917.00,1.1202
5916.00,1.1126
5915.00,1.1048
5914.00,1.0967
5913.00,1.0882
5912.00,1.0794
5911.00,1.0703
5910.00,1.0608
5909.00,1.0508
5908.00,1.0405
5907.00,1.0299
5906.00,1.0190
5905.00,1.0081
5904.00,0.9970
5903.00,0.9856
5902.00,0.9739
5901.00,0.9618
5900.00,0.9496
5899.00,0.9374
5898.00,0.9253
5897.00,0.9131
5896.00,0.9009
5895.00,0.8887
5894.00,0.8766
5893.00,0.8645
5892.00,0.8524
5891.00,0.8404
5890.00,0.8287
5889.00,0.8174
5888.00,0.8063
5887.00,0.7954
5886.00,0.7847
5885.00,0.7746
5884.00,0.7650
5883.00,0.7561
5882.00,0.7477
5881.00,0.7397
5880.00,0.7323
5879.00,0.7256
5878.00,0.7195
5877.00,0.7141
5876.00,0.7095
5875.00,0.7054
5874.00,0.7021
5873.00,0.6993
5872.00,0.6971
5871.00,0.6956
5870.00,0.6950
5869.00,0.6953
5868.00,0.6966
5867.00,0.6986
5866.00,0.7012
5865.00,0.7046
5864.00,0.7084
5863.00,0.7129
5862.00,0.7178
5861.00,0.7235
5860.00,0.7297
5859.00,0.7364
5858.00,0.7437
5857.00,0.7514
5856.00,0.7596
5855.00,0.7682
5854.00,0.7771
5853.00,0.7865
5852.00,0.7961
5851.00,0.8060
5850.00,0.8160
5849.00,0.8261
5848.00,0.8363
5847.00,0.8466
5846.00,0.8569
5845.00,0.8675
5844.00,0.8782
5843.00,0.8889
5842.00,0.8997
5841.00,0.9103
5840.00,0.9209
5839.00,0.9314
5838.00,0.9418
5837.00,0.9522
5836.00,0.9626
5835.00,0.9728
5834.00,0.9828
5833.00,0.9927
5832.00,1.0022
5831.00,1.0115
5830.00,1.0207
5829.00,1.0300
5828.00,1.0392
5827.00,1.0482
5826.00,1.0567
5825.00,1.0650
5824.00,1.0731
5823.00,1.0808
5822.00,1.0884
5821.00,1.0958
5820.00,1.1033
5819.00,1.1107
5818.00,1.1179
5817.00,1.1247
5816.00,1.1314
5815.00,1.1377
5814.00,1.1436
5813.00,1.1491
5812.00,1.1543
5811.00,1.1591
5810.00,1.1638
5809.00,1.1686
5808.00,1.1734
5807.00,1.1781
5806.00,1.1823
5805.00,1.1859
5804.00,1.1889
5803.00,1.1914
5802.00,1.1936
5801.00,1.1955
5800.00,1.1971
5799.00,1.1985
5798.00,1.1993
5797.00,1.1996
5796.00,1.1995
5795.00,1.1990
5794.00,1.1984
5793.00,1.1974
5792.00,1.1962
5791.00,1.1949
5790.00,1.1933
5789.00,1.1912
5788.00,1.1885
5787.00,1.1854
5786.00,1.1820
5785.00,1.1781
5784.00,1.1735
5783.00,1.1685
5782.00,1.1631
5781.00,1.1574
5780.00,1.1512
5779.00,1.1445
5778.00,1.1376
5777.00,1.1304
5776.00,1.1230
5775.00,1.1151
5774.00,1.1067
5773.00,1.0981
5772.00,1.0892
5771.00,1.0800
5770.00,1.0705
5769.00,1.0605
5768.00,1.0501
5767.00,1.0393
5766.00,1.0282
5765.00,1.0167
5764.00,1.0050
5763.00,0.9930
5762.00,0.9807
5761.00,0.9683
5760.00,0.9558
5759.00,0.9432
5758.00,0.9304
5757.00,0.9177
5756.00,0.9049
5755.00,0.8921
5754.00,0.8791
5753.00,0.8662
5752.00,0.8535
5751.00,0.8410
5750.00,0.8287
5749.00,0.8168
5748.00,0.8053
5747.00,0.7941
5746.00,0.7832
5745.00,0.7727
5744.00,0.7625
5743.00,0.7528
5742.00,0.7435
5741.00,0.7349
5740.00,0.7269
5739.00,0.7195
5738.00,0.7129
5737.00,0.7070
5736.00,0.7017
5735.00,0.6971
5734.00,0.6934
5733.00,0.6904
5732.00,0.6883
5731.00,0.6870
5730.00,0.6865
5729.00,0.6868
5728.00,0.6879
5727.00,0.6897
5726.00,0.6922
5725.00,0.6955
5724.00,0.6995
5723.00,0.7040
5722.00,0.7093
5721.00,0.7153
5720.00,0.7219
5719.00,0.7290
5718.00,0.7366
5717.00,0.7447
5716.00,0.7531
5715.00,0.7618
5714.00,0.7709
5713.00,0.7805
5712.00,0.7904
5711.00,0.8005
5710.00,0.8110
5709.00,0.8215
5708.00,0.8322
5707.00,0.8429
5706.00,0.8537
5705.00,0.8646
5704.00,0.8755
5703.00,0.8865
5702.00,0.8975
5701.00,0.9087
5700.00,0.9198
5699.00,0.9307
5698.00,0.9416
5697.00,0.9525
5696.00,0.9635
5695.00,0.9745
5694.00,0.9854
5693.00,0.9961
5692.00,1.0065
5691.00,1.0166
5690.00,1.0266
5689.00,1.0365
5688.00,1.0460
5687.00,1.0555
5686.00,1.0648
5685.00,1.0739
5684.00,1.0827
5683.00,1.0911
5682.00,1.0992
5681.00,1.1072
5680.00,1.1152
5679.00,1.1229
5678.00,1.1305
5677.00,1.1380
5676.00,1.1452
5675.00,1.1520
5674.00,1.1583
5673.00,1.1642
5672.00,1.1698
5671.00,1.1753
5670.00,1.1806
5669.00,1.1856
5668.00,1.1902
5667.00,1.1943
5666.00,1.1980
5665.00,1.2014
5664.00,1.2043
5663.00,1.2068
5662.00,1.2089
5661.00,1.2106
5660.00,1.2118
5659.00,1.2125
5658.00,1.2130
5657.00,1.2134
5656.00,1.2134
5655.00,1.2131
5654.00,1.2124
5653.00,1.2113
5652.00,1.2098
5651.00,1.2078
5650.00,1.2054
5649.00,1.2025
5648.00,1.1992
5647.00,1.1954
5646.00,1.1913
5645.00,1.1869
5644.00,1.1822
5643.00,1.1771
5642.00,1.1716
5641.00,1.1657
5640.00,1.1592
5639.00,1.1524
5638.00,1.1452
5637.00,1.1377
5636.00,1.1297
5635.00,1.1212
5634.00,1.1122
5633.00,1.1029
5632.00,1.0932
5631.00,1.0830
5630.00,1.0723
5629.00,1.0612
5628.00,1.0499
5627.00,1.0384
5626.00,1.0266
5625.00,1.0147
5624.00,1.0025
5623.00,0.9899
5622.00,0.9770
5621.00,0.9639
5620.00,0.9506
5619.00,0.9371
5618.00,0.9236
5617.00,0.9099
5616.00,0.8962
5615.00,0.8824
5614.00,0.8687
5613.00,0.8552
5612.00,0.8419
5611.00,0.8287
5610.00,0.8156
5609.00,0.8029
5608.00,0.7904
5607.00,0.7782
5606.00,0.7665
5605.00,0.7552
5604.00,0.7445
5603.00,0.7343
5602.00,0.7247
5601.00,0.7157
5600.00,0.7074
5599.00,0.6998
5598.00,0.6928
5597.00,0.6867
5596.00,0.6814
5595.00,0.6768
5594.00,0.6732
5593.00,0.6704
5592.00,0.6684
5591.00,0.6673
5590.00,0.6671
5589.00,0.6677
5588.00,0.6693
5587.00,0.6716
5586.00,0.6748
5585.00,0.6787
5584.00,0.6834
5583.00,0.6887
5582.00,0.6948
5581.00,0.7015
5580.00,0.7089
5579.00,0.7167
5578.00,0.7250
5577.00,0.7337
5576.00,0.7430
5575.00,0.7526
5574.00,0.7627
5573.00,0.7731
5572.00,0.7837
5571.00,0.7946
5570.00,0.8057
5569.00,0.8170
5568.00,0.8284
5567.00,0.8399
5566.00,0.8515
5565.00,0.8631
5564.00,0.8749
5563.00,0.8866
5562.00,0.8985
5561.00,0.9103
5560.00,0.9220
5559.00,0.9337
5558.00,0.9453
5557.00,0.9567
5556.00,0.9680
5555.00,0.9792
5554.00,0.9904
5553.00,1.0014
5552.00,1.0124
5551.00,1.0234
5550.00,1.0343
5549.00,1.0451
5548.00,1.0557
5547.00,1.0660
5546.00,1.0760
5545.00,1.0856
5544.00,1.0948
5543.00,1.1038
5542.00,1.1125
5541.00,1.1211
5540.00,1.1294
5539.00,1.1375
5538.00,1.1455
5537.00,1.1532
5536.00,1.1606
5535.00,1.1676
5534.00,1.1744
5533.00,1.1810
5532.00,1.1872
5531.00,1.1932
5530.00,1.1989
5529.00,1.2042
5528.00,1.2090
5527.00,1.2133
5526.00,1.2171
5525.00,1.2204
5524.00,1.2234
5523.00,1.2262
5522.00,1.2287
5521.00,1.2310
5520.00,1.2330
5519.00,1.2343
5518.00,1.2350
5517.00,1.2352
5516.00,1.2349
5515.00,1.2344
5514.00,1.2338
5513.00,1.2330
5512.00,1.2318
5511.00,1.2300
5510.00,1.2277
5509.00,1.2247
5508.00,1.2212
5507.00,1.2174
5506.00,1.2133
5505.00,1.2091
5504.00,1.2045
5503.00,1.1995
5502.00,1.1940
5501.00,1.1880
5500.00,1.1815
5499.00,1.1747
5498.00,1.1674
5497.00,1.1596
5496.00,1.1512
5495.00,1.1422
5494.00,1.1330
5493.00,1.1235
5492.00,1.1135
5491.00,1.1031
5490.00,1.0924
5489.00,1.0813
5488.00,1.0699
5487.00,1.0582
5486.00,1.0464
5485.00,1.0342
5484.00,1.0216
5483.00,1.0084
5482.00,0.9948
5481.00,0.9811
5480.00,0.9673
5479.00,0.9534
5478.00,0.9394
5477.00,0.9254
5476.00,0.9113
5475.00,0.8973
5474.00,0.8834
5473.00,0.8696
5472.00,0.8558
5471.00,0.8421
5470.00,0.8288
5469.00,0.8157
5468.00,0.8029
5467.00,0.7903
5466.00,0.7782
5465.00,0.7667
5464.00,0.7559
5463.00,0.7456
5462.00,0.7360
5461.00,0.7273
5460.00,0.7194
5459.00,0.7121
5458.00,0.7054
5457.00,0.6994
5456.00,0.6941
5455.00,0.6897
5454.00,0.6860
5453.00,0.6831
5452.00,0.6811
5451.00,0.6802
5450.00,0.6805
5449.00,0.6817
5448.00,0.6836
5447.00,0.6865
5446.00,0.6902
5445.00,0.6948
5444.00,0.7000
5443.00,0.7057
5442.00,0.7121
5441.00,0.7193
5440.00,0.7274
5439.00,0.7361
5438.00,0.7451
5437.00,0.7544
5436.00,0.7641
5435.00,0.7745
5434.00,0.7855
5433.00,0.7967
5432.00,0.8079
5431.00,0.8192
5430.00,0.8309
5429.00,0.8432
5428.00,0.8560
5427.00,0.8687
5426.00,0.8814
5425.00,0.8938
5424.00,0.9060
5423.00,0.9181
5422.00,0.9300
5421.00,0.9417
5420.00,0.9533
5419.00,0.9649
5418.00,0.9766
5417.00,0.9880
5416.00,0.9994
5415.00,1.0109
5414.00,1.0227
5413.00,1.0345
5412.00,1.0460
5411.00,1.0574
5410.00,1.0686
5409.00,1.0797
5408.00,1.0905
5407.00,1.1008
5406.00,1.1108
5405.00,1.1205
5404.00,1.1299
5403.00,1.1389
5402.00,1.1475
5401.00,1.1557
5400.00,1.1636
5399.00,1.1712
5398.00,1.1784
5397.00,1.1855
5396.00,1.1924
5395.00,1.1993
5394.00,1.2061
5393.00,1.2127
5392.00,1.2189
5391.00,1.2248
5390.00,1.2303
5389.00,1.2354
5388.00,1.2400
5387.00,1.2442
5386.00,1.2479
5385.00,1.2510
5384.00,1.2535
5383.00,1.2555
5382.00,1.2574
5381.00,1.2594
5380.00,1.2611
5379.00,1.2623
5378.00,1.2628
5377.00,1.2627
5376.00,1.2622
5375.00,1.2615
5374.00,1.2604
5373.00,1.2589
5372.00,1.2569
5371.00,1.2543
5370.00,1.2513
5369.00,1.2479
5368.00,1.2443
5367.00,1.2404
5366.00,1.2361
5365.00,1.2313
5364.00,1.2259
5363.00,1.2199
5362.00,1.2133
5361.00,1.2063
5360.00,1.1989
5359.00,1.1912
5358.00,1.1833
5357.00,1.1746
5356.00,1.1653
5355.00,1.1555
5354.00,1.1455
5353.00,1.1352
5352.00,1.1243
5351.00,1.1129
5350.00,1.1011
5349.00,1.0892
5348.00,1.0770
5347.00,1.0643
5346.00,1.0512
5345.00,1.0379
5344.00,1.0244
5343.00,1.0107
5342.00,0.9967
5341.00,0.9823
5340.00,0.9678
5339.00,0.9531
5338.00,0.9384
5337.00,0.9236
5336.00,0.9086
5335.00,0.8936
5334.00,0.8787
5333.00,0.8639
5332.00,0.8495
5331.00,0.8353
5330.00,0.8213
5329.00,0.8075
5328.00,0.7943
5327.00,0.7817
5326.00,0.7696
5325.00,0.7581
5324.00,0.7471
5323.00,0.7368
5322.00,0.7273
5321.00,0.7185
5320.00,0.7104
5319.00,0.7032
5318.00,0.6968
5317.00,0.6913
5316.00,0.6867
5315.00,0.6829
5314.00,0.6800
5313.00,0.6781
5312.00,0.6773
5311.00,0.6774
5310.00,0.6784
5309.00,0.6804
5308.00,0.6834
5307.00,0.6875
5306.00,0.6923
5305.00,0.6979
5304.00,0.7041
5303.00,0.7110
5302.00,0.7186
5301.00,0.7269
5300.00,0.7359
5299.00,0.7455
5298.00,0.7554
5297.00,0.7658
5296.00,0.7765
5295.00,0.7875
5294.00,0.7989
5293.00,0.8106
5292.00,0.8226
5291.00,0.8351
5290.00,0.8480
5289.00,0.8610
5288.00,0.8739
5287.00,0.8866
5286.00,0.8994
5285.00,0.9124
5284.00,0.9255
5283.00,0.9386
5282.00,0.9517
5281.00,0.9646
5280.00,0.9775
5279.00,0.9903
5278.00,1.0031
5277.00,1.0157
5276.00,1.0281
5275.00,1.0402
5274.00,1.0522
5273.00,1.0640
5272.00,1.0754
5271.00,1.0864
5270.00,1.0972
5269.00,1.1079
5268.00,1.1183
5267.00,1.1285
5266.00,1.1385
5265.00,1.1485
5264.00,1.1585
5263.00,1.1684
5262.00,1.1781
5261.00,1.1873
5260.00,1.1961
5259.00,1.2044
5258.00,1.2123
5257.00,1.2197
5256.00,1.2266
5255.00,1.2334
5254.00,1.2400
5253.00,1.2464
5252.00,1.2524
5251.00,1.2580
5250.00,1.2632
5249.00,1.2683
5248.00,1.2731
5247.00,1.2774
5246.00,1.2811
5245.00,1.2844
5244.00,1.2874
5243.00,1.2902
5242.00,1.2928
5241.00,1.2951
5240.00,1.2968
5239.00,1.2978
5238.00,1.2981
5237.00,1.2978
5236.00,1.2971
5235.00,1.2961
5234.00,1.2947
5233.00,1.2929
5232.00,1.2905
5231.00,1.2879
5230.00,1.2850
5229.00,1.2817
5228.00,1.2780
5227.00,1.2739
5226.00,1.2695
5225.00,1.2647
5224.00,1.2595
5223.00,1.2537
5222.00,1.2477
5221.00,1.2413
5220.00,1.2345
5219.00,1.2269
5218.00,1.2188
5217.00,1.2101
5216.00,1.2011
5215.00,1.1915
5214.00,1.1814
5213.00,1.1709
5212.00,1.1599
5211.00,1.1485
5210.00,1.1367
5209.00,1.1247
5208.00,1.1124
5207.00,1.0999
5206.00,1.0869
5205.00,1.0734
5204.00,1.0596
5203.00,1.0456
5202.00,1.0316
5201.00,1.0177
5200.00,1.0037
5199.00,0.9894
5198.00,0.9750
5197.00,0.9606
5196.00,0.9462
5195.00,0.9317
5194.00,0.9170
5193.00,0.9022
5192.00,0.8873
5191.00,0.8723
5190.00,0.8573
5189.00,0.8425
5188.00,0.8280
5187.00,0.8139
5186.00,0.8003
5185.00,0.7873
5184.00,0.7750
5183.00,0.7634
5182.00,0.7525
5181.00,0.7424
5180.00,0.7331
5179.00,0.7247
5178.00,0.7173
5177.00,0.7108
5176.00,0.7055
5175.00,0.7011
5174.00,0.6978
5173.00,0.6955
5172.00,0.6942
5171.00,0.6939
5170.00,0.6947
5169.00,0.6965
5168.00,0.6993
5167.00,0.7031
5166.00,0.7078
5165.00,0.7135
5164.00,0.7200
5163.00,0.7273
5162.00,0.7354
5161.00,0.7441
5160.00,0.7533
5159.00,0.7631
5158.00,0.7736
5157.00,0.7846
5156.00,0.7962
5155.00,0.8081
5154.00,0.8203
5153.00,0.8328
5152.00,0.8454
5151.00,0.8582
5150.00,0.8712
5149.00,0.8844
5148.00,0.8977
5147.00,0.9110
5146.00,0.9244
5145.00,0.9379
5144.00,0.9514
5143.00,0.9648
5142.00,0.9781
5141.00,0.9913
5140.00,1.0045
5139.00,1.0176
5138.00,1.0306
5137.00,1.0436
5136.00,1.0563
5135.00,1.0688
5134.00,1.0810
5133.00,1.0931
5132.00,1.1050
5131.00,1.1167
5130.00,1.1283
5129.00,1.1396
5128.00,1.1505
5127.00,1.1611
5126.00,1.1713
5125.00,1.1813
5124.00,1.1911
5123.00,1.2006
5122.00,1.2098
5121.00,1.2187
5120.00,1.2272
5119.00,1.2357
5118.00,1.2439
5117.00,1.2519
5116.00,1.2594
5115.00,1.2664
5114.00,1.2729
5113.00,1.2790
5112.00,1.2848
5111.00,1.2905
5110.00,1.2959
5109.00,1.3010
5108.00,1.3056
5107.00,1.3097
5106.00,1.3135
5105.00,1.3168
5104.00,1.3195
5103.00,1.3215
5102.00,1.3231
5101.00,1.3241
5100.00,1.3249
5099.00,1.3253
5098.00,1.3254
5097.00,1.3252
5096.00,1.3247
5095.00,1.3238
5094.00,1.3224
5093.00,1.3204
5092.00,1.3180
5091.00,1.3151
5090.00,1.3119
5089.00,1.3082
5088.00,1.3040
5087.00,1.2993
5086.00,1.2942
5085.00,1.2886
5084.00,1.2827
5083.00,1.2762
5082.00,1.2694
5081.00,1.2621
5080.00,1.2543
5079.00,1.2460
5078.00,1.2373
5077.00,1.2282
5076.00,1.2186
5075.00,1.2085
5074.00,1.1978
5073.00,1.1868
5072.00,1.1754
5071.00,1.1636
5070.00,1.1513
5069.00,1.1385
5068.00,1.1251
5067.00,1.1112
5066.00,1.0969
5065.00,1.0823
5064.00,1.0674
5063.00,1.0522
5062.00,1.0367
5061.00,1.0210
5060.00,1.0050
5059.00,0.9887
5058.00,0.9724
5057.00,0.9560
5056.00,0.9395
5055.00,0.9230
5054.00,0.9065
5053.00,0.8901
5052.00,0.8740
5051.00,0.8581
5050.00,0.8426
5049.00,0.8276
5048.00,0.8131
5047.00,0.7992
5046.00,0.7859
5045.00,0.7732
5044.00,0.7612
5043.00,0.7499
5042.00,0.7395
5041.00,0.7299
5040.00,0.7212
5039.00,0.7135
5038.00,0.7069
5037.00,0.7013
5036.00,0.6968
5035.00,0.6934
5034.00,0.6910
5033.00,0.6897
5032.00,0.6894
5031.00,0.6902
5030.00,0.6920
5029.00,0.6950
5028.00,0.6989
5027.00,0.7038
5026.00,0.7097
5025.00,0.7165
5024.00,0.7242
5023.00,0.7327
5022.00,0.7419
5021.00,0.7518
5020.00,0.7623
5019.00,0.7734
5018.00,0.7850
5017.00,0.7972
5016.00,0.8098
5015.00,0.8227
5014.00,0.8358
5013.00,0.8491
5012.00,0.8627
5011.00,0.8765
5010.00,0.8905
5009.00,0.9048
5008.00,0.9192
5007.00,0.9336
5006.00,0.9480
5005.00,0.9624
5004.00,0.9767
5003.00,0.9910
5002.00,1.0051
5001.00,1.0191
5000.00,1.0329
4999.00,1.0465
4998.00,1.0599
4997.00,1.0732
4996.00,1.0863
4995.00,1.0991
4994.00,1.1117
4993.00,1.1242
4992.00,1.1365
4991.00,1.1486
4990.00,1.1603
4989.00,1.1717
4988.00,1.1828
4987.00,1.1937
4986.00,1.2044
4985.00,1.2150
4984.00,1.2254
4983.00,1.2354
4982.00,1.2451
4981.00,1.2545
4980.00,1.2634
4979.00,1.2718
4978.00,1.2797
4977.00,1.2872
4976.00,1.2946
4975.00,1.3018
4974.00,1.3089
4973.00,1.3157
4972.00,1.3220
4971.00,1.3278
4970.00,1.3330
4969.00,1.3378
4968.00,1.3423
4967.00,1.3463
4966.00,1.3499
4965.00,1.3532
4964.00,1.3561
4963.00,1.3586
4962.00,1.3606
4961.00,1.3621
4960.00,1.3631
4959.00,1.3637
4958.00,1.3638
4957.00,1.3635
4956.00,1.3626
4955.00,1.3611
4954.00,1.3592
4953.00,1.3570
4952.00,1.3546
4951.00,1.3519
4950.00,1.3488
4949.00,1.3452
4948.00,1.3411
4947.00,1.3364
4946.00,1.3311
4945.00,1.3253
4944.00,1.3190
4943.00,1.3122
4942.00,1.3050
4941.00,1.2974
4940.00,1.2894
4939.00,1.2810
4938.00,1.2722
4937.00,1.2630
4936.00,1.2533
4935.00,1.2431
4934.00,1.2323
4933.00,1.2210
4932.00,1.2092
4931.00,1.1968
4930.00,1.1840
4929.00,1.1706
4928.00,1.1568
4927.00,1.1426
4926.00,1.1278
4925.00,1.1127
4924.00,1.0971
4923.00,1.0813
4922.00,1.0653
4921.00,1.0490
4920.00,1.0325
4919.00,1.0156
4918.00,0.9985
4917.00,0.9811
4916.00,0.9637
4915.00,0.9462
4914.00,0.9289
4913.00,0.9117
4912.00,0.8948
4911.00,0.8782
4910.00,0.8619
4909.00,0.8460
4908.00,0.8306
4907.00,0.8157
4906.00,0.8014
4905.00,0.7878
4904.00,0.7751
4903.00,0.7632
4902.00,0.7522
4901.00,0.7420
4900.00,0.7329
4899.00,0.7247
4898.00,0.7177
4897.00,0.7118
4896.00,0.7072
4895.00,0.7037
4894.00,0.7014
4893.00,0.7004
4892.00,0.7005
4891.00,0.7019
4890.00,0.7044
4889.00,0.7080
4888.00,0.7127
4887.00,0.7184
4886.00,0.7252
4885.00,0.7331
4884.00,0.7417
4883.00,0.7512
4882.00,0.7613
4881.00,0.7721
4880.00,0.7835
4879.00,0.7955
4878.00,0.8082
4877.00,0.8212
4876.00,0.8346
4875.00,0.8484
4874.00,0.8624
4873.00,0.8768
4872.00,0.8914
4871.00,0.9062
4870.00,0.9210
4869.00,0.9358
4868.00,0.9506
4867.00,0.9655
4866.00,0.9805
4865.00,0.9954
4864.00,1.0103
4863.00,1.0249
4862.00,1.0394
4861.00,1.0538
4860.00,1.0681
4859.00,1.0823
4858.00,1.0964
4857.00,1.1102
4856.00,1.1238
4855.00,1.1370
4854.00,1.1499
4853.00,1.1627
4852.00,1.1752
4851.00,1.1876
4850.00,1.1999
4849.00,1.2120
4848.00,1.2237
4847.00,1.2350
4846.00,1.2460
4845.00,1.2565
4844.00,1.2667
4843.00,1.2764
4842.00,1.2857
4841.00,1.2948
4840.00,1.3037
4839.00,1.3125
4838.00,1.3213
4837.00,1.3295
4836.00,1.3371
4835.00,1.3438
4834.00,1.3500
4833.00,1.3559
4832.00,1.3617
4831.00,1.3674
4830.00,1.3729
4829.00,1.3779
4828.00,1.3821
4827.00,1.3857
4826.00,1.3887
4825.00,1.3915
4824.00,1.3940
4823.00,1.3961
4822.00,1.3978
4821.00,1.3987
4820.00,1.3990
4819.00,1.3989
4818.00,1.3983
4817.00,1.3975
4816.00,1.3964
4815.00,1.3949
4814.00,1.3928
4813.00,1.3903
4812.00,1.3874
4811.00,1.3840
4810.00,1.3802
4809.00,1.3760
4808.00,1.3712
4807.00,1.3659
4806.00,1.3601
4805.00,1.3537
4804.00,1.3469
4803.00,1.3397
4802.00,1.3319
4801.00,1.3236
4800.00,1.3145
4799.00,1.3049
4798.00,1.2948
4797.00,1.2844
4796.00,1.2736
4795.00,1.2626
4794.00,1.2511
4793.00,1.2392
4792.00,1.2267
4791.00,1.2136
4790.00,1.2001
4789.00,1.1860
4788.00,1.1714
4787.00,1.1563
4786.00,1.1406
4785.00,1.1244
4784.00,1.1078
4783.00,1.0908
4782.00,1.0734
4781.00,1.0559
4780.00,1.0380
4779.00,1.0199
4778.00,1.0018
4777.00,0.9836
4776.00,0.9654
4775.00,0.9473
4774.00,0.9292
4773.00,0.9112
4772.00,0.8935
4771.00,0.8761
4770.00,0.8591
4769.00,0.8428
4768.00,0.8270
4767.00,0.8118
4766.00,0.7974
4765.00,0.7838
4764.00,0.7711
4763.00,0.7592
4762.00,0.7483
4761.00,0.7384
4760.00,0.7297
4759.00,0.7220
4758.00,0.7157
4757.00,0.7106
4756.00,0.7067
4755.00,0.7040
4754.00,0.7026
4753.00,0.7026
4752.00,0.7038
4751.00,0.7063
4750.00,0.7100
4749.00,0.7150
4748.00,0.7210
4747.00,0.7281
4746.00,0.7363
4745.00,0.7455
4744.00,0.7555
4743.00,0.7663
4742.00,0.7778
4741.00,0.7901
4740.00,0.8030
4739.00,0.8164
4738.00,0.8303
4737.00,0.8445
4736.00,0.8591
4735.00,0.8740
4734.00,0.8892
4733.00,0.9047
4732.00,0.9202
4731.00,0.9358
4730.00,0.9515
4729.00,0.9672
4728.00,0.9829
4727.00,0.9986
4726.00,1.0141
4725.00,1.0295
4724.00,1.0449
4723.00,1.0603
4722.00,1.0757
4721.00,1.0911
4720.00,1.1064
4719.00,1.1213
4718.00,1.1359
4717.00,1.1502
4716.00,1.1642
4715.00,1.1779
4714.00,1.1914
4713.00,1.2047
4712.00,1.2177
4711.00,1.2305
4710.00,1.2430
4709.00,1.2552
4708.00,1.2672
4707.00,1.2789
4706.00,1.2901
4705.00,1.3010
4704.00,1.3115
4703.00,1.3216
4702.00,1.3313
4701.00,1.3407
4700.00,1.3497
4699.00,1.3585
4698.00,1.3671
4697.00,1.3754
4696.00,1.3833
4695.00,1.3907
4694.00,1.3974
4693.00,1.4033
4692.00,1.4086
4691.00,1.4134
4690.00,1.4180
4689.00,1.4225
4688.00,1.4266
4687.00,1.4303
4686.00,1.4334
4685.00,1.4360
4684.00,1.4380
4683.00,1.4396
4682.00,1.4410
4681.00,1.4423
4680.00,1.4430
4679.00,1.4431
4678.00,1.4422
4677.00,1.4407
4676.00,1.4389
4675.00,1.4371
4674.00,1.4352
4673.00,1.4328
4672.00,1.4295
4671.00,1.4254
4670.00,1.4208
4669.00,1.4161
4668.00,1.4113
4667.00,1.4060
4666.00,1.4001
4665.00,1.3934
4664.00,1.3860
4663.00,1.3783
4662.00,1.3703
4661.00,1.3619
4660.00,1.3529
4659.00,1.3432
4658.00,1.3329
4657.00,1.3221
4656.00,1.3108
4655.00,1.2990
4654.00,1.2868
4653.00,1.2743
4652.00,1.2614
4651.00,1.2480
4650.00,1.2339
4649.00,1.2190
4648.00,1.2036
4647.00,1.1875
4646.00,1.1711
4645.00,1.1543
4644.00,1.1372
4643.00,1.1197
4642.00,1.1019
4641.00,1.0836
4640.00,1.0650
4639.00,1.0460
4638.00,1.0268
4637.00,1.0074
4636.00,0.9880
4635.00,0.9687
4634.00,0.9495
4633.00,0.9305
4632.00,0.9118
4631.00,0.8933
4630.00,0.8753
4629.00,0.8579
4628.00,0.8412
4627.00,0.8251
4626.00,0.8099
4625.00,0.7955
4624.00,0.7821
4623.00,0.7697
4622.00,0.7585
4621.00,0.7484
4620.00,0.7397
4619.00,0.7322
4618.00,0.7261
4617.00,0.7214
4616.00,0.7181
4615.00,0.7162
4614.00,0.7158
4613.00,0.7167
4612.00,0.7190
4611.00,0.7227
4610.00,0.7278
4609.00,0.7341
4608.00,0.7417
4607.00,0.7503
4606.00,0.7600
4605.00,0.7706
4604.00,0.7820
4603.00,0.7942
4602.00,0.8072
4601.00,0.8210
4600.00,0.8353
4599.00,0.8501
4598.00,0.8653
4597.00,0.8807
4596.00,0.8964
4595.00,0.9123
4594.00,0.9285
4593.00,0.9449
4592.00,0.9614
4591.00,0.9780
4590.00,0.9946
4589.00,1.0114
4588.00,1.0280
4587.00,1.0445
4586.00,1.0608
4585.00,1.0768
4584.00,1.0928
4583.00,1.1087
4582.00,1.1245
4581.00,1.1402
4580.00,1.1556
4579.00,1.1706
4578.00,1.1854
4577.00,1.1999
4576.00,1.2143
4575.00,1.2284
4574.00,1.2423
4573.00,1.2559
4572.00,1.2693
4571.00,1.2825
4570.00,1.2953
4569.00,1.3077
4568.00,1.3196
4567.00,1.3311
4566.00,1.3423
4565.00,1.3532
4564.00,1.3639
4563.00,1.3740
4562.00,1.3836
4561.00,1.3927
4560.00,1.4013
4559.00,1.4097
4558.00,1.4177
4557.00,1.4255
4556.00,1.4327
4555.00,1.4395
4554.00,1.4457
4553.00,1.4515
4552.00,1.4568
4551.00,1.4615
4550.00,1.4657
4549.00,1.4694
4548.00,1.4726
4547.00,1.4754
4546.00,1.4777
4545.00,1.4797
4544.00,1.4813
4543.00,1.4823
4542.00,1.4827
4541.00,1.4824
4540.00,1.4817
4539.00,1.4806
4538.00,1.4790
4537.00,1.4770
4536.00,1.4745
4535.00,1.4714
4534.00,1.4680
4533.00,1.4643
4532.00,1.4604
4531.00,1.4563
4530.00,1.4519
4529.00,1.4472
4528.00,1.4423
4527.00,1.4368
4526.00,1.4307
4525.00,1.4240
4524.00,1.4169
4523.00,1.4093
4522.00,1.4013
4521.00,1.3927
4520.00,1.3834
4519.00,1.3735
4518.00,1.3629
4517.00,1.3517
4516.00,1.3401
4515.00,1.3280
4514.00,1.3153
4513.00,1.3020
4512.00,1.2878
4511.00,1.2730
4510.00,1.2576
4509.00,1.2417
4508.00,1.2255
4507.00,1.2087
4506.00,1.1915
4505.00,1.1738
4504.00,1.1556
4503.00,1.1369
4502.00,1.1178
4501.00,1.0983
4500.00,1.0786
4499.00,1.0588
4498.00,1.0388
4497.00,1.0188
4496.00,0.9988
4495.00,0.9789
4494.00,0.9594
4493.00,0.9402
4492.00,0.9215
4491.00,0.9034
4490.00,0.8859
4489.00,0.8691
4488.00,0.8531
4487.00,0.8381
4486.00,0.8242
4485.00,0.8115
4484.00,0.7999
4483.00,0.7894
4482.00,0.7802
4481.00,0.7723
4480.00,0.7659
4479.00,0.7609
4478.00,0.7574
4477.00,0.7555
4476.00,0.7552
4475.00,0.7563
4474.00,0.7590
4473.00,0.7631
4472.00,0.7686
4471.00,0.7755
4470.00,0.7837
4469.00,0.7931
4468.00,0.8037
4467.00,0.8153
4466.00,0.8279
4465.00,0.8412
4464.00,0.8553
4463.00,0.8701
4462.00,0.8854
4461.00,0.9013
4460.00,0.9175
4459.00,0.9342
4458.00,0.9512
4457.00,0.9684
4456.00,0.9860
4455.00,1.0036
4454.00,1.0215
4453.00,1.0393
4452.00,1.0571
4451.00,1.0749
4450.00,1.0925
4449.00,1.1100
4448.00,1.1273
4447.00,1.1444
4446.00,1.1613
4445.00,1.1778
4444.00,1.1940
4443.00,1.2099
4442.00,1.2253
4441.00,1.2401
4440.00,1.2543
4439.00,1.2678
4438.00,1.2807
4437.00,1.2931
4436.00,1.3051
4435.00,1.3165
4434.00,1.3276
4433.00,1.3383
4432.00,1.3487
4431.00,1.3590
4430.00,1.3690
4429.00,1.3790
4428.00,1.3888
4427.00,1.3986
4426.00,1.4084
4425.00,1.4180
4424.00,1.4275
4423.00,1.4369
4422.00,1.4461
4421.00,1.4550
4420.00,1.4634
4419.00,1.4714
4418.00,1.4791
4417.00,1.4866
4416.00,1.4940
4415.00,1.5011
4414.00,1.5077
4413.00,1.5135
4412.00,1.5187
4411.00,1.5235
4410.00,1.5281
4409.00,1.5324
4408.00,1.5363
4407.00,1.5396
4406.00,1.5422
4405.00,1.5442
4404.00,1.5458
4403.00,1.5471
4402.00,1.5481
4401.00,1.5487
4400.00,1.5488
4399.00,1.5486
4398.00,1.5480
4397.00,1.5469
4396.00,1.5453
4395.00,1.5432
4394.00,1.5406
4393.00,1.5375
4392.00,1.5339
4391.00,1.5298
4390.00,1.5250
4389.00,1.5199
4388.00,1.5144
4387.00,1.5084
4386.00,1.5019
4385.00,1.4948
4384.00,1.4873
4383.00,1.4794
4382.00,1.4712
4381.00,1.4628
4380.00,1.4544
4379.00,1.4457
4378.00,1.4365
4377.00,1.4268
4376.00,1.4164
4375.00,1.4055
4374.00,1.3944
4373.00,1.3833
4372.00,1.3721
4371.00,1.3609
4370.00,1.3493
4369.00,1.3373
4368.00,1.3247
4367.00,1.3118
4366.00,1.2985
4365.00,1.2848
4364.00,1.2706
4363.00,1.2558
4362.00,1.2403
4361.00,1.2239
4360.00,1.2067
4359.00,1.1886
4358.00,1.1698
4357.00,1.1503
4356.00,1.1303
4355.00,1.1097
4354.00,1.0887
4353.00,1.0674
4352.00,1.0460
4351.00,1.0246
4350.00,1.0032
4349.00,0.9822
4348.00,0.9616
4347.00,0.9417
4346.00,0.9225
4345.00,0.9040
4344.00,0.8865
4343.00,0.8699
4342.00,0.8545
4341.00,0.8404
4340.00,0.8276
4339.00,0.8163
4338.00,0.8066
4337.00,0.7987
4336.00,0.7925
4335.00,0.7880
4334.00,0.7854
4333.00,0.7846
4332.00,0.7856
4331.00,0.7883
4330.00,0.7928
4329.00,0.7990
4328.00,0.8067
4327.00,0.8159
4326.00,0.8265
4325.00,0.8382
4324.00,0.8508
4323.00,0.8642
4322.00,0.8781
4321.00,0.8926
4320.00,0.9073
4319.00,0.9222
4318.00,0.9373
4317.00,0.9525
4316.00,0.9679
4315.00,0.9836
4314.00,0.9995
4313.00,1.0157
4312.00,1.0322
4311.00,1.0490
4310.00,1.0660
4309.00,1.0831
4308.00,1.1001
4307.00,1.1172
4306.00,1.1343
4305.00,1.1514
4304.00,1.1685
4303.00,1.1855
4302.00,1.2024
4301.00,1.2190
4300.00,1.2355
4299.00,1.2519
4298.00,1.2680
4297.00,1.2839
4296.00,1.2993
4295.00,1.3142
4294.00,1.3288
4293.00,1.3431
4292.00,1.3573
4291.00,1.3713
4290.00,1.3851
4289.00,1.3985
4288.00,1.4115
4287.00,1.4241
4286.00,1.4364
4285.00,1.4484
4284.00,1.4598
4283.00,1.4705
4282.00,1.4806
4281.00,1.4903
4280.00,1.4998
4279.00,1.5090
4278.00,1.5178
4277.00,1.5259
4276.00,1.5334
4275.00,1.5404
4274.00,1.5468
4273.00,1.5527
4272.00,1.5581
4271.00,1.5631
4270.00,1.5677
4269.00,1.5719
4268.00,1.5755
4267.00,1.5786
4266.00,1.5813
4265.00,1.5836
4264.00,1.5856
4263.00,1.5870
4262.00,1.5877
4261.00,1.5877
4260.00,1.5869
4259.00,1.5858
4258.00,1.5844
4257.00,1.5829
4256.00,1.5812
4255.00,1.5791
4254.00,1.5764
4253.00,1.5729
4252.00,1.5688
4251.00,1.5642
4250.00,1.5591
4249.00,1.5536
4248.00,1.5474
4247.00,1.5407
4246.00,1.5335
4245.00,1.5260
4244.00,1.5182
4243.00,1.5101
4242.00,1.5015
4241.00,1.4923
4240.00,1.4824
4239.00,1.4716
4238.00,1.4602
4237.00,1.4483
4236.00,1.4360
4235.00,1.4231
4234.00,1.4096
4233.00,1.3954
4232.00,1.3805
4231.00,1.3650
4230.00,1.3489
4229.00,1.3321
4228.00,1.3146
4227.00,1.2965
4226.00,1.2779
4225.00,1.2587
4224.00,1.2390
4223.00,1.2185
4222.00,1.1974
4221.00,1.1758
4220.00,1.1536
4219.00,1.1312
4218.00,1.1086
4217.00,1.0859
4216.00,1.0630
4215.00,1.0400
4214.00,1.0170
4213.00,0.9941
4212.00,0.9715
4211.00,0.9494
4210.00,0.9278
4209.00,0.9069
4208.00,0.8869
4207.00,0.8678
4206.00,0.8499
4205.00,0.8331
4204.00,0.8177
4203.00,0.8037
4202.00,0.7912
4201.00,0.7803
4200.00,0.7712
4199.00,0.7637
4198.00,0.7581
4197.00,0.7542
4196.00,0.7522
4195.00,0.7520
4194.00,0.7536
4193.00,0.7570
4192.00,0.7622
4191.00,0.7690
4190.00,0.7776
4189.00,0.7876
4188.00,0.7990
4187.00,0.8117
4186.00,0.8255
4185.00,0.8403
4184.00,0.8560
4183.00,0.8725
4182.00,0.8896
4181.00,0.9073
4180.00,0.9255
4179.00,0.9441
4178.00,0.9630
4177.00,0.9822
4176.00,1.0015
4175.00,1.0210
4174.00,1.0405
4173.00,1.0600
4172.00,1.0794
4171.00,1.0988
4170.00,1.1181
4169.00,1.1372
4168.00,1.1562
4167.00,1.1750
4166.00,1.1936
4165.00,1.2121
4164.00,1.2304
4163.00,1.2484
4162.00,1.2659
4161.00,1.2832
4160.00,1.3001
4159.00,1.3170
4158.00,1.3336
4157.00,1.3498
4156.00,1.3657
4155.00,1.3813
4154.00,1.3966
4153.00,1.4118
4152.00,1.4266
4151.00,1.4410
4150.00,1.4548
4149.00,1.4682
4148.00,1.4812
4147.00,1.4940
4146.00,1.5064
4145.00,1.5183
4144.00,1.5295
4143.00,1.5399
4142.00,1.5497
4141.00,1.5590
4140.00,1.5679
4139.00,1.5765
4138.00,1.5847
4137.00,1.5926
4136.00,1.5999
4135.00,1.6066
4134.00,1.6128
4133.00,1.6183
4132.00,1.6233
4131.00,1.6276
4130.00,1.6313
4129.00,1.6344
4128.00,1.6369
4127.00,1.6389
4126.00,1.6406
4125.00,1.6420
4124.00,1.6432
4123.00,1.6443
4122.00,1.6449
4121.00,1.6450
4120.00,1.6444
4119.00,1.6431
4118.00,1.6412
4117.00,1.6388
4116.00,1.6359
4115.00,1.6328
4114.00,1.6294
4113.00,1.6258
4112.00,1.6215
4111.00,1.6165
4110.00,1.6107
4109.00,1.6043
4108.00,1.5975
4107.00,1.5902
4106.00,1.5826
4105.00,1.5745
4104.00,1.5657
4103.00,1.5565
4102.00,1.5468
4101.00,1.5367
4100.00,1.5261
4099.00,1.5148
4098.00,1.5029
4097.00,1.4903
4096.00,1.4771
4095.00,1.4634
4094.00,1.4490
4093.00,1.4337
4092.00,1.4176
4091.00,1.4009
4090.00,1.3836
4089.00,1.3659
4088.00,1.3475
4087.00,1.3285
4086.00,1.3088
4085.00,1.2884
4084.00,1.2675
4083.00,1.2461
4082.00,1.2240
4081.00,1.2016
4080.00,1.1787
4079.00,1.1556
4078.00,1.1323
4077.00,1.1088
4076.00,1.0852
4075.00,1.0615
4074.00,1.0381
4073.00,1.0149
4072.00,0.9922
4071.00,0.9701
4070.00,0.9487
4069.00,0.9282
4068.00,0.9088
4067.00,0.8905
4066.00,0.8735
4065.00,0.8579
4064.00,0.8437
4063.00,0.8311
4062.00,0.8201
4061.00,0.8107
4060.00,0.8032
4059.00,0.7976
4058.00,0.7940
4057.00,0.7924
4056.00,0.7928
4055.00,0.7952
4054.00,0.7997
4053.00,0.8061
4052.00,0.8143
4051.00,0.8243
4050.00,0.8359
4049.00,0.8490
4048.00,0.8634
4047.00,0.8790
4046.00,0.8956
4045.00,0.9132
4044.00,0.9315
4043.00,0.9505
4042.00,0.9701
4041.00,0.9901
4040.00,1.0104
4039.00,1.0311
4038.00,1.0519
4037.00,1.0727
4036.00,1.0934
4035.00,1.1140
4034.00,1.1343
4033.00,1.1543
4032.00,1.1740
4031.00,1.1933
4030.00,1.2122
4029.00,1.2307
4028.00,1.2487
4027.00,1.2663
4026.00,1.2834
4025.00,1.3002
4024.00,1.3168
4023.00,1.3332
4022.00,1.3494
4021.00,1.3654
4020.00,1.3811
4019.00,1.3967
4018.00,1.4122
4017.00,1.4275
4016.00,1.4428
4015.00,1.4578
4014.00,1.4725
4013.00,1.4869
4012.00,1.5010
4011.00,1.5150
4010.00,1.5288
4009.00,1.5420
4008.00,1.5545
4007.00,1.5665
4006.00,1.5779
4005.00,1.5890
4004.00,1.5997
4003.00,1.6099
4002.00,1.6196
4001.00,1.6289
4000.00,1.6378
3999.00,1.6460
3998.00,1.6535
3997.00,1.6605
3996.00,1.6670
3995.00,1.6731
3994.00,1.6788
3993.00,1.6839
3992.00,1.6884
3991.00,1.6925
3990.00,1.6962
3989.00,1.6996
3988.00,1.7025
3987.00,1.7050
3986.00,1.7068
3985.00,1.7079
3984.00,1.7083
3983.00,1.7081
3982.00,1.7075
3981.00,1.7067
3980.00,1.7058
3979.00,1.7049
3978.00,1.7038
3977.00,1.7020
3976.00,1.6994
3975.00,1.6962
3974.00,1.6923
3973.00,1.6877
3972.00,1.6825
3971.00,1.6767
3970.00,1.6704
3969.00,1.6640
3968.00,1.6574
3967.00,1.6506
3966.00,1.6432
3965.00,1.6350
3964.00,1.6259
3963.00,1.6160
3962.00,1.6057
3961.00,1.5948
3960.00,1.5835
3959.00,1.5716
3958.00,1.5590
3957.00,1.5456
3956.00,1.5314
3955.00,1.5166
3954.00,1.5013
3953.00,1.4855
3952.00,1.4692
3951.00,1.4519
3950.00,1.4336
3949.00,1.4143
3948.00,1.3941
3947.00,1.3735
3946.00,1.3526
3945.00,1.3311
3944.00,1.3088
3943.00,1.2856
3942.00,1.2617
3941.00,1.2374
3940.00,1.2126
3939.00,1.1874
3938.00,1.1618
3937.00,1.1361
3936.00,1.1104
3935.00,1.0847
3934.00,1.0591
3933.00,1.0333
3932.00,1.0077
3931.00,0.9824
3930.00,0.9582
3929.00,0.9353
3928.00,0.9140
3927.00,0.8941
3926.00,0.8754
3925.00,0.8581
3924.00,0.8424
3923.00,0.8285
3922.00,0.8165
3921.00,0.8068
3920.00,0.7993
3919.00,0.7940
3918.00,0.7908
3917.00,0.7896
3916.00,0.7906
3915.00,0.7937
3914.00,0.7990
3913.00,0.8064
3912.00,0.8158
3911.00,0.8269
3910.00,0.8397
3909.00,0.8536
3908.00,0.8687
3907.00,0.8847
3906.00,0.9016
3905.00,0.9198
3904.00,0.9395
3903.00,0.9603
3902.00,0.9815
3901.00,1.0028
3900.00,1.0244
3899.00,1.0467
3898.00,1.0692
3897.00,1.0915
3896.00,1.1132
3895.00,1.1342
3894.00,1.1547
3893.00,1.1747
3892.00,1.1951
3891.00,1.2168
3890.00,1.2392
3889.00,1.2610
3888.00,1.2809
3887.00,1.2995
3886.00,1.3186
3885.00,1.3393
3884.00,1.3608
3883.00,1.3812
3882.00,1.4000
3881.00,1.4180
3880.00,1.4365
3879.00,1.4557
3878.00,1.4745
3877.00,1.4918
3876.00,1.5073
3875.00,1.5221
3874.00,1.5371
3873.00,1.5522
3872.00,1.5664
3871.00,1.5797
3870.00,1.5934
3869.00,1.6081
3868.00,1.6229
3867.00,1.6366
3866.00,1.6489
3865.00,1.6605
3864.00,1.6716
3863.00,1.6820
3862.00,1.6914
3861.00,1.6996
3860.00,1.7066
3859.00,1.7125
3858.00,1.7180
3857.00,1.7236
3856.00,1.7288
3855.00,1.7333
3854.00,1.7378
3853.00,1.7430
3852.00,1.7483
3851.00,1.7529
3850.00,1.7570
3849.00,1.7607
3848.00,1.7644
3847.00,1.7675
3846.00,1.7695
3845.00,1.7701
3844.00,1.7694
3843.00,1.7679
3842.00,1.7661
3841.00,1.7641
3840.00,1.7616
3839.00,1.7586
3838.00,1.7553
3837.00,1.7517
3836.00,1.7479
3835.00,1.7438
3834.00,1.7391
3833.00,1.7338
3832.00,1.7282
3831.00,1.7227
3830.00,1.7173
3829.00,1.7113
3828.00,1.7038
3827.00,1.6949
3826.00,1.6856
3825.00,1.6764
3824.00,1.6671
3823.00,1.6562
3822.00,1.6429
3821.00,1.6284
3820.00,1.6141
3819.00,1.6006
3818.00,1.5872
3817.00,1.5727
3816.00,1.5571
3815.00,1.5404
3814.00,1.5231
3813.00,1.5055
3812.00,1.4878
3811.00,1.4704
3810.00,1.4526
3809.00,1.4332
3808.00,1.4111
3807.00,1.3865
3806.00,1.3611
3805.00,1.3364
3804.00,1.3122
3803.00,1.2868
3802.00,1.2592
3801.00,1.2298
3800.00,1.2004
3799.00,1.1719
3798.00,1.1439
3797.00,1.1157
3796.00,1.0875
3795.00,1.0596
3794.00,1.0324
3793.00,1.0060
3792.00,0.9805
3791.00,0.9559
3790.00,0.9324
3789.00,0.9104
3788.00,0.8899
3787.00,0.8710
3786.00,0.8536
3785.00,0.8382
3784.00,0.8253
3783.00,0.8151
3782.00,0.8074
3781.00,0.8020
3780.00,0.7990
3779.00,0.7985
3778.00,0.8005
3777.00,0.8049
3776.00,0.8118
3775.00,0.8214
3774.00,0.8337
3773.00,0.8479
3772.00,0.8636
3771.00,0.8807
3770.00,0.8997
3769.00,0.9201
3768.00,0.9410
3767.00,0.9620
3766.00,0.9837
3765.00,1.0067
3764.00,1.0306
3763.00,1.0543
3762.00,1.0773
3761.00,1.1003
3760.00,1.1238
3759.00,1.1480
3758.00,1.1720
3757.00,1.1953
3756.00,1.2176
3755.00,1.2387
3754.00,1.2591
3753.00,1.2796
3752.00,1.3010
3751.00,1.3238
3750.00,1.3484
3749.00,1.3741
3748.00,1.3993
3747.00,1.4217
3746.00,1.4410
3745.00,1.4603
3744.00,1.4824
3743.00,1.5062
3742.00,1.5286
3741.00,1.5474
3740.00,1.5632
3739.00,1.5765
3738.00,1.5879
3737.00,1.5983
3736.00,1.6094
3735.00,1.6219
3734.00,1.6350
3733.00,1.6477
3732.00,1.6600
3731.00,1.6719
3730.00,1.6833
3729.00,1.6940
3728.00,1.7045
3727.00,1.7152
3726.00,1.7265
3725.00,1.7383
3724.00,1.7504
3723.00,1.7627
3722.00,1.7748
3721.00,1.7852
3720.00,1.7927
3719.00,1.7977
3718.00,1.8022
3717.00,1.8078
3716.00,1.8143
3715.00,1.8194
3714.00,1.8219
3713.00,1.8219
3712.00,1.8209
3711.00,1.8197
3710.00,1.8189
3709.00,1.8187
3708.00,1.8191
3707.00,1.8200
3706.00,1.8208
3705.00,1.8212
3704.00,1.8207
3703.00,1.8192
3702.00,1.8171
3701.00,1.8150
3700.00,1.8131
3699.00,1.8109
3698.00,1.8079
3697.00,1.8042
3696.00,1.8000
3695.00,1.7952
3694.00,1.7898
3693.00,1.7834
3692.00,1.7761
3691.00,1.7681
3690.00,1.7594
3689.00,1.7502
3688.00,1.7400
3687.00,1.7289
3686.00,1.7173
3685.00,1.7056
3684.00,1.6940
3683.00,1.6821
3682.00,1.6691
3681.00,1.6551
3680.00,1.6406
3679.00,1.6264
3678.00,1.6117
3677.00,1.5948
3676.00,1.5753
3675.00,1.5547
3674.00,1.5352
3673.00,1.5178
3672.00,1.5013
3671.00,1.4839
3670.00,1.4654
3669.00,1.4462
3668.00,1.4274
3667.00,1.4096
3666.00,1.3927
3665.00,1.3764
3664.00,1.3602
3663.00,1.3438
3662.00,1.3273
3661.00,1.3113
3660.00,1.2962
3659.00,1.2820
3658.00,1.2679
3657.00,1.2536
3656.00,1.2393
3655.00,1.2259
3654.00,1.2143
3653.00,1.2045
3652.00,1.1961
3651.00,1.1884
3650.00,1.1807
3649.00,1.1729
3648.00,1.1652
3647.00,1.1588
3646.00,1.1545
3645.00,1.1525
3644.00,1.1526
3643.00,1.1543
3642.00,1.1570
3641.00,1.1605
3640.00,1.1645
3639.00,1.1690
3638.00,1.1741
3637.00,1.1800
3636.00,1.1862
3635.00,1.1927
3634.00,1.1998
3633.00,1.2081
3632.00,1.2175
3631.00,1.2276
3630.00,1.2390
3629.00,1.2524
3628.00,1.2673
3627.00,1.2822
3626.00,1.2968
3625.00,1.3116
3624.00,1.3277
3623.00,1.3449
3622.00,1.3627
3621.00,1.3806
3620.00,1.3986
3619.00,1.4160
3618.00,1.4321
3617.00,1.4469
3616.00,1.4613
3615.00,1.4761
3614.00,1.4917
3613.00,1.5074
3612.00,1.5225
3611.00,1.5364
3610.00,1.5498
3609.00,1.5635
3608.00,1.5779
3607.00,1.5930
3606.00,1.6085
3605.00,1.6238
3604.00,1.6387
3603.00,1.6534
3602.00,1.6681
3601.00,1.6830
3600.00,1.6979
3599.00,1.7123
3598.00,1.7264
3597.00,1.7403
3596.00,1.7543
3595.00,1.7677
3594.00,1.7804
3593.00,1.7926
3592.00,1.8046
3591.00,1.8163
3590.00,1.8275
3589.00,1.8382
3588.00,1.8485
3587.00,1.8584
3586.00,1.8681
3585.00,1.8774
3584.00,1.8862
3583.00,1.8943
3582.00,1.9019
3581.00,1.9092
3580.00,1.9162
3579.00,1.9225
3578.00,1.9279
3577.00,1.9324
3576.00,1.9367
3575.00,1.9409
3574.00,1.9448
3573.00,1.9485
3572.00,1.9514
3571.00,1.9535
3570.00,1.9549
3569.00,1.9558
3568.00,1.9567
3567.00,1.9576
3566.00,1.9581
3565.00,1.9579
3564.00,1.9570
3563.00,1.9555
3562.00,1.9539
3561.00,1.9524
3560.00,1.9510
3559.00,1.9493
3558.00,1.9468
3557.00,1.9436
3556.00,1.9398
3555.00,1.9357
3554.00,1.9314
3553.00,1.9266
3552.00,1.9211
3551.00,1.9150
3550.00,1.9085
3549.00,1.9020
3548.00,1.8954
3547.00,1.8883
3546.00,1.8806
3545.00,1.8723
3544.00,1.8640
3543.00,1.8555
3542.00,1.8469
3541.00,1.8379
3540.00,1.8284
3539.00,1.8182
3538.00,1.8072
3537.00,1.7955
3536.00,1.7833
3535.00,1.7706
3534.00,1.7577
3533.00,1.7444
3532.00,1.7305
3531.00,1.7155
3530.00,1.6996
3529.00,1.6828
3528.00,1.6655
3527.00,1.6478
3526.00,1.6297
3525.00,1.6108
3524.00,1.5912
3523.00,1.5710
3522.00,1.5502
3521.00,1.5291
3520.00,1.5075
3519.00,1.4853
3518.00,1.4625
3517.00,1.4393
3516.00,1.4156
3515.00,1.3918
3514.00,1.3681
3513.00,1.3447
3512.00,1.3215
3511.00,1.2986
3510.00,1.2760
3509.00,1.2539
3508.00,1.2327
3507.00,1.2128
3506.00,1.1942
3505.00,1.1771
3504.00,1.1614
3503.00,1.1472
3502.00,1.1347
3501.00,1.1241
3500.00,1.1156
3499.00,1.1093
3498.00,1.1050
3497.00,1.1028
3496.00,1.1026
3495.00,1.1046
3494.00,1.1087
3493.00,1.1148
3492.00,1.1229
3491.00,1.1326
3490.00,1.1439
3489.00,1.1565
3488.00,1.1707
3487.00,1.1861
3486.00,1.2027
3485.00,1.2202
3484.00,1.2384
3483.00,1.2573
3482.00,1.2767
3481.00,1.2967
3480.00,1.3171
3479.00,1.3379
3478.00,1.3588
3477.00,1.3798
3476.00,1.4008
3475.00,1.4218
3474.00,1.4428
3473.00,1.4635
3472.00,1.4840
3471.00,1.5044
3470.00,1.5248
3469.00,1.5451
3468.00,1.5652
3467.00,1.5848
3466.00,1.6042
3465.00,1.6235
3464.00,1.6428
3463.00,1.6620
3462.00,1.6807
3461.00,1.6988
3460.00,1.7160
3459.00,1.7326
3458.00,1.7488
3457.00,1.7649
3456.00,1.7810
3455.00,1.7970
3454.00,1.8123
3453.00,1.8267
3452.00,1.8402
3451.00,1.8530
3450.00,1.8652
3449.00,1.8771
3448.00,1.8885
3447.00,1.8993
3446.00,1.9095
3445.00,1.9192
3444.00,1.9286
3443.00,1.9377
3442.00,1.9463
3441.00,1.9544
3440.00,1.9616
3439.00,1.9678
3438.00,1.9734
3437.00,1.9785
3436.00,1.9833
3435.00,1.9878
3434.00,1.9918
3433.00,1.9953
3432.00,1.9981
3431.00,2.0003
3430.00,2.0019
3429.00,2.0032
3428.00,2.0042
3427.00,2.0048
3426.00,2.0050
3425.00,2.0051
3424.00,2.0052
3423.00,2.0049
3422.00,2.0040
3421.00,2.0022
3420.00,1.9994
3419.00,1.9959
3418.00,1.9920
3417.00,1.9878
3416.00,1.9835
3415.00,1.9789
3414.00,1.9736
3413.00,1.9675
3412.00,1.9611
3411.00,1.9543
3410.00,1.9472
3409.00,1.9398
3408.00,1.9322
3407.00,1.9241
3406.00,1.9155
3405.00,1.9060
3404.00,1.8960
3403.00,1.8855
3402.00,1.8745
3401.00,1.8628
3400.00,1.8504
3399.00,1.8374
3398.00,1.8237
3397.00,1.8094
3396.00,1.7942
3395.00,1.7781
3394.00,1.7614
3393.00,1.7441
3392.00,1.7263
3391.00,1.7077
3390.00,1.6883
3389.00,1.6683
3388.00,1.6474
3387.00,1.6257
3386.00,1.6032
3385.00,1.5800
3384.00,1.5559
3383.00,1.5310
3382.00,1.5052
3381.00,1.4788
3380.00,1.4521
3379.00,1.4252
3378.00,1.3981
3377.00,1.3705
3376.00,1.3428
3375.00,1.3151
3374.00,1.2877
3373.00,1.2608
3372.00,1.2347
3371.00,1.2095
3370.00,1.1855
3369.00,1.1630
3368.00,1.1422
3367.00,1.1232
3366.00,1.1061
3365.00,1.0912
3364.00,1.0787
3363.00,1.0686
3362.00,1.0610
3361.00,1.0560
3360.00,1.0537
3359.00,1.0540
3358.00,1.0569
3357.00,1.0624
3356.00,1.0704
3355.00,1.0806
3354.00,1.0928
3353.00,1.1069
3352.00,1.1228
3351.00,1.1403
3350.00,1.1592
3349.00,1.1792
3348.00,1.2001
3347.00,1.2217
3346.00,1.2439
3345.00,1.2667
3344.00,1.2898
3343.00,1.3133
3342.00,1.3370
3341.00,1.3609
3340.00,1.3849
3339.00,1.4089
3338.00,1.4326
3337.00,1.4561
3336.00,1.4793
3335.00,1.5023
3334.00,1.5253
3333.00,1.5481
3332.00,1.5707
3331.00,1.5930
3330.00,1.6151
3329.00,1.6367
3328.00,1.6579
3327.00,1.6785
3326.00,1.6986
3325.00,1.7182
3324.00,1.7375
3323.00,1.7562
3322.00,1.7742
3321.00,1.7916
3320.00,1.8086
3319.00,1.8252
3318.00,1.8411
3317.00,1.8563
3316.00,1.8709
3315.00,1.8853
3314.00,1.8992
3313.00,1.9126
3312.00,1.9252
3311.00,1.9371
3310.00,1.9483
3309.00,1.9591
3308.00,1.9696
3307.00,1.9798
3306.00,1.9895
3305.00,1.9987
3304.00,2.0073
3303.00,2.0152
3302.00,2.0221
3301.00,2.0281
3300.00,2.0334
3299.00,2.0382
3298.00,2.0426
3297.00,2.0466
3296.00,2.0503
3295.00,2.0540
3294.00,2.0577
3293.00,2.0612
3292.00,2.0636
3291.00,2.0644
3290.00,2.0640
3289.00,2.0636
3288.00,2.0638
3287.00,2.0646
3286.00,2.0650
3285.00,2.0644
3284.00,2.0629
3283.00,2.0608
3282.00,2.0584
3281.00,2.0557
3280.00,2.0527
3279.00,2.0492
3278.00,2.0453
3277.00,2.0407
3276.00,2.0354
3275.00,2.0296
3274.00,2.0234
3273.00,2.0169
3272.00,2.0100
3271.00,2.0027
3270.00,1.9949
3269.00,1.9866
3268.00,1.9777
3267.00,1.9682
3266.00,1.9579
3265.00,1.9468
3264.00,1.9350
3263.00,1.9226
3262.00,1.9100
3261.00,1.8968
3260.00,1.8828
3259.00,1.8678
3258.00,1.8520
3257.00,1.8354
3256.00,1.8181
3255.00,1.8002
3254.00,1.7818
3253.00,1.7628
3252.00,1.7431
3251.00,1.7228
3250.00,1.7017
3249.00,1.6798
3248.00,1.6571
3247.00,1.6333
3246.00,1.6087
3245.00,1.5834
3244.00,1.5575
3243.00,1.5311
3242.00,1.5042
3241.00,1.4769
3240.00,1.4492
3239.00,1.4213
3238.00,1.3935
3237.00,1.3660
3236.00,1.3390
3235.00,1.3126
3234.00,1.2870
3233.00,1.2624
3232.00,1.2393
3231.00,1.2179
3230.00,1.1984
3229.00,1.1810
3228.00,1.1657
3227.00,1.1529
3226.00,1.1425
3225.00,1.1349
3224.00,1.1300
3223.00,1.1280
3222.00,1.1290
3221.00,1.1328
3220.00,1.1395
3219.00,1.1489
3218.00,1.1607
3217.00,1.1749
3216.00,1.1913
3215.00,1.2098
3214.00,1.2301
3213.00,1.2518
3212.00,1.2749
3211.00,1.2989
3210.00,1.3237
3209.00,1.3490
3208.00,1.3747
3207.00,1.4003
3206.00,1.4257
3205.00,1.4506
3204.00,1.4746
3203.00,1.4974
3202.00,1.5189
3201.00,1.5391
3200.00,1.5583
3199.00,1.5769
3198.00,1.5951
3197.00,1.6134
3196.00,1.6319
3195.00,1.6508
3194.00,1.6702
3193.00,1.6900
3192.00,1.7102
3191.00,1.7306
3190.00,1.7510
3189.00,1.7713
3188.00,1.7915
3187.00,1.8115
3186.00,1.8313
3185.00,1.8509
3184.00,1.8703
3183.00,1.8893
3182.00,1.9077
3181.00,1.9251
3180.00,1.9419
3179.00,1.9586
3178.00,1.9751
3177.00,1.9915
3176.00,2.0073
3175.00,2.0223
3174.00,2.0366
3173.00,2.0504
3172.00,2.0639
3171.00,2.0772
3170.00,2.0904
3169.00,2.1034
3168.00,2.1158
3167.00,2.1270
3166.00,2.1363
3165.00,2.1430
3164.00,2.1463
3163.00,2.1463
3162.00,2.1440
3161.00,2.1409
3160.00,2.1384
3159.00,2.1370
3158.00,2.1368
3157.00,2.1377
3156.00,2.1391
3155.00,2.1406
3154.00,2.1419
3153.00,2.1433
3152.00,2.1449
3151.00,2.1466
3150.00,2.1477
3149.00,2.1481
3148.00,2.1475
3147.00,2.1465
3146.00,2.1454
3145.00,2.1446
3144.00,2.1436
3143.00,2.1418
3142.00,2.1390
3141.00,2.1354
3140.00,2.1315
3139.00,2.1273
3138.00,2.1223
3137.00,2.1165
3136.00,2.1101
3135.00,2.1035
3134.00,2.0968
3133.00,2.0897
3132.00,2.0820
3131.00,2.0737
3130.00,2.0647
3129.00,2.0553
3128.00,2.0452
3127.00,2.0345
3126.00,2.0232
3125.00,2.0115
3124.00,1.9994
3123.00,1.9872
3122.00,1.9748
3121.00,1.9619
3120.00,1.9480
3119.00,1.9327
3118.00,1.9165
3117.00,1.8997
3116.00,1.8829
3115.00,1.8656
3114.00,1.8475
3113.00,1.8283
3112.00,1.8082
3111.00,1.7875
3110.00,1.7664
3109.00,1.7447
3108.00,1.7224
3107.00,1.6994
3106.00,1.6756
3105.00,1.6512
3104.00,1.6264
3103.00,1.6012
3102.00,1.5758
3101.00,1.5504
3100.00,1.5252
3099.00,1.5003
3098.00,1.4759
3097.00,1.4522
3096.00,1.4294
3095.00,1.4077
3094.00,1.3870
3093.00,1.3678
3092.00,1.3502
3091.00,1.3345
3090.00,1.3208
3089.00,1.3093
3088.00,1.2999
3087.00,1.2928
3086.00,1.2881
3085.00,1.2857
3084.00,1.2858
3083.00,1.2882
3082.00,1.2930
3081.00,1.3002
3080.00,1.3096
3079.00,1.3209
3078.00,1.3341
3077.00,1.3490
3076.00,1.3655
3075.00,1.3833
3074.00,1.4022
3073.00,1.4221
3072.00,1.4430
3071.00,1.4647
3070.00,1.4869
3069.00,1.5097
3068.00,1.5328
3067.00,1.5560
3066.00,1.5793
3065.00,1.6026
3064.00,1.6260
3063.00,1.6495
3062.00,1.6729
3061.00,1.6961
3060.00,1.7192
3059.00,1.7422
3058.00,1.7648
3057.00,1.7871
3056.00,1.8090
3055.00,1.8304
3054.00,1.8512
3053.00,1.8714
3052.00,1.8912
3051.00,1.9108
3050.00,1.9303
3049.00,1.9496
3048.00,1.9684
3047.00,1.9866
3046.00,2.0042
3045.00,2.0213
3044.00,2.0379
3043.00,2.0536
3042.00,2.0683
3041.00,2.0821
3040.00,2.0954
3039.00,2.1084
3038.00,2.1210
3037.00,2.1334
3036.00,2.1456
3035.00,2.1572
3034.00,2.1681
3033.00,2.1782
3032.00,2.1879
3031.00,2.1972
3030.00,2.2063
3029.00,2.2148
3028.00,2.2225
3027.00,2.2290
3026.00,2.2344
3025.00,2.2399
3024.00,2.2460
3023.00,2.2523
3022.00,2.2576
3021.00,2.2616
3020.00,2.2650
3019.00,2.2679
3018.00,2.2703
3017.00,2.2726
3016.00,2.2755
3015.00,2.2796
3014.00,2.2843
3013.00,2.2884
3012.00,2.2913
3011.00,2.2934
3010.00,2.2955
3009.00,2.2984
3008.00,2.3025
3007.00,2.3071
3006.00,2.3107
3005.00,2.3123
3004.00,2.3120
3003.00,2.3107
3002.00,2.3093
3001.00,2.3077
3000.00,2.3056
2999.00,2.3024
2998.00,2.2977
2997.00,2.2915
2996.00,2.2842
2995.00,2.2764
2994.00,2.2688
2993.00,2.2611
2992.00,2.2530
2991.00,2.2436
2990.00,2.2324
2989.00,2.2195
2988.00,2.2055
2987.00,2.1912
2986.00,2.1776
2985.00,2.1647
2984.00,2.1520
2983.00,2.1386
2982.00,2.1242
2981.00,2.1088
2980.00,2.0931
2979.00,2.0778
2978.00,2.0632
2977.00,2.0496
2976.00,2.0372
2975.00,2.0262
2974.00,2.0171
2973.00,2.0102
2972.00,2.0054
2971.00,2.0021
2970.00,2.0001
2969.00,1.9993
2968.00,2.0002
2967.00,2.0029
2966.00,2.0073
2965.00,2.0129
2964.00,2.0191
2963.00,2.0256
2962.00,2.0324
2961.00,2.0399
2960.00,2.0484
2959.00,2.0579
2958.00,2.0688
2957.00,2.0815
2956.00,2.0965
2955.00,2.1139
2954.00,2.1329
2953.00,2.1529
2952.00,2.1741
2951.00,2.1971
2950.00,2.2223
2949.00,2.2492
2948.00,2.2769
2947.00,2.3044
2946.00,2.3301
2945.00,2.3516
2944.00,2.3656
2943.00,2.3691
2942.00,2.3611
2941.00,2.3429
2940.00,2.3175
2939.00,2.2880
2938.00,2.2564
2937.00,2.2236
2936.00,2.1902
2935.00,2.1567
2934.00,2.1233
2933.00,2.0904
2932.00,2.0582
2931.00,2.0270
2930.00,1.9968
2929.00,1.9676
2928.00,1.9394
2927.00,1.9124
2926.00,1.8867
2925.00,1.8622
2924.00,1.8392
2923.00,1.8178
2922.00,1.7986
2921.00,1.7821
2920.00,1.7686
2919.00,1.7581
2918.00,1.7505
2917.00,1.7460
2916.00,1.7446
2915.00,1.7462
2914.00,1.7509
2913.00,1.7581
2912.00,1.7674
2911.00,1.7784
2910.00,1.7906
2909.00,1.8040
2908.00,1.8184
2907.00,1.8335
2906.00,1.8492
2905.00,1.8656
2904.00,1.8825
2903.00,1.8997
2902.00,1.9171
2901.00,1.9346
2900.00,1.9520
2899.00,1.9694
2898.00,1.9870
2897.00,2.0048
2896.00,2.0229
2895.00,2.0407
2894.00,2.0582
2893.00,2.0751
2892.00,2.0918
2891.00,2.1086
2890.00,2.1257
2889.00,2.1429
2888.00,2.1600
2887.00,2.1763
2886.00,2.1918
2885.00,2.2067
2884.00,2.2213
2883.00,2.2359
2882.00,2.2501
2881.00,2.2638
2880.00,2.2768
2879.00,2.2891
2878.00,2.3006
2877.00,2.3112
2876.00,2.3211
2875.00,2.3305
2874.00,2.3393
2873.00,2.3471
2872.00,2.3534
2871.00,2.3583
2870.00,2.3624
2869.00,2.3661
2868.00,2.3695
2867.00,2.3726
2866.00,2.3750
2865.00,2.3765
2864.00,2.3770
2863.00,2.3767
2862.00,2.3760
2861.00,2.3749
2860.00,2.3732
2859.00,2.3709
2858.00,2.3683
2857.00,2.3658
2856.00,2.3631
2855.00,2.3595
2854.00,2.3547
2853.00,2.3496
2852.00,2.3454
2851.00,2.3428
2850.00,2.3410
2849.00,2.3384
2848.00,2.3340
2847.00,2.3282
2846.00,2.3224
2845.00,2.3172
2844.00,2.3126
2843.00,2.3074
2842.00,2.3010
2841.00,2.2933
2840.00,2.2850
2839.00,2.2770
2838.00,2.2691
2837.00,2.2607
2836.00,2.2516
2835.00,2.2415
2834.00,2.2307
2833.00,2.2186
2832.00,2.2053
2831.00,2.1909
2830.00,2.1762
2829.00,2.1616
2828.00,2.1468
2827.00,2.1310
2826.00,2.1138
2825.00,2.0952
2824.00,2.0758
2823.00,2.0559
2822.00,2.0351
2821.00,2.0130
2820.00,1.9892
2819.00,1.9642
2818.00,1.9380
2817.00,1.9107
2816.00,1.8820
2815.00,1.8521
2814.00,1.8210
2813.00,1.7887
2812.00,1.7553
2811.00,1.7205
2810.00,1.6841
2809.00,1.6463
2808.00,1.6073
2807.00,1.5677
2806.00,1.5280
2805.00,1.4885
2804.00,1.4494
2803.00,1.4111
2802.00,1.3742
2801.00,1.3388
2800.00,1.3055
2799.00,1.2744
2798.00,1.2460
2797.00,1.2207
2796.00,1.1989
2795.00,1.1811
2794.00,1.1676
2793.00,1.1586
2792.00,1.1544
2791.00,1.1552
2790.00,1.1607
2789.00,1.1708
2788.00,1.1852
2787.00,1.2034
2786.00,1.2249
2785.00,1.2493
2784.00,1.2759
2783.00,1.3044
2782.00,1.3343
2781.00,1.3651
2780.00,1.3967
2779.00,1.4287
2778.00,1.4610
2777.00,1.4934
2776.00,1.5259
2775.00,1.5583
2774.00,1.5906
2773.00,1.6226
2772.00,1.6544
2771.00,1.6860
2770.00,1.7171
2769.00,1.7479
2768.00,1.7781
2767.00,1.8079
2766.00,1.8374
2765.00,1.8665
2764.00,1.8952
2763.00,1.9234
2762.00,1.9510
2761.00,1.9778
2760.00,2.0036
2759.00,2.0285
2758.00,2.0524
2757.00,2.0756
2756.00,2.0981
2755.00,2.1199
2754.00,2.1408
2753.00,2.1607
2752.00,2.1794
2751.00,2.1967
2750.00,2.2125
2749.00,2.2273
2748.00,2.2417
2747.00,2.2561
2746.00,2.2705
2745.00,2.2842
2744.00,2.2967
2743.00,2.3079
2742.00,2.3182
2741.00,2.3278
2740.00,2.3366
2739.00,2.3444
2738.00,2.3516
2737.00,2.3583
2736.00,2.3645
2735.00,2.3703
2734.00,2.3761
2733.00,2.3821
2732.00,2.3879
2731.00,2.3929
2730.00,2.3970
2729.00,2.4007
2728.00,2.4042
2727.00,2.4072
2726.00,2.4094
2725.00,2.4106
2724.00,2.4110
2723.00,2.4109
2722.00,2.4107
2721.00,2.4106
2720.00,2.4102
2719.00,2.4093
2718.00,2.4075
2717.00,2.4051
2716.00,2.4024
2715.00,2.3997
2714.00,2.3968
2713.00,2.3930
2712.00,2.3878
2711.00,2.3812
2710.00,2.3742
2709.00,2.3670
2708.00,2.3601
2707.00,2.3531
2706.00,2.3458
2705.00,2.3378
2704.00,2.3290
2703.00,2.3195
2702.00,2.3097
2701.00,2.2994
2700.00,2.2882
2699.00,2.2758
2698.00,2.2621
2697.00,2.2475
2696.00,2.2324
2695.00,2.2171
2694.00,2.2017
2693.00,2.1856
2692.00,2.1683
2691.00,2.1495
2690.00,2.1294
2689.00,2.1085
2688.00,2.0870
2687.00,2.0646
2686.00,2.0413
2685.00,2.0171
2684.00,1.9920
2683.00,1.9656
2682.00,1.9377
2681.00,1.9082
2680.00,1.8774
2679.00,1.8455
2678.00,1.8125
2677.00,1.7781
2676.00,1.7420
2675.00,1.7044
2674.00,1.6655
2673.00,1.6254
2672.00,1.5842
2671.00,1.5419
2670.00,1.4986
2669.00,1.4547
2668.00,1.4108
2667.00,1.3678
2666.00,1.3262
2665.00,1.2870
2664.00,1.2508
2663.00,1.2185
2662.00,1.1905
2661.00,1.1673
2660.00,1.1494
2659.00,1.1371
2658.00,1.1305
2657.00,1.1298
2656.00,1.1348
2655.00,1.1453
2654.00,1.1608
2653.00,1.1809
2652.00,1.2051
2651.00,1.2326
2650.00,1.2628
2649.00,1.2953
2648.00,1.3293
2647.00,1.3646
2646.00,1.4007
2645.00,1.4374
2644.00,1.4745
2643.00,1.5118
2642.00,1.5493
2641.00,1.5870
2640.00,1.6249
2639.00,1.6627
2638.00,1.7004
2637.00,1.7377
2636.00,1.7748
2635.00,1.8116
2634.00,1.8482
2633.00,1.8844
2632.00,1.9196
2631.00,1.9530
2630.00,1.9842
2629.00,2.0127
2628.00,2.0382
2627.00,2.0606
2626.00,2.0805
2625.00,2.0991
2624.00,2.1174
2623.00,2.1358
2622.00,2.1543
2621.00,2.1730
2620.00,2.1916
2619.00,2.2099
2618.00,2.2277
2617.00,2.2452
2616.00,2.2624
2615.00,2.2792
2614.00,2.2957
2613.00,2.3116
2612.00,2.3271
2611.00,2.3420
2610.00,2.3566
2609.00,2.3708
2608.00,2.3838
2607.00,2.3953
2606.00,2.4056
2605.00,2.4153
2604.00,2.4246
2603.00,2.4331
2602.00,2.4408
2601.00,2.4482
2600.00,2.4558
2599.00,2.4635
2598.00,2.4707
2597.00,2.4768
2596.00,2.4812
2595.00,2.4839
2594.00,2.4855
2593.00,2.4873
2592.00,2.4901
2591.00,2.4941
2590.00,2.4986
2589.00,2.5029
2588.00,2.5058
2587.00,2.5066
2586.00,2.5058
2585.00,2.5050
2584.00,2.5053
2583.00,2.5063
2582.00,2.5065
2581.00,2.5048
2580.00,2.5012
2579.00,2.4966
2578.00,2.4924
2577.00,2.4891
2576.00,2.4863
2575.00,2.4827
2574.00,2.4774
2573.00,2.4703
2572.00,2.4621
2571.00,2.4541
2570.00,2.4471
2569.00,2.4409
2568.00,2.4346
2567.00,2.4268
2566.00,2.4175
2565.00,2.4074
2564.00,2.3968
2563.00,2.3858
2562.00,2.3742
2561.00,2.3619
2560.00,2.3487
2559.00,2.3346
2558.00,2.3197
2557.00,2.3045
2556.00,2.2888
2555.00,2.2722
2554.00,2.2540
2553.00,2.2344
2552.00,2.2137
2551.00,2.1924
2550.00,2.1701
2549.00,2.1467
2548.00,2.1218
2547.00,2.0956
2546.00,2.0684
2545.00,2.0400
2544.00,2.0101
2543.00,1.9783
2542.00,1.9447
2541.00,1.9095
2540.00,1.8727
2539.00,1.8340
2538.00,1.7933
2537.00,1.7507
2536.00,1.7066
2535.00,1.6611
2534.00,1.6146
2533.00,1.5674
2532.00,1.5201
2531.00,1.4731
2530.00,1.4273
2529.00,1.3835
2528.00,1.3425
2527.00,1.3047
2526.00,1.2707
2525.00,1.2411
2524.00,1.2165
2523.00,1.1974
2522.00,1.1840
2521.00,1.1767
2520.00,1.1758
2519.00,1.1811
2518.00,1.1924
2517.00,1.2093
2516.00,1.2312
2515.00,1.2575
2514.00,1.2873
2513.00,1.3198
2512.00,1.3545
2511.00,1.3908
2510.00,1.4282
2509.00,1.4663
2508.00,1.5048
2507.00,1.5434
2506.00,1.5820
2505.00,1.6204
2504.00,1.6584
2503.00,1.6959
2502.00,1.7329
2501.00,1.7695
2500.00,1.8058
2499.00,1.8415
2498.00,1.8766
2497.00,1.9112
2496.00,1.9455
2495.00,1.9795
2494.00,2.0130
2493.00,2.0456
2492.00,2.0772
2491.00,2.1079
2490.00,2.1374
2489.00,2.1653
2488.00,2.1918
2487.00,2.2173
2486.00,2.2421
2485.00,2.2662
2484.00,2.2893
2483.00,2.3115
2482.00,2.3328
2481.00,2.3526
2480.00,2.3705
2479.00,2.3866
2478.00,2.4021
2477.00,2.4179
2476.00,2.4335
2475.00,2.4476
2474.00,2.4594
2473.00,2.4698
2472.00,2.4804
2471.00,2.4922
2470.00,2.5042
2469.00,2.5153
2468.00,2.5248
2467.00,2.5331
2466.00,2.5410
2465.00,2.5489
2464.00,2.5568
2463.00,2.5648
2462.00,2.5725
2461.00,2.5794
2460.00,2.5847
2459.00,2.5885
2458.00,2.5918
2457.00,2.5955
2456.00,2.5998
2455.00,2.6043
2454.00,2.6084
2453.00,2.6112
2452.00,2.6122
2451.00,2.6118
2450.00,2.6109
2449.00,2.6102
2448.00,2.6099
2447.00,2.6099
2446.00,2.6097
2445.00,2.6086
2444.00,2.6063
2443.00,2.6029
2442.00,2.5993
2441.00,2.5960
2440.00,2.5929
2439.00,2.5893
2438.00,2.5847
2437.00,2.5788
2436.00,2.5716
2435.00,2.5641
2434.00,2.5573
2433.00,2.5513
2432.00,2.5451
2431.00,2.5378
2430.00,2.5295
2429.00,2.5205
2428.00,2.5108
2427.00,2.5000
2426.00,2.4881
2425.00,2.4758
2424.00,2.4636
2423.00,2.4514
2422.00,2.4385
2421.00,2.4246
2420.00,2.4094
2419.00,2.3933
2418.00,2.3771
2417.00,2.3612
2416.00,2.3452
2415.00,2.3285
2414.00,2.3105
2413.00,2.2913
2412.00,2.2714
2411.00,2.2510
2410.00,2.2302
2409.00,2.2086
2408.00,2.1858
2407.00,2.1613
2406.00,2.1348
2405.00,2.1064
2404.00,2.0761
2403.00,2.0440
2402.00,2.0099
2401.00,1.9739
2400.00,1.9359
2399.00,1.8957
2398.00,1.8534
2397.00,1.8091
2396.00,1.7631
2395.00,1.7158
2394.00,1.6681
2393.00,1.6211
2392.00,1.5764
2391.00,1.5354
2390.00,1.4999
2389.00,1.4717
2388.00,1.4522
2387.00,1.4426
2386.00,1.4430
2385.00,1.4528
2384.00,1.4703
2383.00,1.4930
2382.00,1.5171
2381.00,1.5392
2380.00,1.5563
2379.00,1.5670
2378.00,1.5711
2377.00,1.5696
2376.00,1.5654
2375.00,1.5621
2374.00,1.5626
2373.00,1.5672
2372.00,1.5757
2371.00,1.5883
2370.00,1.6038
2369.00,1.6190
2368.00,1.6335
2367.00,1.6496
2366.00,1.6657
2365.00,1.6770
2364.00,1.6971
2363.00,1.7079
2362.00,1.7443
2361.00,1.7327
2360.00,1.9300
2359.00,2.1078
2358.00,2.0814
2357.00,2.1503
2356.00,2.1646
2355.00,2.2112
2354.00,2.2379
2353.00,2.2725
2352.00,2.3003
2351.00,2.3260
2350.00,2.3492
2349.00,2.3712
2348.00,2.3932
2347.00,2.4153
2346.00,2.4373
2345.00,2.4589
2344.00,2.4796
2343.00,2.4992
2342.00,2.5173
2341.00,2.5340
2340.00,2.5494
2339.00,2.5642
2338.00,2.5783
2337.00,2.5915
2336.00,2.6030
2335.00,2.6129
2334.00,2.6217
2333.00,2.6299
2332.00,2.6378
2331.00,2.6456
2330.00,2.6538
2329.00,2.6621
2328.00,2.6691
2327.00,2.6760
2326.00,2.6787
2325.00,2.6892
2324.00,2.6869
2323.00,2.7085
2322.00,2.6795
2321.00,2.8427
2320.00,2.9844
2319.00,2.9350
2318.00,2.9755
2317.00,2.9757
2316.00,3.0030
2315.00,3.0107
2314.00,3.0192
2313.00,3.0180
2312.00,3.0127
2311.00,3.0040
2310.00,2.9933
2309.00,2.9796
2308.00,2.9617
2307.00,2.9392
2306.00,2.9145
2305.00,2.8895
2304.00,2.8658
2303.00,2.8417
2302.00,2.8179
2301.00,2.7950
2300.00,2.7754
2299.00,2.7607
2298.00,2.7530
2297.00,2.7535
2296.00,2.7612
2295.00,2.7746
2294.00,2.7903
2293.00,2.8051
2292.00,2.8130
2291.00,2.8093
2290.00,2.7929
2289.00,2.7683
2288.00,2.7407
2287.00,2.7131
2286.00,2.6857
2285.00,2.6579
2284.00,2.6280
2283.00,2.5954
2282.00,2.5606
2281.00,2.5253
2280.00,2.4905
2279.00,2.4550
2278.00,2.4175
2277.00,2.3768
2276.00,2.3331
2275.00,2.2870
2274.00,2.2385
2273.00,2.1880
2272.00,2.1353
2271.00,2.0810
2270.00,2.0269
2269.00,1.9760
2268.00,1.9326
2267.00,1.9017
2266.00,1.8880
2265.00,1.8959
2264.00,1.9277
2263.00,1.9849
2262.00,2.0674
2261.00,2.1743
2260.00,2.3043
2259.00,2.4558
2258.00,2.6280
2257.00,2.8211
2256.00,3.0357
2255.00,3.2691
2254.00,3.5019
2253.00,3.6764
2252.00,3.7089
2251.00,3.6001
2250.00,3.4356
2249.00,3.2726
2248.00,3.1303
2247.00,3.0105
2246.00,2.9095
2245.00,2.8225
2244.00,2.7434
2243.00,2.6665
2242.00,2.5878
2241.00,2.5063
2240.00,2.4231
2239.00,2.3387
2238.00,2.2526
2237.00,2.1642
2236.00,2.0737
2235.00,1.9821
2234.00,1.8916
2233.00,1.8045
2232.00,1.7237
2231.00,1.6519
2230.00,1.5916
2229.00,1.5441
2228.00,1.5095
2227.00,1.4874
2226.00,1.4771
2225.00,1.4781
2224.00,1.4900
2223.00,1.5117
2222.00,1.5417
2221.00,1.5783
2220.00,1.6199
2219.00,1.6648
2218.00,1.7120
2217.00,1.7603
2216.00,1.8089
2215.00,1.8572
2214.00,1.9047
2213.00,1.9517
2212.00,1.9983
2211.00,2.0444
2210.00,2.0898
2209.00,2.1344
2208.00,2.1784
2207.00,2.2216
2206.00,2.2631
2205.00,2.3015
2204.00,2.3350
2203.00,2.3635
2202.00,2.3884
2201.00,2.4124
2200.00,2.4374
2199.00,2.4633
2198.00,2.4886
2197.00,2.5123
2196.00,2.5337
2195.00,2.5530
2194.00,2.5708
2193.00,2.5886
2192.00,2.6076
2191.00,2.6276
2190.00,2.6467
2189.00,2.6631
2188.00,2.6762
2187.00,2.6869
2186.00,2.6969
2185.00,2.7073
2184.00,2.7192
2183.00,2.7322
2182.00,2.7448
2181.00,2.7552
2180.00,2.7627
2179.00,2.7685
2178.00,2.7739
2177.00,2.7800
2176.00,2.7864
2175.00,2.7919
2174.00,2.7954
2173.00,2.7967
2172.00,2.7974
2171.00,2.7991
2170.00,2.8025
2169.00,2.8067
2168.00,2.8101
2167.00,2.8122
2166.00,2.8140
2165.00,2.8168
2164.00,2.8203
2163.00,2.8222
2162.00,2.8208
2161.00,2.8173
2160.00,2.8139
2159.00,2.8122
2158.00,2.8112
2157.00,2.8094
2156.00,2.8061
2155.00,2.8014
2154.00,2.7954
2153.00,2.7882
2152.00,2.7798
2151.00,2.7714
2150.00,2.7640
2149.00,2.7578
2148.00,2.7516
2147.00,2.7439
2146.00,2.7342
2145.00,2.7234
2144.00,2.7125
2143.00,2.7022
2142.00,2.6924
2141.00,2.6822
2140.00,2.6703
2139.00,2.6558
2138.00,2.6389
2137.00,2.6212
2136.00,2.6042
2135.00,2.5880
2134.00,2.5712
2133.00,2.5531
2132.00,2.5336
2131.00,2.5132
2130.00,2.4921
2129.00,2.4699
2128.00,2.4462
2127.00,2.4205
2126.00,2.3926
2125.00,2.3628
2124.00,2.3314
2123.00,2.2986
2122.00,2.2640
2121.00,2.2276
2120.00,2.1893
2119.00,2.1492
2118.00,2.1071
2117.00,2.0625
2116.00,2.0149
2115.00,1.9644
2114.00,1.9113
2113.00,1.8561
2112.00,1.7994
2111.00,1.7418
2110.00,1.6841
2109.00,1.6274
2108.00,1.5730
2107.00,1.5223
2106.00,1.4764
2105.00,1.4363
2104.00,1.4028
2103.00,1.3767
2102.00,1.3587
2101.00,1.3493
2100.00,1.3488
2099.00,1.3568
2098.00,1.3730
2097.00,1.3968
2096.00,1.4270
2095.00,1.4625
2094.00,1.5020
2093.00,1.5447
2092.00,1.5895
2091.00,1.6354
2090.00,1.6818
2089.00,1.7281
2088.00,1.7744
2087.00,1.8207
2086.00,1.8667
2085.00,1.9122
2084.00,1.9569
2083.00,2.0009
2082.00,2.0445
2081.00,2.0881
2080.00,2.1315
2079.00,2.1739
2078.00,2.2148
2077.00,2.2541
2076.00,2.2920
2075.00,2.3287
2074.00,2.3641
2073.00,2.3977
2072.00,2.4287
2071.00,2.4568
2070.00,2.4825
2069.00,2.5074
2068.00,2.5328
2067.00,2.5583
2066.00,2.5821
2065.00,2.6032
2064.00,2.6217
2063.00,2.6392
2062.00,2.6572
2061.00,2.6758
2060.00,2.6938
2059.00,2.7103
2058.00,2.7257
2057.00,2.7414
2056.00,2.7582
2055.00,2.7747
2054.00,2.7887
2053.00,2.7988
2052.00,2.8059
2051.00,2.8123
2050.00,2.8201
2049.00,2.8302
2048.00,2.8418
2047.00,2.8535
2046.00,2.8644
2045.00,2.8739
2044.00,2.8811
2043.00,2.8862
2042.00,2.8899
2041.00,2.8926
2040.00,2.8941
2039.00,2.8945
2038.00,2.8958
2037.00,2.8994
2036.00,2.9052
2035.00,2.9118
2034.00,2.9178
2033.00,2.9231
2032.00,2.9274
2031.00,2.9309
2030.00,2.9333
2029.00,2.9339
2028.00,2.9309
2027.00,2.9245
2026.00,2.9178
2025.00,2.9148
2024.00,2.9152
2023.00,2.9155
2022.00,2.9132
2021.00,2.9097
2020.00,2.9074
2019.00,2.9062
2018.00,2.9043
2017.00,2.9005
2016.00,2.8946
2015.00,2.8866
2014.00,2.8769
2013.00,2.8670
2012.00,2.8585
2011.00,2.8517
2010.00,2.8453
2009.00,2.8380
2008.00,2.8285
2007.00,2.8158
2006.00,2.8003
2005.00,2.7845
2004.00,2.7711
2003.00,2.7606
2002.00,2.7502
2001.00,2.7370
2000.00,2.7200
1999.00,2.7011
1998.00,2.6823
1997.00,2.6646
1996.00,2.6475
1995.00,2.6302
1994.00,2.6116
1993.00,2.5903
1992.00,2.5659
1991.00,2.5385
1990.00,2.5095
1989.00,2.4799
1988.00,2.4495
1987.00,2.4179
1986.00,2.3854
1985.00,2.3521
1984.00,2.3173
1983.00,2.2802
1982.00,2.2400
1981.00,2.1965
1980.00,2.1502
1979.00,2.1014
1978.00,2.0505
1977.00,1.9977
1976.00,1.9426
1975.00,1.8855
1974.00,1.8269
1973.00,1.7680
1972.00,1.7102
1971.00,1.6551
1970.00,1.6045
1969.00,1.5589
1968.00,1.5185
1967.00,1.4837
1966.00,1.4560
1965.00,1.4373
1964.00,1.4288
1963.00,1.4304
1962.00,1.4411
1961.00,1.4604
1960.00,1.4872
1959.00,1.5205
1958.00,1.5591
1957.00,1.6015
1956.00,1.6468
1955.00,1.6938
1954.00,1.7417
1953.00,1.7899
1952.00,1.8381
1951.00,1.8857
1950.00,1.9329
1949.00,1.9798
1948.00,2.0262
1947.00,2.0721
1946.00,2.1186
1945.00,2.1663
1944.00,2.2137
1943.00,2.2586
1942.00,2.2996
1941.00,2.3376
1940.00,2.3746
1939.00,2.4107
1938.00,2.4450
1937.00,2.4773
1936.00,2.5085
1935.00,2.5398
1934.00,2.5710
1933.00,2.6016
1932.00,2.6304
1931.00,2.6562
1930.00,2.6790
1929.00,2.7006
1928.00,2.7227
1927.00,2.7447
1926.00,2.7643
1925.00,2.7808
1924.00,2.7961
1923.00,2.8128
1922.00,2.8315
1921.00,2.8517
1920.00,2.8721
1919.00,2.8901
1918.00,2.9034
1917.00,2.9122
1916.00,2.9193
1915.00,2.9269
1914.00,2.9358
1913.00,2.9464
1912.00,2.9584
1911.00,2.9695
1910.00,2.9769
1909.00,2.9811
1908.00,2.9856
1907.00,2.9924
1906.00,3.0004
1905.00,3.0076
1904.00,3.0129
1903.00,3.0153
1902.00,3.0145
1901.00,3.0131
1900.00,3.0151
1899.00,3.0212
1898.00,3.0267
1897.00,3.0276
1896.00,3.0257
1895.00,3.0262
1894.00,3.0310
1893.00,3.0385
1892.00,3.0457
1891.00,3.0504
1890.00,3.0508
1889.00,3.0466
1888.00,3.0393
1887.00,3.0311
1886.00,3.0230
1885.00,3.0161
1884.00,3.0114
1883.00,3.0085
1882.00,3.0055
1881.00,3.0004
1880.00,2.9931
1879.00,2.9848
1878.00,2.9765
1877.00,2.9697
1876.00,2.9648
1875.00,2.9598
1874.00,2.9523
1873.00,2.9440
1872.00,2.9389
1871.00,2.9366
1870.00,2.9313
1869.00,2.9188
1868.00,2.9007
1867.00,2.8811
1866.00,2.8622
1865.00,2.8448
1864.00,2.8294
1863.00,2.8147
1862.00,2.7983
1861.00,2.7793
1860.00,2.7588
1859.00,2.7377
1858.00,2.7150
1857.00,2.6903
1856.00,2.6648
1855.00,2.6385
1854.00,2.6103
1853.00,2.5797
1852.00,2.5493
1851.00,2.5204
1850.00,2.4902
1849.00,2.4554
1848.00,2.4160
1847.00,2.3758
1846.00,2.3365
1845.00,2.2939
1844.00,2.2438
1843.00,2.1886
1842.00,2.1333
1841.00,2.0793
1840.00,2.0256
1839.00,1.9707
1838.00,1.9149
1837.00,1.8598
1836.00,1.8070
1835.00,1.7574
1834.00,1.7136
1833.00,1.6788
1832.00,1.6541
1831.00,1.6361
1830.00,1.6221
1829.00,1.6147
1828.00,1.6192
1827.00,1.6360
1826.00,1.6592
1825.00,1.6826
1824.00,1.7059
1823.00,1.7335
1822.00,1.7683
1821.00,1.8100
1820.00,1.8567
1819.00,1.9062
1818.00,1.9562
1817.00,2.0057
1816.00,2.0545
1815.00,2.1035
1814.00,2.1534
1813.00,2.2040
1812.00,2.2536
1811.00,2.3011
1810.00,2.3461
1809.00,2.3891
1808.00,2.4300
1807.00,2.4688
1806.00,2.5070
1805.00,2.5461
1804.00,2.5853
1803.00,2.6228
1802.00,2.6570
1801.00,2.6876
1800.00,2.7152
1799.00,2.7409
1798.00,2.7654
1797.00,2.7873
1796.00,2.8058
1795.00,2.8248
1794.00,2.8495
1793.00,2.8785
1792.00,2.9042
1791.00,2.9224
1790.00,2.9362
1789.00,2.9513
1788.00,2.9707
1787.00,2.9935
1786.00,3.0158
1785.00,3.0332
1784.00,3.0448
1783.00,3.0546
1782.00,3.0664
1781.00,3.0779
1780.00,3.0852
1779.00,3.0895
1778.00,3.0959
1777.00,3.1030
1776.00,3.1053
1775.00,3.1036
1774.00,3.1043
1773.00,3.1103
1772.00,3.1204
1771.00,3.1342
1770.00,3.1502
1769.00,3.1618
1768.00,3.1611
1767.00,3.1498
1766.00,3.1398
1765.00,3.1414
1764.00,3.1538
1763.00,3.1668
1762.00,3.1695
1761.00,3.1618
1760.00,3.1540
1759.00,3.1545
1758.00,3.1618
1757.00,3.1649
1756.00,3.1561
1755.00,3.1399
1754.00,3.1265
1753.00,3.1222
1752.00,3.1252
1751.00,3.1297
1750.00,3.1309
1749.00,3.1226
1748.00,3.1035
1747.00,3.0841
1746.00,3.0756
1745.00,3.0760
1744.00,3.0731
1743.00,3.0609
1742.00,3.0463
1741.00,3.0363
1740.00,3.0268
1739.00,3.0102
1738.00,2.9842
1737.00,2.9536
1736.00,2.9272
1735.00,2.9039
1734.00,2.8792
1733.00,2.8616
1732.00,2.8541
1731.00,2.8467
1730.00,2.8319
1729.00,2.8104
1728.00,2.7864
1727.00,2.7654
1726.00,2.7519
1725.00,2.7471
1724.00,2.7502
1723.00,2.7621
1722.00,2.7844
1721.00,2.8178
1720.00,2.8623
1719.00,2.9214
1718.00,3.0050
1717.00,3.1180
1716.00,3.2447
1715.00,3.3637
1714.00,3.4718
1713.00,3.5739
1712.00,3.6637
1711.00,3.7313
1710.00,3.7854
1709.00,3.8388
1708.00,3.8816
1707.00,3.8967
1706.00,3.8752
1705.00,3.8094
1704.00,3.7084
1703.00,3.6062
1702.00,3.5240
1701.00,3.4336
1700.00,3.3131
1699.00,3.1969
1698.00,3.1118
1697.00,3.0540
1696.00,3.0091
1695.00,2.9700
1694.00,2.9393
1693.00,2.9078
1692.00,2.8650
1691.00,2.8133
1690.00,2.7530
1689.00,2.6764
1688.00,2.5807
1687.00,2.4841
1686.00,2.4109
1685.00,2.3593
1684.00,2.3108
1683.00,2.2604
1682.00,2.2126
1681.00,2.1670
1680.00,2.1216
1679.00,2.0804
1678.00,2.0499
1677.00,2.0327
1676.00,2.0208
1675.00,2.0073
1674.00,1.9993
1673.00,2.0059
1672.00,2.0276
1671.00,2.0610
1670.00,2.1013
1669.00,2.1426
1668.00,2.1825
1667.00,2.2221
1666.00,2.2635
1665.00,2.3093
1664.00,2.3590
1663.00,2.4095
1662.00,2.4591
1661.00,2.5068
1660.00,2.5516
1659.00,2.5936
1658.00,2.6291
1657.00,2.6495
1656.00,2.6555
1655.00,2.6628
1654.00,2.6810
1653.00,2.7078
1652.00,2.7567
1651.00,2.8294
1650.00,2.8974
1649.00,2.9490
1648.00,2.9734
1647.00,2.9994
1646.00,3.0220
1645.00,3.0436
1644.00,3.0640
1643.00,3.0845
1642.00,3.1041
1641.00,3.1250
1640.00,3.1423
1639.00,3.1432
1638.00,3.1483
1637.00,3.1573
1636.00,3.1721
1635.00,3.1829
1634.00,3.1911
1633.00,3.2011
1632.00,3.2095
1631.00,3.2135
1630.00,3.2148
1629.00,3.2169
1628.00,3.2230
1627.00,3.2344
1626.00,3.2513
1625.00,3.2733
1624.00,3.2952
1623.00,3.3081
1622.00,3.3062
1621.00,3.2898
1620.00,3.2618
1619.00,3.2309
1618.00,3.2134
1617.00,3.2213
1616.00,3.2495
1615.00,3.2773
1614.00,3.2890
1613.00,3.2878
1612.00,3.2858
1611.00,3.2875
1610.00,3.2882
1609.00,3.2842
1608.00,3.2784
1607.00,3.2762
1606.00,3.2800
1605.00,3.2868
1604.00,3.2903
1603.00,3.2858
1602.00,3.2763
1601.00,3.2674
1600.00,3.2591
1599.00,3.2474
1598.00,3.2323
1597.00,3.2200
1596.00,3.2144
1595.00,3.2111
1594.00,3.2032
1593.00,3.1908
1592.00,3.1793
1591.00,3.1706
1590.00,3.1631
1589.00,3.1565
1588.00,3.1513
1587.00,3.1455
1586.00,3.1343
1585.00,3.1153
1584.00,3.0907
1583.00,3.0648
1582.00,3.0414
1581.00,3.0138
1580.00,2.9774
1579.00,2.9252
1578.00,2.8700
1577.00,2.8325
1576.00,2.8217
1575.00,2.8290
1574.00,2.8368
1573.00,2.8317
1572.00,2.8136
1571.00,2.7858
1570.00,2.7485
1569.00,2.7051
1568.00,2.6628
1567.00,2.6252
1566.00,2.5883
1565.00,2.5451
1564.00,2.4908
1563.00,2.4269
1562.00,2.3691
1561.00,2.3365
1560.00,2.3126
1559.00,2.2819
1558.00,2.2489
1557.00,2.2248
1556.00,2.2140
1555.00,2.2074
1554.00,2.2051
1553.00,2.2101
1552.00,2.2222
1551.00,2.2357
1550.00,2.2467
1549.00,2.2573
1548.00,2.2732
1547.00,2.2986
1546.00,2.3270
1545.00,2.3513
1544.00,2.3638
1543.00,2.3762
1542.00,2.4503
1541.00,2.4858
1540.00,2.5281
1539.00,2.5691
1538.00,2.6114
1537.00,2.6516
1536.00,2.6898
1535.00,2.7268
1534.00,2.7633
1533.00,2.8019
1532.00,2.8537
1531.00,2.8801
1530.00,2.9111
1529.00,2.9404
1528.00,2.9661
1527.00,2.9881
1526.00,3.0085
1525.00,3.0251
1524.00,3.0369
1523.00,3.0504
1522.00,3.0760
1521.00,3.1157
1520.00,3.1631
1519.00,3.2065
1518.00,3.2355
1517.00,3.2501
1516.00,3.2573
1515.00,3.2652
1514.00,3.2772
1513.00,3.2910
1512.00,3.3021
1511.00,3.3073
1510.00,3.3054
1509.00,3.2983
1508.00,3.2931
1507.00,3.2993
1506.00,3.3091
1505.00,3.3282
1504.00,3.3642
1503.00,3.3988
1502.00,3.4197
1501.00,3.4245
1500.00,3.4161
1499.00,3.4038
1498.00,3.3960
1497.00,3.3954
1496.00,3.4021
1495.00,3.4183
1494.00,3.4438
1493.00,3.4727
1492.00,3.4979
1491.00,3.5161
1490.00,3.5306
1489.00,3.5447
1488.00,3.5530
1487.00,3.5493
1486.00,3.5360
1485.00,3.5239
1484.00,3.5237
1483.00,3.5342
1482.00,3.5406
1481.00,3.5318
1480.00,3.5185
1479.00,3.5207
1478.00,3.5412
1477.00,3.5620
1476.00,3.5667
1475.00,3.5609
1474.00,3.5599
1473.00,3.5626
1472.00,3.5537
1471.00,3.5330
1470.00,3.5159
1469.00,3.5103
1468.00,3.5114
1467.00,3.5111
1466.00,3.5052
1465.00,3.4947
1464.00,3.4843
1463.00,3.4825
1462.00,3.4928
1461.00,3.5074
1460.00,3.5158
1459.00,3.5184
1458.00,3.5228
1457.00,3.5293
1456.00,3.5434
1455.00,3.5739
1454.00,3.6072
1453.00,3.6321
1452.00,3.6568
1451.00,3.6937
1450.00,3.7466
1449.00,3.8026
1448.00,3.8356
1447.00,3.8339
1446.00,3.8152
1445.00,3.8017
1444.00,3.8000
1443.00,3.8066
1442.00,3.8150
1441.00,3.8118
1440.00,3.7890
1439.00,3.7595
1438.00,3.7327
1437.00,3.7080
1436.00,3.6938
1435.00,3.6928
1434.00,3.6879
1433.00,3.6749
1432.00,3.6609
1431.00,3.6497
1430.00,3.6457
1429.00,3.6470
1428.00,3.6448
1427.00,3.6368
1426.00,3.6333
1425.00,3.6435
1424.00,3.6645
1423.00,3.6850
1422.00,3.6971
1421.00,3.7001
1420.00,3.6883
1419.00,3.6584
1418.00,3.6172
1417.00,3.5755
1416.00,3.5439
1415.00,3.5281
1414.00,3.5237
1413.00,3.5171
1412.00,3.4992
1411.00,3.4764
1410.00,3.4613
1409.00,3.4545
1408.00,3.4428
1407.00,3.4155
1406.00,3.3783
1405.00,3.3427
1404.00,3.3144
1403.00,3.2933
1402.00,3.2770
1401.00,3.2626
1400.00,3.2458
1399.00,3.2241
1398.00,3.2012
1397.00,3.1825
1396.00,3.1696
1395.00,3.1601
1394.00,3.1514
1393.00,3.1435
1392.00,3.1370
1391.00,3.1323
1390.00,3.1324
1389.00,3.1418
1388.00,3.1621
1387.00,3.1911
1386.00,3.2257
1385.00,3.2660
1384.00,3.3159
1383.00,3.3803
1382.00,3.4606
1381.00,3.5515
1380.00,3.6410
1379.00,3.7165
1378.00,3.7720
1377.00,3.8072
1376.00,3.8214
1375.00,3.8060
1374.00,3.7452
1373.00,3.6379
1372.00,3.5075
1371.00,3.3828
1370.00,3.2795
1369.00,3.1993
1368.00,3.1382
1367.00,3.0928
1366.00,3.0631
1365.00,3.0498
1364.00,3.0512
1363.00,3.0634
1362.00,3.0821
1361.00,3.1037
1360.00,3.1263
1359.00,3.1490
1358.00,3.1733
1357.00,3.2010
1356.00,3.2327
1355.00,3.2667
1354.00,3.3017
1353.00,3.3395
1352.00,3.3818
1351.00,3.4231
1350.00,3.4519
1349.00,3.4630
1348.00,3.4614
1347.00,3.4549
1346.00,3.4514
1345.00,3.4599
1344.00,3.4888
1343.00,3.5386
1342.00,3.5970
1341.00,3.6433
1340.00,3.6600
1339.00,3.6460
1338.00,3.6151
1337.00,3.5846
1336.00,3.5633
1335.00,3.5506
1334.00,3.5439
1333.00,3.5464
1332.00,3.5620
1331.00,3.5851
1330.00,3.6042
1329.00,3.6140
1328.00,3.6208
1327.00,3.6329
1326.00,3.6501
1325.00,3.6683
1324.00,3.6872
1323.00,3.7000
1322.00,3.6908
1321.00,3.6616
1320.00,3.6381
1319.00,3.6408
1318.00,3.6635
1317.00,3.6831
1316.00,3.6883
1315.00,3.6868
1314.00,3.6904
1313.00,3.6982
1312.00,3.6964
1311.00,3.6788
1310.00,3.6553
1309.00,3.6360
1308.00,3.6234
1307.00,3.6173
1306.00,3.6179
1305.00,3.6252
1304.00,3.6388
1303.00,3.6560
1302.00,3.6693
1301.00,3.6705
1300.00,3.6589
1299.00,3.6427
1298.00,3.6290
1297.00,3.6156
1296.00,3.5958
1295.00,3.5676
1294.00,3.5343
1293.00,3.4995
1292.00,3.4648
1291.00,3.4364
1290.00,3.4235
1289.00,3.4289
1288.00,3.4428
1287.00,3.4471
1286.00,3.4310
1285.00,3.4011
1284.00,3.3709
1283.00,3.3446
1282.00,3.3179
1281.00,3.2886
1280.00,3.2613
1279.00,3.2414
1278.00,3.2282
1277.00,3.2159
1276.00,3.1990
1275.00,3.1763
1274.00,3.1489
1273.00,3.1178
1272.00,3.0829
1271.00,3.0436
1270.00,3.0000
1269.00,2.9540
1268.00,2.9080
1267.00,2.8622
1266.00,2.8148
1265.00,2.7641
1264.00,2.7099
1263.00,2.6525
1262.00,2.5920
1261.00,2.5293
1260.00,2.4675
1259.00,2.4112
1258.00,2.3637
1257.00,2.3269
1256.00,2.3025
1255.00,2.2921
1254.00,2.2960
1253.00,2.3133
1252.00,2.3419
1251.00,2.3799
1250.00,2.4255
1249.00,2.4761
1248.00,2.5296
1247.00,2.5849
1246.00,2.6423
1245.00,2.7024
1244.00,2.7642
1243.00,2.8264
1242.00,2.8879
1241.00,2.9472
1240.00,3.0024
1239.00,3.0517
1238.00,3.0942
1237.00,3.1311
1236.00,3.1657
1235.00,3.2042
1234.00,3.2517
1233.00,3.3072
1232.00,3.3642
1231.00,3.4189
1230.00,3.4749
1229.00,3.5321
1228.00,3.5779
1227.00,3.6002
1226.00,3.5990
1225.00,3.5836
1224.00,3.5695
1223.00,3.5713
1222.00,3.5897
1221.00,3.6077
1220.00,3.6082
1219.00,3.5995
1218.00,3.6054
1217.00,3.6367
1216.00,3.6811
1215.00,3.7162
1214.00,3.7363
1213.00,3.7525
1212.00,3.7672
1211.00,3.7740
1210.00,3.7812
1209.00,3.7999
1208.00,3.8219
1207.00,3.8276
1206.00,3.8138
1205.00,3.8026
1204.00,3.8080
1203.00,3.8158
1202.00,3.8083
1201.00,3.8003
1200.00,3.8285
1199.00,3.9149
1198.00,4.0402
1197.00,4.1170
1196.00,4.0706
1195.00,3.9822
1194.00,3.9498
1193.00,3.9888
1192.00,4.0081
1191.00,3.9232
1190.00,3.8264
1189.00,3.7852
1188.00,3.8036
1187.00,3.8468
1186.00,3.8612
1185.00,3.8264
1184.00,3.7785
1183.00,3.7604
1182.00,3.7805
1181.00,3.8254
1180.00,3.8767
1179.00,3.9139
1178.00,3.9173
1177.00,3.8867
1176.00,3.8543
1175.00,3.8565
1174.00,3.9086
1173.00,3.9999
1172.00,4.0764
1171.00,4.0754
1170.00,4.0435
1169.00,4.0399
1168.00,4.0580
1167.00,4.0565
1166.00,4.0150
1165.00,3.9509
1164.00,3.8961
1163.00,3.8774
1162.00,3.8992
1161.00,3.9413
1160.00,3.9627
1159.00,3.9383
1158.00,3.8913
1157.00,3.8457
1156.00,3.7984
1155.00,3.7396
1154.00,3.6821
1153.00,3.6538
1152.00,3.6658
1151.00,3.6952
1150.00,3.7031
1149.00,3.6792
1148.00,3.6513
1147.00,3.6391
1146.00,3.6269
1145.00,3.5912
1144.00,3.5416
1143.00,3.5046
1142.00,3.4859
1141.00,3.4703
1140.00,3.4425
1139.00,3.3988
1138.00,3.3425
1137.00,3.2797
1136.00,3.2182
1135.00,3.1634
1134.00,3.1165
1133.00,3.0776
1132.00,3.0464
1131.00,3.0203
1130.00,2.9938
1129.00,2.9650
1128.00,2.9399
1127.00,2.9274
1126.00,2.9324
1125.00,2.9550
1124.00,2.9937
1123.00,3.0452
1122.00,3.0986
1121.00,3.1349
1120.00,3.1407
1119.00,3.1212
1118.00,3.0882
1117.00,3.0486
1116.00,3.0084
1115.00,2.9756
1114.00,2.9583
1113.00,2.9606
1112.00,2.9823
1111.00,3.0192
1110.00,3.0642
1109.00,3.1122
1108.00,3.1649
1107.00,3.2288
1106.00,3.3044
1105.00,3.3815
1104.00,3.4481
1103.00,3.5046
1102.00,3.5540
1101.00,3.5873
1100.00,3.6068
1099.00,3.6344
1098.00,3.6795
1097.00,3.7276
1096.00,3.7630
1095.00,3.7954
1094.00,3.8459
1093.00,3.9114
1092.00,3.9616
1091.00,3.9749
1090.00,3.9789
1089.00,4.0228
1088.00,4.1170
1087.00,4.2931
1086.00,4.5427
1085.00,4.5538
1084.00,4.5445
1083.00,4.5394
1082.00,4.3634
1081.00,4.1202
1080.00,3.9485
1079.00,3.9027
1078.00,3.9917
1077.00,4.1158
1076.00,4.0591
1075.00,3.9816
1074.00,3.9770
1073.00,4.0158
1072.00,4.0787
1071.00,4.0949
1070.00,4.0219
1069.00,3.9561
1068.00,3.9117
1067.00,3.8720
1066.00,3.8709
1065.00,3.9119
1064.00,3.9516
1063.00,3.9584
1062.00,3.9360
1061.00,3.9077
1060.00,3.9045
1059.00,3.9535
1058.00,4.0760
1057.00,4.3089
1056.00,4.5219
1055.00,4.6699
1054.00,5.1093
1053.00,4.6557
1052.00,4.3300
1051.00,4.2092
1050.00,4.1593
1049.00,4.2629
1048.00,4.6661
1047.00,4.4492
1046.00,4.1566
1045.00,4.1060
1044.00,4.1628
1043.00,4.2670
1042.00,4.2879
1041.00,4.3561
1040.00,4.5966
1039.00,4.2836
1038.00,4.0381
1037.00,4.0372
1036.00,4.1827
1035.00,4.2681
1034.00,4.2503
1033.00,4.2978
1032.00,4.2694
1031.00,4.2802
1030.00,4.4477
1029.00,4.3029
1028.00,4.1036
1027.00,4.0516
1026.00,4.0233
1025.00,3.9822
1024.00,3.9794
1023.00,4.0541
1022.00,4.2186
1021.00,4.4089
1020.00,4.4252
1019.00,4.2971
1018.00,4.2380
1017.00,4.3354
1016.00,4.7642
1015.00,4.6942
1014.00,4.5096
1013.00,5.0421
1012.00,4.3847
1011.00,4.0004
1010.00,3.8737
1009.00,3.8650
1008.00,3.9310
1007.00,3.9953
1006.00,4.0121
1005.00,4.0242
1004.00,4.0851
1003.00,4.1477
1002.00,4.1346
1001.00,4.0582
1000.00,3.9943
999.00,4.0120
998.00,4.0596
997.00,3.9859
996.00,3.9041
995.00,3.9160
994.00,3.9888
993.00,4.0215
992.00,3.9609
991.00,3.8936
990.00,3.8639
989.00,3.8610
988.00,3.8687
987.00,3.8758
986.00,3.8644
985.00,3.8213
984.00,3.7596
983.00,3.6905
982.00,3.6216
981.00,3.5671
980.00,3.5338
979.00,3.5172
978.00,3.5067
977.00,3.4919
976.00,3.4732
975.00,3.4661
974.00,3.4890
973.00,3.5495
972.00,3.6401
971.00,3.7343
970.00,3.7909
969.00,3.7902
968.00,3.7646
967.00,3.7622
966.00,3.8122
965.00,3.9234
964.00,4.0875
963.00,4.2887
962.00,4.5127
961.00,4.6574
960.00,4.6181
959.00,4.5792
958.00,4.5554
957.00,4.3864
956.00,4.2357
955.00,4.2479
954.00,4.5301
953.00,4.8549
952.00,4.7170
951.00,4.7386
950.00,4.4005
949.00,4.1427
948.00,4.0713
947.00,4.1752
946.00,4.6194
945.00,4.6993
944.00,4.2482
943.00,4.1508
942.00,4.2139
941.00,4.3906
940.00,4.5347
939.00,4.3309
938.00,4.0784
937.00,3.9431
936.00,3.9245
935.00,3.9794
934.00,4.0565
933.00,4.1336
932.00,4.2203
931.00,4.2741
930.00,4.2512
929.00,4.2169
928.00,4.2347
927.00,4.2106
926.00,4.0749
925.00,3.9698
924.00,3.9543
923.00,4.0160
922.00,4.1770
921.00,4.3150
920.00,4.1847
919.00,4.0726
918.00,4.0593
917.00,4.0928
916.00,4.1648
915.00,4.2999
914.00,4.3033
913.00,4.1412
912.00,4.1030
911.00,4.2005
910.00,4.3554
909.00,4.5169
908.00,4.6999
907.00,4.4840
906.00,4.1609
905.00,4.0001
904.00,3.9270
903.00,3.9022
902.00,3.9107
901.00,3.9445
900.00,4.0045
899.00,4.0901
898.00,4.1935
897.00,4.2388
896.00,4.1705
895.00,4.1097
894.00,4.1009
893.00,4.1206
892.00,4.1742
891.00,4.2512
890.00,4.2995
889.00,4.2876
888.00,4.2488
887.00,4.2546
886.00,4.2947
885.00,4.4483
884.00,4.6974
883.00,4.7082
882.00,4.5552
881.00,4.1787
880.00,3.9398
879.00,3.8483
878.00,3.8231
877.00,3.8268
876.00,3.8364
875.00,3.8697
874.00,3.9584
873.00,4.1778
872.00,4.6074
871.00,4.6408
870.00,4.1975
869.00,3.9124
868.00,3.7865
867.00,3.7865
866.00,3.8812
865.00,4.0305
864.00,4.1545
863.00,4.1627
862.00,4.0972
861.00,4.0305
860.00,3.9738
859.00,3.9586
858.00,4.0635
857.00,4.3448
856.00,4.3449
855.00,4.1093
854.00,4.0607
853.00,4.1386
852.00,4.2602
851.00,4.3240
850.00,4.2400
849.00,4.0583
848.00,3.9339
847.00,3.9023
846.00,3.9339
845.00,3.9871
844.00,4.0266
843.00,4.0372
842.00,3.9754
841.00,3.9069
840.00,3.9390
839.00,4.1209
838.00,4.5044
837.00,5.0112
836.00,4.7660
835.00,4.4681
834.00,4.4533
833.00,4.4971
832.00,4.2861
831.00,4.0817
830.00,3.9831
829.00,3.9676
828.00,3.9951
827.00,4.0118
826.00,4.0069
825.00,3.9980
824.00,4.0219
823.00,4.1052
822.00,4.2128
821.00,4.2914
820.00,4.3956
819.00,4.5199
818.00,4.5631
817.00,4.4686
816.00,4.2921
815.00,4.1922
814.00,4.1619
813.00,4.1211
812.00,4.0577
811.00,3.9617
810.00,3.8486
809.00,3.7739
808.00,3.7604
807.00,3.8072
806.00,3.8820
805.00,3.9198
804.00,3.9263
803.00,3.9427
802.00,3.9595
801.00,3.9543
800.00,3.9308
799.00,3.9168
798.00,3.9248
797.00,3.9316
796.00,3.9258
795.00,3.9525
794.00,4.0730
793.00,4.1644
792.00,4.0271
791.00,3.8929
790.00,3.8644
789.00,3.9648
788.00,4.0878
787.00,4.0180
786.00,3.9365
785.00,3.9132
784.00,3.9107
783.00,3.9042
782.00,3.9043
781.00,3.8762
780.00,3.7559
779.00,3.6409
778.00,3.5860
777.00,3.5868
776.00,3.6265
775.00,3.6720
774.00,3.7164
773.00,3.7756
772.00,3.8399
771.00,3.8480
770.00,3.7673
769.00,3.6733
768.00,3.6290
767.00,3.6462
766.00,3.7035
765.00,3.7534
764.00,3.7672
763.00,3.7534
762.00,3.7362
761.00,3.7403
760.00,3.7944
759.00,3.9208
758.00,4.1644
757.00,4.3095
756.00,4.0825
755.00,3.9506
754.00,3.9571
753.00,4.0365
752.00,4.1137
751.00,4.1226
750.00,4.1333
749.00,4.1932
748.00,4.3449
747.00,4.6426
746.00,4.6026
745.00,4.1971
744.00,3.9202
743.00,3.7769
742.00,3.7574
741.00,3.8607
740.00,4.0396
739.00,4.0965
738.00,4.0192
737.00,3.9638
736.00,3.9539
735.00,4.0188
734.00,4.1762
733.00,4.2241
732.00,4.1158
731.00,4.1128
730.00,4.2092
729.00,4.3070
728.00,4.3579
727.00,4.3259
726.00,4.2087
725.00,4.0460
724.00,3.9404
723.00,3.9435
722.00,4.0362
721.00,4.2252
720.00,4.3065
719.00,4.1475
718.00,4.1169
717.00,4.1633
716.00,4.1783
715.00,4.2142
714.00,4.1736
713.00,4.1529
712.00,4.4677
711.00,4.6674
710.00,4.2116
709.00,4.2375
708.00,4.6372
707.00,4.5269
706.00,4.1397
705.00,3.9246
704.00,3.8328
703.00,3.8306
702.00,3.8921
701.00,3.9686
700.00,4.0039
