Created as New Dataset,Sample 012 By Administrator Date Wednesday, November 24 2021
cm-1,A
7502.00,0.4767
7501.00,0.4840
7500.00,0.4914
7499.00,0.4990
7498.00,0.5067
7497.00,0.5145
7496.00,0.5225
7495.00,0.5307
7494.00,0.5390
7493.00,0.5475
7492.00,0.5563
7491.00,0.5658
7490.00,0.5757
7489.00,0.5860
7488.00,0.5961
7487.00,0.6058
7486.00,0.6150
7485.00,0.6240
7484.00,0.6326
7483.00,0.6409
7482.00,0.6493
7481.00,0.6581
7480.00,0.6673
7479.00,0.6764
7478.00,0.6851
7477.00,0.6939
7476.00,0.7031
7475.00,0.7130
7474.00,0.7233
7473.00,0.7335
7472.00,0.7433
7471.00,0.7528
7470.00,0.7620
7469.00,0.7709
7468.00,0.7794
7467.00,0.7877
7466.00,0.7958
7465.00,0.8035
7464.00,0.8108
7463.00,0.8180
7462.00,0.8254
7461.00,0.8330
7460.00,0.8400
7459.00,0.8460
7458.00,0.8512
7457.00,0.8563
7456.00,0.8616
7455.00,0.8670
7454.00,0.8725
7453.00,0.8781
7452.00,0.8836
7451.00,0.8886
7450.00,0.8930
7449.00,0.8972
7448.00,0.9012
7447.00,0.9046
7446.00,0.9067
7445.00,0.9075
7444.00,0.9077
7443.00,0.9081
7442.00,0.9090
7441.00,0.9102
7440.00,0.9116
7439.00,0.9130
7438.00,0.9144
7437.00,0.9156
7436.00,0.9162
7435.00,0.9159
7434.00,0.9145
7433.00,0.9122
7432.00,0.9087
7431.00,0.9045
7430.00,0.8998
7429.00,0.8951
7428.00,0.8908
7427.00,0.8872
7426.00,0.8843
7425.00,0.8814
7424.00,0.8774
7423.00,0.8720
7422.00,0.8660
7421.00,0.8602
7420.00,0.8550
7419.00,0.8495
7418.00,0.8435
7417.00,0.8370
7416.00,0.8302
7415.00,0.8234
7414.00,0.8165
7413.00,0.8093
7412.00,0.8017
7411.00,0.7938
7410.00,0.7859
7409.00,0.7784
7408.00,0.7712
7407.00,0.7641
7406.00,0.7567
7405.00,0.7489
7404.00,0.7406
7403.00,0.7321
7402.00,0.7235
7401.00,0.7154
7400.00,0.7075
7399.00,0.7000
7398.00,0.6925
7397.00,0.6854
7396.00,0.6784
7395.00,0.6715
7394.00,0.6646
7393.00,0.6577
7392.00,0.6510
7391.00,0.6446
7390.00,0.6385
7389.00,0.6329
7388.00,0.6277
7387.00,0.6229
7386.00,0.6185
7385.00,0.6144
7384.00,0.6106
7383.00,0.6073
7382.00,0.6044
7381.00,0.6019
7380.00,0.5999
7379.00,0.5984
7378.00,0.5976
7377.00,0.5972
7376.00,0.5971
7375.00,0.5974
7374.00,0.5983
7373.00,0.5998
7372.00,0.6020
7371.00,0.6046
7370.00,0.6075
7369.00,0.6107
7368.00,0.6143
7367.00,0.6184
7366.00,0.6230
7365.00,0.6277
7364.00,0.6323
7363.00,0.6372
7362.00,0.6426
7361.00,0.6488
7360.00,0.6555
7359.00,0.6622
7358.00,0.6689
7357.00,0.6759
7356.00,0.6832
7355.00,0.6908
7354.00,0.6987
7353.00,0.7068
7352.00,0.7150
7351.00,0.7231
7350.00,0.7314
7349.00,0.7402
7348.00,0.7493
7347.00,0.7586
7346.00,0.7675
7345.00,0.7761
7344.00,0.7844
7343.00,0.7927
7342.00,0.8011
7341.00,0.8095
7340.00,0.8179
7339.00,0.8261
7338.00,0.8341
7337.00,0.8422
7336.00,0.8504
7335.00,0.8587
7334.00,0.8668
7333.00,0.8747
7332.00,0.8824
7331.00,0.8900
7330.00,0.8977
7329.00,0.9056
7328.00,0.9134
7327.00,0.9208
7326.00,0.9276
7325.00,0.9337
7324.00,0.9391
7323.00,0.9440
7322.00,0.9488
7321.00,0.9535
7320.00,0.9582
7319.00,0.9630
7318.00,0.9681
7317.00,0.9735
7316.00,0.9786
7315.00,0.9832
7314.00,0.9870
7313.00,0.9900
7312.00,0.9919
7311.00,0.9924
7310.00,0.9924
7309.00,0.9927
7308.00,0.9937
7307.00,0.9950
7306.00,0.9963
7305.00,0.9976
7304.00,0.9993
7303.00,1.0012
7302.00,1.0029
7301.00,1.0044
7300.00,1.0052
7299.00,1.0052
7298.00,1.0042
7297.00,1.0022
7296.00,0.9992
7295.00,0.9951
7294.00,0.9899
7293.00,0.9840
7292.00,0.9780
7291.00,0.9723
7290.00,0.9670
7289.00,0.9620
7288.00,0.9568
7287.00,0.9511
7286.00,0.9451
7285.00,0.9391
7284.00,0.9332
7283.00,0.9271
7282.00,0.9207
7281.00,0.9141
7280.00,0.9076
7279.00,0.9013
7278.00,0.8948
7277.00,0.8879
7276.00,0.8806
7275.00,0.8728
7274.00,0.8649
7273.00,0.8572
7272.00,0.8495
7271.00,0.8420
7270.00,0.8346
7269.00,0.8276
7268.00,0.8208
7267.00,0.8138
7266.00,0.8063
7265.00,0.7985
7264.00,0.7907
7263.00,0.7831
7262.00,0.7758
7261.00,0.7690
7260.00,0.7627
7259.00,0.7567
7258.00,0.7506
7257.00,0.7440
7256.00,0.7370
7255.00,0.7296
7254.00,0.7223
7253.00,0.7151
7252.00,0.7081
7251.00,0.7012
7250.00,0.6947
7249.00,0.6892
7248.00,0.6844
7247.00,0.6802
7246.00,0.6762
7245.00,0.6727
7244.00,0.6697
7243.00,0.6672
7242.00,0.6651
7241.00,0.6634
7240.00,0.6620
7239.00,0.6611
7238.00,0.6607
7237.00,0.6609
7236.00,0.6614
7235.00,0.6622
7234.00,0.6633
7233.00,0.6648
7232.00,0.6667
7231.00,0.6690
7230.00,0.6716
7229.00,0.6749
7228.00,0.6789
7227.00,0.6832
7226.00,0.6878
7225.00,0.6928
7224.00,0.6984
7223.00,0.7046
7222.00,0.7112
7221.00,0.7181
7220.00,0.7251
7219.00,0.7324
7218.00,0.7397
7217.00,0.7471
7216.00,0.7545
7215.00,0.7620
7214.00,0.7695
7213.00,0.7774
7212.00,0.7855
7211.00,0.7939
7210.00,0.8023
7209.00,0.8107
7208.00,0.8194
7207.00,0.8284
7206.00,0.8376
7205.00,0.8467
7204.00,0.8556
7203.00,0.8646
7202.00,0.8736
7201.00,0.8824
7200.00,0.8909
7199.00,0.8993
7198.00,0.9078
7197.00,0.9166
7196.00,0.9252
7195.00,0.9334
7194.00,0.9410
7193.00,0.9485
7192.00,0.9563
7191.00,0.9643
7190.00,0.9723
7189.00,0.9801
7188.00,0.9876
7187.00,0.9947
7186.00,1.0015
7185.00,1.0080
7184.00,1.0143
7183.00,1.0204
7182.00,1.0262
7181.00,1.0321
7180.00,1.0379
7179.00,1.0436
7178.00,1.0489
7177.00,1.0539
7176.00,1.0586
7175.00,1.0633
7174.00,1.0678
7173.00,1.0720
7172.00,1.0756
7171.00,1.0782
7170.00,1.0798
7169.00,1.0806
7168.00,1.0811
7167.00,1.0816
7166.00,1.0823
7165.00,1.0835
7164.00,1.0847
7163.00,1.0856
7162.00,1.0859
7161.00,1.0858
7160.00,1.0856
7159.00,1.0848
7158.00,1.0830
7157.00,1.0804
7156.00,1.0777
7155.00,1.0751
7154.00,1.0722
7153.00,1.0687
7152.00,1.0646
7151.00,1.0605
7150.00,1.0567
7149.00,1.0531
7148.00,1.0494
7147.00,1.0453
7146.00,1.0406
7145.00,1.0353
7144.00,1.0297
7143.00,1.0236
7142.00,1.0168
7141.00,1.0095
7140.00,1.0020
7139.00,0.9944
7138.00,0.9867
7137.00,0.9788
7136.00,0.9707
7135.00,0.9626
7134.00,0.9542
7133.00,0.9454
7132.00,0.9362
7131.00,0.9273
7130.00,0.9190
7129.00,0.9111
7128.00,0.9031
7127.00,0.8945
7126.00,0.8856
7125.00,0.8766
7124.00,0.8676
7123.00,0.8585
7122.00,0.8494
7121.00,0.8406
7120.00,0.8322
7119.00,0.8241
7118.00,0.8161
7117.00,0.8081
7116.00,0.8002
7115.00,0.7926
7114.00,0.7852
7113.00,0.7779
7112.00,0.7709
7111.00,0.7644
7110.00,0.7587
7109.00,0.7536
7108.00,0.7488
7107.00,0.7440
7106.00,0.7394
7105.00,0.7353
7104.00,0.7319
7103.00,0.7290
7102.00,0.7263
7101.00,0.7239
7100.00,0.7219
7099.00,0.7206
7098.00,0.7201
7097.00,0.7201
7096.00,0.7205
7095.00,0.7214
7094.00,0.7229
7093.00,0.7248
7092.00,0.7270
7091.00,0.7294
7090.00,0.7321
7089.00,0.7354
7088.00,0.7393
7087.00,0.7439
7086.00,0.7489
7085.00,0.7543
7084.00,0.7599
7083.00,0.7657
7082.00,0.7719
7081.00,0.7786
7080.00,0.7855
7079.00,0.7926
7078.00,0.8002
7077.00,0.8081
7076.00,0.8161
7075.00,0.8241
7074.00,0.8318
7073.00,0.8394
7072.00,0.8473
7071.00,0.8554
7070.00,0.8640
7069.00,0.8729
7068.00,0.8820
7067.00,0.8911
7066.00,0.9001
7065.00,0.9090
7064.00,0.9176
7063.00,0.9261
7062.00,0.9345
7061.00,0.9429
7060.00,0.9516
7059.00,0.9605
7058.00,0.9695
7057.00,0.9782
7056.00,0.9865
7055.00,0.9943
7054.00,1.0019
7053.00,1.0090
7052.00,1.0157
7051.00,1.0221
7050.00,1.0286
7049.00,1.0354
7048.00,1.0422
7047.00,1.0491
7046.00,1.0558
7045.00,1.0624
7044.00,1.0686
7043.00,1.0744
7042.00,1.0800
7041.00,1.0851
7040.00,1.0891
7039.00,1.0920
7038.00,1.0948
7037.00,1.0981
7036.00,1.1016
7035.00,1.1050
7034.00,1.1080
7033.00,1.1108
7032.00,1.1135
7031.00,1.1154
7030.00,1.1164
7029.00,1.1164
7028.00,1.1160
7027.00,1.1158
7026.00,1.1157
7025.00,1.1158
7024.00,1.1157
7023.00,1.1153
7022.00,1.1146
7021.00,1.1134
7020.00,1.1112
7019.00,1.1082
7018.00,1.1048
7017.00,1.1013
7016.00,1.0977
7015.00,1.0935
7014.00,1.0889
7013.00,1.0839
7012.00,1.0789
7011.00,1.0736
7010.00,1.0682
7009.00,1.0626
7008.00,1.0568
7007.00,1.0507
7006.00,1.0442
7005.00,1.0372
7004.00,1.0299
7003.00,1.0223
7002.00,1.0147
7001.00,1.0069
7000.00,0.9989
6999.00,0.9907
6998.00,0.9825
6997.00,0.9740
6996.00,0.9652
6995.00,0.9559
6994.00,0.9467
6993.00,0.9377
6992.00,0.9288
6991.00,0.9196
6990.00,0.9101
6989.00,0.9006
6988.00,0.8913
6987.00,0.8822
6986.00,0.8731
6985.00,0.8639
6984.00,0.8549
6983.00,0.8461
6982.00,0.8375
6981.00,0.8291
6980.00,0.8208
6979.00,0.8127
6978.00,0.8048
6977.00,0.7973
6976.00,0.7901
6975.00,0.7831
6974.00,0.7762
6973.00,0.7697
6972.00,0.7636
6971.00,0.7579
6970.00,0.7525
6969.00,0.7475
6968.00,0.7431
6967.00,0.7390
6966.00,0.7353
6965.00,0.7319
6964.00,0.7289
6963.00,0.7263
6962.00,0.7242
6961.00,0.7228
6960.00,0.7220
6959.00,0.7218
6958.00,0.7222
6957.00,0.7230
6956.00,0.7241
6955.00,0.7255
6954.00,0.7274
6953.00,0.7300
6952.00,0.7330
6951.00,0.7365
6950.00,0.7405
6949.00,0.7451
6948.00,0.7501
6947.00,0.7553
6946.00,0.7604
6945.00,0.7658
6944.00,0.7718
6943.00,0.7786
6942.00,0.7861
6941.00,0.7937
6940.00,0.8012
6939.00,0.8087
6938.00,0.8164
6937.00,0.8242
6936.00,0.8320
6935.00,0.8399
6934.00,0.8480
6933.00,0.8566
6932.00,0.8655
6931.00,0.8745
6930.00,0.8834
6929.00,0.8923
6928.00,0.9013
6927.00,0.9107
6926.00,0.9201
6925.00,0.9296
6924.00,0.9390
6923.00,0.9484
6922.00,0.9577
6921.00,0.9668
6920.00,0.9755
6919.00,0.9839
6918.00,0.9924
6917.00,1.0011
6916.00,1.0098
6915.00,1.0182
6914.00,1.0264
6913.00,1.0347
6912.00,1.0429
6911.00,1.0508
6910.00,1.0579
6909.00,1.0644
6908.00,1.0709
6907.00,1.0776
6906.00,1.0845
6905.00,1.0911
6904.00,1.0974
6903.00,1.1035
6902.00,1.1095
6901.00,1.1154
6900.00,1.1208
6899.00,1.1257
6898.00,1.1301
6897.00,1.1342
6896.00,1.1381
6895.00,1.1418
6894.00,1.1453
6893.00,1.1483
6892.00,1.1507
6891.00,1.1525
6890.00,1.1539
6889.00,1.1553
6888.00,1.1564
6887.00,1.1571
6886.00,1.1576
6885.00,1.1579
6884.00,1.1583
6883.00,1.1587
6882.00,1.1586
6881.00,1.1574
6880.00,1.1553
6879.00,1.1526
6878.00,1.1498
6877.00,1.1469
6876.00,1.1438
6875.00,1.1403
6874.00,1.1367
6873.00,1.1329
6872.00,1.1289
6871.00,1.1246
6870.00,1.1196
6869.00,1.1139
6868.00,1.1077
6867.00,1.1013
6866.00,1.0949
6865.00,1.0884
6864.00,1.0816
6863.00,1.0744
6862.00,1.0670
6861.00,1.0594
6860.00,1.0514
6859.00,1.0433
6858.00,1.0349
6857.00,1.0264
6856.00,1.0175
6855.00,1.0086
6854.00,0.9998
6853.00,0.9910
6852.00,0.9818
6851.00,0.9721
6850.00,0.9622
6849.00,0.9524
6848.00,0.9425
6847.00,0.9327
6846.00,0.9229
6845.00,0.9135
6844.00,0.9045
6843.00,0.8957
6842.00,0.8869
6841.00,0.8779
6840.00,0.8687
6839.00,0.8596
6838.00,0.8506
6837.00,0.8420
6836.00,0.8337
6835.00,0.8258
6834.00,0.8185
6833.00,0.8116
6832.00,0.8051
6831.00,0.7990
6830.00,0.7933
6829.00,0.7879
6828.00,0.7828
6827.00,0.7780
6826.00,0.7736
6825.00,0.7698
6824.00,0.7665
6823.00,0.7636
6822.00,0.7613
6821.00,0.7597
6820.00,0.7588
6819.00,0.7584
6818.00,0.7584
6817.00,0.7589
6816.00,0.7600
6815.00,0.7614
6814.00,0.7632
6813.00,0.7656
6812.00,0.7685
6811.00,0.7719
6810.00,0.7758
6809.00,0.7803
6808.00,0.7854
6807.00,0.7908
6806.00,0.7966
6805.00,0.8026
6804.00,0.8089
6803.00,0.8154
6802.00,0.8222
6801.00,0.8293
6800.00,0.8368
6799.00,0.8444
6798.00,0.8523
6797.00,0.8603
6796.00,0.8686
6795.00,0.8769
6794.00,0.8855
6793.00,0.8945
6792.00,0.9038
6791.00,0.9129
6790.00,0.9220
6789.00,0.9311
6788.00,0.9403
6787.00,0.9495
6786.00,0.9586
6785.00,0.9677
6784.00,0.9767
6783.00,0.9856
6782.00,0.9943
6781.00,1.0027
6780.00,1.0108
6779.00,1.0189
6778.00,1.0270
6777.00,1.0352
6776.00,1.0434
6775.00,1.0515
6774.00,1.0595
6773.00,1.0675
6772.00,1.0754
6771.00,1.0829
6770.00,1.0902
6769.00,1.0969
6768.00,1.1032
6767.00,1.1091
6766.00,1.1145
6765.00,1.1196
6764.00,1.1244
6763.00,1.1289
6762.00,1.1335
6761.00,1.1380
6760.00,1.1423
6759.00,1.1461
6758.00,1.1495
6757.00,1.1527
6756.00,1.1556
6755.00,1.1582
6754.00,1.1601
6753.00,1.1612
6752.00,1.1620
6751.00,1.1630
6750.00,1.1641
6749.00,1.1650
6748.00,1.1651
6747.00,1.1641
6746.00,1.1625
6745.00,1.1605
6744.00,1.1582
6743.00,1.1558
6742.00,1.1536
6741.00,1.1516
6740.00,1.1495
6739.00,1.1470
6738.00,1.1436
6737.00,1.1394
6736.00,1.1344
6735.00,1.1286
6734.00,1.1227
6733.00,1.1169
6732.00,1.1114
6731.00,1.1056
6730.00,1.0995
6729.00,1.0929
6728.00,1.0859
6727.00,1.0784
6726.00,1.0707
6725.00,1.0627
6724.00,1.0546
6723.00,1.0463
6722.00,1.0377
6721.00,1.0287
6720.00,1.0196
6719.00,1.0105
6718.00,1.0014
6717.00,0.9920
6716.00,0.9825
6715.00,0.9729
6714.00,0.9634
6713.00,0.9539
6712.00,0.9442
6711.00,0.9343
6710.00,0.9246
6709.00,0.9149
6708.00,0.9052
6707.00,0.8955
6706.00,0.8860
6705.00,0.8767
6704.00,0.8677
6703.00,0.8587
6702.00,0.8499
6701.00,0.8413
6700.00,0.8330
6699.00,0.8249
6698.00,0.8169
6697.00,0.8092
6696.00,0.8020
6695.00,0.7952
6694.00,0.7889
6693.00,0.7830
6692.00,0.7774
6691.00,0.7721
6690.00,0.7672
6689.00,0.7627
6688.00,0.7587
6687.00,0.7549
6686.00,0.7517
6685.00,0.7490
6684.00,0.7469
6683.00,0.7452
6682.00,0.7438
6681.00,0.7430
6680.00,0.7426
6679.00,0.7429
6678.00,0.7437
6677.00,0.7450
6676.00,0.7467
6675.00,0.7488
6674.00,0.7514
6673.00,0.7546
6672.00,0.7584
6671.00,0.7626
6670.00,0.7674
6669.00,0.7727
6668.00,0.7784
6667.00,0.7845
6666.00,0.7910
6665.00,0.7978
6664.00,0.8049
6663.00,0.8125
6662.00,0.8205
6661.00,0.8288
6660.00,0.8372
6659.00,0.8457
6658.00,0.8542
6657.00,0.8629
6656.00,0.8716
6655.00,0.8804
6654.00,0.8895
6653.00,0.8989
6652.00,0.9085
6651.00,0.9179
6650.00,0.9272
6649.00,0.9365
6648.00,0.9459
6647.00,0.9551
6646.00,0.9643
6645.00,0.9736
6644.00,0.9833
6643.00,0.9932
6642.00,1.0029
6641.00,1.0123
6640.00,1.0214
6639.00,1.0303
6638.00,1.0391
6637.00,1.0479
6636.00,1.0565
6635.00,1.0648
6634.00,1.0732
6633.00,1.0814
6632.00,1.0893
6631.00,1.0967
6630.00,1.1039
6629.00,1.1112
6628.00,1.1184
6627.00,1.1255
6626.00,1.1321
6625.00,1.1384
6624.00,1.1442
6623.00,1.1494
6622.00,1.1541
6621.00,1.1586
6620.00,1.1630
6619.00,1.1672
6618.00,1.1712
6617.00,1.1751
6616.00,1.1787
6615.00,1.1818
6614.00,1.1842
6613.00,1.1862
6612.00,1.1878
6611.00,1.1891
6610.00,1.1901
6609.00,1.1908
6608.00,1.1913
6607.00,1.1915
6606.00,1.1915
6605.00,1.1911
6604.00,1.1902
6603.00,1.1887
6602.00,1.1868
6601.00,1.1848
6600.00,1.1824
6599.00,1.1795
6598.00,1.1763
6597.00,1.1726
6596.00,1.1686
6595.00,1.1643
6594.00,1.1597
6593.00,1.1550
6592.00,1.1500
6591.00,1.1446
6590.00,1.1387
6589.00,1.1325
6588.00,1.1258
6587.00,1.1185
6586.00,1.1105
6585.00,1.1023
6584.00,1.0943
6583.00,1.0864
6582.00,1.0784
6581.00,1.0701
6580.00,1.0615
6579.00,1.0524
6578.00,1.0431
6577.00,1.0334
6576.00,1.0235
6575.00,1.0135
6574.00,1.0033
6573.00,0.9932
6572.00,0.9832
6571.00,0.9730
6570.00,0.9626
6569.00,0.9521
6568.00,0.9415
6567.00,0.9309
6566.00,0.9204
6565.00,0.9102
6564.00,0.9002
6563.00,0.8904
6562.00,0.8808
6561.00,0.8714
6560.00,0.8620
6559.00,0.8528
6558.00,0.8438
6557.00,0.8352
6556.00,0.8269
6555.00,0.8191
6554.00,0.8117
6553.00,0.8047
6552.00,0.7981
6551.00,0.7919
6550.00,0.7859
6549.00,0.7805
6548.00,0.7756
6547.00,0.7713
6546.00,0.7676
6545.00,0.7646
6544.00,0.7622
6543.00,0.7604
6542.00,0.7590
6541.00,0.7582
6540.00,0.7578
6539.00,0.7579
6538.00,0.7586
6537.00,0.7600
6536.00,0.7619
6535.00,0.7643
6534.00,0.7674
6533.00,0.7711
6532.00,0.7753
6531.00,0.7799
6530.00,0.7850
6529.00,0.7906
6528.00,0.7969
6527.00,0.8035
6526.00,0.8105
6525.00,0.8177
6524.00,0.8250
6523.00,0.8323
6522.00,0.8398
6521.00,0.8478
6520.00,0.8560
6519.00,0.8646
6518.00,0.8736
6517.00,0.8831
6516.00,0.8929
6515.00,0.9024
6514.00,0.9117
6513.00,0.9207
6512.00,0.9298
6511.00,0.9390
6510.00,0.9482
6509.00,0.9576
6508.00,0.9671
6507.00,0.9768
6506.00,0.9864
6505.00,0.9959
6504.00,1.0053
6503.00,1.0146
6502.00,1.0236
6501.00,1.0327
6500.00,1.0417
6499.00,1.0506
6498.00,1.0593
6497.00,1.0676
6496.00,1.0756
6495.00,1.0834
6494.00,1.0911
6493.00,1.0984
6492.00,1.1054
6491.00,1.1120
6490.00,1.1186
6489.00,1.1251
6488.00,1.1313
6487.00,1.1370
6486.00,1.1425
6485.00,1.1480
6484.00,1.1534
6483.00,1.1584
6482.00,1.1630
6481.00,1.1672
6480.00,1.1709
6479.00,1.1737
6478.00,1.1760
6477.00,1.1779
6476.00,1.1795
6475.00,1.1807
6474.00,1.1817
6473.00,1.1825
6472.00,1.1832
6471.00,1.1834
6470.00,1.1831
6469.00,1.1823
6468.00,1.1811
6467.00,1.1798
6466.00,1.1782
6465.00,1.1764
6464.00,1.1743
6463.00,1.1717
6462.00,1.1687
6461.00,1.1651
6460.00,1.1611
6459.00,1.1569
6458.00,1.1525
6457.00,1.1479
6456.00,1.1429
6455.00,1.1375
6454.00,1.1315
6453.00,1.1253
6452.00,1.1187
6451.00,1.1117
6450.00,1.1044
6449.00,1.0971
6448.00,1.0896
6447.00,1.0816
6446.00,1.0731
6445.00,1.0643
6444.00,1.0553
6443.00,1.0462
6442.00,1.0370
6441.00,1.0276
6440.00,1.0180
6439.00,1.0082
6438.00,0.9983
6437.00,0.9885
6436.00,0.9788
6435.00,0.9690
6434.00,0.9592
6433.00,0.9494
6432.00,0.9396
6431.00,0.9297
6430.00,0.9197
6429.00,0.9099
6428.00,0.9001
6427.00,0.8905
6426.00,0.8809
6425.00,0.8712
6424.00,0.8617
6423.00,0.8523
6422.00,0.8431
6421.00,0.8343
6420.00,0.8258
6419.00,0.8174
6418.00,0.8094
6417.00,0.8018
6416.00,0.7945
6415.00,0.7875
6414.00,0.7809
6413.00,0.7748
6412.00,0.7691
6411.00,0.7637
6410.00,0.7587
6409.00,0.7540
6408.00,0.7498
6407.00,0.7460
6406.00,0.7429
6405.00,0.7405
6404.00,0.7388
6403.00,0.7377
6402.00,0.7372
6401.00,0.7372
6400.00,0.7377
6399.00,0.7386
6398.00,0.7401
6397.00,0.7421
6396.00,0.7448
6395.00,0.7480
6394.00,0.7518
6393.00,0.7562
6392.00,0.7611
6391.00,0.7665
6390.00,0.7722
6389.00,0.7783
6388.00,0.7849
6387.00,0.7918
6386.00,0.7991
6385.00,0.8067
6384.00,0.8146
6383.00,0.8229
6382.00,0.8315
6381.00,0.8404
6380.00,0.8495
6379.00,0.8588
6378.00,0.8683
6377.00,0.8781
6376.00,0.8880
6375.00,0.8981
6374.00,0.9083
6373.00,0.9184
6372.00,0.9285
6371.00,0.9385
6370.00,0.9483
6369.00,0.9580
6368.00,0.9676
6367.00,0.9773
6366.00,0.9873
6365.00,0.9976
6364.00,1.0078
6363.00,1.0179
6362.00,1.0279
6361.00,1.0378
6360.00,1.0473
6359.00,1.0565
6358.00,1.0654
6357.00,1.0742
6356.00,1.0827
6355.00,1.0908
6354.00,1.0985
6353.00,1.1061
6352.00,1.1136
6351.00,1.1210
6350.00,1.1281
6349.00,1.1352
6348.00,1.1420
6347.00,1.1483
6346.00,1.1540
6345.00,1.1590
6344.00,1.1636
6343.00,1.1682
6342.00,1.1728
6341.00,1.1773
6340.00,1.1815
6339.00,1.1853
6338.00,1.1889
6337.00,1.1921
6336.00,1.1947
6335.00,1.1967
6334.00,1.1983
6333.00,1.1998
6332.00,1.2012
6331.00,1.2022
6330.00,1.2025
6329.00,1.2026
6328.00,1.2023
6327.00,1.2015
6326.00,1.1999
6325.00,1.1977
6324.00,1.1951
6323.00,1.1923
6322.00,1.1892
6321.00,1.1858
6320.00,1.1819
6319.00,1.1777
6318.00,1.1732
6317.00,1.1688
6316.00,1.1641
6315.00,1.1591
6314.00,1.1535
6313.00,1.1476
6312.00,1.1415
6311.00,1.1352
6310.00,1.1284
6309.00,1.1210
6308.00,1.1130
6307.00,1.1048
6306.00,1.0964
6305.00,1.0878
6304.00,1.0789
6303.00,1.0697
6302.00,1.0603
6301.00,1.0509
6300.00,1.0412
6299.00,1.0309
6298.00,1.0203
6297.00,1.0096
6296.00,0.9989
6295.00,0.9883
6294.00,0.9774
6293.00,0.9665
6292.00,0.9554
6291.00,0.9444
6290.00,0.9332
6289.00,0.9218
6288.00,0.9105
6287.00,0.8993
6286.00,0.8883
6285.00,0.8776
6284.00,0.8671
6283.00,0.8569
6282.00,0.8470
6281.00,0.8374
6280.00,0.8280
6279.00,0.8189
6278.00,0.8101
6277.00,0.8017
6276.00,0.7937
6275.00,0.7859
6274.00,0.7785
6273.00,0.7715
6272.00,0.7650
6271.00,0.7592
6270.00,0.7539
6269.00,0.7492
6268.00,0.7450
6267.00,0.7415
6266.00,0.7386
6265.00,0.7362
6264.00,0.7345
6263.00,0.7333
6262.00,0.7330
6261.00,0.7333
6260.00,0.7344
6259.00,0.7359
6258.00,0.7380
6257.00,0.7407
6256.00,0.7439
6255.00,0.7477
6254.00,0.7519
6253.00,0.7568
6252.00,0.7623
6251.00,0.7683
6250.00,0.7746
6249.00,0.7814
6248.00,0.7884
6247.00,0.7958
6246.00,0.8035
6245.00,0.8115
6244.00,0.8200
6243.00,0.8287
6242.00,0.8377
6241.00,0.8470
6240.00,0.8564
6239.00,0.8661
6238.00,0.8760
6237.00,0.8860
6236.00,0.8960
6235.00,0.9061
6234.00,0.9162
6233.00,0.9262
6232.00,0.9361
6231.00,0.9459
6230.00,0.9559
6229.00,0.9661
6228.00,0.9764
6227.00,0.9867
6226.00,0.9970
6225.00,1.0071
6224.00,1.0169
6223.00,1.0264
6222.00,1.0357
6221.00,1.0449
6220.00,1.0540
6219.00,1.0628
6218.00,1.0716
6217.00,1.0802
6216.00,1.0884
6215.00,1.0959
6214.00,1.1030
6213.00,1.1099
6212.00,1.1168
6211.00,1.1236
6210.00,1.1302
6209.00,1.1364
6208.00,1.1423
6207.00,1.1479
6206.00,1.1532
6205.00,1.1582
6204.00,1.1627
6203.00,1.1668
6202.00,1.1706
6201.00,1.1739
6200.00,1.1768
6199.00,1.1790
6198.00,1.1807
6197.00,1.1822
6196.00,1.1834
6195.00,1.1842
6194.00,1.1844
6193.00,1.1841
6192.00,1.1839
6191.00,1.1836
6190.00,1.1830
6189.00,1.1821
6188.00,1.1808
6187.00,1.1793
6186.00,1.1773
6185.00,1.1746
6184.00,1.1714
6183.00,1.1677
6182.00,1.1639
6181.00,1.1599
6180.00,1.1557
6179.00,1.1514
6178.00,1.1466
6177.00,1.1411
6176.00,1.1351
6175.00,1.1288
6174.00,1.1222
6173.00,1.1152
6172.00,1.1077
6171.00,1.0999
6170.00,1.0921
6169.00,1.0842
6168.00,1.0761
6167.00,1.0678
6166.00,1.0593
6165.00,1.0506
6164.00,1.0415
6163.00,1.0319
6162.00,1.0218
6161.00,1.0115
6160.00,1.0009
6159.00,0.9903
6158.00,0.9797
6157.00,0.9692
6156.00,0.9585
6155.00,0.9476
6154.00,0.9365
6153.00,0.9255
6152.00,0.9145
6151.00,0.9036
6150.00,0.8927
6149.00,0.8819
6148.00,0.8712
6147.00,0.8607
6146.00,0.8501
6145.00,0.8397
6144.00,0.8294
6143.00,0.8194
6142.00,0.8096
6141.00,0.8001
6140.00,0.7908
6139.00,0.7819
6138.00,0.7733
6137.00,0.7653
6136.00,0.7578
6135.00,0.7507
6134.00,0.7441
6133.00,0.7379
6132.00,0.7321
6131.00,0.7268
6130.00,0.7221
6129.00,0.7181
6128.00,0.7148
6127.00,0.7121
6126.00,0.7100
6125.00,0.7085
6124.00,0.7077
6123.00,0.7074
6122.00,0.7078
6121.00,0.7089
6120.00,0.7106
6119.00,0.7129
6118.00,0.7159
6117.00,0.7195
6116.00,0.7238
6115.00,0.7287
6114.00,0.7343
6113.00,0.7404
6112.00,0.7468
6111.00,0.7536
6110.00,0.7608
6109.00,0.7684
6108.00,0.7764
6107.00,0.7846
6106.00,0.7932
6105.00,0.8019
6104.00,0.8108
6103.00,0.8199
6102.00,0.8296
6101.00,0.8399
6100.00,0.8504
6099.00,0.8610
6098.00,0.8716
6097.00,0.8821
6096.00,0.8925
6095.00,0.9027
6094.00,0.9130
6093.00,0.9237
6092.00,0.9346
6091.00,0.9457
6090.00,0.9566
6089.00,0.9674
6088.00,0.9781
6087.00,0.9885
6086.00,0.9989
6085.00,1.0091
6084.00,1.0190
6083.00,1.0287
6082.00,1.0381
6081.00,1.0476
6080.00,1.0572
6079.00,1.0667
6078.00,1.0761
6077.00,1.0852
6076.00,1.0938
6075.00,1.1019
6074.00,1.1096
6073.00,1.1168
6072.00,1.1237
6071.00,1.1304
6070.00,1.1368
6069.00,1.1430
6068.00,1.1487
6067.00,1.1542
6066.00,1.1595
6065.00,1.1649
6064.00,1.1700
6063.00,1.1746
6062.00,1.1786
6061.00,1.1824
6060.00,1.1857
6059.00,1.1887
6058.00,1.1910
6057.00,1.1930
6056.00,1.1947
6055.00,1.1961
6054.00,1.1974
6053.00,1.1982
6052.00,1.1986
6051.00,1.1987
6050.00,1.1983
6049.00,1.1974
6048.00,1.1957
6047.00,1.1933
6046.00,1.1906
6045.00,1.1879
6044.00,1.1853
6043.00,1.1825
6042.00,1.1794
6041.00,1.1761
6040.00,1.1724
6039.00,1.1681
6038.00,1.1628
6037.00,1.1569
6036.00,1.1505
6035.00,1.1439
6034.00,1.1372
6033.00,1.1303
6032.00,1.1230
6031.00,1.1153
6030.00,1.1073
6029.00,1.0990
6028.00,1.0903
6027.00,1.0813
6026.00,1.0720
6025.00,1.0622
6024.00,1.0521
6023.00,1.0415
6022.00,1.0308
6021.00,1.0200
6020.00,1.0090
6019.00,0.9978
6018.00,0.9864
6017.00,0.9748
6016.00,0.9631
6015.00,0.9514
6014.00,0.9399
6013.00,0.9284
6012.00,0.9170
6011.00,0.9053
6010.00,0.8936
6009.00,0.8819
6008.00,0.8701
6007.00,0.8583
6006.00,0.8469
6005.00,0.8358
6004.00,0.8250
6003.00,0.8145
6002.00,0.8042
6001.00,0.7944
6000.00,0.7850
5999.00,0.7758
5998.00,0.7670
5997.00,0.7588
5996.00,0.7509
5995.00,0.7435
5994.00,0.7366
5993.00,0.7304
5992.00,0.7248
5991.00,0.7198
5990.00,0.7154
5989.00,0.7118
5988.00,0.7088
5987.00,0.7065
5986.00,0.7048
5985.00,0.7038
5984.00,0.7034
5983.00,0.7037
5982.00,0.7046
5981.00,0.7063
5980.00,0.7088
5979.00,0.7120
5978.00,0.7159
5977.00,0.7205
5976.00,0.7258
5975.00,0.7316
5974.00,0.7378
5973.00,0.7446
5972.00,0.7519
5971.00,0.7596
5970.00,0.7677
5969.00,0.7764
5968.00,0.7855
5967.00,0.7949
5966.00,0.8045
5965.00,0.8145
5964.00,0.8249
5963.00,0.8355
5962.00,0.8463
5961.00,0.8572
5960.00,0.8684
5959.00,0.8796
5958.00,0.8909
5957.00,0.9021
5956.00,0.9133
5955.00,0.9244
5954.00,0.9353
5953.00,0.9460
5952.00,0.9565
5951.00,0.9667
5950.00,0.9768
5949.00,0.9868
5948.00,0.9967
5947.00,1.0064
5946.00,1.0157
5945.00,1.0248
5944.00,1.0338
5943.00,1.0426
5942.00,1.0514
5941.00,1.0604
5940.00,1.0695
5939.00,1.0784
5938.00,1.0869
5937.00,1.0950
5936.00,1.1028
5935.00,1.1103
5934.00,1.1175
5933.00,1.1246
5932.00,1.1316
5931.00,1.1385
5930.00,1.1451
5929.00,1.1513
5928.00,1.1569
5927.00,1.1621
5926.00,1.1671
5925.00,1.1718
5924.00,1.1761
5923.00,1.1801
5922.00,1.1837
5921.00,1.1872
5920.00,1.1905
5919.00,1.1932
5918.00,1.1955
5917.00,1.1974
5916.00,1.1989
5915.00,1.2000
5914.00,1.2009
5913.00,1.2014
5912.00,1.2015
5911.00,1.2010
5910.00,1.2001
5909.00,1.1989
5908.00,1.1973
5907.00,1.1951
5906.00,1.1921
5905.00,1.1888
5904.00,1.1853
5903.00,1.1818
5902.00,1.1780
5901.00,1.1740
5900.00,1.1698
5899.00,1.1653
5898.00,1.1602
5897.00,1.1544
5896.00,1.1479
5895.00,1.1408
5894.00,1.1332
5893.00,1.1254
5892.00,1.1174
5891.00,1.1094
5890.00,1.1014
5889.00,1.0933
5888.00,1.0847
5887.00,1.0754
5886.00,1.0654
5885.00,1.0550
5884.00,1.0442
5883.00,1.0331
5882.00,1.0220
5881.00,1.0107
5880.00,0.9995
5879.00,0.9880
5878.00,0.9763
5877.00,0.9644
5876.00,0.9525
5875.00,0.9404
5874.00,0.9281
5873.00,0.9158
5872.00,0.9035
5871.00,0.8911
5870.00,0.8789
5869.00,0.8667
5868.00,0.8546
5867.00,0.8428
5866.00,0.8313
5865.00,0.8202
5864.00,0.8094
5863.00,0.7990
5862.00,0.7888
5861.00,0.7790
5860.00,0.7694
5859.00,0.7602
5858.00,0.7515
5857.00,0.7434
5856.00,0.7361
5855.00,0.7293
5854.00,0.7232
5853.00,0.7177
5852.00,0.7127
5851.00,0.7083
5850.00,0.7046
5849.00,0.7017
5848.00,0.6996
5847.00,0.6983
5846.00,0.6977
5845.00,0.6980
5844.00,0.6989
5843.00,0.7004
5842.00,0.7025
5841.00,0.7054
5840.00,0.7088
5839.00,0.7128
5838.00,0.7174
5837.00,0.7227
5836.00,0.7285
5835.00,0.7348
5834.00,0.7415
5833.00,0.7487
5832.00,0.7561
5831.00,0.7639
5830.00,0.7720
5829.00,0.7804
5828.00,0.7891
5827.00,0.7982
5826.00,0.8075
5825.00,0.8171
5824.00,0.8268
5823.00,0.8366
5822.00,0.8466
5821.00,0.8568
5820.00,0.8671
5819.00,0.8776
5818.00,0.8882
5817.00,0.8990
5816.00,0.9099
5815.00,0.9208
5814.00,0.9317
5813.00,0.9427
5812.00,0.9535
5811.00,0.9643
5810.00,0.9750
5809.00,0.9857
5808.00,0.9964
5807.00,1.0070
5806.00,1.0175
5805.00,1.0278
5804.00,1.0377
5803.00,1.0475
5802.00,1.0571
5801.00,1.0666
5800.00,1.0758
5799.00,1.0848
5798.00,1.0937
5797.00,1.1025
5796.00,1.1110
5795.00,1.1191
5794.00,1.1270
5793.00,1.1347
5792.00,1.1420
5791.00,1.1489
5790.00,1.1553
5789.00,1.1612
5788.00,1.1668
5787.00,1.1720
5786.00,1.1770
5785.00,1.1817
5784.00,1.1860
5783.00,1.1899
5782.00,1.1934
5781.00,1.1964
5780.00,1.1991
5779.00,1.2015
5778.00,1.2037
5777.00,1.2055
5776.00,1.2068
5775.00,1.2077
5774.00,1.2080
5773.00,1.2080
5772.00,1.2077
5771.00,1.2072
5770.00,1.2065
5769.00,1.2056
5768.00,1.2042
5767.00,1.2024
5766.00,1.2001
5765.00,1.1972
5764.00,1.1936
5763.00,1.1895
5762.00,1.1851
5761.00,1.1804
5760.00,1.1754
5759.00,1.1702
5758.00,1.1648
5757.00,1.1589
5756.00,1.1525
5755.00,1.1457
5754.00,1.1385
5753.00,1.1309
5752.00,1.1228
5751.00,1.1143
5750.00,1.1056
5749.00,1.0967
5748.00,1.0874
5747.00,1.0776
5746.00,1.0674
5745.00,1.0568
5744.00,1.0458
5743.00,1.0345
5742.00,1.0231
5741.00,1.0116
5740.00,0.9999
5739.00,0.9879
5738.00,0.9757
5737.00,0.9633
5736.00,0.9506
5735.00,0.9377
5734.00,0.9248
5733.00,0.9120
5732.00,0.8992
5731.00,0.8865
5730.00,0.8739
5729.00,0.8615
5728.00,0.8491
5727.00,0.8367
5726.00,0.8246
5725.00,0.8127
5724.00,0.8012
5723.00,0.7900
5722.00,0.7793
5721.00,0.7690
5720.00,0.7591
5719.00,0.7497
5718.00,0.7408
5717.00,0.7324
5716.00,0.7247
5715.00,0.7174
5714.00,0.7108
5713.00,0.7049
5712.00,0.6997
5711.00,0.6952
5710.00,0.6915
5709.00,0.6886
5708.00,0.6864
5707.00,0.6849
5706.00,0.6841
5705.00,0.6840
5704.00,0.6848
5703.00,0.6863
5702.00,0.6886
5701.00,0.6917
5700.00,0.6955
5699.00,0.7000
5698.00,0.7051
5697.00,0.7108
5696.00,0.7171
5695.00,0.7238
5694.00,0.7312
5693.00,0.7391
5692.00,0.7475
5691.00,0.7565
5690.00,0.7660
5689.00,0.7758
5688.00,0.7859
5687.00,0.7962
5686.00,0.8067
5685.00,0.8176
5684.00,0.8287
5683.00,0.8401
5682.00,0.8516
5681.00,0.8633
5680.00,0.8751
5679.00,0.8870
5678.00,0.8989
5677.00,0.9110
5676.00,0.9231
5675.00,0.9352
5674.00,0.9472
5673.00,0.9592
5672.00,0.9711
5671.00,0.9829
5670.00,0.9946
5669.00,1.0061
5668.00,1.0174
5667.00,1.0285
5666.00,1.0394
5665.00,1.0500
5664.00,1.0605
5663.00,1.0708
5662.00,1.0809
5661.00,1.0908
5660.00,1.1003
5659.00,1.1097
5658.00,1.1188
5657.00,1.1276
5656.00,1.1361
5655.00,1.1444
5654.00,1.1524
5653.00,1.1599
5652.00,1.1668
5651.00,1.1735
5650.00,1.1798
5649.00,1.1857
5648.00,1.1910
5647.00,1.1959
5646.00,1.2004
5645.00,1.2047
5644.00,1.2084
5643.00,1.2117
5642.00,1.2146
5641.00,1.2172
5640.00,1.2194
5639.00,1.2212
5638.00,1.2227
5637.00,1.2240
5636.00,1.2249
5635.00,1.2253
5634.00,1.2253
5633.00,1.2248
5632.00,1.2239
5631.00,1.2224
5630.00,1.2206
5629.00,1.2185
5628.00,1.2160
5627.00,1.2133
5626.00,1.2102
5625.00,1.2068
5624.00,1.2030
5623.00,1.1986
5622.00,1.1938
5621.00,1.1886
5620.00,1.1830
5619.00,1.1770
5618.00,1.1706
5617.00,1.1637
5616.00,1.1561
5615.00,1.1481
5614.00,1.1399
5613.00,1.1314
5612.00,1.1227
5611.00,1.1137
5610.00,1.1043
5609.00,1.0944
5608.00,1.0840
5607.00,1.0731
5606.00,1.0620
5605.00,1.0508
5604.00,1.0394
5603.00,1.0275
5602.00,1.0152
5601.00,1.0027
5600.00,0.9899
5599.00,0.9768
5598.00,0.9636
5597.00,0.9504
5596.00,0.9372
5595.00,0.9238
5594.00,0.9102
5593.00,0.8965
5592.00,0.8828
5591.00,0.8692
5590.00,0.8557
5589.00,0.8423
5588.00,0.8292
5587.00,0.8164
5586.00,0.8038
5585.00,0.7916
5584.00,0.7797
5583.00,0.7682
5582.00,0.7570
5581.00,0.7463
5580.00,0.7360
5579.00,0.7261
5578.00,0.7168
5577.00,0.7083
5576.00,0.7004
5575.00,0.6933
5574.00,0.6869
5573.00,0.6813
5572.00,0.6765
5571.00,0.6724
5570.00,0.6692
5569.00,0.6668
5568.00,0.6653
5567.00,0.6646
5566.00,0.6648
5565.00,0.6659
5564.00,0.6678
5563.00,0.6704
5562.00,0.6738
5561.00,0.6780
5560.00,0.6830
5559.00,0.6886
5558.00,0.6951
5557.00,0.7022
5556.00,0.7099
5555.00,0.7182
5554.00,0.7269
5553.00,0.7361
5552.00,0.7458
5551.00,0.7558
5550.00,0.7663
5549.00,0.7771
5548.00,0.7883
5547.00,0.7997
5546.00,0.8113
5545.00,0.8232
5544.00,0.8353
5543.00,0.8476
5542.00,0.8600
5541.00,0.8726
5540.00,0.8853
5539.00,0.8978
5538.00,0.9105
5537.00,0.9233
5536.00,0.9361
5535.00,0.9489
5534.00,0.9615
5533.00,0.9741
5532.00,0.9865
5531.00,0.9988
5530.00,1.0110
5529.00,1.0233
5528.00,1.0355
5527.00,1.0475
5526.00,1.0592
5525.00,1.0705
5524.00,1.0815
5523.00,1.0921
5522.00,1.1024
5521.00,1.1124
5520.00,1.1222
5519.00,1.1318
5518.00,1.1411
5517.00,1.1499
5516.00,1.1585
5515.00,1.1668
5514.00,1.1747
5513.00,1.1823
5512.00,1.1894
5511.00,1.1963
5510.00,1.2027
5509.00,1.2086
5508.00,1.2139
5507.00,1.2189
5506.00,1.2235
5505.00,1.2277
5504.00,1.2315
5503.00,1.2350
5502.00,1.2381
5501.00,1.2408
5500.00,1.2429
5499.00,1.2446
5498.00,1.2459
5497.00,1.2469
5496.00,1.2476
5495.00,1.2480
5494.00,1.2478
5493.00,1.2470
5492.00,1.2455
5491.00,1.2435
5490.00,1.2413
5489.00,1.2391
5488.00,1.2368
5487.00,1.2343
5486.00,1.2312
5485.00,1.2276
5484.00,1.2234
5483.00,1.2187
5482.00,1.2135
5481.00,1.2082
5480.00,1.2026
5479.00,1.1968
5478.00,1.1905
5477.00,1.1836
5476.00,1.1760
5475.00,1.1680
5474.00,1.1594
5473.00,1.1505
5472.00,1.1411
5471.00,1.1315
5470.00,1.1217
5469.00,1.1114
5468.00,1.1007
5467.00,1.0896
5466.00,1.0781
5465.00,1.0664
5464.00,1.0543
5463.00,1.0418
5462.00,1.0290
5461.00,1.0159
5460.00,1.0026
5459.00,0.9891
5458.00,0.9754
5457.00,0.9617
5456.00,0.9479
5455.00,0.9341
5454.00,0.9203
5453.00,0.9065
5452.00,0.8926
5451.00,0.8788
5450.00,0.8651
5449.00,0.8516
5448.00,0.8383
5447.00,0.8252
5446.00,0.8122
5445.00,0.7996
5444.00,0.7874
5443.00,0.7756
5442.00,0.7644
5441.00,0.7537
5440.00,0.7436
5439.00,0.7342
5438.00,0.7255
5437.00,0.7174
5436.00,0.7100
5435.00,0.7034
5434.00,0.6975
5433.00,0.6925
5432.00,0.6884
5431.00,0.6850
5430.00,0.6825
5429.00,0.6810
5428.00,0.6803
5427.00,0.6806
5426.00,0.6818
5425.00,0.6837
5424.00,0.6865
5423.00,0.6901
5422.00,0.6946
5421.00,0.6999
5420.00,0.7059
5419.00,0.7125
5418.00,0.7197
5417.00,0.7275
5416.00,0.7359
5415.00,0.7447
5414.00,0.7543
5413.00,0.7645
5412.00,0.7752
5411.00,0.7863
5410.00,0.7978
5409.00,0.8097
5408.00,0.8218
5407.00,0.8343
5406.00,0.8470
5405.00,0.8599
5404.00,0.8728
5403.00,0.8858
5402.00,0.8988
5401.00,0.9119
5400.00,0.9250
5399.00,0.9381
5398.00,0.9512
5397.00,0.9643
5396.00,0.9773
5395.00,0.9903
5394.00,1.0034
5393.00,1.0166
5392.00,1.0297
5391.00,1.0429
5390.00,1.0557
5389.00,1.0681
5388.00,1.0800
5387.00,1.0914
5386.00,1.1028
5385.00,1.1140
5384.00,1.1251
5383.00,1.1359
5382.00,1.1462
5381.00,1.1559
5380.00,1.1649
5379.00,1.1735
5378.00,1.1820
5377.00,1.1903
5376.00,1.1985
5375.00,1.2063
5374.00,1.2136
5373.00,1.2205
5372.00,1.2269
5371.00,1.2331
5370.00,1.2389
5369.00,1.2443
5368.00,1.2491
5367.00,1.2533
5366.00,1.2570
5365.00,1.2603
5364.00,1.2635
5363.00,1.2664
5362.00,1.2691
5361.00,1.2714
5360.00,1.2733
5359.00,1.2747
5358.00,1.2756
5357.00,1.2759
5356.00,1.2757
5355.00,1.2750
5354.00,1.2739
5353.00,1.2724
5352.00,1.2705
5351.00,1.2683
5350.00,1.2657
5349.00,1.2626
5348.00,1.2591
5347.00,1.2553
5346.00,1.2512
5345.00,1.2466
5344.00,1.2413
5343.00,1.2357
5342.00,1.2298
5341.00,1.2235
5340.00,1.2167
5339.00,1.2092
5338.00,1.2014
5337.00,1.1932
5336.00,1.1848
5335.00,1.1760
5334.00,1.1670
5333.00,1.1577
5332.00,1.1478
5331.00,1.1374
5330.00,1.1265
5329.00,1.1154
5328.00,1.1039
5327.00,1.0919
5326.00,1.0796
5325.00,1.0669
5324.00,1.0539
5323.00,1.0406
5322.00,1.0270
5321.00,1.0131
5320.00,0.9989
5319.00,0.9843
5318.00,0.9695
5317.00,0.9546
5316.00,0.9397
5315.00,0.9249
5314.00,0.9102
5313.00,0.8956
5312.00,0.8810
5311.00,0.8665
5310.00,0.8521
5309.00,0.8379
5308.00,0.8240
5307.00,0.8103
5306.00,0.7971
5305.00,0.7843
5304.00,0.7721
5303.00,0.7605
5302.00,0.7497
5301.00,0.7395
5300.00,0.7301
5299.00,0.7214
5298.00,0.7133
5297.00,0.7060
5296.00,0.6996
5295.00,0.6940
5294.00,0.6893
5293.00,0.6855
5292.00,0.6825
5291.00,0.6804
5290.00,0.6792
5289.00,0.6791
5288.00,0.6799
5287.00,0.6816
5286.00,0.6842
5285.00,0.6878
5284.00,0.6922
5283.00,0.6974
5282.00,0.7034
5281.00,0.7101
5280.00,0.7176
5279.00,0.7258
5278.00,0.7346
5277.00,0.7440
5276.00,0.7539
5275.00,0.7644
5274.00,0.7753
5273.00,0.7867
5272.00,0.7984
5271.00,0.8105
5270.00,0.8229
5269.00,0.8357
5268.00,0.8487
5267.00,0.8619
5266.00,0.8751
5265.00,0.8886
5264.00,0.9023
5263.00,0.9163
5262.00,0.9307
5261.00,0.9452
5260.00,0.9594
5259.00,0.9733
5258.00,0.9868
5257.00,1.0001
5256.00,1.0134
5255.00,1.0268
5254.00,1.0404
5253.00,1.0538
5252.00,1.0669
5251.00,1.0793
5250.00,1.0914
5249.00,1.1032
5248.00,1.1151
5247.00,1.1268
5246.00,1.1383
5245.00,1.1495
5244.00,1.1604
5243.00,1.1712
5242.00,1.1817
5241.00,1.1919
5240.00,1.2015
5239.00,1.2105
5238.00,1.2190
5237.00,1.2272
5236.00,1.2351
5235.00,1.2427
5234.00,1.2498
5233.00,1.2565
5232.00,1.2627
5231.00,1.2685
5230.00,1.2738
5229.00,1.2787
5228.00,1.2832
5227.00,1.2873
5226.00,1.2910
5225.00,1.2946
5224.00,1.2980
5223.00,1.3008
5222.00,1.3031
5221.00,1.3048
5220.00,1.3061
5219.00,1.3072
5218.00,1.3080
5217.00,1.3084
5216.00,1.3084
5215.00,1.3079
5214.00,1.3069
5213.00,1.3055
5212.00,1.3037
5211.00,1.3016
5210.00,1.2989
5209.00,1.2957
5208.00,1.2919
5207.00,1.2878
5206.00,1.2832
5205.00,1.2782
5204.00,1.2730
5203.00,1.2674
5202.00,1.2615
5201.00,1.2552
5200.00,1.2488
5199.00,1.2421
5198.00,1.2349
5197.00,1.2273
5196.00,1.2192
5195.00,1.2106
5194.00,1.2015
5193.00,1.1920
5192.00,1.1820
5191.00,1.1715
5190.00,1.1603
5189.00,1.1485
5188.00,1.1361
5187.00,1.1233
5186.00,1.1101
5185.00,1.0967
5184.00,1.0829
5183.00,1.0689
5182.00,1.0547
5181.00,1.0402
5180.00,1.0253
5179.00,1.0103
5178.00,0.9951
5177.00,0.9797
5176.00,0.9643
5175.00,0.9487
5174.00,0.9331
5173.00,0.9175
5172.00,0.9020
5171.00,0.8867
5170.00,0.8716
5169.00,0.8569
5168.00,0.8424
5167.00,0.8283
5166.00,0.8147
5165.00,0.8014
5164.00,0.7887
5163.00,0.7765
5162.00,0.7649
5161.00,0.7540
5160.00,0.7438
5159.00,0.7344
5158.00,0.7257
5157.00,0.7180
5156.00,0.7112
5155.00,0.7053
5154.00,0.7004
5153.00,0.6965
5152.00,0.6935
5151.00,0.6915
5150.00,0.6905
5149.00,0.6906
5148.00,0.6917
5147.00,0.6937
5146.00,0.6968
5145.00,0.7009
5144.00,0.7058
5143.00,0.7117
5142.00,0.7184
5141.00,0.7258
5140.00,0.7340
5139.00,0.7428
5138.00,0.7524
5137.00,0.7626
5136.00,0.7735
5135.00,0.7849
5134.00,0.7967
5133.00,0.8090
5132.00,0.8216
5131.00,0.8347
5130.00,0.8480
5129.00,0.8617
5128.00,0.8756
5127.00,0.8897
5126.00,0.9039
5125.00,0.9183
5124.00,0.9327
5123.00,0.9472
5122.00,0.9616
5121.00,0.9761
5120.00,0.9907
5119.00,1.0054
5118.00,1.0200
5117.00,1.0346
5116.00,1.0491
5115.00,1.0633
5114.00,1.0773
5113.00,1.0909
5112.00,1.1042
5111.00,1.1171
5110.00,1.1299
5109.00,1.1425
5108.00,1.1550
5107.00,1.1671
5106.00,1.1790
5105.00,1.1905
5104.00,1.2016
5103.00,1.2122
5102.00,1.2224
5101.00,1.2321
5100.00,1.2413
5099.00,1.2501
5098.00,1.2585
5097.00,1.2665
5096.00,1.2741
5095.00,1.2814
5094.00,1.2883
5093.00,1.2949
5092.00,1.3011
5091.00,1.3069
5090.00,1.3122
5089.00,1.3167
5088.00,1.3206
5087.00,1.3241
5086.00,1.3272
5085.00,1.3301
5084.00,1.3326
5083.00,1.3348
5082.00,1.3366
5081.00,1.3379
5080.00,1.3386
5079.00,1.3390
5078.00,1.3390
5077.00,1.3386
5076.00,1.3377
5075.00,1.3362
5074.00,1.3344
5073.00,1.3321
5072.00,1.3295
5071.00,1.3266
5070.00,1.3235
5069.00,1.3199
5068.00,1.3159
5067.00,1.3114
5066.00,1.3064
5065.00,1.3007
5064.00,1.2945
5063.00,1.2878
5062.00,1.2806
5061.00,1.2731
5060.00,1.2651
5059.00,1.2567
5058.00,1.2480
5057.00,1.2390
5056.00,1.2294
5055.00,1.2193
5054.00,1.2087
5053.00,1.1976
5052.00,1.1861
5051.00,1.1741
5050.00,1.1618
5049.00,1.1491
5048.00,1.1358
5047.00,1.1219
5046.00,1.1078
5045.00,1.0933
5044.00,1.0786
5043.00,1.0637
5042.00,1.0485
5041.00,1.0328
5040.00,1.0168
5039.00,1.0005
5038.00,0.9842
5037.00,0.9679
5036.00,0.9516
5035.00,0.9354
5034.00,0.9192
5033.00,0.9030
5032.00,0.8869
5031.00,0.8711
5030.00,0.8555
5029.00,0.8404
5028.00,0.8258
5027.00,0.8117
5026.00,0.7981
5025.00,0.7851
5024.00,0.7726
5023.00,0.7607
5022.00,0.7496
5021.00,0.7393
5020.00,0.7299
5019.00,0.7213
5018.00,0.7137
5017.00,0.7071
5016.00,0.7014
5015.00,0.6967
5014.00,0.6930
5013.00,0.6903
5012.00,0.6888
5011.00,0.6884
5010.00,0.6890
5009.00,0.6908
5008.00,0.6936
5007.00,0.6974
5006.00,0.7023
5005.00,0.7081
5004.00,0.7148
5003.00,0.7224
5002.00,0.7308
5001.00,0.7400
5000.00,0.7498
4999.00,0.7604
4998.00,0.7715
4997.00,0.7833
4996.00,0.7956
4995.00,0.8082
4994.00,0.8213
4993.00,0.8347
4992.00,0.8483
4991.00,0.8623
4990.00,0.8766
4989.00,0.8911
4988.00,0.9059
4987.00,0.9208
4986.00,0.9358
4985.00,0.9509
4984.00,0.9662
4983.00,0.9816
4982.00,0.9970
4981.00,1.0125
4980.00,1.0278
4979.00,1.0430
4978.00,1.0581
4977.00,1.0730
4976.00,1.0878
4975.00,1.1025
4974.00,1.1169
4973.00,1.1312
4972.00,1.1452
4971.00,1.1589
4970.00,1.1722
4969.00,1.1850
4968.00,1.1974
4967.00,1.2094
4966.00,1.2211
4965.00,1.2325
4964.00,1.2435
4963.00,1.2541
4962.00,1.2642
4961.00,1.2738
4960.00,1.2828
4959.00,1.2913
4958.00,1.2994
4957.00,1.3073
4956.00,1.3149
4955.00,1.3224
4954.00,1.3294
4953.00,1.3358
4952.00,1.3414
4951.00,1.3465
4950.00,1.3512
4949.00,1.3559
4948.00,1.3604
4947.00,1.3644
4946.00,1.3678
4945.00,1.3704
4944.00,1.3721
4943.00,1.3732
4942.00,1.3740
4941.00,1.3746
4940.00,1.3751
4939.00,1.3753
4938.00,1.3752
4937.00,1.3748
4936.00,1.3738
4935.00,1.3722
4934.00,1.3700
4933.00,1.3674
4932.00,1.3644
4931.00,1.3609
4930.00,1.3571
4929.00,1.3528
4928.00,1.3483
4927.00,1.3434
4926.00,1.3382
4925.00,1.3326
4924.00,1.3265
4923.00,1.3197
4922.00,1.3123
4921.00,1.3044
4920.00,1.2961
4919.00,1.2873
4918.00,1.2781
4917.00,1.2683
4916.00,1.2582
4915.00,1.2478
4914.00,1.2370
4913.00,1.2258
4912.00,1.2140
4911.00,1.2016
4910.00,1.1885
4909.00,1.1748
4908.00,1.1607
4907.00,1.1462
4906.00,1.1316
4905.00,1.1166
4904.00,1.1012
4903.00,1.0853
4902.00,1.0690
4901.00,1.0525
4900.00,1.0358
4899.00,1.0190
4898.00,1.0020
4897.00,0.9848
4896.00,0.9675
4895.00,0.9502
4894.00,0.9330
4893.00,0.9160
4892.00,0.8992
4891.00,0.8827
4890.00,0.8665
4889.00,0.8507
4888.00,0.8353
4887.00,0.8205
4886.00,0.8063
4885.00,0.7927
4884.00,0.7798
4883.00,0.7677
4882.00,0.7563
4881.00,0.7457
4880.00,0.7361
4879.00,0.7274
4878.00,0.7198
4877.00,0.7133
4876.00,0.7079
4875.00,0.7037
4874.00,0.7006
4873.00,0.6988
4872.00,0.6980
4871.00,0.6985
4870.00,0.7001
4869.00,0.7029
4868.00,0.7068
4867.00,0.7119
4866.00,0.7180
4865.00,0.7251
4864.00,0.7332
4863.00,0.7422
4862.00,0.7520
4861.00,0.7626
4860.00,0.7739
4859.00,0.7858
4858.00,0.7984
4857.00,0.8116
4856.00,0.8253
4855.00,0.8395
4854.00,0.8541
4853.00,0.8691
4852.00,0.8842
4851.00,0.8996
4850.00,0.9153
4849.00,0.9312
4848.00,0.9473
4847.00,0.9634
4846.00,0.9797
4845.00,0.9959
4844.00,1.0121
4843.00,1.0282
4842.00,1.0444
4841.00,1.0605
4840.00,1.0764
4839.00,1.0923
4838.00,1.1081
4837.00,1.1236
4836.00,1.1390
4835.00,1.1539
4834.00,1.1686
4833.00,1.1828
4832.00,1.1966
4831.00,1.2100
4830.00,1.2230
4829.00,1.2357
4828.00,1.2480
4827.00,1.2599
4826.00,1.2717
4825.00,1.2832
4824.00,1.2944
4823.00,1.3048
4822.00,1.3145
4821.00,1.3235
4820.00,1.3319
4819.00,1.3398
4818.00,1.3474
4817.00,1.3547
4816.00,1.3619
4815.00,1.3686
4814.00,1.3747
4813.00,1.3801
4812.00,1.3850
4811.00,1.3893
4810.00,1.3933
4809.00,1.3970
4808.00,1.4004
4807.00,1.4034
4806.00,1.4060
4805.00,1.4081
4804.00,1.4097
4803.00,1.4108
4802.00,1.4114
4801.00,1.4115
4800.00,1.4112
4799.00,1.4106
4798.00,1.4096
4797.00,1.4082
4796.00,1.4063
4795.00,1.4038
4794.00,1.4008
4793.00,1.3974
4792.00,1.3937
4791.00,1.3897
4790.00,1.3855
4789.00,1.3808
4788.00,1.3754
4787.00,1.3694
4786.00,1.3627
4785.00,1.3557
4784.00,1.3483
4783.00,1.3406
4782.00,1.3326
4781.00,1.3239
4780.00,1.3147
4779.00,1.3049
4778.00,1.2945
4777.00,1.2838
4776.00,1.2726
4775.00,1.2610
4774.00,1.2489
4773.00,1.2362
4772.00,1.2230
4771.00,1.2094
4770.00,1.1953
4769.00,1.1807
4768.00,1.1657
4767.00,1.1501
4766.00,1.1341
4765.00,1.1177
4764.00,1.1010
4763.00,1.0839
4762.00,1.0665
4761.00,1.0487
4760.00,1.0307
4759.00,1.0126
4758.00,0.9946
4757.00,0.9768
4756.00,0.9589
4755.00,0.9411
4754.00,0.9235
4753.00,0.9060
4752.00,0.8887
4751.00,0.8719
4750.00,0.8556
4749.00,0.8397
4748.00,0.8244
4747.00,0.8097
4746.00,0.7956
4745.00,0.7824
4744.00,0.7699
4743.00,0.7583
4742.00,0.7476
4741.00,0.7379
4740.00,0.7292
4739.00,0.7216
4738.00,0.7151
4737.00,0.7099
4736.00,0.7059
4735.00,0.7031
4734.00,0.7016
4733.00,0.7014
4732.00,0.7025
4731.00,0.7049
4730.00,0.7085
4729.00,0.7133
4728.00,0.7192
4727.00,0.7262
4726.00,0.7343
4725.00,0.7434
4724.00,0.7534
4723.00,0.7643
4722.00,0.7761
4721.00,0.7886
4720.00,0.8018
4719.00,0.8156
4718.00,0.8299
4717.00,0.8448
4716.00,0.8600
4715.00,0.8755
4714.00,0.8915
4713.00,0.9077
4712.00,0.9242
4711.00,0.9410
4710.00,0.9579
4709.00,0.9750
4708.00,0.9921
4707.00,1.0092
4706.00,1.0263
4705.00,1.0435
4704.00,1.0607
4703.00,1.0778
4702.00,1.0948
4701.00,1.1117
4700.00,1.1284
4699.00,1.1449
4698.00,1.1611
4697.00,1.1769
4696.00,1.1922
4695.00,1.2072
4694.00,1.2218
4693.00,1.2362
4692.00,1.2503
4691.00,1.2640
4690.00,1.2773
4689.00,1.2901
4688.00,1.3026
4687.00,1.3146
4686.00,1.3261
4685.00,1.3370
4684.00,1.3473
4683.00,1.3570
4682.00,1.3660
4681.00,1.3745
4680.00,1.3826
4679.00,1.3905
4678.00,1.3980
4677.00,1.4049
4676.00,1.4111
4675.00,1.4169
4674.00,1.4224
4673.00,1.4276
4672.00,1.4325
4671.00,1.4367
4670.00,1.4404
4669.00,1.4435
4668.00,1.4463
4667.00,1.4487
4666.00,1.4508
4665.00,1.4524
4664.00,1.4536
4663.00,1.4542
4662.00,1.4545
4661.00,1.4542
4660.00,1.4535
4659.00,1.4523
4658.00,1.4508
4657.00,1.4489
4656.00,1.4465
4655.00,1.4436
4654.00,1.4403
4653.00,1.4368
4652.00,1.4329
4651.00,1.4286
4650.00,1.4238
4649.00,1.4184
4648.00,1.4125
4647.00,1.4061
4646.00,1.3992
4645.00,1.3918
4644.00,1.3838
4643.00,1.3754
4642.00,1.3665
4641.00,1.3573
4640.00,1.3477
4639.00,1.3375
4638.00,1.3268
4637.00,1.3153
4636.00,1.3033
4635.00,1.2909
4634.00,1.2780
4633.00,1.2646
4632.00,1.2507
4631.00,1.2363
4630.00,1.2213
4629.00,1.2057
4628.00,1.1897
4627.00,1.1732
4626.00,1.1562
4625.00,1.1387
4624.00,1.1208
4623.00,1.1026
4622.00,1.0841
4621.00,1.0653
4620.00,1.0464
4619.00,1.0273
4618.00,1.0082
4617.00,0.9890
4616.00,0.9698
4615.00,0.9509
4614.00,0.9322
4613.00,0.9138
4612.00,0.8957
4611.00,0.8781
4610.00,0.8609
4609.00,0.8443
4608.00,0.8284
4607.00,0.8132
4606.00,0.7988
4605.00,0.7854
4604.00,0.7729
4603.00,0.7614
4602.00,0.7511
4601.00,0.7420
4600.00,0.7342
4599.00,0.7275
4598.00,0.7222
4597.00,0.7183
4596.00,0.7157
4595.00,0.7146
4594.00,0.7150
4593.00,0.7168
4592.00,0.7199
4591.00,0.7244
4590.00,0.7301
4589.00,0.7371
4588.00,0.7452
4587.00,0.7544
4586.00,0.7646
4585.00,0.7759
4584.00,0.7880
4583.00,0.8010
4582.00,0.8148
4581.00,0.8292
4580.00,0.8443
4579.00,0.8599
4578.00,0.8759
4577.00,0.8924
4576.00,0.9092
4575.00,0.9263
4574.00,0.9437
4573.00,0.9613
4572.00,0.9792
4571.00,0.9972
4570.00,1.0154
4569.00,1.0337
4568.00,1.0520
4567.00,1.0702
4566.00,1.0881
4565.00,1.1058
4564.00,1.1234
4563.00,1.1409
4562.00,1.1584
4561.00,1.1756
4560.00,1.1927
4559.00,1.2094
4558.00,1.2258
4557.00,1.2416
4556.00,1.2569
4555.00,1.2717
4554.00,1.2861
4553.00,1.3003
4552.00,1.3141
4551.00,1.3274
4550.00,1.3402
4549.00,1.3524
4548.00,1.3638
4547.00,1.3748
4546.00,1.3852
4545.00,1.3951
4544.00,1.4045
4543.00,1.4134
4542.00,1.4218
4541.00,1.4298
4540.00,1.4373
4539.00,1.4442
4538.00,1.4506
4537.00,1.4564
4536.00,1.4617
4535.00,1.4666
4534.00,1.4712
4533.00,1.4753
4532.00,1.4790
4531.00,1.4823
4530.00,1.4852
4529.00,1.4877
4528.00,1.4898
4527.00,1.4914
4526.00,1.4926
4525.00,1.4936
4524.00,1.4944
4523.00,1.4952
4522.00,1.4956
4521.00,1.4955
4520.00,1.4947
4519.00,1.4933
4518.00,1.4913
4517.00,1.4890
4516.00,1.4866
4515.00,1.4837
4514.00,1.4802
4513.00,1.4758
4512.00,1.4707
4511.00,1.4650
4510.00,1.4590
4509.00,1.4527
4508.00,1.4459
4507.00,1.4388
4506.00,1.4312
4505.00,1.4231
4504.00,1.4145
4503.00,1.4051
4502.00,1.3950
4501.00,1.3843
4500.00,1.3730
4499.00,1.3613
4498.00,1.3491
4497.00,1.3365
4496.00,1.3234
4495.00,1.3098
4494.00,1.2957
4493.00,1.2811
4492.00,1.2660
4491.00,1.2503
4490.00,1.2342
4489.00,1.2174
4488.00,1.2001
4487.00,1.1824
4486.00,1.1644
4485.00,1.1460
4484.00,1.1274
4483.00,1.1084
4482.00,1.0891
4481.00,1.0696
4480.00,1.0501
4479.00,1.0306
4478.00,1.0114
4477.00,0.9924
4476.00,0.9737
4475.00,0.9552
4474.00,0.9371
4473.00,0.9196
4472.00,0.9026
4471.00,0.8863
4470.00,0.8709
4469.00,0.8564
4468.00,0.8429
4467.00,0.8304
4466.00,0.8192
4465.00,0.8092
4464.00,0.8004
4463.00,0.7931
4462.00,0.7872
4461.00,0.7828
4460.00,0.7800
4459.00,0.7787
4458.00,0.7790
4457.00,0.7809
4456.00,0.7843
4455.00,0.7891
4454.00,0.7953
4453.00,0.8028
4452.00,0.8117
4451.00,0.8217
4450.00,0.8328
4449.00,0.8449
4448.00,0.8577
4447.00,0.8712
4446.00,0.8854
4445.00,0.9000
4444.00,0.9149
4443.00,0.9300
4442.00,0.9452
4441.00,0.9603
4440.00,0.9752
4439.00,0.9900
4438.00,1.0044
4437.00,1.0185
4436.00,1.0323
4435.00,1.0458
4434.00,1.0592
4433.00,1.0725
4432.00,1.0858
4431.00,1.0993
4430.00,1.1130
4429.00,1.1270
4428.00,1.1413
4427.00,1.1560
4426.00,1.1711
4425.00,1.1865
4424.00,1.2022
4423.00,1.2180
4422.00,1.2339
4421.00,1.2498
4420.00,1.2655
4419.00,1.2811
4418.00,1.2966
4417.00,1.3119
4416.00,1.3270
4415.00,1.3419
4414.00,1.3566
4413.00,1.3710
4412.00,1.3848
4411.00,1.3981
4410.00,1.4107
4409.00,1.4227
4408.00,1.4342
4407.00,1.4454
4406.00,1.4562
4405.00,1.4665
4404.00,1.4762
4403.00,1.4849
4402.00,1.4930
4401.00,1.5006
4400.00,1.5078
4399.00,1.5146
4398.00,1.5209
4397.00,1.5267
4396.00,1.5321
4395.00,1.5371
4394.00,1.5415
4393.00,1.5454
4392.00,1.5487
4391.00,1.5515
4390.00,1.5543
4389.00,1.5569
4388.00,1.5592
4387.00,1.5610
4386.00,1.5622
4385.00,1.5628
4384.00,1.5629
4383.00,1.5625
4382.00,1.5617
4381.00,1.5605
4380.00,1.5592
4379.00,1.5578
4378.00,1.5560
4377.00,1.5538
4376.00,1.5511
4375.00,1.5481
4374.00,1.5447
4373.00,1.5411
4372.00,1.5370
4371.00,1.5326
4370.00,1.5279
4369.00,1.5232
4368.00,1.5183
4367.00,1.5132
4366.00,1.5074
4365.00,1.5008
4364.00,1.4935
4363.00,1.4854
4362.00,1.4769
4361.00,1.4679
4360.00,1.4585
4359.00,1.4486
4358.00,1.4382
4357.00,1.4272
4356.00,1.4155
4355.00,1.4029
4354.00,1.3894
4353.00,1.3749
4352.00,1.3597
4351.00,1.3440
4350.00,1.3278
4349.00,1.3112
4348.00,1.2940
4347.00,1.2762
4346.00,1.2577
4345.00,1.2386
4344.00,1.2190
4343.00,1.1991
4342.00,1.1788
4341.00,1.1580
4340.00,1.1368
4339.00,1.1153
4338.00,1.0937
4337.00,1.0720
4336.00,1.0506
4335.00,1.0293
4334.00,1.0082
4333.00,0.9875
4332.00,0.9672
4331.00,0.9476
4330.00,0.9287
4329.00,0.9107
4328.00,0.8937
4327.00,0.8777
4326.00,0.8630
4325.00,0.8495
4324.00,0.8373
4323.00,0.8263
4322.00,0.8166
4321.00,0.8079
4320.00,0.8003
4319.00,0.7936
4318.00,0.7879
4317.00,0.7833
4316.00,0.7799
4315.00,0.7778
4314.00,0.7772
4313.00,0.7782
4312.00,0.7807
4311.00,0.7848
4310.00,0.7905
4309.00,0.7978
4308.00,0.8066
4307.00,0.8168
4306.00,0.8283
4305.00,0.8408
4304.00,0.8544
4303.00,0.8690
4302.00,0.8845
4301.00,0.9007
4300.00,0.9177
4299.00,0.9352
4298.00,0.9532
4297.00,0.9716
4296.00,0.9903
4295.00,1.0094
4294.00,1.0288
4293.00,1.0483
4292.00,1.0679
4291.00,1.0877
4290.00,1.1076
4289.00,1.1274
4288.00,1.1471
4287.00,1.1667
4286.00,1.1861
4285.00,1.2053
4284.00,1.2244
4283.00,1.2433
4282.00,1.2620
4281.00,1.2803
4280.00,1.2981
4279.00,1.3154
4278.00,1.3322
4277.00,1.3485
4276.00,1.3643
4275.00,1.3795
4274.00,1.3942
4273.00,1.4083
4272.00,1.4219
4271.00,1.4349
4270.00,1.4474
4269.00,1.4595
4268.00,1.4713
4267.00,1.4825
4266.00,1.4932
4265.00,1.5031
4264.00,1.5124
4263.00,1.5211
4262.00,1.5294
4261.00,1.5374
4260.00,1.5449
4259.00,1.5519
4258.00,1.5583
4257.00,1.5642
4256.00,1.5696
4255.00,1.5745
4254.00,1.5788
4253.00,1.5827
4252.00,1.5860
4251.00,1.5890
4250.00,1.5915
4249.00,1.5935
4248.00,1.5950
4247.00,1.5963
4246.00,1.5972
4245.00,1.5976
4244.00,1.5975
4243.00,1.5969
4242.00,1.5961
4241.00,1.5950
4240.00,1.5935
4239.00,1.5913
4238.00,1.5883
4237.00,1.5849
4236.00,1.5811
4235.00,1.5770
4234.00,1.5724
4233.00,1.5670
4232.00,1.5609
4231.00,1.5544
4230.00,1.5475
4229.00,1.5404
4228.00,1.5330
4227.00,1.5251
4226.00,1.5166
4225.00,1.5077
4224.00,1.4983
4223.00,1.4883
4222.00,1.4776
4221.00,1.4664
4220.00,1.4545
4219.00,1.4420
4218.00,1.4287
4217.00,1.4148
4216.00,1.4002
4215.00,1.3851
4214.00,1.3695
4213.00,1.3534
4212.00,1.3366
4211.00,1.3190
4210.00,1.3008
4209.00,1.2820
4208.00,1.2626
4207.00,1.2427
4206.00,1.2223
4205.00,1.2014
4204.00,1.1799
4203.00,1.1580
4202.00,1.1356
4201.00,1.1130
4200.00,1.0903
4199.00,1.0674
4198.00,1.0445
4197.00,1.0216
4196.00,0.9990
4195.00,0.9767
4194.00,0.9548
4193.00,0.9334
4192.00,0.9128
4191.00,0.8929
4190.00,0.8740
4189.00,0.8561
4188.00,0.8393
4187.00,0.8236
4186.00,0.8093
4185.00,0.7963
4184.00,0.7848
4183.00,0.7749
4182.00,0.7667
4181.00,0.7601
4180.00,0.7553
4179.00,0.7522
4178.00,0.7510
4177.00,0.7516
4176.00,0.7540
4175.00,0.7582
4174.00,0.7641
4173.00,0.7716
4172.00,0.7806
4171.00,0.7911
4170.00,0.8030
4169.00,0.8162
4168.00,0.8305
4167.00,0.8458
4166.00,0.8621
4165.00,0.8792
4164.00,0.8970
4163.00,0.9155
4162.00,0.9347
4161.00,0.9543
4160.00,0.9744
4159.00,0.9948
4158.00,1.0155
4157.00,1.0364
4156.00,1.0575
4155.00,1.0788
4154.00,1.1003
4153.00,1.1218
4152.00,1.1432
4151.00,1.1645
4150.00,1.1857
4149.00,1.2068
4148.00,1.2277
4147.00,1.2483
4146.00,1.2686
4145.00,1.2886
4144.00,1.3083
4143.00,1.3275
4142.00,1.3461
4141.00,1.3641
4140.00,1.3815
4139.00,1.3982
4138.00,1.4145
4137.00,1.4303
4136.00,1.4457
4135.00,1.4606
4134.00,1.4749
4133.00,1.4885
4132.00,1.5015
4131.00,1.5140
4130.00,1.5260
4129.00,1.5373
4128.00,1.5482
4127.00,1.5584
4126.00,1.5681
4125.00,1.5770
4124.00,1.5852
4123.00,1.5928
4122.00,1.6000
4121.00,1.6069
4120.00,1.6135
4119.00,1.6195
4118.00,1.6250
4117.00,1.6300
4116.00,1.6345
4115.00,1.6385
4114.00,1.6420
4113.00,1.6451
4112.00,1.6478
4111.00,1.6500
4110.00,1.6519
4109.00,1.6533
4108.00,1.6542
4107.00,1.6547
4106.00,1.6547
4105.00,1.6543
4104.00,1.6535
4103.00,1.6522
4102.00,1.6506
4101.00,1.6486
4100.00,1.6461
4099.00,1.6429
4098.00,1.6392
4097.00,1.6349
4096.00,1.6302
4095.00,1.6251
4094.00,1.6198
4093.00,1.6142
4092.00,1.6082
4091.00,1.6017
4090.00,1.5943
4089.00,1.5861
4088.00,1.5771
4087.00,1.5676
4086.00,1.5578
4085.00,1.5477
4084.00,1.5371
4083.00,1.5258
4082.00,1.5140
4081.00,1.5016
4080.00,1.4887
4079.00,1.4754
4078.00,1.4615
4077.00,1.4469
4076.00,1.4315
4075.00,1.4155
4074.00,1.3989
4073.00,1.3815
4072.00,1.3635
4071.00,1.3447
4070.00,1.3252
4069.00,1.3052
4068.00,1.2847
4067.00,1.2637
4066.00,1.2423
4065.00,1.2203
4064.00,1.1979
4063.00,1.1750
4062.00,1.1518
4061.00,1.1283
4060.00,1.1046
4059.00,1.0809
4058.00,1.0574
4057.00,1.0341
4056.00,1.0113
4055.00,0.9891
4054.00,0.9675
4053.00,0.9468
4052.00,0.9269
4051.00,0.9082
4050.00,0.8907
4049.00,0.8745
4048.00,0.8599
4047.00,0.8468
4046.00,0.8354
4045.00,0.8256
4044.00,0.8178
4043.00,0.8119
4042.00,0.8081
4041.00,0.8063
4040.00,0.8066
4039.00,0.8089
4038.00,0.8131
4037.00,0.8192
4036.00,0.8269
4035.00,0.8362
4034.00,0.8469
4033.00,0.8587
4032.00,0.8715
4031.00,0.8851
4030.00,0.8992
4029.00,0.9139
4028.00,0.9289
4027.00,0.9443
4026.00,0.9601
4025.00,0.9764
4024.00,0.9933
4023.00,1.0107
4022.00,1.0286
4021.00,1.0469
4020.00,1.0657
4019.00,1.0850
4018.00,1.1048
4017.00,1.1251
4016.00,1.1458
4015.00,1.1667
4014.00,1.1876
4013.00,1.2085
4012.00,1.2294
4011.00,1.2504
4010.00,1.2714
4009.00,1.2923
4008.00,1.3131
4007.00,1.3336
4006.00,1.3538
4005.00,1.3735
4004.00,1.3928
4003.00,1.4116
4002.00,1.4300
4001.00,1.4478
4000.00,1.4649
3999.00,1.4813
3998.00,1.4970
3997.00,1.5124
3996.00,1.5274
3995.00,1.5419
3994.00,1.5558
3993.00,1.5689
3992.00,1.5812
3991.00,1.5930
3990.00,1.6043
3989.00,1.6152
3988.00,1.6253
3987.00,1.6347
3986.00,1.6434
3985.00,1.6514
3984.00,1.6591
3983.00,1.6664
3982.00,1.6734
3981.00,1.6800
3980.00,1.6862
3979.00,1.6919
3978.00,1.6971
3977.00,1.7018
3976.00,1.7059
3975.00,1.7094
3974.00,1.7123
3973.00,1.7145
3972.00,1.7161
3971.00,1.7173
3970.00,1.7182
3969.00,1.7188
3968.00,1.7189
3967.00,1.7185
3966.00,1.7177
3965.00,1.7167
3964.00,1.7153
3963.00,1.7133
3962.00,1.7107
3961.00,1.7075
3960.00,1.7039
3959.00,1.7001
3958.00,1.6962
3957.00,1.6918
3956.00,1.6867
3955.00,1.6810
3954.00,1.6747
3953.00,1.6680
3952.00,1.6610
3951.00,1.6537
3950.00,1.6458
3949.00,1.6371
3948.00,1.6274
3947.00,1.6171
3946.00,1.6062
3945.00,1.5951
3944.00,1.5837
3943.00,1.5719
3942.00,1.5595
3941.00,1.5465
3940.00,1.5325
3939.00,1.5178
3938.00,1.5023
3937.00,1.4863
3936.00,1.4697
3935.00,1.4523
3934.00,1.4340
3933.00,1.4147
3932.00,1.3944
3931.00,1.3732
3930.00,1.3514
3929.00,1.3294
3928.00,1.3072
3927.00,1.2849
3926.00,1.2617
3925.00,1.2377
3924.00,1.2127
3923.00,1.1874
3922.00,1.1620
3921.00,1.1365
3920.00,1.1107
3919.00,1.0848
3918.00,1.0585
3917.00,1.0323
3916.00,1.0065
3915.00,0.9816
3914.00,0.9581
3913.00,0.9359
3912.00,0.9150
3911.00,0.8955
3910.00,0.8772
3909.00,0.8603
3908.00,0.8449
3907.00,0.8311
3906.00,0.8191
3905.00,0.8086
3904.00,0.7997
3903.00,0.7923
3902.00,0.7868
3901.00,0.7833
3900.00,0.7823
3899.00,0.7837
3898.00,0.7878
3897.00,0.7942
3896.00,0.8028
3895.00,0.8134
3894.00,0.8259
3893.00,0.8405
3892.00,0.8571
3891.00,0.8752
3890.00,0.8941
3889.00,0.9129
3888.00,0.9313
3887.00,0.9505
3886.00,0.9718
3885.00,0.9952
3884.00,1.0192
3883.00,1.0423
3882.00,1.0649
3881.00,1.0884
3880.00,1.1138
3879.00,1.1403
3878.00,1.1663
3877.00,1.1907
3876.00,1.2138
3875.00,1.2369
3874.00,1.2606
3873.00,1.2845
3872.00,1.3078
3871.00,1.3308
3870.00,1.3545
3869.00,1.3786
3868.00,1.4019
3867.00,1.4233
3866.00,1.4432
3865.00,1.4624
3864.00,1.4819
3863.00,1.5013
3862.00,1.5202
3861.00,1.5384
3860.00,1.5556
3859.00,1.5712
3858.00,1.5852
3857.00,1.5976
3856.00,1.6092
3855.00,1.6207
3854.00,1.6325
3853.00,1.6446
3852.00,1.6566
3851.00,1.6681
3850.00,1.6794
3849.00,1.6904
3848.00,1.7011
3847.00,1.7115
3846.00,1.7208
3845.00,1.7285
3844.00,1.7346
3843.00,1.7402
3842.00,1.7457
3841.00,1.7514
3840.00,1.7570
3839.00,1.7622
3838.00,1.7670
3837.00,1.7711
3836.00,1.7744
3835.00,1.7768
3834.00,1.7786
3833.00,1.7800
3832.00,1.7815
3831.00,1.7828
3830.00,1.7836
3829.00,1.7835
3828.00,1.7826
3827.00,1.7811
3826.00,1.7796
3825.00,1.7781
3824.00,1.7763
3823.00,1.7738
3822.00,1.7701
3821.00,1.7653
3820.00,1.7600
3819.00,1.7550
3818.00,1.7503
3817.00,1.7449
3816.00,1.7382
3815.00,1.7305
3814.00,1.7220
3813.00,1.7132
3812.00,1.7042
3811.00,1.6954
3810.00,1.6869
3809.00,1.6781
3808.00,1.6681
3807.00,1.6566
3806.00,1.6441
3805.00,1.6312
3804.00,1.6183
3803.00,1.6049
3802.00,1.5901
3801.00,1.5737
3800.00,1.5563
3799.00,1.5387
3798.00,1.5209
3797.00,1.5025
3796.00,1.4834
3795.00,1.4637
3794.00,1.4433
3793.00,1.4218
3792.00,1.3991
3791.00,1.3753
3790.00,1.3507
3789.00,1.3254
3788.00,1.2995
3787.00,1.2729
3786.00,1.2457
3785.00,1.2179
3784.00,1.1900
3783.00,1.1624
3782.00,1.1350
3781.00,1.1072
3780.00,1.0790
3779.00,1.0505
3778.00,1.0227
3777.00,0.9963
3776.00,0.9714
3775.00,0.9475
3774.00,0.9248
3773.00,0.9036
3772.00,0.8843
3771.00,0.8665
3770.00,0.8502
3769.00,0.8357
3768.00,0.8235
3767.00,0.8140
3766.00,0.8069
3765.00,0.8024
3764.00,0.8003
3763.00,0.8007
3762.00,0.8036
3761.00,0.8093
3760.00,0.8179
3759.00,0.8290
3758.00,0.8422
3757.00,0.8570
3756.00,0.8732
3755.00,0.8902
3754.00,0.9080
3753.00,0.9272
3752.00,0.9485
3751.00,0.9720
3750.00,0.9977
3749.00,1.0247
3748.00,1.0515
3747.00,1.0762
3746.00,1.0998
3745.00,1.1256
3744.00,1.1560
3743.00,1.1887
3742.00,1.2192
3741.00,1.2460
3740.00,1.2710
3739.00,1.2961
3738.00,1.3214
3737.00,1.3463
3736.00,1.3707
3735.00,1.3945
3734.00,1.4176
3733.00,1.4400
3732.00,1.4620
3731.00,1.4831
3730.00,1.5019
3729.00,1.5181
3728.00,1.5322
3727.00,1.5456
3726.00,1.5591
3725.00,1.5727
3724.00,1.5867
3723.00,1.6012
3722.00,1.6168
3721.00,1.6335
3720.00,1.6509
3719.00,1.6684
3718.00,1.6857
3717.00,1.7029
3716.00,1.7196
3715.00,1.7350
3714.00,1.7486
3713.00,1.7605
3712.00,1.7713
3711.00,1.7808
3710.00,1.7891
3709.00,1.7964
3708.00,1.8027
3707.00,1.8077
3706.00,1.8112
3705.00,1.8137
3704.00,1.8161
3703.00,1.8186
3702.00,1.8217
3701.00,1.8254
3700.00,1.8297
3699.00,1.8339
3698.00,1.8376
3697.00,1.8407
3696.00,1.8436
3695.00,1.8464
3694.00,1.8489
3693.00,1.8510
3692.00,1.8526
3691.00,1.8535
3690.00,1.8539
3689.00,1.8537
3688.00,1.8531
3687.00,1.8514
3686.00,1.8480
3685.00,1.8431
3684.00,1.8381
3683.00,1.8338
3682.00,1.8301
3681.00,1.8260
3680.00,1.8211
3679.00,1.8156
3678.00,1.8098
3677.00,1.8031
3676.00,1.7949
3675.00,1.7849
3674.00,1.7744
3673.00,1.7642
3672.00,1.7541
3671.00,1.7430
3670.00,1.7309
3669.00,1.7183
3668.00,1.7060
3667.00,1.6938
3666.00,1.6816
3665.00,1.6692
3664.00,1.6566
3663.00,1.6439
3662.00,1.6309
3661.00,1.6175
3660.00,1.6036
3659.00,1.5893
3658.00,1.5742
3657.00,1.5582
3656.00,1.5415
3655.00,1.5249
3654.00,1.5089
3653.00,1.4937
3652.00,1.4791
3651.00,1.4640
3650.00,1.4475
3649.00,1.4294
3648.00,1.4104
3647.00,1.3922
3646.00,1.3757
3645.00,1.3602
3644.00,1.3450
3643.00,1.3302
3642.00,1.3161
3641.00,1.3026
3640.00,1.2894
3639.00,1.2765
3638.00,1.2641
3637.00,1.2523
3636.00,1.2410
3635.00,1.2303
3634.00,1.2199
3633.00,1.2103
3632.00,1.2017
3631.00,1.1940
3630.00,1.1870
3629.00,1.1799
3628.00,1.1726
3627.00,1.1658
3626.00,1.1609
3625.00,1.1588
3624.00,1.1595
3623.00,1.1627
3622.00,1.1678
3621.00,1.1741
3620.00,1.1814
3619.00,1.1896
3618.00,1.1987
3617.00,1.2087
3616.00,1.2196
3615.00,1.2315
3614.00,1.2446
3613.00,1.2585
3612.00,1.2726
3611.00,1.2862
3610.00,1.2996
3609.00,1.3130
3608.00,1.3266
3607.00,1.3403
3606.00,1.3541
3605.00,1.3684
3604.00,1.3836
3603.00,1.3998
3602.00,1.4168
3601.00,1.4345
3600.00,1.4529
3599.00,1.4717
3598.00,1.4908
3597.00,1.5100
3596.00,1.5293
3595.00,1.5487
3594.00,1.5681
3593.00,1.5873
3592.00,1.6060
3591.00,1.6240
3590.00,1.6416
3589.00,1.6591
3588.00,1.6768
3587.00,1.6945
3586.00,1.7116
3585.00,1.7283
3584.00,1.7442
3583.00,1.7595
3582.00,1.7739
3581.00,1.7877
3580.00,1.8008
3579.00,1.8131
3578.00,1.8249
3577.00,1.8364
3576.00,1.8477
3575.00,1.8586
3574.00,1.8692
3573.00,1.8793
3572.00,1.8888
3571.00,1.8973
3570.00,1.9049
3569.00,1.9120
3568.00,1.9186
3567.00,1.9248
3566.00,1.9309
3565.00,1.9370
3564.00,1.9430
3563.00,1.9484
3562.00,1.9529
3561.00,1.9569
3560.00,1.9607
3559.00,1.9638
3558.00,1.9660
3557.00,1.9677
3556.00,1.9693
3555.00,1.9712
3554.00,1.9732
3553.00,1.9748
3552.00,1.9755
3551.00,1.9750
3550.00,1.9740
3549.00,1.9729
3548.00,1.9718
3547.00,1.9704
3546.00,1.9684
3545.00,1.9658
3544.00,1.9627
3543.00,1.9595
3542.00,1.9563
3541.00,1.9530
3540.00,1.9492
3539.00,1.9450
3538.00,1.9403
3537.00,1.9352
3536.00,1.9294
3535.00,1.9226
3534.00,1.9154
3533.00,1.9081
3532.00,1.9006
3531.00,1.8927
3530.00,1.8842
3529.00,1.8754
3528.00,1.8665
3527.00,1.8572
3526.00,1.8473
3525.00,1.8363
3524.00,1.8243
3523.00,1.8114
3522.00,1.7980
3521.00,1.7845
3520.00,1.7707
3519.00,1.7563
3518.00,1.7410
3517.00,1.7249
3516.00,1.7080
3515.00,1.6905
3514.00,1.6723
3513.00,1.6535
3512.00,1.6338
3511.00,1.6134
3510.00,1.5925
3509.00,1.5710
3508.00,1.5491
3507.00,1.5268
3506.00,1.5039
3505.00,1.4804
3504.00,1.4564
3503.00,1.4319
3502.00,1.4071
3501.00,1.3823
3500.00,1.3576
3499.00,1.3330
3498.00,1.3088
3497.00,1.2849
3496.00,1.2616
3495.00,1.2391
3494.00,1.2175
3493.00,1.1970
3492.00,1.1777
3491.00,1.1597
3490.00,1.1432
3489.00,1.1282
3488.00,1.1151
3487.00,1.1038
3486.00,1.0945
3485.00,1.0874
3484.00,1.0823
3483.00,1.0794
3482.00,1.0787
3481.00,1.0801
3480.00,1.0838
3479.00,1.0895
3478.00,1.0973
3477.00,1.1070
3476.00,1.1185
3475.00,1.1317
3474.00,1.1464
3473.00,1.1625
3472.00,1.1798
3471.00,1.1983
3470.00,1.2178
3469.00,1.2381
3468.00,1.2594
3467.00,1.2814
3466.00,1.3040
3465.00,1.3270
3464.00,1.3504
3463.00,1.3741
3462.00,1.3981
3461.00,1.4225
3460.00,1.4467
3459.00,1.4706
3458.00,1.4942
3457.00,1.5176
3456.00,1.5408
3455.00,1.5640
3454.00,1.5867
3453.00,1.6090
3452.00,1.6305
3451.00,1.6513
3450.00,1.6715
3449.00,1.6911
3448.00,1.7104
3447.00,1.7293
3446.00,1.7477
3445.00,1.7653
3444.00,1.7818
3443.00,1.7972
3442.00,1.8117
3441.00,1.8258
3440.00,1.8397
3439.00,1.8533
3438.00,1.8662
3437.00,1.8782
3436.00,1.8895
3435.00,1.9004
3434.00,1.9111
3433.00,1.9216
3432.00,1.9318
3431.00,1.9410
3430.00,1.9492
3429.00,1.9569
3428.00,1.9642
3427.00,1.9712
3426.00,1.9775
3425.00,1.9833
3424.00,1.9886
3423.00,1.9936
3422.00,1.9983
3421.00,2.0026
3420.00,2.0064
3419.00,2.0093
3418.00,2.0116
3417.00,2.0137
3416.00,2.0157
3415.00,2.0173
3414.00,2.0180
3413.00,2.0179
3412.00,2.0173
3411.00,2.0167
3410.00,2.0161
3409.00,2.0153
3408.00,2.0139
3407.00,2.0115
3406.00,2.0083
3405.00,2.0046
3404.00,2.0008
3403.00,1.9968
3402.00,1.9927
3401.00,1.9882
3400.00,1.9830
3399.00,1.9769
3398.00,1.9702
3397.00,1.9632
3396.00,1.9559
3395.00,1.9480
3394.00,1.9394
3393.00,1.9303
3392.00,1.9209
3391.00,1.9111
3390.00,1.9009
3389.00,1.8899
3388.00,1.8783
3387.00,1.8659
3386.00,1.8529
3385.00,1.8393
3384.00,1.8252
3383.00,1.8105
3382.00,1.7951
3381.00,1.7789
3380.00,1.7617
3379.00,1.7437
3378.00,1.7249
3377.00,1.7056
3376.00,1.6856
3375.00,1.6648
3374.00,1.6431
3373.00,1.6204
3372.00,1.5968
3371.00,1.5724
3370.00,1.5473
3369.00,1.5217
3368.00,1.4956
3367.00,1.4689
3366.00,1.4416
3365.00,1.4139
3364.00,1.3862
3363.00,1.3586
3362.00,1.3311
3361.00,1.3039
3360.00,1.2770
3359.00,1.2506
3358.00,1.2251
3357.00,1.2007
3356.00,1.1777
3355.00,1.1562
3354.00,1.1364
3353.00,1.1184
3352.00,1.1023
3351.00,1.0882
3350.00,1.0763
3349.00,1.0668
3348.00,1.0599
3347.00,1.0555
3346.00,1.0537
3345.00,1.0545
3344.00,1.0578
3343.00,1.0636
3342.00,1.0718
3341.00,1.0823
3340.00,1.0949
3339.00,1.1095
3338.00,1.1259
3337.00,1.1441
3336.00,1.1638
3335.00,1.1848
3334.00,1.2069
3333.00,1.2299
3332.00,1.2537
3331.00,1.2782
3330.00,1.3034
3329.00,1.3290
3328.00,1.3549
3327.00,1.3808
3326.00,1.4069
3325.00,1.4329
3324.00,1.4589
3323.00,1.4846
3322.00,1.5101
3321.00,1.5352
3320.00,1.5599
3319.00,1.5841
3318.00,1.6078
3317.00,1.6310
3316.00,1.6539
3315.00,1.6763
3314.00,1.6981
3313.00,1.7194
3312.00,1.7401
3311.00,1.7600
3310.00,1.7792
3309.00,1.7976
3308.00,1.8153
3307.00,1.8324
3306.00,1.8490
3305.00,1.8651
3304.00,1.8804
3303.00,1.8948
3302.00,1.9084
3301.00,1.9216
3300.00,1.9344
3299.00,1.9465
3298.00,1.9578
3297.00,1.9683
3296.00,1.9781
3295.00,1.9872
3294.00,1.9958
3293.00,2.0040
3292.00,2.0120
3291.00,2.0197
3290.00,2.0269
3289.00,2.0333
3288.00,2.0390
3287.00,2.0444
3286.00,2.0498
3285.00,2.0553
3284.00,2.0604
3283.00,2.0646
3282.00,2.0678
3281.00,2.0705
3280.00,2.0730
3279.00,2.0751
3278.00,2.0767
3277.00,2.0777
3276.00,2.0781
3275.00,2.0780
3274.00,2.0775
3273.00,2.0768
3272.00,2.0757
3271.00,2.0740
3270.00,2.0717
3269.00,2.0693
3268.00,2.0670
3267.00,2.0645
3266.00,2.0611
3265.00,2.0566
3264.00,2.0511
3263.00,2.0450
3262.00,2.0386
3261.00,2.0322
3260.00,2.0254
3259.00,2.0184
3258.00,2.0110
3257.00,2.0032
3256.00,1.9947
3255.00,1.9853
3254.00,1.9753
3253.00,1.9651
3252.00,1.9546
3251.00,1.9433
3250.00,1.9309
3249.00,1.9177
3248.00,1.9041
3247.00,1.8901
3246.00,1.8754
3245.00,1.8601
3244.00,1.8441
3243.00,1.8274
3242.00,1.8098
3241.00,1.7914
3240.00,1.7721
3239.00,1.7518
3238.00,1.7307
3237.00,1.7086
3236.00,1.6859
3235.00,1.6626
3234.00,1.6388
3233.00,1.6144
3232.00,1.5892
3231.00,1.5632
3230.00,1.5365
3229.00,1.5094
3228.00,1.4820
3227.00,1.4544
3226.00,1.4267
3225.00,1.3993
3224.00,1.3724
3223.00,1.3461
3222.00,1.3206
3221.00,1.2962
3220.00,1.2731
3219.00,1.2516
3218.00,1.2319
3217.00,1.2144
3216.00,1.1994
3215.00,1.1869
3214.00,1.1772
3213.00,1.1704
3212.00,1.1665
3211.00,1.1656
3210.00,1.1677
3209.00,1.1727
3208.00,1.1804
3207.00,1.1905
3206.00,1.2026
3205.00,1.2162
3204.00,1.2306
3203.00,1.2452
3202.00,1.2596
3201.00,1.2734
3200.00,1.2867
3199.00,1.2997
3198.00,1.3130
3197.00,1.3274
3196.00,1.3432
3195.00,1.3607
3194.00,1.3799
3193.00,1.4006
3192.00,1.4228
3191.00,1.4463
3190.00,1.4710
3189.00,1.4966
3188.00,1.5231
3187.00,1.5502
3186.00,1.5775
3185.00,1.6051
3184.00,1.6325
3183.00,1.6596
3182.00,1.6862
3181.00,1.7123
3180.00,1.7378
3179.00,1.7628
3178.00,1.7873
3177.00,1.8116
3176.00,1.8358
3175.00,1.8595
3174.00,1.8826
3173.00,1.9051
3172.00,1.9273
3171.00,1.9493
3170.00,1.9710
3169.00,1.9921
3168.00,2.0118
3167.00,2.0288
3166.00,2.0420
3165.00,2.0508
3164.00,2.0551
3163.00,2.0559
3162.00,2.0545
3161.00,2.0527
3160.00,2.0519
3159.00,2.0528
3158.00,2.0557
3157.00,2.0608
3156.00,2.0673
3155.00,2.0747
3154.00,2.0823
3153.00,2.0900
3152.00,2.0978
3151.00,2.1052
3150.00,2.1119
3149.00,2.1181
3148.00,2.1240
3147.00,2.1293
3146.00,2.1344
3145.00,2.1393
3144.00,2.1442
3143.00,2.1484
3142.00,2.1514
3141.00,2.1530
3140.00,2.1536
3139.00,2.1539
3138.00,2.1543
3137.00,2.1548
3136.00,2.1552
3135.00,2.1553
3134.00,2.1550
3133.00,2.1546
3132.00,2.1540
3131.00,2.1525
3130.00,2.1497
3129.00,2.1456
3128.00,2.1408
3127.00,2.1362
3126.00,2.1320
3125.00,2.1278
3124.00,2.1230
3123.00,2.1171
3122.00,2.1102
3121.00,2.1030
3120.00,2.0958
3119.00,2.0883
3118.00,2.0801
3117.00,2.0710
3116.00,2.0612
3115.00,2.0508
3114.00,2.0399
3113.00,2.0284
3112.00,2.0163
3111.00,2.0038
3110.00,1.9909
3109.00,1.9774
3108.00,1.9633
3107.00,1.9486
3106.00,1.9332
3105.00,1.9174
3104.00,1.9008
3103.00,1.8833
3102.00,1.8648
3101.00,1.8455
3100.00,1.8256
3099.00,1.8054
3098.00,1.7846
3097.00,1.7633
3096.00,1.7413
3095.00,1.7186
3094.00,1.6952
3093.00,1.6713
3092.00,1.6470
3091.00,1.6225
3090.00,1.5979
3089.00,1.5734
3088.00,1.5491
3087.00,1.5249
3086.00,1.5012
3085.00,1.4781
3084.00,1.4557
3083.00,1.4343
3082.00,1.4140
3081.00,1.3950
3080.00,1.3774
3079.00,1.3615
3078.00,1.3474
3077.00,1.3352
3076.00,1.3250
3075.00,1.3169
3074.00,1.3111
3073.00,1.3077
3072.00,1.3068
3071.00,1.3084
3070.00,1.3123
3069.00,1.3186
3068.00,1.3271
3067.00,1.3377
3066.00,1.3502
3065.00,1.3645
3064.00,1.3805
3063.00,1.3981
3062.00,1.4173
3061.00,1.4378
3060.00,1.4594
3059.00,1.4818
3058.00,1.5048
3057.00,1.5283
3056.00,1.5523
3055.00,1.5768
3054.00,1.6018
3053.00,1.6271
3052.00,1.6526
3051.00,1.6779
3050.00,1.7029
3049.00,1.7277
3048.00,1.7524
3047.00,1.7771
3046.00,1.8015
3045.00,1.8255
3044.00,1.8490
3043.00,1.8718
3042.00,1.8939
3041.00,1.9151
3040.00,1.9356
3039.00,1.9554
3038.00,1.9747
3037.00,1.9937
3036.00,2.0126
3035.00,2.0311
3034.00,2.0490
3033.00,2.0659
3032.00,2.0817
3031.00,2.0966
3030.00,2.1106
3029.00,2.1243
3028.00,2.1376
3027.00,2.1504
3026.00,2.1626
3025.00,2.1743
3024.00,2.1860
3023.00,2.1976
3022.00,2.2087
3021.00,2.2186
3020.00,2.2276
3019.00,2.2362
3018.00,2.2449
3017.00,2.2534
3016.00,2.2612
3015.00,2.2681
3014.00,2.2749
3013.00,2.2819
3012.00,2.2890
3011.00,2.2954
3010.00,2.3012
3009.00,2.3072
3008.00,2.3138
3007.00,2.3203
3006.00,2.3259
3005.00,2.3301
3004.00,2.3331
3003.00,2.3352
3002.00,2.3366
3001.00,2.3371
3000.00,2.3366
2999.00,2.3352
2998.00,2.3330
2997.00,2.3301
2996.00,2.3267
2995.00,2.3228
2994.00,2.3185
2993.00,2.3141
2992.00,2.3099
2991.00,2.3059
2990.00,2.3017
2989.00,2.2967
2988.00,2.2904
2987.00,2.2833
2986.00,2.2758
2985.00,2.2684
2984.00,2.2611
2983.00,2.2537
2982.00,2.2456
2981.00,2.2366
2980.00,2.2269
2979.00,2.2172
2978.00,2.2080
2977.00,2.1990
2976.00,2.1904
2975.00,2.1823
2974.00,2.1750
2973.00,2.1688
2972.00,2.1635
2971.00,2.1590
2970.00,2.1556
2969.00,2.1537
2968.00,2.1532
2967.00,2.1537
2966.00,2.1543
2965.00,2.1547
2964.00,2.1550
2963.00,2.1555
2962.00,2.1565
2961.00,2.1584
2960.00,2.1612
2959.00,2.1652
2958.00,2.1706
2957.00,2.1780
2956.00,2.1875
2955.00,2.1989
2954.00,2.2120
2953.00,2.2270
2952.00,2.2438
2951.00,2.2626
2950.00,2.2832
2949.00,2.3055
2948.00,2.3293
2947.00,2.3540
2946.00,2.3781
2945.00,2.3991
2944.00,2.4139
2943.00,2.4198
2942.00,2.4162
2941.00,2.4039
2940.00,2.3847
2939.00,2.3602
2938.00,2.3325
2937.00,2.3034
2936.00,2.2743
2935.00,2.2455
2934.00,2.2165
2933.00,2.1869
2932.00,2.1563
2931.00,2.1254
2930.00,2.0947
2929.00,2.0644
2928.00,2.0342
2927.00,2.0036
2926.00,1.9728
2925.00,1.9419
2924.00,1.9111
2923.00,1.8806
2922.00,1.8505
2921.00,1.8211
2920.00,1.7927
2919.00,1.7658
2918.00,1.7409
2917.00,1.7184
2916.00,1.6988
2915.00,1.6822
2914.00,1.6687
2913.00,1.6583
2912.00,1.6508
2911.00,1.6459
2910.00,1.6436
2909.00,1.6436
2908.00,1.6459
2907.00,1.6504
2906.00,1.6570
2905.00,1.6657
2904.00,1.6764
2903.00,1.6889
2902.00,1.7028
2901.00,1.7181
2900.00,1.7346
2899.00,1.7521
2898.00,1.7706
2897.00,1.7898
2896.00,1.8099
2895.00,1.8306
2894.00,1.8522
2893.00,1.8744
2892.00,1.8972
2891.00,1.9206
2890.00,1.9441
2889.00,1.9676
2888.00,1.9906
2887.00,2.0130
2886.00,2.0349
2885.00,2.0567
2884.00,2.0784
2883.00,2.0998
2882.00,2.1205
2881.00,2.1403
2880.00,2.1593
2879.00,2.1777
2878.00,2.1956
2877.00,2.2131
2876.00,2.2298
2875.00,2.2452
2874.00,2.2590
2873.00,2.2716
2872.00,2.2831
2871.00,2.2935
2870.00,2.3029
2869.00,2.3112
2868.00,2.3178
2867.00,2.3220
2866.00,2.3238
2865.00,2.3241
2864.00,2.3241
2863.00,2.3243
2862.00,2.3247
2861.00,2.3253
2860.00,2.3261
2859.00,2.3270
2858.00,2.3284
2857.00,2.3303
2856.00,2.3323
2855.00,2.3337
2854.00,2.3346
2853.00,2.3359
2852.00,2.3379
2851.00,2.3401
2850.00,2.3415
2849.00,2.3422
2848.00,2.3425
2847.00,2.3433
2846.00,2.3445
2845.00,2.3456
2844.00,2.3463
2843.00,2.3464
2842.00,2.3459
2841.00,2.3446
2840.00,2.3425
2839.00,2.3397
2838.00,2.3364
2837.00,2.3331
2836.00,2.3293
2835.00,2.3247
2834.00,2.3190
2833.00,2.3129
2832.00,2.3068
2831.00,2.3005
2830.00,2.2935
2829.00,2.2856
2828.00,2.2772
2827.00,2.2684
2826.00,2.2591
2825.00,2.2491
2824.00,2.2383
2823.00,2.2267
2822.00,2.2144
2821.00,2.2013
2820.00,2.1878
2819.00,2.1737
2818.00,2.1587
2817.00,2.1425
2816.00,2.1250
2815.00,2.1066
2814.00,2.0876
2813.00,2.0680
2812.00,2.0477
2811.00,2.0263
2810.00,2.0036
2809.00,1.9795
2808.00,1.9541
2807.00,1.9273
2806.00,1.8993
2805.00,1.8702
2804.00,1.8401
2803.00,1.8089
2802.00,1.7765
2801.00,1.7428
2800.00,1.7077
2799.00,1.6713
2798.00,1.6337
2797.00,1.5949
2796.00,1.5553
2795.00,1.5151
2794.00,1.4748
2793.00,1.4346
2792.00,1.3951
2791.00,1.3568
2790.00,1.3201
2789.00,1.2857
2788.00,1.2538
2787.00,1.2249
2786.00,1.1995
2785.00,1.1779
2784.00,1.1605
2783.00,1.1475
2782.00,1.1391
2781.00,1.1355
2780.00,1.1366
2779.00,1.1422
2778.00,1.1524
2777.00,1.1668
2776.00,1.1851
2775.00,1.2067
2774.00,1.2314
2773.00,1.2588
2772.00,1.2884
2771.00,1.3200
2770.00,1.3531
2769.00,1.3874
2768.00,1.4228
2767.00,1.4589
2766.00,1.4956
2765.00,1.5327
2764.00,1.5702
2763.00,1.6078
2762.00,1.6453
2761.00,1.6823
2760.00,1.7188
2759.00,1.7544
2758.00,1.7889
2757.00,1.8224
2756.00,1.8550
2755.00,1.8866
2754.00,1.9171
2753.00,1.9464
2752.00,1.9743
2751.00,2.0009
2750.00,2.0263
2749.00,2.0505
2748.00,2.0735
2747.00,2.0952
2746.00,2.1159
2745.00,2.1363
2744.00,2.1564
2743.00,2.1753
2742.00,2.1927
2741.00,2.2087
2740.00,2.2241
2739.00,2.2389
2738.00,2.2528
2737.00,2.2653
2736.00,2.2773
2735.00,2.2892
2734.00,2.3013
2733.00,2.3129
2732.00,2.3234
2731.00,2.3321
2730.00,2.3396
2729.00,2.3467
2728.00,2.3544
2727.00,2.3625
2726.00,2.3701
2725.00,2.3767
2724.00,2.3823
2723.00,2.3877
2722.00,2.3928
2721.00,2.3976
2720.00,2.4020
2719.00,2.4066
2718.00,2.4115
2717.00,2.4161
2716.00,2.4195
2715.00,2.4212
2714.00,2.4214
2713.00,2.4212
2712.00,2.4208
2711.00,2.4201
2710.00,2.4188
2709.00,2.4170
2708.00,2.4151
2707.00,2.4136
2706.00,2.4122
2705.00,2.4101
2704.00,2.4067
2703.00,2.4023
2702.00,2.3974
2701.00,2.3925
2700.00,2.3875
2699.00,2.3817
2698.00,2.3750
2697.00,2.3676
2696.00,2.3597
2695.00,2.3514
2694.00,2.3425
2693.00,2.3332
2692.00,2.3238
2691.00,2.3140
2690.00,2.3032
2689.00,2.2912
2688.00,2.2780
2687.00,2.2641
2686.00,2.2500
2685.00,2.2351
2684.00,2.2191
2683.00,2.2021
2682.00,2.1846
2681.00,2.1671
2680.00,2.1494
2679.00,2.1310
2678.00,2.1115
2677.00,2.0909
2676.00,2.0693
2675.00,2.0466
2674.00,2.0229
2673.00,1.9981
2672.00,1.9717
2671.00,1.9436
2670.00,1.9134
2669.00,1.8815
2668.00,1.8478
2667.00,1.8123
2666.00,1.7749
2665.00,1.7356
2664.00,1.6946
2663.00,1.6522
2662.00,1.6084
2661.00,1.5639
2660.00,1.5190
2659.00,1.4743
2658.00,1.4302
2657.00,1.3873
2656.00,1.3460
2655.00,1.3070
2654.00,1.2707
2653.00,1.2375
2652.00,1.2079
2651.00,1.1823
2650.00,1.1613
2649.00,1.1452
2648.00,1.1344
2647.00,1.1292
2646.00,1.1299
2645.00,1.1364
2644.00,1.1487
2643.00,1.1664
2642.00,1.1890
2641.00,1.2162
2640.00,1.2473
2639.00,1.2820
2638.00,1.3195
2637.00,1.3595
2636.00,1.4019
2635.00,1.4462
2634.00,1.4920
2633.00,1.5387
2632.00,1.5855
2631.00,1.6311
2630.00,1.6745
2629.00,1.7140
2628.00,1.7489
2627.00,1.7791
2626.00,1.8054
2625.00,1.8297
2624.00,1.8534
2623.00,1.8777
2622.00,1.9033
2621.00,1.9299
2620.00,1.9570
2619.00,1.9844
2618.00,2.0116
2617.00,2.0383
2616.00,2.0643
2615.00,2.0894
2614.00,2.1139
2613.00,2.1380
2612.00,2.1614
2611.00,2.1833
2610.00,2.2039
2609.00,2.2236
2608.00,2.2429
2607.00,2.2618
2606.00,2.2797
2605.00,2.2965
2604.00,2.3124
2603.00,2.3280
2602.00,2.3432
2601.00,2.3577
2600.00,2.3714
2599.00,2.3841
2598.00,2.3956
2597.00,2.4058
2596.00,2.4147
2595.00,2.4232
2594.00,2.4317
2593.00,2.4405
2592.00,2.4487
2591.00,2.4559
2590.00,2.4620
2589.00,2.4676
2588.00,2.4729
2587.00,2.4784
2586.00,2.4844
2585.00,2.4905
2584.00,2.4962
2583.00,2.5013
2582.00,2.5064
2581.00,2.5114
2580.00,2.5151
2579.00,2.5168
2578.00,2.5165
2577.00,2.5154
2576.00,2.5141
2575.00,2.5133
2574.00,2.5132
2573.00,2.5135
2572.00,2.5134
2571.00,2.5124
2570.00,2.5103
2569.00,2.5073
2568.00,2.5032
2567.00,2.4979
2566.00,2.4921
2565.00,2.4866
2564.00,2.4818
2563.00,2.4776
2562.00,2.4733
2561.00,2.4686
2560.00,2.4626
2559.00,2.4550
2558.00,2.4459
2557.00,2.4356
2556.00,2.4246
2555.00,2.4131
2554.00,2.4015
2553.00,2.3905
2552.00,2.3798
2551.00,2.3687
2550.00,2.3564
2549.00,2.3427
2548.00,2.3279
2547.00,2.3121
2546.00,2.2955
2545.00,2.2777
2544.00,2.2590
2543.00,2.2397
2542.00,2.2201
2541.00,2.1999
2540.00,2.1787
2539.00,2.1561
2538.00,2.1319
2537.00,2.1063
2536.00,2.0790
2535.00,2.0501
2534.00,2.0198
2533.00,1.9883
2532.00,1.9553
2531.00,1.9203
2530.00,1.8833
2529.00,1.8443
2528.00,1.8036
2527.00,1.7612
2526.00,1.7174
2525.00,1.6721
2524.00,1.6259
2523.00,1.5789
2522.00,1.5319
2521.00,1.4855
2520.00,1.4404
2519.00,1.3972
2518.00,1.3564
2517.00,1.3186
2516.00,1.2844
2515.00,1.2543
2514.00,1.2289
2513.00,1.2085
2512.00,1.1937
2511.00,1.1847
2510.00,1.1818
2509.00,1.1849
2508.00,1.1939
2507.00,1.2085
2506.00,1.2283
2505.00,1.2528
2504.00,1.2813
2503.00,1.3131
2502.00,1.3475
2501.00,1.3841
2500.00,1.4225
2499.00,1.4625
2498.00,1.5038
2497.00,1.5460
2496.00,1.5888
2495.00,1.6317
2494.00,1.6745
2493.00,1.7172
2492.00,1.7597
2491.00,1.8017
2490.00,1.8430
2489.00,1.8830
2488.00,1.9216
2487.00,1.9587
2486.00,1.9943
2485.00,2.0287
2484.00,2.0617
2483.00,2.0928
2482.00,2.1221
2481.00,2.1500
2480.00,2.1770
2479.00,2.2030
2478.00,2.2278
2477.00,2.2516
2476.00,2.2743
2475.00,2.2954
2474.00,2.3147
2473.00,2.3324
2472.00,2.3495
2471.00,2.3670
2470.00,2.3853
2469.00,2.4037
2468.00,2.4211
2467.00,2.4363
2466.00,2.4493
2465.00,2.4611
2464.00,2.4727
2463.00,2.4842
2462.00,2.4952
2461.00,2.5053
2460.00,2.5150
2459.00,2.5248
2458.00,2.5352
2457.00,2.5465
2456.00,2.5577
2455.00,2.5676
2454.00,2.5755
2453.00,2.5818
2452.00,2.5869
2451.00,2.5908
2450.00,2.5936
2449.00,2.5964
2448.00,2.5999
2447.00,2.6034
2446.00,2.6062
2445.00,2.6086
2444.00,2.6112
2443.00,2.6139
2442.00,2.6155
2441.00,2.6158
2440.00,2.6154
2439.00,2.6153
2438.00,2.6152
2437.00,2.6148
2436.00,2.6138
2435.00,2.6122
2434.00,2.6099
2433.00,2.6070
2432.00,2.6040
2431.00,2.6016
2430.00,2.5998
2429.00,2.5978
2428.00,2.5945
2427.00,2.5892
2426.00,2.5824
2425.00,2.5747
2424.00,2.5666
2423.00,2.5581
2422.00,2.5491
2421.00,2.5405
2420.00,2.5326
2419.00,2.5247
2418.00,2.5158
2417.00,2.5055
2416.00,2.4940
2415.00,2.4821
2414.00,2.4700
2413.00,2.4581
2412.00,2.4467
2411.00,2.4353
2410.00,2.4234
2409.00,2.4108
2408.00,2.3975
2407.00,2.3832
2406.00,2.3673
2405.00,2.3494
2404.00,2.3295
2403.00,2.3079
2402.00,2.2849
2401.00,2.2610
2400.00,2.2362
2399.00,2.2101
2398.00,2.1824
2397.00,2.1534
2396.00,2.1232
2395.00,2.0914
2394.00,2.0577
2393.00,2.0217
2392.00,1.9836
2391.00,1.9437
2390.00,1.9026
2389.00,1.8613
2388.00,1.8211
2387.00,1.7833
2386.00,1.7490
2385.00,1.7197
2384.00,1.6970
2383.00,1.6820
2382.00,1.6752
2381.00,1.6761
2380.00,1.6836
2379.00,1.6953
2378.00,1.7085
2377.00,1.7206
2376.00,1.7299
2375.00,1.7358
2374.00,1.7383
2373.00,1.7386
2372.00,1.7383
2371.00,1.7391
2370.00,1.7419
2369.00,1.7465
2368.00,1.7527
2367.00,1.7608
2366.00,1.7702
2365.00,1.7801
2364.00,1.7910
2363.00,1.8034
2362.00,1.8162
2361.00,1.8307
2360.00,1.8493
2359.00,1.8719
2358.00,1.8972
2357.00,1.9212
2356.00,1.9424
2355.00,1.9617
2354.00,1.9790
2353.00,1.9960
2352.00,2.0161
2351.00,2.0453
2350.00,2.0793
2349.00,2.1075
2348.00,2.1307
2347.00,2.1562
2346.00,2.1886
2345.00,2.2187
2344.00,2.2399
2343.00,2.2581
2342.00,2.2823
2341.00,2.3196
2340.00,2.3648
2339.00,2.4121
2338.00,2.4578
2337.00,2.5020
2336.00,2.5472
2335.00,2.5944
2334.00,2.6438
2333.00,2.6955
2332.00,2.7505
2331.00,2.8077
2330.00,2.8631
2329.00,2.9104
2328.00,2.9494
2327.00,2.9791
2326.00,3.0065
2325.00,3.0354
2324.00,3.0692
2323.00,3.1052
2322.00,3.1362
2321.00,3.1600
2320.00,3.1761
2319.00,3.1876
2318.00,3.1947
2317.00,3.1972
2316.00,3.1955
2315.00,3.1920
2314.00,3.1899
2313.00,3.1892
2312.00,3.1883
2311.00,3.1838
2310.00,3.1760
2309.00,3.1651
2308.00,3.1523
2307.00,3.1356
2306.00,3.1142
2305.00,3.0883
2304.00,3.0609
2303.00,3.0339
2302.00,3.0084
2301.00,2.9847
2300.00,2.9637
2299.00,2.9461
2298.00,2.9331
2297.00,2.9245
2296.00,2.9207
2295.00,2.9208
2294.00,2.9232
2293.00,2.9244
2292.00,2.9208
2291.00,2.9094
2290.00,2.8899
2289.00,2.8644
2288.00,2.8372
2287.00,2.8114
2286.00,2.7883
2285.00,2.7673
2284.00,2.7473
2283.00,2.7269
2282.00,2.7046
2281.00,2.6793
2280.00,2.6509
2279.00,2.6205
2278.00,2.5891
2277.00,2.5568
2276.00,2.5236
2275.00,2.4894
2274.00,2.4540
2273.00,2.4168
2272.00,2.3769
2271.00,2.3333
2270.00,2.2860
2269.00,2.2356
2268.00,2.1840
2267.00,2.1340
2266.00,2.0901
2265.00,2.0584
2264.00,2.0452
2263.00,2.0561
2262.00,2.0956
2261.00,2.1661
2260.00,2.2687
2259.00,2.4032
2258.00,2.5685
2257.00,2.7635
2256.00,2.9865
2255.00,3.2322
2254.00,3.4772
2253.00,3.6469
2252.00,3.6498
2251.00,3.5311
2250.00,3.3916
2249.00,3.2678
2248.00,3.1607
2247.00,3.0644
2246.00,2.9768
2245.00,2.8984
2244.00,2.8289
2243.00,2.7666
2242.00,2.7083
2241.00,2.6507
2240.00,2.5923
2239.00,2.5330
2238.00,2.4730
2237.00,2.4115
2236.00,2.3474
2235.00,2.2805
2234.00,2.2115
2233.00,2.1410
2232.00,2.0691
2231.00,1.9961
2230.00,1.9228
2229.00,1.8502
2228.00,1.7793
2227.00,1.7106
2226.00,1.6451
2225.00,1.5842
2224.00,1.5299
2223.00,1.4839
2222.00,1.4478
2221.00,1.4227
2220.00,1.4094
2219.00,1.4077
2218.00,1.4172
2217.00,1.4368
2216.00,1.4653
2215.00,1.5011
2214.00,1.5429
2213.00,1.5894
2212.00,1.6394
2211.00,1.6921
2210.00,1.7467
2209.00,1.8024
2208.00,1.8587
2207.00,1.9147
2206.00,1.9692
2205.00,2.0207
2204.00,2.0678
2203.00,2.1098
2202.00,2.1470
2201.00,2.1810
2200.00,2.2134
2199.00,2.2457
2198.00,2.2784
2197.00,2.3114
2196.00,2.3434
2195.00,2.3735
2194.00,2.4017
2193.00,2.4286
2192.00,2.4547
2191.00,2.4798
2190.00,2.5038
2189.00,2.5268
2188.00,2.5486
2187.00,2.5686
2186.00,2.5869
2185.00,2.6036
2184.00,2.6192
2183.00,2.6340
2182.00,2.6484
2181.00,2.6629
2180.00,2.6774
2179.00,2.6910
2178.00,2.7035
2177.00,2.7147
2176.00,2.7248
2175.00,2.7335
2174.00,2.7417
2173.00,2.7503
2172.00,2.7595
2171.00,2.7681
2170.00,2.7756
2169.00,2.7830
2168.00,2.7908
2167.00,2.7979
2166.00,2.8028
2165.00,2.8059
2164.00,2.8095
2163.00,2.8143
2162.00,2.8190
2161.00,2.8215
2160.00,2.8213
2159.00,2.8200
2158.00,2.8190
2157.00,2.8185
2156.00,2.8187
2155.00,2.8204
2154.00,2.8231
2153.00,2.8244
2152.00,2.8218
2151.00,2.8162
2150.00,2.8112
2149.00,2.8090
2148.00,2.8077
2147.00,2.8039
2146.00,2.7970
2145.00,2.7896
2144.00,2.7837
2143.00,2.7794
2142.00,2.7755
2141.00,2.7712
2140.00,2.7662
2139.00,2.7598
2138.00,2.7517
2137.00,2.7415
2136.00,2.7293
2135.00,2.7156
2134.00,2.7019
2133.00,2.6895
2132.00,2.6779
2131.00,2.6656
2130.00,2.6521
2129.00,2.6378
2128.00,2.6225
2127.00,2.6052
2126.00,2.5853
2125.00,2.5637
2124.00,2.5417
2123.00,2.5196
2122.00,2.4972
2121.00,2.4746
2120.00,2.4519
2119.00,2.4284
2118.00,2.4031
2117.00,2.3754
2116.00,2.3456
2115.00,2.3138
2114.00,2.2802
2113.00,2.2450
2112.00,2.2079
2111.00,2.1686
2110.00,2.1265
2109.00,2.0818
2108.00,2.0346
2107.00,1.9851
2106.00,1.9333
2105.00,1.8793
2104.00,1.8237
2103.00,1.7670
2102.00,1.7101
2101.00,1.6543
2100.00,1.6006
2099.00,1.5501
2098.00,1.5035
2097.00,1.4618
2096.00,1.4259
2095.00,1.3966
2094.00,1.3747
2093.00,1.3606
2092.00,1.3550
2091.00,1.3578
2090.00,1.3688
2089.00,1.3876
2088.00,1.4135
2087.00,1.4455
2086.00,1.4829
2085.00,1.5247
2084.00,1.5699
2083.00,1.6179
2082.00,1.6679
2081.00,1.7194
2080.00,1.7718
2079.00,1.8247
2078.00,1.8776
2077.00,1.9303
2076.00,1.9821
2075.00,2.0324
2074.00,2.0807
2073.00,2.1268
2072.00,2.1708
2071.00,2.2123
2070.00,2.2509
2069.00,2.2868
2068.00,2.3200
2067.00,2.3515
2066.00,2.3818
2065.00,2.4115
2064.00,2.4400
2063.00,2.4669
2062.00,2.4926
2061.00,2.5178
2060.00,2.5425
2059.00,2.5656
2058.00,2.5862
2057.00,2.6047
2056.00,2.6228
2055.00,2.6415
2054.00,2.6612
2053.00,2.6816
2052.00,2.7018
2051.00,2.7210
2050.00,2.7385
2049.00,2.7541
2048.00,2.7680
2047.00,2.7806
2046.00,2.7924
2045.00,2.8033
2044.00,2.8128
2043.00,2.8211
2042.00,2.8296
2041.00,2.8391
2040.00,2.8492
2039.00,2.8581
2038.00,2.8654
2037.00,2.8726
2036.00,2.8807
2035.00,2.8888
2034.00,2.8949
2033.00,2.8987
2032.00,2.9013
2031.00,2.9039
2030.00,2.9068
2029.00,2.9097
2028.00,2.9126
2027.00,2.9163
2026.00,2.9209
2025.00,2.9250
2024.00,2.9269
2023.00,2.9253
2022.00,2.9210
2021.00,2.9165
2020.00,2.9143
2019.00,2.9158
2018.00,2.9201
2017.00,2.9248
2016.00,2.9268
2015.00,2.9252
2014.00,2.9211
2013.00,2.9166
2012.00,2.9124
2011.00,2.9079
2010.00,2.9022
2009.00,2.8949
2008.00,2.8867
2007.00,2.8788
2006.00,2.8728
2005.00,2.8686
2004.00,2.8640
2003.00,2.8567
2002.00,2.8468
2001.00,2.8362
2000.00,2.8256
1999.00,2.8141
1998.00,2.8010
1997.00,2.7875
1996.00,2.7749
1995.00,2.7626
1994.00,2.7498
1993.00,2.7363
1992.00,2.7220
1991.00,2.7057
1990.00,2.6863
1989.00,2.6656
1988.00,2.6463
1987.00,2.6292
1986.00,2.6115
1985.00,2.5903
1984.00,2.5647
1983.00,2.5366
1982.00,2.5079
1981.00,2.4792
1980.00,2.4502
1979.00,2.4200
1978.00,2.3882
1977.00,2.3542
1976.00,2.3181
1975.00,2.2797
1974.00,2.2388
1973.00,2.1952
1972.00,2.1489
1971.00,2.1000
1970.00,2.0486
1969.00,1.9950
1968.00,1.9394
1967.00,1.8817
1966.00,1.8226
1965.00,1.7630
1964.00,1.7049
1963.00,1.6501
1962.00,1.5999
1961.00,1.5548
1960.00,1.5152
1959.00,1.4820
1958.00,1.4563
1957.00,1.4391
1956.00,1.4308
1955.00,1.4314
1954.00,1.4408
1953.00,1.4587
1952.00,1.4844
1951.00,1.5171
1950.00,1.5555
1949.00,1.5984
1948.00,1.6448
1947.00,1.6940
1946.00,1.7453
1945.00,1.7979
1944.00,1.8517
1943.00,1.9072
1942.00,1.9637
1941.00,2.0187
1940.00,2.0708
1939.00,2.1205
1938.00,2.1695
1937.00,2.2183
1936.00,2.2656
1935.00,2.3101
1934.00,2.3515
1933.00,2.3904
1932.00,2.4273
1931.00,2.4622
1930.00,2.4951
1929.00,2.5263
1928.00,2.5561
1927.00,2.5851
1926.00,2.6128
1925.00,2.6385
1924.00,2.6616
1923.00,2.6828
1922.00,2.7028
1921.00,2.7217
1920.00,2.7408
1919.00,2.7613
1918.00,2.7833
1917.00,2.8038
1916.00,2.8198
1915.00,2.8317
1914.00,2.8431
1913.00,2.8567
1912.00,2.8724
1911.00,2.8875
1910.00,2.9004
1909.00,2.9120
1908.00,2.9243
1907.00,2.9373
1906.00,2.9479
1905.00,2.9539
1904.00,2.9565
1903.00,2.9597
1902.00,2.9660
1901.00,2.9747
1900.00,2.9839
1899.00,2.9920
1898.00,2.9976
1897.00,3.0002
1896.00,3.0019
1895.00,3.0053
1894.00,3.0102
1893.00,3.0136
1892.00,3.0147
1891.00,3.0162
1890.00,3.0210
1889.00,3.0277
1888.00,3.0319
1887.00,3.0316
1886.00,3.0296
1885.00,3.0302
1884.00,3.0357
1883.00,3.0438
1882.00,3.0493
1881.00,3.0480
1880.00,3.0410
1879.00,3.0335
1878.00,3.0301
1877.00,3.0311
1876.00,3.0321
1875.00,3.0281
1874.00,3.0180
1873.00,3.0058
1872.00,2.9963
1871.00,2.9921
1870.00,2.9917
1869.00,2.9901
1868.00,2.9810
1867.00,2.9626
1866.00,2.9404
1865.00,2.9227
1864.00,2.9130
1863.00,2.9085
1862.00,2.9037
1861.00,2.8961
1860.00,2.8869
1859.00,2.8770
1858.00,2.8639
1857.00,2.8455
1856.00,2.8234
1855.00,2.8012
1854.00,2.7817
1853.00,2.7646
1852.00,2.7481
1851.00,2.7293
1850.00,2.7059
1849.00,2.6789
1848.00,2.6505
1847.00,2.6221
1846.00,2.5939
1845.00,2.5655
1844.00,2.5354
1843.00,2.5000
1842.00,2.4573
1841.00,2.4118
1840.00,2.3701
1839.00,2.3330
1838.00,2.2953
1837.00,2.2528
1836.00,2.2053
1835.00,2.1549
1834.00,2.1034
1833.00,2.0514
1832.00,1.9992
1831.00,1.9472
1830.00,1.8953
1829.00,1.8431
1828.00,1.7910
1827.00,1.7429
1826.00,1.7036
1825.00,1.6737
1824.00,1.6495
1823.00,1.6269
1822.00,1.6076
1821.00,1.5977
1820.00,1.6013
1819.00,1.6173
1818.00,1.6427
1817.00,1.6761
1816.00,1.7160
1815.00,1.7604
1814.00,1.8079
1813.00,1.8583
1812.00,1.9120
1811.00,1.9674
1810.00,2.0223
1809.00,2.0755
1808.00,2.1272
1807.00,2.1781
1806.00,2.2282
1805.00,2.2772
1804.00,2.3244
1803.00,2.3704
1802.00,2.4156
1801.00,2.4598
1800.00,2.5011
1799.00,2.5376
1798.00,2.5707
1797.00,2.6025
1796.00,2.6336
1795.00,2.6634
1794.00,2.6922
1793.00,2.7211
1792.00,2.7493
1791.00,2.7736
1790.00,2.7940
1789.00,2.8144
1788.00,2.8374
1787.00,2.8621
1786.00,2.8868
1785.00,2.9105
1784.00,2.9315
1783.00,2.9502
1782.00,2.9693
1781.00,2.9911
1780.00,3.0121
1779.00,3.0258
1778.00,3.0318
1777.00,3.0357
1776.00,3.0421
1775.00,3.0520
1774.00,3.0634
1773.00,3.0738
1772.00,3.0799
1771.00,3.0799
1770.00,3.0795
1769.00,3.0866
1768.00,3.0997
1767.00,3.1109
1766.00,3.1163
1765.00,3.1175
1764.00,3.1189
1763.00,3.1248
1762.00,3.1361
1761.00,3.1488
1760.00,3.1564
1759.00,3.1589
1758.00,3.1637
1757.00,3.1733
1756.00,3.1808
1755.00,3.1783
1754.00,3.1688
1753.00,3.1620
1752.00,3.1617
1751.00,3.1620
1750.00,3.1556
1749.00,3.1406
1748.00,3.1226
1747.00,3.1102
1746.00,3.1071
1745.00,3.1108
1744.00,3.1154
1743.00,3.1161
1742.00,3.1132
1741.00,3.1099
1740.00,3.1062
1739.00,3.0976
1738.00,3.0796
1737.00,3.0547
1736.00,3.0315
1735.00,3.0144
1734.00,3.0009
1733.00,2.9806
1732.00,2.9458
1731.00,2.9118
1730.00,2.8971
1729.00,2.8966
1728.00,2.8947
1727.00,2.8854
1726.00,2.8745
1725.00,2.8701
1724.00,2.8744
1723.00,2.8853
1722.00,2.9021
1721.00,2.9277
1720.00,2.9676
1719.00,3.0263
1718.00,3.1027
1717.00,3.1871
1716.00,3.2668
1715.00,3.3452
1714.00,3.4358
1713.00,3.5389
1712.00,3.6394
1711.00,3.7236
1710.00,3.7894
1709.00,3.8346
1708.00,3.8568
1707.00,3.8702
1706.00,3.8783
1705.00,3.8393
1704.00,3.7319
1703.00,3.6058
1702.00,3.5040
1701.00,3.4315
1700.00,3.3766
1699.00,3.3209
1698.00,3.2501
1697.00,3.1788
1696.00,3.1206
1695.00,3.0696
1694.00,3.0224
1693.00,2.9805
1692.00,2.9477
1691.00,2.9226
1690.00,2.8944
1689.00,2.8563
1688.00,2.8089
1687.00,2.7546
1686.00,2.6930
1685.00,2.6217
1684.00,2.5457
1683.00,2.4710
1682.00,2.4060
1681.00,2.3582
1680.00,2.3212
1679.00,2.2843
1678.00,2.2429
1677.00,2.1972
1676.00,2.1488
1675.00,2.0998
1674.00,2.0508
1673.00,2.0027
1672.00,1.9641
1671.00,1.9444
1670.00,1.9425
1669.00,1.9488
1668.00,1.9571
1667.00,1.9692
1666.00,1.9904
1665.00,2.0239
1664.00,2.0694
1663.00,2.1243
1662.00,2.1821
1661.00,2.2361
1660.00,2.2870
1659.00,2.3391
1658.00,2.3935
1657.00,2.4475
1656.00,2.4978
1655.00,2.5428
1654.00,2.5828
1653.00,2.6182
1652.00,2.6377
1651.00,2.6397
1650.00,2.6524
1649.00,2.6984
1648.00,2.7654
1647.00,2.8237
1646.00,2.8595
1645.00,2.8804
1644.00,2.9014
1643.00,2.9295
1642.00,2.9640
1641.00,2.9979
1640.00,3.0228
1639.00,3.0367
1638.00,3.0433
1637.00,3.0480
1636.00,3.0567
1635.00,3.0718
1634.00,3.0913
1633.00,3.1112
1632.00,3.1281
1631.00,3.1431
1630.00,3.1573
1629.00,3.1734
1628.00,3.1935
1627.00,3.2124
1626.00,3.2222
1625.00,3.2230
1624.00,3.2220
1623.00,3.2243
1622.00,3.2262
1621.00,3.2241
1620.00,3.2224
1619.00,3.2267
1618.00,3.2357
1617.00,3.2410
1616.00,3.2347
1615.00,3.2192
1614.00,3.2106
1613.00,3.2218
1612.00,3.2499
1611.00,3.2827
1610.00,3.3091
1609.00,3.3210
1608.00,3.3162
1607.00,3.3004
1606.00,3.2830
1605.00,3.2702
1604.00,3.2623
1603.00,3.2569
1602.00,3.2536
1601.00,3.2530
1600.00,3.2535
1599.00,3.2525
1598.00,3.2498
1597.00,3.2480
1596.00,3.2474
1595.00,3.2448
1594.00,3.2374
1593.00,3.2272
1592.00,3.2201
1591.00,3.2210
1590.00,3.2301
1589.00,3.2413
1588.00,3.2440
1587.00,3.2319
1586.00,3.2094
1585.00,3.1865
1584.00,3.1687
1583.00,3.1553
1582.00,3.1452
1581.00,3.1382
1580.00,3.1322
1579.00,3.1219
1578.00,3.1018
1577.00,3.0684
1576.00,3.0219
1575.00,2.9706
1574.00,2.9312
1573.00,2.9158
1572.00,2.9184
1571.00,2.9199
1570.00,2.9066
1569.00,2.8777
1568.00,2.8404
1567.00,2.8042
1566.00,2.7740
1565.00,2.7491
1564.00,2.7248
1563.00,2.6977
1562.00,2.6661
1561.00,2.6311
1560.00,2.5889
1559.00,2.5405
1558.00,2.4734
1557.00,2.4011
1556.00,2.3572
1555.00,2.3375
1554.00,2.3268
1553.00,2.3150
1552.00,2.2985
1551.00,2.2829
1550.00,2.2722
1549.00,2.2641
1548.00,2.2556
1547.00,2.2493
1546.00,2.2503
1545.00,2.2598
1544.00,2.2718
1543.00,2.2798
1542.00,2.2852
1541.00,2.2921
1540.00,2.2996
1539.00,2.3060
1538.00,2.3229
1537.00,2.3594
1536.00,2.4138
1535.00,2.4812
1534.00,2.5505
1533.00,2.6079
1532.00,2.6507
1531.00,2.6859
1530.00,2.7226
1529.00,2.7484
1528.00,2.7787
1527.00,2.8197
1526.00,2.8535
1525.00,2.8844
1524.00,2.9077
1523.00,2.9280
1522.00,2.9476
1521.00,2.9648
1520.00,2.9757
1519.00,2.9868
1518.00,3.0084
1517.00,3.0408
1516.00,3.0727
1515.00,3.0973
1514.00,3.1210
1513.00,3.1519
1512.00,3.1882
1511.00,3.2197
1510.00,3.2384
1509.00,3.2459
1508.00,3.2455
1507.00,3.2371
1506.00,3.2185
1505.00,3.2077
1504.00,3.2205
1503.00,3.2545
1502.00,3.3051
1501.00,3.3528
1500.00,3.3793
1499.00,3.3876
1498.00,3.3887
1497.00,3.3873
1496.00,3.3806
1495.00,3.3719
1494.00,3.3711
1493.00,3.3839
1492.00,3.4064
1491.00,3.4290
1490.00,3.4463
1489.00,3.4588
1488.00,3.4722
1487.00,3.4912
1486.00,3.5102
1485.00,3.5211
1484.00,3.5256
1483.00,3.5294
1482.00,3.5325
1481.00,3.5287
1480.00,3.5140
1479.00,3.4953
1478.00,3.4857
1477.00,3.4937
1476.00,3.5165
1475.00,3.5388
1474.00,3.5412
1473.00,3.5213
1472.00,3.4994
1471.00,3.4944
1470.00,3.5074
1469.00,3.5275
1468.00,3.5486
1467.00,3.5700
1466.00,3.5812
1465.00,3.5657
1464.00,3.5299
1463.00,3.5038
1462.00,3.5073
1461.00,3.5339
1460.00,3.5596
1459.00,3.5646
1458.00,3.5510
1457.00,3.5335
1456.00,3.5283
1455.00,3.5516
1454.00,3.6132
1453.00,3.7083
1452.00,3.8051
1451.00,3.8611
1450.00,3.8652
1449.00,3.8323
1448.00,3.7829
1447.00,3.7351
1446.00,3.7000
1445.00,3.6817
1444.00,3.6794
1443.00,3.6909
1442.00,3.7101
1441.00,3.7223
1440.00,3.7156
1439.00,3.6989
1438.00,3.6945
1437.00,3.7120
1436.00,3.7300
1435.00,3.7183
1434.00,3.6839
1433.00,3.6587
1432.00,3.6607
1431.00,3.6809
1430.00,3.6929
1429.00,3.6832
1428.00,3.6645
1427.00,3.6524
1426.00,3.6462
1425.00,3.6341
1424.00,3.6119
1423.00,3.5922
1422.00,3.5904
1421.00,3.6077
1420.00,3.6280
1419.00,3.6320
1418.00,3.6211
1417.00,3.6142
1416.00,3.6224
1415.00,3.6368
1414.00,3.6390
1413.00,3.6210
1412.00,3.5871
1411.00,3.5457
1410.00,3.5051
1409.00,3.4718
1408.00,3.4510
1407.00,3.4442
1406.00,3.4438
1405.00,3.4379
1404.00,3.4222
1403.00,3.3995
1402.00,3.3730
1401.00,3.3447
1400.00,3.3175
1399.00,3.2927
1398.00,3.2674
1397.00,3.2375
1396.00,3.2034
1395.00,3.1702
1394.00,3.1433
1393.00,3.1257
1392.00,3.1166
1391.00,3.1137
1390.00,3.1143
1389.00,3.1169
1388.00,3.1234
1387.00,3.1391
1386.00,3.1673
1385.00,3.2083
1384.00,3.2608
1383.00,3.3220
1382.00,3.3879
1381.00,3.4553
1380.00,3.5269
1379.00,3.6086
1378.00,3.6941
1377.00,3.7535
1376.00,3.7591
1375.00,3.7206
1374.00,3.6605
1373.00,3.5836
1372.00,3.4919
1371.00,3.3958
1370.00,3.3022
1369.00,3.2129
1368.00,3.1306
1367.00,3.0604
1366.00,3.0074
1365.00,2.9733
1364.00,2.9568
1363.00,2.9545
1362.00,2.9617
1361.00,2.9744
1360.00,2.9904
1359.00,3.0106
1358.00,3.0379
1357.00,3.0736
1356.00,3.1151
1355.00,3.1582
1354.00,3.2005
1353.00,3.2396
1352.00,3.2714
1351.00,3.2928
1350.00,3.3062
1349.00,3.3195
1348.00,3.3399
1347.00,3.3662
1346.00,3.3894
1345.00,3.4003
1344.00,3.4009
1343.00,3.4013
1342.00,3.4096
1341.00,3.4278
1340.00,3.4550
1339.00,3.4869
1338.00,3.5115
1337.00,3.5125
1336.00,3.4896
1335.00,3.4646
1334.00,3.4591
1333.00,3.4779
1332.00,3.5131
1331.00,3.5534
1330.00,3.5873
1329.00,3.6044
1328.00,3.6043
1327.00,3.6002
1326.00,3.6057
1325.00,3.6203
1324.00,3.6328
1323.00,3.6365
1322.00,3.6338
1321.00,3.6252
1320.00,3.6082
1319.00,3.5899
1318.00,3.5851
1317.00,3.6015
1316.00,3.6326
1315.00,3.6660
1314.00,3.6941
1313.00,3.7114
1312.00,3.7077
1311.00,3.6792
1310.00,3.6409
1309.00,3.6134
1308.00,3.6052
1307.00,3.6122
1306.00,3.6239
1305.00,3.6306
1304.00,3.6280
1303.00,3.6192
1302.00,3.6111
1301.00,3.6080
1300.00,3.6055
1299.00,3.5965
1298.00,3.5808
1297.00,3.5654
1296.00,3.5610
1295.00,3.5722
1294.00,3.5854
1293.00,3.5759
1292.00,3.5420
1291.00,3.5097
1290.00,3.5013
1289.00,3.5170
1288.00,3.5360
1287.00,3.5325
1286.00,3.5017
1285.00,3.4595
1284.00,3.4210
1283.00,3.3918
1282.00,3.3710
1281.00,3.3543
1280.00,3.3376
1279.00,3.3215
1278.00,3.3093
1277.00,3.3032
1276.00,3.3022
1275.00,3.3022
1274.00,3.2981
1273.00,3.2840
1272.00,3.2555
1271.00,3.2152
1270.00,3.1714
1269.00,3.1314
1268.00,3.0963
1267.00,3.0624
1266.00,3.0261
1265.00,2.9864
1264.00,2.9434
1263.00,2.8961
1262.00,2.8434
1261.00,2.7859
1260.00,2.7254
1259.00,2.6640
1258.00,2.6028
1257.00,2.5428
1256.00,2.4853
1255.00,2.4324
1254.00,2.3865
1253.00,2.3500
1252.00,2.3244
1251.00,2.3106
1250.00,2.3089
1249.00,2.3189
1248.00,2.3404
1247.00,2.3731
1246.00,2.4159
1245.00,2.4673
1244.00,2.5249
1243.00,2.5858
1242.00,2.6468
1241.00,2.7060
1240.00,2.7641
1239.00,2.8228
1238.00,2.8812
1237.00,2.9374
1236.00,2.9909
1235.00,3.0439
1234.00,3.0962
1233.00,3.1439
1232.00,3.1858
1231.00,3.2279
1230.00,3.2773
1229.00,3.3332
1228.00,3.3856
1227.00,3.4225
1226.00,3.4356
1225.00,3.4254
1224.00,3.4037
1223.00,3.3865
1222.00,3.3814
1221.00,3.3839
1220.00,3.3890
1219.00,3.3983
1218.00,3.4140
1217.00,3.4312
1216.00,3.4437
1215.00,3.4572
1214.00,3.4859
1213.00,3.5343
1212.00,3.5843
1211.00,3.6125
1210.00,3.6252
1209.00,3.6393
1208.00,3.6521
1207.00,3.6614
1206.00,3.6767
1205.00,3.7030
1204.00,3.7384
1203.00,3.7789
1202.00,3.8222
1201.00,3.8584
1200.00,3.8662
1199.00,3.8348
1198.00,3.7631
1197.00,3.6814
1196.00,3.6341
1195.00,3.6336
1194.00,3.6574
1193.00,3.6670
1192.00,3.6504
1191.00,3.6343
1190.00,3.6448
1189.00,3.6833
1188.00,3.7332
1187.00,3.7791
1186.00,3.8166
1185.00,3.8380
1184.00,3.8250
1183.00,3.7886
1182.00,3.7714
1181.00,3.7906
1180.00,3.8185
1179.00,3.8256
1178.00,3.8355
1177.00,3.8588
1176.00,3.8617
1175.00,3.8494
1174.00,3.8634
1173.00,3.9064
1172.00,3.9250
1171.00,3.8841
1170.00,3.8208
1169.00,3.7719
1168.00,3.7530
1167.00,3.7473
1166.00,3.7203
1165.00,3.6797
1164.00,3.6675
1163.00,3.7017
1162.00,3.7613
1161.00,3.7976
1160.00,3.7871
1159.00,3.7658
1158.00,3.7613
1157.00,3.7652
1156.00,3.7685
1155.00,3.7784
1154.00,3.7890
1153.00,3.7767
1152.00,3.7539
1151.00,3.7457
1150.00,3.7453
1149.00,3.7419
1148.00,3.7336
1147.00,3.7117
1146.00,3.6803
1145.00,3.6537
1144.00,3.6349
1143.00,3.6180
1142.00,3.5944
1141.00,3.5634
1140.00,3.5359
1139.00,3.5193
1138.00,3.5032
1137.00,3.4658
1136.00,3.4010
1135.00,3.3303
1134.00,3.2759
1133.00,3.2400
1132.00,3.2127
1131.00,3.1887
1130.00,3.1691
1129.00,3.1521
1128.00,3.1317
1127.00,3.1069
1126.00,3.0837
1125.00,3.0698
1124.00,3.0716
1123.00,3.0929
1122.00,3.1308
1121.00,3.1729
1120.00,3.1972
1119.00,3.1864
1118.00,3.1442
1117.00,3.0858
1116.00,3.0236
1115.00,2.9646
1114.00,2.9143
1113.00,2.8777
1112.00,2.8598
1111.00,2.8635
1110.00,2.8880
1109.00,2.9296
1108.00,2.9845
1107.00,3.0507
1106.00,3.1242
1105.00,3.1930
1104.00,3.2414
1103.00,3.2717
1102.00,3.3011
1101.00,3.3431
1100.00,3.4022
1099.00,3.4742
1098.00,3.5520
1097.00,3.6269
1096.00,3.6862
1095.00,3.7179
1094.00,3.7175
1093.00,3.6921
1092.00,3.6597
1091.00,3.6452
1090.00,3.6684
1089.00,3.7322
1088.00,3.8179
1087.00,3.8941
1086.00,3.9439
1085.00,3.9899
1084.00,4.0765
1083.00,4.1981
1082.00,4.2617
1081.00,4.2529
1080.00,4.2016
1079.00,4.1703
1078.00,4.1418
1077.00,4.0248
1076.00,3.9619
1075.00,4.0977
1074.00,4.5884
1073.00,4.3154
1072.00,4.1792
1071.00,4.2471
1070.00,4.3631
1069.00,4.4101
1068.00,4.3355
1067.00,4.2479
1066.00,4.2544
1065.00,4.3332
1064.00,4.3843
1063.00,4.3800
1062.00,4.3722
1061.00,4.3269
1060.00,4.2242
1059.00,4.0710
1058.00,3.9122
1057.00,3.8144
1056.00,3.8097
1055.00,3.8893
1054.00,4.0070
1053.00,4.1248
1052.00,4.1893
1051.00,4.1086
1050.00,4.0385
1049.00,4.0967
1048.00,4.2715
1047.00,4.3032
1046.00,4.1893
1045.00,4.0824
1044.00,4.0187
1043.00,4.0479
1042.00,4.1990
1041.00,4.4354
1040.00,4.5101
1039.00,4.4804
1038.00,4.3474
1037.00,4.1508
1036.00,4.0442
1035.00,4.0409
1034.00,4.1246
1033.00,4.2547
1032.00,4.3252
1031.00,4.3340
1030.00,4.3676
1029.00,4.3059
1028.00,4.1223
1027.00,3.9888
1026.00,3.9595
1025.00,4.0334
1024.00,4.1762
1023.00,4.2971
1022.00,4.3197
1021.00,4.2535
1020.00,4.0913
1019.00,3.8911
1018.00,3.7385
1017.00,3.6676
1016.00,3.6823
1015.00,3.7827
1014.00,3.9831
1013.00,4.3149
1012.00,4.4856
1011.00,4.3015
1010.00,4.1413
1009.00,4.0568
1008.00,4.0727
1007.00,4.1373
1006.00,4.1549
1005.00,4.1340
1004.00,4.1660
1003.00,4.3209
1002.00,4.6738
1001.00,4.9167
1000.00,4.7936
999.00,4.7873
998.00,4.7017
997.00,4.6622
996.00,4.6712
995.00,4.6547
994.00,4.5576
993.00,4.3588
992.00,4.1923
991.00,4.0699
990.00,3.9790
989.00,3.9194
988.00,3.8796
987.00,3.8547
986.00,3.8407
985.00,3.8462
984.00,3.8791
983.00,3.8990
982.00,3.8735
981.00,3.8395
980.00,3.7996
979.00,3.7316
978.00,3.6586
977.00,3.6114
976.00,3.5949
975.00,3.5958
974.00,3.5892
973.00,3.5550
972.00,3.5086
971.00,3.4832
970.00,3.4957
969.00,3.5451
968.00,3.6262
967.00,3.7337
966.00,3.8475
965.00,3.9168
964.00,3.9189
963.00,3.9187
962.00,3.9647
961.00,4.0381
960.00,4.0978
959.00,4.1355
958.00,4.1584
957.00,4.1569
956.00,4.1410
955.00,4.1419
954.00,4.1687
953.00,4.2401
952.00,4.3583
951.00,4.4534
950.00,4.4505
949.00,4.4228
948.00,4.3627
947.00,4.1562
946.00,3.9888
945.00,3.9232
944.00,3.9391
943.00,4.0239
942.00,4.1942
941.00,4.3472
940.00,4.1927
939.00,4.0958
938.00,4.1872
937.00,4.5637
936.00,4.5318
935.00,4.2150
934.00,4.1271
933.00,4.1747
932.00,4.3111
931.00,4.4600
930.00,4.6342
929.00,4.6348
928.00,4.3071
927.00,4.1151
926.00,4.0484
925.00,4.0840
924.00,4.2335
923.00,4.4753
922.00,4.3821
921.00,4.1804
920.00,4.1370
919.00,4.2284
918.00,4.3885
917.00,4.4625
916.00,4.4182
915.00,4.4518
914.00,4.4883
913.00,4.2834
912.00,4.1345
911.00,4.0958
910.00,4.1523
909.00,4.3341
908.00,4.5122
907.00,4.2629
906.00,4.0632
905.00,3.9935
904.00,4.0388
903.00,4.2168
902.00,4.5327
901.00,4.6071
900.00,4.4001
899.00,4.1554
898.00,4.0019
897.00,3.9887
896.00,4.1101
895.00,4.3285
894.00,4.4382
893.00,4.4907
892.00,4.9162
891.00,4.6286
890.00,4.2480
889.00,4.2285
888.00,4.3511
887.00,4.4797
886.00,4.8950
885.00,4.5104
884.00,4.1441
883.00,4.0145
882.00,4.0470
881.00,4.1791
880.00,4.2700
879.00,4.3428
878.00,4.3768
877.00,4.2946
876.00,4.1953
875.00,4.0717
874.00,3.9395
873.00,3.8640
872.00,3.8759
871.00,3.9595
870.00,4.0566
869.00,4.1256
868.00,4.2128
867.00,4.2880
866.00,4.2844
865.00,4.2789
864.00,4.1907
863.00,4.1614
862.00,4.3842
861.00,4.8481
860.00,4.4652
859.00,4.4301
858.00,4.8499
857.00,4.6283
856.00,4.3143
855.00,4.2069
854.00,4.1305
853.00,4.1054
852.00,4.1961
851.00,4.2125
850.00,4.0595
849.00,3.9951
848.00,4.0330
847.00,4.1337
846.00,4.3192
845.00,4.7558
844.00,4.8702
843.00,4.4905
842.00,4.5468
841.00,4.6659
840.00,4.3840
839.00,4.2122
838.00,4.1389
837.00,4.0637
836.00,3.9660
835.00,3.9182
834.00,3.9677
833.00,4.1523
832.00,4.4106
831.00,4.2689
830.00,4.1098
829.00,4.0864
828.00,4.1537
827.00,4.2731
826.00,4.3860
825.00,4.3898
824.00,4.3640
823.00,4.2592
822.00,4.0258
821.00,3.9140
820.00,3.9528
819.00,4.0764
818.00,4.1532
817.00,4.1627
816.00,4.1350
815.00,4.0964
814.00,4.1446
813.00,4.1951
812.00,4.0596
811.00,3.9085
810.00,3.8171
809.00,3.7882
808.00,3.8185
807.00,3.8569
806.00,3.8589
805.00,3.8763
804.00,3.9617
803.00,4.0423
802.00,4.0850
801.00,4.2190
800.00,4.2610
799.00,4.1189
798.00,4.0567
797.00,4.0445
796.00,4.0172
795.00,3.9823
794.00,3.9814
793.00,4.0552
792.00,4.2030
791.00,4.2009
790.00,4.0438
789.00,4.0341
788.00,4.2838
787.00,4.3522
786.00,4.0511
785.00,3.9970
784.00,4.1130
783.00,4.2726
782.00,4.2602
781.00,4.1332
780.00,4.1020
779.00,4.2347
778.00,4.3349
777.00,4.1270
776.00,4.1192
775.00,4.4742
774.00,4.5299
773.00,4.1679
772.00,4.0269
771.00,3.9198
770.00,3.8140
769.00,3.7582
768.00,3.7707
767.00,3.8346
766.00,3.8895
765.00,3.8904
764.00,3.8638
763.00,3.8809
762.00,3.9674
761.00,4.0214
760.00,3.9113
759.00,3.7744
758.00,3.7171
757.00,3.7428
756.00,3.8186
755.00,3.9055
754.00,4.0112
753.00,4.1788
752.00,4.2525
751.00,4.1291
750.00,4.0542
749.00,4.1847
748.00,4.7047
747.00,4.4418
746.00,4.0643
745.00,3.9208
744.00,3.8653
743.00,3.8992
742.00,4.0053
741.00,4.0372
740.00,3.9272
739.00,3.8471
738.00,3.8376
737.00,3.8719
736.00,3.9215
735.00,3.9815
734.00,4.0641
733.00,4.1242
732.00,4.0871
731.00,4.0025
730.00,3.9365
729.00,3.9119
728.00,3.9330
727.00,4.0307
726.00,4.2111
725.00,4.5502
724.00,4.9445
723.00,4.3259
722.00,4.0219
721.00,3.9025
720.00,3.8906
719.00,4.0065
718.00,4.2292
717.00,4.2374
716.00,4.0451
715.00,3.8794
714.00,3.7513
713.00,3.7144
712.00,3.8162
711.00,4.0454
710.00,4.1512
709.00,4.1165
708.00,4.1128
707.00,4.0546
706.00,3.9602
705.00,3.9021
704.00,3.9187
703.00,4.0209
702.00,4.1719
701.00,4.2383
700.00,4.2216
