Created as New Dataset,Sample 013 By Administrator Date Wednesday, November 24 2021
cm-1,A
7502.00,0.4779
7501.00,0.4759
7500.00,0.4734
7499.00,0.4700
7498.00,0.4664
7497.00,0.4633
7496.00,0.4611
7495.00,0.4592
7494.00,0.4575
7493.00,0.4563
7492.00,0.4560
7491.00,0.4568
7490.00,0.4584
7489.00,0.4603
7488.00,0.4623
7487.00,0.4642
7486.00,0.4661
7485.00,0.4681
7484.00,0.4701
7483.00,0.4720
7482.00,0.4742
7481.00,0.4774
7480.00,0.4819
7479.00,0.4875
7478.00,0.4936
7477.00,0.4998
7476.00,0.5063
7475.00,0.5133
7474.00,0.5205
7473.00,0.5278
7472.00,0.5351
7471.00,0.5428
7470.00,0.5510
7469.00,0.5593
7468.00,0.5675
7467.00,0.5756
7466.00,0.5841
7465.00,0.5930
7464.00,0.6016
7463.00,0.6098
7462.00,0.6180
7461.00,0.6268
7460.00,0.6360
7459.00,0.6452
7458.00,0.6541
7457.00,0.6630
7456.00,0.6721
7455.00,0.6814
7454.00,0.6907
7453.00,0.7001
7452.00,0.7096
7451.00,0.7191
7450.00,0.7283
7449.00,0.7375
7448.00,0.7467
7447.00,0.7559
7446.00,0.7650
7445.00,0.7740
7444.00,0.7826
7443.00,0.7910
7442.00,0.7996
7441.00,0.8085
7440.00,0.8175
7439.00,0.8260
7438.00,0.8334
7437.00,0.8397
7436.00,0.8457
7435.00,0.8518
7434.00,0.8583
7433.00,0.8646
7432.00,0.8701
7431.00,0.8752
7430.00,0.8807
7429.00,0.8871
7428.00,0.8936
7427.00,0.8991
7426.00,0.9035
7425.00,0.9077
7424.00,0.9121
7423.00,0.9166
7422.00,0.9203
7421.00,0.9232
7420.00,0.9255
7419.00,0.9277
7418.00,0.9300
7417.00,0.9325
7416.00,0.9345
7415.00,0.9358
7414.00,0.9363
7413.00,0.9367
7412.00,0.9372
7411.00,0.9372
7410.00,0.9361
7409.00,0.9344
7408.00,0.9329
7407.00,0.9323
7406.00,0.9323
7405.00,0.9318
7404.00,0.9304
7403.00,0.9280
7402.00,0.9253
7401.00,0.9225
7400.00,0.9194
7399.00,0.9157
7398.00,0.9112
7397.00,0.9061
7396.00,0.9007
7395.00,0.8951
7394.00,0.8892
7393.00,0.8829
7392.00,0.8762
7391.00,0.8691
7390.00,0.8621
7389.00,0.8553
7388.00,0.8485
7387.00,0.8414
7386.00,0.8341
7385.00,0.8266
7384.00,0.8189
7383.00,0.8107
7382.00,0.8023
7381.00,0.7942
7380.00,0.7862
7379.00,0.7782
7378.00,0.7697
7377.00,0.7608
7376.00,0.7517
7375.00,0.7427
7374.00,0.7340
7373.00,0.7257
7372.00,0.7175
7371.00,0.7096
7370.00,0.7021
7369.00,0.6950
7368.00,0.6880
7367.00,0.6809
7366.00,0.6735
7365.00,0.6662
7364.00,0.6593
7363.00,0.6529
7362.00,0.6471
7361.00,0.6421
7360.00,0.6375
7359.00,0.6332
7358.00,0.6291
7357.00,0.6253
7356.00,0.6219
7355.00,0.6189
7354.00,0.6162
7353.00,0.6139
7352.00,0.6121
7351.00,0.6109
7350.00,0.6104
7349.00,0.6106
7348.00,0.6118
7347.00,0.6136
7346.00,0.6160
7345.00,0.6187
7344.00,0.6217
7343.00,0.6250
7342.00,0.6286
7341.00,0.6323
7340.00,0.6364
7339.00,0.6408
7338.00,0.6456
7337.00,0.6509
7336.00,0.6565
7335.00,0.6626
7334.00,0.6694
7333.00,0.6768
7332.00,0.6845
7331.00,0.6923
7330.00,0.7000
7329.00,0.7080
7328.00,0.7162
7327.00,0.7244
7326.00,0.7324
7325.00,0.7401
7324.00,0.7481
7323.00,0.7564
7322.00,0.7651
7321.00,0.7738
7320.00,0.7826
7319.00,0.7914
7318.00,0.8002
7317.00,0.8091
7316.00,0.8176
7315.00,0.8259
7314.00,0.8342
7313.00,0.8428
7312.00,0.8516
7311.00,0.8600
7310.00,0.8679
7309.00,0.8756
7308.00,0.8834
7307.00,0.8912
7306.00,0.8987
7305.00,0.9058
7304.00,0.9126
7303.00,0.9194
7302.00,0.9265
7301.00,0.9336
7300.00,0.9407
7299.00,0.9473
7298.00,0.9537
7297.00,0.9600
7296.00,0.9662
7295.00,0.9721
7294.00,0.9773
7293.00,0.9818
7292.00,0.9856
7291.00,0.9888
7290.00,0.9915
7289.00,0.9943
7288.00,0.9971
7287.00,0.9998
7286.00,1.0022
7285.00,1.0046
7284.00,1.0072
7283.00,1.0098
7282.00,1.0122
7281.00,1.0140
7280.00,1.0153
7279.00,1.0160
7278.00,1.0161
7277.00,1.0156
7276.00,1.0152
7275.00,1.0148
7274.00,1.0141
7273.00,1.0127
7272.00,1.0109
7271.00,1.0091
7270.00,1.0073
7269.00,1.0053
7268.00,1.0023
7267.00,0.9985
7266.00,0.9946
7265.00,0.9911
7264.00,0.9877
7263.00,0.9842
7262.00,0.9807
7261.00,0.9774
7260.00,0.9744
7259.00,0.9712
7258.00,0.9672
7257.00,0.9621
7256.00,0.9559
7255.00,0.9484
7254.00,0.9399
7253.00,0.9307
7252.00,0.9212
7251.00,0.9120
7250.00,0.9035
7249.00,0.8958
7248.00,0.8886
7247.00,0.8814
7246.00,0.8741
7245.00,0.8665
7244.00,0.8587
7243.00,0.8507
7242.00,0.8424
7241.00,0.8340
7240.00,0.8256
7239.00,0.8174
7238.00,0.8093
7237.00,0.8011
7236.00,0.7927
7235.00,0.7841
7234.00,0.7756
7233.00,0.7673
7232.00,0.7592
7231.00,0.7513
7230.00,0.7437
7229.00,0.7365
7228.00,0.7295
7227.00,0.7228
7226.00,0.7162
7225.00,0.7101
7224.00,0.7046
7223.00,0.6994
7222.00,0.6946
7221.00,0.6900
7220.00,0.6855
7219.00,0.6814
7218.00,0.6778
7217.00,0.6746
7216.00,0.6719
7215.00,0.6698
7214.00,0.6682
7213.00,0.6670
7212.00,0.6663
7211.00,0.6660
7210.00,0.6661
7209.00,0.6666
7208.00,0.6676
7207.00,0.6692
7206.00,0.6716
7205.00,0.6748
7204.00,0.6788
7203.00,0.6831
7202.00,0.6875
7201.00,0.6919
7200.00,0.6966
7199.00,0.7016
7198.00,0.7070
7197.00,0.7128
7196.00,0.7190
7195.00,0.7255
7194.00,0.7327
7193.00,0.7403
7192.00,0.7481
7191.00,0.7558
7190.00,0.7636
7189.00,0.7718
7188.00,0.7802
7187.00,0.7887
7186.00,0.7971
7185.00,0.8054
7184.00,0.8138
7183.00,0.8221
7182.00,0.8305
7181.00,0.8391
7180.00,0.8477
7179.00,0.8564
7178.00,0.8651
7177.00,0.8742
7176.00,0.8836
7175.00,0.8929
7174.00,0.9017
7173.00,0.9101
7172.00,0.9182
7171.00,0.9259
7170.00,0.9334
7169.00,0.9409
7168.00,0.9485
7167.00,0.9561
7166.00,0.9639
7165.00,0.9718
7164.00,0.9797
7163.00,0.9875
7162.00,0.9949
7161.00,1.0020
7160.00,1.0089
7159.00,1.0152
7158.00,1.0209
7157.00,1.0263
7156.00,1.0318
7155.00,1.0373
7154.00,1.0425
7153.00,1.0475
7152.00,1.0526
7151.00,1.0580
7150.00,1.0633
7149.00,1.0679
7148.00,1.0717
7147.00,1.0749
7146.00,1.0778
7145.00,1.0803
7144.00,1.0825
7143.00,1.0845
7142.00,1.0864
7141.00,1.0883
7140.00,1.0900
7139.00,1.0913
7138.00,1.0923
7137.00,1.0932
7136.00,1.0943
7135.00,1.0951
7134.00,1.0952
7133.00,1.0943
7132.00,1.0927
7131.00,1.0908
7130.00,1.0885
7129.00,1.0856
7128.00,1.0822
7127.00,1.0791
7126.00,1.0762
7125.00,1.0733
7124.00,1.0697
7123.00,1.0656
7122.00,1.0613
7121.00,1.0568
7120.00,1.0516
7119.00,1.0456
7118.00,1.0392
7117.00,1.0331
7116.00,1.0272
7115.00,1.0209
7114.00,1.0142
7113.00,1.0072
7112.00,1.0001
7111.00,0.9930
7110.00,0.9854
7109.00,0.9772
7108.00,0.9684
7107.00,0.9591
7106.00,0.9494
7105.00,0.9396
7104.00,0.9301
7103.00,0.9211
7102.00,0.9122
7101.00,0.9030
7100.00,0.8936
7099.00,0.8840
7098.00,0.8749
7097.00,0.8660
7096.00,0.8571
7095.00,0.8479
7094.00,0.8387
7093.00,0.8297
7092.00,0.8210
7091.00,0.8123
7090.00,0.8036
7089.00,0.7953
7088.00,0.7875
7087.00,0.7803
7086.00,0.7735
7085.00,0.7672
7084.00,0.7612
7083.00,0.7556
7082.00,0.7502
7081.00,0.7450
7080.00,0.7403
7079.00,0.7361
7078.00,0.7325
7077.00,0.7295
7076.00,0.7270
7075.00,0.7251
7074.00,0.7237
7073.00,0.7229
7072.00,0.7226
7071.00,0.7228
7070.00,0.7236
7069.00,0.7251
7068.00,0.7271
7067.00,0.7294
7066.00,0.7320
7065.00,0.7352
7064.00,0.7390
7063.00,0.7431
7062.00,0.7474
7061.00,0.7519
7060.00,0.7570
7059.00,0.7627
7058.00,0.7689
7057.00,0.7754
7056.00,0.7822
7055.00,0.7893
7054.00,0.7967
7053.00,0.8044
7052.00,0.8123
7051.00,0.8204
7050.00,0.8285
7049.00,0.8367
7048.00,0.8450
7047.00,0.8535
7046.00,0.8620
7045.00,0.8704
7044.00,0.8788
7043.00,0.8871
7042.00,0.8956
7041.00,0.9042
7040.00,0.9128
7039.00,0.9211
7038.00,0.9292
7037.00,0.9373
7036.00,0.9455
7035.00,0.9536
7034.00,0.9617
7033.00,0.9701
7032.00,0.9787
7031.00,0.9873
7030.00,0.9958
7029.00,1.0038
7028.00,1.0112
7027.00,1.0182
7026.00,1.0248
7025.00,1.0313
7024.00,1.0377
7023.00,1.0441
7022.00,1.0504
7021.00,1.0565
7020.00,1.0625
7019.00,1.0686
7018.00,1.0747
7017.00,1.0802
7016.00,1.0848
7015.00,1.0886
7014.00,1.0920
7013.00,1.0954
7012.00,1.0987
7011.00,1.1016
7010.00,1.1041
7009.00,1.1065
7008.00,1.1094
7007.00,1.1127
7006.00,1.1159
7005.00,1.1184
7004.00,1.1199
7003.00,1.1210
7002.00,1.1218
7001.00,1.1223
7000.00,1.1221
6999.00,1.1211
6998.00,1.1199
6997.00,1.1188
6996.00,1.1177
6995.00,1.1162
6994.00,1.1144
6993.00,1.1123
6992.00,1.1098
6991.00,1.1065
6990.00,1.1026
6989.00,1.0982
6988.00,1.0935
6987.00,1.0881
6986.00,1.0823
6985.00,1.0764
6984.00,1.0709
6983.00,1.0656
6982.00,1.0601
6981.00,1.0543
6980.00,1.0480
6979.00,1.0412
6978.00,1.0337
6977.00,1.0259
6976.00,1.0179
6975.00,1.0096
6974.00,1.0011
6973.00,0.9925
6972.00,0.9841
6971.00,0.9756
6970.00,0.9667
6969.00,0.9577
6968.00,0.9488
6967.00,0.9398
6966.00,0.9304
6965.00,0.9206
6964.00,0.9106
6963.00,0.9008
6962.00,0.8909
6961.00,0.8809
6960.00,0.8709
6959.00,0.8612
6958.00,0.8518
6957.00,0.8427
6956.00,0.8337
6955.00,0.8249
6954.00,0.8164
6953.00,0.8082
6952.00,0.8003
6951.00,0.7925
6950.00,0.7852
6949.00,0.7781
6948.00,0.7713
6947.00,0.7646
6946.00,0.7583
6945.00,0.7525
6944.00,0.7474
6943.00,0.7427
6942.00,0.7384
6941.00,0.7345
6940.00,0.7312
6939.00,0.7286
6938.00,0.7265
6937.00,0.7247
6936.00,0.7233
6935.00,0.7226
6934.00,0.7225
6933.00,0.7229
6932.00,0.7239
6931.00,0.7253
6930.00,0.7273
6929.00,0.7297
6928.00,0.7324
6927.00,0.7355
6926.00,0.7391
6925.00,0.7432
6924.00,0.7478
6923.00,0.7527
6922.00,0.7581
6921.00,0.7638
6920.00,0.7698
6919.00,0.7761
6918.00,0.7827
6917.00,0.7897
6916.00,0.7969
6915.00,0.8045
6914.00,0.8125
6913.00,0.8209
6912.00,0.8293
6911.00,0.8377
6910.00,0.8462
6909.00,0.8549
6908.00,0.8635
6907.00,0.8720
6906.00,0.8807
6905.00,0.8896
6904.00,0.8986
6903.00,0.9077
6902.00,0.9167
6901.00,0.9257
6900.00,0.9349
6899.00,0.9442
6898.00,0.9534
6897.00,0.9626
6896.00,0.9715
6895.00,0.9804
6894.00,0.9895
6893.00,0.9986
6892.00,1.0072
6891.00,1.0152
6890.00,1.0231
6889.00,1.0311
6888.00,1.0390
6887.00,1.0463
6886.00,1.0532
6885.00,1.0601
6884.00,1.0671
6883.00,1.0742
6882.00,1.0812
6881.00,1.0880
6880.00,1.0943
6879.00,1.1001
6878.00,1.1053
6877.00,1.1101
6876.00,1.1146
6875.00,1.1189
6874.00,1.1233
6873.00,1.1278
6872.00,1.1326
6871.00,1.1373
6870.00,1.1418
6869.00,1.1455
6868.00,1.1482
6867.00,1.1501
6866.00,1.1518
6865.00,1.1537
6864.00,1.1557
6863.00,1.1574
6862.00,1.1590
6861.00,1.1604
6860.00,1.1616
6859.00,1.1621
6858.00,1.1615
6857.00,1.1601
6856.00,1.1581
6855.00,1.1561
6854.00,1.1542
6853.00,1.1522
6852.00,1.1500
6851.00,1.1474
6850.00,1.1447
6849.00,1.1418
6848.00,1.1384
6847.00,1.1342
6846.00,1.1296
6845.00,1.1249
6844.00,1.1200
6843.00,1.1145
6842.00,1.1084
6841.00,1.1020
6840.00,1.0954
6839.00,1.0886
6838.00,1.0813
6837.00,1.0737
6836.00,1.0659
6835.00,1.0579
6834.00,1.0495
6833.00,1.0408
6832.00,1.0321
6831.00,1.0234
6830.00,1.0147
6829.00,1.0057
6828.00,0.9964
6827.00,0.9866
6826.00,0.9765
6825.00,0.9663
6824.00,0.9560
6823.00,0.9457
6822.00,0.9356
6821.00,0.9257
6820.00,0.9160
6819.00,0.9063
6818.00,0.8966
6817.00,0.8868
6816.00,0.8771
6815.00,0.8675
6814.00,0.8583
6813.00,0.8494
6812.00,0.8410
6811.00,0.8326
6810.00,0.8243
6809.00,0.8164
6808.00,0.8090
6807.00,0.8019
6806.00,0.7952
6805.00,0.7889
6804.00,0.7832
6803.00,0.7781
6802.00,0.7737
6801.00,0.7698
6800.00,0.7664
6799.00,0.7633
6798.00,0.7608
6797.00,0.7590
6796.00,0.7578
6795.00,0.7571
6794.00,0.7569
6793.00,0.7571
6792.00,0.7580
6791.00,0.7594
6790.00,0.7614
6789.00,0.7640
6788.00,0.7670
6787.00,0.7704
6786.00,0.7743
6785.00,0.7790
6784.00,0.7844
6783.00,0.7903
6782.00,0.7964
6781.00,0.8029
6780.00,0.8097
6779.00,0.8166
6778.00,0.8237
6777.00,0.8309
6776.00,0.8382
6775.00,0.8459
6774.00,0.8539
6773.00,0.8623
6772.00,0.8709
6771.00,0.8797
6770.00,0.8885
6769.00,0.8972
6768.00,0.9059
6767.00,0.9145
6766.00,0.9232
6765.00,0.9321
6764.00,0.9411
6763.00,0.9501
6762.00,0.9590
6761.00,0.9680
6760.00,0.9770
6759.00,0.9859
6758.00,0.9946
6757.00,1.0031
6756.00,1.0115
6755.00,1.0198
6754.00,1.0279
6753.00,1.0357
6752.00,1.0433
6751.00,1.0506
6750.00,1.0578
6749.00,1.0650
6748.00,1.0723
6747.00,1.0795
6746.00,1.0864
6745.00,1.0927
6744.00,1.0985
6743.00,1.1040
6742.00,1.1092
6741.00,1.1142
6740.00,1.1190
6739.00,1.1239
6738.00,1.1287
6737.00,1.1334
6736.00,1.1376
6735.00,1.1411
6734.00,1.1444
6733.00,1.1477
6732.00,1.1509
6731.00,1.1540
6730.00,1.1569
6729.00,1.1594
6728.00,1.1612
6727.00,1.1622
6726.00,1.1626
6725.00,1.1626
6724.00,1.1623
6723.00,1.1617
6722.00,1.1610
6721.00,1.1604
6720.00,1.1597
6719.00,1.1587
6718.00,1.1570
6717.00,1.1547
6716.00,1.1522
6715.00,1.1495
6714.00,1.1464
6713.00,1.1428
6712.00,1.1387
6711.00,1.1342
6710.00,1.1296
6709.00,1.1249
6708.00,1.1197
6707.00,1.1136
6706.00,1.1071
6705.00,1.1005
6704.00,1.0940
6703.00,1.0870
6702.00,1.0792
6701.00,1.0709
6700.00,1.0626
6699.00,1.0546
6698.00,1.0465
6697.00,1.0379
6696.00,1.0292
6695.00,1.0205
6694.00,1.0117
6693.00,1.0025
6692.00,0.9926
6691.00,0.9825
6690.00,0.9722
6689.00,0.9618
6688.00,0.9515
6687.00,0.9413
6686.00,0.9313
6685.00,0.9213
6684.00,0.9113
6683.00,0.9014
6682.00,0.8917
6681.00,0.8822
6680.00,0.8728
6679.00,0.8635
6678.00,0.8544
6677.00,0.8455
6676.00,0.8366
6675.00,0.8279
6674.00,0.8193
6673.00,0.8112
6672.00,0.8034
6671.00,0.7960
6670.00,0.7892
6669.00,0.7830
6668.00,0.7772
6667.00,0.7717
6666.00,0.7665
6665.00,0.7616
6664.00,0.7571
6663.00,0.7531
6662.00,0.7496
6661.00,0.7467
6660.00,0.7444
6659.00,0.7426
6658.00,0.7413
6657.00,0.7407
6656.00,0.7406
6655.00,0.7408
6654.00,0.7415
6653.00,0.7428
6652.00,0.7449
6651.00,0.7475
6650.00,0.7506
6649.00,0.7543
6648.00,0.7586
6647.00,0.7633
6646.00,0.7685
6645.00,0.7739
6644.00,0.7798
6643.00,0.7861
6642.00,0.7928
6641.00,0.8000
6640.00,0.8075
6639.00,0.8152
6638.00,0.8231
6637.00,0.8312
6636.00,0.8396
6635.00,0.8482
6634.00,0.8571
6633.00,0.8661
6632.00,0.8750
6631.00,0.8841
6630.00,0.8933
6629.00,0.9026
6628.00,0.9120
6627.00,0.9213
6626.00,0.9306
6625.00,0.9401
6624.00,0.9496
6623.00,0.9591
6622.00,0.9683
6621.00,0.9773
6620.00,0.9863
6619.00,0.9955
6618.00,1.0047
6617.00,1.0139
6616.00,1.0229
6615.00,1.0318
6614.00,1.0405
6613.00,1.0490
6612.00,1.0571
6611.00,1.0647
6610.00,1.0721
6609.00,1.0795
6608.00,1.0867
6607.00,1.0940
6606.00,1.1013
6605.00,1.1087
6604.00,1.1158
6603.00,1.1221
6602.00,1.1279
6601.00,1.1335
6600.00,1.1392
6599.00,1.1447
6598.00,1.1499
6597.00,1.1547
6596.00,1.1594
6595.00,1.1637
6594.00,1.1674
6593.00,1.1704
6592.00,1.1730
6591.00,1.1755
6590.00,1.1781
6589.00,1.1806
6588.00,1.1830
6587.00,1.1851
6586.00,1.1868
6585.00,1.1880
6584.00,1.1887
6583.00,1.1887
6582.00,1.1884
6581.00,1.1879
6580.00,1.1871
6579.00,1.1860
6578.00,1.1849
6577.00,1.1837
6576.00,1.1820
6575.00,1.1796
6574.00,1.1763
6573.00,1.1727
6572.00,1.1691
6571.00,1.1651
6570.00,1.1607
6569.00,1.1560
6568.00,1.1513
6567.00,1.1464
6566.00,1.1409
6565.00,1.1347
6564.00,1.1277
6563.00,1.1204
6562.00,1.1130
6561.00,1.1055
6560.00,1.0979
6559.00,1.0901
6558.00,1.0820
6557.00,1.0735
6556.00,1.0646
6555.00,1.0552
6554.00,1.0454
6553.00,1.0354
6552.00,1.0251
6551.00,1.0148
6550.00,1.0044
6549.00,0.9941
6548.00,0.9838
6547.00,0.9733
6546.00,0.9627
6545.00,0.9520
6544.00,0.9414
6543.00,0.9308
6542.00,0.9202
6541.00,0.9095
6540.00,0.8987
6539.00,0.8882
6538.00,0.8780
6537.00,0.8680
6536.00,0.8583
6535.00,0.8486
6534.00,0.8394
6533.00,0.8307
6532.00,0.8224
6531.00,0.8142
6530.00,0.8063
6529.00,0.7988
6528.00,0.7920
6527.00,0.7858
6526.00,0.7802
6525.00,0.7751
6524.00,0.7705
6523.00,0.7666
6522.00,0.7632
6521.00,0.7604
6520.00,0.7580
6519.00,0.7562
6518.00,0.7550
6517.00,0.7545
6516.00,0.7547
6515.00,0.7556
6514.00,0.7570
6513.00,0.7590
6512.00,0.7616
6511.00,0.7647
6510.00,0.7685
6509.00,0.7729
6508.00,0.7778
6507.00,0.7830
6506.00,0.7886
6505.00,0.7947
6504.00,0.8012
6503.00,0.8079
6502.00,0.8150
6501.00,0.8226
6500.00,0.8305
6499.00,0.8388
6498.00,0.8473
6497.00,0.8559
6496.00,0.8647
6495.00,0.8734
6494.00,0.8824
6493.00,0.8915
6492.00,0.9007
6491.00,0.9100
6490.00,0.9195
6489.00,0.9290
6488.00,0.9384
6487.00,0.9477
6486.00,0.9569
6485.00,0.9661
6484.00,0.9751
6483.00,0.9842
6482.00,0.9935
6481.00,1.0028
6480.00,1.0119
6479.00,1.0206
6478.00,1.0291
6477.00,1.0375
6476.00,1.0458
6475.00,1.0538
6474.00,1.0618
6473.00,1.0698
6472.00,1.0774
6471.00,1.0847
6470.00,1.0916
6469.00,1.0983
6468.00,1.1049
6467.00,1.1112
6466.00,1.1175
6465.00,1.1237
6464.00,1.1296
6463.00,1.1352
6462.00,1.1403
6461.00,1.1454
6460.00,1.1504
6459.00,1.1551
6458.00,1.1593
6457.00,1.1628
6456.00,1.1657
6455.00,1.1682
6454.00,1.1706
6453.00,1.1729
6452.00,1.1751
6451.00,1.1770
6450.00,1.1788
6449.00,1.1805
6448.00,1.1814
6447.00,1.1814
6446.00,1.1805
6445.00,1.1795
6444.00,1.1785
6443.00,1.1772
6442.00,1.1755
6441.00,1.1733
6440.00,1.1710
6439.00,1.1686
6438.00,1.1657
6437.00,1.1624
6436.00,1.1587
6435.00,1.1546
6434.00,1.1505
6433.00,1.1462
6432.00,1.1415
6431.00,1.1363
6430.00,1.1305
6429.00,1.1243
6428.00,1.1177
6427.00,1.1109
6426.00,1.1037
6425.00,1.0962
6424.00,1.0884
6423.00,1.0805
6422.00,1.0725
6421.00,1.0643
6420.00,1.0558
6419.00,1.0468
6418.00,1.0375
6417.00,1.0282
6416.00,1.0189
6415.00,1.0094
6414.00,0.9996
6413.00,0.9898
6412.00,0.9800
6411.00,0.9702
6410.00,0.9600
6409.00,0.9495
6408.00,0.9388
6407.00,0.9282
6406.00,0.9177
6405.00,0.9073
6404.00,0.8970
6403.00,0.8868
6402.00,0.8767
6401.00,0.8668
6400.00,0.8568
6399.00,0.8466
6398.00,0.8365
6397.00,0.8268
6396.00,0.8174
6395.00,0.8084
6394.00,0.8000
6393.00,0.7920
6392.00,0.7846
6391.00,0.7775
6390.00,0.7708
6389.00,0.7645
6388.00,0.7585
6387.00,0.7529
6386.00,0.7478
6385.00,0.7434
6384.00,0.7397
6383.00,0.7368
6382.00,0.7346
6381.00,0.7331
6380.00,0.7322
6379.00,0.7318
6378.00,0.7320
6377.00,0.7326
6376.00,0.7338
6375.00,0.7355
6374.00,0.7379
6373.00,0.7411
6372.00,0.7450
6371.00,0.7494
6370.00,0.7544
6369.00,0.7599
6368.00,0.7658
6367.00,0.7720
6366.00,0.7785
6365.00,0.7854
6364.00,0.7928
6363.00,0.8006
6362.00,0.8088
6361.00,0.8173
6360.00,0.8260
6359.00,0.8349
6358.00,0.8440
6357.00,0.8533
6356.00,0.8627
6355.00,0.8723
6354.00,0.8821
6353.00,0.8921
6352.00,0.9023
6351.00,0.9123
6350.00,0.9222
6349.00,0.9320
6348.00,0.9418
6347.00,0.9514
6346.00,0.9610
6345.00,0.9707
6344.00,0.9804
6343.00,0.9901
6342.00,0.9997
6341.00,1.0092
6340.00,1.0186
6339.00,1.0278
6338.00,1.0370
6337.00,1.0462
6336.00,1.0553
6335.00,1.0642
6334.00,1.0728
6333.00,1.0812
6332.00,1.0892
6331.00,1.0969
6330.00,1.1043
6329.00,1.1115
6328.00,1.1185
6327.00,1.1252
6326.00,1.1313
6325.00,1.1370
6324.00,1.1422
6323.00,1.1471
6322.00,1.1517
6321.00,1.1560
6320.00,1.1601
6319.00,1.1639
6318.00,1.1678
6317.00,1.1719
6316.00,1.1759
6315.00,1.1797
6314.00,1.1833
6313.00,1.1865
6312.00,1.1891
6311.00,1.1911
6310.00,1.1926
6309.00,1.1937
6308.00,1.1944
6307.00,1.1950
6306.00,1.1957
6305.00,1.1961
6304.00,1.1959
6303.00,1.1950
6302.00,1.1935
6301.00,1.1917
6300.00,1.1894
6299.00,1.1865
6298.00,1.1835
6297.00,1.1805
6296.00,1.1774
6295.00,1.1737
6294.00,1.1693
6293.00,1.1645
6292.00,1.1596
6291.00,1.1543
6290.00,1.1486
6289.00,1.1424
6288.00,1.1358
6287.00,1.1290
6286.00,1.1219
6285.00,1.1146
6284.00,1.1068
6283.00,1.0986
6282.00,1.0900
6281.00,1.0811
6280.00,1.0717
6279.00,1.0619
6278.00,1.0519
6277.00,1.0418
6276.00,1.0316
6275.00,1.0212
6274.00,1.0106
6273.00,0.9998
6272.00,0.9886
6271.00,0.9771
6270.00,0.9654
6269.00,0.9537
6268.00,0.9421
6267.00,0.9305
6266.00,0.9188
6265.00,0.9074
6264.00,0.8960
6263.00,0.8848
6262.00,0.8738
6261.00,0.8629
6260.00,0.8525
6259.00,0.8422
6258.00,0.8320
6257.00,0.8221
6256.00,0.8125
6255.00,0.8033
6254.00,0.7944
6253.00,0.7859
6252.00,0.7779
6251.00,0.7706
6250.00,0.7639
6249.00,0.7578
6248.00,0.7520
6247.00,0.7467
6246.00,0.7420
6245.00,0.7380
6244.00,0.7347
6243.00,0.7319
6242.00,0.7299
6241.00,0.7287
6240.00,0.7282
6239.00,0.7283
6238.00,0.7291
6237.00,0.7305
6236.00,0.7326
6235.00,0.7353
6234.00,0.7386
6233.00,0.7426
6232.00,0.7471
6231.00,0.7522
6230.00,0.7578
6229.00,0.7640
6228.00,0.7706
6227.00,0.7774
6226.00,0.7847
6225.00,0.7923
6224.00,0.8004
6223.00,0.8087
6222.00,0.8174
6221.00,0.8263
6220.00,0.8354
6219.00,0.8446
6218.00,0.8539
6217.00,0.8634
6216.00,0.8730
6215.00,0.8826
6214.00,0.8925
6213.00,0.9027
6212.00,0.9130
6211.00,0.9233
6210.00,0.9334
6209.00,0.9433
6208.00,0.9532
6207.00,0.9629
6206.00,0.9723
6205.00,0.9817
6204.00,0.9911
6203.00,1.0006
6202.00,1.0102
6201.00,1.0195
6200.00,1.0284
6199.00,1.0369
6198.00,1.0452
6197.00,1.0535
6196.00,1.0618
6195.00,1.0702
6194.00,1.0785
6193.00,1.0868
6192.00,1.0947
6191.00,1.1021
6190.00,1.1088
6189.00,1.1151
6188.00,1.1211
6187.00,1.1268
6186.00,1.1324
6185.00,1.1378
6184.00,1.1431
6183.00,1.1481
6182.00,1.1528
6181.00,1.1573
6180.00,1.1616
6179.00,1.1656
6178.00,1.1690
6177.00,1.1719
6176.00,1.1742
6175.00,1.1760
6174.00,1.1774
6173.00,1.1785
6172.00,1.1793
6171.00,1.1800
6170.00,1.1803
6169.00,1.1804
6168.00,1.1803
6167.00,1.1800
6166.00,1.1791
6165.00,1.1778
6164.00,1.1762
6163.00,1.1742
6162.00,1.1719
6161.00,1.1690
6160.00,1.1656
6159.00,1.1618
6158.00,1.1577
6157.00,1.1531
6156.00,1.1480
6155.00,1.1425
6154.00,1.1369
6153.00,1.1312
6152.00,1.1254
6151.00,1.1196
6150.00,1.1133
6149.00,1.1066
6148.00,1.0993
6147.00,1.0914
6146.00,1.0828
6145.00,1.0739
6144.00,1.0648
6143.00,1.0558
6142.00,1.0467
6141.00,1.0374
6140.00,1.0277
6139.00,1.0177
6138.00,1.0075
6137.00,0.9970
6136.00,0.9862
6135.00,0.9754
6134.00,0.9646
6133.00,0.9537
6132.00,0.9427
6131.00,0.9316
6130.00,0.9205
6129.00,0.9093
6128.00,0.8979
6127.00,0.8864
6126.00,0.8748
6125.00,0.8633
6124.00,0.8519
6123.00,0.8408
6122.00,0.8299
6121.00,0.8193
6120.00,0.8091
6119.00,0.7991
6118.00,0.7895
6117.00,0.7802
6116.00,0.7711
6115.00,0.7624
6114.00,0.7542
6113.00,0.7467
6112.00,0.7399
6111.00,0.7336
6110.00,0.7280
6109.00,0.7228
6108.00,0.7182
6107.00,0.7139
6106.00,0.7103
6105.00,0.7074
6104.00,0.7053
6103.00,0.7041
6102.00,0.7036
6101.00,0.7038
6100.00,0.7045
6099.00,0.7058
6098.00,0.7078
6097.00,0.7106
6096.00,0.7139
6095.00,0.7177
6094.00,0.7221
6093.00,0.7272
6092.00,0.7328
6091.00,0.7390
6090.00,0.7457
6089.00,0.7529
6088.00,0.7607
6087.00,0.7687
6086.00,0.7771
6085.00,0.7858
6084.00,0.7949
6083.00,0.8041
6082.00,0.8136
6081.00,0.8233
6080.00,0.8331
6079.00,0.8431
6078.00,0.8532
6077.00,0.8636
6076.00,0.8739
6075.00,0.8843
6074.00,0.8947
6073.00,0.9051
6072.00,0.9156
6071.00,0.9262
6070.00,0.9369
6069.00,0.9477
6068.00,0.9583
6067.00,0.9683
6066.00,0.9779
6065.00,0.9875
6064.00,0.9971
6063.00,1.0068
6062.00,1.0164
6061.00,1.0260
6060.00,1.0356
6059.00,1.0450
6058.00,1.0540
6057.00,1.0628
6056.00,1.0714
6055.00,1.0799
6054.00,1.0882
6053.00,1.0959
6052.00,1.1032
6051.00,1.1103
6050.00,1.1174
6049.00,1.1244
6048.00,1.1313
6047.00,1.1377
6046.00,1.1437
6045.00,1.1492
6044.00,1.1541
6043.00,1.1585
6042.00,1.1628
6041.00,1.1672
6040.00,1.1718
6039.00,1.1764
6038.00,1.1805
6037.00,1.1840
6036.00,1.1867
6035.00,1.1889
6034.00,1.1907
6033.00,1.1922
6032.00,1.1935
6031.00,1.1945
6030.00,1.1954
6029.00,1.1959
6028.00,1.1958
6027.00,1.1949
6026.00,1.1937
6025.00,1.1922
6024.00,1.1905
6023.00,1.1883
6022.00,1.1855
6021.00,1.1825
6020.00,1.1792
6019.00,1.1755
6018.00,1.1711
6017.00,1.1663
6016.00,1.1613
6015.00,1.1560
6014.00,1.1503
6013.00,1.1442
6012.00,1.1379
6011.00,1.1313
6010.00,1.1244
6009.00,1.1170
6008.00,1.1092
6007.00,1.1011
6006.00,1.0926
6005.00,1.0838
6004.00,1.0747
6003.00,1.0652
6002.00,1.0554
6001.00,1.0451
6000.00,1.0344
5999.00,1.0234
5998.00,1.0122
5997.00,1.0008
5996.00,0.9893
5995.00,0.9777
5994.00,0.9658
5993.00,0.9537
5992.00,0.9415
5991.00,0.9292
5990.00,0.9168
5989.00,0.9044
5988.00,0.8920
5987.00,0.8798
5986.00,0.8676
5985.00,0.8556
5984.00,0.8436
5983.00,0.8318
5982.00,0.8204
5981.00,0.8094
5980.00,0.7988
5979.00,0.7886
5978.00,0.7787
5977.00,0.7694
5976.00,0.7605
5975.00,0.7521
5974.00,0.7443
5973.00,0.7371
5972.00,0.7306
5971.00,0.7248
5970.00,0.7197
5969.00,0.7154
5968.00,0.7118
5967.00,0.7090
5966.00,0.7071
5965.00,0.7061
5964.00,0.7059
5963.00,0.7065
5962.00,0.7080
5961.00,0.7103
5960.00,0.7133
5959.00,0.7170
5958.00,0.7212
5957.00,0.7260
5956.00,0.7312
5955.00,0.7367
5954.00,0.7425
5953.00,0.7485
5952.00,0.7547
5951.00,0.7610
5950.00,0.7677
5949.00,0.7746
5948.00,0.7817
5947.00,0.7889
5946.00,0.7964
5945.00,0.8043
5944.00,0.8126
5943.00,0.8211
5942.00,0.8299
5941.00,0.8392
5940.00,0.8486
5939.00,0.8582
5938.00,0.8679
5937.00,0.8780
5936.00,0.8882
5935.00,0.8986
5934.00,0.9090
5933.00,0.9195
5932.00,0.9300
5931.00,0.9405
5930.00,0.9510
5929.00,0.9616
5928.00,0.9720
5927.00,0.9823
5926.00,0.9922
5925.00,1.0019
5924.00,1.0116
5923.00,1.0212
5922.00,1.0307
5921.00,1.0402
5920.00,1.0497
5919.00,1.0591
5918.00,1.0682
5917.00,1.0771
5916.00,1.0858
5915.00,1.0939
5914.00,1.1018
5913.00,1.1094
5912.00,1.1167
5911.00,1.1236
5910.00,1.1301
5909.00,1.1365
5908.00,1.1430
5907.00,1.1493
5906.00,1.1552
5905.00,1.1608
5904.00,1.1662
5903.00,1.1712
5902.00,1.1756
5901.00,1.1794
5900.00,1.1830
5899.00,1.1866
5898.00,1.1899
5897.00,1.1926
5896.00,1.1947
5895.00,1.1960
5894.00,1.1970
5893.00,1.1978
5892.00,1.1983
5891.00,1.1989
5890.00,1.1994
5889.00,1.1997
5888.00,1.1995
5887.00,1.1985
5886.00,1.1968
5885.00,1.1947
5884.00,1.1924
5883.00,1.1898
5882.00,1.1868
5881.00,1.1831
5880.00,1.1788
5879.00,1.1739
5878.00,1.1686
5877.00,1.1632
5876.00,1.1577
5875.00,1.1520
5874.00,1.1461
5873.00,1.1397
5872.00,1.1328
5871.00,1.1253
5870.00,1.1174
5869.00,1.1091
5868.00,1.1004
5867.00,1.0913
5866.00,1.0817
5865.00,1.0718
5864.00,1.0617
5863.00,1.0513
5862.00,1.0407
5861.00,1.0298
5860.00,1.0187
5859.00,1.0075
5858.00,0.9959
5857.00,0.9842
5856.00,0.9723
5855.00,0.9602
5854.00,0.9480
5853.00,0.9356
5852.00,0.9231
5851.00,0.9105
5850.00,0.8979
5849.00,0.8855
5848.00,0.8733
5847.00,0.8613
5846.00,0.8496
5845.00,0.8381
5844.00,0.8269
5843.00,0.8159
5842.00,0.8052
5841.00,0.7949
5840.00,0.7850
5839.00,0.7756
5838.00,0.7668
5837.00,0.7585
5836.00,0.7507
5835.00,0.7433
5834.00,0.7364
5833.00,0.7300
5832.00,0.7241
5831.00,0.7187
5830.00,0.7139
5829.00,0.7097
5828.00,0.7063
5827.00,0.7036
5826.00,0.7015
5825.00,0.7001
5824.00,0.6994
5823.00,0.6994
5822.00,0.7000
5821.00,0.7014
5820.00,0.7034
5819.00,0.7061
5818.00,0.7095
5817.00,0.7135
5816.00,0.7182
5815.00,0.7234
5814.00,0.7293
5813.00,0.7358
5812.00,0.7429
5811.00,0.7503
5810.00,0.7582
5809.00,0.7665
5808.00,0.7754
5807.00,0.7845
5806.00,0.7939
5805.00,0.8034
5804.00,0.8131
5803.00,0.8230
5802.00,0.8330
5801.00,0.8433
5800.00,0.8538
5799.00,0.8646
5798.00,0.8754
5797.00,0.8862
5796.00,0.8968
5795.00,0.9074
5794.00,0.9180
5793.00,0.9288
5792.00,0.9396
5791.00,0.9503
5790.00,0.9610
5789.00,0.9715
5788.00,0.9819
5787.00,0.9920
5786.00,1.0020
5785.00,1.0120
5784.00,1.0221
5783.00,1.0320
5782.00,1.0417
5781.00,1.0511
5780.00,1.0603
5779.00,1.0692
5778.00,1.0779
5777.00,1.0864
5776.00,1.0948
5775.00,1.1030
5774.00,1.1109
5773.00,1.1184
5772.00,1.1256
5771.00,1.1327
5770.00,1.1398
5769.00,1.1468
5768.00,1.1536
5767.00,1.1600
5766.00,1.1660
5765.00,1.1716
5764.00,1.1768
5763.00,1.1816
5762.00,1.1862
5761.00,1.1902
5760.00,1.1938
5759.00,1.1967
5758.00,1.1991
5757.00,1.2011
5756.00,1.2031
5755.00,1.2050
5754.00,1.2069
5753.00,1.2083
5752.00,1.2090
5751.00,1.2092
5750.00,1.2089
5749.00,1.2083
5748.00,1.2073
5747.00,1.2060
5746.00,1.2042
5745.00,1.2018
5744.00,1.1988
5743.00,1.1952
5742.00,1.1911
5741.00,1.1870
5740.00,1.1827
5739.00,1.1783
5738.00,1.1734
5737.00,1.1680
5736.00,1.1621
5735.00,1.1558
5734.00,1.1490
5733.00,1.1419
5732.00,1.1343
5731.00,1.1263
5730.00,1.1178
5729.00,1.1089
5728.00,1.0997
5727.00,1.0902
5726.00,1.0804
5725.00,1.0704
5724.00,1.0600
5723.00,1.0494
5722.00,1.0383
5721.00,1.0268
5720.00,1.0149
5719.00,1.0027
5718.00,0.9902
5717.00,0.9775
5716.00,0.9647
5715.00,0.9517
5714.00,0.9387
5713.00,0.9256
5712.00,0.9125
5711.00,0.8993
5710.00,0.8861
5709.00,0.8729
5708.00,0.8599
5707.00,0.8471
5706.00,0.8345
5705.00,0.8220
5704.00,0.8098
5703.00,0.7979
5702.00,0.7864
5701.00,0.7754
5700.00,0.7647
5699.00,0.7545
5698.00,0.7448
5697.00,0.7357
5696.00,0.7271
5695.00,0.7191
5694.00,0.7118
5693.00,0.7053
5692.00,0.6994
5691.00,0.6943
5690.00,0.6899
5689.00,0.6864
5688.00,0.6837
5687.00,0.6819
5686.00,0.6809
5685.00,0.6807
5684.00,0.6813
5683.00,0.6827
5682.00,0.6850
5681.00,0.6881
5680.00,0.6920
5679.00,0.6966
5678.00,0.7019
5677.00,0.7079
5676.00,0.7145
5675.00,0.7217
5674.00,0.7294
5673.00,0.7376
5672.00,0.7463
5671.00,0.7554
5670.00,0.7649
5669.00,0.7747
5668.00,0.7848
5667.00,0.7951
5666.00,0.8057
5665.00,0.8165
5664.00,0.8276
5663.00,0.8389
5662.00,0.8503
5661.00,0.8619
5660.00,0.8736
5659.00,0.8852
5658.00,0.8969
5657.00,0.9085
5656.00,0.9200
5655.00,0.9315
5654.00,0.9430
5653.00,0.9544
5652.00,0.9657
5651.00,0.9770
5650.00,0.9883
5649.00,0.9996
5648.00,1.0107
5647.00,1.0215
5646.00,1.0321
5645.00,1.0426
5644.00,1.0529
5643.00,1.0629
5642.00,1.0728
5641.00,1.0826
5640.00,1.0921
5639.00,1.1011
5638.00,1.1099
5637.00,1.1184
5636.00,1.1267
5635.00,1.1347
5634.00,1.1422
5633.00,1.1494
5632.00,1.1562
5631.00,1.1626
5630.00,1.1687
5629.00,1.1746
5628.00,1.1806
5627.00,1.1864
5626.00,1.1919
5625.00,1.1969
5624.00,1.2015
5623.00,1.2057
5622.00,1.2094
5621.00,1.2126
5620.00,1.2154
5619.00,1.2177
5618.00,1.2193
5617.00,1.2205
5616.00,1.2215
5615.00,1.2223
5614.00,1.2231
5613.00,1.2235
5612.00,1.2235
5611.00,1.2228
5610.00,1.2215
5609.00,1.2198
5608.00,1.2179
5607.00,1.2160
5606.00,1.2136
5605.00,1.2107
5604.00,1.2071
5603.00,1.2029
5602.00,1.1983
5601.00,1.1932
5600.00,1.1878
5599.00,1.1821
5598.00,1.1761
5597.00,1.1697
5596.00,1.1629
5595.00,1.1557
5594.00,1.1481
5593.00,1.1400
5592.00,1.1315
5591.00,1.1226
5590.00,1.1134
5589.00,1.1039
5588.00,1.0940
5587.00,1.0836
5586.00,1.0727
5585.00,1.0613
5584.00,1.0496
5583.00,1.0378
5582.00,1.0257
5581.00,1.0133
5580.00,1.0006
5579.00,0.9875
5578.00,0.9741
5577.00,0.9606
5576.00,0.9470
5575.00,0.9332
5574.00,0.9194
5573.00,0.9053
5572.00,0.8911
5571.00,0.8768
5570.00,0.8626
5569.00,0.8486
5568.00,0.8347
5567.00,0.8211
5566.00,0.8077
5565.00,0.7947
5564.00,0.7820
5563.00,0.7697
5562.00,0.7578
5561.00,0.7465
5560.00,0.7357
5559.00,0.7255
5558.00,0.7159
5557.00,0.7070
5556.00,0.6990
5555.00,0.6917
5554.00,0.6851
5553.00,0.6794
5552.00,0.6745
5551.00,0.6703
5550.00,0.6670
5549.00,0.6646
5548.00,0.6632
5547.00,0.6627
5546.00,0.6632
5545.00,0.6646
5544.00,0.6669
5543.00,0.6699
5542.00,0.6737
5541.00,0.6785
5540.00,0.6840
5539.00,0.6902
5538.00,0.6972
5537.00,0.7048
5536.00,0.7130
5535.00,0.7216
5534.00,0.7307
5533.00,0.7403
5532.00,0.7504
5531.00,0.7610
5530.00,0.7718
5529.00,0.7830
5528.00,0.7943
5527.00,0.8058
5526.00,0.8174
5525.00,0.8292
5524.00,0.8411
5523.00,0.8533
5522.00,0.8656
5521.00,0.8780
5520.00,0.8904
5519.00,0.9028
5518.00,0.9151
5517.00,0.9275
5516.00,0.9399
5515.00,0.9522
5514.00,0.9645
5513.00,0.9766
5512.00,0.9885
5511.00,1.0001
5510.00,1.0116
5509.00,1.0230
5508.00,1.0343
5507.00,1.0454
5506.00,1.0565
5505.00,1.0674
5504.00,1.0783
5503.00,1.0888
5502.00,1.0989
5501.00,1.1086
5500.00,1.1178
5499.00,1.1266
5498.00,1.1353
5497.00,1.1439
5496.00,1.1525
5495.00,1.1609
5494.00,1.1689
5493.00,1.1765
5492.00,1.1837
5491.00,1.1904
5490.00,1.1967
5489.00,1.2029
5488.00,1.2089
5487.00,1.2144
5486.00,1.2192
5485.00,1.2235
5484.00,1.2275
5483.00,1.2311
5482.00,1.2343
5481.00,1.2373
5480.00,1.2400
5479.00,1.2423
5478.00,1.2442
5477.00,1.2458
5476.00,1.2471
5475.00,1.2481
5474.00,1.2485
5473.00,1.2485
5472.00,1.2479
5471.00,1.2469
5470.00,1.2454
5469.00,1.2433
5468.00,1.2406
5467.00,1.2374
5466.00,1.2340
5465.00,1.2304
5464.00,1.2265
5463.00,1.2224
5462.00,1.2178
5461.00,1.2127
5460.00,1.2069
5459.00,1.2007
5458.00,1.1941
5457.00,1.1874
5456.00,1.1802
5455.00,1.1724
5454.00,1.1641
5453.00,1.1553
5452.00,1.1461
5451.00,1.1366
5450.00,1.1266
5449.00,1.1161
5448.00,1.1052
5447.00,1.0937
5446.00,1.0820
5445.00,1.0702
5444.00,1.0582
5443.00,1.0458
5442.00,1.0329
5441.00,1.0197
5440.00,1.0062
5439.00,0.9926
5438.00,0.9788
5437.00,0.9649
5436.00,0.9509
5435.00,0.9367
5434.00,0.9222
5433.00,0.9077
5432.00,0.8933
5431.00,0.8790
5430.00,0.8646
5429.00,0.8503
5428.00,0.8361
5427.00,0.8222
5426.00,0.8088
5425.00,0.7959
5424.00,0.7835
5423.00,0.7716
5422.00,0.7604
5421.00,0.7499
5420.00,0.7400
5419.00,0.7307
5418.00,0.7220
5417.00,0.7140
5416.00,0.7067
5415.00,0.7002
5414.00,0.6945
5413.00,0.6895
5412.00,0.6854
5411.00,0.6823
5410.00,0.6801
5409.00,0.6790
5408.00,0.6789
5407.00,0.6799
5406.00,0.6818
5405.00,0.6846
5404.00,0.6884
5403.00,0.6929
5402.00,0.6984
5401.00,0.7046
5400.00,0.7117
5399.00,0.7194
5398.00,0.7276
5397.00,0.7365
5396.00,0.7458
5395.00,0.7555
5394.00,0.7658
5393.00,0.7765
5392.00,0.7877
5391.00,0.7991
5390.00,0.8108
5389.00,0.8227
5388.00,0.8348
5387.00,0.8473
5386.00,0.8602
5385.00,0.8731
5384.00,0.8860
5383.00,0.8988
5382.00,0.9114
5381.00,0.9240
5380.00,0.9365
5379.00,0.9490
5378.00,0.9616
5377.00,0.9744
5376.00,0.9872
5375.00,1.0000
5374.00,1.0127
5373.00,1.0250
5372.00,1.0371
5371.00,1.0487
5370.00,1.0601
5369.00,1.0713
5368.00,1.0825
5367.00,1.0935
5366.00,1.1044
5365.00,1.1151
5364.00,1.1256
5363.00,1.1358
5362.00,1.1456
5361.00,1.1550
5360.00,1.1642
5359.00,1.1733
5358.00,1.1820
5357.00,1.1903
5356.00,1.1980
5355.00,1.2054
5354.00,1.2124
5353.00,1.2190
5352.00,1.2252
5351.00,1.2309
5350.00,1.2364
5349.00,1.2416
5348.00,1.2466
5347.00,1.2511
5346.00,1.2553
5345.00,1.2592
5344.00,1.2627
5343.00,1.2659
5342.00,1.2686
5341.00,1.2708
5340.00,1.2725
5339.00,1.2737
5338.00,1.2744
5337.00,1.2747
5336.00,1.2747
5335.00,1.2744
5334.00,1.2738
5333.00,1.2729
5332.00,1.2716
5331.00,1.2701
5330.00,1.2679
5329.00,1.2650
5328.00,1.2614
5327.00,1.2573
5326.00,1.2528
5325.00,1.2479
5324.00,1.2427
5323.00,1.2374
5322.00,1.2320
5321.00,1.2261
5320.00,1.2196
5319.00,1.2125
5318.00,1.2050
5317.00,1.1970
5316.00,1.1885
5315.00,1.1796
5314.00,1.1701
5313.00,1.1600
5312.00,1.1494
5311.00,1.1384
5310.00,1.1273
5309.00,1.1158
5308.00,1.1041
5307.00,1.0919
5306.00,1.0794
5305.00,1.0663
5304.00,1.0529
5303.00,1.0393
5302.00,1.0253
5301.00,1.0110
5300.00,0.9963
5299.00,0.9813
5298.00,0.9662
5297.00,0.9509
5296.00,0.9356
5295.00,0.9204
5294.00,0.9052
5293.00,0.8902
5292.00,0.8752
5291.00,0.8604
5290.00,0.8457
5289.00,0.8313
5288.00,0.8172
5287.00,0.8035
5286.00,0.7903
5285.00,0.7776
5284.00,0.7657
5283.00,0.7544
5282.00,0.7438
5281.00,0.7340
5280.00,0.7249
5279.00,0.7167
5278.00,0.7092
5277.00,0.7027
5276.00,0.6971
5275.00,0.6924
5274.00,0.6888
5273.00,0.6860
5272.00,0.6842
5271.00,0.6833
5270.00,0.6834
5269.00,0.6844
5268.00,0.6864
5267.00,0.6893
5266.00,0.6932
5265.00,0.6979
5264.00,0.7035
5263.00,0.7099
5262.00,0.7170
5261.00,0.7248
5260.00,0.7333
5259.00,0.7424
5258.00,0.7521
5257.00,0.7623
5256.00,0.7729
5255.00,0.7840
5254.00,0.7955
5253.00,0.8073
5252.00,0.8193
5251.00,0.8313
5250.00,0.8436
5249.00,0.8561
5248.00,0.8688
5247.00,0.8817
5246.00,0.8945
5245.00,0.9074
5244.00,0.9204
5243.00,0.9335
5242.00,0.9468
5241.00,0.9601
5240.00,0.9733
5239.00,0.9864
5238.00,0.9994
5237.00,1.0124
5236.00,1.0253
5235.00,1.0381
5234.00,1.0506
5233.00,1.0627
5232.00,1.0747
5231.00,1.0864
5230.00,1.0981
5229.00,1.1096
5228.00,1.1209
5227.00,1.1318
5226.00,1.1425
5225.00,1.1531
5224.00,1.1636
5223.00,1.1740
5222.00,1.1842
5221.00,1.1940
5220.00,1.2033
5219.00,1.2123
5218.00,1.2209
5217.00,1.2292
5216.00,1.2370
5215.00,1.2442
5214.00,1.2507
5213.00,1.2568
5212.00,1.2625
5211.00,1.2679
5210.00,1.2731
5209.00,1.2781
5208.00,1.2831
5207.00,1.2880
5206.00,1.2926
5205.00,1.2968
5204.00,1.3004
5203.00,1.3033
5202.00,1.3056
5201.00,1.3074
5200.00,1.3088
5199.00,1.3101
5198.00,1.3111
5197.00,1.3116
5196.00,1.3116
5195.00,1.3110
5194.00,1.3099
5193.00,1.3081
5192.00,1.3060
5191.00,1.3035
5190.00,1.3008
5189.00,1.2978
5188.00,1.2944
5187.00,1.2904
5186.00,1.2858
5185.00,1.2805
5184.00,1.2746
5183.00,1.2682
5182.00,1.2615
5181.00,1.2547
5180.00,1.2476
5179.00,1.2400
5178.00,1.2319
5177.00,1.2233
5176.00,1.2143
5175.00,1.2049
5174.00,1.1951
5173.00,1.1848
5172.00,1.1738
5171.00,1.1623
5170.00,1.1505
5169.00,1.1383
5168.00,1.1259
5167.00,1.1132
5166.00,1.1001
5165.00,1.0865
5164.00,1.0724
5163.00,1.0579
5162.00,1.0430
5161.00,1.0279
5160.00,1.0125
5159.00,0.9968
5158.00,0.9809
5157.00,0.9649
5156.00,0.9489
5155.00,0.9328
5154.00,0.9168
5153.00,0.9009
5152.00,0.8852
5151.00,0.8696
5150.00,0.8543
5149.00,0.8393
5148.00,0.8247
5147.00,0.8106
5146.00,0.7970
5145.00,0.7840
5144.00,0.7716
5143.00,0.7599
5142.00,0.7489
5141.00,0.7387
5140.00,0.7294
5139.00,0.7211
5138.00,0.7137
5137.00,0.7073
5136.00,0.7018
5135.00,0.6974
5134.00,0.6941
5133.00,0.6919
5132.00,0.6907
5131.00,0.6906
5130.00,0.6916
5129.00,0.6935
5128.00,0.6965
5127.00,0.7004
5126.00,0.7054
5125.00,0.7113
5124.00,0.7181
5123.00,0.7257
5122.00,0.7340
5121.00,0.7432
5120.00,0.7530
5119.00,0.7634
5118.00,0.7744
5117.00,0.7859
5116.00,0.7978
5115.00,0.8101
5114.00,0.8228
5113.00,0.8358
5112.00,0.8492
5111.00,0.8629
5110.00,0.8767
5109.00,0.8907
5108.00,0.9047
5107.00,0.9188
5106.00,0.9330
5105.00,0.9471
5104.00,0.9613
5103.00,0.9755
5102.00,0.9898
5101.00,1.0039
5100.00,1.0178
5099.00,1.0315
5098.00,1.0448
5097.00,1.0580
5096.00,1.0710
5095.00,1.0840
5094.00,1.0970
5093.00,1.1100
5092.00,1.1226
5091.00,1.1349
5090.00,1.1468
5089.00,1.1583
5088.00,1.1695
5087.00,1.1804
5086.00,1.1913
5085.00,1.2019
5084.00,1.2121
5083.00,1.2217
5082.00,1.2309
5081.00,1.2397
5080.00,1.2485
5079.00,1.2570
5078.00,1.2654
5077.00,1.2734
5076.00,1.2810
5075.00,1.2879
5074.00,1.2942
5073.00,1.2999
5072.00,1.3052
5071.00,1.3101
5070.00,1.3147
5069.00,1.3191
5068.00,1.3234
5067.00,1.3273
5066.00,1.3308
5065.00,1.3336
5064.00,1.3359
5063.00,1.3377
5062.00,1.3388
5061.00,1.3395
5060.00,1.3397
5059.00,1.3397
5058.00,1.3393
5057.00,1.3386
5056.00,1.3373
5055.00,1.3355
5054.00,1.3333
5053.00,1.3307
5052.00,1.3278
5051.00,1.3245
5050.00,1.3209
5049.00,1.3168
5048.00,1.3121
5047.00,1.3069
5046.00,1.3012
5045.00,1.2951
5044.00,1.2886
5043.00,1.2816
5042.00,1.2740
5041.00,1.2660
5040.00,1.2575
5039.00,1.2485
5038.00,1.2391
5037.00,1.2293
5036.00,1.2191
5035.00,1.2085
5034.00,1.1975
5033.00,1.1860
5032.00,1.1739
5031.00,1.1614
5030.00,1.1483
5029.00,1.1347
5028.00,1.1207
5027.00,1.1063
5026.00,1.0916
5025.00,1.0765
5024.00,1.0611
5023.00,1.0454
5022.00,1.0294
5021.00,1.0130
5020.00,0.9964
5019.00,0.9797
5018.00,0.9629
5017.00,0.9461
5016.00,0.9294
5015.00,0.9128
5014.00,0.8964
5013.00,0.8803
5012.00,0.8645
5011.00,0.8491
5010.00,0.8341
5009.00,0.8196
5008.00,0.8055
5007.00,0.7921
5006.00,0.7793
5005.00,0.7671
5004.00,0.7557
5003.00,0.7450
5002.00,0.7351
5001.00,0.7262
5000.00,0.7182
4999.00,0.7112
4998.00,0.7052
4997.00,0.7003
4996.00,0.6964
4995.00,0.6937
4994.00,0.6920
4993.00,0.6915
4992.00,0.6920
4991.00,0.6937
4990.00,0.6965
4989.00,0.7005
4988.00,0.7057
4987.00,0.7120
4986.00,0.7192
4985.00,0.7272
4984.00,0.7360
4983.00,0.7455
4982.00,0.7557
4981.00,0.7666
4980.00,0.7781
4979.00,0.7901
4978.00,0.8028
4977.00,0.8158
4976.00,0.8291
4975.00,0.8428
4974.00,0.8567
4973.00,0.8708
4972.00,0.8851
4971.00,0.8995
4970.00,0.9140
4969.00,0.9287
4968.00,0.9435
4967.00,0.9584
4966.00,0.9733
4965.00,0.9883
4964.00,1.0031
4963.00,1.0177
4962.00,1.0322
4961.00,1.0466
4960.00,1.0609
4959.00,1.0750
4958.00,1.0889
4957.00,1.1027
4956.00,1.1162
4955.00,1.1295
4954.00,1.1425
4953.00,1.1552
4952.00,1.1677
4951.00,1.1800
4950.00,1.1920
4949.00,1.2038
4948.00,1.2154
4947.00,1.2267
4946.00,1.2376
4945.00,1.2480
4944.00,1.2580
4943.00,1.2675
4942.00,1.2766
4941.00,1.2854
4940.00,1.2938
4939.00,1.3018
4938.00,1.3096
4937.00,1.3169
4936.00,1.3240
4935.00,1.3308
4934.00,1.3373
4933.00,1.3433
4932.00,1.3488
4931.00,1.3536
4930.00,1.3579
4929.00,1.3618
4928.00,1.3652
4927.00,1.3683
4926.00,1.3710
4925.00,1.3734
4924.00,1.3753
4923.00,1.3767
4922.00,1.3776
4921.00,1.3781
4920.00,1.3781
4919.00,1.3777
4918.00,1.3769
4917.00,1.3754
4916.00,1.3733
4915.00,1.3707
4914.00,1.3679
4913.00,1.3649
4912.00,1.3617
4911.00,1.3580
4910.00,1.3536
4909.00,1.3486
4908.00,1.3431
4907.00,1.3372
4906.00,1.3310
4905.00,1.3245
4904.00,1.3175
4903.00,1.3099
4902.00,1.3018
4901.00,1.2931
4900.00,1.2839
4899.00,1.2741
4898.00,1.2639
4897.00,1.2533
4896.00,1.2421
4895.00,1.2306
4894.00,1.2187
4893.00,1.2065
4892.00,1.1938
4891.00,1.1806
4890.00,1.1667
4889.00,1.1522
4888.00,1.1373
4887.00,1.1219
4886.00,1.1063
4885.00,1.0903
4884.00,1.0738
4883.00,1.0570
4882.00,1.0398
4881.00,1.0224
4880.00,1.0048
4879.00,0.9870
4878.00,0.9692
4877.00,0.9514
4876.00,0.9337
4875.00,0.9161
4874.00,0.8986
4873.00,0.8812
4872.00,0.8642
4871.00,0.8477
4870.00,0.8317
4869.00,0.8162
4868.00,0.8015
4867.00,0.7874
4866.00,0.7741
4865.00,0.7617
4864.00,0.7504
4863.00,0.7400
4862.00,0.7306
4861.00,0.7224
4860.00,0.7152
4859.00,0.7093
4858.00,0.7046
4857.00,0.7012
4856.00,0.6990
4855.00,0.6981
4854.00,0.6984
4853.00,0.6999
4852.00,0.7026
4851.00,0.7064
4850.00,0.7114
4849.00,0.7176
4848.00,0.7248
4847.00,0.7330
4846.00,0.7422
4845.00,0.7522
4844.00,0.7629
4843.00,0.7745
4842.00,0.7867
4841.00,0.7995
4840.00,0.8128
4839.00,0.8266
4838.00,0.8408
4837.00,0.8553
4836.00,0.8702
4835.00,0.8853
4834.00,0.9006
4833.00,0.9160
4832.00,0.9315
4831.00,0.9470
4830.00,0.9626
4829.00,0.9783
4828.00,0.9940
4827.00,1.0096
4826.00,1.0252
4825.00,1.0407
4824.00,1.0560
4823.00,1.0713
4822.00,1.0864
4821.00,1.1013
4820.00,1.1161
4819.00,1.1304
4818.00,1.1444
4817.00,1.1581
4816.00,1.1715
4815.00,1.1847
4814.00,1.1977
4813.00,1.2105
4812.00,1.2231
4811.00,1.2353
4810.00,1.2473
4809.00,1.2590
4808.00,1.2705
4807.00,1.2816
4806.00,1.2922
4805.00,1.3024
4804.00,1.3121
4803.00,1.3214
4802.00,1.3303
4801.00,1.3388
4800.00,1.3469
4799.00,1.3544
4798.00,1.3615
4797.00,1.3682
4796.00,1.3743
4795.00,1.3800
4794.00,1.3851
4793.00,1.3898
4792.00,1.3941
4791.00,1.3980
4790.00,1.4016
4789.00,1.4046
4788.00,1.4072
4787.00,1.4092
4786.00,1.4107
4785.00,1.4116
4784.00,1.4121
4783.00,1.4122
4782.00,1.4120
4781.00,1.4116
4780.00,1.4109
4779.00,1.4097
4778.00,1.4079
4777.00,1.4055
4776.00,1.4026
4775.00,1.3995
4774.00,1.3961
4773.00,1.3921
4772.00,1.3875
4771.00,1.3821
4770.00,1.3762
4769.00,1.3701
4768.00,1.3636
4767.00,1.3567
4766.00,1.3493
4765.00,1.3413
4764.00,1.3328
4763.00,1.3238
4762.00,1.3144
4761.00,1.3046
4760.00,1.2945
4759.00,1.2837
4758.00,1.2723
4757.00,1.2602
4756.00,1.2475
4755.00,1.2344
4754.00,1.2210
4753.00,1.2073
4752.00,1.1932
4751.00,1.1785
4750.00,1.1633
4749.00,1.1476
4748.00,1.1315
4747.00,1.1149
4746.00,1.0978
4745.00,1.0804
4744.00,1.0626
4743.00,1.0445
4742.00,1.0261
4741.00,1.0077
4740.00,0.9892
4739.00,0.9706
4738.00,0.9521
4737.00,0.9337
4736.00,0.9155
4735.00,0.8975
4734.00,0.8798
4733.00,0.8624
4732.00,0.8455
4731.00,0.8292
4730.00,0.8135
4729.00,0.7986
4728.00,0.7845
4727.00,0.7713
4726.00,0.7591
4725.00,0.7479
4724.00,0.7378
4723.00,0.7289
4722.00,0.7212
4721.00,0.7147
4720.00,0.7095
4719.00,0.7056
4718.00,0.7030
4717.00,0.7017
4716.00,0.7018
4715.00,0.7032
4714.00,0.7061
4713.00,0.7102
4712.00,0.7157
4711.00,0.7223
4710.00,0.7300
4709.00,0.7388
4708.00,0.7485
4707.00,0.7592
4706.00,0.7708
4705.00,0.7832
4704.00,0.7962
4703.00,0.8099
4702.00,0.8242
4701.00,0.8389
4700.00,0.8541
4699.00,0.8696
4698.00,0.8854
4697.00,0.9014
4696.00,0.9176
4695.00,0.9339
4694.00,0.9503
4693.00,0.9669
4692.00,0.9835
4691.00,1.0002
4690.00,1.0168
4689.00,1.0333
4688.00,1.0496
4687.00,1.0658
4686.00,1.0819
4685.00,1.0978
4684.00,1.1135
4683.00,1.1291
4682.00,1.1445
4681.00,1.1596
4680.00,1.1746
4679.00,1.1891
4678.00,1.2032
4677.00,1.2169
4676.00,1.2302
4675.00,1.2434
4674.00,1.2564
4673.00,1.2691
4672.00,1.2817
4671.00,1.2940
4670.00,1.3059
4669.00,1.3174
4668.00,1.3284
4667.00,1.3388
4666.00,1.3485
4665.00,1.3578
4664.00,1.3667
4663.00,1.3755
4662.00,1.3840
4661.00,1.3923
4660.00,1.4001
4659.00,1.4073
4658.00,1.4139
4657.00,1.4198
4656.00,1.4254
4655.00,1.4305
4654.00,1.4354
4653.00,1.4398
4652.00,1.4436
4651.00,1.4468
4650.00,1.4495
4649.00,1.4518
4648.00,1.4538
4647.00,1.4552
4646.00,1.4562
4645.00,1.4565
4644.00,1.4564
4643.00,1.4559
4642.00,1.4550
4641.00,1.4539
4640.00,1.4524
4639.00,1.4504
4638.00,1.4480
4637.00,1.4451
4636.00,1.4416
4635.00,1.4375
4634.00,1.4329
4633.00,1.4279
4632.00,1.4224
4631.00,1.4165
4630.00,1.4103
4629.00,1.4037
4628.00,1.3967
4627.00,1.3893
4626.00,1.3814
4625.00,1.3729
4624.00,1.3638
4623.00,1.3541
4622.00,1.3436
4621.00,1.3325
4620.00,1.3209
4619.00,1.3088
4618.00,1.2962
4617.00,1.2833
4616.00,1.2700
4615.00,1.2562
4614.00,1.2418
4613.00,1.2268
4612.00,1.2112
4611.00,1.1951
4610.00,1.1784
4609.00,1.1612
4608.00,1.1434
4607.00,1.1251
4606.00,1.1064
4605.00,1.0873
4604.00,1.0680
4603.00,1.0486
4602.00,1.0290
4601.00,1.0093
4600.00,0.9895
4599.00,0.9696
4598.00,0.9499
4597.00,0.9304
4596.00,0.9112
4595.00,0.8924
4594.00,0.8741
4593.00,0.8564
4592.00,0.8393
4591.00,0.8228
4590.00,0.8072
4589.00,0.7926
4588.00,0.7791
4587.00,0.7667
4586.00,0.7554
4585.00,0.7455
4584.00,0.7368
4583.00,0.7296
4582.00,0.7238
4581.00,0.7195
4580.00,0.7166
4579.00,0.7152
4578.00,0.7153
4577.00,0.7169
4576.00,0.7199
4575.00,0.7244
4574.00,0.7302
4573.00,0.7374
4572.00,0.7458
4571.00,0.7553
4570.00,0.7659
4569.00,0.7775
4568.00,0.7900
4567.00,0.8032
4566.00,0.8171
4565.00,0.8317
4564.00,0.8468
4563.00,0.8625
4562.00,0.8787
4561.00,0.8952
4560.00,0.9120
4559.00,0.9290
4558.00,0.9461
4557.00,0.9633
4556.00,0.9807
4555.00,0.9981
4554.00,1.0156
4553.00,1.0330
4552.00,1.0503
4551.00,1.0674
4550.00,1.0843
4549.00,1.1011
4548.00,1.1178
4547.00,1.1344
4546.00,1.1509
4545.00,1.1672
4544.00,1.1831
4543.00,1.1988
4542.00,1.2142
4541.00,1.2295
4540.00,1.2444
4539.00,1.2591
4538.00,1.2733
4537.00,1.2871
4536.00,1.3006
4535.00,1.3138
4534.00,1.3265
4533.00,1.3386
4532.00,1.3503
4531.00,1.3617
4530.00,1.3727
4529.00,1.3835
4528.00,1.3939
4527.00,1.4037
4526.00,1.4129
4525.00,1.4215
4524.00,1.4297
4523.00,1.4375
4522.00,1.4451
4521.00,1.4526
4520.00,1.4599
4519.00,1.4668
4518.00,1.4730
4517.00,1.4784
4516.00,1.4831
4515.00,1.4874
4514.00,1.4913
4513.00,1.4947
4512.00,1.4976
4511.00,1.5002
4510.00,1.5023
4509.00,1.5039
4508.00,1.5049
4507.00,1.5052
4506.00,1.5050
4505.00,1.5042
4504.00,1.5031
4503.00,1.5016
4502.00,1.4996
4501.00,1.4971
4500.00,1.4941
4499.00,1.4907
4498.00,1.4867
4497.00,1.4823
4496.00,1.4775
4495.00,1.4723
4494.00,1.4669
4493.00,1.4609
4492.00,1.4544
4491.00,1.4472
4490.00,1.4394
4489.00,1.4312
4488.00,1.4228
4487.00,1.4140
4486.00,1.4047
4485.00,1.3947
4484.00,1.3841
4483.00,1.3730
4482.00,1.3615
4481.00,1.3495
4480.00,1.3369
4479.00,1.3235
4478.00,1.3094
4477.00,1.2947
4476.00,1.2796
4475.00,1.2640
4474.00,1.2480
4473.00,1.2314
4472.00,1.2143
4471.00,1.1968
4470.00,1.1789
4469.00,1.1606
4468.00,1.1420
4467.00,1.1232
4466.00,1.1042
4465.00,1.0851
4464.00,1.0660
4463.00,1.0468
4462.00,1.0279
4461.00,1.0092
4460.00,0.9909
4459.00,0.9732
4458.00,0.9561
4457.00,0.9397
4456.00,0.9242
4455.00,0.9096
4454.00,0.8961
4453.00,0.8838
4452.00,0.8728
4451.00,0.8631
4450.00,0.8548
4449.00,0.8479
4448.00,0.8424
4447.00,0.8384
4446.00,0.8357
4445.00,0.8343
4444.00,0.8341
4443.00,0.8347
4442.00,0.8361
4441.00,0.8382
4440.00,0.8407
4439.00,0.8435
4438.00,0.8466
4437.00,0.8498
4436.00,0.8531
4435.00,0.8565
4434.00,0.8602
4433.00,0.8643
4432.00,0.8689
4431.00,0.8743
4430.00,0.8805
4429.00,0.8878
4428.00,0.8961
4427.00,0.9056
4426.00,0.9161
4425.00,0.9277
4424.00,0.9403
4423.00,0.9538
4422.00,0.9681
4421.00,0.9833
4420.00,0.9992
4419.00,1.0156
4418.00,1.0323
4417.00,1.0493
4416.00,1.0665
4415.00,1.0840
4414.00,1.1017
4413.00,1.1196
4412.00,1.1375
4411.00,1.1555
4410.00,1.1733
4409.00,1.1909
4408.00,1.2084
4407.00,1.2257
4406.00,1.2427
4405.00,1.2592
4404.00,1.2753
4403.00,1.2910
4402.00,1.3064
4401.00,1.3213
4400.00,1.3357
4399.00,1.3496
4398.00,1.3630
4397.00,1.3759
4396.00,1.3885
4395.00,1.4006
4394.00,1.4123
4393.00,1.4234
4392.00,1.4339
4391.00,1.4440
4390.00,1.4538
4389.00,1.4634
4388.00,1.4726
4387.00,1.4814
4386.00,1.4897
4385.00,1.4976
4384.00,1.5049
4383.00,1.5119
4382.00,1.5186
4381.00,1.5252
4380.00,1.5314
4379.00,1.5372
4378.00,1.5422
4377.00,1.5465
4376.00,1.5503
4375.00,1.5539
4374.00,1.5575
4373.00,1.5610
4372.00,1.5641
4371.00,1.5668
4370.00,1.5689
4369.00,1.5707
4368.00,1.5721
4367.00,1.5728
4366.00,1.5728
4365.00,1.5720
4364.00,1.5707
4363.00,1.5691
4362.00,1.5673
4361.00,1.5653
4360.00,1.5630
4359.00,1.5600
4358.00,1.5566
4357.00,1.5526
4356.00,1.5482
4355.00,1.5433
4354.00,1.5380
4353.00,1.5323
4352.00,1.5259
4351.00,1.5190
4350.00,1.5115
4349.00,1.5035
4348.00,1.4950
4347.00,1.4859
4346.00,1.4763
4345.00,1.4661
4344.00,1.4555
4343.00,1.4444
4342.00,1.4325
4341.00,1.4199
4340.00,1.4067
4339.00,1.3929
4338.00,1.3786
4337.00,1.3640
4336.00,1.3488
4335.00,1.3332
4334.00,1.3169
4333.00,1.3000
4332.00,1.2825
4331.00,1.2645
4330.00,1.2459
4329.00,1.2270
4328.00,1.2077
4327.00,1.1881
4326.00,1.1683
4325.00,1.1482
4324.00,1.1280
4323.00,1.1078
4322.00,1.0876
4321.00,1.0674
4320.00,1.0469
4319.00,1.0263
4318.00,1.0055
4317.00,0.9847
4316.00,0.9638
4315.00,0.9432
4314.00,0.9229
4313.00,0.9031
4312.00,0.8840
4311.00,0.8657
4310.00,0.8486
4309.00,0.8326
4308.00,0.8180
4307.00,0.8049
4306.00,0.7934
4305.00,0.7836
4304.00,0.7754
4303.00,0.7689
4302.00,0.7642
4301.00,0.7614
4300.00,0.7603
4299.00,0.7609
4298.00,0.7634
4297.00,0.7675
4296.00,0.7733
4295.00,0.7808
4294.00,0.7897
4293.00,0.8000
4292.00,0.8115
4291.00,0.8242
4290.00,0.8379
4289.00,0.8526
4288.00,0.8680
4287.00,0.8841
4286.00,0.9007
4285.00,0.9179
4284.00,0.9355
4283.00,0.9535
4282.00,0.9719
4281.00,0.9905
4280.00,1.0093
4279.00,1.0282
4278.00,1.0471
4277.00,1.0660
4276.00,1.0849
4275.00,1.1037
4274.00,1.1225
4273.00,1.1411
4272.00,1.1596
4271.00,1.1780
4270.00,1.1962
4269.00,1.2142
4268.00,1.2319
4267.00,1.2492
4266.00,1.2662
4265.00,1.2830
4264.00,1.2994
4263.00,1.3158
4262.00,1.3320
4261.00,1.3480
4260.00,1.3636
4259.00,1.3786
4258.00,1.3932
4257.00,1.4071
4256.00,1.4206
4255.00,1.4337
4254.00,1.4465
4253.00,1.4589
4252.00,1.4709
4251.00,1.4825
4250.00,1.4934
4249.00,1.5036
4248.00,1.5132
4247.00,1.5221
4246.00,1.5306
4245.00,1.5388
4244.00,1.5466
4243.00,1.5539
4242.00,1.5606
4241.00,1.5669
4240.00,1.5726
4239.00,1.5779
4238.00,1.5826
4237.00,1.5868
4236.00,1.5903
4235.00,1.5935
4234.00,1.5962
4233.00,1.5987
4232.00,1.6007
4231.00,1.6020
4230.00,1.6025
4229.00,1.6022
4228.00,1.6014
4227.00,1.6005
4226.00,1.5996
4225.00,1.5986
4224.00,1.5972
4223.00,1.5952
4222.00,1.5923
4221.00,1.5887
4220.00,1.5847
4219.00,1.5804
4218.00,1.5757
4217.00,1.5705
4216.00,1.5646
4215.00,1.5581
4214.00,1.5511
4213.00,1.5437
4212.00,1.5358
4211.00,1.5276
4210.00,1.5189
4209.00,1.5096
4208.00,1.4996
4207.00,1.4890
4206.00,1.4779
4205.00,1.4663
4204.00,1.4542
4203.00,1.4414
4202.00,1.4279
4201.00,1.4138
4200.00,1.3990
4199.00,1.3836
4198.00,1.3676
4197.00,1.3509
4196.00,1.3337
4195.00,1.3159
4194.00,1.2974
4193.00,1.2783
4192.00,1.2583
4191.00,1.2377
4190.00,1.2165
4189.00,1.1948
4188.00,1.1727
4187.00,1.1502
4186.00,1.1273
4185.00,1.1040
4184.00,1.0803
4183.00,1.0565
4182.00,1.0327
4181.00,1.0091
4180.00,0.9859
4179.00,0.9631
4178.00,0.9410
4177.00,0.9194
4176.00,0.8987
4175.00,0.8788
4174.00,0.8600
4173.00,0.8424
4172.00,0.8261
4171.00,0.8112
4170.00,0.7979
4169.00,0.7862
4168.00,0.7763
4167.00,0.7681
4166.00,0.7617
4165.00,0.7572
4164.00,0.7547
4163.00,0.7540
4162.00,0.7551
4161.00,0.7582
4160.00,0.7630
4159.00,0.7696
4158.00,0.7779
4157.00,0.7878
4156.00,0.7991
4155.00,0.8118
4154.00,0.8257
4153.00,0.8407
4152.00,0.8568
4151.00,0.8738
4150.00,0.8914
4149.00,0.9097
4148.00,0.9285
4147.00,0.9477
4146.00,0.9673
4145.00,0.9872
4144.00,1.0074
4143.00,1.0278
4142.00,1.0482
4141.00,1.0686
4140.00,1.0890
4139.00,1.1093
4138.00,1.1296
4137.00,1.1498
4136.00,1.1699
4135.00,1.1899
4134.00,1.2096
4133.00,1.2291
4132.00,1.2483
4131.00,1.2671
4130.00,1.2858
4129.00,1.3041
4128.00,1.3223
4127.00,1.3401
4126.00,1.3576
4125.00,1.3746
4124.00,1.3912
4123.00,1.4074
4122.00,1.4231
4121.00,1.4385
4120.00,1.4534
4119.00,1.4677
4118.00,1.4815
4117.00,1.4948
4116.00,1.5078
4115.00,1.5203
4114.00,1.5324
4113.00,1.5440
4112.00,1.5551
4111.00,1.5655
4110.00,1.5752
4109.00,1.5841
4108.00,1.5923
4107.00,1.6002
4106.00,1.6078
4105.00,1.6151
4104.00,1.6220
4103.00,1.6283
4102.00,1.6338
4101.00,1.6386
4100.00,1.6427
4099.00,1.6464
4098.00,1.6498
4097.00,1.6530
4096.00,1.6557
4095.00,1.6578
4094.00,1.6593
4093.00,1.6600
4092.00,1.6602
4091.00,1.6602
4090.00,1.6599
4089.00,1.6595
4088.00,1.6587
4087.00,1.6573
4086.00,1.6552
4085.00,1.6526
4084.00,1.6498
4083.00,1.6465
4082.00,1.6428
4081.00,1.6383
4080.00,1.6332
4079.00,1.6276
4078.00,1.6217
4077.00,1.6155
4076.00,1.6088
4075.00,1.6016
4074.00,1.5939
4073.00,1.5857
4072.00,1.5770
4071.00,1.5676
4070.00,1.5576
4069.00,1.5469
4068.00,1.5357
4067.00,1.5237
4066.00,1.5110
4065.00,1.4978
4064.00,1.4841
4063.00,1.4700
4062.00,1.4556
4061.00,1.4405
4060.00,1.4246
4059.00,1.4079
4058.00,1.3902
4057.00,1.3718
4056.00,1.3528
4055.00,1.3331
4054.00,1.3127
4053.00,1.2917
4052.00,1.2700
4051.00,1.2477
4050.00,1.2251
4049.00,1.2021
4048.00,1.1790
4047.00,1.1556
4046.00,1.1320
4045.00,1.1084
4044.00,1.0850
4043.00,1.0618
4042.00,1.0392
4041.00,1.0171
4040.00,0.9959
4039.00,0.9756
4038.00,0.9566
4037.00,0.9388
4036.00,0.9225
4035.00,0.9074
4034.00,0.8938
4033.00,0.8817
4032.00,0.8709
4031.00,0.8613
4030.00,0.8530
4029.00,0.8457
4028.00,0.8396
4027.00,0.8346
4026.00,0.8307
4025.00,0.8280
4024.00,0.8267
4023.00,0.8269
4022.00,0.8288
4021.00,0.8325
4020.00,0.8380
4019.00,0.8452
4018.00,0.8541
4017.00,0.8644
4016.00,0.8763
4015.00,0.8895
4014.00,0.9041
4013.00,0.9199
4012.00,0.9366
4011.00,0.9542
4010.00,0.9726
4009.00,0.9917
4008.00,1.0114
4007.00,1.0315
4006.00,1.0520
4005.00,1.0728
4004.00,1.0937
4003.00,1.1146
4002.00,1.1357
4001.00,1.1568
4000.00,1.1780
3999.00,1.1992
3998.00,1.2202
3997.00,1.2412
3996.00,1.2619
3995.00,1.2825
3994.00,1.3027
3993.00,1.3225
3992.00,1.3420
3991.00,1.3613
3990.00,1.3804
3989.00,1.3991
3988.00,1.4173
3987.00,1.4351
3986.00,1.4525
3985.00,1.4698
3984.00,1.4867
3983.00,1.5032
3982.00,1.5189
3981.00,1.5338
3980.00,1.5480
3979.00,1.5617
3978.00,1.5748
3977.00,1.5874
3976.00,1.5993
3975.00,1.6104
3974.00,1.6207
3973.00,1.6303
3972.00,1.6393
3971.00,1.6479
3970.00,1.6559
3969.00,1.6635
3968.00,1.6708
3967.00,1.6776
3966.00,1.6839
3965.00,1.6894
3964.00,1.6942
3963.00,1.6986
3962.00,1.7027
3961.00,1.7068
3960.00,1.7107
3959.00,1.7142
3958.00,1.7169
3957.00,1.7189
3956.00,1.7204
3955.00,1.7216
3954.00,1.7224
3953.00,1.7229
3952.00,1.7230
3951.00,1.7227
3950.00,1.7218
3949.00,1.7202
3948.00,1.7180
3947.00,1.7154
3946.00,1.7123
3945.00,1.7087
3944.00,1.7047
3943.00,1.7002
3942.00,1.6953
3941.00,1.6899
3940.00,1.6841
3939.00,1.6782
3938.00,1.6721
3937.00,1.6658
3936.00,1.6587
3935.00,1.6504
3934.00,1.6408
3933.00,1.6301
3932.00,1.6189
3931.00,1.6075
3930.00,1.5959
3929.00,1.5839
3928.00,1.5714
3927.00,1.5584
3926.00,1.5449
3925.00,1.5307
3924.00,1.5159
3923.00,1.5006
3922.00,1.4846
3921.00,1.4678
3920.00,1.4499
3919.00,1.4308
3918.00,1.4103
3917.00,1.3887
3916.00,1.3665
3915.00,1.3440
3914.00,1.3213
3913.00,1.2984
3912.00,1.2748
3911.00,1.2508
3910.00,1.2263
3909.00,1.2018
3908.00,1.1772
3907.00,1.1522
3906.00,1.1266
3905.00,1.1000
3904.00,1.0721
3903.00,1.0435
3902.00,1.0149
3901.00,0.9870
3900.00,0.9599
3899.00,0.9341
3898.00,0.9102
3897.00,0.8888
3896.00,0.8698
3895.00,0.8529
3894.00,0.8379
3893.00,0.8245
3892.00,0.8124
3891.00,0.8016
3890.00,0.7928
3889.00,0.7863
3888.00,0.7824
3887.00,0.7809
3886.00,0.7818
3885.00,0.7849
3884.00,0.7899
3883.00,0.7970
3882.00,0.8066
3881.00,0.8188
3880.00,0.8331
3879.00,0.8487
3878.00,0.8649
3877.00,0.8817
3876.00,0.9000
3875.00,0.9203
3874.00,0.9421
3873.00,0.9640
3872.00,0.9855
3871.00,1.0072
3870.00,1.0300
3869.00,1.0541
3868.00,1.0780
3867.00,1.1006
3866.00,1.1227
3865.00,1.1455
3864.00,1.1694
3863.00,1.1936
3862.00,1.2173
3861.00,1.2405
3860.00,1.2637
3859.00,1.2867
3858.00,1.3083
3857.00,1.3270
3856.00,1.3426
3855.00,1.3578
3854.00,1.3755
3853.00,1.3972
3852.00,1.4223
3851.00,1.4481
3850.00,1.4719
3849.00,1.4929
3848.00,1.5112
3847.00,1.5275
3846.00,1.5424
3845.00,1.5566
3844.00,1.5705
3843.00,1.5843
3842.00,1.5979
3841.00,1.6113
3840.00,1.6243
3839.00,1.6370
3838.00,1.6494
3837.00,1.6616
3836.00,1.6734
3835.00,1.6847
3834.00,1.6956
3833.00,1.7058
3832.00,1.7152
3831.00,1.7239
3830.00,1.7318
3829.00,1.7389
3828.00,1.7454
3827.00,1.7513
3826.00,1.7563
3825.00,1.7600
3824.00,1.7626
3823.00,1.7653
3822.00,1.7687
3821.00,1.7720
3820.00,1.7745
3819.00,1.7765
3818.00,1.7784
3817.00,1.7801
3816.00,1.7810
3815.00,1.7811
3814.00,1.7808
3813.00,1.7803
3812.00,1.7796
3811.00,1.7784
3810.00,1.7765
3809.00,1.7737
3808.00,1.7698
3807.00,1.7647
3806.00,1.7588
3805.00,1.7523
3804.00,1.7459
3803.00,1.7402
3802.00,1.7344
3801.00,1.7274
3800.00,1.7194
3799.00,1.7114
3798.00,1.7037
3797.00,1.6959
3796.00,1.6874
3795.00,1.6782
3794.00,1.6684
3793.00,1.6578
3792.00,1.6462
3791.00,1.6338
3790.00,1.6205
3789.00,1.6062
3788.00,1.5909
3787.00,1.5751
3786.00,1.5588
3785.00,1.5415
3784.00,1.5231
3783.00,1.5038
3782.00,1.4840
3781.00,1.4638
3780.00,1.4427
3779.00,1.4205
3778.00,1.3971
3777.00,1.3729
3776.00,1.3481
3775.00,1.3228
3774.00,1.2969
3773.00,1.2704
3772.00,1.2432
3771.00,1.2150
3770.00,1.1855
3769.00,1.1551
3768.00,1.1247
3767.00,1.0950
3766.00,1.0655
3765.00,1.0363
3764.00,1.0080
3763.00,0.9814
3762.00,0.9565
3761.00,0.9332
3760.00,0.9115
3759.00,0.8915
3758.00,0.8737
3757.00,0.8590
3756.00,0.8475
3755.00,0.8394
3754.00,0.8347
3753.00,0.8337
3752.00,0.8365
3751.00,0.8425
3750.00,0.8517
3749.00,0.8648
3748.00,0.8815
3747.00,0.9008
3746.00,0.9221
3745.00,0.9457
3744.00,0.9711
3743.00,0.9971
3742.00,1.0226
3741.00,1.0478
3740.00,1.0731
3739.00,1.0980
3738.00,1.1216
3737.00,1.1437
3736.00,1.1647
3735.00,1.1846
3734.00,1.2028
3733.00,1.2196
3732.00,1.2357
3731.00,1.2507
3730.00,1.2645
3729.00,1.2777
3728.00,1.2923
3727.00,1.3100
3726.00,1.3306
3725.00,1.3541
3724.00,1.3806
3723.00,1.4105
3722.00,1.4435
3721.00,1.4779
3720.00,1.5119
3719.00,1.5441
3718.00,1.5738
3717.00,1.6005
3716.00,1.6239
3715.00,1.6436
3714.00,1.6607
3713.00,1.6773
3712.00,1.6949
3711.00,1.7130
3710.00,1.7302
3709.00,1.7460
3708.00,1.7602
3707.00,1.7727
3706.00,1.7830
3705.00,1.7917
3704.00,1.7995
3703.00,1.8068
3702.00,1.8136
3701.00,1.8203
3700.00,1.8268
3699.00,1.8324
3698.00,1.8370
3697.00,1.8411
3696.00,1.8453
3695.00,1.8491
3694.00,1.8519
3693.00,1.8543
3692.00,1.8572
3691.00,1.8610
3690.00,1.8649
3689.00,1.8680
3688.00,1.8703
3687.00,1.8720
3686.00,1.8734
3685.00,1.8748
3684.00,1.8762
3683.00,1.8770
3682.00,1.8771
3681.00,1.8772
3680.00,1.8771
3679.00,1.8762
3678.00,1.8745
3677.00,1.8728
3676.00,1.8705
3675.00,1.8667
3674.00,1.8619
3673.00,1.8572
3672.00,1.8537
3671.00,1.8509
3670.00,1.8478
3669.00,1.8438
3668.00,1.8396
3667.00,1.8352
3666.00,1.8308
3665.00,1.8263
3664.00,1.8213
3663.00,1.8157
3662.00,1.8094
3661.00,1.8026
3660.00,1.7955
3659.00,1.7878
3658.00,1.7794
3657.00,1.7702
3656.00,1.7605
3655.00,1.7510
3654.00,1.7417
3653.00,1.7327
3652.00,1.7238
3651.00,1.7152
3650.00,1.7064
3649.00,1.6969
3648.00,1.6870
3647.00,1.6776
3646.00,1.6694
3645.00,1.6622
3644.00,1.6555
3643.00,1.6484
3642.00,1.6402
3641.00,1.6310
3640.00,1.6207
3639.00,1.6092
3638.00,1.5963
3637.00,1.5818
3636.00,1.5660
3635.00,1.5490
3634.00,1.5312
3633.00,1.5124
3632.00,1.4922
3631.00,1.4699
3630.00,1.4450
3629.00,1.4171
3628.00,1.3878
3627.00,1.3603
3626.00,1.3373
3625.00,1.3195
3624.00,1.3059
3623.00,1.2952
3622.00,1.2866
3621.00,1.2802
3620.00,1.2756
3619.00,1.2720
3618.00,1.2686
3617.00,1.2655
3616.00,1.2629
3615.00,1.2611
3614.00,1.2597
3613.00,1.2582
3612.00,1.2562
3611.00,1.2538
3610.00,1.2514
3609.00,1.2496
3608.00,1.2486
3607.00,1.2488
3606.00,1.2499
3605.00,1.2522
3604.00,1.2558
3603.00,1.2609
3602.00,1.2674
3601.00,1.2752
3600.00,1.2843
3599.00,1.2942
3598.00,1.3047
3597.00,1.3157
3596.00,1.3276
3595.00,1.3407
3594.00,1.3550
3593.00,1.3707
3592.00,1.3870
3591.00,1.4032
3590.00,1.4189
3589.00,1.4346
3588.00,1.4509
3587.00,1.4679
3586.00,1.4856
3585.00,1.5039
3584.00,1.5224
3583.00,1.5405
3582.00,1.5583
3581.00,1.5759
3580.00,1.5936
3579.00,1.6113
3578.00,1.6289
3577.00,1.6463
3576.00,1.6635
3575.00,1.6802
3574.00,1.6969
3573.00,1.7137
3572.00,1.7304
3571.00,1.7463
3570.00,1.7606
3569.00,1.7736
3568.00,1.7861
3567.00,1.7984
3566.00,1.8110
3565.00,1.8238
3564.00,1.8366
3563.00,1.8487
3562.00,1.8600
3561.00,1.8705
3560.00,1.8803
3559.00,1.8892
3558.00,1.8976
3557.00,1.9057
3556.00,1.9135
3555.00,1.9205
3554.00,1.9269
3553.00,1.9332
3552.00,1.9397
3551.00,1.9464
3550.00,1.9528
3549.00,1.9584
3548.00,1.9628
3547.00,1.9658
3546.00,1.9680
3545.00,1.9701
3544.00,1.9721
3543.00,1.9738
3542.00,1.9751
3541.00,1.9762
3540.00,1.9772
3539.00,1.9776
3538.00,1.9776
3537.00,1.9775
3536.00,1.9773
3535.00,1.9766
3534.00,1.9753
3533.00,1.9736
3532.00,1.9715
3531.00,1.9688
3530.00,1.9657
3529.00,1.9626
3528.00,1.9594
3527.00,1.9556
3526.00,1.9509
3525.00,1.9453
3524.00,1.9393
3523.00,1.9328
3522.00,1.9260
3521.00,1.9193
3520.00,1.9125
3519.00,1.9051
3518.00,1.8969
3517.00,1.8880
3516.00,1.8786
3515.00,1.8688
3514.00,1.8585
3513.00,1.8476
3512.00,1.8362
3511.00,1.8239
3510.00,1.8107
3509.00,1.7966
3508.00,1.7820
3507.00,1.7669
3506.00,1.7515
3505.00,1.7358
3504.00,1.7195
3503.00,1.7023
3502.00,1.6840
3501.00,1.6649
3500.00,1.6454
3499.00,1.6253
3498.00,1.6046
3497.00,1.5831
3496.00,1.5610
3495.00,1.5383
3494.00,1.5148
3493.00,1.4906
3492.00,1.4658
3491.00,1.4405
3490.00,1.4150
3489.00,1.3894
3488.00,1.3638
3487.00,1.3381
3486.00,1.3125
3485.00,1.2873
3484.00,1.2627
3483.00,1.2388
3482.00,1.2156
3481.00,1.1934
3480.00,1.1723
3479.00,1.1527
3478.00,1.1348
3477.00,1.1188
3476.00,1.1048
3475.00,1.0928
3474.00,1.0828
3473.00,1.0750
3472.00,1.0695
3471.00,1.0664
3470.00,1.0657
3469.00,1.0673
3468.00,1.0712
3467.00,1.0774
3466.00,1.0857
3465.00,1.0961
3464.00,1.1084
3463.00,1.1225
3462.00,1.1382
3461.00,1.1551
3460.00,1.1732
3459.00,1.1922
3458.00,1.2121
3457.00,1.2328
3456.00,1.2543
3455.00,1.2764
3454.00,1.2989
3453.00,1.3215
3452.00,1.3442
3451.00,1.3669
3450.00,1.3897
3449.00,1.4125
3448.00,1.4355
3447.00,1.4584
3446.00,1.4812
3445.00,1.5039
3444.00,1.5263
3443.00,1.5485
3442.00,1.5703
3441.00,1.5917
3440.00,1.6128
3439.00,1.6335
3438.00,1.6536
3437.00,1.6731
3436.00,1.6921
3435.00,1.7106
3434.00,1.7288
3433.00,1.7468
3432.00,1.7646
3431.00,1.7818
3430.00,1.7985
3429.00,1.8146
3428.00,1.8301
3427.00,1.8448
3426.00,1.8585
3425.00,1.8714
3424.00,1.8838
3423.00,1.8957
3422.00,1.9073
3421.00,1.9183
3420.00,1.9287
3419.00,1.9382
3418.00,1.9468
3417.00,1.9547
3416.00,1.9621
3415.00,1.9692
3414.00,1.9759
3413.00,1.9820
3412.00,1.9874
3411.00,1.9919
3410.00,1.9962
3409.00,2.0007
3408.00,2.0052
3407.00,2.0091
3406.00,2.0121
3405.00,2.0147
3404.00,2.0171
3403.00,2.0191
3402.00,2.0203
3401.00,2.0209
3400.00,2.0211
3399.00,2.0212
3398.00,2.0210
3397.00,2.0204
3396.00,2.0190
3395.00,2.0166
3394.00,2.0136
3393.00,2.0103
3392.00,2.0068
3391.00,2.0028
3390.00,1.9980
3389.00,1.9929
3388.00,1.9875
3387.00,1.9817
3386.00,1.9754
3385.00,1.9686
3384.00,1.9614
3383.00,1.9535
3382.00,1.9452
3381.00,1.9365
3380.00,1.9276
3379.00,1.9183
3378.00,1.9083
3377.00,1.8974
3376.00,1.8858
3375.00,1.8735
3374.00,1.8605
3373.00,1.8468
3372.00,1.8323
3371.00,1.8172
3370.00,1.8014
3369.00,1.7849
3368.00,1.7678
3367.00,1.7501
3366.00,1.7317
3365.00,1.7124
3364.00,1.6921
3363.00,1.6709
3362.00,1.6489
3361.00,1.6262
3360.00,1.6028
3359.00,1.5786
3358.00,1.5537
3357.00,1.5281
3356.00,1.5018
3355.00,1.4748
3354.00,1.4471
3353.00,1.4191
3352.00,1.3910
3351.00,1.3629
3350.00,1.3348
3349.00,1.3069
3348.00,1.2794
3347.00,1.2526
3346.00,1.2267
3345.00,1.2019
3344.00,1.1784
3343.00,1.1564
3342.00,1.1361
3341.00,1.1178
3340.00,1.1018
3339.00,1.0881
3338.00,1.0769
3337.00,1.0683
3336.00,1.0623
3335.00,1.0590
3334.00,1.0586
3333.00,1.0611
3332.00,1.0662
3331.00,1.0739
3330.00,1.0839
3329.00,1.0962
3328.00,1.1105
3327.00,1.1266
3326.00,1.1441
3325.00,1.1627
3324.00,1.1824
3323.00,1.2028
3322.00,1.2239
3321.00,1.2457
3320.00,1.2681
3319.00,1.2910
3318.00,1.3143
3317.00,1.3379
3316.00,1.3619
3315.00,1.3860
3314.00,1.4102
3313.00,1.4345
3312.00,1.4588
3311.00,1.4831
3310.00,1.5075
3309.00,1.5318
3308.00,1.5557
3307.00,1.5792
3306.00,1.6022
3305.00,1.6249
3304.00,1.6474
3303.00,1.6695
3302.00,1.6910
3301.00,1.7121
3300.00,1.7328
3299.00,1.7530
3298.00,1.7725
3297.00,1.7916
3296.00,1.8101
3295.00,1.8280
3294.00,1.8449
3293.00,1.8610
3292.00,1.8762
3291.00,1.8907
3290.00,1.9050
3289.00,1.9191
3288.00,1.9328
3287.00,1.9457
3286.00,1.9573
3285.00,1.9678
3284.00,1.9775
3283.00,1.9868
3282.00,1.9961
3281.00,2.0054
3280.00,2.0143
3279.00,2.0223
3278.00,2.0292
3277.00,2.0354
3276.00,2.0411
3275.00,2.0463
3274.00,2.0515
3273.00,2.0569
3272.00,2.0625
3271.00,2.0675
3270.00,2.0712
3269.00,2.0738
3268.00,2.0757
3267.00,2.0774
3266.00,2.0792
3265.00,2.0810
3264.00,2.0826
3263.00,2.0835
3262.00,2.0835
3261.00,2.0824
3260.00,2.0803
3259.00,2.0777
3258.00,2.0751
3257.00,2.0727
3256.00,2.0703
3255.00,2.0671
3254.00,2.0627
3253.00,2.0575
3252.00,2.0521
3251.00,2.0466
3250.00,2.0411
3249.00,2.0352
3248.00,2.0285
3247.00,2.0211
3246.00,2.0131
3245.00,2.0050
3244.00,1.9968
3243.00,1.9882
3242.00,1.9789
3241.00,1.9686
3240.00,1.9574
3239.00,1.9453
3238.00,1.9325
3237.00,1.9193
3236.00,1.9055
3235.00,1.8909
3234.00,1.8754
3233.00,1.8593
3232.00,1.8427
3231.00,1.8254
3230.00,1.8073
3229.00,1.7883
3228.00,1.7685
3227.00,1.7480
3226.00,1.7266
3225.00,1.7044
3224.00,1.6815
3223.00,1.6577
3222.00,1.6332
3221.00,1.6080
3220.00,1.5823
3219.00,1.5561
3218.00,1.5295
3217.00,1.5028
3216.00,1.4761
3215.00,1.4497
3214.00,1.4237
3213.00,1.3987
3212.00,1.3747
3211.00,1.3522
3210.00,1.3314
3209.00,1.3126
3208.00,1.2960
3207.00,1.2817
3206.00,1.2696
3205.00,1.2597
3204.00,1.2515
3203.00,1.2442
3202.00,1.2373
3201.00,1.2301
3200.00,1.2225
3199.00,1.2147
3198.00,1.2074
3197.00,1.2013
3196.00,1.1971
3195.00,1.1955
3194.00,1.1969
3193.00,1.2015
3192.00,1.2094
3191.00,1.2203
3190.00,1.2340
3189.00,1.2503
3188.00,1.2689
3187.00,1.2895
3186.00,1.3118
3185.00,1.3353
3184.00,1.3600
3183.00,1.3856
3182.00,1.4119
3181.00,1.4390
3180.00,1.4669
3179.00,1.4955
3178.00,1.5246
3177.00,1.5541
3176.00,1.5840
3175.00,1.6140
3174.00,1.6441
3173.00,1.6746
3172.00,1.7054
3171.00,1.7364
3170.00,1.7672
3169.00,1.7972
3168.00,1.8259
3167.00,1.8519
3166.00,1.8734
3165.00,1.8887
3164.00,1.8971
3163.00,1.8992
3162.00,1.8972
3161.00,1.8942
3160.00,1.8926
3159.00,1.8942
3158.00,1.8996
3157.00,1.9083
3156.00,1.9194
3155.00,1.9317
3154.00,1.9449
3153.00,1.9589
3152.00,1.9735
3151.00,1.9882
3150.00,2.0024
3149.00,2.0162
3148.00,2.0294
3147.00,2.0416
3146.00,2.0528
3145.00,2.0629
3144.00,2.0725
3143.00,2.0818
3142.00,2.0908
3141.00,2.0991
3140.00,2.1070
3139.00,2.1146
3138.00,2.1221
3137.00,2.1292
3136.00,2.1356
3135.00,2.1409
3134.00,2.1453
3133.00,2.1490
3132.00,2.1521
3131.00,2.1546
3130.00,2.1568
3129.00,2.1589
3128.00,2.1611
3127.00,2.1629
3126.00,2.1640
3125.00,2.1644
3124.00,2.1639
3123.00,2.1628
3122.00,2.1613
3121.00,2.1596
3120.00,2.1575
3119.00,2.1550
3118.00,2.1522
3117.00,2.1490
3116.00,2.1454
3115.00,2.1407
3114.00,2.1352
3113.00,2.1293
3112.00,2.1235
3111.00,2.1176
3110.00,2.1109
3109.00,2.1033
3108.00,2.0947
3107.00,2.0854
3106.00,2.0759
3105.00,2.0665
3104.00,2.0570
3103.00,2.0471
3102.00,2.0365
3101.00,2.0251
3100.00,2.0126
3099.00,1.9993
3098.00,1.9854
3097.00,1.9713
3096.00,1.9569
3095.00,1.9417
3094.00,1.9256
3093.00,1.9087
3092.00,1.8911
3091.00,1.8729
3090.00,1.8543
3089.00,1.8352
3088.00,1.8155
3087.00,1.7950
3086.00,1.7736
3085.00,1.7516
3084.00,1.7290
3083.00,1.7059
3082.00,1.6824
3081.00,1.6586
3080.00,1.6345
3079.00,1.6102
3078.00,1.5857
3077.00,1.5612
3076.00,1.5370
3075.00,1.5132
3074.00,1.4900
3073.00,1.4678
3072.00,1.4466
3071.00,1.4265
3070.00,1.4080
3069.00,1.3910
3068.00,1.3759
3067.00,1.3626
3066.00,1.3514
3065.00,1.3424
3064.00,1.3360
3063.00,1.3320
3062.00,1.3306
3061.00,1.3317
3060.00,1.3351
3059.00,1.3407
3058.00,1.3486
3057.00,1.3587
3056.00,1.3709
3055.00,1.3849
3054.00,1.4005
3053.00,1.4176
3052.00,1.4361
3051.00,1.4558
3050.00,1.4766
3049.00,1.4984
3048.00,1.5209
3047.00,1.5439
3046.00,1.5674
3045.00,1.5913
3044.00,1.6155
3043.00,1.6400
3042.00,1.6646
3041.00,1.6893
3040.00,1.7140
3039.00,1.7388
3038.00,1.7633
3037.00,1.7875
3036.00,1.8115
3035.00,1.8351
3034.00,1.8584
3033.00,1.8816
3032.00,1.9046
3031.00,1.9271
3030.00,1.9488
3029.00,1.9697
3028.00,1.9898
3027.00,2.0093
3026.00,2.0284
3025.00,2.0472
3024.00,2.0652
3023.00,2.0822
3022.00,2.0982
3021.00,2.1139
3020.00,2.1296
3019.00,2.1451
3018.00,2.1600
3017.00,2.1742
3016.00,2.1879
3015.00,2.2012
3014.00,2.2143
3013.00,2.2271
3012.00,2.2390
3011.00,2.2495
3010.00,2.2588
3009.00,2.2674
3008.00,2.2757
3007.00,2.2838
3006.00,2.2921
3005.00,2.3005
3004.00,2.3083
3003.00,2.3145
3002.00,2.3186
3001.00,2.3208
3000.00,2.3220
2999.00,2.3225
2998.00,2.3226
2997.00,2.3223
2996.00,2.3216
2995.00,2.3203
2994.00,2.3188
2993.00,2.3177
2992.00,2.3170
2991.00,2.3158
2990.00,2.3139
2989.00,2.3122
2988.00,2.3114
2987.00,2.3114
2986.00,2.3112
2985.00,2.3101
2984.00,2.3076
2983.00,2.3039
2982.00,2.2995
2981.00,2.2955
2980.00,2.2924
2979.00,2.2901
2978.00,2.2877
2977.00,2.2847
2976.00,2.2814
2975.00,2.2782
2974.00,2.2750
2973.00,2.2716
2972.00,2.2682
2971.00,2.2651
2970.00,2.2626
2969.00,2.2609
2968.00,2.2604
2967.00,2.2612
2966.00,2.2628
2965.00,2.2645
2964.00,2.2656
2963.00,2.2660
2962.00,2.2665
2961.00,2.2679
2960.00,2.2700
2959.00,2.2729
2958.00,2.2765
2957.00,2.2812
2956.00,2.2870
2955.00,2.2941
2954.00,2.3029
2953.00,2.3138
2952.00,2.3271
2951.00,2.3426
2950.00,2.3601
2949.00,2.3795
2948.00,2.4008
2947.00,2.4232
2946.00,2.4451
2945.00,2.4640
2944.00,2.4773
2943.00,2.4838
2942.00,2.4829
2941.00,2.4746
2940.00,2.4585
2939.00,2.4362
2938.00,2.4108
2937.00,2.3853
2936.00,2.3608
2935.00,2.3369
2934.00,2.3132
2933.00,2.2896
2932.00,2.2656
2931.00,2.2407
2930.00,2.2146
2929.00,2.1879
2928.00,2.1611
2927.00,2.1342
2926.00,2.1074
2925.00,2.0802
2924.00,2.0524
2923.00,2.0233
2922.00,1.9929
2921.00,1.9617
2920.00,1.9304
2919.00,1.8995
2918.00,1.8689
2917.00,1.8389
2916.00,1.8095
2915.00,1.7812
2914.00,1.7544
2913.00,1.7294
2912.00,1.7060
2911.00,1.6844
2910.00,1.6646
2909.00,1.6469
2908.00,1.6312
2907.00,1.6175
2906.00,1.6058
2905.00,1.5964
2904.00,1.5894
2903.00,1.5851
2902.00,1.5833
2901.00,1.5840
2900.00,1.5870
2899.00,1.5923
2898.00,1.5999
2897.00,1.6096
2896.00,1.6214
2895.00,1.6351
2894.00,1.6506
2893.00,1.6681
2892.00,1.6875
2891.00,1.7085
2890.00,1.7307
2889.00,1.7539
2888.00,1.7781
2887.00,1.8030
2886.00,1.8286
2885.00,1.8547
2884.00,1.8814
2883.00,1.9082
2882.00,1.9349
2881.00,1.9612
2880.00,1.9869
2879.00,2.0123
2878.00,2.0373
2877.00,2.0619
2876.00,2.0858
2875.00,2.1081
2874.00,2.1281
2873.00,2.1455
2872.00,2.1609
2871.00,2.1746
2870.00,2.1868
2869.00,2.1970
2868.00,2.2047
2867.00,2.2099
2866.00,2.2136
2865.00,2.2172
2864.00,2.2211
2863.00,2.2249
2862.00,2.2281
2861.00,2.2307
2860.00,2.2328
2859.00,2.2346
2858.00,2.2363
2857.00,2.2387
2856.00,2.2421
2855.00,2.2469
2854.00,2.2532
2853.00,2.2605
2852.00,2.2681
2851.00,2.2754
2850.00,2.2824
2849.00,2.2895
2848.00,2.2966
2847.00,2.3032
2846.00,2.3089
2845.00,2.3145
2844.00,2.3207
2843.00,2.3272
2842.00,2.3331
2841.00,2.3374
2840.00,2.3397
2839.00,2.3404
2838.00,2.3408
2837.00,2.3419
2836.00,2.3435
2835.00,2.3451
2834.00,2.3463
2833.00,2.3469
2832.00,2.3468
2831.00,2.3459
2830.00,2.3441
2829.00,2.3416
2828.00,2.3383
2827.00,2.3339
2826.00,2.3290
2825.00,2.3241
2824.00,2.3196
2823.00,2.3150
2822.00,2.3092
2821.00,2.3015
2820.00,2.2925
2819.00,2.2830
2818.00,2.2740
2817.00,2.2652
2816.00,2.2559
2815.00,2.2461
2814.00,2.2357
2813.00,2.2247
2812.00,2.2126
2811.00,2.1991
2810.00,2.1848
2809.00,2.1704
2808.00,2.1558
2807.00,2.1402
2806.00,2.1230
2805.00,2.1045
2804.00,2.0850
2803.00,2.0648
2802.00,2.0439
2801.00,2.0223
2800.00,1.9997
2799.00,1.9760
2798.00,1.9511
2797.00,1.9248
2796.00,1.8970
2795.00,1.8675
2794.00,1.8364
2793.00,1.8039
2792.00,1.7699
2791.00,1.7346
2790.00,1.6979
2789.00,1.6598
2788.00,1.6204
2787.00,1.5797
2786.00,1.5382
2785.00,1.4964
2784.00,1.4546
2783.00,1.4132
2782.00,1.3729
2781.00,1.3340
2780.00,1.2971
2779.00,1.2627
2778.00,1.2311
2777.00,1.2030
2776.00,1.1787
2775.00,1.1587
2774.00,1.1434
2773.00,1.1330
2772.00,1.1278
2771.00,1.1277
2770.00,1.1326
2769.00,1.1424
2768.00,1.1568
2767.00,1.1752
2766.00,1.1971
2765.00,1.2221
2764.00,1.2496
2763.00,1.2790
2762.00,1.3101
2761.00,1.3424
2760.00,1.3757
2759.00,1.4095
2758.00,1.4438
2757.00,1.4784
2756.00,1.5131
2755.00,1.5480
2754.00,1.5828
2753.00,1.6174
2752.00,1.6517
2751.00,1.6855
2750.00,1.7188
2749.00,1.7518
2748.00,1.7845
2747.00,1.8168
2746.00,1.8484
2745.00,1.8791
2744.00,1.9089
2743.00,1.9379
2742.00,1.9661
2741.00,1.9938
2740.00,2.0205
2739.00,2.0460
2738.00,2.0700
2737.00,2.0926
2736.00,2.1141
2735.00,2.1345
2734.00,2.1541
2733.00,2.1731
2732.00,2.1915
2731.00,2.2089
2730.00,2.2251
2729.00,2.2405
2728.00,2.2553
2727.00,2.2698
2726.00,2.2839
2725.00,2.2974
2724.00,2.3098
2723.00,2.3207
2722.00,2.3301
2721.00,2.3386
2720.00,2.3467
2719.00,2.3544
2718.00,2.3620
2717.00,2.3694
2716.00,2.3765
2715.00,2.3827
2714.00,2.3883
2713.00,2.3937
2712.00,2.3993
2711.00,2.4047
2710.00,2.4098
2709.00,2.4143
2708.00,2.4181
2707.00,2.4209
2706.00,2.4225
2705.00,2.4234
2704.00,2.4241
2703.00,2.4251
2702.00,2.4261
2701.00,2.4271
2700.00,2.4278
2699.00,2.4277
2698.00,2.4263
2697.00,2.4231
2696.00,2.4184
2695.00,2.4132
2694.00,2.4087
2693.00,2.4054
2692.00,2.4022
2691.00,2.3976
2690.00,2.3911
2689.00,2.3834
2688.00,2.3757
2687.00,2.3686
2686.00,2.3619
2685.00,2.3547
2684.00,2.3466
2683.00,2.3371
2682.00,2.3266
2681.00,2.3158
2680.00,2.3051
2679.00,2.2946
2678.00,2.2836
2677.00,2.2716
2676.00,2.2583
2675.00,2.2440
2674.00,2.2285
2673.00,2.2118
2672.00,2.1940
2671.00,2.1755
2670.00,2.1567
2669.00,2.1376
2668.00,2.1177
2667.00,2.0962
2666.00,2.0729
2665.00,2.0483
2664.00,2.0223
2663.00,1.9948
2662.00,1.9657
2661.00,1.9351
2660.00,1.9031
2659.00,1.8697
2658.00,1.8347
2657.00,1.7979
2656.00,1.7591
2655.00,1.7187
2654.00,1.6767
2653.00,1.6336
2652.00,1.5893
2651.00,1.5440
2650.00,1.4981
2649.00,1.4521
2648.00,1.4069
2647.00,1.3631
2646.00,1.3213
2645.00,1.2824
2644.00,1.2471
2643.00,1.2161
2642.00,1.1901
2641.00,1.1698
2640.00,1.1558
2639.00,1.1486
2638.00,1.1486
2637.00,1.1561
2636.00,1.1710
2635.00,1.1932
2634.00,1.2220
2633.00,1.2567
2632.00,1.2956
2631.00,1.3368
2630.00,1.3773
2629.00,1.4145
2628.00,1.4464
2627.00,1.4726
2626.00,1.4943
2625.00,1.5137
2624.00,1.5332
2623.00,1.5541
2622.00,1.5773
2621.00,1.6028
2620.00,1.6305
2619.00,1.6599
2618.00,1.6904
2617.00,1.7216
2616.00,1.7533
2615.00,1.7853
2614.00,1.8175
2613.00,1.8497
2612.00,1.8818
2611.00,1.9138
2610.00,1.9458
2609.00,1.9772
2608.00,2.0078
2607.00,2.0374
2606.00,2.0658
2605.00,2.0934
2604.00,2.1200
2603.00,2.1456
2602.00,2.1703
2601.00,2.1941
2600.00,2.2165
2599.00,2.2371
2598.00,2.2559
2597.00,2.2739
2596.00,2.2918
2595.00,2.3095
2594.00,2.3262
2593.00,2.3412
2592.00,2.3544
2591.00,2.3669
2590.00,2.3798
2589.00,2.3929
2588.00,2.4054
2587.00,2.4165
2586.00,2.4266
2585.00,2.4364
2584.00,2.4463
2583.00,2.4559
2582.00,2.4652
2581.00,2.4737
2580.00,2.4809
2579.00,2.4867
2578.00,2.4919
2577.00,2.4974
2576.00,2.5029
2575.00,2.5076
2574.00,2.5109
2573.00,2.5133
2572.00,2.5154
2571.00,2.5176
2570.00,2.5198
2569.00,2.5215
2568.00,2.5224
2567.00,2.5229
2566.00,2.5237
2565.00,2.5250
2564.00,2.5255
2563.00,2.5242
2562.00,2.5212
2561.00,2.5182
2560.00,2.5161
2559.00,2.5150
2558.00,2.5138
2557.00,2.5110
2556.00,2.5057
2555.00,2.4982
2554.00,2.4900
2553.00,2.4820
2552.00,2.4744
2551.00,2.4670
2550.00,2.4598
2549.00,2.4529
2548.00,2.4458
2547.00,2.4376
2546.00,2.4276
2545.00,2.4156
2544.00,2.4022
2543.00,2.3885
2542.00,2.3756
2541.00,2.3638
2540.00,2.3520
2539.00,2.3389
2538.00,2.3240
2537.00,2.3075
2536.00,2.2900
2535.00,2.2718
2534.00,2.2530
2533.00,2.2335
2532.00,2.2130
2531.00,2.1911
2530.00,2.1680
2529.00,2.1435
2528.00,2.1175
2527.00,2.0899
2526.00,2.0611
2525.00,2.0313
2524.00,2.0003
2523.00,1.9677
2522.00,1.9331
2521.00,1.8963
2520.00,1.8575
2519.00,1.8167
2518.00,1.7740
2517.00,1.7297
2516.00,1.6839
2515.00,1.6369
2514.00,1.5892
2513.00,1.5413
2512.00,1.4939
2511.00,1.4476
2510.00,1.4033
2509.00,1.3617
2508.00,1.3235
2507.00,1.2892
2506.00,1.2594
2505.00,1.2347
2504.00,1.2156
2503.00,1.2025
2502.00,1.1956
2501.00,1.1951
2500.00,1.2009
2499.00,1.2128
2498.00,1.2302
2497.00,1.2527
2496.00,1.2796
2495.00,1.3101
2494.00,1.3434
2493.00,1.3788
2492.00,1.4158
2491.00,1.4539
2490.00,1.4926
2489.00,1.5318
2488.00,1.5710
2487.00,1.6100
2486.00,1.6488
2485.00,1.6874
2484.00,1.7259
2483.00,1.7641
2482.00,1.8019
2481.00,1.8391
2480.00,1.8755
2479.00,1.9110
2478.00,1.9458
2477.00,1.9802
2476.00,2.0141
2475.00,2.0472
2474.00,2.0792
2473.00,2.1103
2472.00,2.1401
2471.00,2.1685
2470.00,2.1954
2469.00,2.2209
2468.00,2.2456
2467.00,2.2694
2466.00,2.2925
2465.00,2.3144
2464.00,2.3351
2463.00,2.3544
2462.00,2.3728
2461.00,2.3907
2460.00,2.4079
2459.00,2.4239
2458.00,2.4390
2457.00,2.4536
2456.00,2.4677
2455.00,2.4808
2454.00,2.4927
2453.00,2.5036
2452.00,2.5140
2451.00,2.5239
2450.00,2.5332
2449.00,2.5419
2448.00,2.5504
2447.00,2.5589
2446.00,2.5680
2445.00,2.5776
2444.00,2.5868
2443.00,2.5946
2442.00,2.6009
2441.00,2.6062
2440.00,2.6108
2439.00,2.6146
2438.00,2.6187
2437.00,2.6237
2436.00,2.6288
2435.00,2.6324
2434.00,2.6331
2433.00,2.6316
2432.00,2.6291
2431.00,2.6269
2430.00,2.6260
2429.00,2.6265
2428.00,2.6274
2427.00,2.6276
2426.00,2.6270
2425.00,2.6255
2424.00,2.6223
2423.00,2.6166
2422.00,2.6095
2421.00,2.6035
2420.00,2.6000
2419.00,2.5982
2418.00,2.5959
2417.00,2.5918
2416.00,2.5859
2415.00,2.5792
2414.00,2.5724
2413.00,2.5654
2412.00,2.5577
2411.00,2.5491
2410.00,2.5405
2409.00,2.5324
2408.00,2.5242
2407.00,2.5146
2406.00,2.5036
2405.00,2.4919
2404.00,2.4800
2403.00,2.4672
2402.00,2.4529
2401.00,2.4373
2400.00,2.4210
2399.00,2.4041
2398.00,2.3864
2397.00,2.3679
2396.00,2.3491
2395.00,2.3308
2394.00,2.3143
2393.00,2.3014
2392.00,2.2941
2391.00,2.2948
2390.00,2.3051
2389.00,2.3260
2388.00,2.3570
2387.00,2.3962
2386.00,2.4401
2385.00,2.4835
2384.00,2.5212
2383.00,2.5495
2382.00,2.5671
2381.00,2.5751
2380.00,2.5753
2379.00,2.5719
2378.00,2.5698
2377.00,2.5719
2376.00,2.5779
2375.00,2.5881
2374.00,2.6044
2373.00,2.6249
2372.00,2.6455
2371.00,2.6680
2370.00,2.6917
2369.00,2.7125
2368.00,2.7319
2367.00,2.7470
2366.00,2.7594
2365.00,2.7702
2364.00,2.7755
2363.00,2.7790
2362.00,2.7790
2361.00,2.7760
2360.00,2.7679
2359.00,2.7678
2358.00,2.7970
2357.00,2.8412
2356.00,2.8732
2355.00,2.8820
2354.00,2.8967
2353.00,2.9496
2352.00,3.0228
2351.00,3.0810
2350.00,3.0959
2349.00,3.0796
2348.00,3.0557
2347.00,3.0346
2346.00,3.0210
2345.00,3.0115
2344.00,3.0056
2343.00,3.0027
2342.00,3.0066
2341.00,3.0188
2340.00,3.0385
2339.00,3.0570
2338.00,3.0744
2337.00,3.0804
2336.00,3.0826
2335.00,3.0827
2334.00,3.0837
2333.00,3.0892
2332.00,3.0958
2331.00,3.1104
2330.00,3.1261
2329.00,3.1370
2328.00,3.1350
2327.00,3.1167
2326.00,3.0902
2325.00,3.0609
2324.00,3.0400
2323.00,3.0271
2322.00,3.0250
2321.00,3.0276
2320.00,3.0324
2319.00,3.0320
2318.00,3.0253
2317.00,3.0116
2316.00,2.9943
2315.00,2.9747
2314.00,2.9552
2313.00,2.9369
2312.00,2.9216
2311.00,2.9094
2310.00,2.9009
2309.00,2.8939
2308.00,2.8881
2307.00,2.8821
2306.00,2.8775
2305.00,2.8748
2304.00,2.8736
2303.00,2.8711
2302.00,2.8658
2301.00,2.8592
2300.00,2.8540
2299.00,2.8527
2298.00,2.8549
2297.00,2.8600
2296.00,2.8657
2295.00,2.8706
2294.00,2.8734
2293.00,2.8734
2292.00,2.8690
2291.00,2.8594
2290.00,2.8462
2289.00,2.8330
2288.00,2.8231
2287.00,2.8171
2286.00,2.8138
2285.00,2.8114
2284.00,2.8088
2283.00,2.8041
2282.00,2.7961
2281.00,2.7847
2280.00,2.7713
2279.00,2.7571
2278.00,2.7420
2277.00,2.7247
2276.00,2.7047
2275.00,2.6821
2274.00,2.6578
2273.00,2.6316
2272.00,2.6027
2271.00,2.5706
2270.00,2.5351
2269.00,2.4959
2268.00,2.4520
2267.00,2.4039
2266.00,2.3540
2265.00,2.3065
2264.00,2.2676
2263.00,2.2442
2262.00,2.2443
2261.00,2.2747
2260.00,2.3402
2259.00,2.4436
2258.00,2.5855
2257.00,2.7658
2256.00,2.9829
2255.00,3.2291
2254.00,3.4763
2253.00,3.6544
2252.00,3.6840
2251.00,3.5874
2250.00,3.4485
2249.00,3.3132
2248.00,3.1947
2247.00,3.0940
2246.00,3.0092
2245.00,2.9380
2244.00,2.8775
2243.00,2.8249
2242.00,2.7780
2241.00,2.7353
2240.00,2.6951
2239.00,2.6549
2238.00,2.6131
2237.00,2.5692
2236.00,2.5239
2235.00,2.4778
2234.00,2.4310
2233.00,2.3825
2232.00,2.3318
2231.00,2.2786
2230.00,2.2238
2229.00,2.1680
2228.00,2.1108
2227.00,2.0512
2226.00,1.9885
2225.00,1.9229
2224.00,1.8552
2223.00,1.7864
2222.00,1.7177
2221.00,1.6509
2220.00,1.5879
2219.00,1.5306
2218.00,1.4806
2217.00,1.4396
2216.00,1.4087
2215.00,1.3888
2214.00,1.3803
2213.00,1.3831
2212.00,1.3970
2211.00,1.4210
2210.00,1.4539
2209.00,1.4943
2208.00,1.5405
2207.00,1.5906
2206.00,1.6426
2205.00,1.6941
2204.00,1.7425
2203.00,1.7862
2202.00,1.8256
2201.00,1.8625
2200.00,1.8993
2199.00,1.9372
2198.00,1.9766
2197.00,2.0172
2196.00,2.0584
2195.00,2.0995
2194.00,2.1401
2193.00,2.1799
2192.00,2.2184
2191.00,2.2553
2190.00,2.2908
2189.00,2.3255
2188.00,2.3591
2187.00,2.3907
2186.00,2.4199
2185.00,2.4473
2184.00,2.4739
2183.00,2.4994
2182.00,2.5229
2181.00,2.5442
2180.00,2.5635
2179.00,2.5815
2178.00,2.5990
2177.00,2.6166
2176.00,2.6338
2175.00,2.6494
2174.00,2.6632
2173.00,2.6768
2172.00,2.6913
2171.00,2.7060
2170.00,2.7197
2169.00,2.7320
2168.00,2.7435
2167.00,2.7542
2166.00,2.7635
2165.00,2.7713
2164.00,2.7784
2163.00,2.7859
2162.00,2.7943
2161.00,2.8024
2160.00,2.8087
2159.00,2.8121
2158.00,2.8141
2157.00,2.8163
2156.00,2.8192
2155.00,2.8213
2154.00,2.8218
2153.00,2.8219
2152.00,2.8230
2151.00,2.8257
2150.00,2.8287
2149.00,2.8303
2148.00,2.8292
2147.00,2.8263
2146.00,2.8240
2145.00,2.8241
2144.00,2.8258
2143.00,2.8267
2142.00,2.8248
2141.00,2.8199
2140.00,2.8125
2139.00,2.8041
2138.00,2.7963
2137.00,2.7902
2136.00,2.7855
2135.00,2.7806
2134.00,2.7752
2133.00,2.7693
2132.00,2.7625
2131.00,2.7541
2130.00,2.7443
2129.00,2.7339
2128.00,2.7233
2127.00,2.7116
2126.00,2.6988
2125.00,2.6860
2124.00,2.6736
2123.00,2.6605
2122.00,2.6459
2121.00,2.6303
2120.00,2.6149
2119.00,2.5992
2118.00,2.5819
2117.00,2.5622
2116.00,2.5402
2115.00,2.5168
2114.00,2.4929
2113.00,2.4691
2112.00,2.4455
2111.00,2.4213
2110.00,2.3955
2109.00,2.3675
2108.00,2.3372
2107.00,2.3043
2106.00,2.2687
2105.00,2.2311
2104.00,2.1920
2103.00,2.1516
2102.00,2.1093
2101.00,2.0646
2100.00,2.0172
2099.00,1.9671
2098.00,1.9142
2097.00,1.8592
2096.00,1.8026
2095.00,1.7453
2094.00,1.6880
2093.00,1.6321
2092.00,1.5787
2091.00,1.5290
2090.00,1.4841
2089.00,1.4451
2088.00,1.4131
2087.00,1.3888
2086.00,1.3731
2085.00,1.3663
2084.00,1.3687
2083.00,1.3799
2082.00,1.3995
2081.00,1.4265
2080.00,1.4600
2079.00,1.4989
2078.00,1.5418
2077.00,1.5878
2076.00,1.6356
2075.00,1.6841
2074.00,1.7325
2073.00,1.7805
2072.00,1.8279
2071.00,1.8744
2070.00,1.9195
2069.00,1.9633
2068.00,2.0055
2067.00,2.0465
2066.00,2.0870
2065.00,2.1272
2064.00,2.1672
2063.00,2.2061
2062.00,2.2439
2061.00,2.2807
2060.00,2.3164
2059.00,2.3508
2058.00,2.3835
2057.00,2.4150
2056.00,2.4454
2055.00,2.4746
2054.00,2.5024
2053.00,2.5290
2052.00,2.5545
2051.00,2.5791
2050.00,2.6027
2049.00,2.6254
2048.00,2.6470
2047.00,2.6670
2046.00,2.6855
2045.00,2.7028
2044.00,2.7189
2043.00,2.7333
2042.00,2.7461
2041.00,2.7588
2040.00,2.7725
2039.00,2.7871
2038.00,2.8011
2037.00,2.8133
2036.00,2.8241
2035.00,2.8343
2034.00,2.8451
2033.00,2.8564
2032.00,2.8665
2031.00,2.8739
2030.00,2.8796
2029.00,2.8862
2028.00,2.8948
2027.00,2.9038
2026.00,2.9111
2025.00,2.9168
2024.00,2.9219
2023.00,2.9257
2022.00,2.9268
2021.00,2.9261
2020.00,2.9268
2019.00,2.9311
2018.00,2.9386
2017.00,2.9464
2016.00,2.9512
2015.00,2.9516
2014.00,2.9486
2013.00,2.9439
2012.00,2.9385
2011.00,2.9334
2010.00,2.9292
2009.00,2.9260
2008.00,2.9227
2007.00,2.9181
2006.00,2.9130
2005.00,2.9085
2004.00,2.9043
2003.00,2.8998
2002.00,2.8951
2001.00,2.8912
2000.00,2.8879
1999.00,2.8836
1998.00,2.8776
1997.00,2.8704
1996.00,2.8631
1995.00,2.8553
1994.00,2.8466
1993.00,2.8374
1992.00,2.8272
1991.00,2.8148
1990.00,2.8004
1989.00,2.7860
1988.00,2.7733
1987.00,2.7617
1986.00,2.7489
1985.00,2.7337
1984.00,2.7165
1983.00,2.6976
1982.00,2.6777
1981.00,2.6575
1980.00,2.6376
1979.00,2.6175
1978.00,2.5963
1977.00,2.5735
1976.00,2.5488
1975.00,2.5223
1974.00,2.4944
1973.00,2.4652
1972.00,2.4348
1971.00,2.4025
1970.00,2.3676
1969.00,2.3297
1968.00,2.2891
1967.00,2.2467
1966.00,2.2030
1965.00,2.1577
1964.00,2.1096
1963.00,2.0585
1962.00,2.0042
1961.00,1.9474
1960.00,1.8886
1959.00,1.8285
1958.00,1.7683
1957.00,1.7097
1956.00,1.6540
1955.00,1.6024
1954.00,1.5559
1953.00,1.5156
1952.00,1.4826
1951.00,1.4577
1950.00,1.4416
1949.00,1.4349
1948.00,1.4377
1947.00,1.4493
1946.00,1.4690
1945.00,1.4958
1944.00,1.5294
1943.00,1.5695
1942.00,1.6152
1941.00,1.6642
1940.00,1.7144
1939.00,1.7646
1938.00,1.8147
1937.00,1.8651
1936.00,1.9154
1935.00,1.9655
1934.00,2.0155
1933.00,2.0653
1932.00,2.1146
1931.00,2.1630
1930.00,2.2104
1929.00,2.2565
1928.00,2.3010
1927.00,2.3431
1926.00,2.3826
1925.00,2.4195
1924.00,2.4549
1923.00,2.4899
1922.00,2.5247
1921.00,2.5579
1920.00,2.5879
1919.00,2.6148
1918.00,2.6403
1917.00,2.6656
1916.00,2.6894
1915.00,2.7109
1914.00,2.7308
1913.00,2.7510
1912.00,2.7719
1911.00,2.7921
1910.00,2.8102
1909.00,2.8262
1908.00,2.8412
1907.00,2.8560
1906.00,2.8705
1905.00,2.8841
1904.00,2.8965
1903.00,2.9076
1902.00,2.9181
1901.00,2.9289
1900.00,2.9406
1899.00,2.9528
1898.00,2.9644
1897.00,2.9752
1896.00,2.9855
1895.00,2.9949
1894.00,3.0017
1893.00,3.0047
1892.00,3.0053
1891.00,3.0066
1890.00,3.0112
1889.00,3.0191
1888.00,3.0284
1887.00,3.0367
1886.00,3.0428
1885.00,3.0460
1884.00,3.0467
1883.00,3.0461
1882.00,3.0451
1881.00,3.0441
1880.00,3.0428
1879.00,3.0412
1878.00,3.0398
1877.00,3.0392
1876.00,3.0397
1875.00,3.0407
1874.00,3.0410
1873.00,3.0394
1872.00,3.0357
1871.00,3.0302
1870.00,3.0233
1869.00,3.0162
1868.00,3.0099
1867.00,3.0053
1866.00,3.0015
1865.00,2.9969
1864.00,2.9907
1863.00,2.9830
1862.00,2.9743
1861.00,2.9644
1860.00,2.9541
1859.00,2.9446
1858.00,2.9356
1857.00,2.9255
1856.00,2.9133
1855.00,2.9003
1854.00,2.8884
1853.00,2.8776
1852.00,2.8661
1851.00,2.8523
1850.00,2.8356
1849.00,2.8166
1848.00,2.7965
1847.00,2.7768
1846.00,2.7570
1845.00,2.7356
1844.00,2.7113
1843.00,2.6848
1842.00,2.6584
1841.00,2.6332
1840.00,2.6078
1839.00,2.5802
1838.00,2.5505
1837.00,2.5197
1836.00,2.4875
1835.00,2.4525
1834.00,2.4144
1833.00,2.3739
1832.00,2.3311
1831.00,2.2851
1830.00,2.2360
1829.00,2.1859
1828.00,2.1360
1827.00,2.0854
1826.00,2.0325
1825.00,1.9775
1824.00,1.9219
1823.00,1.8670
1822.00,1.8134
1821.00,1.7619
1820.00,1.7147
1819.00,1.6741
1818.00,1.6421
1817.00,1.6199
1816.00,1.6082
1815.00,1.6070
1814.00,1.6155
1813.00,1.6334
1812.00,1.6603
1811.00,1.6946
1810.00,1.7344
1809.00,1.7778
1808.00,1.8233
1807.00,1.8698
1806.00,1.9162
1805.00,1.9620
1804.00,2.0075
1803.00,2.0537
1802.00,2.1018
1801.00,2.1524
1800.00,2.2048
1799.00,2.2571
1798.00,2.3077
1797.00,2.3562
1796.00,2.4031
1795.00,2.4480
1794.00,2.4897
1793.00,2.5292
1792.00,2.5685
1791.00,2.6083
1790.00,2.6464
1789.00,2.6807
1788.00,2.7104
1787.00,2.7370
1786.00,2.7631
1785.00,2.7903
1784.00,2.8175
1783.00,2.8433
1782.00,2.8670
1781.00,2.8897
1780.00,2.9118
1779.00,2.9319
1778.00,2.9493
1777.00,2.9661
1776.00,2.9855
1775.00,3.0079
1774.00,3.0297
1773.00,3.0469
1772.00,3.0586
1771.00,3.0666
1770.00,3.0739
1769.00,3.0812
1768.00,3.0880
1767.00,3.0945
1766.00,3.1013
1765.00,3.1072
1764.00,3.1101
1763.00,3.1103
1762.00,3.1120
1761.00,3.1183
1760.00,3.1283
1759.00,3.1386
1758.00,3.1463
1757.00,3.1507
1756.00,3.1525
1755.00,3.1542
1754.00,3.1574
1753.00,3.1615
1752.00,3.1651
1751.00,3.1688
1750.00,3.1730
1749.00,3.1750
1748.00,3.1712
1747.00,3.1619
1746.00,3.1510
1745.00,3.1432
1744.00,3.1408
1743.00,3.1437
1742.00,3.1491
1741.00,3.1518
1740.00,3.1482
1739.00,3.1427
1738.00,3.1445
1737.00,3.1551
1736.00,3.1632
1735.00,3.1553
1734.00,3.1306
1733.00,3.1008
1732.00,3.0768
1731.00,3.0595
1730.00,3.0440
1729.00,3.0273
1728.00,3.0113
1727.00,2.9982
1726.00,2.9875
1725.00,2.9771
1724.00,2.9669
1723.00,2.9613
1722.00,2.9674
1721.00,2.9894
1720.00,3.0255
1719.00,3.0729
1718.00,3.1331
1717.00,3.2097
1716.00,3.3007
1715.00,3.3988
1714.00,3.5005
1713.00,3.6056
1712.00,3.7097
1711.00,3.8020
1710.00,3.8747
1709.00,3.9297
1708.00,3.9736
1707.00,3.9962
1706.00,3.9611
1705.00,3.8640
1704.00,3.7559
1703.00,3.6699
1702.00,3.5968
1701.00,3.5153
1700.00,3.4272
1699.00,3.3571
1698.00,3.3179
1697.00,3.2946
1696.00,3.2642
1695.00,3.2195
1694.00,3.1715
1693.00,3.1302
1692.00,3.0934
1691.00,3.0558
1690.00,3.0178
1689.00,2.9852
1688.00,2.9608
1687.00,2.9389
1686.00,2.9057
1685.00,2.8510
1684.00,2.7812
1683.00,2.7139
1682.00,2.6607
1681.00,2.6192
1680.00,2.5812
1679.00,2.5423
1678.00,2.5009
1677.00,2.4531
1676.00,2.3943
1675.00,2.3266
1674.00,2.2593
1673.00,2.1996
1672.00,2.1471
1671.00,2.0971
1670.00,2.0480
1669.00,2.0028
1668.00,1.9656
1667.00,1.9399
1666.00,1.9265
1665.00,1.9237
1664.00,1.9295
1663.00,1.9445
1662.00,1.9702
1661.00,2.0061
1660.00,2.0499
1659.00,2.0989
1658.00,2.1526
1657.00,2.2121
1656.00,2.2767
1655.00,2.3406
1654.00,2.4005
1653.00,2.4573
1652.00,2.5057
1651.00,2.5429
1650.00,2.5754
1649.00,2.6092
1648.00,2.6459
1647.00,2.6872
1646.00,2.7326
1645.00,2.7757
1644.00,2.8116
1643.00,2.8418
1642.00,2.8697
1641.00,2.8966
1640.00,2.9222
1639.00,2.9467
1638.00,2.9707
1637.00,2.9939
1636.00,3.0163
1635.00,3.0350
1634.00,3.0471
1633.00,3.0552
1632.00,3.0656
1631.00,3.0810
1630.00,3.0986
1629.00,3.1129
1628.00,3.1203
1627.00,3.1238
1626.00,3.1304
1625.00,3.1435
1624.00,3.1620
1623.00,3.1823
1622.00,3.2012
1621.00,3.2161
1620.00,3.2266
1619.00,3.2338
1618.00,3.2372
1617.00,3.2360
1616.00,3.2319
1615.00,3.2286
1614.00,3.2306
1613.00,3.2392
1612.00,3.2509
1611.00,3.2595
1610.00,3.2619
1609.00,3.2606
1608.00,3.2614
1607.00,3.2691
1606.00,3.2835
1605.00,3.2998
1604.00,3.3117
1603.00,3.3161
1602.00,3.3145
1601.00,3.3095
1600.00,3.3016
1599.00,3.2914
1598.00,3.2821
1597.00,3.2776
1596.00,3.2792
1595.00,3.2843
1594.00,3.2877
1593.00,3.2857
1592.00,3.2788
1591.00,3.2722
1590.00,3.2712
1589.00,3.2753
1588.00,3.2773
1587.00,3.2713
1586.00,3.2593
1585.00,3.2476
1584.00,3.2392
1583.00,3.2326
1582.00,3.2259
1581.00,3.2209
1580.00,3.2202
1579.00,3.2227
1578.00,3.2221
1577.00,3.2113
1576.00,3.1867
1575.00,3.1525
1574.00,3.1204
1573.00,3.0993
1572.00,3.0864
1571.00,3.0714
1570.00,3.0477
1569.00,3.0186
1568.00,2.9918
1567.00,2.9691
1566.00,2.9462
1565.00,2.9211
1564.00,2.8989
1563.00,2.8861
1562.00,2.8798
1561.00,2.8652
1560.00,2.8313
1559.00,2.7827
1558.00,2.7309
1557.00,2.6852
1556.00,2.6475
1555.00,2.6130
1554.00,2.5768
1553.00,2.5394
1552.00,2.5039
1551.00,2.4717
1550.00,2.4419
1549.00,2.4138
1548.00,2.3869
1547.00,2.3609
1546.00,2.3365
1545.00,2.3168
1544.00,2.3055
1543.00,2.3036
1542.00,2.3082
1541.00,2.3153
1540.00,2.3219
1539.00,2.3268
1538.00,2.3327
1537.00,2.3449
1536.00,2.3650
1535.00,2.3904
1534.00,2.4201
1533.00,2.4541
1532.00,2.4901
1531.00,2.5251
1530.00,2.5594
1529.00,2.5948
1528.00,2.6321
1527.00,2.6707
1526.00,2.7104
1525.00,2.7512
1524.00,2.7918
1523.00,2.8287
1522.00,2.8593
1521.00,2.8831
1520.00,2.9008
1519.00,2.9166
1518.00,2.9357
1517.00,2.9601
1516.00,2.9864
1515.00,3.0098
1514.00,3.0285
1513.00,3.0442
1512.00,3.0607
1511.00,3.0831
1510.00,3.1143
1509.00,3.1536
1508.00,3.1993
1507.00,3.2484
1506.00,3.2871
1505.00,3.2987
1504.00,3.2896
1503.00,3.2813
1502.00,3.2855
1501.00,3.2994
1500.00,3.3141
1499.00,3.3238
1498.00,3.3294
1497.00,3.3361
1496.00,3.3482
1495.00,3.3666
1494.00,3.3853
1493.00,3.3937
1492.00,3.3886
1491.00,3.3822
1490.00,3.3891
1489.00,3.4086
1488.00,3.4283
1487.00,3.4439
1486.00,3.4612
1485.00,3.4809
1484.00,3.4965
1483.00,3.5063
1482.00,3.5157
1481.00,3.5253
1480.00,3.5284
1479.00,3.5233
1478.00,3.5199
1477.00,3.5260
1476.00,3.5348
1475.00,3.5315
1474.00,3.5126
1473.00,3.4904
1472.00,3.4775
1471.00,3.4765
1470.00,3.4820
1469.00,3.4876
1468.00,3.4897
1467.00,3.4870
1466.00,3.4786
1465.00,3.4665
1464.00,3.4595
1463.00,3.4673
1462.00,3.4906
1461.00,3.5183
1460.00,3.5360
1459.00,3.5406
1458.00,3.5422
1457.00,3.5524
1456.00,3.5719
1455.00,3.5992
1454.00,3.6400
1453.00,3.6931
1452.00,3.7431
1451.00,3.7762
1450.00,3.7929
1449.00,3.7976
1448.00,3.7893
1447.00,3.7706
1446.00,3.7529
1445.00,3.7411
1444.00,3.7285
1443.00,3.7088
1442.00,3.6865
1441.00,3.6713
1440.00,3.6672
1439.00,3.6701
1438.00,3.6725
1437.00,3.6696
1436.00,3.6605
1435.00,3.6494
1434.00,3.6429
1433.00,3.6448
1432.00,3.6567
1431.00,3.6792
1430.00,3.7064
1429.00,3.7213
1428.00,3.7126
1427.00,3.6925
1426.00,3.6832
1425.00,3.6988
1424.00,3.7363
1423.00,3.7751
1422.00,3.7868
1421.00,3.7551
1420.00,3.6945
1419.00,3.6413
1418.00,3.6213
1417.00,3.6301
1416.00,3.6426
1415.00,3.6423
1414.00,3.6317
1413.00,3.6158
1412.00,3.5942
1411.00,3.5681
1410.00,3.5441
1409.00,3.5248
1408.00,3.5060
1407.00,3.4856
1406.00,3.4667
1405.00,3.4508
1404.00,3.4349
1403.00,3.4170
1402.00,3.3981
1401.00,3.3771
1400.00,3.3504
1399.00,3.3172
1398.00,3.2820
1397.00,3.2502
1396.00,3.2231
1395.00,3.2004
1394.00,3.1823
1393.00,3.1677
1392.00,3.1565
1391.00,3.1504
1390.00,3.1509
1389.00,3.1566
1388.00,3.1650
1387.00,3.1771
1386.00,3.1966
1385.00,3.2251
1384.00,3.2610
1383.00,3.3034
1382.00,3.3536
1381.00,3.4122
1380.00,3.4768
1379.00,3.5464
1378.00,3.6258
1377.00,3.7175
1376.00,3.8033
1375.00,3.8400
1374.00,3.8002
1373.00,3.7072
1372.00,3.5981
1371.00,3.4876
1370.00,3.3769
1369.00,3.2678
1368.00,3.1658
1367.00,3.0775
1366.00,3.0063
1365.00,2.9521
1364.00,2.9134
1363.00,2.8898
1362.00,2.8809
1361.00,2.8848
1360.00,2.8986
1359.00,2.9192
1358.00,2.9439
1357.00,2.9707
1356.00,2.9996
1355.00,3.0328
1354.00,3.0728
1353.00,3.1172
1352.00,3.1590
1351.00,3.1920
1350.00,3.2162
1349.00,3.2369
1348.00,3.2585
1347.00,3.2813
1346.00,3.3034
1345.00,3.3221
1344.00,3.3354
1343.00,3.3444
1342.00,3.3538
1341.00,3.3680
1340.00,3.3871
1339.00,3.4062
1338.00,3.4167
1337.00,3.4119
1336.00,3.3952
1335.00,3.3803
1334.00,3.3798
1333.00,3.3954
1332.00,3.4171
1331.00,3.4336
1330.00,3.4442
1329.00,3.4565
1328.00,3.4749
1327.00,3.4985
1326.00,3.5265
1325.00,3.5544
1324.00,3.5737
1323.00,3.5830
1322.00,3.5908
1321.00,3.6024
1320.00,3.6158
1319.00,3.6303
1318.00,3.6454
1317.00,3.6563
1316.00,3.6584
1315.00,3.6572
1314.00,3.6652
1313.00,3.6809
1312.00,3.6851
1311.00,3.6671
1310.00,3.6429
1309.00,3.6350
1308.00,3.6486
1307.00,3.6694
1306.00,3.6790
1305.00,3.6735
1304.00,3.6622
1303.00,3.6507
1302.00,3.6329
1301.00,3.6044
1300.00,3.5764
1299.00,3.5680
1298.00,3.5870
1297.00,3.6183
1296.00,3.6343
1295.00,3.6241
1294.00,3.6015
1293.00,3.5827
1292.00,3.5722
1291.00,3.5695
1290.00,3.5737
1289.00,3.5794
1288.00,3.5767
1287.00,3.5621
1286.00,3.5439
1285.00,3.5309
1284.00,3.5247
1283.00,3.5232
1282.00,3.5237
1281.00,3.5201
1280.00,3.5067
1279.00,3.4834
1278.00,3.4550
1277.00,3.4256
1276.00,3.3998
1275.00,3.3841
1274.00,3.3804
1273.00,3.3803
1272.00,3.3691
1271.00,3.3417
1270.00,3.3088
1269.00,3.2809
1268.00,3.2577
1267.00,3.2331
1266.00,3.2029
1265.00,3.1668
1264.00,3.1259
1263.00,3.0829
1262.00,3.0401
1261.00,2.9969
1260.00,2.9502
1259.00,2.8977
1258.00,2.8403
1257.00,2.7802
1256.00,2.7194
1255.00,2.6593
1254.00,2.6006
1253.00,2.5436
1252.00,2.4894
1251.00,2.4403
1250.00,2.3991
1249.00,2.3674
1248.00,2.3460
1247.00,2.3355
1246.00,2.3372
1245.00,2.3519
1244.00,2.3791
1243.00,2.4174
1242.00,2.4654
1241.00,2.5212
1240.00,2.5824
1239.00,2.6460
1238.00,2.7097
1237.00,2.7724
1236.00,2.8338
1235.00,2.8935
1234.00,2.9517
1233.00,3.0092
1232.00,3.0681
1231.00,3.1315
1230.00,3.2029
1229.00,3.2791
1228.00,3.3418
1227.00,3.3700
1226.00,3.3658
1225.00,3.3532
1224.00,3.3509
1223.00,3.3585
1222.00,3.3661
1221.00,3.3658
1220.00,3.3569
1219.00,3.3461
1218.00,3.3467
1217.00,3.3690
1216.00,3.4076
1215.00,3.4445
1214.00,3.4684
1213.00,3.4892
1212.00,3.5311
1211.00,3.6018
1210.00,3.6658
1209.00,3.6744
1208.00,3.6347
1207.00,3.5875
1206.00,3.5584
1205.00,3.5536
1204.00,3.5726
1203.00,3.6150
1202.00,3.6723
1201.00,3.7206
1200.00,3.7340
1199.00,3.7146
1198.00,3.6979
1197.00,3.7133
1196.00,3.7571
1195.00,3.7943
1194.00,3.7950
1193.00,3.7709
1192.00,3.7528
1191.00,3.7585
1190.00,3.7897
1189.00,3.8425
1188.00,3.9113
1187.00,3.9745
1186.00,3.9933
1185.00,3.9639
1184.00,3.9187
1183.00,3.8868
1182.00,3.8832
1181.00,3.9069
1180.00,3.9274
1179.00,3.9151
1178.00,3.8759
1177.00,3.8175
1176.00,3.7492
1175.00,3.6836
1174.00,3.6359
1173.00,3.6218
1172.00,3.6456
1171.00,3.6980
1170.00,3.7670
1169.00,3.8450
1168.00,3.9199
1167.00,3.9767
1166.00,4.0082
1165.00,4.0099
1164.00,3.9779
1163.00,3.9377
1162.00,3.9052
1161.00,3.8445
1160.00,3.7606
1159.00,3.7126
1158.00,3.7278
1157.00,3.7911
1156.00,3.8448
1155.00,3.8277
1154.00,3.7608
1153.00,3.7042
1152.00,3.6819
1151.00,3.6870
1150.00,3.7049
1149.00,3.7232
1148.00,3.7391
1147.00,3.7648
1146.00,3.7885
1145.00,3.7850
1144.00,3.7702
1143.00,3.7341
1142.00,3.6660
1141.00,3.6037
1140.00,3.5614
1139.00,3.5359
1138.00,3.5295
1137.00,3.5416
1136.00,3.5568
1135.00,3.5477
1134.00,3.5074
1133.00,3.4601
1132.00,3.4200
1131.00,3.3794
1130.00,3.3308
1129.00,3.2782
1128.00,3.2331
1127.00,3.2055
1126.00,3.1997
1125.00,3.2143
1124.00,3.2436
1123.00,3.2774
1122.00,3.2995
1121.00,3.2947
1120.00,3.2624
1119.00,3.2202
1118.00,3.1855
1117.00,3.1561
1116.00,3.1166
1115.00,3.0607
1114.00,2.9999
1113.00,2.9480
1112.00,2.9097
1111.00,2.8829
1110.00,2.8665
1109.00,2.8624
1108.00,2.8713
1107.00,2.8910
1106.00,2.9208
1105.00,2.9641
1104.00,3.0248
1103.00,3.0991
1102.00,3.1726
1101.00,3.2308
1100.00,3.2767
1099.00,3.3278
1098.00,3.3945
1097.00,3.4696
1096.00,3.5427
1095.00,3.6146
1094.00,3.6657
1093.00,3.6714
1092.00,3.6575
1091.00,3.6597
1090.00,3.6910
1089.00,3.7443
1088.00,3.8033
1087.00,3.8608
1086.00,3.9131
1085.00,3.9452
1084.00,3.9346
1083.00,3.8816
1082.00,3.8372
1081.00,3.8433
1080.00,3.9103
1079.00,4.0157
1078.00,4.0522
1077.00,4.0072
1076.00,4.0191
1075.00,4.1352
1074.00,4.3605
1073.00,4.5533
1072.00,4.3055
1071.00,4.0315
1070.00,3.8756
1069.00,3.8093
1068.00,3.8056
1067.00,3.8355
1066.00,3.8481
1065.00,3.8108
1064.00,3.7596
1063.00,3.7482
1062.00,3.8063
1061.00,4.0230
1060.00,4.5585
1059.00,4.6376
1058.00,4.2863
1057.00,3.9440
1056.00,3.7614
1055.00,3.7293
1054.00,3.8045
1053.00,3.9648
1052.00,4.0756
1051.00,3.9961
1050.00,3.9019
1049.00,3.8936
1048.00,3.9866
1047.00,4.1965
1046.00,4.5461
1045.00,5.0242
1044.00,4.9572
1043.00,4.5108
1042.00,4.2300
1041.00,4.0509
1040.00,3.9220
1039.00,3.8561
1038.00,3.8606
1037.00,3.9135
1036.00,3.9879
1035.00,4.0721
1034.00,4.1429
1033.00,4.1307
1032.00,4.0100
1031.00,3.8599
1030.00,3.7520
1029.00,3.7115
1028.00,3.7380
1027.00,3.8137
1026.00,3.9046
1025.00,3.9747
1024.00,4.0120
1023.00,4.0245
1022.00,4.0520
1021.00,4.1384
1020.00,4.3858
1019.00,4.5943
1018.00,4.3915
1017.00,4.3864
1016.00,4.1918
1015.00,3.9333
1014.00,3.8338
1013.00,3.8339
1012.00,3.8651
1011.00,3.8527
1010.00,3.7960
1009.00,3.7502
1008.00,3.7511
1007.00,3.8130
1006.00,3.9410
1005.00,4.1274
1004.00,4.3280
1003.00,4.4081
1002.00,4.3191
1001.00,4.2242
1000.00,4.1227
999.00,3.9739
998.00,3.8715
997.00,3.8723
996.00,3.9429
995.00,3.9904
994.00,4.0080
993.00,4.0325
992.00,4.0228
991.00,3.9762
990.00,3.9331
989.00,3.9109
988.00,3.9237
987.00,3.9768
986.00,4.0046
985.00,3.9563
984.00,3.9109
983.00,3.9047
982.00,3.9222
981.00,3.9473
980.00,3.9323
979.00,3.8717
978.00,3.8227
977.00,3.8017
976.00,3.7984
975.00,3.7827
974.00,3.7150
973.00,3.6124
972.00,3.5251
971.00,3.4772
970.00,3.4631
969.00,3.4678
968.00,3.4832
967.00,3.5058
966.00,3.5235
965.00,3.5279
964.00,3.5409
963.00,3.6029
962.00,3.7350
961.00,3.9013
960.00,3.9875
959.00,3.9650
958.00,3.9466
957.00,3.9719
956.00,3.9908
955.00,3.9653
954.00,3.9360
953.00,3.9591
952.00,4.0666
951.00,4.2849
950.00,4.7027
949.00,4.9832
948.00,4.5697
947.00,4.3440
946.00,4.2325
945.00,4.2174
944.00,4.3196
943.00,4.6889
942.00,5.0293
941.00,4.6826
940.00,4.7293
939.00,4.4897
938.00,4.3167
937.00,4.2937
936.00,4.1010
935.00,3.9208
934.00,3.8549
933.00,3.8761
932.00,3.9425
931.00,4.0451
930.00,4.1704
929.00,4.4074
928.00,4.8631
927.00,4.4995
926.00,4.1838
925.00,4.0292
924.00,3.9701
923.00,4.0367
922.00,4.2354
921.00,4.4732
920.00,4.3438
919.00,4.0724
918.00,3.8634
917.00,3.7586
916.00,3.7670
915.00,3.9118
914.00,4.1695
913.00,4.2023
912.00,4.1336
911.00,4.1959
910.00,4.3113
909.00,4.3992
908.00,4.4692
907.00,4.4516
906.00,4.4106
905.00,4.4288
904.00,4.6915
903.00,5.3596
902.00,4.6299
901.00,4.4285
900.00,4.3290
899.00,4.1727
898.00,4.0586
897.00,4.0292
896.00,4.1256
895.00,4.2821
894.00,4.3378
893.00,4.2417
892.00,4.1467
891.00,4.0995
890.00,4.0732
889.00,4.0771
888.00,4.1476
887.00,4.3744
886.00,4.6138
885.00,4.6816
884.00,4.8150
883.00,4.5096
882.00,4.3560
881.00,4.4014
880.00,4.4068
879.00,4.3262
878.00,4.2726
877.00,4.3219
876.00,4.3792
875.00,4.5773
874.00,4.5839
873.00,4.1084
872.00,3.9087
871.00,3.8664
870.00,3.9250
869.00,4.1137
868.00,4.1547
867.00,3.9625
866.00,3.8914
865.00,3.9419
864.00,4.0946
863.00,4.3284
862.00,4.6357
861.00,4.8767
860.00,4.3836
859.00,4.2333
858.00,4.2711
857.00,4.3054
856.00,4.6014
855.00,4.7401
854.00,4.3417
853.00,4.2423
852.00,4.1925
851.00,4.0563
850.00,3.9672
849.00,3.9669
848.00,4.1392
847.00,4.5266
846.00,4.3873
845.00,4.3593
844.00,4.8271
843.00,4.7398
842.00,4.4996
841.00,4.3507
840.00,4.2260
839.00,4.2433
838.00,4.4634
837.00,4.5806
836.00,4.2931
835.00,4.2034
834.00,4.1319
833.00,3.9646
832.00,3.8842
831.00,3.9037
830.00,3.9870
829.00,4.0930
828.00,4.1412
827.00,4.0723
826.00,3.9915
825.00,3.9996
824.00,4.0993
823.00,4.1936
822.00,4.1592
821.00,4.0325
820.00,3.8827
819.00,3.7720
818.00,3.7491
817.00,3.8235
816.00,3.9657
815.00,4.0792
814.00,4.0692
813.00,4.0099
812.00,3.9710
811.00,3.9211
810.00,3.8536
809.00,3.7935
808.00,3.7338
807.00,3.6934
806.00,3.7087
805.00,3.8041
804.00,3.9481
803.00,3.9979
802.00,3.9743
801.00,3.9834
800.00,3.9484
799.00,3.8247
798.00,3.7019
797.00,3.6492
796.00,3.6814
795.00,3.7996
794.00,3.9790
793.00,4.2366
792.00,4.6605
791.00,4.6930
790.00,4.6246
789.00,4.5220
788.00,4.2072
787.00,4.0505
786.00,3.9693
785.00,3.8905
784.00,3.8314
783.00,3.8078
782.00,3.8706
781.00,4.0507
780.00,4.4615
779.00,4.9717
778.00,4.4672
777.00,4.3456
776.00,4.2085
775.00,4.0157
774.00,3.9738
773.00,4.1456
772.00,4.6641
771.00,4.8427
770.00,4.6940
769.00,4.4721
768.00,4.1286
767.00,3.9762
766.00,3.9835
765.00,4.1782
764.00,4.3923
763.00,4.2045
762.00,4.0574
761.00,4.0057
760.00,4.0123
759.00,4.1341
758.00,4.2111
757.00,4.0379
756.00,3.8834
755.00,3.8376
754.00,3.9193
753.00,4.1724
752.00,4.3304
751.00,4.1841
750.00,4.0671
749.00,3.9508
748.00,3.8435
747.00,3.7832
746.00,3.7841
745.00,3.8692
744.00,4.0394
743.00,4.2225
742.00,4.2401
741.00,4.1295
740.00,4.0431
739.00,4.0256
738.00,4.0957
737.00,4.2309
736.00,4.3979
735.00,4.3851
734.00,4.2577
733.00,4.2853
732.00,4.1966
731.00,4.0795
730.00,4.1216
729.00,4.4695
728.00,4.7876
727.00,4.2371
726.00,4.0536
725.00,4.0101
724.00,3.9794
723.00,4.0960
722.00,4.3837
721.00,4.0656
720.00,3.8230
719.00,3.8188
718.00,4.0392
717.00,4.4568
716.00,4.1731
715.00,4.1694
714.00,4.3897
713.00,4.1249
712.00,3.9472
711.00,3.8938
710.00,3.8761
709.00,3.8443
708.00,3.8135
707.00,3.8288
706.00,3.8791
705.00,3.9620
704.00,4.1275
703.00,4.4694
702.00,4.5795
701.00,4.1944
700.00,3.9732
