Created as New Dataset,Sample 014 By Administrator Date Wednesday, November 24 2021
cm-1,A
7502.00,0.7939
7501.00,0.7846
7500.00,0.7754
7499.00,0.7665
7498.00,0.7577
7497.00,0.7491
7496.00,0.7407
7495.00,0.7323
7494.00,0.7242
7493.00,0.7166
7492.00,0.7101
7491.00,0.7047
7490.00,0.7003
7489.00,0.6962
7488.00,0.6916
7487.00,0.6851
7486.00,0.6763
7485.00,0.6653
7484.00,0.6530
7483.00,0.6406
7482.00,0.6290
7481.00,0.6188
7480.00,0.6106
7479.00,0.6038
7478.00,0.5978
7477.00,0.5921
7476.00,0.5869
7475.00,0.5825
7474.00,0.5788
7473.00,0.5751
7472.00,0.5708
7471.00,0.5660
7470.00,0.5609
7469.00,0.5557
7468.00,0.5503
7467.00,0.5448
7466.00,0.5395
7465.00,0.5346
7464.00,0.5299
7463.00,0.5253
7462.00,0.5209
7461.00,0.5171
7460.00,0.5136
7459.00,0.5100
7458.00,0.5066
7457.00,0.5038
7456.00,0.5020
7455.00,0.5010
7454.00,0.5005
7453.00,0.5002
7452.00,0.4998
7451.00,0.4997
7450.00,0.5000
7449.00,0.5009
7448.00,0.5022
7447.00,0.5038
7446.00,0.5055
7445.00,0.5075
7444.00,0.5098
7443.00,0.5125
7442.00,0.5157
7441.00,0.5194
7440.00,0.5237
7439.00,0.5284
7438.00,0.5334
7437.00,0.5388
7436.00,0.5447
7435.00,0.5511
7434.00,0.5580
7433.00,0.5653
7432.00,0.5729
7431.00,0.5805
7430.00,0.5882
7429.00,0.5961
7428.00,0.6042
7427.00,0.6129
7426.00,0.6222
7425.00,0.6318
7424.00,0.6412
7423.00,0.6504
7422.00,0.6600
7421.00,0.6699
7420.00,0.6797
7419.00,0.6889
7418.00,0.6977
7417.00,0.7068
7416.00,0.7165
7415.00,0.7265
7414.00,0.7364
7413.00,0.7462
7412.00,0.7559
7411.00,0.7655
7410.00,0.7751
7409.00,0.7850
7408.00,0.7951
7407.00,0.8051
7406.00,0.8146
7405.00,0.8238
7404.00,0.8327
7403.00,0.8415
7402.00,0.8498
7401.00,0.8577
7400.00,0.8654
7399.00,0.8731
7398.00,0.8808
7397.00,0.8882
7396.00,0.8954
7395.00,0.9023
7394.00,0.9090
7393.00,0.9152
7392.00,0.9210
7391.00,0.9266
7390.00,0.9323
7389.00,0.9382
7388.00,0.9435
7387.00,0.9481
7386.00,0.9522
7385.00,0.9563
7384.00,0.9603
7383.00,0.9636
7382.00,0.9661
7381.00,0.9684
7380.00,0.9710
7379.00,0.9735
7378.00,0.9752
7377.00,0.9759
7376.00,0.9756
7375.00,0.9746
7374.00,0.9731
7373.00,0.9712
7372.00,0.9695
7371.00,0.9684
7370.00,0.9677
7369.00,0.9674
7368.00,0.9670
7367.00,0.9663
7366.00,0.9647
7365.00,0.9622
7364.00,0.9590
7363.00,0.9556
7362.00,0.9522
7361.00,0.9485
7360.00,0.9443
7359.00,0.9396
7358.00,0.9344
7357.00,0.9287
7356.00,0.9221
7355.00,0.9146
7354.00,0.9068
7353.00,0.8995
7352.00,0.8927
7351.00,0.8859
7350.00,0.8788
7349.00,0.8714
7348.00,0.8643
7347.00,0.8573
7346.00,0.8500
7345.00,0.8422
7344.00,0.8344
7343.00,0.8268
7342.00,0.8193
7341.00,0.8114
7340.00,0.8030
7339.00,0.7942
7338.00,0.7855
7337.00,0.7768
7336.00,0.7682
7335.00,0.7597
7334.00,0.7517
7333.00,0.7443
7332.00,0.7371
7331.00,0.7297
7330.00,0.7222
7329.00,0.7150
7328.00,0.7080
7327.00,0.7012
7326.00,0.6943
7325.00,0.6878
7324.00,0.6817
7323.00,0.6760
7322.00,0.6705
7321.00,0.6654
7320.00,0.6608
7319.00,0.6565
7318.00,0.6524
7317.00,0.6485
7316.00,0.6452
7315.00,0.6426
7314.00,0.6406
7313.00,0.6391
7312.00,0.6381
7311.00,0.6378
7310.00,0.6383
7309.00,0.6394
7308.00,0.6406
7307.00,0.6418
7306.00,0.6431
7305.00,0.6449
7304.00,0.6470
7303.00,0.6495
7302.00,0.6523
7301.00,0.6559
7300.00,0.6604
7299.00,0.6655
7298.00,0.6708
7297.00,0.6762
7296.00,0.6818
7295.00,0.6879
7294.00,0.6946
7293.00,0.7016
7292.00,0.7089
7291.00,0.7163
7290.00,0.7238
7289.00,0.7316
7288.00,0.7399
7287.00,0.7485
7286.00,0.7573
7285.00,0.7664
7284.00,0.7758
7283.00,0.7854
7282.00,0.7948
7281.00,0.8038
7280.00,0.8125
7279.00,0.8212
7278.00,0.8301
7277.00,0.8391
7276.00,0.8481
7275.00,0.8574
7274.00,0.8671
7273.00,0.8768
7272.00,0.8860
7271.00,0.8944
7270.00,0.9026
7269.00,0.9110
7268.00,0.9196
7267.00,0.9280
7266.00,0.9358
7265.00,0.9432
7264.00,0.9504
7263.00,0.9576
7262.00,0.9648
7261.00,0.9716
7260.00,0.9781
7259.00,0.9845
7258.00,0.9910
7257.00,0.9975
7256.00,1.0035
7255.00,1.0081
7254.00,1.0118
7253.00,1.0151
7252.00,1.0183
7251.00,1.0211
7250.00,1.0232
7249.00,1.0249
7248.00,1.0270
7247.00,1.0296
7246.00,1.0322
7245.00,1.0348
7244.00,1.0376
7243.00,1.0408
7242.00,1.0441
7241.00,1.0469
7240.00,1.0485
7239.00,1.0487
7238.00,1.0476
7237.00,1.0453
7236.00,1.0420
7235.00,1.0384
7234.00,1.0355
7233.00,1.0334
7232.00,1.0317
7231.00,1.0296
7230.00,1.0265
7229.00,1.0228
7228.00,1.0188
7227.00,1.0146
7226.00,1.0101
7225.00,1.0053
7224.00,1.0003
7223.00,0.9952
7222.00,0.9901
7221.00,0.9849
7220.00,0.9793
7219.00,0.9733
7218.00,0.9667
7217.00,0.9597
7216.00,0.9527
7215.00,0.9456
7214.00,0.9383
7213.00,0.9306
7212.00,0.9223
7211.00,0.9135
7210.00,0.9045
7209.00,0.8956
7208.00,0.8869
7207.00,0.8783
7206.00,0.8698
7205.00,0.8615
7204.00,0.8532
7203.00,0.8449
7202.00,0.8366
7201.00,0.8284
7200.00,0.8200
7199.00,0.8116
7198.00,0.8032
7197.00,0.7948
7196.00,0.7865
7195.00,0.7784
7194.00,0.7707
7193.00,0.7636
7192.00,0.7568
7191.00,0.7501
7190.00,0.7432
7189.00,0.7364
7188.00,0.7298
7187.00,0.7235
7186.00,0.7174
7185.00,0.7116
7184.00,0.7063
7183.00,0.7016
7182.00,0.6977
7181.00,0.6942
7180.00,0.6909
7179.00,0.6877
7178.00,0.6847
7177.00,0.6822
7176.00,0.6802
7175.00,0.6787
7174.00,0.6778
7173.00,0.6774
7172.00,0.6776
7171.00,0.6782
7170.00,0.6790
7169.00,0.6802
7168.00,0.6818
7167.00,0.6838
7166.00,0.6862
7165.00,0.6890
7164.00,0.6925
7163.00,0.6968
7162.00,0.7017
7161.00,0.7071
7160.00,0.7128
7159.00,0.7186
7158.00,0.7248
7157.00,0.7312
7156.00,0.7379
7155.00,0.7448
7154.00,0.7522
7153.00,0.7601
7152.00,0.7683
7151.00,0.7765
7150.00,0.7848
7149.00,0.7934
7148.00,0.8022
7147.00,0.8113
7146.00,0.8207
7145.00,0.8302
7144.00,0.8397
7143.00,0.8489
7142.00,0.8579
7141.00,0.8668
7140.00,0.8760
7139.00,0.8856
7138.00,0.8955
7137.00,0.9052
7136.00,0.9149
7135.00,0.9246
7134.00,0.9343
7133.00,0.9436
7132.00,0.9522
7131.00,0.9602
7130.00,0.9679
7129.00,0.9759
7128.00,0.9840
7127.00,0.9923
7126.00,1.0008
7125.00,1.0093
7124.00,1.0174
7123.00,1.0248
7122.00,1.0318
7121.00,1.0386
7120.00,1.0455
7119.00,1.0523
7118.00,1.0589
7117.00,1.0652
7116.00,1.0707
7115.00,1.0751
7114.00,1.0788
7113.00,1.0823
7112.00,1.0857
7111.00,1.0891
7110.00,1.0926
7109.00,1.0962
7108.00,1.0999
7107.00,1.1033
7106.00,1.1060
7105.00,1.1083
7104.00,1.1102
7103.00,1.1119
7102.00,1.1133
7101.00,1.1142
7100.00,1.1146
7099.00,1.1141
7098.00,1.1130
7097.00,1.1115
7096.00,1.1099
7095.00,1.1080
7094.00,1.1059
7093.00,1.1035
7092.00,1.1009
7091.00,1.0978
7090.00,1.0940
7089.00,1.0899
7088.00,1.0857
7087.00,1.0815
7086.00,1.0769
7085.00,1.0717
7084.00,1.0663
7083.00,1.0610
7082.00,1.0557
7081.00,1.0501
7080.00,1.0438
7079.00,1.0370
7078.00,1.0299
7077.00,1.0228
7076.00,1.0156
7075.00,1.0084
7074.00,1.0009
7073.00,0.9932
7072.00,0.9852
7071.00,0.9769
7070.00,0.9682
7069.00,0.9593
7068.00,0.9502
7067.00,0.9409
7066.00,0.9317
7065.00,0.9228
7064.00,0.9139
7063.00,0.9049
7062.00,0.8958
7061.00,0.8866
7060.00,0.8774
7059.00,0.8681
7058.00,0.8591
7057.00,0.8505
7056.00,0.8421
7055.00,0.8337
7054.00,0.8253
7053.00,0.8173
7052.00,0.8095
7051.00,0.8018
7050.00,0.7940
7049.00,0.7863
7048.00,0.7791
7047.00,0.7726
7046.00,0.7665
7045.00,0.7608
7044.00,0.7555
7043.00,0.7507
7042.00,0.7466
7041.00,0.7429
7040.00,0.7395
7039.00,0.7365
7038.00,0.7338
7037.00,0.7317
7036.00,0.7303
7035.00,0.7293
7034.00,0.7288
7033.00,0.7289
7032.00,0.7295
7031.00,0.7308
7030.00,0.7326
7029.00,0.7347
7028.00,0.7371
7027.00,0.7401
7026.00,0.7438
7025.00,0.7480
7024.00,0.7525
7023.00,0.7573
7022.00,0.7625
7021.00,0.7681
7020.00,0.7742
7019.00,0.7805
7018.00,0.7871
7017.00,0.7939
7016.00,0.8011
7015.00,0.8088
7014.00,0.8170
7013.00,0.8254
7012.00,0.8338
7011.00,0.8423
7010.00,0.8512
7009.00,0.8604
7008.00,0.8697
7007.00,0.8788
7006.00,0.8878
7005.00,0.8968
7004.00,0.9059
7003.00,0.9150
7002.00,0.9242
7001.00,0.9335
7000.00,0.9428
6999.00,0.9519
6998.00,0.9610
6997.00,0.9702
6996.00,0.9793
6995.00,0.9880
6994.00,0.9962
6993.00,1.0043
6992.00,1.0124
6991.00,1.0205
6990.00,1.0286
6989.00,1.0365
6988.00,1.0440
6987.00,1.0512
6986.00,1.0582
6985.00,1.0652
6984.00,1.0720
6983.00,1.0783
6982.00,1.0842
6981.00,1.0900
6980.00,1.0957
6979.00,1.1008
6978.00,1.1053
6977.00,1.1092
6976.00,1.1128
6975.00,1.1162
6974.00,1.1195
6973.00,1.1226
6972.00,1.1254
6971.00,1.1279
6970.00,1.1301
6969.00,1.1320
6968.00,1.1334
6967.00,1.1341
6966.00,1.1343
6965.00,1.1343
6964.00,1.1341
6963.00,1.1331
6962.00,1.1315
6961.00,1.1296
6960.00,1.1279
6959.00,1.1262
6958.00,1.1243
6957.00,1.1219
6956.00,1.1189
6955.00,1.1152
6954.00,1.1112
6953.00,1.1069
6952.00,1.1025
6951.00,1.0981
6950.00,1.0934
6949.00,1.0883
6948.00,1.0826
6947.00,1.0764
6946.00,1.0700
6945.00,1.0634
6944.00,1.0561
6943.00,1.0484
6942.00,1.0405
6941.00,1.0330
6940.00,1.0256
6939.00,1.0179
6938.00,1.0096
6937.00,1.0010
6936.00,0.9925
6935.00,0.9837
6934.00,0.9746
6933.00,0.9652
6932.00,0.9557
6931.00,0.9462
6930.00,0.9366
6929.00,0.9271
6928.00,0.9178
6927.00,0.9085
6926.00,0.8990
6925.00,0.8895
6924.00,0.8801
6923.00,0.8707
6922.00,0.8613
6921.00,0.8521
6920.00,0.8431
6919.00,0.8343
6918.00,0.8257
6917.00,0.8176
6916.00,0.8099
6915.00,0.8023
6914.00,0.7950
6913.00,0.7880
6912.00,0.7812
6911.00,0.7747
6910.00,0.7683
6909.00,0.7621
6908.00,0.7564
6907.00,0.7512
6906.00,0.7466
6905.00,0.7424
6904.00,0.7388
6903.00,0.7356
6902.00,0.7329
6901.00,0.7306
6900.00,0.7287
6899.00,0.7271
6898.00,0.7259
6897.00,0.7254
6896.00,0.7254
6895.00,0.7259
6894.00,0.7270
6893.00,0.7287
6892.00,0.7308
6891.00,0.7334
6890.00,0.7366
6889.00,0.7403
6888.00,0.7446
6887.00,0.7493
6886.00,0.7545
6885.00,0.7601
6884.00,0.7659
6883.00,0.7719
6882.00,0.7781
6881.00,0.7845
6880.00,0.7914
6879.00,0.7987
6878.00,0.8063
6877.00,0.8143
6876.00,0.8225
6875.00,0.8311
6874.00,0.8399
6873.00,0.8488
6872.00,0.8577
6871.00,0.8667
6870.00,0.8760
6869.00,0.8857
6868.00,0.8956
6867.00,0.9055
6866.00,0.9155
6865.00,0.9255
6864.00,0.9355
6863.00,0.9453
6862.00,0.9550
6861.00,0.9646
6860.00,0.9742
6859.00,0.9835
6858.00,0.9927
6857.00,1.0017
6856.00,1.0108
6855.00,1.0199
6854.00,1.0292
6853.00,1.0383
6852.00,1.0473
6851.00,1.0560
6850.00,1.0644
6849.00,1.0725
6848.00,1.0798
6847.00,1.0866
6846.00,1.0933
6845.00,1.1002
6844.00,1.1075
6843.00,1.1145
6842.00,1.1207
6841.00,1.1260
6840.00,1.1305
6839.00,1.1347
6838.00,1.1388
6837.00,1.1431
6836.00,1.1473
6835.00,1.1512
6834.00,1.1550
6833.00,1.1590
6832.00,1.1625
6831.00,1.1651
6830.00,1.1668
6829.00,1.1680
6828.00,1.1694
6827.00,1.1705
6826.00,1.1712
6825.00,1.1716
6824.00,1.1717
6823.00,1.1714
6822.00,1.1704
6821.00,1.1690
6820.00,1.1674
6819.00,1.1656
6818.00,1.1634
6817.00,1.1605
6816.00,1.1574
6815.00,1.1544
6814.00,1.1514
6813.00,1.1481
6812.00,1.1443
6811.00,1.1400
6810.00,1.1352
6809.00,1.1301
6808.00,1.1246
6807.00,1.1187
6806.00,1.1123
6805.00,1.1057
6804.00,1.0987
6803.00,1.0911
6802.00,1.0831
6801.00,1.0747
6800.00,1.0663
6799.00,1.0580
6798.00,1.0498
6797.00,1.0414
6796.00,1.0329
6795.00,1.0239
6794.00,1.0146
6793.00,1.0049
6792.00,0.9951
6791.00,0.9854
6790.00,0.9758
6789.00,0.9664
6788.00,0.9569
6787.00,0.9472
6786.00,0.9372
6785.00,0.9271
6784.00,0.9171
6783.00,0.9072
6782.00,0.8975
6781.00,0.8880
6780.00,0.8787
6779.00,0.8695
6778.00,0.8605
6777.00,0.8515
6776.00,0.8427
6775.00,0.8342
6774.00,0.8261
6773.00,0.8185
6772.00,0.8112
6771.00,0.8043
6770.00,0.7977
6769.00,0.7916
6768.00,0.7859
6767.00,0.7807
6766.00,0.7759
6765.00,0.7716
6764.00,0.7678
6763.00,0.7644
6762.00,0.7616
6761.00,0.7596
6760.00,0.7581
6759.00,0.7571
6758.00,0.7565
6757.00,0.7563
6756.00,0.7566
6755.00,0.7575
6754.00,0.7589
6753.00,0.7609
6752.00,0.7635
6751.00,0.7668
6750.00,0.7707
6749.00,0.7752
6748.00,0.7800
6747.00,0.7851
6746.00,0.7908
6745.00,0.7970
6744.00,0.8036
6743.00,0.8105
6742.00,0.8178
6741.00,0.8255
6740.00,0.8334
6739.00,0.8415
6738.00,0.8498
6737.00,0.8585
6736.00,0.8675
6735.00,0.8768
6734.00,0.8861
6733.00,0.8954
6732.00,0.9047
6731.00,0.9140
6730.00,0.9237
6729.00,0.9336
6728.00,0.9435
6727.00,0.9532
6726.00,0.9629
6725.00,0.9726
6724.00,0.9822
6723.00,0.9915
6722.00,1.0005
6721.00,1.0094
6720.00,1.0184
6719.00,1.0275
6718.00,1.0362
6717.00,1.0447
6716.00,1.0528
6715.00,1.0610
6714.00,1.0692
6713.00,1.0776
6712.00,1.0858
6711.00,1.0935
6710.00,1.1006
6709.00,1.1072
6708.00,1.1135
6707.00,1.1193
6706.00,1.1248
6705.00,1.1300
6704.00,1.1353
6703.00,1.1402
6702.00,1.1447
6701.00,1.1487
6700.00,1.1526
6699.00,1.1564
6698.00,1.1597
6697.00,1.1625
6696.00,1.1649
6695.00,1.1672
6694.00,1.1693
6693.00,1.1710
6692.00,1.1722
6691.00,1.1729
6690.00,1.1732
6689.00,1.1734
6688.00,1.1733
6687.00,1.1728
6686.00,1.1717
6685.00,1.1701
6684.00,1.1679
6683.00,1.1653
6682.00,1.1622
6681.00,1.1587
6680.00,1.1548
6679.00,1.1505
6678.00,1.1463
6677.00,1.1423
6676.00,1.1382
6675.00,1.1335
6674.00,1.1280
6673.00,1.1219
6672.00,1.1155
6671.00,1.1091
6670.00,1.1024
6669.00,1.0957
6668.00,1.0888
6667.00,1.0816
6666.00,1.0742
6665.00,1.0662
6664.00,1.0577
6663.00,1.0489
6662.00,1.0399
6661.00,1.0307
6660.00,1.0214
6659.00,1.0119
6658.00,1.0024
6657.00,0.9928
6656.00,0.9831
6655.00,0.9731
6654.00,0.9631
6653.00,0.9530
6652.00,0.9429
6651.00,0.9329
6650.00,0.9230
6649.00,0.9133
6648.00,0.9038
6647.00,0.8943
6646.00,0.8849
6645.00,0.8756
6644.00,0.8665
6643.00,0.8574
6642.00,0.8482
6641.00,0.8391
6640.00,0.8303
6639.00,0.8219
6638.00,0.8140
6637.00,0.8065
6636.00,0.7994
6635.00,0.7925
6634.00,0.7859
6633.00,0.7796
6632.00,0.7737
6631.00,0.7681
6630.00,0.7630
6629.00,0.7583
6628.00,0.7542
6627.00,0.7504
6626.00,0.7470
6625.00,0.7441
6624.00,0.7416
6623.00,0.7397
6622.00,0.7385
6621.00,0.7381
6620.00,0.7384
6619.00,0.7390
6618.00,0.7402
6617.00,0.7417
6616.00,0.7438
6615.00,0.7463
6614.00,0.7492
6613.00,0.7528
6612.00,0.7570
6611.00,0.7617
6610.00,0.7667
6609.00,0.7723
6608.00,0.7783
6607.00,0.7849
6606.00,0.7920
6605.00,0.7994
6604.00,0.8073
6603.00,0.8156
6602.00,0.8241
6601.00,0.8328
6600.00,0.8417
6599.00,0.8507
6598.00,0.8601
6597.00,0.8696
6596.00,0.8792
6595.00,0.8887
6594.00,0.8984
6593.00,0.9083
6592.00,0.9183
6591.00,0.9283
6590.00,0.9382
6589.00,0.9483
6588.00,0.9584
6587.00,0.9686
6586.00,0.9789
6585.00,0.9891
6584.00,0.9993
6583.00,1.0093
6582.00,1.0191
6581.00,1.0287
6580.00,1.0383
6579.00,1.0478
6578.00,1.0571
6577.00,1.0660
6576.00,1.0747
6575.00,1.0832
6574.00,1.0917
6573.00,1.1000
6572.00,1.1077
6571.00,1.1150
6570.00,1.1222
6569.00,1.1295
6568.00,1.1363
6567.00,1.1421
6566.00,1.1473
6565.00,1.1525
6564.00,1.1579
6563.00,1.1631
6562.00,1.1677
6561.00,1.1719
6560.00,1.1759
6559.00,1.1795
6558.00,1.1827
6557.00,1.1853
6556.00,1.1878
6555.00,1.1903
6554.00,1.1925
6553.00,1.1943
6552.00,1.1956
6551.00,1.1962
6550.00,1.1963
6549.00,1.1962
6548.00,1.1961
6547.00,1.1961
6546.00,1.1958
6545.00,1.1950
6544.00,1.1936
6543.00,1.1917
6542.00,1.1891
6541.00,1.1859
6540.00,1.1822
6539.00,1.1783
6538.00,1.1740
6537.00,1.1695
6536.00,1.1647
6535.00,1.1598
6534.00,1.1546
6533.00,1.1491
6532.00,1.1432
6531.00,1.1369
6530.00,1.1303
6529.00,1.1234
6528.00,1.1162
6527.00,1.1087
6526.00,1.1009
6525.00,1.0927
6524.00,1.0841
6523.00,1.0751
6522.00,1.0657
6521.00,1.0561
6520.00,1.0464
6519.00,1.0366
6518.00,1.0269
6517.00,1.0171
6516.00,1.0072
6515.00,0.9969
6514.00,0.9864
6513.00,0.9759
6512.00,0.9652
6511.00,0.9544
6510.00,0.9437
6509.00,0.9330
6508.00,0.9224
6507.00,0.9118
6506.00,0.9012
6505.00,0.8906
6504.00,0.8804
6503.00,0.8706
6502.00,0.8611
6501.00,0.8519
6500.00,0.8429
6499.00,0.8342
6498.00,0.8256
6497.00,0.8172
6496.00,0.8091
6495.00,0.8014
6494.00,0.7944
6493.00,0.7879
6492.00,0.7818
6491.00,0.7763
6490.00,0.7713
6489.00,0.7668
6488.00,0.7627
6487.00,0.7590
6486.00,0.7559
6485.00,0.7536
6484.00,0.7519
6483.00,0.7506
6482.00,0.7499
6481.00,0.7499
6480.00,0.7505
6479.00,0.7519
6478.00,0.7539
6477.00,0.7565
6476.00,0.7596
6475.00,0.7631
6474.00,0.7672
6473.00,0.7718
6472.00,0.7770
6471.00,0.7827
6470.00,0.7890
6469.00,0.7958
6468.00,0.8030
6467.00,0.8105
6466.00,0.8182
6465.00,0.8262
6464.00,0.8344
6463.00,0.8429
6462.00,0.8518
6461.00,0.8610
6460.00,0.8704
6459.00,0.8800
6458.00,0.8897
6457.00,0.8997
6456.00,0.9097
6455.00,0.9197
6454.00,0.9298
6453.00,0.9401
6452.00,0.9504
6451.00,0.9605
6450.00,0.9704
6449.00,0.9803
6448.00,0.9901
6447.00,1.0002
6446.00,1.0103
6445.00,1.0204
6444.00,1.0302
6443.00,1.0396
6442.00,1.0489
6441.00,1.0579
6440.00,1.0666
6439.00,1.0749
6438.00,1.0831
6437.00,1.0914
6436.00,1.0997
6435.00,1.1075
6434.00,1.1150
6433.00,1.1221
6432.00,1.1289
6431.00,1.1352
6430.00,1.1411
6429.00,1.1468
6428.00,1.1522
6427.00,1.1570
6426.00,1.1613
6425.00,1.1653
6424.00,1.1689
6423.00,1.1721
6422.00,1.1749
6421.00,1.1774
6420.00,1.1796
6419.00,1.1816
6418.00,1.1834
6417.00,1.1850
6416.00,1.1863
6415.00,1.1870
6414.00,1.1872
6413.00,1.1873
6412.00,1.1872
6411.00,1.1868
6410.00,1.1857
6409.00,1.1842
6408.00,1.1826
6407.00,1.1809
6406.00,1.1787
6405.00,1.1760
6404.00,1.1731
6403.00,1.1698
6402.00,1.1658
6401.00,1.1611
6400.00,1.1559
6399.00,1.1504
6398.00,1.1447
6397.00,1.1387
6396.00,1.1323
6395.00,1.1257
6394.00,1.1189
6393.00,1.1118
6392.00,1.1043
6391.00,1.0961
6390.00,1.0875
6389.00,1.0787
6388.00,1.0697
6387.00,1.0605
6386.00,1.0511
6385.00,1.0415
6384.00,1.0317
6383.00,1.0218
6382.00,1.0118
6381.00,1.0016
6380.00,0.9914
6379.00,0.9810
6378.00,0.9705
6377.00,0.9601
6376.00,0.9496
6375.00,0.9389
6374.00,0.9282
6373.00,0.9177
6372.00,0.9076
6371.00,0.8976
6370.00,0.8878
6369.00,0.8780
6368.00,0.8682
6367.00,0.8583
6366.00,0.8486
6365.00,0.8393
6364.00,0.8303
6363.00,0.8216
6362.00,0.8132
6361.00,0.8049
6360.00,0.7970
6359.00,0.7892
6358.00,0.7818
6357.00,0.7748
6356.00,0.7683
6355.00,0.7622
6354.00,0.7566
6353.00,0.7513
6352.00,0.7464
6351.00,0.7420
6350.00,0.7381
6349.00,0.7349
6348.00,0.7325
6347.00,0.7306
6346.00,0.7295
6345.00,0.7290
6344.00,0.7291
6343.00,0.7297
6342.00,0.7309
6341.00,0.7327
6340.00,0.7351
6339.00,0.7380
6338.00,0.7417
6337.00,0.7461
6336.00,0.7511
6335.00,0.7566
6334.00,0.7625
6333.00,0.7687
6332.00,0.7753
6331.00,0.7824
6330.00,0.7898
6329.00,0.7976
6328.00,0.8058
6327.00,0.8142
6326.00,0.8230
6325.00,0.8320
6324.00,0.8409
6323.00,0.8500
6322.00,0.8593
6321.00,0.8690
6320.00,0.8789
6319.00,0.8890
6318.00,0.8993
6317.00,0.9097
6316.00,0.9200
6315.00,0.9301
6314.00,0.9403
6313.00,0.9506
6312.00,0.9611
6311.00,0.9716
6310.00,0.9822
6309.00,0.9930
6308.00,1.0039
6307.00,1.0146
6306.00,1.0250
6305.00,1.0350
6304.00,1.0447
6303.00,1.0540
6302.00,1.0629
6301.00,1.0714
6300.00,1.0799
6299.00,1.0884
6298.00,1.0968
6297.00,1.1048
6296.00,1.1125
6295.00,1.1200
6294.00,1.1275
6293.00,1.1349
6292.00,1.1420
6291.00,1.1486
6290.00,1.1549
6289.00,1.1608
6288.00,1.1662
6287.00,1.1709
6286.00,1.1750
6285.00,1.1789
6284.00,1.1828
6283.00,1.1864
6282.00,1.1895
6281.00,1.1919
6280.00,1.1939
6279.00,1.1957
6278.00,1.1972
6277.00,1.1984
6276.00,1.1992
6275.00,1.1999
6274.00,1.2003
6273.00,1.2002
6272.00,1.1995
6271.00,1.1982
6270.00,1.1968
6269.00,1.1952
6268.00,1.1931
6267.00,1.1906
6266.00,1.1881
6265.00,1.1856
6264.00,1.1826
6263.00,1.1788
6262.00,1.1745
6261.00,1.1697
6260.00,1.1643
6259.00,1.1584
6258.00,1.1522
6257.00,1.1461
6256.00,1.1398
6255.00,1.1332
6254.00,1.1262
6253.00,1.1189
6252.00,1.1112
6251.00,1.1029
6250.00,1.0941
6249.00,1.0849
6248.00,1.0756
6247.00,1.0660
6246.00,1.0562
6245.00,1.0464
6244.00,1.0364
6243.00,1.0262
6242.00,1.0158
6241.00,1.0051
6240.00,0.9940
6239.00,0.9827
6238.00,0.9712
6237.00,0.9598
6236.00,0.9483
6235.00,0.9369
6234.00,0.9255
6233.00,0.9140
6232.00,0.9026
6231.00,0.8912
6230.00,0.8800
6229.00,0.8690
6228.00,0.8583
6227.00,0.8477
6226.00,0.8374
6225.00,0.8273
6224.00,0.8176
6223.00,0.8082
6222.00,0.7992
6221.00,0.7907
6220.00,0.7825
6219.00,0.7747
6218.00,0.7672
6217.00,0.7602
6216.00,0.7537
6215.00,0.7476
6214.00,0.7421
6213.00,0.7373
6212.00,0.7330
6211.00,0.7293
6210.00,0.7262
6209.00,0.7238
6208.00,0.7221
6207.00,0.7211
6206.00,0.7208
6205.00,0.7213
6204.00,0.7223
6203.00,0.7240
6202.00,0.7263
6201.00,0.7293
6200.00,0.7329
6199.00,0.7371
6198.00,0.7418
6197.00,0.7471
6196.00,0.7529
6195.00,0.7593
6194.00,0.7661
6193.00,0.7735
6192.00,0.7812
6191.00,0.7893
6190.00,0.7978
6189.00,0.8067
6188.00,0.8159
6187.00,0.8253
6186.00,0.8349
6185.00,0.8449
6184.00,0.8551
6183.00,0.8654
6182.00,0.8758
6181.00,0.8863
6180.00,0.8970
6179.00,0.9078
6178.00,0.9187
6177.00,0.9298
6176.00,0.9409
6175.00,0.9518
6174.00,0.9628
6173.00,0.9736
6172.00,0.9841
6171.00,0.9943
6170.00,1.0043
6169.00,1.0145
6168.00,1.0247
6167.00,1.0345
6166.00,1.0440
6165.00,1.0534
6164.00,1.0627
6163.00,1.0720
6162.00,1.0809
6161.00,1.0896
6160.00,1.0981
6159.00,1.1061
6158.00,1.1135
6157.00,1.1203
6156.00,1.1265
6155.00,1.1325
6154.00,1.1384
6153.00,1.1443
6152.00,1.1502
6151.00,1.1558
6150.00,1.1610
6149.00,1.1656
6148.00,1.1697
6147.00,1.1731
6146.00,1.1762
6145.00,1.1790
6144.00,1.1816
6143.00,1.1837
6142.00,1.1853
6141.00,1.1866
6140.00,1.1873
6139.00,1.1875
6138.00,1.1872
6137.00,1.1866
6136.00,1.1858
6135.00,1.1850
6134.00,1.1839
6133.00,1.1824
6132.00,1.1805
6131.00,1.1781
6130.00,1.1752
6129.00,1.1719
6128.00,1.1681
6127.00,1.1640
6126.00,1.1596
6125.00,1.1549
6124.00,1.1500
6123.00,1.1447
6122.00,1.1391
6121.00,1.1334
6120.00,1.1277
6119.00,1.1219
6118.00,1.1154
6117.00,1.1080
6116.00,1.0999
6115.00,1.0914
6114.00,1.0825
6113.00,1.0735
6112.00,1.0644
6111.00,1.0553
6110.00,1.0462
6109.00,1.0369
6108.00,1.0272
6107.00,1.0170
6106.00,1.0066
6105.00,0.9962
6104.00,0.9855
6103.00,0.9747
6102.00,0.9638
6101.00,0.9529
6100.00,0.9419
6099.00,0.9308
6098.00,0.9198
6097.00,0.9087
6096.00,0.8975
6095.00,0.8861
6094.00,0.8748
6093.00,0.8636
6092.00,0.8527
6091.00,0.8418
6090.00,0.8312
6089.00,0.8208
6088.00,0.8105
6087.00,0.8004
6086.00,0.7905
6085.00,0.7812
6084.00,0.7722
6083.00,0.7638
6082.00,0.7557
6081.00,0.7481
6080.00,0.7409
6079.00,0.7341
6078.00,0.7278
6077.00,0.7221
6076.00,0.7171
6075.00,0.7127
6074.00,0.7089
6073.00,0.7055
6072.00,0.7027
6071.00,0.7006
6070.00,0.6992
6069.00,0.6985
6068.00,0.6985
6067.00,0.6992
6066.00,0.7006
6065.00,0.7027
6064.00,0.7054
6063.00,0.7087
6062.00,0.7128
6061.00,0.7176
6060.00,0.7229
6059.00,0.7287
6058.00,0.7351
6057.00,0.7420
6056.00,0.7496
6055.00,0.7576
6054.00,0.7661
6053.00,0.7750
6052.00,0.7843
6051.00,0.7939
6050.00,0.8038
6049.00,0.8140
6048.00,0.8244
6047.00,0.8350
6046.00,0.8457
6045.00,0.8566
6044.00,0.8677
6043.00,0.8788
6042.00,0.8900
6041.00,0.9014
6040.00,0.9128
6039.00,0.9243
6038.00,0.9358
6037.00,0.9472
6036.00,0.9587
6035.00,0.9701
6034.00,0.9813
6033.00,0.9922
6032.00,1.0029
6031.00,1.0135
6030.00,1.0239
6029.00,1.0341
6028.00,1.0443
6027.00,1.0544
6026.00,1.0645
6025.00,1.0744
6024.00,1.0839
6023.00,1.0928
6022.00,1.1014
6021.00,1.1096
6020.00,1.1175
6019.00,1.1252
6018.00,1.1326
6017.00,1.1397
6016.00,1.1462
6015.00,1.1522
6014.00,1.1579
6013.00,1.1633
6012.00,1.1683
6011.00,1.1729
6010.00,1.1774
6009.00,1.1817
6008.00,1.1856
6007.00,1.1890
6006.00,1.1919
6005.00,1.1945
6004.00,1.1968
6003.00,1.1986
6002.00,1.2001
6001.00,1.2011
6000.00,1.2019
5999.00,1.2022
5998.00,1.2022
5997.00,1.2017
5996.00,1.2007
5995.00,1.1991
5994.00,1.1970
5993.00,1.1947
5992.00,1.1920
5991.00,1.1891
5990.00,1.1857
5989.00,1.1820
5988.00,1.1780
5987.00,1.1736
5986.00,1.1688
5985.00,1.1638
5984.00,1.1586
5983.00,1.1531
5982.00,1.1473
5981.00,1.1411
5980.00,1.1342
5979.00,1.1267
5978.00,1.1188
5977.00,1.1106
5976.00,1.1022
5975.00,1.0933
5974.00,1.0840
5973.00,1.0746
5972.00,1.0651
5971.00,1.0555
5970.00,1.0458
5969.00,1.0358
5968.00,1.0255
5967.00,1.0148
5966.00,1.0037
5965.00,0.9924
5964.00,0.9811
5963.00,0.9698
5962.00,0.9586
5961.00,0.9475
5960.00,0.9363
5959.00,0.9252
5958.00,0.9142
5957.00,0.9034
5956.00,0.8927
5955.00,0.8822
5954.00,0.8718
5953.00,0.8614
5952.00,0.8511
5951.00,0.8406
5950.00,0.8300
5949.00,0.8194
5948.00,0.8087
5947.00,0.7982
5946.00,0.7878
5945.00,0.7776
5944.00,0.7677
5943.00,0.7582
5942.00,0.7494
5941.00,0.7412
5940.00,0.7335
5939.00,0.7265
5938.00,0.7201
5937.00,0.7144
5936.00,0.7093
5935.00,0.7048
5934.00,0.7012
5933.00,0.6984
5932.00,0.6963
5931.00,0.6950
5930.00,0.6946
5929.00,0.6949
5928.00,0.6960
5927.00,0.6976
5926.00,0.7000
5925.00,0.7032
5924.00,0.7071
5923.00,0.7118
5922.00,0.7171
5921.00,0.7231
5920.00,0.7297
5919.00,0.7367
5918.00,0.7443
5917.00,0.7525
5916.00,0.7611
5915.00,0.7702
5914.00,0.7797
5913.00,0.7896
5912.00,0.7998
5911.00,0.8102
5910.00,0.8210
5909.00,0.8323
5908.00,0.8438
5907.00,0.8554
5906.00,0.8670
5905.00,0.8787
5904.00,0.8905
5903.00,0.9023
5902.00,0.9141
5901.00,0.9260
5900.00,0.9379
5899.00,0.9497
5898.00,0.9613
5897.00,0.9730
5896.00,0.9845
5895.00,0.9961
5894.00,1.0076
5893.00,1.0189
5892.00,1.0297
5891.00,1.0401
5890.00,1.0503
5889.00,1.0604
5888.00,1.0704
5887.00,1.0803
5886.00,1.0899
5885.00,1.0994
5884.00,1.1083
5883.00,1.1165
5882.00,1.1243
5881.00,1.1319
5880.00,1.1393
5879.00,1.1464
5878.00,1.1530
5877.00,1.1592
5876.00,1.1651
5875.00,1.1706
5874.00,1.1756
5873.00,1.1805
5872.00,1.1851
5871.00,1.1896
5870.00,1.1936
5869.00,1.1972
5868.00,1.2004
5867.00,1.2030
5866.00,1.2050
5865.00,1.2064
5864.00,1.2072
5863.00,1.2077
5862.00,1.2079
5861.00,1.2080
5860.00,1.2080
5859.00,1.2077
5858.00,1.2068
5857.00,1.2055
5856.00,1.2039
5855.00,1.2018
5854.00,1.1994
5853.00,1.1965
5852.00,1.1933
5851.00,1.1895
5850.00,1.1853
5849.00,1.1806
5848.00,1.1757
5847.00,1.1706
5846.00,1.1651
5845.00,1.1593
5844.00,1.1532
5843.00,1.1466
5842.00,1.1398
5841.00,1.1326
5840.00,1.1249
5839.00,1.1169
5838.00,1.1085
5837.00,1.0999
5836.00,1.0909
5835.00,1.0817
5834.00,1.0724
5833.00,1.0631
5832.00,1.0534
5831.00,1.0432
5830.00,1.0324
5829.00,1.0212
5828.00,1.0097
5827.00,0.9979
5826.00,0.9858
5825.00,0.9738
5824.00,0.9618
5823.00,0.9498
5822.00,0.9377
5821.00,0.9253
5820.00,0.9128
5819.00,0.9003
5818.00,0.8878
5817.00,0.8753
5816.00,0.8630
5815.00,0.8508
5814.00,0.8388
5813.00,0.8271
5812.00,0.8156
5811.00,0.8043
5810.00,0.7933
5809.00,0.7827
5808.00,0.7725
5807.00,0.7627
5806.00,0.7534
5805.00,0.7446
5804.00,0.7363
5803.00,0.7284
5802.00,0.7211
5801.00,0.7144
5800.00,0.7084
5799.00,0.7031
5798.00,0.6985
5797.00,0.6945
5796.00,0.6911
5795.00,0.6882
5794.00,0.6860
5793.00,0.6846
5792.00,0.6840
5791.00,0.6843
5790.00,0.6853
5789.00,0.6872
5788.00,0.6898
5787.00,0.6931
5786.00,0.6971
5785.00,0.7018
5784.00,0.7070
5783.00,0.7129
5782.00,0.7193
5781.00,0.7264
5780.00,0.7341
5779.00,0.7424
5778.00,0.7512
5777.00,0.7606
5776.00,0.7704
5775.00,0.7807
5774.00,0.7912
5773.00,0.8021
5772.00,0.8132
5771.00,0.8246
5770.00,0.8361
5769.00,0.8479
5768.00,0.8598
5767.00,0.8719
5766.00,0.8843
5765.00,0.8967
5764.00,0.9090
5763.00,0.9213
5762.00,0.9335
5761.00,0.9458
5760.00,0.9580
5759.00,0.9700
5758.00,0.9820
5757.00,0.9938
5756.00,1.0054
5755.00,1.0168
5754.00,1.0280
5753.00,1.0392
5752.00,1.0502
5751.00,1.0607
5750.00,1.0709
5749.00,1.0807
5748.00,1.0904
5747.00,1.0998
5746.00,1.1091
5745.00,1.1182
5744.00,1.1269
5743.00,1.1351
5742.00,1.1428
5741.00,1.1502
5740.00,1.1572
5739.00,1.1637
5738.00,1.1696
5737.00,1.1753
5736.00,1.1809
5735.00,1.1862
5734.00,1.1910
5733.00,1.1954
5732.00,1.1994
5731.00,1.2028
5730.00,1.2056
5729.00,1.2079
5728.00,1.2100
5727.00,1.2120
5726.00,1.2138
5725.00,1.2153
5724.00,1.2162
5723.00,1.2166
5722.00,1.2164
5721.00,1.2159
5720.00,1.2149
5719.00,1.2136
5718.00,1.2121
5717.00,1.2103
5716.00,1.2079
5715.00,1.2050
5714.00,1.2016
5713.00,1.1980
5712.00,1.1941
5711.00,1.1900
5710.00,1.1856
5709.00,1.1807
5708.00,1.1752
5707.00,1.1689
5706.00,1.1620
5705.00,1.1550
5704.00,1.1480
5703.00,1.1410
5702.00,1.1338
5701.00,1.1263
5700.00,1.1182
5699.00,1.1096
5698.00,1.1003
5697.00,1.0905
5696.00,1.0805
5695.00,1.0701
5694.00,1.0593
5693.00,1.0482
5692.00,1.0367
5691.00,1.0251
5690.00,1.0131
5689.00,1.0009
5688.00,0.9883
5687.00,0.9756
5686.00,0.9628
5685.00,0.9499
5684.00,0.9369
5683.00,0.9240
5682.00,0.9111
5681.00,0.8982
5680.00,0.8852
5679.00,0.8721
5678.00,0.8592
5677.00,0.8464
5676.00,0.8338
5675.00,0.8215
5674.00,0.8094
5673.00,0.7978
5672.00,0.7866
5671.00,0.7758
5670.00,0.7652
5669.00,0.7551
5668.00,0.7454
5667.00,0.7361
5666.00,0.7273
5665.00,0.7190
5664.00,0.7113
5663.00,0.7042
5662.00,0.6978
5661.00,0.6922
5660.00,0.6873
5659.00,0.6832
5658.00,0.6799
5657.00,0.6775
5656.00,0.6759
5655.00,0.6752
5654.00,0.6753
5653.00,0.6763
5652.00,0.6780
5651.00,0.6804
5650.00,0.6836
5649.00,0.6876
5648.00,0.6923
5647.00,0.6978
5646.00,0.7040
5645.00,0.7109
5644.00,0.7185
5643.00,0.7267
5642.00,0.7355
5641.00,0.7447
5640.00,0.7544
5639.00,0.7645
5638.00,0.7751
5637.00,0.7862
5636.00,0.7976
5635.00,0.8093
5634.00,0.8213
5633.00,0.8335
5632.00,0.8460
5631.00,0.8586
5630.00,0.8714
5629.00,0.8841
5628.00,0.8970
5627.00,0.9098
5626.00,0.9226
5625.00,0.9355
5624.00,0.9484
5623.00,0.9612
5622.00,0.9739
5621.00,0.9865
5620.00,0.9988
5619.00,1.0111
5618.00,1.0233
5617.00,1.0354
5616.00,1.0473
5615.00,1.0588
5614.00,1.0700
5613.00,1.0809
5612.00,1.0915
5611.00,1.1016
5610.00,1.1115
5609.00,1.1210
5608.00,1.1301
5607.00,1.1388
5606.00,1.1470
5605.00,1.1548
5604.00,1.1624
5603.00,1.1697
5602.00,1.1766
5601.00,1.1830
5600.00,1.1890
5599.00,1.1945
5598.00,1.1997
5597.00,1.2046
5596.00,1.2091
5595.00,1.2133
5594.00,1.2171
5593.00,1.2206
5592.00,1.2236
5591.00,1.2261
5590.00,1.2284
5589.00,1.2305
5588.00,1.2323
5587.00,1.2334
5586.00,1.2341
5585.00,1.2344
5584.00,1.2343
5583.00,1.2333
5582.00,1.2317
5581.00,1.2298
5580.00,1.2277
5579.00,1.2256
5578.00,1.2232
5577.00,1.2205
5576.00,1.2173
5575.00,1.2135
5574.00,1.2091
5573.00,1.2042
5572.00,1.1988
5571.00,1.1933
5570.00,1.1875
5569.00,1.1813
5568.00,1.1747
5567.00,1.1678
5566.00,1.1605
5565.00,1.1527
5564.00,1.1445
5563.00,1.1358
5562.00,1.1265
5561.00,1.1168
5560.00,1.1067
5559.00,1.0962
5558.00,1.0855
5557.00,1.0746
5556.00,1.0636
5555.00,1.0523
5554.00,1.0405
5553.00,1.0281
5552.00,1.0154
5551.00,1.0023
5550.00,0.9890
5549.00,0.9756
5548.00,0.9620
5547.00,0.9482
5546.00,0.9343
5545.00,0.9202
5544.00,0.9061
5543.00,0.8921
5542.00,0.8784
5541.00,0.8648
5540.00,0.8512
5539.00,0.8376
5538.00,0.8241
5537.00,0.8107
5536.00,0.7976
5535.00,0.7848
5534.00,0.7725
5533.00,0.7608
5532.00,0.7496
5531.00,0.7389
5530.00,0.7287
5529.00,0.7191
5528.00,0.7100
5527.00,0.7015
5526.00,0.6937
5525.00,0.6866
5524.00,0.6803
5523.00,0.6748
5522.00,0.6702
5521.00,0.6665
5520.00,0.6636
5519.00,0.6616
5518.00,0.6606
5517.00,0.6604
5516.00,0.6611
5515.00,0.6627
5514.00,0.6651
5513.00,0.6684
5512.00,0.6725
5511.00,0.6774
5510.00,0.6830
5509.00,0.6894
5508.00,0.6965
5507.00,0.7042
5506.00,0.7125
5505.00,0.7215
5504.00,0.7312
5503.00,0.7413
5502.00,0.7520
5501.00,0.7631
5500.00,0.7746
5499.00,0.7864
5498.00,0.7987
5497.00,0.8112
5496.00,0.8240
5495.00,0.8369
5494.00,0.8500
5493.00,0.8633
5492.00,0.8767
5491.00,0.8902
5490.00,0.9037
5489.00,0.9175
5488.00,0.9314
5487.00,0.9452
5486.00,0.9588
5485.00,0.9722
5484.00,0.9855
5483.00,0.9986
5482.00,1.0118
5481.00,1.0248
5480.00,1.0375
5479.00,1.0498
5478.00,1.0616
5477.00,1.0733
5476.00,1.0848
5475.00,1.0962
5474.00,1.1072
5473.00,1.1177
5472.00,1.1277
5471.00,1.1376
5470.00,1.1474
5469.00,1.1571
5468.00,1.1666
5467.00,1.1755
5466.00,1.1836
5465.00,1.1912
5464.00,1.1983
5463.00,1.2050
5462.00,1.2113
5461.00,1.2171
5460.00,1.2225
5459.00,1.2275
5458.00,1.2320
5457.00,1.2364
5456.00,1.2407
5455.00,1.2447
5454.00,1.2482
5453.00,1.2509
5452.00,1.2530
5451.00,1.2548
5450.00,1.2563
5449.00,1.2575
5448.00,1.2582
5447.00,1.2585
5446.00,1.2583
5445.00,1.2578
5444.00,1.2569
5443.00,1.2554
5442.00,1.2536
5441.00,1.2515
5440.00,1.2492
5439.00,1.2466
5438.00,1.2435
5437.00,1.2402
5436.00,1.2365
5435.00,1.2324
5434.00,1.2278
5433.00,1.2225
5432.00,1.2166
5431.00,1.2103
5430.00,1.2038
5429.00,1.1969
5428.00,1.1892
5427.00,1.1806
5426.00,1.1717
5425.00,1.1626
5424.00,1.1535
5423.00,1.1440
5422.00,1.1341
5421.00,1.1237
5420.00,1.1130
5419.00,1.1019
5418.00,1.0905
5417.00,1.0788
5416.00,1.0668
5415.00,1.0544
5414.00,1.0419
5413.00,1.0289
5412.00,1.0155
5411.00,1.0016
5410.00,0.9874
5409.00,0.9732
5408.00,0.9589
5407.00,0.9445
5406.00,0.9300
5405.00,0.9156
5404.00,0.9014
5403.00,0.8872
5402.00,0.8731
5401.00,0.8591
5400.00,0.8454
5399.00,0.8319
5398.00,0.8188
5397.00,0.8060
5396.00,0.7936
5395.00,0.7815
5394.00,0.7699
5393.00,0.7591
5392.00,0.7487
5391.00,0.7388
5390.00,0.7294
5389.00,0.7208
5388.00,0.7130
5387.00,0.7058
5386.00,0.6992
5385.00,0.6935
5384.00,0.6887
5383.00,0.6846
5382.00,0.6815
5381.00,0.6795
5380.00,0.6785
5379.00,0.6784
5378.00,0.6792
5377.00,0.6811
5376.00,0.6839
5375.00,0.6875
5374.00,0.6918
5373.00,0.6970
5372.00,0.7030
5371.00,0.7097
5370.00,0.7171
5369.00,0.7251
5368.00,0.7339
5367.00,0.7433
5366.00,0.7534
5365.00,0.7642
5364.00,0.7755
5363.00,0.7872
5362.00,0.7993
5361.00,0.8118
5360.00,0.8247
5359.00,0.8379
5358.00,0.8513
5357.00,0.8648
5356.00,0.8784
5355.00,0.8922
5354.00,0.9062
5353.00,0.9205
5352.00,0.9347
5351.00,0.9489
5350.00,0.9630
5349.00,0.9771
5348.00,0.9910
5347.00,1.0047
5346.00,1.0182
5345.00,1.0317
5344.00,1.0451
5343.00,1.0583
5342.00,1.0710
5341.00,1.0834
5340.00,1.0956
5339.00,1.1079
5338.00,1.1201
5337.00,1.1318
5336.00,1.1431
5335.00,1.1539
5334.00,1.1645
5333.00,1.1748
5332.00,1.1844
5331.00,1.1933
5330.00,1.2016
5329.00,1.2094
5328.00,1.2170
5327.00,1.2245
5326.00,1.2318
5325.00,1.2386
5324.00,1.2448
5323.00,1.2505
5322.00,1.2559
5321.00,1.2608
5320.00,1.2653
5319.00,1.2692
5318.00,1.2727
5317.00,1.2756
5316.00,1.2779
5315.00,1.2799
5314.00,1.2818
5313.00,1.2837
5312.00,1.2854
5311.00,1.2867
5310.00,1.2874
5309.00,1.2874
5308.00,1.2867
5307.00,1.2858
5306.00,1.2845
5305.00,1.2829
5304.00,1.2810
5303.00,1.2786
5302.00,1.2757
5301.00,1.2722
5300.00,1.2682
5299.00,1.2638
5298.00,1.2591
5297.00,1.2542
5296.00,1.2490
5295.00,1.2432
5294.00,1.2368
5293.00,1.2300
5292.00,1.2228
5291.00,1.2152
5290.00,1.2072
5289.00,1.1988
5288.00,1.1898
5287.00,1.1804
5286.00,1.1708
5285.00,1.1609
5284.00,1.1507
5283.00,1.1398
5282.00,1.1284
5281.00,1.1165
5280.00,1.1043
5279.00,1.0917
5278.00,1.0788
5277.00,1.0655
5276.00,1.0519
5275.00,1.0380
5274.00,1.0238
5273.00,1.0094
5272.00,0.9950
5271.00,0.9804
5270.00,0.9658
5269.00,0.9513
5268.00,0.9367
5267.00,0.9222
5266.00,0.9077
5265.00,0.8933
5264.00,0.8789
5263.00,0.8645
5262.00,0.8503
5261.00,0.8366
5260.00,0.8235
5259.00,0.8110
5258.00,0.7990
5257.00,0.7873
5256.00,0.7759
5255.00,0.7650
5254.00,0.7544
5253.00,0.7444
5252.00,0.7349
5251.00,0.7261
5250.00,0.7182
5249.00,0.7111
5248.00,0.7048
5247.00,0.6991
5246.00,0.6941
5245.00,0.6900
5244.00,0.6869
5243.00,0.6850
5242.00,0.6840
5241.00,0.6839
5240.00,0.6847
5239.00,0.6865
5238.00,0.6893
5237.00,0.6931
5236.00,0.6977
5235.00,0.7031
5234.00,0.7094
5233.00,0.7165
5232.00,0.7244
5231.00,0.7331
5230.00,0.7424
5229.00,0.7524
5228.00,0.7630
5227.00,0.7741
5226.00,0.7859
5225.00,0.7983
5224.00,0.8112
5223.00,0.8244
5222.00,0.8380
5221.00,0.8518
5220.00,0.8659
5219.00,0.8801
5218.00,0.8946
5217.00,0.9091
5216.00,0.9238
5215.00,0.9384
5214.00,0.9532
5213.00,0.9679
5212.00,0.9826
5211.00,0.9971
5210.00,1.0116
5209.00,1.0260
5208.00,1.0402
5207.00,1.0542
5206.00,1.0682
5205.00,1.0820
5204.00,1.0956
5203.00,1.1089
5202.00,1.1221
5201.00,1.1352
5200.00,1.1478
5199.00,1.1600
5198.00,1.1718
5197.00,1.1831
5196.00,1.1939
5195.00,1.2041
5194.00,1.2136
5193.00,1.2225
5192.00,1.2309
5191.00,1.2389
5190.00,1.2467
5189.00,1.2543
5188.00,1.2615
5187.00,1.2683
5186.00,1.2746
5185.00,1.2805
5184.00,1.2859
5183.00,1.2908
5182.00,1.2952
5181.00,1.2992
5180.00,1.3028
5179.00,1.3061
5178.00,1.3093
5177.00,1.3124
5176.00,1.3151
5175.00,1.3172
5174.00,1.3187
5173.00,1.3197
5172.00,1.3204
5171.00,1.3206
5170.00,1.3205
5169.00,1.3198
5168.00,1.3185
5167.00,1.3165
5166.00,1.3142
5165.00,1.3117
5164.00,1.3090
5163.00,1.3060
5162.00,1.3026
5161.00,1.2986
5160.00,1.2942
5159.00,1.2893
5158.00,1.2840
5157.00,1.2783
5156.00,1.2722
5155.00,1.2656
5154.00,1.2584
5153.00,1.2509
5152.00,1.2428
5151.00,1.2343
5150.00,1.2253
5149.00,1.2159
5148.00,1.2061
5147.00,1.1960
5146.00,1.1855
5145.00,1.1746
5144.00,1.1633
5143.00,1.1515
5142.00,1.1392
5141.00,1.1264
5140.00,1.1131
5139.00,1.0995
5138.00,1.0855
5137.00,1.0712
5136.00,1.0565
5135.00,1.0415
5134.00,1.0263
5133.00,1.0109
5132.00,0.9954
5131.00,0.9797
5130.00,0.9640
5129.00,0.9483
5128.00,0.9326
5127.00,0.9169
5126.00,0.9012
5125.00,0.8857
5124.00,0.8704
5123.00,0.8553
5122.00,0.8405
5121.00,0.8262
5120.00,0.8123
5119.00,0.7988
5118.00,0.7859
5117.00,0.7735
5116.00,0.7619
5115.00,0.7510
5114.00,0.7408
5113.00,0.7314
5112.00,0.7227
5111.00,0.7148
5110.00,0.7076
5109.00,0.7014
5108.00,0.6962
5107.00,0.6921
5106.00,0.6892
5105.00,0.6873
5104.00,0.6866
5103.00,0.6868
5102.00,0.6882
5101.00,0.6906
5100.00,0.6940
5099.00,0.6985
5098.00,0.7040
5097.00,0.7105
5096.00,0.7179
5095.00,0.7262
5094.00,0.7352
5093.00,0.7450
5092.00,0.7556
5091.00,0.7669
5090.00,0.7788
5089.00,0.7913
5088.00,0.8043
5087.00,0.8177
5086.00,0.8316
5085.00,0.8458
5084.00,0.8604
5083.00,0.8752
5082.00,0.8901
5081.00,0.9054
5080.00,0.9207
5079.00,0.9362
5078.00,0.9518
5077.00,0.9674
5076.00,0.9830
5075.00,0.9985
5074.00,1.0139
5073.00,1.0293
5072.00,1.0446
5071.00,1.0596
5070.00,1.0745
5069.00,1.0892
5068.00,1.1035
5067.00,1.1174
5066.00,1.1309
5065.00,1.1441
5064.00,1.1570
5063.00,1.1695
5062.00,1.1818
5061.00,1.1938
5060.00,1.2054
5059.00,1.2163
5058.00,1.2267
5057.00,1.2368
5056.00,1.2466
5055.00,1.2561
5054.00,1.2651
5053.00,1.2735
5052.00,1.2813
5051.00,1.2885
5050.00,1.2953
5049.00,1.3019
5048.00,1.3083
5047.00,1.3144
5046.00,1.3199
5045.00,1.3249
5044.00,1.3294
5043.00,1.3334
5042.00,1.3369
5041.00,1.3398
5040.00,1.3423
5039.00,1.3444
5038.00,1.3464
5037.00,1.3482
5036.00,1.3497
5035.00,1.3506
5034.00,1.3508
5033.00,1.3505
5032.00,1.3498
5031.00,1.3487
5030.00,1.3474
5029.00,1.3457
5028.00,1.3435
5027.00,1.3409
5026.00,1.3379
5025.00,1.3344
5024.00,1.3305
5023.00,1.3260
5022.00,1.3209
5021.00,1.3153
5020.00,1.3092
5019.00,1.3028
5018.00,1.2960
5017.00,1.2887
5016.00,1.2809
5015.00,1.2726
5014.00,1.2637
5013.00,1.2545
5012.00,1.2451
5011.00,1.2355
5010.00,1.2255
5009.00,1.2150
5008.00,1.2040
5007.00,1.1925
5006.00,1.1804
5005.00,1.1678
5004.00,1.1546
5003.00,1.1410
5002.00,1.1270
5001.00,1.1127
5000.00,1.0983
4999.00,1.0837
4998.00,1.0688
4997.00,1.0535
4996.00,1.0377
4995.00,1.0216
4994.00,1.0053
4993.00,0.9888
4992.00,0.9722
4991.00,0.9555
4990.00,0.9388
4989.00,0.9221
4988.00,0.9054
4987.00,0.8889
4986.00,0.8726
4985.00,0.8567
4984.00,0.8411
4983.00,0.8260
4982.00,0.8115
4981.00,0.7977
4980.00,0.7843
4979.00,0.7715
4978.00,0.7594
4977.00,0.7482
4976.00,0.7378
4975.00,0.7283
4974.00,0.7197
4973.00,0.7121
4972.00,0.7054
4971.00,0.6997
4970.00,0.6951
4969.00,0.6915
4968.00,0.6889
4967.00,0.6874
4966.00,0.6870
4965.00,0.6878
4964.00,0.6897
4963.00,0.6927
4962.00,0.6968
4961.00,0.7020
4960.00,0.7082
4959.00,0.7154
4958.00,0.7236
4957.00,0.7327
4956.00,0.7427
4955.00,0.7535
4954.00,0.7650
4953.00,0.7773
4952.00,0.7903
4951.00,0.8038
4950.00,0.8178
4949.00,0.8323
4948.00,0.8472
4947.00,0.8623
4946.00,0.8778
4945.00,0.8935
4944.00,0.9095
4943.00,0.9256
4942.00,0.9420
4941.00,0.9584
4940.00,0.9749
4939.00,0.9914
4938.00,1.0077
4937.00,1.0239
4936.00,1.0399
4935.00,1.0560
4934.00,1.0719
4933.00,1.0877
4932.00,1.1032
4931.00,1.1184
4930.00,1.1334
4929.00,1.1481
4928.00,1.1625
4927.00,1.1766
4926.00,1.1902
4925.00,1.2033
4924.00,1.2159
4923.00,1.2280
4922.00,1.2396
4921.00,1.2508
4920.00,1.2617
4919.00,1.2720
4918.00,1.2820
4917.00,1.2915
4916.00,1.3006
4915.00,1.3090
4914.00,1.3170
4913.00,1.3246
4912.00,1.3319
4911.00,1.3388
4910.00,1.3454
4909.00,1.3515
4908.00,1.3571
4907.00,1.3623
4906.00,1.3670
4905.00,1.3712
4904.00,1.3749
4903.00,1.3781
4902.00,1.3808
4901.00,1.3831
4900.00,1.3850
4899.00,1.3864
4898.00,1.3874
4897.00,1.3879
4896.00,1.3881
4895.00,1.3878
4894.00,1.3872
4893.00,1.3863
4892.00,1.3850
4891.00,1.3833
4890.00,1.3810
4889.00,1.3782
4888.00,1.3750
4887.00,1.3714
4886.00,1.3675
4885.00,1.3633
4884.00,1.3587
4883.00,1.3534
4882.00,1.3476
4881.00,1.3413
4880.00,1.3344
4879.00,1.3270
4878.00,1.3191
4877.00,1.3108
4876.00,1.3023
4875.00,1.2932
4874.00,1.2835
4873.00,1.2732
4872.00,1.2624
4871.00,1.2512
4870.00,1.2398
4869.00,1.2281
4868.00,1.2160
4867.00,1.2032
4866.00,1.1896
4865.00,1.1755
4864.00,1.1610
4863.00,1.1461
4862.00,1.1309
4861.00,1.1153
4860.00,1.0992
4859.00,1.0826
4858.00,1.0658
4857.00,1.0486
4856.00,1.0314
4855.00,1.0139
4854.00,0.9964
4853.00,0.9788
4852.00,0.9610
4851.00,0.9433
4850.00,0.9258
4849.00,0.9085
4848.00,0.8916
4847.00,0.8750
4846.00,0.8587
4845.00,0.8428
4844.00,0.8273
4843.00,0.8122
4842.00,0.7977
4841.00,0.7839
4840.00,0.7709
4839.00,0.7589
4838.00,0.7477
4837.00,0.7375
4836.00,0.7283
4835.00,0.7201
4834.00,0.7130
4833.00,0.7070
4832.00,0.7022
4831.00,0.6985
4830.00,0.6961
4829.00,0.6950
4828.00,0.6951
4827.00,0.6964
4826.00,0.6990
4825.00,0.7029
4824.00,0.7079
4823.00,0.7141
4822.00,0.7213
4821.00,0.7296
4820.00,0.7389
4819.00,0.7492
4818.00,0.7604
4817.00,0.7725
4816.00,0.7853
4815.00,0.7988
4814.00,0.8129
4813.00,0.8276
4812.00,0.8428
4811.00,0.8584
4810.00,0.8745
4809.00,0.8910
4808.00,0.9077
4807.00,0.9245
4806.00,0.9414
4805.00,0.9586
4804.00,0.9760
4803.00,0.9935
4802.00,1.0110
4801.00,1.0285
4800.00,1.0459
4799.00,1.0630
4798.00,1.0799
4797.00,1.0966
4796.00,1.1131
4795.00,1.1292
4794.00,1.1451
4793.00,1.1607
4792.00,1.1760
4791.00,1.1908
4790.00,1.2050
4789.00,1.2186
4788.00,1.2319
4787.00,1.2448
4786.00,1.2576
4785.00,1.2700
4784.00,1.2820
4783.00,1.2934
4782.00,1.3042
4781.00,1.3145
4780.00,1.3243
4779.00,1.3338
4778.00,1.3427
4777.00,1.3509
4776.00,1.3586
4775.00,1.3658
4774.00,1.3727
4773.00,1.3794
4772.00,1.3858
4771.00,1.3916
4770.00,1.3967
4769.00,1.4011
4768.00,1.4051
4767.00,1.4087
4766.00,1.4122
4765.00,1.4153
4764.00,1.4178
4763.00,1.4198
4762.00,1.4212
4761.00,1.4222
4760.00,1.4228
4759.00,1.4233
4758.00,1.4235
4757.00,1.4234
4756.00,1.4229
4755.00,1.4217
4754.00,1.4198
4753.00,1.4174
4752.00,1.4145
4751.00,1.4112
4750.00,1.4073
4749.00,1.4030
4748.00,1.3981
4747.00,1.3928
4746.00,1.3873
4745.00,1.3816
4744.00,1.3755
4743.00,1.3688
4742.00,1.3618
4741.00,1.3544
4740.00,1.3467
4739.00,1.3384
4738.00,1.3294
4737.00,1.3195
4736.00,1.3091
4735.00,1.2983
4734.00,1.2871
4733.00,1.2755
4732.00,1.2633
4731.00,1.2505
4730.00,1.2371
4729.00,1.2233
4728.00,1.2090
4727.00,1.1942
4726.00,1.1790
4725.00,1.1631
4724.00,1.1468
4723.00,1.1302
4722.00,1.1132
4721.00,1.0960
4720.00,1.0784
4719.00,1.0604
4718.00,1.0421
4717.00,1.0238
4716.00,1.0053
4715.00,0.9869
4714.00,0.9685
4713.00,0.9502
4712.00,0.9320
4711.00,0.9139
4710.00,0.8962
4709.00,0.8786
4708.00,0.8614
4707.00,0.8447
4706.00,0.8286
4705.00,0.8133
4704.00,0.7987
4703.00,0.7849
4702.00,0.7720
4701.00,0.7598
4700.00,0.7486
4699.00,0.7385
4698.00,0.7294
4697.00,0.7216
4696.00,0.7149
4695.00,0.7094
4694.00,0.7051
4693.00,0.7022
4692.00,0.7006
4691.00,0.7003
4690.00,0.7014
4689.00,0.7039
4688.00,0.7077
4687.00,0.7128
4686.00,0.7192
4685.00,0.7268
4684.00,0.7354
4683.00,0.7451
4682.00,0.7558
4681.00,0.7674
4680.00,0.7798
4679.00,0.7932
4678.00,0.8074
4677.00,0.8224
4676.00,0.8379
4675.00,0.8540
4674.00,0.8704
4673.00,0.8872
4672.00,0.9044
4671.00,0.9220
4670.00,0.9398
4669.00,0.9579
4668.00,0.9759
4667.00,0.9940
4666.00,1.0121
4665.00,1.0303
4664.00,1.0486
4663.00,1.0669
4662.00,1.0850
4661.00,1.1029
4660.00,1.1205
4659.00,1.1377
4658.00,1.1546
4657.00,1.1713
4656.00,1.1876
4655.00,1.2036
4654.00,1.2192
4653.00,1.2345
4652.00,1.2493
4651.00,1.2634
4650.00,1.2769
4649.00,1.2900
4648.00,1.3027
4647.00,1.3150
4646.00,1.3269
4645.00,1.3383
4644.00,1.3492
4643.00,1.3595
4642.00,1.3693
4641.00,1.3786
4640.00,1.3875
4639.00,1.3959
4638.00,1.4038
4637.00,1.4112
4636.00,1.4181
4635.00,1.4245
4634.00,1.4305
4633.00,1.4363
4632.00,1.4418
4631.00,1.4470
4630.00,1.4516
4629.00,1.4556
4628.00,1.4589
4627.00,1.4617
4626.00,1.4638
4625.00,1.4654
4624.00,1.4666
4623.00,1.4673
4622.00,1.4678
4621.00,1.4681
4620.00,1.4682
4619.00,1.4678
4618.00,1.4669
4617.00,1.4654
4616.00,1.4632
4615.00,1.4607
4614.00,1.4578
4613.00,1.4546
4612.00,1.4510
4611.00,1.4468
4610.00,1.4419
4609.00,1.4365
4608.00,1.4306
4607.00,1.4244
4606.00,1.4178
4605.00,1.4107
4604.00,1.4032
4603.00,1.3952
4602.00,1.3868
4601.00,1.3780
4600.00,1.3687
4599.00,1.3588
4598.00,1.3485
4597.00,1.3375
4596.00,1.3259
4595.00,1.3138
4594.00,1.3010
4593.00,1.2877
4592.00,1.2737
4591.00,1.2593
4590.00,1.2443
4589.00,1.2289
4588.00,1.2130
4587.00,1.1965
4586.00,1.1793
4585.00,1.1617
4584.00,1.1436
4583.00,1.1253
4582.00,1.1067
4581.00,1.0879
4580.00,1.0689
4579.00,1.0495
4578.00,1.0300
4577.00,1.0104
4576.00,0.9908
4575.00,0.9712
4574.00,0.9517
4573.00,0.9325
4572.00,0.9136
4571.00,0.8950
4570.00,0.8769
4569.00,0.8594
4568.00,0.8425
4567.00,0.8265
4566.00,0.8112
4565.00,0.7968
4564.00,0.7834
4563.00,0.7709
4562.00,0.7594
4561.00,0.7491
4560.00,0.7400
4559.00,0.7322
4558.00,0.7258
4557.00,0.7208
4556.00,0.7173
4555.00,0.7151
4554.00,0.7145
4553.00,0.7153
4552.00,0.7175
4551.00,0.7212
4550.00,0.7264
4549.00,0.7330
4548.00,0.7410
4547.00,0.7501
4546.00,0.7604
4545.00,0.7717
4544.00,0.7841
4543.00,0.7976
4542.00,0.8119
4541.00,0.8271
4540.00,0.8429
4539.00,0.8594
4538.00,0.8765
4537.00,0.8941
4536.00,0.9123
4535.00,0.9308
4534.00,0.9497
4533.00,0.9688
4532.00,0.9880
4531.00,1.0073
4530.00,1.0266
4529.00,1.0459
4528.00,1.0651
4527.00,1.0842
4526.00,1.1032
4525.00,1.1221
4524.00,1.1407
4523.00,1.1591
4522.00,1.1773
4521.00,1.1952
4520.00,1.2128
4519.00,1.2301
4518.00,1.2468
4517.00,1.2630
4516.00,1.2786
4515.00,1.2939
4514.00,1.3088
4513.00,1.3234
4512.00,1.3374
4511.00,1.3509
4510.00,1.3636
4509.00,1.3756
4508.00,1.3872
4507.00,1.3982
4506.00,1.4087
4505.00,1.4188
4504.00,1.4285
4503.00,1.4376
4502.00,1.4461
4501.00,1.4538
4500.00,1.4609
4499.00,1.4675
4498.00,1.4739
4497.00,1.4801
4496.00,1.4859
4495.00,1.4910
4494.00,1.4954
4493.00,1.4991
4492.00,1.5025
4491.00,1.5056
4490.00,1.5086
4489.00,1.5114
4488.00,1.5136
4487.00,1.5154
4486.00,1.5165
4485.00,1.5170
4484.00,1.5169
4483.00,1.5163
4482.00,1.5153
4481.00,1.5139
4480.00,1.5120
4479.00,1.5098
4478.00,1.5073
4477.00,1.5046
4476.00,1.5014
4475.00,1.4976
4474.00,1.4930
4473.00,1.4878
4472.00,1.4821
4471.00,1.4763
4470.00,1.4702
4469.00,1.4638
4468.00,1.4568
4467.00,1.4493
4466.00,1.4412
4465.00,1.4325
4464.00,1.4233
4463.00,1.4135
4462.00,1.4033
4461.00,1.3927
4460.00,1.3818
4459.00,1.3705
4458.00,1.3588
4457.00,1.3467
4456.00,1.3341
4455.00,1.3211
4454.00,1.3078
4453.00,1.2941
4452.00,1.2801
4451.00,1.2657
4450.00,1.2512
4449.00,1.2367
4448.00,1.2223
4447.00,1.2079
4446.00,1.1936
4445.00,1.1792
4444.00,1.1650
4443.00,1.1508
4442.00,1.1366
4441.00,1.1224
4440.00,1.1081
4439.00,1.0937
4438.00,1.0791
4437.00,1.0641
4436.00,1.0486
4435.00,1.0324
4434.00,1.0156
4433.00,0.9983
4432.00,0.9805
4431.00,0.9625
4430.00,0.9444
4429.00,0.9264
4428.00,0.9087
4427.00,0.8915
4426.00,0.8750
4425.00,0.8595
4424.00,0.8451
4423.00,0.8320
4422.00,0.8204
4421.00,0.8104
4420.00,0.8019
4419.00,0.7951
4418.00,0.7901
4417.00,0.7870
4416.00,0.7857
4415.00,0.7863
4414.00,0.7888
4413.00,0.7930
4412.00,0.7990
4411.00,0.8066
4410.00,0.8159
4409.00,0.8266
4408.00,0.8388
4407.00,0.8522
4406.00,0.8668
4405.00,0.8824
4404.00,0.8987
4403.00,0.9156
4402.00,0.9328
4401.00,0.9503
4400.00,0.9678
4399.00,0.9854
4398.00,1.0031
4397.00,1.0208
4396.00,1.0383
4395.00,1.0558
4394.00,1.0732
4393.00,1.0905
4392.00,1.1077
4391.00,1.1249
4390.00,1.1422
4389.00,1.1596
4388.00,1.1772
4387.00,1.1947
4386.00,1.2120
4385.00,1.2292
4384.00,1.2462
4383.00,1.2631
4382.00,1.2800
4381.00,1.2966
4380.00,1.3129
4379.00,1.3287
4378.00,1.3439
4377.00,1.3587
4376.00,1.3731
4375.00,1.3870
4374.00,1.4004
4373.00,1.4133
4372.00,1.4256
4371.00,1.4374
4370.00,1.4486
4369.00,1.4590
4368.00,1.4688
4367.00,1.4778
4366.00,1.4863
4365.00,1.4943
4364.00,1.5019
4363.00,1.5093
4362.00,1.5162
4361.00,1.5227
4360.00,1.5286
4359.00,1.5339
4358.00,1.5386
4357.00,1.5430
4356.00,1.5470
4355.00,1.5507
4354.00,1.5541
4353.00,1.5574
4352.00,1.5606
4351.00,1.5635
4350.00,1.5659
4349.00,1.5678
4348.00,1.5692
4347.00,1.5699
4346.00,1.5702
4345.00,1.5701
4344.00,1.5699
4343.00,1.5695
4342.00,1.5690
4341.00,1.5682
4340.00,1.5666
4339.00,1.5643
4338.00,1.5612
4337.00,1.5577
4336.00,1.5540
4335.00,1.5500
4334.00,1.5457
4333.00,1.5410
4332.00,1.5358
4331.00,1.5300
4330.00,1.5237
4329.00,1.5171
4328.00,1.5101
4327.00,1.5027
4326.00,1.4947
4325.00,1.4860
4324.00,1.4768
4323.00,1.4672
4322.00,1.4572
4321.00,1.4469
4320.00,1.4361
4319.00,1.4246
4318.00,1.4124
4317.00,1.3996
4316.00,1.3861
4315.00,1.3718
4314.00,1.3568
4313.00,1.3411
4312.00,1.3248
4311.00,1.3079
4310.00,1.2904
4309.00,1.2723
4308.00,1.2535
4307.00,1.2340
4306.00,1.2139
4305.00,1.1935
4304.00,1.1727
4303.00,1.1515
4302.00,1.1301
4301.00,1.1084
4300.00,1.0866
4299.00,1.0646
4298.00,1.0427
4297.00,1.0207
4296.00,0.9990
4295.00,0.9774
4294.00,0.9564
4293.00,0.9358
4292.00,0.9159
4291.00,0.8967
4290.00,0.8783
4289.00,0.8607
4288.00,0.8440
4287.00,0.8284
4286.00,0.8139
4285.00,0.8007
4284.00,0.7889
4283.00,0.7786
4282.00,0.7697
4281.00,0.7623
4280.00,0.7566
4279.00,0.7525
4278.00,0.7502
4277.00,0.7495
4276.00,0.7506
4275.00,0.7534
4274.00,0.7579
4273.00,0.7641
4272.00,0.7718
4271.00,0.7810
4270.00,0.7917
4269.00,0.8037
4268.00,0.8171
4267.00,0.8315
4266.00,0.8471
4265.00,0.8636
4264.00,0.8810
4263.00,0.8991
4262.00,0.9180
4261.00,0.9374
4260.00,0.9574
4259.00,0.9777
4258.00,0.9984
4257.00,1.0194
4256.00,1.0406
4255.00,1.0620
4254.00,1.0834
4253.00,1.1049
4252.00,1.1263
4251.00,1.1475
4250.00,1.1686
4249.00,1.1893
4248.00,1.2099
4247.00,1.2303
4246.00,1.2504
4245.00,1.2699
4244.00,1.2887
4243.00,1.3068
4242.00,1.3243
4241.00,1.3415
4240.00,1.3584
4239.00,1.3750
4238.00,1.3911
4237.00,1.4065
4236.00,1.4211
4235.00,1.4351
4234.00,1.4484
4233.00,1.4612
4232.00,1.4735
4231.00,1.4850
4230.00,1.4960
4229.00,1.5066
4228.00,1.5168
4227.00,1.5266
4226.00,1.5358
4225.00,1.5444
4224.00,1.5523
4223.00,1.5596
4222.00,1.5663
4221.00,1.5724
4220.00,1.5781
4219.00,1.5834
4218.00,1.5883
4217.00,1.5928
4216.00,1.5966
4215.00,1.6000
4214.00,1.6029
4213.00,1.6055
4212.00,1.6078
4211.00,1.6097
4210.00,1.6112
4209.00,1.6123
4208.00,1.6128
4207.00,1.6127
4206.00,1.6119
4205.00,1.6107
4204.00,1.6092
4203.00,1.6075
4202.00,1.6055
4201.00,1.6029
4200.00,1.5994
4199.00,1.5954
4198.00,1.5910
4197.00,1.5864
4196.00,1.5814
4195.00,1.5757
4194.00,1.5693
4193.00,1.5623
4192.00,1.5549
4191.00,1.5473
4190.00,1.5394
4189.00,1.5311
4188.00,1.5223
4187.00,1.5126
4186.00,1.5022
4185.00,1.4912
4184.00,1.4796
4183.00,1.4675
4182.00,1.4549
4181.00,1.4417
4180.00,1.4278
4179.00,1.4132
4178.00,1.3981
4177.00,1.3824
4176.00,1.3660
4175.00,1.3489
4174.00,1.3312
4173.00,1.3129
4172.00,1.2941
4171.00,1.2745
4170.00,1.2544
4169.00,1.2336
4168.00,1.2122
4167.00,1.1903
4166.00,1.1680
4165.00,1.1453
4164.00,1.1224
4163.00,1.0992
4162.00,1.0760
4161.00,1.0529
4160.00,1.0298
4159.00,1.0069
4158.00,0.9843
4157.00,0.9622
4156.00,0.9405
4155.00,0.9196
4154.00,0.8994
4153.00,0.8802
4152.00,0.8619
4151.00,0.8447
4150.00,0.8287
4149.00,0.8140
4148.00,0.8007
4147.00,0.7888
4146.00,0.7785
4145.00,0.7698
4144.00,0.7629
4143.00,0.7578
4142.00,0.7545
4141.00,0.7531
4140.00,0.7535
4139.00,0.7559
4138.00,0.7601
4137.00,0.7661
4136.00,0.7739
4135.00,0.7835
4134.00,0.7946
4133.00,0.8072
4132.00,0.8212
4131.00,0.8365
4130.00,0.8530
4129.00,0.8707
4128.00,0.8892
4127.00,0.9086
4126.00,0.9288
4125.00,0.9497
4124.00,0.9711
4123.00,0.9930
4122.00,1.0153
4121.00,1.0378
4120.00,1.0605
4119.00,1.0833
4118.00,1.1062
4117.00,1.1290
4116.00,1.1518
4115.00,1.1744
4114.00,1.1968
4113.00,1.2188
4112.00,1.2406
4111.00,1.2621
4110.00,1.2831
4109.00,1.3037
4108.00,1.3237
4107.00,1.3432
4106.00,1.3622
4105.00,1.3807
4104.00,1.3986
4103.00,1.4159
4102.00,1.4323
4101.00,1.4480
4100.00,1.4632
4099.00,1.4778
4098.00,1.4919
4097.00,1.5055
4096.00,1.5184
4095.00,1.5308
4094.00,1.5427
4093.00,1.5540
4092.00,1.5645
4091.00,1.5742
4090.00,1.5833
4089.00,1.5920
4088.00,1.6004
4087.00,1.6084
4086.00,1.6159
4085.00,1.6228
4084.00,1.6292
4083.00,1.6353
4082.00,1.6412
4081.00,1.6468
4080.00,1.6517
4079.00,1.6558
4078.00,1.6593
4077.00,1.6625
4076.00,1.6654
4075.00,1.6679
4074.00,1.6698
4073.00,1.6710
4072.00,1.6714
4071.00,1.6715
4070.00,1.6714
4069.00,1.6712
4068.00,1.6708
4067.00,1.6698
4066.00,1.6683
4065.00,1.6663
4064.00,1.6638
4063.00,1.6608
4062.00,1.6572
4061.00,1.6530
4060.00,1.6484
4059.00,1.6433
4058.00,1.6377
4057.00,1.6316
4056.00,1.6248
4055.00,1.6175
4054.00,1.6098
4053.00,1.6016
4052.00,1.5930
4051.00,1.5840
4050.00,1.5745
4049.00,1.5644
4048.00,1.5537
4047.00,1.5424
4046.00,1.5305
4045.00,1.5181
4044.00,1.5050
4043.00,1.4913
4042.00,1.4769
4041.00,1.4620
4040.00,1.4466
4039.00,1.4308
4038.00,1.4145
4037.00,1.3978
4036.00,1.3808
4035.00,1.3634
4034.00,1.3455
4033.00,1.3273
4032.00,1.3088
4031.00,1.2899
4030.00,1.2706
4029.00,1.2507
4028.00,1.2302
4027.00,1.2089
4026.00,1.1870
4025.00,1.1645
4024.00,1.1415
4023.00,1.1181
4022.00,1.0945
4021.00,1.0707
4020.00,1.0468
4019.00,1.0231
4018.00,0.9998
4017.00,0.9769
4016.00,0.9548
4015.00,0.9335
4014.00,0.9132
4013.00,0.8939
4012.00,0.8759
4011.00,0.8593
4010.00,0.8442
4009.00,0.8307
4008.00,0.8190
4007.00,0.8092
4006.00,0.8013
4005.00,0.7956
4004.00,0.7920
4003.00,0.7905
4002.00,0.7912
4001.00,0.7940
4000.00,0.7990
3999.00,0.8061
3998.00,0.8152
3997.00,0.8262
3996.00,0.8391
3995.00,0.8536
3994.00,0.8697
3993.00,0.8872
3992.00,0.9059
3991.00,0.9257
3990.00,0.9467
3989.00,0.9686
3988.00,0.9912
3987.00,1.0144
3986.00,1.0380
3985.00,1.0619
3984.00,1.0860
3983.00,1.1103
3982.00,1.1347
3981.00,1.1589
3980.00,1.1829
3979.00,1.2066
3978.00,1.2298
3977.00,1.2527
3976.00,1.2751
3975.00,1.2971
3974.00,1.3184
3973.00,1.3389
3972.00,1.3586
3971.00,1.3775
3970.00,1.3960
3969.00,1.4139
3968.00,1.4315
3967.00,1.4487
3966.00,1.4654
3965.00,1.4817
3964.00,1.4976
3963.00,1.5131
3962.00,1.5281
3961.00,1.5427
3960.00,1.5566
3959.00,1.5699
3958.00,1.5824
3957.00,1.5943
3956.00,1.6057
3955.00,1.6166
3954.00,1.6270
3953.00,1.6366
3952.00,1.6457
3951.00,1.6544
3950.00,1.6628
3949.00,1.6707
3948.00,1.6782
3947.00,1.6853
3946.00,1.6919
3945.00,1.6980
3944.00,1.7034
3943.00,1.7083
3942.00,1.7127
3941.00,1.7164
3940.00,1.7198
3939.00,1.7228
3938.00,1.7253
3937.00,1.7272
3936.00,1.7286
3935.00,1.7297
3934.00,1.7309
3933.00,1.7320
3932.00,1.7327
3931.00,1.7328
3930.00,1.7319
3929.00,1.7300
3928.00,1.7272
3927.00,1.7238
3926.00,1.7203
3925.00,1.7168
3924.00,1.7133
3923.00,1.7091
3922.00,1.7041
3921.00,1.6985
3920.00,1.6926
3919.00,1.6865
3918.00,1.6799
3917.00,1.6727
3916.00,1.6649
3915.00,1.6565
3914.00,1.6474
3913.00,1.6378
3912.00,1.6276
3911.00,1.6167
3910.00,1.6051
3909.00,1.5931
3908.00,1.5808
3907.00,1.5680
3906.00,1.5545
3905.00,1.5403
3904.00,1.5253
3903.00,1.5095
3902.00,1.4928
3901.00,1.4752
3900.00,1.4566
3899.00,1.4371
3898.00,1.4167
3897.00,1.3956
3896.00,1.3741
3895.00,1.3522
3894.00,1.3297
3893.00,1.3061
3892.00,1.2814
3891.00,1.2556
3890.00,1.2295
3889.00,1.2038
3888.00,1.1786
3887.00,1.1530
3886.00,1.1260
3885.00,1.0981
3884.00,1.0705
3883.00,1.0440
3882.00,1.0182
3881.00,0.9928
3880.00,0.9676
3879.00,0.9433
3878.00,0.9207
3877.00,0.9000
3876.00,0.8807
3875.00,0.8624
3874.00,0.8454
3873.00,0.8301
3872.00,0.8168
3871.00,0.8054
3870.00,0.7957
3869.00,0.7876
3868.00,0.7813
3867.00,0.7775
3866.00,0.7769
3865.00,0.7793
3864.00,0.7841
3863.00,0.7907
3862.00,0.7991
3861.00,0.8096
3860.00,0.8222
3859.00,0.8364
3858.00,0.8516
3857.00,0.8672
3856.00,0.8838
3855.00,0.9028
3854.00,0.9261
3853.00,0.9540
3852.00,0.9841
3851.00,1.0124
3850.00,1.0376
3849.00,1.0612
3848.00,1.0844
3847.00,1.1077
3846.00,1.1316
3845.00,1.1562
3844.00,1.1816
3843.00,1.2076
3842.00,1.2335
3841.00,1.2588
3840.00,1.2834
3839.00,1.3078
3838.00,1.3327
3837.00,1.3581
3836.00,1.3832
3835.00,1.4073
3834.00,1.4303
3833.00,1.4525
3832.00,1.4740
3831.00,1.4944
3830.00,1.5135
3829.00,1.5315
3828.00,1.5485
3827.00,1.5649
3826.00,1.5807
3825.00,1.5955
3824.00,1.6091
3823.00,1.6220
3822.00,1.6352
3821.00,1.6490
3820.00,1.6624
3819.00,1.6744
3818.00,1.6849
3817.00,1.6949
3816.00,1.7050
3815.00,1.7146
3814.00,1.7235
3813.00,1.7319
3812.00,1.7399
3811.00,1.7474
3810.00,1.7541
3809.00,1.7598
3808.00,1.7652
3807.00,1.7706
3806.00,1.7759
3805.00,1.7805
3804.00,1.7839
3803.00,1.7867
3802.00,1.7894
3801.00,1.7918
3800.00,1.7931
3799.00,1.7934
3798.00,1.7935
3797.00,1.7941
3796.00,1.7946
3795.00,1.7948
3794.00,1.7948
3793.00,1.7944
3792.00,1.7930
3791.00,1.7908
3790.00,1.7880
3789.00,1.7849
3788.00,1.7814
3787.00,1.7773
3786.00,1.7726
3785.00,1.7670
3784.00,1.7605
3783.00,1.7536
3782.00,1.7466
3781.00,1.7394
3780.00,1.7315
3779.00,1.7228
3778.00,1.7135
3777.00,1.7037
3776.00,1.6934
3775.00,1.6829
3774.00,1.6718
3773.00,1.6600
3772.00,1.6473
3771.00,1.6339
3770.00,1.6197
3769.00,1.6047
3768.00,1.5889
3767.00,1.5725
3766.00,1.5554
3765.00,1.5372
3764.00,1.5180
3763.00,1.4983
3762.00,1.4782
3761.00,1.4572
3760.00,1.4348
3759.00,1.4110
3758.00,1.3861
3757.00,1.3607
3756.00,1.3352
3755.00,1.3101
3754.00,1.2849
3753.00,1.2586
3752.00,1.2300
3751.00,1.1989
3750.00,1.1661
3749.00,1.1340
3748.00,1.1050
3747.00,1.0801
3746.00,1.0573
3745.00,1.0340
3744.00,1.0093
3743.00,0.9857
3742.00,0.9658
3741.00,0.9500
3740.00,0.9376
3739.00,0.9278
3738.00,0.9204
3737.00,0.9150
3736.00,0.9114
3735.00,0.9093
3734.00,0.9088
3733.00,0.9098
3732.00,0.9125
3731.00,0.9164
3730.00,0.9213
3729.00,0.9273
3728.00,0.9347
3727.00,0.9437
3726.00,0.9537
3725.00,0.9640
3724.00,0.9741
3723.00,0.9844
3722.00,0.9948
3721.00,1.0058
3720.00,1.0192
3719.00,1.0365
3718.00,1.0584
3717.00,1.0831
3716.00,1.1089
3715.00,1.1356
3714.00,1.1651
3713.00,1.1993
3712.00,1.2376
3711.00,1.2777
3710.00,1.3171
3709.00,1.3543
3708.00,1.3889
3707.00,1.4211
3706.00,1.4506
3705.00,1.4773
3704.00,1.5018
3703.00,1.5251
3702.00,1.5479
3701.00,1.5704
3700.00,1.5922
3699.00,1.6122
3698.00,1.6304
3697.00,1.6470
3696.00,1.6624
3695.00,1.6768
3694.00,1.6903
3693.00,1.7031
3692.00,1.7152
3691.00,1.7268
3690.00,1.7380
3689.00,1.7496
3688.00,1.7615
3687.00,1.7732
3686.00,1.7840
3685.00,1.7938
3684.00,1.8027
3683.00,1.8108
3682.00,1.8187
3681.00,1.8267
3680.00,1.8346
3679.00,1.8417
3678.00,1.8477
3677.00,1.8531
3676.00,1.8590
3675.00,1.8654
3674.00,1.8717
3673.00,1.8772
3672.00,1.8819
3671.00,1.8861
3670.00,1.8894
3669.00,1.8921
3668.00,1.8946
3667.00,1.8970
3666.00,1.8995
3665.00,1.9020
3664.00,1.9042
3663.00,1.9059
3662.00,1.9071
3661.00,1.9079
3660.00,1.9082
3659.00,1.9076
3658.00,1.9062
3657.00,1.9042
3656.00,1.9018
3655.00,1.8994
3654.00,1.8970
3653.00,1.8948
3652.00,1.8928
3651.00,1.8904
3650.00,1.8867
3649.00,1.8817
3648.00,1.8756
3647.00,1.8689
3646.00,1.8627
3645.00,1.8577
3644.00,1.8534
3643.00,1.8489
3642.00,1.8442
3641.00,1.8394
3640.00,1.8347
3639.00,1.8301
3638.00,1.8255
3637.00,1.8214
3636.00,1.8175
3635.00,1.8134
3634.00,1.8086
3633.00,1.8032
3632.00,1.7971
3631.00,1.7901
3630.00,1.7820
3629.00,1.7721
3628.00,1.7604
3627.00,1.7472
3626.00,1.7328
3625.00,1.7172
3624.00,1.7004
3623.00,1.6822
3622.00,1.6627
3621.00,1.6417
3620.00,1.6191
3619.00,1.5949
3618.00,1.5705
3617.00,1.5477
3616.00,1.5270
3615.00,1.5077
3614.00,1.4888
3613.00,1.4702
3612.00,1.4530
3611.00,1.4380
3610.00,1.4246
3609.00,1.4110
3608.00,1.3964
3607.00,1.3806
3606.00,1.3643
3605.00,1.3477
3604.00,1.3310
3603.00,1.3144
3602.00,1.2977
3601.00,1.2811
3600.00,1.2648
3599.00,1.2490
3598.00,1.2342
3597.00,1.2204
3596.00,1.2080
3595.00,1.1970
3594.00,1.1875
3593.00,1.1795
3592.00,1.1732
3591.00,1.1687
3590.00,1.1663
3589.00,1.1661
3588.00,1.1682
3587.00,1.1723
3586.00,1.1779
3585.00,1.1847
3584.00,1.1926
3583.00,1.2020
3582.00,1.2131
3581.00,1.2259
3580.00,1.2406
3579.00,1.2569
3578.00,1.2744
3577.00,1.2928
3576.00,1.3121
3575.00,1.3320
3574.00,1.3527
3573.00,1.3738
3572.00,1.3951
3571.00,1.4163
3570.00,1.4374
3569.00,1.4590
3568.00,1.4815
3567.00,1.5047
3566.00,1.5278
3565.00,1.5499
3564.00,1.5708
3563.00,1.5907
3562.00,1.6100
3561.00,1.6287
3560.00,1.6470
3559.00,1.6649
3558.00,1.6824
3557.00,1.6996
3556.00,1.7163
3555.00,1.7325
3554.00,1.7481
3553.00,1.7630
3552.00,1.7773
3551.00,1.7907
3550.00,1.8033
3549.00,1.8154
3548.00,1.8273
3547.00,1.8392
3546.00,1.8510
3545.00,1.8626
3544.00,1.8732
3543.00,1.8824
3542.00,1.8904
3541.00,1.8978
3540.00,1.9053
3539.00,1.9131
3538.00,1.9208
3537.00,1.9280
3536.00,1.9346
3535.00,1.9407
3534.00,1.9465
3533.00,1.9520
3532.00,1.9569
3531.00,1.9609
3530.00,1.9640
3529.00,1.9665
3528.00,1.9689
3527.00,1.9712
3526.00,1.9735
3525.00,1.9758
3524.00,1.9781
3523.00,1.9800
3522.00,1.9818
3521.00,1.9835
3520.00,1.9849
3519.00,1.9855
3518.00,1.9850
3517.00,1.9835
3516.00,1.9813
3515.00,1.9788
3514.00,1.9765
3513.00,1.9745
3512.00,1.9723
3511.00,1.9693
3510.00,1.9652
3509.00,1.9604
3508.00,1.9551
3507.00,1.9492
3506.00,1.9429
3505.00,1.9365
3504.00,1.9299
3503.00,1.9230
3502.00,1.9156
3501.00,1.9075
3500.00,1.8988
3499.00,1.8897
3498.00,1.8799
3497.00,1.8697
3496.00,1.8589
3495.00,1.8473
3494.00,1.8352
3493.00,1.8227
3492.00,1.8099
3491.00,1.7966
3490.00,1.7826
3489.00,1.7677
3488.00,1.7519
3487.00,1.7353
3486.00,1.7180
3485.00,1.7002
3484.00,1.6817
3483.00,1.6623
3482.00,1.6420
3481.00,1.6210
3480.00,1.5993
3479.00,1.5769
3478.00,1.5539
3477.00,1.5305
3476.00,1.5067
3475.00,1.4824
3474.00,1.4574
3473.00,1.4318
3472.00,1.4057
3471.00,1.3793
3470.00,1.3529
3469.00,1.3267
3468.00,1.3007
3467.00,1.2751
3466.00,1.2500
3465.00,1.2257
3464.00,1.2024
3463.00,1.1801
3462.00,1.1591
3461.00,1.1394
3460.00,1.1213
3459.00,1.1049
3458.00,1.0904
3457.00,1.0781
3456.00,1.0678
3455.00,1.0598
3454.00,1.0540
3453.00,1.0506
3452.00,1.0496
3451.00,1.0510
3450.00,1.0547
3449.00,1.0607
3448.00,1.0691
3447.00,1.0797
3446.00,1.0924
3445.00,1.1070
3444.00,1.1234
3443.00,1.1415
3442.00,1.1610
3441.00,1.1818
3440.00,1.2036
3439.00,1.2265
3438.00,1.2502
3437.00,1.2747
3436.00,1.2998
3435.00,1.3253
3434.00,1.3511
3433.00,1.3772
3432.00,1.4034
3431.00,1.4294
3430.00,1.4553
3429.00,1.4809
3428.00,1.5063
3427.00,1.5315
3426.00,1.5562
3425.00,1.5804
3424.00,1.6039
3423.00,1.6267
3422.00,1.6490
3421.00,1.6708
3420.00,1.6918
3419.00,1.7121
3418.00,1.7314
3417.00,1.7499
3416.00,1.7677
3415.00,1.7849
3414.00,1.8016
3413.00,1.8176
3412.00,1.8328
3411.00,1.8470
3410.00,1.8605
3409.00,1.8734
3408.00,1.8859
3407.00,1.8981
3406.00,1.9097
3405.00,1.9205
3404.00,1.9303
3403.00,1.9389
3402.00,1.9469
3401.00,1.9550
3400.00,1.9635
3399.00,1.9722
3398.00,1.9804
3397.00,1.9876
3396.00,1.9935
3395.00,1.9984
3394.00,2.0029
3393.00,2.0073
3392.00,2.0115
3391.00,2.0154
3390.00,2.0189
3389.00,2.0222
3388.00,2.0252
3387.00,2.0278
3386.00,2.0296
3385.00,2.0305
3384.00,2.0304
3383.00,2.0295
3382.00,2.0280
3381.00,2.0263
3380.00,2.0249
3379.00,2.0236
3378.00,2.0224
3377.00,2.0210
3376.00,2.0191
3375.00,2.0163
3374.00,2.0125
3373.00,2.0080
3372.00,2.0030
3371.00,1.9976
3370.00,1.9918
3369.00,1.9856
3368.00,1.9790
3367.00,1.9719
3366.00,1.9643
3365.00,1.9559
3364.00,1.9466
3363.00,1.9364
3362.00,1.9259
3361.00,1.9154
3360.00,1.9046
3359.00,1.8932
3358.00,1.8810
3357.00,1.8679
3356.00,1.8542
3355.00,1.8400
3354.00,1.8252
3353.00,1.8098
3352.00,1.7937
3351.00,1.7768
3350.00,1.7591
3349.00,1.7405
3348.00,1.7208
3347.00,1.7003
3346.00,1.6792
3345.00,1.6576
3344.00,1.6355
3343.00,1.6127
3342.00,1.5888
3341.00,1.5639
3340.00,1.5381
3339.00,1.5117
3338.00,1.4849
3337.00,1.4578
3336.00,1.4304
3335.00,1.4028
3334.00,1.3751
3333.00,1.3476
3332.00,1.3205
3331.00,1.2941
3330.00,1.2684
3329.00,1.2437
3328.00,1.2202
3327.00,1.1980
3326.00,1.1772
3325.00,1.1577
3324.00,1.1397
3323.00,1.1232
3322.00,1.1084
3321.00,1.0954
3320.00,1.0846
3319.00,1.0760
3318.00,1.0697
3317.00,1.0660
3316.00,1.0650
3315.00,1.0666
3314.00,1.0709
3313.00,1.0779
3312.00,1.0874
3311.00,1.0993
3310.00,1.1135
3309.00,1.1298
3308.00,1.1479
3307.00,1.1678
3306.00,1.1892
3305.00,1.2119
3304.00,1.2357
3303.00,1.2605
3302.00,1.2861
3301.00,1.3125
3300.00,1.3394
3299.00,1.3666
3298.00,1.3940
3297.00,1.4215
3296.00,1.4490
3295.00,1.4763
3294.00,1.5035
3293.00,1.5304
3292.00,1.5568
3291.00,1.5827
3290.00,1.6079
3289.00,1.6326
3288.00,1.6565
3287.00,1.6796
3286.00,1.7019
3285.00,1.7235
3284.00,1.7447
3283.00,1.7652
3282.00,1.7849
3281.00,1.8038
3280.00,1.8217
3279.00,1.8388
3278.00,1.8556
3277.00,1.8720
3276.00,1.8878
3275.00,1.9026
3274.00,1.9163
3273.00,1.9292
3272.00,1.9415
3271.00,1.9534
3270.00,1.9647
3269.00,1.9754
3268.00,1.9857
3267.00,1.9955
3266.00,2.0050
3265.00,2.0142
3264.00,2.0231
3263.00,2.0313
3262.00,2.0386
3261.00,2.0449
3260.00,2.0504
3259.00,2.0557
3258.00,2.0611
3257.00,2.0664
3256.00,2.0714
3255.00,2.0755
3254.00,2.0791
3253.00,2.0824
3252.00,2.0856
3251.00,2.0882
3250.00,2.0901
3249.00,2.0915
3248.00,2.0926
3247.00,2.0932
3246.00,2.0931
3245.00,2.0922
3244.00,2.0907
3243.00,2.0888
3242.00,2.0866
3241.00,2.0843
3240.00,2.0818
3239.00,2.0791
3238.00,2.0762
3237.00,2.0726
3236.00,2.0677
3235.00,2.0617
3234.00,2.0550
3233.00,2.0484
3232.00,2.0415
3231.00,2.0339
3230.00,2.0258
3229.00,2.0174
3228.00,2.0088
3227.00,1.9997
3226.00,1.9902
3225.00,1.9802
3224.00,1.9695
3223.00,1.9579
3222.00,1.9452
3221.00,1.9318
3220.00,1.9177
3219.00,1.9031
3218.00,1.8878
3217.00,1.8720
3216.00,1.8557
3215.00,1.8390
3214.00,1.8219
3213.00,1.8043
3212.00,1.7861
3211.00,1.7673
3210.00,1.7481
3209.00,1.7286
3208.00,1.7089
3207.00,1.6893
3206.00,1.6699
3205.00,1.6509
3204.00,1.6319
3203.00,1.6127
3202.00,1.5928
3201.00,1.5720
3200.00,1.5498
3199.00,1.5259
3198.00,1.5001
3197.00,1.4728
3196.00,1.4444
3195.00,1.4155
3194.00,1.3867
3193.00,1.3585
3192.00,1.3314
3191.00,1.3055
3190.00,1.2813
3189.00,1.2590
3188.00,1.2391
3187.00,1.2217
3186.00,1.2070
3185.00,1.1952
3184.00,1.1863
3183.00,1.1807
3182.00,1.1784
3181.00,1.1797
3180.00,1.1846
3179.00,1.1933
3178.00,1.2058
3177.00,1.2222
3176.00,1.2423
3175.00,1.2660
3174.00,1.2932
3173.00,1.3237
3172.00,1.3574
3171.00,1.3940
3170.00,1.4328
3169.00,1.4729
3168.00,1.5130
3167.00,1.5508
3166.00,1.5831
3165.00,1.6062
3164.00,1.6179
3163.00,1.6185
3162.00,1.6113
3161.00,1.6011
3160.00,1.5923
3159.00,1.5881
3158.00,1.5898
3157.00,1.5977
3156.00,1.6109
3155.00,1.6283
3154.00,1.6488
3153.00,1.6712
3152.00,1.6949
3151.00,1.7191
3150.00,1.7433
3149.00,1.7672
3148.00,1.7905
3147.00,1.8130
3146.00,1.8348
3145.00,1.8558
3144.00,1.8761
3143.00,1.8958
3142.00,1.9147
3141.00,1.9326
3140.00,1.9493
3139.00,1.9648
3138.00,1.9797
3137.00,1.9947
3136.00,2.0096
3135.00,2.0237
3134.00,2.0364
3133.00,2.0476
3132.00,2.0580
3131.00,2.0681
3130.00,2.0779
3129.00,2.0873
3128.00,2.0961
3127.00,2.1046
3126.00,2.1134
3125.00,2.1224
3124.00,2.1311
3123.00,2.1385
3122.00,2.1442
3121.00,2.1486
3120.00,2.1526
3119.00,2.1567
3118.00,2.1609
3117.00,2.1646
3116.00,2.1676
3115.00,2.1699
3114.00,2.1719
3113.00,2.1739
3112.00,2.1757
3111.00,2.1771
3110.00,2.1780
3109.00,2.1782
3108.00,2.1777
3107.00,2.1765
3106.00,2.1748
3105.00,2.1729
3104.00,2.1703
3103.00,2.1668
3102.00,2.1627
3101.00,2.1581
3100.00,2.1536
3099.00,2.1491
3098.00,2.1444
3097.00,2.1393
3096.00,2.1335
3095.00,2.1271
3094.00,2.1201
3093.00,2.1127
3092.00,2.1045
3091.00,2.0956
3090.00,2.0859
3089.00,2.0757
3088.00,2.0653
3087.00,2.0550
3086.00,2.0447
3085.00,2.0337
3084.00,2.0216
3083.00,2.0084
3082.00,1.9945
3081.00,1.9803
3080.00,1.9659
3079.00,1.9507
3078.00,1.9347
3077.00,1.9176
3076.00,1.8997
3075.00,1.8812
3074.00,1.8621
3073.00,1.8424
3072.00,1.8220
3071.00,1.8007
3070.00,1.7790
3069.00,1.7569
3068.00,1.7344
3067.00,1.7115
3066.00,1.6881
3065.00,1.6645
3064.00,1.6409
3063.00,1.6174
3062.00,1.5940
3061.00,1.5709
3060.00,1.5482
3059.00,1.5260
3058.00,1.5047
3057.00,1.4845
3056.00,1.4653
3055.00,1.4474
3054.00,1.4309
3053.00,1.4160
3052.00,1.4031
3051.00,1.3922
3050.00,1.3834
3049.00,1.3767
3048.00,1.3723
3047.00,1.3703
3046.00,1.3708
3045.00,1.3739
3044.00,1.3795
3043.00,1.3876
3042.00,1.3981
3041.00,1.4107
3040.00,1.4255
3039.00,1.4421
3038.00,1.4605
3037.00,1.4806
3036.00,1.5022
3035.00,1.5252
3034.00,1.5494
3033.00,1.5745
3032.00,1.6003
3031.00,1.6265
3030.00,1.6529
3029.00,1.6796
3028.00,1.7066
3027.00,1.7336
3026.00,1.7605
3025.00,1.7871
3024.00,1.8134
3023.00,1.8395
3022.00,1.8652
3021.00,1.8903
3020.00,1.9149
3019.00,1.9390
3018.00,1.9625
3017.00,1.9854
3016.00,2.0077
3015.00,2.0291
3014.00,2.0498
3013.00,2.0697
3012.00,2.0887
3011.00,2.1070
3010.00,2.1244
3009.00,2.1411
3008.00,2.1566
3007.00,2.1707
3006.00,2.1831
3005.00,2.1939
3004.00,2.2033
3003.00,2.2113
3002.00,2.2181
3001.00,2.2242
3000.00,2.2299
2999.00,2.2350
2998.00,2.2395
2997.00,2.2431
2996.00,2.2460
2995.00,2.2485
2994.00,2.2514
2993.00,2.2552
2992.00,2.2596
2991.00,2.2638
2990.00,2.2676
2989.00,2.2714
2988.00,2.2759
2987.00,2.2813
2986.00,2.2872
2985.00,2.2929
2984.00,2.2983
2983.00,2.3032
2982.00,2.3075
2981.00,2.3115
2980.00,2.3154
2979.00,2.3196
2978.00,2.3239
2977.00,2.3279
2976.00,2.3314
2975.00,2.3346
2974.00,2.3377
2973.00,2.3406
2972.00,2.3433
2971.00,2.3463
2970.00,2.3501
2969.00,2.3544
2968.00,2.3580
2967.00,2.3609
2966.00,2.3635
2965.00,2.3667
2964.00,2.3702
2963.00,2.3737
2962.00,2.3775
2961.00,2.3813
2960.00,2.3849
2959.00,2.3877
2958.00,2.3904
2957.00,2.3939
2956.00,2.3987
2955.00,2.4048
2954.00,2.4128
2953.00,2.4230
2952.00,2.4356
2951.00,2.4497
2950.00,2.4646
2949.00,2.4797
2948.00,2.4951
2947.00,2.5111
2946.00,2.5278
2945.00,2.5440
2944.00,2.5569
2943.00,2.5634
2942.00,2.5624
2941.00,2.5545
2940.00,2.5413
2939.00,2.5244
2938.00,2.5052
2937.00,2.4847
2936.00,2.4637
2935.00,2.4430
2934.00,2.4236
2933.00,2.4058
2932.00,2.3886
2931.00,2.3708
2930.00,2.3522
2929.00,2.3333
2928.00,2.3147
2927.00,2.2960
2926.00,2.2766
2925.00,2.2566
2924.00,2.2362
2923.00,2.2161
2922.00,2.1961
2921.00,2.1755
2920.00,2.1538
2919.00,2.1311
2918.00,2.1078
2917.00,2.0840
2916.00,2.0596
2915.00,2.0345
2914.00,2.0089
2913.00,1.9833
2912.00,1.9578
2911.00,1.9324
2910.00,1.9068
2909.00,1.8807
2908.00,1.8540
2907.00,1.8272
2906.00,1.8006
2905.00,1.7746
2904.00,1.7489
2903.00,1.7232
2902.00,1.6977
2901.00,1.6729
2900.00,1.6490
2899.00,1.6262
2898.00,1.6048
2897.00,1.5850
2896.00,1.5670
2895.00,1.5512
2894.00,1.5379
2893.00,1.5275
2892.00,1.5205
2891.00,1.5172
2890.00,1.5177
2889.00,1.5222
2888.00,1.5305
2887.00,1.5424
2886.00,1.5576
2885.00,1.5759
2884.00,1.5969
2883.00,1.6202
2882.00,1.6456
2881.00,1.6728
2880.00,1.7016
2879.00,1.7314
2878.00,1.7618
2877.00,1.7927
2876.00,1.8235
2875.00,1.8537
2874.00,1.8823
2873.00,1.9084
2872.00,1.9315
2871.00,1.9513
2870.00,1.9680
2869.00,1.9814
2868.00,1.9918
2867.00,1.9995
2866.00,2.0054
2865.00,2.0102
2864.00,2.0144
2863.00,2.0180
2862.00,2.0210
2861.00,2.0235
2860.00,2.0258
2859.00,2.0282
2858.00,2.0316
2857.00,2.0370
2856.00,2.0447
2855.00,2.0547
2854.00,2.0667
2853.00,2.0803
2852.00,2.0949
2851.00,2.1094
2850.00,2.1236
2849.00,2.1377
2848.00,2.1524
2847.00,2.1678
2846.00,2.1833
2845.00,2.1980
2844.00,2.2111
2843.00,2.2229
2842.00,2.2343
2841.00,2.2457
2840.00,2.2574
2839.00,2.2687
2838.00,2.2789
2837.00,2.2874
2836.00,2.2944
2835.00,2.3002
2834.00,2.3059
2833.00,2.3120
2832.00,2.3189
2831.00,2.3263
2830.00,2.3334
2829.00,2.3389
2828.00,2.3424
2827.00,2.3444
2826.00,2.3461
2825.00,2.3477
2824.00,2.3489
2823.00,2.3497
2822.00,2.3506
2821.00,2.3520
2820.00,2.3533
2819.00,2.3537
2818.00,2.3529
2817.00,2.3506
2816.00,2.3473
2815.00,2.3436
2814.00,2.3401
2813.00,2.3366
2812.00,2.3326
2811.00,2.3279
2810.00,2.3222
2809.00,2.3157
2808.00,2.3087
2807.00,2.3015
2806.00,2.2942
2805.00,2.2863
2804.00,2.2776
2803.00,2.2683
2802.00,2.2586
2801.00,2.2486
2800.00,2.2376
2799.00,2.2256
2798.00,2.2127
2797.00,2.1991
2796.00,2.1846
2795.00,2.1693
2794.00,2.1535
2793.00,2.1372
2792.00,2.1205
2791.00,2.1028
2790.00,2.0840
2789.00,2.0639
2788.00,2.0422
2787.00,2.0191
2786.00,1.9951
2785.00,1.9705
2784.00,1.9449
2783.00,1.9180
2782.00,1.8893
2781.00,1.8591
2780.00,1.8273
2779.00,1.7943
2778.00,1.7599
2777.00,1.7243
2776.00,1.6872
2775.00,1.6487
2774.00,1.6088
2773.00,1.5681
2772.00,1.5268
2771.00,1.4853
2770.00,1.4439
2769.00,1.4031
2768.00,1.3634
2767.00,1.3254
2766.00,1.2894
2765.00,1.2557
2764.00,1.2249
2763.00,1.1971
2762.00,1.1728
2761.00,1.1524
2760.00,1.1362
2759.00,1.1245
2758.00,1.1177
2757.00,1.1159
2756.00,1.1191
2755.00,1.1274
2754.00,1.1404
2753.00,1.1580
2752.00,1.1798
2751.00,1.2052
2750.00,1.2338
2749.00,1.2651
2748.00,1.2989
2747.00,1.3345
2746.00,1.3716
2745.00,1.4098
2744.00,1.4490
2743.00,1.4887
2742.00,1.5288
2741.00,1.5689
2740.00,1.6088
2739.00,1.6481
2738.00,1.6865
2737.00,1.7241
2736.00,1.7606
2735.00,1.7960
2734.00,1.8302
2733.00,1.8632
2732.00,1.8951
2731.00,1.9256
2730.00,1.9547
2729.00,1.9825
2728.00,2.0091
2727.00,2.0345
2726.00,2.0588
2725.00,2.0818
2724.00,2.1035
2723.00,2.1241
2722.00,2.1437
2721.00,2.1628
2720.00,2.1809
2719.00,2.1980
2718.00,2.2139
2717.00,2.2293
2716.00,2.2445
2715.00,2.2595
2714.00,2.2739
2713.00,2.2873
2712.00,2.2991
2711.00,2.3098
2710.00,2.3202
2709.00,2.3313
2708.00,2.3424
2707.00,2.3525
2706.00,2.3612
2705.00,2.3692
2704.00,2.3770
2703.00,2.3847
2702.00,2.3921
2701.00,2.3988
2700.00,2.4047
2699.00,2.4099
2698.00,2.4145
2697.00,2.4186
2696.00,2.4218
2695.00,2.4240
2694.00,2.4252
2693.00,2.4261
2692.00,2.4271
2691.00,2.4287
2690.00,2.4311
2689.00,2.4337
2688.00,2.4354
2687.00,2.4356
2686.00,2.4345
2685.00,2.4331
2684.00,2.4319
2683.00,2.4306
2682.00,2.4286
2681.00,2.4254
2680.00,2.4210
2679.00,2.4157
2678.00,2.4104
2677.00,2.4055
2676.00,2.4004
2675.00,2.3946
2674.00,2.3879
2673.00,2.3806
2672.00,2.3729
2671.00,2.3650
2670.00,2.3565
2669.00,2.3470
2668.00,2.3358
2667.00,2.3234
2666.00,2.3107
2665.00,2.2983
2664.00,2.2858
2663.00,2.2724
2662.00,2.2578
2661.00,2.2424
2660.00,2.2264
2659.00,2.2098
2658.00,2.1922
2657.00,2.1733
2656.00,2.1529
2655.00,2.1313
2654.00,2.1089
2653.00,2.0860
2652.00,2.0621
2651.00,2.0365
2650.00,2.0089
2649.00,1.9798
2648.00,1.9495
2647.00,1.9181
2646.00,1.8851
2645.00,1.8502
2644.00,1.8131
2643.00,1.7739
2642.00,1.7328
2641.00,1.6901
2640.00,1.6464
2639.00,1.6021
2638.00,1.5579
2637.00,1.5149
2636.00,1.4742
2635.00,1.4370
2634.00,1.4047
2633.00,1.3787
2632.00,1.3598
2631.00,1.3479
2630.00,1.3414
2629.00,1.3372
2628.00,1.3316
2627.00,1.3216
2626.00,1.3066
2625.00,1.2882
2624.00,1.2690
2623.00,1.2519
2622.00,1.2389
2621.00,1.2312
2620.00,1.2292
2619.00,1.2331
2618.00,1.2427
2617.00,1.2577
2616.00,1.2774
2615.00,1.3015
2614.00,1.3293
2613.00,1.3605
2612.00,1.3946
2611.00,1.4311
2610.00,1.4694
2609.00,1.5092
2608.00,1.5502
2607.00,1.5920
2606.00,1.6343
2605.00,1.6765
2604.00,1.7184
2603.00,1.7594
2602.00,1.7994
2601.00,1.8382
2600.00,1.8759
2599.00,1.9124
2598.00,1.9475
2597.00,1.9809
2596.00,2.0125
2595.00,2.0425
2594.00,2.0710
2593.00,2.0985
2592.00,2.1252
2591.00,2.1506
2590.00,2.1745
2589.00,2.1969
2588.00,2.2176
2587.00,2.2369
2586.00,2.2551
2585.00,2.2729
2584.00,2.2908
2583.00,2.3086
2582.00,2.3258
2581.00,2.3419
2580.00,2.3566
2579.00,2.3698
2578.00,2.3819
2577.00,2.3934
2576.00,2.4052
2575.00,2.4176
2574.00,2.4300
2573.00,2.4415
2572.00,2.4512
2571.00,2.4597
2570.00,2.4679
2569.00,2.4764
2568.00,2.4844
2567.00,2.4908
2566.00,2.4958
2565.00,2.5006
2564.00,2.5061
2563.00,2.5117
2562.00,2.5161
2561.00,2.5185
2560.00,2.5192
2559.00,2.5197
2558.00,2.5213
2557.00,2.5239
2556.00,2.5265
2555.00,2.5281
2554.00,2.5289
2553.00,2.5292
2552.00,2.5290
2551.00,2.5282
2550.00,2.5268
2549.00,2.5256
2548.00,2.5249
2547.00,2.5242
2546.00,2.5224
2545.00,2.5185
2544.00,2.5130
2543.00,2.5072
2542.00,2.5020
2541.00,2.4969
2540.00,2.4908
2539.00,2.4834
2538.00,2.4751
2537.00,2.4667
2536.00,2.4583
2535.00,2.4498
2534.00,2.4414
2533.00,2.4327
2532.00,2.4226
2531.00,2.4108
2530.00,2.3979
2529.00,2.3847
2528.00,2.3711
2527.00,2.3571
2526.00,2.3425
2525.00,2.3272
2524.00,2.3107
2523.00,2.2930
2522.00,2.2746
2521.00,2.2558
2520.00,2.2363
2519.00,2.2154
2518.00,2.1929
2517.00,2.1693
2516.00,2.1445
2515.00,2.1184
2514.00,2.0909
2513.00,2.0619
2512.00,2.0313
2511.00,1.9990
2510.00,1.9651
2509.00,1.9299
2508.00,1.8931
2507.00,1.8543
2506.00,1.8135
2505.00,1.7708
2504.00,1.7267
2503.00,1.6816
2502.00,1.6356
2501.00,1.5893
2500.00,1.5432
2499.00,1.4980
2498.00,1.4543
2497.00,1.4127
2496.00,1.3739
2495.00,1.3384
2494.00,1.3066
2493.00,1.2790
2492.00,1.2558
2491.00,1.2376
2490.00,1.2245
2489.00,1.2170
2488.00,1.2153
2487.00,1.2192
2486.00,1.2288
2485.00,1.2437
2484.00,1.2637
2483.00,1.2882
2482.00,1.3166
2481.00,1.3484
2480.00,1.3832
2479.00,1.4204
2478.00,1.4596
2477.00,1.5004
2476.00,1.5423
2475.00,1.5850
2474.00,1.6283
2473.00,1.6718
2472.00,1.7153
2471.00,1.7585
2470.00,1.8010
2469.00,1.8426
2468.00,1.8832
2467.00,1.9225
2466.00,1.9606
2465.00,1.9975
2464.00,2.0328
2463.00,2.0664
2462.00,2.0985
2461.00,2.1292
2460.00,2.1588
2459.00,2.1867
2458.00,2.2131
2457.00,2.2382
2456.00,2.2622
2455.00,2.2854
2454.00,2.3080
2453.00,2.3302
2452.00,2.3511
2451.00,2.3701
2450.00,2.3874
2449.00,2.4040
2448.00,2.4202
2447.00,2.4354
2446.00,2.4495
2445.00,2.4631
2444.00,2.4767
2443.00,2.4902
2442.00,2.5034
2441.00,2.5160
2440.00,2.5279
2439.00,2.5387
2438.00,2.5481
2437.00,2.5563
2436.00,2.5637
2435.00,2.5705
2434.00,2.5775
2433.00,2.5848
2432.00,2.5917
2431.00,2.5972
2430.00,2.6018
2429.00,2.6065
2428.00,2.6115
2427.00,2.6160
2426.00,2.6193
2425.00,2.6221
2424.00,2.6250
2423.00,2.6281
2422.00,2.6308
2421.00,2.6328
2420.00,2.6343
2419.00,2.6356
2418.00,2.6374
2417.00,2.6394
2416.00,2.6408
2415.00,2.6407
2414.00,2.6396
2413.00,2.6378
2412.00,2.6354
2411.00,2.6323
2410.00,2.6289
2409.00,2.6259
2408.00,2.6227
2407.00,2.6184
2406.00,2.6131
2405.00,2.6077
2404.00,2.6029
2403.00,2.5982
2402.00,2.5931
2401.00,2.5873
2400.00,2.5803
2399.00,2.5711
2398.00,2.5597
2397.00,2.5465
2396.00,2.5328
2395.00,2.5192
2394.00,2.5060
2393.00,2.4926
2392.00,2.4782
2391.00,2.4621
2390.00,2.4442
2389.00,2.4247
2388.00,2.4032
2387.00,2.3805
2386.00,2.3584
2385.00,2.3394
2384.00,2.3256
2383.00,2.3178
2382.00,2.3158
2381.00,2.3188
2380.00,2.3250
2379.00,2.3321
2378.00,2.3375
2377.00,2.3397
2376.00,2.3372
2375.00,2.3301
2374.00,2.3194
2373.00,2.3080
2372.00,2.2996
2371.00,2.2951
2370.00,2.2931
2369.00,2.2944
2368.00,2.3002
2367.00,2.3069
2366.00,2.3107
2365.00,2.3150
2364.00,2.3177
2363.00,2.3148
2362.00,2.3080
2361.00,2.2955
2360.00,2.2828
2359.00,2.2699
2358.00,2.2538
2357.00,2.2390
2356.00,2.2244
2355.00,2.2115
2354.00,2.2007
2353.00,2.2142
2352.00,2.2668
2351.00,2.3247
2350.00,2.3475
2349.00,2.3224
2348.00,2.2950
2347.00,2.3071
2346.00,2.3498
2345.00,2.3929
2344.00,2.4038
2343.00,2.3964
2342.00,2.3858
2341.00,2.3814
2340.00,2.3826
2339.00,2.3851
2338.00,2.3875
2337.00,2.3910
2336.00,2.3985
2335.00,2.4097
2334.00,2.4224
2333.00,2.4333
2332.00,2.4478
2331.00,2.4564
2330.00,2.4706
2329.00,2.4821
2328.00,2.4960
2327.00,2.5070
2326.00,2.5169
2325.00,2.5345
2324.00,2.5546
2323.00,2.5744
2322.00,2.5830
2321.00,2.5823
2320.00,2.5780
2319.00,2.5761
2318.00,2.5816
2317.00,2.5913
2316.00,2.6067
2315.00,2.6215
2314.00,2.6367
2313.00,2.6468
2312.00,2.6546
2311.00,2.6582
2310.00,2.6618
2309.00,2.6654
2308.00,2.6714
2307.00,2.6788
2306.00,2.6881
2305.00,2.6991
2304.00,2.7125
2303.00,2.7271
2302.00,2.7431
2301.00,2.7586
2300.00,2.7745
2299.00,2.7899
2298.00,2.8069
2297.00,2.8250
2296.00,2.8440
2295.00,2.8607
2294.00,2.8728
2293.00,2.8789
2292.00,2.8788
2291.00,2.8725
2290.00,2.8593
2289.00,2.8402
2288.00,2.8179
2287.00,2.7968
2286.00,2.7810
2285.00,2.7727
2284.00,2.7713
2283.00,2.7741
2282.00,2.7778
2281.00,2.7795
2280.00,2.7786
2279.00,2.7768
2278.00,2.7760
2277.00,2.7763
2276.00,2.7755
2275.00,2.7713
2274.00,2.7631
2273.00,2.7516
2272.00,2.7367
2271.00,2.7184
2270.00,2.6971
2269.00,2.6735
2268.00,2.6474
2267.00,2.6174
2266.00,2.5830
2265.00,2.5452
2264.00,2.5070
2263.00,2.4736
2262.00,2.4524
2261.00,2.4524
2260.00,2.4820
2259.00,2.5479
2258.00,2.6547
2257.00,2.8049
2256.00,2.9988
2255.00,3.2324
2254.00,3.4895
2253.00,3.7089
2252.00,3.7663
2251.00,3.6417
2250.00,3.4623
2249.00,3.3023
2248.00,3.1765
2247.00,3.0799
2246.00,3.0050
2245.00,2.9467
2244.00,2.9015
2243.00,2.8660
2242.00,2.8359
2241.00,2.8072
2240.00,2.7783
2239.00,2.7494
2238.00,2.7214
2237.00,2.6950
2236.00,2.6701
2235.00,2.6459
2234.00,2.6215
2233.00,2.5959
2232.00,2.5686
2231.00,2.5392
2230.00,2.5074
2229.00,2.4733
2228.00,2.4376
2227.00,2.4016
2226.00,2.3655
2225.00,2.3280
2224.00,2.2877
2223.00,2.2441
2222.00,2.1979
2221.00,2.1494
2220.00,2.0982
2219.00,2.0439
2218.00,1.9865
2217.00,1.9266
2216.00,1.8648
2215.00,1.8019
2214.00,1.7390
2213.00,1.6772
2212.00,1.6181
2211.00,1.5633
2210.00,1.5149
2209.00,1.4748
2208.00,1.4449
2207.00,1.4263
2206.00,1.4187
2205.00,1.4196
2204.00,1.4252
2203.00,1.4317
2202.00,1.4379
2201.00,1.4455
2200.00,1.4577
2199.00,1.4768
2198.00,1.5034
2197.00,1.5370
2196.00,1.5765
2195.00,1.6207
2194.00,1.6685
2193.00,1.7188
2192.00,1.7708
2191.00,1.8236
2190.00,1.8766
2189.00,1.9288
2188.00,1.9797
2187.00,2.0290
2186.00,2.0764
2185.00,2.1219
2184.00,2.1649
2183.00,2.2053
2182.00,2.2433
2181.00,2.2798
2180.00,2.3149
2179.00,2.3479
2178.00,2.3780
2177.00,2.4055
2176.00,2.4313
2175.00,2.4564
2174.00,2.4810
2173.00,2.5048
2172.00,2.5275
2171.00,2.5491
2170.00,2.5692
2169.00,2.5875
2168.00,2.6040
2167.00,2.6193
2166.00,2.6348
2165.00,2.6515
2164.00,2.6691
2163.00,2.6857
2162.00,2.6993
2161.00,2.7093
2160.00,2.7173
2159.00,2.7259
2158.00,2.7372
2157.00,2.7500
2156.00,2.7613
2155.00,2.7688
2154.00,2.7740
2153.00,2.7800
2152.00,2.7885
2151.00,2.7982
2150.00,2.8068
2149.00,2.8128
2148.00,2.8161
2147.00,2.8173
2146.00,2.8176
2145.00,2.8188
2144.00,2.8218
2143.00,2.8267
2142.00,2.8326
2141.00,2.8378
2140.00,2.8406
2139.00,2.8406
2138.00,2.8395
2137.00,2.8394
2136.00,2.8400
2135.00,2.8396
2134.00,2.8370
2133.00,2.8328
2132.00,2.8277
2131.00,2.8217
2130.00,2.8152
2129.00,2.8096
2128.00,2.8061
2127.00,2.8039
2126.00,2.8011
2125.00,2.7968
2124.00,2.7915
2123.00,2.7860
2122.00,2.7794
2121.00,2.7707
2120.00,2.7596
2119.00,2.7474
2118.00,2.7354
2117.00,2.7241
2116.00,2.7135
2115.00,2.7030
2114.00,2.6921
2113.00,2.6797
2112.00,2.6651
2111.00,2.6483
2110.00,2.6309
2109.00,2.6136
2108.00,2.5963
2107.00,2.5777
2106.00,2.5577
2105.00,2.5369
2104.00,2.5162
2103.00,2.4952
2102.00,2.4732
2101.00,2.4493
2100.00,2.4230
2099.00,2.3943
2098.00,2.3637
2097.00,2.3315
2096.00,2.2976
2095.00,2.2620
2094.00,2.2245
2093.00,2.1851
2092.00,2.1433
2091.00,2.0989
2090.00,2.0520
2089.00,2.0029
2088.00,1.9515
2087.00,1.8978
2086.00,1.8424
2085.00,1.7860
2084.00,1.7300
2083.00,1.6752
2082.00,1.6228
2081.00,1.5742
2080.00,1.5303
2079.00,1.4919
2078.00,1.4598
2077.00,1.4346
2076.00,1.4170
2075.00,1.4073
2074.00,1.4054
2073.00,1.4112
2072.00,1.4241
2071.00,1.4432
2070.00,1.4678
2069.00,1.4972
2068.00,1.5304
2067.00,1.5668
2066.00,1.6062
2065.00,1.6483
2064.00,1.6928
2063.00,1.7387
2062.00,1.7858
2061.00,1.8340
2060.00,1.8830
2059.00,1.9323
2058.00,1.9814
2057.00,2.0302
2056.00,2.0784
2055.00,2.1254
2054.00,2.1710
2053.00,2.2145
2052.00,2.2555
2051.00,2.2936
2050.00,2.3296
2049.00,2.3642
2048.00,2.3977
2047.00,2.4291
2046.00,2.4579
2045.00,2.4848
2044.00,2.5111
2043.00,2.5376
2042.00,2.5645
2041.00,2.5909
2040.00,2.6153
2039.00,2.6366
2038.00,2.6556
2037.00,2.6744
2036.00,2.6938
2035.00,2.7128
2034.00,2.7304
2033.00,2.7461
2032.00,2.7595
2031.00,2.7704
2030.00,2.7798
2029.00,2.7902
2028.00,2.8028
2027.00,2.8164
2026.00,2.8294
2025.00,2.8418
2024.00,2.8543
2023.00,2.8660
2022.00,2.8750
2021.00,2.8807
2020.00,2.8843
2019.00,2.8878
2018.00,2.8933
2017.00,2.9019
2016.00,2.9120
2015.00,2.9208
2014.00,2.9265
2013.00,2.9304
2012.00,2.9342
2011.00,2.9378
2010.00,2.9395
2009.00,2.9392
2008.00,2.9385
2007.00,2.9386
2006.00,2.9390
2005.00,2.9388
2004.00,2.9378
2003.00,2.9369
2002.00,2.9369
2001.00,2.9377
2000.00,2.9387
1999.00,2.9387
1998.00,2.9373
1997.00,2.9351
1996.00,2.9319
1995.00,2.9270
1994.00,2.9205
1993.00,2.9136
1992.00,2.9068
1991.00,2.8996
1990.00,2.8914
1989.00,2.8830
1988.00,2.8760
1987.00,2.8711
1986.00,2.8683
1985.00,2.8663
1984.00,2.8635
1983.00,2.8579
1982.00,2.8491
1981.00,2.8372
1980.00,2.8228
1979.00,2.8057
1978.00,2.7867
1977.00,2.7680
1976.00,2.7506
1975.00,2.7336
1974.00,2.7157
1973.00,2.6973
1972.00,2.6791
1971.00,2.6608
1970.00,2.6412
1969.00,2.6200
1968.00,2.5976
1967.00,2.5741
1966.00,2.5490
1965.00,2.5219
1964.00,2.4932
1963.00,2.4636
1962.00,2.4333
1961.00,2.4017
1960.00,2.3678
1959.00,2.3311
1958.00,2.2922
1957.00,2.2514
1956.00,2.2083
1955.00,2.1625
1954.00,2.1135
1953.00,2.0615
1952.00,2.0067
1951.00,1.9500
1950.00,1.8919
1949.00,1.8327
1948.00,1.7734
1947.00,1.7152
1946.00,1.6591
1945.00,1.6058
1944.00,1.5566
1943.00,1.5138
1942.00,1.4788
1941.00,1.4522
1940.00,1.4342
1939.00,1.4260
1938.00,1.4287
1937.00,1.4414
1936.00,1.4621
1935.00,1.4900
1934.00,1.5250
1933.00,1.5669
1932.00,1.6141
1931.00,1.6651
1930.00,1.7192
1929.00,1.7755
1928.00,1.8334
1927.00,1.8914
1926.00,1.9482
1925.00,2.0030
1924.00,2.0567
1923.00,2.1107
1922.00,2.1634
1921.00,2.2116
1920.00,2.2550
1919.00,2.2971
1918.00,2.3402
1917.00,2.3826
1916.00,2.4212
1915.00,2.4569
1914.00,2.4923
1913.00,2.5270
1912.00,2.5588
1911.00,2.5872
1910.00,2.6145
1909.00,2.6416
1908.00,2.6673
1907.00,2.6903
1906.00,2.7121
1905.00,2.7335
1904.00,2.7540
1903.00,2.7728
1902.00,2.7900
1901.00,2.8064
1900.00,2.8227
1899.00,2.8392
1898.00,2.8567
1897.00,2.8748
1896.00,2.8919
1895.00,2.9061
1894.00,2.9165
1893.00,2.9240
1892.00,2.9313
1891.00,2.9408
1890.00,2.9526
1889.00,2.9638
1888.00,2.9715
1887.00,2.9773
1886.00,2.9858
1885.00,2.9985
1884.00,3.0126
1883.00,3.0240
1882.00,3.0316
1881.00,3.0371
1880.00,3.0425
1879.00,3.0480
1878.00,3.0530
1877.00,3.0559
1876.00,3.0549
1875.00,3.0513
1874.00,3.0489
1873.00,3.0491
1872.00,3.0497
1871.00,3.0479
1870.00,3.0432
1869.00,3.0371
1868.00,3.0309
1867.00,3.0264
1866.00,3.0260
1865.00,3.0297
1864.00,3.0345
1863.00,3.0371
1862.00,3.0375
1861.00,3.0368
1860.00,3.0350
1859.00,3.0309
1858.00,3.0252
1857.00,3.0199
1856.00,3.0153
1855.00,3.0099
1854.00,3.0034
1853.00,2.9962
1852.00,2.9879
1851.00,2.9765
1850.00,2.9626
1849.00,2.9483
1848.00,2.9324
1847.00,2.9122
1846.00,2.8889
1845.00,2.8677
1844.00,2.8520
1843.00,2.8393
1842.00,2.8268
1841.00,2.8152
1840.00,2.8061
1839.00,2.7969
1838.00,2.7840
1837.00,2.7656
1836.00,2.7434
1835.00,2.7196
1834.00,2.6942
1833.00,2.6663
1832.00,2.6355
1831.00,2.6015
1830.00,2.5661
1829.00,2.5312
1828.00,2.4977
1827.00,2.4662
1826.00,2.4369
1825.00,2.4073
1824.00,2.3736
1823.00,2.3343
1822.00,2.2916
1821.00,2.2479
1820.00,2.2018
1819.00,2.1508
1818.00,2.0956
1817.00,2.0383
1816.00,1.9809
1815.00,1.9241
1814.00,1.8689
1813.00,1.8173
1812.00,1.7700
1811.00,1.7274
1810.00,1.6905
1809.00,1.6609
1808.00,1.6402
1807.00,1.6286
1806.00,1.6241
1805.00,1.6256
1804.00,1.6340
1803.00,1.6502
1802.00,1.6742
1801.00,1.7061
1800.00,1.7448
1799.00,1.7898
1798.00,1.8419
1797.00,1.8999
1796.00,1.9596
1795.00,2.0157
1794.00,2.0671
1793.00,2.1188
1792.00,2.1745
1791.00,2.2333
1790.00,2.2914
1789.00,2.3469
1788.00,2.4001
1787.00,2.4513
1786.00,2.4996
1785.00,2.5446
1784.00,2.5852
1783.00,2.6207
1782.00,2.6520
1781.00,2.6841
1780.00,2.7171
1779.00,2.7472
1778.00,2.7733
1777.00,2.7971
1776.00,2.8194
1775.00,2.8368
1774.00,2.8492
1773.00,2.8608
1772.00,2.8731
1771.00,2.8841
1770.00,2.8967
1769.00,2.9174
1768.00,2.9477
1767.00,2.9802
1766.00,3.0046
1765.00,3.0195
1764.00,3.0313
1763.00,3.0451
1762.00,3.0600
1761.00,3.0726
1760.00,3.0806
1759.00,3.0868
1758.00,3.0949
1757.00,3.1073
1756.00,3.1216
1755.00,3.1318
1754.00,3.1383
1753.00,3.1462
1752.00,3.1559
1751.00,3.1598
1750.00,3.1513
1749.00,3.1335
1748.00,3.1181
1747.00,3.1125
1746.00,3.1172
1745.00,3.1310
1744.00,3.1481
1743.00,3.1598
1742.00,3.1601
1741.00,3.1526
1740.00,3.1476
1739.00,3.1506
1738.00,3.1538
1737.00,3.1488
1736.00,3.1376
1735.00,3.1261
1734.00,3.1152
1733.00,3.1027
1732.00,3.0905
1731.00,3.0858
1730.00,3.0900
1729.00,3.0959
1728.00,3.0952
1727.00,3.0870
1726.00,3.0789
1725.00,3.0776
1724.00,3.0819
1723.00,3.0882
1722.00,3.0940
1721.00,3.0983
1720.00,3.1050
1719.00,3.1214
1718.00,3.1573
1717.00,3.2182
1716.00,3.3038
1715.00,3.4081
1714.00,3.5208
1713.00,3.6317
1712.00,3.7327
1711.00,3.8155
1710.00,3.8773
1709.00,3.9200
1708.00,3.9392
1707.00,3.9227
1706.00,3.8609
1705.00,3.7645
1704.00,3.6582
1703.00,3.5586
1702.00,3.4720
1701.00,3.3982
1700.00,3.3331
1699.00,3.2730
1698.00,3.2236
1697.00,3.1978
1696.00,3.1977
1695.00,3.2052
1694.00,3.1966
1693.00,3.1720
1692.00,3.1487
1691.00,3.1341
1690.00,3.1201
1689.00,3.0960
1688.00,3.0609
1687.00,3.0199
1686.00,2.9790
1685.00,2.9367
1684.00,2.8909
1683.00,2.8455
1682.00,2.8098
1681.00,2.7915
1680.00,2.7842
1679.00,2.7725
1678.00,2.7455
1677.00,2.7042
1676.00,2.6557
1675.00,2.6042
1674.00,2.5503
1673.00,2.4960
1672.00,2.4424
1671.00,2.3886
1670.00,2.3311
1669.00,2.2708
1668.00,2.2145
1667.00,2.1664
1666.00,2.1231
1665.00,2.0776
1664.00,2.0267
1663.00,1.9737
1662.00,1.9257
1661.00,1.8916
1660.00,1.8759
1659.00,1.8767
1658.00,1.8882
1657.00,1.9013
1656.00,1.9095
1655.00,1.9166
1654.00,1.9344
1653.00,1.9715
1652.00,2.0267
1651.00,2.0885
1650.00,2.1436
1649.00,2.1913
1648.00,2.2400
1647.00,2.2940
1646.00,2.3530
1645.00,2.4161
1644.00,2.4802
1643.00,2.5395
1642.00,2.5910
1641.00,2.6373
1640.00,2.6763
1639.00,2.7023
1638.00,2.7153
1637.00,2.7216
1636.00,2.7302
1635.00,2.7473
1634.00,2.7779
1633.00,2.8192
1632.00,2.8627
1631.00,2.9000
1630.00,2.9266
1629.00,2.9439
1628.00,2.9566
1627.00,2.9682
1626.00,2.9794
1625.00,2.9921
1624.00,3.0087
1623.00,3.0312
1622.00,3.0577
1621.00,3.0836
1620.00,3.1040
1619.00,3.1181
1618.00,3.1295
1617.00,3.1409
1616.00,3.1531
1615.00,3.1656
1614.00,3.1799
1613.00,3.1973
1612.00,3.2151
1611.00,3.2264
1610.00,3.2272
1609.00,3.2237
1608.00,3.2266
1607.00,3.2406
1606.00,3.2601
1605.00,3.2758
1604.00,3.2812
1603.00,3.2794
1602.00,3.2789
1601.00,3.2832
1600.00,3.2886
1599.00,3.2923
1598.00,3.2971
1597.00,3.3064
1596.00,3.3174
1595.00,3.3242
1594.00,3.3248
1593.00,3.3226
1592.00,3.3216
1591.00,3.3224
1590.00,3.3240
1589.00,3.3245
1588.00,3.3212
1587.00,3.3119
1586.00,3.2984
1585.00,3.2855
1584.00,3.2768
1583.00,3.2730
1582.00,3.2744
1581.00,3.2780
1580.00,3.2759
1579.00,3.2624
1578.00,3.2417
1577.00,3.2228
1576.00,3.2097
1575.00,3.2015
1574.00,3.1949
1573.00,3.1885
1572.00,3.1752
1571.00,3.1554
1570.00,3.1207
1569.00,3.1435
1568.00,3.1310
1567.00,3.1137
1566.00,3.0994
1565.00,3.0832
1564.00,3.0685
1563.00,3.0541
1562.00,3.0405
1561.00,3.0275
1560.00,3.0117
1559.00,2.9866
1558.00,2.9517
1557.00,2.9164
1556.00,2.8862
1555.00,2.8594
1554.00,2.8340
1553.00,2.8096
1552.00,2.7856
1551.00,2.7592
1550.00,2.7290
1549.00,2.6962
1548.00,2.6634
1547.00,2.6318
1546.00,2.6007
1545.00,2.5698
1544.00,2.5393
1543.00,2.5088
1542.00,2.4798
1541.00,2.4489
1540.00,2.4215
1539.00,2.3921
1538.00,2.3803
1537.00,2.2703
1536.00,2.2727
1535.00,2.2826
1534.00,2.2864
1533.00,2.2953
1532.00,2.3076
1531.00,2.3294
1530.00,2.3585
1529.00,2.3886
1528.00,2.4159
1527.00,2.4418
1526.00,2.4684
1525.00,2.4939
1524.00,2.5144
1523.00,2.5315
1522.00,2.5514
1521.00,2.5761
1520.00,2.6012
1519.00,2.6242
1518.00,2.6516
1517.00,2.6897
1516.00,2.7352
1515.00,2.7783
1514.00,2.8151
1513.00,2.8493
1512.00,2.8832
1511.00,2.9110
1510.00,2.9300
1509.00,2.9336
1508.00,3.0235
1507.00,3.0536
1506.00,3.0791
1505.00,3.1091
1504.00,3.1359
1503.00,3.1632
1502.00,3.1884
1501.00,3.2125
1500.00,3.1968
1499.00,3.1948
1498.00,3.1908
1497.00,3.1952
1496.00,3.2127
1495.00,3.2385
1494.00,3.2677
1493.00,3.2990
1492.00,3.3305
1491.00,3.3558
1490.00,3.3684
1489.00,3.3692
1488.00,3.3674
1487.00,3.3758
1486.00,3.4003
1485.00,3.4387
1484.00,3.4816
1483.00,3.5127
1482.00,3.5199
1481.00,3.5041
1480.00,3.4794
1479.00,3.4622
1478.00,3.4598
1477.00,3.4655
1476.00,3.4671
1475.00,3.4631
1474.00,3.4646
1473.00,3.4794
1472.00,3.4957
1471.00,3.5007
1470.00,3.5015
1469.00,3.5099
1468.00,3.5258
1467.00,3.5397
1466.00,3.5448
1465.00,3.5461
1464.00,3.5553
1463.00,3.5807
1462.00,3.6166
1461.00,3.6410
1460.00,3.6383
1459.00,3.6208
1458.00,3.6222
1457.00,3.6624
1456.00,3.7116
1455.00,3.7185
1454.00,3.6973
1453.00,3.6934
1452.00,3.7224
1451.00,3.7742
1450.00,3.8318
1449.00,3.8841
1448.00,3.9250
1447.00,3.9511
1446.00,3.9651
1445.00,3.9704
1444.00,3.9500
1443.00,3.8967
1442.00,3.8374
1441.00,3.7935
1440.00,3.7622
1439.00,3.7355
1438.00,3.7157
1437.00,3.7083
1436.00,3.7117
1435.00,3.7137
1434.00,3.7062
1433.00,3.6975
1432.00,3.7006
1431.00,3.7155
1430.00,3.7320
1429.00,3.7442
1428.00,3.7523
1427.00,3.7563
1426.00,3.7584
1425.00,3.7587
1424.00,3.7469
1423.00,3.7194
1422.00,3.6875
1421.00,3.6665
1420.00,3.6600
1419.00,3.6535
1418.00,3.6356
1417.00,3.6155
1416.00,3.6074
1415.00,3.6118
1414.00,3.6222
1413.00,3.6326
1412.00,3.6338
1411.00,3.6154
1410.00,3.5793
1409.00,3.5421
1408.00,3.5198
1407.00,3.5174
1406.00,3.5279
1405.00,3.5384
1404.00,3.5356
1403.00,3.5134
1402.00,3.4786
1401.00,3.4462
1400.00,3.4265
1399.00,3.4173
1398.00,3.4075
1397.00,3.3864
1396.00,3.3524
1395.00,3.3127
1394.00,3.2780
1393.00,3.2552
1392.00,3.2417
1391.00,3.2308
1390.00,3.2189
1389.00,3.2078
1388.00,3.2010
1387.00,3.2013
1386.00,3.2104
1385.00,3.2321
1384.00,3.2693
1383.00,3.3190
1382.00,3.3741
1381.00,3.4305
1380.00,3.4928
1379.00,3.5661
1378.00,3.6483
1377.00,3.7344
1376.00,3.8190
1375.00,3.8753
1374.00,3.8584
1373.00,3.7674
1372.00,3.6479
1371.00,3.5319
1370.00,3.4252
1369.00,3.3272
1368.00,3.2387
1367.00,3.1600
1366.00,3.0888
1365.00,3.0216
1364.00,2.9577
1363.00,2.8999
1362.00,2.8529
1361.00,2.8200
1360.00,2.8021
1359.00,2.7971
1358.00,2.8022
1357.00,2.8168
1356.00,2.8416
1355.00,2.8772
1354.00,2.9214
1353.00,2.9691
1352.00,3.0157
1351.00,3.0585
1350.00,3.0965
1349.00,3.1290
1348.00,3.1543
1347.00,3.1716
1346.00,3.1835
1345.00,3.1966
1344.00,3.2160
1343.00,3.2404
1342.00,3.2627
1341.00,3.2782
1340.00,3.2907
1339.00,3.3047
1338.00,3.3171
1337.00,3.3217
1336.00,3.3202
1335.00,3.3201
1334.00,3.3286
1333.00,3.3483
1332.00,3.3777
1331.00,3.4135
1330.00,3.4506
1329.00,3.4828
1328.00,3.5056
1327.00,3.5209
1326.00,3.5340
1325.00,3.5478
1324.00,3.5617
1323.00,3.5750
1322.00,3.5898
1321.00,3.6081
1320.00,3.6263
1319.00,3.6346
1318.00,3.6258
1317.00,3.6037
1316.00,3.5794
1315.00,3.5623
1314.00,3.5570
1313.00,3.5661
1312.00,3.5885
1311.00,3.6151
1310.00,3.6291
1309.00,3.6236
1308.00,3.6135
1307.00,3.6156
1306.00,3.6302
1305.00,3.6459
1304.00,3.6529
1303.00,3.6525
1302.00,3.6510
1301.00,3.6551
1300.00,3.6699
1299.00,3.6916
1298.00,3.7049
1297.00,3.6986
1296.00,3.6793
1295.00,3.6634
1294.00,3.6576
1293.00,3.6568
1292.00,3.6569
1291.00,3.6604
1290.00,3.6674
1289.00,3.6680
1288.00,3.6526
1287.00,3.6264
1286.00,3.6031
1285.00,3.5913
1284.00,3.5863
1283.00,3.5762
1282.00,3.5559
1281.00,3.5318
1280.00,3.5158
1279.00,3.5170
1278.00,3.5342
1277.00,3.5560
1276.00,3.5702
1275.00,3.5710
1274.00,3.5571
1273.00,3.5283
1272.00,3.4888
1271.00,3.4483
1270.00,3.4167
1269.00,3.3986
1268.00,3.3903
1267.00,3.3835
1266.00,3.3734
1265.00,3.3609
1264.00,3.3462
1263.00,3.3234
1262.00,3.2883
1261.00,3.2470
1260.00,3.2098
1259.00,3.1788
1258.00,3.1453
1257.00,3.1008
1256.00,3.0457
1255.00,2.9869
1254.00,2.9290
1253.00,2.8729
1252.00,2.8184
1251.00,2.7643
1250.00,2.7096
1249.00,2.6541
1248.00,2.5996
1247.00,2.5482
1246.00,2.5013
1245.00,2.4601
1244.00,2.4263
1243.00,2.4021
1242.00,2.3892
1241.00,2.3882
1240.00,2.3994
1239.00,2.4223
1238.00,2.4564
1237.00,2.5005
1236.00,2.5536
1235.00,2.6147
1234.00,2.6820
1233.00,2.7533
1232.00,2.8272
1231.00,2.9042
1230.00,2.9833
1229.00,3.0587
1228.00,3.1230
1227.00,3.1729
1226.00,3.2082
1225.00,3.2279
1224.00,3.2322
1223.00,3.2253
1222.00,3.2143
1221.00,3.2036
1220.00,3.1944
1219.00,3.1890
1218.00,3.1907
1217.00,3.2017
1216.00,3.2236
1215.00,3.2570
1214.00,3.2988
1213.00,3.3405
1212.00,3.3738
1211.00,3.3979
1210.00,3.4173
1209.00,3.4342
1208.00,3.4456
1207.00,3.4514
1206.00,3.4565
1205.00,3.4640
1204.00,3.4740
1203.00,3.4898
1202.00,3.5215
1201.00,3.5774
1200.00,3.6519
1199.00,3.7184
1198.00,3.7523
1197.00,3.7583
1196.00,3.7490
1195.00,3.7317
1194.00,3.7224
1193.00,3.7441
1192.00,3.8120
1191.00,3.9171
1190.00,4.0224
1189.00,4.0835
1188.00,4.0794
1187.00,4.0613
1186.00,4.0551
1185.00,4.0176
1184.00,3.9377
1183.00,3.8624
1182.00,3.8236
1181.00,3.8182
1180.00,3.8351
1179.00,3.8715
1178.00,3.9079
1177.00,3.9296
1176.00,3.9580
1175.00,3.9538
1174.00,3.8901
1173.00,3.8413
1172.00,3.8367
1171.00,3.8548
1170.00,3.8556
1169.00,3.8175
1168.00,3.7771
1167.00,3.7882
1166.00,3.8779
1165.00,4.0451
1164.00,4.2479
1163.00,4.3819
1162.00,4.3668
1161.00,4.2972
1160.00,4.2829
1159.00,4.3161
1158.00,4.3129
1157.00,4.2237
1156.00,4.0964
1155.00,3.9892
1154.00,3.9321
1153.00,3.9296
1152.00,3.9696
1151.00,4.0350
1150.00,4.1017
1149.00,4.1060
1148.00,4.0370
1147.00,3.9821
1146.00,3.9731
1145.00,3.9741
1144.00,3.9355
1143.00,3.8644
1142.00,3.7846
1141.00,3.7083
1140.00,3.6576
1139.00,3.6460
1138.00,3.6581
1137.00,3.6510
1136.00,3.6128
1135.00,3.5842
1134.00,3.5802
1133.00,3.5766
1132.00,3.5578
1131.00,3.5344
1130.00,3.5188
1129.00,3.5074
1128.00,3.4890
1127.00,3.4654
1126.00,3.4497
1125.00,3.4494
1124.00,3.4572
1123.00,3.4571
1122.00,3.4427
1121.00,3.4206
1120.00,3.3984
1119.00,3.3835
1118.00,3.3738
1117.00,3.3529
1116.00,3.3108
1115.00,3.2518
1114.00,3.1865
1113.00,3.1244
1112.00,3.0677
1111.00,3.0130
1110.00,2.9606
1109.00,2.9163
1108.00,2.8859
1107.00,2.8706
1106.00,2.8668
1105.00,2.8711
1104.00,2.8849
1103.00,2.9125
1102.00,2.9566
1101.00,3.0146
1100.00,3.0794
1099.00,3.1427
1098.00,3.1975
1097.00,3.2432
1096.00,3.2894
1095.00,3.3479
1094.00,3.4216
1093.00,3.4979
1092.00,3.5583
1091.00,3.5964
1090.00,3.6216
1089.00,3.6470
1088.00,3.6804
1087.00,3.7208
1086.00,3.7515
1085.00,3.7565
1084.00,3.7544
1083.00,3.7759
1082.00,3.8372
1081.00,3.9411
1080.00,4.0831
1079.00,4.2144
1078.00,4.1917
1077.00,4.0710
1076.00,3.9849
1075.00,3.9506
1074.00,3.9911
1073.00,4.1402
1072.00,4.4266
1071.00,4.9631
1070.00,5.0141
1069.00,4.5271
1068.00,4.2872
1067.00,4.1624
1066.00,4.1468
1065.00,4.2692
1064.00,4.6851
1063.00,4.8398
1062.00,4.3720
1061.00,4.2684
1060.00,4.3511
1059.00,4.4632
1058.00,4.4277
1057.00,4.4565
1056.00,4.5828
1055.00,4.4566
1054.00,4.3358
1053.00,4.3388
1052.00,4.5614
1051.00,4.8009
1050.00,4.3061
1049.00,4.1411
1048.00,4.1417
1047.00,4.1447
1046.00,4.1267
1045.00,4.1090
1044.00,4.0945
1043.00,4.0762
1042.00,4.0920
1041.00,4.1350
1040.00,4.1614
1039.00,4.1972
1038.00,4.1845
1037.00,4.0253
1036.00,3.9109
1035.00,3.9373
1034.00,4.0869
1033.00,4.3888
1032.00,4.8665
1031.00,4.5178
1030.00,4.3017
1029.00,4.2542
1028.00,4.2149
1027.00,4.1588
1026.00,4.1689
1025.00,4.2358
1024.00,4.1764
1023.00,4.0951
1022.00,4.0914
1021.00,4.1349
1020.00,4.1997
1019.00,4.2287
1018.00,4.1891
1017.00,4.1538
1016.00,4.1635
1015.00,4.1965
1014.00,4.1902
1013.00,4.1294
1012.00,4.0855
1011.00,4.0885
1010.00,4.1638
1009.00,4.3744
1008.00,4.3897
1007.00,4.1452
1006.00,4.0823
1005.00,4.1722
1004.00,4.4198
1003.00,5.0139
1002.00,4.9449
1001.00,4.5043
1000.00,4.4301
999.00,4.5446
998.00,4.5996
997.00,4.7252
996.00,4.7950
995.00,4.4571
994.00,4.3312
993.00,4.3791
992.00,4.4437
991.00,4.4036
990.00,4.3549
989.00,4.3102
988.00,4.2405
987.00,4.1961
986.00,4.2126
985.00,4.2904
984.00,4.3535
983.00,4.3535
982.00,4.3471
981.00,4.3324
980.00,4.2626
979.00,4.1803
978.00,4.1234
977.00,4.0492
976.00,3.9490
975.00,3.8688
974.00,3.8362
973.00,3.8509
972.00,3.8888
971.00,3.9033
970.00,3.8515
969.00,3.7623
968.00,3.6928
967.00,3.6699
966.00,3.6959
965.00,3.7428
964.00,3.7746
963.00,3.7894
962.00,3.8049
961.00,3.8436
960.00,3.8800
959.00,3.8719
958.00,3.8950
957.00,3.9958
956.00,4.2046
955.00,4.5556
954.00,4.4299
953.00,4.2349
952.00,4.2482
951.00,4.4490
950.00,4.7096
949.00,4.3011
948.00,4.0858
947.00,4.0906
946.00,4.3411
945.00,4.5926
944.00,4.1865
943.00,4.0234
942.00,3.9828
941.00,3.9629
940.00,3.9596
939.00,3.9734
938.00,4.0269
937.00,4.0163
936.00,3.9096
935.00,3.8434
934.00,3.8662
933.00,3.9305
932.00,3.9493
931.00,3.9110
930.00,3.9049
929.00,3.9827
928.00,4.2231
927.00,4.8049
926.00,4.7063
925.00,4.2529
924.00,4.0077
923.00,3.9142
922.00,3.9300
921.00,4.1138
920.00,4.6155
919.00,4.3097
918.00,4.0842
917.00,4.1249
916.00,4.3707
915.00,4.9846
914.00,4.3904
913.00,4.0570
912.00,3.9429
911.00,3.9529
910.00,4.0976
909.00,4.2328
908.00,4.2794
907.00,4.2685
906.00,4.4209
905.00,4.8691
904.00,4.2627
903.00,3.9587
902.00,3.8940
901.00,3.9795
900.00,4.2765
899.00,4.8305
898.00,5.2821
897.00,4.8730
896.00,4.5897
895.00,4.5119
894.00,4.4666
893.00,4.3462
892.00,4.2568
891.00,4.2661
890.00,4.3927
889.00,4.4005
888.00,4.2288
887.00,4.1327
886.00,4.0525
885.00,3.9801
884.00,3.9839
883.00,4.1036
882.00,4.3486
881.00,4.3834
880.00,4.2153
879.00,4.1262
878.00,4.0592
877.00,4.0422
876.00,4.1470
875.00,4.4551
874.00,4.8860
873.00,4.4831
872.00,4.0922
871.00,3.9086
870.00,3.8471
869.00,3.8429
868.00,3.8523
867.00,3.8630
866.00,3.8729
865.00,3.8988
864.00,3.9515
863.00,4.0455
862.00,4.1763
861.00,4.4328
860.00,4.9193
859.00,4.6402
858.00,4.3735
857.00,4.2722
856.00,4.2094
855.00,4.1976
854.00,4.2630
853.00,4.3915
852.00,4.4251
851.00,4.2868
850.00,4.1130
849.00,4.0404
848.00,4.1426
847.00,4.5816
846.00,4.6214
845.00,4.1296
844.00,4.0073
843.00,4.0132
842.00,4.0914
841.00,4.1980
840.00,4.4270
839.00,5.0465
838.00,4.5401
837.00,4.2766
836.00,4.1726
835.00,4.1010
834.00,4.0737
833.00,4.0455
832.00,4.0595
831.00,4.1611
830.00,4.3433
829.00,4.6679
828.00,5.0633
827.00,4.4806
826.00,4.2503
825.00,4.2058
824.00,4.3561
823.00,4.5175
822.00,4.1826
821.00,3.9637
820.00,3.8671
819.00,3.8809
818.00,4.0860
817.00,4.3018
816.00,4.0562
815.00,3.9177
814.00,3.9074
813.00,4.0272
812.00,4.4617
811.00,4.3798
810.00,4.0206
809.00,3.9519
808.00,4.0108
807.00,4.2166
806.00,4.6938
805.00,4.5055
804.00,4.1036
803.00,3.9804
802.00,3.9796
801.00,4.1562
800.00,4.5524
799.00,4.2783
798.00,4.0477
797.00,4.0620
796.00,4.2198
795.00,4.3792
794.00,4.3628
793.00,4.4408
792.00,4.5836
791.00,4.6495
790.00,4.7352
789.00,4.5117
788.00,4.1741
787.00,3.9697
786.00,3.8796
785.00,3.8943
784.00,3.9877
783.00,4.0754
782.00,4.0725
781.00,4.1270
780.00,4.3851
779.00,4.4187
778.00,4.2005
777.00,4.2240
776.00,4.2756
775.00,4.1492
774.00,4.1397
773.00,4.3610
772.00,4.6086
771.00,4.6144
770.00,4.4580
769.00,4.2029
768.00,4.0833
767.00,4.1423
766.00,4.3013
765.00,4.6137
764.00,4.9412
763.00,4.3975
762.00,4.1804
761.00,4.2218
760.00,4.3180
759.00,4.2625
758.00,4.2250
757.00,4.3698
756.00,4.6718
755.00,4.8433
754.00,4.4518
753.00,4.1763
752.00,4.0574
751.00,4.1392
750.00,4.3677
749.00,4.2183
748.00,4.0475
747.00,4.0489
746.00,4.1113
745.00,4.1030
744.00,3.9653
743.00,3.8354
742.00,3.8029
741.00,3.9041
740.00,4.1875
739.00,4.5594
738.00,4.4400
737.00,4.2370
736.00,4.1597
735.00,4.2213
734.00,4.3176
733.00,4.2104
732.00,4.0240
731.00,3.8948
730.00,3.8688
729.00,3.9330
728.00,4.0220
727.00,4.0345
726.00,3.9637
725.00,3.9001
724.00,3.8752
723.00,3.8833
722.00,3.9082
721.00,3.9216
720.00,3.8982
719.00,3.8739
718.00,3.9122
717.00,4.0227
716.00,4.1551
715.00,4.2331
714.00,4.2402
713.00,4.1586
712.00,4.0232
711.00,3.9561
710.00,3.9750
709.00,4.0875
708.00,4.2168
707.00,4.1084
706.00,3.9578
705.00,3.8997
704.00,3.8930
703.00,3.9078
702.00,3.9260
701.00,3.9934
700.00,4.1426
