Created as New Dataset,Sample 015 By Administrator Date Wednesday, November 24 2021
cm-1,A
7502.00,0.7686
7501.00,0.7760
7500.00,0.7829
7499.00,0.7895
7498.00,0.7967
7497.00,0.8043
7496.00,0.8110
7495.00,0.8160
7494.00,0.8200
7493.00,0.8244
7492.00,0.8296
7491.00,0.8349
7490.00,0.8398
7489.00,0.8442
7488.00,0.8482
7487.00,0.8512
7486.00,0.8525
7485.00,0.8523
7484.00,0.8513
7483.00,0.8497
7482.00,0.8478
7481.00,0.8461
7480.00,0.8453
7479.00,0.8455
7478.00,0.8459
7477.00,0.8453
7476.00,0.8439
7475.00,0.8423
7474.00,0.8411
7473.00,0.8404
7472.00,0.8392
7471.00,0.8373
7470.00,0.8345
7469.00,0.8308
7468.00,0.8262
7467.00,0.8208
7466.00,0.8146
7465.00,0.8079
7464.00,0.8011
7463.00,0.7945
7462.00,0.7875
7461.00,0.7796
7460.00,0.7707
7459.00,0.7616
7458.00,0.7531
7457.00,0.7453
7456.00,0.7379
7455.00,0.7308
7454.00,0.7240
7453.00,0.7175
7452.00,0.7108
7451.00,0.7034
7450.00,0.6951
7449.00,0.6861
7448.00,0.6773
7447.00,0.6692
7446.00,0.6617
7445.00,0.6544
7444.00,0.6466
7443.00,0.6386
7442.00,0.6308
7441.00,0.6235
7440.00,0.6165
7439.00,0.6095
7438.00,0.6027
7437.00,0.5964
7436.00,0.5906
7435.00,0.5850
7434.00,0.5795
7433.00,0.5743
7432.00,0.5694
7431.00,0.5649
7430.00,0.5608
7429.00,0.5570
7428.00,0.5537
7427.00,0.5508
7426.00,0.5482
7425.00,0.5458
7424.00,0.5432
7423.00,0.5403
7422.00,0.5375
7421.00,0.5350
7420.00,0.5328
7419.00,0.5309
7418.00,0.5290
7417.00,0.5275
7416.00,0.5267
7415.00,0.5266
7414.00,0.5274
7413.00,0.5290
7412.00,0.5310
7411.00,0.5331
7410.00,0.5354
7409.00,0.5384
7408.00,0.5420
7407.00,0.5459
7406.00,0.5500
7405.00,0.5546
7404.00,0.5600
7403.00,0.5659
7402.00,0.5721
7401.00,0.5786
7400.00,0.5854
7399.00,0.5926
7398.00,0.6001
7397.00,0.6079
7396.00,0.6158
7395.00,0.6239
7394.00,0.6324
7393.00,0.6414
7392.00,0.6509
7391.00,0.6605
7390.00,0.6701
7389.00,0.6799
7388.00,0.6899
7387.00,0.6999
7386.00,0.7101
7385.00,0.7202
7384.00,0.7302
7383.00,0.7400
7382.00,0.7499
7381.00,0.7602
7380.00,0.7710
7379.00,0.7816
7378.00,0.7916
7377.00,0.8008
7376.00,0.8098
7375.00,0.8188
7374.00,0.8280
7373.00,0.8370
7372.00,0.8457
7371.00,0.8542
7370.00,0.8630
7369.00,0.8725
7368.00,0.8821
7367.00,0.8910
7366.00,0.8987
7365.00,0.9058
7364.00,0.9130
7363.00,0.9205
7362.00,0.9278
7361.00,0.9344
7360.00,0.9409
7359.00,0.9474
7358.00,0.9537
7357.00,0.9594
7356.00,0.9646
7355.00,0.9698
7354.00,0.9754
7353.00,0.9809
7352.00,0.9860
7351.00,0.9907
7350.00,0.9949
7349.00,0.9983
7348.00,1.0005
7347.00,1.0014
7346.00,1.0017
7345.00,1.0021
7344.00,1.0028
7343.00,1.0040
7342.00,1.0053
7341.00,1.0064
7340.00,1.0069
7339.00,1.0068
7338.00,1.0063
7337.00,1.0052
7336.00,1.0035
7335.00,1.0016
7334.00,1.0000
7333.00,0.9988
7332.00,0.9977
7331.00,0.9958
7330.00,0.9928
7329.00,0.9890
7328.00,0.9848
7327.00,0.9802
7326.00,0.9752
7325.00,0.9696
7324.00,0.9639
7323.00,0.9581
7322.00,0.9525
7321.00,0.9471
7320.00,0.9417
7319.00,0.9360
7318.00,0.9297
7317.00,0.9225
7316.00,0.9147
7315.00,0.9067
7314.00,0.8986
7313.00,0.8903
7312.00,0.8818
7311.00,0.8728
7310.00,0.8636
7309.00,0.8547
7308.00,0.8459
7307.00,0.8370
7306.00,0.8278
7305.00,0.8185
7304.00,0.8094
7303.00,0.8003
7302.00,0.7913
7301.00,0.7821
7300.00,0.7730
7299.00,0.7640
7298.00,0.7550
7297.00,0.7462
7296.00,0.7375
7295.00,0.7291
7294.00,0.7211
7293.00,0.7136
7292.00,0.7066
7291.00,0.6997
7290.00,0.6931
7289.00,0.6868
7288.00,0.6811
7287.00,0.6759
7286.00,0.6708
7285.00,0.6659
7284.00,0.6612
7283.00,0.6571
7282.00,0.6538
7281.00,0.6513
7280.00,0.6494
7279.00,0.6479
7278.00,0.6469
7277.00,0.6464
7276.00,0.6465
7275.00,0.6471
7274.00,0.6482
7273.00,0.6495
7272.00,0.6512
7271.00,0.6533
7270.00,0.6559
7269.00,0.6593
7268.00,0.6635
7267.00,0.6683
7266.00,0.6734
7265.00,0.6789
7264.00,0.6850
7263.00,0.6917
7262.00,0.6987
7261.00,0.7058
7260.00,0.7128
7259.00,0.7201
7258.00,0.7281
7257.00,0.7366
7256.00,0.7451
7255.00,0.7535
7254.00,0.7622
7253.00,0.7713
7252.00,0.7805
7251.00,0.7898
7250.00,0.7992
7249.00,0.8090
7248.00,0.8189
7247.00,0.8286
7246.00,0.8378
7245.00,0.8468
7244.00,0.8558
7243.00,0.8647
7242.00,0.8737
7241.00,0.8827
7240.00,0.8918
7239.00,0.9012
7238.00,0.9108
7237.00,0.9203
7236.00,0.9294
7235.00,0.9378
7234.00,0.9456
7233.00,0.9531
7232.00,0.9604
7231.00,0.9677
7230.00,0.9750
7229.00,0.9821
7228.00,0.9887
7227.00,0.9949
7226.00,1.0008
7225.00,1.0066
7224.00,1.0123
7223.00,1.0177
7222.00,1.0229
7221.00,1.0278
7220.00,1.0325
7219.00,1.0370
7218.00,1.0411
7217.00,1.0445
7216.00,1.0473
7215.00,1.0499
7214.00,1.0526
7213.00,1.0555
7212.00,1.0581
7211.00,1.0600
7210.00,1.0611
7209.00,1.0617
7208.00,1.0621
7207.00,1.0623
7206.00,1.0623
7205.00,1.0623
7204.00,1.0624
7203.00,1.0621
7202.00,1.0612
7201.00,1.0591
7200.00,1.0563
7199.00,1.0532
7198.00,1.0502
7197.00,1.0470
7196.00,1.0435
7195.00,1.0397
7194.00,1.0359
7193.00,1.0318
7192.00,1.0272
7191.00,1.0220
7190.00,1.0166
7189.00,1.0113
7188.00,1.0060
7187.00,1.0003
7186.00,0.9940
7185.00,0.9873
7184.00,0.9800
7183.00,0.9722
7182.00,0.9639
7181.00,0.9556
7180.00,0.9478
7179.00,0.9405
7178.00,0.9333
7177.00,0.9260
7176.00,0.9187
7175.00,0.9112
7174.00,0.9032
7173.00,0.8946
7172.00,0.8853
7171.00,0.8754
7170.00,0.8653
7169.00,0.8551
7168.00,0.8450
7167.00,0.8349
7166.00,0.8251
7165.00,0.8157
7164.00,0.8068
7163.00,0.7982
7162.00,0.7897
7161.00,0.7812
7160.00,0.7728
7159.00,0.7646
7158.00,0.7566
7157.00,0.7490
7156.00,0.7416
7155.00,0.7346
7154.00,0.7280
7153.00,0.7219
7152.00,0.7163
7151.00,0.7110
7150.00,0.7060
7149.00,0.7013
7148.00,0.6969
7147.00,0.6929
7146.00,0.6893
7145.00,0.6862
7144.00,0.6836
7143.00,0.6816
7142.00,0.6802
7141.00,0.6792
7140.00,0.6787
7139.00,0.6787
7138.00,0.6793
7137.00,0.6805
7136.00,0.6822
7135.00,0.6846
7134.00,0.6878
7133.00,0.6915
7132.00,0.6953
7131.00,0.6993
7130.00,0.7036
7129.00,0.7086
7128.00,0.7139
7127.00,0.7194
7126.00,0.7251
7125.00,0.7314
7124.00,0.7384
7123.00,0.7457
7122.00,0.7532
7121.00,0.7610
7120.00,0.7691
7119.00,0.7779
7118.00,0.7874
7117.00,0.7972
7116.00,0.8070
7115.00,0.8164
7114.00,0.8253
7113.00,0.8341
7112.00,0.8430
7111.00,0.8523
7110.00,0.8619
7109.00,0.8719
7108.00,0.8819
7107.00,0.8920
7106.00,0.9022
7105.00,0.9123
7104.00,0.9222
7103.00,0.9316
7102.00,0.9406
7101.00,0.9493
7100.00,0.9580
7099.00,0.9667
7098.00,0.9754
7097.00,0.9839
7096.00,0.9920
7095.00,1.0000
7094.00,1.0081
7093.00,1.0165
7092.00,1.0249
7091.00,1.0328
7090.00,1.0402
7089.00,1.0471
7088.00,1.0537
7087.00,1.0601
7086.00,1.0663
7085.00,1.0721
7084.00,1.0776
7083.00,1.0827
7082.00,1.0876
7081.00,1.0923
7080.00,1.0967
7079.00,1.1008
7078.00,1.1048
7077.00,1.1086
7076.00,1.1120
7075.00,1.1150
7074.00,1.1178
7073.00,1.1207
7072.00,1.1234
7071.00,1.1255
7070.00,1.1270
7069.00,1.1282
7068.00,1.1289
7067.00,1.1288
7066.00,1.1278
7065.00,1.1263
7064.00,1.1247
7063.00,1.1234
7062.00,1.1222
7061.00,1.1208
7060.00,1.1193
7059.00,1.1174
7058.00,1.1149
7057.00,1.1118
7056.00,1.1080
7055.00,1.1036
7054.00,1.0990
7053.00,1.0941
7052.00,1.0890
7051.00,1.0835
7050.00,1.0775
7049.00,1.0714
7048.00,1.0651
7047.00,1.0586
7046.00,1.0516
7045.00,1.0443
7044.00,1.0367
7043.00,1.0288
7042.00,1.0208
7041.00,1.0127
7040.00,1.0044
7039.00,0.9960
7038.00,0.9874
7037.00,0.9789
7036.00,0.9703
7035.00,0.9615
7034.00,0.9525
7033.00,0.9432
7032.00,0.9336
7031.00,0.9238
7030.00,0.9139
7029.00,0.9039
7028.00,0.8938
7027.00,0.8837
7026.00,0.8739
7025.00,0.8644
7024.00,0.8553
7023.00,0.8461
7022.00,0.8368
7021.00,0.8275
7020.00,0.8184
7019.00,0.8098
7018.00,0.8015
7017.00,0.7937
7016.00,0.7862
7015.00,0.7791
7014.00,0.7723
7013.00,0.7657
7012.00,0.7593
7011.00,0.7534
7010.00,0.7480
7009.00,0.7435
7008.00,0.7396
7007.00,0.7365
7006.00,0.7340
7005.00,0.7320
7004.00,0.7303
7003.00,0.7290
7002.00,0.7283
7001.00,0.7282
7000.00,0.7285
6999.00,0.7291
6998.00,0.7301
6997.00,0.7318
6996.00,0.7341
6995.00,0.7371
6994.00,0.7407
6993.00,0.7450
6992.00,0.7499
6991.00,0.7555
6990.00,0.7616
6989.00,0.7681
6988.00,0.7748
6987.00,0.7815
6986.00,0.7885
6985.00,0.7959
6984.00,0.8036
6983.00,0.8115
6982.00,0.8197
6981.00,0.8283
6980.00,0.8371
6979.00,0.8461
6978.00,0.8552
6977.00,0.8646
6976.00,0.8742
6975.00,0.8837
6974.00,0.8932
6973.00,0.9026
6972.00,0.9120
6971.00,0.9214
6970.00,0.9311
6969.00,0.9408
6968.00,0.9501
6967.00,0.9591
6966.00,0.9682
6965.00,0.9776
6964.00,0.9869
6963.00,0.9959
6962.00,1.0043
6961.00,1.0126
6960.00,1.0210
6959.00,1.0294
6958.00,1.0376
6957.00,1.0455
6956.00,1.0530
6955.00,1.0601
6954.00,1.0671
6953.00,1.0740
6952.00,1.0805
6951.00,1.0863
6950.00,1.0916
6949.00,1.0967
6948.00,1.1017
6947.00,1.1064
6946.00,1.1110
6945.00,1.1156
6944.00,1.1199
6943.00,1.1240
6942.00,1.1277
6941.00,1.1311
6940.00,1.1340
6939.00,1.1363
6938.00,1.1384
6937.00,1.1402
6936.00,1.1417
6935.00,1.1427
6934.00,1.1435
6933.00,1.1440
6932.00,1.1440
6931.00,1.1433
6930.00,1.1422
6929.00,1.1411
6928.00,1.1401
6927.00,1.1387
6926.00,1.1366
6925.00,1.1339
6924.00,1.1308
6923.00,1.1272
6922.00,1.1233
6921.00,1.1193
6920.00,1.1151
6919.00,1.1105
6918.00,1.1057
6917.00,1.1006
6916.00,1.0955
6915.00,1.0899
6914.00,1.0836
6913.00,1.0768
6912.00,1.0697
6911.00,1.0624
6910.00,1.0548
6909.00,1.0466
6908.00,1.0378
6907.00,1.0290
6906.00,1.0206
6905.00,1.0125
6904.00,1.0044
6903.00,0.9957
6902.00,0.9866
6901.00,0.9770
6900.00,0.9671
6899.00,0.9568
6898.00,0.9464
6897.00,0.9362
6896.00,0.9264
6895.00,0.9167
6894.00,0.9071
6893.00,0.8976
6892.00,0.8882
6891.00,0.8787
6890.00,0.8691
6889.00,0.8593
6888.00,0.8497
6887.00,0.8402
6886.00,0.8307
6885.00,0.8214
6884.00,0.8123
6883.00,0.8035
6882.00,0.7953
6881.00,0.7876
6880.00,0.7804
6879.00,0.7737
6878.00,0.7673
6877.00,0.7611
6876.00,0.7551
6875.00,0.7494
6874.00,0.7443
6873.00,0.7399
6872.00,0.7359
6871.00,0.7323
6870.00,0.7292
6869.00,0.7267
6868.00,0.7249
6867.00,0.7235
6866.00,0.7226
6865.00,0.7221
6864.00,0.7224
6863.00,0.7232
6862.00,0.7245
6861.00,0.7263
6860.00,0.7285
6859.00,0.7313
6858.00,0.7346
6857.00,0.7386
6856.00,0.7432
6855.00,0.7483
6854.00,0.7537
6853.00,0.7595
6852.00,0.7657
6851.00,0.7725
6850.00,0.7797
6849.00,0.7873
6848.00,0.7952
6847.00,0.8036
6846.00,0.8122
6845.00,0.8210
6844.00,0.8297
6843.00,0.8384
6842.00,0.8474
6841.00,0.8567
6840.00,0.8665
6839.00,0.8765
6838.00,0.8864
6837.00,0.8963
6836.00,0.9063
6835.00,0.9164
6834.00,0.9265
6833.00,0.9365
6832.00,0.9464
6831.00,0.9564
6830.00,0.9664
6829.00,0.9763
6828.00,0.9860
6827.00,0.9956
6826.00,1.0053
6825.00,1.0149
6824.00,1.0242
6823.00,1.0333
6822.00,1.0423
6821.00,1.0509
6820.00,1.0590
6819.00,1.0665
6818.00,1.0740
6817.00,1.0815
6816.00,1.0890
6815.00,1.0964
6814.00,1.1039
6813.00,1.1116
6812.00,1.1192
6811.00,1.1262
6810.00,1.1321
6809.00,1.1371
6808.00,1.1414
6807.00,1.1452
6806.00,1.1489
6805.00,1.1526
6804.00,1.1564
6803.00,1.1604
6802.00,1.1645
6801.00,1.1683
6800.00,1.1714
6799.00,1.1737
6798.00,1.1755
6797.00,1.1771
6796.00,1.1786
6795.00,1.1798
6794.00,1.1806
6793.00,1.1811
6792.00,1.1814
6791.00,1.1813
6790.00,1.1808
6789.00,1.1796
6788.00,1.1779
6787.00,1.1756
6786.00,1.1730
6785.00,1.1700
6784.00,1.1667
6783.00,1.1631
6782.00,1.1596
6781.00,1.1557
6780.00,1.1512
6779.00,1.1461
6778.00,1.1406
6777.00,1.1349
6776.00,1.1289
6775.00,1.1226
6774.00,1.1164
6773.00,1.1103
6772.00,1.1039
6771.00,1.0968
6770.00,1.0891
6769.00,1.0814
6768.00,1.0734
6767.00,1.0649
6766.00,1.0560
6765.00,1.0469
6764.00,1.0376
6763.00,1.0281
6762.00,1.0181
6761.00,1.0081
6760.00,0.9980
6759.00,0.9879
6758.00,0.9776
6757.00,0.9674
6756.00,0.9571
6755.00,0.9466
6754.00,0.9358
6753.00,0.9249
6752.00,0.9142
6751.00,0.9037
6750.00,0.8934
6749.00,0.8833
6748.00,0.8733
6747.00,0.8636
6746.00,0.8540
6745.00,0.8447
6744.00,0.8356
6743.00,0.8268
6742.00,0.8182
6741.00,0.8100
6740.00,0.8023
6739.00,0.7951
6738.00,0.7885
6737.00,0.7824
6736.00,0.7769
6735.00,0.7717
6734.00,0.7671
6733.00,0.7629
6732.00,0.7594
6731.00,0.7563
6730.00,0.7538
6729.00,0.7519
6728.00,0.7507
6727.00,0.7502
6726.00,0.7502
6725.00,0.7508
6724.00,0.7519
6723.00,0.7535
6722.00,0.7558
6721.00,0.7588
6720.00,0.7623
6719.00,0.7664
6718.00,0.7708
6717.00,0.7757
6716.00,0.7813
6715.00,0.7873
6714.00,0.7938
6713.00,0.8008
6712.00,0.8084
6711.00,0.8165
6710.00,0.8250
6709.00,0.8336
6708.00,0.8423
6707.00,0.8511
6706.00,0.8601
6705.00,0.8695
6704.00,0.8793
6703.00,0.8891
6702.00,0.8989
6701.00,0.9086
6700.00,0.9184
6699.00,0.9281
6698.00,0.9378
6697.00,0.9474
6696.00,0.9571
6695.00,0.9668
6694.00,0.9767
6693.00,0.9866
6692.00,0.9964
6691.00,1.0060
6690.00,1.0152
6689.00,1.0243
6688.00,1.0333
6687.00,1.0421
6686.00,1.0506
6685.00,1.0589
6684.00,1.0667
6683.00,1.0744
6682.00,1.0824
6681.00,1.0906
6680.00,1.0988
6679.00,1.1064
6678.00,1.1137
6677.00,1.1208
6676.00,1.1274
6675.00,1.1330
6674.00,1.1377
6673.00,1.1421
6672.00,1.1465
6671.00,1.1511
6670.00,1.1558
6669.00,1.1605
6668.00,1.1649
6667.00,1.1685
6666.00,1.1712
6665.00,1.1734
6664.00,1.1753
6663.00,1.1768
6662.00,1.1776
6661.00,1.1782
6660.00,1.1792
6659.00,1.1803
6658.00,1.1809
6657.00,1.1807
6656.00,1.1796
6655.00,1.1782
6654.00,1.1767
6653.00,1.1751
6652.00,1.1729
6651.00,1.1701
6650.00,1.1667
6649.00,1.1631
6648.00,1.1595
6647.00,1.1559
6646.00,1.1518
6645.00,1.1471
6644.00,1.1420
6643.00,1.1368
6642.00,1.1314
6641.00,1.1256
6640.00,1.1193
6639.00,1.1125
6638.00,1.1055
6637.00,1.0983
6636.00,1.0908
6635.00,1.0828
6634.00,1.0745
6633.00,1.0659
6632.00,1.0569
6631.00,1.0477
6630.00,1.0383
6629.00,1.0286
6628.00,1.0186
6627.00,1.0085
6626.00,0.9982
6625.00,0.9880
6624.00,0.9779
6623.00,0.9679
6622.00,0.9578
6621.00,0.9476
6620.00,0.9373
6619.00,0.9269
6618.00,0.9166
6617.00,0.9064
6616.00,0.8962
6615.00,0.8858
6614.00,0.8754
6613.00,0.8652
6612.00,0.8551
6611.00,0.8454
6610.00,0.8359
6609.00,0.8267
6608.00,0.8178
6607.00,0.8094
6606.00,0.8014
6605.00,0.7937
6604.00,0.7861
6603.00,0.7788
6602.00,0.7721
6601.00,0.7660
6600.00,0.7604
6599.00,0.7551
6598.00,0.7502
6597.00,0.7458
6596.00,0.7420
6595.00,0.7387
6594.00,0.7358
6593.00,0.7336
6592.00,0.7319
6591.00,0.7309
6590.00,0.7306
6589.00,0.7311
6588.00,0.7321
6587.00,0.7335
6586.00,0.7354
6585.00,0.7380
6584.00,0.7414
6583.00,0.7454
6582.00,0.7499
6581.00,0.7550
6580.00,0.7606
6579.00,0.7667
6578.00,0.7731
6577.00,0.7798
6576.00,0.7868
6575.00,0.7943
6574.00,0.8024
6573.00,0.8109
6572.00,0.8197
6571.00,0.8288
6570.00,0.8380
6569.00,0.8475
6568.00,0.8572
6567.00,0.8669
6566.00,0.8769
6565.00,0.8870
6564.00,0.8973
6563.00,0.9078
6562.00,0.9183
6561.00,0.9288
6560.00,0.9393
6559.00,0.9499
6558.00,0.9603
6557.00,0.9707
6556.00,0.9807
6555.00,0.9905
6554.00,1.0003
6553.00,1.0102
6552.00,1.0201
6551.00,1.0300
6550.00,1.0397
6549.00,1.0495
6548.00,1.0591
6547.00,1.0683
6546.00,1.0771
6545.00,1.0853
6544.00,1.0933
6543.00,1.1010
6542.00,1.1086
6541.00,1.1160
6540.00,1.1233
6539.00,1.1304
6538.00,1.1375
6537.00,1.1443
6536.00,1.1506
6535.00,1.1565
6534.00,1.1622
6533.00,1.1676
6532.00,1.1728
6531.00,1.1775
6530.00,1.1819
6529.00,1.1859
6528.00,1.1893
6527.00,1.1922
6526.00,1.1945
6525.00,1.1966
6524.00,1.1986
6523.00,1.2003
6522.00,1.2015
6521.00,1.2025
6520.00,1.2032
6519.00,1.2035
6518.00,1.2032
6517.00,1.2024
6516.00,1.2012
6515.00,1.1999
6514.00,1.1982
6513.00,1.1961
6512.00,1.1936
6511.00,1.1909
6510.00,1.1880
6509.00,1.1849
6508.00,1.1815
6507.00,1.1775
6506.00,1.1731
6505.00,1.1685
6504.00,1.1636
6503.00,1.1585
6502.00,1.1528
6501.00,1.1466
6500.00,1.1399
6499.00,1.1328
6498.00,1.1253
6497.00,1.1175
6496.00,1.1093
6495.00,1.1009
6494.00,1.0926
6493.00,1.0841
6492.00,1.0752
6491.00,1.0659
6490.00,1.0559
6489.00,1.0456
6488.00,1.0352
6487.00,1.0247
6486.00,1.0143
6485.00,1.0037
6484.00,0.9929
6483.00,0.9819
6482.00,0.9707
6481.00,0.9593
6480.00,0.9477
6479.00,0.9362
6478.00,0.9250
6477.00,0.9142
6476.00,0.9035
6475.00,0.8926
6474.00,0.8817
6473.00,0.8709
6472.00,0.8602
6471.00,0.8498
6470.00,0.8397
6469.00,0.8300
6468.00,0.8208
6467.00,0.8119
6466.00,0.8035
6465.00,0.7954
6464.00,0.7877
6463.00,0.7804
6462.00,0.7737
6461.00,0.7677
6460.00,0.7623
6459.00,0.7575
6458.00,0.7532
6457.00,0.7496
6456.00,0.7468
6455.00,0.7445
6454.00,0.7428
6453.00,0.7418
6452.00,0.7415
6451.00,0.7418
6450.00,0.7428
6449.00,0.7444
6448.00,0.7466
6447.00,0.7494
6446.00,0.7527
6445.00,0.7568
6444.00,0.7614
6443.00,0.7665
6442.00,0.7722
6441.00,0.7786
6440.00,0.7855
6439.00,0.7928
6438.00,0.8004
6437.00,0.8084
6436.00,0.8168
6435.00,0.8256
6434.00,0.8346
6433.00,0.8439
6432.00,0.8535
6431.00,0.8635
6430.00,0.8736
6429.00,0.8839
6428.00,0.8941
6427.00,0.9044
6426.00,0.9147
6425.00,0.9252
6424.00,0.9358
6423.00,0.9465
6422.00,0.9571
6421.00,0.9677
6420.00,0.9781
6419.00,0.9883
6418.00,0.9983
6417.00,1.0081
6416.00,1.0179
6415.00,1.0278
6414.00,1.0378
6413.00,1.0476
6412.00,1.0570
6411.00,1.0657
6410.00,1.0741
6409.00,1.0823
6408.00,1.0904
6407.00,1.0985
6406.00,1.1066
6405.00,1.1147
6404.00,1.1223
6403.00,1.1294
6402.00,1.1358
6401.00,1.1416
6400.00,1.1469
6399.00,1.1518
6398.00,1.1566
6397.00,1.1616
6396.00,1.1666
6395.00,1.1714
6394.00,1.1757
6393.00,1.1796
6392.00,1.1828
6391.00,1.1852
6390.00,1.1872
6389.00,1.1888
6388.00,1.1903
6387.00,1.1916
6386.00,1.1927
6385.00,1.1933
6384.00,1.1932
6383.00,1.1927
6382.00,1.1920
6381.00,1.1910
6380.00,1.1897
6379.00,1.1879
6378.00,1.1859
6377.00,1.1837
6376.00,1.1811
6375.00,1.1778
6374.00,1.1740
6373.00,1.1697
6372.00,1.1651
6371.00,1.1602
6370.00,1.1548
6369.00,1.1492
6368.00,1.1434
6367.00,1.1375
6366.00,1.1315
6365.00,1.1254
6364.00,1.1187
6363.00,1.1112
6362.00,1.1033
6361.00,1.0951
6360.00,1.0867
6359.00,1.0782
6358.00,1.0695
6357.00,1.0607
6356.00,1.0519
6355.00,1.0430
6354.00,1.0339
6353.00,1.0244
6352.00,1.0146
6351.00,1.0045
6350.00,0.9943
6349.00,0.9839
6348.00,0.9736
6347.00,0.9632
6346.00,0.9529
6345.00,0.9425
6344.00,0.9320
6343.00,0.9216
6342.00,0.9113
6341.00,0.9009
6340.00,0.8905
6339.00,0.8801
6338.00,0.8699
6337.00,0.8601
6336.00,0.8504
6335.00,0.8408
6334.00,0.8313
6333.00,0.8221
6332.00,0.8130
6331.00,0.8040
6330.00,0.7951
6329.00,0.7865
6328.00,0.7781
6327.00,0.7702
6326.00,0.7629
6325.00,0.7560
6324.00,0.7495
6323.00,0.7434
6322.00,0.7378
6321.00,0.7329
6320.00,0.7287
6319.00,0.7250
6318.00,0.7220
6317.00,0.7199
6316.00,0.7185
6315.00,0.7178
6314.00,0.7177
6313.00,0.7185
6312.00,0.7200
6311.00,0.7223
6310.00,0.7252
6309.00,0.7288
6308.00,0.7332
6307.00,0.7382
6306.00,0.7437
6305.00,0.7498
6304.00,0.7563
6303.00,0.7633
6302.00,0.7709
6301.00,0.7790
6300.00,0.7874
6299.00,0.7960
6298.00,0.8051
6297.00,0.8146
6296.00,0.8245
6295.00,0.8346
6294.00,0.8449
6293.00,0.8554
6292.00,0.8661
6291.00,0.8767
6290.00,0.8872
6289.00,0.8977
6288.00,0.9085
6287.00,0.9193
6286.00,0.9303
6285.00,0.9415
6284.00,0.9527
6283.00,0.9636
6282.00,0.9743
6281.00,0.9849
6280.00,0.9955
6279.00,1.0060
6278.00,1.0163
6277.00,1.0265
6276.00,1.0366
6275.00,1.0465
6274.00,1.0562
6273.00,1.0656
6272.00,1.0748
6271.00,1.0838
6270.00,1.0926
6269.00,1.1011
6268.00,1.1092
6267.00,1.1170
6266.00,1.1246
6265.00,1.1320
6264.00,1.1390
6263.00,1.1456
6262.00,1.1519
6261.00,1.1581
6260.00,1.1640
6259.00,1.1695
6258.00,1.1745
6257.00,1.1790
6256.00,1.1829
6255.00,1.1864
6254.00,1.1894
6253.00,1.1922
6252.00,1.1949
6251.00,1.1975
6250.00,1.1999
6249.00,1.2020
6248.00,1.2035
6247.00,1.2045
6246.00,1.2051
6245.00,1.2053
6244.00,1.2049
6243.00,1.2041
6242.00,1.2030
6241.00,1.2016
6240.00,1.2000
6239.00,1.1978
6238.00,1.1953
6237.00,1.1924
6236.00,1.1893
6235.00,1.1857
6234.00,1.1817
6233.00,1.1775
6232.00,1.1729
6231.00,1.1681
6230.00,1.1628
6229.00,1.1571
6228.00,1.1510
6227.00,1.1444
6226.00,1.1375
6225.00,1.1302
6224.00,1.1226
6223.00,1.1148
6222.00,1.1067
6221.00,1.0984
6220.00,1.0896
6219.00,1.0805
6218.00,1.0710
6217.00,1.0612
6216.00,1.0511
6215.00,1.0407
6214.00,1.0299
6213.00,1.0188
6212.00,1.0074
6211.00,0.9959
6210.00,0.9844
6209.00,0.9729
6208.00,0.9613
6207.00,0.9495
6206.00,0.9376
6205.00,0.9254
6204.00,0.9131
6203.00,0.9007
6202.00,0.8885
6201.00,0.8766
6200.00,0.8649
6199.00,0.8534
6198.00,0.8422
6197.00,0.8311
6196.00,0.8203
6195.00,0.8097
6194.00,0.7996
6193.00,0.7899
6192.00,0.7807
6191.00,0.7719
6190.00,0.7635
6189.00,0.7558
6188.00,0.7485
6187.00,0.7418
6186.00,0.7357
6185.00,0.7303
6184.00,0.7255
6183.00,0.7214
6182.00,0.7179
6181.00,0.7151
6180.00,0.7130
6179.00,0.7116
6178.00,0.7109
6177.00,0.7110
6176.00,0.7118
6175.00,0.7133
6174.00,0.7155
6173.00,0.7184
6172.00,0.7219
6171.00,0.7259
6170.00,0.7305
6169.00,0.7360
6168.00,0.7421
6167.00,0.7489
6166.00,0.7563
6165.00,0.7643
6164.00,0.7727
6163.00,0.7814
6162.00,0.7904
6161.00,0.7996
6160.00,0.8091
6159.00,0.8187
6158.00,0.8287
6157.00,0.8391
6156.00,0.8498
6155.00,0.8606
6154.00,0.8716
6153.00,0.8828
6152.00,0.8941
6151.00,0.9054
6150.00,0.9167
6149.00,0.9277
6148.00,0.9387
6147.00,0.9495
6146.00,0.9602
6145.00,0.9709
6144.00,0.9817
6143.00,0.9925
6142.00,1.0035
6141.00,1.0142
6140.00,1.0245
6139.00,1.0341
6138.00,1.0434
6137.00,1.0525
6136.00,1.0617
6135.00,1.0708
6134.00,1.0797
6133.00,1.0884
6132.00,1.0966
6131.00,1.1042
6130.00,1.1116
6129.00,1.1189
6128.00,1.1263
6127.00,1.1334
6126.00,1.1400
6125.00,1.1461
6124.00,1.1516
6123.00,1.1567
6122.00,1.1614
6121.00,1.1660
6120.00,1.1705
6119.00,1.1745
6118.00,1.1780
6117.00,1.1809
6116.00,1.1833
6115.00,1.1853
6114.00,1.1871
6113.00,1.1888
6112.00,1.1902
6111.00,1.1911
6110.00,1.1912
6109.00,1.1906
6108.00,1.1899
6107.00,1.1890
6106.00,1.1878
6105.00,1.1861
6104.00,1.1840
6103.00,1.1817
6102.00,1.1790
6101.00,1.1758
6100.00,1.1721
6099.00,1.1683
6098.00,1.1644
6097.00,1.1603
6096.00,1.1559
6095.00,1.1509
6094.00,1.1456
6093.00,1.1401
6092.00,1.1344
6091.00,1.1283
6090.00,1.1217
6089.00,1.1146
6088.00,1.1070
6087.00,1.0991
6086.00,1.0908
6085.00,1.0824
6084.00,1.0737
6083.00,1.0648
6082.00,1.0556
6081.00,1.0463
6080.00,1.0367
6079.00,1.0269
6078.00,1.0168
6077.00,1.0064
6076.00,0.9958
6075.00,0.9847
6074.00,0.9734
6073.00,0.9621
6072.00,0.9508
6071.00,0.9394
6070.00,0.9279
6069.00,0.9162
6068.00,0.9042
6067.00,0.8920
6066.00,0.8798
6065.00,0.8679
6064.00,0.8562
6063.00,0.8447
6062.00,0.8334
6061.00,0.8224
6060.00,0.8114
6059.00,0.8004
6058.00,0.7897
6057.00,0.7794
6056.00,0.7696
6055.00,0.7603
6054.00,0.7515
6053.00,0.7432
6052.00,0.7355
6051.00,0.7283
6050.00,0.7216
6049.00,0.7154
6048.00,0.7099
6047.00,0.7051
6046.00,0.7010
6045.00,0.6976
6044.00,0.6949
6043.00,0.6927
6042.00,0.6914
6041.00,0.6910
6040.00,0.6913
6039.00,0.6923
6038.00,0.6940
6037.00,0.6966
6036.00,0.6998
6035.00,0.7036
6034.00,0.7080
6033.00,0.7130
6032.00,0.7187
6031.00,0.7251
6030.00,0.7321
6029.00,0.7398
6028.00,0.7479
6027.00,0.7566
6026.00,0.7659
6025.00,0.7756
6024.00,0.7855
6023.00,0.7956
6022.00,0.8059
6021.00,0.8166
6020.00,0.8275
6019.00,0.8386
6018.00,0.8500
6017.00,0.8616
6016.00,0.8733
6015.00,0.8849
6014.00,0.8965
6013.00,0.9081
6012.00,0.9197
6011.00,0.9313
6010.00,0.9429
6009.00,0.9546
6008.00,0.9663
6007.00,0.9778
6006.00,0.9890
6005.00,1.0002
6004.00,1.0114
6003.00,1.0223
6002.00,1.0330
6001.00,1.0433
6000.00,1.0533
5999.00,1.0626
5998.00,1.0716
5997.00,1.0803
5996.00,1.0890
5995.00,1.0976
5994.00,1.1062
5993.00,1.1150
5992.00,1.1236
5991.00,1.1316
5990.00,1.1388
5989.00,1.1454
5988.00,1.1515
5987.00,1.1573
5986.00,1.1628
5985.00,1.1681
5984.00,1.1731
5983.00,1.1779
5982.00,1.1822
5981.00,1.1860
5980.00,1.1893
5979.00,1.1924
5978.00,1.1954
5977.00,1.1981
5976.00,1.2004
5975.00,1.2022
5974.00,1.2034
5973.00,1.2041
5972.00,1.2044
5971.00,1.2045
5970.00,1.2047
5969.00,1.2048
5968.00,1.2045
5967.00,1.2034
5966.00,1.2019
5965.00,1.2002
5964.00,1.1983
5963.00,1.1961
5962.00,1.1935
5961.00,1.1905
5960.00,1.1870
5959.00,1.1827
5958.00,1.1777
5957.00,1.1727
5956.00,1.1678
5955.00,1.1631
5954.00,1.1581
5953.00,1.1527
5952.00,1.1466
5951.00,1.1397
5950.00,1.1323
5949.00,1.1243
5948.00,1.1159
5947.00,1.1073
5946.00,1.0983
5945.00,1.0888
5944.00,1.0787
5943.00,1.0681
5942.00,1.0572
5941.00,1.0460
5940.00,1.0346
5939.00,1.0229
5938.00,1.0112
5937.00,0.9992
5936.00,0.9869
5935.00,0.9742
5934.00,0.9612
5933.00,0.9482
5932.00,0.9352
5931.00,0.9221
5930.00,0.9091
5929.00,0.8961
5928.00,0.8831
5927.00,0.8701
5926.00,0.8572
5925.00,0.8444
5924.00,0.8319
5923.00,0.8196
5922.00,0.8075
5921.00,0.7958
5920.00,0.7843
5919.00,0.7732
5918.00,0.7625
5917.00,0.7525
5916.00,0.7431
5915.00,0.7344
5914.00,0.7263
5913.00,0.7189
5912.00,0.7120
5911.00,0.7058
5910.00,0.7003
5909.00,0.6955
5908.00,0.6915
5907.00,0.6883
5906.00,0.6857
5905.00,0.6840
5904.00,0.6830
5903.00,0.6829
5902.00,0.6837
5901.00,0.6854
5900.00,0.6879
5899.00,0.6911
5898.00,0.6950
5897.00,0.6995
5896.00,0.7047
5895.00,0.7104
5894.00,0.7168
5893.00,0.7240
5892.00,0.7318
5891.00,0.7402
5890.00,0.7491
5889.00,0.7585
5888.00,0.7684
5887.00,0.7786
5886.00,0.7891
5885.00,0.8000
5884.00,0.8111
5883.00,0.8225
5882.00,0.8342
5881.00,0.8460
5880.00,0.8579
5879.00,0.8698
5878.00,0.8817
5877.00,0.8936
5876.00,0.9056
5875.00,0.9177
5874.00,0.9299
5873.00,0.9422
5872.00,0.9543
5871.00,0.9663
5870.00,0.9779
5869.00,0.9894
5868.00,1.0008
5867.00,1.0120
5866.00,1.0231
5865.00,1.0341
5864.00,1.0448
5863.00,1.0552
5862.00,1.0651
5861.00,1.0750
5860.00,1.0847
5859.00,1.0943
5858.00,1.1036
5857.00,1.1125
5856.00,1.1209
5855.00,1.1288
5854.00,1.1364
5853.00,1.1436
5852.00,1.1506
5851.00,1.1573
5850.00,1.1639
5849.00,1.1702
5848.00,1.1762
5847.00,1.1817
5846.00,1.1867
5845.00,1.1913
5844.00,1.1955
5843.00,1.1990
5842.00,1.2020
5841.00,1.2046
5840.00,1.2070
5839.00,1.2091
5838.00,1.2108
5837.00,1.2122
5836.00,1.2135
5835.00,1.2145
5834.00,1.2151
5833.00,1.2153
5832.00,1.2151
5831.00,1.2146
5830.00,1.2137
5829.00,1.2122
5828.00,1.2102
5827.00,1.2078
5826.00,1.2048
5825.00,1.2013
5824.00,1.1973
5823.00,1.1929
5822.00,1.1884
5821.00,1.1837
5820.00,1.1788
5819.00,1.1739
5818.00,1.1686
5817.00,1.1630
5816.00,1.1566
5815.00,1.1494
5814.00,1.1415
5813.00,1.1333
5812.00,1.1251
5811.00,1.1168
5810.00,1.1083
5809.00,1.0996
5808.00,1.0905
5807.00,1.0809
5806.00,1.0708
5805.00,1.0602
5804.00,1.0493
5803.00,1.0380
5802.00,1.0265
5801.00,1.0145
5800.00,1.0021
5799.00,0.9896
5798.00,0.9770
5797.00,0.9645
5796.00,0.9520
5795.00,0.9393
5794.00,0.9264
5793.00,0.9134
5792.00,0.9001
5791.00,0.8867
5790.00,0.8732
5789.00,0.8599
5788.00,0.8467
5787.00,0.8336
5786.00,0.8207
5785.00,0.8082
5784.00,0.7959
5783.00,0.7840
5782.00,0.7722
5781.00,0.7609
5780.00,0.7500
5779.00,0.7397
5778.00,0.7301
5777.00,0.7212
5776.00,0.7130
5775.00,0.7054
5774.00,0.6984
5773.00,0.6920
5772.00,0.6864
5771.00,0.6817
5770.00,0.6778
5769.00,0.6749
5768.00,0.6727
5767.00,0.6713
5766.00,0.6708
5765.00,0.6712
5764.00,0.6725
5763.00,0.6746
5762.00,0.6775
5761.00,0.6812
5760.00,0.6856
5759.00,0.6906
5758.00,0.6964
5757.00,0.7030
5756.00,0.7103
5755.00,0.7183
5754.00,0.7268
5753.00,0.7359
5752.00,0.7454
5751.00,0.7554
5750.00,0.7658
5749.00,0.7766
5748.00,0.7875
5747.00,0.7987
5746.00,0.8102
5745.00,0.8220
5744.00,0.8340
5743.00,0.8463
5742.00,0.8587
5741.00,0.8712
5740.00,0.8837
5739.00,0.8960
5738.00,0.9083
5737.00,0.9207
5736.00,0.9330
5735.00,0.9453
5734.00,0.9576
5733.00,0.9699
5732.00,0.9822
5731.00,0.9942
5730.00,1.0059
5729.00,1.0172
5728.00,1.0284
5727.00,1.0395
5726.00,1.0504
5725.00,1.0611
5724.00,1.0713
5723.00,1.0812
5722.00,1.0906
5721.00,1.0998
5720.00,1.1086
5719.00,1.1172
5718.00,1.1257
5717.00,1.1341
5716.00,1.1419
5715.00,1.1491
5714.00,1.1559
5713.00,1.1626
5712.00,1.1690
5711.00,1.1750
5710.00,1.1806
5709.00,1.1859
5708.00,1.1908
5707.00,1.1951
5706.00,1.1990
5705.00,1.2025
5704.00,1.2057
5703.00,1.2086
5702.00,1.2110
5701.00,1.2131
5700.00,1.2149
5699.00,1.2165
5698.00,1.2178
5697.00,1.2188
5696.00,1.2195
5695.00,1.2198
5694.00,1.2198
5693.00,1.2191
5692.00,1.2180
5691.00,1.2164
5690.00,1.2145
5689.00,1.2122
5688.00,1.2094
5687.00,1.2063
5686.00,1.2027
5685.00,1.1988
5684.00,1.1944
5683.00,1.1897
5682.00,1.1847
5681.00,1.1795
5680.00,1.1737
5679.00,1.1672
5678.00,1.1602
5677.00,1.1527
5676.00,1.1450
5675.00,1.1370
5674.00,1.1289
5673.00,1.1208
5672.00,1.1123
5671.00,1.1033
5670.00,1.0936
5669.00,1.0833
5668.00,1.0726
5667.00,1.0614
5666.00,1.0499
5665.00,1.0382
5664.00,1.0263
5663.00,1.0141
5662.00,1.0017
5661.00,0.9889
5660.00,0.9758
5659.00,0.9624
5658.00,0.9487
5657.00,0.9349
5656.00,0.9210
5655.00,0.9070
5654.00,0.8931
5653.00,0.8794
5652.00,0.8657
5651.00,0.8520
5650.00,0.8384
5649.00,0.8250
5648.00,0.8118
5647.00,0.7990
5646.00,0.7865
5645.00,0.7745
5644.00,0.7629
5643.00,0.7516
5642.00,0.7409
5641.00,0.7307
5640.00,0.7211
5639.00,0.7121
5638.00,0.7038
5637.00,0.6963
5636.00,0.6897
5635.00,0.6838
5634.00,0.6788
5633.00,0.6747
5632.00,0.6714
5631.00,0.6689
5630.00,0.6673
5629.00,0.6667
5628.00,0.6670
5627.00,0.6682
5626.00,0.6703
5625.00,0.6733
5624.00,0.6771
5623.00,0.6817
5622.00,0.6871
5621.00,0.6933
5620.00,0.7003
5619.00,0.7080
5618.00,0.7163
5617.00,0.7252
5616.00,0.7345
5615.00,0.7443
5614.00,0.7547
5613.00,0.7656
5612.00,0.7769
5611.00,0.7886
5610.00,0.8007
5609.00,0.8130
5608.00,0.8256
5607.00,0.8382
5606.00,0.8510
5605.00,0.8639
5604.00,0.8770
5603.00,0.8901
5602.00,0.9033
5601.00,0.9165
5600.00,0.9298
5599.00,0.9431
5598.00,0.9562
5597.00,0.9692
5596.00,0.9819
5595.00,0.9944
5594.00,1.0066
5593.00,1.0186
5592.00,1.0305
5591.00,1.0424
5590.00,1.0542
5589.00,1.0657
5588.00,1.0768
5587.00,1.0876
5586.00,1.0980
5585.00,1.1080
5584.00,1.1178
5583.00,1.1273
5582.00,1.1367
5581.00,1.1457
5580.00,1.1544
5579.00,1.1626
5578.00,1.1703
5577.00,1.1776
5576.00,1.1846
5575.00,1.1913
5574.00,1.1976
5573.00,1.2034
5572.00,1.2087
5571.00,1.2135
5570.00,1.2180
5569.00,1.2222
5568.00,1.2261
5567.00,1.2294
5566.00,1.2323
5565.00,1.2350
5564.00,1.2374
5563.00,1.2394
5562.00,1.2409
5561.00,1.2418
5560.00,1.2420
5559.00,1.2417
5558.00,1.2409
5557.00,1.2399
5556.00,1.2389
5555.00,1.2379
5554.00,1.2368
5553.00,1.2353
5552.00,1.2330
5551.00,1.2300
5550.00,1.2263
5549.00,1.2220
5548.00,1.2172
5547.00,1.2121
5546.00,1.2068
5545.00,1.2012
5544.00,1.1952
5543.00,1.1888
5542.00,1.1821
5541.00,1.1751
5540.00,1.1679
5539.00,1.1602
5538.00,1.1520
5537.00,1.1433
5536.00,1.1339
5535.00,1.1240
5534.00,1.1137
5533.00,1.1031
5532.00,1.0923
5531.00,1.0814
5530.00,1.0702
5529.00,1.0588
5528.00,1.0470
5527.00,1.0347
5526.00,1.0217
5525.00,1.0082
5524.00,0.9943
5523.00,0.9802
5522.00,0.9660
5521.00,0.9517
5520.00,0.9373
5519.00,0.9227
5518.00,0.9082
5517.00,0.8936
5516.00,0.8790
5515.00,0.8643
5514.00,0.8498
5513.00,0.8356
5512.00,0.8216
5511.00,0.8077
5510.00,0.7941
5509.00,0.7808
5508.00,0.7677
5507.00,0.7550
5506.00,0.7429
5505.00,0.7315
5504.00,0.7207
5503.00,0.7106
5502.00,0.7013
5501.00,0.6927
5500.00,0.6849
5499.00,0.6780
5498.00,0.6720
5497.00,0.6669
5496.00,0.6627
5495.00,0.6594
5494.00,0.6569
5493.00,0.6555
5492.00,0.6550
5491.00,0.6554
5490.00,0.6567
5489.00,0.6590
5488.00,0.6621
5487.00,0.6661
5486.00,0.6711
5485.00,0.6771
5484.00,0.6840
5483.00,0.6916
5482.00,0.7000
5481.00,0.7090
5480.00,0.7187
5479.00,0.7288
5478.00,0.7394
5477.00,0.7505
5476.00,0.7621
5475.00,0.7741
5474.00,0.7866
5473.00,0.7994
5472.00,0.8124
5471.00,0.8255
5470.00,0.8388
5469.00,0.8523
5468.00,0.8661
5467.00,0.8800
5466.00,0.8940
5465.00,0.9080
5464.00,0.9219
5463.00,0.9356
5462.00,0.9493
5461.00,0.9629
5460.00,0.9765
5459.00,0.9899
5458.00,1.0033
5457.00,1.0166
5456.00,1.0296
5455.00,1.0425
5454.00,1.0552
5453.00,1.0676
5452.00,1.0796
5451.00,1.0910
5450.00,1.1020
5449.00,1.1126
5448.00,1.1229
5447.00,1.1330
5446.00,1.1430
5445.00,1.1529
5444.00,1.1625
5443.00,1.1716
5442.00,1.1803
5441.00,1.1885
5440.00,1.1961
5439.00,1.2032
5438.00,1.2099
5437.00,1.2163
5436.00,1.2224
5435.00,1.2282
5434.00,1.2338
5433.00,1.2392
5432.00,1.2439
5431.00,1.2480
5430.00,1.2513
5429.00,1.2543
5428.00,1.2569
5427.00,1.2593
5426.00,1.2615
5425.00,1.2634
5424.00,1.2650
5423.00,1.2662
5422.00,1.2672
5421.00,1.2677
5420.00,1.2678
5419.00,1.2670
5418.00,1.2656
5417.00,1.2637
5416.00,1.2614
5415.00,1.2585
5414.00,1.2553
5413.00,1.2521
5412.00,1.2489
5411.00,1.2451
5410.00,1.2408
5409.00,1.2362
5408.00,1.2314
5407.00,1.2262
5406.00,1.2205
5405.00,1.2142
5404.00,1.2074
5403.00,1.1999
5402.00,1.1920
5401.00,1.1836
5400.00,1.1748
5399.00,1.1655
5398.00,1.1558
5397.00,1.1457
5396.00,1.1353
5395.00,1.1245
5394.00,1.1133
5393.00,1.1018
5392.00,1.0900
5391.00,1.0777
5390.00,1.0650
5389.00,1.0521
5388.00,1.0389
5387.00,1.0255
5386.00,1.0116
5385.00,0.9975
5384.00,0.9832
5383.00,0.9686
5382.00,0.9539
5381.00,0.9390
5380.00,0.9241
5379.00,0.9090
5378.00,0.8939
5377.00,0.8789
5376.00,0.8640
5375.00,0.8493
5374.00,0.8348
5373.00,0.8207
5372.00,0.8068
5371.00,0.7933
5370.00,0.7802
5369.00,0.7677
5368.00,0.7559
5367.00,0.7446
5366.00,0.7340
5365.00,0.7240
5364.00,0.7146
5363.00,0.7060
5362.00,0.6982
5361.00,0.6915
5360.00,0.6857
5359.00,0.6810
5358.00,0.6772
5357.00,0.6745
5356.00,0.6728
5355.00,0.6720
5354.00,0.6722
5353.00,0.6734
5352.00,0.6754
5351.00,0.6784
5350.00,0.6822
5349.00,0.6871
5348.00,0.6929
5347.00,0.6996
5346.00,0.7072
5345.00,0.7157
5344.00,0.7250
5343.00,0.7348
5342.00,0.7452
5341.00,0.7560
5340.00,0.7674
5339.00,0.7795
5338.00,0.7923
5337.00,0.8057
5336.00,0.8194
5335.00,0.8331
5334.00,0.8469
5333.00,0.8609
5332.00,0.8752
5331.00,0.8895
5330.00,0.9039
5329.00,0.9182
5328.00,0.9325
5327.00,0.9468
5326.00,0.9615
5325.00,0.9762
5324.00,0.9908
5323.00,1.0051
5322.00,1.0191
5321.00,1.0330
5320.00,1.0467
5319.00,1.0602
5318.00,1.0733
5317.00,1.0861
5316.00,1.0986
5315.00,1.1107
5314.00,1.1225
5313.00,1.1342
5312.00,1.1456
5311.00,1.1564
5310.00,1.1667
5309.00,1.1766
5308.00,1.1862
5307.00,1.1955
5306.00,1.2047
5305.00,1.2135
5304.00,1.2218
5303.00,1.2295
5302.00,1.2366
5301.00,1.2431
5300.00,1.2490
5299.00,1.2546
5298.00,1.2599
5297.00,1.2652
5296.00,1.2704
5295.00,1.2752
5294.00,1.2794
5293.00,1.2830
5292.00,1.2860
5291.00,1.2887
5290.00,1.2910
5289.00,1.2930
5288.00,1.2945
5287.00,1.2957
5286.00,1.2965
5285.00,1.2968
5284.00,1.2967
5283.00,1.2962
5282.00,1.2951
5281.00,1.2936
5280.00,1.2916
5279.00,1.2893
5278.00,1.2867
5277.00,1.2839
5276.00,1.2807
5275.00,1.2771
5274.00,1.2732
5273.00,1.2688
5272.00,1.2638
5271.00,1.2581
5270.00,1.2518
5269.00,1.2449
5268.00,1.2378
5267.00,1.2304
5266.00,1.2229
5265.00,1.2152
5264.00,1.2070
5263.00,1.1983
5262.00,1.1891
5261.00,1.1794
5260.00,1.1693
5259.00,1.1587
5258.00,1.1478
5257.00,1.1366
5256.00,1.1250
5255.00,1.1130
5254.00,1.1007
5253.00,1.0879
5252.00,1.0748
5251.00,1.0613
5250.00,1.0474
5249.00,1.0332
5248.00,1.0186
5247.00,1.0037
5246.00,0.9885
5245.00,0.9730
5244.00,0.9573
5243.00,0.9414
5242.00,0.9256
5241.00,0.9099
5240.00,0.8943
5239.00,0.8787
5238.00,0.8632
5237.00,0.8479
5236.00,0.8328
5235.00,0.8180
5234.00,0.8037
5233.00,0.7898
5232.00,0.7764
5231.00,0.7635
5230.00,0.7512
5229.00,0.7398
5228.00,0.7290
5227.00,0.7190
5226.00,0.7097
5225.00,0.7013
5224.00,0.6939
5223.00,0.6875
5222.00,0.6822
5221.00,0.6781
5220.00,0.6751
5219.00,0.6731
5218.00,0.6722
5217.00,0.6723
5216.00,0.6735
5215.00,0.6758
5214.00,0.6792
5213.00,0.6838
5212.00,0.6893
5211.00,0.6958
5210.00,0.7030
5209.00,0.7110
5208.00,0.7198
5207.00,0.7294
5206.00,0.7400
5205.00,0.7514
5204.00,0.7635
5203.00,0.7761
5202.00,0.7893
5201.00,0.8028
5200.00,0.8167
5199.00,0.8310
5198.00,0.8456
5197.00,0.8604
5196.00,0.8752
5195.00,0.8901
5194.00,0.9049
5193.00,0.9196
5192.00,0.9342
5191.00,0.9487
5190.00,0.9631
5189.00,0.9775
5188.00,0.9917
5187.00,1.0058
5186.00,1.0199
5185.00,1.0340
5184.00,1.0481
5183.00,1.0620
5182.00,1.0756
5181.00,1.0889
5180.00,1.1020
5179.00,1.1150
5178.00,1.1279
5177.00,1.1407
5176.00,1.1531
5175.00,1.1650
5174.00,1.1765
5173.00,1.1874
5172.00,1.1979
5171.00,1.2079
5170.00,1.2175
5169.00,1.2268
5168.00,1.2358
5167.00,1.2446
5166.00,1.2530
5165.00,1.2609
5164.00,1.2683
5163.00,1.2753
5162.00,1.2819
5161.00,1.2883
5160.00,1.2942
5159.00,1.2995
5158.00,1.3041
5157.00,1.3082
5156.00,1.3118
5155.00,1.3152
5154.00,1.3184
5153.00,1.3216
5152.00,1.3244
5151.00,1.3267
5150.00,1.3283
5149.00,1.3292
5148.00,1.3296
5147.00,1.3295
5146.00,1.3289
5145.00,1.3279
5144.00,1.3266
5143.00,1.3249
5142.00,1.3230
5141.00,1.3209
5140.00,1.3187
5139.00,1.3162
5138.00,1.3130
5137.00,1.3090
5136.00,1.3043
5135.00,1.2991
5134.00,1.2936
5133.00,1.2878
5132.00,1.2816
5131.00,1.2749
5130.00,1.2678
5129.00,1.2601
5128.00,1.2519
5127.00,1.2432
5126.00,1.2342
5125.00,1.2248
5124.00,1.2152
5123.00,1.2052
5122.00,1.1948
5121.00,1.1840
5120.00,1.1726
5119.00,1.1607
5118.00,1.1483
5117.00,1.1355
5116.00,1.1222
5115.00,1.1085
5114.00,1.0942
5113.00,1.0796
5112.00,1.0646
5111.00,1.0494
5110.00,1.0338
5109.00,1.0180
5108.00,1.0019
5107.00,0.9856
5106.00,0.9692
5105.00,0.9527
5104.00,0.9362
5103.00,0.9196
5102.00,0.9030
5101.00,0.8866
5100.00,0.8702
5099.00,0.8542
5098.00,0.8384
5097.00,0.8230
5096.00,0.8082
5095.00,0.7938
5094.00,0.7801
5093.00,0.7670
5092.00,0.7547
5091.00,0.7432
5090.00,0.7325
5089.00,0.7226
5088.00,0.7137
5087.00,0.7059
5086.00,0.6990
5085.00,0.6933
5084.00,0.6887
5083.00,0.6852
5082.00,0.6829
5081.00,0.6817
5080.00,0.6816
5079.00,0.6826
5078.00,0.6848
5077.00,0.6882
5076.00,0.6926
5075.00,0.6982
5074.00,0.7048
5073.00,0.7124
5072.00,0.7210
5071.00,0.7304
5070.00,0.7406
5069.00,0.7516
5068.00,0.7632
5067.00,0.7756
5066.00,0.7885
5065.00,0.8020
5064.00,0.8159
5063.00,0.8303
5062.00,0.8450
5061.00,0.8601
5060.00,0.8754
5059.00,0.8908
5058.00,0.9064
5057.00,0.9220
5056.00,0.9376
5055.00,0.9532
5054.00,0.9688
5053.00,0.9845
5052.00,1.0002
5051.00,1.0159
5050.00,1.0317
5049.00,1.0472
5048.00,1.0623
5047.00,1.0770
5046.00,1.0916
5045.00,1.1059
5044.00,1.1200
5043.00,1.1339
5042.00,1.1474
5041.00,1.1606
5040.00,1.1734
5039.00,1.1858
5038.00,1.1980
5037.00,1.2097
5036.00,1.2210
5035.00,1.2318
5034.00,1.2421
5033.00,1.2521
5032.00,1.2616
5031.00,1.2708
5030.00,1.2795
5029.00,1.2876
5028.00,1.2952
5027.00,1.3022
5026.00,1.3090
5025.00,1.3153
5024.00,1.3214
5023.00,1.3271
5022.00,1.3324
5021.00,1.3372
5020.00,1.3414
5019.00,1.3452
5018.00,1.3487
5017.00,1.3519
5016.00,1.3544
5015.00,1.3563
5014.00,1.3576
5013.00,1.3585
5012.00,1.3591
5011.00,1.3596
5010.00,1.3598
5009.00,1.3596
5008.00,1.3589
5007.00,1.3576
5006.00,1.3558
5005.00,1.3537
5004.00,1.3513
5003.00,1.3485
5002.00,1.3453
5001.00,1.3416
5000.00,1.3373
4999.00,1.3325
4998.00,1.3272
4997.00,1.3214
4996.00,1.3152
4995.00,1.3085
4994.00,1.3015
4993.00,1.2941
4992.00,1.2864
4991.00,1.2781
4990.00,1.2694
4989.00,1.2602
4988.00,1.2505
4987.00,1.2404
4986.00,1.2300
4985.00,1.2190
4984.00,1.2076
4983.00,1.1955
4982.00,1.1829
4981.00,1.1698
4980.00,1.1561
4979.00,1.1420
4978.00,1.1274
4977.00,1.1124
4976.00,1.0970
4975.00,1.0811
4974.00,1.0649
4973.00,1.0484
4972.00,1.0316
4971.00,1.0145
4970.00,0.9972
4969.00,0.9799
4968.00,0.9625
4967.00,0.9451
4966.00,0.9277
4965.00,0.9102
4964.00,0.8929
4963.00,0.8758
4962.00,0.8591
4961.00,0.8427
4960.00,0.8268
4959.00,0.8114
4958.00,0.7965
4957.00,0.7822
4956.00,0.7685
4955.00,0.7556
4954.00,0.7434
4953.00,0.7322
4952.00,0.7219
4951.00,0.7126
4950.00,0.7044
4949.00,0.6973
4948.00,0.6913
4947.00,0.6865
4946.00,0.6828
4945.00,0.6803
4944.00,0.6791
4943.00,0.6790
4942.00,0.6803
4941.00,0.6828
4940.00,0.6865
4939.00,0.6913
4938.00,0.6973
4937.00,0.7044
4936.00,0.7126
4935.00,0.7218
4934.00,0.7321
4933.00,0.7432
4932.00,0.7551
4931.00,0.7677
4930.00,0.7809
4929.00,0.7947
4928.00,0.8091
4927.00,0.8240
4926.00,0.8394
4925.00,0.8551
4924.00,0.8712
4923.00,0.8875
4922.00,0.9040
4921.00,0.9206
4920.00,0.9373
4919.00,0.9541
4918.00,0.9709
4917.00,0.9877
4916.00,1.0045
4915.00,1.0210
4914.00,1.0373
4913.00,1.0535
4912.00,1.0696
4911.00,1.0855
4910.00,1.1013
4909.00,1.1168
4908.00,1.1320
4907.00,1.1467
4906.00,1.1611
4905.00,1.1753
4904.00,1.1891
4903.00,1.2024
4902.00,1.2152
4901.00,1.2275
4900.00,1.2394
4899.00,1.2510
4898.00,1.2623
4897.00,1.2731
4896.00,1.2835
4895.00,1.2933
4894.00,1.3026
4893.00,1.3114
4892.00,1.3199
4891.00,1.3280
4890.00,1.3357
4889.00,1.3429
4888.00,1.3496
4887.00,1.3557
4886.00,1.3615
4885.00,1.3669
4884.00,1.3720
4883.00,1.3768
4882.00,1.3809
4881.00,1.3845
4880.00,1.3875
4879.00,1.3900
4878.00,1.3922
4877.00,1.3941
4876.00,1.3956
4875.00,1.3963
4874.00,1.3962
4873.00,1.3957
4872.00,1.3949
4871.00,1.3940
4870.00,1.3933
4869.00,1.3923
4868.00,1.3911
4867.00,1.3892
4866.00,1.3867
4865.00,1.3837
4864.00,1.3801
4863.00,1.3760
4862.00,1.3714
4861.00,1.3661
4860.00,1.3604
4859.00,1.3544
4858.00,1.3481
4857.00,1.3414
4856.00,1.3339
4855.00,1.3259
4854.00,1.3175
4853.00,1.3087
4852.00,1.2994
4851.00,1.2898
4850.00,1.2796
4849.00,1.2689
4848.00,1.2576
4847.00,1.2458
4846.00,1.2335
4845.00,1.2208
4844.00,1.2076
4843.00,1.1939
4842.00,1.1797
4841.00,1.1650
4840.00,1.1498
4839.00,1.1341
4838.00,1.1181
4837.00,1.1017
4836.00,1.0848
4835.00,1.0676
4834.00,1.0500
4833.00,1.0322
4832.00,1.0142
4831.00,0.9960
4830.00,0.9778
4829.00,0.9595
4828.00,0.9410
4827.00,0.9225
4826.00,0.9042
4825.00,0.8861
4824.00,0.8683
4823.00,0.8510
4822.00,0.8341
4821.00,0.8179
4820.00,0.8022
4819.00,0.7872
4818.00,0.7729
4817.00,0.7595
4816.00,0.7472
4815.00,0.7359
4814.00,0.7257
4813.00,0.7168
4812.00,0.7090
4811.00,0.7023
4810.00,0.6970
4809.00,0.6929
4808.00,0.6903
4807.00,0.6891
4806.00,0.6893
4805.00,0.6908
4804.00,0.6936
4803.00,0.6977
4802.00,0.7031
4801.00,0.7097
4800.00,0.7175
4799.00,0.7264
4798.00,0.7363
4797.00,0.7472
4796.00,0.7591
4795.00,0.7719
4794.00,0.7857
4793.00,0.8001
4792.00,0.8150
4791.00,0.8304
4790.00,0.8462
4789.00,0.8624
4788.00,0.8791
4787.00,0.8961
4786.00,0.9134
4785.00,0.9308
4784.00,0.9483
4783.00,0.9659
4782.00,0.9835
4781.00,1.0011
4780.00,1.0186
4779.00,1.0360
4778.00,1.0533
4777.00,1.0705
4776.00,1.0875
4775.00,1.1042
4774.00,1.1206
4773.00,1.1367
4772.00,1.1525
4771.00,1.1679
4770.00,1.1831
4769.00,1.1979
4768.00,1.2123
4767.00,1.2263
4766.00,1.2399
4765.00,1.2531
4764.00,1.2657
4763.00,1.2780
4762.00,1.2897
4761.00,1.3011
4760.00,1.3119
4759.00,1.3220
4758.00,1.3315
4757.00,1.3405
4756.00,1.3493
4755.00,1.3579
4754.00,1.3664
4753.00,1.3745
4752.00,1.3819
4751.00,1.3885
4750.00,1.3945
4749.00,1.4000
4748.00,1.4052
4747.00,1.4101
4746.00,1.4147
4745.00,1.4188
4744.00,1.4222
4743.00,1.4250
4742.00,1.4272
4741.00,1.4291
4740.00,1.4307
4739.00,1.4320
4738.00,1.4332
4737.00,1.4338
4736.00,1.4340
4735.00,1.4338
4734.00,1.4331
4733.00,1.4320
4732.00,1.4303
4731.00,1.4278
4730.00,1.4248
4729.00,1.4213
4728.00,1.4174
4727.00,1.4133
4726.00,1.4089
4725.00,1.4042
4724.00,1.3992
4723.00,1.3938
4722.00,1.3878
4721.00,1.3811
4720.00,1.3736
4719.00,1.3654
4718.00,1.3569
4717.00,1.3482
4716.00,1.3391
4715.00,1.3296
4714.00,1.3196
4713.00,1.3090
4712.00,1.2977
4711.00,1.2859
4710.00,1.2735
4709.00,1.2605
4708.00,1.2470
4707.00,1.2330
4706.00,1.2185
4705.00,1.2034
4704.00,1.1877
4703.00,1.1715
4702.00,1.1548
4701.00,1.1377
4700.00,1.1202
4699.00,1.1024
4698.00,1.0842
4697.00,1.0659
4696.00,1.0473
4695.00,1.0288
4694.00,1.0101
4693.00,0.9915
4692.00,0.9727
4691.00,0.9538
4690.00,0.9349
4689.00,0.9161
4688.00,0.8975
4687.00,0.8792
4686.00,0.8613
4685.00,0.8439
4684.00,0.8271
4683.00,0.8109
4682.00,0.7955
4681.00,0.7810
4680.00,0.7673
4679.00,0.7547
4678.00,0.7431
4677.00,0.7326
4676.00,0.7233
4675.00,0.7152
4674.00,0.7085
4673.00,0.7032
4672.00,0.6993
4671.00,0.6968
4670.00,0.6958
4669.00,0.6962
4668.00,0.6981
4667.00,0.7014
4666.00,0.7061
4665.00,0.7122
4664.00,0.7196
4663.00,0.7282
4662.00,0.7381
4661.00,0.7492
4660.00,0.7612
4659.00,0.7742
4658.00,0.7880
4657.00,0.8026
4656.00,0.8179
4655.00,0.8339
4654.00,0.8504
4653.00,0.8675
4652.00,0.8850
4651.00,0.9028
4650.00,0.9209
4649.00,0.9391
4648.00,0.9575
4647.00,0.9760
4646.00,0.9946
4645.00,1.0132
4644.00,1.0316
4643.00,1.0499
4642.00,1.0680
4641.00,1.0859
4640.00,1.1037
4639.00,1.1215
4638.00,1.1392
4637.00,1.1565
4636.00,1.1734
4635.00,1.1898
4634.00,1.2058
4633.00,1.2216
4632.00,1.2371
4631.00,1.2521
4630.00,1.2666
4629.00,1.2804
4628.00,1.2936
4627.00,1.3063
4626.00,1.3186
4625.00,1.3306
4624.00,1.3424
4623.00,1.3538
4622.00,1.3648
4621.00,1.3753
4620.00,1.3851
4619.00,1.3941
4618.00,1.4025
4617.00,1.4103
4616.00,1.4177
4615.00,1.4247
4614.00,1.4315
4613.00,1.4378
4612.00,1.4436
4611.00,1.4488
4610.00,1.4535
4609.00,1.4579
4608.00,1.4619
4607.00,1.4656
4606.00,1.4688
4605.00,1.4715
4604.00,1.4737
4603.00,1.4755
4602.00,1.4768
4601.00,1.4777
4600.00,1.4781
4599.00,1.4780
4598.00,1.4776
4597.00,1.4767
4596.00,1.4754
4595.00,1.4736
4594.00,1.4713
4593.00,1.4685
4592.00,1.4653
4591.00,1.4617
4590.00,1.4578
4589.00,1.4535
4588.00,1.4486
4587.00,1.4432
4586.00,1.4373
4585.00,1.4310
4584.00,1.4242
4583.00,1.4168
4582.00,1.4088
4581.00,1.4002
4580.00,1.3910
4579.00,1.3813
4578.00,1.3714
4577.00,1.3612
4576.00,1.3508
4575.00,1.3397
4574.00,1.3280
4573.00,1.3155
4572.00,1.3022
4571.00,1.2883
4570.00,1.2738
4569.00,1.2590
4568.00,1.2438
4567.00,1.2281
4566.00,1.2119
4565.00,1.1949
4564.00,1.1774
4563.00,1.1591
4562.00,1.1405
4561.00,1.1216
4560.00,1.1024
4559.00,1.0829
4558.00,1.0630
4557.00,1.0429
4556.00,1.0225
4555.00,1.0019
4554.00,0.9814
4553.00,0.9611
4552.00,0.9409
4551.00,0.9208
4550.00,0.9011
4549.00,0.8817
4548.00,0.8629
4547.00,0.8448
4546.00,0.8275
4545.00,0.8112
4544.00,0.7957
4543.00,0.7812
4542.00,0.7679
4541.00,0.7558
4540.00,0.7451
4539.00,0.7357
4538.00,0.7278
4537.00,0.7213
4536.00,0.7163
4535.00,0.7129
4534.00,0.7111
4533.00,0.7110
4532.00,0.7125
4531.00,0.7156
4530.00,0.7203
4529.00,0.7266
4528.00,0.7343
4527.00,0.7433
4526.00,0.7535
4525.00,0.7650
4524.00,0.7777
4523.00,0.7915
4522.00,0.8062
4521.00,0.8219
4520.00,0.8383
4519.00,0.8554
4518.00,0.8730
4517.00,0.8911
4516.00,0.9097
4515.00,0.9286
4514.00,0.9480
4513.00,0.9676
4512.00,0.9873
4511.00,1.0072
4510.00,1.0271
4509.00,1.0470
4508.00,1.0668
4507.00,1.0863
4506.00,1.1057
4505.00,1.1248
4504.00,1.1437
4503.00,1.1623
4502.00,1.1805
4501.00,1.1984
4500.00,1.2159
4499.00,1.2331
4498.00,1.2499
4497.00,1.2663
4496.00,1.2822
4495.00,1.2977
4494.00,1.3126
4493.00,1.3270
4492.00,1.3407
4491.00,1.3540
4490.00,1.3669
4489.00,1.3794
4488.00,1.3915
4487.00,1.4031
4486.00,1.4142
4485.00,1.4246
4484.00,1.4344
4483.00,1.4435
4482.00,1.4519
4481.00,1.4598
4480.00,1.4672
4479.00,1.4741
4478.00,1.4808
4477.00,1.4872
4476.00,1.4932
4475.00,1.4988
4474.00,1.5040
4473.00,1.5086
4472.00,1.5126
4471.00,1.5160
4470.00,1.5190
4469.00,1.5217
4468.00,1.5241
4467.00,1.5261
4466.00,1.5274
4465.00,1.5281
4464.00,1.5282
4463.00,1.5279
4462.00,1.5272
4461.00,1.5262
4460.00,1.5251
4459.00,1.5237
4458.00,1.5220
4457.00,1.5199
4456.00,1.5173
4455.00,1.5142
4454.00,1.5104
4453.00,1.5063
4452.00,1.5018
4451.00,1.4971
4450.00,1.4921
4449.00,1.4867
4448.00,1.4810
4447.00,1.4750
4446.00,1.4687
4445.00,1.4621
4444.00,1.4551
4443.00,1.4477
4442.00,1.4400
4441.00,1.4322
4440.00,1.4241
4439.00,1.4158
4438.00,1.4070
4437.00,1.3976
4436.00,1.3872
4435.00,1.3761
4434.00,1.3641
4433.00,1.3514
4432.00,1.3379
4431.00,1.3236
4430.00,1.3085
4429.00,1.2925
4428.00,1.2758
4427.00,1.2581
4426.00,1.2397
4425.00,1.2205
4424.00,1.2010
4423.00,1.1810
4422.00,1.1607
4421.00,1.1401
4420.00,1.1191
4419.00,1.0979
4418.00,1.0766
4417.00,1.0554
4416.00,1.0343
4415.00,1.0135
4414.00,0.9931
4413.00,0.9733
4412.00,0.9543
4411.00,0.9361
4410.00,0.9190
4409.00,0.9029
4408.00,0.8882
4407.00,0.8748
4406.00,0.8629
4405.00,0.8525
4404.00,0.8436
4403.00,0.8361
4402.00,0.8301
4401.00,0.8254
4400.00,0.8219
4399.00,0.8194
4398.00,0.8180
4397.00,0.8173
4396.00,0.8175
4395.00,0.8184
4394.00,0.8204
4393.00,0.8234
4392.00,0.8275
4391.00,0.8330
4390.00,0.8396
4389.00,0.8475
4388.00,0.8567
4387.00,0.8671
4386.00,0.8788
4385.00,0.8917
4384.00,0.9057
4383.00,0.9207
4382.00,0.9365
4381.00,0.9530
4380.00,0.9701
4379.00,0.9879
4378.00,1.0060
4377.00,1.0245
4376.00,1.0432
4375.00,1.0621
4374.00,1.0810
4373.00,1.0999
4372.00,1.1185
4371.00,1.1368
4370.00,1.1548
4369.00,1.1724
4368.00,1.1895
4367.00,1.2061
4366.00,1.2220
4365.00,1.2374
4364.00,1.2522
4363.00,1.2666
4362.00,1.2805
4361.00,1.2940
4360.00,1.3072
4359.00,1.3201
4358.00,1.3330
4357.00,1.3457
4356.00,1.3581
4355.00,1.3704
4354.00,1.3824
4353.00,1.3943
4352.00,1.4060
4351.00,1.4174
4350.00,1.4286
4349.00,1.4392
4348.00,1.4496
4347.00,1.4596
4346.00,1.4694
4345.00,1.4788
4344.00,1.4880
4343.00,1.4967
4342.00,1.5050
4341.00,1.5129
4340.00,1.5202
4339.00,1.5270
4338.00,1.5333
4337.00,1.5391
4336.00,1.5445
4335.00,1.5496
4334.00,1.5544
4333.00,1.5589
4332.00,1.5630
4331.00,1.5665
4330.00,1.5693
4329.00,1.5717
4328.00,1.5736
4327.00,1.5753
4326.00,1.5767
4325.00,1.5778
4324.00,1.5785
4323.00,1.5786
4322.00,1.5782
4321.00,1.5770
4320.00,1.5754
4319.00,1.5733
4318.00,1.5709
4317.00,1.5681
4316.00,1.5648
4315.00,1.5608
4314.00,1.5562
4313.00,1.5513
4312.00,1.5459
4311.00,1.5401
4310.00,1.5337
4309.00,1.5268
4308.00,1.5192
4307.00,1.5110
4306.00,1.5021
4305.00,1.4929
4304.00,1.4834
4303.00,1.4738
4302.00,1.4640
4301.00,1.4535
4300.00,1.4423
4299.00,1.4302
4298.00,1.4175
4297.00,1.4042
4296.00,1.3903
4295.00,1.3758
4294.00,1.3608
4293.00,1.3452
4292.00,1.3290
4291.00,1.3121
4290.00,1.2944
4289.00,1.2762
4288.00,1.2573
4287.00,1.2379
4286.00,1.2179
4285.00,1.1975
4284.00,1.1764
4283.00,1.1549
4282.00,1.1329
4281.00,1.1106
4280.00,1.0880
4279.00,1.0652
4278.00,1.0422
4277.00,1.0193
4276.00,0.9965
4275.00,0.9739
4274.00,0.9516
4273.00,0.9298
4272.00,0.9086
4271.00,0.8881
4270.00,0.8684
4269.00,0.8496
4268.00,0.8319
4267.00,0.8153
4266.00,0.8001
4265.00,0.7864
4264.00,0.7743
4263.00,0.7638
4262.00,0.7550
4261.00,0.7480
4260.00,0.7429
4259.00,0.7396
4258.00,0.7383
4257.00,0.7388
4256.00,0.7412
4255.00,0.7456
4254.00,0.7518
4253.00,0.7597
4252.00,0.7694
4251.00,0.7807
4250.00,0.7934
4249.00,0.8075
4248.00,0.8229
4247.00,0.8394
4246.00,0.8569
4245.00,0.8752
4244.00,0.8943
4243.00,0.9140
4242.00,0.9342
4241.00,0.9550
4240.00,0.9762
4239.00,0.9978
4238.00,1.0195
4237.00,1.0413
4236.00,1.0631
4235.00,1.0848
4234.00,1.1065
4233.00,1.1281
4232.00,1.1496
4231.00,1.1709
4230.00,1.1918
4229.00,1.2124
4228.00,1.2327
4227.00,1.2527
4226.00,1.2723
4225.00,1.2916
4224.00,1.3104
4223.00,1.3286
4222.00,1.3462
4221.00,1.3632
4220.00,1.3796
4219.00,1.3954
4218.00,1.4107
4217.00,1.4254
4216.00,1.4394
4215.00,1.4530
4214.00,1.4662
4213.00,1.4790
4212.00,1.4912
4211.00,1.5029
4210.00,1.5139
4209.00,1.5241
4208.00,1.5335
4207.00,1.5424
4206.00,1.5509
4205.00,1.5590
4204.00,1.5667
4203.00,1.5739
4202.00,1.5805
4201.00,1.5866
4200.00,1.5919
4199.00,1.5966
4198.00,1.6007
4197.00,1.6045
4196.00,1.6081
4195.00,1.6118
4194.00,1.6155
4193.00,1.6187
4192.00,1.6212
4191.00,1.6227
4190.00,1.6235
4189.00,1.6237
4188.00,1.6236
4187.00,1.6232
4186.00,1.6225
4185.00,1.6215
4184.00,1.6201
4183.00,1.6181
4182.00,1.6155
4181.00,1.6122
4180.00,1.6083
4179.00,1.6040
4178.00,1.5995
4177.00,1.5946
4176.00,1.5893
4175.00,1.5836
4174.00,1.5773
4173.00,1.5706
4172.00,1.5633
4171.00,1.5554
4170.00,1.5470
4169.00,1.5380
4168.00,1.5286
4167.00,1.5186
4166.00,1.5080
4165.00,1.4967
4164.00,1.4849
4163.00,1.4726
4162.00,1.4598
4161.00,1.4462
4160.00,1.4319
4159.00,1.4170
4158.00,1.4016
4157.00,1.3856
4156.00,1.3689
4155.00,1.3515
4154.00,1.3335
4153.00,1.3147
4152.00,1.2954
4151.00,1.2753
4150.00,1.2547
4149.00,1.2334
4148.00,1.2116
4147.00,1.1892
4146.00,1.1662
4145.00,1.1428
4144.00,1.1190
4143.00,1.0949
4142.00,1.0707
4141.00,1.0465
4140.00,1.0224
4139.00,0.9985
4138.00,0.9749
4137.00,0.9517
4136.00,0.9291
4135.00,0.9072
4134.00,0.8862
4133.00,0.8662
4132.00,0.8474
4131.00,0.8299
4130.00,0.8139
4129.00,0.7994
4128.00,0.7866
4127.00,0.7755
4126.00,0.7662
4125.00,0.7589
4124.00,0.7536
4123.00,0.7503
4122.00,0.7491
4121.00,0.7501
4120.00,0.7530
4119.00,0.7580
4118.00,0.7650
4117.00,0.7739
4116.00,0.7846
4115.00,0.7969
4114.00,0.8109
4113.00,0.8262
4112.00,0.8429
4111.00,0.8609
4110.00,0.8799
4109.00,0.8998
4108.00,0.9206
4107.00,0.9419
4106.00,0.9636
4105.00,0.9858
4104.00,1.0084
4103.00,1.0312
4102.00,1.0542
4101.00,1.0773
4100.00,1.1003
4099.00,1.1233
4098.00,1.1460
4097.00,1.1686
4096.00,1.1909
4095.00,1.2130
4094.00,1.2349
4093.00,1.2567
4092.00,1.2781
4091.00,1.2992
4090.00,1.3198
4089.00,1.3398
4088.00,1.3594
4087.00,1.3783
4086.00,1.3965
4085.00,1.4141
4084.00,1.4312
4083.00,1.4478
4082.00,1.4639
4081.00,1.4793
4080.00,1.4941
4079.00,1.5082
4078.00,1.5216
4077.00,1.5345
4076.00,1.5467
4075.00,1.5582
4074.00,1.5691
4073.00,1.5797
4072.00,1.5900
4071.00,1.5999
4070.00,1.6090
4069.00,1.6173
4068.00,1.6247
4067.00,1.6315
4066.00,1.6380
4065.00,1.6441
4064.00,1.6498
4063.00,1.6550
4062.00,1.6598
4061.00,1.6642
4060.00,1.6681
4059.00,1.6714
4058.00,1.6740
4057.00,1.6762
4056.00,1.6784
4055.00,1.6804
4054.00,1.6822
4053.00,1.6836
4052.00,1.6846
4051.00,1.6850
4050.00,1.6847
4049.00,1.6836
4048.00,1.6819
4047.00,1.6798
4046.00,1.6773
4045.00,1.6745
4044.00,1.6712
4043.00,1.6677
4042.00,1.6639
4041.00,1.6597
4040.00,1.6549
4039.00,1.6494
4038.00,1.6434
4037.00,1.6371
4036.00,1.6308
4035.00,1.6242
4034.00,1.6173
4033.00,1.6099
4032.00,1.6017
4031.00,1.5929
4030.00,1.5835
4029.00,1.5736
4028.00,1.5632
4027.00,1.5523
4026.00,1.5407
4025.00,1.5285
4024.00,1.5157
4023.00,1.5021
4022.00,1.4877
4021.00,1.4726
4020.00,1.4567
4019.00,1.4400
4018.00,1.4225
4017.00,1.4041
4016.00,1.3849
4015.00,1.3648
4014.00,1.3440
4013.00,1.3224
4012.00,1.3001
4011.00,1.2773
4010.00,1.2539
4009.00,1.2298
4008.00,1.2052
4007.00,1.1799
4006.00,1.1543
4005.00,1.1284
4004.00,1.1025
4003.00,1.0765
4002.00,1.0507
4001.00,1.0252
4000.00,1.0001
3999.00,0.9756
3998.00,0.9520
3997.00,0.9295
3996.00,0.9080
3995.00,0.8878
3994.00,0.8692
3993.00,0.8522
3992.00,0.8370
3991.00,0.8240
3990.00,0.8131
3989.00,0.8044
3988.00,0.7980
3987.00,0.7940
3986.00,0.7924
3985.00,0.7932
3984.00,0.7963
3983.00,0.8018
3982.00,0.8093
3981.00,0.8188
3980.00,0.8300
3979.00,0.8427
3978.00,0.8568
3977.00,0.8721
3976.00,0.8885
3975.00,0.9056
3974.00,0.9234
3973.00,0.9416
3972.00,0.9604
3971.00,0.9796
3970.00,0.9994
3969.00,1.0196
3968.00,1.0403
3967.00,1.0614
3966.00,1.0829
3965.00,1.1047
3964.00,1.1268
3963.00,1.1493
3962.00,1.1720
3961.00,1.1949
3960.00,1.2179
3959.00,1.2406
3958.00,1.2632
3957.00,1.2856
3956.00,1.3078
3955.00,1.3296
3954.00,1.3507
3953.00,1.3711
3952.00,1.3908
3951.00,1.4099
3950.00,1.4287
3949.00,1.4471
3948.00,1.4653
3947.00,1.4829
3946.00,1.4999
3945.00,1.5162
3944.00,1.5320
3943.00,1.5474
3942.00,1.5625
3941.00,1.5770
3940.00,1.5909
3939.00,1.6038
3938.00,1.6158
3937.00,1.6266
3936.00,1.6365
3935.00,1.6455
3934.00,1.6541
3933.00,1.6628
3932.00,1.6715
3931.00,1.6800
3930.00,1.6878
3929.00,1.6950
3928.00,1.7015
3927.00,1.7075
3926.00,1.7129
3925.00,1.7178
3924.00,1.7223
3923.00,1.7263
3922.00,1.7293
3921.00,1.7315
3920.00,1.7332
3919.00,1.7349
3918.00,1.7368
3917.00,1.7386
3916.00,1.7401
3915.00,1.7411
3914.00,1.7412
3913.00,1.7408
3912.00,1.7399
3911.00,1.7384
3910.00,1.7362
3909.00,1.7330
3908.00,1.7290
3907.00,1.7241
3906.00,1.7184
3905.00,1.7117
3904.00,1.7048
3903.00,1.6983
3902.00,1.6925
3901.00,1.6870
3900.00,1.6815
3899.00,1.6755
3898.00,1.6690
3897.00,1.6618
3896.00,1.6537
3895.00,1.6448
3894.00,1.6351
3893.00,1.6246
3892.00,1.6129
3891.00,1.5999
3890.00,1.5862
3889.00,1.5723
3888.00,1.5584
3887.00,1.5440
3886.00,1.5284
3885.00,1.5118
3884.00,1.4950
3883.00,1.4780
3882.00,1.4602
3881.00,1.4410
3880.00,1.4208
3879.00,1.4004
3878.00,1.3801
3877.00,1.3596
3876.00,1.3377
3875.00,1.3136
3874.00,1.2877
3873.00,1.2615
3872.00,1.2352
3871.00,1.2077
3870.00,1.1784
3869.00,1.1488
3868.00,1.1207
3867.00,1.0942
3866.00,1.0678
3865.00,1.0408
3864.00,1.0134
3863.00,0.9865
3862.00,0.9606
3861.00,0.9357
3860.00,0.9115
3859.00,0.8877
3858.00,0.8645
3857.00,0.8427
3856.00,0.8237
3855.00,0.8075
3854.00,0.7927
3853.00,0.7792
3852.00,0.7687
3851.00,0.7618
3850.00,0.7585
3849.00,0.7584
3848.00,0.7611
3847.00,0.7664
3846.00,0.7739
3845.00,0.7832
3844.00,0.7942
3843.00,0.8068
3842.00,0.8207
3841.00,0.8361
3840.00,0.8530
3839.00,0.8720
3838.00,0.8938
3837.00,0.9181
3836.00,0.9438
3835.00,0.9698
3834.00,0.9956
3833.00,1.0217
3832.00,1.0485
3831.00,1.0761
3830.00,1.1039
3829.00,1.1313
3828.00,1.1582
3827.00,1.1841
3826.00,1.2092
3825.00,1.2335
3824.00,1.2571
3823.00,1.2804
3822.00,1.3040
3821.00,1.3286
3820.00,1.3541
3819.00,1.3791
3818.00,1.4027
3817.00,1.4251
3816.00,1.4476
3815.00,1.4711
3814.00,1.4945
3813.00,1.5159
3812.00,1.5349
3811.00,1.5518
3810.00,1.5674
3809.00,1.5824
3808.00,1.5970
3807.00,1.6116
3806.00,1.6264
3805.00,1.6408
3804.00,1.6541
3803.00,1.6660
3802.00,1.6770
3801.00,1.6883
3800.00,1.7004
3799.00,1.7121
3798.00,1.7228
3797.00,1.7324
3796.00,1.7415
3795.00,1.7501
3794.00,1.7581
3793.00,1.7652
3792.00,1.7715
3791.00,1.7772
3790.00,1.7828
3789.00,1.7882
3788.00,1.7932
3787.00,1.7974
3786.00,1.8008
3785.00,1.8031
3784.00,1.8048
3783.00,1.8063
3782.00,1.8078
3781.00,1.8089
3780.00,1.8092
3779.00,1.8090
3778.00,1.8087
3777.00,1.8084
3776.00,1.8076
3775.00,1.8060
3774.00,1.8038
3773.00,1.8010
3772.00,1.7976
3771.00,1.7932
3770.00,1.7880
3769.00,1.7824
3768.00,1.7767
3767.00,1.7709
3766.00,1.7648
3765.00,1.7583
3764.00,1.7516
3763.00,1.7448
3762.00,1.7375
3761.00,1.7291
3760.00,1.7193
3759.00,1.7086
3758.00,1.6971
3757.00,1.6848
3756.00,1.6716
3755.00,1.6577
3754.00,1.6433
3753.00,1.6281
3752.00,1.6116
3751.00,1.5934
3750.00,1.5736
3749.00,1.5526
3748.00,1.5317
3747.00,1.5116
3746.00,1.4919
3745.00,1.4711
3744.00,1.4488
3743.00,1.4265
3742.00,1.4042
3741.00,1.3812
3740.00,1.3566
3739.00,1.3306
3738.00,1.3035
3737.00,1.2750
3736.00,1.2450
3735.00,1.2147
3734.00,1.1850
3733.00,1.1559
3732.00,1.1271
3731.00,1.0993
3730.00,1.0735
3729.00,1.0496
3728.00,1.0270
3727.00,1.0052
3726.00,0.9843
3725.00,0.9647
3724.00,0.9464
3723.00,0.9292
3722.00,0.9132
3721.00,0.8987
3720.00,0.8859
3719.00,0.8747
3718.00,0.8646
3717.00,0.8557
3716.00,0.8485
3715.00,0.8437
3714.00,0.8416
3713.00,0.8426
3712.00,0.8469
3711.00,0.8553
3710.00,0.8682
3709.00,0.8846
3708.00,0.9033
3707.00,0.9237
3706.00,0.9463
3705.00,0.9719
3704.00,1.0004
3703.00,1.0308
3702.00,1.0623
3701.00,1.0945
3700.00,1.1270
3699.00,1.1589
3698.00,1.1897
3697.00,1.2194
3696.00,1.2481
3695.00,1.2757
3694.00,1.3020
3693.00,1.3271
3692.00,1.3512
3691.00,1.3748
3690.00,1.3984
3689.00,1.4233
3688.00,1.4506
3687.00,1.4791
3686.00,1.5064
3685.00,1.5313
3684.00,1.5537
3683.00,1.5745
3682.00,1.5940
3681.00,1.6121
3680.00,1.6283
3679.00,1.6432
3678.00,1.6578
3677.00,1.6726
3676.00,1.6877
3675.00,1.7032
3674.00,1.7189
3673.00,1.7339
3672.00,1.7481
3671.00,1.7617
3670.00,1.7753
3669.00,1.7894
3668.00,1.8033
3667.00,1.8162
3666.00,1.8277
3665.00,1.8382
3664.00,1.8480
3663.00,1.8571
3662.00,1.8651
3661.00,1.8717
3660.00,1.8770
3659.00,1.8817
3658.00,1.8860
3657.00,1.8902
3656.00,1.8942
3655.00,1.8980
3654.00,1.9014
3653.00,1.9045
3652.00,1.9072
3651.00,1.9094
3650.00,1.9109
3649.00,1.9120
3648.00,1.9136
3647.00,1.9156
3646.00,1.9177
3645.00,1.9196
3644.00,1.9213
3643.00,1.9223
3642.00,1.9228
3641.00,1.9228
3640.00,1.9221
3639.00,1.9203
3638.00,1.9172
3637.00,1.9133
3636.00,1.9091
3635.00,1.9048
3634.00,1.8999
3633.00,1.8943
3632.00,1.8886
3631.00,1.8835
3630.00,1.8788
3629.00,1.8746
3628.00,1.8716
3627.00,1.8698
3626.00,1.8684
3625.00,1.8662
3624.00,1.8629
3623.00,1.8586
3622.00,1.8535
3621.00,1.8478
3620.00,1.8410
3619.00,1.8331
3618.00,1.8242
3617.00,1.8143
3616.00,1.8033
3615.00,1.7905
3614.00,1.7755
3613.00,1.7588
3612.00,1.7414
3611.00,1.7240
3610.00,1.7069
3609.00,1.6901
3608.00,1.6736
3607.00,1.6572
3606.00,1.6407
3605.00,1.6242
3604.00,1.6078
3603.00,1.5918
3602.00,1.5756
3601.00,1.5584
3600.00,1.5401
3599.00,1.5209
3598.00,1.5009
3597.00,1.4800
3596.00,1.4582
3595.00,1.4356
3594.00,1.4125
3593.00,1.3889
3592.00,1.3651
3591.00,1.3416
3590.00,1.3186
3589.00,1.2961
3588.00,1.2742
3587.00,1.2530
3586.00,1.2334
3585.00,1.2153
3584.00,1.1985
3583.00,1.1831
3582.00,1.1691
3581.00,1.1569
3580.00,1.1465
3579.00,1.1380
3578.00,1.1315
3577.00,1.1270
3576.00,1.1245
3575.00,1.1239
3574.00,1.1252
3573.00,1.1281
3572.00,1.1325
3571.00,1.1384
3570.00,1.1463
3569.00,1.1567
3568.00,1.1699
3567.00,1.1853
3566.00,1.2024
3565.00,1.2206
3564.00,1.2393
3563.00,1.2585
3562.00,1.2783
3561.00,1.2988
3560.00,1.3197
3559.00,1.3411
3558.00,1.3625
3557.00,1.3837
3556.00,1.4049
3555.00,1.4261
3554.00,1.4476
3553.00,1.4691
3552.00,1.4905
3551.00,1.5112
3550.00,1.5311
3549.00,1.5504
3548.00,1.5695
3547.00,1.5887
3546.00,1.6081
3545.00,1.6272
3544.00,1.6455
3543.00,1.6628
3542.00,1.6793
3541.00,1.6950
3540.00,1.7101
3539.00,1.7249
3538.00,1.7395
3537.00,1.7537
3536.00,1.7673
3535.00,1.7804
3534.00,1.7929
3533.00,1.8053
3532.00,1.8174
3531.00,1.8290
3530.00,1.8400
3529.00,1.8503
3528.00,1.8601
3527.00,1.8694
3526.00,1.8785
3525.00,1.8875
3524.00,1.8962
3523.00,1.9047
3522.00,1.9128
3521.00,1.9205
3520.00,1.9279
3519.00,1.9348
3518.00,1.9413
3517.00,1.9474
3516.00,1.9530
3515.00,1.9580
3514.00,1.9623
3513.00,1.9661
3512.00,1.9696
3511.00,1.9729
3510.00,1.9762
3509.00,1.9794
3508.00,1.9823
3507.00,1.9845
3506.00,1.9855
3505.00,1.9855
3504.00,1.9851
3503.00,1.9846
3502.00,1.9844
3501.00,1.9842
3500.00,1.9838
3499.00,1.9826
3498.00,1.9803
3497.00,1.9770
3496.00,1.9735
3495.00,1.9700
3494.00,1.9666
3493.00,1.9630
3492.00,1.9587
3491.00,1.9538
3490.00,1.9483
3489.00,1.9427
3488.00,1.9365
3487.00,1.9296
3486.00,1.9217
3485.00,1.9131
3484.00,1.9042
3483.00,1.8950
3482.00,1.8854
3481.00,1.8753
3480.00,1.8647
3479.00,1.8534
3478.00,1.8415
3477.00,1.8288
3476.00,1.8156
3475.00,1.8018
3474.00,1.7873
3473.00,1.7719
3472.00,1.7558
3471.00,1.7391
3470.00,1.7218
3469.00,1.7039
3468.00,1.6853
3467.00,1.6658
3466.00,1.6454
3465.00,1.6242
3464.00,1.6026
3463.00,1.5802
3462.00,1.5570
3461.00,1.5328
3460.00,1.5077
3459.00,1.4821
3458.00,1.4561
3457.00,1.4296
3456.00,1.4029
3455.00,1.3758
3454.00,1.3485
3453.00,1.3212
3452.00,1.2940
3451.00,1.2671
3450.00,1.2409
3449.00,1.2153
3448.00,1.1906
3447.00,1.1669
3446.00,1.1445
3445.00,1.1238
3444.00,1.1051
3443.00,1.0883
3442.00,1.0736
3441.00,1.0610
3440.00,1.0508
3439.00,1.0432
3438.00,1.0383
3437.00,1.0361
3436.00,1.0367
3435.00,1.0399
3434.00,1.0459
3433.00,1.0544
3432.00,1.0653
3431.00,1.0784
3430.00,1.0936
3429.00,1.1107
3428.00,1.1296
3427.00,1.1500
3426.00,1.1719
3425.00,1.1949
3424.00,1.2190
3423.00,1.2438
3422.00,1.2693
3421.00,1.2952
3420.00,1.3215
3419.00,1.3480
3418.00,1.3747
3417.00,1.4013
3416.00,1.4278
3415.00,1.4541
3414.00,1.4800
3413.00,1.5055
3412.00,1.5306
3411.00,1.5553
3410.00,1.5795
3409.00,1.6030
3408.00,1.6259
3407.00,1.6483
3406.00,1.6701
3405.00,1.6909
3404.00,1.7107
3403.00,1.7294
3402.00,1.7475
3401.00,1.7652
3400.00,1.7825
3399.00,1.7994
3398.00,1.8157
3397.00,1.8312
3396.00,1.8457
3395.00,1.8591
3394.00,1.8717
3393.00,1.8841
3392.00,1.8964
3391.00,1.9086
3390.00,1.9202
3389.00,1.9309
3388.00,1.9407
3387.00,1.9497
3386.00,1.9582
3385.00,1.9661
3384.00,1.9734
3383.00,1.9804
3382.00,1.9872
3381.00,1.9940
3380.00,2.0006
3379.00,2.0068
3378.00,2.0124
3377.00,2.0171
3376.00,2.0208
3375.00,2.0238
3374.00,2.0261
3373.00,2.0283
3372.00,2.0303
3371.00,2.0321
3370.00,2.0337
3369.00,2.0349
3368.00,2.0357
3367.00,2.0360
3366.00,2.0356
3365.00,2.0344
3364.00,2.0323
3363.00,2.0297
3362.00,2.0268
3361.00,2.0238
3360.00,2.0205
3359.00,2.0167
3358.00,2.0125
3357.00,2.0080
3356.00,2.0033
3355.00,1.9982
3354.00,1.9922
3353.00,1.9856
3352.00,1.9783
3351.00,1.9707
3350.00,1.9628
3349.00,1.9549
3348.00,1.9466
3347.00,1.9377
3346.00,1.9279
3345.00,1.9171
3344.00,1.9055
3343.00,1.8932
3342.00,1.8804
3341.00,1.8670
3340.00,1.8529
3339.00,1.8382
3338.00,1.8230
3337.00,1.8071
3336.00,1.7904
3335.00,1.7728
3334.00,1.7545
3333.00,1.7357
3332.00,1.7163
3331.00,1.6962
3330.00,1.6753
3329.00,1.6536
3328.00,1.6312
3327.00,1.6083
3326.00,1.5847
3325.00,1.5602
3324.00,1.5350
3323.00,1.5091
3322.00,1.4825
3321.00,1.4553
3320.00,1.4275
3319.00,1.3992
3318.00,1.3707
3317.00,1.3421
3316.00,1.3136
3315.00,1.2856
3314.00,1.2582
3313.00,1.2316
3312.00,1.2062
3311.00,1.1820
3310.00,1.1595
3309.00,1.1389
3308.00,1.1205
3307.00,1.1043
3306.00,1.0905
3305.00,1.0793
3304.00,1.0707
3303.00,1.0649
3302.00,1.0620
3301.00,1.0619
3300.00,1.0647
3299.00,1.0704
3298.00,1.0788
3297.00,1.0898
3296.00,1.1032
3295.00,1.1189
3294.00,1.1365
3293.00,1.1559
3292.00,1.1769
3291.00,1.1992
3290.00,1.2228
3289.00,1.2473
3288.00,1.2726
3287.00,1.2986
3286.00,1.3252
3285.00,1.3522
3284.00,1.3794
3283.00,1.4067
3282.00,1.4340
3281.00,1.4613
3280.00,1.4884
3279.00,1.5153
3278.00,1.5418
3277.00,1.5681
3276.00,1.5940
3275.00,1.6194
3274.00,1.6441
3273.00,1.6678
3272.00,1.6907
3271.00,1.7129
3270.00,1.7345
3269.00,1.7555
3268.00,1.7759
3267.00,1.7955
3266.00,1.8144
3265.00,1.8324
3264.00,1.8498
3263.00,1.8665
3262.00,1.8826
3261.00,1.8982
3260.00,1.9131
3259.00,1.9273
3258.00,1.9406
3257.00,1.9533
3256.00,1.9652
3255.00,1.9765
3254.00,1.9872
3253.00,1.9976
3252.00,2.0078
3251.00,2.0175
3250.00,2.0265
3249.00,2.0345
3248.00,2.0419
3247.00,2.0492
3246.00,2.0566
3245.00,2.0638
3244.00,2.0702
3243.00,2.0756
3242.00,2.0800
3241.00,2.0836
3240.00,2.0869
3239.00,2.0901
3238.00,2.0930
3237.00,2.0954
3236.00,2.0973
3235.00,2.0989
3234.00,2.1004
3233.00,2.1014
3232.00,2.1015
3231.00,2.1008
3230.00,2.0996
3229.00,2.0981
3228.00,2.0963
3227.00,2.0940
3226.00,2.0913
3225.00,2.0884
3224.00,2.0854
3223.00,2.0820
3222.00,2.0779
3221.00,2.0728
3220.00,2.0672
3219.00,2.0613
3218.00,2.0552
3217.00,2.0487
3216.00,2.0415
3215.00,2.0335
3214.00,2.0250
3213.00,2.0160
3212.00,2.0066
3211.00,1.9967
3210.00,1.9865
3209.00,1.9760
3208.00,1.9652
3207.00,1.9543
3206.00,1.9434
3205.00,1.9325
3204.00,1.9215
3203.00,1.9101
3202.00,1.8981
3201.00,1.8854
3200.00,1.8715
3199.00,1.8560
3198.00,1.8386
3197.00,1.8196
3196.00,1.7995
3195.00,1.7783
3194.00,1.7562
3193.00,1.7330
3192.00,1.7085
3191.00,1.6831
3190.00,1.6570
3189.00,1.6302
3188.00,1.6030
3187.00,1.5752
3186.00,1.5468
3185.00,1.5181
3184.00,1.4891
3183.00,1.4602
3182.00,1.4318
3181.00,1.4043
3180.00,1.3779
3179.00,1.3532
3178.00,1.3305
3177.00,1.3104
3176.00,1.2939
3175.00,1.2816
3174.00,1.2742
3173.00,1.2723
3172.00,1.2765
3171.00,1.2874
3170.00,1.3053
3169.00,1.3299
3168.00,1.3598
3167.00,1.3922
3166.00,1.4228
3165.00,1.4459
3164.00,1.4566
3163.00,1.4521
3162.00,1.4338
3161.00,1.4068
3160.00,1.3770
3159.00,1.3498
3158.00,1.3288
3157.00,1.3155
3156.00,1.3102
3155.00,1.3123
3154.00,1.3207
3153.00,1.3342
3152.00,1.3518
3151.00,1.3727
3150.00,1.3959
3149.00,1.4209
3148.00,1.4471
3147.00,1.4741
3146.00,1.5015
3145.00,1.5289
3144.00,1.5563
3143.00,1.5837
3142.00,1.6110
3141.00,1.6381
3140.00,1.6647
3139.00,1.6905
3138.00,1.7157
3137.00,1.7404
3136.00,1.7644
3135.00,1.7878
3134.00,1.8104
3133.00,1.8323
3132.00,1.8535
3131.00,1.8741
3130.00,1.8937
3129.00,1.9122
3128.00,1.9299
3127.00,1.9469
3126.00,1.9635
3125.00,1.9794
3124.00,1.9942
3123.00,2.0080
3122.00,2.0212
3121.00,2.0339
3120.00,2.0462
3119.00,2.0582
3118.00,2.0701
3117.00,2.0817
3116.00,2.0927
3115.00,2.1027
3114.00,2.1117
3113.00,2.1200
3112.00,2.1276
3111.00,2.1345
3110.00,2.1407
3109.00,2.1463
3108.00,2.1517
3107.00,2.1572
3106.00,2.1628
3105.00,2.1682
3104.00,2.1728
3103.00,2.1768
3102.00,2.1802
3101.00,2.1832
3100.00,2.1856
3099.00,2.1872
3098.00,2.1884
3097.00,2.1894
3096.00,2.1899
3095.00,2.1896
3094.00,2.1883
3093.00,2.1864
3092.00,2.1840
3091.00,2.1815
3090.00,2.1789
3089.00,2.1764
3088.00,2.1734
3087.00,2.1697
3086.00,2.1653
3085.00,2.1606
3084.00,2.1556
3083.00,2.1503
3082.00,2.1445
3081.00,2.1384
3080.00,2.1318
3079.00,2.1247
3078.00,2.1168
3077.00,2.1081
3076.00,2.0986
3075.00,2.0884
3074.00,2.0778
3073.00,2.0666
3072.00,2.0550
3071.00,2.0431
3070.00,2.0310
3069.00,2.0186
3068.00,2.0053
3067.00,1.9910
3066.00,1.9758
3065.00,1.9598
3064.00,1.9432
3063.00,1.9259
3062.00,1.9081
3061.00,1.8899
3060.00,1.8712
3059.00,1.8521
3058.00,1.8324
3057.00,1.8120
3056.00,1.7909
3055.00,1.7692
3054.00,1.7470
3053.00,1.7243
3052.00,1.7010
3051.00,1.6774
3050.00,1.6538
3049.00,1.6303
3048.00,1.6073
3047.00,1.5847
3046.00,1.5628
3045.00,1.5417
3044.00,1.5217
3043.00,1.5028
3042.00,1.4853
3041.00,1.4694
3040.00,1.4554
3039.00,1.4436
3038.00,1.4342
3037.00,1.4273
3036.00,1.4231
3035.00,1.4215
3034.00,1.4226
3033.00,1.4264
3032.00,1.4329
3031.00,1.4419
3030.00,1.4534
3029.00,1.4672
3028.00,1.4830
3027.00,1.5009
3026.00,1.5207
3025.00,1.5422
3024.00,1.5651
3023.00,1.5892
3022.00,1.6143
3021.00,1.6403
3020.00,1.6670
3019.00,1.6944
3018.00,1.7223
3017.00,1.7505
3016.00,1.7785
3015.00,1.8058
3014.00,1.8323
3013.00,1.8579
3012.00,1.8830
3011.00,1.9077
3010.00,1.9316
3009.00,1.9544
3008.00,1.9758
3007.00,1.9954
3006.00,2.0132
3005.00,2.0289
3004.00,2.0426
3003.00,2.0544
3002.00,2.0645
3001.00,2.0732
3000.00,2.0807
2999.00,2.0871
2998.00,2.0926
2997.00,2.0977
2996.00,2.1029
2995.00,2.1088
2994.00,2.1153
2993.00,2.1225
2992.00,2.1300
2991.00,2.1380
2990.00,2.1468
2989.00,2.1565
2988.00,2.1671
2987.00,2.1784
2986.00,2.1900
2985.00,2.2016
2984.00,2.2130
2983.00,2.2244
2982.00,2.2358
2981.00,2.2473
2980.00,2.2588
2979.00,2.2701
2978.00,2.2811
2977.00,2.2917
2976.00,2.3025
2975.00,2.3135
2974.00,2.3241
2973.00,2.3333
2972.00,2.3412
2971.00,2.3487
2970.00,2.3571
2969.00,2.3666
2968.00,2.3762
2967.00,2.3849
2966.00,2.3926
2965.00,2.3993
2964.00,2.4052
2963.00,2.4107
2962.00,2.4161
2961.00,2.4214
2960.00,2.4266
2959.00,2.4318
2958.00,2.4378
2957.00,2.4450
2956.00,2.4538
2955.00,2.4638
2954.00,2.4747
2953.00,2.4861
2952.00,2.4979
2951.00,2.5103
2950.00,2.5236
2949.00,2.5375
2948.00,2.5521
2947.00,2.5676
2946.00,2.5832
2945.00,2.5969
2944.00,2.6060
2943.00,2.6089
2942.00,2.6054
2941.00,2.5956
2940.00,2.5802
2939.00,2.5610
2938.00,2.5413
2937.00,2.5233
2936.00,2.5071
2935.00,2.4920
2934.00,2.4772
2933.00,2.4628
2932.00,2.4487
2931.00,2.4354
2930.00,2.4233
2929.00,2.4123
2928.00,2.4018
2927.00,2.3909
2926.00,2.3794
2925.00,2.3672
2924.00,2.3541
2923.00,2.3400
2922.00,2.3256
2921.00,2.3114
2920.00,2.2974
2919.00,2.2830
2918.00,2.2677
2917.00,2.2517
2916.00,2.2351
2915.00,2.2184
2914.00,2.2020
2913.00,2.1859
2912.00,2.1697
2911.00,2.1529
2910.00,2.1351
2909.00,2.1162
2908.00,2.0963
2907.00,2.0758
2906.00,2.0551
2905.00,2.0342
2904.00,2.0128
2903.00,1.9905
2902.00,1.9670
2901.00,1.9426
2900.00,1.9173
2899.00,1.8912
2898.00,1.8644
2897.00,1.8371
2896.00,1.8094
2895.00,1.7812
2894.00,1.7527
2893.00,1.7243
2892.00,1.6966
2891.00,1.6700
2890.00,1.6448
2889.00,1.6214
2888.00,1.6006
2887.00,1.5828
2886.00,1.5684
2885.00,1.5577
2884.00,1.5507
2883.00,1.5477
2882.00,1.5490
2881.00,1.5546
2880.00,1.5643
2879.00,1.5780
2878.00,1.5953
2877.00,1.6160
2876.00,1.6393
2875.00,1.6641
2874.00,1.6894
2873.00,1.7139
2872.00,1.7367
2871.00,1.7567
2870.00,1.7733
2869.00,1.7857
2868.00,1.7941
2867.00,1.7992
2866.00,1.8020
2865.00,1.8032
2864.00,1.8029
2863.00,1.8009
2862.00,1.7974
2861.00,1.7931
2860.00,1.7889
2859.00,1.7855
2858.00,1.7834
2857.00,1.7834
2856.00,1.7862
2855.00,1.7922
2854.00,1.8018
2853.00,1.8146
2852.00,1.8303
2851.00,1.8482
2850.00,1.8681
2849.00,1.8897
2848.00,1.9124
2847.00,1.9357
2846.00,1.9590
2845.00,1.9823
2844.00,2.0053
2843.00,2.0276
2842.00,2.0489
2841.00,2.0689
2840.00,2.0878
2839.00,2.1060
2838.00,2.1238
2837.00,2.1411
2836.00,2.1577
2835.00,2.1730
2834.00,2.1873
2833.00,2.2010
2832.00,2.2144
2831.00,2.2274
2830.00,2.2396
2829.00,2.2506
2828.00,2.2606
2827.00,2.2700
2826.00,2.2790
2825.00,2.2878
2824.00,2.2961
2823.00,2.3041
2822.00,2.3120
2821.00,2.3197
2820.00,2.3268
2819.00,2.3328
2818.00,2.3377
2817.00,2.3421
2816.00,2.3463
2815.00,2.3500
2814.00,2.3526
2813.00,2.3542
2812.00,2.3554
2811.00,2.3568
2810.00,2.3584
2809.00,2.3600
2808.00,2.3609
2807.00,2.3610
2806.00,2.3602
2805.00,2.3590
2804.00,2.3575
2803.00,2.3554
2802.00,2.3525
2801.00,2.3489
2800.00,2.3447
2799.00,2.3398
2798.00,2.3338
2797.00,2.3271
2796.00,2.3202
2795.00,2.3133
2794.00,2.3061
2793.00,2.2981
2792.00,2.2892
2791.00,2.2796
2790.00,2.2696
2789.00,2.2593
2788.00,2.2484
2787.00,2.2369
2786.00,2.2246
2785.00,2.2117
2784.00,2.1983
2783.00,2.1844
2782.00,2.1696
2781.00,2.1536
2780.00,2.1365
2779.00,2.1180
2778.00,2.0985
2777.00,2.0784
2776.00,2.0580
2775.00,2.0370
2774.00,2.0146
2773.00,1.9904
2772.00,1.9646
2771.00,1.9376
2770.00,1.9096
2769.00,1.8806
2768.00,1.8503
2767.00,1.8184
2766.00,1.7848
2765.00,1.7496
2764.00,1.7128
2763.00,1.6745
2762.00,1.6348
2761.00,1.5939
2760.00,1.5519
2759.00,1.5091
2758.00,1.4660
2757.00,1.4231
2756.00,1.3807
2755.00,1.3393
2754.00,1.2996
2753.00,1.2623
2752.00,1.2279
2751.00,1.1970
2750.00,1.1700
2749.00,1.1473
2748.00,1.1294
2747.00,1.1166
2746.00,1.1092
2745.00,1.1073
2744.00,1.1108
2743.00,1.1197
2742.00,1.1336
2741.00,1.1523
2740.00,1.1752
2739.00,1.2018
2738.00,1.2316
2737.00,1.2641
2736.00,1.2986
2735.00,1.3348
2734.00,1.3722
2733.00,1.4104
2732.00,1.4492
2731.00,1.4884
2730.00,1.5277
2729.00,1.5669
2728.00,1.6060
2727.00,1.6445
2726.00,1.6824
2725.00,1.7196
2724.00,1.7561
2723.00,1.7918
2722.00,1.8266
2721.00,1.8606
2720.00,1.8934
2719.00,1.9248
2718.00,1.9545
2717.00,1.9827
2716.00,2.0102
2715.00,2.0368
2714.00,2.0622
2713.00,2.0860
2712.00,2.1085
2711.00,2.1301
2710.00,2.1511
2709.00,2.1710
2708.00,2.1898
2707.00,2.2073
2706.00,2.2241
2705.00,2.2400
2704.00,2.2550
2703.00,2.2690
2702.00,2.2824
2701.00,2.2957
2700.00,2.3088
2699.00,2.3212
2698.00,2.3326
2697.00,2.3435
2696.00,2.3541
2695.00,2.3645
2694.00,2.3740
2693.00,2.3828
2692.00,2.3908
2691.00,2.3983
2690.00,2.4049
2689.00,2.4103
2688.00,2.4148
2687.00,2.4188
2686.00,2.4229
2685.00,2.4274
2684.00,2.4321
2683.00,2.4365
2682.00,2.4399
2681.00,2.4422
2680.00,2.4432
2679.00,2.4435
2678.00,2.4436
2677.00,2.4440
2676.00,2.4448
2675.00,2.4455
2674.00,2.4456
2673.00,2.4451
2672.00,2.4442
2671.00,2.4430
2670.00,2.4414
2669.00,2.4387
2668.00,2.4348
2667.00,2.4297
2666.00,2.4240
2665.00,2.4182
2664.00,2.4124
2663.00,2.4063
2662.00,2.3998
2661.00,2.3926
2660.00,2.3844
2659.00,2.3752
2658.00,2.3651
2657.00,2.3548
2656.00,2.3447
2655.00,2.3344
2654.00,2.3232
2653.00,2.3108
2652.00,2.2974
2651.00,2.2833
2650.00,2.2684
2649.00,2.2524
2648.00,2.2355
2647.00,2.2177
2646.00,2.1991
2645.00,2.1796
2644.00,2.1591
2643.00,2.1379
2642.00,2.1159
2641.00,2.0930
2640.00,2.0686
2639.00,2.0427
2638.00,2.0152
2637.00,1.9864
2636.00,1.9561
2635.00,1.9248
2634.00,1.8931
2633.00,1.8619
2632.00,1.8322
2631.00,1.8053
2630.00,1.7813
2629.00,1.7593
2628.00,1.7372
2627.00,1.7124
2626.00,1.6830
2625.00,1.6483
2624.00,1.6088
2623.00,1.5657
2622.00,1.5206
2621.00,1.4750
2620.00,1.4298
2619.00,1.3858
2618.00,1.3434
2617.00,1.3034
2616.00,1.2664
2615.00,1.2331
2614.00,1.2044
2613.00,1.1809
2612.00,1.1630
2611.00,1.1514
2610.00,1.1463
2609.00,1.1480
2608.00,1.1563
2607.00,1.1709
2606.00,1.1913
2605.00,1.2170
2604.00,1.2473
2603.00,1.2814
2602.00,1.3184
2601.00,1.3579
2600.00,1.3991
2599.00,1.4415
2598.00,1.4848
2597.00,1.5286
2596.00,1.5724
2595.00,1.6160
2594.00,1.6592
2593.00,1.7019
2592.00,1.7438
2591.00,1.7847
2590.00,1.8243
2589.00,1.8628
2588.00,1.9001
2587.00,1.9364
2586.00,1.9714
2585.00,2.0047
2584.00,2.0359
2583.00,2.0651
2582.00,2.0927
2581.00,2.1196
2580.00,2.1458
2579.00,2.1712
2578.00,2.1951
2577.00,2.2174
2576.00,2.2383
2575.00,2.2581
2574.00,2.2772
2573.00,2.2956
2572.00,2.3131
2571.00,2.3294
2570.00,2.3444
2569.00,2.3585
2568.00,2.3726
2567.00,2.3872
2566.00,2.4018
2565.00,2.4157
2564.00,2.4279
2563.00,2.4383
2562.00,2.4476
2561.00,2.4563
2560.00,2.4646
2559.00,2.4726
2558.00,2.4804
2557.00,2.4880
2556.00,2.4950
2555.00,2.5011
2554.00,2.5060
2553.00,2.5103
2552.00,2.5147
2551.00,2.5196
2550.00,2.5249
2549.00,2.5299
2548.00,2.5341
2547.00,2.5376
2546.00,2.5412
2545.00,2.5445
2544.00,2.5467
2543.00,2.5474
2542.00,2.5469
2541.00,2.5457
2540.00,2.5438
2539.00,2.5408
2538.00,2.5371
2537.00,2.5336
2536.00,2.5311
2535.00,2.5292
2534.00,2.5273
2533.00,2.5253
2532.00,2.5231
2531.00,2.5201
2530.00,2.5155
2529.00,2.5092
2528.00,2.5020
2527.00,2.4950
2526.00,2.4880
2525.00,2.4800
2524.00,2.4703
2523.00,2.4592
2522.00,2.4481
2521.00,2.4379
2520.00,2.4285
2519.00,2.4189
2518.00,2.4080
2517.00,2.3950
2516.00,2.3801
2515.00,2.3641
2514.00,2.3474
2513.00,2.3301
2512.00,2.3123
2511.00,2.2944
2510.00,2.2765
2509.00,2.2580
2508.00,2.2381
2507.00,2.2164
2506.00,2.1932
2505.00,2.1689
2504.00,2.1436
2503.00,2.1172
2502.00,2.0893
2501.00,2.0597
2500.00,2.0286
2499.00,1.9959
2498.00,1.9617
2497.00,1.9259
2496.00,1.8885
2495.00,1.8495
2494.00,1.8089
2493.00,1.7668
2492.00,1.7231
2491.00,1.6782
2490.00,1.6325
2489.00,1.5864
2488.00,1.5407
2487.00,1.4958
2486.00,1.4522
2485.00,1.4106
2484.00,1.3715
2483.00,1.3357
2482.00,1.3039
2481.00,1.2765
2480.00,1.2539
2479.00,1.2368
2478.00,1.2253
2477.00,1.2200
2476.00,1.2208
2475.00,1.2278
2474.00,1.2409
2473.00,1.2597
2472.00,1.2838
2471.00,1.3125
2470.00,1.3450
2469.00,1.3808
2468.00,1.4194
2467.00,1.4601
2466.00,1.5025
2465.00,1.5460
2464.00,1.5902
2463.00,1.6345
2462.00,1.6785
2461.00,1.7224
2460.00,1.7661
2459.00,1.8093
2458.00,1.8518
2457.00,1.8935
2456.00,1.9338
2455.00,1.9725
2454.00,2.0091
2453.00,2.0441
2452.00,2.0780
2451.00,2.1110
2450.00,2.1430
2449.00,2.1734
2448.00,2.2018
2447.00,2.2282
2446.00,2.2528
2445.00,2.2760
2444.00,2.2984
2443.00,2.3203
2442.00,2.3417
2441.00,2.3623
2440.00,2.3816
2439.00,2.3995
2438.00,2.4162
2437.00,2.4318
2436.00,2.4472
2435.00,2.4627
2434.00,2.4785
2433.00,2.4939
2432.00,2.5076
2431.00,2.5190
2430.00,2.5286
2429.00,2.5376
2428.00,2.5467
2427.00,2.5563
2426.00,2.5662
2425.00,2.5757
2424.00,2.5841
2423.00,2.5913
2422.00,2.5983
2421.00,2.6057
2420.00,2.6128
2419.00,2.6186
2418.00,2.6233
2417.00,2.6283
2416.00,2.6337
2415.00,2.6386
2414.00,2.6422
2413.00,2.6445
2412.00,2.6462
2411.00,2.6475
2410.00,2.6491
2409.00,2.6515
2408.00,2.6542
2407.00,2.6565
2406.00,2.6573
2405.00,2.6561
2404.00,2.6524
2403.00,2.6470
2402.00,2.6417
2401.00,2.6383
2400.00,2.6366
2399.00,2.6347
2398.00,2.6320
2397.00,2.6290
2396.00,2.6263
2395.00,2.6232
2394.00,2.6183
2393.00,2.6117
2392.00,2.6040
2391.00,2.5955
2390.00,2.5864
2389.00,2.5770
2388.00,2.5674
2387.00,2.5573
2386.00,2.5465
2385.00,2.5351
2384.00,2.5234
2383.00,2.5115
2382.00,2.4972
2381.00,2.4859
2380.00,2.4659
2379.00,2.4595
2378.00,2.4272
2377.00,2.4402
2376.00,2.3501
2375.00,1.9908
2374.00,1.9624
2373.00,1.9207
2372.00,1.8993
2371.00,1.8809
2370.00,1.8693
2369.00,1.8566
2368.00,1.8416
2367.00,1.8235
2366.00,1.8034
2365.00,1.7816
2364.00,1.7597
2363.00,1.7401
2362.00,1.7220
2361.00,1.7031
2360.00,1.6852
2359.00,1.6684
2358.00,1.6492
2357.00,1.6279
2356.00,1.6052
2355.00,1.5856
2354.00,1.5730
2353.00,1.5636
2352.00,1.5586
2351.00,1.5545
2350.00,1.5466
2349.00,1.5286
2348.00,1.5095
2347.00,1.5101
2346.00,1.5237
2345.00,1.5288
2344.00,1.5110
2343.00,1.4843
2342.00,1.4769
2341.00,1.4910
2340.00,1.5164
2339.00,1.5296
2338.00,1.5304
2337.00,1.5296
2336.00,1.5328
2335.00,1.5423
2334.00,1.5523
2333.00,1.5631
2332.00,1.5722
2331.00,1.5826
2330.00,1.5887
2329.00,1.5932
2328.00,1.5942
2327.00,1.6060
2326.00,1.6233
2325.00,1.6538
2324.00,1.6869
2323.00,1.7190
2322.00,1.7426
2321.00,1.7572
2320.00,1.7718
2319.00,1.7933
2318.00,1.8186
2317.00,1.8534
2316.00,1.8756
2315.00,1.9342
2314.00,2.4609
2313.00,2.4259
2312.00,2.4772
2311.00,2.4894
2310.00,2.5234
2309.00,2.5431
2308.00,2.5680
2307.00,2.5885
2306.00,2.6087
2305.00,2.6291
2304.00,2.6463
2303.00,2.6687
2302.00,2.6821
2301.00,2.7144
2300.00,2.7010
2299.00,2.4448
2298.00,2.5043
2297.00,2.5425
2296.00,2.5874
2295.00,2.6212
2294.00,2.6491
2293.00,2.6664
2292.00,2.6761
2291.00,2.6808
2290.00,2.6822
2289.00,2.6821
2288.00,2.6810
2287.00,2.6806
2286.00,2.6826
2285.00,2.6867
2284.00,2.6913
2283.00,2.6945
2282.00,2.6970
2281.00,2.7015
2280.00,2.7103
2279.00,2.7225
2278.00,2.7349
2277.00,2.7445
2276.00,2.7513
2275.00,2.7567
2274.00,2.7611
2273.00,2.7631
2272.00,2.7611
2271.00,2.7554
2270.00,2.7462
2269.00,2.7345
2268.00,2.7205
2267.00,2.7052
2266.00,2.6884
2265.00,2.6690
2264.00,2.6467
2263.00,2.6234
2262.00,2.6045
2261.00,2.5980
2260.00,2.6133
2259.00,2.6599
2258.00,2.7461
2257.00,2.8775
2256.00,3.0553
2255.00,3.2709
2254.00,3.4942
2253.00,3.6524
2252.00,3.6655
2251.00,3.5577
2250.00,3.4118
2249.00,3.2726
2248.00,3.1538
2247.00,3.0580
2246.00,2.9837
2245.00,2.9271
2244.00,2.8842
2243.00,2.8518
2242.00,2.8279
2241.00,2.8106
2240.00,2.7975
2239.00,2.7869
2238.00,2.7778
2237.00,2.7685
2236.00,2.7572
2235.00,2.7434
2234.00,2.7283
2233.00,2.7132
2232.00,2.6975
2231.00,2.6794
2230.00,2.6590
2229.00,2.6382
2228.00,2.6185
2227.00,2.5992
2226.00,2.5780
2225.00,2.5542
2224.00,2.5284
2223.00,2.5017
2222.00,2.4741
2221.00,2.4449
2220.00,2.4140
2219.00,2.3816
2218.00,2.3476
2217.00,2.3117
2216.00,2.2735
2215.00,2.2331
2214.00,2.1908
2213.00,2.1466
2212.00,2.0999
2211.00,2.0503
2210.00,1.9982
2209.00,1.9447
2208.00,1.8914
2207.00,1.8400
2206.00,1.7921
2205.00,1.7479
2204.00,1.7055
2203.00,1.6617
2202.00,1.6146
2201.00,1.5644
2200.00,1.5139
2199.00,1.4663
2198.00,1.4243
2197.00,1.3898
2196.00,1.3643
2195.00,1.3488
2194.00,1.3439
2193.00,1.3497
2192.00,1.3658
2191.00,1.3911
2190.00,1.4244
2189.00,1.4643
2188.00,1.5094
2187.00,1.5582
2186.00,1.6096
2185.00,1.6627
2184.00,1.7169
2183.00,1.7712
2182.00,1.8251
2181.00,1.8779
2180.00,1.9293
2179.00,1.9793
2178.00,2.0278
2177.00,2.0748
2176.00,2.1199
2175.00,2.1628
2174.00,2.2029
2173.00,2.2403
2172.00,2.2757
2171.00,2.3100
2170.00,2.3432
2169.00,2.3751
2168.00,2.4053
2167.00,2.4339
2166.00,2.4609
2165.00,2.4867
2164.00,2.5114
2163.00,2.5353
2162.00,2.5581
2161.00,2.5785
2160.00,2.5959
2159.00,2.6113
2158.00,2.6264
2157.00,2.6423
2156.00,2.6594
2155.00,2.6769
2154.00,2.6935
2153.00,2.7078
2152.00,2.7194
2151.00,2.7300
2150.00,2.7411
2149.00,2.7527
2148.00,2.7631
2147.00,2.7717
2146.00,2.7796
2145.00,2.7879
2144.00,2.7966
2143.00,2.8050
2142.00,2.8123
2141.00,2.8181
2140.00,2.8217
2139.00,2.8235
2138.00,2.8252
2137.00,2.8287
2136.00,2.8339
2135.00,2.8390
2134.00,2.8422
2133.00,2.8441
2132.00,2.8463
2131.00,2.8491
2130.00,2.8512
2129.00,2.8509
2128.00,2.8493
2127.00,2.8488
2126.00,2.8507
2125.00,2.8535
2124.00,2.8545
2123.00,2.8523
2122.00,2.8474
2121.00,2.8411
2120.00,2.8342
2119.00,2.8272
2118.00,2.8208
2117.00,2.8155
2116.00,2.8111
2115.00,2.8071
2114.00,2.8030
2113.00,2.7982
2112.00,2.7923
2111.00,2.7848
2110.00,2.7748
2109.00,2.7621
2108.00,2.7476
2107.00,2.7331
2106.00,2.7204
2105.00,2.7091
2104.00,2.6980
2103.00,2.6854
2102.00,2.6705
2101.00,2.6535
2100.00,2.6348
2099.00,2.6157
2098.00,2.5972
2097.00,2.5792
2096.00,2.5604
2095.00,2.5396
2094.00,2.5164
2093.00,2.4916
2092.00,2.4662
2091.00,2.4404
2090.00,2.4137
2089.00,2.3855
2088.00,2.3553
2087.00,2.3231
2086.00,2.2889
2085.00,2.2528
2084.00,2.2147
2083.00,2.1745
2082.00,2.1320
2081.00,2.0873
2080.00,2.0404
2079.00,1.9917
2078.00,1.9412
2077.00,1.8894
2076.00,1.8369
2075.00,1.7846
2074.00,1.7337
2073.00,1.6849
2072.00,1.6386
2071.00,1.5952
2070.00,1.5552
2069.00,1.5191
2068.00,1.4873
2067.00,1.4603
2066.00,1.4387
2065.00,1.4237
2064.00,1.4157
2063.00,1.4150
2062.00,1.4217
2061.00,1.4362
2060.00,1.4584
2059.00,1.4876
2058.00,1.5228
2057.00,1.5632
2056.00,1.6079
2055.00,1.6560
2054.00,1.7067
2053.00,1.7591
2052.00,1.8125
2051.00,1.8660
2050.00,1.9192
2049.00,1.9717
2048.00,2.0234
2047.00,2.0739
2046.00,2.1226
2045.00,2.1690
2044.00,2.2127
2043.00,2.2542
2042.00,2.2938
2041.00,2.3319
2040.00,2.3683
2039.00,2.4028
2038.00,2.4353
2037.00,2.4658
2036.00,2.4945
2035.00,2.5220
2034.00,2.5490
2033.00,2.5753
2032.00,2.6000
2031.00,2.6226
2030.00,2.6438
2029.00,2.6647
2028.00,2.6852
2027.00,2.7042
2026.00,2.7213
2025.00,2.7371
2024.00,2.7526
2023.00,2.7679
2022.00,2.7827
2021.00,2.7974
2020.00,2.8127
2019.00,2.8283
2018.00,2.8425
2017.00,2.8530
2016.00,2.8595
2015.00,2.8636
2014.00,2.8677
2013.00,2.8735
2012.00,2.8815
2011.00,2.8909
2010.00,2.9011
2009.00,2.9117
2008.00,2.9227
2007.00,2.9335
2006.00,2.9427
2005.00,2.9485
2004.00,2.9505
2003.00,2.9505
2002.00,2.9511
2001.00,2.9538
2000.00,2.9573
1999.00,2.9591
1998.00,2.9586
1997.00,2.9572
1996.00,2.9557
1995.00,2.9535
1994.00,2.9497
1993.00,2.9455
1992.00,2.9434
1991.00,2.9446
1990.00,2.9474
1989.00,2.9484
1988.00,2.9455
1987.00,2.9396
1986.00,2.9331
1985.00,2.9287
1984.00,2.9271
1983.00,2.9265
1982.00,2.9233
1981.00,2.9159
1980.00,2.9060
1979.00,2.8969
1978.00,2.8907
1977.00,2.8858
1976.00,2.8786
1975.00,2.8671
1974.00,2.8532
1973.00,2.8404
1972.00,2.8302
1971.00,2.8208
1970.00,2.8096
1969.00,2.7958
1968.00,2.7800
1967.00,2.7640
1966.00,2.7486
1965.00,2.7337
1964.00,2.7176
1963.00,2.6992
1962.00,2.6788
1961.00,2.6576
1960.00,2.6364
1959.00,2.6143
1958.00,2.5904
1957.00,2.5644
1956.00,2.5367
1955.00,2.5076
1954.00,2.4774
1953.00,2.4463
1952.00,2.4141
1951.00,2.3803
1950.00,2.3444
1949.00,2.3066
1948.00,2.2671
1947.00,2.2253
1946.00,2.1794
1945.00,2.1286
1944.00,2.0736
1943.00,2.0162
1942.00,1.9575
1941.00,1.8976
1940.00,1.8364
1939.00,1.7743
1938.00,1.7135
1937.00,1.6556
1936.00,1.6017
1935.00,1.5528
1934.00,1.5104
1933.00,1.4760
1932.00,1.4502
1931.00,1.4340
1930.00,1.4279
1929.00,1.4327
1928.00,1.4486
1927.00,1.4750
1926.00,1.5099
1925.00,1.5510
1924.00,1.5981
1923.00,1.6506
1922.00,1.7060
1921.00,1.7596
1920.00,1.8100
1919.00,1.8616
1918.00,1.9194
1917.00,1.9821
1916.00,2.0436
1915.00,2.0999
1914.00,2.1527
1913.00,2.2042
1912.00,2.2547
1911.00,2.3029
1910.00,2.3477
1909.00,2.3891
1908.00,2.4267
1907.00,2.4612
1906.00,2.4940
1905.00,2.5255
1904.00,2.5561
1903.00,2.5856
1902.00,2.6144
1901.00,2.6423
1900.00,2.6690
1899.00,2.6947
1898.00,2.7193
1897.00,2.7427
1896.00,2.7655
1895.00,2.7884
1894.00,2.8099
1893.00,2.8273
1892.00,2.8406
1891.00,2.8545
1890.00,2.8723
1889.00,2.8919
1888.00,2.9088
1887.00,2.9214
1886.00,2.9319
1885.00,2.9429
1884.00,2.9541
1883.00,2.9642
1882.00,2.9730
1881.00,2.9821
1880.00,2.9924
1879.00,3.0030
1878.00,3.0124
1877.00,3.0189
1876.00,3.0238
1875.00,3.0299
1874.00,3.0370
1873.00,3.0422
1872.00,3.0446
1871.00,3.0484
1870.00,3.0565
1869.00,3.0653
1868.00,3.0709
1867.00,3.0744
1866.00,3.0767
1865.00,3.0762
1864.00,3.0730
1863.00,3.0713
1862.00,3.0737
1861.00,3.0778
1860.00,3.0789
1859.00,3.0760
1858.00,3.0711
1857.00,3.0659
1856.00,3.0607
1855.00,3.0558
1854.00,3.0512
1853.00,3.0472
1852.00,3.0429
1851.00,3.0385
1850.00,3.0358
1849.00,3.0354
1848.00,3.0341
1847.00,3.0273
1846.00,3.0140
1845.00,2.9994
1844.00,2.9900
1843.00,2.9872
1842.00,2.9852
1841.00,2.9784
1840.00,2.9666
1839.00,2.9533
1838.00,2.9393
1837.00,2.9229
1836.00,2.9061
1835.00,2.8926
1834.00,2.8817
1833.00,2.8691
1832.00,2.8536
1831.00,2.8390
1830.00,2.8261
1829.00,2.8097
1828.00,2.7847
1827.00,2.7521
1826.00,2.7201
1825.00,2.6951
1824.00,2.6741
1823.00,2.6505
1822.00,2.6206
1821.00,2.5860
1820.00,2.5493
1819.00,2.5123
1818.00,2.4756
1817.00,2.4386
1816.00,2.4004
1815.00,2.3604
1814.00,2.3188
1813.00,2.2757
1812.00,2.2300
1811.00,2.1804
1810.00,2.1265
1809.00,2.0700
1808.00,2.0134
1807.00,1.9574
1806.00,1.9011
1805.00,1.8434
1804.00,1.7863
1803.00,1.7343
1802.00,1.6927
1801.00,1.6626
1800.00,1.6419
1799.00,1.6297
1798.00,1.6276
1797.00,1.6380
1796.00,1.6593
1795.00,1.6863
1794.00,1.7177
1793.00,1.7569
1792.00,1.8062
1791.00,1.8643
1790.00,1.9260
1789.00,1.9852
1788.00,2.0391
1787.00,2.0893
1786.00,2.1420
1785.00,2.2029
1784.00,2.2707
1783.00,2.3364
1782.00,2.3940
1781.00,2.4450
1780.00,2.4931
1779.00,2.5391
1778.00,2.5830
1777.00,2.6286
1776.00,2.6776
1775.00,2.7254
1774.00,2.7678
1773.00,2.8042
1772.00,2.8297
1771.00,2.8415
1770.00,2.8439
1769.00,2.8471
1768.00,2.8625
1767.00,2.8904
1766.00,2.9204
1765.00,2.9438
1764.00,2.9613
1763.00,2.9797
1762.00,3.0043
1761.00,3.0337
1760.00,3.0609
1759.00,3.0783
1758.00,3.0865
1757.00,3.0965
1756.00,3.1149
1755.00,3.1357
1754.00,3.1501
1753.00,3.1595
1752.00,3.1734
1751.00,3.1948
1750.00,3.2149
1749.00,3.2266
1748.00,3.2328
1747.00,3.2374
1746.00,3.2418
1745.00,3.2458
1744.00,3.2481
1743.00,3.2462
1742.00,3.2398
1741.00,3.2347
1740.00,3.2410
1739.00,3.2613
1738.00,3.2840
1737.00,3.2960
1736.00,3.2961
1735.00,3.2977
1734.00,3.3044
1733.00,3.3053
1732.00,3.2932
1731.00,3.2716
1730.00,3.2488
1729.00,3.2306
1728.00,3.2168
1727.00,3.2041
1726.00,3.1935
1725.00,3.1879
1724.00,3.1901
1723.00,3.2011
1722.00,3.2189
1721.00,3.2436
1720.00,3.2818
1719.00,3.3404
1718.00,3.4089
1717.00,3.4665
1716.00,3.5099
1715.00,3.5526
1714.00,3.6102
1713.00,3.6881
1712.00,3.7791
1711.00,3.8705
1710.00,3.9519
1709.00,4.0179
1708.00,4.0588
1707.00,4.0535
1706.00,3.9946
1705.00,3.9116
1704.00,3.8230
1703.00,3.7197
1702.00,3.6016
1701.00,3.5092
1700.00,3.4723
1699.00,3.4680
1698.00,3.4571
1697.00,3.4233
1696.00,3.3810
1695.00,3.3495
1694.00,3.3230
1693.00,3.2945
1692.00,3.2717
1691.00,3.2588
1690.00,3.2525
1689.00,3.2519
1688.00,3.2584
1687.00,3.2654
1686.00,3.2597
1685.00,3.2325
1684.00,3.1808
1683.00,3.1282
1682.00,3.0901
1681.00,3.0606
1680.00,3.0354
1679.00,3.0103
1678.00,2.9793
1677.00,2.9427
1676.00,2.9139
1675.00,2.9011
1674.00,2.8941
1673.00,2.8766
1672.00,2.8445
1671.00,2.8022
1670.00,2.7506
1669.00,2.6939
1668.00,2.6420
1667.00,2.5964
1666.00,2.5503
1665.00,2.4976
1664.00,2.4398
1663.00,2.3778
1662.00,2.3122
1661.00,2.2472
1660.00,2.1869
1659.00,2.1350
1658.00,2.0962
1657.00,2.0738
1656.00,2.0641
1655.00,2.0667
1654.00,2.0756
1653.00,2.0772
1652.00,2.0849
1651.00,2.0938
1650.00,2.1013
1649.00,2.1226
1648.00,2.1568
1647.00,2.1876
1646.00,2.2159
1645.00,2.2513
1644.00,2.2900
1643.00,2.3277
1642.00,2.3683
1641.00,2.4176
1640.00,2.4761
1639.00,2.5384
1638.00,2.5959
1637.00,2.6405
1636.00,2.6647
1635.00,2.6803
1634.00,2.7019
1633.00,2.7257
1632.00,2.7486
1631.00,2.7728
1630.00,2.8001
1629.00,2.8304
1628.00,2.8604
1627.00,2.8886
1626.00,2.9168
1625.00,2.9471
1624.00,2.9783
1623.00,3.0051
1622.00,3.0272
1621.00,3.0506
1620.00,3.0795
1619.00,3.1141
1618.00,3.1492
1617.00,3.1736
1616.00,3.1799
1615.00,3.1723
1614.00,3.1615
1613.00,3.1575
1612.00,3.1658
1611.00,3.1846
1610.00,3.2072
1609.00,3.2249
1608.00,3.2331
1607.00,3.2346
1606.00,3.2377
1605.00,3.2468
1604.00,3.2578
1603.00,3.2669
1602.00,3.2769
1601.00,3.2910
1600.00,3.3044
1599.00,3.3103
1598.00,3.3108
1597.00,3.3146
1596.00,3.3246
1595.00,3.3366
1594.00,3.3457
1593.00,3.3513
1592.00,3.3544
1591.00,3.3565
1590.00,3.3603
1589.00,3.3668
1588.00,3.3723
1587.00,3.3718
1586.00,3.3659
1585.00,3.3615
1584.00,3.3611
1583.00,3.3620
1582.00,3.3635
1581.00,3.3694
1580.00,3.3820
1579.00,3.3996
1578.00,3.4184
1577.00,3.4303
1576.00,3.4273
1575.00,3.4121
1574.00,3.3913
1573.00,3.3705
1572.00,3.3537
1571.00,3.3426
1570.00,3.3329
1569.00,3.3211
1568.00,3.3070
1567.00,3.2875
1566.00,3.2638
1565.00,3.2463
1564.00,3.2439
1563.00,3.2523
1562.00,3.2575
1561.00,3.2542
1560.00,3.2622
1559.00,3.2421
1558.00,3.1960
1557.00,3.1615
1556.00,3.1259
1555.00,3.0843
1554.00,3.0498
1553.00,3.0252
1552.00,3.0039
1551.00,2.9787
1550.00,2.9573
1549.00,2.9220
1548.00,2.8901
1547.00,2.8637
1546.00,2.8306
1545.00,2.8058
1544.00,2.7669
1543.00,2.7498
1542.00,2.6887
1541.00,2.8148
1540.00,2.8354
1539.00,2.7347
1538.00,2.6824
1537.00,2.6248
1536.00,2.5827
1535.00,2.5448
1534.00,2.5168
1533.00,2.4933
1532.00,2.4752
1531.00,2.4631
1530.00,2.4551
1529.00,2.4523
1528.00,2.4569
1527.00,2.4701
1526.00,2.4945
1525.00,2.5291
1524.00,2.5645
1523.00,2.5908
1522.00,2.6042
1521.00,2.6123
1520.00,2.6242
1519.00,2.6352
1518.00,2.6437
1517.00,2.6496
1516.00,2.6639
1515.00,2.6715
1514.00,2.6957
1513.00,2.7298
1512.00,2.7584
1511.00,2.7884
1510.00,2.8177
1509.00,2.8495
1508.00,2.8814
1507.00,2.9119
1506.00,2.9415
1505.00,2.9713
1504.00,3.0013
1503.00,3.0271
1502.00,3.0546
1501.00,3.0754
1500.00,3.1299
1499.00,3.1768
1498.00,3.2061
1497.00,3.2400
1496.00,3.2659
1495.00,3.2865
1494.00,3.2949
1493.00,3.2994
1492.00,3.3087
1491.00,3.3287
1490.00,3.3543
1489.00,3.3788
1488.00,3.4028
1487.00,3.4273
1486.00,3.4503
1485.00,3.4709
1484.00,3.4850
1483.00,3.4903
1482.00,3.4951
1481.00,3.5118
1480.00,3.5406
1479.00,3.5673
1478.00,3.5800
1477.00,3.5806
1476.00,3.5820
1475.00,3.5924
1474.00,3.6096
1473.00,3.6251
1472.00,3.6335
1471.00,3.6387
1470.00,3.6473
1469.00,3.6617
1468.00,3.6770
1467.00,3.6846
1466.00,3.6831
1465.00,3.6803
1464.00,3.6833
1463.00,3.6929
1462.00,3.7087
1461.00,3.7377
1460.00,3.7854
1459.00,3.8433
1458.00,3.8832
1457.00,3.8825
1456.00,3.8523
1455.00,3.8109
1454.00,3.7761
1453.00,3.7552
1452.00,3.7522
1451.00,3.7736
1450.00,3.8072
1449.00,3.8336
1448.00,3.8500
1447.00,3.8533
1446.00,3.8427
1445.00,3.8287
1444.00,3.8202
1443.00,3.8225
1442.00,3.8368
1441.00,3.8570
1440.00,3.8680
1439.00,3.8573
1438.00,3.8303
1437.00,3.8032
1436.00,3.7875
1435.00,3.7857
1434.00,3.7959
1433.00,3.8150
1432.00,3.8373
1431.00,3.8418
1430.00,3.8210
1429.00,3.8085
1428.00,3.8302
1427.00,3.8785
1426.00,3.9324
1425.00,3.9691
1424.00,3.9764
1423.00,3.9648
1422.00,3.9521
1421.00,3.9456
1420.00,3.9451
1419.00,3.9448
1418.00,3.9363
1417.00,3.9118
1416.00,3.8670
1415.00,3.8120
1414.00,3.7652
1413.00,3.7326
1412.00,3.7047
1411.00,3.6753
1410.00,3.6535
1409.00,3.6492
1408.00,3.6564
1407.00,3.6565
1406.00,3.6379
1405.00,3.6061
1404.00,3.5723
1403.00,3.5425
1402.00,3.5172
1401.00,3.4976
1400.00,3.4856
1399.00,3.4783
1398.00,3.4687
1397.00,3.4503
1396.00,3.4217
1395.00,3.3881
1394.00,3.3596
1393.00,3.3410
1392.00,3.3271
1391.00,3.3124
1390.00,3.2978
1389.00,3.2882
1388.00,3.2857
1387.00,3.2876
1386.00,3.2905
1385.00,3.2954
1384.00,3.3060
1383.00,3.3284
1382.00,3.3676
1381.00,3.4266
1380.00,3.5089
1379.00,3.6154
1378.00,3.7349
1377.00,3.8443
1376.00,3.9256
1375.00,3.9684
1374.00,3.9534
1373.00,3.8607
1372.00,3.7236
1371.00,3.5945
1370.00,3.4906
1369.00,3.4068
1368.00,3.3334
1367.00,3.2640
1366.00,3.1955
1365.00,3.1261
1364.00,3.0559
1363.00,2.9868
1362.00,2.9232
1361.00,2.8708
1360.00,2.8318
1359.00,2.8051
1358.00,2.7890
1357.00,2.7827
1356.00,2.7856
1355.00,2.7976
1354.00,2.8188
1353.00,2.8484
1352.00,2.8842
1351.00,2.9227
1350.00,2.9591
1349.00,2.9896
1348.00,3.0129
1347.00,3.0324
1346.00,3.0540
1345.00,3.0806
1344.00,3.1104
1343.00,3.1390
1342.00,3.1637
1341.00,3.1837
1340.00,3.1979
1339.00,3.2061
1338.00,3.2106
1337.00,3.2152
1336.00,3.2240
1335.00,3.2391
1334.00,3.2597
1333.00,3.2825
1332.00,3.3056
1331.00,3.3303
1330.00,3.3576
1329.00,3.3830
1328.00,3.4012
1327.00,3.4152
1326.00,3.4322
1325.00,3.4523
1324.00,3.4682
1323.00,3.4786
1322.00,3.4932
1321.00,3.5189
1320.00,3.5482
1319.00,3.5684
1318.00,3.5787
1317.00,3.5879
1316.00,3.6005
1315.00,3.6130
1314.00,3.6232
1313.00,3.6331
1312.00,3.6432
1311.00,3.6492
1310.00,3.6513
1309.00,3.6584
1308.00,3.6777
1307.00,3.7058
1306.00,3.7281
1305.00,3.7262
1304.00,3.6955
1303.00,3.6551
1302.00,3.6309
1301.00,3.6345
1300.00,3.6573
1299.00,3.6796
1298.00,3.6909
1297.00,3.7000
1296.00,3.7167
1295.00,3.7363
1294.00,3.7452
1293.00,3.7359
1292.00,3.7145
1291.00,3.6926
1290.00,3.6754
1289.00,3.6595
1288.00,3.6424
1287.00,3.6306
1286.00,3.6355
1285.00,3.6576
1284.00,3.6794
1283.00,3.6820
1282.00,3.6653
1281.00,3.6410
1280.00,3.6146
1279.00,3.5862
1278.00,3.5625
1277.00,3.5540
1276.00,3.5567
1275.00,3.5538
1274.00,3.5444
1273.00,3.5481
1272.00,3.5739
1271.00,3.6070
1270.00,3.6233
1269.00,3.6118
1268.00,3.5800
1267.00,3.5378
1266.00,3.4936
1265.00,3.4578
1264.00,3.4366
1263.00,3.4264
1262.00,3.4180
1261.00,3.4045
1260.00,3.3854
1259.00,3.3637
1258.00,3.3411
1257.00,3.3151
1256.00,3.2802
1255.00,3.2335
1254.00,3.1795
1253.00,3.1269
1252.00,3.0816
1251.00,3.0436
1250.00,3.0079
1249.00,2.9679
1248.00,2.9198
1247.00,2.8647
1246.00,2.8066
1245.00,2.7489
1244.00,2.6931
1243.00,2.6397
1242.00,2.5897
1241.00,2.5449
1240.00,2.5068
1239.00,2.4773
1238.00,2.4586
1237.00,2.4526
1236.00,2.4611
1235.00,2.4843
1234.00,2.5216
1233.00,2.5717
1232.00,2.6333
1231.00,2.7046
1230.00,2.7830
1229.00,2.8647
1228.00,2.9455
1227.00,3.0194
1226.00,3.0769
1225.00,3.1072
1224.00,3.1094
1223.00,3.0938
1222.00,3.0713
1221.00,3.0462
1220.00,3.0197
1219.00,2.9954
1218.00,2.9801
1217.00,2.9798
1216.00,2.9977
1215.00,3.0346
1214.00,3.0881
1213.00,3.1515
1212.00,3.2141
1211.00,3.2671
1210.00,3.3096
1209.00,3.3449
1208.00,3.3734
1207.00,3.3925
1206.00,3.4030
1205.00,3.4122
1204.00,3.4313
1203.00,3.4699
1202.00,3.5333
1201.00,3.6160
1200.00,3.6918
1199.00,3.7217
1198.00,3.6979
1197.00,3.6593
1196.00,3.6455
1195.00,3.6731
1194.00,3.7380
1193.00,3.8163
1192.00,3.8725
1191.00,3.8842
1190.00,3.8623
1189.00,3.8413
1188.00,3.8411
1187.00,3.8369
1186.00,3.8104
1185.00,3.8118
1184.00,3.8926
1183.00,4.0462
1182.00,4.1813
1181.00,4.1772
1180.00,4.0814
1179.00,4.0110
1178.00,4.0090
1177.00,4.0716
1176.00,4.1720
1175.00,4.2530
1174.00,4.2598
1173.00,4.2133
1172.00,4.1541
1171.00,4.0779
1170.00,3.9913
1169.00,3.9120
1168.00,3.8457
1167.00,3.7945
1166.00,3.7579
1165.00,3.7314
1164.00,3.7074
1163.00,3.6903
1162.00,3.7033
1161.00,3.7736
1160.00,3.8973
1159.00,4.0063
1158.00,4.0390
1157.00,4.0134
1156.00,3.9545
1155.00,3.8847
1154.00,3.8350
1153.00,3.8322
1152.00,3.8692
1151.00,3.8965
1150.00,3.8731
1149.00,3.8269
1148.00,3.8119
1147.00,3.8448
1146.00,3.9084
1145.00,3.9910
1144.00,4.0816
1143.00,4.1347
1142.00,4.1352
1141.00,4.0884
1140.00,4.0288
1139.00,4.0201
1138.00,4.0526
1137.00,4.0686
1136.00,4.0424
1135.00,3.9942
1134.00,3.9470
1133.00,3.8986
1132.00,3.8319
1131.00,3.7442
1130.00,3.6617
1129.00,3.6094
1128.00,3.5922
1127.00,3.5919
1126.00,3.5773
1125.00,3.5504
1124.00,3.5420
1123.00,3.5618
1122.00,3.5973
1121.00,3.6315
1120.00,3.6440
1119.00,3.6178
1118.00,3.5562
1117.00,3.4834
1116.00,3.4272
1115.00,3.4002
1114.00,3.3914
1113.00,3.3759
1112.00,3.3348
1111.00,3.2681
1110.00,3.1893
1109.00,3.1148
1108.00,3.0558
1107.00,3.0133
1106.00,2.9797
1105.00,2.9480
1104.00,2.9191
1103.00,2.8996
1102.00,2.8940
1101.00,2.9021
1100.00,2.9231
1099.00,2.9593
1098.00,3.0131
1097.00,3.0785
1096.00,3.1411
1095.00,3.1907
1094.00,3.2329
1093.00,3.2800
1092.00,3.3373
1091.00,3.4016
1090.00,3.4679
1089.00,3.5307
1088.00,3.5853
1087.00,3.6333
1086.00,3.6819
1085.00,3.7300
1084.00,3.7552
1083.00,3.7347
1082.00,3.6856
1081.00,3.6519
1080.00,3.6648
1079.00,3.7364
1078.00,3.8697
1077.00,4.0290
1076.00,4.1246
1075.00,4.0965
1074.00,3.9749
1073.00,3.8529
1072.00,3.7817
1071.00,3.7611
1070.00,3.7749
1069.00,3.8354
1068.00,3.9480
1067.00,4.0311
1066.00,4.0110
1065.00,3.9420
1064.00,3.9076
1063.00,3.9304
1062.00,3.9601
1061.00,3.9416
1060.00,3.8803
1059.00,3.8062
1058.00,3.7427
1057.00,3.7051
1056.00,3.6968
1055.00,3.6979
1054.00,3.6984
1053.00,3.7300
1052.00,3.8214
1051.00,3.9297
1050.00,3.9829
1049.00,3.9928
1048.00,4.0986
1047.00,4.4443
1046.00,4.4232
1045.00,4.1293
1044.00,4.0594
1043.00,4.0394
1042.00,4.0575
1041.00,4.1728
1040.00,4.5639
1039.00,4.9289
1038.00,4.3875
1037.00,4.2835
1036.00,4.3307
1035.00,4.4374
1034.00,4.4683
1033.00,4.2280
1032.00,4.0451
1031.00,3.9356
1030.00,3.9238
1029.00,4.0031
1028.00,4.2338
1027.00,4.6082
1026.00,4.4057
1025.00,4.2544
1024.00,4.2386
1023.00,4.2639
1022.00,4.4068
1021.00,4.3758
1020.00,4.1557
1019.00,3.9954
1018.00,3.9070
1017.00,3.8665
1016.00,3.8546
1015.00,3.8711
1014.00,3.9443
1013.00,4.0973
1012.00,4.3393
1011.00,4.6364
1010.00,4.7959
1009.00,4.6494
1008.00,4.4094
1007.00,4.2270
1006.00,4.1326
1005.00,4.1129
1004.00,4.1218
1003.00,4.1111
1002.00,4.1159
1001.00,4.1383
1000.00,4.1260
999.00,4.1359
998.00,4.1921
997.00,4.2183
996.00,4.2118
995.00,4.2116
994.00,4.1841
993.00,4.1192
992.00,4.0749
991.00,4.0826
990.00,4.1284
989.00,4.1782
988.00,4.2137
987.00,4.2428
986.00,4.2477
985.00,4.1881
984.00,4.0909
983.00,4.0224
982.00,4.0142
981.00,4.0602
980.00,4.1176
979.00,4.1240
978.00,4.0804
977.00,4.0328
976.00,3.9936
975.00,3.9521
974.00,3.9050
973.00,3.8676
972.00,3.8556
971.00,3.8593
970.00,3.8499
969.00,3.8182
968.00,3.7825
967.00,3.7619
966.00,3.7585
965.00,3.7708
964.00,3.7974
963.00,3.7932
962.00,3.7287
961.00,3.6652
960.00,3.6548
959.00,3.7031
958.00,3.7808
957.00,3.8303
956.00,3.8359
955.00,3.8377
954.00,3.8874
953.00,4.0034
952.00,4.2298
951.00,4.7413
950.00,4.7412
949.00,4.3239
948.00,4.3173
947.00,4.6129
946.00,4.5120
945.00,4.1624
944.00,4.0228
943.00,3.9699
942.00,3.9287
941.00,3.8796
940.00,3.8189
939.00,3.7779
938.00,3.7788
937.00,3.8076
936.00,3.8363
935.00,3.8673
934.00,3.9086
933.00,3.9252
932.00,3.8863
931.00,3.8212
930.00,3.7704
929.00,3.7591
928.00,3.7887
927.00,3.8357
926.00,3.8781
925.00,3.9076
924.00,3.9101
923.00,3.8847
922.00,3.8559
921.00,3.8467
920.00,3.8715
919.00,3.9299
918.00,3.9984
917.00,4.0481
916.00,4.0778
915.00,4.1080
914.00,4.1409
913.00,4.1236
912.00,4.0339
911.00,3.9466
910.00,3.9106
909.00,3.9361
908.00,4.0173
907.00,4.1471
906.00,4.2721
905.00,4.3837
904.00,4.4213
903.00,4.1740
902.00,3.9485
901.00,3.8421
900.00,3.8198
899.00,3.8536
898.00,3.8916
897.00,3.8865
896.00,3.8850
895.00,3.9649
894.00,4.1872
893.00,4.4817
892.00,4.4626
891.00,4.2799
890.00,4.1149
889.00,4.0581
888.00,4.1209
887.00,4.2439
886.00,4.3755
885.00,4.4634
884.00,4.4854
883.00,4.3960
882.00,4.2275
881.00,4.0977
880.00,4.0679
879.00,4.1267
878.00,4.1728
877.00,4.1071
876.00,4.0112
875.00,3.9569
874.00,3.9822
873.00,4.0721
872.00,4.0628
871.00,3.9278
870.00,3.7974
869.00,3.7365
868.00,3.7844
867.00,3.9532
866.00,4.1944
865.00,4.2899
864.00,4.1837
863.00,4.0455
862.00,3.9094
861.00,3.7991
860.00,3.7392
859.00,3.7313
858.00,3.7703
857.00,3.8405
856.00,3.9603
855.00,4.1463
854.00,4.1367
853.00,3.9906
852.00,3.9735
851.00,4.0673
850.00,4.2253
849.00,4.2400
848.00,4.0183
847.00,3.8865
846.00,3.8903
845.00,3.9421
844.00,3.9850
843.00,4.0668
842.00,4.1823
841.00,4.1567
840.00,4.0081
839.00,3.8952
838.00,3.8471
837.00,3.8704
836.00,3.9795
835.00,4.1980
834.00,4.4490
833.00,4.3526
832.00,4.2331
831.00,4.2225
830.00,4.3875
829.00,4.7237
828.00,4.3416
827.00,4.0513
826.00,3.9121
825.00,3.8268
824.00,3.7830
823.00,3.7702
822.00,3.7829
821.00,3.7612
820.00,3.6690
819.00,3.5582
818.00,3.4788
817.00,3.4487
816.00,3.4741
815.00,3.5481
814.00,3.6445
813.00,3.7299
812.00,3.8043
811.00,3.9096
810.00,4.0736
809.00,4.3044
808.00,4.4438
807.00,4.3208
806.00,4.2326
805.00,4.1342
804.00,3.9679
803.00,3.8487
802.00,3.7945
801.00,3.7622
800.00,3.7113
799.00,3.6525
798.00,3.6228
797.00,3.6433
796.00,3.7251
795.00,3.8615
794.00,4.0387
793.00,4.1761
792.00,4.0980
791.00,3.9791
790.00,3.9156
789.00,3.8249
788.00,3.7148
787.00,3.6642
786.00,3.7071
785.00,3.8145
784.00,3.8971
783.00,3.9344
782.00,3.9744
781.00,3.9998
780.00,3.9932
779.00,3.9251
778.00,3.8210
777.00,3.7761
776.00,3.8340
775.00,4.0053
774.00,4.2657
773.00,4.3712
772.00,4.1895
771.00,4.0166
770.00,3.9373
769.00,3.9236
768.00,3.9491
767.00,3.9101
766.00,3.7465
765.00,3.6133
764.00,3.5648
763.00,3.5755
762.00,3.6134
761.00,3.6583
760.00,3.7180
759.00,3.8033
758.00,3.9071
757.00,3.9819
756.00,3.9681
755.00,3.9110
754.00,3.8855
753.00,3.9104
752.00,3.9552
751.00,3.9923
750.00,4.0205
749.00,4.1236
748.00,4.3303
747.00,4.2028
746.00,3.9687
745.00,3.8545
744.00,3.7978
743.00,3.7980
742.00,3.8671
741.00,3.9811
740.00,4.0518
739.00,4.0196
738.00,4.0185
737.00,4.1372
736.00,4.3875
735.00,4.5143
734.00,4.1871
733.00,4.0016
732.00,3.9705
731.00,3.9308
730.00,3.8450
729.00,3.8035
728.00,3.8272
727.00,3.8727
726.00,3.9290
725.00,4.0052
724.00,4.0192
723.00,3.9324
722.00,3.8425
721.00,3.7822
720.00,3.7425
719.00,3.7184
718.00,3.7198
717.00,3.7660
716.00,3.8796
715.00,4.0534
714.00,4.0996
713.00,3.9658
712.00,3.8633
711.00,3.8300
710.00,3.8455
709.00,3.8773
708.00,3.8988
707.00,3.9162
706.00,3.9095
705.00,3.8383
704.00,3.7368
703.00,3.6583
702.00,3.6282
701.00,3.6624
700.00,3.7500
