Created as New Dataset,Sample 016 By Administrator Date Wednesday, November 24 2021
cm-1,A
7502.00,0.5408
7501.00,0.5500
7500.00,0.5595
7499.00,0.5691
7498.00,0.5787
7497.00,0.5883
7496.00,0.5985
7495.00,0.6092
7494.00,0.6201
7493.00,0.6308
7492.00,0.6411
7491.00,0.6514
7490.00,0.6617
7489.00,0.6719
7488.00,0.6818
7487.00,0.6913
7486.00,0.7008
7485.00,0.7101
7484.00,0.7193
7483.00,0.7284
7482.00,0.7377
7481.00,0.7471
7480.00,0.7564
7479.00,0.7655
7478.00,0.7745
7477.00,0.7835
7476.00,0.7921
7475.00,0.8000
7474.00,0.8074
7473.00,0.8144
7472.00,0.8210
7471.00,0.8272
7470.00,0.8326
7469.00,0.8374
7468.00,0.8416
7467.00,0.8459
7466.00,0.8505
7465.00,0.8549
7464.00,0.8585
7463.00,0.8614
7462.00,0.8641
7461.00,0.8666
7460.00,0.8685
7459.00,0.8700
7458.00,0.8715
7457.00,0.8732
7456.00,0.8745
7455.00,0.8749
7454.00,0.8749
7453.00,0.8749
7452.00,0.8749
7451.00,0.8741
7450.00,0.8722
7449.00,0.8700
7448.00,0.8678
7447.00,0.8654
7446.00,0.8625
7445.00,0.8588
7444.00,0.8542
7443.00,0.8490
7442.00,0.8435
7441.00,0.8385
7440.00,0.8340
7439.00,0.8295
7438.00,0.8240
7437.00,0.8174
7436.00,0.8100
7435.00,0.8024
7434.00,0.7951
7433.00,0.7879
7432.00,0.7805
7431.00,0.7730
7430.00,0.7660
7429.00,0.7599
7428.00,0.7546
7427.00,0.7498
7426.00,0.7450
7425.00,0.7400
7424.00,0.7343
7423.00,0.7275
7422.00,0.7199
7421.00,0.7122
7420.00,0.7043
7419.00,0.6960
7418.00,0.6873
7417.00,0.6787
7416.00,0.6704
7415.00,0.6627
7414.00,0.6553
7413.00,0.6480
7412.00,0.6407
7411.00,0.6335
7410.00,0.6271
7409.00,0.6216
7408.00,0.6168
7407.00,0.6124
7406.00,0.6083
7405.00,0.6043
7404.00,0.6005
7403.00,0.5966
7402.00,0.5927
7401.00,0.5889
7400.00,0.5851
7399.00,0.5814
7398.00,0.5777
7397.00,0.5742
7396.00,0.5708
7395.00,0.5676
7394.00,0.5649
7393.00,0.5627
7392.00,0.5610
7391.00,0.5598
7390.00,0.5590
7389.00,0.5587
7388.00,0.5588
7387.00,0.5591
7386.00,0.5596
7385.00,0.5604
7384.00,0.5617
7383.00,0.5633
7382.00,0.5653
7381.00,0.5679
7380.00,0.5712
7379.00,0.5751
7378.00,0.5795
7377.00,0.5842
7376.00,0.5891
7375.00,0.5942
7374.00,0.5996
7373.00,0.6055
7372.00,0.6118
7371.00,0.6184
7370.00,0.6256
7369.00,0.6334
7368.00,0.6416
7367.00,0.6502
7366.00,0.6591
7365.00,0.6683
7364.00,0.6777
7363.00,0.6870
7362.00,0.6965
7361.00,0.7066
7360.00,0.7172
7359.00,0.7275
7358.00,0.7371
7357.00,0.7464
7356.00,0.7560
7355.00,0.7662
7354.00,0.7768
7353.00,0.7873
7352.00,0.7977
7351.00,0.8080
7350.00,0.8183
7349.00,0.8288
7348.00,0.8387
7347.00,0.8477
7346.00,0.8559
7345.00,0.8641
7344.00,0.8729
7343.00,0.8823
7342.00,0.8917
7341.00,0.9009
7340.00,0.9099
7339.00,0.9189
7338.00,0.9275
7337.00,0.9354
7336.00,0.9428
7335.00,0.9497
7334.00,0.9563
7333.00,0.9623
7332.00,0.9676
7331.00,0.9728
7330.00,0.9782
7329.00,0.9838
7328.00,0.9888
7327.00,0.9931
7326.00,0.9968
7325.00,1.0004
7324.00,1.0042
7323.00,1.0077
7322.00,1.0106
7321.00,1.0132
7320.00,1.0156
7319.00,1.0181
7318.00,1.0205
7317.00,1.0222
7316.00,1.0227
7315.00,1.0229
7314.00,1.0234
7313.00,1.0239
7312.00,1.0236
7311.00,1.0224
7310.00,1.0208
7309.00,1.0196
7308.00,1.0183
7307.00,1.0163
7306.00,1.0137
7305.00,1.0112
7304.00,1.0090
7303.00,1.0068
7302.00,1.0041
7301.00,1.0009
7300.00,0.9968
7299.00,0.9918
7298.00,0.9858
7297.00,0.9792
7296.00,0.9720
7295.00,0.9644
7294.00,0.9569
7293.00,0.9499
7292.00,0.9435
7291.00,0.9371
7290.00,0.9304
7289.00,0.9231
7288.00,0.9155
7287.00,0.9079
7286.00,0.9000
7285.00,0.8920
7284.00,0.8837
7283.00,0.8754
7282.00,0.8673
7281.00,0.8593
7280.00,0.8509
7279.00,0.8420
7278.00,0.8328
7277.00,0.8239
7276.00,0.8156
7275.00,0.8077
7274.00,0.7997
7273.00,0.7914
7272.00,0.7829
7271.00,0.7745
7270.00,0.7661
7269.00,0.7577
7268.00,0.7491
7267.00,0.7407
7266.00,0.7329
7265.00,0.7259
7264.00,0.7194
7263.00,0.7134
7262.00,0.7075
7261.00,0.7018
7260.00,0.6963
7259.00,0.6912
7258.00,0.6867
7257.00,0.6826
7256.00,0.6787
7255.00,0.6747
7254.00,0.6711
7253.00,0.6684
7252.00,0.6667
7251.00,0.6654
7250.00,0.6643
7249.00,0.6636
7248.00,0.6635
7247.00,0.6642
7246.00,0.6655
7245.00,0.6671
7244.00,0.6688
7243.00,0.6710
7242.00,0.6740
7241.00,0.6779
7240.00,0.6822
7239.00,0.6866
7238.00,0.6915
7237.00,0.6969
7236.00,0.7028
7235.00,0.7090
7234.00,0.7154
7233.00,0.7223
7232.00,0.7296
7231.00,0.7375
7230.00,0.7457
7229.00,0.7542
7228.00,0.7628
7227.00,0.7713
7226.00,0.7799
7225.00,0.7887
7224.00,0.7976
7223.00,0.8066
7222.00,0.8159
7221.00,0.8255
7220.00,0.8352
7219.00,0.8449
7218.00,0.8547
7217.00,0.8645
7216.00,0.8740
7215.00,0.8831
7214.00,0.8921
7213.00,0.9016
7212.00,0.9114
7211.00,0.9211
7210.00,0.9305
7209.00,0.9399
7208.00,0.9492
7207.00,0.9583
7206.00,0.9668
7205.00,0.9748
7204.00,0.9826
7203.00,0.9902
7202.00,0.9973
7201.00,1.0039
7200.00,1.0101
7199.00,1.0163
7198.00,1.0224
7197.00,1.0282
7196.00,1.0331
7195.00,1.0375
7194.00,1.0417
7193.00,1.0463
7192.00,1.0508
7191.00,1.0548
7190.00,1.0584
7189.00,1.0617
7188.00,1.0647
7187.00,1.0667
7186.00,1.0678
7185.00,1.0685
7184.00,1.0691
7183.00,1.0696
7182.00,1.0701
7181.00,1.0709
7180.00,1.0719
7179.00,1.0725
7178.00,1.0721
7177.00,1.0710
7176.00,1.0696
7175.00,1.0683
7174.00,1.0666
7173.00,1.0643
7172.00,1.0613
7171.00,1.0577
7170.00,1.0536
7169.00,1.0491
7168.00,1.0442
7167.00,1.0390
7166.00,1.0334
7165.00,1.0278
7164.00,1.0222
7163.00,1.0167
7162.00,1.0110
7161.00,1.0050
7160.00,0.9988
7159.00,0.9924
7158.00,0.9861
7157.00,0.9797
7156.00,0.9730
7155.00,0.9655
7154.00,0.9575
7153.00,0.9492
7152.00,0.9408
7151.00,0.9321
7150.00,0.9232
7149.00,0.9144
7148.00,0.9060
7147.00,0.8976
7146.00,0.8891
7145.00,0.8807
7144.00,0.8723
7143.00,0.8641
7142.00,0.8557
7141.00,0.8473
7140.00,0.8390
7139.00,0.8309
7138.00,0.8228
7137.00,0.8149
7136.00,0.8071
7135.00,0.7996
7134.00,0.7922
7133.00,0.7848
7132.00,0.7773
7131.00,0.7697
7130.00,0.7622
7129.00,0.7550
7128.00,0.7481
7127.00,0.7416
7126.00,0.7354
7125.00,0.7295
7124.00,0.7239
7123.00,0.7187
7122.00,0.7140
7121.00,0.7097
7120.00,0.7058
7119.00,0.7024
7118.00,0.6995
7117.00,0.6973
7116.00,0.6953
7115.00,0.6935
7114.00,0.6919
7113.00,0.6908
7112.00,0.6904
7111.00,0.6907
7110.00,0.6918
7109.00,0.6935
7108.00,0.6958
7107.00,0.6985
7106.00,0.7016
7105.00,0.7050
7104.00,0.7087
7103.00,0.7126
7102.00,0.7170
7101.00,0.7220
7100.00,0.7277
7099.00,0.7339
7098.00,0.7406
7097.00,0.7477
7096.00,0.7552
7095.00,0.7631
7094.00,0.7714
7093.00,0.7798
7092.00,0.7884
7091.00,0.7971
7090.00,0.8061
7089.00,0.8154
7088.00,0.8249
7087.00,0.8344
7086.00,0.8441
7085.00,0.8539
7084.00,0.8638
7083.00,0.8736
7082.00,0.8835
7081.00,0.8936
7080.00,0.9038
7079.00,0.9137
7078.00,0.9233
7077.00,0.9328
7076.00,0.9423
7075.00,0.9516
7074.00,0.9608
7073.00,0.9700
7072.00,0.9795
7071.00,0.9891
7070.00,0.9982
7069.00,1.0064
7068.00,1.0140
7067.00,1.0214
7066.00,1.0291
7065.00,1.0369
7064.00,1.0445
7063.00,1.0520
7062.00,1.0593
7061.00,1.0663
7060.00,1.0728
7059.00,1.0786
7058.00,1.0842
7057.00,1.0897
7056.00,1.0951
7055.00,1.1001
7054.00,1.1045
7053.00,1.1083
7052.00,1.1115
7051.00,1.1140
7050.00,1.1161
7049.00,1.1181
7048.00,1.1205
7047.00,1.1233
7046.00,1.1262
7045.00,1.1289
7044.00,1.1310
7043.00,1.1324
7042.00,1.1329
7041.00,1.1330
7040.00,1.1330
7039.00,1.1328
7038.00,1.1319
7037.00,1.1300
7036.00,1.1276
7035.00,1.1251
7034.00,1.1227
7033.00,1.1199
7032.00,1.1165
7031.00,1.1130
7030.00,1.1095
7029.00,1.1062
7028.00,1.1026
7027.00,1.0985
7026.00,1.0937
7025.00,1.0882
7024.00,1.0819
7023.00,1.0751
7022.00,1.0682
7021.00,1.0614
7020.00,1.0546
7019.00,1.0477
7018.00,1.0409
7017.00,1.0339
7016.00,1.0264
7015.00,1.0182
7014.00,1.0095
7013.00,1.0004
7012.00,0.9912
7011.00,0.9820
7010.00,0.9729
7009.00,0.9641
7008.00,0.9556
7007.00,0.9469
7006.00,0.9378
7005.00,0.9283
7004.00,0.9185
7003.00,0.9086
7002.00,0.8987
7001.00,0.8889
7000.00,0.8793
6999.00,0.8700
6998.00,0.8610
6997.00,0.8520
6996.00,0.8433
6995.00,0.8348
6994.00,0.8265
6993.00,0.8182
6992.00,0.8099
6991.00,0.8020
6990.00,0.7946
6989.00,0.7876
6988.00,0.7810
6987.00,0.7746
6986.00,0.7688
6985.00,0.7636
6984.00,0.7588
6983.00,0.7541
6982.00,0.7498
6981.00,0.7459
6980.00,0.7424
6979.00,0.7393
6978.00,0.7369
6977.00,0.7352
6976.00,0.7343
6975.00,0.7340
6974.00,0.7343
6973.00,0.7352
6972.00,0.7365
6971.00,0.7383
6970.00,0.7405
6969.00,0.7433
6968.00,0.7465
6967.00,0.7502
6966.00,0.7543
6965.00,0.7591
6964.00,0.7643
6963.00,0.7699
6962.00,0.7758
6961.00,0.7823
6960.00,0.7893
6959.00,0.7968
6958.00,0.8045
6957.00,0.8125
6956.00,0.8208
6955.00,0.8294
6954.00,0.8383
6953.00,0.8475
6952.00,0.8569
6951.00,0.8661
6950.00,0.8755
6949.00,0.8850
6948.00,0.8947
6947.00,0.9046
6946.00,0.9147
6945.00,0.9249
6944.00,0.9352
6943.00,0.9455
6942.00,0.9556
6941.00,0.9655
6940.00,0.9751
6939.00,0.9841
6938.00,0.9927
6937.00,1.0012
6936.00,1.0099
6935.00,1.0189
6934.00,1.0279
6933.00,1.0364
6932.00,1.0443
6931.00,1.0519
6930.00,1.0594
6929.00,1.0667
6928.00,1.0737
6927.00,1.0803
6926.00,1.0870
6925.00,1.0937
6924.00,1.1002
6923.00,1.1059
6922.00,1.1108
6921.00,1.1151
6920.00,1.1192
6919.00,1.1230
6918.00,1.1266
6917.00,1.1302
6916.00,1.1337
6915.00,1.1368
6914.00,1.1396
6913.00,1.1419
6912.00,1.1437
6911.00,1.1451
6910.00,1.1461
6909.00,1.1468
6908.00,1.1471
6907.00,1.1469
6906.00,1.1461
6905.00,1.1451
6904.00,1.1438
6903.00,1.1420
6902.00,1.1397
6901.00,1.1372
6900.00,1.1347
6899.00,1.1320
6898.00,1.1292
6897.00,1.1261
6896.00,1.1228
6895.00,1.1190
6894.00,1.1145
6893.00,1.1093
6892.00,1.1033
6891.00,1.0970
6890.00,1.0907
6889.00,1.0846
6888.00,1.0783
6887.00,1.0716
6886.00,1.0644
6885.00,1.0568
6884.00,1.0489
6883.00,1.0407
6882.00,1.0321
6881.00,1.0236
6880.00,1.0153
6879.00,1.0071
6878.00,0.9989
6877.00,0.9905
6876.00,0.9815
6875.00,0.9720
6874.00,0.9622
6873.00,0.9524
6872.00,0.9426
6871.00,0.9328
6870.00,0.9230
6869.00,0.9134
6868.00,0.9039
6867.00,0.8944
6866.00,0.8848
6865.00,0.8751
6864.00,0.8655
6863.00,0.8562
6862.00,0.8472
6861.00,0.8385
6860.00,0.8299
6859.00,0.8212
6858.00,0.8129
6857.00,0.8050
6856.00,0.7974
6855.00,0.7902
6854.00,0.7831
6853.00,0.7765
6852.00,0.7705
6851.00,0.7650
6850.00,0.7598
6849.00,0.7548
6848.00,0.7502
6847.00,0.7460
6846.00,0.7424
6845.00,0.7394
6844.00,0.7367
6843.00,0.7343
6842.00,0.7321
6841.00,0.7304
6840.00,0.7294
6839.00,0.7291
6838.00,0.7293
6837.00,0.7301
6836.00,0.7314
6835.00,0.7331
6834.00,0.7352
6833.00,0.7378
6832.00,0.7408
6831.00,0.7442
6830.00,0.7483
6829.00,0.7532
6828.00,0.7588
6827.00,0.7649
6826.00,0.7712
6825.00,0.7776
6824.00,0.7842
6823.00,0.7913
6822.00,0.7990
6821.00,0.8072
6820.00,0.8158
6819.00,0.8245
6818.00,0.8337
6817.00,0.8433
6816.00,0.8531
6815.00,0.8628
6814.00,0.8725
6813.00,0.8823
6812.00,0.8923
6811.00,0.9027
6810.00,0.9132
6809.00,0.9239
6808.00,0.9346
6807.00,0.9451
6806.00,0.9557
6805.00,0.9661
6804.00,0.9763
6803.00,0.9861
6802.00,0.9957
6801.00,1.0054
6800.00,1.0154
6799.00,1.0253
6798.00,1.0350
6797.00,1.0442
6796.00,1.0530
6795.00,1.0614
6794.00,1.0694
6793.00,1.0771
6792.00,1.0845
6791.00,1.0917
6790.00,1.0990
6789.00,1.1063
6788.00,1.1134
6787.00,1.1201
6786.00,1.1266
6785.00,1.1330
6784.00,1.1392
6783.00,1.1448
6782.00,1.1497
6781.00,1.1542
6780.00,1.1585
6779.00,1.1623
6778.00,1.1656
6777.00,1.1687
6776.00,1.1719
6775.00,1.1751
6774.00,1.1778
6773.00,1.1800
6772.00,1.1819
6771.00,1.1835
6770.00,1.1845
6769.00,1.1847
6768.00,1.1842
6767.00,1.1834
6766.00,1.1823
6765.00,1.1807
6764.00,1.1789
6763.00,1.1768
6762.00,1.1746
6761.00,1.1721
6760.00,1.1691
6759.00,1.1659
6758.00,1.1627
6757.00,1.1591
6756.00,1.1551
6755.00,1.1506
6754.00,1.1460
6753.00,1.1411
6752.00,1.1356
6751.00,1.1295
6750.00,1.1228
6749.00,1.1159
6748.00,1.1088
6747.00,1.1016
6746.00,1.0941
6745.00,1.0863
6744.00,1.0781
6743.00,1.0697
6742.00,1.0610
6741.00,1.0523
6740.00,1.0434
6739.00,1.0344
6738.00,1.0253
6737.00,1.0161
6736.00,1.0068
6735.00,0.9974
6734.00,0.9877
6733.00,0.9778
6732.00,0.9675
6731.00,0.9571
6730.00,0.9468
6729.00,0.9366
6728.00,0.9264
6727.00,0.9162
6726.00,0.9061
6725.00,0.8963
6724.00,0.8867
6723.00,0.8770
6722.00,0.8673
6721.00,0.8579
6720.00,0.8489
6719.00,0.8402
6718.00,0.8319
6717.00,0.8239
6716.00,0.8163
6715.00,0.8089
6714.00,0.8017
6713.00,0.7948
6712.00,0.7885
6711.00,0.7829
6710.00,0.7777
6709.00,0.7730
6708.00,0.7688
6707.00,0.7651
6706.00,0.7619
6705.00,0.7590
6704.00,0.7567
6703.00,0.7549
6702.00,0.7539
6701.00,0.7536
6700.00,0.7538
6699.00,0.7545
6698.00,0.7558
6697.00,0.7576
6696.00,0.7601
6695.00,0.7632
6694.00,0.7669
6693.00,0.7713
6692.00,0.7762
6691.00,0.7817
6690.00,0.7877
6689.00,0.7941
6688.00,0.8008
6687.00,0.8078
6686.00,0.8153
6685.00,0.8231
6684.00,0.8313
6683.00,0.8398
6682.00,0.8486
6681.00,0.8577
6680.00,0.8671
6679.00,0.8768
6678.00,0.8867
6677.00,0.8966
6676.00,0.9065
6675.00,0.9166
6674.00,0.9268
6673.00,0.9372
6672.00,0.9474
6671.00,0.9576
6670.00,0.9679
6669.00,0.9784
6668.00,0.9887
6667.00,0.9984
6666.00,1.0077
6665.00,1.0168
6664.00,1.0260
6663.00,1.0354
6662.00,1.0450
6661.00,1.0545
6660.00,1.0638
6659.00,1.0730
6658.00,1.0819
6657.00,1.0900
6656.00,1.0973
6655.00,1.1042
6654.00,1.1111
6653.00,1.1179
6652.00,1.1244
6651.00,1.1305
6650.00,1.1362
6649.00,1.1414
6648.00,1.1461
6647.00,1.1505
6646.00,1.1550
6645.00,1.1597
6644.00,1.1641
6643.00,1.1680
6642.00,1.1714
6641.00,1.1746
6640.00,1.1772
6639.00,1.1791
6638.00,1.1803
6637.00,1.1809
6636.00,1.1810
6635.00,1.1806
6634.00,1.1801
6633.00,1.1797
6632.00,1.1792
6631.00,1.1786
6630.00,1.1776
6629.00,1.1762
6628.00,1.1743
6627.00,1.1717
6626.00,1.1684
6625.00,1.1646
6624.00,1.1605
6623.00,1.1564
6622.00,1.1521
6621.00,1.1478
6620.00,1.1430
6619.00,1.1376
6618.00,1.1319
6617.00,1.1256
6616.00,1.1189
6615.00,1.1118
6614.00,1.1045
6613.00,1.0973
6612.00,1.0899
6611.00,1.0822
6610.00,1.0742
6609.00,1.0660
6608.00,1.0575
6607.00,1.0485
6606.00,1.0391
6605.00,1.0296
6604.00,1.0202
6603.00,1.0108
6602.00,1.0013
6601.00,0.9914
6600.00,0.9811
6599.00,0.9707
6598.00,0.9603
6597.00,0.9500
6596.00,0.9396
6595.00,0.9292
6594.00,0.9190
6593.00,0.9092
6592.00,0.8995
6591.00,0.8897
6590.00,0.8800
6589.00,0.8705
6588.00,0.8612
6587.00,0.8520
6586.00,0.8429
6585.00,0.8341
6584.00,0.8256
6583.00,0.8172
6582.00,0.8090
6581.00,0.8012
6580.00,0.7938
6579.00,0.7868
6578.00,0.7802
6577.00,0.7741
6576.00,0.7683
6575.00,0.7628
6574.00,0.7577
6573.00,0.7530
6572.00,0.7488
6571.00,0.7451
6570.00,0.7421
6569.00,0.7396
6568.00,0.7376
6567.00,0.7360
6566.00,0.7351
6565.00,0.7348
6564.00,0.7350
6563.00,0.7356
6562.00,0.7369
6561.00,0.7389
6560.00,0.7415
6559.00,0.7446
6558.00,0.7482
6557.00,0.7524
6556.00,0.7572
6555.00,0.7627
6554.00,0.7686
6553.00,0.7750
6552.00,0.7817
6551.00,0.7888
6550.00,0.7961
6549.00,0.8039
6548.00,0.8122
6547.00,0.8210
6546.00,0.8303
6545.00,0.8401
6544.00,0.8502
6543.00,0.8605
6542.00,0.8709
6541.00,0.8814
6540.00,0.8920
6539.00,0.9026
6538.00,0.9133
6537.00,0.9242
6536.00,0.9349
6535.00,0.9456
6534.00,0.9563
6533.00,0.9670
6532.00,0.9777
6531.00,0.9882
6530.00,0.9988
6529.00,1.0094
6528.00,1.0199
6527.00,1.0303
6526.00,1.0404
6525.00,1.0502
6524.00,1.0597
6523.00,1.0689
6522.00,1.0779
6521.00,1.0865
6520.00,1.0947
6519.00,1.1024
6518.00,1.1099
6517.00,1.1175
6516.00,1.1250
6515.00,1.1322
6514.00,1.1393
6513.00,1.1461
6512.00,1.1526
6511.00,1.1587
6510.00,1.1642
6509.00,1.1693
6508.00,1.1739
6507.00,1.1780
6506.00,1.1817
6505.00,1.1851
6504.00,1.1884
6503.00,1.1914
6502.00,1.1942
6501.00,1.1968
6500.00,1.1991
6499.00,1.2008
6498.00,1.2021
6497.00,1.2031
6496.00,1.2036
6495.00,1.2037
6494.00,1.2036
6493.00,1.2032
6492.00,1.2023
6491.00,1.2010
6490.00,1.1991
6489.00,1.1969
6488.00,1.1943
6487.00,1.1915
6486.00,1.1886
6485.00,1.1854
6484.00,1.1818
6483.00,1.1773
6482.00,1.1722
6481.00,1.1669
6480.00,1.1613
6479.00,1.1554
6478.00,1.1492
6477.00,1.1427
6476.00,1.1361
6475.00,1.1293
6474.00,1.1221
6473.00,1.1144
6472.00,1.1060
6471.00,1.0972
6470.00,1.0882
6469.00,1.0790
6468.00,1.0697
6467.00,1.0602
6466.00,1.0506
6465.00,1.0412
6464.00,1.0318
6463.00,1.0220
6462.00,1.0116
6461.00,1.0007
6460.00,0.9897
6459.00,0.9786
6458.00,0.9675
6457.00,0.9565
6456.00,0.9455
6455.00,0.9348
6454.00,0.9242
6453.00,0.9135
6452.00,0.9027
6451.00,0.8919
6450.00,0.8814
6449.00,0.8711
6448.00,0.8610
6447.00,0.8510
6446.00,0.8413
6445.00,0.8320
6444.00,0.8231
6443.00,0.8144
6442.00,0.8060
6441.00,0.7982
6440.00,0.7908
6439.00,0.7839
6438.00,0.7775
6437.00,0.7716
6436.00,0.7662
6435.00,0.7612
6434.00,0.7568
6433.00,0.7530
6432.00,0.7498
6431.00,0.7472
6430.00,0.7452
6429.00,0.7439
6428.00,0.7432
6427.00,0.7431
6426.00,0.7436
6425.00,0.7446
6424.00,0.7463
6423.00,0.7486
6422.00,0.7516
6421.00,0.7552
6420.00,0.7596
6419.00,0.7645
6418.00,0.7701
6417.00,0.7762
6416.00,0.7829
6415.00,0.7900
6414.00,0.7975
6413.00,0.8055
6412.00,0.8137
6411.00,0.8223
6410.00,0.8314
6409.00,0.8409
6408.00,0.8507
6407.00,0.8607
6406.00,0.8708
6405.00,0.8809
6404.00,0.8913
6403.00,0.9017
6402.00,0.9124
6401.00,0.9232
6400.00,0.9340
6399.00,0.9450
6398.00,0.9561
6397.00,0.9672
6396.00,0.9781
6395.00,0.9888
6394.00,0.9993
6393.00,1.0098
6392.00,1.0201
6391.00,1.0300
6390.00,1.0396
6389.00,1.0489
6388.00,1.0579
6387.00,1.0667
6386.00,1.0753
6385.00,1.0839
6384.00,1.0924
6383.00,1.1006
6382.00,1.1084
6381.00,1.1159
6380.00,1.1230
6379.00,1.1297
6378.00,1.1363
6377.00,1.1426
6376.00,1.1486
6375.00,1.1542
6374.00,1.1594
6373.00,1.1641
6372.00,1.1682
6371.00,1.1720
6370.00,1.1756
6369.00,1.1792
6368.00,1.1825
6367.00,1.1852
6366.00,1.1871
6365.00,1.1887
6364.00,1.1901
6363.00,1.1913
6362.00,1.1921
6361.00,1.1925
6360.00,1.1922
6359.00,1.1915
6358.00,1.1903
6357.00,1.1885
6356.00,1.1861
6355.00,1.1836
6354.00,1.1810
6353.00,1.1784
6352.00,1.1754
6351.00,1.1719
6350.00,1.1682
6349.00,1.1644
6348.00,1.1603
6347.00,1.1556
6346.00,1.1507
6345.00,1.1455
6344.00,1.1399
6343.00,1.1340
6342.00,1.1279
6341.00,1.1215
6340.00,1.1149
6339.00,1.1081
6338.00,1.1013
6337.00,1.0945
6336.00,1.0874
6335.00,1.0802
6334.00,1.0728
6333.00,1.0653
6332.00,1.0575
6331.00,1.0492
6330.00,1.0404
6329.00,1.0313
6328.00,1.0217
6327.00,1.0116
6326.00,1.0009
6325.00,0.9898
6324.00,0.9783
6323.00,0.9665
6322.00,0.9546
6321.00,0.9427
6320.00,0.9307
6319.00,0.9188
6318.00,0.9072
6317.00,0.8957
6316.00,0.8843
6315.00,0.8727
6314.00,0.8611
6313.00,0.8500
6312.00,0.8392
6311.00,0.8287
6310.00,0.8184
6309.00,0.8087
6308.00,0.7995
6307.00,0.7908
6306.00,0.7825
6305.00,0.7746
6304.00,0.7671
6303.00,0.7601
6302.00,0.7535
6301.00,0.7474
6300.00,0.7416
6299.00,0.7363
6298.00,0.7317
6297.00,0.7278
6296.00,0.7245
6295.00,0.7218
6294.00,0.7197
6293.00,0.7183
6292.00,0.7175
6291.00,0.7173
6290.00,0.7177
6289.00,0.7189
6288.00,0.7205
6287.00,0.7228
6286.00,0.7259
6285.00,0.7297
6284.00,0.7343
6283.00,0.7394
6282.00,0.7449
6281.00,0.7509
6280.00,0.7574
6279.00,0.7644
6278.00,0.7718
6277.00,0.7798
6276.00,0.7882
6275.00,0.7969
6274.00,0.8061
6273.00,0.8157
6272.00,0.8255
6271.00,0.8356
6270.00,0.8460
6269.00,0.8568
6268.00,0.8679
6267.00,0.8791
6266.00,0.8904
6265.00,0.9017
6264.00,0.9132
6263.00,0.9248
6262.00,0.9363
6261.00,0.9478
6260.00,0.9592
6259.00,0.9705
6258.00,0.9815
6257.00,0.9926
6256.00,1.0035
6255.00,1.0142
6254.00,1.0246
6253.00,1.0347
6252.00,1.0448
6251.00,1.0550
6250.00,1.0650
6249.00,1.0747
6248.00,1.0839
6247.00,1.0926
6246.00,1.1012
6245.00,1.1096
6244.00,1.1176
6243.00,1.1252
6242.00,1.1327
6241.00,1.1400
6240.00,1.1468
6239.00,1.1528
6238.00,1.1582
6237.00,1.1634
6236.00,1.1685
6235.00,1.1735
6234.00,1.1784
6233.00,1.1832
6232.00,1.1874
6231.00,1.1908
6230.00,1.1936
6229.00,1.1962
6228.00,1.1985
6227.00,1.2005
6226.00,1.2021
6225.00,1.2034
6224.00,1.2043
6223.00,1.2047
6222.00,1.2047
6221.00,1.2043
6220.00,1.2033
6219.00,1.2017
6218.00,1.1999
6217.00,1.1979
6216.00,1.1959
6215.00,1.1935
6214.00,1.1908
6213.00,1.1878
6212.00,1.1846
6211.00,1.1808
6210.00,1.1763
6209.00,1.1713
6208.00,1.1658
6207.00,1.1600
6206.00,1.1537
6205.00,1.1471
6204.00,1.1402
6203.00,1.1331
6202.00,1.1256
6201.00,1.1180
6200.00,1.1100
6199.00,1.1018
6198.00,1.0934
6197.00,1.0846
6196.00,1.0754
6195.00,1.0657
6194.00,1.0556
6193.00,1.0454
6192.00,1.0350
6191.00,1.0242
6190.00,1.0132
6189.00,1.0022
6188.00,0.9911
6187.00,0.9798
6186.00,0.9682
6185.00,0.9566
6184.00,0.9449
6183.00,0.9332
6182.00,0.9214
6181.00,0.9097
6180.00,0.8981
6179.00,0.8866
6178.00,0.8751
6177.00,0.8637
6176.00,0.8525
6175.00,0.8415
6174.00,0.8307
6173.00,0.8203
6172.00,0.8103
6171.00,0.8005
6170.00,0.7910
6169.00,0.7819
6168.00,0.7733
6167.00,0.7651
6166.00,0.7574
6165.00,0.7503
6164.00,0.7438
6163.00,0.7380
6162.00,0.7327
6161.00,0.7280
6160.00,0.7237
6159.00,0.7199
6158.00,0.7166
6157.00,0.7140
6156.00,0.7120
6155.00,0.7108
6154.00,0.7104
6153.00,0.7109
6152.00,0.7123
6151.00,0.7143
6150.00,0.7169
6149.00,0.7202
6148.00,0.7240
6147.00,0.7284
6146.00,0.7335
6145.00,0.7392
6144.00,0.7456
6143.00,0.7525
6142.00,0.7600
6141.00,0.7680
6140.00,0.7765
6139.00,0.7854
6138.00,0.7945
6137.00,0.8041
6136.00,0.8140
6135.00,0.8244
6134.00,0.8352
6133.00,0.8464
6132.00,0.8578
6131.00,0.8693
6130.00,0.8808
6129.00,0.8922
6128.00,0.9035
6127.00,0.9147
6126.00,0.9260
6125.00,0.9375
6124.00,0.9489
6123.00,0.9602
6122.00,0.9714
6121.00,0.9827
6120.00,0.9939
6119.00,1.0050
6118.00,1.0160
6117.00,1.0268
6116.00,1.0374
6115.00,1.0476
6114.00,1.0573
6113.00,1.0667
6112.00,1.0759
6111.00,1.0847
6110.00,1.0931
6109.00,1.1011
6108.00,1.1088
6107.00,1.1161
6106.00,1.1232
6105.00,1.1299
6104.00,1.1363
6103.00,1.1425
6102.00,1.1485
6101.00,1.1544
6100.00,1.1599
6099.00,1.1648
6098.00,1.1691
6097.00,1.1729
6096.00,1.1765
6095.00,1.1798
6094.00,1.1826
6093.00,1.1848
6092.00,1.1865
6091.00,1.1878
6090.00,1.1885
6089.00,1.1888
6088.00,1.1888
6087.00,1.1888
6086.00,1.1886
6085.00,1.1882
6084.00,1.1874
6083.00,1.1864
6082.00,1.1851
6081.00,1.1834
6080.00,1.1810
6079.00,1.1780
6078.00,1.1746
6077.00,1.1707
6076.00,1.1663
6075.00,1.1615
6074.00,1.1565
6073.00,1.1517
6072.00,1.1467
6071.00,1.1416
6070.00,1.1361
6069.00,1.1302
6068.00,1.1237
6067.00,1.1165
6066.00,1.1088
6065.00,1.1007
6064.00,1.0924
6063.00,1.0842
6062.00,1.0759
6061.00,1.0676
6060.00,1.0590
6059.00,1.0498
6058.00,1.0400
6057.00,1.0299
6056.00,1.0197
6055.00,1.0094
6054.00,0.9991
6053.00,0.9887
6052.00,0.9780
6051.00,0.9670
6050.00,0.9557
6049.00,0.9442
6048.00,0.9327
6047.00,0.9212
6046.00,0.9098
6045.00,0.8983
6044.00,0.8868
6043.00,0.8752
6042.00,0.8637
6041.00,0.8522
6040.00,0.8408
6039.00,0.8295
6038.00,0.8185
6037.00,0.8079
6036.00,0.7976
6035.00,0.7875
6034.00,0.7777
6033.00,0.7684
6032.00,0.7595
6031.00,0.7510
6030.00,0.7430
6029.00,0.7355
6028.00,0.7287
6027.00,0.7224
6026.00,0.7166
6025.00,0.7114
6024.00,0.7068
6023.00,0.7028
6022.00,0.6996
6021.00,0.6971
6020.00,0.6953
6019.00,0.6942
6018.00,0.6937
6017.00,0.6941
6016.00,0.6951
6015.00,0.6967
6014.00,0.6991
6013.00,0.7023
6012.00,0.7061
6011.00,0.7106
6010.00,0.7157
6009.00,0.7216
6008.00,0.7282
6007.00,0.7353
6006.00,0.7429
6005.00,0.7512
6004.00,0.7600
6003.00,0.7693
6002.00,0.7790
6001.00,0.7891
6000.00,0.7997
5999.00,0.8105
5998.00,0.8214
5997.00,0.8325
5996.00,0.8438
5995.00,0.8552
5994.00,0.8667
5993.00,0.8784
5992.00,0.8903
5991.00,0.9024
5990.00,0.9146
5989.00,0.9268
5988.00,0.9389
5987.00,0.9507
5986.00,0.9624
5985.00,0.9738
5984.00,0.9850
5983.00,0.9962
5982.00,1.0074
5981.00,1.0187
5980.00,1.0298
5979.00,1.0407
5978.00,1.0511
5977.00,1.0611
5976.00,1.0708
5975.00,1.0804
5974.00,1.0899
5973.00,1.0991
5972.00,1.1081
5971.00,1.1169
5970.00,1.1250
5969.00,1.1326
5968.00,1.1396
5967.00,1.1465
5966.00,1.1532
5965.00,1.1599
5964.00,1.1662
5963.00,1.1723
5962.00,1.1778
5961.00,1.1829
5960.00,1.1874
5959.00,1.1914
5958.00,1.1949
5957.00,1.1981
5956.00,1.2010
5955.00,1.2037
5954.00,1.2064
5953.00,1.2088
5952.00,1.2108
5951.00,1.2122
5950.00,1.2129
5949.00,1.2128
5948.00,1.2121
5947.00,1.2110
5946.00,1.2096
5945.00,1.2080
5944.00,1.2061
5943.00,1.2038
5942.00,1.2008
5941.00,1.1974
5940.00,1.1935
5939.00,1.1894
5938.00,1.1851
5937.00,1.1807
5936.00,1.1761
5935.00,1.1710
5934.00,1.1654
5933.00,1.1594
5932.00,1.1530
5931.00,1.1463
5930.00,1.1392
5929.00,1.1320
5928.00,1.1243
5927.00,1.1159
5926.00,1.1070
5925.00,1.0978
5924.00,1.0883
5923.00,1.0786
5922.00,1.0686
5921.00,1.0582
5920.00,1.0476
5919.00,1.0367
5918.00,1.0254
5917.00,1.0137
5916.00,1.0017
5915.00,0.9896
5914.00,0.9775
5913.00,0.9652
5912.00,0.9527
5911.00,0.9401
5910.00,0.9276
5909.00,0.9151
5908.00,0.9026
5907.00,0.8900
5906.00,0.8774
5905.00,0.8651
5904.00,0.8531
5903.00,0.8411
5902.00,0.8293
5901.00,0.8176
5900.00,0.8062
5899.00,0.7951
5898.00,0.7843
5897.00,0.7740
5896.00,0.7641
5895.00,0.7546
5894.00,0.7458
5893.00,0.7375
5892.00,0.7298
5891.00,0.7226
5890.00,0.7159
5889.00,0.7099
5888.00,0.7046
5887.00,0.7000
5886.00,0.6960
5885.00,0.6927
5884.00,0.6902
5883.00,0.6883
5882.00,0.6872
5881.00,0.6868
5880.00,0.6872
5879.00,0.6884
5878.00,0.6905
5877.00,0.6933
5876.00,0.6968
5875.00,0.7010
5874.00,0.7059
5873.00,0.7116
5872.00,0.7181
5871.00,0.7252
5870.00,0.7329
5869.00,0.7412
5868.00,0.7501
5867.00,0.7594
5866.00,0.7691
5865.00,0.7793
5864.00,0.7898
5863.00,0.8006
5862.00,0.8116
5861.00,0.8229
5860.00,0.8346
5859.00,0.8466
5858.00,0.8590
5857.00,0.8718
5856.00,0.8848
5855.00,0.8978
5854.00,0.9107
5853.00,0.9233
5852.00,0.9356
5851.00,0.9479
5850.00,0.9600
5849.00,0.9723
5848.00,0.9846
5847.00,0.9970
5846.00,1.0092
5845.00,1.0210
5844.00,1.0323
5843.00,1.0432
5842.00,1.0538
5841.00,1.0641
5840.00,1.0742
5839.00,1.0842
5838.00,1.0943
5837.00,1.1041
5836.00,1.1135
5835.00,1.1224
5834.00,1.1308
5833.00,1.1387
5832.00,1.1460
5831.00,1.1528
5830.00,1.1595
5829.00,1.1661
5828.00,1.1721
5827.00,1.1776
5826.00,1.1826
5825.00,1.1871
5824.00,1.1912
5823.00,1.1948
5822.00,1.1982
5821.00,1.2014
5820.00,1.2044
5819.00,1.2071
5818.00,1.2092
5817.00,1.2108
5816.00,1.2121
5815.00,1.2132
5814.00,1.2143
5813.00,1.2149
5812.00,1.2150
5811.00,1.2146
5810.00,1.2139
5809.00,1.2129
5808.00,1.2114
5807.00,1.2095
5806.00,1.2073
5805.00,1.2049
5804.00,1.2022
5803.00,1.1987
5802.00,1.1946
5801.00,1.1901
5800.00,1.1852
5799.00,1.1802
5798.00,1.1748
5797.00,1.1689
5796.00,1.1625
5795.00,1.1555
5794.00,1.1482
5793.00,1.1407
5792.00,1.1330
5791.00,1.1251
5790.00,1.1170
5789.00,1.1084
5788.00,1.0995
5787.00,1.0900
5786.00,1.0801
5785.00,1.0698
5784.00,1.0592
5783.00,1.0484
5782.00,1.0372
5781.00,1.0256
5780.00,1.0137
5779.00,1.0015
5778.00,0.9891
5777.00,0.9765
5776.00,0.9638
5775.00,0.9510
5774.00,0.9383
5773.00,0.9255
5772.00,0.9125
5771.00,0.8995
5770.00,0.8864
5769.00,0.8734
5768.00,0.8604
5767.00,0.8477
5766.00,0.8354
5765.00,0.8233
5764.00,0.8115
5763.00,0.7997
5762.00,0.7883
5761.00,0.7772
5760.00,0.7665
5759.00,0.7562
5758.00,0.7464
5757.00,0.7370
5756.00,0.7281
5755.00,0.7198
5754.00,0.7122
5753.00,0.7052
5752.00,0.6989
5751.00,0.6934
5750.00,0.6886
5749.00,0.6844
5748.00,0.6809
5747.00,0.6781
5746.00,0.6760
5745.00,0.6748
5744.00,0.6745
5743.00,0.6749
5742.00,0.6762
5741.00,0.6783
5740.00,0.6812
5739.00,0.6848
5738.00,0.6892
5737.00,0.6943
5736.00,0.7002
5735.00,0.7067
5734.00,0.7139
5733.00,0.7217
5732.00,0.7302
5731.00,0.7392
5730.00,0.7488
5729.00,0.7589
5728.00,0.7694
5727.00,0.7803
5726.00,0.7917
5725.00,0.8033
5724.00,0.8152
5723.00,0.8273
5722.00,0.8397
5721.00,0.8522
5720.00,0.8648
5719.00,0.8775
5718.00,0.8904
5717.00,0.9032
5716.00,0.9160
5715.00,0.9287
5714.00,0.9413
5713.00,0.9540
5712.00,0.9665
5711.00,0.9788
5710.00,0.9910
5709.00,1.0031
5708.00,1.0150
5707.00,1.0265
5706.00,1.0378
5705.00,1.0489
5704.00,1.0595
5703.00,1.0697
5702.00,1.0796
5701.00,1.0893
5700.00,1.0987
5699.00,1.1078
5698.00,1.1165
5697.00,1.1251
5696.00,1.1334
5695.00,1.1414
5694.00,1.1491
5693.00,1.1566
5692.00,1.1638
5691.00,1.1706
5690.00,1.1771
5689.00,1.1830
5688.00,1.1881
5687.00,1.1926
5686.00,1.1967
5685.00,1.2006
5684.00,1.2042
5683.00,1.2078
5682.00,1.2113
5681.00,1.2147
5680.00,1.2177
5679.00,1.2200
5678.00,1.2216
5677.00,1.2226
5676.00,1.2231
5675.00,1.2232
5674.00,1.2231
5673.00,1.2227
5672.00,1.2220
5671.00,1.2207
5670.00,1.2190
5669.00,1.2168
5668.00,1.2142
5667.00,1.2112
5666.00,1.2078
5665.00,1.2042
5664.00,1.2001
5663.00,1.1955
5662.00,1.1903
5661.00,1.1848
5660.00,1.1792
5659.00,1.1731
5658.00,1.1667
5657.00,1.1599
5656.00,1.1528
5655.00,1.1451
5654.00,1.1370
5653.00,1.1284
5652.00,1.1193
5651.00,1.1097
5650.00,1.0996
5649.00,1.0892
5648.00,1.0786
5647.00,1.0679
5646.00,1.0570
5645.00,1.0458
5644.00,1.0341
5643.00,1.0219
5642.00,1.0093
5641.00,0.9966
5640.00,0.9837
5639.00,0.9707
5638.00,0.9576
5637.00,0.9444
5636.00,0.9310
5635.00,0.9175
5634.00,0.9039
5633.00,0.8903
5632.00,0.8767
5631.00,0.8633
5630.00,0.8500
5629.00,0.8369
5628.00,0.8241
5627.00,0.8116
5626.00,0.7993
5625.00,0.7874
5624.00,0.7757
5623.00,0.7644
5622.00,0.7535
5621.00,0.7432
5620.00,0.7334
5619.00,0.7243
5618.00,0.7157
5617.00,0.7078
5616.00,0.7006
5615.00,0.6940
5614.00,0.6881
5613.00,0.6830
5612.00,0.6788
5611.00,0.6754
5610.00,0.6728
5609.00,0.6711
5608.00,0.6702
5607.00,0.6700
5606.00,0.6708
5605.00,0.6724
5604.00,0.6749
5603.00,0.6782
5602.00,0.6825
5601.00,0.6877
5600.00,0.6936
5599.00,0.7002
5598.00,0.7076
5597.00,0.7157
5596.00,0.7245
5595.00,0.7339
5594.00,0.7439
5593.00,0.7544
5592.00,0.7654
5591.00,0.7768
5590.00,0.7886
5589.00,0.8008
5588.00,0.8135
5587.00,0.8264
5586.00,0.8397
5585.00,0.8531
5584.00,0.8666
5583.00,0.8802
5582.00,0.8939
5581.00,0.9076
5580.00,0.9214
5579.00,0.9350
5578.00,0.9485
5577.00,0.9621
5576.00,0.9756
5575.00,0.9890
5574.00,1.0023
5573.00,1.0153
5572.00,1.0281
5571.00,1.0404
5570.00,1.0523
5569.00,1.0639
5568.00,1.0753
5567.00,1.0866
5566.00,1.0978
5565.00,1.1086
5564.00,1.1189
5563.00,1.1285
5562.00,1.1376
5561.00,1.1465
5560.00,1.1552
5559.00,1.1637
5558.00,1.1720
5557.00,1.1799
5556.00,1.1873
5555.00,1.1939
5554.00,1.1997
5553.00,1.2051
5552.00,1.2102
5551.00,1.2151
5550.00,1.2198
5549.00,1.2241
5548.00,1.2280
5547.00,1.2314
5546.00,1.2345
5545.00,1.2372
5544.00,1.2395
5543.00,1.2415
5542.00,1.2430
5541.00,1.2443
5540.00,1.2451
5539.00,1.2453
5538.00,1.2450
5537.00,1.2443
5536.00,1.2431
5535.00,1.2415
5534.00,1.2395
5533.00,1.2371
5532.00,1.2345
5531.00,1.2317
5530.00,1.2285
5529.00,1.2248
5528.00,1.2208
5527.00,1.2162
5526.00,1.2109
5525.00,1.2051
5524.00,1.1989
5523.00,1.1923
5522.00,1.1854
5521.00,1.1784
5520.00,1.1712
5519.00,1.1636
5518.00,1.1555
5517.00,1.1470
5516.00,1.1378
5515.00,1.1281
5514.00,1.1179
5513.00,1.1074
5512.00,1.0965
5511.00,1.0854
5510.00,1.0738
5509.00,1.0619
5508.00,1.0496
5507.00,1.0370
5506.00,1.0241
5505.00,1.0110
5504.00,0.9976
5503.00,0.9841
5502.00,0.9702
5501.00,0.9562
5500.00,0.9418
5499.00,0.9274
5498.00,0.9129
5497.00,0.8985
5496.00,0.8842
5495.00,0.8699
5494.00,0.8557
5493.00,0.8416
5492.00,0.8276
5491.00,0.8139
5490.00,0.8005
5489.00,0.7876
5488.00,0.7750
5487.00,0.7629
5486.00,0.7512
5485.00,0.7401
5484.00,0.7295
5483.00,0.7195
5482.00,0.7101
5481.00,0.7013
5480.00,0.6931
5479.00,0.6858
5478.00,0.6793
5477.00,0.6736
5476.00,0.6689
5475.00,0.6652
5474.00,0.6624
5473.00,0.6605
5472.00,0.6595
5471.00,0.6593
5470.00,0.6599
5469.00,0.6613
5468.00,0.6637
5467.00,0.6669
5466.00,0.6711
5465.00,0.6761
5464.00,0.6820
5463.00,0.6887
5462.00,0.6962
5461.00,0.7046
5460.00,0.7138
5459.00,0.7237
5458.00,0.7342
5457.00,0.7453
5456.00,0.7569
5455.00,0.7690
5454.00,0.7814
5453.00,0.7942
5452.00,0.8072
5451.00,0.8205
5450.00,0.8340
5449.00,0.8478
5448.00,0.8619
5447.00,0.8762
5446.00,0.8907
5445.00,0.9052
5444.00,0.9197
5443.00,0.9341
5442.00,0.9484
5441.00,0.9627
5440.00,0.9770
5439.00,0.9911
5438.00,1.0049
5437.00,1.0185
5436.00,1.0320
5435.00,1.0452
5434.00,1.0583
5433.00,1.0710
5432.00,1.0832
5431.00,1.0948
5430.00,1.1062
5429.00,1.1174
5428.00,1.1284
5427.00,1.1391
5426.00,1.1494
5425.00,1.1593
5424.00,1.1687
5423.00,1.1778
5422.00,1.1866
5421.00,1.1950
5420.00,1.2028
5419.00,1.2100
5418.00,1.2165
5417.00,1.2226
5416.00,1.2283
5415.00,1.2337
5414.00,1.2388
5413.00,1.2435
5412.00,1.2479
5411.00,1.2520
5410.00,1.2559
5409.00,1.2595
5408.00,1.2627
5407.00,1.2654
5406.00,1.2675
5405.00,1.2692
5404.00,1.2703
5403.00,1.2711
5402.00,1.2713
5401.00,1.2709
5400.00,1.2700
5399.00,1.2690
5398.00,1.2678
5397.00,1.2663
5396.00,1.2644
5395.00,1.2621
5394.00,1.2593
5393.00,1.2560
5392.00,1.2521
5391.00,1.2479
5390.00,1.2433
5389.00,1.2384
5388.00,1.2330
5387.00,1.2269
5386.00,1.2206
5385.00,1.2140
5384.00,1.2071
5383.00,1.1997
5382.00,1.1919
5381.00,1.1837
5380.00,1.1752
5379.00,1.1661
5378.00,1.1565
5377.00,1.1462
5376.00,1.1355
5375.00,1.1243
5374.00,1.1127
5373.00,1.1009
5372.00,1.0888
5371.00,1.0763
5370.00,1.0635
5369.00,1.0503
5368.00,1.0368
5367.00,1.0232
5366.00,1.0094
5365.00,0.9954
5364.00,0.9810
5363.00,0.9663
5362.00,0.9515
5361.00,0.9366
5360.00,0.9217
5359.00,0.9069
5358.00,0.8921
5357.00,0.8776
5356.00,0.8630
5355.00,0.8485
5354.00,0.8343
5353.00,0.8205
5352.00,0.8071
5351.00,0.7939
5350.00,0.7811
5349.00,0.7688
5348.00,0.7571
5347.00,0.7461
5346.00,0.7359
5345.00,0.7263
5344.00,0.7174
5343.00,0.7091
5342.00,0.7016
5341.00,0.6951
5340.00,0.6895
5339.00,0.6849
5338.00,0.6811
5337.00,0.6782
5336.00,0.6761
5335.00,0.6749
5334.00,0.6746
5333.00,0.6754
5332.00,0.6773
5331.00,0.6802
5330.00,0.6842
5329.00,0.6892
5328.00,0.6951
5327.00,0.7019
5326.00,0.7095
5325.00,0.7180
5324.00,0.7271
5323.00,0.7370
5322.00,0.7475
5321.00,0.7587
5320.00,0.7705
5319.00,0.7829
5318.00,0.7957
5317.00,0.8090
5316.00,0.8228
5315.00,0.8369
5314.00,0.8514
5313.00,0.8660
5312.00,0.8809
5311.00,0.8958
5310.00,0.9108
5309.00,0.9258
5308.00,0.9407
5307.00,0.9556
5306.00,0.9706
5305.00,0.9856
5304.00,1.0006
5303.00,1.0153
5302.00,1.0297
5301.00,1.0438
5300.00,1.0575
5299.00,1.0710
5298.00,1.0842
5297.00,1.0973
5296.00,1.1100
5295.00,1.1224
5294.00,1.1343
5293.00,1.1459
5292.00,1.1570
5291.00,1.1677
5290.00,1.1780
5289.00,1.1879
5288.00,1.1973
5287.00,1.2064
5286.00,1.2152
5285.00,1.2238
5284.00,1.2319
5283.00,1.2394
5282.00,1.2462
5281.00,1.2524
5280.00,1.2582
5279.00,1.2637
5278.00,1.2691
5277.00,1.2743
5276.00,1.2792
5275.00,1.2837
5274.00,1.2876
5273.00,1.2908
5272.00,1.2933
5271.00,1.2953
5270.00,1.2967
5269.00,1.2978
5268.00,1.2986
5267.00,1.2993
5266.00,1.2997
5265.00,1.2998
5264.00,1.2994
5263.00,1.2986
5262.00,1.2975
5261.00,1.2960
5260.00,1.2941
5259.00,1.2918
5258.00,1.2891
5257.00,1.2860
5256.00,1.2823
5255.00,1.2782
5254.00,1.2737
5253.00,1.2687
5252.00,1.2633
5251.00,1.2574
5250.00,1.2512
5249.00,1.2447
5248.00,1.2376
5247.00,1.2301
5246.00,1.2221
5245.00,1.2137
5244.00,1.2047
5243.00,1.1952
5242.00,1.1852
5241.00,1.1749
5240.00,1.1642
5239.00,1.1533
5238.00,1.1420
5237.00,1.1305
5236.00,1.1185
5235.00,1.1062
5234.00,1.0933
5233.00,1.0799
5232.00,1.0659
5231.00,1.0514
5230.00,1.0368
5229.00,1.0219
5228.00,1.0068
5227.00,0.9914
5226.00,0.9756
5225.00,0.9596
5224.00,0.9435
5223.00,0.9276
5222.00,0.9120
5221.00,0.8965
5220.00,0.8812
5219.00,0.8658
5218.00,0.8506
5217.00,0.8357
5216.00,0.8212
5215.00,0.8071
5214.00,0.7935
5213.00,0.7803
5212.00,0.7677
5211.00,0.7556
5210.00,0.7443
5209.00,0.7338
5208.00,0.7240
5207.00,0.7151
5206.00,0.7071
5205.00,0.7002
5204.00,0.6942
5203.00,0.6893
5202.00,0.6854
5201.00,0.6828
5200.00,0.6812
5199.00,0.6806
5198.00,0.6810
5197.00,0.6822
5196.00,0.6843
5195.00,0.6871
5194.00,0.6907
5193.00,0.6951
5192.00,0.7000
5191.00,0.7056
5190.00,0.7118
5189.00,0.7189
5188.00,0.7268
5187.00,0.7356
5186.00,0.7454
5185.00,0.7561
5184.00,0.7676
5183.00,0.7798
5182.00,0.7925
5181.00,0.8058
5180.00,0.8195
5179.00,0.8338
5178.00,0.8485
5177.00,0.8636
5176.00,0.8789
5175.00,0.8944
5174.00,0.9100
5173.00,0.9257
5172.00,0.9414
5171.00,0.9570
5170.00,0.9728
5169.00,0.9885
5168.00,1.0041
5167.00,1.0194
5166.00,1.0346
5165.00,1.0496
5164.00,1.0643
5163.00,1.0788
5162.00,1.0930
5161.00,1.1069
5160.00,1.1205
5159.00,1.1335
5158.00,1.1462
5157.00,1.1584
5156.00,1.1702
5155.00,1.1816
5154.00,1.1928
5153.00,1.2038
5152.00,1.2143
5151.00,1.2242
5150.00,1.2336
5149.00,1.2425
5148.00,1.2509
5147.00,1.2590
5146.00,1.2668
5145.00,1.2743
5144.00,1.2813
5143.00,1.2877
5142.00,1.2936
5141.00,1.2990
5140.00,1.3040
5139.00,1.3087
5138.00,1.3129
5137.00,1.3167
5136.00,1.3200
5135.00,1.3228
5134.00,1.3253
5133.00,1.3276
5132.00,1.3296
5131.00,1.3312
5130.00,1.3323
5129.00,1.3329
5128.00,1.3329
5127.00,1.3324
5126.00,1.3314
5125.00,1.3299
5124.00,1.3281
5123.00,1.3260
5122.00,1.3236
5121.00,1.3209
5120.00,1.3176
5119.00,1.3137
5118.00,1.3093
5117.00,1.3045
5116.00,1.2993
5115.00,1.2939
5114.00,1.2881
5113.00,1.2818
5112.00,1.2750
5111.00,1.2675
5110.00,1.2596
5109.00,1.2514
5108.00,1.2429
5107.00,1.2338
5106.00,1.2242
5105.00,1.2141
5104.00,1.2035
5103.00,1.1925
5102.00,1.1812
5101.00,1.1695
5100.00,1.1575
5099.00,1.1450
5098.00,1.1319
5097.00,1.1183
5096.00,1.1044
5095.00,1.0901
5094.00,1.0756
5093.00,1.0608
5092.00,1.0456
5091.00,1.0301
5090.00,1.0142
5089.00,0.9981
5088.00,0.9818
5087.00,0.9655
5086.00,0.9491
5085.00,0.9328
5084.00,0.9166
5083.00,0.9005
5082.00,0.8846
5081.00,0.8689
5080.00,0.8534
5079.00,0.8383
5078.00,0.8235
5077.00,0.8093
5076.00,0.7956
5075.00,0.7824
5074.00,0.7699
5073.00,0.7580
5072.00,0.7468
5071.00,0.7363
5070.00,0.7268
5069.00,0.7181
5068.00,0.7104
5067.00,0.7037
5066.00,0.6980
5065.00,0.6933
5064.00,0.6897
5063.00,0.6872
5062.00,0.6858
5061.00,0.6854
5060.00,0.6862
5059.00,0.6880
5058.00,0.6908
5057.00,0.6947
5056.00,0.6998
5055.00,0.7058
5054.00,0.7130
5053.00,0.7212
5052.00,0.7303
5051.00,0.7404
5050.00,0.7513
5049.00,0.7629
5048.00,0.7752
5047.00,0.7882
5046.00,0.8018
5045.00,0.8161
5044.00,0.8309
5043.00,0.8463
5042.00,0.8620
5041.00,0.8780
5040.00,0.8942
5039.00,0.9105
5038.00,0.9269
5037.00,0.9434
5036.00,0.9599
5035.00,0.9764
5034.00,0.9929
5033.00,1.0094
5032.00,1.0257
5031.00,1.0417
5030.00,1.0576
5029.00,1.0732
5028.00,1.0885
5027.00,1.1035
5026.00,1.1183
5025.00,1.1327
5024.00,1.1468
5023.00,1.1603
5022.00,1.1732
5021.00,1.1857
5020.00,1.1979
5019.00,1.2097
5018.00,1.2213
5017.00,1.2324
5016.00,1.2432
5015.00,1.2535
5014.00,1.2632
5013.00,1.2726
5012.00,1.2816
5011.00,1.2901
5010.00,1.2981
5009.00,1.3054
5008.00,1.3122
5007.00,1.3184
5006.00,1.3242
5005.00,1.3294
5004.00,1.3343
5003.00,1.3390
5002.00,1.3436
5001.00,1.3478
5000.00,1.3515
4999.00,1.3547
4998.00,1.3575
4997.00,1.3598
4996.00,1.3615
4995.00,1.3627
4994.00,1.3634
4993.00,1.3637
4992.00,1.3637
4991.00,1.3634
4990.00,1.3628
4989.00,1.3616
4988.00,1.3596
4987.00,1.3569
4986.00,1.3538
4985.00,1.3503
4984.00,1.3466
4983.00,1.3425
4982.00,1.3380
4981.00,1.3333
4980.00,1.3281
4979.00,1.3226
4978.00,1.3167
4977.00,1.3104
4976.00,1.3036
4975.00,1.2963
4974.00,1.2886
4973.00,1.2805
4972.00,1.2717
4971.00,1.2624
4970.00,1.2527
4969.00,1.2426
4968.00,1.2320
4967.00,1.2211
4966.00,1.2095
4965.00,1.1974
4964.00,1.1845
4963.00,1.1711
4962.00,1.1572
4961.00,1.1430
4960.00,1.1283
4959.00,1.1131
4958.00,1.0976
4957.00,1.0817
4956.00,1.0657
4955.00,1.0495
4954.00,1.0330
4953.00,1.0163
4952.00,0.9993
4951.00,0.9822
4950.00,0.9650
4949.00,0.9479
4948.00,0.9308
4947.00,0.9137
4946.00,0.8967
4945.00,0.8800
4944.00,0.8636
4943.00,0.8477
4942.00,0.8322
4941.00,0.8172
4940.00,0.8027
4939.00,0.7887
4938.00,0.7753
4937.00,0.7626
4936.00,0.7506
4935.00,0.7395
4934.00,0.7292
4933.00,0.7199
4932.00,0.7115
4931.00,0.7040
4930.00,0.6976
4929.00,0.6923
4928.00,0.6881
4927.00,0.6850
4926.00,0.6830
4925.00,0.6823
4924.00,0.6827
4923.00,0.6843
4922.00,0.6872
4921.00,0.6912
4920.00,0.6964
4919.00,0.7026
4918.00,0.7099
4917.00,0.7183
4916.00,0.7278
4915.00,0.7383
4914.00,0.7498
4913.00,0.7622
4912.00,0.7754
4911.00,0.7893
4910.00,0.8038
4909.00,0.8189
4908.00,0.8346
4907.00,0.8507
4906.00,0.8671
4905.00,0.8838
4904.00,0.9008
4903.00,0.9179
4902.00,0.9354
4901.00,0.9530
4900.00,0.9708
4899.00,0.9885
4898.00,1.0061
4897.00,1.0234
4896.00,1.0405
4895.00,1.0573
4894.00,1.0740
4893.00,1.0903
4892.00,1.1063
4891.00,1.1219
4890.00,1.1373
4889.00,1.1525
4888.00,1.1675
4887.00,1.1820
4886.00,1.1960
4885.00,1.2096
4884.00,1.2225
4883.00,1.2348
4882.00,1.2467
4881.00,1.2582
4880.00,1.2693
4879.00,1.2801
4878.00,1.2905
4877.00,1.3006
4876.00,1.3101
4875.00,1.3190
4874.00,1.3272
4873.00,1.3349
4872.00,1.3422
4871.00,1.3492
4870.00,1.3559
4869.00,1.3621
4868.00,1.3678
4867.00,1.3730
4866.00,1.3775
4865.00,1.3816
4864.00,1.3853
4863.00,1.3886
4862.00,1.3916
4861.00,1.3942
4860.00,1.3966
4859.00,1.3987
4858.00,1.4003
4857.00,1.4014
4856.00,1.4018
4855.00,1.4016
4854.00,1.4009
4853.00,1.3998
4852.00,1.3984
4851.00,1.3966
4850.00,1.3945
4849.00,1.3920
4848.00,1.3891
4847.00,1.3857
4846.00,1.3817
4845.00,1.3773
4844.00,1.3723
4843.00,1.3669
4842.00,1.3611
4841.00,1.3551
4840.00,1.3487
4839.00,1.3417
4838.00,1.3342
4837.00,1.3263
4836.00,1.3178
4835.00,1.3089
4834.00,1.2996
4833.00,1.2899
4832.00,1.2796
4831.00,1.2686
4830.00,1.2570
4829.00,1.2448
4828.00,1.2322
4827.00,1.2190
4826.00,1.2055
4825.00,1.1916
4824.00,1.1771
4823.00,1.1621
4822.00,1.1465
4821.00,1.1305
4820.00,1.1142
4819.00,1.0976
4818.00,1.0807
4817.00,1.0635
4816.00,1.0460
4815.00,1.0281
4814.00,1.0100
4813.00,0.9918
4812.00,0.9735
4811.00,0.9553
4810.00,0.9371
4809.00,0.9191
4808.00,0.9013
4807.00,0.8839
4806.00,0.8669
4805.00,0.8504
4804.00,0.8344
4803.00,0.8187
4802.00,0.8036
4801.00,0.7893
4800.00,0.7757
4799.00,0.7631
4798.00,0.7514
4797.00,0.7407
4796.00,0.7309
4795.00,0.7221
4794.00,0.7145
4793.00,0.7080
4792.00,0.7027
4791.00,0.6986
4790.00,0.6958
4789.00,0.6943
4788.00,0.6941
4787.00,0.6952
4786.00,0.6976
4785.00,0.7013
4784.00,0.7063
4783.00,0.7126
4782.00,0.7201
4781.00,0.7287
4780.00,0.7384
4779.00,0.7492
4778.00,0.7610
4777.00,0.7737
4776.00,0.7874
4775.00,0.8019
4774.00,0.8172
4773.00,0.8331
4772.00,0.8496
4771.00,0.8665
4770.00,0.8838
4769.00,0.9013
4768.00,0.9192
4767.00,0.9372
4766.00,0.9554
4765.00,0.9738
4764.00,0.9922
4763.00,1.0106
4762.00,1.0289
4761.00,1.0470
4760.00,1.0649
4759.00,1.0826
4758.00,1.1000
4757.00,1.1173
4756.00,1.1342
4755.00,1.1508
4754.00,1.1669
4753.00,1.1826
4752.00,1.1978
4751.00,1.2127
4750.00,1.2272
4749.00,1.2412
4748.00,1.2547
4747.00,1.2676
4746.00,1.2799
4745.00,1.2917
4744.00,1.3031
4743.00,1.3139
4742.00,1.3243
4741.00,1.3344
4740.00,1.3441
4739.00,1.3534
4738.00,1.3621
4737.00,1.3703
4736.00,1.3779
4735.00,1.3852
4734.00,1.3920
4733.00,1.3984
4732.00,1.4041
4731.00,1.4093
4730.00,1.4140
4729.00,1.4183
4728.00,1.4223
4727.00,1.4260
4726.00,1.4294
4725.00,1.4322
4724.00,1.4345
4723.00,1.4361
4722.00,1.4373
4721.00,1.4381
4720.00,1.4386
4719.00,1.4389
4718.00,1.4389
4717.00,1.4385
4716.00,1.4375
4715.00,1.4359
4714.00,1.4335
4713.00,1.4305
4712.00,1.4269
4711.00,1.4229
4710.00,1.4187
4709.00,1.4141
4708.00,1.4092
4707.00,1.4038
4706.00,1.3979
4705.00,1.3914
4704.00,1.3843
4703.00,1.3766
4702.00,1.3684
4701.00,1.3598
4700.00,1.3508
4699.00,1.3416
4698.00,1.3320
4697.00,1.3220
4696.00,1.3114
4695.00,1.3002
4694.00,1.2885
4693.00,1.2762
4692.00,1.2634
4691.00,1.2501
4690.00,1.2365
4689.00,1.2223
4688.00,1.2077
4687.00,1.1925
4686.00,1.1767
4685.00,1.1604
4684.00,1.1437
4683.00,1.1265
4682.00,1.1090
4681.00,1.0912
4680.00,1.0731
4679.00,1.0548
4678.00,1.0363
4677.00,1.0177
4676.00,0.9989
4675.00,0.9800
4674.00,0.9612
4673.00,0.9426
4672.00,0.9240
4671.00,0.9057
4670.00,0.8877
4669.00,0.8701
4668.00,0.8530
4667.00,0.8364
4666.00,0.8205
4665.00,0.8053
4664.00,0.7908
4663.00,0.7771
4662.00,0.7643
4661.00,0.7525
4660.00,0.7417
4659.00,0.7321
4658.00,0.7236
4657.00,0.7164
4656.00,0.7104
4655.00,0.7057
4654.00,0.7024
4653.00,0.7005
4652.00,0.7000
4651.00,0.7008
4650.00,0.7031
4649.00,0.7068
4648.00,0.7118
4647.00,0.7182
4646.00,0.7259
4645.00,0.7350
4644.00,0.7453
4643.00,0.7569
4642.00,0.7695
4641.00,0.7831
4640.00,0.7977
4639.00,0.8130
4638.00,0.8291
4637.00,0.8459
4636.00,0.8633
4635.00,0.8812
4634.00,0.8996
4633.00,0.9184
4632.00,0.9374
4631.00,0.9566
4630.00,0.9760
4629.00,0.9955
4628.00,1.0149
4627.00,1.0343
4626.00,1.0535
4625.00,1.0725
4624.00,1.0915
4623.00,1.1102
4622.00,1.1286
4621.00,1.1466
4620.00,1.1643
4619.00,1.1815
4618.00,1.1985
4617.00,1.2149
4616.00,1.2310
4615.00,1.2465
4614.00,1.2617
4613.00,1.2763
4612.00,1.2905
4611.00,1.3040
4610.00,1.3168
4609.00,1.3292
4608.00,1.3411
4607.00,1.3526
4606.00,1.3637
4605.00,1.3743
4604.00,1.3843
4603.00,1.3937
4602.00,1.4024
4601.00,1.4105
4600.00,1.4183
4599.00,1.4258
4598.00,1.4330
4597.00,1.4397
4596.00,1.4459
4595.00,1.4515
4594.00,1.4566
4593.00,1.4613
4592.00,1.4657
4591.00,1.4695
4590.00,1.4728
4589.00,1.4756
4588.00,1.4779
4587.00,1.4798
4586.00,1.4813
4585.00,1.4823
4584.00,1.4828
4583.00,1.4830
4582.00,1.4828
4581.00,1.4823
4580.00,1.4811
4579.00,1.4794
4578.00,1.4771
4577.00,1.4745
4576.00,1.4717
4575.00,1.4685
4574.00,1.4648
4573.00,1.4605
4572.00,1.4555
4571.00,1.4501
4570.00,1.4445
4569.00,1.4385
4568.00,1.4320
4567.00,1.4249
4566.00,1.4170
4565.00,1.4086
4564.00,1.3998
4563.00,1.3907
4562.00,1.3814
4561.00,1.3715
4560.00,1.3610
4559.00,1.3498
4558.00,1.3379
4557.00,1.3254
4556.00,1.3124
4555.00,1.2988
4554.00,1.2847
4553.00,1.2702
4552.00,1.2552
4551.00,1.2397
4550.00,1.2235
4549.00,1.2068
4548.00,1.1895
4547.00,1.1718
4546.00,1.1537
4545.00,1.1351
4544.00,1.1160
4543.00,1.0967
4542.00,1.0770
4541.00,1.0571
4540.00,1.0371
4539.00,1.0169
4538.00,0.9967
4537.00,0.9765
4536.00,0.9565
4535.00,0.9367
4534.00,0.9173
4533.00,0.8983
4532.00,0.8799
4531.00,0.8621
4530.00,0.8450
4529.00,0.8287
4528.00,0.8132
4527.00,0.7987
4526.00,0.7852
4525.00,0.7728
4524.00,0.7614
4523.00,0.7513
4522.00,0.7424
4521.00,0.7349
4520.00,0.7289
4519.00,0.7243
4518.00,0.7212
4517.00,0.7196
4516.00,0.7195
4515.00,0.7211
4514.00,0.7241
4513.00,0.7287
4512.00,0.7348
4511.00,0.7423
4510.00,0.7514
4509.00,0.7618
4508.00,0.7736
4507.00,0.7866
4506.00,0.8008
4505.00,0.8159
4504.00,0.8321
4503.00,0.8490
4502.00,0.8667
4501.00,0.8851
4500.00,0.9040
4499.00,0.9234
4498.00,0.9432
4497.00,0.9633
4496.00,0.9838
4495.00,1.0044
4494.00,1.0250
4493.00,1.0456
4492.00,1.0661
4491.00,1.0863
4490.00,1.1064
4489.00,1.1263
4488.00,1.1459
4487.00,1.1652
4486.00,1.1842
4485.00,1.2028
4484.00,1.2210
4483.00,1.2387
4482.00,1.2558
4481.00,1.2723
4480.00,1.2883
4479.00,1.3038
4478.00,1.3188
4477.00,1.3336
4476.00,1.3480
4475.00,1.3620
4474.00,1.3753
4473.00,1.3878
4472.00,1.3995
4471.00,1.4107
4470.00,1.4214
4469.00,1.4318
4468.00,1.4416
4467.00,1.4508
4466.00,1.4595
4465.00,1.4676
4464.00,1.4754
4463.00,1.4829
4462.00,1.4900
4461.00,1.4968
4460.00,1.5030
4459.00,1.5086
4458.00,1.5135
4457.00,1.5178
4456.00,1.5218
4455.00,1.5255
4454.00,1.5289
4453.00,1.5320
4452.00,1.5346
4451.00,1.5368
4450.00,1.5386
4449.00,1.5401
4448.00,1.5410
4447.00,1.5415
4446.00,1.5415
4445.00,1.5412
4444.00,1.5409
4443.00,1.5404
4442.00,1.5396
4441.00,1.5381
4440.00,1.5360
4439.00,1.5333
4438.00,1.5303
4437.00,1.5270
4436.00,1.5231
4435.00,1.5188
4434.00,1.5139
4433.00,1.5085
4432.00,1.5025
4431.00,1.4960
4430.00,1.4889
4429.00,1.4811
4428.00,1.4726
4427.00,1.4635
4426.00,1.4537
4425.00,1.4432
4424.00,1.4323
4423.00,1.4209
4422.00,1.4092
4421.00,1.3969
4420.00,1.3839
4419.00,1.3701
4418.00,1.3558
4417.00,1.3410
4416.00,1.3259
4415.00,1.3104
4414.00,1.2946
4413.00,1.2783
4412.00,1.2616
4411.00,1.2445
4410.00,1.2269
4409.00,1.2091
4408.00,1.1910
4407.00,1.1728
4406.00,1.1549
4405.00,1.1373
4404.00,1.1200
4403.00,1.1029
4402.00,1.0862
4401.00,1.0697
4400.00,1.0533
4399.00,1.0371
4398.00,1.0210
4397.00,1.0050
4396.00,0.9892
4395.00,0.9734
4394.00,0.9578
4393.00,0.9424
4392.00,0.9273
4391.00,0.9127
4390.00,0.8987
4389.00,0.8856
4388.00,0.8735
4387.00,0.8625
4386.00,0.8527
4385.00,0.8443
4384.00,0.8372
4383.00,0.8317
4382.00,0.8278
4381.00,0.8255
4380.00,0.8248
4379.00,0.8258
4378.00,0.8285
4377.00,0.8328
4376.00,0.8385
4375.00,0.8457
4374.00,0.8540
4373.00,0.8635
4372.00,0.8739
4371.00,0.8851
4370.00,0.8971
4369.00,0.9096
4368.00,0.9225
4367.00,0.9356
4366.00,0.9488
4365.00,0.9621
4364.00,0.9754
4363.00,0.9889
4362.00,1.0024
4361.00,1.0160
4360.00,1.0297
4359.00,1.0436
4358.00,1.0578
4357.00,1.0723
4356.00,1.0872
4355.00,1.1025
4354.00,1.1182
4353.00,1.1344
4352.00,1.1509
4351.00,1.1677
4350.00,1.1847
4349.00,1.2018
4348.00,1.2188
4347.00,1.2357
4346.00,1.2524
4345.00,1.2689
4344.00,1.2853
4343.00,1.3014
4342.00,1.3172
4341.00,1.3328
4340.00,1.3481
4339.00,1.3631
4338.00,1.3777
4337.00,1.3917
4336.00,1.4053
4335.00,1.4183
4334.00,1.4309
4333.00,1.4431
4332.00,1.4547
4331.00,1.4656
4330.00,1.4760
4329.00,1.4859
4328.00,1.4952
4327.00,1.5040
4326.00,1.5123
4325.00,1.5200
4324.00,1.5273
4323.00,1.5341
4322.00,1.5406
4321.00,1.5467
4320.00,1.5523
4319.00,1.5574
4318.00,1.5619
4317.00,1.5658
4316.00,1.5693
4315.00,1.5722
4314.00,1.5745
4313.00,1.5764
4312.00,1.5778
4311.00,1.5791
4310.00,1.5802
4309.00,1.5811
4308.00,1.5814
4307.00,1.5809
4306.00,1.5797
4305.00,1.5777
4304.00,1.5753
4303.00,1.5725
4302.00,1.5696
4301.00,1.5665
4300.00,1.5632
4299.00,1.5595
4298.00,1.5551
4297.00,1.5500
4296.00,1.5444
4295.00,1.5382
4294.00,1.5317
4293.00,1.5248
4292.00,1.5174
4291.00,1.5093
4290.00,1.5006
4289.00,1.4914
4288.00,1.4818
4287.00,1.4717
4286.00,1.4609
4285.00,1.4495
4284.00,1.4374
4283.00,1.4248
4282.00,1.4118
4281.00,1.3984
4280.00,1.3845
4279.00,1.3699
4278.00,1.3544
4277.00,1.3380
4276.00,1.3209
4275.00,1.3033
4274.00,1.2851
4273.00,1.2664
4272.00,1.2472
4271.00,1.2273
4270.00,1.2069
4269.00,1.1859
4268.00,1.1645
4267.00,1.1427
4266.00,1.1206
4265.00,1.0982
4264.00,1.0755
4263.00,1.0526
4262.00,1.0297
4261.00,1.0070
4260.00,0.9847
4259.00,0.9628
4258.00,0.9412
4257.00,0.9202
4256.00,0.8997
4255.00,0.8801
4254.00,0.8613
4253.00,0.8436
4252.00,0.8271
4251.00,0.8117
4250.00,0.7976
4249.00,0.7849
4248.00,0.7736
4247.00,0.7639
4246.00,0.7558
4245.00,0.7494
4244.00,0.7448
4243.00,0.7418
4242.00,0.7407
4241.00,0.7414
4240.00,0.7439
4239.00,0.7483
4238.00,0.7545
4237.00,0.7624
4236.00,0.7721
4235.00,0.7835
4234.00,0.7964
4233.00,0.8107
4232.00,0.8264
4231.00,0.8434
4230.00,0.8615
4229.00,0.8806
4228.00,0.9006
4227.00,0.9212
4226.00,0.9426
4225.00,0.9644
4224.00,0.9866
4223.00,1.0091
4222.00,1.0319
4221.00,1.0547
4220.00,1.0776
4219.00,1.1004
4218.00,1.1231
4217.00,1.1455
4216.00,1.1676
4215.00,1.1893
4214.00,1.2105
4213.00,1.2314
4212.00,1.2520
4211.00,1.2722
4210.00,1.2920
4209.00,1.3113
4208.00,1.3300
4207.00,1.3481
4206.00,1.3657
4205.00,1.3826
4204.00,1.3988
4203.00,1.4142
4202.00,1.4289
4201.00,1.4430
4200.00,1.4566
4199.00,1.4699
4198.00,1.4828
4197.00,1.4951
4196.00,1.5068
4195.00,1.5176
4194.00,1.5278
4193.00,1.5374
4192.00,1.5465
4191.00,1.5553
4190.00,1.5637
4189.00,1.5717
4188.00,1.5791
4187.00,1.5859
4186.00,1.5920
4185.00,1.5974
4184.00,1.6022
4183.00,1.6065
4182.00,1.6104
4181.00,1.6141
4180.00,1.6176
4179.00,1.6209
4178.00,1.6237
4177.00,1.6257
4176.00,1.6270
4175.00,1.6277
4174.00,1.6281
4173.00,1.6282
4172.00,1.6281
4171.00,1.6274
4170.00,1.6262
4169.00,1.6246
4168.00,1.6226
4167.00,1.6203
4166.00,1.6175
4165.00,1.6139
4164.00,1.6096
4163.00,1.6048
4162.00,1.5999
4161.00,1.5947
4160.00,1.5890
4159.00,1.5827
4158.00,1.5757
4157.00,1.5680
4156.00,1.5600
4155.00,1.5516
4154.00,1.5429
4153.00,1.5338
4152.00,1.5239
4151.00,1.5133
4150.00,1.5019
4149.00,1.4898
4148.00,1.4770
4147.00,1.4637
4146.00,1.4500
4145.00,1.4359
4144.00,1.4213
4143.00,1.4061
4142.00,1.3901
4141.00,1.3733
4140.00,1.3558
4139.00,1.3375
4138.00,1.3185
4137.00,1.2989
4136.00,1.2786
4135.00,1.2578
4134.00,1.2364
4133.00,1.2145
4132.00,1.1920
4131.00,1.1689
4130.00,1.1454
4129.00,1.1217
4128.00,1.0979
4127.00,1.0740
4126.00,1.0501
4125.00,1.0263
4124.00,1.0028
4123.00,0.9796
4122.00,0.9570
4121.00,0.9350
4120.00,0.9137
4119.00,0.8933
4118.00,0.8740
4117.00,0.8559
4116.00,0.8391
4115.00,0.8235
4114.00,0.8093
4113.00,0.7967
4112.00,0.7857
4111.00,0.7764
4110.00,0.7688
4109.00,0.7631
4108.00,0.7592
4107.00,0.7573
4106.00,0.7573
4105.00,0.7592
4104.00,0.7631
4103.00,0.7689
4102.00,0.7765
4101.00,0.7861
4100.00,0.7974
4099.00,0.8104
4098.00,0.8250
4097.00,0.8410
4096.00,0.8585
4095.00,0.8772
4094.00,0.8971
4093.00,0.9180
4092.00,0.9398
4091.00,0.9623
4090.00,0.9854
4089.00,1.0091
4088.00,1.0331
4087.00,1.0573
4086.00,1.0816
4085.00,1.1058
4084.00,1.1299
4083.00,1.1539
4082.00,1.1777
4081.00,1.2012
4080.00,1.2244
4079.00,1.2471
4078.00,1.2694
4077.00,1.2912
4076.00,1.3126
4075.00,1.3333
4074.00,1.3532
4073.00,1.3724
4072.00,1.3908
4071.00,1.4088
4070.00,1.4261
4069.00,1.4428
4068.00,1.4589
4067.00,1.4744
4066.00,1.4893
4065.00,1.5037
4064.00,1.5176
4063.00,1.5310
4062.00,1.5436
4061.00,1.5554
4060.00,1.5665
4059.00,1.5771
4058.00,1.5874
4057.00,1.5972
4056.00,1.6066
4055.00,1.6153
4054.00,1.6233
4053.00,1.6307
4052.00,1.6379
4051.00,1.6449
4050.00,1.6516
4049.00,1.6578
4048.00,1.6633
4047.00,1.6680
4046.00,1.6722
4045.00,1.6760
4044.00,1.6794
4043.00,1.6824
4042.00,1.6850
4041.00,1.6870
4040.00,1.6884
4039.00,1.6894
4038.00,1.6903
4037.00,1.6911
4036.00,1.6916
4035.00,1.6916
4034.00,1.6910
4033.00,1.6897
4032.00,1.6879
4031.00,1.6856
4030.00,1.6829
4029.00,1.6799
4028.00,1.6766
4027.00,1.6729
4026.00,1.6689
4025.00,1.6643
4024.00,1.6591
4023.00,1.6531
4022.00,1.6462
4021.00,1.6384
4020.00,1.6301
4019.00,1.6216
4018.00,1.6132
4017.00,1.6047
4016.00,1.5957
4015.00,1.5858
4014.00,1.5749
4013.00,1.5631
4012.00,1.5504
4011.00,1.5371
4010.00,1.5232
4009.00,1.5087
4008.00,1.4934
4007.00,1.4775
4006.00,1.4609
4005.00,1.4439
4004.00,1.4262
4003.00,1.4080
4002.00,1.3890
4001.00,1.3692
4000.00,1.3487
3999.00,1.3275
3998.00,1.3056
3997.00,1.2830
3996.00,1.2597
3995.00,1.2359
3994.00,1.2118
3993.00,1.1873
3992.00,1.1625
3991.00,1.1376
3990.00,1.1127
3989.00,1.0879
3988.00,1.0636
3987.00,1.0398
3986.00,1.0168
3985.00,0.9946
3984.00,0.9735
3983.00,0.9535
3982.00,0.9348
3981.00,0.9175
3980.00,0.9015
3979.00,0.8870
3978.00,0.8739
3977.00,0.8620
3976.00,0.8515
3975.00,0.8421
3974.00,0.8340
3973.00,0.8269
3972.00,0.8212
3971.00,0.8167
3970.00,0.8138
3969.00,0.8124
3968.00,0.8129
3967.00,0.8152
3966.00,0.8195
3965.00,0.8258
3964.00,0.8341
3963.00,0.8444
3962.00,0.8566
3961.00,0.8708
3960.00,0.8867
3959.00,0.9041
3958.00,0.9230
3957.00,0.9432
3956.00,0.9645
3955.00,0.9867
3954.00,1.0098
3953.00,1.0335
3952.00,1.0577
3951.00,1.0823
3950.00,1.1072
3949.00,1.1323
3948.00,1.1575
3947.00,1.1827
3946.00,1.2076
3945.00,1.2320
3944.00,1.2560
3943.00,1.2798
3942.00,1.3035
3941.00,1.3270
3940.00,1.3498
3939.00,1.3715
3938.00,1.3921
3937.00,1.4121
3936.00,1.4316
3935.00,1.4504
3934.00,1.4685
3933.00,1.4860
3932.00,1.5032
3931.00,1.5199
3930.00,1.5359
3929.00,1.5512
3928.00,1.5657
3927.00,1.5796
3926.00,1.5930
3925.00,1.6058
3924.00,1.6179
3923.00,1.6289
3922.00,1.6389
3921.00,1.6479
3920.00,1.6566
3919.00,1.6654
3918.00,1.6743
3917.00,1.6831
3916.00,1.6916
3915.00,1.6994
3914.00,1.7062
3913.00,1.7122
3912.00,1.7175
3911.00,1.7223
3910.00,1.7263
3909.00,1.7294
3908.00,1.7317
3907.00,1.7334
3906.00,1.7347
3905.00,1.7358
3904.00,1.7368
3903.00,1.7378
3902.00,1.7386
3901.00,1.7392
3900.00,1.7396
3899.00,1.7400
3898.00,1.7403
3897.00,1.7400
3896.00,1.7386
3895.00,1.7361
3894.00,1.7328
3893.00,1.7291
3892.00,1.7248
3891.00,1.7200
3890.00,1.7146
3889.00,1.7089
3888.00,1.7030
3887.00,1.6968
3886.00,1.6898
3885.00,1.6822
3884.00,1.6739
3883.00,1.6651
3882.00,1.6558
3881.00,1.6459
3880.00,1.6358
3879.00,1.6254
3878.00,1.6147
3877.00,1.6034
3876.00,1.5910
3875.00,1.5772
3874.00,1.5620
3873.00,1.5465
3872.00,1.5307
3871.00,1.5139
3870.00,1.4955
3869.00,1.4766
3868.00,1.4580
3867.00,1.4397
3866.00,1.4206
3865.00,1.4003
3864.00,1.3787
3863.00,1.3565
3862.00,1.3336
3861.00,1.3098
3860.00,1.2849
3859.00,1.2586
3858.00,1.2311
3857.00,1.2034
3856.00,1.1761
3855.00,1.1483
3854.00,1.1182
3853.00,1.0863
3852.00,1.0555
3851.00,1.0278
3850.00,1.0031
3849.00,0.9801
3848.00,0.9581
3847.00,0.9367
3846.00,0.9157
3845.00,0.8949
3844.00,0.8744
3843.00,0.8544
3842.00,0.8356
3841.00,0.8187
3840.00,0.8038
3839.00,0.7910
3838.00,0.7804
3837.00,0.7722
3836.00,0.7666
3835.00,0.7638
3834.00,0.7640
3833.00,0.7672
3832.00,0.7735
3831.00,0.7823
3830.00,0.7932
3829.00,0.8060
3828.00,0.8204
3827.00,0.8364
3826.00,0.8536
3825.00,0.8718
3824.00,0.8909
3823.00,0.9117
3822.00,0.9352
3821.00,0.9617
3820.00,0.9903
3819.00,1.0185
3818.00,1.0453
3817.00,1.0723
3816.00,1.1015
3815.00,1.1336
3814.00,1.1661
3813.00,1.1965
3812.00,1.2238
3811.00,1.2487
3810.00,1.2723
3809.00,1.2957
3808.00,1.3196
3807.00,1.3445
3806.00,1.3699
3805.00,1.3943
3804.00,1.4166
3803.00,1.4375
3802.00,1.4586
3801.00,1.4810
3800.00,1.5040
3799.00,1.5258
3798.00,1.5454
3797.00,1.5634
3796.00,1.5809
3795.00,1.5983
3794.00,1.6151
3793.00,1.6308
3792.00,1.6454
3791.00,1.6590
3790.00,1.6718
3789.00,1.6841
3788.00,1.6957
3787.00,1.7065
3786.00,1.7166
3785.00,1.7260
3784.00,1.7347
3783.00,1.7428
3782.00,1.7506
3781.00,1.7581
3780.00,1.7651
3779.00,1.7719
3778.00,1.7785
3777.00,1.7848
3776.00,1.7901
3775.00,1.7946
3774.00,1.7981
3773.00,1.8010
3772.00,1.8033
3771.00,1.8051
3770.00,1.8067
3769.00,1.8083
3768.00,1.8101
3767.00,1.8119
3766.00,1.8132
3765.00,1.8139
3764.00,1.8138
3763.00,1.8127
3762.00,1.8107
3761.00,1.8077
3760.00,1.8040
3759.00,1.8000
3758.00,1.7954
3757.00,1.7901
3756.00,1.7841
3755.00,1.7776
3754.00,1.7709
3753.00,1.7641
3752.00,1.7566
3751.00,1.7482
3750.00,1.7385
3749.00,1.7274
3748.00,1.7159
3747.00,1.7051
3746.00,1.6948
3745.00,1.6840
3744.00,1.6723
3743.00,1.6599
3742.00,1.6466
3741.00,1.6319
3740.00,1.6154
3739.00,1.5975
3738.00,1.5782
3737.00,1.5566
3736.00,1.5322
3735.00,1.5057
3734.00,1.4783
3733.00,1.4505
3732.00,1.4221
3731.00,1.3933
3730.00,1.3645
3729.00,1.3355
3728.00,1.3061
3727.00,1.2761
3726.00,1.2455
3725.00,1.2149
3724.00,1.1846
3723.00,1.1547
3722.00,1.1254
3721.00,1.0971
3720.00,1.0701
3719.00,1.0441
3718.00,1.0189
3717.00,0.9946
3716.00,0.9718
3715.00,0.9507
3714.00,0.9313
3713.00,0.9130
3712.00,0.8956
3711.00,0.8796
3710.00,0.8651
3709.00,0.8516
3708.00,0.8386
3707.00,0.8266
3706.00,0.8164
3705.00,0.8084
3704.00,0.8017
3703.00,0.7955
3702.00,0.7903
3701.00,0.7873
3700.00,0.7876
3699.00,0.7915
3698.00,0.7990
3697.00,0.8099
3696.00,0.8240
3695.00,0.8407
3694.00,0.8595
3693.00,0.8804
3692.00,0.9034
3691.00,0.9290
3690.00,0.9576
3689.00,0.9899
3688.00,1.0258
3687.00,1.0634
3686.00,1.1002
3685.00,1.1349
3684.00,1.1679
3683.00,1.2003
3682.00,1.2322
3681.00,1.2632
3680.00,1.2928
3679.00,1.3210
3678.00,1.3484
3677.00,1.3760
3676.00,1.4048
3675.00,1.4353
3674.00,1.4658
3673.00,1.4940
3672.00,1.5196
3671.00,1.5440
3670.00,1.5688
3669.00,1.5942
3668.00,1.6189
3667.00,1.6415
3666.00,1.6619
3665.00,1.6807
3664.00,1.6983
3663.00,1.7151
3662.00,1.7306
3661.00,1.7447
3660.00,1.7575
3659.00,1.7694
3658.00,1.7808
3657.00,1.7919
3656.00,1.8025
3655.00,1.8122
3654.00,1.8206
3653.00,1.8279
3652.00,1.8350
3651.00,1.8426
3650.00,1.8505
3649.00,1.8585
3648.00,1.8668
3647.00,1.8754
3646.00,1.8839
3645.00,1.8916
3644.00,1.8979
3643.00,1.9027
3642.00,1.9063
3641.00,1.9092
3640.00,1.9115
3639.00,1.9131
3638.00,1.9139
3637.00,1.9142
3636.00,1.9137
3635.00,1.9121
3634.00,1.9086
3633.00,1.9034
3632.00,1.8972
3631.00,1.8910
3630.00,1.8851
3629.00,1.8800
3628.00,1.8756
3627.00,1.8718
3626.00,1.8678
3625.00,1.8636
3624.00,1.8592
3623.00,1.8549
3622.00,1.8507
3621.00,1.8465
3620.00,1.8419
3619.00,1.8372
3618.00,1.8331
3617.00,1.8301
3616.00,1.8280
3615.00,1.8260
3614.00,1.8234
3613.00,1.8204
3612.00,1.8174
3611.00,1.8148
3610.00,1.8127
3609.00,1.8105
3608.00,1.8074
3607.00,1.8021
3606.00,1.7944
3605.00,1.7849
3604.00,1.7742
3603.00,1.7623
3602.00,1.7486
3601.00,1.7325
3600.00,1.7146
3599.00,1.6955
3598.00,1.6759
3597.00,1.6558
3596.00,1.6356
3595.00,1.6153
3594.00,1.5950
3593.00,1.5749
3592.00,1.5550
3591.00,1.5355
3590.00,1.5161
3589.00,1.4966
3588.00,1.4766
3587.00,1.4566
3586.00,1.4371
3585.00,1.4181
3584.00,1.3995
3583.00,1.3810
3582.00,1.3625
3581.00,1.3441
3580.00,1.3259
3579.00,1.3078
3578.00,1.2902
3577.00,1.2731
3576.00,1.2564
3575.00,1.2403
3574.00,1.2249
3573.00,1.2100
3572.00,1.1958
3571.00,1.1828
3570.00,1.1714
3569.00,1.1616
3568.00,1.1530
3567.00,1.1454
3566.00,1.1391
3565.00,1.1347
3564.00,1.1324
3563.00,1.1323
3562.00,1.1341
3561.00,1.1379
3560.00,1.1433
3559.00,1.1504
3558.00,1.1591
3557.00,1.1692
3556.00,1.1807
3555.00,1.1934
3554.00,1.2073
3553.00,1.2224
3552.00,1.2385
3551.00,1.2556
3550.00,1.2734
3549.00,1.2917
3548.00,1.3104
3547.00,1.3295
3546.00,1.3489
3545.00,1.3685
3544.00,1.3883
3543.00,1.4081
3542.00,1.4277
3541.00,1.4471
3540.00,1.4663
3539.00,1.4853
3538.00,1.5042
3537.00,1.5231
3536.00,1.5420
3535.00,1.5607
3534.00,1.5790
3533.00,1.5967
3532.00,1.6141
3531.00,1.6311
3530.00,1.6478
3529.00,1.6642
3528.00,1.6803
3527.00,1.6959
3526.00,1.7114
3525.00,1.7267
3524.00,1.7417
3523.00,1.7563
3522.00,1.7702
3521.00,1.7834
3520.00,1.7963
3519.00,1.8091
3518.00,1.8216
3517.00,1.8335
3516.00,1.8448
3515.00,1.8555
3514.00,1.8659
3513.00,1.8762
3512.00,1.8862
3511.00,1.8958
3510.00,1.9047
3509.00,1.9128
3508.00,1.9205
3507.00,1.9278
3506.00,1.9347
3505.00,1.9413
3504.00,1.9475
3503.00,1.9534
3502.00,1.9588
3501.00,1.9637
3500.00,1.9680
3499.00,1.9720
3498.00,1.9759
3497.00,1.9794
3496.00,1.9823
3495.00,1.9843
3494.00,1.9852
3493.00,1.9856
3492.00,1.9859
3491.00,1.9866
3490.00,1.9876
3489.00,1.9883
3488.00,1.9885
3487.00,1.9880
3486.00,1.9867
3485.00,1.9843
3484.00,1.9811
3483.00,1.9775
3482.00,1.9738
3481.00,1.9702
3480.00,1.9662
3479.00,1.9614
3478.00,1.9557
3477.00,1.9494
3476.00,1.9426
3475.00,1.9353
3474.00,1.9277
3473.00,1.9197
3472.00,1.9114
3471.00,1.9027
3470.00,1.8936
3469.00,1.8839
3468.00,1.8735
3467.00,1.8625
3466.00,1.8509
3465.00,1.8389
3464.00,1.8261
3463.00,1.8124
3462.00,1.7977
3461.00,1.7824
3460.00,1.7666
3459.00,1.7501
3458.00,1.7328
3457.00,1.7147
3456.00,1.6959
3455.00,1.6763
3454.00,1.6559
3453.00,1.6348
3452.00,1.6129
3451.00,1.5904
3450.00,1.5673
3449.00,1.5433
3448.00,1.5183
3447.00,1.4924
3446.00,1.4658
3445.00,1.4390
3444.00,1.4121
3443.00,1.3851
3442.00,1.3579
3441.00,1.3307
3440.00,1.3035
3439.00,1.2766
3438.00,1.2502
3437.00,1.2245
3436.00,1.1999
3435.00,1.1766
3434.00,1.1546
3433.00,1.1341
3432.00,1.1152
3431.00,1.0981
3430.00,1.0829
3429.00,1.0700
3428.00,1.0593
3427.00,1.0511
3426.00,1.0453
3425.00,1.0420
3424.00,1.0413
3423.00,1.0432
3422.00,1.0478
3421.00,1.0551
3420.00,1.0649
3419.00,1.0771
3418.00,1.0916
3417.00,1.1081
3416.00,1.1266
3415.00,1.1469
3414.00,1.1687
3413.00,1.1918
3412.00,1.2161
3411.00,1.2413
3410.00,1.2673
3409.00,1.2937
3408.00,1.3205
3407.00,1.3475
3406.00,1.3745
3405.00,1.4015
3404.00,1.4281
3403.00,1.4543
3402.00,1.4798
3401.00,1.5049
3400.00,1.5296
3399.00,1.5539
3398.00,1.5777
3397.00,1.6009
3396.00,1.6234
3395.00,1.6454
3394.00,1.6669
3393.00,1.6878
3392.00,1.7080
3391.00,1.7276
3390.00,1.7462
3389.00,1.7641
3388.00,1.7813
3387.00,1.7979
3386.00,1.8140
3385.00,1.8296
3384.00,1.8444
3383.00,1.8586
3382.00,1.8725
3381.00,1.8859
3380.00,1.8988
3379.00,1.9108
3378.00,1.9220
3377.00,1.9325
3376.00,1.9425
3375.00,1.9520
3374.00,1.9610
3373.00,1.9695
3372.00,1.9775
3371.00,1.9848
3370.00,1.9914
3369.00,1.9977
3368.00,2.0037
3367.00,2.0095
3366.00,2.0149
3365.00,2.0196
3364.00,2.0233
3363.00,2.0262
3362.00,2.0287
3361.00,2.0310
3360.00,2.0334
3359.00,2.0356
3358.00,2.0374
3357.00,2.0388
3356.00,2.0397
3355.00,2.0400
3354.00,2.0399
3353.00,2.0394
3352.00,2.0384
3351.00,2.0367
3350.00,2.0341
3349.00,2.0309
3348.00,2.0274
3347.00,2.0239
3346.00,2.0201
3345.00,2.0157
3344.00,2.0106
3343.00,2.0047
3342.00,1.9982
3341.00,1.9916
3340.00,1.9847
3339.00,1.9772
3338.00,1.9690
3337.00,1.9602
3336.00,1.9509
3335.00,1.9412
3334.00,1.9311
3333.00,1.9206
3332.00,1.9097
3331.00,1.8982
3330.00,1.8861
3329.00,1.8732
3328.00,1.8595
3327.00,1.8453
3326.00,1.8306
3325.00,1.8154
3324.00,1.7996
3323.00,1.7827
3322.00,1.7649
3321.00,1.7461
3320.00,1.7264
3319.00,1.7058
3318.00,1.6842
3317.00,1.6617
3316.00,1.6385
3315.00,1.6144
3314.00,1.5897
3313.00,1.5644
3312.00,1.5386
3311.00,1.5122
3310.00,1.4850
3309.00,1.4571
3308.00,1.4288
3307.00,1.4003
3306.00,1.3718
3305.00,1.3437
3304.00,1.3161
3303.00,1.2891
3302.00,1.2629
3301.00,1.2377
3300.00,1.2137
3299.00,1.1910
3298.00,1.1700
3297.00,1.1506
3296.00,1.1331
3295.00,1.1177
3294.00,1.1044
3293.00,1.0934
3292.00,1.0849
3291.00,1.0789
3290.00,1.0756
3289.00,1.0749
3288.00,1.0768
3287.00,1.0814
3286.00,1.0886
3285.00,1.0984
3284.00,1.1106
3283.00,1.1253
3282.00,1.1421
3281.00,1.1609
3280.00,1.1815
3279.00,1.2038
3278.00,1.2276
3277.00,1.2527
3276.00,1.2789
3275.00,1.3059
3274.00,1.3335
3273.00,1.3615
3272.00,1.3898
3271.00,1.4181
3270.00,1.4463
3269.00,1.4743
3268.00,1.5021
3267.00,1.5296
3266.00,1.5567
3265.00,1.5835
3264.00,1.6096
3263.00,1.6349
3262.00,1.6594
3261.00,1.6829
3260.00,1.7058
3259.00,1.7280
3258.00,1.7494
3257.00,1.7702
3256.00,1.7903
3255.00,1.8099
3254.00,1.8289
3253.00,1.8473
3252.00,1.8649
3251.00,1.8815
3250.00,1.8972
3249.00,1.9122
3248.00,1.9267
3247.00,1.9405
3246.00,1.9536
3245.00,1.9661
3244.00,1.9779
3243.00,1.9892
3242.00,1.9997
3241.00,2.0095
3240.00,2.0186
3239.00,2.0275
3238.00,2.0361
3237.00,2.0444
3236.00,2.0524
3235.00,2.0597
3234.00,2.0662
3233.00,2.0722
3232.00,2.0778
3231.00,2.0830
3230.00,2.0874
3229.00,2.0910
3228.00,2.0938
3227.00,2.0963
3226.00,2.0988
3225.00,2.1013
3224.00,2.1039
3223.00,2.1060
3222.00,2.1071
3221.00,2.1071
3220.00,2.1063
3219.00,2.1054
3218.00,2.1048
3217.00,2.1046
3216.00,2.1041
3215.00,2.1030
3214.00,2.1008
3213.00,2.0977
3212.00,2.0938
3211.00,2.0895
3210.00,2.0852
3209.00,2.0808
3208.00,2.0764
3207.00,2.0714
3206.00,2.0659
3205.00,2.0599
3204.00,2.0538
3203.00,2.0475
3202.00,2.0409
3201.00,2.0336
3200.00,2.0255
3199.00,2.0165
3198.00,2.0063
3197.00,1.9950
3196.00,1.9828
3195.00,1.9699
3194.00,1.9563
3193.00,1.9419
3192.00,1.9267
3191.00,1.9106
3190.00,1.8934
3189.00,1.8754
3188.00,1.8567
3187.00,1.8374
3186.00,1.8175
3185.00,1.7967
3184.00,1.7750
3183.00,1.7522
3182.00,1.7287
3181.00,1.7045
3180.00,1.6797
3179.00,1.6544
3178.00,1.6289
3177.00,1.6032
3176.00,1.5779
3175.00,1.5536
3174.00,1.5310
3173.00,1.5112
3172.00,1.4951
3171.00,1.4840
3170.00,1.4791
3169.00,1.4812
3168.00,1.4902
3167.00,1.5047
3166.00,1.5218
3165.00,1.5369
3164.00,1.5443
3163.00,1.5394
3162.00,1.5201
3161.00,1.4883
3160.00,1.4486
3159.00,1.4059
3158.00,1.3641
3157.00,1.3260
3156.00,1.2928
3155.00,1.2653
3154.00,1.2436
3153.00,1.2277
3152.00,1.2172
3151.00,1.2118
3150.00,1.2110
3149.00,1.2145
3148.00,1.2218
3147.00,1.2325
3146.00,1.2460
3145.00,1.2621
3144.00,1.2807
3143.00,1.3015
3142.00,1.3242
3141.00,1.3486
3140.00,1.3742
3139.00,1.4009
3138.00,1.4284
3137.00,1.4563
3136.00,1.4847
3135.00,1.5134
3134.00,1.5422
3133.00,1.5709
3132.00,1.5993
3131.00,1.6273
3130.00,1.6545
3129.00,1.6808
3128.00,1.7064
3127.00,1.7314
3126.00,1.7560
3125.00,1.7800
3124.00,1.8034
3123.00,1.8258
3122.00,1.8474
3121.00,1.8680
3120.00,1.8877
3119.00,1.9065
3118.00,1.9246
3117.00,1.9423
3116.00,1.9596
3115.00,1.9762
3114.00,1.9920
3113.00,2.0069
3112.00,2.0212
3111.00,2.0350
3110.00,2.0479
3109.00,2.0599
3108.00,2.0709
3107.00,2.0815
3106.00,2.0921
3105.00,2.1024
3104.00,2.1121
3103.00,2.1206
3102.00,2.1283
3101.00,2.1355
3100.00,2.1425
3099.00,2.1493
3098.00,2.1557
3097.00,2.1615
3096.00,2.1668
3095.00,2.1717
3094.00,2.1765
3093.00,2.1809
3092.00,2.1849
3091.00,2.1884
3090.00,2.1916
3089.00,2.1941
3088.00,2.1959
3087.00,2.1968
3086.00,2.1972
3085.00,2.1973
3084.00,2.1970
3083.00,2.1960
3082.00,2.1944
3081.00,2.1927
3080.00,2.1909
3079.00,2.1891
3078.00,2.1868
3077.00,2.1839
3076.00,2.1801
3075.00,2.1756
3074.00,2.1706
3073.00,2.1653
3072.00,2.1596
3071.00,2.1531
3070.00,2.1461
3069.00,2.1388
3068.00,2.1314
3067.00,2.1236
3066.00,2.1151
3065.00,2.1060
3064.00,2.0963
3063.00,2.0858
3062.00,2.0746
3061.00,2.0628
3060.00,2.0507
3059.00,2.0384
3058.00,2.0255
3057.00,2.0118
3056.00,1.9973
3055.00,1.9822
3054.00,1.9665
3053.00,1.9501
3052.00,1.9328
3051.00,1.9148
3050.00,1.8963
3049.00,1.8775
3048.00,1.8581
3047.00,1.8381
3046.00,1.8173
3045.00,1.7960
3044.00,1.7742
3043.00,1.7522
3042.00,1.7301
3041.00,1.7080
3040.00,1.6861
3039.00,1.6645
3038.00,1.6434
3037.00,1.6229
3036.00,1.6031
3035.00,1.5843
3034.00,1.5666
3033.00,1.5504
3032.00,1.5360
3031.00,1.5237
3030.00,1.5134
3029.00,1.5051
3028.00,1.4991
3027.00,1.4957
3026.00,1.4949
3025.00,1.4969
3024.00,1.5016
3023.00,1.5088
3022.00,1.5185
3021.00,1.5305
3020.00,1.5448
3019.00,1.5613
3018.00,1.5800
3017.00,1.6007
3016.00,1.6230
3015.00,1.6466
3014.00,1.6710
3013.00,1.6958
3012.00,1.7209
3011.00,1.7459
3010.00,1.7704
3009.00,1.7943
3008.00,1.8174
3007.00,1.8393
3006.00,1.8595
3005.00,1.8778
3004.00,1.8938
3003.00,1.9075
3002.00,1.9187
3001.00,1.9275
3000.00,1.9341
2999.00,1.9393
2998.00,1.9438
2997.00,1.9480
2996.00,1.9526
2995.00,1.9578
2994.00,1.9640
2993.00,1.9714
2992.00,1.9800
2991.00,1.9900
2990.00,2.0014
2989.00,2.0141
2988.00,2.0280
2987.00,2.0432
2986.00,2.0594
2985.00,2.0765
2984.00,2.0942
2983.00,2.1121
2982.00,2.1299
2981.00,2.1474
2980.00,2.1648
2979.00,2.1822
2978.00,2.1995
2977.00,2.2169
2976.00,2.2341
2975.00,2.2509
2974.00,2.2671
2973.00,2.2823
2972.00,2.2969
2971.00,2.3109
2970.00,2.3245
2969.00,2.3374
2968.00,2.3494
2967.00,2.3602
2966.00,2.3700
2965.00,2.3792
2964.00,2.3882
2963.00,2.3975
2962.00,2.4070
2961.00,2.4164
2960.00,2.4259
2959.00,2.4357
2958.00,2.4455
2957.00,2.4546
2956.00,2.4632
2955.00,2.4725
2954.00,2.4835
2953.00,2.4962
2952.00,2.5098
2951.00,2.5239
2950.00,2.5388
2949.00,2.5549
2948.00,2.5714
2947.00,2.5867
2946.00,2.5992
2945.00,2.6084
2944.00,2.6135
2943.00,2.6134
2942.00,2.6071
2941.00,2.5946
2940.00,2.5781
2939.00,2.5603
2938.00,2.5428
2937.00,2.5256
2936.00,2.5089
2935.00,2.4933
2934.00,2.4797
2933.00,2.4684
2932.00,2.4588
2931.00,2.4500
2930.00,2.4414
2929.00,2.4329
2928.00,2.4246
2927.00,2.4162
2926.00,2.4079
2925.00,2.3996
2924.00,2.3915
2923.00,2.3836
2922.00,2.3756
2921.00,2.3665
2920.00,2.3561
2919.00,2.3450
2918.00,2.3341
2917.00,2.3244
2916.00,2.3157
2915.00,2.3074
2914.00,2.2987
2913.00,2.2890
2912.00,2.2784
2911.00,2.2671
2910.00,2.2552
2909.00,2.2425
2908.00,2.2295
2907.00,2.2166
2906.00,2.2038
2905.00,2.1904
2904.00,2.1758
2903.00,2.1598
2902.00,2.1427
2901.00,2.1249
2900.00,2.1064
2899.00,2.0874
2898.00,2.0676
2897.00,2.0469
2896.00,2.0250
2895.00,2.0019
2894.00,1.9780
2893.00,1.9535
2892.00,1.9282
2891.00,1.9025
2890.00,1.8763
2889.00,1.8498
2888.00,1.8233
2887.00,1.7975
2886.00,1.7729
2885.00,1.7500
2884.00,1.7287
2883.00,1.7092
2882.00,1.6920
2881.00,1.6778
2880.00,1.6671
2879.00,1.6602
2878.00,1.6573
2877.00,1.6586
2876.00,1.6639
2875.00,1.6727
2874.00,1.6842
2873.00,1.6969
2872.00,1.7096
2871.00,1.7210
2870.00,1.7302
2869.00,1.7364
2868.00,1.7392
2867.00,1.7384
2866.00,1.7345
2865.00,1.7277
2864.00,1.7182
2863.00,1.7063
2862.00,1.6920
2861.00,1.6758
2860.00,1.6581
2859.00,1.6399
2858.00,1.6222
2857.00,1.6064
2856.00,1.5939
2855.00,1.5853
2854.00,1.5813
2853.00,1.5822
2852.00,1.5878
2851.00,1.5981
2850.00,1.6125
2849.00,1.6306
2848.00,1.6517
2847.00,1.6754
2846.00,1.7009
2845.00,1.7277
2844.00,1.7554
2843.00,1.7835
2842.00,1.8118
2841.00,1.8400
2840.00,1.8676
2839.00,1.8944
2838.00,1.9205
2837.00,1.9456
2836.00,1.9696
2835.00,1.9925
2834.00,2.0147
2833.00,2.0365
2832.00,2.0578
2831.00,2.0782
2830.00,2.0976
2829.00,2.1162
2828.00,2.1340
2827.00,2.1509
2826.00,2.1666
2825.00,2.1814
2824.00,2.1954
2823.00,2.2088
2822.00,2.2218
2821.00,2.2346
2820.00,2.2470
2819.00,2.2586
2818.00,2.2691
2817.00,2.2786
2816.00,2.2871
2815.00,2.2947
2814.00,2.3017
2813.00,2.3087
2812.00,2.3160
2811.00,2.3232
2810.00,2.3301
2809.00,2.3371
2808.00,2.3440
2807.00,2.3498
2806.00,2.3536
2805.00,2.3557
2804.00,2.3570
2803.00,2.3585
2802.00,2.3600
2801.00,2.3613
2800.00,2.3621
2799.00,2.3625
2798.00,2.3621
2797.00,2.3604
2796.00,2.3579
2795.00,2.3552
2794.00,2.3532
2793.00,2.3518
2792.00,2.3504
2791.00,2.3482
2790.00,2.3447
2789.00,2.3400
2788.00,2.3346
2787.00,2.3290
2786.00,2.3229
2785.00,2.3161
2784.00,2.3088
2783.00,2.3009
2782.00,2.2926
2781.00,2.2835
2780.00,2.2734
2779.00,2.2625
2778.00,2.2509
2777.00,2.2385
2776.00,2.2253
2775.00,2.2115
2774.00,2.1972
2773.00,2.1822
2772.00,2.1664
2771.00,2.1499
2770.00,2.1329
2769.00,2.1152
2768.00,2.0965
2767.00,2.0766
2766.00,2.0555
2765.00,2.0332
2764.00,2.0096
2763.00,1.9847
2762.00,1.9588
2761.00,1.9320
2760.00,1.9040
2759.00,1.8746
2758.00,1.8433
2757.00,1.8102
2756.00,1.7754
2755.00,1.7389
2754.00,1.7009
2753.00,1.6615
2752.00,1.6210
2751.00,1.5797
2750.00,1.5377
2749.00,1.4953
2748.00,1.4529
2747.00,1.4111
2746.00,1.3703
2745.00,1.3311
2744.00,1.2939
2743.00,1.2593
2742.00,1.2275
2741.00,1.1992
2740.00,1.1745
2739.00,1.1538
2738.00,1.1373
2737.00,1.1253
2736.00,1.1181
2735.00,1.1157
2734.00,1.1183
2733.00,1.1258
2732.00,1.1381
2731.00,1.1550
2730.00,1.1764
2729.00,1.2018
2728.00,1.2310
2727.00,1.2633
2726.00,1.2984
2725.00,1.3356
2724.00,1.3747
2723.00,1.4150
2722.00,1.4563
2721.00,1.4980
2720.00,1.5397
2719.00,1.5812
2718.00,1.6222
2717.00,1.6627
2716.00,1.7024
2715.00,1.7411
2714.00,1.7786
2713.00,1.8149
2712.00,1.8499
2711.00,1.8836
2710.00,1.9160
2709.00,1.9471
2708.00,1.9769
2707.00,2.0051
2706.00,2.0317
2705.00,2.0567
2704.00,2.0806
2703.00,2.1037
2702.00,2.1258
2701.00,2.1468
2700.00,2.1666
2699.00,2.1856
2698.00,2.2038
2697.00,2.2209
2696.00,2.2367
2695.00,2.2519
2694.00,2.2671
2693.00,2.2824
2692.00,2.2971
2691.00,2.3107
2690.00,2.3232
2689.00,2.3352
2688.00,2.3468
2687.00,2.3574
2686.00,2.3666
2685.00,2.3749
2684.00,2.3830
2683.00,2.3918
2682.00,2.4007
2681.00,2.4085
2680.00,2.4143
2679.00,2.4186
2678.00,2.4226
2677.00,2.4273
2676.00,2.4324
2675.00,2.4375
2674.00,2.4422
2673.00,2.4461
2672.00,2.4489
2671.00,2.4504
2670.00,2.4510
2669.00,2.4515
2668.00,2.4523
2667.00,2.4533
2666.00,2.4542
2665.00,2.4544
2664.00,2.4534
2663.00,2.4511
2662.00,2.4477
2661.00,2.4438
2660.00,2.4398
2659.00,2.4358
2658.00,2.4316
2657.00,2.4269
2656.00,2.4220
2655.00,2.4168
2654.00,2.4113
2653.00,2.4051
2652.00,2.3978
2651.00,2.3895
2650.00,2.3804
2649.00,2.3711
2648.00,2.3617
2647.00,2.3518
2646.00,2.3414
2645.00,2.3301
2644.00,2.3180
2643.00,2.3047
2642.00,2.2904
2641.00,2.2752
2640.00,2.2593
2639.00,2.2427
2638.00,2.2251
2637.00,2.2063
2636.00,2.1866
2635.00,2.1664
2634.00,2.1461
2633.00,2.1262
2632.00,2.1069
2631.00,2.0886
2630.00,2.0716
2629.00,2.0555
2628.00,2.0391
2627.00,2.0213
2626.00,2.0010
2625.00,1.9775
2624.00,1.9507
2623.00,1.9204
2622.00,1.8869
2621.00,1.8507
2620.00,1.8125
2619.00,1.7724
2618.00,1.7306
2617.00,1.6871
2616.00,1.6419
2615.00,1.5954
2614.00,1.5478
2613.00,1.5000
2612.00,1.4525
2611.00,1.4061
2610.00,1.3612
2609.00,1.3186
2608.00,1.2790
2607.00,1.2428
2606.00,1.2107
2605.00,1.1832
2604.00,1.1608
2603.00,1.1439
2602.00,1.1329
2601.00,1.1280
2600.00,1.1294
2599.00,1.1371
2598.00,1.1511
2597.00,1.1710
2596.00,1.1964
2595.00,1.2267
2594.00,1.2614
2593.00,1.2998
2592.00,1.3411
2591.00,1.3847
2590.00,1.4298
2589.00,1.4758
2588.00,1.5220
2587.00,1.5680
2586.00,1.6137
2585.00,1.6589
2584.00,1.7034
2583.00,1.7469
2582.00,1.7893
2581.00,1.8303
2580.00,1.8698
2579.00,1.9075
2578.00,1.9435
2577.00,1.9779
2576.00,2.0109
2575.00,2.0426
2574.00,2.0728
2573.00,2.1010
2572.00,2.1272
2571.00,2.1518
2570.00,2.1756
2569.00,2.1989
2568.00,2.2211
2567.00,2.2417
2566.00,2.2608
2565.00,2.2789
2564.00,2.2966
2563.00,2.3139
2562.00,2.3308
2561.00,2.3468
2560.00,2.3619
2559.00,2.3761
2558.00,2.3897
2557.00,2.4026
2556.00,2.4143
2555.00,2.4248
2554.00,2.4350
2553.00,2.4459
2552.00,2.4580
2551.00,2.4703
2550.00,2.4813
2549.00,2.4903
2548.00,2.4970
2547.00,2.5026
2546.00,2.5083
2545.00,2.5143
2544.00,2.5199
2543.00,2.5241
2542.00,2.5275
2541.00,2.5311
2540.00,2.5355
2539.00,2.5400
2538.00,2.5433
2537.00,2.5450
2536.00,2.5456
2535.00,2.5457
2534.00,2.5458
2533.00,2.5456
2532.00,2.5449
2531.00,2.5441
2530.00,2.5436
2529.00,2.5436
2528.00,2.5433
2527.00,2.5420
2526.00,2.5396
2525.00,2.5362
2524.00,2.5320
2523.00,2.5274
2522.00,2.5228
2521.00,2.5179
2520.00,2.5118
2519.00,2.5042
2518.00,2.4960
2517.00,2.4883
2516.00,2.4810
2515.00,2.4728
2514.00,2.4629
2513.00,2.4516
2512.00,2.4397
2511.00,2.4281
2510.00,2.4172
2509.00,2.4069
2508.00,2.3960
2507.00,2.3833
2506.00,2.3686
2505.00,2.3522
2504.00,2.3349
2503.00,2.3172
2502.00,2.2993
2501.00,2.2809
2500.00,2.2615
2499.00,2.2405
2498.00,2.2182
2497.00,2.1949
2496.00,2.1707
2495.00,2.1455
2494.00,2.1191
2493.00,2.0916
2492.00,2.0627
2491.00,2.0320
2490.00,1.9994
2489.00,1.9652
2488.00,1.9294
2487.00,1.8922
2486.00,1.8535
2485.00,1.8134
2484.00,1.7716
2483.00,1.7284
2482.00,1.6838
2481.00,1.6384
2480.00,1.5929
2479.00,1.5475
2478.00,1.5028
2477.00,1.4596
2476.00,1.4185
2475.00,1.3801
2474.00,1.3449
2473.00,1.3133
2472.00,1.2858
2471.00,1.2629
2470.00,1.2450
2469.00,1.2326
2468.00,1.2260
2467.00,1.2253
2466.00,1.2309
2465.00,1.2426
2464.00,1.2605
2463.00,1.2841
2462.00,1.3130
2461.00,1.3465
2460.00,1.3840
2459.00,1.4247
2458.00,1.4680
2457.00,1.5131
2456.00,1.5595
2455.00,1.6065
2454.00,1.6537
2453.00,1.7005
2452.00,1.7467
2451.00,1.7918
2450.00,1.8359
2449.00,1.8789
2448.00,1.9207
2447.00,1.9610
2446.00,1.9993
2445.00,2.0356
2444.00,2.0701
2443.00,2.1029
2442.00,2.1341
2441.00,2.1637
2440.00,2.1919
2439.00,2.2187
2438.00,2.2446
2437.00,2.2695
2436.00,2.2933
2435.00,2.3157
2434.00,2.3368
2433.00,2.3565
2432.00,2.3753
2431.00,2.3935
2430.00,2.4117
2429.00,2.4301
2428.00,2.4480
2427.00,2.4645
2426.00,2.4787
2425.00,2.4911
2424.00,2.5028
2423.00,2.5145
2422.00,2.5265
2421.00,2.5384
2420.00,2.5502
2419.00,2.5618
2418.00,2.5732
2417.00,2.5839
2416.00,2.5929
2415.00,2.5998
2414.00,2.6046
2413.00,2.6085
2412.00,2.6124
2411.00,2.6168
2410.00,2.6221
2409.00,2.6284
2408.00,2.6347
2407.00,2.6397
2406.00,2.6427
2405.00,2.6443
2404.00,2.6451
2403.00,2.6454
2402.00,2.6454
2401.00,2.6458
2400.00,2.6474
2399.00,2.6495
2398.00,2.6510
2397.00,2.6514
2396.00,2.6511
2395.00,2.6503
2394.00,2.6481
2393.00,2.6441
2392.00,2.6390
2391.00,2.6343
2390.00,2.6307
2389.00,2.6276
2388.00,2.6247
2387.00,2.6216
2386.00,2.6176
2385.00,2.6120
2384.00,2.6046
2383.00,2.5964
2382.00,2.5884
2381.00,2.5806
2380.00,2.5723
2379.00,2.5631
2378.00,2.5530
2377.00,2.5417
2376.00,2.5287
2375.00,2.5138
2374.00,2.4980
2373.00,2.4822
2372.00,2.4668
2371.00,2.4518
2370.00,2.4369
2369.00,2.4214
2368.00,2.4046
2367.00,2.3856
2366.00,2.3646
2365.00,2.3417
2364.00,2.3173
2363.00,2.2919
2362.00,2.2661
2361.00,2.2396
2360.00,2.2113
2359.00,2.1805
2358.00,2.1477
2357.00,2.1134
2356.00,2.0778
2355.00,2.0402
2354.00,2.0002
2353.00,1.9580
2352.00,1.9140
2351.00,1.8690
2350.00,1.8238
2349.00,1.7786
2348.00,1.7330
2347.00,1.6864
2346.00,1.6390
2345.00,1.5915
2344.00,1.5454
2343.00,1.5021
2342.00,1.4625
2341.00,1.4270
2340.00,1.3961
2339.00,1.3702
2338.00,1.3497
2337.00,1.3353
2336.00,1.3274
2335.00,1.3265
2334.00,1.3329
2333.00,1.3466
2332.00,1.3675
2331.00,1.3950
2330.00,1.4285
2329.00,1.4672
2328.00,1.5103
2327.00,1.5571
2326.00,1.6066
2325.00,1.6580
2324.00,1.7109
2323.00,1.7645
2322.00,1.8180
2321.00,1.8707
2320.00,1.9223
2319.00,1.9727
2318.00,2.0218
2317.00,2.0692
2316.00,2.1147
2315.00,2.1579
2314.00,2.1992
2313.00,2.2391
2312.00,2.2781
2311.00,2.3158
2310.00,2.3520
2309.00,2.3865
2308.00,2.4196
2307.00,2.4513
2306.00,2.4812
2305.00,2.5097
2304.00,2.5377
2303.00,2.5661
2302.00,2.5942
2301.00,2.6207
2300.00,2.6453
2299.00,2.6693
2298.00,2.6943
2297.00,2.7205
2296.00,2.7452
2295.00,2.7640
2294.00,2.7729
2293.00,2.7706
2292.00,2.7588
2291.00,2.7415
2290.00,2.7226
2289.00,2.7052
2288.00,2.6925
2287.00,2.6845
2286.00,2.6840
2285.00,2.6847
2284.00,2.6949
2283.00,2.6946
2282.00,2.5912
2281.00,2.6270
2280.00,2.6463
2279.00,2.6619
2278.00,2.6703
2277.00,2.6787
2276.00,2.6860
2275.00,2.6923
2274.00,2.6969
2273.00,2.7009
2272.00,2.7049
2271.00,2.7083
2270.00,2.7102
2269.00,2.7100
2268.00,2.7067
2267.00,2.6996
2266.00,2.6893
2265.00,2.6780
2264.00,2.6671
2263.00,2.6565
2262.00,2.6467
2261.00,2.6425
2260.00,2.6537
2259.00,2.6917
2258.00,2.7663
2257.00,2.8844
2256.00,3.0482
2255.00,3.2510
2254.00,3.4654
2253.00,3.6234
2252.00,3.6440
2251.00,3.5370
2250.00,3.3822
2249.00,3.2318
2248.00,3.1044
2247.00,3.0037
2246.00,2.9278
2245.00,2.8738
2244.00,2.8378
2243.00,2.8150
2242.00,2.7999
2241.00,2.7897
2240.00,2.7837
2239.00,2.7820
2238.00,2.7822
2237.00,2.7803
2236.00,2.7740
2235.00,2.7647
2234.00,2.7554
2233.00,2.7475
2232.00,2.7398
2231.00,2.7310
2230.00,2.7210
2229.00,2.7107
2228.00,2.7001
2227.00,2.6881
2226.00,2.6742
2225.00,2.6587
2224.00,2.6422
2223.00,2.6251
2222.00,2.6073
2221.00,2.5885
2220.00,2.5684
2219.00,2.5470
2218.00,2.5242
2217.00,2.5000
2216.00,2.4745
2215.00,2.4476
2214.00,2.4191
2213.00,2.3890
2212.00,2.3571
2211.00,2.3235
2210.00,2.2882
2209.00,2.2513
2208.00,2.2133
2207.00,2.1751
2206.00,2.1375
2205.00,2.1009
2204.00,2.0643
2203.00,2.0255
2202.00,1.9823
2201.00,1.9335
2200.00,1.8797
2199.00,1.8220
2198.00,1.7618
2197.00,1.7005
2196.00,1.6397
2195.00,1.5808
2194.00,1.5253
2193.00,1.4748
2192.00,1.4302
2191.00,1.3925
2190.00,1.3624
2189.00,1.3406
2188.00,1.3279
2187.00,1.3245
2186.00,1.3306
2185.00,1.3461
2184.00,1.3705
2183.00,1.4029
2182.00,1.4423
2181.00,1.4873
2180.00,1.5367
2179.00,1.5891
2178.00,1.6436
2177.00,1.6992
2176.00,1.7550
2175.00,1.8105
2174.00,1.8648
2173.00,1.9175
2172.00,1.9686
2171.00,2.0181
2170.00,2.0656
2169.00,2.1108
2168.00,2.1535
2167.00,2.1941
2166.00,2.2334
2165.00,2.2713
2164.00,2.3071
2163.00,2.3402
2162.00,2.3709
2161.00,2.4001
2160.00,2.4283
2159.00,2.4552
2158.00,2.4801
2157.00,2.5032
2156.00,2.5251
2155.00,2.5460
2154.00,2.5661
2153.00,2.5859
2152.00,2.6054
2151.00,2.6238
2150.00,2.6400
2149.00,2.6546
2148.00,2.6692
2147.00,2.6855
2146.00,2.7024
2145.00,2.7175
2144.00,2.7291
2143.00,2.7376
2142.00,2.7453
2141.00,2.7546
2140.00,2.7664
2139.00,2.7789
2138.00,2.7893
2137.00,2.7969
2136.00,2.8033
2135.00,2.8106
2134.00,2.8181
2133.00,2.8243
2132.00,2.8289
2131.00,2.8331
2130.00,2.8370
2129.00,2.8395
2128.00,2.8405
2127.00,2.8412
2126.00,2.8430
2125.00,2.8462
2124.00,2.8503
2123.00,2.8542
2122.00,2.8561
2121.00,2.8545
2120.00,2.8506
2119.00,2.8475
2118.00,2.8467
2117.00,2.8468
2116.00,2.8453
2115.00,2.8414
2114.00,2.8363
2113.00,2.8310
2112.00,2.8258
2111.00,2.8205
2110.00,2.8153
2109.00,2.8104
2108.00,2.8060
2107.00,2.8017
2106.00,2.7968
2105.00,2.7901
2104.00,2.7814
2103.00,2.7717
2102.00,2.7618
2101.00,2.7520
2100.00,2.7418
2099.00,2.7307
2098.00,2.7183
2097.00,2.7042
2096.00,2.6887
2095.00,2.6723
2094.00,2.6557
2093.00,2.6392
2092.00,2.6227
2091.00,2.6057
2090.00,2.5881
2089.00,2.5698
2088.00,2.5507
2087.00,2.5305
2086.00,2.5083
2085.00,2.4840
2084.00,2.4580
2083.00,2.4308
2082.00,2.4025
2081.00,2.3725
2080.00,2.3406
2079.00,2.3071
2078.00,2.2723
2077.00,2.2358
2076.00,2.1975
2075.00,2.1572
2074.00,2.1153
2073.00,2.0721
2072.00,2.0277
2071.00,1.9821
2070.00,1.9348
2069.00,1.8857
2068.00,1.8349
2067.00,1.7830
2066.00,1.7313
2065.00,1.6809
2064.00,1.6321
2063.00,1.5851
2062.00,1.5406
2061.00,1.4996
2060.00,1.4636
2059.00,1.4334
2058.00,1.4101
2057.00,1.3946
2056.00,1.3877
2055.00,1.3900
2054.00,1.4016
2053.00,1.4220
2052.00,1.4509
2051.00,1.4871
2050.00,1.5298
2049.00,1.5777
2048.00,1.6296
2047.00,1.6843
2046.00,1.7407
2045.00,1.7976
2044.00,1.8542
2043.00,1.9098
2042.00,1.9645
2041.00,2.0181
2040.00,2.0701
2039.00,2.1199
2038.00,2.1674
2037.00,2.2126
2036.00,2.2554
2035.00,2.2956
2034.00,2.3332
2033.00,2.3688
2032.00,2.4027
2031.00,2.4353
2030.00,2.4663
2029.00,2.4954
2028.00,2.5222
2027.00,2.5472
2026.00,2.5714
2025.00,2.5952
2024.00,2.6179
2023.00,2.6389
2022.00,2.6581
2021.00,2.6762
2020.00,2.6933
2019.00,2.7094
2018.00,2.7248
2017.00,2.7397
2016.00,2.7540
2015.00,2.7681
2014.00,2.7828
2013.00,2.7986
2012.00,2.8149
2011.00,2.8304
2010.00,2.8439
2009.00,2.8546
2008.00,2.8626
2007.00,2.8694
2006.00,2.8772
2005.00,2.8865
2004.00,2.8958
2003.00,2.9032
2002.00,2.9085
2001.00,2.9132
2000.00,2.9188
1999.00,2.9258
1998.00,2.9341
1997.00,2.9419
1996.00,2.9473
1995.00,2.9505
1994.00,2.9540
1993.00,2.9596
1992.00,2.9655
1991.00,2.9680
1990.00,2.9661
1989.00,2.9622
1988.00,2.9583
1987.00,2.9553
1986.00,2.9534
1985.00,2.9529
1984.00,2.9527
1983.00,2.9515
1982.00,2.9490
1981.00,2.9464
1980.00,2.9444
1979.00,2.9420
1978.00,2.9379
1977.00,2.9318
1976.00,2.9245
1975.00,2.9167
1974.00,2.9097
1973.00,2.9044
1972.00,2.9007
1971.00,2.8967
1970.00,2.8902
1969.00,2.8807
1968.00,2.8697
1967.00,2.8590
1966.00,2.8492
1965.00,2.8386
1964.00,2.8255
1963.00,2.8103
1962.00,2.7948
1961.00,2.7802
1960.00,2.7657
1959.00,2.7498
1958.00,2.7324
1957.00,2.7145
1956.00,2.6967
1955.00,2.6785
1954.00,2.6591
1953.00,2.6381
1952.00,2.6153
1951.00,2.5909
1950.00,2.5655
1949.00,2.5397
1948.00,2.5130
1947.00,2.4844
1946.00,2.4528
1945.00,2.4183
1944.00,2.3817
1943.00,2.3437
1942.00,2.3042
1941.00,2.2622
1940.00,2.2170
1939.00,2.1684
1938.00,2.1171
1937.00,2.0635
1936.00,2.0071
1935.00,1.9481
1934.00,1.8874
1933.00,1.8264
1932.00,1.7660
1931.00,1.7072
1930.00,1.6511
1929.00,1.5994
1928.00,1.5535
1927.00,1.5140
1926.00,1.4813
1925.00,1.4562
1924.00,1.4406
1923.00,1.4364
1922.00,1.4428
1921.00,1.4583
1920.00,1.4822
1919.00,1.5159
1918.00,1.5597
1917.00,1.6100
1916.00,1.6627
1915.00,1.7161
1914.00,1.7718
1913.00,1.8303
1912.00,1.8904
1911.00,1.9504
1910.00,2.0097
1909.00,2.0680
1908.00,2.1237
1907.00,2.1763
1906.00,2.2260
1905.00,2.2732
1904.00,2.3179
1903.00,2.3604
1902.00,2.4008
1901.00,2.4394
1900.00,2.4756
1899.00,2.5099
1898.00,2.5427
1897.00,2.5734
1896.00,2.6017
1895.00,2.6289
1894.00,2.6565
1893.00,2.6838
1892.00,2.7093
1891.00,2.7332
1890.00,2.7559
1889.00,2.7768
1888.00,2.7943
1887.00,2.8092
1886.00,2.8244
1885.00,2.8413
1884.00,2.8590
1883.00,2.8759
1882.00,2.8915
1881.00,2.9064
1880.00,2.9206
1879.00,2.9334
1878.00,2.9437
1877.00,2.9504
1876.00,2.9555
1875.00,2.9627
1874.00,2.9739
1873.00,2.9869
1872.00,2.9999
1871.00,3.0142
1870.00,3.0316
1869.00,3.0490
1868.00,3.0600
1867.00,3.0619
1866.00,3.0565
1865.00,3.0486
1864.00,3.0434
1863.00,3.0441
1862.00,3.0491
1861.00,3.0535
1860.00,3.0549
1859.00,3.0566
1858.00,3.0618
1857.00,3.0687
1856.00,3.0728
1855.00,3.0724
1854.00,3.0692
1853.00,3.0654
1852.00,3.0615
1851.00,3.0574
1850.00,3.0538
1849.00,3.0514
1848.00,3.0513
1847.00,3.0542
1846.00,3.0587
1845.00,3.0609
1844.00,3.0571
1843.00,3.0490
1842.00,3.0408
1841.00,3.0328
1840.00,3.0226
1839.00,3.0096
1838.00,2.9958
1837.00,2.9834
1836.00,2.9740
1835.00,2.9680
1834.00,2.9634
1833.00,2.9590
1832.00,2.9557
1831.00,2.9538
1830.00,2.9481
1829.00,2.9312
1828.00,2.9030
1827.00,2.8727
1826.00,2.8492
1825.00,2.8334
1824.00,2.8203
1823.00,2.8053
1822.00,2.7870
1821.00,2.7649
1820.00,2.7388
1819.00,2.7098
1818.00,2.6800
1817.00,2.6504
1816.00,2.6212
1815.00,2.5917
1814.00,2.5612
1813.00,2.5292
1812.00,2.4959
1811.00,2.4611
1810.00,2.4235
1809.00,2.3817
1808.00,2.3372
1807.00,2.2911
1806.00,2.2427
1805.00,2.1894
1804.00,2.1316
1803.00,2.0726
1802.00,2.0158
1801.00,1.9615
1800.00,1.9061
1799.00,1.8476
1798.00,1.7889
1797.00,1.7366
1796.00,1.6957
1795.00,1.6673
1794.00,1.6503
1793.00,1.6425
1792.00,1.6417
1791.00,1.6476
1790.00,1.6617
1789.00,1.6852
1788.00,1.7179
1787.00,1.7594
1786.00,1.8105
1785.00,1.8713
1784.00,1.9390
1783.00,2.0074
1782.00,2.0732
1781.00,2.1374
1780.00,2.2007
1779.00,2.2610
1778.00,2.3171
1777.00,2.3714
1776.00,2.4265
1775.00,2.4828
1774.00,2.5419
1773.00,2.6027
1772.00,2.6545
1771.00,2.6863
1770.00,2.7007
1769.00,2.7118
1768.00,2.7331
1767.00,2.7650
1766.00,2.7989
1765.00,2.8290
1764.00,2.8561
1763.00,2.8820
1762.00,2.9064
1761.00,2.9281
1760.00,2.9469
1759.00,2.9629
1758.00,2.9785
1757.00,2.9985
1756.00,3.0217
1755.00,3.0414
1754.00,3.0559
1753.00,3.0740
1752.00,3.1044
1751.00,3.1412
1750.00,3.1679
1749.00,3.1761
1748.00,3.1731
1747.00,3.1690
1746.00,3.1707
1745.00,3.1798
1744.00,3.1935
1743.00,3.2075
1742.00,3.2188
1741.00,3.2268
1740.00,3.2313
1739.00,3.2326
1738.00,3.2321
1737.00,3.2323
1736.00,3.2370
1735.00,3.2480
1734.00,3.2573
1733.00,3.2584
1732.00,3.2544
1731.00,3.2477
1730.00,3.2399
1729.00,3.2338
1728.00,3.2285
1727.00,3.2211
1726.00,3.2137
1725.00,3.2121
1724.00,3.2197
1723.00,3.2350
1722.00,3.2530
1721.00,3.2713
1720.00,3.2930
1719.00,3.3253
1718.00,3.3723
1717.00,3.4341
1716.00,3.5113
1715.00,3.6021
1714.00,3.7009
1713.00,3.7999
1712.00,3.8887
1711.00,3.9593
1710.00,4.0161
1709.00,4.0511
1708.00,4.0408
1707.00,3.9872
1706.00,3.9106
1705.00,3.8359
1704.00,3.7730
1703.00,3.7099
1702.00,3.6380
1701.00,3.5633
1700.00,3.4929
1699.00,3.4322
1698.00,3.3840
1697.00,3.3476
1696.00,3.3249
1695.00,3.3125
1694.00,3.3016
1693.00,3.2854
1692.00,3.2635
1691.00,3.2433
1690.00,3.2322
1689.00,3.2313
1688.00,3.2359
1687.00,3.2414
1686.00,3.2489
1685.00,3.2543
1684.00,3.2422
1683.00,3.2090
1682.00,3.1684
1681.00,3.1318
1680.00,3.1037
1679.00,3.0826
1678.00,3.0645
1677.00,3.0494
1676.00,3.0384
1675.00,3.0265
1674.00,3.0090
1673.00,2.9875
1672.00,2.9664
1671.00,2.9460
1670.00,2.9189
1669.00,2.8789
1668.00,2.8315
1667.00,2.7868
1666.00,2.7485
1665.00,2.7147
1664.00,2.6814
1663.00,2.6414
1662.00,2.5892
1661.00,2.5278
1660.00,2.4639
1659.00,2.4031
1658.00,2.3487
1657.00,2.3014
1656.00,2.2616
1655.00,2.2366
1654.00,2.2243
1653.00,2.1938
1652.00,2.1417
1651.00,2.1011
1650.00,2.0795
1649.00,2.0706
1648.00,2.0726
1647.00,2.0791
1646.00,2.0821
1645.00,2.0842
1644.00,2.0933
1643.00,2.1115
1642.00,2.1392
1641.00,2.1781
1640.00,2.2261
1639.00,2.2784
1638.00,2.3342
1637.00,2.3957
1636.00,2.4550
1635.00,2.4965
1634.00,2.5183
1633.00,2.5310
1632.00,2.5457
1631.00,2.5699
1630.00,2.6056
1629.00,2.6481
1628.00,2.6898
1627.00,2.7253
1626.00,2.7554
1625.00,2.7848
1624.00,2.8160
1623.00,2.8460
1622.00,2.8726
1621.00,2.8965
1620.00,2.9189
1619.00,2.9424
1618.00,2.9701
1617.00,2.9984
1616.00,3.0194
1615.00,3.0330
1614.00,3.0439
1613.00,3.0554
1612.00,3.0692
1611.00,3.0844
1610.00,3.0986
1609.00,3.1112
1608.00,3.1223
1607.00,3.1329
1606.00,3.1459
1605.00,3.1634
1604.00,3.1823
1603.00,3.1969
1602.00,3.2054
1601.00,3.2121
1600.00,3.2205
1599.00,3.2292
1598.00,3.2391
1597.00,3.2539
1596.00,3.2741
1595.00,3.2935
1594.00,3.3050
1593.00,3.3074
1592.00,3.3041
1591.00,3.2998
1590.00,3.2988
1589.00,3.3052
1588.00,3.3178
1587.00,3.3283
1586.00,3.3273
1585.00,3.3166
1584.00,3.3072
1583.00,3.3075
1582.00,3.3167
1581.00,3.3268
1580.00,3.3295
1579.00,3.3257
1578.00,3.3255
1577.00,3.3360
1576.00,3.3521
1575.00,3.3649
1574.00,3.3722
1573.00,3.3744
1572.00,3.3740
1571.00,3.3734
1570.00,3.3671
1569.00,3.3489
1568.00,3.3228
1567.00,3.3004
1566.00,3.2912
1565.00,3.2972
1564.00,3.3099
1563.00,3.3165
1562.00,3.3134
1561.00,3.3134
1560.00,3.3227
1559.00,3.3156
1558.00,3.2766
1557.00,3.2312
1556.00,3.1953
1555.00,3.1656
1554.00,3.1379
1553.00,3.1106
1552.00,3.0849
1551.00,3.0657
1550.00,3.0561
1549.00,3.0509
1548.00,3.0406
1547.00,3.0218
1546.00,3.0005
1545.00,2.9861
1544.00,2.9823
1543.00,2.9869
1542.00,2.9941
1541.00,2.9916
1540.00,2.9616
1539.00,2.9038
1538.00,2.8421
1537.00,2.7930
1536.00,2.7561
1535.00,2.7276
1534.00,2.7011
1533.00,2.6680
1532.00,2.6282
1531.00,2.5910
1530.00,2.5626
1529.00,2.5430
1528.00,2.5304
1527.00,2.5247
1526.00,2.5267
1525.00,2.5339
1524.00,2.5410
1523.00,2.5457
1522.00,2.5493
1521.00,2.5532
1520.00,2.5582
1519.00,2.5635
1518.00,2.5679
1517.00,2.5712
1516.00,2.5740
1515.00,2.5769
1514.00,2.5828
1513.00,2.5972
1512.00,2.6229
1511.00,2.6567
1510.00,2.6935
1509.00,2.7348
1508.00,2.7868
1507.00,2.8419
1506.00,2.8781
1505.00,2.8957
1504.00,2.9112
1503.00,2.9303
1502.00,2.9559
1501.00,2.9899
1500.00,3.0280
1499.00,3.0622
1498.00,3.0904
1497.00,3.1153
1496.00,3.1393
1495.00,3.1623
1494.00,3.1824
1493.00,3.2010
1492.00,3.2237
1491.00,3.2562
1490.00,3.2986
1489.00,3.3409
1488.00,3.3674
1487.00,3.3738
1486.00,3.3725
1485.00,3.3754
1484.00,3.3816
1483.00,3.3854
1482.00,3.3894
1481.00,3.4005
1480.00,3.4211
1479.00,3.4478
1478.00,3.4779
1477.00,3.5067
1476.00,3.5256
1475.00,3.5322
1474.00,3.5375
1473.00,3.5497
1472.00,3.5592
1471.00,3.5559
1470.00,3.5477
1469.00,3.5484
1468.00,3.5640
1467.00,3.5902
1466.00,3.6168
1465.00,3.6328
1464.00,3.6320
1463.00,3.6240
1462.00,3.6309
1461.00,3.6670
1460.00,3.7268
1459.00,3.7846
1458.00,3.8097
1457.00,3.7922
1456.00,3.7600
1455.00,3.7525
1454.00,3.7876
1453.00,3.8610
1452.00,3.9415
1451.00,3.9716
1450.00,3.9361
1449.00,3.8863
1448.00,3.8622
1447.00,3.8645
1446.00,3.8837
1445.00,3.9205
1444.00,3.9727
1443.00,4.0164
1442.00,4.0172
1441.00,3.9819
1440.00,3.9332
1439.00,3.8754
1438.00,3.8296
1437.00,3.8247
1436.00,3.8621
1435.00,3.9066
1434.00,3.9117
1433.00,3.8709
1432.00,3.8165
1431.00,3.7746
1430.00,3.7561
1429.00,3.7630
1428.00,3.7832
1427.00,3.7930
1426.00,3.7834
1425.00,3.7714
1424.00,3.7740
1423.00,3.7887
1422.00,3.8001
1421.00,3.8017
1420.00,3.8016
1419.00,3.8071
1418.00,3.8123
1417.00,3.8082
1416.00,3.7998
1415.00,3.8025
1414.00,3.8229
1413.00,3.8465
1412.00,3.8429
1411.00,3.8001
1410.00,3.7412
1409.00,3.6964
1408.00,3.6837
1407.00,3.7074
1406.00,3.7571
1405.00,3.8017
1404.00,3.8011
1403.00,3.7526
1402.00,3.6924
1401.00,3.6492
1400.00,3.6301
1399.00,3.6263
1398.00,3.6191
1397.00,3.5908
1396.00,3.5410
1395.00,3.4891
1394.00,3.4528
1393.00,3.4330
1392.00,3.4174
1391.00,3.3966
1390.00,3.3715
1389.00,3.3472
1388.00,3.3256
1387.00,3.3084
1386.00,3.3001
1385.00,3.3039
1384.00,3.3199
1383.00,3.3478
1382.00,3.3902
1381.00,3.4489
1380.00,3.5180
1379.00,3.5892
1378.00,3.6646
1377.00,3.7527
1376.00,3.8498
1375.00,3.9201
1374.00,3.9073
1373.00,3.8142
1372.00,3.6962
1371.00,3.5879
1370.00,3.4976
1369.00,3.4236
1368.00,3.3590
1367.00,3.2958
1366.00,3.2300
1365.00,3.1638
1364.00,3.1022
1363.00,3.0484
1362.00,3.0012
1361.00,2.9556
1360.00,2.9086
1359.00,2.8621
1358.00,2.8205
1357.00,2.7881
1356.00,2.7670
1355.00,2.7584
1354.00,2.7632
1353.00,2.7811
1352.00,2.8102
1351.00,2.8456
1350.00,2.8801
1349.00,2.9067
1348.00,2.9223
1347.00,2.9300
1346.00,2.9368
1345.00,2.9484
1344.00,2.9663
1343.00,2.9880
1342.00,3.0099
1341.00,3.0291
1340.00,3.0435
1339.00,3.0526
1338.00,3.0582
1337.00,3.0628
1336.00,3.0686
1335.00,3.0770
1334.00,3.0904
1333.00,3.1117
1332.00,3.1423
1331.00,3.1805
1330.00,3.2231
1329.00,3.2652
1328.00,3.2984
1327.00,3.3162
1326.00,3.3236
1325.00,3.3354
1324.00,3.3621
1323.00,3.4027
1322.00,3.4476
1321.00,3.4877
1320.00,3.5207
1319.00,3.5471
1318.00,3.5644
1317.00,3.5700
1316.00,3.5675
1315.00,3.5653
1314.00,3.5711
1313.00,3.5882
1312.00,3.6107
1311.00,3.6242
1310.00,3.6183
1309.00,3.5985
1308.00,3.5791
1307.00,3.5692
1306.00,3.5689
1305.00,3.5750
1304.00,3.5855
1303.00,3.5980
1302.00,3.6076
1301.00,3.6102
1300.00,3.6093
1299.00,3.6142
1298.00,3.6274
1297.00,3.6430
1296.00,3.6613
1295.00,3.6828
1294.00,3.6985
1293.00,3.6986
1292.00,3.6791
1291.00,3.6501
1290.00,3.6333
1289.00,3.6424
1288.00,3.6757
1287.00,3.7229
1286.00,3.7720
1285.00,3.8096
1284.00,3.8173
1283.00,3.7897
1282.00,3.7451
1281.00,3.7025
1280.00,3.6705
1279.00,3.6534
1278.00,3.6518
1277.00,3.6598
1276.00,3.6666
1275.00,3.6641
1274.00,3.6483
1273.00,3.6205
1272.00,3.5868
1271.00,3.5552
1270.00,3.5325
1269.00,3.5195
1268.00,3.5096
1267.00,3.4981
1266.00,3.4900
1265.00,3.4930
1264.00,3.5072
1263.00,3.5246
1262.00,3.5317
1261.00,3.5163
1260.00,3.4813
1259.00,3.4415
1258.00,3.4091
1257.00,3.3854
1256.00,3.3613
1255.00,3.3303
1254.00,3.2959
1253.00,3.2618
1252.00,3.2267
1251.00,3.1885
1250.00,3.1510
1249.00,3.1207
1248.00,3.0984
1247.00,3.0752
1246.00,3.0393
1245.00,2.9876
1244.00,2.9272
1243.00,2.8665
1242.00,2.8089
1241.00,2.7541
1240.00,2.7017
1239.00,2.6531
1238.00,2.6106
1237.00,2.5757
1236.00,2.5502
1235.00,2.5355
1234.00,2.5336
1233.00,2.5461
1232.00,2.5736
1231.00,2.6160
1230.00,2.6715
1229.00,2.7365
1228.00,2.8067
1227.00,2.8789
1226.00,2.9485
1225.00,3.0057
1224.00,3.0349
1223.00,3.0269
1222.00,2.9903
1221.00,2.9428
1220.00,2.8975
1219.00,2.8607
1218.00,2.8364
1217.00,2.8285
1216.00,2.8400
1215.00,2.8706
1214.00,2.9149
1213.00,2.9632
1212.00,3.0075
1211.00,3.0479
1210.00,3.0906
1209.00,3.1396
1208.00,3.1930
1207.00,3.2463
1206.00,3.2967
1205.00,3.3414
1204.00,3.3774
1203.00,3.4062
1202.00,3.4377
1201.00,3.4825
1200.00,3.5385
1199.00,3.5928
1198.00,3.6321
1197.00,3.6485
1196.00,3.6468
1195.00,3.6390
1194.00,3.6325
1193.00,3.6339
1192.00,3.6427
1191.00,3.6481
1190.00,3.6481
1189.00,3.6606
1188.00,3.7032
1187.00,3.7672
1186.00,3.8186
1185.00,3.8360
1184.00,3.8260
1183.00,3.8027
1182.00,3.7705
1181.00,3.7285
1180.00,3.6927
1179.00,3.6895
1178.00,3.7372
1177.00,3.8263
1176.00,3.9012
1175.00,3.9020
1174.00,3.8603
1173.00,3.8420
1172.00,3.8528
1171.00,3.8583
1170.00,3.8478
1169.00,3.8428
1168.00,3.8536
1167.00,3.8755
1166.00,3.9046
1165.00,3.9389
1164.00,3.9857
1163.00,4.0527
1162.00,4.1098
1161.00,4.1169
1160.00,4.1026
1159.00,4.0842
1158.00,4.0352
1157.00,3.9694
1156.00,3.9156
1155.00,3.8748
1154.00,3.8481
1153.00,3.8507
1152.00,3.8859
1151.00,3.9418
1150.00,4.0186
1149.00,4.1084
1148.00,4.1469
1147.00,4.1043
1146.00,4.0496
1145.00,4.0111
1144.00,3.9712
1143.00,3.9441
1142.00,3.9447
1141.00,3.9553
1140.00,3.9739
1139.00,4.0049
1138.00,4.0277
1137.00,4.0620
1136.00,4.1588
1135.00,4.2040
1134.00,4.0964
1133.00,4.0034
1132.00,3.9554
1131.00,3.9263
1130.00,3.9147
1129.00,3.9033
1128.00,3.8656
1127.00,3.7991
1126.00,3.7406
1125.00,3.7240
1124.00,3.7610
1123.00,3.8387
1122.00,3.9185
1121.00,3.9452
1120.00,3.8923
1119.00,3.7956
1118.00,3.6999
1117.00,3.6154
1116.00,3.5393
1115.00,3.4748
1114.00,3.4250
1113.00,3.3882
1112.00,3.3586
1111.00,3.3288
1110.00,3.2951
1109.00,3.2590
1108.00,3.2200
1107.00,3.1756
1106.00,3.1279
1105.00,3.0842
1104.00,3.0486
1103.00,3.0179
1102.00,2.9864
1101.00,2.9545
1100.00,2.9287
1099.00,2.9156
1098.00,2.9176
1097.00,2.9337
1096.00,2.9640
1095.00,3.0105
1094.00,3.0719
1093.00,3.1370
1092.00,3.1899
1091.00,3.2262
1090.00,3.2573
1089.00,3.2936
1088.00,3.3365
1087.00,3.3908
1086.00,3.4704
1085.00,3.5757
1084.00,3.6685
1083.00,3.7079
1082.00,3.7158
1081.00,3.7382
1080.00,3.7769
1079.00,3.7796
1078.00,3.7255
1077.00,3.6721
1076.00,3.6718
1075.00,3.7397
1074.00,3.8698
1073.00,4.0280
1072.00,4.1022
1071.00,4.0552
1070.00,4.0068
1069.00,4.0037
1068.00,4.0337
1067.00,4.0658
1066.00,4.0703
1065.00,4.0517
1064.00,4.0489
1063.00,4.0987
1062.00,4.1824
1061.00,4.2225
1060.00,4.2150
1059.00,4.2195
1058.00,4.2585
1057.00,4.3324
1056.00,4.4381
1055.00,4.5230
1054.00,4.6466
1053.00,4.6938
1052.00,4.3702
1051.00,4.1696
1050.00,4.1548
1049.00,4.1016
1048.00,3.9704
1047.00,3.9566
1046.00,4.0725
1045.00,4.1648
1044.00,4.0708
1043.00,3.9209
1042.00,3.8630
1041.00,3.9184
1040.00,4.0464
1039.00,4.1713
1038.00,4.3231
1037.00,4.4475
1036.00,4.3742
1035.00,4.2838
1034.00,4.2321
1033.00,4.2143
1032.00,4.1744
1031.00,4.0638
1030.00,3.9909
1029.00,4.0051
1028.00,4.1077
1027.00,4.3069
1026.00,4.5770
1025.00,4.6404
1024.00,4.3118
1023.00,4.0187
1022.00,3.8718
1021.00,3.8002
1020.00,3.8109
1019.00,3.8956
1018.00,4.1399
1017.00,4.7760
1016.00,4.4373
1015.00,4.1396
1014.00,4.0823
1013.00,4.0697
1012.00,4.1190
1011.00,4.1242
1010.00,4.0023
1009.00,3.8847
1008.00,3.8692
1007.00,3.9550
1006.00,4.1221
1005.00,4.2572
1004.00,4.2850
1003.00,4.2888
1002.00,4.2667
1001.00,4.1815
1000.00,4.0789
999.00,4.0180
998.00,3.9936
997.00,4.0000
996.00,4.0651
995.00,4.2262
994.00,4.4930
993.00,4.6692
992.00,4.6414
991.00,4.5522
990.00,4.4288
989.00,4.3342
988.00,4.2164
987.00,4.0494
986.00,3.8983
985.00,3.8167
984.00,3.8223
983.00,3.9103
982.00,4.0499
981.00,4.1588
980.00,4.1668
979.00,4.0912
978.00,3.9874
977.00,3.9212
976.00,3.9312
975.00,4.0240
974.00,4.1703
973.00,4.2564
972.00,4.2386
971.00,4.1803
970.00,4.0871
969.00,4.0255
968.00,4.0358
967.00,4.0892
966.00,4.1270
965.00,4.0923
964.00,3.9831
963.00,3.8489
962.00,3.7409
961.00,3.6817
960.00,3.6710
959.00,3.6841
958.00,3.6849
957.00,3.6705
956.00,3.6711
955.00,3.7047
954.00,3.7578
953.00,3.8184
952.00,3.9112
951.00,4.0748
950.00,4.2204
949.00,4.1748
948.00,4.0933
947.00,4.1066
946.00,4.2387
945.00,4.5619
944.00,5.0190
943.00,4.7560
942.00,4.5105
941.00,4.3930
940.00,4.4203
939.00,4.4239
938.00,4.2194
937.00,4.1291
936.00,4.2119
935.00,4.5081
934.00,5.0724
933.00,4.9147
932.00,4.4729
931.00,4.2925
930.00,4.3447
929.00,4.2565
928.00,4.0208
927.00,3.9512
926.00,3.9928
925.00,4.0451
924.00,4.1111
923.00,4.1940
922.00,4.2622
921.00,4.3126
920.00,4.3083
919.00,4.2656
918.00,4.2952
917.00,4.3908
916.00,4.5459
915.00,4.7363
914.00,4.6517
913.00,4.5155
912.00,4.6702
911.00,4.7296
910.00,4.7048
909.00,4.8511
908.00,4.4800
907.00,4.2395
906.00,4.3454
905.00,4.7977
904.00,4.4301
903.00,4.0891
902.00,4.0296
901.00,4.0624
900.00,4.2428
899.00,4.8106
898.00,4.5979
897.00,4.2431
896.00,4.2521
895.00,4.3163
894.00,4.2289
893.00,4.1735
892.00,4.2299
891.00,4.2584
890.00,4.1727
889.00,4.0692
888.00,4.0195
887.00,4.0491
886.00,4.0527
885.00,4.0488
884.00,4.0821
883.00,4.3269
882.00,4.9382
881.00,4.2598
880.00,4.0286
879.00,3.9919
878.00,3.8998
877.00,3.7875
876.00,3.7522
875.00,3.8320
874.00,3.9764
873.00,4.1281
872.00,4.2915
871.00,4.5378
870.00,4.5467
869.00,4.2015
868.00,3.8870
867.00,3.7057
866.00,3.6718
865.00,3.7761
864.00,4.1277
863.00,4.5805
862.00,4.2045
861.00,4.1315
860.00,4.1230
859.00,4.0117
858.00,3.9265
857.00,3.8523
856.00,3.7996
855.00,3.7743
854.00,3.7846
853.00,3.7913
852.00,3.7985
851.00,3.8553
850.00,3.9816
849.00,4.1384
848.00,4.2174
847.00,4.1929
846.00,4.1373
845.00,4.0706
844.00,3.9969
843.00,3.9292
842.00,3.8957
841.00,3.9197
840.00,4.0279
839.00,4.2165
838.00,4.5231
837.00,4.7155
836.00,4.3465
835.00,4.1160
834.00,3.9770
833.00,3.8850
832.00,3.8614
831.00,3.9008
830.00,3.9671
829.00,3.9364
828.00,3.8060
827.00,3.6985
826.00,3.6655
825.00,3.7201
824.00,3.8586
823.00,4.0105
822.00,4.0183
821.00,3.9164
820.00,3.8707
819.00,3.9341
818.00,4.0536
817.00,4.1172
816.00,4.1310
815.00,4.1392
814.00,4.0873
813.00,3.9627
812.00,3.8523
811.00,3.8043
810.00,3.8136
809.00,3.8652
808.00,3.9503
807.00,4.0270
806.00,4.0345
805.00,4.0677
804.00,4.1327
803.00,4.0578
802.00,3.9376
801.00,3.8720
800.00,3.8613
799.00,3.9068
798.00,3.9812
797.00,4.0447
796.00,4.1321
795.00,4.2047
794.00,4.1120
793.00,3.9853
792.00,3.9427
791.00,3.9884
790.00,4.1246
789.00,4.2855
788.00,4.2119
787.00,4.0579
786.00,4.0070
785.00,4.0284
784.00,4.0856
783.00,4.1578
782.00,4.2266
781.00,4.2285
780.00,4.2051
779.00,4.2396
778.00,4.5041
777.00,4.8650
776.00,4.4452
775.00,4.2509
774.00,4.3115
773.00,4.5322
772.00,4.3221
771.00,4.0815
770.00,4.0455
769.00,4.1201
768.00,4.2081
767.00,4.1757
766.00,4.0576
765.00,3.9582
764.00,3.9480
763.00,4.0375
762.00,4.2086
761.00,4.4004
760.00,4.5635
759.00,4.7003
758.00,4.5707
757.00,4.4394
756.00,4.4978
755.00,4.4806
754.00,4.3572
753.00,4.4755
752.00,4.4536
751.00,4.1335
750.00,4.0316
749.00,4.1235
748.00,4.3033
747.00,4.2686
746.00,4.1509
745.00,4.1474
744.00,4.2019
743.00,4.2473
742.00,4.3200
741.00,4.5125
740.00,4.7132
739.00,4.6292
738.00,4.4227
737.00,4.3693
736.00,4.3674
735.00,4.2325
734.00,4.1316
733.00,4.1658
732.00,4.4249
731.00,4.6108
730.00,4.3598
729.00,4.4059
728.00,4.5930
727.00,4.8083
726.00,4.9621
725.00,4.4897
724.00,4.2707
723.00,4.1004
722.00,3.9670
721.00,3.9091
720.00,3.8786
719.00,3.8490
718.00,3.8419
717.00,3.8888
716.00,3.9785
715.00,4.0483
714.00,3.9985
713.00,3.8426
712.00,3.6784
711.00,3.5602
710.00,3.5002
709.00,3.4959
708.00,3.5384
707.00,3.6058
706.00,3.6550
705.00,3.6654
704.00,3.6888
703.00,3.8013
702.00,4.0441
701.00,4.3500
700.00,4.7030
