Created as New Dataset,Sample 017 By Administrator Date Wednesday, November 24 2021
cm-1,A
7502.00,0.4936
7501.00,0.4912
7500.00,0.4888
7499.00,0.4864
7498.00,0.4840
7497.00,0.4816
7496.00,0.4792
7495.00,0.4770
7494.00,0.4749
7493.00,0.4731
7492.00,0.4716
7491.00,0.4703
7490.00,0.4695
7489.00,0.4692
7488.00,0.4698
7487.00,0.4712
7486.00,0.4733
7485.00,0.4760
7484.00,0.4793
7483.00,0.4832
7482.00,0.4876
7481.00,0.4924
7480.00,0.4976
7479.00,0.5035
7478.00,0.5099
7477.00,0.5167
7476.00,0.5235
7475.00,0.5302
7474.00,0.5371
7473.00,0.5445
7472.00,0.5524
7471.00,0.5606
7470.00,0.5689
7469.00,0.5774
7468.00,0.5863
7467.00,0.5958
7466.00,0.6058
7465.00,0.6159
7464.00,0.6258
7463.00,0.6359
7462.00,0.6463
7461.00,0.6573
7460.00,0.6685
7459.00,0.6796
7458.00,0.6905
7457.00,0.7013
7456.00,0.7121
7455.00,0.7226
7454.00,0.7326
7453.00,0.7420
7452.00,0.7509
7451.00,0.7595
7450.00,0.7683
7449.00,0.7776
7448.00,0.7871
7447.00,0.7965
7446.00,0.8056
7445.00,0.8146
7444.00,0.8234
7443.00,0.8318
7442.00,0.8392
7441.00,0.8456
7440.00,0.8513
7439.00,0.8569
7438.00,0.8629
7437.00,0.8691
7436.00,0.8751
7435.00,0.8803
7434.00,0.8849
7433.00,0.8892
7432.00,0.8933
7431.00,0.8969
7430.00,0.8996
7429.00,0.9016
7428.00,0.9037
7427.00,0.9065
7426.00,0.9101
7425.00,0.9137
7424.00,0.9163
7423.00,0.9175
7422.00,0.9178
7421.00,0.9177
7420.00,0.9173
7419.00,0.9159
7418.00,0.9133
7417.00,0.9099
7416.00,0.9061
7415.00,0.9023
7414.00,0.8986
7413.00,0.8950
7412.00,0.8912
7411.00,0.8868
7410.00,0.8821
7409.00,0.8776
7408.00,0.8733
7407.00,0.8689
7406.00,0.8644
7405.00,0.8598
7404.00,0.8550
7403.00,0.8498
7402.00,0.8441
7401.00,0.8379
7400.00,0.8314
7399.00,0.8245
7398.00,0.8171
7397.00,0.8093
7396.00,0.8013
7395.00,0.7935
7394.00,0.7857
7393.00,0.7777
7392.00,0.7698
7391.00,0.7623
7390.00,0.7552
7389.00,0.7487
7388.00,0.7425
7387.00,0.7364
7386.00,0.7307
7385.00,0.7253
7384.00,0.7200
7383.00,0.7143
7382.00,0.7082
7381.00,0.7021
7380.00,0.6967
7379.00,0.6916
7378.00,0.6863
7377.00,0.6801
7376.00,0.6734
7375.00,0.6663
7374.00,0.6592
7373.00,0.6518
7372.00,0.6441
7371.00,0.6366
7370.00,0.6299
7369.00,0.6242
7368.00,0.6191
7367.00,0.6143
7366.00,0.6098
7365.00,0.6058
7364.00,0.6020
7363.00,0.5984
7362.00,0.5947
7361.00,0.5912
7360.00,0.5880
7359.00,0.5852
7358.00,0.5830
7357.00,0.5812
7356.00,0.5800
7355.00,0.5794
7354.00,0.5796
7353.00,0.5806
7352.00,0.5823
7351.00,0.5842
7350.00,0.5863
7349.00,0.5885
7348.00,0.5907
7347.00,0.5931
7346.00,0.5959
7345.00,0.5996
7344.00,0.6042
7343.00,0.6097
7342.00,0.6158
7341.00,0.6223
7340.00,0.6291
7339.00,0.6359
7338.00,0.6427
7337.00,0.6495
7336.00,0.6567
7335.00,0.6645
7334.00,0.6729
7333.00,0.6819
7332.00,0.6914
7331.00,0.7011
7330.00,0.7110
7329.00,0.7210
7328.00,0.7308
7327.00,0.7406
7326.00,0.7508
7325.00,0.7616
7324.00,0.7727
7323.00,0.7835
7322.00,0.7939
7321.00,0.8041
7320.00,0.8143
7319.00,0.8247
7318.00,0.8349
7317.00,0.8450
7316.00,0.8548
7315.00,0.8648
7314.00,0.8752
7313.00,0.8858
7312.00,0.8959
7311.00,0.9049
7310.00,0.9131
7309.00,0.9215
7308.00,0.9303
7307.00,0.9389
7306.00,0.9469
7305.00,0.9546
7304.00,0.9623
7303.00,0.9701
7302.00,0.9778
7301.00,0.9850
7300.00,0.9914
7299.00,0.9974
7298.00,1.0032
7297.00,1.0091
7296.00,1.0148
7295.00,1.0197
7294.00,1.0236
7293.00,1.0266
7292.00,1.0295
7291.00,1.0326
7290.00,1.0360
7289.00,1.0394
7288.00,1.0422
7287.00,1.0443
7286.00,1.0457
7285.00,1.0467
7284.00,1.0471
7283.00,1.0468
7282.00,1.0461
7281.00,1.0455
7280.00,1.0457
7279.00,1.0466
7278.00,1.0474
7277.00,1.0471
7276.00,1.0452
7275.00,1.0424
7274.00,1.0394
7273.00,1.0365
7272.00,1.0336
7271.00,1.0304
7270.00,1.0273
7269.00,1.0244
7268.00,1.0211
7267.00,1.0170
7266.00,1.0119
7265.00,1.0060
7264.00,0.9999
7263.00,0.9939
7262.00,0.9881
7261.00,0.9824
7260.00,0.9766
7259.00,0.9705
7258.00,0.9636
7257.00,0.9560
7256.00,0.9474
7255.00,0.9385
7254.00,0.9296
7253.00,0.9207
7252.00,0.9118
7251.00,0.9029
7250.00,0.8942
7249.00,0.8857
7248.00,0.8771
7247.00,0.8683
7246.00,0.8591
7245.00,0.8496
7244.00,0.8401
7243.00,0.8306
7242.00,0.8214
7241.00,0.8123
7240.00,0.8033
7239.00,0.7940
7238.00,0.7847
7237.00,0.7755
7236.00,0.7667
7235.00,0.7581
7234.00,0.7498
7233.00,0.7418
7232.00,0.7342
7231.00,0.7269
7230.00,0.7202
7229.00,0.7140
7228.00,0.7082
7227.00,0.7024
7226.00,0.6968
7225.00,0.6918
7224.00,0.6874
7223.00,0.6835
7222.00,0.6801
7221.00,0.6771
7220.00,0.6748
7219.00,0.6730
7218.00,0.6716
7217.00,0.6707
7216.00,0.6703
7215.00,0.6705
7214.00,0.6713
7213.00,0.6725
7212.00,0.6742
7211.00,0.6764
7210.00,0.6794
7209.00,0.6833
7208.00,0.6877
7207.00,0.6923
7206.00,0.6973
7205.00,0.7028
7204.00,0.7090
7203.00,0.7158
7202.00,0.7229
7201.00,0.7302
7200.00,0.7376
7199.00,0.7453
7198.00,0.7534
7197.00,0.7618
7196.00,0.7705
7195.00,0.7796
7194.00,0.7892
7193.00,0.7992
7192.00,0.8094
7191.00,0.8194
7190.00,0.8294
7189.00,0.8392
7188.00,0.8489
7187.00,0.8586
7186.00,0.8683
7185.00,0.8780
7184.00,0.8875
7183.00,0.8968
7182.00,0.9064
7181.00,0.9162
7180.00,0.9261
7179.00,0.9359
7178.00,0.9457
7177.00,0.9558
7176.00,0.9660
7175.00,0.9759
7174.00,0.9848
7173.00,0.9925
7172.00,0.9991
7171.00,1.0051
7170.00,1.0112
7169.00,1.0176
7168.00,1.0239
7167.00,1.0299
7166.00,1.0357
7165.00,1.0418
7164.00,1.0480
7163.00,1.0539
7162.00,1.0589
7161.00,1.0630
7160.00,1.0670
7159.00,1.0710
7158.00,1.0749
7157.00,1.0781
7156.00,1.0806
7155.00,1.0825
7154.00,1.0844
7153.00,1.0862
7152.00,1.0877
7151.00,1.0888
7150.00,1.0895
7149.00,1.0899
7148.00,1.0899
7147.00,1.0895
7146.00,1.0887
7145.00,1.0874
7144.00,1.0854
7143.00,1.0828
7142.00,1.0802
7141.00,1.0779
7140.00,1.0758
7139.00,1.0733
7138.00,1.0704
7137.00,1.0670
7136.00,1.0638
7135.00,1.0609
7134.00,1.0575
7133.00,1.0532
7132.00,1.0477
7131.00,1.0417
7130.00,1.0357
7129.00,1.0292
7128.00,1.0220
7127.00,1.0143
7126.00,1.0066
7125.00,0.9993
7124.00,0.9921
7123.00,0.9846
7122.00,0.9768
7121.00,0.9690
7120.00,0.9608
7119.00,0.9522
7118.00,0.9431
7117.00,0.9340
7116.00,0.9250
7115.00,0.9162
7114.00,0.9075
7113.00,0.8990
7112.00,0.8905
7111.00,0.8819
7110.00,0.8731
7109.00,0.8643
7108.00,0.8554
7107.00,0.8465
7106.00,0.8375
7105.00,0.8284
7104.00,0.8194
7103.00,0.8104
7102.00,0.8017
7101.00,0.7934
7100.00,0.7852
7099.00,0.7773
7098.00,0.7696
7097.00,0.7623
7096.00,0.7553
7095.00,0.7484
7094.00,0.7420
7093.00,0.7359
7092.00,0.7302
7091.00,0.7249
7090.00,0.7198
7089.00,0.7151
7088.00,0.7106
7087.00,0.7063
7086.00,0.7025
7085.00,0.6994
7084.00,0.6971
7083.00,0.6954
7082.00,0.6941
7081.00,0.6933
7080.00,0.6930
7079.00,0.6931
7078.00,0.6937
7077.00,0.6950
7076.00,0.6969
7075.00,0.6995
7074.00,0.7027
7073.00,0.7064
7072.00,0.7108
7071.00,0.7156
7070.00,0.7209
7069.00,0.7266
7068.00,0.7328
7067.00,0.7393
7066.00,0.7464
7065.00,0.7538
7064.00,0.7614
7063.00,0.7691
7062.00,0.7772
7061.00,0.7857
7060.00,0.7947
7059.00,0.8042
7058.00,0.8140
7057.00,0.8241
7056.00,0.8343
7055.00,0.8442
7054.00,0.8538
7053.00,0.8635
7052.00,0.8734
7051.00,0.8836
7050.00,0.8941
7049.00,0.9049
7048.00,0.9157
7047.00,0.9262
7046.00,0.9366
7045.00,0.9471
7044.00,0.9573
7043.00,0.9669
7042.00,0.9759
7041.00,0.9847
7040.00,0.9939
7039.00,1.0032
7038.00,1.0122
7037.00,1.0205
7036.00,1.0284
7035.00,1.0367
7034.00,1.0451
7033.00,1.0533
7032.00,1.0606
7031.00,1.0673
7030.00,1.0738
7029.00,1.0806
7028.00,1.0876
7027.00,1.0945
7026.00,1.1009
7025.00,1.1068
7024.00,1.1120
7023.00,1.1165
7022.00,1.1201
7021.00,1.1231
7020.00,1.1257
7019.00,1.1283
7018.00,1.1311
7017.00,1.1341
7016.00,1.1368
7015.00,1.1388
7014.00,1.1404
7013.00,1.1418
7012.00,1.1431
7011.00,1.1439
7010.00,1.1443
7009.00,1.1444
7008.00,1.1445
7007.00,1.1440
7006.00,1.1426
7005.00,1.1404
7004.00,1.1378
7003.00,1.1352
7002.00,1.1327
7001.00,1.1301
7000.00,1.1273
6999.00,1.1244
6998.00,1.1210
6997.00,1.1168
6996.00,1.1118
6995.00,1.1062
6994.00,1.1006
6993.00,1.0951
6992.00,1.0897
6991.00,1.0839
6990.00,1.0778
6989.00,1.0713
6988.00,1.0644
6987.00,1.0571
6986.00,1.0493
6985.00,1.0410
6984.00,1.0320
6983.00,1.0230
6982.00,1.0143
6981.00,1.0056
6980.00,0.9966
6979.00,0.9870
6978.00,0.9772
6977.00,0.9677
6976.00,0.9581
6975.00,0.9484
6974.00,0.9384
6973.00,0.9284
6972.00,0.9185
6971.00,0.9085
6970.00,0.8989
6969.00,0.8896
6968.00,0.8803
6967.00,0.8707
6966.00,0.8610
6965.00,0.8514
6964.00,0.8420
6963.00,0.8328
6962.00,0.8238
6961.00,0.8151
6960.00,0.8068
6959.00,0.7990
6958.00,0.7915
6957.00,0.7843
6956.00,0.7774
6955.00,0.7706
6954.00,0.7643
6953.00,0.7586
6952.00,0.7534
6951.00,0.7487
6950.00,0.7445
6949.00,0.7409
6948.00,0.7379
6947.00,0.7355
6946.00,0.7336
6945.00,0.7324
6944.00,0.7318
6943.00,0.7318
6942.00,0.7322
6941.00,0.7331
6940.00,0.7346
6939.00,0.7366
6938.00,0.7392
6937.00,0.7425
6936.00,0.7465
6935.00,0.7511
6934.00,0.7563
6933.00,0.7620
6932.00,0.7682
6931.00,0.7749
6930.00,0.7819
6929.00,0.7892
6928.00,0.7969
6927.00,0.8051
6926.00,0.8136
6925.00,0.8225
6924.00,0.8316
6923.00,0.8411
6922.00,0.8508
6921.00,0.8607
6920.00,0.8706
6919.00,0.8807
6918.00,0.8909
6917.00,0.9013
6916.00,0.9117
6915.00,0.9221
6914.00,0.9323
6913.00,0.9424
6912.00,0.9526
6911.00,0.9627
6910.00,0.9728
6909.00,0.9826
6908.00,0.9922
6907.00,1.0015
6906.00,1.0107
6905.00,1.0198
6904.00,1.0288
6903.00,1.0377
6902.00,1.0467
6901.00,1.0556
6900.00,1.0644
6899.00,1.0729
6898.00,1.0808
6897.00,1.0882
6896.00,1.0952
6895.00,1.1018
6894.00,1.1081
6893.00,1.1140
6892.00,1.1196
6891.00,1.1249
6890.00,1.1299
6889.00,1.1345
6888.00,1.1385
6887.00,1.1419
6886.00,1.1448
6885.00,1.1473
6884.00,1.1493
6883.00,1.1509
6882.00,1.1524
6881.00,1.1540
6880.00,1.1556
6879.00,1.1572
6878.00,1.1585
6877.00,1.1594
6876.00,1.1596
6875.00,1.1590
6874.00,1.1575
6873.00,1.1555
6872.00,1.1534
6871.00,1.1512
6870.00,1.1490
6869.00,1.1464
6868.00,1.1434
6867.00,1.1401
6866.00,1.1368
6865.00,1.1335
6864.00,1.1296
6863.00,1.1249
6862.00,1.1197
6861.00,1.1144
6860.00,1.1091
6859.00,1.1034
6858.00,1.0972
6857.00,1.0903
6856.00,1.0828
6855.00,1.0748
6854.00,1.0668
6853.00,1.0590
6852.00,1.0512
6851.00,1.0431
6850.00,1.0347
6849.00,1.0263
6848.00,1.0177
6847.00,1.0090
6846.00,0.9997
6845.00,0.9901
6844.00,0.9803
6843.00,0.9704
6842.00,0.9604
6841.00,0.9505
6840.00,0.9404
6839.00,0.9303
6838.00,0.9201
6837.00,0.9101
6836.00,0.9002
6835.00,0.8903
6834.00,0.8804
6833.00,0.8706
6832.00,0.8610
6831.00,0.8516
6830.00,0.8423
6829.00,0.8331
6828.00,0.8241
6827.00,0.8153
6826.00,0.8070
6825.00,0.7988
6824.00,0.7910
6823.00,0.7834
6822.00,0.7764
6821.00,0.7699
6820.00,0.7637
6819.00,0.7577
6818.00,0.7521
6817.00,0.7472
6816.00,0.7427
6815.00,0.7388
6814.00,0.7352
6813.00,0.7322
6812.00,0.7298
6811.00,0.7279
6810.00,0.7265
6809.00,0.7257
6808.00,0.7255
6807.00,0.7259
6806.00,0.7269
6805.00,0.7283
6804.00,0.7302
6803.00,0.7325
6802.00,0.7354
6801.00,0.7390
6800.00,0.7431
6799.00,0.7477
6798.00,0.7530
6797.00,0.7588
6796.00,0.7651
6795.00,0.7718
6794.00,0.7789
6793.00,0.7867
6792.00,0.7947
6791.00,0.8029
6790.00,0.8115
6789.00,0.8207
6788.00,0.8304
6787.00,0.8402
6786.00,0.8501
6785.00,0.8601
6784.00,0.8704
6783.00,0.8810
6782.00,0.8918
6781.00,0.9024
6780.00,0.9130
6779.00,0.9235
6778.00,0.9342
6777.00,0.9451
6776.00,0.9558
6775.00,0.9663
6774.00,0.9770
6773.00,0.9880
6772.00,0.9990
6771.00,1.0095
6770.00,1.0195
6769.00,1.0293
6768.00,1.0387
6767.00,1.0478
6766.00,1.0565
6765.00,1.0652
6764.00,1.0740
6763.00,1.0826
6762.00,1.0907
6761.00,1.0985
6760.00,1.1061
6759.00,1.1136
6758.00,1.1209
6757.00,1.1276
6756.00,1.1337
6755.00,1.1395
6754.00,1.1450
6753.00,1.1504
6752.00,1.1556
6751.00,1.1605
6750.00,1.1652
6749.00,1.1697
6748.00,1.1738
6747.00,1.1772
6746.00,1.1801
6745.00,1.1826
6744.00,1.1851
6743.00,1.1871
6742.00,1.1887
6741.00,1.1897
6740.00,1.1903
6739.00,1.1909
6738.00,1.1913
6737.00,1.1914
6736.00,1.1909
6735.00,1.1899
6734.00,1.1885
6733.00,1.1866
6732.00,1.1840
6731.00,1.1806
6730.00,1.1770
6729.00,1.1737
6728.00,1.1707
6727.00,1.1675
6726.00,1.1640
6725.00,1.1601
6724.00,1.1557
6723.00,1.1506
6722.00,1.1450
6721.00,1.1391
6720.00,1.1330
6719.00,1.1267
6718.00,1.1199
6717.00,1.1128
6716.00,1.1054
6715.00,1.0976
6714.00,1.0894
6713.00,1.0810
6712.00,1.0724
6711.00,1.0639
6710.00,1.0553
6709.00,1.0464
6708.00,1.0370
6707.00,1.0272
6706.00,1.0171
6705.00,1.0069
6704.00,0.9965
6703.00,0.9858
6702.00,0.9751
6701.00,0.9643
6700.00,0.9533
6699.00,0.9422
6698.00,0.9312
6697.00,0.9205
6696.00,0.9101
6695.00,0.8999
6694.00,0.8897
6693.00,0.8797
6692.00,0.8697
6691.00,0.8597
6690.00,0.8497
6689.00,0.8400
6688.00,0.8307
6687.00,0.8219
6686.00,0.8138
6685.00,0.8061
6684.00,0.7987
6683.00,0.7916
6682.00,0.7848
6681.00,0.7786
6680.00,0.7727
6679.00,0.7672
6678.00,0.7623
6677.00,0.7582
6676.00,0.7547
6675.00,0.7518
6674.00,0.7495
6673.00,0.7478
6672.00,0.7467
6671.00,0.7462
6670.00,0.7464
6669.00,0.7473
6668.00,0.7490
6667.00,0.7512
6666.00,0.7540
6665.00,0.7574
6664.00,0.7614
6663.00,0.7659
6662.00,0.7709
6661.00,0.7766
6660.00,0.7829
6659.00,0.7898
6658.00,0.7971
6657.00,0.8048
6656.00,0.8129
6655.00,0.8215
6654.00,0.8305
6653.00,0.8398
6652.00,0.8493
6651.00,0.8591
6650.00,0.8690
6649.00,0.8790
6648.00,0.8891
6647.00,0.8994
6646.00,0.9102
6645.00,0.9213
6644.00,0.9324
6643.00,0.9432
6642.00,0.9538
6641.00,0.9644
6640.00,0.9750
6639.00,0.9855
6638.00,0.9960
6637.00,1.0066
6636.00,1.0172
6635.00,1.0276
6634.00,1.0374
6633.00,1.0466
6632.00,1.0557
6631.00,1.0648
6630.00,1.0738
6629.00,1.0826
6628.00,1.0910
6627.00,1.0991
6626.00,1.1069
6625.00,1.1143
6624.00,1.1211
6623.00,1.1275
6622.00,1.1337
6621.00,1.1397
6620.00,1.1455
6619.00,1.1510
6618.00,1.1563
6617.00,1.1612
6616.00,1.1658
6615.00,1.1700
6614.00,1.1739
6613.00,1.1773
6612.00,1.1800
6611.00,1.1823
6610.00,1.1843
6609.00,1.1862
6608.00,1.1875
6607.00,1.1883
6606.00,1.1889
6605.00,1.1892
6604.00,1.1892
6603.00,1.1886
6602.00,1.1877
6601.00,1.1866
6600.00,1.1852
6599.00,1.1835
6598.00,1.1814
6597.00,1.1791
6596.00,1.1764
6595.00,1.1732
6594.00,1.1694
6593.00,1.1652
6592.00,1.1607
6591.00,1.1559
6590.00,1.1505
6589.00,1.1447
6588.00,1.1386
6587.00,1.1321
6586.00,1.1252
6585.00,1.1181
6584.00,1.1109
6583.00,1.1036
6582.00,1.0961
6581.00,1.0882
6580.00,1.0800
6579.00,1.0715
6578.00,1.0628
6577.00,1.0536
6576.00,1.0441
6575.00,1.0344
6574.00,1.0247
6573.00,1.0148
6572.00,1.0046
6571.00,0.9942
6570.00,0.9837
6569.00,0.9733
6568.00,0.9628
6567.00,0.9524
6566.00,0.9421
6565.00,0.9316
6564.00,0.9209
6563.00,0.9101
6562.00,0.8993
6561.00,0.8888
6560.00,0.8784
6559.00,0.8682
6558.00,0.8584
6557.00,0.8489
6556.00,0.8397
6555.00,0.8305
6554.00,0.8214
6553.00,0.8126
6552.00,0.8041
6551.00,0.7957
6550.00,0.7876
6549.00,0.7800
6548.00,0.7729
6547.00,0.7663
6546.00,0.7601
6545.00,0.7544
6544.00,0.7491
6543.00,0.7443
6542.00,0.7401
6541.00,0.7364
6540.00,0.7333
6539.00,0.7308
6538.00,0.7291
6537.00,0.7280
6536.00,0.7276
6535.00,0.7276
6534.00,0.7282
6533.00,0.7293
6532.00,0.7310
6531.00,0.7334
6530.00,0.7365
6529.00,0.7403
6528.00,0.7446
6527.00,0.7495
6526.00,0.7549
6525.00,0.7610
6524.00,0.7674
6523.00,0.7743
6522.00,0.7818
6521.00,0.7900
6520.00,0.7987
6519.00,0.8076
6518.00,0.8168
6517.00,0.8263
6516.00,0.8360
6515.00,0.8460
6514.00,0.8563
6513.00,0.8670
6512.00,0.8780
6511.00,0.8892
6510.00,0.9006
6509.00,0.9121
6508.00,0.9236
6507.00,0.9349
6506.00,0.9460
6505.00,0.9571
6504.00,0.9681
6503.00,0.9793
6502.00,0.9905
6501.00,1.0016
6500.00,1.0126
6499.00,1.0234
6498.00,1.0342
6497.00,1.0450
6496.00,1.0555
6495.00,1.0656
6494.00,1.0753
6493.00,1.0847
6492.00,1.0939
6491.00,1.1024
6490.00,1.1101
6489.00,1.1174
6488.00,1.1247
6487.00,1.1321
6486.00,1.1395
6485.00,1.1465
6484.00,1.1530
6483.00,1.1590
6482.00,1.1646
6481.00,1.1697
6480.00,1.1745
6479.00,1.1790
6478.00,1.1835
6477.00,1.1880
6476.00,1.1922
6475.00,1.1959
6474.00,1.1988
6473.00,1.2011
6472.00,1.2030
6471.00,1.2045
6470.00,1.2057
6469.00,1.2067
6468.00,1.2075
6467.00,1.2081
6466.00,1.2083
6465.00,1.2082
6464.00,1.2077
6463.00,1.2067
6462.00,1.2054
6461.00,1.2036
6460.00,1.2015
6459.00,1.1990
6458.00,1.1960
6457.00,1.1927
6456.00,1.1892
6455.00,1.1856
6454.00,1.1814
6453.00,1.1766
6452.00,1.1714
6451.00,1.1659
6450.00,1.1600
6449.00,1.1537
6448.00,1.1469
6447.00,1.1400
6446.00,1.1333
6445.00,1.1263
6444.00,1.1189
6443.00,1.1111
6442.00,1.1030
6441.00,1.0946
6440.00,1.0859
6439.00,1.0766
6438.00,1.0669
6437.00,1.0567
6436.00,1.0463
6435.00,1.0357
6434.00,1.0249
6433.00,1.0140
6432.00,1.0030
6431.00,0.9920
6430.00,0.9811
6429.00,0.9700
6428.00,0.9587
6427.00,0.9473
6426.00,0.9359
6425.00,0.9246
6424.00,0.9133
6423.00,0.9020
6422.00,0.8907
6421.00,0.8797
6420.00,0.8689
6419.00,0.8582
6418.00,0.8475
6417.00,0.8372
6416.00,0.8271
6415.00,0.8174
6414.00,0.8081
6413.00,0.7994
6412.00,0.7911
6411.00,0.7832
6410.00,0.7759
6409.00,0.7690
6408.00,0.7626
6407.00,0.7567
6406.00,0.7515
6405.00,0.7470
6404.00,0.7432
6403.00,0.7400
6402.00,0.7374
6401.00,0.7356
6400.00,0.7344
6399.00,0.7340
6398.00,0.7341
6397.00,0.7349
6396.00,0.7362
6395.00,0.7381
6394.00,0.7407
6393.00,0.7441
6392.00,0.7481
6391.00,0.7529
6390.00,0.7584
6389.00,0.7646
6388.00,0.7713
6387.00,0.7785
6386.00,0.7860
6385.00,0.7939
6384.00,0.8022
6383.00,0.8110
6382.00,0.8204
6381.00,0.8303
6380.00,0.8406
6379.00,0.8511
6378.00,0.8620
6377.00,0.8731
6376.00,0.8844
6375.00,0.8956
6374.00,0.9067
6373.00,0.9179
6372.00,0.9292
6371.00,0.9405
6370.00,0.9518
6369.00,0.9630
6368.00,0.9741
6367.00,0.9851
6366.00,0.9960
6365.00,1.0068
6364.00,1.0175
6363.00,1.0281
6362.00,1.0384
6361.00,1.0485
6360.00,1.0584
6359.00,1.0680
6358.00,1.0775
6357.00,1.0867
6356.00,1.0954
6355.00,1.1038
6354.00,1.1118
6353.00,1.1194
6352.00,1.1266
6351.00,1.1333
6350.00,1.1400
6349.00,1.1465
6348.00,1.1525
6347.00,1.1580
6346.00,1.1630
6345.00,1.1677
6344.00,1.1722
6343.00,1.1764
6342.00,1.1804
6341.00,1.1842
6340.00,1.1876
6339.00,1.1906
6338.00,1.1932
6337.00,1.1956
6336.00,1.1978
6335.00,1.1998
6334.00,1.2016
6333.00,1.2031
6332.00,1.2043
6331.00,1.2048
6330.00,1.2047
6329.00,1.2041
6328.00,1.2031
6327.00,1.2018
6326.00,1.2001
6325.00,1.1982
6324.00,1.1959
6323.00,1.1932
6322.00,1.1900
6321.00,1.1862
6320.00,1.1820
6319.00,1.1772
6318.00,1.1718
6317.00,1.1658
6316.00,1.1592
6315.00,1.1521
6314.00,1.1447
6313.00,1.1370
6312.00,1.1291
6311.00,1.1209
6310.00,1.1127
6309.00,1.1044
6308.00,1.0959
6307.00,1.0870
6306.00,1.0778
6305.00,1.0683
6304.00,1.0584
6303.00,1.0481
6302.00,1.0376
6301.00,1.0269
6300.00,1.0161
6299.00,1.0052
6298.00,0.9941
6297.00,0.9828
6296.00,0.9714
6295.00,0.9599
6294.00,0.9485
6293.00,0.9371
6292.00,0.9258
6291.00,0.9143
6290.00,0.9029
6289.00,0.8916
6288.00,0.8805
6287.00,0.8695
6286.00,0.8584
6285.00,0.8473
6284.00,0.8364
6283.00,0.8258
6282.00,0.8154
6281.00,0.8055
6280.00,0.7960
6279.00,0.7869
6278.00,0.7782
6277.00,0.7700
6276.00,0.7623
6275.00,0.7548
6274.00,0.7476
6273.00,0.7410
6272.00,0.7350
6271.00,0.7296
6270.00,0.7248
6269.00,0.7205
6268.00,0.7167
6267.00,0.7136
6266.00,0.7112
6265.00,0.7095
6264.00,0.7084
6263.00,0.7079
6262.00,0.7081
6261.00,0.7091
6260.00,0.7108
6259.00,0.7133
6258.00,0.7166
6257.00,0.7205
6256.00,0.7251
6255.00,0.7304
6254.00,0.7363
6253.00,0.7428
6252.00,0.7498
6251.00,0.7574
6250.00,0.7654
6249.00,0.7739
6248.00,0.7829
6247.00,0.7923
6246.00,0.8022
6245.00,0.8125
6244.00,0.8231
6243.00,0.8340
6242.00,0.8450
6241.00,0.8563
6240.00,0.8677
6239.00,0.8793
6238.00,0.8910
6237.00,0.9028
6236.00,0.9146
6235.00,0.9263
6234.00,0.9379
6233.00,0.9497
6232.00,0.9614
6231.00,0.9732
6230.00,0.9849
6229.00,0.9964
6228.00,1.0076
6227.00,1.0185
6226.00,1.0293
6225.00,1.0400
6224.00,1.0506
6223.00,1.0610
6222.00,1.0712
6221.00,1.0812
6220.00,1.0908
6219.00,1.0998
6218.00,1.1083
6217.00,1.1164
6216.00,1.1240
6215.00,1.1311
6214.00,1.1378
6213.00,1.1443
6212.00,1.1507
6211.00,1.1570
6210.00,1.1632
6209.00,1.1692
6208.00,1.1750
6207.00,1.1802
6206.00,1.1847
6205.00,1.1888
6204.00,1.1925
6203.00,1.1958
6202.00,1.1987
6201.00,1.2012
6200.00,1.2034
6199.00,1.2054
6198.00,1.2070
6197.00,1.2079
6196.00,1.2084
6195.00,1.2087
6194.00,1.2087
6193.00,1.2082
6192.00,1.2071
6191.00,1.2055
6190.00,1.2036
6189.00,1.2016
6188.00,1.1993
6187.00,1.1966
6186.00,1.1935
6185.00,1.1900
6184.00,1.1861
6183.00,1.1820
6182.00,1.1775
6181.00,1.1728
6180.00,1.1678
6179.00,1.1624
6178.00,1.1565
6177.00,1.1500
6176.00,1.1428
6175.00,1.1353
6174.00,1.1277
6173.00,1.1201
6172.00,1.1123
6171.00,1.1041
6170.00,1.0953
6169.00,1.0861
6168.00,1.0765
6167.00,1.0664
6166.00,1.0560
6165.00,1.0455
6164.00,1.0349
6163.00,1.0241
6162.00,1.0129
6161.00,1.0015
6160.00,0.9898
6159.00,0.9778
6158.00,0.9657
6157.00,0.9535
6156.00,0.9413
6155.00,0.9292
6154.00,0.9170
6153.00,0.9048
6152.00,0.8929
6151.00,0.8811
6150.00,0.8695
6149.00,0.8579
6148.00,0.8463
6147.00,0.8348
6146.00,0.8235
6145.00,0.8124
6144.00,0.8016
6143.00,0.7912
6142.00,0.7813
6141.00,0.7721
6140.00,0.7633
6139.00,0.7549
6138.00,0.7469
6137.00,0.7395
6136.00,0.7325
6135.00,0.7260
6134.00,0.7201
6133.00,0.7149
6132.00,0.7106
6131.00,0.7071
6130.00,0.7043
6129.00,0.7024
6128.00,0.7011
6127.00,0.7005
6126.00,0.7007
6125.00,0.7016
6124.00,0.7033
6123.00,0.7057
6122.00,0.7088
6121.00,0.7126
6120.00,0.7171
6119.00,0.7222
6118.00,0.7280
6117.00,0.7346
6116.00,0.7418
6115.00,0.7496
6114.00,0.7579
6113.00,0.7667
6112.00,0.7759
6111.00,0.7856
6110.00,0.7956
6109.00,0.8061
6108.00,0.8170
6107.00,0.8282
6106.00,0.8397
6105.00,0.8515
6104.00,0.8635
6103.00,0.8756
6102.00,0.8878
6101.00,0.9001
6100.00,0.9122
6099.00,0.9244
6098.00,0.9365
6097.00,0.9485
6096.00,0.9605
6095.00,0.9723
6094.00,0.9840
6093.00,0.9954
6092.00,1.0063
6091.00,1.0168
6090.00,1.0271
6089.00,1.0373
6088.00,1.0474
6087.00,1.0574
6086.00,1.0675
6085.00,1.0774
6084.00,1.0871
6083.00,1.0962
6082.00,1.1046
6081.00,1.1127
6080.00,1.1204
6079.00,1.1280
6078.00,1.1353
6077.00,1.1421
6076.00,1.1484
6075.00,1.1543
6074.00,1.1596
6073.00,1.1644
6072.00,1.1687
6071.00,1.1727
6070.00,1.1764
6069.00,1.1799
6068.00,1.1830
6067.00,1.1859
6066.00,1.1885
6065.00,1.1910
6064.00,1.1930
6063.00,1.1947
6062.00,1.1959
6061.00,1.1965
6060.00,1.1963
6059.00,1.1956
6058.00,1.1946
6057.00,1.1933
6056.00,1.1917
6055.00,1.1901
6054.00,1.1886
6053.00,1.1870
6052.00,1.1849
6051.00,1.1822
6050.00,1.1788
6049.00,1.1748
6048.00,1.1703
6047.00,1.1654
6046.00,1.1604
6045.00,1.1555
6044.00,1.1503
6043.00,1.1449
6042.00,1.1392
6041.00,1.1330
6040.00,1.1263
6039.00,1.1192
6038.00,1.1119
6037.00,1.1043
6036.00,1.0963
6035.00,1.0879
6034.00,1.0791
6033.00,1.0700
6032.00,1.0606
6031.00,1.0509
6030.00,1.0409
6029.00,1.0306
6028.00,1.0201
6027.00,1.0093
6026.00,0.9984
6025.00,0.9872
6024.00,0.9757
6023.00,0.9638
6022.00,0.9519
6021.00,0.9400
6020.00,0.9278
6019.00,0.9156
6018.00,0.9034
6017.00,0.8914
6016.00,0.8794
6015.00,0.8673
6014.00,0.8551
6013.00,0.8432
6012.00,0.8315
6011.00,0.8199
6010.00,0.8086
6009.00,0.7976
6008.00,0.7868
6007.00,0.7764
6006.00,0.7664
6005.00,0.7568
6004.00,0.7478
6003.00,0.7392
6002.00,0.7312
6001.00,0.7239
6000.00,0.7170
5999.00,0.7107
5998.00,0.7050
5997.00,0.7002
5996.00,0.6961
5995.00,0.6926
5994.00,0.6898
5993.00,0.6878
5992.00,0.6865
5991.00,0.6860
5990.00,0.6863
5989.00,0.6874
5988.00,0.6893
5987.00,0.6920
5986.00,0.6953
5985.00,0.6994
5984.00,0.7042
5983.00,0.7097
5982.00,0.7159
5981.00,0.7229
5980.00,0.7305
5979.00,0.7387
5978.00,0.7474
5977.00,0.7567
5976.00,0.7667
5975.00,0.7771
5974.00,0.7881
5973.00,0.7996
5972.00,0.8116
5971.00,0.8236
5970.00,0.8359
5969.00,0.8482
5968.00,0.8608
5967.00,0.8736
5966.00,0.8866
5965.00,0.8998
5964.00,0.9130
5963.00,0.9263
5962.00,0.9395
5961.00,0.9524
5960.00,0.9651
5959.00,0.9775
5958.00,0.9900
5957.00,1.0024
5956.00,1.0146
5955.00,1.0263
5954.00,1.0377
5953.00,1.0487
5952.00,1.0593
5951.00,1.0692
5950.00,1.0787
5949.00,1.0878
5948.00,1.0966
5947.00,1.1050
5946.00,1.1129
5945.00,1.1204
5944.00,1.1276
5943.00,1.1349
5942.00,1.1422
5941.00,1.1494
5940.00,1.1563
5939.00,1.1627
5938.00,1.1686
5937.00,1.1741
5936.00,1.1789
5935.00,1.1830
5934.00,1.1868
5933.00,1.1907
5932.00,1.1944
5931.00,1.1979
5930.00,1.2010
5929.00,1.2041
5928.00,1.2070
5927.00,1.2094
5926.00,1.2108
5925.00,1.2114
5924.00,1.2116
5923.00,1.2117
5922.00,1.2116
5921.00,1.2114
5920.00,1.2108
5919.00,1.2099
5918.00,1.2086
5917.00,1.2068
5916.00,1.2046
5915.00,1.2020
5914.00,1.1990
5913.00,1.1956
5912.00,1.1916
5911.00,1.1870
5910.00,1.1821
5909.00,1.1769
5908.00,1.1714
5907.00,1.1656
5906.00,1.1596
5905.00,1.1534
5904.00,1.1470
5903.00,1.1400
5902.00,1.1323
5901.00,1.1242
5900.00,1.1156
5899.00,1.1065
5898.00,1.0969
5897.00,1.0870
5896.00,1.0771
5895.00,1.0670
5894.00,1.0564
5893.00,1.0454
5892.00,1.0340
5891.00,1.0226
5890.00,1.0110
5889.00,0.9994
5888.00,0.9875
5887.00,0.9754
5886.00,0.9629
5885.00,0.9502
5884.00,0.9370
5883.00,0.9237
5882.00,0.9104
5881.00,0.8975
5880.00,0.8848
5879.00,0.8721
5878.00,0.8594
5877.00,0.8468
5876.00,0.8345
5875.00,0.8223
5874.00,0.8103
5873.00,0.7986
5872.00,0.7873
5871.00,0.7762
5870.00,0.7656
5869.00,0.7554
5868.00,0.7457
5867.00,0.7367
5866.00,0.7283
5865.00,0.7205
5864.00,0.7134
5863.00,0.7068
5862.00,0.7009
5861.00,0.6958
5860.00,0.6913
5859.00,0.6877
5858.00,0.6849
5857.00,0.6831
5856.00,0.6821
5855.00,0.6819
5854.00,0.6826
5853.00,0.6841
5852.00,0.6863
5851.00,0.6892
5850.00,0.6930
5849.00,0.6977
5848.00,0.7033
5847.00,0.7096
5846.00,0.7166
5845.00,0.7242
5844.00,0.7324
5843.00,0.7411
5842.00,0.7503
5841.00,0.7602
5840.00,0.7705
5839.00,0.7814
5838.00,0.7926
5837.00,0.8042
5836.00,0.8161
5835.00,0.8280
5834.00,0.8401
5833.00,0.8525
5832.00,0.8648
5831.00,0.8772
5830.00,0.8897
5829.00,0.9024
5828.00,0.9151
5827.00,0.9277
5826.00,0.9402
5825.00,0.9526
5824.00,0.9649
5823.00,0.9769
5822.00,0.9888
5821.00,1.0005
5820.00,1.0122
5819.00,1.0236
5818.00,1.0348
5817.00,1.0458
5816.00,1.0565
5815.00,1.0668
5814.00,1.0769
5813.00,1.0869
5812.00,1.0968
5811.00,1.1064
5810.00,1.1155
5809.00,1.1243
5808.00,1.1327
5807.00,1.1405
5806.00,1.1478
5805.00,1.1545
5804.00,1.1608
5803.00,1.1669
5802.00,1.1727
5801.00,1.1786
5800.00,1.1844
5799.00,1.1900
5798.00,1.1952
5797.00,1.1999
5796.00,1.2038
5795.00,1.2070
5794.00,1.2097
5793.00,1.2121
5792.00,1.2144
5791.00,1.2164
5790.00,1.2179
5789.00,1.2188
5788.00,1.2190
5787.00,1.2189
5786.00,1.2185
5785.00,1.2178
5784.00,1.2170
5783.00,1.2159
5782.00,1.2145
5781.00,1.2127
5780.00,1.2104
5779.00,1.2077
5778.00,1.2046
5777.00,1.2011
5776.00,1.1971
5775.00,1.1926
5774.00,1.1878
5773.00,1.1827
5772.00,1.1772
5771.00,1.1713
5770.00,1.1650
5769.00,1.1583
5768.00,1.1513
5767.00,1.1439
5766.00,1.1362
5765.00,1.1283
5764.00,1.1200
5763.00,1.1113
5762.00,1.1021
5761.00,1.0925
5760.00,1.0825
5759.00,1.0722
5758.00,1.0615
5757.00,1.0505
5756.00,1.0392
5755.00,1.0278
5754.00,1.0163
5753.00,1.0046
5752.00,0.9926
5751.00,0.9803
5750.00,0.9676
5749.00,0.9548
5748.00,0.9417
5747.00,0.9286
5746.00,0.9153
5745.00,0.9021
5744.00,0.8888
5743.00,0.8755
5742.00,0.8621
5741.00,0.8489
5740.00,0.8358
5739.00,0.8229
5738.00,0.8103
5737.00,0.7981
5736.00,0.7862
5735.00,0.7745
5734.00,0.7631
5733.00,0.7522
5732.00,0.7416
5731.00,0.7316
5730.00,0.7221
5729.00,0.7133
5728.00,0.7052
5727.00,0.6979
5726.00,0.6913
5725.00,0.6853
5724.00,0.6801
5723.00,0.6755
5722.00,0.6718
5721.00,0.6689
5720.00,0.6670
5719.00,0.6659
5718.00,0.6657
5717.00,0.6664
5716.00,0.6680
5715.00,0.6703
5714.00,0.6734
5713.00,0.6774
5712.00,0.6822
5711.00,0.6878
5710.00,0.6942
5709.00,0.7013
5708.00,0.7091
5707.00,0.7174
5706.00,0.7262
5705.00,0.7357
5704.00,0.7458
5703.00,0.7563
5702.00,0.7673
5701.00,0.7788
5700.00,0.7907
5699.00,0.8029
5698.00,0.8155
5697.00,0.8283
5696.00,0.8414
5695.00,0.8545
5694.00,0.8678
5693.00,0.8811
5692.00,0.8945
5691.00,0.9080
5690.00,0.9214
5689.00,0.9348
5688.00,0.9480
5687.00,0.9611
5686.00,0.9741
5685.00,0.9870
5684.00,0.9998
5683.00,1.0125
5682.00,1.0249
5681.00,1.0369
5680.00,1.0485
5679.00,1.0597
5678.00,1.0707
5677.00,1.0814
5676.00,1.0919
5675.00,1.1019
5674.00,1.1115
5673.00,1.1207
5672.00,1.1294
5671.00,1.1377
5670.00,1.1456
5669.00,1.1535
5668.00,1.1611
5667.00,1.1684
5666.00,1.1753
5665.00,1.1819
5664.00,1.1880
5663.00,1.1934
5662.00,1.1983
5661.00,1.2029
5660.00,1.2071
5659.00,1.2109
5658.00,1.2144
5657.00,1.2176
5656.00,1.2205
5655.00,1.2230
5654.00,1.2251
5653.00,1.2267
5652.00,1.2278
5651.00,1.2285
5650.00,1.2286
5649.00,1.2283
5648.00,1.2278
5647.00,1.2273
5646.00,1.2265
5645.00,1.2255
5644.00,1.2239
5643.00,1.2215
5642.00,1.2184
5641.00,1.2148
5640.00,1.2111
5639.00,1.2072
5638.00,1.2030
5637.00,1.1985
5636.00,1.1935
5635.00,1.1879
5634.00,1.1817
5633.00,1.1750
5632.00,1.1680
5631.00,1.1609
5630.00,1.1535
5629.00,1.1457
5628.00,1.1376
5627.00,1.1289
5626.00,1.1197
5625.00,1.1100
5624.00,1.0997
5623.00,1.0890
5622.00,1.0779
5621.00,1.0666
5620.00,1.0552
5619.00,1.0436
5618.00,1.0318
5617.00,1.0196
5616.00,1.0071
5615.00,0.9942
5614.00,0.9810
5613.00,0.9674
5612.00,0.9536
5611.00,0.9396
5610.00,0.9256
5609.00,0.9115
5608.00,0.8973
5607.00,0.8831
5606.00,0.8691
5605.00,0.8553
5604.00,0.8416
5603.00,0.8281
5602.00,0.8148
5601.00,0.8018
5600.00,0.7890
5599.00,0.7765
5598.00,0.7644
5597.00,0.7528
5596.00,0.7417
5595.00,0.7312
5594.00,0.7213
5593.00,0.7121
5592.00,0.7035
5591.00,0.6956
5590.00,0.6885
5589.00,0.6822
5588.00,0.6767
5587.00,0.6720
5586.00,0.6682
5585.00,0.6654
5584.00,0.6635
5583.00,0.6625
5582.00,0.6624
5581.00,0.6633
5580.00,0.6651
5579.00,0.6678
5578.00,0.6715
5577.00,0.6760
5576.00,0.6814
5575.00,0.6877
5574.00,0.6948
5573.00,0.7027
5572.00,0.7113
5571.00,0.7206
5570.00,0.7306
5569.00,0.7412
5568.00,0.7524
5567.00,0.7641
5566.00,0.7762
5565.00,0.7889
5564.00,0.8020
5563.00,0.8154
5562.00,0.8291
5561.00,0.8430
5560.00,0.8570
5559.00,0.8710
5558.00,0.8853
5557.00,0.8997
5556.00,0.9143
5555.00,0.9288
5554.00,0.9432
5553.00,0.9574
5552.00,0.9714
5551.00,0.9853
5550.00,0.9992
5549.00,1.0131
5548.00,1.0267
5547.00,1.0398
5546.00,1.0523
5545.00,1.0642
5544.00,1.0758
5543.00,1.0872
5542.00,1.0986
5541.00,1.1099
5540.00,1.1209
5539.00,1.1312
5538.00,1.1409
5537.00,1.1501
5536.00,1.1589
5535.00,1.1674
5534.00,1.1755
5533.00,1.1834
5532.00,1.1907
5531.00,1.1974
5530.00,1.2036
5529.00,1.2096
5528.00,1.2152
5527.00,1.2206
5526.00,1.2257
5525.00,1.2303
5524.00,1.2346
5523.00,1.2385
5522.00,1.2419
5521.00,1.2446
5520.00,1.2469
5519.00,1.2487
5518.00,1.2503
5517.00,1.2516
5516.00,1.2527
5515.00,1.2533
5514.00,1.2534
5513.00,1.2530
5512.00,1.2521
5511.00,1.2509
5510.00,1.2493
5509.00,1.2473
5508.00,1.2449
5507.00,1.2421
5506.00,1.2387
5505.00,1.2350
5504.00,1.2312
5503.00,1.2272
5502.00,1.2229
5501.00,1.2180
5500.00,1.2123
5499.00,1.2061
5498.00,1.1995
5497.00,1.1924
5496.00,1.1850
5495.00,1.1773
5494.00,1.1691
5493.00,1.1604
5492.00,1.1513
5491.00,1.1420
5490.00,1.1325
5489.00,1.1227
5488.00,1.1125
5487.00,1.1017
5486.00,1.0903
5485.00,1.0784
5484.00,1.0660
5483.00,1.0532
5482.00,1.0402
5481.00,1.0270
5480.00,1.0138
5479.00,1.0006
5478.00,0.9871
5477.00,0.9731
5476.00,0.9586
5475.00,0.9437
5474.00,0.9286
5473.00,0.9136
5472.00,0.8988
5471.00,0.8843
5470.00,0.8698
5469.00,0.8552
5468.00,0.8407
5467.00,0.8263
5466.00,0.8123
5465.00,0.7985
5464.00,0.7849
5463.00,0.7716
5462.00,0.7587
5461.00,0.7463
5460.00,0.7345
5459.00,0.7234
5458.00,0.7130
5457.00,0.7034
5456.00,0.6946
5455.00,0.6865
5454.00,0.6791
5453.00,0.6727
5452.00,0.6670
5451.00,0.6623
5450.00,0.6585
5449.00,0.6556
5448.00,0.6537
5447.00,0.6527
5446.00,0.6528
5445.00,0.6540
5444.00,0.6561
5443.00,0.6592
5442.00,0.6633
5441.00,0.6684
5440.00,0.6745
5439.00,0.6815
5438.00,0.6893
5437.00,0.6979
5436.00,0.7073
5435.00,0.7174
5434.00,0.7282
5433.00,0.7396
5432.00,0.7515
5431.00,0.7638
5430.00,0.7764
5429.00,0.7896
5428.00,0.8034
5427.00,0.8179
5426.00,0.8328
5425.00,0.8478
5424.00,0.8629
5423.00,0.8780
5422.00,0.8931
5421.00,0.9084
5420.00,0.9237
5419.00,0.9387
5418.00,0.9535
5417.00,0.9679
5416.00,0.9820
5415.00,0.9961
5414.00,1.0102
5413.00,1.0243
5412.00,1.0384
5411.00,1.0523
5410.00,1.0659
5409.00,1.0792
5408.00,1.0921
5407.00,1.1046
5406.00,1.1165
5405.00,1.1279
5404.00,1.1388
5403.00,1.1494
5402.00,1.1597
5401.00,1.1697
5400.00,1.1793
5399.00,1.1885
5398.00,1.1971
5397.00,1.2049
5396.00,1.2121
5395.00,1.2190
5394.00,1.2256
5393.00,1.2320
5392.00,1.2382
5391.00,1.2442
5390.00,1.2498
5389.00,1.2546
5388.00,1.2588
5387.00,1.2626
5386.00,1.2661
5385.00,1.2693
5384.00,1.2723
5383.00,1.2750
5382.00,1.2771
5381.00,1.2784
5380.00,1.2791
5379.00,1.2797
5378.00,1.2801
5377.00,1.2802
5376.00,1.2797
5375.00,1.2787
5374.00,1.2773
5373.00,1.2755
5372.00,1.2734
5371.00,1.2710
5370.00,1.2683
5369.00,1.2651
5368.00,1.2614
5367.00,1.2573
5366.00,1.2527
5365.00,1.2478
5364.00,1.2425
5363.00,1.2366
5362.00,1.2301
5361.00,1.2230
5360.00,1.2156
5359.00,1.2080
5358.00,1.2001
5357.00,1.1919
5356.00,1.1833
5355.00,1.1741
5354.00,1.1644
5353.00,1.1541
5352.00,1.1433
5351.00,1.1322
5350.00,1.1209
5349.00,1.1093
5348.00,1.0973
5347.00,1.0850
5346.00,1.0721
5345.00,1.0586
5344.00,1.0447
5343.00,1.0306
5342.00,1.0164
5341.00,1.0021
5340.00,0.9875
5339.00,0.9725
5338.00,0.9571
5337.00,0.9417
5336.00,0.9264
5335.00,0.9113
5334.00,0.8962
5333.00,0.8811
5332.00,0.8660
5331.00,0.8512
5330.00,0.8369
5329.00,0.8228
5328.00,0.8088
5327.00,0.7951
5326.00,0.7817
5325.00,0.7689
5324.00,0.7568
5323.00,0.7452
5322.00,0.7343
5321.00,0.7240
5320.00,0.7144
5319.00,0.7057
5318.00,0.6979
5317.00,0.6910
5316.00,0.6851
5315.00,0.6801
5314.00,0.6761
5313.00,0.6732
5312.00,0.6713
5311.00,0.6703
5310.00,0.6704
5309.00,0.6716
5308.00,0.6739
5307.00,0.6772
5306.00,0.6817
5305.00,0.6873
5304.00,0.6937
5303.00,0.7010
5302.00,0.7092
5301.00,0.7182
5300.00,0.7281
5299.00,0.7389
5298.00,0.7504
5297.00,0.7626
5296.00,0.7754
5295.00,0.7887
5294.00,0.8024
5293.00,0.8165
5292.00,0.8310
5291.00,0.8460
5290.00,0.8614
5289.00,0.8770
5288.00,0.8928
5287.00,0.9084
5286.00,0.9240
5285.00,0.9397
5284.00,0.9553
5283.00,0.9710
5282.00,0.9867
5281.00,1.0022
5280.00,1.0174
5279.00,1.0323
5278.00,1.0470
5277.00,1.0615
5276.00,1.0759
5275.00,1.0900
5274.00,1.1035
5273.00,1.1164
5272.00,1.1287
5271.00,1.1404
5270.00,1.1518
5269.00,1.1630
5268.00,1.1738
5267.00,1.1843
5266.00,1.1943
5265.00,1.2040
5264.00,1.2133
5263.00,1.2223
5262.00,1.2309
5261.00,1.2390
5260.00,1.2467
5259.00,1.2540
5258.00,1.2607
5257.00,1.2671
5256.00,1.2730
5255.00,1.2785
5254.00,1.2835
5253.00,1.2881
5252.00,1.2921
5251.00,1.2957
5250.00,1.2988
5249.00,1.3017
5248.00,1.3041
5247.00,1.3061
5246.00,1.3078
5245.00,1.3090
5244.00,1.3098
5243.00,1.3102
5242.00,1.3103
5241.00,1.3103
5240.00,1.3102
5239.00,1.3097
5238.00,1.3085
5237.00,1.3068
5236.00,1.3044
5235.00,1.3014
5234.00,1.2978
5233.00,1.2935
5232.00,1.2890
5231.00,1.2841
5230.00,1.2791
5229.00,1.2740
5228.00,1.2686
5227.00,1.2628
5226.00,1.2564
5225.00,1.2494
5224.00,1.2417
5223.00,1.2335
5222.00,1.2248
5221.00,1.2158
5220.00,1.2065
5219.00,1.1971
5218.00,1.1874
5217.00,1.1773
5216.00,1.1667
5215.00,1.1553
5214.00,1.1432
5213.00,1.1307
5212.00,1.1178
5211.00,1.1047
5210.00,1.0912
5209.00,1.0773
5208.00,1.0629
5207.00,1.0483
5206.00,1.0334
5205.00,1.0183
5204.00,1.0030
5203.00,0.9876
5202.00,0.9721
5201.00,0.9566
5200.00,0.9412
5199.00,0.9259
5198.00,0.9107
5197.00,0.8956
5196.00,0.8806
5195.00,0.8658
5194.00,0.8511
5193.00,0.8364
5192.00,0.8216
5191.00,0.8069
5190.00,0.7924
5189.00,0.7783
5188.00,0.7648
5187.00,0.7520
5186.00,0.7399
5185.00,0.7284
5184.00,0.7177
5183.00,0.7079
5182.00,0.6991
5181.00,0.6915
5180.00,0.6848
5179.00,0.6791
5178.00,0.6745
5177.00,0.6711
5176.00,0.6687
5175.00,0.6675
5174.00,0.6674
5173.00,0.6685
5172.00,0.6707
5171.00,0.6740
5170.00,0.6783
5169.00,0.6838
5168.00,0.6902
5167.00,0.6977
5166.00,0.7062
5165.00,0.7157
5164.00,0.7261
5163.00,0.7373
5162.00,0.7493
5161.00,0.7619
5160.00,0.7751
5159.00,0.7888
5158.00,0.8032
5157.00,0.8182
5156.00,0.8337
5155.00,0.8496
5154.00,0.8658
5153.00,0.8821
5152.00,0.8986
5151.00,0.9152
5150.00,0.9318
5149.00,0.9484
5148.00,0.9649
5147.00,0.9811
5146.00,0.9971
5145.00,1.0132
5144.00,1.0291
5143.00,1.0448
5142.00,1.0603
5141.00,1.0754
5140.00,1.0902
5139.00,1.1047
5138.00,1.1188
5137.00,1.1326
5136.00,1.1458
5135.00,1.1585
5134.00,1.1707
5133.00,1.1825
5132.00,1.1940
5131.00,1.2054
5130.00,1.2166
5129.00,1.2273
5128.00,1.2373
5127.00,1.2466
5126.00,1.2553
5125.00,1.2635
5124.00,1.2713
5123.00,1.2787
5122.00,1.2859
5121.00,1.2926
5120.00,1.2988
5119.00,1.3046
5118.00,1.3099
5117.00,1.3147
5116.00,1.3192
5115.00,1.3231
5114.00,1.3265
5113.00,1.3295
5112.00,1.3321
5111.00,1.3344
5110.00,1.3365
5109.00,1.3385
5108.00,1.3403
5107.00,1.3416
5106.00,1.3424
5105.00,1.3425
5104.00,1.3418
5103.00,1.3405
5102.00,1.3387
5101.00,1.3363
5100.00,1.3337
5099.00,1.3308
5098.00,1.3279
5097.00,1.3248
5096.00,1.3212
5095.00,1.3170
5094.00,1.3122
5093.00,1.3070
5092.00,1.3014
5091.00,1.2955
5090.00,1.2894
5089.00,1.2830
5088.00,1.2759
5087.00,1.2682
5086.00,1.2599
5085.00,1.2510
5084.00,1.2416
5083.00,1.2318
5082.00,1.2216
5081.00,1.2111
5080.00,1.2002
5079.00,1.1889
5078.00,1.1771
5077.00,1.1648
5076.00,1.1521
5075.00,1.1388
5074.00,1.1251
5073.00,1.1110
5072.00,1.0964
5071.00,1.0814
5070.00,1.0660
5069.00,1.0503
5068.00,1.0344
5067.00,1.0182
5066.00,1.0019
5065.00,0.9856
5064.00,0.9692
5063.00,0.9526
5062.00,0.9360
5061.00,0.9192
5060.00,0.9026
5059.00,0.8860
5058.00,0.8696
5057.00,0.8534
5056.00,0.8376
5055.00,0.8221
5054.00,0.8071
5053.00,0.7926
5052.00,0.7788
5051.00,0.7656
5050.00,0.7530
5049.00,0.7412
5048.00,0.7303
5047.00,0.7203
5046.00,0.7112
5045.00,0.7031
5044.00,0.6960
5043.00,0.6900
5042.00,0.6852
5041.00,0.6816
5040.00,0.6790
5039.00,0.6777
5038.00,0.6777
5037.00,0.6789
5036.00,0.6814
5035.00,0.6851
5034.00,0.6900
5033.00,0.6961
5032.00,0.7032
5031.00,0.7114
5030.00,0.7206
5029.00,0.7308
5028.00,0.7420
5027.00,0.7540
5026.00,0.7669
5025.00,0.7805
5024.00,0.7947
5023.00,0.8096
5022.00,0.8250
5021.00,0.8409
5020.00,0.8572
5019.00,0.8738
5018.00,0.8908
5017.00,0.9080
5016.00,0.9253
5015.00,0.9427
5014.00,0.9602
5013.00,0.9776
5012.00,0.9949
5011.00,1.0120
5010.00,1.0288
5009.00,1.0453
5008.00,1.0615
5007.00,1.0775
5006.00,1.0931
5005.00,1.1084
5004.00,1.1233
5003.00,1.1380
5002.00,1.1524
5001.00,1.1665
5000.00,1.1801
4999.00,1.1932
4998.00,1.2057
4997.00,1.2176
4996.00,1.2290
4995.00,1.2401
4994.00,1.2508
4993.00,1.2609
4992.00,1.2707
4991.00,1.2802
4990.00,1.2895
4989.00,1.2984
4988.00,1.3069
4987.00,1.3147
4986.00,1.3217
4985.00,1.3278
4984.00,1.3332
4983.00,1.3382
4982.00,1.3431
4981.00,1.3478
4980.00,1.3523
4979.00,1.3563
4978.00,1.3599
4977.00,1.3629
4976.00,1.3655
4975.00,1.3676
4974.00,1.3694
4973.00,1.3709
4972.00,1.3719
4971.00,1.3724
4970.00,1.3723
4969.00,1.3718
4968.00,1.3710
4967.00,1.3699
4966.00,1.3685
4965.00,1.3666
4964.00,1.3643
4963.00,1.3616
4962.00,1.3585
4961.00,1.3549
4960.00,1.3508
4959.00,1.3462
4958.00,1.3412
4957.00,1.3357
4956.00,1.3296
4955.00,1.3231
4954.00,1.3161
4953.00,1.3089
4952.00,1.3012
4951.00,1.2931
4950.00,1.2844
4949.00,1.2751
4948.00,1.2650
4947.00,1.2544
4946.00,1.2435
4945.00,1.2322
4944.00,1.2207
4943.00,1.2088
4942.00,1.1964
4941.00,1.1836
4940.00,1.1703
4939.00,1.1565
4938.00,1.1423
4937.00,1.1275
4936.00,1.1121
4935.00,1.0961
4934.00,1.0797
4933.00,1.0631
4932.00,1.0462
4931.00,1.0292
4930.00,1.0119
4929.00,0.9944
4928.00,0.9767
4927.00,0.9590
4926.00,0.9413
4925.00,0.9237
4924.00,0.9062
4923.00,0.8888
4922.00,0.8716
4921.00,0.8548
4920.00,0.8383
4919.00,0.8223
4918.00,0.8067
4917.00,0.7917
4916.00,0.7773
4915.00,0.7637
4914.00,0.7508
4913.00,0.7387
4912.00,0.7275
4911.00,0.7173
4910.00,0.7080
4909.00,0.6998
4908.00,0.6927
4907.00,0.6868
4906.00,0.6821
4905.00,0.6787
4904.00,0.6766
4903.00,0.6757
4902.00,0.6762
4901.00,0.6779
4900.00,0.6809
4899.00,0.6852
4898.00,0.6907
4897.00,0.6974
4896.00,0.7054
4895.00,0.7145
4894.00,0.7247
4893.00,0.7359
4892.00,0.7482
4891.00,0.7613
4890.00,0.7753
4889.00,0.7902
4888.00,0.8057
4887.00,0.8217
4886.00,0.8384
4885.00,0.8555
4884.00,0.8730
4883.00,0.8907
4882.00,0.9087
4881.00,0.9269
4880.00,0.9453
4879.00,0.9637
4878.00,0.9821
4877.00,1.0004
4876.00,1.0185
4875.00,1.0364
4874.00,1.0542
4873.00,1.0717
4872.00,1.0890
4871.00,1.1059
4870.00,1.1225
4869.00,1.1387
4868.00,1.1543
4867.00,1.1695
4866.00,1.1843
4865.00,1.1987
4864.00,1.2126
4863.00,1.2260
4862.00,1.2389
4861.00,1.2511
4860.00,1.2627
4859.00,1.2738
4858.00,1.2846
4857.00,1.2952
4856.00,1.3054
4855.00,1.3152
4854.00,1.3244
4853.00,1.3329
4852.00,1.3407
4851.00,1.3481
4850.00,1.3551
4849.00,1.3618
4848.00,1.3682
4847.00,1.3742
4846.00,1.3798
4845.00,1.3849
4844.00,1.3894
4843.00,1.3933
4842.00,1.3967
4841.00,1.3997
4840.00,1.4024
4839.00,1.4049
4838.00,1.4072
4837.00,1.4090
4836.00,1.4102
4835.00,1.4107
4834.00,1.4108
4833.00,1.4105
4832.00,1.4099
4831.00,1.4088
4830.00,1.4073
4829.00,1.4053
4828.00,1.4029
4827.00,1.4002
4826.00,1.3971
4825.00,1.3936
4824.00,1.3895
4823.00,1.3848
4822.00,1.3798
4821.00,1.3746
4820.00,1.3690
4819.00,1.3630
4818.00,1.3562
4817.00,1.3488
4816.00,1.3408
4815.00,1.3325
4814.00,1.3239
4813.00,1.3150
4812.00,1.3056
4811.00,1.2955
4810.00,1.2846
4809.00,1.2731
4808.00,1.2609
4807.00,1.2483
4806.00,1.2354
4805.00,1.2221
4804.00,1.2085
4803.00,1.1945
4802.00,1.1799
4801.00,1.1648
4800.00,1.1490
4799.00,1.1327
4798.00,1.1160
4797.00,1.0989
4796.00,1.0815
4795.00,1.0638
4794.00,1.0458
4793.00,1.0276
4792.00,1.0093
4791.00,0.9908
4790.00,0.9721
4789.00,0.9535
4788.00,0.9348
4787.00,0.9164
4786.00,0.8981
4785.00,0.8801
4784.00,0.8624
4783.00,0.8450
4782.00,0.8282
4781.00,0.8120
4780.00,0.7964
4779.00,0.7816
4778.00,0.7677
4777.00,0.7546
4776.00,0.7424
4775.00,0.7313
4774.00,0.7213
4773.00,0.7125
4772.00,0.7050
4771.00,0.6987
4770.00,0.6937
4769.00,0.6901
4768.00,0.6878
4767.00,0.6869
4766.00,0.6875
4765.00,0.6895
4764.00,0.6929
4763.00,0.6977
4762.00,0.7039
4761.00,0.7114
4760.00,0.7202
4759.00,0.7302
4758.00,0.7414
4757.00,0.7538
4756.00,0.7671
4755.00,0.7813
4754.00,0.7964
4753.00,0.8123
4752.00,0.8288
4751.00,0.8460
4750.00,0.8637
4749.00,0.8819
4748.00,0.9005
4747.00,0.9194
4746.00,0.9386
4745.00,0.9578
4744.00,0.9770
4743.00,0.9963
4742.00,1.0156
4741.00,1.0348
4740.00,1.0539
4739.00,1.0726
4738.00,1.0909
4737.00,1.1088
4736.00,1.1264
4735.00,1.1436
4734.00,1.1605
4733.00,1.1770
4732.00,1.1932
4731.00,1.2088
4730.00,1.2238
4729.00,1.2385
4728.00,1.2526
4727.00,1.2663
4726.00,1.2794
4725.00,1.2920
4724.00,1.3038
4723.00,1.3151
4722.00,1.3258
4721.00,1.3361
4720.00,1.3460
4719.00,1.3555
4718.00,1.3647
4717.00,1.3735
4716.00,1.3818
4715.00,1.3895
4714.00,1.3967
4713.00,1.4034
4712.00,1.4095
4711.00,1.4151
4710.00,1.4201
4709.00,1.4245
4708.00,1.4285
4707.00,1.4321
4706.00,1.4354
4705.00,1.4384
4704.00,1.4412
4703.00,1.4434
4702.00,1.4453
4701.00,1.4466
4700.00,1.4473
4699.00,1.4475
4698.00,1.4473
4697.00,1.4467
4696.00,1.4458
4695.00,1.4445
4694.00,1.4430
4693.00,1.4410
4692.00,1.4387
4691.00,1.4358
4690.00,1.4323
4689.00,1.4282
4688.00,1.4235
4687.00,1.4183
4686.00,1.4126
4685.00,1.4065
4684.00,1.4003
4683.00,1.3939
4682.00,1.3871
4681.00,1.3796
4680.00,1.3713
4679.00,1.3623
4678.00,1.3527
4677.00,1.3429
4676.00,1.3328
4675.00,1.3223
4674.00,1.3113
4673.00,1.2996
4672.00,1.2871
4671.00,1.2741
4670.00,1.2605
4669.00,1.2464
4668.00,1.2318
4667.00,1.2168
4666.00,1.2012
4665.00,1.1850
4664.00,1.1684
4663.00,1.1514
4662.00,1.1341
4661.00,1.1166
4660.00,1.0988
4659.00,1.0807
4658.00,1.0622
4657.00,1.0433
4656.00,1.0241
4655.00,1.0047
4654.00,0.9852
4653.00,0.9658
4652.00,0.9464
4651.00,0.9272
4650.00,0.9082
4649.00,0.8896
4648.00,0.8713
4647.00,0.8534
4646.00,0.8360
4645.00,0.8191
4644.00,0.8029
4643.00,0.7874
4642.00,0.7729
4641.00,0.7594
4640.00,0.7470
4639.00,0.7356
4638.00,0.7255
4637.00,0.7166
4636.00,0.7091
4635.00,0.7029
4634.00,0.6982
4633.00,0.6950
4632.00,0.6933
4631.00,0.6931
4630.00,0.6945
4629.00,0.6974
4628.00,0.7018
4627.00,0.7078
4626.00,0.7151
4625.00,0.7239
4624.00,0.7340
4623.00,0.7455
4622.00,0.7581
4621.00,0.7719
4620.00,0.7867
4619.00,0.8025
4618.00,0.8191
4617.00,0.8366
4616.00,0.8547
4615.00,0.8735
4614.00,0.8928
4613.00,0.9125
4612.00,0.9325
4611.00,0.9527
4610.00,0.9731
4609.00,0.9935
4608.00,1.0139
4607.00,1.0342
4606.00,1.0544
4605.00,1.0744
4604.00,1.0942
4603.00,1.1136
4602.00,1.1328
4601.00,1.1515
4600.00,1.1698
4599.00,1.1877
4598.00,1.2052
4597.00,1.2221
4596.00,1.2383
4595.00,1.2540
4594.00,1.2693
4593.00,1.2841
4592.00,1.2985
4591.00,1.3123
4590.00,1.3255
4589.00,1.3380
4588.00,1.3499
4587.00,1.3613
4586.00,1.3723
4585.00,1.3828
4584.00,1.3928
4583.00,1.4023
4582.00,1.4113
4581.00,1.4197
4580.00,1.4274
4579.00,1.4344
4578.00,1.4408
4577.00,1.4469
4576.00,1.4529
4575.00,1.4587
4574.00,1.4641
4573.00,1.4689
4572.00,1.4732
4571.00,1.4771
4570.00,1.4808
4569.00,1.4841
4568.00,1.4868
4567.00,1.4888
4566.00,1.4902
4565.00,1.4912
4564.00,1.4918
4563.00,1.4920
4562.00,1.4918
4561.00,1.4911
4560.00,1.4900
4559.00,1.4885
4558.00,1.4868
4557.00,1.4847
4556.00,1.4821
4555.00,1.4790
4554.00,1.4753
4553.00,1.4711
4552.00,1.4667
4551.00,1.4619
4550.00,1.4566
4549.00,1.4507
4548.00,1.4442
4547.00,1.4373
4546.00,1.4300
4545.00,1.4222
4544.00,1.4136
4543.00,1.4044
4542.00,1.3944
4541.00,1.3840
4540.00,1.3732
4539.00,1.3621
4538.00,1.3504
4537.00,1.3382
4536.00,1.3255
4535.00,1.3122
4534.00,1.2985
4533.00,1.2842
4532.00,1.2694
4531.00,1.2539
4530.00,1.2379
4529.00,1.2213
4528.00,1.2042
4527.00,1.1864
4526.00,1.1682
4525.00,1.1494
4524.00,1.1303
4523.00,1.1108
4522.00,1.0911
4521.00,1.0710
4520.00,1.0506
4519.00,1.0300
4518.00,1.0095
4517.00,0.9890
4516.00,0.9686
4515.00,0.9484
4514.00,0.9285
4513.00,0.9089
4512.00,0.8897
4511.00,0.8710
4510.00,0.8531
4509.00,0.8359
4508.00,0.8195
4507.00,0.8040
4506.00,0.7895
4505.00,0.7762
4504.00,0.7642
4503.00,0.7535
4502.00,0.7442
4501.00,0.7364
4500.00,0.7301
4499.00,0.7253
4498.00,0.7222
4497.00,0.7208
4496.00,0.7210
4495.00,0.7230
4494.00,0.7267
4493.00,0.7319
4492.00,0.7388
4491.00,0.7473
4490.00,0.7573
4489.00,0.7687
4488.00,0.7814
4487.00,0.7954
4486.00,0.8105
4485.00,0.8267
4484.00,0.8438
4483.00,0.8617
4482.00,0.8805
4481.00,0.8999
4480.00,0.9199
4479.00,0.9404
4478.00,0.9612
4477.00,0.9823
4476.00,1.0035
4475.00,1.0248
4474.00,1.0461
4473.00,1.0674
4472.00,1.0886
4471.00,1.1097
4470.00,1.1306
4469.00,1.1511
4468.00,1.1711
4467.00,1.1907
4466.00,1.2098
4465.00,1.2286
4464.00,1.2470
4463.00,1.2649
4462.00,1.2823
4461.00,1.2990
4460.00,1.3153
4459.00,1.3310
4458.00,1.3462
4457.00,1.3609
4456.00,1.3749
4455.00,1.3884
4454.00,1.4012
4453.00,1.4135
4452.00,1.4251
4451.00,1.4363
4450.00,1.4469
4449.00,1.4572
4448.00,1.4669
4447.00,1.4760
4446.00,1.4845
4445.00,1.4925
4444.00,1.5000
4443.00,1.5070
4442.00,1.5135
4441.00,1.5194
4440.00,1.5249
4439.00,1.5300
4438.00,1.5345
4437.00,1.5385
4436.00,1.5419
4435.00,1.5450
4434.00,1.5476
4433.00,1.5497
4432.00,1.5512
4431.00,1.5522
4430.00,1.5528
4429.00,1.5531
4428.00,1.5532
4427.00,1.5530
4426.00,1.5523
4425.00,1.5511
4424.00,1.5494
4423.00,1.5472
4422.00,1.5447
4421.00,1.5420
4420.00,1.5389
4419.00,1.5354
4418.00,1.5315
4417.00,1.5271
4416.00,1.5223
4415.00,1.5169
4414.00,1.5110
4413.00,1.5047
4412.00,1.4981
4411.00,1.4912
4410.00,1.4841
4409.00,1.4767
4408.00,1.4689
4407.00,1.4605
4406.00,1.4516
4405.00,1.4421
4404.00,1.4323
4403.00,1.4221
4402.00,1.4118
4401.00,1.4013
4400.00,1.3905
4399.00,1.3793
4398.00,1.3676
4397.00,1.3554
4396.00,1.3425
4395.00,1.3289
4394.00,1.3145
4393.00,1.2995
4392.00,1.2839
4391.00,1.2678
4390.00,1.2512
4389.00,1.2342
4388.00,1.2166
4387.00,1.1987
4386.00,1.1804
4385.00,1.1620
4384.00,1.1434
4383.00,1.1248
4382.00,1.1062
4381.00,1.0877
4380.00,1.0696
4379.00,1.0519
4378.00,1.0347
4377.00,1.0182
4376.00,1.0024
4375.00,0.9873
4374.00,0.9730
4373.00,0.9596
4372.00,0.9470
4371.00,0.9352
4370.00,0.9242
4369.00,0.9139
4368.00,0.9041
4367.00,0.8950
4366.00,0.8864
4365.00,0.8783
4364.00,0.8705
4363.00,0.8630
4362.00,0.8559
4361.00,0.8491
4360.00,0.8428
4359.00,0.8373
4358.00,0.8326
4357.00,0.8289
4356.00,0.8265
4355.00,0.8255
4354.00,0.8259
4353.00,0.8280
4352.00,0.8316
4351.00,0.8369
4350.00,0.8439
4349.00,0.8525
4348.00,0.8627
4347.00,0.8743
4346.00,0.8873
4345.00,0.9017
4344.00,0.9173
4343.00,0.9340
4342.00,0.9518
4341.00,0.9704
4340.00,0.9897
4339.00,1.0096
4338.00,1.0299
4337.00,1.0506
4336.00,1.0716
4335.00,1.0928
4334.00,1.1141
4333.00,1.1352
4332.00,1.1562
4331.00,1.1771
4330.00,1.1976
4329.00,1.2178
4328.00,1.2377
4327.00,1.2571
4326.00,1.2759
4325.00,1.2942
4324.00,1.3120
4323.00,1.3292
4322.00,1.3456
4321.00,1.3613
4320.00,1.3763
4319.00,1.3905
4318.00,1.4042
4317.00,1.4172
4316.00,1.4294
4315.00,1.4411
4314.00,1.4524
4313.00,1.4633
4312.00,1.4740
4311.00,1.4843
4310.00,1.4941
4309.00,1.5035
4308.00,1.5125
4307.00,1.5210
4306.00,1.5290
4305.00,1.5363
4304.00,1.5429
4303.00,1.5490
4302.00,1.5547
4301.00,1.5600
4300.00,1.5648
4299.00,1.5692
4298.00,1.5731
4297.00,1.5765
4296.00,1.5793
4295.00,1.5818
4294.00,1.5839
4293.00,1.5858
4292.00,1.5874
4291.00,1.5886
4290.00,1.5892
4289.00,1.5893
4288.00,1.5887
4287.00,1.5875
4286.00,1.5858
4285.00,1.5838
4284.00,1.5817
4283.00,1.5792
4282.00,1.5763
4281.00,1.5728
4280.00,1.5686
4279.00,1.5639
4278.00,1.5588
4277.00,1.5534
4276.00,1.5475
4275.00,1.5410
4274.00,1.5339
4273.00,1.5261
4272.00,1.5178
4271.00,1.5093
4270.00,1.5005
4269.00,1.4913
4268.00,1.4815
4267.00,1.4710
4266.00,1.4597
4265.00,1.4477
4264.00,1.4351
4263.00,1.4219
4262.00,1.4081
4261.00,1.3936
4260.00,1.3787
4259.00,1.3631
4258.00,1.3469
4257.00,1.3301
4256.00,1.3125
4255.00,1.2943
4254.00,1.2754
4253.00,1.2560
4252.00,1.2359
4251.00,1.2154
4250.00,1.1943
4249.00,1.1728
4248.00,1.1506
4247.00,1.1280
4246.00,1.1050
4245.00,1.0819
4244.00,1.0588
4243.00,1.0356
4242.00,1.0125
4241.00,0.9894
4240.00,0.9666
4239.00,0.9442
4238.00,0.9223
4237.00,0.9011
4236.00,0.8805
4235.00,0.8608
4234.00,0.8421
4233.00,0.8245
4232.00,0.8082
4231.00,0.7931
4230.00,0.7796
4229.00,0.7677
4228.00,0.7574
4227.00,0.7489
4226.00,0.7422
4225.00,0.7374
4224.00,0.7345
4223.00,0.7337
4222.00,0.7348
4221.00,0.7380
4220.00,0.7431
4219.00,0.7501
4218.00,0.7590
4217.00,0.7698
4216.00,0.7822
4215.00,0.7963
4214.00,0.8119
4213.00,0.8289
4212.00,0.8472
4211.00,0.8666
4210.00,0.8871
4209.00,0.9085
4208.00,0.9306
4207.00,0.9533
4206.00,0.9766
4205.00,1.0003
4204.00,1.0242
4203.00,1.0482
4202.00,1.0722
4201.00,1.0962
4200.00,1.1201
4199.00,1.1437
4198.00,1.1670
4197.00,1.1898
4196.00,1.2121
4195.00,1.2339
4194.00,1.2552
4193.00,1.2761
4192.00,1.2965
4191.00,1.3164
4190.00,1.3356
4189.00,1.3541
4188.00,1.3718
4187.00,1.3888
4186.00,1.4051
4185.00,1.4208
4184.00,1.4358
4183.00,1.4502
4182.00,1.4642
4181.00,1.4775
4180.00,1.4903
4179.00,1.5024
4178.00,1.5139
4177.00,1.5248
4176.00,1.5352
4175.00,1.5452
4174.00,1.5546
4173.00,1.5636
4172.00,1.5721
4171.00,1.5801
4170.00,1.5875
4169.00,1.5943
4168.00,1.6004
4167.00,1.6059
4166.00,1.6110
4165.00,1.6157
4164.00,1.6201
4163.00,1.6243
4162.00,1.6281
4161.00,1.6314
4160.00,1.6342
4159.00,1.6363
4158.00,1.6379
4157.00,1.6391
4156.00,1.6398
4155.00,1.6401
4154.00,1.6401
4153.00,1.6396
4152.00,1.6387
4151.00,1.6374
4150.00,1.6356
4149.00,1.6333
4148.00,1.6304
4147.00,1.6269
4146.00,1.6228
4145.00,1.6184
4144.00,1.6138
4143.00,1.6090
4142.00,1.6039
4141.00,1.5981
4140.00,1.5915
4139.00,1.5841
4138.00,1.5760
4137.00,1.5676
4136.00,1.5588
4135.00,1.5496
4134.00,1.5400
4133.00,1.5298
4132.00,1.5191
4131.00,1.5077
4130.00,1.4957
4129.00,1.4830
4128.00,1.4696
4127.00,1.4555
4126.00,1.4407
4125.00,1.4253
4124.00,1.4094
4123.00,1.3928
4122.00,1.3756
4121.00,1.3577
4120.00,1.3391
4119.00,1.3198
4118.00,1.2998
4117.00,1.2791
4116.00,1.2577
4115.00,1.2357
4114.00,1.2132
4113.00,1.1902
4112.00,1.1668
4111.00,1.1431
4110.00,1.1191
4109.00,1.0950
4108.00,1.0709
4107.00,1.0468
4106.00,1.0227
4105.00,0.9989
4104.00,0.9755
4103.00,0.9525
4102.00,0.9301
4101.00,0.9083
4100.00,0.8875
4099.00,0.8676
4098.00,0.8490
4097.00,0.8316
4096.00,0.8157
4095.00,0.8013
4094.00,0.7886
4093.00,0.7777
4092.00,0.7688
4091.00,0.7618
4090.00,0.7570
4089.00,0.7543
4088.00,0.7538
4087.00,0.7554
4086.00,0.7593
4085.00,0.7654
4084.00,0.7736
4083.00,0.7838
4082.00,0.7958
4081.00,0.8097
4080.00,0.8252
4079.00,0.8422
4078.00,0.8608
4077.00,0.8807
4076.00,0.9018
4075.00,0.9239
4074.00,0.9468
4073.00,0.9703
4072.00,0.9943
4071.00,1.0187
4070.00,1.0434
4069.00,1.0684
4068.00,1.0936
4067.00,1.1187
4066.00,1.1436
4065.00,1.1682
4064.00,1.1926
4063.00,1.2165
4062.00,1.2400
4061.00,1.2631
4060.00,1.2855
4059.00,1.3074
4058.00,1.3288
4057.00,1.3496
4056.00,1.3699
4055.00,1.3894
4054.00,1.4081
4053.00,1.4262
4052.00,1.4435
4051.00,1.4602
4050.00,1.4764
4049.00,1.4920
4048.00,1.5070
4047.00,1.5215
4046.00,1.5355
4045.00,1.5487
4044.00,1.5614
4043.00,1.5735
4042.00,1.5850
4041.00,1.5959
4040.00,1.6063
4039.00,1.6161
4038.00,1.6255
4037.00,1.6342
4036.00,1.6421
4035.00,1.6492
4034.00,1.6556
4033.00,1.6618
4032.00,1.6680
4031.00,1.6740
4030.00,1.6795
4029.00,1.6842
4028.00,1.6881
4027.00,1.6912
4026.00,1.6939
4025.00,1.6963
4024.00,1.6986
4023.00,1.7009
4022.00,1.7029
4021.00,1.7042
4020.00,1.7046
4019.00,1.7042
4018.00,1.7034
4017.00,1.7027
4016.00,1.7018
4015.00,1.7007
4014.00,1.6989
4013.00,1.6964
4012.00,1.6933
4011.00,1.6896
4010.00,1.6854
4009.00,1.6807
4008.00,1.6757
4007.00,1.6705
4006.00,1.6651
4005.00,1.6593
4004.00,1.6529
4003.00,1.6457
4002.00,1.6377
4001.00,1.6290
4000.00,1.6199
3999.00,1.6102
3998.00,1.6001
3997.00,1.5893
3996.00,1.5780
3995.00,1.5661
3994.00,1.5537
3993.00,1.5407
3992.00,1.5271
3991.00,1.5131
3990.00,1.4985
3989.00,1.4834
3988.00,1.4674
3987.00,1.4505
3986.00,1.4328
3985.00,1.4145
3984.00,1.3959
3983.00,1.3772
3982.00,1.3580
3981.00,1.3384
3980.00,1.3182
3979.00,1.2976
3978.00,1.2766
3977.00,1.2552
3976.00,1.2332
3975.00,1.2108
3974.00,1.1879
3973.00,1.1646
3972.00,1.1410
3971.00,1.1170
3970.00,1.0926
3969.00,1.0678
3968.00,1.0429
3967.00,1.0181
3966.00,0.9936
3965.00,0.9697
3964.00,0.9465
3963.00,0.9240
3962.00,0.9024
3961.00,0.8820
3960.00,0.8631
3959.00,0.8457
3958.00,0.8303
3957.00,0.8167
3956.00,0.8051
3955.00,0.7956
3954.00,0.7884
3953.00,0.7836
3952.00,0.7811
3951.00,0.7810
3950.00,0.7833
3949.00,0.7879
3948.00,0.7950
3947.00,0.8043
3946.00,0.8158
3945.00,0.8294
3944.00,0.8451
3943.00,0.8629
3942.00,0.8824
3941.00,0.9034
3940.00,0.9257
3939.00,0.9491
3938.00,0.9735
3937.00,0.9985
3936.00,1.0239
3935.00,1.0496
3934.00,1.0758
3933.00,1.1026
3932.00,1.1298
3931.00,1.1571
3930.00,1.1843
3929.00,1.2111
3928.00,1.2373
3927.00,1.2626
3926.00,1.2873
3925.00,1.3114
3924.00,1.3350
3923.00,1.3579
3922.00,1.3802
3921.00,1.4018
3920.00,1.4227
3919.00,1.4430
3918.00,1.4625
3917.00,1.4815
3916.00,1.4999
3915.00,1.5175
3914.00,1.5341
3913.00,1.5496
3912.00,1.5640
3911.00,1.5778
3910.00,1.5910
3909.00,1.6040
3908.00,1.6166
3907.00,1.6287
3906.00,1.6400
3905.00,1.6507
3904.00,1.6608
3903.00,1.6705
3902.00,1.6799
3901.00,1.6889
3900.00,1.6973
3899.00,1.7050
3898.00,1.7121
3897.00,1.7187
3896.00,1.7249
3895.00,1.7304
3894.00,1.7353
3893.00,1.7396
3892.00,1.7435
3891.00,1.7472
3890.00,1.7508
3889.00,1.7540
3888.00,1.7567
3887.00,1.7586
3886.00,1.7599
3885.00,1.7604
3884.00,1.7606
3883.00,1.7607
3882.00,1.7605
3881.00,1.7597
3880.00,1.7578
3879.00,1.7549
3878.00,1.7516
3877.00,1.7485
3876.00,1.7456
3875.00,1.7424
3874.00,1.7386
3873.00,1.7342
3872.00,1.7291
3871.00,1.7234
3870.00,1.7171
3869.00,1.7104
3868.00,1.7033
3867.00,1.6962
3866.00,1.6886
3865.00,1.6797
3864.00,1.6693
3863.00,1.6579
3862.00,1.6464
3861.00,1.6350
3860.00,1.6234
3859.00,1.6116
3858.00,1.5994
3857.00,1.5870
3856.00,1.5740
3855.00,1.5594
3854.00,1.5422
3853.00,1.5228
3852.00,1.5027
3851.00,1.4833
3850.00,1.4645
3849.00,1.4451
3848.00,1.4243
3847.00,1.4026
3846.00,1.3803
3845.00,1.3574
3844.00,1.3335
3843.00,1.3087
3842.00,1.2835
3841.00,1.2579
3840.00,1.2316
3839.00,1.2039
3838.00,1.1747
3837.00,1.1447
3836.00,1.1152
3835.00,1.0868
3834.00,1.0592
3833.00,1.0316
3832.00,1.0040
3831.00,0.9768
3830.00,0.9507
3829.00,0.9260
3828.00,0.9027
3827.00,0.8804
3826.00,0.8595
3825.00,0.8406
3824.00,0.8242
3823.00,0.8101
3822.00,0.7979
3821.00,0.7872
3820.00,0.7785
3819.00,0.7725
3818.00,0.7696
3817.00,0.7700
3816.00,0.7733
3815.00,0.7789
3814.00,0.7867
3813.00,0.7969
3812.00,0.8096
3811.00,0.8242
3810.00,0.8406
3809.00,0.8592
3808.00,0.8807
3807.00,0.9056
3806.00,0.9327
3805.00,0.9601
3804.00,0.9867
3803.00,1.0134
3802.00,1.0418
3801.00,1.0728
3800.00,1.1051
3799.00,1.1369
3798.00,1.1673
3797.00,1.1965
3796.00,1.2252
3795.00,1.2534
3794.00,1.2812
3793.00,1.3082
3792.00,1.3346
3791.00,1.3600
3790.00,1.3846
3789.00,1.4085
3788.00,1.4320
3787.00,1.4548
3786.00,1.4769
3785.00,1.4982
3784.00,1.5188
3783.00,1.5384
3782.00,1.5572
3781.00,1.5751
3780.00,1.5922
3779.00,1.6088
3778.00,1.6247
3777.00,1.6401
3776.00,1.6550
3775.00,1.6691
3774.00,1.6821
3773.00,1.6938
3772.00,1.7045
3771.00,1.7150
3770.00,1.7258
3769.00,1.7367
3768.00,1.7471
3767.00,1.7568
3766.00,1.7658
3765.00,1.7743
3764.00,1.7821
3763.00,1.7891
3762.00,1.7957
3761.00,1.8018
3760.00,1.8075
3759.00,1.8127
3758.00,1.8175
3757.00,1.8219
3756.00,1.8260
3755.00,1.8298
3754.00,1.8333
3753.00,1.8368
3752.00,1.8398
3751.00,1.8417
3750.00,1.8424
3749.00,1.8421
3748.00,1.8406
3747.00,1.8377
3746.00,1.8329
3745.00,1.8262
3744.00,1.8177
3743.00,1.8079
3742.00,1.7973
3741.00,1.7859
3740.00,1.7731
3739.00,1.7591
3738.00,1.7449
3737.00,1.7312
3736.00,1.7179
3735.00,1.7050
3734.00,1.6926
3733.00,1.6812
3732.00,1.6710
3731.00,1.6622
3730.00,1.6550
3729.00,1.6492
3728.00,1.6442
3727.00,1.6397
3726.00,1.6355
3725.00,1.6313
3724.00,1.6266
3723.00,1.6202
3722.00,1.6107
3721.00,1.5971
3720.00,1.5788
3719.00,1.5564
3718.00,1.5310
3717.00,1.5040
3716.00,1.4768
3715.00,1.4502
3714.00,1.4241
3713.00,1.3980
3712.00,1.3712
3711.00,1.3438
3710.00,1.3165
3709.00,1.2897
3708.00,1.2634
3707.00,1.2375
3706.00,1.2120
3705.00,1.1870
3704.00,1.1620
3703.00,1.1369
3702.00,1.1115
3701.00,1.0863
3700.00,1.0619
3699.00,1.0389
3698.00,1.0172
3697.00,0.9968
3696.00,0.9776
3695.00,0.9603
3694.00,0.9452
3693.00,0.9325
3692.00,0.9221
3691.00,0.9140
3690.00,0.9084
3689.00,0.9052
3688.00,0.9045
3687.00,0.9064
3686.00,0.9110
3685.00,0.9180
3684.00,0.9275
3683.00,0.9395
3682.00,0.9540
3681.00,0.9710
3680.00,0.9901
3679.00,1.0108
3678.00,1.0327
3677.00,1.0566
3676.00,1.0836
3675.00,1.1136
3674.00,1.1440
3673.00,1.1726
3672.00,1.1997
3671.00,1.2269
3670.00,1.2552
3669.00,1.2844
3668.00,1.3131
3667.00,1.3407
3666.00,1.3670
3665.00,1.3920
3664.00,1.4159
3663.00,1.4393
3662.00,1.4624
3661.00,1.4851
3660.00,1.5073
3659.00,1.5288
3658.00,1.5495
3657.00,1.5700
3656.00,1.5906
3655.00,1.6108
3654.00,1.6298
3653.00,1.6470
3652.00,1.6630
3651.00,1.6785
3650.00,1.6941
3649.00,1.7096
3648.00,1.7250
3647.00,1.7396
3646.00,1.7526
3645.00,1.7636
3644.00,1.7730
3643.00,1.7811
3642.00,1.7881
3641.00,1.7941
3640.00,1.7994
3639.00,1.8043
3638.00,1.8085
3637.00,1.8121
3636.00,1.8154
3635.00,1.8190
3634.00,1.8231
3633.00,1.8276
3632.00,1.8325
3631.00,1.8376
3630.00,1.8432
3629.00,1.8498
3628.00,1.8579
3627.00,1.8665
3626.00,1.8764
3625.00,1.8847
3624.00,1.8960
3623.00,1.9013
3622.00,1.9224
3621.00,1.9439
3620.00,1.9402
3619.00,1.9477
3618.00,1.9407
3617.00,1.9317
3616.00,1.9299
3615.00,1.9245
3614.00,1.9205
3613.00,1.9160
3612.00,1.9125
3611.00,1.9091
3610.00,1.9060
3609.00,1.9032
3608.00,1.9010
3607.00,1.8993
3606.00,1.8976
3605.00,1.8960
3604.00,1.8943
3603.00,1.8923
3602.00,1.8896
3601.00,1.8862
3600.00,1.8825
3599.00,1.8789
3598.00,1.8751
3597.00,1.8711
3596.00,1.8664
3595.00,1.8609
3594.00,1.8544
3593.00,1.8471
3592.00,1.8393
3591.00,1.8312
3590.00,1.8224
3589.00,1.8125
3588.00,1.8017
3587.00,1.7903
3586.00,1.7785
3585.00,1.7664
3584.00,1.7537
3583.00,1.7401
3582.00,1.7254
3581.00,1.7099
3580.00,1.6939
3579.00,1.6777
3578.00,1.6611
3577.00,1.6438
3576.00,1.6258
3575.00,1.6072
3574.00,1.5882
3573.00,1.5692
3572.00,1.5503
3571.00,1.5317
3570.00,1.5130
3569.00,1.4936
3568.00,1.4731
3567.00,1.4519
3566.00,1.4305
3565.00,1.4097
3564.00,1.3897
3563.00,1.3707
3562.00,1.3521
3561.00,1.3341
3560.00,1.3165
3559.00,1.2994
3558.00,1.2832
3557.00,1.2680
3556.00,1.2540
3555.00,1.2413
3554.00,1.2297
3553.00,1.2194
3552.00,1.2103
3551.00,1.2025
3550.00,1.1962
3549.00,1.1915
3548.00,1.1883
3547.00,1.1865
3546.00,1.1859
3545.00,1.1864
3544.00,1.1881
3543.00,1.1911
3542.00,1.1955
3541.00,1.2013
3540.00,1.2083
3539.00,1.2165
3538.00,1.2258
3537.00,1.2361
3536.00,1.2474
3535.00,1.2596
3534.00,1.2728
3533.00,1.2869
3532.00,1.3018
3531.00,1.3176
3530.00,1.3341
3529.00,1.3511
3528.00,1.3688
3527.00,1.3871
3526.00,1.4059
3525.00,1.4250
3524.00,1.4444
3523.00,1.4638
3522.00,1.4834
3521.00,1.5032
3520.00,1.5231
3519.00,1.5431
3518.00,1.5629
3517.00,1.5825
3516.00,1.6019
3515.00,1.6210
3514.00,1.6397
3513.00,1.6579
3512.00,1.6759
3511.00,1.6935
3510.00,1.7106
3509.00,1.7271
3508.00,1.7429
3507.00,1.7584
3506.00,1.7736
3505.00,1.7885
3504.00,1.8028
3503.00,1.8164
3502.00,1.8291
3501.00,1.8411
3500.00,1.8528
3499.00,1.8641
3498.00,1.8751
3497.00,1.8856
3496.00,1.8958
3495.00,1.9055
3494.00,1.9147
3493.00,1.9231
3492.00,1.9308
3491.00,1.9377
3490.00,1.9441
3489.00,1.9503
3488.00,1.9564
3487.00,1.9625
3486.00,1.9681
3485.00,1.9731
3484.00,1.9775
3483.00,1.9815
3482.00,1.9848
3481.00,1.9877
3480.00,1.9903
3479.00,1.9926
3478.00,1.9942
3477.00,1.9952
3476.00,1.9957
3475.00,1.9956
3474.00,1.9950
3473.00,1.9937
3472.00,1.9923
3471.00,1.9911
3470.00,1.9897
3469.00,1.9877
3468.00,1.9847
3467.00,1.9810
3466.00,1.9769
3465.00,1.9724
3464.00,1.9676
3463.00,1.9625
3462.00,1.9570
3461.00,1.9510
3460.00,1.9444
3459.00,1.9373
3458.00,1.9295
3457.00,1.9212
3456.00,1.9124
3455.00,1.9031
3454.00,1.8930
3453.00,1.8821
3452.00,1.8704
3451.00,1.8582
3450.00,1.8455
3449.00,1.8325
3448.00,1.8193
3447.00,1.8055
3446.00,1.7910
3445.00,1.7754
3444.00,1.7589
3443.00,1.7415
3442.00,1.7234
3441.00,1.7047
3440.00,1.6855
3439.00,1.6655
3438.00,1.6447
3437.00,1.6231
3436.00,1.6007
3435.00,1.5773
3434.00,1.5531
3433.00,1.5282
3432.00,1.5025
3431.00,1.4763
3430.00,1.4495
3429.00,1.4224
3428.00,1.3949
3427.00,1.3673
3426.00,1.3396
3425.00,1.3119
3424.00,1.2847
3423.00,1.2581
3422.00,1.2322
3421.00,1.2071
3420.00,1.1831
3419.00,1.1604
3418.00,1.1392
3417.00,1.1199
3416.00,1.1027
3415.00,1.0876
3414.00,1.0747
3413.00,1.0641
3412.00,1.0560
3411.00,1.0505
3410.00,1.0477
3409.00,1.0476
3408.00,1.0503
3407.00,1.0555
3406.00,1.0632
3405.00,1.0732
3404.00,1.0854
3403.00,1.0995
3402.00,1.1153
3401.00,1.1327
3400.00,1.1517
3399.00,1.1722
3398.00,1.1940
3397.00,1.2170
3396.00,1.2411
3395.00,1.2661
3394.00,1.2919
3393.00,1.3184
3392.00,1.3455
3391.00,1.3728
3390.00,1.4001
3389.00,1.4273
3388.00,1.4544
3387.00,1.4814
3386.00,1.5080
3385.00,1.5341
3384.00,1.5597
3383.00,1.5845
3382.00,1.6086
3381.00,1.6320
3380.00,1.6545
3379.00,1.6762
3378.00,1.6972
3377.00,1.7171
3376.00,1.7361
3375.00,1.7544
3374.00,1.7722
3373.00,1.7898
3372.00,1.8072
3371.00,1.8238
3370.00,1.8395
3369.00,1.8544
3368.00,1.8687
3367.00,1.8825
3366.00,1.8956
3365.00,1.9078
3364.00,1.9194
3363.00,1.9303
3362.00,1.9408
3361.00,1.9509
3360.00,1.9606
3359.00,1.9694
3358.00,1.9773
3357.00,1.9847
3356.00,1.9920
3355.00,1.9996
3354.00,2.0068
3353.00,2.0133
3352.00,2.0186
3351.00,2.0230
3350.00,2.0268
3349.00,2.0303
3348.00,2.0334
3347.00,2.0360
3346.00,2.0384
3345.00,2.0409
3344.00,2.0437
3343.00,2.0465
3342.00,2.0484
3341.00,2.0491
3340.00,2.0488
3339.00,2.0478
3338.00,2.0463
3337.00,2.0443
3336.00,2.0418
3335.00,2.0387
3334.00,2.0352
3333.00,2.0318
3332.00,2.0286
3331.00,2.0254
3330.00,2.0216
3329.00,2.0168
3328.00,2.0113
3327.00,2.0053
3326.00,1.9991
3325.00,1.9926
3324.00,1.9856
3323.00,1.9777
3322.00,1.9688
3321.00,1.9594
3320.00,1.9495
3319.00,1.9392
3318.00,1.9281
3317.00,1.9165
3316.00,1.9044
3315.00,1.8917
3314.00,1.8781
3313.00,1.8635
3312.00,1.8482
3311.00,1.8325
3310.00,1.8165
3309.00,1.8002
3308.00,1.7832
3307.00,1.7653
3306.00,1.7463
3305.00,1.7261
3304.00,1.7051
3303.00,1.6834
3302.00,1.6612
3301.00,1.6383
3300.00,1.6146
3299.00,1.5901
3298.00,1.5646
3297.00,1.5384
3296.00,1.5118
3295.00,1.4847
3294.00,1.4571
3293.00,1.4293
3292.00,1.4012
3291.00,1.3731
3290.00,1.3452
3289.00,1.3174
3288.00,1.2901
3287.00,1.2634
3286.00,1.2376
3285.00,1.2130
3284.00,1.1898
3283.00,1.1682
3282.00,1.1484
3281.00,1.1306
3280.00,1.1149
3279.00,1.1016
3278.00,1.0907
3277.00,1.0824
3276.00,1.0769
3275.00,1.0743
3274.00,1.0746
3273.00,1.0779
3272.00,1.0841
3271.00,1.0931
3270.00,1.1048
3269.00,1.1192
3268.00,1.1360
3267.00,1.1550
3266.00,1.1760
3265.00,1.1988
3264.00,1.2231
3263.00,1.2488
3262.00,1.2756
3261.00,1.3033
3260.00,1.3318
3259.00,1.3608
3258.00,1.3903
3257.00,1.4200
3256.00,1.4495
3255.00,1.4787
3254.00,1.5074
3253.00,1.5355
3252.00,1.5631
3251.00,1.5899
3250.00,1.6160
3249.00,1.6413
3248.00,1.6661
3247.00,1.6903
3246.00,1.7139
3245.00,1.7367
3244.00,1.7589
3243.00,1.7800
3242.00,1.8001
3241.00,1.8192
3240.00,1.8375
3239.00,1.8553
3238.00,1.8724
3237.00,1.8889
3236.00,1.9045
3235.00,1.9194
3234.00,1.9336
3233.00,1.9470
3232.00,1.9596
3231.00,1.9717
3230.00,1.9835
3229.00,1.9952
3228.00,2.0069
3227.00,2.0184
3226.00,2.0291
3225.00,2.0388
3224.00,2.0475
3223.00,2.0552
3222.00,2.0621
3221.00,2.0687
3220.00,2.0751
3219.00,2.0813
3218.00,2.0868
3217.00,2.0917
3216.00,2.0965
3215.00,2.1013
3214.00,2.1060
3213.00,2.1101
3212.00,2.1132
3211.00,2.1154
3210.00,2.1170
3209.00,2.1184
3208.00,2.1201
3207.00,2.1217
3206.00,2.1230
3205.00,2.1234
3204.00,2.1230
3203.00,2.1219
3202.00,2.1203
3201.00,2.1187
3200.00,2.1168
3199.00,2.1142
3198.00,2.1107
3197.00,2.1061
3196.00,2.1009
3195.00,2.0953
3194.00,2.0895
3193.00,2.0833
3192.00,2.0768
3191.00,2.0698
3190.00,2.0620
3189.00,2.0534
3188.00,2.0442
3187.00,2.0346
3186.00,2.0247
3185.00,2.0145
3184.00,2.0035
3183.00,1.9914
3182.00,1.9782
3181.00,1.9641
3180.00,1.9494
3179.00,1.9341
3178.00,1.9179
3177.00,1.9011
3176.00,1.8839
3175.00,1.8667
3174.00,1.8495
3173.00,1.8325
3172.00,1.8162
3171.00,1.8016
3170.00,1.7897
3169.00,1.7819
3168.00,1.7789
3167.00,1.7808
3166.00,1.7863
3165.00,1.7927
3164.00,1.7965
3163.00,1.7940
3162.00,1.7826
3161.00,1.7618
3160.00,1.7332
3159.00,1.6990
3158.00,1.6616
3157.00,1.6228
3156.00,1.5837
3155.00,1.5453
3154.00,1.5078
3153.00,1.4716
3152.00,1.4369
3151.00,1.4039
3150.00,1.3727
3149.00,1.3436
3148.00,1.3166
3147.00,1.2918
3146.00,1.2693
3145.00,1.2491
3144.00,1.2316
3143.00,1.2168
3142.00,1.2049
3141.00,1.1961
3140.00,1.1905
3139.00,1.1882
3138.00,1.1892
3137.00,1.1935
3136.00,1.2008
3135.00,1.2112
3134.00,1.2244
3133.00,1.2403
3132.00,1.2586
3131.00,1.2790
3130.00,1.3013
3129.00,1.3254
3128.00,1.3509
3127.00,1.3776
3126.00,1.4053
3125.00,1.4337
3124.00,1.4627
3123.00,1.4922
3122.00,1.5217
3121.00,1.5511
3120.00,1.5802
3119.00,1.6089
3118.00,1.6372
3117.00,1.6648
3116.00,1.6918
3115.00,1.7177
3114.00,1.7427
3113.00,1.7668
3112.00,1.7902
3111.00,1.8127
3110.00,1.8344
3109.00,1.8555
3108.00,1.8760
3107.00,1.8960
3106.00,1.9151
3105.00,1.9332
3104.00,1.9503
3103.00,1.9667
3102.00,1.9828
3101.00,1.9985
3100.00,2.0138
3099.00,2.0282
3098.00,2.0415
3097.00,2.0539
3096.00,2.0659
3095.00,2.0776
3094.00,2.0891
3093.00,2.1000
3092.00,2.1101
3091.00,2.1192
3090.00,2.1276
3089.00,2.1360
3088.00,2.1446
3087.00,2.1529
3086.00,2.1604
3085.00,2.1669
3084.00,2.1726
3083.00,2.1781
3082.00,2.1834
3081.00,2.1886
3080.00,2.1935
3079.00,2.1979
3078.00,2.2014
3077.00,2.2040
3076.00,2.2059
3075.00,2.2077
3074.00,2.2093
3073.00,2.2105
3072.00,2.2107
3071.00,2.2101
3070.00,2.2090
3069.00,2.2077
3068.00,2.2064
3067.00,2.2046
3066.00,2.2023
3065.00,2.1996
3064.00,2.1966
3063.00,2.1930
3062.00,2.1885
3061.00,2.1831
3060.00,2.1771
3059.00,2.1710
3058.00,2.1648
3057.00,2.1584
3056.00,2.1517
3055.00,2.1447
3054.00,2.1371
3053.00,2.1287
3052.00,2.1194
3051.00,2.1093
3050.00,2.0986
3049.00,2.0875
3048.00,2.0758
3047.00,2.0637
3046.00,2.0512
3045.00,2.0384
3044.00,2.0250
3043.00,2.0108
3042.00,1.9957
3041.00,1.9798
3040.00,1.9632
3039.00,1.9460
3038.00,1.9283
3037.00,1.9104
3036.00,1.8923
3035.00,1.8740
3034.00,1.8555
3033.00,1.8367
3032.00,1.8175
3031.00,1.7979
3030.00,1.7783
3029.00,1.7589
3028.00,1.7401
3027.00,1.7220
3026.00,1.7046
3025.00,1.6883
3024.00,1.6733
3023.00,1.6599
3022.00,1.6482
3021.00,1.6383
3020.00,1.6305
3019.00,1.6249
3018.00,1.6218
3017.00,1.6214
3016.00,1.6238
3015.00,1.6289
3014.00,1.6362
3013.00,1.6456
3012.00,1.6569
3011.00,1.6700
3010.00,1.6844
3009.00,1.6997
3008.00,1.7155
3007.00,1.7311
3006.00,1.7458
3005.00,1.7591
3004.00,1.7703
3003.00,1.7793
3002.00,1.7857
3001.00,1.7898
3000.00,1.7916
2999.00,1.7916
2998.00,1.7902
2997.00,1.7879
2996.00,1.7854
2995.00,1.7833
2994.00,1.7822
2993.00,1.7826
2992.00,1.7850
2991.00,1.7897
2990.00,1.7971
2989.00,1.8072
2988.00,1.8200
2987.00,1.8352
2986.00,1.8524
2985.00,1.8714
2984.00,1.8919
2983.00,1.9139
2982.00,1.9370
2981.00,1.9609
2980.00,1.9853
2979.00,2.0099
2978.00,2.0347
2977.00,2.0596
2976.00,2.0845
2975.00,2.1093
2974.00,2.1336
2973.00,2.1575
2972.00,2.1803
2971.00,2.2018
2970.00,2.2217
2969.00,2.2402
2968.00,2.2579
2967.00,2.2753
2966.00,2.2924
2965.00,2.3090
2964.00,2.3246
2963.00,2.3389
2962.00,2.3522
2961.00,2.3650
2960.00,2.3779
2959.00,2.3911
2958.00,2.4044
2957.00,2.4178
2956.00,2.4315
2955.00,2.4457
2954.00,2.4607
2953.00,2.4766
2952.00,2.4932
2951.00,2.5097
2950.00,2.5256
2949.00,2.5411
2948.00,2.5567
2947.00,2.5725
2946.00,2.5867
2945.00,2.5965
2944.00,2.5994
2943.00,2.5946
2942.00,2.5833
2941.00,2.5675
2940.00,2.5497
2939.00,2.5317
2938.00,2.5147
2937.00,2.4990
2936.00,2.4841
2935.00,2.4691
2934.00,2.4542
2933.00,2.4411
2932.00,2.4311
2931.00,2.4236
2930.00,2.4168
2929.00,2.4093
2928.00,2.4016
2927.00,2.3951
2926.00,2.3908
2925.00,2.3885
2924.00,2.3873
2923.00,2.3860
2922.00,2.3835
2921.00,2.3796
2920.00,2.3752
2919.00,2.3713
2918.00,2.3683
2917.00,2.3659
2916.00,2.3634
2915.00,2.3607
2914.00,2.3574
2913.00,2.3536
2912.00,2.3492
2911.00,2.3442
2910.00,2.3389
2909.00,2.3333
2908.00,2.3271
2907.00,2.3204
2906.00,2.3132
2905.00,2.3056
2904.00,2.2978
2903.00,2.2894
2902.00,2.2806
2901.00,2.2716
2900.00,2.2621
2899.00,2.2518
2898.00,2.2404
2897.00,2.2282
2896.00,2.2153
2895.00,2.2015
2894.00,2.1863
2893.00,2.1697
2892.00,2.1523
2891.00,2.1346
2890.00,2.1168
2889.00,2.0987
2888.00,2.0804
2887.00,2.0615
2886.00,2.0421
2885.00,2.0222
2884.00,2.0024
2883.00,1.9831
2882.00,1.9644
2881.00,1.9463
2880.00,1.9289
2879.00,1.9129
2878.00,1.8990
2877.00,1.8878
2876.00,1.8794
2875.00,1.8735
2874.00,1.8700
2873.00,1.8687
2872.00,1.8687
2871.00,1.8692
2870.00,1.8691
2869.00,1.8676
2868.00,1.8638
2867.00,1.8571
2866.00,1.8472
2865.00,1.8342
2864.00,1.8184
2863.00,1.7997
2862.00,1.7779
2861.00,1.7528
2860.00,1.7247
2859.00,1.6935
2858.00,1.6599
2857.00,1.6245
2856.00,1.5884
2855.00,1.5527
2854.00,1.5185
2853.00,1.4870
2852.00,1.4593
2851.00,1.4361
2850.00,1.4180
2849.00,1.4053
2848.00,1.3982
2847.00,1.3966
2846.00,1.4003
2845.00,1.4090
2844.00,1.4225
2843.00,1.4401
2842.00,1.4612
2841.00,1.4853
2840.00,1.5118
2839.00,1.5402
2838.00,1.5700
2837.00,1.6008
2836.00,1.6323
2835.00,1.6641
2834.00,1.6958
2833.00,1.7273
2832.00,1.7583
2831.00,1.7887
2830.00,1.8181
2829.00,1.8466
2828.00,1.8741
2827.00,1.9009
2826.00,1.9270
2825.00,1.9523
2824.00,1.9771
2823.00,2.0013
2822.00,2.0248
2821.00,2.0476
2820.00,2.0694
2819.00,2.0901
2818.00,2.1095
2817.00,2.1277
2816.00,2.1450
2815.00,2.1615
2814.00,2.1774
2813.00,2.1926
2812.00,2.2068
2811.00,2.2200
2810.00,2.2322
2809.00,2.2442
2808.00,2.2563
2807.00,2.2681
2806.00,2.2788
2805.00,2.2880
2804.00,2.2965
2803.00,2.3051
2802.00,2.3138
2801.00,2.3219
2800.00,2.3287
2799.00,2.3343
2798.00,2.3396
2797.00,2.3452
2796.00,2.3506
2795.00,2.3548
2794.00,2.3577
2793.00,2.3602
2792.00,2.3632
2791.00,2.3667
2790.00,2.3701
2789.00,2.3721
2788.00,2.3724
2787.00,2.3713
2786.00,2.3699
2785.00,2.3691
2784.00,2.3689
2783.00,2.3686
2782.00,2.3674
2781.00,2.3651
2780.00,2.3619
2779.00,2.3580
2778.00,2.3534
2777.00,2.3483
2776.00,2.3426
2775.00,2.3363
2774.00,2.3294
2773.00,2.3226
2772.00,2.3162
2771.00,2.3096
2770.00,2.3017
2769.00,2.2917
2768.00,2.2805
2767.00,2.2690
2766.00,2.2576
2765.00,2.2459
2764.00,2.2335
2763.00,2.2203
2762.00,2.2062
2761.00,2.1913
2760.00,2.1757
2759.00,2.1597
2758.00,2.1429
2757.00,2.1250
2756.00,2.1059
2755.00,2.0855
2754.00,2.0639
2753.00,2.0415
2752.00,2.0182
2751.00,1.9939
2750.00,1.9684
2749.00,1.9416
2748.00,1.9131
2747.00,1.8830
2746.00,1.8514
2745.00,1.8184
2744.00,1.7839
2743.00,1.7480
2742.00,1.7105
2741.00,1.6717
2740.00,1.6318
2739.00,1.5910
2738.00,1.5495
2737.00,1.5075
2736.00,1.4651
2735.00,1.4230
2734.00,1.3816
2733.00,1.3413
2732.00,1.3026
2731.00,1.2658
2730.00,1.2313
2729.00,1.1998
2728.00,1.1718
2727.00,1.1478
2726.00,1.1282
2725.00,1.1134
2724.00,1.1038
2723.00,1.0997
2722.00,1.1013
2721.00,1.1086
2720.00,1.1216
2719.00,1.1400
2718.00,1.1635
2717.00,1.1916
2716.00,1.2239
2715.00,1.2598
2714.00,1.2986
2713.00,1.3397
2712.00,1.3827
2711.00,1.4268
2710.00,1.4715
2709.00,1.5163
2708.00,1.5609
2707.00,1.6050
2706.00,1.6484
2705.00,1.6907
2704.00,1.7317
2703.00,1.7711
2702.00,1.8087
2701.00,1.8447
2700.00,1.8794
2699.00,1.9125
2698.00,1.9440
2697.00,1.9737
2696.00,2.0018
2695.00,2.0286
2694.00,2.0542
2693.00,2.0790
2692.00,2.1029
2691.00,2.1258
2690.00,2.1478
2689.00,2.1689
2688.00,2.1892
2687.00,2.2085
2686.00,2.2267
2685.00,2.2434
2684.00,2.2589
2683.00,2.2736
2682.00,2.2880
2681.00,2.3020
2680.00,2.3152
2679.00,2.3273
2678.00,2.3384
2677.00,2.3488
2676.00,2.3588
2675.00,2.3681
2674.00,2.3766
2673.00,2.3843
2672.00,2.3918
2671.00,2.3997
2670.00,2.4081
2669.00,2.4160
2668.00,2.4223
2667.00,2.4270
2666.00,2.4312
2665.00,2.4358
2664.00,2.4412
2663.00,2.4466
2662.00,2.4519
2661.00,2.4566
2660.00,2.4602
2659.00,2.4620
2658.00,2.4625
2657.00,2.4625
2656.00,2.4627
2655.00,2.4626
2654.00,2.4616
2653.00,2.4598
2652.00,2.4575
2651.00,2.4554
2650.00,2.4534
2649.00,2.4510
2648.00,2.4474
2647.00,2.4425
2646.00,2.4369
2645.00,2.4318
2644.00,2.4273
2643.00,2.4225
2642.00,2.4165
2641.00,2.4091
2640.00,2.4012
2639.00,2.3932
2638.00,2.3850
2637.00,2.3761
2636.00,2.3663
2635.00,2.3558
2634.00,2.3449
2633.00,2.3342
2632.00,2.3235
2631.00,2.3128
2630.00,2.3021
2629.00,2.2919
2628.00,2.2822
2627.00,2.2726
2626.00,2.2620
2625.00,2.2494
2624.00,2.2346
2623.00,2.2174
2622.00,2.1982
2621.00,2.1773
2620.00,2.1554
2619.00,2.1323
2618.00,2.1081
2617.00,2.0825
2616.00,2.0556
2615.00,2.0276
2614.00,1.9981
2613.00,1.9669
2612.00,1.9338
2611.00,1.8984
2610.00,1.8609
2609.00,1.8216
2608.00,1.7807
2607.00,1.7381
2606.00,1.6937
2605.00,1.6476
2604.00,1.6003
2603.00,1.5523
2602.00,1.5039
2601.00,1.4558
2600.00,1.4084
2599.00,1.3623
2598.00,1.3183
2597.00,1.2769
2596.00,1.2388
2595.00,1.2047
2594.00,1.1753
2593.00,1.1510
2592.00,1.1325
2591.00,1.1200
2590.00,1.1140
2589.00,1.1146
2588.00,1.1220
2587.00,1.1361
2586.00,1.1565
2585.00,1.1827
2584.00,1.2144
2583.00,1.2508
2582.00,1.2911
2581.00,1.3346
2580.00,1.3804
2579.00,1.4279
2578.00,1.4765
2577.00,1.5257
2576.00,1.5747
2575.00,1.6231
2574.00,1.6706
2573.00,1.7168
2572.00,1.7615
2571.00,1.8044
2570.00,1.8453
2569.00,1.8843
2568.00,1.9214
2567.00,1.9565
2566.00,1.9898
2565.00,2.0214
2564.00,2.0515
2563.00,2.0804
2562.00,2.1081
2561.00,2.1346
2560.00,2.1600
2559.00,2.1843
2558.00,2.2077
2557.00,2.2302
2556.00,2.2517
2555.00,2.2719
2554.00,2.2908
2553.00,2.3086
2552.00,2.3256
2551.00,2.3416
2550.00,2.3566
2549.00,2.3710
2548.00,2.3851
2547.00,2.3991
2546.00,2.4126
2545.00,2.4253
2544.00,2.4370
2543.00,2.4479
2542.00,2.4580
2541.00,2.4674
2540.00,2.4759
2539.00,2.4836
2538.00,2.4905
2537.00,2.4974
2536.00,2.5048
2535.00,2.5128
2534.00,2.5207
2533.00,2.5276
2532.00,2.5334
2531.00,2.5383
2530.00,2.5425
2529.00,2.5463
2528.00,2.5495
2527.00,2.5521
2526.00,2.5541
2525.00,2.5557
2524.00,2.5574
2523.00,2.5593
2522.00,2.5606
2521.00,2.5605
2520.00,2.5588
2519.00,2.5565
2518.00,2.5546
2517.00,2.5534
2516.00,2.5518
2515.00,2.5493
2514.00,2.5458
2513.00,2.5421
2512.00,2.5386
2511.00,2.5349
2510.00,2.5301
2509.00,2.5237
2508.00,2.5161
2507.00,2.5080
2506.00,2.4996
2505.00,2.4913
2504.00,2.4830
2503.00,2.4742
2502.00,2.4646
2501.00,2.4539
2500.00,2.4427
2499.00,2.4313
2498.00,2.4198
2497.00,2.4078
2496.00,2.3950
2495.00,2.3807
2494.00,2.3650
2493.00,2.3484
2492.00,2.3314
2491.00,2.3142
2490.00,2.2960
2489.00,2.2762
2488.00,2.2548
2487.00,2.2322
2486.00,2.2090
2485.00,2.1851
2484.00,2.1603
2483.00,2.1345
2482.00,2.1076
2481.00,2.0795
2480.00,2.0497
2479.00,2.0178
2478.00,1.9838
2477.00,1.9478
2476.00,1.9101
2475.00,1.8707
2474.00,1.8295
2473.00,1.7868
2472.00,1.7427
2471.00,1.6973
2470.00,1.6510
2469.00,1.6041
2468.00,1.5571
2467.00,1.5107
2466.00,1.4655
2465.00,1.4220
2464.00,1.3811
2463.00,1.3433
2462.00,1.3096
2461.00,1.2805
2460.00,1.2568
2459.00,1.2391
2458.00,1.2275
2457.00,1.2226
2456.00,1.2246
2455.00,1.2334
2454.00,1.2491
2453.00,1.2712
2452.00,1.2992
2451.00,1.3323
2450.00,1.3699
2449.00,1.4114
2448.00,1.4559
2447.00,1.5026
2446.00,1.5507
2445.00,1.5994
2444.00,1.6483
2443.00,1.6967
2442.00,1.7443
2441.00,1.7908
2440.00,1.8360
2439.00,1.8797
2438.00,1.9216
2437.00,1.9616
2436.00,1.9996
2435.00,2.0357
2434.00,2.0703
2433.00,2.1035
2432.00,2.1353
2431.00,2.1657
2430.00,2.1950
2429.00,2.2233
2428.00,2.2504
2427.00,2.2759
2426.00,2.2996
2425.00,2.3219
2424.00,2.3431
2423.00,2.3633
2422.00,2.3828
2421.00,2.4016
2420.00,2.4200
2419.00,2.4376
2418.00,2.4543
2417.00,2.4699
2416.00,2.4845
2415.00,2.4983
2414.00,2.5111
2413.00,2.5225
2412.00,2.5326
2411.00,2.5419
2410.00,2.5510
2409.00,2.5598
2408.00,2.5681
2407.00,2.5761
2406.00,2.5847
2405.00,2.5941
2404.00,2.6035
2403.00,2.6113
2402.00,2.6171
2401.00,2.6214
2400.00,2.6251
2399.00,2.6290
2398.00,2.6336
2397.00,2.6405
2396.00,2.6471
2395.00,2.6572
2394.00,2.6630
2393.00,2.6824
2392.00,2.6796
2391.00,2.6502
2390.00,2.6602
2389.00,2.6597
2388.00,2.6635
2387.00,2.6631
2386.00,2.6635
2385.00,2.6628
2384.00,2.6620
2383.00,2.6604
2382.00,2.6580
2381.00,2.6554
2380.00,2.6524
2379.00,2.6479
2378.00,2.6415
2377.00,2.6341
2376.00,2.6277
2375.00,2.6232
2374.00,2.6199
2373.00,2.6163
2372.00,2.6113
2371.00,2.6045
2370.00,2.5961
2369.00,2.5863
2368.00,2.5758
2367.00,2.5650
2366.00,2.5537
2365.00,2.5397
2364.00,2.5270
2363.00,2.5072
2362.00,2.4984
2361.00,2.4700
2360.00,2.4763
2359.00,2.3976
2358.00,2.2763
2357.00,2.2516
2356.00,2.2090
2355.00,2.1825
2354.00,2.1528
2353.00,2.1298
2352.00,2.1090
2351.00,2.0814
2350.00,2.0409
2349.00,2.0018
2348.00,1.9776
2347.00,1.9660
2346.00,1.9572
2345.00,1.9464
2344.00,1.9330
2343.00,1.9167
2342.00,1.9005
2341.00,1.8885
2340.00,1.8830
2339.00,1.8828
2338.00,1.8850
2337.00,1.8873
2336.00,1.8892
2335.00,1.8903
2334.00,1.8897
2333.00,1.8856
2332.00,1.8800
2331.00,1.8785
2330.00,1.8856
2329.00,1.9005
2328.00,1.9166
2327.00,1.9305
2326.00,1.9444
2325.00,1.9636
2324.00,1.9895
2323.00,2.0192
2322.00,2.0495
2321.00,2.0789
2320.00,2.1085
2319.00,2.1389
2318.00,2.1706
2317.00,2.2034
2316.00,2.2372
2315.00,2.2714
2314.00,2.3054
2313.00,2.3388
2312.00,2.3718
2311.00,2.4040
2310.00,2.4341
2309.00,2.4602
2308.00,2.4822
2307.00,2.5012
2306.00,2.5194
2305.00,2.5380
2304.00,2.5572
2303.00,2.5771
2302.00,2.5978
2301.00,2.6194
2300.00,2.6414
2299.00,2.6633
2298.00,2.6844
2297.00,2.7040
2296.00,2.7204
2295.00,2.7310
2294.00,2.7330
2293.00,2.7244
2292.00,2.7054
2291.00,2.6795
2290.00,2.6515
2289.00,2.6257
2288.00,2.6045
2287.00,2.5888
2286.00,2.5782
2285.00,2.5726
2284.00,2.5728
2283.00,2.5799
2282.00,2.5930
2281.00,2.6084
2280.00,2.6211
2279.00,2.6299
2278.00,2.6373
2277.00,2.6469
2276.00,2.6597
2275.00,2.6742
2274.00,2.6884
2273.00,2.7011
2272.00,2.7122
2271.00,2.7224
2270.00,2.7326
2269.00,2.7432
2268.00,2.7530
2267.00,2.7604
2266.00,2.7649
2265.00,2.7666
2264.00,2.7664
2263.00,2.7659
2262.00,2.7675
2261.00,2.7750
2260.00,2.7935
2259.00,2.8314
2258.00,2.8987
2257.00,3.0053
2256.00,3.1565
2255.00,3.3479
2254.00,3.5516
2253.00,3.6960
2252.00,3.6950
2251.00,3.5641
2250.00,3.3908
2249.00,3.2271
2248.00,3.0890
2247.00,2.9784
2246.00,2.8937
2245.00,2.8325
2244.00,2.7920
2243.00,2.7686
2242.00,2.7582
2241.00,2.7564
2240.00,2.7590
2239.00,2.7631
2238.00,2.7675
2237.00,2.7721
2236.00,2.7760
2235.00,2.7784
2234.00,2.7791
2233.00,2.7794
2232.00,2.7802
2231.00,2.7807
2230.00,2.7793
2229.00,2.7747
2228.00,2.7668
2227.00,2.7571
2226.00,2.7473
2225.00,2.7387
2224.00,2.7310
2223.00,2.7230
2222.00,2.7136
2221.00,2.7026
2220.00,2.6903
2219.00,2.6772
2218.00,2.6637
2217.00,2.6501
2216.00,2.6360
2215.00,2.6212
2214.00,2.6055
2213.00,2.5890
2212.00,2.5713
2211.00,2.5519
2210.00,2.5300
2209.00,2.5059
2208.00,2.4802
2207.00,2.4543
2206.00,2.4294
2205.00,2.4060
2204.00,2.3832
2203.00,2.3597
2202.00,2.3341
2201.00,2.3056
2200.00,2.2738
2199.00,2.2384
2198.00,2.1996
2197.00,2.1578
2196.00,2.1133
2195.00,2.0659
2194.00,2.0155
2193.00,1.9624
2192.00,1.9069
2191.00,1.8494
2190.00,1.7905
2189.00,1.7307
2188.00,1.6709
2187.00,1.6122
2186.00,1.5556
2185.00,1.5024
2184.00,1.4539
2183.00,1.4109
2182.00,1.3744
2181.00,1.3456
2180.00,1.3251
2179.00,1.3136
2178.00,1.3113
2177.00,1.3184
2176.00,1.3347
2175.00,1.3596
2174.00,1.3926
2173.00,1.4326
2172.00,1.4787
2171.00,1.5297
2170.00,1.5844
2169.00,1.6417
2168.00,1.7006
2167.00,1.7600
2166.00,1.8187
2165.00,1.8758
2164.00,1.9307
2163.00,1.9831
2162.00,2.0333
2161.00,2.0811
2160.00,2.1264
2159.00,2.1690
2158.00,2.2091
2157.00,2.2469
2156.00,2.2830
2155.00,2.3173
2154.00,2.3500
2153.00,2.3812
2152.00,2.4112
2151.00,2.4398
2150.00,2.4661
2149.00,2.4896
2148.00,2.5107
2147.00,2.5305
2146.00,2.5505
2145.00,2.5709
2144.00,2.5912
2143.00,2.6107
2142.00,2.6291
2141.00,2.6471
2140.00,2.6645
2139.00,2.6807
2138.00,2.6952
2137.00,2.7077
2136.00,2.7188
2135.00,2.7289
2134.00,2.7392
2133.00,2.7506
2132.00,2.7628
2131.00,2.7739
2130.00,2.7828
2129.00,2.7900
2128.00,2.7975
2127.00,2.8056
2126.00,2.8134
2125.00,2.8200
2124.00,2.8257
2123.00,2.8308
2122.00,2.8345
2121.00,2.8366
2120.00,2.8388
2119.00,2.8430
2118.00,2.8494
2117.00,2.8558
2116.00,2.8604
2115.00,2.8620
2114.00,2.8602
2113.00,2.8560
2112.00,2.8517
2111.00,2.8506
2110.00,2.8535
2109.00,2.8576
2108.00,2.8594
2107.00,2.8572
2106.00,2.8521
2105.00,2.8468
2104.00,2.8428
2103.00,2.8397
2102.00,2.8361
2101.00,2.8303
2100.00,2.8225
2099.00,2.8146
2098.00,2.8086
2097.00,2.8046
2096.00,2.8010
2095.00,2.7960
2094.00,2.7888
2093.00,2.7795
2092.00,2.7680
2091.00,2.7543
2090.00,2.7397
2089.00,2.7258
2088.00,2.7134
2087.00,2.7015
2086.00,2.6881
2085.00,2.6723
2084.00,2.6550
2083.00,2.6374
2082.00,2.6201
2081.00,2.6024
2080.00,2.5835
2079.00,2.5634
2078.00,2.5420
2077.00,2.5193
2076.00,2.4949
2075.00,2.4687
2074.00,2.4417
2073.00,2.4147
2072.00,2.3878
2071.00,2.3603
2070.00,2.3315
2069.00,2.3008
2068.00,2.2676
2067.00,2.2316
2066.00,2.1929
2065.00,2.1518
2064.00,2.1088
2063.00,2.0636
2062.00,2.0160
2061.00,1.9657
2060.00,1.9127
2059.00,1.8571
2058.00,1.7994
2057.00,1.7407
2056.00,1.6824
2055.00,1.6256
2054.00,1.5716
2053.00,1.5214
2052.00,1.4763
2051.00,1.4373
2050.00,1.4054
2049.00,1.3817
2048.00,1.3670
2047.00,1.3620
2046.00,1.3671
2045.00,1.3821
2044.00,1.4066
2043.00,1.4397
2042.00,1.4805
2041.00,1.5280
2040.00,1.5810
2039.00,1.6382
2038.00,1.6980
2037.00,1.7592
2036.00,1.8207
2035.00,1.8812
2034.00,1.9399
2033.00,1.9963
2032.00,2.0502
2031.00,2.1016
2030.00,2.1502
2029.00,2.1961
2028.00,2.2394
2027.00,2.2805
2026.00,2.3198
2025.00,2.3571
2024.00,2.3922
2023.00,2.4245
2022.00,2.4542
2021.00,2.4825
2020.00,2.5101
2019.00,2.5369
2018.00,2.5626
2017.00,2.5869
2016.00,2.6096
2015.00,2.6306
2014.00,2.6506
2013.00,2.6710
2012.00,2.6923
2011.00,2.7129
2010.00,2.7314
2009.00,2.7475
2008.00,2.7625
2007.00,2.7770
2006.00,2.7909
2005.00,2.8045
2004.00,2.8180
2003.00,2.8310
2002.00,2.8431
2001.00,2.8539
2000.00,2.8641
1999.00,2.8738
1998.00,2.8828
1997.00,2.8912
1996.00,2.8991
1995.00,2.9054
1994.00,2.9102
1993.00,2.9152
1992.00,2.9229
1991.00,2.9331
1990.00,2.9434
1989.00,2.9511
1988.00,2.9551
1987.00,2.9557
1986.00,2.9548
1985.00,2.9550
1984.00,2.9581
1983.00,2.9635
1982.00,2.9689
1981.00,2.9728
1980.00,2.9752
1979.00,2.9762
1978.00,2.9763
1977.00,2.9763
1976.00,2.9758
1975.00,2.9738
1974.00,2.9699
1973.00,2.9662
1972.00,2.9641
1971.00,2.9619
1970.00,2.9573
1969.00,2.9510
1968.00,2.9455
1967.00,2.9414
1966.00,2.9368
1965.00,2.9300
1964.00,2.9211
1963.00,2.9111
1962.00,2.9004
1961.00,2.8900
1960.00,2.8807
1959.00,2.8720
1958.00,2.8625
1957.00,2.8519
1956.00,2.8411
1955.00,2.8308
1954.00,2.8210
1953.00,2.8104
1952.00,2.7971
1951.00,2.7798
1950.00,2.7597
1949.00,2.7390
1948.00,2.7188
1947.00,2.6983
1946.00,2.6758
1945.00,2.6518
1944.00,2.6272
1943.00,2.6021
1942.00,2.5764
1941.00,2.5501
1940.00,2.5239
1939.00,2.4977
1938.00,2.4706
1937.00,2.4415
1936.00,2.4090
1935.00,2.3723
1934.00,2.3320
1933.00,2.2895
1932.00,2.2453
1931.00,2.1989
1930.00,2.1499
1929.00,2.0979
1928.00,2.0432
1927.00,1.9857
1926.00,1.9253
1925.00,1.8625
1924.00,1.7986
1923.00,1.7359
1922.00,1.6764
1921.00,1.6204
1920.00,1.5684
1919.00,1.5219
1918.00,1.4838
1917.00,1.4556
1916.00,1.4371
1915.00,1.4283
1914.00,1.4306
1913.00,1.4445
1912.00,1.4680
1911.00,1.4997
1910.00,1.5394
1909.00,1.5871
1908.00,1.6415
1907.00,1.7003
1906.00,1.7619
1905.00,1.8257
1904.00,1.8898
1903.00,1.9530
1902.00,2.0141
1901.00,2.0730
1900.00,2.1295
1899.00,2.1832
1898.00,2.2336
1897.00,2.2804
1896.00,2.3241
1895.00,2.3665
1894.00,2.4081
1893.00,2.4473
1892.00,2.4822
1891.00,2.5137
1890.00,2.5443
1889.00,2.5746
1888.00,2.6031
1887.00,2.6296
1886.00,2.6558
1885.00,2.6824
1884.00,2.7078
1883.00,2.7314
1882.00,2.7546
1881.00,2.7790
1880.00,2.8041
1879.00,2.8277
1878.00,2.8479
1877.00,2.8638
1876.00,2.8759
1875.00,2.8868
1874.00,2.8991
1873.00,2.9123
1872.00,2.9242
1871.00,2.9339
1870.00,2.9423
1869.00,2.9506
1868.00,2.9600
1867.00,2.9710
1866.00,2.9828
1865.00,2.9939
1864.00,3.0034
1863.00,3.0118
1862.00,3.0210
1861.00,3.0322
1860.00,3.0455
1859.00,3.0595
1858.00,3.0704
1857.00,3.0745
1856.00,3.0720
1855.00,3.0674
1854.00,3.0645
1853.00,3.0642
1852.00,3.0668
1851.00,3.0715
1850.00,3.0756
1849.00,3.0756
1848.00,3.0707
1847.00,3.0643
1846.00,3.0598
1845.00,3.0586
1844.00,3.0602
1843.00,3.0626
1842.00,3.0620
1841.00,3.0580
1840.00,3.0546
1839.00,3.0545
1838.00,3.0562
1837.00,3.0550
1836.00,3.0497
1835.00,3.0436
1834.00,3.0378
1833.00,3.0287
1832.00,3.0156
1831.00,3.0030
1830.00,2.9971
1829.00,2.9964
1828.00,2.9927
1827.00,2.9828
1826.00,2.9704
1825.00,2.9585
1824.00,2.9467
1823.00,2.9333
1822.00,2.9183
1821.00,2.9024
1820.00,2.8862
1819.00,2.8694
1818.00,2.8512
1817.00,2.8311
1816.00,2.8110
1815.00,2.7928
1814.00,2.7742
1813.00,2.7511
1812.00,2.7236
1811.00,2.6965
1810.00,2.6723
1809.00,2.6479
1808.00,2.6203
1807.00,2.5902
1806.00,2.5589
1805.00,2.5250
1804.00,2.4865
1803.00,2.4428
1802.00,2.3949
1801.00,2.3457
1800.00,2.2977
1799.00,2.2503
1798.00,2.2005
1797.00,2.1458
1796.00,2.0866
1795.00,2.0238
1794.00,1.9577
1793.00,1.8905
1792.00,1.8261
1791.00,1.7681
1790.00,1.7178
1789.00,1.6774
1788.00,1.6484
1787.00,1.6293
1786.00,1.6180
1785.00,1.6157
1784.00,1.6248
1783.00,1.6466
1782.00,1.6804
1781.00,1.7269
1780.00,1.7844
1779.00,1.8472
1778.00,1.9112
1777.00,1.9756
1776.00,2.0402
1775.00,2.1010
1774.00,2.1565
1773.00,2.2137
1772.00,2.2779
1771.00,2.3411
1770.00,2.3916
1769.00,2.4313
1768.00,2.4710
1767.00,2.5152
1766.00,2.5601
1765.00,2.6014
1764.00,2.6384
1763.00,2.6731
1762.00,2.7079
1761.00,2.7433
1760.00,2.7753
1759.00,2.8009
1758.00,2.8230
1757.00,2.8474
1756.00,2.8767
1755.00,2.9060
1754.00,2.9303
1753.00,2.9503
1752.00,2.9673
1751.00,2.9810
1750.00,2.9946
1749.00,3.0139
1748.00,3.0412
1747.00,3.0701
1746.00,3.0917
1745.00,3.1065
1744.00,3.1200
1743.00,3.1352
1742.00,3.1491
1741.00,3.1581
1740.00,3.1626
1739.00,3.1666
1738.00,3.1705
1737.00,3.1721
1736.00,3.1725
1735.00,3.1749
1734.00,3.1837
1733.00,3.1960
1732.00,3.2017
1731.00,3.2049
1730.00,3.2150
1729.00,3.2279
1728.00,3.2355
1727.00,3.2364
1726.00,3.2377
1725.00,3.2464
1724.00,3.2605
1723.00,3.2765
1722.00,3.2956
1721.00,3.3215
1720.00,3.3532
1719.00,3.3857
1718.00,3.4189
1717.00,3.4613
1716.00,3.5207
1715.00,3.6014
1714.00,3.7057
1713.00,3.8281
1712.00,3.9481
1711.00,4.0281
1710.00,4.0529
1709.00,4.0427
1708.00,4.0041
1707.00,3.9327
1706.00,3.8338
1705.00,3.7257
1704.00,3.6298
1703.00,3.5517
1702.00,3.4831
1701.00,3.4148
1700.00,3.3507
1699.00,3.2969
1698.00,3.2489
1697.00,3.2134
1696.00,3.2014
1695.00,3.2128
1694.00,3.2318
1693.00,3.2436
1692.00,3.2468
1691.00,3.2448
1690.00,3.2416
1689.00,3.2387
1688.00,3.2317
1687.00,3.2143
1686.00,3.1888
1685.00,3.1662
1684.00,3.1608
1683.00,3.1679
1682.00,3.1673
1681.00,3.1604
1680.00,3.1549
1679.00,3.1479
1678.00,3.1360
1677.00,3.1194
1676.00,3.0998
1675.00,3.0800
1674.00,3.0597
1673.00,3.0378
1672.00,3.0155
1671.00,2.9961
1670.00,2.9796
1669.00,2.9639
1668.00,2.9452
1667.00,2.9231
1666.00,2.9013
1665.00,2.8801
1664.00,2.8557
1663.00,2.8268
1662.00,2.7936
1661.00,2.7567
1660.00,2.7183
1659.00,2.6807
1658.00,2.6433
1657.00,2.6020
1656.00,2.5505
1655.00,2.4850
1654.00,2.4109
1653.00,2.3452
1652.00,2.2956
1651.00,2.2480
1650.00,2.2094
1649.00,2.1849
1648.00,2.1617
1647.00,2.1342
1646.00,2.1054
1645.00,2.0766
1644.00,2.0537
1643.00,2.0442
1642.00,2.0461
1641.00,2.0539
1640.00,2.0639
1639.00,2.0728
1638.00,2.0802
1637.00,2.0898
1636.00,2.1101
1635.00,2.1431
1634.00,2.1782
1633.00,2.2083
1632.00,2.2395
1631.00,2.2743
1630.00,2.3096
1629.00,2.3454
1628.00,2.3835
1627.00,2.4226
1626.00,2.4585
1625.00,2.4921
1624.00,2.5286
1623.00,2.5707
1622.00,2.6131
1621.00,2.6488
1620.00,2.6768
1619.00,2.7006
1618.00,2.7248
1617.00,2.7554
1616.00,2.7933
1615.00,2.8281
1614.00,2.8538
1613.00,2.8769
1612.00,2.9030
1611.00,2.9306
1610.00,2.9566
1609.00,2.9802
1608.00,3.0024
1607.00,3.0232
1606.00,3.0418
1605.00,3.0598
1604.00,3.0783
1603.00,3.0964
1602.00,3.1145
1601.00,3.1338
1600.00,3.1527
1599.00,3.1664
1598.00,3.1740
1597.00,3.1817
1596.00,3.1957
1595.00,3.2148
1594.00,3.2329
1593.00,3.2465
1592.00,3.2561
1591.00,3.2622
1590.00,3.2650
1589.00,3.2678
1588.00,3.2747
1587.00,3.2844
1586.00,3.2915
1585.00,3.2926
1584.00,3.2893
1583.00,3.2849
1582.00,3.2847
1581.00,3.2923
1580.00,3.3052
1579.00,3.3141
1578.00,3.3123
1577.00,3.3037
1576.00,3.3000
1575.00,3.3046
1574.00,3.3097
1573.00,3.3138
1572.00,3.3184
1571.00,3.3205
1570.00,3.3178
1569.00,3.3126
1568.00,3.3096
1567.00,3.3123
1566.00,3.3210
1565.00,3.3270
1564.00,3.3218
1563.00,3.3026
1562.00,3.2716
1561.00,3.2315
1560.00,3.1895
1559.00,3.1632
1558.00,3.1628
1557.00,3.1665
1556.00,3.1721
1555.00,3.1858
1554.00,3.1958
1553.00,3.1956
1552.00,3.1868
1551.00,3.1730
1550.00,3.1566
1549.00,3.1378
1548.00,3.1178
1547.00,3.0975
1546.00,3.0770
1545.00,3.0544
1544.00,3.0279
1543.00,2.9969
1542.00,2.9659
1541.00,2.9411
1540.00,2.9275
1539.00,2.9194
1538.00,2.9043
1537.00,2.8854
1536.00,2.8703
1535.00,2.8546
1534.00,2.8332
1533.00,2.8079
1532.00,2.7798
1531.00,2.7515
1530.00,2.7269
1529.00,2.7042
1528.00,2.6795
1527.00,2.6517
1526.00,2.6239
1525.00,2.6001
1524.00,2.5800
1523.00,2.5612
1522.00,2.5423
1521.00,2.5230
1520.00,2.5018
1519.00,2.4819
1518.00,2.4714
1517.00,2.4709
1516.00,2.4732
1515.00,2.4724
1514.00,2.4706
1513.00,2.4739
1512.00,2.4823
1511.00,2.4917
1510.00,2.4979
1509.00,2.5007
1508.00,2.5063
1507.00,2.5270
1506.00,2.5681
1505.00,2.6149
1504.00,2.6572
1503.00,2.6990
1502.00,2.7399
1501.00,2.7774
1500.00,2.8113
1499.00,2.8411
1498.00,2.8672
1497.00,2.8938
1496.00,2.9266
1495.00,2.9667
1494.00,3.0087
1493.00,3.0471
1492.00,3.0790
1491.00,3.1041
1490.00,3.1255
1489.00,3.1479
1488.00,3.1761
1487.00,3.2131
1486.00,3.2530
1485.00,3.2859
1484.00,3.3084
1483.00,3.3245
1482.00,3.3428
1481.00,3.3670
1480.00,3.3933
1479.00,3.4158
1478.00,3.4296
1477.00,3.4328
1476.00,3.4293
1475.00,3.4284
1474.00,3.4386
1473.00,3.4647
1472.00,3.5007
1471.00,3.5352
1470.00,3.5652
1469.00,3.5923
1468.00,3.6109
1467.00,3.6173
1466.00,3.6176
1465.00,3.6208
1464.00,3.6242
1463.00,3.6197
1462.00,3.6117
1461.00,3.6104
1460.00,3.6221
1459.00,3.6485
1458.00,3.6923
1457.00,3.7466
1456.00,3.7882
1455.00,3.8063
1454.00,3.8113
1453.00,3.8256
1452.00,3.8521
1451.00,3.8700
1450.00,3.8638
1449.00,3.8399
1448.00,3.8153
1447.00,3.8084
1446.00,3.8284
1445.00,3.8695
1444.00,3.9078
1443.00,3.9197
1442.00,3.9035
1441.00,3.8792
1440.00,3.8646
1439.00,3.8613
1438.00,3.8656
1437.00,3.8713
1436.00,3.8609
1435.00,3.8191
1434.00,3.7686
1433.00,3.7346
1432.00,3.7151
1431.00,3.6988
1430.00,3.6907
1429.00,3.7095
1428.00,3.7597
1427.00,3.8180
1426.00,3.8491
1425.00,3.8407
1424.00,3.8083
1423.00,3.7747
1422.00,3.7542
1421.00,3.7510
1420.00,3.7676
1419.00,3.8051
1418.00,3.8527
1417.00,3.8865
1416.00,3.8870
1415.00,3.8622
1414.00,3.8371
1413.00,3.8248
1412.00,3.8181
1411.00,3.8032
1410.00,3.7801
1409.00,3.7583
1408.00,3.7433
1407.00,3.7360
1406.00,3.7310
1405.00,3.7168
1404.00,3.6851
1403.00,3.6429
1402.00,3.6067
1401.00,3.5879
1400.00,3.5847
1399.00,3.5824
1398.00,3.5693
1397.00,3.5475
1396.00,3.5275
1395.00,3.5141
1394.00,3.5028
1393.00,3.4889
1392.00,3.4747
1391.00,3.4639
1390.00,3.4554
1389.00,3.4452
1388.00,3.4306
1387.00,3.4128
1386.00,3.3951
1385.00,3.3826
1384.00,3.3819
1383.00,3.4018
1382.00,3.4487
1381.00,3.5215
1380.00,3.6110
1379.00,3.7061
1378.00,3.8038
1377.00,3.9035
1376.00,3.9869
1375.00,4.0262
1374.00,4.0041
1373.00,3.9228
1372.00,3.8126
1371.00,3.7073
1370.00,3.6229
1369.00,3.5573
1368.00,3.4971
1367.00,3.4319
1366.00,3.3627
1365.00,3.2948
1364.00,3.2317
1363.00,3.1751
1362.00,3.1262
1361.00,3.0821
1360.00,3.0384
1359.00,2.9932
1358.00,2.9484
1357.00,2.9068
1356.00,2.8696
1355.00,2.8376
1354.00,2.8133
1353.00,2.8014
1352.00,2.8052
1351.00,2.8241
1350.00,2.8518
1349.00,2.8763
1348.00,2.8853
1347.00,2.8763
1346.00,2.8599
1345.00,2.8505
1344.00,2.8558
1343.00,2.8733
1342.00,2.8945
1341.00,2.9111
1340.00,2.9192
1339.00,2.9202
1338.00,2.9182
1337.00,2.9178
1336.00,2.9216
1335.00,2.9308
1334.00,2.9467
1333.00,2.9703
1332.00,3.0015
1331.00,3.0377
1330.00,3.0757
1329.00,3.1137
1328.00,3.1519
1327.00,3.1910
1326.00,3.2300
1325.00,3.2662
1324.00,3.2972
1323.00,3.3239
1322.00,3.3510
1321.00,3.3827
1320.00,3.4160
1319.00,3.4423
1318.00,3.4574
1317.00,3.4687
1316.00,3.4859
1315.00,3.5105
1314.00,3.5359
1313.00,3.5556
1312.00,3.5662
1311.00,3.5651
1310.00,3.5525
1309.00,3.5367
1308.00,3.5286
1307.00,3.5311
1306.00,3.5374
1305.00,3.5386
1304.00,3.5341
1303.00,3.5326
1302.00,3.5424
1301.00,3.5644
1300.00,3.5910
1299.00,3.6092
1298.00,3.6141
1297.00,3.6147
1296.00,3.6223
1295.00,3.6388
1294.00,3.6606
1293.00,3.6855
1292.00,3.7168
1291.00,3.7528
1290.00,3.7780
1289.00,3.7750
1288.00,3.7522
1287.00,3.7372
1286.00,3.7445
1285.00,3.7635
1284.00,3.7696
1283.00,3.7486
1282.00,3.7131
1281.00,3.6925
1280.00,3.6931
1279.00,3.6941
1278.00,3.6838
1277.00,3.6765
1276.00,3.6847
1275.00,3.6992
1274.00,3.6987
1273.00,3.6767
1272.00,3.6458
1271.00,3.6171
1270.00,3.5926
1269.00,3.5743
1268.00,3.5684
1267.00,3.5771
1266.00,3.5929
1265.00,3.6075
1264.00,3.6202
1263.00,3.6305
1262.00,3.6320
1261.00,3.6182
1260.00,3.5910
1259.00,3.5579
1258.00,3.5258
1257.00,3.5016
1256.00,3.4873
1255.00,3.4758
1254.00,3.4563
1253.00,3.4247
1252.00,3.3890
1251.00,3.3602
1250.00,3.3399
1249.00,3.3210
1248.00,3.2975
1247.00,3.2687
1246.00,3.2334
1245.00,3.1914
1244.00,3.1477
1243.00,3.1086
1242.00,3.0732
1241.00,3.0339
1240.00,2.9862
1239.00,2.9341
1238.00,2.8838
1237.00,2.8369
1236.00,2.7917
1235.00,2.7486
1234.00,2.7117
1233.00,2.6859
1232.00,2.6742
1231.00,2.6788
1230.00,2.7010
1229.00,2.7415
1228.00,2.7982
1227.00,2.8646
1226.00,2.9296
1225.00,2.9797
1224.00,3.0033
1223.00,2.9936
1222.00,2.9521
1221.00,2.8896
1220.00,2.8219
1219.00,2.7611
1218.00,2.7131
1217.00,2.6800
1216.00,2.6635
1215.00,2.6658
1214.00,2.6866
1213.00,2.7215
1212.00,2.7640
1211.00,2.8095
1210.00,2.8576
1209.00,2.9094
1208.00,2.9648
1207.00,3.0231
1206.00,3.0832
1205.00,3.1437
1204.00,3.2050
1203.00,3.2693
1202.00,3.3340
1201.00,3.3878
1200.00,3.4194
1199.00,3.4318
1198.00,3.4405
1197.00,3.4564
1196.00,3.4765
1195.00,3.4902
1194.00,3.4922
1193.00,3.4909
1192.00,3.5016
1191.00,3.5359
1190.00,3.5944
1189.00,3.6632
1188.00,3.7203
1187.00,3.7557
1186.00,3.7804
1185.00,3.8078
1184.00,3.8385
1183.00,3.8647
1182.00,3.8865
1181.00,3.9053
1180.00,3.9097
1179.00,3.8962
1178.00,3.8885
1177.00,3.9178
1176.00,3.9892
1175.00,4.0630
1174.00,4.0862
1173.00,4.0718
1172.00,4.0615
1171.00,4.0700
1170.00,4.0868
1169.00,4.0864
1168.00,4.0718
1167.00,4.0862
1166.00,4.1575
1165.00,4.2301
1164.00,4.1598
1163.00,4.0055
1162.00,3.9147
1161.00,3.9246
1160.00,4.0209
1159.00,4.1392
1158.00,4.1551
1157.00,4.0455
1156.00,3.9190
1155.00,3.8309
1154.00,3.7833
1153.00,3.7637
1152.00,3.7633
1151.00,3.7845
1150.00,3.8461
1149.00,3.9718
1148.00,4.1726
1147.00,4.3981
1146.00,4.3763
1145.00,4.2191
1144.00,4.1700
1143.00,4.2971
1142.00,4.5122
1141.00,4.5155
1140.00,4.6195
1139.00,4.2627
1138.00,3.9585
1137.00,3.8517
1136.00,3.8635
1135.00,3.9448
1134.00,4.0302
1133.00,4.0652
1132.00,4.0608
1131.00,4.0606
1130.00,4.0843
1129.00,4.1186
1128.00,4.1228
1127.00,4.0801
1126.00,4.0189
1125.00,3.9695
1124.00,3.9496
1123.00,3.9562
1122.00,3.9561
1121.00,3.9085
1120.00,3.8211
1119.00,3.7406
1118.00,3.7008
1117.00,3.7111
1116.00,3.7622
1115.00,3.8144
1114.00,3.8014
1113.00,3.7132
1112.00,3.6154
1111.00,3.5559
1110.00,3.5355
1109.00,3.5256
1108.00,3.5012
1107.00,3.4655
1106.00,3.4303
1105.00,3.3899
1104.00,3.3338
1103.00,3.2692
1102.00,3.2110
1101.00,3.1657
1100.00,3.1309
1099.00,3.1023
1098.00,3.0777
1097.00,3.0556
1096.00,3.0362
1095.00,3.0244
1094.00,3.0283
1093.00,3.0527
1092.00,3.0958
1091.00,3.1478
1090.00,3.1952
1089.00,3.2298
1088.00,3.2558
1087.00,3.2840
1086.00,3.3230
1085.00,3.3724
1084.00,3.4233
1083.00,3.4692
1082.00,3.5090
1081.00,3.5393
1080.00,3.5601
1079.00,3.5884
1078.00,3.6508
1077.00,3.7614
1076.00,3.9094
1075.00,4.0659
1074.00,4.1524
1073.00,4.1217
1072.00,4.0527
1071.00,3.9663
1070.00,3.8875
1069.00,3.8577
1068.00,3.8926
1067.00,3.9789
1066.00,4.0779
1065.00,4.1382
1064.00,4.0870
1063.00,3.9612
1062.00,3.8809
1061.00,3.8809
1060.00,3.9462
1059.00,4.0306
1058.00,4.0508
1057.00,3.9764
1056.00,3.8950
1055.00,3.8835
1054.00,3.9532
1053.00,4.0498
1052.00,4.0683
1051.00,4.0336
1050.00,4.0559
1049.00,4.1710
1048.00,4.3734
1047.00,4.5047
1046.00,4.3457
1045.00,4.1872
1044.00,4.1341
1043.00,4.1634
1042.00,4.1974
1041.00,4.1721
1040.00,4.1278
1039.00,4.1005
1038.00,4.1157
1037.00,4.1635
1036.00,4.2139
1035.00,4.2686
1034.00,4.2854
1033.00,4.2965
1032.00,4.4236
1031.00,4.6669
1030.00,4.7243
1029.00,4.5739
1028.00,4.5254
1027.00,4.5884
1026.00,4.8486
1025.00,4.7911
1024.00,4.3689
1023.00,4.2319
1022.00,4.2774
1021.00,4.3847
1020.00,4.2811
1019.00,4.0404
1018.00,3.8862
1017.00,3.8666
1016.00,3.9867
1015.00,4.2293
1014.00,4.4316
1013.00,4.2299
1012.00,4.0680
1011.00,4.0493
1010.00,4.2384
1009.00,4.7807
1008.00,4.3500
1007.00,4.0914
1006.00,4.0621
1005.00,4.1481
1004.00,4.2735
1003.00,4.2744
1002.00,4.2807
1001.00,4.3402
1000.00,4.3905
999.00,4.3638
998.00,4.3176
997.00,4.3473
996.00,4.4414
995.00,4.4067
994.00,4.2119
993.00,4.0424
992.00,3.9388
991.00,3.8995
990.00,3.9232
989.00,4.0002
988.00,4.1012
987.00,4.1722
986.00,4.2044
985.00,4.2546
984.00,4.3884
983.00,4.5117
982.00,4.3942
981.00,4.2663
980.00,4.2329
979.00,4.2715
978.00,4.3070
977.00,4.2749
976.00,4.1711
975.00,4.0065
974.00,3.8863
973.00,3.8590
972.00,3.9257
971.00,4.0857
970.00,4.3011
969.00,4.5224
968.00,4.6473
967.00,4.5231
966.00,4.4747
965.00,4.5153
964.00,4.4514
963.00,4.3291
962.00,4.2391
961.00,4.2339
960.00,4.3670
959.00,4.6715
958.00,4.8491
957.00,4.4216
956.00,4.0378
955.00,3.8167
954.00,3.7211
953.00,3.7250
952.00,3.7949
951.00,3.8985
950.00,4.0362
949.00,4.1180
948.00,4.0948
947.00,4.1180
946.00,4.1750
945.00,4.2148
944.00,4.2614
943.00,4.3733
942.00,4.6055
941.00,4.7200
940.00,4.5928
939.00,4.4286
938.00,4.3302
937.00,4.3127
936.00,4.3011
935.00,4.2744
934.00,4.2447
933.00,4.2222
932.00,4.2196
931.00,4.2204
930.00,4.2836
929.00,4.4351
928.00,4.5256
927.00,4.5140
926.00,4.4700
925.00,4.4355
924.00,4.4241
923.00,4.4461
922.00,4.4714
921.00,4.6346
920.00,4.7867
919.00,4.4215
918.00,4.2242
917.00,4.1728
916.00,4.2196
915.00,4.3361
914.00,4.3656
913.00,4.3359
912.00,4.3741
911.00,4.4008
910.00,4.3084
909.00,4.1833
908.00,4.0618
907.00,4.0094
906.00,4.0107
905.00,4.0346
904.00,4.0876
903.00,4.3131
902.00,4.8963
901.00,4.5425
900.00,4.2363
899.00,4.1268
898.00,4.1570
897.00,4.3500
896.00,4.5452
895.00,4.5874
894.00,4.3514
893.00,4.1170
892.00,3.9788
891.00,3.9031
890.00,3.8743
889.00,3.8670
888.00,3.8575
887.00,3.8421
886.00,3.8152
885.00,3.7897
884.00,3.7994
883.00,3.8669
882.00,3.9714
881.00,4.0615
880.00,4.0662
879.00,3.9660
878.00,3.8995
877.00,3.9395
876.00,4.0856
875.00,4.2173
874.00,4.1520
873.00,4.1295
872.00,4.1562
871.00,4.0080
870.00,3.8671
869.00,3.8326
868.00,3.8785
867.00,3.9261
866.00,3.9618
865.00,4.0264
864.00,4.2898
863.00,4.8738
862.00,4.4070
861.00,4.2899
860.00,4.4209
859.00,4.5751
858.00,4.8170
857.00,4.7681
856.00,4.6316
855.00,4.5987
854.00,4.6292
853.00,4.5493
852.00,4.3772
851.00,4.1518
850.00,3.9675
849.00,3.8783
848.00,3.8686
847.00,3.9000
846.00,3.9327
845.00,3.9279
844.00,3.8671
843.00,3.8023
842.00,3.7913
841.00,3.8463
840.00,3.9507
839.00,4.0739
838.00,4.1859
837.00,4.2575
836.00,4.2911
835.00,4.2778
834.00,4.1883
833.00,4.0842
832.00,3.9940
831.00,3.9051
830.00,3.8345
829.00,3.8132
828.00,3.8481
827.00,3.9039
826.00,3.9304
825.00,3.8960
824.00,3.8102
823.00,3.7316
822.00,3.6840
821.00,3.6783
820.00,3.7328
819.00,3.8985
818.00,4.1245
817.00,4.1459
816.00,4.1524
815.00,4.3975
814.00,4.7742
813.00,4.4388
812.00,4.1429
811.00,3.9721
810.00,3.9052
809.00,3.9607
808.00,4.0646
807.00,4.0686
806.00,3.9451
805.00,3.8482
804.00,3.8338
803.00,3.8627
802.00,3.8522
801.00,3.8390
800.00,3.9007
799.00,4.0959
798.00,4.4311
797.00,4.3869
796.00,4.1539
795.00,4.0620
794.00,4.0514
793.00,4.1085
792.00,4.2002
791.00,4.3280
790.00,4.4267
789.00,4.2485
788.00,4.0337
787.00,3.9073
786.00,3.8622
785.00,3.9112
784.00,4.0305
783.00,4.1221
782.00,4.1061
781.00,4.0354
780.00,3.9652
779.00,3.9239
778.00,3.9016
777.00,3.8657
776.00,3.8211
775.00,3.8010
774.00,3.8302
773.00,3.8991
772.00,3.9613
771.00,3.9919
770.00,3.9989
769.00,3.9900
768.00,3.9957
767.00,4.0684
766.00,4.2489
765.00,4.3901
764.00,4.2588
763.00,4.1024
762.00,4.0970
761.00,4.1641
760.00,4.0783
759.00,4.0973
758.00,4.4605
757.00,4.4373
756.00,4.1429
755.00,4.1707
754.00,4.4163
753.00,4.6315
752.00,4.2848
751.00,3.9847
750.00,3.8524
749.00,3.8424
748.00,3.9141
747.00,3.9834
746.00,4.0013
745.00,3.9590
744.00,3.8827
743.00,3.8194
742.00,3.7861
741.00,3.7934
740.00,3.8723
739.00,4.0773
738.00,4.2847
737.00,4.2230
736.00,4.1840
735.00,4.1821
734.00,4.1013
733.00,3.9688
732.00,3.8567
731.00,3.8084
730.00,3.8356
729.00,3.9474
728.00,4.1628
727.00,4.3944
726.00,4.1907
725.00,3.9030
724.00,3.7778
723.00,3.7987
722.00,3.9430
721.00,4.1419
720.00,4.1738
719.00,4.0593
718.00,4.0478
717.00,4.1368
716.00,4.0923
715.00,3.9160
714.00,3.7720
713.00,3.6953
712.00,3.7059
711.00,3.8414
710.00,4.0992
709.00,4.2713
708.00,4.2486
707.00,4.1638
706.00,4.1120
705.00,4.1233
704.00,4.0673
703.00,3.9258
702.00,3.8114
701.00,3.7636
700.00,3.7560
