Created as New Dataset,Sample 018 By Administrator Date Wednesday, November 24 2021
cm-1,A
7502.00,0.8133
7501.00,0.8070
7500.00,0.8007
7499.00,0.7945
7498.00,0.7883
7497.00,0.7823
7496.00,0.7764
7495.00,0.7705
7494.00,0.7647
7493.00,0.7582
7492.00,0.7511
7491.00,0.7441
7490.00,0.7374
7489.00,0.7302
7488.00,0.7223
7487.00,0.7139
7486.00,0.7059
7485.00,0.6987
7484.00,0.6920
7483.00,0.6851
7482.00,0.6781
7481.00,0.6711
7480.00,0.6643
7479.00,0.6575
7478.00,0.6506
7477.00,0.6434
7476.00,0.6358
7475.00,0.6277
7474.00,0.6199
7473.00,0.6127
7472.00,0.6058
7471.00,0.5988
7470.00,0.5916
7469.00,0.5846
7468.00,0.5780
7467.00,0.5718
7466.00,0.5657
7465.00,0.5596
7464.00,0.5539
7463.00,0.5487
7462.00,0.5444
7461.00,0.5410
7460.00,0.5382
7459.00,0.5358
7458.00,0.5337
7457.00,0.5320
7456.00,0.5308
7455.00,0.5298
7454.00,0.5286
7453.00,0.5275
7452.00,0.5271
7451.00,0.5275
7450.00,0.5285
7449.00,0.5298
7448.00,0.5313
7447.00,0.5334
7446.00,0.5364
7445.00,0.5400
7444.00,0.5438
7443.00,0.5476
7442.00,0.5518
7441.00,0.5567
7440.00,0.5623
7439.00,0.5680
7438.00,0.5740
7437.00,0.5804
7436.00,0.5874
7435.00,0.5949
7434.00,0.6027
7433.00,0.6109
7432.00,0.6195
7431.00,0.6282
7430.00,0.6369
7429.00,0.6458
7428.00,0.6552
7427.00,0.6650
7426.00,0.6750
7425.00,0.6849
7424.00,0.6944
7423.00,0.7038
7422.00,0.7131
7421.00,0.7226
7420.00,0.7322
7419.00,0.7419
7418.00,0.7518
7417.00,0.7619
7416.00,0.7719
7415.00,0.7814
7414.00,0.7904
7413.00,0.7990
7412.00,0.8074
7411.00,0.8156
7410.00,0.8239
7409.00,0.8325
7408.00,0.8412
7407.00,0.8500
7406.00,0.8586
7405.00,0.8666
7404.00,0.8738
7403.00,0.8799
7402.00,0.8851
7401.00,0.8900
7400.00,0.8949
7399.00,0.8999
7398.00,0.9046
7397.00,0.9091
7396.00,0.9134
7395.00,0.9174
7394.00,0.9209
7393.00,0.9237
7392.00,0.9258
7391.00,0.9276
7390.00,0.9295
7389.00,0.9314
7388.00,0.9331
7387.00,0.9345
7386.00,0.9356
7385.00,0.9362
7384.00,0.9359
7383.00,0.9349
7382.00,0.9335
7381.00,0.9326
7380.00,0.9320
7379.00,0.9316
7378.00,0.9308
7377.00,0.9293
7376.00,0.9270
7375.00,0.9239
7374.00,0.9193
7373.00,0.9132
7372.00,0.9060
7371.00,0.8986
7370.00,0.8916
7369.00,0.8851
7368.00,0.8784
7367.00,0.8714
7366.00,0.8643
7365.00,0.8578
7364.00,0.8523
7363.00,0.8476
7362.00,0.8432
7361.00,0.8385
7360.00,0.8332
7359.00,0.8276
7358.00,0.8220
7357.00,0.8166
7356.00,0.8114
7355.00,0.8063
7354.00,0.8015
7353.00,0.7973
7352.00,0.7934
7351.00,0.7890
7350.00,0.7835
7349.00,0.7767
7348.00,0.7687
7347.00,0.7595
7346.00,0.7498
7345.00,0.7406
7344.00,0.7327
7343.00,0.7260
7342.00,0.7199
7341.00,0.7141
7340.00,0.7083
7339.00,0.7023
7338.00,0.6959
7337.00,0.6890
7336.00,0.6821
7335.00,0.6756
7334.00,0.6694
7333.00,0.6635
7332.00,0.6577
7331.00,0.6522
7330.00,0.6473
7329.00,0.6430
7328.00,0.6390
7327.00,0.6351
7326.00,0.6313
7325.00,0.6279
7324.00,0.6251
7323.00,0.6226
7322.00,0.6202
7321.00,0.6180
7320.00,0.6162
7319.00,0.6151
7318.00,0.6146
7317.00,0.6147
7316.00,0.6153
7315.00,0.6164
7314.00,0.6181
7313.00,0.6203
7312.00,0.6226
7311.00,0.6251
7310.00,0.6278
7309.00,0.6310
7308.00,0.6349
7307.00,0.6392
7306.00,0.6438
7305.00,0.6485
7304.00,0.6537
7303.00,0.6596
7302.00,0.6663
7301.00,0.6735
7300.00,0.6809
7299.00,0.6882
7298.00,0.6958
7297.00,0.7040
7296.00,0.7128
7295.00,0.7218
7294.00,0.7309
7293.00,0.7401
7292.00,0.7493
7291.00,0.7585
7290.00,0.7679
7289.00,0.7774
7288.00,0.7871
7287.00,0.7967
7286.00,0.8063
7285.00,0.8163
7284.00,0.8269
7283.00,0.8376
7282.00,0.8482
7281.00,0.8585
7280.00,0.8684
7279.00,0.8782
7278.00,0.8878
7277.00,0.8974
7276.00,0.9065
7275.00,0.9154
7274.00,0.9241
7273.00,0.9329
7272.00,0.9418
7271.00,0.9506
7270.00,0.9594
7269.00,0.9681
7268.00,0.9766
7267.00,0.9845
7266.00,0.9918
7265.00,0.9985
7264.00,1.0047
7263.00,1.0102
7262.00,1.0153
7261.00,1.0206
7260.00,1.0262
7259.00,1.0319
7258.00,1.0372
7257.00,1.0418
7256.00,1.0460
7255.00,1.0497
7254.00,1.0527
7253.00,1.0548
7252.00,1.0560
7251.00,1.0569
7250.00,1.0578
7249.00,1.0589
7248.00,1.0601
7247.00,1.0610
7246.00,1.0613
7245.00,1.0610
7244.00,1.0605
7243.00,1.0597
7242.00,1.0585
7241.00,1.0567
7240.00,1.0544
7239.00,1.0522
7238.00,1.0504
7237.00,1.0489
7236.00,1.0467
7235.00,1.0434
7234.00,1.0389
7233.00,1.0336
7232.00,1.0282
7231.00,1.0224
7230.00,1.0164
7229.00,1.0104
7228.00,1.0048
7227.00,0.9995
7226.00,0.9943
7225.00,0.9886
7224.00,0.9819
7223.00,0.9744
7222.00,0.9664
7221.00,0.9586
7220.00,0.9512
7219.00,0.9437
7218.00,0.9356
7217.00,0.9272
7216.00,0.9188
7215.00,0.9108
7214.00,0.9026
7213.00,0.8938
7212.00,0.8844
7211.00,0.8751
7210.00,0.8663
7209.00,0.8578
7208.00,0.8493
7207.00,0.8406
7206.00,0.8320
7205.00,0.8236
7204.00,0.8150
7203.00,0.8061
7202.00,0.7970
7201.00,0.7884
7200.00,0.7805
7199.00,0.7729
7198.00,0.7656
7197.00,0.7585
7196.00,0.7518
7195.00,0.7453
7194.00,0.7390
7193.00,0.7330
7192.00,0.7272
7191.00,0.7219
7190.00,0.7170
7189.00,0.7124
7188.00,0.7084
7187.00,0.7048
7186.00,0.7017
7185.00,0.6989
7184.00,0.6964
7183.00,0.6943
7182.00,0.6927
7181.00,0.6917
7180.00,0.6910
7179.00,0.6906
7178.00,0.6909
7177.00,0.6922
7176.00,0.6943
7175.00,0.6970
7174.00,0.6998
7173.00,0.7030
7172.00,0.7067
7171.00,0.7110
7170.00,0.7158
7169.00,0.7208
7168.00,0.7262
7167.00,0.7318
7166.00,0.7378
7165.00,0.7443
7164.00,0.7513
7163.00,0.7589
7162.00,0.7670
7161.00,0.7755
7160.00,0.7843
7159.00,0.7935
7158.00,0.8028
7157.00,0.8123
7156.00,0.8219
7155.00,0.8316
7154.00,0.8415
7153.00,0.8514
7152.00,0.8611
7151.00,0.8709
7150.00,0.8808
7149.00,0.8907
7148.00,0.9003
7147.00,0.9096
7146.00,0.9187
7145.00,0.9278
7144.00,0.9369
7143.00,0.9458
7142.00,0.9549
7141.00,0.9641
7140.00,0.9734
7139.00,0.9822
7138.00,0.9904
7137.00,0.9979
7136.00,1.0052
7135.00,1.0127
7134.00,1.0203
7133.00,1.0279
7132.00,1.0350
7131.00,1.0417
7130.00,1.0480
7129.00,1.0539
7128.00,1.0592
7127.00,1.0639
7126.00,1.0679
7125.00,1.0717
7124.00,1.0754
7123.00,1.0789
7122.00,1.0824
7121.00,1.0855
7120.00,1.0884
7119.00,1.0912
7118.00,1.0934
7117.00,1.0947
7116.00,1.0950
7115.00,1.0945
7114.00,1.0937
7113.00,1.0924
7112.00,1.0908
7111.00,1.0895
7110.00,1.0886
7109.00,1.0879
7108.00,1.0867
7107.00,1.0849
7106.00,1.0829
7105.00,1.0809
7104.00,1.0784
7103.00,1.0752
7102.00,1.0716
7101.00,1.0682
7100.00,1.0647
7099.00,1.0606
7098.00,1.0557
7097.00,1.0504
7096.00,1.0450
7095.00,1.0395
7094.00,1.0338
7093.00,1.0278
7092.00,1.0217
7091.00,1.0155
7090.00,1.0090
7089.00,1.0021
7088.00,0.9946
7087.00,0.9865
7086.00,0.9780
7085.00,0.9694
7084.00,0.9608
7083.00,0.9521
7082.00,0.9436
7081.00,0.9351
7080.00,0.9267
7079.00,0.9181
7078.00,0.9092
7077.00,0.9002
7076.00,0.8911
7075.00,0.8819
7074.00,0.8725
7073.00,0.8632
7072.00,0.8542
7071.00,0.8455
7070.00,0.8371
7069.00,0.8288
7068.00,0.8207
7067.00,0.8126
7066.00,0.8047
7065.00,0.7969
7064.00,0.7892
7063.00,0.7818
7062.00,0.7748
7061.00,0.7681
7060.00,0.7616
7059.00,0.7553
7058.00,0.7494
7057.00,0.7439
7056.00,0.7387
7055.00,0.7336
7054.00,0.7287
7053.00,0.7244
7052.00,0.7206
7051.00,0.7173
7050.00,0.7145
7049.00,0.7123
7048.00,0.7106
7047.00,0.7094
7046.00,0.7088
7045.00,0.7089
7044.00,0.7095
7043.00,0.7104
7042.00,0.7116
7041.00,0.7131
7040.00,0.7151
7039.00,0.7175
7038.00,0.7205
7037.00,0.7239
7036.00,0.7280
7035.00,0.7325
7034.00,0.7376
7033.00,0.7432
7032.00,0.7493
7031.00,0.7557
7030.00,0.7625
7029.00,0.7698
7028.00,0.7775
7027.00,0.7856
7026.00,0.7942
7025.00,0.8029
7024.00,0.8118
7023.00,0.8207
7022.00,0.8298
7021.00,0.8392
7020.00,0.8490
7019.00,0.8589
7018.00,0.8688
7017.00,0.8789
7016.00,0.8892
7015.00,0.8996
7014.00,0.9101
7013.00,0.9204
7012.00,0.9305
7011.00,0.9406
7010.00,0.9507
7009.00,0.9607
7008.00,0.9706
7007.00,0.9802
7006.00,0.9895
7005.00,0.9986
7004.00,1.0076
7003.00,1.0164
7002.00,1.0250
7001.00,1.0336
7000.00,1.0420
6999.00,1.0502
6998.00,1.0578
6997.00,1.0649
6996.00,1.0716
6995.00,1.0782
6994.00,1.0849
6993.00,1.0916
6992.00,1.0978
6991.00,1.1035
6990.00,1.1087
6989.00,1.1135
6988.00,1.1180
6987.00,1.1219
6986.00,1.1253
6985.00,1.1283
6984.00,1.1311
6983.00,1.1338
6982.00,1.1365
6981.00,1.1388
6980.00,1.1406
6979.00,1.1420
6978.00,1.1434
6977.00,1.1449
6976.00,1.1461
6975.00,1.1461
6974.00,1.1450
6973.00,1.1435
6972.00,1.1421
6971.00,1.1406
6970.00,1.1389
6969.00,1.1368
6968.00,1.1345
6967.00,1.1319
6966.00,1.1290
6965.00,1.1256
6964.00,1.1218
6963.00,1.1175
6962.00,1.1128
6961.00,1.1079
6960.00,1.1029
6959.00,1.0976
6958.00,1.0916
6957.00,1.0852
6956.00,1.0787
6955.00,1.0723
6954.00,1.0656
6953.00,1.0582
6952.00,1.0502
6951.00,1.0422
6950.00,1.0345
6949.00,1.0265
6948.00,1.0180
6947.00,1.0091
6946.00,1.0000
6945.00,0.9910
6944.00,0.9819
6943.00,0.9725
6942.00,0.9628
6941.00,0.9532
6940.00,0.9437
6939.00,0.9343
6938.00,0.9250
6937.00,0.9155
6936.00,0.9058
6935.00,0.8961
6934.00,0.8867
6933.00,0.8775
6932.00,0.8687
6931.00,0.8600
6930.00,0.8515
6929.00,0.8431
6928.00,0.8346
6927.00,0.8265
6926.00,0.8186
6925.00,0.8111
6924.00,0.8039
6923.00,0.7968
6922.00,0.7902
6921.00,0.7840
6920.00,0.7783
6919.00,0.7730
6918.00,0.7680
6917.00,0.7635
6916.00,0.7594
6915.00,0.7557
6914.00,0.7527
6913.00,0.7503
6912.00,0.7483
6911.00,0.7467
6910.00,0.7456
6909.00,0.7452
6908.00,0.7455
6907.00,0.7461
6906.00,0.7470
6905.00,0.7486
6904.00,0.7511
6903.00,0.7541
6902.00,0.7575
6901.00,0.7612
6900.00,0.7655
6899.00,0.7704
6898.00,0.7759
6897.00,0.7816
6896.00,0.7876
6895.00,0.7941
6894.00,0.8010
6893.00,0.8085
6892.00,0.8165
6891.00,0.8250
6890.00,0.8339
6889.00,0.8430
6888.00,0.8523
6887.00,0.8616
6886.00,0.8710
6885.00,0.8803
6884.00,0.8897
6883.00,0.8992
6882.00,0.9091
6881.00,0.9192
6880.00,0.9295
6879.00,0.9399
6878.00,0.9505
6877.00,0.9609
6876.00,0.9711
6875.00,0.9811
6874.00,0.9911
6873.00,1.0011
6872.00,1.0108
6871.00,1.0201
6870.00,1.0292
6869.00,1.0382
6868.00,1.0467
6867.00,1.0548
6866.00,1.0624
6865.00,1.0698
6864.00,1.0768
6863.00,1.0835
6862.00,1.0902
6861.00,1.0969
6860.00,1.1034
6859.00,1.1094
6858.00,1.1152
6857.00,1.1208
6856.00,1.1261
6855.00,1.1308
6854.00,1.1351
6853.00,1.1391
6852.00,1.1429
6851.00,1.1462
6850.00,1.1488
6849.00,1.1507
6848.00,1.1521
6847.00,1.1530
6846.00,1.1535
6845.00,1.1538
6844.00,1.1544
6843.00,1.1553
6842.00,1.1561
6841.00,1.1562
6840.00,1.1558
6839.00,1.1550
6838.00,1.1537
6837.00,1.1517
6836.00,1.1487
6835.00,1.1452
6834.00,1.1417
6833.00,1.1383
6832.00,1.1348
6831.00,1.1309
6830.00,1.1263
6829.00,1.1211
6828.00,1.1155
6827.00,1.1098
6826.00,1.1038
6825.00,1.0975
6824.00,1.0910
6823.00,1.0845
6822.00,1.0778
6821.00,1.0707
6820.00,1.0630
6819.00,1.0549
6818.00,1.0468
6817.00,1.0386
6816.00,1.0300
6815.00,1.0209
6814.00,1.0117
6813.00,1.0025
6812.00,0.9932
6811.00,0.9839
6810.00,0.9745
6809.00,0.9652
6808.00,0.9560
6807.00,0.9465
6806.00,0.9368
6805.00,0.9270
6804.00,0.9171
6803.00,0.9070
6802.00,0.8970
6801.00,0.8872
6800.00,0.8776
6799.00,0.8683
6798.00,0.8594
6797.00,0.8507
6796.00,0.8422
6795.00,0.8340
6794.00,0.8260
6793.00,0.8182
6792.00,0.8106
6791.00,0.8029
6790.00,0.7956
6789.00,0.7886
6788.00,0.7821
6787.00,0.7758
6786.00,0.7699
6785.00,0.7645
6784.00,0.7597
6783.00,0.7553
6782.00,0.7512
6781.00,0.7475
6780.00,0.7443
6779.00,0.7415
6778.00,0.7392
6777.00,0.7374
6776.00,0.7362
6775.00,0.7356
6774.00,0.7356
6773.00,0.7360
6772.00,0.7368
6771.00,0.7381
6770.00,0.7399
6769.00,0.7422
6768.00,0.7449
6767.00,0.7483
6766.00,0.7524
6765.00,0.7571
6764.00,0.7622
6763.00,0.7674
6762.00,0.7730
6761.00,0.7791
6760.00,0.7858
6759.00,0.7929
6758.00,0.8004
6757.00,0.8087
6756.00,0.8175
6755.00,0.8266
6754.00,0.8359
6753.00,0.8452
6752.00,0.8547
6751.00,0.8646
6750.00,0.8748
6749.00,0.8853
6748.00,0.8959
6747.00,0.9066
6746.00,0.9174
6745.00,0.9282
6744.00,0.9388
6743.00,0.9494
6742.00,0.9601
6741.00,0.9710
6740.00,0.9818
6739.00,0.9922
6738.00,1.0022
6737.00,1.0120
6736.00,1.0217
6735.00,1.0313
6734.00,1.0407
6733.00,1.0500
6732.00,1.0594
6731.00,1.0686
6730.00,1.0775
6729.00,1.0860
6728.00,1.0942
6727.00,1.1019
6726.00,1.1092
6725.00,1.1164
6724.00,1.1233
6723.00,1.1296
6722.00,1.1356
6721.00,1.1414
6720.00,1.1472
6719.00,1.1525
6718.00,1.1573
6717.00,1.1620
6716.00,1.1665
6715.00,1.1707
6714.00,1.1742
6713.00,1.1771
6712.00,1.1797
6711.00,1.1820
6710.00,1.1839
6709.00,1.1851
6708.00,1.1859
6707.00,1.1865
6706.00,1.1869
6705.00,1.1871
6704.00,1.1872
6703.00,1.1870
6702.00,1.1864
6701.00,1.1852
6700.00,1.1834
6699.00,1.1813
6698.00,1.1788
6697.00,1.1759
6696.00,1.1728
6695.00,1.1697
6694.00,1.1667
6693.00,1.1633
6692.00,1.1595
6691.00,1.1550
6690.00,1.1498
6689.00,1.1440
6688.00,1.1374
6687.00,1.1304
6686.00,1.1233
6685.00,1.1163
6684.00,1.1090
6683.00,1.1015
6682.00,1.0937
6681.00,1.0857
6680.00,1.0772
6679.00,1.0684
6678.00,1.0591
6677.00,1.0498
6676.00,1.0405
6675.00,1.0312
6674.00,1.0217
6673.00,1.0121
6672.00,1.0022
6671.00,0.9921
6670.00,0.9816
6669.00,0.9710
6668.00,0.9604
6667.00,0.9501
6666.00,0.9400
6665.00,0.9299
6664.00,0.9199
6663.00,0.9098
6662.00,0.8997
6661.00,0.8898
6660.00,0.8801
6659.00,0.8707
6658.00,0.8616
6657.00,0.8528
6656.00,0.8442
6655.00,0.8357
6654.00,0.8274
6653.00,0.8194
6652.00,0.8116
6651.00,0.8043
6650.00,0.7975
6649.00,0.7912
6648.00,0.7855
6647.00,0.7802
6646.00,0.7754
6645.00,0.7710
6644.00,0.7671
6643.00,0.7636
6642.00,0.7607
6641.00,0.7585
6640.00,0.7569
6639.00,0.7558
6638.00,0.7553
6637.00,0.7555
6636.00,0.7563
6635.00,0.7576
6634.00,0.7594
6633.00,0.7617
6632.00,0.7645
6631.00,0.7679
6630.00,0.7721
6629.00,0.7769
6628.00,0.7821
6627.00,0.7877
6626.00,0.7937
6625.00,0.8002
6624.00,0.8072
6623.00,0.8144
6622.00,0.8221
6621.00,0.8304
6620.00,0.8394
6619.00,0.8488
6618.00,0.8586
6617.00,0.8686
6616.00,0.8787
6615.00,0.8888
6614.00,0.8990
6613.00,0.9091
6612.00,0.9192
6611.00,0.9295
6610.00,0.9402
6609.00,0.9512
6608.00,0.9624
6607.00,0.9734
6606.00,0.9842
6605.00,0.9949
6604.00,1.0053
6603.00,1.0152
6602.00,1.0248
6601.00,1.0341
6600.00,1.0434
6599.00,1.0529
6598.00,1.0623
6597.00,1.0715
6596.00,1.0800
6595.00,1.0881
6594.00,1.0961
6593.00,1.1041
6592.00,1.1116
6591.00,1.1185
6590.00,1.1249
6589.00,1.1313
6588.00,1.1377
6587.00,1.1437
6586.00,1.1489
6585.00,1.1537
6584.00,1.1583
6583.00,1.1627
6582.00,1.1666
6581.00,1.1699
6580.00,1.1725
6579.00,1.1749
6578.00,1.1772
6577.00,1.1792
6576.00,1.1807
6575.00,1.1819
6574.00,1.1829
6573.00,1.1835
6572.00,1.1835
6571.00,1.1830
6570.00,1.1825
6569.00,1.1817
6568.00,1.1804
6567.00,1.1783
6566.00,1.1758
6565.00,1.1731
6564.00,1.1703
6563.00,1.1670
6562.00,1.1632
6561.00,1.1592
6560.00,1.1548
6559.00,1.1501
6558.00,1.1449
6557.00,1.1394
6556.00,1.1335
6555.00,1.1272
6554.00,1.1205
6553.00,1.1136
6552.00,1.1061
6551.00,1.0984
6550.00,1.0904
6549.00,1.0824
6548.00,1.0743
6547.00,1.0660
6546.00,1.0575
6545.00,1.0488
6544.00,1.0400
6543.00,1.0308
6542.00,1.0213
6541.00,1.0116
6540.00,1.0017
6539.00,0.9917
6538.00,0.9816
6537.00,0.9715
6536.00,0.9613
6535.00,0.9510
6534.00,0.9408
6533.00,0.9307
6532.00,0.9204
6531.00,0.9098
6530.00,0.8994
6529.00,0.8894
6528.00,0.8796
6527.00,0.8700
6526.00,0.8604
6525.00,0.8510
6524.00,0.8419
6523.00,0.8328
6522.00,0.8240
6521.00,0.8156
6520.00,0.8077
6519.00,0.8002
6518.00,0.7931
6517.00,0.7864
6516.00,0.7801
6515.00,0.7740
6514.00,0.7683
6513.00,0.7631
6512.00,0.7582
6511.00,0.7537
6510.00,0.7495
6509.00,0.7458
6508.00,0.7425
6507.00,0.7398
6506.00,0.7378
6505.00,0.7363
6504.00,0.7355
6503.00,0.7354
6502.00,0.7359
6501.00,0.7369
6500.00,0.7384
6499.00,0.7403
6498.00,0.7427
6497.00,0.7457
6496.00,0.7492
6495.00,0.7533
6494.00,0.7580
6493.00,0.7633
6492.00,0.7691
6491.00,0.7753
6490.00,0.7821
6489.00,0.7894
6488.00,0.7972
6487.00,0.8056
6486.00,0.8145
6485.00,0.8240
6484.00,0.8338
6483.00,0.8437
6482.00,0.8535
6481.00,0.8634
6480.00,0.8736
6479.00,0.8841
6478.00,0.8950
6477.00,0.9062
6476.00,0.9174
6475.00,0.9287
6474.00,0.9399
6473.00,0.9509
6472.00,0.9618
6471.00,0.9728
6470.00,0.9838
6469.00,0.9951
6468.00,1.0063
6467.00,1.0174
6466.00,1.0282
6465.00,1.0387
6464.00,1.0487
6463.00,1.0582
6462.00,1.0673
6461.00,1.0764
6460.00,1.0855
6459.00,1.0945
6458.00,1.1031
6457.00,1.1115
6456.00,1.1195
6455.00,1.1270
6454.00,1.1340
6453.00,1.1405
6452.00,1.1468
6451.00,1.1529
6450.00,1.1589
6449.00,1.1646
6448.00,1.1700
6447.00,1.1749
6446.00,1.1793
6445.00,1.1833
6444.00,1.1870
6443.00,1.1905
6442.00,1.1938
6441.00,1.1967
6440.00,1.1991
6439.00,1.2011
6438.00,1.2026
6437.00,1.2035
6436.00,1.2038
6435.00,1.2034
6434.00,1.2026
6433.00,1.2018
6432.00,1.2010
6431.00,1.2001
6430.00,1.1991
6429.00,1.1979
6428.00,1.1963
6427.00,1.1943
6426.00,1.1916
6425.00,1.1881
6424.00,1.1842
6423.00,1.1799
6422.00,1.1755
6421.00,1.1709
6420.00,1.1660
6419.00,1.1608
6418.00,1.1552
6417.00,1.1490
6416.00,1.1422
6415.00,1.1346
6414.00,1.1267
6413.00,1.1184
6412.00,1.1098
6411.00,1.1011
6410.00,1.0923
6409.00,1.0834
6408.00,1.0744
6407.00,1.0649
6406.00,1.0551
6405.00,1.0451
6404.00,1.0349
6403.00,1.0245
6402.00,1.0138
6401.00,1.0031
6400.00,0.9925
6399.00,0.9819
6398.00,0.9711
6397.00,0.9600
6396.00,0.9488
6395.00,0.9376
6394.00,0.9264
6393.00,0.9152
6392.00,0.9041
6391.00,0.8932
6390.00,0.8825
6389.00,0.8722
6388.00,0.8619
6387.00,0.8519
6386.00,0.8422
6385.00,0.8328
6384.00,0.8239
6383.00,0.8153
6382.00,0.8072
6381.00,0.7994
6380.00,0.7919
6379.00,0.7846
6378.00,0.7777
6377.00,0.7713
6376.00,0.7654
6375.00,0.7602
6374.00,0.7556
6373.00,0.7516
6372.00,0.7483
6371.00,0.7454
6370.00,0.7431
6369.00,0.7413
6368.00,0.7400
6367.00,0.7394
6366.00,0.7395
6365.00,0.7403
6364.00,0.7419
6363.00,0.7440
6362.00,0.7467
6361.00,0.7500
6360.00,0.7539
6359.00,0.7583
6358.00,0.7632
6357.00,0.7688
6356.00,0.7750
6355.00,0.7819
6354.00,0.7893
6353.00,0.7972
6352.00,0.8055
6351.00,0.8142
6350.00,0.8233
6349.00,0.8328
6348.00,0.8425
6347.00,0.8523
6346.00,0.8624
6345.00,0.8729
6344.00,0.8836
6343.00,0.8945
6342.00,0.9058
6341.00,0.9173
6340.00,0.9288
6339.00,0.9403
6338.00,0.9519
6337.00,0.9636
6336.00,0.9750
6335.00,0.9861
6334.00,0.9967
6333.00,1.0072
6332.00,1.0176
6331.00,1.0279
6330.00,1.0381
6329.00,1.0485
6328.00,1.0588
6327.00,1.0691
6326.00,1.0790
6325.00,1.0883
6324.00,1.0972
6323.00,1.1056
6322.00,1.1137
6321.00,1.1214
6320.00,1.1284
6319.00,1.1350
6318.00,1.1413
6317.00,1.1473
6316.00,1.1530
6315.00,1.1583
6314.00,1.1632
6313.00,1.1677
6312.00,1.1717
6311.00,1.1752
6310.00,1.1785
6309.00,1.1817
6308.00,1.1845
6307.00,1.1869
6306.00,1.1888
6305.00,1.1904
6304.00,1.1918
6303.00,1.1928
6302.00,1.1936
6301.00,1.1941
6300.00,1.1941
6299.00,1.1935
6298.00,1.1923
6297.00,1.1906
6296.00,1.1883
6295.00,1.1857
6294.00,1.1830
6293.00,1.1802
6292.00,1.1772
6291.00,1.1739
6290.00,1.1703
6289.00,1.1661
6288.00,1.1614
6287.00,1.1561
6286.00,1.1502
6285.00,1.1437
6284.00,1.1368
6283.00,1.1297
6282.00,1.1227
6281.00,1.1156
6280.00,1.1082
6279.00,1.1002
6278.00,1.0918
6277.00,1.0831
6276.00,1.0743
6275.00,1.0651
6274.00,1.0557
6273.00,1.0462
6272.00,1.0365
6271.00,1.0266
6270.00,1.0164
6269.00,1.0059
6268.00,0.9953
6267.00,0.9845
6266.00,0.9736
6265.00,0.9627
6264.00,0.9518
6263.00,0.9408
6262.00,0.9297
6261.00,0.9186
6260.00,0.9075
6259.00,0.8964
6258.00,0.8854
6257.00,0.8746
6256.00,0.8640
6255.00,0.8535
6254.00,0.8432
6253.00,0.8333
6252.00,0.8236
6251.00,0.8141
6250.00,0.8050
6249.00,0.7963
6248.00,0.7880
6247.00,0.7801
6246.00,0.7724
6245.00,0.7651
6244.00,0.7581
6243.00,0.7513
6242.00,0.7450
6241.00,0.7392
6240.00,0.7339
6239.00,0.7292
6238.00,0.7253
6237.00,0.7220
6236.00,0.7194
6235.00,0.7175
6234.00,0.7160
6233.00,0.7151
6232.00,0.7147
6231.00,0.7149
6230.00,0.7157
6229.00,0.7171
6228.00,0.7192
6227.00,0.7219
6226.00,0.7253
6225.00,0.7292
6224.00,0.7337
6223.00,0.7386
6222.00,0.7442
6221.00,0.7505
6220.00,0.7575
6219.00,0.7651
6218.00,0.7733
6217.00,0.7819
6216.00,0.7909
6215.00,0.8003
6214.00,0.8101
6213.00,0.8204
6212.00,0.8309
6211.00,0.8418
6210.00,0.8531
6209.00,0.8646
6208.00,0.8760
6207.00,0.8873
6206.00,0.8987
6205.00,0.9103
6204.00,0.9220
6203.00,0.9338
6202.00,0.9457
6201.00,0.9577
6200.00,0.9695
6199.00,0.9809
6198.00,0.9922
6197.00,1.0035
6196.00,1.0148
6195.00,1.0256
6194.00,1.0360
6193.00,1.0461
6192.00,1.0560
6191.00,1.0659
6190.00,1.0757
6189.00,1.0854
6188.00,1.0951
6187.00,1.1043
6186.00,1.1129
6185.00,1.1208
6184.00,1.1279
6183.00,1.1347
6182.00,1.1415
6181.00,1.1483
6180.00,1.1550
6179.00,1.1614
6178.00,1.1671
6177.00,1.1723
6176.00,1.1769
6175.00,1.1809
6174.00,1.1842
6173.00,1.1872
6172.00,1.1900
6171.00,1.1924
6170.00,1.1943
6169.00,1.1960
6168.00,1.1975
6167.00,1.1989
6166.00,1.1999
6165.00,1.2007
6164.00,1.2011
6163.00,1.2011
6162.00,1.2008
6161.00,1.2001
6160.00,1.1991
6159.00,1.1977
6158.00,1.1958
6157.00,1.1933
6156.00,1.1903
6155.00,1.1868
6154.00,1.1828
6153.00,1.1784
6152.00,1.1738
6151.00,1.1691
6150.00,1.1641
6149.00,1.1587
6148.00,1.1527
6147.00,1.1462
6146.00,1.1391
6145.00,1.1318
6144.00,1.1241
6143.00,1.1162
6142.00,1.1078
6141.00,1.0991
6140.00,1.0903
6139.00,1.0811
6138.00,1.0716
6137.00,1.0619
6136.00,1.0520
6135.00,1.0420
6134.00,1.0316
6133.00,1.0207
6132.00,1.0092
6131.00,0.9975
6130.00,0.9857
6129.00,0.9739
6128.00,0.9619
6127.00,0.9499
6126.00,0.9381
6125.00,0.9265
6124.00,0.9149
6123.00,0.9032
6122.00,0.8915
6121.00,0.8797
6120.00,0.8680
6119.00,0.8565
6118.00,0.8453
6117.00,0.8344
6116.00,0.8239
6115.00,0.8137
6114.00,0.8039
6113.00,0.7945
6112.00,0.7852
6111.00,0.7762
6110.00,0.7676
6109.00,0.7595
6108.00,0.7519
6107.00,0.7448
6106.00,0.7382
6105.00,0.7323
6104.00,0.7270
6103.00,0.7221
6102.00,0.7179
6101.00,0.7145
6100.00,0.7116
6099.00,0.7093
6098.00,0.7076
6097.00,0.7066
6096.00,0.7063
6095.00,0.7067
6094.00,0.7079
6093.00,0.7098
6092.00,0.7124
6091.00,0.7156
6090.00,0.7196
6089.00,0.7242
6088.00,0.7294
6087.00,0.7352
6086.00,0.7415
6085.00,0.7485
6084.00,0.7561
6083.00,0.7642
6082.00,0.7729
6081.00,0.7822
6080.00,0.7919
6079.00,0.8020
6078.00,0.8124
6077.00,0.8231
6076.00,0.8341
6075.00,0.8453
6074.00,0.8568
6073.00,0.8685
6072.00,0.8804
6071.00,0.8921
6070.00,0.9039
6069.00,0.9158
6068.00,0.9280
6067.00,0.9403
6066.00,0.9526
6065.00,0.9645
6064.00,0.9762
6063.00,0.9875
6062.00,0.9986
6061.00,1.0095
6060.00,1.0202
6059.00,1.0308
6058.00,1.0414
6057.00,1.0519
6056.00,1.0619
6055.00,1.0716
6054.00,1.0810
6053.00,1.0903
6052.00,1.0992
6051.00,1.1075
6050.00,1.1150
6049.00,1.1220
6048.00,1.1287
6047.00,1.1352
6046.00,1.1417
6045.00,1.1480
6044.00,1.1539
6043.00,1.1592
6042.00,1.1639
6041.00,1.1683
6040.00,1.1724
6039.00,1.1761
6038.00,1.1796
6037.00,1.1829
6036.00,1.1858
6035.00,1.1881
6034.00,1.1895
6033.00,1.1904
6032.00,1.1910
6031.00,1.1917
6030.00,1.1921
6029.00,1.1923
6028.00,1.1923
6027.00,1.1921
6026.00,1.1916
6025.00,1.1904
6024.00,1.1884
6023.00,1.1860
6022.00,1.1835
6021.00,1.1809
6020.00,1.1779
6019.00,1.1746
6018.00,1.1710
6017.00,1.1670
6016.00,1.1624
6015.00,1.1572
6014.00,1.1514
6013.00,1.1454
6012.00,1.1390
6011.00,1.1324
6010.00,1.1254
6009.00,1.1182
6008.00,1.1106
6007.00,1.1027
6006.00,1.0942
6005.00,1.0854
6004.00,1.0762
6003.00,1.0667
6002.00,1.0569
6001.00,1.0467
6000.00,1.0362
5999.00,1.0255
5998.00,1.0145
5997.00,1.0033
5996.00,0.9921
5995.00,0.9808
5994.00,0.9694
5993.00,0.9575
5992.00,0.9451
5991.00,0.9325
5990.00,0.9199
5989.00,0.9076
5988.00,0.8954
5987.00,0.8834
5986.00,0.8716
5985.00,0.8599
5984.00,0.8482
5983.00,0.8365
5982.00,0.8251
5981.00,0.8141
5980.00,0.8034
5979.00,0.7931
5978.00,0.7832
5977.00,0.7736
5976.00,0.7644
5975.00,0.7557
5974.00,0.7476
5973.00,0.7401
5972.00,0.7331
5971.00,0.7267
5970.00,0.7209
5969.00,0.7157
5968.00,0.7112
5967.00,0.7074
5966.00,0.7044
5965.00,0.7023
5964.00,0.7010
5963.00,0.7004
5962.00,0.7006
5961.00,0.7016
5960.00,0.7033
5959.00,0.7058
5958.00,0.7089
5957.00,0.7127
5956.00,0.7172
5955.00,0.7221
5954.00,0.7274
5953.00,0.7330
5952.00,0.7390
5951.00,0.7452
5950.00,0.7516
5949.00,0.7582
5948.00,0.7651
5947.00,0.7723
5946.00,0.7801
5945.00,0.7884
5944.00,0.7973
5943.00,0.8067
5942.00,0.8165
5941.00,0.8269
5940.00,0.8377
5939.00,0.8488
5938.00,0.8601
5937.00,0.8716
5936.00,0.8834
5935.00,0.8955
5934.00,0.9076
5933.00,0.9199
5932.00,0.9322
5931.00,0.9445
5930.00,0.9569
5929.00,0.9692
5928.00,0.9814
5927.00,0.9934
5926.00,1.0054
5925.00,1.0171
5924.00,1.0284
5923.00,1.0392
5922.00,1.0498
5921.00,1.0604
5920.00,1.0706
5919.00,1.0806
5918.00,1.0903
5917.00,1.0998
5916.00,1.1089
5915.00,1.1174
5914.00,1.1255
5913.00,1.1333
5912.00,1.1407
5911.00,1.1477
5910.00,1.1546
5909.00,1.1613
5908.00,1.1674
5907.00,1.1730
5906.00,1.1783
5905.00,1.1832
5904.00,1.1876
5903.00,1.1916
5902.00,1.1951
5901.00,1.1982
5900.00,1.2006
5899.00,1.2024
5898.00,1.2041
5897.00,1.2059
5896.00,1.2077
5895.00,1.2091
5894.00,1.2100
5893.00,1.2101
5892.00,1.2096
5891.00,1.2084
5890.00,1.2068
5889.00,1.2054
5888.00,1.2041
5887.00,1.2027
5886.00,1.2006
5885.00,1.1978
5884.00,1.1943
5883.00,1.1901
5882.00,1.1853
5881.00,1.1801
5880.00,1.1745
5879.00,1.1687
5878.00,1.1625
5877.00,1.1562
5876.00,1.1494
5875.00,1.1422
5874.00,1.1346
5873.00,1.1266
5872.00,1.1183
5871.00,1.1097
5870.00,1.1010
5869.00,1.0920
5868.00,1.0827
5867.00,1.0728
5866.00,1.0625
5865.00,1.0518
5864.00,1.0407
5863.00,1.0293
5862.00,1.0176
5861.00,1.0058
5860.00,0.9940
5859.00,0.9821
5858.00,0.9700
5857.00,0.9577
5856.00,0.9452
5855.00,0.9326
5854.00,0.9200
5853.00,0.9075
5852.00,0.8952
5851.00,0.8831
5850.00,0.8712
5849.00,0.8594
5848.00,0.8478
5847.00,0.8364
5846.00,0.8254
5845.00,0.8149
5844.00,0.8047
5843.00,0.7947
5842.00,0.7851
5841.00,0.7758
5840.00,0.7670
5839.00,0.7587
5838.00,0.7509
5837.00,0.7436
5836.00,0.7370
5835.00,0.7308
5834.00,0.7251
5833.00,0.7201
5832.00,0.7156
5831.00,0.7116
5830.00,0.7082
5829.00,0.7054
5828.00,0.7031
5827.00,0.7014
5826.00,0.7003
5825.00,0.7000
5824.00,0.7004
5823.00,0.7016
5822.00,0.7035
5821.00,0.7060
5820.00,0.7092
5819.00,0.7129
5818.00,0.7174
5817.00,0.7226
5816.00,0.7286
5815.00,0.7352
5814.00,0.7426
5813.00,0.7507
5812.00,0.7593
5811.00,0.7685
5810.00,0.7781
5809.00,0.7881
5808.00,0.7986
5807.00,0.8094
5806.00,0.8205
5805.00,0.8320
5804.00,0.8438
5803.00,0.8558
5802.00,0.8681
5801.00,0.8807
5800.00,0.8934
5799.00,0.9061
5798.00,0.9188
5797.00,0.9316
5796.00,0.9443
5795.00,0.9567
5794.00,0.9689
5793.00,0.9810
5792.00,0.9930
5791.00,1.0048
5790.00,1.0166
5789.00,1.0283
5788.00,1.0400
5787.00,1.0514
5786.00,1.0625
5785.00,1.0731
5784.00,1.0831
5783.00,1.0927
5782.00,1.1018
5781.00,1.1104
5780.00,1.1188
5779.00,1.1270
5778.00,1.1349
5777.00,1.1427
5776.00,1.1500
5775.00,1.1569
5774.00,1.1632
5773.00,1.1692
5772.00,1.1748
5771.00,1.1801
5770.00,1.1852
5769.00,1.1900
5768.00,1.1946
5767.00,1.1987
5766.00,1.2024
5765.00,1.2057
5764.00,1.2085
5763.00,1.2107
5762.00,1.2121
5761.00,1.2129
5760.00,1.2132
5759.00,1.2133
5758.00,1.2133
5757.00,1.2134
5756.00,1.2132
5755.00,1.2125
5754.00,1.2113
5753.00,1.2097
5752.00,1.2079
5751.00,1.2060
5750.00,1.2037
5749.00,1.2010
5748.00,1.1975
5747.00,1.1934
5746.00,1.1888
5745.00,1.1838
5744.00,1.1786
5743.00,1.1731
5742.00,1.1674
5741.00,1.1611
5740.00,1.1543
5739.00,1.1469
5738.00,1.1391
5737.00,1.1308
5736.00,1.1220
5735.00,1.1127
5734.00,1.1031
5733.00,1.0931
5732.00,1.0828
5731.00,1.0724
5730.00,1.0620
5729.00,1.0516
5728.00,1.0409
5727.00,1.0297
5726.00,1.0181
5725.00,1.0060
5724.00,0.9935
5723.00,0.9806
5722.00,0.9678
5721.00,0.9550
5720.00,0.9422
5719.00,0.9293
5718.00,0.9162
5717.00,0.9030
5716.00,0.8897
5715.00,0.8763
5714.00,0.8632
5713.00,0.8504
5712.00,0.8377
5711.00,0.8253
5710.00,0.8129
5709.00,0.8008
5708.00,0.7890
5707.00,0.7776
5706.00,0.7667
5705.00,0.7564
5704.00,0.7466
5703.00,0.7373
5702.00,0.7284
5701.00,0.7200
5700.00,0.7121
5699.00,0.7046
5698.00,0.6977
5697.00,0.6916
5696.00,0.6862
5695.00,0.6816
5694.00,0.6778
5693.00,0.6747
5692.00,0.6723
5691.00,0.6707
5690.00,0.6698
5689.00,0.6698
5688.00,0.6706
5687.00,0.6723
5686.00,0.6748
5685.00,0.6781
5684.00,0.6823
5683.00,0.6871
5682.00,0.6927
5681.00,0.6990
5680.00,0.7062
5679.00,0.7140
5678.00,0.7225
5677.00,0.7316
5676.00,0.7414
5675.00,0.7517
5674.00,0.7626
5673.00,0.7740
5672.00,0.7858
5671.00,0.7979
5670.00,0.8103
5669.00,0.8230
5668.00,0.8359
5667.00,0.8489
5666.00,0.8620
5665.00,0.8753
5664.00,0.8888
5663.00,0.9023
5662.00,0.9157
5661.00,0.9291
5660.00,0.9425
5659.00,0.9558
5658.00,0.9689
5657.00,0.9819
5656.00,0.9949
5655.00,1.0077
5654.00,1.0201
5653.00,1.0322
5652.00,1.0440
5651.00,1.0555
5650.00,1.0669
5649.00,1.0779
5648.00,1.0885
5647.00,1.0986
5646.00,1.1084
5645.00,1.1178
5644.00,1.1269
5643.00,1.1357
5642.00,1.1443
5641.00,1.1526
5640.00,1.1602
5639.00,1.1674
5638.00,1.1741
5637.00,1.1805
5636.00,1.1865
5635.00,1.1923
5634.00,1.1976
5633.00,1.2024
5632.00,1.2067
5631.00,1.2106
5630.00,1.2142
5629.00,1.2174
5628.00,1.2198
5627.00,1.2217
5626.00,1.2233
5625.00,1.2249
5624.00,1.2265
5623.00,1.2277
5622.00,1.2287
5621.00,1.2290
5620.00,1.2288
5619.00,1.2279
5618.00,1.2265
5617.00,1.2248
5616.00,1.2226
5615.00,1.2200
5614.00,1.2169
5613.00,1.2134
5612.00,1.2097
5611.00,1.2054
5610.00,1.2008
5609.00,1.1958
5608.00,1.1904
5607.00,1.1845
5606.00,1.1780
5605.00,1.1713
5604.00,1.1645
5603.00,1.1572
5602.00,1.1493
5601.00,1.1408
5600.00,1.1320
5599.00,1.1228
5598.00,1.1132
5597.00,1.1033
5596.00,1.0930
5595.00,1.0824
5594.00,1.0715
5593.00,1.0600
5592.00,1.0481
5591.00,1.0359
5590.00,1.0234
5589.00,1.0107
5588.00,0.9978
5587.00,0.9847
5586.00,0.9715
5585.00,0.9581
5584.00,0.9445
5583.00,0.9308
5582.00,0.9172
5581.00,0.9035
5580.00,0.8898
5579.00,0.8761
5578.00,0.8625
5577.00,0.8491
5576.00,0.8358
5575.00,0.8228
5574.00,0.8102
5573.00,0.7978
5572.00,0.7859
5571.00,0.7744
5570.00,0.7634
5569.00,0.7528
5568.00,0.7426
5567.00,0.7330
5566.00,0.7239
5565.00,0.7155
5564.00,0.7078
5563.00,0.7008
5562.00,0.6945
5561.00,0.6890
5560.00,0.6844
5559.00,0.6804
5558.00,0.6772
5557.00,0.6748
5556.00,0.6731
5555.00,0.6723
5554.00,0.6723
5553.00,0.6733
5552.00,0.6752
5551.00,0.6780
5550.00,0.6818
5549.00,0.6864
5548.00,0.6917
5547.00,0.6978
5546.00,0.7046
5545.00,0.7121
5544.00,0.7203
5543.00,0.7293
5542.00,0.7390
5541.00,0.7494
5540.00,0.7603
5539.00,0.7719
5538.00,0.7840
5537.00,0.7965
5536.00,0.8095
5535.00,0.8228
5534.00,0.8364
5533.00,0.8503
5532.00,0.8644
5531.00,0.8787
5530.00,0.8930
5529.00,0.9074
5528.00,0.9218
5527.00,0.9362
5526.00,0.9504
5525.00,0.9646
5524.00,0.9785
5523.00,0.9923
5522.00,1.0059
5521.00,1.0193
5520.00,1.0324
5519.00,1.0453
5518.00,1.0578
5517.00,1.0701
5516.00,1.0819
5515.00,1.0935
5514.00,1.1049
5513.00,1.1159
5512.00,1.1264
5511.00,1.1362
5510.00,1.1456
5509.00,1.1547
5508.00,1.1634
5507.00,1.1716
5506.00,1.1795
5505.00,1.1870
5504.00,1.1941
5503.00,1.2008
5502.00,1.2073
5501.00,1.2135
5500.00,1.2195
5499.00,1.2250
5498.00,1.2299
5497.00,1.2341
5496.00,1.2377
5495.00,1.2408
5494.00,1.2436
5493.00,1.2461
5492.00,1.2483
5491.00,1.2501
5490.00,1.2514
5489.00,1.2525
5488.00,1.2530
5487.00,1.2529
5486.00,1.2522
5485.00,1.2513
5484.00,1.2503
5483.00,1.2491
5482.00,1.2476
5481.00,1.2454
5480.00,1.2427
5479.00,1.2392
5478.00,1.2351
5477.00,1.2305
5476.00,1.2255
5475.00,1.2204
5474.00,1.2149
5473.00,1.2091
5472.00,1.2029
5471.00,1.1963
5470.00,1.1891
5469.00,1.1814
5468.00,1.1735
5467.00,1.1656
5466.00,1.1578
5465.00,1.1496
5464.00,1.1406
5463.00,1.1307
5462.00,1.1199
5461.00,1.1086
5460.00,1.0967
5459.00,1.0846
5458.00,1.0725
5457.00,1.0603
5456.00,1.0479
5455.00,1.0352
5454.00,1.0223
5453.00,1.0094
5452.00,0.9961
5451.00,0.9825
5450.00,0.9682
5449.00,0.9536
5448.00,0.9385
5447.00,0.9233
5446.00,0.9082
5445.00,0.8931
5444.00,0.8780
5443.00,0.8630
5442.00,0.8483
5441.00,0.8340
5440.00,0.8201
5439.00,0.8065
5438.00,0.7934
5437.00,0.7809
5436.00,0.7689
5435.00,0.7570
5434.00,0.7453
5433.00,0.7342
5432.00,0.7240
5431.00,0.7147
5430.00,0.7060
5429.00,0.6977
5428.00,0.6900
5427.00,0.6830
5426.00,0.6772
5425.00,0.6725
5424.00,0.6688
5423.00,0.6659
5422.00,0.6638
5421.00,0.6627
5420.00,0.6627
5419.00,0.6634
5418.00,0.6648
5417.00,0.6668
5416.00,0.6696
5415.00,0.6732
5414.00,0.6775
5413.00,0.6826
5412.00,0.6884
5411.00,0.6951
5410.00,0.7027
5409.00,0.7113
5408.00,0.7208
5407.00,0.7313
5406.00,0.7427
5405.00,0.7549
5404.00,0.7676
5403.00,0.7808
5402.00,0.7944
5401.00,0.8086
5400.00,0.8229
5399.00,0.8373
5398.00,0.8517
5397.00,0.8661
5396.00,0.8806
5395.00,0.8953
5394.00,0.9101
5393.00,0.9252
5392.00,0.9403
5391.00,0.9554
5390.00,0.9703
5389.00,0.9850
5388.00,0.9994
5387.00,1.0136
5386.00,1.0278
5385.00,1.0417
5384.00,1.0554
5383.00,1.0687
5382.00,1.0816
5381.00,1.0941
5380.00,1.1059
5379.00,1.1173
5378.00,1.1284
5377.00,1.1394
5376.00,1.1501
5375.00,1.1604
5374.00,1.1704
5373.00,1.1800
5372.00,1.1893
5371.00,1.1980
5370.00,1.2063
5369.00,1.2142
5368.00,1.2217
5367.00,1.2289
5366.00,1.2357
5365.00,1.2421
5364.00,1.2481
5363.00,1.2535
5362.00,1.2582
5361.00,1.2624
5360.00,1.2660
5359.00,1.2692
5358.00,1.2718
5357.00,1.2741
5356.00,1.2760
5355.00,1.2777
5354.00,1.2791
5353.00,1.2797
5352.00,1.2797
5351.00,1.2793
5350.00,1.2787
5349.00,1.2781
5348.00,1.2773
5347.00,1.2760
5346.00,1.2742
5345.00,1.2718
5344.00,1.2687
5343.00,1.2650
5342.00,1.2607
5341.00,1.2562
5340.00,1.2515
5339.00,1.2465
5338.00,1.2408
5337.00,1.2346
5336.00,1.2282
5335.00,1.2219
5334.00,1.2155
5333.00,1.2085
5332.00,1.2009
5331.00,1.1926
5330.00,1.1839
5329.00,1.1747
5328.00,1.1648
5327.00,1.1543
5326.00,1.1434
5325.00,1.1321
5324.00,1.1207
5323.00,1.1092
5322.00,1.0972
5321.00,1.0848
5320.00,1.0719
5319.00,1.0589
5318.00,1.0456
5317.00,1.0320
5316.00,1.0180
5315.00,1.0036
5314.00,0.9891
5313.00,0.9743
5312.00,0.9595
5311.00,0.9445
5310.00,0.9294
5309.00,0.9143
5308.00,0.8991
5307.00,0.8838
5306.00,0.8685
5305.00,0.8535
5304.00,0.8391
5303.00,0.8254
5302.00,0.8123
5301.00,0.7998
5300.00,0.7878
5299.00,0.7763
5298.00,0.7651
5297.00,0.7544
5296.00,0.7443
5295.00,0.7348
5294.00,0.7262
5293.00,0.7182
5292.00,0.7111
5291.00,0.7047
5290.00,0.6989
5289.00,0.6939
5288.00,0.6896
5287.00,0.6864
5286.00,0.6843
5285.00,0.6833
5284.00,0.6833
5283.00,0.6843
5282.00,0.6865
5281.00,0.6897
5280.00,0.6938
5279.00,0.6987
5278.00,0.7044
5277.00,0.7111
5276.00,0.7187
5275.00,0.7270
5274.00,0.7362
5273.00,0.7460
5272.00,0.7567
5271.00,0.7680
5270.00,0.7801
5269.00,0.7927
5268.00,0.8057
5267.00,0.8190
5266.00,0.8327
5265.00,0.8469
5264.00,0.8615
5263.00,0.8763
5262.00,0.8913
5261.00,0.9066
5260.00,0.9221
5259.00,0.9375
5258.00,0.9530
5257.00,0.9684
5256.00,0.9840
5255.00,0.9994
5254.00,1.0147
5253.00,1.0295
5252.00,1.0440
5251.00,1.0581
5250.00,1.0720
5249.00,1.0855
5248.00,1.0986
5247.00,1.1115
5246.00,1.1240
5245.00,1.1363
5244.00,1.1484
5243.00,1.1600
5242.00,1.1713
5241.00,1.1822
5240.00,1.1926
5239.00,1.2025
5238.00,1.2118
5237.00,1.2207
5236.00,1.2291
5235.00,1.2372
5234.00,1.2447
5233.00,1.2518
5232.00,1.2586
5231.00,1.2651
5230.00,1.2713
5229.00,1.2770
5228.00,1.2822
5227.00,1.2869
5226.00,1.2912
5225.00,1.2949
5224.00,1.2981
5223.00,1.3008
5222.00,1.3030
5221.00,1.3049
5220.00,1.3065
5219.00,1.3078
5218.00,1.3089
5217.00,1.3097
5216.00,1.3102
5215.00,1.3101
5214.00,1.3096
5213.00,1.3085
5212.00,1.3070
5211.00,1.3049
5210.00,1.3021
5209.00,1.2986
5208.00,1.2945
5207.00,1.2902
5206.00,1.2856
5205.00,1.2808
5204.00,1.2758
5203.00,1.2705
5202.00,1.2649
5201.00,1.2590
5200.00,1.2527
5199.00,1.2460
5198.00,1.2389
5197.00,1.2312
5196.00,1.2230
5195.00,1.2144
5194.00,1.2054
5193.00,1.1962
5192.00,1.1863
5191.00,1.1757
5190.00,1.1644
5189.00,1.1525
5188.00,1.1402
5187.00,1.1274
5186.00,1.1141
5185.00,1.1002
5184.00,1.0858
5183.00,1.0710
5182.00,1.0560
5181.00,1.0409
5180.00,1.0255
5179.00,1.0100
5178.00,0.9943
5177.00,0.9784
5176.00,0.9623
5175.00,0.9461
5174.00,0.9298
5173.00,0.9137
5172.00,0.8977
5171.00,0.8819
5170.00,0.8664
5169.00,0.8511
5168.00,0.8361
5167.00,0.8215
5166.00,0.8074
5165.00,0.7938
5164.00,0.7806
5163.00,0.7680
5162.00,0.7560
5161.00,0.7448
5160.00,0.7343
5159.00,0.7245
5158.00,0.7155
5157.00,0.7074
5156.00,0.7001
5155.00,0.6938
5154.00,0.6885
5153.00,0.6843
5152.00,0.6810
5151.00,0.6786
5150.00,0.6772
5149.00,0.6766
5148.00,0.6771
5147.00,0.6785
5146.00,0.6809
5145.00,0.6844
5144.00,0.6888
5143.00,0.6943
5142.00,0.7009
5141.00,0.7085
5140.00,0.7171
5139.00,0.7265
5138.00,0.7366
5137.00,0.7476
5136.00,0.7593
5135.00,0.7718
5134.00,0.7850
5133.00,0.7989
5132.00,0.8134
5131.00,0.8284
5130.00,0.8439
5129.00,0.8597
5128.00,0.8757
5127.00,0.8918
5126.00,0.9081
5125.00,0.9245
5124.00,0.9410
5123.00,0.9574
5122.00,0.9738
5121.00,0.9901
5120.00,1.0062
5119.00,1.0222
5118.00,1.0380
5117.00,1.0535
5116.00,1.0688
5115.00,1.0838
5114.00,1.0985
5113.00,1.1129
5112.00,1.1270
5111.00,1.1407
5110.00,1.1540
5109.00,1.1667
5108.00,1.1790
5107.00,1.1908
5106.00,1.2022
5105.00,1.2133
5104.00,1.2241
5103.00,1.2345
5102.00,1.2444
5101.00,1.2536
5100.00,1.2622
5099.00,1.2702
5098.00,1.2778
5097.00,1.2850
5096.00,1.2919
5095.00,1.2984
5094.00,1.3044
5093.00,1.3099
5092.00,1.3149
5091.00,1.3195
5090.00,1.3237
5089.00,1.3275
5088.00,1.3309
5087.00,1.3339
5086.00,1.3364
5085.00,1.3386
5084.00,1.3404
5083.00,1.3420
5082.00,1.3431
5081.00,1.3438
5080.00,1.3440
5079.00,1.3439
5078.00,1.3432
5077.00,1.3420
5076.00,1.3401
5075.00,1.3378
5074.00,1.3350
5073.00,1.3318
5072.00,1.3283
5071.00,1.3244
5070.00,1.3201
5069.00,1.3152
5068.00,1.3099
5067.00,1.3041
5066.00,1.2979
5065.00,1.2915
5064.00,1.2847
5063.00,1.2774
5062.00,1.2694
5061.00,1.2609
5060.00,1.2517
5059.00,1.2420
5058.00,1.2320
5057.00,1.2217
5056.00,1.2110
5055.00,1.1997
5054.00,1.1877
5053.00,1.1752
5052.00,1.1623
5051.00,1.1491
5050.00,1.1356
5049.00,1.1218
5048.00,1.1075
5047.00,1.0927
5046.00,1.0774
5045.00,1.0618
5044.00,1.0459
5043.00,1.0299
5042.00,1.0136
5041.00,0.9972
5040.00,0.9807
5039.00,0.9641
5038.00,0.9475
5037.00,0.9310
5036.00,0.9145
5035.00,0.8981
5034.00,0.8819
5033.00,0.8658
5032.00,0.8501
5031.00,0.8349
5030.00,0.8203
5029.00,0.8063
5028.00,0.7929
5027.00,0.7801
5026.00,0.7679
5025.00,0.7563
5024.00,0.7455
5023.00,0.7354
5022.00,0.7263
5021.00,0.7181
5020.00,0.7108
5019.00,0.7046
5018.00,0.6993
5017.00,0.6951
5016.00,0.6919
5015.00,0.6899
5014.00,0.6890
5013.00,0.6892
5012.00,0.6905
5011.00,0.6929
5010.00,0.6965
5009.00,0.7011
5008.00,0.7068
5007.00,0.7135
5006.00,0.7213
5005.00,0.7301
5004.00,0.7400
5003.00,0.7508
5002.00,0.7625
5001.00,0.7750
5000.00,0.7883
4999.00,0.8024
4998.00,0.8170
4997.00,0.8320
4996.00,0.8475
4995.00,0.8632
4994.00,0.8793
4993.00,0.8957
4992.00,0.9123
4991.00,0.9291
4990.00,0.9461
4989.00,0.9632
4988.00,0.9803
4987.00,0.9972
4986.00,1.0141
4985.00,1.0307
4984.00,1.0472
4983.00,1.0636
4982.00,1.0799
4981.00,1.0961
4980.00,1.1120
4979.00,1.1273
4978.00,1.1421
4977.00,1.1564
4976.00,1.1702
4975.00,1.1836
4974.00,1.1968
4973.00,1.2097
4972.00,1.2220
4971.00,1.2337
4970.00,1.2446
4969.00,1.2549
4968.00,1.2647
4967.00,1.2742
4966.00,1.2835
4965.00,1.2926
4964.00,1.3012
4963.00,1.3093
4962.00,1.3168
4961.00,1.3237
4960.00,1.3300
4959.00,1.3358
4958.00,1.3411
4957.00,1.3461
4956.00,1.3507
4955.00,1.3550
4954.00,1.3588
4953.00,1.3622
4952.00,1.3654
4951.00,1.3682
4950.00,1.3704
4949.00,1.3720
4948.00,1.3731
4947.00,1.3737
4946.00,1.3739
4945.00,1.3739
4944.00,1.3736
4943.00,1.3731
4942.00,1.3721
4941.00,1.3706
4940.00,1.3684
4939.00,1.3655
4938.00,1.3620
4937.00,1.3580
4936.00,1.3536
4935.00,1.3489
4934.00,1.3439
4933.00,1.3385
4932.00,1.3326
4931.00,1.3263
4930.00,1.3196
4929.00,1.3124
4928.00,1.3048
4927.00,1.2966
4926.00,1.2879
4925.00,1.2785
4924.00,1.2684
4923.00,1.2579
4922.00,1.2469
4921.00,1.2355
4920.00,1.2237
4919.00,1.2114
4918.00,1.1985
4917.00,1.1850
4916.00,1.1711
4915.00,1.1567
4914.00,1.1419
4913.00,1.1266
4912.00,1.1110
4911.00,1.0951
4910.00,1.0790
4909.00,1.0626
4908.00,1.0460
4907.00,1.0290
4906.00,1.0118
4905.00,0.9943
4904.00,0.9767
4903.00,0.9591
4902.00,0.9416
4901.00,0.9243
4900.00,0.9071
4899.00,0.8902
4898.00,0.8736
4897.00,0.8573
4896.00,0.8415
4895.00,0.8261
4894.00,0.8113
4893.00,0.7970
4892.00,0.7834
4891.00,0.7705
4890.00,0.7584
4889.00,0.7472
4888.00,0.7369
4887.00,0.7275
4886.00,0.7190
4885.00,0.7114
4884.00,0.7047
4883.00,0.6991
4882.00,0.6946
4881.00,0.6911
4880.00,0.6888
4879.00,0.6877
4878.00,0.6879
4877.00,0.6892
4876.00,0.6916
4875.00,0.6952
4874.00,0.6999
4873.00,0.7058
4872.00,0.7128
4871.00,0.7209
4870.00,0.7302
4869.00,0.7405
4868.00,0.7519
4867.00,0.7643
4866.00,0.7775
4865.00,0.7916
4864.00,0.8064
4863.00,0.8218
4862.00,0.8380
4861.00,0.8548
4860.00,0.8720
4859.00,0.8896
4858.00,0.9075
4857.00,0.9256
4856.00,0.9438
4855.00,0.9621
4854.00,0.9804
4853.00,0.9987
4852.00,1.0169
4851.00,1.0350
4850.00,1.0529
4849.00,1.0706
4848.00,1.0879
4847.00,1.1049
4846.00,1.1215
4845.00,1.1378
4844.00,1.1536
4843.00,1.1690
4842.00,1.1838
4841.00,1.1982
4840.00,1.2122
4839.00,1.2256
4838.00,1.2387
4837.00,1.2512
4836.00,1.2634
4835.00,1.2751
4834.00,1.2864
4833.00,1.2972
4832.00,1.3076
4831.00,1.3174
4830.00,1.3266
4829.00,1.3353
4828.00,1.3434
4827.00,1.3511
4826.00,1.3584
4825.00,1.3651
4824.00,1.3713
4823.00,1.3770
4822.00,1.3823
4821.00,1.3872
4820.00,1.3918
4819.00,1.3960
4818.00,1.3997
4817.00,1.4031
4816.00,1.4061
4815.00,1.4087
4814.00,1.4109
4813.00,1.4125
4812.00,1.4133
4811.00,1.4134
4810.00,1.4130
4809.00,1.4123
4808.00,1.4114
4807.00,1.4103
4806.00,1.4088
4805.00,1.4069
4804.00,1.4045
4803.00,1.4016
4802.00,1.3982
4801.00,1.3943
4800.00,1.3900
4799.00,1.3852
4798.00,1.3799
4797.00,1.3739
4796.00,1.3673
4795.00,1.3604
4794.00,1.3533
4793.00,1.3460
4792.00,1.3385
4791.00,1.3304
4790.00,1.3215
4789.00,1.3118
4788.00,1.3015
4787.00,1.2906
4786.00,1.2795
4785.00,1.2679
4784.00,1.2557
4783.00,1.2430
4782.00,1.2297
4781.00,1.2160
4780.00,1.2017
4779.00,1.1868
4778.00,1.1714
4777.00,1.1555
4776.00,1.1392
4775.00,1.1226
4774.00,1.1056
4773.00,1.0882
4772.00,1.0705
4771.00,1.0526
4770.00,1.0344
4769.00,1.0161
4768.00,0.9976
4767.00,0.9791
4766.00,0.9605
4765.00,0.9420
4764.00,0.9237
4763.00,0.9057
4762.00,0.8880
4761.00,0.8707
4760.00,0.8539
4759.00,0.8376
4758.00,0.8219
4757.00,0.8068
4756.00,0.7925
4755.00,0.7789
4754.00,0.7663
4753.00,0.7546
4752.00,0.7438
4751.00,0.7341
4750.00,0.7255
4749.00,0.7180
4748.00,0.7116
4747.00,0.7064
4746.00,0.7025
4745.00,0.6999
4744.00,0.6985
4743.00,0.6983
4742.00,0.6994
4741.00,0.7018
4740.00,0.7055
4739.00,0.7105
4738.00,0.7168
4737.00,0.7244
4736.00,0.7331
4735.00,0.7430
4734.00,0.7540
4733.00,0.7661
4732.00,0.7792
4731.00,0.7933
4730.00,0.8083
4729.00,0.8242
4728.00,0.8408
4727.00,0.8580
4726.00,0.8758
4725.00,0.8939
4724.00,0.9125
4723.00,0.9314
4722.00,0.9505
4721.00,0.9698
4720.00,0.9892
4719.00,1.0086
4718.00,1.0278
4717.00,1.0468
4716.00,1.0657
4715.00,1.0842
4714.00,1.1025
4713.00,1.1206
4712.00,1.1382
4711.00,1.1555
4710.00,1.1722
4709.00,1.1885
4708.00,1.2042
4707.00,1.2195
4706.00,1.2343
4705.00,1.2486
4704.00,1.2623
4703.00,1.2756
4702.00,1.2883
4701.00,1.3005
4700.00,1.3123
4699.00,1.3236
4698.00,1.3345
4697.00,1.3450
4696.00,1.3551
4695.00,1.3648
4694.00,1.3740
4693.00,1.3826
4692.00,1.3907
4691.00,1.3982
4690.00,1.4051
4689.00,1.4112
4688.00,1.4168
4687.00,1.4220
4686.00,1.4269
4685.00,1.4313
4684.00,1.4352
4683.00,1.4384
4682.00,1.4412
4681.00,1.4436
4680.00,1.4457
4679.00,1.4475
4678.00,1.4490
4677.00,1.4500
4676.00,1.4505
4675.00,1.4505
4674.00,1.4501
4673.00,1.4492
4672.00,1.4477
4671.00,1.4457
4670.00,1.4434
4669.00,1.4407
4668.00,1.4376
4667.00,1.4339
4666.00,1.4296
4665.00,1.4248
4664.00,1.4195
4663.00,1.4138
4662.00,1.4077
4661.00,1.4012
4660.00,1.3942
4659.00,1.3868
4658.00,1.3789
4657.00,1.3706
4656.00,1.3616
4655.00,1.3519
4654.00,1.3414
4653.00,1.3303
4652.00,1.3187
4651.00,1.3068
4650.00,1.2946
4649.00,1.2821
4648.00,1.2689
4647.00,1.2551
4646.00,1.2406
4645.00,1.2255
4644.00,1.2101
4643.00,1.1942
4642.00,1.1780
4641.00,1.1613
4640.00,1.1441
4639.00,1.1265
4638.00,1.1086
4637.00,1.0906
4636.00,1.0724
4635.00,1.0539
4634.00,1.0352
4633.00,1.0163
4632.00,0.9973
4631.00,0.9783
4630.00,0.9594
4629.00,0.9405
4628.00,0.9218
4627.00,0.9034
4626.00,0.8855
4625.00,0.8680
4624.00,0.8512
4623.00,0.8350
4622.00,0.8194
4621.00,0.8046
4620.00,0.7905
4619.00,0.7772
4618.00,0.7650
4617.00,0.7539
4616.00,0.7438
4615.00,0.7348
4614.00,0.7270
4613.00,0.7205
4612.00,0.7152
4611.00,0.7112
4610.00,0.7086
4609.00,0.7073
4608.00,0.7075
4607.00,0.7090
4606.00,0.7118
4605.00,0.7161
4604.00,0.7216
4603.00,0.7285
4602.00,0.7368
4601.00,0.7464
4600.00,0.7574
4599.00,0.7695
4598.00,0.7829
4597.00,0.7973
4596.00,0.8127
4595.00,0.8291
4594.00,0.8464
4593.00,0.8643
4592.00,0.8828
4591.00,0.9019
4590.00,0.9214
4589.00,0.9413
4588.00,0.9614
4587.00,0.9817
4586.00,1.0021
4585.00,1.0225
4584.00,1.0427
4583.00,1.0627
4582.00,1.0824
4581.00,1.1019
4580.00,1.1211
4579.00,1.1400
4578.00,1.1586
4577.00,1.1767
4576.00,1.1944
4575.00,1.2115
4574.00,1.2282
4573.00,1.2446
4572.00,1.2606
4571.00,1.2761
4570.00,1.2909
4569.00,1.3049
4568.00,1.3182
4567.00,1.3310
4566.00,1.3433
4565.00,1.3551
4564.00,1.3665
4563.00,1.3774
4562.00,1.3878
4561.00,1.3979
4560.00,1.4075
4559.00,1.4168
4558.00,1.4257
4557.00,1.4339
4556.00,1.4415
4555.00,1.4485
4554.00,1.4548
4553.00,1.4605
4552.00,1.4657
4551.00,1.4705
4550.00,1.4750
4549.00,1.4790
4548.00,1.4826
4547.00,1.4857
4546.00,1.4885
4545.00,1.4912
4544.00,1.4934
4543.00,1.4949
4542.00,1.4958
4541.00,1.4960
4540.00,1.4959
4539.00,1.4956
4538.00,1.4950
4537.00,1.4940
4536.00,1.4923
4535.00,1.4900
4534.00,1.4872
4533.00,1.4839
4532.00,1.4801
4531.00,1.4759
4530.00,1.4712
4529.00,1.4660
4528.00,1.4602
4527.00,1.4541
4526.00,1.4476
4525.00,1.4407
4524.00,1.4333
4523.00,1.4252
4522.00,1.4165
4521.00,1.4073
4520.00,1.3975
4519.00,1.3873
4518.00,1.3766
4517.00,1.3655
4516.00,1.3538
4515.00,1.3415
4514.00,1.3286
4513.00,1.3149
4512.00,1.3007
4511.00,1.2859
4510.00,1.2707
4509.00,1.2550
4508.00,1.2386
4507.00,1.2217
4506.00,1.2042
4505.00,1.1863
4504.00,1.1680
4503.00,1.1493
4502.00,1.1302
4501.00,1.1107
4500.00,1.0909
4499.00,1.0710
4498.00,1.0509
4497.00,1.0307
4496.00,1.0106
4495.00,0.9906
4494.00,0.9708
4493.00,0.9514
4492.00,0.9324
4491.00,0.9139
4490.00,0.8960
4489.00,0.8788
4488.00,0.8624
4487.00,0.8469
4486.00,0.8324
4485.00,0.8188
4484.00,0.8063
4483.00,0.7948
4482.00,0.7845
4481.00,0.7754
4480.00,0.7675
4479.00,0.7610
4478.00,0.7558
4477.00,0.7521
4476.00,0.7499
4475.00,0.7492
4474.00,0.7499
4473.00,0.7521
4472.00,0.7557
4471.00,0.7608
4470.00,0.7676
4469.00,0.7759
4468.00,0.7858
4467.00,0.7971
4466.00,0.8097
4465.00,0.8235
4464.00,0.8386
4463.00,0.8547
4462.00,0.8719
4461.00,0.8900
4460.00,0.9089
4459.00,0.9286
4458.00,0.9490
4457.00,0.9699
4456.00,0.9910
4455.00,1.0122
4454.00,1.0336
4453.00,1.0550
4452.00,1.0765
4451.00,1.0978
4450.00,1.1190
4449.00,1.1398
4448.00,1.1603
4447.00,1.1802
4446.00,1.1998
4445.00,1.2188
4444.00,1.2372
4443.00,1.2548
4442.00,1.2716
4441.00,1.2876
4440.00,1.3026
4439.00,1.3167
4438.00,1.3301
4437.00,1.3429
4436.00,1.3551
4435.00,1.3668
4434.00,1.3780
4433.00,1.3886
4432.00,1.3988
4431.00,1.4086
4430.00,1.4182
4429.00,1.4277
4428.00,1.4370
4427.00,1.4461
4426.00,1.4550
4425.00,1.4635
4424.00,1.4719
4423.00,1.4799
4422.00,1.4876
4421.00,1.4949
4420.00,1.5017
4419.00,1.5081
4418.00,1.5142
4417.00,1.5199
4416.00,1.5251
4415.00,1.5297
4414.00,1.5338
4413.00,1.5374
4412.00,1.5407
4411.00,1.5437
4410.00,1.5463
4409.00,1.5486
4408.00,1.5504
4407.00,1.5519
4406.00,1.5530
4405.00,1.5538
4404.00,1.5540
4403.00,1.5537
4402.00,1.5530
4401.00,1.5519
4400.00,1.5503
4399.00,1.5483
4398.00,1.5457
4397.00,1.5426
4396.00,1.5390
4395.00,1.5351
4394.00,1.5309
4393.00,1.5264
4392.00,1.5213
4391.00,1.5155
4390.00,1.5091
4389.00,1.5022
4388.00,1.4948
4387.00,1.4869
4386.00,1.4786
4385.00,1.4699
4384.00,1.4607
4383.00,1.4510
4382.00,1.4409
4381.00,1.4302
4380.00,1.4192
4379.00,1.4079
4378.00,1.3962
4377.00,1.3841
4376.00,1.3718
4375.00,1.3593
4374.00,1.3466
4373.00,1.3338
4372.00,1.3206
4371.00,1.3072
4370.00,1.2934
4369.00,1.2795
4368.00,1.2654
4367.00,1.2510
4366.00,1.2361
4365.00,1.2207
4364.00,1.2048
4363.00,1.1885
4362.00,1.1716
4361.00,1.1540
4360.00,1.1358
4359.00,1.1167
4358.00,1.0970
4357.00,1.0768
4356.00,1.0561
4355.00,1.0353
4354.00,1.0143
4353.00,0.9935
4352.00,0.9729
4351.00,0.9527
4350.00,0.9331
4349.00,0.9140
4348.00,0.8957
4347.00,0.8782
4346.00,0.8617
4345.00,0.8465
4344.00,0.8325
4343.00,0.8199
4342.00,0.8087
4341.00,0.7990
4340.00,0.7908
4339.00,0.7843
4338.00,0.7793
4337.00,0.7760
4336.00,0.7745
4335.00,0.7748
4334.00,0.7769
4333.00,0.7809
4332.00,0.7866
4331.00,0.7940
4330.00,0.8031
4329.00,0.8137
4328.00,0.8260
4327.00,0.8397
4326.00,0.8548
4325.00,0.8711
4324.00,0.8884
4323.00,0.9065
4322.00,0.9252
4321.00,0.9445
4320.00,0.9642
4319.00,0.9840
4318.00,1.0039
4317.00,1.0238
4316.00,1.0438
4315.00,1.0641
4314.00,1.0845
4313.00,1.1049
4312.00,1.1254
4311.00,1.1458
4310.00,1.1661
4309.00,1.1863
4308.00,1.2063
4307.00,1.2259
4306.00,1.2451
4305.00,1.2641
4304.00,1.2827
4303.00,1.3007
4302.00,1.3182
4301.00,1.3350
4300.00,1.3515
4299.00,1.3675
4298.00,1.3830
4297.00,1.3979
4296.00,1.4120
4295.00,1.4253
4294.00,1.4380
4293.00,1.4502
4292.00,1.4620
4291.00,1.4733
4290.00,1.4840
4289.00,1.4941
4288.00,1.5037
4287.00,1.5126
4286.00,1.5209
4285.00,1.5287
4284.00,1.5361
4283.00,1.5432
4282.00,1.5501
4281.00,1.5564
4280.00,1.5622
4279.00,1.5671
4278.00,1.5713
4277.00,1.5750
4276.00,1.5783
4275.00,1.5815
4274.00,1.5845
4273.00,1.5872
4272.00,1.5893
4271.00,1.5906
4270.00,1.5912
4269.00,1.5914
4268.00,1.5912
4267.00,1.5908
4266.00,1.5902
4265.00,1.5891
4264.00,1.5873
4263.00,1.5849
4262.00,1.5819
4261.00,1.5785
4260.00,1.5748
4259.00,1.5707
4258.00,1.5661
4257.00,1.5609
4256.00,1.5549
4255.00,1.5483
4254.00,1.5411
4253.00,1.5336
4252.00,1.5258
4251.00,1.5176
4250.00,1.5089
4249.00,1.4995
4248.00,1.4896
4247.00,1.4792
4246.00,1.4682
4245.00,1.4566
4244.00,1.4442
4243.00,1.4311
4242.00,1.4174
4241.00,1.4031
4240.00,1.3883
4239.00,1.3729
4238.00,1.3568
4237.00,1.3399
4236.00,1.3223
4235.00,1.3040
4234.00,1.2850
4233.00,1.2655
4232.00,1.2454
4231.00,1.2249
4230.00,1.2039
4229.00,1.1824
4228.00,1.1604
4227.00,1.1381
4226.00,1.1153
4225.00,1.0923
4224.00,1.0692
4223.00,1.0462
4222.00,1.0233
4221.00,1.0006
4220.00,0.9782
4219.00,0.9562
4218.00,0.9347
4217.00,0.9140
4216.00,0.8940
4215.00,0.8749
4214.00,0.8569
4213.00,0.8399
4212.00,0.8241
4211.00,0.8096
4210.00,0.7964
4209.00,0.7847
4208.00,0.7744
4207.00,0.7657
4206.00,0.7586
4205.00,0.7531
4204.00,0.7493
4203.00,0.7473
4202.00,0.7470
4201.00,0.7485
4200.00,0.7518
4199.00,0.7568
4198.00,0.7637
4197.00,0.7724
4196.00,0.7828
4195.00,0.7949
4194.00,0.8087
4193.00,0.8240
4192.00,0.8407
4191.00,0.8588
4190.00,0.8781
4189.00,0.8985
4188.00,0.9198
4187.00,0.9419
4186.00,0.9646
4185.00,0.9878
4184.00,1.0115
4183.00,1.0353
4182.00,1.0593
4181.00,1.0832
4180.00,1.1070
4179.00,1.1307
4178.00,1.1541
4177.00,1.1772
4176.00,1.1998
4175.00,1.2220
4174.00,1.2438
4173.00,1.2650
4172.00,1.2858
4171.00,1.3059
4170.00,1.3255
4169.00,1.3444
4168.00,1.3627
4167.00,1.3804
4166.00,1.3974
4165.00,1.4139
4164.00,1.4297
4163.00,1.4450
4162.00,1.4596
4161.00,1.4736
4160.00,1.4871
4159.00,1.4999
4158.00,1.5120
4157.00,1.5233
4156.00,1.5339
4155.00,1.5438
4154.00,1.5533
4153.00,1.5623
4152.00,1.5710
4151.00,1.5792
4150.00,1.5868
4149.00,1.5938
4148.00,1.6004
4147.00,1.6065
4146.00,1.6123
4145.00,1.6175
4144.00,1.6224
4143.00,1.6268
4142.00,1.6308
4141.00,1.6342
4140.00,1.6369
4139.00,1.6390
4138.00,1.6405
4137.00,1.6417
4136.00,1.6426
4135.00,1.6430
4134.00,1.6429
4133.00,1.6423
4132.00,1.6415
4131.00,1.6403
4130.00,1.6386
4129.00,1.6362
4128.00,1.6334
4127.00,1.6303
4126.00,1.6270
4125.00,1.6231
4124.00,1.6185
4123.00,1.6132
4122.00,1.6072
4121.00,1.6008
4120.00,1.5941
4119.00,1.5872
4118.00,1.5799
4117.00,1.5720
4116.00,1.5634
4115.00,1.5539
4114.00,1.5436
4113.00,1.5327
4112.00,1.5213
4111.00,1.5095
4110.00,1.4973
4109.00,1.4845
4108.00,1.4711
4107.00,1.4571
4106.00,1.4424
4105.00,1.4269
4104.00,1.4107
4103.00,1.3937
4102.00,1.3760
4101.00,1.3576
4100.00,1.3386
4099.00,1.3189
4098.00,1.2984
4097.00,1.2772
4096.00,1.2556
4095.00,1.2334
4094.00,1.2109
4093.00,1.1878
4092.00,1.1641
4091.00,1.1401
4090.00,1.1159
4089.00,1.0918
4088.00,1.0677
4087.00,1.0440
4086.00,1.0205
4085.00,0.9975
4084.00,0.9750
4083.00,0.9532
4082.00,0.9322
4081.00,0.9121
4080.00,0.8932
4079.00,0.8755
4078.00,0.8591
4077.00,0.8440
4076.00,0.8303
4075.00,0.8180
4074.00,0.8072
4073.00,0.7978
4072.00,0.7902
4071.00,0.7842
4070.00,0.7800
4069.00,0.7776
4068.00,0.7770
4067.00,0.7784
4066.00,0.7816
4065.00,0.7866
4064.00,0.7935
4063.00,0.8021
4062.00,0.8125
4061.00,0.8247
4060.00,0.8386
4059.00,0.8542
4058.00,0.8713
4057.00,0.8898
4056.00,0.9098
4055.00,0.9310
4054.00,0.9533
4053.00,0.9765
4052.00,1.0005
4051.00,1.0250
4050.00,1.0498
4049.00,1.0749
4048.00,1.1001
4047.00,1.1254
4046.00,1.1506
4045.00,1.1756
4044.00,1.2005
4043.00,1.2250
4042.00,1.2491
4041.00,1.2727
4040.00,1.2956
4039.00,1.3178
4038.00,1.3394
4037.00,1.3604
4036.00,1.3808
4035.00,1.4004
4034.00,1.4190
4033.00,1.4367
4032.00,1.4534
4031.00,1.4695
4030.00,1.4850
4029.00,1.4999
4028.00,1.5139
4027.00,1.5271
4026.00,1.5395
4025.00,1.5513
4024.00,1.5629
4023.00,1.5743
4022.00,1.5853
4021.00,1.5958
4020.00,1.6056
4019.00,1.6148
4018.00,1.6235
4017.00,1.6318
4016.00,1.6396
4015.00,1.6470
4014.00,1.6540
4013.00,1.6608
4012.00,1.6672
4011.00,1.6731
4010.00,1.6782
4009.00,1.6826
4008.00,1.6863
4007.00,1.6898
4006.00,1.6930
4005.00,1.6961
4004.00,1.6988
4003.00,1.7011
4002.00,1.7028
4001.00,1.7039
4000.00,1.7044
3999.00,1.7045
3998.00,1.7042
3997.00,1.7035
3996.00,1.7025
3995.00,1.7009
3994.00,1.6987
3993.00,1.6960
3992.00,1.6930
3991.00,1.6897
3990.00,1.6860
3989.00,1.6816
3988.00,1.6765
3987.00,1.6707
3986.00,1.6646
3985.00,1.6583
3984.00,1.6518
3983.00,1.6447
3982.00,1.6368
3981.00,1.6281
3980.00,1.6190
3979.00,1.6098
3978.00,1.6003
3977.00,1.5904
3976.00,1.5798
3975.00,1.5685
3974.00,1.5566
3973.00,1.5440
3972.00,1.5307
3971.00,1.5168
3970.00,1.5021
3969.00,1.4867
3968.00,1.4705
3967.00,1.4534
3966.00,1.4354
3965.00,1.4165
3964.00,1.3968
3963.00,1.3764
3962.00,1.3551
3961.00,1.3330
3960.00,1.3103
3959.00,1.2870
3958.00,1.2630
3957.00,1.2385
3956.00,1.2134
3955.00,1.1879
3954.00,1.1621
3953.00,1.1361
3952.00,1.1101
3951.00,1.0840
3950.00,1.0581
3949.00,1.0324
3948.00,1.0073
3947.00,0.9829
3946.00,0.9597
3945.00,0.9375
3944.00,0.9162
3943.00,0.8959
3942.00,0.8768
3941.00,0.8593
3940.00,0.8437
3939.00,0.8299
3938.00,0.8178
3937.00,0.8075
3936.00,0.7992
3935.00,0.7930
3934.00,0.7888
3933.00,0.7866
3932.00,0.7863
3931.00,0.7880
3930.00,0.7918
3929.00,0.7978
3928.00,0.8060
3927.00,0.8163
3926.00,0.8287
3925.00,0.8434
3924.00,0.8601
3923.00,0.8785
3922.00,0.8985
3921.00,0.9197
3920.00,0.9420
3919.00,0.9654
3918.00,0.9901
3917.00,1.0159
3916.00,1.0426
3915.00,1.0696
3914.00,1.0966
3913.00,1.1233
3912.00,1.1498
3911.00,1.1763
3910.00,1.2025
3909.00,1.2284
3908.00,1.2535
3907.00,1.2777
3906.00,1.3011
3905.00,1.3241
3904.00,1.3471
3903.00,1.3700
3902.00,1.3925
3901.00,1.4141
3900.00,1.4348
3899.00,1.4547
3898.00,1.4743
3897.00,1.4933
3896.00,1.5115
3895.00,1.5286
3894.00,1.5447
3893.00,1.5602
3892.00,1.5752
3891.00,1.5897
3890.00,1.6035
3889.00,1.6160
3888.00,1.6275
3887.00,1.6382
3886.00,1.6489
3885.00,1.6598
3884.00,1.6707
3883.00,1.6809
3882.00,1.6900
3881.00,1.6980
3880.00,1.7053
3879.00,1.7121
3878.00,1.7186
3877.00,1.7244
3876.00,1.7296
3875.00,1.7344
3874.00,1.7393
3873.00,1.7438
3872.00,1.7479
3871.00,1.7513
3870.00,1.7540
3869.00,1.7561
3868.00,1.7578
3867.00,1.7589
3866.00,1.7593
3865.00,1.7592
3864.00,1.7591
3863.00,1.7591
3862.00,1.7587
3861.00,1.7574
3860.00,1.7552
3859.00,1.7527
3858.00,1.7504
3857.00,1.7479
3856.00,1.7448
3855.00,1.7405
3854.00,1.7346
3853.00,1.7274
3852.00,1.7195
3851.00,1.7118
3850.00,1.7046
3849.00,1.6977
3848.00,1.6905
3847.00,1.6829
3846.00,1.6745
3845.00,1.6650
3844.00,1.6546
3843.00,1.6435
3842.00,1.6318
3841.00,1.6194
3840.00,1.6060
3839.00,1.5913
3838.00,1.5754
3837.00,1.5591
3836.00,1.5430
3835.00,1.5269
3834.00,1.5098
3833.00,1.4911
3832.00,1.4708
3831.00,1.4497
3830.00,1.4282
3829.00,1.4067
3828.00,1.3846
3827.00,1.3617
3826.00,1.3381
3825.00,1.3144
3824.00,1.2906
3823.00,1.2654
3822.00,1.2373
3821.00,1.2066
3820.00,1.1758
3819.00,1.1470
3818.00,1.1196
3817.00,1.0916
3816.00,1.0622
3815.00,1.0332
3814.00,1.0066
3813.00,0.9823
3812.00,0.9591
3811.00,0.9365
3810.00,0.9150
3809.00,0.8949
3808.00,0.8756
3807.00,0.8566
3806.00,0.8387
3805.00,0.8233
3804.00,0.8111
3803.00,0.8014
3802.00,0.7933
3801.00,0.7868
3800.00,0.7828
3799.00,0.7816
3798.00,0.7831
3797.00,0.7867
3796.00,0.7925
3795.00,0.8010
3794.00,0.8119
3793.00,0.8252
3792.00,0.8407
3791.00,0.8588
3790.00,0.8792
3789.00,0.9016
3788.00,0.9256
3787.00,0.9509
3786.00,0.9773
3785.00,1.0050
3784.00,1.0336
3783.00,1.0626
3782.00,1.0915
3781.00,1.1204
3780.00,1.1495
3779.00,1.1791
3778.00,1.2090
3777.00,1.2386
3776.00,1.2675
3775.00,1.2953
3774.00,1.3222
3773.00,1.3482
3772.00,1.3735
3771.00,1.3982
3770.00,1.4226
3769.00,1.4465
3768.00,1.4696
3767.00,1.4915
3766.00,1.5125
3765.00,1.5329
3764.00,1.5527
3763.00,1.5714
3762.00,1.5889
3761.00,1.6055
3760.00,1.6216
3759.00,1.6372
3758.00,1.6521
3757.00,1.6663
3756.00,1.6795
3755.00,1.6919
3754.00,1.7035
3753.00,1.7148
3752.00,1.7259
3751.00,1.7370
3750.00,1.7481
3749.00,1.7590
3748.00,1.7691
3747.00,1.7780
3746.00,1.7858
3745.00,1.7931
3744.00,1.8004
3743.00,1.8076
3742.00,1.8144
3741.00,1.8201
3740.00,1.8243
3739.00,1.8275
3738.00,1.8298
3737.00,1.8313
3736.00,1.8315
3735.00,1.8300
3734.00,1.8271
3733.00,1.8232
3732.00,1.8180
3731.00,1.8112
3730.00,1.8031
3729.00,1.7945
3728.00,1.7858
3727.00,1.7772
3726.00,1.7689
3725.00,1.7613
3724.00,1.7540
3723.00,1.7472
3722.00,1.7408
3721.00,1.7351
3720.00,1.7303
3719.00,1.7262
3718.00,1.7230
3717.00,1.7209
3716.00,1.7197
3715.00,1.7195
3714.00,1.7203
3713.00,1.7212
3712.00,1.7203
3711.00,1.7147
3710.00,1.7026
3709.00,1.6846
3708.00,1.6627
3707.00,1.6401
3706.00,1.6185
3705.00,1.5984
3704.00,1.5789
3703.00,1.5593
3702.00,1.5394
3701.00,1.5191
3700.00,1.4988
3699.00,1.4788
3698.00,1.4590
3697.00,1.4393
3696.00,1.4197
3695.00,1.4001
3694.00,1.3804
3693.00,1.3600
3692.00,1.3386
3691.00,1.3160
3690.00,1.2922
3689.00,1.2671
3688.00,1.2416
3687.00,1.2175
3686.00,1.1958
3685.00,1.1759
3684.00,1.1569
3683.00,1.1387
3682.00,1.1214
3681.00,1.1055
3680.00,1.0910
3679.00,1.0780
3678.00,1.0667
3677.00,1.0566
3676.00,1.0472
3675.00,1.0384
3674.00,1.0313
3673.00,1.0270
3672.00,1.0253
3671.00,1.0260
3670.00,1.0293
3669.00,1.0349
3668.00,1.0422
3667.00,1.0504
3666.00,1.0593
3665.00,1.0696
3664.00,1.0819
3663.00,1.0965
3662.00,1.1127
3661.00,1.1296
3660.00,1.1470
3659.00,1.1647
3658.00,1.1831
3657.00,1.2024
3656.00,1.2228
3655.00,1.2434
3654.00,1.2634
3653.00,1.2823
3652.00,1.3006
3651.00,1.3196
3650.00,1.3399
3649.00,1.3616
3648.00,1.3841
3647.00,1.4066
3646.00,1.4285
3645.00,1.4494
3644.00,1.4694
3643.00,1.4894
3642.00,1.5096
3641.00,1.5299
3640.00,1.5500
3639.00,1.5694
3638.00,1.5881
3637.00,1.6057
3636.00,1.6222
3635.00,1.6378
3634.00,1.6523
3633.00,1.6654
3632.00,1.6771
3631.00,1.6875
3630.00,1.6971
3629.00,1.7064
3628.00,1.7159
3627.00,1.7251
3626.00,1.7334
3625.00,1.7408
3624.00,1.7481
3623.00,1.7560
3622.00,1.7646
3621.00,1.7734
3620.00,1.7825
3619.00,1.7918
3618.00,1.8012
3617.00,1.8109
3616.00,1.8213
3615.00,1.8326
3614.00,1.8448
3613.00,1.8579
3612.00,1.8711
3611.00,1.8848
3610.00,1.8953
3609.00,1.9071
3608.00,1.9126
3607.00,1.9189
3606.00,1.9135
3605.00,1.9066
3604.00,1.9078
3603.00,1.9061
3602.00,1.9064
3601.00,1.9065
3600.00,1.9075
3599.00,1.9086
3598.00,1.9097
3597.00,1.9107
3596.00,1.9118
3595.00,1.9129
3594.00,1.9141
3593.00,1.9153
3592.00,1.9164
3591.00,1.9171
3590.00,1.9171
3589.00,1.9159
3588.00,1.9139
3587.00,1.9116
3586.00,1.9095
3585.00,1.9075
3584.00,1.9052
3583.00,1.9021
3582.00,1.8982
3581.00,1.8936
3580.00,1.8887
3579.00,1.8830
3578.00,1.8764
3577.00,1.8690
3576.00,1.8609
3575.00,1.8521
3574.00,1.8426
3573.00,1.8326
3572.00,1.8225
3571.00,1.8123
3570.00,1.8015
3569.00,1.7893
3568.00,1.7755
3567.00,1.7607
3566.00,1.7458
3565.00,1.7316
3564.00,1.7180
3563.00,1.7043
3562.00,1.6901
3561.00,1.6753
3560.00,1.6600
3559.00,1.6443
3558.00,1.6281
3557.00,1.6115
3556.00,1.5946
3555.00,1.5776
3554.00,1.5605
3553.00,1.5432
3552.00,1.5259
3551.00,1.5086
3550.00,1.4914
3549.00,1.4742
3548.00,1.4569
3547.00,1.4394
3546.00,1.4218
3545.00,1.4043
3544.00,1.3870
3543.00,1.3701
3542.00,1.3535
3541.00,1.3372
3540.00,1.3213
3539.00,1.3059
3538.00,1.2910
3537.00,1.2766
3536.00,1.2627
3535.00,1.2496
3534.00,1.2373
3533.00,1.2260
3532.00,1.2155
3531.00,1.2061
3530.00,1.1977
3529.00,1.1906
3528.00,1.1847
3527.00,1.1801
3526.00,1.1770
3525.00,1.1753
3524.00,1.1751
3523.00,1.1765
3522.00,1.1796
3521.00,1.1845
3520.00,1.1910
3519.00,1.1992
3518.00,1.2090
3517.00,1.2204
3516.00,1.2333
3515.00,1.2478
3514.00,1.2637
3513.00,1.2808
3512.00,1.2990
3511.00,1.3184
3510.00,1.3388
3509.00,1.3600
3508.00,1.3818
3507.00,1.4039
3506.00,1.4259
3505.00,1.4480
3504.00,1.4703
3503.00,1.4929
3502.00,1.5155
3501.00,1.5378
3500.00,1.5597
3499.00,1.5810
3498.00,1.6018
3497.00,1.6221
3496.00,1.6422
3495.00,1.6620
3494.00,1.6814
3493.00,1.7001
3492.00,1.7181
3491.00,1.7351
3490.00,1.7512
3489.00,1.7668
3488.00,1.7820
3487.00,1.7970
3486.00,1.8118
3485.00,1.8260
3484.00,1.8396
3483.00,1.8524
3482.00,1.8643
3481.00,1.8755
3480.00,1.8860
3479.00,1.8959
3478.00,1.9052
3477.00,1.9142
3476.00,1.9231
3475.00,1.9322
3474.00,1.9410
3473.00,1.9489
3472.00,1.9556
3471.00,1.9612
3470.00,1.9661
3469.00,1.9708
3468.00,1.9755
3467.00,1.9800
3466.00,1.9838
3465.00,1.9870
3464.00,1.9897
3463.00,1.9924
3462.00,1.9952
3461.00,1.9979
3460.00,1.9999
3459.00,2.0008
3458.00,2.0008
3457.00,2.0002
3456.00,1.9992
3455.00,1.9978
3454.00,1.9958
3453.00,1.9934
3452.00,1.9907
3451.00,1.9879
3450.00,1.9843
3449.00,1.9800
3448.00,1.9750
3447.00,1.9695
3446.00,1.9638
3445.00,1.9577
3444.00,1.9513
3443.00,1.9444
3442.00,1.9370
3441.00,1.9293
3440.00,1.9212
3439.00,1.9124
3438.00,1.9027
3437.00,1.8922
3436.00,1.8811
3435.00,1.8693
3434.00,1.8570
3433.00,1.8440
3432.00,1.8305
3431.00,1.8163
3430.00,1.8012
3429.00,1.7853
3428.00,1.7685
3427.00,1.7511
3426.00,1.7334
3425.00,1.7153
3424.00,1.6966
3423.00,1.6770
3422.00,1.6564
3421.00,1.6347
3420.00,1.6123
3419.00,1.5891
3418.00,1.5651
3417.00,1.5403
3416.00,1.5150
3415.00,1.4892
3414.00,1.4632
3413.00,1.4370
3412.00,1.4106
3411.00,1.3843
3410.00,1.3583
3409.00,1.3326
3408.00,1.3074
3407.00,1.2827
3406.00,1.2588
3405.00,1.2356
3404.00,1.2134
3403.00,1.1922
3402.00,1.1723
3401.00,1.1536
3400.00,1.1365
3399.00,1.1208
3398.00,1.1067
3397.00,1.0941
3396.00,1.0835
3395.00,1.0749
3394.00,1.0685
3393.00,1.0645
3392.00,1.0629
3391.00,1.0636
3390.00,1.0668
3389.00,1.0724
3388.00,1.0804
3387.00,1.0909
3386.00,1.1036
3385.00,1.1187
3384.00,1.1357
3383.00,1.1547
3382.00,1.1754
3381.00,1.1976
3380.00,1.2212
3379.00,1.2461
3378.00,1.2719
3377.00,1.2985
3376.00,1.3256
3375.00,1.3531
3374.00,1.3809
3373.00,1.4086
3372.00,1.4362
3371.00,1.4636
3370.00,1.4907
3369.00,1.5173
3368.00,1.5434
3367.00,1.5690
3366.00,1.5940
3365.00,1.6183
3364.00,1.6420
3363.00,1.6651
3362.00,1.6874
3361.00,1.7090
3360.00,1.7297
3359.00,1.7495
3358.00,1.7685
3357.00,1.7867
3356.00,1.8041
3355.00,1.8209
3354.00,1.8369
3353.00,1.8522
3352.00,1.8671
3351.00,1.8814
3350.00,1.8951
3349.00,1.9077
3348.00,1.9193
3347.00,1.9303
3346.00,1.9410
3345.00,1.9516
3344.00,1.9618
3343.00,1.9714
3342.00,1.9804
3341.00,1.9891
3340.00,1.9974
3339.00,2.0049
3338.00,2.0112
3337.00,2.0164
3336.00,2.0211
3335.00,2.0259
3334.00,2.0310
3333.00,2.0361
3332.00,2.0409
3331.00,2.0445
3330.00,2.0470
3329.00,2.0487
3328.00,2.0501
3327.00,2.0516
3326.00,2.0527
3325.00,2.0534
3324.00,2.0537
3323.00,2.0536
3322.00,2.0527
3321.00,2.0508
3320.00,2.0482
3319.00,2.0454
3318.00,2.0425
3317.00,2.0395
3316.00,2.0359
3315.00,2.0319
3314.00,2.0274
3313.00,2.0223
3312.00,2.0165
3311.00,2.0102
3310.00,2.0035
3309.00,1.9967
3308.00,1.9896
3307.00,1.9819
3306.00,1.9732
3305.00,1.9636
3304.00,1.9533
3303.00,1.9425
3302.00,1.9313
3301.00,1.9197
3300.00,1.9078
3299.00,1.8955
3298.00,1.8826
3297.00,1.8689
3296.00,1.8541
3295.00,1.8383
3294.00,1.8218
3293.00,1.8048
3292.00,1.7872
3291.00,1.7688
3290.00,1.7493
3289.00,1.7289
3288.00,1.7079
3287.00,1.6862
3286.00,1.6640
3285.00,1.6409
3284.00,1.6168
3283.00,1.5919
3282.00,1.5661
3281.00,1.5397
3280.00,1.5129
3279.00,1.4858
3278.00,1.4583
3277.00,1.4306
3276.00,1.4026
3275.00,1.3745
3274.00,1.3467
3273.00,1.3194
3272.00,1.2929
3271.00,1.2674
3270.00,1.2430
3269.00,1.2199
3268.00,1.1983
3267.00,1.1784
3266.00,1.1602
3265.00,1.1441
3264.00,1.1300
3263.00,1.1183
3262.00,1.1089
3261.00,1.1019
3260.00,1.0975
3259.00,1.0957
3258.00,1.0965
3257.00,1.1000
3256.00,1.1060
3255.00,1.1147
3254.00,1.1258
3253.00,1.1394
3252.00,1.1554
3251.00,1.1736
3250.00,1.1939
3249.00,1.2161
3248.00,1.2401
3247.00,1.2655
3246.00,1.2921
3245.00,1.3196
3244.00,1.3477
3243.00,1.3761
3242.00,1.4048
3241.00,1.4336
3240.00,1.4626
3239.00,1.4915
3238.00,1.5201
3237.00,1.5484
3236.00,1.5761
3235.00,1.6034
3234.00,1.6300
3233.00,1.6559
3232.00,1.6808
3231.00,1.7049
3230.00,1.7281
3229.00,1.7506
3228.00,1.7725
3227.00,1.7937
3226.00,1.8140
3225.00,1.8334
3224.00,1.8522
3223.00,1.8706
3222.00,1.8884
3221.00,1.9054
3220.00,1.9214
3219.00,1.9366
3218.00,1.9511
3217.00,1.9649
3216.00,1.9781
3215.00,1.9906
3214.00,2.0024
3213.00,2.0139
3212.00,2.0251
3211.00,2.0362
3210.00,2.0467
3209.00,2.0566
3208.00,2.0657
3207.00,2.0741
3206.00,2.0820
3205.00,2.0893
3204.00,2.0958
3203.00,2.1012
3202.00,2.1057
3201.00,2.1096
3200.00,2.1133
3199.00,2.1167
3198.00,2.1194
3197.00,2.1215
3196.00,2.1231
3195.00,2.1242
3194.00,2.1250
3193.00,2.1257
3192.00,2.1265
3191.00,2.1275
3190.00,2.1284
3189.00,2.1285
3188.00,2.1274
3187.00,2.1252
3186.00,2.1223
3185.00,2.1191
3184.00,2.1157
3183.00,2.1121
3182.00,2.1083
3181.00,2.1041
3180.00,2.0992
3179.00,2.0935
3178.00,2.0869
3177.00,2.0798
3176.00,2.0723
3175.00,2.0645
3174.00,2.0563
3173.00,2.0477
3172.00,2.0392
3171.00,2.0315
3170.00,2.0254
3169.00,2.0216
3168.00,2.0207
3167.00,2.0225
3166.00,2.0262
3165.00,2.0302
3164.00,2.0325
3163.00,2.0309
3162.00,2.0241
3161.00,2.0120
3160.00,1.9954
3159.00,1.9758
3158.00,1.9543
3157.00,1.9316
3156.00,1.9082
3155.00,1.8841
3154.00,1.8595
3153.00,1.8347
3152.00,1.8098
3151.00,1.7847
3150.00,1.7592
3149.00,1.7332
3148.00,1.7068
3147.00,1.6799
3146.00,1.6526
3145.00,1.6248
3144.00,1.5965
3143.00,1.5677
3142.00,1.5386
3141.00,1.5095
3140.00,1.4806
3139.00,1.4523
3138.00,1.4246
3137.00,1.3979
3136.00,1.3722
3135.00,1.3479
3134.00,1.3250
3133.00,1.3037
3132.00,1.2845
3131.00,1.2673
3130.00,1.2522
3129.00,1.2395
3128.00,1.2293
3127.00,1.2216
3126.00,1.2166
3125.00,1.2142
3124.00,1.2146
3123.00,1.2176
3122.00,1.2235
3121.00,1.2320
3120.00,1.2433
3119.00,1.2572
3118.00,1.2735
3117.00,1.2919
3116.00,1.3123
3115.00,1.3343
3114.00,1.3578
3113.00,1.3823
3112.00,1.4078
3111.00,1.4341
3110.00,1.4610
3109.00,1.4884
3108.00,1.5161
3107.00,1.5440
3106.00,1.5718
3105.00,1.5995
3104.00,1.6270
3103.00,1.6540
3102.00,1.6807
3101.00,1.7068
3100.00,1.7325
3099.00,1.7574
3098.00,1.7815
3097.00,1.8048
3096.00,1.8278
3095.00,1.8502
3094.00,1.8720
3093.00,1.8926
3092.00,1.9119
3091.00,1.9304
3090.00,1.9484
3089.00,1.9663
3088.00,1.9838
3087.00,2.0004
3086.00,2.0157
3085.00,2.0298
3084.00,2.0432
3083.00,2.0563
3082.00,2.0694
3081.00,2.0822
3080.00,2.0944
3079.00,2.1055
3078.00,2.1156
3077.00,2.1252
3076.00,2.1343
3075.00,2.1428
3074.00,2.1506
3073.00,2.1579
3072.00,2.1647
3071.00,2.1711
3070.00,2.1773
3069.00,2.1835
3068.00,2.1899
3067.00,2.1962
3066.00,2.2016
3065.00,2.2056
3064.00,2.2084
3063.00,2.2108
3062.00,2.2132
3061.00,2.2157
3060.00,2.2179
3059.00,2.2191
3058.00,2.2193
3057.00,2.2191
3056.00,2.2192
3055.00,2.2192
3054.00,2.2184
3053.00,2.2162
3052.00,2.2132
3051.00,2.2100
3050.00,2.2067
3049.00,2.2032
3048.00,2.1992
3047.00,2.1946
3046.00,2.1897
3045.00,2.1847
3044.00,2.1793
3043.00,2.1733
3042.00,2.1663
3041.00,2.1584
3040.00,2.1498
3039.00,2.1411
3038.00,2.1324
3037.00,2.1235
3036.00,2.1140
3035.00,2.1037
3034.00,2.0926
3033.00,2.0810
3032.00,2.0690
3031.00,2.0564
3030.00,2.0431
3029.00,2.0291
3028.00,2.0147
3027.00,2.0001
3026.00,1.9852
3025.00,1.9703
3024.00,1.9553
3023.00,1.9403
3022.00,1.9253
3021.00,1.9109
3020.00,1.8973
3019.00,1.8845
3018.00,1.8725
3017.00,1.8612
3016.00,1.8509
3015.00,1.8420
3014.00,1.8348
3013.00,1.8294
3012.00,1.8258
3011.00,1.8239
3010.00,1.8235
3009.00,1.8244
3008.00,1.8263
3007.00,1.8290
3006.00,1.8319
3005.00,1.8347
3004.00,1.8368
3003.00,1.8372
3002.00,1.8355
3001.00,1.8311
3000.00,1.8242
2999.00,1.8149
2998.00,1.8036
2997.00,1.7907
2996.00,1.7765
2995.00,1.7611
2994.00,1.7451
2993.00,1.7291
2992.00,1.7139
2991.00,1.7004
2990.00,1.6892
2989.00,1.6808
2988.00,1.6754
2987.00,1.6733
2986.00,1.6745
2985.00,1.6795
2984.00,1.6883
2983.00,1.7010
2982.00,1.7171
2981.00,1.7362
2980.00,1.7580
2979.00,1.7820
2978.00,1.8081
2977.00,1.8358
2976.00,1.8649
2975.00,1.8950
2974.00,1.9255
2973.00,1.9558
2972.00,1.9857
2971.00,2.0151
2970.00,2.0437
2969.00,2.0716
2968.00,2.0983
2967.00,2.1239
2966.00,2.1478
2965.00,2.1701
2964.00,2.1909
2963.00,2.2110
2962.00,2.2305
2961.00,2.2493
2960.00,2.2674
2959.00,2.2851
2958.00,2.3031
2957.00,2.3218
2956.00,2.3414
2955.00,2.3612
2954.00,2.3804
2953.00,2.3985
2952.00,2.4160
2951.00,2.4338
2950.00,2.4525
2949.00,2.4722
2948.00,2.4918
2947.00,2.5098
2946.00,2.5247
2945.00,2.5351
2944.00,2.5396
2943.00,2.5367
2942.00,2.5248
2941.00,2.5046
2940.00,2.4794
2939.00,2.4537
2938.00,2.4307
2937.00,2.4110
2936.00,2.3937
2935.00,2.3780
2934.00,2.3637
2933.00,2.3510
2932.00,2.3402
2931.00,2.3316
2930.00,2.3253
2929.00,2.3206
2928.00,2.3170
2927.00,2.3144
2926.00,2.3132
2925.00,2.3134
2924.00,2.3146
2923.00,2.3156
2922.00,2.3163
2921.00,2.3175
2920.00,2.3198
2919.00,2.3231
2918.00,2.3261
2917.00,2.3284
2916.00,2.3302
2915.00,2.3323
2914.00,2.3350
2913.00,2.3378
2912.00,2.3405
2911.00,2.3430
2910.00,2.3453
2909.00,2.3472
2908.00,2.3484
2907.00,2.3486
2906.00,2.3481
2905.00,2.3470
2904.00,2.3459
2903.00,2.3451
2902.00,2.3446
2901.00,2.3434
2900.00,2.3405
2899.00,2.3358
2898.00,2.3301
2897.00,2.3245
2896.00,2.3196
2895.00,2.3149
2894.00,2.3094
2893.00,2.3023
2892.00,2.2941
2891.00,2.2855
2890.00,2.2772
2889.00,2.2689
2888.00,2.2598
2887.00,2.2494
2886.00,2.2378
2885.00,2.2253
2884.00,2.2124
2883.00,2.1995
2882.00,2.1873
2881.00,2.1759
2880.00,2.1649
2879.00,2.1542
2878.00,2.1437
2877.00,2.1341
2876.00,2.1257
2875.00,2.1186
2874.00,2.1130
2873.00,2.1088
2872.00,2.1057
2871.00,2.1034
2870.00,2.1011
2869.00,2.0980
2868.00,2.0934
2867.00,2.0871
2866.00,2.0791
2865.00,2.0693
2864.00,2.0573
2863.00,2.0426
2862.00,2.0250
2861.00,2.0049
2860.00,1.9820
2859.00,1.9562
2858.00,1.9273
2857.00,1.8955
2856.00,1.8612
2855.00,1.8245
2854.00,1.7860
2853.00,1.7462
2852.00,1.7057
2851.00,1.6650
2850.00,1.6246
2849.00,1.5848
2848.00,1.5461
2847.00,1.5091
2846.00,1.4742
2845.00,1.4419
2844.00,1.4126
2843.00,1.3867
2842.00,1.3644
2841.00,1.3459
2840.00,1.3311
2839.00,1.3202
2838.00,1.3132
2837.00,1.3103
2836.00,1.3114
2835.00,1.3165
2834.00,1.3255
2833.00,1.3381
2832.00,1.3542
2831.00,1.3736
2830.00,1.3958
2829.00,1.4205
2828.00,1.4476
2827.00,1.4766
2826.00,1.5073
2825.00,1.5392
2824.00,1.5720
2823.00,1.6055
2822.00,1.6393
2821.00,1.6733
2820.00,1.7071
2819.00,1.7406
2818.00,1.7734
2817.00,1.8053
2816.00,1.8364
2815.00,1.8666
2814.00,1.8957
2813.00,1.9238
2812.00,1.9506
2811.00,1.9765
2810.00,2.0015
2809.00,2.0256
2808.00,2.0486
2807.00,2.0704
2806.00,2.0912
2805.00,2.1112
2804.00,2.1305
2803.00,2.1486
2802.00,2.1655
2801.00,2.1812
2800.00,2.1957
2799.00,2.2095
2798.00,2.2230
2797.00,2.2364
2796.00,2.2492
2795.00,2.2608
2794.00,2.2713
2793.00,2.2817
2792.00,2.2922
2791.00,2.3025
2790.00,2.3118
2789.00,2.3202
2788.00,2.3281
2787.00,2.3356
2786.00,2.3419
2785.00,2.3466
2784.00,2.3503
2783.00,2.3538
2782.00,2.3576
2781.00,2.3618
2780.00,2.3663
2779.00,2.3705
2778.00,2.3738
2777.00,2.3755
2776.00,2.3761
2775.00,2.3764
2774.00,2.3767
2773.00,2.3768
2772.00,2.3762
2771.00,2.3750
2770.00,2.3735
2769.00,2.3715
2768.00,2.3691
2767.00,2.3660
2766.00,2.3621
2765.00,2.3575
2764.00,2.3521
2763.00,2.3462
2762.00,2.3397
2761.00,2.3326
2760.00,2.3250
2759.00,2.3169
2758.00,2.3086
2757.00,2.3006
2756.00,2.2927
2755.00,2.2844
2754.00,2.2748
2753.00,2.2639
2752.00,2.2517
2751.00,2.2388
2750.00,2.2255
2749.00,2.2119
2748.00,2.1977
2747.00,2.1823
2746.00,2.1655
2745.00,2.1472
2744.00,2.1278
2743.00,2.1075
2742.00,2.0865
2741.00,2.0650
2740.00,2.0429
2739.00,2.0199
2738.00,1.9959
2737.00,1.9706
2736.00,1.9437
2735.00,1.9154
2734.00,1.8853
2733.00,1.8536
2732.00,1.8203
2731.00,1.7855
2730.00,1.7493
2729.00,1.7116
2728.00,1.6725
2727.00,1.6318
2726.00,1.5898
2725.00,1.5466
2724.00,1.5029
2723.00,1.4592
2722.00,1.4161
2721.00,1.3740
2720.00,1.3334
2719.00,1.2948
2718.00,1.2588
2717.00,1.2256
2716.00,1.1959
2715.00,1.1699
2714.00,1.1479
2713.00,1.1302
2712.00,1.1171
2711.00,1.1088
2710.00,1.1056
2709.00,1.1075
2708.00,1.1148
2707.00,1.1273
2706.00,1.1452
2705.00,1.1681
2704.00,1.1958
2703.00,1.2280
2702.00,1.2640
2701.00,1.3031
2700.00,1.3446
2699.00,1.3878
2698.00,1.4322
2697.00,1.4773
2696.00,1.5225
2695.00,1.5673
2694.00,1.6114
2693.00,1.6547
2692.00,1.6971
2691.00,1.7384
2690.00,1.7783
2689.00,1.8167
2688.00,1.8534
2687.00,1.8884
2686.00,1.9218
2685.00,1.9537
2684.00,1.9843
2683.00,2.0134
2682.00,2.0407
2681.00,2.0663
2680.00,2.0907
2679.00,2.1140
2678.00,2.1362
2677.00,2.1570
2676.00,2.1767
2675.00,2.1958
2674.00,2.2143
2673.00,2.2317
2672.00,2.2477
2671.00,2.2624
2670.00,2.2764
2669.00,2.2899
2668.00,2.3029
2667.00,2.3154
2666.00,2.3275
2665.00,2.3394
2664.00,2.3513
2663.00,2.3628
2662.00,2.3739
2661.00,2.3843
2660.00,2.3938
2659.00,2.4024
2658.00,2.4105
2657.00,2.4184
2656.00,2.4259
2655.00,2.4325
2654.00,2.4380
2653.00,2.4429
2652.00,2.4477
2651.00,2.4524
2650.00,2.4565
2649.00,2.4597
2648.00,2.4618
2647.00,2.4627
2646.00,2.4630
2645.00,2.4635
2644.00,2.4643
2643.00,2.4648
2642.00,2.4646
2641.00,2.4636
2640.00,2.4624
2639.00,2.4614
2638.00,2.4601
2637.00,2.4581
2636.00,2.4554
2635.00,2.4518
2634.00,2.4477
2633.00,2.4434
2632.00,2.4395
2631.00,2.4364
2630.00,2.4338
2629.00,2.4306
2628.00,2.4263
2627.00,2.4208
2626.00,2.4144
2625.00,2.4077
2624.00,2.4006
2623.00,2.3929
2622.00,2.3839
2621.00,2.3733
2620.00,2.3616
2619.00,2.3491
2618.00,2.3358
2617.00,2.3216
2616.00,2.3066
2615.00,2.2909
2614.00,2.2743
2613.00,2.2567
2612.00,2.2379
2611.00,2.2186
2610.00,2.1990
2609.00,2.1790
2608.00,2.1579
2607.00,2.1352
2606.00,2.1109
2605.00,2.0848
2604.00,2.0572
2603.00,2.0283
2602.00,1.9983
2601.00,1.9669
2600.00,1.9337
2599.00,1.8986
2598.00,1.8615
2597.00,1.8224
2596.00,1.7811
2595.00,1.7379
2594.00,1.6931
2593.00,1.6470
2592.00,1.6000
2591.00,1.5524
2590.00,1.5046
2589.00,1.4573
2588.00,1.4112
2587.00,1.3668
2586.00,1.3249
2585.00,1.2860
2584.00,1.2507
2583.00,1.2194
2582.00,1.1926
2581.00,1.1704
2580.00,1.1533
2579.00,1.1413
2578.00,1.1349
2577.00,1.1342
2576.00,1.1392
2575.00,1.1501
2574.00,1.1668
2573.00,1.1891
2572.00,1.2169
2571.00,1.2496
2570.00,1.2865
2569.00,1.3270
2568.00,1.3703
2567.00,1.4157
2566.00,1.4625
2565.00,1.5100
2564.00,1.5577
2563.00,1.6051
2562.00,1.6518
2561.00,1.6976
2560.00,1.7421
2559.00,1.7852
2558.00,1.8265
2557.00,1.8663
2556.00,1.9044
2555.00,1.9412
2554.00,1.9767
2553.00,2.0109
2552.00,2.0435
2551.00,2.0744
2550.00,2.1036
2549.00,2.1312
2548.00,2.1575
2547.00,2.1827
2546.00,2.2068
2545.00,2.2293
2544.00,2.2503
2543.00,2.2699
2542.00,2.2886
2541.00,2.3068
2540.00,2.3242
2539.00,2.3408
2538.00,2.3566
2537.00,2.3717
2536.00,2.3860
2535.00,2.3994
2534.00,2.4120
2533.00,2.4244
2532.00,2.4369
2531.00,2.4497
2530.00,2.4625
2529.00,2.4746
2528.00,2.4851
2527.00,2.4937
2526.00,2.5006
2525.00,2.5065
2524.00,2.5124
2523.00,2.5191
2522.00,2.5268
2521.00,2.5346
2520.00,2.5413
2519.00,2.5461
2518.00,2.5494
2517.00,2.5520
2516.00,2.5541
2515.00,2.5557
2514.00,2.5576
2513.00,2.5601
2512.00,2.5626
2511.00,2.5635
2510.00,2.5617
2509.00,2.5584
2508.00,2.5559
2507.00,2.5553
2506.00,2.5555
2505.00,2.5547
2504.00,2.5520
2503.00,2.5486
2502.00,2.5459
2501.00,2.5442
2500.00,2.5422
2499.00,2.5387
2498.00,2.5335
2497.00,2.5272
2496.00,2.5204
2495.00,2.5134
2494.00,2.5063
2493.00,2.4985
2492.00,2.4898
2491.00,2.4807
2490.00,2.4712
2489.00,2.4610
2488.00,2.4494
2487.00,2.4361
2486.00,2.4221
2485.00,2.4085
2484.00,2.3956
2483.00,2.3826
2482.00,2.3683
2481.00,2.3525
2480.00,2.3353
2479.00,2.3173
2478.00,2.2988
2477.00,2.2795
2476.00,2.2592
2475.00,2.2375
2474.00,2.2144
2473.00,2.1899
2472.00,2.1639
2471.00,2.1366
2470.00,2.1080
2469.00,2.0779
2468.00,2.0460
2467.00,2.0121
2466.00,1.9761
2465.00,1.9387
2464.00,1.8998
2463.00,1.8594
2462.00,1.8171
2461.00,1.7731
2460.00,1.7278
2459.00,1.6813
2458.00,1.6342
2457.00,1.5873
2456.00,1.5412
2455.00,1.4968
2454.00,1.4546
2453.00,1.4152
2452.00,1.3793
2451.00,1.3474
2450.00,1.3200
2449.00,1.2975
2448.00,1.2802
2447.00,1.2683
2446.00,1.2620
2445.00,1.2613
2444.00,1.2663
2443.00,1.2771
2442.00,1.2934
2441.00,1.3152
2440.00,1.3423
2439.00,1.3741
2438.00,1.4102
2437.00,1.4497
2436.00,1.4919
2435.00,1.5363
2434.00,1.5823
2433.00,1.6291
2432.00,1.6762
2431.00,1.7230
2430.00,1.7692
2429.00,1.8143
2428.00,1.8583
2427.00,1.9011
2426.00,1.9423
2425.00,1.9819
2424.00,2.0197
2423.00,2.0558
2422.00,2.0901
2421.00,2.1225
2420.00,2.1535
2419.00,2.1831
2418.00,2.2111
2417.00,2.2372
2416.00,2.2615
2415.00,2.2848
2414.00,2.3076
2413.00,2.3297
2412.00,2.3501
2411.00,2.3688
2410.00,2.3862
2409.00,2.4030
2408.00,2.4191
2407.00,2.4344
2406.00,2.4490
2405.00,2.4630
2404.00,2.4765
2403.00,2.4896
2402.00,2.5019
2401.00,2.5133
2400.00,2.5237
2399.00,2.5340
2398.00,2.5454
2397.00,2.5580
2396.00,2.5707
2395.00,2.5818
2394.00,2.5903
2393.00,2.5961
2392.00,2.6005
2391.00,2.6056
2390.00,2.6135
2389.00,2.6250
2388.00,2.6389
2387.00,2.6535
2386.00,2.6689
2385.00,2.6874
2384.00,2.7123
2383.00,2.7456
2382.00,2.7873
2381.00,2.8369
2380.00,2.8887
2379.00,2.9552
2378.00,3.0063
2377.00,3.1134
2376.00,3.1271
2375.00,3.4422
2374.00,2.7269
2373.00,2.6237
2372.00,2.6572
2371.00,2.6344
2370.00,2.6405
2369.00,2.6320
2368.00,2.6322
2367.00,2.6274
2366.00,2.6224
2365.00,2.6165
2364.00,2.6102
2363.00,2.6028
2362.00,2.5941
2361.00,2.5851
2360.00,2.5762
2359.00,2.5666
2358.00,2.5564
2357.00,2.5465
2356.00,2.5373
2355.00,2.5272
2354.00,2.5156
2353.00,2.4988
2352.00,2.4857
2351.00,2.4648
2350.00,2.4591
2349.00,2.4238
2348.00,2.5625
2347.00,2.6113
2346.00,2.5830
2345.00,2.5600
2344.00,2.5037
2343.00,2.4581
2342.00,2.4351
2341.00,2.4379
2340.00,2.4335
2339.00,2.4165
2338.00,2.3919
2337.00,2.3650
2336.00,2.3362
2335.00,2.3086
2334.00,2.2888
2333.00,2.2796
2332.00,2.2786
2331.00,2.2784
2330.00,2.2745
2329.00,2.2676
2328.00,2.2641
2327.00,2.2572
2326.00,2.2508
2325.00,2.2409
2324.00,2.2364
2323.00,2.2360
2322.00,2.2364
2321.00,2.2352
2320.00,2.2291
2319.00,2.2246
2318.00,2.2222
2317.00,2.2247
2316.00,2.2285
2315.00,2.2315
2314.00,2.2321
2313.00,2.2310
2312.00,2.2309
2311.00,2.2344
2310.00,2.2447
2309.00,2.2616
2308.00,2.2852
2307.00,2.3128
2306.00,2.3443
2305.00,2.3784
2304.00,2.4147
2303.00,2.4511
2302.00,2.4859
2301.00,2.5184
2300.00,2.5489
2299.00,2.5781
2298.00,2.6063
2297.00,2.6321
2296.00,2.6535
2295.00,2.6657
2294.00,2.6643
2293.00,2.6451
2292.00,2.6093
2291.00,2.5615
2290.00,2.5102
2289.00,2.4624
2288.00,2.4243
2287.00,2.3986
2286.00,2.3862
2285.00,2.3861
2284.00,2.3961
2283.00,2.4131
2282.00,2.4340
2281.00,2.4569
2280.00,2.4803
2279.00,2.5033
2278.00,2.5245
2277.00,2.5439
2276.00,2.5625
2275.00,2.5822
2274.00,2.6032
2273.00,2.6241
2272.00,2.6431
2271.00,2.6600
2270.00,2.6754
2269.00,2.6902
2268.00,2.7059
2267.00,2.7232
2266.00,2.7416
2265.00,2.7584
2264.00,2.7718
2263.00,2.7827
2262.00,2.7945
2261.00,2.8114
2260.00,2.8389
2259.00,2.8846
2258.00,2.9573
2257.00,3.0642
2256.00,3.2085
2255.00,3.3865
2254.00,3.5746
2253.00,3.7026
2252.00,3.6774
2251.00,3.5217
2250.00,3.3326
2249.00,3.1591
2248.00,3.0122
2247.00,2.8915
2246.00,2.7953
2245.00,2.7224
2244.00,2.6724
2243.00,2.6435
2242.00,2.6322
2241.00,2.6341
2240.00,2.6445
2239.00,2.6600
2238.00,2.6781
2237.00,2.6972
2236.00,2.7155
2235.00,2.7313
2234.00,2.7432
2233.00,2.7508
2232.00,2.7553
2231.00,2.7593
2230.00,2.7648
2229.00,2.7709
2228.00,2.7755
2227.00,2.7769
2226.00,2.7756
2225.00,2.7728
2224.00,2.7691
2223.00,2.7648
2222.00,2.7608
2221.00,2.7582
2220.00,2.7565
2219.00,2.7538
2218.00,2.7480
2217.00,2.7391
2216.00,2.7292
2215.00,2.7202
2214.00,2.7118
2213.00,2.7030
2212.00,2.6932
2211.00,2.6828
2210.00,2.6723
2209.00,2.6611
2208.00,2.6483
2207.00,2.6341
2206.00,2.6196
2205.00,2.6054
2204.00,2.5912
2203.00,2.5763
2202.00,2.5602
2201.00,2.5429
2200.00,2.5239
2199.00,2.5032
2198.00,2.4810
2197.00,2.4578
2196.00,2.4329
2195.00,2.4056
2194.00,2.3761
2193.00,2.3454
2192.00,2.3140
2191.00,2.2812
2190.00,2.2460
2189.00,2.2082
2188.00,2.1679
2187.00,2.1254
2186.00,2.0803
2185.00,2.0326
2184.00,1.9824
2183.00,1.9298
2182.00,1.8750
2181.00,1.8186
2180.00,1.7611
2179.00,1.7033
2178.00,1.6462
2177.00,1.5908
2176.00,1.5381
2175.00,1.4891
2174.00,1.4447
2173.00,1.4057
2172.00,1.3729
2171.00,1.3469
2170.00,1.3282
2169.00,1.3174
2168.00,1.3150
2167.00,1.3211
2166.00,1.3358
2165.00,1.3592
2164.00,1.3908
2163.00,1.4300
2162.00,1.4758
2161.00,1.5268
2160.00,1.5815
2159.00,1.6387
2158.00,1.6970
2157.00,1.7555
2156.00,1.8135
2155.00,1.8703
2154.00,1.9254
2153.00,1.9781
2152.00,2.0283
2151.00,2.0761
2150.00,2.1218
2149.00,2.1657
2148.00,2.2075
2147.00,2.2472
2146.00,2.2846
2145.00,2.3196
2144.00,2.3519
2143.00,2.3819
2142.00,2.4104
2141.00,2.4377
2140.00,2.4636
2139.00,2.4876
2138.00,2.5107
2137.00,2.5340
2136.00,2.5579
2135.00,2.5811
2134.00,2.6021
2133.00,2.6206
2132.00,2.6373
2131.00,2.6529
2130.00,2.6676
2129.00,2.6818
2128.00,2.6963
2127.00,2.7115
2126.00,2.7263
2125.00,2.7392
2124.00,2.7499
2123.00,2.7597
2122.00,2.7696
2121.00,2.7797
2120.00,2.7890
2119.00,2.7968
2118.00,2.8028
2117.00,2.8078
2116.00,2.8138
2115.00,2.8224
2114.00,2.8327
2113.00,2.8419
2112.00,2.8474
2111.00,2.8495
2110.00,2.8503
2109.00,2.8515
2108.00,2.8546
2107.00,2.8601
2106.00,2.8662
2105.00,2.8697
2104.00,2.8689
2103.00,2.8655
2102.00,2.8626
2101.00,2.8610
2100.00,2.8595
2099.00,2.8575
2098.00,2.8560
2097.00,2.8558
2096.00,2.8561
2095.00,2.8550
2094.00,2.8523
2093.00,2.8488
2092.00,2.8448
2091.00,2.8401
2090.00,2.8342
2089.00,2.8269
2088.00,2.8184
2087.00,2.8096
2086.00,2.8013
2085.00,2.7936
2084.00,2.7860
2083.00,2.7772
2082.00,2.7665
2081.00,2.7544
2080.00,2.7421
2079.00,2.7302
2078.00,2.7177
2077.00,2.7029
2076.00,2.6860
2075.00,2.6690
2074.00,2.6538
2073.00,2.6401
2072.00,2.6265
2071.00,2.6116
2070.00,2.5946
2069.00,2.5752
2068.00,2.5535
2067.00,2.5308
2066.00,2.5082
2065.00,2.4859
2064.00,2.4626
2063.00,2.4366
2062.00,2.4079
2061.00,2.3768
2060.00,2.3438
2059.00,2.3085
2058.00,2.2709
2057.00,2.2311
2056.00,2.1893
2055.00,2.1453
2054.00,2.0985
2053.00,2.0486
2052.00,1.9959
2051.00,1.9407
2050.00,1.8836
2049.00,1.8251
2048.00,1.7658
2047.00,1.7068
2046.00,1.6494
2045.00,1.5949
2044.00,1.5447
2043.00,1.5000
2042.00,1.4616
2041.00,1.4301
2040.00,1.4055
2039.00,1.3877
2038.00,1.3773
2037.00,1.3755
2036.00,1.3830
2035.00,1.3999
2034.00,1.4257
2033.00,1.4596
2032.00,1.5010
2031.00,1.5488
2030.00,1.6016
2029.00,1.6583
2028.00,1.7174
2027.00,1.7774
2026.00,1.8371
2025.00,1.8959
2024.00,1.9535
2023.00,2.0094
2022.00,2.0630
2021.00,2.1139
2020.00,2.1619
2019.00,2.2076
2018.00,2.2521
2017.00,2.2957
2016.00,2.3372
2015.00,2.3745
2014.00,2.4071
2013.00,2.4368
2012.00,2.4659
2011.00,2.4951
2010.00,2.5239
2009.00,2.5514
2008.00,2.5769
2007.00,2.5997
2006.00,2.6203
2005.00,2.6399
2004.00,2.6601
2003.00,2.6808
2002.00,2.7011
2001.00,2.7203
2000.00,2.7386
1999.00,2.7562
1998.00,2.7731
1997.00,2.7893
1996.00,2.8052
1995.00,2.8209
1994.00,2.8360
1993.00,2.8504
1992.00,2.8642
1991.00,2.8763
1990.00,2.8855
1989.00,2.8921
1988.00,2.8988
1987.00,2.9070
1986.00,2.9148
1985.00,2.9198
1984.00,2.9223
1983.00,2.9248
1982.00,2.9295
1981.00,2.9361
1980.00,2.9441
1979.00,2.9533
1978.00,2.9623
1977.00,2.9680
1976.00,2.9687
1975.00,2.9662
1974.00,2.9644
1973.00,2.9656
1972.00,2.9686
1971.00,2.9705
1970.00,2.9704
1969.00,2.9703
1968.00,2.9727
1967.00,2.9775
1966.00,2.9820
1965.00,2.9831
1964.00,2.9797
1963.00,2.9727
1962.00,2.9640
1961.00,2.9559
1960.00,2.9497
1959.00,2.9450
1958.00,2.9399
1957.00,2.9328
1956.00,2.9249
1955.00,2.9178
1954.00,2.9117
1953.00,2.9053
1952.00,2.8977
1951.00,2.8893
1950.00,2.8800
1949.00,2.8690
1948.00,2.8565
1947.00,2.8441
1946.00,2.8326
1945.00,2.8212
1944.00,2.8096
1943.00,2.7983
1942.00,2.7873
1941.00,2.7743
1940.00,2.7568
1939.00,2.7349
1938.00,2.7111
1937.00,2.6873
1936.00,2.6632
1935.00,2.6379
1934.00,2.6117
1933.00,2.5856
1932.00,2.5601
1931.00,2.5341
1930.00,2.5064
1929.00,2.4765
1928.00,2.4446
1927.00,2.4107
1926.00,2.3742
1925.00,2.3351
1924.00,2.2949
1923.00,2.2548
1922.00,2.2133
1921.00,2.1662
1920.00,2.1118
1919.00,2.0527
1918.00,1.9934
1917.00,1.9351
1916.00,1.8754
1915.00,1.8128
1914.00,1.7497
1913.00,1.6902
1912.00,1.6364
1911.00,1.5887
1910.00,1.5477
1909.00,1.5146
1908.00,1.4893
1907.00,1.4709
1906.00,1.4599
1905.00,1.4579
1904.00,1.4661
1903.00,1.4850
1902.00,1.5140
1901.00,1.5521
1900.00,1.5979
1899.00,1.6498
1898.00,1.7062
1897.00,1.7663
1896.00,1.8291
1895.00,1.8934
1894.00,1.9571
1893.00,2.0176
1892.00,2.0741
1891.00,2.1289
1890.00,2.1847
1889.00,2.2409
1888.00,2.2936
1887.00,2.3395
1886.00,2.3797
1885.00,2.4176
1884.00,2.4556
1883.00,2.4928
1882.00,2.5278
1881.00,2.5598
1880.00,2.5894
1879.00,2.6171
1878.00,2.6431
1877.00,2.6678
1876.00,2.6920
1875.00,2.7173
1874.00,2.7436
1873.00,2.7681
1872.00,2.7881
1871.00,2.8053
1870.00,2.8241
1869.00,2.8466
1868.00,2.8699
1867.00,2.8902
1866.00,2.9059
1865.00,2.9176
1864.00,2.9273
1863.00,2.9372
1862.00,2.9482
1861.00,2.9595
1860.00,2.9709
1859.00,2.9836
1858.00,2.9980
1857.00,3.0110
1856.00,3.0190
1855.00,3.0228
1854.00,3.0253
1853.00,3.0277
1852.00,3.0295
1851.00,3.0311
1850.00,3.0348
1849.00,3.0427
1848.00,3.0534
1847.00,3.0632
1846.00,3.0689
1845.00,3.0704
1844.00,3.0714
1843.00,3.0759
1842.00,3.0830
1841.00,3.0867
1840.00,3.0850
1839.00,3.0815
1838.00,3.0800
1837.00,3.0810
1836.00,3.0837
1835.00,3.0883
1834.00,3.0920
1833.00,3.0895
1832.00,3.0785
1831.00,3.0647
1830.00,3.0552
1829.00,3.0507
1828.00,3.0465
1827.00,3.0410
1826.00,3.0377
1825.00,3.0384
1824.00,3.0389
1823.00,3.0334
1822.00,3.0198
1821.00,3.0024
1820.00,2.9873
1819.00,2.9786
1818.00,2.9745
1817.00,2.9693
1816.00,2.9597
1815.00,2.9484
1814.00,2.9387
1813.00,2.9287
1812.00,2.9141
1811.00,2.8939
1810.00,2.8707
1809.00,2.8468
1808.00,2.8242
1807.00,2.8043
1806.00,2.7858
1805.00,2.7659
1804.00,2.7445
1803.00,2.7252
1802.00,2.7079
1801.00,2.6867
1800.00,2.6552
1799.00,2.6144
1798.00,2.5713
1797.00,2.5312
1796.00,2.4938
1795.00,2.4549
1794.00,2.4110
1793.00,2.3625
1792.00,2.3127
1791.00,2.2641
1790.00,2.2138
1789.00,2.1562
1788.00,2.0918
1787.00,2.0265
1786.00,1.9658
1785.00,1.9113
1784.00,1.8611
1783.00,1.8122
1782.00,1.7652
1781.00,1.7261
1780.00,1.7003
1779.00,1.6877
1778.00,1.6855
1777.00,1.6929
1776.00,1.7109
1775.00,1.7377
1774.00,1.7720
1773.00,1.8157
1772.00,1.8701
1771.00,1.9314
1770.00,1.9952
1769.00,2.0615
1768.00,2.1310
1767.00,2.1992
1766.00,2.2566
1765.00,2.3007
1764.00,2.3406
1763.00,2.3866
1762.00,2.4413
1761.00,2.4989
1760.00,2.5503
1759.00,2.5912
1758.00,2.6272
1757.00,2.6674
1756.00,2.7131
1755.00,2.7545
1754.00,2.7849
1753.00,2.8117
1752.00,2.8454
1751.00,2.8852
1750.00,2.9214
1749.00,2.9481
1748.00,2.9681
1747.00,2.9866
1746.00,3.0047
1745.00,3.0237
1744.00,3.0434
1743.00,3.0607
1742.00,3.0724
1741.00,3.0800
1740.00,3.0898
1739.00,3.1071
1738.00,3.1303
1737.00,3.1534
1736.00,3.1740
1735.00,3.1927
1734.00,3.2106
1733.00,3.2284
1732.00,3.2421
1731.00,3.2470
1730.00,3.2488
1729.00,3.2547
1728.00,3.2635
1727.00,3.2689
1726.00,3.2708
1725.00,3.2761
1724.00,3.2888
1723.00,3.3061
1722.00,3.3210
1721.00,3.3280
1720.00,3.3296
1719.00,3.3384
1718.00,3.3726
1717.00,3.4430
1716.00,3.5457
1715.00,3.6685
1714.00,3.8033
1713.00,3.9347
1712.00,4.0225
1711.00,4.0390
1710.00,4.0096
1709.00,3.9646
1708.00,3.9122
1707.00,3.8539
1706.00,3.7939
1705.00,3.7299
1704.00,3.6492
1703.00,3.5487
1702.00,3.4418
1701.00,3.3460
1700.00,3.2729
1699.00,3.2237
1698.00,3.1924
1697.00,3.1780
1696.00,3.1853
1695.00,3.2081
1694.00,3.2281
1693.00,3.2342
1692.00,3.2322
1691.00,3.2314
1690.00,3.2336
1689.00,3.2362
1688.00,3.2363
1687.00,3.2308
1686.00,3.2205
1685.00,3.2093
1684.00,3.2015
1683.00,3.2019
1682.00,3.2081
1681.00,3.2131
1680.00,3.2154
1679.00,3.2148
1678.00,3.2094
1677.00,3.2013
1676.00,3.1946
1675.00,3.1893
1674.00,3.1815
1673.00,3.1672
1672.00,3.1462
1671.00,3.1233
1670.00,3.1039
1669.00,3.0887
1668.00,3.0750
1667.00,3.0593
1666.00,3.0406
1665.00,3.0198
1664.00,2.9963
1663.00,2.9697
1662.00,2.9431
1661.00,2.9207
1660.00,2.9011
1659.00,2.8797
1658.00,2.8556
1657.00,2.8290
1656.00,2.7987
1655.00,2.7631
1654.00,2.7224
1653.00,2.6782
1652.00,2.6408
1651.00,2.6139
1650.00,2.5806
1649.00,2.5362
1648.00,2.4908
1647.00,2.4488
1646.00,2.4116
1645.00,2.3800
1644.00,2.3506
1643.00,2.3194
1642.00,2.2869
1641.00,2.2560
1640.00,2.2267
1639.00,2.1964
1638.00,2.1652
1637.00,2.1356
1636.00,2.1112
1635.00,2.0955
1634.00,2.0912
1633.00,2.0935
1632.00,2.0950
1631.00,2.0962
1630.00,2.0993
1629.00,2.1050
1628.00,2.1139
1627.00,2.1276
1626.00,2.1465
1625.00,2.1706
1624.00,2.2010
1623.00,2.2389
1622.00,2.2828
1621.00,2.3275
1620.00,2.3674
1619.00,2.4018
1618.00,2.4364
1617.00,2.4768
1616.00,2.5249
1615.00,2.5759
1614.00,2.6214
1613.00,2.6585
1612.00,2.6913
1611.00,2.7222
1610.00,2.7490
1609.00,2.7727
1608.00,2.7986
1607.00,2.8298
1606.00,2.8635
1605.00,2.8951
1604.00,2.9227
1603.00,2.9475
1602.00,2.9733
1601.00,3.0023
1600.00,3.0322
1599.00,3.0580
1598.00,3.0785
1597.00,3.0978
1596.00,3.1189
1595.00,3.1386
1594.00,3.1524
1593.00,3.1624
1592.00,3.1737
1591.00,3.1863
1590.00,3.1960
1589.00,3.2023
1588.00,3.2092
1587.00,3.2197
1586.00,3.2327
1585.00,3.2460
1584.00,3.2576
1583.00,3.2664
1582.00,3.2735
1581.00,3.2815
1580.00,3.2882
1579.00,3.2883
1578.00,3.2819
1577.00,3.2774
1576.00,3.2849
1575.00,3.3080
1574.00,3.3393
1573.00,3.3659
1572.00,3.3775
1571.00,3.3687
1570.00,3.3435
1569.00,3.3172
1568.00,3.2999
1567.00,3.2871
1566.00,3.2751
1565.00,3.2725
1564.00,3.2862
1563.00,3.3079
1562.00,3.3214
1561.00,3.3223
1560.00,3.3198
1559.00,3.3202
1558.00,3.3222
1557.00,3.3215
1556.00,3.3111
1555.00,3.2953
1554.00,3.2856
1553.00,3.2819
1552.00,3.2754
1551.00,3.2640
1550.00,3.2560
1549.00,3.2562
1548.00,3.2611
1547.00,3.2650
1546.00,3.2659
1545.00,3.2629
1544.00,3.2504
1543.00,3.2198
1542.00,3.1713
1541.00,3.1177
1540.00,3.0767
1539.00,3.0595
1538.00,3.0613
1537.00,3.0625
1536.00,3.0518
1535.00,3.0342
1534.00,3.0150
1533.00,2.9962
1532.00,2.9777
1531.00,2.9572
1530.00,2.9343
1529.00,2.9118
1528.00,2.8931
1527.00,2.8788
1526.00,2.8657
1525.00,2.8482
1524.00,2.8228
1523.00,2.7928
1522.00,2.7675
1521.00,2.7531
1520.00,2.7442
1519.00,2.7262
1518.00,2.6965
1517.00,2.6681
1516.00,2.6505
1515.00,2.6387
1514.00,2.6234
1513.00,2.6051
1512.00,2.5906
1511.00,2.5822
1510.00,2.5776
1509.00,2.5755
1508.00,2.5773
1507.00,2.5812
1506.00,2.5821
1505.00,2.5816
1504.00,2.5850
1503.00,2.5931
1502.00,2.6078
1501.00,2.6303
1500.00,2.6571
1499.00,2.6836
1498.00,2.7101
1497.00,2.7412
1496.00,2.7788
1495.00,2.8188
1494.00,2.8531
1493.00,2.8810
1492.00,2.9108
1491.00,2.9499
1490.00,2.9971
1489.00,3.0426
1488.00,3.0762
1487.00,3.0969
1486.00,3.1117
1485.00,3.1280
1484.00,3.1499
1483.00,3.1764
1482.00,3.2055
1481.00,3.2361
1480.00,3.2672
1479.00,3.2982
1478.00,3.3300
1477.00,3.3620
1476.00,3.3904
1475.00,3.4129
1474.00,3.4331
1473.00,3.4598
1472.00,3.4935
1471.00,3.5199
1470.00,3.5245
1469.00,3.5109
1468.00,3.4961
1467.00,3.4941
1466.00,3.5082
1465.00,3.5323
1464.00,3.5540
1463.00,3.5665
1462.00,3.5779
1461.00,3.6005
1460.00,3.6362
1459.00,3.6726
1458.00,3.6953
1457.00,3.7118
1456.00,3.7463
1455.00,3.8062
1454.00,3.8826
1453.00,3.9566
1452.00,3.9814
1451.00,3.9295
1450.00,3.8474
1449.00,3.7887
1448.00,3.7649
1447.00,3.7571
1446.00,3.7454
1445.00,3.7277
1444.00,3.7098
1443.00,3.7000
1442.00,3.7082
1441.00,3.7422
1440.00,3.8026
1439.00,3.8777
1438.00,3.9377
1437.00,3.9469
1436.00,3.9072
1435.00,3.8540
1434.00,3.8191
1433.00,3.8199
1432.00,3.8471
1431.00,3.8605
1430.00,3.8355
1429.00,3.7958
1428.00,3.7683
1427.00,3.7546
1426.00,3.7436
1425.00,3.7341
1424.00,3.7360
1423.00,3.7511
1422.00,3.7698
1421.00,3.7820
1420.00,3.7864
1419.00,3.7892
1418.00,3.7929
1417.00,3.7901
1416.00,3.7776
1415.00,3.7619
1414.00,3.7513
1413.00,3.7528
1412.00,3.7669
1411.00,3.7793
1410.00,3.7716
1409.00,3.7425
1408.00,3.7073
1407.00,3.6820
1406.00,3.6695
1405.00,3.6619
1404.00,3.6527
1403.00,3.6447
1402.00,3.6438
1401.00,3.6496
1400.00,3.6555
1399.00,3.6554
1398.00,3.6487
1397.00,3.6365
1396.00,3.6182
1395.00,3.5938
1394.00,3.5669
1393.00,3.5415
1392.00,3.5167
1391.00,3.4940
1390.00,3.4780
1389.00,3.4700
1388.00,3.4693
1387.00,3.4749
1386.00,3.4810
1385.00,3.4797
1384.00,3.4719
1383.00,3.4664
1382.00,3.4737
1381.00,3.5013
1380.00,3.5517
1379.00,3.6227
1378.00,3.7068
1377.00,3.7920
1376.00,3.8632
1375.00,3.9012
1374.00,3.8925
1373.00,3.8486
1372.00,3.7859
1371.00,3.7104
1370.00,3.6294
1369.00,3.5569
1368.00,3.5013
1367.00,3.4619
1366.00,3.4354
1365.00,3.4188
1364.00,3.4054
1363.00,3.3842
1362.00,3.3461
1361.00,3.2921
1360.00,3.2309
1359.00,3.1698
1358.00,3.1117
1357.00,3.0577
1356.00,3.0105
1355.00,2.9728
1354.00,2.9442
1353.00,2.9224
1352.00,2.9071
1351.00,2.8996
1350.00,2.8996
1349.00,2.9015
1348.00,2.8968
1347.00,2.8813
1346.00,2.8585
1345.00,2.8362
1344.00,2.8211
1343.00,2.8175
1342.00,2.8278
1341.00,2.8493
1340.00,2.8718
1339.00,2.8808
1338.00,2.8689
1337.00,2.8410
1336.00,2.8100
1335.00,2.7877
1334.00,2.7798
1333.00,2.7865
1332.00,2.8049
1331.00,2.8319
1330.00,2.8654
1329.00,2.9045
1328.00,2.9475
1327.00,2.9904
1326.00,3.0296
1325.00,3.0641
1324.00,3.0970
1323.00,3.1335
1322.00,3.1771
1321.00,3.2262
1320.00,3.2714
1319.00,3.3034
1318.00,3.3240
1317.00,3.3446
1316.00,3.3722
1315.00,3.4022
1314.00,3.4237
1313.00,3.4296
1312.00,3.4222
1311.00,3.4092
1310.00,3.3986
1309.00,3.3956
1308.00,3.4004
1307.00,3.4105
1306.00,3.4253
1305.00,3.4454
1304.00,3.4693
1303.00,3.4942
1302.00,3.5200
1301.00,3.5501
1300.00,3.5818
1299.00,3.6040
1298.00,3.6103
1297.00,3.6058
1296.00,3.5960
1295.00,3.5818
1294.00,3.5658
1293.00,3.5564
1292.00,3.5634
1291.00,3.5887
1290.00,3.6235
1289.00,3.6540
1288.00,3.6747
1287.00,3.6862
1286.00,3.6883
1285.00,3.6868
1284.00,3.6815
1283.00,3.6667
1282.00,3.6508
1281.00,3.6507
1280.00,3.6775
1279.00,3.7248
1278.00,3.7658
1277.00,3.7800
1276.00,3.7718
1275.00,3.7485
1274.00,3.7216
1273.00,3.7114
1272.00,3.7263
1271.00,3.7494
1270.00,3.7505
1269.00,3.7180
1268.00,3.6705
1267.00,3.6304
1266.00,3.6063
1265.00,3.5972
1264.00,3.5979
1263.00,3.6015
1262.00,3.6026
1261.00,3.6020
1260.00,3.6041
1259.00,3.6067
1258.00,3.5988
1257.00,3.5749
1256.00,3.5447
1255.00,3.5220
1254.00,3.5126
1253.00,3.5132
1252.00,3.5148
1251.00,3.5046
1250.00,3.4733
1249.00,3.4259
1248.00,3.3790
1247.00,3.3467
1246.00,3.3304
1245.00,3.3198
1244.00,3.3024
1243.00,3.2733
1242.00,3.2362
1241.00,3.1954
1240.00,3.1545
1239.00,3.1169
1238.00,3.0838
1237.00,3.0529
1236.00,3.0214
1235.00,2.9881
1234.00,2.9539
1233.00,2.9203
1232.00,2.8903
1231.00,2.8689
1230.00,2.8615
1229.00,2.8723
1228.00,2.9028
1227.00,2.9500
1226.00,3.0047
1225.00,3.0504
1224.00,3.0698
1223.00,3.0564
1222.00,3.0157
1221.00,2.9571
1220.00,2.8881
1219.00,2.8148
1218.00,2.7427
1217.00,2.6758
1216.00,2.6181
1215.00,2.5738
1214.00,2.5459
1213.00,2.5349
1212.00,2.5383
1211.00,2.5537
1210.00,2.5804
1209.00,2.6190
1208.00,2.6684
1207.00,2.7242
1206.00,2.7811
1205.00,2.8363
1204.00,2.8897
1203.00,2.9415
1202.00,2.9927
1201.00,3.0457
1200.00,3.1028
1199.00,3.1634
1198.00,3.2226
1197.00,3.2758
1196.00,3.3210
1195.00,3.3566
1194.00,3.3828
1193.00,3.4031
1192.00,3.4230
1191.00,3.4459
1190.00,3.4710
1189.00,3.4915
1188.00,3.5035
1187.00,3.5151
1186.00,3.5405
1185.00,3.5917
1184.00,3.6706
1183.00,3.7537
1182.00,3.8014
1181.00,3.8185
1180.00,3.8293
1179.00,3.8289
1178.00,3.8135
1177.00,3.7968
1176.00,3.7909
1175.00,3.7895
1174.00,3.7830
1173.00,3.7830
1172.00,3.8092
1171.00,3.8588
1170.00,3.9006
1169.00,3.9132
1168.00,3.9104
1167.00,3.9264
1166.00,3.9861
1165.00,4.0762
1164.00,4.1407
1163.00,4.1226
1162.00,4.0732
1161.00,4.0526
1160.00,4.0400
1159.00,3.9972
1158.00,3.9437
1157.00,3.9233
1156.00,3.9456
1155.00,3.9691
1154.00,3.9448
1153.00,3.9178
1152.00,3.9217
1151.00,3.9219
1150.00,3.8905
1149.00,3.8508
1148.00,3.8370
1147.00,3.8584
1146.00,3.8965
1145.00,3.9163
1144.00,3.8948
1143.00,3.8485
1142.00,3.8233
1141.00,3.8598
1140.00,3.9712
1139.00,4.1052
1138.00,4.0840
1137.00,3.9081
1136.00,3.7635
1135.00,3.7031
1134.00,3.7236
1133.00,3.8016
1132.00,3.8959
1131.00,3.9594
1130.00,3.9425
1129.00,3.8678
1128.00,3.8128
1127.00,3.7982
1126.00,3.8022
1125.00,3.8007
1124.00,3.7949
1123.00,3.7981
1122.00,3.8124
1121.00,3.8295
1120.00,3.8407
1119.00,3.8384
1118.00,3.8287
1117.00,3.8394
1116.00,3.8779
1115.00,3.9128
1114.00,3.9074
1113.00,3.8600
1112.00,3.7973
1111.00,3.7432
1110.00,3.7102
1109.00,3.7020
1108.00,3.7167
1107.00,3.7351
1106.00,3.7170
1105.00,3.6441
1104.00,3.5444
1103.00,3.4448
1102.00,3.3595
1101.00,3.2970
1100.00,3.2583
1099.00,3.2348
1098.00,3.2133
1097.00,3.1873
1096.00,3.1610
1095.00,3.1390
1094.00,3.1212
1093.00,3.1050
1092.00,3.0895
1091.00,3.0749
1090.00,3.0609
1089.00,3.0507
1088.00,3.0528
1087.00,3.0739
1086.00,3.1103
1085.00,3.1477
1084.00,3.1747
1083.00,3.1969
1082.00,3.2297
1081.00,3.2794
1080.00,3.3360
1079.00,3.3838
1078.00,3.4198
1077.00,3.4515
1076.00,3.4766
1075.00,3.4809
1074.00,3.4676
1073.00,3.4666
1072.00,3.5046
1071.00,3.5787
1070.00,3.6525
1069.00,3.6900
1068.00,3.7061
1067.00,3.7414
1066.00,3.7989
1065.00,3.8291
1064.00,3.7888
1063.00,3.7128
1062.00,3.6540
1061.00,3.6298
1060.00,3.6284
1059.00,3.6362
1058.00,3.6577
1057.00,3.6958
1056.00,3.7406
1055.00,3.7857
1054.00,3.8387
1053.00,3.9161
1052.00,4.0290
1051.00,4.1523
1050.00,4.2509
1049.00,4.3651
1048.00,4.4457
1047.00,4.4223
1046.00,4.3977
1045.00,4.4038
1044.00,4.4527
1043.00,4.5120
1042.00,4.5212
1041.00,4.5467
1040.00,4.6054
1039.00,4.3325
1038.00,4.0997
1037.00,4.0376
1036.00,4.1330
1035.00,4.3846
1034.00,4.7123
1033.00,4.8355
1032.00,4.6533
1031.00,4.2789
1030.00,4.0078
1029.00,3.8774
1028.00,3.8651
1027.00,3.9401
1026.00,4.0575
1025.00,4.1589
1024.00,4.2106
1023.00,4.3104
1022.00,4.5359
1021.00,4.5906
1020.00,4.5377
1019.00,4.3578
1018.00,4.1180
1017.00,3.9930
1016.00,3.9625
1015.00,3.9917
1014.00,4.0489
1013.00,4.1024
1012.00,4.1178
1011.00,4.0868
1010.00,4.0663
1009.00,4.1336
1008.00,4.3579
1007.00,4.7374
1006.00,4.5892
1005.00,4.5944
1004.00,5.0437
1003.00,4.6201
1002.00,4.2127
1001.00,4.0764
1000.00,4.1002
999.00,4.2206
998.00,4.2616
997.00,4.2969
996.00,4.4985
995.00,4.8440
994.00,4.5554
993.00,4.2199
992.00,4.0952
991.00,4.1587
990.00,4.4853
989.00,5.1506
988.00,4.6101
987.00,4.6310
986.00,4.4599
985.00,4.3273
984.00,4.2923
983.00,4.2269
982.00,4.1966
981.00,4.2907
980.00,4.4170
979.00,4.3629
978.00,4.2063
977.00,4.0803
976.00,4.0239
975.00,4.0298
974.00,4.0707
973.00,4.1068
972.00,4.1354
971.00,4.1953
970.00,4.3142
969.00,4.3355
968.00,4.1482
967.00,4.0214
966.00,3.9953
965.00,4.0343
964.00,4.0618
963.00,4.0126
962.00,3.9402
961.00,3.9264
960.00,3.9917
959.00,4.0794
958.00,4.0662
957.00,3.9959
956.00,3.9835
955.00,3.9926
954.00,3.9464
953.00,3.8979
952.00,3.8745
951.00,3.8557
950.00,3.8224
949.00,3.7676
948.00,3.7295
947.00,3.7336
946.00,3.7443
945.00,3.7301
944.00,3.7185
943.00,3.7304
942.00,3.7702
941.00,3.8495
940.00,3.9920
939.00,4.2013
938.00,4.3181
937.00,4.3445
936.00,4.4825
935.00,4.6337
934.00,4.5174
933.00,4.3130
932.00,4.2250
931.00,4.2741
930.00,4.3691
929.00,4.3418
928.00,4.3285
927.00,4.3533
926.00,4.1639
925.00,3.9692
924.00,3.8837
923.00,3.8773
922.00,3.9168
921.00,3.9828
920.00,4.0743
919.00,4.1823
918.00,4.3162
917.00,4.5355
916.00,4.4698
915.00,4.2142
914.00,4.0903
913.00,4.0638
912.00,4.0848
911.00,4.0788
910.00,4.1008
909.00,4.3111
908.00,4.7219
907.00,4.5231
906.00,4.6820
905.00,4.9618
904.00,4.5990
903.00,4.3562
902.00,4.0799
901.00,3.8903
900.00,3.7893
899.00,3.7469
898.00,3.7387
897.00,3.7769
896.00,3.9281
895.00,4.3573
894.00,4.6601
893.00,4.1831
892.00,4.1845
891.00,4.2168
890.00,4.0619
889.00,3.9537
888.00,3.9177
887.00,3.9126
886.00,3.9251
885.00,3.9534
884.00,3.9581
883.00,4.0164
882.00,4.1637
881.00,4.0927
880.00,3.9525
879.00,3.9454
878.00,4.0551
877.00,4.3078
876.00,4.7819
875.00,4.5451
874.00,4.3377
873.00,4.4506
872.00,4.8778
871.00,4.6508
870.00,4.6760
869.00,4.8024
868.00,4.5412
867.00,4.3534
866.00,4.2952
865.00,4.3703
864.00,4.5125
863.00,4.6045
862.00,4.5795
861.00,4.3792
860.00,4.1612
859.00,4.0487
858.00,4.0458
857.00,4.1373
856.00,4.2428
855.00,4.2483
854.00,4.2592
853.00,4.3036
852.00,4.3108
851.00,4.3521
850.00,4.4633
849.00,4.5363
848.00,4.5371
847.00,4.4630
846.00,4.3191
845.00,4.1810
844.00,4.0921
843.00,4.0723
842.00,4.1471
841.00,4.2876
840.00,4.4458
839.00,4.5324
838.00,4.1766
837.00,3.9819
836.00,4.0034
835.00,4.2496
834.00,4.5619
833.00,4.4561
832.00,4.3333
831.00,4.0450
830.00,3.8801
829.00,3.8675
828.00,3.9538
827.00,4.0358
826.00,4.0179
825.00,3.9871
824.00,3.9903
823.00,3.9930
822.00,3.9304
821.00,3.8519
820.00,3.8466
819.00,3.9084
818.00,3.9084
817.00,3.8393
816.00,3.8283
815.00,3.8899
814.00,3.9708
813.00,4.0138
812.00,4.0251
811.00,4.0458
810.00,4.0867
809.00,4.1466
808.00,4.2050
807.00,4.1930
806.00,4.1116
805.00,4.0498
804.00,4.0579
803.00,4.1658
802.00,4.2939
801.00,4.1977
800.00,4.0390
799.00,3.9576
798.00,3.9736
797.00,4.0946
796.00,4.2980
795.00,4.4025
794.00,4.2929
793.00,4.2066
792.00,4.2792
791.00,4.5651
790.00,4.4095
789.00,4.0782
788.00,3.9219
787.00,3.8635
786.00,3.9057
785.00,4.0938
784.00,4.5541
783.00,5.9428
782.00,4.9986
781.00,4.5338
780.00,4.3110
779.00,4.1873
778.00,4.1137
777.00,4.1222
776.00,4.2622
775.00,4.4369
774.00,4.4869
773.00,4.5299
772.00,4.3615
771.00,4.0910
770.00,3.9364
769.00,3.8964
768.00,3.9134
767.00,3.9172
766.00,3.9184
765.00,3.9585
764.00,4.0131
763.00,3.9943
762.00,3.9015
761.00,3.8439
760.00,3.8642
759.00,3.9585
758.00,4.0821
757.00,4.2779
756.00,4.4819
755.00,4.1258
754.00,3.9532
753.00,3.9838
752.00,4.2605
751.00,4.9143
750.00,4.3045
749.00,4.0569
748.00,3.9490
747.00,3.9312
746.00,4.0380
745.00,4.2438
744.00,4.4492
743.00,4.4417
742.00,4.4920
741.00,4.7263
740.00,4.9213
739.00,4.5872
738.00,4.3572
737.00,4.3426
736.00,4.3459
735.00,4.1454
734.00,3.9881
733.00,3.9542
732.00,4.0348
731.00,4.2411
730.00,4.2432
729.00,4.0285
728.00,3.9713
727.00,4.0802
726.00,4.2169
725.00,4.1113
724.00,3.9577
723.00,3.8804
722.00,3.8779
721.00,3.9674
720.00,4.1372
719.00,4.3664
718.00,4.5660
717.00,4.4861
716.00,4.2842
715.00,4.1668
714.00,4.1506
713.00,4.2346
712.00,4.3341
711.00,4.2600
710.00,4.1476
709.00,4.2420
708.00,4.2996
707.00,4.0178
706.00,3.8973
705.00,3.9315
704.00,4.0109
703.00,4.0413
702.00,4.0264
701.00,4.1388
700.00,4.3888
