Created as New Dataset,Sample 019 By Administrator Date Wednesday, November 24 2021
cm-1,A
7502.00,0.8261
7501.00,0.8311
7500.00,0.8358
7499.00,0.8399
7498.00,0.8436
7497.00,0.8471
7496.00,0.8505
7495.00,0.8539
7494.00,0.8575
7493.00,0.8609
7492.00,0.8638
7491.00,0.8659
7490.00,0.8675
7489.00,0.8690
7488.00,0.8703
7487.00,0.8711
7486.00,0.8715
7485.00,0.8712
7484.00,0.8700
7483.00,0.8681
7482.00,0.8659
7481.00,0.8642
7480.00,0.8626
7479.00,0.8603
7478.00,0.8569
7477.00,0.8532
7476.00,0.8499
7475.00,0.8467
7474.00,0.8433
7473.00,0.8391
7472.00,0.8342
7471.00,0.8285
7470.00,0.8225
7469.00,0.8165
7468.00,0.8109
7467.00,0.8055
7466.00,0.7999
7465.00,0.7938
7464.00,0.7873
7463.00,0.7807
7462.00,0.7739
7461.00,0.7667
7460.00,0.7588
7459.00,0.7502
7458.00,0.7416
7457.00,0.7336
7456.00,0.7259
7455.00,0.7182
7454.00,0.7100
7453.00,0.7017
7452.00,0.6937
7451.00,0.6859
7450.00,0.6780
7449.00,0.6698
7448.00,0.6617
7447.00,0.6537
7446.00,0.6459
7445.00,0.6382
7444.00,0.6304
7443.00,0.6226
7442.00,0.6152
7441.00,0.6086
7440.00,0.6028
7439.00,0.5975
7438.00,0.5924
7437.00,0.5872
7436.00,0.5819
7435.00,0.5766
7434.00,0.5713
7433.00,0.5662
7432.00,0.5615
7431.00,0.5574
7430.00,0.5541
7429.00,0.5514
7428.00,0.5491
7427.00,0.5474
7426.00,0.5463
7425.00,0.5458
7424.00,0.5457
7423.00,0.5457
7422.00,0.5459
7421.00,0.5468
7420.00,0.5487
7419.00,0.5515
7418.00,0.5549
7417.00,0.5587
7416.00,0.5628
7415.00,0.5675
7414.00,0.5731
7413.00,0.5794
7412.00,0.5860
7411.00,0.5926
7410.00,0.5992
7409.00,0.6063
7408.00,0.6137
7407.00,0.6217
7406.00,0.6300
7405.00,0.6386
7404.00,0.6471
7403.00,0.6556
7402.00,0.6645
7401.00,0.6742
7400.00,0.6842
7399.00,0.6941
7398.00,0.7037
7397.00,0.7132
7396.00,0.7231
7395.00,0.7331
7394.00,0.7432
7393.00,0.7532
7392.00,0.7633
7391.00,0.7736
7390.00,0.7841
7389.00,0.7943
7388.00,0.8041
7387.00,0.8134
7386.00,0.8222
7385.00,0.8307
7384.00,0.8394
7383.00,0.8484
7382.00,0.8577
7381.00,0.8670
7380.00,0.8760
7379.00,0.8849
7378.00,0.8936
7377.00,0.9015
7376.00,0.9084
7375.00,0.9144
7374.00,0.9202
7373.00,0.9258
7372.00,0.9305
7371.00,0.9344
7370.00,0.9378
7369.00,0.9414
7368.00,0.9451
7367.00,0.9484
7366.00,0.9512
7365.00,0.9538
7364.00,0.9564
7363.00,0.9588
7362.00,0.9607
7361.00,0.9620
7360.00,0.9628
7359.00,0.9634
7358.00,0.9635
7357.00,0.9632
7356.00,0.9626
7355.00,0.9623
7354.00,0.9628
7353.00,0.9638
7352.00,0.9643
7351.00,0.9636
7350.00,0.9619
7349.00,0.9599
7348.00,0.9573
7347.00,0.9532
7346.00,0.9474
7345.00,0.9412
7344.00,0.9363
7343.00,0.9330
7342.00,0.9306
7341.00,0.9280
7340.00,0.9246
7339.00,0.9204
7338.00,0.9149
7337.00,0.9078
7336.00,0.8994
7335.00,0.8906
7334.00,0.8823
7333.00,0.8746
7332.00,0.8673
7331.00,0.8601
7330.00,0.8529
7329.00,0.8460
7328.00,0.8391
7327.00,0.8322
7326.00,0.8251
7325.00,0.8178
7324.00,0.8108
7323.00,0.8041
7322.00,0.7976
7321.00,0.7908
7320.00,0.7833
7319.00,0.7753
7318.00,0.7674
7317.00,0.7604
7316.00,0.7540
7315.00,0.7478
7314.00,0.7416
7313.00,0.7352
7312.00,0.7286
7311.00,0.7215
7310.00,0.7140
7309.00,0.7064
7308.00,0.6987
7307.00,0.6915
7306.00,0.6846
7305.00,0.6784
7304.00,0.6728
7303.00,0.6679
7302.00,0.6635
7301.00,0.6593
7300.00,0.6551
7299.00,0.6507
7298.00,0.6464
7297.00,0.6425
7296.00,0.6390
7295.00,0.6356
7294.00,0.6324
7293.00,0.6297
7292.00,0.6277
7291.00,0.6263
7290.00,0.6252
7289.00,0.6246
7288.00,0.6246
7287.00,0.6254
7286.00,0.6269
7285.00,0.6290
7284.00,0.6316
7283.00,0.6348
7282.00,0.6385
7281.00,0.6429
7280.00,0.6475
7279.00,0.6524
7278.00,0.6576
7277.00,0.6634
7276.00,0.6697
7275.00,0.6767
7274.00,0.6843
7273.00,0.6922
7272.00,0.7001
7271.00,0.7082
7270.00,0.7167
7269.00,0.7258
7268.00,0.7354
7267.00,0.7451
7266.00,0.7545
7265.00,0.7641
7264.00,0.7741
7263.00,0.7844
7262.00,0.7949
7261.00,0.8055
7260.00,0.8163
7259.00,0.8276
7258.00,0.8391
7257.00,0.8508
7256.00,0.8621
7255.00,0.8726
7254.00,0.8822
7253.00,0.8909
7252.00,0.8992
7251.00,0.9075
7250.00,0.9163
7249.00,0.9254
7248.00,0.9347
7247.00,0.9443
7246.00,0.9543
7245.00,0.9642
7244.00,0.9736
7243.00,0.9821
7242.00,0.9899
7241.00,0.9973
7240.00,1.0043
7239.00,1.0107
7238.00,1.0167
7237.00,1.0222
7236.00,1.0272
7235.00,1.0319
7234.00,1.0365
7233.00,1.0415
7232.00,1.0467
7231.00,1.0515
7230.00,1.0557
7229.00,1.0594
7228.00,1.0629
7227.00,1.0662
7226.00,1.0685
7225.00,1.0695
7224.00,1.0696
7223.00,1.0699
7222.00,1.0711
7221.00,1.0732
7220.00,1.0752
7219.00,1.0763
7218.00,1.0763
7217.00,1.0756
7216.00,1.0748
7215.00,1.0739
7214.00,1.0725
7213.00,1.0701
7212.00,1.0671
7211.00,1.0641
7210.00,1.0616
7209.00,1.0592
7208.00,1.0561
7207.00,1.0520
7206.00,1.0474
7205.00,1.0427
7204.00,1.0382
7203.00,1.0333
7202.00,1.0278
7201.00,1.0217
7200.00,1.0153
7199.00,1.0086
7198.00,1.0016
7197.00,0.9943
7196.00,0.9865
7195.00,0.9786
7194.00,0.9709
7193.00,0.9634
7192.00,0.9556
7191.00,0.9472
7190.00,0.9383
7189.00,0.9295
7188.00,0.9206
7187.00,0.9117
7186.00,0.9026
7185.00,0.8935
7184.00,0.8846
7183.00,0.8755
7182.00,0.8661
7181.00,0.8565
7180.00,0.8470
7179.00,0.8375
7178.00,0.8281
7177.00,0.8188
7176.00,0.8098
7175.00,0.8013
7174.00,0.7932
7173.00,0.7852
7172.00,0.7770
7171.00,0.7691
7170.00,0.7616
7169.00,0.7546
7168.00,0.7479
7167.00,0.7413
7166.00,0.7349
7165.00,0.7290
7164.00,0.7237
7163.00,0.7186
7162.00,0.7137
7161.00,0.7092
7160.00,0.7054
7159.00,0.7021
7158.00,0.6992
7157.00,0.6969
7156.00,0.6951
7155.00,0.6938
7154.00,0.6931
7153.00,0.6930
7152.00,0.6935
7151.00,0.6945
7150.00,0.6960
7149.00,0.6981
7148.00,0.7008
7147.00,0.7040
7146.00,0.7077
7145.00,0.7118
7144.00,0.7164
7143.00,0.7214
7142.00,0.7270
7141.00,0.7332
7140.00,0.7400
7139.00,0.7472
7138.00,0.7548
7137.00,0.7626
7136.00,0.7706
7135.00,0.7787
7134.00,0.7869
7133.00,0.7956
7132.00,0.8047
7131.00,0.8143
7130.00,0.8242
7129.00,0.8343
7128.00,0.8446
7127.00,0.8552
7126.00,0.8656
7125.00,0.8756
7124.00,0.8852
7123.00,0.8949
7122.00,0.9051
7121.00,0.9157
7120.00,0.9264
7119.00,0.9370
7118.00,0.9472
7117.00,0.9568
7116.00,0.9659
7115.00,0.9748
7114.00,0.9835
7113.00,0.9918
7112.00,0.9998
7111.00,1.0077
7110.00,1.0159
7109.00,1.0242
7108.00,1.0320
7107.00,1.0390
7106.00,1.0453
7105.00,1.0516
7104.00,1.0581
7103.00,1.0644
7102.00,1.0704
7101.00,1.0759
7100.00,1.0810
7099.00,1.0857
7098.00,1.0901
7097.00,1.0940
7096.00,1.0974
7095.00,1.1004
7094.00,1.1032
7093.00,1.1055
7092.00,1.1071
7091.00,1.1083
7090.00,1.1094
7089.00,1.1104
7088.00,1.1111
7087.00,1.1118
7086.00,1.1123
7085.00,1.1123
7084.00,1.1116
7083.00,1.1102
7082.00,1.1085
7081.00,1.1063
7080.00,1.1033
7079.00,1.0998
7078.00,1.0962
7077.00,1.0930
7076.00,1.0900
7075.00,1.0867
7074.00,1.0827
7073.00,1.0782
7072.00,1.0734
7071.00,1.0685
7070.00,1.0635
7069.00,1.0578
7068.00,1.0509
7067.00,1.0433
7066.00,1.0357
7065.00,1.0285
7064.00,1.0213
7063.00,1.0135
7062.00,1.0053
7061.00,0.9973
7060.00,0.9897
7059.00,0.9821
7058.00,0.9743
7057.00,0.9661
7056.00,0.9573
7055.00,0.9482
7054.00,0.9388
7053.00,0.9292
7052.00,0.9195
7051.00,0.9098
7050.00,0.9003
7049.00,0.8913
7048.00,0.8825
7047.00,0.8738
7046.00,0.8648
7045.00,0.8555
7044.00,0.8458
7043.00,0.8359
7042.00,0.8261
7041.00,0.8166
7040.00,0.8077
7039.00,0.7993
7038.00,0.7913
7037.00,0.7837
7036.00,0.7761
7035.00,0.7686
7034.00,0.7614
7033.00,0.7545
7032.00,0.7479
7031.00,0.7415
7030.00,0.7356
7029.00,0.7302
7028.00,0.7255
7027.00,0.7212
7026.00,0.7175
7025.00,0.7142
7024.00,0.7114
7023.00,0.7091
7022.00,0.7075
7021.00,0.7062
7020.00,0.7053
7019.00,0.7048
7018.00,0.7048
7017.00,0.7054
7016.00,0.7066
7015.00,0.7083
7014.00,0.7106
7013.00,0.7136
7012.00,0.7171
7011.00,0.7212
7010.00,0.7258
7009.00,0.7310
7008.00,0.7365
7007.00,0.7423
7006.00,0.7484
7005.00,0.7550
7004.00,0.7619
7003.00,0.7692
7002.00,0.7769
7001.00,0.7853
7000.00,0.7942
6999.00,0.8036
6998.00,0.8134
6997.00,0.8235
6996.00,0.8338
6995.00,0.8441
6994.00,0.8543
6993.00,0.8645
6992.00,0.8747
6991.00,0.8848
6990.00,0.8950
6989.00,0.9055
6988.00,0.9161
6987.00,0.9267
6986.00,0.9373
6985.00,0.9478
6984.00,0.9581
6983.00,0.9683
6982.00,0.9785
6981.00,0.9887
6980.00,0.9987
6979.00,1.0084
6978.00,1.0180
6977.00,1.0272
6976.00,1.0359
6975.00,1.0440
6974.00,1.0518
6973.00,1.0596
6972.00,1.0674
6971.00,1.0749
6970.00,1.0821
6969.00,1.0892
6968.00,1.0959
6967.00,1.1019
6966.00,1.1070
6965.00,1.1117
6964.00,1.1163
6963.00,1.1211
6962.00,1.1259
6961.00,1.1308
6960.00,1.1355
6959.00,1.1399
6958.00,1.1437
6957.00,1.1467
6956.00,1.1488
6955.00,1.1502
6954.00,1.1511
6953.00,1.1518
6952.00,1.1525
6951.00,1.1531
6950.00,1.1535
6949.00,1.1537
6948.00,1.1535
6947.00,1.1527
6946.00,1.1513
6945.00,1.1495
6944.00,1.1475
6943.00,1.1451
6942.00,1.1422
6941.00,1.1389
6940.00,1.1356
6939.00,1.1322
6938.00,1.1286
6937.00,1.1246
6936.00,1.1201
6935.00,1.1152
6934.00,1.1099
6933.00,1.1043
6932.00,1.0983
6931.00,1.0920
6930.00,1.0853
6929.00,1.0784
6928.00,1.0711
6927.00,1.0636
6926.00,1.0558
6925.00,1.0478
6924.00,1.0393
6923.00,1.0307
6922.00,1.0224
6921.00,1.0143
6920.00,1.0062
6919.00,0.9975
6918.00,0.9883
6917.00,0.9785
6916.00,0.9686
6915.00,0.9585
6914.00,0.9484
6913.00,0.9383
6912.00,0.9281
6911.00,0.9179
6910.00,0.9080
6909.00,0.8982
6908.00,0.8885
6907.00,0.8788
6906.00,0.8692
6905.00,0.8600
6904.00,0.8511
6903.00,0.8425
6902.00,0.8340
6901.00,0.8254
6900.00,0.8167
6899.00,0.8082
6898.00,0.7999
6897.00,0.7921
6896.00,0.7849
6895.00,0.7782
6894.00,0.7722
6893.00,0.7669
6892.00,0.7621
6891.00,0.7578
6890.00,0.7540
6889.00,0.7507
6888.00,0.7478
6887.00,0.7452
6886.00,0.7431
6885.00,0.7416
6884.00,0.7406
6883.00,0.7400
6882.00,0.7402
6881.00,0.7412
6880.00,0.7431
6879.00,0.7456
6878.00,0.7487
6877.00,0.7522
6876.00,0.7562
6875.00,0.7606
6874.00,0.7653
6873.00,0.7704
6872.00,0.7761
6871.00,0.7827
6870.00,0.7899
6869.00,0.7975
6868.00,0.8054
6867.00,0.8137
6866.00,0.8223
6865.00,0.8311
6864.00,0.8401
6863.00,0.8493
6862.00,0.8587
6861.00,0.8684
6860.00,0.8783
6859.00,0.8884
6858.00,0.8987
6857.00,0.9093
6856.00,0.9198
6855.00,0.9302
6854.00,0.9406
6853.00,0.9512
6852.00,0.9618
6851.00,0.9722
6850.00,0.9826
6849.00,0.9932
6848.00,1.0038
6847.00,1.0140
6846.00,1.0235
6845.00,1.0327
6844.00,1.0415
6843.00,1.0503
6842.00,1.0588
6841.00,1.0671
6840.00,1.0753
6839.00,1.0833
6838.00,1.0912
6837.00,1.0986
6836.00,1.1052
6835.00,1.1113
6834.00,1.1172
6833.00,1.1230
6832.00,1.1285
6831.00,1.1333
6830.00,1.1378
6829.00,1.1420
6828.00,1.1459
6827.00,1.1491
6826.00,1.1519
6825.00,1.1548
6824.00,1.1577
6823.00,1.1601
6822.00,1.1618
6821.00,1.1634
6820.00,1.1648
6819.00,1.1655
6818.00,1.1653
6817.00,1.1644
6816.00,1.1633
6815.00,1.1622
6814.00,1.1610
6813.00,1.1595
6812.00,1.1578
6811.00,1.1558
6810.00,1.1535
6809.00,1.1511
6808.00,1.1481
6807.00,1.1444
6806.00,1.1402
6805.00,1.1358
6804.00,1.1312
6803.00,1.1262
6802.00,1.1207
6801.00,1.1148
6800.00,1.1085
6799.00,1.1020
6798.00,1.0952
6797.00,1.0880
6796.00,1.0805
6795.00,1.0725
6794.00,1.0643
6793.00,1.0561
6792.00,1.0481
6791.00,1.0400
6790.00,1.0317
6789.00,1.0231
6788.00,1.0142
6787.00,1.0049
6786.00,0.9951
6785.00,0.9850
6784.00,0.9749
6783.00,0.9649
6782.00,0.9549
6781.00,0.9448
6780.00,0.9347
6779.00,0.9246
6778.00,0.9144
6777.00,0.9043
6776.00,0.8945
6775.00,0.8848
6774.00,0.8751
6773.00,0.8657
6772.00,0.8564
6771.00,0.8473
6770.00,0.8383
6769.00,0.8293
6768.00,0.8206
6767.00,0.8120
6766.00,0.8038
6765.00,0.7960
6764.00,0.7885
6763.00,0.7814
6762.00,0.7746
6761.00,0.7684
6760.00,0.7625
6759.00,0.7572
6758.00,0.7522
6757.00,0.7476
6756.00,0.7435
6755.00,0.7399
6754.00,0.7369
6753.00,0.7345
6752.00,0.7326
6751.00,0.7311
6750.00,0.7302
6749.00,0.7298
6748.00,0.7300
6747.00,0.7308
6746.00,0.7323
6745.00,0.7343
6744.00,0.7369
6743.00,0.7399
6742.00,0.7434
6741.00,0.7475
6740.00,0.7521
6739.00,0.7571
6738.00,0.7628
6737.00,0.7690
6736.00,0.7757
6735.00,0.7830
6734.00,0.7908
6733.00,0.7990
6732.00,0.8078
6731.00,0.8169
6730.00,0.8263
6729.00,0.8361
6728.00,0.8461
6727.00,0.8565
6726.00,0.8670
6725.00,0.8778
6724.00,0.8887
6723.00,0.8996
6722.00,0.9106
6721.00,0.9215
6720.00,0.9325
6719.00,0.9433
6718.00,0.9541
6717.00,0.9649
6716.00,0.9757
6715.00,0.9865
6714.00,0.9973
6713.00,1.0080
6712.00,1.0186
6711.00,1.0291
6710.00,1.0394
6709.00,1.0494
6708.00,1.0588
6707.00,1.0678
6706.00,1.0768
6705.00,1.0859
6704.00,1.0949
6703.00,1.1034
6702.00,1.1113
6701.00,1.1189
6700.00,1.1262
6699.00,1.1329
6698.00,1.1392
6697.00,1.1451
6696.00,1.1509
6695.00,1.1567
6694.00,1.1622
6693.00,1.1669
6692.00,1.1708
6691.00,1.1739
6690.00,1.1769
6689.00,1.1799
6688.00,1.1828
6687.00,1.1855
6686.00,1.1879
6685.00,1.1901
6684.00,1.1917
6683.00,1.1929
6682.00,1.1936
6681.00,1.1938
6680.00,1.1937
6679.00,1.1935
6678.00,1.1932
6677.00,1.1927
6676.00,1.1915
6675.00,1.1898
6674.00,1.1879
6673.00,1.1858
6672.00,1.1831
6671.00,1.1795
6670.00,1.1752
6669.00,1.1708
6668.00,1.1665
6667.00,1.1619
6666.00,1.1569
6665.00,1.1513
6664.00,1.1453
6663.00,1.1390
6662.00,1.1324
6661.00,1.1255
6660.00,1.1181
6659.00,1.1103
6658.00,1.1024
6657.00,1.0948
6656.00,1.0873
6655.00,1.0795
6654.00,1.0711
6653.00,1.0621
6652.00,1.0529
6651.00,1.0435
6650.00,1.0339
6649.00,1.0238
6648.00,1.0134
6647.00,1.0029
6646.00,0.9923
6645.00,0.9817
6644.00,0.9709
6643.00,0.9599
6642.00,0.9490
6641.00,0.9383
6640.00,0.9277
6639.00,0.9172
6638.00,0.9069
6637.00,0.8969
6636.00,0.8869
6635.00,0.8769
6634.00,0.8671
6633.00,0.8575
6632.00,0.8481
6631.00,0.8387
6630.00,0.8296
6629.00,0.8211
6628.00,0.8131
6627.00,0.8054
6626.00,0.7981
6625.00,0.7913
6624.00,0.7850
6623.00,0.7790
6622.00,0.7734
6621.00,0.7682
6620.00,0.7636
6619.00,0.7596
6618.00,0.7561
6617.00,0.7533
6616.00,0.7510
6615.00,0.7494
6614.00,0.7484
6613.00,0.7483
6612.00,0.7488
6611.00,0.7499
6610.00,0.7516
6609.00,0.7539
6608.00,0.7568
6607.00,0.7603
6606.00,0.7643
6605.00,0.7688
6604.00,0.7740
6603.00,0.7797
6602.00,0.7861
6601.00,0.7931
6600.00,0.8005
6599.00,0.8083
6598.00,0.8165
6597.00,0.8252
6596.00,0.8344
6595.00,0.8439
6594.00,0.8538
6593.00,0.8639
6592.00,0.8743
6591.00,0.8848
6590.00,0.8955
6589.00,0.9065
6588.00,0.9176
6587.00,0.9287
6586.00,0.9397
6585.00,0.9507
6584.00,0.9619
6583.00,0.9730
6582.00,0.9839
6581.00,0.9947
6580.00,1.0055
6579.00,1.0162
6578.00,1.0266
6577.00,1.0367
6576.00,1.0464
6575.00,1.0558
6574.00,1.0650
6573.00,1.0740
6572.00,1.0829
6571.00,1.0917
6570.00,1.1002
6569.00,1.1082
6568.00,1.1158
6567.00,1.1230
6566.00,1.1298
6565.00,1.1363
6564.00,1.1425
6563.00,1.1484
6562.00,1.1541
6561.00,1.1595
6560.00,1.1646
6559.00,1.1693
6558.00,1.1736
6557.00,1.1773
6556.00,1.1802
6555.00,1.1823
6554.00,1.1836
6553.00,1.1844
6552.00,1.1851
6551.00,1.1859
6550.00,1.1869
6549.00,1.1879
6548.00,1.1886
6547.00,1.1891
6546.00,1.1890
6545.00,1.1884
6544.00,1.1872
6543.00,1.1855
6542.00,1.1835
6541.00,1.1810
6540.00,1.1780
6539.00,1.1744
6538.00,1.1704
6537.00,1.1659
6536.00,1.1613
6535.00,1.1567
6534.00,1.1519
6533.00,1.1467
6532.00,1.1409
6531.00,1.1345
6530.00,1.1279
6529.00,1.1211
6528.00,1.1141
6527.00,1.1067
6526.00,1.0992
6525.00,1.0913
6524.00,1.0829
6523.00,1.0741
6522.00,1.0653
6521.00,1.0565
6520.00,1.0474
6519.00,1.0380
6518.00,1.0284
6517.00,1.0187
6516.00,1.0088
6515.00,0.9985
6514.00,0.9881
6513.00,0.9778
6512.00,0.9675
6511.00,0.9570
6510.00,0.9465
6509.00,0.9359
6508.00,0.9255
6507.00,0.9151
6506.00,0.9049
6505.00,0.8949
6504.00,0.8849
6503.00,0.8749
6502.00,0.8647
6501.00,0.8545
6500.00,0.8446
6499.00,0.8349
6498.00,0.8256
6497.00,0.8168
6496.00,0.8083
6495.00,0.8001
6494.00,0.7922
6493.00,0.7846
6492.00,0.7774
6491.00,0.7704
6490.00,0.7638
6489.00,0.7579
6488.00,0.7526
6487.00,0.7478
6486.00,0.7433
6485.00,0.7394
6484.00,0.7360
6483.00,0.7331
6482.00,0.7308
6481.00,0.7291
6480.00,0.7280
6479.00,0.7276
6478.00,0.7279
6477.00,0.7288
6476.00,0.7304
6475.00,0.7324
6474.00,0.7350
6473.00,0.7382
6472.00,0.7421
6471.00,0.7466
6470.00,0.7518
6469.00,0.7576
6468.00,0.7639
6467.00,0.7707
6466.00,0.7779
6465.00,0.7857
6464.00,0.7939
6463.00,0.8025
6462.00,0.8116
6461.00,0.8214
6460.00,0.8315
6459.00,0.8418
6458.00,0.8524
6457.00,0.8632
6456.00,0.8742
6455.00,0.8854
6454.00,0.8968
6453.00,0.9083
6452.00,0.9200
6451.00,0.9317
6450.00,0.9434
6449.00,0.9551
6448.00,0.9668
6447.00,0.9782
6446.00,0.9895
6445.00,1.0008
6444.00,1.0120
6443.00,1.0231
6442.00,1.0339
6441.00,1.0445
6440.00,1.0551
6439.00,1.0654
6438.00,1.0754
6437.00,1.0850
6436.00,1.0942
6435.00,1.1030
6434.00,1.1112
6433.00,1.1190
6432.00,1.1266
6431.00,1.1339
6430.00,1.1410
6429.00,1.1479
6428.00,1.1544
6427.00,1.1608
6426.00,1.1670
6425.00,1.1728
6424.00,1.1780
6423.00,1.1826
6422.00,1.1867
6421.00,1.1904
6420.00,1.1937
6419.00,1.1966
6418.00,1.1992
6417.00,1.2013
6416.00,1.2030
6415.00,1.2046
6414.00,1.2060
6413.00,1.2073
6412.00,1.2081
6411.00,1.2084
6410.00,1.2085
6409.00,1.2085
6408.00,1.2078
6407.00,1.2063
6406.00,1.2043
6405.00,1.2023
6404.00,1.2003
6403.00,1.1976
6402.00,1.1941
6401.00,1.1903
6400.00,1.1861
6399.00,1.1816
6398.00,1.1767
6397.00,1.1716
6396.00,1.1662
6395.00,1.1603
6394.00,1.1539
6393.00,1.1472
6392.00,1.1404
6391.00,1.1334
6390.00,1.1261
6389.00,1.1184
6388.00,1.1104
6387.00,1.1020
6386.00,1.0930
6385.00,1.0836
6384.00,1.0741
6383.00,1.0642
6382.00,1.0540
6381.00,1.0435
6380.00,1.0328
6379.00,1.0221
6378.00,1.0114
6377.00,1.0008
6376.00,0.9901
6375.00,0.9794
6374.00,0.9685
6373.00,0.9574
6372.00,0.9461
6371.00,0.9347
6370.00,0.9232
6369.00,0.9117
6368.00,0.9004
6367.00,0.8894
6366.00,0.8786
6365.00,0.8679
6364.00,0.8573
6363.00,0.8469
6362.00,0.8368
6361.00,0.8269
6360.00,0.8172
6359.00,0.8077
6358.00,0.7987
6357.00,0.7903
6356.00,0.7825
6355.00,0.7751
6354.00,0.7681
6353.00,0.7615
6352.00,0.7555
6351.00,0.7501
6350.00,0.7453
6349.00,0.7412
6348.00,0.7378
6347.00,0.7350
6346.00,0.7328
6345.00,0.7314
6344.00,0.7307
6343.00,0.7305
6342.00,0.7311
6341.00,0.7324
6340.00,0.7345
6339.00,0.7373
6338.00,0.7407
6337.00,0.7446
6336.00,0.7491
6335.00,0.7542
6334.00,0.7600
6333.00,0.7664
6332.00,0.7734
6331.00,0.7809
6330.00,0.7890
6329.00,0.7977
6328.00,0.8067
6327.00,0.8159
6326.00,0.8254
6325.00,0.8354
6324.00,0.8459
6323.00,0.8568
6322.00,0.8680
6321.00,0.8796
6320.00,0.8915
6319.00,0.9035
6318.00,0.9154
6317.00,0.9272
6316.00,0.9385
6315.00,0.9497
6314.00,0.9608
6313.00,0.9721
6312.00,0.9835
6311.00,0.9949
6310.00,1.0064
6309.00,1.0179
6308.00,1.0292
6307.00,1.0399
6306.00,1.0501
6305.00,1.0598
6304.00,1.0695
6303.00,1.0790
6302.00,1.0883
6301.00,1.0974
6300.00,1.1062
6299.00,1.1148
6298.00,1.1228
6297.00,1.1302
6296.00,1.1372
6295.00,1.1439
6294.00,1.1505
6293.00,1.1567
6292.00,1.1622
6291.00,1.1670
6290.00,1.1711
6289.00,1.1745
6288.00,1.1775
6287.00,1.1802
6286.00,1.1829
6285.00,1.1858
6284.00,1.1887
6283.00,1.1913
6282.00,1.1933
6281.00,1.1947
6280.00,1.1957
6279.00,1.1962
6278.00,1.1965
6277.00,1.1965
6276.00,1.1964
6275.00,1.1959
6274.00,1.1948
6273.00,1.1931
6272.00,1.1907
6271.00,1.1877
6270.00,1.1842
6269.00,1.1806
6268.00,1.1769
6267.00,1.1728
6266.00,1.1681
6265.00,1.1630
6264.00,1.1578
6263.00,1.1524
6262.00,1.1465
6261.00,1.1399
6260.00,1.1330
6259.00,1.1260
6258.00,1.1187
6257.00,1.1108
6256.00,1.1026
6255.00,1.0946
6254.00,1.0868
6253.00,1.0788
6252.00,1.0701
6251.00,1.0608
6250.00,1.0513
6249.00,1.0416
6248.00,1.0313
6247.00,1.0208
6246.00,1.0102
6245.00,0.9997
6244.00,0.9892
6243.00,0.9784
6242.00,0.9674
6241.00,0.9562
6240.00,0.9451
6239.00,0.9338
6238.00,0.9225
6237.00,0.9112
6236.00,0.8999
6235.00,0.8887
6234.00,0.8777
6233.00,0.8668
6232.00,0.8560
6231.00,0.8452
6230.00,0.8346
6229.00,0.8243
6228.00,0.8142
6227.00,0.8044
6226.00,0.7948
6225.00,0.7856
6224.00,0.7770
6223.00,0.7686
6222.00,0.7606
6221.00,0.7531
6220.00,0.7459
6219.00,0.7391
6218.00,0.7328
6217.00,0.7272
6216.00,0.7221
6215.00,0.7175
6214.00,0.7135
6213.00,0.7102
6212.00,0.7077
6211.00,0.7059
6210.00,0.7047
6209.00,0.7043
6208.00,0.7046
6207.00,0.7055
6206.00,0.7071
6205.00,0.7094
6204.00,0.7125
6203.00,0.7162
6202.00,0.7205
6201.00,0.7256
6200.00,0.7313
6199.00,0.7375
6198.00,0.7442
6197.00,0.7514
6196.00,0.7594
6195.00,0.7680
6194.00,0.7772
6193.00,0.7869
6192.00,0.7970
6191.00,0.8076
6190.00,0.8184
6189.00,0.8293
6188.00,0.8404
6187.00,0.8518
6186.00,0.8635
6185.00,0.8756
6184.00,0.8879
6183.00,0.9005
6182.00,0.9131
6181.00,0.9256
6180.00,0.9380
6179.00,0.9502
6178.00,0.9624
6177.00,0.9744
6176.00,0.9862
6175.00,0.9978
6174.00,1.0091
6173.00,1.0204
6172.00,1.0313
6171.00,1.0419
6170.00,1.0523
6169.00,1.0626
6168.00,1.0726
6167.00,1.0823
6166.00,1.0914
6165.00,1.1003
6164.00,1.1089
6163.00,1.1173
6162.00,1.1253
6161.00,1.1329
6160.00,1.1402
6159.00,1.1471
6158.00,1.1538
6157.00,1.1600
6156.00,1.1656
6155.00,1.1707
6154.00,1.1753
6153.00,1.1794
6152.00,1.1832
6151.00,1.1868
6150.00,1.1902
6149.00,1.1934
6148.00,1.1963
6147.00,1.1987
6146.00,1.2007
6145.00,1.2023
6144.00,1.2037
6143.00,1.2049
6142.00,1.2057
6141.00,1.2059
6140.00,1.2053
6139.00,1.2042
6138.00,1.2028
6137.00,1.2011
6136.00,1.1989
6135.00,1.1965
6134.00,1.1940
6133.00,1.1911
6132.00,1.1875
6131.00,1.1833
6130.00,1.1786
6129.00,1.1737
6128.00,1.1686
6127.00,1.1631
6126.00,1.1572
6125.00,1.1509
6124.00,1.1442
6123.00,1.1373
6122.00,1.1300
6121.00,1.1225
6120.00,1.1147
6119.00,1.1066
6118.00,1.0981
6117.00,1.0893
6116.00,1.0800
6115.00,1.0701
6114.00,1.0599
6113.00,1.0495
6112.00,1.0388
6111.00,1.0279
6110.00,1.0169
6109.00,1.0059
6108.00,0.9946
6107.00,0.9831
6106.00,0.9712
6105.00,0.9592
6104.00,0.9471
6103.00,0.9348
6102.00,0.9224
6101.00,0.9102
6100.00,0.8982
6099.00,0.8863
6098.00,0.8745
6097.00,0.8627
6096.00,0.8512
6095.00,0.8397
6094.00,0.8284
6093.00,0.8173
6092.00,0.8066
6091.00,0.7962
6090.00,0.7861
6089.00,0.7764
6088.00,0.7670
6087.00,0.7580
6086.00,0.7495
6085.00,0.7414
6084.00,0.7339
6083.00,0.7271
6082.00,0.7209
6081.00,0.7155
6080.00,0.7108
6079.00,0.7066
6078.00,0.7031
6077.00,0.7004
6076.00,0.6984
6075.00,0.6970
6074.00,0.6963
6073.00,0.6963
6072.00,0.6971
6071.00,0.6988
6070.00,0.7011
6069.00,0.7042
6068.00,0.7081
6067.00,0.7127
6066.00,0.7182
6065.00,0.7243
6064.00,0.7310
6063.00,0.7383
6062.00,0.7461
6061.00,0.7545
6060.00,0.7634
6059.00,0.7728
6058.00,0.7828
6057.00,0.7934
6056.00,0.8043
6055.00,0.8157
6054.00,0.8272
6053.00,0.8391
6052.00,0.8511
6051.00,0.8634
6050.00,0.8759
6049.00,0.8885
6048.00,0.9013
6047.00,0.9141
6046.00,0.9268
6045.00,0.9394
6044.00,0.9517
6043.00,0.9638
6042.00,0.9757
6041.00,0.9874
6040.00,0.9988
6039.00,1.0102
6038.00,1.0215
6037.00,1.0328
6036.00,1.0440
6035.00,1.0549
6034.00,1.0652
6033.00,1.0750
6032.00,1.0843
6031.00,1.0932
6030.00,1.1018
6029.00,1.1099
6028.00,1.1176
6027.00,1.1252
6026.00,1.1327
6025.00,1.1400
6024.00,1.1468
6023.00,1.1532
6022.00,1.1595
6021.00,1.1654
6020.00,1.1707
6019.00,1.1754
6018.00,1.1796
6017.00,1.1833
6016.00,1.1865
6015.00,1.1891
6014.00,1.1913
6013.00,1.1933
6012.00,1.1953
6011.00,1.1974
6010.00,1.1994
6009.00,1.2009
6008.00,1.2017
6007.00,1.2018
6006.00,1.2015
6005.00,1.2008
6004.00,1.1995
6003.00,1.1978
6002.00,1.1959
6001.00,1.1939
6000.00,1.1915
5999.00,1.1886
5998.00,1.1854
5997.00,1.1818
5996.00,1.1777
5995.00,1.1730
5994.00,1.1679
5993.00,1.1625
5992.00,1.1568
5991.00,1.1509
5990.00,1.1446
5989.00,1.1379
5988.00,1.1306
5987.00,1.1227
5986.00,1.1144
5985.00,1.1058
5984.00,1.0970
5983.00,1.0879
5982.00,1.0784
5981.00,1.0684
5980.00,1.0580
5979.00,1.0474
5978.00,1.0366
5977.00,1.0258
5976.00,1.0149
5975.00,1.0040
5974.00,0.9929
5973.00,0.9817
5972.00,0.9702
5971.00,0.9585
5970.00,0.9465
5969.00,0.9344
5968.00,0.9222
5967.00,0.9102
5966.00,0.8984
5965.00,0.8868
5964.00,0.8754
5963.00,0.8642
5962.00,0.8532
5961.00,0.8425
5960.00,0.8322
5959.00,0.8222
5958.00,0.8126
5957.00,0.8034
5956.00,0.7945
5955.00,0.7858
5954.00,0.7774
5953.00,0.7691
5952.00,0.7611
5951.00,0.7534
5950.00,0.7459
5949.00,0.7385
5948.00,0.7314
5947.00,0.7245
5946.00,0.7180
5945.00,0.7121
5944.00,0.7066
5943.00,0.7018
5942.00,0.6978
5941.00,0.6947
5940.00,0.6924
5939.00,0.6908
5938.00,0.6901
5937.00,0.6902
5936.00,0.6911
5935.00,0.6927
5934.00,0.6953
5933.00,0.6988
5932.00,0.7032
5931.00,0.7085
5930.00,0.7146
5929.00,0.7215
5928.00,0.7290
5927.00,0.7371
5926.00,0.7457
5925.00,0.7549
5924.00,0.7647
5923.00,0.7750
5922.00,0.7858
5921.00,0.7971
5920.00,0.8088
5919.00,0.8207
5918.00,0.8329
5917.00,0.8455
5916.00,0.8583
5915.00,0.8712
5914.00,0.8843
5913.00,0.8977
5912.00,0.9110
5911.00,0.9243
5910.00,0.9375
5909.00,0.9507
5908.00,0.9638
5907.00,0.9767
5906.00,0.9894
5905.00,1.0018
5904.00,1.0140
5903.00,1.0259
5902.00,1.0373
5901.00,1.0483
5900.00,1.0589
5899.00,1.0692
5898.00,1.0793
5897.00,1.0893
5896.00,1.0993
5895.00,1.1090
5894.00,1.1184
5893.00,1.1273
5892.00,1.1354
5891.00,1.1429
5890.00,1.1500
5889.00,1.1570
5888.00,1.1638
5887.00,1.1702
5886.00,1.1760
5885.00,1.1811
5884.00,1.1857
5883.00,1.1899
5882.00,1.1938
5881.00,1.1976
5880.00,1.2011
5879.00,1.2044
5878.00,1.2072
5877.00,1.2093
5876.00,1.2106
5875.00,1.2114
5874.00,1.2120
5873.00,1.2125
5872.00,1.2128
5871.00,1.2127
5870.00,1.2121
5869.00,1.2110
5868.00,1.2093
5867.00,1.2070
5866.00,1.2046
5865.00,1.2020
5864.00,1.1994
5863.00,1.1964
5862.00,1.1931
5861.00,1.1892
5860.00,1.1847
5859.00,1.1797
5858.00,1.1743
5857.00,1.1687
5856.00,1.1628
5855.00,1.1565
5854.00,1.1499
5853.00,1.1428
5852.00,1.1353
5851.00,1.1275
5850.00,1.1193
5849.00,1.1108
5848.00,1.1019
5847.00,1.0926
5846.00,1.0828
5845.00,1.0729
5844.00,1.0630
5843.00,1.0528
5842.00,1.0424
5841.00,1.0316
5840.00,1.0205
5839.00,1.0091
5838.00,0.9976
5837.00,0.9860
5836.00,0.9743
5835.00,0.9626
5834.00,0.9508
5833.00,0.9388
5832.00,0.9265
5831.00,0.9141
5830.00,0.9016
5829.00,0.8892
5828.00,0.8770
5827.00,0.8648
5826.00,0.8527
5825.00,0.8407
5824.00,0.8289
5823.00,0.8173
5822.00,0.8059
5821.00,0.7949
5820.00,0.7841
5819.00,0.7737
5818.00,0.7637
5817.00,0.7541
5816.00,0.7451
5815.00,0.7365
5814.00,0.7286
5813.00,0.7212
5812.00,0.7145
5811.00,0.7083
5810.00,0.7028
5809.00,0.6980
5808.00,0.6940
5807.00,0.6908
5806.00,0.6885
5805.00,0.6870
5804.00,0.6862
5803.00,0.6861
5802.00,0.6868
5801.00,0.6884
5800.00,0.6907
5799.00,0.6938
5798.00,0.6978
5797.00,0.7025
5796.00,0.7079
5795.00,0.7139
5794.00,0.7207
5793.00,0.7283
5792.00,0.7366
5791.00,0.7453
5790.00,0.7546
5789.00,0.7644
5788.00,0.7748
5787.00,0.7856
5786.00,0.7970
5785.00,0.8089
5784.00,0.8213
5783.00,0.8339
5782.00,0.8467
5781.00,0.8598
5780.00,0.8729
5779.00,0.8860
5778.00,0.8992
5777.00,0.9126
5776.00,0.9261
5775.00,0.9396
5774.00,0.9531
5773.00,0.9665
5772.00,0.9797
5771.00,0.9926
5770.00,1.0050
5769.00,1.0171
5768.00,1.0290
5767.00,1.0408
5766.00,1.0522
5765.00,1.0634
5764.00,1.0744
5763.00,1.0849
5762.00,1.0951
5761.00,1.1049
5760.00,1.1141
5759.00,1.1227
5758.00,1.1309
5757.00,1.1388
5756.00,1.1466
5755.00,1.1543
5754.00,1.1619
5753.00,1.1691
5752.00,1.1756
5751.00,1.1813
5750.00,1.1864
5749.00,1.1911
5748.00,1.1955
5747.00,1.1995
5746.00,1.2033
5745.00,1.2067
5744.00,1.2098
5743.00,1.2124
5742.00,1.2147
5741.00,1.2167
5740.00,1.2185
5739.00,1.2201
5738.00,1.2213
5737.00,1.2218
5736.00,1.2217
5735.00,1.2208
5734.00,1.2195
5733.00,1.2182
5732.00,1.2169
5731.00,1.2155
5730.00,1.2134
5729.00,1.2107
5728.00,1.2071
5727.00,1.2030
5726.00,1.1984
5725.00,1.1934
5724.00,1.1882
5723.00,1.1828
5722.00,1.1770
5721.00,1.1709
5720.00,1.1643
5719.00,1.1575
5718.00,1.1504
5717.00,1.1432
5716.00,1.1357
5715.00,1.1276
5714.00,1.1188
5713.00,1.1095
5712.00,1.0999
5711.00,1.0899
5710.00,1.0796
5709.00,1.0689
5708.00,1.0579
5707.00,1.0465
5706.00,1.0347
5705.00,1.0226
5704.00,1.0102
5703.00,0.9977
5702.00,0.9850
5701.00,0.9722
5700.00,0.9594
5699.00,0.9464
5698.00,0.9332
5697.00,0.9199
5696.00,0.9064
5695.00,0.8927
5694.00,0.8789
5693.00,0.8651
5692.00,0.8516
5691.00,0.8383
5690.00,0.8254
5689.00,0.8127
5688.00,0.8001
5687.00,0.7877
5686.00,0.7757
5685.00,0.7641
5684.00,0.7529
5683.00,0.7423
5682.00,0.7322
5681.00,0.7227
5680.00,0.7137
5679.00,0.7053
5678.00,0.6975
5677.00,0.6904
5676.00,0.6840
5675.00,0.6783
5674.00,0.6733
5673.00,0.6692
5672.00,0.6658
5671.00,0.6632
5670.00,0.6615
5669.00,0.6606
5668.00,0.6606
5667.00,0.6615
5666.00,0.6633
5665.00,0.6659
5664.00,0.6694
5663.00,0.6737
5662.00,0.6787
5661.00,0.6846
5660.00,0.6913
5659.00,0.6988
5658.00,0.7071
5657.00,0.7162
5656.00,0.7259
5655.00,0.7361
5654.00,0.7470
5653.00,0.7584
5652.00,0.7704
5651.00,0.7828
5650.00,0.7957
5649.00,0.8089
5648.00,0.8224
5647.00,0.8360
5646.00,0.8499
5645.00,0.8640
5644.00,0.8781
5643.00,0.8921
5642.00,0.9062
5641.00,0.9202
5640.00,0.9342
5639.00,0.9482
5638.00,0.9621
5637.00,0.9759
5636.00,0.9895
5635.00,1.0028
5634.00,1.0157
5633.00,1.0283
5632.00,1.0406
5631.00,1.0526
5630.00,1.0645
5629.00,1.0759
5628.00,1.0871
5627.00,1.0979
5626.00,1.1083
5625.00,1.1182
5624.00,1.1276
5623.00,1.1366
5622.00,1.1452
5621.00,1.1534
5620.00,1.1613
5619.00,1.1688
5618.00,1.1762
5617.00,1.1832
5616.00,1.1897
5615.00,1.1957
5614.00,1.2012
5613.00,1.2062
5612.00,1.2106
5611.00,1.2147
5610.00,1.2186
5609.00,1.2221
5608.00,1.2252
5607.00,1.2277
5606.00,1.2297
5605.00,1.2312
5604.00,1.2323
5603.00,1.2331
5602.00,1.2337
5601.00,1.2342
5600.00,1.2345
5599.00,1.2343
5598.00,1.2336
5597.00,1.2322
5596.00,1.2302
5595.00,1.2276
5594.00,1.2246
5593.00,1.2211
5592.00,1.2173
5591.00,1.2131
5590.00,1.2085
5589.00,1.2037
5588.00,1.1984
5587.00,1.1928
5586.00,1.1870
5585.00,1.1810
5584.00,1.1745
5583.00,1.1675
5582.00,1.1597
5581.00,1.1515
5580.00,1.1429
5579.00,1.1339
5578.00,1.1245
5577.00,1.1148
5576.00,1.1047
5575.00,1.0943
5574.00,1.0835
5573.00,1.0725
5572.00,1.0612
5571.00,1.0495
5570.00,1.0372
5569.00,1.0245
5568.00,1.0114
5567.00,0.9982
5566.00,0.9848
5565.00,0.9713
5564.00,0.9576
5563.00,0.9437
5562.00,0.9297
5561.00,0.9156
5560.00,0.9016
5559.00,0.8875
5558.00,0.8736
5557.00,0.8598
5556.00,0.8462
5555.00,0.8327
5554.00,0.8194
5553.00,0.8064
5552.00,0.7936
5551.00,0.7811
5550.00,0.7690
5549.00,0.7573
5548.00,0.7461
5547.00,0.7355
5546.00,0.7255
5545.00,0.7161
5544.00,0.7075
5543.00,0.6996
5542.00,0.6925
5541.00,0.6862
5540.00,0.6805
5539.00,0.6756
5538.00,0.6716
5537.00,0.6684
5536.00,0.6661
5535.00,0.6649
5534.00,0.6646
5533.00,0.6653
5532.00,0.6668
5531.00,0.6692
5530.00,0.6726
5529.00,0.6769
5528.00,0.6822
5527.00,0.6883
5526.00,0.6953
5525.00,0.7031
5524.00,0.7117
5523.00,0.7209
5522.00,0.7309
5521.00,0.7415
5520.00,0.7528
5519.00,0.7647
5518.00,0.7771
5517.00,0.7902
5516.00,0.8038
5515.00,0.8179
5514.00,0.8322
5513.00,0.8469
5512.00,0.8617
5511.00,0.8765
5510.00,0.8912
5509.00,0.9060
5508.00,0.9209
5507.00,0.9359
5506.00,0.9509
5505.00,0.9659
5504.00,0.9806
5503.00,0.9949
5502.00,1.0088
5501.00,1.0222
5500.00,1.0353
5499.00,1.0481
5498.00,1.0608
5497.00,1.0733
5496.00,1.0857
5495.00,1.0977
5494.00,1.1094
5493.00,1.1206
5492.00,1.1313
5491.00,1.1414
5490.00,1.1511
5489.00,1.1604
5488.00,1.1694
5487.00,1.1780
5486.00,1.1863
5485.00,1.1943
5484.00,1.2019
5483.00,1.2090
5482.00,1.2157
5481.00,1.2218
5480.00,1.2273
5479.00,1.2324
5478.00,1.2369
5477.00,1.2409
5476.00,1.2445
5475.00,1.2477
5474.00,1.2506
5473.00,1.2530
5472.00,1.2549
5471.00,1.2566
5470.00,1.2581
5469.00,1.2591
5468.00,1.2595
5467.00,1.2595
5466.00,1.2592
5465.00,1.2587
5464.00,1.2577
5463.00,1.2564
5462.00,1.2548
5461.00,1.2527
5460.00,1.2499
5459.00,1.2466
5458.00,1.2428
5457.00,1.2387
5456.00,1.2344
5455.00,1.2296
5454.00,1.2244
5453.00,1.2188
5452.00,1.2127
5451.00,1.2060
5450.00,1.1989
5449.00,1.1914
5448.00,1.1835
5447.00,1.1752
5446.00,1.1663
5445.00,1.1571
5444.00,1.1474
5443.00,1.1374
5442.00,1.1270
5441.00,1.1162
5440.00,1.1050
5439.00,1.0935
5438.00,1.0815
5437.00,1.0692
5436.00,1.0565
5435.00,1.0433
5434.00,1.0299
5433.00,1.0163
5432.00,1.0026
5431.00,0.9885
5430.00,0.9741
5429.00,0.9595
5428.00,0.9447
5427.00,0.9299
5426.00,0.9152
5425.00,0.9006
5424.00,0.8859
5423.00,0.8712
5422.00,0.8566
5421.00,0.8424
5420.00,0.8283
5419.00,0.8144
5418.00,0.8008
5417.00,0.7874
5416.00,0.7744
5415.00,0.7618
5414.00,0.7496
5413.00,0.7379
5412.00,0.7267
5411.00,0.7162
5410.00,0.7064
5409.00,0.6972
5408.00,0.6889
5407.00,0.6816
5406.00,0.6752
5405.00,0.6699
5404.00,0.6655
5403.00,0.6620
5402.00,0.6595
5401.00,0.6578
5400.00,0.6571
5399.00,0.6573
5398.00,0.6586
5397.00,0.6608
5396.00,0.6640
5395.00,0.6680
5394.00,0.6730
5393.00,0.6790
5392.00,0.6858
5391.00,0.6937
5390.00,0.7025
5389.00,0.7120
5388.00,0.7223
5387.00,0.7332
5386.00,0.7448
5385.00,0.7570
5384.00,0.7698
5383.00,0.7832
5382.00,0.7970
5381.00,0.8113
5380.00,0.8259
5379.00,0.8408
5378.00,0.8561
5377.00,0.8717
5376.00,0.8875
5375.00,0.9035
5374.00,0.9195
5373.00,0.9354
5372.00,0.9511
5371.00,0.9665
5370.00,0.9817
5369.00,0.9967
5368.00,1.0113
5367.00,1.0256
5366.00,1.0399
5365.00,1.0541
5364.00,1.0682
5363.00,1.0819
5362.00,1.0953
5361.00,1.1082
5360.00,1.1203
5359.00,1.1318
5358.00,1.1428
5357.00,1.1534
5356.00,1.1637
5355.00,1.1735
5354.00,1.1829
5353.00,1.1919
5352.00,1.2006
5351.00,1.2088
5350.00,1.2166
5349.00,1.2242
5348.00,1.2313
5347.00,1.2381
5346.00,1.2444
5345.00,1.2502
5344.00,1.2557
5343.00,1.2608
5342.00,1.2654
5341.00,1.2695
5340.00,1.2730
5339.00,1.2762
5338.00,1.2790
5337.00,1.2815
5336.00,1.2838
5335.00,1.2856
5334.00,1.2868
5333.00,1.2875
5332.00,1.2878
5331.00,1.2878
5330.00,1.2877
5329.00,1.2873
5328.00,1.2862
5327.00,1.2845
5326.00,1.2823
5325.00,1.2797
5324.00,1.2767
5323.00,1.2733
5322.00,1.2693
5321.00,1.2647
5320.00,1.2596
5319.00,1.2542
5318.00,1.2485
5317.00,1.2426
5316.00,1.2364
5315.00,1.2297
5314.00,1.2224
5313.00,1.2146
5312.00,1.2064
5311.00,1.1978
5310.00,1.1887
5309.00,1.1792
5308.00,1.1690
5307.00,1.1585
5306.00,1.1475
5305.00,1.1361
5304.00,1.1245
5303.00,1.1126
5302.00,1.1003
5301.00,1.0877
5300.00,1.0746
5299.00,1.0612
5298.00,1.0474
5297.00,1.0332
5296.00,1.0187
5295.00,1.0042
5294.00,0.9897
5293.00,0.9751
5292.00,0.9602
5291.00,0.9451
5290.00,0.9298
5289.00,0.9144
5288.00,0.8991
5287.00,0.8841
5286.00,0.8693
5285.00,0.8549
5284.00,0.8406
5283.00,0.8266
5282.00,0.8130
5281.00,0.7998
5280.00,0.7870
5279.00,0.7747
5278.00,0.7630
5277.00,0.7520
5276.00,0.7416
5275.00,0.7319
5274.00,0.7228
5273.00,0.7146
5272.00,0.7072
5271.00,0.7008
5270.00,0.6953
5269.00,0.6908
5268.00,0.6873
5267.00,0.6848
5266.00,0.6832
5265.00,0.6827
5264.00,0.6830
5263.00,0.6844
5262.00,0.6867
5261.00,0.6899
5260.00,0.6943
5259.00,0.6996
5258.00,0.7061
5257.00,0.7135
5256.00,0.7219
5255.00,0.7311
5254.00,0.7409
5253.00,0.7515
5252.00,0.7628
5251.00,0.7746
5250.00,0.7872
5249.00,0.8004
5248.00,0.8142
5247.00,0.8285
5246.00,0.8432
5245.00,0.8582
5244.00,0.8736
5243.00,0.8893
5242.00,0.9051
5241.00,0.9210
5240.00,0.9370
5239.00,0.9530
5238.00,0.9687
5237.00,0.9844
5236.00,0.9999
5235.00,1.0153
5234.00,1.0307
5233.00,1.0460
5232.00,1.0612
5231.00,1.0759
5230.00,1.0900
5229.00,1.1034
5228.00,1.1163
5227.00,1.1287
5226.00,1.1410
5225.00,1.1532
5224.00,1.1651
5223.00,1.1765
5222.00,1.1875
5221.00,1.1981
5220.00,1.2082
5219.00,1.2180
5218.00,1.2273
5217.00,1.2362
5216.00,1.2447
5215.00,1.2527
5214.00,1.2602
5213.00,1.2672
5212.00,1.2738
5211.00,1.2798
5210.00,1.2853
5209.00,1.2903
5208.00,1.2949
5207.00,1.2989
5206.00,1.3023
5205.00,1.3052
5204.00,1.3078
5203.00,1.3102
5202.00,1.3124
5201.00,1.3142
5200.00,1.3158
5199.00,1.3170
5198.00,1.3177
5197.00,1.3179
5196.00,1.3176
5195.00,1.3170
5194.00,1.3160
5193.00,1.3147
5192.00,1.3130
5191.00,1.3107
5190.00,1.3079
5189.00,1.3046
5188.00,1.3007
5187.00,1.2964
5186.00,1.2917
5185.00,1.2864
5184.00,1.2806
5183.00,1.2744
5182.00,1.2679
5181.00,1.2611
5180.00,1.2540
5179.00,1.2464
5178.00,1.2382
5177.00,1.2295
5176.00,1.2202
5175.00,1.2105
5174.00,1.2004
5173.00,1.1900
5172.00,1.1792
5171.00,1.1680
5170.00,1.1562
5169.00,1.1438
5168.00,1.1309
5167.00,1.1175
5166.00,1.1038
5165.00,1.0900
5164.00,1.0758
5163.00,1.0614
5162.00,1.0467
5161.00,1.0315
5160.00,1.0159
5159.00,1.0000
5158.00,0.9839
5157.00,0.9677
5156.00,0.9515
5155.00,0.9352
5154.00,0.9190
5153.00,0.9029
5152.00,0.8868
5151.00,0.8708
5150.00,0.8551
5149.00,0.8397
5148.00,0.8247
5147.00,0.8101
5146.00,0.7959
5145.00,0.7823
5144.00,0.7691
5143.00,0.7564
5142.00,0.7444
5141.00,0.7331
5140.00,0.7225
5139.00,0.7128
5138.00,0.7040
5137.00,0.6962
5136.00,0.6894
5135.00,0.6835
5134.00,0.6785
5133.00,0.6746
5132.00,0.6718
5131.00,0.6700
5130.00,0.6694
5129.00,0.6698
5128.00,0.6713
5127.00,0.6739
5126.00,0.6777
5125.00,0.6825
5124.00,0.6885
5123.00,0.6955
5122.00,0.7035
5121.00,0.7124
5120.00,0.7223
5119.00,0.7332
5118.00,0.7450
5117.00,0.7577
5116.00,0.7711
5115.00,0.7852
5114.00,0.7998
5113.00,0.8151
5112.00,0.8308
5111.00,0.8470
5110.00,0.8637
5109.00,0.8806
5108.00,0.8978
5107.00,0.9151
5106.00,0.9325
5105.00,0.9498
5104.00,0.9670
5103.00,0.9841
5102.00,1.0010
5101.00,1.0179
5100.00,1.0345
5099.00,1.0509
5098.00,1.0670
5097.00,1.0827
5096.00,1.0980
5095.00,1.1129
5094.00,1.1275
5093.00,1.1417
5092.00,1.1554
5091.00,1.1686
5090.00,1.1812
5089.00,1.1931
5088.00,1.2044
5087.00,1.2151
5086.00,1.2254
5085.00,1.2355
5084.00,1.2454
5083.00,1.2552
5082.00,1.2647
5081.00,1.2736
5080.00,1.2817
5079.00,1.2890
5078.00,1.2957
5077.00,1.3022
5076.00,1.3084
5075.00,1.3142
5074.00,1.3197
5073.00,1.3247
5072.00,1.3291
5071.00,1.3331
5070.00,1.3365
5069.00,1.3395
5068.00,1.3420
5067.00,1.3443
5066.00,1.3464
5065.00,1.3482
5064.00,1.3496
5063.00,1.3503
5062.00,1.3502
5061.00,1.3495
5060.00,1.3485
5059.00,1.3472
5058.00,1.3458
5057.00,1.3441
5056.00,1.3420
5055.00,1.3393
5054.00,1.3362
5053.00,1.3326
5052.00,1.3283
5051.00,1.3235
5050.00,1.3184
5049.00,1.3131
5048.00,1.3075
5047.00,1.3015
5046.00,1.2948
5045.00,1.2873
5044.00,1.2793
5043.00,1.2710
5042.00,1.2624
5041.00,1.2534
5040.00,1.2438
5039.00,1.2336
5038.00,1.2227
5037.00,1.2115
5036.00,1.1999
5035.00,1.1880
5034.00,1.1756
5033.00,1.1627
5032.00,1.1492
5031.00,1.1353
5030.00,1.1211
5029.00,1.1066
5028.00,1.0917
5027.00,1.0764
5026.00,1.0607
5025.00,1.0447
5024.00,1.0284
5023.00,1.0120
5022.00,0.9956
5021.00,0.9790
5020.00,0.9623
5019.00,0.9454
5018.00,0.9286
5017.00,0.9120
5016.00,0.8955
5015.00,0.8792
5014.00,0.8631
5013.00,0.8472
5012.00,0.8317
5011.00,0.8167
5010.00,0.8022
5009.00,0.7884
5008.00,0.7752
5007.00,0.7626
5006.00,0.7507
5005.00,0.7397
5004.00,0.7295
5003.00,0.7203
5002.00,0.7121
5001.00,0.7049
5000.00,0.6988
4999.00,0.6937
4998.00,0.6897
4997.00,0.6868
4996.00,0.6851
4995.00,0.6844
4994.00,0.6849
4993.00,0.6866
4992.00,0.6895
4991.00,0.6936
4990.00,0.6988
4989.00,0.7052
4988.00,0.7126
4987.00,0.7211
4986.00,0.7307
4985.00,0.7414
4984.00,0.7530
4983.00,0.7654
4982.00,0.7786
4981.00,0.7926
4980.00,0.8073
4979.00,0.8230
4978.00,0.8395
4977.00,0.8567
4976.00,0.8742
4975.00,0.8918
4974.00,0.9096
4973.00,0.9275
4972.00,0.9455
4971.00,0.9635
4970.00,0.9816
4969.00,0.9996
4968.00,1.0174
4967.00,1.0350
4966.00,1.0523
4965.00,1.0693
4964.00,1.0860
4963.00,1.1023
4962.00,1.1183
4961.00,1.1339
4960.00,1.1491
4959.00,1.1638
4958.00,1.1779
4957.00,1.1916
4956.00,1.2048
4955.00,1.2177
4954.00,1.2302
4953.00,1.2422
4952.00,1.2535
4951.00,1.2641
4950.00,1.2741
4949.00,1.2835
4948.00,1.2925
4947.00,1.3012
4946.00,1.3095
4945.00,1.3174
4944.00,1.3248
4943.00,1.3318
4942.00,1.3382
4941.00,1.3442
4940.00,1.3496
4939.00,1.3546
4938.00,1.3593
4937.00,1.3638
4936.00,1.3678
4935.00,1.3713
4934.00,1.3743
4933.00,1.3768
4932.00,1.3789
4931.00,1.3806
4930.00,1.3819
4929.00,1.3827
4928.00,1.3829
4927.00,1.3825
4926.00,1.3816
4925.00,1.3804
4924.00,1.3788
4923.00,1.3767
4922.00,1.3742
4921.00,1.3712
4920.00,1.3679
4919.00,1.3642
4918.00,1.3602
4917.00,1.3557
4916.00,1.3509
4915.00,1.3456
4914.00,1.3398
4913.00,1.3336
4912.00,1.3269
4911.00,1.3196
4910.00,1.3117
4909.00,1.3032
4908.00,1.2942
4907.00,1.2849
4906.00,1.2752
4905.00,1.2651
4904.00,1.2545
4903.00,1.2433
4902.00,1.2314
4901.00,1.2190
4900.00,1.2061
4899.00,1.1929
4898.00,1.1791
4897.00,1.1648
4896.00,1.1501
4895.00,1.1350
4894.00,1.1197
4893.00,1.1040
4892.00,1.0880
4891.00,1.0715
4890.00,1.0546
4889.00,1.0374
4888.00,1.0201
4887.00,1.0027
4886.00,0.9852
4885.00,0.9676
4884.00,0.9499
4883.00,0.9321
4882.00,0.9145
4881.00,0.8972
4880.00,0.8801
4879.00,0.8633
4878.00,0.8469
4877.00,0.8308
4876.00,0.8152
4875.00,0.8002
4874.00,0.7857
4873.00,0.7719
4872.00,0.7588
4871.00,0.7465
4870.00,0.7350
4869.00,0.7245
4868.00,0.7150
4867.00,0.7066
4866.00,0.6993
4865.00,0.6931
4864.00,0.6880
4863.00,0.6841
4862.00,0.6815
4861.00,0.6802
4860.00,0.6801
4859.00,0.6813
4858.00,0.6838
4857.00,0.6876
4856.00,0.6928
4855.00,0.6992
4854.00,0.7069
4853.00,0.7158
4852.00,0.7258
4851.00,0.7370
4850.00,0.7492
4849.00,0.7625
4848.00,0.7768
4847.00,0.7918
4846.00,0.8077
4845.00,0.8242
4844.00,0.8414
4843.00,0.8591
4842.00,0.8773
4841.00,0.8959
4840.00,0.9148
4839.00,0.9338
4838.00,0.9529
4837.00,0.9720
4836.00,0.9911
4835.00,1.0100
4834.00,1.0287
4833.00,1.0473
4832.00,1.0656
4831.00,1.0838
4830.00,1.1017
4829.00,1.1191
4828.00,1.1361
4827.00,1.1523
4826.00,1.1681
4825.00,1.1833
4824.00,1.1981
4823.00,1.2124
4822.00,1.2263
4821.00,1.2397
4820.00,1.2526
4819.00,1.2649
4818.00,1.2769
4817.00,1.2885
4816.00,1.2997
4815.00,1.3104
4814.00,1.3205
4813.00,1.3301
4812.00,1.3391
4811.00,1.3474
4810.00,1.3551
4809.00,1.3622
4808.00,1.3689
4807.00,1.3753
4806.00,1.3815
4805.00,1.3875
4804.00,1.3928
4803.00,1.3975
4802.00,1.4016
4801.00,1.4052
4800.00,1.4085
4799.00,1.4114
4798.00,1.4140
4797.00,1.4161
4796.00,1.4178
4795.00,1.4190
4794.00,1.4198
4793.00,1.4201
4792.00,1.4199
4791.00,1.4194
4790.00,1.4184
4789.00,1.4171
4788.00,1.4152
4787.00,1.4129
4786.00,1.4099
4785.00,1.4065
4784.00,1.4028
4783.00,1.3987
4782.00,1.3944
4781.00,1.3896
4780.00,1.3842
4779.00,1.3782
4778.00,1.3717
4777.00,1.3647
4776.00,1.3573
4775.00,1.3495
4774.00,1.3413
4773.00,1.3325
4772.00,1.3231
4771.00,1.3133
4770.00,1.3030
4769.00,1.2922
4768.00,1.2808
4767.00,1.2688
4766.00,1.2562
4765.00,1.2431
4764.00,1.2297
4763.00,1.2158
4762.00,1.2014
4761.00,1.1865
4760.00,1.1711
4759.00,1.1551
4758.00,1.1386
4757.00,1.1217
4756.00,1.1044
4755.00,1.0868
4754.00,1.0689
4753.00,1.0508
4752.00,1.0325
4751.00,1.0140
4750.00,0.9952
4749.00,0.9764
4748.00,0.9576
4747.00,0.9390
4746.00,0.9206
4745.00,0.9024
4744.00,0.8844
4743.00,0.8667
4742.00,0.8494
4741.00,0.8326
4740.00,0.8165
4739.00,0.8009
4738.00,0.7861
4737.00,0.7721
4736.00,0.7590
4735.00,0.7468
4734.00,0.7357
4733.00,0.7256
4732.00,0.7167
4731.00,0.7090
4730.00,0.7025
4729.00,0.6974
4728.00,0.6935
4727.00,0.6911
4726.00,0.6901
4725.00,0.6905
4724.00,0.6924
4723.00,0.6957
4722.00,0.7003
4721.00,0.7064
4720.00,0.7139
4719.00,0.7227
4718.00,0.7328
4717.00,0.7442
4716.00,0.7567
4715.00,0.7703
4714.00,0.7849
4713.00,0.8005
4712.00,0.8170
4711.00,0.8344
4710.00,0.8525
4709.00,0.8713
4708.00,0.8905
4707.00,0.9100
4706.00,0.9299
4705.00,0.9500
4704.00,0.9702
4703.00,0.9905
4702.00,1.0108
4701.00,1.0309
4700.00,1.0508
4699.00,1.0704
4698.00,1.0896
4697.00,1.1083
4696.00,1.1265
4695.00,1.1442
4694.00,1.1616
4693.00,1.1788
4692.00,1.1955
4691.00,1.2119
4690.00,1.2276
4689.00,1.2428
4688.00,1.2574
4687.00,1.2714
4686.00,1.2848
4685.00,1.2977
4684.00,1.3100
4683.00,1.3217
4682.00,1.3328
4681.00,1.3432
4680.00,1.3532
4679.00,1.3629
4678.00,1.3723
4677.00,1.3814
4676.00,1.3899
4675.00,1.3976
4674.00,1.4047
4673.00,1.4112
4672.00,1.4174
4671.00,1.4232
4670.00,1.4287
4669.00,1.4338
4668.00,1.4384
4667.00,1.4424
4666.00,1.4459
4665.00,1.4487
4664.00,1.4509
4663.00,1.4528
4662.00,1.4545
4661.00,1.4559
4660.00,1.4569
4659.00,1.4574
4658.00,1.4574
4657.00,1.4568
4656.00,1.4559
4655.00,1.4545
4654.00,1.4528
4653.00,1.4506
4652.00,1.4479
4651.00,1.4447
4650.00,1.4411
4649.00,1.4370
4648.00,1.4325
4647.00,1.4275
4646.00,1.4221
4645.00,1.4161
4644.00,1.4095
4643.00,1.4023
4642.00,1.3945
4641.00,1.3862
4640.00,1.3775
4639.00,1.3682
4638.00,1.3583
4637.00,1.3477
4636.00,1.3367
4635.00,1.3252
4634.00,1.3134
4633.00,1.3012
4632.00,1.2886
4631.00,1.2754
4630.00,1.2615
4629.00,1.2471
4628.00,1.2324
4627.00,1.2172
4626.00,1.2018
4625.00,1.1859
4624.00,1.1697
4623.00,1.1530
4622.00,1.1359
4621.00,1.1185
4620.00,1.1006
4619.00,1.0825
4618.00,1.0640
4617.00,1.0453
4616.00,1.0264
4615.00,1.0073
4614.00,0.9882
4613.00,0.9691
4612.00,0.9500
4611.00,0.9310
4610.00,0.9122
4609.00,0.8937
4608.00,0.8756
4607.00,0.8580
4606.00,0.8409
4605.00,0.8244
4604.00,0.8084
4603.00,0.7932
4602.00,0.7788
4601.00,0.7653
4600.00,0.7530
4599.00,0.7417
4598.00,0.7317
4597.00,0.7230
4596.00,0.7156
4595.00,0.7096
4594.00,0.7050
4593.00,0.7019
4592.00,0.7003
4591.00,0.7003
4590.00,0.7017
4589.00,0.7047
4588.00,0.7093
4587.00,0.7153
4586.00,0.7229
4585.00,0.7319
4584.00,0.7423
4583.00,0.7540
4582.00,0.7671
4581.00,0.7814
4580.00,0.7968
4579.00,0.8132
4578.00,0.8306
4577.00,0.8488
4576.00,0.8679
4575.00,0.8876
4574.00,0.9078
4573.00,0.9285
4572.00,0.9494
4571.00,0.9705
4570.00,0.9918
4569.00,1.0130
4568.00,1.0342
4567.00,1.0552
4566.00,1.0761
4565.00,1.0968
4564.00,1.1173
4563.00,1.1373
4562.00,1.1568
4561.00,1.1756
4560.00,1.1939
4559.00,1.2116
4558.00,1.2288
4557.00,1.2455
4556.00,1.2616
4555.00,1.2771
4554.00,1.2920
4553.00,1.3064
4552.00,1.3204
4551.00,1.3338
4550.00,1.3467
4549.00,1.3589
4548.00,1.3705
4547.00,1.3816
4546.00,1.3924
4545.00,1.4029
4544.00,1.4129
4543.00,1.4223
4542.00,1.4309
4541.00,1.4388
4540.00,1.4461
4539.00,1.4530
4538.00,1.4594
4537.00,1.4654
4536.00,1.4710
4535.00,1.4762
4534.00,1.4810
4533.00,1.4855
4532.00,1.4897
4531.00,1.4936
4530.00,1.4969
4529.00,1.4995
4528.00,1.5012
4527.00,1.5023
4526.00,1.5030
4525.00,1.5035
4524.00,1.5037
4523.00,1.5035
4522.00,1.5029
4521.00,1.5018
4520.00,1.5002
4519.00,1.4981
4518.00,1.4955
4517.00,1.4925
4516.00,1.4892
4515.00,1.4856
4514.00,1.4816
4513.00,1.4771
4512.00,1.4720
4511.00,1.4663
4510.00,1.4601
4509.00,1.4533
4508.00,1.4461
4507.00,1.4383
4506.00,1.4299
4505.00,1.4209
4504.00,1.4114
4503.00,1.4014
4502.00,1.3908
4501.00,1.3796
4500.00,1.3678
4499.00,1.3555
4498.00,1.3426
4497.00,1.3292
4496.00,1.3152
4495.00,1.3008
4494.00,1.2859
4493.00,1.2705
4492.00,1.2547
4491.00,1.2383
4490.00,1.2214
4489.00,1.2038
4488.00,1.1859
4487.00,1.1675
4486.00,1.1489
4485.00,1.1299
4484.00,1.1107
4483.00,1.0912
4482.00,1.0715
4481.00,1.0516
4480.00,1.0318
4479.00,1.0120
4478.00,0.9924
4477.00,0.9731
4476.00,0.9540
4475.00,0.9353
4474.00,0.9171
4473.00,0.8995
4472.00,0.8825
4471.00,0.8663
4470.00,0.8509
4469.00,0.8365
4468.00,0.8231
4467.00,0.8109
4466.00,0.8001
4465.00,0.7905
4464.00,0.7824
4463.00,0.7758
4462.00,0.7707
4461.00,0.7672
4460.00,0.7654
4459.00,0.7653
4458.00,0.7671
4457.00,0.7705
4456.00,0.7756
4455.00,0.7824
4454.00,0.7907
4453.00,0.8006
4452.00,0.8121
4451.00,0.8248
4450.00,0.8389
4449.00,0.8541
4448.00,0.8704
4447.00,0.8876
4446.00,0.9055
4445.00,0.9239
4444.00,0.9426
4443.00,0.9615
4442.00,0.9804
4441.00,0.9991
4440.00,1.0174
4439.00,1.0351
4438.00,1.0524
4437.00,1.0692
4436.00,1.0856
4435.00,1.1017
4434.00,1.1176
4433.00,1.1334
4432.00,1.1490
4431.00,1.1645
4430.00,1.1802
4429.00,1.1960
4428.00,1.2118
4427.00,1.2278
4426.00,1.2439
4425.00,1.2600
4424.00,1.2761
4423.00,1.2919
4422.00,1.3075
4421.00,1.3228
4420.00,1.3377
4419.00,1.3522
4418.00,1.3662
4417.00,1.3799
4416.00,1.3933
4415.00,1.4062
4414.00,1.4186
4413.00,1.4305
4412.00,1.4418
4411.00,1.4526
4410.00,1.4629
4409.00,1.4729
4408.00,1.4823
4407.00,1.4913
4406.00,1.4999
4405.00,1.5080
4404.00,1.5155
4403.00,1.5222
4402.00,1.5282
4401.00,1.5336
4400.00,1.5387
4399.00,1.5435
4398.00,1.5480
4397.00,1.5521
4396.00,1.5557
4395.00,1.5587
4394.00,1.5610
4393.00,1.5626
4392.00,1.5637
4391.00,1.5645
4390.00,1.5648
4389.00,1.5648
4388.00,1.5642
4387.00,1.5632
4386.00,1.5620
4385.00,1.5608
4384.00,1.5595
4383.00,1.5577
4382.00,1.5553
4381.00,1.5522
4380.00,1.5486
4379.00,1.5447
4378.00,1.5405
4377.00,1.5363
4376.00,1.5319
4375.00,1.5271
4374.00,1.5217
4373.00,1.5157
4372.00,1.5091
4371.00,1.5024
4370.00,1.4957
4369.00,1.4888
4368.00,1.4815
4367.00,1.4737
4366.00,1.4652
4365.00,1.4563
4364.00,1.4472
4363.00,1.4375
4362.00,1.4269
4361.00,1.4154
4360.00,1.4030
4359.00,1.3901
4358.00,1.3767
4357.00,1.3629
4356.00,1.3483
4355.00,1.3327
4354.00,1.3160
4353.00,1.2986
4352.00,1.2805
4351.00,1.2619
4350.00,1.2427
4349.00,1.2231
4348.00,1.2029
4347.00,1.1821
4346.00,1.1609
4345.00,1.1392
4344.00,1.1172
4343.00,1.0951
4342.00,1.0729
4341.00,1.0507
4340.00,1.0286
4339.00,1.0066
4338.00,0.9848
4337.00,0.9634
4336.00,0.9424
4335.00,0.9222
4334.00,0.9027
4333.00,0.8840
4332.00,0.8662
4331.00,0.8495
4330.00,0.8341
4329.00,0.8202
4328.00,0.8078
4327.00,0.7970
4326.00,0.7878
4325.00,0.7803
4324.00,0.7743
4323.00,0.7700
4322.00,0.7671
4321.00,0.7657
4320.00,0.7656
4319.00,0.7668
4318.00,0.7692
4317.00,0.7729
4316.00,0.7780
4315.00,0.7845
4314.00,0.7925
4313.00,0.8021
4312.00,0.8133
4311.00,0.8262
4310.00,0.8407
4309.00,0.8566
4308.00,0.8739
4307.00,0.8925
4306.00,0.9122
4305.00,0.9328
4304.00,0.9542
4303.00,0.9762
4302.00,0.9987
4301.00,1.0217
4300.00,1.0448
4299.00,1.0680
4298.00,1.0911
4297.00,1.1139
4296.00,1.1365
4295.00,1.1586
4294.00,1.1803
4293.00,1.2016
4292.00,1.2226
4291.00,1.2431
4290.00,1.2631
4289.00,1.2825
4288.00,1.3012
4287.00,1.3194
4286.00,1.3368
4285.00,1.3537
4284.00,1.3698
4283.00,1.3853
4282.00,1.4001
4281.00,1.4143
4280.00,1.4278
4279.00,1.4408
4278.00,1.4533
4277.00,1.4653
4276.00,1.4766
4275.00,1.4873
4274.00,1.4975
4273.00,1.5074
4272.00,1.5168
4271.00,1.5258
4270.00,1.5340
4269.00,1.5415
4268.00,1.5485
4267.00,1.5552
4266.00,1.5615
4265.00,1.5674
4264.00,1.5726
4263.00,1.5771
4262.00,1.5812
4261.00,1.5851
4260.00,1.5888
4259.00,1.5921
4258.00,1.5948
4257.00,1.5969
4256.00,1.5984
4255.00,1.5993
4254.00,1.5997
4253.00,1.5996
4252.00,1.5990
4251.00,1.5982
4250.00,1.5971
4249.00,1.5956
4248.00,1.5936
4247.00,1.5912
4246.00,1.5883
4245.00,1.5851
4244.00,1.5814
4243.00,1.5770
4242.00,1.5719
4241.00,1.5660
4240.00,1.5596
4239.00,1.5530
4238.00,1.5461
4237.00,1.5387
4236.00,1.5308
4235.00,1.5223
4234.00,1.5131
4233.00,1.5035
4232.00,1.4933
4231.00,1.4825
4230.00,1.4711
4229.00,1.4589
4228.00,1.4460
4227.00,1.4326
4226.00,1.4186
4225.00,1.4042
4224.00,1.3892
4223.00,1.3734
4222.00,1.3569
4221.00,1.3396
4220.00,1.3217
4219.00,1.3032
4218.00,1.2842
4217.00,1.2646
4216.00,1.2444
4215.00,1.2237
4214.00,1.2025
4213.00,1.1809
4212.00,1.1588
4211.00,1.1363
4210.00,1.1134
4209.00,1.0903
4208.00,1.0670
4207.00,1.0438
4206.00,1.0207
4205.00,0.9979
4204.00,0.9753
4203.00,0.9530
4202.00,0.9312
4201.00,0.9098
4200.00,0.8892
4199.00,0.8696
4198.00,0.8509
4197.00,0.8333
4196.00,0.8169
4195.00,0.8018
4194.00,0.7881
4193.00,0.7760
4192.00,0.7654
4191.00,0.7565
4190.00,0.7494
4189.00,0.7442
4188.00,0.7409
4187.00,0.7395
4186.00,0.7401
4185.00,0.7427
4184.00,0.7473
4183.00,0.7539
4182.00,0.7624
4181.00,0.7728
4180.00,0.7851
4179.00,0.7991
4178.00,0.8147
4177.00,0.8320
4176.00,0.8506
4175.00,0.8706
4174.00,0.8919
4173.00,0.9142
4172.00,0.9374
4171.00,0.9614
4170.00,0.9859
4169.00,1.0107
4168.00,1.0357
4167.00,1.0609
4166.00,1.0862
4165.00,1.1112
4164.00,1.1360
4163.00,1.1603
4162.00,1.1842
4161.00,1.2077
4160.00,1.2306
4159.00,1.2530
4158.00,1.2747
4157.00,1.2959
4156.00,1.3164
4155.00,1.3362
4154.00,1.3551
4153.00,1.3733
4152.00,1.3907
4151.00,1.4074
4150.00,1.4236
4149.00,1.4394
4148.00,1.4546
4147.00,1.4692
4146.00,1.4831
4145.00,1.4963
4144.00,1.5090
4143.00,1.5211
4142.00,1.5327
4141.00,1.5437
4140.00,1.5540
4139.00,1.5637
4138.00,1.5727
4137.00,1.5811
4136.00,1.5891
4135.00,1.5967
4134.00,1.6038
4133.00,1.6104
4132.00,1.6166
4131.00,1.6222
4130.00,1.6273
4129.00,1.6317
4128.00,1.6355
4127.00,1.6391
4126.00,1.6424
4125.00,1.6454
4124.00,1.6481
4123.00,1.6504
4122.00,1.6521
4121.00,1.6532
4120.00,1.6537
4119.00,1.6537
4118.00,1.6533
4117.00,1.6524
4116.00,1.6510
4115.00,1.6490
4114.00,1.6467
4113.00,1.6439
4112.00,1.6409
4111.00,1.6374
4110.00,1.6333
4109.00,1.6285
4108.00,1.6232
4107.00,1.6173
4106.00,1.6109
4105.00,1.6041
4104.00,1.5970
4103.00,1.5894
4102.00,1.5815
4101.00,1.5729
4100.00,1.5637
4099.00,1.5538
4098.00,1.5433
4097.00,1.5321
4096.00,1.5205
4095.00,1.5083
4094.00,1.4955
4093.00,1.4818
4092.00,1.4673
4091.00,1.4522
4090.00,1.4367
4089.00,1.4205
4088.00,1.4037
4087.00,1.3863
4086.00,1.3683
4085.00,1.3496
4084.00,1.3303
4083.00,1.3102
4082.00,1.2894
4081.00,1.2680
4080.00,1.2462
4079.00,1.2238
4078.00,1.2011
4077.00,1.1780
4076.00,1.1547
4075.00,1.1311
4074.00,1.1074
4073.00,1.0836
4072.00,1.0598
4071.00,1.0362
4070.00,1.0129
4069.00,0.9901
4068.00,0.9679
4067.00,0.9463
4066.00,0.9255
4065.00,0.9055
4064.00,0.8864
4063.00,0.8683
4062.00,0.8514
4061.00,0.8359
4060.00,0.8218
4059.00,0.8093
4058.00,0.7985
4057.00,0.7895
4056.00,0.7824
4055.00,0.7772
4054.00,0.7742
4053.00,0.7733
4052.00,0.7747
4051.00,0.7783
4050.00,0.7841
4049.00,0.7921
4048.00,0.8020
4047.00,0.8140
4046.00,0.8281
4045.00,0.8441
4044.00,0.8620
4043.00,0.8816
4042.00,0.9026
4041.00,0.9249
4040.00,0.9483
4039.00,0.9727
4038.00,0.9978
4037.00,1.0234
4036.00,1.0493
4035.00,1.0754
4034.00,1.1013
4033.00,1.1269
4032.00,1.1520
4031.00,1.1765
4030.00,1.2005
4029.00,1.2239
4028.00,1.2466
4027.00,1.2685
4026.00,1.2897
4025.00,1.3102
4024.00,1.3301
4023.00,1.3495
4022.00,1.3684
4021.00,1.3868
4020.00,1.4050
4019.00,1.4228
4018.00,1.4401
4017.00,1.4568
4016.00,1.4730
4015.00,1.4886
4014.00,1.5038
4013.00,1.5186
4012.00,1.5328
4011.00,1.5465
4010.00,1.5596
4009.00,1.5719
4008.00,1.5836
4007.00,1.5947
4006.00,1.6054
4005.00,1.6157
4004.00,1.6254
4003.00,1.6345
4002.00,1.6429
4001.00,1.6510
4000.00,1.6587
3999.00,1.6660
3998.00,1.6725
3997.00,1.6784
3996.00,1.6835
3995.00,1.6883
3994.00,1.6927
3993.00,1.6971
3992.00,1.7013
3991.00,1.7051
3990.00,1.7082
3989.00,1.7107
3988.00,1.7125
3987.00,1.7139
3986.00,1.7148
3985.00,1.7150
3984.00,1.7147
3983.00,1.7141
3982.00,1.7132
3981.00,1.7123
3980.00,1.7112
3979.00,1.7097
3978.00,1.7075
3977.00,1.7044
3976.00,1.7008
3975.00,1.6967
3974.00,1.6923
3973.00,1.6872
3972.00,1.6817
3971.00,1.6757
3970.00,1.6693
3969.00,1.6626
3968.00,1.6554
3967.00,1.6476
3966.00,1.6392
3965.00,1.6299
3964.00,1.6200
3963.00,1.6094
3962.00,1.5983
3961.00,1.5865
3960.00,1.5741
3959.00,1.5610
3958.00,1.5471
3957.00,1.5326
3956.00,1.5173
3955.00,1.5016
3954.00,1.4852
3953.00,1.4682
3952.00,1.4503
3951.00,1.4316
3950.00,1.4120
3949.00,1.3916
3948.00,1.3705
3947.00,1.3489
3946.00,1.3266
3945.00,1.3036
3944.00,1.2798
3943.00,1.2553
3942.00,1.2301
3941.00,1.2046
3940.00,1.1789
3939.00,1.1530
3938.00,1.1271
3937.00,1.1013
3936.00,1.0755
3935.00,1.0498
3934.00,1.0243
3933.00,0.9990
3932.00,0.9741
3931.00,0.9499
3930.00,0.9268
3929.00,0.9049
3928.00,0.8844
3927.00,0.8653
3926.00,0.8477
3925.00,0.8316
3924.00,0.8173
3923.00,0.8049
3922.00,0.7946
3921.00,0.7864
3920.00,0.7803
3919.00,0.7765
3918.00,0.7749
3917.00,0.7756
3916.00,0.7787
3915.00,0.7842
3914.00,0.7920
3913.00,0.8022
3912.00,0.8148
3911.00,0.8296
3910.00,0.8465
3909.00,0.8652
3908.00,0.8854
3907.00,0.9069
3906.00,0.9298
3905.00,0.9543
3904.00,0.9804
3903.00,1.0078
3902.00,1.0359
3901.00,1.0645
3900.00,1.0934
3899.00,1.1227
3898.00,1.1519
3897.00,1.1805
3896.00,1.2082
3895.00,1.2350
3894.00,1.2609
3893.00,1.2864
3892.00,1.3119
3891.00,1.3373
3890.00,1.3622
3889.00,1.3855
3888.00,1.4072
3887.00,1.4279
3886.00,1.4486
3885.00,1.4692
3884.00,1.4890
3883.00,1.5072
3882.00,1.5242
3881.00,1.5407
3880.00,1.5569
3879.00,1.5727
3878.00,1.5877
3877.00,1.6018
3876.00,1.6154
3875.00,1.6284
3874.00,1.6406
3873.00,1.6520
3872.00,1.6623
3871.00,1.6723
3870.00,1.6823
3869.00,1.6919
3868.00,1.7006
3867.00,1.7080
3866.00,1.7147
3865.00,1.7216
3864.00,1.7288
3863.00,1.7359
3862.00,1.7425
3861.00,1.7482
3860.00,1.7532
3859.00,1.7573
3858.00,1.7608
3857.00,1.7638
3856.00,1.7662
3855.00,1.7677
3854.00,1.7682
3853.00,1.7678
3852.00,1.7672
3851.00,1.7666
3850.00,1.7665
3849.00,1.7668
3848.00,1.7672
3847.00,1.7674
3846.00,1.7670
3845.00,1.7657
3844.00,1.7633
3843.00,1.7600
3842.00,1.7556
3841.00,1.7505
3840.00,1.7447
3839.00,1.7384
3838.00,1.7316
3837.00,1.7242
3836.00,1.7165
3835.00,1.7086
3834.00,1.7004
3833.00,1.6918
3832.00,1.6827
3831.00,1.6730
3830.00,1.6627
3829.00,1.6518
3828.00,1.6402
3827.00,1.6280
3826.00,1.6154
3825.00,1.6027
3824.00,1.5896
3823.00,1.5754
3822.00,1.5588
3821.00,1.5399
3820.00,1.5199
3819.00,1.5000
3818.00,1.4802
3817.00,1.4595
3816.00,1.4372
3815.00,1.4140
3814.00,1.3906
3813.00,1.3675
3812.00,1.3448
3811.00,1.3220
3810.00,1.2988
3809.00,1.2744
3808.00,1.2478
3807.00,1.2188
3806.00,1.1889
3805.00,1.1598
3804.00,1.1321
3803.00,1.1043
3802.00,1.0752
3801.00,1.0453
3800.00,1.0160
3799.00,0.9886
3798.00,0.9632
3797.00,0.9389
3796.00,0.9156
3795.00,0.8934
3794.00,0.8727
3793.00,0.8537
3792.00,0.8366
3791.00,0.8214
3790.00,0.8082
3789.00,0.7972
3788.00,0.7884
3787.00,0.7820
3786.00,0.7780
3785.00,0.7767
3784.00,0.7783
3783.00,0.7825
3782.00,0.7894
3781.00,0.7989
3780.00,0.8111
3779.00,0.8261
3778.00,0.8434
3777.00,0.8629
3776.00,0.8845
3775.00,0.9082
3774.00,0.9337
3773.00,0.9607
3772.00,0.9887
3771.00,1.0180
3770.00,1.0488
3769.00,1.0806
3768.00,1.1124
3767.00,1.1439
3766.00,1.1752
3765.00,1.2067
3764.00,1.2377
3763.00,1.2677
3762.00,1.2964
3761.00,1.3244
3760.00,1.3520
3759.00,1.3792
3758.00,1.4055
3757.00,1.4309
3756.00,1.4549
3755.00,1.4774
3754.00,1.4985
3753.00,1.5188
3752.00,1.5390
3751.00,1.5595
3750.00,1.5801
3749.00,1.6005
3748.00,1.6198
3747.00,1.6376
3746.00,1.6544
3745.00,1.6715
3744.00,1.6889
3743.00,1.7058
3742.00,1.7211
3741.00,1.7353
3740.00,1.7487
3739.00,1.7614
3738.00,1.7729
3737.00,1.7832
3736.00,1.7922
3735.00,1.8000
3734.00,1.8068
3733.00,1.8125
3732.00,1.8172
3731.00,1.8212
3730.00,1.8247
3729.00,1.8277
3728.00,1.8302
3727.00,1.8321
3726.00,1.8342
3725.00,1.8361
3724.00,1.8398
3723.00,1.8422
3722.00,1.8436
3721.00,1.8447
3720.00,1.8454
3719.00,1.8458
3718.00,1.8461
3717.00,1.8462
3716.00,1.8458
3715.00,1.8446
3714.00,1.8423
3713.00,1.8397
3712.00,1.8356
3711.00,1.8365
3710.00,1.8322
3709.00,1.8266
3708.00,1.8213
3707.00,1.8161
3706.00,1.8111
3705.00,1.8057
3704.00,1.7992
3703.00,1.7916
3702.00,1.7828
3701.00,1.7736
3700.00,1.7641
3699.00,1.7542
3698.00,1.7440
3697.00,1.7335
3696.00,1.7226
3695.00,1.7108
3694.00,1.6983
3693.00,1.6850
3692.00,1.6708
3691.00,1.6551
3690.00,1.6377
3689.00,1.6183
3688.00,1.5973
3687.00,1.5763
3686.00,1.5559
3685.00,1.5367
3684.00,1.5178
3683.00,1.4990
3682.00,1.4796
3681.00,1.4595
3680.00,1.4388
3679.00,1.4180
3678.00,1.3972
3677.00,1.3755
3676.00,1.3522
3675.00,1.3277
3674.00,1.3040
3673.00,1.2826
3672.00,1.2632
3671.00,1.2448
3670.00,1.2269
3669.00,1.2094
3668.00,1.1930
3667.00,1.1782
3666.00,1.1653
3665.00,1.1544
3664.00,1.1450
3663.00,1.1370
3662.00,1.1302
3661.00,1.1247
3660.00,1.1205
3659.00,1.1176
3658.00,1.1160
3657.00,1.1157
3656.00,1.1165
3655.00,1.1186
3654.00,1.1219
3653.00,1.1263
3652.00,1.1319
3651.00,1.1385
3650.00,1.1463
3649.00,1.1554
3648.00,1.1659
3647.00,1.1777
3646.00,1.1906
3645.00,1.2049
3644.00,1.2205
3643.00,1.2375
3642.00,1.2558
3641.00,1.2749
3640.00,1.2944
3639.00,1.3141
3638.00,1.3340
3637.00,1.3540
3636.00,1.3740
3635.00,1.3940
3634.00,1.4140
3633.00,1.4335
3632.00,1.4521
3631.00,1.4702
3630.00,1.4884
3629.00,1.5073
3628.00,1.5265
3627.00,1.5448
3626.00,1.5620
3625.00,1.5788
3624.00,1.5956
3623.00,1.6125
3622.00,1.6289
3621.00,1.6445
3620.00,1.6595
3619.00,1.6744
3618.00,1.6884
3617.00,1.7000
3616.00,1.7088
3615.00,1.7168
3614.00,1.7275
3613.00,1.7423
3612.00,1.7597
3611.00,1.7764
3610.00,1.7903
3609.00,1.8021
3608.00,1.8132
3607.00,1.8245
3606.00,1.8353
3605.00,1.8457
3604.00,1.8554
3603.00,1.8648
3602.00,1.8738
3601.00,1.8825
3600.00,1.8909
3599.00,1.8987
3598.00,1.9060
3597.00,1.9129
3596.00,1.9196
3595.00,1.9256
3594.00,1.9309
3593.00,1.9355
3592.00,1.9399
3591.00,1.9439
3590.00,1.9473
3589.00,1.9501
3588.00,1.9523
3587.00,1.9542
3586.00,1.9553
3585.00,1.9561
3584.00,1.9567
3583.00,1.9575
3582.00,1.9582
3581.00,1.9584
3580.00,1.9581
3579.00,1.9571
3578.00,1.9558
3577.00,1.9539
3576.00,1.9513
3575.00,1.9478
3574.00,1.9438
3573.00,1.9396
3572.00,1.9354
3571.00,1.9310
3570.00,1.9262
3569.00,1.9205
3568.00,1.9140
3567.00,1.9067
3566.00,1.8991
3565.00,1.8912
3564.00,1.8830
3563.00,1.8744
3562.00,1.8657
3561.00,1.8569
3560.00,1.8478
3559.00,1.8381
3558.00,1.8276
3557.00,1.8163
3556.00,1.8046
3555.00,1.7926
3554.00,1.7806
3553.00,1.7686
3552.00,1.7565
3551.00,1.7441
3550.00,1.7311
3549.00,1.7175
3548.00,1.7036
3547.00,1.6894
3546.00,1.6750
3545.00,1.6603
3544.00,1.6451
3543.00,1.6293
3542.00,1.6131
3541.00,1.5966
3540.00,1.5798
3539.00,1.5627
3538.00,1.5451
3537.00,1.5270
3536.00,1.5083
3535.00,1.4890
3534.00,1.4694
3533.00,1.4494
3532.00,1.4293
3531.00,1.4091
3530.00,1.3887
3529.00,1.3682
3528.00,1.3477
3527.00,1.3275
3526.00,1.3076
3525.00,1.2879
3524.00,1.2687
3523.00,1.2502
3522.00,1.2324
3521.00,1.2157
3520.00,1.2001
3519.00,1.1857
3518.00,1.1726
3517.00,1.1609
3516.00,1.1508
3515.00,1.1425
3514.00,1.1360
3513.00,1.1314
3512.00,1.1287
3511.00,1.1282
3510.00,1.1298
3509.00,1.1337
3508.00,1.1398
3507.00,1.1479
3506.00,1.1579
3505.00,1.1698
3504.00,1.1838
3503.00,1.1998
3502.00,1.2176
3501.00,1.2369
3500.00,1.2575
3499.00,1.2791
3498.00,1.3016
3497.00,1.3249
3496.00,1.3490
3495.00,1.3736
3494.00,1.3984
3493.00,1.4233
3492.00,1.4480
3491.00,1.4725
3490.00,1.4966
3489.00,1.5203
3488.00,1.5437
3487.00,1.5666
3486.00,1.5891
3485.00,1.6112
3484.00,1.6329
3483.00,1.6539
3482.00,1.6741
3481.00,1.6936
3480.00,1.7124
3479.00,1.7303
3478.00,1.7473
3477.00,1.7636
3476.00,1.7792
3475.00,1.7943
3474.00,1.8091
3473.00,1.8236
3472.00,1.8376
3471.00,1.8509
3470.00,1.8631
3469.00,1.8744
3468.00,1.8850
3467.00,1.8953
3466.00,1.9054
3465.00,1.9152
3464.00,1.9246
3463.00,1.9334
3462.00,1.9416
3461.00,1.9493
3460.00,1.9564
3459.00,1.9628
3458.00,1.9682
3457.00,1.9730
3456.00,1.9775
3455.00,1.9820
3454.00,1.9864
3453.00,1.9906
3452.00,1.9945
3451.00,1.9980
3450.00,2.0008
3449.00,2.0027
3448.00,2.0036
3447.00,2.0036
3446.00,2.0030
3445.00,2.0023
3444.00,2.0013
3443.00,1.9999
3442.00,1.9980
3441.00,1.9958
3440.00,1.9936
3439.00,1.9914
3438.00,1.9889
3437.00,1.9856
3436.00,1.9815
3435.00,1.9767
3434.00,1.9712
3433.00,1.9652
3432.00,1.9587
3431.00,1.9519
3430.00,1.9444
3429.00,1.9364
3428.00,1.9278
3427.00,1.9188
3426.00,1.9095
3425.00,1.9000
3424.00,1.8898
3423.00,1.8787
3422.00,1.8668
3421.00,1.8544
3420.00,1.8416
3419.00,1.8282
3418.00,1.8140
3417.00,1.7988
3416.00,1.7827
3415.00,1.7659
3414.00,1.7487
3413.00,1.7309
3412.00,1.7127
3411.00,1.6937
3410.00,1.6740
3409.00,1.6536
3408.00,1.6325
3407.00,1.6108
3406.00,1.5884
3405.00,1.5655
3404.00,1.5418
3403.00,1.5176
3402.00,1.4928
3401.00,1.4676
3400.00,1.4420
3399.00,1.4158
3398.00,1.3892
3397.00,1.3622
3396.00,1.3352
3395.00,1.3084
3394.00,1.2819
3393.00,1.2560
3392.00,1.2308
3391.00,1.2065
3390.00,1.1832
3389.00,1.1613
3388.00,1.1408
3387.00,1.1219
3386.00,1.1047
3385.00,1.0895
3384.00,1.0765
3383.00,1.0657
3382.00,1.0571
3381.00,1.0510
3380.00,1.0475
3379.00,1.0466
3378.00,1.0486
3377.00,1.0533
3376.00,1.0608
3375.00,1.0709
3374.00,1.0835
3373.00,1.0986
3372.00,1.1161
3371.00,1.1359
3370.00,1.1576
3369.00,1.1812
3368.00,1.2064
3367.00,1.2330
3366.00,1.2608
3365.00,1.2894
3364.00,1.3187
3363.00,1.3483
3362.00,1.3780
3361.00,1.4076
3360.00,1.4371
3359.00,1.4660
3358.00,1.4943
3357.00,1.5219
3356.00,1.5490
3355.00,1.5755
3354.00,1.6011
3353.00,1.6260
3352.00,1.6501
3351.00,1.6734
3350.00,1.6957
3349.00,1.7169
3348.00,1.7373
3347.00,1.7569
3346.00,1.7758
3345.00,1.7939
3344.00,1.8112
3343.00,1.8278
3342.00,1.8437
3341.00,1.8591
3340.00,1.8739
3339.00,1.8880
3338.00,1.9013
3337.00,1.9139
3336.00,1.9258
3335.00,1.9372
3334.00,1.9480
3333.00,1.9583
3332.00,1.9682
3331.00,1.9776
3330.00,1.9865
3329.00,1.9949
3328.00,2.0031
3327.00,2.0106
3326.00,2.0173
3325.00,2.0231
3324.00,2.0282
3323.00,2.0329
3322.00,2.0375
3321.00,2.0418
3320.00,2.0457
3319.00,2.0489
3318.00,2.0517
3317.00,2.0541
3316.00,2.0563
3315.00,2.0580
3314.00,2.0591
3313.00,2.0594
3312.00,2.0589
3311.00,2.0576
3310.00,2.0560
3309.00,2.0543
3308.00,2.0528
3307.00,2.0512
3306.00,2.0490
3305.00,2.0456
3304.00,2.0412
3303.00,2.0363
3302.00,2.0315
3301.00,2.0270
3300.00,2.0221
3299.00,2.0164
3298.00,2.0099
3297.00,2.0029
3296.00,1.9956
3295.00,1.9877
3294.00,1.9790
3293.00,1.9695
3292.00,1.9596
3291.00,1.9493
3290.00,1.9388
3289.00,1.9277
3288.00,1.9159
3287.00,1.9029
3286.00,1.8889
3285.00,1.8740
3284.00,1.8587
3283.00,1.8430
3282.00,1.8269
3281.00,1.8102
3280.00,1.7928
3279.00,1.7746
3278.00,1.7554
3277.00,1.7354
3276.00,1.7145
3275.00,1.6928
3274.00,1.6702
3273.00,1.6468
3272.00,1.6226
3271.00,1.5978
3270.00,1.5722
3269.00,1.5461
3268.00,1.5195
3267.00,1.4924
3266.00,1.4649
3265.00,1.4371
3264.00,1.4091
3263.00,1.3810
3262.00,1.3532
3261.00,1.3258
3260.00,1.2992
3259.00,1.2734
3258.00,1.2486
3257.00,1.2248
3256.00,1.2024
3255.00,1.1816
3254.00,1.1625
3253.00,1.1455
3252.00,1.1307
3251.00,1.1181
3250.00,1.1080
3249.00,1.1005
3248.00,1.0957
3247.00,1.0937
3246.00,1.0945
3245.00,1.0982
3244.00,1.1047
3243.00,1.1141
3242.00,1.1264
3241.00,1.1414
3240.00,1.1588
3239.00,1.1786
3238.00,1.2006
3237.00,1.2245
3236.00,1.2502
3235.00,1.2775
3234.00,1.3059
3233.00,1.3352
3232.00,1.3652
3231.00,1.3955
3230.00,1.4259
3229.00,1.4564
3228.00,1.4867
3227.00,1.5166
3226.00,1.5460
3225.00,1.5749
3224.00,1.6030
3223.00,1.6305
3222.00,1.6570
3221.00,1.6827
3220.00,1.7077
3219.00,1.7321
3218.00,1.7557
3217.00,1.7786
3216.00,1.8006
3215.00,1.8217
3214.00,1.8418
3213.00,1.8612
3212.00,1.8797
3211.00,1.8972
3210.00,1.9139
3209.00,1.9301
3208.00,1.9457
3207.00,1.9606
3206.00,1.9747
3205.00,1.9879
3204.00,2.0002
3203.00,2.0113
3202.00,2.0212
3201.00,2.0300
3200.00,2.0379
3199.00,2.0454
3198.00,2.0528
3197.00,2.0604
3196.00,2.0682
3195.00,2.0755
3194.00,2.0823
3193.00,2.0886
3192.00,2.0945
3191.00,2.0999
3190.00,2.1045
3189.00,2.1085
3188.00,2.1125
3187.00,2.1169
3186.00,2.1219
3185.00,2.1267
3184.00,2.1301
3183.00,2.1316
3182.00,2.1321
3181.00,2.1328
3180.00,2.1341
3179.00,2.1349
3178.00,2.1344
3177.00,2.1327
3176.00,2.1307
3175.00,2.1289
3174.00,2.1272
3173.00,2.1255
3172.00,2.1234
3171.00,2.1212
3170.00,2.1195
3169.00,2.1195
3168.00,2.1219
3167.00,2.1263
3166.00,2.1312
3165.00,2.1350
3164.00,2.1365
3163.00,2.1350
3162.00,2.1303
3161.00,2.1225
3160.00,2.1120
3159.00,2.0993
3158.00,2.0854
3157.00,2.0712
3156.00,2.0573
3155.00,2.0435
3154.00,2.0293
3153.00,2.0146
3152.00,1.9994
3151.00,1.9838
3150.00,1.9678
3149.00,1.9514
3148.00,1.9343
3147.00,1.9165
3146.00,1.8980
3145.00,1.8792
3144.00,1.8599
3143.00,1.8401
3142.00,1.8192
3141.00,1.7973
3140.00,1.7746
3139.00,1.7513
3138.00,1.7273
3137.00,1.7025
3136.00,1.6770
3135.00,1.6509
3134.00,1.6245
3133.00,1.5976
3132.00,1.5704
3131.00,1.5429
3130.00,1.5154
3129.00,1.4881
3128.00,1.4612
3127.00,1.4347
3126.00,1.4088
3125.00,1.3837
3124.00,1.3598
3123.00,1.3373
3122.00,1.3163
3121.00,1.2971
3120.00,1.2799
3119.00,1.2648
3118.00,1.2522
3117.00,1.2421
3116.00,1.2346
3115.00,1.2299
3114.00,1.2279
3113.00,1.2283
3112.00,1.2311
3111.00,1.2363
3110.00,1.2439
3109.00,1.2542
3108.00,1.2671
3107.00,1.2826
3106.00,1.3004
3105.00,1.3203
3104.00,1.3420
3103.00,1.3655
3102.00,1.3904
3101.00,1.4165
3100.00,1.4437
3099.00,1.4715
3098.00,1.4999
3097.00,1.5286
3096.00,1.5574
3095.00,1.5862
3094.00,1.6148
3093.00,1.6430
3092.00,1.6705
3091.00,1.6972
3090.00,1.7232
3089.00,1.7486
3088.00,1.7735
3087.00,1.7976
3086.00,1.8209
3085.00,1.8434
3084.00,1.8652
3083.00,1.8861
3082.00,1.9062
3081.00,1.9259
3080.00,1.9449
3079.00,1.9632
3078.00,1.9803
3077.00,1.9962
3076.00,2.0113
3075.00,2.0259
3074.00,2.0403
3073.00,2.0544
3072.00,2.0681
3071.00,2.0810
3070.00,2.0932
3069.00,2.1044
3068.00,2.1147
3067.00,2.1244
3066.00,2.1341
3065.00,2.1442
3064.00,2.1543
3063.00,2.1639
3062.00,2.1722
3061.00,2.1795
3060.00,2.1859
3059.00,2.1920
3058.00,2.1976
3057.00,2.2025
3056.00,2.2070
3055.00,2.2114
3054.00,2.2158
3053.00,2.2195
3052.00,2.2224
3051.00,2.2245
3050.00,2.2263
3049.00,2.2280
3048.00,2.2293
3047.00,2.2298
3046.00,2.2294
3045.00,2.2281
3044.00,2.2266
3043.00,2.2250
3042.00,2.2236
3041.00,2.2221
3040.00,2.2201
3039.00,2.2174
3038.00,2.2138
3037.00,2.2092
3036.00,2.2038
3035.00,2.1984
3034.00,2.1934
3033.00,2.1888
3032.00,2.1835
3031.00,2.1768
3030.00,2.1686
3029.00,2.1597
3028.00,2.1506
3027.00,2.1417
3026.00,2.1327
3025.00,2.1234
3024.00,2.1136
3023.00,2.1035
3022.00,2.0932
3021.00,2.0828
3020.00,2.0724
3019.00,2.0623
3018.00,2.0525
3017.00,2.0432
3016.00,2.0342
3015.00,2.0259
3014.00,2.0182
3013.00,2.0112
3012.00,2.0044
3011.00,1.9980
3010.00,1.9925
3009.00,1.9885
3008.00,1.9860
3007.00,1.9844
3006.00,1.9831
3005.00,1.9817
3004.00,1.9798
3003.00,1.9769
3002.00,1.9727
3001.00,1.9666
3000.00,1.9581
2999.00,1.9469
2998.00,1.9333
2997.00,1.9176
2996.00,1.9002
2995.00,1.8810
2994.00,1.8601
2993.00,1.8378
2992.00,1.8147
2991.00,1.7914
2990.00,1.7687
2989.00,1.7472
2988.00,1.7273
2987.00,1.7094
2986.00,1.6936
2985.00,1.6806
2984.00,1.6710
2983.00,1.6652
2982.00,1.6635
2981.00,1.6661
2980.00,1.6729
2979.00,1.6836
2978.00,1.6979
2977.00,1.7158
2976.00,1.7369
2975.00,1.7610
2974.00,1.7875
2973.00,1.8159
2972.00,1.8455
2971.00,1.8758
2970.00,1.9062
2969.00,1.9362
2968.00,1.9653
2967.00,1.9933
2966.00,2.0204
2965.00,2.0469
2964.00,2.0724
2963.00,2.0967
2962.00,2.1198
2961.00,2.1421
2960.00,2.1640
2959.00,2.1857
2958.00,2.2074
2957.00,2.2298
2956.00,2.2528
2955.00,2.2762
2954.00,2.2996
2953.00,2.3231
2952.00,2.3468
2951.00,2.3704
2950.00,2.3936
2949.00,2.4166
2948.00,2.4395
2947.00,2.4612
2946.00,2.4798
2945.00,2.4925
2944.00,2.4965
2943.00,2.4898
2942.00,2.4729
2941.00,2.4485
2940.00,2.4204
2939.00,2.3916
2938.00,2.3641
2937.00,2.3391
2936.00,2.3172
2935.00,2.2983
2934.00,2.2818
2933.00,2.2668
2932.00,2.2528
2931.00,2.2402
2930.00,2.2297
2929.00,2.2219
2928.00,2.2166
2927.00,2.2133
2926.00,2.2113
2925.00,2.2107
2924.00,2.2115
2923.00,2.2139
2922.00,2.2179
2921.00,2.2232
2920.00,2.2295
2919.00,2.2360
2918.00,2.2429
2917.00,2.2500
2916.00,2.2569
2915.00,2.2634
2914.00,2.2696
2913.00,2.2767
2912.00,2.2850
2911.00,2.2936
2910.00,2.3012
2909.00,2.3072
2908.00,2.3121
2907.00,2.3164
2906.00,2.3206
2905.00,2.3253
2904.00,2.3301
2903.00,2.3342
2902.00,2.3370
2901.00,2.3387
2900.00,2.3402
2899.00,2.3417
2898.00,2.3428
2897.00,2.3433
2896.00,2.3433
2895.00,2.3430
2894.00,2.3420
2893.00,2.3400
2892.00,2.3374
2891.00,2.3346
2890.00,2.3317
2889.00,2.3287
2888.00,2.3257
2887.00,2.3224
2886.00,2.3183
2885.00,2.3128
2884.00,2.3065
2883.00,2.3003
2882.00,2.2945
2881.00,2.2885
2880.00,2.2820
2879.00,2.2753
2878.00,2.2691
2877.00,2.2638
2876.00,2.2595
2875.00,2.2561
2874.00,2.2536
2873.00,2.2521
2872.00,2.2510
2871.00,2.2496
2870.00,2.2475
2869.00,2.2445
2868.00,2.2406
2867.00,2.2356
2866.00,2.2294
2865.00,2.2219
2864.00,2.2129
2863.00,2.2023
2862.00,2.1897
2861.00,2.1751
2860.00,2.1587
2859.00,2.1410
2858.00,2.1219
2857.00,2.1011
2856.00,2.0781
2855.00,2.0527
2854.00,2.0254
2853.00,1.9964
2852.00,1.9659
2851.00,1.9339
2850.00,1.9007
2849.00,1.8665
2848.00,1.8314
2847.00,1.7956
2846.00,1.7590
2845.00,1.7220
2844.00,1.6847
2843.00,1.6473
2842.00,1.6098
2841.00,1.5728
2840.00,1.5366
2839.00,1.5012
2838.00,1.4670
2837.00,1.4343
2836.00,1.4034
2835.00,1.3747
2834.00,1.3485
2833.00,1.3249
2832.00,1.3044
2831.00,1.2870
2830.00,1.2731
2829.00,1.2630
2828.00,1.2569
2827.00,1.2550
2826.00,1.2573
2825.00,1.2641
2824.00,1.2753
2823.00,1.2907
2822.00,1.3103
2821.00,1.3339
2820.00,1.3610
2819.00,1.3913
2818.00,1.4243
2817.00,1.4593
2816.00,1.4958
2815.00,1.5331
2814.00,1.5709
2813.00,1.6086
2812.00,1.6460
2811.00,1.6827
2810.00,1.7185
2809.00,1.7536
2808.00,1.7882
2807.00,1.8220
2806.00,1.8543
2805.00,1.8849
2804.00,1.9139
2803.00,1.9414
2802.00,1.9677
2801.00,1.9929
2800.00,2.0173
2799.00,2.0405
2798.00,2.0625
2797.00,2.0833
2796.00,2.1030
2795.00,2.1223
2794.00,2.1409
2793.00,2.1589
2792.00,2.1758
2791.00,2.1918
2790.00,2.2071
2789.00,2.2218
2788.00,2.2354
2787.00,2.2479
2786.00,2.2596
2785.00,2.2713
2784.00,2.2829
2783.00,2.2938
2782.00,2.3035
2781.00,2.3123
2780.00,2.3205
2779.00,2.3282
2778.00,2.3355
2777.00,2.3426
2776.00,2.3493
2775.00,2.3549
2774.00,2.3590
2773.00,2.3620
2772.00,2.3648
2771.00,2.3681
2770.00,2.3718
2769.00,2.3754
2768.00,2.3783
2767.00,2.3805
2766.00,2.3823
2765.00,2.3840
2764.00,2.3855
2763.00,2.3863
2762.00,2.3859
2761.00,2.3842
2760.00,2.3816
2759.00,2.3787
2758.00,2.3758
2757.00,2.3730
2756.00,2.3696
2755.00,2.3653
2754.00,2.3600
2753.00,2.3539
2752.00,2.3472
2751.00,2.3401
2750.00,2.3327
2749.00,2.3251
2748.00,2.3171
2747.00,2.3081
2746.00,2.2983
2745.00,2.2879
2744.00,2.2774
2743.00,2.2665
2742.00,2.2547
2741.00,2.2421
2740.00,2.2287
2739.00,2.2145
2738.00,2.1997
2737.00,2.1844
2736.00,2.1686
2735.00,2.1518
2734.00,2.1337
2733.00,2.1144
2732.00,2.0942
2731.00,2.0729
2730.00,2.0506
2729.00,2.0270
2728.00,2.0021
2727.00,1.9760
2726.00,1.9483
2725.00,1.9193
2724.00,1.8888
2723.00,1.8567
2722.00,1.8230
2721.00,1.7877
2720.00,1.7508
2719.00,1.7123
2718.00,1.6723
2717.00,1.6307
2716.00,1.5881
2715.00,1.5446
2714.00,1.5007
2713.00,1.4567
2712.00,1.4132
2711.00,1.3705
2710.00,1.3293
2709.00,1.2898
2708.00,1.2525
2707.00,1.2181
2706.00,1.1868
2705.00,1.1594
2704.00,1.1363
2703.00,1.1178
2702.00,1.1045
2701.00,1.0967
2700.00,1.0945
2699.00,1.0981
2698.00,1.1076
2697.00,1.1227
2696.00,1.1435
2695.00,1.1698
2694.00,1.2011
2693.00,1.2370
2692.00,1.2769
2691.00,1.3199
2690.00,1.3654
2689.00,1.4127
2688.00,1.4610
2687.00,1.5095
2686.00,1.5576
2685.00,1.6048
2684.00,1.6508
2683.00,1.6951
2682.00,1.7372
2681.00,1.7771
2680.00,1.8150
2679.00,1.8510
2678.00,1.8855
2677.00,1.9182
2676.00,1.9493
2675.00,1.9787
2674.00,2.0065
2673.00,2.0327
2672.00,2.0577
2671.00,2.0815
2670.00,2.1044
2669.00,2.1266
2668.00,2.1483
2667.00,2.1694
2666.00,2.1897
2665.00,2.2088
2664.00,2.2269
2663.00,2.2444
2662.00,2.2613
2661.00,2.2772
2660.00,2.2920
2659.00,2.3060
2658.00,2.3194
2657.00,2.3320
2656.00,2.3439
2655.00,2.3554
2654.00,2.3668
2653.00,2.3780
2652.00,2.3885
2651.00,2.3977
2650.00,2.4061
2649.00,2.4141
2648.00,2.4216
2647.00,2.4289
2646.00,2.4356
2645.00,2.4417
2644.00,2.4473
2643.00,2.4528
2642.00,2.4583
2641.00,2.4638
2640.00,2.4689
2639.00,2.4728
2638.00,2.4750
2637.00,2.4755
2636.00,2.4750
2635.00,2.4748
2634.00,2.4755
2633.00,2.4768
2632.00,2.4778
2631.00,2.4781
2630.00,2.4777
2629.00,2.4769
2628.00,2.4759
2627.00,2.4751
2626.00,2.4744
2625.00,2.4730
2624.00,2.4702
2623.00,2.4657
2622.00,2.4604
2621.00,2.4550
2620.00,2.4493
2619.00,2.4428
2618.00,2.4352
2617.00,2.4272
2616.00,2.4188
2615.00,2.4099
2614.00,2.3999
2613.00,2.3890
2612.00,2.3778
2611.00,2.3666
2610.00,2.3553
2609.00,2.3434
2608.00,2.3303
2607.00,2.3157
2606.00,2.2999
2605.00,2.2835
2604.00,2.2666
2603.00,2.2494
2602.00,2.2314
2601.00,2.2122
2600.00,2.1914
2599.00,2.1694
2598.00,2.1463
2597.00,2.1223
2596.00,2.0973
2595.00,2.0711
2594.00,2.0438
2593.00,2.0151
2592.00,1.9847
2591.00,1.9522
2590.00,1.9174
2589.00,1.8806
2588.00,1.8420
2587.00,1.8018
2586.00,1.7602
2585.00,1.7171
2584.00,1.6727
2583.00,1.6270
2582.00,1.5804
2581.00,1.5334
2580.00,1.4866
2579.00,1.4405
2578.00,1.3955
2577.00,1.3524
2576.00,1.3115
2575.00,1.2736
2574.00,1.2390
2573.00,1.2085
2572.00,1.1825
2571.00,1.1614
2570.00,1.1456
2569.00,1.1353
2568.00,1.1310
2567.00,1.1328
2566.00,1.1407
2565.00,1.1549
2564.00,1.1752
2563.00,1.2014
2562.00,1.2333
2561.00,1.2703
2560.00,1.3119
2559.00,1.3571
2558.00,1.4050
2557.00,1.4548
2556.00,1.5056
2555.00,1.5567
2554.00,1.6074
2553.00,1.6570
2552.00,1.7051
2551.00,1.7515
2550.00,1.7959
2549.00,1.8384
2548.00,1.8791
2547.00,1.9181
2546.00,1.9553
2545.00,1.9903
2544.00,2.0232
2543.00,2.0545
2542.00,2.0843
2541.00,2.1128
2540.00,2.1397
2539.00,2.1652
2538.00,2.1893
2537.00,2.2121
2536.00,2.2336
2535.00,2.2541
2534.00,2.2743
2533.00,2.2942
2532.00,2.3135
2531.00,2.3318
2530.00,2.3494
2529.00,2.3665
2528.00,2.3828
2527.00,2.3973
2526.00,2.4104
2525.00,2.4235
2524.00,2.4377
2523.00,2.4518
2522.00,2.4642
2521.00,2.4739
2520.00,2.4821
2519.00,2.4901
2518.00,2.4984
2517.00,2.5065
2516.00,2.5142
2515.00,2.5214
2514.00,2.5281
2513.00,2.5345
2512.00,2.5404
2511.00,2.5459
2510.00,2.5511
2509.00,2.5560
2508.00,2.5601
2507.00,2.5627
2506.00,2.5640
2505.00,2.5651
2504.00,2.5671
2503.00,2.5701
2502.00,2.5725
2501.00,2.5732
2500.00,2.5720
2499.00,2.5702
2498.00,2.5691
2497.00,2.5690
2496.00,2.5693
2495.00,2.5681
2494.00,2.5643
2493.00,2.5584
2492.00,2.5522
2491.00,2.5468
2490.00,2.5426
2489.00,2.5386
2488.00,2.5340
2487.00,2.5282
2486.00,2.5211
2485.00,2.5133
2484.00,2.5054
2483.00,2.4973
2482.00,2.4886
2481.00,2.4791
2480.00,2.4694
2479.00,2.4598
2478.00,2.4495
2477.00,2.4375
2476.00,2.4238
2475.00,2.4090
2474.00,2.3937
2473.00,2.3780
2472.00,2.3615
2471.00,2.3443
2470.00,2.3263
2469.00,2.3074
2468.00,2.2875
2467.00,2.2669
2466.00,2.2453
2465.00,2.2221
2464.00,2.1969
2463.00,2.1702
2462.00,2.1423
2461.00,2.1131
2460.00,2.0823
2459.00,2.0500
2458.00,2.0164
2457.00,1.9813
2456.00,1.9445
2455.00,1.9058
2454.00,1.8654
2453.00,1.8235
2452.00,1.7801
2451.00,1.7354
2450.00,1.6899
2449.00,1.6443
2448.00,1.5993
2447.00,1.5551
2446.00,1.5124
2445.00,1.4717
2444.00,1.4335
2443.00,1.3983
2442.00,1.3665
2441.00,1.3388
2440.00,1.3155
2439.00,1.2971
2438.00,1.2841
2437.00,1.2768
2436.00,1.2755
2435.00,1.2804
2434.00,1.2915
2433.00,1.3089
2432.00,1.3324
2431.00,1.3615
2430.00,1.3958
2429.00,1.4345
2428.00,1.4770
2427.00,1.5226
2426.00,1.5702
2425.00,1.6191
2424.00,1.6682
2423.00,1.7167
2422.00,1.7643
2421.00,1.8106
2420.00,1.8554
2419.00,1.8982
2418.00,1.9390
2417.00,1.9778
2416.00,2.0147
2415.00,2.0496
2414.00,2.0821
2413.00,2.1123
2412.00,2.1405
2411.00,2.1674
2410.00,2.1937
2409.00,2.2192
2408.00,2.2430
2407.00,2.2648
2406.00,2.2850
2405.00,2.3048
2404.00,2.3247
2403.00,2.3443
2402.00,2.3630
2401.00,2.3807
2400.00,2.3982
2399.00,2.4158
2398.00,2.4335
2397.00,2.4508
2396.00,2.4677
2395.00,2.4834
2394.00,2.4983
2393.00,2.5114
2392.00,2.5263
2391.00,2.5390
2390.00,2.5614
2389.00,2.5631
2388.00,2.5623
2387.00,2.5769
2386.00,2.5839
2385.00,2.5939
2384.00,2.6026
2383.00,2.6137
2382.00,2.6250
2381.00,2.6361
2380.00,2.6456
2379.00,2.6533
2378.00,2.6596
2377.00,2.6649
2376.00,2.6700
2375.00,2.6760
2374.00,2.6833
2373.00,2.6916
2372.00,2.6993
2371.00,2.7043
2370.00,2.7064
2369.00,2.7074
2368.00,2.7093
2367.00,2.7119
2366.00,2.7136
2365.00,2.7135
2364.00,2.7125
2363.00,2.7119
2362.00,2.7119
2361.00,2.7108
2360.00,2.7068
2359.00,2.6995
2358.00,2.6902
2357.00,2.6812
2356.00,2.6733
2355.00,2.6655
2354.00,2.6566
2353.00,2.6457
2352.00,2.6333
2351.00,2.6197
2350.00,2.6060
2349.00,2.5938
2348.00,2.5844
2347.00,2.5776
2346.00,2.5709
2345.00,2.5615
2344.00,2.5482
2343.00,2.5327
2342.00,2.5135
2341.00,2.5015
2340.00,2.4748
2339.00,2.4726
2338.00,2.4232
2337.00,2.4542
2336.00,2.2750
2335.00,2.1843
2334.00,2.2399
2333.00,2.2577
2332.00,2.2889
2331.00,2.2847
2330.00,2.2678
2329.00,2.2315
2328.00,2.2008
2327.00,2.1769
2326.00,2.1749
2325.00,2.1754
2324.00,2.1688
2323.00,2.1479
2322.00,2.1119
2321.00,2.0702
2320.00,2.0168
2319.00,1.9638
2318.00,1.9132
2317.00,1.8825
2316.00,1.8694
2315.00,1.8718
2314.00,1.8772
2313.00,1.8796
2312.00,1.8787
2311.00,1.8767
2310.00,1.8795
2309.00,1.8872
2308.00,1.9031
2307.00,1.9250
2306.00,1.9559
2305.00,1.9953
2304.00,2.0444
2303.00,2.1004
2302.00,2.1610
2301.00,2.2221
2300.00,2.2831
2299.00,2.3415
2298.00,2.3977
2297.00,2.4473
2296.00,2.4896
2295.00,2.5182
2294.00,2.5306
2293.00,2.5215
2292.00,2.4914
2291.00,2.4430
2290.00,2.3846
2289.00,2.3250
2288.00,2.2724
2287.00,2.2315
2286.00,2.2047
2285.00,2.1924
2284.00,2.1942
2283.00,2.2086
2282.00,2.2325
2281.00,2.2628
2280.00,2.2964
2279.00,2.3320
2278.00,2.3678
2277.00,2.4037
2276.00,2.4392
2275.00,2.4744
2274.00,2.5087
2273.00,2.5412
2272.00,2.5717
2271.00,2.6009
2270.00,2.6303
2269.00,2.6599
2268.00,2.6883
2267.00,2.7142
2266.00,2.7376
2265.00,2.7600
2264.00,2.7825
2263.00,2.8056
2262.00,2.8307
2261.00,2.8602
2260.00,2.8982
2259.00,2.9510
2258.00,3.0262
2257.00,3.1324
2256.00,3.2757
2255.00,3.4568
2254.00,3.6567
2253.00,3.7993
2252.00,3.7619
2251.00,3.5701
2250.00,3.3471
2249.00,3.1453
2248.00,2.9725
2247.00,2.8272
2246.00,2.7096
2245.00,2.6205
2244.00,2.5593
2243.00,2.5235
2242.00,2.5089
2241.00,2.5110
2240.00,2.5256
2239.00,2.5486
2238.00,2.5758
2237.00,2.6034
2236.00,2.6288
2235.00,2.6508
2234.00,2.6692
2233.00,2.6852
2232.00,2.7004
2231.00,2.7156
2230.00,2.7302
2229.00,2.7425
2228.00,2.7520
2227.00,2.7589
2226.00,2.7640
2225.00,2.7677
2224.00,2.7703
2223.00,2.7721
2222.00,2.7740
2221.00,2.7766
2220.00,2.7797
2219.00,2.7815
2218.00,2.7805
2217.00,2.7762
2216.00,2.7703
2215.00,2.7648
2214.00,2.7610
2213.00,2.7585
2212.00,2.7560
2211.00,2.7521
2210.00,2.7459
2209.00,2.7377
2208.00,2.7286
2207.00,2.7201
2206.00,2.7129
2205.00,2.7065
2204.00,2.6994
2203.00,2.6904
2202.00,2.6789
2201.00,2.6655
2200.00,2.6506
2199.00,2.6352
2198.00,2.6196
2197.00,2.6043
2196.00,2.5889
2195.00,2.5727
2194.00,2.5550
2193.00,2.5354
2192.00,2.5138
2191.00,2.4903
2190.00,2.4652
2189.00,2.4393
2188.00,2.4131
2187.00,2.3861
2186.00,2.3579
2185.00,2.3281
2184.00,2.2967
2183.00,2.2634
2182.00,2.2278
2181.00,2.1897
2180.00,2.1492
2179.00,2.1063
2178.00,2.0608
2177.00,2.0125
2176.00,1.9619
2175.00,1.9092
2174.00,1.8545
2173.00,1.7980
2172.00,1.7403
2171.00,1.6824
2170.00,1.6251
2169.00,1.5696
2168.00,1.5168
2167.00,1.4675
2166.00,1.4227
2165.00,1.3833
2164.00,1.3504
2163.00,1.3249
2162.00,1.3077
2161.00,1.2995
2160.00,1.3008
2159.00,1.3115
2158.00,1.3316
2157.00,1.3608
2156.00,1.3984
2155.00,1.4437
2154.00,1.4953
2153.00,1.5520
2152.00,1.6122
2151.00,1.6743
2150.00,1.7367
2149.00,1.7983
2148.00,1.8581
2147.00,1.9157
2146.00,1.9707
2145.00,2.0229
2144.00,2.0723
2143.00,2.1189
2142.00,2.1626
2141.00,2.2034
2140.00,2.2416
2139.00,2.2777
2138.00,2.3124
2137.00,2.3456
2136.00,2.3771
2135.00,2.4068
2134.00,2.4349
2133.00,2.4619
2132.00,2.4878
2131.00,2.5123
2130.00,2.5351
2129.00,2.5561
2128.00,2.5759
2127.00,2.5953
2126.00,2.6143
2125.00,2.6321
2124.00,2.6482
2123.00,2.6635
2122.00,2.6793
2121.00,2.6952
2120.00,2.7096
2119.00,2.7222
2118.00,2.7346
2117.00,2.7480
2116.00,2.7618
2115.00,2.7746
2114.00,2.7854
2113.00,2.7948
2112.00,2.8027
2111.00,2.8093
2110.00,2.8156
2109.00,2.8230
2108.00,2.8317
2107.00,2.8401
2106.00,2.8462
2105.00,2.8500
2104.00,2.8528
2103.00,2.8560
2102.00,2.8598
2101.00,2.8638
2100.00,2.8680
2099.00,2.8725
2098.00,2.8766
2097.00,2.8787
2096.00,2.8775
2095.00,2.8731
2094.00,2.8675
2093.00,2.8630
2092.00,2.8604
2091.00,2.8588
2090.00,2.8572
2089.00,2.8557
2088.00,2.8552
2087.00,2.8553
2086.00,2.8540
2085.00,2.8505
2084.00,2.8452
2083.00,2.8396
2082.00,2.8340
2081.00,2.8284
2080.00,2.8222
2079.00,2.8150
2078.00,2.8064
2077.00,2.7968
2076.00,2.7868
2075.00,2.7762
2074.00,2.7645
2073.00,2.7520
2072.00,2.7404
2071.00,2.7307
2070.00,2.7210
2069.00,2.7088
2068.00,2.6933
2067.00,2.6764
2066.00,2.6600
2065.00,2.6446
2064.00,2.6295
2063.00,2.6131
2062.00,2.5946
2061.00,2.5743
2060.00,2.5526
2059.00,2.5298
2058.00,2.5050
2057.00,2.4785
2056.00,2.4508
2055.00,2.4227
2054.00,2.3934
2053.00,2.3621
2052.00,2.3281
2051.00,2.2916
2050.00,2.2525
2049.00,2.2108
2048.00,2.1667
2047.00,2.1206
2046.00,2.0720
2045.00,2.0202
2044.00,1.9651
2043.00,1.9074
2042.00,1.8485
2041.00,1.7896
2040.00,1.7317
2039.00,1.6751
2038.00,1.6205
2037.00,1.5685
2036.00,1.5202
2035.00,1.4767
2034.00,1.4390
2033.00,1.4081
2032.00,1.3852
2031.00,1.3708
2030.00,1.3657
2029.00,1.3702
2028.00,1.3846
2027.00,1.4085
2026.00,1.4414
2025.00,1.4827
2024.00,1.5314
2023.00,1.5862
2022.00,1.6453
2021.00,1.7065
2020.00,1.7679
2019.00,1.8285
2018.00,1.8885
2017.00,1.9483
2016.00,2.0073
2015.00,2.0642
2014.00,2.1178
2013.00,2.1676
2012.00,2.2141
2011.00,2.2579
2010.00,2.2995
2009.00,2.3391
2008.00,2.3762
2007.00,2.4108
2006.00,2.4433
2005.00,2.4744
2004.00,2.5045
2003.00,2.5334
2002.00,2.5602
2001.00,2.5842
2000.00,2.6062
1999.00,2.6282
1998.00,2.6511
1997.00,2.6739
1996.00,2.6940
1995.00,2.7101
1994.00,2.7224
1993.00,2.7335
1992.00,2.7462
1991.00,2.7622
1990.00,2.7807
1989.00,2.7988
1988.00,2.8144
1987.00,2.8284
1986.00,2.8419
1985.00,2.8550
1984.00,2.8673
1983.00,2.8794
1982.00,2.8922
1981.00,2.9043
1980.00,2.9135
1979.00,2.9203
1978.00,2.9272
1977.00,2.9355
1976.00,2.9432
1975.00,2.9476
1974.00,2.9486
1973.00,2.9484
1972.00,2.9493
1971.00,2.9520
1970.00,2.9554
1969.00,2.9581
1968.00,2.9598
1967.00,2.9616
1966.00,2.9642
1965.00,2.9667
1964.00,2.9678
1963.00,2.9684
1962.00,2.9699
1961.00,2.9722
1960.00,2.9736
1959.00,2.9728
1958.00,2.9700
1957.00,2.9665
1956.00,2.9633
1955.00,2.9608
1954.00,2.9579
1953.00,2.9535
1952.00,2.9481
1951.00,2.9437
1950.00,2.9409
1949.00,2.9372
1948.00,2.9302
1947.00,2.9199
1946.00,2.9076
1945.00,2.8932
1944.00,2.8759
1943.00,2.8581
1942.00,2.8444
1941.00,2.8373
1940.00,2.8349
1939.00,2.8327
1938.00,2.8268
1937.00,2.8158
1936.00,2.8007
1935.00,2.7838
1934.00,2.7669
1933.00,2.7503
1932.00,2.7329
1931.00,2.7143
1930.00,2.6949
1929.00,2.6742
1928.00,2.6511
1927.00,2.6250
1926.00,2.5962
1925.00,2.5655
1924.00,2.5339
1923.00,2.5020
1922.00,2.4709
1921.00,2.4398
1920.00,2.4067
1919.00,2.3693
1918.00,2.3281
1917.00,2.2857
1916.00,2.2435
1915.00,2.2003
1914.00,2.1535
1913.00,2.1020
1912.00,2.0462
1911.00,1.9871
1910.00,1.9260
1909.00,1.8645
1908.00,1.8044
1907.00,1.7465
1906.00,1.6910
1905.00,1.6382
1904.00,1.5892
1903.00,1.5453
1902.00,1.5083
1901.00,1.4796
1900.00,1.4602
1899.00,1.4503
1898.00,1.4502
1897.00,1.4605
1896.00,1.4819
1895.00,1.5144
1894.00,1.5567
1893.00,1.6069
1892.00,1.6623
1891.00,1.7215
1890.00,1.7846
1889.00,1.8518
1888.00,1.9212
1887.00,1.9894
1886.00,2.0538
1885.00,2.1138
1884.00,2.1700
1883.00,2.2226
1882.00,2.2716
1881.00,2.3178
1880.00,2.3617
1879.00,2.4043
1878.00,2.4450
1877.00,2.4829
1876.00,2.5174
1875.00,2.5489
1874.00,2.5779
1873.00,2.6041
1872.00,2.6274
1871.00,2.6493
1870.00,2.6727
1869.00,2.6981
1868.00,2.7236
1867.00,2.7475
1866.00,2.7697
1865.00,2.7910
1864.00,2.8119
1863.00,2.8327
1862.00,2.8522
1861.00,2.8696
1860.00,2.8851
1859.00,2.8998
1858.00,2.9144
1857.00,2.9281
1856.00,2.9412
1855.00,2.9550
1854.00,2.9687
1853.00,2.9790
1852.00,2.9840
1851.00,2.9868
1850.00,2.9910
1849.00,2.9967
1848.00,3.0031
1847.00,3.0112
1846.00,3.0211
1845.00,3.0296
1844.00,3.0333
1843.00,3.0358
1842.00,3.0430
1841.00,3.0539
1840.00,3.0636
1839.00,3.0707
1838.00,3.0773
1837.00,3.0839
1836.00,3.0892
1835.00,3.0928
1834.00,3.0957
1833.00,3.0982
1832.00,3.1002
1831.00,3.1019
1830.00,3.1006
1829.00,3.0930
1828.00,3.0811
1827.00,3.0710
1826.00,3.0663
1825.00,3.0642
1824.00,3.0610
1823.00,3.0573
1822.00,3.0546
1821.00,3.0507
1820.00,3.0421
1819.00,3.0297
1818.00,3.0180
1817.00,3.0103
1816.00,3.0057
1815.00,3.0007
1814.00,2.9923
1813.00,2.9795
1812.00,2.9659
1811.00,2.9561
1810.00,2.9502
1809.00,2.9436
1808.00,2.9333
1807.00,2.9206
1806.00,2.9067
1805.00,2.8884
1804.00,2.8636
1803.00,2.8370
1802.00,2.8151
1801.00,2.7991
1800.00,2.7847
1799.00,2.7673
1798.00,2.7450
1797.00,2.7182
1796.00,2.6896
1795.00,2.6609
1794.00,2.6295
1793.00,2.5909
1792.00,2.5459
1791.00,2.5033
1790.00,2.4683
1789.00,2.4353
1788.00,2.3957
1787.00,2.3462
1786.00,2.2899
1785.00,2.2321
1784.00,2.1766
1783.00,2.1231
1782.00,2.0684
1781.00,2.0102
1780.00,1.9508
1779.00,1.8954
1778.00,1.8468
1777.00,1.8057
1776.00,1.7737
1775.00,1.7539
1774.00,1.7474
1773.00,1.7501
1772.00,1.7537
1771.00,1.7562
1770.00,1.7632
1769.00,1.7816
1768.00,1.8162
1767.00,1.8666
1766.00,1.9257
1765.00,1.9850
1764.00,2.0412
1763.00,2.0964
1762.00,2.1545
1761.00,2.2166
1760.00,2.2793
1759.00,2.3377
1758.00,2.3910
1757.00,2.4438
1756.00,2.4989
1755.00,2.5523
1754.00,2.5967
1753.00,2.6311
1752.00,2.6623
1751.00,2.6979
1750.00,2.7400
1749.00,2.7845
1748.00,2.8246
1747.00,2.8555
1746.00,2.8786
1745.00,2.9010
1744.00,2.9284
1743.00,2.9599
1742.00,2.9914
1741.00,3.0201
1740.00,3.0444
1739.00,3.0634
1738.00,3.0796
1737.00,3.0946
1736.00,3.1072
1735.00,3.1154
1734.00,3.1202
1733.00,3.1298
1732.00,3.1497
1731.00,3.1732
1730.00,3.1963
1729.00,3.2212
1728.00,3.2477
1727.00,3.2708
1726.00,3.2870
1725.00,3.2993
1724.00,3.3105
1723.00,3.3208
1722.00,3.3327
1721.00,3.3513
1720.00,3.3783
1719.00,3.4101
1718.00,3.4403
1717.00,3.4683
1716.00,3.5034
1715.00,3.5584
1714.00,3.6454
1713.00,3.7697
1712.00,3.9156
1711.00,4.0447
1710.00,4.1271
1709.00,4.1637
1708.00,4.1545
1707.00,4.0876
1706.00,3.9666
1705.00,3.8197
1704.00,3.6779
1703.00,3.5529
1702.00,3.4403
1701.00,3.3332
1700.00,3.2350
1699.00,3.1639
1698.00,3.1288
1697.00,3.1189
1696.00,3.1193
1695.00,3.1251
1694.00,3.1378
1693.00,3.1542
1692.00,3.1678
1691.00,3.1754
1690.00,3.1799
1689.00,3.1872
1688.00,3.1997
1687.00,3.2149
1686.00,3.2290
1685.00,3.2366
1684.00,3.2279
1683.00,3.2106
1682.00,3.2026
1681.00,3.2035
1680.00,3.2054
1679.00,3.2055
1678.00,3.2046
1677.00,3.2020
1676.00,3.1944
1675.00,3.1826
1674.00,3.1758
1673.00,3.1804
1672.00,3.1905
1671.00,3.1950
1670.00,3.1867
1669.00,3.1668
1668.00,3.1453
1667.00,3.1306
1666.00,3.1240
1665.00,3.1208
1664.00,3.1135
1663.00,3.0954
1662.00,3.0690
1661.00,3.0437
1660.00,3.0244
1659.00,3.0090
1658.00,2.9942
1657.00,2.9781
1656.00,2.9621
1655.00,2.9508
1654.00,2.9417
1653.00,2.9103
1652.00,2.8605
1651.00,2.8245
1650.00,2.8052
1649.00,2.7914
1648.00,2.7722
1647.00,2.7373
1646.00,2.6887
1645.00,2.6415
1644.00,2.6032
1643.00,2.5704
1642.00,2.5393
1641.00,2.5082
1640.00,2.4766
1639.00,2.4465
1638.00,2.4207
1637.00,2.3976
1636.00,2.3660
1635.00,2.3201
1634.00,2.2736
1633.00,2.2375
1632.00,2.2094
1631.00,2.1848
1630.00,2.1625
1629.00,2.1419
1628.00,2.1217
1627.00,2.1032
1626.00,2.0907
1625.00,2.0868
1624.00,2.0896
1623.00,2.0952
1622.00,2.1048
1621.00,2.1237
1620.00,2.1539
1619.00,2.1943
1618.00,2.2422
1617.00,2.2908
1616.00,2.3337
1615.00,2.3731
1614.00,2.4128
1613.00,2.4533
1612.00,2.4946
1611.00,2.5358
1610.00,2.5753
1609.00,2.6127
1608.00,2.6486
1607.00,2.6835
1606.00,2.7170
1605.00,2.7491
1604.00,2.7808
1603.00,2.8123
1602.00,2.8431
1601.00,2.8740
1600.00,2.9064
1599.00,2.9403
1598.00,2.9750
1597.00,3.0095
1596.00,3.0414
1595.00,3.0656
1594.00,3.0800
1593.00,3.0896
1592.00,3.1011
1591.00,3.1158
1590.00,3.1316
1589.00,3.1470
1588.00,3.1615
1587.00,3.1738
1586.00,3.1846
1585.00,3.1987
1584.00,3.2189
1583.00,3.2406
1582.00,3.2562
1581.00,3.2664
1580.00,3.2783
1579.00,3.2945
1578.00,3.3094
1577.00,3.3156
1576.00,3.3096
1575.00,3.3009
1574.00,3.3014
1573.00,3.3105
1572.00,3.3214
1571.00,3.3279
1570.00,3.3259
1569.00,3.3175
1568.00,3.3134
1567.00,3.3193
1566.00,3.3313
1565.00,3.3431
1564.00,3.3509
1563.00,3.3527
1562.00,3.3509
1561.00,3.3530
1560.00,3.3655
1559.00,3.3646
1558.00,3.3339
1557.00,3.3069
1556.00,3.2976
1555.00,3.2975
1554.00,3.3005
1553.00,3.3031
1552.00,3.2991
1551.00,3.2838
1550.00,3.2643
1549.00,3.2532
1548.00,3.2519
1547.00,3.2502
1546.00,3.2410
1545.00,3.2298
1544.00,3.2251
1543.00,3.2281
1542.00,3.2352
1541.00,3.2398
1540.00,3.2274
1539.00,3.1961
1538.00,3.1663
1537.00,3.1493
1536.00,3.1408
1535.00,3.1318
1534.00,3.1143
1533.00,3.0885
1532.00,3.0649
1531.00,3.0493
1530.00,3.0364
1529.00,3.0200
1528.00,2.9993
1527.00,2.9780
1526.00,2.9609
1525.00,2.9511
1524.00,2.9439
1523.00,2.9343
1522.00,2.9097
1521.00,2.8811
1520.00,2.8442
1519.00,2.8360
1518.00,2.8378
1517.00,2.8011
1516.00,2.7775
1515.00,2.7477
1514.00,2.7282
1513.00,2.6957
1512.00,2.6846
1511.00,2.6244
1510.00,2.5461
1509.00,2.5359
1508.00,2.5297
1507.00,2.5425
1506.00,2.5457
1505.00,2.5478
1504.00,2.5507
1503.00,2.5550
1502.00,2.5608
1501.00,2.5703
1500.00,2.5843
1499.00,2.6002
1498.00,2.6162
1497.00,2.6344
1496.00,2.6593
1495.00,2.6915
1494.00,2.7244
1493.00,2.7515
1492.00,2.7736
1491.00,2.7983
1490.00,2.8329
1489.00,2.8773
1488.00,2.9235
1487.00,2.9622
1486.00,2.9922
1485.00,3.0189
1484.00,3.0472
1483.00,3.0779
1482.00,3.1096
1481.00,3.1410
1480.00,3.1701
1479.00,3.1953
1478.00,3.2171
1477.00,3.2380
1476.00,3.2596
1475.00,3.2828
1474.00,3.3119
1473.00,3.3490
1472.00,3.3857
1471.00,3.4109
1470.00,3.4260
1469.00,3.4421
1468.00,3.4652
1467.00,3.4919
1466.00,3.5176
1465.00,3.5433
1464.00,3.5723
1463.00,3.6011
1462.00,3.6222
1461.00,3.6357
1460.00,3.6483
1459.00,3.6650
1458.00,3.6841
1457.00,3.6979
1456.00,3.7018
1455.00,3.6984
1454.00,3.6943
1453.00,3.6959
1452.00,3.7038
1451.00,3.7138
1450.00,3.7265
1449.00,3.7507
1448.00,3.7886
1447.00,3.8253
1446.00,3.8457
1445.00,3.8568
1444.00,3.8687
1443.00,3.8662
1442.00,3.8315
1441.00,3.7798
1440.00,3.7360
1439.00,3.7065
1438.00,3.6912
1437.00,3.6982
1436.00,3.7324
1435.00,3.7755
1434.00,3.8001
1433.00,3.8032
1432.00,3.7989
1431.00,3.7907
1430.00,3.7691
1429.00,3.7306
1428.00,3.6867
1427.00,3.6536
1426.00,3.6439
1425.00,3.6692
1424.00,3.7355
1423.00,3.8256
1422.00,3.8874
1421.00,3.8714
1420.00,3.7961
1419.00,3.7179
1418.00,3.6724
1417.00,3.6660
1416.00,3.6821
1415.00,3.6952
1414.00,3.6916
1413.00,3.6784
1412.00,3.6718
1411.00,3.6803
1410.00,3.6954
1409.00,3.6987
1408.00,3.6823
1407.00,3.6523
1406.00,3.6214
1405.00,3.6029
1404.00,3.5974
1403.00,3.5926
1402.00,3.5803
1401.00,3.5660
1400.00,3.5593
1399.00,3.5600
1398.00,3.5581
1397.00,3.5515
1396.00,3.5508
1395.00,3.5593
1394.00,3.5647
1393.00,3.5543
1392.00,3.5332
1391.00,3.5136
1390.00,3.4986
1389.00,3.4847
1388.00,3.4733
1387.00,3.4722
1386.00,3.4844
1385.00,3.5021
1384.00,3.5149
1383.00,3.5238
1382.00,3.5412
1381.00,3.5752
1380.00,3.6243
1379.00,3.6826
1378.00,3.7398
1377.00,3.7828
1376.00,3.8067
1375.00,3.8172
1374.00,3.8213
1373.00,3.8149
1372.00,3.7856
1371.00,3.7315
1370.00,3.6689
1369.00,3.6158
1368.00,3.5761
1367.00,3.5396
1366.00,3.4959
1365.00,3.4464
1364.00,3.4002
1363.00,3.3631
1362.00,3.3320
1361.00,3.3006
1360.00,3.2687
1359.00,3.2411
1358.00,3.2202
1357.00,3.2010
1356.00,3.1741
1355.00,3.1351
1354.00,3.0902
1353.00,3.0497
1352.00,3.0196
1351.00,3.0011
1350.00,2.9925
1349.00,2.9899
1348.00,2.9859
1347.00,2.9713
1346.00,2.9432
1345.00,2.9083
1344.00,2.8768
1343.00,2.8540
1342.00,2.8398
1341.00,2.8306
1340.00,2.8212
1339.00,2.8054
1338.00,2.7814
1337.00,2.7532
1336.00,2.7265
1335.00,2.7048
1334.00,2.6894
1333.00,2.6819
1332.00,2.6842
1331.00,2.6975
1330.00,2.7206
1329.00,2.7510
1328.00,2.7870
1327.00,2.8286
1326.00,2.8749
1325.00,2.9236
1324.00,2.9722
1323.00,3.0200
1322.00,3.0681
1321.00,3.1157
1320.00,3.1588
1319.00,3.1918
1318.00,3.2142
1317.00,3.2332
1316.00,3.2574
1315.00,3.2867
1314.00,3.3131
1313.00,3.3297
1312.00,3.3363
1311.00,3.3367
1310.00,3.3363
1309.00,3.3412
1308.00,3.3561
1307.00,3.3799
1306.00,3.4020
1305.00,3.4109
1304.00,3.4098
1303.00,3.4158
1302.00,3.4400
1301.00,3.4752
1300.00,3.5018
1299.00,3.5102
1298.00,3.5083
1297.00,3.5055
1296.00,3.5033
1295.00,3.5014
1294.00,3.5024
1293.00,3.5082
1292.00,3.5187
1291.00,3.5368
1290.00,3.5668
1289.00,3.6025
1288.00,3.6274
1287.00,3.6375
1286.00,3.6489
1285.00,3.6683
1284.00,3.6748
1283.00,3.6515
1282.00,3.6205
1281.00,3.6140
1280.00,3.6358
1279.00,3.6633
1278.00,3.6811
1277.00,3.6985
1276.00,3.7199
1275.00,3.7271
1274.00,3.7089
1273.00,3.6833
1272.00,3.6717
1271.00,3.6773
1270.00,3.6874
1269.00,3.6891
1268.00,3.6786
1267.00,3.6544
1266.00,3.6187
1265.00,3.5850
1264.00,3.5666
1263.00,3.5674
1262.00,3.5853
1261.00,3.6176
1260.00,3.6554
1259.00,3.6767
1258.00,3.6599
1257.00,3.6117
1256.00,3.5597
1255.00,3.5257
1254.00,3.5163
1253.00,3.5245
1252.00,3.5333
1251.00,3.5261
1250.00,3.5020
1249.00,3.4743
1248.00,3.4531
1247.00,3.4378
1246.00,3.4244
1245.00,3.4118
1244.00,3.3990
1243.00,3.3817
1242.00,3.3573
1241.00,3.3306
1240.00,3.3056
1239.00,3.2782
1238.00,3.2451
1237.00,3.2104
1236.00,3.1800
1235.00,3.1526
1234.00,3.1225
1233.00,3.0888
1232.00,3.0569
1231.00,3.0334
1230.00,3.0212
1229.00,3.0220
1228.00,3.0377
1227.00,3.0682
1226.00,3.1077
1225.00,3.1444
1224.00,3.1655
1223.00,3.1634
1222.00,3.1378
1221.00,3.0937
1220.00,3.0378
1219.00,2.9739
1218.00,2.9026
1217.00,2.8249
1216.00,2.7450
1215.00,2.6696
1214.00,2.6040
1213.00,2.5509
1212.00,2.5115
1211.00,2.4869
1210.00,2.4779
1209.00,2.4835
1208.00,2.5021
1207.00,2.5318
1206.00,2.5719
1205.00,2.6219
1204.00,2.6803
1203.00,2.7434
1202.00,2.8072
1201.00,2.8682
1200.00,2.9247
1199.00,2.9768
1198.00,3.0275
1197.00,3.0800
1196.00,3.1345
1195.00,3.1862
1194.00,3.2307
1193.00,3.2688
1192.00,3.3037
1191.00,3.3351
1190.00,3.3623
1189.00,3.3892
1188.00,3.4183
1187.00,3.4445
1186.00,3.4628
1185.00,3.4795
1184.00,3.5079
1183.00,3.5547
1182.00,3.6148
1181.00,3.6738
1180.00,3.7208
1179.00,3.7438
1178.00,3.7166
1177.00,3.6523
1176.00,3.5959
1175.00,3.5728
1174.00,3.5941
1173.00,3.6548
1172.00,3.7248
1171.00,3.7594
1170.00,3.7555
1169.00,3.7498
1168.00,3.7548
1167.00,3.7520
1166.00,3.7345
1165.00,3.7263
1164.00,3.7502
1163.00,3.8079
1162.00,3.8818
1161.00,3.9505
1160.00,4.0043
1159.00,4.0353
1158.00,4.0249
1157.00,3.9724
1156.00,3.9185
1155.00,3.9042
1154.00,3.9266
1153.00,3.9297
1152.00,3.8938
1151.00,3.8707
1150.00,3.8800
1149.00,3.9003
1148.00,3.9045
1147.00,3.8828
1146.00,3.8526
1145.00,3.8331
1144.00,3.8215
1143.00,3.7990
1142.00,3.7631
1141.00,3.7367
1140.00,3.7405
1139.00,3.7741
1138.00,3.8198
1137.00,3.8605
1136.00,3.8889
1135.00,3.8924
1134.00,3.8669
1133.00,3.8455
1132.00,3.8606
1131.00,3.9015
1130.00,3.9081
1129.00,3.8581
1128.00,3.7970
1127.00,3.7445
1126.00,3.7053
1125.00,3.6878
1124.00,3.6893
1123.00,3.6956
1122.00,3.7032
1121.00,3.7201
1120.00,3.7422
1119.00,3.7663
1118.00,3.8082
1117.00,3.8611
1116.00,3.8659
1115.00,3.8193
1114.00,3.7823
1113.00,3.7816
1112.00,3.8260
1111.00,3.9009
1110.00,3.9220
1109.00,3.8225
1108.00,3.6827
1107.00,3.5789
1106.00,3.5269
1105.00,3.5126
1104.00,3.5087
1103.00,3.4962
1102.00,3.4802
1101.00,3.4678
1100.00,3.4458
1099.00,3.4030
1098.00,3.3486
1097.00,3.2995
1096.00,3.2662
1095.00,3.2488
1094.00,3.2404
1093.00,3.2308
1092.00,3.2110
1091.00,3.1812
1090.00,3.1510
1089.00,3.1287
1088.00,3.1133
1087.00,3.0983
1086.00,3.0824
1085.00,3.0727
1084.00,3.0781
1083.00,3.1004
1082.00,3.1329
1081.00,3.1662
1080.00,3.1964
1079.00,3.2264
1078.00,3.2610
1077.00,3.3009
1076.00,3.3426
1075.00,3.3866
1074.00,3.4416
1073.00,3.5160
1072.00,3.6001
1071.00,3.6640
1070.00,3.6937
1069.00,3.7141
1068.00,3.7501
1067.00,3.7940
1066.00,3.8183
1065.00,3.8174
1064.00,3.8321
1063.00,3.8977
1062.00,3.9859
1061.00,4.0105
1060.00,3.9465
1059.00,3.8681
1058.00,3.8343
1057.00,3.8604
1056.00,3.9338
1055.00,4.0151
1054.00,4.0580
1053.00,4.0656
1052.00,4.0730
1051.00,4.0659
1050.00,4.0340
1049.00,4.0133
1048.00,4.0179
1047.00,4.0449
1046.00,4.0781
1045.00,4.0944
1044.00,4.1750
1043.00,4.5201
1042.00,4.7392
1041.00,4.4204
1040.00,4.6404
1039.00,4.7737
1038.00,4.3469
1037.00,4.2383
1036.00,4.1680
1035.00,4.1069
1034.00,4.0903
1033.00,4.0370
1032.00,3.9304
1031.00,3.8661
1030.00,3.8879
1029.00,3.9469
1028.00,3.9345
1027.00,3.8659
1026.00,3.8221
1025.00,3.8113
1024.00,3.8092
1023.00,3.8078
1022.00,3.8255
1021.00,3.8645
1020.00,3.8907
1019.00,3.8927
1018.00,3.9065
1017.00,3.9764
1016.00,4.1105
1015.00,4.1570
1014.00,4.0941
1013.00,4.1449
1012.00,4.3236
1011.00,4.3496
1010.00,4.2669
1009.00,4.3447
1008.00,4.5559
1007.00,4.4659
1006.00,4.2178
1005.00,4.1216
1004.00,4.1568
1003.00,4.3943
1002.00,5.1260
1001.00,4.6822
1000.00,4.4375
999.00,4.2214
998.00,4.0161
997.00,3.9347
996.00,3.9673
995.00,4.1519
994.00,4.5621
993.00,4.5190
992.00,4.2970
991.00,4.3734
990.00,4.6668
989.00,4.4372
988.00,4.0951
987.00,3.9289
986.00,3.8839
985.00,3.9413
984.00,4.0742
983.00,4.1875
982.00,4.1633
981.00,4.1015
980.00,4.0910
979.00,4.1117
978.00,4.1229
977.00,4.1244
976.00,4.1484
975.00,4.1779
974.00,4.1372
973.00,4.0346
972.00,3.9527
971.00,3.9376
970.00,3.9888
969.00,4.0588
968.00,4.0755
967.00,4.0328
966.00,3.9901
965.00,3.9679
964.00,3.9301
963.00,3.8607
962.00,3.8015
961.00,3.7973
960.00,3.8719
959.00,4.0226
958.00,4.1851
957.00,4.2265
956.00,4.1390
955.00,4.0446
954.00,3.9776
953.00,3.9231
952.00,3.8993
951.00,3.9203
950.00,3.9529
949.00,3.9395
948.00,3.8827
947.00,3.8249
946.00,3.7855
945.00,3.7775
944.00,3.8060
943.00,3.8504
942.00,3.8811
941.00,3.8956
940.00,3.9150
939.00,3.9666
938.00,4.0757
937.00,4.2409
936.00,4.2872
935.00,4.1652
934.00,4.1093
933.00,4.1097
932.00,4.0953
931.00,4.0762
930.00,4.0979
929.00,4.1627
928.00,4.1878
927.00,4.1059
926.00,3.9948
925.00,3.9392
924.00,3.9533
923.00,4.0110
922.00,4.0676
921.00,4.0859
920.00,4.0689
919.00,4.0566
918.00,4.0747
917.00,4.1204
916.00,4.1908
915.00,4.3666
914.00,4.5257
913.00,4.2448
912.00,4.0975
911.00,4.1262
910.00,4.3865
909.00,5.0811
908.00,4.7821
907.00,4.6191
906.00,4.3438
905.00,4.2228
904.00,4.2908
903.00,4.3804
902.00,4.2574
901.00,4.1082
900.00,4.0741
899.00,4.1957
898.00,4.5966
897.00,4.5838
896.00,4.1929
895.00,4.0553
894.00,4.0219
893.00,4.0662
892.00,4.1538
891.00,4.1211
890.00,3.9887
889.00,3.9024
888.00,3.8741
887.00,3.8637
886.00,3.8371
885.00,3.8001
884.00,3.7867
883.00,3.8193
882.00,3.8860
881.00,3.9492
880.00,4.0028
879.00,4.0498
878.00,3.9832
877.00,3.8562
876.00,3.8241
875.00,3.9126
874.00,4.0751
873.00,4.1827
872.00,4.2493
871.00,4.4998
870.00,5.0592
869.00,4.7564
868.00,4.4190
867.00,4.1784
866.00,4.0810
865.00,4.0484
864.00,4.0091
863.00,3.9767
862.00,3.9791
861.00,4.0012
860.00,4.0061
859.00,4.0505
858.00,4.2281
857.00,4.6775
856.00,4.7168
855.00,4.3706
854.00,4.3551
853.00,4.5016
852.00,4.5679
851.00,4.3503
850.00,4.1501
849.00,4.0645
848.00,4.0552
847.00,4.0526
846.00,4.0137
845.00,3.9718
844.00,3.9842
843.00,4.0745
842.00,4.2697
841.00,4.4441
840.00,4.1731
839.00,3.9823
838.00,3.9438
837.00,4.0459
836.00,4.3262
835.00,4.7172
834.00,4.8735
833.00,4.5258
832.00,4.3727
831.00,4.6166
830.00,4.9470
829.00,4.4997
828.00,4.2930
827.00,4.1903
826.00,4.1702
825.00,4.2223
824.00,4.3994
823.00,4.4124
822.00,4.2568
821.00,4.2777
820.00,4.3169
819.00,4.3887
818.00,4.8301
817.00,4.6170
816.00,4.2724
815.00,4.2378
814.00,4.3115
813.00,4.3148
812.00,4.4835
811.00,5.1090
810.00,4.3042
809.00,4.1449
808.00,4.1224
807.00,4.0354
806.00,3.9344
805.00,3.8724
804.00,3.8511
803.00,3.8596
802.00,3.9200
801.00,4.0041
800.00,3.9893
799.00,3.9027
798.00,3.8761
797.00,3.9690
796.00,4.1606
795.00,4.2658
794.00,4.1983
793.00,4.0356
792.00,3.9049
791.00,3.8724
790.00,3.9530
789.00,4.1594
788.00,4.3317
787.00,4.3738
786.00,4.4321
785.00,4.5509
784.00,5.1786
783.00,4.5478
782.00,4.3571
781.00,4.2585
780.00,4.1507
779.00,4.1418
778.00,4.2191
777.00,4.3476
776.00,4.6004
775.00,4.6374
774.00,4.1874
773.00,3.9914
772.00,3.8780
771.00,3.7547
770.00,3.6413
769.00,3.5788
768.00,3.5772
767.00,3.6209
766.00,3.6833
765.00,3.7257
764.00,3.7812
763.00,3.9355
762.00,4.1476
761.00,4.1898
760.00,4.1647
759.00,4.1417
758.00,4.0761
757.00,3.9817
756.00,3.9256
755.00,3.9531
754.00,4.0536
753.00,4.2104
752.00,4.3277
751.00,4.2407
750.00,4.0767
749.00,3.9348
748.00,3.8824
747.00,3.8911
746.00,3.8784
745.00,3.8415
744.00,3.8471
743.00,3.9428
742.00,4.1753
741.00,4.6083
740.00,4.5291
739.00,4.1602
738.00,4.0103
737.00,4.0304
736.00,4.2153
735.00,4.4781
734.00,4.3228
733.00,4.0627
732.00,3.9026
731.00,3.8401
730.00,3.8445
729.00,3.8815
728.00,3.9329
727.00,3.9625
726.00,3.9924
725.00,4.0032
724.00,3.9281
723.00,3.8622
722.00,3.8682
721.00,3.9386
720.00,4.1532
719.00,4.5956
718.00,4.1864
717.00,4.0142
716.00,4.1612
715.00,4.7087
714.00,4.3329
713.00,4.1751
712.00,4.0918
711.00,4.0269
710.00,4.0778
709.00,4.1485
708.00,4.0891
707.00,4.0133
706.00,3.9915
705.00,4.0097
704.00,4.0989
703.00,4.1633
702.00,4.0338
701.00,3.9992
700.00,4.1679
