Created as New Dataset,Sample 020 By Administrator Date Wednesday, November 24 2021
cm-1,A
7502.00,0.7970
7501.00,0.7888
7500.00,0.7807
7499.00,0.7728
7498.00,0.7650
7497.00,0.7573
7496.00,0.7498
7495.00,0.7424
7494.00,0.7351
7493.00,0.7277
7492.00,0.7200
7491.00,0.7124
7490.00,0.7047
7489.00,0.6968
7488.00,0.6886
7487.00,0.6805
7486.00,0.6730
7485.00,0.6659
7484.00,0.6588
7483.00,0.6517
7482.00,0.6446
7481.00,0.6377
7480.00,0.6305
7479.00,0.6230
7478.00,0.6154
7477.00,0.6081
7476.00,0.6009
7475.00,0.5937
7474.00,0.5865
7473.00,0.5795
7472.00,0.5726
7471.00,0.5658
7470.00,0.5594
7469.00,0.5536
7468.00,0.5484
7467.00,0.5435
7466.00,0.5389
7465.00,0.5349
7464.00,0.5313
7463.00,0.5278
7462.00,0.5245
7461.00,0.5218
7460.00,0.5198
7459.00,0.5185
7458.00,0.5177
7457.00,0.5174
7456.00,0.5177
7455.00,0.5186
7454.00,0.5198
7453.00,0.5211
7452.00,0.5226
7451.00,0.5244
7450.00,0.5268
7449.00,0.5296
7448.00,0.5330
7447.00,0.5369
7446.00,0.5414
7445.00,0.5464
7444.00,0.5521
7443.00,0.5585
7442.00,0.5654
7441.00,0.5728
7440.00,0.5805
7439.00,0.5884
7438.00,0.5966
7437.00,0.6053
7436.00,0.6141
7435.00,0.6232
7434.00,0.6326
7433.00,0.6423
7432.00,0.6523
7431.00,0.6623
7430.00,0.6724
7429.00,0.6824
7428.00,0.6924
7427.00,0.7022
7426.00,0.7122
7425.00,0.7224
7424.00,0.7326
7423.00,0.7426
7422.00,0.7523
7421.00,0.7620
7420.00,0.7716
7419.00,0.7809
7418.00,0.7899
7417.00,0.7991
7416.00,0.8083
7415.00,0.8173
7414.00,0.8262
7413.00,0.8347
7412.00,0.8428
7411.00,0.8504
7410.00,0.8577
7409.00,0.8647
7408.00,0.8716
7407.00,0.8780
7406.00,0.8839
7405.00,0.8894
7404.00,0.8947
7403.00,0.9002
7402.00,0.9053
7401.00,0.9096
7400.00,0.9131
7399.00,0.9163
7398.00,0.9195
7397.00,0.9225
7396.00,0.9248
7395.00,0.9263
7394.00,0.9278
7393.00,0.9297
7392.00,0.9317
7391.00,0.9333
7390.00,0.9342
7389.00,0.9346
7388.00,0.9346
7387.00,0.9340
7386.00,0.9327
7385.00,0.9309
7384.00,0.9289
7383.00,0.9271
7382.00,0.9255
7381.00,0.9241
7380.00,0.9228
7379.00,0.9217
7378.00,0.9205
7377.00,0.9186
7376.00,0.9151
7375.00,0.9096
7374.00,0.9029
7373.00,0.8953
7372.00,0.8870
7371.00,0.8782
7370.00,0.8694
7369.00,0.8613
7368.00,0.8542
7367.00,0.8478
7366.00,0.8418
7365.00,0.8357
7364.00,0.8294
7363.00,0.8231
7362.00,0.8172
7361.00,0.8117
7360.00,0.8064
7359.00,0.8009
7358.00,0.7953
7357.00,0.7896
7356.00,0.7840
7355.00,0.7785
7354.00,0.7735
7353.00,0.7692
7352.00,0.7652
7351.00,0.7607
7350.00,0.7552
7349.00,0.7486
7348.00,0.7408
7347.00,0.7321
7346.00,0.7230
7345.00,0.7143
7344.00,0.7065
7343.00,0.6997
7342.00,0.6935
7341.00,0.6879
7340.00,0.6825
7339.00,0.6770
7338.00,0.6711
7337.00,0.6648
7336.00,0.6582
7335.00,0.6519
7334.00,0.6460
7333.00,0.6405
7332.00,0.6355
7331.00,0.6308
7330.00,0.6268
7329.00,0.6232
7328.00,0.6201
7327.00,0.6173
7326.00,0.6150
7325.00,0.6132
7324.00,0.6118
7323.00,0.6105
7322.00,0.6094
7321.00,0.6087
7320.00,0.6086
7319.00,0.6092
7318.00,0.6104
7317.00,0.6121
7316.00,0.6143
7315.00,0.6170
7314.00,0.6202
7313.00,0.6240
7312.00,0.6282
7311.00,0.6326
7310.00,0.6374
7309.00,0.6427
7308.00,0.6486
7307.00,0.6550
7306.00,0.6618
7305.00,0.6692
7304.00,0.6772
7303.00,0.6856
7302.00,0.6941
7301.00,0.7025
7300.00,0.7109
7299.00,0.7195
7298.00,0.7283
7297.00,0.7374
7296.00,0.7468
7295.00,0.7563
7294.00,0.7659
7293.00,0.7759
7292.00,0.7862
7291.00,0.7970
7290.00,0.8078
7289.00,0.8185
7288.00,0.8293
7287.00,0.8401
7286.00,0.8508
7285.00,0.8611
7284.00,0.8710
7283.00,0.8802
7282.00,0.8891
7281.00,0.8981
7280.00,0.9075
7279.00,0.9175
7278.00,0.9276
7277.00,0.9378
7276.00,0.9477
7275.00,0.9572
7274.00,0.9656
7273.00,0.9728
7272.00,0.9787
7271.00,0.9840
7270.00,0.9894
7269.00,0.9954
7268.00,1.0016
7267.00,1.0076
7266.00,1.0134
7265.00,1.0192
7264.00,1.0254
7263.00,1.0315
7262.00,1.0369
7261.00,1.0412
7260.00,1.0447
7259.00,1.0479
7258.00,1.0512
7257.00,1.0542
7256.00,1.0564
7255.00,1.0575
7254.00,1.0580
7253.00,1.0585
7252.00,1.0592
7251.00,1.0598
7250.00,1.0600
7249.00,1.0598
7248.00,1.0592
7247.00,1.0584
7246.00,1.0579
7245.00,1.0573
7244.00,1.0562
7243.00,1.0544
7242.00,1.0523
7241.00,1.0503
7240.00,1.0481
7239.00,1.0451
7238.00,1.0411
7237.00,1.0366
7236.00,1.0321
7235.00,1.0275
7234.00,1.0221
7233.00,1.0157
7232.00,1.0089
7231.00,1.0021
7230.00,0.9956
7229.00,0.9892
7228.00,0.9826
7227.00,0.9759
7226.00,0.9694
7225.00,0.9627
7224.00,0.9555
7223.00,0.9479
7222.00,0.9400
7221.00,0.9316
7220.00,0.9226
7219.00,0.9133
7218.00,0.9039
7217.00,0.8947
7216.00,0.8855
7215.00,0.8762
7214.00,0.8667
7213.00,0.8575
7212.00,0.8488
7211.00,0.8405
7210.00,0.8322
7209.00,0.8235
7208.00,0.8146
7207.00,0.8057
7206.00,0.7971
7205.00,0.7888
7204.00,0.7807
7203.00,0.7726
7202.00,0.7648
7201.00,0.7575
7200.00,0.7503
7199.00,0.7433
7198.00,0.7366
7197.00,0.7302
7196.00,0.7241
7195.00,0.7184
7194.00,0.7132
7193.00,0.7085
7192.00,0.7041
7191.00,0.7000
7190.00,0.6965
7189.00,0.6935
7188.00,0.6911
7187.00,0.6889
7186.00,0.6873
7185.00,0.6864
7184.00,0.6860
7183.00,0.6861
7182.00,0.6867
7181.00,0.6878
7180.00,0.6894
7179.00,0.6914
7178.00,0.6938
7177.00,0.6969
7176.00,0.7006
7175.00,0.7050
7174.00,0.7098
7173.00,0.7152
7172.00,0.7212
7171.00,0.7277
7170.00,0.7346
7169.00,0.7418
7168.00,0.7490
7167.00,0.7564
7166.00,0.7643
7165.00,0.7729
7164.00,0.7819
7163.00,0.7908
7162.00,0.7998
7161.00,0.8091
7160.00,0.8189
7159.00,0.8291
7158.00,0.8392
7157.00,0.8490
7156.00,0.8585
7155.00,0.8680
7154.00,0.8776
7153.00,0.8874
7152.00,0.8972
7151.00,0.9068
7150.00,0.9163
7149.00,0.9258
7148.00,0.9356
7147.00,0.9455
7146.00,0.9551
7145.00,0.9644
7144.00,0.9733
7143.00,0.9822
7142.00,0.9909
7141.00,0.9993
7140.00,1.0073
7139.00,1.0152
7138.00,1.0229
7137.00,1.0303
7136.00,1.0372
7135.00,1.0436
7134.00,1.0494
7133.00,1.0547
7132.00,1.0594
7131.00,1.0641
7130.00,1.0690
7129.00,1.0740
7128.00,1.0784
7127.00,1.0819
7126.00,1.0847
7125.00,1.0868
7124.00,1.0886
7123.00,1.0903
7122.00,1.0922
7121.00,1.0940
7120.00,1.0954
7119.00,1.0963
7118.00,1.0968
7117.00,1.0970
7116.00,1.0964
7115.00,1.0947
7114.00,1.0926
7113.00,1.0908
7112.00,1.0893
7111.00,1.0879
7110.00,1.0860
7109.00,1.0837
7108.00,1.0809
7107.00,1.0777
7106.00,1.0741
7105.00,1.0704
7104.00,1.0665
7103.00,1.0625
7102.00,1.0579
7101.00,1.0529
7100.00,1.0477
7099.00,1.0421
7098.00,1.0362
7097.00,1.0300
7096.00,1.0237
7095.00,1.0175
7094.00,1.0109
7093.00,1.0038
7092.00,0.9961
7091.00,0.9882
7090.00,0.9802
7089.00,0.9718
7088.00,0.9633
7087.00,0.9547
7086.00,0.9461
7085.00,0.9372
7084.00,0.9281
7083.00,0.9187
7082.00,0.9096
7081.00,0.9007
7080.00,0.8921
7079.00,0.8836
7078.00,0.8751
7077.00,0.8665
7076.00,0.8577
7075.00,0.8488
7074.00,0.8398
7073.00,0.8308
7072.00,0.8220
7071.00,0.8133
7070.00,0.8048
7069.00,0.7967
7068.00,0.7888
7067.00,0.7812
7066.00,0.7739
7065.00,0.7668
7064.00,0.7599
7063.00,0.7533
7062.00,0.7470
7061.00,0.7412
7060.00,0.7356
7059.00,0.7302
7058.00,0.7253
7057.00,0.7211
7056.00,0.7174
7055.00,0.7139
7054.00,0.7107
7053.00,0.7079
7052.00,0.7057
7051.00,0.7040
7050.00,0.7028
7049.00,0.7022
7048.00,0.7023
7047.00,0.7029
7046.00,0.7041
7045.00,0.7056
7044.00,0.7075
7043.00,0.7099
7042.00,0.7129
7041.00,0.7166
7040.00,0.7209
7039.00,0.7257
7038.00,0.7311
7037.00,0.7372
7036.00,0.7438
7035.00,0.7506
7034.00,0.7577
7033.00,0.7651
7032.00,0.7728
7031.00,0.7811
7030.00,0.7899
7029.00,0.7990
7028.00,0.8080
7027.00,0.8171
7026.00,0.8266
7025.00,0.8363
7024.00,0.8461
7023.00,0.8557
7022.00,0.8655
7021.00,0.8757
7020.00,0.8863
7019.00,0.8971
7018.00,0.9077
7017.00,0.9182
7016.00,0.9284
7015.00,0.9384
7014.00,0.9481
7013.00,0.9575
7012.00,0.9669
7011.00,0.9766
7010.00,0.9865
7009.00,0.9964
7008.00,1.0059
7007.00,1.0151
7006.00,1.0241
7005.00,1.0328
7004.00,1.0408
7003.00,1.0481
7002.00,1.0552
7001.00,1.0625
7000.00,1.0698
6999.00,1.0768
6998.00,1.0837
6997.00,1.0905
6996.00,1.0970
6995.00,1.1031
6994.00,1.1086
6993.00,1.1138
6992.00,1.1187
6991.00,1.1233
6990.00,1.1276
6989.00,1.1314
6988.00,1.1347
6987.00,1.1378
6986.00,1.1408
6985.00,1.1432
6984.00,1.1445
6983.00,1.1447
6982.00,1.1445
6981.00,1.1448
6980.00,1.1454
6979.00,1.1460
6978.00,1.1460
6977.00,1.1459
6976.00,1.1458
6975.00,1.1454
6974.00,1.1443
6973.00,1.1424
6972.00,1.1399
6971.00,1.1368
6970.00,1.1337
6969.00,1.1306
6968.00,1.1271
6967.00,1.1229
6966.00,1.1182
6965.00,1.1131
6964.00,1.1078
6963.00,1.1022
6962.00,1.0961
6961.00,1.0896
6960.00,1.0828
6959.00,1.0758
6958.00,1.0687
6957.00,1.0614
6956.00,1.0537
6955.00,1.0460
6954.00,1.0382
6953.00,1.0303
6952.00,1.0218
6951.00,1.0126
6950.00,1.0032
6949.00,0.9938
6948.00,0.9845
6947.00,0.9753
6946.00,0.9662
6945.00,0.9574
6944.00,0.9485
6943.00,0.9392
6942.00,0.9295
6941.00,0.9197
6940.00,0.9100
6939.00,0.9003
6938.00,0.8903
6937.00,0.8804
6936.00,0.8708
6935.00,0.8615
6934.00,0.8524
6933.00,0.8434
6932.00,0.8345
6931.00,0.8261
6930.00,0.8180
6929.00,0.8103
6928.00,0.8028
6927.00,0.7956
6926.00,0.7886
6925.00,0.7820
6924.00,0.7758
6923.00,0.7699
6922.00,0.7644
6921.00,0.7593
6920.00,0.7548
6919.00,0.7510
6918.00,0.7478
6917.00,0.7452
6916.00,0.7429
6915.00,0.7411
6914.00,0.7398
6913.00,0.7391
6912.00,0.7388
6911.00,0.7392
6910.00,0.7403
6909.00,0.7422
6908.00,0.7448
6907.00,0.7479
6906.00,0.7515
6905.00,0.7554
6904.00,0.7597
6903.00,0.7642
6902.00,0.7692
6901.00,0.7748
6900.00,0.7812
6899.00,0.7880
6898.00,0.7951
6897.00,0.8028
6896.00,0.8109
6895.00,0.8195
6894.00,0.8283
6893.00,0.8374
6892.00,0.8468
6891.00,0.8564
6890.00,0.8663
6889.00,0.8765
6888.00,0.8867
6887.00,0.8969
6886.00,0.9070
6885.00,0.9175
6884.00,0.9282
6883.00,0.9388
6882.00,0.9493
6881.00,0.9597
6880.00,0.9700
6879.00,0.9801
6878.00,0.9898
6877.00,0.9994
6876.00,1.0087
6875.00,1.0179
6874.00,1.0270
6873.00,1.0359
6872.00,1.0447
6871.00,1.0530
6870.00,1.0611
6869.00,1.0689
6868.00,1.0765
6867.00,1.0837
6866.00,1.0906
6865.00,1.0970
6864.00,1.1032
6863.00,1.1091
6862.00,1.1149
6861.00,1.1207
6860.00,1.1264
6859.00,1.1317
6858.00,1.1364
6857.00,1.1406
6856.00,1.1442
6855.00,1.1472
6854.00,1.1498
6853.00,1.1522
6852.00,1.1545
6851.00,1.1565
6850.00,1.1583
6849.00,1.1596
6848.00,1.1604
6847.00,1.1606
6846.00,1.1603
6845.00,1.1596
6844.00,1.1584
6843.00,1.1567
6842.00,1.1547
6841.00,1.1525
6840.00,1.1499
6839.00,1.1470
6838.00,1.1438
6837.00,1.1404
6836.00,1.1369
6835.00,1.1331
6834.00,1.1290
6833.00,1.1245
6832.00,1.1194
6831.00,1.1137
6830.00,1.1078
6829.00,1.1020
6828.00,1.0962
6827.00,1.0900
6826.00,1.0832
6825.00,1.0758
6824.00,1.0681
6823.00,1.0599
6822.00,1.0515
6821.00,1.0428
6820.00,1.0342
6819.00,1.0255
6818.00,1.0168
6817.00,1.0081
6816.00,0.9991
6815.00,0.9896
6814.00,0.9797
6813.00,0.9698
6812.00,0.9600
6811.00,0.9502
6810.00,0.9403
6809.00,0.9306
6808.00,0.9210
6807.00,0.9116
6806.00,0.9024
6805.00,0.8932
6804.00,0.8840
6803.00,0.8745
6802.00,0.8649
6801.00,0.8553
6800.00,0.8459
6799.00,0.8369
6798.00,0.8282
6797.00,0.8199
6796.00,0.8118
6795.00,0.8041
6794.00,0.7966
6793.00,0.7892
6792.00,0.7821
6791.00,0.7754
6790.00,0.7693
6789.00,0.7636
6788.00,0.7582
6787.00,0.7530
6786.00,0.7484
6785.00,0.7444
6784.00,0.7409
6783.00,0.7378
6782.00,0.7352
6781.00,0.7331
6780.00,0.7315
6779.00,0.7304
6778.00,0.7297
6777.00,0.7296
6776.00,0.7303
6775.00,0.7316
6774.00,0.7335
6773.00,0.7361
6772.00,0.7393
6771.00,0.7429
6770.00,0.7467
6769.00,0.7508
6768.00,0.7555
6767.00,0.7608
6766.00,0.7669
6765.00,0.7734
6764.00,0.7804
6763.00,0.7881
6762.00,0.7964
6761.00,0.8052
6760.00,0.8141
6759.00,0.8230
6758.00,0.8321
6757.00,0.8414
6756.00,0.8511
6755.00,0.8610
6754.00,0.8712
6753.00,0.8815
6752.00,0.8921
6751.00,0.9029
6750.00,0.9139
6749.00,0.9250
6748.00,0.9361
6747.00,0.9471
6746.00,0.9578
6745.00,0.9683
6744.00,0.9788
6743.00,0.9893
6742.00,0.9999
6741.00,1.0103
6740.00,1.0205
6739.00,1.0307
6738.00,1.0406
6737.00,1.0501
6736.00,1.0591
6735.00,1.0679
6734.00,1.0766
6733.00,1.0853
6732.00,1.0935
6731.00,1.1013
6730.00,1.1091
6729.00,1.1167
6728.00,1.1240
6727.00,1.1309
6726.00,1.1376
6725.00,1.1440
6724.00,1.1497
6723.00,1.1545
6722.00,1.1586
6721.00,1.1623
6720.00,1.1659
6719.00,1.1694
6718.00,1.1731
6717.00,1.1769
6716.00,1.1805
6715.00,1.1834
6714.00,1.1854
6713.00,1.1866
6712.00,1.1873
6711.00,1.1877
6710.00,1.1881
6709.00,1.1883
6708.00,1.1883
6707.00,1.1881
6706.00,1.1875
6705.00,1.1867
6704.00,1.1855
6703.00,1.1836
6702.00,1.1813
6701.00,1.1789
6700.00,1.1763
6699.00,1.1732
6698.00,1.1693
6697.00,1.1648
6696.00,1.1602
6695.00,1.1555
6694.00,1.1505
6693.00,1.1452
6692.00,1.1394
6691.00,1.1332
6690.00,1.1269
6689.00,1.1203
6688.00,1.1136
6687.00,1.1065
6686.00,1.0990
6685.00,1.0912
6684.00,1.0829
6683.00,1.0743
6682.00,1.0654
6681.00,1.0561
6680.00,1.0466
6679.00,1.0371
6678.00,1.0277
6677.00,1.0183
6676.00,1.0085
6675.00,0.9984
6674.00,0.9882
6673.00,0.9779
6672.00,0.9674
6671.00,0.9567
6670.00,0.9460
6669.00,0.9357
6668.00,0.9256
6667.00,0.9155
6666.00,0.9053
6665.00,0.8951
6664.00,0.8850
6663.00,0.8749
6662.00,0.8650
6661.00,0.8553
6660.00,0.8459
6659.00,0.8368
6658.00,0.8282
6657.00,0.8202
6656.00,0.8125
6655.00,0.8049
6654.00,0.7976
6653.00,0.7907
6652.00,0.7844
6651.00,0.7786
6650.00,0.7733
6649.00,0.7684
6648.00,0.7642
6647.00,0.7606
6646.00,0.7577
6645.00,0.7553
6644.00,0.7532
6643.00,0.7517
6642.00,0.7507
6641.00,0.7504
6640.00,0.7507
6639.00,0.7516
6638.00,0.7531
6637.00,0.7553
6636.00,0.7581
6635.00,0.7616
6634.00,0.7657
6633.00,0.7704
6632.00,0.7756
6631.00,0.7814
6630.00,0.7876
6629.00,0.7944
6628.00,0.8015
6627.00,0.8090
6626.00,0.8170
6625.00,0.8256
6624.00,0.8346
6623.00,0.8440
6622.00,0.8538
6621.00,0.8638
6620.00,0.8740
6619.00,0.8843
6618.00,0.8946
6617.00,0.9049
6616.00,0.9155
6615.00,0.9262
6614.00,0.9370
6613.00,0.9479
6612.00,0.9588
6611.00,0.9697
6610.00,0.9806
6609.00,0.9914
6608.00,1.0020
6607.00,1.0124
6606.00,1.0227
6605.00,1.0330
6604.00,1.0428
6603.00,1.0520
6602.00,1.0606
6601.00,1.0690
6600.00,1.0774
6599.00,1.0857
6598.00,1.0939
6597.00,1.1019
6596.00,1.1098
6595.00,1.1175
6594.00,1.1247
6593.00,1.1315
6592.00,1.1376
6591.00,1.1434
6590.00,1.1491
6589.00,1.1544
6588.00,1.1592
6587.00,1.1632
6586.00,1.1665
6585.00,1.1693
6584.00,1.1719
6583.00,1.1745
6582.00,1.1770
6581.00,1.1793
6580.00,1.1814
6579.00,1.1835
6578.00,1.1854
6577.00,1.1868
6576.00,1.1874
6575.00,1.1873
6574.00,1.1868
6573.00,1.1859
6572.00,1.1845
6571.00,1.1824
6570.00,1.1800
6569.00,1.1774
6568.00,1.1745
6567.00,1.1711
6566.00,1.1673
6565.00,1.1634
6564.00,1.1592
6563.00,1.1548
6562.00,1.1502
6561.00,1.1453
6560.00,1.1400
6559.00,1.1340
6558.00,1.1276
6557.00,1.1210
6556.00,1.1141
6555.00,1.1066
6554.00,1.0988
6553.00,1.0907
6552.00,1.0824
6551.00,1.0738
6550.00,1.0651
6549.00,1.0561
6548.00,1.0470
6547.00,1.0375
6546.00,1.0279
6545.00,1.0180
6544.00,1.0081
6543.00,0.9981
6542.00,0.9881
6541.00,0.9778
6540.00,0.9675
6539.00,0.9572
6538.00,0.9470
6537.00,0.9367
6536.00,0.9263
6535.00,0.9158
6534.00,0.9054
6533.00,0.8953
6532.00,0.8852
6531.00,0.8753
6530.00,0.8656
6529.00,0.8562
6528.00,0.8472
6527.00,0.8382
6526.00,0.8292
6525.00,0.8204
6524.00,0.8119
6523.00,0.8036
6522.00,0.7956
6521.00,0.7881
6520.00,0.7810
6519.00,0.7743
6518.00,0.7680
6517.00,0.7621
6516.00,0.7566
6515.00,0.7516
6514.00,0.7472
6513.00,0.7432
6512.00,0.7398
6511.00,0.7368
6510.00,0.7344
6509.00,0.7325
6508.00,0.7311
6507.00,0.7303
6506.00,0.7299
6505.00,0.7301
6504.00,0.7310
6503.00,0.7327
6502.00,0.7351
6501.00,0.7383
6500.00,0.7422
6499.00,0.7466
6498.00,0.7515
6497.00,0.7570
6496.00,0.7627
6495.00,0.7690
6494.00,0.7758
6493.00,0.7834
6492.00,0.7916
6491.00,0.8002
6490.00,0.8090
6489.00,0.8181
6488.00,0.8275
6487.00,0.8372
6486.00,0.8471
6485.00,0.8574
6484.00,0.8681
6483.00,0.8789
6482.00,0.8898
6481.00,0.9009
6480.00,0.9122
6479.00,0.9235
6478.00,0.9349
6477.00,0.9462
6476.00,0.9576
6475.00,0.9689
6474.00,0.9802
6473.00,0.9914
6472.00,1.0025
6471.00,1.0135
6470.00,1.0243
6469.00,1.0349
6468.00,1.0452
6467.00,1.0551
6466.00,1.0649
6465.00,1.0743
6464.00,1.0834
6463.00,1.0921
6462.00,1.1007
6461.00,1.1092
6460.00,1.1172
6459.00,1.1247
6458.00,1.1318
6457.00,1.1389
6456.00,1.1460
6455.00,1.1530
6454.00,1.1594
6453.00,1.1651
6452.00,1.1704
6451.00,1.1753
6450.00,1.1799
6449.00,1.1841
6448.00,1.1877
6447.00,1.1911
6446.00,1.1944
6445.00,1.1976
6444.00,1.2004
6443.00,1.2025
6442.00,1.2039
6441.00,1.2049
6440.00,1.2056
6439.00,1.2061
6438.00,1.2063
6437.00,1.2060
6436.00,1.2055
6435.00,1.2047
6434.00,1.2037
6433.00,1.2022
6432.00,1.2000
6431.00,1.1972
6430.00,1.1942
6429.00,1.1910
6428.00,1.1875
6427.00,1.1836
6426.00,1.1797
6425.00,1.1757
6424.00,1.1712
6423.00,1.1660
6422.00,1.1600
6421.00,1.1538
6420.00,1.1475
6419.00,1.1410
6418.00,1.1341
6417.00,1.1266
6416.00,1.1188
6415.00,1.1106
6414.00,1.1020
6413.00,1.0929
6412.00,1.0833
6411.00,1.0735
6410.00,1.0636
6409.00,1.0537
6408.00,1.0435
6407.00,1.0331
6406.00,1.0226
6405.00,1.0121
6404.00,1.0015
6403.00,0.9907
6402.00,0.9796
6401.00,0.9684
6400.00,0.9570
6399.00,0.9457
6398.00,0.9346
6397.00,0.9235
6396.00,0.9126
6395.00,0.9015
6394.00,0.8904
6393.00,0.8795
6392.00,0.8686
6391.00,0.8580
6390.00,0.8477
6389.00,0.8379
6388.00,0.8285
6387.00,0.8193
6386.00,0.8105
6385.00,0.8020
6384.00,0.7939
6383.00,0.7861
6382.00,0.7787
6381.00,0.7718
6380.00,0.7654
6379.00,0.7597
6378.00,0.7546
6377.00,0.7501
6376.00,0.7461
6375.00,0.7428
6374.00,0.7400
6373.00,0.7377
6372.00,0.7360
6371.00,0.7348
6370.00,0.7343
6369.00,0.7347
6368.00,0.7359
6367.00,0.7377
6366.00,0.7403
6365.00,0.7435
6364.00,0.7473
6363.00,0.7515
6362.00,0.7564
6361.00,0.7618
6360.00,0.7679
6359.00,0.7745
6358.00,0.7818
6357.00,0.7898
6356.00,0.7983
6355.00,0.8072
6354.00,0.8164
6353.00,0.8259
6352.00,0.8358
6351.00,0.8459
6350.00,0.8563
6349.00,0.8671
6348.00,0.8782
6347.00,0.8893
6346.00,0.9006
6345.00,0.9121
6344.00,0.9235
6343.00,0.9349
6342.00,0.9463
6341.00,0.9578
6340.00,0.9695
6339.00,0.9810
6338.00,0.9923
6337.00,1.0034
6336.00,1.0145
6335.00,1.0253
6334.00,1.0360
6333.00,1.0465
6332.00,1.0567
6331.00,1.0664
6330.00,1.0755
6329.00,1.0842
6328.00,1.0929
6327.00,1.1015
6326.00,1.1100
6325.00,1.1184
6324.00,1.1266
6323.00,1.1343
6322.00,1.1414
6321.00,1.1478
6320.00,1.1536
6319.00,1.1589
6318.00,1.1639
6317.00,1.1685
6316.00,1.1729
6315.00,1.1768
6314.00,1.1802
6313.00,1.1831
6312.00,1.1858
6311.00,1.1883
6310.00,1.1906
6309.00,1.1925
6308.00,1.1940
6307.00,1.1952
6306.00,1.1962
6305.00,1.1968
6304.00,1.1971
6303.00,1.1967
6302.00,1.1958
6301.00,1.1946
6300.00,1.1930
6299.00,1.1909
6298.00,1.1882
6297.00,1.1851
6296.00,1.1818
6295.00,1.1783
6294.00,1.1745
6293.00,1.1703
6292.00,1.1655
6291.00,1.1604
6290.00,1.1550
6289.00,1.1493
6288.00,1.1432
6287.00,1.1367
6286.00,1.1299
6285.00,1.1228
6284.00,1.1152
6283.00,1.1072
6282.00,1.0991
6281.00,1.0909
6280.00,1.0824
6279.00,1.0737
6278.00,1.0648
6277.00,1.0555
6276.00,1.0457
6275.00,1.0356
6274.00,1.0252
6273.00,1.0147
6272.00,1.0041
6271.00,0.9932
6270.00,0.9823
6269.00,0.9716
6268.00,0.9609
6267.00,0.9500
6266.00,0.9391
6265.00,0.9281
6264.00,0.9171
6263.00,0.9059
6262.00,0.8946
6261.00,0.8833
6260.00,0.8723
6259.00,0.8615
6258.00,0.8509
6257.00,0.8407
6256.00,0.8306
6255.00,0.8207
6254.00,0.8109
6253.00,0.8016
6252.00,0.7927
6251.00,0.7840
6250.00,0.7757
6249.00,0.7677
6248.00,0.7602
6247.00,0.7531
6246.00,0.7464
6245.00,0.7401
6244.00,0.7342
6243.00,0.7290
6242.00,0.7244
6241.00,0.7205
6240.00,0.7171
6239.00,0.7141
6238.00,0.7117
6237.00,0.7100
6236.00,0.7091
6235.00,0.7089
6234.00,0.7095
6233.00,0.7109
6232.00,0.7128
6231.00,0.7153
6230.00,0.7183
6229.00,0.7219
6228.00,0.7262
6227.00,0.7310
6226.00,0.7366
6225.00,0.7430
6224.00,0.7501
6223.00,0.7578
6222.00,0.7661
6221.00,0.7748
6220.00,0.7840
6219.00,0.7936
6218.00,0.8035
6217.00,0.8138
6216.00,0.8242
6215.00,0.8349
6214.00,0.8459
6213.00,0.8573
6212.00,0.8688
6211.00,0.8803
6210.00,0.8921
6209.00,0.9041
6208.00,0.9164
6207.00,0.9287
6206.00,0.9408
6205.00,0.9528
6204.00,0.9646
6203.00,0.9761
6202.00,0.9873
6201.00,0.9985
6200.00,1.0096
6199.00,1.0208
6198.00,1.0318
6197.00,1.0427
6196.00,1.0532
6195.00,1.0632
6194.00,1.0728
6193.00,1.0821
6192.00,1.0911
6191.00,1.0999
6190.00,1.1086
6189.00,1.1170
6188.00,1.1251
6187.00,1.1327
6186.00,1.1399
6185.00,1.1466
6184.00,1.1528
6183.00,1.1587
6182.00,1.1641
6181.00,1.1693
6180.00,1.1742
6179.00,1.1787
6178.00,1.1828
6177.00,1.1866
6176.00,1.1901
6175.00,1.1932
6174.00,1.1960
6173.00,1.1983
6172.00,1.2002
6171.00,1.2016
6170.00,1.2027
6169.00,1.2036
6168.00,1.2041
6167.00,1.2042
6166.00,1.2038
6165.00,1.2032
6164.00,1.2022
6163.00,1.2004
6162.00,1.1979
6161.00,1.1951
6160.00,1.1924
6159.00,1.1894
6158.00,1.1860
6157.00,1.1822
6156.00,1.1780
6155.00,1.1735
6154.00,1.1689
6153.00,1.1638
6152.00,1.1583
6151.00,1.1523
6150.00,1.1458
6149.00,1.1389
6148.00,1.1317
6147.00,1.1241
6146.00,1.1163
6145.00,1.1084
6144.00,1.1001
6143.00,1.0913
6142.00,1.0820
6141.00,1.0724
6140.00,1.0624
6139.00,1.0521
6138.00,1.0414
6137.00,1.0306
6136.00,1.0196
6135.00,1.0083
6134.00,0.9968
6133.00,0.9852
6132.00,0.9734
6131.00,0.9614
6130.00,0.9490
6129.00,0.9366
6128.00,0.9244
6127.00,0.9125
6126.00,0.9010
6125.00,0.8896
6124.00,0.8782
6123.00,0.8666
6122.00,0.8550
6121.00,0.8435
6120.00,0.8322
6119.00,0.8212
6118.00,0.8106
6117.00,0.8003
6116.00,0.7905
6115.00,0.7810
6114.00,0.7717
6113.00,0.7628
6112.00,0.7544
6111.00,0.7465
6110.00,0.7392
6109.00,0.7325
6108.00,0.7262
6107.00,0.7206
6106.00,0.7158
6105.00,0.7117
6104.00,0.7082
6103.00,0.7054
6102.00,0.7032
6101.00,0.7018
6100.00,0.7010
6099.00,0.7009
6098.00,0.7015
6097.00,0.7030
6096.00,0.7052
6095.00,0.7081
6094.00,0.7118
6093.00,0.7162
6092.00,0.7213
6091.00,0.7270
6090.00,0.7333
6089.00,0.7402
6088.00,0.7476
6087.00,0.7555
6086.00,0.7640
6085.00,0.7730
6084.00,0.7827
6083.00,0.7928
6082.00,0.8035
6081.00,0.8146
6080.00,0.8259
6079.00,0.8372
6078.00,0.8487
6077.00,0.8604
6076.00,0.8723
6075.00,0.8844
6074.00,0.8965
6073.00,0.9087
6072.00,0.9208
6071.00,0.9329
6070.00,0.9448
6069.00,0.9566
6068.00,0.9685
6067.00,0.9804
6066.00,0.9920
6065.00,1.0033
6064.00,1.0143
6063.00,1.0251
6062.00,1.0358
6061.00,1.0464
6060.00,1.0567
6059.00,1.0669
6058.00,1.0768
6057.00,1.0861
6056.00,1.0948
6055.00,1.1029
6054.00,1.1108
6053.00,1.1185
6052.00,1.1257
6051.00,1.1325
6050.00,1.1388
6049.00,1.1450
6048.00,1.1510
6047.00,1.1567
6046.00,1.1620
6045.00,1.1669
6044.00,1.1715
6043.00,1.1755
6042.00,1.1788
6041.00,1.1814
6040.00,1.1838
6039.00,1.1860
6038.00,1.1881
6037.00,1.1899
6036.00,1.1914
6035.00,1.1926
6034.00,1.1936
6033.00,1.1942
6032.00,1.1945
6031.00,1.1942
6030.00,1.1935
6029.00,1.1924
6028.00,1.1910
6027.00,1.1892
6026.00,1.1871
6025.00,1.1847
6024.00,1.1819
6023.00,1.1789
6022.00,1.1754
6021.00,1.1714
6020.00,1.1669
6019.00,1.1621
6018.00,1.1571
6017.00,1.1518
6016.00,1.1460
6015.00,1.1397
6014.00,1.1331
6013.00,1.1262
6012.00,1.1190
6011.00,1.1112
6010.00,1.1029
6009.00,1.0945
6008.00,1.0859
6007.00,1.0767
6006.00,1.0670
6005.00,1.0568
6004.00,1.0463
6003.00,1.0357
6002.00,1.0251
6001.00,1.0144
6000.00,1.0033
5999.00,0.9920
5998.00,0.9804
5997.00,0.9686
5996.00,0.9565
5995.00,0.9443
5994.00,0.9321
5993.00,0.9200
5992.00,0.9079
5991.00,0.8957
5990.00,0.8835
5989.00,0.8714
5988.00,0.8593
5987.00,0.8473
5986.00,0.8355
5985.00,0.8240
5984.00,0.8127
5983.00,0.8016
5982.00,0.7908
5981.00,0.7805
5980.00,0.7706
5979.00,0.7611
5978.00,0.7521
5977.00,0.7436
5976.00,0.7356
5975.00,0.7282
5974.00,0.7214
5973.00,0.7151
5972.00,0.7095
5971.00,0.7047
5970.00,0.7007
5969.00,0.6975
5968.00,0.6950
5967.00,0.6934
5966.00,0.6926
5965.00,0.6928
5964.00,0.6937
5963.00,0.6954
5962.00,0.6979
5961.00,0.7013
5960.00,0.7054
5959.00,0.7102
5958.00,0.7156
5957.00,0.7216
5956.00,0.7283
5955.00,0.7354
5954.00,0.7429
5953.00,0.7507
5952.00,0.7587
5951.00,0.7670
5950.00,0.7754
5949.00,0.7841
5948.00,0.7929
5947.00,0.8020
5946.00,0.8115
5945.00,0.8214
5944.00,0.8317
5943.00,0.8426
5942.00,0.8539
5941.00,0.8654
5940.00,0.8770
5939.00,0.8888
5938.00,0.9008
5937.00,0.9128
5936.00,0.9249
5935.00,0.9371
5934.00,0.9494
5933.00,0.9616
5932.00,0.9736
5931.00,0.9852
5930.00,0.9968
5929.00,1.0084
5928.00,1.0201
5927.00,1.0318
5926.00,1.0433
5925.00,1.0546
5924.00,1.0655
5923.00,1.0758
5922.00,1.0855
5921.00,1.0947
5920.00,1.1036
5919.00,1.1122
5918.00,1.1206
5917.00,1.1288
5916.00,1.1366
5915.00,1.1442
5914.00,1.1515
5913.00,1.1584
5912.00,1.1647
5911.00,1.1704
5910.00,1.1753
5909.00,1.1796
5908.00,1.1836
5907.00,1.1876
5906.00,1.1916
5905.00,1.1955
5904.00,1.1990
5903.00,1.2023
5902.00,1.2052
5901.00,1.2077
5900.00,1.2097
5899.00,1.2111
5898.00,1.2120
5897.00,1.2125
5896.00,1.2122
5895.00,1.2114
5894.00,1.2104
5893.00,1.2092
5892.00,1.2077
5891.00,1.2059
5890.00,1.2034
5889.00,1.2003
5888.00,1.1967
5887.00,1.1928
5886.00,1.1889
5885.00,1.1850
5884.00,1.1808
5883.00,1.1759
5882.00,1.1704
5881.00,1.1642
5880.00,1.1574
5879.00,1.1503
5878.00,1.1431
5877.00,1.1357
5876.00,1.1281
5875.00,1.1199
5874.00,1.1113
5873.00,1.1021
5872.00,1.0924
5871.00,1.0824
5870.00,1.0720
5869.00,1.0614
5868.00,1.0505
5867.00,1.0394
5866.00,1.0283
5865.00,1.0172
5864.00,1.0059
5863.00,0.9944
5862.00,0.9824
5861.00,0.9702
5860.00,0.9576
5859.00,0.9450
5858.00,0.9324
5857.00,0.9200
5856.00,0.9076
5855.00,0.8952
5854.00,0.8827
5853.00,0.8705
5852.00,0.8584
5851.00,0.8465
5850.00,0.8348
5849.00,0.8233
5848.00,0.8121
5847.00,0.8011
5846.00,0.7906
5845.00,0.7806
5844.00,0.7712
5843.00,0.7623
5842.00,0.7538
5841.00,0.7458
5840.00,0.7383
5839.00,0.7313
5838.00,0.7249
5837.00,0.7191
5836.00,0.7140
5835.00,0.7094
5834.00,0.7055
5833.00,0.7023
5832.00,0.6997
5831.00,0.6976
5830.00,0.6961
5829.00,0.6955
5828.00,0.6955
5827.00,0.6963
5826.00,0.6977
5825.00,0.6999
5824.00,0.7028
5823.00,0.7062
5822.00,0.7103
5821.00,0.7152
5820.00,0.7209
5819.00,0.7273
5818.00,0.7344
5817.00,0.7421
5816.00,0.7503
5815.00,0.7589
5814.00,0.7681
5813.00,0.7780
5812.00,0.7884
5811.00,0.7994
5810.00,0.8107
5809.00,0.8224
5808.00,0.8343
5807.00,0.8464
5806.00,0.8586
5805.00,0.8711
5804.00,0.8837
5803.00,0.8965
5802.00,0.9093
5801.00,0.9221
5800.00,0.9349
5799.00,0.9474
5798.00,0.9598
5797.00,0.9723
5796.00,0.9847
5795.00,0.9970
5794.00,1.0090
5793.00,1.0209
5792.00,1.0324
5791.00,1.0436
5790.00,1.0544
5789.00,1.0648
5788.00,1.0750
5787.00,1.0849
5786.00,1.0945
5785.00,1.1038
5784.00,1.1128
5783.00,1.1216
5782.00,1.1301
5781.00,1.1382
5780.00,1.1458
5779.00,1.1528
5778.00,1.1594
5777.00,1.1658
5776.00,1.1718
5775.00,1.1775
5774.00,1.1828
5773.00,1.1879
5772.00,1.1925
5771.00,1.1966
5770.00,1.2002
5769.00,1.2036
5768.00,1.2067
5767.00,1.2095
5766.00,1.2118
5765.00,1.2138
5764.00,1.2154
5763.00,1.2163
5762.00,1.2169
5761.00,1.2171
5760.00,1.2172
5759.00,1.2169
5758.00,1.2160
5757.00,1.2146
5756.00,1.2127
5755.00,1.2104
5754.00,1.2077
5753.00,1.2046
5752.00,1.2013
5751.00,1.1978
5750.00,1.1940
5749.00,1.1898
5748.00,1.1852
5747.00,1.1801
5746.00,1.1744
5745.00,1.1682
5744.00,1.1616
5743.00,1.1544
5742.00,1.1468
5741.00,1.1389
5740.00,1.1307
5739.00,1.1223
5738.00,1.1135
5737.00,1.1045
5736.00,1.0950
5735.00,1.0851
5734.00,1.0750
5733.00,1.0646
5732.00,1.0537
5731.00,1.0423
5730.00,1.0306
5729.00,1.0188
5728.00,1.0068
5727.00,0.9945
5726.00,0.9820
5725.00,0.9693
5724.00,0.9562
5723.00,0.9430
5722.00,0.9297
5721.00,0.9166
5720.00,0.9038
5719.00,0.8909
5718.00,0.8780
5717.00,0.8648
5716.00,0.8515
5715.00,0.8382
5714.00,0.8251
5713.00,0.8125
5712.00,0.8002
5711.00,0.7883
5710.00,0.7768
5709.00,0.7658
5708.00,0.7551
5707.00,0.7449
5706.00,0.7351
5705.00,0.7259
5704.00,0.7171
5703.00,0.7088
5702.00,0.7011
5701.00,0.6942
5700.00,0.6879
5699.00,0.6824
5698.00,0.6775
5697.00,0.6735
5696.00,0.6702
5695.00,0.6677
5694.00,0.6661
5693.00,0.6653
5692.00,0.6653
5691.00,0.6660
5690.00,0.6676
5689.00,0.6702
5688.00,0.6736
5687.00,0.6779
5686.00,0.6831
5685.00,0.6890
5684.00,0.6957
5683.00,0.7031
5682.00,0.7113
5681.00,0.7202
5680.00,0.7298
5679.00,0.7399
5678.00,0.7506
5677.00,0.7617
5676.00,0.7733
5675.00,0.7854
5674.00,0.7979
5673.00,0.8107
5672.00,0.8238
5671.00,0.8371
5670.00,0.8504
5669.00,0.8638
5668.00,0.8774
5667.00,0.8910
5666.00,0.9047
5665.00,0.9184
5664.00,0.9321
5663.00,0.9457
5662.00,0.9591
5661.00,0.9723
5660.00,0.9853
5659.00,0.9982
5658.00,1.0109
5657.00,1.0232
5656.00,1.0352
5655.00,1.0469
5654.00,1.0584
5653.00,1.0696
5652.00,1.0804
5651.00,1.0909
5650.00,1.1012
5649.00,1.1112
5648.00,1.1208
5647.00,1.1301
5646.00,1.1388
5645.00,1.1470
5644.00,1.1547
5643.00,1.1621
5642.00,1.1691
5641.00,1.1757
5640.00,1.1821
5639.00,1.1881
5638.00,1.1938
5637.00,1.1991
5636.00,1.2042
5635.00,1.2088
5634.00,1.2129
5633.00,1.2165
5632.00,1.2196
5631.00,1.2222
5630.00,1.2243
5629.00,1.2260
5628.00,1.2275
5627.00,1.2287
5626.00,1.2295
5625.00,1.2298
5624.00,1.2296
5623.00,1.2291
5622.00,1.2283
5621.00,1.2271
5620.00,1.2254
5619.00,1.2231
5618.00,1.2205
5617.00,1.2174
5616.00,1.2138
5615.00,1.2098
5614.00,1.2056
5613.00,1.2012
5612.00,1.1962
5611.00,1.1907
5610.00,1.1849
5609.00,1.1789
5608.00,1.1726
5607.00,1.1659
5606.00,1.1588
5605.00,1.1514
5604.00,1.1434
5603.00,1.1347
5602.00,1.1254
5601.00,1.1158
5600.00,1.1057
5599.00,1.0953
5598.00,1.0845
5597.00,1.0734
5596.00,1.0622
5595.00,1.0506
5594.00,1.0387
5593.00,1.0264
5592.00,1.0137
5591.00,1.0008
5590.00,0.9875
5589.00,0.9741
5588.00,0.9606
5587.00,0.9469
5586.00,0.9331
5585.00,0.9193
5584.00,0.9053
5583.00,0.8914
5582.00,0.8777
5581.00,0.8641
5580.00,0.8505
5579.00,0.8370
5578.00,0.8238
5577.00,0.8108
5576.00,0.7982
5575.00,0.7860
5574.00,0.7740
5573.00,0.7625
5572.00,0.7514
5571.00,0.7408
5570.00,0.7307
5569.00,0.7212
5568.00,0.7124
5567.00,0.7044
5566.00,0.6971
5565.00,0.6905
5564.00,0.6846
5563.00,0.6795
5562.00,0.6752
5561.00,0.6718
5560.00,0.6692
5559.00,0.6675
5558.00,0.6668
5557.00,0.6670
5556.00,0.6680
5555.00,0.6699
5554.00,0.6726
5553.00,0.6764
5552.00,0.6809
5551.00,0.6863
5550.00,0.6927
5549.00,0.6999
5548.00,0.7080
5547.00,0.7169
5546.00,0.7265
5545.00,0.7366
5544.00,0.7474
5543.00,0.7586
5542.00,0.7705
5541.00,0.7828
5540.00,0.7956
5539.00,0.8086
5538.00,0.8219
5537.00,0.8356
5536.00,0.8496
5535.00,0.8640
5534.00,0.8785
5533.00,0.8933
5532.00,0.9081
5531.00,0.9227
5530.00,0.9370
5529.00,0.9511
5528.00,0.9651
5527.00,0.9789
5526.00,0.9928
5525.00,1.0066
5524.00,1.0203
5523.00,1.0337
5522.00,1.0468
5521.00,1.0594
5520.00,1.0715
5519.00,1.0832
5518.00,1.0946
5517.00,1.1056
5516.00,1.1163
5515.00,1.1267
5514.00,1.1370
5513.00,1.1469
5512.00,1.1563
5511.00,1.1651
5510.00,1.1733
5509.00,1.1811
5508.00,1.1887
5507.00,1.1961
5506.00,1.2031
5505.00,1.2097
5504.00,1.2156
5503.00,1.2207
5502.00,1.2253
5501.00,1.2296
5500.00,1.2337
5499.00,1.2376
5498.00,1.2413
5497.00,1.2446
5496.00,1.2474
5495.00,1.2496
5494.00,1.2512
5493.00,1.2526
5492.00,1.2536
5491.00,1.2543
5490.00,1.2544
5489.00,1.2541
5488.00,1.2532
5487.00,1.2517
5486.00,1.2497
5485.00,1.2475
5484.00,1.2453
5483.00,1.2430
5482.00,1.2404
5481.00,1.2375
5480.00,1.2339
5479.00,1.2295
5478.00,1.2245
5477.00,1.2190
5476.00,1.2130
5475.00,1.2068
5474.00,1.2002
5473.00,1.1932
5472.00,1.1859
5471.00,1.1780
5470.00,1.1697
5469.00,1.1610
5468.00,1.1519
5467.00,1.1425
5466.00,1.1327
5465.00,1.1224
5464.00,1.1119
5463.00,1.1010
5462.00,1.0898
5461.00,1.0781
5460.00,1.0659
5459.00,1.0532
5458.00,1.0403
5457.00,1.0271
5456.00,1.0136
5455.00,0.9997
5454.00,0.9857
5453.00,0.9717
5452.00,0.9576
5451.00,0.9431
5450.00,0.9283
5449.00,0.9134
5448.00,0.8983
5447.00,0.8833
5446.00,0.8684
5445.00,0.8538
5444.00,0.8396
5443.00,0.8255
5442.00,0.8115
5441.00,0.7977
5440.00,0.7843
5439.00,0.7715
5438.00,0.7592
5437.00,0.7474
5436.00,0.7361
5435.00,0.7253
5434.00,0.7152
5433.00,0.7060
5432.00,0.6974
5431.00,0.6894
5430.00,0.6822
5429.00,0.6759
5428.00,0.6704
5427.00,0.6659
5426.00,0.6623
5425.00,0.6597
5424.00,0.6579
5423.00,0.6572
5422.00,0.6574
5421.00,0.6587
5420.00,0.6608
5419.00,0.6639
5418.00,0.6678
5417.00,0.6725
5416.00,0.6780
5415.00,0.6845
5414.00,0.6918
5413.00,0.7002
5412.00,0.7094
5411.00,0.7193
5410.00,0.7300
5409.00,0.7413
5408.00,0.7534
5407.00,0.7662
5406.00,0.7794
5405.00,0.7930
5404.00,0.8070
5403.00,0.8213
5402.00,0.8359
5401.00,0.8507
5400.00,0.8656
5399.00,0.8806
5398.00,0.8957
5397.00,0.9108
5396.00,0.9259
5395.00,0.9410
5394.00,0.9561
5393.00,0.9714
5392.00,0.9866
5391.00,1.0014
5390.00,1.0158
5389.00,1.0297
5388.00,1.0432
5387.00,1.0565
5386.00,1.0698
5385.00,1.0828
5384.00,1.0956
5383.00,1.1080
5382.00,1.1201
5381.00,1.1318
5380.00,1.1430
5379.00,1.1536
5378.00,1.1637
5377.00,1.1733
5376.00,1.1825
5375.00,1.1913
5374.00,1.1997
5373.00,1.2079
5372.00,1.2157
5371.00,1.2231
5370.00,1.2300
5369.00,1.2364
5368.00,1.2422
5367.00,1.2476
5366.00,1.2528
5365.00,1.2575
5364.00,1.2619
5363.00,1.2656
5362.00,1.2689
5361.00,1.2718
5360.00,1.2744
5359.00,1.2766
5358.00,1.2785
5357.00,1.2799
5356.00,1.2809
5355.00,1.2813
5354.00,1.2813
5353.00,1.2810
5352.00,1.2804
5351.00,1.2794
5350.00,1.2779
5349.00,1.2759
5348.00,1.2736
5347.00,1.2710
5346.00,1.2680
5345.00,1.2646
5344.00,1.2606
5343.00,1.2561
5342.00,1.2511
5341.00,1.2456
5340.00,1.2397
5339.00,1.2333
5338.00,1.2265
5337.00,1.2194
5336.00,1.2120
5335.00,1.2044
5334.00,1.1963
5333.00,1.1879
5332.00,1.1790
5331.00,1.1697
5330.00,1.1597
5329.00,1.1491
5328.00,1.1380
5327.00,1.1265
5326.00,1.1147
5325.00,1.1025
5324.00,1.0899
5323.00,1.0769
5322.00,1.0637
5321.00,1.0502
5320.00,1.0364
5319.00,1.0224
5318.00,1.0080
5317.00,0.9932
5316.00,0.9783
5315.00,0.9633
5314.00,0.9483
5313.00,0.9334
5312.00,0.9185
5311.00,0.9035
5310.00,0.8886
5309.00,0.8737
5308.00,0.8588
5307.00,0.8441
5306.00,0.8297
5305.00,0.8158
5304.00,0.8024
5303.00,0.7895
5302.00,0.7771
5301.00,0.7653
5300.00,0.7541
5299.00,0.7434
5298.00,0.7334
5297.00,0.7240
5296.00,0.7154
5295.00,0.7077
5294.00,0.7009
5293.00,0.6950
5292.00,0.6900
5291.00,0.6858
5290.00,0.6826
5289.00,0.6802
5288.00,0.6787
5287.00,0.6781
5286.00,0.6786
5285.00,0.6803
5284.00,0.6832
5283.00,0.6872
5282.00,0.6922
5281.00,0.6981
5280.00,0.7048
5279.00,0.7124
5278.00,0.7210
5277.00,0.7304
5276.00,0.7407
5275.00,0.7516
5274.00,0.7633
5273.00,0.7756
5272.00,0.7885
5271.00,0.8020
5270.00,0.8159
5269.00,0.8303
5268.00,0.8450
5267.00,0.8600
5266.00,0.8751
5265.00,0.8906
5264.00,0.9064
5263.00,0.9225
5262.00,0.9386
5261.00,0.9545
5260.00,0.9701
5259.00,0.9854
5258.00,1.0005
5257.00,1.0154
5256.00,1.0302
5255.00,1.0450
5254.00,1.0595
5253.00,1.0736
5252.00,1.0871
5251.00,1.1003
5250.00,1.1132
5249.00,1.1260
5248.00,1.1386
5247.00,1.1506
5246.00,1.1621
5245.00,1.1730
5244.00,1.1833
5243.00,1.1934
5242.00,1.2031
5241.00,1.2124
5240.00,1.2211
5239.00,1.2295
5238.00,1.2376
5237.00,1.2454
5236.00,1.2528
5235.00,1.2597
5234.00,1.2661
5233.00,1.2721
5232.00,1.2776
5231.00,1.2828
5230.00,1.2876
5229.00,1.2920
5228.00,1.2956
5227.00,1.2986
5226.00,1.3012
5225.00,1.3035
5224.00,1.3057
5223.00,1.3078
5222.00,1.3095
5221.00,1.3109
5220.00,1.3117
5219.00,1.3121
5218.00,1.3121
5217.00,1.3117
5216.00,1.3106
5215.00,1.3089
5214.00,1.3066
5213.00,1.3040
5212.00,1.3011
5211.00,1.2979
5210.00,1.2945
5209.00,1.2906
5208.00,1.2862
5207.00,1.2810
5206.00,1.2752
5205.00,1.2687
5204.00,1.2619
5203.00,1.2548
5202.00,1.2475
5201.00,1.2402
5200.00,1.2326
5199.00,1.2248
5198.00,1.2165
5197.00,1.2077
5196.00,1.1984
5195.00,1.1886
5194.00,1.1783
5193.00,1.1676
5192.00,1.1563
5191.00,1.1445
5190.00,1.1322
5189.00,1.1194
5188.00,1.1061
5187.00,1.0922
5186.00,1.0778
5185.00,1.0630
5184.00,1.0480
5183.00,1.0326
5182.00,1.0171
5181.00,1.0013
5180.00,0.9854
5179.00,0.9692
5178.00,0.9530
5177.00,0.9367
5176.00,0.9204
5175.00,0.9042
5174.00,0.8881
5173.00,0.8722
5172.00,0.8566
5171.00,0.8411
5170.00,0.8260
5169.00,0.8112
5168.00,0.7970
5167.00,0.7833
5166.00,0.7702
5165.00,0.7577
5164.00,0.7458
5163.00,0.7346
5162.00,0.7242
5161.00,0.7146
5160.00,0.7059
5159.00,0.6981
5158.00,0.6912
5157.00,0.6852
5156.00,0.6802
5155.00,0.6761
5154.00,0.6731
5153.00,0.6712
5152.00,0.6704
5151.00,0.6706
5150.00,0.6720
5149.00,0.6744
5148.00,0.6779
5147.00,0.6824
5146.00,0.6879
5145.00,0.6945
5144.00,0.7020
5143.00,0.7105
5142.00,0.7200
5141.00,0.7305
5140.00,0.7419
5139.00,0.7540
5138.00,0.7669
5137.00,0.7804
5136.00,0.7945
5135.00,0.8092
5134.00,0.8243
5133.00,0.8399
5132.00,0.8557
5131.00,0.8718
5130.00,0.8881
5129.00,0.9046
5128.00,0.9213
5127.00,0.9380
5126.00,0.9547
5125.00,0.9713
5124.00,0.9878
5123.00,1.0041
5122.00,1.0203
5121.00,1.0364
5120.00,1.0522
5119.00,1.0677
5118.00,1.0828
5117.00,1.0976
5116.00,1.1119
5115.00,1.1259
5114.00,1.1394
5113.00,1.1524
5112.00,1.1650
5111.00,1.1771
5110.00,1.1890
5109.00,1.2005
5108.00,1.2118
5107.00,1.2226
5106.00,1.2328
5105.00,1.2423
5104.00,1.2512
5103.00,1.2596
5102.00,1.2677
5101.00,1.2755
5100.00,1.2830
5099.00,1.2902
5098.00,1.2971
5097.00,1.3035
5096.00,1.3094
5095.00,1.3149
5094.00,1.3198
5093.00,1.3241
5092.00,1.3278
5091.00,1.3310
5090.00,1.3337
5089.00,1.3360
5088.00,1.3380
5087.00,1.3397
5086.00,1.3412
5085.00,1.3425
5084.00,1.3433
5083.00,1.3437
5082.00,1.3435
5081.00,1.3428
5080.00,1.3414
5079.00,1.3395
5078.00,1.3374
5077.00,1.3349
5076.00,1.3321
5075.00,1.3289
5074.00,1.3254
5073.00,1.3215
5072.00,1.3170
5071.00,1.3120
5070.00,1.3064
5069.00,1.3004
5068.00,1.2939
5067.00,1.2869
5066.00,1.2795
5065.00,1.2718
5064.00,1.2638
5063.00,1.2553
5062.00,1.2464
5061.00,1.2369
5060.00,1.2267
5059.00,1.2160
5058.00,1.2047
5057.00,1.1929
5056.00,1.1808
5055.00,1.1683
5054.00,1.1554
5053.00,1.1422
5052.00,1.1285
5051.00,1.1143
5050.00,1.0997
5049.00,1.0846
5048.00,1.0691
5047.00,1.0535
5046.00,1.0376
5045.00,1.0215
5044.00,1.0051
5043.00,0.9884
5042.00,0.9716
5041.00,0.9547
5040.00,0.9380
5039.00,0.9213
5038.00,0.9048
5037.00,0.8884
5036.00,0.8722
5035.00,0.8562
5034.00,0.8406
5033.00,0.8254
5032.00,0.8106
5031.00,0.7963
5030.00,0.7826
5029.00,0.7695
5028.00,0.7572
5027.00,0.7457
5026.00,0.7350
5025.00,0.7252
5024.00,0.7163
5023.00,0.7083
5022.00,0.7013
5021.00,0.6954
5020.00,0.6905
5019.00,0.6867
5018.00,0.6841
5017.00,0.6826
5016.00,0.6823
5015.00,0.6833
5014.00,0.6854
5013.00,0.6888
5012.00,0.6932
5011.00,0.6989
5010.00,0.7056
5009.00,0.7135
5008.00,0.7225
5007.00,0.7325
5006.00,0.7434
5005.00,0.7552
5004.00,0.7679
5003.00,0.7815
5002.00,0.7958
5001.00,0.8108
5000.00,0.8263
4999.00,0.8421
4998.00,0.8582
4997.00,0.8747
4996.00,0.8913
4995.00,0.9082
4994.00,0.9252
4993.00,0.9423
4992.00,0.9593
4991.00,0.9764
4990.00,0.9935
4989.00,1.0106
4988.00,1.0275
4987.00,1.0441
4986.00,1.0605
4985.00,1.0766
4984.00,1.0924
4983.00,1.1079
4982.00,1.1232
4981.00,1.1381
4980.00,1.1525
4979.00,1.1666
4978.00,1.1803
4977.00,1.1938
4976.00,1.2070
4975.00,1.2197
4974.00,1.2318
4973.00,1.2431
4972.00,1.2538
4971.00,1.2637
4970.00,1.2732
4969.00,1.2823
4968.00,1.2908
4967.00,1.2987
4966.00,1.3063
4965.00,1.3137
4964.00,1.3208
4963.00,1.3276
4962.00,1.3340
4961.00,1.3399
4960.00,1.3451
4959.00,1.3497
4958.00,1.3540
4957.00,1.3578
4956.00,1.3614
4955.00,1.3645
4954.00,1.3672
4953.00,1.3695
4952.00,1.3714
4951.00,1.3728
4950.00,1.3737
4949.00,1.3742
4948.00,1.3741
4947.00,1.3736
4946.00,1.3726
4945.00,1.3712
4944.00,1.3696
4943.00,1.3676
4942.00,1.3654
4941.00,1.3629
4940.00,1.3599
4939.00,1.3563
4938.00,1.3519
4937.00,1.3469
4936.00,1.3413
4935.00,1.3352
4934.00,1.3289
4933.00,1.3223
4932.00,1.3155
4931.00,1.3082
4930.00,1.3003
4929.00,1.2918
4928.00,1.2827
4927.00,1.2730
4926.00,1.2627
4925.00,1.2519
4924.00,1.2407
4923.00,1.2292
4922.00,1.2174
4921.00,1.2052
4920.00,1.1925
4919.00,1.1792
4918.00,1.1652
4917.00,1.1507
4916.00,1.1357
4915.00,1.1203
4914.00,1.1046
4913.00,1.0885
4912.00,1.0722
4911.00,1.0554
4910.00,1.0383
4909.00,1.0209
4908.00,1.0034
4907.00,0.9859
4906.00,0.9684
4905.00,0.9510
4904.00,0.9335
4903.00,0.9160
4902.00,0.8986
4901.00,0.8814
4900.00,0.8646
4899.00,0.8483
4898.00,0.8325
4897.00,0.8172
4896.00,0.8023
4895.00,0.7880
4894.00,0.7743
4893.00,0.7613
4892.00,0.7491
4891.00,0.7378
4890.00,0.7274
4889.00,0.7179
4888.00,0.7093
4887.00,0.7018
4886.00,0.6954
4885.00,0.6901
4884.00,0.6861
4883.00,0.6832
4882.00,0.6815
4881.00,0.6810
4880.00,0.6818
4879.00,0.6838
4878.00,0.6871
4877.00,0.6917
4876.00,0.6975
4875.00,0.7044
4874.00,0.7126
4873.00,0.7219
4872.00,0.7324
4871.00,0.7438
4870.00,0.7563
4869.00,0.7697
4868.00,0.7839
4867.00,0.7988
4866.00,0.8145
4865.00,0.8309
4864.00,0.8478
4863.00,0.8652
4862.00,0.8830
4861.00,0.9011
4860.00,0.9194
4859.00,0.9378
4858.00,0.9563
4857.00,0.9749
4856.00,0.9934
4855.00,1.0118
4854.00,1.0301
4853.00,1.0481
4852.00,1.0658
4851.00,1.0831
4850.00,1.1001
4849.00,1.1168
4848.00,1.1332
4847.00,1.1492
4846.00,1.1648
4845.00,1.1799
4844.00,1.1945
4843.00,1.2088
4842.00,1.2227
4841.00,1.2361
4840.00,1.2490
4839.00,1.2612
4838.00,1.2728
4837.00,1.2837
4836.00,1.2941
4835.00,1.3042
4834.00,1.3141
4833.00,1.3237
4832.00,1.3328
4831.00,1.3413
4830.00,1.3493
4829.00,1.3567
4828.00,1.3637
4827.00,1.3701
4826.00,1.3760
4825.00,1.3812
4824.00,1.3860
4823.00,1.3905
4822.00,1.3948
4821.00,1.3987
4820.00,1.4022
4819.00,1.4052
4818.00,1.4077
4817.00,1.4098
4816.00,1.4115
4815.00,1.4128
4814.00,1.4137
4813.00,1.4142
4812.00,1.4142
4811.00,1.4138
4810.00,1.4128
4809.00,1.4113
4808.00,1.4092
4807.00,1.4066
4806.00,1.4037
4805.00,1.4006
4804.00,1.3970
4803.00,1.3930
4802.00,1.3885
4801.00,1.3833
4800.00,1.3775
4799.00,1.3713
4798.00,1.3649
4797.00,1.3582
4796.00,1.3511
4795.00,1.3435
4794.00,1.3354
4793.00,1.3267
4792.00,1.3173
4791.00,1.3074
4790.00,1.2969
4789.00,1.2859
4788.00,1.2744
4787.00,1.2625
4786.00,1.2502
4785.00,1.2374
4784.00,1.2240
4783.00,1.2099
4782.00,1.1952
4781.00,1.1801
4780.00,1.1646
4779.00,1.1488
4778.00,1.1325
4777.00,1.1158
4776.00,1.0986
4775.00,1.0811
4774.00,1.0633
4773.00,1.0454
4772.00,1.0272
4771.00,1.0088
4770.00,0.9902
4769.00,0.9715
4768.00,0.9527
4767.00,0.9341
4766.00,0.9157
4765.00,0.8977
4764.00,0.8799
4763.00,0.8624
4762.00,0.8454
4761.00,0.8290
4760.00,0.8131
4759.00,0.7979
4758.00,0.7835
4757.00,0.7699
4756.00,0.7571
4755.00,0.7454
4754.00,0.7347
4753.00,0.7251
4752.00,0.7167
4751.00,0.7093
4750.00,0.7032
4749.00,0.6983
4748.00,0.6947
4747.00,0.6925
4746.00,0.6916
4745.00,0.6920
4744.00,0.6938
4743.00,0.6969
4742.00,0.7015
4741.00,0.7075
4740.00,0.7148
4739.00,0.7234
4738.00,0.7333
4737.00,0.7444
4736.00,0.7565
4735.00,0.7698
4734.00,0.7840
4733.00,0.7991
4732.00,0.8150
4731.00,0.8317
4730.00,0.8490
4729.00,0.8669
4728.00,0.8853
4727.00,0.9042
4726.00,0.9233
4725.00,0.9427
4724.00,0.9622
4723.00,0.9816
4722.00,1.0011
4721.00,1.0205
4720.00,1.0396
4719.00,1.0587
4718.00,1.0775
4717.00,1.0961
4716.00,1.1143
4715.00,1.1321
4714.00,1.1495
4713.00,1.1664
4712.00,1.1830
4711.00,1.1993
4710.00,1.2150
4709.00,1.2302
4708.00,1.2447
4707.00,1.2586
4706.00,1.2721
4705.00,1.2852
4704.00,1.2979
4703.00,1.3101
4702.00,1.3215
4701.00,1.3323
4700.00,1.3425
4699.00,1.3522
4698.00,1.3616
4697.00,1.3705
4696.00,1.3791
4695.00,1.3872
4694.00,1.3947
4693.00,1.4017
4692.00,1.4081
4691.00,1.4141
4690.00,1.4197
4689.00,1.4249
4688.00,1.4296
4687.00,1.4338
4686.00,1.4376
4685.00,1.4410
4684.00,1.4439
4683.00,1.4463
4682.00,1.4480
4681.00,1.4491
4680.00,1.4496
4679.00,1.4497
4678.00,1.4497
4677.00,1.4495
4676.00,1.4491
4675.00,1.4484
4674.00,1.4473
4673.00,1.4457
4672.00,1.4433
4671.00,1.4403
4670.00,1.4369
4669.00,1.4330
4668.00,1.4288
4667.00,1.4239
4666.00,1.4182
4665.00,1.4119
4664.00,1.4053
4663.00,1.3986
4662.00,1.3919
4661.00,1.3848
4660.00,1.3768
4659.00,1.3679
4658.00,1.3582
4657.00,1.3482
4656.00,1.3379
4655.00,1.3272
4654.00,1.3159
4653.00,1.3040
4652.00,1.2915
4651.00,1.2786
4650.00,1.2653
4649.00,1.2514
4648.00,1.2369
4647.00,1.2218
4646.00,1.2062
4645.00,1.1901
4644.00,1.1736
4643.00,1.1567
4642.00,1.1393
4641.00,1.1216
4640.00,1.1036
4639.00,1.0853
4638.00,1.0668
4637.00,1.0480
4636.00,1.0291
4635.00,1.0100
4634.00,0.9909
4633.00,0.9719
4632.00,0.9530
4631.00,0.9341
4630.00,0.9154
4629.00,0.8970
4628.00,0.8788
4627.00,0.8611
4626.00,0.8439
4625.00,0.8274
4624.00,0.8115
4623.00,0.7964
4622.00,0.7821
4621.00,0.7687
4620.00,0.7563
4619.00,0.7450
4618.00,0.7349
4617.00,0.7260
4616.00,0.7183
4615.00,0.7119
4614.00,0.7069
4613.00,0.7032
4612.00,0.7010
4611.00,0.7002
4610.00,0.7009
4609.00,0.7031
4608.00,0.7068
4607.00,0.7119
4606.00,0.7184
4605.00,0.7265
4604.00,0.7359
4603.00,0.7467
4602.00,0.7588
4601.00,0.7721
4600.00,0.7864
4599.00,0.8018
4598.00,0.8181
4597.00,0.8353
4596.00,0.8533
4595.00,0.8718
4594.00,0.8910
4593.00,0.9105
4592.00,0.9305
4591.00,0.9509
4590.00,0.9714
4589.00,0.9920
4588.00,1.0126
4587.00,1.0330
4586.00,1.0533
4585.00,1.0736
4584.00,1.0936
4583.00,1.1133
4582.00,1.1326
4581.00,1.1514
4580.00,1.1697
4579.00,1.1876
4578.00,1.2049
4577.00,1.2216
4576.00,1.2379
4575.00,1.2538
4574.00,1.2693
4573.00,1.2841
4572.00,1.2985
4571.00,1.3123
4570.00,1.3256
4569.00,1.3384
4568.00,1.3507
4567.00,1.3625
4566.00,1.3736
4565.00,1.3843
4564.00,1.3946
4563.00,1.4043
4562.00,1.4135
4561.00,1.4221
4560.00,1.4301
4559.00,1.4375
4558.00,1.4443
4557.00,1.4506
4556.00,1.4566
4555.00,1.4622
4554.00,1.4677
4553.00,1.4727
4552.00,1.4773
4551.00,1.4812
4550.00,1.4847
4549.00,1.4877
4548.00,1.4904
4547.00,1.4927
4546.00,1.4944
4545.00,1.4954
4544.00,1.4959
4543.00,1.4959
4542.00,1.4955
4541.00,1.4948
4540.00,1.4937
4539.00,1.4920
4538.00,1.4898
4537.00,1.4872
4536.00,1.4843
4535.00,1.4813
4534.00,1.4779
4533.00,1.4739
4532.00,1.4692
4531.00,1.4640
4530.00,1.4583
4529.00,1.4521
4528.00,1.4454
4527.00,1.4383
4526.00,1.4306
4525.00,1.4224
4524.00,1.4137
4523.00,1.4045
4522.00,1.3948
4521.00,1.3844
4520.00,1.3735
4519.00,1.3619
4518.00,1.3499
4517.00,1.3375
4516.00,1.3245
4515.00,1.3110
4514.00,1.2970
4513.00,1.2823
4512.00,1.2670
4511.00,1.2511
4510.00,1.2346
4509.00,1.2177
4508.00,1.2003
4507.00,1.1823
4506.00,1.1639
4505.00,1.1451
4504.00,1.1257
4503.00,1.1060
4502.00,1.0861
4501.00,1.0660
4500.00,1.0457
4499.00,1.0254
4498.00,1.0052
4497.00,0.9851
4496.00,0.9651
4495.00,0.9454
4494.00,0.9261
4493.00,0.9073
4492.00,0.8891
4491.00,0.8716
4490.00,0.8549
4489.00,0.8390
4488.00,0.8241
4487.00,0.8102
4486.00,0.7974
4485.00,0.7856
4484.00,0.7751
4483.00,0.7658
4482.00,0.7580
4481.00,0.7515
4480.00,0.7465
4479.00,0.7429
4478.00,0.7409
4477.00,0.7404
4476.00,0.7416
4475.00,0.7444
4474.00,0.7487
4473.00,0.7547
4472.00,0.7622
4471.00,0.7713
4470.00,0.7818
4469.00,0.7938
4468.00,0.8072
4467.00,0.8218
4466.00,0.8376
4465.00,0.8546
4464.00,0.8725
4463.00,0.8913
4462.00,0.9109
4461.00,0.9310
4460.00,0.9517
4459.00,0.9728
4458.00,0.9942
4457.00,1.0159
4456.00,1.0376
4455.00,1.0594
4454.00,1.0812
4453.00,1.1028
4452.00,1.1243
4451.00,1.1453
4450.00,1.1659
4449.00,1.1860
4448.00,1.2056
4447.00,1.2247
4446.00,1.2431
4445.00,1.2610
4444.00,1.2781
4443.00,1.2946
4442.00,1.3105
4441.00,1.3254
4440.00,1.3394
4439.00,1.3525
4438.00,1.3647
4437.00,1.3764
4436.00,1.3877
4435.00,1.3986
4434.00,1.4089
4433.00,1.4186
4432.00,1.4275
4431.00,1.4361
4430.00,1.4445
4429.00,1.4530
4428.00,1.4613
4427.00,1.4694
4426.00,1.4771
4425.00,1.4844
4424.00,1.4914
4423.00,1.4981
4422.00,1.5045
4421.00,1.5105
4420.00,1.5160
4419.00,1.5212
4418.00,1.5260
4417.00,1.5304
4416.00,1.5344
4415.00,1.5379
4414.00,1.5410
4413.00,1.5438
4412.00,1.5462
4411.00,1.5483
4410.00,1.5501
4409.00,1.5517
4408.00,1.5529
4407.00,1.5535
4406.00,1.5532
4405.00,1.5522
4404.00,1.5505
4403.00,1.5486
4402.00,1.5467
4401.00,1.5450
4400.00,1.5430
4399.00,1.5405
4398.00,1.5374
4397.00,1.5335
4396.00,1.5291
4395.00,1.5241
4394.00,1.5187
4393.00,1.5129
4392.00,1.5066
4391.00,1.4997
4390.00,1.4923
4389.00,1.4844
4388.00,1.4758
4387.00,1.4667
4386.00,1.4571
4385.00,1.4470
4384.00,1.4365
4383.00,1.4256
4382.00,1.4144
4381.00,1.4029
4380.00,1.3911
4379.00,1.3790
4378.00,1.3664
4377.00,1.3534
4376.00,1.3401
4375.00,1.3266
4374.00,1.3131
4373.00,1.2994
4372.00,1.2855
4371.00,1.2714
4370.00,1.2570
4369.00,1.2423
4368.00,1.2274
4367.00,1.2123
4366.00,1.1970
4365.00,1.1813
4364.00,1.1651
4363.00,1.1483
4362.00,1.1309
4361.00,1.1128
4360.00,1.0941
4359.00,1.0748
4358.00,1.0550
4357.00,1.0349
4356.00,1.0145
4355.00,0.9941
4354.00,0.9736
4353.00,0.9534
4352.00,0.9336
4351.00,0.9142
4350.00,0.8956
4349.00,0.8779
4348.00,0.8611
4347.00,0.8454
4346.00,0.8310
4345.00,0.8179
4344.00,0.8062
4343.00,0.7961
4342.00,0.7877
4341.00,0.7809
4340.00,0.7759
4339.00,0.7726
4338.00,0.7711
4337.00,0.7715
4336.00,0.7738
4335.00,0.7779
4334.00,0.7840
4333.00,0.7919
4332.00,0.8014
4331.00,0.8127
4330.00,0.8255
4329.00,0.8399
4328.00,0.8558
4327.00,0.8728
4326.00,0.8910
4325.00,0.9101
4324.00,0.9299
4323.00,0.9502
4322.00,0.9709
4321.00,0.9916
4320.00,1.0124
4319.00,1.0333
4318.00,1.0541
4317.00,1.0748
4316.00,1.0954
4315.00,1.1159
4314.00,1.1363
4313.00,1.1565
4312.00,1.1766
4311.00,1.1964
4310.00,1.2159
4309.00,1.2351
4308.00,1.2540
4307.00,1.2727
4306.00,1.2910
4305.00,1.3089
4304.00,1.3262
4303.00,1.3428
4302.00,1.3587
4301.00,1.3740
4300.00,1.3887
4299.00,1.4029
4298.00,1.4167
4297.00,1.4301
4296.00,1.4429
4295.00,1.4553
4294.00,1.4672
4293.00,1.4783
4292.00,1.4887
4291.00,1.4983
4290.00,1.5075
4289.00,1.5164
4288.00,1.5249
4287.00,1.5329
4286.00,1.5403
4285.00,1.5471
4284.00,1.5532
4283.00,1.5589
4282.00,1.5640
4281.00,1.5686
4280.00,1.5728
4279.00,1.5767
4278.00,1.5802
4277.00,1.5832
4276.00,1.5856
4275.00,1.5874
4274.00,1.5888
4273.00,1.5900
4272.00,1.5909
4271.00,1.5913
4270.00,1.5912
4269.00,1.5904
4268.00,1.5891
4267.00,1.5875
4266.00,1.5857
4265.00,1.5838
4264.00,1.5812
4263.00,1.5779
4262.00,1.5737
4261.00,1.5688
4260.00,1.5637
4259.00,1.5585
4258.00,1.5528
4257.00,1.5466
4256.00,1.5396
4255.00,1.5319
4254.00,1.5238
4253.00,1.5154
4252.00,1.5067
4251.00,1.4975
4250.00,1.4878
4249.00,1.4774
4248.00,1.4662
4247.00,1.4543
4246.00,1.4418
4245.00,1.4288
4244.00,1.4151
4243.00,1.4009
4242.00,1.3861
4241.00,1.3708
4240.00,1.3548
4239.00,1.3380
4238.00,1.3206
4237.00,1.3024
4236.00,1.2835
4235.00,1.2641
4234.00,1.2441
4233.00,1.2235
4232.00,1.2025
4231.00,1.1809
4230.00,1.1587
4229.00,1.1361
4228.00,1.1132
4227.00,1.0900
4226.00,1.0669
4225.00,1.0438
4224.00,1.0207
4223.00,0.9978
4222.00,0.9752
4221.00,0.9530
4220.00,0.9313
4219.00,0.9102
4218.00,0.8899
4217.00,0.8704
4216.00,0.8519
4215.00,0.8345
4214.00,0.8182
4213.00,0.8032
4212.00,0.7897
4211.00,0.7775
4210.00,0.7670
4209.00,0.7580
4208.00,0.7507
4207.00,0.7451
4206.00,0.7415
4205.00,0.7397
4204.00,0.7397
4203.00,0.7417
4202.00,0.7456
4201.00,0.7514
4200.00,0.7592
4199.00,0.7688
4198.00,0.7802
4197.00,0.7934
4196.00,0.8081
4195.00,0.8244
4194.00,0.8420
4193.00,0.8610
4192.00,0.8812
4191.00,0.9023
4190.00,0.9244
4189.00,0.9470
4188.00,0.9703
4187.00,0.9939
4186.00,1.0178
4185.00,1.0418
4184.00,1.0660
4183.00,1.0901
4182.00,1.1142
4181.00,1.1381
4180.00,1.1617
4179.00,1.1849
4178.00,1.2076
4177.00,1.2298
4176.00,1.2516
4175.00,1.2728
4174.00,1.2933
4173.00,1.3131
4172.00,1.3322
4171.00,1.3508
4170.00,1.3688
4169.00,1.3863
4168.00,1.4032
4167.00,1.4194
4166.00,1.4349
4165.00,1.4498
4164.00,1.4639
4163.00,1.4772
4162.00,1.4898
4161.00,1.5018
4160.00,1.5134
4159.00,1.5248
4158.00,1.5359
4157.00,1.5465
4156.00,1.5564
4155.00,1.5655
4154.00,1.5738
4153.00,1.5817
4152.00,1.5891
4151.00,1.5960
4150.00,1.6024
4149.00,1.6084
4148.00,1.6139
4147.00,1.6190
4146.00,1.6236
4145.00,1.6277
4144.00,1.6312
4143.00,1.6344
4142.00,1.6371
4141.00,1.6393
4140.00,1.6409
4139.00,1.6420
4138.00,1.6426
4137.00,1.6429
4136.00,1.6429
4135.00,1.6426
4134.00,1.6419
4133.00,1.6407
4132.00,1.6389
4131.00,1.6364
4130.00,1.6334
4129.00,1.6298
4128.00,1.6257
4127.00,1.6212
4126.00,1.6163
4125.00,1.6111
4124.00,1.6057
4123.00,1.5999
4122.00,1.5934
4121.00,1.5862
4120.00,1.5782
4119.00,1.5697
4118.00,1.5608
4117.00,1.5515
4116.00,1.5419
4115.00,1.5316
4114.00,1.5209
4113.00,1.5094
4112.00,1.4972
4111.00,1.4842
4110.00,1.4705
4109.00,1.4561
4108.00,1.4410
4107.00,1.4253
4106.00,1.4089
4105.00,1.3920
4104.00,1.3746
4103.00,1.3566
4102.00,1.3378
4101.00,1.3182
4100.00,1.2978
4099.00,1.2767
4098.00,1.2551
4097.00,1.2330
4096.00,1.2104
4095.00,1.1872
4094.00,1.1636
4093.00,1.1395
4092.00,1.1152
4091.00,1.0909
4090.00,1.0666
4089.00,1.0425
4088.00,1.0186
4087.00,0.9952
4086.00,0.9723
4085.00,0.9500
4084.00,0.9286
4083.00,0.9081
4082.00,0.8886
4081.00,0.8703
4080.00,0.8532
4079.00,0.8375
4078.00,0.8232
4077.00,0.8105
4076.00,0.7993
4075.00,0.7898
4074.00,0.7819
4073.00,0.7759
4072.00,0.7717
4071.00,0.7694
4070.00,0.7690
4069.00,0.7707
4068.00,0.7743
4067.00,0.7799
4066.00,0.7875
4065.00,0.7970
4064.00,0.8084
4063.00,0.8216
4062.00,0.8366
4061.00,0.8531
4060.00,0.8712
4059.00,0.8906
4058.00,0.9113
4057.00,0.9331
4056.00,0.9558
4055.00,0.9793
4054.00,1.0035
4053.00,1.0282
4052.00,1.0534
4051.00,1.0788
4050.00,1.1044
4049.00,1.1299
4048.00,1.1553
4047.00,1.1804
4046.00,1.2053
4045.00,1.2297
4044.00,1.2537
4043.00,1.2770
4042.00,1.2997
4041.00,1.3218
4040.00,1.3435
4039.00,1.3645
4038.00,1.3849
4037.00,1.4043
4036.00,1.4229
4035.00,1.4406
4034.00,1.4575
4033.00,1.4736
4032.00,1.4890
4031.00,1.5038
4030.00,1.5180
4029.00,1.5315
4028.00,1.5443
4027.00,1.5565
4026.00,1.5681
4025.00,1.5793
4024.00,1.5899
4023.00,1.5997
4022.00,1.6087
4021.00,1.6172
4020.00,1.6254
4019.00,1.6332
4018.00,1.6407
4017.00,1.6479
4016.00,1.6546
4015.00,1.6612
4014.00,1.6676
4013.00,1.6737
4012.00,1.6792
4011.00,1.6841
4010.00,1.6883
4009.00,1.6919
4008.00,1.6951
4007.00,1.6977
4006.00,1.6999
4005.00,1.7016
4004.00,1.7029
4003.00,1.7037
4002.00,1.7042
4001.00,1.7043
4000.00,1.7040
3999.00,1.7031
3998.00,1.7015
3997.00,1.6995
3996.00,1.6971
3995.00,1.6945
3994.00,1.6916
3993.00,1.6881
3992.00,1.6841
3991.00,1.6796
3990.00,1.6746
3989.00,1.6691
3988.00,1.6630
3987.00,1.6563
3986.00,1.6491
3985.00,1.6416
3984.00,1.6338
3983.00,1.6258
3982.00,1.6172
3981.00,1.6080
3980.00,1.5980
3979.00,1.5875
3978.00,1.5768
3977.00,1.5659
3976.00,1.5545
3975.00,1.5423
3974.00,1.5292
3973.00,1.5154
3972.00,1.5009
3971.00,1.4857
3970.00,1.4699
3969.00,1.4531
3968.00,1.4355
3967.00,1.4170
3966.00,1.3978
3965.00,1.3777
3964.00,1.3568
3963.00,1.3350
3962.00,1.3124
3961.00,1.2891
3960.00,1.2653
3959.00,1.2408
3958.00,1.2156
3957.00,1.1900
3956.00,1.1640
3955.00,1.1380
3954.00,1.1119
3953.00,1.0859
3952.00,1.0600
3951.00,1.0342
3950.00,1.0088
3949.00,0.9839
3948.00,0.9597
3947.00,0.9365
3946.00,0.9146
3945.00,0.8940
3944.00,0.8746
3943.00,0.8565
3942.00,0.8398
3941.00,0.8249
3940.00,0.8121
3939.00,0.8013
3938.00,0.7924
3937.00,0.7856
3936.00,0.7810
3935.00,0.7787
3934.00,0.7787
3933.00,0.7810
3932.00,0.7855
3931.00,0.7923
3930.00,0.8012
3929.00,0.8123
3928.00,0.8255
3927.00,0.8408
3926.00,0.8581
3925.00,0.8775
3924.00,0.8987
3923.00,0.9212
3922.00,0.9447
3921.00,0.9688
3920.00,0.9936
3919.00,1.0191
3918.00,1.0455
3917.00,1.0727
3916.00,1.1005
3915.00,1.1283
3914.00,1.1556
3913.00,1.1824
3912.00,1.2086
3911.00,1.2344
3910.00,1.2598
3909.00,1.2846
3908.00,1.3084
3907.00,1.3312
3906.00,1.3534
3905.00,1.3753
3904.00,1.3973
3903.00,1.4191
3902.00,1.4403
3901.00,1.4604
3900.00,1.4795
3899.00,1.4978
3898.00,1.5154
3897.00,1.5324
3896.00,1.5485
3895.00,1.5637
3894.00,1.5781
3893.00,1.5919
3892.00,1.6054
3891.00,1.6185
3890.00,1.6310
3889.00,1.6426
3888.00,1.6531
3887.00,1.6626
3886.00,1.6717
3885.00,1.6806
3884.00,1.6895
3883.00,1.6981
3882.00,1.7060
3881.00,1.7132
3880.00,1.7198
3879.00,1.7259
3878.00,1.7317
3877.00,1.7370
3876.00,1.7416
3875.00,1.7456
3874.00,1.7491
3873.00,1.7525
3872.00,1.7554
3871.00,1.7577
3870.00,1.7591
3869.00,1.7597
3868.00,1.7600
3867.00,1.7603
3866.00,1.7602
3865.00,1.7593
3864.00,1.7580
3863.00,1.7566
3862.00,1.7554
3861.00,1.7538
3860.00,1.7514
3859.00,1.7482
3858.00,1.7445
3857.00,1.7403
3856.00,1.7356
3855.00,1.7295
3854.00,1.7218
3853.00,1.7130
3852.00,1.7043
3851.00,1.6965
3850.00,1.6893
3849.00,1.6815
3848.00,1.6727
3847.00,1.6636
3846.00,1.6543
3845.00,1.6442
3844.00,1.6332
3843.00,1.6212
3842.00,1.6086
3841.00,1.5955
3840.00,1.5813
3839.00,1.5658
3838.00,1.5487
3837.00,1.5305
3836.00,1.5121
3835.00,1.4937
3834.00,1.4746
3833.00,1.4545
3832.00,1.4331
3831.00,1.4111
3830.00,1.3887
3829.00,1.3660
3828.00,1.3424
3827.00,1.3178
3826.00,1.2926
3825.00,1.2676
3824.00,1.2428
3823.00,1.2168
3822.00,1.1882
3821.00,1.1570
3820.00,1.1259
3819.00,1.0971
3818.00,1.0703
3817.00,1.0430
3816.00,1.0140
3815.00,0.9850
3814.00,0.9584
3813.00,0.9345
3812.00,0.9124
3811.00,0.8914
3810.00,0.8719
3809.00,0.8540
3808.00,0.8375
3807.00,0.8216
3806.00,0.8070
3805.00,0.7950
3804.00,0.7863
3803.00,0.7805
3802.00,0.7769
3801.00,0.7755
3800.00,0.7767
3799.00,0.7806
3798.00,0.7870
3797.00,0.7957
3796.00,0.8071
3795.00,0.8213
3794.00,0.8381
3793.00,0.8568
3792.00,0.8773
3791.00,0.8997
3790.00,0.9240
3789.00,0.9499
3788.00,0.9771
3787.00,1.0050
3786.00,1.0337
3785.00,1.0633
3784.00,1.0934
3783.00,1.1235
3782.00,1.1532
3781.00,1.1825
3780.00,1.2118
3779.00,1.2412
3778.00,1.2705
3777.00,1.2993
3776.00,1.3271
3775.00,1.3536
3774.00,1.3789
3773.00,1.4031
3772.00,1.4265
3771.00,1.4493
3770.00,1.4719
3769.00,1.4943
3768.00,1.5159
3767.00,1.5365
3766.00,1.5559
3765.00,1.5744
3764.00,1.5923
3763.00,1.6091
3762.00,1.6249
3761.00,1.6398
3760.00,1.6543
3759.00,1.6687
3758.00,1.6828
3757.00,1.6962
3756.00,1.7086
3755.00,1.7198
3754.00,1.7299
3753.00,1.7394
3752.00,1.7487
3751.00,1.7582
3750.00,1.7678
3749.00,1.7772
3748.00,1.7856
3747.00,1.7927
3746.00,1.7988
3745.00,1.8049
3744.00,1.8113
3743.00,1.8175
3742.00,1.8228
3741.00,1.8270
3740.00,1.8300
3739.00,1.8320
3738.00,1.8331
3737.00,1.8329
3736.00,1.8307
3735.00,1.8262
3734.00,1.8198
3733.00,1.8120
3732.00,1.8029
3731.00,1.7926
3730.00,1.7819
3729.00,1.7714
3728.00,1.7612
3727.00,1.7509
3726.00,1.7408
3725.00,1.7311
3724.00,1.7219
3723.00,1.7134
3722.00,1.7057
3721.00,1.6995
3720.00,1.6946
3719.00,1.6912
3718.00,1.6890
3717.00,1.6881
3716.00,1.6887
3715.00,1.6905
3714.00,1.6932
3713.00,1.6952
3712.00,1.6936
3711.00,1.6858
3710.00,1.6710
3709.00,1.6503
3708.00,1.6262
3707.00,1.6012
3706.00,1.5770
3705.00,1.5540
3704.00,1.5317
3703.00,1.5097
3702.00,1.4875
3701.00,1.4653
3700.00,1.4435
3699.00,1.4225
3698.00,1.4020
3697.00,1.3815
3696.00,1.3607
3695.00,1.3398
3694.00,1.3191
3693.00,1.2984
3692.00,1.2774
3691.00,1.2557
3690.00,1.2330
3689.00,1.2089
3688.00,1.1844
3687.00,1.1612
3686.00,1.1405
3685.00,1.1219
3684.00,1.1044
3683.00,1.0880
3682.00,1.0729
3681.00,1.0594
3680.00,1.0474
3679.00,1.0371
3678.00,1.0288
3677.00,1.0223
3676.00,1.0168
3675.00,1.0123
3674.00,1.0095
3673.00,1.0090
3672.00,1.0112
3671.00,1.0155
3670.00,1.0222
3669.00,1.0313
3668.00,1.0423
3667.00,1.0544
3666.00,1.0673
3665.00,1.0811
3664.00,1.0966
3663.00,1.1140
3662.00,1.1329
3661.00,1.1525
3660.00,1.1726
3659.00,1.1928
3658.00,1.2134
3657.00,1.2348
3656.00,1.2570
3655.00,1.2796
3654.00,1.3015
3653.00,1.3221
3652.00,1.3417
3651.00,1.3614
3650.00,1.3824
3649.00,1.4047
3648.00,1.4279
3647.00,1.4513
3646.00,1.4737
3645.00,1.4943
3644.00,1.5135
3643.00,1.5321
3642.00,1.5507
3641.00,1.5692
3640.00,1.5873
3639.00,1.6048
3638.00,1.6215
3637.00,1.6372
3636.00,1.6519
3635.00,1.6657
3634.00,1.6783
3633.00,1.6895
3632.00,1.6992
3631.00,1.7076
3630.00,1.7152
3629.00,1.7226
3628.00,1.7302
3627.00,1.7377
3626.00,1.7446
3625.00,1.7507
3624.00,1.7567
3623.00,1.7633
3622.00,1.7705
3621.00,1.7782
3620.00,1.7862
3619.00,1.7953
3618.00,1.8048
3617.00,1.8165
3616.00,1.8264
3615.00,1.8415
3614.00,1.8479
3613.00,1.8852
3612.00,1.9113
3611.00,1.9086
3610.00,1.9164
3609.00,1.9176
3608.00,1.9231
3607.00,1.9256
3606.00,1.9321
3605.00,1.9321
3604.00,1.9425
3603.00,1.9157
3602.00,1.8963
3601.00,1.9012
3600.00,1.8975
3599.00,1.8995
3598.00,1.8991
3597.00,1.9000
3596.00,1.9002
3595.00,1.9008
3594.00,1.9015
3593.00,1.9023
3592.00,1.9030
3591.00,1.9033
3590.00,1.9029
3589.00,1.9018
3588.00,1.9000
3587.00,1.8980
3586.00,1.8957
3585.00,1.8930
3584.00,1.8897
3583.00,1.8855
3582.00,1.8806
3581.00,1.8752
3580.00,1.8696
3579.00,1.8636
3578.00,1.8569
3577.00,1.8493
3576.00,1.8407
3575.00,1.8311
3574.00,1.8209
3573.00,1.8103
3572.00,1.7995
3571.00,1.7885
3570.00,1.7768
3569.00,1.7638
3568.00,1.7494
3567.00,1.7340
3566.00,1.7183
3565.00,1.7030
3564.00,1.6883
3563.00,1.6738
3562.00,1.6589
3561.00,1.6435
3560.00,1.6276
3559.00,1.6112
3558.00,1.5945
3557.00,1.5774
3556.00,1.5601
3555.00,1.5427
3554.00,1.5251
3553.00,1.5073
3552.00,1.4895
3551.00,1.4718
3550.00,1.4544
3549.00,1.4371
3548.00,1.4197
3547.00,1.4023
3546.00,1.3850
3545.00,1.3679
3544.00,1.3511
3543.00,1.3349
3542.00,1.3191
3541.00,1.3039
3540.00,1.2891
3539.00,1.2748
3538.00,1.2612
3537.00,1.2482
3536.00,1.2360
3535.00,1.2246
3534.00,1.2143
3533.00,1.2050
3532.00,1.1969
3531.00,1.1899
3530.00,1.1842
3529.00,1.1799
3528.00,1.1769
3527.00,1.1755
3526.00,1.1757
3525.00,1.1775
3524.00,1.1808
3523.00,1.1857
3522.00,1.1922
3521.00,1.2003
3520.00,1.2102
3519.00,1.2218
3518.00,1.2348
3517.00,1.2493
3516.00,1.2651
3515.00,1.2822
3514.00,1.3005
3513.00,1.3197
3512.00,1.3397
3511.00,1.3605
3510.00,1.3819
3509.00,1.4039
3508.00,1.4262
3507.00,1.4487
3506.00,1.4712
3505.00,1.4934
3504.00,1.5156
3503.00,1.5379
3502.00,1.5600
3501.00,1.5817
3500.00,1.6028
3499.00,1.6232
3498.00,1.6430
3497.00,1.6622
3496.00,1.6810
3495.00,1.6995
3494.00,1.7175
3493.00,1.7348
3492.00,1.7515
3491.00,1.7674
3490.00,1.7825
3489.00,1.7970
3488.00,1.8112
3487.00,1.8250
3486.00,1.8382
3485.00,1.8507
3484.00,1.8625
3483.00,1.8738
3482.00,1.8847
3481.00,1.8952
3480.00,1.9051
3479.00,1.9147
3478.00,1.9240
3477.00,1.9329
3476.00,1.9411
3475.00,1.9482
3474.00,1.9545
3473.00,1.9601
3472.00,1.9653
3471.00,1.9701
3470.00,1.9741
3469.00,1.9775
3468.00,1.9806
3467.00,1.9839
3466.00,1.9873
3465.00,1.9907
3464.00,1.9938
3463.00,1.9961
3462.00,1.9974
3461.00,1.9979
3460.00,1.9977
3459.00,1.9971
3458.00,1.9963
3457.00,1.9954
3456.00,1.9943
3455.00,1.9927
3454.00,1.9903
3453.00,1.9871
3452.00,1.9835
3451.00,1.9795
3450.00,1.9752
3449.00,1.9704
3448.00,1.9651
3447.00,1.9593
3446.00,1.9529
3445.00,1.9460
3444.00,1.9387
3443.00,1.9308
3442.00,1.9222
3441.00,1.9130
3440.00,1.9032
3439.00,1.8929
3438.00,1.8820
3437.00,1.8706
3436.00,1.8590
3435.00,1.8470
3434.00,1.8342
3433.00,1.8204
3432.00,1.8053
3431.00,1.7893
3430.00,1.7725
3429.00,1.7553
3428.00,1.7376
3427.00,1.7195
3426.00,1.7007
3425.00,1.6812
3424.00,1.6608
3423.00,1.6397
3422.00,1.6176
3421.00,1.5947
3420.00,1.5712
3419.00,1.5470
3418.00,1.5222
3417.00,1.4968
3416.00,1.4708
3415.00,1.4444
3414.00,1.4179
3413.00,1.3912
3412.00,1.3647
3411.00,1.3384
3410.00,1.3126
3409.00,1.2872
3408.00,1.2625
3407.00,1.2388
3406.00,1.2161
3405.00,1.1945
3404.00,1.1741
3403.00,1.1550
3402.00,1.1372
3401.00,1.1209
3400.00,1.1061
3399.00,1.0929
3398.00,1.0816
3397.00,1.0724
3396.00,1.0653
3395.00,1.0605
3394.00,1.0581
3393.00,1.0582
3392.00,1.0608
3391.00,1.0661
3390.00,1.0740
3389.00,1.0844
3388.00,1.0972
3387.00,1.1122
3386.00,1.1294
3385.00,1.1486
3384.00,1.1697
3383.00,1.1923
3382.00,1.2163
3381.00,1.2415
3380.00,1.2676
3379.00,1.2943
3378.00,1.3216
3377.00,1.3493
3376.00,1.3772
3375.00,1.4052
3374.00,1.4332
3373.00,1.4608
3372.00,1.4880
3371.00,1.5147
3370.00,1.5409
3369.00,1.5667
3368.00,1.5918
3367.00,1.6161
3366.00,1.6397
3365.00,1.6625
3364.00,1.6847
3363.00,1.7064
3362.00,1.7274
3361.00,1.7475
3360.00,1.7668
3359.00,1.7850
3358.00,1.8022
3357.00,1.8185
3356.00,1.8339
3355.00,1.8488
3354.00,1.8633
3353.00,1.8776
3352.00,1.8913
3351.00,1.9043
3350.00,1.9165
3349.00,1.9278
3348.00,1.9385
3347.00,1.9487
3346.00,1.9585
3345.00,1.9677
3344.00,1.9765
3343.00,1.9848
3342.00,1.9927
3341.00,2.0003
3340.00,2.0076
3339.00,2.0143
3338.00,2.0203
3337.00,2.0253
3336.00,2.0297
3335.00,2.0338
3334.00,2.0378
3333.00,2.0415
3332.00,2.0447
3331.00,2.0473
3330.00,2.0494
3329.00,2.0512
3328.00,2.0526
3327.00,2.0533
3326.00,2.0532
3325.00,2.0522
3324.00,2.0507
3323.00,2.0489
3322.00,2.0469
3321.00,2.0448
3320.00,2.0423
3319.00,2.0391
3318.00,2.0354
3317.00,2.0314
3316.00,2.0271
3315.00,2.0225
3314.00,2.0173
3313.00,2.0116
3312.00,2.0052
3311.00,1.9985
3310.00,1.9916
3309.00,1.9843
3308.00,1.9764
3307.00,1.9675
3306.00,1.9576
3305.00,1.9468
3304.00,1.9353
3303.00,1.9232
3302.00,1.9107
3301.00,1.8980
3300.00,1.8852
3299.00,1.8718
3298.00,1.8576
3297.00,1.8424
3296.00,1.8264
3295.00,1.8097
3294.00,1.7926
3293.00,1.7747
3292.00,1.7560
3291.00,1.7362
3290.00,1.7153
3289.00,1.6936
3288.00,1.6712
3287.00,1.6481
3286.00,1.6244
3285.00,1.5998
3284.00,1.5746
3283.00,1.5486
3282.00,1.5221
3281.00,1.4950
3280.00,1.4676
3279.00,1.4397
3278.00,1.4115
3277.00,1.3831
3276.00,1.3550
3275.00,1.3273
3274.00,1.3003
3273.00,1.2743
3272.00,1.2492
3271.00,1.2252
3270.00,1.2025
3269.00,1.1813
3268.00,1.1618
3267.00,1.1444
3266.00,1.1290
3265.00,1.1159
3264.00,1.1051
3263.00,1.0969
3262.00,1.0914
3261.00,1.0885
3260.00,1.0885
3259.00,1.0913
3258.00,1.0968
3257.00,1.1049
3256.00,1.1157
3255.00,1.1291
3254.00,1.1451
3253.00,1.1636
3252.00,1.1841
3251.00,1.2065
3250.00,1.2305
3249.00,1.2558
3248.00,1.2823
3247.00,1.3099
3246.00,1.3383
3245.00,1.3673
3244.00,1.3966
3243.00,1.4259
3242.00,1.4550
3241.00,1.4840
3240.00,1.5128
3239.00,1.5411
3238.00,1.5690
3237.00,1.5963
3236.00,1.6231
3235.00,1.6493
3234.00,1.6746
3233.00,1.6990
3232.00,1.7224
3231.00,1.7450
3230.00,1.7670
3229.00,1.7884
3228.00,1.8091
3227.00,1.8289
3226.00,1.8477
3225.00,1.8656
3224.00,1.8828
3223.00,1.8994
3222.00,1.9154
3221.00,1.9310
3220.00,1.9461
3219.00,1.9605
3218.00,1.9741
3217.00,1.9868
3216.00,1.9987
3215.00,2.0101
3214.00,2.0208
3213.00,2.0307
3212.00,2.0399
3211.00,2.0486
3210.00,2.0571
3209.00,2.0656
3208.00,2.0739
3207.00,2.0820
3206.00,2.0898
3205.00,2.0971
3204.00,2.1039
3203.00,2.1096
3202.00,2.1140
3201.00,2.1171
3200.00,2.1193
3199.00,2.1210
3198.00,2.1222
3197.00,2.1234
3196.00,2.1245
3195.00,2.1256
3194.00,2.1260
3193.00,2.1257
3192.00,2.1247
3191.00,2.1237
3190.00,2.1230
3189.00,2.1227
3188.00,2.1222
3187.00,2.1206
3186.00,2.1175
3185.00,2.1130
3184.00,2.1077
3183.00,2.1023
3182.00,2.0969
3181.00,2.0913
3180.00,2.0857
3179.00,2.0798
3178.00,2.0733
3177.00,2.0658
3176.00,2.0571
3175.00,2.0478
3174.00,2.0385
3173.00,2.0298
3172.00,2.0219
3171.00,2.0145
3170.00,2.0079
3169.00,2.0029
3168.00,2.0007
3167.00,2.0015
3166.00,2.0046
3165.00,2.0081
3164.00,2.0101
3163.00,2.0084
3162.00,2.0018
3161.00,1.9898
3160.00,1.9730
3159.00,1.9529
3158.00,1.9305
3157.00,1.9068
3156.00,1.8822
3155.00,1.8569
3154.00,1.8308
3153.00,1.8041
3152.00,1.7771
3151.00,1.7499
3150.00,1.7226
3149.00,1.6950
3148.00,1.6672
3147.00,1.6392
3146.00,1.6109
3145.00,1.5822
3144.00,1.5532
3143.00,1.5238
3142.00,1.4943
3141.00,1.4652
3140.00,1.4366
3139.00,1.4089
3138.00,1.3821
3137.00,1.3565
3136.00,1.3323
3135.00,1.3097
3134.00,1.2889
3133.00,1.2700
3132.00,1.2532
3131.00,1.2387
3130.00,1.2267
3129.00,1.2173
3128.00,1.2106
3127.00,1.2067
3126.00,1.2058
3125.00,1.2077
3124.00,1.2124
3123.00,1.2200
3122.00,1.2305
3121.00,1.2437
3120.00,1.2595
3119.00,1.2776
3118.00,1.2979
3117.00,1.3201
3116.00,1.3440
3115.00,1.3692
3114.00,1.3955
3113.00,1.4224
3112.00,1.4496
3111.00,1.4770
3110.00,1.5046
3109.00,1.5325
3108.00,1.5607
3107.00,1.5887
3106.00,1.6164
3105.00,1.6435
3104.00,1.6704
3103.00,1.6968
3102.00,1.7228
3101.00,1.7480
3100.00,1.7723
3099.00,1.7956
3098.00,1.8183
3097.00,1.8406
3096.00,1.8624
3095.00,1.8836
3094.00,1.9038
3093.00,1.9230
3092.00,1.9415
3091.00,1.9593
3090.00,1.9763
3089.00,1.9924
3088.00,2.0079
3087.00,2.0230
3086.00,2.0372
3085.00,2.0504
3084.00,2.0625
3083.00,2.0742
3082.00,2.0858
3081.00,2.0973
3080.00,2.1082
3079.00,2.1182
3078.00,2.1273
3077.00,2.1358
3076.00,2.1438
3075.00,2.1514
3074.00,2.1588
3073.00,2.1659
3072.00,2.1730
3071.00,2.1796
3070.00,2.1855
3069.00,2.1903
3068.00,2.1944
3067.00,2.1984
3066.00,2.2024
3065.00,2.2063
3064.00,2.2097
3063.00,2.2125
3062.00,2.2147
3061.00,2.2161
3060.00,2.2168
3059.00,2.2165
3058.00,2.2156
3057.00,2.2142
3056.00,2.2125
3055.00,2.2109
3054.00,2.2098
3053.00,2.2087
3052.00,2.2072
3051.00,2.2046
3050.00,2.2009
3049.00,2.1966
3048.00,2.1920
3047.00,2.1871
3046.00,2.1815
3045.00,2.1751
3044.00,2.1681
3043.00,2.1609
3042.00,2.1535
3041.00,2.1456
3040.00,2.1367
3039.00,2.1266
3038.00,2.1155
3037.00,2.1040
3036.00,2.0925
3035.00,2.0812
3034.00,2.0698
3033.00,2.0578
3032.00,2.0450
3031.00,2.0311
3030.00,2.0167
3029.00,2.0020
3028.00,1.9873
3027.00,1.9724
3026.00,1.9574
3025.00,1.9424
3024.00,1.9272
3023.00,1.9120
3022.00,1.8969
3021.00,1.8823
3020.00,1.8682
3019.00,1.8549
3018.00,1.8426
3017.00,1.8317
3016.00,1.8224
3015.00,1.8146
3014.00,1.8083
3013.00,1.8036
3012.00,1.8005
3011.00,1.7991
3010.00,1.7994
3009.00,1.8011
3008.00,1.8041
3007.00,1.8079
3006.00,1.8119
3005.00,1.8156
3004.00,1.8181
3003.00,1.8189
3002.00,1.8177
3001.00,1.8144
3000.00,1.8087
2999.00,1.8006
2998.00,1.7902
2997.00,1.7777
2996.00,1.7638
2995.00,1.7491
2994.00,1.7344
2993.00,1.7203
2992.00,1.7073
2991.00,1.6960
2990.00,1.6870
2989.00,1.6810
2988.00,1.6782
2987.00,1.6789
2986.00,1.6831
2985.00,1.6910
2984.00,1.7025
2983.00,1.7174
2982.00,1.7352
2981.00,1.7560
2980.00,1.7796
2979.00,1.8056
2978.00,1.8335
2977.00,1.8625
2976.00,1.8921
2975.00,1.9219
2974.00,1.9517
2973.00,1.9812
2972.00,2.0104
2971.00,2.0390
2970.00,2.0673
2969.00,2.0952
2968.00,2.1223
2967.00,2.1475
2966.00,2.1703
2965.00,2.1911
2964.00,2.2108
2963.00,2.2299
2962.00,2.2483
2961.00,2.2660
2960.00,2.2832
2959.00,2.3003
2958.00,2.3173
2957.00,2.3346
2956.00,2.3524
2955.00,2.3709
2954.00,2.3899
2953.00,2.4091
2952.00,2.4284
2951.00,2.4476
2950.00,2.4668
2949.00,2.4865
2948.00,2.5067
2947.00,2.5261
2946.00,2.5419
2945.00,2.5512
2944.00,2.5519
2943.00,2.5435
2942.00,2.5277
2941.00,2.5074
2940.00,2.4861
2939.00,2.4657
2938.00,2.4467
2937.00,2.4280
2936.00,2.4094
2935.00,2.3915
2934.00,2.3760
2933.00,2.3639
2932.00,2.3551
2931.00,2.3488
2930.00,2.3437
2929.00,2.3393
2928.00,2.3354
2927.00,2.3318
2926.00,2.3289
2925.00,2.3267
2924.00,2.3250
2923.00,2.3237
2922.00,2.3232
2921.00,2.3242
2920.00,2.3269
2919.00,2.3306
2918.00,2.3342
2917.00,2.3366
2916.00,2.3380
2915.00,2.3389
2914.00,2.3402
2913.00,2.3422
2912.00,2.3446
2911.00,2.3468
2910.00,2.3486
2909.00,2.3498
2908.00,2.3503
2907.00,2.3497
2906.00,2.3480
2905.00,2.3461
2904.00,2.3446
2903.00,2.3437
2902.00,2.3429
2901.00,2.3416
2900.00,2.3392
2899.00,2.3351
2898.00,2.3292
2897.00,2.3219
2896.00,2.3142
2895.00,2.3067
2894.00,2.2994
2893.00,2.2918
2892.00,2.2839
2891.00,2.2755
2890.00,2.2664
2889.00,2.2564
2888.00,2.2453
2887.00,2.2333
2886.00,2.2211
2885.00,2.2091
2884.00,2.1970
2883.00,2.1846
2882.00,2.1718
2881.00,2.1590
2880.00,2.1466
2879.00,2.1346
2878.00,2.1232
2877.00,2.1127
2876.00,2.1036
2875.00,2.0963
2874.00,2.0910
2873.00,2.0878
2872.00,2.0861
2871.00,2.0849
2870.00,2.0830
2869.00,2.0795
2868.00,2.0741
2867.00,2.0670
2866.00,2.0582
2865.00,2.0476
2864.00,2.0349
2863.00,2.0199
2862.00,2.0022
2861.00,1.9816
2860.00,1.9577
2859.00,1.9307
2858.00,1.9007
2857.00,1.8680
2856.00,1.8330
2855.00,1.7958
2854.00,1.7567
2853.00,1.7163
2852.00,1.6750
2851.00,1.6335
2850.00,1.5926
2849.00,1.5527
2848.00,1.5145
2847.00,1.4786
2846.00,1.4454
2845.00,1.4153
2844.00,1.3887
2843.00,1.3657
2842.00,1.3468
2841.00,1.3320
2840.00,1.3214
2839.00,1.3150
2838.00,1.3129
2837.00,1.3150
2836.00,1.3213
2835.00,1.3316
2834.00,1.3457
2833.00,1.3634
2832.00,1.3843
2831.00,1.4080
2830.00,1.4342
2829.00,1.4624
2828.00,1.4924
2827.00,1.5238
2826.00,1.5561
2825.00,1.5890
2824.00,1.6221
2823.00,1.6555
2822.00,1.6889
2821.00,1.7223
2820.00,1.7553
2819.00,1.7876
2818.00,1.8190
2817.00,1.8497
2816.00,1.8796
2815.00,1.9086
2814.00,1.9365
2813.00,1.9629
2812.00,1.9880
2811.00,2.0119
2810.00,2.0345
2809.00,2.0562
2808.00,2.0770
2807.00,2.0973
2806.00,2.1169
2805.00,2.1357
2804.00,2.1534
2803.00,2.1700
2802.00,2.1857
2801.00,2.2005
2800.00,2.2146
2799.00,2.2279
2798.00,2.2403
2797.00,2.2519
2796.00,2.2630
2795.00,2.2737
2794.00,2.2841
2793.00,2.2944
2792.00,2.3042
2791.00,2.3131
2790.00,2.3210
2789.00,2.3281
2788.00,2.3348
2787.00,2.3411
2786.00,2.3468
2785.00,2.3517
2784.00,2.3558
2783.00,2.3595
2782.00,2.3629
2781.00,2.3665
2780.00,2.3697
2779.00,2.3722
2778.00,2.3737
2777.00,2.3744
2776.00,2.3748
2775.00,2.3748
2774.00,2.3741
2773.00,2.3727
2772.00,2.3711
2771.00,2.3694
2770.00,2.3673
2769.00,2.3647
2768.00,2.3614
2767.00,2.3575
2766.00,2.3529
2765.00,2.3477
2764.00,2.3423
2763.00,2.3367
2762.00,2.3306
2761.00,2.3239
2760.00,2.3168
2759.00,2.3094
2758.00,2.3016
2757.00,2.2924
2756.00,2.2815
2755.00,2.2691
2754.00,2.2560
2753.00,2.2428
2752.00,2.2296
2751.00,2.2160
2750.00,2.2020
2749.00,2.1877
2748.00,2.1726
2747.00,2.1563
2746.00,2.1386
2745.00,2.1199
2744.00,2.1004
2743.00,2.0801
2742.00,2.0589
2741.00,2.0365
2740.00,2.0128
2739.00,1.9879
2738.00,1.9617
2737.00,1.9342
2736.00,1.9052
2735.00,1.8749
2734.00,1.8433
2733.00,1.8102
2732.00,1.7755
2731.00,1.7391
2730.00,1.7010
2729.00,1.6613
2728.00,1.6202
2727.00,1.5780
2726.00,1.5349
2725.00,1.4914
2724.00,1.4477
2723.00,1.4045
2722.00,1.3621
2721.00,1.3213
2720.00,1.2826
2719.00,1.2464
2718.00,1.2132
2717.00,1.1834
2716.00,1.1574
2715.00,1.1356
2714.00,1.1183
2713.00,1.1060
2712.00,1.0989
2711.00,1.0973
2710.00,1.1014
2709.00,1.1112
2708.00,1.1266
2707.00,1.1476
2706.00,1.1736
2705.00,1.2043
2704.00,1.2391
2703.00,1.2773
2702.00,1.3183
2701.00,1.3614
2700.00,1.4059
2699.00,1.4513
2698.00,1.4969
2697.00,1.5423
2696.00,1.5873
2695.00,1.6315
2694.00,1.6746
2693.00,1.7163
2692.00,1.7564
2691.00,1.7950
2690.00,1.8321
2689.00,1.8678
2688.00,1.9021
2687.00,1.9349
2686.00,1.9661
2685.00,1.9958
2684.00,2.0240
2683.00,2.0505
2682.00,2.0754
2681.00,2.0989
2680.00,2.1213
2679.00,2.1429
2678.00,2.1641
2677.00,2.1847
2676.00,2.2041
2675.00,2.2218
2674.00,2.2378
2673.00,2.2529
2672.00,2.2675
2671.00,2.2816
2670.00,2.2948
2669.00,2.3074
2668.00,2.3198
2667.00,2.3322
2666.00,2.3442
2665.00,2.3555
2664.00,2.3660
2663.00,2.3761
2662.00,2.3861
2661.00,2.3961
2660.00,2.4060
2659.00,2.4150
2658.00,2.4219
2657.00,2.4265
2656.00,2.4298
2655.00,2.4332
2654.00,2.4373
2653.00,2.4420
2652.00,2.4467
2651.00,2.4509
2650.00,2.4541
2649.00,2.4562
2648.00,2.4575
2647.00,2.4589
2646.00,2.4608
2645.00,2.4632
2644.00,2.4652
2643.00,2.4664
2642.00,2.4665
2641.00,2.4655
2640.00,2.4633
2639.00,2.4596
2638.00,2.4545
2637.00,2.4491
2636.00,2.4447
2635.00,2.4414
2634.00,2.4386
2633.00,2.4357
2632.00,2.4326
2631.00,2.4297
2630.00,2.4269
2629.00,2.4235
2628.00,2.4185
2627.00,2.4117
2626.00,2.4040
2625.00,2.3962
2624.00,2.3880
2623.00,2.3784
2622.00,2.3669
2621.00,2.3544
2620.00,2.3417
2619.00,2.3288
2618.00,2.3150
2617.00,2.3000
2616.00,2.2841
2615.00,2.2679
2614.00,2.2517
2613.00,2.2349
2612.00,2.2170
2611.00,2.1970
2610.00,2.1750
2609.00,2.1515
2608.00,2.1275
2607.00,2.1030
2606.00,2.0775
2605.00,2.0504
2604.00,2.0216
2603.00,1.9913
2602.00,1.9595
2601.00,1.9261
2600.00,1.8907
2599.00,1.8534
2598.00,1.8142
2597.00,1.7733
2596.00,1.7304
2595.00,1.6857
2594.00,1.6393
2593.00,1.5917
2592.00,1.5436
2591.00,1.4954
2590.00,1.4479
2589.00,1.4015
2588.00,1.3568
2587.00,1.3144
2586.00,1.2750
2585.00,1.2392
2584.00,1.2074
2583.00,1.1800
2582.00,1.1576
2581.00,1.1405
2580.00,1.1292
2579.00,1.1238
2578.00,1.1247
2577.00,1.1319
2576.00,1.1454
2575.00,1.1651
2574.00,1.1906
2573.00,1.2216
2572.00,1.2573
2571.00,1.2970
2570.00,1.3398
2569.00,1.3851
2568.00,1.4321
2567.00,1.4801
2566.00,1.5284
2565.00,1.5765
2564.00,1.6240
2563.00,1.6705
2562.00,1.7159
2561.00,1.7600
2560.00,1.8028
2559.00,1.8439
2558.00,1.8830
2557.00,1.9204
2556.00,1.9561
2555.00,1.9904
2554.00,2.0230
2553.00,2.0539
2552.00,2.0831
2551.00,2.1113
2550.00,2.1386
2549.00,2.1650
2548.00,2.1901
2547.00,2.2136
2546.00,2.2355
2545.00,2.2561
2544.00,2.2755
2543.00,2.2938
2542.00,2.3110
2541.00,2.3274
2540.00,2.3437
2539.00,2.3599
2538.00,2.3761
2537.00,2.3920
2536.00,2.4072
2535.00,2.4208
2534.00,2.4321
2533.00,2.4416
2532.00,2.4504
2531.00,2.4597
2530.00,2.4696
2529.00,2.4797
2528.00,2.4895
2527.00,2.4988
2526.00,2.5071
2525.00,2.5139
2524.00,2.5192
2523.00,2.5239
2522.00,2.5291
2521.00,2.5349
2520.00,2.5403
2519.00,2.5443
2518.00,2.5470
2517.00,2.5491
2516.00,2.5511
2515.00,2.5529
2514.00,2.5545
2513.00,2.5562
2512.00,2.5574
2511.00,2.5574
2510.00,2.5564
2509.00,2.5556
2508.00,2.5553
2507.00,2.5547
2506.00,2.5528
2505.00,2.5503
2504.00,2.5481
2503.00,2.5459
2502.00,2.5425
2501.00,2.5371
2500.00,2.5304
2499.00,2.5235
2498.00,2.5170
2497.00,2.5107
2496.00,2.5046
2495.00,2.4982
2494.00,2.4911
2493.00,2.4827
2492.00,2.4728
2491.00,2.4616
2490.00,2.4498
2489.00,2.4383
2488.00,2.4273
2487.00,2.4161
2486.00,2.4037
2485.00,2.3901
2484.00,2.3758
2483.00,2.3609
2482.00,2.3452
2481.00,2.3284
2480.00,2.3104
2479.00,2.2912
2478.00,2.2709
2477.00,2.2496
2476.00,2.2277
2475.00,2.2054
2474.00,2.1821
2473.00,2.1572
2472.00,2.1302
2471.00,2.1013
2470.00,2.0709
2469.00,2.0391
2468.00,2.0059
2467.00,1.9707
2466.00,1.9335
2465.00,1.8944
2464.00,1.8535
2463.00,1.8110
2462.00,1.7667
2461.00,1.7210
2460.00,1.6743
2459.00,1.6271
2458.00,1.5797
2457.00,1.5330
2456.00,1.4878
2455.00,1.4450
2454.00,1.4051
2453.00,1.3687
2452.00,1.3362
2451.00,1.3083
2450.00,1.2852
2449.00,1.2676
2448.00,1.2558
2447.00,1.2499
2446.00,1.2501
2445.00,1.2565
2444.00,1.2691
2443.00,1.2878
2442.00,1.3121
2441.00,1.3417
2440.00,1.3760
2439.00,1.4144
2438.00,1.4560
2437.00,1.5001
2436.00,1.5460
2435.00,1.5931
2434.00,1.6407
2433.00,1.6884
2432.00,1.7355
2431.00,1.7817
2430.00,1.8270
2429.00,1.8710
2428.00,1.9135
2427.00,1.9543
2426.00,1.9931
2425.00,2.0301
2424.00,2.0655
2423.00,2.0994
2422.00,2.1317
2421.00,2.1620
2420.00,2.1903
2419.00,2.2169
2418.00,2.2421
2417.00,2.2663
2416.00,2.2894
2415.00,2.3115
2414.00,2.3325
2413.00,2.3526
2412.00,2.3715
2411.00,2.3889
2410.00,2.4045
2409.00,2.4189
2408.00,2.4328
2407.00,2.4473
2406.00,2.4622
2405.00,2.4774
2404.00,2.4920
2403.00,2.5055
2402.00,2.5174
2401.00,2.5278
2400.00,2.5368
2399.00,2.5446
2398.00,2.5517
2397.00,2.5592
2396.00,2.5677
2395.00,2.5777
2394.00,2.5882
2393.00,2.5984
2392.00,2.6075
2391.00,2.6157
2390.00,2.6240
2389.00,2.6331
2388.00,2.6439
2387.00,2.6561
2386.00,2.6740
2385.00,2.6924
2384.00,2.7257
2383.00,2.7482
2382.00,2.8154
2381.00,2.6926
2380.00,2.6548
2379.00,2.6698
2378.00,2.6628
2377.00,2.6680
2376.00,2.6661
2375.00,2.6662
2374.00,2.6638
2373.00,2.6621
2372.00,2.6606
2371.00,2.6581
2370.00,2.6540
2369.00,2.6489
2368.00,2.6439
2367.00,2.6388
2366.00,2.6328
2365.00,2.6262
2364.00,2.6200
2363.00,2.6139
2362.00,2.6073
2361.00,2.5999
2360.00,2.5915
2359.00,2.5810
2358.00,2.5680
2357.00,2.5533
2356.00,2.5389
2355.00,2.5250
2354.00,2.5109
2353.00,2.4959
2352.00,2.4811
2351.00,2.4654
2350.00,2.4498
2349.00,2.4311
2348.00,2.4158
2347.00,2.3843
2346.00,2.3737
2345.00,2.3572
2344.00,2.3213
2343.00,2.2855
2342.00,2.2708
2341.00,2.2746
2340.00,2.2709
2339.00,2.2567
2338.00,2.2364
2337.00,2.2139
2336.00,2.1883
2335.00,2.1647
2334.00,2.1493
2333.00,2.1454
2332.00,2.1476
2331.00,2.1493
2330.00,2.1455
2329.00,2.1411
2328.00,2.1394
2327.00,2.1372
2326.00,2.1353
2325.00,2.1321
2324.00,2.1351
2323.00,2.1417
2322.00,2.1479
2321.00,2.1498
2320.00,2.1477
2319.00,2.1495
2318.00,2.1571
2317.00,2.1719
2316.00,2.1870
2315.00,2.2003
2314.00,2.2078
2313.00,2.2117
2312.00,2.2136
2311.00,2.2185
2310.00,2.2289
2309.00,2.2471
2308.00,2.2718
2307.00,2.3018
2306.00,2.3355
2305.00,2.3723
2304.00,2.4104
2303.00,2.4477
2302.00,2.4817
2301.00,2.5123
2300.00,2.5401
2299.00,2.5673
2298.00,2.5935
2297.00,2.6169
2296.00,2.6353
2295.00,2.6460
2294.00,2.6454
2293.00,2.6293
2292.00,2.5974
2291.00,2.5539
2290.00,2.5065
2289.00,2.4626
2288.00,2.4285
2287.00,2.4072
2286.00,2.3987
2285.00,2.4009
2284.00,2.4114
2283.00,2.4278
2282.00,2.4479
2281.00,2.4697
2280.00,2.4915
2279.00,2.5127
2278.00,2.5323
2277.00,2.5500
2276.00,2.5662
2275.00,2.5828
2274.00,2.6005
2273.00,2.6188
2272.00,2.6368
2271.00,2.6545
2270.00,2.6713
2269.00,2.6859
2268.00,2.6981
2267.00,2.7102
2266.00,2.7243
2265.00,2.7397
2264.00,2.7537
2263.00,2.7659
2262.00,2.7789
2261.00,2.7964
2260.00,2.8233
2259.00,2.8661
2258.00,2.9334
2257.00,3.0329
2256.00,3.1683
2255.00,3.3359
2254.00,3.5119
2253.00,3.6299
2252.00,3.6105
2251.00,3.4758
2250.00,3.3060
2249.00,3.1431
2248.00,3.0000
2247.00,2.8811
2246.00,2.7885
2245.00,2.7213
2244.00,2.6766
2243.00,2.6507
2242.00,2.6402
2241.00,2.6419
2240.00,2.6523
2239.00,2.6678
2238.00,2.6849
2237.00,2.7012
2236.00,2.7155
2235.00,2.7274
2234.00,2.7370
2233.00,2.7449
2232.00,2.7522
2231.00,2.7596
2230.00,2.7670
2229.00,2.7725
2228.00,2.7748
2227.00,2.7744
2226.00,2.7733
2225.00,2.7726
2224.00,2.7715
2223.00,2.7684
2222.00,2.7633
2221.00,2.7574
2220.00,2.7521
2219.00,2.7474
2218.00,2.7420
2217.00,2.7350
2216.00,2.7266
2215.00,2.7175
2214.00,2.7086
2213.00,2.6999
2212.00,2.6906
2211.00,2.6794
2210.00,2.6656
2209.00,2.6491
2208.00,2.6308
2207.00,2.6128
2206.00,2.5969
2205.00,2.5838
2204.00,2.5721
2203.00,2.5592
2202.00,2.5434
2201.00,2.5247
2200.00,2.5038
2199.00,2.4811
2198.00,2.4571
2197.00,2.4318
2196.00,2.4053
2195.00,2.3772
2194.00,2.3471
2193.00,2.3150
2192.00,2.2812
2191.00,2.2453
2190.00,2.2070
2189.00,2.1664
2188.00,2.1237
2187.00,2.0789
2186.00,2.0321
2185.00,1.9827
2184.00,1.9307
2183.00,1.8761
2182.00,1.8195
2181.00,1.7616
2180.00,1.7035
2179.00,1.6459
2178.00,1.5899
2177.00,1.5365
2176.00,1.4868
2175.00,1.4416
2174.00,1.4015
2173.00,1.3675
2172.00,1.3405
2171.00,1.3211
2170.00,1.3099
2169.00,1.3077
2168.00,1.3146
2167.00,1.3309
2166.00,1.3562
2165.00,1.3901
2164.00,1.4315
2163.00,1.4792
2162.00,1.5317
2161.00,1.5877
2160.00,1.6459
2159.00,1.7052
2158.00,1.7646
2157.00,1.8232
2156.00,1.8804
2155.00,1.9355
2154.00,1.9881
2153.00,2.0382
2152.00,2.0856
2151.00,2.1304
2150.00,2.1729
2149.00,2.2130
2148.00,2.2508
2147.00,2.2862
2146.00,2.3199
2145.00,2.3520
2144.00,2.3823
2143.00,2.4104
2142.00,2.4368
2141.00,2.4623
2140.00,2.4875
2139.00,2.5118
2138.00,2.5348
2137.00,2.5562
2136.00,2.5764
2135.00,2.5957
2134.00,2.6138
2133.00,2.6304
2132.00,2.6461
2131.00,2.6618
2130.00,2.6780
2129.00,2.6937
2128.00,2.7072
2127.00,2.7185
2126.00,2.7291
2125.00,2.7406
2124.00,2.7523
2123.00,2.7619
2122.00,2.7690
2121.00,2.7752
2120.00,2.7821
2119.00,2.7899
2118.00,2.7978
2117.00,2.8058
2116.00,2.8139
2115.00,2.8216
2114.00,2.8283
2113.00,2.8338
2112.00,2.8385
2111.00,2.8424
2110.00,2.8453
2109.00,2.8477
2108.00,2.8500
2107.00,2.8524
2106.00,2.8541
2105.00,2.8550
2104.00,2.8555
2103.00,2.8560
2102.00,2.8566
2101.00,2.8570
2100.00,2.8570
2099.00,2.8561
2098.00,2.8534
2097.00,2.8489
2096.00,2.8434
2095.00,2.8380
2094.00,2.8334
2093.00,2.8301
2092.00,2.8279
2091.00,2.8260
2090.00,2.8228
2089.00,2.8172
2088.00,2.8095
2087.00,2.8006
2086.00,2.7911
2085.00,2.7808
2084.00,2.7695
2083.00,2.7575
2082.00,2.7452
2081.00,2.7332
2080.00,2.7216
2079.00,2.7096
2078.00,2.6960
2077.00,2.6806
2076.00,2.6647
2075.00,2.6500
2074.00,2.6362
2073.00,2.6212
2072.00,2.6034
2071.00,2.5834
2070.00,2.5632
2069.00,2.5436
2068.00,2.5236
2067.00,2.5023
2066.00,2.4794
2065.00,2.4552
2064.00,2.4295
2063.00,2.4014
2062.00,2.3704
2061.00,2.3373
2060.00,2.3029
2059.00,2.2671
2058.00,2.2292
2057.00,2.1886
2056.00,2.1453
2055.00,2.0989
2054.00,2.0495
2053.00,1.9973
2052.00,1.9426
2051.00,1.8855
2050.00,1.8266
2049.00,1.7669
2048.00,1.7075
2047.00,1.6497
2046.00,1.5945
2045.00,1.5432
2044.00,1.4966
2043.00,1.4560
2042.00,1.4221
2041.00,1.3960
2040.00,1.3780
2039.00,1.3682
2038.00,1.3671
2037.00,1.3752
2036.00,1.3932
2035.00,1.4208
2034.00,1.4570
2033.00,1.5006
2032.00,1.5504
2031.00,1.6047
2030.00,1.6624
2029.00,1.7223
2028.00,1.7832
2027.00,1.8440
2026.00,1.9037
2025.00,1.9616
2024.00,2.0173
2023.00,2.0706
2022.00,2.1213
2021.00,2.1692
2020.00,2.2142
2019.00,2.2569
2018.00,2.2980
2017.00,2.3373
2016.00,2.3738
2015.00,2.4065
2014.00,2.4361
2013.00,2.4643
2012.00,2.4928
2011.00,2.5220
2010.00,2.5509
2009.00,2.5780
2008.00,2.6023
2007.00,2.6243
2006.00,2.6453
2005.00,2.6662
2004.00,2.6864
2003.00,2.7051
2002.00,2.7217
2001.00,2.7367
2000.00,2.7505
1999.00,2.7638
1998.00,2.7779
1997.00,2.7932
1996.00,2.8087
1995.00,2.8225
1994.00,2.8338
1993.00,2.8437
1992.00,2.8533
1991.00,2.8631
1990.00,2.8732
1989.00,2.8838
1988.00,2.8945
1987.00,2.9034
1986.00,2.9094
1985.00,2.9139
1984.00,2.9194
1983.00,2.9264
1982.00,2.9329
1981.00,2.9372
1980.00,2.9397
1979.00,2.9416
1978.00,2.9436
1977.00,2.9457
1976.00,2.9485
1975.00,2.9520
1974.00,2.9565
1973.00,2.9618
1972.00,2.9671
1971.00,2.9693
1970.00,2.9660
1969.00,2.9589
1968.00,2.9529
1967.00,2.9513
1966.00,2.9527
1965.00,2.9535
1964.00,2.9519
1963.00,2.9487
1962.00,2.9450
1961.00,2.9413
1960.00,2.9376
1959.00,2.9333
1958.00,2.9273
1957.00,2.9190
1956.00,2.9095
1955.00,2.8999
1954.00,2.8907
1953.00,2.8811
1952.00,2.8713
1951.00,2.8622
1950.00,2.8545
1949.00,2.8471
1948.00,2.8384
1947.00,2.8276
1946.00,2.8147
1945.00,2.8002
1944.00,2.7854
1943.00,2.7716
1942.00,2.7589
1941.00,2.7454
1940.00,2.7284
1939.00,2.7070
1938.00,2.6830
1937.00,2.6594
1936.00,2.6376
1935.00,2.6161
1934.00,2.5930
1933.00,2.5672
1932.00,2.5388
1931.00,2.5085
1930.00,2.4769
1929.00,2.4439
1928.00,2.4094
1927.00,2.3731
1926.00,2.3349
1925.00,2.2945
1924.00,2.2519
1923.00,2.2075
1922.00,2.1608
1921.00,2.1102
1920.00,2.0547
1919.00,1.9954
1918.00,1.9351
1917.00,1.8754
1916.00,1.8154
1915.00,1.7542
1914.00,1.6937
1913.00,1.6374
1912.00,1.5874
1911.00,1.5442
1910.00,1.5083
1909.00,1.4807
1908.00,1.4618
1907.00,1.4516
1906.00,1.4503
1905.00,1.4590
1904.00,1.4783
1903.00,1.5081
1902.00,1.5472
1901.00,1.5943
1900.00,1.6479
1899.00,1.7059
1898.00,1.7668
1897.00,1.8297
1896.00,1.8938
1895.00,1.9582
1894.00,2.0212
1893.00,2.0808
1892.00,2.1363
1891.00,2.1890
1890.00,2.2411
1889.00,2.2923
1888.00,2.3397
1887.00,2.3815
1886.00,2.4190
1885.00,2.4548
1884.00,2.4901
1883.00,2.5239
1882.00,2.5555
1881.00,2.5849
1880.00,2.6131
1879.00,2.6409
1878.00,2.6682
1877.00,2.6937
1876.00,2.7165
1875.00,2.7377
1874.00,2.7590
1873.00,2.7800
1872.00,2.7995
1871.00,2.8176
1870.00,2.8368
1869.00,2.8581
1868.00,2.8787
1867.00,2.8945
1866.00,2.9044
1865.00,2.9112
1864.00,2.9189
1863.00,2.9299
1862.00,2.9437
1861.00,2.9577
1860.00,2.9698
1859.00,2.9793
1858.00,2.9874
1857.00,2.9955
1856.00,3.0049
1855.00,3.0147
1854.00,3.0226
1853.00,3.0272
1852.00,3.0302
1851.00,3.0337
1850.00,3.0371
1849.00,3.0400
1848.00,3.0443
1847.00,3.0529
1846.00,3.0651
1845.00,3.0756
1844.00,3.0801
1843.00,3.0792
1842.00,3.0758
1841.00,3.0707
1840.00,3.0658
1839.00,3.0632
1838.00,3.0633
1837.00,3.0646
1836.00,3.0667
1835.00,3.0698
1834.00,3.0720
1833.00,3.0690
1832.00,3.0608
1831.00,3.0521
1830.00,3.0466
1829.00,3.0431
1828.00,3.0389
1827.00,3.0340
1826.00,3.0296
1825.00,3.0249
1824.00,3.0183
1823.00,3.0086
1822.00,2.9951
1821.00,2.9785
1820.00,2.9628
1819.00,2.9529
1818.00,2.9494
1817.00,2.9461
1816.00,2.9368
1815.00,2.9214
1814.00,2.9036
1813.00,2.8861
1812.00,2.8696
1811.00,2.8549
1810.00,2.8411
1809.00,2.8250
1808.00,2.8049
1807.00,2.7825
1806.00,2.7601
1805.00,2.7380
1804.00,2.7160
1803.00,2.6952
1802.00,2.6750
1801.00,2.6516
1800.00,2.6210
1799.00,2.5827
1798.00,2.5403
1797.00,2.4974
1796.00,2.4554
1795.00,2.4127
1794.00,2.3663
1793.00,2.3160
1792.00,2.2645
1791.00,2.2137
1790.00,2.1612
1789.00,2.1030
1788.00,2.0393
1787.00,1.9748
1786.00,1.9140
1785.00,1.8595
1784.00,1.8108
1783.00,1.7665
1782.00,1.7269
1781.00,1.6960
1780.00,1.6780
1779.00,1.6735
1778.00,1.6804
1777.00,1.6980
1776.00,1.7265
1775.00,1.7641
1774.00,1.8086
1773.00,1.8609
1772.00,1.9220
1771.00,1.9878
1770.00,2.0532
1769.00,2.1175
1768.00,2.1822
1767.00,2.2454
1766.00,2.3008
1765.00,2.3462
1764.00,2.3870
1763.00,2.4314
1762.00,2.4824
1761.00,2.5367
1760.00,2.5869
1759.00,2.6287
1758.00,2.6659
1757.00,2.7057
1756.00,2.7490
1755.00,2.7879
1754.00,2.8167
1753.00,2.8403
1752.00,2.8662
1751.00,2.8950
1750.00,2.9224
1749.00,2.9463
1748.00,2.9683
1747.00,2.9899
1746.00,3.0103
1745.00,3.0294
1744.00,3.0471
1743.00,3.0608
1742.00,3.0695
1741.00,3.0762
1740.00,3.0872
1739.00,3.1054
1738.00,3.1268
1737.00,3.1436
1736.00,3.1521
1735.00,3.1562
1734.00,3.1663
1733.00,3.1880
1732.00,3.2116
1731.00,3.2256
1730.00,3.2309
1729.00,3.2345
1728.00,3.2391
1727.00,3.2432
1726.00,3.2480
1725.00,3.2585
1724.00,3.2755
1723.00,3.2947
1722.00,3.3134
1721.00,3.3331
1720.00,3.3564
1719.00,3.3846
1718.00,3.4196
1717.00,3.4635
1716.00,3.5156
1715.00,3.5728
1714.00,3.6345
1713.00,3.7025
1712.00,3.7766
1711.00,3.8525
1710.00,3.9212
1709.00,3.9636
1708.00,3.9575
1707.00,3.9051
1706.00,3.8272
1705.00,3.7377
1704.00,3.6428
1703.00,3.5485
1702.00,3.4586
1701.00,3.3749
1700.00,3.3023
1699.00,3.2453
1698.00,3.2025
1697.00,3.1748
1696.00,3.1654
1695.00,3.1723
1694.00,3.1861
1693.00,3.1955
1692.00,3.1955
1691.00,3.1885
1690.00,3.1818
1689.00,3.1838
1688.00,3.1944
1687.00,3.2034
1686.00,3.2025
1685.00,3.1956
1684.00,3.1938
1683.00,3.2016
1682.00,3.2115
1681.00,3.2150
1680.00,3.2112
1679.00,3.2022
1678.00,3.1885
1677.00,3.1731
1676.00,3.1610
1675.00,3.1532
1674.00,3.1450
1673.00,3.1310
1672.00,3.1122
1671.00,3.0949
1670.00,3.0841
1669.00,3.0787
1668.00,3.0722
1667.00,3.0574
1666.00,3.0330
1665.00,3.0047
1664.00,2.9791
1663.00,2.9589
1662.00,2.9412
1661.00,2.9208
1660.00,2.8950
1659.00,2.8657
1658.00,2.8372
1657.00,2.8114
1656.00,2.7860
1655.00,2.7563
1654.00,2.7185
1653.00,2.6716
1652.00,2.6234
1651.00,2.5830
1650.00,2.5470
1649.00,2.5119
1648.00,2.4764
1647.00,2.4375
1646.00,2.3969
1645.00,2.3588
1644.00,2.3234
1643.00,2.2892
1642.00,2.2570
1641.00,2.2275
1640.00,2.2006
1639.00,2.1757
1638.00,2.1527
1637.00,2.1315
1636.00,2.1133
1635.00,2.1003
1634.00,2.0949
1633.00,2.0948
1632.00,2.0961
1631.00,2.0997
1630.00,2.1071
1629.00,2.1191
1628.00,2.1359
1627.00,2.1572
1626.00,2.1817
1625.00,2.2094
1624.00,2.2417
1623.00,2.2800
1622.00,2.3226
1621.00,2.3654
1620.00,2.4043
1619.00,2.4391
1618.00,2.4727
1617.00,2.5094
1616.00,2.5521
1615.00,2.5990
1614.00,2.6449
1613.00,2.6865
1612.00,2.7240
1611.00,2.7577
1610.00,2.7864
1609.00,2.8120
1608.00,2.8381
1607.00,2.8651
1606.00,2.8901
1605.00,2.9128
1604.00,2.9365
1603.00,2.9623
1602.00,2.9874
1601.00,3.0085
1600.00,3.0268
1599.00,3.0456
1598.00,3.0660
1597.00,3.0875
1596.00,3.1087
1595.00,3.1286
1594.00,3.1459
1593.00,3.1610
1592.00,3.1752
1591.00,3.1882
1590.00,3.1988
1589.00,3.2079
1588.00,3.2178
1587.00,3.2299
1586.00,3.2427
1585.00,3.2538
1584.00,3.2622
1583.00,3.2683
1582.00,3.2736
1581.00,3.2794
1580.00,3.2843
1579.00,3.2855
1578.00,3.2830
1577.00,3.2802
1576.00,3.2808
1575.00,3.2845
1574.00,3.2901
1573.00,3.2963
1572.00,3.3019
1571.00,3.3038
1570.00,3.2993
1569.00,3.2908
1568.00,3.2822
1567.00,3.2750
1566.00,3.2714
1565.00,3.2743
1564.00,3.2805
1563.00,3.2814
1562.00,3.2741
1561.00,3.2664
1560.00,3.2677
1559.00,3.2725
1558.00,3.2645
1557.00,3.2504
1556.00,3.2431
1555.00,3.2425
1554.00,3.2443
1553.00,3.2430
1552.00,3.2405
1551.00,3.2430
1550.00,3.2513
1549.00,3.2566
1548.00,3.2498
1547.00,3.2318
1546.00,3.2124
1545.00,3.2002
1544.00,3.1938
1543.00,3.1837
1542.00,3.1617
1541.00,3.1282
1540.00,3.0915
1539.00,3.0633
1538.00,3.0487
1537.00,3.0392
1536.00,3.0268
1535.00,3.0124
1534.00,2.9979
1533.00,2.9856
1532.00,2.9744
1531.00,2.9591
1530.00,2.9365
1529.00,2.9098
1528.00,2.8860
1527.00,2.8685
1526.00,2.8540
1525.00,2.8363
1524.00,2.8121
1523.00,2.7846
1522.00,2.7599
1521.00,2.7414
1520.00,2.7265
1519.00,2.7075
1518.00,2.6825
1517.00,2.6576
1516.00,2.6374
1515.00,2.6205
1514.00,2.6027
1513.00,2.5848
1512.00,2.5715
1511.00,2.5654
1510.00,2.5651
1509.00,2.5682
1508.00,2.5733
1507.00,2.5778
1506.00,2.5796
1505.00,2.5819
1504.00,2.5880
1503.00,2.5993
1502.00,2.6183
1501.00,2.6431
1500.00,2.6702
1499.00,2.6967
1498.00,2.7240
1497.00,2.7564
1496.00,2.7950
1495.00,2.8336
1494.00,2.8653
1493.00,2.8928
1492.00,2.9268
1491.00,2.9724
1490.00,3.0216
1489.00,3.0600
1488.00,3.0834
1487.00,3.1017
1486.00,3.1242
1485.00,3.1481
1484.00,3.1648
1483.00,3.1722
1482.00,3.1790
1481.00,3.1934
1480.00,3.2150
1479.00,3.2391
1478.00,3.2656
1477.00,3.2976
1476.00,3.3332
1475.00,3.3644
1474.00,3.3861
1473.00,3.4017
1472.00,3.4157
1471.00,3.4288
1470.00,3.4404
1469.00,3.4528
1468.00,3.4685
1467.00,3.4852
1466.00,3.4996
1465.00,3.5148
1464.00,3.5395
1463.00,3.5765
1462.00,3.6172
1461.00,3.6445
1460.00,3.6484
1459.00,3.6409
1458.00,3.6445
1457.00,3.6643
1456.00,3.6864
1455.00,3.6989
1454.00,3.7070
1453.00,3.7234
1452.00,3.7399
1451.00,3.7286
1450.00,3.6939
1449.00,3.6770
1448.00,3.7035
1447.00,3.7605
1446.00,3.8065
1445.00,3.8081
1444.00,3.7737
1443.00,3.7359
1442.00,3.7160
1441.00,3.7106
1440.00,3.7019
1439.00,3.6822
1438.00,3.6690
1437.00,3.6861
1436.00,3.7308
1435.00,3.7682
1434.00,3.7716
1433.00,3.7513
1432.00,3.7254
1431.00,3.7006
1430.00,3.6832
1429.00,3.6839
1428.00,3.7056
1427.00,3.7365
1426.00,3.7619
1425.00,3.7784
1424.00,3.7870
1423.00,3.7812
1422.00,3.7593
1421.00,3.7364
1420.00,3.7307
1419.00,3.7444
1418.00,3.7643
1417.00,3.7781
1416.00,3.7825
1415.00,3.7720
1414.00,3.7418
1413.00,3.7072
1412.00,3.6929
1411.00,3.7061
1410.00,3.7320
1409.00,3.7473
1408.00,3.7380
1407.00,3.7092
1406.00,3.6775
1405.00,3.6575
1404.00,3.6493
1403.00,3.6367
1402.00,3.6052
1401.00,3.5661
1400.00,3.5451
1399.00,3.5490
1398.00,3.5593
1397.00,3.5557
1396.00,3.5409
1395.00,3.5315
1394.00,3.5340
1393.00,3.5374
1392.00,3.5293
1391.00,3.5123
1390.00,3.4941
1389.00,3.4761
1388.00,3.4583
1387.00,3.4463
1386.00,3.4448
1385.00,3.4506
1384.00,3.4578
1383.00,3.4665
1382.00,3.4839
1381.00,3.5167
1380.00,3.5672
1379.00,3.6346
1378.00,3.7144
1377.00,3.7920
1376.00,3.8387
1375.00,3.8375
1374.00,3.8129
1373.00,3.7890
1372.00,3.7574
1371.00,3.7053
1370.00,3.6397
1369.00,3.5769
1368.00,3.5223
1367.00,3.4708
1366.00,3.4211
1365.00,3.3780
1364.00,3.3442
1363.00,3.3151
1362.00,3.2840
1361.00,3.2468
1360.00,3.2015
1359.00,3.1470
1358.00,3.0860
1357.00,3.0262
1356.00,2.9758
1355.00,2.9379
1354.00,2.9111
1353.00,2.8932
1352.00,2.8836
1351.00,2.8821
1350.00,2.8855
1349.00,2.8874
1348.00,2.8816
1347.00,2.8666
1346.00,2.8473
1345.00,2.8307
1344.00,2.8217
1343.00,2.8215
1342.00,2.8288
1341.00,2.8411
1340.00,2.8537
1339.00,2.8593
1338.00,2.8525
1337.00,2.8347
1336.00,2.8146
1335.00,2.8011
1334.00,2.7980
1333.00,2.8044
1332.00,2.8195
1331.00,2.8440
1330.00,2.8780
1329.00,2.9176
1328.00,2.9569
1327.00,2.9929
1326.00,3.0277
1325.00,3.0646
1324.00,3.1034
1323.00,3.1407
1322.00,3.1748
1321.00,3.2070
1320.00,3.2399
1319.00,3.2763
1318.00,3.3175
1317.00,3.3589
1316.00,3.3895
1315.00,3.4008
1314.00,3.3981
1313.00,3.3949
1312.00,3.3966
1311.00,3.3972
1310.00,3.3916
1309.00,3.3861
1308.00,3.3907
1307.00,3.4062
1306.00,3.4244
1305.00,3.4387
1304.00,3.4501
1303.00,3.4612
1302.00,3.4689
1301.00,3.4690
1300.00,3.4648
1299.00,3.4666
1298.00,3.4804
1297.00,3.5008
1296.00,3.5158
1295.00,3.5215
1294.00,3.5259
1293.00,3.5354
1292.00,3.5463
1291.00,3.5525
1290.00,3.5557
1289.00,3.5617
1288.00,3.5708
1287.00,3.5801
1286.00,3.5893
1285.00,3.5964
1284.00,3.5920
1283.00,3.5738
1282.00,3.5615
1281.00,3.5786
1280.00,3.6275
1279.00,3.6818
1278.00,3.7032
1277.00,3.6831
1276.00,3.6507
1275.00,3.6310
1274.00,3.6253
1273.00,3.6218
1272.00,3.6094
1271.00,3.5869
1270.00,3.5647
1269.00,3.5551
1268.00,3.5606
1267.00,3.5685
1266.00,3.5638
1265.00,3.5478
1264.00,3.5334
1263.00,3.5269
1262.00,3.5231
1261.00,3.5141
1260.00,3.5006
1259.00,3.4892
1258.00,3.4838
1257.00,3.4854
1256.00,3.4907
1255.00,3.4897
1254.00,3.4745
1253.00,3.4498
1252.00,3.4263
1251.00,3.4105
1250.00,3.4032
1249.00,3.3983
1248.00,3.3852
1247.00,3.3564
1246.00,3.3161
1245.00,3.2774
1244.00,3.2498
1243.00,3.2310
1242.00,3.2113
1241.00,3.1855
1240.00,3.1555
1239.00,3.1232
1238.00,3.0874
1237.00,3.0469
1236.00,3.0035
1235.00,2.9608
1234.00,2.9214
1233.00,2.8866
1232.00,2.8586
1231.00,2.8409
1230.00,2.8366
1229.00,2.8476
1228.00,2.8744
1227.00,2.9165
1226.00,2.9696
1225.00,3.0231
1224.00,3.0592
1223.00,3.0608
1222.00,3.0252
1221.00,2.9643
1220.00,2.8919
1219.00,2.8165
1218.00,2.7432
1217.00,2.6767
1216.00,2.6208
1215.00,2.5785
1214.00,2.5515
1213.00,2.5410
1212.00,2.5462
1211.00,2.5651
1210.00,2.5945
1209.00,2.6322
1208.00,2.6781
1207.00,2.7321
1206.00,2.7921
1205.00,2.8541
1204.00,2.9144
1203.00,2.9719
1202.00,3.0265
1201.00,3.0770
1200.00,3.1242
1199.00,3.1723
1198.00,3.2228
1197.00,3.2664
1196.00,3.2876
1195.00,3.2877
1194.00,3.2914
1193.00,3.3241
1192.00,3.3897
1191.00,3.4630
1190.00,3.5044
1189.00,3.5034
1188.00,3.4837
1187.00,3.4651
1186.00,3.4573
1185.00,3.4705
1184.00,3.5132
1183.00,3.5832
1182.00,3.6567
1181.00,3.6936
1180.00,3.6844
1179.00,3.6643
1178.00,3.6628
1177.00,3.6850
1176.00,3.7190
1175.00,3.7412
1174.00,3.7337
1173.00,3.7049
1172.00,3.6784
1171.00,3.6704
1170.00,3.6871
1169.00,3.7297
1168.00,3.7926
1167.00,3.8541
1166.00,3.8805
1165.00,3.8624
1164.00,3.8239
1163.00,3.7853
1162.00,3.7513
1161.00,3.7260
1160.00,3.7227
1159.00,3.7496
1158.00,3.7854
1157.00,3.7972
1156.00,3.7897
1155.00,3.7889
1154.00,3.8027
1153.00,3.8104
1152.00,3.7904
1151.00,3.7512
1150.00,3.7032
1149.00,3.6464
1148.00,3.5922
1147.00,3.5581
1146.00,3.5518
1145.00,3.5733
1144.00,3.6170
1143.00,3.6653
1142.00,3.6927
1141.00,3.7126
1140.00,3.7638
1139.00,3.8215
1138.00,3.8325
1137.00,3.8312
1136.00,3.8271
1135.00,3.8150
1134.00,3.8193
1133.00,3.8357
1132.00,3.8455
1131.00,3.8509
1130.00,3.8720
1129.00,3.9116
1128.00,3.9318
1127.00,3.8918
1126.00,3.8067
1125.00,3.7239
1124.00,3.6797
1123.00,3.6829
1122.00,3.7093
1121.00,3.7124
1120.00,3.6737
1119.00,3.6199
1118.00,3.5824
1117.00,3.5723
1116.00,3.5782
1115.00,3.5730
1114.00,3.5440
1113.00,3.5132
1112.00,3.5010
1111.00,3.5105
1110.00,3.5328
1109.00,3.5518
1108.00,3.5564
1107.00,3.5485
1106.00,3.5320
1105.00,3.4970
1104.00,3.4353
1103.00,3.3634
1102.00,3.3024
1101.00,3.2565
1100.00,3.2151
1099.00,3.1705
1098.00,3.1263
1097.00,3.0909
1096.00,3.0660
1095.00,3.0472
1094.00,3.0311
1093.00,3.0186
1092.00,3.0126
1091.00,3.0155
1090.00,3.0289
1089.00,3.0536
1088.00,3.0862
1087.00,3.1215
1086.00,3.1552
1085.00,3.1847
1084.00,3.2094
1083.00,3.2259
1082.00,3.2335
1081.00,3.2439
1080.00,3.2712
1079.00,3.3149
1078.00,3.3608
1077.00,3.3992
1076.00,3.4346
1075.00,3.4704
1074.00,3.4981
1073.00,3.5120
1072.00,3.5225
1071.00,3.5458
1070.00,3.5939
1069.00,3.6687
1068.00,3.7395
1067.00,3.7656
1066.00,3.7724
1065.00,3.7986
1064.00,3.8312
1063.00,3.8111
1062.00,3.7450
1061.00,3.6988
1060.00,3.7164
1059.00,3.8087
1058.00,3.9456
1057.00,4.0490
1056.00,4.0508
1055.00,3.9707
1054.00,3.8820
1053.00,3.8315
1052.00,3.8184
1051.00,3.8180
1050.00,3.8251
1049.00,3.8570
1048.00,3.9222
1047.00,3.9960
1046.00,4.0333
1045.00,4.0347
1044.00,4.0417
1043.00,4.0632
1042.00,4.0386
1041.00,3.9577
1040.00,3.9144
1039.00,3.9567
1038.00,4.0611
1037.00,4.1276
1036.00,4.0896
1035.00,4.0001
1034.00,3.9220
1033.00,3.8930
1032.00,3.9123
1031.00,3.9358
1030.00,3.9146
1029.00,3.8724
1028.00,3.8614
1027.00,3.8805
1026.00,3.8882
1025.00,3.8805
1024.00,3.8488
1023.00,3.7784
1022.00,3.7132
1021.00,3.6847
1020.00,3.6907
1019.00,3.7109
1018.00,3.7281
1017.00,3.7450
1016.00,3.7851
1015.00,3.8609
1014.00,3.9315
1013.00,3.9479
1012.00,3.9699
1011.00,4.0453
1010.00,4.0955
1009.00,4.1051
1008.00,4.1348
1007.00,4.1988
1006.00,4.4044
1005.00,4.7009
1004.00,4.3539
1003.00,4.1492
1002.00,4.0310
1001.00,3.9567
1000.00,3.9064
999.00,3.8606
998.00,3.8153
997.00,3.7803
996.00,3.7820
995.00,3.8361
994.00,3.9123
993.00,3.9449
992.00,3.9133
991.00,3.8797
990.00,3.8825
989.00,3.9173
988.00,3.9966
987.00,4.1565
986.00,4.4006
985.00,4.5242
984.00,4.2967
983.00,4.0290
982.00,3.8436
981.00,3.7317
980.00,3.6897
979.00,3.7269
978.00,3.8550
977.00,4.0747
976.00,4.3480
975.00,4.5247
974.00,4.4119
973.00,4.2837
972.00,4.2551
971.00,4.3403
970.00,4.5587
969.00,4.6702
968.00,4.4812
967.00,4.3176
966.00,4.1913
965.00,4.0803
964.00,3.9832
963.00,3.9250
962.00,3.9231
961.00,3.9464
960.00,3.9280
959.00,3.8763
958.00,3.8293
957.00,3.7928
956.00,3.7772
955.00,3.7890
954.00,3.8325
953.00,3.9124
952.00,4.0022
951.00,4.0501
950.00,4.0426
949.00,3.9930
948.00,3.9285
947.00,3.8781
946.00,3.8498
945.00,3.8294
944.00,3.7976
943.00,3.7559
942.00,3.7322
941.00,3.7526
940.00,3.8168
939.00,3.8953
938.00,3.9530
937.00,3.9921
936.00,4.0348
935.00,4.0653
934.00,4.0607
933.00,4.0351
932.00,4.0058
931.00,3.9742
930.00,3.9272
929.00,3.8738
928.00,3.8393
927.00,3.8225
926.00,3.7966
925.00,3.7554
924.00,3.7333
923.00,3.7640
922.00,3.8568
921.00,3.9839
920.00,4.0709
919.00,4.0914
918.00,4.0824
917.00,4.0570
916.00,4.0311
915.00,4.0331
914.00,4.0959
913.00,4.2426
912.00,4.4033
911.00,4.3661
910.00,4.1955
909.00,4.0914
908.00,4.1126
907.00,4.2106
906.00,4.1882
905.00,4.0333
904.00,3.8988
903.00,3.8296
902.00,3.8305
901.00,3.8800
900.00,3.9174
899.00,3.8967
898.00,3.8742
897.00,3.9123
896.00,3.9962
895.00,4.0116
894.00,3.9295
893.00,3.8837
892.00,3.9205
891.00,3.9430
890.00,3.8614
889.00,3.8068
888.00,3.8488
887.00,3.9742
886.00,4.1071
885.00,4.1312
884.00,4.0792
883.00,4.0749
882.00,4.0972
881.00,3.9932
880.00,3.8630
879.00,3.7988
878.00,3.7657
877.00,3.7236
876.00,3.6657
875.00,3.6192
874.00,3.6322
873.00,3.7433
872.00,3.9778
871.00,4.3329
870.00,4.5380
869.00,4.2461
868.00,4.0088
867.00,3.9362
866.00,3.9585
865.00,3.9701
864.00,3.9420
863.00,3.8908
862.00,3.8434
861.00,3.8395
860.00,3.8804
859.00,3.9384
858.00,3.9844
857.00,4.0098
856.00,4.0312
855.00,4.0238
854.00,3.9540
853.00,3.8882
852.00,3.8574
851.00,3.8314
850.00,3.7973
849.00,3.7805
848.00,3.8264
847.00,3.8983
846.00,3.8577
845.00,3.8294
844.00,3.9255
843.00,4.0522
842.00,4.0843
841.00,4.0649
840.00,4.0155
839.00,3.9510
838.00,3.8596
837.00,3.7828
836.00,3.7585
835.00,3.7729
834.00,3.7760
833.00,3.7296
832.00,3.6682
831.00,3.6392
830.00,3.6449
829.00,3.6564
828.00,3.6743
827.00,3.7155
826.00,3.7395
825.00,3.7240
824.00,3.7206
823.00,3.7606
822.00,3.8433
821.00,3.9314
820.00,3.9446
819.00,3.8810
818.00,3.8082
817.00,3.7714
816.00,3.8085
815.00,3.9466
814.00,4.2076
813.00,4.4653
812.00,4.2774
811.00,4.0018
810.00,3.8108
809.00,3.6970
808.00,3.6560
807.00,3.6878
806.00,3.7937
805.00,3.9691
804.00,4.1685
803.00,4.2177
802.00,4.1154
801.00,4.0983
800.00,4.1967
799.00,4.1338
798.00,3.9522
797.00,3.8295
796.00,3.7609
795.00,3.7481
794.00,3.7591
793.00,3.7667
792.00,3.7802
791.00,3.7726
790.00,3.7349
789.00,3.7071
788.00,3.7139
787.00,3.7523
786.00,3.7971
785.00,3.8403
784.00,3.9176
783.00,4.0937
782.00,4.2361
781.00,4.0837
780.00,4.0209
779.00,4.0851
778.00,4.0807
777.00,4.0193
776.00,4.0202
775.00,4.0496
774.00,4.0323
773.00,4.0021
772.00,4.0090
771.00,4.0421
770.00,4.0555
769.00,4.0122
768.00,3.9354
767.00,3.8824
766.00,3.8669
765.00,3.8569
764.00,3.8266
763.00,3.7867
762.00,3.7616
761.00,3.7517
760.00,3.7283
759.00,3.6814
758.00,3.6389
757.00,3.6365
756.00,3.6911
755.00,3.7783
754.00,3.8410
753.00,3.8680
752.00,3.9014
751.00,3.9497
750.00,3.9630
749.00,3.9266
748.00,3.8848
747.00,3.8448
746.00,3.8105
745.00,3.7961
744.00,3.7971
743.00,3.7819
742.00,3.7273
741.00,3.6621
740.00,3.6640
739.00,3.7743
738.00,4.0761
737.00,4.5442
736.00,4.2638
735.00,4.0641
734.00,3.8918
733.00,3.7569
732.00,3.7378
731.00,3.8237
730.00,4.0049
729.00,4.1867
728.00,4.2312
727.00,4.1864
726.00,4.1689
725.00,4.1712
724.00,4.1356
723.00,4.0372
722.00,3.9183
721.00,3.8495
720.00,3.8459
719.00,3.8564
718.00,3.8462
717.00,3.8362
716.00,3.8101
715.00,3.7456
714.00,3.6789
713.00,3.6617
712.00,3.7245
711.00,3.8940
710.00,4.1652
709.00,4.2953
708.00,4.2726
707.00,4.3122
706.00,4.3693
705.00,4.4274
704.00,4.4105
703.00,4.4138
702.00,4.2882
701.00,3.9689
700.00,3.7487
