Created as New Dataset,Sample 021 By Administrator Date Wednesday, November 24 2021
cm-1,A
7502.00,0.4640
7501.00,0.4615
7500.00,0.4601
7499.00,0.4596
7498.00,0.4595
7497.00,0.4599
7496.00,0.4608
7495.00,0.4627
7494.00,0.4651
7493.00,0.4679
7492.00,0.4705
7491.00,0.4732
7490.00,0.4762
7489.00,0.4799
7488.00,0.4843
7487.00,0.4891
7486.00,0.4944
7485.00,0.5004
7484.00,0.5074
7483.00,0.5151
7482.00,0.5233
7481.00,0.5316
7480.00,0.5401
7479.00,0.5485
7478.00,0.5570
7477.00,0.5657
7476.00,0.5747
7475.00,0.5838
7474.00,0.5930
7473.00,0.6022
7472.00,0.6118
7471.00,0.6217
7470.00,0.6318
7469.00,0.6420
7468.00,0.6520
7467.00,0.6618
7466.00,0.6716
7465.00,0.6815
7464.00,0.6916
7463.00,0.7016
7462.00,0.7113
7461.00,0.7206
7460.00,0.7300
7459.00,0.7397
7458.00,0.7496
7457.00,0.7591
7456.00,0.7680
7455.00,0.7764
7454.00,0.7847
7453.00,0.7932
7452.00,0.8015
7451.00,0.8092
7450.00,0.8164
7449.00,0.8236
7448.00,0.8311
7447.00,0.8387
7446.00,0.8460
7445.00,0.8527
7444.00,0.8588
7443.00,0.8646
7442.00,0.8702
7441.00,0.8753
7440.00,0.8797
7439.00,0.8831
7438.00,0.8859
7437.00,0.8883
7436.00,0.8903
7435.00,0.8920
7434.00,0.8934
7433.00,0.8946
7432.00,0.8959
7431.00,0.8973
7430.00,0.8987
7429.00,0.8998
7428.00,0.9011
7427.00,0.9027
7426.00,0.9045
7425.00,0.9056
7424.00,0.9054
7423.00,0.9041
7422.00,0.9020
7421.00,0.8994
7420.00,0.8960
7419.00,0.8918
7418.00,0.8871
7417.00,0.8823
7416.00,0.8773
7415.00,0.8721
7414.00,0.8665
7413.00,0.8605
7412.00,0.8540
7411.00,0.8471
7410.00,0.8400
7409.00,0.8331
7408.00,0.8265
7407.00,0.8202
7406.00,0.8143
7405.00,0.8086
7404.00,0.8025
7403.00,0.7955
7402.00,0.7878
7401.00,0.7796
7400.00,0.7712
7399.00,0.7627
7398.00,0.7543
7397.00,0.7463
7396.00,0.7390
7395.00,0.7322
7394.00,0.7256
7393.00,0.7190
7392.00,0.7123
7391.00,0.7054
7390.00,0.6983
7389.00,0.6913
7388.00,0.6846
7387.00,0.6785
7386.00,0.6729
7385.00,0.6678
7384.00,0.6628
7383.00,0.6577
7382.00,0.6524
7381.00,0.6471
7380.00,0.6418
7379.00,0.6366
7378.00,0.6314
7377.00,0.6260
7376.00,0.6204
7375.00,0.6147
7374.00,0.6093
7373.00,0.6041
7372.00,0.5989
7371.00,0.5938
7370.00,0.5892
7369.00,0.5853
7368.00,0.5820
7367.00,0.5791
7366.00,0.5766
7365.00,0.5748
7364.00,0.5735
7363.00,0.5726
7362.00,0.5719
7361.00,0.5718
7360.00,0.5725
7359.00,0.5739
7358.00,0.5758
7357.00,0.5782
7356.00,0.5809
7355.00,0.5840
7354.00,0.5877
7353.00,0.5923
7352.00,0.5974
7351.00,0.6028
7350.00,0.6082
7349.00,0.6138
7348.00,0.6198
7347.00,0.6261
7346.00,0.6329
7345.00,0.6400
7344.00,0.6474
7343.00,0.6553
7342.00,0.6642
7341.00,0.6738
7340.00,0.6839
7339.00,0.6937
7338.00,0.7030
7337.00,0.7116
7336.00,0.7200
7335.00,0.7284
7334.00,0.7374
7333.00,0.7470
7332.00,0.7568
7331.00,0.7668
7330.00,0.7772
7329.00,0.7880
7328.00,0.7992
7327.00,0.8101
7326.00,0.8203
7325.00,0.8298
7324.00,0.8387
7323.00,0.8476
7322.00,0.8568
7321.00,0.8663
7320.00,0.8759
7319.00,0.8852
7318.00,0.8944
7317.00,0.9036
7316.00,0.9128
7315.00,0.9216
7314.00,0.9299
7313.00,0.9378
7312.00,0.9453
7311.00,0.9521
7310.00,0.9586
7309.00,0.9651
7308.00,0.9716
7307.00,0.9779
7306.00,0.9839
7305.00,0.9900
7304.00,0.9964
7303.00,1.0030
7302.00,1.0091
7301.00,1.0144
7300.00,1.0187
7299.00,1.0222
7298.00,1.0251
7297.00,1.0277
7296.00,1.0304
7295.00,1.0330
7294.00,1.0350
7293.00,1.0367
7292.00,1.0385
7291.00,1.0407
7290.00,1.0427
7289.00,1.0435
7288.00,1.0431
7287.00,1.0425
7286.00,1.0424
7285.00,1.0425
7284.00,1.0415
7283.00,1.0392
7282.00,1.0361
7281.00,1.0333
7280.00,1.0308
7279.00,1.0282
7278.00,1.0249
7277.00,1.0212
7276.00,1.0175
7275.00,1.0141
7274.00,1.0105
7273.00,1.0064
7272.00,1.0017
7271.00,0.9965
7270.00,0.9907
7269.00,0.9844
7268.00,0.9776
7267.00,0.9709
7266.00,0.9643
7265.00,0.9576
7264.00,0.9502
7263.00,0.9419
7262.00,0.9334
7261.00,0.9250
7260.00,0.9167
7259.00,0.9081
7258.00,0.8992
7257.00,0.8902
7256.00,0.8813
7255.00,0.8723
7254.00,0.8631
7253.00,0.8536
7252.00,0.8440
7251.00,0.8343
7250.00,0.8247
7249.00,0.8153
7248.00,0.8063
7247.00,0.7975
7246.00,0.7888
7245.00,0.7801
7244.00,0.7713
7243.00,0.7626
7242.00,0.7542
7241.00,0.7460
7240.00,0.7380
7239.00,0.7303
7238.00,0.7229
7237.00,0.7163
7236.00,0.7103
7235.00,0.7047
7234.00,0.6993
7233.00,0.6941
7232.00,0.6892
7231.00,0.6848
7230.00,0.6808
7229.00,0.6774
7228.00,0.6743
7227.00,0.6718
7226.00,0.6698
7225.00,0.6686
7224.00,0.6679
7223.00,0.6678
7222.00,0.6682
7221.00,0.6691
7220.00,0.6705
7219.00,0.6725
7218.00,0.6752
7217.00,0.6786
7216.00,0.6824
7215.00,0.6867
7214.00,0.6915
7213.00,0.6970
7212.00,0.7030
7211.00,0.7093
7210.00,0.7158
7209.00,0.7228
7208.00,0.7302
7207.00,0.7380
7206.00,0.7459
7205.00,0.7541
7204.00,0.7626
7203.00,0.7714
7202.00,0.7801
7201.00,0.7888
7200.00,0.7975
7199.00,0.8064
7198.00,0.8154
7197.00,0.8247
7196.00,0.8342
7195.00,0.8436
7194.00,0.8530
7193.00,0.8624
7192.00,0.8718
7191.00,0.8811
7190.00,0.8906
7189.00,0.9005
7188.00,0.9107
7187.00,0.9207
7186.00,0.9301
7185.00,0.9388
7184.00,0.9471
7183.00,0.9551
7182.00,0.9628
7181.00,0.9701
7180.00,0.9774
7179.00,0.9851
7178.00,0.9932
7177.00,1.0013
7176.00,1.0092
7175.00,1.0166
7174.00,1.0237
7173.00,1.0304
7172.00,1.0368
7171.00,1.0428
7170.00,1.0482
7169.00,1.0529
7168.00,1.0568
7167.00,1.0602
7166.00,1.0632
7165.00,1.0662
7164.00,1.0693
7163.00,1.0724
7162.00,1.0753
7161.00,1.0775
7160.00,1.0791
7159.00,1.0799
7158.00,1.0804
7157.00,1.0806
7156.00,1.0809
7155.00,1.0810
7154.00,1.0811
7153.00,1.0811
7152.00,1.0810
7151.00,1.0803
7150.00,1.0790
7149.00,1.0771
7148.00,1.0749
7147.00,1.0723
7146.00,1.0693
7145.00,1.0654
7144.00,1.0610
7143.00,1.0564
7142.00,1.0517
7141.00,1.0474
7140.00,1.0435
7139.00,1.0399
7138.00,1.0364
7137.00,1.0323
7136.00,1.0275
7135.00,1.0219
7134.00,1.0158
7133.00,1.0091
7132.00,1.0019
7131.00,0.9941
7130.00,0.9860
7129.00,0.9775
7128.00,0.9686
7127.00,0.9595
7126.00,0.9503
7125.00,0.9410
7124.00,0.9321
7123.00,0.9236
7122.00,0.9154
7121.00,0.9073
7120.00,0.8987
7119.00,0.8892
7118.00,0.8792
7117.00,0.8692
7116.00,0.8597
7115.00,0.8505
7114.00,0.8413
7113.00,0.8320
7112.00,0.8230
7111.00,0.8145
7110.00,0.8065
7109.00,0.7985
7108.00,0.7904
7107.00,0.7823
7106.00,0.7744
7105.00,0.7669
7104.00,0.7593
7103.00,0.7517
7102.00,0.7441
7101.00,0.7371
7100.00,0.7307
7099.00,0.7249
7098.00,0.7196
7097.00,0.7147
7096.00,0.7104
7095.00,0.7068
7094.00,0.7037
7093.00,0.7009
7092.00,0.6982
7091.00,0.6960
7090.00,0.6945
7089.00,0.6936
7088.00,0.6931
7087.00,0.6929
7086.00,0.6933
7085.00,0.6945
7084.00,0.6962
7083.00,0.6983
7082.00,0.7007
7081.00,0.7036
7080.00,0.7071
7079.00,0.7113
7078.00,0.7160
7077.00,0.7214
7076.00,0.7273
7075.00,0.7335
7074.00,0.7400
7073.00,0.7467
7072.00,0.7535
7071.00,0.7607
7070.00,0.7686
7069.00,0.7772
7068.00,0.7862
7067.00,0.7952
7066.00,0.8044
7065.00,0.8136
7064.00,0.8229
7063.00,0.8320
7062.00,0.8410
7061.00,0.8503
7060.00,0.8600
7059.00,0.8699
7058.00,0.8800
7057.00,0.8902
7056.00,0.9002
7055.00,0.9100
7054.00,0.9196
7053.00,0.9291
7052.00,0.9385
7051.00,0.9481
7050.00,0.9580
7049.00,0.9678
7048.00,0.9772
7047.00,0.9860
7046.00,0.9945
7045.00,1.0030
7044.00,1.0113
7043.00,1.0193
7042.00,1.0270
7041.00,1.0348
7040.00,1.0429
7039.00,1.0509
7038.00,1.0585
7037.00,1.0654
7036.00,1.0716
7035.00,1.0770
7034.00,1.0823
7033.00,1.0880
7032.00,1.0938
7031.00,1.0994
7030.00,1.1045
7029.00,1.1090
7028.00,1.1133
7027.00,1.1173
7026.00,1.1209
7025.00,1.1241
7024.00,1.1266
7023.00,1.1287
7022.00,1.1307
7021.00,1.1331
7020.00,1.1355
7019.00,1.1374
7018.00,1.1384
7017.00,1.1389
7016.00,1.1393
7015.00,1.1398
7014.00,1.1399
7013.00,1.1391
7012.00,1.1371
7011.00,1.1344
7010.00,1.1315
7009.00,1.1289
7008.00,1.1265
7007.00,1.1240
7006.00,1.1211
7005.00,1.1177
7004.00,1.1141
7003.00,1.1102
7002.00,1.1060
7001.00,1.1013
7000.00,1.0957
6999.00,1.0891
6998.00,1.0823
6997.00,1.0757
6996.00,1.0695
6995.00,1.0633
6994.00,1.0566
6993.00,1.0492
6992.00,1.0413
6991.00,1.0330
6990.00,1.0242
6989.00,1.0152
6988.00,1.0060
6987.00,0.9966
6986.00,0.9874
6985.00,0.9783
6984.00,0.9692
6983.00,0.9597
6982.00,0.9498
6981.00,0.9397
6980.00,0.9297
6979.00,0.9197
6978.00,0.9095
6977.00,0.8994
6976.00,0.8892
6975.00,0.8792
6974.00,0.8693
6973.00,0.8595
6972.00,0.8497
6971.00,0.8402
6970.00,0.8312
6969.00,0.8228
6968.00,0.8147
6967.00,0.8064
6966.00,0.7980
6965.00,0.7900
6964.00,0.7825
6963.00,0.7755
6962.00,0.7688
6961.00,0.7624
6960.00,0.7566
6959.00,0.7514
6958.00,0.7469
6957.00,0.7430
6956.00,0.7397
6955.00,0.7368
6954.00,0.7344
6953.00,0.7327
6952.00,0.7317
6951.00,0.7313
6950.00,0.7316
6949.00,0.7323
6948.00,0.7337
6947.00,0.7356
6946.00,0.7380
6945.00,0.7410
6944.00,0.7445
6943.00,0.7485
6942.00,0.7528
6941.00,0.7576
6940.00,0.7629
6939.00,0.7689
6938.00,0.7754
6937.00,0.7823
6936.00,0.7895
6935.00,0.7969
6934.00,0.8046
6933.00,0.8126
6932.00,0.8210
6931.00,0.8298
6930.00,0.8389
6929.00,0.8483
6928.00,0.8579
6927.00,0.8677
6926.00,0.8775
6925.00,0.8873
6924.00,0.8970
6923.00,0.9066
6922.00,0.9160
6921.00,0.9257
6920.00,0.9355
6919.00,0.9456
6918.00,0.9555
6917.00,0.9654
6916.00,0.9750
6915.00,0.9846
6914.00,0.9941
6913.00,1.0033
6912.00,1.0121
6911.00,1.0207
6910.00,1.0293
6909.00,1.0379
6908.00,1.0463
6907.00,1.0545
6906.00,1.0625
6905.00,1.0704
6904.00,1.0781
6903.00,1.0856
6902.00,1.0927
6901.00,1.0992
6900.00,1.1050
6899.00,1.1104
6898.00,1.1155
6897.00,1.1201
6896.00,1.1242
6895.00,1.1280
6894.00,1.1318
6893.00,1.1356
6892.00,1.1391
6891.00,1.1421
6890.00,1.1447
6889.00,1.1472
6888.00,1.1494
6887.00,1.1512
6886.00,1.1526
6885.00,1.1538
6884.00,1.1544
6883.00,1.1543
6882.00,1.1536
6881.00,1.1528
6880.00,1.1522
6879.00,1.1514
6878.00,1.1498
6877.00,1.1475
6876.00,1.1451
6875.00,1.1430
6874.00,1.1406
6873.00,1.1371
6872.00,1.1325
6871.00,1.1279
6870.00,1.1238
6869.00,1.1196
6868.00,1.1147
6867.00,1.1091
6866.00,1.1031
6865.00,1.0969
6864.00,1.0904
6863.00,1.0833
6862.00,1.0758
6861.00,1.0682
6860.00,1.0607
6859.00,1.0533
6858.00,1.0456
6857.00,1.0372
6856.00,1.0282
6855.00,1.0187
6854.00,1.0091
6853.00,0.9993
6852.00,0.9894
6851.00,0.9797
6850.00,0.9704
6849.00,0.9613
6848.00,0.9519
6847.00,0.9422
6846.00,0.9321
6845.00,0.9220
6844.00,0.9120
6843.00,0.9019
6842.00,0.8920
6841.00,0.8822
6840.00,0.8725
6839.00,0.8629
6838.00,0.8534
6837.00,0.8439
6836.00,0.8345
6835.00,0.8252
6834.00,0.8163
6833.00,0.8077
6832.00,0.7995
6831.00,0.7917
6830.00,0.7842
6829.00,0.7772
6828.00,0.7705
6827.00,0.7642
6826.00,0.7583
6825.00,0.7530
6824.00,0.7480
6823.00,0.7433
6822.00,0.7392
6821.00,0.7357
6820.00,0.7327
6819.00,0.7301
6818.00,0.7279
6817.00,0.7262
6816.00,0.7252
6815.00,0.7248
6814.00,0.7250
6813.00,0.7256
6812.00,0.7268
6811.00,0.7285
6810.00,0.7311
6809.00,0.7345
6808.00,0.7385
6807.00,0.7431
6806.00,0.7480
6805.00,0.7533
6804.00,0.7590
6803.00,0.7651
6802.00,0.7715
6801.00,0.7784
6800.00,0.7856
6799.00,0.7935
6798.00,0.8021
6797.00,0.8111
6796.00,0.8203
6795.00,0.8293
6794.00,0.8385
6793.00,0.8479
6792.00,0.8575
6791.00,0.8672
6790.00,0.8771
6789.00,0.8872
6788.00,0.8976
6787.00,0.9078
6786.00,0.9180
6785.00,0.9282
6784.00,0.9385
6783.00,0.9488
6782.00,0.9590
6781.00,0.9691
6780.00,0.9791
6779.00,0.9892
6778.00,0.9992
6777.00,1.0090
6776.00,1.0186
6775.00,1.0279
6774.00,1.0371
6773.00,1.0464
6772.00,1.0556
6771.00,1.0643
6770.00,1.0725
6769.00,1.0804
6768.00,1.0884
6767.00,1.0963
6766.00,1.1041
6765.00,1.1115
6764.00,1.1185
6763.00,1.1253
6762.00,1.1315
6761.00,1.1371
6760.00,1.1422
6759.00,1.1471
6758.00,1.1521
6757.00,1.1570
6756.00,1.1616
6755.00,1.1655
6754.00,1.1689
6753.00,1.1720
6752.00,1.1747
6751.00,1.1769
6750.00,1.1788
6749.00,1.1807
6748.00,1.1827
6747.00,1.1845
6746.00,1.1859
6745.00,1.1867
6744.00,1.1871
6743.00,1.1871
6742.00,1.1866
6741.00,1.1857
6740.00,1.1846
6739.00,1.1831
6738.00,1.1812
6737.00,1.1789
6736.00,1.1763
6735.00,1.1733
6734.00,1.1697
6733.00,1.1655
6732.00,1.1608
6731.00,1.1560
6730.00,1.1511
6729.00,1.1462
6728.00,1.1410
6727.00,1.1354
6726.00,1.1296
6725.00,1.1234
6724.00,1.1167
6723.00,1.1093
6722.00,1.1015
6721.00,1.0935
6720.00,1.0852
6719.00,1.0768
6718.00,1.0682
6717.00,1.0594
6716.00,1.0502
6715.00,1.0405
6714.00,1.0304
6713.00,1.0202
6712.00,1.0098
6711.00,0.9993
6710.00,0.9889
6709.00,0.9785
6708.00,0.9682
6707.00,0.9578
6706.00,0.9474
6705.00,0.9368
6704.00,0.9260
6703.00,0.9152
6702.00,0.9045
6701.00,0.8941
6700.00,0.8837
6699.00,0.8734
6698.00,0.8633
6697.00,0.8535
6696.00,0.8440
6695.00,0.8346
6694.00,0.8256
6693.00,0.8169
6692.00,0.8085
6691.00,0.8006
6690.00,0.7933
6689.00,0.7866
6688.00,0.7804
6687.00,0.7746
6686.00,0.7693
6685.00,0.7646
6684.00,0.7602
6683.00,0.7563
6682.00,0.7531
6681.00,0.7508
6680.00,0.7492
6679.00,0.7481
6678.00,0.7476
6677.00,0.7477
6676.00,0.7484
6675.00,0.7496
6674.00,0.7514
6673.00,0.7540
6672.00,0.7573
6671.00,0.7613
6670.00,0.7660
6669.00,0.7713
6668.00,0.7772
6667.00,0.7833
6666.00,0.7898
6665.00,0.7968
6664.00,0.8041
6663.00,0.8119
6662.00,0.8199
6661.00,0.8283
6660.00,0.8370
6659.00,0.8460
6658.00,0.8554
6657.00,0.8652
6656.00,0.8750
6655.00,0.8848
6654.00,0.8947
6653.00,0.9049
6652.00,0.9153
6651.00,0.9255
6650.00,0.9355
6649.00,0.9456
6648.00,0.9560
6647.00,0.9665
6646.00,0.9769
6645.00,0.9870
6644.00,0.9971
6643.00,1.0070
6642.00,1.0168
6641.00,1.0264
6640.00,1.0359
6639.00,1.0453
6638.00,1.0544
6637.00,1.0634
6636.00,1.0722
6635.00,1.0809
6634.00,1.0891
6633.00,1.0968
6632.00,1.1040
6631.00,1.1111
6630.00,1.1183
6629.00,1.1251
6628.00,1.1313
6627.00,1.1368
6626.00,1.1418
6625.00,1.1468
6624.00,1.1517
6623.00,1.1561
6622.00,1.1603
6621.00,1.1644
6620.00,1.1688
6619.00,1.1729
6618.00,1.1764
6617.00,1.1790
6616.00,1.1809
6615.00,1.1823
6614.00,1.1833
6613.00,1.1839
6612.00,1.1839
6611.00,1.1834
6610.00,1.1829
6609.00,1.1826
6608.00,1.1825
6607.00,1.1821
6606.00,1.1811
6605.00,1.1793
6604.00,1.1768
6603.00,1.1740
6602.00,1.1710
6601.00,1.1676
6600.00,1.1637
6599.00,1.1595
6598.00,1.1553
6597.00,1.1509
6596.00,1.1461
6595.00,1.1406
6594.00,1.1346
6593.00,1.1285
6592.00,1.1221
6591.00,1.1151
6590.00,1.1074
6589.00,1.0991
6588.00,1.0909
6587.00,1.0827
6586.00,1.0745
6585.00,1.0662
6584.00,1.0578
6583.00,1.0491
6582.00,1.0400
6581.00,1.0305
6580.00,1.0205
6579.00,1.0103
6578.00,1.0000
6577.00,0.9897
6576.00,0.9793
6575.00,0.9687
6574.00,0.9579
6573.00,0.9469
6572.00,0.9360
6571.00,0.9252
6570.00,0.9147
6569.00,0.9044
6568.00,0.8941
6567.00,0.8837
6566.00,0.8734
6565.00,0.8633
6564.00,0.8534
6563.00,0.8436
6562.00,0.8341
6561.00,0.8250
6560.00,0.8162
6559.00,0.8077
6558.00,0.7995
6557.00,0.7915
6556.00,0.7838
6555.00,0.7765
6554.00,0.7697
6553.00,0.7635
6552.00,0.7577
6551.00,0.7522
6550.00,0.7472
6549.00,0.7429
6548.00,0.7391
6547.00,0.7357
6546.00,0.7327
6545.00,0.7304
6544.00,0.7289
6543.00,0.7280
6542.00,0.7278
6541.00,0.7282
6540.00,0.7293
6539.00,0.7311
6538.00,0.7336
6537.00,0.7367
6536.00,0.7401
6535.00,0.7441
6534.00,0.7488
6533.00,0.7542
6532.00,0.7601
6531.00,0.7665
6530.00,0.7732
6529.00,0.7805
6528.00,0.7882
6527.00,0.7962
6526.00,0.8045
6525.00,0.8132
6524.00,0.8223
6523.00,0.8317
6522.00,0.8415
6521.00,0.8515
6520.00,0.8618
6519.00,0.8720
6518.00,0.8824
6517.00,0.8930
6516.00,0.9038
6515.00,0.9145
6514.00,0.9252
6513.00,0.9361
6512.00,0.9472
6511.00,0.9584
6510.00,0.9694
6509.00,0.9803
6508.00,0.9911
6507.00,1.0017
6506.00,1.0121
6505.00,1.0224
6504.00,1.0327
6503.00,1.0429
6502.00,1.0530
6501.00,1.0630
6500.00,1.0724
6499.00,1.0811
6498.00,1.0893
6497.00,1.0974
6496.00,1.1056
6495.00,1.1136
6494.00,1.1212
6493.00,1.1285
6492.00,1.1355
6491.00,1.1419
6490.00,1.1476
6489.00,1.1529
6488.00,1.1584
6487.00,1.1643
6486.00,1.1704
6485.00,1.1761
6484.00,1.1811
6483.00,1.1856
6482.00,1.1896
6481.00,1.1931
6480.00,1.1961
6479.00,1.1987
6478.00,1.2011
6477.00,1.2032
6476.00,1.2051
6475.00,1.2064
6474.00,1.2070
6473.00,1.2070
6472.00,1.2065
6471.00,1.2057
6470.00,1.2048
6469.00,1.2036
6468.00,1.2021
6467.00,1.2002
6466.00,1.1984
6465.00,1.1964
6464.00,1.1942
6463.00,1.1913
6462.00,1.1876
6461.00,1.1835
6460.00,1.1793
6459.00,1.1749
6458.00,1.1700
6457.00,1.1646
6456.00,1.1587
6455.00,1.1525
6454.00,1.1459
6453.00,1.1391
6452.00,1.1320
6451.00,1.1246
6450.00,1.1170
6449.00,1.1092
6448.00,1.1009
6447.00,1.0921
6446.00,1.0828
6445.00,1.0730
6444.00,1.0631
6443.00,1.0530
6442.00,1.0430
6441.00,1.0328
6440.00,1.0224
6439.00,1.0118
6438.00,1.0009
6437.00,0.9898
6436.00,0.9786
6435.00,0.9671
6434.00,0.9556
6433.00,0.9441
6432.00,0.9326
6431.00,0.9212
6430.00,0.9096
6429.00,0.8981
6428.00,0.8868
6427.00,0.8757
6426.00,0.8649
6425.00,0.8543
6424.00,0.8439
6423.00,0.8337
6422.00,0.8237
6421.00,0.8142
6420.00,0.8049
6419.00,0.7961
6418.00,0.7880
6417.00,0.7806
6416.00,0.7737
6415.00,0.7674
6414.00,0.7615
6413.00,0.7562
6412.00,0.7513
6411.00,0.7469
6410.00,0.7430
6409.00,0.7399
6408.00,0.7375
6407.00,0.7360
6406.00,0.7352
6405.00,0.7350
6404.00,0.7355
6403.00,0.7366
6402.00,0.7383
6401.00,0.7408
6400.00,0.7440
6399.00,0.7480
6398.00,0.7528
6397.00,0.7582
6396.00,0.7641
6395.00,0.7703
6394.00,0.7770
6393.00,0.7842
6392.00,0.7918
6391.00,0.7997
6390.00,0.8081
6389.00,0.8169
6388.00,0.8261
6387.00,0.8356
6386.00,0.8453
6385.00,0.8554
6384.00,0.8658
6383.00,0.8765
6382.00,0.8871
6381.00,0.8978
6380.00,0.9084
6379.00,0.9192
6378.00,0.9300
6377.00,0.9411
6376.00,0.9521
6375.00,0.9631
6374.00,0.9739
6373.00,0.9846
6372.00,0.9951
6371.00,1.0055
6370.00,1.0158
6369.00,1.0258
6368.00,1.0356
6367.00,1.0451
6366.00,1.0545
6365.00,1.0637
6364.00,1.0728
6363.00,1.0818
6362.00,1.0904
6361.00,1.0986
6360.00,1.1066
6359.00,1.1143
6358.00,1.1217
6357.00,1.1286
6356.00,1.1352
6355.00,1.1416
6354.00,1.1477
6353.00,1.1532
6352.00,1.1583
6351.00,1.1632
6350.00,1.1678
6349.00,1.1721
6348.00,1.1757
6347.00,1.1789
6346.00,1.1819
6345.00,1.1847
6344.00,1.1873
6343.00,1.1897
6342.00,1.1920
6341.00,1.1940
6340.00,1.1957
6339.00,1.1967
6338.00,1.1968
6337.00,1.1962
6336.00,1.1955
6335.00,1.1949
6334.00,1.1944
6333.00,1.1937
6332.00,1.1928
6331.00,1.1917
6330.00,1.1903
6329.00,1.1884
6328.00,1.1858
6327.00,1.1826
6326.00,1.1788
6325.00,1.1745
6324.00,1.1697
6323.00,1.1645
6322.00,1.1589
6321.00,1.1527
6320.00,1.1458
6319.00,1.1384
6318.00,1.1308
6317.00,1.1231
6316.00,1.1149
6315.00,1.1064
6314.00,1.0975
6313.00,1.0885
6312.00,1.0790
6311.00,1.0690
6310.00,1.0588
6309.00,1.0485
6308.00,1.0382
6307.00,1.0276
6306.00,1.0168
6305.00,1.0059
6304.00,0.9948
6303.00,0.9834
6302.00,0.9718
6301.00,0.9600
6300.00,0.9480
6299.00,0.9361
6298.00,0.9244
6297.00,0.9127
6296.00,0.9012
6295.00,0.8898
6294.00,0.8786
6293.00,0.8675
6292.00,0.8564
6291.00,0.8454
6290.00,0.8346
6289.00,0.8243
6288.00,0.8142
6287.00,0.8045
6286.00,0.7952
6285.00,0.7862
6284.00,0.7775
6283.00,0.7691
6282.00,0.7610
6281.00,0.7534
6280.00,0.7465
6279.00,0.7401
6278.00,0.7342
6277.00,0.7288
6276.00,0.7241
6275.00,0.7201
6274.00,0.7167
6273.00,0.7140
6272.00,0.7118
6271.00,0.7104
6270.00,0.7098
6269.00,0.7098
6268.00,0.7104
6267.00,0.7115
6266.00,0.7133
6265.00,0.7160
6264.00,0.7194
6263.00,0.7234
6262.00,0.7281
6261.00,0.7336
6260.00,0.7397
6259.00,0.7463
6258.00,0.7534
6257.00,0.7610
6256.00,0.7690
6255.00,0.7773
6254.00,0.7862
6253.00,0.7955
6252.00,0.8053
6251.00,0.8153
6250.00,0.8256
6249.00,0.8363
6248.00,0.8472
6247.00,0.8583
6246.00,0.8693
6245.00,0.8804
6244.00,0.8915
6243.00,0.9026
6242.00,0.9137
6241.00,0.9248
6240.00,0.9362
6239.00,0.9478
6238.00,0.9595
6237.00,0.9714
6236.00,0.9831
6235.00,0.9944
6234.00,1.0051
6233.00,1.0154
6232.00,1.0253
6231.00,1.0350
6230.00,1.0446
6229.00,1.0543
6228.00,1.0641
6227.00,1.0739
6226.00,1.0834
6225.00,1.0927
6224.00,1.1016
6223.00,1.1099
6222.00,1.1178
6221.00,1.1254
6220.00,1.1328
6219.00,1.1398
6218.00,1.1464
6217.00,1.1525
6216.00,1.1583
6215.00,1.1640
6214.00,1.1695
6213.00,1.1747
6212.00,1.1795
6211.00,1.1839
6210.00,1.1876
6209.00,1.1907
6208.00,1.1934
6207.00,1.1958
6206.00,1.1980
6205.00,1.2000
6204.00,1.2018
6203.00,1.2034
6202.00,1.2046
6201.00,1.2051
6200.00,1.2050
6199.00,1.2046
6198.00,1.2041
6197.00,1.2033
6196.00,1.2018
6195.00,1.1998
6194.00,1.1974
6193.00,1.1949
6192.00,1.1919
6191.00,1.1885
6190.00,1.1847
6189.00,1.1807
6188.00,1.1764
6187.00,1.1715
6186.00,1.1661
6185.00,1.1603
6184.00,1.1542
6183.00,1.1477
6182.00,1.1410
6181.00,1.1342
6180.00,1.1270
6179.00,1.1195
6178.00,1.1115
6177.00,1.1032
6176.00,1.0944
6175.00,1.0853
6174.00,1.0760
6173.00,1.0665
6172.00,1.0569
6171.00,1.0469
6170.00,1.0364
6169.00,1.0255
6168.00,1.0142
6167.00,1.0026
6166.00,0.9909
6165.00,0.9791
6164.00,0.9673
6163.00,0.9552
6162.00,0.9429
6161.00,0.9304
6160.00,0.9180
6159.00,0.9056
6158.00,0.8933
6157.00,0.8812
6156.00,0.8692
6155.00,0.8574
6154.00,0.8457
6153.00,0.8342
6152.00,0.8230
6151.00,0.8121
6150.00,0.8016
6149.00,0.7915
6148.00,0.7818
6147.00,0.7724
6146.00,0.7634
6145.00,0.7550
6144.00,0.7471
6143.00,0.7398
6142.00,0.7330
6141.00,0.7270
6140.00,0.7216
6139.00,0.7168
6138.00,0.7126
6137.00,0.7090
6136.00,0.7063
6135.00,0.7042
6134.00,0.7030
6133.00,0.7025
6132.00,0.7029
6131.00,0.7040
6130.00,0.7059
6129.00,0.7085
6128.00,0.7117
6127.00,0.7156
6126.00,0.7203
6125.00,0.7257
6124.00,0.7317
6123.00,0.7382
6122.00,0.7453
6121.00,0.7529
6120.00,0.7610
6119.00,0.7697
6118.00,0.7788
6117.00,0.7885
6116.00,0.7985
6115.00,0.8089
6114.00,0.8194
6113.00,0.8301
6112.00,0.8409
6111.00,0.8518
6110.00,0.8631
6109.00,0.8745
6108.00,0.8861
6107.00,0.8976
6106.00,0.9090
6105.00,0.9205
6104.00,0.9321
6103.00,0.9437
6102.00,0.9553
6101.00,0.9668
6100.00,0.9783
6099.00,0.9897
6098.00,1.0008
6097.00,1.0116
6096.00,1.0221
6095.00,1.0324
6094.00,1.0424
6093.00,1.0523
6092.00,1.0618
6091.00,1.0708
6090.00,1.0793
6089.00,1.0877
6088.00,1.0959
6087.00,1.1037
6086.00,1.1112
6085.00,1.1186
6084.00,1.1258
6083.00,1.1329
6082.00,1.1394
6081.00,1.1453
6080.00,1.1508
6079.00,1.1559
6078.00,1.1609
6077.00,1.1658
6076.00,1.1704
6075.00,1.1745
6074.00,1.1780
6073.00,1.1811
6072.00,1.1838
6071.00,1.1860
6070.00,1.1879
6069.00,1.1897
6068.00,1.1914
6067.00,1.1927
6066.00,1.1933
6065.00,1.1935
6064.00,1.1934
6063.00,1.1928
6062.00,1.1915
6061.00,1.1896
6060.00,1.1875
6059.00,1.1852
6058.00,1.1823
6057.00,1.1789
6056.00,1.1752
6055.00,1.1716
6054.00,1.1679
6053.00,1.1641
6052.00,1.1599
6051.00,1.1553
6050.00,1.1503
6049.00,1.1448
6048.00,1.1388
6047.00,1.1323
6046.00,1.1254
6045.00,1.1183
6044.00,1.1108
6043.00,1.1030
6042.00,1.0949
6041.00,1.0864
6040.00,1.0778
6039.00,1.0691
6038.00,1.0603
6037.00,1.0513
6036.00,1.0417
6035.00,1.0316
6034.00,1.0209
6033.00,1.0099
6032.00,0.9986
6031.00,0.9873
6030.00,0.9758
6029.00,0.9643
6028.00,0.9526
6027.00,0.9408
6026.00,0.9290
6025.00,0.9171
6024.00,0.9051
6023.00,0.8929
6022.00,0.8808
6021.00,0.8686
6020.00,0.8564
6019.00,0.8443
6018.00,0.8323
6017.00,0.8205
6016.00,0.8091
6015.00,0.7980
6014.00,0.7872
6013.00,0.7769
6012.00,0.7671
6011.00,0.7576
6010.00,0.7486
6009.00,0.7399
6008.00,0.7317
6007.00,0.7241
6006.00,0.7172
6005.00,0.7112
6004.00,0.7058
6003.00,0.7012
6002.00,0.6972
6001.00,0.6939
6000.00,0.6912
5999.00,0.6892
5998.00,0.6881
5997.00,0.6879
5996.00,0.6885
5995.00,0.6898
5994.00,0.6917
5993.00,0.6943
5992.00,0.6977
5991.00,0.7019
5990.00,0.7067
5989.00,0.7122
5988.00,0.7184
5987.00,0.7252
5986.00,0.7326
5985.00,0.7405
5984.00,0.7491
5983.00,0.7581
5982.00,0.7678
5981.00,0.7778
5980.00,0.7882
5979.00,0.7988
5978.00,0.8097
5977.00,0.8209
5976.00,0.8324
5975.00,0.8442
5974.00,0.8563
5973.00,0.8685
5972.00,0.8808
5971.00,0.8931
5970.00,0.9053
5969.00,0.9176
5968.00,0.9298
5967.00,0.9422
5966.00,0.9547
5965.00,0.9672
5964.00,0.9796
5963.00,0.9916
5962.00,1.0034
5961.00,1.0149
5960.00,1.0262
5959.00,1.0371
5958.00,1.0477
5957.00,1.0580
5956.00,1.0681
5955.00,1.0778
5954.00,1.0871
5953.00,1.0961
5952.00,1.1050
5951.00,1.1136
5950.00,1.1219
5949.00,1.1297
5948.00,1.1370
5947.00,1.1442
5946.00,1.1511
5945.00,1.1574
5944.00,1.1631
5943.00,1.1684
5942.00,1.1734
5941.00,1.1781
5940.00,1.1824
5939.00,1.1864
5938.00,1.1900
5937.00,1.1933
5936.00,1.1963
5935.00,1.1990
5934.00,1.2015
5933.00,1.2038
5932.00,1.2058
5931.00,1.2075
5930.00,1.2087
5929.00,1.2094
5928.00,1.2093
5927.00,1.2087
5926.00,1.2081
5925.00,1.2074
5924.00,1.2063
5923.00,1.2046
5922.00,1.2025
5921.00,1.2001
5920.00,1.1973
5919.00,1.1940
5918.00,1.1902
5917.00,1.1861
5916.00,1.1816
5915.00,1.1768
5914.00,1.1715
5913.00,1.1658
5912.00,1.1596
5911.00,1.1532
5910.00,1.1466
5909.00,1.1398
5908.00,1.1325
5907.00,1.1247
5906.00,1.1163
5905.00,1.1075
5904.00,1.0985
5903.00,1.0891
5902.00,1.0793
5901.00,1.0693
5900.00,1.0591
5899.00,1.0486
5898.00,1.0376
5897.00,1.0262
5896.00,1.0146
5895.00,1.0030
5894.00,0.9912
5893.00,0.9790
5892.00,0.9665
5891.00,0.9537
5890.00,0.9409
5889.00,0.9279
5888.00,0.9148
5887.00,0.9018
5886.00,0.8889
5885.00,0.8760
5884.00,0.8630
5883.00,0.8500
5882.00,0.8374
5881.00,0.8251
5880.00,0.8131
5879.00,0.8013
5878.00,0.7898
5877.00,0.7786
5876.00,0.7678
5875.00,0.7575
5874.00,0.7477
5873.00,0.7385
5872.00,0.7300
5871.00,0.7221
5870.00,0.7148
5869.00,0.7083
5868.00,0.7023
5867.00,0.6971
5866.00,0.6926
5865.00,0.6889
5864.00,0.6859
5863.00,0.6838
5862.00,0.6824
5861.00,0.6819
5860.00,0.6823
5859.00,0.6835
5858.00,0.6857
5857.00,0.6888
5856.00,0.6927
5855.00,0.6973
5854.00,0.7026
5853.00,0.7085
5852.00,0.7151
5851.00,0.7223
5850.00,0.7303
5849.00,0.7389
5848.00,0.7481
5847.00,0.7578
5846.00,0.7679
5845.00,0.7784
5844.00,0.7892
5843.00,0.8003
5842.00,0.8118
5841.00,0.8237
5840.00,0.8357
5839.00,0.8480
5838.00,0.8605
5837.00,0.8731
5836.00,0.8856
5835.00,0.8978
5834.00,0.9099
5833.00,0.9220
5832.00,0.9340
5831.00,0.9459
5830.00,0.9579
5829.00,0.9699
5828.00,0.9818
5827.00,0.9934
5826.00,1.0046
5825.00,1.0156
5824.00,1.0264
5823.00,1.0371
5822.00,1.0475
5821.00,1.0577
5820.00,1.0676
5819.00,1.0773
5818.00,1.0869
5817.00,1.0963
5816.00,1.1052
5815.00,1.1136
5814.00,1.1218
5813.00,1.1298
5812.00,1.1376
5811.00,1.1451
5810.00,1.1525
5809.00,1.1595
5808.00,1.1660
5807.00,1.1719
5806.00,1.1772
5805.00,1.1821
5804.00,1.1867
5803.00,1.1911
5802.00,1.1951
5801.00,1.1988
5800.00,1.2022
5799.00,1.2054
5798.00,1.2083
5797.00,1.2110
5796.00,1.2131
5795.00,1.2145
5794.00,1.2153
5793.00,1.2158
5792.00,1.2160
5791.00,1.2159
5790.00,1.2153
5789.00,1.2144
5788.00,1.2131
5787.00,1.2112
5786.00,1.2088
5785.00,1.2062
5784.00,1.2032
5783.00,1.2000
5782.00,1.1965
5781.00,1.1925
5780.00,1.1882
5779.00,1.1833
5778.00,1.1781
5777.00,1.1724
5776.00,1.1663
5775.00,1.1597
5774.00,1.1528
5773.00,1.1459
5772.00,1.1387
5771.00,1.1312
5770.00,1.1233
5769.00,1.1149
5768.00,1.1060
5767.00,1.0966
5766.00,1.0867
5765.00,1.0764
5764.00,1.0657
5763.00,1.0547
5762.00,1.0434
5761.00,1.0320
5760.00,1.0205
5759.00,1.0088
5758.00,0.9967
5757.00,0.9844
5756.00,0.9718
5755.00,0.9590
5754.00,0.9461
5753.00,0.9331
5752.00,0.9199
5751.00,0.9066
5750.00,0.8933
5749.00,0.8798
5748.00,0.8663
5747.00,0.8528
5746.00,0.8397
5745.00,0.8269
5744.00,0.8144
5743.00,0.8021
5742.00,0.7902
5741.00,0.7785
5740.00,0.7670
5739.00,0.7558
5738.00,0.7451
5737.00,0.7350
5736.00,0.7256
5735.00,0.7167
5734.00,0.7086
5733.00,0.7011
5732.00,0.6943
5731.00,0.6882
5730.00,0.6827
5729.00,0.6781
5728.00,0.6744
5727.00,0.6714
5726.00,0.6692
5725.00,0.6679
5724.00,0.6675
5723.00,0.6680
5722.00,0.6693
5721.00,0.6715
5720.00,0.6746
5719.00,0.6785
5718.00,0.6832
5717.00,0.6888
5716.00,0.6951
5715.00,0.7021
5714.00,0.7097
5713.00,0.7180
5712.00,0.7268
5711.00,0.7361
5710.00,0.7458
5709.00,0.7559
5708.00,0.7664
5707.00,0.7772
5706.00,0.7885
5705.00,0.8002
5704.00,0.8122
5703.00,0.8244
5702.00,0.8368
5701.00,0.8493
5700.00,0.8617
5699.00,0.8741
5698.00,0.8865
5697.00,0.8991
5696.00,0.9118
5695.00,0.9247
5694.00,0.9376
5693.00,0.9505
5692.00,0.9633
5691.00,0.9758
5690.00,0.9881
5689.00,1.0002
5688.00,1.0121
5687.00,1.0238
5686.00,1.0353
5685.00,1.0465
5684.00,1.0574
5683.00,1.0680
5682.00,1.0785
5681.00,1.0887
5680.00,1.0986
5679.00,1.1083
5678.00,1.1175
5677.00,1.1264
5676.00,1.1348
5675.00,1.1430
5674.00,1.1510
5673.00,1.1586
5672.00,1.1655
5671.00,1.1719
5670.00,1.1778
5669.00,1.1833
5668.00,1.1887
5667.00,1.1940
5666.00,1.1992
5665.00,1.2042
5664.00,1.2087
5663.00,1.2125
5662.00,1.2157
5661.00,1.2184
5660.00,1.2205
5659.00,1.2221
5658.00,1.2233
5657.00,1.2242
5656.00,1.2247
5655.00,1.2248
5654.00,1.2245
5653.00,1.2238
5652.00,1.2227
5651.00,1.2212
5650.00,1.2197
5649.00,1.2180
5648.00,1.2160
5647.00,1.2136
5646.00,1.2106
5645.00,1.2069
5644.00,1.2024
5643.00,1.1976
5642.00,1.1925
5641.00,1.1874
5640.00,1.1821
5639.00,1.1764
5638.00,1.1703
5637.00,1.1636
5636.00,1.1562
5635.00,1.1482
5634.00,1.1400
5633.00,1.1315
5632.00,1.1227
5631.00,1.1135
5630.00,1.1039
5629.00,1.0940
5628.00,1.0835
5627.00,1.0727
5626.00,1.0616
5625.00,1.0503
5624.00,1.0386
5623.00,1.0264
5622.00,1.0137
5621.00,1.0008
5620.00,0.9876
5619.00,0.9741
5618.00,0.9605
5617.00,0.9469
5616.00,0.9332
5615.00,0.9194
5614.00,0.9054
5613.00,0.8913
5612.00,0.8772
5611.00,0.8631
5610.00,0.8490
5609.00,0.8352
5608.00,0.8215
5607.00,0.8082
5606.00,0.7951
5605.00,0.7825
5604.00,0.7702
5603.00,0.7584
5602.00,0.7471
5601.00,0.7363
5600.00,0.7262
5599.00,0.7166
5598.00,0.7077
5597.00,0.6995
5596.00,0.6921
5595.00,0.6854
5594.00,0.6796
5593.00,0.6747
5592.00,0.6707
5591.00,0.6676
5590.00,0.6654
5589.00,0.6643
5588.00,0.6640
5587.00,0.6646
5586.00,0.6660
5585.00,0.6684
5584.00,0.6717
5583.00,0.6759
5582.00,0.6809
5581.00,0.6868
5580.00,0.6936
5579.00,0.7011
5578.00,0.7093
5577.00,0.7182
5576.00,0.7277
5575.00,0.7379
5574.00,0.7486
5573.00,0.7599
5572.00,0.7715
5571.00,0.7834
5570.00,0.7957
5569.00,0.8084
5568.00,0.8214
5567.00,0.8347
5566.00,0.8482
5565.00,0.8617
5564.00,0.8753
5563.00,0.8888
5562.00,0.9025
5561.00,0.9163
5560.00,0.9301
5559.00,0.9440
5558.00,0.9577
5557.00,0.9711
5556.00,0.9843
5555.00,0.9973
5554.00,1.0101
5553.00,1.0228
5552.00,1.0353
5551.00,1.0477
5550.00,1.0598
5549.00,1.0717
5548.00,1.0832
5547.00,1.0943
5546.00,1.1051
5545.00,1.1155
5544.00,1.1256
5543.00,1.1352
5542.00,1.1444
5541.00,1.1534
5540.00,1.1621
5539.00,1.1703
5538.00,1.1780
5537.00,1.1852
5536.00,1.1920
5535.00,1.1984
5534.00,1.2044
5533.00,1.2102
5532.00,1.2157
5531.00,1.2209
5530.00,1.2257
5529.00,1.2301
5528.00,1.2341
5527.00,1.2375
5526.00,1.2404
5525.00,1.2431
5524.00,1.2453
5523.00,1.2471
5522.00,1.2485
5521.00,1.2496
5520.00,1.2502
5519.00,1.2501
5518.00,1.2494
5517.00,1.2481
5516.00,1.2467
5515.00,1.2452
5514.00,1.2435
5513.00,1.2415
5512.00,1.2389
5511.00,1.2358
5510.00,1.2320
5509.00,1.2277
5508.00,1.2232
5507.00,1.2183
5506.00,1.2131
5505.00,1.2075
5504.00,1.2016
5503.00,1.1952
5502.00,1.1884
5501.00,1.1813
5500.00,1.1737
5499.00,1.1657
5498.00,1.1572
5497.00,1.1482
5496.00,1.1388
5495.00,1.1289
5494.00,1.1187
5493.00,1.1080
5492.00,1.0969
5491.00,1.0854
5490.00,1.0736
5489.00,1.0615
5488.00,1.0489
5487.00,1.0359
5486.00,1.0226
5485.00,1.0091
5484.00,0.9954
5483.00,0.9815
5482.00,0.9674
5481.00,0.9531
5480.00,0.9386
5479.00,0.9241
5478.00,0.9094
5477.00,0.8945
5476.00,0.8795
5475.00,0.8645
5474.00,0.8496
5473.00,0.8350
5472.00,0.8207
5471.00,0.8067
5470.00,0.7929
5469.00,0.7795
5468.00,0.7665
5467.00,0.7539
5466.00,0.7419
5465.00,0.7304
5464.00,0.7195
5463.00,0.7093
5462.00,0.6998
5461.00,0.6911
5460.00,0.6832
5459.00,0.6762
5458.00,0.6701
5457.00,0.6649
5456.00,0.6607
5455.00,0.6574
5454.00,0.6552
5453.00,0.6540
5452.00,0.6538
5451.00,0.6546
5450.00,0.6564
5449.00,0.6593
5448.00,0.6631
5447.00,0.6678
5446.00,0.6733
5445.00,0.6797
5444.00,0.6868
5443.00,0.6946
5442.00,0.7032
5441.00,0.7126
5440.00,0.7228
5439.00,0.7336
5438.00,0.7449
5437.00,0.7567
5436.00,0.7690
5435.00,0.7818
5434.00,0.7950
5433.00,0.8087
5432.00,0.8224
5431.00,0.8362
5430.00,0.8502
5429.00,0.8644
5428.00,0.8789
5427.00,0.8936
5426.00,0.9082
5425.00,0.9227
5424.00,0.9371
5423.00,0.9515
5422.00,0.9659
5421.00,0.9804
5420.00,0.9948
5419.00,1.0088
5418.00,1.0224
5417.00,1.0354
5416.00,1.0481
5415.00,1.0605
5414.00,1.0729
5413.00,1.0853
5412.00,1.0976
5411.00,1.1097
5410.00,1.1214
5409.00,1.1324
5408.00,1.1428
5407.00,1.1527
5406.00,1.1624
5405.00,1.1718
5404.00,1.1811
5403.00,1.1900
5402.00,1.1985
5401.00,1.2064
5400.00,1.2138
5399.00,1.2206
5398.00,1.2270
5397.00,1.2330
5396.00,1.2385
5395.00,1.2437
5394.00,1.2484
5393.00,1.2528
5392.00,1.2568
5391.00,1.2605
5390.00,1.2637
5389.00,1.2666
5388.00,1.2690
5387.00,1.2711
5386.00,1.2729
5385.00,1.2742
5384.00,1.2751
5383.00,1.2756
5382.00,1.2757
5381.00,1.2754
5380.00,1.2746
5379.00,1.2735
5378.00,1.2719
5377.00,1.2699
5376.00,1.2675
5375.00,1.2648
5374.00,1.2618
5373.00,1.2584
5372.00,1.2545
5371.00,1.2502
5370.00,1.2454
5369.00,1.2401
5368.00,1.2342
5367.00,1.2278
5366.00,1.2211
5365.00,1.2139
5364.00,1.2062
5363.00,1.1979
5362.00,1.1892
5361.00,1.1801
5360.00,1.1707
5359.00,1.1609
5358.00,1.1510
5357.00,1.1410
5356.00,1.1306
5355.00,1.1197
5354.00,1.1081
5353.00,1.0958
5352.00,1.0830
5351.00,1.0697
5350.00,1.0560
5349.00,1.0421
5348.00,1.0282
5347.00,1.0141
5346.00,0.9998
5345.00,0.9850
5344.00,0.9699
5343.00,0.9547
5342.00,0.9394
5341.00,0.9242
5340.00,0.9089
5339.00,0.8935
5338.00,0.8778
5337.00,0.8623
5336.00,0.8469
5335.00,0.8320
5334.00,0.8176
5333.00,0.8037
5332.00,0.7904
5331.00,0.7775
5330.00,0.7652
5329.00,0.7533
5328.00,0.7419
5327.00,0.7310
5326.00,0.7208
5325.00,0.7114
5324.00,0.7028
5323.00,0.6953
5322.00,0.6887
5321.00,0.6832
5320.00,0.6787
5319.00,0.6753
5318.00,0.6728
5317.00,0.6714
5316.00,0.6710
5315.00,0.6716
5314.00,0.6732
5313.00,0.6759
5312.00,0.6797
5311.00,0.6844
5310.00,0.6901
5309.00,0.6968
5308.00,0.7044
5307.00,0.7127
5306.00,0.7219
5305.00,0.7320
5304.00,0.7426
5303.00,0.7539
5302.00,0.7658
5301.00,0.7784
5300.00,0.7914
5299.00,0.8049
5298.00,0.8187
5297.00,0.8329
5296.00,0.8474
5295.00,0.8619
5294.00,0.8765
5293.00,0.8913
5292.00,0.9062
5291.00,0.9213
5290.00,0.9365
5289.00,0.9517
5288.00,0.9666
5287.00,0.9813
5286.00,0.9960
5285.00,1.0105
5284.00,1.0251
5283.00,1.0394
5282.00,1.0536
5281.00,1.0675
5280.00,1.0810
5279.00,1.0942
5278.00,1.1072
5277.00,1.1198
5276.00,1.1320
5275.00,1.1436
5274.00,1.1547
5273.00,1.1654
5272.00,1.1759
5271.00,1.1862
5270.00,1.1962
5269.00,1.2060
5268.00,1.2155
5267.00,1.2243
5266.00,1.2324
5265.00,1.2399
5264.00,1.2471
5263.00,1.2538
5262.00,1.2602
5261.00,1.2660
5260.00,1.2714
5259.00,1.2764
5258.00,1.2812
5257.00,1.2857
5256.00,1.2899
5255.00,1.2936
5254.00,1.2970
5253.00,1.2999
5252.00,1.3023
5251.00,1.3041
5250.00,1.3055
5249.00,1.3064
5248.00,1.3070
5247.00,1.3071
5246.00,1.3068
5245.00,1.3062
5244.00,1.3052
5243.00,1.3040
5242.00,1.3024
5241.00,1.3003
5240.00,1.2977
5239.00,1.2943
5238.00,1.2904
5237.00,1.2862
5236.00,1.2818
5235.00,1.2772
5234.00,1.2723
5233.00,1.2668
5232.00,1.2608
5231.00,1.2544
5230.00,1.2475
5229.00,1.2403
5228.00,1.2327
5227.00,1.2245
5226.00,1.2156
5225.00,1.2062
5224.00,1.1964
5223.00,1.1865
5222.00,1.1763
5221.00,1.1657
5220.00,1.1544
5219.00,1.1425
5218.00,1.1301
5217.00,1.1172
5216.00,1.1039
5215.00,1.0902
5214.00,1.0762
5213.00,1.0620
5212.00,1.0475
5211.00,1.0328
5210.00,1.0178
5209.00,1.0025
5208.00,0.9867
5207.00,0.9706
5206.00,0.9543
5205.00,0.9381
5204.00,0.9219
5203.00,0.9060
5202.00,0.8902
5201.00,0.8748
5200.00,0.8597
5199.00,0.8450
5198.00,0.8308
5197.00,0.8170
5196.00,0.8035
5195.00,0.7903
5194.00,0.7775
5193.00,0.7650
5192.00,0.7528
5191.00,0.7412
5190.00,0.7301
5189.00,0.7197
5188.00,0.7102
5187.00,0.7015
5186.00,0.6937
5185.00,0.6870
5184.00,0.6813
5183.00,0.6767
5182.00,0.6732
5181.00,0.6709
5180.00,0.6697
5179.00,0.6697
5178.00,0.6708
5177.00,0.6731
5176.00,0.6766
5175.00,0.6811
5174.00,0.6867
5173.00,0.6933
5172.00,0.7010
5171.00,0.7096
5170.00,0.7191
5169.00,0.7294
5168.00,0.7404
5167.00,0.7522
5166.00,0.7646
5165.00,0.7777
5164.00,0.7913
5163.00,0.8054
5162.00,0.8199
5161.00,0.8346
5160.00,0.8496
5159.00,0.8648
5158.00,0.8803
5157.00,0.8959
5156.00,0.9117
5155.00,0.9276
5154.00,0.9435
5153.00,0.9594
5152.00,0.9752
5151.00,0.9909
5150.00,1.0064
5149.00,1.0217
5148.00,1.0369
5147.00,1.0518
5146.00,1.0665
5145.00,1.0809
5144.00,1.0950
5143.00,1.1087
5142.00,1.1221
5141.00,1.1351
5140.00,1.1479
5139.00,1.1603
5138.00,1.1723
5137.00,1.1840
5136.00,1.1953
5135.00,1.2062
5134.00,1.2165
5133.00,1.2264
5132.00,1.2357
5131.00,1.2447
5130.00,1.2534
5129.00,1.2619
5128.00,1.2700
5127.00,1.2776
5126.00,1.2845
5125.00,1.2908
5124.00,1.2966
5123.00,1.3019
5122.00,1.3069
5121.00,1.3116
5120.00,1.3160
5119.00,1.3201
5118.00,1.3238
5117.00,1.3270
5116.00,1.3297
5115.00,1.3320
5114.00,1.3337
5113.00,1.3352
5112.00,1.3362
5111.00,1.3367
5110.00,1.3368
5109.00,1.3365
5108.00,1.3357
5107.00,1.3345
5106.00,1.3331
5105.00,1.3312
5104.00,1.3291
5103.00,1.3265
5102.00,1.3235
5101.00,1.3200
5100.00,1.3159
5099.00,1.3113
5098.00,1.3060
5097.00,1.3002
5096.00,1.2940
5095.00,1.2875
5094.00,1.2808
5093.00,1.2739
5092.00,1.2666
5091.00,1.2587
5090.00,1.2502
5089.00,1.2411
5088.00,1.2316
5087.00,1.2218
5086.00,1.2116
5085.00,1.2009
5084.00,1.1896
5083.00,1.1777
5082.00,1.1652
5081.00,1.1524
5080.00,1.1391
5079.00,1.1255
5078.00,1.1114
5077.00,1.0969
5076.00,1.0821
5075.00,1.0670
5074.00,1.0516
5073.00,1.0359
5072.00,1.0199
5071.00,1.0036
5070.00,0.9871
5069.00,0.9705
5068.00,0.9537
5067.00,0.9367
5066.00,0.9198
5065.00,0.9030
5064.00,0.8863
5063.00,0.8698
5062.00,0.8536
5061.00,0.8377
5060.00,0.8222
5059.00,0.8071
5058.00,0.7926
5057.00,0.7787
5056.00,0.7655
5055.00,0.7529
5054.00,0.7411
5053.00,0.7302
5052.00,0.7203
5051.00,0.7113
5050.00,0.7034
5049.00,0.6965
5048.00,0.6907
5047.00,0.6860
5046.00,0.6825
5045.00,0.6802
5044.00,0.6792
5043.00,0.6794
5042.00,0.6807
5041.00,0.6832
5040.00,0.6869
5039.00,0.6918
5038.00,0.6978
5037.00,0.7050
5036.00,0.7132
5035.00,0.7224
5034.00,0.7326
5033.00,0.7437
5032.00,0.7555
5031.00,0.7681
5030.00,0.7813
5029.00,0.7952
5028.00,0.8096
5027.00,0.8244
5026.00,0.8397
5025.00,0.8553
5024.00,0.8713
5023.00,0.8874
5022.00,0.9037
5021.00,0.9201
5020.00,0.9365
5019.00,0.9529
5018.00,0.9694
5017.00,0.9858
5016.00,1.0020
5015.00,1.0182
5014.00,1.0342
5013.00,1.0501
5012.00,1.0657
5011.00,1.0812
5010.00,1.0965
5009.00,1.1114
5008.00,1.1259
5007.00,1.1399
5006.00,1.1535
5005.00,1.1667
5004.00,1.1795
5003.00,1.1921
5002.00,1.2045
5001.00,1.2167
5000.00,1.2286
4999.00,1.2399
4998.00,1.2505
4997.00,1.2604
4996.00,1.2697
4995.00,1.2787
4994.00,1.2875
4993.00,1.2961
4992.00,1.3045
4991.00,1.3123
4990.00,1.3193
4989.00,1.3255
4988.00,1.3310
4987.00,1.3359
4986.00,1.3406
4985.00,1.3451
4984.00,1.3493
4983.00,1.3531
4982.00,1.3565
4981.00,1.3594
4980.00,1.3619
4979.00,1.3640
4978.00,1.3655
4977.00,1.3666
4976.00,1.3672
4975.00,1.3674
4974.00,1.3673
4973.00,1.3669
4972.00,1.3662
4971.00,1.3651
4970.00,1.3634
4969.00,1.3612
4968.00,1.3585
4967.00,1.3553
4966.00,1.3517
4965.00,1.3478
4964.00,1.3436
4963.00,1.3389
4962.00,1.3338
4961.00,1.3281
4960.00,1.3218
4959.00,1.3150
4958.00,1.3077
4957.00,1.3000
4956.00,1.2921
4955.00,1.2838
4954.00,1.2750
4953.00,1.2655
4952.00,1.2554
4951.00,1.2448
4950.00,1.2337
4949.00,1.2223
4948.00,1.2105
4947.00,1.1982
4946.00,1.1854
4945.00,1.1721
4944.00,1.1584
4943.00,1.1443
4942.00,1.1298
4941.00,1.1148
4940.00,1.0992
4939.00,1.0832
4938.00,1.0667
4937.00,1.0500
4936.00,1.0329
4935.00,1.0156
4934.00,0.9981
4933.00,0.9805
4932.00,0.9628
4931.00,0.9450
4930.00,0.9272
4929.00,0.9095
4928.00,0.8919
4927.00,0.8745
4926.00,0.8574
4925.00,0.8408
4924.00,0.8245
4923.00,0.8087
4922.00,0.7935
4921.00,0.7790
4920.00,0.7651
4919.00,0.7521
4918.00,0.7400
4917.00,0.7288
4916.00,0.7186
4915.00,0.7093
4914.00,0.7011
4913.00,0.6940
4912.00,0.6881
4911.00,0.6834
4910.00,0.6799
4909.00,0.6778
4908.00,0.6769
4907.00,0.6774
4906.00,0.6791
4905.00,0.6820
4904.00,0.6863
4903.00,0.6918
4902.00,0.6985
4901.00,0.7064
4900.00,0.7154
4899.00,0.7255
4898.00,0.7365
4897.00,0.7485
4896.00,0.7614
4895.00,0.7749
4894.00,0.7891
4893.00,0.8039
4892.00,0.8193
4891.00,0.8352
4890.00,0.8515
4889.00,0.8682
4888.00,0.8850
4887.00,0.9020
4886.00,0.9193
4885.00,0.9367
4884.00,0.9542
4883.00,0.9717
4882.00,0.9890
4881.00,1.0062
4880.00,1.0232
4879.00,1.0401
4878.00,1.0569
4877.00,1.0736
4876.00,1.0901
4875.00,1.1064
4874.00,1.1224
4873.00,1.1380
4872.00,1.1533
4871.00,1.1681
4870.00,1.1826
4869.00,1.1967
4868.00,1.2104
4867.00,1.2236
4866.00,1.2365
4865.00,1.2489
4864.00,1.2607
4863.00,1.2719
4862.00,1.2826
4861.00,1.2928
4860.00,1.3025
4859.00,1.3117
4858.00,1.3206
4857.00,1.3292
4856.00,1.3375
4855.00,1.3454
4854.00,1.3527
4853.00,1.3595
4852.00,1.3658
4851.00,1.3715
4850.00,1.3768
4849.00,1.3815
4848.00,1.3857
4847.00,1.3896
4846.00,1.3931
4845.00,1.3963
4844.00,1.3991
4843.00,1.4015
4842.00,1.4034
4841.00,1.4048
4840.00,1.4057
4839.00,1.4062
4838.00,1.4064
4837.00,1.4061
4836.00,1.4054
4835.00,1.4042
4834.00,1.4026
4833.00,1.4005
4832.00,1.3979
4831.00,1.3949
4830.00,1.3914
4829.00,1.3875
4828.00,1.3831
4827.00,1.3781
4826.00,1.3728
4825.00,1.3672
4824.00,1.3613
4823.00,1.3551
4822.00,1.3484
4821.00,1.3411
4820.00,1.3330
4819.00,1.3244
4818.00,1.3154
4817.00,1.3060
4816.00,1.2961
4815.00,1.2857
4814.00,1.2748
4813.00,1.2633
4812.00,1.2513
4811.00,1.2388
4810.00,1.2259
4809.00,1.2124
4808.00,1.1985
4807.00,1.1840
4806.00,1.1690
4805.00,1.1535
4804.00,1.1377
4803.00,1.1215
4802.00,1.1048
4801.00,1.0877
4800.00,1.0702
4799.00,1.0523
4798.00,1.0340
4797.00,1.0154
4796.00,0.9967
4795.00,0.9780
4794.00,0.9592
4793.00,0.9404
4792.00,0.9218
4791.00,0.9032
4790.00,0.8849
4789.00,0.8670
4788.00,0.8495
4787.00,0.8326
4786.00,0.8162
4785.00,0.8005
4784.00,0.7855
4783.00,0.7712
4782.00,0.7578
4781.00,0.7454
4780.00,0.7339
4779.00,0.7237
4778.00,0.7146
4777.00,0.7069
4776.00,0.7005
4775.00,0.6954
4774.00,0.6917
4773.00,0.6893
4772.00,0.6883
4771.00,0.6888
4770.00,0.6906
4769.00,0.6939
4768.00,0.6986
4767.00,0.7045
4766.00,0.7118
4765.00,0.7203
4764.00,0.7300
4763.00,0.7409
4762.00,0.7527
4761.00,0.7655
4760.00,0.7791
4759.00,0.7935
4758.00,0.8087
4757.00,0.8246
4756.00,0.8411
4755.00,0.8579
4754.00,0.8752
4753.00,0.8927
4752.00,0.9105
4751.00,0.9285
4750.00,0.9466
4749.00,0.9648
4748.00,0.9831
4747.00,1.0015
4746.00,1.0198
4745.00,1.0380
4744.00,1.0560
4743.00,1.0737
4742.00,1.0912
4741.00,1.1085
4740.00,1.1254
4739.00,1.1421
4738.00,1.1584
4737.00,1.1744
4736.00,1.1900
4735.00,1.2053
4734.00,1.2202
4733.00,1.2346
4732.00,1.2483
4731.00,1.2616
4730.00,1.2743
4729.00,1.2867
4728.00,1.2986
4727.00,1.3101
4726.00,1.3211
4725.00,1.3315
4724.00,1.3416
4723.00,1.3512
4722.00,1.3604
4721.00,1.3692
4720.00,1.3775
4719.00,1.3852
4718.00,1.3922
4717.00,1.3986
4716.00,1.4046
4715.00,1.4101
4714.00,1.4154
4713.00,1.4203
4712.00,1.4247
4711.00,1.4288
4710.00,1.4325
4709.00,1.4356
4708.00,1.4383
4707.00,1.4403
4706.00,1.4417
4705.00,1.4426
4704.00,1.4431
4703.00,1.4433
4702.00,1.4432
4701.00,1.4425
4700.00,1.4414
4699.00,1.4398
4698.00,1.4378
4697.00,1.4352
4696.00,1.4323
4695.00,1.4289
4694.00,1.4253
4693.00,1.4212
4692.00,1.4166
4691.00,1.4116
4690.00,1.4062
4689.00,1.4005
4688.00,1.3943
4687.00,1.3876
4686.00,1.3803
4685.00,1.3724
4684.00,1.3639
4683.00,1.3548
4682.00,1.3454
4681.00,1.3354
4680.00,1.3250
4679.00,1.3142
4678.00,1.3030
4677.00,1.2912
4676.00,1.2788
4675.00,1.2657
4674.00,1.2520
4673.00,1.2378
4672.00,1.2231
4671.00,1.2080
4670.00,1.1924
4669.00,1.1764
4668.00,1.1598
4667.00,1.1428
4666.00,1.1254
4665.00,1.1076
4664.00,1.0893
4663.00,1.0707
4662.00,1.0518
4661.00,1.0328
4660.00,1.0136
4659.00,0.9942
4658.00,0.9747
4657.00,0.9552
4656.00,0.9357
4655.00,0.9163
4654.00,0.8973
4653.00,0.8786
4652.00,0.8604
4651.00,0.8427
4650.00,0.8256
4649.00,0.8092
4648.00,0.7935
4647.00,0.7787
4646.00,0.7647
4645.00,0.7517
4644.00,0.7399
4643.00,0.7292
4642.00,0.7198
4641.00,0.7118
4640.00,0.7053
4639.00,0.7002
4638.00,0.6967
4637.00,0.6947
4636.00,0.6942
4635.00,0.6952
4634.00,0.6977
4633.00,0.7017
4632.00,0.7071
4631.00,0.7140
4630.00,0.7222
4629.00,0.7318
4628.00,0.7427
4627.00,0.7548
4626.00,0.7680
4625.00,0.7822
4624.00,0.7973
4623.00,0.8131
4622.00,0.8296
4621.00,0.8468
4620.00,0.8644
4619.00,0.8825
4618.00,0.9010
4617.00,0.9198
4616.00,0.9389
4615.00,0.9583
4614.00,0.9777
4613.00,0.9972
4612.00,1.0165
4611.00,1.0357
4610.00,1.0548
4609.00,1.0737
4608.00,1.0925
4607.00,1.1112
4606.00,1.1295
4605.00,1.1474
4604.00,1.1651
4603.00,1.1825
4602.00,1.1997
4601.00,1.2165
4600.00,1.2328
4599.00,1.2483
4598.00,1.2633
4597.00,1.2779
4596.00,1.2919
4595.00,1.3056
4594.00,1.3187
4593.00,1.3312
4592.00,1.3432
4591.00,1.3548
4590.00,1.3661
4589.00,1.3768
4588.00,1.3869
4587.00,1.3964
4586.00,1.4054
4585.00,1.4141
4584.00,1.4223
4583.00,1.4301
4582.00,1.4373
4581.00,1.4440
4580.00,1.4502
4579.00,1.4559
4578.00,1.4613
4577.00,1.4660
4576.00,1.4702
4575.00,1.4737
4574.00,1.4767
4573.00,1.4793
4572.00,1.4815
4571.00,1.4835
4570.00,1.4852
4569.00,1.4865
4568.00,1.4875
4567.00,1.4879
4566.00,1.4879
4565.00,1.4873
4564.00,1.4863
4563.00,1.4849
4562.00,1.4832
4561.00,1.4809
4560.00,1.4782
4559.00,1.4750
4558.00,1.4713
4557.00,1.4671
4556.00,1.4624
4555.00,1.4570
4554.00,1.4511
4553.00,1.4446
4552.00,1.4376
4551.00,1.4304
4550.00,1.4232
4549.00,1.4157
4548.00,1.4078
4547.00,1.3990
4546.00,1.3894
4545.00,1.3791
4544.00,1.3683
4543.00,1.3572
4542.00,1.3456
4541.00,1.3335
4540.00,1.3207
4539.00,1.3073
4538.00,1.2932
4537.00,1.2785
4536.00,1.2630
4535.00,1.2471
4534.00,1.2308
4533.00,1.2142
4532.00,1.1972
4531.00,1.1795
4530.00,1.1612
4529.00,1.1423
4528.00,1.1229
4527.00,1.1030
4526.00,1.0830
4525.00,1.0628
4524.00,1.0425
4523.00,1.0221
4522.00,1.0016
4521.00,0.9810
4520.00,0.9604
4519.00,0.9399
4518.00,0.9196
4517.00,0.8998
4516.00,0.8806
4515.00,0.8621
4514.00,0.8443
4513.00,0.8273
4512.00,0.8111
4511.00,0.7960
4510.00,0.7820
4509.00,0.7692
4508.00,0.7578
4507.00,0.7477
4506.00,0.7390
4505.00,0.7319
4504.00,0.7263
4503.00,0.7223
4502.00,0.7200
4501.00,0.7195
4500.00,0.7207
4499.00,0.7236
4498.00,0.7281
4497.00,0.7342
4496.00,0.7419
4495.00,0.7510
4494.00,0.7615
4493.00,0.7734
4492.00,0.7865
4491.00,0.8008
4490.00,0.8161
4489.00,0.8323
4488.00,0.8493
4487.00,0.8670
4486.00,0.8854
4485.00,0.9043
4484.00,0.9237
4483.00,0.9434
4482.00,0.9634
4481.00,0.9835
4480.00,1.0037
4479.00,1.0239
4478.00,1.0441
4477.00,1.0643
4476.00,1.0844
4475.00,1.1044
4474.00,1.1243
4473.00,1.1439
4472.00,1.1633
4471.00,1.1825
4470.00,1.2013
4469.00,1.2197
4468.00,1.2377
4467.00,1.2552
4466.00,1.2723
4465.00,1.2889
4464.00,1.3051
4463.00,1.3208
4462.00,1.3360
4461.00,1.3507
4460.00,1.3647
4459.00,1.3782
4458.00,1.3913
4457.00,1.4039
4456.00,1.4158
4455.00,1.4270
4454.00,1.4377
4453.00,1.4480
4452.00,1.4580
4451.00,1.4675
4450.00,1.4765
4449.00,1.4848
4448.00,1.4925
4447.00,1.4999
4446.00,1.5070
4445.00,1.5139
4444.00,1.5203
4443.00,1.5260
4442.00,1.5309
4441.00,1.5351
4440.00,1.5388
4439.00,1.5420
4438.00,1.5446
4437.00,1.5469
4436.00,1.5487
4435.00,1.5501
4434.00,1.5511
4433.00,1.5517
4432.00,1.5518
4431.00,1.5514
4430.00,1.5505
4429.00,1.5493
4428.00,1.5477
4427.00,1.5457
4426.00,1.5435
4425.00,1.5408
4424.00,1.5378
4423.00,1.5343
4422.00,1.5302
4421.00,1.5256
4420.00,1.5206
4419.00,1.5151
4418.00,1.5093
4417.00,1.5030
4416.00,1.4962
4415.00,1.4889
4414.00,1.4812
4413.00,1.4731
4412.00,1.4646
4411.00,1.4557
4410.00,1.4463
4409.00,1.4365
4408.00,1.4263
4407.00,1.4155
4406.00,1.4045
4405.00,1.3931
4404.00,1.3816
4403.00,1.3699
4402.00,1.3579
4401.00,1.3454
4400.00,1.3325
4399.00,1.3192
4398.00,1.3053
4397.00,1.2909
4396.00,1.2761
4395.00,1.2607
4394.00,1.2447
4393.00,1.2282
4392.00,1.2110
4391.00,1.1933
4390.00,1.1750
4389.00,1.1564
4388.00,1.1375
4387.00,1.1185
4386.00,1.0994
4385.00,1.0802
4384.00,1.0611
4383.00,1.0423
4382.00,1.0241
4381.00,1.0064
4380.00,0.9894
4379.00,0.9731
4378.00,0.9576
4377.00,0.9431
4376.00,0.9297
4375.00,0.9174
4374.00,0.9064
4373.00,0.8965
4372.00,0.8879
4371.00,0.8803
4370.00,0.8738
4369.00,0.8681
4368.00,0.8633
4367.00,0.8592
4366.00,0.8557
4365.00,0.8528
4364.00,0.8504
4363.00,0.8485
4362.00,0.8470
4361.00,0.8460
4360.00,0.8457
4359.00,0.8463
4358.00,0.8478
4357.00,0.8504
4356.00,0.8541
4355.00,0.8591
4354.00,0.8655
4353.00,0.8732
4352.00,0.8824
4351.00,0.8928
4350.00,0.9046
4349.00,0.9175
4348.00,0.9316
4347.00,0.9467
4346.00,0.9628
4345.00,0.9797
4344.00,0.9974
4343.00,1.0156
4342.00,1.0342
4341.00,1.0531
4340.00,1.0722
4339.00,1.0916
4338.00,1.1112
4337.00,1.1310
4336.00,1.1507
4335.00,1.1703
4334.00,1.1898
4333.00,1.2090
4332.00,1.2281
4331.00,1.2468
4330.00,1.2653
4329.00,1.2834
4328.00,1.3010
4327.00,1.3183
4326.00,1.3351
4325.00,1.3512
4324.00,1.3667
4323.00,1.3816
4322.00,1.3958
4321.00,1.4095
4320.00,1.4225
4319.00,1.4349
4318.00,1.4465
4317.00,1.4574
4316.00,1.4679
4315.00,1.4780
4314.00,1.4877
4313.00,1.4971
4312.00,1.5059
4311.00,1.5142
4310.00,1.5219
4309.00,1.5291
4308.00,1.5360
4307.00,1.5427
4306.00,1.5490
4305.00,1.5550
4304.00,1.5604
4303.00,1.5652
4302.00,1.5694
4301.00,1.5730
4300.00,1.5759
4299.00,1.5783
4298.00,1.5803
4297.00,1.5820
4296.00,1.5834
4295.00,1.5843
4294.00,1.5849
4293.00,1.5850
4292.00,1.5847
4291.00,1.5840
4290.00,1.5827
4289.00,1.5808
4288.00,1.5784
4287.00,1.5757
4286.00,1.5728
4285.00,1.5696
4284.00,1.5659
4283.00,1.5615
4282.00,1.5565
4281.00,1.5509
4280.00,1.5447
4279.00,1.5379
4278.00,1.5308
4277.00,1.5232
4276.00,1.5152
4275.00,1.5067
4274.00,1.4976
4273.00,1.4879
4272.00,1.4776
4271.00,1.4669
4270.00,1.4558
4269.00,1.4442
4268.00,1.4320
4267.00,1.4190
4266.00,1.4054
4265.00,1.3911
4264.00,1.3762
4263.00,1.3607
4262.00,1.3447
4261.00,1.3281
4260.00,1.3108
4259.00,1.2928
4258.00,1.2741
4257.00,1.2547
4256.00,1.2346
4255.00,1.2140
4254.00,1.1929
4253.00,1.1712
4252.00,1.1490
4251.00,1.1262
4250.00,1.1032
4249.00,1.0799
4248.00,1.0566
4247.00,1.0332
4246.00,1.0100
4245.00,0.9868
4244.00,0.9638
4243.00,0.9413
4242.00,0.9192
4241.00,0.8978
4240.00,0.8772
4239.00,0.8574
4238.00,0.8387
4237.00,0.8213
4236.00,0.8051
4235.00,0.7904
4234.00,0.7772
4233.00,0.7656
4232.00,0.7557
4231.00,0.7477
4230.00,0.7416
4229.00,0.7375
4228.00,0.7354
4227.00,0.7353
4226.00,0.7372
4225.00,0.7410
4224.00,0.7467
4223.00,0.7542
4222.00,0.7637
4221.00,0.7748
4220.00,0.7877
4219.00,0.8020
4218.00,0.8176
4217.00,0.8345
4216.00,0.8524
4215.00,0.8714
4214.00,0.8912
4213.00,0.9117
4212.00,0.9328
4211.00,0.9544
4210.00,0.9764
4209.00,0.9987
4208.00,1.0212
4207.00,1.0440
4206.00,1.0668
4205.00,1.0895
4204.00,1.1121
4203.00,1.1346
4202.00,1.1569
4201.00,1.1790
4200.00,1.2007
4199.00,1.2220
4198.00,1.2428
4197.00,1.2632
4196.00,1.2833
4195.00,1.3029
4194.00,1.3221
4193.00,1.3407
4192.00,1.3586
4191.00,1.3758
4190.00,1.3923
4189.00,1.4083
4188.00,1.4238
4187.00,1.4388
4186.00,1.4530
4185.00,1.4666
4184.00,1.4798
4183.00,1.4926
4182.00,1.5049
4181.00,1.5164
4180.00,1.5270
4179.00,1.5370
4178.00,1.5464
4177.00,1.5555
4176.00,1.5642
4175.00,1.5726
4174.00,1.5804
4173.00,1.5877
4172.00,1.5944
4171.00,1.6006
4170.00,1.6064
4169.00,1.6116
4168.00,1.6162
4167.00,1.6199
4166.00,1.6228
4165.00,1.6252
4164.00,1.6274
4163.00,1.6295
4162.00,1.6313
4161.00,1.6328
4160.00,1.6340
4159.00,1.6347
4158.00,1.6350
4157.00,1.6349
4156.00,1.6343
4155.00,1.6333
4154.00,1.6315
4153.00,1.6291
4152.00,1.6260
4151.00,1.6226
4150.00,1.6191
4149.00,1.6154
4148.00,1.6114
4147.00,1.6067
4146.00,1.6013
4145.00,1.5950
4144.00,1.5879
4143.00,1.5803
4142.00,1.5724
4141.00,1.5643
4140.00,1.5560
4139.00,1.5474
4138.00,1.5381
4137.00,1.5282
4136.00,1.5175
4135.00,1.5061
4134.00,1.4940
4133.00,1.4814
4132.00,1.4683
4131.00,1.4547
4130.00,1.4403
4129.00,1.4252
4128.00,1.4093
4127.00,1.3927
4126.00,1.3754
4125.00,1.3575
4124.00,1.3391
4123.00,1.3199
4122.00,1.3001
4121.00,1.2794
4120.00,1.2581
4119.00,1.2362
4118.00,1.2138
4117.00,1.1908
4116.00,1.1674
4115.00,1.1435
4114.00,1.1193
4113.00,1.0949
4112.00,1.0704
4111.00,1.0459
4110.00,1.0216
4109.00,0.9975
4108.00,0.9738
4107.00,0.9506
4106.00,0.9280
4105.00,0.9062
4104.00,0.8854
4103.00,0.8657
4102.00,0.8472
4101.00,0.8300
4100.00,0.8143
4099.00,0.8002
4098.00,0.7877
4097.00,0.7769
4096.00,0.7681
4095.00,0.7613
4094.00,0.7567
4093.00,0.7543
4092.00,0.7540
4091.00,0.7560
4090.00,0.7601
4089.00,0.7664
4088.00,0.7747
4087.00,0.7850
4086.00,0.7972
4085.00,0.8112
4084.00,0.8267
4083.00,0.8437
4082.00,0.8620
4081.00,0.8815
4080.00,0.9019
4079.00,0.9232
4078.00,0.9452
4077.00,0.9677
4076.00,0.9907
4075.00,1.0139
4074.00,1.0374
4073.00,1.0611
4072.00,1.0848
4071.00,1.1086
4070.00,1.1322
4069.00,1.1558
4068.00,1.1791
4067.00,1.2023
4066.00,1.2252
4065.00,1.2476
4064.00,1.2696
4063.00,1.2911
4062.00,1.3123
4061.00,1.3330
4060.00,1.3533
4059.00,1.3729
4058.00,1.3920
4057.00,1.4103
4056.00,1.4281
4055.00,1.4452
4054.00,1.4617
4053.00,1.4775
4052.00,1.4929
4051.00,1.5079
4050.00,1.5224
4049.00,1.5362
4048.00,1.5493
4047.00,1.5618
4046.00,1.5735
4045.00,1.5846
4044.00,1.5951
4043.00,1.6051
4042.00,1.6145
4041.00,1.6235
4040.00,1.6319
4039.00,1.6399
4038.00,1.6474
4037.00,1.6544
4036.00,1.6609
4035.00,1.6668
4034.00,1.6723
4033.00,1.6773
4032.00,1.6819
4031.00,1.6860
4030.00,1.6897
4029.00,1.6928
4028.00,1.6953
4027.00,1.6973
4026.00,1.6989
4025.00,1.7002
4024.00,1.7011
4023.00,1.7016
4022.00,1.7014
4021.00,1.7006
4020.00,1.6994
4019.00,1.6979
4018.00,1.6962
4017.00,1.6940
4016.00,1.6912
4015.00,1.6877
4014.00,1.6838
4013.00,1.6796
4012.00,1.6751
4011.00,1.6701
4010.00,1.6645
4009.00,1.6583
4008.00,1.6516
4007.00,1.6445
4006.00,1.6370
4005.00,1.6288
4004.00,1.6201
4003.00,1.6107
4002.00,1.6006
4001.00,1.5899
4000.00,1.5787
3999.00,1.5670
3998.00,1.5549
3997.00,1.5423
3996.00,1.5291
3995.00,1.5152
3994.00,1.5005
3993.00,1.4850
3992.00,1.4688
3991.00,1.4518
3990.00,1.4343
3989.00,1.4163
3988.00,1.3977
3987.00,1.3785
3986.00,1.3586
3985.00,1.3381
3984.00,1.3170
3983.00,1.2955
3982.00,1.2737
3981.00,1.2517
3980.00,1.2295
3979.00,1.2070
3978.00,1.1844
3977.00,1.1616
3976.00,1.1387
3975.00,1.1157
3974.00,1.0924
3973.00,1.0690
3972.00,1.0454
3971.00,1.0219
3970.00,0.9985
3969.00,0.9753
3968.00,0.9525
3967.00,0.9304
3966.00,0.9092
3965.00,0.8891
3964.00,0.8703
3963.00,0.8529
3962.00,0.8371
3961.00,0.8232
3960.00,0.8113
3959.00,0.8016
3958.00,0.7941
3957.00,0.7890
3956.00,0.7864
3955.00,0.7862
3954.00,0.7884
3953.00,0.7929
3952.00,0.7998
3951.00,0.8090
3950.00,0.8203
3949.00,0.8337
3948.00,0.8490
3947.00,0.8659
3946.00,0.8842
3945.00,0.9038
3944.00,0.9246
3943.00,0.9467
3942.00,0.9700
3941.00,0.9941
3940.00,1.0186
3939.00,1.0431
3938.00,1.0679
3937.00,1.0929
3936.00,1.1179
3935.00,1.1428
3934.00,1.1675
3933.00,1.1925
3932.00,1.2178
3931.00,1.2431
3930.00,1.2682
3929.00,1.2924
3928.00,1.3158
3927.00,1.3384
3926.00,1.3604
3925.00,1.3822
3924.00,1.4036
3923.00,1.4243
3922.00,1.4441
3921.00,1.4627
3920.00,1.4804
3919.00,1.4975
3918.00,1.5142
3917.00,1.5308
3916.00,1.5471
3915.00,1.5629
3914.00,1.5777
3913.00,1.5915
3912.00,1.6045
3911.00,1.6168
3910.00,1.6288
3909.00,1.6401
3908.00,1.6505
3907.00,1.6601
3906.00,1.6689
3905.00,1.6773
3904.00,1.6855
3903.00,1.6934
3902.00,1.7009
3901.00,1.7078
3900.00,1.7142
3899.00,1.7203
3898.00,1.7263
3897.00,1.7318
3896.00,1.7368
3895.00,1.7410
3894.00,1.7445
3893.00,1.7475
3892.00,1.7499
3891.00,1.7518
3890.00,1.7531
3889.00,1.7538
3888.00,1.7538
3887.00,1.7529
3886.00,1.7519
3885.00,1.7512
3884.00,1.7507
3883.00,1.7497
3882.00,1.7476
3881.00,1.7446
3880.00,1.7412
3879.00,1.7380
3878.00,1.7348
3877.00,1.7312
3876.00,1.7265
3875.00,1.7209
3874.00,1.7149
3873.00,1.7088
3872.00,1.7021
3871.00,1.6941
3870.00,1.6850
3869.00,1.6755
3868.00,1.6659
3867.00,1.6561
3866.00,1.6455
3865.00,1.6344
3864.00,1.6231
3863.00,1.6111
3862.00,1.5983
3861.00,1.5845
3860.00,1.5703
3859.00,1.5560
3858.00,1.5417
3857.00,1.5272
3856.00,1.5114
3855.00,1.4930
3854.00,1.4715
3853.00,1.4480
3852.00,1.4240
3851.00,1.4006
3850.00,1.3779
3849.00,1.3556
3848.00,1.3336
3847.00,1.3113
3846.00,1.2881
3845.00,1.2634
3844.00,1.2374
3843.00,1.2106
3842.00,1.1835
3841.00,1.1564
3840.00,1.1288
3839.00,1.1000
3838.00,1.0699
3837.00,1.0392
3836.00,1.0092
3835.00,0.9806
3834.00,0.9537
3833.00,0.9282
3832.00,0.9041
3831.00,0.8815
3830.00,0.8609
3829.00,0.8422
3828.00,0.8253
3827.00,0.8103
3826.00,0.7974
3825.00,0.7869
3824.00,0.7789
3823.00,0.7732
3822.00,0.7700
3821.00,0.7699
3820.00,0.7726
3819.00,0.7775
3818.00,0.7842
3817.00,0.7938
3816.00,0.8071
3815.00,0.8237
3814.00,0.8419
3813.00,0.8607
3812.00,0.8802
3811.00,0.9013
3810.00,0.9239
3809.00,0.9477
3808.00,0.9731
3807.00,1.0007
3806.00,1.0301
3805.00,1.0590
3804.00,1.0859
3803.00,1.1116
3802.00,1.1387
3801.00,1.1687
3800.00,1.1999
3799.00,1.2295
3798.00,1.2564
3797.00,1.2819
3796.00,1.3076
3795.00,1.3337
3794.00,1.3595
3793.00,1.3842
3792.00,1.4078
3791.00,1.4307
3790.00,1.4530
3789.00,1.4748
3788.00,1.4959
3787.00,1.5163
3786.00,1.5360
3785.00,1.5551
3784.00,1.5733
3783.00,1.5904
3782.00,1.6063
3781.00,1.6214
3780.00,1.6363
3779.00,1.6511
3778.00,1.6655
3777.00,1.6791
3776.00,1.6916
3775.00,1.7032
3774.00,1.7140
3773.00,1.7242
3772.00,1.7338
3771.00,1.7430
3770.00,1.7519
3769.00,1.7606
3768.00,1.7686
3767.00,1.7760
3766.00,1.7830
3765.00,1.7900
3764.00,1.7970
3763.00,1.8032
3762.00,1.8083
3761.00,1.8128
3760.00,1.8173
3759.00,1.8219
3758.00,1.8262
3757.00,1.8296
3756.00,1.8322
3755.00,1.8340
3754.00,1.8350
3753.00,1.8353
3752.00,1.8343
3751.00,1.8319
3750.00,1.8275
3749.00,1.8216
3748.00,1.8146
3747.00,1.8062
3746.00,1.7957
3745.00,1.7835
3744.00,1.7709
3743.00,1.7589
3742.00,1.7470
3741.00,1.7344
3740.00,1.7215
3739.00,1.7091
3738.00,1.6975
3737.00,1.6863
3736.00,1.6756
3735.00,1.6656
3734.00,1.6563
3733.00,1.6474
3732.00,1.6394
3731.00,1.6331
3730.00,1.6287
3729.00,1.6254
3728.00,1.6218
3727.00,1.6166
3726.00,1.6094
3725.00,1.5991
3724.00,1.5850
3723.00,1.5667
3722.00,1.5444
3721.00,1.5192
3720.00,1.4924
3719.00,1.4648
3718.00,1.4373
3717.00,1.4104
3716.00,1.3842
3715.00,1.3588
3714.00,1.3336
3713.00,1.3078
3712.00,1.2809
3711.00,1.2530
3710.00,1.2243
3709.00,1.1957
3708.00,1.1679
3707.00,1.1414
3706.00,1.1163
3705.00,1.0920
3704.00,1.0681
3703.00,1.0442
3702.00,1.0206
3701.00,0.9976
3700.00,0.9760
3699.00,0.9564
3698.00,0.9388
3697.00,0.9235
3696.00,0.9104
3695.00,0.9000
3694.00,0.8922
3693.00,0.8870
3692.00,0.8848
3691.00,0.8858
3690.00,0.8898
3689.00,0.8963
3688.00,0.9052
3687.00,0.9163
3686.00,0.9294
3685.00,0.9446
3684.00,0.9622
3683.00,0.9826
3682.00,1.0052
3681.00,1.0293
3680.00,1.0545
3679.00,1.0800
3678.00,1.1056
3677.00,1.1317
3676.00,1.1599
3675.00,1.1907
3674.00,1.2217
3673.00,1.2504
3672.00,1.2763
3671.00,1.3018
3670.00,1.3289
3669.00,1.3575
3668.00,1.3856
3667.00,1.4120
3666.00,1.4366
3665.00,1.4600
3664.00,1.4828
3663.00,1.5049
3662.00,1.5265
3661.00,1.5476
3660.00,1.5682
3659.00,1.5880
3658.00,1.6067
3657.00,1.6249
3656.00,1.6430
3655.00,1.6609
3654.00,1.6775
3653.00,1.6922
3652.00,1.7053
3651.00,1.7181
3650.00,1.7315
3649.00,1.7451
3648.00,1.7580
3647.00,1.7693
3646.00,1.7788
3645.00,1.7865
3644.00,1.7929
3643.00,1.7984
3642.00,1.8034
3641.00,1.8082
3640.00,1.8129
3639.00,1.8174
3638.00,1.8215
3637.00,1.8257
3636.00,1.8301
3635.00,1.8348
3634.00,1.8398
3633.00,1.8453
3632.00,1.8512
3631.00,1.8575
3630.00,1.8641
3629.00,1.8718
3628.00,1.8807
3627.00,1.8903
3626.00,1.8999
3625.00,1.9090
3624.00,1.9173
3623.00,1.9243
3622.00,1.9285
3621.00,1.9294
3620.00,1.9277
3619.00,1.9244
3618.00,1.9204
3617.00,1.9162
3616.00,1.9121
3615.00,1.9081
3614.00,1.9043
3613.00,1.9010
3612.00,1.8985
3611.00,1.8964
3610.00,1.8939
3609.00,1.8911
3608.00,1.8884
3607.00,1.8865
3606.00,1.8849
3605.00,1.8833
3604.00,1.8813
3603.00,1.8787
3602.00,1.8757
3601.00,1.8721
3600.00,1.8679
3599.00,1.8629
3598.00,1.8569
3597.00,1.8500
3596.00,1.8425
3595.00,1.8344
3594.00,1.8255
3593.00,1.8160
3592.00,1.8060
3591.00,1.7953
3590.00,1.7838
3589.00,1.7713
3588.00,1.7583
3587.00,1.7449
3586.00,1.7310
3585.00,1.7166
3584.00,1.7014
3583.00,1.6856
3582.00,1.6692
3581.00,1.6521
3580.00,1.6345
3579.00,1.6164
3578.00,1.5979
3577.00,1.5790
3576.00,1.5597
3575.00,1.5400
3574.00,1.5201
3573.00,1.5000
3572.00,1.4800
3571.00,1.4600
3570.00,1.4399
3569.00,1.4193
3568.00,1.3986
3567.00,1.3778
3566.00,1.3573
3565.00,1.3373
3564.00,1.3182
3563.00,1.3001
3562.00,1.2831
3561.00,1.2672
3560.00,1.2524
3559.00,1.2387
3558.00,1.2262
3557.00,1.2150
3556.00,1.2053
3555.00,1.1972
3554.00,1.1907
3553.00,1.1859
3552.00,1.1827
3551.00,1.1808
3550.00,1.1803
3549.00,1.1812
3548.00,1.1837
3547.00,1.1878
3546.00,1.1934
3545.00,1.2002
3544.00,1.2081
3543.00,1.2168
3542.00,1.2264
3541.00,1.2369
3540.00,1.2483
3539.00,1.2606
3538.00,1.2739
3537.00,1.2880
3536.00,1.3028
3535.00,1.3181
3534.00,1.3338
3533.00,1.3499
3532.00,1.3665
3531.00,1.3837
3530.00,1.4016
3529.00,1.4198
3528.00,1.4382
3527.00,1.4566
3526.00,1.4748
3525.00,1.4930
3524.00,1.5115
3523.00,1.5304
3522.00,1.5493
3521.00,1.5682
3520.00,1.5868
3519.00,1.6053
3518.00,1.6236
3517.00,1.6416
3516.00,1.6592
3515.00,1.6763
3514.00,1.6930
3513.00,1.7094
3512.00,1.7256
3511.00,1.7414
3510.00,1.7567
3509.00,1.7715
3508.00,1.7858
3507.00,1.7996
3506.00,1.8129
3505.00,1.8257
3504.00,1.8380
3503.00,1.8498
3502.00,1.8612
3501.00,1.8723
3500.00,1.8834
3499.00,1.8940
3498.00,1.9039
3497.00,1.9129
3496.00,1.9211
3495.00,1.9287
3494.00,1.9358
3493.00,1.9425
3492.00,1.9489
3491.00,1.9550
3490.00,1.9607
3489.00,1.9660
3488.00,1.9708
3487.00,1.9751
3486.00,1.9789
3485.00,1.9821
3484.00,1.9851
3483.00,1.9876
3482.00,1.9894
3481.00,1.9905
3480.00,1.9910
3479.00,1.9912
3478.00,1.9912
3477.00,1.9911
3476.00,1.9906
3475.00,1.9895
3474.00,1.9879
3473.00,1.9860
3472.00,1.9836
3471.00,1.9806
3470.00,1.9770
3469.00,1.9730
3468.00,1.9689
3467.00,1.9645
3466.00,1.9594
3465.00,1.9536
3464.00,1.9472
3463.00,1.9403
3462.00,1.9329
3461.00,1.9252
3460.00,1.9171
3459.00,1.9085
3458.00,1.8990
3457.00,1.8889
3456.00,1.8782
3455.00,1.8670
3454.00,1.8551
3453.00,1.8428
3452.00,1.8301
3451.00,1.8170
3450.00,1.8031
3449.00,1.7881
3448.00,1.7720
3447.00,1.7549
3446.00,1.7370
3445.00,1.7187
3444.00,1.6999
3443.00,1.6804
3442.00,1.6598
3441.00,1.6384
3440.00,1.6163
3439.00,1.5936
3438.00,1.5701
3437.00,1.5458
3436.00,1.5206
3435.00,1.4949
3434.00,1.4686
3433.00,1.4419
3432.00,1.4148
3431.00,1.3872
3430.00,1.3593
3429.00,1.3313
3428.00,1.3035
3427.00,1.2762
3426.00,1.2495
3425.00,1.2235
3424.00,1.1985
3423.00,1.1748
3422.00,1.1524
3421.00,1.1316
3420.00,1.1126
3419.00,1.0955
3418.00,1.0807
3417.00,1.0683
3416.00,1.0585
3415.00,1.0514
3414.00,1.0470
3413.00,1.0453
3412.00,1.0464
3411.00,1.0501
3410.00,1.0566
3409.00,1.0655
3408.00,1.0769
3407.00,1.0904
3406.00,1.1058
3405.00,1.1231
3404.00,1.1418
3403.00,1.1618
3402.00,1.1827
3401.00,1.2045
3400.00,1.2271
3399.00,1.2506
3398.00,1.2747
3397.00,1.2995
3396.00,1.3247
3395.00,1.3501
3394.00,1.3757
3393.00,1.4015
3392.00,1.4275
3391.00,1.4534
3390.00,1.4789
3389.00,1.5040
3388.00,1.5289
3387.00,1.5534
3386.00,1.5776
3385.00,1.6012
3384.00,1.6242
3383.00,1.6465
3382.00,1.6683
3381.00,1.6897
3380.00,1.7108
3379.00,1.7312
3378.00,1.7505
3377.00,1.7686
3376.00,1.7859
3375.00,1.8027
3374.00,1.8189
3373.00,1.8344
3372.00,1.8493
3371.00,1.8637
3370.00,1.8774
3369.00,1.8904
3368.00,1.9027
3367.00,1.9143
3366.00,1.9256
3365.00,1.9367
3364.00,1.9474
3363.00,1.9573
3362.00,1.9661
3361.00,1.9742
3360.00,1.9821
3359.00,1.9897
3358.00,1.9968
3357.00,2.0034
3356.00,2.0097
3355.00,2.0155
3354.00,2.0206
3353.00,2.0251
3352.00,2.0293
3351.00,2.0332
3350.00,2.0362
3349.00,2.0383
3348.00,2.0401
3347.00,2.0419
3346.00,2.0434
3345.00,2.0444
3344.00,2.0445
3343.00,2.0439
3342.00,2.0428
3341.00,2.0416
3340.00,2.0406
3339.00,2.0394
3338.00,2.0376
3337.00,2.0350
3336.00,2.0315
3335.00,2.0273
3334.00,2.0227
3333.00,2.0177
3332.00,2.0126
3331.00,2.0069
3330.00,2.0007
3329.00,1.9940
3328.00,1.9871
3327.00,1.9799
3326.00,1.9721
3325.00,1.9637
3324.00,1.9549
3323.00,1.9455
3322.00,1.9354
3321.00,1.9245
3320.00,1.9128
3319.00,1.9004
3318.00,1.8872
3317.00,1.8737
3316.00,1.8597
3315.00,1.8452
3314.00,1.8299
3313.00,1.8137
3312.00,1.7967
3311.00,1.7790
3310.00,1.7603
3309.00,1.7410
3308.00,1.7210
3307.00,1.7005
3306.00,1.6793
3305.00,1.6572
3304.00,1.6340
3303.00,1.6098
3302.00,1.5847
3301.00,1.5588
3300.00,1.5324
3299.00,1.5056
3298.00,1.4784
3297.00,1.4506
3296.00,1.4225
3295.00,1.3943
3294.00,1.3661
3293.00,1.3380
3292.00,1.3102
3291.00,1.2828
3290.00,1.2561
3289.00,1.2306
3288.00,1.2063
3287.00,1.1835
3286.00,1.1623
3285.00,1.1429
3284.00,1.1255
3283.00,1.1104
3282.00,1.0978
3281.00,1.0877
3280.00,1.0803
3279.00,1.0758
3278.00,1.0740
3277.00,1.0752
3276.00,1.0793
3275.00,1.0863
3274.00,1.0961
3273.00,1.1085
3272.00,1.1232
3271.00,1.1401
3270.00,1.1591
3269.00,1.1799
3268.00,1.2023
3267.00,1.2262
3266.00,1.2512
3265.00,1.2771
3264.00,1.3038
3263.00,1.3310
3262.00,1.3587
3261.00,1.3866
3260.00,1.4148
3259.00,1.4429
3258.00,1.4708
3257.00,1.4986
3256.00,1.5261
3255.00,1.5532
3254.00,1.5796
3253.00,1.6054
3252.00,1.6306
3251.00,1.6551
3250.00,1.6793
3249.00,1.7029
3248.00,1.7258
3247.00,1.7479
3246.00,1.7689
3245.00,1.7891
3244.00,1.8087
3243.00,1.8277
3242.00,1.8460
3241.00,1.8635
3240.00,1.8803
3239.00,1.8964
3238.00,1.9118
3237.00,1.9264
3236.00,1.9402
3235.00,1.9535
3234.00,1.9662
3233.00,1.9784
3232.00,1.9902
3231.00,2.0013
3230.00,2.0119
3229.00,2.0221
3228.00,2.0318
3227.00,2.0407
3226.00,2.0487
3225.00,2.0564
3224.00,2.0639
3223.00,2.0708
3222.00,2.0768
3221.00,2.0820
3220.00,2.0868
3219.00,2.0913
3218.00,2.0956
3217.00,2.0996
3216.00,2.1034
3215.00,2.1069
3214.00,2.1095
3213.00,2.1112
3212.00,2.1123
3211.00,2.1133
3210.00,2.1143
3209.00,2.1151
3208.00,2.1156
3207.00,2.1155
3206.00,2.1147
3205.00,2.1134
3204.00,2.1117
3203.00,2.1094
3202.00,2.1068
3201.00,2.1042
3200.00,2.1017
3199.00,2.0989
3198.00,2.0953
3197.00,2.0906
3196.00,2.0847
3195.00,2.0773
3194.00,2.0689
3193.00,2.0601
3192.00,2.0517
3191.00,2.0436
3190.00,2.0350
3189.00,2.0255
3188.00,2.0148
3187.00,2.0033
3186.00,1.9910
3185.00,1.9781
3184.00,1.9643
3183.00,1.9499
3182.00,1.9347
3181.00,1.9189
3180.00,1.9025
3179.00,1.8855
3178.00,1.8679
3177.00,1.8496
3176.00,1.8306
3175.00,1.8112
3174.00,1.7917
3173.00,1.7725
3172.00,1.7547
3171.00,1.7391
3170.00,1.7269
3169.00,1.7193
3168.00,1.7170
3167.00,1.7201
3166.00,1.7268
3165.00,1.7345
3164.00,1.7389
3163.00,1.7361
3162.00,1.7234
3161.00,1.7003
3160.00,1.6685
3159.00,1.6307
3158.00,1.5899
3157.00,1.5481
3156.00,1.5068
3155.00,1.4670
3154.00,1.4289
3153.00,1.3932
3152.00,1.3600
3151.00,1.3295
3150.00,1.3019
3149.00,1.2773
3148.00,1.2557
3147.00,1.2370
3146.00,1.2213
3145.00,1.2086
3144.00,1.1990
3143.00,1.1927
3142.00,1.1897
3141.00,1.1900
3140.00,1.1936
3139.00,1.2005
3138.00,1.2105
3137.00,1.2234
3136.00,1.2389
3135.00,1.2569
3134.00,1.2770
3133.00,1.2988
3132.00,1.3223
3131.00,1.3470
3130.00,1.3727
3129.00,1.3992
3128.00,1.4264
3127.00,1.4541
3126.00,1.4821
3125.00,1.5103
3124.00,1.5386
3123.00,1.5668
3122.00,1.5948
3121.00,1.6223
3120.00,1.6493
3119.00,1.6757
3118.00,1.7017
3117.00,1.7273
3116.00,1.7525
3115.00,1.7769
3114.00,1.8002
3113.00,1.8224
3112.00,1.8437
3111.00,1.8641
3110.00,1.8837
3109.00,1.9026
3108.00,1.9208
3107.00,1.9385
3106.00,1.9556
3105.00,1.9721
3104.00,1.9880
3103.00,2.0034
3102.00,2.0180
3101.00,2.0318
3100.00,2.0451
3099.00,2.0580
3098.00,2.0701
3097.00,2.0812
3096.00,2.0915
3095.00,2.1013
3094.00,2.1110
3093.00,2.1205
3092.00,2.1294
3091.00,2.1377
3090.00,2.1455
3089.00,2.1529
3088.00,2.1599
3087.00,2.1664
3086.00,2.1722
3085.00,2.1774
3084.00,2.1820
3083.00,2.1861
3082.00,2.1897
3081.00,2.1928
3080.00,2.1956
3079.00,2.1980
3078.00,2.2001
3077.00,2.2022
3076.00,2.2040
3075.00,2.2052
3074.00,2.2052
3073.00,2.2042
3072.00,2.2029
3071.00,2.2014
3070.00,2.1997
3069.00,2.1976
3068.00,2.1952
3067.00,2.1923
3066.00,2.1884
3065.00,2.1836
3064.00,2.1783
3063.00,2.1729
3062.00,2.1676
3061.00,2.1622
3060.00,2.1564
3059.00,2.1500
3058.00,2.1428
3057.00,2.1348
3056.00,2.1261
3055.00,2.1165
3054.00,2.1065
3053.00,2.0963
3052.00,2.0862
3051.00,2.0758
3050.00,2.0645
3049.00,2.0519
3048.00,2.0379
3047.00,2.0233
3046.00,2.0085
3045.00,1.9935
3044.00,1.9782
3043.00,1.9624
3042.00,1.9460
3041.00,1.9290
3040.00,1.9112
3039.00,1.8928
3038.00,1.8738
3037.00,1.8543
3036.00,1.8344
3035.00,1.8141
3034.00,1.7934
3033.00,1.7728
3032.00,1.7526
3031.00,1.7330
3030.00,1.7138
3029.00,1.6948
3028.00,1.6765
3027.00,1.6592
3026.00,1.6434
3025.00,1.6293
3024.00,1.6170
3023.00,1.6066
3022.00,1.5982
3021.00,1.5922
3020.00,1.5886
3019.00,1.5875
3018.00,1.5890
3017.00,1.5932
3016.00,1.6000
3015.00,1.6094
3014.00,1.6213
3013.00,1.6353
3012.00,1.6510
3011.00,1.6682
3010.00,1.6864
3009.00,1.7050
3008.00,1.7234
3007.00,1.7408
3006.00,1.7569
3005.00,1.7716
3004.00,1.7847
3003.00,1.7955
3002.00,1.8039
3001.00,1.8098
3000.00,1.8136
2999.00,1.8155
2998.00,1.8159
2997.00,1.8156
2996.00,1.8153
2995.00,1.8158
2994.00,1.8174
2993.00,1.8205
2992.00,1.8255
2991.00,1.8325
2990.00,1.8419
2989.00,1.8536
2988.00,1.8674
2987.00,1.8832
2986.00,1.9007
2985.00,1.9196
2984.00,1.9398
2983.00,1.9610
2982.00,1.9831
2981.00,2.0060
2980.00,2.0295
2979.00,2.0532
2978.00,2.0766
2977.00,2.0995
2976.00,2.1219
2975.00,2.1437
2974.00,2.1651
2973.00,2.1867
2972.00,2.2084
2971.00,2.2293
2970.00,2.2480
2969.00,2.2647
2968.00,2.2804
2967.00,2.2960
2966.00,2.3116
2965.00,2.3270
2964.00,2.3418
2963.00,2.3560
2962.00,2.3696
2961.00,2.3829
2960.00,2.3961
2959.00,2.4086
2958.00,2.4197
2957.00,2.4302
2956.00,2.4414
2955.00,2.4536
2954.00,2.4664
2953.00,2.4797
2952.00,2.4945
2951.00,2.5115
2950.00,2.5303
2949.00,2.5497
2948.00,2.5684
2947.00,2.5850
2946.00,2.5976
2945.00,2.6049
2944.00,2.6071
2943.00,2.6045
2942.00,2.5969
2941.00,2.5833
2940.00,2.5646
2939.00,2.5434
2938.00,2.5229
2937.00,2.5047
2936.00,2.4890
2935.00,2.4746
2934.00,2.4611
2933.00,2.4488
2932.00,2.4388
2931.00,2.4313
2930.00,2.4255
2929.00,2.4204
2928.00,2.4152
2927.00,2.4095
2926.00,2.4035
2925.00,2.3979
2924.00,2.3930
2923.00,2.3888
2922.00,2.3846
2921.00,2.3803
2920.00,2.3758
2919.00,2.3712
2918.00,2.3666
2917.00,2.3622
2916.00,2.3585
2915.00,2.3553
2914.00,2.3520
2913.00,2.3478
2912.00,2.3427
2911.00,2.3366
2910.00,2.3299
2909.00,2.3224
2908.00,2.3144
2907.00,2.3059
2906.00,2.2969
2905.00,2.2874
2904.00,2.2780
2903.00,2.2687
2902.00,2.2591
2901.00,2.2485
2900.00,2.2367
2899.00,2.2238
2898.00,2.2105
2897.00,2.1971
2896.00,2.1832
2895.00,2.1682
2894.00,2.1519
2893.00,2.1346
2892.00,2.1164
2891.00,2.0974
2890.00,2.0775
2889.00,2.0569
2888.00,2.0362
2887.00,2.0155
2886.00,1.9946
2885.00,1.9734
2884.00,1.9521
2883.00,1.9311
2882.00,1.9108
2881.00,1.8919
2880.00,1.8746
2879.00,1.8592
2878.00,1.8462
2877.00,1.8361
2876.00,1.8290
2875.00,1.8251
2874.00,1.8240
2873.00,1.8250
2872.00,1.8273
2871.00,1.8300
2870.00,1.8318
2869.00,1.8317
2868.00,1.8288
2867.00,1.8228
2866.00,1.8137
2865.00,1.8018
2864.00,1.7871
2863.00,1.7695
2862.00,1.7486
2861.00,1.7242
2860.00,1.6966
2859.00,1.6664
2858.00,1.6342
2857.00,1.6010
2856.00,1.5680
2855.00,1.5366
2854.00,1.5079
2853.00,1.4829
2852.00,1.4624
2851.00,1.4470
2850.00,1.4371
2849.00,1.4327
2848.00,1.4338
2847.00,1.4400
2846.00,1.4510
2845.00,1.4662
2844.00,1.4851
2843.00,1.5071
2842.00,1.5316
2841.00,1.5581
2840.00,1.5860
2839.00,1.6149
2838.00,1.6443
2837.00,1.6740
2836.00,1.7039
2835.00,1.7339
2834.00,1.7637
2833.00,1.7930
2832.00,1.8219
2831.00,1.8502
2830.00,1.8778
2829.00,1.9047
2828.00,1.9306
2827.00,1.9554
2826.00,1.9789
2825.00,2.0013
2824.00,2.0229
2823.00,2.0441
2822.00,2.0653
2821.00,2.0862
2820.00,2.1062
2819.00,2.1250
2818.00,2.1425
2817.00,2.1588
2816.00,2.1744
2815.00,2.1898
2814.00,2.2050
2813.00,2.2199
2812.00,2.2336
2811.00,2.2458
2810.00,2.2569
2809.00,2.2676
2808.00,2.2775
2807.00,2.2866
2806.00,2.2951
2805.00,2.3041
2804.00,2.3137
2803.00,2.3229
2802.00,2.3306
2801.00,2.3365
2800.00,2.3413
2799.00,2.3457
2798.00,2.3500
2797.00,2.3540
2796.00,2.3574
2795.00,2.3605
2794.00,2.3635
2793.00,2.3663
2792.00,2.3686
2791.00,2.3699
2790.00,2.3701
2789.00,2.3693
2788.00,2.3679
2787.00,2.3659
2786.00,2.3635
2785.00,2.3608
2784.00,2.3579
2783.00,2.3548
2782.00,2.3516
2781.00,2.3485
2780.00,2.3449
2779.00,2.3405
2778.00,2.3353
2777.00,2.3298
2776.00,2.3240
2775.00,2.3174
2774.00,2.3097
2773.00,2.3010
2772.00,2.2915
2771.00,2.2816
2770.00,2.2715
2769.00,2.2610
2768.00,2.2498
2767.00,2.2374
2766.00,2.2240
2765.00,2.2101
2764.00,2.1961
2763.00,2.1818
2762.00,2.1666
2761.00,2.1501
2760.00,2.1323
2759.00,2.1134
2758.00,2.0934
2757.00,2.0725
2756.00,2.0505
2755.00,2.0276
2754.00,2.0036
2753.00,1.9785
2752.00,1.9521
2751.00,1.9245
2750.00,1.8959
2749.00,1.8659
2748.00,1.8345
2747.00,1.8012
2746.00,1.7662
2745.00,1.7294
2744.00,1.6911
2743.00,1.6514
2742.00,1.6104
2741.00,1.5686
2740.00,1.5261
2739.00,1.4834
2738.00,1.4408
2737.00,1.3986
2736.00,1.3574
2735.00,1.3177
2734.00,1.2800
2733.00,1.2448
2732.00,1.2124
2731.00,1.1834
2730.00,1.1582
2729.00,1.1374
2728.00,1.1214
2727.00,1.1105
2726.00,1.1050
2725.00,1.1051
2724.00,1.1107
2723.00,1.1219
2722.00,1.1384
2721.00,1.1599
2720.00,1.1858
2719.00,1.2156
2718.00,1.2487
2717.00,1.2843
2716.00,1.3221
2715.00,1.3616
2714.00,1.4022
2713.00,1.4436
2712.00,1.4855
2711.00,1.5274
2710.00,1.5691
2709.00,1.6104
2708.00,1.6514
2707.00,1.6918
2706.00,1.7314
2705.00,1.7700
2704.00,1.8073
2703.00,1.8432
2702.00,1.8774
2701.00,1.9103
2700.00,1.9418
2699.00,1.9719
2698.00,2.0007
2697.00,2.0280
2696.00,2.0541
2695.00,2.0789
2694.00,2.1024
2693.00,2.1248
2692.00,2.1464
2691.00,2.1671
2690.00,2.1869
2689.00,2.2056
2688.00,2.2231
2687.00,2.2393
2686.00,2.2546
2685.00,2.2697
2684.00,2.2846
2683.00,2.2995
2682.00,2.3141
2681.00,2.3282
2680.00,2.3410
2679.00,2.3524
2678.00,2.3622
2677.00,2.3712
2676.00,2.3796
2675.00,2.3877
2674.00,2.3955
2673.00,2.4032
2672.00,2.4106
2671.00,2.4171
2670.00,2.4228
2669.00,2.4284
2668.00,2.4342
2667.00,2.4400
2666.00,2.4451
2665.00,2.4490
2664.00,2.4518
2663.00,2.4537
2662.00,2.4555
2661.00,2.4573
2660.00,2.4588
2659.00,2.4592
2658.00,2.4588
2657.00,2.4581
2656.00,2.4576
2655.00,2.4570
2654.00,2.4558
2653.00,2.4539
2652.00,2.4513
2651.00,2.4483
2650.00,2.4449
2649.00,2.4409
2648.00,2.4360
2647.00,2.4300
2646.00,2.4235
2645.00,2.4172
2644.00,2.4110
2643.00,2.4041
2642.00,2.3963
2641.00,2.3878
2640.00,2.3788
2639.00,2.3691
2638.00,2.3588
2637.00,2.3478
2636.00,2.3364
2635.00,2.3245
2634.00,2.3119
2633.00,2.2987
2632.00,2.2854
2631.00,2.2730
2630.00,2.2624
2629.00,2.2532
2628.00,2.2440
2627.00,2.2331
2626.00,2.2197
2625.00,2.2039
2624.00,2.1862
2623.00,2.1668
2622.00,2.1457
2621.00,2.1229
2620.00,2.0983
2619.00,2.0721
2618.00,2.0445
2617.00,2.0159
2616.00,1.9861
2615.00,1.9547
2614.00,1.9214
2613.00,1.8860
2612.00,1.8485
2611.00,1.8092
2610.00,1.7679
2609.00,1.7247
2608.00,1.6796
2607.00,1.6328
2606.00,1.5845
2605.00,1.5356
2604.00,1.4866
2603.00,1.4380
2602.00,1.3905
2601.00,1.3446
2600.00,1.3010
2599.00,1.2604
2598.00,1.2236
2597.00,1.1912
2596.00,1.1640
2595.00,1.1424
2594.00,1.1269
2593.00,1.1179
2592.00,1.1156
2591.00,1.1202
2590.00,1.1315
2589.00,1.1492
2588.00,1.1728
2587.00,1.2016
2586.00,1.2349
2585.00,1.2720
2584.00,1.3121
2583.00,1.3544
2582.00,1.3983
2581.00,1.4434
2580.00,1.4891
2579.00,1.5350
2578.00,1.5807
2577.00,1.6259
2576.00,1.6704
2575.00,1.7143
2574.00,1.7573
2573.00,1.7993
2572.00,1.8400
2571.00,1.8791
2570.00,1.9161
2569.00,1.9514
2568.00,1.9850
2567.00,2.0171
2566.00,2.0477
2565.00,2.0767
2564.00,2.1044
2563.00,2.1308
2562.00,2.1561
2561.00,2.1808
2560.00,2.2050
2559.00,2.2284
2558.00,2.2503
2557.00,2.2707
2556.00,2.2897
2555.00,2.3074
2554.00,2.3237
2553.00,2.3391
2552.00,2.3544
2551.00,2.3699
2550.00,2.3849
2549.00,2.3987
2548.00,2.4116
2547.00,2.4243
2546.00,2.4372
2545.00,2.4497
2544.00,2.4613
2543.00,2.4714
2542.00,2.4802
2541.00,2.4878
2540.00,2.4945
2539.00,2.5003
2538.00,2.5058
2537.00,2.5117
2536.00,2.5182
2535.00,2.5244
2534.00,2.5293
2533.00,2.5327
2532.00,2.5357
2531.00,2.5393
2530.00,2.5433
2529.00,2.5473
2528.00,2.5509
2527.00,2.5539
2526.00,2.5557
2525.00,2.5558
2524.00,2.5544
2523.00,2.5526
2522.00,2.5512
2521.00,2.5505
2520.00,2.5498
2519.00,2.5487
2518.00,2.5467
2517.00,2.5442
2516.00,2.5412
2515.00,2.5377
2514.00,2.5334
2513.00,2.5280
2512.00,2.5216
2511.00,2.5145
2510.00,2.5073
2509.00,2.5005
2508.00,2.4938
2507.00,2.4864
2506.00,2.4775
2505.00,2.4676
2504.00,2.4575
2503.00,2.4477
2502.00,2.4375
2501.00,2.4262
2500.00,2.4138
2499.00,2.4006
2498.00,2.3868
2497.00,2.3725
2496.00,2.3571
2495.00,2.3405
2494.00,2.3227
2493.00,2.3041
2492.00,2.2849
2491.00,2.2650
2490.00,2.2443
2489.00,2.2229
2488.00,2.2008
2487.00,2.1779
2486.00,2.1535
2485.00,2.1271
2484.00,2.0987
2483.00,2.0684
2482.00,2.0369
2481.00,2.0042
2480.00,1.9704
2479.00,1.9347
2478.00,1.8970
2477.00,1.8571
2476.00,1.8155
2475.00,1.7723
2474.00,1.7278
2473.00,1.6823
2472.00,1.6358
2471.00,1.5887
2470.00,1.5416
2469.00,1.4951
2468.00,1.4500
2467.00,1.4071
2466.00,1.3669
2465.00,1.3303
2464.00,1.2979
2463.00,1.2705
2462.00,1.2486
2461.00,1.2329
2460.00,1.2239
2459.00,1.2218
2458.00,1.2266
2457.00,1.2382
2456.00,1.2564
2455.00,1.2806
2454.00,1.3101
2453.00,1.3441
2452.00,1.3819
2451.00,1.4226
2450.00,1.4656
2449.00,1.5102
2448.00,1.5560
2447.00,1.6023
2446.00,1.6485
2445.00,1.6945
2444.00,1.7399
2443.00,1.7848
2442.00,1.8287
2441.00,1.8713
2440.00,1.9125
2439.00,1.9521
2438.00,1.9900
2437.00,2.0265
2436.00,2.0618
2435.00,2.0959
2434.00,2.1282
2433.00,2.1585
2432.00,2.1870
2431.00,2.2143
2430.00,2.2405
2429.00,2.2656
2428.00,2.2894
2427.00,2.3122
2426.00,2.3342
2425.00,2.3559
2424.00,2.3769
2423.00,2.3968
2422.00,2.4149
2421.00,2.4310
2420.00,2.4463
2419.00,2.4614
2418.00,2.4766
2417.00,2.4914
2416.00,2.5050
2415.00,2.5169
2414.00,2.5272
2413.00,2.5366
2412.00,2.5461
2411.00,2.5565
2410.00,2.5675
2409.00,2.5778
2408.00,2.5862
2407.00,2.5923
2406.00,2.5973
2405.00,2.6028
2404.00,2.6091
2403.00,2.6149
2402.00,2.6193
2401.00,2.6228
2400.00,2.6271
2399.00,2.6332
2398.00,2.6401
2397.00,2.6475
2396.00,2.6563
2395.00,2.6432
2394.00,2.6455
2393.00,2.6481
2392.00,2.6508
2391.00,2.6531
2390.00,2.6545
2389.00,2.6552
2388.00,2.6553
2387.00,2.6548
2386.00,2.6532
2385.00,2.6511
2384.00,2.6494
2383.00,2.6482
2382.00,2.6463
2381.00,2.6429
2380.00,2.6391
2379.00,2.6358
2378.00,2.6323
2377.00,2.6263
2376.00,2.6174
2375.00,2.6069
2374.00,2.5962
2373.00,2.5853
2372.00,2.5741
2371.00,2.5625
2370.00,2.5511
2369.00,2.5399
2368.00,2.5286
2367.00,2.5167
2366.00,2.5041
2365.00,2.4907
2364.00,2.4762
2363.00,2.4605
2362.00,2.4433
2361.00,2.4245
2360.00,2.4046
2359.00,2.2292
2358.00,2.1908
2357.00,2.1548
2356.00,2.1211
2355.00,2.0953
2354.00,2.0796
2353.00,2.0616
2352.00,2.0293
2351.00,1.9923
2350.00,1.9647
2349.00,1.9499
2348.00,1.9407
2347.00,1.9314
2346.00,1.9193
2345.00,1.9029
2344.00,1.8853
2343.00,1.8707
2342.00,1.8622
2341.00,1.8585
2340.00,1.8578
2339.00,1.8574
2338.00,1.8577
2337.00,1.8563
2336.00,1.8539
2335.00,1.8475
2334.00,1.8399
2333.00,1.8364
2332.00,1.8421
2331.00,1.8564
2330.00,1.8724
2329.00,1.8862
2328.00,1.8998
2327.00,1.9180
2326.00,1.9431
2325.00,1.9720
2324.00,2.0017
2323.00,2.0299
2322.00,2.0584
2321.00,2.0870
2320.00,2.1168
2319.00,2.1468
2318.00,2.1775
2317.00,2.2084
2316.00,2.2401
2315.00,2.2721
2314.00,2.3045
2313.00,2.3364
2312.00,2.3669
2311.00,2.3943
2310.00,2.4189
2309.00,2.4411
2308.00,2.4624
2307.00,2.4830
2306.00,2.5035
2305.00,2.5235
2304.00,2.5432
2303.00,2.5625
2302.00,2.5818
2301.00,2.6022
2300.00,2.6246
2299.00,2.6489
2298.00,2.6735
2297.00,2.6965
2296.00,2.7161
2295.00,2.7305
2294.00,2.7367
2293.00,2.7322
2292.00,2.7170
2291.00,2.6946
2290.00,2.6691
2289.00,2.6432
2288.00,2.6187
2287.00,2.5978
2286.00,2.5835
2285.00,2.5773
2284.00,2.5781
2283.00,2.5833
2282.00,2.5912
2281.00,2.6018
2280.00,2.6155
2279.00,2.6309
2278.00,2.6461
2277.00,2.6604
2276.00,2.6745
2275.00,2.6887
2274.00,2.7027
2273.00,2.7155
2272.00,2.7267
2271.00,2.7367
2270.00,2.7455
2269.00,2.7528
2268.00,2.7580
2267.00,2.7610
2266.00,2.7624
2265.00,2.7623
2264.00,2.7600
2263.00,2.7554
2262.00,2.7513
2261.00,2.7538
2260.00,2.7714
2259.00,2.8126
2258.00,2.8856
2257.00,2.9974
2256.00,3.1521
2255.00,3.3463
2254.00,3.5552
2253.00,3.7053
2252.00,3.6988
2251.00,3.5566
2250.00,3.3794
2249.00,3.2190
2248.00,3.0874
2247.00,2.9831
2246.00,2.9033
2245.00,2.8456
2244.00,2.8075
2243.00,2.7846
2242.00,2.7724
2241.00,2.7672
2240.00,2.7669
2239.00,2.7697
2238.00,2.7737
2237.00,2.7766
2236.00,2.7772
2235.00,2.7761
2234.00,2.7752
2233.00,2.7759
2232.00,2.7768
2231.00,2.7745
2230.00,2.7671
2229.00,2.7564
2228.00,2.7462
2227.00,2.7386
2226.00,2.7331
2225.00,2.7282
2224.00,2.7223
2223.00,2.7140
2222.00,2.7024
2221.00,2.6881
2220.00,2.6729
2219.00,2.6579
2218.00,2.6424
2217.00,2.6255
2216.00,2.6070
2215.00,2.5877
2214.00,2.5687
2213.00,2.5497
2212.00,2.5294
2211.00,2.5068
2210.00,2.4824
2209.00,2.4569
2208.00,2.4311
2207.00,2.4051
2206.00,2.3792
2205.00,2.3540
2204.00,2.3292
2203.00,2.3031
2202.00,2.2739
2201.00,2.2407
2200.00,2.2036
2199.00,2.1633
2198.00,2.1201
2197.00,2.0739
2196.00,2.0247
2195.00,1.9724
2194.00,1.9171
2193.00,1.8593
2192.00,1.7997
2191.00,1.7389
2190.00,1.6779
2189.00,1.6179
2188.00,1.5602
2187.00,1.5061
2186.00,1.4564
2185.00,1.4125
2184.00,1.3754
2183.00,1.3464
2182.00,1.3261
2181.00,1.3154
2180.00,1.3144
2179.00,1.3229
2178.00,1.3405
2177.00,1.3665
2176.00,1.3999
2175.00,1.4396
2174.00,1.4844
2173.00,1.5332
2172.00,1.5850
2171.00,1.6387
2170.00,1.6932
2169.00,1.7480
2168.00,1.8026
2167.00,1.8568
2166.00,1.9103
2165.00,1.9626
2164.00,2.0132
2163.00,2.0613
2162.00,2.1069
2161.00,2.1502
2160.00,2.1916
2159.00,2.2310
2158.00,2.2683
2157.00,2.3035
2156.00,2.3369
2155.00,2.3690
2154.00,2.3996
2153.00,2.4283
2152.00,2.4549
2151.00,2.4797
2150.00,2.5033
2149.00,2.5259
2148.00,2.5480
2147.00,2.5693
2146.00,2.5899
2145.00,2.6096
2144.00,2.6283
2143.00,2.6449
2142.00,2.6587
2141.00,2.6706
2140.00,2.6825
2139.00,2.6955
2138.00,2.7092
2137.00,2.7226
2136.00,2.7355
2135.00,2.7478
2134.00,2.7594
2133.00,2.7700
2132.00,2.7796
2131.00,2.7883
2130.00,2.7963
2129.00,2.8035
2128.00,2.8098
2127.00,2.8149
2126.00,2.8186
2125.00,2.8224
2124.00,2.8279
2123.00,2.8352
2122.00,2.8422
2121.00,2.8474
2120.00,2.8510
2119.00,2.8542
2118.00,2.8569
2117.00,2.8584
2116.00,2.8577
2115.00,2.8554
2114.00,2.8532
2113.00,2.8529
2112.00,2.8556
2111.00,2.8597
2110.00,2.8623
2109.00,2.8612
2108.00,2.8569
2107.00,2.8515
2106.00,2.8464
2105.00,2.8419
2104.00,2.8374
2103.00,2.8325
2102.00,2.8272
2101.00,2.8219
2100.00,2.8161
2099.00,2.8089
2098.00,2.7995
2097.00,2.7888
2096.00,2.7782
2095.00,2.7679
2094.00,2.7573
2093.00,2.7464
2092.00,2.7359
2091.00,2.7262
2090.00,2.7161
2089.00,2.7042
2088.00,2.6904
2087.00,2.6755
2086.00,2.6598
2085.00,2.6431
2084.00,2.6249
2083.00,2.6051
2082.00,2.5840
2081.00,2.5624
2080.00,2.5409
2079.00,2.5195
2078.00,2.4969
2077.00,2.4721
2076.00,2.4450
2075.00,2.4163
2074.00,2.3870
2073.00,2.3575
2072.00,2.3279
2071.00,2.2975
2070.00,2.2655
2069.00,2.2311
2068.00,2.1943
2067.00,2.1553
2066.00,2.1139
2065.00,2.0695
2064.00,2.0215
2063.00,1.9701
2062.00,1.9161
2061.00,1.8602
2060.00,1.8030
2059.00,1.7449
2058.00,1.6868
2057.00,1.6300
2056.00,1.5760
2055.00,1.5257
2054.00,1.4803
2053.00,1.4409
2052.00,1.4089
2051.00,1.3852
2050.00,1.3708
2049.00,1.3663
2048.00,1.3719
2047.00,1.3874
2046.00,1.4120
2045.00,1.4447
2044.00,1.4847
2043.00,1.5309
2042.00,1.5817
2041.00,1.6357
2040.00,1.6913
2039.00,1.7478
2038.00,1.8046
2037.00,1.8613
2036.00,1.9173
2035.00,1.9720
2034.00,2.0254
2033.00,2.0774
2032.00,2.1272
2031.00,2.1742
2030.00,2.2182
2029.00,2.2601
2028.00,2.3002
2027.00,2.3386
2026.00,2.3753
2025.00,2.4105
2024.00,2.4441
2023.00,2.4753
2022.00,2.5034
2021.00,2.5288
2020.00,2.5529
2019.00,2.5767
2018.00,2.6006
2017.00,2.6246
2016.00,2.6479
2015.00,2.6692
2014.00,2.6879
2013.00,2.7048
2012.00,2.7214
2011.00,2.7381
2010.00,2.7547
2009.00,2.7713
2008.00,2.7873
2007.00,2.8017
2006.00,2.8135
2005.00,2.8236
2004.00,2.8338
2003.00,2.8448
2002.00,2.8559
2001.00,2.8669
2000.00,2.8772
1999.00,2.8856
1998.00,2.8921
1997.00,2.8976
1996.00,2.9036
1995.00,2.9099
1994.00,2.9160
1993.00,2.9232
1992.00,2.9325
1991.00,2.9424
1990.00,2.9500
1989.00,2.9549
1988.00,2.9590
1987.00,2.9630
1986.00,2.9652
1985.00,2.9649
1984.00,2.9637
1983.00,2.9630
1982.00,2.9623
1981.00,2.9604
1980.00,2.9576
1979.00,2.9550
1978.00,2.9540
1977.00,2.9546
1976.00,2.9554
1975.00,2.9542
1974.00,2.9507
1973.00,2.9467
1972.00,2.9440
1971.00,2.9421
1970.00,2.9390
1969.00,2.9340
1968.00,2.9282
1967.00,2.9215
1966.00,2.9133
1965.00,2.9038
1964.00,2.8944
1963.00,2.8854
1962.00,2.8767
1961.00,2.8687
1960.00,2.8614
1959.00,2.8530
1958.00,2.8414
1957.00,2.8268
1956.00,2.8116
1955.00,2.7968
1954.00,2.7821
1953.00,2.7673
1952.00,2.7525
1951.00,2.7366
1950.00,2.7176
1949.00,2.6956
1948.00,2.6726
1947.00,2.6495
1946.00,2.6263
1945.00,2.6040
1944.00,2.5834
1943.00,2.5633
1942.00,2.5404
1941.00,2.5127
1940.00,2.4805
1939.00,2.4457
1938.00,2.4097
1937.00,2.3726
1936.00,2.3341
1935.00,2.2937
1934.00,2.2509
1933.00,2.2053
1932.00,2.1570
1931.00,2.1056
1930.00,2.0509
1929.00,1.9935
1928.00,1.9337
1927.00,1.8719
1926.00,1.8088
1925.00,1.7468
1924.00,1.6884
1923.00,1.6336
1922.00,1.5816
1921.00,1.5342
1920.00,1.4965
1919.00,1.4719
1918.00,1.4580
1917.00,1.4498
1916.00,1.4465
1915.00,1.4519
1914.00,1.4695
1913.00,1.4987
1912.00,1.5363
1911.00,1.5805
1910.00,1.6309
1909.00,1.6865
1908.00,1.7450
1907.00,1.8047
1906.00,1.8648
1905.00,1.9248
1904.00,1.9844
1903.00,2.0428
1902.00,2.0999
1901.00,2.1550
1900.00,2.2071
1899.00,2.2560
1898.00,2.3015
1897.00,2.3439
1896.00,2.3839
1895.00,2.4223
1894.00,2.4593
1893.00,2.4936
1892.00,2.5261
1891.00,2.5587
1890.00,2.5921
1889.00,2.6238
1888.00,2.6519
1887.00,2.6774
1886.00,2.7023
1885.00,2.7260
1884.00,2.7465
1883.00,2.7650
1882.00,2.7842
1881.00,2.8047
1880.00,2.8249
1879.00,2.8446
1878.00,2.8642
1877.00,2.8819
1876.00,2.8965
1875.00,2.9090
1874.00,2.9205
1873.00,2.9294
1872.00,2.9352
1871.00,2.9409
1870.00,2.9484
1869.00,2.9562
1868.00,2.9637
1867.00,2.9736
1866.00,2.9874
1865.00,3.0032
1864.00,3.0171
1863.00,3.0274
1862.00,3.0354
1861.00,3.0423
1860.00,3.0484
1859.00,3.0534
1858.00,3.0561
1857.00,3.0550
1856.00,3.0510
1855.00,3.0484
1854.00,3.0501
1853.00,3.0553
1852.00,3.0617
1851.00,3.0701
1850.00,3.0817
1849.00,3.0917
1848.00,3.0933
1847.00,3.0870
1846.00,3.0808
1845.00,3.0804
1844.00,3.0837
1843.00,3.0840
1842.00,3.0777
1841.00,3.0673
1840.00,3.0573
1839.00,3.0498
1838.00,3.0442
1837.00,3.0403
1836.00,3.0387
1835.00,3.0368
1834.00,3.0291
1833.00,3.0141
1832.00,2.9976
1831.00,2.9860
1830.00,2.9782
1829.00,2.9686
1828.00,2.9566
1827.00,2.9486
1826.00,2.9481
1825.00,2.9473
1824.00,2.9375
1823.00,2.9195
1822.00,2.8996
1821.00,2.8807
1820.00,2.8624
1819.00,2.8461
1818.00,2.8316
1817.00,2.8146
1816.00,2.7913
1815.00,2.7629
1814.00,2.7337
1813.00,2.7054
1812.00,2.6774
1811.00,2.6500
1810.00,2.6233
1809.00,2.5965
1808.00,2.5685
1807.00,2.5380
1806.00,2.5043
1805.00,2.4677
1804.00,2.4301
1803.00,2.3915
1802.00,2.3483
1801.00,2.2956
1800.00,2.2343
1799.00,2.1703
1798.00,2.1073
1797.00,2.0442
1796.00,1.9798
1795.00,1.9161
1794.00,1.8581
1793.00,1.8079
1792.00,1.7639
1791.00,1.7234
1790.00,1.6845
1789.00,1.6503
1788.00,1.6288
1787.00,1.6263
1786.00,1.6418
1785.00,1.6682
1784.00,1.6976
1783.00,1.7275
1782.00,1.7645
1781.00,1.8141
1780.00,1.8743
1779.00,1.9385
1778.00,2.0014
1777.00,2.0615
1776.00,2.1164
1775.00,2.1654
1774.00,2.2139
1773.00,2.2679
1772.00,2.3288
1771.00,2.3945
1770.00,2.4608
1769.00,2.5251
1768.00,2.5834
1767.00,2.6251
1766.00,2.6471
1765.00,2.6626
1764.00,2.6873
1763.00,2.7239
1762.00,2.7639
1761.00,2.7981
1760.00,2.8257
1759.00,2.8525
1758.00,2.8851
1757.00,2.9215
1756.00,2.9497
1755.00,2.9632
1754.00,2.9727
1753.00,2.9935
1752.00,3.0252
1751.00,3.0500
1750.00,3.0557
1749.00,3.0526
1748.00,3.0571
1747.00,3.0716
1746.00,3.0910
1745.00,3.1115
1744.00,3.1297
1743.00,3.1402
1742.00,3.1413
1741.00,3.1413
1740.00,3.1494
1739.00,3.1612
1738.00,3.1662
1737.00,3.1661
1736.00,3.1730
1735.00,3.1906
1734.00,3.2078
1733.00,3.2145
1732.00,3.2126
1731.00,3.2118
1730.00,3.2178
1729.00,3.2270
1728.00,3.2325
1727.00,3.2323
1726.00,3.2307
1725.00,3.2331
1724.00,3.2434
1723.00,3.2604
1722.00,3.2789
1721.00,3.2990
1720.00,3.3267
1719.00,3.3673
1718.00,3.4213
1717.00,3.4898
1716.00,3.5691
1715.00,3.6492
1714.00,3.7284
1713.00,3.8074
1712.00,3.8856
1711.00,3.9728
1710.00,4.0738
1709.00,4.1265
1708.00,4.0599
1707.00,3.9487
1706.00,3.8426
1705.00,3.7472
1704.00,3.6647
1703.00,3.5942
1702.00,3.5384
1701.00,3.4894
1700.00,3.4203
1699.00,3.3232
1698.00,3.2296
1697.00,3.1738
1696.00,3.1650
1695.00,3.1801
1694.00,3.1886
1693.00,3.1915
1692.00,3.2036
1691.00,3.2219
1690.00,3.2308
1689.00,3.2209
1688.00,3.1957
1687.00,3.1685
1686.00,3.1520
1685.00,3.1476
1684.00,3.1511
1683.00,3.1602
1682.00,3.1626
1681.00,3.1570
1680.00,3.1507
1679.00,3.1403
1678.00,3.1257
1677.00,3.1140
1676.00,3.1072
1675.00,3.0937
1674.00,3.0633
1673.00,3.0224
1672.00,2.9874
1671.00,2.9656
1670.00,2.9508
1669.00,2.9366
1668.00,2.9175
1667.00,2.8901
1666.00,2.8584
1665.00,2.8282
1664.00,2.8006
1663.00,2.7716
1662.00,2.7391
1661.00,2.7026
1660.00,2.6609
1659.00,2.6151
1658.00,2.5657
1657.00,2.5125
1656.00,2.4581
1655.00,2.4081
1654.00,2.3570
1653.00,2.3064
1652.00,2.2620
1651.00,2.2016
1650.00,2.1373
1649.00,2.0893
1648.00,2.0532
1647.00,2.0302
1646.00,2.0267
1645.00,2.0316
1644.00,2.0301
1643.00,2.0272
1642.00,2.0307
1641.00,2.0397
1640.00,2.0473
1639.00,2.0507
1638.00,2.0546
1637.00,2.0691
1636.00,2.1043
1635.00,2.2084
1634.00,2.2440
1633.00,2.2770
1632.00,2.3076
1631.00,2.3377
1630.00,2.3692
1629.00,2.4028
1628.00,2.4388
1627.00,2.4765
1626.00,2.5144
1625.00,2.5116
1624.00,2.5488
1623.00,2.5884
1622.00,2.6275
1621.00,2.6591
1620.00,2.6815
1619.00,2.7013
1618.00,2.7253
1617.00,2.7573
1616.00,2.7968
1615.00,2.8352
1614.00,2.8664
1613.00,2.8946
1612.00,2.9224
1611.00,2.9460
1610.00,2.9647
1609.00,2.9842
1608.00,3.0085
1607.00,3.0334
1606.00,3.0537
1605.00,3.0693
1604.00,3.0832
1603.00,3.0978
1602.00,3.1140
1601.00,3.1330
1600.00,3.1554
1599.00,3.1787
1598.00,3.1990
1597.00,3.2138
1596.00,3.2237
1595.00,3.2285
1594.00,3.2285
1593.00,3.2270
1592.00,3.2288
1591.00,3.2366
1590.00,3.2492
1589.00,3.2643
1588.00,3.2789
1587.00,3.2894
1586.00,3.2942
1585.00,3.2968
1584.00,3.3013
1583.00,3.3086
1582.00,3.3148
1581.00,3.3125
1580.00,3.2968
1579.00,3.2719
1578.00,3.2491
1577.00,3.2402
1576.00,3.2530
1575.00,3.2778
1574.00,3.2925
1573.00,3.2927
1572.00,3.2894
1571.00,3.2871
1570.00,3.2831
1569.00,3.2806
1568.00,3.2818
1567.00,3.2835
1566.00,3.2830
1565.00,3.2770
1564.00,3.2616
1563.00,3.2945
1562.00,3.2852
1561.00,3.2185
1560.00,3.2147
1559.00,3.1945
1558.00,3.1985
1557.00,3.2158
1556.00,3.2195
1555.00,3.2239
1554.00,3.2235
1553.00,3.2086
1552.00,3.1855
1551.00,3.1690
1550.00,3.1590
1549.00,3.1468
1548.00,3.1301
1547.00,3.1138
1546.00,3.0980
1545.00,3.0727
1544.00,3.0335
1543.00,2.9886
1542.00,2.9434
1541.00,2.8953
1540.00,2.8596
1539.00,2.8561
1538.00,2.8592
1537.00,2.8453
1536.00,2.8259
1535.00,2.8074
1534.00,2.7884
1533.00,2.7670
1532.00,2.7440
1531.00,2.7178
1530.00,2.6896
1529.00,2.6640
1528.00,2.6427
1527.00,2.6241
1526.00,2.6038
1525.00,2.5764
1524.00,2.5447
1523.00,2.5203
1522.00,2.5113
1521.00,2.5145
1520.00,2.5136
1519.00,2.5005
1518.00,2.4885
1517.00,2.4886
1516.00,2.4991
1515.00,2.5103
1514.00,2.5201
1513.00,2.5191
1512.00,2.5312
1511.00,2.5458
1510.00,2.5631
1509.00,2.5836
1508.00,2.6086
1507.00,2.6394
1506.00,2.6757
1505.00,2.7145
1504.00,2.7515
1503.00,2.7850
1502.00,2.8159
1501.00,2.8454
1500.00,2.8744
1499.00,2.9048
1498.00,2.9376
1497.00,2.9484
1496.00,2.9881
1495.00,3.0142
1494.00,3.0266
1493.00,3.0409
1492.00,3.0688
1491.00,3.1068
1490.00,3.1424
1489.00,3.1689
1488.00,3.1876
1487.00,3.2044
1486.00,3.2264
1485.00,3.2542
1484.00,3.2800
1483.00,3.3007
1482.00,3.3210
1481.00,3.3444
1480.00,3.3677
1479.00,3.3852
1478.00,3.3939
1477.00,3.3939
1476.00,3.3896
1475.00,3.3916
1474.00,3.4128
1473.00,3.4532
1472.00,3.4964
1471.00,3.5252
1470.00,3.5398
1469.00,3.5528
1468.00,3.5699
1467.00,3.5905
1466.00,3.6178
1465.00,3.6490
1464.00,3.6642
1463.00,3.6511
1462.00,3.6284
1461.00,3.6223
1460.00,3.6377
1459.00,3.6624
1458.00,3.6861
1457.00,3.7146
1456.00,3.7474
1455.00,3.7712
1454.00,3.8022
1453.00,3.8627
1452.00,3.9388
1451.00,3.9756
1450.00,3.9344
1449.00,3.8644
1448.00,3.8170
1447.00,3.8049
1446.00,3.8304
1445.00,3.8866
1444.00,3.9451
1443.00,3.9709
1442.00,3.9651
1441.00,3.9556
1440.00,3.9533
1439.00,3.9566
1438.00,3.9724
1437.00,4.0082
1436.00,4.0477
1435.00,4.0543
1434.00,4.0108
1433.00,3.9352
1432.00,3.8525
1431.00,3.7823
1430.00,3.7398
1429.00,3.7283
1428.00,3.7327
1427.00,3.7346
1426.00,3.7375
1425.00,3.7534
1424.00,3.7743
1423.00,3.7787
1422.00,3.7656
1421.00,3.7647
1420.00,3.7960
1419.00,3.8427
1418.00,3.8671
1417.00,3.8497
1416.00,3.8070
1415.00,3.7690
1414.00,3.7539
1413.00,3.7573
1412.00,3.7572
1411.00,3.7414
1410.00,3.7179
1409.00,3.6946
1408.00,3.6737
1407.00,3.6560
1406.00,3.6432
1405.00,3.6366
1404.00,3.6345
1403.00,3.6342
1402.00,3.6367
1401.00,3.6409
1400.00,3.6361
1399.00,3.6132
1398.00,3.5811
1397.00,3.5586
1396.00,3.5524
1395.00,3.5500
1394.00,3.5359
1393.00,3.5120
1392.00,3.4945
1391.00,3.4941
1390.00,3.5032
1389.00,3.5028
1388.00,3.4837
1387.00,3.4547
1386.00,3.4312
1385.00,3.4258
1384.00,3.4409
1383.00,3.4659
1382.00,3.4898
1381.00,3.5188
1380.00,3.5711
1379.00,3.6569
1378.00,3.7690
1377.00,3.8859
1376.00,3.9760
1375.00,4.0077
1374.00,3.9811
1373.00,3.9241
1372.00,3.8478
1371.00,3.7513
1370.00,3.6496
1369.00,3.5635
1368.00,3.4962
1367.00,3.4368
1366.00,3.3780
1365.00,3.3227
1364.00,3.2742
1363.00,3.2279
1362.00,3.1764
1361.00,3.1169
1360.00,3.0524
1359.00,2.9879
1358.00,2.9281
1357.00,2.8766
1356.00,2.8369
1355.00,2.8104
1354.00,2.7962
1353.00,2.7934
1352.00,2.8019
1351.00,2.8201
1350.00,2.8429
1349.00,2.8623
1348.00,2.8714
1347.00,2.8704
1346.00,2.8650
1345.00,2.8625
1344.00,2.8684
1343.00,2.8853
1342.00,2.9114
1341.00,2.9408
1340.00,2.9662
1339.00,2.9827
1338.00,2.9874
1337.00,2.9815
1336.00,2.9715
1335.00,2.9665
1334.00,2.9732
1333.00,2.9934
1332.00,3.0250
1331.00,3.0639
1330.00,3.1033
1329.00,3.1368
1328.00,3.1634
1327.00,3.1894
1326.00,3.2211
1325.00,3.2585
1324.00,3.2958
1323.00,3.3285
1322.00,3.3550
1321.00,3.3751
1320.00,3.3914
1319.00,3.4120
1318.00,3.4420
1317.00,3.4752
1316.00,3.4997
1315.00,3.5122
1314.00,3.5192
1313.00,3.5268
1312.00,3.5342
1311.00,3.5379
1310.00,3.5369
1309.00,3.5315
1308.00,3.5238
1307.00,3.5209
1306.00,3.5325
1305.00,3.5625
1304.00,3.6045
1303.00,3.6434
1302.00,3.6635
1301.00,3.6604
1300.00,3.6448
1299.00,3.6342
1298.00,3.6402
1297.00,3.6617
1296.00,3.6869
1295.00,3.7032
1294.00,3.7052
1293.00,3.6924
1292.00,3.6714
1291.00,3.6561
1290.00,3.6576
1289.00,3.6716
1288.00,3.6805
1287.00,3.6745
1286.00,3.6639
1285.00,3.6584
1284.00,3.6526
1283.00,3.6411
1282.00,3.6370
1281.00,3.6609
1280.00,3.7132
1279.00,3.7598
1278.00,3.7639
1277.00,3.7388
1276.00,3.7186
1275.00,3.7164
1274.00,3.7156
1273.00,3.6961
1272.00,3.6597
1271.00,3.6255
1270.00,3.6122
1269.00,3.6241
1268.00,3.6491
1267.00,3.6665
1266.00,3.6605
1265.00,3.6336
1264.00,3.6017
1263.00,3.5760
1262.00,3.5560
1261.00,3.5391
1260.00,3.5258
1259.00,3.5149
1258.00,3.5003
1257.00,3.4780
1256.00,3.4523
1255.00,3.4297
1254.00,3.4102
1253.00,3.3902
1252.00,3.3696
1251.00,3.3509
1250.00,3.3330
1249.00,3.3074
1248.00,3.2687
1247.00,3.2235
1246.00,3.1819
1245.00,3.1456
1244.00,3.1081
1243.00,3.0635
1242.00,3.0127
1241.00,2.9604
1240.00,2.9100
1239.00,2.8626
1238.00,2.8174
1237.00,2.7741
1236.00,2.7338
1235.00,2.6991
1234.00,2.6727
1233.00,2.6565
1232.00,2.6523
1231.00,2.6627
1230.00,2.6902
1229.00,2.7345
1228.00,2.7925
1227.00,2.8580
1226.00,2.9234
1225.00,2.9785
1224.00,3.0102
1223.00,3.0069
1222.00,2.9668
1221.00,2.9012
1220.00,2.8286
1219.00,2.7657
1218.00,2.7221
1217.00,2.7004
1216.00,2.6984
1215.00,2.7126
1214.00,2.7393
1213.00,2.7746
1212.00,2.8152
1211.00,2.8596
1210.00,2.9077
1209.00,2.9577
1208.00,3.0057
1207.00,3.0500
1206.00,3.0941
1205.00,3.1425
1204.00,3.1948
1203.00,3.2471
1202.00,3.2972
1201.00,3.3445
1200.00,3.3865
1199.00,3.4214
1198.00,3.4529
1197.00,3.4848
1196.00,3.5161
1195.00,3.5438
1194.00,3.5685
1193.00,3.5916
1192.00,3.6113
1191.00,3.6324
1190.00,3.6668
1189.00,3.7181
1188.00,3.7689
1187.00,3.7926
1186.00,3.7946
1185.00,3.8095
1184.00,3.8520
1183.00,3.8948
1182.00,3.8971
1181.00,3.8473
1180.00,3.7792
1179.00,3.7469
1178.00,3.7792
1177.00,3.8605
1176.00,3.9181
1175.00,3.8943
1174.00,3.8373
1173.00,3.7967
1172.00,3.7799
1171.00,3.7801
1170.00,3.7933
1169.00,3.8366
1168.00,3.9399
1167.00,4.1089
1166.00,4.2370
1165.00,4.1781
1164.00,4.0926
1163.00,4.0339
1162.00,3.9786
1161.00,3.9456
1160.00,3.9569
1159.00,4.0091
1158.00,4.0849
1157.00,4.1535
1156.00,4.1592
1155.00,4.1145
1154.00,4.0759
1153.00,4.0764
1152.00,4.1556
1151.00,4.3461
1150.00,4.6722
1149.00,5.1700
1148.00,4.3326
1147.00,4.0337
1146.00,3.9332
1145.00,3.9997
1144.00,4.1595
1143.00,4.1294
1142.00,4.0362
1141.00,4.0042
1140.00,3.9900
1139.00,3.9679
1138.00,3.9484
1137.00,3.9521
1136.00,4.0006
1135.00,4.0927
1134.00,4.1485
1133.00,4.0869
1132.00,3.9828
1131.00,3.9026
1130.00,3.8525
1129.00,3.8285
1128.00,3.8145
1127.00,3.7837
1126.00,3.7487
1125.00,3.7555
1124.00,3.8304
1123.00,3.9651
1122.00,4.1157
1121.00,4.2242
1120.00,4.2265
1119.00,4.1099
1118.00,3.9934
1117.00,3.9384
1116.00,3.9464
1115.00,3.9677
1114.00,3.9285
1113.00,3.8408
1112.00,3.7604
1111.00,3.7115
1110.00,3.6811
1109.00,3.6346
1108.00,3.5558
1107.00,3.4638
1106.00,3.3800
1105.00,3.3086
1104.00,3.2454
1103.00,3.1905
1102.00,3.1459
1101.00,3.1091
1100.00,3.0731
1099.00,3.0371
1098.00,3.0084
1097.00,2.9947
1096.00,2.9973
1095.00,3.0127
1094.00,3.0382
1093.00,3.0709
1092.00,3.1041
1091.00,3.1304
1090.00,3.1520
1089.00,3.1789
1088.00,3.2142
1087.00,3.2508
1086.00,3.2858
1085.00,3.3290
1084.00,3.3825
1083.00,3.4287
1082.00,3.4574
1081.00,3.4907
1080.00,3.5576
1079.00,3.6542
1078.00,3.7324
1077.00,3.7455
1076.00,3.7133
1075.00,3.6806
1074.00,3.6667
1073.00,3.6761
1072.00,3.7154
1071.00,3.7921
1070.00,3.9019
1069.00,4.0084
1068.00,4.0635
1067.00,4.1089
1066.00,4.2309
1065.00,4.4237
1064.00,4.3628
1063.00,4.2082
1062.00,4.1491
1061.00,4.2355
1060.00,4.6205
1059.00,4.9211
1058.00,4.3383
1057.00,4.1051
1056.00,3.9640
1055.00,3.9220
1054.00,3.9599
1053.00,4.0823
1052.00,4.3417
1051.00,4.3791
1050.00,4.1391
1049.00,4.1140
1048.00,4.3336
1047.00,4.7212
1046.00,4.3400
1045.00,4.2741
1044.00,4.2811
1043.00,4.1758
1042.00,3.9963
1041.00,3.8862
1040.00,3.8694
1039.00,3.9212
1038.00,4.0124
1037.00,4.1198
1036.00,4.2176
1035.00,4.2831
1034.00,4.3314
1033.00,4.4483
1032.00,4.7711
1031.00,4.9059
1030.00,4.5141
1029.00,4.3040
1028.00,4.1965
1027.00,4.2337
1026.00,4.4430
1025.00,4.4191
1024.00,4.2741
1023.00,4.3013
1022.00,4.3920
1021.00,4.3470
1020.00,4.2048
1019.00,4.0876
1018.00,4.0297
1017.00,4.0209
1016.00,4.0035
1015.00,3.9585
1014.00,3.9497
1013.00,4.0094
1012.00,4.1101
1011.00,4.1795
1010.00,4.1769
1009.00,4.1461
1008.00,4.1530
1007.00,4.2408
1006.00,4.3737
1005.00,4.4329
1004.00,4.4507
1003.00,4.2762
1002.00,4.1693
1001.00,4.2519
1000.00,4.3742
999.00,4.3097
998.00,4.3756
997.00,4.7678
996.00,4.9740
995.00,4.4548
994.00,4.2900
993.00,4.1744
992.00,4.0894
991.00,4.0365
990.00,4.0053
989.00,3.9771
988.00,3.9472
987.00,3.9382
986.00,3.9742
985.00,4.0465
984.00,4.1155
983.00,4.1776
982.00,4.3060
981.00,4.6176
980.00,5.3540
979.00,5.1525
978.00,5.1520
977.00,5.3628
976.00,4.6732
975.00,4.3878
974.00,4.3060
973.00,4.3855
972.00,4.6172
971.00,4.7653
970.00,4.5167
969.00,4.3034
968.00,4.1620
967.00,4.1223
966.00,4.2454
965.00,4.3503
964.00,4.0196
963.00,3.8433
962.00,3.7983
961.00,3.8308
960.00,3.8982
959.00,3.9291
958.00,3.8915
957.00,3.8312
956.00,3.7883
955.00,3.7940
954.00,3.8425
953.00,3.8925
952.00,3.9204
951.00,3.9423
950.00,3.9831
949.00,4.0711
948.00,4.2042
947.00,4.3437
946.00,4.4743
945.00,4.5785
944.00,4.7062
943.00,4.7873
942.00,4.3089
941.00,4.0421
940.00,3.9051
939.00,3.8408
938.00,3.8383
937.00,3.9146
936.00,4.0843
935.00,4.3090
934.00,4.4409
933.00,4.2750
932.00,4.1117
931.00,4.1371
930.00,4.4700
929.00,4.5653
928.00,4.0994
927.00,3.9246
926.00,3.8671
925.00,3.8820
924.00,3.9294
923.00,3.9614
922.00,3.9913
921.00,4.0644
920.00,4.2209
919.00,4.4686
918.00,4.6543
917.00,4.5544
916.00,4.3724
915.00,4.2706
914.00,4.2665
913.00,4.2931
912.00,4.1841
911.00,4.0316
910.00,3.9263
909.00,3.8595
908.00,3.8078
907.00,3.7803
906.00,3.8167
905.00,3.9236
904.00,4.0449
903.00,4.1294
902.00,4.2226
901.00,4.4913
900.00,4.9752
899.00,4.2762
898.00,4.2738
897.00,4.7519
896.00,4.2883
895.00,3.9156
894.00,3.7738
893.00,3.7432
892.00,3.7843
891.00,3.8786
890.00,4.0107
889.00,4.1600
888.00,4.2594
887.00,4.2223
886.00,4.1215
885.00,4.0325
884.00,3.9689
883.00,3.9281
882.00,3.9074
881.00,3.9199
880.00,3.9927
879.00,4.1241
878.00,4.1940
877.00,4.1203
876.00,3.9901
875.00,3.8741
874.00,3.7957
873.00,3.7386
872.00,3.6959
871.00,3.6905
870.00,3.7581
869.00,3.9153
868.00,4.0739
867.00,4.0827
866.00,3.9936
865.00,3.8947
864.00,3.8649
863.00,3.8918
862.00,3.9166
861.00,3.9252
860.00,3.9758
859.00,4.1021
858.00,4.1496
857.00,4.1017
856.00,4.1578
855.00,4.3433
854.00,4.4790
853.00,4.2278
852.00,4.0225
851.00,3.9400
850.00,3.9417
849.00,3.9718
848.00,4.0003
847.00,4.0303
846.00,4.0816
845.00,4.1600
844.00,4.2013
843.00,4.1723
842.00,4.1133
841.00,4.0390
840.00,3.9695
839.00,3.9287
838.00,3.9217
837.00,3.9513
836.00,4.0545
835.00,4.2526
834.00,4.2199
833.00,4.0724
832.00,3.9703
831.00,3.8513
830.00,3.7813
829.00,3.7998
828.00,3.8967
827.00,4.0482
826.00,4.2146
825.00,4.2324
824.00,4.1745
823.00,4.1227
822.00,4.0434
821.00,3.9989
820.00,3.9868
819.00,3.9718
818.00,3.9780
817.00,4.0243
816.00,3.9059
815.00,3.7013
814.00,3.6034
813.00,3.6173
812.00,3.7246
811.00,3.8932
810.00,4.0421
809.00,4.0709
808.00,4.0462
807.00,4.0758
806.00,4.2430
805.00,4.9641
804.00,4.4594
803.00,4.1396
802.00,4.0282
801.00,4.0511
800.00,4.1859
799.00,4.4290
798.00,4.7661
797.00,4.7355
796.00,4.4628
795.00,4.3008
794.00,4.1973
793.00,4.1218
792.00,4.0440
791.00,3.9649
790.00,3.9093
789.00,3.9047
788.00,3.9597
787.00,4.0406
786.00,4.0838
785.00,4.1048
784.00,4.1936
783.00,4.4385
782.00,4.5648
781.00,4.3326
780.00,4.2359
779.00,4.2611
778.00,4.3908
777.00,4.3426
776.00,4.1990
775.00,4.1003
774.00,4.0048
773.00,3.9616
772.00,3.9772
771.00,3.9840
770.00,3.9384
769.00,3.8944
768.00,3.9057
767.00,3.9795
766.00,4.0857
765.00,4.1852
764.00,4.2685
763.00,4.3443
762.00,4.4000
761.00,4.4343
760.00,4.4780
759.00,4.4771
758.00,4.3734
757.00,4.2296
756.00,4.1451
755.00,4.1601
754.00,4.1684
753.00,4.1135
752.00,4.0891
751.00,4.1028
750.00,4.1291
749.00,4.1418
748.00,4.1615
747.00,4.1731
746.00,4.2041
745.00,4.2878
744.00,4.3262
743.00,4.3276
742.00,4.2430
741.00,4.1101
740.00,4.0476
739.00,4.0499
738.00,4.0968
737.00,4.1478
736.00,4.0999
735.00,3.9623
734.00,3.8310
733.00,3.7644
732.00,3.7864
731.00,3.9000
730.00,4.0818
729.00,4.2606
728.00,4.3452
727.00,4.3198
726.00,4.2190
725.00,4.1136
724.00,4.0688
723.00,4.0738
722.00,4.0746
721.00,4.0694
720.00,4.0832
719.00,4.1223
718.00,4.2313
717.00,4.4250
716.00,4.4421
715.00,4.3583
714.00,4.3980
713.00,4.4819
712.00,4.3814
711.00,4.2304
710.00,4.1194
709.00,4.0498
708.00,4.0730
707.00,4.2079
706.00,4.2515
705.00,4.2093
704.00,4.3540
703.00,5.0472
702.00,4.6304
701.00,4.4418
700.00,4.2136
