Created as New Dataset,Sample 022 By Administrator Date Wednesday, November 24 2021
cm-1,A
7502.00,0.6551
7501.00,0.6652
7500.00,0.6755
7499.00,0.6855
7498.00,0.6947
7497.00,0.7033
7496.00,0.7119
7495.00,0.7209
7494.00,0.7300
7493.00,0.7390
7492.00,0.7476
7491.00,0.7560
7490.00,0.7643
7489.00,0.7725
7488.00,0.7802
7487.00,0.7871
7486.00,0.7936
7485.00,0.7999
7484.00,0.8059
7483.00,0.8114
7482.00,0.8164
7481.00,0.8215
7480.00,0.8268
7479.00,0.8323
7478.00,0.8377
7477.00,0.8430
7476.00,0.8480
7475.00,0.8524
7474.00,0.8562
7473.00,0.8594
7472.00,0.8622
7471.00,0.8648
7470.00,0.8668
7469.00,0.8682
7468.00,0.8690
7467.00,0.8691
7466.00,0.8688
7465.00,0.8680
7464.00,0.8667
7463.00,0.8644
7462.00,0.8613
7461.00,0.8578
7460.00,0.8541
7459.00,0.8500
7458.00,0.8454
7457.00,0.8406
7456.00,0.8364
7455.00,0.8328
7454.00,0.8290
7453.00,0.8244
7452.00,0.8189
7451.00,0.8131
7450.00,0.8073
7449.00,0.8014
7448.00,0.7949
7447.00,0.7879
7446.00,0.7809
7445.00,0.7739
7444.00,0.7667
7443.00,0.7591
7442.00,0.7510
7441.00,0.7428
7440.00,0.7347
7439.00,0.7267
7438.00,0.7188
7437.00,0.7108
7436.00,0.7030
7435.00,0.6953
7434.00,0.6879
7433.00,0.6804
7432.00,0.6728
7431.00,0.6654
7430.00,0.6586
7429.00,0.6524
7428.00,0.6469
7427.00,0.6420
7426.00,0.6378
7425.00,0.6339
7424.00,0.6297
7423.00,0.6252
7422.00,0.6204
7421.00,0.6156
7420.00,0.6104
7419.00,0.6046
7418.00,0.5984
7417.00,0.5922
7416.00,0.5865
7415.00,0.5814
7414.00,0.5769
7413.00,0.5728
7412.00,0.5688
7411.00,0.5647
7410.00,0.5609
7409.00,0.5576
7408.00,0.5549
7407.00,0.5526
7406.00,0.5508
7405.00,0.5498
7404.00,0.5494
7403.00,0.5492
7402.00,0.5490
7401.00,0.5488
7400.00,0.5486
7399.00,0.5484
7398.00,0.5486
7397.00,0.5493
7396.00,0.5509
7395.00,0.5532
7394.00,0.5560
7393.00,0.5592
7392.00,0.5627
7391.00,0.5664
7390.00,0.5705
7389.00,0.5751
7388.00,0.5802
7387.00,0.5860
7386.00,0.5923
7385.00,0.5992
7384.00,0.6066
7383.00,0.6143
7382.00,0.6224
7381.00,0.6306
7380.00,0.6390
7379.00,0.6479
7378.00,0.6571
7377.00,0.6668
7376.00,0.6766
7375.00,0.6863
7374.00,0.6959
7373.00,0.7054
7372.00,0.7147
7371.00,0.7238
7370.00,0.7328
7369.00,0.7420
7368.00,0.7513
7367.00,0.7609
7366.00,0.7708
7365.00,0.7812
7364.00,0.7922
7363.00,0.8032
7362.00,0.8141
7361.00,0.8246
7360.00,0.8346
7359.00,0.8441
7358.00,0.8533
7357.00,0.8623
7356.00,0.8713
7355.00,0.8801
7354.00,0.8889
7353.00,0.8981
7352.00,0.9077
7351.00,0.9172
7350.00,0.9256
7349.00,0.9325
7348.00,0.9384
7347.00,0.9439
7346.00,0.9498
7345.00,0.9559
7344.00,0.9619
7343.00,0.9676
7342.00,0.9731
7341.00,0.9787
7340.00,0.9843
7339.00,0.9892
7338.00,0.9931
7337.00,0.9960
7336.00,0.9984
7335.00,1.0009
7334.00,1.0036
7333.00,1.0064
7332.00,1.0086
7331.00,1.0101
7330.00,1.0108
7329.00,1.0112
7328.00,1.0116
7327.00,1.0119
7326.00,1.0121
7325.00,1.0120
7324.00,1.0116
7323.00,1.0110
7322.00,1.0105
7321.00,1.0100
7320.00,1.0089
7319.00,1.0070
7318.00,1.0047
7317.00,1.0024
7316.00,0.9997
7315.00,0.9961
7314.00,0.9916
7313.00,0.9864
7312.00,0.9808
7311.00,0.9751
7310.00,0.9695
7309.00,0.9641
7308.00,0.9587
7307.00,0.9531
7306.00,0.9472
7305.00,0.9410
7304.00,0.9345
7303.00,0.9277
7302.00,0.9205
7301.00,0.9132
7300.00,0.9057
7299.00,0.8979
7298.00,0.8899
7297.00,0.8818
7296.00,0.8733
7295.00,0.8644
7294.00,0.8552
7293.00,0.8460
7292.00,0.8372
7291.00,0.8287
7290.00,0.8204
7289.00,0.8120
7288.00,0.8035
7287.00,0.7949
7286.00,0.7863
7285.00,0.7783
7284.00,0.7705
7283.00,0.7626
7282.00,0.7545
7281.00,0.7463
7280.00,0.7386
7279.00,0.7312
7278.00,0.7242
7277.00,0.7175
7276.00,0.7109
7275.00,0.7045
7274.00,0.6984
7273.00,0.6928
7272.00,0.6876
7271.00,0.6826
7270.00,0.6779
7269.00,0.6737
7268.00,0.6700
7267.00,0.6669
7266.00,0.6641
7265.00,0.6618
7264.00,0.6601
7263.00,0.6587
7262.00,0.6577
7261.00,0.6573
7260.00,0.6574
7259.00,0.6581
7258.00,0.6594
7257.00,0.6611
7256.00,0.6633
7255.00,0.6659
7254.00,0.6690
7253.00,0.6727
7252.00,0.6770
7251.00,0.6819
7250.00,0.6873
7249.00,0.6930
7248.00,0.6993
7247.00,0.7062
7246.00,0.7133
7245.00,0.7205
7244.00,0.7277
7243.00,0.7352
7242.00,0.7434
7241.00,0.7524
7240.00,0.7616
7239.00,0.7705
7238.00,0.7790
7237.00,0.7877
7236.00,0.7968
7235.00,0.8059
7234.00,0.8150
7233.00,0.8239
7232.00,0.8334
7231.00,0.8436
7230.00,0.8543
7229.00,0.8644
7228.00,0.8737
7227.00,0.8823
7226.00,0.8913
7225.00,0.9009
7224.00,0.9109
7223.00,0.9207
7222.00,0.9301
7221.00,0.9391
7220.00,0.9478
7219.00,0.9562
7218.00,0.9641
7217.00,0.9716
7216.00,0.9789
7215.00,0.9857
7214.00,0.9923
7213.00,0.9988
7212.00,1.0052
7211.00,1.0114
7210.00,1.0172
7209.00,1.0227
7208.00,1.0281
7207.00,1.0335
7206.00,1.0389
7205.00,1.0442
7204.00,1.0490
7203.00,1.0528
7202.00,1.0558
7201.00,1.0583
7200.00,1.0606
7199.00,1.0626
7198.00,1.0641
7197.00,1.0651
7196.00,1.0659
7195.00,1.0670
7194.00,1.0682
7193.00,1.0690
7192.00,1.0690
7191.00,1.0683
7190.00,1.0671
7189.00,1.0657
7188.00,1.0639
7187.00,1.0615
7186.00,1.0588
7185.00,1.0557
7184.00,1.0523
7183.00,1.0484
7182.00,1.0444
7181.00,1.0402
7180.00,1.0362
7179.00,1.0324
7178.00,1.0284
7177.00,1.0241
7176.00,1.0190
7175.00,1.0132
7174.00,1.0070
7173.00,1.0005
7172.00,0.9935
7171.00,0.9861
7170.00,0.9783
7169.00,0.9706
7168.00,0.9631
7167.00,0.9556
7166.00,0.9480
7165.00,0.9404
7164.00,0.9328
7163.00,0.9252
7162.00,0.9172
7161.00,0.9088
7160.00,0.8999
7159.00,0.8906
7158.00,0.8814
7157.00,0.8725
7156.00,0.8639
7155.00,0.8554
7154.00,0.8468
7153.00,0.8383
7152.00,0.8301
7151.00,0.8221
7150.00,0.8141
7149.00,0.8058
7148.00,0.7974
7147.00,0.7891
7146.00,0.7814
7145.00,0.7740
7144.00,0.7669
7143.00,0.7599
7142.00,0.7529
7141.00,0.7463
7140.00,0.7401
7139.00,0.7343
7138.00,0.7288
7137.00,0.7236
7136.00,0.7186
7135.00,0.7139
7134.00,0.7096
7133.00,0.7058
7132.00,0.7022
7131.00,0.6988
7130.00,0.6956
7129.00,0.6929
7128.00,0.6908
7127.00,0.6892
7126.00,0.6879
7125.00,0.6870
7124.00,0.6869
7123.00,0.6876
7122.00,0.6889
7121.00,0.6907
7120.00,0.6928
7119.00,0.6953
7118.00,0.6983
7117.00,0.7020
7116.00,0.7062
7115.00,0.7109
7114.00,0.7160
7113.00,0.7214
7112.00,0.7271
7111.00,0.7331
7110.00,0.7395
7109.00,0.7465
7108.00,0.7539
7107.00,0.7617
7106.00,0.7698
7105.00,0.7784
7104.00,0.7873
7103.00,0.7963
7102.00,0.8052
7101.00,0.8141
7100.00,0.8230
7099.00,0.8322
7098.00,0.8416
7097.00,0.8513
7096.00,0.8613
7095.00,0.8714
7094.00,0.8815
7093.00,0.8918
7092.00,0.9021
7091.00,0.9124
7090.00,0.9227
7089.00,0.9327
7088.00,0.9423
7087.00,0.9516
7086.00,0.9611
7085.00,0.9705
7084.00,0.9795
7083.00,0.9878
7082.00,0.9958
7081.00,1.0041
7080.00,1.0127
7079.00,1.0212
7078.00,1.0295
7077.00,1.0374
7076.00,1.0450
7075.00,1.0523
7074.00,1.0592
7073.00,1.0659
7072.00,1.0724
7071.00,1.0785
7070.00,1.0842
7069.00,1.0896
7068.00,1.0945
7067.00,1.0991
7066.00,1.1033
7065.00,1.1071
7064.00,1.1105
7063.00,1.1137
7062.00,1.1165
7061.00,1.1187
7060.00,1.1203
7059.00,1.1217
7058.00,1.1230
7057.00,1.1240
7056.00,1.1246
7055.00,1.1249
7054.00,1.1254
7053.00,1.1261
7052.00,1.1265
7051.00,1.1260
7050.00,1.1251
7049.00,1.1240
7048.00,1.1229
7047.00,1.1214
7046.00,1.1194
7045.00,1.1166
7044.00,1.1130
7043.00,1.1087
7042.00,1.1040
7041.00,1.0991
7040.00,1.0940
7039.00,1.0889
7038.00,1.0838
7037.00,1.0789
7036.00,1.0741
7035.00,1.0692
7034.00,1.0641
7033.00,1.0585
7032.00,1.0520
7031.00,1.0447
7030.00,1.0372
7029.00,1.0296
7028.00,1.0216
7027.00,1.0129
7026.00,1.0037
7025.00,0.9947
7024.00,0.9861
7023.00,0.9776
7022.00,0.9689
7021.00,0.9601
7020.00,0.9512
7019.00,0.9419
7018.00,0.9322
7017.00,0.9223
7016.00,0.9126
7015.00,0.9030
7014.00,0.8937
7013.00,0.8847
7012.00,0.8761
7011.00,0.8677
7010.00,0.8592
7009.00,0.8505
7008.00,0.8416
7007.00,0.8326
7006.00,0.8238
7005.00,0.8155
7004.00,0.8077
7003.00,0.8002
7002.00,0.7930
7001.00,0.7861
7000.00,0.7795
6999.00,0.7731
6998.00,0.7670
6997.00,0.7614
6996.00,0.7563
6995.00,0.7514
6994.00,0.7470
6993.00,0.7432
6992.00,0.7401
6991.00,0.7375
6990.00,0.7352
6989.00,0.7334
6988.00,0.7321
6987.00,0.7315
6986.00,0.7317
6985.00,0.7324
6984.00,0.7336
6983.00,0.7354
6982.00,0.7378
6981.00,0.7406
6980.00,0.7440
6979.00,0.7479
6978.00,0.7523
6977.00,0.7573
6976.00,0.7627
6975.00,0.7685
6974.00,0.7746
6973.00,0.7811
6972.00,0.7878
6971.00,0.7948
6970.00,0.8021
6969.00,0.8100
6968.00,0.8185
6967.00,0.8275
6966.00,0.8366
6965.00,0.8458
6964.00,0.8550
6963.00,0.8643
6962.00,0.8738
6961.00,0.8833
6960.00,0.8929
6959.00,0.9025
6958.00,0.9124
6957.00,0.9226
6956.00,0.9328
6955.00,0.9428
6954.00,0.9525
6953.00,0.9618
6952.00,0.9709
6951.00,0.9801
6950.00,0.9894
6949.00,0.9988
6948.00,1.0082
6947.00,1.0172
6946.00,1.0263
6945.00,1.0353
6944.00,1.0438
6943.00,1.0514
6942.00,1.0582
6941.00,1.0650
6940.00,1.0721
6939.00,1.0790
6938.00,1.0856
6937.00,1.0918
6936.00,1.0980
6935.00,1.1040
6934.00,1.1092
6933.00,1.1135
6932.00,1.1174
6931.00,1.1214
6930.00,1.1253
6929.00,1.1290
6928.00,1.1323
6927.00,1.1354
6926.00,1.1384
6925.00,1.1412
6924.00,1.1431
6923.00,1.1438
6922.00,1.1440
6921.00,1.1444
6920.00,1.1449
6919.00,1.1452
6918.00,1.1449
6917.00,1.1443
6916.00,1.1436
6915.00,1.1425
6914.00,1.1408
6913.00,1.1384
6912.00,1.1356
6911.00,1.1327
6910.00,1.1297
6909.00,1.1264
6908.00,1.1226
6907.00,1.1182
6906.00,1.1133
6905.00,1.1080
6904.00,1.1024
6903.00,1.0966
6902.00,1.0908
6901.00,1.0849
6900.00,1.0788
6899.00,1.0723
6898.00,1.0653
6897.00,1.0579
6896.00,1.0502
6895.00,1.0421
6894.00,1.0339
6893.00,1.0255
6892.00,1.0171
6891.00,1.0084
6890.00,0.9992
6889.00,0.9897
6888.00,0.9801
6887.00,0.9704
6886.00,0.9606
6885.00,0.9508
6884.00,0.9411
6883.00,0.9316
6882.00,0.9222
6881.00,0.9128
6880.00,0.9034
6879.00,0.8939
6878.00,0.8844
6877.00,0.8750
6876.00,0.8656
6875.00,0.8565
6874.00,0.8477
6873.00,0.8392
6872.00,0.8308
6871.00,0.8223
6870.00,0.8139
6869.00,0.8058
6868.00,0.7980
6867.00,0.7905
6866.00,0.7834
6865.00,0.7768
6864.00,0.7706
6863.00,0.7648
6862.00,0.7594
6861.00,0.7544
6860.00,0.7499
6859.00,0.7457
6858.00,0.7419
6857.00,0.7386
6856.00,0.7357
6855.00,0.7332
6854.00,0.7311
6853.00,0.7295
6852.00,0.7285
6851.00,0.7279
6850.00,0.7279
6849.00,0.7285
6848.00,0.7296
6847.00,0.7312
6846.00,0.7333
6845.00,0.7359
6844.00,0.7390
6843.00,0.7427
6842.00,0.7470
6841.00,0.7519
6840.00,0.7573
6839.00,0.7629
6838.00,0.7688
6837.00,0.7753
6836.00,0.7823
6835.00,0.7899
6834.00,0.7976
6833.00,0.8056
6832.00,0.8138
6831.00,0.8224
6830.00,0.8314
6829.00,0.8406
6828.00,0.8499
6827.00,0.8594
6826.00,0.8694
6825.00,0.8797
6824.00,0.8901
6823.00,0.9004
6822.00,0.9107
6821.00,0.9210
6820.00,0.9314
6819.00,0.9416
6818.00,0.9518
6817.00,0.9619
6816.00,0.9721
6815.00,0.9822
6814.00,0.9923
6813.00,1.0024
6812.00,1.0121
6811.00,1.0215
6810.00,1.0308
6809.00,1.0401
6808.00,1.0493
6807.00,1.0580
6806.00,1.0663
6805.00,1.0744
6804.00,1.0825
6803.00,1.0905
6802.00,1.0981
6801.00,1.1054
6800.00,1.1124
6799.00,1.1191
6798.00,1.1254
6797.00,1.1312
6796.00,1.1365
6795.00,1.1415
6794.00,1.1461
6793.00,1.1507
6792.00,1.1553
6791.00,1.1599
6790.00,1.1643
6789.00,1.1679
6788.00,1.1710
6787.00,1.1737
6786.00,1.1763
6785.00,1.1783
6784.00,1.1798
6783.00,1.1807
6782.00,1.1815
6781.00,1.1822
6780.00,1.1825
6779.00,1.1820
6778.00,1.1810
6777.00,1.1799
6776.00,1.1789
6775.00,1.1778
6774.00,1.1764
6773.00,1.1745
6772.00,1.1722
6771.00,1.1693
6770.00,1.1660
6769.00,1.1622
6768.00,1.1578
6767.00,1.1529
6766.00,1.1478
6765.00,1.1426
6764.00,1.1373
6763.00,1.1316
6762.00,1.1253
6761.00,1.1186
6760.00,1.1116
6759.00,1.1046
6758.00,1.0973
6757.00,1.0895
6756.00,1.0812
6755.00,1.0728
6754.00,1.0643
6753.00,1.0558
6752.00,1.0470
6751.00,1.0381
6750.00,1.0292
6749.00,1.0202
6748.00,1.0109
6747.00,1.0012
6746.00,0.9913
6745.00,0.9813
6744.00,0.9712
6743.00,0.9608
6742.00,0.9503
6741.00,0.9401
6740.00,0.9299
6739.00,0.9198
6738.00,0.9098
6737.00,0.8999
6736.00,0.8902
6735.00,0.8805
6734.00,0.8711
6733.00,0.8621
6732.00,0.8532
6731.00,0.8443
6730.00,0.8358
6729.00,0.8276
6728.00,0.8199
6727.00,0.8124
6726.00,0.8050
6725.00,0.7980
6724.00,0.7914
6723.00,0.7854
6722.00,0.7798
6721.00,0.7747
6720.00,0.7700
6719.00,0.7658
6718.00,0.7623
6717.00,0.7594
6716.00,0.7570
6715.00,0.7552
6714.00,0.7538
6713.00,0.7532
6712.00,0.7533
6711.00,0.7539
6710.00,0.7549
6709.00,0.7566
6708.00,0.7589
6707.00,0.7618
6706.00,0.7654
6705.00,0.7695
6704.00,0.7740
6703.00,0.7790
6702.00,0.7844
6701.00,0.7903
6700.00,0.7968
6699.00,0.8037
6698.00,0.8110
6697.00,0.8190
6696.00,0.8274
6695.00,0.8362
6694.00,0.8450
6693.00,0.8539
6692.00,0.8630
6691.00,0.8725
6690.00,0.8821
6689.00,0.8918
6688.00,0.9017
6687.00,0.9118
6686.00,0.9221
6685.00,0.9323
6684.00,0.9424
6683.00,0.9526
6682.00,0.9629
6681.00,0.9734
6680.00,0.9836
6679.00,0.9936
6678.00,1.0033
6677.00,1.0131
6676.00,1.0230
6675.00,1.0328
6674.00,1.0421
6673.00,1.0510
6672.00,1.0594
6671.00,1.0675
6670.00,1.0755
6669.00,1.0835
6668.00,1.0913
6667.00,1.0989
6666.00,1.1063
6665.00,1.1135
6664.00,1.1205
6663.00,1.1271
6662.00,1.1331
6661.00,1.1386
6660.00,1.1439
6659.00,1.1492
6658.00,1.1542
6657.00,1.1584
6656.00,1.1616
6655.00,1.1642
6654.00,1.1667
6653.00,1.1693
6652.00,1.1720
6651.00,1.1744
6650.00,1.1763
6649.00,1.1779
6648.00,1.1790
6647.00,1.1795
6646.00,1.1796
6645.00,1.1794
6644.00,1.1792
6643.00,1.1789
6642.00,1.1783
6641.00,1.1772
6640.00,1.1753
6639.00,1.1728
6638.00,1.1698
6637.00,1.1666
6636.00,1.1629
6635.00,1.1589
6634.00,1.1546
6633.00,1.1499
6632.00,1.1449
6631.00,1.1395
6630.00,1.1337
6629.00,1.1278
6628.00,1.1217
6627.00,1.1153
6626.00,1.1085
6625.00,1.1014
6624.00,1.0938
6623.00,1.0858
6622.00,1.0776
6621.00,1.0693
6620.00,1.0609
6619.00,1.0522
6618.00,1.0433
6617.00,1.0343
6616.00,1.0251
6615.00,1.0157
6614.00,1.0060
6613.00,0.9961
6612.00,0.9861
6611.00,0.9761
6610.00,0.9661
6609.00,0.9560
6608.00,0.9460
6607.00,0.9361
6606.00,0.9263
6605.00,0.9165
6604.00,0.9066
6603.00,0.8967
6602.00,0.8869
6601.00,0.8772
6600.00,0.8675
6599.00,0.8578
6598.00,0.8485
6597.00,0.8396
6596.00,0.8310
6595.00,0.8226
6594.00,0.8144
6593.00,0.8065
6592.00,0.7989
6591.00,0.7917
6590.00,0.7848
6589.00,0.7781
6588.00,0.7719
6587.00,0.7661
6586.00,0.7609
6585.00,0.7561
6584.00,0.7516
6583.00,0.7475
6582.00,0.7438
6581.00,0.7408
6580.00,0.7383
6579.00,0.7364
6578.00,0.7352
6577.00,0.7346
6576.00,0.7346
6575.00,0.7352
6574.00,0.7363
6573.00,0.7379
6572.00,0.7400
6571.00,0.7425
6570.00,0.7455
6569.00,0.7492
6568.00,0.7536
6567.00,0.7586
6566.00,0.7641
6565.00,0.7702
6564.00,0.7768
6563.00,0.7839
6562.00,0.7913
6561.00,0.7990
6560.00,0.8071
6559.00,0.8155
6558.00,0.8242
6557.00,0.8334
6556.00,0.8430
6555.00,0.8530
6554.00,0.8634
6553.00,0.8739
6552.00,0.8846
6551.00,0.8952
6550.00,0.9059
6549.00,0.9166
6548.00,0.9272
6547.00,0.9376
6546.00,0.9481
6545.00,0.9587
6544.00,0.9695
6543.00,0.9804
6542.00,0.9912
6541.00,1.0018
6540.00,1.0120
6539.00,1.0220
6538.00,1.0319
6537.00,1.0416
6536.00,1.0511
6535.00,1.0605
6534.00,1.0699
6533.00,1.0795
6532.00,1.0889
6531.00,1.0978
6530.00,1.1061
6529.00,1.1141
6528.00,1.1218
6527.00,1.1292
6526.00,1.1362
6525.00,1.1428
6524.00,1.1490
6523.00,1.1548
6522.00,1.1604
6521.00,1.1658
6520.00,1.1706
6519.00,1.1748
6518.00,1.1784
6517.00,1.1821
6516.00,1.1860
6515.00,1.1899
6514.00,1.1935
6513.00,1.1965
6512.00,1.1989
6511.00,1.2008
6510.00,1.2022
6509.00,1.2029
6508.00,1.2030
6507.00,1.2028
6506.00,1.2027
6505.00,1.2024
6504.00,1.2017
6503.00,1.2003
6502.00,1.1986
6501.00,1.1969
6500.00,1.1950
6499.00,1.1929
6498.00,1.1903
6497.00,1.1874
6496.00,1.1840
6495.00,1.1802
6494.00,1.1758
6493.00,1.1710
6492.00,1.1658
6491.00,1.1601
6490.00,1.1539
6489.00,1.1475
6488.00,1.1410
6487.00,1.1345
6486.00,1.1277
6485.00,1.1204
6484.00,1.1127
6483.00,1.1045
6482.00,1.0960
6481.00,1.0869
6480.00,1.0775
6479.00,1.0678
6478.00,1.0583
6477.00,1.0486
6476.00,1.0388
6475.00,1.0288
6474.00,1.0187
6473.00,1.0085
6472.00,0.9981
6471.00,0.9875
6470.00,0.9768
6469.00,0.9661
6468.00,0.9552
6467.00,0.9443
6466.00,0.9335
6465.00,0.9228
6464.00,0.9123
6463.00,0.9019
6462.00,0.8915
6461.00,0.8811
6460.00,0.8708
6459.00,0.8607
6458.00,0.8509
6457.00,0.8412
6456.00,0.8318
6455.00,0.8227
6454.00,0.8140
6453.00,0.8057
6452.00,0.7978
6451.00,0.7904
6450.00,0.7835
6449.00,0.7773
6448.00,0.7715
6447.00,0.7662
6446.00,0.7614
6445.00,0.7571
6444.00,0.7534
6443.00,0.7503
6442.00,0.7478
6441.00,0.7459
6440.00,0.7446
6439.00,0.7439
6438.00,0.7440
6437.00,0.7448
6436.00,0.7460
6435.00,0.7478
6434.00,0.7500
6433.00,0.7529
6432.00,0.7564
6431.00,0.7604
6430.00,0.7652
6429.00,0.7705
6428.00,0.7765
6427.00,0.7830
6426.00,0.7901
6425.00,0.7976
6424.00,0.8054
6423.00,0.8137
6422.00,0.8225
6421.00,0.8318
6420.00,0.8413
6419.00,0.8509
6418.00,0.8607
6417.00,0.8709
6416.00,0.8814
6415.00,0.8920
6414.00,0.9027
6413.00,0.9136
6412.00,0.9245
6411.00,0.9352
6410.00,0.9458
6409.00,0.9564
6408.00,0.9671
6407.00,0.9778
6406.00,0.9886
6405.00,0.9994
6404.00,1.0103
6403.00,1.0208
6402.00,1.0311
6401.00,1.0412
6400.00,1.0509
6399.00,1.0602
6398.00,1.0691
6397.00,1.0777
6396.00,1.0860
6395.00,1.0943
6394.00,1.1026
6393.00,1.1107
6392.00,1.1184
6391.00,1.1255
6390.00,1.1323
6389.00,1.1387
6388.00,1.1447
6387.00,1.1502
6386.00,1.1555
6385.00,1.1609
6384.00,1.1660
6383.00,1.1706
6382.00,1.1747
6381.00,1.1783
6380.00,1.1816
6379.00,1.1843
6378.00,1.1864
6377.00,1.1881
6376.00,1.1897
6375.00,1.1909
6374.00,1.1917
6373.00,1.1921
6372.00,1.1925
6371.00,1.1927
6370.00,1.1924
6369.00,1.1913
6368.00,1.1896
6367.00,1.1875
6366.00,1.1852
6365.00,1.1826
6364.00,1.1797
6363.00,1.1765
6362.00,1.1730
6361.00,1.1693
6360.00,1.1654
6359.00,1.1609
6358.00,1.1559
6357.00,1.1506
6356.00,1.1450
6355.00,1.1388
6354.00,1.1321
6353.00,1.1251
6352.00,1.1179
6351.00,1.1106
6350.00,1.1035
6349.00,1.0963
6348.00,1.0887
6347.00,1.0809
6346.00,1.0727
6345.00,1.0642
6344.00,1.0555
6343.00,1.0467
6342.00,1.0378
6341.00,1.0290
6340.00,1.0202
6339.00,1.0113
6338.00,1.0024
6337.00,0.9934
6336.00,0.9843
6335.00,0.9749
6334.00,0.9651
6333.00,0.9550
6332.00,0.9447
6331.00,0.9342
6330.00,0.9238
6329.00,0.9135
6328.00,0.9032
6327.00,0.8930
6326.00,0.8825
6325.00,0.8720
6324.00,0.8611
6323.00,0.8501
6322.00,0.8390
6321.00,0.8282
6320.00,0.8177
6319.00,0.8076
6318.00,0.7980
6317.00,0.7889
6316.00,0.7803
6315.00,0.7721
6314.00,0.7644
6313.00,0.7574
6312.00,0.7510
6311.00,0.7452
6310.00,0.7398
6309.00,0.7350
6308.00,0.7307
6307.00,0.7271
6306.00,0.7240
6305.00,0.7215
6304.00,0.7198
6303.00,0.7188
6302.00,0.7184
6301.00,0.7188
6300.00,0.7197
6299.00,0.7214
6298.00,0.7236
6297.00,0.7266
6296.00,0.7303
6295.00,0.7347
6294.00,0.7396
6293.00,0.7449
6292.00,0.7505
6291.00,0.7566
6290.00,0.7632
6289.00,0.7704
6288.00,0.7783
6287.00,0.7867
6286.00,0.7957
6285.00,0.8051
6284.00,0.8149
6283.00,0.8248
6282.00,0.8350
6281.00,0.8453
6280.00,0.8560
6279.00,0.8670
6278.00,0.8781
6277.00,0.8894
6276.00,0.9007
6275.00,0.9119
6274.00,0.9231
6273.00,0.9344
6272.00,0.9459
6271.00,0.9573
6270.00,0.9686
6269.00,0.9798
6268.00,0.9909
6267.00,1.0019
6266.00,1.0127
6265.00,1.0232
6264.00,1.0334
6263.00,1.0435
6262.00,1.0536
6261.00,1.0636
6260.00,1.0733
6259.00,1.0828
6258.00,1.0923
6257.00,1.1016
6256.00,1.1101
6255.00,1.1177
6254.00,1.1248
6253.00,1.1320
6252.00,1.1391
6251.00,1.1459
6250.00,1.1522
6249.00,1.1583
6248.00,1.1641
6247.00,1.1694
6246.00,1.1741
6245.00,1.1784
6244.00,1.1822
6243.00,1.1859
6242.00,1.1895
6241.00,1.1929
6240.00,1.1960
6239.00,1.1986
6238.00,1.2008
6237.00,1.2026
6236.00,1.2039
6235.00,1.2045
6234.00,1.2045
6233.00,1.2045
6232.00,1.2044
6231.00,1.2040
6230.00,1.2030
6229.00,1.2015
6228.00,1.1998
6227.00,1.1976
6226.00,1.1949
6225.00,1.1918
6224.00,1.1883
6223.00,1.1848
6222.00,1.1810
6221.00,1.1768
6220.00,1.1721
6219.00,1.1668
6218.00,1.1612
6217.00,1.1556
6216.00,1.1497
6215.00,1.1435
6214.00,1.1366
6213.00,1.1293
6212.00,1.1216
6211.00,1.1135
6210.00,1.1049
6209.00,1.0961
6208.00,1.0870
6207.00,1.0776
6206.00,1.0680
6205.00,1.0582
6204.00,1.0480
6203.00,1.0375
6202.00,1.0268
6201.00,1.0162
6200.00,1.0054
6199.00,0.9945
6198.00,0.9833
6197.00,0.9719
6196.00,0.9604
6195.00,0.9487
6194.00,0.9369
6193.00,0.9253
6192.00,0.9137
6191.00,0.9023
6190.00,0.8909
6189.00,0.8796
6188.00,0.8684
6187.00,0.8574
6186.00,0.8464
6185.00,0.8357
6184.00,0.8252
6183.00,0.8149
6182.00,0.8049
6181.00,0.7954
6180.00,0.7863
6179.00,0.7777
6178.00,0.7695
6177.00,0.7618
6176.00,0.7545
6175.00,0.7477
6174.00,0.7413
6173.00,0.7355
6172.00,0.7302
6171.00,0.7256
6170.00,0.7217
6169.00,0.7185
6168.00,0.7160
6167.00,0.7141
6166.00,0.7128
6165.00,0.7123
6164.00,0.7125
6163.00,0.7134
6162.00,0.7149
6161.00,0.7171
6160.00,0.7202
6159.00,0.7239
6158.00,0.7283
6157.00,0.7333
6156.00,0.7389
6155.00,0.7449
6154.00,0.7515
6153.00,0.7586
6152.00,0.7662
6151.00,0.7744
6150.00,0.7831
6149.00,0.7921
6148.00,0.8016
6147.00,0.8113
6146.00,0.8212
6145.00,0.8313
6144.00,0.8419
6143.00,0.8530
6142.00,0.8645
6141.00,0.8762
6140.00,0.8878
6139.00,0.8994
6138.00,0.9109
6137.00,0.9224
6136.00,0.9337
6135.00,0.9451
6134.00,0.9565
6133.00,0.9680
6132.00,0.9793
6131.00,0.9904
6130.00,1.0013
6129.00,1.0120
6128.00,1.0226
6127.00,1.0330
6126.00,1.0432
6125.00,1.0531
6124.00,1.0627
6123.00,1.0719
6122.00,1.0809
6121.00,1.0896
6120.00,1.0979
6119.00,1.1061
6118.00,1.1139
6117.00,1.1213
6116.00,1.1282
6115.00,1.1349
6114.00,1.1415
6113.00,1.1480
6112.00,1.1541
6111.00,1.1597
6110.00,1.1648
6109.00,1.1694
6108.00,1.1733
6107.00,1.1766
6106.00,1.1792
6105.00,1.1814
6104.00,1.1834
6103.00,1.1853
6102.00,1.1872
6101.00,1.1886
6100.00,1.1897
6099.00,1.1905
6098.00,1.1910
6097.00,1.1912
6096.00,1.1907
6095.00,1.1896
6094.00,1.1881
6093.00,1.1862
6092.00,1.1839
6091.00,1.1812
6090.00,1.1782
6089.00,1.1752
6088.00,1.1720
6087.00,1.1686
6086.00,1.1647
6085.00,1.1602
6084.00,1.1551
6083.00,1.1494
6082.00,1.1434
6081.00,1.1374
6080.00,1.1312
6079.00,1.1247
6078.00,1.1179
6077.00,1.1108
6076.00,1.1032
6075.00,1.0951
6074.00,1.0868
6073.00,1.0784
6072.00,1.0699
6071.00,1.0612
6070.00,1.0522
6069.00,1.0430
6068.00,1.0336
6067.00,1.0239
6066.00,1.0139
6065.00,1.0037
6064.00,0.9932
6063.00,0.9824
6062.00,0.9713
6061.00,0.9600
6060.00,0.9485
6059.00,0.9370
6058.00,0.9255
6057.00,0.9142
6056.00,0.9030
6055.00,0.8918
6054.00,0.8805
6053.00,0.8693
6052.00,0.8580
6051.00,0.8468
6050.00,0.8357
6049.00,0.8249
6048.00,0.8143
6047.00,0.8039
6046.00,0.7938
6045.00,0.7839
6044.00,0.7743
6043.00,0.7650
6042.00,0.7561
6041.00,0.7478
6040.00,0.7401
6039.00,0.7329
6038.00,0.7262
6037.00,0.7201
6036.00,0.7146
6035.00,0.7096
6034.00,0.7052
6033.00,0.7014
6032.00,0.6983
6031.00,0.6960
6030.00,0.6943
6029.00,0.6934
6028.00,0.6932
6027.00,0.6938
6026.00,0.6952
6025.00,0.6973
6024.00,0.7001
6023.00,0.7036
6022.00,0.7079
6021.00,0.7128
6020.00,0.7183
6019.00,0.7243
6018.00,0.7309
6017.00,0.7381
6016.00,0.7459
6015.00,0.7542
6014.00,0.7630
6013.00,0.7723
6012.00,0.7820
6011.00,0.7922
6010.00,0.8027
6009.00,0.8135
6008.00,0.8247
6007.00,0.8361
6006.00,0.8478
6005.00,0.8596
6004.00,0.8715
6003.00,0.8834
6002.00,0.8954
6001.00,0.9074
6000.00,0.9195
5999.00,0.9317
5998.00,0.9438
5997.00,0.9558
5996.00,0.9676
5995.00,0.9792
5994.00,0.9906
5993.00,1.0018
5992.00,1.0127
5991.00,1.0235
5990.00,1.0343
5989.00,1.0452
5988.00,1.0561
5987.00,1.0665
5986.00,1.0766
5985.00,1.0861
5984.00,1.0953
5983.00,1.1039
5982.00,1.1122
5981.00,1.1201
5980.00,1.1278
5979.00,1.1353
5978.00,1.1422
5977.00,1.1485
5976.00,1.1542
5975.00,1.1599
5974.00,1.1656
5973.00,1.1713
5972.00,1.1767
5971.00,1.1818
5970.00,1.1865
5969.00,1.1908
5968.00,1.1944
5967.00,1.1973
5966.00,1.1999
5965.00,1.2025
5964.00,1.2049
5963.00,1.2068
5962.00,1.2081
5961.00,1.2091
5960.00,1.2097
5959.00,1.2098
5958.00,1.2096
5957.00,1.2091
5956.00,1.2084
5955.00,1.2074
5954.00,1.2058
5953.00,1.2038
5952.00,1.2013
5951.00,1.1984
5950.00,1.1951
5949.00,1.1914
5948.00,1.1873
5947.00,1.1828
5946.00,1.1779
5945.00,1.1727
5944.00,1.1672
5943.00,1.1612
5942.00,1.1547
5941.00,1.1477
5940.00,1.1402
5939.00,1.1322
5938.00,1.1239
5937.00,1.1153
5936.00,1.1063
5935.00,1.0969
5934.00,1.0871
5933.00,1.0769
5932.00,1.0663
5931.00,1.0554
5930.00,1.0445
5929.00,1.0338
5928.00,1.0229
5927.00,1.0117
5926.00,1.0002
5925.00,0.9884
5924.00,0.9765
5923.00,0.9641
5922.00,0.9515
5921.00,0.9389
5920.00,0.9263
5919.00,0.9138
5918.00,0.9013
5917.00,0.8889
5916.00,0.8767
5915.00,0.8645
5914.00,0.8523
5913.00,0.8402
5912.00,0.8282
5911.00,0.8166
5910.00,0.8053
5909.00,0.7944
5908.00,0.7838
5907.00,0.7735
5906.00,0.7636
5905.00,0.7541
5904.00,0.7451
5903.00,0.7366
5902.00,0.7286
5901.00,0.7213
5900.00,0.7148
5899.00,0.7089
5898.00,0.7036
5897.00,0.6990
5896.00,0.6950
5895.00,0.6917
5894.00,0.6890
5893.00,0.6870
5892.00,0.6859
5891.00,0.6857
5890.00,0.6864
5889.00,0.6878
5888.00,0.6899
5887.00,0.6927
5886.00,0.6964
5885.00,0.7008
5884.00,0.7059
5883.00,0.7117
5882.00,0.7182
5881.00,0.7253
5880.00,0.7328
5879.00,0.7409
5878.00,0.7496
5877.00,0.7590
5876.00,0.7690
5875.00,0.7795
5874.00,0.7903
5873.00,0.8013
5872.00,0.8126
5871.00,0.8239
5870.00,0.8354
5869.00,0.8471
5868.00,0.8591
5867.00,0.8713
5866.00,0.8837
5865.00,0.8964
5864.00,0.9092
5863.00,0.9220
5862.00,0.9347
5861.00,0.9472
5860.00,0.9596
5859.00,0.9717
5858.00,0.9837
5857.00,0.9955
5856.00,1.0073
5855.00,1.0191
5854.00,1.0309
5853.00,1.0427
5852.00,1.0541
5851.00,1.0651
5850.00,1.0756
5849.00,1.0855
5848.00,1.0950
5847.00,1.1041
5846.00,1.1130
5845.00,1.1217
5844.00,1.1301
5843.00,1.1381
5842.00,1.1456
5841.00,1.1527
5840.00,1.1596
5839.00,1.1662
5838.00,1.1725
5837.00,1.1783
5836.00,1.1835
5835.00,1.1880
5834.00,1.1921
5833.00,1.1959
5832.00,1.1995
5831.00,1.2028
5830.00,1.2058
5829.00,1.2084
5828.00,1.2107
5827.00,1.2126
5826.00,1.2142
5825.00,1.2157
5824.00,1.2169
5823.00,1.2175
5822.00,1.2175
5821.00,1.2167
5820.00,1.2154
5819.00,1.2138
5818.00,1.2120
5817.00,1.2101
5816.00,1.2078
5815.00,1.2051
5814.00,1.2019
5813.00,1.1984
5812.00,1.1944
5811.00,1.1900
5810.00,1.1851
5809.00,1.1798
5808.00,1.1743
5807.00,1.1686
5806.00,1.1624
5805.00,1.1560
5804.00,1.1492
5803.00,1.1421
5802.00,1.1345
5801.00,1.1263
5800.00,1.1176
5799.00,1.1086
5798.00,1.0994
5797.00,1.0899
5796.00,1.0800
5795.00,1.0699
5794.00,1.0595
5793.00,1.0488
5792.00,1.0377
5791.00,1.0262
5790.00,1.0144
5789.00,1.0024
5788.00,0.9901
5787.00,0.9778
5786.00,0.9655
5785.00,0.9529
5784.00,0.9401
5783.00,0.9269
5782.00,0.9137
5781.00,0.9007
5780.00,0.8877
5779.00,0.8749
5778.00,0.8622
5777.00,0.8497
5776.00,0.8374
5775.00,0.8251
5774.00,0.8130
5773.00,0.8012
5772.00,0.7896
5771.00,0.7783
5770.00,0.7674
5769.00,0.7569
5768.00,0.7470
5767.00,0.7376
5766.00,0.7289
5765.00,0.7208
5764.00,0.7132
5763.00,0.7062
5762.00,0.6997
5761.00,0.6939
5760.00,0.6888
5759.00,0.6845
5758.00,0.6809
5757.00,0.6782
5756.00,0.6762
5755.00,0.6749
5754.00,0.6743
5753.00,0.6747
5752.00,0.6758
5751.00,0.6778
5750.00,0.6806
5749.00,0.6842
5748.00,0.6885
5747.00,0.6935
5746.00,0.6992
5745.00,0.7057
5744.00,0.7129
5743.00,0.7208
5742.00,0.7293
5741.00,0.7383
5740.00,0.7478
5739.00,0.7577
5738.00,0.7681
5737.00,0.7790
5736.00,0.7902
5735.00,0.8018
5734.00,0.8137
5733.00,0.8259
5732.00,0.8383
5731.00,0.8509
5730.00,0.8635
5729.00,0.8764
5728.00,0.8893
5727.00,0.9023
5726.00,0.9152
5725.00,0.9280
5724.00,0.9408
5723.00,0.9535
5722.00,0.9662
5721.00,0.9788
5720.00,0.9911
5719.00,1.0033
5718.00,1.0151
5717.00,1.0266
5716.00,1.0376
5715.00,1.0485
5714.00,1.0592
5713.00,1.0699
5712.00,1.0802
5711.00,1.0901
5710.00,1.0997
5709.00,1.1092
5708.00,1.1184
5707.00,1.1273
5706.00,1.1357
5705.00,1.1435
5704.00,1.1505
5703.00,1.1571
5702.00,1.1636
5701.00,1.1699
5700.00,1.1760
5699.00,1.1818
5698.00,1.1873
5697.00,1.1923
5696.00,1.1966
5695.00,1.2002
5694.00,1.2035
5693.00,1.2069
5692.00,1.2102
5691.00,1.2131
5690.00,1.2155
5689.00,1.2175
5688.00,1.2190
5687.00,1.2200
5686.00,1.2204
5685.00,1.2205
5684.00,1.2203
5683.00,1.2200
5682.00,1.2194
5681.00,1.2182
5680.00,1.2164
5679.00,1.2142
5678.00,1.2119
5677.00,1.2094
5676.00,1.2066
5675.00,1.2032
5674.00,1.1992
5673.00,1.1948
5672.00,1.1900
5671.00,1.1846
5670.00,1.1789
5669.00,1.1730
5668.00,1.1667
5667.00,1.1601
5666.00,1.1528
5665.00,1.1452
5664.00,1.1373
5663.00,1.1289
5662.00,1.1201
5661.00,1.1107
5660.00,1.1008
5659.00,1.0904
5658.00,1.0798
5657.00,1.0690
5656.00,1.0581
5655.00,1.0469
5654.00,1.0354
5653.00,1.0236
5652.00,1.0114
5651.00,0.9990
5650.00,0.9863
5649.00,0.9736
5648.00,0.9607
5647.00,0.9477
5646.00,0.9345
5645.00,0.9212
5644.00,0.9077
5643.00,0.8941
5642.00,0.8806
5641.00,0.8671
5640.00,0.8539
5639.00,0.8408
5638.00,0.8280
5637.00,0.8154
5636.00,0.8030
5635.00,0.7908
5634.00,0.7789
5633.00,0.7675
5632.00,0.7565
5631.00,0.7460
5630.00,0.7362
5629.00,0.7269
5628.00,0.7182
5627.00,0.7101
5626.00,0.7026
5625.00,0.6958
5624.00,0.6897
5623.00,0.6844
5622.00,0.6799
5621.00,0.6762
5620.00,0.6732
5619.00,0.6711
5618.00,0.6698
5617.00,0.6695
5616.00,0.6701
5615.00,0.6714
5614.00,0.6737
5613.00,0.6768
5612.00,0.6807
5611.00,0.6853
5610.00,0.6908
5609.00,0.6972
5608.00,0.7043
5607.00,0.7122
5606.00,0.7207
5605.00,0.7298
5604.00,0.7394
5603.00,0.7495
5602.00,0.7604
5601.00,0.7718
5600.00,0.7836
5599.00,0.7958
5598.00,0.8083
5597.00,0.8210
5596.00,0.8339
5595.00,0.8471
5594.00,0.8606
5593.00,0.8743
5592.00,0.8881
5591.00,0.9018
5590.00,0.9156
5589.00,0.9293
5588.00,0.9431
5587.00,0.9569
5586.00,0.9705
5585.00,0.9839
5584.00,0.9970
5583.00,1.0099
5582.00,1.0225
5581.00,1.0350
5580.00,1.0472
5579.00,1.0591
5578.00,1.0709
5577.00,1.0824
5576.00,1.0934
5575.00,1.1040
5574.00,1.1144
5573.00,1.1246
5572.00,1.1342
5571.00,1.1432
5570.00,1.1517
5569.00,1.1597
5568.00,1.1674
5567.00,1.1748
5566.00,1.1821
5565.00,1.1893
5564.00,1.1964
5563.00,1.2030
5562.00,1.2089
5561.00,1.2140
5560.00,1.2183
5559.00,1.2221
5558.00,1.2256
5557.00,1.2288
5556.00,1.2318
5555.00,1.2346
5554.00,1.2371
5553.00,1.2393
5552.00,1.2410
5551.00,1.2424
5550.00,1.2433
5549.00,1.2439
5548.00,1.2439
5547.00,1.2433
5546.00,1.2422
5545.00,1.2406
5544.00,1.2387
5543.00,1.2364
5542.00,1.2337
5541.00,1.2307
5540.00,1.2274
5539.00,1.2238
5538.00,1.2198
5537.00,1.2154
5536.00,1.2104
5535.00,1.2049
5534.00,1.1991
5533.00,1.1931
5532.00,1.1869
5531.00,1.1803
5530.00,1.1731
5529.00,1.1653
5528.00,1.1568
5527.00,1.1478
5526.00,1.1385
5525.00,1.1291
5524.00,1.1197
5523.00,1.1099
5522.00,1.0997
5521.00,1.0889
5520.00,1.0776
5519.00,1.0659
5518.00,1.0537
5517.00,1.0412
5516.00,1.0283
5515.00,1.0152
5514.00,1.0019
5513.00,0.9885
5512.00,0.9749
5511.00,0.9612
5510.00,0.9472
5509.00,0.9331
5508.00,0.9188
5507.00,0.9044
5506.00,0.8901
5505.00,0.8758
5504.00,0.8617
5503.00,0.8478
5502.00,0.8341
5501.00,0.8207
5500.00,0.8073
5499.00,0.7942
5498.00,0.7814
5497.00,0.7692
5496.00,0.7573
5495.00,0.7457
5494.00,0.7346
5493.00,0.7240
5492.00,0.7141
5491.00,0.7050
5490.00,0.6967
5489.00,0.6891
5488.00,0.6824
5487.00,0.6764
5486.00,0.6711
5485.00,0.6667
5484.00,0.6632
5483.00,0.6605
5482.00,0.6587
5481.00,0.6577
5480.00,0.6577
5479.00,0.6587
5478.00,0.6606
5477.00,0.6634
5476.00,0.6671
5475.00,0.6718
5474.00,0.6775
5473.00,0.6841
5472.00,0.6913
5471.00,0.6991
5470.00,0.7076
5469.00,0.7170
5468.00,0.7270
5467.00,0.7377
5466.00,0.7489
5465.00,0.7605
5464.00,0.7725
5463.00,0.7848
5462.00,0.7976
5461.00,0.8109
5460.00,0.8247
5459.00,0.8388
5458.00,0.8531
5457.00,0.8675
5456.00,0.8819
5455.00,0.8964
5454.00,0.9109
5453.00,0.9252
5452.00,0.9393
5451.00,0.9531
5450.00,0.9669
5449.00,0.9807
5448.00,0.9944
5447.00,1.0080
5446.00,1.0216
5445.00,1.0352
5444.00,1.0487
5443.00,1.0618
5442.00,1.0742
5441.00,1.0863
5440.00,1.0980
5439.00,1.1093
5438.00,1.1203
5437.00,1.1309
5436.00,1.1410
5435.00,1.1508
5434.00,1.1603
5433.00,1.1696
5432.00,1.1784
5431.00,1.1867
5430.00,1.1945
5429.00,1.2022
5428.00,1.2098
5427.00,1.2171
5426.00,1.2239
5425.00,1.2300
5424.00,1.2355
5423.00,1.2404
5422.00,1.2450
5421.00,1.2494
5420.00,1.2533
5419.00,1.2565
5418.00,1.2591
5417.00,1.2613
5416.00,1.2633
5415.00,1.2648
5414.00,1.2660
5413.00,1.2670
5412.00,1.2676
5411.00,1.2678
5410.00,1.2676
5409.00,1.2670
5408.00,1.2663
5407.00,1.2652
5406.00,1.2634
5405.00,1.2610
5404.00,1.2581
5403.00,1.2550
5402.00,1.2519
5401.00,1.2484
5400.00,1.2444
5399.00,1.2397
5398.00,1.2346
5397.00,1.2291
5396.00,1.2231
5395.00,1.2163
5394.00,1.2090
5393.00,1.2012
5392.00,1.1931
5391.00,1.1848
5390.00,1.1764
5389.00,1.1678
5388.00,1.1589
5387.00,1.1492
5386.00,1.1390
5385.00,1.1283
5384.00,1.1173
5383.00,1.1059
5382.00,1.0941
5381.00,1.0820
5380.00,1.0698
5379.00,1.0572
5378.00,1.0441
5377.00,1.0305
5376.00,1.0167
5375.00,1.0026
5374.00,0.9882
5373.00,0.9738
5372.00,0.9595
5371.00,0.9452
5370.00,0.9308
5369.00,0.9164
5368.00,0.9020
5367.00,0.8876
5366.00,0.8732
5365.00,0.8589
5364.00,0.8447
5363.00,0.8308
5362.00,0.8171
5361.00,0.8039
5360.00,0.7909
5359.00,0.7783
5358.00,0.7662
5357.00,0.7548
5356.00,0.7441
5355.00,0.7337
5354.00,0.7240
5353.00,0.7150
5352.00,0.7068
5351.00,0.6993
5350.00,0.6926
5349.00,0.6868
5348.00,0.6820
5347.00,0.6781
5346.00,0.6751
5345.00,0.6730
5344.00,0.6719
5343.00,0.6719
5342.00,0.6730
5341.00,0.6752
5340.00,0.6781
5339.00,0.6820
5338.00,0.6871
5337.00,0.6934
5336.00,0.7007
5335.00,0.7086
5334.00,0.7169
5333.00,0.7259
5332.00,0.7357
5331.00,0.7463
5330.00,0.7577
5329.00,0.7697
5328.00,0.7822
5327.00,0.7953
5326.00,0.8090
5325.00,0.8231
5324.00,0.8374
5323.00,0.8519
5322.00,0.8664
5321.00,0.8810
5320.00,0.8958
5319.00,0.9107
5318.00,0.9257
5317.00,0.9409
5316.00,0.9562
5315.00,0.9713
5314.00,0.9864
5313.00,1.0012
5312.00,1.0159
5311.00,1.0302
5310.00,1.0440
5309.00,1.0575
5308.00,1.0707
5307.00,1.0838
5306.00,1.0968
5305.00,1.1097
5304.00,1.1222
5303.00,1.1343
5302.00,1.1458
5301.00,1.1569
5300.00,1.1676
5299.00,1.1780
5298.00,1.1882
5297.00,1.1980
5296.00,1.2073
5295.00,1.2160
5294.00,1.2240
5293.00,1.2314
5292.00,1.2383
5291.00,1.2448
5290.00,1.2511
5289.00,1.2574
5288.00,1.2634
5287.00,1.2689
5286.00,1.2737
5285.00,1.2779
5284.00,1.2818
5283.00,1.2852
5282.00,1.2881
5281.00,1.2904
5280.00,1.2923
5279.00,1.2939
5278.00,1.2953
5277.00,1.2968
5276.00,1.2981
5275.00,1.2990
5274.00,1.2992
5273.00,1.2987
5272.00,1.2976
5271.00,1.2960
5270.00,1.2939
5269.00,1.2914
5268.00,1.2887
5267.00,1.2857
5266.00,1.2824
5265.00,1.2786
5264.00,1.2740
5263.00,1.2689
5262.00,1.2634
5261.00,1.2575
5260.00,1.2514
5259.00,1.2452
5258.00,1.2389
5257.00,1.2324
5256.00,1.2251
5255.00,1.2170
5254.00,1.2084
5253.00,1.1994
5252.00,1.1902
5251.00,1.1807
5250.00,1.1709
5249.00,1.1605
5248.00,1.1497
5247.00,1.1385
5246.00,1.1267
5245.00,1.1144
5244.00,1.1016
5243.00,1.0884
5242.00,1.0750
5241.00,1.0615
5240.00,1.0478
5239.00,1.0339
5238.00,1.0197
5237.00,1.0051
5236.00,0.9902
5235.00,0.9749
5234.00,0.9595
5233.00,0.9439
5232.00,0.9281
5231.00,0.9123
5230.00,0.8967
5229.00,0.8814
5228.00,0.8663
5227.00,0.8513
5226.00,0.8363
5225.00,0.8217
5224.00,0.8076
5223.00,0.7940
5222.00,0.7810
5221.00,0.7686
5220.00,0.7567
5219.00,0.7454
5218.00,0.7348
5217.00,0.7250
5216.00,0.7159
5215.00,0.7075
5214.00,0.7000
5213.00,0.6932
5212.00,0.6874
5211.00,0.6825
5210.00,0.6787
5209.00,0.6761
5208.00,0.6745
5207.00,0.6739
5206.00,0.6747
5205.00,0.6766
5204.00,0.6796
5203.00,0.6836
5202.00,0.6886
5201.00,0.6946
5200.00,0.7018
5199.00,0.7098
5198.00,0.7188
5197.00,0.7285
5196.00,0.7388
5195.00,0.7496
5194.00,0.7607
5193.00,0.7721
5192.00,0.7837
5191.00,0.7958
5190.00,0.8083
5189.00,0.8214
5188.00,0.8351
5187.00,0.8492
5186.00,0.8636
5185.00,0.8783
5184.00,0.8933
5183.00,0.9085
5182.00,0.9240
5181.00,0.9396
5180.00,0.9553
5179.00,0.9710
5178.00,0.9867
5177.00,1.0023
5176.00,1.0178
5175.00,1.0331
5174.00,1.0482
5173.00,1.0630
5172.00,1.0775
5171.00,1.0916
5170.00,1.1054
5169.00,1.1187
5168.00,1.1318
5167.00,1.1444
5166.00,1.1567
5165.00,1.1688
5164.00,1.1804
5163.00,1.1917
5162.00,1.2025
5161.00,1.2127
5160.00,1.2224
5159.00,1.2316
5158.00,1.2404
5157.00,1.2490
5156.00,1.2573
5155.00,1.2651
5154.00,1.2725
5153.00,1.2794
5152.00,1.2858
5151.00,1.2916
5150.00,1.2970
5149.00,1.3021
5148.00,1.3068
5147.00,1.3112
5146.00,1.3153
5145.00,1.3190
5144.00,1.3223
5143.00,1.3251
5142.00,1.3272
5141.00,1.3289
5140.00,1.3301
5139.00,1.3310
5138.00,1.3313
5137.00,1.3310
5136.00,1.3301
5135.00,1.3287
5134.00,1.3271
5133.00,1.3254
5132.00,1.3235
5131.00,1.3214
5130.00,1.3188
5129.00,1.3156
5128.00,1.3118
5127.00,1.3074
5126.00,1.3027
5125.00,1.2977
5124.00,1.2924
5123.00,1.2868
5122.00,1.2807
5121.00,1.2741
5120.00,1.2668
5119.00,1.2589
5118.00,1.2505
5117.00,1.2416
5116.00,1.2323
5115.00,1.2227
5114.00,1.2129
5113.00,1.2027
5112.00,1.1921
5111.00,1.1811
5110.00,1.1696
5109.00,1.1576
5108.00,1.1452
5107.00,1.1322
5106.00,1.1189
5105.00,1.1053
5104.00,1.0913
5103.00,1.0769
5102.00,1.0620
5101.00,1.0467
5100.00,1.0312
5099.00,1.0155
5098.00,0.9996
5097.00,0.9836
5096.00,0.9675
5095.00,0.9514
5094.00,0.9353
5093.00,0.9192
5092.00,0.9033
5091.00,0.8875
5090.00,0.8719
5089.00,0.8565
5088.00,0.8413
5087.00,0.8266
5086.00,0.8123
5085.00,0.7985
5084.00,0.7854
5083.00,0.7728
5082.00,0.7608
5081.00,0.7496
5080.00,0.7390
5079.00,0.7293
5078.00,0.7204
5077.00,0.7124
5076.00,0.7053
5075.00,0.6992
5074.00,0.6941
5073.00,0.6901
5072.00,0.6871
5071.00,0.6852
5070.00,0.6844
5069.00,0.6847
5068.00,0.6862
5067.00,0.6888
5066.00,0.6925
5065.00,0.6974
5064.00,0.7034
5063.00,0.7103
5062.00,0.7182
5061.00,0.7271
5060.00,0.7368
5059.00,0.7474
5058.00,0.7587
5057.00,0.7709
5056.00,0.7837
5055.00,0.7971
5054.00,0.8110
5053.00,0.8255
5052.00,0.8405
5051.00,0.8559
5050.00,0.8717
5049.00,0.8878
5048.00,0.9042
5047.00,0.9207
5046.00,0.9371
5045.00,0.9535
5044.00,0.9699
5043.00,0.9863
5042.00,1.0029
5041.00,1.0194
5040.00,1.0358
5039.00,1.0519
5038.00,1.0676
5037.00,1.0830
5036.00,1.0980
5035.00,1.1128
5034.00,1.1273
5033.00,1.1415
5032.00,1.1553
5031.00,1.1687
5030.00,1.1817
5029.00,1.1941
5028.00,1.2060
5027.00,1.2173
5026.00,1.2283
5025.00,1.2391
5024.00,1.2494
5023.00,1.2591
5022.00,1.2683
5021.00,1.2770
5020.00,1.2854
5019.00,1.2934
5018.00,1.3011
5017.00,1.3084
5016.00,1.3152
5015.00,1.3214
5014.00,1.3271
5013.00,1.3323
5012.00,1.3371
5011.00,1.3416
5010.00,1.3456
5009.00,1.3494
5008.00,1.3529
5007.00,1.3558
5006.00,1.3580
5005.00,1.3595
5004.00,1.3604
5003.00,1.3610
5002.00,1.3614
5001.00,1.3617
5000.00,1.3618
4999.00,1.3615
4998.00,1.3606
4997.00,1.3590
4996.00,1.3569
4995.00,1.3542
4994.00,1.3512
4993.00,1.3476
4992.00,1.3437
4991.00,1.3394
4990.00,1.3350
4989.00,1.3301
4988.00,1.3249
4987.00,1.3190
4986.00,1.3127
4985.00,1.3058
4984.00,1.2985
4983.00,1.2908
4982.00,1.2829
4981.00,1.2745
4980.00,1.2656
4979.00,1.2560
4978.00,1.2459
4977.00,1.2354
4976.00,1.2245
4975.00,1.2131
4974.00,1.2013
4973.00,1.1890
4972.00,1.1761
4971.00,1.1625
4970.00,1.1485
4969.00,1.1340
4968.00,1.1193
4967.00,1.1043
4966.00,1.0890
4965.00,1.0732
4964.00,1.0570
4963.00,1.0405
4962.00,1.0238
4961.00,1.0069
4960.00,0.9900
4959.00,0.9730
4958.00,0.9561
4957.00,0.9391
4956.00,0.9221
4955.00,0.9053
4954.00,0.8887
4953.00,0.8724
4952.00,0.8565
4951.00,0.8410
4950.00,0.8258
4949.00,0.8111
4948.00,0.7968
4947.00,0.7830
4946.00,0.7700
4945.00,0.7576
4944.00,0.7460
4943.00,0.7352
4942.00,0.7253
4941.00,0.7162
4940.00,0.7081
4939.00,0.7010
4938.00,0.6950
4937.00,0.6901
4936.00,0.6863
4935.00,0.6837
4934.00,0.6821
4933.00,0.6816
4932.00,0.6824
4931.00,0.6844
4930.00,0.6876
4929.00,0.6921
4928.00,0.6977
4927.00,0.7045
4926.00,0.7123
4925.00,0.7212
4924.00,0.7313
4923.00,0.7423
4922.00,0.7542
4921.00,0.7670
4920.00,0.7804
4919.00,0.7944
4918.00,0.8090
4917.00,0.8242
4916.00,0.8400
4915.00,0.8562
4914.00,0.8728
4913.00,0.8898
4912.00,0.9070
4911.00,0.9244
4910.00,0.9419
4909.00,0.9596
4908.00,0.9772
4907.00,0.9948
4906.00,1.0123
4905.00,1.0297
4904.00,1.0469
4903.00,1.0638
4902.00,1.0805
4901.00,1.0969
4900.00,1.1131
4899.00,1.1290
4898.00,1.1445
4897.00,1.1597
4896.00,1.1744
4895.00,1.1887
4894.00,1.2026
4893.00,1.2158
4892.00,1.2283
4891.00,1.2403
4890.00,1.2519
4889.00,1.2633
4888.00,1.2743
4887.00,1.2847
4886.00,1.2946
4885.00,1.3040
4884.00,1.3129
4883.00,1.3214
4882.00,1.3296
4881.00,1.3374
4880.00,1.3445
4879.00,1.3511
4878.00,1.3572
4877.00,1.3631
4876.00,1.3686
4875.00,1.3738
4874.00,1.3785
4873.00,1.3827
4872.00,1.3863
4871.00,1.3892
4870.00,1.3915
4869.00,1.3934
4868.00,1.3952
4867.00,1.3968
4866.00,1.3982
4865.00,1.3992
4864.00,1.3996
4863.00,1.3993
4862.00,1.3986
4861.00,1.3974
4860.00,1.3959
4859.00,1.3941
4858.00,1.3917
4857.00,1.3888
4856.00,1.3854
4855.00,1.3817
4854.00,1.3777
4853.00,1.3735
4852.00,1.3688
4851.00,1.3634
4850.00,1.3575
4849.00,1.3511
4848.00,1.3443
4847.00,1.3369
4846.00,1.3291
4845.00,1.3208
4844.00,1.3121
4843.00,1.3030
4842.00,1.2933
4841.00,1.2830
4840.00,1.2722
4839.00,1.2609
4838.00,1.2493
4837.00,1.2372
4836.00,1.2246
4835.00,1.2113
4834.00,1.1974
4833.00,1.1832
4832.00,1.1686
4831.00,1.1537
4830.00,1.1384
4829.00,1.1227
4828.00,1.1065
4827.00,1.0897
4826.00,1.0726
4825.00,1.0553
4824.00,1.0378
4823.00,1.0202
4822.00,1.0025
4821.00,0.9846
4820.00,0.9667
4819.00,0.9487
4818.00,0.9308
4817.00,0.9130
4816.00,0.8954
4815.00,0.8782
4814.00,0.8613
4813.00,0.8449
4812.00,0.8290
4811.00,0.8136
4810.00,0.7989
4809.00,0.7849
4808.00,0.7716
4807.00,0.7592
4806.00,0.7476
4805.00,0.7371
4804.00,0.7275
4803.00,0.7190
4802.00,0.7116
4801.00,0.7053
4800.00,0.7003
4799.00,0.6965
4798.00,0.6939
4797.00,0.6926
4796.00,0.6926
4795.00,0.6940
4794.00,0.6968
4793.00,0.7008
4792.00,0.7061
4791.00,0.7126
4790.00,0.7203
4789.00,0.7292
4788.00,0.7393
4787.00,0.7503
4786.00,0.7623
4785.00,0.7752
4784.00,0.7890
4783.00,0.8035
4782.00,0.8188
4781.00,0.8348
4780.00,0.8514
4779.00,0.8684
4778.00,0.8857
4777.00,0.9034
4776.00,0.9213
4775.00,0.9394
4774.00,0.9578
4773.00,0.9762
4772.00,0.9946
4771.00,1.0129
4770.00,1.0312
4769.00,1.0495
4768.00,1.0678
4767.00,1.0858
4766.00,1.1036
4765.00,1.1209
4764.00,1.1375
4763.00,1.1537
4762.00,1.1695
4761.00,1.1851
4760.00,1.2003
4759.00,1.2151
4758.00,1.2295
4757.00,1.2435
4756.00,1.2570
4755.00,1.2699
4754.00,1.2823
4753.00,1.2942
4752.00,1.3055
4751.00,1.3162
4750.00,1.3264
4749.00,1.3361
4748.00,1.3455
4747.00,1.3545
4746.00,1.3630
4745.00,1.3709
4744.00,1.3781
4743.00,1.3848
4742.00,1.3911
4741.00,1.3972
4740.00,1.4031
4739.00,1.4086
4738.00,1.4135
4737.00,1.4179
4736.00,1.4218
4735.00,1.4252
4734.00,1.4282
4733.00,1.4306
4732.00,1.4325
4731.00,1.4339
4730.00,1.4348
4729.00,1.4355
4728.00,1.4360
4727.00,1.4362
4726.00,1.4359
4725.00,1.4349
4724.00,1.4334
4723.00,1.4317
4722.00,1.4296
4721.00,1.4272
4720.00,1.4243
4719.00,1.4208
4718.00,1.4166
4717.00,1.4120
4716.00,1.4067
4715.00,1.4010
4714.00,1.3948
4713.00,1.3882
4712.00,1.3812
4711.00,1.3738
4710.00,1.3659
4709.00,1.3575
4708.00,1.3485
4707.00,1.3390
4706.00,1.3290
4705.00,1.3186
4704.00,1.3077
4703.00,1.2963
4702.00,1.2844
4701.00,1.2720
4700.00,1.2590
4699.00,1.2452
4698.00,1.2309
4697.00,1.2162
4696.00,1.2012
4695.00,1.1860
4694.00,1.1705
4693.00,1.1546
4692.00,1.1382
4691.00,1.1213
4690.00,1.1039
4689.00,1.0862
4688.00,1.0683
4687.00,1.0501
4686.00,1.0318
4685.00,1.0133
4684.00,0.9947
4683.00,0.9762
4682.00,0.9578
4681.00,0.9395
4680.00,0.9214
4679.00,0.9034
4678.00,0.8856
4677.00,0.8683
4676.00,0.8514
4675.00,0.8351
4674.00,0.8195
4673.00,0.8045
4672.00,0.7901
4671.00,0.7765
4670.00,0.7638
4669.00,0.7520
4668.00,0.7413
4667.00,0.7316
4666.00,0.7231
4665.00,0.7157
4664.00,0.7096
4663.00,0.7049
4662.00,0.7015
4661.00,0.6995
4660.00,0.6989
4659.00,0.6997
4658.00,0.7018
4657.00,0.7054
4656.00,0.7104
4655.00,0.7168
4654.00,0.7245
4653.00,0.7334
4652.00,0.7436
4651.00,0.7550
4650.00,0.7675
4649.00,0.7810
4648.00,0.7955
4647.00,0.8108
4646.00,0.8268
4645.00,0.8436
4644.00,0.8609
4643.00,0.8787
4642.00,0.8969
4641.00,0.9155
4640.00,0.9344
4639.00,0.9536
4638.00,0.9732
4637.00,0.9928
4636.00,1.0124
4635.00,1.0318
4634.00,1.0511
4633.00,1.0703
4632.00,1.0894
4631.00,1.1082
4630.00,1.1267
4629.00,1.1449
4628.00,1.1627
4627.00,1.1802
4626.00,1.1971
4625.00,1.2136
4624.00,1.2296
4623.00,1.2452
4622.00,1.2604
4621.00,1.2751
4620.00,1.2893
4619.00,1.3029
4618.00,1.3158
4617.00,1.3283
4616.00,1.3402
4615.00,1.3517
4614.00,1.3625
4613.00,1.3727
4612.00,1.3823
4611.00,1.3915
4610.00,1.4003
4609.00,1.4088
4608.00,1.4168
4607.00,1.4243
4606.00,1.4312
4605.00,1.4376
4604.00,1.4435
4603.00,1.4492
4602.00,1.4544
4601.00,1.4592
4600.00,1.4635
4599.00,1.4672
4598.00,1.4704
4597.00,1.4731
4596.00,1.4754
4595.00,1.4773
4594.00,1.4786
4593.00,1.4795
4592.00,1.4800
4591.00,1.4803
4590.00,1.4803
4589.00,1.4798
4588.00,1.4788
4587.00,1.4773
4586.00,1.4753
4585.00,1.4729
4584.00,1.4700
4583.00,1.4666
4582.00,1.4628
4581.00,1.4586
4580.00,1.4540
4579.00,1.4488
4578.00,1.4432
4577.00,1.4370
4576.00,1.4302
4575.00,1.4230
4574.00,1.4153
4573.00,1.4072
4572.00,1.3986
4571.00,1.3897
4570.00,1.3802
4569.00,1.3701
4568.00,1.3596
4567.00,1.3484
4566.00,1.3367
4565.00,1.3244
4564.00,1.3115
4563.00,1.2981
4562.00,1.2841
4561.00,1.2696
4560.00,1.2546
4559.00,1.2391
4558.00,1.2231
4557.00,1.2065
4556.00,1.1895
4555.00,1.1720
4554.00,1.1539
4553.00,1.1355
4552.00,1.1167
4551.00,1.0976
4550.00,1.0782
4549.00,1.0585
4548.00,1.0387
4547.00,1.0187
4546.00,0.9987
4545.00,0.9789
4544.00,0.9592
4543.00,0.9396
4542.00,0.9203
4541.00,0.9013
4540.00,0.8829
4539.00,0.8650
4538.00,0.8478
4537.00,0.8312
4536.00,0.8155
4535.00,0.8006
4534.00,0.7867
4533.00,0.7738
4532.00,0.7621
4531.00,0.7515
4530.00,0.7422
4529.00,0.7342
4528.00,0.7276
4527.00,0.7224
4526.00,0.7187
4525.00,0.7165
4524.00,0.7159
4523.00,0.7169
4522.00,0.7195
4521.00,0.7235
4520.00,0.7290
4519.00,0.7361
4518.00,0.7445
4517.00,0.7544
4516.00,0.7657
4515.00,0.7782
4514.00,0.7919
4513.00,0.8066
4512.00,0.8222
4511.00,0.8388
4510.00,0.8562
4509.00,0.8743
4508.00,0.8931
4507.00,0.9124
4506.00,0.9321
4505.00,0.9522
4504.00,0.9725
4503.00,0.9930
4502.00,1.0136
4501.00,1.0343
4500.00,1.0549
4499.00,1.0755
4498.00,1.0959
4497.00,1.1162
4496.00,1.1362
4495.00,1.1559
4494.00,1.1752
4493.00,1.1942
4492.00,1.2128
4491.00,1.2308
4490.00,1.2482
4489.00,1.2649
4488.00,1.2808
4487.00,1.2962
4486.00,1.3111
4485.00,1.3258
4484.00,1.3401
4483.00,1.3539
4482.00,1.3671
4481.00,1.3796
4480.00,1.3916
4479.00,1.4031
4478.00,1.4141
4477.00,1.4247
4476.00,1.4348
4475.00,1.4444
4474.00,1.4535
4473.00,1.4620
4472.00,1.4698
4471.00,1.4772
4470.00,1.4839
4469.00,1.4901
4468.00,1.4958
4467.00,1.5013
4466.00,1.5066
4465.00,1.5116
4464.00,1.5162
4463.00,1.5201
4462.00,1.5235
4461.00,1.5263
4460.00,1.5288
4459.00,1.5311
4458.00,1.5331
4457.00,1.5346
4456.00,1.5356
4455.00,1.5359
4454.00,1.5355
4453.00,1.5345
4452.00,1.5331
4451.00,1.5317
4450.00,1.5302
4449.00,1.5286
4448.00,1.5267
4447.00,1.5244
4446.00,1.5216
4445.00,1.5183
4444.00,1.5146
4443.00,1.5106
4442.00,1.5063
4441.00,1.5017
4440.00,1.4968
4439.00,1.4916
4438.00,1.4859
4437.00,1.4798
4436.00,1.4730
4435.00,1.4656
4434.00,1.4574
4433.00,1.4485
4432.00,1.4388
4431.00,1.4283
4430.00,1.4171
4429.00,1.4053
4428.00,1.3928
4427.00,1.3799
4426.00,1.3663
4425.00,1.3520
4424.00,1.3370
4423.00,1.3215
4422.00,1.3055
4421.00,1.2890
4420.00,1.2719
4419.00,1.2543
4418.00,1.2360
4417.00,1.2174
4416.00,1.1984
4415.00,1.1791
4414.00,1.1596
4413.00,1.1400
4412.00,1.1204
4411.00,1.1008
4410.00,1.0814
4409.00,1.0624
4408.00,1.0439
4407.00,1.0260
4406.00,1.0088
4405.00,0.9923
4404.00,0.9766
4403.00,0.9617
4402.00,0.9476
4401.00,0.9342
4400.00,0.9215
4399.00,0.9094
4398.00,0.8977
4397.00,0.8864
4396.00,0.8757
4395.00,0.8655
4394.00,0.8560
4393.00,0.8473
4392.00,0.8395
4391.00,0.8327
4390.00,0.8271
4389.00,0.8227
4388.00,0.8197
4387.00,0.8182
4386.00,0.8182
4385.00,0.8198
4384.00,0.8231
4383.00,0.8281
4382.00,0.8346
4381.00,0.8428
4380.00,0.8524
4379.00,0.8633
4378.00,0.8756
4377.00,0.8890
4376.00,0.9034
4375.00,0.9187
4374.00,0.9346
4373.00,0.9511
4372.00,0.9680
4371.00,0.9852
4370.00,1.0026
4369.00,1.0200
4368.00,1.0372
4367.00,1.0542
4366.00,1.0708
4365.00,1.0872
4364.00,1.1033
4363.00,1.1193
4362.00,1.1350
4361.00,1.1506
4360.00,1.1659
4359.00,1.1810
4358.00,1.1959
4357.00,1.2108
4356.00,1.2257
4355.00,1.2406
4354.00,1.2557
4353.00,1.2707
4352.00,1.2858
4351.00,1.3009
4350.00,1.3159
4349.00,1.3307
4348.00,1.3453
4347.00,1.3594
4346.00,1.3730
4345.00,1.3861
4344.00,1.3989
4343.00,1.4114
4342.00,1.4238
4341.00,1.4358
4340.00,1.4473
4339.00,1.4581
4338.00,1.4685
4337.00,1.4785
4336.00,1.4880
4335.00,1.4971
4334.00,1.5056
4333.00,1.5136
4332.00,1.5213
4331.00,1.5286
4330.00,1.5355
4329.00,1.5420
4328.00,1.5480
4327.00,1.5534
4326.00,1.5581
4325.00,1.5623
4324.00,1.5662
4323.00,1.5698
4322.00,1.5729
4321.00,1.5755
4320.00,1.5771
4319.00,1.5780
4318.00,1.5783
4317.00,1.5784
4316.00,1.5782
4315.00,1.5777
4314.00,1.5769
4313.00,1.5758
4312.00,1.5745
4311.00,1.5729
4310.00,1.5708
4309.00,1.5681
4308.00,1.5646
4307.00,1.5606
4306.00,1.5561
4305.00,1.5514
4304.00,1.5462
4303.00,1.5406
4302.00,1.5344
4301.00,1.5276
4300.00,1.5202
4299.00,1.5121
4298.00,1.5034
4297.00,1.4943
4296.00,1.4849
4295.00,1.4750
4294.00,1.4647
4293.00,1.4538
4292.00,1.4422
4291.00,1.4301
4290.00,1.4174
4289.00,1.4042
4288.00,1.3905
4287.00,1.3761
4286.00,1.3611
4285.00,1.3453
4284.00,1.3289
4283.00,1.3118
4282.00,1.2942
4281.00,1.2761
4280.00,1.2574
4279.00,1.2383
4278.00,1.2185
4277.00,1.1980
4276.00,1.1770
4275.00,1.1556
4274.00,1.1338
4273.00,1.1119
4272.00,1.0897
4271.00,1.0674
4270.00,1.0450
4269.00,1.0227
4268.00,1.0005
4267.00,0.9785
4266.00,0.9569
4265.00,0.9357
4264.00,0.9151
4263.00,0.8951
4262.00,0.8758
4261.00,0.8574
4260.00,0.8399
4259.00,0.8236
4258.00,0.8084
4257.00,0.7946
4256.00,0.7821
4255.00,0.7711
4254.00,0.7616
4253.00,0.7537
4252.00,0.7475
4251.00,0.7431
4250.00,0.7404
4249.00,0.7396
4248.00,0.7407
4247.00,0.7436
4246.00,0.7483
4245.00,0.7549
4244.00,0.7632
4243.00,0.7731
4242.00,0.7847
4241.00,0.7979
4240.00,0.8126
4239.00,0.8286
4238.00,0.8458
4237.00,0.8641
4236.00,0.8833
4235.00,0.9033
4234.00,0.9240
4233.00,0.9455
4232.00,0.9674
4231.00,0.9897
4230.00,1.0123
4229.00,1.0351
4228.00,1.0581
4227.00,1.0811
4226.00,1.1041
4225.00,1.1270
4224.00,1.1496
4223.00,1.1719
4222.00,1.1939
4221.00,1.2156
4220.00,1.2367
4219.00,1.2572
4218.00,1.2772
4217.00,1.2965
4216.00,1.3153
4215.00,1.3336
4214.00,1.3513
4213.00,1.3685
4212.00,1.3852
4211.00,1.4014
4210.00,1.4169
4209.00,1.4318
4208.00,1.4460
4207.00,1.4596
4206.00,1.4726
4205.00,1.4848
4204.00,1.4964
4203.00,1.5074
4202.00,1.5178
4201.00,1.5279
4200.00,1.5374
4199.00,1.5465
4198.00,1.5551
4197.00,1.5631
4196.00,1.5706
4195.00,1.5775
4194.00,1.5839
4193.00,1.5897
4192.00,1.5949
4191.00,1.5998
4190.00,1.6044
4189.00,1.6087
4188.00,1.6127
4187.00,1.6162
4186.00,1.6192
4185.00,1.6215
4184.00,1.6231
4183.00,1.6242
4182.00,1.6249
4181.00,1.6250
4180.00,1.6247
4179.00,1.6241
4178.00,1.6231
4177.00,1.6218
4176.00,1.6203
4175.00,1.6183
4174.00,1.6157
4173.00,1.6126
4172.00,1.6090
4171.00,1.6049
4170.00,1.6005
4169.00,1.5956
4168.00,1.5903
4167.00,1.5845
4166.00,1.5780
4165.00,1.5708
4164.00,1.5631
4163.00,1.5548
4162.00,1.5461
4161.00,1.5369
4160.00,1.5274
4159.00,1.5174
4158.00,1.5069
4157.00,1.4958
4156.00,1.4839
4155.00,1.4713
4154.00,1.4580
4153.00,1.4442
4152.00,1.4300
4151.00,1.4153
4150.00,1.4000
4149.00,1.3839
4148.00,1.3670
4147.00,1.3491
4146.00,1.3306
4145.00,1.3115
4144.00,1.2919
4143.00,1.2719
4142.00,1.2512
4141.00,1.2299
4140.00,1.2080
4139.00,1.1856
4138.00,1.1629
4137.00,1.1398
4136.00,1.1165
4135.00,1.0929
4134.00,1.0692
4133.00,1.0457
4132.00,1.0224
4131.00,0.9993
4130.00,0.9765
4129.00,0.9542
4128.00,0.9324
4127.00,0.9114
4126.00,0.8913
4125.00,0.8721
4124.00,0.8541
4123.00,0.8372
4122.00,0.8216
4121.00,0.8073
4120.00,0.7945
4119.00,0.7832
4118.00,0.7737
4117.00,0.7658
4116.00,0.7599
4115.00,0.7559
4114.00,0.7538
4113.00,0.7538
4112.00,0.7557
4111.00,0.7596
4110.00,0.7656
4109.00,0.7734
4108.00,0.7831
4107.00,0.7946
4106.00,0.8077
4105.00,0.8225
4104.00,0.8388
4103.00,0.8564
4102.00,0.8752
4101.00,0.8950
4100.00,0.9158
4099.00,0.9374
4098.00,0.9598
4097.00,0.9827
4096.00,1.0062
4095.00,1.0300
4094.00,1.0541
4093.00,1.0784
4092.00,1.1026
4091.00,1.1268
4090.00,1.1509
4089.00,1.1748
4088.00,1.1984
4087.00,1.2217
4086.00,1.2447
4085.00,1.2671
4084.00,1.2891
4083.00,1.3104
4082.00,1.3311
4081.00,1.3511
4080.00,1.3705
4079.00,1.3892
4078.00,1.4075
4077.00,1.4252
4076.00,1.4422
4075.00,1.4583
4074.00,1.4737
4073.00,1.4885
4072.00,1.5028
4071.00,1.5168
4070.00,1.5301
4069.00,1.5427
4068.00,1.5546
4067.00,1.5659
4066.00,1.5766
4065.00,1.5867
4064.00,1.5962
4063.00,1.6050
4062.00,1.6132
4061.00,1.6209
4060.00,1.6281
4059.00,1.6351
4058.00,1.6417
4057.00,1.6482
4056.00,1.6543
4055.00,1.6598
4054.00,1.6647
4053.00,1.6688
4052.00,1.6724
4051.00,1.6754
4050.00,1.6780
4049.00,1.6806
4048.00,1.6831
4047.00,1.6853
4046.00,1.6867
4045.00,1.6871
4044.00,1.6867
4043.00,1.6859
4042.00,1.6851
4041.00,1.6842
4040.00,1.6831
4039.00,1.6817
4038.00,1.6797
4037.00,1.6771
4036.00,1.6741
4035.00,1.6707
4034.00,1.6671
4033.00,1.6632
4032.00,1.6588
4031.00,1.6538
4030.00,1.6482
4029.00,1.6420
4028.00,1.6354
4027.00,1.6283
4026.00,1.6206
4025.00,1.6121
4024.00,1.6029
4023.00,1.5931
4022.00,1.5828
4021.00,1.5720
4020.00,1.5607
4019.00,1.5489
4018.00,1.5364
4017.00,1.5232
4016.00,1.5093
4015.00,1.4946
4014.00,1.4791
4013.00,1.4628
4012.00,1.4458
4011.00,1.4280
4010.00,1.4095
4009.00,1.3905
4008.00,1.3709
4007.00,1.3507
4006.00,1.3296
4005.00,1.3077
4004.00,1.2851
4003.00,1.2619
4002.00,1.2383
4001.00,1.2143
4000.00,1.1899
3999.00,1.1650
3998.00,1.1400
3997.00,1.1148
3996.00,1.0896
3995.00,1.0647
3994.00,1.0402
3993.00,1.0163
3992.00,0.9931
3991.00,0.9706
3990.00,0.9491
3989.00,0.9286
3988.00,0.9095
3987.00,0.8918
3986.00,0.8756
3985.00,0.8611
3984.00,0.8483
3983.00,0.8374
3982.00,0.8284
3981.00,0.8214
3980.00,0.8163
3979.00,0.8130
3978.00,0.8115
3977.00,0.8116
3976.00,0.8132
3975.00,0.8164
3974.00,0.8209
3973.00,0.8269
3972.00,0.8342
3971.00,0.8431
3970.00,0.8534
3969.00,0.8651
3968.00,0.8784
3967.00,0.8931
3966.00,0.9092
3965.00,0.9267
3964.00,0.9455
3963.00,0.9655
3962.00,0.9865
3961.00,1.0086
3960.00,1.0314
3959.00,1.0549
3958.00,1.0789
3957.00,1.1033
3956.00,1.1280
3955.00,1.1528
3954.00,1.1776
3953.00,1.2022
3952.00,1.2265
3951.00,1.2505
3950.00,1.2743
3949.00,1.2978
3948.00,1.3209
3947.00,1.3434
3946.00,1.3651
3945.00,1.3861
3944.00,1.4065
3943.00,1.4264
3942.00,1.4459
3941.00,1.4650
3940.00,1.4833
3939.00,1.5006
3938.00,1.5168
3937.00,1.5321
3936.00,1.5465
3935.00,1.5605
3934.00,1.5742
3933.00,1.5877
3932.00,1.6008
3931.00,1.6132
3930.00,1.6246
3929.00,1.6350
3928.00,1.6448
3927.00,1.6542
3926.00,1.6634
3925.00,1.6723
3924.00,1.6806
3923.00,1.6880
3922.00,1.6943
3921.00,1.6999
3920.00,1.7052
3919.00,1.7105
3918.00,1.7157
3917.00,1.7207
3916.00,1.7252
3915.00,1.7293
3914.00,1.7329
3913.00,1.7361
3912.00,1.7389
3911.00,1.7411
3910.00,1.7422
3909.00,1.7420
3908.00,1.7406
3907.00,1.7385
3906.00,1.7358
3905.00,1.7330
3904.00,1.7304
3903.00,1.7283
3902.00,1.7267
3901.00,1.7251
3900.00,1.7232
3899.00,1.7208
3898.00,1.7179
3897.00,1.7141
3896.00,1.7093
3895.00,1.7035
3894.00,1.6972
3893.00,1.6902
3892.00,1.6825
3891.00,1.6739
3890.00,1.6646
3889.00,1.6552
3888.00,1.6457
3887.00,1.6356
3886.00,1.6245
3885.00,1.6128
3884.00,1.6008
3883.00,1.5885
3882.00,1.5755
3881.00,1.5615
3880.00,1.5469
3879.00,1.5321
3878.00,1.5173
3877.00,1.5019
3876.00,1.4851
3875.00,1.4664
3874.00,1.4462
3873.00,1.4257
3872.00,1.4049
3871.00,1.3828
3870.00,1.3588
3869.00,1.3342
3868.00,1.3104
3867.00,1.2871
3866.00,1.2631
3865.00,1.2378
3864.00,1.2117
3863.00,1.1853
3862.00,1.1589
3861.00,1.1323
3860.00,1.1051
3859.00,1.0772
3858.00,1.0489
3857.00,1.0210
3856.00,0.9944
3855.00,0.9685
3854.00,0.9419
3853.00,0.9150
3852.00,0.8901
3851.00,0.8687
3850.00,0.8507
3849.00,0.8350
3848.00,0.8210
3847.00,0.8085
3846.00,0.7973
3845.00,0.7874
3844.00,0.7787
3843.00,0.7715
3842.00,0.7663
3841.00,0.7633
3840.00,0.7628
3839.00,0.7651
3838.00,0.7707
3837.00,0.7796
3836.00,0.7911
3835.00,0.8048
3834.00,0.8207
3833.00,0.8389
3832.00,0.8595
3831.00,0.8822
3830.00,0.9062
3829.00,0.9307
3828.00,0.9554
3827.00,0.9802
3826.00,1.0051
3825.00,1.0298
3824.00,1.0543
3823.00,1.0793
3822.00,1.1059
3821.00,1.1351
3820.00,1.1661
3819.00,1.1963
3818.00,1.2245
3817.00,1.2515
3816.00,1.2796
3815.00,1.3094
3814.00,1.3390
3813.00,1.3661
3812.00,1.3900
3811.00,1.4113
3810.00,1.4313
3809.00,1.4509
3808.00,1.4706
3807.00,1.4906
3806.00,1.5106
3805.00,1.5295
3804.00,1.5467
3803.00,1.5626
3802.00,1.5783
3801.00,1.5953
3800.00,1.6129
3799.00,1.6296
3798.00,1.6445
3797.00,1.6583
3796.00,1.6716
3795.00,1.6847
3794.00,1.6972
3793.00,1.7087
3792.00,1.7189
3791.00,1.7283
3790.00,1.7370
3789.00,1.7452
3788.00,1.7529
3787.00,1.7602
3786.00,1.7669
3785.00,1.7728
3784.00,1.7780
3783.00,1.7826
3782.00,1.7869
3781.00,1.7909
3780.00,1.7947
3779.00,1.7986
3778.00,1.8027
3777.00,1.8064
3776.00,1.8088
3775.00,1.8097
3774.00,1.8097
3773.00,1.8094
3772.00,1.8086
3771.00,1.8074
3770.00,1.8058
3769.00,1.8042
3768.00,1.8027
3767.00,1.8012
3766.00,1.7993
3765.00,1.7966
3764.00,1.7931
3763.00,1.7888
3762.00,1.7839
3761.00,1.7783
3760.00,1.7723
3759.00,1.7662
3758.00,1.7599
3757.00,1.7524
3756.00,1.7434
3755.00,1.7330
3754.00,1.7215
3753.00,1.7093
3752.00,1.6968
3751.00,1.6838
3750.00,1.6699
3749.00,1.6552
3748.00,1.6404
3747.00,1.6262
3746.00,1.6124
3745.00,1.5981
3744.00,1.5830
3743.00,1.5674
3742.00,1.5515
3741.00,1.5345
3740.00,1.5162
3739.00,1.4965
3738.00,1.4755
3737.00,1.4522
3736.00,1.4261
3735.00,1.3986
3734.00,1.3712
3733.00,1.3439
3732.00,1.3163
3731.00,1.2887
3730.00,1.2615
3729.00,1.2349
3728.00,1.2081
3727.00,1.1807
3726.00,1.1534
3725.00,1.1266
3724.00,1.1007
3723.00,1.0757
3722.00,1.0518
3721.00,1.0293
3720.00,1.0082
3719.00,0.9883
3718.00,0.9693
3717.00,0.9510
3716.00,0.9339
3715.00,0.9184
3714.00,0.9042
3713.00,0.8911
3712.00,0.8786
3711.00,0.8674
3710.00,0.8582
3709.00,0.8514
3708.00,0.8469
3707.00,0.8452
3706.00,0.8471
3705.00,0.8535
3704.00,0.8642
3703.00,0.8780
3702.00,0.8942
3701.00,0.9130
3700.00,0.9354
3699.00,0.9611
3698.00,0.9890
3697.00,1.0178
3696.00,1.0470
3695.00,1.0761
3694.00,1.1046
3693.00,1.1324
3692.00,1.1600
3691.00,1.1880
3690.00,1.2173
3689.00,1.2488
3688.00,1.2828
3687.00,1.3171
3686.00,1.3495
3685.00,1.3785
3684.00,1.4049
3683.00,1.4295
3682.00,1.4529
3681.00,1.4747
3680.00,1.4948
3679.00,1.5134
3678.00,1.5316
3677.00,1.5503
3676.00,1.5703
3675.00,1.5917
3674.00,1.6129
3673.00,1.6322
3672.00,1.6495
3671.00,1.6664
3670.00,1.6844
3669.00,1.7038
3668.00,1.7231
3667.00,1.7405
3666.00,1.7557
3665.00,1.7694
3664.00,1.7822
3663.00,1.7944
3662.00,1.8058
3661.00,1.8161
3660.00,1.8253
3659.00,1.8335
3658.00,1.8412
3657.00,1.8489
3656.00,1.8564
3655.00,1.8631
3654.00,1.8685
3653.00,1.8728
3652.00,1.8770
3651.00,1.8813
3650.00,1.8858
3649.00,1.8907
3648.00,1.8962
3647.00,1.9021
3646.00,1.9078
3645.00,1.9132
3644.00,1.9181
3643.00,1.9223
3642.00,1.9257
3641.00,1.9281
3640.00,1.9296
3639.00,1.9302
3638.00,1.9299
3637.00,1.9288
3636.00,1.9271
3635.00,1.9245
3634.00,1.9210
3633.00,1.9168
3632.00,1.9123
3631.00,1.9081
3630.00,1.9041
3629.00,1.9006
3628.00,1.8981
3627.00,1.8964
3626.00,1.8947
3625.00,1.8924
3624.00,1.8896
3623.00,1.8867
3622.00,1.8838
3621.00,1.8812
3620.00,1.8783
3619.00,1.8749
3618.00,1.8708
3617.00,1.8663
3616.00,1.8614
3615.00,1.8556
3614.00,1.8485
3613.00,1.8401
3612.00,1.8306
3611.00,1.8204
3610.00,1.8094
3609.00,1.7974
3608.00,1.7838
3607.00,1.7690
3606.00,1.7533
3605.00,1.7376
3604.00,1.7226
3603.00,1.7081
3602.00,1.6934
3601.00,1.6771
3600.00,1.6592
3599.00,1.6407
3598.00,1.6226
3597.00,1.6052
3596.00,1.5876
3595.00,1.5691
3594.00,1.5493
3593.00,1.5286
3592.00,1.5073
3591.00,1.4858
3590.00,1.4644
3589.00,1.4425
3588.00,1.4199
3587.00,1.3969
3586.00,1.3740
3585.00,1.3516
3584.00,1.3297
3583.00,1.3082
3582.00,1.2874
3581.00,1.2673
3580.00,1.2480
3579.00,1.2297
3578.00,1.2126
3577.00,1.1966
3576.00,1.1822
3575.00,1.1692
3574.00,1.1578
3573.00,1.1481
3572.00,1.1400
3571.00,1.1339
3570.00,1.1300
3569.00,1.1284
3568.00,1.1291
3567.00,1.1316
3566.00,1.1361
3565.00,1.1423
3564.00,1.1502
3563.00,1.1598
3562.00,1.1712
3561.00,1.1843
3560.00,1.1990
3559.00,1.2149
3558.00,1.2318
3557.00,1.2495
3556.00,1.2681
3555.00,1.2875
3554.00,1.3074
3553.00,1.3278
3552.00,1.3485
3551.00,1.3694
3550.00,1.3903
3549.00,1.4111
3548.00,1.4318
3547.00,1.4527
3546.00,1.4735
3545.00,1.4941
3544.00,1.5144
3543.00,1.5342
3542.00,1.5535
3541.00,1.5724
3540.00,1.5908
3539.00,1.6086
3538.00,1.6258
3537.00,1.6426
3536.00,1.6592
3535.00,1.6756
3534.00,1.6917
3533.00,1.7073
3532.00,1.7223
3531.00,1.7368
3530.00,1.7509
3529.00,1.7646
3528.00,1.7780
3527.00,1.7911
3526.00,1.8037
3525.00,1.8160
3524.00,1.8277
3523.00,1.8388
3522.00,1.8495
3521.00,1.8599
3520.00,1.8700
3519.00,1.8797
3518.00,1.8888
3517.00,1.8975
3516.00,1.9060
3515.00,1.9142
3514.00,1.9223
3513.00,1.9300
3512.00,1.9371
3511.00,1.9435
3510.00,1.9491
3509.00,1.9542
3508.00,1.9590
3507.00,1.9637
3506.00,1.9683
3505.00,1.9727
3504.00,1.9764
3503.00,1.9792
3502.00,1.9812
3501.00,1.9829
3500.00,1.9844
3499.00,1.9856
3498.00,1.9862
3497.00,1.9862
3496.00,1.9858
3495.00,1.9852
3494.00,1.9842
3493.00,1.9829
3492.00,1.9815
3491.00,1.9800
3490.00,1.9783
3489.00,1.9760
3488.00,1.9726
3487.00,1.9682
3486.00,1.9631
3485.00,1.9575
3484.00,1.9516
3483.00,1.9454
3482.00,1.9389
3481.00,1.9325
3480.00,1.9258
3479.00,1.9187
3478.00,1.9106
3477.00,1.9017
3476.00,1.8922
3475.00,1.8819
3474.00,1.8710
3473.00,1.8594
3472.00,1.8475
3471.00,1.8356
3470.00,1.8234
3469.00,1.8104
3468.00,1.7962
3467.00,1.7810
3466.00,1.7652
3465.00,1.7488
3464.00,1.7317
3463.00,1.7139
3462.00,1.6954
3461.00,1.6762
3460.00,1.6563
3459.00,1.6357
3458.00,1.6143
3457.00,1.5919
3456.00,1.5686
3455.00,1.5446
3454.00,1.5200
3453.00,1.4948
3452.00,1.4692
3451.00,1.4432
3450.00,1.4169
3449.00,1.3901
3448.00,1.3629
3447.00,1.3355
3446.00,1.3083
3445.00,1.2816
3444.00,1.2556
3443.00,1.2303
3442.00,1.2058
3441.00,1.1823
3440.00,1.1600
3439.00,1.1391
3438.00,1.1197
3437.00,1.1020
3436.00,1.0863
3435.00,1.0726
3434.00,1.0611
3433.00,1.0518
3432.00,1.0451
3431.00,1.0408
3430.00,1.0392
3429.00,1.0401
3428.00,1.0438
3427.00,1.0500
3426.00,1.0588
3425.00,1.0701
3424.00,1.0838
3423.00,1.0996
3422.00,1.1174
3421.00,1.1370
3420.00,1.1583
3419.00,1.1812
3418.00,1.2053
3417.00,1.2305
3416.00,1.2565
3415.00,1.2831
3414.00,1.3103
3413.00,1.3379
3412.00,1.3657
3411.00,1.3935
3410.00,1.4211
3409.00,1.4484
3408.00,1.4752
3407.00,1.5014
3406.00,1.5270
3405.00,1.5520
3404.00,1.5764
3403.00,1.6000
3402.00,1.6230
3401.00,1.6452
3400.00,1.6666
3399.00,1.6873
3398.00,1.7072
3397.00,1.7261
3396.00,1.7440
3395.00,1.7613
3394.00,1.7781
3393.00,1.7948
3392.00,1.8111
3391.00,1.8269
3390.00,1.8422
3389.00,1.8568
3388.00,1.8707
3387.00,1.8838
3386.00,1.8960
3385.00,1.9073
3384.00,1.9179
3383.00,1.9281
3382.00,1.9382
3381.00,1.9480
3380.00,1.9575
3379.00,1.9663
3378.00,1.9743
3377.00,1.9814
3376.00,1.9881
3375.00,1.9944
3374.00,2.0005
3373.00,2.0061
3372.00,2.0111
3371.00,2.0153
3370.00,2.0189
3369.00,2.0222
3368.00,2.0256
3367.00,2.0289
3366.00,2.0318
3365.00,2.0342
3364.00,2.0360
3363.00,2.0376
3362.00,2.0386
3361.00,2.0387
3360.00,2.0378
3359.00,2.0360
3358.00,2.0340
3357.00,2.0322
3356.00,2.0304
3355.00,2.0286
3354.00,2.0265
3353.00,2.0239
3352.00,2.0203
3351.00,2.0157
3350.00,2.0102
3349.00,2.0041
3348.00,1.9976
3347.00,1.9909
3346.00,1.9840
3345.00,1.9771
3344.00,1.9698
3343.00,1.9615
3342.00,1.9523
3341.00,1.9424
3340.00,1.9323
3339.00,1.9219
3338.00,1.9107
3337.00,1.8987
3336.00,1.8860
3335.00,1.8727
3334.00,1.8589
3333.00,1.8447
3332.00,1.8299
3331.00,1.8144
3330.00,1.7981
3329.00,1.7811
3328.00,1.7634
3327.00,1.7451
3326.00,1.7261
3325.00,1.7063
3324.00,1.6857
3323.00,1.6642
3322.00,1.6421
3321.00,1.6191
3320.00,1.5953
3319.00,1.5705
3318.00,1.5449
3317.00,1.5186
3316.00,1.4918
3315.00,1.4645
3314.00,1.4366
3313.00,1.4083
3312.00,1.3800
3311.00,1.3519
3310.00,1.3242
3309.00,1.2970
3308.00,1.2704
3307.00,1.2447
3306.00,1.2200
3305.00,1.1966
3304.00,1.1746
3303.00,1.1541
3302.00,1.1355
3301.00,1.1189
3300.00,1.1045
3299.00,1.0924
3298.00,1.0827
3297.00,1.0756
3296.00,1.0711
3295.00,1.0694
3294.00,1.0703
3293.00,1.0740
3292.00,1.0804
3291.00,1.0892
3290.00,1.1005
3289.00,1.1142
3288.00,1.1302
3287.00,1.1484
3286.00,1.1685
3285.00,1.1903
3284.00,1.2135
3283.00,1.2380
3282.00,1.2636
3281.00,1.2902
3280.00,1.3175
3279.00,1.3455
3278.00,1.3739
3277.00,1.4025
3276.00,1.4311
3275.00,1.4596
3274.00,1.4878
3273.00,1.5157
3272.00,1.5432
3271.00,1.5703
3270.00,1.5967
3269.00,1.6223
3268.00,1.6471
3267.00,1.6710
3266.00,1.6943
3265.00,1.7171
3264.00,1.7392
3263.00,1.7604
3262.00,1.7806
3261.00,1.8001
3260.00,1.8189
3259.00,1.8369
3258.00,1.8543
3257.00,1.8712
3256.00,1.8873
3255.00,1.9027
3254.00,1.9172
3253.00,1.9309
3252.00,1.9439
3251.00,1.9563
3250.00,1.9682
3249.00,1.9795
3248.00,1.9905
3247.00,2.0010
3246.00,2.0107
3245.00,2.0196
3244.00,2.0279
3243.00,2.0359
3242.00,2.0437
3241.00,2.0515
3240.00,2.0589
3239.00,2.0656
3238.00,2.0714
3237.00,2.0766
3236.00,2.0817
3235.00,2.0868
3234.00,2.0915
3233.00,2.0954
3232.00,2.0985
3231.00,2.1007
3230.00,2.1025
3229.00,2.1039
3228.00,2.1051
3227.00,2.1059
3226.00,2.1062
3225.00,2.1058
3224.00,2.1047
3223.00,2.1032
3222.00,2.1014
3221.00,2.0995
3220.00,2.0975
3219.00,2.0950
3218.00,2.0919
3217.00,2.0881
3216.00,2.0835
3215.00,2.0782
3214.00,2.0723
3213.00,2.0660
3212.00,2.0593
3211.00,2.0523
3210.00,2.0450
3209.00,2.0377
3208.00,2.0303
3207.00,2.0229
3206.00,2.0155
3205.00,2.0081
3204.00,2.0005
3203.00,1.9922
3202.00,1.9830
3201.00,1.9728
3200.00,1.9618
3199.00,1.9497
3198.00,1.9363
3197.00,1.9215
3196.00,1.9055
3195.00,1.8885
3194.00,1.8708
3193.00,1.8525
3192.00,1.8334
3191.00,1.8133
3190.00,1.7922
3189.00,1.7700
3188.00,1.7471
3187.00,1.7233
3186.00,1.6989
3185.00,1.6737
3184.00,1.6479
3183.00,1.6215
3182.00,1.5946
3181.00,1.5672
3180.00,1.5397
3179.00,1.5124
3178.00,1.4857
3177.00,1.4602
3176.00,1.4363
3175.00,1.4149
3174.00,1.3966
3173.00,1.3826
3172.00,1.3737
3171.00,1.3710
3170.00,1.3751
3169.00,1.3864
3168.00,1.4042
3167.00,1.4266
3166.00,1.4498
3165.00,1.4686
3164.00,1.4773
3163.00,1.4719
3162.00,1.4519
3161.00,1.4207
3160.00,1.3837
3159.00,1.3461
3158.00,1.3120
3157.00,1.2838
3156.00,1.2626
3155.00,1.2486
3154.00,1.2414
3153.00,1.2404
3152.00,1.2449
3151.00,1.2542
3150.00,1.2676
3149.00,1.2844
3148.00,1.3039
3147.00,1.3258
3146.00,1.3495
3145.00,1.3747
3144.00,1.4009
3143.00,1.4281
3142.00,1.4561
3141.00,1.4848
3140.00,1.5137
3139.00,1.5425
3138.00,1.5712
3137.00,1.5994
3136.00,1.6274
3135.00,1.6549
3134.00,1.6819
3133.00,1.7082
3132.00,1.7335
3131.00,1.7581
3130.00,1.7819
3129.00,1.8050
3128.00,1.8273
3127.00,1.8487
3126.00,1.8692
3125.00,1.8889
3124.00,1.9078
3123.00,1.9258
3122.00,1.9431
3121.00,1.9597
3120.00,1.9756
3119.00,1.9909
3118.00,2.0059
3117.00,2.0206
3116.00,2.0347
3115.00,2.0479
3114.00,2.0601
3113.00,2.0713
3112.00,2.0817
3111.00,2.0915
3110.00,2.1009
3109.00,2.1099
3108.00,2.1184
3107.00,2.1267
3106.00,2.1349
3105.00,2.1427
3104.00,2.1497
3103.00,2.1555
3102.00,2.1607
3101.00,2.1659
3100.00,2.1711
3099.00,2.1757
3098.00,2.1793
3097.00,2.1820
3096.00,2.1845
3095.00,2.1871
3094.00,2.1897
3093.00,2.1918
3092.00,2.1931
3091.00,2.1939
3090.00,2.1946
3089.00,2.1950
3088.00,2.1944
3087.00,2.1928
3086.00,2.1904
3085.00,2.1880
3084.00,2.1855
3083.00,2.1825
3082.00,2.1788
3081.00,2.1745
3080.00,2.1701
3079.00,2.1652
3078.00,2.1597
3077.00,2.1534
3076.00,2.1469
3075.00,2.1403
3074.00,2.1336
3073.00,2.1263
3072.00,2.1181
3071.00,2.1089
3070.00,2.0988
3069.00,2.0883
3068.00,2.0775
3067.00,2.0664
3066.00,2.0550
3065.00,2.0432
3064.00,2.0308
3063.00,2.0175
3062.00,2.0035
3061.00,1.9888
3060.00,1.9736
3059.00,1.9578
3058.00,1.9414
3057.00,1.9242
3056.00,1.9063
3055.00,1.8880
3054.00,1.8690
3053.00,1.8495
3052.00,1.8294
3051.00,1.8088
3050.00,1.7877
3049.00,1.7662
3048.00,1.7441
3047.00,1.7214
3046.00,1.6985
3045.00,1.6755
3044.00,1.6527
3043.00,1.6303
3042.00,1.6085
3041.00,1.5874
3040.00,1.5673
3039.00,1.5481
3038.00,1.5301
3037.00,1.5138
3036.00,1.4992
3035.00,1.4866
3034.00,1.4760
3033.00,1.4676
3032.00,1.4616
3031.00,1.4580
3030.00,1.4569
3029.00,1.4584
3028.00,1.4628
3027.00,1.4699
3026.00,1.4796
3025.00,1.4918
3024.00,1.5062
3023.00,1.5226
3022.00,1.5409
3021.00,1.5610
3020.00,1.5830
3019.00,1.6069
3018.00,1.6321
3017.00,1.6581
3016.00,1.6845
3015.00,1.7113
3014.00,1.7386
3013.00,1.7659
3012.00,1.7928
3011.00,1.8190
3010.00,1.8442
3009.00,1.8684
3008.00,1.8914
3007.00,1.9128
3006.00,1.9323
3005.00,1.9495
3004.00,1.9643
3003.00,1.9766
3002.00,1.9869
3001.00,1.9958
3000.00,2.0039
2999.00,2.0115
2998.00,2.0183
2997.00,2.0242
2996.00,2.0291
2995.00,2.0340
2994.00,2.0400
2993.00,2.0479
2992.00,2.0572
2991.00,2.0676
2990.00,2.0788
2989.00,2.0906
2988.00,2.1031
2987.00,2.1162
2986.00,2.1300
2985.00,2.1446
2984.00,2.1599
2983.00,2.1757
2982.00,2.1913
2981.00,2.2065
2980.00,2.2210
2979.00,2.2350
2978.00,2.2483
2977.00,2.2613
2976.00,2.2739
2975.00,2.2864
2974.00,2.2990
2973.00,2.3117
2972.00,2.3243
2971.00,2.3366
2970.00,2.3484
2969.00,2.3595
2968.00,2.3700
2967.00,2.3801
2966.00,2.3902
2965.00,2.3998
2964.00,2.4079
2963.00,2.4145
2962.00,2.4205
2961.00,2.4274
2960.00,2.4356
2959.00,2.4445
2958.00,2.4532
2957.00,2.4611
2956.00,2.4684
2955.00,2.4760
2954.00,2.4849
2953.00,2.4956
2952.00,2.5080
2951.00,2.5215
2950.00,2.5359
2949.00,2.5516
2948.00,2.5686
2947.00,2.5858
2946.00,2.6009
2945.00,2.6114
2944.00,2.6160
2943.00,2.6147
2942.00,2.6087
2941.00,2.5987
2940.00,2.5848
2939.00,2.5674
2938.00,2.5485
2937.00,2.5308
2936.00,2.5155
2935.00,2.5023
2934.00,2.4900
2933.00,2.4777
2932.00,2.4658
2931.00,2.4548
2930.00,2.4446
2929.00,2.4347
2928.00,2.4246
2927.00,2.4140
2926.00,2.4026
2925.00,2.3906
2924.00,2.3790
2923.00,2.3683
2922.00,2.3583
2921.00,2.3479
2920.00,2.3367
2919.00,2.3250
2918.00,2.3136
2917.00,2.3022
2916.00,2.2903
2915.00,2.2775
2914.00,2.2641
2913.00,2.2504
2912.00,2.2363
2911.00,2.2216
2910.00,2.2064
2909.00,2.1910
2908.00,2.1755
2907.00,2.1600
2906.00,2.1440
2905.00,2.1270
2904.00,2.1087
2903.00,2.0893
2902.00,2.0690
2901.00,2.0480
2900.00,2.0262
2899.00,2.0037
2898.00,1.9805
2897.00,1.9565
2896.00,1.9317
2895.00,1.9060
2894.00,1.8795
2893.00,1.8525
2892.00,1.8248
2891.00,1.7968
2890.00,1.7690
2889.00,1.7420
2888.00,1.7166
2887.00,1.6931
2886.00,1.6717
2885.00,1.6525
2884.00,1.6359
2883.00,1.6224
2882.00,1.6124
2881.00,1.6063
2880.00,1.6041
2879.00,1.6061
2878.00,1.6123
2877.00,1.6225
2876.00,1.6361
2875.00,1.6525
2874.00,1.6707
2873.00,1.6896
2872.00,1.7080
2871.00,1.7245
2870.00,1.7382
2869.00,1.7483
2868.00,1.7545
2867.00,1.7569
2866.00,1.7560
2865.00,1.7523
2864.00,1.7465
2863.00,1.7388
2862.00,1.7296
2861.00,1.7194
2860.00,1.7085
2859.00,1.6977
2858.00,1.6878
2857.00,1.6802
2856.00,1.6757
2855.00,1.6752
2854.00,1.6791
2853.00,1.6874
2852.00,1.6997
2851.00,1.7154
2850.00,1.7341
2849.00,1.7554
2848.00,1.7787
2847.00,1.8032
2846.00,1.8285
2845.00,1.8542
2844.00,1.8801
2843.00,1.9058
2842.00,1.9313
2841.00,1.9563
2840.00,1.9810
2839.00,2.0050
2838.00,2.0277
2837.00,2.0489
2836.00,2.0686
2835.00,2.0873
2834.00,2.1056
2833.00,2.1235
2832.00,2.1407
2831.00,2.1569
2830.00,2.1721
2829.00,2.1866
2828.00,2.2005
2827.00,2.2139
2826.00,2.2265
2825.00,2.2381
2824.00,2.2489
2823.00,2.2594
2822.00,2.2700
2821.00,2.2803
2820.00,2.2894
2819.00,2.2972
2818.00,2.3043
2817.00,2.3117
2816.00,2.3195
2815.00,2.3268
2814.00,2.3326
2813.00,2.3365
2812.00,2.3392
2811.00,2.3422
2810.00,2.3465
2809.00,2.3515
2808.00,2.3558
2807.00,2.3580
2806.00,2.3587
2805.00,2.3588
2804.00,2.3589
2803.00,2.3591
2802.00,2.3592
2801.00,2.3590
2800.00,2.3579
2799.00,2.3558
2798.00,2.3529
2797.00,2.3496
2796.00,2.3461
2795.00,2.3420
2794.00,2.3375
2793.00,2.3330
2792.00,2.3281
2791.00,2.3222
2790.00,2.3154
2789.00,2.3082
2788.00,2.3009
2787.00,2.2932
2786.00,2.2843
2785.00,2.2742
2784.00,2.2630
2783.00,2.2513
2782.00,2.2396
2781.00,2.2279
2780.00,2.2156
2779.00,2.2022
2778.00,2.1878
2777.00,2.1726
2776.00,2.1568
2775.00,2.1400
2774.00,2.1221
2773.00,2.1032
2772.00,2.0833
2771.00,2.0624
2770.00,2.0404
2769.00,2.0174
2768.00,1.9934
2767.00,1.9683
2766.00,1.9419
2765.00,1.9142
2764.00,1.8852
2763.00,1.8547
2762.00,1.8225
2761.00,1.7888
2760.00,1.7535
2759.00,1.7168
2758.00,1.6787
2757.00,1.6393
2756.00,1.5986
2755.00,1.5568
2754.00,1.5143
2753.00,1.4718
2752.00,1.4298
2751.00,1.3886
2750.00,1.3487
2749.00,1.3105
2748.00,1.2747
2747.00,1.2414
2746.00,1.2110
2745.00,1.1840
2744.00,1.1608
2743.00,1.1417
2742.00,1.1272
2741.00,1.1175
2740.00,1.1128
2739.00,1.1132
2738.00,1.1187
2737.00,1.1292
2736.00,1.1447
2735.00,1.1647
2734.00,1.1889
2733.00,1.2169
2732.00,1.2482
2731.00,1.2823
2730.00,1.3187
2729.00,1.3568
2728.00,1.3964
2727.00,1.4372
2726.00,1.4786
2725.00,1.5203
2724.00,1.5622
2723.00,1.6040
2722.00,1.6451
2721.00,1.6855
2720.00,1.7246
2719.00,1.7624
2718.00,1.7989
2717.00,1.8340
2716.00,1.8677
2715.00,1.8997
2714.00,1.9303
2713.00,1.9594
2712.00,1.9872
2711.00,2.0139
2710.00,2.0398
2709.00,2.0649
2708.00,2.0892
2707.00,2.1124
2706.00,2.1342
2705.00,2.1545
2704.00,2.1735
2703.00,2.1913
2702.00,2.2084
2701.00,2.2251
2700.00,2.2415
2699.00,2.2574
2698.00,2.2722
2697.00,2.2860
2696.00,2.2991
2695.00,2.3120
2694.00,2.3244
2693.00,2.3361
2692.00,2.3465
2691.00,2.3561
2690.00,2.3653
2689.00,2.3745
2688.00,2.3836
2687.00,2.3920
2686.00,2.3995
2685.00,2.4065
2684.00,2.4130
2683.00,2.4188
2682.00,2.4236
2681.00,2.4274
2680.00,2.4311
2679.00,2.4347
2678.00,2.4380
2677.00,2.4408
2676.00,2.4433
2675.00,2.4455
2674.00,2.4472
2673.00,2.4478
2672.00,2.4476
2671.00,2.4473
2670.00,2.4475
2669.00,2.4476
2668.00,2.4468
2667.00,2.4449
2666.00,2.4426
2665.00,2.4404
2664.00,2.4377
2663.00,2.4338
2662.00,2.4287
2661.00,2.4231
2660.00,2.4177
2659.00,2.4127
2658.00,2.4071
2657.00,2.4002
2656.00,2.3919
2655.00,2.3825
2654.00,2.3726
2653.00,2.3628
2652.00,2.3532
2651.00,2.3432
2650.00,2.3323
2649.00,2.3204
2648.00,2.3078
2647.00,2.2948
2646.00,2.2812
2645.00,2.2666
2644.00,2.2508
2643.00,2.2341
2642.00,2.2166
2641.00,2.1984
2640.00,2.1790
2639.00,2.1582
2638.00,2.1360
2637.00,2.1128
2636.00,2.0886
2635.00,2.0638
2634.00,2.0386
2633.00,2.0135
2632.00,1.9892
2631.00,1.9663
2630.00,1.9453
2629.00,1.9256
2628.00,1.9062
2627.00,1.8851
2626.00,1.8607
2625.00,1.8321
2624.00,1.7990
2623.00,1.7619
2622.00,1.7218
2621.00,1.6794
2620.00,1.6353
2619.00,1.5899
2618.00,1.5438
2617.00,1.4975
2616.00,1.4517
2615.00,1.4068
2614.00,1.3633
2613.00,1.3219
2612.00,1.2831
2611.00,1.2474
2610.00,1.2157
2609.00,1.1883
2608.00,1.1659
2607.00,1.1490
2606.00,1.1379
2605.00,1.1332
2604.00,1.1349
2603.00,1.1432
2602.00,1.1579
2601.00,1.1785
2600.00,1.2047
2599.00,1.2358
2598.00,1.2711
2597.00,1.3099
2596.00,1.3516
2595.00,1.3954
2594.00,1.4408
2593.00,1.4872
2592.00,1.5340
2591.00,1.5808
2590.00,1.6273
2589.00,1.6732
2588.00,1.7180
2587.00,1.7615
2586.00,1.8033
2585.00,1.8434
2584.00,1.8816
2583.00,1.9182
2582.00,1.9531
2581.00,1.9867
2580.00,2.0187
2579.00,2.0490
2578.00,2.0779
2577.00,2.1053
2576.00,2.1314
2575.00,2.1561
2574.00,2.1796
2573.00,2.2020
2572.00,2.2236
2571.00,2.2443
2570.00,2.2642
2569.00,2.2834
2568.00,2.3019
2567.00,2.3193
2566.00,2.3354
2565.00,2.3502
2564.00,2.3640
2563.00,2.3771
2562.00,2.3898
2561.00,2.4029
2560.00,2.4164
2559.00,2.4291
2558.00,2.4400
2557.00,2.4492
2556.00,2.4580
2555.00,2.4675
2554.00,2.4773
2553.00,2.4861
2552.00,2.4932
2551.00,2.4988
2550.00,2.5038
2549.00,2.5088
2548.00,2.5141
2547.00,2.5196
2546.00,2.5247
2545.00,2.5286
2544.00,2.5309
2543.00,2.5320
2542.00,2.5334
2541.00,2.5358
2540.00,2.5395
2539.00,2.5436
2538.00,2.5473
2537.00,2.5495
2536.00,2.5498
2535.00,2.5485
2534.00,2.5464
2533.00,2.5439
2532.00,2.5406
2531.00,2.5365
2530.00,2.5322
2529.00,2.5287
2528.00,2.5258
2527.00,2.5223
2526.00,2.5174
2525.00,2.5117
2524.00,2.5058
2523.00,2.4997
2522.00,2.4930
2521.00,2.4853
2520.00,2.4773
2519.00,2.4694
2518.00,2.4613
2517.00,2.4520
2516.00,2.4412
2515.00,2.4291
2514.00,2.4165
2513.00,2.4036
2512.00,2.3902
2511.00,2.3759
2510.00,2.3605
2509.00,2.3442
2508.00,2.3270
2507.00,2.3090
2506.00,2.2903
2505.00,2.2711
2504.00,2.2513
2503.00,2.2307
2502.00,2.2088
2501.00,2.1857
2500.00,2.1614
2499.00,2.1360
2498.00,2.1091
2497.00,2.0808
2496.00,2.0510
2495.00,2.0200
2494.00,1.9875
2493.00,1.9535
2492.00,1.9175
2491.00,1.8796
2490.00,1.8399
2489.00,1.7986
2488.00,1.7562
2487.00,1.7126
2486.00,1.6682
2485.00,1.6233
2484.00,1.5783
2483.00,1.5339
2482.00,1.4904
2481.00,1.4485
2480.00,1.4088
2479.00,1.3715
2478.00,1.3373
2477.00,1.3066
2476.00,1.2799
2475.00,1.2578
2474.00,1.2406
2473.00,1.2289
2472.00,1.2230
2471.00,1.2231
2470.00,1.2293
2469.00,1.2417
2468.00,1.2599
2467.00,1.2837
2466.00,1.3126
2465.00,1.3461
2464.00,1.3836
2463.00,1.4243
2462.00,1.4674
2461.00,1.5125
2460.00,1.5589
2459.00,1.6061
2458.00,1.6535
2457.00,1.7007
2456.00,1.7471
2455.00,1.7926
2454.00,1.8369
2453.00,1.8801
2452.00,1.9217
2451.00,1.9615
2450.00,1.9995
2449.00,2.0360
2448.00,2.0711
2447.00,2.1044
2446.00,2.1352
2445.00,2.1637
2444.00,2.1905
2443.00,2.2165
2442.00,2.2421
2441.00,2.2673
2440.00,2.2916
2439.00,2.3144
2438.00,2.3358
2437.00,2.3562
2436.00,2.3755
2435.00,2.3940
2434.00,2.4115
2433.00,2.4280
2432.00,2.4434
2431.00,2.4581
2430.00,2.4727
2429.00,2.4878
2428.00,2.5027
2427.00,2.5162
2426.00,2.5280
2425.00,2.5385
2424.00,2.5486
2423.00,2.5583
2422.00,2.5678
2421.00,2.5772
2420.00,2.5860
2419.00,2.5936
2418.00,2.5999
2417.00,2.6056
2416.00,2.6113
2415.00,2.6172
2414.00,2.6228
2413.00,2.6280
2412.00,2.6330
2411.00,2.6380
2410.00,2.6428
2409.00,2.6467
2408.00,2.6493
2407.00,2.6512
2406.00,2.6535
2405.00,2.6562
2404.00,2.6583
2403.00,2.6585
2402.00,2.6573
2401.00,2.6555
2400.00,2.6533
2399.00,2.6501
2398.00,2.6462
2397.00,2.6429
2396.00,2.6406
2395.00,2.6385
2394.00,2.6351
2393.00,2.6303
2392.00,2.6248
2391.00,2.6194
2390.00,2.6143
2389.00,2.6095
2388.00,2.6042
2387.00,2.5975
2386.00,2.5889
2385.00,2.5790
2384.00,2.5694
2383.00,2.5609
2382.00,2.5532
2381.00,2.5447
2380.00,2.5338
2379.00,2.5203
2378.00,2.5052
2377.00,2.4898
2376.00,2.4742
2375.00,2.4579
2374.00,2.4409
2373.00,2.4205
2372.00,2.4064
2371.00,2.3790
2370.00,2.3753
2369.00,2.3287
2368.00,2.3557
2367.00,2.2202
2366.00,1.7665
2365.00,1.7882
2364.00,1.7711
2363.00,1.7628
2362.00,1.7407
2361.00,1.7181
2360.00,1.6928
2359.00,1.6703
2358.00,1.6480
2357.00,1.6265
2356.00,1.6084
2355.00,1.5907
2354.00,1.5712
2353.00,1.5514
2352.00,1.5340
2351.00,1.5270
2350.00,1.5294
2349.00,1.5376
2348.00,1.5481
2347.00,1.5498
2346.00,1.5332
2345.00,1.4965
2344.00,1.4667
2343.00,1.4591
2342.00,1.4604
2341.00,1.4511
2340.00,1.4263
2339.00,1.4101
2338.00,1.4158
2337.00,1.4389
2336.00,1.4608
2335.00,1.4649
2334.00,1.4624
2333.00,1.4607
2332.00,1.4659
2331.00,1.4735
2330.00,1.4820
2329.00,1.4897
2328.00,1.4981
2327.00,1.5033
2326.00,1.5034
2325.00,1.4994
2324.00,1.4983
2323.00,1.5151
2322.00,1.5312
2321.00,1.5931
2320.00,2.1280
2319.00,2.1068
2318.00,2.1752
2317.00,2.1985
2316.00,2.2455
2315.00,2.2762
2314.00,2.3137
2313.00,2.3458
2312.00,2.3772
2311.00,2.4067
2310.00,2.4352
2309.00,2.4629
2308.00,2.4901
2307.00,2.5169
2306.00,2.5429
2305.00,2.5676
2304.00,2.5912
2303.00,2.6144
2302.00,2.6380
2301.00,2.6617
2300.00,2.6849
2299.00,2.7066
2298.00,2.7291
2297.00,2.7492
2296.00,2.7731
2295.00,2.7832
2294.00,2.8036
2293.00,2.7723
2292.00,2.5054
2291.00,2.5304
2290.00,2.5320
2289.00,2.5410
2288.00,2.5482
2287.00,2.5628
2286.00,2.5794
2285.00,2.5975
2284.00,2.6135
2283.00,2.6276
2282.00,2.6409
2281.00,2.6550
2280.00,2.6697
2279.00,2.6832
2278.00,2.6940
2277.00,2.7029
2276.00,2.7123
2275.00,2.7235
2274.00,2.7350
2273.00,2.7438
2272.00,2.7486
2271.00,2.7498
2270.00,2.7488
2269.00,2.7458
2268.00,2.7404
2267.00,2.7325
2266.00,2.7214
2265.00,2.7065
2264.00,2.6881
2263.00,2.6687
2262.00,2.6532
2261.00,2.6484
2260.00,2.6623
2259.00,2.7040
2258.00,2.7829
2257.00,2.9072
2256.00,3.0818
2255.00,3.3028
2254.00,3.5388
2253.00,3.6970
2252.00,3.6816
2251.00,3.5472
2250.00,3.3912
2249.00,3.2513
2248.00,3.1347
2247.00,3.0408
2246.00,2.9684
2245.00,2.9151
2244.00,2.8772
2243.00,2.8498
2242.00,2.8288
2241.00,2.8121
2240.00,2.7991
2239.00,2.7893
2238.00,2.7811
2237.00,2.7726
2236.00,2.7625
2235.00,2.7506
2234.00,2.7377
2233.00,2.7252
2232.00,2.7139
2231.00,2.7035
2230.00,2.6926
2229.00,2.6796
2228.00,2.6642
2227.00,2.6468
2226.00,2.6281
2225.00,2.6084
2224.00,2.5876
2223.00,2.5658
2222.00,2.5432
2221.00,2.5202
2220.00,2.4965
2219.00,2.4716
2218.00,2.4448
2217.00,2.4158
2216.00,2.3846
2215.00,2.3518
2214.00,2.3173
2213.00,2.2810
2212.00,2.2427
2211.00,2.2023
2210.00,2.1600
2209.00,2.1160
2208.00,2.0707
2207.00,2.0252
2206.00,1.9810
2205.00,1.9386
2204.00,1.8969
2203.00,1.8530
2202.00,1.8045
2201.00,1.7510
2200.00,1.6940
2199.00,1.6359
2198.00,1.5789
2197.00,1.5246
2196.00,1.4747
2195.00,1.4303
2194.00,1.3926
2193.00,1.3630
2192.00,1.3424
2191.00,1.3313
2190.00,1.3302
2189.00,1.3390
2188.00,1.3574
2187.00,1.3846
2186.00,1.4197
2185.00,1.4615
2184.00,1.5087
2183.00,1.5600
2182.00,1.6141
2181.00,1.6701
2180.00,1.7268
2179.00,1.7836
2178.00,1.8396
2177.00,1.8943
2176.00,1.9472
2175.00,1.9980
2174.00,2.0463
2173.00,2.0924
2172.00,2.1362
2171.00,2.1776
2170.00,2.2168
2169.00,2.2539
2168.00,2.2891
2167.00,2.3223
2166.00,2.3535
2165.00,2.3828
2164.00,2.4108
2163.00,2.4374
2162.00,2.4628
2161.00,2.4873
2160.00,2.5112
2159.00,2.5346
2158.00,2.5572
2157.00,2.5783
2156.00,2.5975
2155.00,2.6145
2154.00,2.6301
2153.00,2.6458
2152.00,2.6627
2151.00,2.6798
2150.00,2.6953
2149.00,2.7087
2148.00,2.7209
2147.00,2.7327
2146.00,2.7431
2145.00,2.7518
2144.00,2.7601
2143.00,2.7693
2142.00,2.7795
2141.00,2.7893
2140.00,2.7981
2139.00,2.8056
2138.00,2.8113
2137.00,2.8152
2136.00,2.8186
2135.00,2.8234
2134.00,2.8295
2133.00,2.8350
2132.00,2.8380
2131.00,2.8383
2130.00,2.8370
2129.00,2.8357
2128.00,2.8362
2127.00,2.8393
2126.00,2.8441
2125.00,2.8480
2124.00,2.8486
2123.00,2.8463
2122.00,2.8433
2121.00,2.8413
2120.00,2.8401
2119.00,2.8386
2118.00,2.8362
2117.00,2.8333
2116.00,2.8303
2115.00,2.8269
2114.00,2.8226
2113.00,2.8171
2112.00,2.8106
2111.00,2.8035
2110.00,2.7959
2109.00,2.7883
2108.00,2.7810
2107.00,2.7735
2106.00,2.7646
2105.00,2.7541
2104.00,2.7425
2103.00,2.7306
2102.00,2.7182
2101.00,2.7046
2100.00,2.6899
2099.00,2.6749
2098.00,2.6601
2097.00,2.6454
2096.00,2.6298
2095.00,2.6128
2094.00,2.5945
2093.00,2.5753
2092.00,2.5554
2091.00,2.5343
2090.00,2.5120
2089.00,2.4885
2088.00,2.4643
2087.00,2.4391
2086.00,2.4120
2085.00,2.3825
2084.00,2.3505
2083.00,2.3168
2082.00,2.2820
2081.00,2.2460
2080.00,2.2083
2079.00,2.1683
2078.00,2.1259
2077.00,2.0818
2076.00,2.0365
2075.00,1.9898
2074.00,1.9419
2073.00,1.8930
2072.00,1.8439
2071.00,1.7950
2070.00,1.7469
2069.00,1.6998
2068.00,1.6539
2067.00,1.6091
2066.00,1.5662
2065.00,1.5264
2064.00,1.4907
2063.00,1.4596
2062.00,1.4339
2061.00,1.4146
2060.00,1.4029
2059.00,1.3994
2058.00,1.4046
2057.00,1.4185
2056.00,1.4412
2055.00,1.4719
2054.00,1.5098
2053.00,1.5537
2052.00,1.6025
2051.00,1.6549
2050.00,1.7099
2049.00,1.7665
2048.00,1.8238
2047.00,1.8809
2046.00,1.9373
2045.00,1.9922
2044.00,2.0451
2043.00,2.0953
2042.00,2.1429
2041.00,2.1882
2040.00,2.2313
2039.00,2.2724
2038.00,2.3114
2037.00,2.3483
2036.00,2.3828
2035.00,2.4147
2034.00,2.4443
2033.00,2.4723
2032.00,2.4994
2031.00,2.5254
2030.00,2.5502
2029.00,2.5740
2028.00,2.5974
2027.00,2.6210
2026.00,2.6439
2025.00,2.6651
2024.00,2.6841
2023.00,2.7020
2022.00,2.7201
2021.00,2.7381
2020.00,2.7542
2019.00,2.7677
2018.00,2.7800
2017.00,2.7927
2016.00,2.8063
2015.00,2.8199
2014.00,2.8322
2013.00,2.8428
2012.00,2.8515
2011.00,2.8587
2010.00,2.8655
2009.00,2.8738
2008.00,2.8848
2007.00,2.8980
2006.00,2.9107
2005.00,2.9208
2004.00,2.9276
2003.00,2.9314
2002.00,2.9327
2001.00,2.9327
2000.00,2.9332
1999.00,2.9357
1998.00,2.9406
1997.00,2.9466
1996.00,2.9518
1995.00,2.9542
1994.00,2.9544
1993.00,2.9549
1992.00,2.9575
1991.00,2.9611
1990.00,2.9625
1989.00,2.9607
1988.00,2.9578
1987.00,2.9560
1986.00,2.9552
1985.00,2.9529
1984.00,2.9481
1983.00,2.9429
1982.00,2.9395
1981.00,2.9383
1980.00,2.9372
1979.00,2.9330
1978.00,2.9247
1977.00,2.9139
1976.00,2.9031
1975.00,2.8937
1974.00,2.8854
1973.00,2.8775
1972.00,2.8693
1971.00,2.8604
1970.00,2.8504
1969.00,2.8396
1968.00,2.8283
1967.00,2.8170
1966.00,2.8059
1965.00,2.7945
1964.00,2.7814
1963.00,2.7657
1962.00,2.7477
1961.00,2.7288
1960.00,2.7100
1959.00,2.6909
1958.00,2.6710
1957.00,2.6506
1956.00,2.6299
1955.00,2.6083
1954.00,2.5845
1953.00,2.5577
1952.00,2.5286
1951.00,2.4986
1950.00,2.4682
1949.00,2.4365
1948.00,2.4038
1947.00,2.3705
1946.00,2.3361
1945.00,2.2983
1944.00,2.2551
1943.00,2.2071
1942.00,2.1564
1941.00,2.1035
1940.00,2.0478
1939.00,1.9890
1938.00,1.9287
1937.00,1.8684
1936.00,1.8083
1935.00,1.7485
1934.00,1.6906
1933.00,1.6362
1932.00,1.5861
1931.00,1.5415
1930.00,1.5031
1929.00,1.4725
1928.00,1.4512
1927.00,1.4405
1926.00,1.4403
1925.00,1.4485
1924.00,1.4655
1923.00,1.4940
1922.00,1.5332
1921.00,1.5776
1920.00,1.6222
1919.00,1.6692
1918.00,1.7245
1917.00,1.7875
1916.00,1.8514
1915.00,1.9111
1914.00,1.9683
1913.00,2.0262
1912.00,2.0845
1911.00,2.1408
1910.00,2.1938
1909.00,2.2438
1908.00,2.2900
1907.00,2.3319
1906.00,2.3707
1905.00,2.4077
1904.00,2.4440
1903.00,2.4798
1902.00,2.5142
1901.00,2.5465
1900.00,2.5772
1899.00,2.6071
1898.00,2.6363
1897.00,2.6630
1896.00,2.6868
1895.00,2.7104
1894.00,2.7359
1893.00,2.7616
1892.00,2.7837
1891.00,2.8013
1890.00,2.8167
1889.00,2.8312
1888.00,2.8452
1887.00,2.8585
1886.00,2.8718
1885.00,2.8854
1884.00,2.8998
1883.00,2.9153
1882.00,2.9310
1881.00,2.9454
1880.00,2.9577
1879.00,2.9692
1878.00,2.9813
1877.00,2.9920
1876.00,2.9985
1875.00,3.0025
1874.00,3.0088
1873.00,3.0191
1872.00,3.0320
1871.00,3.0454
1870.00,3.0580
1869.00,3.0670
1868.00,3.0696
1867.00,3.0666
1866.00,3.0612
1865.00,3.0559
1864.00,3.0527
1863.00,3.0527
1862.00,3.0552
1861.00,3.0589
1860.00,3.0632
1859.00,3.0676
1858.00,3.0702
1857.00,3.0683
1856.00,3.0626
1855.00,3.0564
1854.00,3.0515
1853.00,3.0484
1852.00,3.0479
1851.00,3.0494
1850.00,3.0527
1849.00,3.0564
1848.00,3.0589
1847.00,3.0585
1846.00,3.0546
1845.00,3.0491
1844.00,3.0447
1843.00,3.0402
1842.00,3.0306
1841.00,3.0140
1840.00,2.9947
1839.00,2.9798
1838.00,2.9705
1837.00,2.9616
1836.00,2.9521
1835.00,2.9457
1834.00,2.9429
1833.00,2.9381
1832.00,2.9265
1831.00,2.9108
1830.00,2.8980
1829.00,2.8872
1828.00,2.8708
1827.00,2.8440
1826.00,2.8125
1825.00,2.7848
1824.00,2.7623
1823.00,2.7402
1822.00,2.7145
1821.00,2.6855
1820.00,2.6541
1819.00,2.6210
1818.00,2.5876
1817.00,2.5541
1816.00,2.5214
1815.00,2.4889
1814.00,2.4554
1813.00,2.4203
1812.00,2.3822
1811.00,2.3406
1810.00,2.2946
1809.00,2.2439
1808.00,2.1906
1807.00,2.1370
1806.00,2.0835
1805.00,2.0289
1804.00,1.9732
1803.00,1.9171
1802.00,1.8623
1801.00,1.8111
1800.00,1.7634
1799.00,1.7202
1798.00,1.6850
1797.00,1.6622
1796.00,1.6525
1795.00,1.6513
1794.00,1.6557
1793.00,1.6692
1792.00,1.6959
1791.00,1.7341
1790.00,1.7786
1789.00,1.8258
1788.00,1.8750
1787.00,1.9275
1786.00,1.9853
1785.00,2.0507
1784.00,2.1231
1783.00,2.1934
1782.00,2.2552
1781.00,2.3115
1780.00,2.3660
1779.00,2.4186
1778.00,2.4691
1777.00,2.5219
1776.00,2.5782
1775.00,2.6290
1774.00,2.6689
1773.00,2.7060
1772.00,2.7455
1771.00,2.7783
1770.00,2.7948
1769.00,2.8004
1768.00,2.8132
1767.00,2.8420
1766.00,2.8771
1765.00,2.9043
1764.00,2.9203
1763.00,2.9322
1762.00,2.9500
1761.00,2.9768
1760.00,3.0058
1759.00,3.0274
1758.00,3.0392
1757.00,3.0527
1756.00,3.0760
1755.00,3.1016
1754.00,3.1183
1753.00,3.1281
1752.00,3.1422
1751.00,3.1656
1750.00,3.1895
1749.00,3.2036
1748.00,3.2099
1747.00,3.2116
1746.00,3.2108
1745.00,3.2105
1744.00,3.2139
1743.00,3.2220
1742.00,3.2301
1741.00,3.2346
1740.00,3.2431
1739.00,3.2634
1738.00,3.2850
1737.00,3.2884
1736.00,3.2678
1735.00,3.2423
1734.00,3.2368
1733.00,3.2505
1732.00,3.2630
1731.00,3.2622
1730.00,3.2517
1729.00,3.2395
1728.00,3.2283
1727.00,3.2156
1726.00,3.2045
1725.00,3.1994
1724.00,3.2019
1723.00,3.2150
1722.00,3.2391
1721.00,3.2713
1720.00,3.3080
1719.00,3.3519
1718.00,3.4068
1717.00,3.4677
1716.00,3.5293
1715.00,3.5930
1714.00,3.6631
1713.00,3.7402
1712.00,3.8191
1711.00,3.8892
1710.00,3.9344
1709.00,3.9422
1708.00,3.9248
1707.00,3.9076
1706.00,3.8968
1705.00,3.8777
1704.00,3.8354
1703.00,3.7663
1702.00,3.6742
1701.00,3.5853
1700.00,3.5327
1699.00,3.5068
1698.00,3.4700
1697.00,3.4070
1696.00,3.3464
1695.00,3.3221
1694.00,3.3249
1693.00,3.3225
1692.00,3.3031
1691.00,3.2785
1690.00,3.2620
1689.00,3.2585
1688.00,3.2611
1687.00,3.2594
1686.00,3.2502
1685.00,3.2385
1684.00,3.2267
1683.00,3.2075
1682.00,3.1759
1681.00,3.1378
1680.00,3.1066
1679.00,3.0850
1678.00,3.0618
1677.00,3.0288
1676.00,2.9959
1675.00,2.9767
1674.00,2.9689
1673.00,2.9576
1672.00,2.9340
1671.00,2.9008
1670.00,2.8598
1669.00,2.8128
1668.00,2.7658
1667.00,2.7227
1666.00,2.6808
1665.00,2.6336
1664.00,2.5801
1663.00,2.5231
1662.00,2.4638
1661.00,2.4040
1660.00,2.3449
1659.00,2.2914
1658.00,2.2516
1657.00,2.2273
1656.00,2.2063
1655.00,2.1754
1654.00,2.1344
1653.00,2.0940
1652.00,2.0777
1651.00,2.0847
1650.00,2.0930
1649.00,2.0970
1648.00,2.1015
1647.00,2.1086
1646.00,2.1211
1645.00,2.1427
1644.00,2.1719
1643.00,2.2040
1642.00,2.2398
1641.00,2.2879
1640.00,2.3498
1639.00,2.4163
1638.00,2.4743
1637.00,2.5187
1636.00,2.5512
1635.00,2.5793
1634.00,2.6086
1633.00,2.6347
1632.00,2.6568
1631.00,2.6802
1630.00,2.7087
1629.00,2.7421
1628.00,2.7785
1627.00,2.8140
1626.00,2.8445
1625.00,2.8680
1624.00,2.8860
1623.00,2.9044
1622.00,2.9309
1621.00,2.9675
1620.00,3.0048
1619.00,3.0310
1618.00,3.0437
1617.00,3.0514
1616.00,3.0622
1615.00,3.0747
1614.00,3.0840
1613.00,3.0916
1612.00,3.1045
1611.00,3.1234
1610.00,3.1418
1609.00,3.1561
1608.00,3.1688
1607.00,3.1813
1606.00,3.1930
1605.00,3.2047
1604.00,3.2160
1603.00,3.2254
1602.00,3.2353
1601.00,3.2491
1600.00,3.2662
1599.00,3.2802
1598.00,3.2870
1597.00,3.2885
1596.00,3.2887
1595.00,3.2916
1594.00,3.3011
1593.00,3.3198
1592.00,3.3436
1591.00,3.3616
1590.00,3.3645
1589.00,3.3548
1588.00,3.3408
1587.00,3.3298
1586.00,3.3260
1585.00,3.3315
1584.00,3.3438
1583.00,3.3532
1582.00,3.3536
1581.00,3.3494
1580.00,3.3471
1579.00,3.3477
1578.00,3.3507
1577.00,3.3547
1576.00,3.3562
1575.00,3.3525
1574.00,3.3438
1573.00,3.3321
1572.00,3.3195
1571.00,3.3105
1570.00,3.3076
1569.00,3.3106
1568.00,3.3142
1567.00,3.3093
1566.00,3.2942
1565.00,3.2818
1564.00,3.2835
1563.00,3.2952
1562.00,3.3054
1561.00,3.3105
1560.00,3.3206
1559.00,3.3220
1558.00,3.3032
1557.00,3.2760
1556.00,3.2374
1555.00,3.1893
1554.00,3.1465
1553.00,3.1142
1552.00,3.0814
1551.00,3.0451
1550.00,3.0166
1549.00,3.0034
1548.00,2.9981
1547.00,2.9889
1546.00,2.9776
1545.00,2.9756
1544.00,2.9838
1543.00,2.9914
1542.00,2.9869
1541.00,2.9572
1540.00,2.8943
1539.00,2.8216
1538.00,2.7686
1537.00,2.7322
1536.00,2.6982
1535.00,2.6614
1534.00,2.6260
1533.00,2.5954
1532.00,2.5681
1531.00,2.5446
1530.00,2.5275
1529.00,2.5175
1528.00,2.5140
1527.00,2.5175
1526.00,2.5316
1525.00,2.5564
1524.00,2.5799
1523.00,2.5907
1522.00,2.5914
1521.00,2.5956
1520.00,2.6103
1519.00,2.6218
1518.00,2.6289
1517.00,2.6268
1516.00,2.6454
1515.00,2.6107
1514.00,2.6147
1513.00,2.6513
1512.00,2.6765
1511.00,2.7102
1510.00,2.7374
1509.00,2.7678
1508.00,2.7934
1507.00,2.8282
1506.00,2.8498
1505.00,2.9430
1504.00,2.9958
1503.00,2.9984
1502.00,3.0213
1501.00,3.0391
1500.00,3.0700
1499.00,3.0975
1498.00,3.1225
1497.00,3.1421
1496.00,3.1619
1495.00,3.1847
1494.00,3.2091
1493.00,3.2351
1492.00,3.2645
1491.00,3.2969
1490.00,3.3252
1489.00,3.3421
1488.00,3.3484
1487.00,3.3525
1486.00,3.3592
1485.00,3.3714
1484.00,3.3884
1483.00,3.4069
1482.00,3.4251
1481.00,3.4386
1480.00,3.4409
1479.00,3.4315
1478.00,3.4222
1477.00,3.4265
1476.00,3.4478
1475.00,3.4755
1474.00,3.4965
1473.00,3.5061
1472.00,3.5076
1471.00,3.5108
1470.00,3.5254
1469.00,3.5520
1468.00,3.5833
1467.00,3.6092
1466.00,3.6275
1465.00,3.6491
1464.00,3.6825
1463.00,3.7251
1462.00,3.7672
1461.00,3.7998
1460.00,3.8126
1459.00,3.7994
1458.00,3.7724
1457.00,3.7645
1456.00,3.8084
1455.00,3.8882
1454.00,3.9474
1453.00,3.9512
1452.00,3.9073
1451.00,3.8484
1450.00,3.8067
1449.00,3.7952
1448.00,3.8101
1447.00,3.8302
1446.00,3.8280
1445.00,3.7991
1444.00,3.7598
1443.00,3.7290
1442.00,3.7230
1441.00,3.7524
1440.00,3.8114
1439.00,3.8783
1438.00,3.9298
1437.00,3.9568
1436.00,3.9653
1435.00,3.9517
1434.00,3.9099
1433.00,3.8578
1432.00,3.8204
1431.00,3.8049
1430.00,3.8018
1429.00,3.8024
1428.00,3.8144
1427.00,3.8444
1426.00,3.8786
1425.00,3.8898
1424.00,3.8649
1423.00,3.8245
1422.00,3.7928
1421.00,3.7797
1420.00,3.7912
1419.00,3.8273
1418.00,3.8755
1417.00,3.9160
1416.00,3.9301
1415.00,3.9179
1414.00,3.9016
1413.00,3.8890
1412.00,3.8683
1411.00,3.8335
1410.00,3.7951
1409.00,3.7635
1408.00,3.7379
1407.00,3.7140
1406.00,3.6867
1405.00,3.6532
1404.00,3.6180
1403.00,3.5917
1402.00,3.5785
1401.00,3.5704
1400.00,3.5546
1399.00,3.5265
1398.00,3.4941
1397.00,3.4684
1396.00,3.4536
1395.00,3.4451
1394.00,3.4323
1393.00,3.4095
1392.00,3.3821
1391.00,3.3584
1390.00,3.3413
1389.00,3.3269
1388.00,3.3123
1387.00,3.2995
1386.00,3.2916
1385.00,3.2895
1384.00,3.2962
1383.00,3.3199
1382.00,3.3667
1381.00,3.4285
1380.00,3.4890
1379.00,3.5418
1378.00,3.5971
1377.00,3.6644
1376.00,3.7347
1375.00,3.7776
1374.00,3.7678
1373.00,3.7160
1372.00,3.6512
1371.00,3.5857
1370.00,3.5144
1369.00,3.4317
1368.00,3.3429
1367.00,3.2603
1366.00,3.1925
1365.00,3.1382
1364.00,3.0898
1363.00,3.0397
1362.00,2.9857
1361.00,2.9317
1360.00,2.8828
1359.00,2.8416
1358.00,2.8093
1357.00,2.7862
1356.00,2.7729
1355.00,2.7714
1354.00,2.7831
1353.00,2.8068
1352.00,2.8381
1351.00,2.8712
1350.00,2.9013
1349.00,2.9268
1348.00,2.9472
1347.00,2.9631
1346.00,2.9760
1345.00,2.9892
1344.00,3.0068
1343.00,3.0312
1342.00,3.0615
1341.00,3.0923
1340.00,3.1156
1339.00,3.1267
1338.00,3.1282
1337.00,3.1275
1336.00,3.1299
1335.00,3.1366
1334.00,3.1475
1333.00,3.1646
1332.00,3.1910
1331.00,3.2266
1330.00,3.2647
1329.00,3.2967
1328.00,3.3192
1327.00,3.3367
1326.00,3.3584
1325.00,3.3898
1324.00,3.4278
1323.00,3.4633
1322.00,3.4895
1321.00,3.5083
1320.00,3.5287
1319.00,3.5568
1318.00,3.5862
1317.00,3.6026
1316.00,3.5981
1315.00,3.5829
1314.00,3.5766
1313.00,3.5870
1312.00,3.6048
1311.00,3.6145
1310.00,3.6084
1309.00,3.5920
1308.00,3.5768
1307.00,3.5719
1306.00,3.5772
1305.00,3.5826
1304.00,3.5818
1303.00,3.5832
1302.00,3.5964
1301.00,3.6188
1300.00,3.6341
1299.00,3.6278
1298.00,3.6056
1297.00,3.5853
1296.00,3.5789
1295.00,3.5872
1294.00,3.6035
1293.00,3.6197
1292.00,3.6336
1291.00,3.6525
1290.00,3.6830
1289.00,3.7180
1288.00,3.7364
1287.00,3.7266
1286.00,3.7004
1285.00,3.6753
1284.00,3.6591
1283.00,3.6553
1282.00,3.6666
1281.00,3.6892
1280.00,3.7078
1279.00,3.7050
1278.00,3.6798
1277.00,3.6453
1276.00,3.6138
1275.00,3.5946
1274.00,3.5969
1273.00,3.6197
1272.00,3.6417
1271.00,3.6384
1270.00,3.6138
1269.00,3.5933
1268.00,3.5859
1267.00,3.5750
1266.00,3.5412
1265.00,3.4916
1264.00,3.4493
1263.00,3.4250
1262.00,3.4129
1261.00,3.4015
1260.00,3.3840
1259.00,3.3626
1258.00,3.3434
1257.00,3.3264
1256.00,3.3056
1255.00,3.2752
1254.00,3.2369
1253.00,3.1980
1252.00,3.1638
1251.00,3.1338
1250.00,3.1028
1249.00,3.0650
1248.00,3.0185
1247.00,2.9655
1246.00,2.9097
1245.00,2.8541
1244.00,2.7998
1243.00,2.7472
1242.00,2.6967
1241.00,2.6492
1240.00,2.6052
1239.00,2.5659
1238.00,2.5330
1237.00,2.5087
1236.00,2.4954
1235.00,2.4950
1234.00,2.5092
1233.00,2.5386
1232.00,2.5826
1231.00,2.6398
1230.00,2.7077
1229.00,2.7840
1228.00,2.8659
1227.00,2.9480
1226.00,3.0193
1225.00,3.0639
1224.00,3.0712
1223.00,3.0457
1222.00,3.0026
1221.00,2.9573
1220.00,2.9200
1219.00,2.8971
1218.00,2.8917
1217.00,2.9034
1216.00,2.9284
1215.00,2.9608
1214.00,2.9949
1213.00,3.0283
1212.00,3.0623
1211.00,3.1012
1210.00,3.1487
1209.00,3.2048
1208.00,3.2632
1207.00,3.3142
1206.00,3.3526
1205.00,3.3811
1204.00,3.4057
1203.00,3.4308
1202.00,3.4532
1201.00,3.4656
1200.00,3.4710
1199.00,3.4827
1198.00,3.5122
1197.00,3.5603
1196.00,3.6158
1195.00,3.6612
1194.00,3.6786
1193.00,3.6635
1192.00,3.6335
1191.00,3.6057
1190.00,3.5809
1189.00,3.5583
1188.00,3.5486
1187.00,3.5686
1186.00,3.6250
1185.00,3.7004
1184.00,3.7527
1183.00,3.7544
1182.00,3.7245
1181.00,3.6946
1180.00,3.6778
1179.00,3.6762
1178.00,3.6956
1177.00,3.7466
1176.00,3.8273
1175.00,3.9103
1174.00,3.9480
1173.00,3.9182
1172.00,3.8600
1171.00,3.8319
1170.00,3.8686
1169.00,3.9795
1168.00,4.1392
1167.00,4.2846
1166.00,4.3115
1165.00,4.1672
1164.00,4.0263
1163.00,4.0086
1162.00,4.1149
1161.00,4.1905
1160.00,4.1140
1159.00,4.0310
1158.00,3.9700
1157.00,3.9247
1156.00,3.9196
1155.00,3.9519
1154.00,4.0080
1153.00,4.0575
1152.00,4.0357
1151.00,3.9757
1150.00,3.9208
1149.00,3.8367
1148.00,3.7529
1147.00,3.7223
1146.00,3.7571
1145.00,3.8386
1144.00,3.8994
1143.00,3.8806
1142.00,3.8467
1141.00,3.8654
1140.00,3.9108
1139.00,3.9207
1138.00,3.8853
1137.00,3.8299
1136.00,3.7842
1135.00,3.7642
1134.00,3.7668
1133.00,3.7760
1132.00,3.7697
1131.00,3.7367
1130.00,3.6863
1129.00,3.6436
1128.00,3.6206
1127.00,3.6136
1126.00,3.6207
1125.00,3.6342
1124.00,3.6366
1123.00,3.6148
1122.00,3.5773
1121.00,3.5496
1120.00,3.5468
1119.00,3.5569
1118.00,3.5511
1117.00,3.5156
1116.00,3.4679
1115.00,3.4293
1114.00,3.4022
1113.00,3.3781
1112.00,3.3507
1111.00,3.3188
1110.00,3.2801
1109.00,3.2300
1108.00,3.1705
1107.00,3.1106
1106.00,3.0577
1105.00,3.0123
1104.00,2.9716
1103.00,2.9359
1102.00,2.9099
1101.00,2.8978
1100.00,2.9003
1099.00,2.9153
1098.00,2.9400
1097.00,2.9738
1096.00,3.0181
1095.00,3.0714
1094.00,3.1262
1093.00,3.1693
1092.00,3.1941
1091.00,3.2105
1090.00,3.2352
1089.00,3.2755
1088.00,3.3275
1087.00,3.3838
1086.00,3.4405
1085.00,3.4953
1084.00,3.5374
1083.00,3.5572
1082.00,3.5698
1081.00,3.6033
1080.00,3.6699
1079.00,3.7568
1078.00,3.8242
1077.00,3.8414
1076.00,3.8265
1075.00,3.8105
1074.00,3.8111
1073.00,3.8251
1072.00,3.8335
1071.00,3.8292
1070.00,3.8244
1069.00,3.8326
1068.00,3.8546
1067.00,3.8784
1066.00,3.8792
1065.00,3.8340
1064.00,3.7565
1063.00,3.6875
1062.00,3.6515
1061.00,3.6478
1060.00,3.6736
1059.00,3.7361
1058.00,3.8434
1057.00,3.9709
1056.00,3.9932
1055.00,3.8681
1054.00,3.7364
1053.00,3.6969
1052.00,3.7721
1051.00,3.9957
1050.00,4.3507
1049.00,4.3762
1048.00,4.2779
1047.00,4.3812
1046.00,4.5641
1045.00,4.4402
1044.00,4.1944
1043.00,4.0659
1042.00,4.0441
1041.00,4.1255
1040.00,4.3235
1039.00,4.3377
1038.00,4.2115
1037.00,4.1838
1036.00,4.3789
1035.00,5.0089
1034.00,4.5055
1033.00,4.2188
1032.00,4.1437
1031.00,4.1240
1030.00,4.1703
1029.00,4.2043
1028.00,4.1361
1027.00,3.9877
1026.00,3.9149
1025.00,3.9670
1024.00,4.1342
1023.00,4.4327
1022.00,5.0003
1021.00,4.8015
1020.00,4.4918
1019.00,4.4747
1018.00,4.7787
1017.00,5.0466
1016.00,4.5942
1015.00,4.5358
1014.00,4.8245
1013.00,4.9811
1012.00,4.4077
1011.00,4.1306
1010.00,4.0322
1009.00,4.0295
1008.00,4.0902
1007.00,4.1470
1006.00,4.1788
1005.00,4.1401
1004.00,4.0860
1003.00,4.1168
1002.00,4.2691
1001.00,4.5303
1000.00,4.7059
999.00,4.4053
998.00,4.2049
997.00,4.1480
996.00,4.2906
995.00,4.7504
994.00,4.4698
993.00,4.1861
992.00,4.1467
991.00,4.2494
990.00,4.5067
989.00,4.5365
988.00,4.2983
987.00,4.1888
986.00,4.2059
985.00,4.3611
984.00,4.6550
983.00,4.6390
982.00,4.5964
981.00,4.8394
980.00,4.8803
979.00,4.4836
978.00,4.1698
977.00,3.9718
976.00,3.8628
975.00,3.8186
974.00,3.8273
973.00,3.8829
972.00,4.0024
971.00,4.1701
970.00,4.1178
969.00,3.9057
968.00,3.7619
967.00,3.6838
966.00,3.6479
965.00,3.6259
964.00,3.5965
963.00,3.5655
962.00,3.5488
961.00,3.5529
960.00,3.5718
959.00,3.6009
958.00,3.6433
957.00,3.7002
956.00,3.7612
955.00,3.8175
954.00,3.8856
953.00,3.9738
952.00,4.0355
951.00,4.0149
950.00,3.9430
949.00,3.8852
948.00,3.8689
947.00,3.8954
946.00,3.9609
945.00,4.0565
944.00,4.1551
943.00,4.2247
942.00,4.1857
941.00,4.0648
940.00,3.9938
939.00,4.0052
938.00,4.0819
937.00,4.2330
936.00,4.3976
935.00,4.3428
934.00,4.1927
933.00,4.1039
932.00,4.1023
931.00,4.2076
930.00,4.3584
929.00,4.5749
928.00,4.8257
927.00,4.8575
926.00,4.7959
925.00,4.4613
924.00,4.2566
923.00,4.2609
922.00,4.3548
921.00,4.3880
920.00,4.3340
919.00,4.4367
918.00,4.9385
917.00,4.7832
916.00,4.5486
915.00,4.5657
914.00,4.7235
913.00,5.1940
912.00,4.4597
911.00,4.1016
910.00,3.9848
909.00,4.0064
908.00,4.1860
907.00,4.4330
906.00,4.4074
905.00,4.2628
904.00,4.2280
903.00,4.2685
902.00,4.3588
901.00,4.5052
900.00,4.6240
899.00,4.4713
898.00,4.2213
897.00,4.0562
896.00,4.0280
895.00,4.1871
894.00,4.2921
893.00,4.1013
892.00,4.1281
891.00,4.4638
890.00,4.4845
889.00,4.2672
888.00,4.2718
887.00,4.3780
886.00,4.5870
885.00,4.6543
884.00,4.2809
883.00,4.0865
882.00,4.0743
881.00,4.2006
880.00,4.3418
879.00,4.3138
878.00,4.4407
877.00,4.8059
876.00,4.6736
875.00,4.4372
874.00,4.2267
873.00,4.0823
872.00,4.0620
871.00,4.1143
870.00,4.1401
869.00,4.0662
868.00,3.9417
867.00,3.8370
866.00,3.8030
865.00,3.8562
864.00,3.9823
863.00,4.1459
862.00,4.1922
861.00,4.0954
860.00,4.0493
859.00,4.1936
858.00,4.4106
857.00,4.2195
856.00,4.0839
855.00,4.0914
854.00,4.1339
853.00,4.1278
852.00,4.0927
851.00,4.1401
850.00,4.3458
849.00,4.4476
848.00,4.2368
847.00,4.1673
846.00,4.1060
845.00,3.9880
844.00,3.9199
843.00,3.9041
842.00,3.9351
841.00,4.0066
840.00,4.0644
839.00,4.0499
838.00,4.0261
837.00,4.0331
836.00,4.0182
835.00,3.9432
834.00,3.8561
833.00,3.8011
832.00,3.7666
831.00,3.7204
830.00,3.6656
829.00,3.6384
828.00,3.6633
827.00,3.7337
826.00,3.8365
825.00,3.9855
824.00,4.2858
823.00,4.4121
822.00,4.0332
821.00,3.8297
820.00,3.7308
819.00,3.7060
818.00,3.7539
817.00,3.8878
816.00,4.0574
815.00,4.3013
814.00,4.8574
813.00,4.3260
812.00,4.0694
811.00,4.0616
810.00,4.1446
809.00,4.2060
808.00,4.0969
807.00,4.0289
806.00,4.0632
805.00,4.1489
804.00,4.1527
803.00,4.0779
802.00,4.0421
801.00,4.1073
800.00,4.2696
799.00,4.2878
798.00,4.1255
797.00,4.0096
796.00,3.9365
795.00,3.8939
794.00,3.8604
793.00,3.8204
792.00,3.8178
791.00,3.8687
790.00,3.9374
789.00,3.9649
788.00,3.9028
787.00,3.7957
786.00,3.7254
785.00,3.7144
784.00,3.7295
783.00,3.7269
782.00,3.7148
781.00,3.7414
780.00,3.8284
779.00,3.9546
778.00,4.0740
777.00,4.2072
776.00,4.4048
775.00,4.3462
774.00,4.1316
773.00,4.0445
772.00,4.0412
771.00,4.0834
770.00,4.1467
769.00,4.1943
768.00,4.1882
767.00,4.1705
766.00,4.2294
765.00,4.4891
764.00,4.8289
763.00,4.3943
762.00,4.4272
761.00,4.6055
760.00,4.0826
759.00,3.8834
758.00,3.8757
757.00,4.0025
756.00,4.3041
755.00,4.5171
754.00,4.5315
753.00,4.6695
752.00,4.8052
751.00,4.7042
750.00,4.3981
749.00,4.1830
748.00,4.0833
747.00,4.0389
746.00,4.0125
745.00,4.0158
744.00,4.0409
743.00,4.0478
742.00,4.0538
741.00,4.0146
740.00,3.9666
739.00,4.0110
738.00,4.1413
737.00,4.2957
736.00,4.3138
735.00,4.1157
734.00,3.9465
733.00,3.9033
732.00,3.9772
731.00,4.1703
730.00,4.5380
729.00,4.6574
728.00,4.3735
727.00,4.1202
726.00,3.9075
725.00,3.8230
724.00,3.8786
723.00,3.9448
722.00,3.8494
721.00,3.7584
720.00,3.7533
719.00,3.7969
718.00,3.8089
717.00,3.7911
716.00,3.8136
715.00,4.0011
714.00,4.4678
713.00,4.9812
712.00,4.6983
711.00,4.0046
710.00,3.7526
709.00,3.6779
708.00,3.6862
707.00,3.7774
706.00,3.9497
705.00,4.1874
704.00,4.2090
703.00,4.0841
702.00,4.0332
701.00,3.9924
700.00,3.8874
