Created as New Dataset,Sample 023 By Administrator Date Wednesday, November 24 2021
cm-1,A
7502.00,0.8136
7501.00,0.8186
7500.00,0.8227
7499.00,0.8259
7498.00,0.8280
7497.00,0.8295
7496.00,0.8309
7495.00,0.8323
7494.00,0.8334
7493.00,0.8343
7492.00,0.8354
7491.00,0.8368
7490.00,0.8388
7489.00,0.8406
7488.00,0.8415
7487.00,0.8409
7486.00,0.8389
7485.00,0.8360
7484.00,0.8323
7483.00,0.8279
7482.00,0.8231
7481.00,0.8183
7480.00,0.8137
7479.00,0.8096
7478.00,0.8058
7477.00,0.8021
7476.00,0.7981
7475.00,0.7938
7474.00,0.7894
7473.00,0.7850
7472.00,0.7805
7471.00,0.7756
7470.00,0.7697
7469.00,0.7627
7468.00,0.7548
7467.00,0.7466
7466.00,0.7384
7465.00,0.7304
7464.00,0.7222
7463.00,0.7135
7462.00,0.7043
7461.00,0.6947
7460.00,0.6848
7459.00,0.6748
7458.00,0.6649
7457.00,0.6556
7456.00,0.6475
7455.00,0.6405
7454.00,0.6344
7453.00,0.6285
7452.00,0.6224
7451.00,0.6160
7450.00,0.6095
7449.00,0.6032
7448.00,0.5967
7447.00,0.5902
7446.00,0.5837
7445.00,0.5775
7444.00,0.5719
7443.00,0.5666
7442.00,0.5615
7441.00,0.5565
7440.00,0.5518
7439.00,0.5476
7438.00,0.5438
7437.00,0.5403
7436.00,0.5368
7435.00,0.5334
7434.00,0.5302
7433.00,0.5276
7432.00,0.5253
7431.00,0.5232
7430.00,0.5214
7429.00,0.5203
7428.00,0.5200
7427.00,0.5204
7426.00,0.5211
7425.00,0.5216
7424.00,0.5222
7423.00,0.5231
7422.00,0.5246
7421.00,0.5267
7420.00,0.5291
7419.00,0.5317
7418.00,0.5347
7417.00,0.5383
7416.00,0.5425
7415.00,0.5475
7414.00,0.5531
7413.00,0.5591
7412.00,0.5651
7411.00,0.5711
7410.00,0.5775
7409.00,0.5845
7408.00,0.5921
7407.00,0.5998
7406.00,0.6077
7405.00,0.6162
7404.00,0.6253
7403.00,0.6348
7402.00,0.6445
7401.00,0.6540
7400.00,0.6633
7399.00,0.6725
7398.00,0.6817
7397.00,0.6910
7396.00,0.7005
7395.00,0.7102
7394.00,0.7201
7393.00,0.7300
7392.00,0.7401
7391.00,0.7501
7390.00,0.7603
7389.00,0.7705
7388.00,0.7806
7387.00,0.7905
7386.00,0.8003
7385.00,0.8099
7384.00,0.8189
7383.00,0.8275
7382.00,0.8361
7381.00,0.8451
7380.00,0.8542
7379.00,0.8630
7378.00,0.8712
7377.00,0.8791
7376.00,0.8866
7375.00,0.8937
7374.00,0.9006
7373.00,0.9073
7372.00,0.9140
7371.00,0.9204
7370.00,0.9265
7369.00,0.9328
7368.00,0.9394
7367.00,0.9457
7366.00,0.9514
7365.00,0.9567
7364.00,0.9618
7363.00,0.9665
7362.00,0.9706
7361.00,0.9742
7360.00,0.9780
7359.00,0.9819
7358.00,0.9855
7357.00,0.9884
7356.00,0.9908
7355.00,0.9932
7354.00,0.9952
7353.00,0.9965
7352.00,0.9967
7351.00,0.9967
7350.00,0.9971
7349.00,0.9981
7348.00,0.9990
7347.00,0.9990
7346.00,0.9979
7345.00,0.9962
7344.00,0.9943
7343.00,0.9922
7342.00,0.9898
7341.00,0.9870
7340.00,0.9839
7339.00,0.9804
7338.00,0.9767
7337.00,0.9725
7336.00,0.9677
7335.00,0.9623
7334.00,0.9564
7333.00,0.9503
7332.00,0.9445
7331.00,0.9388
7330.00,0.9331
7329.00,0.9271
7328.00,0.9208
7327.00,0.9144
7326.00,0.9078
7325.00,0.9010
7324.00,0.8934
7323.00,0.8847
7322.00,0.8757
7321.00,0.8669
7320.00,0.8584
7319.00,0.8500
7318.00,0.8411
7317.00,0.8321
7316.00,0.8231
7315.00,0.8144
7314.00,0.8057
7313.00,0.7967
7312.00,0.7873
7311.00,0.7779
7310.00,0.7690
7309.00,0.7606
7308.00,0.7522
7307.00,0.7436
7306.00,0.7350
7305.00,0.7266
7304.00,0.7188
7303.00,0.7113
7302.00,0.7039
7301.00,0.6966
7300.00,0.6897
7299.00,0.6831
7298.00,0.6772
7297.00,0.6718
7296.00,0.6668
7295.00,0.6622
7294.00,0.6580
7293.00,0.6544
7292.00,0.6514
7291.00,0.6488
7290.00,0.6465
7289.00,0.6446
7288.00,0.6433
7287.00,0.6427
7286.00,0.6427
7285.00,0.6433
7284.00,0.6441
7283.00,0.6454
7282.00,0.6475
7281.00,0.6503
7280.00,0.6535
7279.00,0.6569
7278.00,0.6608
7277.00,0.6653
7276.00,0.6703
7275.00,0.6757
7274.00,0.6815
7273.00,0.6878
7272.00,0.6948
7271.00,0.7021
7270.00,0.7096
7269.00,0.7172
7268.00,0.7248
7267.00,0.7324
7266.00,0.7400
7265.00,0.7478
7264.00,0.7559
7263.00,0.7642
7262.00,0.7729
7261.00,0.7821
7260.00,0.7915
7259.00,0.8010
7258.00,0.8104
7257.00,0.8199
7256.00,0.8293
7255.00,0.8387
7254.00,0.8479
7253.00,0.8568
7252.00,0.8654
7251.00,0.8736
7250.00,0.8817
7249.00,0.8900
7248.00,0.8987
7247.00,0.9078
7246.00,0.9171
7245.00,0.9263
7244.00,0.9353
7243.00,0.9439
7242.00,0.9519
7241.00,0.9592
7240.00,0.9659
7239.00,0.9722
7238.00,0.9787
7237.00,0.9855
7236.00,0.9922
7235.00,0.9985
7234.00,1.0042
7233.00,1.0100
7232.00,1.0160
7231.00,1.0214
7230.00,1.0259
7229.00,1.0298
7228.00,1.0335
7227.00,1.0373
7226.00,1.0405
7225.00,1.0428
7224.00,1.0445
7223.00,1.0462
7222.00,1.0485
7221.00,1.0509
7220.00,1.0528
7219.00,1.0540
7218.00,1.0550
7217.00,1.0561
7216.00,1.0571
7215.00,1.0577
7214.00,1.0574
7213.00,1.0566
7212.00,1.0557
7211.00,1.0546
7210.00,1.0526
7209.00,1.0498
7208.00,1.0465
7207.00,1.0432
7206.00,1.0400
7205.00,1.0365
7204.00,1.0325
7203.00,1.0278
7202.00,1.0230
7201.00,1.0182
7200.00,1.0133
7199.00,1.0077
7198.00,1.0016
7197.00,0.9956
7196.00,0.9901
7195.00,0.9847
7194.00,0.9789
7193.00,0.9723
7192.00,0.9652
7191.00,0.9578
7190.00,0.9502
7189.00,0.9420
7188.00,0.9331
7187.00,0.9240
7186.00,0.9152
7185.00,0.9065
7184.00,0.8977
7183.00,0.8886
7182.00,0.8793
7181.00,0.8704
7180.00,0.8621
7179.00,0.8540
7178.00,0.8461
7177.00,0.8380
7176.00,0.8298
7175.00,0.8215
7174.00,0.8129
7173.00,0.8040
7172.00,0.7947
7171.00,0.7850
7170.00,0.7753
7169.00,0.7662
7168.00,0.7578
7167.00,0.7500
7166.00,0.7426
7165.00,0.7355
7164.00,0.7288
7163.00,0.7225
7162.00,0.7166
7161.00,0.7109
7160.00,0.7054
7159.00,0.7003
7158.00,0.6959
7157.00,0.6922
7156.00,0.6890
7155.00,0.6862
7154.00,0.6837
7153.00,0.6815
7152.00,0.6796
7151.00,0.6782
7150.00,0.6774
7149.00,0.6771
7148.00,0.6774
7147.00,0.6782
7146.00,0.6796
7145.00,0.6816
7144.00,0.6840
7143.00,0.6869
7142.00,0.6903
7141.00,0.6941
7140.00,0.6984
7139.00,0.7034
7138.00,0.7090
7137.00,0.7153
7136.00,0.7220
7135.00,0.7289
7134.00,0.7361
7133.00,0.7434
7132.00,0.7506
7131.00,0.7578
7130.00,0.7652
7129.00,0.7733
7128.00,0.7820
7127.00,0.7910
7126.00,0.8001
7125.00,0.8093
7124.00,0.8187
7123.00,0.8281
7122.00,0.8376
7121.00,0.8470
7120.00,0.8565
7119.00,0.8661
7118.00,0.8759
7117.00,0.8856
7116.00,0.8950
7115.00,0.9040
7114.00,0.9130
7113.00,0.9222
7112.00,0.9313
7111.00,0.9401
7110.00,0.9487
7109.00,0.9574
7108.00,0.9664
7107.00,0.9752
7106.00,0.9835
7105.00,0.9914
7104.00,0.9995
7103.00,1.0076
7102.00,1.0156
7101.00,1.0233
7100.00,1.0305
7099.00,1.0376
7098.00,1.0447
7097.00,1.0516
7096.00,1.0580
7095.00,1.0640
7094.00,1.0697
7093.00,1.0751
7092.00,1.0802
7091.00,1.0850
7090.00,1.0896
7089.00,1.0941
7088.00,1.0983
7087.00,1.1025
7086.00,1.1065
7085.00,1.1100
7084.00,1.1126
7083.00,1.1144
7082.00,1.1159
7081.00,1.1176
7080.00,1.1191
7079.00,1.1199
7078.00,1.1204
7077.00,1.1211
7076.00,1.1222
7075.00,1.1229
7074.00,1.1228
7073.00,1.1216
7072.00,1.1198
7071.00,1.1180
7070.00,1.1161
7069.00,1.1140
7068.00,1.1112
7067.00,1.1077
7066.00,1.1040
7065.00,1.1002
7064.00,1.0963
7063.00,1.0919
7062.00,1.0873
7061.00,1.0828
7060.00,1.0784
7059.00,1.0735
7058.00,1.0678
7057.00,1.0614
7056.00,1.0543
7055.00,1.0467
7054.00,1.0388
7053.00,1.0307
7052.00,1.0225
7051.00,1.0145
7050.00,1.0066
7049.00,0.9989
7048.00,0.9909
7047.00,0.9822
7046.00,0.9729
7045.00,0.9633
7044.00,0.9539
7043.00,0.9445
7042.00,0.9350
7041.00,0.9251
7040.00,0.9151
7039.00,0.9053
7038.00,0.8958
7037.00,0.8865
7036.00,0.8769
7035.00,0.8673
7034.00,0.8579
7033.00,0.8489
7032.00,0.8402
7031.00,0.8314
7030.00,0.8226
7029.00,0.8140
7028.00,0.8056
7027.00,0.7976
7026.00,0.7897
7025.00,0.7821
7024.00,0.7749
7023.00,0.7680
7022.00,0.7616
7021.00,0.7557
7020.00,0.7502
7019.00,0.7453
7018.00,0.7410
7017.00,0.7373
7016.00,0.7342
7015.00,0.7317
7014.00,0.7298
7013.00,0.7284
7012.00,0.7276
7011.00,0.7273
7010.00,0.7277
7009.00,0.7288
7008.00,0.7302
7007.00,0.7320
7006.00,0.7342
7005.00,0.7369
7004.00,0.7402
7003.00,0.7440
7002.00,0.7482
7001.00,0.7531
7000.00,0.7586
6999.00,0.7645
6998.00,0.7708
6997.00,0.7773
6996.00,0.7840
6995.00,0.7909
6994.00,0.7983
6993.00,0.8063
6992.00,0.8148
6991.00,0.8235
6990.00,0.8322
6989.00,0.8411
6988.00,0.8501
6987.00,0.8591
6986.00,0.8682
6985.00,0.8775
6984.00,0.8872
6983.00,0.8971
6982.00,0.9069
6981.00,0.9164
6980.00,0.9256
6979.00,0.9345
6978.00,0.9434
6977.00,0.9524
6976.00,0.9615
6975.00,0.9706
6974.00,0.9799
6973.00,0.9894
6972.00,0.9986
6971.00,1.0071
6970.00,1.0152
6969.00,1.0231
6968.00,1.0308
6967.00,1.0382
6966.00,1.0454
6965.00,1.0525
6964.00,1.0597
6963.00,1.0669
6962.00,1.0738
6961.00,1.0803
6960.00,1.0862
6959.00,1.0917
6958.00,1.0970
6957.00,1.1019
6956.00,1.1064
6955.00,1.1105
6954.00,1.1146
6953.00,1.1189
6952.00,1.1231
6951.00,1.1268
6950.00,1.1296
6949.00,1.1318
6948.00,1.1336
6947.00,1.1353
6946.00,1.1369
6945.00,1.1380
6944.00,1.1386
6943.00,1.1389
6942.00,1.1392
6941.00,1.1396
6940.00,1.1396
6939.00,1.1387
6938.00,1.1371
6937.00,1.1352
6936.00,1.1335
6935.00,1.1316
6934.00,1.1293
6933.00,1.1266
6932.00,1.1235
6931.00,1.1201
6930.00,1.1163
6929.00,1.1120
6928.00,1.1072
6927.00,1.1020
6926.00,1.0968
6925.00,1.0914
6924.00,1.0856
6923.00,1.0793
6922.00,1.0728
6921.00,1.0661
6920.00,1.0590
6919.00,1.0511
6918.00,1.0426
6917.00,1.0341
6916.00,1.0258
6915.00,1.0174
6914.00,1.0087
6913.00,0.9998
6912.00,0.9906
6911.00,0.9813
6910.00,0.9719
6909.00,0.9625
6908.00,0.9530
6907.00,0.9433
6906.00,0.9335
6905.00,0.9238
6904.00,0.9140
6903.00,0.9042
6902.00,0.8942
6901.00,0.8841
6900.00,0.8742
6899.00,0.8644
6898.00,0.8549
6897.00,0.8458
6896.00,0.8370
6895.00,0.8283
6894.00,0.8197
6893.00,0.8112
6892.00,0.8029
6891.00,0.7948
6890.00,0.7870
6889.00,0.7796
6888.00,0.7726
6887.00,0.7660
6886.00,0.7600
6885.00,0.7544
6884.00,0.7490
6883.00,0.7439
6882.00,0.7392
6881.00,0.7352
6880.00,0.7319
6879.00,0.7293
6878.00,0.7271
6877.00,0.7255
6876.00,0.7246
6875.00,0.7242
6874.00,0.7241
6873.00,0.7243
6872.00,0.7250
6871.00,0.7262
6870.00,0.7281
6869.00,0.7308
6868.00,0.7339
6867.00,0.7374
6866.00,0.7413
6865.00,0.7457
6864.00,0.7506
6863.00,0.7560
6862.00,0.7616
6861.00,0.7675
6860.00,0.7740
6859.00,0.7810
6858.00,0.7888
6857.00,0.7970
6856.00,0.8053
6855.00,0.8137
6854.00,0.8223
6853.00,0.8312
6852.00,0.8403
6851.00,0.8496
6850.00,0.8590
6849.00,0.8688
6848.00,0.8789
6847.00,0.8891
6846.00,0.8993
6845.00,0.9093
6844.00,0.9189
6843.00,0.9281
6842.00,0.9374
6841.00,0.9469
6840.00,0.9566
6839.00,0.9662
6838.00,0.9757
6837.00,0.9850
6836.00,0.9945
6835.00,1.0040
6834.00,1.0134
6833.00,1.0225
6832.00,1.0315
6831.00,1.0403
6830.00,1.0491
6829.00,1.0575
6828.00,1.0655
6827.00,1.0730
6826.00,1.0801
6825.00,1.0869
6824.00,1.0936
6823.00,1.1001
6822.00,1.1065
6821.00,1.1129
6820.00,1.1193
6819.00,1.1258
6818.00,1.1321
6817.00,1.1381
6816.00,1.1435
6815.00,1.1481
6814.00,1.1522
6813.00,1.1558
6812.00,1.1591
6811.00,1.1620
6810.00,1.1645
6809.00,1.1669
6808.00,1.1692
6807.00,1.1715
6806.00,1.1735
6805.00,1.1752
6804.00,1.1765
6803.00,1.1774
6802.00,1.1779
6801.00,1.1777
6800.00,1.1772
6799.00,1.1768
6798.00,1.1765
6797.00,1.1760
6796.00,1.1748
6795.00,1.1726
6794.00,1.1696
6793.00,1.1661
6792.00,1.1621
6791.00,1.1575
6790.00,1.1527
6789.00,1.1478
6788.00,1.1433
6787.00,1.1388
6786.00,1.1340
6785.00,1.1286
6784.00,1.1226
6783.00,1.1162
6782.00,1.1097
6781.00,1.1031
6780.00,1.0961
6779.00,1.0886
6778.00,1.0805
6777.00,1.0722
6776.00,1.0635
6775.00,1.0545
6774.00,1.0453
6773.00,1.0360
6772.00,1.0266
6771.00,1.0170
6770.00,1.0072
6769.00,0.9974
6768.00,0.9876
6767.00,0.9777
6766.00,0.9675
6765.00,0.9570
6764.00,0.9462
6763.00,0.9353
6762.00,0.9244
6761.00,0.9134
6760.00,0.9024
6759.00,0.8916
6758.00,0.8814
6757.00,0.8718
6756.00,0.8625
6755.00,0.8533
6754.00,0.8443
6753.00,0.8355
6752.00,0.8270
6751.00,0.8188
6750.00,0.8108
6749.00,0.8033
6748.00,0.7964
6747.00,0.7900
6746.00,0.7840
6745.00,0.7784
6744.00,0.7733
6743.00,0.7686
6742.00,0.7645
6741.00,0.7609
6740.00,0.7578
6739.00,0.7553
6738.00,0.7535
6737.00,0.7525
6736.00,0.7521
6735.00,0.7520
6734.00,0.7525
6733.00,0.7536
6732.00,0.7554
6731.00,0.7577
6730.00,0.7607
6729.00,0.7643
6728.00,0.7684
6727.00,0.7730
6726.00,0.7779
6725.00,0.7834
6724.00,0.7895
6723.00,0.7959
6722.00,0.8026
6721.00,0.8101
6720.00,0.8183
6719.00,0.8269
6718.00,0.8355
6717.00,0.8440
6716.00,0.8526
6715.00,0.8616
6714.00,0.8709
6713.00,0.8803
6712.00,0.8896
6711.00,0.8991
6710.00,0.9087
6709.00,0.9183
6708.00,0.9279
6707.00,0.9372
6706.00,0.9466
6705.00,0.9562
6704.00,0.9660
6703.00,0.9759
6702.00,0.9858
6701.00,0.9956
6700.00,1.0052
6699.00,1.0146
6698.00,1.0237
6697.00,1.0326
6696.00,1.0412
6695.00,1.0497
6694.00,1.0581
6693.00,1.0662
6692.00,1.0742
6691.00,1.0820
6690.00,1.0895
6689.00,1.0967
6688.00,1.1036
6687.00,1.1103
6686.00,1.1169
6685.00,1.1231
6684.00,1.1288
6683.00,1.1339
6682.00,1.1389
6681.00,1.1438
6680.00,1.1483
6679.00,1.1524
6678.00,1.1561
6677.00,1.1596
6676.00,1.1629
6675.00,1.1659
6674.00,1.1686
6673.00,1.1710
6672.00,1.1732
6671.00,1.1752
6670.00,1.1771
6669.00,1.1786
6668.00,1.1794
6667.00,1.1794
6666.00,1.1786
6665.00,1.1774
6664.00,1.1758
6663.00,1.1740
6662.00,1.1719
6661.00,1.1695
6660.00,1.1671
6659.00,1.1645
6658.00,1.1615
6657.00,1.1580
6656.00,1.1538
6655.00,1.1494
6654.00,1.1448
6653.00,1.1400
6652.00,1.1348
6651.00,1.1293
6650.00,1.1235
6649.00,1.1176
6648.00,1.1113
6647.00,1.1048
6646.00,1.0980
6645.00,1.0908
6644.00,1.0829
6643.00,1.0746
6642.00,1.0661
6641.00,1.0574
6640.00,1.0483
6639.00,1.0388
6638.00,1.0293
6637.00,1.0197
6636.00,1.0100
6635.00,0.9998
6634.00,0.9895
6633.00,0.9791
6632.00,0.9688
6631.00,0.9586
6630.00,0.9485
6629.00,0.9382
6628.00,0.9277
6627.00,0.9169
6626.00,0.9061
6625.00,0.8957
6624.00,0.8855
6623.00,0.8755
6622.00,0.8660
6621.00,0.8567
6620.00,0.8476
6619.00,0.8384
6618.00,0.8293
6617.00,0.8204
6616.00,0.8118
6615.00,0.8035
6614.00,0.7955
6613.00,0.7880
6612.00,0.7811
6611.00,0.7748
6610.00,0.7689
6609.00,0.7632
6608.00,0.7578
6607.00,0.7528
6606.00,0.7484
6605.00,0.7445
6604.00,0.7411
6603.00,0.7382
6602.00,0.7359
6601.00,0.7344
6600.00,0.7335
6599.00,0.7331
6598.00,0.7333
6597.00,0.7342
6596.00,0.7358
6595.00,0.7379
6594.00,0.7405
6593.00,0.7436
6592.00,0.7472
6591.00,0.7512
6590.00,0.7558
6589.00,0.7611
6588.00,0.7669
6587.00,0.7732
6586.00,0.7800
6585.00,0.7872
6584.00,0.7949
6583.00,0.8030
6582.00,0.8115
6581.00,0.8204
6580.00,0.8295
6579.00,0.8386
6578.00,0.8477
6577.00,0.8569
6576.00,0.8662
6575.00,0.8758
6574.00,0.8856
6573.00,0.8958
6572.00,0.9061
6571.00,0.9164
6570.00,0.9266
6569.00,0.9366
6568.00,0.9465
6567.00,0.9566
6566.00,0.9667
6565.00,0.9771
6564.00,0.9876
6563.00,0.9980
6562.00,1.0082
6561.00,1.0180
6560.00,1.0275
6559.00,1.0368
6558.00,1.0460
6557.00,1.0549
6556.00,1.0638
6555.00,1.0726
6554.00,1.0815
6553.00,1.0903
6552.00,1.0987
6551.00,1.1065
6550.00,1.1140
6549.00,1.1212
6548.00,1.1281
6547.00,1.1344
6546.00,1.1404
6545.00,1.1464
6544.00,1.1524
6543.00,1.1581
6542.00,1.1636
6541.00,1.1687
6540.00,1.1735
6539.00,1.1776
6538.00,1.1813
6537.00,1.1848
6536.00,1.1879
6535.00,1.1907
6534.00,1.1932
6533.00,1.1956
6532.00,1.1978
6531.00,1.1994
6530.00,1.2003
6529.00,1.2007
6528.00,1.2010
6527.00,1.2013
6526.00,1.2013
6525.00,1.2009
6524.00,1.2000
6523.00,1.1988
6522.00,1.1974
6521.00,1.1957
6520.00,1.1935
6519.00,1.1908
6518.00,1.1878
6517.00,1.1847
6516.00,1.1812
6515.00,1.1770
6514.00,1.1720
6513.00,1.1661
6512.00,1.1599
6511.00,1.1535
6510.00,1.1469
6509.00,1.1400
6508.00,1.1328
6507.00,1.1254
6506.00,1.1180
6505.00,1.1105
6504.00,1.1027
6503.00,1.0946
6502.00,1.0860
6501.00,1.0771
6500.00,1.0677
6499.00,1.0579
6498.00,1.0479
6497.00,1.0376
6496.00,1.0272
6495.00,1.0166
6494.00,1.0059
6493.00,0.9952
6492.00,0.9842
6491.00,0.9729
6490.00,0.9616
6489.00,0.9504
6488.00,0.9395
6487.00,0.9287
6486.00,0.9180
6485.00,0.9073
6484.00,0.8966
6483.00,0.8857
6482.00,0.8749
6481.00,0.8642
6480.00,0.8538
6479.00,0.8436
6478.00,0.8338
6477.00,0.8246
6476.00,0.8159
6475.00,0.8075
6474.00,0.7996
6473.00,0.7920
6472.00,0.7850
6471.00,0.7785
6470.00,0.7725
6469.00,0.7670
6468.00,0.7620
6467.00,0.7575
6466.00,0.7537
6465.00,0.7504
6464.00,0.7478
6463.00,0.7457
6462.00,0.7444
6461.00,0.7438
6460.00,0.7439
6459.00,0.7447
6458.00,0.7461
6457.00,0.7483
6456.00,0.7511
6455.00,0.7545
6454.00,0.7586
6453.00,0.7633
6452.00,0.7685
6451.00,0.7741
6450.00,0.7802
6449.00,0.7867
6448.00,0.7936
6447.00,0.8008
6446.00,0.8083
6445.00,0.8163
6444.00,0.8247
6443.00,0.8335
6442.00,0.8425
6441.00,0.8518
6440.00,0.8613
6439.00,0.8711
6438.00,0.8812
6437.00,0.8913
6436.00,0.9016
6435.00,0.9120
6434.00,0.9225
6433.00,0.9330
6432.00,0.9433
6431.00,0.9535
6430.00,0.9637
6429.00,0.9739
6428.00,0.9840
6427.00,0.9939
6426.00,1.0037
6425.00,1.0136
6424.00,1.0235
6423.00,1.0331
6422.00,1.0427
6421.00,1.0522
6420.00,1.0615
6419.00,1.0704
6418.00,1.0789
6417.00,1.0870
6416.00,1.0948
6415.00,1.1023
6414.00,1.1095
6413.00,1.1165
6412.00,1.1234
6411.00,1.1302
6410.00,1.1366
6409.00,1.1426
6408.00,1.1484
6407.00,1.1538
6406.00,1.1590
6405.00,1.1637
6404.00,1.1679
6403.00,1.1716
6402.00,1.1749
6401.00,1.1781
6400.00,1.1812
6399.00,1.1842
6398.00,1.1869
6397.00,1.1892
6396.00,1.1907
6395.00,1.1916
6394.00,1.1922
6393.00,1.1928
6392.00,1.1931
6391.00,1.1929
6390.00,1.1922
6389.00,1.1910
6388.00,1.1894
6387.00,1.1873
6386.00,1.1845
6385.00,1.1812
6384.00,1.1776
6383.00,1.1741
6382.00,1.1705
6381.00,1.1668
6380.00,1.1626
6379.00,1.1579
6378.00,1.1530
6377.00,1.1480
6376.00,1.1425
6375.00,1.1364
6374.00,1.1296
6373.00,1.1224
6372.00,1.1149
6371.00,1.1073
6370.00,1.0993
6369.00,1.0911
6368.00,1.0826
6367.00,1.0738
6366.00,1.0650
6365.00,1.0560
6364.00,1.0468
6363.00,1.0372
6362.00,1.0274
6361.00,1.0175
6360.00,1.0074
6359.00,0.9973
6358.00,0.9870
6357.00,0.9767
6356.00,0.9662
6355.00,0.9556
6354.00,0.9448
6353.00,0.9340
6352.00,0.9231
6351.00,0.9123
6350.00,0.9019
6349.00,0.8917
6348.00,0.8818
6347.00,0.8720
6346.00,0.8623
6345.00,0.8526
6344.00,0.8429
6343.00,0.8332
6342.00,0.8237
6341.00,0.8145
6340.00,0.8056
6339.00,0.7970
6338.00,0.7889
6337.00,0.7810
6336.00,0.7735
6335.00,0.7664
6334.00,0.7599
6333.00,0.7539
6332.00,0.7485
6331.00,0.7436
6330.00,0.7393
6329.00,0.7356
6328.00,0.7323
6327.00,0.7294
6326.00,0.7271
6325.00,0.7254
6324.00,0.7244
6323.00,0.7241
6322.00,0.7244
6321.00,0.7254
6320.00,0.7271
6319.00,0.7294
6318.00,0.7324
6317.00,0.7360
6316.00,0.7403
6315.00,0.7451
6314.00,0.7505
6313.00,0.7566
6312.00,0.7630
6311.00,0.7699
6310.00,0.7773
6309.00,0.7852
6308.00,0.7934
6307.00,0.8021
6306.00,0.8114
6305.00,0.8211
6304.00,0.8311
6303.00,0.8411
6302.00,0.8511
6301.00,0.8614
6300.00,0.8717
6299.00,0.8821
6298.00,0.8927
6297.00,0.9037
6296.00,0.9151
6295.00,0.9264
6294.00,0.9376
6293.00,0.9486
6292.00,0.9595
6291.00,0.9700
6290.00,0.9802
6289.00,0.9902
6288.00,1.0002
6287.00,1.0100
6286.00,1.0199
6285.00,1.0297
6284.00,1.0394
6283.00,1.0490
6282.00,1.0587
6281.00,1.0683
6280.00,1.0774
6279.00,1.0860
6278.00,1.0941
6277.00,1.1020
6276.00,1.1097
6275.00,1.1170
6274.00,1.1239
6273.00,1.1311
6272.00,1.1383
6271.00,1.1452
6270.00,1.1514
6269.00,1.1569
6268.00,1.1621
6267.00,1.1673
6266.00,1.1724
6265.00,1.1774
6264.00,1.1822
6263.00,1.1868
6262.00,1.1906
6261.00,1.1936
6260.00,1.1959
6259.00,1.1978
6258.00,1.1996
6257.00,1.2013
6256.00,1.2029
6255.00,1.2041
6254.00,1.2049
6253.00,1.2049
6252.00,1.2041
6251.00,1.2028
6250.00,1.2012
6249.00,1.1997
6248.00,1.1980
6247.00,1.1958
6246.00,1.1933
6245.00,1.1907
6244.00,1.1878
6243.00,1.1846
6242.00,1.1810
6241.00,1.1769
6240.00,1.1724
6239.00,1.1673
6238.00,1.1617
6237.00,1.1557
6236.00,1.1493
6235.00,1.1425
6234.00,1.1353
6233.00,1.1278
6232.00,1.1199
6231.00,1.1115
6230.00,1.1027
6229.00,1.0936
6228.00,1.0846
6227.00,1.0756
6226.00,1.0665
6225.00,1.0570
6224.00,1.0470
6223.00,1.0366
6222.00,1.0259
6221.00,1.0149
6220.00,1.0036
6219.00,0.9922
6218.00,0.9809
6217.00,0.9696
6216.00,0.9583
6215.00,0.9467
6214.00,0.9348
6213.00,0.9229
6212.00,0.9108
6211.00,0.8987
6210.00,0.8866
6209.00,0.8746
6208.00,0.8628
6207.00,0.8512
6206.00,0.8399
6205.00,0.8290
6204.00,0.8185
6203.00,0.8084
6202.00,0.7986
6201.00,0.7893
6200.00,0.7803
6199.00,0.7718
6198.00,0.7636
6197.00,0.7561
6196.00,0.7491
6195.00,0.7428
6194.00,0.7370
6193.00,0.7318
6192.00,0.7272
6191.00,0.7231
6190.00,0.7197
6189.00,0.7172
6188.00,0.7154
6187.00,0.7143
6186.00,0.7139
6185.00,0.7144
6184.00,0.7155
6183.00,0.7173
6182.00,0.7196
6181.00,0.7226
6180.00,0.7263
6179.00,0.7306
6178.00,0.7357
6177.00,0.7413
6176.00,0.7476
6175.00,0.7544
6174.00,0.7617
6173.00,0.7696
6172.00,0.7778
6171.00,0.7862
6170.00,0.7950
6169.00,0.8043
6168.00,0.8140
6167.00,0.8239
6166.00,0.8339
6165.00,0.8441
6164.00,0.8544
6163.00,0.8649
6162.00,0.8756
6161.00,0.8865
6160.00,0.8974
6159.00,0.9083
6158.00,0.9193
6157.00,0.9304
6156.00,0.9415
6155.00,0.9524
6154.00,0.9630
6153.00,0.9735
6152.00,0.9840
6151.00,0.9943
6150.00,1.0046
6149.00,1.0150
6148.00,1.0252
6147.00,1.0352
6146.00,1.0448
6145.00,1.0541
6144.00,1.0631
6143.00,1.0720
6142.00,1.0808
6141.00,1.0895
6140.00,1.0980
6139.00,1.1061
6138.00,1.1137
6137.00,1.1206
6136.00,1.1270
6135.00,1.1333
6134.00,1.1396
6133.00,1.1458
6132.00,1.1516
6131.00,1.1569
6130.00,1.1618
6129.00,1.1665
6128.00,1.1707
6127.00,1.1740
6126.00,1.1768
6125.00,1.1794
6124.00,1.1820
6123.00,1.1842
6122.00,1.1861
6121.00,1.1878
6120.00,1.1894
6119.00,1.1906
6118.00,1.1911
6117.00,1.1909
6116.00,1.1900
6115.00,1.1888
6114.00,1.1872
6113.00,1.1854
6112.00,1.1834
6111.00,1.1812
6110.00,1.1786
6109.00,1.1757
6108.00,1.1726
6107.00,1.1691
6106.00,1.1654
6105.00,1.1613
6104.00,1.1568
6103.00,1.1519
6102.00,1.1464
6101.00,1.1404
6100.00,1.1339
6099.00,1.1270
6098.00,1.1200
6097.00,1.1128
6096.00,1.1053
6095.00,1.0973
6094.00,1.0889
6093.00,1.0803
6092.00,1.0716
6091.00,1.0627
6090.00,1.0535
6089.00,1.0441
6088.00,1.0344
6087.00,1.0243
6086.00,1.0139
6085.00,1.0034
6084.00,0.9927
6083.00,0.9819
6082.00,0.9710
6081.00,0.9597
6080.00,0.9481
6079.00,0.9364
6078.00,0.9247
6077.00,0.9129
6076.00,0.9011
6075.00,0.8893
6074.00,0.8777
6073.00,0.8662
6072.00,0.8548
6071.00,0.8434
6070.00,0.8321
6069.00,0.8212
6068.00,0.8103
6067.00,0.7996
6066.00,0.7891
6065.00,0.7790
6064.00,0.7693
6063.00,0.7602
6062.00,0.7515
6061.00,0.7433
6060.00,0.7356
6059.00,0.7284
6058.00,0.7218
6057.00,0.7158
6056.00,0.7106
6055.00,0.7059
6054.00,0.7020
6053.00,0.6987
6052.00,0.6961
6051.00,0.6941
6050.00,0.6929
6049.00,0.6925
6048.00,0.6929
6047.00,0.6941
6046.00,0.6960
6045.00,0.6986
6044.00,0.7019
6043.00,0.7059
6042.00,0.7106
6041.00,0.7159
6040.00,0.7218
6039.00,0.7283
6038.00,0.7354
6037.00,0.7430
6036.00,0.7511
6035.00,0.7596
6034.00,0.7687
6033.00,0.7781
6032.00,0.7879
6031.00,0.7978
6030.00,0.8081
6029.00,0.8186
6028.00,0.8295
6027.00,0.8405
6026.00,0.8519
6025.00,0.8634
6024.00,0.8748
6023.00,0.8863
6022.00,0.8978
6021.00,0.9093
6020.00,0.9207
6019.00,0.9321
6018.00,0.9436
6017.00,0.9551
6016.00,0.9666
6015.00,0.9778
6014.00,0.9888
6013.00,0.9996
6012.00,1.0102
6011.00,1.0207
6010.00,1.0309
6009.00,1.0409
6008.00,1.0506
6007.00,1.0602
6006.00,1.0697
6005.00,1.0790
6004.00,1.0879
6003.00,1.0964
6002.00,1.1048
6001.00,1.1129
6000.00,1.1205
5999.00,1.1279
5998.00,1.1353
5997.00,1.1426
5996.00,1.1496
5995.00,1.1560
5994.00,1.1621
5993.00,1.1677
5992.00,1.1727
5991.00,1.1770
5990.00,1.1807
5989.00,1.1842
5988.00,1.1875
5987.00,1.1905
5986.00,1.1933
5985.00,1.1960
5984.00,1.1984
5983.00,1.2007
5982.00,1.2027
5981.00,1.2044
5980.00,1.2054
5979.00,1.2056
5978.00,1.2051
5977.00,1.2040
5976.00,1.2024
5975.00,1.2004
5974.00,1.1984
5973.00,1.1966
5972.00,1.1947
5971.00,1.1924
5970.00,1.1895
5969.00,1.1863
5968.00,1.1827
5967.00,1.1786
5966.00,1.1741
5965.00,1.1693
5964.00,1.1643
5963.00,1.1587
5962.00,1.1528
5961.00,1.1465
5960.00,1.1400
5959.00,1.1333
5958.00,1.1266
5957.00,1.1198
5956.00,1.1128
5955.00,1.1053
5954.00,1.0973
5953.00,1.0887
5952.00,1.0795
5951.00,1.0696
5950.00,1.0594
5949.00,1.0489
5948.00,1.0379
5947.00,1.0263
5946.00,1.0143
5945.00,1.0022
5944.00,0.9901
5943.00,0.9779
5942.00,0.9655
5941.00,0.9530
5940.00,0.9403
5939.00,0.9273
5938.00,0.9140
5937.00,0.9006
5936.00,0.8872
5935.00,0.8739
5934.00,0.8608
5933.00,0.8479
5932.00,0.8352
5931.00,0.8228
5930.00,0.8108
5929.00,0.7992
5928.00,0.7879
5927.00,0.7769
5926.00,0.7663
5925.00,0.7562
5924.00,0.7468
5923.00,0.7379
5922.00,0.7297
5921.00,0.7222
5920.00,0.7153
5919.00,0.7091
5918.00,0.7035
5917.00,0.6985
5916.00,0.6943
5915.00,0.6909
5914.00,0.6883
5913.00,0.6865
5912.00,0.6856
5911.00,0.6854
5910.00,0.6860
5909.00,0.6875
5908.00,0.6897
5907.00,0.6926
5906.00,0.6964
5905.00,0.7009
5904.00,0.7061
5903.00,0.7120
5902.00,0.7185
5901.00,0.7257
5900.00,0.7333
5899.00,0.7414
5898.00,0.7501
5897.00,0.7594
5896.00,0.7692
5895.00,0.7793
5894.00,0.7897
5893.00,0.8003
5892.00,0.8112
5891.00,0.8222
5890.00,0.8334
5889.00,0.8448
5888.00,0.8564
5887.00,0.8682
5886.00,0.8801
5885.00,0.8921
5884.00,0.9041
5883.00,0.9159
5882.00,0.9277
5881.00,0.9395
5880.00,0.9511
5879.00,0.9625
5878.00,0.9740
5877.00,0.9855
5876.00,0.9969
5875.00,1.0081
5874.00,1.0193
5873.00,1.0302
5872.00,1.0409
5871.00,1.0513
5870.00,1.0614
5869.00,1.0712
5868.00,1.0808
5867.00,1.0900
5866.00,1.0990
5865.00,1.1078
5864.00,1.1164
5863.00,1.1247
5862.00,1.1326
5861.00,1.1400
5860.00,1.1469
5859.00,1.1533
5858.00,1.1594
5857.00,1.1649
5856.00,1.1701
5855.00,1.1751
5854.00,1.1805
5853.00,1.1859
5852.00,1.1908
5851.00,1.1951
5850.00,1.1988
5849.00,1.2021
5848.00,1.2049
5847.00,1.2070
5846.00,1.2089
5845.00,1.2106
5844.00,1.2120
5843.00,1.2128
5842.00,1.2127
5841.00,1.2122
5840.00,1.2115
5839.00,1.2106
5838.00,1.2097
5837.00,1.2088
5836.00,1.2076
5835.00,1.2057
5834.00,1.2033
5833.00,1.2005
5832.00,1.1973
5831.00,1.1936
5830.00,1.1895
5829.00,1.1849
5828.00,1.1798
5827.00,1.1742
5826.00,1.1682
5825.00,1.1620
5824.00,1.1558
5823.00,1.1493
5822.00,1.1427
5821.00,1.1355
5820.00,1.1278
5819.00,1.1195
5818.00,1.1107
5817.00,1.1015
5816.00,1.0921
5815.00,1.0822
5814.00,1.0719
5813.00,1.0614
5812.00,1.0505
5811.00,1.0394
5810.00,1.0280
5809.00,1.0165
5808.00,1.0048
5807.00,0.9928
5806.00,0.9806
5805.00,0.9682
5804.00,0.9557
5803.00,0.9429
5802.00,0.9300
5801.00,0.9171
5800.00,0.9041
5799.00,0.8909
5798.00,0.8776
5797.00,0.8645
5796.00,0.8515
5795.00,0.8387
5794.00,0.8262
5793.00,0.8140
5792.00,0.8021
5791.00,0.7904
5790.00,0.7789
5789.00,0.7677
5788.00,0.7569
5787.00,0.7465
5786.00,0.7366
5785.00,0.7274
5784.00,0.7189
5783.00,0.7111
5782.00,0.7039
5781.00,0.6974
5780.00,0.6917
5779.00,0.6867
5778.00,0.6825
5777.00,0.6791
5776.00,0.6765
5775.00,0.6747
5774.00,0.6737
5773.00,0.6736
5772.00,0.6743
5771.00,0.6760
5770.00,0.6786
5769.00,0.6821
5768.00,0.6863
5767.00,0.6912
5766.00,0.6968
5765.00,0.7032
5764.00,0.7102
5763.00,0.7178
5762.00,0.7260
5761.00,0.7347
5760.00,0.7438
5759.00,0.7533
5758.00,0.7634
5757.00,0.7739
5756.00,0.7849
5755.00,0.7962
5754.00,0.8077
5753.00,0.8194
5752.00,0.8312
5751.00,0.8430
5750.00,0.8550
5749.00,0.8671
5748.00,0.8794
5747.00,0.8916
5746.00,0.9039
5745.00,0.9163
5744.00,0.9288
5743.00,0.9411
5742.00,0.9533
5741.00,0.9653
5740.00,0.9772
5739.00,0.9890
5738.00,1.0006
5737.00,1.0120
5736.00,1.0234
5735.00,1.0346
5734.00,1.0455
5733.00,1.0561
5732.00,1.0664
5731.00,1.0763
5730.00,1.0859
5729.00,1.0952
5728.00,1.1041
5727.00,1.1126
5726.00,1.1208
5725.00,1.1289
5724.00,1.1370
5723.00,1.1449
5722.00,1.1524
5721.00,1.1595
5720.00,1.1660
5719.00,1.1720
5718.00,1.1774
5717.00,1.1825
5716.00,1.1874
5715.00,1.1919
5714.00,1.1960
5713.00,1.1998
5712.00,1.2034
5711.00,1.2066
5710.00,1.2096
5709.00,1.2121
5708.00,1.2141
5707.00,1.2155
5706.00,1.2163
5705.00,1.2167
5704.00,1.2169
5703.00,1.2170
5702.00,1.2170
5701.00,1.2165
5700.00,1.2154
5699.00,1.2139
5698.00,1.2120
5697.00,1.2100
5696.00,1.2077
5695.00,1.2053
5694.00,1.2025
5693.00,1.1994
5692.00,1.1957
5691.00,1.1912
5690.00,1.1861
5689.00,1.1806
5688.00,1.1749
5687.00,1.1686
5686.00,1.1619
5685.00,1.1547
5684.00,1.1473
5683.00,1.1397
5682.00,1.1318
5681.00,1.1236
5680.00,1.1150
5679.00,1.1059
5678.00,1.0964
5677.00,1.0862
5676.00,1.0754
5675.00,1.0644
5674.00,1.0531
5673.00,1.0418
5672.00,1.0303
5671.00,1.0185
5670.00,1.0063
5669.00,0.9937
5668.00,0.9806
5667.00,0.9672
5666.00,0.9537
5665.00,0.9402
5664.00,0.9267
5663.00,0.9132
5662.00,0.8995
5661.00,0.8856
5660.00,0.8717
5659.00,0.8580
5658.00,0.8444
5657.00,0.8311
5656.00,0.8179
5655.00,0.8050
5654.00,0.7923
5653.00,0.7800
5652.00,0.7681
5651.00,0.7568
5650.00,0.7462
5649.00,0.7361
5648.00,0.7266
5647.00,0.7176
5646.00,0.7092
5645.00,0.7016
5644.00,0.6947
5643.00,0.6886
5642.00,0.6832
5641.00,0.6788
5640.00,0.6751
5639.00,0.6723
5638.00,0.6704
5637.00,0.6694
5636.00,0.6693
5635.00,0.6699
5634.00,0.6715
5633.00,0.6740
5632.00,0.6774
5631.00,0.6815
5630.00,0.6865
5629.00,0.6923
5628.00,0.6988
5627.00,0.7060
5626.00,0.7138
5625.00,0.7224
5624.00,0.7316
5623.00,0.7413
5622.00,0.7515
5621.00,0.7621
5620.00,0.7731
5619.00,0.7844
5618.00,0.7961
5617.00,0.8081
5616.00,0.8202
5615.00,0.8325
5614.00,0.8451
5613.00,0.8579
5612.00,0.8708
5611.00,0.8836
5610.00,0.8965
5609.00,0.9094
5608.00,0.9224
5607.00,0.9352
5606.00,0.9480
5605.00,0.9608
5604.00,0.9735
5603.00,0.9861
5602.00,0.9985
5601.00,1.0109
5600.00,1.0230
5599.00,1.0348
5598.00,1.0462
5597.00,1.0575
5596.00,1.0684
5595.00,1.0790
5594.00,1.0894
5593.00,1.0996
5592.00,1.1095
5591.00,1.1189
5590.00,1.1278
5589.00,1.1364
5588.00,1.1448
5587.00,1.1532
5586.00,1.1614
5585.00,1.1693
5584.00,1.1767
5583.00,1.1834
5582.00,1.1896
5581.00,1.1954
5580.00,1.2008
5579.00,1.2060
5578.00,1.2109
5577.00,1.2155
5576.00,1.2196
5575.00,1.2233
5574.00,1.2267
5573.00,1.2297
5572.00,1.2325
5571.00,1.2350
5570.00,1.2368
5569.00,1.2380
5568.00,1.2386
5567.00,1.2388
5566.00,1.2388
5565.00,1.2384
5564.00,1.2377
5563.00,1.2368
5562.00,1.2356
5561.00,1.2339
5560.00,1.2316
5559.00,1.2286
5558.00,1.2253
5557.00,1.2216
5556.00,1.2176
5555.00,1.2131
5554.00,1.2083
5553.00,1.2032
5552.00,1.1977
5551.00,1.1917
5550.00,1.1851
5549.00,1.1781
5548.00,1.1707
5547.00,1.1628
5546.00,1.1546
5545.00,1.1460
5544.00,1.1372
5543.00,1.1281
5542.00,1.1185
5541.00,1.1086
5540.00,1.0981
5539.00,1.0870
5538.00,1.0754
5537.00,1.0636
5536.00,1.0515
5535.00,1.0391
5534.00,1.0264
5533.00,1.0135
5532.00,1.0003
5531.00,0.9869
5530.00,0.9732
5529.00,0.9594
5528.00,0.9454
5527.00,0.9311
5526.00,0.9166
5525.00,0.9020
5524.00,0.8873
5523.00,0.8726
5522.00,0.8581
5521.00,0.8438
5520.00,0.8297
5519.00,0.8157
5518.00,0.8020
5517.00,0.7886
5516.00,0.7755
5515.00,0.7627
5514.00,0.7506
5513.00,0.7390
5512.00,0.7280
5511.00,0.7176
5510.00,0.7079
5509.00,0.6990
5508.00,0.6908
5507.00,0.6834
5506.00,0.6769
5505.00,0.6712
5504.00,0.6663
5503.00,0.6622
5502.00,0.6591
5501.00,0.6571
5500.00,0.6560
5499.00,0.6559
5498.00,0.6568
5497.00,0.6586
5496.00,0.6614
5495.00,0.6651
5494.00,0.6696
5493.00,0.6751
5492.00,0.6814
5491.00,0.6884
5490.00,0.6960
5489.00,0.7043
5488.00,0.7132
5487.00,0.7228
5486.00,0.7330
5485.00,0.7439
5484.00,0.7553
5483.00,0.7670
5482.00,0.7789
5481.00,0.7912
5480.00,0.8037
5479.00,0.8165
5478.00,0.8297
5477.00,0.8431
5476.00,0.8566
5475.00,0.8701
5474.00,0.8836
5473.00,0.8972
5472.00,0.9108
5471.00,0.9242
5470.00,0.9376
5469.00,0.9511
5468.00,0.9646
5467.00,0.9780
5466.00,0.9913
5465.00,1.0044
5464.00,1.0173
5463.00,1.0299
5462.00,1.0423
5461.00,1.0545
5460.00,1.0665
5459.00,1.0782
5458.00,1.0897
5457.00,1.1010
5456.00,1.1120
5455.00,1.1225
5454.00,1.1327
5453.00,1.1425
5452.00,1.1520
5451.00,1.1609
5450.00,1.1694
5449.00,1.1776
5448.00,1.1856
5447.00,1.1929
5446.00,1.1998
5445.00,1.2063
5444.00,1.2127
5443.00,1.2190
5442.00,1.2251
5441.00,1.2309
5440.00,1.2361
5439.00,1.2404
5438.00,1.2441
5437.00,1.2474
5436.00,1.2507
5435.00,1.2539
5434.00,1.2566
5433.00,1.2590
5432.00,1.2607
5431.00,1.2618
5430.00,1.2621
5429.00,1.2622
5428.00,1.2622
5427.00,1.2623
5426.00,1.2622
5425.00,1.2618
5424.00,1.2606
5423.00,1.2586
5422.00,1.2561
5421.00,1.2532
5420.00,1.2498
5419.00,1.2459
5418.00,1.2415
5417.00,1.2369
5416.00,1.2319
5415.00,1.2264
5414.00,1.2205
5413.00,1.2143
5412.00,1.2078
5411.00,1.2011
5410.00,1.1938
5409.00,1.1862
5408.00,1.1782
5407.00,1.1698
5406.00,1.1610
5405.00,1.1518
5404.00,1.1421
5403.00,1.1319
5402.00,1.1211
5401.00,1.1098
5400.00,1.0980
5399.00,1.0857
5398.00,1.0729
5397.00,1.0599
5396.00,1.0467
5395.00,1.0332
5394.00,1.0194
5393.00,1.0054
5392.00,0.9913
5391.00,0.9772
5390.00,0.9630
5389.00,0.9487
5388.00,0.9341
5387.00,0.9193
5386.00,0.9043
5385.00,0.8892
5384.00,0.8742
5383.00,0.8593
5382.00,0.8445
5381.00,0.8300
5380.00,0.8160
5379.00,0.8023
5378.00,0.7891
5377.00,0.7764
5376.00,0.7642
5375.00,0.7527
5374.00,0.7418
5373.00,0.7316
5372.00,0.7221
5371.00,0.7133
5370.00,0.7052
5369.00,0.6981
5368.00,0.6919
5367.00,0.6865
5366.00,0.6819
5365.00,0.6783
5364.00,0.6756
5363.00,0.6739
5362.00,0.6732
5361.00,0.6735
5360.00,0.6749
5359.00,0.6771
5358.00,0.6804
5357.00,0.6846
5356.00,0.6898
5355.00,0.6958
5354.00,0.7027
5353.00,0.7104
5352.00,0.7189
5351.00,0.7281
5350.00,0.7377
5349.00,0.7479
5348.00,0.7586
5347.00,0.7700
5346.00,0.7819
5345.00,0.7943
5344.00,0.8070
5343.00,0.8200
5342.00,0.8332
5341.00,0.8467
5340.00,0.8604
5339.00,0.8743
5338.00,0.8886
5337.00,0.9034
5336.00,0.9184
5335.00,0.9333
5334.00,0.9478
5333.00,0.9620
5332.00,0.9759
5331.00,0.9895
5330.00,1.0030
5329.00,1.0164
5328.00,1.0298
5327.00,1.0431
5326.00,1.0563
5325.00,1.0695
5324.00,1.0824
5323.00,1.0950
5322.00,1.1072
5321.00,1.1190
5320.00,1.1303
5319.00,1.1413
5318.00,1.1518
5317.00,1.1622
5316.00,1.1722
5315.00,1.1818
5314.00,1.1910
5313.00,1.1998
5312.00,1.2083
5311.00,1.2165
5310.00,1.2242
5309.00,1.2316
5308.00,1.2386
5307.00,1.2451
5306.00,1.2511
5305.00,1.2566
5304.00,1.2617
5303.00,1.2664
5302.00,1.2708
5301.00,1.2748
5300.00,1.2787
5299.00,1.2823
5298.00,1.2854
5297.00,1.2880
5296.00,1.2900
5295.00,1.2916
5294.00,1.2927
5293.00,1.2933
5292.00,1.2933
5291.00,1.2929
5290.00,1.2923
5289.00,1.2912
5288.00,1.2898
5287.00,1.2881
5286.00,1.2862
5285.00,1.2837
5284.00,1.2805
5283.00,1.2768
5282.00,1.2727
5281.00,1.2683
5280.00,1.2638
5279.00,1.2590
5278.00,1.2540
5277.00,1.2485
5276.00,1.2423
5275.00,1.2355
5274.00,1.2280
5273.00,1.2200
5272.00,1.2116
5271.00,1.2028
5270.00,1.1938
5269.00,1.1844
5268.00,1.1747
5267.00,1.1646
5266.00,1.1540
5265.00,1.1429
5264.00,1.1312
5263.00,1.1192
5262.00,1.1070
5261.00,1.0946
5260.00,1.0820
5259.00,1.0690
5258.00,1.0559
5257.00,1.0425
5256.00,1.0289
5255.00,1.0147
5254.00,1.0002
5253.00,0.9854
5252.00,0.9704
5251.00,0.9554
5250.00,0.9402
5249.00,0.9247
5248.00,0.9091
5247.00,0.8935
5246.00,0.8782
5245.00,0.8631
5244.00,0.8482
5243.00,0.8333
5242.00,0.8187
5241.00,0.8045
5240.00,0.7908
5239.00,0.7776
5238.00,0.7649
5237.00,0.7529
5236.00,0.7416
5235.00,0.7310
5234.00,0.7212
5233.00,0.7123
5232.00,0.7041
5231.00,0.6968
5230.00,0.6905
5229.00,0.6852
5228.00,0.6811
5227.00,0.6781
5226.00,0.6760
5225.00,0.6750
5224.00,0.6750
5223.00,0.6761
5222.00,0.6783
5221.00,0.6815
5220.00,0.6857
5219.00,0.6908
5218.00,0.6969
5217.00,0.7040
5216.00,0.7119
5215.00,0.7206
5214.00,0.7301
5213.00,0.7404
5212.00,0.7513
5211.00,0.7628
5210.00,0.7748
5209.00,0.7874
5208.00,0.8004
5207.00,0.8139
5206.00,0.8278
5205.00,0.8421
5204.00,0.8568
5203.00,0.8716
5202.00,0.8865
5201.00,0.9016
5200.00,0.9167
5199.00,0.9317
5198.00,0.9468
5197.00,0.9617
5196.00,0.9765
5195.00,0.9911
5194.00,1.0054
5193.00,1.0196
5192.00,1.0335
5191.00,1.0472
5190.00,1.0606
5189.00,1.0739
5188.00,1.0869
5187.00,1.0997
5186.00,1.1121
5185.00,1.1241
5184.00,1.1359
5183.00,1.1475
5182.00,1.1589
5181.00,1.1702
5180.00,1.1812
5179.00,1.1918
5178.00,1.2019
5177.00,1.2118
5176.00,1.2213
5175.00,1.2307
5174.00,1.2396
5173.00,1.2480
5172.00,1.2558
5171.00,1.2630
5170.00,1.2697
5169.00,1.2760
5168.00,1.2821
5167.00,1.2879
5166.00,1.2934
5165.00,1.2985
5164.00,1.3030
5163.00,1.3071
5162.00,1.3109
5161.00,1.3143
5160.00,1.3174
5159.00,1.3200
5158.00,1.3221
5157.00,1.3234
5156.00,1.3241
5155.00,1.3243
5154.00,1.3243
5153.00,1.3243
5152.00,1.3243
5151.00,1.3240
5150.00,1.3231
5149.00,1.3216
5148.00,1.3193
5147.00,1.3164
5146.00,1.3130
5145.00,1.3093
5144.00,1.3053
5143.00,1.3009
5142.00,1.2961
5141.00,1.2908
5140.00,1.2852
5139.00,1.2793
5138.00,1.2729
5137.00,1.2661
5136.00,1.2589
5135.00,1.2511
5134.00,1.2428
5133.00,1.2340
5132.00,1.2248
5131.00,1.2153
5130.00,1.2052
5129.00,1.1947
5128.00,1.1836
5127.00,1.1720
5126.00,1.1599
5125.00,1.1474
5124.00,1.1346
5123.00,1.1214
5122.00,1.1080
5121.00,1.0942
5120.00,1.0800
5119.00,1.0652
5118.00,1.0501
5117.00,1.0346
5116.00,1.0188
5115.00,1.0027
5114.00,0.9865
5113.00,0.9702
5112.00,0.9538
5111.00,0.9374
5110.00,0.9210
5109.00,0.9047
5108.00,0.8883
5107.00,0.8720
5106.00,0.8560
5105.00,0.8404
5104.00,0.8253
5103.00,0.8105
5102.00,0.7963
5101.00,0.7826
5100.00,0.7695
5099.00,0.7572
5098.00,0.7456
5097.00,0.7349
5096.00,0.7251
5095.00,0.7161
5094.00,0.7081
5093.00,0.7012
5092.00,0.6954
5091.00,0.6907
5090.00,0.6870
5089.00,0.6845
5088.00,0.6831
5087.00,0.6828
5086.00,0.6837
5085.00,0.6858
5084.00,0.6890
5083.00,0.6933
5082.00,0.6987
5081.00,0.7052
5080.00,0.7126
5079.00,0.7209
5078.00,0.7300
5077.00,0.7399
5076.00,0.7505
5075.00,0.7619
5074.00,0.7740
5073.00,0.7868
5072.00,0.8001
5071.00,0.8138
5070.00,0.8278
5069.00,0.8421
5068.00,0.8567
5067.00,0.8716
5066.00,0.8867
5065.00,0.9021
5064.00,0.9176
5063.00,0.9332
5062.00,0.9487
5061.00,0.9642
5060.00,0.9796
5059.00,0.9950
5058.00,1.0103
5057.00,1.0255
5056.00,1.0406
5055.00,1.0555
5054.00,1.0700
5053.00,1.0844
5052.00,1.0985
5051.00,1.1124
5050.00,1.1261
5049.00,1.1396
5048.00,1.1528
5047.00,1.1656
5046.00,1.1780
5045.00,1.1900
5044.00,1.2017
5043.00,1.2129
5042.00,1.2236
5041.00,1.2340
5040.00,1.2438
5039.00,1.2533
5038.00,1.2624
5037.00,1.2711
5036.00,1.2795
5035.00,1.2875
5034.00,1.2951
5033.00,1.3022
5032.00,1.3090
5031.00,1.3154
5030.00,1.3215
5029.00,1.3269
5028.00,1.3317
5027.00,1.3358
5026.00,1.3395
5025.00,1.3429
5024.00,1.3461
5023.00,1.3489
5022.00,1.3513
5021.00,1.3532
5020.00,1.3545
5019.00,1.3554
5018.00,1.3560
5017.00,1.3564
5016.00,1.3564
5015.00,1.3559
5014.00,1.3548
5013.00,1.3532
5012.00,1.3513
5011.00,1.3489
5010.00,1.3461
5009.00,1.3429
5008.00,1.3393
5007.00,1.3351
5006.00,1.3304
5005.00,1.3253
5004.00,1.3198
5003.00,1.3138
5002.00,1.3073
5001.00,1.3006
5000.00,1.2936
4999.00,1.2863
4998.00,1.2786
4997.00,1.2703
4996.00,1.2614
4995.00,1.2519
4994.00,1.2419
4993.00,1.2314
4992.00,1.2205
4991.00,1.2090
4990.00,1.1969
4989.00,1.1844
4988.00,1.1717
4987.00,1.1586
4986.00,1.1450
4985.00,1.1308
4984.00,1.1159
4983.00,1.1004
4982.00,1.0845
4981.00,1.0684
4980.00,1.0521
4979.00,1.0357
4978.00,1.0190
4977.00,1.0022
4976.00,0.9850
4975.00,0.9677
4974.00,0.9503
4973.00,0.9328
4972.00,0.9154
4971.00,0.8982
4970.00,0.8813
4969.00,0.8647
4968.00,0.8483
4967.00,0.8323
4966.00,0.8167
4965.00,0.8017
4964.00,0.7874
4963.00,0.7736
4962.00,0.7607
4961.00,0.7484
4960.00,0.7369
4959.00,0.7264
4958.00,0.7168
4957.00,0.7084
4956.00,0.7010
4955.00,0.6946
4954.00,0.6894
4953.00,0.6854
4952.00,0.6825
4951.00,0.6809
4950.00,0.6805
4949.00,0.6815
4948.00,0.6836
4947.00,0.6870
4946.00,0.6916
4945.00,0.6972
4944.00,0.7039
4943.00,0.7115
4942.00,0.7201
4941.00,0.7297
4940.00,0.7403
4939.00,0.7516
4938.00,0.7637
4937.00,0.7766
4936.00,0.7900
4935.00,0.8040
4934.00,0.8185
4933.00,0.8335
4932.00,0.8489
4931.00,0.8646
4930.00,0.8805
4929.00,0.8966
4928.00,0.9128
4927.00,0.9292
4926.00,0.9457
4925.00,0.9623
4924.00,0.9788
4923.00,0.9953
4922.00,1.0116
4921.00,1.0277
4920.00,1.0437
4919.00,1.0594
4918.00,1.0749
4917.00,1.0902
4916.00,1.1053
4915.00,1.1202
4914.00,1.1350
4913.00,1.1495
4912.00,1.1637
4911.00,1.1775
4910.00,1.1908
4909.00,1.2038
4908.00,1.2164
4907.00,1.2288
4906.00,1.2409
4905.00,1.2528
4904.00,1.2640
4903.00,1.2744
4902.00,1.2841
4901.00,1.2935
4900.00,1.3027
4899.00,1.3116
4898.00,1.3202
4897.00,1.3281
4896.00,1.3352
4895.00,1.3416
4894.00,1.3476
4893.00,1.3536
4892.00,1.3595
4891.00,1.3651
4890.00,1.3703
4889.00,1.3750
4888.00,1.3792
4887.00,1.3829
4886.00,1.3860
4885.00,1.3885
4884.00,1.3904
4883.00,1.3919
4882.00,1.3930
4881.00,1.3939
4880.00,1.3944
4879.00,1.3944
4878.00,1.3938
4877.00,1.3926
4876.00,1.3909
4875.00,1.3890
4874.00,1.3870
4873.00,1.3846
4872.00,1.3817
4871.00,1.3782
4870.00,1.3742
4869.00,1.3697
4868.00,1.3650
4867.00,1.3600
4866.00,1.3547
4865.00,1.3489
4864.00,1.3424
4863.00,1.3353
4862.00,1.3276
4861.00,1.3194
4860.00,1.3108
4859.00,1.3016
4858.00,1.2922
4857.00,1.2823
4856.00,1.2720
4855.00,1.2613
4854.00,1.2499
4853.00,1.2379
4852.00,1.2252
4851.00,1.2119
4850.00,1.1983
4849.00,1.1844
4848.00,1.1702
4847.00,1.1556
4846.00,1.1403
4845.00,1.1244
4844.00,1.1080
4843.00,1.0913
4842.00,1.0742
4841.00,1.0569
4840.00,1.0394
4839.00,1.0216
4838.00,1.0037
4837.00,0.9855
4836.00,0.9672
4835.00,0.9489
4834.00,0.9306
4833.00,0.9125
4832.00,0.8945
4831.00,0.8768
4830.00,0.8594
4829.00,0.8425
4828.00,0.8261
4827.00,0.8103
4826.00,0.7951
4825.00,0.7807
4824.00,0.7670
4823.00,0.7543
4822.00,0.7426
4821.00,0.7320
4820.00,0.7225
4819.00,0.7141
4818.00,0.7069
4817.00,0.7010
4816.00,0.6964
4815.00,0.6931
4814.00,0.6912
4813.00,0.6906
4812.00,0.6913
4811.00,0.6934
4810.00,0.6968
4809.00,0.7015
4808.00,0.7075
4807.00,0.7146
4806.00,0.7228
4805.00,0.7320
4804.00,0.7422
4803.00,0.7535
4802.00,0.7656
4801.00,0.7785
4800.00,0.7922
4799.00,0.8066
4798.00,0.8215
4797.00,0.8369
4796.00,0.8527
4795.00,0.8689
4794.00,0.8854
4793.00,0.9022
4792.00,0.9192
4791.00,0.9364
4790.00,0.9538
4789.00,0.9712
4788.00,0.9885
4787.00,1.0058
4786.00,1.0229
4785.00,1.0400
4784.00,1.0569
4783.00,1.0737
4782.00,1.0903
4781.00,1.1066
4780.00,1.1227
4779.00,1.1385
4778.00,1.1541
4777.00,1.1693
4776.00,1.1841
4775.00,1.1985
4774.00,1.2125
4773.00,1.2262
4772.00,1.2395
4771.00,1.2523
4770.00,1.2646
4769.00,1.2765
4768.00,1.2879
4767.00,1.2990
4766.00,1.3098
4765.00,1.3202
4764.00,1.3301
4763.00,1.3393
4762.00,1.3481
4761.00,1.3565
4760.00,1.3645
4759.00,1.3722
4758.00,1.3794
4757.00,1.3860
4756.00,1.3920
4755.00,1.3975
4754.00,1.4026
4753.00,1.4075
4752.00,1.4119
4751.00,1.4156
4750.00,1.4187
4749.00,1.4213
4748.00,1.4235
4747.00,1.4255
4746.00,1.4272
4745.00,1.4285
4744.00,1.4293
4743.00,1.4295
4742.00,1.4293
4741.00,1.4289
4740.00,1.4281
4739.00,1.4269
4738.00,1.4252
4737.00,1.4231
4736.00,1.4207
4735.00,1.4179
4734.00,1.4145
4733.00,1.4104
4732.00,1.4055
4731.00,1.4000
4730.00,1.3940
4729.00,1.3878
4728.00,1.3813
4727.00,1.3746
4726.00,1.3674
4725.00,1.3598
4724.00,1.3516
4723.00,1.3429
4722.00,1.3337
4721.00,1.3239
4720.00,1.3135
4719.00,1.3025
4718.00,1.2909
4717.00,1.2790
4716.00,1.2668
4715.00,1.2541
4714.00,1.2409
4713.00,1.2271
4712.00,1.2124
4711.00,1.1971
4710.00,1.1813
4709.00,1.1650
4708.00,1.1485
4707.00,1.1316
4706.00,1.1142
4705.00,1.0964
4704.00,1.0782
4703.00,1.0597
4702.00,1.0410
4701.00,1.0221
4700.00,1.0030
4699.00,0.9837
4698.00,0.9645
4697.00,0.9455
4696.00,0.9267
4695.00,0.9083
4694.00,0.8902
4693.00,0.8724
4692.00,0.8551
4691.00,0.8382
4690.00,0.8219
4689.00,0.8062
4688.00,0.7912
4687.00,0.7770
4686.00,0.7638
4685.00,0.7516
4684.00,0.7405
4683.00,0.7305
4682.00,0.7218
4681.00,0.7143
4680.00,0.7081
4679.00,0.7033
4678.00,0.6999
4677.00,0.6979
4676.00,0.6974
4675.00,0.6982
4674.00,0.7005
4673.00,0.7042
4672.00,0.7093
4671.00,0.7158
4670.00,0.7235
4669.00,0.7324
4668.00,0.7424
4667.00,0.7535
4666.00,0.7656
4665.00,0.7786
4664.00,0.7924
4663.00,0.8070
4662.00,0.8223
4661.00,0.8382
4660.00,0.8546
4659.00,0.8715
4658.00,0.8888
4657.00,0.9064
4656.00,0.9241
4655.00,0.9420
4654.00,0.9600
4653.00,0.9781
4652.00,0.9962
4651.00,1.0143
4650.00,1.0324
4649.00,1.0504
4648.00,1.0682
4647.00,1.0859
4646.00,1.1035
4645.00,1.1210
4644.00,1.1383
4643.00,1.1551
4642.00,1.1716
4641.00,1.1877
4640.00,1.2034
4639.00,1.2188
4638.00,1.2339
4637.00,1.2488
4636.00,1.2633
4635.00,1.2772
4634.00,1.2906
4633.00,1.3036
4632.00,1.3160
4631.00,1.3280
4630.00,1.3395
4629.00,1.3507
4628.00,1.3615
4627.00,1.3717
4626.00,1.3813
4625.00,1.3903
4624.00,1.3987
4623.00,1.4068
4622.00,1.4146
4621.00,1.4219
4620.00,1.4286
4619.00,1.4348
4618.00,1.4405
4617.00,1.4459
4616.00,1.4509
4615.00,1.4556
4614.00,1.4597
4613.00,1.4632
4612.00,1.4660
4611.00,1.4682
4610.00,1.4699
4609.00,1.4714
4608.00,1.4727
4607.00,1.4738
4606.00,1.4745
4605.00,1.4748
4604.00,1.4745
4603.00,1.4737
4602.00,1.4724
4601.00,1.4706
4600.00,1.4681
4599.00,1.4650
4598.00,1.4615
4597.00,1.4576
4596.00,1.4535
4595.00,1.4491
4594.00,1.4445
4593.00,1.4394
4592.00,1.4337
4591.00,1.4274
4590.00,1.4205
4589.00,1.4131
4588.00,1.4053
4587.00,1.3971
4586.00,1.3884
4585.00,1.3791
4584.00,1.3690
4583.00,1.3582
4582.00,1.3470
4581.00,1.3354
4580.00,1.3235
4579.00,1.3110
4578.00,1.2979
4577.00,1.2842
4576.00,1.2699
4575.00,1.2550
4574.00,1.2397
4573.00,1.2239
4572.00,1.2076
4571.00,1.1907
4570.00,1.1734
4569.00,1.1556
4568.00,1.1374
4567.00,1.1186
4566.00,1.0993
4565.00,1.0795
4564.00,1.0594
4563.00,1.0392
4562.00,1.0189
4561.00,0.9987
4560.00,0.9786
4559.00,0.9583
4558.00,0.9382
4557.00,0.9183
4556.00,0.8988
4555.00,0.8797
4554.00,0.8611
4553.00,0.8433
4552.00,0.8261
4551.00,0.8099
4550.00,0.7946
4549.00,0.7803
4548.00,0.7672
4547.00,0.7552
4546.00,0.7446
4545.00,0.7354
4544.00,0.7277
4543.00,0.7214
4542.00,0.7167
4541.00,0.7134
4540.00,0.7118
4539.00,0.7118
4538.00,0.7134
4537.00,0.7165
4536.00,0.7212
4535.00,0.7273
4534.00,0.7348
4533.00,0.7437
4532.00,0.7539
4531.00,0.7654
4530.00,0.7781
4529.00,0.7917
4528.00,0.8063
4527.00,0.8216
4526.00,0.8378
4525.00,0.8546
4524.00,0.8719
4523.00,0.8898
4522.00,0.9080
4521.00,0.9266
4520.00,0.9454
4519.00,0.9644
4518.00,0.9837
4517.00,1.0031
4516.00,1.0226
4515.00,1.0420
4514.00,1.0613
4513.00,1.0804
4512.00,1.0993
4511.00,1.1181
4510.00,1.1367
4509.00,1.1550
4508.00,1.1731
4507.00,1.1910
4506.00,1.2085
4505.00,1.2257
4504.00,1.2425
4503.00,1.2589
4502.00,1.2750
4501.00,1.2906
4500.00,1.3056
4499.00,1.3200
4498.00,1.3338
4497.00,1.3470
4496.00,1.3599
4495.00,1.3725
4494.00,1.3847
4493.00,1.3963
4492.00,1.4071
4491.00,1.4173
4490.00,1.4270
4489.00,1.4364
4488.00,1.4455
4487.00,1.4540
4486.00,1.4620
4485.00,1.4696
4484.00,1.4766
4483.00,1.4833
4482.00,1.4894
4481.00,1.4949
4480.00,1.4996
4479.00,1.5036
4478.00,1.5072
4477.00,1.5104
4476.00,1.5134
4475.00,1.5160
4474.00,1.5183
4473.00,1.5203
4472.00,1.5219
4471.00,1.5230
4470.00,1.5237
4469.00,1.5238
4468.00,1.5235
4467.00,1.5227
4466.00,1.5216
4465.00,1.5202
4464.00,1.5183
4463.00,1.5159
4462.00,1.5128
4461.00,1.5091
4460.00,1.5050
4459.00,1.5006
4458.00,1.4961
4457.00,1.4915
4456.00,1.4864
4455.00,1.4807
4454.00,1.4745
4453.00,1.4677
4452.00,1.4606
4451.00,1.4532
4450.00,1.4455
4449.00,1.4374
4448.00,1.4291
4447.00,1.4205
4446.00,1.4116
4445.00,1.4023
4444.00,1.3927
4443.00,1.3830
4442.00,1.3731
4441.00,1.3631
4440.00,1.3525
4439.00,1.3414
4438.00,1.3297
4437.00,1.3174
4436.00,1.3045
4435.00,1.2909
4434.00,1.2764
4433.00,1.2610
4432.00,1.2446
4431.00,1.2274
4430.00,1.2095
4429.00,1.1909
4428.00,1.1715
4427.00,1.1514
4426.00,1.1306
4425.00,1.1094
4424.00,1.0878
4423.00,1.0662
4422.00,1.0445
4421.00,1.0231
4420.00,1.0019
4419.00,0.9810
4418.00,0.9607
4417.00,0.9410
4416.00,0.9220
4415.00,0.9040
4414.00,0.8870
4413.00,0.8712
4412.00,0.8568
4411.00,0.8439
4410.00,0.8327
4409.00,0.8231
4408.00,0.8154
4407.00,0.8094
4406.00,0.8053
4405.00,0.8030
4404.00,0.8024
4403.00,0.8034
4402.00,0.8057
4401.00,0.8094
4400.00,0.8141
4399.00,0.8199
4398.00,0.8264
4397.00,0.8338
4396.00,0.8418
4395.00,0.8505
4394.00,0.8599
4393.00,0.8701
4392.00,0.8811
4391.00,0.8929
4390.00,0.9057
4389.00,0.9193
4388.00,0.9337
4387.00,0.9489
4386.00,0.9649
4385.00,0.9815
4384.00,0.9986
4383.00,1.0161
4382.00,1.0339
4381.00,1.0521
4380.00,1.0706
4379.00,1.0893
4378.00,1.1082
4377.00,1.1270
4376.00,1.1456
4375.00,1.1641
4374.00,1.1823
4373.00,1.2003
4372.00,1.2180
4371.00,1.2352
4370.00,1.2519
4369.00,1.2681
4368.00,1.2836
4367.00,1.2985
4366.00,1.3127
4365.00,1.3264
4364.00,1.3394
4363.00,1.3520
4362.00,1.3640
4361.00,1.3758
4360.00,1.3872
4359.00,1.3984
4358.00,1.4093
4357.00,1.4198
4356.00,1.4298
4355.00,1.4396
4354.00,1.4493
4353.00,1.4589
4352.00,1.4681
4351.00,1.4769
4350.00,1.4853
4349.00,1.4934
4348.00,1.5012
4347.00,1.5087
4346.00,1.5160
4345.00,1.5230
4344.00,1.5296
4343.00,1.5357
4342.00,1.5414
4341.00,1.5467
4340.00,1.5514
4339.00,1.5556
4338.00,1.5595
4337.00,1.5630
4336.00,1.5660
4335.00,1.5685
4334.00,1.5705
4333.00,1.5719
4332.00,1.5727
4331.00,1.5730
4330.00,1.5729
4329.00,1.5728
4328.00,1.5725
4327.00,1.5720
4326.00,1.5712
4325.00,1.5699
4324.00,1.5680
4323.00,1.5656
4322.00,1.5625
4321.00,1.5590
4320.00,1.5548
4319.00,1.5502
4318.00,1.5450
4317.00,1.5395
4316.00,1.5337
4315.00,1.5276
4314.00,1.5210
4313.00,1.5137
4312.00,1.5056
4311.00,1.4965
4310.00,1.4869
4309.00,1.4770
4308.00,1.4669
4307.00,1.4563
4306.00,1.4452
4305.00,1.4332
4304.00,1.4204
4303.00,1.4070
4302.00,1.3932
4301.00,1.3788
4300.00,1.3638
4299.00,1.3481
4298.00,1.3318
4297.00,1.3149
4296.00,1.2975
4295.00,1.2795
4294.00,1.2610
4293.00,1.2420
4292.00,1.2223
4291.00,1.2019
4290.00,1.1811
4289.00,1.1598
4288.00,1.1382
4287.00,1.1162
4286.00,1.0939
4285.00,1.0714
4284.00,1.0487
4283.00,1.0261
4282.00,1.0035
4281.00,0.9811
4280.00,0.9589
4279.00,0.9371
4278.00,0.9159
4277.00,0.8954
4276.00,0.8757
4275.00,0.8570
4274.00,0.8394
4273.00,0.8228
4272.00,0.8074
4271.00,0.7933
4270.00,0.7807
4269.00,0.7698
4268.00,0.7605
4267.00,0.7530
4266.00,0.7473
4265.00,0.7435
4264.00,0.7415
4263.00,0.7414
4262.00,0.7432
4261.00,0.7469
4260.00,0.7523
4259.00,0.7596
4258.00,0.7685
4257.00,0.7791
4256.00,0.7911
4255.00,0.8045
4254.00,0.8191
4253.00,0.8350
4252.00,0.8519
4251.00,0.8697
4250.00,0.8882
4249.00,0.9075
4248.00,0.9273
4247.00,0.9475
4246.00,0.9681
4245.00,0.9890
4244.00,1.0100
4243.00,1.0312
4242.00,1.0525
4241.00,1.0738
4240.00,1.0951
4239.00,1.1163
4238.00,1.1374
4237.00,1.1582
4236.00,1.1788
4235.00,1.1991
4234.00,1.2193
4233.00,1.2391
4232.00,1.2586
4231.00,1.2777
4230.00,1.2962
4229.00,1.3144
4228.00,1.3321
4227.00,1.3494
4226.00,1.3663
4225.00,1.3825
4224.00,1.3982
4223.00,1.4134
4222.00,1.4281
4221.00,1.4423
4220.00,1.4557
4219.00,1.4685
4218.00,1.4805
4217.00,1.4921
4216.00,1.5034
4215.00,1.5142
4214.00,1.5245
4213.00,1.5342
4212.00,1.5433
4211.00,1.5517
4210.00,1.5594
4209.00,1.5666
4208.00,1.5734
4207.00,1.5798
4206.00,1.5859
4205.00,1.5915
4204.00,1.5966
4203.00,1.6012
4202.00,1.6054
4201.00,1.6091
4200.00,1.6122
4199.00,1.6146
4198.00,1.6162
4197.00,1.6175
4196.00,1.6186
4195.00,1.6197
4194.00,1.6206
4193.00,1.6210
4192.00,1.6206
4191.00,1.6193
4190.00,1.6174
4189.00,1.6151
4188.00,1.6125
4187.00,1.6096
4186.00,1.6063
4185.00,1.6026
4184.00,1.5985
4183.00,1.5938
4182.00,1.5885
4181.00,1.5827
4180.00,1.5763
4179.00,1.5695
4178.00,1.5623
4177.00,1.5548
4176.00,1.5468
4175.00,1.5383
4174.00,1.5293
4173.00,1.5197
4172.00,1.5095
4171.00,1.4987
4170.00,1.4874
4169.00,1.4754
4168.00,1.4627
4167.00,1.4494
4166.00,1.4354
4165.00,1.4209
4164.00,1.4058
4163.00,1.3901
4162.00,1.3737
4161.00,1.3566
4160.00,1.3388
4159.00,1.3204
4158.00,1.3014
4157.00,1.2817
4156.00,1.2613
4155.00,1.2402
4154.00,1.2186
4153.00,1.1965
4152.00,1.1740
4151.00,1.1510
4150.00,1.1277
4149.00,1.1040
4148.00,1.0801
4147.00,1.0559
4146.00,1.0319
4145.00,1.0080
4144.00,0.9844
4143.00,0.9613
4142.00,0.9386
4141.00,0.9165
4140.00,0.8953
4139.00,0.8751
4138.00,0.8560
4137.00,0.8381
4136.00,0.8215
4135.00,0.8064
4134.00,0.7929
4133.00,0.7811
4132.00,0.7712
4131.00,0.7631
4130.00,0.7569
4129.00,0.7527
4128.00,0.7505
4127.00,0.7504
4126.00,0.7523
4125.00,0.7563
4124.00,0.7623
4123.00,0.7702
4122.00,0.7799
4121.00,0.7913
4120.00,0.8043
4119.00,0.8188
4118.00,0.8347
4117.00,0.8518
4116.00,0.8700
4115.00,0.8892
4114.00,0.9092
4113.00,0.9298
4112.00,0.9510
4111.00,0.9726
4110.00,0.9947
4109.00,1.0169
4108.00,1.0394
4107.00,1.0620
4106.00,1.0847
4105.00,1.1073
4104.00,1.1298
4103.00,1.1521
4102.00,1.1743
4101.00,1.1963
4100.00,1.2180
4099.00,1.2394
4098.00,1.2605
4097.00,1.2813
4096.00,1.3016
4095.00,1.3215
4094.00,1.3410
4093.00,1.3600
4092.00,1.3786
4091.00,1.3965
4090.00,1.4140
4089.00,1.4310
4088.00,1.4475
4087.00,1.4635
4086.00,1.4789
4085.00,1.4936
4084.00,1.5076
4083.00,1.5208
4082.00,1.5334
4081.00,1.5456
4080.00,1.5575
4079.00,1.5688
4078.00,1.5795
4077.00,1.5894
4076.00,1.5986
4075.00,1.6071
4074.00,1.6151
4073.00,1.6225
4072.00,1.6295
4071.00,1.6361
4070.00,1.6424
4069.00,1.6486
4068.00,1.6543
4067.00,1.6592
4066.00,1.6633
4065.00,1.6666
4064.00,1.6693
4063.00,1.6720
4062.00,1.6746
4061.00,1.6771
4060.00,1.6790
4059.00,1.6803
4058.00,1.6809
4057.00,1.6812
4056.00,1.6812
4055.00,1.6806
4054.00,1.6794
4053.00,1.6776
4052.00,1.6755
4051.00,1.6731
4050.00,1.6705
4049.00,1.6673
4048.00,1.6636
4047.00,1.6591
4046.00,1.6542
4045.00,1.6489
4044.00,1.6431
4043.00,1.6368
4042.00,1.6298
4041.00,1.6224
4040.00,1.6146
4039.00,1.6066
4038.00,1.5983
4037.00,1.5896
4036.00,1.5806
4035.00,1.5713
4034.00,1.5614
4033.00,1.5511
4032.00,1.5402
4031.00,1.5287
4030.00,1.5167
4029.00,1.5041
4028.00,1.4907
4027.00,1.4765
4026.00,1.4615
4025.00,1.4458
4024.00,1.4294
4023.00,1.4125
4022.00,1.3947
4021.00,1.3761
4020.00,1.3566
4019.00,1.3362
4018.00,1.3149
4017.00,1.2928
4016.00,1.2700
4015.00,1.2466
4014.00,1.2227
4013.00,1.1982
4012.00,1.1732
4011.00,1.1480
4010.00,1.1224
4009.00,1.0967
4008.00,1.0709
4007.00,1.0452
4006.00,1.0198
4005.00,0.9948
4004.00,0.9704
4003.00,0.9469
4002.00,0.9245
4001.00,0.9033
4000.00,0.8834
3999.00,0.8649
3998.00,0.8481
3997.00,0.8331
3996.00,0.8200
3995.00,0.8090
3994.00,0.8001
3993.00,0.7934
3992.00,0.7891
3991.00,0.7873
3990.00,0.7880
3989.00,0.7911
3988.00,0.7966
3987.00,0.8042
3986.00,0.8140
3985.00,0.8257
3984.00,0.8394
3983.00,0.8547
3982.00,0.8714
3981.00,0.8894
3980.00,0.9084
3979.00,0.9280
3978.00,0.9483
3977.00,0.9690
3976.00,0.9902
3975.00,1.0115
3974.00,1.0329
3973.00,1.0542
3972.00,1.0753
3971.00,1.0964
3970.00,1.1176
3969.00,1.1390
3968.00,1.1606
3967.00,1.1822
3966.00,1.2037
3965.00,1.2249
3964.00,1.2461
3963.00,1.2673
3962.00,1.2886
3961.00,1.3099
3960.00,1.3309
3959.00,1.3513
3958.00,1.3711
3957.00,1.3906
3956.00,1.4099
3955.00,1.4290
3954.00,1.4477
3953.00,1.4657
3952.00,1.4828
3951.00,1.4990
3950.00,1.5145
3949.00,1.5297
3948.00,1.5446
3947.00,1.5593
3946.00,1.5734
3945.00,1.5867
3944.00,1.5991
3943.00,1.6110
3942.00,1.6226
3941.00,1.6339
3940.00,1.6446
3939.00,1.6548
3938.00,1.6642
3937.00,1.6726
3936.00,1.6799
3935.00,1.6862
3934.00,1.6920
3933.00,1.6980
3932.00,1.7043
3931.00,1.7107
3930.00,1.7165
3929.00,1.7216
3928.00,1.7257
3927.00,1.7290
3926.00,1.7316
3925.00,1.7337
3924.00,1.7354
3923.00,1.7366
3922.00,1.7373
3921.00,1.7375
3920.00,1.7372
3919.00,1.7368
3918.00,1.7362
3917.00,1.7356
3916.00,1.7347
3915.00,1.7333
3914.00,1.7313
3913.00,1.7285
3912.00,1.7252
3911.00,1.7214
3910.00,1.7168
3909.00,1.7113
3908.00,1.7051
3907.00,1.6982
3906.00,1.6908
3905.00,1.6831
3904.00,1.6751
3903.00,1.6664
3902.00,1.6572
3901.00,1.6476
3900.00,1.6378
3899.00,1.6279
3898.00,1.6177
3897.00,1.6071
3896.00,1.5960
3895.00,1.5843
3894.00,1.5718
3893.00,1.5585
3892.00,1.5438
3891.00,1.5279
3890.00,1.5109
3889.00,1.4933
3888.00,1.4753
3887.00,1.4567
3886.00,1.4375
3885.00,1.4175
3884.00,1.3968
3883.00,1.3755
3882.00,1.3533
3881.00,1.3299
3880.00,1.3057
3879.00,1.2810
3878.00,1.2562
3877.00,1.2312
3876.00,1.2056
3875.00,1.1793
3874.00,1.1522
3873.00,1.1247
3872.00,1.0968
3871.00,1.0684
3870.00,1.0394
3869.00,1.0107
3868.00,0.9835
3867.00,0.9582
3866.00,0.9342
3865.00,0.9110
3864.00,0.8888
3863.00,0.8676
3862.00,0.8481
3861.00,0.8306
3860.00,0.8152
3859.00,0.8019
3858.00,0.7903
3857.00,0.7804
3856.00,0.7727
3855.00,0.7683
3854.00,0.7673
3853.00,0.7687
3852.00,0.7717
3851.00,0.7768
3850.00,0.7845
3849.00,0.7953
3848.00,0.8091
3847.00,0.8252
3846.00,0.8431
3845.00,0.8623
3844.00,0.8830
3843.00,0.9047
3842.00,0.9269
3841.00,0.9492
3840.00,0.9719
3839.00,0.9957
3838.00,1.0215
3837.00,1.0489
3836.00,1.0770
3835.00,1.1043
3834.00,1.1305
3833.00,1.1563
3832.00,1.1822
3831.00,1.2084
3830.00,1.2344
3829.00,1.2599
3828.00,1.2849
3827.00,1.3096
3826.00,1.3339
3825.00,1.3570
3824.00,1.3785
3823.00,1.3992
3822.00,1.4206
3821.00,1.4432
3820.00,1.4659
3819.00,1.4868
3818.00,1.5055
3817.00,1.5234
3816.00,1.5418
3815.00,1.5608
3814.00,1.5795
3813.00,1.5967
3812.00,1.6124
3811.00,1.6266
3810.00,1.6395
3809.00,1.6514
3808.00,1.6632
3807.00,1.6754
3806.00,1.6877
3805.00,1.6992
3804.00,1.7093
3803.00,1.7186
3802.00,1.7279
3801.00,1.7373
3800.00,1.7460
3799.00,1.7535
3798.00,1.7602
3797.00,1.7668
3796.00,1.7732
3795.00,1.7793
3794.00,1.7847
3793.00,1.7892
3792.00,1.7929
3791.00,1.7960
3790.00,1.7988
3789.00,1.8012
3788.00,1.8032
3787.00,1.8049
3786.00,1.8065
3785.00,1.8078
3784.00,1.8083
3783.00,1.8079
3782.00,1.8069
3781.00,1.8053
3780.00,1.8031
3779.00,1.8004
3778.00,1.7974
3777.00,1.7939
3776.00,1.7899
3775.00,1.7856
3774.00,1.7812
3773.00,1.7768
3772.00,1.7722
3771.00,1.7669
3770.00,1.7606
3769.00,1.7531
3768.00,1.7445
3767.00,1.7352
3766.00,1.7257
3765.00,1.7159
3764.00,1.7058
3763.00,1.6956
3762.00,1.6851
3761.00,1.6739
3760.00,1.6614
3759.00,1.6476
3758.00,1.6330
3757.00,1.6178
3756.00,1.6021
3755.00,1.5859
3754.00,1.5690
3753.00,1.5512
3752.00,1.5317
3751.00,1.5098
3750.00,1.4858
3749.00,1.4607
3748.00,1.4357
3747.00,1.4108
3746.00,1.3853
3745.00,1.3582
3744.00,1.3296
3743.00,1.3010
3742.00,1.2736
3741.00,1.2471
3740.00,1.2208
3739.00,1.1940
3738.00,1.1666
3737.00,1.1386
3736.00,1.1104
3735.00,1.0826
3734.00,1.0559
3733.00,1.0304
3732.00,1.0062
3731.00,0.9839
3730.00,0.9636
3729.00,0.9454
3728.00,0.9289
3727.00,0.9139
3726.00,0.9004
3725.00,0.8884
3724.00,0.8778
3723.00,0.8686
3722.00,0.8608
3721.00,0.8545
3720.00,0.8499
3719.00,0.8473
3718.00,0.8467
3717.00,0.8481
3716.00,0.8525
3715.00,0.8608
3714.00,0.8740
3713.00,0.8916
3712.00,0.9125
3711.00,0.9355
3710.00,0.9605
3709.00,0.9880
3708.00,1.0176
3707.00,1.0484
3706.00,1.0791
3705.00,1.1093
3704.00,1.1390
3703.00,1.1687
3702.00,1.1986
3701.00,1.2289
3700.00,1.2588
3699.00,1.2876
3698.00,1.3152
3697.00,1.3418
3696.00,1.3677
3695.00,1.3927
3694.00,1.4167
3693.00,1.4396
3692.00,1.4616
3691.00,1.4829
3690.00,1.5040
3689.00,1.5261
3688.00,1.5496
3687.00,1.5738
3686.00,1.5964
3685.00,1.6168
3684.00,1.6353
3683.00,1.6529
3682.00,1.6697
3681.00,1.6860
3680.00,1.7015
3679.00,1.7157
3678.00,1.7286
3677.00,1.7412
3676.00,1.7543
3675.00,1.7680
3674.00,1.7811
3673.00,1.7926
3672.00,1.8027
3671.00,1.8127
3670.00,1.8232
3669.00,1.8339
3668.00,1.8440
3667.00,1.8533
3666.00,1.8618
3665.00,1.8697
3664.00,1.8771
3663.00,1.8839
3662.00,1.8900
3661.00,1.8952
3660.00,1.8995
3659.00,1.9027
3658.00,1.9053
3657.00,1.9079
3656.00,1.9107
3655.00,1.9133
3654.00,1.9151
3653.00,1.9160
3652.00,1.9166
3651.00,1.9173
3650.00,1.9178
3649.00,1.9175
3648.00,1.9167
3647.00,1.9160
3646.00,1.9154
3645.00,1.9146
3644.00,1.9130
3643.00,1.9110
3642.00,1.9088
3641.00,1.9067
3640.00,1.9042
3639.00,1.9011
3638.00,1.8973
3637.00,1.8933
3636.00,1.8893
3635.00,1.8853
3634.00,1.8809
3633.00,1.8759
3632.00,1.8704
3631.00,1.8647
3630.00,1.8595
3629.00,1.8547
3628.00,1.8501
3627.00,1.8453
3626.00,1.8402
3625.00,1.8345
3624.00,1.8281
3623.00,1.8208
3622.00,1.8123
3621.00,1.8023
3620.00,1.7908
3619.00,1.7778
3618.00,1.7637
3617.00,1.7485
3616.00,1.7321
3615.00,1.7144
3614.00,1.6960
3613.00,1.6775
3612.00,1.6594
3611.00,1.6415
3610.00,1.6235
3609.00,1.6055
3608.00,1.5881
3607.00,1.5717
3606.00,1.5559
3605.00,1.5400
3604.00,1.5234
3603.00,1.5060
3602.00,1.4875
3601.00,1.4679
3600.00,1.4471
3599.00,1.4253
3598.00,1.4029
3597.00,1.3800
3596.00,1.3571
3595.00,1.3343
3594.00,1.3121
3593.00,1.2902
3592.00,1.2688
3591.00,1.2481
3590.00,1.2283
3589.00,1.2097
3588.00,1.1926
3587.00,1.1771
3586.00,1.1635
3585.00,1.1518
3584.00,1.1422
3583.00,1.1347
3582.00,1.1293
3581.00,1.1261
3580.00,1.1248
3579.00,1.1255
3578.00,1.1281
3577.00,1.1326
3576.00,1.1391
3575.00,1.1474
3574.00,1.1573
3573.00,1.1688
3572.00,1.1815
3571.00,1.1950
3570.00,1.2097
3569.00,1.2259
3568.00,1.2443
3567.00,1.2647
3566.00,1.2865
3565.00,1.3084
3564.00,1.3300
3563.00,1.3512
3562.00,1.3723
3561.00,1.3938
3560.00,1.4155
3559.00,1.4373
3558.00,1.4588
3557.00,1.4800
3556.00,1.5008
3555.00,1.5214
3554.00,1.5419
3553.00,1.5623
3552.00,1.5825
3551.00,1.6020
3550.00,1.6205
3549.00,1.6379
3548.00,1.6548
3547.00,1.6717
3546.00,1.6888
3545.00,1.7059
3544.00,1.7223
3543.00,1.7376
3542.00,1.7520
3541.00,1.7657
3540.00,1.7789
3539.00,1.7917
3538.00,1.8040
3537.00,1.8160
3536.00,1.8274
3535.00,1.8384
3534.00,1.8489
3533.00,1.8591
3532.00,1.8693
3531.00,1.8792
3530.00,1.8886
3529.00,1.8969
3528.00,1.9042
3527.00,1.9107
3526.00,1.9168
3525.00,1.9232
3524.00,1.9298
3523.00,1.9364
3522.00,1.9429
3521.00,1.9488
3520.00,1.9542
3519.00,1.9588
3518.00,1.9630
3517.00,1.9673
3516.00,1.9717
3515.00,1.9755
3514.00,1.9781
3513.00,1.9794
3512.00,1.9798
3511.00,1.9800
3510.00,1.9808
3509.00,1.9822
3508.00,1.9835
3507.00,1.9842
3506.00,1.9841
3505.00,1.9833
3504.00,1.9818
3503.00,1.9797
3502.00,1.9771
3501.00,1.9741
3500.00,1.9709
3499.00,1.9673
3498.00,1.9632
3497.00,1.9588
3496.00,1.9540
3495.00,1.9485
3494.00,1.9421
3493.00,1.9352
3492.00,1.9281
3491.00,1.9211
3490.00,1.9140
3489.00,1.9064
3488.00,1.8980
3487.00,1.8888
3486.00,1.8788
3485.00,1.8682
3484.00,1.8570
3483.00,1.8453
3482.00,1.8332
3481.00,1.8204
3480.00,1.8067
3479.00,1.7922
3478.00,1.7771
3477.00,1.7617
3476.00,1.7458
3475.00,1.7291
3474.00,1.7114
3473.00,1.6930
3472.00,1.6738
3471.00,1.6538
3470.00,1.6330
3469.00,1.6113
3468.00,1.5888
3467.00,1.5656
3466.00,1.5418
3465.00,1.5176
3464.00,1.4929
3463.00,1.4675
3462.00,1.4415
3461.00,1.4148
3460.00,1.3878
3459.00,1.3607
3458.00,1.3336
3457.00,1.3068
3456.00,1.2802
3455.00,1.2541
3454.00,1.2284
3453.00,1.2037
3452.00,1.1799
3451.00,1.1575
3450.00,1.1365
3449.00,1.1172
3448.00,1.0996
3447.00,1.0840
3446.00,1.0704
3445.00,1.0592
3444.00,1.0504
3443.00,1.0443
3442.00,1.0408
3441.00,1.0400
3440.00,1.0417
3439.00,1.0461
3438.00,1.0530
3437.00,1.0625
3436.00,1.0742
3435.00,1.0881
3434.00,1.1039
3433.00,1.1216
3432.00,1.1409
3431.00,1.1616
3430.00,1.1836
3429.00,1.2066
3428.00,1.2304
3427.00,1.2549
3426.00,1.2800
3425.00,1.3054
3424.00,1.3310
3423.00,1.3567
3422.00,1.3826
3421.00,1.4088
3420.00,1.4350
3419.00,1.4611
3418.00,1.4868
3417.00,1.5119
3416.00,1.5367
3415.00,1.5609
3414.00,1.5849
3413.00,1.6084
3412.00,1.6313
3411.00,1.6533
3410.00,1.6744
3409.00,1.6948
3408.00,1.7145
3407.00,1.7337
3406.00,1.7523
3405.00,1.7701
3404.00,1.7872
3403.00,1.8035
3402.00,1.8191
3401.00,1.8339
3400.00,1.8479
3399.00,1.8613
3398.00,1.8743
3397.00,1.8867
3396.00,1.8984
3395.00,1.9095
3394.00,1.9201
3393.00,1.9302
3392.00,1.9398
3391.00,1.9486
3390.00,1.9569
3389.00,1.9647
3388.00,1.9722
3387.00,1.9794
3386.00,1.9863
3385.00,1.9929
3384.00,1.9991
3383.00,2.0049
3382.00,2.0103
3381.00,2.0153
3380.00,2.0196
3379.00,2.0230
3378.00,2.0254
3377.00,2.0271
3376.00,2.0287
3375.00,2.0304
3374.00,2.0319
3373.00,2.0331
3372.00,2.0337
3371.00,2.0335
3370.00,2.0328
3369.00,2.0316
3368.00,2.0300
3367.00,2.0277
3366.00,2.0248
3365.00,2.0216
3364.00,2.0181
3363.00,2.0142
3362.00,2.0097
3361.00,2.0048
3360.00,1.9995
3359.00,1.9936
3358.00,1.9872
3357.00,1.9805
3356.00,1.9737
3355.00,1.9666
3354.00,1.9587
3353.00,1.9499
3352.00,1.9405
3351.00,1.9306
3350.00,1.9201
3349.00,1.9087
3348.00,1.8965
3347.00,1.8838
3346.00,1.8706
3345.00,1.8571
3344.00,1.8431
3343.00,1.8284
3342.00,1.8130
3341.00,1.7969
3340.00,1.7800
3339.00,1.7623
3338.00,1.7437
3337.00,1.7242
3336.00,1.7041
3335.00,1.6833
3334.00,1.6620
3333.00,1.6401
3332.00,1.6174
3331.00,1.5938
3330.00,1.5694
3329.00,1.5443
3328.00,1.5189
3327.00,1.4930
3326.00,1.4667
3325.00,1.4400
3324.00,1.4128
3323.00,1.3852
3322.00,1.3575
3321.00,1.3296
3320.00,1.3018
3319.00,1.2744
3318.00,1.2476
3317.00,1.2217
3316.00,1.1969
3315.00,1.1734
3314.00,1.1516
3313.00,1.1317
3312.00,1.1139
3311.00,1.0985
3310.00,1.0856
3309.00,1.0753
3308.00,1.0676
3307.00,1.0628
3306.00,1.0608
3305.00,1.0617
3304.00,1.0654
3303.00,1.0720
3302.00,1.0813
3301.00,1.0931
3300.00,1.1072
3299.00,1.1235
3298.00,1.1417
3297.00,1.1615
3296.00,1.1829
3295.00,1.2056
3294.00,1.2294
3293.00,1.2542
3292.00,1.2796
3291.00,1.3056
3290.00,1.3320
3289.00,1.3585
3288.00,1.3852
3287.00,1.4119
3286.00,1.4387
3285.00,1.4655
3284.00,1.4923
3283.00,1.5188
3282.00,1.5450
3281.00,1.5706
3280.00,1.5958
3279.00,1.6204
3278.00,1.6444
3277.00,1.6677
3276.00,1.6906
3275.00,1.7128
3274.00,1.7343
3273.00,1.7549
3272.00,1.7748
3271.00,1.7941
3270.00,1.8130
3269.00,1.8312
3268.00,1.8487
3267.00,1.8653
3266.00,1.8812
3265.00,1.8964
3264.00,1.9111
3263.00,1.9254
3262.00,1.9391
3261.00,1.9518
3260.00,1.9633
3259.00,1.9739
3258.00,1.9840
3257.00,1.9941
3256.00,2.0040
3255.00,2.0138
3254.00,2.0232
3253.00,2.0320
3252.00,2.0400
3251.00,2.0471
3250.00,2.0536
3249.00,2.0597
3248.00,2.0653
3247.00,2.0702
3246.00,2.0746
3245.00,2.0787
3244.00,2.0827
3243.00,2.0861
3242.00,2.0888
3241.00,2.0907
3240.00,2.0921
3239.00,2.0934
3238.00,2.0947
3237.00,2.0960
3236.00,2.0971
3235.00,2.0976
3234.00,2.0973
3233.00,2.0963
3232.00,2.0947
3231.00,2.0926
3230.00,2.0900
3229.00,2.0869
3228.00,2.0832
3227.00,2.0790
3226.00,2.0743
3225.00,2.0692
3224.00,2.0637
3223.00,2.0578
3222.00,2.0513
3221.00,2.0442
3220.00,2.0365
3219.00,2.0282
3218.00,2.0193
3217.00,2.0100
3216.00,2.0002
3215.00,1.9899
3214.00,1.9791
3213.00,1.9678
3212.00,1.9559
3211.00,1.9438
3210.00,1.9316
3209.00,1.9192
3208.00,1.9065
3207.00,1.8932
3206.00,1.8797
3205.00,1.8658
3204.00,1.8518
3203.00,1.8377
3202.00,1.8233
3201.00,1.8084
3200.00,1.7923
3199.00,1.7745
3198.00,1.7547
3197.00,1.7329
3196.00,1.7093
3195.00,1.6842
3194.00,1.6580
3193.00,1.6311
3192.00,1.6035
3191.00,1.5753
3190.00,1.5466
3189.00,1.5174
3188.00,1.4882
3187.00,1.4589
3186.00,1.4300
3185.00,1.4015
3184.00,1.3738
3183.00,1.3472
3182.00,1.3222
3181.00,1.2990
3180.00,1.2783
3179.00,1.2603
3178.00,1.2457
3177.00,1.2349
3176.00,1.2284
3175.00,1.2266
3174.00,1.2302
3173.00,1.2394
3172.00,1.2548
3171.00,1.2763
3170.00,1.3038
3169.00,1.3363
3168.00,1.3723
3167.00,1.4086
3166.00,1.4411
3165.00,1.4650
3164.00,1.4761
3163.00,1.4728
3162.00,1.4576
3161.00,1.4358
3160.00,1.4134
3159.00,1.3951
3158.00,1.3834
3157.00,1.3793
3156.00,1.3825
3155.00,1.3921
3154.00,1.4071
3153.00,1.4262
3152.00,1.4483
3151.00,1.4724
3150.00,1.4979
3149.00,1.5242
3148.00,1.5510
3147.00,1.5779
3146.00,1.6046
3145.00,1.6312
3144.00,1.6574
3143.00,1.6831
3142.00,1.7082
3141.00,1.7328
3140.00,1.7568
3139.00,1.7804
3138.00,1.8034
3137.00,1.8257
3136.00,1.8471
3135.00,1.8676
3134.00,1.8874
3133.00,1.9063
3132.00,1.9243
3131.00,1.9413
3130.00,1.9576
3129.00,1.9734
3128.00,1.9889
3127.00,2.0039
3126.00,2.0183
3125.00,2.0318
3124.00,2.0444
3123.00,2.0559
3122.00,2.0666
3121.00,2.0768
3120.00,2.0865
3119.00,2.0961
3118.00,2.1057
3117.00,2.1148
3116.00,2.1232
3115.00,2.1306
3114.00,2.1374
3113.00,2.1440
3112.00,2.1502
3111.00,2.1557
3110.00,2.1604
3109.00,2.1644
3108.00,2.1678
3107.00,2.1709
3106.00,2.1739
3105.00,2.1768
3104.00,2.1799
3103.00,2.1826
3102.00,2.1844
3101.00,2.1852
3100.00,2.1853
3099.00,2.1850
3098.00,2.1845
3097.00,2.1836
3096.00,2.1819
3095.00,2.1795
3094.00,2.1766
3093.00,2.1732
3092.00,2.1695
3091.00,2.1654
3090.00,2.1608
3089.00,2.1562
3088.00,2.1516
3087.00,2.1469
3086.00,2.1418
3085.00,2.1362
3084.00,2.1301
3083.00,2.1232
3082.00,2.1154
3081.00,2.1065
3080.00,2.0966
3079.00,2.0859
3078.00,2.0744
3077.00,2.0626
3076.00,2.0506
3075.00,2.0386
3074.00,2.0261
3073.00,2.0129
3072.00,1.9988
3071.00,1.9843
3070.00,1.9694
3069.00,1.9541
3068.00,1.9382
3067.00,1.9215
3066.00,1.9041
3065.00,1.8857
3064.00,1.8663
3063.00,1.8461
3062.00,1.8254
3061.00,1.8047
3060.00,1.7839
3059.00,1.7627
3058.00,1.7408
3057.00,1.7181
3056.00,1.6948
3055.00,1.6713
3054.00,1.6481
3053.00,1.6249
3052.00,1.6017
3051.00,1.5787
3050.00,1.5563
3049.00,1.5346
3048.00,1.5138
3047.00,1.4939
3046.00,1.4752
3045.00,1.4580
3044.00,1.4428
3043.00,1.4297
3042.00,1.4190
3041.00,1.4107
3040.00,1.4050
3039.00,1.4020
3038.00,1.4015
3037.00,1.4036
3036.00,1.4084
3035.00,1.4159
3034.00,1.4261
3033.00,1.4387
3032.00,1.4537
3031.00,1.4706
3030.00,1.4892
3029.00,1.5096
3028.00,1.5314
3027.00,1.5545
3026.00,1.5787
3025.00,1.6040
3024.00,1.6300
3023.00,1.6566
3022.00,1.6836
3021.00,1.7107
3020.00,1.7379
3019.00,1.7650
3018.00,1.7919
3017.00,1.8187
3016.00,1.8452
3015.00,1.8715
3014.00,1.8974
3013.00,1.9228
3012.00,1.9473
3011.00,1.9708
3010.00,1.9928
3009.00,2.0135
3008.00,2.0329
3007.00,2.0511
3006.00,2.0678
3005.00,2.0826
3004.00,2.0953
3003.00,2.1058
3002.00,2.1143
3001.00,2.1213
3000.00,2.1275
2999.00,2.1332
2998.00,2.1388
2997.00,2.1442
2996.00,2.1498
2995.00,2.1557
2994.00,2.1621
2993.00,2.1691
2992.00,2.1762
2991.00,2.1831
2990.00,2.1901
2989.00,2.1979
2988.00,2.2070
2987.00,2.2175
2986.00,2.2285
2985.00,2.2392
2984.00,2.2490
2983.00,2.2581
2982.00,2.2673
2981.00,2.2768
2980.00,2.2863
2979.00,2.2953
2978.00,2.3035
2977.00,2.3112
2976.00,2.3187
2975.00,2.3261
2974.00,2.3335
2973.00,2.3408
2972.00,2.3480
2971.00,2.3553
2970.00,2.3628
2969.00,2.3709
2968.00,2.3792
2967.00,2.3867
2966.00,2.3927
2965.00,2.3974
2964.00,2.4017
2963.00,2.4061
2962.00,2.4110
2961.00,2.4165
2960.00,2.4225
2959.00,2.4288
2958.00,2.4351
2957.00,2.4413
2956.00,2.4476
2955.00,2.4544
2954.00,2.4620
2953.00,2.4712
2952.00,2.4823
2951.00,2.4954
2950.00,2.5102
2949.00,2.5258
2948.00,2.5417
2947.00,2.5582
2946.00,2.5752
2945.00,2.5915
2944.00,2.6038
2943.00,2.6085
2942.00,2.6043
2941.00,2.5934
2940.00,2.5789
2939.00,2.5624
2938.00,2.5441
2937.00,2.5247
2936.00,2.5055
2935.00,2.4883
2934.00,2.4734
2933.00,2.4601
2932.00,2.4472
2931.00,2.4333
2930.00,2.4178
2929.00,2.4014
2928.00,2.3857
2927.00,2.3715
2926.00,2.3583
2925.00,2.3449
2924.00,2.3306
2923.00,2.3153
2922.00,2.2991
2921.00,2.2822
2920.00,2.2649
2919.00,2.2475
2918.00,2.2300
2917.00,2.2125
2916.00,2.1950
2915.00,2.1775
2914.00,2.1597
2913.00,2.1414
2912.00,2.1225
2911.00,2.1027
2910.00,2.0822
2909.00,2.0610
2908.00,2.0393
2907.00,2.0170
2906.00,1.9942
2905.00,1.9707
2904.00,1.9465
2903.00,1.9216
2902.00,1.8959
2901.00,1.8696
2900.00,1.8426
2899.00,1.8154
2898.00,1.7880
2897.00,1.7604
2896.00,1.7327
2895.00,1.7052
2894.00,1.6781
2893.00,1.6521
2892.00,1.6275
2891.00,1.6048
2890.00,1.5845
2889.00,1.5671
2888.00,1.5530
2887.00,1.5429
2886.00,1.5368
2885.00,1.5349
2884.00,1.5371
2883.00,1.5434
2882.00,1.5537
2881.00,1.5678
2880.00,1.5855
2879.00,1.6063
2878.00,1.6298
2877.00,1.6556
2876.00,1.6829
2875.00,1.7108
2874.00,1.7383
2873.00,1.7645
2872.00,1.7883
2871.00,1.8090
2870.00,1.8262
2869.00,1.8397
2868.00,1.8496
2867.00,1.8564
2866.00,1.8610
2865.00,1.8637
2864.00,1.8647
2863.00,1.8644
2862.00,1.8632
2861.00,1.8616
2860.00,1.8601
2859.00,1.8589
2858.00,1.8591
2857.00,1.8617
2856.00,1.8671
2855.00,1.8754
2854.00,1.8861
2853.00,1.8990
2852.00,1.9138
2851.00,1.9305
2850.00,1.9490
2849.00,1.9685
2848.00,1.9885
2847.00,2.0084
2846.00,2.0284
2845.00,2.0484
2844.00,2.0686
2843.00,2.0886
2842.00,2.1077
2841.00,2.1256
2840.00,2.1422
2839.00,2.1578
2838.00,2.1728
2837.00,2.1876
2836.00,2.2024
2835.00,2.2169
2834.00,2.2307
2833.00,2.2433
2832.00,2.2545
2831.00,2.2642
2830.00,2.2729
2829.00,2.2815
2828.00,2.2902
2827.00,2.2989
2826.00,2.3072
2825.00,2.3151
2824.00,2.3224
2823.00,2.3287
2822.00,2.3338
2821.00,2.3381
2820.00,2.3416
2819.00,2.3447
2818.00,2.3472
2817.00,2.3494
2816.00,2.3514
2815.00,2.3534
2814.00,2.3550
2813.00,2.3566
2812.00,2.3579
2811.00,2.3585
2810.00,2.3577
2809.00,2.3556
2808.00,2.3528
2807.00,2.3502
2806.00,2.3480
2805.00,2.3456
2804.00,2.3426
2803.00,2.3385
2802.00,2.3337
2801.00,2.3281
2800.00,2.3217
2799.00,2.3141
2798.00,2.3058
2797.00,2.2975
2796.00,2.2897
2795.00,2.2823
2794.00,2.2744
2793.00,2.2651
2792.00,2.2543
2791.00,2.2424
2790.00,2.2298
2789.00,2.2170
2788.00,2.2041
2787.00,2.1907
2786.00,2.1765
2785.00,2.1611
2784.00,2.1445
2783.00,2.1269
2782.00,2.1084
2781.00,2.0890
2780.00,2.0687
2779.00,2.0472
2778.00,2.0244
2777.00,2.0002
2776.00,1.9751
2775.00,1.9492
2774.00,1.9223
2773.00,1.8940
2772.00,1.8640
2771.00,1.8324
2770.00,1.7995
2769.00,1.7654
2768.00,1.7300
2767.00,1.6932
2766.00,1.6545
2765.00,1.6143
2764.00,1.5728
2763.00,1.5306
2762.00,1.4880
2761.00,1.4453
2760.00,1.4029
2759.00,1.3612
2758.00,1.3209
2757.00,1.2826
2756.00,1.2468
2755.00,1.2142
2754.00,1.1852
2753.00,1.1603
2752.00,1.1398
2751.00,1.1243
2750.00,1.1139
2749.00,1.1089
2748.00,1.1096
2747.00,1.1156
2746.00,1.1269
2745.00,1.1431
2744.00,1.1639
2743.00,1.1886
2742.00,1.2167
2741.00,1.2477
2740.00,1.2811
2739.00,1.3163
2738.00,1.3528
2737.00,1.3903
2736.00,1.4284
2735.00,1.4670
2734.00,1.5056
2733.00,1.5442
2732.00,1.5824
2731.00,1.6203
2730.00,1.6577
2729.00,1.6946
2728.00,1.7310
2727.00,1.7666
2726.00,1.8012
2725.00,1.8348
2724.00,1.8674
2723.00,1.8990
2722.00,1.9296
2721.00,1.9592
2720.00,1.9876
2719.00,2.0149
2718.00,2.0408
2717.00,2.0656
2716.00,2.0893
2715.00,2.1121
2714.00,2.1336
2713.00,2.1537
2712.00,2.1723
2711.00,2.1903
2710.00,2.2078
2709.00,2.2246
2708.00,2.2402
2707.00,2.2550
2706.00,2.2696
2705.00,2.2844
2704.00,2.2992
2703.00,2.3134
2702.00,2.3263
2701.00,2.3377
2700.00,2.3473
2699.00,2.3555
2698.00,2.3627
2697.00,2.3697
2696.00,2.3771
2695.00,2.3852
2694.00,2.3941
2693.00,2.4029
2692.00,2.4105
2691.00,2.4165
2690.00,2.4211
2689.00,2.4249
2688.00,2.4280
2687.00,2.4305
2686.00,2.4326
2685.00,2.4344
2684.00,2.4360
2683.00,2.4374
2682.00,2.4384
2681.00,2.4394
2680.00,2.4404
2679.00,2.4410
2678.00,2.4413
2677.00,2.4410
2676.00,2.4400
2675.00,2.4377
2674.00,2.4343
2673.00,2.4306
2672.00,2.4272
2671.00,2.4243
2670.00,2.4212
2669.00,2.4172
2668.00,2.4122
2667.00,2.4062
2666.00,2.3995
2665.00,2.3920
2664.00,2.3840
2663.00,2.3756
2662.00,2.3667
2661.00,2.3570
2660.00,2.3465
2659.00,2.3355
2658.00,2.3243
2657.00,2.3131
2656.00,2.3016
2655.00,2.2897
2654.00,2.2772
2653.00,2.2637
2652.00,2.2484
2651.00,2.2308
2650.00,2.2116
2649.00,2.1916
2648.00,2.1716
2647.00,2.1514
2646.00,2.1303
2645.00,2.1077
2644.00,2.0836
2643.00,2.0583
2642.00,2.0317
2641.00,2.0036
2640.00,1.9738
2639.00,1.9422
2638.00,1.9092
2637.00,1.8748
2636.00,1.8392
2635.00,1.8031
2634.00,1.7673
2633.00,1.7330
2632.00,1.7016
2631.00,1.6737
2630.00,1.6494
2629.00,1.6271
2628.00,1.6045
2627.00,1.5790
2626.00,1.5487
2625.00,1.5134
2624.00,1.4742
2623.00,1.4327
2622.00,1.3907
2621.00,1.3498
2620.00,1.3111
2619.00,1.2756
2618.00,1.2440
2617.00,1.2170
2616.00,1.1950
2615.00,1.1787
2614.00,1.1684
2613.00,1.1643
2612.00,1.1666
2611.00,1.1753
2610.00,1.1900
2609.00,1.2103
2608.00,1.2358
2607.00,1.2656
2606.00,1.2990
2605.00,1.3352
2604.00,1.3737
2603.00,1.4138
2602.00,1.4551
2601.00,1.4971
2600.00,1.5394
2599.00,1.5819
2598.00,1.6241
2597.00,1.6660
2596.00,1.7074
2595.00,1.7482
2594.00,1.7880
2593.00,1.8269
2592.00,1.8649
2591.00,1.9020
2590.00,1.9380
2589.00,1.9727
2588.00,2.0059
2587.00,2.0373
2586.00,2.0669
2585.00,2.0945
2584.00,2.1208
2583.00,2.1461
2582.00,2.1708
2581.00,2.1944
2580.00,2.2164
2579.00,2.2366
2578.00,2.2556
2577.00,2.2738
2576.00,2.2915
2575.00,2.3092
2574.00,2.3271
2573.00,2.3445
2572.00,2.3606
2571.00,2.3747
2570.00,2.3870
2569.00,2.3984
2568.00,2.4095
2567.00,2.4208
2566.00,2.4322
2565.00,2.4433
2564.00,2.4537
2563.00,2.4632
2562.00,2.4720
2561.00,2.4803
2560.00,2.4879
2559.00,2.4947
2558.00,2.5006
2557.00,2.5062
2556.00,2.5123
2555.00,2.5187
2554.00,2.5243
2553.00,2.5278
2552.00,2.5292
2551.00,2.5301
2550.00,2.5322
2549.00,2.5355
2548.00,2.5389
2547.00,2.5413
2546.00,2.5427
2545.00,2.5431
2544.00,2.5423
2543.00,2.5400
2542.00,2.5372
2541.00,2.5352
2540.00,2.5337
2539.00,2.5317
2538.00,2.5281
2537.00,2.5236
2536.00,2.5195
2535.00,2.5161
2534.00,2.5127
2533.00,2.5082
2532.00,2.5024
2531.00,2.4954
2530.00,2.4875
2529.00,2.4791
2528.00,2.4706
2527.00,2.4619
2526.00,2.4527
2525.00,2.4424
2524.00,2.4310
2523.00,2.4190
2522.00,2.4069
2521.00,2.3946
2520.00,2.3818
2519.00,2.3685
2518.00,2.3545
2517.00,2.3397
2516.00,2.3238
2515.00,2.3065
2514.00,2.2882
2513.00,2.2689
2512.00,2.2488
2511.00,2.2279
2510.00,2.2063
2509.00,2.1839
2508.00,2.1601
2507.00,2.1343
2506.00,2.1068
2505.00,2.0781
2504.00,2.0486
2503.00,2.0177
2502.00,1.9849
2501.00,1.9499
2500.00,1.9130
2499.00,1.8746
2498.00,1.8349
2497.00,1.7936
2496.00,1.7507
2495.00,1.7064
2494.00,1.6612
2493.00,1.6153
2492.00,1.5692
2491.00,1.5236
2490.00,1.4791
2489.00,1.4362
2488.00,1.3955
2487.00,1.3577
2486.00,1.3233
2485.00,1.2930
2484.00,1.2674
2483.00,1.2468
2482.00,1.2317
2481.00,1.2225
2480.00,1.2193
2479.00,1.2223
2478.00,1.2313
2477.00,1.2460
2476.00,1.2661
2475.00,1.2910
2474.00,1.3203
2473.00,1.3533
2472.00,1.3892
2471.00,1.4275
2470.00,1.4675
2469.00,1.5089
2468.00,1.5513
2467.00,1.5942
2466.00,1.6375
2465.00,1.6807
2464.00,1.7236
2463.00,1.7660
2462.00,1.8079
2461.00,1.8491
2460.00,1.8896
2459.00,1.9290
2458.00,1.9673
2457.00,2.0044
2456.00,2.0404
2455.00,2.0749
2454.00,2.1079
2453.00,2.1394
2452.00,2.1693
2451.00,2.1976
2450.00,2.2245
2449.00,2.2500
2448.00,2.2743
2447.00,2.2977
2446.00,2.3204
2445.00,2.3422
2444.00,2.3624
2443.00,2.3808
2442.00,2.3982
2441.00,2.4153
2440.00,2.4321
2439.00,2.4480
2438.00,2.4626
2437.00,2.4763
2436.00,2.4893
2435.00,2.5017
2434.00,2.5135
2433.00,2.5251
2432.00,2.5368
2431.00,2.5487
2430.00,2.5606
2429.00,2.5714
2428.00,2.5799
2427.00,2.5861
2426.00,2.5916
2425.00,2.5982
2424.00,2.6057
2423.00,2.6129
2422.00,2.6192
2421.00,2.6252
2420.00,2.6313
2419.00,2.6366
2418.00,2.6401
2417.00,2.6415
2416.00,2.6416
2415.00,2.6418
2414.00,2.6428
2413.00,2.6449
2412.00,2.6477
2411.00,2.6505
2410.00,2.6526
2409.00,2.6532
2408.00,2.6516
2407.00,2.6484
2406.00,2.6453
2405.00,2.6433
2404.00,2.6421
2403.00,2.6404
2402.00,2.6381
2401.00,2.6352
2400.00,2.6314
2399.00,2.6261
2398.00,2.6190
2397.00,2.6113
2396.00,2.6044
2395.00,2.5986
2394.00,2.5930
2393.00,2.5865
2392.00,2.5777
2391.00,2.5668
2390.00,2.5553
2389.00,2.5442
2388.00,2.5337
2387.00,2.5239
2386.00,2.5094
2385.00,2.5033
2384.00,2.4765
2383.00,2.4827
2382.00,2.4284
2381.00,2.4871
2380.00,2.2460
2379.00,2.0832
2378.00,2.0580
2377.00,1.9982
2376.00,1.9666
2375.00,1.9335
2374.00,1.9126
2373.00,1.8944
2372.00,1.8783
2371.00,1.8603
2370.00,1.8398
2369.00,1.8176
2368.00,1.7938
2367.00,1.7687
2366.00,1.7449
2365.00,1.7237
2364.00,1.7032
2363.00,1.6835
2362.00,1.6664
2361.00,1.6486
2360.00,1.6288
2359.00,1.6075
2358.00,1.5869
2357.00,1.5732
2356.00,1.5643
2355.00,1.5597
2354.00,1.5580
2353.00,1.5540
2352.00,1.5419
2351.00,1.5216
2350.00,1.5131
2349.00,1.5221
2348.00,1.5317
2347.00,1.5250
2346.00,1.5034
2345.00,1.4930
2344.00,1.5027
2343.00,1.5245
2342.00,1.5404
2341.00,1.5408
2340.00,1.5379
2339.00,1.5374
2338.00,1.5437
2337.00,1.5526
2336.00,1.5623
2335.00,1.5710
2334.00,1.5804
2333.00,1.5882
2332.00,1.5949
2331.00,1.5988
2330.00,1.6082
2329.00,1.6251
2328.00,1.6501
2327.00,1.6836
2326.00,1.7158
2325.00,1.7455
2324.00,1.7657
2323.00,1.7844
2322.00,1.8067
2321.00,1.8337
2320.00,1.8646
2319.00,1.8945
2318.00,1.9261
2317.00,1.9573
2316.00,1.9889
2315.00,2.0174
2314.00,2.0425
2313.00,2.0667
2312.00,2.0872
2311.00,2.1164
2310.00,2.1341
2309.00,2.1790
2308.00,2.1775
2307.00,2.3772
2306.00,2.8097
2305.00,2.4154
2304.00,2.3274
2303.00,2.4001
2302.00,2.4226
2301.00,2.4740
2300.00,2.5039
2299.00,2.5447
2298.00,2.5764
2297.00,2.6121
2296.00,2.6473
2295.00,2.6833
2294.00,2.7162
2293.00,2.7416
2292.00,2.7539
2291.00,2.7539
2290.00,2.7454
2289.00,2.7347
2288.00,2.7253
2287.00,2.7195
2286.00,2.7176
2285.00,2.7184
2284.00,2.7208
2283.00,2.7244
2282.00,2.7295
2281.00,2.7356
2280.00,2.7417
2279.00,2.7471
2278.00,2.7519
2277.00,2.7558
2276.00,2.7581
2275.00,2.7583
2274.00,2.7571
2273.00,2.7548
2272.00,2.7500
2271.00,2.7413
2270.00,2.7288
2269.00,2.7142
2268.00,2.6988
2267.00,2.6816
2266.00,2.6608
2265.00,2.6353
2264.00,2.6068
2263.00,2.5793
2262.00,2.5590
2261.00,2.5540
2260.00,2.5731
2259.00,2.6247
2258.00,2.7158
2257.00,2.8512
2256.00,3.0333
2255.00,3.2599
2254.00,3.5134
2253.00,3.7212
2252.00,3.7532
2251.00,3.6209
2250.00,3.4512
2249.00,3.2993
2248.00,3.1736
2247.00,3.0728
2246.00,2.9956
2245.00,2.9392
2244.00,2.8985
2243.00,2.8681
2242.00,2.8433
2241.00,2.8214
2240.00,2.8015
2239.00,2.7836
2238.00,2.7675
2237.00,2.7523
2236.00,2.7364
2235.00,2.7189
2234.00,2.7004
2233.00,2.6812
2232.00,2.6608
2231.00,2.6389
2230.00,2.6163
2229.00,2.5941
2228.00,2.5720
2227.00,2.5489
2226.00,2.5240
2225.00,2.4972
2224.00,2.4687
2223.00,2.4384
2222.00,2.4059
2221.00,2.3714
2220.00,2.3354
2219.00,2.2984
2218.00,2.2598
2217.00,2.2190
2216.00,2.1752
2215.00,2.1282
2214.00,2.0786
2213.00,2.0264
2212.00,1.9718
2211.00,1.9149
2210.00,1.8566
2209.00,1.7986
2208.00,1.7430
2207.00,1.6923
2206.00,1.6479
2205.00,1.6094
2204.00,1.5741
2203.00,1.5388
2202.00,1.5014
2201.00,1.4634
2200.00,1.4281
2199.00,1.3988
2198.00,1.3779
2197.00,1.3667
2196.00,1.3658
2195.00,1.3752
2194.00,1.3944
2193.00,1.4224
2192.00,1.4580
2191.00,1.4995
2190.00,1.5455
2189.00,1.5947
2188.00,1.6459
2187.00,1.6981
2186.00,1.7508
2185.00,1.8035
2184.00,1.8559
2183.00,1.9074
2182.00,1.9576
2181.00,2.0065
2180.00,2.0539
2179.00,2.0998
2178.00,2.1437
2177.00,2.1856
2176.00,2.2251
2175.00,2.2622
2174.00,2.2969
2173.00,2.3296
2172.00,2.3607
2171.00,2.3907
2170.00,2.4199
2169.00,2.4488
2168.00,2.4765
2167.00,2.5017
2166.00,2.5240
2165.00,2.5445
2164.00,2.5644
2163.00,2.5841
2162.00,2.6021
2161.00,2.6179
2160.00,2.6318
2159.00,2.6452
2158.00,2.6595
2157.00,2.6752
2156.00,2.6918
2155.00,2.7077
2154.00,2.7206
2153.00,2.7303
2152.00,2.7385
2151.00,2.7474
2150.00,2.7578
2149.00,2.7695
2148.00,2.7810
2147.00,2.7904
2146.00,2.7966
2145.00,2.8002
2144.00,2.8036
2143.00,2.8085
2142.00,2.8147
2141.00,2.8208
2140.00,2.8265
2139.00,2.8320
2138.00,2.8370
2137.00,2.8405
2136.00,2.8418
2135.00,2.8417
2134.00,2.8416
2133.00,2.8427
2132.00,2.8451
2131.00,2.8483
2130.00,2.8512
2129.00,2.8524
2128.00,2.8513
2127.00,2.8481
2126.00,2.8435
2125.00,2.8375
2124.00,2.8308
2123.00,2.8245
2122.00,2.8199
2121.00,2.8168
2120.00,2.8135
2119.00,2.8084
2118.00,2.8008
2117.00,2.7917
2116.00,2.7825
2115.00,2.7740
2114.00,2.7658
2113.00,2.7571
2112.00,2.7474
2111.00,2.7374
2110.00,2.7277
2109.00,2.7180
2108.00,2.7073
2107.00,2.6953
2106.00,2.6829
2105.00,2.6706
2104.00,2.6575
2103.00,2.6420
2102.00,2.6236
2101.00,2.6034
2100.00,2.5831
2099.00,2.5631
2098.00,2.5425
2097.00,2.5203
2096.00,2.4961
2095.00,2.4702
2094.00,2.4436
2093.00,2.4170
2092.00,2.3901
2091.00,2.3615
2090.00,2.3301
2089.00,2.2956
2088.00,2.2589
2087.00,2.2206
2086.00,2.1807
2085.00,2.1389
2084.00,2.0948
2083.00,2.0482
2082.00,1.9991
2081.00,1.9478
2080.00,1.8949
2079.00,1.8409
2078.00,1.7868
2077.00,1.7334
2076.00,1.6820
2075.00,1.6336
2074.00,1.5888
2073.00,1.5485
2072.00,1.5133
2071.00,1.4836
2070.00,1.4598
2069.00,1.4421
2068.00,1.4304
2067.00,1.4246
2066.00,1.4248
2065.00,1.4318
2064.00,1.4457
2063.00,1.4663
2062.00,1.4932
2061.00,1.5259
2060.00,1.5637
2059.00,1.6057
2058.00,1.6507
2057.00,1.6980
2056.00,1.7472
2055.00,1.7976
2054.00,1.8486
2053.00,1.8995
2052.00,1.9501
2051.00,2.0003
2050.00,2.0499
2049.00,2.0987
2048.00,2.1463
2047.00,2.1923
2046.00,2.2363
2045.00,2.2779
2044.00,2.3173
2043.00,2.3545
2042.00,2.3895
2041.00,2.4221
2040.00,2.4521
2039.00,2.4801
2038.00,2.5073
2037.00,2.5340
2036.00,2.5598
2035.00,2.5842
2034.00,2.6072
2033.00,2.6294
2032.00,2.6504
2031.00,2.6700
2030.00,2.6882
2029.00,2.7056
2028.00,2.7225
2027.00,2.7381
2026.00,2.7516
2025.00,2.7636
2024.00,2.7759
2023.00,2.7902
2022.00,2.8063
2021.00,2.8224
2020.00,2.8367
2019.00,2.8483
2018.00,2.8572
2017.00,2.8641
2016.00,2.8704
2015.00,2.8785
2014.00,2.8897
2013.00,2.9018
2012.00,2.9112
2011.00,2.9161
2010.00,2.9185
2009.00,2.9216
2008.00,2.9264
2007.00,2.9326
2006.00,2.9398
2005.00,2.9470
2004.00,2.9518
2003.00,2.9525
2002.00,2.9505
2001.00,2.9491
2000.00,2.9503
1999.00,2.9530
1998.00,2.9550
1997.00,2.9559
1996.00,2.9560
1995.00,2.9556
1994.00,2.9553
1993.00,2.9562
1992.00,2.9585
1991.00,2.9602
1990.00,2.9582
1989.00,2.9516
1988.00,2.9428
1987.00,2.9341
1986.00,2.9262
1985.00,2.9179
1984.00,2.9091
1983.00,2.9012
1982.00,2.8942
1981.00,2.8866
1980.00,2.8772
1979.00,2.8667
1978.00,2.8577
1977.00,2.8516
1976.00,2.8473
1975.00,2.8415
1974.00,2.8323
1973.00,2.8198
1972.00,2.8052
1971.00,2.7892
1970.00,2.7720
1969.00,2.7535
1968.00,2.7341
1967.00,2.7145
1966.00,2.6957
1965.00,2.6781
1964.00,2.6604
1963.00,2.6410
1962.00,2.6192
1961.00,2.5950
1960.00,2.5687
1959.00,2.5411
1958.00,2.5128
1957.00,2.4840
1956.00,2.4542
1955.00,2.4224
1954.00,2.3884
1953.00,2.3523
1952.00,2.3140
1951.00,2.2734
1950.00,2.2305
1949.00,2.1855
1948.00,2.1389
1947.00,2.0906
1946.00,2.0394
1945.00,1.9836
1944.00,1.9229
1943.00,1.8594
1942.00,1.7964
1941.00,1.7362
1940.00,1.6787
1939.00,1.6237
1938.00,1.5726
1937.00,1.5277
1936.00,1.4905
1935.00,1.4613
1934.00,1.4412
1933.00,1.4310
1932.00,1.4311
1931.00,1.4416
1930.00,1.4618
1929.00,1.4912
1928.00,1.5289
1927.00,1.5737
1926.00,1.6241
1925.00,1.6773
1924.00,1.7325
1923.00,1.7897
1922.00,1.8482
1921.00,1.9043
1920.00,1.9549
1919.00,2.0027
1918.00,2.0540
1917.00,2.1108
1916.00,2.1685
1915.00,2.2216
1914.00,2.2698
1913.00,2.3154
1912.00,2.3596
1911.00,2.4016
1910.00,2.4403
1909.00,2.4762
1908.00,2.5094
1907.00,2.5405
1906.00,2.5704
1905.00,2.5987
1904.00,2.6253
1903.00,2.6503
1902.00,2.6744
1901.00,2.6982
1900.00,2.7222
1899.00,2.7461
1898.00,2.7692
1897.00,2.7901
1896.00,2.8081
1895.00,2.8250
1894.00,2.8426
1893.00,2.8603
1892.00,2.8765
1891.00,2.8917
1890.00,2.9080
1889.00,2.9248
1888.00,2.9381
1887.00,2.9451
1886.00,2.9487
1885.00,2.9547
1884.00,2.9649
1883.00,2.9763
1882.00,2.9853
1881.00,2.9926
1880.00,3.0011
1879.00,3.0112
1878.00,3.0207
1877.00,3.0273
1876.00,3.0304
1875.00,3.0330
1874.00,3.0383
1873.00,3.0466
1872.00,3.0538
1871.00,3.0571
1870.00,3.0576
1869.00,3.0579
1868.00,3.0595
1867.00,3.0635
1866.00,3.0699
1865.00,3.0772
1864.00,3.0826
1863.00,3.0835
1862.00,3.0791
1861.00,3.0722
1860.00,3.0678
1859.00,3.0684
1858.00,3.0721
1857.00,3.0748
1856.00,3.0736
1855.00,3.0680
1854.00,3.0593
1853.00,3.0499
1852.00,3.0414
1851.00,3.0328
1850.00,3.0241
1849.00,3.0180
1848.00,3.0159
1847.00,3.0126
1846.00,3.0001
1845.00,2.9783
1844.00,2.9577
1843.00,2.9468
1842.00,2.9426
1841.00,2.9371
1840.00,2.9268
1839.00,2.9143
1838.00,2.9013
1837.00,2.8865
1836.00,2.8695
1835.00,2.8528
1834.00,2.8369
1833.00,2.8194
1832.00,2.7985
1831.00,2.7768
1830.00,2.7575
1829.00,2.7394
1828.00,2.7178
1827.00,2.6890
1826.00,2.6555
1825.00,2.6239
1824.00,2.5962
1823.00,2.5688
1822.00,2.5378
1821.00,2.5027
1820.00,2.4642
1819.00,2.4227
1818.00,2.3791
1817.00,2.3344
1816.00,2.2902
1815.00,2.2457
1814.00,2.1992
1813.00,2.1497
1812.00,2.0967
1811.00,2.0414
1810.00,1.9853
1809.00,1.9300
1808.00,1.8767
1807.00,1.8261
1806.00,1.7782
1805.00,1.7332
1804.00,1.6924
1803.00,1.6577
1802.00,1.6325
1801.00,1.6200
1800.00,1.6208
1799.00,1.6342
1798.00,1.6591
1797.00,1.6949
1796.00,1.7382
1795.00,1.7829
1794.00,1.8255
1793.00,1.8703
1792.00,1.9235
1791.00,1.9855
1790.00,2.0514
1789.00,2.1143
1788.00,2.1708
1787.00,2.2211
1786.00,2.2702
1785.00,2.3239
1784.00,2.3831
1783.00,2.4411
1782.00,2.4909
1781.00,2.5348
1780.00,2.5776
1779.00,2.6205
1778.00,2.6615
1777.00,2.7021
1776.00,2.7450
1775.00,2.7861
1774.00,2.8182
1773.00,2.8420
1772.00,2.8613
1771.00,2.8768
1770.00,2.8882
1769.00,2.8971
1768.00,2.9111
1767.00,2.9346
1766.00,2.9622
1765.00,2.9848
1764.00,2.9985
1763.00,3.0070
1762.00,3.0176
1761.00,3.0348
1760.00,3.0551
1759.00,3.0707
1758.00,3.0787
1757.00,3.0879
1756.00,3.1072
1755.00,3.1324
1754.00,3.1521
1753.00,3.1627
1752.00,3.1716
1751.00,3.1861
1750.00,3.2015
1749.00,3.2101
1748.00,3.2145
1747.00,3.2182
1746.00,3.2197
1745.00,3.2170
1744.00,3.2132
1743.00,3.2129
1742.00,3.2158
1741.00,3.2196
1740.00,3.2287
1739.00,3.2464
1738.00,3.2648
1737.00,3.2713
1736.00,3.2608
1735.00,3.2464
1734.00,3.2465
1733.00,3.2567
1732.00,3.2579
1731.00,3.2438
1730.00,3.2229
1729.00,3.2054
1728.00,3.1950
1727.00,3.1879
1726.00,3.1800
1725.00,3.1716
1724.00,3.1660
1723.00,3.1672
1722.00,3.1761
1721.00,3.1937
1720.00,3.2260
1719.00,3.2840
1718.00,3.3691
1717.00,3.4637
1716.00,3.5501
1715.00,3.6298
1714.00,3.7214
1713.00,3.8386
1712.00,3.9727
1711.00,4.0884
1710.00,4.1491
1709.00,4.1663
1708.00,4.1688
1707.00,4.1554
1706.00,4.1042
1705.00,4.0078
1704.00,3.8858
1703.00,3.7595
1702.00,3.6278
1701.00,3.5128
1700.00,3.4588
1699.00,3.4589
1698.00,3.4654
1697.00,3.4445
1696.00,3.3951
1695.00,3.3442
1694.00,3.3044
1693.00,3.2712
1692.00,3.2444
1691.00,3.2235
1690.00,3.2069
1689.00,3.1996
1688.00,3.2068
1687.00,3.2194
1686.00,3.2148
1685.00,3.1821
1684.00,3.1291
1683.00,3.0795
1682.00,3.0465
1681.00,3.0203
1680.00,2.9951
1679.00,2.9679
1678.00,2.9340
1677.00,2.8899
1676.00,2.8447
1675.00,2.8135
1674.00,2.7966
1673.00,2.7796
1672.00,2.7518
1671.00,2.7115
1670.00,2.6597
1669.00,2.6024
1668.00,2.5503
1667.00,2.5051
1666.00,2.4590
1665.00,2.4034
1664.00,2.3383
1663.00,2.2699
1662.00,2.2036
1661.00,2.1437
1660.00,2.0915
1659.00,2.0486
1658.00,2.0195
1657.00,2.0099
1656.00,2.0154
1655.00,2.0243
1654.00,2.0310
1653.00,2.0417
1652.00,2.0712
1651.00,2.1044
1650.00,2.1259
1649.00,2.1531
1648.00,2.1899
1647.00,2.2273
1646.00,2.2643
1645.00,2.3086
1644.00,2.3541
1643.00,2.3961
1642.00,2.4378
1641.00,2.4847
1640.00,2.5377
1639.00,2.5926
1638.00,2.6414
1637.00,2.6767
1636.00,2.6956
1635.00,2.7100
1634.00,2.7345
1633.00,2.7631
1632.00,2.7900
1631.00,2.8152
1630.00,2.8405
1629.00,2.8680
1628.00,2.8980
1627.00,2.9272
1626.00,2.9524
1625.00,2.9729
1624.00,2.9911
1623.00,3.0106
1622.00,3.0349
1621.00,3.0664
1620.00,3.1022
1619.00,3.1364
1618.00,3.1627
1617.00,3.1773
1616.00,3.1804
1615.00,3.1754
1614.00,3.1678
1613.00,3.1654
1612.00,3.1726
1611.00,3.1873
1610.00,3.2046
1609.00,3.2215
1608.00,3.2378
1607.00,3.2524
1606.00,3.2632
1605.00,3.2713
1604.00,3.2796
1603.00,3.2901
1602.00,3.3039
1601.00,3.3205
1600.00,3.3367
1599.00,3.3474
1598.00,3.3493
1597.00,3.3442
1596.00,3.3381
1595.00,3.3352
1594.00,3.3352
1593.00,3.3341
1592.00,3.3281
1591.00,3.3171
1590.00,3.3064
1589.00,3.3019
1588.00,3.3044
1587.00,3.3110
1586.00,3.3178
1585.00,3.3218
1584.00,3.3210
1583.00,3.3153
1582.00,3.3098
1581.00,3.3130
1580.00,3.3297
1579.00,3.3561
1578.00,3.3806
1577.00,3.3876
1576.00,3.3700
1575.00,3.3398
1574.00,3.3128
1573.00,3.2942
1572.00,3.2798
1571.00,3.2643
1570.00,3.2479
1569.00,3.2350
1568.00,3.2299
1567.00,3.2284
1566.00,3.2249
1565.00,3.2214
1564.00,3.2231
1563.00,3.2276
1562.00,3.2251
1561.00,3.2011
1560.00,3.1755
1559.00,3.1437
1558.00,3.1025
1557.00,3.0815
1556.00,3.0659
1555.00,3.0446
1554.00,3.0197
1553.00,2.9928
1552.00,2.9605
1551.00,2.9252
1550.00,2.8949
1549.00,2.8719
1548.00,2.8507
1547.00,2.8241
1546.00,2.7968
1545.00,2.7801
1544.00,2.7745
1543.00,2.7729
1542.00,2.7710
1541.00,2.7574
1540.00,2.7106
1539.00,2.6461
1538.00,2.5935
1537.00,2.5503
1536.00,2.5098
1535.00,2.4711
1534.00,2.4387
1533.00,2.4183
1532.00,2.4111
1531.00,2.4130
1530.00,2.4175
1529.00,2.4235
1528.00,2.4336
1527.00,2.4497
1526.00,2.4751
1525.00,2.5121
1524.00,2.5537
1523.00,2.5889
1522.00,2.6111
1521.00,2.6254
1520.00,2.6401
1519.00,2.6534
1518.00,2.6634
1517.00,2.6742
1516.00,2.6909
1515.00,2.7154
1514.00,2.7441
1513.00,2.7764
1512.00,2.8159
1511.00,2.8632
1510.00,2.9145
1509.00,2.9672
1508.00,3.0160
1507.00,3.0382
1506.00,3.0459
1505.00,3.0727
1504.00,3.0988
1503.00,3.1126
1502.00,3.1239
1501.00,3.1428
1500.00,3.1734
1499.00,3.2113
1498.00,3.2455
1497.00,3.2649
1496.00,3.2726
1495.00,3.2826
1494.00,3.3009
1493.00,3.3202
1492.00,3.3303
1491.00,3.3307
1490.00,3.3287
1489.00,3.3303
1488.00,3.3398
1487.00,3.3585
1486.00,3.3823
1485.00,3.4067
1484.00,3.4304
1483.00,3.4573
1482.00,3.4941
1481.00,3.5359
1480.00,3.5622
1479.00,3.5570
1478.00,3.5331
1477.00,3.5177
1476.00,3.5245
1475.00,3.5444
1474.00,3.5600
1473.00,3.5630
1472.00,3.5610
1471.00,3.5700
1470.00,3.5927
1469.00,3.6163
1468.00,3.6276
1467.00,3.6241
1466.00,3.6138
1465.00,3.6072
1464.00,3.6108
1463.00,3.6247
1462.00,3.6442
1461.00,3.6688
1460.00,3.7028
1459.00,3.7487
1458.00,3.8033
1457.00,3.8507
1456.00,3.8718
1455.00,3.8723
1454.00,3.8846
1453.00,3.9289
1452.00,3.9847
1451.00,4.0075
1450.00,3.9963
1449.00,3.9712
1448.00,3.9254
1447.00,3.8743
1446.00,3.8450
1445.00,3.8424
1444.00,3.8564
1443.00,3.8740
1442.00,3.8857
1441.00,3.8918
1440.00,3.8979
1439.00,3.9038
1438.00,3.9016
1437.00,3.8787
1436.00,3.8316
1435.00,3.7840
1434.00,3.7596
1433.00,3.7606
1432.00,3.7753
1431.00,3.7815
1430.00,3.7593
1429.00,3.7143
1428.00,3.6722
1427.00,3.6534
1426.00,3.6664
1425.00,3.7117
1424.00,3.7749
1423.00,3.8286
1422.00,3.8510
1421.00,3.8425
1420.00,3.8202
1419.00,3.8012
1418.00,3.7919
1417.00,3.7907
1416.00,3.7918
1415.00,3.7905
1414.00,3.7850
1413.00,3.7710
1412.00,3.7442
1411.00,3.7126
1410.00,3.6903
1409.00,3.6791
1408.00,3.6693
1407.00,3.6529
1406.00,3.6314
1405.00,3.6110
1404.00,3.5947
1403.00,3.5822
1402.00,3.5680
1401.00,3.5422
1400.00,3.5004
1399.00,3.4555
1398.00,3.4268
1397.00,3.4195
1396.00,3.4218
1395.00,3.4179
1394.00,3.4013
1393.00,3.3757
1392.00,3.3439
1391.00,3.3093
1390.00,3.2805
1389.00,3.2645
1388.00,3.2607
1387.00,3.2634
1386.00,3.2699
1385.00,3.2845
1384.00,3.3134
1383.00,3.3611
1382.00,3.4283
1381.00,3.5093
1380.00,3.5936
1379.00,3.6707
1378.00,3.7391
1377.00,3.8078
1376.00,3.8782
1375.00,3.9290
1374.00,3.9288
1373.00,3.8723
1372.00,3.7765
1371.00,3.6575
1370.00,3.5333
1369.00,3.4194
1368.00,3.3197
1367.00,3.2306
1366.00,3.1501
1365.00,3.0801
1364.00,3.0220
1363.00,2.9716
1362.00,2.9242
1361.00,2.8802
1360.00,2.8435
1359.00,2.8163
1358.00,2.7999
1357.00,2.7958
1356.00,2.8051
1355.00,2.8266
1354.00,2.8562
1353.00,2.8894
1352.00,2.9243
1351.00,2.9607
1350.00,2.9962
1349.00,3.0260
1348.00,3.0474
1347.00,3.0644
1346.00,3.0834
1345.00,3.1077
1344.00,3.1355
1343.00,3.1627
1342.00,3.1873
1341.00,3.2094
1340.00,3.2272
1339.00,3.2354
1338.00,3.2316
1337.00,3.2215
1336.00,3.2159
1335.00,3.2238
1334.00,3.2484
1333.00,3.2875
1332.00,3.3347
1331.00,3.3789
1330.00,3.4074
1329.00,3.4157
1328.00,3.4134
1327.00,3.4153
1326.00,3.4291
1325.00,3.4520
1324.00,3.4770
1323.00,3.5004
1322.00,3.5216
1321.00,3.5382
1320.00,3.5465
1319.00,3.5463
1318.00,3.5432
1317.00,3.5463
1316.00,3.5609
1315.00,3.5835
1314.00,3.6051
1313.00,3.6224
1312.00,3.6440
1311.00,3.6757
1310.00,3.7050
1309.00,3.7120
1308.00,3.6981
1307.00,3.6842
1306.00,3.6807
1305.00,3.6750
1304.00,3.6562
1303.00,3.6338
1302.00,3.6198
1301.00,3.6181
1300.00,3.6253
1299.00,3.6388
1298.00,3.6645
1297.00,3.7066
1296.00,3.7519
1295.00,3.7693
1294.00,3.7397
1293.00,3.6826
1292.00,3.6328
1291.00,3.6086
1290.00,3.6060
1289.00,3.6097
1288.00,3.6124
1287.00,3.6213
1286.00,3.6413
1285.00,3.6620
1284.00,3.6690
1283.00,3.6639
1282.00,3.6568
1281.00,3.6466
1280.00,3.6253
1279.00,3.5989
1278.00,3.5831
1277.00,3.5823
1276.00,3.5884
1275.00,3.5956
1274.00,3.6055
1273.00,3.6134
1272.00,3.6041
1271.00,3.5720
1270.00,3.5340
1269.00,3.5093
1268.00,3.5005
1267.00,3.4960
1266.00,3.4829
1265.00,3.4558
1264.00,3.4212
1263.00,3.3919
1262.00,3.3743
1261.00,3.3623
1260.00,3.3446
1259.00,3.3166
1258.00,3.2834
1257.00,3.2494
1256.00,3.2116
1255.00,3.1672
1254.00,3.1195
1253.00,3.0737
1252.00,3.0291
1251.00,2.9808
1250.00,2.9274
1249.00,2.8727
1248.00,2.8205
1247.00,2.7709
1246.00,2.7211
1245.00,2.6692
1244.00,2.6160
1243.00,2.5648
1242.00,2.5193
1241.00,2.4825
1240.00,2.4561
1239.00,2.4418
1238.00,2.4410
1237.00,2.4544
1236.00,2.4815
1235.00,2.5206
1234.00,2.5701
1233.00,2.6292
1232.00,2.6973
1231.00,2.7735
1230.00,2.8549
1229.00,2.9367
1228.00,3.0133
1227.00,3.0793
1226.00,3.1289
1225.00,3.1570
1224.00,3.1619
1223.00,3.1462
1222.00,3.1173
1221.00,3.0851
1220.00,3.0597
1219.00,3.0481
1218.00,3.0512
1217.00,3.0644
1216.00,3.0834
1215.00,3.1085
1214.00,3.1450
1213.00,3.1971
1212.00,3.2612
1211.00,3.3269
1210.00,3.3830
1209.00,3.4254
1208.00,3.4567
1207.00,3.4806
1206.00,3.5005
1205.00,3.5184
1204.00,3.5358
1203.00,3.5540
1202.00,3.5745
1201.00,3.5989
1200.00,3.6264
1199.00,3.6512
1198.00,3.6664
1197.00,3.6697
1196.00,3.6675
1195.00,3.6744
1194.00,3.7062
1193.00,3.7742
1192.00,3.8805
1191.00,4.0136
1190.00,4.1260
1189.00,4.1337
1188.00,4.0403
1187.00,3.9320
1186.00,3.8583
1185.00,3.8279
1184.00,3.8291
1183.00,3.8448
1182.00,3.8567
1181.00,3.8497
1180.00,3.8290
1179.00,3.8171
1178.00,3.8307
1177.00,3.8750
1176.00,3.9370
1175.00,3.9823
1174.00,3.9868
1173.00,3.9561
1172.00,3.9238
1171.00,3.9154
1170.00,3.9302
1169.00,3.9531
1168.00,3.9633
1167.00,3.9604
1166.00,3.9648
1165.00,3.9806
1164.00,3.9687
1163.00,3.9039
1162.00,3.8324
1161.00,3.8038
1160.00,3.8344
1159.00,3.9122
1158.00,4.0045
1157.00,4.0775
1156.00,4.1138
1155.00,4.1116
1154.00,4.0820
1153.00,4.0534
1152.00,4.0595
1151.00,4.1045
1150.00,4.1128
1149.00,4.0063
1148.00,3.8706
1147.00,3.7880
1146.00,3.7702
1145.00,3.8024
1144.00,3.8604
1143.00,3.9184
1142.00,3.9576
1141.00,3.9697
1140.00,3.9482
1139.00,3.8984
1138.00,3.8393
1137.00,3.7861
1136.00,3.7512
1135.00,3.7421
1134.00,3.7494
1133.00,3.7475
1132.00,3.7198
1131.00,3.6813
1130.00,3.6505
1129.00,3.6288
1128.00,3.6140
1127.00,3.6088
1126.00,3.6099
1125.00,3.5987
1124.00,3.5643
1123.00,3.5282
1122.00,3.5182
1121.00,3.5401
1120.00,3.5735
1119.00,3.5928
1118.00,3.5863
1117.00,3.5549
1116.00,3.5110
1115.00,3.4570
1114.00,3.3865
1113.00,3.3092
1112.00,3.2408
1111.00,3.1860
1110.00,3.1385
1109.00,3.0900
1108.00,3.0382
1107.00,2.9886
1106.00,2.9474
1105.00,2.9177
1104.00,2.9004
1103.00,2.8960
1102.00,2.9040
1101.00,2.9227
1100.00,2.9512
1099.00,2.9925
1098.00,3.0499
1097.00,3.1196
1096.00,3.1889
1095.00,3.2489
1094.00,3.3080
1093.00,3.3813
1092.00,3.4661
1091.00,3.5336
1090.00,3.5615
1089.00,3.5687
1088.00,3.5884
1087.00,3.6268
1086.00,3.6573
1085.00,3.6646
1084.00,3.6696
1083.00,3.6879
1082.00,3.7309
1081.00,3.8082
1080.00,3.9004
1079.00,3.9466
1078.00,3.9298
1077.00,3.9225
1076.00,3.9495
1075.00,3.9758
1074.00,4.0140
1073.00,4.1316
1072.00,4.2361
1071.00,4.1023
1070.00,3.9564
1069.00,3.8943
1068.00,3.9130
1067.00,4.0136
1066.00,4.1402
1065.00,4.1822
1064.00,4.1362
1063.00,4.1109
1062.00,4.2670
1061.00,4.6570
1060.00,4.6521
1059.00,4.3700
1058.00,4.1207
1057.00,4.0582
1056.00,4.2730
1055.00,4.4154
1054.00,4.0128
1053.00,3.8496
1052.00,3.8292
1051.00,3.8859
1050.00,3.9605
1049.00,3.9755
1048.00,3.9857
1047.00,4.0470
1046.00,4.2026
1045.00,4.5051
1044.00,4.8989
1043.00,4.8764
1042.00,4.6870
1041.00,4.4385
1040.00,4.2411
1039.00,4.1930
1038.00,4.2032
1037.00,4.1518
1036.00,4.1530
1035.00,4.2397
1034.00,4.2180
1033.00,4.0803
1032.00,3.9798
1031.00,3.9494
1030.00,3.9826
1029.00,4.0833
1028.00,4.2698
1027.00,4.3651
1026.00,4.2513
1025.00,4.2838
1024.00,4.4658
1023.00,4.3859
1022.00,4.2708
1021.00,4.3249
1020.00,4.3944
1019.00,4.4864
1018.00,4.9617
1017.00,4.8432
1016.00,4.5770
1015.00,4.6016
1014.00,4.3931
1013.00,4.1914
1012.00,4.1105
1011.00,4.0887
1010.00,4.1010
1009.00,4.1680
1008.00,4.3030
1007.00,4.4524
1006.00,4.4840
1005.00,4.3737
1004.00,4.2577
1003.00,4.2350
1002.00,4.3111
1001.00,4.4301
1000.00,4.4673
999.00,4.3387
998.00,4.2739
997.00,4.3469
996.00,4.4674
995.00,4.4515
994.00,4.2665
993.00,4.0715
992.00,3.9385
991.00,3.8823
990.00,3.9133
989.00,4.0407
988.00,4.1919
987.00,4.2404
986.00,4.2117
985.00,4.3432
984.00,4.6610
983.00,4.2088
982.00,3.9650
981.00,3.9018
980.00,3.9480
979.00,4.1435
978.00,4.5697
977.00,4.4129
976.00,4.0844
975.00,3.9519
974.00,3.9082
973.00,3.9220
972.00,3.9640
971.00,4.0051
970.00,4.0245
969.00,4.0126
968.00,3.9435
967.00,3.8289
966.00,3.7271
965.00,3.6541
964.00,3.6025
963.00,3.5686
962.00,3.5597
961.00,3.5939
960.00,3.6804
959.00,3.7802
958.00,3.8090
957.00,3.7959
956.00,3.8195
955.00,3.9018
954.00,4.0476
953.00,4.2066
952.00,4.2660
951.00,4.3379
950.00,4.4074
949.00,4.3187
948.00,4.2962
947.00,4.2489
946.00,4.0628
945.00,3.9183
944.00,3.8646
943.00,3.9502
942.00,4.1472
941.00,4.0668
940.00,3.9523
939.00,3.9969
938.00,4.1391
937.00,4.2550
936.00,4.2544
935.00,4.1986
934.00,4.1068
933.00,4.0365
932.00,4.0050
931.00,3.9383
930.00,3.8239
929.00,3.7505
928.00,3.7646
927.00,3.8778
926.00,4.0669
925.00,4.1108
924.00,3.9873
923.00,3.9434
922.00,3.9855
921.00,4.0437
920.00,4.0850
919.00,4.1035
918.00,4.0703
917.00,4.0071
916.00,3.9870
915.00,4.0492
914.00,4.2543
913.00,4.6455
912.00,4.4301
911.00,4.2521
910.00,4.2355
909.00,4.1744
908.00,4.0956
907.00,4.0624
906.00,4.0572
905.00,4.0799
904.00,4.1793
903.00,4.2972
902.00,4.2585
901.00,4.1838
900.00,4.1387
899.00,4.1030
898.00,4.0087
897.00,3.8773
896.00,3.8338
895.00,3.9163
894.00,4.0782
893.00,4.1642
892.00,4.1161
891.00,4.0952
890.00,4.1784
889.00,4.3227
888.00,4.3724
887.00,4.2484
886.00,4.0698
885.00,3.9378
884.00,3.8995
883.00,3.9734
882.00,4.1464
881.00,4.2529
880.00,4.1260
879.00,3.9795
878.00,3.9121
877.00,3.9370
876.00,4.0304
875.00,4.1028
874.00,4.0808
873.00,3.9965
872.00,3.9004
871.00,3.8532
870.00,3.8921
869.00,4.0099
868.00,4.1339
867.00,4.1417
866.00,4.0176
865.00,3.8781
864.00,3.8015
863.00,3.7886
862.00,3.8078
861.00,3.8323
860.00,3.8679
859.00,3.9252
858.00,3.9941
857.00,4.1032
856.00,4.2937
855.00,4.2914
854.00,4.1689
853.00,4.1286
852.00,4.0808
851.00,4.0977
850.00,4.2372
849.00,4.3570
848.00,4.1487
847.00,3.9956
846.00,4.0296
845.00,4.2362
844.00,4.4509
843.00,4.3017
842.00,4.0579
841.00,3.8827
840.00,3.8067
839.00,3.8205
838.00,3.8845
837.00,3.9349
836.00,3.9187
835.00,3.8817
834.00,3.9096
833.00,4.0273
832.00,4.2160
831.00,4.3184
830.00,4.2008
829.00,4.1071
828.00,4.0695
827.00,4.0236
826.00,3.9752
825.00,3.9561
824.00,3.9352
823.00,3.8693
822.00,3.7904
821.00,3.7610
820.00,3.8096
819.00,3.9080
818.00,3.9588
817.00,3.9208
816.00,3.8661
815.00,3.8317
814.00,3.8136
813.00,3.8137
812.00,3.8453
811.00,3.9178
810.00,4.0015
809.00,4.0155
808.00,4.0017
807.00,4.0551
806.00,4.2203
805.00,4.4556
804.00,4.3866
803.00,4.2623
802.00,4.2021
801.00,4.1166
800.00,4.0893
799.00,4.1402
798.00,4.0992
797.00,3.9847
796.00,3.9275
795.00,3.8997
794.00,3.8692
793.00,3.8428
792.00,3.8286
791.00,3.8363
790.00,3.8589
789.00,3.8686
788.00,3.8686
787.00,3.8790
786.00,3.8766
785.00,3.8645
784.00,3.8858
783.00,3.9333
782.00,3.9701
781.00,3.9938
780.00,4.0114
779.00,4.0224
778.00,4.0188
777.00,3.9605
776.00,3.8300
775.00,3.6941
774.00,3.6094
773.00,3.6066
772.00,3.7033
771.00,3.9386
770.00,4.4812
769.00,4.6301
768.00,4.1592
767.00,4.0093
766.00,3.9429
765.00,3.8355
764.00,3.7841
763.00,3.8677
762.00,4.1047
761.00,4.5207
760.00,4.4665
759.00,4.1304
758.00,4.0658
757.00,4.1650
756.00,4.3309
755.00,4.7382
754.00,4.5370
753.00,3.9870
752.00,3.7356
751.00,3.6142
750.00,3.5830
749.00,3.6200
748.00,3.6976
747.00,3.7936
746.00,3.8823
745.00,3.9245
744.00,3.9305
743.00,3.9278
742.00,3.9279
741.00,3.9661
740.00,4.0696
739.00,4.2223
738.00,4.2456
737.00,4.0585
736.00,3.8956
735.00,3.8602
734.00,3.9413
733.00,4.1413
732.00,4.5799
731.00,4.2948
730.00,3.9495
729.00,3.8456
728.00,3.8656
727.00,3.9295
726.00,3.9141
725.00,3.8355
724.00,3.8043
723.00,3.8468
722.00,3.9574
721.00,4.0571
720.00,4.0069
719.00,3.8953
718.00,3.8245
717.00,3.7830
716.00,3.7368
715.00,3.6930
714.00,3.6761
713.00,3.6966
712.00,3.7435
711.00,3.7917
710.00,3.8280
709.00,3.8721
708.00,3.9460
707.00,4.0287
706.00,4.0892
705.00,4.1542
704.00,4.1737
703.00,4.0932
702.00,4.0559
701.00,4.1099
700.00,4.1981
