Created as New Dataset,Sample 024 By Administrator Date Wednesday, November 24 2021
cm-1,A
7502.00,0.8097
7501.00,0.7983
7500.00,0.7871
7499.00,0.7763
7498.00,0.7656
7497.00,0.7553
7496.00,0.7452
7495.00,0.7353
7494.00,0.7256
7493.00,0.7167
7492.00,0.7099
7491.00,0.7052
7490.00,0.7013
7489.00,0.6968
7488.00,0.6908
7487.00,0.6837
7486.00,0.6755
7485.00,0.6663
7484.00,0.6557
7483.00,0.6440
7482.00,0.6324
7481.00,0.6223
7480.00,0.6142
7479.00,0.6075
7478.00,0.6013
7477.00,0.5952
7476.00,0.5895
7475.00,0.5846
7474.00,0.5805
7473.00,0.5769
7472.00,0.5731
7471.00,0.5687
7470.00,0.5639
7469.00,0.5587
7468.00,0.5535
7467.00,0.5484
7466.00,0.5435
7465.00,0.5385
7464.00,0.5336
7463.00,0.5289
7462.00,0.5245
7461.00,0.5203
7460.00,0.5162
7459.00,0.5124
7458.00,0.5093
7457.00,0.5070
7456.00,0.5054
7455.00,0.5042
7454.00,0.5034
7453.00,0.5029
7452.00,0.5026
7451.00,0.5026
7450.00,0.5026
7449.00,0.5029
7448.00,0.5034
7447.00,0.5044
7446.00,0.5059
7445.00,0.5080
7444.00,0.5105
7443.00,0.5131
7442.00,0.5162
7441.00,0.5200
7440.00,0.5246
7439.00,0.5296
7438.00,0.5346
7437.00,0.5398
7436.00,0.5454
7435.00,0.5517
7434.00,0.5584
7433.00,0.5655
7432.00,0.5729
7431.00,0.5805
7430.00,0.5882
7429.00,0.5959
7428.00,0.6040
7427.00,0.6128
7426.00,0.6221
7425.00,0.6317
7424.00,0.6413
7423.00,0.6510
7422.00,0.6613
7421.00,0.6721
7420.00,0.6831
7419.00,0.6934
7418.00,0.7027
7417.00,0.7116
7416.00,0.7205
7415.00,0.7298
7414.00,0.7393
7413.00,0.7489
7412.00,0.7583
7411.00,0.7678
7410.00,0.7775
7409.00,0.7874
7408.00,0.7973
7407.00,0.8073
7406.00,0.8171
7405.00,0.8268
7404.00,0.8362
7403.00,0.8455
7402.00,0.8545
7401.00,0.8631
7400.00,0.8711
7399.00,0.8785
7398.00,0.8859
7397.00,0.8933
7396.00,0.9009
7395.00,0.9081
7394.00,0.9150
7393.00,0.9213
7392.00,0.9272
7391.00,0.9326
7390.00,0.9375
7389.00,0.9420
7388.00,0.9463
7387.00,0.9506
7386.00,0.9553
7385.00,0.9603
7384.00,0.9652
7383.00,0.9692
7382.00,0.9725
7381.00,0.9753
7380.00,0.9780
7379.00,0.9801
7378.00,0.9814
7377.00,0.9814
7376.00,0.9806
7375.00,0.9794
7374.00,0.9782
7373.00,0.9772
7372.00,0.9765
7371.00,0.9757
7370.00,0.9748
7369.00,0.9735
7368.00,0.9716
7367.00,0.9693
7366.00,0.9665
7365.00,0.9635
7364.00,0.9600
7363.00,0.9560
7362.00,0.9518
7361.00,0.9475
7360.00,0.9431
7359.00,0.9383
7358.00,0.9333
7357.00,0.9281
7356.00,0.9226
7355.00,0.9166
7354.00,0.9103
7353.00,0.9037
7352.00,0.8970
7351.00,0.8901
7350.00,0.8829
7349.00,0.8754
7348.00,0.8677
7347.00,0.8601
7346.00,0.8524
7345.00,0.8444
7344.00,0.8360
7343.00,0.8275
7342.00,0.8188
7341.00,0.8101
7340.00,0.8012
7339.00,0.7924
7338.00,0.7843
7337.00,0.7768
7336.00,0.7695
7335.00,0.7618
7334.00,0.7539
7333.00,0.7460
7332.00,0.7385
7331.00,0.7313
7330.00,0.7242
7329.00,0.7170
7328.00,0.7098
7327.00,0.7028
7326.00,0.6962
7325.00,0.6900
7324.00,0.6838
7323.00,0.6773
7322.00,0.6709
7321.00,0.6652
7320.00,0.6604
7319.00,0.6561
7318.00,0.6521
7317.00,0.6485
7316.00,0.6453
7315.00,0.6428
7314.00,0.6407
7313.00,0.6390
7312.00,0.6375
7311.00,0.6365
7310.00,0.6359
7309.00,0.6358
7308.00,0.6361
7307.00,0.6369
7306.00,0.6383
7305.00,0.6402
7304.00,0.6427
7303.00,0.6457
7302.00,0.6491
7301.00,0.6531
7300.00,0.6575
7299.00,0.6623
7298.00,0.6675
7297.00,0.6731
7296.00,0.6792
7295.00,0.6856
7294.00,0.6922
7293.00,0.6989
7292.00,0.7060
7291.00,0.7134
7290.00,0.7213
7289.00,0.7295
7288.00,0.7381
7287.00,0.7470
7286.00,0.7562
7285.00,0.7657
7284.00,0.7753
7283.00,0.7847
7282.00,0.7940
7281.00,0.8033
7280.00,0.8127
7279.00,0.8221
7278.00,0.8315
7277.00,0.8408
7276.00,0.8499
7275.00,0.8587
7274.00,0.8674
7273.00,0.8761
7272.00,0.8848
7271.00,0.8936
7270.00,0.9027
7269.00,0.9122
7268.00,0.9217
7267.00,0.9306
7266.00,0.9385
7265.00,0.9457
7264.00,0.9526
7263.00,0.9597
7262.00,0.9668
7261.00,0.9739
7260.00,0.9812
7259.00,0.9884
7258.00,0.9954
7257.00,1.0017
7256.00,1.0071
7255.00,1.0115
7254.00,1.0152
7253.00,1.0181
7252.00,1.0207
7251.00,1.0234
7250.00,1.0268
7249.00,1.0305
7248.00,1.0340
7247.00,1.0366
7246.00,1.0385
7245.00,1.0399
7244.00,1.0412
7243.00,1.0424
7242.00,1.0435
7241.00,1.0443
7240.00,1.0450
7239.00,1.0458
7238.00,1.0465
7237.00,1.0467
7236.00,1.0461
7235.00,1.0443
7234.00,1.0417
7233.00,1.0386
7232.00,1.0353
7231.00,1.0320
7230.00,1.0288
7229.00,1.0257
7228.00,1.0223
7227.00,1.0184
7226.00,1.0137
7225.00,1.0083
7224.00,1.0022
7223.00,0.9960
7222.00,0.9898
7221.00,0.9837
7220.00,0.9776
7219.00,0.9712
7218.00,0.9647
7217.00,0.9582
7216.00,0.9517
7215.00,0.9447
7214.00,0.9371
7213.00,0.9289
7212.00,0.9205
7211.00,0.9125
7210.00,0.9049
7209.00,0.8976
7208.00,0.8899
7207.00,0.8818
7206.00,0.8734
7205.00,0.8651
7204.00,0.8568
7203.00,0.8481
7202.00,0.8391
7201.00,0.8300
7200.00,0.8214
7199.00,0.8132
7198.00,0.8052
7197.00,0.7970
7196.00,0.7888
7195.00,0.7809
7194.00,0.7735
7193.00,0.7663
7192.00,0.7592
7191.00,0.7522
7190.00,0.7454
7189.00,0.7387
7188.00,0.7319
7187.00,0.7252
7186.00,0.7190
7185.00,0.7132
7184.00,0.7078
7183.00,0.7027
7182.00,0.6981
7181.00,0.6939
7180.00,0.6903
7179.00,0.6870
7178.00,0.6842
7177.00,0.6819
7176.00,0.6800
7175.00,0.6785
7174.00,0.6774
7173.00,0.6769
7172.00,0.6767
7171.00,0.6768
7170.00,0.6773
7169.00,0.6784
7168.00,0.6800
7167.00,0.6821
7166.00,0.6847
7165.00,0.6876
7164.00,0.6911
7163.00,0.6950
7162.00,0.6996
7161.00,0.7049
7160.00,0.7106
7159.00,0.7167
7158.00,0.7230
7157.00,0.7296
7156.00,0.7364
7155.00,0.7435
7154.00,0.7508
7153.00,0.7585
7152.00,0.7666
7151.00,0.7749
7150.00,0.7834
7149.00,0.7922
7148.00,0.8014
7147.00,0.8109
7146.00,0.8206
7145.00,0.8301
7144.00,0.8395
7143.00,0.8490
7142.00,0.8587
7141.00,0.8684
7140.00,0.8779
7139.00,0.8873
7138.00,0.8968
7137.00,0.9064
7136.00,0.9160
7135.00,0.9253
7134.00,0.9346
7133.00,0.9439
7132.00,0.9531
7131.00,0.9619
7130.00,0.9706
7129.00,0.9796
7128.00,0.9887
7127.00,0.9973
7126.00,1.0055
7125.00,1.0136
7124.00,1.0215
7123.00,1.0291
7122.00,1.0360
7121.00,1.0423
7120.00,1.0484
7119.00,1.0545
7118.00,1.0603
7117.00,1.0654
7116.00,1.0699
7115.00,1.0740
7114.00,1.0783
7113.00,1.0827
7112.00,1.0868
7111.00,1.0904
7110.00,1.0940
7109.00,1.0979
7108.00,1.1019
7107.00,1.1054
7106.00,1.1083
7105.00,1.1107
7104.00,1.1128
7103.00,1.1141
7102.00,1.1145
7101.00,1.1144
7100.00,1.1144
7099.00,1.1146
7098.00,1.1146
7097.00,1.1142
7096.00,1.1133
7095.00,1.1120
7094.00,1.1101
7093.00,1.1075
7092.00,1.1041
7091.00,1.1000
7090.00,1.0957
7089.00,1.0915
7088.00,1.0875
7087.00,1.0836
7086.00,1.0795
7085.00,1.0751
7084.00,1.0700
7083.00,1.0645
7082.00,1.0587
7081.00,1.0527
7080.00,1.0463
7079.00,1.0391
7078.00,1.0315
7077.00,1.0239
7076.00,1.0163
7075.00,1.0085
7074.00,1.0005
7073.00,0.9926
7072.00,0.9847
7071.00,0.9769
7070.00,0.9687
7069.00,0.9602
7068.00,0.9515
7067.00,0.9428
7066.00,0.9340
7065.00,0.9252
7064.00,0.9160
7063.00,0.9064
7062.00,0.8968
7061.00,0.8877
7060.00,0.8789
7059.00,0.8703
7058.00,0.8617
7057.00,0.8533
7056.00,0.8452
7055.00,0.8370
7054.00,0.8285
7053.00,0.8198
7052.00,0.8113
7051.00,0.8032
7050.00,0.7954
7049.00,0.7879
7048.00,0.7809
7047.00,0.7745
7046.00,0.7686
7045.00,0.7631
7044.00,0.7579
7043.00,0.7530
7042.00,0.7484
7041.00,0.7443
7040.00,0.7407
7039.00,0.7374
7038.00,0.7345
7037.00,0.7321
7036.00,0.7302
7035.00,0.7289
7034.00,0.7281
7033.00,0.7279
7032.00,0.7280
7031.00,0.7285
7030.00,0.7295
7029.00,0.7313
7028.00,0.7338
7027.00,0.7370
7026.00,0.7405
7025.00,0.7446
7024.00,0.7494
7023.00,0.7546
7022.00,0.7602
7021.00,0.7660
7020.00,0.7721
7019.00,0.7785
7018.00,0.7853
7017.00,0.7924
7016.00,0.7999
7015.00,0.8078
7014.00,0.8162
7013.00,0.8250
7012.00,0.8339
7011.00,0.8428
7010.00,0.8517
7009.00,0.8607
7008.00,0.8696
7007.00,0.8783
7006.00,0.8871
7005.00,0.8963
7004.00,0.9058
7003.00,0.9158
7002.00,0.9259
7001.00,0.9359
7000.00,0.9456
6999.00,0.9550
6998.00,0.9641
6997.00,0.9731
6996.00,0.9817
6995.00,0.9900
6994.00,0.9982
6993.00,1.0065
6992.00,1.0148
6991.00,1.0232
6990.00,1.0313
6989.00,1.0394
6988.00,1.0471
6987.00,1.0544
6986.00,1.0611
6985.00,1.0675
6984.00,1.0738
6983.00,1.0801
6982.00,1.0860
6981.00,1.0918
6980.00,1.0975
6979.00,1.1032
6978.00,1.1086
6977.00,1.1132
6976.00,1.1169
6975.00,1.1200
6974.00,1.1227
6973.00,1.1251
6972.00,1.1273
6971.00,1.1294
6970.00,1.1314
6969.00,1.1331
6968.00,1.1343
6967.00,1.1350
6966.00,1.1357
6965.00,1.1363
6964.00,1.1364
6963.00,1.1356
6962.00,1.1340
6961.00,1.1320
6960.00,1.1298
6959.00,1.1274
6958.00,1.1248
6957.00,1.1223
6956.00,1.1198
6955.00,1.1171
6954.00,1.1139
6953.00,1.1100
6952.00,1.1054
6951.00,1.1003
6950.00,1.0947
6949.00,1.0888
6948.00,1.0826
6947.00,1.0763
6946.00,1.0699
6945.00,1.0636
6944.00,1.0571
6943.00,1.0504
6942.00,1.0433
6941.00,1.0358
6940.00,1.0279
6939.00,1.0198
6938.00,1.0116
6937.00,1.0030
6936.00,0.9941
6935.00,0.9850
6934.00,0.9757
6933.00,0.9665
6932.00,0.9575
6931.00,0.9485
6930.00,0.9392
6929.00,0.9297
6928.00,0.9201
6927.00,0.9109
6926.00,0.9019
6925.00,0.8925
6924.00,0.8828
6923.00,0.8730
6922.00,0.8636
6921.00,0.8547
6920.00,0.8461
6919.00,0.8375
6918.00,0.8292
6917.00,0.8211
6916.00,0.8131
6915.00,0.8052
6914.00,0.7975
6913.00,0.7899
6912.00,0.7825
6911.00,0.7755
6910.00,0.7690
6909.00,0.7633
6908.00,0.7580
6907.00,0.7530
6906.00,0.7485
6905.00,0.7444
6904.00,0.7407
6903.00,0.7372
6902.00,0.7340
6901.00,0.7312
6900.00,0.7288
6899.00,0.7269
6898.00,0.7257
6897.00,0.7253
6896.00,0.7254
6895.00,0.7259
6894.00,0.7269
6893.00,0.7284
6892.00,0.7304
6891.00,0.7327
6890.00,0.7354
6889.00,0.7387
6888.00,0.7426
6887.00,0.7472
6886.00,0.7522
6885.00,0.7577
6884.00,0.7635
6883.00,0.7695
6882.00,0.7758
6881.00,0.7825
6880.00,0.7897
6879.00,0.7973
6878.00,0.8052
6877.00,0.8134
6876.00,0.8220
6875.00,0.8308
6874.00,0.8396
6873.00,0.8487
6872.00,0.8581
6871.00,0.8678
6870.00,0.8778
6869.00,0.8878
6868.00,0.8977
6867.00,0.9075
6866.00,0.9172
6865.00,0.9269
6864.00,0.9366
6863.00,0.9463
6862.00,0.9562
6861.00,0.9663
6860.00,0.9765
6859.00,0.9867
6858.00,0.9967
6857.00,1.0060
6856.00,1.0149
6855.00,1.0236
6854.00,1.0324
6853.00,1.0412
6852.00,1.0499
6851.00,1.0583
6850.00,1.0668
6849.00,1.0751
6848.00,1.0830
6847.00,1.0903
6846.00,1.0969
6845.00,1.1032
6844.00,1.1093
6843.00,1.1154
6842.00,1.1215
6841.00,1.1278
6840.00,1.1340
6839.00,1.1397
6838.00,1.1448
6837.00,1.1492
6836.00,1.1529
6835.00,1.1561
6834.00,1.1591
6833.00,1.1620
6832.00,1.1649
6831.00,1.1679
6830.00,1.1708
6829.00,1.1732
6828.00,1.1748
6827.00,1.1751
6826.00,1.1747
6825.00,1.1739
6824.00,1.1731
6823.00,1.1722
6822.00,1.1713
6821.00,1.1704
6820.00,1.1693
6819.00,1.1677
6818.00,1.1655
6817.00,1.1627
6816.00,1.1594
6815.00,1.1559
6814.00,1.1525
6813.00,1.1491
6812.00,1.1455
6811.00,1.1411
6810.00,1.1361
6809.00,1.1307
6808.00,1.1251
6807.00,1.1190
6806.00,1.1125
6805.00,1.1060
6804.00,1.0995
6803.00,1.0927
6802.00,1.0854
6801.00,1.0774
6800.00,1.0690
6799.00,1.0604
6798.00,1.0515
6797.00,1.0425
6796.00,1.0335
6795.00,1.0247
6794.00,1.0160
6793.00,1.0072
6792.00,0.9980
6791.00,0.9885
6790.00,0.9789
6789.00,0.9693
6788.00,0.9596
6787.00,0.9495
6786.00,0.9392
6785.00,0.9291
6784.00,0.9193
6783.00,0.9096
6782.00,0.9000
6781.00,0.8905
6780.00,0.8812
6779.00,0.8722
6778.00,0.8633
6777.00,0.8547
6776.00,0.8461
6775.00,0.8376
6774.00,0.8293
6773.00,0.8214
6772.00,0.8138
6771.00,0.8066
6770.00,0.7998
6769.00,0.7932
6768.00,0.7870
6767.00,0.7813
6766.00,0.7762
6765.00,0.7718
6764.00,0.7680
6763.00,0.7646
6762.00,0.7618
6761.00,0.7597
6760.00,0.7581
6759.00,0.7568
6758.00,0.7558
6757.00,0.7553
6756.00,0.7554
6755.00,0.7563
6754.00,0.7578
6753.00,0.7599
6752.00,0.7625
6751.00,0.7656
6750.00,0.7692
6749.00,0.7735
6748.00,0.7782
6747.00,0.7833
6746.00,0.7888
6745.00,0.7948
6744.00,0.8013
6743.00,0.8082
6742.00,0.8156
6741.00,0.8234
6740.00,0.8316
6739.00,0.8401
6738.00,0.8489
6737.00,0.8579
6736.00,0.8669
6735.00,0.8759
6734.00,0.8850
6733.00,0.8943
6732.00,0.9038
6731.00,0.9133
6730.00,0.9230
6729.00,0.9329
6728.00,0.9430
6727.00,0.9531
6726.00,0.9630
6725.00,0.9727
6724.00,0.9824
6723.00,0.9923
6722.00,1.0022
6721.00,1.0118
6720.00,1.0210
6719.00,1.0302
6718.00,1.0397
6717.00,1.0490
6716.00,1.0577
6715.00,1.0658
6714.00,1.0738
6713.00,1.0818
6712.00,1.0898
6711.00,1.0971
6710.00,1.1038
6709.00,1.1101
6708.00,1.1161
6707.00,1.1220
6706.00,1.1278
6705.00,1.1335
6704.00,1.1388
6703.00,1.1438
6702.00,1.1487
6701.00,1.1534
6700.00,1.1572
6699.00,1.1600
6698.00,1.1624
6697.00,1.1649
6696.00,1.1676
6695.00,1.1698
6694.00,1.1713
6693.00,1.1726
6692.00,1.1738
6691.00,1.1749
6690.00,1.1753
6689.00,1.1752
6688.00,1.1746
6687.00,1.1739
6686.00,1.1731
6685.00,1.1720
6684.00,1.1703
6683.00,1.1678
6682.00,1.1648
6681.00,1.1615
6680.00,1.1578
6679.00,1.1536
6678.00,1.1489
6677.00,1.1439
6676.00,1.1390
6675.00,1.1339
6674.00,1.1287
6673.00,1.1232
6672.00,1.1173
6671.00,1.1108
6670.00,1.1039
6669.00,1.0969
6668.00,1.0895
6667.00,1.0819
6666.00,1.0740
6665.00,1.0660
6664.00,1.0578
6663.00,1.0494
6662.00,1.0408
6661.00,1.0321
6660.00,1.0229
6659.00,1.0134
6658.00,1.0038
6657.00,0.9944
6656.00,0.9851
6655.00,0.9755
6654.00,0.9658
6653.00,0.9559
6652.00,0.9460
6651.00,0.9360
6650.00,0.9259
6649.00,0.9160
6648.00,0.9064
6647.00,0.8969
6646.00,0.8875
6645.00,0.8782
6644.00,0.8690
6643.00,0.8597
6642.00,0.8505
6641.00,0.8417
6640.00,0.8333
6639.00,0.8252
6638.00,0.8174
6637.00,0.8098
6636.00,0.8024
6635.00,0.7951
6634.00,0.7880
6633.00,0.7813
6632.00,0.7750
6631.00,0.7691
6630.00,0.7636
6629.00,0.7587
6628.00,0.7544
6627.00,0.7505
6626.00,0.7471
6625.00,0.7442
6624.00,0.7419
6623.00,0.7401
6622.00,0.7387
6621.00,0.7378
6620.00,0.7375
6619.00,0.7378
6618.00,0.7388
6617.00,0.7404
6616.00,0.7425
6615.00,0.7451
6614.00,0.7482
6613.00,0.7517
6612.00,0.7556
6611.00,0.7599
6610.00,0.7649
6609.00,0.7705
6608.00,0.7766
6607.00,0.7833
6606.00,0.7904
6605.00,0.7980
6604.00,0.8059
6603.00,0.8140
6602.00,0.8224
6601.00,0.8311
6600.00,0.8402
6599.00,0.8495
6598.00,0.8591
6597.00,0.8690
6596.00,0.8790
6595.00,0.8891
6594.00,0.8993
6593.00,0.9097
6592.00,0.9202
6591.00,0.9309
6590.00,0.9415
6589.00,0.9520
6588.00,0.9624
6587.00,0.9727
6586.00,0.9829
6585.00,0.9930
6584.00,1.0029
6583.00,1.0127
6582.00,1.0225
6581.00,1.0323
6580.00,1.0419
6579.00,1.0512
6578.00,1.0602
6577.00,1.0690
6576.00,1.0778
6575.00,1.0864
6574.00,1.0948
6573.00,1.1027
6572.00,1.1100
6571.00,1.1172
6570.00,1.1245
6569.00,1.1319
6568.00,1.1393
6567.00,1.1461
6566.00,1.1525
6565.00,1.1583
6564.00,1.1633
6563.00,1.1677
6562.00,1.1716
6561.00,1.1753
6560.00,1.1792
6559.00,1.1830
6558.00,1.1868
6557.00,1.1901
6556.00,1.1927
6555.00,1.1944
6554.00,1.1957
6553.00,1.1967
6552.00,1.1977
6551.00,1.1986
6550.00,1.1990
6549.00,1.1991
6548.00,1.1987
6547.00,1.1977
6546.00,1.1962
6545.00,1.1945
6544.00,1.1927
6543.00,1.1908
6542.00,1.1887
6541.00,1.1864
6540.00,1.1838
6539.00,1.1807
6538.00,1.1769
6537.00,1.1725
6536.00,1.1677
6535.00,1.1627
6534.00,1.1574
6533.00,1.1516
6532.00,1.1451
6531.00,1.1382
6530.00,1.1313
6529.00,1.1243
6528.00,1.1169
6527.00,1.1088
6526.00,1.1003
6525.00,1.0920
6524.00,1.0838
6523.00,1.0753
6522.00,1.0664
6521.00,1.0572
6520.00,1.0479
6519.00,1.0386
6518.00,1.0290
6517.00,1.0190
6516.00,1.0087
6515.00,0.9984
6514.00,0.9881
6513.00,0.9777
6512.00,0.9673
6511.00,0.9568
6510.00,0.9461
6509.00,0.9355
6508.00,0.9249
6507.00,0.9145
6506.00,0.9042
6505.00,0.8940
6504.00,0.8838
6503.00,0.8737
6502.00,0.8638
6501.00,0.8541
6500.00,0.8448
6499.00,0.8357
6498.00,0.8270
6497.00,0.8186
6496.00,0.8108
6495.00,0.8034
6494.00,0.7964
6493.00,0.7898
6492.00,0.7837
6491.00,0.7779
6490.00,0.7726
6489.00,0.7679
6488.00,0.7635
6487.00,0.7596
6486.00,0.7561
6485.00,0.7533
6484.00,0.7512
6483.00,0.7497
6482.00,0.7490
6481.00,0.7490
6480.00,0.7496
6479.00,0.7508
6478.00,0.7526
6477.00,0.7548
6476.00,0.7575
6475.00,0.7608
6474.00,0.7647
6473.00,0.7692
6472.00,0.7745
6471.00,0.7803
6470.00,0.7866
6469.00,0.7934
6468.00,0.8006
6467.00,0.8083
6466.00,0.8165
6465.00,0.8251
6464.00,0.8340
6463.00,0.8430
6462.00,0.8522
6461.00,0.8616
6460.00,0.8711
6459.00,0.8808
6458.00,0.8906
6457.00,0.9008
6456.00,0.9111
6455.00,0.9215
6454.00,0.9317
6453.00,0.9418
6452.00,0.9519
6451.00,0.9622
6450.00,0.9727
6449.00,0.9834
6448.00,0.9939
6447.00,1.0042
6446.00,1.0143
6445.00,1.0240
6444.00,1.0335
6443.00,1.0429
6442.00,1.0521
6441.00,1.0612
6440.00,1.0703
6439.00,1.0791
6438.00,1.0874
6437.00,1.0953
6436.00,1.1029
6435.00,1.1105
6434.00,1.1179
6433.00,1.1251
6432.00,1.1320
6431.00,1.1384
6430.00,1.1442
6429.00,1.1495
6428.00,1.1543
6427.00,1.1590
6426.00,1.1636
6425.00,1.1679
6424.00,1.1716
6423.00,1.1747
6422.00,1.1775
6421.00,1.1801
6420.00,1.1825
6419.00,1.1846
6418.00,1.1865
6417.00,1.1882
6416.00,1.1897
6415.00,1.1907
6414.00,1.1910
6413.00,1.1906
6412.00,1.1897
6411.00,1.1884
6410.00,1.1870
6409.00,1.1854
6408.00,1.1835
6407.00,1.1814
6406.00,1.1792
6405.00,1.1768
6404.00,1.1738
6403.00,1.1701
6402.00,1.1657
6401.00,1.1610
6400.00,1.1562
6399.00,1.1514
6398.00,1.1463
6397.00,1.1407
6396.00,1.1347
6395.00,1.1281
6394.00,1.1209
6393.00,1.1132
6392.00,1.1050
6391.00,1.0967
6390.00,1.0884
6389.00,1.0798
6388.00,1.0709
6387.00,1.0618
6386.00,1.0527
6385.00,1.0434
6384.00,1.0339
6383.00,1.0242
6382.00,1.0145
6381.00,1.0048
6380.00,0.9948
6379.00,0.9842
6378.00,0.9735
6377.00,0.9628
6376.00,0.9522
6375.00,0.9415
6374.00,0.9310
6373.00,0.9206
6372.00,0.9103
6371.00,0.9001
6370.00,0.8899
6369.00,0.8798
6368.00,0.8698
6367.00,0.8600
6366.00,0.8505
6365.00,0.8413
6364.00,0.8323
6363.00,0.8234
6362.00,0.8148
6361.00,0.8064
6360.00,0.7983
6359.00,0.7904
6358.00,0.7830
6357.00,0.7762
6356.00,0.7698
6355.00,0.7636
6354.00,0.7578
6353.00,0.7525
6352.00,0.7478
6351.00,0.7435
6350.00,0.7398
6349.00,0.7366
6348.00,0.7339
6347.00,0.7319
6346.00,0.7303
6345.00,0.7294
6344.00,0.7291
6343.00,0.7292
6342.00,0.7301
6341.00,0.7316
6340.00,0.7338
6339.00,0.7365
6338.00,0.7398
6337.00,0.7438
6336.00,0.7485
6335.00,0.7538
6334.00,0.7597
6333.00,0.7661
6332.00,0.7729
6331.00,0.7801
6330.00,0.7877
6329.00,0.7957
6328.00,0.8040
6327.00,0.8125
6326.00,0.8213
6325.00,0.8305
6324.00,0.8398
6323.00,0.8494
6322.00,0.8591
6321.00,0.8690
6320.00,0.8792
6319.00,0.8897
6318.00,0.9003
6317.00,0.9111
6316.00,0.9220
6315.00,0.9329
6314.00,0.9437
6313.00,0.9545
6312.00,0.9650
6311.00,0.9754
6310.00,0.9857
6309.00,0.9960
6308.00,1.0063
6307.00,1.0166
6306.00,1.0269
6305.00,1.0373
6304.00,1.0477
6303.00,1.0576
6302.00,1.0670
6301.00,1.0760
6300.00,1.0846
6299.00,1.0929
6298.00,1.1010
6297.00,1.1089
6296.00,1.1168
6295.00,1.1245
6294.00,1.1322
6293.00,1.1395
6292.00,1.1463
6291.00,1.1527
6290.00,1.1586
6289.00,1.1641
6288.00,1.1691
6287.00,1.1734
6286.00,1.1774
6285.00,1.1812
6284.00,1.1847
6283.00,1.1877
6282.00,1.1905
6281.00,1.1932
6280.00,1.1958
6279.00,1.1981
6278.00,1.2000
6277.00,1.2017
6276.00,1.2032
6275.00,1.2040
6274.00,1.2042
6273.00,1.2039
6272.00,1.2032
6271.00,1.2021
6270.00,1.2006
6269.00,1.1986
6268.00,1.1963
6267.00,1.1934
6266.00,1.1901
6265.00,1.1865
6264.00,1.1827
6263.00,1.1789
6262.00,1.1751
6261.00,1.1712
6260.00,1.1669
6259.00,1.1619
6258.00,1.1562
6257.00,1.1498
6256.00,1.1429
6255.00,1.1354
6254.00,1.1276
6253.00,1.1195
6252.00,1.1115
6251.00,1.1033
6250.00,1.0950
6249.00,1.0864
6248.00,1.0774
6247.00,1.0681
6246.00,1.0584
6245.00,1.0485
6244.00,1.0384
6243.00,1.0280
6242.00,1.0175
6241.00,1.0068
6240.00,0.9960
6239.00,0.9849
6238.00,0.9734
6237.00,0.9619
6236.00,0.9504
6235.00,0.9390
6234.00,0.9277
6233.00,0.9165
6232.00,0.9056
6231.00,0.8947
6230.00,0.8839
6229.00,0.8730
6228.00,0.8622
6227.00,0.8514
6226.00,0.8408
6225.00,0.8306
6224.00,0.8206
6223.00,0.8111
6222.00,0.8019
6221.00,0.7931
6220.00,0.7847
6219.00,0.7766
6218.00,0.7690
6217.00,0.7619
6216.00,0.7553
6215.00,0.7490
6214.00,0.7432
6213.00,0.7380
6212.00,0.7335
6211.00,0.7296
6210.00,0.7264
6209.00,0.7241
6208.00,0.7224
6207.00,0.7212
6206.00,0.7206
6205.00,0.7206
6204.00,0.7212
6203.00,0.7225
6202.00,0.7246
6201.00,0.7275
6200.00,0.7310
6199.00,0.7351
6198.00,0.7398
6197.00,0.7450
6196.00,0.7506
6195.00,0.7565
6194.00,0.7631
6193.00,0.7704
6192.00,0.7784
6191.00,0.7869
6190.00,0.7959
6189.00,0.8052
6188.00,0.8148
6187.00,0.8245
6186.00,0.8343
6185.00,0.8442
6184.00,0.8544
6183.00,0.8652
6182.00,0.8763
6181.00,0.8876
6180.00,0.8987
6179.00,0.9098
6178.00,0.9210
6177.00,0.9322
6176.00,0.9432
6175.00,0.9540
6174.00,0.9649
6173.00,0.9759
6172.00,0.9870
6171.00,0.9980
6170.00,1.0088
6169.00,1.0194
6168.00,1.0295
6167.00,1.0390
6166.00,1.0480
6165.00,1.0568
6164.00,1.0654
6163.00,1.0741
6162.00,1.0830
6161.00,1.0922
6160.00,1.1013
6159.00,1.1098
6158.00,1.1176
6157.00,1.1248
6156.00,1.1315
6155.00,1.1379
6154.00,1.1440
6153.00,1.1499
6152.00,1.1554
6151.00,1.1603
6150.00,1.1647
6149.00,1.1687
6148.00,1.1721
6147.00,1.1752
6146.00,1.1782
6145.00,1.1811
6144.00,1.1838
6143.00,1.1861
6142.00,1.1877
6141.00,1.1889
6140.00,1.1897
6139.00,1.1901
6138.00,1.1901
6137.00,1.1899
6136.00,1.1892
6135.00,1.1879
6134.00,1.1860
6133.00,1.1835
6132.00,1.1807
6131.00,1.1777
6130.00,1.1744
6129.00,1.1709
6128.00,1.1673
6127.00,1.1637
6126.00,1.1601
6125.00,1.1562
6124.00,1.1519
6123.00,1.1470
6122.00,1.1416
6121.00,1.1357
6120.00,1.1291
6119.00,1.1220
6118.00,1.1144
6117.00,1.1068
6116.00,1.0991
6115.00,1.0911
6114.00,1.0828
6113.00,1.0742
6112.00,1.0654
6111.00,1.0563
6110.00,1.0471
6109.00,1.0376
6108.00,1.0279
6107.00,1.0178
6106.00,1.0078
6105.00,0.9977
6104.00,0.9876
6103.00,0.9771
6102.00,0.9663
6101.00,0.9554
6100.00,0.9443
6099.00,0.9331
6098.00,0.9218
6097.00,0.9106
6096.00,0.8996
6095.00,0.8885
6094.00,0.8775
6093.00,0.8665
6092.00,0.8556
6091.00,0.8448
6090.00,0.8341
6089.00,0.8236
6088.00,0.8132
6087.00,0.8030
6086.00,0.7932
6085.00,0.7838
6084.00,0.7748
6083.00,0.7661
6082.00,0.7579
6081.00,0.7501
6080.00,0.7425
6079.00,0.7355
6078.00,0.7290
6077.00,0.7232
6076.00,0.7180
6075.00,0.7134
6074.00,0.7093
6073.00,0.7058
6072.00,0.7029
6071.00,0.7005
6070.00,0.6988
6069.00,0.6980
6068.00,0.6978
6067.00,0.6983
6066.00,0.6995
6065.00,0.7014
6064.00,0.7040
6063.00,0.7072
6062.00,0.7112
6061.00,0.7159
6060.00,0.7213
6059.00,0.7272
6058.00,0.7337
6057.00,0.7407
6056.00,0.7483
6055.00,0.7564
6054.00,0.7649
6053.00,0.7738
6052.00,0.7830
6051.00,0.7926
6050.00,0.8025
6049.00,0.8127
6048.00,0.8232
6047.00,0.8339
6046.00,0.8450
6045.00,0.8563
6044.00,0.8678
6043.00,0.8793
6042.00,0.8910
6041.00,0.9029
6040.00,0.9150
6039.00,0.9270
6038.00,0.9390
6037.00,0.9507
6036.00,0.9621
6035.00,0.9731
6034.00,0.9840
6033.00,0.9948
6032.00,1.0056
6031.00,1.0165
6030.00,1.0276
6029.00,1.0385
6028.00,1.0489
6027.00,1.0588
6026.00,1.0684
6025.00,1.0778
6024.00,1.0870
6023.00,1.0959
6022.00,1.1045
6021.00,1.1128
6020.00,1.1209
6019.00,1.1285
6018.00,1.1358
6017.00,1.1430
6016.00,1.1499
6015.00,1.1565
6014.00,1.1626
6013.00,1.1681
6012.00,1.1731
6011.00,1.1776
6010.00,1.1817
6009.00,1.1855
6008.00,1.1890
6007.00,1.1921
6006.00,1.1948
6005.00,1.1971
6004.00,1.1988
6003.00,1.1999
6002.00,1.2007
6001.00,1.2013
6000.00,1.2019
5999.00,1.2024
5998.00,1.2027
5997.00,1.2026
5996.00,1.2020
5995.00,1.2008
5994.00,1.1991
5993.00,1.1970
5992.00,1.1945
5991.00,1.1916
5990.00,1.1883
5989.00,1.1845
5988.00,1.1803
5987.00,1.1758
5986.00,1.1710
5985.00,1.1661
5984.00,1.1609
5983.00,1.1553
5982.00,1.1490
5981.00,1.1422
5980.00,1.1349
5979.00,1.1274
5978.00,1.1199
5977.00,1.1124
5976.00,1.1044
5975.00,1.0959
5974.00,1.0870
5973.00,1.0777
5972.00,1.0680
5971.00,1.0578
5970.00,1.0473
5969.00,1.0367
5968.00,1.0260
5967.00,1.0151
5966.00,1.0039
5965.00,0.9928
5964.00,0.9819
5963.00,0.9711
5962.00,0.9604
5961.00,0.9498
5960.00,0.9391
5959.00,0.9282
5958.00,0.9174
5957.00,0.9067
5956.00,0.8961
5955.00,0.8855
5954.00,0.8749
5953.00,0.8644
5952.00,0.8539
5951.00,0.8434
5950.00,0.8328
5949.00,0.8222
5948.00,0.8116
5947.00,0.8010
5946.00,0.7905
5945.00,0.7802
5944.00,0.7701
5943.00,0.7604
5942.00,0.7513
5941.00,0.7428
5940.00,0.7349
5939.00,0.7276
5938.00,0.7210
5937.00,0.7150
5936.00,0.7097
5935.00,0.7050
5934.00,0.7010
5933.00,0.6979
5932.00,0.6955
5931.00,0.6940
5930.00,0.6933
5929.00,0.6935
5928.00,0.6944
5927.00,0.6960
5926.00,0.6984
5925.00,0.7015
5924.00,0.7054
5923.00,0.7100
5922.00,0.7153
5921.00,0.7212
5920.00,0.7277
5919.00,0.7348
5918.00,0.7424
5917.00,0.7506
5916.00,0.7593
5915.00,0.7686
5914.00,0.7783
5913.00,0.7885
5912.00,0.7991
5911.00,0.8099
5910.00,0.8211
5909.00,0.8324
5908.00,0.8439
5907.00,0.8555
5906.00,0.8674
5905.00,0.8794
5904.00,0.8915
5903.00,0.9036
5902.00,0.9158
5901.00,0.9279
5900.00,0.9400
5899.00,0.9518
5898.00,0.9636
5897.00,0.9754
5896.00,0.9873
5895.00,0.9990
5894.00,1.0107
5893.00,1.0222
5892.00,1.0335
5891.00,1.0445
5890.00,1.0552
5889.00,1.0659
5888.00,1.0764
5887.00,1.0865
5886.00,1.0960
5885.00,1.1052
5884.00,1.1140
5883.00,1.1223
5882.00,1.1299
5881.00,1.1370
5880.00,1.1440
5879.00,1.1508
5878.00,1.1572
5877.00,1.1631
5876.00,1.1687
5875.00,1.1742
5874.00,1.1795
5873.00,1.1842
5872.00,1.1883
5871.00,1.1919
5870.00,1.1952
5869.00,1.1982
5868.00,1.2009
5867.00,1.2034
5866.00,1.2057
5865.00,1.2077
5864.00,1.2094
5863.00,1.2105
5862.00,1.2110
5861.00,1.2109
5860.00,1.2103
5859.00,1.2092
5858.00,1.2078
5857.00,1.2059
5856.00,1.2036
5855.00,1.2012
5854.00,1.1988
5853.00,1.1964
5852.00,1.1937
5851.00,1.1904
5850.00,1.1866
5849.00,1.1823
5848.00,1.1775
5847.00,1.1721
5846.00,1.1662
5845.00,1.1601
5844.00,1.1539
5843.00,1.1475
5842.00,1.1409
5841.00,1.1339
5840.00,1.1266
5839.00,1.1188
5838.00,1.1105
5837.00,1.1017
5836.00,1.0925
5835.00,1.0831
5834.00,1.0736
5833.00,1.0641
5832.00,1.0543
5831.00,1.0439
5830.00,1.0332
5829.00,1.0221
5828.00,1.0107
5827.00,0.9990
5826.00,0.9873
5825.00,0.9756
5824.00,0.9638
5823.00,0.9518
5822.00,0.9396
5821.00,0.9273
5820.00,0.9148
5819.00,0.9023
5818.00,0.8899
5817.00,0.8777
5816.00,0.8656
5815.00,0.8535
5814.00,0.8415
5813.00,0.8297
5812.00,0.8180
5811.00,0.8066
5810.00,0.7955
5809.00,0.7850
5808.00,0.7748
5807.00,0.7650
5806.00,0.7556
5805.00,0.7467
5804.00,0.7382
5803.00,0.7302
5802.00,0.7227
5801.00,0.7158
5800.00,0.7094
5799.00,0.7036
5798.00,0.6986
5797.00,0.6942
5796.00,0.6907
5795.00,0.6879
5794.00,0.6858
5793.00,0.6845
5792.00,0.6838
5791.00,0.6838
5790.00,0.6845
5789.00,0.6861
5788.00,0.6884
5787.00,0.6915
5786.00,0.6952
5785.00,0.6998
5784.00,0.7050
5783.00,0.7109
5782.00,0.7174
5781.00,0.7247
5780.00,0.7326
5779.00,0.7411
5778.00,0.7502
5777.00,0.7596
5776.00,0.7695
5775.00,0.7798
5774.00,0.7905
5773.00,0.8016
5772.00,0.8130
5771.00,0.8247
5770.00,0.8366
5769.00,0.8487
5768.00,0.8610
5767.00,0.8735
5766.00,0.8861
5765.00,0.8987
5764.00,0.9113
5763.00,0.9237
5762.00,0.9360
5761.00,0.9483
5760.00,0.9606
5759.00,0.9728
5758.00,0.9850
5757.00,0.9973
5756.00,1.0096
5755.00,1.0216
5754.00,1.0334
5753.00,1.0448
5752.00,1.0557
5751.00,1.0662
5750.00,1.0763
5749.00,1.0863
5748.00,1.0960
5747.00,1.1055
5746.00,1.1148
5745.00,1.1236
5744.00,1.1321
5743.00,1.1402
5742.00,1.1479
5741.00,1.1553
5740.00,1.1624
5739.00,1.1689
5738.00,1.1749
5737.00,1.1804
5736.00,1.1856
5735.00,1.1904
5734.00,1.1950
5733.00,1.1992
5732.00,1.2032
5731.00,1.2068
5730.00,1.2100
5729.00,1.2126
5728.00,1.2146
5727.00,1.2160
5726.00,1.2170
5725.00,1.2177
5724.00,1.2182
5723.00,1.2184
5722.00,1.2181
5721.00,1.2175
5720.00,1.2164
5719.00,1.2149
5718.00,1.2130
5717.00,1.2108
5716.00,1.2085
5715.00,1.2058
5714.00,1.2027
5713.00,1.1993
5712.00,1.1955
5711.00,1.1914
5710.00,1.1868
5709.00,1.1819
5708.00,1.1765
5707.00,1.1707
5706.00,1.1645
5705.00,1.1579
5704.00,1.1509
5703.00,1.1434
5702.00,1.1354
5701.00,1.1271
5700.00,1.1184
5699.00,1.1093
5698.00,1.0999
5697.00,1.0905
5696.00,1.0807
5695.00,1.0705
5694.00,1.0598
5693.00,1.0488
5692.00,1.0375
5691.00,1.0260
5690.00,1.0142
5689.00,1.0022
5688.00,0.9901
5687.00,0.9779
5686.00,0.9656
5685.00,0.9531
5684.00,0.9404
5683.00,0.9275
5682.00,0.9144
5681.00,0.9010
5680.00,0.8877
5679.00,0.8744
5678.00,0.8614
5677.00,0.8487
5676.00,0.8364
5675.00,0.8242
5674.00,0.8123
5673.00,0.8007
5672.00,0.7893
5671.00,0.7782
5670.00,0.7675
5669.00,0.7572
5668.00,0.7473
5667.00,0.7378
5666.00,0.7288
5665.00,0.7204
5664.00,0.7126
5663.00,0.7055
5662.00,0.6989
5661.00,0.6931
5660.00,0.6880
5659.00,0.6836
5658.00,0.6801
5657.00,0.6775
5656.00,0.6757
5655.00,0.6746
5654.00,0.6744
5653.00,0.6750
5652.00,0.6764
5651.00,0.6787
5650.00,0.6819
5649.00,0.6859
5648.00,0.6907
5647.00,0.6961
5646.00,0.7023
5645.00,0.7092
5644.00,0.7166
5643.00,0.7247
5642.00,0.7335
5641.00,0.7428
5640.00,0.7527
5639.00,0.7629
5638.00,0.7737
5637.00,0.7850
5636.00,0.7966
5635.00,0.8087
5634.00,0.8210
5633.00,0.8337
5632.00,0.8465
5631.00,0.8594
5630.00,0.8724
5629.00,0.8855
5628.00,0.8987
5627.00,0.9119
5626.00,0.9250
5625.00,0.9380
5624.00,0.9510
5623.00,0.9639
5622.00,0.9768
5621.00,0.9896
5620.00,1.0024
5619.00,1.0150
5618.00,1.0274
5617.00,1.0395
5616.00,1.0515
5615.00,1.0631
5614.00,1.0744
5613.00,1.0855
5612.00,1.0961
5611.00,1.1062
5610.00,1.1158
5609.00,1.1250
5608.00,1.1338
5607.00,1.1423
5606.00,1.1505
5605.00,1.1586
5604.00,1.1664
5603.00,1.1739
5602.00,1.1810
5601.00,1.1876
5600.00,1.1937
5599.00,1.1992
5598.00,1.2043
5597.00,1.2089
5596.00,1.2133
5595.00,1.2175
5594.00,1.2214
5593.00,1.2249
5592.00,1.2277
5591.00,1.2298
5590.00,1.2311
5589.00,1.2321
5588.00,1.2329
5587.00,1.2338
5586.00,1.2345
5585.00,1.2349
5584.00,1.2349
5583.00,1.2343
5582.00,1.2332
5581.00,1.2317
5580.00,1.2300
5579.00,1.2280
5578.00,1.2256
5577.00,1.2225
5576.00,1.2187
5575.00,1.2145
5574.00,1.2100
5573.00,1.2053
5572.00,1.2003
5571.00,1.1950
5570.00,1.1891
5569.00,1.1827
5568.00,1.1758
5567.00,1.1684
5566.00,1.1608
5565.00,1.1530
5564.00,1.1449
5563.00,1.1364
5562.00,1.1274
5561.00,1.1179
5560.00,1.1081
5559.00,1.0979
5558.00,1.0874
5557.00,1.0766
5556.00,1.0655
5555.00,1.0539
5554.00,1.0419
5553.00,1.0295
5552.00,1.0168
5551.00,1.0038
5550.00,0.9906
5549.00,0.9773
5548.00,0.9639
5547.00,0.9504
5546.00,0.9366
5545.00,0.9228
5544.00,0.9089
5543.00,0.8951
5542.00,0.8813
5541.00,0.8676
5540.00,0.8539
5539.00,0.8403
5538.00,0.8267
5537.00,0.8133
5536.00,0.8003
5535.00,0.7876
5534.00,0.7753
5533.00,0.7635
5532.00,0.7521
5531.00,0.7412
5530.00,0.7307
5529.00,0.7208
5528.00,0.7115
5527.00,0.7028
5526.00,0.6950
5525.00,0.6878
5524.00,0.6814
5523.00,0.6757
5522.00,0.6709
5521.00,0.6668
5520.00,0.6636
5519.00,0.6613
5518.00,0.6598
5517.00,0.6593
5516.00,0.6597
5515.00,0.6610
5514.00,0.6632
5513.00,0.6664
5512.00,0.6704
5511.00,0.6752
5510.00,0.6807
5509.00,0.6870
5508.00,0.6941
5507.00,0.7019
5506.00,0.7104
5505.00,0.7196
5504.00,0.7294
5503.00,0.7398
5502.00,0.7506
5501.00,0.7619
5500.00,0.7737
5499.00,0.7859
5498.00,0.7984
5497.00,0.8112
5496.00,0.8242
5495.00,0.8372
5494.00,0.8505
5493.00,0.8641
5492.00,0.8780
5491.00,0.8921
5490.00,0.9063
5489.00,0.9204
5488.00,0.9344
5487.00,0.9482
5486.00,0.9621
5485.00,0.9760
5484.00,0.9898
5483.00,1.0034
5482.00,1.0167
5481.00,1.0295
5480.00,1.0419
5479.00,1.0541
5478.00,1.0662
5477.00,1.0783
5476.00,1.0903
5475.00,1.1019
5474.00,1.1130
5473.00,1.1235
5472.00,1.1335
5471.00,1.1432
5470.00,1.1527
5469.00,1.1621
5468.00,1.1712
5467.00,1.1797
5466.00,1.1876
5465.00,1.1949
5464.00,1.2018
5463.00,1.2083
5462.00,1.2146
5461.00,1.2205
5460.00,1.2259
5459.00,1.2309
5458.00,1.2356
5457.00,1.2399
5456.00,1.2438
5455.00,1.2474
5454.00,1.2504
5453.00,1.2530
5452.00,1.2551
5451.00,1.2568
5450.00,1.2584
5449.00,1.2597
5448.00,1.2606
5447.00,1.2609
5446.00,1.2607
5445.00,1.2599
5444.00,1.2584
5443.00,1.2564
5442.00,1.2541
5441.00,1.2520
5440.00,1.2498
5439.00,1.2473
5438.00,1.2442
5437.00,1.2404
5436.00,1.2360
5435.00,1.2311
5434.00,1.2257
5433.00,1.2202
5432.00,1.2146
5431.00,1.2086
5430.00,1.2020
5429.00,1.1949
5428.00,1.1871
5427.00,1.1788
5426.00,1.1702
5425.00,1.1615
5424.00,1.1526
5423.00,1.1433
5422.00,1.1338
5421.00,1.1239
5420.00,1.1136
5419.00,1.1028
5418.00,1.0916
5417.00,1.0801
5416.00,1.0681
5415.00,1.0556
5414.00,1.0426
5413.00,1.0291
5412.00,1.0153
5411.00,1.0013
5410.00,0.9871
5409.00,0.9729
5408.00,0.9587
5407.00,0.9445
5406.00,0.9303
5405.00,0.9161
5404.00,0.9020
5403.00,0.8881
5402.00,0.8743
5401.00,0.8607
5400.00,0.8472
5399.00,0.8339
5398.00,0.8208
5397.00,0.8079
5396.00,0.7954
5395.00,0.7831
5394.00,0.7712
5393.00,0.7597
5392.00,0.7488
5391.00,0.7385
5390.00,0.7290
5389.00,0.7203
5388.00,0.7125
5387.00,0.7053
5386.00,0.6989
5385.00,0.6932
5384.00,0.6881
5383.00,0.6839
5382.00,0.6806
5381.00,0.6783
5380.00,0.6770
5379.00,0.6766
5378.00,0.6772
5377.00,0.6788
5376.00,0.6812
5375.00,0.6845
5374.00,0.6885
5373.00,0.6933
5372.00,0.6990
5371.00,0.7056
5370.00,0.7130
5369.00,0.7215
5368.00,0.7307
5367.00,0.7406
5366.00,0.7511
5365.00,0.7621
5364.00,0.7736
5363.00,0.7855
5362.00,0.7979
5361.00,0.8107
5360.00,0.8238
5359.00,0.8372
5358.00,0.8509
5357.00,0.8649
5356.00,0.8790
5355.00,0.8932
5354.00,0.9077
5353.00,0.9222
5352.00,0.9367
5351.00,0.9510
5350.00,0.9653
5349.00,0.9795
5348.00,0.9936
5347.00,1.0074
5346.00,1.0210
5345.00,1.0348
5344.00,1.0484
5343.00,1.0617
5342.00,1.0747
5341.00,1.0871
5340.00,1.0993
5339.00,1.1114
5338.00,1.1233
5337.00,1.1351
5336.00,1.1465
5335.00,1.1575
5334.00,1.1680
5333.00,1.1780
5332.00,1.1874
5331.00,1.1963
5330.00,1.2047
5329.00,1.2127
5328.00,1.2204
5327.00,1.2277
5326.00,1.2346
5325.00,1.2412
5324.00,1.2473
5323.00,1.2530
5322.00,1.2583
5321.00,1.2633
5320.00,1.2678
5319.00,1.2719
5318.00,1.2755
5317.00,1.2787
5316.00,1.2813
5315.00,1.2834
5314.00,1.2849
5313.00,1.2860
5312.00,1.2869
5311.00,1.2877
5310.00,1.2883
5309.00,1.2886
5308.00,1.2883
5307.00,1.2873
5306.00,1.2857
5305.00,1.2837
5304.00,1.2813
5303.00,1.2787
5302.00,1.2760
5301.00,1.2729
5300.00,1.2695
5299.00,1.2655
5298.00,1.2610
5297.00,1.2559
5296.00,1.2503
5295.00,1.2442
5294.00,1.2377
5293.00,1.2309
5292.00,1.2237
5291.00,1.2160
5290.00,1.2077
5289.00,1.1989
5288.00,1.1898
5287.00,1.1805
5286.00,1.1709
5285.00,1.1609
5284.00,1.1504
5283.00,1.1394
5282.00,1.1280
5281.00,1.1163
5280.00,1.1042
5279.00,1.0919
5278.00,1.0793
5277.00,1.0665
5276.00,1.0533
5275.00,1.0398
5274.00,1.0259
5273.00,1.0116
5272.00,0.9970
5271.00,0.9823
5270.00,0.9675
5269.00,0.9529
5268.00,0.9382
5267.00,0.9236
5266.00,0.9089
5265.00,0.8943
5264.00,0.8799
5263.00,0.8656
5262.00,0.8517
5261.00,0.8382
5260.00,0.8252
5259.00,0.8125
5258.00,0.8003
5257.00,0.7884
5256.00,0.7770
5255.00,0.7660
5254.00,0.7555
5253.00,0.7455
5252.00,0.7361
5251.00,0.7273
5250.00,0.7190
5249.00,0.7114
5248.00,0.7046
5247.00,0.6985
5246.00,0.6934
5245.00,0.6891
5244.00,0.6858
5243.00,0.6834
5242.00,0.6819
5241.00,0.6816
5240.00,0.6822
5239.00,0.6839
5238.00,0.6866
5237.00,0.6902
5236.00,0.6948
5235.00,0.7002
5234.00,0.7066
5233.00,0.7138
5232.00,0.7218
5231.00,0.7306
5230.00,0.7401
5229.00,0.7502
5228.00,0.7608
5227.00,0.7720
5226.00,0.7838
5225.00,0.7964
5224.00,0.8095
5223.00,0.8230
5222.00,0.8369
5221.00,0.8511
5220.00,0.8655
5219.00,0.8803
5218.00,0.8953
5217.00,0.9106
5216.00,0.9259
5215.00,0.9411
5214.00,0.9562
5213.00,0.9713
5212.00,0.9864
5211.00,1.0014
5210.00,1.0162
5209.00,1.0308
5208.00,1.0452
5207.00,1.0592
5206.00,1.0731
5205.00,1.0869
5204.00,1.1007
5203.00,1.1142
5202.00,1.1274
5201.00,1.1402
5200.00,1.1525
5199.00,1.1644
5198.00,1.1759
5197.00,1.1870
5196.00,1.1977
5195.00,1.2078
5194.00,1.2173
5193.00,1.2264
5192.00,1.2351
5191.00,1.2433
5190.00,1.2511
5189.00,1.2584
5188.00,1.2651
5187.00,1.2715
5186.00,1.2775
5185.00,1.2833
5184.00,1.2888
5183.00,1.2939
5182.00,1.2987
5181.00,1.3030
5180.00,1.3067
5179.00,1.3100
5178.00,1.3129
5177.00,1.3154
5176.00,1.3176
5175.00,1.3194
5174.00,1.3211
5173.00,1.3223
5172.00,1.3231
5171.00,1.3233
5170.00,1.3230
5169.00,1.3221
5168.00,1.3207
5167.00,1.3187
5166.00,1.3163
5165.00,1.3135
5164.00,1.3104
5163.00,1.3069
5162.00,1.3031
5161.00,1.2988
5160.00,1.2940
5159.00,1.2888
5158.00,1.2834
5157.00,1.2779
5156.00,1.2722
5155.00,1.2661
5154.00,1.2595
5153.00,1.2521
5152.00,1.2439
5151.00,1.2351
5150.00,1.2260
5149.00,1.2166
5148.00,1.2069
5147.00,1.1968
5146.00,1.1863
5145.00,1.1754
5144.00,1.1640
5143.00,1.1523
5142.00,1.1401
5141.00,1.1275
5140.00,1.1144
5139.00,1.1007
5138.00,1.0867
5137.00,1.0724
5136.00,1.0578
5135.00,1.0429
5134.00,1.0278
5133.00,1.0126
5132.00,0.9973
5131.00,0.9819
5130.00,0.9663
5129.00,0.9507
5128.00,0.9350
5127.00,0.9192
5126.00,0.9036
5125.00,0.8882
5124.00,0.8731
5123.00,0.8582
5122.00,0.8435
5121.00,0.8292
5120.00,0.8152
5119.00,0.8017
5118.00,0.7887
5117.00,0.7763
5116.00,0.7644
5115.00,0.7532
5114.00,0.7425
5113.00,0.7326
5112.00,0.7235
5111.00,0.7153
5110.00,0.7081
5109.00,0.7019
5108.00,0.6967
5107.00,0.6924
5106.00,0.6891
5105.00,0.6869
5104.00,0.6857
5103.00,0.6856
5102.00,0.6866
5101.00,0.6887
5100.00,0.6919
5099.00,0.6963
5098.00,0.7017
5097.00,0.7081
5096.00,0.7155
5095.00,0.7237
5094.00,0.7328
5093.00,0.7427
5092.00,0.7534
5091.00,0.7647
5090.00,0.7767
5089.00,0.7893
5088.00,0.8024
5087.00,0.8161
5086.00,0.8304
5085.00,0.8452
5084.00,0.8603
5083.00,0.8756
5082.00,0.8911
5081.00,0.9067
5080.00,0.9224
5079.00,0.9382
5078.00,0.9541
5077.00,0.9701
5076.00,0.9860
5075.00,1.0017
5074.00,1.0175
5073.00,1.0331
5072.00,1.0486
5071.00,1.0637
5070.00,1.0786
5069.00,1.0933
5068.00,1.1077
5067.00,1.1218
5066.00,1.1357
5065.00,1.1492
5064.00,1.1624
5063.00,1.1751
5062.00,1.1873
5061.00,1.1991
5060.00,1.2106
5059.00,1.2215
5058.00,1.2319
5057.00,1.2419
5056.00,1.2516
5055.00,1.2609
5054.00,1.2697
5053.00,1.2779
5052.00,1.2855
5051.00,1.2928
5050.00,1.2996
5049.00,1.3061
5048.00,1.3122
5047.00,1.3178
5046.00,1.3230
5045.00,1.3276
5044.00,1.3319
5043.00,1.3357
5042.00,1.3393
5041.00,1.3425
5040.00,1.3453
5039.00,1.3477
5038.00,1.3497
5037.00,1.3513
5036.00,1.3525
5035.00,1.3533
5034.00,1.3536
5033.00,1.3534
5032.00,1.3525
5031.00,1.3511
5030.00,1.3491
5029.00,1.3469
5028.00,1.3444
5027.00,1.3416
5026.00,1.3384
5025.00,1.3348
5024.00,1.3306
5023.00,1.3259
5022.00,1.3207
5021.00,1.3152
5020.00,1.3094
5019.00,1.3033
5018.00,1.2968
5017.00,1.2899
5016.00,1.2824
5015.00,1.2742
5014.00,1.2655
5013.00,1.2562
5012.00,1.2465
5011.00,1.2365
5010.00,1.2262
5009.00,1.2156
5008.00,1.2046
5007.00,1.1929
5006.00,1.1807
5005.00,1.1681
5004.00,1.1552
5003.00,1.1419
5002.00,1.1282
5001.00,1.1141
5000.00,1.0996
4999.00,1.0848
4998.00,1.0697
4997.00,1.0544
4996.00,1.0389
4995.00,1.0231
4994.00,1.0069
4993.00,0.9905
4992.00,0.9739
4991.00,0.9572
4990.00,0.9404
4989.00,0.9237
4988.00,0.9070
4987.00,0.8905
4986.00,0.8743
4985.00,0.8585
4984.00,0.8431
4983.00,0.8282
4982.00,0.8137
4981.00,0.7998
4980.00,0.7864
4979.00,0.7737
4978.00,0.7617
4977.00,0.7504
4976.00,0.7399
4975.00,0.7301
4974.00,0.7212
4973.00,0.7133
4972.00,0.7062
4971.00,0.7002
4970.00,0.6951
4969.00,0.6911
4968.00,0.6882
4967.00,0.6863
4966.00,0.6856
4965.00,0.6861
4964.00,0.6877
4963.00,0.6904
4962.00,0.6944
4961.00,0.6994
4960.00,0.7054
4959.00,0.7125
4958.00,0.7206
4957.00,0.7298
4956.00,0.7399
4955.00,0.7508
4954.00,0.7625
4953.00,0.7749
4952.00,0.7880
4951.00,0.8018
4950.00,0.8161
4949.00,0.8310
4948.00,0.8463
4947.00,0.8619
4946.00,0.8778
4945.00,0.8940
4944.00,0.9104
4943.00,0.9271
4942.00,0.9439
4941.00,0.9608
4940.00,0.9777
4939.00,0.9946
4938.00,1.0115
4937.00,1.0283
4936.00,1.0448
4935.00,1.0611
4934.00,1.0772
4933.00,1.0931
4932.00,1.1087
4931.00,1.1241
4930.00,1.1391
4929.00,1.1537
4928.00,1.1680
4927.00,1.1818
4926.00,1.1952
4925.00,1.2082
4924.00,1.2206
4923.00,1.2325
4922.00,1.2440
4921.00,1.2551
4920.00,1.2657
4919.00,1.2760
4918.00,1.2860
4917.00,1.2956
4916.00,1.3048
4915.00,1.3133
4914.00,1.3211
4913.00,1.3285
4912.00,1.3356
4911.00,1.3423
4910.00,1.3486
4909.00,1.3546
4908.00,1.3602
4907.00,1.3651
4906.00,1.3696
4905.00,1.3736
4904.00,1.3772
4903.00,1.3802
4902.00,1.3827
4901.00,1.3849
4900.00,1.3868
4899.00,1.3884
4898.00,1.3897
4897.00,1.3905
4896.00,1.3907
4895.00,1.3904
4894.00,1.3895
4893.00,1.3881
4892.00,1.3864
4891.00,1.3843
4890.00,1.3818
4889.00,1.3791
4888.00,1.3761
4887.00,1.3727
4886.00,1.3689
4885.00,1.3646
4884.00,1.3596
4883.00,1.3540
4882.00,1.3478
4881.00,1.3413
4880.00,1.3345
4879.00,1.3272
4878.00,1.3196
4877.00,1.3114
4876.00,1.3028
4875.00,1.2936
4874.00,1.2839
4873.00,1.2738
4872.00,1.2633
4871.00,1.2523
4870.00,1.2409
4869.00,1.2290
4868.00,1.2166
4867.00,1.2037
4866.00,1.1902
4865.00,1.1763
4864.00,1.1619
4863.00,1.1471
4862.00,1.1318
4861.00,1.1160
4860.00,1.0997
4859.00,1.0832
4858.00,1.0665
4857.00,1.0498
4856.00,1.0328
4855.00,1.0156
4854.00,0.9982
4853.00,0.9808
4852.00,0.9632
4851.00,0.9457
4850.00,0.9282
4849.00,0.9108
4848.00,0.8938
4847.00,0.8770
4846.00,0.8606
4845.00,0.8446
4844.00,0.8292
4843.00,0.8142
4842.00,0.7998
4841.00,0.7861
4840.00,0.7731
4839.00,0.7608
4838.00,0.7494
4837.00,0.7389
4836.00,0.7293
4835.00,0.7208
4834.00,0.7133
4833.00,0.7070
4832.00,0.7019
4831.00,0.6979
4830.00,0.6951
4829.00,0.6936
4828.00,0.6933
4827.00,0.6944
4826.00,0.6967
4825.00,0.7003
4824.00,0.7051
4823.00,0.7111
4822.00,0.7182
4821.00,0.7265
4820.00,0.7359
4819.00,0.7462
4818.00,0.7575
4817.00,0.7697
4816.00,0.7827
4815.00,0.7964
4814.00,0.8108
4813.00,0.8259
4812.00,0.8415
4811.00,0.8576
4810.00,0.8742
4809.00,0.8911
4808.00,0.9083
4807.00,0.9257
4806.00,0.9432
4805.00,0.9609
4804.00,0.9786
4803.00,0.9964
4802.00,1.0141
4801.00,1.0318
4800.00,1.0494
4799.00,1.0668
4798.00,1.0839
4797.00,1.1008
4796.00,1.1175
4795.00,1.1339
4794.00,1.1500
4793.00,1.1658
4792.00,1.1811
4791.00,1.1960
4790.00,1.2104
4789.00,1.2244
4788.00,1.2381
4787.00,1.2513
4786.00,1.2639
4785.00,1.2759
4784.00,1.2874
4783.00,1.2985
4782.00,1.3093
4781.00,1.3196
4780.00,1.3295
4779.00,1.3387
4778.00,1.3471
4777.00,1.3548
4776.00,1.3621
4775.00,1.3691
4774.00,1.3758
4773.00,1.3821
4772.00,1.3882
4771.00,1.3941
4770.00,1.3996
4769.00,1.4048
4768.00,1.4094
4767.00,1.4133
4766.00,1.4163
4765.00,1.4188
4764.00,1.4208
4763.00,1.4226
4762.00,1.4242
4761.00,1.4256
4760.00,1.4264
4759.00,1.4266
4758.00,1.4262
4757.00,1.4253
4756.00,1.4239
4755.00,1.4220
4754.00,1.4199
4753.00,1.4174
4752.00,1.4146
4751.00,1.4115
4750.00,1.4080
4749.00,1.4042
4748.00,1.3999
4747.00,1.3950
4746.00,1.3895
4745.00,1.3834
4744.00,1.3769
4743.00,1.3701
4742.00,1.3629
4741.00,1.3554
4740.00,1.3474
4739.00,1.3388
4738.00,1.3296
4737.00,1.3197
4736.00,1.3093
4735.00,1.2984
4734.00,1.2872
4733.00,1.2757
4732.00,1.2636
4731.00,1.2510
4730.00,1.2378
4729.00,1.2240
4728.00,1.2096
4727.00,1.1947
4726.00,1.1793
4725.00,1.1636
4724.00,1.1476
4723.00,1.1313
4722.00,1.1145
4721.00,1.0974
4720.00,1.0799
4719.00,1.0621
4718.00,1.0441
4717.00,1.0259
4716.00,1.0076
4715.00,0.9891
4714.00,0.9706
4713.00,0.9522
4712.00,0.9339
4711.00,0.9158
4710.00,0.8981
4709.00,0.8807
4708.00,0.8637
4707.00,0.8472
4706.00,0.8312
4705.00,0.8159
4704.00,0.8012
4703.00,0.7872
4702.00,0.7740
4701.00,0.7616
4700.00,0.7501
4699.00,0.7396
4698.00,0.7302
4697.00,0.7220
4696.00,0.7150
4695.00,0.7092
4694.00,0.7047
4693.00,0.7016
4692.00,0.6997
4691.00,0.6992
4690.00,0.7000
4689.00,0.7022
4688.00,0.7057
4687.00,0.7105
4686.00,0.7165
4685.00,0.7238
4684.00,0.7323
4683.00,0.7420
4682.00,0.7528
4681.00,0.7646
4680.00,0.7773
4679.00,0.7909
4678.00,0.8053
4677.00,0.8205
4676.00,0.8363
4675.00,0.8528
4674.00,0.8697
4673.00,0.8870
4672.00,0.9046
4671.00,0.9226
4670.00,0.9408
4669.00,0.9593
4668.00,0.9780
4667.00,0.9968
4666.00,1.0156
4665.00,1.0344
4664.00,1.0530
4663.00,1.0714
4662.00,1.0897
4661.00,1.1078
4660.00,1.1256
4659.00,1.1431
4658.00,1.1603
4657.00,1.1772
4656.00,1.1937
4655.00,1.2097
4654.00,1.2252
4653.00,1.2402
4652.00,1.2547
4651.00,1.2687
4650.00,1.2823
4649.00,1.2955
4648.00,1.3083
4647.00,1.3205
4646.00,1.3323
4645.00,1.3436
4644.00,1.3543
4643.00,1.3644
4642.00,1.3740
4641.00,1.3831
4640.00,1.3917
4639.00,1.3999
4638.00,1.4076
4637.00,1.4147
4636.00,1.4213
4635.00,1.4273
4634.00,1.4329
4633.00,1.4382
4632.00,1.4431
4631.00,1.4478
4630.00,1.4521
4629.00,1.4561
4628.00,1.4596
4627.00,1.4626
4626.00,1.4651
4625.00,1.4670
4624.00,1.4685
4623.00,1.4696
4622.00,1.4703
4621.00,1.4706
4620.00,1.4704
4619.00,1.4696
4618.00,1.4681
4617.00,1.4662
4616.00,1.4640
4615.00,1.4615
4614.00,1.4589
4613.00,1.4558
4612.00,1.4522
4611.00,1.4480
4610.00,1.4433
4609.00,1.4381
4608.00,1.4324
4607.00,1.4261
4606.00,1.4194
4605.00,1.4121
4604.00,1.4045
4603.00,1.3964
4602.00,1.3878
4601.00,1.3787
4600.00,1.3691
4599.00,1.3590
4598.00,1.3486
4597.00,1.3377
4596.00,1.3262
4595.00,1.3140
4594.00,1.3011
4593.00,1.2878
4592.00,1.2740
4591.00,1.2597
4590.00,1.2449
4589.00,1.2296
4588.00,1.2137
4587.00,1.1973
4586.00,1.1803
4585.00,1.1629
4584.00,1.1450
4583.00,1.1268
4582.00,1.1081
4581.00,1.0892
4580.00,1.0700
4579.00,1.0508
4578.00,1.0315
4577.00,1.0122
4576.00,0.9927
4575.00,0.9732
4574.00,0.9538
4573.00,0.9345
4572.00,0.9156
4571.00,0.8971
4570.00,0.8792
4569.00,0.8618
4568.00,0.8450
4567.00,0.8288
4566.00,0.8133
4565.00,0.7987
4564.00,0.7849
4563.00,0.7722
4562.00,0.7606
4561.00,0.7500
4560.00,0.7407
4559.00,0.7326
4558.00,0.7258
4557.00,0.7204
4556.00,0.7163
4555.00,0.7138
4554.00,0.7127
4553.00,0.7132
4552.00,0.7152
4551.00,0.7187
4550.00,0.7235
4549.00,0.7298
4548.00,0.7375
4547.00,0.7465
4546.00,0.7568
4545.00,0.7684
4544.00,0.7811
4543.00,0.7948
4542.00,0.8094
4541.00,0.8248
4540.00,0.8409
4539.00,0.8578
4538.00,0.8753
4537.00,0.8935
4536.00,0.9122
4535.00,0.9312
4534.00,0.9506
4533.00,0.9701
4532.00,0.9898
4531.00,1.0097
4530.00,1.0296
4529.00,1.0494
4528.00,1.0692
4527.00,1.0887
4526.00,1.1080
4525.00,1.1270
4524.00,1.1459
4523.00,1.1646
4522.00,1.1832
4521.00,1.2014
4520.00,1.2192
4519.00,1.2364
4518.00,1.2530
4517.00,1.2692
4516.00,1.2850
4515.00,1.3002
4514.00,1.3150
4513.00,1.3291
4512.00,1.3427
4511.00,1.3556
4510.00,1.3680
4509.00,1.3799
4508.00,1.3913
4507.00,1.4022
4506.00,1.4126
4505.00,1.4225
4504.00,1.4319
4503.00,1.4410
4502.00,1.4495
4501.00,1.4573
4500.00,1.4645
4499.00,1.4713
4498.00,1.4777
4497.00,1.4837
4496.00,1.4893
4495.00,1.4941
4494.00,1.4982
4493.00,1.5019
4492.00,1.5052
4491.00,1.5083
4490.00,1.5111
4489.00,1.5136
4488.00,1.5155
4487.00,1.5168
4486.00,1.5175
4485.00,1.5176
4484.00,1.5175
4483.00,1.5170
4482.00,1.5163
4481.00,1.5152
4480.00,1.5135
4479.00,1.5112
4478.00,1.5084
4477.00,1.5053
4476.00,1.5018
4475.00,1.4979
4474.00,1.4936
4473.00,1.4889
4472.00,1.4837
4471.00,1.4781
4470.00,1.4719
4469.00,1.4653
4468.00,1.4581
4467.00,1.4505
4466.00,1.4423
4465.00,1.4335
4464.00,1.4242
4463.00,1.4145
4462.00,1.4042
4461.00,1.3935
4460.00,1.3824
4459.00,1.3709
4458.00,1.3590
4457.00,1.3468
4456.00,1.3341
4455.00,1.3211
4454.00,1.3078
4453.00,1.2942
4452.00,1.2804
4451.00,1.2663
4450.00,1.2519
4449.00,1.2373
4448.00,1.2228
4447.00,1.2083
4446.00,1.1940
4445.00,1.1796
4444.00,1.1653
4443.00,1.1511
4442.00,1.1370
4441.00,1.1229
4440.00,1.1088
4439.00,1.0945
4438.00,1.0799
4437.00,1.0649
4436.00,1.0494
4435.00,1.0333
4434.00,1.0166
4433.00,0.9994
4432.00,0.9817
4431.00,0.9637
4430.00,0.9455
4429.00,0.9275
4428.00,0.9098
4427.00,0.8925
4426.00,0.8761
4425.00,0.8605
4424.00,0.8459
4423.00,0.8326
4422.00,0.8207
4421.00,0.8102
4420.00,0.8014
4419.00,0.7942
4418.00,0.7889
4417.00,0.7853
4416.00,0.7837
4415.00,0.7839
4414.00,0.7861
4413.00,0.7901
4412.00,0.7959
4411.00,0.8035
4410.00,0.8127
4409.00,0.8236
4408.00,0.8358
4407.00,0.8494
4406.00,0.8641
4405.00,0.8798
4404.00,0.8964
4403.00,0.9137
4402.00,0.9314
4401.00,0.9494
4400.00,0.9674
4399.00,0.9854
4398.00,1.0033
4397.00,1.0213
4396.00,1.0392
4395.00,1.0572
4394.00,1.0750
4393.00,1.0928
4392.00,1.1105
4391.00,1.1282
4390.00,1.1460
4389.00,1.1638
4388.00,1.1816
4387.00,1.1992
4386.00,1.2168
4385.00,1.2341
4384.00,1.2512
4383.00,1.2682
4382.00,1.2850
4381.00,1.3016
4380.00,1.3180
4379.00,1.3339
4378.00,1.3493
4377.00,1.3640
4376.00,1.3781
4375.00,1.3918
4374.00,1.4050
4373.00,1.4178
4372.00,1.4301
4371.00,1.4417
4370.00,1.4527
4369.00,1.4630
4368.00,1.4728
4367.00,1.4820
4366.00,1.4907
4365.00,1.4988
4364.00,1.5064
4363.00,1.5134
4362.00,1.5198
4361.00,1.5257
4360.00,1.5311
4359.00,1.5362
4358.00,1.5411
4357.00,1.5459
4356.00,1.5502
4355.00,1.5540
4354.00,1.5573
4353.00,1.5601
4352.00,1.5626
4351.00,1.5650
4350.00,1.5673
4349.00,1.5693
4348.00,1.5708
4347.00,1.5717
4346.00,1.5722
4345.00,1.5724
4344.00,1.5724
4343.00,1.5720
4342.00,1.5711
4341.00,1.5697
4340.00,1.5677
4339.00,1.5653
4338.00,1.5624
4337.00,1.5592
4336.00,1.5557
4335.00,1.5519
4334.00,1.5476
4333.00,1.5427
4332.00,1.5372
4331.00,1.5312
4330.00,1.5247
4329.00,1.5179
4328.00,1.5107
4327.00,1.5032
4326.00,1.4952
4325.00,1.4867
4324.00,1.4776
4323.00,1.4680
4322.00,1.4580
4321.00,1.4475
4320.00,1.4366
4319.00,1.4249
4318.00,1.4126
4317.00,1.3996
4316.00,1.3859
4315.00,1.3717
4314.00,1.3568
4313.00,1.3413
4312.00,1.3251
4311.00,1.3082
4310.00,1.2906
4309.00,1.2724
4308.00,1.2537
4307.00,1.2344
4306.00,1.2146
4305.00,1.1943
4304.00,1.1736
4303.00,1.1526
4302.00,1.1313
4301.00,1.1097
4300.00,1.0878
4299.00,1.0659
4298.00,1.0439
4297.00,1.0221
4296.00,1.0006
4295.00,0.9793
4294.00,0.9584
4293.00,0.9380
4292.00,0.9182
4291.00,0.8989
4290.00,0.8804
4289.00,0.8627
4288.00,0.8459
4287.00,0.8301
4286.00,0.8155
4285.00,0.8021
4284.00,0.7900
4283.00,0.7793
4282.00,0.7700
4281.00,0.7623
4280.00,0.7562
4279.00,0.7517
4278.00,0.7489
4277.00,0.7478
4276.00,0.7485
4275.00,0.7510
4274.00,0.7552
4273.00,0.7610
4272.00,0.7686
4271.00,0.7777
4270.00,0.7884
4269.00,0.8006
4268.00,0.8142
4267.00,0.8289
4266.00,0.8447
4265.00,0.8616
4264.00,0.8794
4263.00,0.8980
4262.00,0.9173
4261.00,0.9373
4260.00,0.9577
4259.00,0.9787
4258.00,1.0001
4257.00,1.0217
4256.00,1.0435
4255.00,1.0653
4254.00,1.0873
4253.00,1.1093
4252.00,1.1312
4251.00,1.1530
4250.00,1.1745
4249.00,1.1957
4248.00,1.2165
4247.00,1.2368
4246.00,1.2566
4245.00,1.2760
4244.00,1.2950
4243.00,1.3136
4242.00,1.3317
4241.00,1.3492
4240.00,1.3662
4239.00,1.3825
4238.00,1.3981
4237.00,1.4130
4236.00,1.4272
4235.00,1.4409
4234.00,1.4539
4233.00,1.4664
4232.00,1.4782
4231.00,1.4893
4230.00,1.5000
4229.00,1.5103
4228.00,1.5202
4227.00,1.5296
4226.00,1.5384
4225.00,1.5467
4224.00,1.5546
4223.00,1.5619
4222.00,1.5687
4221.00,1.5750
4220.00,1.5810
4219.00,1.5864
4218.00,1.5912
4217.00,1.5953
4216.00,1.5990
4215.00,1.6024
4214.00,1.6056
4213.00,1.6083
4212.00,1.6104
4211.00,1.6120
4210.00,1.6133
4209.00,1.6143
4208.00,1.6148
4207.00,1.6146
4206.00,1.6137
4205.00,1.6124
4204.00,1.6108
4203.00,1.6089
4202.00,1.6066
4201.00,1.6037
4200.00,1.6004
4199.00,1.5968
4198.00,1.5928
4197.00,1.5883
4196.00,1.5830
4195.00,1.5770
4194.00,1.5706
4193.00,1.5637
4192.00,1.5565
4191.00,1.5487
4190.00,1.5404
4189.00,1.5315
4188.00,1.5220
4187.00,1.5120
4186.00,1.5014
4185.00,1.4904
4184.00,1.4789
4183.00,1.4670
4182.00,1.4546
4181.00,1.4417
4180.00,1.4281
4179.00,1.4137
4178.00,1.3985
4177.00,1.3826
4176.00,1.3660
4175.00,1.3488
4174.00,1.3311
4173.00,1.3128
4172.00,1.2938
4171.00,1.2744
4170.00,1.2545
4169.00,1.2340
4168.00,1.2130
4167.00,1.1913
4166.00,1.1690
4165.00,1.1463
4164.00,1.1234
4163.00,1.1003
4162.00,1.0773
4161.00,1.0543
4160.00,1.0315
4159.00,1.0089
4158.00,0.9865
4157.00,0.9645
4156.00,0.9430
4155.00,0.9220
4154.00,0.9018
4153.00,0.8824
4152.00,0.8640
4151.00,0.8466
4150.00,0.8305
4149.00,0.8156
4148.00,0.8021
4147.00,0.7899
4146.00,0.7792
4145.00,0.7701
4144.00,0.7627
4143.00,0.7571
4142.00,0.7533
4141.00,0.7515
4140.00,0.7515
4139.00,0.7535
4138.00,0.7574
4137.00,0.7632
4136.00,0.7708
4135.00,0.7802
4134.00,0.7912
4133.00,0.8039
4132.00,0.8180
4131.00,0.8335
4130.00,0.8504
4129.00,0.8684
4128.00,0.8875
4127.00,0.9074
4126.00,0.9281
4125.00,0.9495
4124.00,0.9715
4123.00,0.9940
4122.00,1.0169
4121.00,1.0401
4120.00,1.0634
4119.00,1.0868
4118.00,1.1102
4117.00,1.1335
4116.00,1.1567
4115.00,1.1798
4114.00,1.2025
4113.00,1.2250
4112.00,1.2470
4111.00,1.2688
4110.00,1.2900
4109.00,1.3107
4108.00,1.3307
4107.00,1.3500
4106.00,1.3688
4105.00,1.3870
4104.00,1.4047
4103.00,1.4217
4102.00,1.4381
4101.00,1.4540
4100.00,1.4693
4099.00,1.4841
4098.00,1.4981
4097.00,1.5113
4096.00,1.5239
4095.00,1.5360
4094.00,1.5476
4093.00,1.5586
4092.00,1.5689
4091.00,1.5784
4090.00,1.5873
4089.00,1.5959
4088.00,1.6041
4087.00,1.6119
4086.00,1.6191
4085.00,1.6260
4084.00,1.6324
4083.00,1.6383
4082.00,1.6437
4081.00,1.6485
4080.00,1.6529
4079.00,1.6569
4078.00,1.6605
4077.00,1.6637
4076.00,1.6664
4075.00,1.6686
4074.00,1.6703
4073.00,1.6716
4072.00,1.6725
4071.00,1.6731
4070.00,1.6732
4069.00,1.6727
4068.00,1.6716
4067.00,1.6699
4066.00,1.6678
4065.00,1.6655
4064.00,1.6630
4063.00,1.6603
4062.00,1.6571
4061.00,1.6533
4060.00,1.6488
4059.00,1.6437
4058.00,1.6380
4057.00,1.6318
4056.00,1.6250
4055.00,1.6176
4054.00,1.6095
4053.00,1.6012
4052.00,1.5927
4051.00,1.5838
4050.00,1.5744
4049.00,1.5641
4048.00,1.5532
4047.00,1.5415
4046.00,1.5294
4045.00,1.5169
4044.00,1.5039
4043.00,1.4905
4042.00,1.4764
4041.00,1.4618
4040.00,1.4467
4039.00,1.4310
4038.00,1.4148
4037.00,1.3981
4036.00,1.3811
4035.00,1.3639
4034.00,1.3463
4033.00,1.3282
4032.00,1.3097
4031.00,1.2905
4030.00,1.2709
4029.00,1.2508
4028.00,1.2302
4027.00,1.2089
4026.00,1.1872
4025.00,1.1650
4024.00,1.1423
4023.00,1.1191
4022.00,1.0955
4021.00,1.0718
4020.00,1.0482
4019.00,1.0248
4018.00,1.0017
4017.00,0.9790
4016.00,0.9568
4015.00,0.9355
4014.00,0.9152
4013.00,0.8959
4012.00,0.8777
4011.00,0.8609
4010.00,0.8455
4009.00,0.8316
4008.00,0.8194
4007.00,0.8092
4006.00,0.8008
4005.00,0.7945
4004.00,0.7904
4003.00,0.7885
4002.00,0.7888
4001.00,0.7914
4000.00,0.7961
3999.00,0.8030
3998.00,0.8119
3997.00,0.8228
3996.00,0.8357
3995.00,0.8503
3994.00,0.8667
3993.00,0.8845
3992.00,0.9036
3991.00,0.9240
3990.00,0.9455
3989.00,0.9680
3988.00,0.9912
3987.00,1.0150
3986.00,1.0392
3985.00,1.0637
3984.00,1.0884
3983.00,1.1132
3982.00,1.1381
3981.00,1.1629
3980.00,1.1875
3979.00,1.2118
3978.00,1.2357
3977.00,1.2590
3976.00,1.2818
3975.00,1.3039
3974.00,1.3252
3973.00,1.3458
3972.00,1.3657
3971.00,1.3849
3970.00,1.4034
3969.00,1.4212
3968.00,1.4385
3967.00,1.4555
3966.00,1.4721
3965.00,1.4882
3964.00,1.5040
3963.00,1.5192
3962.00,1.5340
3961.00,1.5482
3960.00,1.5618
3959.00,1.5748
3958.00,1.5873
3957.00,1.5993
3956.00,1.6108
3955.00,1.6216
3954.00,1.6317
3953.00,1.6411
3952.00,1.6498
3951.00,1.6581
3950.00,1.6662
3949.00,1.6745
3948.00,1.6827
3947.00,1.6904
3946.00,1.6972
3945.00,1.7030
3944.00,1.7083
3943.00,1.7131
3942.00,1.7174
3941.00,1.7211
3940.00,1.7242
3939.00,1.7267
3938.00,1.7289
3937.00,1.7307
3936.00,1.7321
3935.00,1.7332
3934.00,1.7339
3933.00,1.7344
3932.00,1.7344
3931.00,1.7338
3930.00,1.7326
3929.00,1.7307
3928.00,1.7283
3927.00,1.7254
3926.00,1.7220
3925.00,1.7181
3924.00,1.7136
3923.00,1.7086
3922.00,1.7034
3921.00,1.6981
3920.00,1.6928
3919.00,1.6873
3918.00,1.6811
3917.00,1.6739
3916.00,1.6660
3915.00,1.6576
3914.00,1.6485
3913.00,1.6388
3912.00,1.6283
3911.00,1.6172
3910.00,1.6056
3909.00,1.5934
3908.00,1.5810
3907.00,1.5681
3906.00,1.5546
3905.00,1.5402
3904.00,1.5249
3903.00,1.5089
3902.00,1.4919
3901.00,1.4742
3900.00,1.4556
3899.00,1.4363
3898.00,1.4163
3897.00,1.3956
3896.00,1.3743
3895.00,1.3527
3894.00,1.3303
3893.00,1.3068
3892.00,1.2819
3891.00,1.2559
3890.00,1.2298
3889.00,1.2042
3888.00,1.1790
3887.00,1.1534
3886.00,1.1267
3885.00,1.0992
3884.00,1.0721
3883.00,1.0459
3882.00,1.0204
3881.00,0.9951
3880.00,0.9701
3879.00,0.9457
3878.00,0.9228
3877.00,0.9017
3876.00,0.8822
3875.00,0.8640
3874.00,0.8470
3873.00,0.8313
3872.00,0.8174
3871.00,0.8051
3870.00,0.7947
3869.00,0.7862
3868.00,0.7797
3867.00,0.7754
3866.00,0.7740
3865.00,0.7760
3864.00,0.7807
3863.00,0.7871
3862.00,0.7950
3861.00,0.8049
3860.00,0.8172
3859.00,0.8317
3858.00,0.8473
3857.00,0.8636
3856.00,0.8807
3855.00,0.9002
3854.00,0.9239
3853.00,0.9524
3852.00,0.9831
3851.00,1.0124
3850.00,1.0385
3849.00,1.0631
3848.00,1.0877
3847.00,1.1122
3846.00,1.1367
3845.00,1.1617
3844.00,1.1875
3843.00,1.2137
3842.00,1.2397
3841.00,1.2648
3840.00,1.2894
3839.00,1.3141
3838.00,1.3397
3837.00,1.3658
3836.00,1.3910
3835.00,1.4144
3834.00,1.4363
3833.00,1.4575
3832.00,1.4783
3831.00,1.4986
3830.00,1.5179
3829.00,1.5360
3828.00,1.5533
3827.00,1.5699
3826.00,1.5860
3825.00,1.6009
3824.00,1.6142
3823.00,1.6266
3822.00,1.6394
3821.00,1.6530
3820.00,1.6664
3819.00,1.6780
3818.00,1.6877
3817.00,1.6970
3816.00,1.7071
3815.00,1.7172
3814.00,1.7262
3813.00,1.7340
3812.00,1.7414
3811.00,1.7492
3810.00,1.7570
3809.00,1.7637
3808.00,1.7691
3807.00,1.7737
3806.00,1.7777
3805.00,1.7809
3804.00,1.7832
3803.00,1.7855
3802.00,1.7886
3801.00,1.7918
3800.00,1.7937
3799.00,1.7938
3798.00,1.7933
3797.00,1.7936
3796.00,1.7945
3795.00,1.7949
3794.00,1.7944
3793.00,1.7930
3792.00,1.7914
3791.00,1.7896
3790.00,1.7874
3789.00,1.7845
3788.00,1.7810
3787.00,1.7770
3786.00,1.7725
3785.00,1.7671
3784.00,1.7607
3783.00,1.7536
3782.00,1.7464
3781.00,1.7389
3780.00,1.7308
3779.00,1.7222
3778.00,1.7128
3777.00,1.7027
3776.00,1.6920
3775.00,1.6811
3774.00,1.6702
3773.00,1.6589
3772.00,1.6466
3771.00,1.6333
3770.00,1.6190
3769.00,1.6037
3768.00,1.5873
3767.00,1.5702
3766.00,1.5528
3765.00,1.5350
3764.00,1.5167
3763.00,1.4977
3762.00,1.4778
3761.00,1.4566
3760.00,1.4339
3759.00,1.4098
3758.00,1.3845
3757.00,1.3585
3756.00,1.3327
3755.00,1.3075
3754.00,1.2824
3753.00,1.2564
3752.00,1.2283
3751.00,1.1978
3750.00,1.1657
3749.00,1.1340
3748.00,1.1053
3747.00,1.0806
3746.00,1.0586
3745.00,1.0364
3744.00,1.0131
3743.00,0.9911
3742.00,0.9730
3741.00,0.9591
3740.00,0.9489
3739.00,0.9412
3738.00,0.9347
3737.00,0.9292
3736.00,0.9247
3735.00,0.9215
3734.00,0.9200
3733.00,0.9198
3732.00,0.9207
3731.00,0.9225
3730.00,0.9248
3729.00,0.9277
3728.00,0.9319
3727.00,0.9378
3726.00,0.9450
3725.00,0.9527
3724.00,0.9603
3723.00,0.9681
3722.00,0.9776
3721.00,0.9904
3720.00,1.0075
3719.00,1.0287
3718.00,1.0533
3717.00,1.0809
3716.00,1.1112
3715.00,1.1445
3714.00,1.1806
3713.00,1.2186
3712.00,1.2577
3711.00,1.2968
3710.00,1.3344
3709.00,1.3692
3708.00,1.4012
3707.00,1.4308
3706.00,1.4586
3705.00,1.4842
3704.00,1.5080
3703.00,1.5303
3702.00,1.5519
3701.00,1.5728
3700.00,1.5928
3699.00,1.6113
3698.00,1.6282
3697.00,1.6443
3696.00,1.6599
3695.00,1.6746
3694.00,1.6879
3693.00,1.7003
3692.00,1.7123
3691.00,1.7242
3690.00,1.7361
3689.00,1.7480
3688.00,1.7599
3687.00,1.7710
3686.00,1.7812
3685.00,1.7910
3684.00,1.8008
3683.00,1.8105
3682.00,1.8195
3681.00,1.8278
3680.00,1.8355
3679.00,1.8424
3678.00,1.8484
3677.00,1.8540
3676.00,1.8597
3675.00,1.8657
3674.00,1.8713
3673.00,1.8760
3672.00,1.8801
3671.00,1.8846
3670.00,1.8893
3669.00,1.8934
3668.00,1.8967
3667.00,1.8992
3666.00,1.9013
3665.00,1.9034
3664.00,1.9054
3663.00,1.9068
3662.00,1.9077
3661.00,1.9083
3660.00,1.9086
3659.00,1.9083
3658.00,1.9073
3657.00,1.9059
3656.00,1.9040
3655.00,1.9016
3654.00,1.8985
3653.00,1.8952
3652.00,1.8921
3651.00,1.8891
3650.00,1.8857
3649.00,1.8811
3648.00,1.8751
3647.00,1.8684
3646.00,1.8622
3645.00,1.8575
3644.00,1.8542
3643.00,1.8512
3642.00,1.8476
3641.00,1.8438
3640.00,1.8400
3639.00,1.8366
3638.00,1.8335
3637.00,1.8307
3636.00,1.8276
3635.00,1.8239
3634.00,1.8192
3633.00,1.8139
3632.00,1.8079
3631.00,1.8006
3630.00,1.7911
3629.00,1.7789
3628.00,1.7643
3627.00,1.7485
3626.00,1.7321
3625.00,1.7150
3624.00,1.6971
3623.00,1.6776
3622.00,1.6562
3621.00,1.6332
3620.00,1.6092
3619.00,1.5855
3618.00,1.5633
3617.00,1.5429
3616.00,1.5240
3615.00,1.5063
3614.00,1.4899
3613.00,1.4752
3612.00,1.4618
3611.00,1.4488
3610.00,1.4352
3609.00,1.4205
3608.00,1.4047
3607.00,1.3880
3606.00,1.3707
3605.00,1.3530
3604.00,1.3352
3603.00,1.3172
3602.00,1.2992
3601.00,1.2813
3600.00,1.2638
3599.00,1.2470
3598.00,1.2310
3597.00,1.2163
3596.00,1.2031
3595.00,1.1916
3594.00,1.1817
3593.00,1.1735
3592.00,1.1670
3591.00,1.1623
3590.00,1.1597
3589.00,1.1593
3588.00,1.1615
3587.00,1.1659
3586.00,1.1721
3585.00,1.1796
3584.00,1.1884
3583.00,1.1985
3582.00,1.2101
3581.00,1.2233
3580.00,1.2380
3579.00,1.2543
3578.00,1.2722
3577.00,1.2913
3576.00,1.3113
3575.00,1.3318
3574.00,1.3528
3573.00,1.3743
3572.00,1.3959
3571.00,1.4175
3570.00,1.4391
3569.00,1.4610
3568.00,1.4837
3567.00,1.5072
3566.00,1.5311
3565.00,1.5543
3564.00,1.5760
3563.00,1.5962
3562.00,1.6151
3561.00,1.6334
3560.00,1.6514
3559.00,1.6692
3558.00,1.6865
3557.00,1.7034
3556.00,1.7199
3555.00,1.7358
3554.00,1.7512
3553.00,1.7662
3552.00,1.7807
3551.00,1.7945
3550.00,1.8076
3549.00,1.8202
3548.00,1.8324
3547.00,1.8442
3546.00,1.8554
3545.00,1.8662
3544.00,1.8765
3543.00,1.8862
3542.00,1.8950
3541.00,1.9032
3540.00,1.9109
3539.00,1.9183
3538.00,1.9253
3537.00,1.9320
3536.00,1.9384
3535.00,1.9443
3534.00,1.9495
3533.00,1.9544
3532.00,1.9590
3531.00,1.9632
3530.00,1.9667
3529.00,1.9695
3528.00,1.9718
3527.00,1.9737
3526.00,1.9756
3525.00,1.9778
3524.00,1.9800
3523.00,1.9817
3522.00,1.9828
3521.00,1.9835
3520.00,1.9838
3519.00,1.9839
3518.00,1.9836
3517.00,1.9830
3516.00,1.9822
3515.00,1.9808
3514.00,1.9787
3513.00,1.9760
3512.00,1.9726
3511.00,1.9683
3510.00,1.9634
3509.00,1.9583
3508.00,1.9534
3507.00,1.9486
3506.00,1.9436
3505.00,1.9378
3504.00,1.9311
3503.00,1.9236
3502.00,1.9155
3501.00,1.9073
3500.00,1.8989
3499.00,1.8898
3498.00,1.8800
3497.00,1.8695
3496.00,1.8586
3495.00,1.8474
3494.00,1.8357
3493.00,1.8234
3492.00,1.8105
3491.00,1.7969
3490.00,1.7826
3489.00,1.7677
3488.00,1.7520
3487.00,1.7356
3486.00,1.7183
3485.00,1.7004
3484.00,1.6818
3483.00,1.6625
3482.00,1.6423
3481.00,1.6214
3480.00,1.5998
3479.00,1.5775
3478.00,1.5547
3477.00,1.5313
3476.00,1.5074
3475.00,1.4827
3474.00,1.4576
3473.00,1.4320
3472.00,1.4062
3471.00,1.3802
3470.00,1.3541
3469.00,1.3281
3468.00,1.3024
3467.00,1.2769
3466.00,1.2520
3465.00,1.2279
3464.00,1.2046
3463.00,1.1824
3462.00,1.1613
3461.00,1.1414
3460.00,1.1230
3459.00,1.1064
3458.00,1.0917
3457.00,1.0790
3456.00,1.0683
3455.00,1.0598
3454.00,1.0536
3453.00,1.0498
3452.00,1.0483
3451.00,1.0493
3450.00,1.0528
3449.00,1.0587
3448.00,1.0671
3447.00,1.0776
3446.00,1.0903
3445.00,1.1049
3444.00,1.1214
3443.00,1.1396
3442.00,1.1595
3441.00,1.1808
3440.00,1.2032
3439.00,1.2266
3438.00,1.2509
3437.00,1.2759
3436.00,1.3016
3435.00,1.3277
3434.00,1.3542
3433.00,1.3809
3432.00,1.4076
3431.00,1.4344
3430.00,1.4609
3429.00,1.4873
3428.00,1.5133
3427.00,1.5386
3426.00,1.5633
3425.00,1.5872
3424.00,1.6105
3423.00,1.6334
3422.00,1.6557
3421.00,1.6773
3420.00,1.6982
3419.00,1.7182
3418.00,1.7374
3417.00,1.7558
3416.00,1.7737
3415.00,1.7908
3414.00,1.8072
3413.00,1.8226
3412.00,1.8370
3411.00,1.8507
3410.00,1.8640
3409.00,1.8771
3408.00,1.8899
3407.00,1.9023
3406.00,1.9140
3405.00,1.9247
3404.00,1.9344
3403.00,1.9434
3402.00,1.9519
3401.00,1.9602
3400.00,1.9682
3399.00,1.9756
3398.00,1.9827
3397.00,1.9895
3396.00,1.9958
3395.00,2.0014
3394.00,2.0063
3393.00,2.0105
3392.00,2.0139
3391.00,2.0169
3390.00,2.0195
3389.00,2.0221
3388.00,2.0245
3387.00,2.0263
3386.00,2.0276
3385.00,2.0285
3384.00,2.0292
3383.00,2.0298
3382.00,2.0299
3381.00,2.0295
3380.00,2.0283
3379.00,2.0267
3378.00,2.0246
3377.00,2.0223
3376.00,2.0196
3375.00,2.0162
3374.00,2.0124
3373.00,2.0082
3372.00,2.0035
3371.00,1.9982
3370.00,1.9924
3369.00,1.9862
3368.00,1.9794
3367.00,1.9717
3366.00,1.9634
3365.00,1.9544
3364.00,1.9451
3363.00,1.9354
3362.00,1.9256
3361.00,1.9155
3360.00,1.9046
3359.00,1.8926
3358.00,1.8798
3357.00,1.8666
3356.00,1.8533
3355.00,1.8396
3354.00,1.8251
3353.00,1.8096
3352.00,1.7931
3351.00,1.7758
3350.00,1.7579
3349.00,1.7394
3348.00,1.7201
3347.00,1.7000
3346.00,1.6790
3345.00,1.6573
3344.00,1.6350
3343.00,1.6120
3342.00,1.5882
3341.00,1.5635
3340.00,1.5381
3339.00,1.5122
3338.00,1.4856
3337.00,1.4586
3336.00,1.4312
3335.00,1.4036
3334.00,1.3761
3333.00,1.3487
3332.00,1.3218
3331.00,1.2954
3330.00,1.2698
3329.00,1.2453
3328.00,1.2218
3327.00,1.1996
3326.00,1.1787
3325.00,1.1591
3324.00,1.1410
3323.00,1.1242
3322.00,1.1091
3321.00,1.0958
3320.00,1.0845
3319.00,1.0754
3318.00,1.0687
3317.00,1.0645
3316.00,1.0630
3315.00,1.0643
3314.00,1.0682
3313.00,1.0749
3312.00,1.0842
3311.00,1.0960
3310.00,1.1102
3309.00,1.1267
3308.00,1.1453
3307.00,1.1657
3306.00,1.1876
3305.00,1.2108
3304.00,1.2352
3303.00,1.2607
3302.00,1.2871
3301.00,1.3143
3300.00,1.3419
3299.00,1.3698
3298.00,1.3978
3297.00,1.4259
3296.00,1.4539
3295.00,1.4818
3294.00,1.5092
3293.00,1.5363
3292.00,1.5628
3291.00,1.5887
3290.00,1.6140
3289.00,1.6387
3288.00,1.6626
3287.00,1.6859
3286.00,1.7085
3285.00,1.7304
3284.00,1.7515
3283.00,1.7716
3282.00,1.7908
3281.00,1.8094
3280.00,1.8274
3279.00,1.8448
3278.00,1.8616
3277.00,1.8777
3276.00,1.8929
3275.00,1.9069
3274.00,1.9200
3273.00,1.9325
3272.00,1.9448
3271.00,1.9569
3270.00,1.9685
3269.00,1.9795
3268.00,1.9899
3267.00,1.9998
3266.00,2.0090
3265.00,2.0178
3264.00,2.0261
3263.00,2.0338
3262.00,2.0410
3261.00,2.0478
3260.00,2.0543
3259.00,2.0603
3258.00,2.0656
3257.00,2.0702
3256.00,2.0745
3255.00,2.0786
3254.00,2.0824
3253.00,2.0859
3252.00,2.0889
3251.00,2.0911
3250.00,2.0928
3249.00,2.0940
3248.00,2.0947
3247.00,2.0945
3246.00,2.0934
3245.00,2.0919
3244.00,2.0902
3243.00,2.0887
3242.00,2.0870
3241.00,2.0849
3240.00,2.0823
3239.00,2.0790
3238.00,2.0752
3237.00,2.0710
3236.00,2.0663
3235.00,2.0609
3234.00,2.0549
3233.00,2.0485
3232.00,2.0416
3231.00,2.0338
3230.00,2.0257
3229.00,2.0177
3228.00,2.0096
3227.00,2.0009
3226.00,1.9911
3225.00,1.9804
3224.00,1.9692
3223.00,1.9574
3222.00,1.9451
3221.00,1.9322
3220.00,1.9186
3219.00,1.9043
3218.00,1.8891
3217.00,1.8733
3216.00,1.8568
3215.00,1.8398
3214.00,1.8223
3213.00,1.8042
3212.00,1.7859
3211.00,1.7671
3210.00,1.7479
3209.00,1.7284
3208.00,1.7086
3207.00,1.6889
3206.00,1.6695
3205.00,1.6504
3204.00,1.6316
3203.00,1.6125
3202.00,1.5926
3201.00,1.5717
3200.00,1.5492
3199.00,1.5251
3198.00,1.4993
3197.00,1.4721
3196.00,1.4440
3195.00,1.4154
3194.00,1.3869
3193.00,1.3587
3192.00,1.3314
3191.00,1.3055
3190.00,1.2813
3189.00,1.2591
3188.00,1.2391
3187.00,1.2214
3186.00,1.2063
3185.00,1.1941
3184.00,1.1848
3183.00,1.1788
3182.00,1.1763
3181.00,1.1773
3180.00,1.1821
3179.00,1.1907
3178.00,1.2031
3177.00,1.2193
3176.00,1.2393
3175.00,1.2630
3174.00,1.2904
3173.00,1.3214
3172.00,1.3556
3171.00,1.3926
3170.00,1.4320
3169.00,1.4728
3168.00,1.5135
3167.00,1.5516
3166.00,1.5839
3165.00,1.6069
3164.00,1.6184
3163.00,1.6189
3162.00,1.6117
3161.00,1.6017
3160.00,1.5935
3159.00,1.5898
3158.00,1.5922
3157.00,1.6007
3156.00,1.6147
3155.00,1.6329
3154.00,1.6539
3153.00,1.6766
3152.00,1.7004
3151.00,1.7248
3150.00,1.7493
3149.00,1.7736
3148.00,1.7971
3147.00,1.8197
3146.00,1.8413
3145.00,1.8618
3144.00,1.8814
3143.00,1.9003
3142.00,1.9184
3141.00,1.9360
3140.00,1.9528
3139.00,1.9690
3138.00,1.9845
3137.00,1.9992
3136.00,2.0131
3135.00,2.0261
3134.00,2.0387
3133.00,2.0508
3132.00,2.0622
3131.00,2.0726
3130.00,2.0822
3129.00,2.0913
3128.00,2.1000
3127.00,2.1084
3126.00,2.1162
3125.00,2.1235
3124.00,2.1303
3123.00,2.1366
3122.00,2.1425
3121.00,2.1479
3120.00,2.1528
3119.00,2.1570
3118.00,2.1609
3117.00,2.1645
3116.00,2.1676
3115.00,2.1702
3114.00,2.1724
3113.00,2.1744
3112.00,2.1760
3111.00,2.1768
3110.00,2.1766
3109.00,2.1758
3108.00,2.1746
3107.00,2.1733
3106.00,2.1718
3105.00,2.1701
3104.00,2.1681
3103.00,2.1660
3102.00,2.1637
3101.00,2.1607
3100.00,2.1568
3099.00,2.1519
3098.00,2.1467
3097.00,2.1415
3096.00,2.1361
3095.00,2.1300
3094.00,2.1226
3093.00,2.1139
3092.00,2.1041
3091.00,2.0939
3090.00,2.0839
3089.00,2.0741
3088.00,2.0641
3087.00,2.0536
3086.00,2.0429
3085.00,2.0320
3084.00,2.0205
3083.00,2.0080
3082.00,1.9945
3081.00,1.9800
3080.00,1.9647
3079.00,1.9486
3078.00,1.9320
3077.00,1.9152
3076.00,1.8979
3075.00,1.8800
3074.00,1.8609
3073.00,1.8407
3072.00,1.8198
3071.00,1.7986
3070.00,1.7772
3069.00,1.7557
3068.00,1.7335
3067.00,1.7107
3066.00,1.6873
3065.00,1.6635
3064.00,1.6396
3063.00,1.6158
3062.00,1.5922
3061.00,1.5690
3060.00,1.5464
3059.00,1.5245
3058.00,1.5035
3057.00,1.4833
3056.00,1.4643
3055.00,1.4465
3054.00,1.4301
3053.00,1.4153
3052.00,1.4023
3051.00,1.3913
3050.00,1.3823
3049.00,1.3754
3048.00,1.3709
3047.00,1.3686
3046.00,1.3688
3045.00,1.3717
3044.00,1.3773
3043.00,1.3856
3042.00,1.3963
3041.00,1.4094
3040.00,1.4245
3039.00,1.4414
3038.00,1.4601
3037.00,1.4806
3036.00,1.5026
3035.00,1.5261
3034.00,1.5508
3033.00,1.5764
3032.00,1.6027
3031.00,1.6295
3030.00,1.6564
3029.00,1.6836
3028.00,1.7109
3027.00,1.7381
3026.00,1.7651
3025.00,1.7918
3024.00,1.8183
3023.00,1.8446
3022.00,1.8704
3021.00,1.8957
3020.00,1.9203
3019.00,1.9442
3018.00,1.9676
3017.00,1.9905
3016.00,2.0127
3015.00,2.0341
3014.00,2.0546
3013.00,2.0741
3012.00,2.0929
3011.00,2.1112
3010.00,2.1291
3009.00,2.1463
3008.00,2.1620
3007.00,2.1756
3006.00,2.1874
3005.00,2.1978
3004.00,2.2070
3003.00,2.2150
3002.00,2.2219
3001.00,2.2281
3000.00,2.2332
2999.00,2.2370
2998.00,2.2401
2997.00,2.2431
2996.00,2.2466
2995.00,2.2502
2994.00,2.2539
2993.00,2.2579
2992.00,2.2622
2991.00,2.2667
2990.00,2.2713
2989.00,2.2760
2988.00,2.2804
2987.00,2.2846
2986.00,2.2890
2985.00,2.2940
2984.00,2.2995
2983.00,2.3052
2982.00,2.3104
2981.00,2.3147
2980.00,2.3178
2979.00,2.3203
2978.00,2.3231
2977.00,2.3268
2976.00,2.3310
2975.00,2.3348
2974.00,2.3380
2973.00,2.3412
2972.00,2.3447
2971.00,2.3483
2970.00,2.3514
2969.00,2.3541
2968.00,2.3568
2967.00,2.3601
2966.00,2.3642
2965.00,2.3691
2964.00,2.3738
2963.00,2.3778
2962.00,2.3811
2961.00,2.3838
2960.00,2.3860
2959.00,2.3883
2958.00,2.3918
2957.00,2.3976
2956.00,2.4050
2955.00,2.4125
2954.00,2.4197
2953.00,2.4277
2952.00,2.4380
2951.00,2.4511
2950.00,2.4673
2949.00,2.4862
2948.00,2.5069
2947.00,2.5274
2946.00,2.5457
2945.00,2.5596
2944.00,2.5674
2943.00,2.5684
2942.00,2.5635
2941.00,2.5547
2940.00,2.5430
2939.00,2.5286
2938.00,2.5116
2937.00,2.4926
2936.00,2.4726
2935.00,2.4524
2934.00,2.4332
2933.00,2.4152
2932.00,2.3977
2931.00,2.3795
2930.00,2.3602
2929.00,2.3404
2928.00,2.3206
2927.00,2.3011
2926.00,2.2819
2925.00,2.2632
2924.00,2.2451
2923.00,2.2267
2922.00,2.2070
2921.00,2.1855
2920.00,2.1627
2919.00,2.1393
2918.00,2.1157
2917.00,2.0918
2916.00,2.0671
2915.00,2.0418
2914.00,2.0161
2913.00,1.9905
2912.00,1.9652
2911.00,1.9401
2910.00,1.9147
2909.00,1.8892
2908.00,1.8633
2907.00,1.8371
2906.00,1.8108
2905.00,1.7845
2904.00,1.7583
2903.00,1.7324
2902.00,1.7071
2901.00,1.6826
2900.00,1.6591
2899.00,1.6364
2898.00,1.6148
2897.00,1.5947
2896.00,1.5764
2895.00,1.5601
2894.00,1.5463
2893.00,1.5353
2892.00,1.5275
2891.00,1.5233
2890.00,1.5231
2889.00,1.5270
2888.00,1.5348
2887.00,1.5465
2886.00,1.5617
2885.00,1.5801
2884.00,1.6012
2883.00,1.6248
2882.00,1.6504
2881.00,1.6780
2880.00,1.7071
2879.00,1.7374
2878.00,1.7684
2877.00,1.7996
2876.00,1.8305
2875.00,1.8607
2874.00,1.8892
2873.00,1.9154
2872.00,1.9386
2871.00,1.9584
2870.00,1.9748
2869.00,1.9881
2868.00,1.9983
2867.00,2.0060
2866.00,2.0119
2865.00,2.0167
2864.00,2.0208
2863.00,2.0239
2862.00,2.0262
2861.00,2.0281
2860.00,2.0303
2859.00,2.0332
2858.00,2.0370
2857.00,2.0422
2856.00,2.0492
2855.00,2.0583
2854.00,2.0698
2853.00,2.0831
2852.00,2.0974
2851.00,2.1120
2850.00,2.1265
2849.00,2.1408
2848.00,2.1552
2847.00,2.1698
2846.00,2.1846
2845.00,2.1993
2844.00,2.2137
2843.00,2.2272
2842.00,2.2397
2841.00,2.2513
2840.00,2.2618
2839.00,2.2711
2838.00,2.2796
2837.00,2.2879
2836.00,2.2960
2835.00,2.3038
2834.00,2.3112
2833.00,2.3177
2832.00,2.3232
2831.00,2.3278
2830.00,2.3322
2829.00,2.3370
2828.00,2.3422
2827.00,2.3472
2826.00,2.3513
2825.00,2.3543
2824.00,2.3562
2823.00,2.3567
2822.00,2.3558
2821.00,2.3541
2820.00,2.3527
2819.00,2.3519
2818.00,2.3514
2817.00,2.3505
2816.00,2.3486
2815.00,2.3459
2814.00,2.3427
2813.00,2.3389
2812.00,2.3345
2811.00,2.3293
2810.00,2.3234
2809.00,2.3171
2808.00,2.3104
2807.00,2.3033
2806.00,2.2960
2805.00,2.2884
2804.00,2.2797
2803.00,2.2697
2802.00,2.2590
2801.00,2.2482
2800.00,2.2375
2799.00,2.2264
2798.00,2.2145
2797.00,2.2016
2796.00,2.1875
2795.00,2.1722
2794.00,2.1562
2793.00,2.1399
2792.00,2.1231
2791.00,2.1054
2790.00,2.0864
2789.00,2.0662
2788.00,2.0449
2787.00,2.0223
2786.00,1.9984
2785.00,1.9735
2784.00,1.9476
2783.00,1.9205
2782.00,1.8921
2781.00,1.8623
2780.00,1.8311
2779.00,1.7985
2778.00,1.7642
2777.00,1.7285
2776.00,1.6915
2775.00,1.6533
2774.00,1.6139
2773.00,1.5736
2772.00,1.5326
2771.00,1.4912
2770.00,1.4499
2769.00,1.4093
2768.00,1.3697
2767.00,1.3316
2766.00,1.2953
2765.00,1.2612
2764.00,1.2298
2763.00,1.2013
2762.00,1.1761
2761.00,1.1547
2760.00,1.1375
2759.00,1.1247
2758.00,1.1167
2757.00,1.1137
2756.00,1.1158
2755.00,1.1230
2754.00,1.1353
2753.00,1.1524
2752.00,1.1740
2751.00,1.1996
2750.00,1.2288
2749.00,1.2609
2748.00,1.2955
2747.00,1.3322
2746.00,1.3706
2745.00,1.4101
2744.00,1.4504
2743.00,1.4912
2742.00,1.5323
2741.00,1.5733
2740.00,1.6141
2739.00,1.6542
2738.00,1.6933
2737.00,1.7312
2736.00,1.7680
2735.00,1.8036
2734.00,1.8378
2733.00,1.8705
2732.00,1.9017
2731.00,1.9315
2730.00,1.9600
2729.00,1.9873
2728.00,2.0134
2727.00,2.0382
2726.00,2.0617
2725.00,2.0841
2724.00,2.1057
2723.00,2.1269
2722.00,2.1477
2721.00,2.1678
2720.00,2.1867
2719.00,2.2043
2718.00,2.2206
2717.00,2.2359
2716.00,2.2505
2715.00,2.2649
2714.00,2.2791
2713.00,2.2927
2712.00,2.3050
2711.00,2.3156
2710.00,2.3250
2709.00,2.3337
2708.00,2.3424
2707.00,2.3515
2706.00,2.3610
2705.00,2.3703
2704.00,2.3785
2703.00,2.3856
2702.00,2.3921
2701.00,2.3986
2700.00,2.4048
2699.00,2.4104
2698.00,2.4153
2697.00,2.4196
2696.00,2.4231
2695.00,2.4259
2694.00,2.4283
2693.00,2.4305
2692.00,2.4325
2691.00,2.4340
2690.00,2.4343
2689.00,2.4333
2688.00,2.4319
2687.00,2.4310
2686.00,2.4315
2685.00,2.4328
2684.00,2.4334
2683.00,2.4324
2682.00,2.4302
2681.00,2.4272
2680.00,2.4233
2679.00,2.4181
2678.00,2.4122
2677.00,2.4064
2676.00,2.4011
2675.00,2.3956
2674.00,2.3889
2673.00,2.3807
2672.00,2.3717
2671.00,2.3623
2670.00,2.3530
2669.00,2.3437
2668.00,2.3344
2667.00,2.3247
2666.00,2.3140
2665.00,2.3021
2664.00,2.2889
2663.00,2.2746
2662.00,2.2596
2661.00,2.2440
2660.00,2.2276
2659.00,2.2104
2658.00,2.1923
2657.00,2.1734
2656.00,2.1538
2655.00,2.1334
2654.00,2.1121
2653.00,2.0893
2652.00,2.0648
2651.00,2.0384
2650.00,2.0106
2649.00,1.9817
2648.00,1.9518
2647.00,1.9205
2646.00,1.8874
2645.00,1.8521
2644.00,1.8148
2643.00,1.7756
2642.00,1.7349
2641.00,1.6929
2640.00,1.6498
2639.00,1.6060
2638.00,1.5622
2637.00,1.5194
2636.00,1.4786
2635.00,1.4413
2634.00,1.4087
2633.00,1.3823
2632.00,1.3628
2631.00,1.3502
2630.00,1.3430
2629.00,1.3381
2628.00,1.3320
2627.00,1.3216
2626.00,1.3063
2625.00,1.2876
2624.00,1.2682
2623.00,1.2506
2622.00,1.2368
2621.00,1.2282
2620.00,1.2256
2619.00,1.2290
2618.00,1.2383
2617.00,1.2531
2616.00,1.2730
2615.00,1.2975
2614.00,1.3261
2613.00,1.3583
2612.00,1.3935
2611.00,1.4312
2610.00,1.4709
2609.00,1.5121
2608.00,1.5544
2607.00,1.5973
2606.00,1.6403
2605.00,1.6830
2604.00,1.7253
2603.00,1.7668
2602.00,1.8071
2601.00,1.8461
2600.00,1.8838
2599.00,1.9201
2598.00,1.9550
2597.00,1.9883
2596.00,2.0202
2595.00,2.0506
2594.00,2.0794
2593.00,2.1062
2592.00,2.1314
2591.00,2.1556
2590.00,2.1792
2589.00,2.2018
2588.00,2.2230
2587.00,2.2426
2586.00,2.2610
2585.00,2.2786
2584.00,2.2955
2583.00,2.3119
2582.00,2.3277
2581.00,2.3431
2580.00,2.3578
2579.00,2.3721
2578.00,2.3860
2577.00,2.3987
2576.00,2.4097
2575.00,2.4190
2574.00,2.4279
2573.00,2.4375
2572.00,2.4481
2571.00,2.4592
2570.00,2.4701
2569.00,2.4798
2568.00,2.4873
2567.00,2.4927
2566.00,2.4974
2565.00,2.5024
2564.00,2.5072
2563.00,2.5108
2562.00,2.5135
2561.00,2.5165
2560.00,2.5204
2559.00,2.5244
2558.00,2.5273
2557.00,2.5287
2556.00,2.5289
2555.00,2.5287
2554.00,2.5286
2553.00,2.5289
2552.00,2.5293
2551.00,2.5294
2550.00,2.5289
2549.00,2.5274
2548.00,2.5250
2547.00,2.5222
2546.00,2.5193
2545.00,2.5163
2544.00,2.5129
2543.00,2.5088
2542.00,2.5044
2541.00,2.4994
2540.00,2.4935
2539.00,2.4864
2538.00,2.4783
2537.00,2.4695
2536.00,2.4600
2535.00,2.4501
2534.00,2.4400
2533.00,2.4298
2532.00,2.4195
2531.00,2.4090
2530.00,2.3982
2529.00,2.3865
2528.00,2.3734
2527.00,2.3592
2526.00,2.3442
2525.00,2.3287
2524.00,2.3123
2523.00,2.2948
2522.00,2.2765
2521.00,2.2575
2520.00,2.2374
2519.00,2.2159
2518.00,2.1931
2517.00,2.1695
2516.00,2.1451
2515.00,2.1197
2514.00,2.0927
2513.00,2.0638
2512.00,2.0329
2511.00,2.0005
2510.00,1.9667
2509.00,1.9317
2508.00,1.8951
2507.00,1.8564
2506.00,1.8157
2505.00,1.7732
2504.00,1.7293
2503.00,1.6844
2502.00,1.6387
2501.00,1.5927
2500.00,1.5469
2499.00,1.5018
2498.00,1.4581
2497.00,1.4165
2496.00,1.3775
2495.00,1.3417
2494.00,1.3094
2493.00,1.2811
2492.00,1.2573
2491.00,1.2381
2490.00,1.2240
2489.00,1.2154
2488.00,1.2125
2487.00,1.2155
2486.00,1.2242
2485.00,1.2386
2484.00,1.2583
2483.00,1.2827
2482.00,1.3116
2481.00,1.3441
2480.00,1.3798
2479.00,1.4181
2478.00,1.4586
2477.00,1.5006
2476.00,1.5439
2475.00,1.5881
2474.00,1.6329
2473.00,1.6779
2472.00,1.7227
2471.00,1.7667
2470.00,1.8100
2469.00,1.8522
2468.00,1.8932
2467.00,1.9324
2466.00,1.9697
2465.00,2.0052
2464.00,2.0389
2463.00,2.0712
2462.00,2.1027
2461.00,2.1334
2460.00,2.1630
2459.00,2.1911
2458.00,2.2176
2457.00,2.2431
2456.00,2.2674
2455.00,2.2905
2454.00,2.3127
2453.00,2.3347
2452.00,2.3558
2451.00,2.3749
2450.00,2.3916
2449.00,2.4069
2448.00,2.4222
2447.00,2.4377
2446.00,2.4528
2445.00,2.4670
2444.00,2.4807
2443.00,2.4940
2442.00,2.5072
2441.00,2.5199
2440.00,2.5318
2439.00,2.5425
2438.00,2.5519
2437.00,2.5603
2436.00,2.5679
2435.00,2.5753
2434.00,2.5829
2433.00,2.5907
2432.00,2.5980
2431.00,2.6039
2430.00,2.6083
2429.00,2.6123
2428.00,2.6164
2427.00,2.6209
2426.00,2.6251
2425.00,2.6287
2424.00,2.6316
2423.00,2.6342
2422.00,2.6369
2421.00,2.6394
2420.00,2.6411
2419.00,2.6418
2418.00,2.6420
2417.00,2.6421
2416.00,2.6414
2415.00,2.6395
2414.00,2.6369
2413.00,2.6342
2412.00,2.6313
2411.00,2.6284
2410.00,2.6262
2409.00,2.6246
2408.00,2.6227
2407.00,2.6191
2406.00,2.6140
2405.00,2.6085
2404.00,2.6024
2403.00,2.5955
2402.00,2.5878
2401.00,2.5797
2400.00,2.5714
2399.00,2.5625
2398.00,2.5533
2397.00,2.5439
2396.00,2.5333
2395.00,2.5202
2394.00,2.5045
2393.00,2.4873
2392.00,2.4689
2391.00,2.4487
2390.00,2.4263
2389.00,2.4018
2388.00,2.3755
2387.00,2.3478
2386.00,2.3199
2385.00,2.2945
2384.00,2.2745
2383.00,2.2620
2382.00,2.2576
2381.00,2.2609
2380.00,2.2694
2379.00,2.2798
2378.00,2.2889
2377.00,2.2940
2376.00,2.2934
2375.00,2.2865
2374.00,2.2760
2373.00,2.2657
2372.00,2.2573
2371.00,2.2500
2370.00,2.2449
2369.00,2.2443
2368.00,2.2459
2367.00,2.2473
2366.00,2.2509
2365.00,2.2548
2364.00,2.2551
2363.00,2.2531
2362.00,2.2476
2361.00,2.2440
2360.00,2.2436
2359.00,2.2436
2358.00,2.2466
2357.00,2.2481
2356.00,2.2444
2355.00,2.2291
2354.00,2.2185
2353.00,2.2334
2352.00,2.2589
2351.00,2.2706
2350.00,2.2603
2349.00,2.2598
2348.00,2.2920
2347.00,2.3379
2346.00,2.3689
2345.00,2.3636
2344.00,2.3400
2343.00,2.3154
2342.00,2.2989
2341.00,2.2896
2340.00,2.2836
2339.00,2.2782
2338.00,2.2751
2337.00,2.2758
2336.00,2.2816
2335.00,2.2900
2334.00,2.2988
2333.00,2.3114
2332.00,2.3202
2331.00,2.3344
2330.00,2.3481
2329.00,2.3640
2328.00,2.3781
2327.00,2.3911
2326.00,2.4110
2325.00,2.4332
2324.00,2.4541
2323.00,2.4648
2322.00,2.4661
2321.00,2.4643
2320.00,2.4639
2319.00,2.4698
2318.00,2.4791
2317.00,2.4938
2316.00,2.5085
2315.00,2.5243
2314.00,2.5360
2313.00,2.5468
2312.00,2.5550
2311.00,2.5643
2310.00,2.5728
2309.00,2.5832
2308.00,2.5951
2307.00,2.6106
2306.00,2.6277
2305.00,2.6459
2304.00,2.6622
2303.00,2.6786
2302.00,2.6950
2301.00,2.7147
2300.00,2.7360
2299.00,2.7596
2298.00,2.7824
2297.00,2.8047
2296.00,2.8253
2295.00,2.8434
2294.00,2.8565
2293.00,2.8629
2292.00,2.8618
2291.00,2.8539
2290.00,2.8409
2289.00,2.8243
2288.00,2.8067
2287.00,2.7895
2286.00,2.7737
2285.00,2.7602
2284.00,2.7523
2283.00,2.7530
2282.00,2.7621
2281.00,2.7751
2280.00,2.7857
2279.00,2.7908
2278.00,2.7908
2277.00,2.7876
2276.00,2.7816
2275.00,2.7729
2274.00,2.7619
2273.00,2.7494
2272.00,2.7358
2271.00,2.7205
2270.00,2.7024
2269.00,2.6805
2268.00,2.6536
2267.00,2.6213
2266.00,2.5844
2265.00,2.5449
2264.00,2.5061
2263.00,2.4730
2262.00,2.4527
2261.00,2.4533
2260.00,2.4830
2259.00,2.5484
2258.00,2.6551
2257.00,2.8071
2256.00,3.0062
2255.00,3.2501
2254.00,3.5206
2253.00,3.7434
2252.00,3.7772
2251.00,3.6333
2250.00,3.4536
2249.00,3.2990
2248.00,3.1773
2247.00,3.0830
2246.00,3.0094
2245.00,2.9511
2244.00,2.9040
2243.00,2.8651
2242.00,2.8323
2241.00,2.8041
2240.00,2.7793
2239.00,2.7562
2238.00,2.7328
2237.00,2.7076
2236.00,2.6803
2235.00,2.6521
2234.00,2.6239
2233.00,2.5948
2232.00,2.5636
2231.00,2.5303
2230.00,2.4969
2229.00,2.4647
2228.00,2.4333
2227.00,2.4005
2226.00,2.3647
2225.00,2.3255
2224.00,2.2839
2223.00,2.2406
2222.00,2.1955
2221.00,2.1479
2220.00,2.0968
2219.00,2.0423
2218.00,1.9847
2217.00,1.9248
2216.00,1.8629
2215.00,1.8001
2214.00,1.7373
2213.00,1.6758
2212.00,1.6171
2211.00,1.5628
2210.00,1.5147
2209.00,1.4747
2208.00,1.4446
2207.00,1.4256
2206.00,1.4175
2205.00,1.4180
2204.00,1.4232
2203.00,1.4295
2202.00,1.4357
2201.00,1.4435
2200.00,1.4561
2199.00,1.4758
2198.00,1.5032
2197.00,1.5378
2196.00,1.5786
2195.00,1.6242
2194.00,1.6737
2193.00,1.7259
2192.00,1.7799
2191.00,1.8343
2190.00,1.8880
2189.00,1.9406
2188.00,1.9917
2187.00,2.0415
2186.00,2.0895
2185.00,2.1352
2184.00,2.1782
2183.00,2.2182
2182.00,2.2554
2181.00,2.2904
2180.00,2.3236
2179.00,2.3549
2178.00,2.3844
2177.00,2.4127
2176.00,2.4403
2175.00,2.4667
2174.00,2.4913
2173.00,2.5141
2172.00,2.5354
2171.00,2.5556
2170.00,2.5749
2169.00,2.5938
2168.00,2.6125
2167.00,2.6305
2166.00,2.6470
2165.00,2.6617
2164.00,2.6750
2163.00,2.6872
2162.00,2.6985
2161.00,2.7095
2160.00,2.7214
2159.00,2.7340
2158.00,2.7459
2157.00,2.7558
2156.00,2.7635
2155.00,2.7703
2154.00,2.7777
2153.00,2.7867
2152.00,2.7966
2151.00,2.8056
2150.00,2.8123
2149.00,2.8171
2148.00,2.8214
2147.00,2.8256
2146.00,2.8290
2145.00,2.8319
2144.00,2.8355
2143.00,2.8407
2142.00,2.8460
2141.00,2.8492
2140.00,2.8492
2139.00,2.8469
2138.00,2.8442
2137.00,2.8423
2136.00,2.8411
2135.00,2.8393
2134.00,2.8357
2133.00,2.8303
2132.00,2.8244
2131.00,2.8194
2130.00,2.8162
2129.00,2.8148
2128.00,2.8142
2127.00,2.8128
2126.00,2.8089
2125.00,2.8022
2124.00,2.7940
2123.00,2.7858
2122.00,2.7779
2121.00,2.7693
2120.00,2.7593
2119.00,2.7480
2118.00,2.7359
2117.00,2.7236
2116.00,2.7118
2115.00,2.7011
2114.00,2.6909
2113.00,2.6795
2112.00,2.6659
2111.00,2.6503
2110.00,2.6340
2109.00,2.6172
2108.00,2.5994
2107.00,2.5805
2106.00,2.5608
2105.00,2.5406
2104.00,2.5192
2103.00,2.4960
2102.00,2.4711
2101.00,2.4450
2100.00,2.4181
2099.00,2.3904
2098.00,2.3614
2097.00,2.3306
2096.00,2.2973
2095.00,2.2615
2094.00,2.2235
2093.00,2.1835
2092.00,2.1416
2091.00,2.0975
2090.00,2.0511
2089.00,2.0022
2088.00,1.9504
2087.00,1.8963
2086.00,1.8407
2085.00,1.7848
2084.00,1.7294
2083.00,1.6754
2082.00,1.6236
2081.00,1.5752
2080.00,1.5312
2079.00,1.4926
2078.00,1.4602
2077.00,1.4345
2076.00,1.4164
2075.00,1.4060
2074.00,1.4036
2073.00,1.4090
2072.00,1.4217
2071.00,1.4407
2070.00,1.4657
2069.00,1.4957
2068.00,1.5298
2067.00,1.5674
2066.00,1.6084
2065.00,1.6528
2064.00,1.6998
2063.00,1.7476
2062.00,1.7955
2061.00,1.8440
2060.00,1.8935
2059.00,1.9438
2058.00,1.9937
2057.00,2.0425
2056.00,2.0897
2055.00,2.1352
2054.00,2.1792
2053.00,2.2219
2052.00,2.2634
2051.00,2.3031
2050.00,2.3405
2049.00,2.3756
2048.00,2.4083
2047.00,2.4389
2046.00,2.4680
2045.00,2.4962
2044.00,2.5233
2043.00,2.5488
2042.00,2.5729
2041.00,2.5962
2040.00,2.6188
2039.00,2.6401
2038.00,2.6597
2037.00,2.6779
2036.00,2.6955
2035.00,2.7132
2034.00,2.7306
2033.00,2.7468
2032.00,2.7608
2031.00,2.7732
2030.00,2.7863
2029.00,2.8011
2028.00,2.8161
2027.00,2.8283
2026.00,2.8368
2025.00,2.8428
2024.00,2.8482
2023.00,2.8546
2022.00,2.8635
2021.00,2.8747
2020.00,2.8852
2019.00,2.8921
2018.00,2.8958
2017.00,2.8998
2016.00,2.9062
2015.00,2.9143
2014.00,2.9224
2013.00,2.9294
2012.00,2.9348
2011.00,2.9386
2010.00,2.9422
2009.00,2.9472
2008.00,2.9528
2007.00,2.9558
2006.00,2.9544
2005.00,2.9502
2004.00,2.9462
2003.00,2.9437
2002.00,2.9418
2001.00,2.9396
2000.00,2.9373
1999.00,2.9355
1998.00,2.9341
1997.00,2.9323
1996.00,2.9285
1995.00,2.9225
1994.00,2.9163
1993.00,2.9135
1992.00,2.9148
1991.00,2.9173
1990.00,2.9173
1989.00,2.9130
1988.00,2.9044
1987.00,2.8917
1986.00,2.8763
1985.00,2.8606
1984.00,2.8468
1983.00,2.8362
1982.00,2.8282
1981.00,2.8209
1980.00,2.8118
1979.00,2.7991
1978.00,2.7836
1977.00,2.7679
1976.00,2.7540
1975.00,2.7410
1974.00,2.7265
1973.00,2.7094
1972.00,2.6900
1971.00,2.6694
1970.00,2.6478
1969.00,2.6255
1968.00,2.6026
1967.00,2.5792
1966.00,2.5546
1965.00,2.5278
1964.00,2.4979
1963.00,2.4656
1962.00,2.4326
1961.00,2.3996
1960.00,2.3658
1959.00,2.3299
1958.00,2.2913
1957.00,2.2501
1956.00,2.2059
1955.00,2.1589
1954.00,2.1093
1953.00,2.0573
1952.00,2.0029
1951.00,1.9463
1950.00,1.8886
1949.00,1.8300
1948.00,1.7713
1947.00,1.7140
1946.00,1.6589
1945.00,1.6066
1944.00,1.5586
1943.00,1.5177
1942.00,1.4857
1941.00,1.4613
1940.00,1.4425
1939.00,1.4306
1938.00,1.4291
1937.00,1.4397
1936.00,1.4606
1935.00,1.4894
1934.00,1.5255
1933.00,1.5687
1932.00,1.6178
1931.00,1.6707
1930.00,1.7263
1929.00,1.7839
1928.00,1.8430
1927.00,1.9026
1926.00,1.9608
1925.00,2.0172
1924.00,2.0726
1923.00,2.1294
1922.00,2.1857
1921.00,2.2357
1920.00,2.2769
1919.00,2.3145
1918.00,2.3551
1917.00,2.3984
1916.00,2.4377
1915.00,2.4705
1914.00,2.5008
1913.00,2.5327
1912.00,2.5649
1911.00,2.5948
1910.00,2.6227
1909.00,2.6506
1908.00,2.6785
1907.00,2.7040
1906.00,2.7256
1905.00,2.7443
1904.00,2.7609
1903.00,2.7773
1902.00,2.7944
1901.00,2.8122
1900.00,2.8303
1899.00,2.8477
1898.00,2.8641
1897.00,2.8800
1896.00,2.8952
1895.00,2.9093
1894.00,2.9217
1893.00,2.9321
1892.00,2.9410
1891.00,2.9501
1890.00,2.9604
1889.00,2.9713
1888.00,2.9806
1887.00,2.9871
1886.00,2.9926
1885.00,2.9997
1884.00,3.0091
1883.00,3.0199
1882.00,3.0303
1881.00,3.0388
1880.00,3.0433
1879.00,3.0428
1878.00,3.0397
1877.00,3.0390
1876.00,3.0434
1875.00,3.0522
1874.00,3.0621
1873.00,3.0689
1872.00,3.0687
1871.00,3.0612
1870.00,3.0502
1869.00,3.0412
1868.00,3.0371
1867.00,3.0369
1866.00,3.0387
1865.00,3.0417
1864.00,3.0450
1863.00,3.0467
1862.00,3.0459
1861.00,3.0435
1860.00,3.0406
1859.00,3.0370
1858.00,3.0317
1857.00,3.0254
1856.00,3.0197
1855.00,3.0149
1854.00,3.0095
1853.00,3.0022
1852.00,2.9920
1851.00,2.9781
1850.00,2.9614
1849.00,2.9473
1848.00,2.9370
1847.00,2.9259
1846.00,2.9089
1845.00,2.8887
1844.00,2.8720
1843.00,2.8607
1842.00,2.8495
1841.00,2.8341
1840.00,2.8172
1839.00,2.8016
1838.00,2.7862
1837.00,2.7681
1836.00,2.7468
1835.00,2.7247
1834.00,2.7018
1833.00,2.6755
1832.00,2.6447
1831.00,2.6106
1830.00,2.5760
1829.00,2.5420
1828.00,2.5064
1827.00,2.4692
1826.00,2.4350
1825.00,2.4063
1824.00,2.3778
1823.00,2.3417
1822.00,2.2963
1821.00,2.2470
1820.00,2.1968
1819.00,2.1447
1818.00,2.0906
1817.00,2.0356
1816.00,1.9801
1815.00,1.9241
1814.00,1.8680
1813.00,1.8155
1812.00,1.7693
1811.00,1.7294
1810.00,1.6953
1809.00,1.6670
1808.00,1.6461
1807.00,1.6340
1806.00,1.6293
1805.00,1.6311
1804.00,1.6407
1803.00,1.6605
1802.00,1.6911
1801.00,1.7301
1800.00,1.7730
1799.00,1.8168
1798.00,1.8645
1797.00,1.9193
1796.00,1.9795
1795.00,2.0382
1794.00,2.0917
1793.00,2.1448
1792.00,2.2035
1791.00,2.2666
1790.00,2.3269
1789.00,2.3789
1788.00,2.4245
1787.00,2.4683
1786.00,2.5139
1785.00,2.5616
1784.00,2.6072
1783.00,2.6447
1782.00,2.6722
1781.00,2.6966
1780.00,2.7244
1779.00,2.7535
1778.00,2.7811
1777.00,2.8070
1776.00,2.8318
1775.00,2.8507
1774.00,2.8620
1773.00,2.8729
1772.00,2.8899
1771.00,2.9088
1770.00,2.9246
1769.00,2.9424
1768.00,2.9689
1767.00,3.0016
1766.00,3.0281
1765.00,3.0416
1764.00,3.0493
1763.00,3.0610
1762.00,3.0774
1761.00,3.0921
1760.00,3.0999
1759.00,3.1036
1758.00,3.1114
1757.00,3.1277
1756.00,3.1477
1755.00,3.1585
1754.00,3.1550
1753.00,3.1471
1752.00,3.1466
1751.00,3.1534
1750.00,3.1586
1749.00,3.1565
1748.00,3.1529
1747.00,3.1543
1746.00,3.1577
1745.00,3.1603
1744.00,3.1643
1743.00,3.1711
1742.00,3.1763
1741.00,3.1741
1740.00,3.1675
1739.00,3.1652
1738.00,3.1652
1737.00,3.1553
1736.00,3.1342
1735.00,3.1157
1734.00,3.1143
1733.00,3.1268
1732.00,3.1328
1731.00,3.1228
1730.00,3.1080
1729.00,3.0991
1728.00,3.0954
1727.00,3.0896
1726.00,3.0800
1725.00,3.0727
1724.00,3.0717
1723.00,3.0777
1722.00,3.0892
1721.00,3.1026
1720.00,3.1197
1719.00,3.1498
1718.00,3.2039
1717.00,3.2832
1716.00,3.3787
1715.00,3.4839
1714.00,3.5987
1713.00,3.7235
1712.00,3.8641
1711.00,4.0291
1710.00,4.1762
1709.00,4.2241
1708.00,4.2081
1707.00,4.1384
1706.00,4.0060
1705.00,3.8731
1704.00,3.7677
1703.00,3.6771
1702.00,3.5862
1701.00,3.4929
1700.00,3.4079
1699.00,3.3352
1698.00,3.2684
1697.00,3.2143
1696.00,3.1877
1695.00,3.1881
1694.00,3.1920
1693.00,3.1803
1692.00,3.1599
1691.00,3.1418
1690.00,3.1262
1689.00,3.1077
1688.00,3.0840
1687.00,3.0539
1686.00,3.0182
1685.00,2.9768
1684.00,2.9296
1683.00,2.8826
1682.00,2.8405
1681.00,2.8109
1680.00,2.7974
1679.00,2.7889
1678.00,2.7678
1677.00,2.7289
1676.00,2.6802
1675.00,2.6303
1674.00,2.5787
1673.00,2.5222
1672.00,2.4623
1671.00,2.4035
1670.00,2.3465
1669.00,2.2896
1668.00,2.2361
1667.00,2.1882
1666.00,2.1425
1665.00,2.0936
1664.00,2.0396
1663.00,1.9855
1662.00,1.9380
1661.00,1.9029
1660.00,1.8837
1659.00,1.8795
1658.00,1.8874
1657.00,1.8996
1656.00,1.9077
1655.00,1.9132
1654.00,1.9309
1653.00,1.9727
1652.00,2.0333
1651.00,2.0940
1650.00,2.1409
1649.00,2.1789
1648.00,2.2229
1647.00,2.2794
1646.00,2.3444
1645.00,2.4113
1644.00,2.4753
1643.00,2.5338
1642.00,2.5853
1641.00,2.6320
1640.00,2.6721
1639.00,2.6995
1638.00,2.7147
1637.00,2.7248
1636.00,2.7375
1635.00,2.7546
1634.00,2.7778
1633.00,2.8084
1632.00,2.8442
1631.00,2.8834
1630.00,2.9207
1629.00,2.9504
1628.00,2.9692
1627.00,2.9798
1626.00,2.9880
1625.00,2.9993
1624.00,3.0150
1623.00,3.0332
1622.00,3.0518
1621.00,3.0704
1620.00,3.0884
1619.00,3.1045
1618.00,3.1189
1617.00,3.1297
1616.00,3.1354
1615.00,3.1399
1614.00,3.1500
1613.00,3.1694
1612.00,3.1961
1611.00,3.2229
1610.00,3.2408
1609.00,3.2467
1608.00,3.2449
1607.00,3.2423
1606.00,3.2440
1605.00,3.2522
1604.00,3.2640
1603.00,3.2742
1602.00,3.2829
1601.00,3.2913
1600.00,3.2986
1599.00,3.3040
1598.00,3.3094
1597.00,3.3157
1596.00,3.3190
1595.00,3.3160
1594.00,3.3085
1593.00,3.3003
1592.00,3.2935
1591.00,3.2884
1590.00,3.2861
1589.00,3.2864
1588.00,3.2868
1587.00,3.2862
1586.00,3.2871
1585.00,3.2914
1584.00,3.2974
1583.00,3.2986
1582.00,3.2926
1581.00,3.2812
1580.00,3.2634
1579.00,3.2384
1578.00,3.2135
1577.00,3.1988
1576.00,3.1929
1575.00,3.1860
1574.00,3.1749
1573.00,3.1630
1572.00,3.1573
1571.00,3.1446
1570.00,3.1333
1569.00,3.0974
1568.00,3.1134
1567.00,3.1339
1566.00,3.1089
1565.00,3.1023
1564.00,3.0880
1563.00,3.0784
1562.00,3.0650
1561.00,3.0500
1560.00,3.0298
1559.00,3.0015
1558.00,2.9669
1557.00,2.9344
1556.00,2.9082
1555.00,2.8847
1554.00,2.8594
1553.00,2.8309
1552.00,2.8005
1551.00,2.7697
1550.00,2.7387
1549.00,2.7076
1548.00,2.6759
1547.00,2.6430
1546.00,2.6088
1545.00,2.5741
1544.00,2.5403
1543.00,2.5084
1542.00,2.4787
1541.00,2.4494
1540.00,2.4220
1539.00,2.3925
1538.00,2.3753
1537.00,2.3546
1536.00,2.3618
1535.00,2.3118
1534.00,2.2827
1533.00,2.3096
1532.00,2.3201
1531.00,2.3440
1530.00,2.3674
1529.00,2.3979
1528.00,2.4279
1527.00,2.4602
1526.00,2.4935
1525.00,2.5208
1524.00,2.5384
1523.00,2.5439
1522.00,2.5643
1521.00,2.5851
1520.00,2.6673
1519.00,2.7398
1518.00,2.7523
1517.00,2.7900
1516.00,2.8128
1515.00,2.8439
1514.00,2.8687
1513.00,2.8990
1512.00,2.9172
1511.00,2.9395
1510.00,2.9660
1509.00,2.9804
1508.00,2.9950
1507.00,3.0079
1506.00,3.0191
1505.00,3.0295
1504.00,3.0485
1503.00,3.0763
1502.00,3.1093
1501.00,3.1447
1500.00,3.1762
1499.00,3.1987
1498.00,3.2139
1497.00,3.2277
1496.00,3.2474
1495.00,3.2788
1494.00,3.3145
1493.00,3.3383
1492.00,3.3432
1491.00,3.3403
1490.00,3.3450
1489.00,3.3576
1488.00,3.3688
1487.00,3.3796
1486.00,3.3972
1485.00,3.4167
1484.00,3.4261
1483.00,3.4227
1482.00,3.4225
1481.00,3.4405
1480.00,3.4737
1479.00,3.5095
1478.00,3.5384
1477.00,3.5571
1476.00,3.5623
1475.00,3.5545
1474.00,3.5374
1473.00,3.5194
1472.00,3.5106
1471.00,3.5205
1470.00,3.5514
1469.00,3.5906
1468.00,3.6168
1467.00,3.6179
1466.00,3.5965
1465.00,3.5636
1464.00,3.5315
1463.00,3.5123
1462.00,3.5161
1461.00,3.5423
1460.00,3.5764
1459.00,3.5979
1458.00,3.6036
1457.00,3.6160
1456.00,3.6511
1455.00,3.6956
1454.00,3.7329
1453.00,3.7666
1452.00,3.8003
1451.00,3.8276
1450.00,3.8384
1449.00,3.8382
1448.00,3.8420
1447.00,3.8456
1446.00,3.8353
1445.00,3.8192
1444.00,3.8152
1443.00,3.8272
1442.00,3.8349
1441.00,3.8217
1440.00,3.8045
1439.00,3.7994
1438.00,3.8002
1437.00,3.7880
1436.00,3.7575
1435.00,3.7235
1434.00,3.7010
1433.00,3.6970
1432.00,3.7131
1431.00,3.7437
1430.00,3.7755
1429.00,3.7955
1428.00,3.7999
1427.00,3.7952
1426.00,3.7829
1425.00,3.7609
1424.00,3.7363
1423.00,3.7189
1422.00,3.7122
1421.00,3.7093
1420.00,3.7001
1419.00,3.6897
1418.00,3.6971
1417.00,3.7284
1416.00,3.7710
1415.00,3.8052
1414.00,3.8144
1413.00,3.7934
1412.00,3.7475
1411.00,3.6935
1410.00,3.6506
1409.00,3.6271
1408.00,3.6183
1407.00,3.6133
1406.00,3.5990
1405.00,3.5696
1404.00,3.5328
1403.00,3.5029
1402.00,3.4837
1401.00,3.4654
1400.00,3.4393
1399.00,3.4083
1398.00,3.3790
1397.00,3.3509
1396.00,3.3230
1395.00,3.2997
1394.00,3.2849
1393.00,3.2753
1392.00,3.2634
1391.00,3.2474
1390.00,3.2319
1389.00,3.2206
1388.00,3.2143
1387.00,3.2130
1386.00,3.2163
1385.00,3.2253
1384.00,3.2464
1383.00,3.2886
1382.00,3.3555
1381.00,3.4408
1380.00,3.5309
1379.00,3.6141
1378.00,3.6903
1377.00,3.7656
1376.00,3.8318
1375.00,3.8582
1374.00,3.8237
1373.00,3.7432
1372.00,3.6419
1371.00,3.5365
1370.00,3.4350
1369.00,3.3395
1368.00,3.2489
1367.00,3.1630
1366.00,3.0856
1365.00,3.0200
1364.00,2.9670
1363.00,2.9248
1362.00,2.8902
1361.00,2.8607
1360.00,2.8367
1359.00,2.8215
1358.00,2.8182
1357.00,2.8280
1356.00,2.8511
1355.00,2.8868
1354.00,2.9323
1353.00,2.9815
1352.00,3.0277
1351.00,3.0676
1350.00,3.1008
1349.00,3.1270
1348.00,3.1449
1347.00,3.1557
1346.00,3.1645
1345.00,3.1774
1344.00,3.1974
1343.00,3.2255
1342.00,3.2609
1341.00,3.2987
1340.00,3.3276
1339.00,3.3380
1338.00,3.3332
1337.00,3.3248
1336.00,3.3177
1335.00,3.3103
1334.00,3.3038
1333.00,3.3057
1332.00,3.3230
1331.00,3.3560
1330.00,3.3968
1329.00,3.4349
1328.00,3.4654
1327.00,3.4898
1326.00,3.5099
1325.00,3.5239
1324.00,3.5311
1323.00,3.5365
1322.00,3.5445
1321.00,3.5518
1320.00,3.5541
1319.00,3.5570
1318.00,3.5697
1317.00,3.5921
1316.00,3.6148
1315.00,3.6305
1314.00,3.6429
1313.00,3.6558
1312.00,3.6608
1311.00,3.6486
1310.00,3.6248
1309.00,3.6047
1308.00,3.5988
1307.00,3.6074
1306.00,3.6204
1305.00,3.6256
1304.00,3.6201
1303.00,3.6133
1302.00,3.6147
1301.00,3.6262
1300.00,3.6436
1299.00,3.6641
1298.00,3.6847
1297.00,3.6980
1296.00,3.6996
1295.00,3.6974
1294.00,3.7016
1293.00,3.7084
1292.00,3.7090
1291.00,3.7080
1290.00,3.7164
1289.00,3.7307
1288.00,3.7369
1287.00,3.7323
1286.00,3.7220
1285.00,3.7068
1284.00,3.6788
1283.00,3.6390
1282.00,3.6043
1281.00,3.5855
1280.00,3.5783
1279.00,3.5701
1278.00,3.5546
1277.00,3.5368
1276.00,3.5226
1275.00,3.5171
1274.00,3.5209
1273.00,3.5251
1272.00,3.5197
1271.00,3.5017
1270.00,3.4771
1269.00,3.4529
1268.00,3.4274
1267.00,3.3955
1266.00,3.3592
1265.00,3.3257
1264.00,3.2994
1263.00,3.2794
1262.00,3.2614
1261.00,3.2399
1260.00,3.2107
1259.00,3.1739
1258.00,3.1321
1257.00,3.0856
1256.00,3.0336
1255.00,2.9784
1254.00,2.9239
1253.00,2.8717
1252.00,2.8209
1251.00,2.7695
1250.00,2.7163
1249.00,2.6614
1248.00,2.6059
1247.00,2.5519
1246.00,2.5023
1245.00,2.4595
1244.00,2.4256
1243.00,2.4020
1242.00,2.3898
1241.00,2.3898
1240.00,2.4025
1239.00,2.4280
1238.00,2.4651
1237.00,2.5113
1236.00,2.5641
1235.00,2.6223
1234.00,2.6856
1233.00,2.7539
1232.00,2.8269
1231.00,2.9047
1230.00,2.9853
1229.00,3.0614
1228.00,3.1213
1227.00,3.1604
1226.00,3.1860
1225.00,3.2065
1224.00,3.2198
1223.00,3.2203
1222.00,3.2118
1221.00,3.2047
1220.00,3.2044
1219.00,3.2091
1218.00,3.2164
1217.00,3.2267
1216.00,3.2419
1215.00,3.2639
1214.00,3.2951
1213.00,3.3358
1212.00,3.3802
1211.00,3.4179
1210.00,3.4412
1209.00,3.4544
1208.00,3.4712
1207.00,3.5011
1206.00,3.5410
1205.00,3.5768
1204.00,3.5957
1203.00,3.5976
1202.00,3.5914
1201.00,3.5817
1200.00,3.5714
1199.00,3.5698
1198.00,3.5844
1197.00,3.6097
1196.00,3.6322
1195.00,3.6515
1194.00,3.6812
1193.00,3.7244
1192.00,3.7628
1191.00,3.7792
1190.00,3.7750
1189.00,3.7526
1188.00,3.7184
1187.00,3.6932
1186.00,3.6916
1185.00,3.7104
1184.00,3.7315
1183.00,3.7345
1182.00,3.7311
1181.00,3.7500
1180.00,3.7838
1179.00,3.7940
1178.00,3.7893
1177.00,3.8139
1176.00,3.8701
1175.00,3.9202
1174.00,3.9379
1173.00,3.9305
1172.00,3.9053
1171.00,3.8632
1170.00,3.8244
1169.00,3.8192
1168.00,3.8542
1167.00,3.9059
1166.00,3.9466
1165.00,3.9868
1164.00,4.0776
1163.00,4.2173
1162.00,4.1395
1161.00,3.9770
1160.00,3.9416
1159.00,4.0125
1158.00,4.0922
1157.00,4.0816
1156.00,4.0004
1155.00,3.9032
1154.00,3.8419
1153.00,3.8372
1152.00,3.8800
1151.00,3.9405
1150.00,4.0075
1149.00,4.0685
1148.00,4.0533
1147.00,3.9990
1146.00,3.9647
1145.00,3.9174
1144.00,3.8540
1143.00,3.8195
1142.00,3.8337
1141.00,3.8786
1140.00,3.9178
1139.00,3.9313
1138.00,3.9127
1137.00,3.8579
1136.00,3.7768
1135.00,3.6923
1134.00,3.6252
1133.00,3.5815
1132.00,3.5552
1131.00,3.5381
1130.00,3.5164
1129.00,3.4742
1128.00,3.4173
1127.00,3.3728
1126.00,3.3607
1125.00,3.3794
1124.00,3.4133
1123.00,3.4513
1122.00,3.4873
1121.00,3.5027
1120.00,3.4784
1119.00,3.4255
1118.00,3.3736
1117.00,3.3362
1116.00,3.3061
1115.00,3.2724
1114.00,3.2307
1113.00,3.1768
1112.00,3.1076
1111.00,3.0305
1110.00,2.9603
1109.00,2.9061
1108.00,2.8681
1107.00,2.8438
1106.00,2.8344
1105.00,2.8422
1104.00,2.8674
1103.00,2.9072
1102.00,2.9582
1101.00,3.0170
1100.00,3.0781
1099.00,3.1350
1098.00,3.1848
1097.00,3.2310
1096.00,3.2769
1095.00,3.3256
1094.00,3.3858
1093.00,3.4665
1092.00,3.5632
1091.00,3.6509
1090.00,3.7090
1089.00,3.7560
1088.00,3.8250
1087.00,3.9309
1086.00,4.0509
1085.00,4.1485
1084.00,4.2354
1083.00,4.2657
1082.00,4.2108
1081.00,4.1212
1080.00,4.0418
1079.00,4.0391
1078.00,4.1318
1077.00,4.2566
1076.00,4.2564
1075.00,4.1147
1074.00,3.9660
1073.00,3.8800
1072.00,3.8892
1071.00,4.0282
1070.00,4.3436
1069.00,4.6562
1068.00,4.5787
1067.00,4.3094
1066.00,4.0617
1065.00,3.9718
1064.00,3.9896
1063.00,4.0288
1062.00,4.0505
1061.00,4.0958
1060.00,4.1986
1059.00,4.4204
1058.00,5.1871
1057.00,4.6841
1056.00,4.3780
1055.00,4.1321
1054.00,3.9839
1053.00,3.9924
1052.00,4.2446
1051.00,4.7154
1050.00,4.2829
1049.00,4.3149
1048.00,5.0548
1047.00,4.2508
1046.00,4.0394
1045.00,3.9762
1044.00,3.9784
1043.00,4.0114
1042.00,4.1107
1041.00,4.3827
1040.00,4.7383
1039.00,4.2662
1038.00,4.0670
1037.00,3.9828
1036.00,4.0209
1035.00,4.2424
1034.00,4.8464
1033.00,4.4070
1032.00,4.1820
1031.00,4.0803
1030.00,4.0307
1029.00,4.0745
1028.00,4.2291
1027.00,4.3225
1026.00,4.2595
1025.00,4.2620
1024.00,4.4805
1023.00,4.9685
1022.00,4.4400
1021.00,4.3877
1020.00,4.6234
1019.00,4.6980
1018.00,4.5653
1017.00,4.7376
1016.00,5.3378
1015.00,4.8190
1014.00,4.5337
1013.00,4.3220
1012.00,4.1802
1011.00,4.1475
1010.00,4.2422
1009.00,4.4504
1008.00,4.7724
1007.00,4.9146
1006.00,4.5320
1005.00,4.3625
1004.00,4.3041
1003.00,4.2730
1002.00,4.2101
1001.00,4.1785
1000.00,4.2442
999.00,4.4029
998.00,4.6646
997.00,5.2744
996.00,4.4684
995.00,4.2144
994.00,4.1396
993.00,4.1956
992.00,4.2566
991.00,4.1522
990.00,4.0242
989.00,3.9435
988.00,3.9086
987.00,3.9123
986.00,3.9478
985.00,3.9919
984.00,4.0192
983.00,4.0415
982.00,4.1010
981.00,4.2218
980.00,4.3575
979.00,4.2870
978.00,4.1104
977.00,4.0610
976.00,4.1169
975.00,4.1478
974.00,4.0545
973.00,3.9435
972.00,3.9053
971.00,3.9173
970.00,3.8970
969.00,3.8101
968.00,3.7129
967.00,3.6462
966.00,3.6025
965.00,3.5663
964.00,3.5434
963.00,3.5483
962.00,3.5845
961.00,3.6448
960.00,3.7110
959.00,3.7617
958.00,3.8030
957.00,3.8697
956.00,3.9708
955.00,4.0576
954.00,4.1386
953.00,4.2268
952.00,4.1537
951.00,4.0796
950.00,4.1066
949.00,4.1565
948.00,4.1289
947.00,4.0291
946.00,3.9344
945.00,3.8984
944.00,3.9539
943.00,4.0832
942.00,4.1249
941.00,4.0568
940.00,4.0283
939.00,4.0859
938.00,4.2872
937.00,4.7265
936.00,4.9863
935.00,5.1132
934.00,4.6129
933.00,4.3941
932.00,4.4925
931.00,5.4574
930.00,4.4634
929.00,4.3441
928.00,4.4659
927.00,4.2550
926.00,3.9422
925.00,3.7761
924.00,3.7120
923.00,3.7260
922.00,3.8039
921.00,3.9330
920.00,4.1103
919.00,4.2703
918.00,4.3012
917.00,4.1738
916.00,4.0177
915.00,3.9671
914.00,4.0255
913.00,4.1510
912.00,4.2624
911.00,4.3245
910.00,4.4648
909.00,4.6099
908.00,4.4034
907.00,4.3756
906.00,4.5724
905.00,4.4869
904.00,4.3774
903.00,4.3764
902.00,4.3633
901.00,4.4426
900.00,4.5240
899.00,4.4160
898.00,4.5246
897.00,4.8750
896.00,4.3602
895.00,4.1770
894.00,4.1480
893.00,4.1592
892.00,4.1889
891.00,4.2829
890.00,4.2869
889.00,4.0772
888.00,3.9770
887.00,4.0104
886.00,4.1625
885.00,4.2918
884.00,4.0839
883.00,3.8901
882.00,3.8181
881.00,3.8551
880.00,3.9650
879.00,4.0746
878.00,4.1132
877.00,4.0795
876.00,4.0527
875.00,4.0728
874.00,4.1317
873.00,4.1981
872.00,4.2349
871.00,4.2601
870.00,4.3637
869.00,4.3574
868.00,4.0800
867.00,3.8729
866.00,3.7682
865.00,3.7717
864.00,3.9025
863.00,4.1867
862.00,4.3803
861.00,4.3204
860.00,4.6207
859.00,4.5721
858.00,4.1490
857.00,4.0776
856.00,4.1282
855.00,4.1586
854.00,4.1330
853.00,4.1327
852.00,4.1849
851.00,4.2393
850.00,4.2436
849.00,4.1852
848.00,4.1020
847.00,4.0593
846.00,4.0658
845.00,4.0325
844.00,3.9727
843.00,3.9828
842.00,4.0626
841.00,4.1530
840.00,4.2099
839.00,4.3190
838.00,4.6308
837.00,4.5784
836.00,4.2342
835.00,4.0787
834.00,4.0468
833.00,4.1721
832.00,4.4814
831.00,4.3950
830.00,4.3099
829.00,4.6390
828.00,4.6859
827.00,4.2177
826.00,4.0887
825.00,4.0311
824.00,3.9501
823.00,3.8749
822.00,3.8234
821.00,3.7992
820.00,3.8083
819.00,3.8740
818.00,4.0142
817.00,4.2225
816.00,4.3980
815.00,4.3417
814.00,4.1200
813.00,3.9071
812.00,3.7591
811.00,3.6997
810.00,3.7403
809.00,3.8743
808.00,3.9816
807.00,4.0770
806.00,4.5031
805.00,4.3599
804.00,3.9648
803.00,3.8853
802.00,3.8862
801.00,3.8807
800.00,3.8822
799.00,3.9304
798.00,4.0789
797.00,4.2726
796.00,4.3713
795.00,4.3134
794.00,4.0074
793.00,3.7914
792.00,3.6975
791.00,3.6860
790.00,3.7403
789.00,3.8476
788.00,3.9999
787.00,4.1865
786.00,4.3176
785.00,4.1930
784.00,4.0394
783.00,4.0043
782.00,4.1318
781.00,4.3073
780.00,4.1572
779.00,4.0275
778.00,3.9765
777.00,3.9272
776.00,3.8802
775.00,3.8744
774.00,3.9301
773.00,4.0315
772.00,4.1092
771.00,4.0149
770.00,3.8874
769.00,3.8541
768.00,3.8764
767.00,3.8697
766.00,3.8224
765.00,3.7883
764.00,3.7998
763.00,3.8612
762.00,3.9467
761.00,4.0338
760.00,4.1117
759.00,4.0874
758.00,3.9953
757.00,3.9783
756.00,4.0494
755.00,4.0960
754.00,4.0757
753.00,4.0795
752.00,4.0721
751.00,4.0255
750.00,4.0240
749.00,4.0863
748.00,4.1967
747.00,4.2954
746.00,4.1757
745.00,4.0045
744.00,3.9623
743.00,4.0516
742.00,4.2736
741.00,4.5178
740.00,4.3215
739.00,4.0566
738.00,3.9239
737.00,3.9202
736.00,4.0305
735.00,4.1294
734.00,4.0238
733.00,3.8471
732.00,3.7600
731.00,3.7672
730.00,3.8102
729.00,3.8605
728.00,3.9390
727.00,4.0189
726.00,4.0270
725.00,3.9672
724.00,3.9143
723.00,3.9205
722.00,3.9643
721.00,3.9350
720.00,3.8494
719.00,3.8149
718.00,3.8528
717.00,3.9390
716.00,4.0961
715.00,4.2278
714.00,4.0872
713.00,3.9935
712.00,4.0474
711.00,4.2590
710.00,4.7896
709.00,4.6529
708.00,4.2142
707.00,4.1316
706.00,4.2628
705.00,4.5745
704.00,4.6927
703.00,4.2505
702.00,3.9281
701.00,3.7738
700.00,3.7503
