Created as New Dataset,Sample 025 By Administrator Date Wednesday, November 24 2021
cm-1,A
7502.00,0.5950
7501.00,0.5863
7500.00,0.5777
7499.00,0.5692
7498.00,0.5610
7497.00,0.5529
7496.00,0.5449
7495.00,0.5370
7494.00,0.5297
7493.00,0.5235
7492.00,0.5182
7491.00,0.5135
7490.00,0.5093
7489.00,0.5059
7488.00,0.5031
7487.00,0.5001
7486.00,0.4963
7485.00,0.4916
7484.00,0.4866
7483.00,0.4818
7482.00,0.4776
7481.00,0.4744
7480.00,0.4725
7479.00,0.4716
7478.00,0.4711
7477.00,0.4707
7476.00,0.4705
7475.00,0.4706
7474.00,0.4710
7473.00,0.4718
7472.00,0.4731
7471.00,0.4751
7470.00,0.4777
7469.00,0.4806
7468.00,0.4834
7467.00,0.4865
7466.00,0.4903
7465.00,0.4947
7464.00,0.4993
7463.00,0.5039
7462.00,0.5088
7461.00,0.5146
7460.00,0.5208
7459.00,0.5272
7458.00,0.5334
7457.00,0.5400
7456.00,0.5471
7455.00,0.5548
7454.00,0.5629
7453.00,0.5713
7452.00,0.5801
7451.00,0.5894
7450.00,0.5989
7449.00,0.6084
7448.00,0.6175
7447.00,0.6265
7446.00,0.6358
7445.00,0.6455
7444.00,0.6554
7443.00,0.6652
7442.00,0.6749
7441.00,0.6849
7440.00,0.6952
7439.00,0.7058
7438.00,0.7162
7437.00,0.7262
7436.00,0.7357
7435.00,0.7447
7434.00,0.7535
7433.00,0.7622
7432.00,0.7708
7431.00,0.7795
7430.00,0.7882
7429.00,0.7967
7428.00,0.8049
7427.00,0.8131
7426.00,0.8218
7425.00,0.8310
7424.00,0.8397
7423.00,0.8475
7422.00,0.8546
7421.00,0.8616
7420.00,0.8689
7419.00,0.8761
7418.00,0.8829
7417.00,0.8891
7416.00,0.8950
7415.00,0.9011
7414.00,0.9076
7413.00,0.9141
7412.00,0.9196
7411.00,0.9238
7410.00,0.9270
7409.00,0.9300
7408.00,0.9332
7407.00,0.9368
7406.00,0.9405
7405.00,0.9442
7404.00,0.9475
7403.00,0.9503
7402.00,0.9529
7401.00,0.9552
7400.00,0.9567
7399.00,0.9571
7398.00,0.9568
7397.00,0.9564
7396.00,0.9561
7395.00,0.9561
7394.00,0.9561
7393.00,0.9558
7392.00,0.9548
7391.00,0.9527
7390.00,0.9503
7389.00,0.9480
7388.00,0.9457
7387.00,0.9427
7386.00,0.9390
7385.00,0.9350
7384.00,0.9311
7383.00,0.9273
7382.00,0.9233
7381.00,0.9190
7380.00,0.9141
7379.00,0.9086
7378.00,0.9026
7377.00,0.8963
7376.00,0.8898
7375.00,0.8828
7374.00,0.8753
7373.00,0.8677
7372.00,0.8601
7371.00,0.8525
7370.00,0.8447
7369.00,0.8366
7368.00,0.8285
7367.00,0.8202
7366.00,0.8118
7365.00,0.8032
7364.00,0.7946
7363.00,0.7861
7362.00,0.7779
7361.00,0.7697
7360.00,0.7613
7359.00,0.7525
7358.00,0.7437
7357.00,0.7351
7356.00,0.7266
7355.00,0.7179
7354.00,0.7093
7353.00,0.7009
7352.00,0.6929
7351.00,0.6853
7350.00,0.6778
7349.00,0.6706
7348.00,0.6640
7347.00,0.6580
7346.00,0.6523
7345.00,0.6470
7344.00,0.6419
7343.00,0.6373
7342.00,0.6332
7341.00,0.6298
7340.00,0.6268
7339.00,0.6240
7338.00,0.6216
7337.00,0.6200
7336.00,0.6190
7335.00,0.6184
7334.00,0.6180
7333.00,0.6182
7332.00,0.6191
7331.00,0.6208
7330.00,0.6232
7329.00,0.6260
7328.00,0.6292
7327.00,0.6327
7326.00,0.6367
7325.00,0.6412
7324.00,0.6460
7323.00,0.6505
7322.00,0.6551
7321.00,0.6602
7320.00,0.6663
7319.00,0.6731
7318.00,0.6801
7317.00,0.6869
7316.00,0.6940
7315.00,0.7018
7314.00,0.7104
7313.00,0.7192
7312.00,0.7277
7311.00,0.7358
7310.00,0.7437
7309.00,0.7521
7308.00,0.7610
7307.00,0.7698
7306.00,0.7785
7305.00,0.7872
7304.00,0.7961
7303.00,0.8055
7302.00,0.8149
7301.00,0.8240
7300.00,0.8327
7299.00,0.8412
7298.00,0.8496
7297.00,0.8582
7296.00,0.8668
7295.00,0.8752
7294.00,0.8835
7293.00,0.8919
7292.00,0.9004
7291.00,0.9089
7290.00,0.9169
7289.00,0.9243
7288.00,0.9313
7287.00,0.9380
7286.00,0.9445
7285.00,0.9505
7284.00,0.9563
7283.00,0.9620
7282.00,0.9680
7281.00,0.9739
7280.00,0.9794
7279.00,0.9845
7278.00,0.9898
7277.00,0.9949
7276.00,0.9996
7275.00,1.0035
7274.00,1.0073
7273.00,1.0114
7272.00,1.0156
7271.00,1.0192
7270.00,1.0216
7269.00,1.0236
7268.00,1.0258
7267.00,1.0280
7266.00,1.0296
7265.00,1.0302
7264.00,1.0303
7263.00,1.0308
7262.00,1.0318
7261.00,1.0327
7260.00,1.0332
7259.00,1.0335
7258.00,1.0338
7257.00,1.0337
7256.00,1.0324
7255.00,1.0298
7254.00,1.0264
7253.00,1.0227
7252.00,1.0184
7251.00,1.0132
7250.00,1.0072
7249.00,1.0010
7248.00,0.9954
7247.00,0.9902
7246.00,0.9850
7245.00,0.9797
7244.00,0.9746
7243.00,0.9699
7242.00,0.9654
7241.00,0.9609
7240.00,0.9556
7239.00,0.9492
7238.00,0.9420
7237.00,0.9347
7236.00,0.9275
7235.00,0.9198
7234.00,0.9115
7233.00,0.9026
7232.00,0.8935
7231.00,0.8846
7230.00,0.8760
7229.00,0.8675
7228.00,0.8592
7227.00,0.8508
7226.00,0.8424
7225.00,0.8340
7224.00,0.8254
7223.00,0.8167
7222.00,0.8079
7221.00,0.7993
7220.00,0.7910
7219.00,0.7829
7218.00,0.7748
7217.00,0.7668
7216.00,0.7587
7215.00,0.7507
7214.00,0.7426
7213.00,0.7347
7212.00,0.7270
7211.00,0.7198
7210.00,0.7130
7209.00,0.7064
7208.00,0.7001
7207.00,0.6946
7206.00,0.6899
7205.00,0.6858
7204.00,0.6820
7203.00,0.6785
7202.00,0.6753
7201.00,0.6726
7200.00,0.6702
7199.00,0.6682
7198.00,0.6667
7197.00,0.6658
7196.00,0.6655
7195.00,0.6657
7194.00,0.6664
7193.00,0.6676
7192.00,0.6692
7191.00,0.6712
7190.00,0.6738
7189.00,0.6770
7188.00,0.6809
7187.00,0.6853
7186.00,0.6903
7185.00,0.6955
7184.00,0.7007
7183.00,0.7059
7182.00,0.7114
7181.00,0.7175
7180.00,0.7240
7179.00,0.7311
7178.00,0.7387
7177.00,0.7469
7176.00,0.7553
7175.00,0.7639
7174.00,0.7723
7173.00,0.7807
7172.00,0.7888
7171.00,0.7969
7170.00,0.8052
7169.00,0.8138
7168.00,0.8227
7167.00,0.8318
7166.00,0.8412
7165.00,0.8509
7164.00,0.8605
7163.00,0.8700
7162.00,0.8795
7161.00,0.8892
7160.00,0.8989
7159.00,0.9082
7158.00,0.9169
7157.00,0.9252
7156.00,0.9334
7155.00,0.9416
7154.00,0.9500
7153.00,0.9585
7152.00,0.9668
7151.00,0.9749
7150.00,0.9828
7149.00,0.9905
7148.00,0.9979
7147.00,1.0048
7146.00,1.0115
7145.00,1.0182
7144.00,1.0248
7143.00,1.0313
7142.00,1.0377
7141.00,1.0442
7140.00,1.0505
7139.00,1.0564
7138.00,1.0621
7137.00,1.0679
7136.00,1.0738
7135.00,1.0794
7134.00,1.0840
7133.00,1.0875
7132.00,1.0902
7131.00,1.0925
7130.00,1.0948
7129.00,1.0965
7128.00,1.0975
7127.00,1.0984
7126.00,1.0998
7125.00,1.1019
7124.00,1.1037
7123.00,1.1044
7122.00,1.1042
7121.00,1.1039
7120.00,1.1038
7119.00,1.1036
7118.00,1.1029
7117.00,1.1015
7116.00,1.0998
7115.00,1.0979
7114.00,1.0960
7113.00,1.0937
7112.00,1.0908
7111.00,1.0873
7110.00,1.0834
7109.00,1.0796
7108.00,1.0756
7107.00,1.0711
7106.00,1.0660
7105.00,1.0603
7104.00,1.0542
7103.00,1.0475
7102.00,1.0404
7101.00,1.0331
7100.00,1.0258
7099.00,1.0187
7098.00,1.0118
7097.00,1.0048
7096.00,0.9973
7095.00,0.9894
7094.00,0.9811
7093.00,0.9725
7092.00,0.9636
7091.00,0.9541
7090.00,0.9444
7089.00,0.9347
7088.00,0.9253
7087.00,0.9159
7086.00,0.9065
7085.00,0.8970
7084.00,0.8877
7083.00,0.8785
7082.00,0.8694
7081.00,0.8604
7080.00,0.8514
7079.00,0.8422
7078.00,0.8330
7077.00,0.8238
7076.00,0.8148
7075.00,0.8059
7074.00,0.7974
7073.00,0.7894
7072.00,0.7818
7071.00,0.7746
7070.00,0.7678
7069.00,0.7614
7068.00,0.7554
7067.00,0.7498
7066.00,0.7447
7065.00,0.7401
7064.00,0.7359
7063.00,0.7322
7062.00,0.7292
7061.00,0.7268
7060.00,0.7250
7059.00,0.7236
7058.00,0.7226
7057.00,0.7221
7056.00,0.7220
7055.00,0.7225
7054.00,0.7235
7053.00,0.7251
7052.00,0.7272
7051.00,0.7297
7050.00,0.7326
7049.00,0.7362
7048.00,0.7403
7047.00,0.7447
7046.00,0.7496
7045.00,0.7551
7044.00,0.7611
7043.00,0.7675
7042.00,0.7742
7041.00,0.7813
7040.00,0.7886
7039.00,0.7961
7038.00,0.8037
7037.00,0.8115
7036.00,0.8195
7035.00,0.8277
7034.00,0.8362
7033.00,0.8448
7032.00,0.8535
7031.00,0.8624
7030.00,0.8713
7029.00,0.8804
7028.00,0.8897
7027.00,0.8990
7026.00,0.9083
7025.00,0.9176
7024.00,0.9269
7023.00,0.9363
7022.00,0.9455
7021.00,0.9545
7020.00,0.9633
7019.00,0.9720
7018.00,0.9805
7017.00,0.9887
7016.00,0.9967
7015.00,1.0045
7014.00,1.0122
7013.00,1.0198
7012.00,1.0271
7011.00,1.0343
7010.00,1.0417
7009.00,1.0493
7008.00,1.0564
7007.00,1.0630
7006.00,1.0692
7005.00,1.0752
7004.00,1.0809
7003.00,1.0862
7002.00,1.0911
7001.00,1.0957
7000.00,1.1002
6999.00,1.1046
6998.00,1.1087
6997.00,1.1123
6996.00,1.1151
6995.00,1.1174
6994.00,1.1196
6993.00,1.1221
6992.00,1.1247
6991.00,1.1268
6990.00,1.1282
6989.00,1.1289
6988.00,1.1294
6987.00,1.1297
6986.00,1.1298
6985.00,1.1295
6984.00,1.1290
6983.00,1.1283
6982.00,1.1272
6981.00,1.1256
6980.00,1.1233
6979.00,1.1202
6978.00,1.1168
6977.00,1.1134
6976.00,1.1100
6975.00,1.1066
6974.00,1.1027
6973.00,1.0982
6972.00,1.0932
6971.00,1.0875
6970.00,1.0814
6969.00,1.0753
6968.00,1.0693
6967.00,1.0635
6966.00,1.0574
6965.00,1.0511
6964.00,1.0445
6963.00,1.0372
6962.00,1.0293
6961.00,1.0208
6960.00,1.0118
6959.00,1.0029
6958.00,0.9941
6957.00,0.9853
6956.00,0.9765
6955.00,0.9673
6954.00,0.9578
6953.00,0.9482
6952.00,0.9383
6951.00,0.9283
6950.00,0.9182
6949.00,0.9082
6948.00,0.8983
6947.00,0.8886
6946.00,0.8789
6945.00,0.8695
6944.00,0.8600
6943.00,0.8504
6942.00,0.8411
6941.00,0.8322
6940.00,0.8237
6939.00,0.8154
6938.00,0.8071
6937.00,0.7990
6936.00,0.7910
6935.00,0.7832
6934.00,0.7756
6933.00,0.7686
6932.00,0.7622
6931.00,0.7563
6930.00,0.7508
6929.00,0.7458
6928.00,0.7412
6927.00,0.7370
6926.00,0.7332
6925.00,0.7299
6924.00,0.7270
6923.00,0.7247
6922.00,0.7229
6921.00,0.7219
6920.00,0.7213
6919.00,0.7210
6918.00,0.7210
6917.00,0.7217
6916.00,0.7230
6915.00,0.7250
6914.00,0.7273
6913.00,0.7300
6912.00,0.7330
6911.00,0.7366
6910.00,0.7407
6909.00,0.7455
6908.00,0.7507
6907.00,0.7563
6906.00,0.7625
6905.00,0.7692
6904.00,0.7763
6903.00,0.7835
6902.00,0.7908
6901.00,0.7984
6900.00,0.8062
6899.00,0.8144
6898.00,0.8230
6897.00,0.8318
6896.00,0.8410
6895.00,0.8503
6894.00,0.8596
6893.00,0.8688
6892.00,0.8778
6891.00,0.8867
6890.00,0.8958
6889.00,0.9050
6888.00,0.9143
6887.00,0.9238
6886.00,0.9337
6885.00,0.9438
6884.00,0.9539
6883.00,0.9636
6882.00,0.9729
6881.00,0.9820
6880.00,0.9910
6879.00,0.9998
6878.00,1.0086
6877.00,1.0173
6876.00,1.0258
6875.00,1.0344
6874.00,1.0429
6873.00,1.0513
6872.00,1.0594
6871.00,1.0671
6870.00,1.0748
6869.00,1.0825
6868.00,1.0900
6867.00,1.0969
6866.00,1.1033
6865.00,1.1093
6864.00,1.1151
6863.00,1.1205
6862.00,1.1253
6861.00,1.1297
6860.00,1.1341
6859.00,1.1384
6858.00,1.1427
6857.00,1.1467
6856.00,1.1502
6855.00,1.1532
6854.00,1.1562
6853.00,1.1590
6852.00,1.1614
6851.00,1.1632
6850.00,1.1648
6849.00,1.1664
6848.00,1.1677
6847.00,1.1682
6846.00,1.1679
6845.00,1.1674
6844.00,1.1669
6843.00,1.1665
6842.00,1.1656
6841.00,1.1641
6840.00,1.1623
6839.00,1.1604
6838.00,1.1584
6837.00,1.1560
6836.00,1.1530
6835.00,1.1498
6834.00,1.1464
6833.00,1.1430
6832.00,1.1390
6831.00,1.1340
6830.00,1.1280
6829.00,1.1215
6828.00,1.1149
6827.00,1.1083
6826.00,1.1015
6825.00,1.0946
6824.00,1.0876
6823.00,1.0803
6822.00,1.0728
6821.00,1.0651
6820.00,1.0570
6819.00,1.0485
6818.00,1.0395
6817.00,1.0304
6816.00,1.0212
6815.00,1.0116
6814.00,1.0017
6813.00,0.9916
6812.00,0.9815
6811.00,0.9713
6810.00,0.9610
6809.00,0.9507
6808.00,0.9405
6807.00,0.9304
6806.00,0.9201
6805.00,0.9100
6804.00,0.9000
6803.00,0.8901
6802.00,0.8802
6801.00,0.8706
6800.00,0.8612
6799.00,0.8522
6798.00,0.8433
6797.00,0.8347
6796.00,0.8264
6795.00,0.8184
6794.00,0.8108
6793.00,0.8036
6792.00,0.7966
6791.00,0.7899
6790.00,0.7837
6789.00,0.7781
6788.00,0.7732
6787.00,0.7687
6786.00,0.7646
6785.00,0.7611
6784.00,0.7584
6783.00,0.7563
6782.00,0.7548
6781.00,0.7536
6780.00,0.7530
6779.00,0.7530
6778.00,0.7537
6777.00,0.7550
6776.00,0.7567
6775.00,0.7591
6774.00,0.7621
6773.00,0.7657
6772.00,0.7698
6771.00,0.7743
6770.00,0.7791
6769.00,0.7842
6768.00,0.7898
6767.00,0.7959
6766.00,0.8024
6765.00,0.8093
6764.00,0.8166
6763.00,0.8243
6762.00,0.8324
6761.00,0.8407
6760.00,0.8492
6759.00,0.8578
6758.00,0.8666
6757.00,0.8756
6756.00,0.8848
6755.00,0.8940
6754.00,0.9034
6753.00,0.9128
6752.00,0.9223
6751.00,0.9316
6750.00,0.9407
6749.00,0.9497
6748.00,0.9587
6747.00,0.9679
6746.00,0.9772
6745.00,0.9865
6744.00,0.9960
6743.00,1.0056
6742.00,1.0150
6741.00,1.0240
6740.00,1.0325
6739.00,1.0409
6738.00,1.0491
6737.00,1.0573
6736.00,1.0653
6735.00,1.0729
6734.00,1.0803
6733.00,1.0874
6732.00,1.0942
6731.00,1.1006
6730.00,1.1068
6729.00,1.1128
6728.00,1.1188
6727.00,1.1248
6726.00,1.1305
6725.00,1.1357
6724.00,1.1405
6723.00,1.1451
6722.00,1.1494
6721.00,1.1534
6720.00,1.1570
6719.00,1.1600
6718.00,1.1627
6717.00,1.1652
6716.00,1.1674
6715.00,1.1692
6714.00,1.1702
6713.00,1.1707
6712.00,1.1712
6711.00,1.1716
6710.00,1.1718
6709.00,1.1715
6708.00,1.1707
6707.00,1.1699
6706.00,1.1691
6705.00,1.1680
6704.00,1.1662
6703.00,1.1635
6702.00,1.1602
6701.00,1.1563
6700.00,1.1521
6699.00,1.1476
6698.00,1.1427
6697.00,1.1376
6696.00,1.1324
6695.00,1.1271
6694.00,1.1217
6693.00,1.1159
6692.00,1.1098
6691.00,1.1032
6690.00,1.0962
6689.00,1.0890
6688.00,1.0814
6687.00,1.0736
6686.00,1.0656
6685.00,1.0576
6684.00,1.0496
6683.00,1.0413
6682.00,1.0328
6681.00,1.0238
6680.00,1.0147
6679.00,1.0051
6678.00,0.9953
6677.00,0.9851
6676.00,0.9750
6675.00,0.9649
6674.00,0.9548
6673.00,0.9446
6672.00,0.9345
6671.00,0.9244
6670.00,0.9144
6669.00,0.9042
6668.00,0.8941
6667.00,0.8839
6666.00,0.8739
6665.00,0.8640
6664.00,0.8545
6663.00,0.8454
6662.00,0.8367
6661.00,0.8282
6660.00,0.8198
6659.00,0.8115
6658.00,0.8035
6657.00,0.7959
6656.00,0.7888
6655.00,0.7821
6654.00,0.7759
6653.00,0.7701
6652.00,0.7646
6651.00,0.7596
6650.00,0.7549
6649.00,0.7508
6648.00,0.7470
6647.00,0.7437
6646.00,0.7410
6645.00,0.7390
6644.00,0.7374
6643.00,0.7363
6642.00,0.7358
6641.00,0.7359
6640.00,0.7366
6639.00,0.7380
6638.00,0.7399
6637.00,0.7425
6636.00,0.7455
6635.00,0.7490
6634.00,0.7530
6633.00,0.7576
6632.00,0.7628
6631.00,0.7686
6630.00,0.7747
6629.00,0.7813
6628.00,0.7883
6627.00,0.7957
6626.00,0.8034
6625.00,0.8113
6624.00,0.8193
6623.00,0.8274
6622.00,0.8360
6621.00,0.8449
6620.00,0.8542
6619.00,0.8636
6618.00,0.8732
6617.00,0.8831
6616.00,0.8930
6615.00,0.9027
6614.00,0.9123
6613.00,0.9218
6612.00,0.9316
6611.00,0.9415
6610.00,0.9517
6609.00,0.9617
6608.00,0.9716
6607.00,0.9815
6606.00,0.9914
6605.00,1.0013
6604.00,1.0109
6603.00,1.0202
6602.00,1.0294
6601.00,1.0386
6600.00,1.0476
6599.00,1.0564
6598.00,1.0649
6597.00,1.0733
6596.00,1.0815
6595.00,1.0894
6594.00,1.0969
6593.00,1.1042
6592.00,1.1114
6591.00,1.1186
6590.00,1.1255
6589.00,1.1324
6588.00,1.1390
6587.00,1.1451
6586.00,1.1505
6585.00,1.1553
6584.00,1.1597
6583.00,1.1642
6582.00,1.1690
6581.00,1.1738
6580.00,1.1784
6579.00,1.1823
6578.00,1.1854
6577.00,1.1877
6576.00,1.1894
6575.00,1.1908
6574.00,1.1923
6573.00,1.1941
6572.00,1.1959
6571.00,1.1974
6570.00,1.1982
6569.00,1.1982
6568.00,1.1974
6567.00,1.1961
6566.00,1.1946
6565.00,1.1931
6564.00,1.1915
6563.00,1.1896
6562.00,1.1875
6561.00,1.1851
6560.00,1.1823
6559.00,1.1788
6558.00,1.1746
6557.00,1.1701
6556.00,1.1652
6555.00,1.1599
6554.00,1.1538
6553.00,1.1473
6552.00,1.1405
6551.00,1.1339
6550.00,1.1274
6549.00,1.1209
6548.00,1.1141
6547.00,1.1069
6546.00,1.0991
6545.00,1.0909
6544.00,1.0824
6543.00,1.0735
6542.00,1.0641
6541.00,1.0543
6540.00,1.0443
6539.00,1.0342
6538.00,1.0241
6537.00,1.0139
6536.00,1.0034
6535.00,0.9926
6534.00,0.9818
6533.00,0.9709
6532.00,0.9599
6531.00,0.9488
6530.00,0.9379
6529.00,0.9274
6528.00,0.9169
6527.00,0.9064
6526.00,0.8959
6525.00,0.8854
6524.00,0.8749
6523.00,0.8645
6522.00,0.8544
6521.00,0.8447
6520.00,0.8354
6519.00,0.8264
6518.00,0.8177
6517.00,0.8094
6516.00,0.8015
6515.00,0.7941
6514.00,0.7873
6513.00,0.7810
6512.00,0.7752
6511.00,0.7699
6510.00,0.7652
6509.00,0.7611
6508.00,0.7577
6507.00,0.7549
6506.00,0.7528
6505.00,0.7512
6504.00,0.7502
6503.00,0.7497
6502.00,0.7497
6501.00,0.7503
6500.00,0.7517
6499.00,0.7537
6498.00,0.7564
6497.00,0.7597
6496.00,0.7635
6495.00,0.7679
6494.00,0.7729
6493.00,0.7784
6492.00,0.7843
6491.00,0.7906
6490.00,0.7974
6489.00,0.8046
6488.00,0.8122
6487.00,0.8200
6486.00,0.8282
6485.00,0.8367
6484.00,0.8456
6483.00,0.8547
6482.00,0.8640
6481.00,0.8733
6480.00,0.8826
6479.00,0.8921
6478.00,0.9018
6477.00,0.9117
6476.00,0.9215
6475.00,0.9312
6474.00,0.9410
6473.00,0.9509
6472.00,0.9607
6471.00,0.9705
6470.00,0.9803
6469.00,0.9903
6468.00,1.0003
6467.00,1.0099
6466.00,1.0191
6465.00,1.0280
6464.00,1.0369
6463.00,1.0456
6462.00,1.0543
6461.00,1.0628
6460.00,1.0711
6459.00,1.0792
6458.00,1.0869
6457.00,1.0942
6456.00,1.1013
6455.00,1.1082
6454.00,1.1149
6453.00,1.1212
6452.00,1.1272
6451.00,1.1330
6450.00,1.1388
6449.00,1.1445
6448.00,1.1501
6447.00,1.1555
6446.00,1.1607
6445.00,1.1655
6444.00,1.1695
6443.00,1.1728
6442.00,1.1756
6441.00,1.1780
6440.00,1.1801
6439.00,1.1818
6438.00,1.1832
6437.00,1.1844
6436.00,1.1855
6435.00,1.1865
6434.00,1.1873
6433.00,1.1875
6432.00,1.1871
6431.00,1.1860
6430.00,1.1846
6429.00,1.1831
6428.00,1.1813
6427.00,1.1792
6426.00,1.1768
6425.00,1.1743
6424.00,1.1712
6423.00,1.1674
6422.00,1.1630
6421.00,1.1582
6420.00,1.1532
6419.00,1.1479
6418.00,1.1423
6417.00,1.1365
6416.00,1.1304
6415.00,1.1241
6414.00,1.1175
6413.00,1.1107
6412.00,1.1036
6411.00,1.0963
6410.00,1.0888
6409.00,1.0811
6408.00,1.0730
6407.00,1.0646
6406.00,1.0559
6405.00,1.0470
6404.00,1.0376
6403.00,1.0279
6402.00,1.0180
6401.00,1.0081
6400.00,0.9980
6399.00,0.9878
6398.00,0.9774
6397.00,0.9670
6396.00,0.9564
6395.00,0.9455
6394.00,0.9342
6393.00,0.9228
6392.00,0.9112
6391.00,0.8996
6390.00,0.8882
6389.00,0.8772
6388.00,0.8666
6387.00,0.8566
6386.00,0.8468
6385.00,0.8372
6384.00,0.8278
6383.00,0.8184
6382.00,0.8093
6381.00,0.8004
6380.00,0.7921
6379.00,0.7841
6378.00,0.7766
6377.00,0.7696
6376.00,0.7630
6375.00,0.7568
6374.00,0.7511
6373.00,0.7461
6372.00,0.7416
6371.00,0.7378
6370.00,0.7345
6369.00,0.7317
6368.00,0.7294
6367.00,0.7277
6366.00,0.7267
6365.00,0.7264
6364.00,0.7269
6363.00,0.7280
6362.00,0.7298
6361.00,0.7321
6360.00,0.7350
6359.00,0.7384
6358.00,0.7422
6357.00,0.7467
6356.00,0.7518
6355.00,0.7575
6354.00,0.7637
6353.00,0.7704
6352.00,0.7775
6351.00,0.7852
6350.00,0.7932
6349.00,0.8015
6348.00,0.8101
6347.00,0.8189
6346.00,0.8280
6345.00,0.8375
6344.00,0.8470
6343.00,0.8568
6342.00,0.8669
6341.00,0.8772
6340.00,0.8877
6339.00,0.8982
6338.00,0.9089
6337.00,0.9198
6336.00,0.9306
6335.00,0.9412
6334.00,0.9516
6333.00,0.9619
6332.00,0.9721
6331.00,0.9822
6330.00,0.9923
6329.00,1.0023
6328.00,1.0122
6327.00,1.0217
6326.00,1.0310
6325.00,1.0400
6324.00,1.0489
6323.00,1.0577
6322.00,1.0664
6321.00,1.0750
6320.00,1.0833
6319.00,1.0913
6318.00,1.0989
6317.00,1.1063
6316.00,1.1133
6315.00,1.1200
6314.00,1.1266
6313.00,1.1330
6312.00,1.1394
6311.00,1.1456
6310.00,1.1517
6309.00,1.1576
6308.00,1.1629
6307.00,1.1678
6306.00,1.1723
6305.00,1.1764
6304.00,1.1802
6303.00,1.1840
6302.00,1.1878
6301.00,1.1916
6300.00,1.1947
6299.00,1.1970
6298.00,1.1987
6297.00,1.1998
6296.00,1.2005
6295.00,1.2010
6294.00,1.2012
6293.00,1.2013
6292.00,1.2009
6291.00,1.2001
6290.00,1.1992
6289.00,1.1982
6288.00,1.1969
6287.00,1.1950
6286.00,1.1925
6285.00,1.1894
6284.00,1.1858
6283.00,1.1816
6282.00,1.1771
6281.00,1.1726
6280.00,1.1679
6279.00,1.1627
6278.00,1.1573
6277.00,1.1515
6276.00,1.1453
6275.00,1.1386
6274.00,1.1316
6273.00,1.1245
6272.00,1.1174
6271.00,1.1099
6270.00,1.1019
6269.00,1.0933
6268.00,1.0842
6267.00,1.0748
6266.00,1.0650
6265.00,1.0547
6264.00,1.0441
6263.00,1.0331
6262.00,1.0221
6261.00,1.0112
6260.00,1.0002
6259.00,0.9891
6258.00,0.9778
6257.00,0.9664
6256.00,0.9549
6255.00,0.9432
6254.00,0.9314
6253.00,0.9197
6252.00,0.9082
6251.00,0.8969
6250.00,0.8856
6249.00,0.8743
6248.00,0.8632
6247.00,0.8521
6246.00,0.8412
6245.00,0.8306
6244.00,0.8204
6243.00,0.8106
6242.00,0.8012
6241.00,0.7921
6240.00,0.7834
6239.00,0.7751
6238.00,0.7674
6237.00,0.7602
6236.00,0.7535
6235.00,0.7475
6234.00,0.7420
6233.00,0.7373
6232.00,0.7331
6231.00,0.7296
6230.00,0.7268
6229.00,0.7246
6228.00,0.7230
6227.00,0.7222
6226.00,0.7220
6225.00,0.7225
6224.00,0.7237
6223.00,0.7256
6222.00,0.7282
6221.00,0.7315
6220.00,0.7353
6219.00,0.7397
6218.00,0.7446
6217.00,0.7501
6216.00,0.7562
6215.00,0.7628
6214.00,0.7700
6213.00,0.7777
6212.00,0.7857
6211.00,0.7942
6210.00,0.8028
6209.00,0.8117
6208.00,0.8208
6207.00,0.8303
6206.00,0.8400
6205.00,0.8500
6204.00,0.8600
6203.00,0.8701
6202.00,0.8804
6201.00,0.8908
6200.00,0.9011
6199.00,0.9114
6198.00,0.9217
6197.00,0.9322
6196.00,0.9427
6195.00,0.9531
6194.00,0.9634
6193.00,0.9735
6192.00,0.9835
6191.00,0.9935
6190.00,1.0033
6189.00,1.0130
6188.00,1.0227
6187.00,1.0325
6186.00,1.0423
6185.00,1.0519
6184.00,1.0608
6183.00,1.0693
6182.00,1.0775
6181.00,1.0855
6180.00,1.0933
6179.00,1.1008
6178.00,1.1083
6177.00,1.1158
6176.00,1.1227
6175.00,1.1289
6174.00,1.1347
6173.00,1.1404
6172.00,1.1459
6171.00,1.1511
6170.00,1.1560
6169.00,1.1608
6168.00,1.1653
6167.00,1.1693
6166.00,1.1728
6165.00,1.1759
6164.00,1.1786
6163.00,1.1808
6162.00,1.1825
6161.00,1.1839
6160.00,1.1853
6159.00,1.1866
6158.00,1.1875
6157.00,1.1878
6156.00,1.1874
6155.00,1.1864
6154.00,1.1850
6153.00,1.1833
6152.00,1.1814
6151.00,1.1793
6150.00,1.1772
6149.00,1.1749
6148.00,1.1720
6147.00,1.1684
6146.00,1.1641
6145.00,1.1595
6144.00,1.1549
6143.00,1.1501
6142.00,1.1450
6141.00,1.1395
6140.00,1.1336
6139.00,1.1271
6138.00,1.1203
6137.00,1.1131
6136.00,1.1057
6135.00,1.0980
6134.00,1.0901
6133.00,1.0820
6132.00,1.0738
6131.00,1.0653
6130.00,1.0564
6129.00,1.0471
6128.00,1.0375
6127.00,1.0276
6126.00,1.0175
6125.00,1.0071
6124.00,0.9964
6123.00,0.9854
6122.00,0.9744
6121.00,0.9634
6120.00,0.9524
6119.00,0.9412
6118.00,0.9300
6117.00,0.9185
6116.00,0.9069
6115.00,0.8950
6114.00,0.8832
6113.00,0.8715
6112.00,0.8602
6111.00,0.8491
6110.00,0.8384
6109.00,0.8279
6108.00,0.8174
6107.00,0.8069
6106.00,0.7966
6105.00,0.7866
6104.00,0.7770
6103.00,0.7679
6102.00,0.7593
6101.00,0.7512
6100.00,0.7437
6099.00,0.7365
6098.00,0.7298
6097.00,0.7238
6096.00,0.7183
6095.00,0.7133
6094.00,0.7089
6093.00,0.7052
6092.00,0.7023
6091.00,0.7001
6090.00,0.6986
6089.00,0.6979
6088.00,0.6981
6087.00,0.6989
6086.00,0.7004
6085.00,0.7026
6084.00,0.7053
6083.00,0.7086
6082.00,0.7125
6081.00,0.7170
6080.00,0.7221
6079.00,0.7278
6078.00,0.7342
6077.00,0.7412
6076.00,0.7488
6075.00,0.7568
6074.00,0.7651
6073.00,0.7737
6072.00,0.7826
6071.00,0.7919
6070.00,0.8014
6069.00,0.8114
6068.00,0.8218
6067.00,0.8324
6066.00,0.8433
6065.00,0.8542
6064.00,0.8649
6063.00,0.8756
6062.00,0.8863
6061.00,0.8971
6060.00,0.9081
6059.00,0.9194
6058.00,0.9307
6057.00,0.9419
6056.00,0.9529
6055.00,0.9637
6054.00,0.9743
6053.00,0.9848
6052.00,0.9954
6051.00,1.0060
6050.00,1.0164
6049.00,1.0265
6048.00,1.0364
6047.00,1.0461
6046.00,1.0555
6045.00,1.0647
6044.00,1.0737
6043.00,1.0825
6042.00,1.0912
6041.00,1.0994
6040.00,1.1073
6039.00,1.1148
6038.00,1.1222
6037.00,1.1296
6036.00,1.1366
6035.00,1.1433
6034.00,1.1495
6033.00,1.1554
6032.00,1.1612
6031.00,1.1666
6030.00,1.1716
6029.00,1.1762
6028.00,1.1806
6027.00,1.1847
6026.00,1.1883
6025.00,1.1913
6024.00,1.1938
6023.00,1.1960
6022.00,1.1979
6021.00,1.1995
6020.00,1.2004
6019.00,1.2009
6018.00,1.2010
6017.00,1.2009
6016.00,1.2005
6015.00,1.2000
6014.00,1.1993
6013.00,1.1982
6012.00,1.1965
6011.00,1.1944
6010.00,1.1920
6009.00,1.1891
6008.00,1.1856
6007.00,1.1816
6006.00,1.1773
6005.00,1.1726
6004.00,1.1676
6003.00,1.1621
6002.00,1.1565
6001.00,1.1508
6000.00,1.1447
5999.00,1.1381
5998.00,1.1310
5997.00,1.1234
5996.00,1.1156
5995.00,1.1075
5994.00,1.0993
5993.00,1.0907
5992.00,1.0815
5991.00,1.0718
5990.00,1.0615
5989.00,1.0510
5988.00,1.0402
5987.00,1.0291
5986.00,1.0178
5985.00,1.0064
5984.00,0.9948
5983.00,0.9830
5982.00,0.9712
5981.00,0.9594
5980.00,0.9475
5979.00,0.9354
5978.00,0.9231
5977.00,0.9107
5976.00,0.8981
5975.00,0.8856
5974.00,0.8733
5973.00,0.8613
5972.00,0.8496
5971.00,0.8381
5970.00,0.8267
5969.00,0.8156
5968.00,0.8048
5967.00,0.7945
5966.00,0.7846
5965.00,0.7754
5964.00,0.7668
5963.00,0.7588
5962.00,0.7513
5961.00,0.7445
5960.00,0.7384
5959.00,0.7331
5958.00,0.7286
5957.00,0.7249
5956.00,0.7218
5955.00,0.7192
5954.00,0.7168
5953.00,0.7148
5952.00,0.7132
5951.00,0.7118
5950.00,0.7108
5949.00,0.7103
5948.00,0.7103
5947.00,0.7108
5946.00,0.7118
5945.00,0.7134
5944.00,0.7157
5943.00,0.7188
5942.00,0.7226
5941.00,0.7272
5940.00,0.7325
5939.00,0.7385
5938.00,0.7450
5937.00,0.7522
5936.00,0.7599
5935.00,0.7681
5934.00,0.7766
5933.00,0.7856
5932.00,0.7949
5931.00,0.8046
5930.00,0.8147
5929.00,0.8251
5928.00,0.8358
5927.00,0.8468
5926.00,0.8580
5925.00,0.8692
5924.00,0.8803
5923.00,0.8915
5922.00,0.9030
5921.00,0.9147
5920.00,0.9263
5919.00,0.9377
5918.00,0.9490
5917.00,0.9602
5916.00,0.9712
5915.00,0.9821
5914.00,0.9930
5913.00,1.0040
5912.00,1.0149
5911.00,1.0255
5910.00,1.0356
5909.00,1.0455
5908.00,1.0552
5907.00,1.0648
5906.00,1.0744
5905.00,1.0838
5904.00,1.0930
5903.00,1.1017
5902.00,1.1101
5901.00,1.1181
5900.00,1.1256
5899.00,1.1328
5898.00,1.1397
5897.00,1.1465
5896.00,1.1532
5895.00,1.1595
5894.00,1.1653
5893.00,1.1708
5892.00,1.1759
5891.00,1.1805
5890.00,1.1846
5889.00,1.1881
5888.00,1.1915
5887.00,1.1946
5886.00,1.1974
5885.00,1.1997
5884.00,1.2016
5883.00,1.2033
5882.00,1.2049
5881.00,1.2060
5880.00,1.2068
5879.00,1.2072
5878.00,1.2071
5877.00,1.2067
5876.00,1.2056
5875.00,1.2042
5874.00,1.2024
5873.00,1.2002
5872.00,1.1978
5871.00,1.1951
5870.00,1.1920
5869.00,1.1885
5868.00,1.1845
5867.00,1.1800
5866.00,1.1753
5865.00,1.1703
5864.00,1.1648
5863.00,1.1586
5862.00,1.1518
5861.00,1.1446
5860.00,1.1370
5859.00,1.1291
5858.00,1.1209
5857.00,1.1126
5856.00,1.1041
5855.00,1.0953
5854.00,1.0861
5853.00,1.0765
5852.00,1.0667
5851.00,1.0567
5850.00,1.0463
5849.00,1.0357
5848.00,1.0247
5847.00,1.0135
5846.00,1.0021
5845.00,0.9905
5844.00,0.9788
5843.00,0.9670
5842.00,0.9551
5841.00,0.9430
5840.00,0.9308
5839.00,0.9185
5838.00,0.9063
5837.00,0.8941
5836.00,0.8819
5835.00,0.8698
5834.00,0.8579
5833.00,0.8462
5832.00,0.8347
5831.00,0.8234
5830.00,0.8122
5829.00,0.8012
5828.00,0.7905
5827.00,0.7802
5826.00,0.7703
5825.00,0.7608
5824.00,0.7518
5823.00,0.7432
5822.00,0.7351
5821.00,0.7275
5820.00,0.7204
5819.00,0.7140
5818.00,0.7083
5817.00,0.7034
5816.00,0.6991
5815.00,0.6955
5814.00,0.6927
5813.00,0.6907
5812.00,0.6893
5811.00,0.6887
5810.00,0.6890
5809.00,0.6902
5808.00,0.6923
5807.00,0.6950
5806.00,0.6984
5805.00,0.7024
5804.00,0.7070
5803.00,0.7122
5802.00,0.7181
5801.00,0.7246
5800.00,0.7317
5799.00,0.7393
5798.00,0.7473
5797.00,0.7558
5796.00,0.7647
5795.00,0.7739
5794.00,0.7836
5793.00,0.7936
5792.00,0.8038
5791.00,0.8142
5790.00,0.8249
5789.00,0.8358
5788.00,0.8470
5787.00,0.8583
5786.00,0.8697
5785.00,0.8811
5784.00,0.8926
5783.00,0.9041
5782.00,0.9158
5781.00,0.9276
5780.00,0.9395
5779.00,0.9512
5778.00,0.9626
5777.00,0.9739
5776.00,0.9849
5775.00,0.9959
5774.00,1.0067
5773.00,1.0176
5772.00,1.0282
5771.00,1.0385
5770.00,1.0485
5769.00,1.0584
5768.00,1.0682
5767.00,1.0781
5766.00,1.0877
5765.00,1.0971
5764.00,1.1061
5763.00,1.1146
5762.00,1.1227
5761.00,1.1307
5760.00,1.1385
5759.00,1.1461
5758.00,1.1532
5757.00,1.1597
5756.00,1.1655
5755.00,1.1708
5754.00,1.1759
5753.00,1.1810
5752.00,1.1860
5751.00,1.1907
5750.00,1.1952
5749.00,1.1993
5748.00,1.2028
5747.00,1.2058
5746.00,1.2083
5745.00,1.2106
5744.00,1.2126
5743.00,1.2141
5742.00,1.2153
5741.00,1.2160
5740.00,1.2162
5739.00,1.2160
5738.00,1.2153
5737.00,1.2142
5736.00,1.2124
5735.00,1.2101
5734.00,1.2073
5733.00,1.2045
5732.00,1.2016
5731.00,1.1984
5730.00,1.1949
5729.00,1.1909
5728.00,1.1864
5727.00,1.1814
5726.00,1.1760
5725.00,1.1703
5724.00,1.1644
5723.00,1.1583
5722.00,1.1517
5721.00,1.1445
5720.00,1.1367
5719.00,1.1284
5718.00,1.1198
5717.00,1.1111
5716.00,1.1021
5715.00,1.0926
5714.00,1.0827
5713.00,1.0724
5712.00,1.0617
5711.00,1.0507
5710.00,1.0393
5709.00,1.0277
5708.00,1.0158
5707.00,1.0037
5706.00,0.9914
5705.00,0.9789
5704.00,0.9661
5703.00,0.9531
5702.00,0.9399
5701.00,0.9268
5700.00,0.9136
5699.00,0.9002
5698.00,0.8868
5697.00,0.8735
5696.00,0.8602
5695.00,0.8471
5694.00,0.8340
5693.00,0.8213
5692.00,0.8088
5691.00,0.7966
5690.00,0.7847
5689.00,0.7732
5688.00,0.7622
5687.00,0.7516
5686.00,0.7416
5685.00,0.7323
5684.00,0.7235
5683.00,0.7155
5682.00,0.7081
5681.00,0.7014
5680.00,0.6954
5679.00,0.6902
5678.00,0.6857
5677.00,0.6821
5676.00,0.6793
5675.00,0.6773
5674.00,0.6762
5673.00,0.6759
5672.00,0.6764
5671.00,0.6777
5670.00,0.6798
5669.00,0.6826
5668.00,0.6863
5667.00,0.6906
5666.00,0.6956
5665.00,0.7014
5664.00,0.7079
5663.00,0.7150
5662.00,0.7228
5661.00,0.7311
5660.00,0.7399
5659.00,0.7492
5658.00,0.7590
5657.00,0.7693
5656.00,0.7800
5655.00,0.7910
5654.00,0.8023
5653.00,0.8138
5652.00,0.8256
5651.00,0.8375
5650.00,0.8497
5649.00,0.8620
5648.00,0.8743
5647.00,0.8866
5646.00,0.8988
5645.00,0.9108
5644.00,0.9229
5643.00,0.9350
5642.00,0.9473
5641.00,0.9597
5640.00,0.9721
5639.00,0.9844
5638.00,0.9965
5637.00,1.0083
5636.00,1.0198
5635.00,1.0311
5634.00,1.0422
5633.00,1.0531
5632.00,1.0639
5631.00,1.0744
5630.00,1.0846
5629.00,1.0945
5628.00,1.1041
5627.00,1.1134
5626.00,1.1224
5625.00,1.1311
5624.00,1.1394
5623.00,1.1474
5622.00,1.1549
5621.00,1.1621
5620.00,1.1689
5619.00,1.1756
5618.00,1.1820
5617.00,1.1881
5616.00,1.1936
5615.00,1.1986
5614.00,1.2033
5613.00,1.2078
5612.00,1.2122
5611.00,1.2164
5610.00,1.2202
5609.00,1.2234
5608.00,1.2255
5607.00,1.2269
5606.00,1.2277
5605.00,1.2285
5604.00,1.2294
5603.00,1.2303
5602.00,1.2308
5601.00,1.2307
5600.00,1.2300
5599.00,1.2286
5598.00,1.2268
5597.00,1.2248
5596.00,1.2224
5595.00,1.2196
5594.00,1.2166
5593.00,1.2133
5592.00,1.2097
5591.00,1.2056
5590.00,1.2012
5589.00,1.1965
5588.00,1.1912
5587.00,1.1852
5586.00,1.1788
5585.00,1.1721
5584.00,1.1652
5583.00,1.1579
5582.00,1.1501
5581.00,1.1417
5580.00,1.1328
5579.00,1.1234
5578.00,1.1137
5577.00,1.1036
5576.00,1.0931
5575.00,1.0823
5574.00,1.0712
5573.00,1.0599
5572.00,1.0483
5571.00,1.0364
5570.00,1.0241
5569.00,1.0114
5568.00,0.9984
5567.00,0.9851
5566.00,0.9715
5565.00,0.9577
5564.00,0.9438
5563.00,0.9297
5562.00,0.9154
5561.00,0.9011
5560.00,0.8866
5559.00,0.8723
5558.00,0.8581
5557.00,0.8441
5556.00,0.8302
5555.00,0.8165
5554.00,0.8030
5553.00,0.7898
5552.00,0.7769
5551.00,0.7645
5550.00,0.7525
5549.00,0.7412
5548.00,0.7305
5547.00,0.7203
5546.00,0.7107
5545.00,0.7017
5544.00,0.6935
5543.00,0.6859
5542.00,0.6793
5541.00,0.6736
5540.00,0.6688
5539.00,0.6648
5538.00,0.6618
5537.00,0.6597
5536.00,0.6584
5535.00,0.6581
5534.00,0.6586
5533.00,0.6601
5532.00,0.6625
5531.00,0.6658
5530.00,0.6701
5529.00,0.6751
5528.00,0.6809
5527.00,0.6873
5526.00,0.6944
5525.00,0.7021
5524.00,0.7104
5523.00,0.7193
5522.00,0.7288
5521.00,0.7391
5520.00,0.7498
5519.00,0.7609
5518.00,0.7723
5517.00,0.7840
5516.00,0.7959
5515.00,0.8081
5514.00,0.8205
5513.00,0.8332
5512.00,0.8459
5511.00,0.8588
5510.00,0.8717
5509.00,0.8848
5508.00,0.8978
5507.00,0.9110
5506.00,0.9242
5505.00,0.9373
5504.00,0.9503
5503.00,0.9633
5502.00,0.9761
5501.00,0.9889
5500.00,1.0014
5499.00,1.0137
5498.00,1.0259
5497.00,1.0378
5496.00,1.0495
5495.00,1.0609
5494.00,1.0720
5493.00,1.0830
5492.00,1.0937
5491.00,1.1041
5490.00,1.1142
5489.00,1.1243
5488.00,1.1343
5487.00,1.1440
5486.00,1.1535
5485.00,1.1626
5484.00,1.1712
5483.00,1.1793
5482.00,1.1869
5481.00,1.1940
5480.00,1.2006
5479.00,1.2067
5478.00,1.2125
5477.00,1.2181
5476.00,1.2234
5475.00,1.2282
5474.00,1.2327
5473.00,1.2369
5472.00,1.2407
5471.00,1.2440
5470.00,1.2468
5469.00,1.2492
5468.00,1.2513
5467.00,1.2529
5466.00,1.2540
5465.00,1.2547
5464.00,1.2551
5463.00,1.2550
5462.00,1.2543
5461.00,1.2532
5460.00,1.2520
5459.00,1.2508
5458.00,1.2493
5457.00,1.2473
5456.00,1.2448
5455.00,1.2416
5454.00,1.2380
5453.00,1.2339
5452.00,1.2295
5451.00,1.2248
5450.00,1.2198
5449.00,1.2144
5448.00,1.2083
5447.00,1.2016
5446.00,1.1943
5445.00,1.1868
5444.00,1.1790
5443.00,1.1709
5442.00,1.1623
5441.00,1.1531
5440.00,1.1433
5439.00,1.1332
5438.00,1.1229
5437.00,1.1124
5436.00,1.1016
5435.00,1.0904
5434.00,1.0788
5433.00,1.0667
5432.00,1.0543
5431.00,1.0416
5430.00,1.0286
5429.00,1.0151
5428.00,1.0012
5427.00,0.9868
5426.00,0.9723
5425.00,0.9580
5424.00,0.9438
5423.00,0.9295
5422.00,0.9150
5421.00,0.9004
5420.00,0.8858
5419.00,0.8714
5418.00,0.8571
5417.00,0.8432
5416.00,0.8293
5415.00,0.8156
5414.00,0.8021
5413.00,0.7889
5412.00,0.7761
5411.00,0.7636
5410.00,0.7518
5409.00,0.7408
5408.00,0.7307
5407.00,0.7215
5406.00,0.7131
5405.00,0.7056
5404.00,0.6989
5403.00,0.6929
5402.00,0.6876
5401.00,0.6833
5400.00,0.6798
5399.00,0.6773
5398.00,0.6759
5397.00,0.6753
5396.00,0.6757
5395.00,0.6769
5394.00,0.6791
5393.00,0.6822
5392.00,0.6862
5391.00,0.6911
5390.00,0.6970
5389.00,0.7037
5388.00,0.7111
5387.00,0.7193
5386.00,0.7281
5385.00,0.7375
5384.00,0.7475
5383.00,0.7580
5382.00,0.7690
5381.00,0.7803
5380.00,0.7919
5379.00,0.8037
5378.00,0.8159
5377.00,0.8285
5376.00,0.8415
5375.00,0.8549
5374.00,0.8686
5373.00,0.8824
5372.00,0.8962
5371.00,0.9099
5370.00,0.9235
5369.00,0.9369
5368.00,0.9502
5367.00,0.9635
5366.00,0.9768
5365.00,0.9902
5364.00,1.0034
5363.00,1.0166
5362.00,1.0295
5361.00,1.0423
5360.00,1.0548
5359.00,1.0670
5358.00,1.0789
5357.00,1.0903
5356.00,1.1014
5355.00,1.1122
5354.00,1.1229
5353.00,1.1336
5352.00,1.1442
5351.00,1.1545
5350.00,1.1644
5349.00,1.1738
5348.00,1.1828
5347.00,1.1915
5346.00,1.1998
5345.00,1.2078
5344.00,1.2155
5343.00,1.2226
5342.00,1.2292
5341.00,1.2353
5340.00,1.2409
5339.00,1.2464
5338.00,1.2518
5337.00,1.2568
5336.00,1.2613
5335.00,1.2651
5334.00,1.2682
5333.00,1.2710
5332.00,1.2735
5331.00,1.2757
5330.00,1.2776
5329.00,1.2791
5328.00,1.2805
5327.00,1.2818
5326.00,1.2827
5325.00,1.2830
5324.00,1.2828
5323.00,1.2820
5322.00,1.2805
5321.00,1.2785
5320.00,1.2761
5319.00,1.2732
5318.00,1.2700
5317.00,1.2664
5316.00,1.2624
5315.00,1.2581
5314.00,1.2535
5313.00,1.2486
5312.00,1.2433
5311.00,1.2375
5310.00,1.2312
5309.00,1.2244
5308.00,1.2171
5307.00,1.2094
5306.00,1.2011
5305.00,1.1923
5304.00,1.1830
5303.00,1.1735
5302.00,1.1636
5301.00,1.1534
5300.00,1.1428
5299.00,1.1317
5298.00,1.1201
5297.00,1.1083
5296.00,1.0961
5295.00,1.0835
5294.00,1.0707
5293.00,1.0572
5292.00,1.0432
5291.00,1.0288
5290.00,1.0141
5289.00,0.9994
5288.00,0.9846
5287.00,0.9697
5286.00,0.9547
5285.00,0.9395
5284.00,0.9242
5283.00,0.9089
5282.00,0.8936
5281.00,0.8786
5280.00,0.8636
5279.00,0.8488
5278.00,0.8343
5277.00,0.8201
5276.00,0.8064
5275.00,0.7933
5274.00,0.7808
5273.00,0.7689
5272.00,0.7576
5271.00,0.7468
5270.00,0.7366
5269.00,0.7272
5268.00,0.7187
5267.00,0.7110
5266.00,0.7042
5265.00,0.6982
5264.00,0.6930
5263.00,0.6888
5262.00,0.6855
5261.00,0.6833
5260.00,0.6821
5259.00,0.6821
5258.00,0.6830
5257.00,0.6849
5256.00,0.6875
5255.00,0.6910
5254.00,0.6953
5253.00,0.7003
5252.00,0.7060
5251.00,0.7124
5250.00,0.7196
5249.00,0.7275
5248.00,0.7361
5247.00,0.7454
5246.00,0.7553
5245.00,0.7657
5244.00,0.7768
5243.00,0.7884
5242.00,0.8004
5241.00,0.8128
5240.00,0.8255
5239.00,0.8385
5238.00,0.8518
5237.00,0.8655
5236.00,0.8793
5235.00,0.8931
5234.00,0.9070
5233.00,0.9209
5232.00,0.9348
5231.00,0.9488
5230.00,0.9627
5229.00,0.9766
5228.00,0.9904
5227.00,1.0040
5226.00,1.0176
5225.00,1.0312
5224.00,1.0447
5223.00,1.0582
5222.00,1.0714
5221.00,1.0843
5220.00,1.0970
5219.00,1.1094
5218.00,1.1215
5217.00,1.1333
5216.00,1.1448
5215.00,1.1560
5214.00,1.1669
5213.00,1.1777
5212.00,1.1881
5211.00,1.1983
5210.00,1.2081
5209.00,1.2174
5208.00,1.2261
5207.00,1.2342
5206.00,1.2418
5205.00,1.2491
5204.00,1.2562
5203.00,1.2633
5202.00,1.2702
5201.00,1.2768
5200.00,1.2829
5199.00,1.2884
5198.00,1.2933
5197.00,1.2976
5196.00,1.3015
5195.00,1.3048
5194.00,1.3077
5193.00,1.3104
5192.00,1.3127
5191.00,1.3146
5190.00,1.3160
5189.00,1.3170
5188.00,1.3177
5187.00,1.3179
5186.00,1.3177
5185.00,1.3170
5184.00,1.3157
5183.00,1.3138
5182.00,1.3114
5181.00,1.3089
5180.00,1.3063
5179.00,1.3035
5178.00,1.3004
5177.00,1.2966
5176.00,1.2923
5175.00,1.2876
5174.00,1.2825
5173.00,1.2770
5172.00,1.2710
5171.00,1.2643
5170.00,1.2570
5169.00,1.2492
5168.00,1.2411
5167.00,1.2326
5166.00,1.2240
5165.00,1.2150
5164.00,1.2055
5163.00,1.1953
5162.00,1.1846
5161.00,1.1735
5160.00,1.1620
5159.00,1.1501
5158.00,1.1377
5157.00,1.1250
5156.00,1.1119
5155.00,1.0983
5154.00,1.0843
5153.00,1.0701
5152.00,1.0555
5151.00,1.0405
5150.00,1.0253
5149.00,1.0099
5148.00,0.9943
5147.00,0.9785
5146.00,0.9626
5145.00,0.9466
5144.00,0.9305
5143.00,0.9143
5142.00,0.8982
5141.00,0.8821
5140.00,0.8663
5139.00,0.8508
5138.00,0.8358
5137.00,0.8213
5136.00,0.8071
5135.00,0.7934
5134.00,0.7801
5133.00,0.7675
5132.00,0.7555
5131.00,0.7444
5130.00,0.7341
5129.00,0.7248
5128.00,0.7164
5127.00,0.7088
5126.00,0.7023
5125.00,0.6967
5124.00,0.6922
5123.00,0.6888
5122.00,0.6865
5121.00,0.6853
5120.00,0.6852
5119.00,0.6861
5118.00,0.6881
5117.00,0.6913
5116.00,0.6954
5115.00,0.7005
5114.00,0.7066
5113.00,0.7136
5112.00,0.7215
5111.00,0.7302
5110.00,0.7397
5109.00,0.7499
5108.00,0.7608
5107.00,0.7722
5106.00,0.7842
5105.00,0.7968
5104.00,0.8099
5103.00,0.8234
5102.00,0.8372
5101.00,0.8513
5100.00,0.8657
5099.00,0.8803
5098.00,0.8951
5097.00,0.9100
5096.00,0.9249
5095.00,0.9399
5094.00,0.9550
5093.00,0.9700
5092.00,0.9851
5091.00,0.9999
5090.00,1.0146
5089.00,1.0291
5088.00,1.0434
5087.00,1.0577
5086.00,1.0720
5085.00,1.0860
5084.00,1.0998
5083.00,1.1132
5082.00,1.1262
5081.00,1.1390
5080.00,1.1515
5079.00,1.1636
5078.00,1.1754
5077.00,1.1868
5076.00,1.1979
5075.00,1.2086
5074.00,1.2191
5073.00,1.2293
5072.00,1.2391
5071.00,1.2486
5070.00,1.2577
5069.00,1.2663
5068.00,1.2746
5067.00,1.2822
5066.00,1.2891
5065.00,1.2957
5064.00,1.3019
5063.00,1.3079
5062.00,1.3136
5061.00,1.3188
5060.00,1.3234
5059.00,1.3275
5058.00,1.3311
5057.00,1.3344
5056.00,1.3375
5055.00,1.3404
5054.00,1.3428
5053.00,1.3448
5052.00,1.3463
5051.00,1.3472
5050.00,1.3476
5049.00,1.3476
5048.00,1.3472
5047.00,1.3464
5046.00,1.3453
5045.00,1.3437
5044.00,1.3418
5043.00,1.3393
5042.00,1.3362
5041.00,1.3324
5040.00,1.3282
5039.00,1.3237
5038.00,1.3188
5037.00,1.3136
5036.00,1.3080
5035.00,1.3019
5034.00,1.2954
5033.00,1.2885
5032.00,1.2813
5031.00,1.2739
5030.00,1.2660
5029.00,1.2575
5028.00,1.2482
5027.00,1.2384
5026.00,1.2279
5025.00,1.2170
5024.00,1.2058
5023.00,1.1941
5022.00,1.1821
5021.00,1.1697
5020.00,1.1568
5019.00,1.1435
5018.00,1.1298
5017.00,1.1156
5016.00,1.1011
5015.00,1.0861
5014.00,1.0708
5013.00,1.0551
5012.00,1.0390
5011.00,1.0227
5010.00,1.0061
5009.00,0.9895
5008.00,0.9729
5007.00,0.9563
5006.00,0.9397
5005.00,0.9232
5004.00,0.9069
5003.00,0.8907
5002.00,0.8747
5001.00,0.8590
5000.00,0.8437
4999.00,0.8286
4998.00,0.8140
4997.00,0.8000
4996.00,0.7865
4995.00,0.7736
4994.00,0.7615
4993.00,0.7500
4992.00,0.7393
4991.00,0.7293
4990.00,0.7202
4989.00,0.7119
4988.00,0.7046
4987.00,0.6984
4986.00,0.6934
4985.00,0.6895
4984.00,0.6869
4983.00,0.6854
4982.00,0.6852
4981.00,0.6861
4980.00,0.6882
4979.00,0.6915
4978.00,0.6961
4977.00,0.7018
4976.00,0.7085
4975.00,0.7162
4974.00,0.7248
4973.00,0.7341
4972.00,0.7443
4971.00,0.7552
4970.00,0.7669
4969.00,0.7792
4968.00,0.7921
4967.00,0.8056
4966.00,0.8194
4965.00,0.8337
4964.00,0.8483
4963.00,0.8632
4962.00,0.8783
4961.00,0.8936
4960.00,0.9091
4959.00,0.9247
4958.00,0.9403
4957.00,0.9561
4956.00,0.9719
4955.00,0.9876
4954.00,1.0032
4953.00,1.0187
4952.00,1.0341
4951.00,1.0493
4950.00,1.0644
4949.00,1.0792
4948.00,1.0939
4947.00,1.1084
4946.00,1.1228
4945.00,1.1369
4944.00,1.1506
4943.00,1.1639
4942.00,1.1768
4941.00,1.1894
4940.00,1.2017
4939.00,1.2138
4938.00,1.2256
4937.00,1.2370
4936.00,1.2479
4935.00,1.2583
4934.00,1.2683
4933.00,1.2780
4932.00,1.2874
4931.00,1.2966
4930.00,1.3054
4929.00,1.3138
4928.00,1.3218
4927.00,1.3292
4926.00,1.3359
4925.00,1.3418
4924.00,1.3471
4923.00,1.3521
4922.00,1.3569
4921.00,1.3616
4920.00,1.3662
4919.00,1.3704
4918.00,1.3741
4917.00,1.3773
4916.00,1.3799
4915.00,1.3819
4914.00,1.3834
4913.00,1.3841
4912.00,1.3843
4911.00,1.3841
4910.00,1.3837
4909.00,1.3831
4908.00,1.3823
4907.00,1.3812
4906.00,1.3796
4905.00,1.3775
4904.00,1.3748
4903.00,1.3716
4902.00,1.3677
4901.00,1.3634
4900.00,1.3588
4899.00,1.3537
4898.00,1.3483
4897.00,1.3423
4896.00,1.3359
4895.00,1.3291
4894.00,1.3218
4893.00,1.3142
4892.00,1.3062
4891.00,1.2978
4890.00,1.2889
4889.00,1.2795
4888.00,1.2694
4887.00,1.2589
4886.00,1.2478
4885.00,1.2363
4884.00,1.2243
4883.00,1.2119
4882.00,1.1989
4881.00,1.1855
4880.00,1.1716
4879.00,1.1573
4878.00,1.1426
4877.00,1.1275
4876.00,1.1118
4875.00,1.0956
4874.00,1.0790
4873.00,1.0621
4872.00,1.0449
4871.00,1.0275
4870.00,1.0098
4869.00,0.9920
4868.00,0.9741
4867.00,0.9561
4866.00,0.9382
4865.00,0.9203
4864.00,0.9026
4863.00,0.8850
4862.00,0.8678
4861.00,0.8509
4860.00,0.8345
4859.00,0.8187
4858.00,0.8034
4857.00,0.7890
4856.00,0.7753
4855.00,0.7624
4854.00,0.7505
4853.00,0.7396
4852.00,0.7297
4851.00,0.7208
4850.00,0.7130
4849.00,0.7064
4848.00,0.7011
4847.00,0.6970
4846.00,0.6942
4845.00,0.6928
4844.00,0.6926
4843.00,0.6936
4842.00,0.6959
4841.00,0.6995
4840.00,0.7042
4839.00,0.7102
4838.00,0.7172
4837.00,0.7253
4836.00,0.7344
4835.00,0.7443
4834.00,0.7552
4833.00,0.7669
4832.00,0.7794
4831.00,0.7925
4830.00,0.8064
4829.00,0.8207
4828.00,0.8356
4827.00,0.8508
4826.00,0.8664
4825.00,0.8822
4824.00,0.8982
4823.00,0.9145
4822.00,0.9309
4821.00,0.9475
4820.00,0.9641
4819.00,0.9807
4818.00,0.9974
4817.00,1.0139
4816.00,1.0304
4815.00,1.0466
4814.00,1.0627
4813.00,1.0788
4812.00,1.0948
4811.00,1.1105
4810.00,1.1260
4809.00,1.1412
4808.00,1.1559
4807.00,1.1702
4806.00,1.1842
4805.00,1.1980
4804.00,1.2115
4803.00,1.2248
4802.00,1.2378
4801.00,1.2503
4800.00,1.2624
4799.00,1.2740
4798.00,1.2852
4797.00,1.2960
4796.00,1.3064
4795.00,1.3163
4794.00,1.3257
4793.00,1.3347
4792.00,1.3433
4791.00,1.3516
4790.00,1.3594
4789.00,1.3667
4788.00,1.3735
4787.00,1.3798
4786.00,1.3855
4785.00,1.3907
4784.00,1.3954
4783.00,1.3997
4782.00,1.4036
4781.00,1.4071
4780.00,1.4102
4779.00,1.4128
4778.00,1.4150
4777.00,1.4167
4776.00,1.4182
4775.00,1.4193
4774.00,1.4200
4773.00,1.4202
4772.00,1.4198
4771.00,1.4190
4770.00,1.4176
4769.00,1.4156
4768.00,1.4131
4767.00,1.4103
4766.00,1.4072
4765.00,1.4038
4764.00,1.4002
4763.00,1.3960
4762.00,1.3913
4761.00,1.3859
4760.00,1.3800
4759.00,1.3737
4758.00,1.3671
4757.00,1.3601
4756.00,1.3526
4755.00,1.3445
4754.00,1.3359
4753.00,1.3269
4752.00,1.3174
4751.00,1.3076
4750.00,1.2972
4749.00,1.2863
4748.00,1.2749
4747.00,1.2629
4746.00,1.2506
4745.00,1.2377
4744.00,1.2244
4743.00,1.2106
4742.00,1.1962
4741.00,1.1812
4740.00,1.1657
4739.00,1.1496
4738.00,1.1330
4737.00,1.1161
4736.00,1.0988
4735.00,1.0812
4734.00,1.0634
4733.00,1.0452
4732.00,1.0268
4731.00,1.0083
4730.00,0.9897
4729.00,0.9710
4728.00,0.9524
4727.00,0.9338
4726.00,0.9153
4725.00,0.8970
4724.00,0.8790
4723.00,0.8615
4722.00,0.8444
4721.00,0.8280
4720.00,0.8121
4719.00,0.7969
4718.00,0.7825
4717.00,0.7690
4716.00,0.7564
4715.00,0.7449
4714.00,0.7345
4713.00,0.7253
4712.00,0.7173
4711.00,0.7106
4710.00,0.7051
4709.00,0.7009
4708.00,0.6981
4707.00,0.6967
4706.00,0.6967
4705.00,0.6981
4704.00,0.7009
4703.00,0.7051
4702.00,0.7106
4701.00,0.7172
4700.00,0.7250
4699.00,0.7340
4698.00,0.7440
4697.00,0.7551
4696.00,0.7672
4695.00,0.7801
4694.00,0.7938
4693.00,0.8082
4692.00,0.8231
4691.00,0.8386
4690.00,0.8545
4689.00,0.8708
4688.00,0.8874
4687.00,0.9044
4686.00,0.9216
4685.00,0.9390
4684.00,0.9565
4683.00,0.9740
4682.00,0.9914
4681.00,1.0089
4680.00,1.0263
4679.00,1.0435
4678.00,1.0607
4677.00,1.0777
4676.00,1.0946
4675.00,1.1113
4674.00,1.1277
4673.00,1.1438
4672.00,1.1597
4671.00,1.1754
4670.00,1.1909
4669.00,1.2061
4668.00,1.2211
4667.00,1.2357
4666.00,1.2497
4665.00,1.2632
4664.00,1.2763
4663.00,1.2890
4662.00,1.3014
4661.00,1.3135
4660.00,1.3252
4659.00,1.3364
4658.00,1.3468
4657.00,1.3567
4656.00,1.3660
4655.00,1.3750
4654.00,1.3836
4653.00,1.3918
4652.00,1.3997
4651.00,1.4072
4650.00,1.4142
4649.00,1.4207
4648.00,1.4267
4647.00,1.4322
4646.00,1.4372
4645.00,1.4417
4644.00,1.4458
4643.00,1.4493
4642.00,1.4524
4641.00,1.4551
4640.00,1.4575
4639.00,1.4596
4638.00,1.4613
4637.00,1.4625
4636.00,1.4631
4635.00,1.4633
4634.00,1.4630
4633.00,1.4623
4632.00,1.4611
4631.00,1.4595
4630.00,1.4575
4629.00,1.4550
4628.00,1.4522
4627.00,1.4488
4626.00,1.4451
4625.00,1.4408
4624.00,1.4361
4623.00,1.4309
4622.00,1.4252
4621.00,1.4192
4620.00,1.4126
4619.00,1.4056
4618.00,1.3981
4617.00,1.3902
4616.00,1.3817
4615.00,1.3727
4614.00,1.3631
4613.00,1.3530
4612.00,1.3424
4611.00,1.3314
4610.00,1.3198
4609.00,1.3076
4608.00,1.2948
4607.00,1.2813
4606.00,1.2674
4605.00,1.2531
4604.00,1.2385
4603.00,1.2233
4602.00,1.2076
4601.00,1.1913
4600.00,1.1743
4599.00,1.1567
4598.00,1.1386
4597.00,1.1201
4596.00,1.1013
4595.00,1.0820
4594.00,1.0625
4593.00,1.0428
4592.00,1.0230
4591.00,1.0031
4590.00,0.9833
4589.00,0.9634
4588.00,0.9436
4587.00,0.9240
4586.00,0.9046
4585.00,0.8856
4584.00,0.8671
4583.00,0.8493
4582.00,0.8321
4581.00,0.8158
4580.00,0.8003
4579.00,0.7857
4578.00,0.7722
4577.00,0.7598
4576.00,0.7488
4575.00,0.7390
4574.00,0.7307
4573.00,0.7236
4572.00,0.7181
4571.00,0.7139
4570.00,0.7114
4569.00,0.7103
4568.00,0.7108
4567.00,0.7128
4566.00,0.7162
4565.00,0.7211
4564.00,0.7274
4563.00,0.7350
4562.00,0.7439
4561.00,0.7539
4560.00,0.7651
4559.00,0.7773
4558.00,0.7905
4557.00,0.8045
4556.00,0.8193
4555.00,0.8348
4554.00,0.8509
4553.00,0.8675
4552.00,0.8846
4551.00,0.9021
4550.00,0.9199
4549.00,0.9379
4548.00,0.9561
4547.00,0.9745
4546.00,0.9930
4545.00,1.0116
4544.00,1.0301
4543.00,1.0486
4542.00,1.0668
4541.00,1.0849
4540.00,1.1029
4539.00,1.1207
4538.00,1.1385
4537.00,1.1560
4536.00,1.1732
4535.00,1.1900
4534.00,1.2065
4533.00,1.2228
4532.00,1.2388
4531.00,1.2543
4530.00,1.2694
4529.00,1.2839
4528.00,1.2979
4527.00,1.3115
4526.00,1.3248
4525.00,1.3377
4524.00,1.3501
4523.00,1.3620
4522.00,1.3736
4521.00,1.3848
4520.00,1.3958
4519.00,1.4064
4518.00,1.4164
4517.00,1.4260
4516.00,1.4350
4515.00,1.4435
4514.00,1.4516
4513.00,1.4592
4512.00,1.4664
4511.00,1.4729
4510.00,1.4788
4509.00,1.4840
4508.00,1.4885
4507.00,1.4925
4506.00,1.4963
4505.00,1.4998
4504.00,1.5032
4503.00,1.5061
4502.00,1.5085
4501.00,1.5105
4500.00,1.5117
4499.00,1.5122
4498.00,1.5119
4497.00,1.5111
4496.00,1.5100
4495.00,1.5088
4494.00,1.5074
4493.00,1.5057
4492.00,1.5035
4491.00,1.5008
4490.00,1.4975
4489.00,1.4937
4488.00,1.4894
4487.00,1.4846
4486.00,1.4792
4485.00,1.4732
4484.00,1.4669
4483.00,1.4601
4482.00,1.4530
4481.00,1.4456
4480.00,1.4379
4479.00,1.4297
4478.00,1.4209
4477.00,1.4115
4476.00,1.4015
4475.00,1.3910
4474.00,1.3800
4473.00,1.3685
4472.00,1.3565
4471.00,1.3438
4470.00,1.3305
4469.00,1.3167
4468.00,1.3024
4467.00,1.2876
4466.00,1.2723
4465.00,1.2567
4464.00,1.2406
4463.00,1.2240
4462.00,1.2071
4461.00,1.1899
4460.00,1.1722
4459.00,1.1542
4458.00,1.1361
4457.00,1.1181
4456.00,1.1002
4455.00,1.0826
4454.00,1.0651
4453.00,1.0478
4452.00,1.0308
4451.00,1.0144
4450.00,0.9985
4449.00,0.9834
4448.00,0.9692
4447.00,0.9558
4446.00,0.9433
4445.00,0.9318
4444.00,0.9211
4443.00,0.9112
4442.00,0.9021
4441.00,0.8938
4440.00,0.8859
4439.00,0.8784
4438.00,0.8711
4437.00,0.8638
4436.00,0.8566
4435.00,0.8495
4434.00,0.8425
4433.00,0.8357
4432.00,0.8294
4431.00,0.8238
4430.00,0.8191
4429.00,0.8156
4428.00,0.8134
4427.00,0.8128
4426.00,0.8138
4425.00,0.8166
4424.00,0.8210
4423.00,0.8271
4422.00,0.8349
4421.00,0.8443
4420.00,0.8552
4419.00,0.8675
4418.00,0.8811
4417.00,0.8957
4416.00,0.9113
4415.00,0.9278
4414.00,0.9450
4413.00,0.9628
4412.00,0.9812
4411.00,1.0000
4410.00,1.0192
4409.00,1.0386
4408.00,1.0582
4407.00,1.0778
4406.00,1.0973
4405.00,1.1167
4404.00,1.1359
4403.00,1.1548
4402.00,1.1733
4401.00,1.1913
4400.00,1.2088
4399.00,1.2258
4398.00,1.2424
4397.00,1.2585
4396.00,1.2743
4395.00,1.2896
4394.00,1.3046
4393.00,1.3191
4392.00,1.3331
4391.00,1.3466
4390.00,1.3597
4389.00,1.3723
4388.00,1.3848
4387.00,1.3973
4386.00,1.4097
4385.00,1.4219
4384.00,1.4336
4383.00,1.4447
4382.00,1.4553
4381.00,1.4654
4380.00,1.4753
4379.00,1.4849
4378.00,1.4942
4377.00,1.5029
4376.00,1.5109
4375.00,1.5182
4374.00,1.5250
4373.00,1.5313
4372.00,1.5375
4371.00,1.5435
4370.00,1.5491
4369.00,1.5543
4368.00,1.5587
4367.00,1.5624
4366.00,1.5653
4365.00,1.5678
4364.00,1.5700
4363.00,1.5719
4362.00,1.5734
4361.00,1.5746
4360.00,1.5755
4359.00,1.5760
4358.00,1.5762
4357.00,1.5759
4356.00,1.5750
4355.00,1.5733
4354.00,1.5710
4353.00,1.5682
4352.00,1.5653
4351.00,1.5622
4350.00,1.5590
4349.00,1.5555
4348.00,1.5515
4347.00,1.5470
4346.00,1.5420
4345.00,1.5367
4344.00,1.5308
4343.00,1.5244
4342.00,1.5172
4341.00,1.5092
4340.00,1.5007
4339.00,1.4918
4338.00,1.4825
4337.00,1.4729
4336.00,1.4629
4335.00,1.4524
4334.00,1.4412
4333.00,1.4294
4332.00,1.4171
4331.00,1.4043
4330.00,1.3910
4329.00,1.3772
4328.00,1.3627
4327.00,1.3477
4326.00,1.3323
4325.00,1.3165
4324.00,1.3004
4323.00,1.2839
4322.00,1.2669
4321.00,1.2495
4320.00,1.2314
4319.00,1.2128
4318.00,1.1936
4317.00,1.1737
4316.00,1.1532
4315.00,1.1320
4314.00,1.1102
4313.00,1.0879
4312.00,1.0654
4311.00,1.0428
4310.00,1.0202
4309.00,0.9979
4308.00,0.9758
4307.00,0.9540
4306.00,0.9326
4305.00,0.9118
4304.00,0.8918
4303.00,0.8728
4302.00,0.8548
4301.00,0.8379
4300.00,0.8223
4299.00,0.8080
4298.00,0.7952
4297.00,0.7838
4296.00,0.7741
4295.00,0.7660
4294.00,0.7597
4293.00,0.7551
4292.00,0.7523
4291.00,0.7512
4290.00,0.7520
4289.00,0.7544
4288.00,0.7586
4287.00,0.7644
4286.00,0.7719
4285.00,0.7809
4284.00,0.7914
4283.00,0.8033
4282.00,0.8164
4281.00,0.8306
4280.00,0.8458
4279.00,0.8619
4278.00,0.8788
4277.00,0.8964
4276.00,0.9145
4275.00,0.9332
4274.00,0.9523
4273.00,0.9718
4272.00,0.9915
4271.00,1.0115
4270.00,1.0315
4269.00,1.0516
4268.00,1.0716
4267.00,1.0918
4266.00,1.1120
4265.00,1.1323
4264.00,1.1524
4263.00,1.1723
4262.00,1.1918
4261.00,1.2110
4260.00,1.2298
4259.00,1.2483
4258.00,1.2665
4257.00,1.2845
4256.00,1.3023
4255.00,1.3196
4254.00,1.3365
4253.00,1.3529
4252.00,1.3689
4251.00,1.3845
4250.00,1.3996
4249.00,1.4141
4248.00,1.4281
4247.00,1.4415
4246.00,1.4544
4245.00,1.4668
4244.00,1.4785
4243.00,1.4896
4242.00,1.5001
4241.00,1.5101
4240.00,1.5198
4239.00,1.5291
4238.00,1.5379
4237.00,1.5461
4236.00,1.5537
4235.00,1.5608
4234.00,1.5674
4233.00,1.5735
4232.00,1.5790
4231.00,1.5839
4230.00,1.5881
4229.00,1.5918
4228.00,1.5951
4227.00,1.5983
4226.00,1.6013
4225.00,1.6038
4224.00,1.6058
4223.00,1.6070
4222.00,1.6077
4221.00,1.6080
4220.00,1.6080
4219.00,1.6078
4218.00,1.6071
4217.00,1.6059
4216.00,1.6041
4215.00,1.6018
4214.00,1.5990
4213.00,1.5957
4212.00,1.5920
4211.00,1.5878
4210.00,1.5831
4209.00,1.5782
4208.00,1.5729
4207.00,1.5672
4206.00,1.5609
4205.00,1.5537
4204.00,1.5459
4203.00,1.5375
4202.00,1.5287
4201.00,1.5196
4200.00,1.5100
4199.00,1.4999
4198.00,1.4891
4197.00,1.4777
4196.00,1.4658
4195.00,1.4532
4194.00,1.4400
4193.00,1.4261
4192.00,1.4118
4191.00,1.3969
4190.00,1.3815
4189.00,1.3655
4188.00,1.3488
4187.00,1.3313
4186.00,1.3131
4185.00,1.2942
4184.00,1.2747
4183.00,1.2545
4182.00,1.2338
4181.00,1.2125
4180.00,1.1907
4179.00,1.1683
4178.00,1.1456
4177.00,1.1225
4176.00,1.0991
4175.00,1.0756
4174.00,1.0520
4173.00,1.0285
4172.00,1.0050
4171.00,0.9817
4170.00,0.9589
4169.00,0.9366
4168.00,0.9150
4167.00,0.8942
4166.00,0.8744
4165.00,0.8556
4164.00,0.8381
4163.00,0.8218
4162.00,0.8068
4161.00,0.7935
4160.00,0.7817
4159.00,0.7717
4158.00,0.7636
4157.00,0.7572
4156.00,0.7527
4155.00,0.7501
4154.00,0.7494
4153.00,0.7507
4152.00,0.7538
4151.00,0.7588
4150.00,0.7657
4149.00,0.7743
4148.00,0.7846
4147.00,0.7964
4146.00,0.8098
4145.00,0.8244
4144.00,0.8403
4143.00,0.8572
4142.00,0.8750
4141.00,0.8937
4140.00,0.9130
4139.00,0.9330
4138.00,0.9536
4137.00,0.9745
4136.00,0.9956
4135.00,1.0170
4134.00,1.0385
4133.00,1.0603
4132.00,1.0821
4131.00,1.1039
4130.00,1.1256
4129.00,1.1471
4128.00,1.1684
4127.00,1.1895
4126.00,1.2106
4125.00,1.2315
4124.00,1.2520
4123.00,1.2721
4122.00,1.2918
4121.00,1.3111
4120.00,1.3301
4119.00,1.3486
4118.00,1.3666
4117.00,1.3842
4116.00,1.4012
4115.00,1.4178
4114.00,1.4338
4113.00,1.4493
4112.00,1.4645
4111.00,1.4793
4110.00,1.4935
4109.00,1.5069
4108.00,1.5196
4107.00,1.5317
4106.00,1.5432
4105.00,1.5543
4104.00,1.5648
4103.00,1.5748
4102.00,1.5843
4101.00,1.5930
4100.00,1.6011
4099.00,1.6086
4098.00,1.6156
4097.00,1.6222
4096.00,1.6284
4095.00,1.6343
4094.00,1.6397
4093.00,1.6446
4092.00,1.6489
4091.00,1.6528
4090.00,1.6561
4089.00,1.6590
4088.00,1.6615
4087.00,1.6637
4086.00,1.6655
4085.00,1.6668
4084.00,1.6675
4083.00,1.6675
4082.00,1.6669
4081.00,1.6659
4080.00,1.6647
4079.00,1.6634
4078.00,1.6617
4077.00,1.6597
4076.00,1.6572
4075.00,1.6540
4074.00,1.6502
4073.00,1.6458
4072.00,1.6410
4071.00,1.6357
4070.00,1.6300
4069.00,1.6238
4068.00,1.6173
4067.00,1.6103
4066.00,1.6027
4065.00,1.5943
4064.00,1.5852
4063.00,1.5755
4062.00,1.5655
4061.00,1.5552
4060.00,1.5444
4059.00,1.5329
4058.00,1.5207
4057.00,1.5078
4056.00,1.4943
4055.00,1.4803
4054.00,1.4658
4053.00,1.4505
4052.00,1.4345
4051.00,1.4178
4050.00,1.4005
4049.00,1.3824
4048.00,1.3637
4047.00,1.3444
4046.00,1.3245
4045.00,1.3042
4044.00,1.2834
4043.00,1.2621
4042.00,1.2405
4041.00,1.2185
4040.00,1.1962
4039.00,1.1739
4038.00,1.1515
4037.00,1.1294
4036.00,1.1075
4035.00,1.0860
4034.00,1.0650
4033.00,1.0445
4032.00,1.0244
4031.00,1.0048
4030.00,0.9857
4029.00,0.9669
4028.00,0.9486
4027.00,0.9307
4026.00,0.9133
4025.00,0.8965
4024.00,0.8805
4023.00,0.8655
4022.00,0.8517
4021.00,0.8393
4020.00,0.8284
4019.00,0.8194
4018.00,0.8122
4017.00,0.8071
4016.00,0.8040
4015.00,0.8030
4014.00,0.8042
4013.00,0.8074
4012.00,0.8128
4011.00,0.8202
4010.00,0.8296
4009.00,0.8408
4008.00,0.8537
4007.00,0.8683
4006.00,0.8842
4005.00,0.9013
4004.00,0.9196
4003.00,0.9388
4002.00,0.9589
4001.00,0.9798
4000.00,1.0013
3999.00,1.0233
3998.00,1.0456
3997.00,1.0682
3996.00,1.0911
3995.00,1.1141
3994.00,1.1372
3993.00,1.1604
3992.00,1.1834
3991.00,1.2063
3990.00,1.2290
3989.00,1.2514
3988.00,1.2736
3987.00,1.2956
3986.00,1.3172
3985.00,1.3385
3984.00,1.3593
3983.00,1.3797
3982.00,1.3995
3981.00,1.4185
3980.00,1.4368
3979.00,1.4544
3978.00,1.4713
3977.00,1.4877
3976.00,1.5034
3975.00,1.5186
3974.00,1.5330
3973.00,1.5466
3972.00,1.5596
3971.00,1.5719
3970.00,1.5839
3969.00,1.5954
3968.00,1.6065
3967.00,1.6171
3966.00,1.6270
3965.00,1.6362
3964.00,1.6449
3963.00,1.6531
3962.00,1.6610
3961.00,1.6684
3960.00,1.6754
3959.00,1.6820
3958.00,1.6884
3957.00,1.6944
3956.00,1.6999
3955.00,1.7048
3954.00,1.7094
3953.00,1.7136
3952.00,1.7174
3951.00,1.7206
3950.00,1.7231
3949.00,1.7247
3948.00,1.7257
3947.00,1.7264
3946.00,1.7271
3945.00,1.7276
3944.00,1.7275
3943.00,1.7266
3942.00,1.7250
3941.00,1.7232
3940.00,1.7214
3939.00,1.7194
3938.00,1.7169
3937.00,1.7139
3936.00,1.7103
3935.00,1.7060
3934.00,1.7009
3933.00,1.6953
3932.00,1.6892
3931.00,1.6830
3930.00,1.6763
3929.00,1.6691
3928.00,1.6611
3927.00,1.6525
3926.00,1.6431
3925.00,1.6331
3924.00,1.6228
3923.00,1.6123
3922.00,1.6014
3921.00,1.5898
3920.00,1.5773
3919.00,1.5639
3918.00,1.5498
3917.00,1.5347
3916.00,1.5187
3915.00,1.5023
3914.00,1.4855
3913.00,1.4685
3912.00,1.4510
3911.00,1.4329
3910.00,1.4141
3909.00,1.3944
3908.00,1.3740
3907.00,1.3527
3906.00,1.3304
3905.00,1.3068
3904.00,1.2821
3903.00,1.2564
3902.00,1.2302
3901.00,1.2033
3900.00,1.1757
3899.00,1.1477
3898.00,1.1201
3897.00,1.0932
3896.00,1.0671
3895.00,1.0414
3894.00,1.0160
3893.00,0.9908
3892.00,0.9656
3891.00,0.9405
3890.00,0.9167
3889.00,0.8950
3888.00,0.8750
3887.00,0.8559
3886.00,0.8378
3885.00,0.8214
3884.00,0.8075
3883.00,0.7962
3882.00,0.7870
3881.00,0.7798
3880.00,0.7753
3879.00,0.7739
3878.00,0.7750
3877.00,0.7779
3876.00,0.7827
3875.00,0.7900
3874.00,0.8001
3873.00,0.8127
3872.00,0.8268
3871.00,0.8424
3870.00,0.8597
3869.00,0.8791
3868.00,0.8996
3867.00,0.9200
3866.00,0.9404
3865.00,0.9620
3864.00,0.9857
3863.00,1.0111
3862.00,1.0367
3861.00,1.0617
3860.00,1.0861
3859.00,1.1099
3858.00,1.1326
3857.00,1.1540
3856.00,1.1742
3855.00,1.1947
3854.00,1.2179
3853.00,1.2455
3852.00,1.2765
3851.00,1.3071
3850.00,1.3335
3849.00,1.3559
3848.00,1.3764
3847.00,1.3966
3846.00,1.4165
3845.00,1.4361
3844.00,1.4556
3843.00,1.4751
3842.00,1.4943
3841.00,1.5129
3840.00,1.5305
3839.00,1.5474
3838.00,1.5644
3837.00,1.5815
3836.00,1.5980
3835.00,1.6135
3834.00,1.6277
3833.00,1.6411
3832.00,1.6541
3831.00,1.6667
3830.00,1.6788
3829.00,1.6899
3828.00,1.6997
3827.00,1.7087
3826.00,1.7175
3825.00,1.7261
3824.00,1.7340
3823.00,1.7409
3822.00,1.7471
3821.00,1.7535
3820.00,1.7604
3819.00,1.7671
3818.00,1.7723
3817.00,1.7753
3816.00,1.7773
3815.00,1.7799
3814.00,1.7834
3813.00,1.7866
3812.00,1.7887
3811.00,1.7900
3810.00,1.7913
3809.00,1.7923
3808.00,1.7926
3807.00,1.7922
3806.00,1.7917
3805.00,1.7911
3804.00,1.7897
3803.00,1.7871
3802.00,1.7838
3801.00,1.7804
3800.00,1.7771
3799.00,1.7735
3798.00,1.7689
3797.00,1.7632
3796.00,1.7574
3795.00,1.7518
3794.00,1.7461
3793.00,1.7392
3792.00,1.7311
3791.00,1.7225
3790.00,1.7138
3789.00,1.7048
3788.00,1.6950
3787.00,1.6844
3786.00,1.6731
3785.00,1.6613
3784.00,1.6489
3783.00,1.6362
3782.00,1.6232
3781.00,1.6090
3780.00,1.5935
3779.00,1.5773
3778.00,1.5608
3777.00,1.5437
3776.00,1.5254
3775.00,1.5061
3774.00,1.4863
3773.00,1.4661
3772.00,1.4450
3771.00,1.4225
3770.00,1.3986
3769.00,1.3740
3768.00,1.3489
3767.00,1.3232
3766.00,1.2959
3765.00,1.2675
3764.00,1.2389
3763.00,1.2109
3762.00,1.1828
3761.00,1.1537
3760.00,1.1239
3759.00,1.0942
3758.00,1.0651
3757.00,1.0369
3756.00,1.0099
3755.00,0.9847
3754.00,0.9610
3753.00,0.9382
3752.00,0.9159
3751.00,0.8945
3750.00,0.8748
3749.00,0.8583
3748.00,0.8461
3747.00,0.8386
3746.00,0.8353
3745.00,0.8354
3744.00,0.8385
3743.00,0.8450
3742.00,0.8550
3741.00,0.8681
3740.00,0.8843
3739.00,0.9046
3738.00,0.9287
3737.00,0.9552
3736.00,0.9828
3735.00,1.0107
3734.00,1.0385
3733.00,1.0659
3732.00,1.0928
3731.00,1.1192
3730.00,1.1442
3729.00,1.1665
3728.00,1.1865
3727.00,1.2051
3726.00,1.2233
3725.00,1.2409
3724.00,1.2569
3723.00,1.2713
3722.00,1.2856
3721.00,1.3023
3720.00,1.3228
3719.00,1.3464
3718.00,1.3712
3717.00,1.3969
3716.00,1.4240
3715.00,1.4537
3714.00,1.4854
3713.00,1.5184
3712.00,1.5519
3711.00,1.5853
3710.00,1.6176
3709.00,1.6472
3708.00,1.6736
3707.00,1.6963
3706.00,1.7160
3705.00,1.7332
3704.00,1.7485
3703.00,1.7621
3702.00,1.7747
3701.00,1.7866
3700.00,1.7981
3699.00,1.8081
3698.00,1.8161
3697.00,1.8229
3696.00,1.8291
3695.00,1.8351
3694.00,1.8405
3693.00,1.8458
3692.00,1.8509
3691.00,1.8557
3690.00,1.8600
3689.00,1.8641
3688.00,1.8684
3687.00,1.8722
3686.00,1.8755
3685.00,1.8781
3684.00,1.8808
3683.00,1.8831
3682.00,1.8850
3681.00,1.8865
3680.00,1.8881
3679.00,1.8895
3678.00,1.8908
3677.00,1.8919
3676.00,1.8932
3675.00,1.8947
3674.00,1.8961
3673.00,1.8967
3672.00,1.8955
3671.00,1.8924
3670.00,1.8891
3669.00,1.8869
3668.00,1.8858
3667.00,1.8844
3666.00,1.8817
3665.00,1.8785
3664.00,1.8753
3663.00,1.8719
3662.00,1.8679
3661.00,1.8635
3660.00,1.8590
3659.00,1.8545
3658.00,1.8495
3657.00,1.8436
3656.00,1.8369
3655.00,1.8298
3654.00,1.8228
3653.00,1.8159
3652.00,1.8088
3651.00,1.8012
3650.00,1.7931
3649.00,1.7847
3648.00,1.7758
3647.00,1.7664
3646.00,1.7568
3645.00,1.7479
3644.00,1.7399
3643.00,1.7324
3642.00,1.7253
3641.00,1.7183
3640.00,1.7112
3639.00,1.7038
3638.00,1.6961
3637.00,1.6882
3636.00,1.6801
3635.00,1.6714
3634.00,1.6620
3633.00,1.6520
3632.00,1.6415
3631.00,1.6295
3630.00,1.6149
3629.00,1.5974
3628.00,1.5782
3627.00,1.5586
3626.00,1.5384
3625.00,1.5169
3624.00,1.4946
3623.00,1.4722
3622.00,1.4496
3621.00,1.4260
3620.00,1.4016
3619.00,1.3776
3618.00,1.3560
3617.00,1.3372
3616.00,1.3203
3615.00,1.3049
3614.00,1.2914
3613.00,1.2808
3612.00,1.2734
3611.00,1.2677
3610.00,1.2621
3609.00,1.2562
3608.00,1.2503
3607.00,1.2447
3606.00,1.2398
3605.00,1.2357
3604.00,1.2326
3603.00,1.2304
3602.00,1.2293
3601.00,1.2293
3600.00,1.2301
3599.00,1.2320
3598.00,1.2348
3597.00,1.2387
3596.00,1.2439
3595.00,1.2503
3594.00,1.2581
3593.00,1.2669
3592.00,1.2768
3591.00,1.2873
3590.00,1.2988
3589.00,1.3116
3588.00,1.3261
3587.00,1.3422
3586.00,1.3593
3585.00,1.3765
3584.00,1.3937
3583.00,1.4110
3582.00,1.4289
3581.00,1.4475
3580.00,1.4666
3579.00,1.4861
3578.00,1.5057
3577.00,1.5256
3576.00,1.5454
3575.00,1.5650
3574.00,1.5842
3573.00,1.6030
3572.00,1.6215
3571.00,1.6393
3570.00,1.6563
3569.00,1.6731
3568.00,1.6900
3567.00,1.7072
3566.00,1.7243
3565.00,1.7408
3564.00,1.7564
3563.00,1.7710
3562.00,1.7847
3561.00,1.7982
3560.00,1.8115
3559.00,1.8245
3558.00,1.8368
3557.00,1.8483
3556.00,1.8590
3555.00,1.8690
3554.00,1.8785
3553.00,1.8876
3552.00,1.8966
3551.00,1.9051
3550.00,1.9131
3549.00,1.9205
3548.00,1.9275
3547.00,1.9341
3546.00,1.9405
3545.00,1.9467
3544.00,1.9522
3543.00,1.9568
3542.00,1.9607
3541.00,1.9644
3540.00,1.9682
3539.00,1.9717
3538.00,1.9745
3537.00,1.9770
3536.00,1.9792
3535.00,1.9810
3534.00,1.9822
3533.00,1.9830
3532.00,1.9836
3531.00,1.9837
3530.00,1.9833
3529.00,1.9827
3528.00,1.9820
3527.00,1.9809
3526.00,1.9792
3525.00,1.9767
3524.00,1.9734
3523.00,1.9697
3522.00,1.9660
3521.00,1.9625
3520.00,1.9589
3519.00,1.9545
3518.00,1.9493
3517.00,1.9435
3516.00,1.9372
3515.00,1.9303
3514.00,1.9230
3513.00,1.9157
3512.00,1.9084
3511.00,1.9006
3510.00,1.8919
3509.00,1.8823
3508.00,1.8718
3507.00,1.8605
3506.00,1.8487
3505.00,1.8367
3504.00,1.8245
3503.00,1.8120
3502.00,1.7989
3501.00,1.7851
3500.00,1.7706
3499.00,1.7552
3498.00,1.7391
3497.00,1.7222
3496.00,1.7047
3495.00,1.6864
3494.00,1.6675
3493.00,1.6480
3492.00,1.6280
3491.00,1.6073
3490.00,1.5859
3489.00,1.5637
3488.00,1.5408
3487.00,1.5172
3486.00,1.4930
3485.00,1.4684
3484.00,1.4432
3483.00,1.4175
3482.00,1.3915
3481.00,1.3653
3480.00,1.3391
3479.00,1.3130
3478.00,1.2872
3477.00,1.2619
3476.00,1.2373
3475.00,1.2137
3474.00,1.1910
3473.00,1.1694
3472.00,1.1491
3471.00,1.1303
3470.00,1.1133
3469.00,1.0981
3468.00,1.0849
3467.00,1.0740
3466.00,1.0654
3465.00,1.0593
3464.00,1.0556
3463.00,1.0544
3462.00,1.0556
3461.00,1.0592
3460.00,1.0652
3459.00,1.0734
3458.00,1.0837
3457.00,1.0961
3456.00,1.1103
3455.00,1.1264
3454.00,1.1440
3453.00,1.1629
3452.00,1.1829
3451.00,1.2039
3450.00,1.2257
3449.00,1.2482
3448.00,1.2715
3447.00,1.2953
3446.00,1.3196
3445.00,1.3440
3444.00,1.3684
3443.00,1.3927
3442.00,1.4170
3441.00,1.4412
3440.00,1.4654
3439.00,1.4893
3438.00,1.5130
3437.00,1.5366
3436.00,1.5598
3435.00,1.5827
3434.00,1.6052
3433.00,1.6273
3432.00,1.6490
3431.00,1.6701
3430.00,1.6905
3429.00,1.7104
3428.00,1.7295
3427.00,1.7478
3426.00,1.7652
3425.00,1.7823
3424.00,1.7992
3423.00,1.8156
3422.00,1.8311
3421.00,1.8454
3420.00,1.8587
3419.00,1.8711
3418.00,1.8832
3417.00,1.8949
3416.00,1.9061
3415.00,1.9167
3414.00,1.9266
3413.00,1.9360
3412.00,1.9450
3411.00,1.9539
3410.00,1.9626
3409.00,1.9707
3408.00,1.9777
3407.00,1.9835
3406.00,1.9884
3405.00,1.9933
3404.00,1.9986
3403.00,2.0039
3402.00,2.0088
3401.00,2.0129
3400.00,2.0160
3399.00,2.0184
3398.00,2.0206
3397.00,2.0228
3396.00,2.0247
3395.00,2.0259
3394.00,2.0267
3393.00,2.0270
3392.00,2.0266
3391.00,2.0250
3390.00,2.0225
3389.00,2.0198
3388.00,2.0174
3387.00,2.0148
3386.00,2.0119
3385.00,2.0087
3384.00,2.0053
3383.00,2.0014
3382.00,1.9968
3381.00,1.9915
3380.00,1.9856
3379.00,1.9791
3378.00,1.9721
3377.00,1.9647
3376.00,1.9567
3375.00,1.9480
3374.00,1.9389
3373.00,1.9296
3372.00,1.9201
3371.00,1.9099
3370.00,1.8989
3369.00,1.8871
3368.00,1.8748
3367.00,1.8618
3366.00,1.8481
3365.00,1.8337
3364.00,1.8184
3363.00,1.8020
3362.00,1.7849
3361.00,1.7673
3360.00,1.7493
3359.00,1.7308
3358.00,1.7115
3357.00,1.6913
3356.00,1.6702
3355.00,1.6482
3354.00,1.6253
3353.00,1.6017
3352.00,1.5776
3351.00,1.5529
3350.00,1.5275
3349.00,1.5014
3348.00,1.4744
3347.00,1.4466
3346.00,1.4183
3345.00,1.3899
3344.00,1.3617
3343.00,1.3336
3342.00,1.3058
3341.00,1.2784
3340.00,1.2516
3339.00,1.2256
3338.00,1.2007
3337.00,1.1772
3336.00,1.1553
3335.00,1.1352
3334.00,1.1171
3333.00,1.1013
3332.00,1.0880
3331.00,1.0772
3330.00,1.0691
3329.00,1.0636
3328.00,1.0609
3327.00,1.0607
3326.00,1.0631
3325.00,1.0677
3324.00,1.0746
3323.00,1.0836
3322.00,1.0945
3321.00,1.1075
3320.00,1.1223
3319.00,1.1389
3318.00,1.1571
3317.00,1.1767
3316.00,1.1977
3315.00,1.2199
3314.00,1.2432
3313.00,1.2674
3312.00,1.2924
3311.00,1.3178
3310.00,1.3437
3309.00,1.3698
3308.00,1.3961
3307.00,1.4223
3306.00,1.4484
3305.00,1.4745
3304.00,1.5004
3303.00,1.5259
3302.00,1.5509
3301.00,1.5756
3300.00,1.5999
3299.00,1.6238
3298.00,1.6474
3297.00,1.6704
3296.00,1.6928
3295.00,1.7144
3294.00,1.7352
3293.00,1.7555
3292.00,1.7752
3291.00,1.7942
3290.00,1.8125
3289.00,1.8302
3288.00,1.8471
3287.00,1.8632
3286.00,1.8783
3285.00,1.8927
3284.00,1.9069
3283.00,1.9208
3282.00,1.9341
3281.00,1.9467
3280.00,1.9585
3279.00,1.9695
3278.00,1.9799
3277.00,1.9897
3276.00,1.9991
3275.00,2.0078
3274.00,2.0161
3273.00,2.0238
3272.00,2.0311
3271.00,2.0380
3270.00,2.0445
3269.00,2.0510
3268.00,2.0574
3267.00,2.0631
3266.00,2.0680
3265.00,2.0718
3264.00,2.0748
3263.00,2.0770
3262.00,2.0785
3261.00,2.0799
3260.00,2.0814
3259.00,2.0830
3258.00,2.0846
3257.00,2.0859
3256.00,2.0866
3255.00,2.0861
3254.00,2.0847
3253.00,2.0827
3252.00,2.0805
3251.00,2.0782
3250.00,2.0757
3249.00,2.0727
3248.00,2.0688
3247.00,2.0639
3246.00,2.0584
3245.00,2.0528
3244.00,2.0472
3243.00,2.0415
3242.00,2.0357
3241.00,2.0296
3240.00,2.0226
3239.00,2.0145
3238.00,2.0055
3237.00,1.9961
3236.00,1.9867
3235.00,1.9768
3234.00,1.9659
3233.00,1.9542
3232.00,1.9417
3231.00,1.9286
3230.00,1.9152
3229.00,1.9013
3228.00,1.8869
3227.00,1.8715
3226.00,1.8551
3225.00,1.8378
3224.00,1.8197
3223.00,1.8009
3222.00,1.7814
3221.00,1.7613
3220.00,1.7407
3219.00,1.7193
3218.00,1.6972
3217.00,1.6743
3216.00,1.6507
3215.00,1.6265
3214.00,1.6019
3213.00,1.5771
3212.00,1.5523
3211.00,1.5277
3210.00,1.5036
3209.00,1.4802
3208.00,1.4579
3207.00,1.4366
3206.00,1.4165
3205.00,1.3977
3204.00,1.3798
3203.00,1.3625
3202.00,1.3452
3201.00,1.3274
3200.00,1.3088
3199.00,1.2892
3198.00,1.2691
3197.00,1.2490
3196.00,1.2299
3195.00,1.2124
3194.00,1.1971
3193.00,1.1847
3192.00,1.1756
3191.00,1.1700
3190.00,1.1681
3189.00,1.1697
3188.00,1.1747
3187.00,1.1830
3186.00,1.1943
3185.00,1.2086
3184.00,1.2257
3183.00,1.2453
3182.00,1.2672
3181.00,1.2911
3180.00,1.3168
3179.00,1.3442
3178.00,1.3731
3177.00,1.4034
3176.00,1.4349
3175.00,1.4673
3174.00,1.5008
3173.00,1.5353
3172.00,1.5705
3171.00,1.6061
3170.00,1.6417
3169.00,1.6770
3168.00,1.7110
3167.00,1.7419
3166.00,1.7673
3165.00,1.7850
3164.00,1.7940
3163.00,1.7955
3162.00,1.7924
3161.00,1.7882
3160.00,1.7858
3159.00,1.7869
3158.00,1.7923
3157.00,1.8018
3156.00,1.8149
3155.00,1.8306
3154.00,1.8482
3153.00,1.8669
3152.00,1.8862
3151.00,1.9053
3150.00,1.9238
3149.00,1.9415
3148.00,1.9582
3147.00,1.9738
3146.00,1.9884
3145.00,2.0024
3144.00,2.0156
3143.00,2.0280
3142.00,2.0397
3141.00,2.0511
3140.00,2.0621
3139.00,2.0725
3138.00,2.0821
3137.00,2.0911
3136.00,2.0997
3135.00,2.1079
3134.00,2.1156
3133.00,2.1227
3132.00,2.1290
3131.00,2.1344
3130.00,2.1394
3129.00,2.1445
3128.00,2.1496
3127.00,2.1542
3126.00,2.1578
3125.00,2.1602
3124.00,2.1619
3123.00,2.1633
3122.00,2.1648
3121.00,2.1664
3120.00,2.1678
3119.00,2.1689
3118.00,2.1693
3117.00,2.1688
3116.00,2.1671
3115.00,2.1644
3114.00,2.1616
3113.00,2.1590
3112.00,2.1561
3111.00,2.1523
3110.00,2.1475
3109.00,2.1428
3108.00,2.1386
3107.00,2.1344
3106.00,2.1297
3105.00,2.1239
3104.00,2.1170
3103.00,2.1091
3102.00,2.1008
3101.00,2.0923
3100.00,2.0836
3099.00,2.0744
3098.00,2.0651
3097.00,2.0555
3096.00,2.0451
3095.00,2.0336
3094.00,2.0212
3093.00,2.0082
3092.00,1.9944
3091.00,1.9798
3090.00,1.9648
3089.00,1.9497
3088.00,1.9344
3087.00,1.9184
3086.00,1.9014
3085.00,1.8834
3084.00,1.8646
3083.00,1.8452
3082.00,1.8252
3081.00,1.8047
3080.00,1.7837
3079.00,1.7618
3078.00,1.7392
3077.00,1.7160
3076.00,1.6924
3075.00,1.6684
3074.00,1.6442
3073.00,1.6199
3072.00,1.5956
3071.00,1.5712
3070.00,1.5471
3069.00,1.5236
3068.00,1.5006
3067.00,1.4785
3066.00,1.4573
3065.00,1.4373
3064.00,1.4187
3063.00,1.4015
3062.00,1.3861
3061.00,1.3727
3060.00,1.3615
3059.00,1.3527
3058.00,1.3463
3057.00,1.3423
3056.00,1.3406
3055.00,1.3412
3054.00,1.3443
3053.00,1.3498
3052.00,1.3576
3051.00,1.3678
3050.00,1.3800
3049.00,1.3944
3048.00,1.4106
3047.00,1.4284
3046.00,1.4476
3045.00,1.4681
3044.00,1.4900
3043.00,1.5130
3042.00,1.5371
3041.00,1.5619
3040.00,1.5872
3039.00,1.6128
3038.00,1.6386
3037.00,1.6645
3036.00,1.6907
3035.00,1.7170
3034.00,1.7431
3033.00,1.7687
3032.00,1.7937
3031.00,1.8181
3030.00,1.8422
3029.00,1.8662
3028.00,1.8901
3027.00,1.9136
3026.00,1.9366
3025.00,1.9590
3024.00,1.9809
3023.00,2.0018
3022.00,2.0217
3021.00,2.0408
3020.00,2.0594
3019.00,2.0776
3018.00,2.0951
3017.00,2.1119
3016.00,2.1282
3015.00,2.1441
3014.00,2.1596
3013.00,2.1748
3012.00,2.1897
3011.00,2.2040
3010.00,2.2172
3009.00,2.2288
3008.00,2.2387
3007.00,2.2475
3006.00,2.2558
3005.00,2.2641
3004.00,2.2720
3003.00,2.2790
3002.00,2.2846
3001.00,2.2888
3000.00,2.2915
2999.00,2.2933
2998.00,2.2949
2997.00,2.2970
2996.00,2.2997
2995.00,2.3020
2994.00,2.3036
2993.00,2.3046
2992.00,2.3049
2991.00,2.3049
2990.00,2.3052
2989.00,2.3063
2988.00,2.3081
2987.00,2.3099
2986.00,2.3109
2985.00,2.3110
2984.00,2.3109
2983.00,2.3111
2982.00,2.3118
2981.00,2.3125
2980.00,2.3127
2979.00,2.3119
2978.00,2.3103
2977.00,2.3085
2976.00,2.3070
2975.00,2.3060
2974.00,2.3056
2973.00,2.3057
2972.00,2.3056
2971.00,2.3051
2970.00,2.3046
2969.00,2.3046
2968.00,2.3055
2967.00,2.3072
2966.00,2.3095
2965.00,2.3122
2964.00,2.3146
2963.00,2.3165
2962.00,2.3183
2961.00,2.3207
2960.00,2.3236
2959.00,2.3265
2958.00,2.3293
2957.00,2.3331
2956.00,2.3382
2955.00,2.3445
2954.00,2.3521
2953.00,2.3616
2952.00,2.3737
2951.00,2.3885
2950.00,2.4056
2949.00,2.4245
2948.00,2.4450
2947.00,2.4665
2946.00,2.4878
2945.00,2.5066
2944.00,2.5203
2943.00,2.5269
2942.00,2.5260
2941.00,2.5179
2940.00,2.5034
2939.00,2.4835
2938.00,2.4604
2937.00,2.4366
2936.00,2.4136
2935.00,2.3915
2934.00,2.3698
2933.00,2.3480
2932.00,2.3257
2931.00,2.3031
2930.00,2.2807
2929.00,2.2585
2928.00,2.2359
2927.00,2.2123
2926.00,2.1877
2925.00,2.1626
2924.00,2.1373
2923.00,2.1118
2922.00,2.0859
2921.00,2.0592
2920.00,2.0316
2919.00,2.0032
2918.00,1.9743
2917.00,1.9450
2916.00,1.9157
2915.00,1.8865
2914.00,1.8580
2913.00,1.8303
2912.00,1.8034
2911.00,1.7772
2910.00,1.7517
2909.00,1.7271
2908.00,1.7034
2907.00,1.6807
2906.00,1.6592
2905.00,1.6391
2904.00,1.6207
2903.00,1.6045
2902.00,1.5904
2901.00,1.5785
2900.00,1.5688
2899.00,1.5614
2898.00,1.5565
2897.00,1.5544
2896.00,1.5552
2895.00,1.5589
2894.00,1.5654
2893.00,1.5747
2892.00,1.5870
2891.00,1.6020
2890.00,1.6197
2889.00,1.6399
2888.00,1.6624
2887.00,1.6866
2886.00,1.7123
2885.00,1.7392
2884.00,1.7669
2883.00,1.7951
2882.00,1.8237
2881.00,1.8526
2880.00,1.8817
2879.00,1.9107
2878.00,1.9390
2877.00,1.9664
2876.00,1.9928
2875.00,2.0180
2874.00,2.0417
2873.00,2.0635
2872.00,2.0829
2871.00,2.0997
2870.00,2.1138
2869.00,2.1255
2868.00,2.1347
2867.00,2.1416
2866.00,2.1465
2865.00,2.1501
2864.00,2.1531
2863.00,2.1555
2862.00,2.1576
2861.00,2.1598
2860.00,2.1623
2859.00,2.1655
2858.00,2.1696
2857.00,2.1747
2856.00,2.1807
2855.00,2.1872
2854.00,2.1941
2853.00,2.2022
2852.00,2.2119
2851.00,2.2229
2850.00,2.2345
2849.00,2.2460
2848.00,2.2568
2847.00,2.2668
2846.00,2.2760
2845.00,2.2846
2844.00,2.2922
2843.00,2.2989
2842.00,2.3046
2841.00,2.3100
2840.00,2.3155
2839.00,2.3213
2838.00,2.3274
2837.00,2.3332
2836.00,2.3381
2835.00,2.3415
2834.00,2.3431
2833.00,2.3434
2832.00,2.3433
2831.00,2.3437
2830.00,2.3449
2829.00,2.3463
2828.00,2.3471
2827.00,2.3466
2826.00,2.3452
2825.00,2.3431
2824.00,2.3410
2823.00,2.3386
2822.00,2.3359
2821.00,2.3325
2820.00,2.3283
2819.00,2.3232
2818.00,2.3176
2817.00,2.3117
2816.00,2.3054
2815.00,2.2984
2814.00,2.2905
2813.00,2.2817
2812.00,2.2720
2811.00,2.2618
2810.00,2.2515
2809.00,2.2413
2808.00,2.2309
2807.00,2.2198
2806.00,2.2079
2805.00,2.1949
2804.00,2.1806
2803.00,2.1651
2802.00,2.1490
2801.00,2.1325
2800.00,2.1152
2799.00,2.0971
2798.00,2.0781
2797.00,2.0581
2796.00,2.0368
2795.00,2.0142
2794.00,1.9906
2793.00,1.9662
2792.00,1.9405
2791.00,1.9133
2790.00,1.8848
2789.00,1.8549
2788.00,1.8235
2787.00,1.7904
2786.00,1.7558
2785.00,1.7200
2784.00,1.6829
2783.00,1.6446
2782.00,1.6049
2781.00,1.5642
2780.00,1.5229
2779.00,1.4813
2778.00,1.4395
2777.00,1.3982
2776.00,1.3578
2775.00,1.3188
2774.00,1.2818
2773.00,1.2475
2772.00,1.2164
2771.00,1.1888
2770.00,1.1653
2769.00,1.1462
2768.00,1.1319
2767.00,1.1226
2766.00,1.1184
2765.00,1.1194
2764.00,1.1254
2763.00,1.1363
2762.00,1.1516
2761.00,1.1711
2760.00,1.1943
2759.00,1.2208
2758.00,1.2502
2757.00,1.2818
2756.00,1.3154
2755.00,1.3504
2754.00,1.3866
2753.00,1.4236
2752.00,1.4611
2751.00,1.4987
2750.00,1.5363
2749.00,1.5736
2748.00,1.6104
2747.00,1.6468
2746.00,1.6827
2745.00,1.7183
2744.00,1.7537
2743.00,1.7887
2742.00,1.8229
2741.00,1.8561
2740.00,1.8877
2739.00,1.9178
2738.00,1.9466
2737.00,1.9745
2736.00,2.0015
2735.00,2.0273
2734.00,2.0518
2733.00,2.0752
2732.00,2.0976
2731.00,2.1191
2730.00,2.1398
2729.00,2.1599
2728.00,2.1790
2727.00,2.1967
2726.00,2.2130
2725.00,2.2284
2724.00,2.2429
2723.00,2.2566
2722.00,2.2698
2721.00,2.2829
2720.00,2.2954
2719.00,2.3067
2718.00,2.3171
2717.00,2.3275
2716.00,2.3376
2715.00,2.3469
2714.00,2.3551
2713.00,2.3627
2712.00,2.3702
2711.00,2.3776
2710.00,2.3851
2709.00,2.3928
2708.00,2.3999
2707.00,2.4053
2706.00,2.4088
2705.00,2.4117
2704.00,2.4153
2703.00,2.4193
2702.00,2.4229
2701.00,2.4259
2700.00,2.4285
2699.00,2.4306
2698.00,2.4317
2697.00,2.4314
2696.00,2.4300
2695.00,2.4282
2694.00,2.4268
2693.00,2.4258
2692.00,2.4244
2691.00,2.4219
2690.00,2.4183
2689.00,2.4141
2688.00,2.4095
2687.00,2.4046
2686.00,2.3995
2685.00,2.3942
2684.00,2.3887
2683.00,2.3824
2682.00,2.3754
2681.00,2.3682
2680.00,2.3612
2679.00,2.3539
2678.00,2.3460
2677.00,2.3369
2676.00,2.3263
2675.00,2.3144
2674.00,2.3020
2673.00,2.2902
2672.00,2.2791
2671.00,2.2679
2670.00,2.2554
2669.00,2.2408
2668.00,2.2239
2667.00,2.2054
2666.00,2.1864
2665.00,2.1675
2664.00,2.1484
2663.00,2.1280
2662.00,2.1061
2661.00,2.0828
2660.00,2.0584
2659.00,2.0329
2658.00,2.0065
2657.00,1.9789
2656.00,1.9498
2655.00,1.9192
2654.00,1.8867
2653.00,1.8523
2652.00,1.8162
2651.00,1.7783
2650.00,1.7386
2649.00,1.6972
2648.00,1.6542
2647.00,1.6098
2646.00,1.5645
2645.00,1.5185
2644.00,1.4724
2643.00,1.4269
2642.00,1.3825
2641.00,1.3404
2640.00,1.3014
2639.00,1.2664
2638.00,1.2365
2637.00,1.2127
2636.00,1.1958
2635.00,1.1867
2634.00,1.1861
2633.00,1.1943
2632.00,1.2107
2631.00,1.2336
2630.00,1.2600
2629.00,1.2863
2628.00,1.3090
2627.00,1.3262
2626.00,1.3389
2625.00,1.3496
2624.00,1.3612
2623.00,1.3756
2622.00,1.3938
2621.00,1.4159
2620.00,1.4415
2619.00,1.4702
2618.00,1.5012
2617.00,1.5341
2616.00,1.5683
2615.00,1.6034
2614.00,1.6392
2613.00,1.6756
2612.00,1.7123
2611.00,1.7490
2610.00,1.7855
2609.00,1.8217
2608.00,1.8575
2607.00,1.8925
2606.00,1.9265
2605.00,1.9593
2604.00,1.9910
2603.00,2.0215
2602.00,2.0508
2601.00,2.0789
2600.00,2.1058
2599.00,2.1312
2598.00,2.1555
2597.00,2.1792
2596.00,2.2023
2595.00,2.2244
2594.00,2.2449
2593.00,2.2642
2592.00,2.2824
2591.00,2.2994
2590.00,2.3152
2589.00,2.3297
2588.00,2.3432
2587.00,2.3563
2586.00,2.3696
2585.00,2.3836
2584.00,2.3975
2583.00,2.4099
2582.00,2.4203
2581.00,2.4300
2580.00,2.4397
2579.00,2.4490
2578.00,2.4573
2577.00,2.4649
2576.00,2.4724
2575.00,2.4796
2574.00,2.4858
2573.00,2.4911
2572.00,2.4963
2571.00,2.5016
2570.00,2.5064
2569.00,2.5100
2568.00,2.5125
2567.00,2.5145
2566.00,2.5167
2565.00,2.5194
2564.00,2.5220
2563.00,2.5239
2562.00,2.5250
2561.00,2.5256
2560.00,2.5257
2559.00,2.5251
2558.00,2.5240
2557.00,2.5229
2556.00,2.5221
2555.00,2.5209
2554.00,2.5185
2553.00,2.5146
2552.00,2.5094
2551.00,2.5035
2550.00,2.4978
2549.00,2.4928
2548.00,2.4878
2547.00,2.4820
2546.00,2.4753
2545.00,2.4683
2544.00,2.4613
2543.00,2.4536
2542.00,2.4446
2541.00,2.4341
2540.00,2.4224
2539.00,2.4101
2538.00,2.3976
2537.00,2.3853
2536.00,2.3729
2535.00,2.3597
2534.00,2.3456
2533.00,2.3305
2532.00,2.3148
2531.00,2.2980
2530.00,2.2800
2529.00,2.2606
2528.00,2.2404
2527.00,2.2194
2526.00,2.1978
2525.00,2.1752
2524.00,2.1514
2523.00,2.1259
2522.00,2.0985
2521.00,2.0695
2520.00,2.0393
2519.00,2.0080
2518.00,1.9753
2517.00,1.9408
2516.00,1.9044
2515.00,1.8660
2514.00,1.8260
2513.00,1.7843
2512.00,1.7410
2511.00,1.6962
2510.00,1.6500
2509.00,1.6030
2508.00,1.5556
2507.00,1.5084
2506.00,1.4623
2505.00,1.4178
2504.00,1.3757
2503.00,1.3366
2502.00,1.3010
2501.00,1.2698
2500.00,1.2436
2499.00,1.2228
2498.00,1.2080
2497.00,1.1993
2496.00,1.1970
2495.00,1.2009
2494.00,1.2110
2493.00,1.2269
2492.00,1.2480
2491.00,1.2738
2490.00,1.3035
2489.00,1.3366
2488.00,1.3724
2487.00,1.4102
2486.00,1.4495
2485.00,1.4898
2484.00,1.5308
2483.00,1.5722
2482.00,1.6136
2481.00,1.6550
2480.00,1.6961
2479.00,1.7367
2478.00,1.7768
2477.00,1.8163
2476.00,1.8551
2475.00,1.8931
2474.00,1.9305
2473.00,1.9670
2472.00,2.0023
2471.00,2.0359
2470.00,2.0683
2469.00,2.0998
2468.00,2.1303
2467.00,2.1592
2466.00,2.1862
2465.00,2.2115
2464.00,2.2354
2463.00,2.2582
2462.00,2.2799
2461.00,2.3010
2460.00,2.3219
2459.00,2.3426
2458.00,2.3631
2457.00,2.3831
2456.00,2.4019
2455.00,2.4187
2454.00,2.4334
2453.00,2.4473
2452.00,2.4615
2451.00,2.4757
2450.00,2.4888
2449.00,2.5001
2448.00,2.5103
2447.00,2.5208
2446.00,2.5320
2445.00,2.5427
2444.00,2.5517
2443.00,2.5591
2442.00,2.5663
2441.00,2.5741
2440.00,2.5816
2439.00,2.5875
2438.00,2.5919
2437.00,2.5962
2436.00,2.6015
2435.00,2.6070
2434.00,2.6116
2433.00,2.6149
2432.00,2.6175
2431.00,2.6202
2430.00,2.6236
2429.00,2.6272
2428.00,2.6299
2427.00,2.6316
2426.00,2.6331
2425.00,2.6347
2424.00,2.6351
2423.00,2.6333
2422.00,2.6298
2421.00,2.6265
2420.00,2.6239
2419.00,2.6216
2418.00,2.6190
2417.00,2.6167
2416.00,2.6150
2415.00,2.6129
2414.00,2.6093
2413.00,2.6043
2412.00,2.5989
2411.00,2.5936
2410.00,2.5877
2409.00,2.5806
2408.00,2.5723
2407.00,2.5635
2406.00,2.5552
2405.00,2.5473
2404.00,2.5388
2403.00,2.5292
2402.00,2.5185
2401.00,2.5065
2400.00,2.4930
2399.00,2.4786
2398.00,2.4642
2397.00,2.4501
2396.00,2.4354
2395.00,2.4187
2394.00,2.4004
2393.00,2.3817
2392.00,2.3634
2391.00,2.3459
2390.00,2.3298
2389.00,2.3164
2388.00,2.3075
2387.00,2.3051
2386.00,2.3117
2385.00,2.3295
2384.00,2.3594
2383.00,2.4004
2382.00,2.4494
2381.00,2.5019
2380.00,2.5519
2379.00,2.5943
2378.00,2.6259
2377.00,2.6460
2376.00,2.6555
2375.00,2.6565
2374.00,2.6535
2373.00,2.6520
2372.00,2.6548
2371.00,2.6613
2370.00,2.6724
2369.00,2.6902
2368.00,2.7117
2367.00,2.7327
2366.00,2.7561
2365.00,2.7803
2364.00,2.8013
2363.00,2.8207
2362.00,2.8349
2361.00,2.8469
2360.00,2.8561
2359.00,2.8585
2358.00,2.8587
2357.00,2.8543
2356.00,2.8476
2355.00,2.8394
2354.00,2.8519
2353.00,2.9042
2352.00,2.9670
2351.00,3.0028
2350.00,2.9994
2349.00,2.9991
2348.00,3.0410
2347.00,3.1078
2346.00,3.1644
2345.00,3.1778
2344.00,3.1652
2343.00,3.1467
2342.00,3.1326
2341.00,3.1244
2340.00,3.1185
2339.00,3.1143
2338.00,3.1129
2337.00,3.1189
2336.00,3.1334
2335.00,3.1538
2334.00,3.1718
2333.00,3.1883
2332.00,3.1910
2331.00,3.1926
2330.00,3.1906
2329.00,3.1925
2328.00,3.1974
2327.00,3.2048
2326.00,3.2216
2325.00,3.2378
2324.00,3.2476
2323.00,3.2389
2322.00,3.2147
2321.00,3.1835
2320.00,3.1537
2319.00,3.1336
2318.00,3.1223
2317.00,3.1218
2316.00,3.1246
2315.00,3.1281
2314.00,3.1246
2313.00,3.1146
2312.00,3.0964
2311.00,3.0732
2310.00,3.0463
2309.00,3.0195
2308.00,2.9945
2307.00,2.9728
2306.00,2.9551
2305.00,2.9419
2304.00,2.9317
2303.00,2.9243
2302.00,2.9186
2301.00,2.9161
2300.00,2.9167
2299.00,2.9214
2298.00,2.9284
2297.00,2.9357
2296.00,2.9401
2295.00,2.9405
2294.00,2.9385
2293.00,2.9360
2292.00,2.9320
2291.00,2.9219
2290.00,2.9033
2289.00,2.8782
2288.00,2.8524
2287.00,2.8305
2286.00,2.8149
2285.00,2.8046
2284.00,2.7979
2283.00,2.7933
2282.00,2.7899
2281.00,2.7866
2280.00,2.7819
2279.00,2.7748
2278.00,2.7659
2277.00,2.7564
2276.00,2.7460
2275.00,2.7335
2274.00,2.7180
2273.00,2.7000
2272.00,2.6795
2271.00,2.6555
2270.00,2.6271
2269.00,2.5941
2268.00,2.5566
2267.00,2.5153
2266.00,2.4709
2265.00,2.4257
2264.00,2.3847
2263.00,2.3542
2262.00,2.3421
2261.00,2.3558
2260.00,2.4024
2259.00,2.4870
2258.00,2.6130
2257.00,2.7818
2256.00,2.9902
2255.00,3.2271
2254.00,3.4606
2253.00,3.6254
2252.00,3.6563
2251.00,3.5748
2250.00,3.4488
2249.00,3.3178
2248.00,3.1972
2247.00,3.0937
2246.00,3.0101
2245.00,2.9445
2244.00,2.8920
2243.00,2.8473
2242.00,2.8072
2241.00,2.7697
2240.00,2.7338
2239.00,2.6988
2238.00,2.6645
2237.00,2.6301
2236.00,2.5941
2235.00,2.5559
2234.00,2.5159
2233.00,2.4752
2232.00,2.4341
2231.00,2.3922
2230.00,2.3489
2229.00,2.3043
2228.00,2.2584
2227.00,2.2108
2226.00,2.1608
2225.00,2.1073
2224.00,2.0501
2223.00,1.9894
2222.00,1.9258
2221.00,1.8604
2220.00,1.7938
2219.00,1.7272
2218.00,1.6619
2217.00,1.5995
2216.00,1.5416
2215.00,1.4899
2214.00,1.4458
2213.00,1.4108
2212.00,1.3863
2211.00,1.3732
2210.00,1.3720
2209.00,1.3828
2208.00,1.4053
2207.00,1.4379
2206.00,1.4782
2205.00,1.5224
2204.00,1.5665
2203.00,1.6075
2202.00,1.6453
2201.00,1.6817
2200.00,1.7191
2199.00,1.7588
2198.00,1.8008
2197.00,1.8446
2196.00,1.8895
2195.00,1.9352
2194.00,1.9813
2193.00,2.0275
2192.00,2.0732
2191.00,2.1177
2190.00,2.1603
2189.00,2.2010
2188.00,2.2398
2187.00,2.2767
2186.00,2.3114
2185.00,2.3441
2184.00,2.3749
2183.00,2.4041
2182.00,2.4317
2181.00,2.4578
2180.00,2.4824
2179.00,2.5060
2178.00,2.5288
2177.00,2.5507
2176.00,2.5713
2175.00,2.5901
2174.00,2.6077
2173.00,2.6247
2172.00,2.6414
2171.00,2.6570
2170.00,2.6707
2169.00,2.6832
2168.00,2.6958
2167.00,2.7092
2166.00,2.7228
2165.00,2.7355
2164.00,2.7466
2163.00,2.7557
2162.00,2.7627
2161.00,2.7679
2160.00,2.7726
2159.00,2.7785
2158.00,2.7865
2157.00,2.7955
2156.00,2.8035
2155.00,2.8094
2154.00,2.8135
2153.00,2.8164
2152.00,2.8188
2151.00,2.8217
2150.00,2.8261
2149.00,2.8314
2148.00,2.8358
2147.00,2.8373
2146.00,2.8351
2145.00,2.8306
2144.00,2.8259
2143.00,2.8233
2142.00,2.8237
2141.00,2.8256
2140.00,2.8270
2139.00,2.8265
2138.00,2.8244
2137.00,2.8212
2136.00,2.8173
2135.00,2.8135
2134.00,2.8100
2133.00,2.8061
2132.00,2.8005
2131.00,2.7929
2130.00,2.7851
2129.00,2.7781
2128.00,2.7714
2127.00,2.7638
2126.00,2.7550
2125.00,2.7455
2124.00,2.7354
2123.00,2.7245
2122.00,2.7123
2121.00,2.6980
2120.00,2.6817
2119.00,2.6648
2118.00,2.6484
2117.00,2.6323
2116.00,2.6152
2115.00,2.5973
2114.00,2.5797
2113.00,2.5626
2112.00,2.5448
2111.00,2.5250
2110.00,2.5036
2109.00,2.4810
2108.00,2.4571
2107.00,2.4316
2106.00,2.4047
2105.00,2.3767
2104.00,2.3469
2103.00,2.3146
2102.00,2.2800
2101.00,2.2437
2100.00,2.2059
2099.00,2.1659
2098.00,2.1234
2097.00,2.0785
2096.00,2.0312
2095.00,1.9814
2094.00,1.9291
2093.00,1.8746
2092.00,1.8187
2091.00,1.7618
2090.00,1.7048
2089.00,1.6487
2088.00,1.5945
2087.00,1.5436
2086.00,1.4974
2085.00,1.4570
2084.00,1.4234
2083.00,1.3976
2082.00,1.3802
2081.00,1.3720
2080.00,1.3730
2079.00,1.3832
2078.00,1.4019
2077.00,1.4283
2076.00,1.4615
2075.00,1.5001
2074.00,1.5429
2073.00,1.5884
2072.00,1.6355
2071.00,1.6831
2070.00,1.7307
2069.00,1.7781
2068.00,1.8250
2067.00,1.8713
2066.00,1.9168
2065.00,1.9615
2064.00,2.0052
2063.00,2.0481
2062.00,2.0904
2061.00,2.1323
2060.00,2.1740
2059.00,2.2148
2058.00,2.2545
2057.00,2.2925
2056.00,2.3288
2055.00,2.3634
2054.00,2.3967
2053.00,2.4288
2052.00,2.4594
2051.00,2.4878
2050.00,2.5139
2049.00,2.5384
2048.00,2.5621
2047.00,2.5850
2046.00,2.6070
2045.00,2.6280
2044.00,2.6478
2043.00,2.6662
2042.00,2.6831
2041.00,2.6994
2040.00,2.7155
2039.00,2.7316
2038.00,2.7474
2037.00,2.7622
2036.00,2.7758
2035.00,2.7884
2034.00,2.8011
2033.00,2.8141
2032.00,2.8266
2031.00,2.8378
2030.00,2.8483
2029.00,2.8586
2028.00,2.8681
2027.00,2.8757
2026.00,2.8818
2025.00,2.8885
2024.00,2.8963
2023.00,2.9039
2022.00,2.9106
2021.00,2.9163
2020.00,2.9215
2019.00,2.9265
2018.00,2.9321
2017.00,2.9375
2016.00,2.9399
2015.00,2.9369
2014.00,2.9306
2013.00,2.9258
2012.00,2.9253
2011.00,2.9276
2010.00,2.9307
2009.00,2.9339
2008.00,2.9368
2007.00,2.9379
2006.00,2.9356
2005.00,2.9310
2004.00,2.9264
2003.00,2.9236
2002.00,2.9225
2001.00,2.9217
2000.00,2.9190
1999.00,2.9137
1998.00,2.9069
1997.00,2.8995
1996.00,2.8913
1995.00,2.8827
1994.00,2.8757
1993.00,2.8709
1992.00,2.8649
1991.00,2.8541
1990.00,2.8395
1989.00,2.8255
1988.00,2.8144
1987.00,2.8041
1986.00,2.7926
1985.00,2.7808
1984.00,2.7698
1983.00,2.7591
1982.00,2.7469
1981.00,2.7330
1980.00,2.7179
1979.00,2.7020
1978.00,2.6849
1977.00,2.6661
1976.00,2.6450
1975.00,2.6218
1974.00,2.5978
1973.00,2.5738
1972.00,2.5493
1971.00,2.5230
1970.00,2.4951
1969.00,2.4661
1968.00,2.4357
1967.00,2.4024
1966.00,2.3660
1965.00,2.3279
1964.00,2.2893
1963.00,2.2495
1962.00,2.2071
1961.00,2.1612
1960.00,2.1120
1959.00,2.0596
1958.00,2.0047
1957.00,1.9476
1956.00,1.8888
1955.00,1.8290
1954.00,1.7693
1953.00,1.7111
1952.00,1.6555
1951.00,1.6033
1950.00,1.5558
1949.00,1.5146
1948.00,1.4810
1947.00,1.4558
1946.00,1.4395
1945.00,1.4328
1944.00,1.4355
1943.00,1.4462
1942.00,1.4639
1941.00,1.4891
1940.00,1.5233
1939.00,1.5664
1938.00,1.6159
1937.00,1.6684
1936.00,1.7215
1935.00,1.7753
1934.00,1.8298
1933.00,1.8847
1932.00,1.9389
1931.00,1.9924
1930.00,2.0451
1929.00,2.0970
1928.00,2.1477
1927.00,2.1970
1926.00,2.2447
1925.00,2.2905
1924.00,2.3336
1923.00,2.3733
1922.00,2.4099
1921.00,2.4451
1920.00,2.4809
1919.00,2.5167
1918.00,2.5488
1917.00,2.5747
1916.00,2.5969
1915.00,2.6212
1914.00,2.6494
1913.00,2.6783
1912.00,2.7041
1911.00,2.7268
1910.00,2.7484
1909.00,2.7690
1908.00,2.7870
1907.00,2.8021
1906.00,2.8171
1905.00,2.8342
1904.00,2.8533
1903.00,2.8718
1902.00,2.8870
1901.00,2.8983
1900.00,2.9069
1899.00,2.9154
1898.00,2.9262
1897.00,2.9398
1896.00,2.9549
1895.00,2.9696
1894.00,2.9821
1893.00,2.9901
1892.00,2.9932
1891.00,2.9939
1890.00,2.9960
1889.00,3.0007
1888.00,3.0071
1887.00,3.0145
1886.00,3.0235
1885.00,3.0331
1884.00,3.0396
1883.00,3.0412
1882.00,3.0406
1881.00,3.0419
1880.00,3.0456
1879.00,3.0494
1878.00,3.0521
1877.00,3.0534
1876.00,3.0528
1875.00,3.0500
1874.00,3.0465
1873.00,3.0448
1872.00,3.0458
1871.00,3.0470
1870.00,3.0453
1869.00,3.0399
1868.00,3.0333
1867.00,3.0286
1866.00,3.0260
1865.00,3.0229
1864.00,3.0172
1863.00,3.0086
1862.00,2.9987
1861.00,2.9897
1860.00,2.9815
1859.00,2.9731
1858.00,2.9649
1857.00,2.9589
1856.00,2.9549
1855.00,2.9501
1854.00,2.9413
1853.00,2.9285
1852.00,2.9140
1851.00,2.8997
1850.00,2.8862
1849.00,2.8721
1848.00,2.8563
1847.00,2.8399
1846.00,2.8242
1845.00,2.8075
1844.00,2.7853
1843.00,2.7568
1842.00,2.7284
1841.00,2.7073
1840.00,2.6922
1839.00,2.6759
1838.00,2.6547
1837.00,2.6296
1836.00,2.6032
1835.00,2.5746
1834.00,2.5425
1833.00,2.5081
1832.00,2.4728
1831.00,2.4350
1830.00,2.3924
1829.00,2.3465
1828.00,2.3028
1827.00,2.2627
1826.00,2.2209
1825.00,2.1708
1824.00,2.1119
1823.00,2.0518
1822.00,1.9965
1821.00,1.9452
1820.00,1.8932
1819.00,1.8388
1818.00,1.7843
1817.00,1.7337
1816.00,1.6903
1815.00,1.6567
1814.00,1.6343
1813.00,1.6226
1812.00,1.6199
1811.00,1.6250
1810.00,1.6379
1809.00,1.6588
1808.00,1.6870
1807.00,1.7210
1806.00,1.7593
1805.00,1.8014
1804.00,1.8466
1803.00,1.8933
1802.00,1.9398
1801.00,1.9869
1800.00,2.0371
1799.00,2.0922
1798.00,2.1510
1797.00,2.2102
1796.00,2.2674
1795.00,2.3211
1794.00,2.3711
1793.00,2.4170
1792.00,2.4571
1791.00,2.4925
1790.00,2.5273
1789.00,2.5654
1788.00,2.6068
1787.00,2.6473
1786.00,2.6823
1785.00,2.7104
1784.00,2.7341
1783.00,2.7573
1782.00,2.7824
1781.00,2.8096
1780.00,2.8367
1779.00,2.8637
1778.00,2.8911
1777.00,2.9177
1776.00,2.9410
1775.00,2.9596
1774.00,2.9754
1773.00,2.9896
1772.00,3.0011
1771.00,3.0115
1770.00,3.0240
1769.00,3.0378
1768.00,3.0502
1767.00,3.0602
1766.00,3.0704
1765.00,3.0846
1764.00,3.1001
1763.00,3.1094
1762.00,3.1096
1761.00,3.1054
1760.00,3.1039
1759.00,3.1092
1758.00,3.1189
1757.00,3.1285
1756.00,3.1344
1755.00,3.1375
1754.00,3.1428
1753.00,3.1516
1752.00,3.1601
1751.00,3.1653
1750.00,3.1693
1749.00,3.1757
1748.00,3.1833
1747.00,3.1854
1746.00,3.1800
1745.00,3.1728
1744.00,3.1690
1743.00,3.1698
1742.00,3.1727
1741.00,3.1747
1740.00,3.1733
1739.00,3.1684
1738.00,3.1649
1737.00,3.1666
1736.00,3.1676
1735.00,3.1560
1734.00,3.1291
1733.00,3.1004
1732.00,3.0887
1731.00,3.0928
1730.00,3.0933
1729.00,3.0803
1728.00,3.0614
1727.00,3.0463
1726.00,3.0382
1725.00,3.0351
1724.00,3.0350
1723.00,3.0389
1722.00,3.0478
1721.00,3.0641
1720.00,3.0908
1719.00,3.1317
1718.00,3.1935
1717.00,3.2835
1716.00,3.3995
1715.00,3.5236
1714.00,3.6372
1713.00,3.7356
1712.00,3.8210
1711.00,3.8930
1710.00,3.9439
1709.00,3.9674
1708.00,3.9704
1707.00,3.9677
1706.00,3.9544
1705.00,3.9060
1704.00,3.8183
1703.00,3.7163
1702.00,3.6159
1701.00,3.5132
1700.00,3.4072
1699.00,3.3186
1698.00,3.2792
1697.00,3.2824
1696.00,3.2867
1695.00,3.2695
1694.00,3.2373
1693.00,3.2072
1692.00,3.1828
1691.00,3.1501
1690.00,3.1040
1689.00,3.0541
1688.00,3.0116
1687.00,2.9834
1686.00,2.9671
1685.00,2.9480
1684.00,2.9087
1683.00,2.8510
1682.00,2.7928
1681.00,2.7437
1680.00,2.7048
1679.00,2.6695
1678.00,2.6338
1677.00,2.5940
1676.00,2.5417
1675.00,2.4726
1674.00,2.3983
1673.00,2.3380
1672.00,2.2951
1671.00,2.2537
1670.00,2.1995
1669.00,2.1347
1668.00,2.0709
1667.00,2.0183
1666.00,1.9809
1665.00,1.9554
1664.00,1.9346
1663.00,1.9163
1662.00,1.9057
1661.00,1.9106
1660.00,1.9332
1659.00,1.9697
1658.00,2.0150
1657.00,2.0641
1656.00,2.1137
1655.00,2.1648
1654.00,2.2212
1653.00,2.2844
1652.00,2.3520
1651.00,2.4174
1650.00,2.4793
1649.00,2.5325
1648.00,2.5676
1647.00,2.5979
1646.00,2.6344
1645.00,2.6731
1644.00,2.7082
1643.00,2.7426
1642.00,2.7761
1641.00,2.8071
1640.00,2.8373
1639.00,2.8677
1638.00,2.8972
1637.00,2.9245
1636.00,2.9478
1635.00,2.9651
1634.00,2.9764
1633.00,2.9871
1632.00,3.0064
1631.00,3.0298
1630.00,3.0489
1629.00,3.0626
1628.00,3.0733
1627.00,3.0845
1626.00,3.0988
1625.00,3.1154
1624.00,3.1308
1623.00,3.1414
1622.00,3.1488
1621.00,3.1601
1620.00,3.1805
1619.00,3.2082
1618.00,3.2341
1617.00,3.2480
1616.00,3.2489
1615.00,3.2460
1614.00,3.2458
1613.00,3.2487
1612.00,3.2529
1611.00,3.2591
1610.00,3.2686
1609.00,3.2798
1608.00,3.2889
1607.00,3.2941
1606.00,3.2963
1605.00,3.2969
1604.00,3.2962
1603.00,3.2946
1602.00,3.2929
1601.00,3.2916
1600.00,3.2928
1599.00,3.2993
1598.00,3.3105
1597.00,3.3202
1596.00,3.3218
1595.00,3.3162
1594.00,3.3108
1593.00,3.3098
1592.00,3.3102
1591.00,3.3075
1590.00,3.3010
1589.00,3.2918
1588.00,3.2813
1587.00,3.2719
1586.00,3.2656
1585.00,3.2626
1584.00,3.2611
1583.00,3.2588
1582.00,3.2546
1581.00,3.2481
1580.00,3.2404
1579.00,3.2347
1578.00,3.2340
1577.00,3.2356
1576.00,3.2327
1575.00,3.2205
1574.00,3.2008
1573.00,3.1788
1572.00,3.1561
1571.00,3.1294
1570.00,3.0977
1569.00,3.0666
1568.00,3.0447
1567.00,3.0332
1566.00,3.0260
1565.00,3.0139
1564.00,2.9929
1563.00,2.9679
1562.00,2.9463
1561.00,2.9261
1560.00,2.8971
1559.00,2.8484
1558.00,2.7999
1557.00,2.7717
1556.00,2.7476
1555.00,2.7286
1554.00,2.7033
1553.00,2.6687
1552.00,2.6326
1551.00,2.5977
1550.00,2.5593
1549.00,2.5181
1548.00,2.4821
1547.00,2.4547
1546.00,2.4299
1545.00,2.3994
1544.00,2.3659
1543.00,2.3413
1542.00,2.3310
1541.00,2.3302
1540.00,2.3350
1539.00,2.3444
1538.00,2.3501
1537.00,2.3522
1536.00,2.3604
1535.00,2.3686
1534.00,2.3745
1533.00,2.3829
1532.00,2.4003
1531.00,2.4307
1530.00,2.4721
1529.00,2.5179
1528.00,2.5597
1527.00,2.5944
1526.00,2.6250
1525.00,2.6564
1524.00,2.6913
1523.00,2.7304
1522.00,2.7694
1521.00,2.8017
1520.00,2.8232
1519.00,2.8386
1518.00,2.8578
1517.00,2.8821
1516.00,2.9078
1515.00,2.9327
1514.00,2.9568
1513.00,2.9817
1512.00,3.0058
1511.00,3.0275
1510.00,3.0484
1509.00,3.0698
1508.00,3.0906
1507.00,3.1113
1506.00,3.1357
1505.00,3.1571
1504.00,3.1755
1503.00,3.2064
1502.00,3.2362
1501.00,3.2533
1500.00,3.2613
1499.00,3.2668
1498.00,3.2745
1497.00,3.2841
1496.00,3.2943
1495.00,3.3084
1494.00,3.3310
1493.00,3.3576
1492.00,3.3752
1491.00,3.3767
1490.00,3.3710
1489.00,3.3761
1488.00,3.3992
1487.00,3.4300
1486.00,3.4542
1485.00,3.4643
1484.00,3.4615
1483.00,3.4552
1482.00,3.4535
1481.00,3.4550
1480.00,3.4555
1479.00,3.4554
1478.00,3.4585
1477.00,3.4654
1476.00,3.4743
1475.00,3.4869
1474.00,3.5079
1473.00,3.5333
1472.00,3.5480
1471.00,3.5477
1470.00,3.5445
1469.00,3.5508
1468.00,3.5645
1467.00,3.5758
1466.00,3.5800
1465.00,3.5806
1464.00,3.5840
1463.00,3.5935
1462.00,3.6054
1461.00,3.6122
1460.00,3.6115
1459.00,3.6125
1458.00,3.6293
1457.00,3.6632
1456.00,3.6981
1455.00,3.7297
1454.00,3.7817
1453.00,3.8546
1452.00,3.9068
1451.00,3.8984
1450.00,3.8406
1449.00,3.7761
1448.00,3.7302
1447.00,3.7105
1446.00,3.7162
1445.00,3.7388
1444.00,3.7604
1443.00,3.7663
1442.00,3.7603
1441.00,3.7599
1440.00,3.7755
1439.00,3.8027
1438.00,3.8278
1437.00,3.8290
1436.00,3.7856
1435.00,3.7170
1434.00,3.6619
1433.00,3.6310
1432.00,3.6227
1431.00,3.6362
1430.00,3.6652
1429.00,3.6974
1428.00,3.7257
1427.00,3.7498
1426.00,3.7615
1425.00,3.7432
1424.00,3.6976
1423.00,3.6541
1422.00,3.6338
1421.00,3.6331
1420.00,3.6349
1419.00,3.6273
1418.00,3.6143
1417.00,3.6055
1416.00,3.6026
1415.00,3.6027
1414.00,3.6016
1413.00,3.5940
1412.00,3.5788
1411.00,3.5632
1410.00,3.5521
1409.00,3.5414
1408.00,3.5268
1407.00,3.5100
1406.00,3.4940
1405.00,3.4771
1404.00,3.4551
1403.00,3.4320
1402.00,3.4161
1401.00,3.4039
1400.00,3.3832
1399.00,3.3507
1398.00,3.3167
1397.00,3.2890
1396.00,3.2637
1395.00,3.2343
1394.00,3.2030
1393.00,3.1793
1392.00,3.1700
1391.00,3.1731
1390.00,3.1785
1389.00,3.1772
1388.00,3.1678
1387.00,3.1581
1386.00,3.1597
1385.00,3.1791
1384.00,3.2148
1383.00,3.2633
1382.00,3.3230
1381.00,3.3929
1380.00,3.4686
1379.00,3.5440
1378.00,3.6150
1377.00,3.6762
1376.00,3.7163
1375.00,3.7261
1374.00,3.7033
1373.00,3.6440
1372.00,3.5525
1371.00,3.4491
1370.00,3.3509
1369.00,3.2610
1368.00,3.1762
1367.00,3.0983
1366.00,3.0316
1365.00,2.9765
1364.00,2.9293
1363.00,2.8889
1362.00,2.8597
1361.00,2.8464
1360.00,2.8498
1359.00,2.8671
1358.00,2.8940
1357.00,2.9249
1356.00,2.9555
1355.00,2.9844
1354.00,3.0154
1353.00,3.0541
1352.00,3.1009
1351.00,3.1472
1350.00,3.1806
1349.00,3.1970
1348.00,3.2041
1347.00,3.2133
1346.00,3.2302
1345.00,3.2520
1344.00,3.2733
1343.00,3.2936
1342.00,3.3157
1341.00,3.3382
1340.00,3.3527
1339.00,3.3548
1338.00,3.3545
1337.00,3.3648
1336.00,3.3845
1335.00,3.3993
1334.00,3.4024
1333.00,3.4042
1332.00,3.4175
1331.00,3.4419
1330.00,3.4637
1329.00,3.4689
1328.00,3.4610
1327.00,3.4557
1326.00,3.4617
1325.00,3.4788
1324.00,3.5030
1323.00,3.5314
1322.00,3.5609
1321.00,3.5846
1320.00,3.5949
1319.00,3.5946
1318.00,3.5959
1317.00,3.6062
1316.00,3.6225
1315.00,3.6386
1314.00,3.6527
1313.00,3.6660
1312.00,3.6791
1311.00,3.6929
1310.00,3.7023
1309.00,3.7008
1308.00,3.6910
1307.00,3.6833
1306.00,3.6872
1305.00,3.7008
1304.00,3.7104
1303.00,3.7042
1302.00,3.6827
1301.00,3.6537
1300.00,3.6247
1299.00,3.6040
1298.00,3.5972
1297.00,3.6020
1296.00,3.6092
1295.00,3.6138
1294.00,3.6191
1293.00,3.6269
1292.00,3.6314
1291.00,3.6268
1290.00,3.6138
1289.00,3.5996
1288.00,3.5884
1287.00,3.5799
1286.00,3.5737
1285.00,3.5706
1284.00,3.5710
1283.00,3.5723
1282.00,3.5669
1281.00,3.5465
1280.00,3.5119
1279.00,3.4761
1278.00,3.4526
1277.00,3.4431
1276.00,3.4391
1275.00,3.4342
1274.00,3.4295
1273.00,3.4287
1272.00,3.4305
1271.00,3.4292
1270.00,3.4185
1269.00,3.3934
1268.00,3.3551
1267.00,3.3111
1266.00,3.2692
1265.00,3.2302
1264.00,3.1903
1263.00,3.1488
1262.00,3.1087
1261.00,3.0701
1260.00,3.0296
1259.00,2.9845
1258.00,2.9366
1257.00,2.8889
1256.00,2.8417
1255.00,2.7936
1254.00,2.7429
1253.00,2.6888
1252.00,2.6315
1251.00,2.5728
1250.00,2.5162
1249.00,2.4650
1248.00,2.4216
1247.00,2.3876
1246.00,2.3646
1245.00,2.3540
1244.00,2.3561
1243.00,2.3709
1242.00,2.3976
1241.00,2.4352
1240.00,2.4824
1239.00,2.5378
1238.00,2.5996
1237.00,2.6659
1236.00,2.7340
1235.00,2.8012
1234.00,2.8656
1233.00,2.9279
1232.00,2.9906
1231.00,3.0546
1230.00,3.1172
1229.00,3.1740
1228.00,3.2225
1227.00,3.2643
1226.00,3.2994
1225.00,3.3223
1224.00,3.3255
1223.00,3.3094
1222.00,3.2833
1221.00,3.2578
1220.00,3.2418
1219.00,3.2425
1218.00,3.2635
1217.00,3.2997
1216.00,3.3364
1215.00,3.3591
1214.00,3.3664
1213.00,3.3704
1212.00,3.3842
1211.00,3.4140
1210.00,3.4591
1209.00,3.5158
1208.00,3.5774
1207.00,3.6352
1206.00,3.6782
1205.00,3.6942
1204.00,3.6854
1203.00,3.6759
1202.00,3.6927
1201.00,3.7334
1200.00,3.7606
1199.00,3.7648
1198.00,3.7682
1197.00,3.7700
1196.00,3.7712
1195.00,3.7895
1194.00,3.8364
1193.00,3.8945
1192.00,3.9251
1191.00,3.9182
1190.00,3.9091
1189.00,3.9124
1188.00,3.9027
1187.00,3.8787
1186.00,3.8654
1185.00,3.8623
1184.00,3.8445
1183.00,3.8078
1182.00,3.7826
1181.00,3.7928
1180.00,3.8380
1179.00,3.9031
1178.00,3.9703
1177.00,4.0248
1176.00,4.0589
1175.00,4.0662
1174.00,4.0434
1173.00,4.0085
1172.00,3.9851
1171.00,3.9552
1170.00,3.8678
1169.00,3.7571
1168.00,3.6830
1167.00,3.6608
1166.00,3.6977
1165.00,3.8036
1164.00,3.9698
1163.00,4.1497
1162.00,4.2289
1161.00,4.1041
1160.00,3.9342
1159.00,3.8214
1158.00,3.7683
1157.00,3.7603
1156.00,3.7824
1155.00,3.8075
1154.00,3.7965
1153.00,3.7549
1152.00,3.7191
1151.00,3.7001
1150.00,3.6920
1149.00,3.6902
1148.00,3.6882
1147.00,3.6789
1146.00,3.6669
1145.00,3.6607
1144.00,3.6572
1143.00,3.6492
1142.00,3.6415
1141.00,3.6382
1140.00,3.6237
1139.00,3.5837
1138.00,3.5359
1137.00,3.5076
1136.00,3.5032
1135.00,3.5027
1134.00,3.4868
1133.00,3.4620
1132.00,3.4458
1131.00,3.4392
1130.00,3.4262
1129.00,3.3948
1128.00,3.3506
1127.00,3.3087
1126.00,3.2817
1125.00,3.2759
1124.00,3.2908
1123.00,3.3185
1122.00,3.3455
1121.00,3.3616
1120.00,3.3637
1119.00,3.3504
1118.00,3.3184
1117.00,3.2684
1116.00,3.2066
1115.00,3.1400
1114.00,3.0745
1113.00,3.0164
1112.00,2.9697
1111.00,2.9333
1110.00,2.9034
1109.00,2.8802
1108.00,2.8693
1107.00,2.8761
1106.00,2.8996
1105.00,2.9348
1104.00,2.9791
1103.00,3.0342
1102.00,3.1000
1101.00,3.1692
1100.00,3.2333
1099.00,3.2909
1098.00,3.3456
1097.00,3.3930
1096.00,3.4234
1095.00,3.4400
1094.00,3.4578
1093.00,3.4887
1092.00,3.5336
1091.00,3.5712
1090.00,3.5716
1089.00,3.5412
1088.00,3.5249
1087.00,3.5702
1086.00,3.7032
1085.00,3.8967
1084.00,4.0292
1083.00,4.0207
1082.00,3.9581
1081.00,3.9170
1080.00,3.8902
1079.00,3.8697
1078.00,3.8651
1077.00,3.9015
1076.00,4.0170
1075.00,4.3463
1074.00,4.7831
1073.00,4.3292
1072.00,4.2865
1071.00,4.5880
1070.00,4.7467
1069.00,4.3275
1068.00,4.1092
1067.00,4.0441
1066.00,4.1310
1065.00,4.4885
1064.00,4.6224
1063.00,4.2114
1062.00,4.0759
1061.00,4.0361
1060.00,4.0428
1059.00,4.1067
1058.00,4.1178
1057.00,4.0242
1056.00,3.9931
1055.00,4.0887
1054.00,4.4020
1053.00,5.2885
1052.00,4.9448
1051.00,4.8065
1050.00,4.6090
1049.00,4.7324
1048.00,5.0553
1047.00,4.7217
1046.00,4.7936
1045.00,4.7633
1044.00,4.5125
1043.00,4.4997
1042.00,4.7705
1041.00,4.8092
1040.00,4.4860
1039.00,4.2772
1038.00,4.0839
1037.00,3.9469
1036.00,3.8754
1035.00,3.8775
1034.00,3.9887
1033.00,4.2153
1032.00,4.4390
1031.00,4.4660
1030.00,4.3610
1029.00,4.2603
1028.00,4.2014
1027.00,4.1844
1026.00,4.1948
1025.00,4.1843
1024.00,4.1244
1023.00,4.0657
1022.00,4.0743
1021.00,4.1596
1020.00,4.2195
1019.00,4.1811
1018.00,4.1490
1017.00,4.1970
1016.00,4.3005
1015.00,4.2838
1014.00,4.1344
1013.00,4.0294
1012.00,4.0262
1011.00,4.1195
1010.00,4.2510
1009.00,4.3265
1008.00,4.3551
1007.00,4.3833
1006.00,4.4143
1005.00,4.4378
1004.00,4.3688
1003.00,4.2210
1002.00,4.1074
1001.00,4.0757
1000.00,4.1160
999.00,4.1537
998.00,4.1022
997.00,4.0313
996.00,4.0506
995.00,4.1868
994.00,4.3096
993.00,4.3829
992.00,4.5258
991.00,4.4414
990.00,4.3056
989.00,4.3381
988.00,4.3806
987.00,4.1758
986.00,3.9910
985.00,3.9324
984.00,3.9583
983.00,3.9942
982.00,3.9366
981.00,3.8404
980.00,3.8008
979.00,3.8261
978.00,3.8756
977.00,3.8969
976.00,3.8861
975.00,3.8693
974.00,3.8623
973.00,3.8503
972.00,3.7846
971.00,3.6612
970.00,3.5346
969.00,3.4502
968.00,3.4222
967.00,3.4431
966.00,3.4937
965.00,3.5528
964.00,3.6061
963.00,3.6567
962.00,3.7188
961.00,3.7822
960.00,3.8010
959.00,3.7709
958.00,3.7588
957.00,3.8133
956.00,3.9199
955.00,3.9985
954.00,4.0052
953.00,3.9903
952.00,3.9788
951.00,3.9668
950.00,3.9730
949.00,4.0279
948.00,4.1584
947.00,4.3624
946.00,4.6049
945.00,4.7063
944.00,4.4029
943.00,4.1411
942.00,3.9793
941.00,3.8476
940.00,3.7662
939.00,3.7822
938.00,3.9351
937.00,4.2391
936.00,4.4961
935.00,4.3788
934.00,4.2816
933.00,4.4499
932.00,4.5309
931.00,4.2942
930.00,4.2193
929.00,4.1701
928.00,4.1083
927.00,4.0759
926.00,4.0467
925.00,4.0258
924.00,4.0282
923.00,4.0645
922.00,4.1078
921.00,4.1075
920.00,4.0507
919.00,3.9985
918.00,4.0163
917.00,4.1120
916.00,4.2078
915.00,4.1855
914.00,4.0698
913.00,3.9764
912.00,3.9380
911.00,3.9276
910.00,3.9332
909.00,3.9623
908.00,4.0132
907.00,4.0707
906.00,4.1018
905.00,4.1134
904.00,4.1306
903.00,4.1674
902.00,4.1972
901.00,4.1150
900.00,4.0045
899.00,3.9637
898.00,3.9795
897.00,4.0170
896.00,4.0225
895.00,4.0137
894.00,4.0576
893.00,4.2285
892.00,4.6746
891.00,4.6233
890.00,4.1909
889.00,4.0187
888.00,4.0314
887.00,4.2022
886.00,4.1603
885.00,3.9640
884.00,3.9924
883.00,4.1790
882.00,4.4127
881.00,4.8150
880.00,4.3444
879.00,4.0047
878.00,3.9250
877.00,3.9777
876.00,4.1119
875.00,4.2749
874.00,4.4110
873.00,4.4578
872.00,4.7161
871.00,5.0038
870.00,4.5057
869.00,4.2607
868.00,4.1242
867.00,4.0397
866.00,4.0180
865.00,4.0459
864.00,4.1003
863.00,4.1144
862.00,4.1437
861.00,4.1740
860.00,4.1010
859.00,3.9947
858.00,3.8847
857.00,3.8146
856.00,3.8182
855.00,3.9291
854.00,4.2229
853.00,4.3792
852.00,4.1955
851.00,4.1375
850.00,4.1349
849.00,4.1755
848.00,4.2431
847.00,4.3002
846.00,4.3925
845.00,4.3848
844.00,4.2605
843.00,4.1598
842.00,4.1107
841.00,4.1013
840.00,4.1643
839.00,4.2409
838.00,4.1638
837.00,4.0353
836.00,3.9449
835.00,3.9052
834.00,3.9268
833.00,3.9848
832.00,4.0364
831.00,4.0526
830.00,4.0046
829.00,3.8615
828.00,3.6990
827.00,3.6087
826.00,3.6185
825.00,3.7074
824.00,3.8181
823.00,3.9429
822.00,4.0588
821.00,4.0737
820.00,4.0573
819.00,4.0467
818.00,4.0863
817.00,4.1133
816.00,3.9981
815.00,3.9164
814.00,3.9656
813.00,4.1547
812.00,4.2390
811.00,4.0835
810.00,4.0729
809.00,4.2726
808.00,4.3307
807.00,4.1732
806.00,4.1599
805.00,4.3124
804.00,4.5102
803.00,4.3556
802.00,4.2156
801.00,4.2282
800.00,4.2446
799.00,4.1972
798.00,4.0898
797.00,3.9847
796.00,3.9394
795.00,3.9639
794.00,4.1119
793.00,4.4338
792.00,4.6752
791.00,4.6917
790.00,4.4267
789.00,4.1748
788.00,4.0705
787.00,4.0329
786.00,4.0239
785.00,4.0629
784.00,4.0998
783.00,3.9983
782.00,3.9188
781.00,3.9444
780.00,3.9780
779.00,3.9269
778.00,3.8171
777.00,3.7546
776.00,3.7990
775.00,3.9470
774.00,4.0712
773.00,4.0831
772.00,4.1379
771.00,4.2395
770.00,4.3438
769.00,4.3710
768.00,4.3231
767.00,4.3266
766.00,4.2245
765.00,4.1020
764.00,4.1632
763.00,4.2369
762.00,4.0548
761.00,3.9042
760.00,3.8748
759.00,3.9208
758.00,4.1012
757.00,4.6072
756.00,4.5379
755.00,4.0723
754.00,3.8731
753.00,3.8124
752.00,3.8686
751.00,3.9796
750.00,4.0554
749.00,4.1264
748.00,4.2165
747.00,4.5084
746.00,4.7428
745.00,4.2233
744.00,4.1635
743.00,4.2059
742.00,4.0120
741.00,3.9629
740.00,4.2109
739.00,4.3538
738.00,4.2719
737.00,4.4687
736.00,4.1310
735.00,3.9086
734.00,3.9376
733.00,4.1021
732.00,4.2212
731.00,4.0999
730.00,4.0120
729.00,3.9707
728.00,3.9359
727.00,3.9010
726.00,3.8547
725.00,3.8276
724.00,3.8601
723.00,4.0757
722.00,4.6317
721.00,4.5624
720.00,4.2038
719.00,3.9976
718.00,3.8995
717.00,3.9307
716.00,4.0558
715.00,4.2396
714.00,4.3077
713.00,4.2379
712.00,4.1721
711.00,4.0667
710.00,3.9117
709.00,3.7863
708.00,3.7272
707.00,3.7267
706.00,3.7488
705.00,3.7814
704.00,3.8077
703.00,3.8249
702.00,3.8665
701.00,4.0439
700.00,4.3004
