Created as New Dataset,Sample 026 By Administrator Date Wednesday, November 24 2021
cm-1,A
7502.00,0.4500
7501.00,0.4500
7500.00,0.4499
7499.00,0.4494
7498.00,0.4485
7497.00,0.4480
7496.00,0.4485
7495.00,0.4498
7494.00,0.4514
7493.00,0.4534
7492.00,0.4561
7491.00,0.4597
7490.00,0.4638
7489.00,0.4684
7488.00,0.4734
7487.00,0.4787
7486.00,0.4841
7485.00,0.4894
7484.00,0.4948
7483.00,0.5007
7482.00,0.5074
7481.00,0.5149
7480.00,0.5230
7479.00,0.5313
7478.00,0.5396
7477.00,0.5479
7476.00,0.5563
7475.00,0.5651
7474.00,0.5743
7473.00,0.5837
7472.00,0.5931
7471.00,0.6026
7470.00,0.6125
7469.00,0.6228
7468.00,0.6332
7467.00,0.6435
7466.00,0.6536
7465.00,0.6634
7464.00,0.6730
7463.00,0.6824
7462.00,0.6918
7461.00,0.7011
7460.00,0.7103
7459.00,0.7194
7458.00,0.7288
7457.00,0.7391
7456.00,0.7500
7455.00,0.7609
7454.00,0.7711
7453.00,0.7806
7452.00,0.7900
7451.00,0.7991
7450.00,0.8078
7449.00,0.8159
7448.00,0.8235
7447.00,0.8312
7446.00,0.8391
7445.00,0.8466
7444.00,0.8532
7443.00,0.8587
7442.00,0.8640
7441.00,0.8698
7440.00,0.8763
7439.00,0.8828
7438.00,0.8889
7437.00,0.8946
7436.00,0.9005
7435.00,0.9063
7434.00,0.9112
7433.00,0.9145
7432.00,0.9164
7431.00,0.9183
7430.00,0.9210
7429.00,0.9240
7428.00,0.9268
7427.00,0.9291
7426.00,0.9312
7425.00,0.9333
7424.00,0.9353
7423.00,0.9365
7422.00,0.9369
7421.00,0.9363
7420.00,0.9353
7419.00,0.9341
7418.00,0.9329
7417.00,0.9315
7416.00,0.9297
7415.00,0.9276
7414.00,0.9256
7413.00,0.9237
7412.00,0.9216
7411.00,0.9187
7410.00,0.9148
7409.00,0.9102
7408.00,0.9050
7407.00,0.8997
7406.00,0.8945
7405.00,0.8897
7404.00,0.8851
7403.00,0.8802
7402.00,0.8748
7401.00,0.8690
7400.00,0.8630
7399.00,0.8566
7398.00,0.8499
7397.00,0.8428
7396.00,0.8356
7395.00,0.8286
7394.00,0.8215
7393.00,0.8140
7392.00,0.8057
7391.00,0.7971
7390.00,0.7887
7389.00,0.7807
7388.00,0.7730
7387.00,0.7653
7386.00,0.7575
7385.00,0.7497
7384.00,0.7418
7383.00,0.7336
7382.00,0.7251
7381.00,0.7165
7380.00,0.7082
7379.00,0.7005
7378.00,0.6933
7377.00,0.6865
7376.00,0.6797
7375.00,0.6732
7374.00,0.6669
7373.00,0.6608
7372.00,0.6547
7371.00,0.6489
7370.00,0.6435
7369.00,0.6384
7368.00,0.6336
7367.00,0.6289
7366.00,0.6245
7365.00,0.6207
7364.00,0.6174
7363.00,0.6146
7362.00,0.6123
7361.00,0.6105
7360.00,0.6091
7359.00,0.6080
7358.00,0.6072
7357.00,0.6068
7356.00,0.6069
7355.00,0.6074
7354.00,0.6083
7353.00,0.6099
7352.00,0.6120
7351.00,0.6147
7350.00,0.6178
7349.00,0.6216
7348.00,0.6260
7347.00,0.6310
7346.00,0.6363
7345.00,0.6421
7344.00,0.6482
7343.00,0.6545
7342.00,0.6613
7341.00,0.6685
7340.00,0.6760
7339.00,0.6835
7338.00,0.6911
7337.00,0.6992
7336.00,0.7077
7335.00,0.7165
7334.00,0.7251
7333.00,0.7334
7332.00,0.7417
7331.00,0.7504
7330.00,0.7596
7329.00,0.7691
7328.00,0.7785
7327.00,0.7876
7326.00,0.7968
7325.00,0.8060
7324.00,0.8150
7323.00,0.8235
7322.00,0.8317
7321.00,0.8398
7320.00,0.8482
7319.00,0.8571
7318.00,0.8663
7317.00,0.8754
7316.00,0.8842
7315.00,0.8926
7314.00,0.9013
7313.00,0.9102
7312.00,0.9190
7311.00,0.9268
7310.00,0.9334
7309.00,0.9394
7308.00,0.9453
7307.00,0.9513
7306.00,0.9571
7305.00,0.9626
7304.00,0.9683
7303.00,0.9744
7302.00,0.9810
7301.00,0.9876
7300.00,0.9937
7299.00,0.9987
7298.00,1.0028
7297.00,1.0065
7296.00,1.0098
7295.00,1.0128
7294.00,1.0148
7293.00,1.0156
7292.00,1.0153
7291.00,1.0144
7290.00,1.0134
7289.00,1.0125
7288.00,1.0116
7287.00,1.0108
7286.00,1.0102
7285.00,1.0098
7284.00,1.0097
7283.00,1.0096
7282.00,1.0091
7281.00,1.0081
7280.00,1.0065
7279.00,1.0043
7278.00,1.0017
7277.00,0.9988
7276.00,0.9955
7275.00,0.9914
7274.00,0.9869
7273.00,0.9822
7272.00,0.9776
7271.00,0.9728
7270.00,0.9678
7269.00,0.9626
7268.00,0.9574
7267.00,0.9521
7266.00,0.9466
7265.00,0.9407
7264.00,0.9348
7263.00,0.9288
7262.00,0.9230
7261.00,0.9174
7260.00,0.9118
7259.00,0.9063
7258.00,0.9007
7257.00,0.8944
7256.00,0.8871
7255.00,0.8786
7254.00,0.8694
7253.00,0.8598
7252.00,0.8502
7251.00,0.8407
7250.00,0.8317
7249.00,0.8231
7248.00,0.8149
7247.00,0.8070
7246.00,0.7993
7245.00,0.7917
7244.00,0.7840
7243.00,0.7765
7242.00,0.7692
7241.00,0.7622
7240.00,0.7554
7239.00,0.7486
7238.00,0.7419
7237.00,0.7352
7236.00,0.7283
7235.00,0.7214
7234.00,0.7147
7233.00,0.7085
7232.00,0.7028
7231.00,0.6974
7230.00,0.6924
7229.00,0.6879
7228.00,0.6836
7227.00,0.6797
7226.00,0.6762
7225.00,0.6730
7224.00,0.6701
7223.00,0.6675
7222.00,0.6655
7221.00,0.6640
7220.00,0.6631
7219.00,0.6625
7218.00,0.6626
7217.00,0.6635
7216.00,0.6650
7215.00,0.6667
7214.00,0.6688
7213.00,0.6713
7212.00,0.6741
7211.00,0.6772
7210.00,0.6807
7209.00,0.6846
7208.00,0.6893
7207.00,0.6945
7206.00,0.7003
7205.00,0.7067
7204.00,0.7135
7203.00,0.7204
7202.00,0.7275
7201.00,0.7346
7200.00,0.7419
7199.00,0.7495
7198.00,0.7575
7197.00,0.7658
7196.00,0.7745
7195.00,0.7835
7194.00,0.7926
7193.00,0.8020
7192.00,0.8113
7191.00,0.8204
7190.00,0.8295
7189.00,0.8387
7188.00,0.8479
7187.00,0.8571
7186.00,0.8660
7185.00,0.8749
7184.00,0.8841
7183.00,0.8937
7182.00,0.9034
7181.00,0.9128
7180.00,0.9220
7179.00,0.9311
7178.00,0.9404
7177.00,0.9496
7176.00,0.9584
7175.00,0.9666
7174.00,0.9747
7173.00,0.9830
7172.00,0.9911
7171.00,0.9986
7170.00,1.0053
7169.00,1.0118
7168.00,1.0186
7167.00,1.0257
7166.00,1.0326
7165.00,1.0391
7164.00,1.0449
7163.00,1.0504
7162.00,1.0556
7161.00,1.0607
7160.00,1.0657
7159.00,1.0701
7158.00,1.0738
7157.00,1.0770
7156.00,1.0802
7155.00,1.0833
7154.00,1.0860
7153.00,1.0879
7152.00,1.0894
7151.00,1.0911
7150.00,1.0932
7149.00,1.0956
7148.00,1.0975
7147.00,1.0985
7146.00,1.0984
7145.00,1.0974
7144.00,1.0961
7143.00,1.0950
7142.00,1.0943
7141.00,1.0934
7140.00,1.0920
7139.00,1.0903
7138.00,1.0884
7137.00,1.0862
7136.00,1.0831
7135.00,1.0793
7134.00,1.0753
7133.00,1.0712
7132.00,1.0665
7131.00,1.0612
7130.00,1.0555
7129.00,1.0498
7128.00,1.0442
7127.00,1.0381
7126.00,1.0316
7125.00,1.0250
7124.00,1.0182
7123.00,1.0112
7122.00,1.0042
7121.00,0.9970
7120.00,0.9898
7119.00,0.9823
7118.00,0.9744
7117.00,0.9663
7116.00,0.9582
7115.00,0.9501
7114.00,0.9416
7113.00,0.9328
7112.00,0.9237
7111.00,0.9145
7110.00,0.9052
7109.00,0.8959
7108.00,0.8863
7107.00,0.8768
7106.00,0.8676
7105.00,0.8588
7104.00,0.8503
7103.00,0.8421
7102.00,0.8343
7101.00,0.8267
7100.00,0.8193
7099.00,0.8117
7098.00,0.8040
7097.00,0.7965
7096.00,0.7892
7095.00,0.7822
7094.00,0.7753
7093.00,0.7687
7092.00,0.7624
7091.00,0.7564
7090.00,0.7508
7089.00,0.7455
7088.00,0.7405
7087.00,0.7361
7086.00,0.7323
7085.00,0.7290
7084.00,0.7261
7083.00,0.7238
7082.00,0.7220
7081.00,0.7209
7080.00,0.7203
7079.00,0.7200
7078.00,0.7202
7077.00,0.7209
7076.00,0.7223
7075.00,0.7242
7074.00,0.7263
7073.00,0.7289
7072.00,0.7320
7071.00,0.7355
7070.00,0.7396
7069.00,0.7444
7068.00,0.7499
7067.00,0.7557
7066.00,0.7620
7065.00,0.7686
7064.00,0.7754
7063.00,0.7822
7062.00,0.7892
7061.00,0.7965
7060.00,0.8042
7059.00,0.8121
7058.00,0.8203
7057.00,0.8289
7056.00,0.8378
7055.00,0.8469
7054.00,0.8559
7053.00,0.8647
7052.00,0.8734
7051.00,0.8822
7050.00,0.8913
7049.00,0.9008
7048.00,0.9104
7047.00,0.9198
7046.00,0.9290
7045.00,0.9382
7044.00,0.9475
7043.00,0.9568
7042.00,0.9658
7041.00,0.9744
7040.00,0.9828
7039.00,0.9911
7038.00,0.9996
7037.00,1.0081
7036.00,1.0163
7035.00,1.0242
7034.00,1.0317
7033.00,1.0391
7032.00,1.0465
7031.00,1.0537
7030.00,1.0604
7029.00,1.0665
7028.00,1.0721
7027.00,1.0775
7026.00,1.0830
7025.00,1.0885
7024.00,1.0936
7023.00,1.0982
7022.00,1.1021
7021.00,1.1057
7020.00,1.1090
7019.00,1.1122
7018.00,1.1149
7017.00,1.1170
7016.00,1.1189
7015.00,1.1207
7014.00,1.1224
7013.00,1.1238
7012.00,1.1246
7011.00,1.1250
7010.00,1.1254
7009.00,1.1258
7008.00,1.1258
7007.00,1.1253
7006.00,1.1242
7005.00,1.1228
7004.00,1.1209
7003.00,1.1183
7002.00,1.1152
7001.00,1.1115
7000.00,1.1076
6999.00,1.1036
6998.00,1.0994
6997.00,1.0952
6996.00,1.0909
6995.00,1.0862
6994.00,1.0812
6993.00,1.0759
6992.00,1.0700
6991.00,1.0636
6990.00,1.0566
6989.00,1.0493
6988.00,1.0418
6987.00,1.0345
6986.00,1.0276
6985.00,1.0207
6984.00,1.0134
6983.00,1.0054
6982.00,0.9971
6981.00,0.9885
6980.00,0.9795
6979.00,0.9701
6978.00,0.9606
6977.00,0.9514
6976.00,0.9424
6975.00,0.9332
6974.00,0.9239
6973.00,0.9146
6972.00,0.9055
6971.00,0.8963
6970.00,0.8869
6969.00,0.8774
6968.00,0.8681
6967.00,0.8592
6966.00,0.8505
6965.00,0.8417
6964.00,0.8330
6963.00,0.8245
6962.00,0.8165
6961.00,0.8088
6960.00,0.8012
6959.00,0.7935
6958.00,0.7861
6957.00,0.7790
6956.00,0.7722
6955.00,0.7658
6954.00,0.7596
6953.00,0.7540
6952.00,0.7487
6951.00,0.7439
6950.00,0.7396
6949.00,0.7359
6948.00,0.7325
6947.00,0.7295
6946.00,0.7269
6945.00,0.7249
6944.00,0.7234
6943.00,0.7223
6942.00,0.7216
6941.00,0.7214
6940.00,0.7217
6939.00,0.7223
6938.00,0.7234
6937.00,0.7250
6936.00,0.7272
6935.00,0.7299
6934.00,0.7332
6933.00,0.7371
6932.00,0.7413
6931.00,0.7458
6930.00,0.7507
6929.00,0.7562
6928.00,0.7623
6927.00,0.7688
6926.00,0.7758
6925.00,0.7832
6924.00,0.7909
6923.00,0.7988
6922.00,0.8066
6921.00,0.8145
6920.00,0.8225
6919.00,0.8309
6918.00,0.8397
6917.00,0.8489
6916.00,0.8585
6915.00,0.8681
6914.00,0.8776
6913.00,0.8871
6912.00,0.8968
6911.00,0.9065
6910.00,0.9163
6909.00,0.9260
6908.00,0.9357
6907.00,0.9454
6906.00,0.9551
6905.00,0.9647
6904.00,0.9743
6903.00,0.9836
6902.00,0.9927
6901.00,1.0017
6900.00,1.0107
6899.00,1.0195
6898.00,1.0282
6897.00,1.0369
6896.00,1.0457
6895.00,1.0546
6894.00,1.0634
6893.00,1.0717
6892.00,1.0794
6891.00,1.0863
6890.00,1.0925
6889.00,1.0984
6888.00,1.1041
6887.00,1.1099
6886.00,1.1158
6885.00,1.1216
6884.00,1.1270
6883.00,1.1318
6882.00,1.1361
6881.00,1.1403
6880.00,1.1441
6879.00,1.1476
6878.00,1.1508
6877.00,1.1540
6876.00,1.1571
6875.00,1.1599
6874.00,1.1620
6873.00,1.1634
6872.00,1.1640
6871.00,1.1644
6870.00,1.1648
6869.00,1.1654
6868.00,1.1658
6867.00,1.1658
6866.00,1.1653
6865.00,1.1645
6864.00,1.1633
6863.00,1.1614
6862.00,1.1589
6861.00,1.1562
6860.00,1.1530
6859.00,1.1494
6858.00,1.1454
6857.00,1.1412
6856.00,1.1369
6855.00,1.1324
6854.00,1.1276
6853.00,1.1227
6852.00,1.1174
6851.00,1.1118
6850.00,1.1057
6849.00,1.0993
6848.00,1.0924
6847.00,1.0850
6846.00,1.0772
6845.00,1.0694
6844.00,1.0616
6843.00,1.0539
6842.00,1.0461
6841.00,1.0379
6840.00,1.0291
6839.00,1.0199
6838.00,1.0107
6837.00,1.0016
6836.00,0.9922
6835.00,0.9826
6834.00,0.9730
6833.00,0.9636
6832.00,0.9543
6831.00,0.9447
6830.00,0.9346
6829.00,0.9246
6828.00,0.9150
6827.00,0.9057
6826.00,0.8964
6825.00,0.8870
6824.00,0.8779
6823.00,0.8689
6822.00,0.8602
6821.00,0.8515
6820.00,0.8429
6819.00,0.8346
6818.00,0.8270
6817.00,0.8197
6816.00,0.8126
6815.00,0.8054
6814.00,0.7985
6813.00,0.7921
6812.00,0.7862
6811.00,0.7807
6810.00,0.7756
6809.00,0.7711
6808.00,0.7671
6807.00,0.7637
6806.00,0.7610
6805.00,0.7589
6804.00,0.7573
6803.00,0.7561
6802.00,0.7553
6801.00,0.7551
6800.00,0.7555
6799.00,0.7563
6798.00,0.7574
6797.00,0.7590
6796.00,0.7614
6795.00,0.7644
6794.00,0.7680
6793.00,0.7721
6792.00,0.7766
6791.00,0.7817
6790.00,0.7874
6789.00,0.7935
6788.00,0.7999
6787.00,0.8065
6786.00,0.8133
6785.00,0.8205
6784.00,0.8281
6783.00,0.8359
6782.00,0.8439
6781.00,0.8523
6780.00,0.8611
6779.00,0.8701
6778.00,0.8793
6777.00,0.8887
6776.00,0.8982
6775.00,0.9078
6774.00,0.9175
6773.00,0.9275
6772.00,0.9377
6771.00,0.9477
6770.00,0.9574
6769.00,0.9669
6768.00,0.9765
6767.00,0.9861
6766.00,0.9955
6765.00,1.0044
6764.00,1.0131
6763.00,1.0219
6762.00,1.0309
6761.00,1.0399
6760.00,1.0488
6759.00,1.0572
6758.00,1.0650
6757.00,1.0724
6756.00,1.0796
6755.00,1.0865
6754.00,1.0930
6753.00,1.0991
6752.00,1.1052
6751.00,1.1117
6750.00,1.1185
6749.00,1.1252
6748.00,1.1310
6747.00,1.1360
6746.00,1.1404
6745.00,1.1446
6744.00,1.1486
6743.00,1.1524
6742.00,1.1558
6741.00,1.1590
6740.00,1.1619
6739.00,1.1645
6738.00,1.1666
6737.00,1.1680
6736.00,1.1688
6735.00,1.1693
6734.00,1.1696
6733.00,1.1696
6732.00,1.1692
6731.00,1.1683
6730.00,1.1673
6729.00,1.1664
6728.00,1.1652
6727.00,1.1635
6726.00,1.1612
6725.00,1.1585
6724.00,1.1555
6723.00,1.1520
6722.00,1.1478
6721.00,1.1429
6720.00,1.1378
6719.00,1.1329
6718.00,1.1281
6717.00,1.1231
6716.00,1.1174
6715.00,1.1111
6714.00,1.1046
6713.00,1.0979
6712.00,1.0909
6711.00,1.0836
6710.00,1.0759
6709.00,1.0680
6708.00,1.0599
6707.00,1.0516
6706.00,1.0433
6705.00,1.0349
6704.00,1.0263
6703.00,1.0172
6702.00,1.0079
6701.00,0.9986
6700.00,0.9894
6699.00,0.9800
6698.00,0.9704
6697.00,0.9608
6696.00,0.9511
6695.00,0.9415
6694.00,0.9318
6693.00,0.9221
6692.00,0.9124
6691.00,0.9027
6690.00,0.8931
6689.00,0.8838
6688.00,0.8747
6687.00,0.8656
6686.00,0.8565
6685.00,0.8473
6684.00,0.8383
6683.00,0.8297
6682.00,0.8216
6681.00,0.8141
6680.00,0.8069
6679.00,0.7999
6678.00,0.7931
6677.00,0.7865
6676.00,0.7802
6675.00,0.7742
6674.00,0.7687
6673.00,0.7636
6672.00,0.7591
6671.00,0.7551
6670.00,0.7515
6669.00,0.7483
6668.00,0.7454
6667.00,0.7428
6666.00,0.7408
6665.00,0.7394
6664.00,0.7387
6663.00,0.7386
6662.00,0.7390
6661.00,0.7401
6660.00,0.7415
6659.00,0.7434
6658.00,0.7456
6657.00,0.7485
6656.00,0.7520
6655.00,0.7560
6654.00,0.7605
6653.00,0.7656
6652.00,0.7714
6651.00,0.7777
6650.00,0.7843
6649.00,0.7911
6648.00,0.7982
6647.00,0.8056
6646.00,0.8134
6645.00,0.8216
6644.00,0.8301
6643.00,0.8388
6642.00,0.8478
6641.00,0.8570
6640.00,0.8664
6639.00,0.8757
6638.00,0.8852
6637.00,0.8949
6636.00,0.9050
6635.00,0.9153
6634.00,0.9259
6633.00,0.9365
6632.00,0.9470
6631.00,0.9575
6630.00,0.9678
6629.00,0.9779
6628.00,0.9877
6627.00,0.9971
6626.00,1.0064
6625.00,1.0157
6624.00,1.0252
6623.00,1.0349
6622.00,1.0449
6621.00,1.0548
6620.00,1.0644
6619.00,1.0736
6618.00,1.0824
6617.00,1.0906
6616.00,1.0980
6615.00,1.1048
6614.00,1.1115
6613.00,1.1181
6612.00,1.1247
6611.00,1.1311
6610.00,1.1373
6609.00,1.1434
6608.00,1.1495
6607.00,1.1554
6606.00,1.1610
6605.00,1.1662
6604.00,1.1709
6603.00,1.1753
6602.00,1.1795
6601.00,1.1833
6600.00,1.1863
6599.00,1.1886
6598.00,1.1907
6597.00,1.1928
6596.00,1.1945
6595.00,1.1956
6594.00,1.1962
6593.00,1.1965
6592.00,1.1965
6591.00,1.1961
6590.00,1.1954
6589.00,1.1944
6588.00,1.1931
6587.00,1.1915
6586.00,1.1898
6585.00,1.1881
6584.00,1.1860
6583.00,1.1832
6582.00,1.1797
6581.00,1.1759
6580.00,1.1719
6579.00,1.1676
6578.00,1.1629
6577.00,1.1579
6576.00,1.1525
6575.00,1.1467
6574.00,1.1404
6573.00,1.1338
6572.00,1.1267
6571.00,1.1193
6570.00,1.1117
6569.00,1.1042
6568.00,1.0966
6567.00,1.0889
6566.00,1.0807
6565.00,1.0722
6564.00,1.0633
6563.00,1.0542
6562.00,1.0449
6561.00,1.0354
6560.00,1.0257
6559.00,1.0155
6558.00,1.0051
6557.00,0.9948
6556.00,0.9844
6555.00,0.9739
6554.00,0.9635
6553.00,0.9533
6552.00,0.9432
6551.00,0.9332
6550.00,0.9230
6549.00,0.9128
6548.00,0.9028
6547.00,0.8928
6546.00,0.8829
6545.00,0.8734
6544.00,0.8640
6543.00,0.8547
6542.00,0.8455
6541.00,0.8366
6540.00,0.8279
6539.00,0.8195
6538.00,0.8117
6537.00,0.8044
6536.00,0.7976
6535.00,0.7911
6534.00,0.7850
6533.00,0.7794
6532.00,0.7743
6531.00,0.7696
6530.00,0.7655
6529.00,0.7620
6528.00,0.7590
6527.00,0.7566
6526.00,0.7547
6525.00,0.7535
6524.00,0.7529
6523.00,0.7529
6522.00,0.7534
6521.00,0.7546
6520.00,0.7563
6519.00,0.7586
6518.00,0.7614
6517.00,0.7648
6516.00,0.7687
6515.00,0.7733
6514.00,0.7785
6513.00,0.7843
6512.00,0.7906
6511.00,0.7971
6510.00,0.8040
6509.00,0.8112
6508.00,0.8187
6507.00,0.8265
6506.00,0.8348
6505.00,0.8436
6504.00,0.8527
6503.00,0.8621
6502.00,0.8717
6501.00,0.8815
6500.00,0.8913
6499.00,0.9010
6498.00,0.9106
6497.00,0.9204
6496.00,0.9306
6495.00,0.9409
6494.00,0.9512
6493.00,0.9615
6492.00,0.9715
6491.00,0.9814
6490.00,0.9911
6489.00,1.0009
6488.00,1.0107
6487.00,1.0205
6486.00,1.0302
6485.00,1.0397
6484.00,1.0491
6483.00,1.0582
6482.00,1.0670
6481.00,1.0755
6480.00,1.0837
6479.00,1.0916
6478.00,1.0992
6477.00,1.1066
6476.00,1.1136
6475.00,1.1199
6474.00,1.1259
6473.00,1.1319
6472.00,1.1379
6471.00,1.1440
6470.00,1.1499
6469.00,1.1556
6468.00,1.1610
6467.00,1.1657
6466.00,1.1699
6465.00,1.1735
6464.00,1.1765
6463.00,1.1790
6462.00,1.1812
6461.00,1.1831
6460.00,1.1846
6459.00,1.1857
6458.00,1.1865
6457.00,1.1871
6456.00,1.1874
6455.00,1.1873
6454.00,1.1871
6453.00,1.1866
6452.00,1.1859
6451.00,1.1846
6450.00,1.1827
6449.00,1.1803
6448.00,1.1776
6447.00,1.1745
6446.00,1.1712
6445.00,1.1679
6444.00,1.1642
6443.00,1.1598
6442.00,1.1549
6441.00,1.1498
6440.00,1.1445
6439.00,1.1388
6438.00,1.1326
6437.00,1.1259
6436.00,1.1190
6435.00,1.1118
6434.00,1.1043
6433.00,1.0966
6432.00,1.0887
6431.00,1.0807
6430.00,1.0728
6429.00,1.0647
6428.00,1.0562
6427.00,1.0471
6426.00,1.0377
6425.00,1.0283
6424.00,1.0189
6423.00,1.0094
6422.00,0.9998
6421.00,0.9904
6420.00,0.9810
6419.00,0.9713
6418.00,0.9613
6417.00,0.9512
6416.00,0.9412
6415.00,0.9312
6414.00,0.9210
6413.00,0.9107
6412.00,0.9006
6411.00,0.8905
6410.00,0.8807
6409.00,0.8710
6408.00,0.8616
6407.00,0.8525
6406.00,0.8436
6405.00,0.8349
6404.00,0.8263
6403.00,0.8178
6402.00,0.8095
6401.00,0.8013
6400.00,0.7932
6399.00,0.7854
6398.00,0.7781
6397.00,0.7712
6396.00,0.7649
6395.00,0.7590
6394.00,0.7538
6393.00,0.7491
6392.00,0.7449
6391.00,0.7411
6390.00,0.7377
6389.00,0.7350
6388.00,0.7329
6387.00,0.7314
6386.00,0.7307
6385.00,0.7305
6384.00,0.7310
6383.00,0.7319
6382.00,0.7334
6381.00,0.7356
6380.00,0.7384
6379.00,0.7419
6378.00,0.7459
6377.00,0.7506
6376.00,0.7559
6375.00,0.7617
6374.00,0.7678
6373.00,0.7743
6372.00,0.7811
6371.00,0.7882
6370.00,0.7958
6369.00,0.8040
6368.00,0.8127
6367.00,0.8218
6366.00,0.8312
6365.00,0.8408
6364.00,0.8505
6363.00,0.8603
6362.00,0.8702
6361.00,0.8804
6360.00,0.8908
6359.00,0.9015
6358.00,0.9125
6357.00,0.9236
6356.00,0.9346
6355.00,0.9454
6354.00,0.9561
6353.00,0.9666
6352.00,0.9770
6351.00,0.9871
6350.00,0.9972
6349.00,1.0076
6348.00,1.0182
6347.00,1.0289
6346.00,1.0394
6345.00,1.0498
6344.00,1.0597
6343.00,1.0691
6342.00,1.0780
6341.00,1.0867
6340.00,1.0950
6339.00,1.1031
6338.00,1.1109
6337.00,1.1185
6336.00,1.1261
6335.00,1.1335
6334.00,1.1407
6333.00,1.1477
6332.00,1.1543
6331.00,1.1604
6330.00,1.1659
6329.00,1.1708
6328.00,1.1753
6327.00,1.1794
6326.00,1.1831
6325.00,1.1866
6324.00,1.1898
6323.00,1.1925
6322.00,1.1947
6321.00,1.1966
6320.00,1.1983
6319.00,1.1999
6318.00,1.2014
6317.00,1.2025
6316.00,1.2031
6315.00,1.2032
6314.00,1.2030
6313.00,1.2026
6312.00,1.2021
6311.00,1.2013
6310.00,1.2001
6309.00,1.1984
6308.00,1.1962
6307.00,1.1933
6306.00,1.1898
6305.00,1.1860
6304.00,1.1819
6303.00,1.1776
6302.00,1.1728
6301.00,1.1676
6300.00,1.1623
6299.00,1.1566
6298.00,1.1506
6297.00,1.1444
6296.00,1.1380
6295.00,1.1312
6294.00,1.1239
6293.00,1.1164
6292.00,1.1085
6291.00,1.1003
6290.00,1.0918
6289.00,1.0832
6288.00,1.0745
6287.00,1.0654
6286.00,1.0558
6285.00,1.0458
6284.00,1.0356
6283.00,1.0251
6282.00,1.0144
6281.00,1.0036
6280.00,0.9927
6279.00,0.9817
6278.00,0.9706
6277.00,0.9594
6276.00,0.9483
6275.00,0.9372
6274.00,0.9260
6273.00,0.9150
6272.00,0.9041
6271.00,0.8934
6270.00,0.8827
6269.00,0.8721
6268.00,0.8615
6267.00,0.8511
6266.00,0.8408
6265.00,0.8309
6264.00,0.8213
6263.00,0.8121
6262.00,0.8034
6261.00,0.7951
6260.00,0.7872
6259.00,0.7796
6258.00,0.7723
6257.00,0.7653
6256.00,0.7588
6255.00,0.7528
6254.00,0.7472
6253.00,0.7422
6252.00,0.7379
6251.00,0.7343
6250.00,0.7314
6249.00,0.7293
6248.00,0.7279
6247.00,0.7271
6246.00,0.7269
6245.00,0.7272
6244.00,0.7282
6243.00,0.7298
6242.00,0.7321
6241.00,0.7350
6240.00,0.7386
6239.00,0.7428
6238.00,0.7474
6237.00,0.7526
6236.00,0.7583
6235.00,0.7644
6234.00,0.7710
6233.00,0.7781
6232.00,0.7858
6231.00,0.7939
6230.00,0.8025
6229.00,0.8115
6228.00,0.8207
6227.00,0.8303
6226.00,0.8401
6225.00,0.8501
6224.00,0.8601
6223.00,0.8701
6222.00,0.8803
6221.00,0.8908
6220.00,0.9014
6219.00,0.9121
6218.00,0.9231
6217.00,0.9344
6216.00,0.9458
6215.00,0.9570
6214.00,0.9680
6213.00,0.9787
6212.00,0.9892
6211.00,0.9995
6210.00,1.0096
6209.00,1.0196
6208.00,1.0296
6207.00,1.0396
6206.00,1.0492
6205.00,1.0585
6204.00,1.0674
6203.00,1.0761
6202.00,1.0847
6201.00,1.0930
6200.00,1.1011
6199.00,1.1088
6198.00,1.1162
6197.00,1.1234
6196.00,1.1302
6195.00,1.1366
6194.00,1.1426
6193.00,1.1484
6192.00,1.1538
6191.00,1.1586
6190.00,1.1629
6189.00,1.1667
6188.00,1.1703
6187.00,1.1737
6186.00,1.1769
6185.00,1.1799
6184.00,1.1825
6183.00,1.1847
6182.00,1.1864
6181.00,1.1878
6180.00,1.1888
6179.00,1.1893
6178.00,1.1893
6177.00,1.1888
6176.00,1.1880
6175.00,1.1868
6174.00,1.1855
6173.00,1.1841
6172.00,1.1824
6171.00,1.1805
6170.00,1.1780
6169.00,1.1750
6168.00,1.1714
6167.00,1.1674
6166.00,1.1630
6165.00,1.1582
6164.00,1.1531
6163.00,1.1478
6162.00,1.1423
6161.00,1.1366
6160.00,1.1304
6159.00,1.1237
6158.00,1.1167
6157.00,1.1096
6156.00,1.1022
6155.00,1.0944
6154.00,1.0861
6153.00,1.0777
6152.00,1.0691
6151.00,1.0603
6150.00,1.0511
6149.00,1.0417
6148.00,1.0321
6147.00,1.0223
6146.00,1.0122
6145.00,1.0019
6144.00,0.9915
6143.00,0.9808
6142.00,0.9701
6141.00,0.9595
6140.00,0.9488
6139.00,0.9381
6138.00,0.9272
6137.00,0.9163
6136.00,0.9053
6135.00,0.8943
6134.00,0.8833
6133.00,0.8725
6132.00,0.8619
6131.00,0.8514
6130.00,0.8409
6129.00,0.8306
6128.00,0.8205
6127.00,0.8107
6126.00,0.8010
6125.00,0.7917
6124.00,0.7826
6123.00,0.7739
6122.00,0.7654
6121.00,0.7573
6120.00,0.7496
6119.00,0.7424
6118.00,0.7359
6117.00,0.7300
6116.00,0.7246
6115.00,0.7197
6114.00,0.7152
6113.00,0.7113
6112.00,0.7081
6111.00,0.7055
6110.00,0.7036
6109.00,0.7025
6108.00,0.7021
6107.00,0.7024
6106.00,0.7032
6105.00,0.7047
6104.00,0.7068
6103.00,0.7096
6102.00,0.7131
6101.00,0.7173
6100.00,0.7220
6099.00,0.7273
6098.00,0.7331
6097.00,0.7395
6096.00,0.7465
6095.00,0.7538
6094.00,0.7617
6093.00,0.7701
6092.00,0.7789
6091.00,0.7881
6090.00,0.7975
6089.00,0.8074
6088.00,0.8177
6087.00,0.8282
6086.00,0.8389
6085.00,0.8497
6084.00,0.8605
6083.00,0.8713
6082.00,0.8822
6081.00,0.8933
6080.00,0.9046
6079.00,0.9158
6078.00,0.9271
6077.00,0.9384
6076.00,0.9498
6075.00,0.9611
6074.00,0.9722
6073.00,0.9833
6072.00,0.9943
6071.00,1.0052
6070.00,1.0160
6069.00,1.0266
6068.00,1.0370
6067.00,1.0471
6066.00,1.0569
6065.00,1.0664
6064.00,1.0756
6063.00,1.0844
6062.00,1.0929
6061.00,1.1014
6060.00,1.1098
6059.00,1.1181
6058.00,1.1261
6057.00,1.1338
6056.00,1.1410
6055.00,1.1476
6054.00,1.1537
6053.00,1.1595
6052.00,1.1650
6051.00,1.1701
6050.00,1.1747
6049.00,1.1790
6048.00,1.1830
6047.00,1.1865
6046.00,1.1895
6045.00,1.1923
6044.00,1.1951
6043.00,1.1976
6042.00,1.1997
6041.00,1.2012
6040.00,1.2021
6039.00,1.2025
6038.00,1.2023
6037.00,1.2017
6036.00,1.2008
6035.00,1.1996
6034.00,1.1982
6033.00,1.1966
6032.00,1.1947
6031.00,1.1925
6030.00,1.1899
6029.00,1.1868
6028.00,1.1834
6027.00,1.1796
6026.00,1.1755
6025.00,1.1712
6024.00,1.1665
6023.00,1.1614
6022.00,1.1559
6021.00,1.1501
6020.00,1.1437
6019.00,1.1369
6018.00,1.1295
6017.00,1.1219
6016.00,1.1139
6015.00,1.1056
6014.00,1.0970
6013.00,1.0880
6012.00,1.0789
6011.00,1.0694
6010.00,1.0597
6009.00,1.0496
6008.00,1.0393
6007.00,1.0288
6006.00,1.0180
6005.00,1.0070
6004.00,0.9959
6003.00,0.9847
6002.00,0.9733
6001.00,0.9617
6000.00,0.9501
5999.00,0.9383
5998.00,0.9264
5997.00,0.9146
5996.00,0.9028
5995.00,0.8911
5994.00,0.8795
5993.00,0.8679
5992.00,0.8563
5991.00,0.8449
5990.00,0.8337
5989.00,0.8227
5988.00,0.8120
5987.00,0.8017
5986.00,0.7918
5985.00,0.7822
5984.00,0.7729
5983.00,0.7638
5982.00,0.7552
5981.00,0.7473
5980.00,0.7399
5979.00,0.7329
5978.00,0.7265
5977.00,0.7208
5976.00,0.7156
5975.00,0.7112
5974.00,0.7074
5973.00,0.7045
5972.00,0.7022
5971.00,0.7007
5970.00,0.6999
5969.00,0.7000
5968.00,0.7008
5967.00,0.7023
5966.00,0.7048
5965.00,0.7081
5964.00,0.7123
5963.00,0.7171
5962.00,0.7225
5961.00,0.7286
5960.00,0.7353
5959.00,0.7425
5958.00,0.7502
5957.00,0.7584
5956.00,0.7669
5955.00,0.7757
5954.00,0.7845
5953.00,0.7934
5952.00,0.8023
5951.00,0.8112
5950.00,0.8202
5949.00,0.8295
5948.00,0.8392
5947.00,0.8491
5946.00,0.8593
5945.00,0.8696
5944.00,0.8800
5943.00,0.8903
5942.00,0.9006
5941.00,0.9109
5940.00,0.9214
5939.00,0.9322
5938.00,0.9433
5937.00,0.9546
5936.00,0.9658
5935.00,0.9768
5934.00,0.9877
5933.00,0.9983
5932.00,1.0088
5931.00,1.0193
5930.00,1.0298
5929.00,1.0405
5928.00,1.0511
5927.00,1.0612
5926.00,1.0709
5925.00,1.0802
5924.00,1.0894
5923.00,1.0984
5922.00,1.1071
5921.00,1.1153
5920.00,1.1231
5919.00,1.1305
5918.00,1.1377
5917.00,1.1446
5916.00,1.1511
5915.00,1.1571
5914.00,1.1628
5913.00,1.1682
5912.00,1.1732
5911.00,1.1778
5910.00,1.1820
5909.00,1.1860
5908.00,1.1896
5907.00,1.1930
5906.00,1.1961
5905.00,1.1988
5904.00,1.2012
5903.00,1.2032
5902.00,1.2048
5901.00,1.2057
5900.00,1.2060
5899.00,1.2059
5898.00,1.2056
5897.00,1.2054
5896.00,1.2050
5895.00,1.2042
5894.00,1.2029
5893.00,1.2010
5892.00,1.1984
5891.00,1.1951
5890.00,1.1913
5889.00,1.1873
5888.00,1.1833
5887.00,1.1791
5886.00,1.1745
5885.00,1.1696
5884.00,1.1643
5883.00,1.1586
5882.00,1.1522
5881.00,1.1455
5880.00,1.1385
5879.00,1.1313
5878.00,1.1239
5877.00,1.1160
5876.00,1.1075
5875.00,1.0986
5874.00,1.0893
5873.00,1.0797
5872.00,1.0697
5871.00,1.0595
5870.00,1.0491
5869.00,1.0384
5868.00,1.0274
5867.00,1.0163
5866.00,1.0049
5865.00,0.9935
5864.00,0.9819
5863.00,0.9701
5862.00,0.9583
5861.00,0.9465
5860.00,0.9347
5859.00,0.9226
5858.00,0.9103
5857.00,0.8981
5856.00,0.8859
5855.00,0.8738
5854.00,0.8619
5853.00,0.8502
5852.00,0.8387
5851.00,0.8274
5850.00,0.8161
5849.00,0.8053
5848.00,0.7948
5847.00,0.7849
5846.00,0.7755
5845.00,0.7668
5844.00,0.7585
5843.00,0.7506
5842.00,0.7431
5841.00,0.7361
5840.00,0.7297
5839.00,0.7238
5838.00,0.7186
5837.00,0.7140
5836.00,0.7100
5835.00,0.7065
5834.00,0.7037
5833.00,0.7013
5832.00,0.6996
5831.00,0.6985
5830.00,0.6982
5829.00,0.6986
5828.00,0.6997
5827.00,0.7012
5826.00,0.7034
5825.00,0.7062
5824.00,0.7095
5823.00,0.7134
5822.00,0.7179
5821.00,0.7232
5820.00,0.7290
5819.00,0.7355
5818.00,0.7426
5817.00,0.7504
5816.00,0.7587
5815.00,0.7676
5814.00,0.7769
5813.00,0.7866
5812.00,0.7964
5811.00,0.8064
5810.00,0.8167
5809.00,0.8272
5808.00,0.8380
5807.00,0.8490
5806.00,0.8603
5805.00,0.8719
5804.00,0.8836
5803.00,0.8953
5802.00,0.9072
5801.00,0.9191
5800.00,0.9309
5799.00,0.9426
5798.00,0.9543
5797.00,0.9659
5796.00,0.9773
5795.00,0.9885
5794.00,0.9996
5793.00,1.0106
5792.00,1.0216
5791.00,1.0322
5790.00,1.0425
5789.00,1.0526
5788.00,1.0625
5787.00,1.0723
5786.00,1.0819
5785.00,1.0913
5784.00,1.1004
5783.00,1.1093
5782.00,1.1180
5781.00,1.1263
5780.00,1.1342
5779.00,1.1417
5778.00,1.1489
5777.00,1.1556
5776.00,1.1620
5775.00,1.1679
5774.00,1.1735
5773.00,1.1789
5772.00,1.1840
5771.00,1.1887
5770.00,1.1929
5769.00,1.1968
5768.00,1.2004
5767.00,1.2036
5766.00,1.2062
5765.00,1.2083
5764.00,1.2101
5763.00,1.2116
5762.00,1.2129
5761.00,1.2139
5760.00,1.2147
5759.00,1.2150
5758.00,1.2149
5757.00,1.2141
5756.00,1.2128
5755.00,1.2111
5754.00,1.2091
5753.00,1.2070
5752.00,1.2045
5751.00,1.2018
5750.00,1.1986
5749.00,1.1947
5748.00,1.1903
5747.00,1.1852
5746.00,1.1799
5745.00,1.1744
5744.00,1.1688
5743.00,1.1630
5742.00,1.1567
5741.00,1.1498
5740.00,1.1420
5739.00,1.1337
5738.00,1.1249
5737.00,1.1160
5736.00,1.1068
5735.00,1.0975
5734.00,1.0879
5733.00,1.0783
5732.00,1.0685
5731.00,1.0583
5730.00,1.0478
5729.00,1.0369
5728.00,1.0257
5727.00,1.0140
5726.00,1.0020
5725.00,0.9898
5724.00,0.9775
5723.00,0.9650
5722.00,0.9524
5721.00,0.9396
5720.00,0.9268
5719.00,0.9139
5718.00,0.9010
5717.00,0.8882
5716.00,0.8755
5715.00,0.8630
5714.00,0.8506
5713.00,0.8383
5712.00,0.8263
5711.00,0.8144
5710.00,0.8029
5709.00,0.7917
5708.00,0.7809
5707.00,0.7704
5706.00,0.7603
5705.00,0.7506
5704.00,0.7414
5703.00,0.7326
5702.00,0.7244
5701.00,0.7168
5700.00,0.7097
5699.00,0.7033
5698.00,0.6975
5697.00,0.6925
5696.00,0.6882
5695.00,0.6846
5694.00,0.6819
5693.00,0.6799
5692.00,0.6787
5691.00,0.6782
5690.00,0.6784
5689.00,0.6795
5688.00,0.6815
5687.00,0.6843
5686.00,0.6880
5685.00,0.6925
5684.00,0.6977
5683.00,0.7036
5682.00,0.7100
5681.00,0.7172
5680.00,0.7250
5679.00,0.7335
5678.00,0.7426
5677.00,0.7522
5676.00,0.7622
5675.00,0.7725
5674.00,0.7832
5673.00,0.7942
5672.00,0.8056
5671.00,0.8173
5670.00,0.8291
5669.00,0.8411
5668.00,0.8533
5667.00,0.8655
5666.00,0.8778
5665.00,0.8904
5664.00,0.9032
5663.00,0.9162
5662.00,0.9292
5661.00,0.9421
5660.00,0.9548
5659.00,0.9673
5658.00,0.9796
5657.00,0.9917
5656.00,1.0038
5655.00,1.0158
5654.00,1.0278
5653.00,1.0395
5652.00,1.0508
5651.00,1.0618
5650.00,1.0724
5649.00,1.0827
5648.00,1.0927
5647.00,1.1024
5646.00,1.1120
5645.00,1.1214
5644.00,1.1304
5643.00,1.1386
5642.00,1.1464
5641.00,1.1539
5640.00,1.1614
5639.00,1.1687
5638.00,1.1757
5637.00,1.1825
5636.00,1.1887
5635.00,1.1943
5634.00,1.1992
5633.00,1.2038
5632.00,1.2082
5631.00,1.2123
5630.00,1.2160
5629.00,1.2191
5628.00,1.2216
5627.00,1.2237
5626.00,1.2257
5625.00,1.2275
5624.00,1.2291
5623.00,1.2301
5622.00,1.2305
5621.00,1.2304
5620.00,1.2301
5619.00,1.2296
5618.00,1.2287
5617.00,1.2273
5616.00,1.2254
5615.00,1.2229
5614.00,1.2196
5613.00,1.2159
5612.00,1.2120
5611.00,1.2079
5610.00,1.2038
5609.00,1.1994
5608.00,1.1946
5607.00,1.1894
5606.00,1.1837
5605.00,1.1774
5604.00,1.1707
5603.00,1.1635
5602.00,1.1560
5601.00,1.1483
5600.00,1.1404
5599.00,1.1322
5598.00,1.1235
5597.00,1.1142
5596.00,1.1044
5595.00,1.0941
5594.00,1.0834
5593.00,1.0723
5592.00,1.0610
5591.00,1.0493
5590.00,1.0374
5589.00,1.0252
5588.00,1.0126
5587.00,0.9999
5586.00,0.9870
5585.00,0.9740
5584.00,0.9609
5583.00,0.9478
5582.00,0.9346
5581.00,0.9213
5580.00,0.9078
5579.00,0.8942
5578.00,0.8805
5577.00,0.8668
5576.00,0.8532
5575.00,0.8397
5574.00,0.8266
5573.00,0.8137
5572.00,0.8011
5571.00,0.7888
5570.00,0.7767
5569.00,0.7651
5568.00,0.7539
5567.00,0.7431
5566.00,0.7326
5565.00,0.7228
5564.00,0.7135
5563.00,0.7049
5562.00,0.6969
5561.00,0.6896
5560.00,0.6831
5559.00,0.6773
5558.00,0.6722
5557.00,0.6680
5556.00,0.6646
5555.00,0.6621
5554.00,0.6606
5553.00,0.6600
5552.00,0.6602
5551.00,0.6612
5550.00,0.6631
5549.00,0.6659
5548.00,0.6695
5547.00,0.6739
5546.00,0.6791
5545.00,0.6852
5544.00,0.6919
5543.00,0.6993
5542.00,0.7073
5541.00,0.7160
5540.00,0.7253
5539.00,0.7352
5538.00,0.7455
5537.00,0.7565
5536.00,0.7678
5535.00,0.7796
5534.00,0.7917
5533.00,0.8041
5532.00,0.8168
5531.00,0.8296
5530.00,0.8425
5529.00,0.8556
5528.00,0.8689
5527.00,0.8822
5526.00,0.8956
5525.00,0.9090
5524.00,0.9224
5523.00,0.9358
5522.00,0.9493
5521.00,0.9627
5520.00,0.9762
5519.00,0.9895
5518.00,1.0024
5517.00,1.0152
5516.00,1.0277
5515.00,1.0401
5514.00,1.0522
5513.00,1.0642
5512.00,1.0760
5511.00,1.0875
5510.00,1.0986
5509.00,1.1094
5508.00,1.1199
5507.00,1.1300
5506.00,1.1397
5505.00,1.1490
5504.00,1.1577
5503.00,1.1659
5502.00,1.1738
5501.00,1.1813
5500.00,1.1885
5499.00,1.1955
5498.00,1.2020
5497.00,1.2081
5496.00,1.2137
5495.00,1.2188
5494.00,1.2237
5493.00,1.2286
5492.00,1.2333
5491.00,1.2377
5490.00,1.2416
5489.00,1.2447
5488.00,1.2471
5487.00,1.2489
5486.00,1.2502
5485.00,1.2512
5484.00,1.2520
5483.00,1.2526
5482.00,1.2529
5481.00,1.2529
5480.00,1.2527
5479.00,1.2521
5478.00,1.2511
5477.00,1.2495
5476.00,1.2472
5475.00,1.2443
5474.00,1.2410
5473.00,1.2373
5472.00,1.2335
5471.00,1.2293
5470.00,1.2248
5469.00,1.2198
5468.00,1.2144
5467.00,1.2084
5466.00,1.2020
5465.00,1.1954
5464.00,1.1885
5463.00,1.1814
5462.00,1.1738
5461.00,1.1656
5460.00,1.1568
5459.00,1.1473
5458.00,1.1375
5457.00,1.1273
5456.00,1.1169
5455.00,1.1064
5454.00,1.0957
5453.00,1.0847
5452.00,1.0730
5451.00,1.0608
5450.00,1.0483
5449.00,1.0357
5448.00,1.0228
5447.00,1.0096
5446.00,0.9962
5445.00,0.9825
5444.00,0.9687
5443.00,0.9546
5442.00,0.9404
5441.00,0.9262
5440.00,0.9122
5439.00,0.8983
5438.00,0.8845
5437.00,0.8709
5436.00,0.8573
5435.00,0.8437
5434.00,0.8303
5433.00,0.8172
5432.00,0.8047
5431.00,0.7925
5430.00,0.7807
5429.00,0.7691
5428.00,0.7580
5427.00,0.7473
5426.00,0.7373
5425.00,0.7280
5424.00,0.7194
5423.00,0.7115
5422.00,0.7043
5421.00,0.6979
5420.00,0.6923
5419.00,0.6877
5418.00,0.6839
5417.00,0.6809
5416.00,0.6787
5415.00,0.6773
5414.00,0.6766
5413.00,0.6768
5412.00,0.6778
5411.00,0.6797
5410.00,0.6826
5409.00,0.6866
5408.00,0.6915
5407.00,0.6973
5406.00,0.7040
5405.00,0.7114
5404.00,0.7196
5403.00,0.7285
5402.00,0.7380
5401.00,0.7480
5400.00,0.7586
5399.00,0.7696
5398.00,0.7811
5397.00,0.7931
5396.00,0.8055
5395.00,0.8183
5394.00,0.8314
5393.00,0.8447
5392.00,0.8583
5391.00,0.8719
5390.00,0.8858
5389.00,0.8996
5388.00,0.9136
5387.00,0.9277
5386.00,0.9418
5385.00,0.9559
5384.00,0.9699
5383.00,0.9838
5382.00,0.9977
5381.00,1.0114
5380.00,1.0249
5379.00,1.0381
5378.00,1.0510
5377.00,1.0637
5376.00,1.0761
5375.00,1.0882
5374.00,1.1000
5373.00,1.1115
5372.00,1.1226
5371.00,1.1334
5370.00,1.1440
5369.00,1.1542
5368.00,1.1643
5367.00,1.1739
5366.00,1.1830
5365.00,1.1917
5364.00,1.1999
5363.00,1.2077
5362.00,1.2152
5361.00,1.2222
5360.00,1.2291
5359.00,1.2357
5358.00,1.2419
5357.00,1.2476
5356.00,1.2526
5355.00,1.2571
5354.00,1.2611
5353.00,1.2647
5352.00,1.2678
5351.00,1.2706
5350.00,1.2728
5349.00,1.2747
5348.00,1.2762
5347.00,1.2774
5346.00,1.2783
5345.00,1.2789
5344.00,1.2793
5343.00,1.2793
5342.00,1.2788
5341.00,1.2780
5340.00,1.2769
5339.00,1.2753
5338.00,1.2732
5337.00,1.2706
5336.00,1.2675
5335.00,1.2640
5334.00,1.2601
5333.00,1.2558
5332.00,1.2511
5331.00,1.2460
5330.00,1.2404
5329.00,1.2343
5328.00,1.2278
5327.00,1.2209
5326.00,1.2136
5325.00,1.2057
5324.00,1.1975
5323.00,1.1890
5322.00,1.1802
5321.00,1.1711
5320.00,1.1617
5319.00,1.1518
5318.00,1.1415
5317.00,1.1306
5316.00,1.1192
5315.00,1.1074
5314.00,1.0953
5313.00,1.0827
5312.00,1.0699
5311.00,1.0569
5310.00,1.0435
5309.00,1.0298
5308.00,1.0157
5307.00,1.0011
5306.00,0.9864
5305.00,0.9715
5304.00,0.9566
5303.00,0.9419
5302.00,0.9271
5301.00,0.9124
5300.00,0.8976
5299.00,0.8830
5298.00,0.8685
5297.00,0.8542
5296.00,0.8401
5295.00,0.8265
5294.00,0.8132
5293.00,0.8003
5292.00,0.7876
5291.00,0.7753
5290.00,0.7634
5289.00,0.7522
5288.00,0.7416
5287.00,0.7319
5286.00,0.7229
5285.00,0.7148
5284.00,0.7074
5283.00,0.7008
5282.00,0.6950
5281.00,0.6900
5280.00,0.6859
5279.00,0.6825
5278.00,0.6801
5277.00,0.6787
5276.00,0.6782
5275.00,0.6786
5274.00,0.6801
5273.00,0.6825
5272.00,0.6858
5271.00,0.6899
5270.00,0.6950
5269.00,0.7009
5268.00,0.7077
5267.00,0.7152
5266.00,0.7235
5265.00,0.7325
5264.00,0.7422
5263.00,0.7526
5262.00,0.7636
5261.00,0.7752
5260.00,0.7873
5259.00,0.7998
5258.00,0.8125
5257.00,0.8254
5256.00,0.8387
5255.00,0.8522
5254.00,0.8661
5253.00,0.8803
5252.00,0.8946
5251.00,0.9089
5250.00,0.9231
5249.00,0.9373
5248.00,0.9515
5247.00,0.9657
5246.00,0.9800
5245.00,0.9943
5244.00,1.0086
5243.00,1.0228
5242.00,1.0369
5241.00,1.0507
5240.00,1.0642
5239.00,1.0775
5238.00,1.0905
5237.00,1.1033
5236.00,1.1158
5235.00,1.1281
5234.00,1.1399
5233.00,1.1513
5232.00,1.1624
5231.00,1.1731
5230.00,1.1834
5229.00,1.1933
5228.00,1.2028
5227.00,1.2121
5226.00,1.2211
5225.00,1.2297
5224.00,1.2378
5223.00,1.2455
5222.00,1.2528
5221.00,1.2595
5220.00,1.2657
5219.00,1.2718
5218.00,1.2776
5217.00,1.2831
5216.00,1.2880
5215.00,1.2925
5214.00,1.2966
5213.00,1.3002
5212.00,1.3033
5211.00,1.3061
5210.00,1.3086
5209.00,1.3107
5208.00,1.3122
5207.00,1.3129
5206.00,1.3132
5205.00,1.3132
5204.00,1.3129
5203.00,1.3124
5202.00,1.3118
5201.00,1.3111
5200.00,1.3102
5199.00,1.3088
5198.00,1.3068
5197.00,1.3042
5196.00,1.3009
5195.00,1.2969
5194.00,1.2924
5193.00,1.2878
5192.00,1.2830
5191.00,1.2778
5190.00,1.2721
5189.00,1.2659
5188.00,1.2592
5187.00,1.2520
5186.00,1.2443
5185.00,1.2363
5184.00,1.2278
5183.00,1.2187
5182.00,1.2092
5181.00,1.1992
5180.00,1.1889
5179.00,1.1783
5178.00,1.1673
5177.00,1.1559
5176.00,1.1438
5175.00,1.1314
5174.00,1.1185
5173.00,1.1053
5172.00,1.0919
5171.00,1.0781
5170.00,1.0641
5169.00,1.0497
5168.00,1.0350
5167.00,1.0201
5166.00,1.0049
5165.00,0.9897
5164.00,0.9744
5163.00,0.9591
5162.00,0.9437
5161.00,0.9282
5160.00,0.9128
5159.00,0.8974
5158.00,0.8822
5157.00,0.8672
5156.00,0.8525
5155.00,0.8381
5154.00,0.8239
5153.00,0.8102
5152.00,0.7970
5151.00,0.7843
5150.00,0.7722
5149.00,0.7607
5148.00,0.7498
5147.00,0.7397
5146.00,0.7302
5145.00,0.7216
5144.00,0.7138
5143.00,0.7068
5142.00,0.7008
5141.00,0.6957
5140.00,0.6916
5139.00,0.6886
5138.00,0.6866
5137.00,0.6856
5136.00,0.6857
5135.00,0.6868
5134.00,0.6890
5133.00,0.6922
5132.00,0.6964
5131.00,0.7016
5130.00,0.7078
5129.00,0.7149
5128.00,0.7229
5127.00,0.7317
5126.00,0.7414
5125.00,0.7518
5124.00,0.7628
5123.00,0.7745
5122.00,0.7867
5121.00,0.7995
5120.00,0.8127
5119.00,0.8264
5118.00,0.8406
5117.00,0.8550
5116.00,0.8696
5115.00,0.8845
5114.00,0.8996
5113.00,0.9149
5112.00,0.9304
5111.00,0.9460
5110.00,0.9617
5109.00,0.9773
5108.00,0.9929
5107.00,1.0082
5106.00,1.0235
5105.00,1.0385
5104.00,1.0535
5103.00,1.0682
5102.00,1.0826
5101.00,1.0968
5100.00,1.1108
5099.00,1.1245
5098.00,1.1379
5097.00,1.1509
5096.00,1.1634
5095.00,1.1754
5094.00,1.1869
5093.00,1.1981
5092.00,1.2089
5091.00,1.2195
5090.00,1.2299
5089.00,1.2400
5088.00,1.2496
5087.00,1.2586
5086.00,1.2670
5085.00,1.2748
5084.00,1.2820
5083.00,1.2888
5082.00,1.2953
5081.00,1.3015
5080.00,1.3073
5079.00,1.3126
5078.00,1.3174
5077.00,1.3219
5076.00,1.3260
5075.00,1.3298
5074.00,1.3331
5073.00,1.3360
5072.00,1.3383
5071.00,1.3402
5070.00,1.3418
5069.00,1.3431
5068.00,1.3441
5067.00,1.3446
5066.00,1.3446
5065.00,1.3440
5064.00,1.3430
5063.00,1.3415
5062.00,1.3396
5061.00,1.3375
5060.00,1.3350
5059.00,1.3320
5058.00,1.3285
5057.00,1.3247
5056.00,1.3205
5055.00,1.3159
5054.00,1.3108
5053.00,1.3053
5052.00,1.2993
5051.00,1.2930
5050.00,1.2861
5049.00,1.2787
5048.00,1.2710
5047.00,1.2628
5046.00,1.2539
5045.00,1.2446
5044.00,1.2348
5043.00,1.2248
5042.00,1.2144
5041.00,1.2036
5040.00,1.1923
5039.00,1.1805
5038.00,1.1681
5037.00,1.1551
5036.00,1.1418
5035.00,1.1282
5034.00,1.1143
5033.00,1.1000
5032.00,1.0852
5031.00,1.0701
5030.00,1.0548
5029.00,1.0392
5028.00,1.0233
5027.00,1.0073
5026.00,0.9911
5025.00,0.9749
5024.00,0.9585
5023.00,0.9421
5022.00,0.9257
5021.00,0.9094
5020.00,0.8933
5019.00,0.8774
5018.00,0.8619
5017.00,0.8467
5016.00,0.8319
5015.00,0.8175
5014.00,0.8037
5013.00,0.7904
5012.00,0.7778
5011.00,0.7658
5010.00,0.7545
5009.00,0.7438
5008.00,0.7340
5007.00,0.7250
5006.00,0.7169
5005.00,0.7099
5004.00,0.7038
5003.00,0.6987
5002.00,0.6946
5001.00,0.6915
5000.00,0.6893
4999.00,0.6882
4998.00,0.6881
4997.00,0.6891
4996.00,0.6912
4995.00,0.6942
4994.00,0.6983
4993.00,0.7034
4992.00,0.7094
4991.00,0.7164
4990.00,0.7242
4989.00,0.7329
4988.00,0.7425
4987.00,0.7528
4986.00,0.7640
4985.00,0.7759
4984.00,0.7885
4983.00,0.8017
4982.00,0.8155
4981.00,0.8298
4980.00,0.8445
4979.00,0.8596
4978.00,0.8751
4977.00,0.8910
4976.00,0.9071
4975.00,0.9235
4974.00,0.9399
4973.00,0.9564
4972.00,0.9728
4971.00,0.9891
4970.00,1.0055
4969.00,1.0217
4968.00,1.0379
4967.00,1.0539
4966.00,1.0696
4965.00,1.0850
4964.00,1.1001
4963.00,1.1150
4962.00,1.1295
4961.00,1.1438
4960.00,1.1577
4959.00,1.1712
4958.00,1.1845
4957.00,1.1974
4956.00,1.2099
4955.00,1.2220
4954.00,1.2335
4953.00,1.2446
4952.00,1.2551
4951.00,1.2654
4950.00,1.2754
4949.00,1.2851
4948.00,1.2944
4947.00,1.3031
4946.00,1.3111
4945.00,1.3186
4944.00,1.3255
4943.00,1.3320
4942.00,1.3382
4941.00,1.3440
4940.00,1.3493
4939.00,1.3540
4938.00,1.3582
4937.00,1.3620
4936.00,1.3656
4935.00,1.3689
4934.00,1.3718
4933.00,1.3744
4932.00,1.3766
4931.00,1.3785
4930.00,1.3798
4929.00,1.3807
4928.00,1.3811
4927.00,1.3810
4926.00,1.3806
4925.00,1.3797
4924.00,1.3785
4923.00,1.3767
4922.00,1.3746
4921.00,1.3721
4920.00,1.3692
4919.00,1.3661
4918.00,1.3624
4917.00,1.3581
4916.00,1.3532
4915.00,1.3480
4914.00,1.3425
4913.00,1.3367
4912.00,1.3304
4911.00,1.3234
4910.00,1.3157
4909.00,1.3076
4908.00,1.2990
4907.00,1.2901
4906.00,1.2809
4905.00,1.2713
4904.00,1.2612
4903.00,1.2505
4902.00,1.2393
4901.00,1.2275
4900.00,1.2153
4899.00,1.2027
4898.00,1.1896
4897.00,1.1761
4896.00,1.1622
4895.00,1.1478
4894.00,1.1329
4893.00,1.1177
4892.00,1.1022
4891.00,1.0864
4890.00,1.0703
4889.00,1.0539
4888.00,1.0372
4887.00,1.0202
4886.00,1.0030
4885.00,0.9858
4884.00,0.9686
4883.00,0.9514
4882.00,0.9345
4881.00,0.9176
4880.00,0.9009
4879.00,0.8843
4878.00,0.8680
4877.00,0.8520
4876.00,0.8364
4875.00,0.8215
4874.00,0.8071
4873.00,0.7934
4872.00,0.7802
4871.00,0.7677
4870.00,0.7559
4869.00,0.7449
4868.00,0.7348
4867.00,0.7257
4866.00,0.7177
4865.00,0.7107
4864.00,0.7049
4863.00,0.7003
4862.00,0.6968
4861.00,0.6944
4860.00,0.6933
4859.00,0.6934
4858.00,0.6948
4857.00,0.6974
4856.00,0.7012
4855.00,0.7063
4854.00,0.7125
4853.00,0.7197
4852.00,0.7280
4851.00,0.7372
4850.00,0.7475
4849.00,0.7586
4848.00,0.7705
4847.00,0.7832
4846.00,0.7966
4845.00,0.8106
4844.00,0.8252
4843.00,0.8403
4842.00,0.8559
4841.00,0.8719
4840.00,0.8883
4839.00,0.9049
4838.00,0.9218
4837.00,0.9388
4836.00,0.9559
4835.00,0.9731
4834.00,0.9903
4833.00,1.0077
4832.00,1.0250
4831.00,1.0423
4830.00,1.0594
4829.00,1.0762
4828.00,1.0928
4827.00,1.1090
4826.00,1.1249
4825.00,1.1404
4824.00,1.1556
4823.00,1.1704
4822.00,1.1849
4821.00,1.1991
4820.00,1.2129
4819.00,1.2263
4818.00,1.2392
4817.00,1.2516
4816.00,1.2636
4815.00,1.2754
4814.00,1.2869
4813.00,1.2979
4812.00,1.3085
4811.00,1.3183
4810.00,1.3275
4809.00,1.3362
4808.00,1.3444
4807.00,1.3523
4806.00,1.3598
4805.00,1.3668
4804.00,1.3734
4803.00,1.3794
4802.00,1.3849
4801.00,1.3899
4800.00,1.3944
4799.00,1.3987
4798.00,1.4026
4797.00,1.4061
4796.00,1.4092
4795.00,1.4119
4794.00,1.4140
4793.00,1.4156
4792.00,1.4165
4791.00,1.4169
4790.00,1.4169
4789.00,1.4164
4788.00,1.4158
4787.00,1.4151
4786.00,1.4140
4785.00,1.4125
4784.00,1.4104
4783.00,1.4076
4782.00,1.4044
4781.00,1.4008
4780.00,1.3968
4779.00,1.3922
4778.00,1.3871
4777.00,1.3815
4776.00,1.3756
4775.00,1.3696
4774.00,1.3634
4773.00,1.3568
4772.00,1.3495
4771.00,1.3413
4770.00,1.3326
4769.00,1.3233
4768.00,1.3136
4767.00,1.3036
4766.00,1.2932
4765.00,1.2824
4764.00,1.2710
4763.00,1.2589
4762.00,1.2464
4761.00,1.2334
4760.00,1.2200
4759.00,1.2061
4758.00,1.1917
4757.00,1.1768
4756.00,1.1615
4755.00,1.1457
4754.00,1.1297
4753.00,1.1134
4752.00,1.0965
4751.00,1.0793
4750.00,1.0618
4749.00,1.0441
4748.00,1.0264
4747.00,1.0086
4746.00,0.9908
4745.00,0.9729
4744.00,0.9550
4743.00,0.9372
4742.00,0.9196
4741.00,0.9023
4740.00,0.8852
4739.00,0.8685
4738.00,0.8522
4737.00,0.8363
4736.00,0.8209
4735.00,0.8061
4734.00,0.7920
4733.00,0.7787
4732.00,0.7662
4731.00,0.7545
4730.00,0.7438
4729.00,0.7340
4728.00,0.7253
4727.00,0.7176
4726.00,0.7112
4725.00,0.7058
4724.00,0.7017
4723.00,0.6989
4722.00,0.6973
4721.00,0.6972
4720.00,0.6983
4719.00,0.7008
4718.00,0.7046
4717.00,0.7098
4716.00,0.7161
4715.00,0.7236
4714.00,0.7323
4713.00,0.7420
4712.00,0.7527
4711.00,0.7644
4710.00,0.7771
4709.00,0.7906
4708.00,0.8048
4707.00,0.8196
4706.00,0.8352
4705.00,0.8513
4704.00,0.8678
4703.00,0.8848
4702.00,0.9022
4701.00,0.9199
4700.00,0.9379
4699.00,0.9560
4698.00,0.9742
4697.00,0.9925
4696.00,1.0107
4695.00,1.0287
4694.00,1.0467
4693.00,1.0646
4692.00,1.0824
4691.00,1.1002
4690.00,1.1178
4689.00,1.1352
4688.00,1.1522
4687.00,1.1688
4686.00,1.1848
4685.00,1.2004
4684.00,1.2155
4683.00,1.2303
4682.00,1.2447
4681.00,1.2588
4680.00,1.2724
4679.00,1.2856
4678.00,1.2981
4677.00,1.3102
4676.00,1.3219
4675.00,1.3331
4674.00,1.3437
4673.00,1.3539
4672.00,1.3635
4671.00,1.3725
4670.00,1.3810
4669.00,1.3890
4668.00,1.3967
4667.00,1.4041
4666.00,1.4112
4665.00,1.4179
4664.00,1.4240
4663.00,1.4293
4662.00,1.4338
4661.00,1.4379
4660.00,1.4420
4659.00,1.4460
4658.00,1.4497
4657.00,1.4528
4656.00,1.4552
4655.00,1.4568
4654.00,1.4579
4653.00,1.4589
4652.00,1.4596
4651.00,1.4599
4650.00,1.4598
4649.00,1.4594
4648.00,1.4587
4647.00,1.4575
4646.00,1.4557
4645.00,1.4533
4644.00,1.4503
4643.00,1.4471
4642.00,1.4437
4641.00,1.4401
4640.00,1.4360
4639.00,1.4312
4638.00,1.4255
4637.00,1.4193
4636.00,1.4125
4635.00,1.4052
4634.00,1.3976
4633.00,1.3896
4632.00,1.3813
4631.00,1.3725
4630.00,1.3632
4629.00,1.3534
4628.00,1.3430
4627.00,1.3320
4626.00,1.3206
4625.00,1.3086
4624.00,1.2962
4623.00,1.2835
4622.00,1.2702
4621.00,1.2565
4620.00,1.2421
4619.00,1.2271
4618.00,1.2115
4617.00,1.1955
4616.00,1.1791
4615.00,1.1623
4614.00,1.1450
4613.00,1.1274
4612.00,1.1094
4611.00,1.0911
4610.00,1.0726
4609.00,1.0539
4608.00,1.0349
4607.00,1.0158
4606.00,0.9966
4605.00,0.9775
4604.00,0.9584
4603.00,0.9394
4602.00,0.9207
4601.00,0.9023
4600.00,0.8842
4599.00,0.8666
4598.00,0.8497
4597.00,0.8334
4596.00,0.8179
4595.00,0.8032
4594.00,0.7893
4593.00,0.7762
4592.00,0.7641
4591.00,0.7531
4590.00,0.7431
4589.00,0.7344
4588.00,0.7270
4587.00,0.7208
4586.00,0.7160
4585.00,0.7126
4584.00,0.7107
4583.00,0.7102
4582.00,0.7113
4581.00,0.7138
4580.00,0.7177
4579.00,0.7230
4578.00,0.7296
4577.00,0.7375
4576.00,0.7466
4575.00,0.7569
4574.00,0.7684
4573.00,0.7810
4572.00,0.7945
4571.00,0.8089
4570.00,0.8241
4569.00,0.8400
4568.00,0.8565
4567.00,0.8735
4566.00,0.8911
4565.00,0.9092
4564.00,0.9275
4563.00,0.9461
4562.00,0.9650
4561.00,0.9840
4560.00,1.0032
4559.00,1.0224
4558.00,1.0415
4557.00,1.0606
4556.00,1.0796
4555.00,1.0984
4554.00,1.1171
4553.00,1.1356
4552.00,1.1539
4551.00,1.1720
4550.00,1.1898
4549.00,1.2070
4548.00,1.2237
4547.00,1.2399
4546.00,1.2555
4545.00,1.2707
4544.00,1.2856
4543.00,1.2999
4542.00,1.3137
4541.00,1.3268
4540.00,1.3396
4539.00,1.3520
4538.00,1.3640
4537.00,1.3755
4536.00,1.3861
4535.00,1.3961
4534.00,1.4054
4533.00,1.4142
4532.00,1.4226
4531.00,1.4305
4530.00,1.4381
4529.00,1.4452
4528.00,1.4520
4527.00,1.4585
4526.00,1.4645
4525.00,1.4699
4524.00,1.4750
4523.00,1.4797
4522.00,1.4843
4521.00,1.4885
4520.00,1.4923
4519.00,1.4956
4518.00,1.4984
4517.00,1.5008
4516.00,1.5029
4515.00,1.5046
4514.00,1.5058
4513.00,1.5066
4512.00,1.5068
4511.00,1.5064
4510.00,1.5054
4509.00,1.5039
4508.00,1.5020
4507.00,1.4998
4506.00,1.4971
4505.00,1.4939
4504.00,1.4900
4503.00,1.4856
4502.00,1.4807
4501.00,1.4755
4500.00,1.4700
4499.00,1.4641
4498.00,1.4576
4497.00,1.4506
4496.00,1.4430
4495.00,1.4350
4494.00,1.4262
4493.00,1.4169
4492.00,1.4069
4491.00,1.3964
4490.00,1.3855
4489.00,1.3743
4488.00,1.3627
4487.00,1.3506
4486.00,1.3379
4485.00,1.3247
4484.00,1.3111
4483.00,1.2971
4482.00,1.2826
4481.00,1.2677
4480.00,1.2521
4479.00,1.2358
4478.00,1.2188
4477.00,1.2014
4476.00,1.1836
4475.00,1.1655
4474.00,1.1471
4473.00,1.1286
4472.00,1.1099
4471.00,1.0910
4470.00,1.0720
4469.00,1.0530
4468.00,1.0340
4467.00,1.0152
4466.00,0.9967
4465.00,0.9786
4464.00,0.9609
4463.00,0.9437
4462.00,0.9271
4461.00,0.9112
4460.00,0.8962
4459.00,0.8821
4458.00,0.8690
4457.00,0.8569
4456.00,0.8460
4455.00,0.8364
4454.00,0.8281
4453.00,0.8213
4452.00,0.8160
4451.00,0.8121
4450.00,0.8096
4449.00,0.8085
4448.00,0.8088
4447.00,0.8105
4446.00,0.8136
4445.00,0.8178
4444.00,0.8229
4443.00,0.8289
4442.00,0.8355
4441.00,0.8427
4440.00,0.8502
4439.00,0.8580
4438.00,0.8659
4437.00,0.8738
4436.00,0.8819
4435.00,0.8901
4434.00,0.8986
4433.00,0.9075
4432.00,0.9168
4431.00,0.9268
4430.00,0.9375
4429.00,0.9491
4428.00,0.9615
4427.00,0.9748
4426.00,0.9889
4425.00,1.0037
4424.00,1.0194
4423.00,1.0359
4422.00,1.0531
4421.00,1.0709
4420.00,1.0890
4419.00,1.1074
4418.00,1.1260
4417.00,1.1446
4416.00,1.1634
4415.00,1.1821
4414.00,1.2007
4413.00,1.2191
4412.00,1.2373
4411.00,1.2552
4410.00,1.2730
4409.00,1.2904
4408.00,1.3072
4407.00,1.3234
4406.00,1.3389
4405.00,1.3538
4404.00,1.3682
4403.00,1.3822
4402.00,1.3956
4401.00,1.4086
4400.00,1.4210
4399.00,1.4327
4398.00,1.4438
4397.00,1.4541
4396.00,1.4637
4395.00,1.4727
4394.00,1.4813
4393.00,1.4893
4392.00,1.4968
4391.00,1.5037
4390.00,1.5102
4389.00,1.5164
4388.00,1.5225
4387.00,1.5283
4386.00,1.5337
4385.00,1.5386
4384.00,1.5432
4383.00,1.5477
4382.00,1.5519
4381.00,1.5558
4380.00,1.5594
4379.00,1.5625
4378.00,1.5651
4377.00,1.5673
4376.00,1.5689
4375.00,1.5699
4374.00,1.5706
4373.00,1.5710
4372.00,1.5711
4371.00,1.5709
4370.00,1.5702
4369.00,1.5689
4368.00,1.5673
4367.00,1.5655
4366.00,1.5634
4365.00,1.5611
4364.00,1.5585
4363.00,1.5553
4362.00,1.5516
4361.00,1.5472
4360.00,1.5423
4359.00,1.5368
4358.00,1.5307
4357.00,1.5241
4356.00,1.5169
4355.00,1.5092
4354.00,1.5010
4353.00,1.4922
4352.00,1.4829
4351.00,1.4730
4350.00,1.4626
4349.00,1.4517
4348.00,1.4404
4347.00,1.4286
4346.00,1.4161
4345.00,1.4030
4344.00,1.3890
4343.00,1.3744
4342.00,1.3592
4341.00,1.3437
4340.00,1.3278
4339.00,1.3114
4338.00,1.2944
4337.00,1.2766
4336.00,1.2581
4335.00,1.2390
4334.00,1.2196
4333.00,1.1999
4332.00,1.1799
4331.00,1.1596
4330.00,1.1392
4329.00,1.1186
4328.00,1.0981
4327.00,1.0776
4326.00,1.0574
4325.00,1.0375
4324.00,1.0179
4323.00,0.9986
4322.00,0.9797
4321.00,0.9611
4320.00,0.9428
4319.00,0.9248
4318.00,0.9071
4317.00,0.8896
4316.00,0.8726
4315.00,0.8562
4314.00,0.8406
4313.00,0.8259
4312.00,0.8123
4311.00,0.8001
4310.00,0.7892
4309.00,0.7799
4308.00,0.7721
4307.00,0.7660
4306.00,0.7616
4305.00,0.7590
4304.00,0.7581
4303.00,0.7590
4302.00,0.7616
4301.00,0.7660
4300.00,0.7720
4299.00,0.7798
4298.00,0.7891
4297.00,0.7999
4296.00,0.8121
4295.00,0.8255
4294.00,0.8400
4293.00,0.8555
4292.00,0.8720
4291.00,0.8893
4290.00,0.9074
4289.00,0.9261
4288.00,0.9454
4287.00,0.9650
4286.00,0.9851
4285.00,1.0054
4284.00,1.0261
4283.00,1.0469
4282.00,1.0679
4281.00,1.0889
4280.00,1.1099
4279.00,1.1308
4278.00,1.1516
4277.00,1.1723
4276.00,1.1927
4275.00,1.2129
4274.00,1.2327
4273.00,1.2522
4272.00,1.2711
4271.00,1.2896
4270.00,1.3074
4269.00,1.3247
4268.00,1.3414
4267.00,1.3575
4266.00,1.3730
4265.00,1.3880
4264.00,1.4024
4263.00,1.4165
4262.00,1.4301
4261.00,1.4432
4260.00,1.4557
4259.00,1.4676
4258.00,1.4789
4257.00,1.4899
4256.00,1.5003
4255.00,1.5101
4254.00,1.5195
4253.00,1.5285
4252.00,1.5369
4251.00,1.5447
4250.00,1.5520
4249.00,1.5586
4248.00,1.5646
4247.00,1.5699
4246.00,1.5746
4245.00,1.5789
4244.00,1.5830
4243.00,1.5869
4242.00,1.5906
4241.00,1.5939
4240.00,1.5967
4239.00,1.5991
4238.00,1.6009
4237.00,1.6021
4236.00,1.6028
4235.00,1.6030
4234.00,1.6027
4233.00,1.6019
4232.00,1.6009
4231.00,1.5995
4230.00,1.5977
4229.00,1.5955
4228.00,1.5927
4227.00,1.5893
4226.00,1.5854
4225.00,1.5811
4224.00,1.5766
4223.00,1.5716
4222.00,1.5662
4221.00,1.5604
4220.00,1.5540
4219.00,1.5472
4218.00,1.5398
4217.00,1.5319
4216.00,1.5235
4215.00,1.5144
4214.00,1.5046
4213.00,1.4941
4212.00,1.4830
4211.00,1.4713
4210.00,1.4591
4209.00,1.4466
4208.00,1.4337
4207.00,1.4203
4206.00,1.4063
4205.00,1.3916
4204.00,1.3761
4203.00,1.3598
4202.00,1.3428
4201.00,1.3252
4200.00,1.3069
4199.00,1.2881
4198.00,1.2687
4197.00,1.2487
4196.00,1.2282
4195.00,1.2073
4194.00,1.1859
4193.00,1.1642
4192.00,1.1421
4191.00,1.1197
4190.00,1.0970
4189.00,1.0741
4188.00,1.0512
4187.00,1.0284
4186.00,1.0057
4185.00,0.9834
4184.00,0.9615
4183.00,0.9402
4182.00,0.9194
4181.00,0.8994
4180.00,0.8802
4179.00,0.8619
4178.00,0.8446
4177.00,0.8285
4176.00,0.8136
4175.00,0.7999
4174.00,0.7877
4173.00,0.7769
4172.00,0.7678
4171.00,0.7603
4170.00,0.7546
4169.00,0.7506
4168.00,0.7485
4167.00,0.7481
4166.00,0.7496
4165.00,0.7528
4164.00,0.7579
4163.00,0.7648
4162.00,0.7735
4161.00,0.7838
4160.00,0.7957
4159.00,0.8090
4158.00,0.8237
4157.00,0.8396
4156.00,0.8566
4155.00,0.8746
4154.00,0.8936
4153.00,0.9132
4152.00,0.9336
4151.00,0.9546
4150.00,0.9761
4149.00,0.9980
4148.00,1.0202
4147.00,1.0426
4146.00,1.0652
4145.00,1.0878
4144.00,1.1105
4143.00,1.1331
4142.00,1.1555
4141.00,1.1778
4140.00,1.1999
4139.00,1.2216
4138.00,1.2430
4137.00,1.2641
4136.00,1.2847
4135.00,1.3050
4134.00,1.3247
4133.00,1.3439
4132.00,1.3625
4131.00,1.3805
4130.00,1.3978
4129.00,1.4144
4128.00,1.4301
4127.00,1.4452
4126.00,1.4597
4125.00,1.4739
4124.00,1.4878
4123.00,1.5012
4122.00,1.5139
4121.00,1.5258
4120.00,1.5370
4119.00,1.5477
4118.00,1.5579
4117.00,1.5677
4116.00,1.5771
4115.00,1.5860
4114.00,1.5944
4113.00,1.6020
4112.00,1.6090
4111.00,1.6152
4110.00,1.6209
4109.00,1.6263
4108.00,1.6313
4107.00,1.6360
4106.00,1.6404
4105.00,1.6444
4104.00,1.6478
4103.00,1.6507
4102.00,1.6533
4101.00,1.6558
4100.00,1.6580
4099.00,1.6594
4098.00,1.6600
4097.00,1.6598
4096.00,1.6594
4095.00,1.6591
4094.00,1.6585
4093.00,1.6573
4092.00,1.6552
4091.00,1.6524
4090.00,1.6493
4089.00,1.6461
4088.00,1.6429
4087.00,1.6392
4086.00,1.6350
4085.00,1.6299
4084.00,1.6243
4083.00,1.6182
4082.00,1.6118
4081.00,1.6050
4080.00,1.5978
4079.00,1.5899
4078.00,1.5814
4077.00,1.5722
4076.00,1.5623
4075.00,1.5520
4074.00,1.5411
4073.00,1.5297
4072.00,1.5176
4071.00,1.5049
4070.00,1.4917
4069.00,1.4781
4068.00,1.4639
4067.00,1.4493
4066.00,1.4340
4065.00,1.4180
4064.00,1.4013
4063.00,1.3837
4062.00,1.3654
4061.00,1.3465
4060.00,1.3269
4059.00,1.3067
4058.00,1.2859
4057.00,1.2645
4056.00,1.2426
4055.00,1.2202
4054.00,1.1975
4053.00,1.1745
4052.00,1.1512
4051.00,1.1278
4050.00,1.1044
4049.00,1.0812
4048.00,1.0583
4047.00,1.0358
4046.00,1.0139
4045.00,0.9926
4044.00,0.9720
4043.00,0.9523
4042.00,0.9336
4041.00,0.9161
4040.00,0.9000
4039.00,0.8854
4038.00,0.8723
4037.00,0.8607
4036.00,0.8508
4035.00,0.8425
4034.00,0.8357
4033.00,0.8306
4032.00,0.8269
4031.00,0.8245
4030.00,0.8234
4029.00,0.8233
4028.00,0.8245
4027.00,0.8268
4026.00,0.8303
4025.00,0.8351
4024.00,0.8412
4023.00,0.8486
4022.00,0.8575
4021.00,0.8679
4020.00,0.8799
4019.00,0.8934
4018.00,0.9083
4017.00,0.9245
4016.00,0.9417
4015.00,0.9600
4014.00,0.9793
4013.00,0.9994
4012.00,1.0202
4011.00,1.0417
4010.00,1.0637
4009.00,1.0863
4008.00,1.1094
4007.00,1.1328
4006.00,1.1563
4005.00,1.1796
4004.00,1.2028
4003.00,1.2258
4002.00,1.2486
4001.00,1.2712
4000.00,1.2934
3999.00,1.3152
3998.00,1.3367
3997.00,1.3576
3996.00,1.3781
3995.00,1.3981
3994.00,1.4174
3993.00,1.4362
3992.00,1.4543
3991.00,1.4716
3990.00,1.4881
3989.00,1.5038
3988.00,1.5190
3987.00,1.5337
3986.00,1.5481
3985.00,1.5619
3984.00,1.5751
3983.00,1.5877
3982.00,1.5994
3981.00,1.6104
3980.00,1.6209
3979.00,1.6308
3978.00,1.6402
3977.00,1.6489
3976.00,1.6567
3975.00,1.6638
3974.00,1.6704
3973.00,1.6767
3972.00,1.6827
3971.00,1.6884
3970.00,1.6938
3969.00,1.6987
3968.00,1.7032
3967.00,1.7072
3966.00,1.7107
3965.00,1.7138
3964.00,1.7164
3963.00,1.7187
3962.00,1.7207
3961.00,1.7221
3960.00,1.7227
3959.00,1.7226
3958.00,1.7221
3957.00,1.7216
3956.00,1.7209
3955.00,1.7200
3954.00,1.7185
3953.00,1.7164
3952.00,1.7138
3951.00,1.7106
3950.00,1.7070
3949.00,1.7031
3948.00,1.6987
3947.00,1.6939
3946.00,1.6885
3945.00,1.6824
3944.00,1.6758
3943.00,1.6688
3942.00,1.6614
3941.00,1.6532
3940.00,1.6444
3939.00,1.6352
3938.00,1.6257
3937.00,1.6161
3936.00,1.6062
3935.00,1.5953
3934.00,1.5832
3933.00,1.5699
3932.00,1.5556
3931.00,1.5407
3930.00,1.5255
3929.00,1.5100
3928.00,1.4942
3927.00,1.4779
3926.00,1.4607
3925.00,1.4427
3924.00,1.4239
3923.00,1.4048
3922.00,1.3852
3921.00,1.3650
3920.00,1.3440
3919.00,1.3219
3918.00,1.2983
3917.00,1.2736
3916.00,1.2483
3915.00,1.2229
3914.00,1.1979
3913.00,1.1729
3912.00,1.1477
3911.00,1.1222
3910.00,1.0966
3909.00,1.0713
3908.00,1.0467
3907.00,1.0228
3906.00,0.9993
3905.00,0.9756
3904.00,0.9518
3903.00,0.9281
3902.00,0.9052
3901.00,0.8835
3900.00,0.8632
3899.00,0.8444
3898.00,0.8274
3897.00,0.8129
3896.00,0.8009
3895.00,0.7915
3894.00,0.7845
3893.00,0.7798
3892.00,0.7768
3891.00,0.7753
3890.00,0.7757
3889.00,0.7784
3888.00,0.7835
3887.00,0.7907
3886.00,0.8001
3885.00,0.8116
3884.00,0.8248
3883.00,0.8395
3882.00,0.8561
3881.00,0.8750
3880.00,0.8958
3879.00,0.9178
3878.00,0.9399
3877.00,0.9617
3876.00,0.9838
3875.00,1.0070
3874.00,1.0319
3873.00,1.0577
3872.00,1.0834
3871.00,1.1090
3870.00,1.1352
3869.00,1.1624
3868.00,1.1895
3867.00,1.2154
3866.00,1.2403
3865.00,1.2652
3864.00,1.2909
3863.00,1.3167
3862.00,1.3418
3861.00,1.3655
3860.00,1.3880
3859.00,1.4098
3858.00,1.4308
3857.00,1.4503
3856.00,1.4676
3855.00,1.4836
3854.00,1.5006
3853.00,1.5192
3852.00,1.5384
3851.00,1.5568
3850.00,1.5737
3849.00,1.5892
3848.00,1.6035
3847.00,1.6168
3846.00,1.6292
3845.00,1.6404
3844.00,1.6509
3843.00,1.6609
3842.00,1.6708
3841.00,1.6806
3840.00,1.6902
3839.00,1.6994
3838.00,1.7080
3837.00,1.7158
3836.00,1.7228
3835.00,1.7294
3834.00,1.7360
3833.00,1.7427
3832.00,1.7491
3831.00,1.7549
3830.00,1.7597
3829.00,1.7636
3828.00,1.7666
3827.00,1.7691
3826.00,1.7714
3825.00,1.7733
3824.00,1.7744
3823.00,1.7748
3822.00,1.7751
3821.00,1.7754
3820.00,1.7755
3819.00,1.7759
3818.00,1.7763
3817.00,1.7763
3816.00,1.7752
3815.00,1.7731
3814.00,1.7702
3813.00,1.7668
3812.00,1.7628
3811.00,1.7587
3810.00,1.7544
3809.00,1.7492
3808.00,1.7427
3807.00,1.7348
3806.00,1.7264
3805.00,1.7180
3804.00,1.7099
3803.00,1.7016
3802.00,1.6924
3801.00,1.6819
3800.00,1.6708
3799.00,1.6601
3798.00,1.6499
3797.00,1.6392
3796.00,1.6276
3795.00,1.6153
3794.00,1.6025
3793.00,1.5891
3792.00,1.5748
3791.00,1.5593
3790.00,1.5426
3789.00,1.5246
3788.00,1.5054
3787.00,1.4854
3786.00,1.4646
3785.00,1.4430
3784.00,1.4205
3783.00,1.3974
3782.00,1.3737
3781.00,1.3494
3780.00,1.3243
3779.00,1.2986
3778.00,1.2723
3777.00,1.2455
3776.00,1.2182
3775.00,1.1904
3774.00,1.1624
3773.00,1.1345
3772.00,1.1067
3771.00,1.0787
3770.00,1.0504
3769.00,1.0223
3768.00,0.9954
3767.00,0.9700
3766.00,0.9455
3765.00,0.9219
3764.00,0.8995
3763.00,0.8790
3762.00,0.8605
3761.00,0.8439
3760.00,0.8294
3759.00,0.8167
3758.00,0.8062
3757.00,0.7982
3756.00,0.7932
3755.00,0.7911
3754.00,0.7915
3753.00,0.7945
3752.00,0.8008
3751.00,0.8105
3750.00,0.8229
3749.00,0.8384
3748.00,0.8570
3747.00,0.8783
3746.00,0.9017
3745.00,0.9275
3744.00,0.9562
3743.00,0.9867
3742.00,1.0173
3741.00,1.0475
3740.00,1.0780
3739.00,1.1092
3738.00,1.1405
3737.00,1.1719
3736.00,1.2039
3735.00,1.2370
3734.00,1.2706
3733.00,1.3038
3732.00,1.3361
3731.00,1.3671
3730.00,1.3959
3729.00,1.4218
3728.00,1.4449
3727.00,1.4656
3726.00,1.4848
3725.00,1.5028
3724.00,1.5199
3723.00,1.5360
3722.00,1.5514
3721.00,1.5670
3720.00,1.5838
3719.00,1.6018
3718.00,1.6202
3717.00,1.6388
3716.00,1.6574
3715.00,1.6758
3714.00,1.6937
3713.00,1.7120
3712.00,1.7313
3711.00,1.7513
3710.00,1.7707
3709.00,1.7883
3708.00,1.8040
3707.00,1.8174
3706.00,1.8287
3705.00,1.8384
3704.00,1.8471
3703.00,1.8550
3702.00,1.8621
3701.00,1.8687
3700.00,1.8746
3699.00,1.8796
3698.00,1.8835
3697.00,1.8865
3696.00,1.8888
3695.00,1.8897
3694.00,1.8891
3693.00,1.8877
3692.00,1.8870
3691.00,1.8878
3690.00,1.8895
3689.00,1.8907
3688.00,1.8905
3687.00,1.8893
3686.00,1.8880
3685.00,1.8868
3684.00,1.8853
3683.00,1.8827
3682.00,1.8790
3681.00,1.8745
3680.00,1.8698
3679.00,1.8648
3678.00,1.8594
3677.00,1.8541
3676.00,1.8488
3675.00,1.8430
3674.00,1.8368
3673.00,1.8313
3672.00,1.8264
3671.00,1.8217
3670.00,1.8163
3669.00,1.8099
3668.00,1.8028
3667.00,1.7955
3666.00,1.7881
3665.00,1.7805
3664.00,1.7727
3663.00,1.7644
3662.00,1.7554
3661.00,1.7460
3660.00,1.7365
3659.00,1.7269
3658.00,1.7166
3657.00,1.7047
3656.00,1.6912
3655.00,1.6767
3654.00,1.6626
3653.00,1.6489
3652.00,1.6353
3651.00,1.6215
3650.00,1.6075
3649.00,1.5933
3648.00,1.5784
3647.00,1.5635
3646.00,1.5492
3645.00,1.5362
3644.00,1.5239
3643.00,1.5118
3642.00,1.4994
3641.00,1.4868
3640.00,1.4742
3639.00,1.4617
3638.00,1.4491
3637.00,1.4365
3636.00,1.4238
3635.00,1.4110
3634.00,1.3984
3633.00,1.3866
3632.00,1.3755
3631.00,1.3643
3630.00,1.3517
3629.00,1.3369
3628.00,1.3204
3627.00,1.3040
3626.00,1.2892
3625.00,1.2764
3624.00,1.2649
3623.00,1.2542
3622.00,1.2439
3621.00,1.2334
3620.00,1.2229
3619.00,1.2128
3618.00,1.2040
3617.00,1.1976
3616.00,1.1939
3615.00,1.1931
3614.00,1.1949
3613.00,1.1993
3612.00,1.2058
3611.00,1.2135
3610.00,1.2218
3609.00,1.2305
3608.00,1.2401
3607.00,1.2505
3606.00,1.2617
3605.00,1.2734
3604.00,1.2859
3603.00,1.2990
3602.00,1.3130
3601.00,1.3280
3600.00,1.3437
3599.00,1.3601
3598.00,1.3768
3597.00,1.3937
3596.00,1.4110
3595.00,1.4286
3594.00,1.4465
3593.00,1.4646
3592.00,1.4828
3591.00,1.5006
3590.00,1.5177
3589.00,1.5346
3588.00,1.5517
3587.00,1.5693
3586.00,1.5871
3585.00,1.6049
3584.00,1.6224
3583.00,1.6396
3582.00,1.6564
3581.00,1.6729
3580.00,1.6892
3579.00,1.7052
3578.00,1.7208
3577.00,1.7363
3576.00,1.7515
3575.00,1.7662
3574.00,1.7804
3573.00,1.7940
3572.00,1.8071
3571.00,1.8194
3570.00,1.8308
3569.00,1.8415
3568.00,1.8519
3567.00,1.8621
3566.00,1.8720
3565.00,1.8817
3564.00,1.8910
3563.00,1.8996
3562.00,1.9074
3561.00,1.9149
3560.00,1.9221
3559.00,1.9288
3558.00,1.9347
3557.00,1.9400
3556.00,1.9449
3555.00,1.9496
3554.00,1.9541
3553.00,1.9583
3552.00,1.9621
3551.00,1.9652
3550.00,1.9683
3549.00,1.9714
3548.00,1.9742
3547.00,1.9760
3546.00,1.9770
3545.00,1.9778
3544.00,1.9787
3543.00,1.9793
3542.00,1.9794
3541.00,1.9792
3540.00,1.9789
3539.00,1.9781
3538.00,1.9768
3537.00,1.9748
3536.00,1.9722
3535.00,1.9690
3534.00,1.9652
3533.00,1.9610
3532.00,1.9564
3531.00,1.9515
3530.00,1.9465
3529.00,1.9416
3528.00,1.9367
3527.00,1.9312
3526.00,1.9249
3525.00,1.9175
3524.00,1.9094
3523.00,1.9007
3522.00,1.8919
3521.00,1.8828
3520.00,1.8735
3519.00,1.8637
3518.00,1.8534
3517.00,1.8425
3516.00,1.8308
3515.00,1.8180
3514.00,1.8043
3513.00,1.7902
3512.00,1.7759
3511.00,1.7613
3510.00,1.7461
3509.00,1.7302
3508.00,1.7134
3507.00,1.6957
3506.00,1.6773
3505.00,1.6585
3504.00,1.6392
3503.00,1.6190
3502.00,1.5979
3501.00,1.5760
3500.00,1.5536
3499.00,1.5307
3498.00,1.5074
3497.00,1.4837
3496.00,1.4596
3495.00,1.4353
3494.00,1.4107
3493.00,1.3859
3492.00,1.3608
3491.00,1.3358
3490.00,1.3111
3489.00,1.2869
3488.00,1.2631
3487.00,1.2399
3486.00,1.2174
3485.00,1.1959
3484.00,1.1757
3483.00,1.1568
3482.00,1.1393
3481.00,1.1233
3480.00,1.1089
3479.00,1.0962
3478.00,1.0855
3477.00,1.0769
3476.00,1.0706
3475.00,1.0665
3474.00,1.0647
3473.00,1.0651
3472.00,1.0679
3471.00,1.0729
3470.00,1.0801
3469.00,1.0894
3468.00,1.1009
3467.00,1.1142
3466.00,1.1294
3465.00,1.1462
3464.00,1.1647
3463.00,1.1845
3462.00,1.2056
3461.00,1.2276
3460.00,1.2505
3459.00,1.2741
3458.00,1.2983
3457.00,1.3229
3456.00,1.3478
3455.00,1.3730
3454.00,1.3983
3453.00,1.4236
3452.00,1.4489
3451.00,1.4737
3450.00,1.4983
3449.00,1.5226
3448.00,1.5466
3447.00,1.5702
3446.00,1.5931
3445.00,1.6154
3444.00,1.6371
3443.00,1.6583
3442.00,1.6789
3441.00,1.6988
3440.00,1.7181
3439.00,1.7366
3438.00,1.7543
3437.00,1.7715
3436.00,1.7880
3435.00,1.8038
3434.00,1.8190
3433.00,1.8335
3432.00,1.8473
3431.00,1.8605
3430.00,1.8733
3429.00,1.8859
3428.00,1.8980
3427.00,1.9093
3426.00,1.9196
3425.00,1.9291
3424.00,1.9380
3423.00,1.9466
3422.00,1.9548
3421.00,1.9625
3420.00,1.9695
3419.00,1.9759
3418.00,1.9819
3417.00,1.9875
3416.00,1.9928
3415.00,1.9974
3414.00,2.0017
3413.00,2.0056
3412.00,2.0093
3411.00,2.0123
3410.00,2.0147
3409.00,2.0165
3408.00,2.0182
3407.00,2.0200
3406.00,2.0216
3405.00,2.0228
3404.00,2.0231
3403.00,2.0225
3402.00,2.0212
3401.00,2.0197
3400.00,2.0177
3399.00,2.0151
3398.00,2.0122
3397.00,2.0091
3396.00,2.0058
3395.00,2.0018
3394.00,1.9974
3393.00,1.9928
3392.00,1.9879
3391.00,1.9825
3390.00,1.9766
3389.00,1.9700
3388.00,1.9626
3387.00,1.9542
3386.00,1.9452
3385.00,1.9359
3384.00,1.9265
3383.00,1.9167
3382.00,1.9061
3381.00,1.8946
3380.00,1.8821
3379.00,1.8688
3378.00,1.8551
3377.00,1.8413
3376.00,1.8274
3375.00,1.8130
3374.00,1.7976
3373.00,1.7813
3372.00,1.7643
3371.00,1.7464
3370.00,1.7276
3369.00,1.7082
3368.00,1.6881
3367.00,1.6670
3366.00,1.6450
3365.00,1.6221
3364.00,1.5984
3363.00,1.5742
3362.00,1.5493
3361.00,1.5238
3360.00,1.4977
3359.00,1.4710
3358.00,1.4437
3357.00,1.4161
3356.00,1.3885
3355.00,1.3608
3354.00,1.3333
3353.00,1.3061
3352.00,1.2794
3351.00,1.2534
3350.00,1.2281
3349.00,1.2038
3348.00,1.1807
3347.00,1.1590
3346.00,1.1388
3345.00,1.1203
3344.00,1.1037
3343.00,1.0891
3342.00,1.0768
3341.00,1.0668
3340.00,1.0593
3339.00,1.0544
3338.00,1.0522
3337.00,1.0526
3336.00,1.0557
3335.00,1.0613
3334.00,1.0696
3333.00,1.0803
3332.00,1.0934
3331.00,1.1086
3330.00,1.1259
3329.00,1.1450
3328.00,1.1657
3327.00,1.1877
3326.00,1.2109
3325.00,1.2349
3324.00,1.2596
3323.00,1.2847
3322.00,1.3103
3321.00,1.3363
3320.00,1.3627
3319.00,1.3891
3318.00,1.4156
3317.00,1.4421
3316.00,1.4685
3315.00,1.4948
3314.00,1.5209
3313.00,1.5469
3312.00,1.5725
3311.00,1.5975
3310.00,1.6221
3309.00,1.6461
3308.00,1.6696
3307.00,1.6923
3306.00,1.7141
3305.00,1.7353
3304.00,1.7556
3303.00,1.7751
3302.00,1.7937
3301.00,1.8116
3300.00,1.8289
3299.00,1.8454
3298.00,1.8610
3297.00,1.8760
3296.00,1.8905
3295.00,1.9045
3294.00,1.9180
3293.00,1.9311
3292.00,1.9438
3291.00,1.9557
3290.00,1.9666
3289.00,1.9765
3288.00,1.9859
3287.00,1.9952
3286.00,2.0046
3285.00,2.0135
3284.00,2.0216
3283.00,2.0287
3282.00,2.0349
3281.00,2.0406
3280.00,2.0459
3279.00,2.0512
3278.00,2.0563
3277.00,2.0613
3276.00,2.0656
3275.00,2.0688
3274.00,2.0711
3273.00,2.0731
3272.00,2.0754
3271.00,2.0776
3270.00,2.0794
3269.00,2.0806
3268.00,2.0812
3267.00,2.0813
3266.00,2.0811
3265.00,2.0807
3264.00,2.0799
3263.00,2.0783
3262.00,2.0760
3261.00,2.0732
3260.00,2.0700
3259.00,2.0663
3258.00,2.0619
3257.00,2.0573
3256.00,2.0523
3255.00,2.0468
3254.00,2.0406
3253.00,2.0340
3252.00,2.0273
3251.00,2.0206
3250.00,2.0135
3249.00,2.0058
3248.00,1.9971
3247.00,1.9875
3246.00,1.9769
3245.00,1.9659
3244.00,1.9543
3243.00,1.9423
3242.00,1.9298
3241.00,1.9169
3240.00,1.9035
3239.00,1.8892
3238.00,1.8739
3237.00,1.8578
3236.00,1.8409
3235.00,1.8235
3234.00,1.8054
3233.00,1.7864
3232.00,1.7666
3231.00,1.7463
3230.00,1.7256
3229.00,1.7041
3228.00,1.6815
3227.00,1.6580
3226.00,1.6336
3225.00,1.6086
3224.00,1.5830
3223.00,1.5568
3222.00,1.5300
3221.00,1.5031
3220.00,1.4760
3219.00,1.4491
3218.00,1.4224
3217.00,1.3962
3216.00,1.3708
3215.00,1.3464
3214.00,1.3234
3213.00,1.3020
3212.00,1.2823
3211.00,1.2648
3210.00,1.2497
3209.00,1.2371
3208.00,1.2270
3207.00,1.2194
3206.00,1.2142
3205.00,1.2110
3204.00,1.2094
3203.00,1.2088
3202.00,1.2086
3201.00,1.2082
3200.00,1.2076
3199.00,1.2071
3198.00,1.2073
3197.00,1.2089
3196.00,1.2125
3195.00,1.2188
3194.00,1.2278
3193.00,1.2398
3192.00,1.2547
3191.00,1.2724
3190.00,1.2924
3189.00,1.3147
3188.00,1.3388
3187.00,1.3643
3186.00,1.3911
3185.00,1.4188
3184.00,1.4473
3183.00,1.4765
3182.00,1.5061
3181.00,1.5360
3180.00,1.5660
3179.00,1.5962
3178.00,1.6263
3177.00,1.6562
3176.00,1.6858
3175.00,1.7149
3174.00,1.7439
3173.00,1.7727
3172.00,1.8014
3171.00,1.8297
3170.00,1.8574
3169.00,1.8841
3168.00,1.9090
3167.00,1.9306
3166.00,1.9477
3165.00,1.9594
3164.00,1.9655
3163.00,1.9668
3162.00,1.9650
3161.00,1.9626
3160.00,1.9615
3159.00,1.9631
3158.00,1.9681
3157.00,1.9763
3156.00,1.9867
3155.00,1.9980
3154.00,2.0098
3153.00,2.0216
3152.00,2.0335
3151.00,2.0451
3150.00,2.0562
3149.00,2.0669
3148.00,2.0770
3147.00,2.0859
3146.00,2.0936
3145.00,2.1009
3144.00,2.1081
3143.00,2.1150
3142.00,2.1214
3141.00,2.1275
3140.00,2.1333
3139.00,2.1388
3138.00,2.1438
3137.00,2.1479
3136.00,2.1514
3135.00,2.1545
3134.00,2.1573
3133.00,2.1596
3132.00,2.1610
3131.00,2.1615
3130.00,2.1615
3129.00,2.1615
3128.00,2.1616
3127.00,2.1614
3126.00,2.1605
3125.00,2.1586
3124.00,2.1561
3123.00,2.1531
3122.00,2.1500
3121.00,2.1468
3120.00,2.1432
3119.00,2.1391
3118.00,2.1345
3117.00,2.1296
3116.00,2.1240
3115.00,2.1175
3114.00,2.1104
3113.00,2.1030
3112.00,2.0951
3111.00,2.0865
3110.00,2.0771
3109.00,2.0670
3108.00,2.0566
3107.00,2.0460
3106.00,2.0351
3105.00,2.0237
3104.00,2.0114
3103.00,1.9983
3102.00,1.9846
3101.00,1.9706
3100.00,1.9563
3099.00,1.9413
3098.00,1.9255
3097.00,1.9089
3096.00,1.8916
3095.00,1.8735
3094.00,1.8548
3093.00,1.8356
3092.00,1.8160
3091.00,1.7957
3090.00,1.7746
3089.00,1.7528
3088.00,1.7303
3087.00,1.7075
3086.00,1.6842
3085.00,1.6604
3084.00,1.6363
3083.00,1.6119
3082.00,1.5876
3081.00,1.5635
3080.00,1.5395
3079.00,1.5157
3078.00,1.4924
3077.00,1.4699
3076.00,1.4483
3075.00,1.4278
3074.00,1.4086
3073.00,1.3909
3072.00,1.3748
3071.00,1.3604
3070.00,1.3477
3069.00,1.3369
3068.00,1.3284
3067.00,1.3221
3066.00,1.3184
3065.00,1.3171
3064.00,1.3184
3063.00,1.3221
3062.00,1.3283
3061.00,1.3367
3060.00,1.3475
3059.00,1.3603
3058.00,1.3752
3057.00,1.3918
3056.00,1.4102
3055.00,1.4300
3054.00,1.4510
3053.00,1.4731
3052.00,1.4962
3051.00,1.5201
3050.00,1.5447
3049.00,1.5698
3048.00,1.5954
3047.00,1.6213
3046.00,1.6476
3045.00,1.6741
3044.00,1.7004
3043.00,1.7263
3042.00,1.7518
3041.00,1.7769
3040.00,1.8020
3039.00,1.8269
3038.00,1.8516
3037.00,1.8756
3036.00,1.8987
3035.00,1.9207
3034.00,1.9417
3033.00,1.9619
3032.00,1.9816
3031.00,2.0003
3030.00,2.0184
3029.00,2.0363
3028.00,2.0542
3027.00,2.0719
3026.00,2.0889
3025.00,2.1052
3024.00,2.1208
3023.00,2.1358
3022.00,2.1501
3021.00,2.1638
3020.00,2.1772
3019.00,2.1900
3018.00,2.2022
3017.00,2.2138
3016.00,2.2245
3015.00,2.2345
3014.00,2.2441
3013.00,2.2538
3012.00,2.2635
3011.00,2.2724
3010.00,2.2803
3009.00,2.2874
3008.00,2.2941
3007.00,2.3008
3006.00,2.3077
3005.00,2.3146
3004.00,2.3210
3003.00,2.3263
3002.00,2.3301
3001.00,2.3324
3000.00,2.3328
2999.00,2.3317
2998.00,2.3302
2997.00,2.3298
2996.00,2.3304
2995.00,2.3306
2994.00,2.3294
2993.00,2.3269
2992.00,2.3239
2991.00,2.3210
2990.00,2.3183
2989.00,2.3155
2988.00,2.3123
2987.00,2.3085
2986.00,2.3041
2985.00,2.2996
2984.00,2.2949
2983.00,2.2898
2982.00,2.2845
2981.00,2.2791
2980.00,2.2737
2979.00,2.2683
2978.00,2.2628
2977.00,2.2576
2976.00,2.2528
2975.00,2.2482
2974.00,2.2440
2973.00,2.2402
2972.00,2.2369
2971.00,2.2338
2970.00,2.2312
2969.00,2.2297
2968.00,2.2297
2967.00,2.2309
2966.00,2.2327
2965.00,2.2341
2964.00,2.2348
2963.00,2.2348
2962.00,2.2348
2961.00,2.2357
2960.00,2.2379
2959.00,2.2413
2958.00,2.2456
2957.00,2.2509
2956.00,2.2573
2955.00,2.2656
2954.00,2.2764
2953.00,2.2899
2952.00,2.3057
2951.00,2.3230
2950.00,2.3413
2949.00,2.3606
2948.00,2.3812
2947.00,2.4029
2946.00,2.4256
2945.00,2.4473
2944.00,2.4644
2943.00,2.4727
2942.00,2.4700
2941.00,2.4575
2940.00,2.4382
2939.00,2.4148
2938.00,2.3896
2937.00,2.3641
2936.00,2.3392
2935.00,2.3148
2934.00,2.2902
2933.00,2.2650
2932.00,2.2384
2931.00,2.2105
2930.00,2.1817
2929.00,2.1531
2928.00,2.1250
2927.00,2.0970
2926.00,2.0684
2925.00,2.0389
2924.00,2.0085
2923.00,1.9778
2922.00,1.9471
2921.00,1.9164
2920.00,1.8859
2919.00,1.8554
2918.00,1.8254
2917.00,1.7963
2916.00,1.7685
2915.00,1.7427
2914.00,1.7188
2913.00,1.6973
2912.00,1.6780
2911.00,1.6610
2910.00,1.6462
2909.00,1.6336
2908.00,1.6232
2907.00,1.6148
2906.00,1.6086
2905.00,1.6047
2904.00,1.6034
2903.00,1.6047
2902.00,1.6087
2901.00,1.6151
2900.00,1.6237
2899.00,1.6342
2898.00,1.6465
2897.00,1.6606
2896.00,1.6766
2895.00,1.6943
2894.00,1.7138
2893.00,1.7349
2892.00,1.7574
2891.00,1.7811
2890.00,1.8058
2889.00,1.8312
2888.00,1.8572
2887.00,1.8834
2886.00,1.9096
2885.00,1.9358
2884.00,1.9620
2883.00,1.9878
2882.00,2.0130
2881.00,2.0375
2880.00,2.0613
2879.00,2.0847
2878.00,2.1074
2877.00,2.1292
2876.00,2.1497
2875.00,2.1685
2874.00,2.1858
2873.00,2.2018
2872.00,2.2163
2871.00,2.2286
2870.00,2.2386
2869.00,2.2462
2868.00,2.2518
2867.00,2.2561
2866.00,2.2601
2865.00,2.2641
2864.00,2.2676
2863.00,2.2697
2862.00,2.2705
2861.00,2.2708
2860.00,2.2716
2859.00,2.2732
2858.00,2.2756
2857.00,2.2787
2856.00,2.2826
2855.00,2.2873
2854.00,2.2926
2853.00,2.2980
2852.00,2.3031
2851.00,2.3078
2850.00,2.3124
2849.00,2.3172
2848.00,2.3219
2847.00,2.3265
2846.00,2.3310
2845.00,2.3355
2844.00,2.3396
2843.00,2.3430
2842.00,2.3455
2841.00,2.3471
2840.00,2.3480
2839.00,2.3485
2838.00,2.3487
2837.00,2.3486
2836.00,2.3474
2835.00,2.3453
2834.00,2.3429
2833.00,2.3410
2832.00,2.3393
2831.00,2.3369
2830.00,2.3333
2829.00,2.3287
2828.00,2.3236
2827.00,2.3181
2826.00,2.3121
2825.00,2.3056
2824.00,2.2985
2823.00,2.2908
2822.00,2.2826
2821.00,2.2742
2820.00,2.2655
2819.00,2.2559
2818.00,2.2454
2817.00,2.2341
2816.00,2.2222
2815.00,2.2098
2814.00,2.1964
2813.00,2.1821
2812.00,2.1670
2811.00,2.1509
2810.00,2.1338
2809.00,2.1158
2808.00,2.0969
2807.00,2.0774
2806.00,2.0573
2805.00,2.0363
2804.00,2.0142
2803.00,1.9907
2802.00,1.9661
2801.00,1.9404
2800.00,1.9140
2799.00,1.8867
2798.00,1.8579
2797.00,1.8275
2796.00,1.7951
2795.00,1.7611
2794.00,1.7257
2793.00,1.6891
2792.00,1.6513
2791.00,1.6125
2790.00,1.5729
2789.00,1.5326
2788.00,1.4920
2787.00,1.4513
2786.00,1.4112
2785.00,1.3721
2784.00,1.3347
2783.00,1.2991
2782.00,1.2659
2781.00,1.2353
2780.00,1.2077
2779.00,1.1833
2778.00,1.1627
2777.00,1.1460
2776.00,1.1338
2775.00,1.1263
2774.00,1.1238
2773.00,1.1263
2772.00,1.1337
2771.00,1.1459
2770.00,1.1626
2769.00,1.1834
2768.00,1.2080
2767.00,1.2358
2766.00,1.2664
2765.00,1.2994
2764.00,1.3343
2763.00,1.3709
2762.00,1.4086
2761.00,1.4472
2760.00,1.4863
2759.00,1.5256
2758.00,1.5650
2757.00,1.6043
2756.00,1.6434
2755.00,1.6819
2754.00,1.7198
2753.00,1.7567
2752.00,1.7924
2751.00,1.8266
2750.00,1.8593
2749.00,1.8906
2748.00,1.9207
2747.00,1.9496
2746.00,1.9772
2745.00,2.0033
2744.00,2.0281
2743.00,2.0518
2742.00,2.0746
2741.00,2.0964
2740.00,2.1174
2739.00,2.1373
2738.00,2.1560
2737.00,2.1734
2736.00,2.1899
2735.00,2.2062
2734.00,2.2225
2733.00,2.2387
2732.00,2.2540
2731.00,2.2680
2730.00,2.2807
2729.00,2.2925
2728.00,2.3033
2727.00,2.3134
2726.00,2.3232
2725.00,2.3326
2724.00,2.3413
2723.00,2.3496
2722.00,2.3577
2721.00,2.3658
2720.00,2.3733
2719.00,2.3797
2718.00,2.3856
2717.00,2.3914
2716.00,2.3971
2715.00,2.4021
2714.00,2.4062
2713.00,2.4098
2712.00,2.4132
2711.00,2.4161
2710.00,2.4188
2709.00,2.4212
2708.00,2.4230
2707.00,2.4237
2706.00,2.4233
2705.00,2.4226
2704.00,2.4220
2703.00,2.4212
2702.00,2.4203
2701.00,2.4192
2700.00,2.4178
2699.00,2.4156
2698.00,2.4123
2697.00,2.4083
2696.00,2.4038
2695.00,2.3990
2694.00,2.3934
2693.00,2.3872
2692.00,2.3803
2691.00,2.3731
2690.00,2.3657
2689.00,2.3581
2688.00,2.3499
2687.00,2.3409
2686.00,2.3311
2685.00,2.3210
2684.00,2.3105
2683.00,2.2990
2682.00,2.2865
2681.00,2.2730
2680.00,2.2586
2679.00,2.2439
2678.00,2.2295
2677.00,2.2155
2676.00,2.2012
2675.00,2.1853
2674.00,2.1674
2673.00,2.1480
2672.00,2.1278
2671.00,2.1069
2670.00,2.0852
2669.00,2.0624
2668.00,2.0384
2667.00,2.0127
2666.00,1.9852
2665.00,1.9560
2664.00,1.9252
2663.00,1.8930
2662.00,1.8593
2661.00,1.8239
2660.00,1.7866
2659.00,1.7476
2658.00,1.7072
2657.00,1.6657
2656.00,1.6232
2655.00,1.5797
2654.00,1.5354
2653.00,1.4910
2652.00,1.4469
2651.00,1.4037
2650.00,1.3619
2649.00,1.3219
2648.00,1.2844
2647.00,1.2497
2646.00,1.2185
2645.00,1.1912
2644.00,1.1685
2643.00,1.1509
2642.00,1.1389
2641.00,1.1331
2640.00,1.1338
2639.00,1.1412
2638.00,1.1554
2637.00,1.1763
2636.00,1.2037
2635.00,1.2368
2634.00,1.2750
2633.00,1.3173
2632.00,1.3626
2631.00,1.4089
2630.00,1.4541
2629.00,1.4958
2628.00,1.5325
2627.00,1.5639
2626.00,1.5913
2625.00,1.6166
2624.00,1.6421
2623.00,1.6688
2622.00,1.6972
2621.00,1.7272
2620.00,1.7586
2619.00,1.7911
2618.00,1.8243
2617.00,1.8577
2616.00,1.8909
2615.00,1.9235
2614.00,1.9551
2613.00,1.9854
2612.00,2.0146
2611.00,2.0425
2610.00,2.0695
2609.00,2.0958
2608.00,2.1211
2607.00,2.1453
2606.00,2.1681
2605.00,2.1893
2604.00,2.2094
2603.00,2.2286
2602.00,2.2476
2601.00,2.2665
2600.00,2.2849
2599.00,2.3022
2598.00,2.3180
2597.00,2.3325
2596.00,2.3463
2595.00,2.3601
2594.00,2.3738
2593.00,2.3870
2592.00,2.3991
2591.00,2.4102
2590.00,2.4207
2589.00,2.4308
2588.00,2.4403
2587.00,2.4492
2586.00,2.4574
2585.00,2.4650
2584.00,2.4715
2583.00,2.4768
2582.00,2.4815
2581.00,2.4865
2580.00,2.4924
2579.00,2.4987
2578.00,2.5050
2577.00,2.5106
2576.00,2.5149
2575.00,2.5173
2574.00,2.5181
2573.00,2.5182
2572.00,2.5188
2571.00,2.5201
2570.00,2.5216
2569.00,2.5225
2568.00,2.5223
2567.00,2.5214
2566.00,2.5203
2565.00,2.5190
2564.00,2.5166
2563.00,2.5130
2562.00,2.5088
2561.00,2.5045
2560.00,2.4996
2559.00,2.4937
2558.00,2.4874
2557.00,2.4816
2556.00,2.4764
2555.00,2.4709
2554.00,2.4644
2553.00,2.4568
2552.00,2.4484
2551.00,2.4397
2550.00,2.4306
2549.00,2.4209
2548.00,2.4102
2547.00,2.3982
2546.00,2.3854
2545.00,2.3723
2544.00,2.3593
2543.00,2.3458
2542.00,2.3313
2541.00,2.3158
2540.00,2.2996
2539.00,2.2826
2538.00,2.2647
2537.00,2.2459
2536.00,2.2260
2535.00,2.2050
2534.00,2.1828
2533.00,2.1594
2532.00,2.1347
2531.00,2.1089
2530.00,2.0818
2529.00,2.0532
2528.00,2.0230
2527.00,1.9914
2526.00,1.9583
2525.00,1.9236
2524.00,1.8872
2523.00,1.8487
2522.00,1.8083
2521.00,1.7662
2520.00,1.7224
2519.00,1.6772
2518.00,1.6310
2517.00,1.5844
2516.00,1.5378
2515.00,1.4919
2514.00,1.4472
2513.00,1.4043
2512.00,1.3637
2511.00,1.3261
2510.00,1.2918
2509.00,1.2614
2508.00,1.2355
2507.00,1.2143
2506.00,1.1984
2505.00,1.1882
2504.00,1.1841
2503.00,1.1861
2502.00,1.1943
2501.00,1.2084
2500.00,1.2281
2499.00,1.2529
2498.00,1.2822
2497.00,1.3155
2496.00,1.3521
2495.00,1.3914
2494.00,1.4326
2493.00,1.4754
2492.00,1.5193
2491.00,1.5641
2490.00,1.6091
2489.00,1.6541
2488.00,1.6986
2487.00,1.7420
2486.00,1.7845
2485.00,1.8260
2484.00,1.8668
2483.00,1.9066
2482.00,1.9450
2481.00,1.9815
2480.00,2.0160
2479.00,2.0484
2478.00,2.0793
2477.00,2.1091
2476.00,2.1380
2475.00,2.1661
2474.00,2.1929
2473.00,2.2184
2472.00,2.2424
2471.00,2.2649
2470.00,2.2864
2469.00,2.3070
2468.00,2.3269
2467.00,2.3456
2466.00,2.3635
2465.00,2.3808
2464.00,2.3976
2463.00,2.4136
2462.00,2.4287
2461.00,2.4430
2460.00,2.4565
2459.00,2.4692
2458.00,2.4811
2457.00,2.4926
2456.00,2.5038
2455.00,2.5145
2454.00,2.5245
2453.00,2.5341
2452.00,2.5435
2451.00,2.5524
2450.00,2.5609
2449.00,2.5691
2448.00,2.5774
2447.00,2.5857
2446.00,2.5932
2445.00,2.5993
2444.00,2.6037
2443.00,2.6069
2442.00,2.6097
2441.00,2.6128
2440.00,2.6156
2439.00,2.6175
2438.00,2.6186
2437.00,2.6195
2436.00,2.6205
2435.00,2.6215
2434.00,2.6229
2433.00,2.6249
2432.00,2.6269
2431.00,2.6274
2430.00,2.6256
2429.00,2.6216
2428.00,2.6166
2427.00,2.6120
2426.00,2.6086
2425.00,2.6062
2424.00,2.6033
2423.00,2.5988
2422.00,2.5936
2421.00,2.5891
2420.00,2.5855
2419.00,2.5814
2418.00,2.5756
2417.00,2.5680
2416.00,2.5589
2415.00,2.5492
2414.00,2.5400
2413.00,2.5321
2412.00,2.5247
2411.00,2.5163
2410.00,2.5064
2409.00,2.4958
2408.00,2.4848
2407.00,2.4730
2406.00,2.4597
2405.00,2.4453
2404.00,2.4303
2403.00,2.4150
2402.00,2.3991
2401.00,2.3823
2400.00,2.3642
2399.00,2.3445
2398.00,2.3232
2397.00,2.3004
2396.00,2.2767
2395.00,2.2522
2394.00,2.2273
2393.00,2.2022
2392.00,2.1771
2391.00,2.1523
2390.00,2.1287
2389.00,2.1079
2388.00,2.0916
2387.00,2.0811
2386.00,2.0777
2385.00,2.0817
2384.00,2.0921
2383.00,2.1064
2382.00,2.1207
2381.00,2.1305
2380.00,2.1313
2379.00,2.1203
2378.00,2.0979
2377.00,2.0681
2376.00,2.0371
2375.00,2.0112
2374.00,1.9964
2373.00,1.9967
2372.00,2.0131
2371.00,2.0432
2370.00,2.0839
2369.00,2.1331
2368.00,2.1874
2367.00,2.2421
2366.00,2.2963
2365.00,2.3485
2364.00,2.3959
2363.00,2.4381
2362.00,2.4721
2361.00,2.4958
2360.00,2.5084
2359.00,2.5076
2358.00,2.4988
2357.00,2.4881
2356.00,2.4860
2355.00,2.5011
2354.00,2.5410
2353.00,2.6074
2352.00,2.6770
2351.00,2.7218
2350.00,2.7327
2349.00,2.7334
2348.00,2.7577
2347.00,2.8058
2346.00,2.8605
2345.00,2.9017
2344.00,2.9309
2343.00,2.9551
2342.00,2.9766
2341.00,2.9983
2340.00,3.0188
2339.00,3.0392
2338.00,3.0575
2337.00,3.0778
2336.00,3.1001
2335.00,3.1264
2334.00,3.1488
2333.00,3.1672
2332.00,3.1728
2331.00,3.1730
2330.00,3.1693
2329.00,3.1673
2328.00,3.1689
2327.00,3.1736
2326.00,3.1834
2325.00,3.1927
2324.00,3.1952
2323.00,3.1871
2322.00,3.1687
2321.00,3.1479
2320.00,3.1271
2319.00,3.1129
2318.00,3.1051
2317.00,3.1092
2316.00,3.1204
2315.00,3.1358
2314.00,3.1454
2313.00,3.1470
2312.00,3.1376
2311.00,3.1218
2310.00,3.1011
2309.00,3.0796
2308.00,3.0574
2307.00,3.0363
2306.00,3.0162
2305.00,2.9986
2304.00,2.9815
2303.00,2.9651
2302.00,2.9483
2301.00,2.9336
2300.00,2.9213
2299.00,2.9129
2298.00,2.9085
2297.00,2.9090
2296.00,2.9131
2295.00,2.9180
2294.00,2.9203
2293.00,2.9182
2292.00,2.9112
2291.00,2.8991
2290.00,2.8830
2289.00,2.8646
2288.00,2.8449
2287.00,2.8242
2286.00,2.8042
2285.00,2.7868
2284.00,2.7727
2283.00,2.7595
2282.00,2.7447
2281.00,2.7282
2280.00,2.7116
2279.00,2.6957
2278.00,2.6795
2277.00,2.6620
2276.00,2.6424
2275.00,2.6206
2274.00,2.5958
2273.00,2.5678
2272.00,2.5368
2271.00,2.5026
2270.00,2.4649
2269.00,2.4229
2268.00,2.3768
2267.00,2.3281
2266.00,2.2798
2265.00,2.2363
2264.00,2.2037
2263.00,2.1890
2262.00,2.1992
2261.00,2.2399
2260.00,2.3148
2259.00,2.4251
2258.00,2.5708
2257.00,2.7508
2256.00,2.9634
2255.00,3.2034
2254.00,3.4505
2253.00,3.6461
2252.00,3.7001
2251.00,3.6066
2250.00,3.4553
2249.00,3.3076
2248.00,3.1833
2247.00,3.0827
2246.00,3.0006
2245.00,2.9312
2244.00,2.8697
2243.00,2.8130
2242.00,2.7594
2241.00,2.7086
2240.00,2.6602
2239.00,2.6128
2238.00,2.5647
2237.00,2.5152
2236.00,2.4642
2235.00,2.4119
2234.00,2.3581
2233.00,2.3025
2232.00,2.2450
2231.00,2.1858
2230.00,2.1251
2229.00,2.0628
2228.00,1.9986
2227.00,1.9323
2226.00,1.8643
2225.00,1.7954
2224.00,1.7270
2223.00,1.6605
2222.00,1.5978
2221.00,1.5404
2220.00,1.4901
2219.00,1.4480
2218.00,1.4152
2217.00,1.3927
2216.00,1.3811
2215.00,1.3808
2214.00,1.3916
2213.00,1.4129
2212.00,1.4437
2211.00,1.4827
2210.00,1.5285
2209.00,1.5798
2208.00,1.6352
2207.00,1.6933
2206.00,1.7521
2205.00,1.8091
2204.00,1.8622
2203.00,1.9102
2202.00,1.9539
2201.00,1.9947
2200.00,2.0345
2199.00,2.0743
2198.00,2.1146
2197.00,2.1550
2196.00,2.1947
2195.00,2.2330
2194.00,2.2694
2193.00,2.3038
2192.00,2.3359
2191.00,2.3658
2190.00,2.3939
2189.00,2.4211
2188.00,2.4477
2187.00,2.4734
2186.00,2.4973
2185.00,2.5194
2184.00,2.5397
2183.00,2.5591
2182.00,2.5782
2181.00,2.5972
2180.00,2.6154
2179.00,2.6324
2178.00,2.6482
2177.00,2.6625
2176.00,2.6747
2175.00,2.6853
2174.00,2.6964
2173.00,2.7091
2172.00,2.7224
2171.00,2.7342
2170.00,2.7441
2169.00,2.7534
2168.00,2.7631
2167.00,2.7723
2166.00,2.7804
2165.00,2.7878
2164.00,2.7945
2163.00,2.7997
2162.00,2.8027
2161.00,2.8049
2160.00,2.8080
2159.00,2.8123
2158.00,2.8167
2157.00,2.8204
2156.00,2.8239
2155.00,2.8276
2154.00,2.8307
2153.00,2.8320
2152.00,2.8313
2151.00,2.8295
2150.00,2.8278
2149.00,2.8264
2148.00,2.8246
2147.00,2.8226
2146.00,2.8208
2145.00,2.8194
2144.00,2.8173
2143.00,2.8136
2142.00,2.8083
2141.00,2.8028
2140.00,2.7979
2139.00,2.7929
2138.00,2.7868
2137.00,2.7793
2136.00,2.7709
2135.00,2.7622
2134.00,2.7534
2133.00,2.7443
2132.00,2.7343
2131.00,2.7239
2130.00,2.7138
2129.00,2.7041
2128.00,2.6934
2127.00,2.6804
2126.00,2.6648
2125.00,2.6477
2124.00,2.6311
2123.00,2.6154
2122.00,2.5998
2121.00,2.5830
2120.00,2.5643
2119.00,2.5439
2118.00,2.5227
2117.00,2.5011
2116.00,2.4787
2115.00,2.4550
2114.00,2.4297
2113.00,2.4027
2112.00,2.3740
2111.00,2.3437
2110.00,2.3115
2109.00,2.2773
2108.00,2.2411
2107.00,2.2031
2106.00,2.1632
2105.00,2.1213
2104.00,2.0770
2103.00,2.0303
2102.00,1.9811
2101.00,1.9297
2100.00,1.8763
2099.00,1.8213
2098.00,1.7655
2097.00,1.7098
2096.00,1.6551
2095.00,1.6022
2094.00,1.5521
2093.00,1.5059
2092.00,1.4644
2091.00,1.4286
2090.00,1.3991
2089.00,1.3768
2088.00,1.3622
2087.00,1.3560
2086.00,1.3584
2085.00,1.3697
2084.00,1.3897
2083.00,1.4177
2082.00,1.4527
2081.00,1.4936
2080.00,1.5394
2079.00,1.5890
2078.00,1.6412
2077.00,1.6951
2076.00,1.7499
2075.00,1.8049
2074.00,1.8595
2073.00,1.9128
2072.00,1.9645
2071.00,2.0142
2070.00,2.0619
2069.00,2.1072
2068.00,2.1499
2067.00,2.1899
2066.00,2.2276
2065.00,2.2636
2064.00,2.2979
2063.00,2.3307
2062.00,2.3623
2061.00,2.3932
2060.00,2.4231
2059.00,2.4519
2058.00,2.4794
2057.00,2.5058
2056.00,2.5310
2055.00,2.5548
2054.00,2.5773
2053.00,2.5984
2052.00,2.6175
2051.00,2.6351
2050.00,2.6526
2049.00,2.6711
2048.00,2.6902
2047.00,2.7088
2046.00,2.7266
2045.00,2.7436
2044.00,2.7588
2043.00,2.7713
2042.00,2.7819
2041.00,2.7924
2040.00,2.8032
2039.00,2.8136
2038.00,2.8233
2037.00,2.8329
2036.00,2.8431
2035.00,2.8536
2034.00,2.8643
2033.00,2.8746
2032.00,2.8830
2031.00,2.8872
2030.00,2.8878
2029.00,2.8881
2028.00,2.8910
2027.00,2.8974
2026.00,2.9067
2025.00,2.9175
2024.00,2.9269
2023.00,2.9314
2022.00,2.9309
2021.00,2.9294
2020.00,2.9307
2019.00,2.9351
2018.00,2.9394
2017.00,2.9410
2016.00,2.9397
2015.00,2.9375
2014.00,2.9357
2013.00,2.9343
2012.00,2.9322
2011.00,2.9288
2010.00,2.9251
2009.00,2.9226
2008.00,2.9208
2007.00,2.9175
2006.00,2.9122
2005.00,2.9067
2004.00,2.9028
2003.00,2.8993
2002.00,2.8937
2001.00,2.8847
2000.00,2.8736
1999.00,2.8622
1998.00,2.8523
1997.00,2.8448
1996.00,2.8387
1995.00,2.8316
1994.00,2.8217
1993.00,2.8091
1992.00,2.7948
1991.00,2.7793
1990.00,2.7620
1989.00,2.7434
1988.00,2.7250
1987.00,2.7081
1986.00,2.6933
1985.00,2.6796
1984.00,2.6648
1983.00,2.6471
1982.00,2.6260
1981.00,2.6025
1980.00,2.5777
1979.00,2.5519
1978.00,2.5255
1977.00,2.4989
1976.00,2.4720
1975.00,2.4440
1974.00,2.4136
1973.00,2.3804
1972.00,2.3447
1971.00,2.3064
1970.00,2.2657
1969.00,2.2227
1968.00,2.1777
1967.00,2.1305
1966.00,2.0811
1965.00,2.0289
1964.00,1.9740
1963.00,1.9170
1962.00,1.8590
1961.00,1.8008
1960.00,1.7434
1959.00,1.6877
1958.00,1.6348
1957.00,1.5859
1956.00,1.5421
1955.00,1.5042
1954.00,1.4731
1953.00,1.4495
1952.00,1.4344
1951.00,1.4285
1950.00,1.4319
1949.00,1.4446
1948.00,1.4662
1947.00,1.4960
1946.00,1.5325
1945.00,1.5740
1944.00,1.6198
1943.00,1.6702
1942.00,1.7252
1941.00,1.7828
1940.00,1.8409
1939.00,1.8982
1938.00,1.9552
1937.00,2.0119
1936.00,2.0672
1935.00,2.1204
1934.00,2.1711
1933.00,2.2192
1932.00,2.2646
1931.00,2.3069
1930.00,2.3466
1929.00,2.3850
1928.00,2.4225
1927.00,2.4587
1926.00,2.4921
1925.00,2.5217
1924.00,2.5495
1923.00,2.5780
1922.00,2.6074
1921.00,2.6351
1920.00,2.6591
1919.00,2.6811
1918.00,2.7038
1917.00,2.7272
1916.00,2.7486
1915.00,2.7667
1914.00,2.7830
1913.00,2.7999
1912.00,2.8183
1911.00,2.8371
1910.00,2.8547
1909.00,2.8701
1908.00,2.8829
1907.00,2.8932
1906.00,2.9014
1905.00,2.9090
1904.00,2.9183
1903.00,2.9305
1902.00,2.9445
1901.00,2.9583
1900.00,2.9702
1899.00,2.9797
1898.00,2.9861
1897.00,2.9890
1896.00,2.9902
1895.00,2.9934
1894.00,3.0008
1893.00,3.0110
1892.00,3.0209
1891.00,3.0280
1890.00,3.0320
1889.00,3.0331
1888.00,3.0328
1887.00,3.0334
1886.00,3.0372
1885.00,3.0440
1884.00,3.0508
1883.00,3.0549
1882.00,3.0566
1881.00,3.0570
1880.00,3.0554
1879.00,3.0499
1878.00,3.0415
1877.00,3.0349
1876.00,3.0336
1875.00,3.0360
1874.00,3.0367
1873.00,3.0316
1872.00,3.0217
1871.00,3.0120
1870.00,3.0069
1869.00,3.0069
1868.00,3.0075
1867.00,3.0031
1866.00,2.9920
1865.00,2.9778
1864.00,2.9645
1863.00,2.9532
1862.00,2.9428
1861.00,2.9332
1860.00,2.9257
1859.00,2.9208
1858.00,2.9168
1857.00,2.9104
1856.00,2.8989
1855.00,2.8822
1854.00,2.8623
1853.00,2.8427
1852.00,2.8244
1851.00,2.8062
1850.00,2.7876
1849.00,2.7693
1848.00,2.7519
1847.00,2.7333
1846.00,2.7106
1845.00,2.6836
1844.00,2.6550
1843.00,2.6269
1842.00,2.5990
1841.00,2.5707
1840.00,2.5410
1839.00,2.5089
1838.00,2.4740
1837.00,2.4365
1836.00,2.3974
1835.00,2.3571
1834.00,2.3157
1833.00,2.2732
1832.00,2.2284
1831.00,2.1800
1830.00,2.1286
1829.00,2.0760
1828.00,2.0233
1827.00,1.9696
1826.00,1.9149
1825.00,1.8605
1824.00,1.8078
1823.00,1.7580
1822.00,1.7121
1821.00,1.6720
1820.00,1.6395
1819.00,1.6156
1818.00,1.6016
1817.00,1.5984
1816.00,1.6066
1815.00,1.6250
1814.00,1.6521
1813.00,1.6869
1812.00,1.7285
1811.00,1.7758
1810.00,1.8266
1809.00,1.8788
1808.00,1.9315
1807.00,1.9846
1806.00,2.0375
1805.00,2.0899
1804.00,2.1415
1803.00,2.1925
1802.00,2.2437
1801.00,2.2956
1800.00,2.3466
1799.00,2.3949
1798.00,2.4403
1797.00,2.4839
1796.00,2.5257
1795.00,2.5645
1794.00,2.6003
1793.00,2.6352
1792.00,2.6703
1791.00,2.7038
1790.00,2.7334
1789.00,2.7587
1788.00,2.7809
1787.00,2.8008
1786.00,2.8201
1785.00,2.8405
1784.00,2.8621
1783.00,2.8821
1782.00,2.8996
1781.00,2.9172
1780.00,2.9376
1779.00,2.9603
1778.00,2.9829
1777.00,3.0039
1776.00,3.0229
1775.00,3.0399
1774.00,3.0558
1773.00,3.0709
1772.00,3.0825
1771.00,3.0881
1770.00,3.0902
1769.00,3.0946
1768.00,3.1044
1767.00,3.1179
1766.00,3.1304
1765.00,3.1383
1764.00,3.1409
1763.00,3.1413
1762.00,3.1456
1761.00,3.1564
1760.00,3.1686
1759.00,3.1737
1758.00,3.1696
1757.00,3.1629
1756.00,3.1598
1755.00,3.1595
1754.00,3.1578
1753.00,3.1547
1752.00,3.1543
1751.00,3.1591
1750.00,3.1658
1749.00,3.1691
1748.00,3.1679
1747.00,3.1648
1746.00,3.1640
1745.00,3.1668
1744.00,3.1709
1743.00,3.1726
1742.00,3.1689
1741.00,3.1595
1740.00,3.1479
1739.00,3.1383
1738.00,3.1307
1737.00,3.1222
1736.00,3.1094
1735.00,3.0928
1734.00,3.0755
1733.00,3.0590
1732.00,3.0426
1731.00,3.0260
1730.00,3.0096
1729.00,2.9940
1728.00,2.9794
1727.00,2.9655
1726.00,2.9537
1725.00,2.9448
1724.00,2.9407
1723.00,2.9448
1722.00,2.9594
1721.00,2.9843
1720.00,3.0191
1719.00,3.0688
1718.00,3.1429
1717.00,3.2452
1716.00,3.3645
1715.00,3.4802
1714.00,3.5791
1713.00,3.6646
1712.00,3.7502
1711.00,3.8461
1710.00,3.9531
1709.00,4.0517
1708.00,4.0922
1707.00,4.0449
1706.00,3.9539
1705.00,3.8630
1704.00,3.7797
1703.00,3.7038
1702.00,3.6337
1701.00,3.5618
1700.00,3.4827
1699.00,3.4027
1698.00,3.3293
1697.00,3.2629
1696.00,3.2058
1695.00,3.1620
1694.00,3.1287
1693.00,3.0984
1692.00,3.0657
1691.00,3.0309
1690.00,2.9967
1689.00,2.9649
1688.00,2.9340
1687.00,2.9010
1686.00,2.8616
1685.00,2.8123
1684.00,2.7556
1683.00,2.6965
1682.00,2.6390
1681.00,2.5847
1680.00,2.5348
1679.00,2.4894
1678.00,2.4447
1677.00,2.3950
1676.00,2.3373
1675.00,2.2748
1674.00,2.2147
1673.00,2.1604
1672.00,2.1110
1671.00,2.0646
1670.00,2.0215
1669.00,1.9845
1668.00,1.9573
1667.00,1.9422
1666.00,1.9391
1665.00,1.9460
1664.00,1.9623
1663.00,1.9887
1662.00,2.0254
1661.00,2.0700
1660.00,2.1198
1659.00,2.1751
1658.00,2.2369
1657.00,2.3024
1656.00,2.3650
1655.00,2.4208
1654.00,2.4735
1653.00,2.5312
1652.00,2.5917
1651.00,2.6435
1650.00,2.6827
1649.00,2.7145
1648.00,2.7445
1647.00,2.7751
1646.00,2.8060
1645.00,2.8361
1644.00,2.8654
1643.00,2.8936
1642.00,2.9210
1641.00,2.9488
1640.00,2.9764
1639.00,3.0009
1638.00,3.0200
1637.00,3.0345
1636.00,3.0479
1635.00,3.0627
1634.00,3.0773
1633.00,3.0897
1632.00,3.1013
1631.00,3.1129
1630.00,3.1233
1629.00,3.1326
1628.00,3.1454
1627.00,3.1653
1626.00,3.1876
1625.00,3.2017
1624.00,3.2032
1623.00,3.1998
1622.00,3.2024
1621.00,3.2137
1620.00,3.2275
1619.00,3.2387
1618.00,3.2473
1617.00,3.2560
1616.00,3.2651
1615.00,3.2716
1614.00,3.2732
1613.00,3.2711
1612.00,3.2691
1611.00,3.2700
1610.00,3.2752
1609.00,3.2834
1608.00,3.2916
1607.00,3.2968
1606.00,3.2988
1605.00,3.3007
1604.00,3.3045
1603.00,3.3075
1602.00,3.3051
1601.00,3.2979
1600.00,3.2918
1599.00,3.2902
1598.00,3.2894
1597.00,3.2839
1596.00,3.2752
1595.00,3.2711
1594.00,3.2762
1593.00,3.2868
1592.00,3.2934
1591.00,3.2895
1590.00,3.2770
1589.00,3.2615
1588.00,3.2467
1587.00,3.2329
1586.00,3.2200
1585.00,3.2103
1584.00,3.2054
1583.00,3.2032
1582.00,3.1991
1581.00,3.1904
1580.00,3.1789
1579.00,3.1669
1578.00,3.1535
1577.00,3.1359
1576.00,3.1146
1575.00,3.0938
1574.00,3.0764
1573.00,3.0609
1572.00,3.0444
1571.00,3.0256
1570.00,3.0043
1569.00,2.9817
1568.00,2.9588
1567.00,2.9359
1566.00,2.9128
1565.00,2.8900
1564.00,2.8683
1563.00,2.8488
1562.00,2.8310
1561.00,2.8114
1560.00,2.7815
1559.00,2.7383
1558.00,2.6890
1557.00,2.6424
1556.00,2.5997
1555.00,2.5593
1554.00,2.5216
1553.00,2.4867
1552.00,2.4529
1551.00,2.4204
1550.00,2.3919
1549.00,2.3681
1548.00,2.3474
1547.00,2.3285
1546.00,2.3136
1545.00,2.3062
1544.00,2.3066
1543.00,2.3123
1542.00,2.3193
1541.00,2.3248
1540.00,2.3306
1539.00,2.3425
1538.00,2.3625
1537.00,2.3874
1536.00,2.4143
1535.00,2.4432
1534.00,2.4763
1533.00,2.5139
1532.00,2.5524
1531.00,2.5907
1530.00,2.6300
1529.00,2.6705
1528.00,2.7103
1527.00,2.7484
1526.00,2.7856
1525.00,2.8209
1524.00,2.8512
1523.00,2.8756
1522.00,2.8986
1521.00,2.9248
1520.00,2.9515
1519.00,2.9742
1518.00,2.9951
1517.00,3.0187
1516.00,3.0457
1515.00,3.0717
1514.00,3.0941
1513.00,3.1150
1512.00,3.1385
1511.00,3.1666
1510.00,3.1961
1509.00,3.2183
1508.00,3.2274
1507.00,3.2290
1506.00,3.2351
1505.00,3.2498
1504.00,3.2664
1503.00,3.2811
1502.00,3.2991
1501.00,3.3259
1500.00,3.3567
1499.00,3.3795
1498.00,3.3874
1497.00,3.3834
1496.00,3.3784
1495.00,3.3837
1494.00,3.4005
1493.00,3.4173
1492.00,3.4225
1491.00,3.4192
1490.00,3.4213
1489.00,3.4323
1488.00,3.4405
1487.00,3.4383
1486.00,3.4337
1485.00,3.4389
1484.00,3.4540
1483.00,3.4685
1482.00,3.4725
1481.00,3.4663
1480.00,3.4594
1479.00,3.4602
1478.00,3.4698
1477.00,3.4824
1476.00,3.4929
1475.00,3.5023
1474.00,3.5151
1473.00,3.5336
1472.00,3.5550
1471.00,3.5748
1470.00,3.5899
1469.00,3.5979
1468.00,3.5983
1467.00,3.5951
1466.00,3.5921
1465.00,3.5882
1464.00,3.5799
1463.00,3.5732
1462.00,3.5790
1461.00,3.6003
1460.00,3.6287
1459.00,3.6533
1458.00,3.6677
1457.00,3.6687
1456.00,3.6545
1455.00,3.6386
1454.00,3.6431
1453.00,3.6738
1452.00,3.7121
1451.00,3.7318
1450.00,3.7364
1449.00,3.7472
1448.00,3.7631
1447.00,3.7657
1446.00,3.7491
1445.00,3.7292
1444.00,3.7272
1443.00,3.7510
1442.00,3.7912
1441.00,3.8338
1440.00,3.8700
1439.00,3.8969
1438.00,3.9273
1437.00,3.9597
1436.00,3.9484
1435.00,3.8861
1434.00,3.8158
1433.00,3.7660
1432.00,3.7484
1431.00,3.7541
1430.00,3.7643
1429.00,3.7662
1428.00,3.7505
1427.00,3.7126
1426.00,3.6634
1425.00,3.6237
1424.00,3.6088
1423.00,3.6218
1422.00,3.6528
1421.00,3.6843
1420.00,3.6991
1419.00,3.6865
1418.00,3.6482
1417.00,3.5983
1416.00,3.5549
1415.00,3.5291
1414.00,3.5208
1413.00,3.5228
1412.00,3.5273
1411.00,3.5295
1410.00,3.5263
1409.00,3.5115
1408.00,3.4842
1407.00,3.4536
1406.00,3.4295
1405.00,3.4134
1404.00,3.4000
1403.00,3.3850
1402.00,3.3690
1401.00,3.3533
1400.00,3.3374
1399.00,3.3193
1398.00,3.2950
1397.00,3.2616
1396.00,3.2224
1395.00,3.1871
1394.00,3.1633
1393.00,3.1506
1392.00,3.1429
1391.00,3.1363
1390.00,3.1316
1389.00,3.1306
1388.00,3.1342
1387.00,3.1436
1386.00,3.1609
1385.00,3.1873
1384.00,3.2231
1383.00,3.2673
1382.00,3.3190
1381.00,3.3779
1380.00,3.4469
1379.00,3.5292
1378.00,3.6180
1377.00,3.6888
1376.00,3.7144
1375.00,3.6951
1374.00,3.6533
1373.00,3.5978
1372.00,3.5221
1371.00,3.4287
1370.00,3.3309
1369.00,3.2389
1368.00,3.1556
1367.00,3.0820
1366.00,3.0209
1365.00,2.9747
1364.00,2.9433
1363.00,2.9241
1362.00,2.9140
1361.00,2.9113
1360.00,2.9169
1359.00,2.9329
1358.00,2.9600
1357.00,2.9957
1356.00,3.0357
1355.00,3.0764
1354.00,3.1163
1353.00,3.1555
1352.00,3.1947
1351.00,3.2328
1350.00,3.2650
1349.00,3.2848
1348.00,3.2894
1347.00,3.2863
1346.00,3.2880
1345.00,3.3020
1344.00,3.3269
1343.00,3.3562
1342.00,3.3828
1341.00,3.4031
1340.00,3.4182
1339.00,3.4304
1338.00,3.4410
1337.00,3.4505
1336.00,3.4596
1335.00,3.4679
1334.00,3.4752
1333.00,3.4823
1332.00,3.4903
1331.00,3.4995
1330.00,3.5095
1329.00,3.5202
1328.00,3.5343
1327.00,3.5566
1326.00,3.5879
1325.00,3.6191
1324.00,3.6372
1323.00,3.6369
1322.00,3.6254
1321.00,3.6161
1320.00,3.6200
1319.00,3.6388
1318.00,3.6611
1317.00,3.6714
1316.00,3.6656
1315.00,3.6520
1314.00,3.6469
1313.00,3.6575
1312.00,3.6702
1311.00,3.6682
1310.00,3.6476
1309.00,3.6181
1308.00,3.5959
1307.00,3.5867
1306.00,3.5841
1305.00,3.5811
1304.00,3.5772
1303.00,3.5761
1302.00,3.5790
1301.00,3.5833
1300.00,3.5858
1299.00,3.5875
1298.00,3.5921
1297.00,3.6003
1296.00,3.6059
1295.00,3.6025
1294.00,3.5914
1293.00,3.5816
1292.00,3.5818
1291.00,3.5915
1290.00,3.5991
1289.00,3.5895
1288.00,3.5604
1287.00,3.5243
1286.00,3.4925
1285.00,3.4684
1284.00,3.4523
1283.00,3.4424
1282.00,3.4349
1281.00,3.4267
1280.00,3.4200
1279.00,3.4168
1278.00,3.4128
1277.00,3.4002
1276.00,3.3776
1275.00,3.3495
1274.00,3.3169
1273.00,3.2785
1272.00,3.2398
1271.00,3.2121
1270.00,3.2001
1269.00,3.1963
1268.00,3.1885
1267.00,3.1704
1266.00,3.1434
1265.00,3.1104
1264.00,3.0723
1263.00,3.0294
1262.00,2.9814
1261.00,2.9284
1260.00,2.8722
1259.00,2.8156
1258.00,2.7592
1257.00,2.7015
1256.00,2.6419
1255.00,2.5817
1254.00,2.5233
1253.00,2.4684
1252.00,2.4193
1251.00,2.3790
1250.00,2.3495
1249.00,2.3317
1248.00,2.3256
1247.00,2.3314
1246.00,2.3495
1245.00,2.3790
1244.00,2.4181
1243.00,2.4652
1242.00,2.5192
1241.00,2.5788
1240.00,2.6424
1239.00,2.7086
1238.00,2.7758
1237.00,2.8409
1236.00,2.8996
1235.00,2.9517
1234.00,3.0027
1233.00,3.0585
1232.00,3.1191
1231.00,3.1791
1230.00,3.2336
1229.00,3.2803
1228.00,3.3193
1227.00,3.3502
1226.00,3.3703
1225.00,3.3774
1224.00,3.3756
1223.00,3.3730
1222.00,3.3724
1221.00,3.3701
1220.00,3.3629
1219.00,3.3541
1218.00,3.3547
1217.00,3.3749
1216.00,3.4124
1215.00,3.4524
1214.00,3.4792
1213.00,3.4913
1212.00,3.5023
1211.00,3.5227
1210.00,3.5486
1209.00,3.5684
1208.00,3.5787
1207.00,3.5888
1206.00,3.6057
1205.00,3.6235
1204.00,3.6338
1203.00,3.6387
1202.00,3.6445
1201.00,3.6582
1200.00,3.6973
1199.00,3.7756
1198.00,3.8454
1197.00,3.8466
1196.00,3.8136
1195.00,3.7685
1194.00,3.7186
1193.00,3.6868
1192.00,3.6803
1191.00,3.6918
1190.00,3.7084
1189.00,3.7244
1188.00,3.7468
1187.00,3.7908
1186.00,3.8444
1185.00,3.8538
1184.00,3.8237
1183.00,3.8070
1182.00,3.8094
1181.00,3.8141
1180.00,3.8261
1179.00,3.8552
1178.00,3.8895
1177.00,3.9120
1176.00,3.9167
1175.00,3.9153
1174.00,3.9269
1173.00,3.9398
1172.00,3.9337
1171.00,3.9150
1170.00,3.8900
1169.00,3.8541
1168.00,3.8101
1167.00,3.7792
1166.00,3.7855
1165.00,3.8304
1164.00,3.8826
1163.00,3.8969
1162.00,3.8629
1161.00,3.8122
1160.00,3.7743
1159.00,3.7576
1158.00,3.7522
1157.00,3.7369
1156.00,3.7042
1155.00,3.6726
1154.00,3.6641
1153.00,3.6847
1152.00,3.7205
1151.00,3.7544
1150.00,3.7780
1149.00,3.7769
1148.00,3.7342
1147.00,3.6607
1146.00,3.5969
1145.00,3.5709
1144.00,3.5715
1143.00,3.5652
1142.00,3.5330
1141.00,3.4846
1140.00,3.4433
1139.00,3.4270
1138.00,3.4373
1137.00,3.4614
1136.00,3.4777
1135.00,3.4668
1134.00,3.4230
1133.00,3.3575
1132.00,3.2914
1131.00,3.2426
1130.00,3.2168
1129.00,3.2076
1128.00,3.2047
1127.00,3.2017
1126.00,3.1953
1125.00,3.1841
1124.00,3.1732
1123.00,3.1728
1122.00,3.1890
1121.00,3.2146
1120.00,3.2308
1119.00,3.2262
1118.00,3.2078
1117.00,3.1788
1116.00,3.1281
1115.00,3.0513
1114.00,2.9665
1113.00,2.8980
1112.00,2.8587
1111.00,2.8486
1110.00,2.8596
1109.00,2.8815
1108.00,2.9074
1107.00,2.9373
1106.00,2.9743
1105.00,3.0186
1104.00,3.0656
1103.00,3.1116
1102.00,3.1595
1101.00,3.2169
1100.00,3.2880
1099.00,3.3674
1098.00,3.4418
1097.00,3.5035
1096.00,3.5574
1095.00,3.6087
1094.00,3.6494
1093.00,3.6605
1092.00,3.6335
1091.00,3.5865
1090.00,3.5473
1089.00,3.5351
1088.00,3.5585
1087.00,3.6178
1086.00,3.6970
1085.00,3.7620
1084.00,3.7959
1083.00,3.8223
1082.00,3.8802
1081.00,3.9806
1080.00,4.0754
1079.00,4.0877
1078.00,4.0220
1077.00,3.9515
1076.00,3.9006
1075.00,3.8433
1074.00,3.7783
1073.00,3.7384
1072.00,3.7477
1071.00,3.8074
1070.00,3.9005
1069.00,3.9987
1068.00,4.0735
1067.00,4.1451
1066.00,4.2768
1065.00,4.5932
1064.00,4.8027
1063.00,4.4825
1062.00,4.3576
1061.00,4.2895
1060.00,4.1717
1059.00,4.0720
1058.00,4.0082
1057.00,3.9745
1056.00,3.9673
1055.00,3.9862
1054.00,4.0048
1053.00,4.0146
1052.00,4.0220
1051.00,4.0587
1050.00,4.1270
1049.00,4.2832
1048.00,4.5077
1047.00,4.3967
1046.00,4.2696
1045.00,4.2400
1044.00,4.2478
1043.00,4.2581
1042.00,4.3620
1041.00,4.4506
1040.00,4.1120
1039.00,3.8819
1038.00,3.7956
1037.00,3.8006
1036.00,3.8892
1035.00,4.0361
1034.00,4.1960
1033.00,4.3695
1032.00,4.5864
1031.00,4.4768
1030.00,4.2884
1029.00,4.3399
1028.00,4.6062
1027.00,4.5271
1026.00,4.2220
1025.00,4.0050
1024.00,3.8474
1023.00,3.7786
1022.00,3.7999
1021.00,3.8719
1020.00,3.9150
1019.00,3.9094
1018.00,3.9114
1017.00,3.9330
1016.00,3.9548
1015.00,3.9360
1014.00,3.8803
1013.00,3.8577
1012.00,3.9106
1011.00,4.0458
1010.00,4.2618
1009.00,4.4731
1008.00,4.5304
1007.00,4.5309
1006.00,4.3845
1005.00,4.1294
1004.00,3.9376
1003.00,3.8375
1002.00,3.8209
1001.00,3.8588
1000.00,3.9070
999.00,3.9309
998.00,3.9453
997.00,3.9990
996.00,4.1133
995.00,4.2111
994.00,4.1959
993.00,4.1270
992.00,4.0710
991.00,4.0807
990.00,4.1480
989.00,4.1428
988.00,4.0668
987.00,4.0371
986.00,4.0292
985.00,3.9784
984.00,3.9171
983.00,3.8937
982.00,3.9111
981.00,3.9316
980.00,3.8893
979.00,3.7908
978.00,3.7077
977.00,3.6617
976.00,3.6369
975.00,3.6162
974.00,3.5922
973.00,3.5641
972.00,3.5346
971.00,3.5122
970.00,3.5046
969.00,3.5080
968.00,3.5128
967.00,3.5236
966.00,3.5622
965.00,3.6478
964.00,3.7782
963.00,3.9125
962.00,3.9949
961.00,4.0297
960.00,4.0592
959.00,4.1252
958.00,4.2216
957.00,4.2417
956.00,4.1382
955.00,4.0193
954.00,3.9656
953.00,3.9860
952.00,4.0652
951.00,4.1636
950.00,4.2634
949.00,4.3650
948.00,4.5758
947.00,5.0292
946.00,4.7371
945.00,4.3067
944.00,4.0515
943.00,3.8941
942.00,3.8485
941.00,3.9131
940.00,4.1840
939.00,4.4839
938.00,4.1952
937.00,4.1097
936.00,4.1151
935.00,4.0369
934.00,4.0162
933.00,4.0907
932.00,4.3057
931.00,4.4785
930.00,4.3719
929.00,4.3834
928.00,4.6600
927.00,5.0321
926.00,4.8165
925.00,4.6506
924.00,4.5047
923.00,4.3319
922.00,4.2601
921.00,4.2093
920.00,4.1173
919.00,4.0181
918.00,3.9543
917.00,3.9285
916.00,3.9091
915.00,3.8962
914.00,3.9365
913.00,4.0484
912.00,4.2113
911.00,4.2799
910.00,4.1997
909.00,4.2044
908.00,4.3024
907.00,4.4012
906.00,4.4209
905.00,4.2646
904.00,4.1006
903.00,3.9834
902.00,3.9300
901.00,3.9806
900.00,4.1470
899.00,4.3551
898.00,4.3309
897.00,4.1348
896.00,4.0126
895.00,3.9903
894.00,4.0264
893.00,4.0902
892.00,4.1463
891.00,4.1495
890.00,4.0940
889.00,4.0063
888.00,3.9303
887.00,3.8909
886.00,3.8919
885.00,3.9246
884.00,3.9912
883.00,4.0925
882.00,4.2750
881.00,4.3405
880.00,4.5086
879.00,4.7414
878.00,4.1488
877.00,3.9728
876.00,3.9677
875.00,3.9560
874.00,3.9689
873.00,4.0859
872.00,4.5226
871.00,4.6975
870.00,4.1881
869.00,4.0551
868.00,4.0318
867.00,4.1699
866.00,4.7320
865.00,4.3542
864.00,4.2384
863.00,4.5242
862.00,4.2738
861.00,4.1032
860.00,4.1796
859.00,4.4054
858.00,4.8378
857.00,5.2385
856.00,4.6217
855.00,4.4917
854.00,4.5168
853.00,4.3493
852.00,4.1869
851.00,4.0720
850.00,3.9874
849.00,3.9298
848.00,3.9172
847.00,3.9594
846.00,4.0778
845.00,4.2523
844.00,4.2629
843.00,4.1277
842.00,4.0581
841.00,4.0910
840.00,4.2971
839.00,4.4833
838.00,4.3848
837.00,4.5858
836.00,4.6155
835.00,4.2436
834.00,4.2685
833.00,4.5857
832.00,4.4623
831.00,4.3162
830.00,4.5713
829.00,4.5807
828.00,4.2811
827.00,4.2998
826.00,4.4208
825.00,4.3505
824.00,4.1382
823.00,3.9874
822.00,4.0488
821.00,4.5470
820.00,4.6147
819.00,4.2819
818.00,4.5900
817.00,4.4028
816.00,4.0922
815.00,4.0950
814.00,4.3540
813.00,4.9887
812.00,4.9174
811.00,4.7553
810.00,4.4364
809.00,4.1633
808.00,4.0289
807.00,3.9669
806.00,3.9617
805.00,3.9803
804.00,4.0127
803.00,4.0473
802.00,4.1233
801.00,4.1213
800.00,3.9563
799.00,3.8363
798.00,3.7669
797.00,3.7015
796.00,3.6380
795.00,3.6051
794.00,3.6435
793.00,3.7659
792.00,3.9589
791.00,4.1727
790.00,4.3518
789.00,4.4917
788.00,4.5753
787.00,4.4560
786.00,4.1912
785.00,4.0362
784.00,4.0632
783.00,4.2953
782.00,4.6666
781.00,4.5020
780.00,4.1710
779.00,4.0424
778.00,4.0359
777.00,4.0829
776.00,4.1671
775.00,4.2769
774.00,4.2951
773.00,4.3186
772.00,4.5345
771.00,4.3330
770.00,4.0835
769.00,4.0772
768.00,4.3468
767.00,4.8509
766.00,4.3996
765.00,4.1259
764.00,3.9775
763.00,3.8909
762.00,3.9134
761.00,4.0337
760.00,4.3412
759.00,4.8015
758.00,4.4067
757.00,4.2202
756.00,4.2146
755.00,4.3526
754.00,5.0460
753.00,4.6986
752.00,4.5711
751.00,4.9871
750.00,4.2602
749.00,4.0088
748.00,3.9857
747.00,4.1105
746.00,4.3492
745.00,4.3380
744.00,4.2284
743.00,4.4008
742.00,4.7017
741.00,4.2805
740.00,4.1347
739.00,4.0705
738.00,3.9280
737.00,3.8332
736.00,3.8259
735.00,3.9100
734.00,4.0199
733.00,4.0552
732.00,4.0325
731.00,4.0255
730.00,4.0718
729.00,4.1821
728.00,4.2778
727.00,4.3569
726.00,4.4470
725.00,4.2902
724.00,4.0611
723.00,3.9438
722.00,3.9126
721.00,3.9199
720.00,3.9410
719.00,3.9712
718.00,4.0292
717.00,4.1260
716.00,4.3339
715.00,4.7127
714.00,4.6093
713.00,4.4241
712.00,4.4150
711.00,4.4581
710.00,4.4385
709.00,4.3141
708.00,4.1233
707.00,3.9310
706.00,3.8460
705.00,3.8772
704.00,3.9650
703.00,4.0340
702.00,4.0850
701.00,4.1993
700.00,4.4948
