Created as New Dataset,Sample 027 By Administrator Date Wednesday, November 24 2021
cm-1,A
7502.00,0.4922
7501.00,0.5001
7500.00,0.5081
7499.00,0.5163
7498.00,0.5246
7497.00,0.5331
7496.00,0.5418
7495.00,0.5506
7494.00,0.5597
7493.00,0.5691
7492.00,0.5790
7491.00,0.5894
7490.00,0.6002
7489.00,0.6110
7488.00,0.6215
7487.00,0.6314
7486.00,0.6409
7485.00,0.6503
7484.00,0.6598
7483.00,0.6692
7482.00,0.6783
7481.00,0.6874
7480.00,0.6967
7479.00,0.7065
7478.00,0.7165
7477.00,0.7262
7476.00,0.7356
7475.00,0.7447
7474.00,0.7539
7473.00,0.7633
7472.00,0.7726
7471.00,0.7815
7470.00,0.7902
7469.00,0.7988
7468.00,0.8072
7467.00,0.8152
7466.00,0.8229
7465.00,0.8304
7464.00,0.8377
7463.00,0.8444
7462.00,0.8503
7461.00,0.8555
7460.00,0.8604
7459.00,0.8657
7458.00,0.8715
7457.00,0.8774
7456.00,0.8826
7455.00,0.8870
7454.00,0.8910
7453.00,0.8952
7452.00,0.8990
7451.00,0.9018
7450.00,0.9035
7449.00,0.9048
7448.00,0.9062
7447.00,0.9077
7446.00,0.9090
7445.00,0.9102
7444.00,0.9115
7443.00,0.9129
7442.00,0.9140
7441.00,0.9147
7440.00,0.9150
7439.00,0.9151
7438.00,0.9149
7437.00,0.9141
7436.00,0.9125
7435.00,0.9103
7434.00,0.9080
7433.00,0.9057
7432.00,0.9032
7431.00,0.9001
7430.00,0.8963
7429.00,0.8921
7428.00,0.8880
7427.00,0.8840
7426.00,0.8798
7425.00,0.8745
7424.00,0.8679
7423.00,0.8605
7422.00,0.8536
7421.00,0.8474
7420.00,0.8411
7419.00,0.8341
7418.00,0.8267
7417.00,0.8196
7416.00,0.8129
7415.00,0.8062
7414.00,0.7988
7413.00,0.7907
7412.00,0.7820
7411.00,0.7733
7410.00,0.7649
7409.00,0.7569
7408.00,0.7489
7407.00,0.7407
7406.00,0.7324
7405.00,0.7244
7404.00,0.7164
7403.00,0.7081
7402.00,0.6997
7401.00,0.6913
7400.00,0.6832
7399.00,0.6753
7398.00,0.6676
7397.00,0.6602
7396.00,0.6532
7395.00,0.6465
7394.00,0.6401
7393.00,0.6341
7392.00,0.6285
7391.00,0.6231
7390.00,0.6178
7389.00,0.6127
7388.00,0.6082
7387.00,0.6042
7386.00,0.6007
7385.00,0.5973
7384.00,0.5942
7383.00,0.5916
7382.00,0.5896
7381.00,0.5883
7380.00,0.5877
7379.00,0.5874
7378.00,0.5876
7377.00,0.5884
7376.00,0.5898
7375.00,0.5919
7374.00,0.5947
7373.00,0.5980
7372.00,0.6019
7371.00,0.6061
7370.00,0.6104
7369.00,0.6150
7368.00,0.6198
7367.00,0.6249
7366.00,0.6303
7365.00,0.6362
7364.00,0.6425
7363.00,0.6495
7362.00,0.6569
7361.00,0.6645
7360.00,0.6721
7359.00,0.6795
7358.00,0.6870
7357.00,0.6947
7356.00,0.7027
7355.00,0.7110
7354.00,0.7198
7353.00,0.7288
7352.00,0.7378
7351.00,0.7466
7350.00,0.7552
7349.00,0.7639
7348.00,0.7726
7347.00,0.7815
7346.00,0.7906
7345.00,0.8002
7344.00,0.8098
7343.00,0.8189
7342.00,0.8277
7341.00,0.8364
7340.00,0.8451
7339.00,0.8534
7338.00,0.8609
7337.00,0.8679
7336.00,0.8753
7335.00,0.8833
7334.00,0.8915
7333.00,0.8991
7332.00,0.9062
7331.00,0.9131
7330.00,0.9201
7329.00,0.9268
7328.00,0.9328
7327.00,0.9382
7326.00,0.9435
7325.00,0.9489
7324.00,0.9540
7323.00,0.9590
7322.00,0.9639
7321.00,0.9687
7320.00,0.9732
7319.00,0.9773
7318.00,0.9810
7317.00,0.9844
7316.00,0.9880
7315.00,0.9915
7314.00,0.9947
7313.00,0.9974
7312.00,0.9992
7311.00,1.0004
7310.00,1.0014
7309.00,1.0021
7308.00,1.0022
7307.00,1.0013
7306.00,0.9999
7305.00,0.9986
7304.00,0.9981
7303.00,0.9980
7302.00,0.9978
7301.00,0.9974
7300.00,0.9968
7299.00,0.9960
7298.00,0.9949
7297.00,0.9930
7296.00,0.9900
7295.00,0.9862
7294.00,0.9817
7293.00,0.9768
7292.00,0.9712
7291.00,0.9650
7290.00,0.9585
7289.00,0.9519
7288.00,0.9452
7287.00,0.9383
7286.00,0.9315
7285.00,0.9251
7284.00,0.9192
7283.00,0.9136
7282.00,0.9078
7281.00,0.9013
7280.00,0.8942
7279.00,0.8867
7278.00,0.8795
7277.00,0.8723
7276.00,0.8647
7275.00,0.8565
7274.00,0.8482
7273.00,0.8402
7272.00,0.8323
7271.00,0.8242
7270.00,0.8158
7269.00,0.8073
7268.00,0.7989
7267.00,0.7907
7266.00,0.7827
7265.00,0.7747
7264.00,0.7670
7263.00,0.7595
7262.00,0.7524
7261.00,0.7458
7260.00,0.7394
7259.00,0.7331
7258.00,0.7269
7257.00,0.7207
7256.00,0.7143
7255.00,0.7074
7254.00,0.7004
7253.00,0.6935
7252.00,0.6871
7251.00,0.6813
7250.00,0.6759
7249.00,0.6713
7248.00,0.6673
7247.00,0.6638
7246.00,0.6607
7245.00,0.6582
7244.00,0.6561
7243.00,0.6546
7242.00,0.6535
7241.00,0.6529
7240.00,0.6527
7239.00,0.6532
7238.00,0.6543
7237.00,0.6559
7236.00,0.6576
7235.00,0.6593
7234.00,0.6613
7233.00,0.6638
7232.00,0.6670
7231.00,0.6710
7230.00,0.6754
7229.00,0.6803
7228.00,0.6857
7227.00,0.6916
7226.00,0.6982
7225.00,0.7050
7224.00,0.7119
7223.00,0.7186
7222.00,0.7254
7221.00,0.7325
7220.00,0.7402
7219.00,0.7484
7218.00,0.7569
7217.00,0.7655
7216.00,0.7742
7215.00,0.7832
7214.00,0.7923
7213.00,0.8015
7212.00,0.8103
7211.00,0.8188
7210.00,0.8274
7209.00,0.8365
7208.00,0.8458
7207.00,0.8552
7206.00,0.8645
7205.00,0.8738
7204.00,0.8831
7203.00,0.8921
7202.00,0.9007
7201.00,0.9089
7200.00,0.9169
7199.00,0.9250
7198.00,0.9334
7197.00,0.9418
7196.00,0.9502
7195.00,0.9586
7194.00,0.9671
7193.00,0.9757
7192.00,0.9839
7191.00,0.9917
7190.00,0.9993
7189.00,1.0069
7188.00,1.0143
7187.00,1.0209
7186.00,1.0267
7185.00,1.0320
7184.00,1.0370
7183.00,1.0422
7182.00,1.0475
7181.00,1.0528
7180.00,1.0576
7179.00,1.0618
7178.00,1.0657
7177.00,1.0695
7176.00,1.0732
7175.00,1.0764
7174.00,1.0792
7173.00,1.0818
7172.00,1.0845
7171.00,1.0870
7170.00,1.0887
7169.00,1.0896
7168.00,1.0901
7167.00,1.0903
7166.00,1.0901
7165.00,1.0896
7164.00,1.0890
7163.00,1.0884
7162.00,1.0874
7161.00,1.0857
7160.00,1.0833
7159.00,1.0807
7158.00,1.0786
7157.00,1.0771
7156.00,1.0755
7155.00,1.0732
7154.00,1.0699
7153.00,1.0661
7152.00,1.0620
7151.00,1.0575
7150.00,1.0524
7149.00,1.0467
7148.00,1.0410
7147.00,1.0355
7146.00,1.0296
7145.00,1.0229
7144.00,1.0158
7143.00,1.0087
7142.00,1.0016
7141.00,0.9943
7140.00,0.9864
7139.00,0.9783
7138.00,0.9701
7137.00,0.9617
7136.00,0.9530
7135.00,0.9441
7134.00,0.9351
7133.00,0.9260
7132.00,0.9167
7131.00,0.9075
7130.00,0.8983
7129.00,0.8892
7128.00,0.8800
7127.00,0.8708
7126.00,0.8617
7125.00,0.8528
7124.00,0.8438
7123.00,0.8349
7122.00,0.8261
7121.00,0.8175
7120.00,0.8091
7119.00,0.8008
7118.00,0.7926
7117.00,0.7846
7116.00,0.7768
7115.00,0.7692
7114.00,0.7621
7113.00,0.7554
7112.00,0.7492
7111.00,0.7436
7110.00,0.7387
7109.00,0.7342
7108.00,0.7299
7107.00,0.7259
7106.00,0.7223
7105.00,0.7191
7104.00,0.7163
7103.00,0.7141
7102.00,0.7127
7101.00,0.7121
7100.00,0.7120
7099.00,0.7121
7098.00,0.7128
7097.00,0.7141
7096.00,0.7160
7095.00,0.7184
7094.00,0.7212
7093.00,0.7246
7092.00,0.7285
7091.00,0.7329
7090.00,0.7376
7089.00,0.7427
7088.00,0.7481
7087.00,0.7537
7086.00,0.7598
7085.00,0.7662
7084.00,0.7729
7083.00,0.7800
7082.00,0.7875
7081.00,0.7955
7080.00,0.8036
7079.00,0.8116
7078.00,0.8197
7077.00,0.8282
7076.00,0.8368
7075.00,0.8454
7074.00,0.8538
7073.00,0.8623
7072.00,0.8711
7071.00,0.8803
7070.00,0.8897
7069.00,0.8993
7068.00,0.9087
7067.00,0.9178
7066.00,0.9267
7065.00,0.9358
7064.00,0.9449
7063.00,0.9538
7062.00,0.9622
7061.00,0.9704
7060.00,0.9786
7059.00,0.9870
7058.00,0.9953
7057.00,1.0037
7056.00,1.0119
7055.00,1.0198
7054.00,1.0273
7053.00,1.0344
7052.00,1.0411
7051.00,1.0471
7050.00,1.0526
7049.00,1.0577
7048.00,1.0631
7047.00,1.0689
7046.00,1.0750
7045.00,1.0809
7044.00,1.0863
7043.00,1.0911
7042.00,1.0956
7041.00,1.0997
7040.00,1.1033
7039.00,1.1064
7038.00,1.1093
7037.00,1.1123
7036.00,1.1148
7035.00,1.1167
7034.00,1.1178
7033.00,1.1188
7032.00,1.1197
7031.00,1.1203
7030.00,1.1205
7029.00,1.1206
7028.00,1.1205
7027.00,1.1201
7026.00,1.1193
7025.00,1.1182
7024.00,1.1169
7023.00,1.1155
7022.00,1.1139
7021.00,1.1118
7020.00,1.1090
7019.00,1.1054
7018.00,1.1011
7017.00,1.0964
7016.00,1.0915
7015.00,1.0862
7014.00,1.0805
7013.00,1.0747
7012.00,1.0693
7011.00,1.0640
7010.00,1.0584
7009.00,1.0522
7008.00,1.0456
7007.00,1.0388
7006.00,1.0317
7005.00,1.0241
7004.00,1.0156
7003.00,1.0066
7002.00,0.9976
7001.00,0.9888
7000.00,0.9802
6999.00,0.9714
6998.00,0.9622
6997.00,0.9530
6996.00,0.9438
6995.00,0.9346
6994.00,0.9253
6993.00,0.9158
6992.00,0.9063
6991.00,0.8969
6990.00,0.8875
6989.00,0.8781
6988.00,0.8687
6987.00,0.8592
6986.00,0.8498
6985.00,0.8405
6984.00,0.8315
6983.00,0.8227
6982.00,0.8140
6981.00,0.8053
6980.00,0.7969
6979.00,0.7888
6978.00,0.7813
6977.00,0.7743
6976.00,0.7676
6975.00,0.7612
6974.00,0.7554
6973.00,0.7500
6972.00,0.7449
6971.00,0.7399
6970.00,0.7352
6969.00,0.7310
6968.00,0.7271
6967.00,0.7237
6966.00,0.7208
6965.00,0.7185
6964.00,0.7169
6963.00,0.7157
6962.00,0.7151
6961.00,0.7150
6960.00,0.7157
6959.00,0.7169
6958.00,0.7186
6957.00,0.7207
6956.00,0.7232
6955.00,0.7262
6954.00,0.7297
6953.00,0.7336
6952.00,0.7379
6951.00,0.7424
6950.00,0.7474
6949.00,0.7529
6948.00,0.7590
6947.00,0.7655
6946.00,0.7723
6945.00,0.7794
6944.00,0.7869
6943.00,0.7948
6942.00,0.8029
6941.00,0.8110
6940.00,0.8192
6939.00,0.8275
6938.00,0.8361
6937.00,0.8450
6936.00,0.8541
6935.00,0.8633
6934.00,0.8728
6933.00,0.8824
6932.00,0.8921
6931.00,0.9015
6930.00,0.9109
6929.00,0.9204
6928.00,0.9299
6927.00,0.9395
6926.00,0.9489
6925.00,0.9581
6924.00,0.9670
6923.00,0.9756
6922.00,0.9841
6921.00,0.9926
6920.00,1.0012
6919.00,1.0099
6918.00,1.0188
6917.00,1.0278
6916.00,1.0367
6915.00,1.0452
6914.00,1.0531
6913.00,1.0603
6912.00,1.0669
6911.00,1.0733
6910.00,1.0799
6909.00,1.0866
6908.00,1.0932
6907.00,1.0995
6906.00,1.1059
6905.00,1.1125
6904.00,1.1190
6903.00,1.1249
6902.00,1.1300
6901.00,1.1345
6900.00,1.1385
6899.00,1.1419
6898.00,1.1450
6897.00,1.1480
6896.00,1.1509
6895.00,1.1536
6894.00,1.1561
6893.00,1.1584
6892.00,1.1602
6891.00,1.1612
6890.00,1.1613
6889.00,1.1612
6888.00,1.1613
6887.00,1.1618
6886.00,1.1623
6885.00,1.1623
6884.00,1.1616
6883.00,1.1602
6882.00,1.1582
6881.00,1.1555
6880.00,1.1523
6879.00,1.1490
6878.00,1.1457
6877.00,1.1423
6876.00,1.1386
6875.00,1.1348
6874.00,1.1307
6873.00,1.1262
6872.00,1.1209
6871.00,1.1153
6870.00,1.1097
6869.00,1.1040
6868.00,1.0978
6867.00,1.0910
6866.00,1.0839
6865.00,1.0767
6864.00,1.0695
6863.00,1.0619
6862.00,1.0539
6861.00,1.0454
6860.00,1.0365
6859.00,1.0272
6858.00,1.0177
6857.00,1.0082
6856.00,0.9986
6855.00,0.9889
6854.00,0.9790
6853.00,0.9691
6852.00,0.9590
6851.00,0.9489
6850.00,0.9388
6849.00,0.9289
6848.00,0.9189
6847.00,0.9088
6846.00,0.8988
6845.00,0.8890
6844.00,0.8793
6843.00,0.8698
6842.00,0.8605
6841.00,0.8517
6840.00,0.8431
6839.00,0.8349
6838.00,0.8271
6837.00,0.8196
6836.00,0.8122
6835.00,0.8049
6834.00,0.7980
6833.00,0.7914
6832.00,0.7854
6831.00,0.7799
6830.00,0.7748
6829.00,0.7702
6828.00,0.7659
6827.00,0.7621
6826.00,0.7590
6825.00,0.7566
6824.00,0.7545
6823.00,0.7529
6822.00,0.7518
6821.00,0.7515
6820.00,0.7519
6819.00,0.7529
6818.00,0.7543
6817.00,0.7563
6816.00,0.7589
6815.00,0.7621
6814.00,0.7657
6813.00,0.7696
6812.00,0.7739
6811.00,0.7787
6810.00,0.7839
6809.00,0.7898
6808.00,0.7961
6807.00,0.8028
6806.00,0.8099
6805.00,0.8172
6804.00,0.8247
6803.00,0.8325
6802.00,0.8406
6801.00,0.8492
6800.00,0.8579
6799.00,0.8665
6798.00,0.8753
6797.00,0.8844
6796.00,0.8935
6795.00,0.9024
6794.00,0.9114
6793.00,0.9206
6792.00,0.9301
6791.00,0.9396
6790.00,0.9492
6789.00,0.9587
6788.00,0.9682
6787.00,0.9775
6786.00,0.9866
6785.00,0.9955
6784.00,1.0044
6783.00,1.0133
6782.00,1.0222
6781.00,1.0312
6780.00,1.0400
6779.00,1.0485
6778.00,1.0564
6777.00,1.0638
6776.00,1.0708
6775.00,1.0774
6774.00,1.0840
6773.00,1.0906
6772.00,1.0973
6771.00,1.1039
6770.00,1.1103
6769.00,1.1164
6768.00,1.1219
6767.00,1.1268
6766.00,1.1315
6765.00,1.1364
6764.00,1.1415
6763.00,1.1461
6762.00,1.1502
6761.00,1.1538
6760.00,1.1571
6759.00,1.1599
6758.00,1.1621
6757.00,1.1639
6756.00,1.1655
6755.00,1.1669
6754.00,1.1681
6753.00,1.1689
6752.00,1.1691
6751.00,1.1686
6750.00,1.1677
6749.00,1.1667
6748.00,1.1659
6747.00,1.1650
6746.00,1.1637
6745.00,1.1618
6744.00,1.1594
6743.00,1.1568
6742.00,1.1539
6741.00,1.1504
6740.00,1.1461
6739.00,1.1412
6738.00,1.1361
6737.00,1.1310
6736.00,1.1258
6735.00,1.1202
6734.00,1.1142
6733.00,1.1077
6732.00,1.1011
6731.00,1.0944
6730.00,1.0874
6729.00,1.0797
6728.00,1.0714
6727.00,1.0628
6726.00,1.0541
6725.00,1.0454
6724.00,1.0367
6723.00,1.0279
6722.00,1.0191
6721.00,1.0101
6720.00,1.0010
6719.00,0.9918
6718.00,0.9824
6717.00,0.9726
6716.00,0.9623
6715.00,0.9519
6714.00,0.9418
6713.00,0.9321
6712.00,0.9225
6711.00,0.9127
6710.00,0.9027
6709.00,0.8928
6708.00,0.8830
6707.00,0.8731
6706.00,0.8632
6705.00,0.8536
6704.00,0.8444
6703.00,0.8356
6702.00,0.8271
6701.00,0.8189
6700.00,0.8109
6699.00,0.8032
6698.00,0.7958
6697.00,0.7890
6696.00,0.7825
6695.00,0.7763
6694.00,0.7703
6693.00,0.7648
6692.00,0.7598
6691.00,0.7551
6690.00,0.7507
6689.00,0.7468
6688.00,0.7435
6687.00,0.7409
6686.00,0.7389
6685.00,0.7375
6684.00,0.7364
6683.00,0.7359
6682.00,0.7361
6681.00,0.7369
6680.00,0.7381
6679.00,0.7396
6678.00,0.7417
6677.00,0.7444
6676.00,0.7478
6675.00,0.7517
6674.00,0.7560
6673.00,0.7607
6672.00,0.7659
6671.00,0.7716
6670.00,0.7777
6669.00,0.7842
6668.00,0.7911
6667.00,0.7985
6666.00,0.8062
6665.00,0.8142
6664.00,0.8225
6663.00,0.8308
6662.00,0.8394
6661.00,0.8482
6660.00,0.8574
6659.00,0.8667
6658.00,0.8763
6657.00,0.8863
6656.00,0.8964
6655.00,0.9065
6654.00,0.9163
6653.00,0.9263
6652.00,0.9362
6651.00,0.9462
6650.00,0.9561
6649.00,0.9658
6648.00,0.9755
6647.00,0.9850
6646.00,0.9942
6645.00,1.0031
6644.00,1.0120
6643.00,1.0211
6642.00,1.0306
6641.00,1.0403
6640.00,1.0499
6639.00,1.0592
6638.00,1.0681
6637.00,1.0767
6636.00,1.0846
6635.00,1.0920
6634.00,1.0991
6633.00,1.1065
6632.00,1.1140
6631.00,1.1213
6630.00,1.1280
6629.00,1.1342
6628.00,1.1398
6627.00,1.1450
6626.00,1.1499
6625.00,1.1547
6624.00,1.1596
6623.00,1.1644
6622.00,1.1689
6621.00,1.1730
6620.00,1.1768
6619.00,1.1802
6618.00,1.1832
6617.00,1.1859
6616.00,1.1884
6615.00,1.1905
6614.00,1.1922
6613.00,1.1933
6612.00,1.1940
6611.00,1.1947
6610.00,1.1955
6609.00,1.1962
6608.00,1.1964
6607.00,1.1961
6606.00,1.1950
6605.00,1.1932
6604.00,1.1906
6603.00,1.1873
6602.00,1.1837
6601.00,1.1805
6600.00,1.1777
6599.00,1.1749
6598.00,1.1717
6597.00,1.1677
6596.00,1.1627
6595.00,1.1572
6594.00,1.1512
6593.00,1.1448
6592.00,1.1382
6591.00,1.1317
6590.00,1.1255
6589.00,1.1193
6588.00,1.1127
6587.00,1.1054
6586.00,1.0976
6585.00,1.0894
6584.00,1.0808
6583.00,1.0717
6582.00,1.0620
6581.00,1.0521
6580.00,1.0420
6579.00,1.0317
6578.00,1.0213
6577.00,1.0110
6576.00,1.0008
6575.00,0.9906
6574.00,0.9804
6573.00,0.9701
6572.00,0.9596
6571.00,0.9490
6570.00,0.9382
6569.00,0.9274
6568.00,0.9167
6567.00,0.9062
6566.00,0.8959
6565.00,0.8857
6564.00,0.8757
6563.00,0.8657
6562.00,0.8561
6561.00,0.8468
6560.00,0.8378
6559.00,0.8292
6558.00,0.8210
6557.00,0.8132
6556.00,0.8056
6555.00,0.7982
6554.00,0.7912
6553.00,0.7848
6552.00,0.7789
6551.00,0.7736
6550.00,0.7690
6549.00,0.7649
6548.00,0.7614
6547.00,0.7583
6546.00,0.7557
6545.00,0.7536
6544.00,0.7522
6543.00,0.7515
6542.00,0.7516
6541.00,0.7525
6540.00,0.7539
6539.00,0.7559
6538.00,0.7583
6537.00,0.7614
6536.00,0.7648
6535.00,0.7687
6534.00,0.7731
6533.00,0.7781
6532.00,0.7838
6531.00,0.7899
6530.00,0.7966
6529.00,0.8038
6528.00,0.8113
6527.00,0.8190
6526.00,0.8268
6525.00,0.8348
6524.00,0.8431
6523.00,0.8516
6522.00,0.8605
6521.00,0.8697
6520.00,0.8791
6519.00,0.8886
6518.00,0.8982
6517.00,0.9079
6516.00,0.9177
6515.00,0.9276
6514.00,0.9377
6513.00,0.9479
6512.00,0.9580
6511.00,0.9678
6510.00,0.9775
6509.00,0.9870
6508.00,0.9963
6507.00,1.0056
6506.00,1.0152
6505.00,1.0248
6504.00,1.0344
6503.00,1.0436
6502.00,1.0526
6501.00,1.0613
6500.00,1.0696
6499.00,1.0775
6498.00,1.0853
6497.00,1.0933
6496.00,1.1013
6495.00,1.1089
6494.00,1.1160
6493.00,1.1227
6492.00,1.1288
6491.00,1.1343
6490.00,1.1393
6489.00,1.1443
6488.00,1.1493
6487.00,1.1543
6486.00,1.1591
6485.00,1.1637
6484.00,1.1679
6483.00,1.1715
6482.00,1.1746
6481.00,1.1773
6480.00,1.1797
6479.00,1.1819
6478.00,1.1837
6477.00,1.1855
6476.00,1.1871
6475.00,1.1884
6474.00,1.1890
6473.00,1.1892
6472.00,1.1889
6471.00,1.1880
6470.00,1.1866
6469.00,1.1845
6468.00,1.1818
6467.00,1.1789
6466.00,1.1760
6465.00,1.1732
6464.00,1.1706
6463.00,1.1678
6462.00,1.1645
6461.00,1.1607
6460.00,1.1562
6459.00,1.1508
6458.00,1.1447
6457.00,1.1382
6456.00,1.1315
6455.00,1.1246
6454.00,1.1178
6453.00,1.1110
6452.00,1.1043
6451.00,1.0974
6450.00,1.0901
6449.00,1.0824
6448.00,1.0743
6447.00,1.0659
6446.00,1.0572
6445.00,1.0481
6444.00,1.0386
6443.00,1.0288
6442.00,1.0188
6441.00,1.0088
6440.00,0.9987
6439.00,0.9887
6438.00,0.9787
6437.00,0.9687
6436.00,0.9587
6435.00,0.9485
6434.00,0.9382
6433.00,0.9279
6432.00,0.9174
6431.00,0.9069
6430.00,0.8966
6429.00,0.8866
6428.00,0.8768
6427.00,0.8669
6426.00,0.8570
6425.00,0.8471
6424.00,0.8376
6423.00,0.8285
6422.00,0.8195
6421.00,0.8109
6420.00,0.8026
6419.00,0.7948
6418.00,0.7874
6417.00,0.7803
6416.00,0.7737
6415.00,0.7675
6414.00,0.7618
6413.00,0.7565
6412.00,0.7517
6411.00,0.7472
6410.00,0.7432
6409.00,0.7397
6408.00,0.7366
6407.00,0.7341
6406.00,0.7322
6405.00,0.7311
6404.00,0.7306
6403.00,0.7308
6402.00,0.7316
6401.00,0.7331
6400.00,0.7353
6399.00,0.7380
6398.00,0.7413
6397.00,0.7453
6396.00,0.7498
6395.00,0.7547
6394.00,0.7600
6393.00,0.7656
6392.00,0.7715
6391.00,0.7779
6390.00,0.7847
6389.00,0.7920
6388.00,0.7999
6387.00,0.8083
6386.00,0.8173
6385.00,0.8266
6384.00,0.8361
6383.00,0.8456
6382.00,0.8551
6381.00,0.8648
6380.00,0.8745
6379.00,0.8845
6378.00,0.8946
6377.00,0.9051
6376.00,0.9156
6375.00,0.9261
6374.00,0.9365
6373.00,0.9469
6372.00,0.9571
6371.00,0.9672
6370.00,0.9773
6369.00,0.9873
6368.00,0.9973
6367.00,1.0072
6366.00,1.0171
6365.00,1.0271
6364.00,1.0367
6363.00,1.0461
6362.00,1.0553
6361.00,1.0644
6360.00,1.0732
6359.00,1.0816
6358.00,1.0899
6357.00,1.0982
6356.00,1.1066
6355.00,1.1145
6354.00,1.1219
6353.00,1.1291
6352.00,1.1362
6351.00,1.1429
6350.00,1.1490
6349.00,1.1546
6348.00,1.1598
6347.00,1.1648
6346.00,1.1696
6345.00,1.1743
6344.00,1.1790
6343.00,1.1835
6342.00,1.1878
6341.00,1.1917
6340.00,1.1950
6339.00,1.1977
6338.00,1.1997
6337.00,1.2015
6336.00,1.2033
6335.00,1.2049
6334.00,1.2059
6333.00,1.2062
6332.00,1.2059
6331.00,1.2053
6330.00,1.2045
6329.00,1.2036
6328.00,1.2020
6327.00,1.2000
6326.00,1.1975
6325.00,1.1947
6324.00,1.1915
6323.00,1.1878
6322.00,1.1839
6321.00,1.1801
6320.00,1.1764
6319.00,1.1724
6318.00,1.1677
6317.00,1.1625
6316.00,1.1566
6315.00,1.1502
6314.00,1.1435
6313.00,1.1366
6312.00,1.1296
6311.00,1.1222
6310.00,1.1144
6309.00,1.1063
6308.00,1.0980
6307.00,1.0895
6306.00,1.0805
6305.00,1.0713
6304.00,1.0617
6303.00,1.0521
6302.00,1.0422
6301.00,1.0320
6300.00,1.0215
6299.00,1.0107
6298.00,0.9998
6297.00,0.9888
6296.00,0.9776
6295.00,0.9660
6294.00,0.9542
6293.00,0.9424
6292.00,0.9306
6291.00,0.9189
6290.00,0.9074
6289.00,0.8964
6288.00,0.8856
6287.00,0.8749
6286.00,0.8641
6285.00,0.8534
6284.00,0.8429
6283.00,0.8326
6282.00,0.8226
6281.00,0.8130
6280.00,0.8037
6279.00,0.7949
6278.00,0.7865
6277.00,0.7785
6276.00,0.7710
6275.00,0.7641
6274.00,0.7578
6273.00,0.7521
6272.00,0.7471
6271.00,0.7427
6270.00,0.7387
6269.00,0.7352
6268.00,0.7321
6267.00,0.7297
6266.00,0.7281
6265.00,0.7271
6264.00,0.7270
6263.00,0.7276
6262.00,0.7290
6261.00,0.7311
6260.00,0.7339
6259.00,0.7372
6258.00,0.7409
6257.00,0.7452
6256.00,0.7500
6255.00,0.7553
6254.00,0.7612
6253.00,0.7676
6252.00,0.7744
6251.00,0.7816
6250.00,0.7892
6249.00,0.7972
6248.00,0.8055
6247.00,0.8140
6246.00,0.8230
6245.00,0.8322
6244.00,0.8418
6243.00,0.8515
6242.00,0.8615
6241.00,0.8716
6240.00,0.8819
6239.00,0.8922
6238.00,0.9027
6237.00,0.9135
6236.00,0.9243
6235.00,0.9349
6234.00,0.9454
6233.00,0.9558
6232.00,0.9661
6231.00,0.9761
6230.00,0.9859
6229.00,0.9957
6228.00,1.0054
6227.00,1.0151
6226.00,1.0249
6225.00,1.0345
6224.00,1.0440
6223.00,1.0535
6222.00,1.0629
6221.00,1.0722
6220.00,1.0810
6219.00,1.0892
6218.00,1.0970
6217.00,1.1043
6216.00,1.1113
6215.00,1.1177
6214.00,1.1238
6213.00,1.1300
6212.00,1.1364
6211.00,1.1427
6210.00,1.1485
6209.00,1.1539
6208.00,1.1588
6207.00,1.1633
6206.00,1.1671
6205.00,1.1707
6204.00,1.1742
6203.00,1.1779
6202.00,1.1815
6201.00,1.1845
6200.00,1.1869
6199.00,1.1885
6198.00,1.1895
6197.00,1.1899
6196.00,1.1899
6195.00,1.1897
6194.00,1.1892
6193.00,1.1885
6192.00,1.1876
6191.00,1.1863
6190.00,1.1847
6189.00,1.1826
6188.00,1.1800
6187.00,1.1769
6186.00,1.1735
6185.00,1.1699
6184.00,1.1661
6183.00,1.1621
6182.00,1.1578
6181.00,1.1534
6180.00,1.1486
6179.00,1.1434
6178.00,1.1374
6177.00,1.1309
6176.00,1.1240
6175.00,1.1169
6174.00,1.1096
6173.00,1.1022
6172.00,1.0943
6171.00,1.0861
6170.00,1.0775
6169.00,1.0687
6168.00,1.0597
6167.00,1.0505
6166.00,1.0412
6165.00,1.0319
6164.00,1.0223
6163.00,1.0123
6162.00,1.0019
6161.00,0.9913
6160.00,0.9805
6159.00,0.9695
6158.00,0.9582
6157.00,0.9469
6156.00,0.9355
6155.00,0.9242
6154.00,0.9129
6153.00,0.9016
6152.00,0.8905
6151.00,0.8795
6150.00,0.8685
6149.00,0.8576
6148.00,0.8467
6147.00,0.8360
6146.00,0.8255
6145.00,0.8153
6144.00,0.8053
6143.00,0.7955
6142.00,0.7860
6141.00,0.7768
6140.00,0.7681
6139.00,0.7597
6138.00,0.7518
6137.00,0.7443
6136.00,0.7373
6135.00,0.7308
6134.00,0.7250
6133.00,0.7199
6132.00,0.7155
6131.00,0.7117
6130.00,0.7085
6129.00,0.7059
6128.00,0.7037
6127.00,0.7023
6126.00,0.7016
6125.00,0.7016
6124.00,0.7024
6123.00,0.7039
6122.00,0.7062
6121.00,0.7090
6120.00,0.7123
6119.00,0.7162
6118.00,0.7208
6117.00,0.7262
6116.00,0.7322
6115.00,0.7387
6114.00,0.7457
6113.00,0.7530
6112.00,0.7607
6111.00,0.7687
6110.00,0.7772
6109.00,0.7862
6108.00,0.7955
6107.00,0.8050
6106.00,0.8148
6105.00,0.8248
6104.00,0.8348
6103.00,0.8449
6102.00,0.8553
6101.00,0.8660
6100.00,0.8769
6099.00,0.8878
6098.00,0.8987
6097.00,0.9098
6096.00,0.9208
6095.00,0.9318
6094.00,0.9427
6093.00,0.9536
6092.00,0.9645
6091.00,0.9755
6090.00,0.9863
6089.00,0.9970
6088.00,1.0074
6087.00,1.0176
6086.00,1.0275
6085.00,1.0372
6084.00,1.0465
6083.00,1.0558
6082.00,1.0651
6081.00,1.0744
6080.00,1.0834
6079.00,1.0921
6078.00,1.1004
6077.00,1.1083
6076.00,1.1159
6075.00,1.1232
6074.00,1.1303
6073.00,1.1371
6072.00,1.1436
6071.00,1.1496
6070.00,1.1554
6069.00,1.1609
6068.00,1.1660
6067.00,1.1707
6066.00,1.1749
6065.00,1.1788
6064.00,1.1824
6063.00,1.1857
6062.00,1.1886
6061.00,1.1913
6060.00,1.1936
6059.00,1.1956
6058.00,1.1974
6057.00,1.1989
6056.00,1.2002
6055.00,1.2013
6054.00,1.2022
6053.00,1.2025
6052.00,1.2021
6051.00,1.2009
6050.00,1.1991
6049.00,1.1970
6048.00,1.1947
6047.00,1.1922
6046.00,1.1892
6045.00,1.1856
6044.00,1.1814
6043.00,1.1769
6042.00,1.1721
6041.00,1.1672
6040.00,1.1621
6039.00,1.1569
6038.00,1.1517
6037.00,1.1461
6036.00,1.1397
6035.00,1.1327
6034.00,1.1251
6033.00,1.1172
6032.00,1.1092
6031.00,1.1009
6030.00,1.0922
6029.00,1.0833
6028.00,1.0739
6027.00,1.0641
6026.00,1.0541
6025.00,1.0438
6024.00,1.0331
6023.00,1.0221
6022.00,1.0110
6021.00,0.9997
6020.00,0.9882
6019.00,0.9764
6018.00,0.9646
6017.00,0.9528
6016.00,0.9408
6015.00,0.9287
6014.00,0.9166
6013.00,0.9045
6012.00,0.8922
6011.00,0.8799
6010.00,0.8677
6009.00,0.8558
6008.00,0.8440
6007.00,0.8324
6006.00,0.8210
6005.00,0.8100
6004.00,0.7994
6003.00,0.7891
6002.00,0.7791
6001.00,0.7696
6000.00,0.7606
5999.00,0.7522
5998.00,0.7444
5997.00,0.7371
5996.00,0.7303
5995.00,0.7239
5994.00,0.7181
5993.00,0.7131
5992.00,0.7088
5991.00,0.7052
5990.00,0.7023
5989.00,0.7001
5988.00,0.6986
5987.00,0.6978
5986.00,0.6976
5985.00,0.6982
5984.00,0.6996
5983.00,0.7017
5982.00,0.7046
5981.00,0.7081
5980.00,0.7123
5979.00,0.7170
5978.00,0.7224
5977.00,0.7285
5976.00,0.7352
5975.00,0.7425
5974.00,0.7503
5973.00,0.7586
5972.00,0.7674
5971.00,0.7766
5970.00,0.7861
5969.00,0.7960
5968.00,0.8062
5967.00,0.8165
5966.00,0.8271
5965.00,0.8381
5964.00,0.8493
5963.00,0.8607
5962.00,0.8722
5961.00,0.8838
5960.00,0.8955
5959.00,0.9072
5958.00,0.9187
5957.00,0.9302
5956.00,0.9416
5955.00,0.9528
5954.00,0.9636
5953.00,0.9741
5952.00,0.9844
5951.00,0.9946
5950.00,1.0048
5949.00,1.0148
5948.00,1.0245
5947.00,1.0338
5946.00,1.0429
5945.00,1.0518
5944.00,1.0604
5943.00,1.0689
5942.00,1.0773
5941.00,1.0856
5940.00,1.0937
5939.00,1.1014
5938.00,1.1089
5937.00,1.1163
5936.00,1.1235
5935.00,1.1305
5934.00,1.1372
5933.00,1.1438
5932.00,1.1502
5931.00,1.1564
5930.00,1.1623
5929.00,1.1678
5928.00,1.1729
5927.00,1.1773
5926.00,1.1810
5925.00,1.1844
5924.00,1.1876
5923.00,1.1907
5922.00,1.1935
5921.00,1.1958
5920.00,1.1977
5919.00,1.1992
5918.00,1.2003
5917.00,1.2010
5916.00,1.2013
5915.00,1.2015
5914.00,1.2015
5913.00,1.2014
5912.00,1.2012
5911.00,1.2010
5910.00,1.2005
5909.00,1.1994
5908.00,1.1972
5907.00,1.1942
5906.00,1.1905
5905.00,1.1865
5904.00,1.1821
5903.00,1.1773
5902.00,1.1723
5901.00,1.1671
5900.00,1.1617
5899.00,1.1557
5898.00,1.1493
5897.00,1.1428
5896.00,1.1361
5895.00,1.1291
5894.00,1.1216
5893.00,1.1135
5892.00,1.1051
5891.00,1.0965
5890.00,1.0876
5889.00,1.0783
5888.00,1.0684
5887.00,1.0580
5886.00,1.0472
5885.00,1.0360
5884.00,1.0246
5883.00,1.0131
5882.00,1.0017
5881.00,0.9901
5880.00,0.9784
5879.00,0.9664
5878.00,0.9542
5877.00,0.9417
5876.00,0.9291
5875.00,0.9164
5874.00,0.9037
5873.00,0.8911
5872.00,0.8786
5871.00,0.8662
5870.00,0.8540
5869.00,0.8421
5868.00,0.8303
5867.00,0.8185
5866.00,0.8070
5865.00,0.7957
5864.00,0.7849
5863.00,0.7744
5862.00,0.7644
5861.00,0.7549
5860.00,0.7460
5859.00,0.7376
5858.00,0.7299
5857.00,0.7229
5856.00,0.7167
5855.00,0.7110
5854.00,0.7059
5853.00,0.7015
5852.00,0.6977
5851.00,0.6946
5850.00,0.6924
5849.00,0.6911
5848.00,0.6907
5847.00,0.6910
5846.00,0.6921
5845.00,0.6939
5844.00,0.6965
5843.00,0.6997
5842.00,0.7036
5841.00,0.7081
5840.00,0.7132
5839.00,0.7189
5838.00,0.7251
5837.00,0.7319
5836.00,0.7391
5835.00,0.7467
5834.00,0.7548
5833.00,0.7634
5832.00,0.7723
5831.00,0.7813
5830.00,0.7907
5829.00,0.8003
5828.00,0.8102
5827.00,0.8201
5826.00,0.8303
5825.00,0.8407
5824.00,0.8513
5823.00,0.8620
5822.00,0.8730
5821.00,0.8841
5820.00,0.8952
5819.00,0.9061
5818.00,0.9170
5817.00,0.9280
5816.00,0.9389
5815.00,0.9499
5814.00,0.9609
5813.00,0.9719
5812.00,0.9829
5811.00,0.9938
5810.00,1.0045
5809.00,1.0149
5808.00,1.0253
5807.00,1.0355
5806.00,1.0456
5805.00,1.0556
5804.00,1.0653
5803.00,1.0747
5802.00,1.0839
5801.00,1.0928
5800.00,1.1014
5799.00,1.1096
5798.00,1.1176
5797.00,1.1252
5796.00,1.1327
5795.00,1.1398
5794.00,1.1465
5793.00,1.1528
5792.00,1.1586
5791.00,1.1641
5790.00,1.1694
5789.00,1.1746
5788.00,1.1796
5787.00,1.1844
5786.00,1.1891
5785.00,1.1934
5784.00,1.1971
5783.00,1.2000
5782.00,1.2024
5781.00,1.2045
5780.00,1.2063
5779.00,1.2079
5778.00,1.2093
5777.00,1.2104
5776.00,1.2110
5775.00,1.2111
5774.00,1.2107
5773.00,1.2101
5772.00,1.2091
5771.00,1.2078
5770.00,1.2061
5769.00,1.2042
5768.00,1.2019
5767.00,1.1990
5766.00,1.1957
5765.00,1.1919
5764.00,1.1875
5763.00,1.1827
5762.00,1.1776
5761.00,1.1723
5760.00,1.1670
5759.00,1.1614
5758.00,1.1555
5757.00,1.1491
5756.00,1.1422
5755.00,1.1346
5754.00,1.1267
5753.00,1.1183
5752.00,1.1095
5751.00,1.1002
5750.00,1.0906
5749.00,1.0805
5748.00,1.0701
5747.00,1.0595
5746.00,1.0487
5745.00,1.0377
5744.00,1.0265
5743.00,1.0149
5742.00,1.0030
5741.00,0.9907
5740.00,0.9782
5739.00,0.9655
5738.00,0.9527
5737.00,0.9398
5736.00,0.9268
5735.00,0.9135
5734.00,0.9003
5733.00,0.8871
5732.00,0.8739
5731.00,0.8609
5730.00,0.8480
5729.00,0.8354
5728.00,0.8228
5727.00,0.8105
5726.00,0.7984
5725.00,0.7866
5724.00,0.7753
5723.00,0.7646
5722.00,0.7544
5721.00,0.7447
5720.00,0.7356
5719.00,0.7269
5718.00,0.7189
5717.00,0.7115
5716.00,0.7047
5715.00,0.6987
5714.00,0.6935
5713.00,0.6891
5712.00,0.6854
5711.00,0.6823
5710.00,0.6800
5709.00,0.6786
5708.00,0.6780
5707.00,0.6781
5706.00,0.6792
5705.00,0.6811
5704.00,0.6838
5703.00,0.6871
5702.00,0.6911
5701.00,0.6958
5700.00,0.7012
5699.00,0.7073
5698.00,0.7140
5697.00,0.7214
5696.00,0.7293
5695.00,0.7378
5694.00,0.7467
5693.00,0.7561
5692.00,0.7659
5691.00,0.7760
5690.00,0.7865
5689.00,0.7974
5688.00,0.8086
5687.00,0.8199
5686.00,0.8315
5685.00,0.8433
5684.00,0.8553
5683.00,0.8676
5682.00,0.8800
5681.00,0.8926
5680.00,0.9052
5679.00,0.9175
5678.00,0.9297
5677.00,0.9418
5676.00,0.9538
5675.00,0.9657
5674.00,0.9775
5673.00,0.9892
5672.00,1.0010
5671.00,1.0126
5670.00,1.0242
5669.00,1.0355
5668.00,1.0466
5667.00,1.0572
5666.00,1.0673
5665.00,1.0771
5664.00,1.0867
5663.00,1.0961
5662.00,1.1055
5661.00,1.1147
5660.00,1.1235
5659.00,1.1320
5658.00,1.1403
5657.00,1.1484
5656.00,1.1561
5655.00,1.1633
5654.00,1.1701
5653.00,1.1765
5652.00,1.1823
5651.00,1.1877
5650.00,1.1928
5649.00,1.1976
5648.00,1.2023
5647.00,1.2065
5646.00,1.2104
5645.00,1.2138
5644.00,1.2170
5643.00,1.2199
5642.00,1.2226
5641.00,1.2249
5640.00,1.2266
5639.00,1.2277
5638.00,1.2282
5637.00,1.2282
5636.00,1.2278
5635.00,1.2271
5634.00,1.2263
5633.00,1.2252
5632.00,1.2235
5631.00,1.2211
5630.00,1.2182
5629.00,1.2149
5628.00,1.2115
5627.00,1.2078
5626.00,1.2039
5625.00,1.1997
5624.00,1.1952
5623.00,1.1901
5622.00,1.1846
5621.00,1.1787
5620.00,1.1725
5619.00,1.1660
5618.00,1.1592
5617.00,1.1518
5616.00,1.1439
5615.00,1.1353
5614.00,1.1263
5613.00,1.1170
5612.00,1.1073
5611.00,1.0973
5610.00,1.0872
5609.00,1.0768
5608.00,1.0659
5607.00,1.0544
5606.00,1.0427
5605.00,1.0307
5604.00,1.0184
5603.00,1.0059
5602.00,0.9931
5601.00,0.9802
5600.00,0.9670
5599.00,0.9537
5598.00,0.9401
5597.00,0.9266
5596.00,0.9128
5595.00,0.8990
5594.00,0.8850
5593.00,0.8710
5592.00,0.8570
5591.00,0.8431
5590.00,0.8293
5589.00,0.8159
5588.00,0.8028
5587.00,0.7900
5586.00,0.7776
5585.00,0.7657
5584.00,0.7541
5583.00,0.7429
5582.00,0.7321
5581.00,0.7219
5580.00,0.7123
5579.00,0.7033
5578.00,0.6951
5577.00,0.6876
5576.00,0.6810
5575.00,0.6753
5574.00,0.6704
5573.00,0.6664
5572.00,0.6632
5571.00,0.6608
5570.00,0.6592
5569.00,0.6584
5568.00,0.6586
5567.00,0.6597
5566.00,0.6617
5565.00,0.6647
5564.00,0.6685
5563.00,0.6730
5562.00,0.6782
5561.00,0.6842
5560.00,0.6910
5559.00,0.6985
5558.00,0.7067
5557.00,0.7155
5556.00,0.7248
5555.00,0.7344
5554.00,0.7445
5553.00,0.7551
5552.00,0.7662
5551.00,0.7776
5550.00,0.7894
5549.00,0.8015
5548.00,0.8138
5547.00,0.8263
5546.00,0.8388
5545.00,0.8515
5544.00,0.8644
5543.00,0.8774
5542.00,0.8904
5541.00,0.9035
5540.00,0.9165
5539.00,0.9295
5538.00,0.9424
5537.00,0.9552
5536.00,0.9678
5535.00,0.9804
5534.00,0.9928
5533.00,1.0053
5532.00,1.0176
5531.00,1.0297
5530.00,1.0417
5529.00,1.0535
5528.00,1.0650
5527.00,1.0762
5526.00,1.0869
5525.00,1.0972
5524.00,1.1073
5523.00,1.1172
5522.00,1.1268
5521.00,1.1362
5520.00,1.1452
5519.00,1.1539
5518.00,1.1623
5517.00,1.1703
5516.00,1.1779
5515.00,1.1851
5514.00,1.1920
5513.00,1.1985
5512.00,1.2046
5511.00,1.2104
5510.00,1.2159
5509.00,1.2211
5508.00,1.2260
5507.00,1.2302
5506.00,1.2338
5505.00,1.2368
5504.00,1.2394
5503.00,1.2417
5502.00,1.2438
5501.00,1.2459
5500.00,1.2478
5499.00,1.2491
5498.00,1.2498
5497.00,1.2501
5496.00,1.2501
5495.00,1.2497
5494.00,1.2490
5493.00,1.2478
5492.00,1.2461
5491.00,1.2439
5490.00,1.2412
5489.00,1.2383
5488.00,1.2351
5487.00,1.2316
5486.00,1.2275
5485.00,1.2228
5484.00,1.2177
5483.00,1.2122
5482.00,1.2063
5481.00,1.2001
5480.00,1.1935
5479.00,1.1864
5478.00,1.1786
5477.00,1.1705
5476.00,1.1621
5475.00,1.1533
5474.00,1.1441
5473.00,1.1346
5472.00,1.1248
5471.00,1.1148
5470.00,1.1045
5469.00,1.0937
5468.00,1.0826
5467.00,1.0709
5466.00,1.0588
5465.00,1.0463
5464.00,1.0334
5463.00,1.0203
5462.00,1.0070
5461.00,0.9934
5460.00,0.9795
5459.00,0.9655
5458.00,0.9513
5457.00,0.9371
5456.00,0.9227
5455.00,0.9081
5454.00,0.8937
5453.00,0.8795
5452.00,0.8655
5451.00,0.8516
5450.00,0.8378
5449.00,0.8242
5448.00,0.8108
5447.00,0.7977
5446.00,0.7850
5445.00,0.7728
5444.00,0.7610
5443.00,0.7497
5442.00,0.7391
5441.00,0.7291
5440.00,0.7198
5439.00,0.7112
5438.00,0.7035
5437.00,0.6967
5436.00,0.6907
5435.00,0.6855
5434.00,0.6812
5433.00,0.6778
5432.00,0.6754
5431.00,0.6740
5430.00,0.6733
5429.00,0.6736
5428.00,0.6748
5427.00,0.6769
5426.00,0.6798
5425.00,0.6836
5424.00,0.6883
5423.00,0.6939
5422.00,0.7003
5421.00,0.7075
5420.00,0.7156
5419.00,0.7243
5418.00,0.7334
5417.00,0.7430
5416.00,0.7530
5415.00,0.7635
5414.00,0.7744
5413.00,0.7858
5412.00,0.7975
5411.00,0.8095
5410.00,0.8220
5409.00,0.8349
5408.00,0.8480
5407.00,0.8613
5406.00,0.8748
5405.00,0.8884
5404.00,0.9020
5403.00,0.9157
5402.00,0.9294
5401.00,0.9431
5400.00,0.9566
5399.00,0.9700
5398.00,0.9832
5397.00,0.9963
5396.00,1.0094
5395.00,1.0225
5394.00,1.0354
5393.00,1.0481
5392.00,1.0606
5391.00,1.0727
5390.00,1.0845
5389.00,1.0958
5388.00,1.1068
5387.00,1.1175
5386.00,1.1280
5385.00,1.1382
5384.00,1.1481
5383.00,1.1579
5382.00,1.1674
5381.00,1.1766
5380.00,1.1852
5379.00,1.1935
5378.00,1.2014
5377.00,1.2089
5376.00,1.2161
5375.00,1.2230
5374.00,1.2295
5373.00,1.2355
5372.00,1.2410
5371.00,1.2460
5370.00,1.2507
5369.00,1.2550
5368.00,1.2591
5367.00,1.2629
5366.00,1.2663
5365.00,1.2690
5364.00,1.2712
5363.00,1.2730
5362.00,1.2746
5361.00,1.2761
5360.00,1.2773
5359.00,1.2782
5358.00,1.2785
5357.00,1.2780
5356.00,1.2768
5355.00,1.2749
5354.00,1.2727
5353.00,1.2702
5352.00,1.2675
5351.00,1.2645
5350.00,1.2612
5349.00,1.2575
5348.00,1.2534
5347.00,1.2488
5346.00,1.2438
5345.00,1.2384
5344.00,1.2325
5343.00,1.2261
5342.00,1.2193
5341.00,1.2121
5340.00,1.2044
5339.00,1.1964
5338.00,1.1878
5337.00,1.1788
5336.00,1.1696
5335.00,1.1603
5334.00,1.1507
5333.00,1.1407
5332.00,1.1303
5331.00,1.1193
5330.00,1.1079
5329.00,1.0961
5328.00,1.0838
5327.00,1.0711
5326.00,1.0580
5325.00,1.0445
5324.00,1.0307
5323.00,1.0167
5322.00,1.0025
5321.00,0.9880
5320.00,0.9733
5319.00,0.9585
5318.00,0.9436
5317.00,0.9287
5316.00,0.9136
5315.00,0.8984
5314.00,0.8833
5313.00,0.8683
5312.00,0.8535
5311.00,0.8388
5310.00,0.8244
5309.00,0.8103
5308.00,0.7966
5307.00,0.7832
5306.00,0.7704
5305.00,0.7582
5304.00,0.7467
5303.00,0.7359
5302.00,0.7259
5301.00,0.7167
5300.00,0.7082
5299.00,0.7006
5298.00,0.6939
5297.00,0.6880
5296.00,0.6831
5295.00,0.6791
5294.00,0.6761
5293.00,0.6741
5292.00,0.6730
5291.00,0.6729
5290.00,0.6737
5289.00,0.6753
5288.00,0.6778
5287.00,0.6811
5286.00,0.6855
5285.00,0.6908
5284.00,0.6971
5283.00,0.7042
5282.00,0.7122
5281.00,0.7209
5280.00,0.7302
5279.00,0.7401
5278.00,0.7507
5277.00,0.7618
5276.00,0.7734
5275.00,0.7855
5274.00,0.7979
5273.00,0.8107
5272.00,0.8238
5271.00,0.8371
5270.00,0.8507
5269.00,0.8644
5268.00,0.8783
5267.00,0.8922
5266.00,0.9061
5265.00,0.9203
5264.00,0.9345
5263.00,0.9487
5262.00,0.9630
5261.00,0.9771
5260.00,0.9912
5259.00,1.0050
5258.00,1.0187
5257.00,1.0323
5256.00,1.0457
5255.00,1.0590
5254.00,1.0722
5253.00,1.0850
5252.00,1.0971
5251.00,1.1086
5250.00,1.1198
5249.00,1.1309
5248.00,1.1420
5247.00,1.1530
5246.00,1.1638
5245.00,1.1743
5244.00,1.1843
5243.00,1.1939
5242.00,1.2032
5241.00,1.2124
5240.00,1.2214
5239.00,1.2301
5238.00,1.2382
5237.00,1.2458
5236.00,1.2527
5235.00,1.2591
5234.00,1.2651
5233.00,1.2707
5232.00,1.2760
5231.00,1.2809
5230.00,1.2855
5229.00,1.2897
5228.00,1.2937
5227.00,1.2974
5226.00,1.3005
5225.00,1.3033
5224.00,1.3056
5223.00,1.3074
5222.00,1.3088
5221.00,1.3098
5220.00,1.3104
5219.00,1.3106
5218.00,1.3105
5217.00,1.3100
5216.00,1.3093
5215.00,1.3082
5214.00,1.3066
5213.00,1.3045
5212.00,1.3018
5211.00,1.2987
5210.00,1.2952
5209.00,1.2912
5208.00,1.2867
5207.00,1.2817
5206.00,1.2762
5205.00,1.2704
5204.00,1.2645
5203.00,1.2583
5202.00,1.2519
5201.00,1.2452
5200.00,1.2381
5199.00,1.2307
5198.00,1.2228
5197.00,1.2144
5196.00,1.2055
5195.00,1.1962
5194.00,1.1864
5193.00,1.1760
5192.00,1.1651
5191.00,1.1535
5190.00,1.1415
5189.00,1.1290
5188.00,1.1162
5187.00,1.1032
5186.00,1.0897
5185.00,1.0758
5184.00,1.0613
5183.00,1.0465
5182.00,1.0314
5181.00,1.0162
5180.00,1.0008
5179.00,0.9851
5178.00,0.9693
5177.00,0.9533
5176.00,0.9374
5175.00,0.9216
5174.00,0.9059
5173.00,0.8902
5172.00,0.8746
5171.00,0.8591
5170.00,0.8439
5169.00,0.8291
5168.00,0.8147
5167.00,0.8008
5166.00,0.7875
5165.00,0.7748
5164.00,0.7628
5163.00,0.7514
5162.00,0.7407
5161.00,0.7309
5160.00,0.7218
5159.00,0.7136
5158.00,0.7063
5157.00,0.7001
5156.00,0.6949
5155.00,0.6907
5154.00,0.6876
5153.00,0.6854
5152.00,0.6843
5151.00,0.6842
5150.00,0.6853
5149.00,0.6875
5148.00,0.6907
5147.00,0.6951
5146.00,0.7003
5145.00,0.7065
5144.00,0.7135
5143.00,0.7213
5142.00,0.7298
5141.00,0.7391
5140.00,0.7490
5139.00,0.7597
5138.00,0.7710
5137.00,0.7829
5136.00,0.7954
5135.00,0.8083
5134.00,0.8215
5133.00,0.8351
5132.00,0.8491
5131.00,0.8632
5130.00,0.8776
5129.00,0.8921
5128.00,0.9067
5127.00,0.9215
5126.00,0.9363
5125.00,0.9513
5124.00,0.9662
5123.00,0.9811
5122.00,0.9959
5121.00,1.0105
5120.00,1.0250
5119.00,1.0393
5118.00,1.0535
5117.00,1.0675
5116.00,1.0812
5115.00,1.0947
5114.00,1.1079
5113.00,1.1209
5112.00,1.1335
5111.00,1.1459
5110.00,1.1581
5109.00,1.1701
5108.00,1.1817
5107.00,1.1930
5106.00,1.2040
5105.00,1.2145
5104.00,1.2245
5103.00,1.2343
5102.00,1.2439
5101.00,1.2532
5100.00,1.2620
5099.00,1.2701
5098.00,1.2777
5097.00,1.2848
5096.00,1.2914
5095.00,1.2975
5094.00,1.3031
5093.00,1.3082
5092.00,1.3129
5091.00,1.3171
5090.00,1.3209
5089.00,1.3245
5088.00,1.3278
5087.00,1.3309
5086.00,1.3338
5085.00,1.3362
5084.00,1.3383
5083.00,1.3398
5082.00,1.3407
5081.00,1.3410
5080.00,1.3409
5079.00,1.3405
5078.00,1.3398
5077.00,1.3386
5076.00,1.3371
5075.00,1.3350
5074.00,1.3325
5073.00,1.3294
5072.00,1.3259
5071.00,1.3219
5070.00,1.3176
5069.00,1.3129
5068.00,1.3080
5067.00,1.3027
5066.00,1.2970
5065.00,1.2908
5064.00,1.2840
5063.00,1.2768
5062.00,1.2693
5061.00,1.2613
5060.00,1.2528
5059.00,1.2437
5058.00,1.2339
5057.00,1.2238
5056.00,1.2133
5055.00,1.2026
5054.00,1.1914
5053.00,1.1798
5052.00,1.1676
5051.00,1.1549
5050.00,1.1416
5049.00,1.1279
5048.00,1.1138
5047.00,1.0993
5046.00,1.0845
5045.00,1.0694
5044.00,1.0542
5043.00,1.0387
5042.00,1.0229
5041.00,1.0068
5040.00,0.9904
5039.00,0.9738
5038.00,0.9571
5037.00,0.9403
5036.00,0.9236
5035.00,0.9070
5034.00,0.8905
5033.00,0.8742
5032.00,0.8582
5031.00,0.8425
5030.00,0.8271
5029.00,0.8123
5028.00,0.7979
5027.00,0.7842
5026.00,0.7712
5025.00,0.7588
5024.00,0.7472
5023.00,0.7363
5022.00,0.7264
5021.00,0.7173
5020.00,0.7092
5019.00,0.7020
5018.00,0.6959
5017.00,0.6908
5016.00,0.6867
5015.00,0.6838
5014.00,0.6821
5013.00,0.6815
5012.00,0.6822
5011.00,0.6839
5010.00,0.6868
5009.00,0.6907
5008.00,0.6956
5007.00,0.7015
5006.00,0.7085
5005.00,0.7164
5004.00,0.7253
5003.00,0.7349
5002.00,0.7453
5001.00,0.7564
5000.00,0.7681
4999.00,0.7804
4998.00,0.7931
4997.00,0.8064
4996.00,0.8201
4995.00,0.8342
4994.00,0.8486
4993.00,0.8634
4992.00,0.8783
4991.00,0.8933
4990.00,0.9085
4989.00,0.9238
4988.00,0.9393
4987.00,0.9547
4986.00,0.9702
4985.00,0.9856
4984.00,1.0011
4983.00,1.0166
4982.00,1.0321
4981.00,1.0475
4980.00,1.0628
4979.00,1.0777
4978.00,1.0923
4977.00,1.1067
4976.00,1.1207
4975.00,1.1346
4974.00,1.1482
4973.00,1.1614
4972.00,1.1745
4971.00,1.1872
4970.00,1.1996
4969.00,1.2116
4968.00,1.2230
4967.00,1.2341
4966.00,1.2447
4965.00,1.2551
4964.00,1.2650
4963.00,1.2746
4962.00,1.2837
4961.00,1.2924
4960.00,1.3007
4959.00,1.3086
4958.00,1.3161
4957.00,1.3233
4956.00,1.3299
4955.00,1.3360
4954.00,1.3416
4953.00,1.3469
4952.00,1.3518
4951.00,1.3565
4950.00,1.3609
4949.00,1.3649
4948.00,1.3683
4947.00,1.3712
4946.00,1.3736
4945.00,1.3753
4944.00,1.3766
4943.00,1.3773
4942.00,1.3777
4941.00,1.3777
4940.00,1.3773
4939.00,1.3765
4938.00,1.3753
4937.00,1.3737
4936.00,1.3719
4935.00,1.3696
4934.00,1.3670
4933.00,1.3640
4932.00,1.3608
4931.00,1.3571
4930.00,1.3527
4929.00,1.3477
4928.00,1.3421
4927.00,1.3361
4926.00,1.3297
4925.00,1.3231
4924.00,1.3162
4923.00,1.3087
4922.00,1.3006
4921.00,1.2919
4920.00,1.2827
4919.00,1.2733
4918.00,1.2635
4917.00,1.2533
4916.00,1.2426
4915.00,1.2313
4914.00,1.2194
4913.00,1.2071
4912.00,1.1942
4911.00,1.1809
4910.00,1.1672
4909.00,1.1531
4908.00,1.1386
4907.00,1.1236
4906.00,1.1081
4905.00,1.0923
4904.00,1.0762
4903.00,1.0597
4902.00,1.0430
4901.00,1.0261
4900.00,1.0089
4899.00,0.9915
4898.00,0.9739
4897.00,0.9562
4896.00,0.9386
4895.00,0.9211
4894.00,0.9038
4893.00,0.8866
4892.00,0.8697
4891.00,0.8532
4890.00,0.8370
4889.00,0.8214
4888.00,0.8063
4887.00,0.7919
4886.00,0.7783
4885.00,0.7654
4884.00,0.7534
4883.00,0.7423
4882.00,0.7321
4881.00,0.7229
4880.00,0.7149
4879.00,0.7080
4878.00,0.7023
4877.00,0.6978
4876.00,0.6945
4875.00,0.6924
4874.00,0.6915
4873.00,0.6918
4872.00,0.6933
4871.00,0.6960
4870.00,0.7000
4869.00,0.7052
4868.00,0.7115
4867.00,0.7187
4866.00,0.7270
4865.00,0.7362
4864.00,0.7463
4863.00,0.7574
4862.00,0.7692
4861.00,0.7819
4860.00,0.7951
4859.00,0.8090
4858.00,0.8234
4857.00,0.8382
4856.00,0.8534
4855.00,0.8689
4854.00,0.8847
4853.00,0.9006
4852.00,0.9168
4851.00,0.9331
4850.00,0.9495
4849.00,0.9659
4848.00,0.9823
4847.00,0.9987
4846.00,1.0151
4845.00,1.0313
4844.00,1.0475
4843.00,1.0636
4842.00,1.0795
4841.00,1.0952
4840.00,1.1107
4839.00,1.1258
4838.00,1.1407
4837.00,1.1551
4836.00,1.1693
4835.00,1.1833
4834.00,1.1971
4833.00,1.2108
4832.00,1.2240
4831.00,1.2368
4830.00,1.2491
4829.00,1.2609
4828.00,1.2722
4827.00,1.2832
4826.00,1.2938
4825.00,1.3040
4824.00,1.3138
4823.00,1.3229
4822.00,1.3315
4821.00,1.3396
4820.00,1.3474
4819.00,1.3549
4818.00,1.3621
4817.00,1.3689
4816.00,1.3751
4815.00,1.3806
4814.00,1.3856
4813.00,1.3902
4812.00,1.3944
4811.00,1.3982
4810.00,1.4015
4809.00,1.4044
4808.00,1.4069
4807.00,1.4090
4806.00,1.4107
4805.00,1.4120
4804.00,1.4127
4803.00,1.4128
4802.00,1.4125
4801.00,1.4118
4800.00,1.4110
4799.00,1.4100
4798.00,1.4086
4797.00,1.4066
4796.00,1.4039
4795.00,1.4005
4794.00,1.3965
4793.00,1.3921
4792.00,1.3875
4791.00,1.3826
4790.00,1.3776
4789.00,1.3722
4788.00,1.3663
4787.00,1.3597
4786.00,1.3525
4785.00,1.3448
4784.00,1.3368
4783.00,1.3284
4782.00,1.3196
4781.00,1.3104
4780.00,1.3005
4779.00,1.2900
4778.00,1.2789
4777.00,1.2672
4776.00,1.2552
4775.00,1.2427
4774.00,1.2297
4773.00,1.2163
4772.00,1.2022
4771.00,1.1877
4770.00,1.1726
4769.00,1.1571
4768.00,1.1414
4767.00,1.1253
4766.00,1.1089
4765.00,1.0920
4764.00,1.0747
4763.00,1.0569
4762.00,1.0389
4761.00,1.0207
4760.00,1.0024
4759.00,0.9840
4758.00,0.9656
4757.00,0.9472
4756.00,0.9289
4755.00,0.9107
4754.00,0.8929
4753.00,0.8755
4752.00,0.8584
4751.00,0.8419
4750.00,0.8258
4749.00,0.8104
4748.00,0.7956
4747.00,0.7815
4746.00,0.7683
4745.00,0.7560
4744.00,0.7446
4743.00,0.7343
4742.00,0.7251
4741.00,0.7169
4740.00,0.7100
4739.00,0.7043
4738.00,0.6999
4737.00,0.6968
4736.00,0.6950
4735.00,0.6945
4734.00,0.6953
4733.00,0.6975
4732.00,0.7010
4731.00,0.7058
4730.00,0.7118
4729.00,0.7190
4728.00,0.7273
4727.00,0.7366
4726.00,0.7470
4725.00,0.7583
4724.00,0.7704
4723.00,0.7834
4722.00,0.7970
4721.00,0.8114
4720.00,0.8263
4719.00,0.8418
4718.00,0.8578
4717.00,0.8741
4716.00,0.8907
4715.00,0.9075
4714.00,0.9246
4713.00,0.9418
4712.00,0.9591
4711.00,0.9766
4710.00,0.9940
4709.00,1.0115
4708.00,1.0288
4707.00,1.0460
4706.00,1.0631
4705.00,1.0801
4704.00,1.0968
4703.00,1.1133
4702.00,1.1297
4701.00,1.1458
4700.00,1.1617
4699.00,1.1774
4698.00,1.1927
4697.00,1.2077
4696.00,1.2222
4695.00,1.2363
4694.00,1.2500
4693.00,1.2636
4692.00,1.2768
4691.00,1.2896
4690.00,1.3020
4689.00,1.3137
4688.00,1.3248
4687.00,1.3354
4686.00,1.3456
4685.00,1.3554
4684.00,1.3648
4683.00,1.3736
4682.00,1.3820
4681.00,1.3898
4680.00,1.3973
4679.00,1.4044
4678.00,1.4112
4677.00,1.4174
4676.00,1.4228
4675.00,1.4274
4674.00,1.4315
4673.00,1.4355
4672.00,1.4395
4671.00,1.4433
4670.00,1.4467
4669.00,1.4494
4668.00,1.4513
4667.00,1.4528
4666.00,1.4538
4665.00,1.4546
4664.00,1.4551
4663.00,1.4552
4662.00,1.4548
4661.00,1.4540
4660.00,1.4528
4659.00,1.4512
4658.00,1.4492
4657.00,1.4468
4656.00,1.4438
4655.00,1.4401
4654.00,1.4360
4653.00,1.4314
4652.00,1.4265
4651.00,1.4212
4650.00,1.4156
4649.00,1.4095
4648.00,1.4029
4647.00,1.3958
4646.00,1.3882
4645.00,1.3801
4644.00,1.3715
4643.00,1.3623
4642.00,1.3527
4641.00,1.3427
4640.00,1.3324
4639.00,1.3216
4638.00,1.3101
4637.00,1.2979
4636.00,1.2850
4635.00,1.2717
4634.00,1.2579
4633.00,1.2439
4632.00,1.2293
4631.00,1.2142
4630.00,1.1986
4629.00,1.1823
4628.00,1.1655
4627.00,1.1483
4626.00,1.1306
4625.00,1.1126
4624.00,1.0941
4623.00,1.0753
4622.00,1.0562
4621.00,1.0369
4620.00,1.0176
4619.00,0.9981
4618.00,0.9785
4617.00,0.9590
4616.00,0.9395
4615.00,0.9202
4614.00,0.9013
4613.00,0.8828
4612.00,0.8648
4611.00,0.8474
4610.00,0.8307
4609.00,0.8147
4608.00,0.7995
4607.00,0.7851
4606.00,0.7716
4605.00,0.7593
4604.00,0.7482
4603.00,0.7384
4602.00,0.7299
4601.00,0.7227
4600.00,0.7168
4599.00,0.7122
4598.00,0.7091
4597.00,0.7075
4596.00,0.7075
4595.00,0.7089
4594.00,0.7118
4593.00,0.7161
4592.00,0.7219
4591.00,0.7289
4590.00,0.7372
4589.00,0.7467
4588.00,0.7572
4587.00,0.7688
4586.00,0.7813
4585.00,0.7948
4584.00,0.8091
4583.00,0.8241
4582.00,0.8398
4581.00,0.8562
4580.00,0.8729
4579.00,0.8901
4578.00,0.9075
4577.00,0.9252
4576.00,0.9432
4575.00,0.9614
4574.00,0.9797
4573.00,0.9979
4572.00,1.0161
4571.00,1.0343
4570.00,1.0525
4569.00,1.0707
4568.00,1.0889
4567.00,1.1068
4566.00,1.1246
4565.00,1.1421
4564.00,1.1593
4563.00,1.1762
4562.00,1.1928
4561.00,1.2090
4560.00,1.2250
4559.00,1.2406
4558.00,1.2559
4557.00,1.2708
4556.00,1.2852
4555.00,1.2991
4554.00,1.3126
4553.00,1.3257
4552.00,1.3382
4551.00,1.3499
4550.00,1.3612
4549.00,1.3721
4548.00,1.3828
4547.00,1.3932
4546.00,1.4031
4545.00,1.4125
4544.00,1.4212
4543.00,1.4292
4542.00,1.4368
4541.00,1.4439
4540.00,1.4503
4539.00,1.4561
4538.00,1.4614
4537.00,1.4664
4536.00,1.4710
4535.00,1.4753
4534.00,1.4791
4533.00,1.4823
4532.00,1.4850
4531.00,1.4871
4530.00,1.4890
4529.00,1.4906
4528.00,1.4920
4527.00,1.4933
4526.00,1.4944
4525.00,1.4950
4524.00,1.4951
4523.00,1.4948
4522.00,1.4942
4521.00,1.4934
4520.00,1.4922
4519.00,1.4904
4518.00,1.4879
4517.00,1.4849
4516.00,1.4815
4515.00,1.4776
4514.00,1.4731
4513.00,1.4680
4512.00,1.4625
4511.00,1.4565
4510.00,1.4500
4509.00,1.4431
4508.00,1.4357
4507.00,1.4278
4506.00,1.4194
4505.00,1.4104
4504.00,1.4008
4503.00,1.3907
4502.00,1.3799
4501.00,1.3686
4500.00,1.3569
4499.00,1.3447
4498.00,1.3320
4497.00,1.3188
4496.00,1.3049
4495.00,1.2904
4494.00,1.2753
4493.00,1.2596
4492.00,1.2434
4491.00,1.2269
4490.00,1.2100
4489.00,1.1927
4488.00,1.1749
4487.00,1.1567
4486.00,1.1382
4485.00,1.1194
4484.00,1.1002
4483.00,1.0807
4482.00,1.0610
4481.00,1.0411
4480.00,1.0213
4479.00,1.0015
4478.00,0.9819
4477.00,0.9625
4476.00,0.9434
4475.00,0.9248
4474.00,0.9068
4473.00,0.8895
4472.00,0.8730
4471.00,0.8574
4470.00,0.8427
4469.00,0.8291
4468.00,0.8167
4467.00,0.8055
4466.00,0.7956
4465.00,0.7872
4464.00,0.7803
4463.00,0.7749
4462.00,0.7710
4461.00,0.7688
4460.00,0.7682
4459.00,0.7691
4458.00,0.7718
4457.00,0.7760
4456.00,0.7818
4455.00,0.7890
4454.00,0.7976
4453.00,0.8075
4452.00,0.8186
4451.00,0.8308
4450.00,0.8440
4449.00,0.8580
4448.00,0.8728
4447.00,0.8881
4446.00,0.9040
4445.00,0.9201
4444.00,0.9365
4443.00,0.9530
4442.00,0.9695
4441.00,0.9858
4440.00,1.0018
4439.00,1.0174
4438.00,1.0326
4437.00,1.0475
4436.00,1.0619
4435.00,1.0760
4434.00,1.0900
4433.00,1.1039
4432.00,1.1178
4431.00,1.1318
4430.00,1.1460
4429.00,1.1604
4428.00,1.1749
4427.00,1.1896
4426.00,1.2045
4425.00,1.2197
4424.00,1.2349
4423.00,1.2501
4422.00,1.2653
4421.00,1.2803
4420.00,1.2953
4419.00,1.3103
4418.00,1.3252
4417.00,1.3398
4416.00,1.3540
4415.00,1.3678
4414.00,1.3811
4413.00,1.3941
4412.00,1.4067
4411.00,1.4190
4410.00,1.4308
4409.00,1.4422
4408.00,1.4531
4407.00,1.4634
4406.00,1.4731
4405.00,1.4822
4404.00,1.4909
4403.00,1.4991
4402.00,1.5069
4401.00,1.5141
4400.00,1.5207
4399.00,1.5266
4398.00,1.5318
4397.00,1.5364
4396.00,1.5405
4395.00,1.5443
4394.00,1.5478
4393.00,1.5511
4392.00,1.5540
4391.00,1.5564
4390.00,1.5583
4389.00,1.5598
4388.00,1.5610
4387.00,1.5620
4386.00,1.5626
4385.00,1.5628
4384.00,1.5625
4383.00,1.5617
4382.00,1.5605
4381.00,1.5590
4380.00,1.5573
4379.00,1.5551
4378.00,1.5525
4377.00,1.5495
4376.00,1.5463
4375.00,1.5428
4374.00,1.5392
4373.00,1.5351
4372.00,1.5305
4371.00,1.5254
4370.00,1.5200
4369.00,1.5146
4368.00,1.5091
4367.00,1.5031
4366.00,1.4965
4365.00,1.4893
4364.00,1.4814
4363.00,1.4731
4362.00,1.4643
4361.00,1.4551
4360.00,1.4454
4359.00,1.4349
4358.00,1.4235
4357.00,1.4114
4356.00,1.3985
4355.00,1.3849
4354.00,1.3707
4353.00,1.3559
4352.00,1.3404
4351.00,1.3244
4350.00,1.3077
4349.00,1.2905
4348.00,1.2727
4347.00,1.2542
4346.00,1.2348
4345.00,1.2147
4344.00,1.1942
4343.00,1.1733
4342.00,1.1521
4341.00,1.1306
4340.00,1.1090
4339.00,1.0871
4338.00,1.0652
4337.00,1.0432
4336.00,1.0213
4335.00,0.9997
4334.00,0.9783
4333.00,0.9576
4332.00,0.9374
4331.00,0.9181
4330.00,0.8995
4329.00,0.8820
4328.00,0.8656
4327.00,0.8505
4326.00,0.8369
4325.00,0.8248
4324.00,0.8141
4323.00,0.8048
4322.00,0.7968
4321.00,0.7900
4320.00,0.7844
4319.00,0.7800
4318.00,0.7767
4317.00,0.7746
4316.00,0.7737
4315.00,0.7742
4314.00,0.7763
4313.00,0.7799
4312.00,0.7852
4311.00,0.7921
4310.00,0.8006
4309.00,0.8106
4308.00,0.8220
4307.00,0.8346
4306.00,0.8485
4305.00,0.8633
4304.00,0.8791
4303.00,0.8957
4302.00,0.9130
4301.00,0.9310
4300.00,0.9496
4299.00,0.9685
4298.00,0.9877
4297.00,1.0073
4296.00,1.0270
4295.00,1.0469
4294.00,1.0670
4293.00,1.0871
4292.00,1.1071
4291.00,1.1269
4290.00,1.1466
4289.00,1.1662
4288.00,1.1856
4287.00,1.2047
4286.00,1.2234
4285.00,1.2418
4284.00,1.2600
4283.00,1.2779
4282.00,1.2954
4281.00,1.3126
4280.00,1.3292
4279.00,1.3453
4278.00,1.3611
4277.00,1.3765
4276.00,1.3914
4275.00,1.4058
4274.00,1.4194
4273.00,1.4324
4272.00,1.4450
4271.00,1.4571
4270.00,1.4689
4269.00,1.4800
4268.00,1.4906
4267.00,1.5005
4266.00,1.5101
4265.00,1.5193
4264.00,1.5282
4263.00,1.5366
4262.00,1.5444
4261.00,1.5515
4260.00,1.5579
4259.00,1.5638
4258.00,1.5690
4257.00,1.5737
4256.00,1.5779
4255.00,1.5818
4254.00,1.5855
4253.00,1.5889
4252.00,1.5919
4251.00,1.5943
4250.00,1.5960
4249.00,1.5973
4248.00,1.5981
4247.00,1.5988
4246.00,1.5992
4245.00,1.5990
4244.00,1.5982
4243.00,1.5966
4242.00,1.5946
4241.00,1.5924
4240.00,1.5901
4239.00,1.5877
4238.00,1.5847
4237.00,1.5810
4236.00,1.5765
4235.00,1.5716
4234.00,1.5662
4233.00,1.5604
4232.00,1.5542
4231.00,1.5475
4230.00,1.5402
4229.00,1.5323
4228.00,1.5240
4227.00,1.5151
4226.00,1.5056
4225.00,1.4957
4224.00,1.4853
4223.00,1.4745
4222.00,1.4633
4221.00,1.4515
4220.00,1.4390
4219.00,1.4256
4218.00,1.4115
4217.00,1.3967
4216.00,1.3815
4215.00,1.3657
4214.00,1.3494
4213.00,1.3325
4212.00,1.3148
4211.00,1.2965
4210.00,1.2776
4209.00,1.2581
4208.00,1.2381
4207.00,1.2175
4206.00,1.1962
4205.00,1.1743
4204.00,1.1520
4203.00,1.1292
4202.00,1.1063
4201.00,1.0831
4200.00,1.0599
4199.00,1.0365
4198.00,1.0132
4197.00,0.9901
4196.00,0.9674
4195.00,0.9452
4194.00,0.9235
4193.00,0.9025
4192.00,0.8822
4191.00,0.8629
4190.00,0.8447
4189.00,0.8277
4188.00,0.8121
4187.00,0.7978
4186.00,0.7850
4185.00,0.7738
4184.00,0.7643
4183.00,0.7566
4182.00,0.7507
4181.00,0.7467
4180.00,0.7445
4179.00,0.7444
4178.00,0.7461
4177.00,0.7498
4176.00,0.7552
4175.00,0.7623
4174.00,0.7712
4173.00,0.7816
4172.00,0.7935
4171.00,0.8067
4170.00,0.8213
4169.00,0.8369
4168.00,0.8537
4167.00,0.8714
4166.00,0.8899
4165.00,0.9091
4164.00,0.9289
4163.00,0.9491
4162.00,0.9698
4161.00,0.9908
4160.00,1.0121
4159.00,1.0335
4158.00,1.0550
4157.00,1.0765
4156.00,1.0981
4155.00,1.1198
4154.00,1.1413
4153.00,1.1627
4152.00,1.1838
4151.00,1.2045
4150.00,1.2250
4149.00,1.2453
4148.00,1.2652
4147.00,1.2848
4146.00,1.3042
4145.00,1.3232
4144.00,1.3418
4143.00,1.3599
4142.00,1.3774
4141.00,1.3944
4140.00,1.4109
4139.00,1.4267
4138.00,1.4420
4137.00,1.4568
4136.00,1.4711
4135.00,1.4849
4134.00,1.4979
4133.00,1.5103
4132.00,1.5222
4131.00,1.5338
4130.00,1.5450
4129.00,1.5557
4128.00,1.5657
4127.00,1.5750
4126.00,1.5836
4125.00,1.5916
4124.00,1.5990
4123.00,1.6059
4122.00,1.6123
4121.00,1.6183
4120.00,1.6240
4119.00,1.6292
4118.00,1.6340
4117.00,1.6384
4116.00,1.6425
4115.00,1.6463
4114.00,1.6494
4113.00,1.6518
4112.00,1.6535
4111.00,1.6547
4110.00,1.6555
4109.00,1.6561
4108.00,1.6563
4107.00,1.6563
4106.00,1.6561
4105.00,1.6554
4104.00,1.6543
4103.00,1.6525
4102.00,1.6501
4101.00,1.6473
4100.00,1.6439
4099.00,1.6401
4098.00,1.6358
4097.00,1.6311
4096.00,1.6260
4095.00,1.6204
4094.00,1.6144
4093.00,1.6079
4092.00,1.6010
4091.00,1.5934
4090.00,1.5851
4089.00,1.5762
4088.00,1.5668
4087.00,1.5569
4086.00,1.5467
4085.00,1.5359
4084.00,1.5245
4083.00,1.5125
4082.00,1.4999
4081.00,1.4867
4080.00,1.4730
4079.00,1.4587
4078.00,1.4438
4077.00,1.4284
4076.00,1.4123
4075.00,1.3956
4074.00,1.3781
4073.00,1.3598
4072.00,1.3408
4071.00,1.3212
4070.00,1.3011
4069.00,1.2806
4068.00,1.2595
4067.00,1.2379
4066.00,1.2156
4065.00,1.1928
4064.00,1.1696
4063.00,1.1460
4062.00,1.1222
4061.00,1.0982
4060.00,1.0742
4059.00,1.0502
4058.00,1.0264
4057.00,1.0030
4056.00,0.9801
4055.00,0.9580
4054.00,0.9367
4053.00,0.9163
4052.00,0.8971
4051.00,0.8792
4050.00,0.8628
4049.00,0.8480
4048.00,0.8349
4047.00,0.8235
4046.00,0.8141
4045.00,0.8067
4044.00,0.8014
4043.00,0.7982
4042.00,0.7971
4041.00,0.7981
4040.00,0.8012
4039.00,0.8063
4038.00,0.8134
4037.00,0.8223
4036.00,0.8329
4035.00,0.8450
4034.00,0.8585
4033.00,0.8730
4032.00,0.8883
4031.00,0.9043
4030.00,0.9207
4029.00,0.9376
4028.00,0.9548
4027.00,0.9723
4026.00,0.9901
4025.00,1.0082
4024.00,1.0266
4023.00,1.0454
4022.00,1.0646
4021.00,1.0841
4020.00,1.1040
4019.00,1.1241
4018.00,1.1445
4017.00,1.1651
4016.00,1.1858
4015.00,1.2066
4014.00,1.2275
4013.00,1.2483
4012.00,1.2692
4011.00,1.2899
4010.00,1.3103
4009.00,1.3304
4008.00,1.3500
4007.00,1.3693
4006.00,1.3884
4005.00,1.4072
4004.00,1.4256
4003.00,1.4435
4002.00,1.4608
4001.00,1.4773
4000.00,1.4932
3999.00,1.5085
3998.00,1.5233
3997.00,1.5376
3996.00,1.5513
3995.00,1.5645
3994.00,1.5770
3993.00,1.5892
3992.00,1.6010
3991.00,1.6123
3990.00,1.6230
3989.00,1.6327
3988.00,1.6417
3987.00,1.6501
3986.00,1.6580
3985.00,1.6655
3984.00,1.6724
3983.00,1.6789
3982.00,1.6850
3981.00,1.6906
3980.00,1.6958
3979.00,1.7005
3978.00,1.7049
3977.00,1.7089
3976.00,1.7123
3975.00,1.7151
3974.00,1.7172
3973.00,1.7186
3972.00,1.7197
3971.00,1.7205
3970.00,1.7207
3969.00,1.7204
3968.00,1.7198
3967.00,1.7190
3966.00,1.7181
3965.00,1.7168
3964.00,1.7148
3963.00,1.7123
3962.00,1.7092
3961.00,1.7056
3960.00,1.7015
3959.00,1.6969
3958.00,1.6919
3957.00,1.6866
3956.00,1.6811
3955.00,1.6750
3954.00,1.6683
3953.00,1.6611
3952.00,1.6534
3951.00,1.6450
3950.00,1.6361
3949.00,1.6265
3948.00,1.6165
3947.00,1.6060
3946.00,1.5950
3945.00,1.5830
3944.00,1.5703
3943.00,1.5569
3942.00,1.5430
3941.00,1.5288
3940.00,1.5142
3939.00,1.4990
3938.00,1.4830
3937.00,1.4663
3936.00,1.4490
3935.00,1.4310
3934.00,1.4123
3933.00,1.3925
3932.00,1.3716
3931.00,1.3496
3930.00,1.3270
3929.00,1.3039
3928.00,1.2807
3927.00,1.2571
3926.00,1.2329
3925.00,1.2078
3924.00,1.1821
3923.00,1.1562
3922.00,1.1303
3921.00,1.1045
3920.00,1.0786
3919.00,1.0525
3918.00,1.0262
3917.00,0.9999
3916.00,0.9740
3915.00,0.9492
3914.00,0.9259
3913.00,0.9043
3912.00,0.8842
3911.00,0.8657
3910.00,0.8487
3909.00,0.8333
3908.00,0.8197
3907.00,0.8081
3906.00,0.7985
3905.00,0.7907
3904.00,0.7847
3903.00,0.7803
3902.00,0.7779
3901.00,0.7778
3900.00,0.7801
3899.00,0.7851
3898.00,0.7926
3897.00,0.8024
3896.00,0.8143
3895.00,0.8282
3894.00,0.8439
3893.00,0.8614
3892.00,0.8808
3891.00,0.9017
3890.00,0.9231
3889.00,0.9442
3888.00,0.9648
3887.00,0.9861
3886.00,1.0093
3885.00,1.0344
3884.00,1.0596
3883.00,1.0838
3882.00,1.1075
3881.00,1.1320
3880.00,1.1581
3879.00,1.1847
3878.00,1.2104
3877.00,1.2343
3876.00,1.2571
3875.00,1.2797
3874.00,1.3026
3873.00,1.3252
3872.00,1.3472
3871.00,1.3691
3870.00,1.3915
3869.00,1.4143
3868.00,1.4360
3867.00,1.4558
3866.00,1.4744
3865.00,1.4929
3864.00,1.5115
3863.00,1.5299
3862.00,1.5476
3861.00,1.5644
3860.00,1.5803
3859.00,1.5950
3858.00,1.6081
3857.00,1.6197
3856.00,1.6304
3855.00,1.6406
3854.00,1.6507
3853.00,1.6609
3852.00,1.6710
3851.00,1.6810
3850.00,1.6912
3849.00,1.7016
3848.00,1.7120
3847.00,1.7224
3846.00,1.7317
3845.00,1.7394
3844.00,1.7453
3843.00,1.7503
3842.00,1.7549
3841.00,1.7595
3840.00,1.7641
3839.00,1.7685
3838.00,1.7727
3837.00,1.7759
3836.00,1.7780
3835.00,1.7790
3834.00,1.7796
3833.00,1.7803
3832.00,1.7810
3831.00,1.7817
3830.00,1.7819
3829.00,1.7814
3828.00,1.7804
3827.00,1.7790
3826.00,1.7773
3825.00,1.7753
3824.00,1.7729
3823.00,1.7697
3822.00,1.7654
3821.00,1.7600
3820.00,1.7539
3819.00,1.7481
3818.00,1.7428
3817.00,1.7372
3816.00,1.7301
3815.00,1.7217
3814.00,1.7124
3813.00,1.7028
3812.00,1.6932
3811.00,1.6841
3810.00,1.6753
3809.00,1.6659
3808.00,1.6550
3807.00,1.6422
3806.00,1.6282
3805.00,1.6141
3804.00,1.6003
3803.00,1.5863
3802.00,1.5710
3801.00,1.5540
3800.00,1.5358
3799.00,1.5172
3798.00,1.4984
3797.00,1.4790
3796.00,1.4591
3795.00,1.4388
3794.00,1.4178
3793.00,1.3957
3792.00,1.3723
3791.00,1.3478
3790.00,1.3224
3789.00,1.2963
3788.00,1.2695
3787.00,1.2422
3786.00,1.2142
3785.00,1.1857
3784.00,1.1571
3783.00,1.1287
3782.00,1.1006
3781.00,1.0723
3780.00,1.0438
3779.00,1.0152
3778.00,0.9874
3777.00,0.9612
3776.00,0.9367
3775.00,0.9137
3774.00,0.8921
3773.00,0.8725
3772.00,0.8549
3771.00,0.8391
3770.00,0.8252
3769.00,0.8132
3768.00,0.8038
3767.00,0.7972
3766.00,0.7935
3765.00,0.7925
3764.00,0.7942
3763.00,0.7984
3762.00,0.8051
3761.00,0.8145
3760.00,0.8269
3759.00,0.8418
3758.00,0.8585
3757.00,0.8767
3756.00,0.8961
3755.00,0.9161
3754.00,0.9368
3753.00,0.9590
3752.00,0.9830
3751.00,1.0090
3750.00,1.0367
3749.00,1.0653
3748.00,1.0933
3747.00,1.1194
3746.00,1.1443
3745.00,1.1713
3744.00,1.2020
3743.00,1.2340
3742.00,1.2635
3741.00,1.2896
3740.00,1.3141
3739.00,1.3387
3738.00,1.3631
3737.00,1.3866
3736.00,1.4090
3735.00,1.4306
3734.00,1.4514
3733.00,1.4717
3732.00,1.4915
3731.00,1.5104
3730.00,1.5272
3729.00,1.5415
3728.00,1.5545
3727.00,1.5676
3726.00,1.5812
3725.00,1.5954
3724.00,1.6100
3723.00,1.6251
3722.00,1.6411
3721.00,1.6582
3720.00,1.6760
3719.00,1.6939
3718.00,1.7113
3717.00,1.7278
3716.00,1.7427
3715.00,1.7554
3714.00,1.7659
3713.00,1.7750
3712.00,1.7833
3711.00,1.7908
3710.00,1.7972
3709.00,1.8028
3708.00,1.8077
3707.00,1.8116
3706.00,1.8144
3705.00,1.8170
3704.00,1.8202
3703.00,1.8239
3702.00,1.8278
3701.00,1.8316
3700.00,1.8353
3699.00,1.8389
3698.00,1.8423
3697.00,1.8453
3696.00,1.8477
3695.00,1.8495
3694.00,1.8506
3693.00,1.8514
3692.00,1.8521
3691.00,1.8525
3690.00,1.8524
3689.00,1.8516
3688.00,1.8500
3687.00,1.8475
3686.00,1.8437
3685.00,1.8390
3684.00,1.8342
3683.00,1.8296
3682.00,1.8249
3681.00,1.8194
3680.00,1.8132
3679.00,1.8066
3678.00,1.7995
3677.00,1.7916
3676.00,1.7819
3675.00,1.7703
3674.00,1.7582
3673.00,1.7470
3672.00,1.7365
3671.00,1.7258
3670.00,1.7139
3669.00,1.7010
3668.00,1.6877
3667.00,1.6746
3666.00,1.6621
3665.00,1.6498
3664.00,1.6374
3663.00,1.6246
3662.00,1.6112
3661.00,1.5972
3660.00,1.5827
3659.00,1.5679
3658.00,1.5526
3657.00,1.5364
3656.00,1.5194
3655.00,1.5021
3654.00,1.4855
3653.00,1.4697
3652.00,1.4546
3651.00,1.4393
3650.00,1.4227
3649.00,1.4044
3648.00,1.3854
3647.00,1.3673
3646.00,1.3507
3645.00,1.3353
3644.00,1.3206
3643.00,1.3065
3642.00,1.2929
3641.00,1.2799
3640.00,1.2671
3639.00,1.2547
3638.00,1.2428
3637.00,1.2315
3636.00,1.2210
3635.00,1.2110
3634.00,1.2016
3633.00,1.1930
3632.00,1.1855
3631.00,1.1790
3630.00,1.1733
3629.00,1.1677
3628.00,1.1620
3627.00,1.1570
3626.00,1.1542
3625.00,1.1543
3624.00,1.1575
3623.00,1.1634
3622.00,1.1712
3621.00,1.1799
3620.00,1.1895
3619.00,1.1999
3618.00,1.2112
3617.00,1.2233
3616.00,1.2364
3615.00,1.2504
3614.00,1.2650
3613.00,1.2798
3612.00,1.2945
3611.00,1.3088
3610.00,1.3228
3609.00,1.3367
3608.00,1.3507
3607.00,1.3649
3606.00,1.3795
3605.00,1.3949
3604.00,1.4112
3603.00,1.4281
3602.00,1.4457
3601.00,1.4641
3600.00,1.4830
3599.00,1.5023
3598.00,1.5217
3597.00,1.5412
3596.00,1.5605
3595.00,1.5797
3594.00,1.5986
3593.00,1.6171
3592.00,1.6351
3591.00,1.6522
3590.00,1.6689
3589.00,1.6853
3588.00,1.7018
3587.00,1.7181
3586.00,1.7342
3585.00,1.7499
3584.00,1.7651
3583.00,1.7795
3582.00,1.7930
3581.00,1.8059
3580.00,1.8183
3579.00,1.8301
3578.00,1.8414
3577.00,1.8523
3576.00,1.8626
3575.00,1.8725
3574.00,1.8820
3573.00,1.8911
3572.00,1.8997
3571.00,1.9077
3570.00,1.9150
3569.00,1.9218
3568.00,1.9281
3567.00,1.9340
3566.00,1.9394
3565.00,1.9446
3564.00,1.9497
3563.00,1.9545
3562.00,1.9589
3561.00,1.9628
3560.00,1.9661
3559.00,1.9687
3558.00,1.9706
3557.00,1.9718
3556.00,1.9726
3555.00,1.9732
3554.00,1.9737
3553.00,1.9742
3552.00,1.9746
3551.00,1.9744
3550.00,1.9736
3549.00,1.9724
3548.00,1.9705
3547.00,1.9681
3546.00,1.9654
3545.00,1.9626
3544.00,1.9596
3543.00,1.9561
3542.00,1.9519
3541.00,1.9472
3540.00,1.9421
3539.00,1.9367
3538.00,1.9313
3537.00,1.9259
3536.00,1.9203
3535.00,1.9141
3534.00,1.9072
3533.00,1.8999
3532.00,1.8920
3531.00,1.8833
3530.00,1.8740
3529.00,1.8641
3528.00,1.8538
3527.00,1.8431
3526.00,1.8321
3525.00,1.8208
3524.00,1.8089
3523.00,1.7961
3522.00,1.7825
3521.00,1.7681
3520.00,1.7531
3519.00,1.7375
3518.00,1.7212
3517.00,1.7043
3516.00,1.6867
3515.00,1.6686
3514.00,1.6499
3513.00,1.6307
3512.00,1.6110
3511.00,1.5904
3510.00,1.5690
3509.00,1.5468
3508.00,1.5240
3507.00,1.5008
3506.00,1.4771
3505.00,1.4531
3504.00,1.4285
3503.00,1.4036
3502.00,1.3785
3501.00,1.3535
3500.00,1.3288
3499.00,1.3042
3498.00,1.2800
3497.00,1.2563
3496.00,1.2335
3495.00,1.2117
3494.00,1.1910
3493.00,1.1716
3492.00,1.1536
3491.00,1.1370
3490.00,1.1220
3489.00,1.1089
3488.00,1.0977
3487.00,1.0886
3486.00,1.0818
3485.00,1.0772
3484.00,1.0750
3483.00,1.0750
3482.00,1.0773
3481.00,1.0818
3480.00,1.0885
3479.00,1.0972
3478.00,1.1078
3477.00,1.1202
3476.00,1.1343
3475.00,1.1500
3474.00,1.1671
3473.00,1.1856
3472.00,1.2051
3471.00,1.2256
3470.00,1.2469
3469.00,1.2689
3468.00,1.2915
3467.00,1.3146
3466.00,1.3381
3465.00,1.3619
3464.00,1.3858
3463.00,1.4099
3462.00,1.4339
3461.00,1.4577
3460.00,1.4812
3459.00,1.5045
3458.00,1.5274
3457.00,1.5501
3456.00,1.5725
3455.00,1.5944
3454.00,1.6158
3453.00,1.6369
3452.00,1.6577
3451.00,1.6778
3450.00,1.6971
3449.00,1.7156
3448.00,1.7334
3447.00,1.7509
3446.00,1.7681
3445.00,1.7848
3444.00,1.8009
3443.00,1.8164
3442.00,1.8311
3441.00,1.8450
3440.00,1.8581
3439.00,1.8703
3438.00,1.8819
3437.00,1.8930
3436.00,1.9037
3435.00,1.9140
3434.00,1.9240
3433.00,1.9335
3432.00,1.9424
3431.00,1.9506
3430.00,1.9581
3429.00,1.9652
3428.00,1.9717
3427.00,1.9776
3426.00,1.9828
3425.00,1.9875
3424.00,1.9919
3423.00,1.9958
3422.00,1.9994
3421.00,2.0026
3420.00,2.0055
3419.00,2.0080
3418.00,2.0104
3417.00,2.0127
3416.00,2.0147
3415.00,2.0161
3414.00,2.0168
3413.00,2.0167
3412.00,2.0159
3411.00,2.0146
3410.00,2.0128
3409.00,2.0106
3408.00,2.0079
3407.00,2.0048
3406.00,2.0017
3405.00,1.9987
3404.00,1.9954
3403.00,1.9913
3402.00,1.9861
3401.00,1.9805
3400.00,1.9746
3399.00,1.9685
3398.00,1.9618
3397.00,1.9541
3396.00,1.9455
3395.00,1.9364
3394.00,1.9272
3393.00,1.9180
3392.00,1.9085
3391.00,1.8984
3390.00,1.8876
3389.00,1.8761
3388.00,1.8640
3387.00,1.8511
3386.00,1.8372
3385.00,1.8225
3384.00,1.8072
3383.00,1.7915
3382.00,1.7753
3381.00,1.7583
3380.00,1.7405
3379.00,1.7218
3378.00,1.7024
3377.00,1.6824
3376.00,1.6616
3375.00,1.6401
3374.00,1.6176
3373.00,1.5942
3372.00,1.5699
3371.00,1.5450
3370.00,1.5194
3369.00,1.4934
3368.00,1.4667
3367.00,1.4394
3366.00,1.4115
3365.00,1.3834
3364.00,1.3551
3363.00,1.3269
3362.00,1.2990
3361.00,1.2714
3360.00,1.2446
3359.00,1.2187
3358.00,1.1940
3357.00,1.1705
3356.00,1.1485
3355.00,1.1281
3354.00,1.1096
3353.00,1.0932
3352.00,1.0791
3351.00,1.0674
3350.00,1.0581
3349.00,1.0515
3348.00,1.0475
3347.00,1.0461
3346.00,1.0475
3345.00,1.0515
3344.00,1.0580
3343.00,1.0671
3342.00,1.0786
3341.00,1.0924
3340.00,1.1083
3339.00,1.1260
3338.00,1.1454
3337.00,1.1661
3336.00,1.1880
3335.00,1.2111
3334.00,1.2351
3333.00,1.2599
3332.00,1.2853
3331.00,1.3111
3330.00,1.3372
3329.00,1.3636
3328.00,1.3901
3327.00,1.4165
3326.00,1.4427
3325.00,1.4686
3324.00,1.4943
3323.00,1.5194
3322.00,1.5440
3321.00,1.5681
3320.00,1.5919
3319.00,1.6152
3318.00,1.6379
3317.00,1.6601
3316.00,1.6817
3315.00,1.7029
3314.00,1.7236
3313.00,1.7441
3312.00,1.7641
3311.00,1.7834
3310.00,1.8016
3309.00,1.8190
3308.00,1.8356
3307.00,1.8518
3306.00,1.8677
3305.00,1.8832
3304.00,1.8979
3303.00,1.9116
3302.00,1.9242
3301.00,1.9360
3300.00,1.9472
3299.00,1.9578
3298.00,1.9681
3297.00,1.9781
3296.00,1.9876
3295.00,1.9966
3294.00,2.0050
3293.00,2.0128
3292.00,2.0202
3291.00,2.0271
3290.00,2.0336
3289.00,2.0398
3288.00,2.0458
3287.00,2.0515
3286.00,2.0567
3285.00,2.0611
3284.00,2.0647
3283.00,2.0676
3282.00,2.0700
3281.00,2.0722
3280.00,2.0739
3279.00,2.0749
3278.00,2.0753
3277.00,2.0754
3276.00,2.0755
3275.00,2.0752
3274.00,2.0744
3273.00,2.0733
3272.00,2.0720
3271.00,2.0702
3270.00,2.0678
3269.00,2.0647
3268.00,2.0609
3267.00,2.0568
3266.00,2.0525
3265.00,2.0481
3264.00,2.0432
3263.00,2.0376
3262.00,2.0309
3261.00,2.0235
3260.00,2.0159
3259.00,2.0082
3258.00,2.0005
3257.00,1.9922
3256.00,1.9831
3255.00,1.9730
3254.00,1.9624
3253.00,1.9514
3252.00,1.9403
3251.00,1.9286
3250.00,1.9162
3249.00,1.9026
3248.00,1.8882
3247.00,1.8729
3246.00,1.8571
3245.00,1.8406
3244.00,1.8235
3243.00,1.8056
3242.00,1.7871
3241.00,1.7680
3240.00,1.7484
3239.00,1.7279
3238.00,1.7065
3237.00,1.6841
3236.00,1.6607
3235.00,1.6366
3234.00,1.6118
3233.00,1.5865
3232.00,1.5604
3231.00,1.5338
3230.00,1.5065
3229.00,1.4787
3228.00,1.4506
3227.00,1.4225
3226.00,1.3947
3225.00,1.3673
3224.00,1.3405
3223.00,1.3144
3222.00,1.2893
3221.00,1.2655
3220.00,1.2432
3219.00,1.2228
3218.00,1.2045
3217.00,1.1886
3216.00,1.1752
3215.00,1.1648
3214.00,1.1573
3213.00,1.1530
3212.00,1.1519
3211.00,1.1539
3210.00,1.1590
3209.00,1.1670
3208.00,1.1776
3207.00,1.1907
3206.00,1.2056
3205.00,1.2219
3204.00,1.2389
3203.00,1.2560
3202.00,1.2727
3201.00,1.2887
3200.00,1.3040
3199.00,1.3191
3198.00,1.3345
3197.00,1.3508
3196.00,1.3684
3195.00,1.3876
3194.00,1.4084
3193.00,1.4307
3192.00,1.4542
3191.00,1.4787
3190.00,1.5039
3189.00,1.5299
3188.00,1.5562
3187.00,1.5826
3186.00,1.6090
3185.00,1.6355
3184.00,1.6618
3183.00,1.6878
3182.00,1.7135
3181.00,1.7388
3180.00,1.7635
3179.00,1.7877
3178.00,1.8115
3177.00,1.8349
3176.00,1.8581
3175.00,1.8810
3174.00,1.9033
3173.00,1.9248
3172.00,1.9453
3171.00,1.9650
3170.00,1.9842
3169.00,2.0032
3168.00,2.0213
3167.00,2.0373
3166.00,2.0502
3165.00,2.0595
3164.00,2.0648
3163.00,2.0665
3162.00,2.0653
3161.00,2.0629
3160.00,2.0615
3159.00,2.0621
3158.00,2.0651
3157.00,2.0701
3156.00,2.0765
3155.00,2.0836
3154.00,2.0909
3153.00,2.0980
3152.00,2.1045
3151.00,2.1107
3150.00,2.1168
3149.00,2.1231
3148.00,2.1293
3147.00,2.1347
3146.00,2.1390
3145.00,2.1424
3144.00,2.1454
3143.00,2.1481
3142.00,2.1507
3141.00,2.1528
3140.00,2.1541
3139.00,2.1546
3138.00,2.1543
3137.00,2.1539
3136.00,2.1535
3135.00,2.1532
3134.00,2.1526
3133.00,2.1514
3132.00,2.1494
3131.00,2.1464
3130.00,2.1426
3129.00,2.1384
3128.00,2.1341
3127.00,2.1297
3126.00,2.1249
3125.00,2.1196
3124.00,2.1139
3123.00,2.1079
3122.00,2.1014
3121.00,2.0944
3120.00,2.0865
3119.00,2.0781
3118.00,2.0691
3117.00,2.0596
3116.00,2.0490
3115.00,2.0375
3114.00,2.0252
3113.00,2.0127
3112.00,2.0001
3111.00,1.9872
3110.00,1.9737
3109.00,1.9597
3108.00,1.9451
3107.00,1.9297
3106.00,1.9132
3105.00,1.8958
3104.00,1.8776
3103.00,1.8590
3102.00,1.8401
3101.00,1.8210
3100.00,1.8014
3099.00,1.7808
3098.00,1.7591
3097.00,1.7366
3096.00,1.7135
3095.00,1.6900
3094.00,1.6663
3093.00,1.6423
3092.00,1.6181
3091.00,1.5936
3090.00,1.5688
3089.00,1.5439
3088.00,1.5190
3087.00,1.4945
3086.00,1.4708
3085.00,1.4480
3084.00,1.4262
3083.00,1.4055
3082.00,1.3860
3081.00,1.3681
3080.00,1.3519
3079.00,1.3375
3078.00,1.3251
3077.00,1.3149
3076.00,1.3070
3075.00,1.3014
3074.00,1.2983
3073.00,1.2977
3072.00,1.2997
3071.00,1.3041
3070.00,1.3109
3069.00,1.3200
3068.00,1.3313
3067.00,1.3446
3066.00,1.3599
3065.00,1.3768
3064.00,1.3953
3063.00,1.4153
3062.00,1.4367
3061.00,1.4590
3060.00,1.4822
3059.00,1.5059
3058.00,1.5301
3057.00,1.5547
3056.00,1.5796
3055.00,1.6046
3054.00,1.6298
3053.00,1.6551
3052.00,1.6804
3051.00,1.7056
3050.00,1.7306
3049.00,1.7553
3048.00,1.7795
3047.00,1.8032
3046.00,1.8265
3045.00,1.8496
3044.00,1.8723
3043.00,1.8944
3042.00,1.9155
3041.00,1.9361
3040.00,1.9562
3039.00,1.9759
3038.00,1.9949
3037.00,2.0129
3036.00,2.0298
3035.00,2.0458
3034.00,2.0616
3033.00,2.0775
3032.00,2.0936
3031.00,2.1092
3030.00,2.1238
3029.00,2.1373
3028.00,2.1496
3027.00,2.1610
3026.00,2.1720
3025.00,2.1829
3024.00,2.1939
3023.00,2.2045
3022.00,2.2144
3021.00,2.2236
3020.00,2.2323
3019.00,2.2409
3018.00,2.2493
3017.00,2.2573
3016.00,2.2649
3015.00,2.2722
3014.00,2.2792
3013.00,2.2858
3012.00,2.2919
3011.00,2.2975
3010.00,2.3031
3009.00,2.3089
3008.00,2.3147
3007.00,2.3197
3006.00,2.3239
3005.00,2.3276
3004.00,2.3309
3003.00,2.3335
3002.00,2.3351
3001.00,2.3353
3000.00,2.3339
2999.00,2.3311
2998.00,2.3281
2997.00,2.3257
2996.00,2.3240
2995.00,2.3218
2994.00,2.3181
2993.00,2.3127
2992.00,2.3066
2991.00,2.3006
2990.00,2.2947
2989.00,2.2885
2988.00,2.2816
2987.00,2.2734
2986.00,2.2641
2985.00,2.2547
2984.00,2.2459
2983.00,2.2377
2982.00,2.2295
2981.00,2.2211
2980.00,2.2124
2979.00,2.2035
2978.00,2.1947
2977.00,2.1860
2976.00,2.1775
2975.00,2.1695
2974.00,2.1623
2973.00,2.1563
2972.00,2.1512
2971.00,2.1467
2970.00,2.1429
2969.00,2.1400
2968.00,2.1384
2967.00,2.1380
2966.00,2.1387
2965.00,2.1402
2964.00,2.1421
2963.00,2.1445
2962.00,2.1471
2961.00,2.1502
2960.00,2.1540
2959.00,2.1590
2958.00,2.1656
2957.00,2.1737
2956.00,2.1834
2955.00,2.1946
2954.00,2.2075
2953.00,2.2224
2952.00,2.2393
2951.00,2.2582
2950.00,2.2789
2949.00,2.3016
2948.00,2.3263
2947.00,2.3525
2946.00,2.3788
2945.00,2.4021
2944.00,2.4182
2943.00,2.4237
2942.00,2.4181
2941.00,2.4034
2940.00,2.3824
2939.00,2.3575
2938.00,2.3303
2937.00,2.3020
2936.00,2.2731
2935.00,2.2439
2934.00,2.2146
2933.00,2.1853
2932.00,2.1561
2931.00,2.1267
2930.00,2.0967
2929.00,2.0659
2928.00,2.0346
2927.00,2.0032
2926.00,1.9718
2925.00,1.9406
2924.00,1.9099
2923.00,1.8796
2922.00,1.8499
2921.00,1.8212
2920.00,1.7938
2919.00,1.7678
2918.00,1.7439
2917.00,1.7223
2916.00,1.7037
2915.00,1.6882
2914.00,1.6758
2913.00,1.6665
2912.00,1.6602
2911.00,1.6569
2910.00,1.6562
2909.00,1.6580
2908.00,1.6621
2907.00,1.6682
2906.00,1.6764
2905.00,1.6866
2904.00,1.6987
2903.00,1.7123
2902.00,1.7271
2901.00,1.7430
2900.00,1.7599
2899.00,1.7777
2898.00,1.7963
2897.00,1.8155
2896.00,1.8355
2895.00,1.8563
2894.00,1.8775
2893.00,1.8990
2892.00,1.9207
2891.00,1.9427
2890.00,1.9651
2889.00,1.9880
2888.00,2.0110
2887.00,2.0338
2886.00,2.0559
2885.00,2.0772
2884.00,2.0975
2883.00,2.1174
2882.00,2.1373
2881.00,2.1568
2880.00,2.1752
2879.00,2.1918
2878.00,2.2075
2877.00,2.2232
2876.00,2.2394
2875.00,2.2555
2874.00,2.2700
2873.00,2.2823
2872.00,2.2925
2871.00,2.3019
2870.00,2.3111
2869.00,2.3197
2868.00,2.3263
2867.00,2.3300
2866.00,2.3315
2865.00,2.3319
2864.00,2.3318
2863.00,2.3316
2862.00,2.3315
2861.00,2.3320
2860.00,2.3330
2859.00,2.3339
2858.00,2.3339
2857.00,2.3335
2856.00,2.3336
2855.00,2.3349
2854.00,2.3370
2853.00,2.3389
2852.00,2.3401
2851.00,2.3411
2850.00,2.3427
2849.00,2.3450
2848.00,2.3470
2847.00,2.3479
2846.00,2.3479
2845.00,2.3475
2844.00,2.3469
2843.00,2.3456
2842.00,2.3436
2841.00,2.3411
2840.00,2.3383
2839.00,2.3351
2838.00,2.3315
2837.00,2.3273
2836.00,2.3227
2835.00,2.3181
2834.00,2.3139
2833.00,2.3097
2832.00,2.3051
2831.00,2.2993
2830.00,2.2921
2829.00,2.2836
2828.00,2.2739
2827.00,2.2634
2826.00,2.2525
2825.00,2.2416
2824.00,2.2303
2823.00,2.2181
2822.00,2.2049
2821.00,2.1907
2820.00,2.1758
2819.00,2.1601
2818.00,2.1441
2817.00,2.1277
2816.00,2.1106
2815.00,2.0922
2814.00,2.0725
2813.00,2.0521
2812.00,2.0309
2811.00,2.0089
2810.00,1.9858
2809.00,1.9613
2808.00,1.9352
2807.00,1.9077
2806.00,1.8790
2805.00,1.8493
2804.00,1.8187
2803.00,1.7869
2802.00,1.7538
2801.00,1.7194
2800.00,1.6836
2799.00,1.6463
2798.00,1.6076
2797.00,1.5679
2796.00,1.5275
2795.00,1.4866
2794.00,1.4457
2793.00,1.4053
2792.00,1.3657
2791.00,1.3275
2790.00,1.2913
2789.00,1.2576
2788.00,1.2270
2787.00,1.1999
2786.00,1.1767
2785.00,1.1578
2784.00,1.1436
2783.00,1.1342
2782.00,1.1298
2781.00,1.1304
2780.00,1.1360
2779.00,1.1463
2778.00,1.1611
2777.00,1.1799
2776.00,1.2024
2775.00,1.2282
2774.00,1.2568
2773.00,1.2877
2772.00,1.3205
2771.00,1.3547
2770.00,1.3901
2769.00,1.4263
2768.00,1.4632
2767.00,1.5005
2766.00,1.5379
2765.00,1.5751
2764.00,1.6119
2763.00,1.6484
2762.00,1.6844
2761.00,1.7198
2760.00,1.7544
2759.00,1.7883
2758.00,1.8215
2757.00,1.8541
2756.00,1.8860
2755.00,1.9165
2754.00,1.9455
2753.00,1.9730
2752.00,1.9991
2751.00,2.0242
2750.00,2.0485
2749.00,2.0720
2748.00,2.0944
2747.00,2.1156
2746.00,2.1354
2745.00,2.1544
2744.00,2.1730
2743.00,2.1910
2742.00,2.2077
2741.00,2.2228
2740.00,2.2365
2739.00,2.2495
2738.00,2.2624
2737.00,2.2751
2736.00,2.2872
2735.00,2.2986
2734.00,2.3096
2733.00,2.3207
2732.00,2.3315
2731.00,2.3415
2730.00,2.3502
2729.00,2.3576
2728.00,2.3643
2727.00,2.3706
2726.00,2.3767
2725.00,2.3823
2724.00,2.3870
2723.00,2.3911
2722.00,2.3954
2721.00,2.4007
2720.00,2.4064
2719.00,2.4114
2718.00,2.4147
2717.00,2.4168
2716.00,2.4187
2715.00,2.4206
2714.00,2.4221
2713.00,2.4226
2712.00,2.4216
2711.00,2.4199
2710.00,2.4181
2709.00,2.4166
2708.00,2.4147
2707.00,2.4121
2706.00,2.4090
2705.00,2.4060
2704.00,2.4029
2703.00,2.3991
2702.00,2.3943
2701.00,2.3885
2700.00,2.3820
2699.00,2.3750
2698.00,2.3678
2697.00,2.3605
2696.00,2.3529
2695.00,2.3444
2694.00,2.3350
2693.00,2.3249
2692.00,2.3142
2691.00,2.3029
2690.00,2.2908
2689.00,2.2783
2688.00,2.2656
2687.00,2.2528
2686.00,2.2395
2685.00,2.2249
2684.00,2.2087
2683.00,2.1911
2682.00,2.1729
2681.00,2.1545
2680.00,2.1357
2679.00,2.1160
2678.00,2.0955
2677.00,2.0743
2676.00,2.0522
2675.00,2.0288
2674.00,2.0036
2673.00,1.9769
2672.00,1.9490
2671.00,1.9198
2670.00,1.8892
2669.00,1.8568
2668.00,1.8224
2667.00,1.7862
2666.00,1.7479
2665.00,1.7075
2664.00,1.6653
2663.00,1.6215
2662.00,1.5766
2661.00,1.5311
2660.00,1.4855
2659.00,1.4403
2658.00,1.3959
2657.00,1.3530
2656.00,1.3121
2655.00,1.2738
2654.00,1.2385
2653.00,1.2071
2652.00,1.1798
2651.00,1.1573
2650.00,1.1398
2649.00,1.1279
2648.00,1.1218
2647.00,1.1218
2646.00,1.1278
2645.00,1.1397
2644.00,1.1574
2643.00,1.1803
2642.00,1.2079
2641.00,1.2397
2640.00,1.2752
2639.00,1.3136
2638.00,1.3545
2637.00,1.3975
2636.00,1.4421
2635.00,1.4880
2634.00,1.5346
2633.00,1.5815
2632.00,1.6279
2631.00,1.6728
2630.00,1.7149
2629.00,1.7527
2628.00,1.7855
2627.00,1.8138
2626.00,1.8389
2625.00,1.8625
2624.00,1.8861
2623.00,1.9101
2622.00,1.9349
2621.00,1.9604
2620.00,1.9865
2619.00,2.0128
2618.00,2.0394
2617.00,2.0658
2616.00,2.0919
2615.00,2.1169
2614.00,2.1407
2613.00,2.1638
2612.00,2.1862
2611.00,2.2071
2610.00,2.2258
2609.00,2.2424
2608.00,2.2584
2607.00,2.2753
2606.00,2.2933
2605.00,2.3114
2604.00,2.3281
2603.00,2.3431
2602.00,2.3570
2601.00,2.3704
2600.00,2.3828
2599.00,2.3937
2598.00,2.4031
2597.00,2.4120
2596.00,2.4216
2595.00,2.4319
2594.00,2.4422
2593.00,2.4517
2592.00,2.4599
2591.00,2.4667
2590.00,2.4726
2589.00,2.4781
2588.00,2.4835
2587.00,2.4890
2586.00,2.4944
2585.00,2.4998
2584.00,2.5049
2583.00,2.5089
2582.00,2.5112
2581.00,2.5122
2580.00,2.5134
2579.00,2.5157
2578.00,2.5184
2577.00,2.5200
2576.00,2.5195
2575.00,2.5173
2574.00,2.5144
2573.00,2.5120
2572.00,2.5106
2571.00,2.5095
2570.00,2.5081
2569.00,2.5064
2568.00,2.5042
2567.00,2.5013
2566.00,2.4974
2565.00,2.4922
2564.00,2.4861
2563.00,2.4790
2562.00,2.4708
2561.00,2.4613
2560.00,2.4513
2559.00,2.4416
2558.00,2.4326
2557.00,2.4239
2556.00,2.4148
2555.00,2.4050
2554.00,2.3944
2553.00,2.3831
2552.00,2.3714
2551.00,2.3592
2550.00,2.3464
2549.00,2.3328
2548.00,2.3182
2547.00,2.3023
2546.00,2.2849
2545.00,2.2661
2544.00,2.2459
2543.00,2.2250
2542.00,2.2038
2541.00,2.1821
2540.00,2.1597
2539.00,2.1361
2538.00,2.1110
2537.00,2.0844
2536.00,2.0565
2535.00,2.0273
2534.00,1.9966
2533.00,1.9642
2532.00,1.9298
2531.00,1.8933
2530.00,1.8549
2529.00,1.8148
2528.00,1.7732
2527.00,1.7299
2526.00,1.6852
2525.00,1.6390
2524.00,1.5919
2523.00,1.5442
2522.00,1.4967
2521.00,1.4503
2520.00,1.4053
2519.00,1.3625
2518.00,1.3226
2517.00,1.2861
2516.00,1.2538
2515.00,1.2262
2514.00,1.2038
2513.00,1.1873
2512.00,1.1769
2511.00,1.1730
2510.00,1.1754
2509.00,1.1841
2508.00,1.1989
2507.00,1.2192
2506.00,1.2444
2505.00,1.2739
2504.00,1.3071
2503.00,1.3432
2502.00,1.3818
2501.00,1.4221
2500.00,1.4638
2499.00,1.5064
2498.00,1.5495
2497.00,1.5926
2496.00,1.6356
2495.00,1.6781
2494.00,1.7203
2493.00,1.7620
2492.00,1.8030
2491.00,1.8432
2490.00,1.8824
2489.00,1.9205
2488.00,1.9576
2487.00,1.9932
2486.00,2.0275
2485.00,2.0604
2484.00,2.0920
2483.00,2.1219
2482.00,2.1499
2481.00,2.1764
2480.00,2.2016
2479.00,2.2261
2478.00,2.2499
2477.00,2.2731
2476.00,2.2950
2475.00,2.3155
2474.00,2.3344
2473.00,2.3523
2472.00,2.3695
2471.00,2.3863
2470.00,2.4027
2469.00,2.4181
2468.00,2.4320
2467.00,2.4446
2466.00,2.4571
2465.00,2.4705
2464.00,2.4841
2463.00,2.4966
2462.00,2.5075
2461.00,2.5174
2460.00,2.5271
2459.00,2.5368
2458.00,2.5462
2457.00,2.5549
2456.00,2.5624
2455.00,2.5691
2454.00,2.5754
2453.00,2.5816
2452.00,2.5877
2451.00,2.5937
2450.00,2.6000
2449.00,2.6060
2448.00,2.6105
2447.00,2.6125
2446.00,2.6129
2445.00,2.6131
2444.00,2.6137
2443.00,2.6149
2442.00,2.6162
2441.00,2.6173
2440.00,2.6181
2439.00,2.6184
2438.00,2.6179
2437.00,2.6163
2436.00,2.6137
2435.00,2.6110
2434.00,2.6092
2433.00,2.6088
2432.00,2.6083
2431.00,2.6063
2430.00,2.6026
2429.00,2.5978
2428.00,2.5919
2427.00,2.5847
2426.00,2.5767
2425.00,2.5691
2424.00,2.5620
2423.00,2.5548
2422.00,2.5467
2421.00,2.5378
2420.00,2.5285
2419.00,2.5188
2418.00,2.5084
2417.00,2.4975
2416.00,2.4860
2415.00,2.4741
2414.00,2.4617
2413.00,2.4488
2412.00,2.4358
2411.00,2.4231
2410.00,2.4104
2409.00,2.3967
2408.00,2.3812
2407.00,2.3639
2406.00,2.3457
2405.00,2.3274
2404.00,2.3087
2403.00,2.2892
2402.00,2.2683
2401.00,2.2456
2400.00,2.2205
2399.00,2.1932
2398.00,2.1640
2397.00,2.1334
2396.00,2.1016
2395.00,2.0684
2394.00,2.0335
2393.00,1.9968
2392.00,1.9582
2391.00,1.9180
2390.00,1.8772
2389.00,1.8367
2388.00,1.7979
2387.00,1.7620
2386.00,1.7307
2385.00,1.7055
2384.00,1.6878
2383.00,1.6783
2382.00,1.6769
2381.00,1.6824
2380.00,1.6930
2379.00,1.7060
2378.00,1.7188
2377.00,1.7293
2376.00,1.7365
2375.00,1.7402
2374.00,1.7413
2373.00,1.7412
2372.00,1.7418
2371.00,1.7441
2370.00,1.7482
2369.00,1.7539
2368.00,1.7615
2367.00,1.7708
2366.00,1.7806
2365.00,1.7909
2364.00,1.8031
2363.00,1.8164
2362.00,1.8307
2361.00,1.8486
2360.00,1.8700
2359.00,1.8943
2358.00,1.9181
2357.00,1.9384
2356.00,1.9571
2355.00,1.9744
2354.00,1.9919
2353.00,2.0127
2352.00,2.0418
2351.00,2.0772
2350.00,2.1060
2349.00,2.1265
2348.00,2.1481
2347.00,2.1792
2346.00,2.2148
2345.00,2.2419
2344.00,2.2622
2343.00,2.2826
2342.00,2.3130
2341.00,2.3526
2340.00,2.3955
2339.00,2.4394
2338.00,2.4824
2337.00,2.5271
2336.00,2.5738
2335.00,2.6237
2334.00,2.6755
2333.00,2.7308
2332.00,2.7876
2331.00,2.8451
2330.00,2.8960
2329.00,2.9412
2328.00,2.9767
2327.00,3.0061
2326.00,3.0337
2325.00,3.0640
2324.00,3.0986
2323.00,3.1307
2322.00,3.1562
2321.00,3.1742
2320.00,3.1875
2319.00,3.1983
2318.00,3.2038
2317.00,3.2046
2316.00,3.2002
2315.00,3.1965
2314.00,3.1941
2313.00,3.1952
2312.00,3.1946
2311.00,3.1905
2310.00,3.1789
2309.00,3.1621
2308.00,3.1414
2307.00,3.1205
2306.00,3.0992
2305.00,3.0775
2304.00,3.0528
2303.00,3.0260
2302.00,2.9985
2301.00,2.9740
2300.00,2.9527
2299.00,2.9349
2298.00,2.9194
2297.00,2.9084
2296.00,2.9028
2295.00,2.9031
2294.00,2.9060
2293.00,2.9071
2292.00,2.9029
2291.00,2.8927
2290.00,2.8774
2289.00,2.8577
2288.00,2.8346
2287.00,2.8091
2286.00,2.7823
2285.00,2.7552
2284.00,2.7293
2283.00,2.7055
2282.00,2.6833
2281.00,2.6599
2280.00,2.6329
2279.00,2.6021
2278.00,2.5697
2277.00,2.5373
2276.00,2.5047
2275.00,2.4711
2274.00,2.4360
2273.00,2.3991
2272.00,2.3596
2271.00,2.3164
2270.00,2.2695
2269.00,2.2195
2268.00,2.1680
2267.00,2.1183
2266.00,2.0751
2265.00,2.0443
2264.00,2.0321
2263.00,2.0442
2262.00,2.0848
2261.00,2.1569
2260.00,2.2616
2259.00,2.3987
2258.00,2.5672
2257.00,2.7660
2256.00,2.9934
2255.00,3.2449
2254.00,3.5020
2253.00,3.7039
2252.00,3.7430
2251.00,3.6192
2250.00,3.4477
2249.00,3.2923
2248.00,3.1650
2247.00,3.0607
2246.00,2.9724
2245.00,2.8949
2244.00,2.8249
2243.00,2.7601
2242.00,2.6990
2241.00,2.6397
2240.00,2.5800
2239.00,2.5186
2238.00,2.4555
2237.00,2.3909
2236.00,2.3248
2235.00,2.2566
2234.00,2.1859
2233.00,2.1127
2232.00,2.0374
2231.00,1.9611
2230.00,1.8854
2229.00,1.8119
2228.00,1.7412
2227.00,1.6737
2226.00,1.6101
2225.00,1.5521
2224.00,1.5015
2223.00,1.4604
2222.00,1.4302
2221.00,1.4120
2220.00,1.4061
2219.00,1.4121
2218.00,1.4293
2217.00,1.4564
2216.00,1.4919
2215.00,1.5340
2214.00,1.5810
2213.00,1.6316
2212.00,1.6846
2211.00,1.7393
2210.00,1.7947
2209.00,1.8503
2208.00,1.9056
2207.00,1.9599
2206.00,2.0125
2205.00,2.0619
2204.00,2.1069
2203.00,2.1467
2202.00,2.1823
2201.00,2.2151
2200.00,2.2468
2199.00,2.2783
2198.00,2.3098
2197.00,2.3409
2196.00,2.3709
2195.00,2.3993
2194.00,2.4264
2193.00,2.4523
2192.00,2.4767
2191.00,2.4992
2190.00,2.5200
2189.00,2.5402
2188.00,2.5607
2187.00,2.5811
2186.00,2.6008
2185.00,2.6194
2184.00,2.6371
2183.00,2.6544
2182.00,2.6709
2181.00,2.6853
2180.00,2.6967
2179.00,2.7056
2178.00,2.7140
2177.00,2.7231
2176.00,2.7329
2175.00,2.7425
2174.00,2.7514
2173.00,2.7602
2172.00,2.7690
2171.00,2.7771
2170.00,2.7840
2169.00,2.7899
2168.00,2.7954
2167.00,2.8007
2166.00,2.8057
2165.00,2.8102
2164.00,2.8147
2163.00,2.8190
2162.00,2.8228
2161.00,2.8254
2160.00,2.8272
2159.00,2.8288
2158.00,2.8300
2157.00,2.8295
2156.00,2.8261
2155.00,2.8203
2154.00,2.8143
2153.00,2.8102
2152.00,2.8087
2151.00,2.8088
2150.00,2.8095
2149.00,2.8098
2148.00,2.8091
2147.00,2.8063
2146.00,2.8007
2145.00,2.7924
2144.00,2.7830
2143.00,2.7743
2142.00,2.7673
2141.00,2.7618
2140.00,2.7573
2139.00,2.7527
2138.00,2.7460
2137.00,2.7352
2136.00,2.7206
2135.00,2.7053
2134.00,2.6920
2133.00,2.6805
2132.00,2.6687
2131.00,2.6551
2130.00,2.6398
2129.00,2.6229
2128.00,2.6039
2127.00,2.5836
2126.00,2.5639
2125.00,2.5451
2124.00,2.5258
2123.00,2.5045
2122.00,2.4814
2121.00,2.4576
2120.00,2.4331
2119.00,2.4074
2118.00,2.3799
2117.00,2.3512
2116.00,2.3214
2115.00,2.2900
2114.00,2.2564
2113.00,2.2203
2112.00,2.1814
2111.00,2.1398
2110.00,2.0957
2109.00,2.0492
2108.00,2.0004
2107.00,1.9492
2106.00,1.8958
2105.00,1.8407
2104.00,1.7843
2103.00,1.7272
2102.00,1.6702
2101.00,1.6145
2100.00,1.5614
2099.00,1.5119
2098.00,1.4673
2097.00,1.4286
2096.00,1.3965
2095.00,1.3719
2094.00,1.3554
2093.00,1.3474
2092.00,1.3484
2091.00,1.3582
2090.00,1.3764
2089.00,1.4024
2088.00,1.4352
2087.00,1.4735
2086.00,1.5165
2085.00,1.5632
2084.00,1.6128
2083.00,1.6642
2082.00,1.7168
2081.00,1.7699
2080.00,1.8232
2079.00,1.8759
2078.00,1.9278
2077.00,1.9786
2076.00,2.0282
2075.00,2.0764
2074.00,2.1229
2073.00,2.1676
2072.00,2.2099
2071.00,2.2492
2070.00,2.2854
2069.00,2.3191
2068.00,2.3509
2067.00,2.3812
2066.00,2.4104
2065.00,2.4390
2064.00,2.4663
2063.00,2.4917
2062.00,2.5154
2061.00,2.5387
2060.00,2.5617
2059.00,2.5837
2058.00,2.6044
2057.00,2.6246
2056.00,2.6450
2055.00,2.6648
2054.00,2.6831
2053.00,2.7002
2052.00,2.7169
2051.00,2.7337
2050.00,2.7502
2049.00,2.7658
2048.00,2.7790
2047.00,2.7889
2046.00,2.7968
2045.00,2.8056
2044.00,2.8163
2043.00,2.8271
2042.00,2.8363
2041.00,2.8452
2040.00,2.8551
2039.00,2.8654
2038.00,2.8746
2037.00,2.8832
2036.00,2.8915
2035.00,2.8987
2034.00,2.9035
2033.00,2.9064
2032.00,2.9088
2031.00,2.9104
2030.00,2.9103
2029.00,2.9101
2028.00,2.9125
2027.00,2.9180
2026.00,2.9238
2025.00,2.9266
2024.00,2.9255
2023.00,2.9226
2022.00,2.9204
2021.00,2.9202
2020.00,2.9216
2019.00,2.9223
2018.00,2.9212
2017.00,2.9195
2016.00,2.9190
2015.00,2.9193
2014.00,2.9180
2013.00,2.9133
2012.00,2.9053
2011.00,2.8959
2010.00,2.8875
2009.00,2.8813
2008.00,2.8765
2007.00,2.8714
2006.00,2.8648
2005.00,2.8575
2004.00,2.8502
2003.00,2.8425
2002.00,2.8343
2001.00,2.8260
2000.00,2.8182
1999.00,2.8096
1998.00,2.7992
1997.00,2.7873
1996.00,2.7747
1995.00,2.7605
1994.00,2.7434
1993.00,2.7241
1992.00,2.7053
1991.00,2.6882
1990.00,2.6708
1989.00,2.6514
1988.00,2.6301
1987.00,2.6082
1986.00,2.5862
1985.00,2.5635
1984.00,2.5398
1983.00,2.5150
1982.00,2.4891
1981.00,2.4614
1980.00,2.4314
1979.00,2.3994
1978.00,2.3660
1977.00,2.3310
1976.00,2.2937
1975.00,2.2539
1974.00,2.2112
1973.00,2.1655
1972.00,2.1171
1971.00,2.0662
1970.00,2.0132
1969.00,1.9578
1968.00,1.9001
1967.00,1.8407
1966.00,1.7803
1965.00,1.7203
1964.00,1.6625
1963.00,1.6087
1962.00,1.5605
1961.00,1.5185
1960.00,1.4831
1959.00,1.4548
1958.00,1.4347
1957.00,1.4238
1956.00,1.4226
1955.00,1.4307
1954.00,1.4478
1953.00,1.4733
1952.00,1.5063
1951.00,1.5456
1950.00,1.5899
1949.00,1.6381
1948.00,1.6887
1947.00,1.7409
1946.00,1.7938
1945.00,1.8467
1944.00,1.8994
1943.00,1.9532
1942.00,2.0087
1941.00,2.0640
1940.00,2.1160
1939.00,2.1635
1938.00,2.2084
1937.00,2.2532
1936.00,2.2984
1935.00,2.3425
1934.00,2.3838
1933.00,2.4221
1932.00,2.4579
1931.00,2.4921
1930.00,2.5250
1929.00,2.5565
1928.00,2.5857
1927.00,2.6123
1926.00,2.6365
1925.00,2.6592
1924.00,2.6815
1923.00,2.7039
1922.00,2.7255
1921.00,2.7444
1920.00,2.7606
1919.00,2.7777
1918.00,2.7988
1917.00,2.8232
1916.00,2.8448
1915.00,2.8590
1914.00,2.8689
1913.00,2.8812
1912.00,2.8990
1911.00,2.9183
1910.00,2.9327
1909.00,2.9394
1908.00,2.9407
1907.00,2.9408
1906.00,2.9427
1905.00,2.9481
1904.00,2.9576
1903.00,2.9694
1902.00,2.9812
1901.00,2.9905
1900.00,2.9983
1899.00,3.0067
1898.00,3.0154
1897.00,3.0217
1896.00,3.0248
1895.00,3.0272
1894.00,3.0314
1893.00,3.0365
1892.00,3.0394
1891.00,3.0383
1890.00,3.0348
1889.00,3.0324
1888.00,3.0331
1887.00,3.0362
1886.00,3.0393
1885.00,3.0392
1884.00,3.0350
1883.00,3.0287
1882.00,3.0237
1881.00,3.0212
1880.00,3.0198
1879.00,3.0167
1878.00,3.0102
1877.00,3.0030
1876.00,2.9987
1875.00,2.9982
1874.00,2.9989
1873.00,2.9977
1872.00,2.9933
1871.00,2.9868
1870.00,2.9799
1869.00,2.9728
1868.00,2.9629
1867.00,2.9467
1866.00,2.9261
1865.00,2.9080
1864.00,2.8970
1863.00,2.8914
1862.00,2.8863
1861.00,2.8777
1860.00,2.8654
1859.00,2.8508
1858.00,2.8352
1857.00,2.8186
1856.00,2.8008
1855.00,2.7815
1854.00,2.7607
1853.00,2.7398
1852.00,2.7199
1851.00,2.6999
1850.00,2.6775
1849.00,2.6528
1848.00,2.6276
1847.00,2.6006
1846.00,2.5689
1845.00,2.5336
1844.00,2.5003
1843.00,2.4710
1842.00,2.4386
1841.00,2.3965
1840.00,2.3485
1839.00,2.3026
1838.00,2.2599
1837.00,2.2159
1836.00,2.1671
1835.00,2.1142
1834.00,2.0606
1833.00,2.0075
1832.00,1.9541
1831.00,1.9012
1830.00,1.8513
1829.00,1.8054
1828.00,1.7602
1827.00,1.7142
1826.00,1.6728
1825.00,1.6429
1824.00,1.6260
1823.00,1.6154
1822.00,1.6056
1821.00,1.6001
1820.00,1.6069
1819.00,1.6287
1818.00,1.6622
1817.00,1.7037
1816.00,1.7507
1815.00,1.8011
1814.00,1.8530
1813.00,1.9055
1812.00,1.9593
1811.00,2.0144
1810.00,2.0691
1809.00,2.1221
1808.00,2.1725
1807.00,2.2207
1806.00,2.2676
1805.00,2.3138
1804.00,2.3592
1803.00,2.4043
1802.00,2.4496
1801.00,2.4944
1800.00,2.5354
1799.00,2.5694
1798.00,2.5972
1797.00,2.6228
1796.00,2.6484
1795.00,2.6739
1794.00,2.7004
1793.00,2.7310
1792.00,2.7670
1791.00,2.8034
1790.00,2.8315
1789.00,2.8497
1788.00,2.8636
1787.00,2.8791
1786.00,2.9000
1785.00,2.9264
1784.00,2.9537
1783.00,2.9749
1782.00,2.9876
1781.00,2.9955
1780.00,3.0048
1779.00,3.0165
1778.00,3.0282
1777.00,3.0391
1776.00,3.0495
1775.00,3.0602
1774.00,3.0691
1773.00,3.0738
1772.00,3.0751
1771.00,3.0750
1770.00,3.0758
1769.00,3.0824
1768.00,3.0958
1767.00,3.1111
1766.00,3.1247
1765.00,3.1343
1764.00,3.1398
1763.00,3.1433
1762.00,3.1475
1761.00,3.1524
1760.00,3.1531
1759.00,3.1452
1758.00,3.1345
1757.00,3.1322
1756.00,3.1435
1755.00,3.1611
1754.00,3.1706
1753.00,3.1664
1752.00,3.1540
1751.00,3.1416
1750.00,3.1321
1749.00,3.1212
1748.00,3.1073
1747.00,3.0977
1746.00,3.0967
1745.00,3.0991
1744.00,3.0984
1743.00,3.0925
1742.00,3.0847
1741.00,3.0784
1740.00,3.0744
1739.00,3.0718
1738.00,3.0672
1737.00,3.0552
1736.00,3.0366
1735.00,3.0165
1734.00,2.9976
1733.00,2.9784
1732.00,2.9468
1731.00,2.9026
1730.00,2.8700
1729.00,2.8591
1728.00,2.8573
1727.00,2.8529
1726.00,2.8460
1725.00,2.8434
1724.00,2.8494
1723.00,2.8628
1722.00,2.8816
1721.00,2.9071
1720.00,2.9455
1719.00,3.0054
1718.00,3.0884
1717.00,3.1795
1716.00,3.2577
1715.00,3.3336
1714.00,3.4455
1713.00,3.6015
1712.00,3.7573
1711.00,3.8556
1710.00,3.8979
1709.00,3.9225
1708.00,3.9294
1707.00,3.9101
1706.00,3.8789
1705.00,3.8276
1704.00,3.7366
1703.00,3.6267
1702.00,3.5266
1701.00,3.4416
1700.00,3.3761
1699.00,3.3332
1698.00,3.2762
1697.00,3.1837
1696.00,3.0918
1695.00,3.0272
1694.00,2.9919
1693.00,2.9685
1692.00,2.9408
1691.00,2.9127
1690.00,2.8830
1689.00,2.8440
1688.00,2.7952
1687.00,2.7387
1686.00,2.6716
1685.00,2.5903
1684.00,2.5069
1683.00,2.4386
1682.00,2.3855
1681.00,2.3435
1680.00,2.3061
1679.00,2.2675
1678.00,2.2264
1677.00,2.1812
1676.00,2.1354
1675.00,2.0956
1674.00,2.0636
1673.00,2.0277
1672.00,1.9841
1671.00,1.9503
1670.00,1.9418
1669.00,1.9544
1668.00,1.9746
1667.00,1.9944
1666.00,2.0147
1665.00,2.0413
1664.00,2.0811
1663.00,2.1364
1662.00,2.2011
1661.00,2.2621
1660.00,2.3130
1659.00,2.3600
1658.00,2.4094
1657.00,2.4606
1656.00,2.5082
1655.00,2.5475
1654.00,2.5790
1653.00,2.6132
1652.00,2.6483
1651.00,2.6658
1650.00,2.6693
1649.00,2.6921
1648.00,2.7538
1647.00,2.8268
1646.00,2.8773
1645.00,2.9053
1644.00,2.9195
1643.00,2.9359
1642.00,2.9490
1641.00,2.9921
1640.00,3.0326
1639.00,3.0391
1638.00,3.0536
1637.00,3.0688
1636.00,3.0728
1635.00,3.0696
1634.00,3.0828
1633.00,3.0921
1632.00,3.1024
1631.00,3.1114
1630.00,3.1276
1629.00,3.1477
1628.00,3.1714
1627.00,3.1939
1626.00,3.2081
1625.00,3.2132
1624.00,3.2165
1623.00,3.2245
1622.00,3.2341
1621.00,3.2361
1620.00,3.2291
1619.00,3.2204
1618.00,3.2163
1617.00,3.2166
1616.00,3.2169
1615.00,3.2157
1614.00,3.2197
1613.00,3.2367
1612.00,3.2603
1611.00,3.2758
1610.00,3.2780
1609.00,3.2755
1608.00,3.2782
1607.00,3.2864
1606.00,3.2936
1605.00,3.2942
1604.00,3.2889
1603.00,3.2833
1602.00,3.2828
1601.00,3.2884
1600.00,3.2947
1599.00,3.2948
1598.00,3.2876
1597.00,3.2783
1596.00,3.2713
1595.00,3.2658
1594.00,3.2583
1593.00,3.2463
1592.00,3.2298
1591.00,3.2115
1590.00,3.1953
1589.00,3.1837
1588.00,3.1756
1587.00,3.1681
1586.00,3.1608
1585.00,3.1555
1584.00,3.1523
1583.00,3.1482
1582.00,3.1400
1581.00,3.1277
1580.00,3.1116
1579.00,3.0903
1578.00,3.0610
1577.00,3.0218
1576.00,2.9742
1575.00,2.9265
1574.00,2.8915
1573.00,2.8774
1572.00,2.8790
1571.00,2.8820
1570.00,2.8766
1569.00,2.8629
1568.00,2.8403
1567.00,2.8081
1566.00,2.7706
1565.00,2.7353
1564.00,2.7059
1563.00,2.6788
1562.00,2.6447
1561.00,2.6022
1560.00,2.5522
1559.00,2.5105
1558.00,2.4707
1557.00,2.4107
1556.00,2.3618
1555.00,2.3282
1554.00,2.3024
1553.00,2.2865
1552.00,2.2709
1551.00,2.2555
1550.00,2.2453
1549.00,2.2421
1548.00,2.2399
1547.00,2.2367
1546.00,2.2374
1545.00,2.2479
1544.00,2.2647
1543.00,2.2764
1542.00,2.2815
1541.00,2.2854
1540.00,2.2953
1539.00,2.2959
1538.00,2.3170
1537.00,2.3356
1536.00,2.4503
1535.00,2.5640
1534.00,2.5725
1533.00,2.6306
1532.00,2.6629
1531.00,2.7070
1530.00,2.7389
1529.00,2.7744
1528.00,2.8124
1527.00,2.8449
1526.00,2.8777
1525.00,2.9090
1524.00,2.9260
1523.00,2.9396
1522.00,2.9528
1521.00,2.9693
1520.00,2.9849
1519.00,3.0013
1518.00,3.0249
1517.00,3.0596
1516.00,3.0962
1515.00,3.1208
1514.00,3.1326
1513.00,3.1428
1512.00,3.1633
1511.00,3.1978
1510.00,3.2362
1509.00,3.2651
1508.00,3.2753
1507.00,3.2670
1506.00,3.2441
1505.00,3.2285
1504.00,3.2360
1503.00,3.2439
1502.00,3.2582
1501.00,3.2906
1500.00,3.3244
1499.00,3.3489
1498.00,3.3606
1497.00,3.3596
1496.00,3.3494
1495.00,3.3411
1494.00,3.3457
1493.00,3.3647
1492.00,3.3939
1491.00,3.4257
1490.00,3.4504
1489.00,3.4590
1488.00,3.4528
1487.00,3.4480
1486.00,3.4523
1485.00,3.4569
1484.00,3.4549
1483.00,3.4511
1482.00,3.4541
1481.00,3.4672
1480.00,3.4863
1479.00,3.5066
1478.00,3.5250
1477.00,3.5370
1476.00,3.5400
1475.00,3.5380
1474.00,3.5381
1473.00,3.5446
1472.00,3.5516
1471.00,3.5509
1470.00,3.5453
1469.00,3.5390
1468.00,3.5300
1467.00,3.5171
1466.00,3.5033
1465.00,3.4967
1464.00,3.5010
1463.00,3.5096
1462.00,3.5140
1461.00,3.5148
1460.00,3.5200
1459.00,3.5319
1458.00,3.5431
1457.00,3.5496
1456.00,3.5627
1455.00,3.5984
1454.00,3.6529
1453.00,3.7125
1452.00,3.7614
1451.00,3.7834
1450.00,3.7845
1449.00,3.7762
1448.00,3.7614
1447.00,3.7416
1446.00,3.7189
1445.00,3.6958
1444.00,3.6771
1443.00,3.6723
1442.00,3.6877
1441.00,3.7147
1440.00,3.7335
1439.00,3.7347
1438.00,3.7267
1437.00,3.7204
1436.00,3.7166
1435.00,3.7074
1434.00,3.6896
1433.00,3.6753
1432.00,3.6746
1431.00,3.6821
1430.00,3.6884
1429.00,3.6901
1428.00,3.6929
1427.00,3.7040
1426.00,3.7178
1425.00,3.7223
1424.00,3.7148
1423.00,3.7002
1422.00,3.6817
1421.00,3.6555
1420.00,3.6196
1419.00,3.5846
1418.00,3.5631
1417.00,3.5570
1416.00,3.5654
1415.00,3.5820
1414.00,3.5952
1413.00,3.5957
1412.00,3.5823
1411.00,3.5615
1410.00,3.5367
1409.00,3.5070
1408.00,3.4730
1407.00,3.4400
1406.00,3.4142
1405.00,3.3941
1404.00,3.3731
1403.00,3.3472
1402.00,3.3191
1401.00,3.2941
1400.00,3.2776
1399.00,3.2695
1398.00,3.2590
1397.00,3.2349
1396.00,3.2001
1395.00,3.1693
1394.00,3.1508
1393.00,3.1396
1392.00,3.1272
1391.00,3.1144
1390.00,3.1111
1389.00,3.1225
1388.00,3.1429
1387.00,3.1654
1386.00,3.1893
1385.00,3.2197
1384.00,3.2608
1383.00,3.3116
1382.00,3.3700
1381.00,3.4361
1380.00,3.5097
1379.00,3.5882
1378.00,3.6660
1377.00,3.7339
1376.00,3.7758
1375.00,3.7730
1374.00,3.7193
1373.00,3.6228
1372.00,3.5062
1371.00,3.3940
1370.00,3.2968
1369.00,3.2138
1368.00,3.1404
1367.00,3.0745
1366.00,3.0202
1365.00,2.9839
1364.00,2.9685
1363.00,2.9708
1362.00,2.9823
1361.00,2.9966
1360.00,3.0130
1359.00,3.0332
1358.00,3.0576
1357.00,3.0867
1356.00,3.1201
1355.00,3.1572
1354.00,3.1958
1353.00,3.2325
1352.00,3.2658
1351.00,3.2981
1350.00,3.3305
1349.00,3.3571
1348.00,3.3710
1347.00,3.3744
1346.00,3.3783
1345.00,3.3908
1344.00,3.4123
1343.00,3.4386
1342.00,3.4639
1341.00,3.4784
1340.00,3.4750
1339.00,3.4592
1338.00,3.4481
1337.00,3.4546
1336.00,3.4790
1335.00,3.5132
1334.00,3.5467
1333.00,3.5683
1332.00,3.5687
1331.00,3.5505
1330.00,3.5283
1329.00,3.5167
1328.00,3.5202
1327.00,3.5326
1326.00,3.5427
1325.00,3.5440
1324.00,3.5425
1323.00,3.5511
1322.00,3.5743
1321.00,3.5989
1320.00,3.6036
1319.00,3.5859
1318.00,3.5670
1317.00,3.5683
1316.00,3.5936
1315.00,3.6309
1314.00,3.6626
1313.00,3.6737
1312.00,3.6601
1311.00,3.6346
1310.00,3.6178
1309.00,3.6234
1308.00,3.6535
1307.00,3.7015
1306.00,3.7486
1305.00,3.7632
1304.00,3.7263
1303.00,3.6580
1302.00,3.5940
1301.00,3.5553
1300.00,3.5458
1299.00,3.5596
1298.00,3.5849
1297.00,3.6073
1296.00,3.6161
1295.00,3.6095
1294.00,3.5916
1293.00,3.5688
1292.00,3.5488
1291.00,3.5380
1290.00,3.5339
1289.00,3.5253
1288.00,3.5048
1287.00,3.4785
1286.00,3.4581
1285.00,3.4473
1284.00,3.4415
1283.00,3.4353
1282.00,3.4258
1281.00,3.4076
1280.00,3.3778
1279.00,3.3439
1278.00,3.3183
1277.00,3.3052
1276.00,3.2976
1275.00,3.2861
1274.00,3.2672
1273.00,3.2418
1272.00,3.2103
1271.00,3.1743
1270.00,3.1387
1269.00,3.1072
1268.00,3.0777
1267.00,3.0450
1266.00,3.0062
1265.00,2.9627
1264.00,2.9165
1263.00,2.8677
1262.00,2.8149
1261.00,2.7575
1260.00,2.6965
1259.00,2.6348
1258.00,2.5747
1257.00,2.5170
1256.00,2.4614
1255.00,2.4097
1254.00,2.3652
1253.00,2.3315
1252.00,2.3110
1251.00,2.3043
1250.00,2.3106
1249.00,2.3289
1248.00,2.3578
1247.00,2.3958
1246.00,2.4419
1245.00,2.4953
1244.00,2.5546
1243.00,2.6171
1242.00,2.6794
1241.00,2.7398
1240.00,2.7995
1239.00,2.8602
1238.00,2.9214
1237.00,2.9802
1236.00,3.0349
1235.00,3.0881
1234.00,3.1435
1233.00,3.2030
1232.00,3.2647
1231.00,3.3250
1230.00,3.3788
1229.00,3.4205
1228.00,3.4468
1227.00,3.4609
1226.00,3.4668
1225.00,3.4670
1224.00,3.4660
1223.00,3.4680
1222.00,3.4706
1221.00,3.4670
1220.00,3.4597
1219.00,3.4631
1218.00,3.4841
1217.00,3.5093
1216.00,3.5179
1215.00,3.5084
1214.00,3.5013
1213.00,3.5154
1212.00,3.5540
1211.00,3.6073
1210.00,3.6576
1209.00,3.6879
1208.00,3.6935
1207.00,3.6818
1206.00,3.6649
1205.00,3.6537
1204.00,3.6555
1203.00,3.6693
1202.00,3.6872
1201.00,3.7003
1200.00,3.7008
1199.00,3.6918
1198.00,3.6920
1197.00,3.7042
1196.00,3.7050
1195.00,3.6801
1194.00,3.6492
1193.00,3.6418
1192.00,3.6688
1191.00,3.7194
1190.00,3.7712
1189.00,3.8086
1188.00,3.8276
1187.00,3.8283
1186.00,3.8178
1185.00,3.8131
1184.00,3.8222
1183.00,3.8312
1182.00,3.8279
1181.00,3.8317
1180.00,3.8783
1179.00,3.9746
1178.00,4.0550
1177.00,4.0234
1176.00,3.9211
1175.00,3.8394
1174.00,3.7951
1173.00,3.7671
1172.00,3.7503
1171.00,3.7608
1170.00,3.7989
1169.00,3.8290
1168.00,3.8162
1167.00,3.7779
1166.00,3.7453
1165.00,3.7179
1164.00,3.6881
1163.00,3.6705
1162.00,3.6797
1161.00,3.6954
1160.00,3.6829
1159.00,3.6535
1158.00,3.6462
1157.00,3.6697
1156.00,3.6955
1155.00,3.6954
1154.00,3.6800
1153.00,3.6770
1152.00,3.6980
1151.00,3.7353
1150.00,3.7637
1149.00,3.7504
1148.00,3.6990
1147.00,3.6532
1146.00,3.6430
1145.00,3.6592
1144.00,3.6593
1143.00,3.6109
1142.00,3.5331
1141.00,3.4601
1140.00,3.4068
1139.00,3.3800
1138.00,3.3836
1137.00,3.4028
1136.00,3.4037
1135.00,3.3687
1134.00,3.3152
1133.00,3.2640
1132.00,3.2183
1131.00,3.1735
1130.00,3.1300
1129.00,3.0916
1128.00,3.0610
1127.00,3.0401
1126.00,3.0316
1125.00,3.0374
1124.00,3.0559
1123.00,3.0828
1122.00,3.1163
1121.00,3.1533
1120.00,3.1802
1119.00,3.1786
1118.00,3.1421
1117.00,3.0824
1116.00,3.0195
1115.00,2.9674
1114.00,2.9302
1113.00,2.9061
1112.00,2.8937
1111.00,2.8945
1110.00,2.9117
1109.00,2.9450
1108.00,2.9883
1107.00,3.0336
1106.00,3.0787
1105.00,3.1304
1104.00,3.1982
1103.00,3.2847
1102.00,3.3801
1101.00,3.4675
1100.00,3.5404
1099.00,3.6076
1098.00,3.6704
1097.00,3.7220
1096.00,3.7869
1095.00,3.8897
1094.00,4.0390
1093.00,4.2176
1092.00,4.2576
1091.00,4.1014
1090.00,3.9621
1089.00,3.9106
1088.00,3.9189
1087.00,3.9420
1086.00,3.9450
1085.00,3.9237
1084.00,3.9094
1083.00,3.8832
1082.00,3.8275
1081.00,3.7981
1080.00,3.8129
1079.00,3.8566
1078.00,3.8939
1077.00,3.9010
1076.00,3.8997
1075.00,3.9013
1074.00,3.8982
1073.00,3.8801
1072.00,3.8489
1071.00,3.8230
1070.00,3.8161
1069.00,3.8273
1068.00,3.8475
1067.00,3.8762
1066.00,3.9315
1065.00,4.0300
1064.00,4.1577
1063.00,4.2588
1062.00,4.2718
1061.00,4.1970
1060.00,4.0905
1059.00,4.0036
1058.00,3.9632
1057.00,3.9591
1056.00,3.9322
1055.00,3.8539
1054.00,3.7851
1053.00,3.7948
1052.00,3.9359
1051.00,4.2005
1050.00,4.1794
1049.00,4.1154
1048.00,4.2435
1047.00,4.5272
1046.00,4.4349
1045.00,4.2330
1044.00,4.1301
1043.00,4.0758
1042.00,4.0238
1041.00,3.9904
1040.00,3.9851
1039.00,3.9563
1038.00,3.9462
1037.00,3.9769
1036.00,3.9837
1035.00,4.0010
1034.00,4.0551
1033.00,4.1072
1032.00,4.1720
1031.00,4.2509
1030.00,4.2850
1029.00,4.2557
1028.00,4.2380
1027.00,4.3554
1026.00,4.9408
1025.00,4.6200
1024.00,4.3629
1023.00,4.3943
1022.00,4.5384
1021.00,4.6686
1020.00,4.7052
1019.00,4.3634
1018.00,4.1527
1017.00,4.0910
1016.00,4.0979
1015.00,4.0952
1014.00,4.0785
1013.00,4.0991
1012.00,4.1556
1011.00,4.1553
1010.00,4.0883
1009.00,4.0358
1008.00,4.0580
1007.00,4.1471
1006.00,4.2427
1005.00,4.3340
1004.00,4.3511
1003.00,4.2162
1002.00,4.0707
1001.00,4.0112
1000.00,3.9973
999.00,3.9301
998.00,3.8349
997.00,3.7881
996.00,3.8111
995.00,3.8867
994.00,3.9742
993.00,4.0466
992.00,4.0974
991.00,4.0997
990.00,4.0312
989.00,3.9200
988.00,3.8157
987.00,3.7482
986.00,3.7136
985.00,3.6962
984.00,3.6874
983.00,3.6823
982.00,3.6752
981.00,3.6682
980.00,3.6706
979.00,3.6848
978.00,3.6980
977.00,3.6835
976.00,3.6244
975.00,3.5450
974.00,3.4833
973.00,3.4555
972.00,3.4575
971.00,3.4829
970.00,3.5310
969.00,3.5952
968.00,3.6514
967.00,3.6837
966.00,3.7068
965.00,3.7337
964.00,3.7579
963.00,3.7714
962.00,3.7937
961.00,3.8625
960.00,4.0022
959.00,4.1726
958.00,4.2498
957.00,4.2176
956.00,4.1631
955.00,4.2127
954.00,4.4574
953.00,5.0698
952.00,4.8151
951.00,4.5479
950.00,4.4859
949.00,4.5273
948.00,4.6008
947.00,4.3906
946.00,4.1389
945.00,4.0218
944.00,3.9918
943.00,3.9961
942.00,4.0210
941.00,4.0910
940.00,4.2281
939.00,4.4850
938.00,4.5946
937.00,4.2347
936.00,4.1123
935.00,4.1689
934.00,4.3817
933.00,4.6387
932.00,4.7327
931.00,4.8180
930.00,4.9486
929.00,5.1422
928.00,4.4869
927.00,4.3297
926.00,4.5352
925.00,4.7332
924.00,4.2707
923.00,4.1940
922.00,4.3088
921.00,4.6209
920.00,5.0188
919.00,4.5845
918.00,4.2257
917.00,4.0357
916.00,3.9644
915.00,3.9729
914.00,4.0385
913.00,4.1158
912.00,4.1984
911.00,4.4245
910.00,4.4374
909.00,4.1963
908.00,4.1766
907.00,4.2244
906.00,4.1958
905.00,4.2081
904.00,4.3704
903.00,4.6666
902.00,4.6259
901.00,4.3280
900.00,4.2688
899.00,4.5325
898.00,4.3954
897.00,4.1363
896.00,4.0382
895.00,3.9866
894.00,3.9858
893.00,3.9922
892.00,3.9370
891.00,3.8893
890.00,3.9270
889.00,4.0833
888.00,4.3974
887.00,4.5887
886.00,4.2246
885.00,4.0678
884.00,4.0773
883.00,4.2973
882.00,4.9703
881.00,4.2678
880.00,4.0213
879.00,3.9432
878.00,3.9832
877.00,4.1471
876.00,4.3766
875.00,4.4672
874.00,4.1474
873.00,4.0031
872.00,4.0785
871.00,4.3350
870.00,4.5322
869.00,4.3984
868.00,4.1671
867.00,4.0352
866.00,4.0080
865.00,4.0366
864.00,4.0579
863.00,4.0763
862.00,4.2036
861.00,4.3029
860.00,4.0973
859.00,4.0008
858.00,4.0348
857.00,4.1001
856.00,4.1486
855.00,4.2329
854.00,4.3670
853.00,4.3389
852.00,4.2416
851.00,4.2429
850.00,4.2393
849.00,4.2200
848.00,4.3236
847.00,4.5824
846.00,4.5734
845.00,4.4404
844.00,4.4176
843.00,4.3894
842.00,4.4234
841.00,4.5711
840.00,4.5176
839.00,4.2238
838.00,4.0277
837.00,3.9693
836.00,4.0306
835.00,4.2077
834.00,4.2833
833.00,4.0831
832.00,3.9980
831.00,4.0719
830.00,4.2590
829.00,4.3269
828.00,4.2038
827.00,4.1736
826.00,4.3280
825.00,4.4674
824.00,4.3011
823.00,4.4589
822.00,4.8533
821.00,4.2651
820.00,4.2156
819.00,4.5827
818.00,4.3837
817.00,3.9741
816.00,3.8373
815.00,3.7961
814.00,3.7814
813.00,3.8054
812.00,3.8626
811.00,3.9351
810.00,4.0285
809.00,4.1755
808.00,4.3248
807.00,4.4271
806.00,4.6083
805.00,4.3334
804.00,4.0932
803.00,4.1022
802.00,4.3252
801.00,4.7172
800.00,4.7745
799.00,4.6690
798.00,4.4780
797.00,4.2565
796.00,4.1255
795.00,4.1045
794.00,4.2162
793.00,4.4639
792.00,4.4737
791.00,4.3208
790.00,4.5572
789.00,4.6281
788.00,4.1445
787.00,4.0554
786.00,4.2376
785.00,4.6158
784.00,4.5103
783.00,4.2524
782.00,4.1232
781.00,4.0758
780.00,4.1679
779.00,4.4052
778.00,4.2379
777.00,4.0168
776.00,3.9366
775.00,3.9179
774.00,3.9429
773.00,3.9938
772.00,4.0471
771.00,4.0476
770.00,4.0029
769.00,4.0090
768.00,4.0948
767.00,4.2072
766.00,4.2805
765.00,4.2966
764.00,4.2033
763.00,3.9822
762.00,3.7894
761.00,3.7079
760.00,3.7481
759.00,3.8527
758.00,3.8938
757.00,3.9412
756.00,4.1150
755.00,4.2899
754.00,4.3647
753.00,4.3540
752.00,4.2241
751.00,4.2590
750.00,4.4370
749.00,4.5309
748.00,4.5791
747.00,4.5828
746.00,4.4496
745.00,4.3650
744.00,4.3556
743.00,4.1653
742.00,3.9996
741.00,3.9691
740.00,3.9857
739.00,3.9751
738.00,3.9899
737.00,4.0835
736.00,4.3700
735.00,4.7958
734.00,4.5045
733.00,4.3563
732.00,4.5115
731.00,4.9265
730.00,4.3767
729.00,4.1113
728.00,4.0181
727.00,3.9532
726.00,3.9285
725.00,3.9536
724.00,4.1148
723.00,4.4173
722.00,4.2693
721.00,3.9852
720.00,3.8385
719.00,3.8133
718.00,3.9218
717.00,4.2288
716.00,4.6031
715.00,4.3470
714.00,4.2317
713.00,4.2293
712.00,4.1837
711.00,4.1210
710.00,4.0767
709.00,4.0085
708.00,3.9058
707.00,3.8460
706.00,3.8389
705.00,3.8490
704.00,3.8446
703.00,3.8326
702.00,3.8312
701.00,3.8410
700.00,3.8575
