Created as New Dataset,Sample 028 By Administrator Date Wednesday, November 24 2021
cm-1,A
7502.00,0.6474
7501.00,0.6550
7500.00,0.6627
7499.00,0.6705
7498.00,0.6785
7497.00,0.6867
7496.00,0.6950
7495.00,0.7035
7494.00,0.7121
7493.00,0.7211
7492.00,0.7302
7491.00,0.7394
7490.00,0.7490
7489.00,0.7588
7488.00,0.7682
7487.00,0.7766
7486.00,0.7840
7485.00,0.7908
7484.00,0.7974
7483.00,0.8041
7482.00,0.8109
7481.00,0.8180
7480.00,0.8254
7479.00,0.8329
7478.00,0.8400
7477.00,0.8460
7476.00,0.8510
7475.00,0.8561
7474.00,0.8616
7473.00,0.8671
7472.00,0.8715
7471.00,0.8749
7470.00,0.8781
7469.00,0.8815
7468.00,0.8847
7467.00,0.8871
7466.00,0.8891
7465.00,0.8912
7464.00,0.8930
7463.00,0.8945
7462.00,0.8953
7461.00,0.8957
7460.00,0.8957
7459.00,0.8956
7458.00,0.8956
7457.00,0.8957
7456.00,0.8951
7455.00,0.8935
7454.00,0.8915
7453.00,0.8894
7452.00,0.8872
7451.00,0.8843
7450.00,0.8807
7449.00,0.8770
7448.00,0.8736
7447.00,0.8702
7446.00,0.8668
7445.00,0.8630
7444.00,0.8588
7443.00,0.8544
7442.00,0.8497
7441.00,0.8445
7440.00,0.8387
7439.00,0.8321
7438.00,0.8248
7437.00,0.8171
7436.00,0.8093
7435.00,0.8015
7434.00,0.7940
7433.00,0.7869
7432.00,0.7801
7431.00,0.7732
7430.00,0.7664
7429.00,0.7594
7428.00,0.7522
7427.00,0.7443
7426.00,0.7361
7425.00,0.7277
7424.00,0.7192
7423.00,0.7103
7422.00,0.7013
7421.00,0.6927
7420.00,0.6848
7419.00,0.6773
7418.00,0.6700
7417.00,0.6631
7416.00,0.6566
7415.00,0.6504
7414.00,0.6443
7413.00,0.6385
7412.00,0.6327
7411.00,0.6267
7410.00,0.6205
7409.00,0.6145
7408.00,0.6091
7407.00,0.6041
7406.00,0.5993
7405.00,0.5948
7404.00,0.5908
7403.00,0.5876
7402.00,0.5853
7401.00,0.5835
7400.00,0.5821
7399.00,0.5810
7398.00,0.5804
7397.00,0.5801
7396.00,0.5798
7395.00,0.5796
7394.00,0.5797
7393.00,0.5806
7392.00,0.5822
7391.00,0.5845
7390.00,0.5873
7389.00,0.5909
7388.00,0.5950
7387.00,0.5994
7386.00,0.6039
7385.00,0.6085
7384.00,0.6131
7383.00,0.6180
7382.00,0.6235
7381.00,0.6296
7380.00,0.6363
7379.00,0.6436
7378.00,0.6514
7377.00,0.6594
7376.00,0.6676
7375.00,0.6758
7374.00,0.6839
7373.00,0.6921
7372.00,0.7005
7371.00,0.7091
7370.00,0.7180
7369.00,0.7273
7368.00,0.7368
7367.00,0.7465
7366.00,0.7560
7365.00,0.7651
7364.00,0.7737
7363.00,0.7820
7362.00,0.7902
7361.00,0.7989
7360.00,0.8079
7359.00,0.8169
7358.00,0.8255
7357.00,0.8338
7356.00,0.8419
7355.00,0.8504
7354.00,0.8593
7353.00,0.8682
7352.00,0.8766
7351.00,0.8845
7350.00,0.8926
7349.00,0.9007
7348.00,0.9082
7347.00,0.9142
7346.00,0.9188
7345.00,0.9230
7344.00,0.9279
7343.00,0.9335
7342.00,0.9395
7341.00,0.9454
7340.00,0.9512
7339.00,0.9568
7338.00,0.9621
7337.00,0.9665
7336.00,0.9700
7335.00,0.9725
7334.00,0.9745
7333.00,0.9760
7332.00,0.9771
7331.00,0.9780
7330.00,0.9793
7329.00,0.9812
7328.00,0.9829
7327.00,0.9839
7326.00,0.9844
7325.00,0.9849
7324.00,0.9851
7323.00,0.9843
7322.00,0.9826
7321.00,0.9809
7320.00,0.9799
7319.00,0.9790
7318.00,0.9776
7317.00,0.9756
7316.00,0.9734
7315.00,0.9712
7314.00,0.9689
7313.00,0.9662
7312.00,0.9628
7311.00,0.9587
7310.00,0.9541
7309.00,0.9494
7308.00,0.9445
7307.00,0.9394
7306.00,0.9340
7305.00,0.9287
7304.00,0.9237
7303.00,0.9190
7302.00,0.9144
7301.00,0.9095
7300.00,0.9043
7299.00,0.8985
7298.00,0.8922
7297.00,0.8853
7296.00,0.8780
7295.00,0.8704
7294.00,0.8626
7293.00,0.8542
7292.00,0.8452
7291.00,0.8359
7290.00,0.8266
7289.00,0.8179
7288.00,0.8095
7287.00,0.8014
7286.00,0.7934
7285.00,0.7858
7284.00,0.7783
7283.00,0.7707
7282.00,0.7631
7281.00,0.7557
7280.00,0.7487
7279.00,0.7417
7278.00,0.7348
7277.00,0.7280
7276.00,0.7216
7275.00,0.7156
7274.00,0.7097
7273.00,0.7035
7272.00,0.6973
7271.00,0.6913
7270.00,0.6859
7269.00,0.6808
7268.00,0.6759
7267.00,0.6711
7266.00,0.6667
7265.00,0.6630
7264.00,0.6599
7263.00,0.6571
7262.00,0.6548
7261.00,0.6530
7260.00,0.6519
7259.00,0.6512
7258.00,0.6506
7257.00,0.6503
7256.00,0.6502
7255.00,0.6505
7254.00,0.6511
7253.00,0.6522
7252.00,0.6538
7251.00,0.6560
7250.00,0.6587
7249.00,0.6620
7248.00,0.6659
7247.00,0.6703
7246.00,0.6750
7245.00,0.6800
7244.00,0.6853
7243.00,0.6912
7242.00,0.6980
7241.00,0.7054
7240.00,0.7128
7239.00,0.7200
7238.00,0.7272
7237.00,0.7350
7236.00,0.7428
7235.00,0.7504
7234.00,0.7578
7233.00,0.7654
7232.00,0.7737
7231.00,0.7827
7230.00,0.7919
7229.00,0.8012
7228.00,0.8105
7227.00,0.8200
7226.00,0.8297
7225.00,0.8395
7224.00,0.8490
7223.00,0.8583
7222.00,0.8673
7221.00,0.8765
7220.00,0.8857
7219.00,0.8949
7218.00,0.9040
7217.00,0.9129
7216.00,0.9216
7215.00,0.9301
7214.00,0.9384
7213.00,0.9464
7212.00,0.9541
7211.00,0.9618
7210.00,0.9695
7209.00,0.9773
7208.00,0.9850
7207.00,0.9926
7206.00,1.0002
7205.00,1.0075
7204.00,1.0142
7203.00,1.0201
7202.00,1.0253
7201.00,1.0303
7200.00,1.0352
7199.00,1.0403
7198.00,1.0456
7197.00,1.0510
7196.00,1.0562
7195.00,1.0609
7194.00,1.0651
7193.00,1.0686
7192.00,1.0711
7191.00,1.0729
7190.00,1.0746
7189.00,1.0770
7188.00,1.0799
7187.00,1.0827
7186.00,1.0848
7185.00,1.0862
7184.00,1.0868
7183.00,1.0865
7182.00,1.0855
7181.00,1.0841
7180.00,1.0828
7179.00,1.0819
7178.00,1.0811
7177.00,1.0802
7176.00,1.0787
7175.00,1.0763
7174.00,1.0732
7173.00,1.0697
7172.00,1.0659
7171.00,1.0618
7170.00,1.0573
7169.00,1.0526
7168.00,1.0477
7167.00,1.0428
7166.00,1.0376
7165.00,1.0323
7164.00,1.0265
7163.00,1.0200
7162.00,1.0128
7161.00,1.0052
7160.00,0.9974
7159.00,0.9895
7158.00,0.9817
7157.00,0.9741
7156.00,0.9670
7155.00,0.9598
7154.00,0.9524
7153.00,0.9446
7152.00,0.9362
7151.00,0.9274
7150.00,0.9184
7149.00,0.9096
7148.00,0.9012
7147.00,0.8932
7146.00,0.8850
7145.00,0.8764
7144.00,0.8674
7143.00,0.8583
7142.00,0.8494
7141.00,0.8407
7140.00,0.8319
7139.00,0.8233
7138.00,0.8149
7137.00,0.8070
7136.00,0.7993
7135.00,0.7916
7134.00,0.7839
7133.00,0.7765
7132.00,0.7694
7131.00,0.7626
7130.00,0.7560
7129.00,0.7499
7128.00,0.7443
7127.00,0.7389
7126.00,0.7338
7125.00,0.7291
7124.00,0.7251
7123.00,0.7217
7122.00,0.7189
7121.00,0.7164
7120.00,0.7143
7119.00,0.7128
7118.00,0.7120
7117.00,0.7116
7116.00,0.7113
7115.00,0.7113
7114.00,0.7119
7113.00,0.7133
7112.00,0.7154
7111.00,0.7179
7110.00,0.7208
7109.00,0.7240
7108.00,0.7278
7107.00,0.7322
7106.00,0.7372
7105.00,0.7425
7104.00,0.7478
7103.00,0.7534
7102.00,0.7597
7101.00,0.7668
7100.00,0.7742
7099.00,0.7815
7098.00,0.7887
7097.00,0.7961
7096.00,0.8042
7095.00,0.8127
7094.00,0.8212
7093.00,0.8297
7092.00,0.8383
7091.00,0.8472
7090.00,0.8565
7089.00,0.8658
7088.00,0.8749
7087.00,0.8836
7086.00,0.8923
7085.00,0.9011
7084.00,0.9103
7083.00,0.9193
7082.00,0.9281
7081.00,0.9368
7080.00,0.9456
7079.00,0.9545
7078.00,0.9634
7077.00,0.9720
7076.00,0.9803
7075.00,0.9886
7074.00,0.9970
7073.00,1.0056
7072.00,1.0137
7071.00,1.0213
7070.00,1.0287
7069.00,1.0359
7068.00,1.0430
7067.00,1.0495
7066.00,1.0554
7065.00,1.0610
7064.00,1.0665
7063.00,1.0718
7062.00,1.0770
7061.00,1.0823
7060.00,1.0875
7059.00,1.0922
7058.00,1.0963
7057.00,1.0999
7056.00,1.1028
7055.00,1.1052
7054.00,1.1073
7053.00,1.1092
7052.00,1.1112
7051.00,1.1132
7050.00,1.1153
7049.00,1.1175
7048.00,1.1192
7047.00,1.1201
7046.00,1.1203
7045.00,1.1199
7044.00,1.1191
7043.00,1.1178
7042.00,1.1161
7041.00,1.1140
7040.00,1.1114
7039.00,1.1084
7038.00,1.1051
7037.00,1.1016
7036.00,1.0978
7035.00,1.0937
7034.00,1.0894
7033.00,1.0852
7032.00,1.0812
7031.00,1.0768
7030.00,1.0720
7029.00,1.0667
7028.00,1.0613
7027.00,1.0556
7026.00,1.0494
7025.00,1.0427
7024.00,1.0356
7023.00,1.0279
7022.00,1.0198
7021.00,1.0115
7020.00,1.0030
7019.00,0.9946
7018.00,0.9861
7017.00,0.9777
7016.00,0.9692
7015.00,0.9607
7014.00,0.9521
7013.00,0.9434
7012.00,0.9345
7011.00,0.9254
7010.00,0.9162
7009.00,0.9070
7008.00,0.8979
7007.00,0.8887
7006.00,0.8794
7005.00,0.8701
7004.00,0.8609
7003.00,0.8519
7002.00,0.8431
7001.00,0.8344
7000.00,0.8259
6999.00,0.8178
6998.00,0.8099
6997.00,0.8022
6996.00,0.7946
6995.00,0.7873
6994.00,0.7802
6993.00,0.7733
6992.00,0.7665
6991.00,0.7598
6990.00,0.7537
6989.00,0.7481
6988.00,0.7430
6987.00,0.7381
6986.00,0.7336
6985.00,0.7298
6984.00,0.7266
6983.00,0.7238
6982.00,0.7215
6981.00,0.7196
6980.00,0.7182
6979.00,0.7173
6978.00,0.7168
6977.00,0.7167
6976.00,0.7170
6975.00,0.7178
6974.00,0.7191
6973.00,0.7210
6972.00,0.7233
6971.00,0.7262
6970.00,0.7298
6969.00,0.7340
6968.00,0.7386
6967.00,0.7434
6966.00,0.7485
6965.00,0.7540
6964.00,0.7601
6963.00,0.7665
6962.00,0.7733
6961.00,0.7802
6960.00,0.7873
6959.00,0.7946
6958.00,0.8024
6957.00,0.8107
6956.00,0.8194
6955.00,0.8281
6954.00,0.8371
6953.00,0.8465
6952.00,0.8562
6951.00,0.8659
6950.00,0.8752
6949.00,0.8842
6948.00,0.8930
6947.00,0.9020
6946.00,0.9111
6945.00,0.9204
6944.00,0.9299
6943.00,0.9398
6942.00,0.9499
6941.00,0.9599
6940.00,0.9698
6939.00,0.9794
6938.00,0.9887
6937.00,0.9977
6936.00,1.0061
6935.00,1.0141
6934.00,1.0219
6933.00,1.0299
6932.00,1.0382
6931.00,1.0465
6930.00,1.0548
6929.00,1.0628
6928.00,1.0705
6927.00,1.0776
6926.00,1.0843
6925.00,1.0908
6924.00,1.0970
6923.00,1.1029
6922.00,1.1087
6921.00,1.1146
6920.00,1.1204
6919.00,1.1258
6918.00,1.1307
6917.00,1.1351
6916.00,1.1388
6915.00,1.1420
6914.00,1.1449
6913.00,1.1476
6912.00,1.1501
6911.00,1.1522
6910.00,1.1540
6909.00,1.1557
6908.00,1.1571
6907.00,1.1580
6906.00,1.1587
6905.00,1.1594
6904.00,1.1599
6903.00,1.1600
6902.00,1.1595
6901.00,1.1586
6900.00,1.1572
6899.00,1.1550
6898.00,1.1522
6897.00,1.1490
6896.00,1.1458
6895.00,1.1425
6894.00,1.1391
6893.00,1.1356
6892.00,1.1317
6891.00,1.1275
6890.00,1.1228
6889.00,1.1177
6888.00,1.1119
6887.00,1.1059
6886.00,1.1002
6885.00,1.0949
6884.00,1.0894
6883.00,1.0831
6882.00,1.0761
6881.00,1.0689
6880.00,1.0615
6879.00,1.0536
6878.00,1.0451
6877.00,1.0363
6876.00,1.0275
6875.00,1.0186
6874.00,1.0095
6873.00,1.0002
6872.00,0.9909
6871.00,0.9817
6870.00,0.9724
6869.00,0.9630
6868.00,0.9535
6867.00,0.9440
6866.00,0.9345
6865.00,0.9250
6864.00,0.9153
6863.00,0.9056
6862.00,0.8960
6861.00,0.8868
6860.00,0.8776
6859.00,0.8686
6858.00,0.8597
6857.00,0.8511
6856.00,0.8427
6855.00,0.8344
6854.00,0.8263
6853.00,0.8186
6852.00,0.8111
6851.00,0.8040
6850.00,0.7973
6849.00,0.7913
6848.00,0.7858
6847.00,0.7806
6846.00,0.7757
6845.00,0.7711
6844.00,0.7670
6843.00,0.7633
6842.00,0.7602
6841.00,0.7576
6840.00,0.7556
6839.00,0.7541
6838.00,0.7531
6837.00,0.7528
6836.00,0.7529
6835.00,0.7533
6834.00,0.7541
6833.00,0.7556
6832.00,0.7579
6831.00,0.7608
6830.00,0.7642
6829.00,0.7682
6828.00,0.7727
6827.00,0.7777
6826.00,0.7831
6825.00,0.7889
6824.00,0.7951
6823.00,0.8016
6822.00,0.8084
6821.00,0.8156
6820.00,0.8231
6819.00,0.8308
6818.00,0.8386
6817.00,0.8467
6816.00,0.8553
6815.00,0.8642
6814.00,0.8731
6813.00,0.8821
6812.00,0.8913
6811.00,0.9007
6810.00,0.9102
6809.00,0.9196
6808.00,0.9289
6807.00,0.9384
6806.00,0.9482
6805.00,0.9580
6804.00,0.9677
6803.00,0.9770
6802.00,0.9860
6801.00,0.9951
6800.00,1.0042
6799.00,1.0134
6798.00,1.0224
6797.00,1.0310
6796.00,1.0393
6795.00,1.0475
6794.00,1.0554
6793.00,1.0631
6792.00,1.0707
6791.00,1.0783
6790.00,1.0859
6789.00,1.0934
6788.00,1.1006
6787.00,1.1071
6786.00,1.1130
6785.00,1.1183
6784.00,1.1233
6783.00,1.1279
6782.00,1.1324
6781.00,1.1370
6780.00,1.1415
6779.00,1.1459
6778.00,1.1498
6777.00,1.1532
6776.00,1.1559
6775.00,1.1581
6774.00,1.1600
6773.00,1.1616
6772.00,1.1631
6771.00,1.1642
6770.00,1.1650
6769.00,1.1659
6768.00,1.1669
6767.00,1.1679
6766.00,1.1684
6765.00,1.1680
6764.00,1.1666
6763.00,1.1643
6762.00,1.1616
6761.00,1.1584
6760.00,1.1551
6759.00,1.1516
6758.00,1.1481
6757.00,1.1447
6756.00,1.1410
6755.00,1.1368
6754.00,1.1319
6753.00,1.1265
6752.00,1.1206
6751.00,1.1146
6750.00,1.1087
6749.00,1.1028
6748.00,1.0966
6747.00,1.0901
6746.00,1.0830
6745.00,1.0755
6744.00,1.0676
6743.00,1.0593
6742.00,1.0506
6741.00,1.0418
6740.00,1.0331
6739.00,1.0245
6738.00,1.0158
6737.00,1.0071
6736.00,0.9981
6735.00,0.9889
6734.00,0.9794
6733.00,0.9696
6732.00,0.9596
6731.00,0.9496
6730.00,0.9397
6729.00,0.9300
6728.00,0.9204
6727.00,0.9107
6726.00,0.9009
6725.00,0.8912
6724.00,0.8816
6723.00,0.8723
6722.00,0.8632
6721.00,0.8544
6720.00,0.8459
6719.00,0.8376
6718.00,0.8294
6717.00,0.8212
6716.00,0.8133
6715.00,0.8056
6714.00,0.7984
6713.00,0.7917
6712.00,0.7852
6711.00,0.7791
6710.00,0.7734
6709.00,0.7682
6708.00,0.7633
6707.00,0.7587
6706.00,0.7545
6705.00,0.7509
6704.00,0.7477
6703.00,0.7449
6702.00,0.7424
6701.00,0.7406
6700.00,0.7393
6699.00,0.7386
6698.00,0.7383
6697.00,0.7386
6696.00,0.7393
6695.00,0.7406
6694.00,0.7424
6693.00,0.7447
6692.00,0.7476
6691.00,0.7511
6690.00,0.7552
6689.00,0.7598
6688.00,0.7649
6687.00,0.7704
6686.00,0.7762
6685.00,0.7824
6684.00,0.7892
6683.00,0.7964
6682.00,0.8039
6681.00,0.8115
6680.00,0.8193
6679.00,0.8275
6678.00,0.8359
6677.00,0.8446
6676.00,0.8535
6675.00,0.8628
6674.00,0.8724
6673.00,0.8822
6672.00,0.8920
6671.00,0.9019
6670.00,0.9117
6669.00,0.9216
6668.00,0.9316
6667.00,0.9417
6666.00,0.9518
6665.00,0.9618
6664.00,0.9716
6663.00,0.9814
6662.00,0.9913
6661.00,1.0011
6660.00,1.0107
6659.00,1.0202
6658.00,1.0297
6657.00,1.0391
6656.00,1.0483
6655.00,1.0570
6654.00,1.0655
6653.00,1.0737
6652.00,1.0817
6651.00,1.0896
6650.00,1.0973
6649.00,1.1047
6648.00,1.1122
6647.00,1.1197
6646.00,1.1270
6645.00,1.1337
6644.00,1.1396
6643.00,1.1452
6642.00,1.1507
6641.00,1.1559
6640.00,1.1606
6639.00,1.1650
6638.00,1.1693
6637.00,1.1734
6636.00,1.1769
6635.00,1.1797
6634.00,1.1822
6633.00,1.1849
6632.00,1.1874
6631.00,1.1895
6630.00,1.1913
6629.00,1.1928
6628.00,1.1938
6627.00,1.1941
6626.00,1.1939
6625.00,1.1936
6624.00,1.1933
6623.00,1.1926
6622.00,1.1915
6621.00,1.1898
6620.00,1.1875
6619.00,1.1848
6618.00,1.1820
6617.00,1.1788
6616.00,1.1754
6615.00,1.1717
6614.00,1.1682
6613.00,1.1646
6612.00,1.1607
6611.00,1.1559
6610.00,1.1503
6609.00,1.1443
6608.00,1.1379
6607.00,1.1311
6606.00,1.1240
6605.00,1.1167
6604.00,1.1093
6603.00,1.1017
6602.00,1.0939
6601.00,1.0860
6600.00,1.0777
6599.00,1.0691
6598.00,1.0601
6597.00,1.0511
6596.00,1.0420
6595.00,1.0325
6594.00,1.0226
6593.00,1.0126
6592.00,1.0027
6591.00,0.9928
6590.00,0.9828
6589.00,0.9726
6588.00,0.9623
6587.00,0.9519
6586.00,0.9415
6585.00,0.9311
6584.00,0.9209
6583.00,0.9109
6582.00,0.9010
6581.00,0.8911
6580.00,0.8815
6579.00,0.8720
6578.00,0.8628
6577.00,0.8536
6576.00,0.8445
6575.00,0.8356
6574.00,0.8272
6573.00,0.8193
6572.00,0.8118
6571.00,0.8045
6570.00,0.7978
6569.00,0.7915
6568.00,0.7858
6567.00,0.7804
6566.00,0.7754
6565.00,0.7709
6564.00,0.7670
6563.00,0.7636
6562.00,0.7608
6561.00,0.7585
6560.00,0.7567
6559.00,0.7554
6558.00,0.7547
6557.00,0.7547
6556.00,0.7553
6555.00,0.7563
6554.00,0.7580
6553.00,0.7603
6552.00,0.7635
6551.00,0.7671
6550.00,0.7712
6549.00,0.7757
6548.00,0.7808
6547.00,0.7863
6546.00,0.7923
6545.00,0.7988
6544.00,0.8056
6543.00,0.8129
6542.00,0.8206
6541.00,0.8285
6540.00,0.8368
6539.00,0.8453
6538.00,0.8539
6537.00,0.8628
6536.00,0.8719
6535.00,0.8815
6534.00,0.8913
6533.00,0.9014
6532.00,0.9114
6531.00,0.9214
6530.00,0.9315
6529.00,0.9416
6528.00,0.9516
6527.00,0.9614
6526.00,0.9710
6525.00,0.9804
6524.00,0.9898
6523.00,0.9993
6522.00,1.0090
6521.00,1.0186
6520.00,1.0281
6519.00,1.0373
6518.00,1.0465
6517.00,1.0555
6516.00,1.0642
6515.00,1.0726
6514.00,1.0807
6513.00,1.0889
6512.00,1.0971
6511.00,1.1051
6510.00,1.1127
6509.00,1.1199
6508.00,1.1266
6507.00,1.1329
6506.00,1.1389
6505.00,1.1446
6504.00,1.1501
6503.00,1.1552
6502.00,1.1599
6501.00,1.1640
6500.00,1.1676
6499.00,1.1709
6498.00,1.1739
6497.00,1.1766
6496.00,1.1791
6495.00,1.1815
6494.00,1.1836
6493.00,1.1853
6492.00,1.1862
6491.00,1.1865
6490.00,1.1867
6489.00,1.1869
6488.00,1.1872
6487.00,1.1871
6486.00,1.1865
6485.00,1.1853
6484.00,1.1835
6483.00,1.1811
6482.00,1.1783
6481.00,1.1751
6480.00,1.1717
6479.00,1.1683
6478.00,1.1647
6477.00,1.1609
6476.00,1.1567
6475.00,1.1520
6474.00,1.1467
6473.00,1.1409
6472.00,1.1345
6471.00,1.1278
6470.00,1.1210
6469.00,1.1140
6468.00,1.1067
6467.00,1.0994
6466.00,1.0923
6465.00,1.0849
6464.00,1.0767
6463.00,1.0678
6462.00,1.0588
6461.00,1.0499
6460.00,1.0411
6459.00,1.0318
6458.00,1.0223
6457.00,1.0126
6456.00,1.0029
6455.00,0.9930
6454.00,0.9830
6453.00,0.9731
6452.00,0.9632
6451.00,0.9533
6450.00,0.9434
6449.00,0.9335
6448.00,0.9233
6447.00,0.9130
6446.00,0.9030
6445.00,0.8934
6444.00,0.8840
6443.00,0.8745
6442.00,0.8649
6441.00,0.8554
6440.00,0.8461
6439.00,0.8368
6438.00,0.8277
6437.00,0.8191
6436.00,0.8111
6435.00,0.8036
6434.00,0.7963
6433.00,0.7893
6432.00,0.7823
6431.00,0.7756
6430.00,0.7694
6429.00,0.7637
6428.00,0.7585
6427.00,0.7539
6426.00,0.7497
6425.00,0.7460
6424.00,0.7428
6423.00,0.7399
6422.00,0.7375
6421.00,0.7357
6420.00,0.7345
6419.00,0.7340
6418.00,0.7341
6417.00,0.7347
6416.00,0.7360
6415.00,0.7377
6414.00,0.7401
6413.00,0.7432
6412.00,0.7469
6411.00,0.7513
6410.00,0.7561
6409.00,0.7615
6408.00,0.7672
6407.00,0.7733
6406.00,0.7798
6405.00,0.7868
6404.00,0.7942
6403.00,0.8019
6402.00,0.8100
6401.00,0.8185
6400.00,0.8274
6399.00,0.8365
6398.00,0.8458
6397.00,0.8555
6396.00,0.8653
6395.00,0.8752
6394.00,0.8851
6393.00,0.8951
6392.00,0.9051
6391.00,0.9152
6390.00,0.9254
6389.00,0.9358
6388.00,0.9466
6387.00,0.9575
6386.00,0.9683
6385.00,0.9790
6384.00,0.9896
6383.00,1.0001
6382.00,1.0103
6381.00,1.0201
6380.00,1.0295
6379.00,1.0387
6378.00,1.0478
6377.00,1.0569
6376.00,1.0662
6375.00,1.0755
6374.00,1.0846
6373.00,1.0933
6372.00,1.1018
6371.00,1.1099
6370.00,1.1176
6369.00,1.1249
6368.00,1.1318
6367.00,1.1385
6366.00,1.1449
6365.00,1.1508
6364.00,1.1564
6363.00,1.1619
6362.00,1.1675
6361.00,1.1728
6360.00,1.1775
6359.00,1.1815
6358.00,1.1851
6357.00,1.1885
6356.00,1.1916
6355.00,1.1946
6354.00,1.1974
6353.00,1.2000
6352.00,1.2021
6351.00,1.2032
6350.00,1.2036
6349.00,1.2036
6348.00,1.2037
6347.00,1.2039
6346.00,1.2038
6345.00,1.2033
6344.00,1.2023
6343.00,1.2007
6342.00,1.1985
6341.00,1.1960
6340.00,1.1932
6339.00,1.1903
6338.00,1.1871
6337.00,1.1836
6336.00,1.1795
6335.00,1.1750
6334.00,1.1703
6333.00,1.1656
6332.00,1.1605
6331.00,1.1550
6330.00,1.1489
6329.00,1.1424
6328.00,1.1356
6327.00,1.1282
6326.00,1.1202
6325.00,1.1119
6324.00,1.1035
6323.00,1.0952
6322.00,1.0868
6321.00,1.0782
6320.00,1.0692
6319.00,1.0597
6318.00,1.0499
6317.00,1.0398
6316.00,1.0295
6315.00,1.0188
6314.00,1.0080
6313.00,0.9972
6312.00,0.9866
6311.00,0.9759
6310.00,0.9650
6309.00,0.9539
6308.00,0.9429
6307.00,0.9320
6306.00,0.9212
6305.00,0.9105
6304.00,0.8996
6303.00,0.8888
6302.00,0.8780
6301.00,0.8673
6300.00,0.8568
6299.00,0.8464
6298.00,0.8363
6297.00,0.8266
6296.00,0.8174
6295.00,0.8086
6294.00,0.8001
6293.00,0.7919
6292.00,0.7841
6291.00,0.7767
6290.00,0.7697
6289.00,0.7633
6288.00,0.7573
6287.00,0.7520
6286.00,0.7473
6285.00,0.7434
6284.00,0.7401
6283.00,0.7373
6282.00,0.7350
6281.00,0.7332
6280.00,0.7320
6279.00,0.7312
6278.00,0.7312
6277.00,0.7319
6276.00,0.7334
6275.00,0.7356
6274.00,0.7384
6273.00,0.7417
6272.00,0.7456
6271.00,0.7499
6270.00,0.7549
6269.00,0.7605
6268.00,0.7666
6267.00,0.7732
6266.00,0.7803
6265.00,0.7877
6264.00,0.7954
6263.00,0.8036
6262.00,0.8122
6261.00,0.8212
6260.00,0.8305
6259.00,0.8400
6258.00,0.8497
6257.00,0.8596
6256.00,0.8695
6255.00,0.8795
6254.00,0.8898
6253.00,0.9004
6252.00,0.9112
6251.00,0.9218
6250.00,0.9323
6249.00,0.9425
6248.00,0.9527
6247.00,0.9630
6246.00,0.9734
6245.00,0.9839
6244.00,0.9944
6243.00,1.0047
6242.00,1.0149
6241.00,1.0248
6240.00,1.0344
6239.00,1.0436
6238.00,1.0527
6237.00,1.0619
6236.00,1.0709
6235.00,1.0797
6234.00,1.0880
6233.00,1.0958
6232.00,1.1033
6231.00,1.1107
6230.00,1.1181
6229.00,1.1254
6228.00,1.1325
6227.00,1.1392
6226.00,1.1452
6225.00,1.1506
6224.00,1.1554
6223.00,1.1598
6222.00,1.1638
6221.00,1.1680
6220.00,1.1722
6219.00,1.1761
6218.00,1.1794
6217.00,1.1820
6216.00,1.1841
6215.00,1.1856
6214.00,1.1867
6213.00,1.1874
6212.00,1.1881
6211.00,1.1887
6210.00,1.1891
6209.00,1.1889
6208.00,1.1881
6207.00,1.1870
6206.00,1.1856
6205.00,1.1839
6204.00,1.1819
6203.00,1.1797
6202.00,1.1774
6201.00,1.1749
6200.00,1.1720
6199.00,1.1685
6198.00,1.1644
6197.00,1.1596
6196.00,1.1544
6195.00,1.1488
6194.00,1.1428
6193.00,1.1368
6192.00,1.1305
6191.00,1.1238
6190.00,1.1168
6189.00,1.1095
6188.00,1.1019
6187.00,1.0941
6186.00,1.0860
6185.00,1.0777
6184.00,1.0692
6183.00,1.0604
6182.00,1.0513
6181.00,1.0417
6180.00,1.0318
6179.00,1.0217
6178.00,1.0115
6177.00,1.0013
6176.00,0.9909
6175.00,0.9804
6174.00,0.9699
6173.00,0.9594
6172.00,0.9489
6171.00,0.9385
6170.00,0.9280
6169.00,0.9175
6168.00,0.9067
6167.00,0.8957
6166.00,0.8848
6165.00,0.8738
6164.00,0.8630
6163.00,0.8522
6162.00,0.8417
6161.00,0.8315
6160.00,0.8216
6159.00,0.8117
6158.00,0.8020
6157.00,0.7928
6156.00,0.7841
6155.00,0.7758
6154.00,0.7678
6153.00,0.7601
6152.00,0.7527
6151.00,0.7456
6150.00,0.7389
6149.00,0.7326
6148.00,0.7270
6147.00,0.7219
6146.00,0.7176
6145.00,0.7141
6144.00,0.7110
6143.00,0.7086
6142.00,0.7068
6141.00,0.7057
6140.00,0.7052
6139.00,0.7053
6138.00,0.7059
6137.00,0.7072
6136.00,0.7092
6135.00,0.7119
6134.00,0.7154
6133.00,0.7196
6132.00,0.7243
6131.00,0.7297
6130.00,0.7356
6129.00,0.7420
6128.00,0.7487
6127.00,0.7559
6126.00,0.7635
6125.00,0.7716
6124.00,0.7802
6123.00,0.7891
6122.00,0.7983
6121.00,0.8078
6120.00,0.8175
6119.00,0.8275
6118.00,0.8376
6117.00,0.8480
6116.00,0.8586
6115.00,0.8695
6114.00,0.8807
6113.00,0.8921
6112.00,0.9034
6111.00,0.9146
6110.00,0.9257
6109.00,0.9366
6108.00,0.9475
6107.00,0.9584
6106.00,0.9692
6105.00,0.9800
6104.00,0.9908
6103.00,1.0017
6102.00,1.0126
6101.00,1.0232
6100.00,1.0334
6099.00,1.0433
6098.00,1.0532
6097.00,1.0629
6096.00,1.0723
6095.00,1.0812
6094.00,1.0900
6093.00,1.0987
6092.00,1.1071
6091.00,1.1149
6090.00,1.1223
6089.00,1.1294
6088.00,1.1362
6087.00,1.1427
6086.00,1.1489
6085.00,1.1547
6084.00,1.1602
6083.00,1.1654
6082.00,1.1703
6081.00,1.1749
6080.00,1.1791
6079.00,1.1828
6078.00,1.1861
6077.00,1.1892
6076.00,1.1921
6075.00,1.1945
6074.00,1.1964
6073.00,1.1981
6072.00,1.1996
6071.00,1.2007
6070.00,1.2013
6069.00,1.2016
6068.00,1.2017
6067.00,1.2015
6066.00,1.2009
6065.00,1.1996
6064.00,1.1976
6063.00,1.1951
6062.00,1.1924
6061.00,1.1897
6060.00,1.1869
6059.00,1.1836
6058.00,1.1798
6057.00,1.1757
6056.00,1.1709
6055.00,1.1656
6054.00,1.1597
6053.00,1.1537
6052.00,1.1478
6051.00,1.1417
6050.00,1.1353
6049.00,1.1283
6048.00,1.1208
6047.00,1.1125
6046.00,1.1038
6045.00,1.0947
6044.00,1.0855
6043.00,1.0762
6042.00,1.0669
6041.00,1.0576
6040.00,1.0480
6039.00,1.0380
6038.00,1.0276
6037.00,1.0167
6036.00,1.0055
6035.00,0.9939
6034.00,0.9822
6033.00,0.9706
6032.00,0.9592
6031.00,0.9477
6030.00,0.9361
6029.00,0.9244
6028.00,0.9128
6027.00,0.9011
6026.00,0.8893
6025.00,0.8775
6024.00,0.8657
6023.00,0.8540
6022.00,0.8424
6021.00,0.8311
6020.00,0.8201
6019.00,0.8094
6018.00,0.7991
6017.00,0.7893
6016.00,0.7799
6015.00,0.7707
6014.00,0.7619
6013.00,0.7536
6012.00,0.7458
6011.00,0.7385
6010.00,0.7319
6009.00,0.7259
6008.00,0.7206
6007.00,0.7158
6006.00,0.7116
6005.00,0.7080
6004.00,0.7050
6003.00,0.7026
6002.00,0.7009
6001.00,0.7001
6000.00,0.7000
5999.00,0.7005
5998.00,0.7017
5997.00,0.7036
5996.00,0.7063
5995.00,0.7095
5994.00,0.7134
5993.00,0.7180
5992.00,0.7233
5991.00,0.7292
5990.00,0.7356
5989.00,0.7425
5988.00,0.7499
5987.00,0.7577
5986.00,0.7658
5985.00,0.7744
5984.00,0.7834
5983.00,0.7928
5982.00,0.8027
5981.00,0.8129
5980.00,0.8232
5979.00,0.8338
5978.00,0.8446
5977.00,0.8556
5976.00,0.8667
5975.00,0.8780
5974.00,0.8894
5973.00,0.9010
5972.00,0.9126
5971.00,0.9243
5970.00,0.9360
5969.00,0.9479
5968.00,0.9597
5967.00,0.9714
5966.00,0.9829
5965.00,0.9943
5964.00,1.0056
5963.00,1.0167
5962.00,1.0275
5961.00,1.0378
5960.00,1.0479
5959.00,1.0577
5958.00,1.0674
5957.00,1.0771
5956.00,1.0866
5955.00,1.0960
5954.00,1.1049
5953.00,1.1131
5952.00,1.1206
5951.00,1.1275
5950.00,1.1340
5949.00,1.1403
5948.00,1.1465
5947.00,1.1524
5946.00,1.1579
5945.00,1.1629
5944.00,1.1674
5943.00,1.1717
5942.00,1.1759
5941.00,1.1799
5940.00,1.1837
5939.00,1.1872
5938.00,1.1904
5937.00,1.1933
5936.00,1.1958
5935.00,1.1977
5934.00,1.1991
5933.00,1.2002
5932.00,1.2008
5931.00,1.2012
5930.00,1.2013
5929.00,1.2012
5928.00,1.2008
5927.00,1.1998
5926.00,1.1986
5925.00,1.1971
5924.00,1.1953
5923.00,1.1930
5922.00,1.1902
5921.00,1.1872
5920.00,1.1839
5919.00,1.1803
5918.00,1.1761
5917.00,1.1715
5916.00,1.1664
5915.00,1.1610
5914.00,1.1554
5913.00,1.1495
5912.00,1.1435
5911.00,1.1373
5910.00,1.1309
5909.00,1.1242
5908.00,1.1169
5907.00,1.1087
5906.00,1.1000
5905.00,1.0909
5904.00,1.0817
5903.00,1.0722
5902.00,1.0625
5901.00,1.0527
5900.00,1.0428
5899.00,1.0326
5898.00,1.0221
5897.00,1.0112
5896.00,0.9999
5895.00,0.9883
5894.00,0.9765
5893.00,0.9643
5892.00,0.9519
5891.00,0.9393
5890.00,0.9268
5889.00,0.9144
5888.00,0.9021
5887.00,0.8901
5886.00,0.8782
5885.00,0.8666
5884.00,0.8549
5883.00,0.8432
5882.00,0.8315
5881.00,0.8200
5880.00,0.8089
5879.00,0.7980
5878.00,0.7875
5877.00,0.7775
5876.00,0.7679
5875.00,0.7587
5874.00,0.7499
5873.00,0.7416
5872.00,0.7338
5871.00,0.7265
5870.00,0.7198
5869.00,0.7137
5868.00,0.7083
5867.00,0.7035
5866.00,0.6994
5865.00,0.6962
5864.00,0.6937
5863.00,0.6918
5862.00,0.6905
5861.00,0.6900
5860.00,0.6902
5859.00,0.6911
5858.00,0.6927
5857.00,0.6952
5856.00,0.6986
5855.00,0.7027
5854.00,0.7075
5853.00,0.7128
5852.00,0.7188
5851.00,0.7254
5850.00,0.7325
5849.00,0.7402
5848.00,0.7485
5847.00,0.7573
5846.00,0.7665
5845.00,0.7761
5844.00,0.7860
5843.00,0.7961
5842.00,0.8066
5841.00,0.8175
5840.00,0.8286
5839.00,0.8398
5838.00,0.8511
5837.00,0.8625
5836.00,0.8739
5835.00,0.8853
5834.00,0.8967
5833.00,0.9081
5832.00,0.9196
5831.00,0.9311
5830.00,0.9425
5829.00,0.9538
5828.00,0.9650
5827.00,0.9759
5826.00,0.9867
5825.00,0.9974
5824.00,1.0080
5823.00,1.0186
5822.00,1.0291
5821.00,1.0394
5820.00,1.0494
5819.00,1.0592
5818.00,1.0687
5817.00,1.0779
5816.00,1.0869
5815.00,1.0957
5814.00,1.1045
5813.00,1.1131
5812.00,1.1213
5811.00,1.1289
5810.00,1.1361
5809.00,1.1429
5808.00,1.1496
5807.00,1.1559
5806.00,1.1619
5805.00,1.1675
5804.00,1.1728
5803.00,1.1777
5802.00,1.1822
5801.00,1.1862
5800.00,1.1900
5799.00,1.1937
5798.00,1.1971
5797.00,1.2001
5796.00,1.2027
5795.00,1.2050
5794.00,1.2072
5793.00,1.2090
5792.00,1.2104
5791.00,1.2111
5790.00,1.2114
5789.00,1.2113
5788.00,1.2109
5787.00,1.2103
5786.00,1.2092
5785.00,1.2076
5784.00,1.2056
5783.00,1.2033
5782.00,1.2007
5781.00,1.1979
5780.00,1.1947
5779.00,1.1912
5778.00,1.1873
5777.00,1.1831
5776.00,1.1781
5775.00,1.1724
5774.00,1.1662
5773.00,1.1598
5772.00,1.1532
5771.00,1.1464
5770.00,1.1392
5769.00,1.1318
5768.00,1.1240
5767.00,1.1158
5766.00,1.1071
5765.00,1.0980
5764.00,1.0885
5763.00,1.0789
5762.00,1.0691
5761.00,1.0589
5760.00,1.0483
5759.00,1.0372
5758.00,1.0259
5757.00,1.0144
5756.00,1.0026
5755.00,0.9907
5754.00,0.9786
5753.00,0.9664
5752.00,0.9540
5751.00,0.9415
5750.00,0.9288
5749.00,0.9162
5748.00,0.9036
5747.00,0.8910
5746.00,0.8785
5745.00,0.8660
5744.00,0.8536
5743.00,0.8412
5742.00,0.8290
5741.00,0.8171
5740.00,0.8055
5739.00,0.7942
5738.00,0.7832
5737.00,0.7725
5736.00,0.7622
5735.00,0.7523
5734.00,0.7428
5733.00,0.7340
5732.00,0.7257
5731.00,0.7181
5730.00,0.7110
5729.00,0.7047
5728.00,0.6991
5727.00,0.6943
5726.00,0.6902
5725.00,0.6868
5724.00,0.6840
5723.00,0.6819
5722.00,0.6805
5721.00,0.6800
5720.00,0.6803
5719.00,0.6814
5718.00,0.6834
5717.00,0.6862
5716.00,0.6897
5715.00,0.6939
5714.00,0.6988
5713.00,0.7044
5712.00,0.7107
5711.00,0.7176
5710.00,0.7252
5709.00,0.7332
5708.00,0.7417
5707.00,0.7507
5706.00,0.7602
5705.00,0.7701
5704.00,0.7804
5703.00,0.7909
5702.00,0.8018
5701.00,0.8131
5700.00,0.8247
5699.00,0.8365
5698.00,0.8485
5697.00,0.8607
5696.00,0.8729
5695.00,0.8850
5694.00,0.8971
5693.00,0.9093
5692.00,0.9217
5691.00,0.9342
5690.00,0.9467
5689.00,0.9590
5688.00,0.9712
5687.00,0.9832
5686.00,0.9950
5685.00,1.0068
5684.00,1.0183
5683.00,1.0297
5682.00,1.0408
5681.00,1.0517
5680.00,1.0623
5679.00,1.0727
5678.00,1.0832
5677.00,1.0935
5676.00,1.1035
5675.00,1.1130
5674.00,1.1221
5673.00,1.1309
5672.00,1.1391
5671.00,1.1469
5670.00,1.1544
5669.00,1.1616
5668.00,1.1686
5667.00,1.1752
5666.00,1.1813
5665.00,1.1869
5664.00,1.1922
5663.00,1.1971
5662.00,1.2017
5661.00,1.2058
5660.00,1.2095
5659.00,1.2128
5658.00,1.2158
5657.00,1.2184
5656.00,1.2207
5655.00,1.2227
5654.00,1.2243
5653.00,1.2256
5652.00,1.2264
5651.00,1.2265
5650.00,1.2260
5649.00,1.2253
5648.00,1.2244
5647.00,1.2233
5646.00,1.2219
5645.00,1.2203
5644.00,1.2182
5643.00,1.2157
5642.00,1.2125
5641.00,1.2088
5640.00,1.2047
5639.00,1.2003
5638.00,1.1956
5637.00,1.1906
5636.00,1.1852
5635.00,1.1793
5634.00,1.1731
5633.00,1.1666
5632.00,1.1597
5631.00,1.1523
5630.00,1.1444
5629.00,1.1362
5628.00,1.1276
5627.00,1.1187
5626.00,1.1095
5625.00,1.1000
5624.00,1.0902
5623.00,1.0798
5622.00,1.0689
5621.00,1.0576
5620.00,1.0459
5619.00,1.0340
5618.00,1.0220
5617.00,1.0099
5616.00,0.9975
5615.00,0.9848
5614.00,0.9718
5613.00,0.9586
5612.00,0.9453
5611.00,0.9320
5610.00,0.9188
5609.00,0.9055
5608.00,0.8922
5607.00,0.8788
5606.00,0.8655
5605.00,0.8522
5604.00,0.8390
5603.00,0.8259
5602.00,0.8130
5601.00,0.8004
5600.00,0.7880
5599.00,0.7760
5598.00,0.7645
5597.00,0.7533
5596.00,0.7426
5595.00,0.7324
5594.00,0.7226
5593.00,0.7135
5592.00,0.7049
5591.00,0.6971
5590.00,0.6900
5589.00,0.6835
5588.00,0.6779
5587.00,0.6730
5586.00,0.6688
5585.00,0.6655
5584.00,0.6629
5583.00,0.6612
5582.00,0.6604
5581.00,0.6605
5580.00,0.6615
5579.00,0.6633
5578.00,0.6659
5577.00,0.6694
5576.00,0.6737
5575.00,0.6787
5574.00,0.6845
5573.00,0.6911
5572.00,0.6984
5571.00,0.7063
5570.00,0.7149
5569.00,0.7242
5568.00,0.7339
5567.00,0.7441
5566.00,0.7547
5565.00,0.7656
5564.00,0.7769
5563.00,0.7886
5562.00,0.8008
5561.00,0.8132
5560.00,0.8257
5559.00,0.8383
5558.00,0.8508
5557.00,0.8635
5556.00,0.8764
5555.00,0.8894
5554.00,0.9026
5553.00,0.9159
5552.00,0.9292
5551.00,0.9424
5550.00,0.9556
5549.00,0.9688
5548.00,0.9820
5547.00,0.9952
5546.00,1.0081
5545.00,1.0207
5544.00,1.0329
5543.00,1.0447
5542.00,1.0564
5541.00,1.0678
5540.00,1.0790
5539.00,1.0898
5538.00,1.1003
5537.00,1.1105
5536.00,1.1204
5535.00,1.1302
5534.00,1.1399
5533.00,1.1493
5532.00,1.1582
5531.00,1.1666
5530.00,1.1742
5529.00,1.1813
5528.00,1.1880
5527.00,1.1944
5526.00,1.2005
5525.00,1.2063
5524.00,1.2117
5523.00,1.2168
5522.00,1.2215
5521.00,1.2259
5520.00,1.2299
5519.00,1.2335
5518.00,1.2367
5517.00,1.2396
5516.00,1.2421
5515.00,1.2442
5514.00,1.2460
5513.00,1.2475
5512.00,1.2486
5511.00,1.2492
5510.00,1.2492
5509.00,1.2486
5508.00,1.2476
5507.00,1.2462
5506.00,1.2444
5505.00,1.2423
5504.00,1.2397
5503.00,1.2369
5502.00,1.2337
5501.00,1.2302
5500.00,1.2263
5499.00,1.2218
5498.00,1.2170
5497.00,1.2117
5496.00,1.2060
5495.00,1.1998
5494.00,1.1934
5493.00,1.1868
5492.00,1.1797
5491.00,1.1722
5490.00,1.1642
5489.00,1.1559
5488.00,1.1472
5487.00,1.1379
5486.00,1.1283
5485.00,1.1183
5484.00,1.1081
5483.00,1.0976
5482.00,1.0868
5481.00,1.0758
5480.00,1.0643
5479.00,1.0524
5478.00,1.0401
5477.00,1.0274
5476.00,1.0144
5475.00,1.0011
5474.00,0.9876
5473.00,0.9740
5472.00,0.9605
5471.00,0.9469
5470.00,0.9332
5469.00,0.9195
5468.00,0.9058
5467.00,0.8921
5466.00,0.8785
5465.00,0.8649
5464.00,0.8514
5463.00,0.8380
5462.00,0.8247
5461.00,0.8117
5460.00,0.7990
5459.00,0.7867
5458.00,0.7750
5457.00,0.7638
5456.00,0.7530
5455.00,0.7428
5454.00,0.7332
5453.00,0.7243
5452.00,0.7161
5451.00,0.7085
5450.00,0.7017
5449.00,0.6955
5448.00,0.6899
5447.00,0.6852
5446.00,0.6812
5445.00,0.6781
5444.00,0.6759
5443.00,0.6746
5442.00,0.6743
5441.00,0.6750
5440.00,0.6767
5439.00,0.6793
5438.00,0.6827
5437.00,0.6869
5436.00,0.6919
5435.00,0.6978
5434.00,0.7045
5433.00,0.7119
5432.00,0.7199
5431.00,0.7285
5430.00,0.7377
5429.00,0.7476
5428.00,0.7583
5427.00,0.7695
5426.00,0.7811
5425.00,0.7931
5424.00,0.8053
5423.00,0.8177
5422.00,0.8306
5421.00,0.8438
5420.00,0.8572
5419.00,0.8707
5418.00,0.8841
5417.00,0.8975
5416.00,0.9109
5415.00,0.9244
5414.00,0.9381
5413.00,0.9518
5412.00,0.9654
5411.00,0.9788
5410.00,0.9922
5409.00,1.0057
5408.00,1.0193
5407.00,1.0328
5406.00,1.0461
5405.00,1.0589
5404.00,1.0713
5403.00,1.0833
5402.00,1.0950
5401.00,1.1064
5400.00,1.1174
5399.00,1.1281
5398.00,1.1385
5397.00,1.1484
5396.00,1.1580
5395.00,1.1674
5394.00,1.1766
5393.00,1.1854
5392.00,1.1937
5391.00,1.2017
5390.00,1.2092
5389.00,1.2163
5388.00,1.2228
5387.00,1.2290
5386.00,1.2350
5385.00,1.2405
5384.00,1.2456
5383.00,1.2502
5382.00,1.2545
5381.00,1.2585
5380.00,1.2620
5379.00,1.2650
5378.00,1.2675
5377.00,1.2696
5376.00,1.2713
5375.00,1.2728
5374.00,1.2740
5373.00,1.2749
5372.00,1.2752
5371.00,1.2751
5370.00,1.2744
5369.00,1.2734
5368.00,1.2720
5367.00,1.2704
5366.00,1.2684
5365.00,1.2659
5364.00,1.2629
5363.00,1.2595
5362.00,1.2558
5361.00,1.2517
5360.00,1.2473
5359.00,1.2425
5358.00,1.2373
5357.00,1.2317
5356.00,1.2255
5355.00,1.2188
5354.00,1.2115
5353.00,1.2036
5352.00,1.1954
5351.00,1.1869
5350.00,1.1782
5349.00,1.1693
5348.00,1.1600
5347.00,1.1503
5346.00,1.1400
5345.00,1.1291
5344.00,1.1177
5343.00,1.1059
5342.00,1.0937
5341.00,1.0813
5340.00,1.0685
5339.00,1.0553
5338.00,1.0419
5337.00,1.0283
5336.00,1.0147
5335.00,1.0009
5334.00,0.9869
5333.00,0.9726
5332.00,0.9581
5331.00,0.9435
5330.00,0.9290
5329.00,0.9146
5328.00,0.9000
5327.00,0.8852
5326.00,0.8705
5325.00,0.8558
5324.00,0.8415
5323.00,0.8275
5322.00,0.8140
5321.00,0.8008
5320.00,0.7882
5319.00,0.7759
5318.00,0.7642
5317.00,0.7530
5316.00,0.7422
5315.00,0.7321
5314.00,0.7225
5313.00,0.7137
5312.00,0.7057
5311.00,0.6984
5310.00,0.6919
5309.00,0.6863
5308.00,0.6815
5307.00,0.6776
5306.00,0.6745
5305.00,0.6725
5304.00,0.6714
5303.00,0.6714
5302.00,0.6724
5301.00,0.6745
5300.00,0.6774
5299.00,0.6812
5298.00,0.6859
5297.00,0.6914
5296.00,0.6978
5295.00,0.7049
5294.00,0.7128
5293.00,0.7214
5292.00,0.7306
5291.00,0.7405
5290.00,0.7510
5289.00,0.7621
5288.00,0.7737
5287.00,0.7857
5286.00,0.7982
5285.00,0.8110
5284.00,0.8243
5283.00,0.8378
5282.00,0.8516
5281.00,0.8657
5280.00,0.8799
5279.00,0.8943
5278.00,0.9089
5277.00,0.9235
5276.00,0.9381
5275.00,0.9526
5274.00,0.9672
5273.00,0.9817
5272.00,0.9960
5271.00,1.0101
5270.00,1.0240
5269.00,1.0378
5268.00,1.0515
5267.00,1.0648
5266.00,1.0779
5265.00,1.0906
5264.00,1.1031
5263.00,1.1154
5262.00,1.1274
5261.00,1.1393
5260.00,1.1510
5259.00,1.1621
5258.00,1.1727
5257.00,1.1827
5256.00,1.1923
5255.00,1.2015
5254.00,1.2105
5253.00,1.2192
5252.00,1.2275
5251.00,1.2353
5250.00,1.2426
5249.00,1.2495
5248.00,1.2559
5247.00,1.2618
5246.00,1.2675
5245.00,1.2730
5244.00,1.2783
5243.00,1.2833
5242.00,1.2877
5241.00,1.2917
5240.00,1.2952
5239.00,1.2982
5238.00,1.3009
5237.00,1.3033
5236.00,1.3054
5235.00,1.3071
5234.00,1.3081
5233.00,1.3087
5232.00,1.3088
5231.00,1.3086
5230.00,1.3081
5229.00,1.3072
5228.00,1.3058
5227.00,1.3039
5226.00,1.3015
5225.00,1.2988
5224.00,1.2958
5223.00,1.2925
5222.00,1.2887
5221.00,1.2846
5220.00,1.2799
5219.00,1.2748
5218.00,1.2693
5217.00,1.2635
5216.00,1.2573
5215.00,1.2508
5214.00,1.2438
5213.00,1.2366
5212.00,1.2288
5211.00,1.2205
5210.00,1.2117
5209.00,1.2024
5208.00,1.1926
5207.00,1.1822
5206.00,1.1714
5205.00,1.1604
5204.00,1.1490
5203.00,1.1375
5202.00,1.1258
5201.00,1.1139
5200.00,1.1019
5199.00,1.0897
5198.00,1.0771
5197.00,1.0641
5196.00,1.0508
5195.00,1.0370
5194.00,1.0230
5193.00,1.0088
5192.00,0.9943
5191.00,0.9795
5190.00,0.9644
5189.00,0.9490
5188.00,0.9335
5187.00,0.9179
5186.00,0.9025
5185.00,0.8871
5184.00,0.8718
5183.00,0.8568
5182.00,0.8421
5181.00,0.8278
5180.00,0.8139
5179.00,0.8005
5178.00,0.7877
5177.00,0.7754
5176.00,0.7638
5175.00,0.7527
5174.00,0.7423
5173.00,0.7327
5172.00,0.7239
5171.00,0.7159
5170.00,0.7087
5169.00,0.7025
5168.00,0.6972
5167.00,0.6928
5166.00,0.6896
5165.00,0.6873
5164.00,0.6861
5163.00,0.6859
5162.00,0.6868
5161.00,0.6887
5160.00,0.6915
5159.00,0.6954
5158.00,0.7003
5157.00,0.7061
5156.00,0.7128
5155.00,0.7204
5154.00,0.7288
5153.00,0.7381
5152.00,0.7481
5151.00,0.7587
5150.00,0.7699
5149.00,0.7816
5148.00,0.7938
5147.00,0.8065
5146.00,0.8198
5145.00,0.8335
5144.00,0.8475
5143.00,0.8618
5142.00,0.8763
5141.00,0.8910
5140.00,0.9059
5139.00,0.9210
5138.00,0.9360
5137.00,0.9512
5136.00,0.9663
5135.00,0.9815
5134.00,0.9966
5133.00,1.0117
5132.00,1.0266
5131.00,1.0413
5130.00,1.0558
5129.00,1.0702
5128.00,1.0843
5127.00,1.0981
5126.00,1.1116
5125.00,1.1248
5124.00,1.1376
5123.00,1.1501
5122.00,1.1622
5121.00,1.1739
5120.00,1.1852
5119.00,1.1960
5118.00,1.2065
5117.00,1.2167
5116.00,1.2266
5115.00,1.2361
5114.00,1.2452
5113.00,1.2540
5112.00,1.2622
5111.00,1.2698
5110.00,1.2769
5109.00,1.2836
5108.00,1.2898
5107.00,1.2958
5106.00,1.3015
5105.00,1.3070
5104.00,1.3123
5103.00,1.3171
5102.00,1.3214
5101.00,1.3251
5100.00,1.3281
5099.00,1.3305
5098.00,1.3323
5097.00,1.3340
5096.00,1.3354
5095.00,1.3366
5094.00,1.3374
5093.00,1.3378
5092.00,1.3377
5091.00,1.3372
5090.00,1.3362
5089.00,1.3348
5088.00,1.3329
5087.00,1.3305
5086.00,1.3277
5085.00,1.3246
5084.00,1.3211
5083.00,1.3172
5082.00,1.3127
5081.00,1.3079
5080.00,1.3026
5079.00,1.2969
5078.00,1.2908
5077.00,1.2843
5076.00,1.2776
5075.00,1.2704
5074.00,1.2627
5073.00,1.2545
5072.00,1.2456
5071.00,1.2364
5070.00,1.2269
5069.00,1.2170
5068.00,1.2068
5067.00,1.1960
5066.00,1.1846
5065.00,1.1728
5064.00,1.1605
5063.00,1.1478
5062.00,1.1347
5061.00,1.1212
5060.00,1.1073
5059.00,1.0931
5058.00,1.0785
5057.00,1.0637
5056.00,1.0485
5055.00,1.0330
5054.00,1.0173
5053.00,1.0014
5052.00,0.9853
5051.00,0.9692
5050.00,0.9531
5049.00,0.9371
5048.00,0.9210
5047.00,0.9050
5046.00,0.8890
5045.00,0.8731
5044.00,0.8576
5043.00,0.8424
5042.00,0.8277
5041.00,0.8135
5040.00,0.7997
5039.00,0.7863
5038.00,0.7736
5037.00,0.7615
5036.00,0.7500
5035.00,0.7394
5034.00,0.7295
5033.00,0.7204
5032.00,0.7122
5031.00,0.7050
5030.00,0.6987
5029.00,0.6934
5028.00,0.6890
5027.00,0.6857
5026.00,0.6834
5025.00,0.6823
5024.00,0.6823
5023.00,0.6833
5022.00,0.6853
5021.00,0.6884
5020.00,0.6926
5019.00,0.6979
5018.00,0.7043
5017.00,0.7117
5016.00,0.7199
5015.00,0.7290
5014.00,0.7389
5013.00,0.7496
5012.00,0.7610
5011.00,0.7731
5010.00,0.7857
5009.00,0.7989
5008.00,0.8127
5007.00,0.8269
5006.00,0.8416
5005.00,0.8566
5004.00,0.8719
5003.00,0.8875
5002.00,0.9031
5001.00,0.9190
5000.00,0.9349
4999.00,0.9508
4998.00,0.9666
4997.00,0.9825
4996.00,0.9983
4995.00,1.0141
4994.00,1.0298
4993.00,1.0454
4992.00,1.0606
4991.00,1.0755
4990.00,1.0902
4989.00,1.1046
4988.00,1.1188
4987.00,1.1329
4986.00,1.1468
4985.00,1.1603
4984.00,1.1734
4983.00,1.1861
4982.00,1.1985
4981.00,1.2105
4980.00,1.2221
4979.00,1.2333
4978.00,1.2441
4977.00,1.2544
4976.00,1.2643
4975.00,1.2738
4974.00,1.2829
4973.00,1.2917
4972.00,1.3000
4971.00,1.3078
4970.00,1.3150
4969.00,1.3216
4968.00,1.3278
4967.00,1.3336
4966.00,1.3392
4965.00,1.3445
4964.00,1.3493
4963.00,1.3535
4962.00,1.3572
4961.00,1.3605
4960.00,1.3636
4959.00,1.3665
4958.00,1.3689
4957.00,1.3706
4956.00,1.3717
4955.00,1.3723
4954.00,1.3728
4953.00,1.3732
4952.00,1.3734
4951.00,1.3731
4950.00,1.3723
4949.00,1.3709
4948.00,1.3690
4947.00,1.3665
4946.00,1.3637
4945.00,1.3605
4944.00,1.3569
4943.00,1.3530
4942.00,1.3488
4941.00,1.3441
4940.00,1.3389
4939.00,1.3331
4938.00,1.3268
4937.00,1.3201
4936.00,1.3130
4935.00,1.3053
4934.00,1.2973
4933.00,1.2887
4932.00,1.2798
4931.00,1.2704
4930.00,1.2604
4929.00,1.2500
4928.00,1.2391
4927.00,1.2279
4926.00,1.2163
4925.00,1.2044
4924.00,1.1920
4923.00,1.1791
4922.00,1.1657
4921.00,1.1516
4920.00,1.1371
4919.00,1.1222
4918.00,1.1070
4917.00,1.0915
4916.00,1.0757
4915.00,1.0595
4914.00,1.0431
4913.00,1.0266
4912.00,1.0099
4911.00,0.9930
4910.00,0.9759
4909.00,0.9587
4908.00,0.9416
4907.00,0.9246
4906.00,0.9079
4905.00,0.8915
4904.00,0.8753
4903.00,0.8593
4902.00,0.8437
4901.00,0.8284
4900.00,0.8137
4899.00,0.7994
4898.00,0.7859
4897.00,0.7731
4896.00,0.7610
4895.00,0.7497
4894.00,0.7392
4893.00,0.7298
4892.00,0.7212
4891.00,0.7138
4890.00,0.7074
4889.00,0.7021
4888.00,0.6979
4887.00,0.6949
4886.00,0.6931
4885.00,0.6925
4884.00,0.6931
4883.00,0.6949
4882.00,0.6978
4881.00,0.7020
4880.00,0.7073
4879.00,0.7137
4878.00,0.7212
4877.00,0.7296
4876.00,0.7390
4875.00,0.7492
4874.00,0.7603
4873.00,0.7721
4872.00,0.7847
4871.00,0.7979
4870.00,0.8117
4869.00,0.8261
4868.00,0.8410
4867.00,0.8562
4866.00,0.8717
4865.00,0.8876
4864.00,0.9039
4863.00,0.9203
4862.00,0.9370
4861.00,0.9539
4860.00,0.9708
4859.00,0.9877
4858.00,1.0045
4857.00,1.0212
4856.00,1.0377
4855.00,1.0542
4854.00,1.0707
4853.00,1.0871
4852.00,1.1032
4851.00,1.1190
4850.00,1.1344
4849.00,1.1494
4848.00,1.1642
4847.00,1.1786
4846.00,1.1927
4845.00,1.2064
4844.00,1.2196
4843.00,1.2323
4842.00,1.2446
4841.00,1.2566
4840.00,1.2681
4839.00,1.2792
4838.00,1.2898
4837.00,1.2999
4836.00,1.3095
4835.00,1.3185
4834.00,1.3272
4833.00,1.3356
4832.00,1.3437
4831.00,1.3512
4830.00,1.3581
4829.00,1.3645
4828.00,1.3704
4827.00,1.3759
4826.00,1.3810
4825.00,1.3857
4824.00,1.3901
4823.00,1.3942
4822.00,1.3979
4821.00,1.4012
4820.00,1.4039
4819.00,1.4058
4818.00,1.4072
4817.00,1.4082
4816.00,1.4090
4815.00,1.4095
4814.00,1.4097
4813.00,1.4094
4812.00,1.4085
4811.00,1.4070
4810.00,1.4049
4809.00,1.4026
4808.00,1.3999
4807.00,1.3971
4806.00,1.3941
4805.00,1.3908
4804.00,1.3871
4803.00,1.3826
4802.00,1.3775
4801.00,1.3716
4800.00,1.3651
4799.00,1.3583
4798.00,1.3513
4797.00,1.3442
4796.00,1.3366
4795.00,1.3286
4794.00,1.3201
4793.00,1.3110
4792.00,1.3013
4791.00,1.2910
4790.00,1.2802
4789.00,1.2688
4788.00,1.2570
4787.00,1.2447
4786.00,1.2320
4785.00,1.2188
4784.00,1.2050
4783.00,1.1907
4782.00,1.1760
4781.00,1.1611
4780.00,1.1459
4779.00,1.1302
4778.00,1.1140
4777.00,1.0972
4776.00,1.0801
4775.00,1.0628
4774.00,1.0454
4773.00,1.0278
4772.00,1.0101
4771.00,0.9921
4770.00,0.9741
4769.00,0.9561
4768.00,0.9382
4767.00,0.9206
4766.00,0.9031
4765.00,0.8860
4764.00,0.8693
4763.00,0.8530
4762.00,0.8372
4761.00,0.8219
4760.00,0.8072
4759.00,0.7931
4758.00,0.7796
4757.00,0.7669
4756.00,0.7550
4755.00,0.7441
4754.00,0.7341
4753.00,0.7252
4752.00,0.7174
4751.00,0.7106
4750.00,0.7050
4749.00,0.7007
4748.00,0.6975
4747.00,0.6957
4746.00,0.6952
4745.00,0.6960
4744.00,0.6980
4743.00,0.7013
4742.00,0.7058
4741.00,0.7116
4740.00,0.7185
4739.00,0.7265
4738.00,0.7356
4737.00,0.7457
4736.00,0.7567
4735.00,0.7687
4734.00,0.7816
4733.00,0.7953
4732.00,0.8097
4731.00,0.8247
4730.00,0.8401
4729.00,0.8560
4728.00,0.8724
4727.00,0.8890
4726.00,0.9060
4725.00,0.9232
4724.00,0.9406
4723.00,0.9581
4722.00,0.9758
4721.00,0.9937
4720.00,1.0115
4719.00,1.0294
4718.00,1.0473
4717.00,1.0650
4716.00,1.0825
4715.00,1.0997
4714.00,1.1166
4713.00,1.1331
4712.00,1.1493
4711.00,1.1653
4710.00,1.1811
4709.00,1.1966
4708.00,1.2117
4707.00,1.2264
4706.00,1.2407
4705.00,1.2546
4704.00,1.2680
4703.00,1.2809
4702.00,1.2931
4701.00,1.3047
4700.00,1.3158
4699.00,1.3265
4698.00,1.3369
4697.00,1.3470
4696.00,1.3568
4695.00,1.3660
4694.00,1.3748
4693.00,1.3829
4692.00,1.3906
4691.00,1.3979
4690.00,1.4047
4689.00,1.4110
4688.00,1.4168
4687.00,1.4222
4686.00,1.4270
4685.00,1.4314
4684.00,1.4355
4683.00,1.4393
4682.00,1.4427
4681.00,1.4457
4680.00,1.4480
4679.00,1.4497
4678.00,1.4510
4677.00,1.4519
4676.00,1.4527
4675.00,1.4531
4674.00,1.4531
4673.00,1.4523
4672.00,1.4511
4671.00,1.4494
4670.00,1.4474
4669.00,1.4451
4668.00,1.4424
4667.00,1.4392
4666.00,1.4355
4665.00,1.4314
4664.00,1.4269
4663.00,1.4220
4662.00,1.4166
4661.00,1.4108
4660.00,1.4045
4659.00,1.3977
4658.00,1.3904
4657.00,1.3826
4656.00,1.3743
4655.00,1.3656
4654.00,1.3565
4653.00,1.3468
4652.00,1.3366
4651.00,1.3259
4650.00,1.3147
4649.00,1.3029
4648.00,1.2906
4647.00,1.2779
4646.00,1.2648
4645.00,1.2513
4644.00,1.2374
4643.00,1.2227
4642.00,1.2073
4641.00,1.1913
4640.00,1.1750
4639.00,1.1583
4638.00,1.1414
4637.00,1.1241
4636.00,1.1064
4635.00,1.0883
4634.00,1.0698
4633.00,1.0510
4632.00,1.0320
4631.00,1.0129
4630.00,0.9939
4629.00,0.9749
4628.00,0.9559
4627.00,0.9372
4626.00,0.9186
4625.00,0.9004
4624.00,0.8826
4623.00,0.8653
4622.00,0.8485
4621.00,0.8323
4620.00,0.8168
4619.00,0.8021
4618.00,0.7882
4617.00,0.7751
4616.00,0.7631
4615.00,0.7521
4614.00,0.7421
4613.00,0.7333
4612.00,0.7257
4611.00,0.7194
4610.00,0.7145
4609.00,0.7110
4608.00,0.7089
4607.00,0.7082
4606.00,0.7090
4605.00,0.7111
4604.00,0.7146
4603.00,0.7195
4602.00,0.7257
4601.00,0.7332
4600.00,0.7419
4599.00,0.7518
4598.00,0.7628
4597.00,0.7748
4596.00,0.7878
4595.00,0.8016
4594.00,0.8162
4593.00,0.8316
4592.00,0.8476
4591.00,0.8642
4590.00,0.8813
4589.00,0.8987
4588.00,0.9165
4587.00,0.9346
4586.00,0.9529
4585.00,0.9715
4584.00,0.9901
4583.00,1.0089
4582.00,1.0278
4581.00,1.0466
4580.00,1.0653
4579.00,1.0839
4578.00,1.1023
4577.00,1.1204
4576.00,1.1383
4575.00,1.1558
4574.00,1.1731
4573.00,1.1901
4572.00,1.2069
4571.00,1.2233
4570.00,1.2393
4569.00,1.2549
4568.00,1.2698
4567.00,1.2842
4566.00,1.2981
4565.00,1.3115
4564.00,1.3245
4563.00,1.3371
4562.00,1.3492
4561.00,1.3608
4560.00,1.3720
4559.00,1.3826
4558.00,1.3927
4557.00,1.4022
4556.00,1.4110
4555.00,1.4193
4554.00,1.4270
4553.00,1.4342
4552.00,1.4410
4551.00,1.4473
4550.00,1.4534
4549.00,1.4594
4548.00,1.4651
4547.00,1.4705
4546.00,1.4751
4545.00,1.4789
4544.00,1.4818
4543.00,1.4840
4542.00,1.4858
4541.00,1.4875
4540.00,1.4890
4539.00,1.4902
4538.00,1.4907
4537.00,1.4907
4536.00,1.4901
4535.00,1.4890
4534.00,1.4875
4533.00,1.4858
4532.00,1.4839
4531.00,1.4818
4530.00,1.4795
4529.00,1.4770
4528.00,1.4742
4527.00,1.4711
4526.00,1.4675
4525.00,1.4636
4524.00,1.4592
4523.00,1.4543
4522.00,1.4489
4521.00,1.4429
4520.00,1.4365
4519.00,1.4296
4518.00,1.4222
4517.00,1.4142
4516.00,1.4055
4515.00,1.3962
4514.00,1.3863
4513.00,1.3760
4512.00,1.3653
4511.00,1.3541
4510.00,1.3422
4509.00,1.3296
4508.00,1.3164
4507.00,1.3026
4506.00,1.2883
4505.00,1.2734
4504.00,1.2580
4503.00,1.2421
4502.00,1.2256
4501.00,1.2086
4500.00,1.1912
4499.00,1.1734
4498.00,1.1554
4497.00,1.1371
4496.00,1.1185
4495.00,1.0994
4494.00,1.0800
4493.00,1.0605
4492.00,1.0409
4491.00,1.0215
4490.00,1.0023
4489.00,0.9832
4488.00,0.9643
4487.00,0.9457
4486.00,0.9273
4485.00,0.9095
4484.00,0.8922
4483.00,0.8756
4482.00,0.8597
4481.00,0.8446
4480.00,0.8303
4479.00,0.8169
4478.00,0.8046
4477.00,0.7935
4476.00,0.7837
4475.00,0.7751
4474.00,0.7679
4473.00,0.7620
4472.00,0.7576
4471.00,0.7546
4470.00,0.7532
4469.00,0.7534
4468.00,0.7552
4467.00,0.7584
4466.00,0.7632
4465.00,0.7694
4464.00,0.7770
4463.00,0.7860
4462.00,0.7963
4461.00,0.8079
4460.00,0.8205
4459.00,0.8341
4458.00,0.8488
4457.00,0.8643
4456.00,0.8806
4455.00,0.8975
4454.00,0.9150
4453.00,0.9331
4452.00,0.9516
4451.00,0.9704
4450.00,0.9895
4449.00,1.0087
4448.00,1.0280
4447.00,1.0473
4446.00,1.0665
4445.00,1.0855
4444.00,1.1043
4443.00,1.1228
4442.00,1.1407
4441.00,1.1581
4440.00,1.1749
4439.00,1.1912
4438.00,1.2069
4437.00,1.2221
4436.00,1.2367
4435.00,1.2508
4434.00,1.2646
4433.00,1.2780
4432.00,1.2911
4431.00,1.3038
4430.00,1.3163
4429.00,1.3286
4428.00,1.3408
4427.00,1.3529
4426.00,1.3649
4425.00,1.3767
4424.00,1.3882
4423.00,1.3994
4422.00,1.4104
4421.00,1.4212
4420.00,1.4317
4419.00,1.4420
4418.00,1.4520
4417.00,1.4616
4416.00,1.4708
4415.00,1.4795
4414.00,1.4876
4413.00,1.4952
4412.00,1.5024
4411.00,1.5091
4410.00,1.5156
4409.00,1.5216
4408.00,1.5272
4407.00,1.5322
4406.00,1.5365
4405.00,1.5403
4404.00,1.5439
4403.00,1.5472
4402.00,1.5502
4401.00,1.5529
4400.00,1.5554
4399.00,1.5574
4398.00,1.5590
4397.00,1.5597
4396.00,1.5596
4395.00,1.5588
4394.00,1.5575
4393.00,1.5561
4392.00,1.5546
4391.00,1.5528
4390.00,1.5507
4389.00,1.5481
4388.00,1.5450
4387.00,1.5414
4386.00,1.5372
4385.00,1.5326
4384.00,1.5275
4383.00,1.5222
4382.00,1.5166
4381.00,1.5107
4380.00,1.5042
4379.00,1.4973
4378.00,1.4901
4377.00,1.4825
4376.00,1.4747
4375.00,1.4666
4374.00,1.4583
4373.00,1.4497
4372.00,1.4409
4371.00,1.4317
4370.00,1.4222
4369.00,1.4125
4368.00,1.4024
4367.00,1.3919
4366.00,1.3810
4365.00,1.3695
4364.00,1.3574
4363.00,1.3445
4362.00,1.3310
4361.00,1.3168
4360.00,1.3018
4359.00,1.2862
4358.00,1.2699
4357.00,1.2529
4356.00,1.2352
4355.00,1.2167
4354.00,1.1974
4353.00,1.1774
4352.00,1.1571
4351.00,1.1366
4350.00,1.1157
4349.00,1.0947
4348.00,1.0733
4347.00,1.0517
4346.00,1.0300
4345.00,1.0086
4344.00,0.9874
4343.00,0.9667
4342.00,0.9465
4341.00,0.9269
4340.00,0.9081
4339.00,0.8900
4338.00,0.8729
4337.00,0.8568
4336.00,0.8418
4335.00,0.8280
4334.00,0.8156
4333.00,0.8047
4332.00,0.7953
4331.00,0.7876
4330.00,0.7817
4329.00,0.7775
4328.00,0.7752
4327.00,0.7747
4326.00,0.7759
4325.00,0.7788
4324.00,0.7832
4323.00,0.7891
4322.00,0.7962
4321.00,0.8045
4320.00,0.8137
4319.00,0.8238
4318.00,0.8347
4317.00,0.8463
4316.00,0.8588
4315.00,0.8722
4314.00,0.8865
4313.00,0.9017
4312.00,0.9178
4311.00,0.9346
4310.00,0.9522
4309.00,0.9704
4308.00,0.9892
4307.00,1.0085
4306.00,1.0280
4305.00,1.0478
4304.00,1.0678
4303.00,1.0880
4302.00,1.1082
4301.00,1.1283
4300.00,1.1483
4299.00,1.1682
4298.00,1.1880
4297.00,1.2077
4296.00,1.2270
4295.00,1.2459
4294.00,1.2644
4293.00,1.2823
4292.00,1.2998
4291.00,1.3169
4290.00,1.3334
4289.00,1.3495
4288.00,1.3651
4287.00,1.3803
4286.00,1.3950
4285.00,1.4092
4284.00,1.4228
4283.00,1.4356
4282.00,1.4477
4281.00,1.4592
4280.00,1.4703
4279.00,1.4810
4278.00,1.4912
4277.00,1.5009
4276.00,1.5103
4275.00,1.5192
4274.00,1.5277
4273.00,1.5356
4272.00,1.5430
4271.00,1.5497
4270.00,1.5558
4269.00,1.5613
4268.00,1.5662
4267.00,1.5707
4266.00,1.5748
4265.00,1.5787
4264.00,1.5822
4263.00,1.5855
4262.00,1.5884
4261.00,1.5908
4260.00,1.5926
4259.00,1.5939
4258.00,1.5946
4257.00,1.5947
4256.00,1.5944
4255.00,1.5937
4254.00,1.5928
4253.00,1.5915
4252.00,1.5897
4251.00,1.5875
4250.00,1.5848
4249.00,1.5818
4248.00,1.5783
4247.00,1.5743
4246.00,1.5699
4245.00,1.5651
4244.00,1.5599
4243.00,1.5541
4242.00,1.5475
4241.00,1.5403
4240.00,1.5327
4239.00,1.5248
4238.00,1.5166
4237.00,1.5078
4236.00,1.4984
4235.00,1.4883
4234.00,1.4776
4233.00,1.4664
4232.00,1.4548
4231.00,1.4429
4230.00,1.4306
4229.00,1.4176
4228.00,1.4038
4227.00,1.3891
4226.00,1.3735
4225.00,1.3573
4224.00,1.3407
4223.00,1.3236
4222.00,1.3059
4221.00,1.2878
4220.00,1.2690
4219.00,1.2496
4218.00,1.2296
4217.00,1.2090
4216.00,1.1878
4215.00,1.1664
4214.00,1.1445
4213.00,1.1225
4212.00,1.1001
4211.00,1.0776
4210.00,1.0550
4209.00,1.0323
4208.00,1.0097
4207.00,0.9874
4206.00,0.9655
4205.00,0.9440
4204.00,0.9231
4203.00,0.9028
4202.00,0.8833
4201.00,0.8647
4200.00,0.8470
4199.00,0.8304
4198.00,0.8149
4197.00,0.8008
4196.00,0.7881
4195.00,0.7767
4194.00,0.7669
4193.00,0.7587
4192.00,0.7522
4191.00,0.7475
4190.00,0.7446
4189.00,0.7436
4188.00,0.7444
4187.00,0.7471
4186.00,0.7515
4185.00,0.7577
4184.00,0.7656
4183.00,0.7752
4182.00,0.7863
4181.00,0.7989
4180.00,0.8128
4179.00,0.8280
4178.00,0.8442
4177.00,0.8616
4176.00,0.8799
4175.00,0.8990
4174.00,0.9188
4173.00,0.9392
4172.00,0.9599
4171.00,0.9812
4170.00,1.0027
4169.00,1.0246
4168.00,1.0466
4167.00,1.0686
4166.00,1.0906
4165.00,1.1127
4164.00,1.1346
4163.00,1.1565
4162.00,1.1783
4161.00,1.1998
4160.00,1.2211
4159.00,1.2420
4158.00,1.2626
4157.00,1.2827
4156.00,1.3024
4155.00,1.3215
4154.00,1.3402
4153.00,1.3583
4152.00,1.3760
4151.00,1.3931
4150.00,1.4096
4149.00,1.4252
4148.00,1.4401
4147.00,1.4543
4146.00,1.4682
4145.00,1.4816
4144.00,1.4947
4143.00,1.5072
4142.00,1.5189
4141.00,1.5299
4140.00,1.5404
4139.00,1.5507
4138.00,1.5606
4137.00,1.5701
4136.00,1.5789
4135.00,1.5871
4134.00,1.5945
4133.00,1.6014
4132.00,1.6077
4131.00,1.6137
4130.00,1.6192
4129.00,1.6245
4128.00,1.6294
4127.00,1.6337
4126.00,1.6372
4125.00,1.6401
4124.00,1.6426
4123.00,1.6449
4122.00,1.6470
4121.00,1.6488
4120.00,1.6499
4119.00,1.6506
4118.00,1.6508
4117.00,1.6507
4116.00,1.6500
4115.00,1.6488
4114.00,1.6471
4113.00,1.6451
4112.00,1.6430
4111.00,1.6406
4110.00,1.6377
4109.00,1.6341
4108.00,1.6299
4107.00,1.6251
4106.00,1.6199
4105.00,1.6143
4104.00,1.6084
4103.00,1.6019
4102.00,1.5947
4101.00,1.5870
4100.00,1.5788
4099.00,1.5701
4098.00,1.5610
4097.00,1.5514
4096.00,1.5414
4095.00,1.5309
4094.00,1.5198
4093.00,1.5081
4092.00,1.4955
4091.00,1.4823
4090.00,1.4683
4089.00,1.4537
4088.00,1.4385
4087.00,1.4227
4086.00,1.4064
4085.00,1.3897
4084.00,1.3726
4083.00,1.3549
4082.00,1.3364
4081.00,1.3169
4080.00,1.2967
4079.00,1.2761
4078.00,1.2550
4077.00,1.2336
4076.00,1.2117
4075.00,1.1894
4074.00,1.1667
4073.00,1.1438
4072.00,1.1206
4071.00,1.0975
4070.00,1.0743
4069.00,1.0513
4068.00,1.0287
4067.00,1.0064
4066.00,0.9846
4065.00,0.9633
4064.00,0.9425
4063.00,0.9225
4062.00,0.9034
4061.00,0.8852
4060.00,0.8682
4059.00,0.8525
4058.00,0.8381
4057.00,0.8253
4056.00,0.8141
4055.00,0.8046
4054.00,0.7969
4053.00,0.7912
4052.00,0.7875
4051.00,0.7858
4050.00,0.7861
4049.00,0.7886
4048.00,0.7931
4047.00,0.7996
4046.00,0.8080
4045.00,0.8184
4044.00,0.8305
4043.00,0.8442
4042.00,0.8595
4041.00,0.8762
4040.00,0.8940
4039.00,0.9127
4038.00,0.9323
4037.00,0.9526
4036.00,0.9736
4035.00,0.9951
4034.00,1.0169
4033.00,1.0389
4032.00,1.0609
4031.00,1.0827
4030.00,1.1044
4029.00,1.1258
4028.00,1.1470
4027.00,1.1679
4026.00,1.1884
4025.00,1.2087
4024.00,1.2288
4023.00,1.2488
4022.00,1.2686
4021.00,1.2884
4020.00,1.3078
4019.00,1.3270
4018.00,1.3459
4017.00,1.3645
4016.00,1.3828
4015.00,1.4009
4014.00,1.4188
4013.00,1.4362
4012.00,1.4532
4011.00,1.4696
4010.00,1.4854
4009.00,1.5006
4008.00,1.5152
4007.00,1.5292
4006.00,1.5427
4005.00,1.5556
4004.00,1.5680
4003.00,1.5798
4002.00,1.5910
4001.00,1.6017
4000.00,1.6120
3999.00,1.6217
3998.00,1.6309
3997.00,1.6397
3996.00,1.6480
3995.00,1.6558
3994.00,1.6631
3993.00,1.6700
3992.00,1.6764
3991.00,1.6824
3990.00,1.6878
3989.00,1.6926
3988.00,1.6969
3987.00,1.7006
3986.00,1.7036
3985.00,1.7060
3984.00,1.7081
3983.00,1.7098
3982.00,1.7115
3981.00,1.7130
3980.00,1.7143
3979.00,1.7150
3978.00,1.7151
3977.00,1.7145
3976.00,1.7133
3975.00,1.7116
3974.00,1.7095
3973.00,1.7070
3972.00,1.7043
3971.00,1.7013
3970.00,1.6980
3969.00,1.6941
3968.00,1.6896
3967.00,1.6846
3966.00,1.6791
3965.00,1.6732
3964.00,1.6668
3963.00,1.6598
3962.00,1.6523
3961.00,1.6444
3960.00,1.6359
3959.00,1.6268
3958.00,1.6168
3957.00,1.6061
3956.00,1.5949
3955.00,1.5835
3954.00,1.5716
3953.00,1.5592
3952.00,1.5462
3951.00,1.5324
3950.00,1.5178
3949.00,1.5026
3948.00,1.4868
3947.00,1.4703
3946.00,1.4530
3945.00,1.4350
3944.00,1.4162
3943.00,1.3965
3942.00,1.3762
3941.00,1.3551
3940.00,1.3335
3939.00,1.3112
3938.00,1.2883
3937.00,1.2649
3936.00,1.2413
3935.00,1.2173
3934.00,1.1928
3933.00,1.1675
3932.00,1.1416
3931.00,1.1154
3930.00,1.0893
3929.00,1.0638
3928.00,1.0391
3927.00,1.0151
3926.00,0.9916
3925.00,0.9684
3924.00,0.9458
3923.00,0.9241
3922.00,0.9037
3921.00,0.8846
3920.00,0.8667
3919.00,0.8499
3918.00,0.8342
3917.00,0.8199
3916.00,0.8072
3915.00,0.7967
3914.00,0.7885
3913.00,0.7829
3912.00,0.7798
3911.00,0.7790
3910.00,0.7804
3909.00,0.7838
3908.00,0.7891
3907.00,0.7965
3906.00,0.8059
3905.00,0.8173
3904.00,0.8306
3903.00,0.8455
3902.00,0.8617
3901.00,0.8790
3900.00,0.8977
3899.00,0.9180
3898.00,0.9397
3897.00,0.9623
3896.00,0.9853
3895.00,1.0083
3894.00,1.0317
3893.00,1.0557
3892.00,1.0810
3891.00,1.1074
3890.00,1.1340
3889.00,1.1596
3888.00,1.1836
3887.00,1.2068
3886.00,1.2307
3885.00,1.2558
3884.00,1.2812
3883.00,1.3056
3882.00,1.3289
3881.00,1.3519
3880.00,1.3752
3879.00,1.3983
3878.00,1.4201
3877.00,1.4403
3876.00,1.4591
3875.00,1.4776
3874.00,1.4960
3873.00,1.5140
3872.00,1.5310
3871.00,1.5473
3870.00,1.5635
3869.00,1.5794
3868.00,1.5945
3867.00,1.6081
3866.00,1.6203
3865.00,1.6319
3864.00,1.6435
3863.00,1.6553
3862.00,1.6669
3861.00,1.6778
3860.00,1.6879
3859.00,1.6969
3858.00,1.7049
3857.00,1.7120
3856.00,1.7185
3855.00,1.7247
3854.00,1.7306
3853.00,1.7361
3852.00,1.7411
3851.00,1.7457
3850.00,1.7504
3849.00,1.7550
3848.00,1.7595
3847.00,1.7640
3846.00,1.7681
3845.00,1.7712
3844.00,1.7732
3843.00,1.7743
3842.00,1.7751
3841.00,1.7759
3840.00,1.7765
3839.00,1.7767
3838.00,1.7760
3837.00,1.7744
3836.00,1.7722
3835.00,1.7696
3834.00,1.7665
3833.00,1.7631
3832.00,1.7592
3831.00,1.7551
3830.00,1.7506
3829.00,1.7458
3828.00,1.7405
3827.00,1.7348
3826.00,1.7287
3825.00,1.7225
3824.00,1.7161
3823.00,1.7090
3822.00,1.7006
3821.00,1.6904
3820.00,1.6792
3819.00,1.6681
3818.00,1.6574
3817.00,1.6459
3816.00,1.6330
3815.00,1.6191
3814.00,1.6048
3813.00,1.5904
3812.00,1.5757
3811.00,1.5608
3810.00,1.5458
3809.00,1.5302
3808.00,1.5127
3807.00,1.4929
3806.00,1.4718
3805.00,1.4510
3804.00,1.4310
3803.00,1.4103
3802.00,1.3873
3801.00,1.3620
3800.00,1.3362
3799.00,1.3111
3798.00,1.2861
3797.00,1.2600
3796.00,1.2327
3795.00,1.2050
3794.00,1.1774
3793.00,1.1498
3792.00,1.1220
3791.00,1.0943
3790.00,1.0670
3789.00,1.0402
3788.00,1.0140
3787.00,0.9884
3786.00,0.9635
3785.00,0.9396
3784.00,0.9170
3783.00,0.8961
3782.00,0.8770
3781.00,0.8594
3780.00,0.8431
3779.00,0.8283
3778.00,0.8155
3777.00,0.8054
3776.00,0.7981
3775.00,0.7933
3774.00,0.7910
3773.00,0.7913
3772.00,0.7943
3771.00,0.8000
3770.00,0.8083
3769.00,0.8189
3768.00,0.8313
3767.00,0.8456
3766.00,0.8620
3765.00,0.8806
3764.00,0.9009
3763.00,0.9222
3762.00,0.9442
3761.00,0.9672
3760.00,0.9919
3759.00,1.0183
3758.00,1.0456
3757.00,1.0732
3756.00,1.1002
3755.00,1.1261
3754.00,1.1512
3753.00,1.1763
3752.00,1.2028
3751.00,1.2312
3750.00,1.2616
3749.00,1.2926
3748.00,1.3221
3747.00,1.3480
3746.00,1.3712
3745.00,1.3949
3744.00,1.4209
3743.00,1.4477
3742.00,1.4723
3741.00,1.4934
3740.00,1.5127
3739.00,1.5313
3738.00,1.5492
3737.00,1.5661
3736.00,1.5816
3735.00,1.5958
3734.00,1.6086
3733.00,1.6204
3732.00,1.6314
3731.00,1.6414
3730.00,1.6500
3729.00,1.6575
3728.00,1.6644
3727.00,1.6715
3726.00,1.6790
3725.00,1.6868
3724.00,1.6949
3723.00,1.7038
3722.00,1.7138
3721.00,1.7252
3720.00,1.7376
3719.00,1.7504
3718.00,1.7634
3717.00,1.7764
3716.00,1.7886
3715.00,1.7982
3714.00,1.8047
3713.00,1.8090
3712.00,1.8132
3711.00,1.8180
3710.00,1.8226
3709.00,1.8251
3708.00,1.8247
3707.00,1.8220
3706.00,1.8185
3705.00,1.8152
3704.00,1.8125
3703.00,1.8105
3702.00,1.8088
3701.00,1.8076
3700.00,1.8065
3699.00,1.8053
3698.00,1.8038
3697.00,1.8022
3696.00,1.8006
3695.00,1.7991
3694.00,1.7973
3693.00,1.7950
3692.00,1.7921
3691.00,1.7885
3690.00,1.7841
3689.00,1.7787
3688.00,1.7727
3687.00,1.7663
3686.00,1.7594
3685.00,1.7517
3684.00,1.7434
3683.00,1.7350
3682.00,1.7264
3681.00,1.7174
3680.00,1.7076
3679.00,1.6970
3678.00,1.6858
3677.00,1.6738
3676.00,1.6599
3675.00,1.6443
3674.00,1.6282
3673.00,1.6129
3672.00,1.5980
3671.00,1.5822
3670.00,1.5653
3669.00,1.5482
3668.00,1.5314
3667.00,1.5152
3666.00,1.4990
3665.00,1.4827
3664.00,1.4665
3663.00,1.4505
3662.00,1.4344
3661.00,1.4184
3660.00,1.4027
3659.00,1.3873
3658.00,1.3717
3657.00,1.3555
3656.00,1.3385
3655.00,1.3217
3654.00,1.3062
3653.00,1.2924
3652.00,1.2797
3651.00,1.2670
3650.00,1.2535
3649.00,1.2391
3648.00,1.2248
3647.00,1.2121
3646.00,1.2015
3645.00,1.1925
3644.00,1.1844
3643.00,1.1777
3642.00,1.1724
3641.00,1.1685
3640.00,1.1656
3639.00,1.1632
3638.00,1.1616
3637.00,1.1606
3636.00,1.1604
3635.00,1.1611
3634.00,1.1626
3633.00,1.1647
3632.00,1.1676
3631.00,1.1713
3630.00,1.1764
3629.00,1.1826
3628.00,1.1895
3627.00,1.1968
3626.00,1.2048
3625.00,1.2143
3624.00,1.2257
3623.00,1.2391
3622.00,1.2539
3621.00,1.2697
3620.00,1.2864
3619.00,1.3042
3618.00,1.3227
3617.00,1.3417
3616.00,1.3611
3615.00,1.3808
3614.00,1.4007
3613.00,1.4202
3612.00,1.4383
3611.00,1.4553
3610.00,1.4722
3609.00,1.4894
3608.00,1.5067
3607.00,1.5231
3606.00,1.5381
3605.00,1.5524
3604.00,1.5665
3603.00,1.5808
3602.00,1.5956
3601.00,1.6113
3600.00,1.6276
3599.00,1.6440
3598.00,1.6600
3597.00,1.6757
3596.00,1.6910
3595.00,1.7062
3594.00,1.7213
3593.00,1.7364
3592.00,1.7513
3591.00,1.7658
3590.00,1.7796
3589.00,1.7927
3588.00,1.8052
3587.00,1.8171
3586.00,1.8286
3585.00,1.8399
3584.00,1.8513
3583.00,1.8623
3582.00,1.8728
3581.00,1.8828
3580.00,1.8922
3579.00,1.9007
3578.00,1.9083
3577.00,1.9152
3576.00,1.9215
3575.00,1.9275
3574.00,1.9335
3573.00,1.9392
3572.00,1.9442
3571.00,1.9480
3570.00,1.9510
3569.00,1.9536
3568.00,1.9559
3567.00,1.9576
3566.00,1.9592
3565.00,1.9612
3564.00,1.9633
3563.00,1.9649
3562.00,1.9657
3561.00,1.9657
3560.00,1.9652
3559.00,1.9641
3558.00,1.9626
3557.00,1.9610
3556.00,1.9594
3555.00,1.9573
3554.00,1.9545
3553.00,1.9512
3552.00,1.9477
3551.00,1.9441
3550.00,1.9405
3549.00,1.9365
3548.00,1.9318
3547.00,1.9263
3546.00,1.9203
3545.00,1.9138
3544.00,1.9070
3543.00,1.9000
3542.00,1.8930
3541.00,1.8859
3540.00,1.8783
3539.00,1.8699
3538.00,1.8606
3537.00,1.8509
3536.00,1.8407
3535.00,1.8303
3534.00,1.8197
3533.00,1.8086
3532.00,1.7970
3531.00,1.7844
3530.00,1.7709
3529.00,1.7568
3528.00,1.7423
3527.00,1.7275
3526.00,1.7124
3525.00,1.6964
3524.00,1.6793
3523.00,1.6611
3522.00,1.6423
3521.00,1.6230
3520.00,1.6033
3519.00,1.5829
3518.00,1.5620
3517.00,1.5405
3516.00,1.5187
3515.00,1.4964
3514.00,1.4736
3513.00,1.4502
3512.00,1.4266
3511.00,1.4027
3510.00,1.3786
3509.00,1.3548
3508.00,1.3312
3507.00,1.3080
3506.00,1.2852
3505.00,1.2628
3504.00,1.2411
3503.00,1.2202
3502.00,1.2003
3501.00,1.1816
3500.00,1.1642
3499.00,1.1482
3498.00,1.1337
3497.00,1.1210
3496.00,1.1101
3495.00,1.1012
3494.00,1.0944
3493.00,1.0896
3492.00,1.0870
3491.00,1.0865
3490.00,1.0881
3489.00,1.0919
3488.00,1.0980
3487.00,1.1062
3486.00,1.1163
3485.00,1.1283
3484.00,1.1418
3483.00,1.1569
3482.00,1.1736
3481.00,1.1917
3480.00,1.2110
3479.00,1.2313
3478.00,1.2525
3477.00,1.2743
3476.00,1.2969
3475.00,1.3199
3474.00,1.3434
3473.00,1.3670
3472.00,1.3908
3471.00,1.4146
3470.00,1.4386
3469.00,1.4627
3468.00,1.4866
3467.00,1.5104
3466.00,1.5337
3465.00,1.5566
3464.00,1.5791
3463.00,1.6012
3462.00,1.6229
3461.00,1.6441
3460.00,1.6646
3459.00,1.6844
3458.00,1.7033
3457.00,1.7217
3456.00,1.7395
3455.00,1.7568
3454.00,1.7733
3453.00,1.7887
3452.00,1.8031
3451.00,1.8169
3450.00,1.8304
3449.00,1.8438
3448.00,1.8571
3447.00,1.8699
3446.00,1.8821
3445.00,1.8936
3444.00,1.9044
3443.00,1.9146
3442.00,1.9241
3441.00,1.9329
3440.00,1.9413
3439.00,1.9493
3438.00,1.9571
3437.00,1.9646
3436.00,1.9716
3435.00,1.9776
3434.00,1.9827
3433.00,1.9870
3432.00,1.9906
3431.00,1.9937
3430.00,1.9965
3429.00,1.9995
3428.00,2.0028
3427.00,2.0060
3426.00,2.0087
3425.00,2.0108
3424.00,2.0123
3423.00,2.0133
3422.00,2.0138
3421.00,2.0139
3420.00,2.0135
3419.00,2.0125
3418.00,2.0108
3417.00,2.0085
3416.00,2.0057
3415.00,2.0027
3414.00,1.9995
3413.00,1.9959
3412.00,1.9915
3411.00,1.9863
3410.00,1.9806
3409.00,1.9748
3408.00,1.9688
3407.00,1.9625
3406.00,1.9556
3405.00,1.9482
3404.00,1.9402
3403.00,1.9317
3402.00,1.9227
3401.00,1.9135
3400.00,1.9040
3399.00,1.8941
3398.00,1.8834
3397.00,1.8720
3396.00,1.8598
3395.00,1.8467
3394.00,1.8328
3393.00,1.8181
3392.00,1.8031
3391.00,1.7877
3390.00,1.7717
3389.00,1.7549
3388.00,1.7371
3387.00,1.7184
3386.00,1.6990
3385.00,1.6790
3384.00,1.6583
3383.00,1.6369
3382.00,1.6146
3381.00,1.5916
3380.00,1.5677
3379.00,1.5430
3378.00,1.5177
3377.00,1.4918
3376.00,1.4655
3375.00,1.4388
3374.00,1.4116
3373.00,1.3842
3372.00,1.3566
3371.00,1.3291
3370.00,1.3017
3369.00,1.2748
3368.00,1.2486
3367.00,1.2232
3366.00,1.1989
3365.00,1.1758
3364.00,1.1540
3363.00,1.1339
3362.00,1.1154
3361.00,1.0988
3360.00,1.0842
3359.00,1.0718
3358.00,1.0617
3357.00,1.0541
3356.00,1.0490
3355.00,1.0464
3354.00,1.0465
3353.00,1.0493
3352.00,1.0546
3351.00,1.0626
3350.00,1.0730
3349.00,1.0857
3348.00,1.1003
3347.00,1.1169
3346.00,1.1353
3345.00,1.1554
3344.00,1.1769
3343.00,1.1997
3342.00,1.2235
3341.00,1.2482
3340.00,1.2736
3339.00,1.2997
3338.00,1.3264
3337.00,1.3533
3336.00,1.3804
3335.00,1.4075
3334.00,1.4347
3333.00,1.4618
3332.00,1.4888
3331.00,1.5154
3330.00,1.5416
3329.00,1.5671
3328.00,1.5919
3327.00,1.6161
3326.00,1.6396
3325.00,1.6626
3324.00,1.6848
3323.00,1.7061
3322.00,1.7264
3321.00,1.7458
3320.00,1.7645
3319.00,1.7827
3318.00,1.8003
3317.00,1.8172
3316.00,1.8333
3315.00,1.8489
3314.00,1.8641
3313.00,1.8791
3312.00,1.8938
3311.00,1.9080
3310.00,1.9211
3309.00,1.9331
3308.00,1.9443
3307.00,1.9549
3306.00,1.9654
3305.00,1.9756
3304.00,1.9854
3303.00,1.9947
3302.00,2.0032
3301.00,2.0109
3300.00,2.0176
3299.00,2.0234
3298.00,2.0288
3297.00,2.0342
3296.00,2.0400
3295.00,2.0460
3294.00,2.0515
3293.00,2.0559
3292.00,2.0592
3291.00,2.0619
3290.00,2.0646
3289.00,2.0675
3288.00,2.0700
3287.00,2.0714
3286.00,2.0719
3285.00,2.0721
3284.00,2.0724
3283.00,2.0725
3282.00,2.0720
3281.00,2.0709
3280.00,2.0692
3279.00,2.0670
3278.00,2.0643
3277.00,2.0613
3276.00,2.0582
3275.00,2.0551
3274.00,2.0517
3273.00,2.0477
3272.00,2.0428
3271.00,2.0369
3270.00,2.0304
3269.00,2.0237
3268.00,2.0167
3267.00,2.0089
3266.00,2.0002
3265.00,1.9908
3264.00,1.9812
3263.00,1.9715
3262.00,1.9615
3261.00,1.9509
3260.00,1.9396
3259.00,1.9275
3258.00,1.9149
3257.00,1.9019
3256.00,1.8882
3255.00,1.8736
3254.00,1.8579
3253.00,1.8414
3252.00,1.8243
3251.00,1.8068
3250.00,1.7887
3249.00,1.7700
3248.00,1.7504
3247.00,1.7300
3246.00,1.7088
3245.00,1.6869
3244.00,1.6644
3243.00,1.6412
3242.00,1.6173
3241.00,1.5925
3240.00,1.5669
3239.00,1.5405
3238.00,1.5137
3237.00,1.4865
3236.00,1.4592
3235.00,1.4317
3234.00,1.4043
3233.00,1.3770
3232.00,1.3501
3231.00,1.3237
3230.00,1.2981
3229.00,1.2735
3228.00,1.2501
3227.00,1.2281
3226.00,1.2078
3225.00,1.1894
3224.00,1.1731
3223.00,1.1592
3222.00,1.1477
3221.00,1.1388
3220.00,1.1326
3219.00,1.1292
3218.00,1.1289
3217.00,1.1317
3216.00,1.1375
3215.00,1.1461
3214.00,1.1576
3213.00,1.1717
3212.00,1.1884
3211.00,1.2073
3210.00,1.2282
3209.00,1.2508
3208.00,1.2747
3207.00,1.2996
3206.00,1.3251
3205.00,1.3506
3204.00,1.3757
3203.00,1.4001
3202.00,1.4235
3201.00,1.4458
3200.00,1.4671
3199.00,1.4878
3198.00,1.5082
3197.00,1.5289
3196.00,1.5501
3195.00,1.5719
3194.00,1.5944
3193.00,1.6177
3192.00,1.6415
3191.00,1.6657
3190.00,1.6899
3189.00,1.7137
3188.00,1.7371
3187.00,1.7603
3186.00,1.7832
3185.00,1.8056
3184.00,1.8274
3183.00,1.8483
3182.00,1.8686
3181.00,1.8882
3180.00,1.9072
3179.00,1.9257
3178.00,1.9438
3177.00,1.9614
3176.00,1.9784
3175.00,1.9945
3174.00,2.0100
3173.00,2.0252
3172.00,2.0404
3171.00,2.0554
3170.00,2.0704
3169.00,2.0851
3168.00,2.0989
3167.00,2.1107
3166.00,2.1198
3165.00,2.1263
3164.00,2.1299
3163.00,2.1307
3162.00,2.1292
3161.00,2.1267
3160.00,2.1247
3159.00,2.1239
3158.00,2.1243
3157.00,2.1256
3156.00,2.1277
3155.00,2.1305
3154.00,2.1341
3153.00,2.1383
3152.00,2.1424
3151.00,2.1457
3150.00,2.1482
3149.00,2.1505
3148.00,2.1525
3147.00,2.1539
3146.00,2.1545
3145.00,2.1547
3144.00,2.1551
3143.00,2.1551
3142.00,2.1540
3141.00,2.1517
3140.00,2.1488
3139.00,2.1460
3138.00,2.1433
3137.00,2.1401
3136.00,2.1358
3135.00,2.1306
3134.00,2.1246
3133.00,2.1183
3132.00,2.1120
3131.00,2.1057
3130.00,2.0994
3129.00,2.0928
3128.00,2.0857
3127.00,2.0779
3126.00,2.0696
3125.00,2.0606
3124.00,2.0510
3123.00,2.0406
3122.00,2.0295
3121.00,2.0179
3120.00,2.0058
3119.00,1.9930
3118.00,1.9794
3117.00,1.9653
3116.00,1.9510
3115.00,1.9365
3114.00,1.9217
3113.00,1.9059
3112.00,1.8888
3111.00,1.8705
3110.00,1.8513
3109.00,1.8315
3108.00,1.8113
3107.00,1.7906
3106.00,1.7693
3105.00,1.7474
3104.00,1.7249
3103.00,1.7019
3102.00,1.6785
3101.00,1.6546
3100.00,1.6303
3099.00,1.6057
3098.00,1.5807
3097.00,1.5557
3096.00,1.5309
3095.00,1.5063
3094.00,1.4822
3093.00,1.4588
3092.00,1.4363
3091.00,1.4147
3090.00,1.3941
3089.00,1.3748
3088.00,1.3569
3087.00,1.3407
3086.00,1.3265
3085.00,1.3141
3084.00,1.3038
3083.00,1.2955
3082.00,1.2895
3081.00,1.2861
3080.00,1.2853
3079.00,1.2870
3078.00,1.2911
3077.00,1.2974
3076.00,1.3060
3075.00,1.3168
3074.00,1.3297
3073.00,1.3445
3072.00,1.3612
3071.00,1.3796
3070.00,1.3996
3069.00,1.4209
3068.00,1.4432
3067.00,1.4664
3066.00,1.4903
3065.00,1.5151
3064.00,1.5404
3063.00,1.5662
3062.00,1.5922
3061.00,1.6183
3060.00,1.6443
3059.00,1.6700
3058.00,1.6954
3057.00,1.7204
3056.00,1.7451
3055.00,1.7696
3054.00,1.7939
3053.00,1.8178
3052.00,1.8408
3051.00,1.8627
3050.00,1.8836
3049.00,1.9037
3048.00,1.9234
3047.00,1.9429
3046.00,1.9623
3045.00,1.9818
3044.00,2.0011
3043.00,2.0194
3042.00,2.0363
3041.00,2.0520
3040.00,2.0671
3039.00,2.0815
3038.00,2.0951
3037.00,2.1081
3036.00,2.1207
3035.00,2.1332
3034.00,2.1454
3033.00,2.1574
3032.00,2.1691
3031.00,2.1802
3030.00,2.1903
3029.00,2.1992
3028.00,2.2076
3027.00,2.2157
3026.00,2.2236
3025.00,2.2310
3024.00,2.2381
3023.00,2.2449
3022.00,2.2513
3021.00,2.2572
3020.00,2.2625
3019.00,2.2672
3018.00,2.2715
3017.00,2.2756
3016.00,2.2796
3015.00,2.2838
3014.00,2.2885
3013.00,2.2936
3012.00,2.2987
3011.00,2.3031
3010.00,2.3068
3009.00,2.3101
3008.00,2.3134
3007.00,2.3163
3006.00,2.3185
3005.00,2.3199
3004.00,2.3208
3003.00,2.3215
3002.00,2.3220
3001.00,2.3219
3000.00,2.3209
2999.00,2.3187
2998.00,2.3153
2997.00,2.3107
2996.00,2.3050
2995.00,2.2982
2994.00,2.2907
2993.00,2.2826
2992.00,2.2742
2991.00,2.2656
2990.00,2.2566
2989.00,2.2471
2988.00,2.2367
2987.00,2.2258
2986.00,2.2147
2985.00,2.2035
2984.00,2.1920
2983.00,2.1797
2982.00,2.1668
2981.00,2.1537
2980.00,2.1408
2979.00,2.1280
2978.00,2.1153
2977.00,2.1028
2976.00,2.0911
2975.00,2.0810
2974.00,2.0727
2973.00,2.0662
2972.00,2.0607
2971.00,2.0560
2970.00,2.0527
2969.00,2.0514
2968.00,2.0522
2967.00,2.0543
2966.00,2.0570
2965.00,2.0602
2964.00,2.0640
2963.00,2.0684
2962.00,2.0734
2961.00,2.0787
2960.00,2.0848
2959.00,2.0920
2958.00,2.1010
2957.00,2.1121
2956.00,2.1254
2955.00,2.1406
2954.00,2.1573
2953.00,2.1754
2952.00,2.1950
2951.00,2.2163
2950.00,2.2399
2949.00,2.2658
2948.00,2.2934
2947.00,2.3210
2946.00,2.3464
2945.00,2.3671
2944.00,2.3805
2943.00,2.3845
2942.00,2.3784
2941.00,2.3631
2940.00,2.3405
2939.00,2.3130
2938.00,2.2830
2937.00,2.2522
2936.00,2.2213
2935.00,2.1900
2934.00,2.1583
2933.00,2.1263
2932.00,2.0944
2931.00,2.0628
2930.00,2.0314
2929.00,2.0006
2928.00,1.9703
2927.00,1.9406
2926.00,1.9116
2925.00,1.8835
2924.00,1.8567
2923.00,1.8314
2922.00,1.8077
2921.00,1.7854
2920.00,1.7650
2919.00,1.7471
2918.00,1.7322
2917.00,1.7208
2916.00,1.7132
2915.00,1.7093
2914.00,1.7086
2913.00,1.7109
2912.00,1.7159
2911.00,1.7232
2910.00,1.7324
2909.00,1.7433
2908.00,1.7558
2907.00,1.7699
2906.00,1.7854
2905.00,1.8019
2904.00,1.8191
2903.00,1.8366
2902.00,1.8547
2901.00,1.8736
2900.00,1.8933
2899.00,1.9130
2898.00,1.9323
2897.00,1.9514
2896.00,1.9705
2895.00,1.9898
2894.00,2.0091
2893.00,2.0287
2892.00,2.0485
2891.00,2.0688
2890.00,2.0889
2889.00,2.1081
2888.00,2.1263
2887.00,2.1436
2886.00,2.1607
2885.00,2.1775
2884.00,2.1937
2883.00,2.2091
2882.00,2.2243
2881.00,2.2395
2880.00,2.2547
2879.00,2.2693
2878.00,2.2828
2877.00,2.2953
2876.00,2.3073
2875.00,2.3188
2874.00,2.3292
2873.00,2.3384
2872.00,2.3460
2871.00,2.3520
2870.00,2.3563
2869.00,2.3596
2868.00,2.3627
2867.00,2.3658
2866.00,2.3686
2865.00,2.3704
2864.00,2.3708
2863.00,2.3699
2862.00,2.3681
2861.00,2.3662
2860.00,2.3648
2859.00,2.3639
2858.00,2.3629
2857.00,2.3614
2856.00,2.3595
2855.00,2.3579
2854.00,2.3570
2853.00,2.3563
2852.00,2.3553
2851.00,2.3538
2850.00,2.3520
2849.00,2.3496
2848.00,2.3464
2847.00,2.3424
2846.00,2.3382
2845.00,2.3342
2844.00,2.3303
2843.00,2.3264
2842.00,2.3221
2841.00,2.3174
2840.00,2.3122
2839.00,2.3064
2838.00,2.2999
2837.00,2.2927
2836.00,2.2851
2835.00,2.2775
2834.00,2.2697
2833.00,2.2607
2832.00,2.2499
2831.00,2.2378
2830.00,2.2251
2829.00,2.2124
2828.00,2.1994
2827.00,2.1856
2826.00,2.1708
2825.00,2.1552
2824.00,2.1389
2823.00,2.1221
2822.00,2.1048
2821.00,2.0866
2820.00,2.0671
2819.00,2.0460
2818.00,2.0236
2817.00,2.0002
2816.00,1.9759
2815.00,1.9508
2814.00,1.9246
2813.00,1.8972
2812.00,1.8685
2811.00,1.8383
2810.00,1.8068
2809.00,1.7738
2808.00,1.7396
2807.00,1.7041
2806.00,1.6676
2805.00,1.6301
2804.00,1.5918
2803.00,1.5531
2802.00,1.5143
2801.00,1.4756
2800.00,1.4374
2799.00,1.3998
2798.00,1.3632
2797.00,1.3278
2796.00,1.2942
2795.00,1.2626
2794.00,1.2336
2793.00,1.2076
2792.00,1.1852
2791.00,1.1667
2790.00,1.1526
2789.00,1.1431
2788.00,1.1386
2787.00,1.1390
2786.00,1.1442
2785.00,1.1542
2784.00,1.1686
2783.00,1.1872
2782.00,1.2096
2781.00,1.2354
2780.00,1.2641
2779.00,1.2952
2778.00,1.3283
2777.00,1.3629
2776.00,1.3988
2775.00,1.4358
2774.00,1.4735
2773.00,1.5118
2772.00,1.5503
2771.00,1.5889
2770.00,1.6271
2769.00,1.6649
2768.00,1.7019
2767.00,1.7380
2766.00,1.7731
2765.00,1.8071
2764.00,1.8401
2763.00,1.8716
2762.00,1.9016
2761.00,1.9301
2760.00,1.9573
2759.00,1.9836
2758.00,2.0092
2757.00,2.0341
2756.00,2.0580
2755.00,2.0807
2754.00,2.1017
2753.00,2.1213
2752.00,2.1398
2751.00,2.1578
2750.00,2.1755
2749.00,2.1928
2748.00,2.2094
2747.00,2.2251
2746.00,2.2400
2745.00,2.2540
2744.00,2.2671
2743.00,2.2793
2742.00,2.2909
2741.00,2.3021
2740.00,2.3131
2739.00,2.3237
2738.00,2.3338
2737.00,2.3432
2736.00,2.3518
2735.00,2.3590
2734.00,2.3647
2733.00,2.3694
2732.00,2.3739
2731.00,2.3790
2730.00,2.3845
2729.00,2.3899
2728.00,2.3947
2727.00,2.3990
2726.00,2.4030
2725.00,2.4067
2724.00,2.4093
2723.00,2.4108
2722.00,2.4116
2721.00,2.4125
2720.00,2.4135
2719.00,2.4142
2718.00,2.4144
2717.00,2.4141
2716.00,2.4133
2715.00,2.4119
2714.00,2.4096
2713.00,2.4063
2712.00,2.4020
2711.00,2.3972
2710.00,2.3925
2709.00,2.3880
2708.00,2.3835
2707.00,2.3785
2706.00,2.3729
2705.00,2.3667
2704.00,2.3598
2703.00,2.3523
2702.00,2.3444
2701.00,2.3360
2700.00,2.3268
2699.00,2.3169
2698.00,2.3062
2697.00,2.2948
2696.00,2.2824
2695.00,2.2690
2694.00,2.2551
2693.00,2.2410
2692.00,2.2265
2691.00,2.2110
2690.00,2.1946
2689.00,2.1775
2688.00,2.1599
2687.00,2.1417
2686.00,2.1225
2685.00,2.1019
2684.00,2.0799
2683.00,2.0566
2682.00,2.0326
2681.00,2.0079
2680.00,1.9824
2679.00,1.9557
2678.00,1.9276
2677.00,1.8979
2676.00,1.8669
2675.00,1.8345
2674.00,1.8006
2673.00,1.7653
2672.00,1.7286
2671.00,1.6902
2670.00,1.6503
2669.00,1.6088
2668.00,1.5660
2667.00,1.5222
2666.00,1.4778
2665.00,1.4336
2664.00,1.3901
2663.00,1.3481
2662.00,1.3081
2661.00,1.2708
2660.00,1.2367
2659.00,1.2063
2658.00,1.1799
2657.00,1.1579
2656.00,1.1407
2655.00,1.1285
2654.00,1.1218
2653.00,1.1207
2652.00,1.1253
2651.00,1.1355
2650.00,1.1510
2649.00,1.1715
2648.00,1.1966
2647.00,1.2258
2646.00,1.2585
2645.00,1.2943
2644.00,1.3325
2643.00,1.3728
2642.00,1.4149
2641.00,1.4583
2640.00,1.5028
2639.00,1.5479
2638.00,1.5931
2637.00,1.6384
2636.00,1.6836
2635.00,1.7286
2634.00,1.7729
2633.00,1.8161
2632.00,1.8573
2631.00,1.8959
2630.00,1.9309
2629.00,1.9616
2628.00,1.9876
2627.00,2.0096
2626.00,2.0291
2625.00,2.0477
2624.00,2.0668
2623.00,2.0868
2622.00,2.1076
2621.00,2.1286
2620.00,2.1492
2619.00,2.1691
2618.00,2.1883
2617.00,2.2072
2616.00,2.2255
2615.00,2.2431
2614.00,2.2603
2613.00,2.2772
2612.00,2.2938
2611.00,2.3100
2610.00,2.3255
2609.00,2.3404
2608.00,2.3543
2607.00,2.3668
2606.00,2.3782
2605.00,2.3893
2604.00,2.4005
2603.00,2.4117
2602.00,2.4225
2601.00,2.4326
2600.00,2.4418
2599.00,2.4497
2598.00,2.4565
2597.00,2.4634
2596.00,2.4709
2595.00,2.4788
2594.00,2.4857
2593.00,2.4908
2592.00,2.4944
2591.00,2.4968
2590.00,2.4983
2589.00,2.4995
2588.00,2.5010
2587.00,2.5031
2586.00,2.5058
2585.00,2.5083
2584.00,2.5099
2583.00,2.5102
2582.00,2.5096
2581.00,2.5080
2580.00,2.5055
2579.00,2.5027
2578.00,2.5004
2577.00,2.4991
2576.00,2.4980
2575.00,2.4965
2574.00,2.4945
2573.00,2.4918
2572.00,2.4880
2571.00,2.4826
2570.00,2.4759
2569.00,2.4693
2568.00,2.4631
2567.00,2.4570
2566.00,2.4503
2565.00,2.4427
2564.00,2.4340
2563.00,2.4244
2562.00,2.4140
2561.00,2.4032
2560.00,2.3921
2559.00,2.3803
2558.00,2.3675
2557.00,2.3537
2556.00,2.3393
2555.00,2.3244
2554.00,2.3091
2553.00,2.2931
2552.00,2.2761
2551.00,2.2579
2550.00,2.2387
2549.00,2.2188
2548.00,2.1984
2547.00,2.1769
2546.00,2.1540
2545.00,2.1295
2544.00,2.1035
2543.00,2.0761
2542.00,2.0475
2541.00,2.0179
2540.00,1.9874
2539.00,1.9555
2538.00,1.9216
2537.00,1.8855
2536.00,1.8474
2535.00,1.8076
2534.00,1.7660
2533.00,1.7227
2532.00,1.6778
2531.00,1.6319
2530.00,1.5853
2529.00,1.5389
2528.00,1.4929
2527.00,1.4480
2526.00,1.4045
2525.00,1.3629
2524.00,1.3240
2523.00,1.2883
2522.00,1.2564
2521.00,1.2286
2520.00,1.2056
2519.00,1.1877
2518.00,1.1753
2517.00,1.1689
2516.00,1.1687
2515.00,1.1747
2514.00,1.1868
2513.00,1.2047
2512.00,1.2280
2511.00,1.2560
2510.00,1.2879
2509.00,1.3233
2508.00,1.3614
2507.00,1.4018
2506.00,1.4439
2505.00,1.4871
2504.00,1.5313
2503.00,1.5762
2502.00,1.6213
2501.00,1.6666
2500.00,1.7114
2499.00,1.7553
2498.00,1.7977
2497.00,1.8389
2496.00,1.8789
2495.00,1.9179
2494.00,1.9554
2493.00,1.9912
2492.00,2.0250
2491.00,2.0570
2490.00,2.0877
2489.00,2.1173
2488.00,2.1460
2487.00,2.1734
2486.00,2.1992
2485.00,2.2236
2484.00,2.2465
2483.00,2.2683
2482.00,2.2889
2481.00,2.3086
2480.00,2.3274
2479.00,2.3457
2478.00,2.3638
2477.00,2.3818
2476.00,2.3990
2475.00,2.4147
2474.00,2.4290
2473.00,2.4426
2472.00,2.4565
2471.00,2.4704
2470.00,2.4835
2469.00,2.4946
2468.00,2.5038
2467.00,2.5126
2466.00,2.5224
2465.00,2.5329
2464.00,2.5427
2463.00,2.5506
2462.00,2.5569
2461.00,2.5631
2460.00,2.5696
2459.00,2.5756
2458.00,2.5805
2457.00,2.5846
2456.00,2.5888
2455.00,2.5937
2454.00,2.5993
2453.00,2.6052
2452.00,2.6103
2451.00,2.6135
2450.00,2.6146
2449.00,2.6142
2448.00,2.6133
2447.00,2.6123
2446.00,2.6113
2445.00,2.6105
2444.00,2.6102
2443.00,2.6105
2442.00,2.6107
2441.00,2.6098
2440.00,2.6073
2439.00,2.6034
2438.00,2.5993
2437.00,2.5957
2436.00,2.5922
2435.00,2.5878
2434.00,2.5824
2433.00,2.5764
2432.00,2.5701
2431.00,2.5634
2430.00,2.5561
2429.00,2.5482
2428.00,2.5394
2427.00,2.5298
2426.00,2.5197
2425.00,2.5095
2424.00,2.4993
2423.00,2.4885
2422.00,2.4770
2421.00,2.4651
2420.00,2.4529
2419.00,2.4407
2418.00,2.4281
2417.00,2.4148
2416.00,2.4003
2415.00,2.3845
2414.00,2.3682
2413.00,2.3522
2412.00,2.3363
2411.00,2.3200
2410.00,2.3025
2409.00,2.2836
2408.00,2.2634
2407.00,2.2416
2406.00,2.2182
2405.00,2.1934
2404.00,2.1676
2403.00,2.1406
2402.00,2.1118
2401.00,2.0808
2400.00,2.0474
2399.00,2.0118
2398.00,1.9742
2397.00,1.9347
2396.00,1.8931
2395.00,1.8494
2394.00,1.8039
2393.00,1.7569
2392.00,1.7092
2391.00,1.6612
2390.00,1.6138
2389.00,1.5682
2388.00,1.5254
2387.00,1.4871
2386.00,1.4543
2385.00,1.4283
2384.00,1.4097
2383.00,1.3988
2382.00,1.3951
2381.00,1.3976
2380.00,1.4042
2379.00,1.4124
2378.00,1.4195
2377.00,1.4235
2376.00,1.4236
2375.00,1.4200
2374.00,1.4136
2373.00,1.4062
2372.00,1.4002
2371.00,1.3981
2370.00,1.4005
2369.00,1.4062
2368.00,1.4147
2367.00,1.4259
2366.00,1.4378
2365.00,1.4475
2364.00,1.4591
2363.00,1.4687
2362.00,1.4833
2361.00,1.4846
2360.00,1.5152
2359.00,1.4937
2358.00,1.8874
2357.00,2.1595
2356.00,2.0843
2355.00,2.1788
2354.00,2.1755
2353.00,2.2280
2352.00,2.2473
2351.00,2.2818
2350.00,2.3075
2349.00,2.3316
2348.00,2.3531
2347.00,2.3732
2346.00,2.3936
2345.00,2.4151
2344.00,2.4373
2343.00,2.4587
2342.00,2.4781
2341.00,2.4950
2340.00,2.5100
2339.00,2.5242
2338.00,2.5385
2337.00,2.5532
2336.00,2.5677
2335.00,2.5808
2334.00,2.5920
2333.00,2.6020
2332.00,2.6121
2331.00,2.6234
2330.00,2.6364
2329.00,2.6500
2328.00,2.6617
2327.00,2.6696
2326.00,2.6744
2325.00,2.6785
2324.00,2.6834
2323.00,2.6890
2322.00,2.6945
2321.00,2.6995
2320.00,2.7047
2319.00,2.7078
2318.00,2.7127
2317.00,2.7120
2316.00,2.7202
2315.00,2.7077
2314.00,2.8357
2313.00,2.8831
2312.00,2.8845
2311.00,2.9008
2310.00,2.9030
2309.00,2.9075
2308.00,2.9070
2307.00,2.9036
2306.00,2.8953
2305.00,2.8830
2304.00,2.8682
2303.00,2.8519
2302.00,2.8344
2301.00,2.8179
2300.00,2.8044
2299.00,2.7950
2298.00,2.7903
2297.00,2.7901
2296.00,2.7952
2295.00,2.8039
2294.00,2.8145
2293.00,2.8224
2292.00,2.8247
2291.00,2.8186
2290.00,2.8050
2289.00,2.7855
2288.00,2.7624
2287.00,2.7375
2286.00,2.7133
2285.00,2.6915
2284.00,2.6710
2283.00,2.6487
2282.00,2.6213
2281.00,2.5887
2280.00,2.5525
2279.00,2.5145
2278.00,2.4756
2277.00,2.4361
2276.00,2.3954
2275.00,2.3529
2274.00,2.3080
2273.00,2.2606
2272.00,2.2109
2271.00,2.1586
2270.00,2.1044
2269.00,2.0500
2268.00,1.9994
2267.00,1.9573
2266.00,1.9292
2265.00,1.9198
2264.00,1.9336
2263.00,1.9732
2262.00,2.0407
2261.00,2.1363
2260.00,2.2592
2259.00,2.4074
2258.00,2.5785
2257.00,2.7712
2256.00,2.9851
2255.00,3.2195
2254.00,3.4604
2253.00,3.6497
2252.00,3.6869
2251.00,3.5754
2250.00,3.4183
2249.00,3.2708
2248.00,3.1434
2247.00,3.0323
2246.00,2.9337
2245.00,2.8456
2244.00,2.7663
2243.00,2.6927
2242.00,2.6215
2241.00,2.5498
2240.00,2.4767
2239.00,2.4017
2238.00,2.3245
2237.00,2.2452
2236.00,2.1635
2235.00,2.0798
2234.00,1.9945
2233.00,1.9092
2232.00,1.8260
2231.00,1.7474
2230.00,1.6759
2229.00,1.6129
2228.00,1.5591
2227.00,1.5146
2226.00,1.4799
2225.00,1.4558
2224.00,1.4431
2223.00,1.4422
2222.00,1.4531
2221.00,1.4749
2220.00,1.5064
2219.00,1.5457
2218.00,1.5911
2217.00,1.6409
2216.00,1.6938
2215.00,1.7486
2214.00,1.8045
2213.00,1.8609
2212.00,1.9170
2211.00,1.9720
2210.00,2.0255
2209.00,2.0771
2208.00,2.1265
2207.00,2.1734
2206.00,2.2169
2205.00,2.2561
2204.00,2.2905
2203.00,2.3207
2202.00,2.3478
2201.00,2.3729
2200.00,2.3969
2199.00,2.4205
2198.00,2.4442
2197.00,2.4684
2196.00,2.4923
2195.00,2.5152
2194.00,2.5368
2193.00,2.5577
2192.00,2.5781
2191.00,2.5973
2190.00,2.6146
2189.00,2.6300
2188.00,2.6448
2187.00,2.6600
2186.00,2.6753
2185.00,2.6897
2184.00,2.7023
2183.00,2.7135
2182.00,2.7242
2181.00,2.7345
2180.00,2.7437
2179.00,2.7514
2178.00,2.7583
2177.00,2.7652
2176.00,2.7721
2175.00,2.7789
2174.00,2.7857
2173.00,2.7928
2172.00,2.8002
2171.00,2.8073
2170.00,2.8129
2169.00,2.8166
2168.00,2.8187
2167.00,2.8207
2166.00,2.8237
2165.00,2.8275
2164.00,2.8303
2163.00,2.8304
2162.00,2.8276
2161.00,2.8230
2160.00,2.8184
2159.00,2.8151
2158.00,2.8132
2157.00,2.8117
2156.00,2.8093
2155.00,2.8059
2154.00,2.8026
2153.00,2.7998
2152.00,2.7962
2151.00,2.7906
2150.00,2.7838
2149.00,2.7776
2148.00,2.7728
2147.00,2.7679
2146.00,2.7613
2145.00,2.7530
2144.00,2.7439
2143.00,2.7344
2142.00,2.7241
2141.00,2.7123
2140.00,2.6992
2139.00,2.6858
2138.00,2.6729
2137.00,2.6604
2136.00,2.6466
2135.00,2.6303
2134.00,2.6124
2133.00,2.5943
2132.00,2.5771
2131.00,2.5600
2130.00,2.5418
2129.00,2.5219
2128.00,2.5003
2127.00,2.4775
2126.00,2.4537
2125.00,2.4290
2124.00,2.4037
2123.00,2.3772
2122.00,2.3490
2121.00,2.3186
2120.00,2.2860
2119.00,2.2513
2118.00,2.2148
2117.00,2.1764
2116.00,2.1355
2115.00,2.0916
2114.00,2.0448
2113.00,1.9956
2112.00,1.9446
2111.00,1.8916
2110.00,1.8369
2109.00,1.7808
2108.00,1.7243
2107.00,1.6682
2106.00,1.6137
2105.00,1.5618
2104.00,1.5135
2103.00,1.4697
2102.00,1.4311
2101.00,1.3985
2100.00,1.3727
2099.00,1.3545
2098.00,1.3442
2097.00,1.3424
2096.00,1.3493
2095.00,1.3647
2094.00,1.3880
2093.00,1.4186
2092.00,1.4553
2091.00,1.4970
2090.00,1.5423
2089.00,1.5906
2088.00,1.6414
2087.00,1.6942
2086.00,1.7486
2085.00,1.8037
2084.00,1.8587
2083.00,1.9130
2082.00,1.9665
2081.00,2.0187
2080.00,2.0693
2079.00,2.1176
2078.00,2.1631
2077.00,2.2057
2076.00,2.2458
2075.00,2.2835
2074.00,2.3191
2073.00,2.3530
2072.00,2.3852
2071.00,2.4155
2070.00,2.4437
2069.00,2.4704
2068.00,2.4961
2067.00,2.5208
2066.00,2.5436
2065.00,2.5640
2064.00,2.5829
2063.00,2.6020
2062.00,2.6221
2061.00,2.6426
2060.00,2.6620
2059.00,2.6794
2058.00,2.6954
2057.00,2.7111
2056.00,2.7268
2055.00,2.7420
2054.00,2.7562
2053.00,2.7705
2052.00,2.7854
2051.00,2.8001
2050.00,2.8117
2049.00,2.8189
2048.00,2.8233
2047.00,2.8283
2046.00,2.8359
2045.00,2.8454
2044.00,2.8551
2043.00,2.8628
2042.00,2.8675
2041.00,2.8695
2040.00,2.8719
2039.00,2.8778
2038.00,2.8876
2037.00,2.8978
2036.00,2.9051
2035.00,2.9096
2034.00,2.9142
2033.00,2.9194
2032.00,2.9227
2031.00,2.9222
2030.00,2.9202
2029.00,2.9202
2028.00,2.9232
2027.00,2.9278
2026.00,2.9326
2025.00,2.9366
2024.00,2.9379
2023.00,2.9347
2022.00,2.9277
2021.00,2.9201
2020.00,2.9147
2019.00,2.9120
2018.00,2.9104
2017.00,2.9075
2016.00,2.9025
2015.00,2.8963
2014.00,2.8907
2013.00,2.8861
2012.00,2.8809
2011.00,2.8740
2010.00,2.8660
2009.00,2.8583
2008.00,2.8501
2007.00,2.8396
2006.00,2.8268
2005.00,2.8140
2004.00,2.8028
2003.00,2.7925
2002.00,2.7809
2001.00,2.7671
2000.00,2.7516
1999.00,2.7356
1998.00,2.7206
1997.00,2.7070
1996.00,2.6935
1995.00,2.6779
1994.00,2.6596
1993.00,2.6385
1992.00,2.6149
1991.00,2.5893
1990.00,2.5636
1989.00,2.5396
1988.00,2.5163
1987.00,2.4911
1986.00,2.4630
1985.00,2.4328
1984.00,2.4012
1983.00,2.3679
1982.00,2.3322
1981.00,2.2947
1980.00,2.2561
1979.00,2.2158
1978.00,2.1731
1977.00,2.1276
1976.00,2.0788
1975.00,2.0267
1974.00,1.9718
1973.00,1.9152
1972.00,1.8577
1971.00,1.7998
1970.00,1.7424
1969.00,1.6866
1968.00,1.6327
1967.00,1.5814
1966.00,1.5342
1965.00,1.4939
1964.00,1.4630
1963.00,1.4412
1962.00,1.4274
1961.00,1.4211
1960.00,1.4231
1959.00,1.4344
1958.00,1.4550
1957.00,1.4839
1956.00,1.5197
1955.00,1.5610
1954.00,1.6068
1953.00,1.6565
1952.00,1.7097
1951.00,1.7654
1950.00,1.8220
1949.00,1.8785
1948.00,1.9345
1947.00,1.9897
1946.00,2.0433
1945.00,2.0950
1944.00,2.1451
1943.00,2.1933
1942.00,2.2390
1941.00,2.2816
1940.00,2.3228
1939.00,2.3634
1938.00,2.4025
1937.00,2.4387
1936.00,2.4721
1935.00,2.5040
1934.00,2.5351
1933.00,2.5654
1932.00,2.5947
1931.00,2.6222
1930.00,2.6466
1929.00,2.6678
1928.00,2.6880
1927.00,2.7087
1926.00,2.7297
1925.00,2.7498
1924.00,2.7687
1923.00,2.7858
1922.00,2.8008
1921.00,2.8162
1920.00,2.8352
1919.00,2.8565
1918.00,2.8737
1917.00,2.8844
1916.00,2.8931
1915.00,2.9048
1914.00,2.9183
1913.00,2.9296
1912.00,2.9386
1911.00,2.9479
1910.00,2.9564
1909.00,2.9610
1908.00,2.9626
1907.00,2.9664
1906.00,2.9762
1905.00,2.9893
1904.00,3.0017
1903.00,3.0107
1902.00,3.0154
1901.00,3.0166
1900.00,3.0170
1899.00,3.0191
1898.00,3.0228
1897.00,3.0255
1896.00,3.0256
1895.00,3.0243
1894.00,3.0239
1893.00,3.0262
1892.00,3.0315
1891.00,3.0381
1890.00,3.0427
1889.00,3.0437
1888.00,3.0428
1887.00,3.0423
1886.00,3.0411
1885.00,3.0363
1884.00,3.0275
1883.00,3.0182
1882.00,3.0118
1881.00,3.0093
1880.00,3.0092
1879.00,3.0080
1878.00,3.0032
1877.00,2.9946
1876.00,2.9848
1875.00,2.9760
1874.00,2.9677
1873.00,2.9588
1872.00,2.9508
1871.00,2.9445
1870.00,2.9392
1869.00,2.9327
1868.00,2.9243
1867.00,2.9140
1866.00,2.9028
1865.00,2.8905
1864.00,2.8756
1863.00,2.8566
1862.00,2.8343
1861.00,2.8110
1860.00,2.7890
1859.00,2.7690
1858.00,2.7500
1857.00,2.7312
1856.00,2.7126
1855.00,2.6931
1854.00,2.6705
1853.00,2.6445
1852.00,2.6172
1851.00,2.5897
1850.00,2.5610
1849.00,2.5292
1848.00,2.4939
1847.00,2.4574
1846.00,2.4201
1845.00,2.3800
1844.00,2.3354
1843.00,2.2884
1842.00,2.2423
1841.00,2.1974
1840.00,2.1513
1839.00,2.1010
1838.00,2.0454
1837.00,1.9872
1836.00,1.9299
1835.00,1.8750
1834.00,1.8227
1833.00,1.7747
1832.00,1.7323
1831.00,1.6962
1830.00,1.6671
1829.00,1.6450
1828.00,1.6305
1827.00,1.6243
1826.00,1.6242
1825.00,1.6270
1824.00,1.6338
1823.00,1.6486
1822.00,1.6734
1821.00,1.7063
1820.00,1.7451
1819.00,1.7896
1818.00,1.8397
1817.00,1.8941
1816.00,1.9508
1815.00,2.0088
1814.00,2.0671
1813.00,2.1245
1812.00,2.1789
1811.00,2.2302
1810.00,2.2795
1809.00,2.3283
1808.00,2.3761
1807.00,2.4201
1806.00,2.4599
1805.00,2.4969
1804.00,2.5322
1803.00,2.5655
1802.00,2.5971
1801.00,2.6292
1800.00,2.6628
1799.00,2.6982
1798.00,2.7330
1797.00,2.7617
1796.00,2.7812
1795.00,2.7947
1794.00,2.8096
1793.00,2.8299
1792.00,2.8543
1791.00,2.8798
1790.00,2.9054
1789.00,2.9310
1788.00,2.9541
1787.00,2.9712
1786.00,2.9826
1785.00,2.9909
1784.00,2.9981
1783.00,3.0072
1782.00,3.0210
1781.00,3.0379
1780.00,3.0504
1779.00,3.0579
1778.00,3.0671
1777.00,3.0824
1776.00,3.0997
1775.00,3.1122
1774.00,3.1170
1773.00,3.1149
1772.00,3.1122
1771.00,3.1199
1770.00,3.1427
1769.00,3.1701
1768.00,3.1845
1767.00,3.1787
1766.00,3.1637
1765.00,3.1537
1764.00,3.1514
1763.00,3.1529
1762.00,3.1581
1761.00,3.1687
1760.00,3.1807
1759.00,3.1876
1758.00,3.1863
1757.00,3.1788
1756.00,3.1684
1755.00,3.1599
1754.00,3.1589
1753.00,3.1626
1752.00,3.1619
1751.00,3.1510
1750.00,3.1340
1749.00,3.1188
1748.00,3.1098
1747.00,3.1060
1746.00,3.1042
1745.00,3.1008
1744.00,3.0931
1743.00,3.0829
1742.00,3.0746
1741.00,3.0700
1740.00,3.0653
1739.00,3.0548
1738.00,3.0384
1737.00,3.0215
1736.00,3.0043
1735.00,2.9763
1734.00,2.9304
1733.00,2.8776
1732.00,2.8355
1731.00,2.8153
1730.00,2.8152
1729.00,2.8205
1728.00,2.8183
1727.00,2.8090
1726.00,2.8005
1725.00,2.7959
1724.00,2.7970
1723.00,2.8084
1722.00,2.8347
1721.00,2.8787
1720.00,2.9402
1719.00,3.0136
1718.00,3.0930
1717.00,3.1773
1716.00,3.2713
1715.00,3.3845
1714.00,3.5201
1713.00,3.6654
1712.00,3.7992
1711.00,3.9086
1710.00,3.9961
1709.00,4.0456
1708.00,4.0235
1707.00,3.9574
1706.00,3.8935
1705.00,3.8298
1704.00,3.7499
1703.00,3.6619
1702.00,3.5763
1701.00,3.4839
1700.00,3.3896
1699.00,3.3206
1698.00,3.2705
1697.00,3.2075
1696.00,3.1191
1695.00,3.0177
1694.00,2.9399
1693.00,2.9044
1692.00,2.8902
1691.00,2.8686
1690.00,2.8250
1689.00,2.7648
1688.00,2.7033
1687.00,2.6440
1686.00,2.5741
1685.00,2.4783
1684.00,2.3722
1683.00,2.2921
1682.00,2.2552
1681.00,2.2428
1680.00,2.2176
1679.00,2.1703
1678.00,2.1188
1677.00,2.0779
1676.00,2.0478
1675.00,2.0237
1674.00,2.0088
1673.00,2.0047
1672.00,2.0092
1671.00,2.0229
1670.00,2.0467
1669.00,2.0798
1668.00,2.1199
1667.00,2.1617
1666.00,2.2010
1665.00,2.2391
1664.00,2.2820
1663.00,2.3330
1662.00,2.3909
1661.00,2.4504
1660.00,2.5052
1659.00,2.5538
1658.00,2.5972
1657.00,2.6375
1656.00,2.6785
1655.00,2.7166
1654.00,2.7403
1653.00,2.7493
1652.00,2.7601
1651.00,2.7834
1650.00,2.8185
1649.00,2.8737
1648.00,2.9439
1647.00,2.9940
1646.00,3.0111
1645.00,3.0155
1644.00,3.0269
1643.00,3.0461
1642.00,3.0695
1641.00,3.0938
1640.00,3.1105
1639.00,3.1236
1638.00,3.1410
1637.00,3.1616
1636.00,3.1787
1635.00,3.1892
1634.00,3.1988
1633.00,3.2098
1632.00,3.2164
1631.00,3.2180
1630.00,3.2166
1629.00,3.2150
1628.00,3.2204
1627.00,3.2339
1626.00,3.2507
1625.00,3.2662
1624.00,3.2840
1623.00,3.2990
1622.00,3.3167
1621.00,3.3060
1620.00,3.2900
1619.00,3.2935
1618.00,3.2894
1617.00,3.2889
1616.00,3.2878
1615.00,3.2905
1614.00,3.2931
1613.00,3.2964
1612.00,3.2985
1611.00,3.3054
1610.00,3.3100
1609.00,3.3086
1608.00,3.3108
1607.00,3.3136
1606.00,3.3178
1605.00,3.3219
1604.00,3.3210
1603.00,3.3110
1602.00,3.2957
1601.00,3.2842
1600.00,3.2822
1599.00,3.2844
1598.00,3.2803
1597.00,3.2671
1596.00,3.2522
1595.00,3.2415
1594.00,3.2336
1593.00,3.2251
1592.00,3.2162
1591.00,3.2079
1590.00,3.1986
1589.00,3.1862
1588.00,3.1711
1587.00,3.1548
1586.00,3.1393
1585.00,3.1252
1584.00,3.1140
1583.00,3.1063
1582.00,3.0981
1581.00,3.0845
1580.00,3.0700
1579.00,3.0477
1578.00,3.0328
1577.00,2.9946
1576.00,2.9810
1575.00,2.8881
1574.00,2.8171
1573.00,2.8299
1572.00,2.8355
1571.00,2.8386
1570.00,2.8176
1569.00,2.7930
1568.00,2.7688
1567.00,2.7428
1566.00,2.7080
1565.00,2.6644
1564.00,2.6184
1563.00,2.5765
1562.00,2.5361
1561.00,2.4882
1560.00,2.4236
1559.00,2.3651
1558.00,2.3313
1557.00,2.3185
1556.00,2.3189
1555.00,2.3027
1554.00,2.2689
1553.00,2.2354
1552.00,2.2130
1551.00,2.2085
1550.00,2.2125
1549.00,2.2173
1548.00,2.2260
1547.00,2.2436
1546.00,2.2675
1545.00,2.2927
1544.00,2.3181
1543.00,2.3464
1542.00,2.3809
1541.00,2.4199
1540.00,2.4556
1539.00,2.4804
1538.00,2.5043
1537.00,2.5396
1536.00,2.5874
1535.00,2.6477
1534.00,2.7086
1533.00,2.7590
1532.00,2.8000
1531.00,2.8350
1530.00,2.8655
1529.00,2.8919
1528.00,2.9189
1527.00,2.9480
1526.00,2.9765
1525.00,3.0035
1524.00,3.0307
1523.00,3.0574
1522.00,3.0762
1521.00,3.0800
1520.00,3.0754
1519.00,3.0839
1518.00,3.1162
1517.00,3.1605
1516.00,3.1980
1515.00,3.2221
1514.00,3.2398
1513.00,3.2535
1512.00,3.2609
1511.00,3.2656
1510.00,3.2737
1509.00,3.2862
1508.00,3.2935
1507.00,3.2879
1506.00,3.2754
1505.00,3.2874
1504.00,3.3271
1503.00,3.3583
1502.00,3.3792
1501.00,3.3908
1500.00,3.3881
1499.00,3.3883
1498.00,3.4029
1497.00,3.4233
1496.00,3.4360
1495.00,3.4448
1494.00,3.4615
1493.00,3.4845
1492.00,3.4983
1491.00,3.4939
1490.00,3.4800
1489.00,3.4707
1488.00,3.4752
1487.00,3.4952
1486.00,3.5198
1485.00,3.5348
1484.00,3.5344
1483.00,3.5237
1482.00,3.5092
1481.00,3.4930
1480.00,3.4806
1479.00,3.4802
1478.00,3.4940
1477.00,3.5142
1476.00,3.5273
1475.00,3.5251
1474.00,3.5119
1473.00,3.4990
1472.00,3.4958
1471.00,3.5068
1470.00,3.5252
1469.00,3.5364
1468.00,3.5366
1467.00,3.5347
1466.00,3.5379
1465.00,3.5438
1464.00,3.5467
1463.00,3.5489
1462.00,3.5548
1461.00,3.5640
1460.00,3.5764
1459.00,3.5919
1458.00,3.6079
1457.00,3.6199
1456.00,3.6295
1455.00,3.6509
1454.00,3.6932
1453.00,3.7504
1452.00,3.8043
1451.00,3.8361
1450.00,3.8474
1449.00,3.8467
1448.00,3.8295
1447.00,3.7910
1446.00,3.7415
1445.00,3.6991
1444.00,3.6801
1443.00,3.6926
1442.00,3.7240
1441.00,3.7414
1440.00,3.7235
1439.00,3.6856
1438.00,3.6537
1437.00,3.6409
1436.00,3.6506
1435.00,3.6745
1434.00,3.6944
1433.00,3.6942
1432.00,3.6736
1431.00,3.6514
1430.00,3.6441
1429.00,3.6458
1428.00,3.6442
1427.00,3.6401
1426.00,3.6394
1425.00,3.6360
1424.00,3.6180
1423.00,3.5912
1422.00,3.5722
1421.00,3.5646
1420.00,3.5600
1419.00,3.5568
1418.00,3.5571
1417.00,3.5577
1416.00,3.5562
1415.00,3.5514
1414.00,3.5401
1413.00,3.5188
1412.00,3.4882
1411.00,3.4572
1410.00,3.4354
1409.00,3.4230
1408.00,3.4115
1407.00,3.3937
1406.00,3.3703
1405.00,3.3452
1404.00,3.3208
1403.00,3.3006
1402.00,3.2863
1401.00,3.2743
1400.00,3.2583
1399.00,3.2364
1398.00,3.2124
1397.00,3.1911
1396.00,3.1743
1395.00,3.1612
1394.00,3.1506
1393.00,3.1415
1392.00,3.1335
1391.00,3.1296
1390.00,3.1334
1389.00,3.1434
1388.00,3.1545
1387.00,3.1658
1386.00,3.1843
1385.00,3.2174
1384.00,3.2633
1383.00,3.3144
1382.00,3.3672
1381.00,3.4243
1380.00,3.4891
1379.00,3.5618
1378.00,3.6400
1377.00,3.7177
1376.00,3.7788
1375.00,3.7946
1374.00,3.7457
1373.00,3.6469
1372.00,3.5305
1371.00,3.4163
1370.00,3.3093
1369.00,3.2132
1368.00,3.1356
1367.00,3.0834
1366.00,3.0566
1365.00,3.0476
1364.00,3.0472
1363.00,3.0510
1362.00,3.0590
1361.00,3.0723
1360.00,3.0901
1359.00,3.1098
1358.00,3.1309
1357.00,3.1550
1356.00,3.1822
1355.00,3.2124
1354.00,3.2456
1353.00,3.2811
1352.00,3.3170
1351.00,3.3528
1350.00,3.3898
1349.00,3.4260
1348.00,3.4543
1347.00,3.4704
1346.00,3.4758
1345.00,3.4733
1344.00,3.4662
1343.00,3.4612
1342.00,3.4637
1341.00,3.4705
1340.00,3.4720
1339.00,3.4626
1338.00,3.4488
1337.00,3.4432
1336.00,3.4529
1335.00,3.4783
1334.00,3.5173
1333.00,3.5637
1332.00,3.6052
1331.00,3.6301
1330.00,3.6365
1329.00,3.6303
1328.00,3.6208
1327.00,3.6149
1326.00,3.6146
1325.00,3.6193
1324.00,3.6287
1323.00,3.6442
1322.00,3.6641
1321.00,3.6798
1320.00,3.6810
1319.00,3.6683
1318.00,3.6523
1317.00,3.6409
1316.00,3.6352
1315.00,3.6346
1314.00,3.6394
1313.00,3.6462
1312.00,3.6497
1311.00,3.6459
1310.00,3.6352
1309.00,3.6263
1308.00,3.6278
1307.00,3.6402
1306.00,3.6573
1305.00,3.6721
1304.00,3.6833
1303.00,3.6952
1302.00,3.7048
1301.00,3.7010
1300.00,3.6900
1299.00,3.6974
1298.00,3.7281
1297.00,3.7461
1296.00,3.7099
1295.00,3.6344
1294.00,3.5636
1293.00,3.5176
1292.00,3.4939
1291.00,3.4842
1290.00,3.4805
1289.00,3.4738
1288.00,3.4577
1287.00,3.4331
1286.00,3.4071
1285.00,3.3848
1284.00,3.3652
1283.00,3.3463
1282.00,3.3287
1281.00,3.3116
1280.00,3.2921
1279.00,3.2690
1278.00,3.2452
1277.00,3.2228
1276.00,3.2014
1275.00,3.1798
1274.00,3.1574
1273.00,3.1332
1272.00,3.1065
1271.00,3.0779
1270.00,3.0476
1269.00,3.0130
1268.00,2.9717
1267.00,2.9263
1266.00,2.8810
1265.00,2.8366
1264.00,2.7891
1263.00,2.7346
1262.00,2.6737
1261.00,2.6102
1260.00,2.5474
1259.00,2.4875
1258.00,2.4321
1257.00,2.3830
1256.00,2.3428
1255.00,2.3139
1254.00,2.2981
1253.00,2.2957
1252.00,2.3062
1251.00,2.3291
1250.00,2.3635
1249.00,2.4074
1248.00,2.4583
1247.00,2.5145
1246.00,2.5758
1245.00,2.6412
1244.00,2.7076
1243.00,2.7710
1242.00,2.8299
1241.00,2.8866
1240.00,2.9441
1239.00,3.0037
1238.00,3.0640
1237.00,3.1216
1236.00,3.1733
1235.00,3.2206
1234.00,3.2694
1233.00,3.3213
1232.00,3.3670
1231.00,3.3972
1230.00,3.4166
1229.00,3.4350
1228.00,3.4568
1227.00,3.4796
1226.00,3.4975
1225.00,3.5044
1224.00,3.4949
1223.00,3.4711
1222.00,3.4484
1221.00,3.4421
1220.00,3.4524
1219.00,3.4667
1218.00,3.4760
1217.00,3.4857
1216.00,3.5125
1215.00,3.5686
1214.00,3.6465
1213.00,3.7202
1212.00,3.7608
1211.00,3.7574
1210.00,3.7235
1209.00,3.6903
1208.00,3.6830
1207.00,3.7059
1206.00,3.7502
1205.00,3.7965
1204.00,3.8181
1203.00,3.8137
1202.00,3.8169
1201.00,3.8601
1200.00,3.9531
1199.00,4.0805
1198.00,4.1917
1197.00,4.2192
1196.00,4.1498
1195.00,4.0415
1194.00,3.9701
1193.00,3.9756
1192.00,4.0495
1191.00,4.1175
1190.00,4.1067
1189.00,4.0567
1188.00,4.0183
1187.00,3.9954
1186.00,3.9759
1185.00,3.9557
1184.00,3.9074
1183.00,3.8342
1182.00,3.7912
1181.00,3.8131
1180.00,3.8998
1179.00,3.9942
1178.00,4.0061
1177.00,3.9456
1176.00,3.8734
1175.00,3.8313
1174.00,3.8217
1173.00,3.8269
1172.00,3.8462
1171.00,3.8915
1170.00,3.9383
1169.00,3.9394
1168.00,3.9101
1167.00,3.8871
1166.00,3.8751
1165.00,3.8485
1164.00,3.7948
1163.00,3.7433
1162.00,3.7148
1161.00,3.6918
1160.00,3.6687
1159.00,3.6587
1158.00,3.6625
1157.00,3.6870
1156.00,3.7337
1155.00,3.7765
1154.00,3.7793
1153.00,3.7427
1152.00,3.7038
1151.00,3.6825
1150.00,3.6766
1149.00,3.6856
1148.00,3.7020
1147.00,3.7078
1146.00,3.6924
1145.00,3.6527
1144.00,3.5989
1143.00,3.5522
1142.00,3.5210
1141.00,3.4953
1140.00,3.4596
1139.00,3.4088
1138.00,3.3526
1137.00,3.3001
1136.00,3.2515
1135.00,3.2064
1134.00,3.1662
1133.00,3.1295
1132.00,3.0922
1131.00,3.0519
1130.00,3.0117
1129.00,2.9775
1128.00,2.9540
1127.00,2.9445
1126.00,2.9506
1125.00,2.9715
1124.00,3.0044
1123.00,3.0452
1122.00,3.0878
1121.00,3.1219
1120.00,3.1366
1119.00,3.1286
1118.00,3.1013
1117.00,3.0594
1116.00,3.0116
1115.00,2.9695
1114.00,2.9421
1113.00,2.9329
1112.00,2.9413
1111.00,2.9659
1110.00,3.0036
1109.00,3.0479
1108.00,3.0918
1107.00,3.1357
1106.00,3.1895
1105.00,3.2652
1104.00,3.3649
1103.00,3.4707
1102.00,3.5464
1101.00,3.5712
1100.00,3.5656
1099.00,3.5650
1098.00,3.5925
1097.00,3.6542
1096.00,3.7438
1095.00,3.8554
1094.00,3.9852
1093.00,4.0918
1092.00,4.0969
1091.00,4.0360
1090.00,3.9855
1089.00,3.9539
1088.00,3.9319
1087.00,3.9239
1086.00,3.9384
1085.00,3.9772
1084.00,4.0645
1083.00,4.2801
1082.00,4.8954
1081.00,4.9488
1080.00,4.7402
1079.00,4.7160
1078.00,4.4882
1077.00,4.4502
1076.00,4.7031
1075.00,5.0487
1074.00,4.6329
1073.00,4.4953
1072.00,4.3516
1071.00,4.2198
1070.00,4.1816
1069.00,4.2770
1068.00,4.5550
1067.00,4.7166
1066.00,4.3845
1065.00,4.2297
1064.00,4.1913
1063.00,4.2651
1062.00,4.3735
1061.00,4.2667
1060.00,4.1300
1059.00,4.0479
1058.00,3.9326
1057.00,3.7996
1056.00,3.7408
1055.00,3.7860
1054.00,3.9049
1053.00,3.9977
1052.00,4.0135
1051.00,4.0759
1050.00,4.4142
1049.00,4.3201
1048.00,3.9380
1047.00,3.8833
1046.00,4.0219
1045.00,4.4051
1044.00,5.2033
1043.00,4.5950
1042.00,4.4994
1041.00,4.3877
1040.00,4.2752
1039.00,4.1594
1038.00,4.0288
1037.00,3.9392
1036.00,3.9404
1035.00,4.0607
1034.00,4.2775
1033.00,4.3636
1032.00,4.3001
1031.00,4.2137
1030.00,4.1389
1029.00,4.1288
1028.00,4.1923
1027.00,4.2376
1026.00,4.1794
1025.00,4.0773
1024.00,4.0078
1023.00,4.0340
1022.00,4.1797
1021.00,4.4723
1020.00,4.8697
1019.00,4.6792
1018.00,4.7155
1017.00,4.8240
1016.00,4.3840
1015.00,4.2526
1014.00,4.3299
1013.00,4.7130
1012.00,4.8802
1011.00,4.4227
1010.00,4.3450
1009.00,4.3886
1008.00,4.3313
1007.00,4.1919
1006.00,4.1170
1005.00,4.1316
1004.00,4.2484
1003.00,4.4418
1002.00,4.4603
1001.00,4.2512
1000.00,4.0378
999.00,3.9152
998.00,3.8927
997.00,3.9330
996.00,3.9810
995.00,4.0171
994.00,4.0316
993.00,4.0009
992.00,3.9322
991.00,3.8652
990.00,3.8350
989.00,3.8520
988.00,3.8976
987.00,3.9306
986.00,3.9233
985.00,3.8899
984.00,3.8493
983.00,3.7947
982.00,3.7176
981.00,3.6328
980.00,3.5571
979.00,3.4974
978.00,3.4557
977.00,3.4297
976.00,3.4106
975.00,3.3924
974.00,3.3835
973.00,3.3959
972.00,3.4326
971.00,3.4933
970.00,3.5846
969.00,3.7105
968.00,3.8476
967.00,3.9275
966.00,3.9156
965.00,3.8772
964.00,3.8791
963.00,3.9453
962.00,4.0734
961.00,4.2346
960.00,4.3415
959.00,4.3610
958.00,4.2777
957.00,4.0850
956.00,3.9606
955.00,3.9406
954.00,3.9856
953.00,4.0334
952.00,3.9882
951.00,3.8681
950.00,3.7916
949.00,3.7889
948.00,3.8560
947.00,3.9931
946.00,4.1646
945.00,4.2435
944.00,4.3218
943.00,4.6890
942.00,4.6333
941.00,4.2223
940.00,4.1783
939.00,4.3163
938.00,4.4549
937.00,4.3816
936.00,4.2508
935.00,4.1805
934.00,4.2568
933.00,4.3932
932.00,4.0825
931.00,3.8977
930.00,3.8683
929.00,3.9424
928.00,4.0896
927.00,4.3148
926.00,4.7012
925.00,4.5477
924.00,4.3073
923.00,4.2794
922.00,4.4062
921.00,4.5152
920.00,4.3083
919.00,4.1548
918.00,4.1128
917.00,4.1293
916.00,4.1709
915.00,4.1864
914.00,4.0822
913.00,3.9752
912.00,3.9444
911.00,3.9703
910.00,4.0287
909.00,4.1035
908.00,4.1866
907.00,4.3212
906.00,4.5565
905.00,4.6466
904.00,4.4659
903.00,4.2885
902.00,4.0968
901.00,3.9479
900.00,3.8638
899.00,3.8124
898.00,3.7702
897.00,3.7384
896.00,3.7299
895.00,3.7697
894.00,3.8600
893.00,3.9725
892.00,4.0861
891.00,4.2956
890.00,4.5630
889.00,4.1622
888.00,3.9678
887.00,3.9159
886.00,3.9453
885.00,4.0602
884.00,4.2844
883.00,4.5433
882.00,4.4541
881.00,4.2607
880.00,4.1486
879.00,4.1487
878.00,4.2616
877.00,4.4546
876.00,4.3228
875.00,4.0124
874.00,3.8252
873.00,3.7355
872.00,3.7321
871.00,3.8280
870.00,4.0670
869.00,4.4545
868.00,4.7022
867.00,4.7937
866.00,4.3811
865.00,4.3508
864.00,4.4851
863.00,4.3213
862.00,4.4005
861.00,4.3875
860.00,3.9929
859.00,3.8565
858.00,3.9054
857.00,4.0744
856.00,4.0804
855.00,3.9978
854.00,4.0548
853.00,4.3120
852.00,5.1282
851.00,4.3228
850.00,4.0018
849.00,3.8635
848.00,3.8823
847.00,4.1678
846.00,4.4768
845.00,4.1028
844.00,4.0802
843.00,4.1884
842.00,4.1348
841.00,4.0255
840.00,3.9456
839.00,3.9252
838.00,3.9780
837.00,4.1462
836.00,4.4259
835.00,4.3965
834.00,4.2955
833.00,4.2402
832.00,4.1035
831.00,3.9963
830.00,3.9345
829.00,4.0040
828.00,4.2306
827.00,4.1206
826.00,3.9633
825.00,3.9571
824.00,3.9694
823.00,3.9434
822.00,3.9339
821.00,3.9856
820.00,4.1168
819.00,4.3599
818.00,4.5579
817.00,4.3530
816.00,4.2164
815.00,4.2264
814.00,4.2682
813.00,4.2548
812.00,4.2663
811.00,4.2756
810.00,4.2126
809.00,4.1493
808.00,4.0797
807.00,4.0164
806.00,4.0309
805.00,4.1590
804.00,4.3556
803.00,4.4522
802.00,4.3116
801.00,4.1450
800.00,4.0968
799.00,4.2851
798.00,4.7853
797.00,4.4225
796.00,4.3376
795.00,4.4753
794.00,4.7387
793.00,5.3123
792.00,4.5974
791.00,4.3518
790.00,4.2104
789.00,4.0907
788.00,4.0224
787.00,4.0379
786.00,4.1728
785.00,4.3401
784.00,4.3704
783.00,4.5198
782.00,4.6604
781.00,4.2909
780.00,4.2218
779.00,4.3063
778.00,4.1269
777.00,3.9931
776.00,4.0169
775.00,4.0739
774.00,4.0456
773.00,4.0331
772.00,4.0506
771.00,4.0005
770.00,3.9157
769.00,3.8698
768.00,3.8884
767.00,3.9645
766.00,4.0645
765.00,4.0837
764.00,3.9514
763.00,3.8233
762.00,3.8068
761.00,3.9393
760.00,4.2791
759.00,5.0067
758.00,4.7721
757.00,4.2231
756.00,3.9963
755.00,3.8990
754.00,3.8610
753.00,3.8558
752.00,3.8691
751.00,3.8870
750.00,3.9094
749.00,3.9323
748.00,3.9211
747.00,3.8696
746.00,3.8108
745.00,3.7853
744.00,3.8327
743.00,3.9166
742.00,3.9637
741.00,4.0291
740.00,4.2402
739.00,4.5020
738.00,4.2860
737.00,4.1117
736.00,4.0988
735.00,4.1617
734.00,4.2415
733.00,4.2479
732.00,4.0522
731.00,3.8608
730.00,3.7800
729.00,3.7819
728.00,3.8205
727.00,3.8294
726.00,3.7910
725.00,3.7644
724.00,3.8199
723.00,3.9427
722.00,3.9872
721.00,3.9873
720.00,4.0786
719.00,4.2114
718.00,4.1668
717.00,4.0009
716.00,3.9094
715.00,3.8761
714.00,3.9070
713.00,3.9654
712.00,4.1710
711.00,4.9069
710.00,4.4313
709.00,4.1937
708.00,4.1669
707.00,4.0720
706.00,3.9688
705.00,3.9205
704.00,3.9715
703.00,4.0782
702.00,4.1821
701.00,4.0952
700.00,3.9082
