Created as New Dataset,Sample 029 By Administrator Date Wednesday, November 24 2021
cm-1,A
7502.00,0.7737
7501.00,0.7814
7500.00,0.7884
7499.00,0.7948
7498.00,0.8011
7497.00,0.8073
7496.00,0.8132
7495.00,0.8185
7494.00,0.8238
7493.00,0.8296
7492.00,0.8362
7491.00,0.8429
7490.00,0.8489
7489.00,0.8538
7488.00,0.8578
7487.00,0.8612
7486.00,0.8643
7485.00,0.8671
7484.00,0.8692
7483.00,0.8706
7482.00,0.8715
7481.00,0.8725
7480.00,0.8736
7479.00,0.8746
7478.00,0.8752
7477.00,0.8753
7476.00,0.8753
7475.00,0.8757
7474.00,0.8766
7473.00,0.8776
7472.00,0.8774
7471.00,0.8752
7470.00,0.8717
7469.00,0.8683
7468.00,0.8655
7467.00,0.8628
7466.00,0.8596
7465.00,0.8562
7464.00,0.8533
7463.00,0.8505
7462.00,0.8469
7461.00,0.8419
7460.00,0.8356
7459.00,0.8289
7458.00,0.8226
7457.00,0.8168
7456.00,0.8112
7455.00,0.8052
7454.00,0.7984
7453.00,0.7911
7452.00,0.7835
7451.00,0.7759
7450.00,0.7683
7449.00,0.7609
7448.00,0.7538
7447.00,0.7465
7446.00,0.7390
7445.00,0.7313
7444.00,0.7235
7443.00,0.7153
7442.00,0.7065
7441.00,0.6976
7440.00,0.6891
7439.00,0.6810
7438.00,0.6733
7437.00,0.6656
7436.00,0.6580
7435.00,0.6507
7434.00,0.6435
7433.00,0.6361
7432.00,0.6288
7431.00,0.6218
7430.00,0.6154
7429.00,0.6095
7428.00,0.6037
7427.00,0.5978
7426.00,0.5922
7425.00,0.5870
7424.00,0.5825
7423.00,0.5783
7422.00,0.5745
7421.00,0.5710
7420.00,0.5680
7419.00,0.5655
7418.00,0.5636
7417.00,0.5624
7416.00,0.5619
7415.00,0.5621
7414.00,0.5630
7413.00,0.5643
7412.00,0.5658
7411.00,0.5677
7410.00,0.5699
7409.00,0.5724
7408.00,0.5750
7407.00,0.5777
7406.00,0.5811
7405.00,0.5852
7404.00,0.5898
7403.00,0.5948
7402.00,0.6002
7401.00,0.6061
7400.00,0.6126
7399.00,0.6192
7398.00,0.6260
7397.00,0.6330
7396.00,0.6404
7395.00,0.6481
7394.00,0.6560
7393.00,0.6642
7392.00,0.6725
7391.00,0.6810
7390.00,0.6895
7389.00,0.6984
7388.00,0.7076
7387.00,0.7167
7386.00,0.7256
7385.00,0.7341
7384.00,0.7425
7383.00,0.7512
7382.00,0.7603
7381.00,0.7694
7380.00,0.7784
7379.00,0.7871
7378.00,0.7958
7377.00,0.8046
7376.00,0.8133
7375.00,0.8218
7374.00,0.8298
7373.00,0.8373
7372.00,0.8442
7371.00,0.8510
7370.00,0.8584
7369.00,0.8664
7368.00,0.8743
7367.00,0.8818
7366.00,0.8888
7365.00,0.8959
7364.00,0.9027
7363.00,0.9089
7362.00,0.9139
7361.00,0.9182
7360.00,0.9222
7359.00,0.9263
7358.00,0.9306
7357.00,0.9352
7356.00,0.9401
7355.00,0.9455
7354.00,0.9513
7353.00,0.9575
7352.00,0.9633
7351.00,0.9678
7350.00,0.9702
7349.00,0.9709
7348.00,0.9705
7347.00,0.9700
7346.00,0.9698
7345.00,0.9700
7344.00,0.9706
7343.00,0.9717
7342.00,0.9729
7341.00,0.9742
7340.00,0.9752
7339.00,0.9754
7338.00,0.9741
7337.00,0.9712
7336.00,0.9673
7335.00,0.9632
7334.00,0.9592
7333.00,0.9549
7332.00,0.9498
7331.00,0.9447
7330.00,0.9405
7329.00,0.9377
7328.00,0.9356
7327.00,0.9331
7326.00,0.9297
7325.00,0.9256
7324.00,0.9210
7323.00,0.9159
7322.00,0.9102
7321.00,0.9045
7320.00,0.8992
7319.00,0.8943
7318.00,0.8898
7317.00,0.8853
7316.00,0.8803
7315.00,0.8744
7314.00,0.8679
7313.00,0.8613
7312.00,0.8547
7311.00,0.8476
7310.00,0.8399
7309.00,0.8315
7308.00,0.8229
7307.00,0.8145
7306.00,0.8067
7305.00,0.7994
7304.00,0.7925
7303.00,0.7855
7302.00,0.7786
7301.00,0.7718
7300.00,0.7651
7299.00,0.7581
7298.00,0.7506
7297.00,0.7424
7296.00,0.7341
7295.00,0.7265
7294.00,0.7195
7293.00,0.7125
7292.00,0.7050
7291.00,0.6972
7290.00,0.6898
7289.00,0.6833
7288.00,0.6771
7287.00,0.6709
7286.00,0.6651
7285.00,0.6601
7284.00,0.6560
7283.00,0.6525
7282.00,0.6492
7281.00,0.6463
7280.00,0.6439
7279.00,0.6422
7278.00,0.6409
7277.00,0.6401
7276.00,0.6396
7275.00,0.6394
7274.00,0.6396
7273.00,0.6403
7272.00,0.6415
7271.00,0.6432
7270.00,0.6453
7269.00,0.6480
7268.00,0.6513
7267.00,0.6549
7266.00,0.6586
7265.00,0.6625
7264.00,0.6667
7263.00,0.6715
7262.00,0.6769
7261.00,0.6831
7260.00,0.6900
7259.00,0.6976
7258.00,0.7056
7257.00,0.7135
7256.00,0.7211
7255.00,0.7283
7254.00,0.7354
7253.00,0.7424
7252.00,0.7495
7251.00,0.7568
7250.00,0.7646
7249.00,0.7733
7248.00,0.7826
7247.00,0.7919
7246.00,0.8008
7245.00,0.8094
7244.00,0.8181
7243.00,0.8273
7242.00,0.8370
7241.00,0.8468
7240.00,0.8562
7239.00,0.8652
7238.00,0.8742
7237.00,0.8836
7236.00,0.8930
7235.00,0.9018
7234.00,0.9102
7233.00,0.9188
7232.00,0.9278
7231.00,0.9365
7230.00,0.9444
7229.00,0.9518
7228.00,0.9591
7227.00,0.9664
7226.00,0.9732
7225.00,0.9796
7224.00,0.9858
7223.00,0.9922
7222.00,0.9987
7221.00,1.0051
7220.00,1.0114
7219.00,1.0177
7218.00,1.0241
7217.00,1.0304
7216.00,1.0362
7215.00,1.0414
7214.00,1.0458
7213.00,1.0496
7212.00,1.0530
7211.00,1.0559
7210.00,1.0582
7209.00,1.0602
7208.00,1.0625
7207.00,1.0653
7206.00,1.0683
7205.00,1.0711
7204.00,1.0737
7203.00,1.0760
7202.00,1.0782
7201.00,1.0799
7200.00,1.0808
7199.00,1.0804
7198.00,1.0791
7197.00,1.0774
7196.00,1.0762
7195.00,1.0751
7194.00,1.0737
7193.00,1.0717
7192.00,1.0693
7191.00,1.0668
7190.00,1.0640
7189.00,1.0607
7188.00,1.0570
7187.00,1.0530
7186.00,1.0487
7185.00,1.0440
7184.00,1.0387
7183.00,1.0333
7182.00,1.0283
7181.00,1.0237
7180.00,1.0187
7179.00,1.0125
7178.00,1.0051
7177.00,0.9973
7176.00,0.9896
7175.00,0.9822
7174.00,0.9746
7173.00,0.9667
7172.00,0.9586
7171.00,0.9507
7170.00,0.9429
7169.00,0.9346
7168.00,0.9256
7167.00,0.9161
7166.00,0.9065
7165.00,0.8973
7164.00,0.8884
7163.00,0.8795
7162.00,0.8707
7161.00,0.8618
7160.00,0.8526
7159.00,0.8431
7158.00,0.8335
7157.00,0.8243
7156.00,0.8156
7155.00,0.8073
7154.00,0.7991
7153.00,0.7910
7152.00,0.7832
7151.00,0.7759
7150.00,0.7689
7149.00,0.7620
7148.00,0.7550
7147.00,0.7483
7146.00,0.7421
7145.00,0.7367
7144.00,0.7319
7143.00,0.7276
7142.00,0.7236
7141.00,0.7199
7140.00,0.7166
7139.00,0.7136
7138.00,0.7110
7137.00,0.7088
7136.00,0.7069
7135.00,0.7058
7134.00,0.7054
7133.00,0.7056
7132.00,0.7063
7131.00,0.7074
7130.00,0.7090
7129.00,0.7113
7128.00,0.7142
7127.00,0.7174
7126.00,0.7211
7125.00,0.7252
7124.00,0.7300
7123.00,0.7352
7122.00,0.7407
7121.00,0.7464
7120.00,0.7522
7119.00,0.7585
7118.00,0.7655
7117.00,0.7730
7116.00,0.7805
7115.00,0.7880
7114.00,0.7953
7113.00,0.8028
7112.00,0.8104
7111.00,0.8182
7110.00,0.8262
7109.00,0.8346
7108.00,0.8432
7107.00,0.8519
7106.00,0.8607
7105.00,0.8696
7104.00,0.8785
7103.00,0.8875
7102.00,0.8965
7101.00,0.9057
7100.00,0.9150
7099.00,0.9245
7098.00,0.9339
7097.00,0.9432
7096.00,0.9522
7095.00,0.9608
7094.00,0.9689
7093.00,0.9769
7092.00,0.9848
7091.00,0.9927
7090.00,1.0007
7089.00,1.0084
7088.00,1.0159
7087.00,1.0229
7086.00,1.0296
7085.00,1.0360
7084.00,1.0422
7083.00,1.0483
7082.00,1.0542
7081.00,1.0601
7080.00,1.0655
7079.00,1.0706
7078.00,1.0751
7077.00,1.0793
7076.00,1.0833
7075.00,1.0872
7074.00,1.0912
7073.00,1.0949
7072.00,1.0984
7071.00,1.1014
7070.00,1.1040
7069.00,1.1062
7068.00,1.1081
7067.00,1.1096
7066.00,1.1110
7065.00,1.1124
7064.00,1.1134
7063.00,1.1139
7062.00,1.1139
7061.00,1.1132
7060.00,1.1119
7059.00,1.1104
7058.00,1.1090
7057.00,1.1079
7056.00,1.1068
7055.00,1.1054
7054.00,1.1036
7053.00,1.1013
7052.00,1.0985
7051.00,1.0950
7050.00,1.0907
7049.00,1.0856
7048.00,1.0801
7047.00,1.0747
7046.00,1.0694
7045.00,1.0639
7044.00,1.0579
7043.00,1.0515
7042.00,1.0449
7041.00,1.0382
7040.00,1.0313
7039.00,1.0241
7038.00,1.0165
7037.00,1.0086
7036.00,1.0006
7035.00,0.9926
7034.00,0.9845
7033.00,0.9760
7032.00,0.9670
7031.00,0.9576
7030.00,0.9483
7029.00,0.9389
7028.00,0.9292
7027.00,0.9193
7026.00,0.9097
7025.00,0.9005
7024.00,0.8913
7023.00,0.8821
7022.00,0.8729
7021.00,0.8638
7020.00,0.8548
7019.00,0.8457
7018.00,0.8364
7017.00,0.8273
7016.00,0.8185
7015.00,0.8099
7014.00,0.8015
7013.00,0.7934
7012.00,0.7855
7011.00,0.7781
7010.00,0.7711
7009.00,0.7645
7008.00,0.7583
7007.00,0.7523
7006.00,0.7467
7005.00,0.7415
7004.00,0.7368
7003.00,0.7322
7002.00,0.7280
7001.00,0.7243
7000.00,0.7210
6999.00,0.7182
6998.00,0.7158
6997.00,0.7141
6996.00,0.7132
6995.00,0.7130
6994.00,0.7135
6993.00,0.7145
6992.00,0.7158
6991.00,0.7174
6990.00,0.7194
6989.00,0.7219
6988.00,0.7248
6987.00,0.7282
6986.00,0.7322
6985.00,0.7368
6984.00,0.7419
6983.00,0.7474
6982.00,0.7531
6981.00,0.7592
6980.00,0.7654
6979.00,0.7721
6978.00,0.7792
6977.00,0.7867
6976.00,0.7945
6975.00,0.8024
6974.00,0.8103
6973.00,0.8182
6972.00,0.8262
6971.00,0.8342
6970.00,0.8426
6969.00,0.8516
6968.00,0.8610
6967.00,0.8703
6966.00,0.8795
6965.00,0.8888
6964.00,0.8984
6963.00,0.9080
6962.00,0.9171
6961.00,0.9257
6960.00,0.9342
6959.00,0.9431
6958.00,0.9525
6957.00,0.9618
6956.00,0.9709
6955.00,0.9798
6954.00,0.9890
6953.00,0.9984
6952.00,1.0075
6951.00,1.0160
6950.00,1.0239
6949.00,1.0317
6948.00,1.0394
6947.00,1.0469
6946.00,1.0541
6945.00,1.0609
6944.00,1.0676
6943.00,1.0740
6942.00,1.0803
6941.00,1.0865
6940.00,1.0928
6939.00,1.0990
6938.00,1.1051
6937.00,1.1108
6936.00,1.1158
6935.00,1.1205
6934.00,1.1250
6933.00,1.1293
6932.00,1.1332
6931.00,1.1368
6930.00,1.1401
6929.00,1.1434
6928.00,1.1460
6927.00,1.1478
6926.00,1.1491
6925.00,1.1504
6924.00,1.1520
6923.00,1.1536
6922.00,1.1552
6921.00,1.1567
6920.00,1.1577
6919.00,1.1581
6918.00,1.1579
6917.00,1.1572
6916.00,1.1559
6915.00,1.1539
6914.00,1.1514
6913.00,1.1487
6912.00,1.1461
6911.00,1.1432
6910.00,1.1399
6909.00,1.1361
6908.00,1.1322
6907.00,1.1282
6906.00,1.1241
6905.00,1.1196
6904.00,1.1143
6903.00,1.1081
6902.00,1.1013
6901.00,1.0946
6900.00,1.0881
6899.00,1.0812
6898.00,1.0740
6897.00,1.0664
6896.00,1.0589
6895.00,1.0513
6894.00,1.0436
6893.00,1.0354
6892.00,1.0266
6891.00,1.0175
6890.00,1.0083
6889.00,0.9992
6888.00,0.9900
6887.00,0.9805
6886.00,0.9707
6885.00,0.9608
6884.00,0.9509
6883.00,0.9410
6882.00,0.9311
6881.00,0.9213
6880.00,0.9115
6879.00,0.9017
6878.00,0.8918
6877.00,0.8820
6876.00,0.8724
6875.00,0.8630
6874.00,0.8538
6873.00,0.8449
6872.00,0.8363
6871.00,0.8280
6870.00,0.8203
6869.00,0.8130
6868.00,0.8060
6867.00,0.7990
6866.00,0.7923
6865.00,0.7862
6864.00,0.7806
6863.00,0.7753
6862.00,0.7704
6861.00,0.7661
6860.00,0.7625
6859.00,0.7595
6858.00,0.7568
6857.00,0.7546
6856.00,0.7531
6855.00,0.7523
6854.00,0.7521
6853.00,0.7524
6852.00,0.7531
6851.00,0.7543
6850.00,0.7560
6849.00,0.7583
6848.00,0.7610
6847.00,0.7642
6846.00,0.7679
6845.00,0.7723
6844.00,0.7774
6843.00,0.7829
6842.00,0.7886
6841.00,0.7945
6840.00,0.8005
6839.00,0.8070
6838.00,0.8140
6837.00,0.8214
6836.00,0.8290
6835.00,0.8369
6834.00,0.8452
6833.00,0.8538
6832.00,0.8624
6831.00,0.8708
6830.00,0.8792
6829.00,0.8877
6828.00,0.8963
6827.00,0.9051
6826.00,0.9140
6825.00,0.9231
6824.00,0.9324
6823.00,0.9416
6822.00,0.9508
6821.00,0.9601
6820.00,0.9693
6819.00,0.9784
6818.00,0.9872
6817.00,0.9959
6816.00,1.0047
6815.00,1.0134
6814.00,1.0218
6813.00,1.0299
6812.00,1.0377
6811.00,1.0453
6810.00,1.0530
6809.00,1.0605
6808.00,1.0679
6807.00,1.0749
6806.00,1.0816
6805.00,1.0884
6804.00,1.0953
6803.00,1.1018
6802.00,1.1079
6801.00,1.1136
6800.00,1.1191
6799.00,1.1246
6798.00,1.1297
6797.00,1.1343
6796.00,1.1383
6795.00,1.1420
6794.00,1.1453
6793.00,1.1482
6792.00,1.1509
6791.00,1.1535
6790.00,1.1561
6789.00,1.1584
6788.00,1.1602
6787.00,1.1614
6786.00,1.1624
6785.00,1.1631
6784.00,1.1635
6783.00,1.1634
6782.00,1.1633
6781.00,1.1634
6780.00,1.1635
6779.00,1.1632
6778.00,1.1619
6777.00,1.1596
6776.00,1.1565
6775.00,1.1529
6774.00,1.1490
6773.00,1.1452
6772.00,1.1413
6771.00,1.1374
6770.00,1.1331
6769.00,1.1284
6768.00,1.1233
6767.00,1.1178
6766.00,1.1118
6765.00,1.1054
6764.00,1.0988
6763.00,1.0921
6762.00,1.0853
6761.00,1.0782
6760.00,1.0705
6759.00,1.0626
6758.00,1.0547
6757.00,1.0468
6756.00,1.0386
6755.00,1.0298
6754.00,1.0206
6753.00,1.0113
6752.00,1.0017
6751.00,0.9919
6750.00,0.9821
6749.00,0.9723
6748.00,0.9625
6747.00,0.9524
6746.00,0.9423
6745.00,0.9323
6744.00,0.9224
6743.00,0.9123
6742.00,0.9021
6741.00,0.8920
6740.00,0.8821
6739.00,0.8723
6738.00,0.8628
6737.00,0.8536
6736.00,0.8448
6735.00,0.8361
6734.00,0.8277
6733.00,0.8194
6732.00,0.8115
6731.00,0.8038
6730.00,0.7964
6729.00,0.7895
6728.00,0.7833
6727.00,0.7775
6726.00,0.7720
6725.00,0.7668
6724.00,0.7618
6723.00,0.7571
6722.00,0.7529
6721.00,0.7492
6720.00,0.7461
6719.00,0.7435
6718.00,0.7415
6717.00,0.7401
6716.00,0.7392
6715.00,0.7387
6714.00,0.7387
6713.00,0.7391
6712.00,0.7402
6711.00,0.7417
6710.00,0.7438
6709.00,0.7464
6708.00,0.7496
6707.00,0.7534
6706.00,0.7577
6705.00,0.7625
6704.00,0.7678
6703.00,0.7735
6702.00,0.7796
6701.00,0.7859
6700.00,0.7926
6699.00,0.7998
6698.00,0.8073
6697.00,0.8150
6696.00,0.8228
6695.00,0.8308
6694.00,0.8392
6693.00,0.8479
6692.00,0.8568
6691.00,0.8657
6690.00,0.8747
6689.00,0.8839
6688.00,0.8935
6687.00,0.9031
6686.00,0.9127
6685.00,0.9222
6684.00,0.9317
6683.00,0.9415
6682.00,0.9514
6681.00,0.9614
6680.00,0.9711
6679.00,0.9806
6678.00,0.9900
6677.00,0.9994
6676.00,1.0088
6675.00,1.0180
6674.00,1.0270
6673.00,1.0359
6672.00,1.0448
6671.00,1.0534
6670.00,1.0617
6669.00,1.0697
6668.00,1.0776
6667.00,1.0854
6666.00,1.0930
6665.00,1.1002
6664.00,1.1072
6663.00,1.1140
6662.00,1.1206
6661.00,1.1271
6660.00,1.1333
6659.00,1.1393
6658.00,1.1450
6657.00,1.1504
6656.00,1.1555
6655.00,1.1601
6654.00,1.1643
6653.00,1.1684
6652.00,1.1724
6651.00,1.1763
6650.00,1.1797
6649.00,1.1826
6648.00,1.1852
6647.00,1.1877
6646.00,1.1900
6645.00,1.1917
6644.00,1.1929
6643.00,1.1939
6642.00,1.1948
6641.00,1.1953
6640.00,1.1951
6639.00,1.1945
6638.00,1.1935
6637.00,1.1921
6636.00,1.1901
6635.00,1.1878
6634.00,1.1850
6633.00,1.1819
6632.00,1.1787
6631.00,1.1755
6630.00,1.1720
6629.00,1.1682
6628.00,1.1636
6627.00,1.1587
6626.00,1.1537
6625.00,1.1485
6624.00,1.1429
6623.00,1.1368
6622.00,1.1304
6621.00,1.1238
6620.00,1.1168
6619.00,1.1093
6618.00,1.1015
6617.00,1.0937
6616.00,1.0856
6615.00,1.0771
6614.00,1.0680
6613.00,1.0585
6612.00,1.0487
6611.00,1.0389
6610.00,1.0291
6609.00,1.0192
6608.00,1.0092
6607.00,0.9992
6606.00,0.9891
6605.00,0.9788
6604.00,0.9681
6603.00,0.9572
6602.00,0.9465
6601.00,0.9359
6600.00,0.9254
6599.00,0.9149
6598.00,0.9046
6597.00,0.8945
6596.00,0.8845
6595.00,0.8746
6594.00,0.8648
6593.00,0.8554
6592.00,0.8463
6591.00,0.8372
6590.00,0.8285
6589.00,0.8202
6588.00,0.8125
6587.00,0.8051
6586.00,0.7982
6585.00,0.7917
6584.00,0.7856
6583.00,0.7799
6582.00,0.7748
6581.00,0.7705
6580.00,0.7669
6579.00,0.7637
6578.00,0.7610
6577.00,0.7588
6576.00,0.7574
6575.00,0.7566
6574.00,0.7562
6573.00,0.7562
6572.00,0.7569
6571.00,0.7582
6570.00,0.7601
6569.00,0.7626
6568.00,0.7656
6567.00,0.7692
6566.00,0.7734
6565.00,0.7781
6564.00,0.7833
6563.00,0.7889
6562.00,0.7950
6561.00,0.8014
6560.00,0.8082
6559.00,0.8154
6558.00,0.8230
6557.00,0.8309
6556.00,0.8391
6555.00,0.8474
6554.00,0.8558
6553.00,0.8645
6552.00,0.8736
6551.00,0.8829
6550.00,0.8925
6549.00,0.9022
6548.00,0.9118
6547.00,0.9213
6546.00,0.9308
6545.00,0.9402
6544.00,0.9496
6543.00,0.9591
6542.00,0.9687
6541.00,0.9785
6540.00,0.9881
6539.00,0.9975
6538.00,1.0067
6537.00,1.0160
6536.00,1.0250
6535.00,1.0337
6534.00,1.0423
6533.00,1.0513
6532.00,1.0602
6531.00,1.0688
6530.00,1.0768
6529.00,1.0843
6528.00,1.0914
6527.00,1.0983
6526.00,1.1049
6525.00,1.1116
6524.00,1.1184
6523.00,1.1252
6522.00,1.1318
6521.00,1.1383
6520.00,1.1443
6519.00,1.1499
6518.00,1.1547
6517.00,1.1590
6516.00,1.1630
6515.00,1.1670
6514.00,1.1707
6513.00,1.1741
6512.00,1.1770
6511.00,1.1794
6510.00,1.1814
6509.00,1.1831
6508.00,1.1847
6507.00,1.1859
6506.00,1.1867
6505.00,1.1870
6504.00,1.1869
6503.00,1.1864
6502.00,1.1854
6501.00,1.1843
6500.00,1.1832
6499.00,1.1820
6498.00,1.1805
6497.00,1.1786
6496.00,1.1761
6495.00,1.1730
6494.00,1.1693
6493.00,1.1653
6492.00,1.1612
6491.00,1.1570
6490.00,1.1527
6489.00,1.1481
6488.00,1.1430
6487.00,1.1373
6486.00,1.1310
6485.00,1.1242
6484.00,1.1168
6483.00,1.1088
6482.00,1.1008
6481.00,1.0929
6480.00,1.0849
6479.00,1.0766
6478.00,1.0681
6477.00,1.0596
6476.00,1.0510
6475.00,1.0422
6474.00,1.0329
6473.00,1.0233
6472.00,1.0135
6471.00,1.0033
6470.00,0.9931
6469.00,0.9828
6468.00,0.9725
6467.00,0.9622
6466.00,0.9519
6465.00,0.9416
6464.00,0.9315
6463.00,0.9213
6462.00,0.9112
6461.00,0.9011
6460.00,0.8911
6459.00,0.8810
6458.00,0.8708
6457.00,0.8608
6456.00,0.8511
6455.00,0.8418
6454.00,0.8328
6453.00,0.8242
6452.00,0.8159
6451.00,0.8078
6450.00,0.7999
6449.00,0.7923
6448.00,0.7849
6447.00,0.7780
6446.00,0.7716
6445.00,0.7657
6444.00,0.7603
6443.00,0.7553
6442.00,0.7507
6441.00,0.7466
6440.00,0.7431
6439.00,0.7402
6438.00,0.7380
6437.00,0.7364
6436.00,0.7354
6435.00,0.7348
6434.00,0.7349
6433.00,0.7355
6432.00,0.7368
6431.00,0.7387
6430.00,0.7412
6429.00,0.7444
6428.00,0.7481
6427.00,0.7522
6426.00,0.7567
6425.00,0.7618
6424.00,0.7675
6423.00,0.7735
6422.00,0.7800
6421.00,0.7869
6420.00,0.7944
6419.00,0.8023
6418.00,0.8104
6417.00,0.8187
6416.00,0.8273
6415.00,0.8361
6414.00,0.8452
6413.00,0.8544
6412.00,0.8637
6411.00,0.8730
6410.00,0.8825
6409.00,0.8923
6408.00,0.9022
6407.00,0.9122
6406.00,0.9223
6405.00,0.9324
6404.00,0.9428
6403.00,0.9532
6402.00,0.9637
6401.00,0.9741
6400.00,0.9842
6399.00,0.9940
6398.00,1.0033
6397.00,1.0123
6396.00,1.0212
6395.00,1.0302
6394.00,1.0393
6393.00,1.0487
6392.00,1.0581
6391.00,1.0671
6390.00,1.0758
6389.00,1.0843
6388.00,1.0925
6387.00,1.1005
6386.00,1.1080
6385.00,1.1154
6384.00,1.1228
6383.00,1.1300
6382.00,1.1368
6381.00,1.1430
6380.00,1.1490
6379.00,1.1549
6378.00,1.1606
6377.00,1.1656
6376.00,1.1701
6375.00,1.1745
6374.00,1.1788
6373.00,1.1831
6372.00,1.1870
6371.00,1.1906
6370.00,1.1936
6369.00,1.1962
6368.00,1.1983
6367.00,1.2000
6366.00,1.2013
6365.00,1.2022
6364.00,1.2030
6363.00,1.2037
6362.00,1.2040
6361.00,1.2038
6360.00,1.2033
6359.00,1.2027
6358.00,1.2019
6357.00,1.2007
6356.00,1.1989
6355.00,1.1964
6354.00,1.1933
6353.00,1.1897
6352.00,1.1857
6351.00,1.1816
6350.00,1.1775
6349.00,1.1733
6348.00,1.1687
6347.00,1.1639
6346.00,1.1586
6345.00,1.1529
6344.00,1.1467
6343.00,1.1401
6342.00,1.1333
6341.00,1.1261
6340.00,1.1184
6339.00,1.1102
6338.00,1.1016
6337.00,1.0929
6336.00,1.0838
6335.00,1.0745
6334.00,1.0649
6333.00,1.0550
6332.00,1.0448
6331.00,1.0344
6330.00,1.0239
6329.00,1.0133
6328.00,1.0024
6327.00,0.9913
6326.00,0.9800
6325.00,0.9687
6324.00,0.9573
6323.00,0.9458
6322.00,0.9344
6321.00,0.9234
6320.00,0.9124
6319.00,0.9013
6318.00,0.8902
6317.00,0.8792
6316.00,0.8684
6315.00,0.8577
6314.00,0.8471
6313.00,0.8370
6312.00,0.8273
6311.00,0.8179
6310.00,0.8088
6309.00,0.8002
6308.00,0.7920
6307.00,0.7842
6306.00,0.7770
6305.00,0.7703
6304.00,0.7642
6303.00,0.7585
6302.00,0.7534
6301.00,0.7490
6300.00,0.7451
6299.00,0.7416
6298.00,0.7386
6297.00,0.7361
6296.00,0.7344
6295.00,0.7334
6294.00,0.7333
6293.00,0.7338
6292.00,0.7351
6291.00,0.7371
6290.00,0.7397
6289.00,0.7429
6288.00,0.7465
6287.00,0.7505
6286.00,0.7550
6285.00,0.7602
6284.00,0.7660
6283.00,0.7721
6282.00,0.7788
6281.00,0.7860
6280.00,0.7937
6279.00,0.8018
6278.00,0.8104
6277.00,0.8192
6276.00,0.8282
6275.00,0.8372
6274.00,0.8462
6273.00,0.8553
6272.00,0.8646
6271.00,0.8742
6270.00,0.8839
6269.00,0.8940
6268.00,0.9043
6267.00,0.9146
6266.00,0.9249
6265.00,0.9351
6264.00,0.9451
6263.00,0.9550
6262.00,0.9648
6261.00,0.9746
6260.00,0.9844
6259.00,0.9941
6258.00,1.0038
6257.00,1.0138
6256.00,1.0238
6255.00,1.0336
6254.00,1.0430
6253.00,1.0520
6252.00,1.0605
6251.00,1.0687
6250.00,1.0766
6249.00,1.0847
6248.00,1.0928
6247.00,1.1008
6246.00,1.1086
6245.00,1.1160
6244.00,1.1230
6243.00,1.1295
6242.00,1.1353
6241.00,1.1409
6240.00,1.1464
6239.00,1.1519
6238.00,1.1571
6237.00,1.1616
6236.00,1.1657
6235.00,1.1696
6234.00,1.1732
6233.00,1.1765
6232.00,1.1796
6231.00,1.1824
6230.00,1.1850
6229.00,1.1871
6228.00,1.1886
6227.00,1.1895
6226.00,1.1899
6225.00,1.1899
6224.00,1.1897
6223.00,1.1892
6222.00,1.1886
6221.00,1.1876
6220.00,1.1863
6219.00,1.1845
6218.00,1.1823
6217.00,1.1796
6216.00,1.1766
6215.00,1.1733
6214.00,1.1696
6213.00,1.1657
6212.00,1.1614
6211.00,1.1569
6210.00,1.1521
6209.00,1.1469
6208.00,1.1412
6207.00,1.1350
6206.00,1.1283
6205.00,1.1212
6204.00,1.1138
6203.00,1.1061
6202.00,1.0986
6201.00,1.0913
6200.00,1.0839
6199.00,1.0760
6198.00,1.0674
6197.00,1.0583
6196.00,1.0488
6195.00,1.0391
6194.00,1.0292
6193.00,1.0192
6192.00,1.0091
6191.00,0.9989
6190.00,0.9884
6189.00,0.9777
6188.00,0.9667
6187.00,0.9556
6186.00,0.9444
6185.00,0.9333
6184.00,0.9222
6183.00,0.9112
6182.00,0.9002
6181.00,0.8894
6180.00,0.8786
6179.00,0.8679
6178.00,0.8572
6177.00,0.8465
6176.00,0.8357
6175.00,0.8251
6174.00,0.8147
6173.00,0.8046
6172.00,0.7950
6171.00,0.7858
6170.00,0.7771
6169.00,0.7688
6168.00,0.7611
6167.00,0.7537
6166.00,0.7467
6165.00,0.7402
6164.00,0.7342
6163.00,0.7287
6162.00,0.7238
6161.00,0.7195
6160.00,0.7159
6159.00,0.7129
6158.00,0.7105
6157.00,0.7087
6156.00,0.7076
6155.00,0.7071
6154.00,0.7074
6153.00,0.7085
6152.00,0.7102
6151.00,0.7125
6150.00,0.7154
6149.00,0.7189
6148.00,0.7229
6147.00,0.7275
6146.00,0.7327
6145.00,0.7385
6144.00,0.7448
6143.00,0.7516
6142.00,0.7590
6141.00,0.7669
6140.00,0.7751
6139.00,0.7837
6138.00,0.7923
6137.00,0.8012
6136.00,0.8101
6135.00,0.8194
6134.00,0.8292
6133.00,0.8393
6132.00,0.8497
6131.00,0.8602
6130.00,0.8708
6129.00,0.8814
6128.00,0.8918
6127.00,0.9021
6126.00,0.9126
6125.00,0.9235
6124.00,0.9345
6123.00,0.9455
6122.00,0.9564
6121.00,0.9672
6120.00,0.9780
6119.00,0.9886
6118.00,0.9988
6117.00,1.0087
6116.00,1.0183
6115.00,1.0279
6114.00,1.0375
6113.00,1.0471
6112.00,1.0566
6111.00,1.0658
6110.00,1.0749
6109.00,1.0837
6108.00,1.0923
6107.00,1.1005
6106.00,1.1083
6105.00,1.1158
6104.00,1.1232
6103.00,1.1305
6102.00,1.1374
6101.00,1.1438
6100.00,1.1497
6099.00,1.1553
6098.00,1.1608
6097.00,1.1657
6096.00,1.1699
6095.00,1.1737
6094.00,1.1774
6093.00,1.1812
6092.00,1.1850
6091.00,1.1884
6090.00,1.1915
6089.00,1.1944
6088.00,1.1971
6087.00,1.1993
6086.00,1.2006
6085.00,1.2014
6084.00,1.2020
6083.00,1.2023
6082.00,1.2022
6081.00,1.2014
6080.00,1.2002
6079.00,1.1988
6078.00,1.1973
6077.00,1.1956
6076.00,1.1933
6075.00,1.1906
6074.00,1.1876
6073.00,1.1843
6072.00,1.1803
6071.00,1.1757
6070.00,1.1706
6069.00,1.1653
6068.00,1.1598
6067.00,1.1541
6066.00,1.1483
6065.00,1.1421
6064.00,1.1356
6063.00,1.1286
6062.00,1.1211
6061.00,1.1132
6060.00,1.1049
6059.00,1.0963
6058.00,1.0875
6057.00,1.0783
6056.00,1.0687
6055.00,1.0588
6054.00,1.0487
6053.00,1.0385
6052.00,1.0279
6051.00,1.0171
6050.00,1.0061
6049.00,0.9948
6048.00,0.9831
6047.00,0.9711
6046.00,0.9590
6045.00,0.9468
6044.00,0.9348
6043.00,0.9227
6042.00,0.9105
6041.00,0.8983
6040.00,0.8861
6039.00,0.8740
6038.00,0.8620
6037.00,0.8503
6036.00,0.8389
6035.00,0.8278
6034.00,0.8171
6033.00,0.8067
6032.00,0.7966
6031.00,0.7867
6030.00,0.7769
6029.00,0.7674
6028.00,0.7584
6027.00,0.7500
6026.00,0.7421
6025.00,0.7349
6024.00,0.7283
6023.00,0.7226
6022.00,0.7175
6021.00,0.7132
6020.00,0.7094
6019.00,0.7062
6018.00,0.7038
6017.00,0.7021
6016.00,0.7012
6015.00,0.7009
6014.00,0.7014
6013.00,0.7026
6012.00,0.7044
6011.00,0.7068
6010.00,0.7098
6009.00,0.7136
6008.00,0.7180
6007.00,0.7231
6006.00,0.7289
6005.00,0.7353
6004.00,0.7422
6003.00,0.7495
6002.00,0.7573
6001.00,0.7655
6000.00,0.7741
5999.00,0.7829
5998.00,0.7920
5997.00,0.8016
5996.00,0.8115
5995.00,0.8217
5994.00,0.8320
5993.00,0.8424
5992.00,0.8528
5991.00,0.8632
5990.00,0.8738
5989.00,0.8845
5988.00,0.8953
5987.00,0.9063
5986.00,0.9174
5985.00,0.9286
5984.00,0.9397
5983.00,0.9506
5982.00,0.9614
5981.00,0.9721
5980.00,0.9828
5979.00,0.9932
5978.00,1.0034
5977.00,1.0136
5976.00,1.0237
5975.00,1.0337
5974.00,1.0435
5973.00,1.0531
5972.00,1.0627
5971.00,1.0720
5970.00,1.0810
5969.00,1.0897
5968.00,1.0983
5967.00,1.1067
5966.00,1.1148
5965.00,1.1226
5964.00,1.1299
5963.00,1.1367
5962.00,1.1430
5961.00,1.1490
5960.00,1.1549
5959.00,1.1607
5958.00,1.1665
5957.00,1.1720
5956.00,1.1770
5955.00,1.1812
5954.00,1.1848
5953.00,1.1882
5952.00,1.1914
5951.00,1.1945
5950.00,1.1972
5949.00,1.1995
5948.00,1.2012
5947.00,1.2024
5946.00,1.2030
5945.00,1.2031
5944.00,1.2030
5943.00,1.2026
5942.00,1.2021
5941.00,1.2012
5940.00,1.1998
5939.00,1.1980
5938.00,1.1958
5937.00,1.1935
5936.00,1.1909
5935.00,1.1880
5934.00,1.1847
5933.00,1.1809
5932.00,1.1769
5931.00,1.1726
5930.00,1.1679
5929.00,1.1630
5928.00,1.1579
5927.00,1.1526
5926.00,1.1467
5925.00,1.1401
5924.00,1.1328
5923.00,1.1251
5922.00,1.1172
5921.00,1.1091
5920.00,1.1007
5919.00,1.0921
5918.00,1.0833
5917.00,1.0740
5916.00,1.0643
5915.00,1.0543
5914.00,1.0442
5913.00,1.0339
5912.00,1.0233
5911.00,1.0124
5910.00,1.0011
5909.00,0.9895
5908.00,0.9777
5907.00,0.9656
5906.00,0.9535
5905.00,0.9412
5904.00,0.9288
5903.00,0.9164
5902.00,0.9039
5901.00,0.8916
5900.00,0.8792
5899.00,0.8669
5898.00,0.8547
5897.00,0.8428
5896.00,0.8310
5895.00,0.8193
5894.00,0.8079
5893.00,0.7968
5892.00,0.7862
5891.00,0.7759
5890.00,0.7660
5889.00,0.7566
5888.00,0.7478
5887.00,0.7395
5886.00,0.7318
5885.00,0.7246
5884.00,0.7180
5883.00,0.7121
5882.00,0.7067
5881.00,0.7022
5880.00,0.6983
5879.00,0.6951
5878.00,0.6927
5877.00,0.6911
5876.00,0.6903
5875.00,0.6901
5874.00,0.6907
5873.00,0.6922
5872.00,0.6943
5871.00,0.6971
5870.00,0.7006
5869.00,0.7047
5868.00,0.7095
5867.00,0.7148
5866.00,0.7209
5865.00,0.7276
5864.00,0.7348
5863.00,0.7425
5862.00,0.7505
5861.00,0.7589
5860.00,0.7676
5859.00,0.7767
5858.00,0.7864
5857.00,0.7966
5856.00,0.8071
5855.00,0.8177
5854.00,0.8286
5853.00,0.8396
5852.00,0.8506
5851.00,0.8617
5850.00,0.8730
5849.00,0.8844
5848.00,0.8959
5847.00,0.9074
5846.00,0.9188
5845.00,0.9303
5844.00,0.9418
5843.00,0.9532
5842.00,0.9644
5841.00,0.9755
5840.00,0.9864
5839.00,0.9971
5838.00,1.0078
5837.00,1.0184
5836.00,1.0288
5835.00,1.0389
5834.00,1.0488
5833.00,1.0584
5832.00,1.0678
5831.00,1.0770
5830.00,1.0859
5829.00,1.0944
5828.00,1.1023
5827.00,1.1098
5826.00,1.1171
5825.00,1.1243
5824.00,1.1313
5823.00,1.1379
5822.00,1.1445
5821.00,1.1512
5820.00,1.1579
5819.00,1.1641
5818.00,1.1699
5817.00,1.1752
5816.00,1.1801
5815.00,1.1843
5814.00,1.1880
5813.00,1.1914
5812.00,1.1948
5811.00,1.1983
5810.00,1.2016
5809.00,1.2045
5808.00,1.2069
5807.00,1.2088
5806.00,1.2102
5805.00,1.2113
5804.00,1.2119
5803.00,1.2121
5802.00,1.2120
5801.00,1.2115
5800.00,1.2105
5799.00,1.2089
5798.00,1.2069
5797.00,1.2047
5796.00,1.2023
5795.00,1.1995
5794.00,1.1964
5793.00,1.1930
5792.00,1.1891
5791.00,1.1848
5790.00,1.1802
5789.00,1.1753
5788.00,1.1702
5787.00,1.1646
5786.00,1.1586
5785.00,1.1522
5784.00,1.1456
5783.00,1.1385
5782.00,1.1311
5781.00,1.1231
5780.00,1.1148
5779.00,1.1060
5778.00,1.0967
5777.00,1.0870
5776.00,1.0769
5775.00,1.0665
5774.00,1.0558
5773.00,1.0449
5772.00,1.0336
5771.00,1.0221
5770.00,1.0103
5769.00,0.9983
5768.00,0.9860
5767.00,0.9735
5766.00,0.9609
5765.00,0.9484
5764.00,0.9358
5763.00,0.9231
5762.00,0.9103
5761.00,0.8977
5760.00,0.8850
5759.00,0.8721
5758.00,0.8593
5757.00,0.8465
5756.00,0.8339
5755.00,0.8216
5754.00,0.8095
5753.00,0.7978
5752.00,0.7864
5751.00,0.7755
5750.00,0.7651
5749.00,0.7551
5748.00,0.7456
5747.00,0.7367
5746.00,0.7283
5745.00,0.7206
5744.00,0.7134
5743.00,0.7069
5742.00,0.7011
5741.00,0.6961
5740.00,0.6918
5739.00,0.6881
5738.00,0.6851
5737.00,0.6830
5736.00,0.6817
5735.00,0.6812
5734.00,0.6815
5733.00,0.6827
5732.00,0.6846
5731.00,0.6874
5730.00,0.6909
5729.00,0.6951
5728.00,0.6999
5727.00,0.7055
5726.00,0.7118
5725.00,0.7186
5724.00,0.7260
5723.00,0.7340
5722.00,0.7425
5721.00,0.7515
5720.00,0.7608
5719.00,0.7705
5718.00,0.7806
5717.00,0.7910
5716.00,0.8017
5715.00,0.8126
5714.00,0.8237
5713.00,0.8350
5712.00,0.8466
5711.00,0.8583
5710.00,0.8702
5709.00,0.8823
5708.00,0.8945
5707.00,0.9065
5706.00,0.9185
5705.00,0.9304
5704.00,0.9422
5703.00,0.9541
5702.00,0.9659
5701.00,0.9775
5700.00,0.9890
5699.00,1.0003
5698.00,1.0115
5697.00,1.0223
5696.00,1.0329
5695.00,1.0434
5694.00,1.0539
5693.00,1.0642
5692.00,1.0742
5691.00,1.0839
5690.00,1.0935
5689.00,1.1030
5688.00,1.1121
5687.00,1.1210
5686.00,1.1294
5685.00,1.1375
5684.00,1.1452
5683.00,1.1527
5682.00,1.1598
5681.00,1.1666
5680.00,1.1732
5679.00,1.1795
5678.00,1.1857
5677.00,1.1914
5676.00,1.1965
5675.00,1.2007
5674.00,1.2043
5673.00,1.2076
5672.00,1.2106
5671.00,1.2134
5670.00,1.2159
5669.00,1.2184
5668.00,1.2206
5667.00,1.2224
5666.00,1.2236
5665.00,1.2243
5664.00,1.2248
5663.00,1.2250
5662.00,1.2247
5661.00,1.2237
5660.00,1.2223
5659.00,1.2206
5658.00,1.2188
5657.00,1.2169
5656.00,1.2146
5655.00,1.2119
5654.00,1.2087
5653.00,1.2049
5652.00,1.2004
5651.00,1.1955
5650.00,1.1903
5649.00,1.1850
5648.00,1.1795
5647.00,1.1736
5646.00,1.1672
5645.00,1.1602
5644.00,1.1526
5643.00,1.1446
5642.00,1.1361
5641.00,1.1274
5640.00,1.1183
5639.00,1.1090
5638.00,1.0995
5637.00,1.0897
5636.00,1.0793
5635.00,1.0686
5634.00,1.0576
5633.00,1.0463
5632.00,1.0347
5631.00,1.0227
5630.00,1.0103
5629.00,0.9977
5628.00,0.9847
5627.00,0.9714
5626.00,0.9580
5625.00,0.9445
5624.00,0.9309
5623.00,0.9172
5622.00,0.9032
5621.00,0.8892
5620.00,0.8751
5619.00,0.8612
5618.00,0.8476
5617.00,0.8344
5616.00,0.8214
5615.00,0.8085
5614.00,0.7958
5613.00,0.7835
5612.00,0.7714
5611.00,0.7598
5610.00,0.7486
5609.00,0.7381
5608.00,0.7280
5607.00,0.7185
5606.00,0.7096
5605.00,0.7013
5604.00,0.6937
5603.00,0.6868
5602.00,0.6808
5601.00,0.6756
5600.00,0.6711
5599.00,0.6675
5598.00,0.6647
5597.00,0.6628
5596.00,0.6617
5595.00,0.6616
5594.00,0.6623
5593.00,0.6639
5592.00,0.6663
5591.00,0.6694
5590.00,0.6734
5589.00,0.6782
5588.00,0.6838
5587.00,0.6900
5586.00,0.6969
5585.00,0.7044
5584.00,0.7126
5583.00,0.7214
5582.00,0.7306
5581.00,0.7404
5580.00,0.7506
5579.00,0.7611
5578.00,0.7720
5577.00,0.7833
5576.00,0.7949
5575.00,0.8067
5574.00,0.8187
5573.00,0.8309
5572.00,0.8433
5571.00,0.8557
5570.00,0.8683
5569.00,0.8809
5568.00,0.8936
5567.00,0.9062
5566.00,0.9188
5565.00,0.9315
5564.00,0.9442
5563.00,0.9569
5562.00,0.9695
5561.00,0.9818
5560.00,0.9940
5559.00,1.0060
5558.00,1.0178
5557.00,1.0294
5556.00,1.0408
5555.00,1.0521
5554.00,1.0631
5553.00,1.0740
5552.00,1.0845
5551.00,1.0948
5550.00,1.1049
5549.00,1.1148
5548.00,1.1244
5547.00,1.1338
5546.00,1.1428
5545.00,1.1514
5544.00,1.1594
5543.00,1.1669
5542.00,1.1739
5541.00,1.1806
5540.00,1.1870
5539.00,1.1933
5538.00,1.1996
5537.00,1.2058
5536.00,1.2116
5535.00,1.2170
5534.00,1.2218
5533.00,1.2260
5532.00,1.2297
5531.00,1.2329
5530.00,1.2357
5529.00,1.2383
5528.00,1.2405
5527.00,1.2423
5526.00,1.2437
5525.00,1.2449
5524.00,1.2456
5523.00,1.2458
5522.00,1.2454
5521.00,1.2446
5520.00,1.2435
5519.00,1.2419
5518.00,1.2401
5517.00,1.2381
5516.00,1.2359
5515.00,1.2334
5514.00,1.2303
5513.00,1.2267
5512.00,1.2224
5511.00,1.2176
5510.00,1.2125
5509.00,1.2071
5508.00,1.2017
5507.00,1.1959
5506.00,1.1896
5505.00,1.1825
5504.00,1.1748
5503.00,1.1666
5502.00,1.1582
5501.00,1.1495
5500.00,1.1406
5499.00,1.1313
5498.00,1.1215
5497.00,1.1112
5496.00,1.1005
5495.00,1.0894
5494.00,1.0778
5493.00,1.0661
5492.00,1.0540
5491.00,1.0418
5490.00,1.0292
5489.00,1.0163
5488.00,1.0031
5487.00,0.9897
5486.00,0.9761
5485.00,0.9624
5484.00,0.9485
5483.00,0.9345
5482.00,0.9203
5481.00,0.9061
5480.00,0.8920
5479.00,0.8779
5478.00,0.8640
5477.00,0.8503
5476.00,0.8367
5475.00,0.8233
5474.00,0.8103
5473.00,0.7976
5472.00,0.7853
5471.00,0.7734
5470.00,0.7620
5469.00,0.7511
5468.00,0.7408
5467.00,0.7310
5466.00,0.7219
5465.00,0.7136
5464.00,0.7060
5463.00,0.6992
5462.00,0.6933
5461.00,0.6882
5460.00,0.6840
5459.00,0.6806
5458.00,0.6782
5457.00,0.6766
5456.00,0.6760
5455.00,0.6764
5454.00,0.6776
5453.00,0.6795
5452.00,0.6821
5451.00,0.6855
5450.00,0.6897
5449.00,0.6949
5448.00,0.7009
5447.00,0.7076
5446.00,0.7151
5445.00,0.7233
5444.00,0.7320
5443.00,0.7411
5442.00,0.7507
5441.00,0.7611
5440.00,0.7721
5439.00,0.7835
5438.00,0.7951
5437.00,0.8069
5436.00,0.8190
5435.00,0.8316
5434.00,0.8445
5433.00,0.8574
5432.00,0.8701
5431.00,0.8828
5430.00,0.8955
5429.00,0.9087
5428.00,0.9223
5427.00,0.9362
5426.00,0.9501
5425.00,0.9636
5424.00,0.9767
5423.00,0.9896
5422.00,1.0025
5421.00,1.0152
5420.00,1.0278
5419.00,1.0401
5418.00,1.0521
5417.00,1.0636
5416.00,1.0748
5415.00,1.0857
5414.00,1.0966
5413.00,1.1073
5412.00,1.1178
5411.00,1.1282
5410.00,1.1384
5409.00,1.1486
5408.00,1.1586
5407.00,1.1681
5406.00,1.1771
5405.00,1.1856
5404.00,1.1937
5403.00,1.2015
5402.00,1.2089
5401.00,1.2159
5400.00,1.2222
5399.00,1.2278
5398.00,1.2330
5397.00,1.2378
5396.00,1.2427
5395.00,1.2474
5394.00,1.2520
5393.00,1.2560
5392.00,1.2594
5391.00,1.2622
5390.00,1.2647
5389.00,1.2669
5388.00,1.2686
5387.00,1.2699
5386.00,1.2708
5385.00,1.2713
5384.00,1.2712
5383.00,1.2709
5382.00,1.2702
5381.00,1.2693
5380.00,1.2680
5379.00,1.2663
5378.00,1.2641
5377.00,1.2615
5376.00,1.2586
5375.00,1.2554
5374.00,1.2519
5373.00,1.2479
5372.00,1.2433
5371.00,1.2382
5370.00,1.2327
5369.00,1.2269
5368.00,1.2207
5367.00,1.2142
5366.00,1.2073
5365.00,1.1999
5364.00,1.1918
5363.00,1.1830
5362.00,1.1738
5361.00,1.1644
5360.00,1.1547
5359.00,1.1449
5358.00,1.1348
5357.00,1.1243
5356.00,1.1132
5355.00,1.1015
5354.00,1.0893
5353.00,1.0767
5352.00,1.0635
5351.00,1.0500
5350.00,1.0361
5349.00,1.0222
5348.00,1.0082
5347.00,0.9939
5346.00,0.9794
5345.00,0.9647
5344.00,0.9497
5343.00,0.9347
5342.00,0.9196
5341.00,0.9047
5340.00,0.8897
5339.00,0.8748
5338.00,0.8600
5337.00,0.8453
5336.00,0.8309
5335.00,0.8169
5334.00,0.8032
5333.00,0.7899
5332.00,0.7771
5331.00,0.7648
5330.00,0.7531
5329.00,0.7420
5328.00,0.7315
5327.00,0.7218
5326.00,0.7128
5325.00,0.7046
5324.00,0.6972
5323.00,0.6907
5322.00,0.6851
5321.00,0.6805
5320.00,0.6768
5319.00,0.6741
5318.00,0.6722
5317.00,0.6714
5316.00,0.6714
5315.00,0.6724
5314.00,0.6743
5313.00,0.6770
5312.00,0.6806
5311.00,0.6850
5310.00,0.6902
5309.00,0.6963
5308.00,0.7033
5307.00,0.7112
5306.00,0.7198
5305.00,0.7291
5304.00,0.7388
5303.00,0.7490
5302.00,0.7598
5301.00,0.7711
5300.00,0.7829
5299.00,0.7951
5298.00,0.8077
5297.00,0.8206
5296.00,0.8337
5295.00,0.8470
5294.00,0.8603
5293.00,0.8736
5292.00,0.8872
5291.00,0.9011
5290.00,0.9153
5289.00,0.9296
5288.00,0.9439
5287.00,0.9580
5286.00,0.9719
5285.00,0.9857
5284.00,0.9995
5283.00,1.0132
5282.00,1.0267
5281.00,1.0399
5280.00,1.0529
5279.00,1.0658
5278.00,1.0785
5277.00,1.0910
5276.00,1.1033
5275.00,1.1153
5274.00,1.1268
5273.00,1.1381
5272.00,1.1491
5271.00,1.1597
5270.00,1.1699
5269.00,1.1797
5268.00,1.1893
5267.00,1.1983
5266.00,1.2068
5265.00,1.2151
5264.00,1.2233
5263.00,1.2313
5262.00,1.2390
5261.00,1.2463
5260.00,1.2531
5259.00,1.2594
5258.00,1.2652
5257.00,1.2706
5256.00,1.2756
5255.00,1.2804
5254.00,1.2849
5253.00,1.2889
5252.00,1.2924
5251.00,1.2954
5250.00,1.2979
5249.00,1.3000
5248.00,1.3018
5247.00,1.3032
5246.00,1.3041
5245.00,1.3047
5244.00,1.3048
5243.00,1.3049
5242.00,1.3048
5241.00,1.3045
5240.00,1.3038
5239.00,1.3026
5238.00,1.3008
5237.00,1.2984
5236.00,1.2954
5235.00,1.2921
5234.00,1.2883
5233.00,1.2841
5232.00,1.2794
5231.00,1.2743
5230.00,1.2687
5229.00,1.2628
5228.00,1.2563
5227.00,1.2494
5226.00,1.2420
5225.00,1.2344
5224.00,1.2265
5223.00,1.2184
5222.00,1.2100
5221.00,1.2011
5220.00,1.1916
5219.00,1.1817
5218.00,1.1713
5217.00,1.1604
5216.00,1.1490
5215.00,1.1371
5214.00,1.1246
5213.00,1.1118
5212.00,1.0986
5211.00,1.0853
5210.00,1.0717
5209.00,1.0579
5208.00,1.0438
5207.00,1.0294
5206.00,1.0147
5205.00,0.9999
5204.00,0.9850
5203.00,0.9700
5202.00,0.9551
5201.00,0.9402
5200.00,0.9254
5199.00,0.9107
5198.00,0.8963
5197.00,0.8821
5196.00,0.8683
5195.00,0.8546
5194.00,0.8410
5193.00,0.8275
5192.00,0.8140
5191.00,0.8007
5190.00,0.7877
5189.00,0.7751
5188.00,0.7632
5187.00,0.7520
5186.00,0.7415
5185.00,0.7318
5184.00,0.7229
5183.00,0.7150
5182.00,0.7080
5181.00,0.7020
5180.00,0.6970
5179.00,0.6931
5178.00,0.6903
5177.00,0.6886
5176.00,0.6879
5175.00,0.6882
5174.00,0.6897
5173.00,0.6922
5172.00,0.6957
5171.00,0.7002
5170.00,0.7056
5169.00,0.7120
5168.00,0.7191
5167.00,0.7270
5166.00,0.7357
5165.00,0.7452
5164.00,0.7554
5163.00,0.7662
5162.00,0.7776
5161.00,0.7894
5160.00,0.8016
5159.00,0.8142
5158.00,0.8271
5157.00,0.8404
5156.00,0.8542
5155.00,0.8682
5154.00,0.8825
5153.00,0.8969
5152.00,0.9112
5151.00,0.9256
5150.00,0.9401
5149.00,0.9545
5148.00,0.9690
5147.00,0.9834
5146.00,0.9976
5145.00,1.0119
5144.00,1.0261
5143.00,1.0402
5142.00,1.0543
5141.00,1.0681
5140.00,1.0816
5139.00,1.0948
5138.00,1.1078
5137.00,1.1205
5136.00,1.1329
5135.00,1.1451
5134.00,1.1570
5133.00,1.1685
5132.00,1.1797
5131.00,1.1904
5130.00,1.2006
5129.00,1.2105
5128.00,1.2201
5127.00,1.2296
5126.00,1.2388
5125.00,1.2477
5124.00,1.2562
5123.00,1.2642
5122.00,1.2716
5121.00,1.2783
5120.00,1.2845
5119.00,1.2902
5118.00,1.2956
5117.00,1.3010
5116.00,1.3061
5115.00,1.3108
5114.00,1.3150
5113.00,1.3185
5112.00,1.3216
5111.00,1.3245
5110.00,1.3272
5109.00,1.3297
5108.00,1.3318
5107.00,1.3334
5106.00,1.3345
5105.00,1.3351
5104.00,1.3353
5103.00,1.3350
5102.00,1.3342
5101.00,1.3328
5100.00,1.3307
5099.00,1.3281
5098.00,1.3251
5097.00,1.3219
5096.00,1.3186
5095.00,1.3151
5094.00,1.3111
5093.00,1.3065
5092.00,1.3013
5091.00,1.2956
5090.00,1.2896
5089.00,1.2834
5088.00,1.2770
5087.00,1.2702
5086.00,1.2630
5085.00,1.2553
5084.00,1.2470
5083.00,1.2383
5082.00,1.2290
5081.00,1.2191
5080.00,1.2088
5079.00,1.1980
5078.00,1.1867
5077.00,1.1751
5076.00,1.1629
5075.00,1.1502
5074.00,1.1372
5073.00,1.1239
5072.00,1.1103
5071.00,1.0963
5070.00,1.0819
5069.00,1.0670
5068.00,1.0516
5067.00,1.0360
5066.00,1.0202
5065.00,1.0044
5064.00,0.9883
5063.00,0.9721
5062.00,0.9557
5061.00,0.9391
5060.00,0.9225
5059.00,0.9058
5058.00,0.8894
5057.00,0.8732
5056.00,0.8573
5055.00,0.8418
5054.00,0.8268
5053.00,0.8122
5052.00,0.7982
5051.00,0.7848
5050.00,0.7720
5049.00,0.7599
5048.00,0.7485
5047.00,0.7378
5046.00,0.7278
5045.00,0.7188
5044.00,0.7106
5043.00,0.7034
5042.00,0.6973
5041.00,0.6922
5040.00,0.6882
5039.00,0.6854
5038.00,0.6836
5037.00,0.6830
5036.00,0.6834
5035.00,0.6848
5034.00,0.6873
5033.00,0.6907
5032.00,0.6952
5031.00,0.7007
5030.00,0.7072
5029.00,0.7146
5028.00,0.7230
5027.00,0.7321
5026.00,0.7420
5025.00,0.7526
5024.00,0.7639
5023.00,0.7759
5022.00,0.7884
5021.00,0.8015
5020.00,0.8149
5019.00,0.8287
5018.00,0.8428
5017.00,0.8573
5016.00,0.8721
5015.00,0.8872
5014.00,0.9024
5013.00,0.9176
5012.00,0.9329
5011.00,0.9481
5010.00,0.9634
5009.00,0.9788
5008.00,0.9941
5007.00,1.0095
5006.00,1.0246
5005.00,1.0395
5004.00,1.0541
5003.00,1.0685
5002.00,1.0826
5001.00,1.0965
5000.00,1.1101
4999.00,1.1234
4998.00,1.1364
4997.00,1.1491
4996.00,1.1616
4995.00,1.1739
4994.00,1.1861
4993.00,1.1980
4992.00,1.2096
4991.00,1.2208
4990.00,1.2316
4989.00,1.2420
4988.00,1.2522
4987.00,1.2620
4986.00,1.2717
4985.00,1.2813
4984.00,1.2906
4983.00,1.2997
4982.00,1.3084
4981.00,1.3165
4980.00,1.3236
4979.00,1.3295
4978.00,1.3344
4977.00,1.3388
4976.00,1.3429
4975.00,1.3469
4974.00,1.3507
4973.00,1.3542
4972.00,1.3574
4971.00,1.3604
4970.00,1.3632
4969.00,1.3655
4968.00,1.3674
4967.00,1.3690
4966.00,1.3701
4965.00,1.3708
4964.00,1.3708
4963.00,1.3703
4962.00,1.3694
4961.00,1.3681
4960.00,1.3664
4959.00,1.3643
4958.00,1.3618
4957.00,1.3588
4956.00,1.3554
4955.00,1.3517
4954.00,1.3477
4953.00,1.3433
4952.00,1.3384
4951.00,1.3331
4950.00,1.3274
4949.00,1.3214
4948.00,1.3149
4947.00,1.3078
4946.00,1.3002
4945.00,1.2922
4944.00,1.2837
4943.00,1.2748
4942.00,1.2653
4941.00,1.2553
4940.00,1.2447
4939.00,1.2336
4938.00,1.2219
4937.00,1.2099
4936.00,1.1975
4935.00,1.1847
4934.00,1.1716
4933.00,1.1581
4932.00,1.1440
4931.00,1.1295
4930.00,1.1144
4929.00,1.0989
4928.00,1.0832
4927.00,1.0671
4926.00,1.0508
4925.00,1.0343
4924.00,1.0175
4923.00,1.0005
4922.00,0.9834
4921.00,0.9662
4920.00,0.9490
4919.00,0.9317
4918.00,0.9145
4917.00,0.8975
4916.00,0.8808
4915.00,0.8643
4914.00,0.8482
4913.00,0.8324
4912.00,0.8171
4911.00,0.8024
4910.00,0.7884
4909.00,0.7752
4908.00,0.7627
4907.00,0.7511
4906.00,0.7405
4905.00,0.7308
4904.00,0.7222
4903.00,0.7146
4902.00,0.7082
4901.00,0.7028
4900.00,0.6986
4899.00,0.6956
4898.00,0.6938
4897.00,0.6933
4896.00,0.6939
4895.00,0.6958
4894.00,0.6988
4893.00,0.7029
4892.00,0.7081
4891.00,0.7144
4890.00,0.7217
4889.00,0.7301
4888.00,0.7393
4887.00,0.7494
4886.00,0.7604
4885.00,0.7721
4884.00,0.7844
4883.00,0.7974
4882.00,0.8109
4881.00,0.8248
4880.00,0.8391
4879.00,0.8537
4878.00,0.8688
4877.00,0.8843
4876.00,0.8999
4875.00,0.9156
4874.00,0.9314
4873.00,0.9473
4872.00,0.9633
4871.00,0.9793
4870.00,0.9953
4869.00,1.0113
4868.00,1.0273
4867.00,1.0433
4866.00,1.0592
4865.00,1.0750
4864.00,1.0905
4863.00,1.1056
4862.00,1.1204
4861.00,1.1349
4860.00,1.1494
4859.00,1.1638
4858.00,1.1780
4857.00,1.1917
4856.00,1.2050
4855.00,1.2177
4854.00,1.2299
4853.00,1.2419
4852.00,1.2535
4851.00,1.2647
4850.00,1.2753
4849.00,1.2853
4848.00,1.2949
4847.00,1.3043
4846.00,1.3134
4845.00,1.3222
4844.00,1.3307
4843.00,1.3388
4842.00,1.3464
4841.00,1.3535
4840.00,1.3602
4839.00,1.3665
4838.00,1.3723
4837.00,1.3775
4836.00,1.3822
4835.00,1.3863
4834.00,1.3899
4833.00,1.3932
4832.00,1.3963
4831.00,1.3992
4830.00,1.4016
4829.00,1.4035
4828.00,1.4049
4827.00,1.4057
4826.00,1.4061
4825.00,1.4061
4824.00,1.4056
4823.00,1.4048
4822.00,1.4038
4821.00,1.4024
4820.00,1.4006
4819.00,1.3982
4818.00,1.3952
4817.00,1.3917
4816.00,1.3879
4815.00,1.3838
4814.00,1.3794
4813.00,1.3744
4812.00,1.3689
4811.00,1.3628
4810.00,1.3563
4809.00,1.3494
4808.00,1.3421
4807.00,1.3344
4806.00,1.3262
4805.00,1.3175
4804.00,1.3083
4803.00,1.2987
4802.00,1.2886
4801.00,1.2779
4800.00,1.2667
4799.00,1.2548
4798.00,1.2425
4797.00,1.2298
4796.00,1.2168
4795.00,1.2033
4794.00,1.1894
4793.00,1.1750
4792.00,1.1599
4791.00,1.1443
4790.00,1.1282
4789.00,1.1118
4788.00,1.0952
4787.00,1.0782
4786.00,1.0609
4785.00,1.0432
4784.00,1.0252
4783.00,1.0071
4782.00,0.9888
4781.00,0.9705
4780.00,0.9522
4779.00,0.9340
4778.00,0.9159
4777.00,0.8981
4776.00,0.8806
4775.00,0.8634
4774.00,0.8468
4773.00,0.8306
4772.00,0.8151
4771.00,0.8002
4770.00,0.7860
4769.00,0.7725
4768.00,0.7600
4767.00,0.7484
4766.00,0.7379
4765.00,0.7285
4764.00,0.7201
4763.00,0.7129
4762.00,0.7068
4761.00,0.7020
4760.00,0.6985
4759.00,0.6962
4758.00,0.6952
4757.00,0.6955
4756.00,0.6971
4755.00,0.6999
4754.00,0.7040
4753.00,0.7093
4752.00,0.7158
4751.00,0.7236
4750.00,0.7324
4749.00,0.7421
4748.00,0.7527
4747.00,0.7640
4746.00,0.7762
4745.00,0.7892
4744.00,0.8029
4743.00,0.8172
4742.00,0.8320
4741.00,0.8472
4740.00,0.8629
4739.00,0.8789
4738.00,0.8953
4737.00,0.9119
4736.00,0.9286
4735.00,0.9454
4734.00,0.9622
4733.00,0.9792
4732.00,0.9962
4731.00,1.0132
4730.00,1.0302
4729.00,1.0470
4728.00,1.0637
4727.00,1.0802
4726.00,1.0965
4725.00,1.1126
4724.00,1.1285
4723.00,1.1442
4722.00,1.1597
4721.00,1.1750
4720.00,1.1899
4719.00,1.2044
4718.00,1.2186
4717.00,1.2324
4716.00,1.2457
4715.00,1.2587
4714.00,1.2714
4713.00,1.2840
4712.00,1.2964
4711.00,1.3083
4710.00,1.3195
4709.00,1.3300
4708.00,1.3401
4707.00,1.3497
4706.00,1.3590
4705.00,1.3678
4704.00,1.3762
4703.00,1.3841
4702.00,1.3916
4701.00,1.3988
4700.00,1.4056
4699.00,1.4119
4698.00,1.4174
4697.00,1.4222
4696.00,1.4265
4695.00,1.4305
4694.00,1.4343
4693.00,1.4377
4692.00,1.4408
4691.00,1.4434
4690.00,1.4455
4689.00,1.4472
4688.00,1.4485
4687.00,1.4495
4686.00,1.4501
4685.00,1.4502
4684.00,1.4497
4683.00,1.4487
4682.00,1.4471
4681.00,1.4451
4680.00,1.4427
4679.00,1.4400
4678.00,1.4371
4677.00,1.4340
4676.00,1.4304
4675.00,1.4261
4674.00,1.4212
4673.00,1.4158
4672.00,1.4100
4671.00,1.4039
4670.00,1.3973
4669.00,1.3901
4668.00,1.3823
4667.00,1.3741
4666.00,1.3654
4665.00,1.3565
4664.00,1.3472
4663.00,1.3375
4662.00,1.3274
4661.00,1.3166
4660.00,1.3052
4659.00,1.2931
4658.00,1.2804
4657.00,1.2673
4656.00,1.2538
4655.00,1.2398
4654.00,1.2252
4653.00,1.2101
4652.00,1.1944
4651.00,1.1783
4650.00,1.1616
4649.00,1.1446
4648.00,1.1270
4647.00,1.1092
4646.00,1.0909
4645.00,1.0724
4644.00,1.0536
4643.00,1.0345
4642.00,1.0152
4641.00,0.9958
4640.00,0.9765
4639.00,0.9571
4638.00,0.9380
4637.00,0.9190
4636.00,0.9004
4635.00,0.8821
4634.00,0.8643
4633.00,0.8471
4632.00,0.8305
4631.00,0.8146
4630.00,0.7995
4629.00,0.7854
4628.00,0.7722
4627.00,0.7601
4626.00,0.7491
4625.00,0.7394
4624.00,0.7310
4623.00,0.7237
4622.00,0.7178
4621.00,0.7133
4620.00,0.7102
4619.00,0.7084
4618.00,0.7081
4617.00,0.7093
4616.00,0.7119
4615.00,0.7159
4614.00,0.7213
4613.00,0.7279
4612.00,0.7358
4611.00,0.7448
4610.00,0.7549
4609.00,0.7661
4608.00,0.7782
4607.00,0.7911
4606.00,0.8048
4605.00,0.8192
4604.00,0.8342
4603.00,0.8497
4602.00,0.8658
4601.00,0.8824
4600.00,0.8993
4599.00,0.9165
4598.00,0.9340
4597.00,0.9517
4596.00,0.9694
4595.00,0.9872
4594.00,1.0051
4593.00,1.0230
4592.00,1.0408
4591.00,1.0586
4590.00,1.0764
4589.00,1.0940
4588.00,1.1115
4587.00,1.1287
4586.00,1.1458
4585.00,1.1625
4584.00,1.1789
4583.00,1.1950
4582.00,1.2109
4581.00,1.2266
4580.00,1.2418
4579.00,1.2565
4578.00,1.2708
4577.00,1.2848
4576.00,1.2986
4575.00,1.3121
4574.00,1.3251
4573.00,1.3374
4572.00,1.3489
4571.00,1.3599
4570.00,1.3705
4569.00,1.3807
4568.00,1.3907
4567.00,1.4002
4566.00,1.4092
4565.00,1.4178
4564.00,1.4259
4563.00,1.4335
4562.00,1.4405
4561.00,1.4469
4560.00,1.4528
4559.00,1.4581
4558.00,1.4631
4557.00,1.4677
4556.00,1.4721
4555.00,1.4762
4554.00,1.4797
4553.00,1.4825
4552.00,1.4846
4551.00,1.4863
4550.00,1.4877
4549.00,1.4888
4548.00,1.4895
4547.00,1.4896
4546.00,1.4892
4545.00,1.4883
4544.00,1.4871
4543.00,1.4855
4542.00,1.4835
4541.00,1.4812
4540.00,1.4783
4539.00,1.4747
4538.00,1.4707
4537.00,1.4662
4536.00,1.4613
4535.00,1.4562
4534.00,1.4507
4533.00,1.4450
4532.00,1.4389
4531.00,1.4325
4530.00,1.4259
4529.00,1.4189
4528.00,1.4114
4527.00,1.4034
4526.00,1.3948
4525.00,1.3857
4524.00,1.3763
4523.00,1.3664
4522.00,1.3561
4521.00,1.3453
4520.00,1.3338
4519.00,1.3215
4518.00,1.3084
4517.00,1.2947
4516.00,1.2804
4515.00,1.2656
4514.00,1.2502
4513.00,1.2343
4512.00,1.2178
4511.00,1.2007
4510.00,1.1831
4509.00,1.1650
4508.00,1.1466
4507.00,1.1276
4506.00,1.1083
4505.00,1.0888
4504.00,1.0690
4503.00,1.0491
4502.00,1.0292
4501.00,1.0091
4500.00,0.9891
4499.00,0.9693
4498.00,0.9497
4497.00,0.9305
4496.00,0.9119
4495.00,0.8937
4494.00,0.8762
4493.00,0.8593
4492.00,0.8433
4491.00,0.8281
4490.00,0.8141
4489.00,0.8012
4488.00,0.7894
4487.00,0.7789
4486.00,0.7698
4485.00,0.7619
4484.00,0.7554
4483.00,0.7504
4482.00,0.7470
4481.00,0.7450
4480.00,0.7445
4479.00,0.7456
4478.00,0.7482
4477.00,0.7522
4476.00,0.7577
4475.00,0.7645
4474.00,0.7727
4473.00,0.7821
4472.00,0.7928
4471.00,0.8046
4470.00,0.8173
4469.00,0.8310
4468.00,0.8455
4467.00,0.8607
4466.00,0.8765
4465.00,0.8929
4464.00,0.9098
4463.00,0.9272
4462.00,0.9450
4461.00,0.9632
4460.00,0.9816
4459.00,1.0001
4458.00,1.0189
4457.00,1.0378
4456.00,1.0568
4455.00,1.0758
4454.00,1.0949
4453.00,1.1138
4452.00,1.1327
4451.00,1.1514
4450.00,1.1698
4449.00,1.1878
4448.00,1.2055
4447.00,1.2228
4446.00,1.2397
4445.00,1.2562
4444.00,1.2724
4443.00,1.2881
4442.00,1.3033
4441.00,1.3178
4440.00,1.3315
4439.00,1.3445
4438.00,1.3567
4437.00,1.3684
4436.00,1.3795
4435.00,1.3901
4434.00,1.4003
4433.00,1.4101
4432.00,1.4196
4431.00,1.4289
4430.00,1.4378
4429.00,1.4465
4428.00,1.4547
4427.00,1.4625
4426.00,1.4699
4425.00,1.4771
4424.00,1.4841
4423.00,1.4909
4422.00,1.4974
4421.00,1.5036
4420.00,1.5094
4419.00,1.5151
4418.00,1.5205
4417.00,1.5257
4416.00,1.5304
4415.00,1.5345
4414.00,1.5381
4413.00,1.5412
4412.00,1.5440
4411.00,1.5463
4410.00,1.5483
4409.00,1.5497
4408.00,1.5506
4407.00,1.5509
4406.00,1.5509
4405.00,1.5507
4404.00,1.5504
4403.00,1.5499
4402.00,1.5490
4401.00,1.5475
4400.00,1.5453
4399.00,1.5427
4398.00,1.5398
4397.00,1.5364
4396.00,1.5327
4395.00,1.5284
4394.00,1.5237
4393.00,1.5185
4392.00,1.5129
4391.00,1.5068
4390.00,1.5002
4389.00,1.4931
4388.00,1.4854
4387.00,1.4773
4386.00,1.4687
4385.00,1.4596
4384.00,1.4500
4383.00,1.4400
4382.00,1.4297
4381.00,1.4190
4380.00,1.4081
4379.00,1.3969
4378.00,1.3855
4377.00,1.3738
4376.00,1.3617
4375.00,1.3492
4374.00,1.3364
4373.00,1.3234
4372.00,1.3102
4371.00,1.2968
4370.00,1.2833
4369.00,1.2695
4368.00,1.2554
4367.00,1.2410
4366.00,1.2262
4365.00,1.2109
4364.00,1.1952
4363.00,1.1790
4362.00,1.1623
4361.00,1.1450
4360.00,1.1270
4359.00,1.1082
4358.00,1.0888
4357.00,1.0689
4356.00,1.0486
4355.00,1.0280
4354.00,1.0074
4353.00,0.9868
4352.00,0.9665
4351.00,0.9466
4350.00,0.9273
4349.00,0.9086
4348.00,0.8908
4347.00,0.8738
4346.00,0.8580
4345.00,0.8433
4344.00,0.8300
4343.00,0.8181
4342.00,0.8078
4341.00,0.7990
4340.00,0.7920
4339.00,0.7866
4338.00,0.7830
4337.00,0.7812
4336.00,0.7812
4335.00,0.7829
4334.00,0.7865
4333.00,0.7918
4332.00,0.7988
4331.00,0.8074
4330.00,0.8175
4329.00,0.8289
4328.00,0.8415
4327.00,0.8553
4326.00,0.8700
4325.00,0.8856
4324.00,0.9019
4323.00,0.9187
4322.00,0.9358
4321.00,0.9532
4320.00,0.9706
4319.00,0.9881
4318.00,1.0056
4317.00,1.0232
4316.00,1.0409
4315.00,1.0588
4314.00,1.0769
4313.00,1.0950
4312.00,1.1131
4311.00,1.1312
4310.00,1.1495
4309.00,1.1677
4308.00,1.1859
4307.00,1.2040
4306.00,1.2219
4305.00,1.2398
4304.00,1.2575
4303.00,1.2749
4302.00,1.2919
4301.00,1.3084
4300.00,1.3247
4299.00,1.3407
4298.00,1.3564
4297.00,1.3714
4296.00,1.3859
4295.00,1.3997
4294.00,1.4131
4293.00,1.4262
4292.00,1.4389
4291.00,1.4513
4290.00,1.4633
4289.00,1.4745
4288.00,1.4850
4287.00,1.4949
4286.00,1.5041
4285.00,1.5131
4284.00,1.5216
4283.00,1.5297
4282.00,1.5372
4281.00,1.5439
4280.00,1.5501
4279.00,1.5559
4278.00,1.5613
4277.00,1.5664
4276.00,1.5710
4275.00,1.5750
4274.00,1.5786
4273.00,1.5817
4272.00,1.5845
4271.00,1.5869
4270.00,1.5890
4269.00,1.5908
4268.00,1.5921
4267.00,1.5928
4266.00,1.5928
4265.00,1.5923
4264.00,1.5913
4263.00,1.5900
4262.00,1.5883
4261.00,1.5864
4260.00,1.5841
4259.00,1.5814
4258.00,1.5782
4257.00,1.5743
4256.00,1.5700
4255.00,1.5652
4254.00,1.5600
4253.00,1.5542
4252.00,1.5478
4251.00,1.5407
4250.00,1.5331
4249.00,1.5251
4248.00,1.5168
4247.00,1.5082
4246.00,1.4992
4245.00,1.4898
4244.00,1.4797
4243.00,1.4690
4242.00,1.4576
4241.00,1.4457
4240.00,1.4331
4239.00,1.4199
4238.00,1.4061
4237.00,1.3917
4236.00,1.3767
4235.00,1.3611
4234.00,1.3448
4233.00,1.3278
4232.00,1.3102
4231.00,1.2921
4230.00,1.2736
4229.00,1.2545
4228.00,1.2347
4227.00,1.2143
4226.00,1.1934
4225.00,1.1720
4224.00,1.1503
4223.00,1.1281
4222.00,1.1054
4221.00,1.0824
4220.00,1.0592
4219.00,1.0361
4218.00,1.0131
4217.00,0.9904
4216.00,0.9679
4215.00,0.9459
4214.00,0.9243
4213.00,0.9035
4212.00,0.8834
4211.00,0.8642
4210.00,0.8461
4209.00,0.8292
4208.00,0.8135
4207.00,0.7992
4206.00,0.7863
4205.00,0.7751
4204.00,0.7655
4203.00,0.7576
4202.00,0.7515
4201.00,0.7471
4200.00,0.7445
4199.00,0.7438
4198.00,0.7450
4197.00,0.7481
4196.00,0.7530
4195.00,0.7596
4194.00,0.7679
4193.00,0.7777
4192.00,0.7890
4191.00,0.8017
4190.00,0.8157
4189.00,0.8308
4188.00,0.8469
4187.00,0.8640
4186.00,0.8819
4185.00,0.9005
4184.00,0.9197
4183.00,0.9393
4182.00,0.9593
4181.00,0.9796
4180.00,1.0002
4179.00,1.0211
4178.00,1.0422
4177.00,1.0634
4176.00,1.0847
4175.00,1.1058
4174.00,1.1269
4173.00,1.1477
4172.00,1.1685
4171.00,1.1890
4170.00,1.2093
4169.00,1.2293
4168.00,1.2490
4167.00,1.2684
4166.00,1.2875
4165.00,1.3062
4164.00,1.3246
4163.00,1.3426
4162.00,1.3601
4161.00,1.3770
4160.00,1.3935
4159.00,1.4095
4158.00,1.4251
4157.00,1.4403
4156.00,1.4550
4155.00,1.4690
4154.00,1.4823
4153.00,1.4950
4152.00,1.5072
4151.00,1.5192
4150.00,1.5308
4149.00,1.5417
4148.00,1.5519
4147.00,1.5614
4146.00,1.5702
4145.00,1.5786
4144.00,1.5865
4143.00,1.5938
4142.00,1.6006
4141.00,1.6068
4140.00,1.6126
4139.00,1.6180
4138.00,1.6232
4137.00,1.6280
4136.00,1.6322
4135.00,1.6359
4134.00,1.6391
4133.00,1.6421
4132.00,1.6447
4131.00,1.6468
4130.00,1.6483
4129.00,1.6490
4128.00,1.6489
4127.00,1.6484
4126.00,1.6477
4125.00,1.6469
4124.00,1.6461
4123.00,1.6450
4122.00,1.6435
4121.00,1.6413
4120.00,1.6385
4119.00,1.6350
4118.00,1.6310
4117.00,1.6264
4116.00,1.6214
4115.00,1.6159
4114.00,1.6099
4113.00,1.6035
4112.00,1.5968
4111.00,1.5897
4110.00,1.5821
4109.00,1.5740
4108.00,1.5652
4107.00,1.5557
4106.00,1.5457
4105.00,1.5353
4104.00,1.5246
4103.00,1.5133
4102.00,1.5014
4101.00,1.4888
4100.00,1.4755
4099.00,1.4616
4098.00,1.4470
4097.00,1.4319
4096.00,1.4161
4095.00,1.3995
4094.00,1.3823
4093.00,1.3644
4092.00,1.3457
4091.00,1.3265
4090.00,1.3066
4089.00,1.2862
4088.00,1.2652
4087.00,1.2437
4086.00,1.2217
4085.00,1.1993
4084.00,1.1765
4083.00,1.1533
4082.00,1.1298
4081.00,1.1060
4080.00,1.0823
4079.00,1.0588
4078.00,1.0355
4077.00,1.0125
4076.00,0.9899
4075.00,0.9677
4074.00,0.9462
4073.00,0.9255
4072.00,0.9058
4071.00,0.8872
4070.00,0.8698
4069.00,0.8537
4068.00,0.8391
4067.00,0.8260
4066.00,0.8146
4065.00,0.8049
4064.00,0.7969
4063.00,0.7908
4062.00,0.7866
4061.00,0.7842
4060.00,0.7837
4059.00,0.7852
4058.00,0.7887
4057.00,0.7941
4056.00,0.8014
4055.00,0.8105
4054.00,0.8214
4053.00,0.8339
4052.00,0.8479
4051.00,0.8633
4050.00,0.8800
4049.00,0.8978
4048.00,0.9165
4047.00,0.9361
4046.00,0.9564
4045.00,0.9772
4044.00,0.9986
4043.00,1.0203
4042.00,1.0425
4041.00,1.0648
4040.00,1.0874
4039.00,1.1100
4038.00,1.1326
4037.00,1.1549
4036.00,1.1771
4035.00,1.1990
4034.00,1.2207
4033.00,1.2419
4032.00,1.2626
4031.00,1.2828
4030.00,1.3023
4029.00,1.3212
4028.00,1.3395
4027.00,1.3572
4026.00,1.3745
4025.00,1.3916
4024.00,1.4084
4023.00,1.4248
4022.00,1.4408
4021.00,1.4562
4020.00,1.4713
4019.00,1.4861
4018.00,1.5005
4017.00,1.5146
4016.00,1.5283
4015.00,1.5415
4014.00,1.5542
4013.00,1.5664
4012.00,1.5779
4011.00,1.5890
4010.00,1.5996
4009.00,1.6098
4008.00,1.6193
4007.00,1.6283
4006.00,1.6365
4005.00,1.6444
4004.00,1.6520
4003.00,1.6594
4002.00,1.6665
4001.00,1.6731
4000.00,1.6791
3999.00,1.6846
3998.00,1.6893
3997.00,1.6933
3996.00,1.6968
3995.00,1.6999
3994.00,1.7028
3993.00,1.7055
3992.00,1.7078
3991.00,1.7096
3990.00,1.7105
3989.00,1.7106
3988.00,1.7102
3987.00,1.7096
3986.00,1.7089
3985.00,1.7082
3984.00,1.7071
3983.00,1.7053
3982.00,1.7028
3981.00,1.6999
3980.00,1.6966
3979.00,1.6932
3978.00,1.6895
3977.00,1.6856
3976.00,1.6814
3975.00,1.6766
3974.00,1.6712
3973.00,1.6650
3972.00,1.6581
3971.00,1.6506
3970.00,1.6426
3969.00,1.6342
3968.00,1.6253
3967.00,1.6157
3966.00,1.6054
3965.00,1.5945
3964.00,1.5830
3963.00,1.5710
3962.00,1.5585
3961.00,1.5454
3960.00,1.5317
3959.00,1.5173
3958.00,1.5022
3957.00,1.4864
3956.00,1.4698
3955.00,1.4524
3954.00,1.4342
3953.00,1.4150
3952.00,1.3951
3951.00,1.3745
3950.00,1.3533
3949.00,1.3312
3948.00,1.3085
3947.00,1.2854
3946.00,1.2621
3945.00,1.2383
3944.00,1.2138
3943.00,1.1888
3942.00,1.1635
3941.00,1.1381
3940.00,1.1124
3939.00,1.0865
3938.00,1.0604
3937.00,1.0345
3936.00,1.0091
3935.00,0.9846
3934.00,0.9610
3933.00,0.9382
3932.00,0.9163
3931.00,0.8952
3930.00,0.8753
3929.00,0.8572
3928.00,0.8410
3927.00,0.8265
3926.00,0.8137
3925.00,0.8025
3924.00,0.7933
3923.00,0.7860
3922.00,0.7809
3921.00,0.7782
3920.00,0.7782
3919.00,0.7809
3918.00,0.7861
3917.00,0.7936
3916.00,0.8030
3915.00,0.8142
3914.00,0.8267
3913.00,0.8406
3912.00,0.8558
3911.00,0.8720
3910.00,0.8890
3909.00,0.9064
3908.00,0.9243
3907.00,0.9426
3906.00,0.9614
3905.00,0.9815
3904.00,1.0037
3903.00,1.0279
3902.00,1.0532
3901.00,1.0789
3900.00,1.1049
3899.00,1.1311
3898.00,1.1571
3897.00,1.1821
3896.00,1.2057
3895.00,1.2282
3894.00,1.2497
3893.00,1.2705
3892.00,1.2914
3891.00,1.3132
3890.00,1.3360
3889.00,1.3583
3888.00,1.3791
3887.00,1.3984
3886.00,1.4180
3885.00,1.4386
3884.00,1.4596
3883.00,1.4793
3882.00,1.4973
3881.00,1.5146
3880.00,1.5321
3879.00,1.5497
3878.00,1.5664
3877.00,1.5811
3876.00,1.5937
3875.00,1.6052
3874.00,1.6169
3873.00,1.6288
3872.00,1.6396
3871.00,1.6493
3870.00,1.6592
3869.00,1.6701
3868.00,1.6811
3867.00,1.6910
3866.00,1.6997
3865.00,1.7078
3864.00,1.7157
3863.00,1.7231
3862.00,1.7296
3861.00,1.7349
3860.00,1.7386
3859.00,1.7405
3858.00,1.7415
3857.00,1.7430
3856.00,1.7453
3855.00,1.7478
3854.00,1.7509
3853.00,1.7551
3852.00,1.7592
3851.00,1.7623
3850.00,1.7646
3849.00,1.7664
3848.00,1.7679
3847.00,1.7687
3846.00,1.7684
3845.00,1.7665
3844.00,1.7632
3843.00,1.7592
3842.00,1.7549
3841.00,1.7504
3840.00,1.7455
3839.00,1.7405
3838.00,1.7356
3837.00,1.7308
3836.00,1.7260
3835.00,1.7208
3834.00,1.7148
3833.00,1.7079
3832.00,1.7005
3831.00,1.6931
3830.00,1.6855
3829.00,1.6770
3828.00,1.6666
3827.00,1.6545
3826.00,1.6422
3825.00,1.6306
3824.00,1.6193
3823.00,1.6059
3822.00,1.5896
3821.00,1.5722
3820.00,1.5556
3819.00,1.5404
3818.00,1.5247
3817.00,1.5072
3816.00,1.4884
3815.00,1.4689
3814.00,1.4491
3813.00,1.4287
3812.00,1.4079
3811.00,1.3872
3810.00,1.3664
3809.00,1.3440
3808.00,1.3185
3807.00,1.2905
3806.00,1.2624
3805.00,1.2358
3804.00,1.2097
3803.00,1.1818
3802.00,1.1516
3801.00,1.1210
3800.00,1.0915
3799.00,1.0637
3798.00,1.0366
3797.00,1.0097
3796.00,0.9835
3795.00,0.9585
3794.00,0.9349
3793.00,0.9126
3792.00,0.8916
3791.00,0.8721
3790.00,0.8544
3789.00,0.8387
3788.00,0.8251
3787.00,0.8134
3786.00,0.8035
3785.00,0.7958
3784.00,0.7909
3783.00,0.7891
3782.00,0.7900
3781.00,0.7931
3780.00,0.7986
3779.00,0.8068
3778.00,0.8175
3777.00,0.8301
3776.00,0.8442
3775.00,0.8602
3774.00,0.8781
3773.00,0.8974
3772.00,0.9175
3771.00,0.9386
3770.00,0.9615
3769.00,0.9864
3768.00,1.0121
3767.00,1.0374
3766.00,1.0627
3765.00,1.0888
3764.00,1.1156
3763.00,1.1421
3762.00,1.1674
3761.00,1.1921
3760.00,1.2171
3759.00,1.2424
3758.00,1.2674
3757.00,1.2916
3756.00,1.3145
3755.00,1.3361
3754.00,1.3566
3753.00,1.3765
3752.00,1.3964
3751.00,1.4164
3750.00,1.4368
3749.00,1.4571
3748.00,1.4764
3747.00,1.4931
3746.00,1.5071
3745.00,1.5212
3744.00,1.5375
3743.00,1.5533
3742.00,1.5649
3741.00,1.5713
3740.00,1.5746
3739.00,1.5766
3738.00,1.5777
3737.00,1.5784
3736.00,1.5813
3735.00,1.5837
3734.00,1.5913
3733.00,1.5907
3732.00,1.6081
3731.00,1.5948
3730.00,1.7064
3729.00,1.7941
3728.00,1.7717
3727.00,1.7949
3726.00,1.7935
3725.00,1.8058
3724.00,1.8097
3723.00,1.8165
3722.00,1.8213
3721.00,1.8263
3720.00,1.8309
3719.00,1.8345
3718.00,1.8369
3717.00,1.8382
3716.00,1.8391
3715.00,1.8400
3714.00,1.8411
3713.00,1.8420
3712.00,1.8421
3711.00,1.8414
3710.00,1.8401
3709.00,1.8376
3708.00,1.8375
3707.00,1.8326
3706.00,1.8369
3705.00,1.8246
3704.00,1.8434
3703.00,1.7599
3702.00,1.7119
3701.00,1.7249
3700.00,1.7145
3699.00,1.7160
3698.00,1.7109
3697.00,1.7090
3696.00,1.7052
3695.00,1.7014
3694.00,1.6966
3693.00,1.6914
3692.00,1.6850
3691.00,1.6776
3690.00,1.6687
3689.00,1.6593
3688.00,1.6494
3687.00,1.6395
3686.00,1.6296
3685.00,1.6194
3684.00,1.6090
3683.00,1.5976
3682.00,1.5847
3681.00,1.5696
3680.00,1.5538
3679.00,1.5383
3678.00,1.5228
3677.00,1.5047
3676.00,1.4839
3675.00,1.4625
3674.00,1.4431
3673.00,1.4260
3672.00,1.4095
3671.00,1.3919
3670.00,1.3737
3669.00,1.3558
3668.00,1.3390
3667.00,1.3230
3666.00,1.3077
3665.00,1.2929
3664.00,1.2782
3663.00,1.2635
3662.00,1.2487
3661.00,1.2343
3660.00,1.2210
3659.00,1.2088
3658.00,1.1973
3657.00,1.1858
3656.00,1.1746
3655.00,1.1642
3654.00,1.1553
3653.00,1.1481
3652.00,1.1423
3651.00,1.1376
3650.00,1.1337
3649.00,1.1306
3648.00,1.1283
3647.00,1.1273
3646.00,1.1277
3645.00,1.1295
3644.00,1.1322
3643.00,1.1355
3642.00,1.1392
3641.00,1.1432
3640.00,1.1472
3639.00,1.1511
3638.00,1.1552
3637.00,1.1600
3636.00,1.1650
3635.00,1.1694
3634.00,1.1737
3633.00,1.1791
3632.00,1.1860
3631.00,1.1950
3630.00,1.2056
3629.00,1.2236
3628.00,1.2395
3627.00,1.2673
3626.00,1.2726
3625.00,1.3493
3624.00,1.4221
3623.00,1.4178
3622.00,1.4448
3621.00,1.4549
3620.00,1.4752
3619.00,1.4906
3618.00,1.5089
3617.00,1.5256
3616.00,1.5413
3615.00,1.5558
3614.00,1.5696
3613.00,1.5835
3612.00,1.5981
3611.00,1.6134
3610.00,1.6293
3609.00,1.6459
3608.00,1.6627
3607.00,1.6795
3606.00,1.6948
3605.00,1.7106
3604.00,1.7226
3603.00,1.7396
3602.00,1.7449
3601.00,1.7713
3600.00,1.7330
3599.00,1.7051
3598.00,1.7313
3597.00,1.7375
3596.00,1.7546
3595.00,1.7651
3594.00,1.7784
3593.00,1.7893
3592.00,1.8004
3591.00,1.8116
3590.00,1.8229
3589.00,1.8347
3588.00,1.8470
3587.00,1.8595
3586.00,1.8720
3585.00,1.8835
3584.00,1.8940
3583.00,1.9028
3582.00,1.9108
3581.00,1.9179
3580.00,1.9240
3579.00,1.9283
3578.00,1.9312
3577.00,1.9335
3576.00,1.9359
3575.00,1.9383
3574.00,1.9402
3573.00,1.9415
3572.00,1.9423
3571.00,1.9429
3570.00,1.9433
3569.00,1.9433
3568.00,1.9429
3567.00,1.9424
3566.00,1.9417
3565.00,1.9410
3564.00,1.9400
3563.00,1.9385
3562.00,1.9365
3561.00,1.9342
3560.00,1.9312
3559.00,1.9276
3558.00,1.9235
3557.00,1.9194
3556.00,1.9152
3555.00,1.9103
3554.00,1.9045
3553.00,1.8977
3552.00,1.8903
3551.00,1.8827
3550.00,1.8750
3549.00,1.8674
3548.00,1.8598
3547.00,1.8518
3546.00,1.8432
3545.00,1.8341
3544.00,1.8245
3543.00,1.8145
3542.00,1.8042
3541.00,1.7933
3540.00,1.7818
3539.00,1.7697
3538.00,1.7569
3537.00,1.7435
3536.00,1.7296
3535.00,1.7152
3534.00,1.7003
3533.00,1.6850
3532.00,1.6691
3531.00,1.6525
3530.00,1.6350
3529.00,1.6165
3528.00,1.5973
3527.00,1.5777
3526.00,1.5578
3525.00,1.5375
3524.00,1.5167
3523.00,1.4952
3522.00,1.4733
3521.00,1.4511
3520.00,1.4287
3519.00,1.4061
3518.00,1.3834
3517.00,1.3603
3516.00,1.3372
3515.00,1.3141
3514.00,1.2915
3513.00,1.2696
3512.00,1.2485
3511.00,1.2283
3510.00,1.2090
3509.00,1.1906
3508.00,1.1735
3507.00,1.1579
3506.00,1.1440
3505.00,1.1317
3504.00,1.1214
3503.00,1.1130
3502.00,1.1067
3501.00,1.1025
3500.00,1.1005
3499.00,1.1007
3498.00,1.1030
3497.00,1.1074
3496.00,1.1138
3495.00,1.1221
3494.00,1.1321
3493.00,1.1437
3492.00,1.1570
3491.00,1.1717
3490.00,1.1879
3489.00,1.2052
3488.00,1.2236
3487.00,1.2429
3486.00,1.2629
3485.00,1.2836
3484.00,1.3048
3483.00,1.3265
3482.00,1.3487
3481.00,1.3713
3480.00,1.3943
3479.00,1.4175
3478.00,1.4405
3477.00,1.4632
3476.00,1.4857
3475.00,1.5079
3474.00,1.5300
3473.00,1.5518
3472.00,1.5734
3471.00,1.5947
3470.00,1.6156
3469.00,1.6360
3468.00,1.6559
3467.00,1.6752
3466.00,1.6939
3465.00,1.7122
3464.00,1.7300
3463.00,1.7471
3462.00,1.7635
3461.00,1.7792
3460.00,1.7945
3459.00,1.8093
3458.00,1.8238
3457.00,1.8376
3456.00,1.8508
3455.00,1.8630
3454.00,1.8744
3453.00,1.8850
3452.00,1.8953
3451.00,1.9053
3450.00,1.9151
3449.00,1.9245
3448.00,1.9331
3447.00,1.9410
3446.00,1.9485
3445.00,1.9559
3444.00,1.9630
3443.00,1.9696
3442.00,1.9755
3441.00,1.9808
3440.00,1.9859
3439.00,1.9906
3438.00,1.9946
3437.00,1.9980
3436.00,2.0005
3435.00,2.0023
3434.00,2.0038
3433.00,2.0055
3432.00,2.0075
3431.00,2.0094
3430.00,2.0105
3429.00,2.0106
3428.00,2.0095
3427.00,2.0077
3426.00,2.0055
3425.00,2.0034
3424.00,2.0011
3423.00,1.9983
3422.00,1.9946
3421.00,1.9903
3420.00,1.9859
3419.00,1.9816
3418.00,1.9771
3417.00,1.9721
3416.00,1.9661
3415.00,1.9593
3414.00,1.9519
3413.00,1.9443
3412.00,1.9367
3411.00,1.9288
3410.00,1.9202
3409.00,1.9111
3408.00,1.9013
3407.00,1.8910
3406.00,1.8800
3405.00,1.8684
3404.00,1.8564
3403.00,1.8439
3402.00,1.8307
3401.00,1.8167
3400.00,1.8021
3399.00,1.7868
3398.00,1.7710
3397.00,1.7545
3396.00,1.7372
3395.00,1.7190
3394.00,1.7001
3393.00,1.6805
3392.00,1.6604
3391.00,1.6395
3390.00,1.6178
3389.00,1.5952
3388.00,1.5717
3387.00,1.5475
3386.00,1.5224
3385.00,1.4968
3384.00,1.4707
3383.00,1.4442
3382.00,1.4173
3381.00,1.3901
3380.00,1.3625
3379.00,1.3348
3378.00,1.3073
3377.00,1.2801
3376.00,1.2535
3375.00,1.2277
3374.00,1.2028
3373.00,1.1790
3372.00,1.1566
3371.00,1.1358
3370.00,1.1168
3369.00,1.0998
3368.00,1.0849
3367.00,1.0723
3366.00,1.0620
3365.00,1.0541
3364.00,1.0488
3363.00,1.0463
3362.00,1.0464
3361.00,1.0492
3360.00,1.0546
3359.00,1.0624
3358.00,1.0726
3357.00,1.0851
3356.00,1.0996
3355.00,1.1160
3354.00,1.1340
3353.00,1.1536
3352.00,1.1746
3351.00,1.1968
3350.00,1.2199
3349.00,1.2436
3348.00,1.2680
3347.00,1.2928
3346.00,1.3180
3345.00,1.3434
3344.00,1.3690
3343.00,1.3947
3342.00,1.4206
3341.00,1.4465
3340.00,1.4723
3339.00,1.4978
3338.00,1.5229
3337.00,1.5478
3336.00,1.5724
3335.00,1.5964
3334.00,1.6197
3333.00,1.6424
3332.00,1.6647
3331.00,1.6867
3330.00,1.7083
3329.00,1.7291
3328.00,1.7489
3327.00,1.7678
3326.00,1.7860
3325.00,1.8037
3324.00,1.8208
3323.00,1.8374
3322.00,1.8531
3321.00,1.8679
3320.00,1.8817
3319.00,1.8948
3318.00,1.9074
3317.00,1.9195
3316.00,1.9314
3315.00,1.9429
3314.00,1.9539
3313.00,1.9644
3312.00,1.9744
3311.00,1.9837
3310.00,1.9925
3309.00,2.0012
3308.00,2.0096
3307.00,2.0175
3306.00,2.0244
3305.00,2.0304
3304.00,2.0355
3303.00,2.0401
3302.00,2.0443
3301.00,2.0484
3300.00,2.0524
3299.00,2.0563
3298.00,2.0598
3297.00,2.0633
3296.00,2.0666
3295.00,2.0692
3294.00,2.0705
3293.00,2.0706
3292.00,2.0701
3291.00,2.0698
3290.00,2.0696
3289.00,2.0688
3288.00,2.0668
3287.00,2.0639
3286.00,2.0607
3285.00,2.0577
3284.00,2.0552
3283.00,2.0526
3282.00,2.0494
3281.00,2.0455
3280.00,2.0405
3279.00,2.0347
3278.00,2.0285
3277.00,2.0220
3276.00,2.0153
3275.00,2.0082
3274.00,2.0005
3273.00,1.9921
3272.00,1.9830
3271.00,1.9734
3270.00,1.9634
3269.00,1.9531
3268.00,1.9421
3267.00,1.9304
3266.00,1.9178
3265.00,1.9044
3264.00,1.8906
3263.00,1.8762
3262.00,1.8614
3261.00,1.8460
3260.00,1.8300
3259.00,1.8132
3258.00,1.7956
3257.00,1.7773
3256.00,1.7582
3255.00,1.7382
3254.00,1.7176
3253.00,1.6963
3252.00,1.6742
3251.00,1.6512
3250.00,1.6274
3249.00,1.6029
3248.00,1.5777
3247.00,1.5519
3246.00,1.5254
3245.00,1.4983
3244.00,1.4709
3243.00,1.4432
3242.00,1.4153
3241.00,1.3875
3240.00,1.3599
3239.00,1.3327
3238.00,1.3062
3237.00,1.2805
3236.00,1.2559
3235.00,1.2326
3234.00,1.2108
3233.00,1.1909
3232.00,1.1730
3231.00,1.1572
3230.00,1.1438
3229.00,1.1329
3228.00,1.1246
3227.00,1.1190
3226.00,1.1163
3225.00,1.1163
3224.00,1.1192
3223.00,1.1248
3222.00,1.1332
3221.00,1.1442
3220.00,1.1577
3219.00,1.1737
3218.00,1.1919
3217.00,1.2120
3216.00,1.2338
3215.00,1.2571
3214.00,1.2816
3213.00,1.3073
3212.00,1.3338
3211.00,1.3610
3210.00,1.3886
3209.00,1.4164
3208.00,1.4442
3207.00,1.4718
3206.00,1.4989
3205.00,1.5253
3204.00,1.5508
3203.00,1.5750
3202.00,1.5977
3201.00,1.6189
3200.00,1.6388
3199.00,1.6582
3198.00,1.6773
3197.00,1.6963
3196.00,1.7155
3195.00,1.7348
3194.00,1.7545
3193.00,1.7745
3192.00,1.7946
3191.00,1.8146
3190.00,1.8341
3189.00,1.8532
3188.00,1.8720
3187.00,1.8903
3186.00,1.9080
3185.00,1.9250
3184.00,1.9414
3183.00,1.9572
3182.00,1.9724
3181.00,1.9870
3180.00,2.0010
3179.00,2.0143
3178.00,2.0269
3177.00,2.0392
3176.00,2.0513
3175.00,2.0631
3174.00,2.0746
3173.00,2.0860
3172.00,2.0973
3171.00,2.1085
3170.00,2.1194
3169.00,2.1299
3168.00,2.1398
3167.00,2.1488
3166.00,2.1564
3165.00,2.1621
3164.00,2.1655
3163.00,2.1663
3162.00,2.1647
3161.00,2.1616
3160.00,2.1581
3159.00,2.1552
3158.00,2.1533
3157.00,2.1523
3156.00,2.1515
3155.00,2.1507
3154.00,2.1498
3153.00,2.1495
3152.00,2.1497
3151.00,2.1500
3150.00,2.1496
3149.00,2.1484
3148.00,2.1465
3147.00,2.1440
3146.00,2.1412
3145.00,2.1382
3144.00,2.1349
3143.00,2.1312
3142.00,2.1269
3141.00,2.1222
3140.00,2.1168
3139.00,2.1108
3138.00,2.1043
3137.00,2.0972
3136.00,2.0896
3135.00,2.0815
3134.00,2.0730
3133.00,2.0643
3132.00,2.0553
3131.00,2.0456
3130.00,2.0349
3129.00,2.0234
3128.00,2.0116
3127.00,1.9996
3126.00,1.9869
3125.00,1.9735
3124.00,1.9591
3123.00,1.9440
3122.00,1.9285
3121.00,1.9125
3120.00,1.8959
3119.00,1.8787
3118.00,1.8607
3117.00,1.8419
3116.00,1.8223
3115.00,1.8022
3114.00,1.7815
3113.00,1.7605
3112.00,1.7392
3111.00,1.7173
3110.00,1.6945
3109.00,1.6709
3108.00,1.6464
3107.00,1.6213
3106.00,1.5959
3105.00,1.5704
3104.00,1.5450
3103.00,1.5197
3102.00,1.4947
3101.00,1.4700
3100.00,1.4459
3099.00,1.4225
3098.00,1.4002
3097.00,1.3791
3096.00,1.3593
3095.00,1.3411
3094.00,1.3247
3093.00,1.3104
3092.00,1.2981
3091.00,1.2881
3090.00,1.2804
3089.00,1.2751
3088.00,1.2721
3087.00,1.2716
3086.00,1.2735
3085.00,1.2779
3084.00,1.2848
3083.00,1.2941
3082.00,1.3055
3081.00,1.3189
3080.00,1.3340
3079.00,1.3507
3078.00,1.3690
3077.00,1.3885
3076.00,1.4093
3075.00,1.4313
3074.00,1.4541
3073.00,1.4778
3072.00,1.5020
3071.00,1.5265
3070.00,1.5512
3069.00,1.5759
3068.00,1.6008
3067.00,1.6257
3066.00,1.6507
3065.00,1.6759
3064.00,1.7009
3063.00,1.7255
3062.00,1.7496
3061.00,1.7732
3060.00,1.7965
3059.00,1.8196
3058.00,1.8421
3057.00,1.8641
3056.00,1.8855
3055.00,1.9060
3054.00,1.9258
3053.00,1.9448
3052.00,1.9632
3051.00,1.9808
3050.00,1.9979
3049.00,2.0145
3048.00,2.0310
3047.00,2.0473
3046.00,2.0633
3045.00,2.0784
3044.00,2.0923
3043.00,2.1048
3042.00,2.1163
3041.00,2.1275
3040.00,2.1389
3039.00,2.1504
3038.00,2.1612
3037.00,2.1711
3036.00,2.1802
3035.00,2.1888
3034.00,2.1973
3033.00,2.2053
3032.00,2.2131
3031.00,2.2209
3030.00,2.2289
3029.00,2.2363
3028.00,2.2425
3027.00,2.2471
3026.00,2.2510
3025.00,2.2551
3024.00,2.2594
3023.00,2.2634
3022.00,2.2666
3021.00,2.2692
3020.00,2.2715
3019.00,2.2737
3018.00,2.2758
3017.00,2.2777
3016.00,2.2792
3015.00,2.2806
3014.00,2.2822
3013.00,2.2842
3012.00,2.2862
3011.00,2.2876
3010.00,2.2883
3009.00,2.2890
3008.00,2.2903
3007.00,2.2919
3006.00,2.2934
3005.00,2.2944
3004.00,2.2949
3003.00,2.2948
3002.00,2.2938
3001.00,2.2914
3000.00,2.2874
2999.00,2.2819
2998.00,2.2758
2997.00,2.2695
2996.00,2.2627
2995.00,2.2551
2994.00,2.2463
2993.00,2.2366
2992.00,2.2261
2991.00,2.2147
2990.00,2.2022
2989.00,2.1885
2988.00,2.1738
2987.00,2.1585
2986.00,2.1429
2985.00,2.1275
2984.00,2.1122
2983.00,2.0967
2982.00,2.0809
2981.00,2.0648
2980.00,2.0487
2979.00,2.0331
2978.00,2.0185
2977.00,2.0049
2976.00,1.9924
2975.00,1.9813
2974.00,1.9721
2973.00,1.9653
2972.00,1.9608
2971.00,1.9584
2970.00,1.9580
2969.00,1.9600
2968.00,1.9640
2967.00,1.9697
2966.00,1.9763
2965.00,1.9834
2964.00,1.9910
2963.00,1.9993
2962.00,2.0082
2961.00,2.0178
2960.00,2.0282
2959.00,2.0396
2958.00,2.0526
2957.00,2.0674
2956.00,2.0842
2955.00,2.1029
2954.00,2.1233
2953.00,2.1455
2952.00,2.1690
2951.00,2.1934
2950.00,2.2187
2949.00,2.2451
2948.00,2.2732
2947.00,2.3019
2946.00,2.3288
2945.00,2.3502
2944.00,2.3622
2943.00,2.3629
2942.00,2.3527
2941.00,2.3339
2940.00,2.3090
2939.00,2.2800
2938.00,2.2487
2937.00,2.2164
2936.00,2.1836
2935.00,2.1509
2934.00,2.1184
2933.00,2.0864
2932.00,2.0551
2931.00,2.0245
2930.00,1.9949
2929.00,1.9667
2928.00,1.9398
2927.00,1.9146
2926.00,1.8910
2925.00,1.8693
2924.00,1.8494
2923.00,1.8314
2922.00,1.8154
2921.00,1.8020
2920.00,1.7916
2919.00,1.7843
2918.00,1.7803
2917.00,1.7794
2916.00,1.7816
2915.00,1.7867
2914.00,1.7944
2913.00,1.8042
2912.00,1.8158
2911.00,1.8289
2910.00,1.8434
2909.00,1.8590
2908.00,1.8753
2907.00,1.8922
2906.00,1.9093
2905.00,1.9268
2904.00,1.9443
2903.00,1.9617
2902.00,1.9791
2901.00,1.9965
2900.00,2.0142
2899.00,2.0322
2898.00,2.0501
2897.00,2.0678
2896.00,2.0848
2895.00,2.1011
2894.00,2.1171
2893.00,2.1332
2892.00,2.1491
2891.00,2.1643
2890.00,2.1787
2889.00,2.1928
2888.00,2.2070
2887.00,2.2212
2886.00,2.2347
2885.00,2.2473
2884.00,2.2590
2883.00,2.2700
2882.00,2.2807
2881.00,2.2914
2880.00,2.3023
2879.00,2.3128
2878.00,2.3227
2877.00,2.3325
2876.00,2.3422
2875.00,2.3513
2874.00,2.3589
2873.00,2.3652
2872.00,2.3706
2871.00,2.3757
2870.00,2.3802
2869.00,2.3837
2868.00,2.3865
2867.00,2.3887
2866.00,2.3904
2865.00,2.3913
2864.00,2.3909
2863.00,2.3890
2862.00,2.3858
2861.00,2.3818
2860.00,2.3773
2859.00,2.3730
2858.00,2.3697
2857.00,2.3677
2856.00,2.3664
2855.00,2.3645
2854.00,2.3612
2853.00,2.3571
2852.00,2.3524
2851.00,2.3472
2850.00,2.3412
2849.00,2.3349
2848.00,2.3289
2847.00,2.3231
2846.00,2.3168
2845.00,2.3096
2844.00,2.3017
2843.00,2.2936
2842.00,2.2852
2841.00,2.2765
2840.00,2.2674
2839.00,2.2576
2838.00,2.2471
2837.00,2.2359
2836.00,2.2239
2835.00,2.2109
2834.00,2.1970
2833.00,2.1823
2832.00,2.1670
2831.00,2.1517
2830.00,2.1363
2829.00,2.1205
2828.00,2.1036
2827.00,2.0856
2826.00,2.0664
2825.00,2.0460
2824.00,2.0244
2823.00,2.0016
2822.00,1.9778
2821.00,1.9531
2820.00,1.9273
2819.00,1.9000
2818.00,1.8710
2817.00,1.8406
2816.00,1.8087
2815.00,1.7755
2814.00,1.7411
2813.00,1.7056
2812.00,1.6690
2811.00,1.6312
2810.00,1.5923
2809.00,1.5526
2808.00,1.5126
2807.00,1.4728
2806.00,1.4337
2805.00,1.3956
2804.00,1.3590
2803.00,1.3242
2802.00,1.2917
2801.00,1.2618
2800.00,1.2350
2799.00,1.2114
2798.00,1.1913
2797.00,1.1751
2796.00,1.1630
2795.00,1.1553
2794.00,1.1522
2793.00,1.1539
2792.00,1.1603
2791.00,1.1712
2790.00,1.1864
2789.00,1.2055
2788.00,1.2281
2787.00,1.2538
2786.00,1.2822
2785.00,1.3127
2784.00,1.3451
2783.00,1.3787
2782.00,1.4131
2781.00,1.4482
2780.00,1.4837
2779.00,1.5194
2778.00,1.5552
2777.00,1.5911
2776.00,1.6268
2775.00,1.6622
2774.00,1.6970
2773.00,1.7313
2772.00,1.7653
2771.00,1.7989
2770.00,1.8316
2769.00,1.8631
2768.00,1.8931
2767.00,1.9219
2766.00,1.9499
2765.00,1.9770
2764.00,2.0030
2763.00,2.0274
2762.00,2.0504
2761.00,2.0727
2760.00,2.0946
2759.00,2.1159
2758.00,2.1359
2757.00,2.1545
2756.00,2.1717
2755.00,2.1883
2754.00,2.2048
2753.00,2.2212
2752.00,2.2370
2751.00,2.2515
2750.00,2.2648
2749.00,2.2772
2748.00,2.2890
2747.00,2.2999
2746.00,2.3099
2745.00,2.3188
2744.00,2.3273
2743.00,2.3359
2742.00,2.3450
2741.00,2.3541
2740.00,2.3620
2739.00,2.3678
2738.00,2.3724
2737.00,2.3772
2736.00,2.3833
2735.00,2.3900
2734.00,2.3961
2733.00,2.4007
2732.00,2.4038
2731.00,2.4057
2730.00,2.4067
2729.00,2.4074
2728.00,2.4080
2727.00,2.4089
2726.00,2.4099
2725.00,2.4109
2724.00,2.4114
2723.00,2.4114
2722.00,2.4112
2721.00,2.4110
2720.00,2.4102
2719.00,2.4076
2718.00,2.4031
2717.00,2.3976
2716.00,2.3920
2715.00,2.3868
2714.00,2.3817
2713.00,2.3765
2712.00,2.3709
2711.00,2.3649
2710.00,2.3584
2709.00,2.3511
2708.00,2.3426
2707.00,2.3328
2706.00,2.3221
2705.00,2.3112
2704.00,2.3004
2703.00,2.2894
2702.00,2.2779
2701.00,2.2657
2700.00,2.2529
2699.00,2.2394
2698.00,2.2250
2697.00,2.2097
2696.00,2.1935
2695.00,2.1764
2694.00,2.1580
2693.00,2.1382
2692.00,2.1171
2691.00,2.0953
2690.00,2.0730
2689.00,2.0502
2688.00,2.0265
2687.00,2.0013
2686.00,1.9746
2685.00,1.9464
2684.00,1.9171
2683.00,1.8868
2682.00,1.8555
2681.00,1.8230
2680.00,1.7891
2679.00,1.7538
2678.00,1.7171
2677.00,1.6789
2676.00,1.6397
2675.00,1.5996
2674.00,1.5589
2673.00,1.5175
2672.00,1.4756
2671.00,1.4334
2670.00,1.3914
2669.00,1.3502
2668.00,1.3103
2667.00,1.2725
2666.00,1.2374
2665.00,1.2059
2664.00,1.1786
2663.00,1.1561
2662.00,1.1389
2661.00,1.1272
2660.00,1.1215
2659.00,1.1217
2658.00,1.1277
2657.00,1.1393
2656.00,1.1562
2655.00,1.1777
2654.00,1.2033
2653.00,1.2323
2652.00,1.2643
2651.00,1.2987
2650.00,1.3350
2649.00,1.3729
2648.00,1.4119
2647.00,1.4518
2646.00,1.4921
2645.00,1.5325
2644.00,1.5731
2643.00,1.6139
2642.00,1.6549
2641.00,1.6959
2640.00,1.7364
2639.00,1.7763
2638.00,1.8156
2637.00,1.8541
2636.00,1.8918
2635.00,1.9284
2634.00,1.9637
2633.00,1.9976
2632.00,2.0300
2631.00,2.0602
2630.00,2.0876
2629.00,2.1119
2628.00,2.1330
2627.00,2.1512
2626.00,2.1672
2625.00,2.1822
2624.00,2.1970
2623.00,2.2121
2622.00,2.2275
2621.00,2.2433
2620.00,2.2592
2619.00,2.2749
2618.00,2.2905
2617.00,2.3058
2616.00,2.3206
2615.00,2.3347
2614.00,2.3480
2613.00,2.3607
2612.00,2.3726
2611.00,2.3838
2610.00,2.3944
2609.00,2.4046
2608.00,2.4144
2607.00,2.4237
2606.00,2.4324
2605.00,2.4410
2604.00,2.4497
2603.00,2.4579
2602.00,2.4653
2601.00,2.4717
2600.00,2.4773
2599.00,2.4823
2598.00,2.4868
2597.00,2.4911
2596.00,2.4954
2595.00,2.5001
2594.00,2.5049
2593.00,2.5094
2592.00,2.5123
2591.00,2.5129
2590.00,2.5115
2589.00,2.5095
2588.00,2.5078
2587.00,2.5069
2586.00,2.5071
2585.00,2.5076
2584.00,2.5075
2583.00,2.5060
2582.00,2.5034
2581.00,2.5002
2580.00,2.4966
2579.00,2.4921
2578.00,2.4868
2577.00,2.4816
2576.00,2.4765
2575.00,2.4709
2574.00,2.4641
2573.00,2.4564
2572.00,2.4488
2571.00,2.4413
2570.00,2.4333
2569.00,2.4241
2568.00,2.4141
2567.00,2.4037
2566.00,2.3931
2565.00,2.3820
2564.00,2.3696
2563.00,2.3556
2562.00,2.3407
2561.00,2.3256
2560.00,2.3106
2559.00,2.2950
2558.00,2.2785
2557.00,2.2610
2556.00,2.2424
2555.00,2.2227
2554.00,2.2022
2553.00,2.1809
2552.00,2.1588
2551.00,2.1353
2550.00,2.1102
2549.00,2.0836
2548.00,2.0555
2547.00,2.0262
2546.00,1.9953
2545.00,1.9629
2544.00,1.9288
2543.00,1.8931
2542.00,1.8556
2541.00,1.8162
2540.00,1.7750
2539.00,1.7321
2538.00,1.6877
2537.00,1.6418
2536.00,1.5950
2535.00,1.5477
2534.00,1.5004
2533.00,1.4538
2532.00,1.4085
2531.00,1.3652
2530.00,1.3247
2529.00,1.2876
2528.00,1.2545
2527.00,1.2259
2526.00,1.2024
2525.00,1.1843
2524.00,1.1720
2523.00,1.1657
2522.00,1.1657
2521.00,1.1718
2520.00,1.1839
2519.00,1.2018
2518.00,1.2248
2517.00,1.2522
2516.00,1.2835
2515.00,1.3180
2514.00,1.3549
2513.00,1.3939
2512.00,1.4344
2511.00,1.4759
2510.00,1.5181
2509.00,1.5606
2508.00,1.6031
2507.00,1.6455
2506.00,1.6875
2505.00,1.7292
2504.00,1.7705
2503.00,1.8112
2502.00,1.8512
2501.00,1.8903
2500.00,1.9283
2499.00,1.9647
2498.00,1.9996
2497.00,2.0332
2496.00,2.0657
2495.00,2.0969
2494.00,2.1263
2493.00,2.1541
2492.00,2.1806
2491.00,2.2063
2490.00,2.2312
2489.00,2.2551
2488.00,2.2774
2487.00,2.2980
2486.00,2.3168
2485.00,2.3343
2484.00,2.3513
2483.00,2.3681
2482.00,2.3848
2481.00,2.4007
2480.00,2.4152
2479.00,2.4285
2478.00,2.4418
2477.00,2.4557
2476.00,2.4696
2475.00,2.4822
2474.00,2.4936
2473.00,2.5043
2472.00,2.5148
2471.00,2.5245
2470.00,2.5329
2469.00,2.5406
2468.00,2.5482
2467.00,2.5558
2466.00,2.5630
2465.00,2.5695
2464.00,2.5753
2463.00,2.5803
2462.00,2.5848
2461.00,2.5890
2460.00,2.5930
2459.00,2.5965
2458.00,2.5997
2457.00,2.6026
2456.00,2.6051
2455.00,2.6071
2454.00,2.6088
2453.00,2.6106
2452.00,2.6128
2451.00,2.6149
2450.00,2.6166
2449.00,2.6175
2448.00,2.6168
2447.00,2.6139
2446.00,2.6099
2445.00,2.6060
2444.00,2.6029
2443.00,2.5995
2442.00,2.5948
2441.00,2.5888
2440.00,2.5820
2439.00,2.5754
2438.00,2.5698
2437.00,2.5654
2436.00,2.5612
2435.00,2.5550
2434.00,2.5459
2433.00,2.5346
2432.00,2.5229
2431.00,2.5119
2430.00,2.5019
2429.00,2.4922
2428.00,2.4819
2427.00,2.4705
2426.00,2.4579
2425.00,2.4444
2424.00,2.4304
2423.00,2.4156
2422.00,2.4000
2421.00,2.3838
2420.00,2.3673
2419.00,2.3503
2418.00,2.3324
2417.00,2.3140
2416.00,2.2954
2415.00,2.2765
2414.00,2.2571
2413.00,2.2366
2412.00,2.2151
2411.00,2.1928
2410.00,2.1697
2409.00,2.1454
2408.00,2.1194
2407.00,2.0914
2406.00,2.0617
2405.00,2.0305
2404.00,1.9976
2403.00,1.9626
2402.00,1.9250
2401.00,1.8850
2400.00,1.8427
2399.00,1.7986
2398.00,1.7529
2397.00,1.7059
2396.00,1.6581
2395.00,1.6099
2394.00,1.5624
2393.00,1.5154
2392.00,1.4705
2391.00,1.4285
2390.00,1.3902
2389.00,1.3565
2388.00,1.3281
2387.00,1.3056
2386.00,1.2894
2385.00,1.2799
2384.00,1.2774
2383.00,1.2818
2382.00,1.2929
2381.00,1.3103
2380.00,1.3334
2379.00,1.3615
2378.00,1.3938
2377.00,1.4296
2376.00,1.4683
2375.00,1.5090
2374.00,1.5511
2373.00,1.5944
2372.00,1.6386
2371.00,1.6834
2370.00,1.7284
2369.00,1.7733
2368.00,1.8176
2367.00,1.8608
2366.00,1.9028
2365.00,1.9435
2364.00,1.9838
2363.00,2.0238
2362.00,2.0632
2361.00,2.1015
2360.00,2.1380
2359.00,2.1726
2358.00,2.2054
2357.00,2.2365
2356.00,2.2656
2355.00,2.2925
2354.00,2.3174
2353.00,2.3412
2352.00,2.3652
2351.00,2.3894
2350.00,2.4126
2349.00,2.4335
2348.00,2.4519
2347.00,2.4688
2346.00,2.4849
2345.00,2.5008
2344.00,2.5167
2343.00,2.5325
2342.00,2.5478
2341.00,2.5625
2340.00,2.5770
2339.00,2.5917
2338.00,2.6055
2337.00,2.6163
2336.00,2.6227
2335.00,2.6266
2334.00,2.6313
2333.00,2.6385
2332.00,2.6470
2331.00,2.6552
2330.00,2.6632
2329.00,2.6721
2328.00,2.6820
2327.00,2.6912
2326.00,2.6977
2325.00,2.7008
2324.00,2.7017
2323.00,2.7024
2322.00,2.7046
2321.00,2.7078
2320.00,2.7106
2319.00,2.7119
2318.00,2.7120
2317.00,2.7118
2316.00,2.7117
2315.00,2.7112
2314.00,2.7092
2313.00,2.7049
2312.00,2.6988
2311.00,2.6921
2310.00,2.6866
2309.00,2.6825
2308.00,2.6782
2307.00,2.6720
2306.00,2.6645
2305.00,2.6529
2304.00,2.6497
2303.00,2.6287
2302.00,2.6396
2301.00,2.5957
2300.00,2.6672
2299.00,2.4238
2298.00,2.3413
2297.00,2.4139
2296.00,2.4291
2295.00,2.4833
2294.00,2.5147
2293.00,2.5564
2292.00,2.5825
2291.00,2.6031
2290.00,2.6121
2289.00,2.6137
2288.00,2.6091
2287.00,2.6027
2286.00,2.5942
2285.00,2.5807
2284.00,2.5568
2283.00,2.5221
2282.00,2.4815
2281.00,2.4406
2280.00,2.4009
2279.00,2.3602
2278.00,2.3179
2277.00,2.2729
2276.00,2.2259
2275.00,2.1763
2274.00,2.1247
2273.00,2.0719
2272.00,2.0183
2271.00,1.9646
2270.00,1.9122
2269.00,1.8648
2268.00,1.8274
2267.00,1.8047
2266.00,1.8015
2265.00,1.8210
2264.00,1.8650
2263.00,1.9343
2262.00,2.0273
2261.00,2.1428
2260.00,2.2784
2259.00,2.4320
2258.00,2.6031
2257.00,2.7921
2256.00,3.0028
2255.00,3.2365
2254.00,3.4842
2253.00,3.6883
2252.00,3.7289
2251.00,3.5935
2250.00,3.4084
2249.00,3.2419
2248.00,3.1027
2247.00,2.9836
2246.00,2.8783
2245.00,2.7838
2244.00,2.6962
2243.00,2.6115
2242.00,2.5271
2241.00,2.4417
2240.00,2.3549
2239.00,2.2659
2238.00,2.1743
2237.00,2.0804
2236.00,1.9855
2235.00,1.8917
2234.00,1.8016
2233.00,1.7184
2232.00,1.6451
2231.00,1.5845
2230.00,1.5380
2229.00,1.5063
2228.00,1.4887
2227.00,1.4840
2226.00,1.4907
2225.00,1.5078
2224.00,1.5341
2223.00,1.5685
2222.00,1.6096
2221.00,1.6557
2220.00,1.7053
2219.00,1.7572
2218.00,1.8101
2217.00,1.8635
2216.00,1.9168
2215.00,1.9694
2214.00,2.0207
2213.00,2.0702
2212.00,2.1179
2211.00,2.1639
2210.00,2.2083
2209.00,2.2508
2208.00,2.2910
2207.00,2.3283
2206.00,2.3617
2205.00,2.3907
2204.00,2.4156
2203.00,2.4378
2202.00,2.4590
2201.00,2.4803
2200.00,2.5018
2199.00,2.5222
2198.00,2.5407
2197.00,2.5577
2196.00,2.5742
2195.00,2.5915
2194.00,2.6100
2193.00,2.6294
2192.00,2.6484
2191.00,2.6655
2190.00,2.6798
2189.00,2.6920
2188.00,2.7033
2187.00,2.7140
2186.00,2.7239
2185.00,2.7331
2184.00,2.7421
2183.00,2.7508
2182.00,2.7593
2181.00,2.7684
2180.00,2.7784
2179.00,2.7880
2178.00,2.7947
2177.00,2.7980
2176.00,2.8003
2175.00,2.8041
2174.00,2.8096
2173.00,2.8145
2172.00,2.8167
2171.00,2.8160
2170.00,2.8138
2169.00,2.8119
2168.00,2.8112
2167.00,2.8113
2166.00,2.8117
2165.00,2.8121
2164.00,2.8133
2163.00,2.8145
2162.00,2.8141
2161.00,2.8107
2160.00,2.8057
2159.00,2.8010
2158.00,2.7975
2157.00,2.7943
2156.00,2.7901
2155.00,2.7851
2154.00,2.7802
2153.00,2.7759
2152.00,2.7715
2151.00,2.7652
2150.00,2.7559
2149.00,2.7438
2148.00,2.7310
2147.00,2.7191
2146.00,2.7090
2145.00,2.7002
2144.00,2.6911
2143.00,2.6800
2142.00,2.6659
2141.00,2.6499
2140.00,2.6338
2139.00,2.6186
2138.00,2.6035
2137.00,2.5867
2136.00,2.5674
2135.00,2.5463
2134.00,2.5245
2133.00,2.5030
2132.00,2.4820
2131.00,2.4611
2130.00,2.4390
2129.00,2.4145
2128.00,2.3869
2127.00,2.3569
2126.00,2.3255
2125.00,2.2933
2124.00,2.2597
2123.00,2.2239
2122.00,2.1853
2121.00,2.1441
2120.00,2.1008
2119.00,2.0556
2118.00,2.0081
2117.00,1.9583
2116.00,1.9057
2115.00,1.8508
2114.00,1.7941
2113.00,1.7365
2112.00,1.6789
2111.00,1.6224
2110.00,1.5682
2109.00,1.5174
2108.00,1.4710
2107.00,1.4299
2106.00,1.3953
2105.00,1.3682
2104.00,1.3492
2103.00,1.3389
2102.00,1.3374
2101.00,1.3445
2100.00,1.3600
2099.00,1.3832
2098.00,1.4133
2097.00,1.4493
2096.00,1.4902
2095.00,1.5348
2094.00,1.5820
2093.00,1.6310
2092.00,1.6813
2091.00,1.7324
2090.00,1.7838
2089.00,1.8350
2088.00,1.8859
2087.00,1.9362
2086.00,1.9860
2085.00,2.0349
2084.00,2.0826
2083.00,2.1286
2082.00,2.1726
2081.00,2.2142
2080.00,2.2531
2079.00,2.2897
2078.00,2.3251
2077.00,2.3602
2076.00,2.3946
2075.00,2.4270
2074.00,2.4563
2073.00,2.4824
2072.00,2.5067
2071.00,2.5301
2070.00,2.5531
2069.00,2.5754
2068.00,2.5966
2067.00,2.6167
2066.00,2.6361
2065.00,2.6549
2064.00,2.6726
2063.00,2.6890
2062.00,2.7040
2061.00,2.7177
2060.00,2.7305
2059.00,2.7430
2058.00,2.7561
2057.00,2.7697
2056.00,2.7825
2055.00,2.7933
2054.00,2.8027
2053.00,2.8122
2052.00,2.8231
2051.00,2.8351
2050.00,2.8474
2049.00,2.8590
2048.00,2.8683
2047.00,2.8738
2046.00,2.8758
2045.00,2.8775
2044.00,2.8817
2043.00,2.8887
2042.00,2.8963
2041.00,2.9025
2040.00,2.9071
2039.00,2.9105
2038.00,2.9125
2037.00,2.9129
2036.00,2.9133
2035.00,2.9162
2034.00,2.9224
2033.00,2.9300
2032.00,2.9356
2031.00,2.9373
2030.00,2.9358
2029.00,2.9330
2028.00,2.9304
2027.00,2.9283
2026.00,2.9262
2025.00,2.9228
2024.00,2.9175
2023.00,2.9107
2022.00,2.9041
2021.00,2.8988
2020.00,2.8949
2019.00,2.8919
2018.00,2.8888
2017.00,2.8845
2016.00,2.8778
2015.00,2.8688
2014.00,2.8594
2013.00,2.8514
2012.00,2.8446
2011.00,2.8373
2010.00,2.8284
2009.00,2.8177
2008.00,2.8058
2007.00,2.7925
2006.00,2.7774
2005.00,2.7609
2004.00,2.7440
2003.00,2.7283
2002.00,2.7137
2001.00,2.6987
2000.00,2.6819
1999.00,2.6630
1998.00,2.6437
1997.00,2.6250
1996.00,2.6060
1995.00,2.5851
1994.00,2.5615
1993.00,2.5356
1992.00,2.5080
1991.00,2.4786
1990.00,2.4479
1989.00,2.4167
1988.00,2.3849
1987.00,2.3515
1986.00,2.3154
1985.00,2.2766
1984.00,2.2355
1983.00,2.1925
1982.00,2.1474
1981.00,2.0999
1980.00,2.0500
1979.00,1.9973
1978.00,1.9422
1977.00,1.8852
1976.00,1.8272
1975.00,1.7689
1974.00,1.7113
1973.00,1.6556
1972.00,1.6031
1971.00,1.5550
1970.00,1.5125
1969.00,1.4765
1968.00,1.4485
1967.00,1.4294
1966.00,1.4200
1965.00,1.4197
1964.00,1.4284
1963.00,1.4457
1962.00,1.4713
1961.00,1.5044
1960.00,1.5436
1959.00,1.5876
1958.00,1.6349
1957.00,1.6846
1956.00,1.7363
1955.00,1.7895
1954.00,1.8436
1953.00,1.8978
1952.00,1.9512
1951.00,2.0034
1950.00,2.0544
1949.00,2.1042
1948.00,2.1526
1947.00,2.1996
1946.00,2.2454
1945.00,2.2901
1944.00,2.3332
1943.00,2.3743
1942.00,2.4127
1941.00,2.4486
1940.00,2.4827
1939.00,2.5156
1938.00,2.5460
1937.00,2.5728
1936.00,2.5969
1935.00,2.6201
1934.00,2.6433
1933.00,2.6658
1932.00,2.6866
1931.00,2.7054
1930.00,2.7232
1929.00,2.7409
1928.00,2.7586
1927.00,2.7758
1926.00,2.7927
1925.00,2.8104
1924.00,2.8302
1923.00,2.8510
1922.00,2.8691
1921.00,2.8824
1920.00,2.8937
1919.00,2.9061
1918.00,2.9187
1917.00,2.9286
1916.00,2.9343
1915.00,2.9385
1914.00,2.9444
1913.00,2.9531
1912.00,2.9628
1911.00,2.9716
1910.00,2.9795
1909.00,2.9879
1908.00,2.9970
1907.00,3.0038
1906.00,3.0054
1905.00,3.0026
1904.00,3.0005
1903.00,3.0036
1902.00,3.0114
1901.00,3.0198
1900.00,3.0252
1899.00,3.0282
1898.00,3.0316
1897.00,3.0373
1896.00,3.0430
1895.00,3.0446
1894.00,3.0415
1893.00,3.0383
1892.00,3.0393
1891.00,3.0430
1890.00,3.0441
1889.00,3.0399
1888.00,3.0319
1887.00,3.0230
1886.00,3.0144
1885.00,3.0067
1884.00,3.0005
1883.00,2.9955
1882.00,2.9896
1881.00,2.9818
1880.00,2.9735
1879.00,2.9663
1878.00,2.9606
1877.00,2.9564
1876.00,2.9536
1875.00,2.9510
1874.00,2.9466
1873.00,2.9400
1872.00,2.9332
1871.00,2.9263
1870.00,2.9153
1869.00,2.8972
1868.00,2.8741
1867.00,2.8501
1866.00,2.8286
1865.00,2.8110
1864.00,2.7961
1863.00,2.7800
1862.00,2.7599
1861.00,2.7364
1860.00,2.7122
1859.00,2.6884
1858.00,2.6643
1857.00,2.6386
1856.00,2.6116
1855.00,2.5833
1854.00,2.5534
1853.00,2.5217
1852.00,2.4883
1851.00,2.4530
1850.00,2.4149
1849.00,2.3744
1848.00,2.3329
1847.00,2.2919
1846.00,2.2508
1845.00,2.2051
1844.00,2.1503
1843.00,2.0889
1842.00,2.0277
1841.00,1.9696
1840.00,1.9138
1839.00,1.8591
1838.00,1.8059
1837.00,1.7558
1836.00,1.7103
1835.00,1.6705
1834.00,1.6391
1833.00,1.6193
1832.00,1.6114
1831.00,1.6110
1830.00,1.6150
1829.00,1.6240
1828.00,1.6407
1827.00,1.6670
1826.00,1.7005
1825.00,1.7362
1824.00,1.7714
1823.00,1.8081
1822.00,1.8496
1821.00,1.8969
1820.00,1.9482
1819.00,2.0014
1818.00,2.0556
1817.00,2.1103
1816.00,2.1642
1815.00,2.2162
1814.00,2.2667
1813.00,2.3165
1812.00,2.3652
1811.00,2.4113
1810.00,2.4535
1809.00,2.4918
1808.00,2.5272
1807.00,2.5608
1806.00,2.5931
1805.00,2.6241
1804.00,2.6542
1803.00,2.6844
1802.00,2.7158
1801.00,2.7470
1800.00,2.7738
1799.00,2.7938
1798.00,2.8100
1797.00,2.8274
1796.00,2.8491
1795.00,2.8759
1794.00,2.9067
1793.00,2.9356
1792.00,2.9558
1791.00,2.9666
1790.00,2.9733
1789.00,2.9818
1788.00,2.9947
1787.00,3.0108
1786.00,3.0257
1785.00,3.0353
1784.00,3.0402
1783.00,3.0452
1782.00,3.0548
1781.00,3.0690
1780.00,3.0842
1779.00,3.0985
1778.00,3.1126
1777.00,3.1234
1776.00,3.1265
1775.00,3.1258
1774.00,3.1327
1773.00,3.1506
1772.00,3.1706
1771.00,3.1829
1770.00,3.1858
1769.00,3.1824
1768.00,3.1751
1767.00,3.1668
1766.00,3.1610
1765.00,3.1586
1764.00,3.1574
1763.00,3.1559
1762.00,3.1549
1761.00,3.1559
1760.00,3.1580
1759.00,3.1587
1758.00,3.1564
1757.00,3.1508
1756.00,3.1418
1755.00,3.1306
1754.00,3.1199
1753.00,3.1120
1752.00,3.1067
1751.00,3.1026
1750.00,3.1000
1749.00,3.0976
1748.00,3.0917
1747.00,3.0820
1746.00,3.0719
1745.00,3.0627
1744.00,3.0537
1743.00,3.0467
1742.00,3.0448
1741.00,3.0431
1740.00,3.0306
1739.00,3.0034
1738.00,2.9684
1737.00,2.9333
1736.00,2.9038
1735.00,2.8765
1734.00,2.8435
1733.00,2.8141
1732.00,2.7993
1731.00,2.7903
1730.00,2.7758
1729.00,2.7558
1728.00,2.7360
1727.00,2.7212
1726.00,2.7149
1725.00,2.7180
1724.00,2.7314
1723.00,2.7581
1722.00,2.7987
1721.00,2.8475
1720.00,2.8975
1719.00,2.9522
1718.00,3.0328
1717.00,3.1592
1716.00,3.3128
1715.00,3.4478
1714.00,3.5440
1713.00,3.6113
1712.00,3.6622
1711.00,3.7050
1710.00,3.7471
1709.00,3.7845
1708.00,3.8091
1707.00,3.8263
1706.00,3.8388
1705.00,3.8233
1704.00,3.7578
1703.00,3.6693
1702.00,3.5940
1701.00,3.5111
1700.00,3.3846
1699.00,3.2470
1698.00,3.1370
1697.00,3.0585
1696.00,3.0032
1695.00,2.9609
1694.00,2.9279
1693.00,2.8952
1692.00,2.8486
1691.00,2.7897
1690.00,2.7231
1689.00,2.6450
1688.00,2.5498
1687.00,2.4499
1686.00,2.3708
1685.00,2.3166
1684.00,2.2734
1683.00,2.2291
1682.00,2.1801
1681.00,2.1322
1680.00,2.0907
1679.00,2.0617
1678.00,2.0471
1677.00,2.0462
1676.00,2.0503
1675.00,2.0490
1674.00,2.0477
1673.00,2.0596
1672.00,2.0879
1671.00,2.1284
1670.00,2.1744
1669.00,2.2183
1668.00,2.2572
1667.00,2.2954
1666.00,2.3384
1665.00,2.3888
1664.00,2.4437
1663.00,2.4962
1662.00,2.5431
1661.00,2.5859
1660.00,2.6271
1659.00,2.6687
1658.00,2.7080
1657.00,2.7341
1656.00,2.7414
1655.00,2.7441
1654.00,2.7568
1653.00,2.7781
1652.00,2.8144
1651.00,2.8830
1650.00,2.9547
1649.00,2.9829
1648.00,3.0035
1647.00,3.0235
1646.00,3.0434
1645.00,3.0616
1644.00,3.0789
1643.00,3.0947
1642.00,3.1092
1641.00,3.1236
1640.00,3.1382
1639.00,3.1522
1638.00,3.1643
1637.00,3.1777
1636.00,3.2007
1635.00,3.2147
1634.00,3.2125
1633.00,3.2080
1632.00,3.2110
1631.00,3.2243
1630.00,3.2465
1629.00,3.2707
1628.00,3.2887
1627.00,3.2973
1626.00,3.3012
1625.00,3.3094
1624.00,3.3213
1623.00,3.3286
1622.00,3.3224
1621.00,3.3066
1620.00,3.3025
1619.00,3.2953
1618.00,3.2885
1617.00,3.2813
1616.00,3.2782
1615.00,3.2716
1614.00,3.2561
1613.00,3.2684
1612.00,3.2752
1611.00,3.2852
1610.00,3.2906
1609.00,3.2915
1608.00,3.2924
1607.00,3.2952
1606.00,3.2949
1605.00,3.2897
1604.00,3.2834
1603.00,3.2795
1602.00,3.2783
1601.00,3.2783
1600.00,3.2773
1599.00,3.2715
1598.00,3.2583
1597.00,3.2401
1596.00,3.2232
1595.00,3.2119
1594.00,3.2051
1593.00,3.1980
1592.00,3.1867
1591.00,3.1708
1590.00,3.1534
1589.00,3.1382
1588.00,3.1257
1587.00,3.1126
1586.00,3.0960
1585.00,3.0768
1584.00,3.0561
1583.00,3.0330
1582.00,3.0086
1581.00,2.9842
1580.00,2.9542
1579.00,2.9104
1578.00,2.8568
1577.00,2.8112
1576.00,2.7870
1575.00,2.7816
1574.00,2.7831
1573.00,2.7798
1572.00,2.7695
1571.00,2.7537
1570.00,2.7259
1569.00,2.6828
1568.00,2.6326
1567.00,2.5863
1566.00,2.5464
1565.00,2.5049
1564.00,2.4537
1563.00,2.3914
1562.00,2.3349
1561.00,2.3117
1560.00,2.3038
1559.00,2.2853
1558.00,2.2598
1557.00,2.2246
1556.00,2.1998
1555.00,2.1850
1554.00,2.1812
1553.00,2.1883
1552.00,2.2035
1551.00,2.2222
1550.00,2.2430
1549.00,2.2660
1548.00,2.2917
1547.00,2.3225
1546.00,2.3569
1545.00,2.3900
1544.00,2.4196
1543.00,2.4444
1542.00,2.4602
1541.00,2.4708
1540.00,2.4958
1539.00,2.5410
1538.00,2.6007
1537.00,2.6698
1536.00,2.7332
1535.00,2.7897
1534.00,2.8413
1533.00,2.8835
1532.00,2.9108
1531.00,2.9295
1530.00,2.9526
1529.00,2.9830
1528.00,3.0154
1527.00,3.0469
1526.00,3.0738
1525.00,3.0882
1524.00,3.0869
1523.00,3.0813
1522.00,3.0906
1521.00,3.1221
1520.00,3.1653
1519.00,3.2065
1518.00,3.2358
1517.00,3.2519
1516.00,3.2602
1515.00,3.2662
1514.00,3.2764
1513.00,3.2914
1512.00,3.3063
1511.00,3.3167
1510.00,3.3199
1509.00,3.3146
1508.00,3.3083
1507.00,3.3234
1506.00,3.3456
1505.00,3.3503
1504.00,3.3603
1503.00,3.3792
1502.00,3.4029
1501.00,3.4295
1500.00,3.4506
1499.00,3.4555
1498.00,3.4438
1497.00,3.4226
1496.00,3.4006
1495.00,3.3927
1494.00,3.4115
1493.00,3.4530
1492.00,3.4993
1491.00,3.5293
1490.00,3.5367
1489.00,3.5308
1488.00,3.5196
1487.00,3.5110
1486.00,3.5105
1485.00,3.5137
1484.00,3.5128
1483.00,3.5084
1482.00,3.5080
1481.00,3.5140
1480.00,3.5204
1479.00,3.5240
1478.00,3.5306
1477.00,3.5418
1476.00,3.5492
1475.00,3.5466
1474.00,3.5396
1473.00,3.5354
1472.00,3.5298
1471.00,3.5132
1470.00,3.4888
1469.00,3.4676
1468.00,3.4577
1467.00,3.4625
1466.00,3.4804
1465.00,3.5032
1464.00,3.5165
1463.00,3.5137
1462.00,3.5040
1461.00,3.4950
1460.00,3.4830
1459.00,3.4646
1458.00,3.4499
1457.00,3.4519
1456.00,3.4747
1455.00,3.5213
1454.00,3.5857
1453.00,3.6543
1452.00,3.7219
1451.00,3.7807
1450.00,3.8170
1449.00,3.8193
1448.00,3.7890
1447.00,3.7454
1446.00,3.7119
1445.00,3.6989
1444.00,3.7017
1443.00,3.7117
1442.00,3.7262
1441.00,3.7519
1440.00,3.7885
1439.00,3.8158
1438.00,3.8086
1437.00,3.7648
1436.00,3.7091
1435.00,3.6675
1434.00,3.6475
1433.00,3.6428
1432.00,3.6449
1431.00,3.6436
1430.00,3.6351
1429.00,3.6272
1428.00,3.6288
1427.00,3.6415
1426.00,3.6582
1425.00,3.6682
1424.00,3.6649
1423.00,3.6521
1422.00,3.6433
1421.00,3.6501
1420.00,3.6647
1419.00,3.6668
1418.00,3.6515
1417.00,3.6246
1416.00,3.5888
1415.00,3.5535
1414.00,3.5326
1413.00,3.5292
1412.00,3.5339
1411.00,3.5321
1410.00,3.5125
1409.00,3.4769
1408.00,3.4401
1407.00,3.4116
1406.00,3.3889
1405.00,3.3646
1404.00,3.3357
1403.00,3.3080
1402.00,3.2899
1401.00,3.2804
1400.00,3.2678
1399.00,3.2423
1398.00,3.2070
1397.00,3.1729
1396.00,3.1473
1395.00,3.1302
1394.00,3.1180
1393.00,3.1105
1392.00,3.1114
1391.00,3.1215
1390.00,3.1379
1389.00,3.1561
1388.00,3.1724
1387.00,3.1894
1386.00,3.2155
1385.00,3.2567
1384.00,3.3111
1383.00,3.3694
1382.00,3.4235
1381.00,3.4766
1380.00,3.5402
1379.00,3.6182
1378.00,3.6963
1377.00,3.7513
1376.00,3.7717
1375.00,3.7592
1374.00,3.7128
1373.00,3.6296
1372.00,3.5204
1371.00,3.4070
1370.00,3.3057
1369.00,3.2232
1368.00,3.1605
1367.00,3.1165
1366.00,3.0902
1365.00,3.0795
1364.00,3.0805
1363.00,3.0897
1362.00,3.1058
1361.00,3.1271
1360.00,3.1526
1359.00,3.1816
1358.00,3.2127
1357.00,3.2451
1356.00,3.2787
1355.00,3.3128
1354.00,3.3466
1353.00,3.3810
1352.00,3.4175
1351.00,3.4520
1350.00,3.4736
1349.00,3.4777
1348.00,3.4733
1347.00,3.4729
1346.00,3.4811
1345.00,3.4941
1344.00,3.5087
1343.00,3.5256
1342.00,3.5422
1341.00,3.5488
1340.00,3.5388
1339.00,3.5207
1338.00,3.5106
1337.00,3.5160
1336.00,3.5324
1335.00,3.5498
1334.00,3.5610
1333.00,3.5656
1332.00,3.5672
1331.00,3.5664
1330.00,3.5634
1329.00,3.5611
1328.00,3.5603
1327.00,3.5561
1326.00,3.5464
1325.00,3.5405
1324.00,3.5516
1323.00,3.5809
1322.00,3.6121
1321.00,3.6279
1320.00,3.6300
1319.00,3.6334
1318.00,3.6418
1317.00,3.6422
1316.00,3.6271
1315.00,3.6110
1314.00,3.6177
1313.00,3.6537
1312.00,3.6963
1311.00,3.7103
1310.00,3.6893
1309.00,3.6607
1308.00,3.6474
1307.00,3.6501
1306.00,3.6568
1305.00,3.6579
1304.00,3.6514
1303.00,3.6366
1302.00,3.6130
1301.00,3.5855
1300.00,3.5611
1299.00,3.5427
1298.00,3.5314
1297.00,3.5274
1296.00,3.5290
1295.00,3.5335
1294.00,3.5397
1293.00,3.5427
1292.00,3.5311
1291.00,3.4976
1290.00,3.4515
1289.00,3.4106
1288.00,3.3843
1287.00,3.3691
1286.00,3.3559
1285.00,3.3410
1284.00,3.3279
1283.00,3.3191
1282.00,3.3094
1281.00,3.2899
1280.00,3.2589
1279.00,3.2263
1278.00,3.2031
1277.00,3.1895
1276.00,3.1741
1275.00,3.1457
1274.00,3.1047
1273.00,3.0607
1272.00,3.0202
1271.00,2.9818
1270.00,2.9421
1269.00,2.9005
1268.00,2.8574
1267.00,2.8119
1266.00,2.7621
1265.00,2.7075
1264.00,2.6494
1263.00,2.5891
1262.00,2.5280
1261.00,2.4685
1260.00,2.4137
1259.00,2.3669
1258.00,2.3301
1257.00,2.3051
1256.00,2.2932
1255.00,2.2955
1254.00,2.3115
1253.00,2.3401
1252.00,2.3795
1251.00,2.4273
1250.00,2.4809
1249.00,2.5383
1248.00,2.5987
1247.00,2.6626
1246.00,2.7299
1245.00,2.7988
1244.00,2.8653
1243.00,2.9246
1242.00,2.9739
1241.00,3.0156
1240.00,3.0577
1239.00,3.1075
1238.00,3.1665
1237.00,3.2310
1236.00,3.2951
1235.00,3.3538
1234.00,3.4031
1233.00,3.4405
1232.00,3.4682
1231.00,3.4883
1230.00,3.5038
1229.00,3.5235
1228.00,3.5557
1227.00,3.5953
1226.00,3.6204
1225.00,3.6150
1224.00,3.5911
1223.00,3.5675
1222.00,3.5437
1221.00,3.5124
1220.00,3.4828
1219.00,3.4760
1218.00,3.5037
1217.00,3.5587
1216.00,3.6167
1215.00,3.6527
1214.00,3.6629
1213.00,3.6639
1212.00,3.6730
1211.00,3.6873
1210.00,3.6851
1209.00,3.6592
1208.00,3.6396
1207.00,3.6582
1206.00,3.7202
1205.00,3.7967
1204.00,3.8461
1203.00,3.8721
1202.00,3.9114
1201.00,3.9632
1200.00,3.9744
1199.00,3.9323
1198.00,3.8887
1197.00,3.8621
1196.00,3.8380
1195.00,3.8157
1194.00,3.8183
1193.00,3.8642
1192.00,3.9325
1191.00,3.9780
1190.00,3.9716
1189.00,3.9120
1188.00,3.8587
1187.00,3.8545
1186.00,3.8859
1185.00,3.9102
1184.00,3.9059
1183.00,3.9087
1182.00,3.9697
1181.00,4.1332
1180.00,4.4452
1179.00,4.6224
1178.00,4.4380
1177.00,4.2764
1176.00,4.0935
1175.00,3.9686
1174.00,3.9198
1173.00,3.9122
1172.00,3.9120
1171.00,3.8891
1170.00,3.8431
1169.00,3.8116
1168.00,3.8083
1167.00,3.8139
1166.00,3.8097
1165.00,3.7973
1164.00,3.7846
1163.00,3.7720
1162.00,3.7596
1161.00,3.7554
1160.00,3.7711
1159.00,3.8086
1158.00,3.8502
1157.00,3.8695
1156.00,3.8575
1155.00,3.8278
1154.00,3.7953
1153.00,3.7636
1152.00,3.7266
1151.00,3.6768
1150.00,3.6105
1149.00,3.5352
1148.00,3.4756
1147.00,3.4490
1146.00,3.4492
1145.00,3.4544
1144.00,3.4462
1143.00,3.4267
1142.00,3.4052
1141.00,3.3763
1140.00,3.3337
1139.00,3.2846
1138.00,3.2375
1137.00,3.1951
1136.00,3.1549
1135.00,3.1122
1134.00,3.0666
1133.00,3.0221
1132.00,2.9818
1131.00,2.9455
1130.00,2.9142
1129.00,2.8921
1128.00,2.8858
1127.00,2.8988
1126.00,2.9299
1125.00,2.9741
1124.00,3.0263
1123.00,3.0801
1122.00,3.1255
1121.00,3.1513
1120.00,3.1529
1119.00,3.1346
1118.00,3.1057
1117.00,3.0761
1116.00,3.0544
1115.00,3.0445
1114.00,3.0441
1113.00,3.0489
1112.00,3.0577
1111.00,3.0740
1110.00,3.1027
1109.00,3.1477
1108.00,3.2085
1107.00,3.2780
1106.00,3.3443
1105.00,3.4015
1104.00,3.4606
1103.00,3.5464
1102.00,3.6717
1101.00,3.7827
1100.00,3.8004
1099.00,3.8117
1098.00,3.8779
1097.00,3.9216
1096.00,3.9526
1095.00,4.0054
1094.00,3.9697
1093.00,3.9438
1092.00,3.9941
1091.00,4.0152
1090.00,3.9612
1089.00,3.9121
1088.00,3.9185
1087.00,3.9678
1086.00,4.0356
1085.00,4.0783
1084.00,4.0670
1083.00,4.1230
1082.00,4.3365
1081.00,4.6092
1080.00,4.6179
1079.00,4.3817
1078.00,4.2472
1077.00,4.2873
1076.00,4.3299
1075.00,4.2233
1074.00,4.1274
1073.00,4.0566
1072.00,4.0109
1071.00,4.0377
1070.00,4.1701
1069.00,4.4508
1068.00,4.9098
1067.00,4.8029
1066.00,4.3552
1065.00,4.0499
1064.00,3.9117
1063.00,3.8926
1062.00,4.0758
1061.00,4.7225
1060.00,4.3059
1059.00,4.0825
1058.00,4.1127
1057.00,4.1557
1056.00,4.0323
1055.00,3.8950
1054.00,3.8331
1053.00,3.8047
1052.00,3.8238
1051.00,3.9141
1050.00,4.0419
1049.00,4.0788
1048.00,4.0042
1047.00,3.9204
1046.00,3.8755
1045.00,3.8435
1044.00,3.8046
1043.00,3.7977
1042.00,3.8601
1041.00,3.9778
1040.00,4.0473
1039.00,4.0127
1038.00,3.9865
1037.00,4.0279
1036.00,4.1413
1035.00,4.3073
1034.00,4.5216
1033.00,4.8169
1032.00,4.5819
1031.00,4.2501
1030.00,4.1149
1029.00,4.1144
1028.00,4.1671
1027.00,4.1688
1026.00,4.1763
1025.00,4.2996
1024.00,4.4629
1023.00,4.3562
1022.00,4.1948
1021.00,4.1472
1020.00,4.1838
1019.00,4.1773
1018.00,4.0815
1017.00,3.9905
1016.00,3.9219
1015.00,3.8820
1014.00,3.8860
1013.00,3.9367
1012.00,4.0304
1011.00,4.1849
1010.00,4.4420
1009.00,4.7936
1008.00,5.0649
1007.00,4.8904
1006.00,4.6083
1005.00,4.4538
1004.00,4.3718
1003.00,4.2470
1002.00,4.0741
1001.00,3.9580
1000.00,3.9205
999.00,3.9392
998.00,3.9936
997.00,4.0624
996.00,4.0827
995.00,4.0438
994.00,4.0516
993.00,4.1267
992.00,4.1560
991.00,4.0897
990.00,3.9970
989.00,3.8990
988.00,3.8110
987.00,3.7527
986.00,3.7287
985.00,3.7280
984.00,3.7266
983.00,3.7029
982.00,3.6526
981.00,3.5857
980.00,3.5196
979.00,3.4709
978.00,3.4450
977.00,3.4353
976.00,3.4329
975.00,3.4386
974.00,3.4589
973.00,3.4903
972.00,3.5165
971.00,3.5293
970.00,3.5467
969.00,3.5968
968.00,3.6994
967.00,3.8621
966.00,4.0808
965.00,4.3100
964.00,4.3845
963.00,4.2414
962.00,4.0998
961.00,4.0726
960.00,4.1943
959.00,4.3980
958.00,4.4112
957.00,4.3451
956.00,4.3198
955.00,4.2866
954.00,4.2382
953.00,4.1735
952.00,4.0916
951.00,4.0133
950.00,3.9875
949.00,4.0360
948.00,4.1396
947.00,4.2174
946.00,4.3106
945.00,4.4900
944.00,4.4757
943.00,4.3239
942.00,4.2023
941.00,4.1520
940.00,4.1819
939.00,4.1838
938.00,4.1096
937.00,4.0796
936.00,4.1303
935.00,4.3554
934.00,4.7503
933.00,4.4791
932.00,4.3504
931.00,4.3241
930.00,4.2380
929.00,4.2184
928.00,4.2796
927.00,4.4121
926.00,4.4983
925.00,4.5523
924.00,4.6702
923.00,4.5930
922.00,4.3520
921.00,4.1417
920.00,3.9757
919.00,3.8562
918.00,3.7694
917.00,3.7035
916.00,3.6728
915.00,3.7021
914.00,3.8011
913.00,3.9228
912.00,3.9406
911.00,3.8885
910.00,3.8864
909.00,3.9460
908.00,3.9977
907.00,3.9601
906.00,3.9025
905.00,3.8837
904.00,3.8764
903.00,3.9147
902.00,4.0620
901.00,4.4854
900.00,5.0504
899.00,4.5617
898.00,4.4932
897.00,4.3432
896.00,4.1618
895.00,4.0756
894.00,4.0342
893.00,4.0298
892.00,4.0061
891.00,3.9479
890.00,3.9009
889.00,3.9117
888.00,4.0182
887.00,4.2075
886.00,4.1972
885.00,4.0358
884.00,3.9144
883.00,3.8177
882.00,3.7677
881.00,3.7912
880.00,3.8838
879.00,4.0706
878.00,4.2733
877.00,4.1591
876.00,4.0714
875.00,4.1754
874.00,4.2742
873.00,4.1850
872.00,4.2644
871.00,4.5128
870.00,4.2730
869.00,4.0185
868.00,3.9434
867.00,3.9867
866.00,4.2368
865.00,4.9482
864.00,4.7753
863.00,4.6475
862.00,4.4533
861.00,4.2359
860.00,4.1418
859.00,4.2966
858.00,4.7400
857.00,4.1759
856.00,3.9947
855.00,4.0767
854.00,4.4118
853.00,5.1591
852.00,4.9118
851.00,5.2096
850.00,4.7487
849.00,4.6185
848.00,4.6198
847.00,4.2395
846.00,4.0480
845.00,4.0313
844.00,4.1295
843.00,4.3206
842.00,4.3571
841.00,4.1602
840.00,4.0236
839.00,4.1233
838.00,4.4546
837.00,4.2690
836.00,4.1156
835.00,4.1187
834.00,4.0400
833.00,3.9784
832.00,3.9998
831.00,4.1162
830.00,4.1975
829.00,4.0822
828.00,3.9440
827.00,3.8693
826.00,3.8354
825.00,3.8234
824.00,3.8372
823.00,3.9097
822.00,4.0547
821.00,4.2229
820.00,4.2149
819.00,4.0243
818.00,3.8918
817.00,3.8470
816.00,3.8370
815.00,3.8320
814.00,3.8558
813.00,3.9411
812.00,4.0985
811.00,4.2592
810.00,4.1565
809.00,3.9354
808.00,3.7929
807.00,3.7153
806.00,3.6687
805.00,3.6533
804.00,3.7184
803.00,3.9075
802.00,4.2677
801.00,4.5325
800.00,4.1517
799.00,3.8704
798.00,3.7447
797.00,3.7444
796.00,3.8584
795.00,4.0426
794.00,4.1993
793.00,4.2744
792.00,4.4952
791.00,4.6140
790.00,4.3286
789.00,4.2581
788.00,4.3254
787.00,4.3938
786.00,4.3526
785.00,4.2361
784.00,4.2563
783.00,4.2191
782.00,4.0083
781.00,3.9152
780.00,3.9404
779.00,4.0574
778.00,4.2875
777.00,4.3362
776.00,4.2030
775.00,4.1784
774.00,4.2367
773.00,4.2927
772.00,4.2740
771.00,4.2216
770.00,4.2087
769.00,4.2332
768.00,4.3314
767.00,4.3857
766.00,4.2422
765.00,4.1270
764.00,4.0655
763.00,4.0076
762.00,3.9404
761.00,3.8481
760.00,3.7712
759.00,3.7625
758.00,3.8459
757.00,3.9748
756.00,4.0035
755.00,3.9354
754.00,3.8846
753.00,3.8626
752.00,3.8202
751.00,3.7384
750.00,3.6647
749.00,3.6277
748.00,3.6167
747.00,3.6255
746.00,3.6750
745.00,3.7896
744.00,3.9732
743.00,4.2077
742.00,4.4288
741.00,4.3892
740.00,4.1797
739.00,4.0786
738.00,4.1035
737.00,4.2531
736.00,4.3969
735.00,4.2955
734.00,4.1917
733.00,4.1143
732.00,3.9986
731.00,3.8656
730.00,3.7825
729.00,3.7746
728.00,3.8944
727.00,4.2523
726.00,4.2664
725.00,3.9454
724.00,3.8354
723.00,3.8039
722.00,3.7630
721.00,3.6928
720.00,3.6523
719.00,3.6833
718.00,3.7715
717.00,3.9086
716.00,4.0741
715.00,4.3014
714.00,4.5494
713.00,4.4227
712.00,4.2975
711.00,4.2996
710.00,4.2328
709.00,4.1410
708.00,4.0930
707.00,4.2084
706.00,4.3813
705.00,4.0793
704.00,3.8920
703.00,3.8546
702.00,3.9792
701.00,4.1555
700.00,3.8575
