Created as New Dataset,Sample 030 By Administrator Date Wednesday, November 24 2021
cm-1,A
7502.00,0.8410
7501.00,0.8440
7500.00,0.8467
7499.00,0.8492
7498.00,0.8514
7497.00,0.8532
7496.00,0.8546
7495.00,0.8559
7494.00,0.8565
7493.00,0.8565
7492.00,0.8560
7491.00,0.8560
7490.00,0.8569
7489.00,0.8578
7488.00,0.8578
7487.00,0.8565
7486.00,0.8546
7485.00,0.8522
7484.00,0.8490
7483.00,0.8449
7482.00,0.8405
7481.00,0.8369
7480.00,0.8344
7479.00,0.8323
7478.00,0.8297
7477.00,0.8263
7476.00,0.8222
7475.00,0.8174
7474.00,0.8117
7473.00,0.8053
7472.00,0.7985
7471.00,0.7920
7470.00,0.7859
7469.00,0.7800
7468.00,0.7738
7467.00,0.7671
7466.00,0.7603
7465.00,0.7535
7464.00,0.7465
7463.00,0.7391
7462.00,0.7315
7461.00,0.7240
7460.00,0.7166
7459.00,0.7090
7458.00,0.7013
7457.00,0.6937
7456.00,0.6860
7455.00,0.6782
7454.00,0.6701
7453.00,0.6619
7452.00,0.6542
7451.00,0.6470
7450.00,0.6402
7449.00,0.6334
7448.00,0.6265
7447.00,0.6196
7446.00,0.6129
7445.00,0.6064
7444.00,0.6002
7443.00,0.5942
7442.00,0.5885
7441.00,0.5834
7440.00,0.5790
7439.00,0.5752
7438.00,0.5715
7437.00,0.5675
7436.00,0.5634
7435.00,0.5598
7434.00,0.5571
7433.00,0.5552
7432.00,0.5537
7431.00,0.5524
7430.00,0.5519
7429.00,0.5523
7428.00,0.5531
7427.00,0.5535
7426.00,0.5537
7425.00,0.5544
7424.00,0.5558
7423.00,0.5581
7422.00,0.5609
7421.00,0.5642
7420.00,0.5681
7419.00,0.5728
7418.00,0.5780
7417.00,0.5835
7416.00,0.5894
7415.00,0.5956
7414.00,0.6020
7413.00,0.6085
7412.00,0.6152
7411.00,0.6222
7410.00,0.6295
7409.00,0.6368
7408.00,0.6443
7407.00,0.6522
7406.00,0.6605
7405.00,0.6693
7404.00,0.6780
7403.00,0.6865
7402.00,0.6949
7401.00,0.7036
7400.00,0.7125
7399.00,0.7217
7398.00,0.7310
7397.00,0.7404
7396.00,0.7498
7395.00,0.7594
7394.00,0.7693
7393.00,0.7789
7392.00,0.7878
7391.00,0.7959
7390.00,0.8036
7389.00,0.8114
7388.00,0.8196
7387.00,0.8281
7386.00,0.8365
7385.00,0.8449
7384.00,0.8533
7383.00,0.8618
7382.00,0.8703
7381.00,0.8785
7380.00,0.8860
7379.00,0.8927
7378.00,0.8988
7377.00,0.9047
7376.00,0.9101
7375.00,0.9148
7374.00,0.9188
7373.00,0.9225
7372.00,0.9264
7371.00,0.9307
7370.00,0.9351
7369.00,0.9392
7368.00,0.9427
7367.00,0.9457
7366.00,0.9480
7365.00,0.9493
7364.00,0.9494
7363.00,0.9494
7362.00,0.9504
7361.00,0.9528
7360.00,0.9558
7359.00,0.9580
7358.00,0.9592
7357.00,0.9602
7356.00,0.9610
7355.00,0.9615
7354.00,0.9613
7353.00,0.9609
7352.00,0.9607
7351.00,0.9604
7350.00,0.9593
7349.00,0.9567
7348.00,0.9523
7347.00,0.9466
7346.00,0.9406
7345.00,0.9354
7344.00,0.9315
7343.00,0.9288
7342.00,0.9263
7341.00,0.9234
7340.00,0.9197
7339.00,0.9153
7338.00,0.9100
7337.00,0.9034
7336.00,0.8956
7335.00,0.8873
7334.00,0.8795
7333.00,0.8723
7332.00,0.8653
7331.00,0.8583
7330.00,0.8515
7329.00,0.8451
7328.00,0.8390
7327.00,0.8327
7326.00,0.8260
7325.00,0.8192
7324.00,0.8122
7323.00,0.8052
7322.00,0.7981
7321.00,0.7911
7320.00,0.7842
7319.00,0.7776
7318.00,0.7712
7317.00,0.7650
7316.00,0.7588
7315.00,0.7524
7314.00,0.7460
7313.00,0.7396
7312.00,0.7332
7311.00,0.7267
7310.00,0.7202
7309.00,0.7138
7308.00,0.7072
7307.00,0.7005
7306.00,0.6942
7305.00,0.6885
7304.00,0.6836
7303.00,0.6788
7302.00,0.6739
7301.00,0.6690
7300.00,0.6643
7299.00,0.6597
7298.00,0.6553
7297.00,0.6510
7296.00,0.6470
7295.00,0.6433
7294.00,0.6401
7293.00,0.6374
7292.00,0.6354
7291.00,0.6339
7290.00,0.6326
7289.00,0.6318
7288.00,0.6317
7287.00,0.6324
7286.00,0.6337
7285.00,0.6355
7284.00,0.6376
7283.00,0.6402
7282.00,0.6433
7281.00,0.6469
7280.00,0.6510
7279.00,0.6555
7278.00,0.6603
7277.00,0.6653
7276.00,0.6705
7275.00,0.6760
7274.00,0.6821
7273.00,0.6886
7272.00,0.6956
7271.00,0.7028
7270.00,0.7105
7269.00,0.7187
7268.00,0.7271
7267.00,0.7354
7266.00,0.7432
7265.00,0.7508
7264.00,0.7587
7263.00,0.7672
7262.00,0.7762
7261.00,0.7856
7260.00,0.7950
7259.00,0.8047
7258.00,0.8148
7257.00,0.8251
7256.00,0.8350
7255.00,0.8442
7254.00,0.8530
7253.00,0.8618
7252.00,0.8706
7251.00,0.8790
7250.00,0.8869
7249.00,0.8946
7248.00,0.9026
7247.00,0.9110
7246.00,0.9196
7245.00,0.9282
7244.00,0.9365
7243.00,0.9449
7242.00,0.9536
7241.00,0.9625
7240.00,0.9710
7239.00,0.9787
7238.00,0.9859
7237.00,0.9930
7236.00,0.9999
7235.00,1.0062
7234.00,1.0118
7233.00,1.0170
7232.00,1.0221
7231.00,1.0271
7230.00,1.0320
7229.00,1.0370
7228.00,1.0420
7227.00,1.0468
7226.00,1.0513
7225.00,1.0553
7224.00,1.0588
7223.00,1.0618
7222.00,1.0646
7221.00,1.0674
7220.00,1.0699
7219.00,1.0715
7218.00,1.0718
7217.00,1.0717
7216.00,1.0718
7215.00,1.0725
7214.00,1.0731
7213.00,1.0731
7212.00,1.0724
7211.00,1.0717
7210.00,1.0711
7209.00,1.0701
7208.00,1.0683
7207.00,1.0658
7206.00,1.0630
7205.00,1.0606
7204.00,1.0582
7203.00,1.0554
7202.00,1.0515
7201.00,1.0467
7200.00,1.0414
7199.00,1.0360
7198.00,1.0306
7197.00,1.0251
7196.00,1.0194
7195.00,1.0138
7194.00,1.0083
7193.00,1.0024
7192.00,0.9958
7191.00,0.9888
7190.00,0.9816
7189.00,0.9742
7188.00,0.9664
7187.00,0.9582
7186.00,0.9501
7185.00,0.9419
7184.00,0.9334
7183.00,0.9247
7182.00,0.9158
7181.00,0.9072
7180.00,0.8988
7179.00,0.8906
7178.00,0.8824
7177.00,0.8739
7176.00,0.8649
7175.00,0.8557
7174.00,0.8467
7173.00,0.8384
7172.00,0.8305
7171.00,0.8226
7170.00,0.8144
7169.00,0.8062
7168.00,0.7981
7167.00,0.7902
7166.00,0.7824
7165.00,0.7748
7164.00,0.7675
7163.00,0.7606
7162.00,0.7541
7161.00,0.7481
7160.00,0.7424
7159.00,0.7369
7158.00,0.7315
7157.00,0.7264
7156.00,0.7217
7155.00,0.7174
7154.00,0.7139
7153.00,0.7111
7152.00,0.7089
7151.00,0.7070
7150.00,0.7055
7149.00,0.7043
7148.00,0.7037
7147.00,0.7035
7146.00,0.7039
7145.00,0.7048
7144.00,0.7061
7143.00,0.7080
7142.00,0.7103
7141.00,0.7132
7140.00,0.7165
7139.00,0.7202
7138.00,0.7240
7137.00,0.7282
7136.00,0.7331
7135.00,0.7387
7134.00,0.7448
7133.00,0.7513
7132.00,0.7579
7131.00,0.7649
7130.00,0.7724
7129.00,0.7802
7128.00,0.7881
7127.00,0.7959
7126.00,0.8038
7125.00,0.8120
7124.00,0.8205
7123.00,0.8290
7122.00,0.8375
7121.00,0.8462
7120.00,0.8551
7119.00,0.8643
7118.00,0.8737
7117.00,0.8830
7116.00,0.8923
7115.00,0.9017
7114.00,0.9108
7113.00,0.9195
7112.00,0.9278
7111.00,0.9359
7110.00,0.9443
7109.00,0.9530
7108.00,0.9619
7107.00,0.9707
7106.00,0.9795
7105.00,0.9881
7104.00,0.9963
7103.00,1.0039
7102.00,1.0109
7101.00,1.0178
7100.00,1.0247
7099.00,1.0313
7098.00,1.0374
7097.00,1.0433
7096.00,1.0494
7095.00,1.0557
7094.00,1.0614
7093.00,1.0662
7092.00,1.0706
7091.00,1.0752
7090.00,1.0800
7089.00,1.0843
7088.00,1.0877
7087.00,1.0906
7086.00,1.0936
7085.00,1.0969
7084.00,1.1000
7083.00,1.1027
7082.00,1.1048
7081.00,1.1065
7080.00,1.1078
7079.00,1.1089
7078.00,1.1096
7077.00,1.1097
7076.00,1.1090
7075.00,1.1078
7074.00,1.1066
7073.00,1.1053
7072.00,1.1036
7071.00,1.1016
7070.00,1.0994
7069.00,1.0970
7068.00,1.0945
7067.00,1.0918
7066.00,1.0889
7065.00,1.0857
7064.00,1.0820
7063.00,1.0778
7062.00,1.0734
7061.00,1.0690
7060.00,1.0644
7059.00,1.0593
7058.00,1.0536
7057.00,1.0474
7056.00,1.0410
7055.00,1.0343
7054.00,1.0271
7053.00,1.0195
7052.00,1.0118
7051.00,1.0040
7050.00,0.9962
7049.00,0.9880
7048.00,0.9796
7047.00,0.9712
7046.00,0.9628
7045.00,0.9543
7044.00,0.9454
7043.00,0.9361
7042.00,0.9269
7041.00,0.9179
7040.00,0.9088
7039.00,0.8995
7038.00,0.8899
7037.00,0.8804
7036.00,0.8711
7035.00,0.8622
7034.00,0.8534
7033.00,0.8446
7032.00,0.8357
7031.00,0.8270
7030.00,0.8188
7029.00,0.8109
7028.00,0.8030
7027.00,0.7952
7026.00,0.7877
7025.00,0.7808
7024.00,0.7740
7023.00,0.7673
7022.00,0.7606
7021.00,0.7544
7020.00,0.7488
7019.00,0.7435
7018.00,0.7385
7017.00,0.7339
7016.00,0.7298
7015.00,0.7263
7014.00,0.7232
7013.00,0.7206
7012.00,0.7183
7011.00,0.7164
7010.00,0.7152
7009.00,0.7146
7008.00,0.7144
7007.00,0.7145
7006.00,0.7150
7005.00,0.7161
7004.00,0.7177
7003.00,0.7197
7002.00,0.7221
7001.00,0.7250
7000.00,0.7285
6999.00,0.7324
6998.00,0.7368
6997.00,0.7418
6996.00,0.7474
6995.00,0.7533
6994.00,0.7597
6993.00,0.7663
6992.00,0.7732
6991.00,0.7802
6990.00,0.7873
6989.00,0.7945
6988.00,0.8020
6987.00,0.8100
6986.00,0.8184
6985.00,0.8272
6984.00,0.8361
6983.00,0.8451
6982.00,0.8540
6981.00,0.8630
6980.00,0.8719
6979.00,0.8810
6978.00,0.8904
6977.00,0.9000
6976.00,0.9098
6975.00,0.9196
6974.00,0.9294
6973.00,0.9389
6972.00,0.9479
6971.00,0.9568
6970.00,0.9659
6969.00,0.9753
6968.00,0.9846
6967.00,0.9935
6966.00,1.0021
6965.00,1.0107
6964.00,1.0190
6963.00,1.0267
6962.00,1.0341
6961.00,1.0416
6960.00,1.0492
6959.00,1.0566
6958.00,1.0636
6957.00,1.0703
6956.00,1.0770
6955.00,1.0838
6954.00,1.0905
6953.00,1.0972
6952.00,1.1039
6951.00,1.1105
6950.00,1.1168
6949.00,1.1225
6948.00,1.1273
6947.00,1.1315
6946.00,1.1351
6945.00,1.1385
6944.00,1.1416
6943.00,1.1443
6942.00,1.1468
6941.00,1.1490
6940.00,1.1505
6939.00,1.1513
6938.00,1.1519
6937.00,1.1528
6936.00,1.1538
6935.00,1.1546
6934.00,1.1550
6933.00,1.1553
6932.00,1.1552
6931.00,1.1545
6930.00,1.1531
6929.00,1.1513
6928.00,1.1492
6927.00,1.1469
6926.00,1.1445
6925.00,1.1419
6924.00,1.1387
6923.00,1.1348
6922.00,1.1305
6921.00,1.1260
6920.00,1.1214
6919.00,1.1163
6918.00,1.1109
6917.00,1.1053
6916.00,1.0996
6915.00,1.0934
6914.00,1.0866
6913.00,1.0793
6912.00,1.0721
6911.00,1.0649
6910.00,1.0574
6909.00,1.0495
6908.00,1.0411
6907.00,1.0326
6906.00,1.0242
6905.00,1.0156
6904.00,1.0067
6903.00,0.9974
6902.00,0.9878
6901.00,0.9785
6900.00,0.9693
6899.00,0.9600
6898.00,0.9506
6897.00,0.9414
6896.00,0.9322
6895.00,0.9231
6894.00,0.9138
6893.00,0.9045
6892.00,0.8952
6891.00,0.8857
6890.00,0.8761
6889.00,0.8669
6888.00,0.8580
6887.00,0.8494
6886.00,0.8411
6885.00,0.8332
6884.00,0.8257
6883.00,0.8184
6882.00,0.8111
6881.00,0.8039
6880.00,0.7969
6879.00,0.7902
6878.00,0.7840
6877.00,0.7783
6876.00,0.7731
6875.00,0.7685
6874.00,0.7645
6873.00,0.7613
6872.00,0.7584
6871.00,0.7559
6870.00,0.7537
6869.00,0.7521
6868.00,0.7512
6867.00,0.7509
6866.00,0.7511
6865.00,0.7519
6864.00,0.7531
6863.00,0.7549
6862.00,0.7572
6861.00,0.7599
6860.00,0.7631
6859.00,0.7668
6858.00,0.7709
6857.00,0.7757
6856.00,0.7810
6855.00,0.7868
6854.00,0.7929
6853.00,0.7993
6852.00,0.8059
6851.00,0.8127
6850.00,0.8198
6849.00,0.8274
6848.00,0.8354
6847.00,0.8437
6846.00,0.8521
6845.00,0.8606
6844.00,0.8693
6843.00,0.8783
6842.00,0.8875
6841.00,0.8968
6840.00,0.9061
6839.00,0.9155
6838.00,0.9249
6837.00,0.9342
6836.00,0.9434
6835.00,0.9526
6834.00,0.9617
6833.00,0.9710
6832.00,0.9803
6831.00,0.9896
6830.00,0.9989
6829.00,1.0079
6828.00,1.0165
6827.00,1.0245
6826.00,1.0324
6825.00,1.0403
6824.00,1.0485
6823.00,1.0565
6822.00,1.0642
6821.00,1.0716
6820.00,1.0788
6819.00,1.0856
6818.00,1.0920
6817.00,1.0980
6816.00,1.1039
6815.00,1.1098
6814.00,1.1157
6813.00,1.1214
6812.00,1.1266
6811.00,1.1316
6810.00,1.1365
6809.00,1.1410
6808.00,1.1450
6807.00,1.1482
6806.00,1.1510
6805.00,1.1535
6804.00,1.1556
6803.00,1.1572
6802.00,1.1585
6801.00,1.1598
6800.00,1.1611
6799.00,1.1623
6798.00,1.1632
6797.00,1.1637
6796.00,1.1637
6795.00,1.1630
6794.00,1.1620
6793.00,1.1609
6792.00,1.1595
6791.00,1.1574
6790.00,1.1546
6789.00,1.1515
6788.00,1.1483
6787.00,1.1447
6786.00,1.1407
6785.00,1.1363
6784.00,1.1318
6783.00,1.1272
6782.00,1.1223
6781.00,1.1168
6780.00,1.1109
6779.00,1.1046
6778.00,1.0982
6777.00,1.0915
6776.00,1.0844
6775.00,1.0771
6774.00,1.0698
6773.00,1.0624
6772.00,1.0551
6771.00,1.0476
6770.00,1.0397
6769.00,1.0314
6768.00,1.0226
6767.00,1.0134
6766.00,1.0038
6765.00,0.9941
6764.00,0.9843
6763.00,0.9746
6762.00,0.9653
6761.00,0.9560
6760.00,0.9465
6759.00,0.9366
6758.00,0.9264
6757.00,0.9163
6756.00,0.9064
6755.00,0.8967
6754.00,0.8872
6753.00,0.8780
6752.00,0.8690
6751.00,0.8603
6750.00,0.8518
6749.00,0.8433
6748.00,0.8348
6747.00,0.8265
6746.00,0.8183
6745.00,0.8106
6744.00,0.8031
6743.00,0.7960
6742.00,0.7892
6741.00,0.7829
6740.00,0.7771
6739.00,0.7717
6738.00,0.7666
6737.00,0.7618
6736.00,0.7574
6735.00,0.7535
6734.00,0.7501
6733.00,0.7472
6732.00,0.7447
6731.00,0.7425
6730.00,0.7408
6729.00,0.7397
6728.00,0.7389
6727.00,0.7386
6726.00,0.7388
6725.00,0.7399
6724.00,0.7417
6723.00,0.7440
6722.00,0.7467
6721.00,0.7499
6720.00,0.7535
6719.00,0.7574
6718.00,0.7619
6717.00,0.7668
6716.00,0.7722
6715.00,0.7780
6714.00,0.7843
6713.00,0.7910
6712.00,0.7981
6711.00,0.8055
6710.00,0.8130
6709.00,0.8210
6708.00,0.8291
6707.00,0.8375
6706.00,0.8461
6705.00,0.8550
6704.00,0.8642
6703.00,0.8735
6702.00,0.8829
6701.00,0.8925
6700.00,0.9021
6699.00,0.9117
6698.00,0.9214
6697.00,0.9311
6696.00,0.9408
6695.00,0.9505
6694.00,0.9603
6693.00,0.9701
6692.00,0.9799
6691.00,0.9895
6690.00,0.9992
6689.00,1.0091
6688.00,1.0188
6687.00,1.0283
6686.00,1.0373
6685.00,1.0461
6684.00,1.0547
6683.00,1.0629
6682.00,1.0709
6681.00,1.0787
6680.00,1.0866
6679.00,1.0945
6678.00,1.1023
6677.00,1.1098
6676.00,1.1169
6675.00,1.1237
6674.00,1.1302
6673.00,1.1366
6672.00,1.1428
6671.00,1.1487
6670.00,1.1540
6669.00,1.1588
6668.00,1.1633
6667.00,1.1676
6666.00,1.1718
6665.00,1.1756
6664.00,1.1789
6663.00,1.1816
6662.00,1.1841
6661.00,1.1861
6660.00,1.1877
6659.00,1.1889
6658.00,1.1901
6657.00,1.1915
6656.00,1.1928
6655.00,1.1937
6654.00,1.1941
6653.00,1.1940
6652.00,1.1932
6651.00,1.1916
6650.00,1.1896
6649.00,1.1874
6648.00,1.1850
6647.00,1.1823
6646.00,1.1793
6645.00,1.1761
6644.00,1.1724
6643.00,1.1683
6642.00,1.1636
6641.00,1.1586
6640.00,1.1534
6639.00,1.1480
6638.00,1.1426
6637.00,1.1370
6636.00,1.1312
6635.00,1.1249
6634.00,1.1182
6633.00,1.1112
6632.00,1.1039
6631.00,1.0964
6630.00,1.0886
6629.00,1.0806
6628.00,1.0723
6627.00,1.0638
6626.00,1.0548
6625.00,1.0456
6624.00,1.0361
6623.00,1.0264
6622.00,1.0166
6621.00,1.0069
6620.00,0.9969
6619.00,0.9866
6618.00,0.9761
6617.00,0.9658
6616.00,0.9556
6615.00,0.9453
6614.00,0.9349
6613.00,0.9245
6612.00,0.9143
6611.00,0.9044
6610.00,0.8948
6609.00,0.8855
6608.00,0.8762
6607.00,0.8669
6606.00,0.8578
6605.00,0.8489
6604.00,0.8402
6603.00,0.8316
6602.00,0.8233
6601.00,0.8154
6600.00,0.8081
6599.00,0.8012
6598.00,0.7948
6597.00,0.7889
6596.00,0.7834
6595.00,0.7782
6594.00,0.7735
6593.00,0.7693
6592.00,0.7656
6591.00,0.7623
6590.00,0.7597
6589.00,0.7579
6588.00,0.7568
6587.00,0.7562
6586.00,0.7563
6585.00,0.7569
6584.00,0.7580
6583.00,0.7595
6582.00,0.7615
6581.00,0.7642
6580.00,0.7675
6579.00,0.7714
6578.00,0.7758
6577.00,0.7807
6576.00,0.7861
6575.00,0.7920
6574.00,0.7982
6573.00,0.8048
6572.00,0.8117
6571.00,0.8192
6570.00,0.8270
6569.00,0.8351
6568.00,0.8432
6567.00,0.8514
6566.00,0.8601
6565.00,0.8690
6564.00,0.8780
6563.00,0.8872
6562.00,0.8966
6561.00,0.9064
6560.00,0.9163
6559.00,0.9264
6558.00,0.9364
6557.00,0.9465
6556.00,0.9565
6555.00,0.9664
6554.00,0.9762
6553.00,0.9858
6552.00,0.9951
6551.00,1.0044
6550.00,1.0137
6549.00,1.0231
6548.00,1.0324
6547.00,1.0413
6546.00,1.0501
6545.00,1.0588
6544.00,1.0673
6543.00,1.0758
6542.00,1.0841
6541.00,1.0921
6540.00,1.0998
6539.00,1.1070
6538.00,1.1140
6537.00,1.1207
6536.00,1.1271
6535.00,1.1332
6534.00,1.1393
6533.00,1.1452
6532.00,1.1507
6531.00,1.1557
6530.00,1.1602
6529.00,1.1642
6528.00,1.1678
6527.00,1.1711
6526.00,1.1745
6525.00,1.1776
6524.00,1.1801
6523.00,1.1820
6522.00,1.1836
6521.00,1.1851
6520.00,1.1864
6519.00,1.1872
6518.00,1.1874
6517.00,1.1875
6516.00,1.1875
6515.00,1.1869
6514.00,1.1857
6513.00,1.1839
6512.00,1.1820
6511.00,1.1801
6510.00,1.1779
6509.00,1.1750
6508.00,1.1713
6507.00,1.1670
6506.00,1.1626
6505.00,1.1583
6504.00,1.1537
6503.00,1.1489
6502.00,1.1439
6501.00,1.1389
6500.00,1.1337
6499.00,1.1281
6498.00,1.1219
6497.00,1.1152
6496.00,1.1082
6495.00,1.1010
6494.00,1.0934
6493.00,1.0853
6492.00,1.0768
6491.00,1.0678
6490.00,1.0586
6489.00,1.0494
6488.00,1.0402
6487.00,1.0310
6486.00,1.0216
6485.00,1.0119
6484.00,1.0021
6483.00,0.9922
6482.00,0.9823
6481.00,0.9724
6480.00,0.9624
6479.00,0.9522
6478.00,0.9422
6477.00,0.9324
6476.00,0.9230
6475.00,0.9136
6474.00,0.9040
6473.00,0.8943
6472.00,0.8846
6471.00,0.8749
6470.00,0.8652
6469.00,0.8554
6468.00,0.8458
6467.00,0.8367
6466.00,0.8281
6465.00,0.8199
6464.00,0.8119
6463.00,0.8041
6462.00,0.7965
6461.00,0.7891
6460.00,0.7821
6459.00,0.7755
6458.00,0.7694
6457.00,0.7638
6456.00,0.7587
6455.00,0.7541
6454.00,0.7501
6453.00,0.7465
6452.00,0.7434
6451.00,0.7407
6450.00,0.7386
6449.00,0.7370
6448.00,0.7360
6447.00,0.7357
6446.00,0.7360
6445.00,0.7367
6444.00,0.7379
6443.00,0.7396
6442.00,0.7420
6441.00,0.7450
6440.00,0.7487
6439.00,0.7530
6438.00,0.7578
6437.00,0.7632
6436.00,0.7688
6435.00,0.7748
6434.00,0.7812
6433.00,0.7880
6432.00,0.7953
6431.00,0.8030
6430.00,0.8111
6429.00,0.8196
6428.00,0.8283
6427.00,0.8372
6426.00,0.8463
6425.00,0.8559
6424.00,0.8657
6423.00,0.8758
6422.00,0.8861
6421.00,0.8965
6420.00,0.9069
6419.00,0.9172
6418.00,0.9276
6417.00,0.9382
6416.00,0.9488
6415.00,0.9590
6414.00,0.9692
6413.00,0.9793
6412.00,0.9893
6411.00,0.9990
6410.00,1.0086
6409.00,1.0182
6408.00,1.0279
6407.00,1.0376
6406.00,1.0472
6405.00,1.0567
6404.00,1.0661
6403.00,1.0754
6402.00,1.0844
6401.00,1.0932
6400.00,1.1017
6399.00,1.1096
6398.00,1.1170
6397.00,1.1242
6396.00,1.1311
6395.00,1.1378
6394.00,1.1441
6393.00,1.1503
6392.00,1.1563
6391.00,1.1621
6390.00,1.1673
6389.00,1.1721
6388.00,1.1765
6387.00,1.1806
6386.00,1.1845
6385.00,1.1883
6384.00,1.1920
6383.00,1.1951
6382.00,1.1975
6381.00,1.1993
6380.00,1.2007
6379.00,1.2020
6378.00,1.2029
6377.00,1.2037
6376.00,1.2042
6375.00,1.2046
6374.00,1.2044
6373.00,1.2037
6372.00,1.2025
6371.00,1.2011
6370.00,1.1996
6369.00,1.1979
6368.00,1.1958
6367.00,1.1933
6366.00,1.1904
6365.00,1.1871
6364.00,1.1833
6363.00,1.1790
6362.00,1.1744
6361.00,1.1697
6360.00,1.1648
6359.00,1.1593
6358.00,1.1532
6357.00,1.1467
6356.00,1.1398
6355.00,1.1327
6354.00,1.1251
6353.00,1.1171
6352.00,1.1089
6351.00,1.1008
6350.00,1.0928
6349.00,1.0846
6348.00,1.0760
6347.00,1.0669
6346.00,1.0577
6345.00,1.0482
6344.00,1.0382
6343.00,1.0278
6342.00,1.0173
6341.00,1.0069
6340.00,0.9964
6339.00,0.9857
6338.00,0.9746
6337.00,0.9635
6336.00,0.9524
6335.00,0.9412
6334.00,0.9300
6333.00,0.9187
6332.00,0.9078
6331.00,0.8971
6330.00,0.8867
6329.00,0.8765
6328.00,0.8663
6327.00,0.8562
6326.00,0.8462
6325.00,0.8364
6324.00,0.8270
6323.00,0.8179
6322.00,0.8091
6321.00,0.8008
6320.00,0.7928
6319.00,0.7852
6318.00,0.7782
6317.00,0.7715
6316.00,0.7653
6315.00,0.7595
6314.00,0.7544
6313.00,0.7500
6312.00,0.7460
6311.00,0.7425
6310.00,0.7396
6309.00,0.7373
6308.00,0.7358
6307.00,0.7348
6306.00,0.7346
6305.00,0.7351
6304.00,0.7364
6303.00,0.7384
6302.00,0.7409
6301.00,0.7439
6300.00,0.7473
6299.00,0.7511
6298.00,0.7554
6297.00,0.7603
6296.00,0.7658
6295.00,0.7721
6294.00,0.7789
6293.00,0.7863
6292.00,0.7939
6291.00,0.8018
6290.00,0.8099
6289.00,0.8182
6288.00,0.8267
6287.00,0.8357
6286.00,0.8451
6285.00,0.8549
6284.00,0.8649
6283.00,0.8751
6282.00,0.8855
6281.00,0.8959
6280.00,0.9062
6279.00,0.9166
6278.00,0.9271
6277.00,0.9376
6276.00,0.9479
6275.00,0.9581
6274.00,0.9684
6273.00,0.9787
6272.00,0.9889
6271.00,0.9991
6270.00,1.0092
6269.00,1.0191
6268.00,1.0288
6267.00,1.0381
6266.00,1.0472
6265.00,1.0562
6264.00,1.0651
6263.00,1.0738
6262.00,1.0823
6261.00,1.0906
6260.00,1.0984
6259.00,1.1059
6258.00,1.1131
6257.00,1.1201
6256.00,1.1269
6255.00,1.1335
6254.00,1.1400
6253.00,1.1462
6252.00,1.1518
6251.00,1.1567
6250.00,1.1614
6249.00,1.1661
6248.00,1.1706
6247.00,1.1747
6246.00,1.1784
6245.00,1.1816
6244.00,1.1842
6243.00,1.1862
6242.00,1.1878
6241.00,1.1892
6240.00,1.1905
6239.00,1.1916
6238.00,1.1924
6237.00,1.1930
6236.00,1.1931
6235.00,1.1923
6234.00,1.1908
6233.00,1.1887
6232.00,1.1864
6231.00,1.1839
6230.00,1.1813
6229.00,1.1785
6228.00,1.1754
6227.00,1.1721
6226.00,1.1686
6225.00,1.1648
6224.00,1.1606
6223.00,1.1560
6222.00,1.1510
6221.00,1.1457
6220.00,1.1397
6219.00,1.1332
6218.00,1.1263
6217.00,1.1190
6216.00,1.1115
6215.00,1.1037
6214.00,1.0960
6213.00,1.0881
6212.00,1.0800
6211.00,1.0714
6210.00,1.0625
6209.00,1.0536
6208.00,1.0444
6207.00,1.0347
6206.00,1.0246
6205.00,1.0144
6204.00,1.0043
6203.00,0.9942
6202.00,0.9839
6201.00,0.9735
6200.00,0.9630
6199.00,0.9525
6198.00,0.9417
6197.00,0.9308
6196.00,0.9199
6195.00,0.9089
6194.00,0.8982
6193.00,0.8877
6192.00,0.8772
6191.00,0.8667
6190.00,0.8562
6189.00,0.8460
6188.00,0.8358
6187.00,0.8256
6186.00,0.8157
6185.00,0.8060
6184.00,0.7968
6183.00,0.7880
6182.00,0.7796
6181.00,0.7716
6180.00,0.7639
6179.00,0.7565
6178.00,0.7495
6177.00,0.7430
6176.00,0.7370
6175.00,0.7315
6174.00,0.7266
6173.00,0.7223
6172.00,0.7185
6171.00,0.7154
6170.00,0.7128
6169.00,0.7109
6168.00,0.7096
6167.00,0.7090
6166.00,0.7089
6165.00,0.7094
6164.00,0.7106
6163.00,0.7126
6162.00,0.7152
6161.00,0.7184
6160.00,0.7222
6159.00,0.7267
6158.00,0.7317
6157.00,0.7373
6156.00,0.7433
6155.00,0.7498
6154.00,0.7568
6153.00,0.7644
6152.00,0.7724
6151.00,0.7808
6150.00,0.7895
6149.00,0.7985
6148.00,0.8078
6147.00,0.8173
6146.00,0.8271
6145.00,0.8371
6144.00,0.8472
6143.00,0.8576
6142.00,0.8682
6141.00,0.8791
6140.00,0.8900
6139.00,0.9009
6138.00,0.9118
6137.00,0.9229
6136.00,0.9339
6135.00,0.9448
6134.00,0.9557
6133.00,0.9667
6132.00,0.9776
6131.00,0.9883
6130.00,0.9989
6129.00,1.0094
6128.00,1.0197
6127.00,1.0297
6126.00,1.0396
6125.00,1.0495
6124.00,1.0591
6123.00,1.0683
6122.00,1.0774
6121.00,1.0864
6120.00,1.0952
6119.00,1.1036
6118.00,1.1118
6117.00,1.1199
6116.00,1.1277
6115.00,1.1347
6114.00,1.1409
6113.00,1.1467
6112.00,1.1524
6111.00,1.1580
6110.00,1.1633
6109.00,1.1683
6108.00,1.1731
6107.00,1.1776
6106.00,1.1815
6105.00,1.1847
6104.00,1.1875
6103.00,1.1903
6102.00,1.1930
6101.00,1.1954
6100.00,1.1971
6099.00,1.1984
6098.00,1.1995
6097.00,1.2004
6096.00,1.2010
6095.00,1.2012
6094.00,1.2011
6093.00,1.2008
6092.00,1.2001
6091.00,1.1989
6090.00,1.1972
6089.00,1.1953
6088.00,1.1930
6087.00,1.1902
6086.00,1.1868
6085.00,1.1831
6084.00,1.1791
6083.00,1.1748
6082.00,1.1701
6081.00,1.1651
6080.00,1.1595
6079.00,1.1533
6078.00,1.1467
6077.00,1.1399
6076.00,1.1330
6075.00,1.1260
6074.00,1.1188
6073.00,1.1114
6072.00,1.1036
6071.00,1.0952
6070.00,1.0864
6069.00,1.0770
6068.00,1.0672
6067.00,1.0570
6066.00,1.0465
6065.00,1.0360
6064.00,1.0253
6063.00,1.0146
6062.00,1.0037
6061.00,0.9928
6060.00,0.9817
6059.00,0.9704
6058.00,0.9588
6057.00,0.9472
6056.00,0.9355
6055.00,0.9237
6054.00,0.9119
6053.00,0.9002
6052.00,0.8886
6051.00,0.8769
6050.00,0.8653
6049.00,0.8539
6048.00,0.8426
6047.00,0.8313
6046.00,0.8204
6045.00,0.8098
6044.00,0.7997
6043.00,0.7900
6042.00,0.7808
6041.00,0.7720
6040.00,0.7636
6039.00,0.7554
6038.00,0.7476
6037.00,0.7401
6036.00,0.7332
6035.00,0.7268
6034.00,0.7213
6033.00,0.7165
6032.00,0.7125
6031.00,0.7091
6030.00,0.7063
6029.00,0.7041
6028.00,0.7026
6027.00,0.7018
6026.00,0.7016
6025.00,0.7022
6024.00,0.7033
6023.00,0.7051
6022.00,0.7076
6021.00,0.7108
6020.00,0.7147
6019.00,0.7192
6018.00,0.7245
6017.00,0.7304
6016.00,0.7369
6015.00,0.7439
6014.00,0.7513
6013.00,0.7594
6012.00,0.7680
6011.00,0.7770
6010.00,0.7863
6009.00,0.7958
6008.00,0.8055
6007.00,0.8153
6006.00,0.8253
6005.00,0.8356
6004.00,0.8462
6003.00,0.8570
6002.00,0.8681
6001.00,0.8795
6000.00,0.8911
5999.00,0.9026
5998.00,0.9137
5997.00,0.9247
5996.00,0.9357
5995.00,0.9467
5994.00,0.9577
5993.00,0.9688
5992.00,0.9801
5991.00,0.9913
5990.00,1.0025
5989.00,1.0133
5988.00,1.0237
5987.00,1.0338
5986.00,1.0435
5985.00,1.0529
5984.00,1.0620
5983.00,1.0708
5982.00,1.0796
5981.00,1.0883
5980.00,1.0969
5979.00,1.1053
5978.00,1.1133
5977.00,1.1210
5976.00,1.1284
5975.00,1.1352
5974.00,1.1416
5973.00,1.1477
5972.00,1.1536
5971.00,1.1593
5970.00,1.1645
5969.00,1.1694
5968.00,1.1742
5967.00,1.1787
5966.00,1.1829
5965.00,1.1866
5964.00,1.1899
5963.00,1.1925
5962.00,1.1948
5961.00,1.1968
5960.00,1.1984
5959.00,1.1998
5958.00,1.2009
5957.00,1.2017
5956.00,1.2022
5955.00,1.2020
5954.00,1.2014
5953.00,1.2006
5952.00,1.1998
5951.00,1.1988
5950.00,1.1972
5949.00,1.1949
5948.00,1.1921
5947.00,1.1888
5946.00,1.1851
5945.00,1.1812
5944.00,1.1773
5943.00,1.1732
5942.00,1.1689
5941.00,1.1641
5940.00,1.1588
5939.00,1.1529
5938.00,1.1464
5937.00,1.1397
5936.00,1.1328
5935.00,1.1256
5934.00,1.1180
5933.00,1.1099
5932.00,1.1016
5931.00,1.0929
5930.00,1.0838
5929.00,1.0744
5928.00,1.0648
5927.00,1.0550
5926.00,1.0452
5925.00,1.0351
5924.00,1.0247
5923.00,1.0141
5922.00,1.0030
5921.00,0.9916
5920.00,0.9800
5919.00,0.9681
5918.00,0.9561
5917.00,0.9440
5916.00,0.9318
5915.00,0.9197
5914.00,0.9075
5913.00,0.8953
5912.00,0.8831
5911.00,0.8712
5910.00,0.8594
5909.00,0.8478
5908.00,0.8363
5907.00,0.8248
5906.00,0.8136
5905.00,0.8027
5904.00,0.7921
5903.00,0.7820
5902.00,0.7723
5901.00,0.7631
5900.00,0.7542
5899.00,0.7455
5898.00,0.7373
5897.00,0.7296
5896.00,0.7226
5895.00,0.7163
5894.00,0.7107
5893.00,0.7059
5892.00,0.7016
5891.00,0.6980
5890.00,0.6950
5889.00,0.6927
5888.00,0.6911
5887.00,0.6902
5886.00,0.6901
5885.00,0.6907
5884.00,0.6920
5883.00,0.6941
5882.00,0.6969
5881.00,0.7005
5880.00,0.7048
5879.00,0.7096
5878.00,0.7149
5877.00,0.7210
5876.00,0.7276
5875.00,0.7349
5874.00,0.7427
5873.00,0.7511
5872.00,0.7598
5871.00,0.7689
5870.00,0.7783
5869.00,0.7879
5868.00,0.7979
5867.00,0.8081
5866.00,0.8186
5865.00,0.8294
5864.00,0.8405
5863.00,0.8518
5862.00,0.8632
5861.00,0.8747
5860.00,0.8865
5859.00,0.8983
5858.00,0.9101
5857.00,0.9218
5856.00,0.9335
5855.00,0.9451
5854.00,0.9568
5853.00,0.9683
5852.00,0.9799
5851.00,0.9913
5850.00,1.0026
5849.00,1.0137
5848.00,1.0244
5847.00,1.0350
5846.00,1.0452
5845.00,1.0552
5844.00,1.0649
5843.00,1.0745
5842.00,1.0841
5841.00,1.0932
5840.00,1.1019
5839.00,1.1103
5838.00,1.1185
5837.00,1.1263
5836.00,1.1336
5835.00,1.1405
5834.00,1.1473
5833.00,1.1541
5832.00,1.1607
5831.00,1.1671
5830.00,1.1731
5829.00,1.1787
5828.00,1.1838
5827.00,1.1884
5826.00,1.1924
5825.00,1.1959
5824.00,1.1991
5823.00,1.2020
5822.00,1.2045
5821.00,1.2065
5820.00,1.2081
5819.00,1.2095
5818.00,1.2106
5817.00,1.2114
5816.00,1.2117
5815.00,1.2117
5814.00,1.2116
5813.00,1.2115
5812.00,1.2111
5811.00,1.2100
5810.00,1.2082
5809.00,1.2059
5808.00,1.2032
5807.00,1.2002
5806.00,1.1972
5805.00,1.1943
5804.00,1.1914
5803.00,1.1879
5802.00,1.1836
5801.00,1.1784
5800.00,1.1727
5799.00,1.1667
5798.00,1.1605
5797.00,1.1540
5796.00,1.1472
5795.00,1.1401
5794.00,1.1326
5793.00,1.1247
5792.00,1.1164
5791.00,1.1077
5790.00,1.0985
5789.00,1.0887
5788.00,1.0787
5787.00,1.0687
5786.00,1.0586
5785.00,1.0484
5784.00,1.0380
5783.00,1.0271
5782.00,1.0160
5781.00,1.0044
5780.00,0.9925
5779.00,0.9802
5778.00,0.9679
5777.00,0.9556
5776.00,0.9430
5775.00,0.9303
5774.00,0.9176
5773.00,0.9050
5772.00,0.8925
5771.00,0.8800
5770.00,0.8675
5769.00,0.8553
5768.00,0.8431
5767.00,0.8312
5766.00,0.8194
5765.00,0.8078
5764.00,0.7965
5763.00,0.7855
5762.00,0.7749
5761.00,0.7649
5760.00,0.7552
5759.00,0.7460
5758.00,0.7372
5757.00,0.7290
5756.00,0.7214
5755.00,0.7143
5754.00,0.7080
5753.00,0.7024
5752.00,0.6975
5751.00,0.6932
5750.00,0.6896
5749.00,0.6868
5748.00,0.6847
5747.00,0.6833
5746.00,0.6826
5745.00,0.6828
5744.00,0.6837
5743.00,0.6855
5742.00,0.6881
5741.00,0.6916
5740.00,0.6957
5739.00,0.7005
5738.00,0.7058
5737.00,0.7118
5736.00,0.7184
5735.00,0.7257
5734.00,0.7337
5733.00,0.7422
5732.00,0.7511
5731.00,0.7604
5730.00,0.7700
5729.00,0.7799
5728.00,0.7902
5727.00,0.8009
5726.00,0.8121
5725.00,0.8237
5724.00,0.8354
5723.00,0.8471
5722.00,0.8589
5721.00,0.8708
5720.00,0.8828
5719.00,0.8948
5718.00,0.9069
5717.00,0.9191
5716.00,0.9314
5715.00,0.9437
5714.00,0.9558
5713.00,0.9680
5712.00,0.9801
5711.00,0.9920
5710.00,1.0037
5709.00,1.0151
5708.00,1.0262
5707.00,1.0371
5706.00,1.0479
5705.00,1.0588
5704.00,1.0695
5703.00,1.0800
5702.00,1.0902
5701.00,1.1000
5700.00,1.1094
5699.00,1.1184
5698.00,1.1270
5697.00,1.1352
5696.00,1.1430
5695.00,1.1505
5694.00,1.1578
5693.00,1.1648
5692.00,1.1717
5691.00,1.1781
5690.00,1.1840
5689.00,1.1894
5688.00,1.1942
5687.00,1.1985
5686.00,1.2026
5685.00,1.2066
5684.00,1.2103
5683.00,1.2136
5682.00,1.2164
5681.00,1.2186
5680.00,1.2206
5679.00,1.2222
5678.00,1.2237
5677.00,1.2249
5676.00,1.2258
5675.00,1.2262
5674.00,1.2261
5673.00,1.2256
5672.00,1.2245
5671.00,1.2232
5670.00,1.2213
5669.00,1.2191
5668.00,1.2165
5667.00,1.2135
5666.00,1.2102
5665.00,1.2065
5664.00,1.2025
5663.00,1.1981
5662.00,1.1933
5661.00,1.1882
5660.00,1.1827
5659.00,1.1768
5658.00,1.1704
5657.00,1.1634
5656.00,1.1558
5655.00,1.1478
5654.00,1.1396
5653.00,1.1314
5652.00,1.1230
5651.00,1.1145
5650.00,1.1056
5649.00,1.0962
5648.00,1.0861
5647.00,1.0754
5646.00,1.0643
5645.00,1.0531
5644.00,1.0416
5643.00,1.0297
5642.00,1.0175
5641.00,1.0050
5640.00,0.9923
5639.00,0.9795
5638.00,0.9666
5637.00,0.9538
5636.00,0.9410
5635.00,0.9280
5634.00,0.9147
5633.00,0.9011
5632.00,0.8875
5631.00,0.8738
5630.00,0.8602
5629.00,0.8469
5628.00,0.8339
5627.00,0.8212
5626.00,0.8088
5625.00,0.7968
5624.00,0.7849
5623.00,0.7733
5622.00,0.7619
5621.00,0.7508
5620.00,0.7402
5619.00,0.7301
5618.00,0.7206
5617.00,0.7118
5616.00,0.7036
5615.00,0.6960
5614.00,0.6892
5613.00,0.6830
5612.00,0.6776
5611.00,0.6729
5610.00,0.6690
5609.00,0.6659
5608.00,0.6636
5607.00,0.6621
5606.00,0.6615
5605.00,0.6618
5604.00,0.6630
5603.00,0.6651
5602.00,0.6680
5601.00,0.6718
5600.00,0.6763
5599.00,0.6815
5598.00,0.6875
5597.00,0.6941
5596.00,0.7015
5595.00,0.7094
5594.00,0.7178
5593.00,0.7268
5592.00,0.7363
5591.00,0.7463
5590.00,0.7568
5589.00,0.7679
5588.00,0.7793
5587.00,0.7910
5586.00,0.8029
5585.00,0.8149
5584.00,0.8272
5583.00,0.8396
5582.00,0.8522
5581.00,0.8649
5580.00,0.8777
5579.00,0.8905
5578.00,0.9035
5577.00,0.9165
5576.00,0.9295
5575.00,0.9426
5574.00,0.9555
5573.00,0.9683
5572.00,0.9809
5571.00,0.9932
5570.00,1.0053
5569.00,1.0173
5568.00,1.0292
5567.00,1.0409
5566.00,1.0525
5565.00,1.0640
5564.00,1.0752
5563.00,1.0863
5562.00,1.0971
5561.00,1.1074
5560.00,1.1174
5559.00,1.1269
5558.00,1.1361
5557.00,1.1448
5556.00,1.1532
5555.00,1.1612
5554.00,1.1688
5553.00,1.1761
5552.00,1.1833
5551.00,1.1901
5550.00,1.1967
5549.00,1.2027
5548.00,1.2081
5547.00,1.2130
5546.00,1.2175
5545.00,1.2217
5544.00,1.2253
5543.00,1.2286
5542.00,1.2317
5541.00,1.2345
5540.00,1.2371
5539.00,1.2393
5538.00,1.2411
5537.00,1.2424
5536.00,1.2433
5535.00,1.2437
5534.00,1.2439
5533.00,1.2438
5532.00,1.2435
5531.00,1.2427
5530.00,1.2414
5529.00,1.2397
5528.00,1.2375
5527.00,1.2348
5526.00,1.2317
5525.00,1.2281
5524.00,1.2240
5523.00,1.2194
5522.00,1.2146
5521.00,1.2094
5520.00,1.2041
5519.00,1.1985
5518.00,1.1925
5517.00,1.1861
5516.00,1.1791
5515.00,1.1715
5514.00,1.1634
5513.00,1.1549
5512.00,1.1462
5511.00,1.1371
5510.00,1.1276
5509.00,1.1179
5508.00,1.1078
5507.00,1.0975
5506.00,1.0869
5505.00,1.0758
5504.00,1.0643
5503.00,1.0525
5502.00,1.0403
5501.00,1.0278
5500.00,1.0149
5499.00,1.0019
5498.00,0.9888
5497.00,0.9756
5496.00,0.9622
5495.00,0.9485
5494.00,0.9348
5493.00,0.9210
5492.00,0.9072
5491.00,0.8932
5490.00,0.8794
5489.00,0.8657
5488.00,0.8522
5487.00,0.8390
5486.00,0.8261
5485.00,0.8136
5484.00,0.8014
5483.00,0.7895
5482.00,0.7777
5481.00,0.7663
5480.00,0.7554
5479.00,0.7453
5478.00,0.7358
5477.00,0.7270
5476.00,0.7186
5475.00,0.7108
5474.00,0.7035
5473.00,0.6970
5472.00,0.6912
5471.00,0.6863
5470.00,0.6824
5469.00,0.6795
5468.00,0.6775
5467.00,0.6762
5466.00,0.6759
5465.00,0.6763
5464.00,0.6776
5463.00,0.6798
5462.00,0.6828
5461.00,0.6867
5460.00,0.6915
5459.00,0.6971
5458.00,0.7034
5457.00,0.7104
5456.00,0.7181
5455.00,0.7266
5454.00,0.7357
5453.00,0.7453
5452.00,0.7554
5451.00,0.7658
5450.00,0.7768
5449.00,0.7882
5448.00,0.8000
5447.00,0.8120
5446.00,0.8244
5445.00,0.8371
5444.00,0.8500
5443.00,0.8632
5442.00,0.8765
5441.00,0.8900
5440.00,0.9036
5439.00,0.9173
5438.00,0.9309
5437.00,0.9443
5436.00,0.9575
5435.00,0.9706
5434.00,0.9837
5433.00,0.9969
5432.00,1.0099
5431.00,1.0227
5430.00,1.0353
5429.00,1.0477
5428.00,1.0600
5427.00,1.0723
5426.00,1.0844
5425.00,1.0964
5424.00,1.1079
5423.00,1.1191
5422.00,1.1299
5421.00,1.1403
5420.00,1.1503
5419.00,1.1597
5418.00,1.1687
5417.00,1.1770
5416.00,1.1846
5415.00,1.1920
5414.00,1.1993
5413.00,1.2064
5412.00,1.2133
5411.00,1.2199
5410.00,1.2261
5409.00,1.2318
5408.00,1.2370
5407.00,1.2419
5406.00,1.2465
5405.00,1.2510
5404.00,1.2553
5403.00,1.2591
5402.00,1.2624
5401.00,1.2649
5400.00,1.2666
5399.00,1.2679
5398.00,1.2688
5397.00,1.2694
5396.00,1.2697
5395.00,1.2698
5394.00,1.2699
5393.00,1.2698
5392.00,1.2692
5391.00,1.2679
5390.00,1.2661
5389.00,1.2636
5388.00,1.2605
5387.00,1.2570
5386.00,1.2535
5385.00,1.2499
5384.00,1.2462
5383.00,1.2419
5382.00,1.2370
5381.00,1.2315
5380.00,1.2257
5379.00,1.2194
5378.00,1.2128
5377.00,1.2059
5376.00,1.1985
5375.00,1.1905
5374.00,1.1820
5373.00,1.1732
5372.00,1.1641
5371.00,1.1547
5370.00,1.1448
5369.00,1.1346
5368.00,1.1241
5367.00,1.1131
5366.00,1.1017
5365.00,1.0898
5364.00,1.0776
5363.00,1.0652
5362.00,1.0525
5361.00,1.0394
5360.00,1.0261
5359.00,1.0124
5358.00,0.9985
5357.00,0.9845
5356.00,0.9702
5355.00,0.9556
5354.00,0.9408
5353.00,0.9260
5352.00,0.9111
5351.00,0.8963
5350.00,0.8816
5349.00,0.8673
5348.00,0.8533
5347.00,0.8394
5346.00,0.8255
5345.00,0.8117
5344.00,0.7981
5343.00,0.7849
5342.00,0.7724
5341.00,0.7606
5340.00,0.7494
5339.00,0.7387
5338.00,0.7284
5337.00,0.7187
5336.00,0.7100
5335.00,0.7021
5334.00,0.6949
5333.00,0.6885
5332.00,0.6830
5331.00,0.6784
5330.00,0.6748
5329.00,0.6721
5328.00,0.6702
5327.00,0.6693
5326.00,0.6693
5325.00,0.6703
5324.00,0.6723
5323.00,0.6751
5322.00,0.6790
5321.00,0.6836
5320.00,0.6891
5319.00,0.6953
5318.00,0.7023
5317.00,0.7101
5316.00,0.7188
5315.00,0.7281
5314.00,0.7379
5313.00,0.7482
5312.00,0.7590
5311.00,0.7701
5310.00,0.7816
5309.00,0.7937
5308.00,0.8063
5307.00,0.8194
5306.00,0.8329
5305.00,0.8466
5304.00,0.8605
5303.00,0.8745
5302.00,0.8886
5301.00,0.9028
5300.00,0.9171
5299.00,0.9316
5298.00,0.9460
5297.00,0.9603
5296.00,0.9745
5295.00,0.9886
5294.00,1.0026
5293.00,1.0164
5292.00,1.0301
5291.00,1.0437
5290.00,1.0573
5289.00,1.0707
5288.00,1.0839
5287.00,1.0966
5286.00,1.1090
5285.00,1.1209
5284.00,1.1325
5283.00,1.1437
5282.00,1.1546
5281.00,1.1654
5280.00,1.1758
5279.00,1.1859
5278.00,1.1956
5277.00,1.2050
5276.00,1.2139
5275.00,1.2223
5274.00,1.2305
5273.00,1.2384
5272.00,1.2457
5271.00,1.2522
5270.00,1.2582
5269.00,1.2638
5268.00,1.2691
5267.00,1.2742
5266.00,1.2792
5265.00,1.2838
5264.00,1.2879
5263.00,1.2914
5262.00,1.2943
5261.00,1.2970
5260.00,1.2993
5259.00,1.3013
5258.00,1.3028
5257.00,1.3039
5256.00,1.3046
5255.00,1.3047
5254.00,1.3045
5253.00,1.3041
5252.00,1.3035
5251.00,1.3025
5250.00,1.3008
5249.00,1.2988
5248.00,1.2965
5247.00,1.2940
5246.00,1.2911
5245.00,1.2876
5244.00,1.2835
5243.00,1.2788
5242.00,1.2739
5241.00,1.2688
5240.00,1.2636
5239.00,1.2581
5238.00,1.2521
5237.00,1.2454
5236.00,1.2379
5235.00,1.2300
5234.00,1.2217
5233.00,1.2132
5232.00,1.2041
5231.00,1.1944
5230.00,1.1843
5229.00,1.1739
5228.00,1.1632
5227.00,1.1521
5226.00,1.1406
5225.00,1.1288
5224.00,1.1166
5223.00,1.1041
5222.00,1.0913
5221.00,1.0781
5220.00,1.0645
5219.00,1.0506
5218.00,1.0364
5217.00,1.0221
5216.00,1.0076
5215.00,0.9930
5214.00,0.9781
5213.00,0.9630
5212.00,0.9478
5211.00,0.9327
5210.00,0.9179
5209.00,0.9032
5208.00,0.8884
5207.00,0.8737
5206.00,0.8590
5205.00,0.8447
5204.00,0.8307
5203.00,0.8174
5202.00,0.8048
5201.00,0.7930
5200.00,0.7820
5199.00,0.7716
5198.00,0.7617
5197.00,0.7524
5196.00,0.7436
5195.00,0.7353
5194.00,0.7277
5193.00,0.7207
5192.00,0.7143
5191.00,0.7085
5190.00,0.7033
5189.00,0.6988
5188.00,0.6954
5187.00,0.6929
5186.00,0.6915
5185.00,0.6912
5184.00,0.6919
5183.00,0.6936
5182.00,0.6963
5181.00,0.7000
5180.00,0.7048
5179.00,0.7106
5178.00,0.7174
5177.00,0.7250
5176.00,0.7335
5175.00,0.7426
5174.00,0.7525
5173.00,0.7631
5172.00,0.7743
5171.00,0.7861
5170.00,0.7984
5169.00,0.8111
5168.00,0.8241
5167.00,0.8375
5166.00,0.8512
5165.00,0.8652
5164.00,0.8795
5163.00,0.8941
5162.00,0.9088
5161.00,0.9236
5160.00,0.9384
5159.00,0.9533
5158.00,0.9682
5157.00,0.9831
5156.00,0.9980
5155.00,1.0127
5154.00,1.0272
5153.00,1.0416
5152.00,1.0558
5151.00,1.0699
5150.00,1.0839
5149.00,1.0975
5148.00,1.1108
5147.00,1.1237
5146.00,1.1362
5145.00,1.1484
5144.00,1.1602
5143.00,1.1718
5142.00,1.1831
5141.00,1.1940
5140.00,1.2046
5139.00,1.2148
5138.00,1.2247
5137.00,1.2341
5136.00,1.2430
5135.00,1.2514
5134.00,1.2594
5133.00,1.2670
5132.00,1.2744
5131.00,1.2813
5130.00,1.2879
5129.00,1.2939
5128.00,1.2992
5127.00,1.3038
5126.00,1.3081
5125.00,1.3123
5124.00,1.3163
5123.00,1.3202
5122.00,1.3236
5121.00,1.3264
5120.00,1.3286
5119.00,1.3302
5118.00,1.3312
5117.00,1.3318
5116.00,1.3323
5115.00,1.3324
5114.00,1.3322
5113.00,1.3316
5112.00,1.3306
5111.00,1.3293
5110.00,1.3277
5109.00,1.3257
5108.00,1.3234
5107.00,1.3208
5106.00,1.3177
5105.00,1.3139
5104.00,1.3095
5103.00,1.3044
5102.00,1.2989
5101.00,1.2930
5100.00,1.2867
5099.00,1.2801
5098.00,1.2732
5097.00,1.2658
5096.00,1.2580
5095.00,1.2499
5094.00,1.2416
5093.00,1.2329
5092.00,1.2238
5091.00,1.2139
5090.00,1.2034
5089.00,1.1923
5088.00,1.1807
5087.00,1.1687
5086.00,1.1565
5085.00,1.1441
5084.00,1.1314
5083.00,1.1182
5082.00,1.1045
5081.00,1.0903
5080.00,1.0758
5079.00,1.0610
5078.00,1.0460
5077.00,1.0308
5076.00,1.0154
5075.00,0.9998
5074.00,0.9840
5073.00,0.9681
5072.00,0.9521
5071.00,0.9362
5070.00,0.9202
5069.00,0.9043
5068.00,0.8885
5067.00,0.8729
5066.00,0.8576
5065.00,0.8427
5064.00,0.8282
5063.00,0.8140
5062.00,0.8003
5061.00,0.7870
5060.00,0.7743
5059.00,0.7622
5058.00,0.7509
5057.00,0.7404
5056.00,0.7307
5055.00,0.7216
5054.00,0.7134
5053.00,0.7061
5052.00,0.6997
5051.00,0.6942
5050.00,0.6898
5049.00,0.6864
5048.00,0.6840
5047.00,0.6826
5046.00,0.6823
5045.00,0.6831
5044.00,0.6850
5043.00,0.6880
5042.00,0.6921
5041.00,0.6972
5040.00,0.7032
5039.00,0.7100
5038.00,0.7178
5037.00,0.7265
5036.00,0.7361
5035.00,0.7464
5034.00,0.7574
5033.00,0.7690
5032.00,0.7812
5031.00,0.7939
5030.00,0.8072
5029.00,0.8210
5028.00,0.8352
5027.00,0.8497
5026.00,0.8645
5025.00,0.8796
5024.00,0.8949
5023.00,0.9105
5022.00,0.9262
5021.00,0.9420
5020.00,0.9578
5019.00,0.9736
5018.00,0.9894
5017.00,1.0051
5016.00,1.0208
5015.00,1.0363
5014.00,1.0517
5013.00,1.0669
5012.00,1.0819
5011.00,1.0967
5010.00,1.1113
5009.00,1.1256
5008.00,1.1394
5007.00,1.1529
5006.00,1.1659
5005.00,1.1786
5004.00,1.1910
5003.00,1.2030
5002.00,1.2146
5001.00,1.2259
5000.00,1.2367
4999.00,1.2472
4998.00,1.2573
4997.00,1.2668
4996.00,1.2759
4995.00,1.2843
4994.00,1.2923
4993.00,1.2998
4992.00,1.3069
4991.00,1.3136
4990.00,1.3201
4989.00,1.3262
4988.00,1.3319
4987.00,1.3374
4986.00,1.3425
4985.00,1.3471
4984.00,1.3513
4983.00,1.3551
4982.00,1.3586
4981.00,1.3615
4980.00,1.3638
4979.00,1.3655
4978.00,1.3667
4977.00,1.3675
4976.00,1.3682
4975.00,1.3687
4974.00,1.3691
4973.00,1.3691
4972.00,1.3685
4971.00,1.3672
4970.00,1.3653
4969.00,1.3630
4968.00,1.3603
4967.00,1.3573
4966.00,1.3540
4965.00,1.3503
4964.00,1.3461
4963.00,1.3413
4962.00,1.3361
4961.00,1.3305
4960.00,1.3243
4959.00,1.3176
4958.00,1.3107
4957.00,1.3036
4956.00,1.2963
4955.00,1.2887
4954.00,1.2806
4953.00,1.2720
4952.00,1.2627
4951.00,1.2527
4950.00,1.2422
4949.00,1.2312
4948.00,1.2196
4947.00,1.2077
4946.00,1.1954
4945.00,1.1828
4944.00,1.1698
4943.00,1.1564
4942.00,1.1425
4941.00,1.1283
4940.00,1.1136
4939.00,1.0984
4938.00,1.0829
4937.00,1.0670
4936.00,1.0509
4935.00,1.0346
4934.00,1.0181
4933.00,1.0016
4932.00,0.9850
4931.00,0.9682
4930.00,0.9514
4929.00,0.9346
4928.00,0.9179
4927.00,0.9014
4926.00,0.8851
4925.00,0.8690
4924.00,0.8533
4923.00,0.8379
4922.00,0.8229
4921.00,0.8085
4920.00,0.7946
4919.00,0.7814
4918.00,0.7689
4917.00,0.7572
4916.00,0.7463
4915.00,0.7363
4914.00,0.7272
4913.00,0.7192
4912.00,0.7121
4911.00,0.7060
4910.00,0.7010
4909.00,0.6972
4908.00,0.6945
4907.00,0.6930
4906.00,0.6928
4905.00,0.6937
4904.00,0.6958
4903.00,0.6990
4902.00,0.7033
4901.00,0.7087
4900.00,0.7152
4899.00,0.7226
4898.00,0.7310
4897.00,0.7403
4896.00,0.7505
4895.00,0.7616
4894.00,0.7734
4893.00,0.7859
4892.00,0.7992
4891.00,0.8130
4890.00,0.8273
4889.00,0.8421
4888.00,0.8573
4887.00,0.8727
4886.00,0.8884
4885.00,0.9043
4884.00,0.9204
4883.00,0.9367
4882.00,0.9531
4881.00,0.9696
4880.00,0.9862
4879.00,1.0029
4878.00,1.0194
4877.00,1.0359
4876.00,1.0521
4875.00,1.0682
4874.00,1.0842
4873.00,1.1000
4872.00,1.1154
4871.00,1.1305
4870.00,1.1451
4869.00,1.1595
4868.00,1.1736
4867.00,1.1875
4866.00,1.2011
4865.00,1.2143
4864.00,1.2270
4863.00,1.2393
4862.00,1.2513
4861.00,1.2631
4860.00,1.2743
4859.00,1.2850
4858.00,1.2951
4857.00,1.3045
4856.00,1.3134
4855.00,1.3218
4854.00,1.3299
4853.00,1.3376
4852.00,1.3449
4851.00,1.3517
4850.00,1.3582
4849.00,1.3641
4848.00,1.3696
4847.00,1.3747
4846.00,1.3794
4845.00,1.3838
4844.00,1.3879
4843.00,1.3915
4842.00,1.3947
4841.00,1.3973
4840.00,1.3994
4839.00,1.4010
4838.00,1.4021
4837.00,1.4029
4836.00,1.4034
4835.00,1.4035
4834.00,1.4033
4833.00,1.4027
4832.00,1.4017
4831.00,1.4001
4830.00,1.3981
4829.00,1.3957
4828.00,1.3931
4827.00,1.3901
4826.00,1.3866
4825.00,1.3825
4824.00,1.3778
4823.00,1.3728
4822.00,1.3675
4821.00,1.3619
4820.00,1.3560
4819.00,1.3496
4818.00,1.3425
4817.00,1.3347
4816.00,1.3263
4815.00,1.3173
4814.00,1.3079
4813.00,1.2982
4812.00,1.2883
4811.00,1.2782
4810.00,1.2676
4809.00,1.2565
4808.00,1.2447
4807.00,1.2323
4806.00,1.2194
4805.00,1.2060
4804.00,1.1921
4803.00,1.1777
4802.00,1.1630
4801.00,1.1479
4800.00,1.1323
4799.00,1.1165
4798.00,1.1002
4797.00,1.0836
4796.00,1.0665
4795.00,1.0490
4794.00,1.0313
4793.00,1.0135
4792.00,0.9956
4791.00,0.9778
4790.00,0.9601
4789.00,0.9425
4788.00,0.9250
4787.00,0.9077
4786.00,0.8906
4785.00,0.8738
4784.00,0.8573
4783.00,0.8412
4782.00,0.8257
4781.00,0.8108
4780.00,0.7965
4779.00,0.7828
4778.00,0.7699
4777.00,0.7578
4776.00,0.7466
4775.00,0.7364
4774.00,0.7271
4773.00,0.7190
4772.00,0.7119
4771.00,0.7060
4770.00,0.7013
4769.00,0.6979
4768.00,0.6956
4767.00,0.6946
4766.00,0.6948
4765.00,0.6964
4764.00,0.6992
4763.00,0.7032
4762.00,0.7084
4761.00,0.7147
4760.00,0.7222
4759.00,0.7307
4758.00,0.7403
4757.00,0.7509
4756.00,0.7624
4755.00,0.7746
4754.00,0.7877
4753.00,0.8014
4752.00,0.8157
4751.00,0.8306
4750.00,0.8460
4749.00,0.8619
4748.00,0.8781
4747.00,0.8946
4746.00,0.9114
4745.00,0.9285
4744.00,0.9458
4743.00,0.9632
4742.00,0.9806
4741.00,0.9981
4740.00,1.0155
4739.00,1.0330
4738.00,1.0503
4737.00,1.0676
4736.00,1.0848
4735.00,1.1017
4734.00,1.1183
4733.00,1.1347
4732.00,1.1507
4731.00,1.1666
4730.00,1.1821
4729.00,1.1973
4728.00,1.2120
4727.00,1.2264
4726.00,1.2402
4725.00,1.2536
4724.00,1.2665
4723.00,1.2791
4722.00,1.2914
4721.00,1.3033
4720.00,1.3147
4719.00,1.3254
4718.00,1.3356
4717.00,1.3453
4716.00,1.3545
4715.00,1.3633
4714.00,1.3717
4713.00,1.3795
4712.00,1.3869
4711.00,1.3939
4710.00,1.4004
4709.00,1.4067
4708.00,1.4126
4707.00,1.4181
4706.00,1.4230
4705.00,1.4273
4704.00,1.4310
4703.00,1.4340
4702.00,1.4366
4701.00,1.4389
4700.00,1.4412
4699.00,1.4434
4698.00,1.4453
4697.00,1.4466
4696.00,1.4473
4695.00,1.4474
4694.00,1.4471
4693.00,1.4464
4692.00,1.4455
4691.00,1.4441
4690.00,1.4421
4689.00,1.4396
4688.00,1.4367
4687.00,1.4333
4686.00,1.4295
4685.00,1.4253
4684.00,1.4207
4683.00,1.4159
4682.00,1.4107
4681.00,1.4050
4680.00,1.3988
4679.00,1.3920
4678.00,1.3846
4677.00,1.3767
4676.00,1.3683
4675.00,1.3595
4674.00,1.3502
4673.00,1.3404
4672.00,1.3302
4671.00,1.3197
4670.00,1.3088
4669.00,1.2974
4668.00,1.2855
4667.00,1.2729
4666.00,1.2596
4665.00,1.2459
4664.00,1.2316
4663.00,1.2169
4662.00,1.2017
4661.00,1.1860
4660.00,1.1698
4659.00,1.1532
4658.00,1.1363
4657.00,1.1190
4656.00,1.1013
4655.00,1.0832
4654.00,1.0648
4653.00,1.0462
4652.00,1.0276
4651.00,1.0089
4650.00,0.9902
4649.00,0.9715
4648.00,0.9528
4647.00,0.9342
4646.00,0.9158
4645.00,0.8977
4644.00,0.8801
4643.00,0.8628
4642.00,0.8462
4641.00,0.8301
4640.00,0.8146
4639.00,0.7999
4638.00,0.7861
4637.00,0.7732
4636.00,0.7612
4635.00,0.7502
4634.00,0.7403
4633.00,0.7316
4632.00,0.7241
4631.00,0.7180
4630.00,0.7132
4629.00,0.7098
4628.00,0.7078
4627.00,0.7070
4626.00,0.7077
4625.00,0.7097
4624.00,0.7131
4623.00,0.7179
4622.00,0.7241
4621.00,0.7315
4620.00,0.7401
4619.00,0.7498
4618.00,0.7605
4617.00,0.7723
4616.00,0.7850
4615.00,0.7985
4614.00,0.8128
4613.00,0.8278
4612.00,0.8434
4611.00,0.8596
4610.00,0.8764
4609.00,0.8935
4608.00,0.9110
4607.00,0.9286
4606.00,0.9464
4605.00,0.9644
4604.00,0.9827
4603.00,1.0012
4602.00,1.0198
4601.00,1.0386
4600.00,1.0572
4599.00,1.0756
4598.00,1.0936
4597.00,1.1113
4596.00,1.1289
4595.00,1.1463
4594.00,1.1636
4593.00,1.1807
4592.00,1.1974
4591.00,1.2136
4590.00,1.2293
4589.00,1.2446
4588.00,1.2596
4587.00,1.2742
4586.00,1.2883
4585.00,1.3021
4584.00,1.3154
4583.00,1.3281
4582.00,1.3402
4581.00,1.3516
4580.00,1.3624
4579.00,1.3726
4578.00,1.3825
4577.00,1.3921
4576.00,1.4016
4575.00,1.4106
4574.00,1.4192
4573.00,1.4270
4572.00,1.4342
4571.00,1.4408
4570.00,1.4470
4569.00,1.4529
4568.00,1.4585
4567.00,1.4634
4566.00,1.4677
4565.00,1.4715
4564.00,1.4749
4563.00,1.4782
4562.00,1.4812
4561.00,1.4839
4560.00,1.4861
4559.00,1.4877
4558.00,1.4887
4557.00,1.4890
4556.00,1.4887
4555.00,1.4879
4554.00,1.4866
4553.00,1.4849
4552.00,1.4828
4551.00,1.4806
4550.00,1.4781
4549.00,1.4752
4548.00,1.4719
4547.00,1.4679
4546.00,1.4634
4545.00,1.4584
4544.00,1.4531
4543.00,1.4476
4542.00,1.4418
4541.00,1.4354
4540.00,1.4284
4539.00,1.4206
4538.00,1.4124
4537.00,1.4039
4536.00,1.3952
4535.00,1.3865
4534.00,1.3776
4533.00,1.3683
4532.00,1.3584
4531.00,1.3479
4530.00,1.3368
4529.00,1.3251
4528.00,1.3128
4527.00,1.3001
4526.00,1.2868
4525.00,1.2731
4524.00,1.2589
4523.00,1.2442
4522.00,1.2289
4521.00,1.2130
4520.00,1.1964
4519.00,1.1791
4518.00,1.1614
4517.00,1.1432
4516.00,1.1246
4515.00,1.1058
4514.00,1.0867
4513.00,1.0673
4512.00,1.0477
4511.00,1.0281
4510.00,1.0085
4509.00,0.9889
4508.00,0.9695
4507.00,0.9503
4506.00,0.9314
4505.00,0.9129
4504.00,0.8948
4503.00,0.8773
4502.00,0.8605
4501.00,0.8444
4500.00,0.8291
4499.00,0.8148
4498.00,0.8015
4497.00,0.7892
4496.00,0.7781
4495.00,0.7682
4494.00,0.7596
4493.00,0.7524
4492.00,0.7466
4491.00,0.7423
4490.00,0.7394
4489.00,0.7380
4488.00,0.7380
4487.00,0.7396
4486.00,0.7427
4485.00,0.7472
4484.00,0.7531
4483.00,0.7603
4482.00,0.7687
4481.00,0.7784
4480.00,0.7893
4479.00,0.8013
4478.00,0.8143
4477.00,0.8282
4476.00,0.8428
4475.00,0.8582
4474.00,0.8743
4473.00,0.8910
4472.00,0.9082
4471.00,0.9258
4470.00,0.9438
4469.00,0.9621
4468.00,0.9807
4467.00,0.9994
4466.00,1.0183
4465.00,1.0373
4464.00,1.0563
4463.00,1.0753
4462.00,1.0943
4461.00,1.1133
4460.00,1.1323
4459.00,1.1512
4458.00,1.1701
4457.00,1.1887
4456.00,1.2071
4455.00,1.2252
4454.00,1.2429
4453.00,1.2603
4452.00,1.2773
4451.00,1.2939
4450.00,1.3099
4449.00,1.3252
4448.00,1.3399
4447.00,1.3541
4446.00,1.3677
4445.00,1.3808
4444.00,1.3934
4443.00,1.4055
4442.00,1.4169
4441.00,1.4277
4440.00,1.4378
4439.00,1.4473
4438.00,1.4562
4437.00,1.4643
4436.00,1.4719
4435.00,1.4789
4434.00,1.4856
4433.00,1.4918
4432.00,1.4976
4431.00,1.5030
4430.00,1.5082
4429.00,1.5131
4428.00,1.5176
4427.00,1.5218
4426.00,1.5256
4425.00,1.5292
4424.00,1.5324
4423.00,1.5352
4422.00,1.5376
4421.00,1.5397
4420.00,1.5416
4419.00,1.5434
4418.00,1.5451
4417.00,1.5462
4416.00,1.5466
4415.00,1.5463
4414.00,1.5454
4413.00,1.5443
4412.00,1.5431
4411.00,1.5418
4410.00,1.5403
4409.00,1.5384
4408.00,1.5359
4407.00,1.5327
4406.00,1.5288
4405.00,1.5246
4404.00,1.5202
4403.00,1.5155
4402.00,1.5106
4401.00,1.5054
4400.00,1.4997
4399.00,1.4936
4398.00,1.4870
4397.00,1.4799
4396.00,1.4722
4395.00,1.4640
4394.00,1.4554
4393.00,1.4463
4392.00,1.4369
4391.00,1.4270
4390.00,1.4166
4389.00,1.4058
4388.00,1.3943
4387.00,1.3820
4386.00,1.3690
4385.00,1.3554
4384.00,1.3414
4383.00,1.3272
4382.00,1.3128
4381.00,1.2981
4380.00,1.2830
4379.00,1.2678
4378.00,1.2524
4377.00,1.2369
4376.00,1.2214
4375.00,1.2059
4374.00,1.1905
4373.00,1.1752
4372.00,1.1601
4371.00,1.1452
4370.00,1.1305
4369.00,1.1158
4368.00,1.1010
4367.00,1.0860
4366.00,1.0710
4365.00,1.0558
4364.00,1.0405
4363.00,1.0248
4362.00,1.0089
4361.00,0.9927
4360.00,0.9762
4359.00,0.9596
4358.00,0.9430
4357.00,0.9265
4356.00,0.9103
4355.00,0.8945
4354.00,0.8794
4353.00,0.8651
4352.00,0.8517
4351.00,0.8396
4350.00,0.8287
4349.00,0.8192
4348.00,0.8111
4347.00,0.8046
4346.00,0.7998
4345.00,0.7968
4344.00,0.7954
4343.00,0.7959
4342.00,0.7980
4341.00,0.8018
4340.00,0.8072
4339.00,0.8142
4338.00,0.8227
4337.00,0.8327
4336.00,0.8439
4335.00,0.8565
4334.00,0.8703
4333.00,0.8852
4332.00,0.9010
4331.00,0.9177
4330.00,0.9351
4329.00,0.9531
4328.00,0.9717
4327.00,0.9907
4326.00,1.0100
4325.00,1.0296
4324.00,1.0492
4323.00,1.0688
4322.00,1.0884
4321.00,1.1079
4320.00,1.1272
4319.00,1.1461
4318.00,1.1647
4317.00,1.1830
4316.00,1.2009
4315.00,1.2187
4314.00,1.2363
4313.00,1.2537
4312.00,1.2709
4311.00,1.2877
4310.00,1.3043
4309.00,1.3204
4308.00,1.3362
4307.00,1.3517
4306.00,1.3668
4305.00,1.3816
4304.00,1.3957
4303.00,1.4093
4302.00,1.4223
4301.00,1.4347
4300.00,1.4466
4299.00,1.4580
4298.00,1.4690
4297.00,1.4798
4296.00,1.4901
4295.00,1.4997
4294.00,1.5087
4293.00,1.5170
4292.00,1.5249
4291.00,1.5323
4290.00,1.5393
4289.00,1.5456
4288.00,1.5513
4287.00,1.5565
4286.00,1.5614
4285.00,1.5662
4284.00,1.5709
4283.00,1.5749
4282.00,1.5783
4281.00,1.5810
4280.00,1.5834
4279.00,1.5855
4278.00,1.5874
4277.00,1.5887
4276.00,1.5894
4275.00,1.5894
4274.00,1.5890
4273.00,1.5885
4272.00,1.5877
4271.00,1.5864
4270.00,1.5844
4269.00,1.5818
4268.00,1.5786
4267.00,1.5751
4266.00,1.5713
4265.00,1.5674
4264.00,1.5631
4263.00,1.5584
4262.00,1.5532
4261.00,1.5475
4260.00,1.5412
4259.00,1.5344
4258.00,1.5268
4257.00,1.5186
4256.00,1.5098
4255.00,1.5006
4254.00,1.4912
4253.00,1.4814
4252.00,1.4710
4251.00,1.4599
4250.00,1.4481
4249.00,1.4357
4248.00,1.4228
4247.00,1.4093
4246.00,1.3952
4245.00,1.3805
4244.00,1.3652
4243.00,1.3494
4242.00,1.3331
4241.00,1.3161
4240.00,1.2985
4239.00,1.2802
4238.00,1.2613
4237.00,1.2418
4236.00,1.2218
4235.00,1.2012
4234.00,1.1803
4233.00,1.1590
4232.00,1.1373
4231.00,1.1152
4230.00,1.0928
4229.00,1.0703
4228.00,1.0477
4227.00,1.0252
4226.00,1.0030
4225.00,0.9810
4224.00,0.9593
4223.00,0.9381
4222.00,0.9175
4221.00,0.8976
4220.00,0.8784
4219.00,0.8600
4218.00,0.8426
4217.00,0.8263
4216.00,0.8112
4215.00,0.7973
4214.00,0.7849
4213.00,0.7738
4212.00,0.7643
4211.00,0.7565
4210.00,0.7503
4209.00,0.7459
4208.00,0.7432
4207.00,0.7423
4206.00,0.7433
4205.00,0.7460
4204.00,0.7505
4203.00,0.7568
4202.00,0.7646
4201.00,0.7741
4200.00,0.7851
4199.00,0.7975
4198.00,0.8113
4197.00,0.8263
4196.00,0.8424
4195.00,0.8594
4194.00,0.8772
4193.00,0.8958
4192.00,0.9151
4191.00,0.9351
4190.00,0.9556
4189.00,0.9765
4188.00,0.9976
4187.00,1.0190
4186.00,1.0406
4185.00,1.0624
4184.00,1.0843
4183.00,1.1062
4182.00,1.1280
4181.00,1.1496
4180.00,1.1711
4179.00,1.1924
4178.00,1.2134
4177.00,1.2341
4176.00,1.2545
4175.00,1.2744
4174.00,1.2938
4173.00,1.3128
4172.00,1.3312
4171.00,1.3492
4170.00,1.3667
4169.00,1.3838
4168.00,1.4004
4167.00,1.4163
4166.00,1.4313
4165.00,1.4457
4164.00,1.4595
4163.00,1.4728
4162.00,1.4857
4161.00,1.4980
4160.00,1.5099
4159.00,1.5211
4158.00,1.5319
4157.00,1.5423
4156.00,1.5520
4155.00,1.5612
4154.00,1.5696
4153.00,1.5776
4152.00,1.5852
4151.00,1.5925
4150.00,1.5993
4149.00,1.6055
4148.00,1.6111
4147.00,1.6161
4146.00,1.6207
4145.00,1.6249
4144.00,1.6289
4143.00,1.6326
4142.00,1.6360
4141.00,1.6389
4140.00,1.6411
4139.00,1.6427
4138.00,1.6437
4137.00,1.6443
4136.00,1.6444
4135.00,1.6442
4134.00,1.6437
4133.00,1.6429
4132.00,1.6416
4131.00,1.6399
4130.00,1.6375
4129.00,1.6346
4128.00,1.6312
4127.00,1.6275
4126.00,1.6237
4125.00,1.6197
4124.00,1.6152
4123.00,1.6100
4122.00,1.6042
4121.00,1.5977
4120.00,1.5907
4119.00,1.5830
4118.00,1.5748
4117.00,1.5662
4116.00,1.5575
4115.00,1.5485
4114.00,1.5391
4113.00,1.5290
4112.00,1.5182
4111.00,1.5067
4110.00,1.4944
4109.00,1.4815
4108.00,1.4678
4107.00,1.4535
4106.00,1.4387
4105.00,1.4234
4104.00,1.4075
4103.00,1.3910
4102.00,1.3738
4101.00,1.3560
4100.00,1.3375
4099.00,1.3183
4098.00,1.2985
4097.00,1.2780
4096.00,1.2569
4095.00,1.2353
4094.00,1.2133
4093.00,1.1909
4092.00,1.1681
4091.00,1.1450
4090.00,1.1217
4089.00,1.0983
4088.00,1.0749
4087.00,1.0516
4086.00,1.0286
4085.00,1.0059
4084.00,0.9837
4083.00,0.9621
4082.00,0.9412
4081.00,0.9211
4080.00,0.9021
4079.00,0.8840
4078.00,0.8671
4077.00,0.8513
4076.00,0.8369
4075.00,0.8238
4074.00,0.8123
4073.00,0.8024
4072.00,0.7942
4071.00,0.7877
4070.00,0.7831
4069.00,0.7803
4068.00,0.7795
4067.00,0.7806
4066.00,0.7836
4065.00,0.7885
4064.00,0.7952
4063.00,0.8035
4062.00,0.8134
4061.00,0.8249
4060.00,0.8379
4059.00,0.8523
4058.00,0.8679
4057.00,0.8847
4056.00,0.9027
4055.00,0.9216
4054.00,0.9414
4053.00,0.9620
4052.00,0.9832
4051.00,1.0050
4050.00,1.0273
4049.00,1.0500
4048.00,1.0728
4047.00,1.0958
4046.00,1.1188
4045.00,1.1419
4044.00,1.1651
4043.00,1.1883
4042.00,1.2114
4041.00,1.2342
4040.00,1.2566
4039.00,1.2786
4038.00,1.3002
4037.00,1.3213
4036.00,1.3419
4035.00,1.3620
4034.00,1.3814
4033.00,1.4000
4032.00,1.4177
4031.00,1.4347
4030.00,1.4510
4029.00,1.4666
4028.00,1.4814
4027.00,1.4955
4026.00,1.5090
4025.00,1.5220
4024.00,1.5346
4023.00,1.5468
4022.00,1.5584
4021.00,1.5695
4020.00,1.5802
4019.00,1.5906
4018.00,1.6005
4017.00,1.6100
4016.00,1.6191
4015.00,1.6278
4014.00,1.6361
4013.00,1.6438
4012.00,1.6510
4011.00,1.6575
4010.00,1.6634
4009.00,1.6690
4008.00,1.6742
4007.00,1.6792
4006.00,1.6838
4005.00,1.6881
4004.00,1.6920
4003.00,1.6955
4002.00,1.6985
4001.00,1.7009
4000.00,1.7029
3999.00,1.7042
3998.00,1.7048
3997.00,1.7050
3996.00,1.7051
3995.00,1.7050
3994.00,1.7046
3993.00,1.7036
3992.00,1.7018
3991.00,1.6994
3990.00,1.6966
3989.00,1.6937
3988.00,1.6905
3987.00,1.6868
3986.00,1.6826
3985.00,1.6776
3984.00,1.6723
3983.00,1.6667
3982.00,1.6608
3981.00,1.6546
3980.00,1.6481
3979.00,1.6413
3978.00,1.6343
3977.00,1.6268
3976.00,1.6186
3975.00,1.6095
3974.00,1.5997
3973.00,1.5892
3972.00,1.5781
3971.00,1.5665
3970.00,1.5544
3969.00,1.5417
3968.00,1.5284
3967.00,1.5146
3966.00,1.5002
3965.00,1.4849
3964.00,1.4687
3963.00,1.4517
3962.00,1.4340
3961.00,1.4156
3960.00,1.3964
3959.00,1.3764
3958.00,1.3557
3957.00,1.3342
3956.00,1.3122
3955.00,1.2897
3954.00,1.2667
3953.00,1.2431
3952.00,1.2188
3951.00,1.1938
3950.00,1.1683
3949.00,1.1427
3948.00,1.1172
3947.00,1.0920
3946.00,1.0668
3945.00,1.0417
3944.00,1.0170
3943.00,0.9928
3942.00,0.9694
3941.00,0.9467
3940.00,0.9248
3939.00,0.9040
3938.00,0.8847
3937.00,0.8669
3936.00,0.8507
3935.00,0.8359
3934.00,0.8226
3933.00,0.8109
3932.00,0.8006
3931.00,0.7923
3930.00,0.7863
3929.00,0.7827
3928.00,0.7811
3927.00,0.7815
3926.00,0.7841
3925.00,0.7891
3924.00,0.7962
3923.00,0.8051
3922.00,0.8159
3921.00,0.8285
3920.00,0.8429
3919.00,0.8590
3918.00,0.8766
3917.00,0.8960
3916.00,0.9166
3915.00,0.9379
3914.00,0.9595
3913.00,0.9812
3912.00,1.0033
3911.00,1.0259
3910.00,1.0490
3909.00,1.0722
3908.00,1.0952
3907.00,1.1176
3906.00,1.1398
3905.00,1.1629
3904.00,1.1875
3903.00,1.2130
3902.00,1.2384
3901.00,1.2635
3900.00,1.2884
3899.00,1.3130
3898.00,1.3372
3897.00,1.3604
3896.00,1.3825
3895.00,1.4031
3894.00,1.4217
3893.00,1.4391
3892.00,1.4569
3891.00,1.4758
3890.00,1.4952
3889.00,1.5133
3888.00,1.5293
3887.00,1.5443
3886.00,1.5599
3885.00,1.5759
3884.00,1.5909
3883.00,1.6037
3882.00,1.6153
3881.00,1.6273
3880.00,1.6403
3879.00,1.6534
3878.00,1.6646
3877.00,1.6733
3876.00,1.6804
3875.00,1.6880
3874.00,1.6961
3873.00,1.7034
3872.00,1.7091
3871.00,1.7146
3870.00,1.7214
3869.00,1.7288
3868.00,1.7351
3867.00,1.7397
3866.00,1.7434
3865.00,1.7471
3864.00,1.7510
3863.00,1.7546
3862.00,1.7573
3861.00,1.7585
3860.00,1.7584
3859.00,1.7580
3858.00,1.7583
3857.00,1.7590
3856.00,1.7589
3855.00,1.7583
3854.00,1.7581
3853.00,1.7572
3852.00,1.7550
3851.00,1.7521
3850.00,1.7494
3849.00,1.7471
3848.00,1.7448
3847.00,1.7417
3846.00,1.7375
3845.00,1.7326
3844.00,1.7276
3843.00,1.7222
3842.00,1.7158
3841.00,1.7080
3840.00,1.6991
3839.00,1.6897
3838.00,1.6800
3837.00,1.6697
3836.00,1.6590
3835.00,1.6480
3834.00,1.6368
3833.00,1.6259
3832.00,1.6151
3831.00,1.6041
3830.00,1.5918
3829.00,1.5773
3828.00,1.5612
3827.00,1.5448
3826.00,1.5291
3825.00,1.5135
3824.00,1.4963
3823.00,1.4768
3822.00,1.4556
3821.00,1.4339
3820.00,1.4122
3819.00,1.3901
3818.00,1.3674
3817.00,1.3439
3816.00,1.3193
3815.00,1.2932
3814.00,1.2663
3813.00,1.2398
3812.00,1.2144
3811.00,1.1898
3810.00,1.1646
3809.00,1.1378
3808.00,1.1094
3807.00,1.0807
3806.00,1.0528
3805.00,1.0261
3804.00,1.0001
3803.00,0.9744
3802.00,0.9494
3801.00,0.9249
3800.00,0.9014
3799.00,0.8797
3798.00,0.8603
3797.00,0.8435
3796.00,0.8290
3795.00,0.8164
3794.00,0.8057
3793.00,0.7971
3792.00,0.7909
3791.00,0.7873
3790.00,0.7863
3789.00,0.7877
3788.00,0.7912
3787.00,0.7965
3786.00,0.8040
3785.00,0.8142
3784.00,0.8271
3783.00,0.8419
3782.00,0.8578
3781.00,0.8751
3780.00,0.8947
3779.00,0.9166
3778.00,0.9397
3777.00,0.9632
3776.00,0.9871
3775.00,1.0118
3774.00,1.0372
3773.00,1.0623
3772.00,1.0872
3771.00,1.1128
3770.00,1.1402
3769.00,1.1686
3768.00,1.1966
3767.00,1.2236
3766.00,1.2504
3765.00,1.2779
3764.00,1.3054
3763.00,1.3316
3762.00,1.3560
3761.00,1.3792
3760.00,1.4019
3759.00,1.4245
3758.00,1.4468
3757.00,1.4687
3756.00,1.4893
3755.00,1.5083
3754.00,1.5256
3753.00,1.5418
3752.00,1.5574
3751.00,1.5734
3750.00,1.5905
3749.00,1.6087
3748.00,1.6259
3747.00,1.6400
3746.00,1.6527
3745.00,1.6667
3744.00,1.6820
3743.00,1.6961
3742.00,1.7072
3741.00,1.7162
3740.00,1.7241
3739.00,1.7310
3738.00,1.7363
3737.00,1.7405
3736.00,1.7446
3735.00,1.7483
3734.00,1.7514
3733.00,1.7542
3732.00,1.7573
3731.00,1.7605
3730.00,1.7632
3729.00,1.7655
3728.00,1.7680
3727.00,1.7713
3726.00,1.7750
3725.00,1.7787
3724.00,1.7821
3723.00,1.7858
3722.00,1.7899
3721.00,1.7945
3720.00,1.7989
3719.00,1.8032
3718.00,1.8072
3717.00,1.8100
3716.00,1.8106
3715.00,1.8091
3714.00,1.8069
3713.00,1.8048
3712.00,1.8023
3711.00,1.7976
3710.00,1.7901
3709.00,1.7810
3708.00,1.7719
3707.00,1.7635
3706.00,1.7555
3705.00,1.7476
3704.00,1.7391
3703.00,1.7300
3702.00,1.7210
3701.00,1.7122
3700.00,1.7034
3699.00,1.6940
3698.00,1.6839
3697.00,1.6734
3696.00,1.6622
3695.00,1.6506
3694.00,1.6389
3693.00,1.6270
3692.00,1.6146
3691.00,1.6009
3690.00,1.5862
3689.00,1.5705
3688.00,1.5538
3687.00,1.5364
3686.00,1.5189
3685.00,1.5018
3684.00,1.4848
3683.00,1.4671
3682.00,1.4481
3681.00,1.4286
3680.00,1.4096
3679.00,1.3907
3678.00,1.3702
3677.00,1.3480
3676.00,1.3253
3675.00,1.3031
3674.00,1.2827
3673.00,1.2641
3672.00,1.2465
3671.00,1.2298
3670.00,1.2139
3669.00,1.1986
3668.00,1.1844
3667.00,1.1716
3666.00,1.1604
3665.00,1.1508
3664.00,1.1421
3663.00,1.1341
3662.00,1.1271
3661.00,1.1214
3660.00,1.1171
3659.00,1.1135
3658.00,1.1106
3657.00,1.1088
3656.00,1.1084
3655.00,1.1093
3654.00,1.1115
3653.00,1.1147
3652.00,1.1190
3651.00,1.1245
3650.00,1.1314
3649.00,1.1394
3648.00,1.1484
3647.00,1.1585
3646.00,1.1695
3645.00,1.1815
3644.00,1.1942
3643.00,1.2077
3642.00,1.2220
3641.00,1.2365
3640.00,1.2512
3639.00,1.2661
3638.00,1.2812
3637.00,1.2959
3636.00,1.3098
3635.00,1.3233
3634.00,1.3375
3633.00,1.3525
3632.00,1.3672
3631.00,1.3813
3630.00,1.3966
3629.00,1.4146
3628.00,1.4344
3627.00,1.4536
3626.00,1.4711
3625.00,1.4879
3624.00,1.5048
3623.00,1.5221
3622.00,1.5393
3621.00,1.5564
3620.00,1.5743
3619.00,1.5933
3618.00,1.6128
3617.00,1.6317
3616.00,1.6489
3615.00,1.6639
3614.00,1.6772
3613.00,1.6899
3612.00,1.7031
3611.00,1.7167
3610.00,1.7302
3609.00,1.7429
3608.00,1.7545
3607.00,1.7649
3606.00,1.7746
3605.00,1.7840
3604.00,1.7929
3603.00,1.8016
3602.00,1.8099
3601.00,1.8180
3600.00,1.8263
3599.00,1.8348
3598.00,1.8434
3597.00,1.8516
3596.00,1.8593
3595.00,1.8664
3594.00,1.8732
3593.00,1.8799
3592.00,1.8871
3591.00,1.8941
3590.00,1.9006
3589.00,1.9065
3588.00,1.9123
3587.00,1.9183
3586.00,1.9241
3585.00,1.9294
3584.00,1.9337
3583.00,1.9371
3582.00,1.9401
3581.00,1.9432
3580.00,1.9462
3579.00,1.9485
3578.00,1.9497
3577.00,1.9499
3576.00,1.9492
3575.00,1.9479
3574.00,1.9459
3573.00,1.9436
3572.00,1.9416
3571.00,1.9399
3570.00,1.9380
3569.00,1.9355
3568.00,1.9323
3567.00,1.9285
3566.00,1.9241
3565.00,1.9192
3564.00,1.9138
3563.00,1.9077
3562.00,1.9013
3561.00,1.8947
3560.00,1.8881
3559.00,1.8816
3558.00,1.8749
3557.00,1.8680
3556.00,1.8606
3555.00,1.8523
3554.00,1.8431
3553.00,1.8332
3552.00,1.8230
3551.00,1.8127
3550.00,1.8023
3549.00,1.7915
3548.00,1.7804
3547.00,1.7688
3546.00,1.7568
3545.00,1.7442
3544.00,1.7310
3543.00,1.7171
3542.00,1.7028
3541.00,1.6884
3540.00,1.6738
3539.00,1.6589
3538.00,1.6434
3537.00,1.6272
3536.00,1.6103
3535.00,1.5927
3534.00,1.5744
3533.00,1.5557
3532.00,1.5366
3531.00,1.5170
3530.00,1.4969
3529.00,1.4763
3528.00,1.4554
3527.00,1.4342
3526.00,1.4129
3525.00,1.3914
3524.00,1.3699
3523.00,1.3482
3522.00,1.3266
3521.00,1.3052
3520.00,1.2844
3519.00,1.2642
3518.00,1.2449
3517.00,1.2264
3516.00,1.2088
3515.00,1.1923
3514.00,1.1772
3513.00,1.1635
3512.00,1.1512
3511.00,1.1403
3510.00,1.1312
3509.00,1.1239
3508.00,1.1187
3507.00,1.1155
3506.00,1.1142
3505.00,1.1149
3504.00,1.1176
3503.00,1.1224
3502.00,1.1292
3501.00,1.1380
3500.00,1.1485
3499.00,1.1606
3498.00,1.1743
3497.00,1.1894
3496.00,1.2059
3495.00,1.2236
3494.00,1.2424
3493.00,1.2621
3492.00,1.2825
3491.00,1.3036
3490.00,1.3251
3489.00,1.3471
3488.00,1.3696
3487.00,1.3925
3486.00,1.4155
3485.00,1.4385
3484.00,1.4614
3483.00,1.4842
3482.00,1.5070
3481.00,1.5295
3480.00,1.5517
3479.00,1.5736
3478.00,1.5949
3477.00,1.6158
3476.00,1.6363
3475.00,1.6564
3474.00,1.6760
3473.00,1.6951
3472.00,1.7135
3471.00,1.7311
3470.00,1.7478
3469.00,1.7639
3468.00,1.7794
3467.00,1.7945
3466.00,1.8091
3465.00,1.8233
3464.00,1.8369
3463.00,1.8499
3462.00,1.8619
3461.00,1.8734
3460.00,1.8845
3459.00,1.8956
3458.00,1.9060
3457.00,1.9157
3456.00,1.9247
3455.00,1.9330
3454.00,1.9407
3453.00,1.9475
3452.00,1.9536
3451.00,1.9594
3450.00,1.9652
3449.00,1.9710
3448.00,1.9766
3447.00,1.9817
3446.00,1.9862
3445.00,1.9901
3444.00,1.9936
3443.00,1.9968
3442.00,1.9997
3441.00,2.0020
3440.00,2.0038
3439.00,2.0052
3438.00,2.0065
3437.00,2.0076
3436.00,2.0085
3435.00,2.0084
3434.00,2.0073
3433.00,2.0052
3432.00,2.0025
3431.00,1.9996
3430.00,1.9967
3429.00,1.9936
3428.00,1.9901
3427.00,1.9860
3426.00,1.9815
3425.00,1.9766
3424.00,1.9713
3423.00,1.9654
3422.00,1.9587
3421.00,1.9515
3420.00,1.9441
3419.00,1.9366
3418.00,1.9285
3417.00,1.9193
3416.00,1.9093
3415.00,1.8987
3414.00,1.8880
3413.00,1.8772
3412.00,1.8659
3411.00,1.8540
3410.00,1.8412
3409.00,1.8277
3408.00,1.8137
3407.00,1.7993
3406.00,1.7845
3405.00,1.7693
3404.00,1.7535
3403.00,1.7369
3402.00,1.7195
3401.00,1.7014
3400.00,1.6823
3399.00,1.6624
3398.00,1.6417
3397.00,1.6204
3396.00,1.5985
3395.00,1.5758
3394.00,1.5521
3393.00,1.5278
3392.00,1.5029
3391.00,1.4774
3390.00,1.4515
3389.00,1.4252
3388.00,1.3988
3387.00,1.3721
3386.00,1.3454
3385.00,1.3188
3384.00,1.2924
3383.00,1.2664
3382.00,1.2412
3381.00,1.2168
3380.00,1.1934
3379.00,1.1713
3378.00,1.1504
3377.00,1.1309
3376.00,1.1130
3375.00,1.0969
3374.00,1.0828
3373.00,1.0708
3372.00,1.0612
3371.00,1.0542
3370.00,1.0497
3369.00,1.0479
3368.00,1.0485
3367.00,1.0516
3366.00,1.0572
3365.00,1.0653
3364.00,1.0757
3363.00,1.0885
3362.00,1.1033
3361.00,1.1200
3360.00,1.1385
3359.00,1.1585
3358.00,1.1797
3357.00,1.2022
3356.00,1.2257
3355.00,1.2501
3354.00,1.2753
3353.00,1.3011
3352.00,1.3273
3351.00,1.3539
3350.00,1.3805
3349.00,1.4071
3348.00,1.4335
3347.00,1.4598
3346.00,1.4860
3345.00,1.5121
3344.00,1.5378
3343.00,1.5632
3342.00,1.5879
3341.00,1.6121
3340.00,1.6356
3339.00,1.6584
3338.00,1.6805
3337.00,1.7017
3336.00,1.7224
3335.00,1.7426
3334.00,1.7621
3333.00,1.7808
3332.00,1.7986
3331.00,1.8155
3330.00,1.8318
3329.00,1.8475
3328.00,1.8628
3327.00,1.8774
3326.00,1.8913
3325.00,1.9042
3324.00,1.9163
3323.00,1.9279
3322.00,1.9390
3321.00,1.9495
3320.00,1.9594
3319.00,1.9688
3318.00,1.9781
3317.00,1.9872
3316.00,1.9961
3315.00,2.0043
3314.00,2.0116
3313.00,2.0179
3312.00,2.0237
3311.00,2.0292
3310.00,2.0344
3309.00,2.0396
3308.00,2.0447
3307.00,2.0496
3306.00,2.0539
3305.00,2.0573
3304.00,2.0595
3303.00,2.0608
3302.00,2.0616
3301.00,2.0624
3300.00,2.0636
3299.00,2.0649
3298.00,2.0659
3297.00,2.0660
3296.00,2.0652
3295.00,2.0639
3294.00,2.0626
3293.00,2.0612
3292.00,2.0594
3291.00,2.0564
3290.00,2.0524
3289.00,2.0478
3288.00,2.0433
3287.00,2.0388
3286.00,2.0342
3285.00,2.0290
3284.00,2.0230
3283.00,2.0163
3282.00,2.0093
3281.00,2.0019
3280.00,1.9940
3279.00,1.9854
3278.00,1.9762
3277.00,1.9661
3276.00,1.9554
3275.00,1.9441
3274.00,1.9322
3273.00,1.9200
3272.00,1.9074
3271.00,1.8943
3270.00,1.8807
3269.00,1.8665
3268.00,1.8515
3267.00,1.8358
3266.00,1.8193
3265.00,1.8020
3264.00,1.7841
3263.00,1.7656
3262.00,1.7465
3261.00,1.7269
3260.00,1.7065
3259.00,1.6852
3258.00,1.6628
3257.00,1.6394
3256.00,1.6150
3255.00,1.5899
3254.00,1.5644
3253.00,1.5384
3252.00,1.5121
3251.00,1.4852
3250.00,1.4581
3249.00,1.4308
3248.00,1.4035
3247.00,1.3763
3246.00,1.3494
3245.00,1.3230
3244.00,1.2973
3243.00,1.2725
3242.00,1.2488
3241.00,1.2263
3240.00,1.2053
3239.00,1.1860
3238.00,1.1685
3237.00,1.1529
3236.00,1.1395
3235.00,1.1284
3234.00,1.1198
3233.00,1.1138
3232.00,1.1105
3231.00,1.1100
3230.00,1.1122
3229.00,1.1172
3228.00,1.1248
3227.00,1.1350
3226.00,1.1476
3225.00,1.1626
3224.00,1.1797
3223.00,1.1987
3222.00,1.2195
3221.00,1.2418
3220.00,1.2656
3219.00,1.2907
3218.00,1.3168
3217.00,1.3436
3216.00,1.3712
3215.00,1.3994
3214.00,1.4282
3213.00,1.4572
3212.00,1.4863
3211.00,1.5150
3210.00,1.5434
3209.00,1.5714
3208.00,1.5990
3207.00,1.6259
3206.00,1.6517
3205.00,1.6764
3204.00,1.6998
3203.00,1.7219
3202.00,1.7427
3201.00,1.7620
3200.00,1.7799
3199.00,1.7966
3198.00,1.8125
3197.00,1.8283
3196.00,1.8445
3195.00,1.8608
3194.00,1.8772
3193.00,1.8932
3192.00,1.9089
3191.00,1.9244
3190.00,1.9397
3189.00,1.9547
3188.00,1.9694
3187.00,1.9835
3186.00,1.9971
3185.00,2.0102
3184.00,2.0228
3183.00,2.0349
3182.00,2.0462
3181.00,2.0563
3180.00,2.0655
3179.00,2.0742
3178.00,2.0827
3177.00,2.0910
3176.00,2.0991
3175.00,2.1074
3174.00,2.1156
3173.00,2.1233
3172.00,2.1303
3171.00,2.1368
3170.00,2.1435
3169.00,2.1507
3168.00,2.1583
3167.00,2.1660
3166.00,2.1731
3165.00,2.1786
3164.00,2.1817
3163.00,2.1820
3162.00,2.1803
3161.00,2.1774
3160.00,2.1739
3159.00,2.1697
3158.00,2.1656
3157.00,2.1619
3156.00,2.1591
3155.00,2.1566
3154.00,2.1537
3153.00,2.1501
3152.00,2.1457
3151.00,2.1409
3150.00,2.1360
3149.00,2.1312
3148.00,2.1264
3147.00,2.1213
3146.00,2.1158
3145.00,2.1096
3144.00,2.1030
3143.00,2.0960
3142.00,2.0887
3141.00,2.0810
3140.00,2.0726
3139.00,2.0635
3138.00,2.0537
3137.00,2.0436
3136.00,2.0329
3135.00,2.0216
3134.00,2.0097
3133.00,1.9972
3132.00,1.9840
3131.00,1.9702
3130.00,1.9556
3129.00,1.9402
3128.00,1.9240
3127.00,1.9072
3126.00,1.8901
3125.00,1.8730
3124.00,1.8555
3123.00,1.8372
3122.00,1.8180
3121.00,1.7979
3120.00,1.7772
3119.00,1.7557
3118.00,1.7335
3117.00,1.7107
3116.00,1.6875
3115.00,1.6637
3114.00,1.6395
3113.00,1.6149
3112.00,1.5899
3111.00,1.5648
3110.00,1.5395
3109.00,1.5143
3108.00,1.4893
3107.00,1.4647
3106.00,1.4406
3105.00,1.4174
3104.00,1.3950
3103.00,1.3739
3102.00,1.3540
3101.00,1.3357
3100.00,1.3190
3099.00,1.3041
3098.00,1.2912
3097.00,1.2804
3096.00,1.2720
3095.00,1.2660
3094.00,1.2623
3093.00,1.2610
3092.00,1.2621
3091.00,1.2656
3090.00,1.2717
3089.00,1.2803
3088.00,1.2912
3087.00,1.3042
3086.00,1.3192
3085.00,1.3359
3084.00,1.3540
3083.00,1.3734
3082.00,1.3942
3081.00,1.4161
3080.00,1.4392
3079.00,1.4630
3078.00,1.4875
3077.00,1.5125
3076.00,1.5379
3075.00,1.5636
3074.00,1.5894
3073.00,1.6151
3072.00,1.6407
3071.00,1.6663
3070.00,1.6918
3069.00,1.7172
3068.00,1.7420
3067.00,1.7660
3066.00,1.7893
3065.00,1.8119
3064.00,1.8340
3063.00,1.8557
3062.00,1.8768
3061.00,1.8977
3060.00,1.9182
3059.00,1.9383
3058.00,1.9576
3057.00,1.9759
3056.00,1.9932
3055.00,2.0099
3054.00,2.0262
3053.00,2.0416
3052.00,2.0560
3051.00,2.0692
3050.00,2.0819
3049.00,2.0948
3048.00,2.1081
3047.00,2.1212
3046.00,2.1331
3045.00,2.1438
3044.00,2.1538
3043.00,2.1632
3042.00,2.1719
3041.00,2.1801
3040.00,2.1879
3039.00,2.1961
3038.00,2.2045
3037.00,2.2125
3036.00,2.2194
3035.00,2.2250
3034.00,2.2296
3033.00,2.2337
3032.00,2.2374
3031.00,2.2408
3030.00,2.2439
3029.00,2.2472
3028.00,2.2511
3027.00,2.2553
3026.00,2.2593
3025.00,2.2626
3024.00,2.2647
3023.00,2.2655
3022.00,2.2650
3021.00,2.2638
3020.00,2.2624
3019.00,2.2611
3018.00,2.2603
3017.00,2.2603
3016.00,2.2610
3015.00,2.2616
3014.00,2.2614
3013.00,2.2605
3012.00,2.2598
3011.00,2.2603
3010.00,2.2619
3009.00,2.2632
3008.00,2.2634
3007.00,2.2626
3006.00,2.2613
3005.00,2.2602
3004.00,2.2593
3003.00,2.2581
3002.00,2.2561
3001.00,2.2526
3000.00,2.2473
2999.00,2.2404
2998.00,2.2327
2997.00,2.2249
2996.00,2.2167
2995.00,2.2071
2994.00,2.1957
2993.00,2.1829
2992.00,2.1689
2991.00,2.1540
2990.00,2.1383
2989.00,2.1222
2988.00,2.1058
2987.00,2.0887
2986.00,2.0708
2985.00,2.0522
2984.00,2.0331
2983.00,2.0138
2982.00,1.9947
2981.00,1.9761
2980.00,1.9583
2979.00,1.9415
2978.00,1.9261
2977.00,1.9125
2976.00,1.9010
2975.00,1.8920
2974.00,1.8855
2973.00,1.8815
2972.00,1.8803
2971.00,1.8821
2970.00,1.8865
2969.00,1.8932
2968.00,1.9017
2967.00,1.9118
2966.00,1.9229
2965.00,1.9350
2964.00,1.9476
2963.00,1.9603
2962.00,1.9730
2961.00,1.9859
2960.00,1.9998
2959.00,2.0151
2958.00,2.0317
2957.00,2.0496
2956.00,2.0687
2955.00,2.0896
2954.00,2.1126
2953.00,2.1375
2952.00,2.1635
2951.00,2.1900
2950.00,2.2169
2949.00,2.2447
2948.00,2.2732
2947.00,2.3007
2946.00,2.3248
2945.00,2.3426
2944.00,2.3524
2943.00,2.3527
2942.00,2.3427
2941.00,2.3229
2940.00,2.2954
2939.00,2.2636
2938.00,2.2304
2937.00,2.1974
2936.00,2.1650
2935.00,2.1332
2934.00,2.1020
2933.00,2.0717
2932.00,2.0426
2931.00,2.0150
2930.00,1.9890
2929.00,1.9647
2928.00,1.9422
2927.00,1.9219
2926.00,1.9038
2925.00,1.8880
2924.00,1.8744
2923.00,1.8630
2922.00,1.8539
2921.00,1.8474
2920.00,1.8440
2919.00,1.8438
2918.00,1.8469
2917.00,1.8528
2916.00,1.8612
2915.00,1.8716
2914.00,1.8835
2913.00,1.8969
2912.00,1.9115
2911.00,1.9273
2910.00,1.9439
2909.00,1.9609
2908.00,1.9779
2907.00,1.9946
2906.00,2.0110
2905.00,2.0271
2904.00,2.0433
2903.00,2.0596
2902.00,2.0761
2901.00,2.0926
2900.00,2.1090
2899.00,2.1249
2898.00,2.1403
2897.00,2.1551
2896.00,2.1692
2895.00,2.1825
2894.00,2.1948
2893.00,2.2065
2892.00,2.2179
2891.00,2.2293
2890.00,2.2410
2889.00,2.2531
2888.00,2.2654
2887.00,2.2771
2886.00,2.2878
2885.00,2.2974
2884.00,2.3058
2883.00,2.3134
2882.00,2.3207
2881.00,2.3279
2880.00,2.3349
2879.00,2.3418
2878.00,2.3485
2877.00,2.3550
2876.00,2.3611
2875.00,2.3669
2874.00,2.3726
2873.00,2.3785
2872.00,2.3843
2871.00,2.3891
2870.00,2.3927
2869.00,2.3953
2868.00,2.3969
2867.00,2.3971
2866.00,2.3960
2865.00,2.3942
2864.00,2.3917
2863.00,2.3885
2862.00,2.3846
2861.00,2.3806
2860.00,2.3771
2859.00,2.3736
2858.00,2.3693
2857.00,2.3635
2856.00,2.3567
2855.00,2.3495
2854.00,2.3422
2853.00,2.3350
2852.00,2.3276
2851.00,2.3200
2850.00,2.3123
2849.00,2.3045
2848.00,2.2962
2847.00,2.2872
2846.00,2.2774
2845.00,2.2670
2844.00,2.2565
2843.00,2.2458
2842.00,2.2343
2841.00,2.2219
2840.00,2.2084
2839.00,2.1945
2838.00,2.1804
2837.00,2.1659
2836.00,2.1506
2835.00,2.1341
2834.00,2.1163
2833.00,2.0976
2832.00,2.0787
2831.00,2.0596
2830.00,2.0401
2829.00,2.0197
2828.00,1.9977
2827.00,1.9739
2826.00,1.9486
2825.00,1.9219
2824.00,1.8939
2823.00,1.8647
2822.00,1.8345
2821.00,1.8031
2820.00,1.7704
2819.00,1.7364
2818.00,1.7011
2817.00,1.6646
2816.00,1.6271
2815.00,1.5887
2814.00,1.5498
2813.00,1.5109
2812.00,1.4723
2811.00,1.4341
2810.00,1.3967
2809.00,1.3605
2808.00,1.3260
2807.00,1.2939
2806.00,1.2645
2805.00,1.2384
2804.00,1.2158
2803.00,1.1971
2802.00,1.1824
2801.00,1.1717
2800.00,1.1652
2799.00,1.1630
2798.00,1.1649
2797.00,1.1709
2796.00,1.1811
2795.00,1.1954
2794.00,1.2135
2793.00,1.2351
2792.00,1.2600
2791.00,1.2877
2790.00,1.3178
2789.00,1.3500
2788.00,1.3838
2787.00,1.4188
2786.00,1.4548
2785.00,1.4914
2784.00,1.5286
2783.00,1.5659
2782.00,1.6033
2781.00,1.6405
2780.00,1.6772
2779.00,1.7132
2778.00,1.7481
2777.00,1.7823
2776.00,1.8156
2775.00,1.8480
2774.00,1.8791
2773.00,1.9087
2772.00,1.9370
2771.00,1.9641
2770.00,1.9902
2769.00,2.0152
2768.00,2.0391
2767.00,2.0619
2766.00,2.0837
2765.00,2.1049
2764.00,2.1252
2763.00,2.1444
2762.00,2.1621
2761.00,2.1787
2760.00,2.1945
2759.00,2.2097
2758.00,2.2243
2757.00,2.2384
2756.00,2.2522
2755.00,2.2651
2754.00,2.2766
2753.00,2.2865
2752.00,2.2958
2751.00,2.3054
2750.00,2.3155
2749.00,2.3252
2748.00,2.3340
2747.00,2.3423
2746.00,2.3507
2745.00,2.3591
2744.00,2.3669
2743.00,2.3733
2742.00,2.3783
2741.00,2.3826
2740.00,2.3869
2739.00,2.3914
2738.00,2.3955
2737.00,2.3987
2736.00,2.4012
2735.00,2.4035
2734.00,2.4062
2733.00,2.4088
2732.00,2.4108
2731.00,2.4120
2730.00,2.4121
2729.00,2.4112
2728.00,2.4091
2727.00,2.4064
2726.00,2.4038
2725.00,2.4015
2724.00,2.3991
2723.00,2.3958
2722.00,2.3916
2721.00,2.3871
2720.00,2.3825
2719.00,2.3777
2718.00,2.3727
2717.00,2.3672
2716.00,2.3607
2715.00,2.3530
2714.00,2.3445
2713.00,2.3354
2712.00,2.3257
2711.00,2.3154
2710.00,2.3047
2709.00,2.2937
2708.00,2.2825
2707.00,2.2710
2706.00,2.2590
2705.00,2.2460
2704.00,2.2318
2703.00,2.2161
2702.00,2.1994
2701.00,2.1825
2700.00,2.1654
2699.00,2.1477
2698.00,2.1290
2697.00,2.1088
2696.00,2.0871
2695.00,2.0642
2694.00,2.0405
2693.00,2.0162
2692.00,1.9909
2691.00,1.9640
2690.00,1.9354
2689.00,1.9051
2688.00,1.8735
2687.00,1.8403
2686.00,1.8058
2685.00,1.7699
2684.00,1.7330
2683.00,1.6951
2682.00,1.6564
2681.00,1.6170
2680.00,1.5770
2679.00,1.5368
2678.00,1.4966
2677.00,1.4566
2676.00,1.4174
2675.00,1.3792
2674.00,1.3424
2673.00,1.3071
2672.00,1.2738
2671.00,1.2427
2670.00,1.2141
2669.00,1.1883
2668.00,1.1660
2667.00,1.1478
2666.00,1.1345
2665.00,1.1266
2664.00,1.1244
2663.00,1.1281
2662.00,1.1375
2661.00,1.1524
2660.00,1.1724
2659.00,1.1968
2658.00,1.2251
2657.00,1.2568
2656.00,1.2913
2655.00,1.3280
2654.00,1.3664
2653.00,1.4062
2652.00,1.4470
2651.00,1.4884
2650.00,1.5303
2649.00,1.5723
2648.00,1.6143
2647.00,1.6561
2646.00,1.6975
2645.00,1.7382
2644.00,1.7781
2643.00,1.8171
2642.00,1.8550
2641.00,1.8916
2640.00,1.9267
2639.00,1.9603
2638.00,1.9925
2637.00,2.0235
2636.00,2.0535
2635.00,2.0827
2634.00,2.1107
2633.00,2.1371
2632.00,2.1613
2631.00,2.1836
2630.00,2.2040
2629.00,2.2223
2628.00,2.2381
2627.00,2.2514
2626.00,2.2631
2625.00,2.2746
2624.00,2.2865
2623.00,2.2990
2622.00,2.3116
2621.00,2.3241
2620.00,2.3365
2619.00,2.3490
2618.00,2.3614
2617.00,2.3736
2616.00,2.3854
2615.00,2.3967
2614.00,2.4073
2613.00,2.4170
2612.00,2.4260
2611.00,2.4344
2610.00,2.4424
2609.00,2.4496
2608.00,2.4558
2607.00,2.4610
2606.00,2.4660
2605.00,2.4709
2604.00,2.4758
2603.00,2.4811
2602.00,2.4870
2601.00,2.4930
2600.00,2.4980
2599.00,2.5012
2598.00,2.5029
2597.00,2.5039
2596.00,2.5046
2595.00,2.5045
2594.00,2.5036
2593.00,2.5021
2592.00,2.5005
2591.00,2.4993
2590.00,2.4984
2589.00,2.4975
2588.00,2.4960
2587.00,2.4939
2586.00,2.4911
2585.00,2.4878
2584.00,2.4841
2583.00,2.4796
2582.00,2.4742
2581.00,2.4680
2580.00,2.4614
2579.00,2.4547
2578.00,2.4480
2577.00,2.4407
2576.00,2.4321
2575.00,2.4222
2574.00,2.4121
2573.00,2.4027
2572.00,2.3938
2571.00,2.3843
2570.00,2.3734
2569.00,2.3609
2568.00,2.3472
2567.00,2.3327
2566.00,2.3177
2565.00,2.3026
2564.00,2.2874
2563.00,2.2718
2562.00,2.2556
2561.00,2.2381
2560.00,2.2191
2559.00,2.1985
2558.00,2.1762
2557.00,2.1527
2556.00,2.1280
2555.00,2.1024
2554.00,2.0759
2553.00,2.0484
2552.00,2.0194
2551.00,1.9887
2550.00,1.9564
2549.00,1.9225
2548.00,1.8870
2547.00,1.8495
2546.00,1.8100
2545.00,1.7688
2544.00,1.7260
2543.00,1.6817
2542.00,1.6362
2541.00,1.5900
2540.00,1.5436
2539.00,1.4974
2538.00,1.4521
2537.00,1.4082
2536.00,1.3662
2535.00,1.3266
2534.00,1.2900
2533.00,1.2570
2532.00,1.2280
2531.00,1.2037
2530.00,1.1843
2529.00,1.1704
2528.00,1.1623
2527.00,1.1602
2526.00,1.1642
2525.00,1.1743
2524.00,1.1901
2523.00,1.2112
2522.00,1.2371
2521.00,1.2671
2520.00,1.3007
2519.00,1.3372
2518.00,1.3760
2517.00,1.4166
2516.00,1.4589
2515.00,1.5024
2514.00,1.5467
2513.00,1.5912
2512.00,1.6355
2511.00,1.6796
2510.00,1.7234
2509.00,1.7666
2508.00,1.8090
2507.00,1.8504
2506.00,1.8904
2505.00,1.9290
2504.00,1.9663
2503.00,2.0018
2502.00,2.0354
2501.00,2.0670
2500.00,2.0965
2499.00,2.1244
2498.00,2.1514
2497.00,2.1776
2496.00,2.2032
2495.00,2.2279
2494.00,2.2514
2493.00,2.2735
2492.00,2.2939
2491.00,2.3130
2490.00,2.3313
2489.00,2.3493
2488.00,2.3668
2487.00,2.3831
2486.00,2.3978
2485.00,2.4116
2484.00,2.4251
2483.00,2.4387
2482.00,2.4522
2481.00,2.4652
2480.00,2.4772
2479.00,2.4877
2478.00,2.4969
2477.00,2.5058
2476.00,2.5152
2475.00,2.5254
2474.00,2.5353
2473.00,2.5443
2472.00,2.5523
2471.00,2.5600
2470.00,2.5680
2469.00,2.5759
2468.00,2.5824
2467.00,2.5867
2466.00,2.5898
2465.00,2.5931
2464.00,2.5975
2463.00,2.6021
2462.00,2.6053
2461.00,2.6062
2460.00,2.6049
2459.00,2.6025
2458.00,2.6005
2457.00,2.6001
2456.00,2.6015
2455.00,2.6039
2454.00,2.6053
2453.00,2.6043
2452.00,2.6010
2451.00,2.5970
2450.00,2.5935
2449.00,2.5904
2448.00,2.5868
2447.00,2.5822
2446.00,2.5777
2445.00,2.5740
2444.00,2.5708
2443.00,2.5666
2442.00,2.5601
2441.00,2.5514
2440.00,2.5418
2439.00,2.5329
2438.00,2.5251
2437.00,2.5175
2436.00,2.5088
2435.00,2.4988
2434.00,2.4881
2433.00,2.4771
2432.00,2.4655
2431.00,2.4525
2430.00,2.4380
2429.00,2.4225
2428.00,2.4066
2427.00,2.3907
2426.00,2.3748
2425.00,2.3587
2424.00,2.3422
2423.00,2.3246
2422.00,2.3060
2421.00,2.2865
2420.00,2.2664
2419.00,2.2458
2418.00,2.2244
2417.00,2.2018
2416.00,2.1778
2415.00,2.1528
2414.00,2.1271
2413.00,2.1013
2412.00,2.0752
2411.00,2.0484
2410.00,2.0204
2409.00,1.9908
2408.00,1.9594
2407.00,1.9260
2406.00,1.8907
2405.00,1.8534
2404.00,1.8139
2403.00,1.7725
2402.00,1.7297
2401.00,1.6860
2400.00,1.6416
2399.00,1.5969
2398.00,1.5525
2397.00,1.5090
2396.00,1.4673
2395.00,1.4283
2394.00,1.3925
2393.00,1.3610
2392.00,1.3344
2391.00,1.3134
2390.00,1.2986
2389.00,1.2902
2388.00,1.2886
2387.00,1.2934
2386.00,1.3041
2385.00,1.3197
2384.00,1.3389
2383.00,1.3596
2382.00,1.3800
2381.00,1.3983
2380.00,1.4129
2379.00,1.4228
2378.00,1.4279
2377.00,1.4296
2376.00,1.4292
2375.00,1.4285
2374.00,1.4292
2373.00,1.4333
2372.00,1.4428
2371.00,1.4569
2370.00,1.4746
2369.00,1.4908
2368.00,1.5143
2367.00,1.5227
2366.00,1.5520
2365.00,1.5329
2364.00,1.6351
2363.00,2.3228
2362.00,2.1506
2361.00,2.2645
2360.00,2.2402
2359.00,2.2959
2358.00,2.3055
2357.00,2.3381
2356.00,2.3592
2355.00,2.3818
2354.00,2.4040
2353.00,2.4262
2352.00,2.4476
2351.00,2.4670
2350.00,2.4840
2349.00,2.4995
2348.00,2.5141
2347.00,2.5282
2346.00,2.5415
2345.00,2.5541
2344.00,2.5657
2343.00,2.5768
2342.00,2.5879
2341.00,2.5993
2340.00,2.6105
2339.00,2.6207
2338.00,2.6295
2337.00,2.6368
2336.00,2.6424
2335.00,2.6466
2334.00,2.6508
2333.00,2.6561
2332.00,2.6621
2331.00,2.6674
2330.00,2.6719
2329.00,2.6762
2328.00,2.6804
2327.00,2.6839
2326.00,2.6867
2325.00,2.6894
2324.00,2.6922
2323.00,2.6934
2322.00,2.6961
2321.00,2.6927
2320.00,2.6982
2319.00,2.6847
2318.00,2.7032
2317.00,2.6473
2316.00,2.4737
2315.00,2.5107
2314.00,2.5153
2313.00,2.5335
2312.00,2.5405
2311.00,2.5527
2310.00,2.5590
2309.00,2.5651
2308.00,2.5663
2307.00,2.5671
2306.00,2.5659
2305.00,2.5649
2304.00,2.5609
2303.00,2.5542
2302.00,2.5444
2301.00,2.5357
2300.00,2.5303
2299.00,2.5318
2298.00,2.5394
2297.00,2.5548
2296.00,2.5757
2295.00,2.6025
2294.00,2.6305
2293.00,2.6559
2292.00,2.6721
2291.00,2.6761
2290.00,2.6674
2289.00,2.6499
2288.00,2.6277
2287.00,2.6044
2286.00,2.5808
2285.00,2.5548
2284.00,2.5234
2283.00,2.4849
2282.00,2.4410
2281.00,2.3940
2280.00,2.3460
2279.00,2.2966
2278.00,2.2451
2277.00,2.1912
2276.00,2.1355
2275.00,2.0786
2274.00,2.0214
2273.00,1.9652
2272.00,1.9111
2271.00,1.8613
2270.00,1.8187
2269.00,1.7870
2268.00,1.7700
2267.00,1.7712
2266.00,1.7932
2265.00,1.8373
2264.00,1.9034
2263.00,1.9902
2262.00,2.0960
2261.00,2.2193
2260.00,2.3583
2259.00,2.5115
2258.00,2.6792
2257.00,2.8643
2256.00,3.0719
2255.00,3.3017
2254.00,3.5293
2253.00,3.6817
2252.00,3.6739
2251.00,3.5389
2250.00,3.3677
2249.00,3.2059
2248.00,3.0651
2247.00,2.9441
2246.00,2.8375
2245.00,2.7396
2244.00,2.6447
2243.00,2.5488
2242.00,2.4505
2241.00,2.3498
2240.00,2.2474
2239.00,2.1440
2238.00,2.0406
2237.00,1.9391
2236.00,1.8423
2235.00,1.7534
2234.00,1.6753
2233.00,1.6111
2232.00,1.5628
2231.00,1.5315
2230.00,1.5174
2229.00,1.5191
2228.00,1.5343
2227.00,1.5600
2226.00,1.5937
2225.00,1.6337
2224.00,1.6787
2223.00,1.7279
2222.00,1.7800
2221.00,1.8336
2220.00,1.8878
2219.00,1.9418
2218.00,1.9950
2217.00,2.0469
2216.00,2.0968
2215.00,2.1445
2214.00,2.1899
2213.00,2.2330
2212.00,2.2737
2211.00,2.3117
2210.00,2.3467
2209.00,2.3788
2208.00,2.4088
2207.00,2.4374
2206.00,2.4650
2205.00,2.4912
2204.00,2.5150
2203.00,2.5354
2202.00,2.5526
2201.00,2.5682
2200.00,2.5838
2199.00,2.6001
2198.00,2.6161
2197.00,2.6305
2196.00,2.6433
2195.00,2.6559
2194.00,2.6696
2193.00,2.6838
2192.00,2.6972
2191.00,2.7090
2190.00,2.7194
2189.00,2.7290
2188.00,2.7382
2187.00,2.7475
2186.00,2.7571
2185.00,2.7662
2184.00,2.7739
2183.00,2.7801
2182.00,2.7860
2181.00,2.7918
2180.00,2.7969
2179.00,2.8003
2178.00,2.8024
2177.00,2.8042
2176.00,2.8064
2175.00,2.8086
2174.00,2.8100
2173.00,2.8099
2172.00,2.8091
2171.00,2.8084
2170.00,2.8080
2169.00,2.8080
2168.00,2.8082
2167.00,2.8082
2166.00,2.8074
2165.00,2.8056
2164.00,2.8032
2163.00,2.8017
2162.00,2.8010
2161.00,2.7994
2160.00,2.7946
2159.00,2.7862
2158.00,2.7757
2157.00,2.7655
2156.00,2.7567
2155.00,2.7496
2154.00,2.7434
2153.00,2.7362
2152.00,2.7268
2151.00,2.7159
2150.00,2.7049
2149.00,2.6944
2148.00,2.6829
2147.00,2.6691
2146.00,2.6535
2145.00,2.6380
2144.00,2.6235
2143.00,2.6098
2142.00,2.5958
2141.00,2.5805
2140.00,2.5629
2139.00,2.5427
2138.00,2.5207
2137.00,2.4980
2136.00,2.4754
2135.00,2.4526
2134.00,2.4292
2133.00,2.4046
2132.00,2.3784
2131.00,2.3500
2130.00,2.3192
2129.00,2.2858
2128.00,2.2504
2127.00,2.2137
2126.00,2.1756
2125.00,2.1358
2124.00,2.0934
2123.00,2.0479
2122.00,1.9994
2121.00,1.9484
2120.00,1.8955
2119.00,1.8408
2118.00,1.7848
2117.00,1.7281
2116.00,1.6716
2115.00,1.6164
2114.00,1.5634
2113.00,1.5137
2112.00,1.4683
2111.00,1.4280
2110.00,1.3936
2109.00,1.3660
2108.00,1.3460
2107.00,1.3341
2106.00,1.3309
2105.00,1.3365
2104.00,1.3509
2103.00,1.3733
2102.00,1.4028
2101.00,1.4386
2100.00,1.4795
2099.00,1.5243
2098.00,1.5723
2097.00,1.6228
2096.00,1.6751
2095.00,1.7286
2094.00,1.7825
2093.00,1.8362
2092.00,1.8893
2091.00,1.9413
2090.00,1.9923
2089.00,2.0419
2088.00,2.0900
2087.00,2.1359
2086.00,2.1791
2085.00,2.2195
2084.00,2.2577
2083.00,2.2946
2082.00,2.3309
2081.00,2.3667
2080.00,2.4007
2079.00,2.4317
2078.00,2.4595
2077.00,2.4851
2076.00,2.5095
2075.00,2.5326
2074.00,2.5542
2073.00,2.5746
2072.00,2.5941
2071.00,2.6130
2070.00,2.6316
2069.00,2.6506
2068.00,2.6703
2067.00,2.6898
2066.00,2.7071
2065.00,2.7205
2064.00,2.7306
2063.00,2.7400
2062.00,2.7508
2061.00,2.7635
2060.00,2.7766
2059.00,2.7885
2058.00,2.7994
2057.00,2.8100
2056.00,2.8204
2055.00,2.8300
2054.00,2.8383
2053.00,2.8457
2052.00,2.8527
2051.00,2.8600
2050.00,2.8687
2049.00,2.8788
2048.00,2.8891
2047.00,2.8975
2046.00,2.9030
2045.00,2.9062
2044.00,2.9075
2043.00,2.9075
2042.00,2.9073
2041.00,2.9087
2040.00,2.9122
2039.00,2.9168
2038.00,2.9209
2037.00,2.9237
2036.00,2.9249
2035.00,2.9243
2034.00,2.9224
2033.00,2.9193
2032.00,2.9155
2031.00,2.9115
2030.00,2.9080
2029.00,2.9048
2028.00,2.9013
2027.00,2.8972
2026.00,2.8939
2025.00,2.8927
2024.00,2.8920
2023.00,2.8891
2022.00,2.8836
2021.00,2.8771
2020.00,2.8705
2019.00,2.8624
2018.00,2.8514
2017.00,2.8384
2016.00,2.8265
2015.00,2.8172
2014.00,2.8096
2013.00,2.8013
2012.00,2.7906
2011.00,2.7779
2010.00,2.7646
2009.00,2.7518
2008.00,2.7387
2007.00,2.7246
2006.00,2.7095
2005.00,2.6937
2004.00,2.6770
2003.00,2.6584
2002.00,2.6381
2001.00,2.6169
2000.00,2.5954
1999.00,2.5736
1998.00,2.5515
1997.00,2.5287
1996.00,2.5043
1995.00,2.4770
1994.00,2.4467
1993.00,2.4146
1992.00,2.3814
1991.00,2.3468
1990.00,2.3104
1989.00,2.2720
1988.00,2.2319
1987.00,2.1898
1986.00,2.1450
1985.00,2.0974
1984.00,2.0472
1983.00,1.9949
1982.00,1.9407
1981.00,1.8850
1980.00,1.8286
1979.00,1.7722
1978.00,1.7165
1977.00,1.6627
1976.00,1.6115
1975.00,1.5641
1974.00,1.5218
1973.00,1.4857
1972.00,1.4569
1971.00,1.4356
1970.00,1.4221
1969.00,1.4170
1968.00,1.4212
1967.00,1.4352
1966.00,1.4582
1965.00,1.4889
1964.00,1.5261
1963.00,1.5686
1962.00,1.6154
1961.00,1.6656
1960.00,1.7181
1959.00,1.7724
1958.00,1.8278
1957.00,1.8838
1956.00,1.9397
1955.00,1.9951
1954.00,2.0490
1953.00,2.1008
1952.00,2.1503
1951.00,2.1975
1950.00,2.2421
1949.00,2.2843
1948.00,2.3249
1947.00,2.3645
1946.00,2.4020
1945.00,2.4362
1944.00,2.4674
1943.00,2.4973
1942.00,2.5262
1941.00,2.5535
1940.00,2.5797
1939.00,2.6059
1938.00,2.6326
1937.00,2.6591
1936.00,2.6839
1935.00,2.7064
1934.00,2.7270
1933.00,2.7462
1932.00,2.7647
1931.00,2.7816
1930.00,2.7966
1929.00,2.8105
1928.00,2.8251
1927.00,2.8405
1926.00,2.8544
1925.00,2.8659
1924.00,2.8779
1923.00,2.8932
1922.00,2.9101
1921.00,2.9239
1920.00,2.9327
1919.00,2.9386
1918.00,2.9442
1917.00,2.9499
1916.00,2.9569
1915.00,2.9665
1914.00,2.9774
1913.00,2.9856
1912.00,2.9893
1911.00,2.9906
1910.00,2.9934
1909.00,2.9987
1908.00,3.0049
1907.00,3.0095
1906.00,3.0114
1905.00,3.0114
1904.00,3.0131
1903.00,3.0187
1902.00,3.0268
1901.00,3.0336
1900.00,3.0367
1899.00,3.0374
1898.00,3.0368
1897.00,3.0348
1896.00,3.0318
1895.00,3.0297
1894.00,3.0296
1893.00,3.0299
1892.00,3.0282
1891.00,3.0241
1890.00,3.0194
1889.00,3.0146
1888.00,3.0093
1887.00,3.0035
1886.00,2.9978
1885.00,2.9926
1884.00,2.9867
1883.00,2.9787
1882.00,2.9685
1881.00,2.9587
1880.00,2.9516
1879.00,2.9464
1878.00,2.9396
1877.00,2.9288
1876.00,2.9153
1875.00,2.9018
1874.00,2.8894
1873.00,2.8771
1872.00,2.8624
1871.00,2.8430
1870.00,2.8205
1869.00,2.7990
1868.00,2.7815
1867.00,2.7676
1866.00,2.7547
1865.00,2.7395
1864.00,2.7210
1863.00,2.6997
1862.00,2.6754
1861.00,2.6483
1860.00,2.6198
1859.00,2.5915
1858.00,2.5631
1857.00,2.5328
1856.00,2.5000
1855.00,2.4648
1854.00,2.4278
1853.00,2.3893
1852.00,2.3491
1851.00,2.3071
1850.00,2.2635
1849.00,2.2193
1848.00,2.1745
1847.00,2.1263
1846.00,2.0710
1845.00,2.0089
1844.00,1.9436
1843.00,1.8795
1842.00,1.8208
1841.00,1.7685
1840.00,1.7212
1839.00,1.6786
1838.00,1.6420
1837.00,1.6132
1836.00,1.5933
1835.00,1.5824
1834.00,1.5792
1833.00,1.5806
1832.00,1.5861
1831.00,1.6019
1830.00,1.6342
1829.00,1.6796
1828.00,1.7294
1827.00,1.7773
1826.00,1.8235
1825.00,1.8713
1824.00,1.9215
1823.00,1.9728
1822.00,2.0250
1821.00,2.0787
1820.00,2.1333
1819.00,2.1868
1818.00,2.2383
1817.00,2.2882
1816.00,2.3370
1815.00,2.3833
1814.00,2.4255
1813.00,2.4640
1812.00,2.5010
1811.00,2.5381
1810.00,2.5744
1809.00,2.6074
1808.00,2.6360
1807.00,2.6626
1806.00,2.6916
1805.00,2.7242
1804.00,2.7553
1803.00,2.7790
1802.00,2.7951
1801.00,2.8089
1800.00,2.8250
1799.00,2.8452
1798.00,2.8699
1797.00,2.8978
1796.00,2.9239
1795.00,2.9419
1794.00,2.9515
1793.00,2.9597
1792.00,2.9718
1791.00,2.9873
1790.00,3.0047
1789.00,3.0232
1788.00,3.0402
1787.00,3.0531
1786.00,3.0616
1785.00,3.0669
1784.00,3.0700
1783.00,3.0730
1782.00,3.0788
1781.00,3.0868
1780.00,3.0925
1779.00,3.0938
1778.00,3.0957
1777.00,3.1026
1776.00,3.1110
1775.00,3.1122
1774.00,3.1059
1773.00,3.1043
1772.00,3.1148
1771.00,3.1324
1770.00,3.1489
1769.00,3.1586
1768.00,3.1598
1767.00,3.1572
1766.00,3.1572
1765.00,3.1594
1764.00,3.1577
1763.00,3.1508
1762.00,3.1447
1761.00,3.1438
1760.00,3.1458
1759.00,3.1446
1758.00,3.1379
1757.00,3.1287
1756.00,3.1202
1755.00,3.1144
1754.00,3.1109
1753.00,3.1047
1752.00,3.0918
1751.00,3.0735
1750.00,3.0556
1749.00,3.0439
1748.00,3.0372
1747.00,3.0296
1746.00,3.0166
1745.00,2.9989
1744.00,2.9805
1743.00,2.9630
1742.00,2.9447
1741.00,2.9253
1740.00,2.9102
1739.00,2.9056
1738.00,2.9118
1737.00,2.9172
1736.00,2.9043
1735.00,2.8732
1734.00,2.8344
1733.00,2.7933
1732.00,2.7557
1731.00,2.7247
1730.00,2.6991
1729.00,2.6778
1728.00,2.6609
1727.00,2.6504
1726.00,2.6483
1725.00,2.6568
1724.00,2.6784
1723.00,2.7156
1722.00,2.7685
1721.00,2.8322
1720.00,2.8991
1719.00,2.9727
1718.00,3.0661
1717.00,3.1815
1716.00,3.3062
1715.00,3.4240
1714.00,3.5218
1713.00,3.5945
1712.00,3.6514
1711.00,3.7130
1710.00,3.7930
1709.00,3.8776
1708.00,3.9287
1707.00,3.9345
1706.00,3.9056
1705.00,3.8366
1704.00,3.7392
1703.00,3.6347
1702.00,3.5224
1701.00,3.4070
1700.00,3.3052
1699.00,3.2290
1698.00,3.1735
1697.00,3.1187
1696.00,3.0487
1695.00,2.9658
1694.00,2.8865
1693.00,2.8168
1692.00,2.7502
1691.00,2.6812
1690.00,2.6122
1689.00,2.5484
1688.00,2.4892
1687.00,2.4233
1686.00,2.3374
1685.00,2.2478
1684.00,2.1727
1683.00,2.1124
1682.00,2.0698
1681.00,2.0451
1680.00,2.0339
1679.00,2.0329
1678.00,2.0365
1677.00,2.0396
1676.00,2.0449
1675.00,2.0591
1674.00,2.0834
1673.00,2.1144
1672.00,2.1485
1671.00,2.1883
1670.00,2.2400
1669.00,2.3003
1668.00,2.3600
1667.00,2.4145
1666.00,2.4613
1665.00,2.5000
1664.00,2.5372
1663.00,2.5814
1662.00,2.6317
1661.00,2.6810
1660.00,2.7255
1659.00,2.7678
1658.00,2.8143
1657.00,2.8654
1656.00,2.9048
1655.00,2.9136
1654.00,2.9203
1653.00,2.9445
1652.00,2.9660
1651.00,2.9832
1650.00,2.9995
1649.00,3.0133
1648.00,3.0328
1647.00,3.0617
1646.00,3.0862
1645.00,3.0977
1644.00,3.1050
1643.00,3.1149
1642.00,3.1269
1641.00,3.1393
1640.00,3.1510
1639.00,3.1595
1638.00,3.1620
1637.00,3.1690
1636.00,3.1928
1635.00,3.2222
1634.00,3.2405
1633.00,3.2479
1632.00,3.2495
1631.00,3.2464
1630.00,3.2402
1629.00,3.2365
1628.00,3.2391
1627.00,3.2458
1626.00,3.2524
1625.00,3.2587
1624.00,3.2674
1623.00,3.2752
1622.00,3.2764
1621.00,3.2751
1620.00,3.2770
1619.00,3.2789
1618.00,3.2787
1617.00,3.2785
1616.00,3.2738
1615.00,3.2634
1614.00,3.2557
1613.00,3.2549
1612.00,3.2564
1611.00,3.2538
1610.00,3.2466
1609.00,3.2415
1608.00,3.2425
1607.00,3.2448
1606.00,3.2414
1605.00,3.2317
1604.00,3.2211
1603.00,3.2152
1602.00,3.2148
1601.00,3.2161
1600.00,3.2135
1599.00,3.2050
1598.00,3.1942
1597.00,3.1862
1596.00,3.1814
1595.00,3.1756
1594.00,3.1656
1593.00,3.1522
1592.00,3.1372
1591.00,3.1207
1590.00,3.1029
1589.00,3.0849
1588.00,3.0663
1587.00,3.0445
1586.00,3.0192
1585.00,2.9943
1584.00,2.9733
1583.00,2.9549
1582.00,2.9363
1581.00,2.9179
1580.00,2.9009
1579.00,2.8802
1578.00,2.8490
1577.00,2.8099
1576.00,2.7707
1575.00,2.7317
1574.00,2.7013
1573.00,2.6710
1572.00,2.6464
1571.00,2.6179
1570.00,2.5744
1569.00,2.5307
1568.00,2.4859
1567.00,2.4472
1566.00,2.4056
1565.00,2.3705
1564.00,2.3251
1563.00,2.3131
1562.00,2.3157
1561.00,2.2614
1560.00,2.2007
1559.00,2.1728
1558.00,2.1659
1557.00,2.1619
1556.00,2.1665
1555.00,2.1766
1554.00,2.1917
1553.00,2.2109
1552.00,2.2333
1551.00,2.2587
1550.00,2.2892
1549.00,2.3266
1548.00,2.3684
1547.00,2.4096
1546.00,2.4465
1545.00,2.4809
1544.00,2.5139
1543.00,2.5412
1542.00,2.5612
1541.00,2.5921
1540.00,2.6453
1539.00,2.7015
1538.00,2.7479
1537.00,2.7865
1536.00,2.8164
1535.00,2.8401
1534.00,2.8690
1533.00,2.9067
1532.00,2.9445
1531.00,2.9779
1530.00,3.0083
1529.00,3.0366
1528.00,3.0623
1527.00,3.0858
1526.00,3.1092
1525.00,3.1326
1524.00,3.1516
1523.00,3.1638
1522.00,3.1746
1521.00,3.1852
1520.00,3.1924
1519.00,3.1980
1518.00,3.2067
1517.00,3.2234
1516.00,3.2484
1515.00,3.2772
1514.00,3.3003
1513.00,3.3077
1512.00,3.3039
1511.00,3.3044
1510.00,3.3166
1509.00,3.3268
1508.00,3.3304
1507.00,3.3371
1506.00,3.3404
1505.00,3.3445
1504.00,3.3620
1503.00,3.3874
1502.00,3.4063
1501.00,3.4114
1500.00,3.4058
1499.00,3.3969
1498.00,3.3902
1497.00,3.3901
1496.00,3.4008
1495.00,3.4237
1494.00,3.4509
1493.00,3.4674
1492.00,3.4662
1491.00,3.4565
1490.00,3.4500
1489.00,3.4486
1488.00,3.4520
1487.00,3.4603
1486.00,3.4687
1485.00,3.4709
1484.00,3.4685
1483.00,3.4729
1482.00,3.4924
1481.00,3.5177
1480.00,3.5268
1479.00,3.5106
1478.00,3.4840
1477.00,3.4656
1476.00,3.4597
1475.00,3.4550
1474.00,3.4401
1473.00,3.4167
1472.00,3.3927
1471.00,3.3774
1470.00,3.3776
1469.00,3.3897
1468.00,3.4016
1467.00,3.4043
1466.00,3.4020
1465.00,3.4050
1464.00,3.4157
1463.00,3.4313
1462.00,3.4530
1461.00,3.4835
1460.00,3.5195
1459.00,3.5546
1458.00,3.5911
1457.00,3.6291
1456.00,3.6475
1455.00,3.6325
1454.00,3.6046
1453.00,3.5874
1452.00,3.5872
1451.00,3.6041
1450.00,3.6367
1449.00,3.6809
1448.00,3.7233
1447.00,3.7445
1446.00,3.7372
1445.00,3.7123
1444.00,3.6819
1443.00,3.6530
1442.00,3.6326
1441.00,3.6259
1440.00,3.6281
1439.00,3.6287
1438.00,3.6246
1437.00,3.6260
1436.00,3.6370
1435.00,3.6413
1434.00,3.6242
1433.00,3.5939
1432.00,3.5658
1431.00,3.5469
1430.00,3.5382
1429.00,3.5423
1428.00,3.5644
1427.00,3.6013
1426.00,3.6345
1425.00,3.6455
1424.00,3.6404
1423.00,3.6432
1422.00,3.6612
1421.00,3.6740
1420.00,3.6571
1419.00,3.6106
1418.00,3.5578
1417.00,3.5204
1416.00,3.5019
1415.00,3.4932
1414.00,3.4848
1413.00,3.4711
1412.00,3.4505
1411.00,3.4242
1410.00,3.3963
1409.00,3.3729
1408.00,3.3579
1407.00,3.3491
1406.00,3.3394
1405.00,3.3228
1404.00,3.2988
1403.00,3.2713
1402.00,3.2438
1401.00,3.2173
1400.00,3.1940
1399.00,3.1765
1398.00,3.1633
1397.00,3.1509
1396.00,3.1383
1395.00,3.1270
1394.00,3.1179
1393.00,3.1123
1392.00,3.1155
1391.00,3.1318
1390.00,3.1573
1389.00,3.1818
1388.00,3.1992
1387.00,3.2152
1386.00,3.2415
1385.00,3.2835
1384.00,3.3385
1383.00,3.4016
1382.00,3.4694
1381.00,3.5358
1380.00,3.5935
1379.00,3.6435
1378.00,3.6946
1377.00,3.7488
1376.00,3.7926
1375.00,3.7953
1374.00,3.7295
1373.00,3.6130
1372.00,3.4892
1371.00,3.3833
1370.00,3.2983
1369.00,3.2301
1368.00,3.1767
1367.00,3.1410
1366.00,3.1255
1365.00,3.1278
1364.00,3.1409
1363.00,3.1576
1362.00,3.1743
1361.00,3.1910
1360.00,3.2088
1359.00,3.2278
1358.00,3.2487
1357.00,3.2745
1356.00,3.3064
1355.00,3.3403
1354.00,3.3699
1353.00,3.3944
1352.00,3.4190
1351.00,3.4461
1350.00,3.4700
1349.00,3.4814
1348.00,3.4797
1347.00,3.4767
1346.00,3.4840
1345.00,3.5017
1344.00,3.5222
1343.00,3.5413
1342.00,3.5595
1341.00,3.5736
1340.00,3.5753
1339.00,3.5632
1338.00,3.5488
1337.00,3.5429
1336.00,3.5449
1335.00,3.5470
1334.00,3.5460
1333.00,3.5519
1332.00,3.5772
1331.00,3.6182
1330.00,3.6489
1329.00,3.6489
1328.00,3.6310
1327.00,3.6151
1326.00,3.6055
1325.00,3.5978
1324.00,3.5940
1323.00,3.6020
1322.00,3.6192
1321.00,3.6332
1320.00,3.6424
1319.00,3.6587
1318.00,3.6873
1317.00,3.7100
1316.00,3.7031
1315.00,3.6783
1314.00,3.6670
1313.00,3.6767
1312.00,3.6815
1311.00,3.6591
1310.00,3.6273
1309.00,3.6115
1308.00,3.6129
1307.00,3.6191
1306.00,3.6207
1305.00,3.6182
1304.00,3.6094
1303.00,3.5882
1302.00,3.5607
1301.00,3.5400
1300.00,3.5292
1299.00,3.5192
1298.00,3.5005
1297.00,3.4739
1296.00,3.4472
1295.00,3.4258
1294.00,3.4108
1293.00,3.4018
1292.00,3.3979
1291.00,3.3966
1290.00,3.3940
1289.00,3.3854
1288.00,3.3668
1287.00,3.3369
1286.00,3.2996
1285.00,3.2653
1284.00,3.2424
1283.00,3.2308
1282.00,3.2224
1281.00,3.2067
1280.00,3.1787
1279.00,3.1420
1278.00,3.1055
1277.00,3.0762
1276.00,3.0547
1275.00,3.0348
1274.00,3.0087
1273.00,2.9728
1272.00,2.9289
1271.00,2.8801
1270.00,2.8293
1269.00,2.7784
1268.00,2.7291
1267.00,2.6812
1266.00,2.6323
1265.00,2.5799
1264.00,2.5241
1263.00,2.4680
1262.00,2.4150
1261.00,2.3677
1260.00,2.3286
1259.00,2.3009
1258.00,2.2871
1257.00,2.2884
1256.00,2.3041
1255.00,2.3326
1254.00,2.3719
1253.00,2.4199
1252.00,2.4740
1251.00,2.5319
1250.00,2.5917
1249.00,2.6523
1248.00,2.7129
1247.00,2.7728
1246.00,2.8315
1245.00,2.8888
1244.00,2.9449
1243.00,2.9993
1242.00,3.0514
1241.00,3.1013
1240.00,3.1499
1239.00,3.1969
1238.00,3.2402
1237.00,3.2801
1236.00,3.3190
1235.00,3.3584
1234.00,3.3947
1233.00,3.4234
1232.00,3.4464
1231.00,3.4708
1230.00,3.5028
1229.00,3.5424
1228.00,3.5825
1227.00,3.6151
1226.00,3.6366
1225.00,3.6488
1224.00,3.6518
1223.00,3.6407
1222.00,3.6132
1221.00,3.5780
1220.00,3.5523
1219.00,3.5518
1218.00,3.5817
1217.00,3.6341
1216.00,3.6893
1215.00,3.7215
1214.00,3.7178
1213.00,3.6950
1212.00,3.6771
1211.00,3.6721
1210.00,3.6745
1209.00,3.6779
1208.00,3.6824
1207.00,3.6985
1206.00,3.7411
1205.00,3.8086
1204.00,3.8691
1203.00,3.8812
1202.00,3.8523
1201.00,3.8219
1200.00,3.8035
1199.00,3.7845
1198.00,3.7638
1197.00,3.7579
1196.00,3.7680
1195.00,3.7783
1194.00,3.7838
1193.00,3.8009
1192.00,3.8450
1191.00,3.8972
1190.00,3.9043
1189.00,3.8522
1188.00,3.7924
1187.00,3.7670
1186.00,3.7728
1185.00,3.7766
1184.00,3.7522
1183.00,3.7115
1182.00,3.6910
1181.00,3.7163
1180.00,3.7901
1179.00,3.8850
1178.00,3.9417
1177.00,3.9278
1176.00,3.8840
1175.00,3.8552
1174.00,3.8475
1173.00,3.8430
1172.00,3.8298
1171.00,3.8144
1170.00,3.8035
1169.00,3.8055
1168.00,3.8339
1167.00,3.8821
1166.00,3.9017
1165.00,3.8601
1164.00,3.7906
1163.00,3.7311
1162.00,3.6997
1161.00,3.6914
1160.00,3.6823
1159.00,3.6505
1158.00,3.6019
1157.00,3.5650
1156.00,3.5615
1155.00,3.5888
1154.00,3.6201
1153.00,3.6276
1152.00,3.6110
1151.00,3.5882
1150.00,3.5658
1149.00,3.5361
1148.00,3.4967
1147.00,3.4571
1146.00,3.4244
1145.00,3.3938
1144.00,3.3571
1143.00,3.3151
1142.00,3.2770
1141.00,3.2471
1140.00,3.2201
1139.00,3.1875
1138.00,3.1438
1137.00,3.0897
1136.00,3.0316
1135.00,2.9780
1134.00,2.9339
1133.00,2.8989
1132.00,2.8705
1131.00,2.8476
1130.00,2.8324
1129.00,2.8280
1128.00,2.8364
1127.00,2.8587
1126.00,2.8952
1125.00,2.9453
1124.00,3.0062
1123.00,3.0706
1122.00,3.1274
1121.00,3.1669
1120.00,3.1856
1119.00,3.1835
1118.00,3.1643
1117.00,3.1373
1116.00,3.1131
1115.00,3.0979
1114.00,3.0940
1113.00,3.1048
1112.00,3.1338
1111.00,3.1790
1110.00,3.2321
1109.00,3.2858
1108.00,3.3432
1107.00,3.4165
1106.00,3.5046
1105.00,3.5732
1104.00,3.5917
1103.00,3.5805
1102.00,3.5616
1101.00,3.5418
1100.00,3.5416
1099.00,3.5839
1098.00,3.6646
1097.00,3.7315
1096.00,3.7234
1095.00,3.6673
1094.00,3.6295
1093.00,3.6319
1092.00,3.6563
1091.00,3.6765
1090.00,3.6939
1089.00,3.7317
1088.00,3.7974
1087.00,3.8720
1086.00,3.9348
1085.00,3.9732
1084.00,3.9773
1083.00,3.9644
1082.00,3.9737
1081.00,3.9831
1080.00,3.9551
1079.00,3.9609
1078.00,4.0573
1077.00,4.2401
1076.00,4.3806
1075.00,4.4018
1074.00,4.3955
1073.00,4.3453
1072.00,4.2451
1071.00,4.0885
1070.00,3.9473
1069.00,3.8639
1068.00,3.8528
1067.00,3.9109
1066.00,4.0183
1065.00,4.1365
1064.00,4.1177
1063.00,3.9662
1062.00,3.8209
1061.00,3.7143
1060.00,3.6711
1059.00,3.7134
1058.00,3.8476
1057.00,4.0305
1056.00,4.1038
1055.00,4.0129
1054.00,3.9479
1053.00,3.9742
1052.00,4.0640
1051.00,4.1119
1050.00,4.0539
1049.00,3.9722
1048.00,3.9414
1047.00,4.0071
1046.00,4.1608
1045.00,4.2800
1044.00,4.2761
1043.00,4.2431
1042.00,4.2840
1041.00,4.3829
1040.00,4.3334
1039.00,4.1227
1038.00,3.9562
1037.00,3.8869
1036.00,3.9159
1035.00,4.0421
1034.00,4.2618
1033.00,4.5226
1032.00,4.5391
1031.00,4.4270
1030.00,4.4913
1029.00,4.9165
1028.00,4.3980
1027.00,4.0797
1026.00,3.9992
1025.00,4.1006
1024.00,4.3724
1023.00,4.3620
1022.00,4.2618
1021.00,4.3391
1020.00,4.5181
1019.00,4.6613
1018.00,4.5017
1017.00,4.2176
1016.00,4.0261
1015.00,3.9439
1014.00,3.9359
1013.00,3.9510
1012.00,3.9727
1011.00,4.0159
1010.00,4.0743
1009.00,4.1081
1008.00,4.0769
1007.00,4.0153
1006.00,3.9876
1005.00,3.9984
1004.00,4.0092
1003.00,3.9937
1002.00,3.9633
1001.00,3.9382
1000.00,3.9319
999.00,3.9460
998.00,3.9564
997.00,3.9223
996.00,3.8432
995.00,3.7691
994.00,3.7359
993.00,3.7476
992.00,3.7992
991.00,3.8840
990.00,3.9493
989.00,3.9022
988.00,3.7895
987.00,3.7075
986.00,3.6811
985.00,3.6826
984.00,3.6531
983.00,3.5778
982.00,3.4983
981.00,3.4408
980.00,3.4089
979.00,3.3960
978.00,3.3940
977.00,3.4019
976.00,3.4288
975.00,3.4815
974.00,3.5525
973.00,3.6179
972.00,3.6607
971.00,3.6976
970.00,3.7405
969.00,3.7663
968.00,3.7614
967.00,3.7596
966.00,3.7960
965.00,3.8562
964.00,3.8910
963.00,3.8900
962.00,3.8949
961.00,3.9409
960.00,4.0257
959.00,4.1132
958.00,4.1505
957.00,4.1630
956.00,4.2929
955.00,4.6916
954.00,4.4025
953.00,4.1578
952.00,4.1428
951.00,4.2724
950.00,4.4758
949.00,4.4844
948.00,4.2661
947.00,4.1087
946.00,4.0248
945.00,4.0066
944.00,4.0647
943.00,4.1806
942.00,4.2119
941.00,4.1165
940.00,4.0328
939.00,4.0021
938.00,4.0390
937.00,4.1592
936.00,4.3724
935.00,4.6781
934.00,4.8299
933.00,4.4063
932.00,4.0794
931.00,3.8950
930.00,3.8270
929.00,3.8587
928.00,3.9727
927.00,4.1799
926.00,4.6428
925.00,4.8144
924.00,4.3415
923.00,4.2537
922.00,4.2295
921.00,4.2005
920.00,4.2218
919.00,4.3842
918.00,4.8075
917.00,4.5686
916.00,4.4031
915.00,4.2729
914.00,4.0112
913.00,3.8548
912.00,3.8354
911.00,3.9271
910.00,4.0621
909.00,4.1139
908.00,4.0464
907.00,3.9880
906.00,4.0004
905.00,4.0495
904.00,4.0765
903.00,4.0573
902.00,4.0070
901.00,3.9727
900.00,3.9907
899.00,4.0605
898.00,4.1514
897.00,4.1930
896.00,4.1883
895.00,4.2202
894.00,4.3799
893.00,4.7024
892.00,4.3285
891.00,4.1024
890.00,4.0834
889.00,4.1625
888.00,4.1945
887.00,4.2004
886.00,4.2374
885.00,4.2897
884.00,4.3288
883.00,4.5187
882.00,5.0804
881.00,4.2620
880.00,4.0918
879.00,4.1289
878.00,4.2507
877.00,4.4623
876.00,4.9330
875.00,4.3219
874.00,4.0075
873.00,3.9106
872.00,3.9627
871.00,4.1826
870.00,4.5111
869.00,4.5817
868.00,4.5916
867.00,4.4742
866.00,4.2711
865.00,4.1630
864.00,4.2188
863.00,4.4455
862.00,4.5552
861.00,4.5892
860.00,4.5739
859.00,4.3680
858.00,4.3468
857.00,4.3970
856.00,4.3120
855.00,4.2345
854.00,4.3651
853.00,5.1411
852.00,4.5543
851.00,4.2812
850.00,4.1795
849.00,4.1818
848.00,4.2312
847.00,4.1809
846.00,4.1817
845.00,4.1679
844.00,4.2118
843.00,4.4702
842.00,4.2956
841.00,4.0520
840.00,3.9398
839.00,3.8878
838.00,3.8987
837.00,3.9734
836.00,4.0799
835.00,4.2467
834.00,4.6995
833.00,4.5905
832.00,4.2926
831.00,4.3722
830.00,4.4184
829.00,4.2466
828.00,4.1476
827.00,4.0901
826.00,4.0108
825.00,3.9300
824.00,3.8756
823.00,3.8589
822.00,3.8984
821.00,3.9859
820.00,4.0077
819.00,3.9273
818.00,3.9003
817.00,3.9963
816.00,4.2053
815.00,4.4065
814.00,4.4550
813.00,4.5213
812.00,4.5166
811.00,4.5050
810.00,4.8158
809.00,4.3363
808.00,3.9871
807.00,3.8998
806.00,4.0158
805.00,4.1232
804.00,3.9341
803.00,3.8555
802.00,3.9237
801.00,4.0986
800.00,4.3860
799.00,4.5182
798.00,4.2701
797.00,4.1923
796.00,4.5243
795.00,4.3611
794.00,3.9122
793.00,3.8246
792.00,3.9319
791.00,4.1895
790.00,4.2814
789.00,4.2357
788.00,4.3825
787.00,4.1720
786.00,3.9673
785.00,3.9672
784.00,4.1783
783.00,4.6242
782.00,4.4458
781.00,4.1824
780.00,4.0218
779.00,3.9315
778.00,3.9726
777.00,4.1664
776.00,4.0957
775.00,3.8485
774.00,3.7914
773.00,3.9137
772.00,4.3163
771.00,4.6843
770.00,4.2298
769.00,4.1288
768.00,4.1267
767.00,4.1251
766.00,4.1291
765.00,4.0955
764.00,4.0277
763.00,3.9567
762.00,3.9246
761.00,3.9405
760.00,4.0255
759.00,4.2065
758.00,4.5213
757.00,5.0056
756.00,4.8988
755.00,4.5047
754.00,4.2037
753.00,3.9732
752.00,3.8650
751.00,3.8525
750.00,3.8914
749.00,4.0279
748.00,4.3868
747.00,4.9844
746.00,4.6863
745.00,4.2984
744.00,4.1443
743.00,4.1107
742.00,4.1024
741.00,4.0764
740.00,4.0343
739.00,3.9554
738.00,3.9139
737.00,3.9503
736.00,4.1786
735.00,4.7944
734.00,4.3951
733.00,4.1475
732.00,4.0625
731.00,4.0245
730.00,4.1945
729.00,4.4383
728.00,4.2441
727.00,4.0765
726.00,3.9286
725.00,3.8179
724.00,3.8079
723.00,3.8401
722.00,3.8273
721.00,3.7981
720.00,3.8152
719.00,3.8594
718.00,3.9138
717.00,4.0010
716.00,4.1388
715.00,4.2780
714.00,4.3768
713.00,4.4150
712.00,4.2645
711.00,4.0662
710.00,3.9762
709.00,4.0494
708.00,4.1391
707.00,4.0231
706.00,4.0037
705.00,4.1828
704.00,4.4305
703.00,4.5241
702.00,4.3444
701.00,4.1071
700.00,3.9827
