Created as New Dataset,Sample 031 By Administrator Date Wednesday, November 24 2021
cm-1,A
7502.00,0.8424
7501.00,0.8417
7500.00,0.8407
7499.00,0.8389
7498.00,0.8365
7497.00,0.8338
7496.00,0.8311
7495.00,0.8285
7494.00,0.8260
7493.00,0.8235
7492.00,0.8205
7491.00,0.8172
7490.00,0.8134
7489.00,0.8092
7488.00,0.8046
7487.00,0.7997
7486.00,0.7948
7485.00,0.7894
7484.00,0.7833
7483.00,0.7766
7482.00,0.7700
7481.00,0.7637
7480.00,0.7574
7479.00,0.7507
7478.00,0.7438
7477.00,0.7369
7476.00,0.7301
7475.00,0.7232
7474.00,0.7160
7473.00,0.7081
7472.00,0.6998
7471.00,0.6911
7470.00,0.6827
7469.00,0.6748
7468.00,0.6671
7467.00,0.6592
7466.00,0.6514
7465.00,0.6442
7464.00,0.6374
7463.00,0.6306
7462.00,0.6234
7461.00,0.6163
7460.00,0.6094
7459.00,0.6028
7458.00,0.5964
7457.00,0.5901
7456.00,0.5838
7455.00,0.5777
7454.00,0.5715
7453.00,0.5658
7452.00,0.5608
7451.00,0.5566
7450.00,0.5531
7449.00,0.5498
7448.00,0.5468
7447.00,0.5439
7446.00,0.5416
7445.00,0.5398
7444.00,0.5387
7443.00,0.5380
7442.00,0.5379
7441.00,0.5384
7440.00,0.5395
7439.00,0.5411
7438.00,0.5428
7437.00,0.5446
7436.00,0.5466
7435.00,0.5489
7434.00,0.5519
7433.00,0.5557
7432.00,0.5601
7431.00,0.5649
7430.00,0.5700
7429.00,0.5752
7428.00,0.5807
7427.00,0.5865
7426.00,0.5928
7425.00,0.5994
7424.00,0.6062
7423.00,0.6130
7422.00,0.6203
7421.00,0.6283
7420.00,0.6368
7419.00,0.6453
7418.00,0.6534
7417.00,0.6615
7416.00,0.6698
7415.00,0.6787
7414.00,0.6878
7413.00,0.6967
7412.00,0.7053
7411.00,0.7139
7410.00,0.7231
7409.00,0.7327
7408.00,0.7418
7407.00,0.7501
7406.00,0.7582
7405.00,0.7669
7404.00,0.7758
7403.00,0.7844
7402.00,0.7925
7401.00,0.8009
7400.00,0.8098
7399.00,0.8188
7398.00,0.8269
7397.00,0.8339
7396.00,0.8403
7395.00,0.8467
7394.00,0.8533
7393.00,0.8598
7392.00,0.8661
7391.00,0.8724
7390.00,0.8789
7389.00,0.8857
7388.00,0.8922
7387.00,0.8984
7386.00,0.9048
7385.00,0.9112
7384.00,0.9172
7383.00,0.9224
7382.00,0.9271
7381.00,0.9318
7380.00,0.9364
7379.00,0.9405
7378.00,0.9438
7377.00,0.9462
7376.00,0.9479
7375.00,0.9491
7374.00,0.9497
7373.00,0.9498
7372.00,0.9492
7371.00,0.9481
7370.00,0.9470
7369.00,0.9461
7368.00,0.9452
7367.00,0.9441
7366.00,0.9427
7365.00,0.9410
7364.00,0.9387
7363.00,0.9360
7362.00,0.9336
7361.00,0.9319
7360.00,0.9305
7359.00,0.9285
7358.00,0.9254
7357.00,0.9221
7356.00,0.9191
7355.00,0.9166
7354.00,0.9142
7353.00,0.9122
7352.00,0.9102
7351.00,0.9078
7350.00,0.9038
7349.00,0.8980
7348.00,0.8907
7347.00,0.8825
7346.00,0.8739
7345.00,0.8654
7344.00,0.8580
7343.00,0.8520
7342.00,0.8473
7341.00,0.8429
7340.00,0.8379
7339.00,0.8319
7338.00,0.8250
7337.00,0.8176
7336.00,0.8098
7335.00,0.8015
7334.00,0.7927
7333.00,0.7838
7332.00,0.7755
7331.00,0.7677
7330.00,0.7603
7329.00,0.7528
7328.00,0.7455
7327.00,0.7386
7326.00,0.7322
7325.00,0.7258
7324.00,0.7190
7323.00,0.7121
7322.00,0.7054
7321.00,0.6991
7320.00,0.6932
7319.00,0.6875
7318.00,0.6820
7317.00,0.6765
7316.00,0.6713
7315.00,0.6664
7314.00,0.6617
7313.00,0.6571
7312.00,0.6527
7311.00,0.6484
7310.00,0.6444
7309.00,0.6408
7308.00,0.6375
7307.00,0.6345
7306.00,0.6320
7305.00,0.6300
7304.00,0.6286
7303.00,0.6275
7302.00,0.6270
7301.00,0.6273
7300.00,0.6280
7299.00,0.6289
7298.00,0.6296
7297.00,0.6305
7296.00,0.6322
7295.00,0.6347
7294.00,0.6376
7293.00,0.6408
7292.00,0.6445
7291.00,0.6489
7290.00,0.6540
7289.00,0.6594
7288.00,0.6649
7287.00,0.6707
7286.00,0.6769
7285.00,0.6835
7284.00,0.6905
7283.00,0.6979
7282.00,0.7055
7281.00,0.7130
7280.00,0.7206
7279.00,0.7285
7278.00,0.7369
7277.00,0.7456
7276.00,0.7542
7275.00,0.7628
7274.00,0.7717
7273.00,0.7808
7272.00,0.7898
7271.00,0.7985
7270.00,0.8070
7269.00,0.8158
7268.00,0.8250
7267.00,0.8343
7266.00,0.8435
7265.00,0.8526
7264.00,0.8616
7263.00,0.8707
7262.00,0.8800
7261.00,0.8895
7260.00,0.8991
7259.00,0.9086
7258.00,0.9176
7257.00,0.9259
7256.00,0.9335
7255.00,0.9408
7254.00,0.9481
7253.00,0.9551
7252.00,0.9618
7251.00,0.9684
7250.00,0.9755
7249.00,0.9830
7248.00,0.9904
7247.00,0.9968
7246.00,1.0024
7245.00,1.0078
7244.00,1.0133
7243.00,1.0189
7242.00,1.0244
7241.00,1.0295
7240.00,1.0340
7239.00,1.0380
7238.00,1.0421
7237.00,1.0466
7236.00,1.0513
7235.00,1.0552
7234.00,1.0578
7233.00,1.0595
7232.00,1.0613
7231.00,1.0632
7230.00,1.0648
7229.00,1.0659
7228.00,1.0668
7227.00,1.0681
7226.00,1.0698
7225.00,1.0712
7224.00,1.0714
7223.00,1.0705
7222.00,1.0690
7221.00,1.0672
7220.00,1.0652
7219.00,1.0630
7218.00,1.0607
7217.00,1.0584
7216.00,1.0560
7215.00,1.0532
7214.00,1.0498
7213.00,1.0457
7212.00,1.0408
7211.00,1.0356
7210.00,1.0304
7209.00,1.0256
7208.00,1.0206
7207.00,1.0150
7206.00,1.0090
7205.00,1.0029
7204.00,0.9965
7203.00,0.9895
7202.00,0.9817
7201.00,0.9736
7200.00,0.9657
7199.00,0.9581
7198.00,0.9505
7197.00,0.9431
7196.00,0.9353
7195.00,0.9270
7194.00,0.9182
7193.00,0.9092
7192.00,0.9003
7191.00,0.8912
7190.00,0.8820
7189.00,0.8729
7188.00,0.8641
7187.00,0.8556
7186.00,0.8470
7185.00,0.8385
7184.00,0.8298
7183.00,0.8211
7182.00,0.8124
7181.00,0.8039
7180.00,0.7955
7179.00,0.7873
7178.00,0.7791
7177.00,0.7709
7176.00,0.7629
7175.00,0.7553
7174.00,0.7483
7173.00,0.7419
7172.00,0.7361
7171.00,0.7308
7170.00,0.7259
7169.00,0.7215
7168.00,0.7176
7167.00,0.7138
7166.00,0.7102
7165.00,0.7068
7164.00,0.7039
7163.00,0.7016
7162.00,0.7003
7161.00,0.6996
7160.00,0.6993
7159.00,0.6994
7158.00,0.6999
7157.00,0.7009
7156.00,0.7024
7155.00,0.7042
7154.00,0.7064
7153.00,0.7091
7152.00,0.7123
7151.00,0.7159
7150.00,0.7201
7149.00,0.7248
7148.00,0.7300
7147.00,0.7358
7146.00,0.7419
7145.00,0.7484
7144.00,0.7552
7143.00,0.7621
7142.00,0.7691
7141.00,0.7762
7140.00,0.7834
7139.00,0.7910
7138.00,0.7990
7137.00,0.8075
7136.00,0.8162
7135.00,0.8249
7134.00,0.8335
7133.00,0.8419
7132.00,0.8502
7131.00,0.8585
7130.00,0.8672
7129.00,0.8762
7128.00,0.8855
7127.00,0.8949
7126.00,0.9042
7125.00,0.9132
7124.00,0.9218
7123.00,0.9301
7122.00,0.9382
7121.00,0.9460
7120.00,0.9538
7119.00,0.9617
7118.00,0.9698
7117.00,0.9780
7116.00,0.9859
7115.00,0.9933
7114.00,1.0006
7113.00,1.0080
7112.00,1.0155
7111.00,1.0228
7110.00,1.0298
7109.00,1.0364
7108.00,1.0426
7107.00,1.0482
7106.00,1.0534
7105.00,1.0583
7104.00,1.0632
7103.00,1.0681
7102.00,1.0727
7101.00,1.0769
7100.00,1.0808
7099.00,1.0843
7098.00,1.0876
7097.00,1.0904
7096.00,1.0927
7095.00,1.0950
7094.00,1.0976
7093.00,1.1001
7092.00,1.1021
7091.00,1.1034
7090.00,1.1042
7089.00,1.1045
7088.00,1.1043
7087.00,1.1039
7086.00,1.1033
7085.00,1.1028
7084.00,1.1019
7083.00,1.1004
7082.00,1.0986
7081.00,1.0965
7080.00,1.0939
7079.00,1.0906
7078.00,1.0868
7077.00,1.0830
7076.00,1.0797
7075.00,1.0762
7074.00,1.0722
7073.00,1.0675
7072.00,1.0626
7071.00,1.0574
7070.00,1.0521
7069.00,1.0466
7068.00,1.0406
7067.00,1.0341
7066.00,1.0272
7065.00,1.0202
7064.00,1.0133
7063.00,1.0061
7062.00,0.9986
7061.00,0.9908
7060.00,0.9830
7059.00,0.9750
7058.00,0.9668
7057.00,0.9584
7056.00,0.9498
7055.00,0.9408
7054.00,0.9315
7053.00,0.9219
7052.00,0.9125
7051.00,0.9034
7050.00,0.8944
7049.00,0.8854
7048.00,0.8762
7047.00,0.8672
7046.00,0.8583
7045.00,0.8496
7044.00,0.8406
7043.00,0.8314
7042.00,0.8222
7041.00,0.8134
7040.00,0.8049
7039.00,0.7965
7038.00,0.7883
7037.00,0.7804
7036.00,0.7729
7035.00,0.7660
7034.00,0.7595
7033.00,0.7534
7032.00,0.7475
7031.00,0.7421
7030.00,0.7372
7029.00,0.7326
7028.00,0.7282
7027.00,0.7239
7026.00,0.7202
7025.00,0.7173
7024.00,0.7151
7023.00,0.7134
7022.00,0.7121
7021.00,0.7114
7020.00,0.7112
7019.00,0.7113
7018.00,0.7116
7017.00,0.7123
7016.00,0.7135
7015.00,0.7152
7014.00,0.7176
7013.00,0.7208
7012.00,0.7246
7011.00,0.7289
7010.00,0.7337
7009.00,0.7388
7008.00,0.7443
7007.00,0.7500
7006.00,0.7560
7005.00,0.7623
7004.00,0.7688
7003.00,0.7756
7002.00,0.7827
7001.00,0.7902
7000.00,0.7980
6999.00,0.8058
6998.00,0.8140
6997.00,0.8226
6996.00,0.8314
6995.00,0.8402
6994.00,0.8491
6993.00,0.8579
6992.00,0.8669
6991.00,0.8757
6990.00,0.8844
6989.00,0.8931
6988.00,0.9017
6987.00,0.9104
6986.00,0.9195
6985.00,0.9287
6984.00,0.9381
6983.00,0.9475
6982.00,0.9570
6981.00,0.9666
6980.00,0.9757
6979.00,0.9844
6978.00,0.9930
6977.00,1.0017
6976.00,1.0103
6975.00,1.0185
6974.00,1.0263
6973.00,1.0340
6972.00,1.0416
6971.00,1.0489
6970.00,1.0558
6969.00,1.0625
6968.00,1.0690
6967.00,1.0754
6966.00,1.0818
6965.00,1.0883
6964.00,1.0948
6963.00,1.1009
6962.00,1.1064
6961.00,1.1113
6960.00,1.1160
6959.00,1.1203
6958.00,1.1242
6957.00,1.1278
6956.00,1.1312
6955.00,1.1344
6954.00,1.1376
6953.00,1.1408
6952.00,1.1437
6951.00,1.1461
6950.00,1.1480
6949.00,1.1497
6948.00,1.1511
6947.00,1.1520
6946.00,1.1523
6945.00,1.1522
6944.00,1.1521
6943.00,1.1515
6942.00,1.1502
6941.00,1.1483
6940.00,1.1462
6939.00,1.1443
6938.00,1.1423
6937.00,1.1398
6936.00,1.1369
6935.00,1.1337
6934.00,1.1302
6933.00,1.1264
6932.00,1.1223
6931.00,1.1178
6930.00,1.1129
6929.00,1.1080
6928.00,1.1031
6927.00,1.0978
6926.00,1.0916
6925.00,1.0848
6924.00,1.0776
6923.00,1.0704
6922.00,1.0630
6921.00,1.0552
6920.00,1.0470
6919.00,1.0389
6918.00,1.0308
6917.00,1.0225
6916.00,1.0137
6915.00,1.0045
6914.00,0.9950
6913.00,0.9856
6912.00,0.9761
6911.00,0.9663
6910.00,0.9564
6909.00,0.9466
6908.00,0.9372
6907.00,0.9280
6906.00,0.9187
6905.00,0.9092
6904.00,0.8997
6903.00,0.8903
6902.00,0.8809
6901.00,0.8715
6900.00,0.8622
6899.00,0.8530
6898.00,0.8442
6897.00,0.8358
6896.00,0.8278
6895.00,0.8199
6894.00,0.8121
6893.00,0.8046
6892.00,0.7976
6891.00,0.7912
6890.00,0.7855
6889.00,0.7800
6888.00,0.7748
6887.00,0.7700
6886.00,0.7656
6885.00,0.7618
6884.00,0.7583
6883.00,0.7554
6882.00,0.7531
6881.00,0.7513
6880.00,0.7502
6879.00,0.7495
6878.00,0.7493
6877.00,0.7497
6876.00,0.7505
6875.00,0.7518
6874.00,0.7539
6873.00,0.7567
6872.00,0.7604
6871.00,0.7645
6870.00,0.7690
6869.00,0.7736
6868.00,0.7785
6867.00,0.7837
6866.00,0.7894
6865.00,0.7956
6864.00,0.8022
6863.00,0.8089
6862.00,0.8160
6861.00,0.8236
6860.00,0.8314
6859.00,0.8393
6858.00,0.8470
6857.00,0.8548
6856.00,0.8628
6855.00,0.8713
6854.00,0.8803
6853.00,0.8894
6852.00,0.8987
6851.00,0.9079
6850.00,0.9172
6849.00,0.9265
6848.00,0.9354
6847.00,0.9442
6846.00,0.9530
6845.00,0.9619
6844.00,0.9708
6843.00,0.9795
6842.00,0.9880
6841.00,0.9965
6840.00,1.0049
6839.00,1.0132
6838.00,1.0213
6837.00,1.0294
6836.00,1.0375
6835.00,1.0457
6834.00,1.0540
6833.00,1.0621
6832.00,1.0696
6831.00,1.0765
6830.00,1.0832
6829.00,1.0899
6828.00,1.0961
6827.00,1.1017
6826.00,1.1071
6825.00,1.1125
6824.00,1.1180
6823.00,1.1230
6822.00,1.1276
6821.00,1.1317
6820.00,1.1356
6819.00,1.1391
6818.00,1.1420
6817.00,1.1447
6816.00,1.1474
6815.00,1.1503
6814.00,1.1531
6813.00,1.1552
6812.00,1.1564
6811.00,1.1572
6810.00,1.1580
6809.00,1.1588
6808.00,1.1591
6807.00,1.1589
6806.00,1.1588
6805.00,1.1589
6804.00,1.1587
6803.00,1.1576
6802.00,1.1554
6801.00,1.1525
6800.00,1.1494
6799.00,1.1463
6798.00,1.1431
6797.00,1.1396
6796.00,1.1358
6795.00,1.1316
6794.00,1.1273
6793.00,1.1226
6792.00,1.1174
6791.00,1.1115
6790.00,1.1051
6789.00,1.0986
6788.00,1.0918
6787.00,1.0849
6786.00,1.0778
6785.00,1.0706
6784.00,1.0632
6783.00,1.0555
6782.00,1.0478
6781.00,1.0400
6780.00,1.0317
6779.00,1.0227
6778.00,1.0132
6777.00,1.0038
6776.00,0.9944
6775.00,0.9847
6774.00,0.9749
6773.00,0.9653
6772.00,0.9560
6771.00,0.9465
6770.00,0.9368
6769.00,0.9269
6768.00,0.9170
6767.00,0.9070
6766.00,0.8970
6765.00,0.8871
6764.00,0.8776
6763.00,0.8684
6762.00,0.8593
6761.00,0.8503
6760.00,0.8413
6759.00,0.8326
6758.00,0.8241
6757.00,0.8158
6756.00,0.8078
6755.00,0.8002
6754.00,0.7932
6753.00,0.7868
6752.00,0.7808
6751.00,0.7750
6750.00,0.7694
6749.00,0.7643
6748.00,0.7595
6747.00,0.7551
6746.00,0.7510
6745.00,0.7475
6744.00,0.7446
6743.00,0.7423
6742.00,0.7404
6741.00,0.7390
6740.00,0.7381
6739.00,0.7377
6738.00,0.7378
6737.00,0.7385
6736.00,0.7397
6735.00,0.7415
6734.00,0.7438
6733.00,0.7467
6732.00,0.7501
6731.00,0.7539
6730.00,0.7579
6729.00,0.7625
6728.00,0.7676
6727.00,0.7731
6726.00,0.7789
6725.00,0.7850
6724.00,0.7917
6723.00,0.7987
6722.00,0.8061
6721.00,0.8140
6720.00,0.8222
6719.00,0.8308
6718.00,0.8395
6717.00,0.8481
6716.00,0.8569
6715.00,0.8659
6714.00,0.8750
6713.00,0.8840
6712.00,0.8928
6711.00,0.9017
6710.00,0.9110
6709.00,0.9204
6708.00,0.9297
6707.00,0.9389
6706.00,0.9482
6705.00,0.9578
6704.00,0.9674
6703.00,0.9768
6702.00,0.9862
6701.00,0.9956
6700.00,1.0051
6699.00,1.0145
6698.00,1.0238
6697.00,1.0328
6696.00,1.0416
6695.00,1.0501
6694.00,1.0584
6693.00,1.0665
6692.00,1.0745
6691.00,1.0820
6690.00,1.0893
6689.00,1.0963
6688.00,1.1031
6687.00,1.1099
6686.00,1.1167
6685.00,1.1237
6684.00,1.1305
6683.00,1.1370
6682.00,1.1429
6681.00,1.1482
6680.00,1.1530
6679.00,1.1572
6678.00,1.1610
6677.00,1.1647
6676.00,1.1685
6675.00,1.1722
6674.00,1.1758
6673.00,1.1790
6672.00,1.1817
6671.00,1.1839
6670.00,1.1856
6669.00,1.1872
6668.00,1.1886
6667.00,1.1896
6666.00,1.1901
6665.00,1.1902
6664.00,1.1901
6663.00,1.1896
6662.00,1.1886
6661.00,1.1872
6660.00,1.1855
6659.00,1.1838
6658.00,1.1820
6657.00,1.1798
6656.00,1.1772
6655.00,1.1740
6654.00,1.1702
6653.00,1.1657
6652.00,1.1610
6651.00,1.1563
6650.00,1.1515
6649.00,1.1464
6648.00,1.1409
6647.00,1.1353
6646.00,1.1294
6645.00,1.1229
6644.00,1.1156
6643.00,1.1076
6642.00,1.0995
6641.00,1.0916
6640.00,1.0836
6639.00,1.0755
6638.00,1.0672
6637.00,1.0587
6636.00,1.0496
6635.00,1.0398
6634.00,1.0296
6633.00,1.0192
6632.00,1.0087
6631.00,0.9982
6630.00,0.9878
6629.00,0.9778
6628.00,0.9681
6627.00,0.9584
6626.00,0.9485
6625.00,0.9383
6624.00,0.9279
6623.00,0.9175
6622.00,0.9072
6621.00,0.8971
6620.00,0.8870
6619.00,0.8769
6618.00,0.8672
6617.00,0.8580
6616.00,0.8492
6615.00,0.8404
6614.00,0.8317
6613.00,0.8234
6612.00,0.8158
6611.00,0.8085
6610.00,0.8016
6609.00,0.7950
6608.00,0.7889
6607.00,0.7832
6606.00,0.7781
6605.00,0.7736
6604.00,0.7696
6603.00,0.7661
6602.00,0.7631
6601.00,0.7606
6600.00,0.7588
6599.00,0.7575
6598.00,0.7567
6597.00,0.7565
6596.00,0.7570
6595.00,0.7583
6594.00,0.7602
6593.00,0.7625
6592.00,0.7652
6591.00,0.7684
6590.00,0.7721
6589.00,0.7766
6588.00,0.7815
6587.00,0.7868
6586.00,0.7926
6585.00,0.7988
6584.00,0.8055
6583.00,0.8124
6582.00,0.8196
6581.00,0.8272
6580.00,0.8352
6579.00,0.8436
6578.00,0.8523
6577.00,0.8611
6576.00,0.8700
6575.00,0.8791
6574.00,0.8884
6573.00,0.8978
6572.00,0.9072
6571.00,0.9165
6570.00,0.9259
6569.00,0.9354
6568.00,0.9448
6567.00,0.9541
6566.00,0.9637
6565.00,0.9734
6564.00,0.9830
6563.00,0.9922
6562.00,1.0013
6561.00,1.0104
6560.00,1.0195
6559.00,1.0285
6558.00,1.0374
6557.00,1.0463
6556.00,1.0550
6555.00,1.0633
6554.00,1.0713
6553.00,1.0790
6552.00,1.0864
6551.00,1.0935
6550.00,1.1004
6549.00,1.1073
6548.00,1.1143
6547.00,1.1210
6546.00,1.1273
6545.00,1.1334
6544.00,1.1393
6543.00,1.1447
6542.00,1.1494
6541.00,1.1539
6540.00,1.1581
6539.00,1.1622
6538.00,1.1658
6537.00,1.1691
6536.00,1.1722
6535.00,1.1751
6534.00,1.1777
6533.00,1.1800
6532.00,1.1818
6531.00,1.1832
6530.00,1.1844
6529.00,1.1854
6528.00,1.1859
6527.00,1.1858
6526.00,1.1852
6525.00,1.1845
6524.00,1.1836
6523.00,1.1822
6522.00,1.1802
6521.00,1.1775
6520.00,1.1745
6519.00,1.1712
6518.00,1.1679
6517.00,1.1645
6516.00,1.1608
6515.00,1.1568
6514.00,1.1524
6513.00,1.1477
6512.00,1.1428
6511.00,1.1373
6510.00,1.1313
6509.00,1.1248
6508.00,1.1181
6507.00,1.1108
6506.00,1.1032
6505.00,1.0955
6504.00,1.0878
6503.00,1.0800
6502.00,1.0720
6501.00,1.0639
6500.00,1.0559
6499.00,1.0475
6498.00,1.0385
6497.00,1.0287
6496.00,1.0185
6495.00,1.0081
6494.00,0.9978
6493.00,0.9876
6492.00,0.9775
6491.00,0.9676
6490.00,0.9578
6489.00,0.9479
6488.00,0.9378
6487.00,0.9275
6486.00,0.9172
6485.00,0.9070
6484.00,0.8971
6483.00,0.8873
6482.00,0.8776
6481.00,0.8678
6480.00,0.8580
6479.00,0.8484
6478.00,0.8391
6477.00,0.8303
6476.00,0.8218
6475.00,0.8137
6474.00,0.8059
6473.00,0.7983
6472.00,0.7908
6471.00,0.7835
6470.00,0.7767
6469.00,0.7706
6468.00,0.7648
6467.00,0.7595
6466.00,0.7547
6465.00,0.7505
6464.00,0.7467
6463.00,0.7433
6462.00,0.7405
6461.00,0.7384
6460.00,0.7369
6459.00,0.7360
6458.00,0.7356
6457.00,0.7358
6456.00,0.7366
6455.00,0.7379
6454.00,0.7397
6453.00,0.7420
6452.00,0.7450
6451.00,0.7485
6450.00,0.7526
6449.00,0.7572
6448.00,0.7625
6447.00,0.7682
6446.00,0.7744
6445.00,0.7809
6444.00,0.7877
6443.00,0.7947
6442.00,0.8022
6441.00,0.8100
6440.00,0.8182
6439.00,0.8267
6438.00,0.8355
6437.00,0.8446
6436.00,0.8539
6435.00,0.8633
6434.00,0.8728
6433.00,0.8825
6432.00,0.8923
6431.00,0.9021
6430.00,0.9121
6429.00,0.9222
6428.00,0.9323
6427.00,0.9423
6426.00,0.9523
6425.00,0.9623
6424.00,0.9723
6423.00,0.9822
6422.00,0.9923
6421.00,1.0025
6420.00,1.0126
6419.00,1.0225
6418.00,1.0319
6417.00,1.0411
6416.00,1.0500
6415.00,1.0584
6414.00,1.0665
6413.00,1.0747
6412.00,1.0831
6411.00,1.0916
6410.00,1.0998
6409.00,1.1078
6408.00,1.1155
6407.00,1.1228
6406.00,1.1295
6405.00,1.1359
6404.00,1.1419
6403.00,1.1478
6402.00,1.1536
6401.00,1.1592
6400.00,1.1646
6399.00,1.1696
6398.00,1.1741
6397.00,1.1782
6396.00,1.1820
6395.00,1.1856
6394.00,1.1889
6393.00,1.1920
6392.00,1.1950
6391.00,1.1976
6390.00,1.1997
6389.00,1.2011
6388.00,1.2019
6387.00,1.2022
6386.00,1.2022
6385.00,1.2018
6384.00,1.2013
6383.00,1.2008
6382.00,1.2002
6381.00,1.1994
6380.00,1.1981
6379.00,1.1962
6378.00,1.1937
6377.00,1.1907
6376.00,1.1875
6375.00,1.1843
6374.00,1.1810
6373.00,1.1776
6372.00,1.1737
6371.00,1.1690
6370.00,1.1636
6369.00,1.1575
6368.00,1.1508
6367.00,1.1438
6366.00,1.1369
6365.00,1.1304
6364.00,1.1239
6363.00,1.1170
6362.00,1.1095
6361.00,1.1016
6360.00,1.0932
6359.00,1.0845
6358.00,1.0753
6357.00,1.0657
6356.00,1.0557
6355.00,1.0452
6354.00,1.0347
6353.00,1.0241
6352.00,1.0134
6351.00,1.0026
6350.00,0.9919
6349.00,0.9813
6348.00,0.9705
6347.00,0.9594
6346.00,0.9482
6345.00,0.9370
6344.00,0.9261
6343.00,0.9152
6342.00,0.9043
6341.00,0.8935
6340.00,0.8826
6339.00,0.8719
6338.00,0.8613
6337.00,0.8510
6336.00,0.8410
6335.00,0.8314
6334.00,0.8221
6333.00,0.8132
6332.00,0.8047
6331.00,0.7965
6330.00,0.7887
6329.00,0.7814
6328.00,0.7747
6327.00,0.7686
6326.00,0.7630
6325.00,0.7578
6324.00,0.7531
6323.00,0.7489
6322.00,0.7451
6321.00,0.7420
6320.00,0.7396
6319.00,0.7378
6318.00,0.7367
6317.00,0.7364
6316.00,0.7369
6315.00,0.7379
6314.00,0.7395
6313.00,0.7417
6312.00,0.7444
6311.00,0.7475
6310.00,0.7511
6309.00,0.7553
6308.00,0.7600
6307.00,0.7653
6306.00,0.7712
6305.00,0.7777
6304.00,0.7847
6303.00,0.7920
6302.00,0.7996
6301.00,0.8075
6300.00,0.8158
6299.00,0.8243
6298.00,0.8330
6297.00,0.8420
6296.00,0.8513
6295.00,0.8608
6294.00,0.8704
6293.00,0.8802
6292.00,0.8901
6291.00,0.9003
6290.00,0.9104
6289.00,0.9205
6288.00,0.9304
6287.00,0.9403
6286.00,0.9503
6285.00,0.9604
6284.00,0.9708
6283.00,0.9812
6282.00,0.9916
6281.00,1.0017
6280.00,1.0115
6279.00,1.0208
6278.00,1.0296
6277.00,1.0383
6276.00,1.0469
6275.00,1.0557
6274.00,1.0645
6273.00,1.0730
6272.00,1.0812
6271.00,1.0892
6270.00,1.0968
6269.00,1.1040
6268.00,1.1110
6267.00,1.1180
6266.00,1.1252
6265.00,1.1322
6264.00,1.1386
6263.00,1.1444
6262.00,1.1497
6261.00,1.1547
6260.00,1.1592
6259.00,1.1632
6258.00,1.1669
6257.00,1.1704
6256.00,1.1739
6255.00,1.1771
6254.00,1.1801
6253.00,1.1831
6252.00,1.1861
6251.00,1.1886
6250.00,1.1903
6249.00,1.1914
6248.00,1.1919
6247.00,1.1917
6246.00,1.1907
6245.00,1.1894
6244.00,1.1881
6243.00,1.1869
6242.00,1.1854
6241.00,1.1835
6240.00,1.1811
6239.00,1.1783
6238.00,1.1754
6237.00,1.1720
6236.00,1.1683
6235.00,1.1642
6234.00,1.1599
6233.00,1.1550
6232.00,1.1496
6231.00,1.1437
6230.00,1.1375
6229.00,1.1311
6228.00,1.1249
6227.00,1.1186
6226.00,1.1121
6225.00,1.1052
6224.00,1.0977
6223.00,1.0897
6222.00,1.0813
6221.00,1.0725
6220.00,1.0634
6219.00,1.0541
6218.00,1.0447
6217.00,1.0353
6216.00,1.0255
6215.00,1.0155
6214.00,1.0052
6213.00,0.9950
6212.00,0.9846
6211.00,0.9741
6210.00,0.9633
6209.00,0.9525
6208.00,0.9416
6207.00,0.9307
6206.00,0.9197
6205.00,0.9085
6204.00,0.8974
6203.00,0.8864
6202.00,0.8756
6201.00,0.8649
6200.00,0.8543
6199.00,0.8438
6198.00,0.8335
6197.00,0.8235
6196.00,0.8136
6195.00,0.8040
6194.00,0.7947
6193.00,0.7858
6192.00,0.7773
6191.00,0.7691
6190.00,0.7615
6189.00,0.7543
6188.00,0.7476
6187.00,0.7413
6186.00,0.7356
6185.00,0.7305
6184.00,0.7258
6183.00,0.7216
6182.00,0.7181
6181.00,0.7151
6180.00,0.7128
6179.00,0.7111
6178.00,0.7100
6177.00,0.7096
6176.00,0.7098
6175.00,0.7105
6174.00,0.7119
6173.00,0.7139
6172.00,0.7167
6171.00,0.7203
6170.00,0.7245
6169.00,0.7294
6168.00,0.7348
6167.00,0.7406
6166.00,0.7469
6165.00,0.7536
6164.00,0.7607
6163.00,0.7682
6162.00,0.7761
6161.00,0.7845
6160.00,0.7931
6159.00,0.8019
6158.00,0.8109
6157.00,0.8203
6156.00,0.8302
6155.00,0.8403
6154.00,0.8506
6153.00,0.8610
6152.00,0.8714
6151.00,0.8818
6150.00,0.8923
6149.00,0.9029
6148.00,0.9135
6147.00,0.9241
6146.00,0.9347
6145.00,0.9452
6144.00,0.9557
6143.00,0.9662
6142.00,0.9767
6141.00,0.9872
6140.00,0.9977
6139.00,1.0082
6138.00,1.0184
6137.00,1.0282
6136.00,1.0375
6135.00,1.0466
6134.00,1.0555
6133.00,1.0643
6132.00,1.0730
6131.00,1.0816
6130.00,1.0901
6129.00,1.0984
6128.00,1.1065
6127.00,1.1144
6126.00,1.1221
6125.00,1.1296
6124.00,1.1367
6123.00,1.1433
6122.00,1.1496
6121.00,1.1555
6120.00,1.1607
6119.00,1.1652
6118.00,1.1693
6117.00,1.1734
6116.00,1.1773
6115.00,1.1808
6114.00,1.1839
6113.00,1.1867
6112.00,1.1896
6111.00,1.1923
6110.00,1.1946
6109.00,1.1964
6108.00,1.1980
6107.00,1.1993
6106.00,1.2001
6105.00,1.2004
6104.00,1.2004
6103.00,1.2001
6102.00,1.1996
6101.00,1.1985
6100.00,1.1968
6099.00,1.1946
6098.00,1.1919
6097.00,1.1888
6096.00,1.1857
6095.00,1.1824
6094.00,1.1789
6093.00,1.1751
6092.00,1.1706
6091.00,1.1655
6090.00,1.1601
6089.00,1.1545
6088.00,1.1488
6087.00,1.1428
6086.00,1.1365
6085.00,1.1297
6084.00,1.1222
6083.00,1.1141
6082.00,1.1055
6081.00,1.0966
6080.00,1.0876
6079.00,1.0787
6078.00,1.0697
6077.00,1.0603
6076.00,1.0505
6075.00,1.0402
6074.00,1.0295
6073.00,1.0184
6072.00,1.0071
6071.00,0.9957
6070.00,0.9843
6069.00,0.9730
6068.00,0.9616
6067.00,0.9500
6066.00,0.9383
6065.00,0.9265
6064.00,0.9145
6063.00,0.9025
6062.00,0.8905
6061.00,0.8786
6060.00,0.8667
6059.00,0.8549
6058.00,0.8434
6057.00,0.8323
6056.00,0.8216
6055.00,0.8112
6054.00,0.8012
6053.00,0.7914
6052.00,0.7818
6051.00,0.7725
6050.00,0.7635
6049.00,0.7551
6048.00,0.7473
6047.00,0.7400
6046.00,0.7333
6045.00,0.7271
6044.00,0.7216
6043.00,0.7167
6042.00,0.7126
6041.00,0.7092
6040.00,0.7065
6039.00,0.7043
6038.00,0.7028
6037.00,0.7020
6036.00,0.7018
6035.00,0.7024
6034.00,0.7038
6033.00,0.7060
6032.00,0.7089
6031.00,0.7124
6030.00,0.7165
6029.00,0.7212
6028.00,0.7265
6027.00,0.7323
6026.00,0.7387
6025.00,0.7456
6024.00,0.7529
6023.00,0.7605
6022.00,0.7686
6021.00,0.7772
6020.00,0.7862
6019.00,0.7956
6018.00,0.8053
6017.00,0.8154
6016.00,0.8257
6015.00,0.8360
6014.00,0.8462
6013.00,0.8565
6012.00,0.8669
6011.00,0.8774
6010.00,0.8882
6009.00,0.8991
6008.00,0.9103
6007.00,0.9214
6006.00,0.9325
6005.00,0.9434
6004.00,0.9541
6003.00,0.9648
6002.00,0.9755
6001.00,0.9863
6000.00,0.9970
5999.00,1.0075
5998.00,1.0178
5997.00,1.0278
5996.00,1.0374
5995.00,1.0468
5994.00,1.0560
5993.00,1.0652
5992.00,1.0742
5991.00,1.0831
5990.00,1.0917
5989.00,1.0999
5988.00,1.1077
5987.00,1.1151
5986.00,1.1223
5985.00,1.1290
5984.00,1.1354
5983.00,1.1415
5982.00,1.1475
5981.00,1.1533
5980.00,1.1588
5979.00,1.1640
5978.00,1.1687
5977.00,1.1729
5976.00,1.1766
5975.00,1.1798
5974.00,1.1826
5973.00,1.1854
5972.00,1.1878
5971.00,1.1899
5970.00,1.1918
5969.00,1.1934
5968.00,1.1949
5967.00,1.1960
5966.00,1.1967
5965.00,1.1971
5964.00,1.1970
5963.00,1.1965
5962.00,1.1955
5961.00,1.1943
5960.00,1.1927
5959.00,1.1909
5958.00,1.1890
5957.00,1.1869
5956.00,1.1844
5955.00,1.1812
5954.00,1.1777
5953.00,1.1738
5952.00,1.1696
5951.00,1.1651
5950.00,1.1603
5949.00,1.1552
5948.00,1.1497
5947.00,1.1435
5946.00,1.1367
5945.00,1.1296
5944.00,1.1221
5943.00,1.1144
5942.00,1.1063
5941.00,1.0979
5940.00,1.0892
5939.00,1.0801
5938.00,1.0707
5937.00,1.0610
5936.00,1.0509
5935.00,1.0405
5934.00,1.0299
5933.00,1.0190
5932.00,1.0077
5931.00,0.9961
5930.00,0.9844
5929.00,0.9728
5928.00,0.9611
5927.00,0.9491
5926.00,0.9370
5925.00,0.9248
5924.00,0.9128
5923.00,0.9007
5922.00,0.8885
5921.00,0.8763
5920.00,0.8641
5919.00,0.8520
5918.00,0.8400
5917.00,0.8281
5916.00,0.8166
5915.00,0.8054
5914.00,0.7946
5913.00,0.7842
5912.00,0.7742
5911.00,0.7645
5910.00,0.7552
5909.00,0.7464
5908.00,0.7382
5907.00,0.7305
5906.00,0.7235
5905.00,0.7171
5904.00,0.7114
5903.00,0.7061
5902.00,0.7015
5901.00,0.6976
5900.00,0.6944
5899.00,0.6919
5898.00,0.6902
5897.00,0.6894
5896.00,0.6894
5895.00,0.6902
5894.00,0.6918
5893.00,0.6941
5892.00,0.6969
5891.00,0.7004
5890.00,0.7045
5889.00,0.7092
5888.00,0.7145
5887.00,0.7204
5886.00,0.7269
5885.00,0.7339
5884.00,0.7415
5883.00,0.7494
5882.00,0.7579
5881.00,0.7668
5880.00,0.7760
5879.00,0.7856
5878.00,0.7956
5877.00,0.8058
5876.00,0.8163
5875.00,0.8269
5874.00,0.8376
5873.00,0.8485
5872.00,0.8594
5871.00,0.8704
5870.00,0.8815
5869.00,0.8929
5868.00,0.9043
5867.00,0.9158
5866.00,0.9273
5865.00,0.9386
5864.00,0.9498
5863.00,0.9609
5862.00,0.9720
5861.00,0.9830
5860.00,0.9940
5859.00,1.0048
5858.00,1.0153
5857.00,1.0256
5856.00,1.0355
5855.00,1.0453
5854.00,1.0552
5853.00,1.0652
5852.00,1.0749
5851.00,1.0844
5850.00,1.0934
5849.00,1.1021
5848.00,1.1104
5847.00,1.1182
5846.00,1.1258
5845.00,1.1331
5844.00,1.1402
5843.00,1.1468
5842.00,1.1530
5841.00,1.1591
5840.00,1.1649
5839.00,1.1703
5838.00,1.1752
5837.00,1.1798
5836.00,1.1842
5835.00,1.1882
5834.00,1.1918
5833.00,1.1952
5832.00,1.1985
5831.00,1.2015
5830.00,1.2040
5829.00,1.2060
5828.00,1.2076
5827.00,1.2088
5826.00,1.2098
5825.00,1.2102
5824.00,1.2103
5823.00,1.2101
5822.00,1.2096
5821.00,1.2088
5820.00,1.2073
5819.00,1.2053
5818.00,1.2030
5817.00,1.2004
5816.00,1.1977
5815.00,1.1950
5814.00,1.1921
5813.00,1.1889
5812.00,1.1851
5811.00,1.1806
5810.00,1.1754
5809.00,1.1698
5808.00,1.1639
5807.00,1.1577
5806.00,1.1513
5805.00,1.1447
5804.00,1.1379
5803.00,1.1305
5802.00,1.1228
5801.00,1.1146
5800.00,1.1060
5799.00,1.0969
5798.00,1.0873
5797.00,1.0774
5796.00,1.0672
5795.00,1.0568
5794.00,1.0461
5793.00,1.0351
5792.00,1.0240
5791.00,1.0126
5790.00,1.0010
5789.00,0.9892
5788.00,0.9771
5787.00,0.9648
5786.00,0.9523
5785.00,0.9396
5784.00,0.9269
5783.00,0.9141
5782.00,0.9013
5781.00,0.8886
5780.00,0.8759
5779.00,0.8633
5778.00,0.8507
5777.00,0.8383
5776.00,0.8260
5775.00,0.8140
5774.00,0.8022
5773.00,0.7909
5772.00,0.7799
5771.00,0.7694
5770.00,0.7594
5769.00,0.7500
5768.00,0.7411
5767.00,0.7326
5766.00,0.7247
5765.00,0.7175
5764.00,0.7108
5763.00,0.7048
5762.00,0.6994
5761.00,0.6947
5760.00,0.6909
5759.00,0.6879
5758.00,0.6856
5757.00,0.6842
5756.00,0.6835
5755.00,0.6835
5754.00,0.6842
5753.00,0.6858
5752.00,0.6881
5751.00,0.6912
5750.00,0.6951
5749.00,0.6996
5748.00,0.7047
5747.00,0.7103
5746.00,0.7165
5745.00,0.7234
5744.00,0.7309
5743.00,0.7391
5742.00,0.7478
5741.00,0.7571
5740.00,0.7666
5739.00,0.7763
5738.00,0.7862
5737.00,0.7964
5736.00,0.8069
5735.00,0.8176
5734.00,0.8286
5733.00,0.8398
5732.00,0.8513
5731.00,0.8630
5730.00,0.8748
5729.00,0.8866
5728.00,0.8985
5727.00,0.9103
5726.00,0.9220
5725.00,0.9338
5724.00,0.9457
5723.00,0.9577
5722.00,0.9698
5721.00,0.9819
5720.00,0.9935
5719.00,1.0047
5718.00,1.0155
5717.00,1.0261
5716.00,1.0366
5715.00,1.0469
5714.00,1.0570
5713.00,1.0672
5712.00,1.0773
5711.00,1.0873
5710.00,1.0971
5709.00,1.1065
5708.00,1.1154
5707.00,1.1237
5706.00,1.1314
5705.00,1.1388
5704.00,1.1459
5703.00,1.1531
5702.00,1.1602
5701.00,1.1669
5700.00,1.1731
5699.00,1.1788
5698.00,1.1839
5697.00,1.1886
5696.00,1.1932
5695.00,1.1979
5694.00,1.2025
5693.00,1.2070
5692.00,1.2109
5691.00,1.2141
5690.00,1.2165
5689.00,1.2182
5688.00,1.2193
5687.00,1.2201
5686.00,1.2208
5685.00,1.2213
5684.00,1.2215
5683.00,1.2213
5682.00,1.2209
5681.00,1.2203
5680.00,1.2193
5679.00,1.2181
5678.00,1.2164
5677.00,1.2142
5676.00,1.2113
5675.00,1.2078
5674.00,1.2040
5673.00,1.2000
5672.00,1.1958
5671.00,1.1912
5670.00,1.1862
5669.00,1.1807
5668.00,1.1747
5667.00,1.1682
5666.00,1.1614
5665.00,1.1543
5664.00,1.1469
5663.00,1.1391
5662.00,1.1308
5661.00,1.1221
5660.00,1.1132
5659.00,1.1040
5658.00,1.0945
5657.00,1.0847
5656.00,1.0744
5655.00,1.0635
5654.00,1.0520
5653.00,1.0402
5652.00,1.0283
5651.00,1.0162
5650.00,1.0041
5649.00,0.9918
5648.00,0.9791
5647.00,0.9662
5646.00,0.9531
5645.00,0.9399
5644.00,0.9266
5643.00,0.9132
5642.00,0.8996
5641.00,0.8859
5640.00,0.8722
5639.00,0.8587
5638.00,0.8453
5637.00,0.8322
5636.00,0.8193
5635.00,0.8066
5634.00,0.7940
5633.00,0.7817
5632.00,0.7697
5631.00,0.7582
5630.00,0.7472
5629.00,0.7367
5628.00,0.7268
5627.00,0.7175
5626.00,0.7089
5625.00,0.7009
5624.00,0.6936
5623.00,0.6869
5622.00,0.6810
5621.00,0.6758
5620.00,0.6714
5619.00,0.6678
5618.00,0.6650
5617.00,0.6630
5616.00,0.6618
5615.00,0.6614
5614.00,0.6620
5613.00,0.6635
5612.00,0.6660
5611.00,0.6692
5610.00,0.6732
5609.00,0.6780
5608.00,0.6836
5607.00,0.6898
5606.00,0.6968
5605.00,0.7042
5604.00,0.7122
5603.00,0.7207
5602.00,0.7297
5601.00,0.7392
5600.00,0.7492
5599.00,0.7596
5598.00,0.7705
5597.00,0.7816
5596.00,0.7930
5595.00,0.8046
5594.00,0.8163
5593.00,0.8282
5592.00,0.8402
5591.00,0.8522
5590.00,0.8645
5589.00,0.8770
5588.00,0.8897
5587.00,0.9024
5586.00,0.9152
5585.00,0.9278
5584.00,0.9404
5583.00,0.9530
5582.00,0.9654
5581.00,0.9777
5580.00,0.9899
5579.00,1.0019
5578.00,1.0138
5577.00,1.0256
5576.00,1.0372
5575.00,1.0485
5574.00,1.0594
5573.00,1.0699
5572.00,1.0800
5571.00,1.0900
5570.00,1.0998
5569.00,1.1096
5568.00,1.1193
5567.00,1.1289
5566.00,1.1381
5565.00,1.1469
5564.00,1.1552
5563.00,1.1633
5562.00,1.1711
5561.00,1.1783
5560.00,1.1849
5559.00,1.1909
5558.00,1.1965
5557.00,1.2019
5556.00,1.2070
5555.00,1.2116
5554.00,1.2160
5553.00,1.2200
5552.00,1.2234
5551.00,1.2264
5550.00,1.2293
5549.00,1.2323
5548.00,1.2354
5547.00,1.2381
5546.00,1.2401
5545.00,1.2414
5544.00,1.2418
5543.00,1.2417
5542.00,1.2410
5541.00,1.2400
5540.00,1.2387
5539.00,1.2372
5538.00,1.2356
5537.00,1.2337
5536.00,1.2316
5535.00,1.2291
5534.00,1.2261
5533.00,1.2225
5532.00,1.2184
5531.00,1.2136
5530.00,1.2084
5529.00,1.2027
5528.00,1.1968
5527.00,1.1907
5526.00,1.1843
5525.00,1.1775
5524.00,1.1704
5523.00,1.1628
5522.00,1.1547
5521.00,1.1462
5520.00,1.1372
5519.00,1.1279
5518.00,1.1184
5517.00,1.1085
5516.00,1.0982
5515.00,1.0875
5514.00,1.0765
5513.00,1.0651
5512.00,1.0533
5511.00,1.0412
5510.00,1.0286
5509.00,1.0158
5508.00,1.0028
5507.00,0.9898
5506.00,0.9766
5505.00,0.9632
5504.00,0.9496
5503.00,0.9358
5502.00,0.9218
5501.00,0.9076
5500.00,0.8935
5499.00,0.8797
5498.00,0.8661
5497.00,0.8528
5496.00,0.8395
5495.00,0.8264
5494.00,0.8134
5493.00,0.8006
5492.00,0.7880
5491.00,0.7757
5490.00,0.7641
5489.00,0.7530
5488.00,0.7427
5487.00,0.7329
5486.00,0.7240
5485.00,0.7159
5484.00,0.7087
5483.00,0.7021
5482.00,0.6962
5481.00,0.6910
5480.00,0.6864
5479.00,0.6825
5478.00,0.6795
5477.00,0.6774
5476.00,0.6762
5475.00,0.6760
5474.00,0.6765
5473.00,0.6779
5472.00,0.6801
5471.00,0.6832
5470.00,0.6873
5469.00,0.6923
5468.00,0.6982
5467.00,0.7048
5466.00,0.7121
5465.00,0.7199
5464.00,0.7281
5463.00,0.7368
5462.00,0.7462
5461.00,0.7562
5460.00,0.7666
5459.00,0.7774
5458.00,0.7887
5457.00,0.8004
5456.00,0.8125
5455.00,0.8248
5454.00,0.8374
5453.00,0.8501
5452.00,0.8629
5451.00,0.8757
5450.00,0.8886
5449.00,0.9014
5448.00,0.9143
5447.00,0.9272
5446.00,0.9402
5445.00,0.9533
5444.00,0.9663
5443.00,0.9792
5442.00,0.9920
5441.00,1.0049
5440.00,1.0177
5439.00,1.0302
5438.00,1.0424
5437.00,1.0544
5436.00,1.0660
5435.00,1.0775
5434.00,1.0886
5433.00,1.0995
5432.00,1.1100
5431.00,1.1200
5430.00,1.1299
5429.00,1.1397
5428.00,1.1494
5427.00,1.1589
5426.00,1.1680
5425.00,1.1768
5424.00,1.1850
5423.00,1.1928
5422.00,1.2001
5421.00,1.2071
5420.00,1.2138
5419.00,1.2201
5418.00,1.2258
5417.00,1.2309
5416.00,1.2356
5415.00,1.2401
5414.00,1.2443
5413.00,1.2481
5412.00,1.2516
5411.00,1.2549
5410.00,1.2581
5409.00,1.2610
5408.00,1.2634
5407.00,1.2651
5406.00,1.2663
5405.00,1.2672
5404.00,1.2677
5403.00,1.2679
5402.00,1.2678
5401.00,1.2673
5400.00,1.2664
5399.00,1.2648
5398.00,1.2624
5397.00,1.2595
5396.00,1.2563
5395.00,1.2530
5394.00,1.2495
5393.00,1.2458
5392.00,1.2417
5391.00,1.2370
5390.00,1.2318
5389.00,1.2261
5388.00,1.2200
5387.00,1.2136
5386.00,1.2068
5385.00,1.1997
5384.00,1.1922
5383.00,1.1843
5382.00,1.1758
5381.00,1.1669
5380.00,1.1575
5379.00,1.1478
5378.00,1.1377
5377.00,1.1272
5376.00,1.1162
5375.00,1.1048
5374.00,1.0931
5373.00,1.0811
5372.00,1.0687
5371.00,1.0561
5370.00,1.0430
5369.00,1.0296
5368.00,1.0160
5367.00,1.0021
5366.00,0.9881
5365.00,0.9739
5364.00,0.9596
5363.00,0.9451
5362.00,0.9304
5361.00,0.9158
5360.00,0.9012
5359.00,0.8865
5358.00,0.8720
5357.00,0.8575
5356.00,0.8432
5355.00,0.8289
5354.00,0.8149
5353.00,0.8013
5352.00,0.7882
5351.00,0.7756
5350.00,0.7635
5349.00,0.7519
5348.00,0.7409
5347.00,0.7304
5346.00,0.7206
5345.00,0.7116
5344.00,0.7034
5343.00,0.6958
5342.00,0.6890
5341.00,0.6831
5340.00,0.6784
5339.00,0.6746
5338.00,0.6717
5337.00,0.6698
5336.00,0.6688
5335.00,0.6688
5334.00,0.6696
5333.00,0.6715
5332.00,0.6742
5331.00,0.6777
5330.00,0.6821
5329.00,0.6873
5328.00,0.6935
5327.00,0.7005
5326.00,0.7082
5325.00,0.7166
5324.00,0.7256
5323.00,0.7350
5322.00,0.7450
5321.00,0.7557
5320.00,0.7669
5319.00,0.7786
5318.00,0.7907
5317.00,0.8033
5316.00,0.8162
5315.00,0.8293
5314.00,0.8427
5313.00,0.8562
5312.00,0.8696
5311.00,0.8831
5310.00,0.8965
5309.00,0.9100
5308.00,0.9236
5307.00,0.9374
5306.00,0.9513
5305.00,0.9653
5304.00,0.9793
5303.00,0.9930
5302.00,1.0066
5301.00,1.0202
5300.00,1.0336
5299.00,1.0468
5298.00,1.0597
5297.00,1.0723
5296.00,1.0846
5295.00,1.0967
5294.00,1.1085
5293.00,1.1201
5292.00,1.1315
5291.00,1.1425
5290.00,1.1531
5289.00,1.1634
5288.00,1.1734
5287.00,1.1830
5286.00,1.1923
5285.00,1.2013
5284.00,1.2100
5283.00,1.2183
5282.00,1.2265
5281.00,1.2344
5280.00,1.2419
5279.00,1.2489
5278.00,1.2554
5277.00,1.2613
5276.00,1.2666
5275.00,1.2715
5274.00,1.2761
5273.00,1.2804
5272.00,1.2841
5271.00,1.2875
5270.00,1.2906
5269.00,1.2934
5268.00,1.2959
5267.00,1.2980
5266.00,1.2997
5265.00,1.3010
5264.00,1.3019
5263.00,1.3021
5262.00,1.3018
5261.00,1.3013
5260.00,1.3004
5259.00,1.2991
5258.00,1.2973
5257.00,1.2952
5256.00,1.2928
5255.00,1.2899
5254.00,1.2866
5253.00,1.2827
5252.00,1.2785
5251.00,1.2740
5250.00,1.2693
5249.00,1.2644
5248.00,1.2591
5247.00,1.2532
5246.00,1.2467
5245.00,1.2395
5244.00,1.2319
5243.00,1.2240
5242.00,1.2159
5241.00,1.2075
5240.00,1.1987
5239.00,1.1893
5238.00,1.1794
5237.00,1.1691
5236.00,1.1584
5235.00,1.1476
5234.00,1.1365
5233.00,1.1249
5232.00,1.1127
5231.00,1.0999
5230.00,1.0866
5229.00,1.0730
5228.00,1.0592
5227.00,1.0452
5226.00,1.0309
5225.00,1.0163
5224.00,1.0014
5223.00,0.9863
5222.00,0.9711
5221.00,0.9559
5220.00,0.9407
5219.00,0.9254
5218.00,0.9103
5217.00,0.8952
5216.00,0.8804
5215.00,0.8658
5214.00,0.8515
5213.00,0.8375
5212.00,0.8239
5211.00,0.8106
5210.00,0.7977
5209.00,0.7851
5208.00,0.7729
5207.00,0.7613
5206.00,0.7505
5205.00,0.7405
5204.00,0.7315
5203.00,0.7235
5202.00,0.7167
5201.00,0.7109
5200.00,0.7062
5199.00,0.7026
5198.00,0.6999
5197.00,0.6982
5196.00,0.6971
5195.00,0.6968
5194.00,0.6970
5193.00,0.6980
5192.00,0.6997
5191.00,0.7021
5190.00,0.7053
5189.00,0.7093
5188.00,0.7142
5187.00,0.7199
5186.00,0.7265
5185.00,0.7339
5184.00,0.7422
5183.00,0.7512
5182.00,0.7610
5181.00,0.7715
5180.00,0.7826
5179.00,0.7943
5178.00,0.8065
5177.00,0.8191
5176.00,0.8319
5175.00,0.8451
5174.00,0.8586
5173.00,0.8723
5172.00,0.8863
5171.00,0.9004
5170.00,0.9148
5169.00,0.9292
5168.00,0.9436
5167.00,0.9580
5166.00,0.9723
5165.00,0.9865
5164.00,1.0006
5163.00,1.0146
5162.00,1.0285
5161.00,1.0424
5160.00,1.0562
5159.00,1.0697
5158.00,1.0832
5157.00,1.0964
5156.00,1.1093
5155.00,1.1219
5154.00,1.1342
5153.00,1.1462
5152.00,1.1578
5151.00,1.1691
5150.00,1.1801
5149.00,1.1909
5148.00,1.2013
5147.00,1.2114
5146.00,1.2210
5145.00,1.2302
5144.00,1.2389
5143.00,1.2473
5142.00,1.2553
5141.00,1.2629
5140.00,1.2701
5139.00,1.2770
5138.00,1.2835
5137.00,1.2896
5136.00,1.2953
5135.00,1.3005
5134.00,1.3051
5133.00,1.3093
5132.00,1.3131
5131.00,1.3166
5130.00,1.3197
5129.00,1.3224
5128.00,1.3246
5127.00,1.3262
5126.00,1.3275
5125.00,1.3286
5124.00,1.3296
5123.00,1.3302
5122.00,1.3304
5121.00,1.3300
5120.00,1.3290
5119.00,1.3275
5118.00,1.3254
5117.00,1.3229
5116.00,1.3200
5115.00,1.3169
5114.00,1.3135
5113.00,1.3098
5112.00,1.3057
5111.00,1.3011
5110.00,1.2961
5109.00,1.2905
5108.00,1.2844
5107.00,1.2778
5106.00,1.2707
5105.00,1.2630
5104.00,1.2550
5103.00,1.2468
5102.00,1.2384
5101.00,1.2298
5100.00,1.2206
5099.00,1.2108
5098.00,1.2003
5097.00,1.1894
5096.00,1.1780
5095.00,1.1664
5094.00,1.1544
5093.00,1.1419
5092.00,1.1288
5091.00,1.1152
5090.00,1.1012
5089.00,1.0870
5088.00,1.0725
5087.00,1.0579
5086.00,1.0430
5085.00,1.0278
5084.00,1.0121
5083.00,0.9961
5082.00,0.9800
5081.00,0.9639
5080.00,0.9477
5079.00,0.9315
5078.00,0.9153
5077.00,0.8993
5076.00,0.8835
5075.00,0.8679
5074.00,0.8525
5073.00,0.8374
5072.00,0.8226
5071.00,0.8083
5070.00,0.7945
5069.00,0.7814
5068.00,0.7689
5067.00,0.7572
5066.00,0.7461
5065.00,0.7358
5064.00,0.7262
5063.00,0.7175
5062.00,0.7097
5061.00,0.7028
5060.00,0.6969
5059.00,0.6920
5058.00,0.6881
5057.00,0.6853
5056.00,0.6834
5055.00,0.6827
5054.00,0.6829
5053.00,0.6842
5052.00,0.6866
5051.00,0.6900
5050.00,0.6946
5049.00,0.7001
5048.00,0.7066
5047.00,0.7139
5046.00,0.7221
5045.00,0.7310
5044.00,0.7406
5043.00,0.7509
5042.00,0.7620
5041.00,0.7737
5040.00,0.7859
5039.00,0.7987
5038.00,0.8120
5037.00,0.8257
5036.00,0.8396
5035.00,0.8538
5034.00,0.8683
5033.00,0.8830
5032.00,0.8978
5031.00,0.9128
5030.00,0.9279
5029.00,0.9431
5028.00,0.9583
5027.00,0.9736
5026.00,0.9889
5025.00,1.0041
5024.00,1.0193
5023.00,1.0342
5022.00,1.0489
5021.00,1.0635
5020.00,1.0779
5019.00,1.0922
5018.00,1.1063
5017.00,1.1201
5016.00,1.1336
5015.00,1.1468
5014.00,1.1597
5013.00,1.1724
5012.00,1.1847
5011.00,1.1967
5010.00,1.2081
5009.00,1.2189
5008.00,1.2295
5007.00,1.2398
5006.00,1.2501
5005.00,1.2601
5004.00,1.2696
5003.00,1.2786
5002.00,1.2870
5001.00,1.2950
5000.00,1.3026
4999.00,1.3096
4998.00,1.3162
4997.00,1.3223
4996.00,1.3279
4995.00,1.3331
4994.00,1.3380
4993.00,1.3427
4992.00,1.3471
4991.00,1.3511
4990.00,1.3548
4989.00,1.3580
4988.00,1.3605
4987.00,1.3625
4986.00,1.3639
4985.00,1.3648
4984.00,1.3654
4983.00,1.3658
4982.00,1.3660
4981.00,1.3659
4980.00,1.3654
4979.00,1.3645
4978.00,1.3632
4977.00,1.3613
4976.00,1.3588
4975.00,1.3557
4974.00,1.3522
4973.00,1.3486
4972.00,1.3446
4971.00,1.3402
4970.00,1.3354
4969.00,1.3300
4968.00,1.3240
4967.00,1.3173
4966.00,1.3103
4965.00,1.3030
4964.00,1.2955
4963.00,1.2875
4962.00,1.2792
4961.00,1.2705
4960.00,1.2613
4959.00,1.2514
4958.00,1.2409
4957.00,1.2299
4956.00,1.2187
4955.00,1.2071
4954.00,1.1953
4953.00,1.1830
4952.00,1.1701
4951.00,1.1566
4950.00,1.1425
4949.00,1.1279
4948.00,1.1132
4947.00,1.0982
4946.00,1.0829
4945.00,1.0674
4944.00,1.0514
4943.00,1.0351
4942.00,1.0185
4941.00,1.0017
4940.00,0.9849
4939.00,0.9680
4938.00,0.9511
4937.00,0.9341
4936.00,0.9171
4935.00,0.9003
4934.00,0.8837
4933.00,0.8674
4932.00,0.8514
4931.00,0.8357
4930.00,0.8206
4929.00,0.8060
4928.00,0.7920
4927.00,0.7788
4926.00,0.7663
4925.00,0.7546
4924.00,0.7438
4923.00,0.7338
4922.00,0.7249
4921.00,0.7170
4920.00,0.7102
4919.00,0.7045
4918.00,0.6999
4917.00,0.6964
4916.00,0.6941
4915.00,0.6929
4914.00,0.6929
4913.00,0.6941
4912.00,0.6965
4911.00,0.7000
4910.00,0.7046
4909.00,0.7102
4908.00,0.7169
4907.00,0.7245
4906.00,0.7331
4905.00,0.7426
4904.00,0.7530
4903.00,0.7641
4902.00,0.7760
4901.00,0.7885
4900.00,0.8016
4899.00,0.8152
4898.00,0.8292
4897.00,0.8436
4896.00,0.8582
4895.00,0.8732
4894.00,0.8885
4893.00,0.9041
4892.00,0.9198
4891.00,0.9357
4890.00,0.9516
4889.00,0.9675
4888.00,0.9835
4887.00,0.9994
4886.00,1.0153
4885.00,1.0312
4884.00,1.0469
4883.00,1.0625
4882.00,1.0779
4881.00,1.0931
4880.00,1.1080
4879.00,1.1227
4878.00,1.1370
4877.00,1.1511
4876.00,1.1649
4875.00,1.1785
4874.00,1.1918
4873.00,1.2047
4872.00,1.2173
4871.00,1.2295
4870.00,1.2414
4869.00,1.2530
4868.00,1.2644
4867.00,1.2752
4866.00,1.2855
4865.00,1.2953
4864.00,1.3045
4863.00,1.3133
4862.00,1.3217
4861.00,1.3296
4860.00,1.3372
4859.00,1.3444
4858.00,1.3513
4857.00,1.3579
4856.00,1.3638
4855.00,1.3692
4854.00,1.3739
4853.00,1.3782
4852.00,1.3823
4851.00,1.3862
4850.00,1.3897
4849.00,1.3928
4848.00,1.3953
4847.00,1.3972
4846.00,1.3985
4845.00,1.3992
4844.00,1.3995
4843.00,1.3996
4842.00,1.3995
4841.00,1.3993
4840.00,1.3989
4839.00,1.3978
4838.00,1.3961
4837.00,1.3937
4836.00,1.3907
4835.00,1.3874
4834.00,1.3839
4833.00,1.3802
4832.00,1.3762
4831.00,1.3717
4830.00,1.3666
4829.00,1.3608
4828.00,1.3545
4827.00,1.3478
4826.00,1.3409
4825.00,1.3335
4824.00,1.3257
4823.00,1.3174
4822.00,1.3085
4821.00,1.2992
4820.00,1.2896
4819.00,1.2796
4818.00,1.2691
4817.00,1.2580
4816.00,1.2463
4815.00,1.2341
4814.00,1.2215
4813.00,1.2085
4812.00,1.1950
4811.00,1.1809
4810.00,1.1663
4809.00,1.1513
4808.00,1.1358
4807.00,1.1201
4806.00,1.1040
4805.00,1.0875
4804.00,1.0706
4803.00,1.0532
4802.00,1.0357
4801.00,1.0179
4800.00,1.0001
4799.00,0.9822
4798.00,0.9643
4797.00,0.9464
4796.00,0.9285
4795.00,0.9106
4794.00,0.8930
4793.00,0.8758
4792.00,0.8590
4791.00,0.8427
4790.00,0.8269
4789.00,0.8117
4788.00,0.7971
4787.00,0.7832
4786.00,0.7702
4785.00,0.7581
4784.00,0.7468
4783.00,0.7364
4782.00,0.7271
4781.00,0.7189
4780.00,0.7119
4779.00,0.7060
4778.00,0.7013
4777.00,0.6978
4776.00,0.6955
4775.00,0.6945
4774.00,0.6948
4773.00,0.6964
4772.00,0.6992
4771.00,0.7033
4770.00,0.7085
4769.00,0.7149
4768.00,0.7223
4767.00,0.7308
4766.00,0.7402
4765.00,0.7505
4764.00,0.7617
4763.00,0.7736
4762.00,0.7864
4761.00,0.7999
4760.00,0.8140
4759.00,0.8286
4758.00,0.8436
4757.00,0.8590
4756.00,0.8747
4755.00,0.8908
4754.00,0.9073
4753.00,0.9239
4752.00,0.9407
4751.00,0.9575
4750.00,0.9743
4749.00,0.9912
4748.00,1.0081
4747.00,1.0249
4746.00,1.0417
4745.00,1.0583
4744.00,1.0747
4743.00,1.0909
4742.00,1.1070
4741.00,1.1229
4740.00,1.1385
4739.00,1.1539
4738.00,1.1690
4737.00,1.1839
4736.00,1.1985
4735.00,1.2129
4734.00,1.2269
4733.00,1.2405
4732.00,1.2535
4731.00,1.2661
4730.00,1.2783
4729.00,1.2901
4728.00,1.3015
4727.00,1.3125
4726.00,1.3230
4725.00,1.3332
4724.00,1.3430
4723.00,1.3524
4722.00,1.3614
4721.00,1.3698
4720.00,1.3778
4719.00,1.3853
4718.00,1.3924
4717.00,1.3990
4716.00,1.4050
4715.00,1.4104
4714.00,1.4154
4713.00,1.4201
4712.00,1.4245
4711.00,1.4285
4710.00,1.4320
4709.00,1.4349
4708.00,1.4373
4707.00,1.4394
4706.00,1.4412
4705.00,1.4428
4704.00,1.4439
4703.00,1.4446
4702.00,1.4446
4701.00,1.4441
4700.00,1.4430
4699.00,1.4415
4698.00,1.4395
4697.00,1.4372
4696.00,1.4346
4695.00,1.4318
4694.00,1.4286
4693.00,1.4249
4692.00,1.4206
4691.00,1.4159
4690.00,1.4107
4689.00,1.4052
4688.00,1.3994
4687.00,1.3931
4686.00,1.3863
4685.00,1.3788
4684.00,1.3708
4683.00,1.3621
4682.00,1.3531
4681.00,1.3436
4680.00,1.3338
4679.00,1.3237
4678.00,1.3130
4677.00,1.3016
4676.00,1.2897
4675.00,1.2773
4674.00,1.2643
4673.00,1.2510
4672.00,1.2371
4671.00,1.2227
4670.00,1.2080
4669.00,1.1928
4668.00,1.1772
4667.00,1.1611
4666.00,1.1445
4665.00,1.1274
4664.00,1.1098
4663.00,1.0918
4662.00,1.0736
4661.00,1.0552
4660.00,1.0366
4659.00,1.0178
4658.00,0.9989
4657.00,0.9799
4656.00,0.9609
4655.00,0.9419
4654.00,0.9231
4653.00,0.9046
4652.00,0.8864
4651.00,0.8687
4650.00,0.8515
4649.00,0.8349
4648.00,0.8189
4647.00,0.8037
4646.00,0.7894
4645.00,0.7761
4644.00,0.7638
4643.00,0.7526
4642.00,0.7424
4641.00,0.7334
4640.00,0.7256
4639.00,0.7191
4638.00,0.7139
4637.00,0.7101
4636.00,0.7077
4635.00,0.7067
4634.00,0.7071
4633.00,0.7089
4632.00,0.7120
4631.00,0.7164
4630.00,0.7222
4629.00,0.7292
4628.00,0.7375
4627.00,0.7468
4626.00,0.7572
4625.00,0.7686
4624.00,0.7809
4623.00,0.7940
4622.00,0.8078
4621.00,0.8223
4620.00,0.8373
4619.00,0.8529
4618.00,0.8691
4617.00,0.8857
4616.00,0.9026
4615.00,0.9197
4614.00,0.9370
4613.00,0.9545
4612.00,0.9723
4611.00,0.9902
4610.00,1.0081
4609.00,1.0259
4608.00,1.0436
4607.00,1.0612
4606.00,1.0786
4605.00,1.0959
4604.00,1.1130
4603.00,1.1298
4602.00,1.1464
4601.00,1.1628
4600.00,1.1790
4599.00,1.1950
4598.00,1.2107
4597.00,1.2261
4596.00,1.2411
4595.00,1.2556
4594.00,1.2698
4593.00,1.2837
4592.00,1.2973
4591.00,1.3104
4590.00,1.3231
4589.00,1.3354
4588.00,1.3472
4587.00,1.3586
4586.00,1.3694
4585.00,1.3796
4584.00,1.3894
4583.00,1.3985
4582.00,1.4072
4581.00,1.4154
4580.00,1.4232
4579.00,1.4306
4578.00,1.4376
4577.00,1.4442
4576.00,1.4501
4575.00,1.4554
4574.00,1.4602
4573.00,1.4645
4572.00,1.4685
4571.00,1.4721
4570.00,1.4753
4569.00,1.4780
4568.00,1.4800
4567.00,1.4817
4566.00,1.4830
4565.00,1.4840
4564.00,1.4847
4563.00,1.4849
4562.00,1.4847
4561.00,1.4839
4560.00,1.4825
4559.00,1.4807
4558.00,1.4786
4557.00,1.4762
4556.00,1.4734
4555.00,1.4701
4554.00,1.4662
4553.00,1.4617
4552.00,1.4566
4551.00,1.4509
4550.00,1.4448
4549.00,1.4385
4548.00,1.4319
4547.00,1.4249
4546.00,1.4174
4545.00,1.4094
4544.00,1.4008
4543.00,1.3917
4542.00,1.3823
4541.00,1.3726
4540.00,1.3625
4539.00,1.3519
4538.00,1.3410
4537.00,1.3296
4536.00,1.3178
4535.00,1.3056
4534.00,1.2930
4533.00,1.2799
4532.00,1.2662
4531.00,1.2518
4530.00,1.2368
4529.00,1.2212
4528.00,1.2052
4527.00,1.1888
4526.00,1.1720
4525.00,1.1546
4524.00,1.1368
4523.00,1.1185
4522.00,1.0998
4521.00,1.0808
4520.00,1.0614
4519.00,1.0418
4518.00,1.0219
4517.00,1.0019
4516.00,0.9820
4515.00,0.9623
4514.00,0.9428
4513.00,0.9237
4512.00,0.9049
4511.00,0.8865
4510.00,0.8688
4509.00,0.8518
4508.00,0.8356
4507.00,0.8204
4506.00,0.8062
4505.00,0.7930
4504.00,0.7810
4503.00,0.7701
4502.00,0.7605
4501.00,0.7523
4500.00,0.7455
4499.00,0.7402
4498.00,0.7363
4497.00,0.7340
4496.00,0.7331
4495.00,0.7337
4494.00,0.7359
4493.00,0.7396
4492.00,0.7448
4491.00,0.7513
4490.00,0.7592
4489.00,0.7683
4488.00,0.7786
4487.00,0.7900
4486.00,0.8024
4485.00,0.8157
4484.00,0.8297
4483.00,0.8445
4482.00,0.8598
4481.00,0.8758
4480.00,0.8923
4479.00,0.9093
4478.00,0.9268
4477.00,0.9445
4476.00,0.9625
4475.00,0.9805
4474.00,0.9986
4473.00,1.0167
4472.00,1.0349
4471.00,1.0531
4470.00,1.0713
4469.00,1.0894
4468.00,1.1073
4467.00,1.1252
4466.00,1.1430
4465.00,1.1607
4464.00,1.1783
4463.00,1.1956
4462.00,1.2127
4461.00,1.2297
4460.00,1.2465
4459.00,1.2631
4458.00,1.2795
4457.00,1.2954
4456.00,1.3109
4455.00,1.3259
4454.00,1.3402
4453.00,1.3541
4452.00,1.3676
4451.00,1.3808
4450.00,1.3937
4449.00,1.4062
4448.00,1.4182
4447.00,1.4294
4446.00,1.4400
4445.00,1.4499
4444.00,1.4594
4443.00,1.4684
4442.00,1.4771
4441.00,1.4851
4440.00,1.4926
4439.00,1.4994
4438.00,1.5055
4437.00,1.5110
4436.00,1.5160
4435.00,1.5206
4434.00,1.5248
4433.00,1.5286
4432.00,1.5319
4431.00,1.5346
4430.00,1.5369
4429.00,1.5389
4428.00,1.5406
4427.00,1.5422
4426.00,1.5435
4425.00,1.5446
4424.00,1.5453
4423.00,1.5454
4422.00,1.5450
4421.00,1.5442
4420.00,1.5430
4419.00,1.5416
4418.00,1.5398
4417.00,1.5374
4416.00,1.5345
4415.00,1.5312
4414.00,1.5278
4413.00,1.5241
4412.00,1.5202
4411.00,1.5158
4410.00,1.5108
4409.00,1.5053
4408.00,1.4995
4407.00,1.4934
4406.00,1.4869
4405.00,1.4801
4404.00,1.4728
4403.00,1.4651
4402.00,1.4569
4401.00,1.4485
4400.00,1.4398
4399.00,1.4308
4398.00,1.4214
4397.00,1.4115
4396.00,1.4009
4395.00,1.3898
4394.00,1.3781
4393.00,1.3658
4392.00,1.3528
4391.00,1.3393
4390.00,1.3252
4389.00,1.3106
4388.00,1.2955
4387.00,1.2800
4386.00,1.2639
4385.00,1.2475
4384.00,1.2309
4383.00,1.2140
4382.00,1.1969
4381.00,1.1796
4380.00,1.1623
4379.00,1.1450
4378.00,1.1280
4377.00,1.1112
4376.00,1.0949
4375.00,1.0789
4374.00,1.0633
4373.00,1.0482
4372.00,1.0336
4371.00,1.0196
4370.00,1.0063
4369.00,0.9933
4368.00,0.9808
4367.00,0.9685
4366.00,0.9564
4365.00,0.9444
4364.00,0.9326
4363.00,0.9208
4362.00,0.9092
4361.00,0.8976
4360.00,0.8862
4359.00,0.8750
4358.00,0.8643
4357.00,0.8544
4356.00,0.8455
4355.00,0.8376
4354.00,0.8308
4353.00,0.8253
4352.00,0.8213
4351.00,0.8189
4350.00,0.8182
4349.00,0.8191
4348.00,0.8216
4347.00,0.8257
4346.00,0.8313
4345.00,0.8383
4344.00,0.8469
4343.00,0.8567
4342.00,0.8678
4341.00,0.8801
4340.00,0.8935
4339.00,0.9078
4338.00,0.9229
4337.00,0.9388
4336.00,0.9554
4335.00,0.9725
4334.00,0.9902
4333.00,1.0084
4332.00,1.0269
4331.00,1.0457
4330.00,1.0647
4329.00,1.0839
4328.00,1.1031
4327.00,1.1222
4326.00,1.1413
4325.00,1.1603
4324.00,1.1790
4323.00,1.1975
4322.00,1.2156
4321.00,1.2332
4320.00,1.2504
4319.00,1.2673
4318.00,1.2838
4317.00,1.2998
4316.00,1.3152
4315.00,1.3302
4314.00,1.3449
4313.00,1.3593
4312.00,1.3735
4311.00,1.3875
4310.00,1.4011
4309.00,1.4143
4308.00,1.4268
4307.00,1.4387
4306.00,1.4502
4305.00,1.4612
4304.00,1.4719
4303.00,1.4823
4302.00,1.4923
4301.00,1.5017
4300.00,1.5104
4299.00,1.5186
4298.00,1.5262
4297.00,1.5333
4296.00,1.5400
4295.00,1.5462
4294.00,1.5520
4293.00,1.5573
4292.00,1.5621
4291.00,1.5663
4290.00,1.5699
4289.00,1.5734
4288.00,1.5767
4287.00,1.5798
4286.00,1.5824
4285.00,1.5844
4284.00,1.5858
4283.00,1.5869
4282.00,1.5877
4281.00,1.5880
4280.00,1.5877
4279.00,1.5867
4278.00,1.5850
4277.00,1.5830
4276.00,1.5806
4275.00,1.5778
4274.00,1.5747
4273.00,1.5711
4272.00,1.5671
4271.00,1.5629
4270.00,1.5583
4269.00,1.5532
4268.00,1.5473
4267.00,1.5407
4266.00,1.5337
4265.00,1.5262
4264.00,1.5184
4263.00,1.5101
4262.00,1.5014
4261.00,1.4923
4260.00,1.4827
4259.00,1.4725
4258.00,1.4616
4257.00,1.4501
4256.00,1.4379
4255.00,1.4253
4254.00,1.4123
4253.00,1.3987
4252.00,1.3844
4251.00,1.3693
4250.00,1.3536
4249.00,1.3374
4248.00,1.3208
4247.00,1.3035
4246.00,1.2856
4245.00,1.2669
4244.00,1.2476
4243.00,1.2277
4242.00,1.2072
4241.00,1.1862
4240.00,1.1649
4239.00,1.1430
4238.00,1.1209
4237.00,1.0984
4236.00,1.0757
4235.00,1.0530
4234.00,1.0302
4233.00,1.0076
4232.00,0.9852
4231.00,0.9630
4230.00,0.9413
4229.00,0.9202
4228.00,0.8998
4227.00,0.8801
4226.00,0.8613
4225.00,0.8436
4224.00,0.8270
4223.00,0.8116
4222.00,0.7976
4221.00,0.7851
4220.00,0.7740
4219.00,0.7645
4218.00,0.7567
4217.00,0.7505
4216.00,0.7461
4215.00,0.7435
4214.00,0.7427
4213.00,0.7437
4212.00,0.7465
4211.00,0.7511
4210.00,0.7573
4209.00,0.7652
4208.00,0.7746
4207.00,0.7855
4206.00,0.7978
4205.00,0.8114
4204.00,0.8262
4203.00,0.8420
4202.00,0.8586
4201.00,0.8761
4200.00,0.8942
4199.00,0.9130
4198.00,0.9323
4197.00,0.9521
4196.00,0.9722
4195.00,0.9926
4194.00,1.0132
4193.00,1.0340
4192.00,1.0550
4191.00,1.0762
4190.00,1.0973
4189.00,1.1183
4188.00,1.1392
4187.00,1.1598
4186.00,1.1803
4185.00,1.2006
4184.00,1.2206
4183.00,1.2403
4182.00,1.2597
4181.00,1.2789
4180.00,1.2978
4179.00,1.3163
4178.00,1.3343
4177.00,1.3519
4176.00,1.3691
4175.00,1.3859
4174.00,1.4023
4173.00,1.4180
4172.00,1.4331
4171.00,1.4474
4170.00,1.4611
4169.00,1.4744
4168.00,1.4872
4167.00,1.4995
4166.00,1.5111
4165.00,1.5222
4164.00,1.5328
4163.00,1.5431
4162.00,1.5529
4161.00,1.5620
4160.00,1.5702
4159.00,1.5777
4158.00,1.5847
4157.00,1.5914
4156.00,1.5980
4155.00,1.6043
4154.00,1.6102
4153.00,1.6157
4152.00,1.6206
4151.00,1.6248
4150.00,1.6283
4149.00,1.6313
4148.00,1.6338
4147.00,1.6361
4146.00,1.6381
4145.00,1.6398
4144.00,1.6411
4143.00,1.6419
4142.00,1.6423
4141.00,1.6422
4140.00,1.6416
4139.00,1.6404
4138.00,1.6387
4137.00,1.6364
4136.00,1.6339
4135.00,1.6310
4134.00,1.6278
4133.00,1.6242
4132.00,1.6202
4131.00,1.6159
4130.00,1.6113
4129.00,1.6061
4128.00,1.6002
4127.00,1.5936
4126.00,1.5863
4125.00,1.5784
4124.00,1.5701
4123.00,1.5615
4122.00,1.5524
4121.00,1.5429
4120.00,1.5328
4119.00,1.5222
4118.00,1.5109
4117.00,1.4989
4116.00,1.4863
4115.00,1.4730
4114.00,1.4591
4113.00,1.4445
4112.00,1.4294
4111.00,1.4138
4110.00,1.3978
4109.00,1.3812
4108.00,1.3639
4107.00,1.3459
4106.00,1.3271
4105.00,1.3077
4104.00,1.2877
4103.00,1.2671
4102.00,1.2460
4101.00,1.2243
4100.00,1.2022
4099.00,1.1796
4098.00,1.1564
4097.00,1.1329
4096.00,1.1090
4095.00,1.0851
4094.00,1.0613
4093.00,1.0376
4092.00,1.0141
4091.00,0.9911
4090.00,0.9685
4089.00,0.9467
4088.00,0.9256
4087.00,0.9054
4086.00,0.8863
4085.00,0.8685
4084.00,0.8520
4083.00,0.8370
4082.00,0.8235
4081.00,0.8115
4080.00,0.8013
4079.00,0.7929
4078.00,0.7863
4077.00,0.7815
4076.00,0.7786
4075.00,0.7776
4074.00,0.7785
4073.00,0.7813
4072.00,0.7859
4071.00,0.7924
4070.00,0.8005
4069.00,0.8103
4068.00,0.8217
4067.00,0.8345
4066.00,0.8486
4065.00,0.8639
4064.00,0.8802
4063.00,0.8975
4062.00,0.9156
4061.00,0.9344
4060.00,0.9538
4059.00,0.9739
4058.00,0.9944
4057.00,1.0154
4056.00,1.0368
4055.00,1.0585
4054.00,1.0804
4053.00,1.1025
4052.00,1.1247
4051.00,1.1470
4050.00,1.1694
4049.00,1.1916
4048.00,1.2135
4047.00,1.2351
4046.00,1.2565
4045.00,1.2776
4044.00,1.2985
4043.00,1.3191
4042.00,1.3393
4041.00,1.3590
4040.00,1.3784
4039.00,1.3971
4038.00,1.4153
4037.00,1.4327
4036.00,1.4496
4035.00,1.4658
4034.00,1.4815
4033.00,1.4966
4032.00,1.5111
4031.00,1.5250
4030.00,1.5382
4029.00,1.5506
4028.00,1.5622
4027.00,1.5731
4026.00,1.5836
4025.00,1.5936
4024.00,1.6032
4023.00,1.6122
4022.00,1.6207
4021.00,1.6288
4020.00,1.6366
4019.00,1.6442
4018.00,1.6513
4017.00,1.6578
4016.00,1.6636
4015.00,1.6691
4014.00,1.6744
4013.00,1.6794
4012.00,1.6839
4011.00,1.6877
4010.00,1.6910
4009.00,1.6939
4008.00,1.6964
4007.00,1.6986
4006.00,1.7005
4005.00,1.7021
4004.00,1.7034
4003.00,1.7042
4002.00,1.7045
4001.00,1.7042
4000.00,1.7032
3999.00,1.7018
3998.00,1.6999
3997.00,1.6976
3996.00,1.6947
3995.00,1.6915
3994.00,1.6878
3993.00,1.6838
3992.00,1.6794
3991.00,1.6743
3990.00,1.6685
3989.00,1.6624
3988.00,1.6560
3987.00,1.6497
3986.00,1.6430
3985.00,1.6359
3984.00,1.6279
3983.00,1.6193
3982.00,1.6102
3981.00,1.6007
3980.00,1.5908
3979.00,1.5806
3978.00,1.5698
3977.00,1.5584
3976.00,1.5465
3975.00,1.5340
3974.00,1.5209
3973.00,1.5072
3972.00,1.4929
3971.00,1.4779
3970.00,1.4622
3969.00,1.4458
3968.00,1.4286
3967.00,1.4106
3966.00,1.3919
3965.00,1.3723
3964.00,1.3519
3963.00,1.3307
3962.00,1.3088
3961.00,1.2861
3960.00,1.2627
3959.00,1.2386
3958.00,1.2141
3957.00,1.1892
3956.00,1.1639
3955.00,1.1384
3954.00,1.1130
3953.00,1.0875
3952.00,1.0622
3951.00,1.0367
3950.00,1.0115
3949.00,0.9868
3948.00,0.9631
3947.00,0.9404
3946.00,0.9188
3945.00,0.8982
3944.00,0.8788
3943.00,0.8611
3942.00,0.8449
3941.00,0.8303
3940.00,0.8171
3939.00,0.8058
3938.00,0.7968
3937.00,0.7902
3936.00,0.7858
3935.00,0.7836
3934.00,0.7836
3933.00,0.7856
3932.00,0.7897
3931.00,0.7957
3930.00,0.8039
3929.00,0.8140
3928.00,0.8257
3927.00,0.8386
3926.00,0.8531
3925.00,0.8693
3924.00,0.8871
3923.00,0.9057
3922.00,0.9251
3921.00,0.9454
3920.00,0.9666
3919.00,0.9885
3918.00,1.0114
3917.00,1.0350
3916.00,1.0593
3915.00,1.0834
3914.00,1.1069
3913.00,1.1299
3912.00,1.1525
3911.00,1.1748
3910.00,1.1971
3909.00,1.2190
3908.00,1.2402
3907.00,1.2604
3906.00,1.2802
3905.00,1.3010
3904.00,1.3234
3903.00,1.3466
3902.00,1.3696
3901.00,1.3919
3900.00,1.4138
3899.00,1.4351
3898.00,1.4555
3897.00,1.4749
3896.00,1.4933
3895.00,1.5102
3894.00,1.5252
3893.00,1.5388
3892.00,1.5529
3891.00,1.5684
3890.00,1.5842
3889.00,1.5981
3888.00,1.6092
3887.00,1.6194
3886.00,1.6309
3885.00,1.6440
3884.00,1.6567
3883.00,1.6671
3882.00,1.6757
3881.00,1.6840
3880.00,1.6929
3879.00,1.7019
3878.00,1.7096
3877.00,1.7152
3876.00,1.7200
3875.00,1.7255
3874.00,1.7316
3873.00,1.7363
3872.00,1.7390
3871.00,1.7416
3870.00,1.7460
3869.00,1.7511
3868.00,1.7551
3867.00,1.7573
3866.00,1.7589
3865.00,1.7606
3864.00,1.7619
3863.00,1.7621
3862.00,1.7609
3861.00,1.7584
3860.00,1.7554
3859.00,1.7527
3858.00,1.7511
3857.00,1.7499
3856.00,1.7472
3855.00,1.7435
3854.00,1.7402
3853.00,1.7366
3852.00,1.7318
3851.00,1.7261
3850.00,1.7204
3849.00,1.7149
3848.00,1.7096
3847.00,1.7037
3846.00,1.6969
3845.00,1.6890
3844.00,1.6805
3843.00,1.6717
3842.00,1.6621
3841.00,1.6511
3840.00,1.6388
3839.00,1.6258
3838.00,1.6125
3837.00,1.5988
3836.00,1.5851
3835.00,1.5710
3834.00,1.5564
3833.00,1.5412
3832.00,1.5258
3831.00,1.5101
3830.00,1.4935
3829.00,1.4749
3828.00,1.4545
3827.00,1.4336
3826.00,1.4132
3825.00,1.3929
3824.00,1.3708
3823.00,1.3461
3822.00,1.3201
3821.00,1.2944
3820.00,1.2690
3819.00,1.2431
3818.00,1.2161
3817.00,1.1884
3816.00,1.1600
3815.00,1.1306
3814.00,1.1009
3813.00,1.0722
3812.00,1.0456
3811.00,1.0209
3810.00,0.9965
3809.00,0.9712
3808.00,0.9455
3807.00,0.9210
3806.00,0.8988
3805.00,0.8785
3804.00,0.8589
3803.00,0.8407
3802.00,0.8252
3801.00,0.8123
3800.00,0.8010
3799.00,0.7915
3798.00,0.7846
3797.00,0.7815
3796.00,0.7820
3795.00,0.7850
3794.00,0.7898
3793.00,0.7965
3792.00,0.8054
3791.00,0.8169
3790.00,0.8306
3789.00,0.8463
3788.00,0.8631
3787.00,0.8808
3786.00,0.8995
3785.00,0.9200
3784.00,0.9424
3783.00,0.9657
3782.00,0.9887
3781.00,1.0119
3780.00,1.0366
3779.00,1.0629
3778.00,1.0897
3777.00,1.1159
3776.00,1.1414
3775.00,1.1669
3774.00,1.1921
3773.00,1.2163
3772.00,1.2397
3771.00,1.2637
3770.00,1.2895
3769.00,1.3163
3768.00,1.3423
3767.00,1.3667
3766.00,1.3904
3765.00,1.4142
3764.00,1.4377
3763.00,1.4597
3762.00,1.4800
3761.00,1.4995
3760.00,1.5184
3759.00,1.5368
3758.00,1.5550
3757.00,1.5729
3756.00,1.5900
3755.00,1.6057
3754.00,1.6197
3753.00,1.6323
3752.00,1.6438
3751.00,1.6552
3750.00,1.6678
3749.00,1.6820
3748.00,1.6956
3747.00,1.7061
3746.00,1.7151
3745.00,1.7258
3744.00,1.7382
3743.00,1.7493
3742.00,1.7575
3741.00,1.7636
3740.00,1.7688
3739.00,1.7728
3738.00,1.7753
3737.00,1.7774
3736.00,1.7796
3735.00,1.7817
3734.00,1.7829
3733.00,1.7837
3732.00,1.7847
3731.00,1.7859
3730.00,1.7866
3729.00,1.7867
3728.00,1.7870
3727.00,1.7878
3726.00,1.7889
3725.00,1.7897
3724.00,1.7902
3723.00,1.7910
3722.00,1.7922
3721.00,1.7933
3720.00,1.7936
3719.00,1.7934
3718.00,1.7935
3717.00,1.7938
3716.00,1.7935
3715.00,1.7914
3714.00,1.7873
3713.00,1.7818
3712.00,1.7751
3711.00,1.7669
3710.00,1.7568
3709.00,1.7453
3708.00,1.7334
3707.00,1.7219
3706.00,1.7109
3705.00,1.6997
3704.00,1.6879
3703.00,1.6755
3702.00,1.6629
3701.00,1.6501
3700.00,1.6367
3699.00,1.6224
3698.00,1.6076
3697.00,1.5927
3696.00,1.5776
3695.00,1.5622
3694.00,1.5466
3693.00,1.5308
3692.00,1.5140
3691.00,1.4957
3690.00,1.4762
3689.00,1.4558
3688.00,1.4345
3687.00,1.4129
3686.00,1.3915
3685.00,1.3708
3684.00,1.3505
3683.00,1.3297
3682.00,1.3077
3681.00,1.2858
3680.00,1.2653
3679.00,1.2457
3678.00,1.2252
3677.00,1.2037
3676.00,1.1830
3675.00,1.1642
3674.00,1.1475
3673.00,1.1325
3672.00,1.1188
3671.00,1.1073
3670.00,1.0979
3669.00,1.0900
3668.00,1.0832
3667.00,1.0779
3666.00,1.0744
3665.00,1.0729
3664.00,1.0727
3663.00,1.0734
3662.00,1.0753
3661.00,1.0789
3660.00,1.0840
3659.00,1.0897
3658.00,1.0958
3657.00,1.1029
3656.00,1.1116
3655.00,1.1216
3654.00,1.1320
3653.00,1.1429
3652.00,1.1545
3651.00,1.1677
3650.00,1.1827
3649.00,1.1992
3648.00,1.2164
3647.00,1.2339
3646.00,1.2513
3645.00,1.2682
3644.00,1.2850
3643.00,1.3020
3642.00,1.3193
3641.00,1.3364
3640.00,1.3532
3639.00,1.3700
3638.00,1.3870
3637.00,1.4032
3636.00,1.4181
3635.00,1.4324
3634.00,1.4471
3633.00,1.4625
3632.00,1.4772
3631.00,1.4908
3630.00,1.5056
3629.00,1.5234
3628.00,1.5429
3627.00,1.5615
3626.00,1.5779
3625.00,1.5927
3624.00,1.6072
3623.00,1.6219
3622.00,1.6364
3621.00,1.6508
3620.00,1.6659
3619.00,1.6820
3618.00,1.6985
3617.00,1.7143
3616.00,1.7287
3615.00,1.7420
3614.00,1.7547
3613.00,1.7672
3612.00,1.7793
3611.00,1.7908
3610.00,1.8015
3609.00,1.8115
3608.00,1.8205
3607.00,1.8283
3606.00,1.8351
3605.00,1.8416
3604.00,1.8480
3603.00,1.8542
3602.00,1.8603
3601.00,1.8664
3600.00,1.8727
3599.00,1.8789
3598.00,1.8844
3597.00,1.8893
3596.00,1.8937
3595.00,1.8980
3594.00,1.9022
3593.00,1.9065
3592.00,1.9111
3591.00,1.9158
3590.00,1.9199
3589.00,1.9236
3588.00,1.9273
3587.00,1.9308
3586.00,1.9337
3585.00,1.9358
3584.00,1.9375
3583.00,1.9387
3582.00,1.9392
3581.00,1.9393
3580.00,1.9393
3579.00,1.9391
3578.00,1.9383
3577.00,1.9362
3576.00,1.9332
3575.00,1.9298
3574.00,1.9263
3573.00,1.9231
3572.00,1.9198
3571.00,1.9160
3570.00,1.9112
3569.00,1.9052
3568.00,1.8988
3567.00,1.8922
3566.00,1.8851
3565.00,1.8776
3564.00,1.8700
3563.00,1.8623
3562.00,1.8546
3561.00,1.8465
3560.00,1.8377
3559.00,1.8284
3558.00,1.8187
3557.00,1.8085
3556.00,1.7979
3555.00,1.7865
3554.00,1.7744
3553.00,1.7619
3552.00,1.7493
3551.00,1.7366
3550.00,1.7238
3549.00,1.7107
3548.00,1.6972
3547.00,1.6832
3546.00,1.6684
3545.00,1.6528
3544.00,1.6368
3543.00,1.6205
3542.00,1.6042
3541.00,1.5876
3540.00,1.5707
3539.00,1.5532
3538.00,1.5352
3537.00,1.5167
3536.00,1.4976
3535.00,1.4782
3534.00,1.4585
3533.00,1.4387
3532.00,1.4188
3531.00,1.3988
3530.00,1.3785
3529.00,1.3582
3528.00,1.3380
3527.00,1.3182
3526.00,1.2987
3525.00,1.2795
3524.00,1.2606
3523.00,1.2425
3522.00,1.2253
3521.00,1.2091
3520.00,1.1940
3519.00,1.1804
3518.00,1.1682
3517.00,1.1575
3516.00,1.1483
3515.00,1.1408
3514.00,1.1351
3513.00,1.1314
3512.00,1.1295
3511.00,1.1294
3510.00,1.1313
3509.00,1.1352
3508.00,1.1410
3507.00,1.1486
3506.00,1.1577
3505.00,1.1683
3504.00,1.1805
3503.00,1.1943
3502.00,1.2097
3501.00,1.2262
3500.00,1.2437
3499.00,1.2620
3498.00,1.2809
3497.00,1.3005
3496.00,1.3207
3495.00,1.3416
3494.00,1.3629
3493.00,1.3847
3492.00,1.4066
3491.00,1.4285
3490.00,1.4502
3489.00,1.4718
3488.00,1.4935
3487.00,1.5152
3486.00,1.5369
3485.00,1.5581
3484.00,1.5789
3483.00,1.5993
3482.00,1.6197
3481.00,1.6398
3480.00,1.6595
3479.00,1.6786
3478.00,1.6969
3477.00,1.7147
3476.00,1.7319
3475.00,1.7485
3474.00,1.7646
3473.00,1.7802
3472.00,1.7953
3471.00,1.8094
3470.00,1.8226
3469.00,1.8351
3468.00,1.8473
3467.00,1.8596
3466.00,1.8717
3465.00,1.8833
3464.00,1.8944
3463.00,1.9048
3462.00,1.9144
3461.00,1.9234
3460.00,1.9316
3459.00,1.9392
3458.00,1.9460
3457.00,1.9523
3456.00,1.9582
3455.00,1.9638
3454.00,1.9693
3453.00,1.9748
3452.00,1.9799
3451.00,1.9844
3450.00,1.9880
3449.00,1.9910
3448.00,1.9940
3447.00,1.9971
3446.00,1.9996
3445.00,2.0009
3444.00,2.0014
3443.00,2.0018
3442.00,2.0023
3441.00,2.0025
3440.00,2.0020
3439.00,2.0009
3438.00,1.9994
3437.00,1.9977
3436.00,1.9956
3435.00,1.9927
3434.00,1.9891
3433.00,1.9848
3432.00,1.9803
3431.00,1.9755
3430.00,1.9706
3429.00,1.9653
3428.00,1.9598
3427.00,1.9536
3426.00,1.9468
3425.00,1.9392
3424.00,1.9310
3423.00,1.9223
3422.00,1.9129
3421.00,1.9031
3420.00,1.8927
3419.00,1.8819
3418.00,1.8706
3417.00,1.8589
3416.00,1.8466
3415.00,1.8334
3414.00,1.8192
3413.00,1.8044
3412.00,1.7892
3411.00,1.7737
3410.00,1.7579
3409.00,1.7415
3408.00,1.7245
3407.00,1.7068
3406.00,1.6886
3405.00,1.6696
3404.00,1.6498
3403.00,1.6291
3402.00,1.6076
3401.00,1.5855
3400.00,1.5628
3399.00,1.5395
3398.00,1.5156
3397.00,1.4911
3396.00,1.4659
3395.00,1.4401
3394.00,1.4138
3393.00,1.3871
3392.00,1.3602
3391.00,1.3333
3390.00,1.3068
3389.00,1.2807
3388.00,1.2552
3387.00,1.2303
3386.00,1.2063
3385.00,1.1834
3384.00,1.1618
3383.00,1.1417
3382.00,1.1232
3381.00,1.1064
3380.00,1.0916
3379.00,1.0788
3378.00,1.0682
3377.00,1.0599
3376.00,1.0541
3375.00,1.0508
3374.00,1.0500
3373.00,1.0517
3372.00,1.0561
3371.00,1.0629
3370.00,1.0721
3369.00,1.0836
3368.00,1.0970
3367.00,1.1124
3366.00,1.1294
3365.00,1.1480
3364.00,1.1680
3363.00,1.1891
3362.00,1.2113
3361.00,1.2343
3360.00,1.2580
3359.00,1.2823
3358.00,1.3071
3357.00,1.3324
3356.00,1.3580
3355.00,1.3837
3354.00,1.4094
3353.00,1.4352
3352.00,1.4609
3351.00,1.4864
3350.00,1.5115
3349.00,1.5362
3348.00,1.5604
3347.00,1.5840
3346.00,1.6072
3345.00,1.6301
3344.00,1.6528
3343.00,1.6751
3342.00,1.6969
3341.00,1.7179
3340.00,1.7379
3339.00,1.7567
3338.00,1.7746
3337.00,1.7919
3336.00,1.8089
3335.00,1.8256
3334.00,1.8420
3333.00,1.8580
3332.00,1.8732
3331.00,1.8873
3330.00,1.9004
3329.00,1.9128
3328.00,1.9249
3327.00,1.9366
3326.00,1.9475
3325.00,1.9576
3324.00,1.9669
3323.00,1.9756
3322.00,1.9838
3321.00,1.9918
3320.00,1.9996
3319.00,2.0073
3318.00,2.0144
3317.00,2.0207
3316.00,2.0263
3315.00,2.0315
3314.00,2.0365
3313.00,2.0415
3312.00,2.0460
3311.00,2.0498
3310.00,2.0531
3309.00,2.0560
3308.00,2.0587
3307.00,2.0605
3306.00,2.0613
3305.00,2.0613
3304.00,2.0611
3303.00,2.0611
3302.00,2.0610
3301.00,2.0606
3300.00,2.0597
3299.00,2.0582
3298.00,2.0561
3297.00,2.0535
3296.00,2.0504
3295.00,2.0467
3294.00,2.0423
3293.00,2.0374
3292.00,2.0324
3291.00,2.0273
3290.00,2.0220
3289.00,2.0161
3288.00,2.0095
3287.00,2.0022
3286.00,1.9943
3285.00,1.9861
3284.00,1.9776
3283.00,1.9687
3282.00,1.9590
3281.00,1.9486
3280.00,1.9379
3279.00,1.9269
3278.00,1.9153
3277.00,1.9029
3276.00,1.8893
3275.00,1.8751
3274.00,1.8604
3273.00,1.8452
3272.00,1.8294
3271.00,1.8129
3270.00,1.7957
3269.00,1.7779
3268.00,1.7593
3267.00,1.7399
3266.00,1.7197
3265.00,1.6988
3264.00,1.6773
3263.00,1.6551
3262.00,1.6320
3261.00,1.6080
3260.00,1.5830
3259.00,1.5574
3258.00,1.5312
3257.00,1.5046
3256.00,1.4777
3255.00,1.4505
3254.00,1.4231
3253.00,1.3957
3252.00,1.3684
3251.00,1.3413
3250.00,1.3147
3249.00,1.2888
3248.00,1.2639
3247.00,1.2401
3246.00,1.2176
3245.00,1.1967
3244.00,1.1775
3243.00,1.1603
3242.00,1.1452
3241.00,1.1324
3240.00,1.1220
3239.00,1.1140
3238.00,1.1087
3237.00,1.1059
3236.00,1.1059
3235.00,1.1085
3234.00,1.1138
3233.00,1.1217
3232.00,1.1322
3231.00,1.1449
3230.00,1.1598
3229.00,1.1767
3228.00,1.1953
3227.00,1.2157
3226.00,1.2376
3225.00,1.2608
3224.00,1.2849
3223.00,1.3099
3222.00,1.3355
3221.00,1.3618
3220.00,1.3886
3219.00,1.4159
3218.00,1.4434
3217.00,1.4709
3216.00,1.4986
3215.00,1.5262
3214.00,1.5537
3213.00,1.5808
3212.00,1.6074
3211.00,1.6337
3210.00,1.6594
3209.00,1.6844
3208.00,1.7085
3207.00,1.7319
3206.00,1.7544
3205.00,1.7761
3204.00,1.7969
3203.00,1.8162
3202.00,1.8340
3201.00,1.8504
3200.00,1.8657
3199.00,1.8804
3198.00,1.8944
3197.00,1.9079
3196.00,1.9211
3195.00,1.9344
3194.00,1.9478
3193.00,1.9612
3192.00,1.9741
3191.00,1.9864
3190.00,1.9982
3189.00,2.0097
3188.00,2.0211
3187.00,2.0321
3186.00,2.0424
3185.00,2.0523
3184.00,2.0617
3183.00,2.0704
3182.00,2.0785
3181.00,2.0862
3180.00,2.0935
3179.00,2.1005
3178.00,2.1070
3177.00,2.1134
3176.00,2.1200
3175.00,2.1267
3174.00,2.1333
3173.00,2.1393
3172.00,2.1449
3171.00,2.1501
3170.00,2.1549
3169.00,2.1593
3168.00,2.1635
3167.00,2.1678
3166.00,2.1721
3165.00,2.1759
3164.00,2.1783
3163.00,2.1785
3162.00,2.1765
3161.00,2.1728
3160.00,2.1678
3159.00,2.1617
3158.00,2.1552
3157.00,2.1493
3156.00,2.1443
3155.00,2.1399
3154.00,2.1356
3153.00,2.1308
3152.00,2.1252
3151.00,2.1188
3150.00,2.1118
3149.00,2.1042
3148.00,2.0959
3147.00,2.0869
3146.00,2.0775
3145.00,2.0681
3144.00,2.0593
3143.00,2.0508
3142.00,2.0420
3141.00,2.0322
3140.00,2.0211
3139.00,2.0091
3138.00,1.9962
3137.00,1.9826
3136.00,1.9683
3135.00,1.9535
3134.00,1.9384
3133.00,1.9228
3132.00,1.9067
3131.00,1.8898
3130.00,1.8723
3129.00,1.8543
3128.00,1.8357
3127.00,1.8163
3126.00,1.7960
3125.00,1.7750
3124.00,1.7534
3123.00,1.7311
3122.00,1.7083
3121.00,1.6849
3120.00,1.6610
3119.00,1.6364
3118.00,1.6113
3117.00,1.5861
3116.00,1.5608
3115.00,1.5356
3114.00,1.5106
3113.00,1.4857
3112.00,1.4610
3111.00,1.4367
3110.00,1.4129
3109.00,1.3899
3108.00,1.3679
3107.00,1.3473
3106.00,1.3284
3105.00,1.3112
3104.00,1.2960
3103.00,1.2828
3102.00,1.2718
3101.00,1.2631
3100.00,1.2567
3099.00,1.2528
3098.00,1.2514
3097.00,1.2527
3096.00,1.2565
3095.00,1.2627
3094.00,1.2711
3093.00,1.2817
3092.00,1.2943
3091.00,1.3088
3090.00,1.3250
3089.00,1.3428
3088.00,1.3622
3087.00,1.3829
3086.00,1.4047
3085.00,1.4275
3084.00,1.4509
3083.00,1.4748
3082.00,1.4991
3081.00,1.5237
3080.00,1.5486
3079.00,1.5738
3078.00,1.5990
3077.00,1.6244
3076.00,1.6497
3075.00,1.6747
3074.00,1.6992
3073.00,1.7233
3072.00,1.7469
3071.00,1.7703
3070.00,1.7935
3069.00,1.8163
3068.00,1.8386
3067.00,1.8603
3066.00,1.8813
3065.00,1.9017
3064.00,1.9212
3063.00,1.9398
3062.00,1.9577
3061.00,1.9752
3060.00,1.9923
3059.00,2.0086
3058.00,2.0240
3057.00,2.0387
3056.00,2.0531
3055.00,2.0674
3054.00,2.0814
3053.00,2.0950
3052.00,2.1078
3051.00,2.1195
3050.00,2.1299
3049.00,2.1396
3048.00,2.1490
3047.00,2.1580
3046.00,2.1665
3045.00,2.1744
3044.00,2.1824
3043.00,2.1903
3042.00,2.1977
3041.00,2.2044
3040.00,2.2105
3039.00,2.2165
3038.00,2.2225
3037.00,2.2283
3036.00,2.2335
3035.00,2.2378
3034.00,2.2410
3033.00,2.2433
3032.00,2.2451
3031.00,2.2468
3030.00,2.2483
3029.00,2.2493
3028.00,2.2496
3027.00,2.2495
3026.00,2.2495
3025.00,2.2498
3024.00,2.2498
3023.00,2.2493
3022.00,2.2482
3021.00,2.2469
3020.00,2.2453
3019.00,2.2434
3018.00,2.2409
3017.00,2.2382
3016.00,2.2357
3015.00,2.2338
3014.00,2.2322
3013.00,2.2307
3012.00,2.2291
3011.00,2.2276
3010.00,2.2262
3009.00,2.2250
3008.00,2.2241
3007.00,2.2233
3006.00,2.2225
3005.00,2.2218
3004.00,2.2206
3003.00,2.2188
3002.00,2.2160
3001.00,2.2118
3000.00,2.2056
2999.00,2.1977
2998.00,2.1887
2997.00,2.1790
2996.00,2.1684
2995.00,2.1561
2994.00,2.1421
2993.00,2.1268
2992.00,2.1107
2991.00,2.0937
2990.00,2.0759
2989.00,2.0576
2988.00,2.0387
2987.00,2.0188
2986.00,1.9981
2985.00,1.9771
2984.00,1.9563
2983.00,1.9360
2982.00,1.9164
2981.00,1.8975
2980.00,1.8795
2979.00,1.8628
2978.00,1.8481
2977.00,1.8362
2976.00,1.8274
2975.00,1.8218
2974.00,1.8192
2973.00,1.8197
2972.00,1.8235
2971.00,1.8303
2970.00,1.8399
2969.00,1.8516
2968.00,1.8650
2967.00,1.8795
2966.00,1.8945
2965.00,1.9100
2964.00,1.9261
2963.00,1.9425
2962.00,1.9591
2961.00,1.9759
2960.00,1.9930
2959.00,2.0109
2958.00,2.0298
2957.00,2.0499
2956.00,2.0714
2955.00,2.0941
2954.00,2.1181
2953.00,2.1436
2952.00,2.1704
2951.00,2.1977
2950.00,2.2247
2949.00,2.2515
2948.00,2.2786
2947.00,2.3056
2946.00,2.3301
2945.00,2.3487
2944.00,2.3584
2943.00,2.3571
2942.00,2.3448
2941.00,2.3229
2940.00,2.2940
2939.00,2.2610
2938.00,2.2269
2937.00,2.1936
2936.00,2.1619
2935.00,2.1317
2934.00,2.1028
2933.00,2.0753
2932.00,2.0494
2931.00,2.0252
2930.00,2.0026
2929.00,1.9822
2928.00,1.9641
2927.00,1.9484
2926.00,1.9348
2925.00,1.9235
2924.00,1.9146
2923.00,1.9083
2922.00,1.9049
2921.00,1.9041
2920.00,1.9056
2919.00,1.9092
2918.00,1.9147
2917.00,1.9226
2916.00,1.9328
2915.00,1.9451
2914.00,1.9588
2913.00,1.9733
2912.00,1.9885
2911.00,2.0040
2910.00,2.0195
2909.00,2.0351
2908.00,2.0505
2907.00,2.0657
2906.00,2.0805
2905.00,2.0952
2904.00,2.1099
2903.00,2.1246
2902.00,2.1387
2901.00,2.1522
2900.00,2.1652
2899.00,2.1781
2898.00,2.1909
2897.00,2.2032
2896.00,2.2147
2895.00,2.2256
2894.00,2.2361
2893.00,2.2467
2892.00,2.2572
2891.00,2.2671
2890.00,2.2761
2889.00,2.2844
2888.00,2.2928
2887.00,2.3017
2886.00,2.3107
2885.00,2.3192
2884.00,2.3264
2883.00,2.3320
2882.00,2.3362
2881.00,2.3401
2880.00,2.3447
2879.00,2.3499
2878.00,2.3551
2877.00,2.3596
2876.00,2.3637
2875.00,2.3678
2874.00,2.3722
2873.00,2.3769
2872.00,2.3814
2871.00,2.3854
2870.00,2.3880
2869.00,2.3890
2868.00,2.3887
2867.00,2.3877
2866.00,2.3865
2865.00,2.3848
2864.00,2.3822
2863.00,2.3785
2862.00,2.3744
2861.00,2.3702
2860.00,2.3657
2859.00,2.3604
2858.00,2.3539
2857.00,2.3470
2856.00,2.3399
2855.00,2.3321
2854.00,2.3230
2853.00,2.3130
2852.00,2.3031
2851.00,2.2936
2850.00,2.2836
2849.00,2.2725
2848.00,2.2603
2847.00,2.2476
2846.00,2.2344
2845.00,2.2208
2844.00,2.2069
2843.00,2.1930
2842.00,2.1792
2841.00,2.1651
2840.00,2.1504
2839.00,2.1346
2838.00,2.1175
2837.00,2.0990
2836.00,2.0792
2835.00,2.0586
2834.00,2.0374
2833.00,2.0158
2832.00,1.9935
2831.00,1.9699
2830.00,1.9450
2829.00,1.9188
2828.00,1.8917
2827.00,1.8635
2826.00,1.8341
2825.00,1.8033
2824.00,1.7709
2823.00,1.7370
2822.00,1.7016
2821.00,1.6649
2820.00,1.6273
2819.00,1.5889
2818.00,1.5501
2817.00,1.5110
2816.00,1.4721
2815.00,1.4337
2814.00,1.3962
2813.00,1.3601
2812.00,1.3259
2811.00,1.2939
2810.00,1.2647
2809.00,1.2386
2808.00,1.2162
2807.00,1.1979
2806.00,1.1839
2805.00,1.1745
2804.00,1.1699
2803.00,1.1701
2802.00,1.1748
2801.00,1.1837
2800.00,1.1964
2799.00,1.2126
2798.00,1.2320
2797.00,1.2542
2796.00,1.2791
2795.00,1.3062
2794.00,1.3352
2793.00,1.3659
2792.00,1.3979
2791.00,1.4311
2790.00,1.4653
2789.00,1.5003
2788.00,1.5355
2787.00,1.5708
2786.00,1.6060
2785.00,1.6412
2784.00,1.6763
2783.00,1.7109
2782.00,1.7449
2781.00,1.7780
2780.00,1.8103
2779.00,1.8416
2778.00,1.8722
2777.00,1.9019
2776.00,1.9308
2775.00,1.9587
2774.00,1.9854
2773.00,2.0109
2772.00,2.0350
2771.00,2.0577
2770.00,2.0792
2769.00,2.0996
2768.00,2.1194
2767.00,2.1386
2766.00,2.1573
2765.00,2.1752
2764.00,2.1918
2763.00,2.2070
2762.00,2.2210
2761.00,2.2342
2760.00,2.2470
2759.00,2.2596
2758.00,2.2722
2757.00,2.2845
2756.00,2.2959
2755.00,2.3061
2754.00,2.3157
2753.00,2.3251
2752.00,2.3344
2751.00,2.3428
2750.00,2.3499
2749.00,2.3563
2748.00,2.3626
2747.00,2.3693
2746.00,2.3756
2745.00,2.3810
2744.00,2.3855
2743.00,2.3893
2742.00,2.3930
2741.00,2.3970
2740.00,2.4005
2739.00,2.4028
2738.00,2.4036
2737.00,2.4033
2736.00,2.4026
2735.00,2.4018
2734.00,2.4014
2733.00,2.4013
2732.00,2.4014
2731.00,2.4008
2730.00,2.3992
2729.00,2.3966
2728.00,2.3935
2727.00,2.3899
2726.00,2.3855
2725.00,2.3801
2724.00,2.3743
2723.00,2.3691
2722.00,2.3650
2721.00,2.3612
2720.00,2.3561
2719.00,2.3490
2718.00,2.3402
2717.00,2.3304
2716.00,2.3206
2715.00,2.3107
2714.00,2.3006
2713.00,2.2902
2712.00,2.2793
2711.00,2.2677
2710.00,2.2551
2709.00,2.2414
2708.00,2.2267
2707.00,2.2113
2706.00,2.1956
2705.00,2.1793
2704.00,2.1621
2703.00,2.1436
2702.00,2.1241
2701.00,2.1036
2700.00,2.0821
2699.00,2.0593
2698.00,2.0354
2697.00,2.0106
2696.00,1.9849
2695.00,1.9579
2694.00,1.9292
2693.00,1.8988
2692.00,1.8669
2691.00,1.8333
2690.00,1.7982
2689.00,1.7615
2688.00,1.7235
2687.00,1.6845
2686.00,1.6443
2685.00,1.6033
2684.00,1.5617
2683.00,1.5199
2682.00,1.4785
2681.00,1.4380
2680.00,1.3986
2679.00,1.3608
2678.00,1.3247
2677.00,1.2907
2676.00,1.2593
2675.00,1.2307
2674.00,1.2055
2673.00,1.1838
2672.00,1.1659
2671.00,1.1518
2670.00,1.1417
2669.00,1.1361
2668.00,1.1354
2667.00,1.1398
2666.00,1.1495
2665.00,1.1643
2664.00,1.1840
2663.00,1.2081
2662.00,1.2359
2661.00,1.2669
2660.00,1.3004
2659.00,1.3361
2658.00,1.3734
2657.00,1.4119
2656.00,1.4511
2655.00,1.4908
2654.00,1.5306
2653.00,1.5705
2652.00,1.6105
2651.00,1.6503
2650.00,1.6898
2649.00,1.7286
2648.00,1.7666
2647.00,1.8037
2646.00,1.8399
2645.00,1.8754
2644.00,1.9101
2643.00,1.9439
2642.00,1.9763
2641.00,2.0073
2640.00,2.0369
2639.00,2.0654
2638.00,2.0932
2637.00,2.1205
2636.00,2.1468
2635.00,2.1718
2634.00,2.1953
2633.00,2.2172
2632.00,2.2379
2631.00,2.2572
2630.00,2.2747
2629.00,2.2898
2628.00,2.3026
2627.00,2.3136
2626.00,2.3237
2625.00,2.3340
2624.00,2.3446
2623.00,2.3549
2622.00,2.3644
2621.00,2.3734
2620.00,2.3827
2619.00,2.3923
2618.00,2.4019
2617.00,2.4110
2616.00,2.4195
2615.00,2.4274
2614.00,2.4349
2613.00,2.4420
2612.00,2.4491
2611.00,2.4563
2610.00,2.4633
2609.00,2.4694
2608.00,2.4745
2607.00,2.4789
2606.00,2.4834
2605.00,2.4887
2604.00,2.4940
2603.00,2.4980
2602.00,2.5002
2601.00,2.5010
2600.00,2.5015
2599.00,2.5018
2598.00,2.5018
2597.00,2.5013
2596.00,2.5002
2595.00,2.4988
2594.00,2.4973
2593.00,2.4958
2592.00,2.4939
2591.00,2.4912
2590.00,2.4880
2589.00,2.4846
2588.00,2.4811
2587.00,2.4770
2586.00,2.4722
2585.00,2.4674
2584.00,2.4627
2583.00,2.4570
2582.00,2.4491
2581.00,2.4398
2580.00,2.4305
2579.00,2.4215
2578.00,2.4117
2577.00,2.4006
2576.00,2.3892
2575.00,2.3785
2574.00,2.3682
2573.00,2.3570
2572.00,2.3443
2571.00,2.3306
2570.00,2.3166
2569.00,2.3025
2568.00,2.2877
2567.00,2.2717
2566.00,2.2540
2565.00,2.2343
2564.00,2.2134
2563.00,2.1921
2562.00,2.1711
2561.00,2.1497
2560.00,2.1269
2559.00,2.1022
2558.00,2.0755
2557.00,2.0473
2556.00,2.0178
2555.00,1.9872
2554.00,1.9553
2553.00,1.9217
2552.00,1.8863
2551.00,1.8489
2550.00,1.8097
2549.00,1.7686
2548.00,1.7258
2547.00,1.6815
2546.00,1.6361
2545.00,1.5897
2544.00,1.5430
2543.00,1.4962
2542.00,1.4500
2541.00,1.4051
2540.00,1.3622
2539.00,1.3220
2538.00,1.2850
2537.00,1.2517
2536.00,1.2228
2535.00,1.1987
2534.00,1.1799
2533.00,1.1667
2532.00,1.1595
2531.00,1.1584
2530.00,1.1635
2529.00,1.1744
2528.00,1.1910
2527.00,1.2128
2526.00,1.2390
2525.00,1.2692
2524.00,1.3025
2523.00,1.3385
2522.00,1.3766
2521.00,1.4163
2520.00,1.4572
2519.00,1.4989
2518.00,1.5412
2517.00,1.5836
2516.00,1.6259
2515.00,1.6680
2514.00,1.7098
2513.00,1.7516
2512.00,1.7929
2511.00,1.8334
2510.00,1.8726
2509.00,1.9106
2508.00,1.9478
2507.00,1.9839
2506.00,2.0186
2505.00,2.0518
2504.00,2.0834
2503.00,2.1136
2502.00,2.1422
2501.00,2.1690
2500.00,2.1941
2499.00,2.2179
2498.00,2.2409
2497.00,2.2631
2496.00,2.2845
2495.00,2.3051
2494.00,2.3248
2493.00,2.3439
2492.00,2.3622
2491.00,2.3796
2490.00,2.3959
2489.00,2.4112
2488.00,2.4255
2487.00,2.4388
2486.00,2.4505
2485.00,2.4606
2484.00,2.4701
2483.00,2.4802
2482.00,2.4914
2481.00,2.5027
2480.00,2.5130
2479.00,2.5217
2478.00,2.5293
2477.00,2.5364
2476.00,2.5435
2475.00,2.5509
2474.00,2.5583
2473.00,2.5654
2472.00,2.5715
2471.00,2.5767
2470.00,2.5819
2469.00,2.5876
2468.00,2.5933
2467.00,2.5976
2466.00,2.5997
2465.00,2.6000
2464.00,2.5998
2463.00,2.6004
2462.00,2.6020
2461.00,2.6040
2460.00,2.6052
2459.00,2.6046
2458.00,2.6026
2457.00,2.6004
2456.00,2.5994
2455.00,2.5993
2454.00,2.5985
2453.00,2.5963
2452.00,2.5929
2451.00,2.5891
2450.00,2.5845
2449.00,2.5788
2448.00,2.5721
2447.00,2.5654
2446.00,2.5592
2445.00,2.5533
2444.00,2.5472
2443.00,2.5407
2442.00,2.5334
2441.00,2.5248
2440.00,2.5144
2439.00,2.5026
2438.00,2.4902
2437.00,2.4776
2436.00,2.4647
2435.00,2.4518
2434.00,2.4389
2433.00,2.4260
2432.00,2.4125
2431.00,2.3977
2430.00,2.3814
2429.00,2.3638
2428.00,2.3452
2427.00,2.3257
2426.00,2.3055
2425.00,2.2849
2424.00,2.2641
2423.00,2.2430
2422.00,2.2212
2421.00,2.1983
2420.00,2.1744
2419.00,2.1492
2418.00,2.1229
2417.00,2.0956
2416.00,2.0675
2415.00,2.0390
2414.00,2.0098
2413.00,1.9801
2412.00,1.9498
2411.00,1.9186
2410.00,1.8864
2409.00,1.8527
2408.00,1.8174
2407.00,1.7804
2406.00,1.7420
2405.00,1.7023
2404.00,1.6615
2403.00,1.6197
2402.00,1.5775
2401.00,1.5356
2400.00,1.4949
2399.00,1.4563
2398.00,1.4205
2397.00,1.3882
2396.00,1.3603
2395.00,1.3373
2394.00,1.3200
2393.00,1.3088
2392.00,1.3041
2391.00,1.3060
2390.00,1.3143
2389.00,1.3286
2388.00,1.3483
2387.00,1.3723
2386.00,1.3994
2385.00,1.4283
2384.00,1.4574
2383.00,1.4853
2382.00,1.5106
2381.00,1.5323
2380.00,1.5495
2379.00,1.5623
2378.00,1.5710
2377.00,1.5772
2376.00,1.5827
2375.00,1.5893
2374.00,1.5988
2373.00,1.6125
2372.00,1.6307
2371.00,1.6523
2370.00,1.6753
2369.00,1.6984
2368.00,1.7214
2367.00,1.7432
2366.00,1.7632
2365.00,1.7770
2364.00,1.7957
2363.00,1.7985
2362.00,1.8240
2361.00,1.8037
2360.00,1.9021
2359.00,2.5755
2358.00,2.4042
2357.00,2.5048
2356.00,2.4760
2355.00,2.5187
2354.00,2.5188
2353.00,2.5385
2352.00,2.5483
2351.00,2.5590
2350.00,2.5683
2349.00,2.5785
2348.00,2.5914
2347.00,2.6075
2346.00,2.6244
2345.00,2.6388
2344.00,2.6492
2343.00,2.6571
2342.00,2.6657
2341.00,2.6762
2340.00,2.6868
2339.00,2.6947
2338.00,2.6997
2337.00,2.7038
2336.00,2.7087
2335.00,2.7143
2334.00,2.7194
2333.00,2.7233
2332.00,2.7258
2331.00,2.7269
2330.00,2.7271
2329.00,2.7272
2328.00,2.7282
2327.00,2.7299
2326.00,2.7314
2325.00,2.7315
2324.00,2.7294
2323.00,2.7256
2322.00,2.7217
2321.00,2.7177
2320.00,2.7181
2319.00,2.7127
2318.00,2.7173
2317.00,2.6991
2316.00,2.7165
2315.00,2.6468
2314.00,2.4440
2313.00,2.4657
2312.00,2.4565
2311.00,2.4632
2310.00,2.4623
2309.00,2.4664
2308.00,2.4669
2307.00,2.4670
2306.00,2.4640
2305.00,2.4595
2304.00,2.4530
2303.00,2.4465
2302.00,2.4403
2301.00,2.4369
2300.00,2.4367
2299.00,2.4423
2298.00,2.4542
2297.00,2.4747
2296.00,2.5023
2295.00,2.5350
2294.00,2.5673
2293.00,2.5946
2292.00,2.6124
2291.00,2.6184
2290.00,2.6123
2289.00,2.5960
2288.00,2.5733
2287.00,2.5461
2286.00,2.5151
2285.00,2.4796
2284.00,2.4401
2283.00,2.3982
2282.00,2.3545
2281.00,2.3081
2280.00,2.2580
2279.00,2.2039
2278.00,2.1469
2277.00,2.0879
2276.00,2.0278
2275.00,1.9679
2274.00,1.9101
2273.00,1.8566
2272.00,1.8091
2271.00,1.7700
2270.00,1.7422
2269.00,1.7290
2268.00,1.7332
2267.00,1.7569
2266.00,1.8006
2265.00,1.8642
2264.00,1.9460
2263.00,2.0440
2262.00,2.1557
2261.00,2.2791
2260.00,2.4130
2259.00,2.5576
2258.00,2.7149
2257.00,2.8889
2256.00,3.0835
2255.00,3.2974
2254.00,3.5087
2253.00,3.6508
2252.00,3.6390
2251.00,3.5048
2250.00,3.3383
2249.00,3.1827
2248.00,3.0472
2247.00,2.9267
2246.00,2.8137
2245.00,2.7035
2244.00,2.5940
2243.00,2.4845
2242.00,2.3748
2241.00,2.2645
2240.00,2.1539
2239.00,2.0438
2238.00,1.9371
2237.00,1.8374
2236.00,1.7487
2235.00,1.6743
2234.00,1.6167
2233.00,1.5774
2232.00,1.5569
2231.00,1.5545
2230.00,1.5681
2229.00,1.5947
2228.00,1.6308
2227.00,1.6734
2226.00,1.7201
2225.00,1.7693
2224.00,1.8201
2223.00,1.8718
2222.00,1.9236
2221.00,1.9752
2220.00,2.0262
2219.00,2.0761
2218.00,2.1245
2217.00,2.1707
2216.00,2.2147
2215.00,2.2565
2214.00,2.2958
2213.00,2.3325
2212.00,2.3666
2211.00,2.3986
2210.00,2.4288
2209.00,2.4570
2208.00,2.4834
2207.00,2.5080
2206.00,2.5311
2205.00,2.5524
2204.00,2.5715
2203.00,2.5886
2202.00,2.6045
2201.00,2.6191
2200.00,2.6324
2199.00,2.6448
2198.00,2.6572
2197.00,2.6702
2196.00,2.6833
2195.00,2.6961
2194.00,2.7085
2193.00,2.7200
2192.00,2.7301
2191.00,2.7383
2190.00,2.7454
2189.00,2.7519
2188.00,2.7588
2187.00,2.7666
2186.00,2.7756
2185.00,2.7850
2184.00,2.7933
2183.00,2.7998
2182.00,2.8054
2181.00,2.8107
2180.00,2.8152
2179.00,2.8176
2178.00,2.8176
2177.00,2.8163
2176.00,2.8153
2175.00,2.8152
2174.00,2.8158
2173.00,2.8161
2172.00,2.8149
2171.00,2.8125
2170.00,2.8098
2169.00,2.8077
2168.00,2.8052
2167.00,2.8016
2166.00,2.7970
2165.00,2.7929
2164.00,2.7897
2163.00,2.7864
2162.00,2.7820
2161.00,2.7768
2160.00,2.7710
2159.00,2.7645
2158.00,2.7563
2157.00,2.7462
2156.00,2.7355
2155.00,2.7255
2154.00,2.7161
2153.00,2.7060
2152.00,2.6936
2151.00,2.6796
2150.00,2.6662
2149.00,2.6542
2148.00,2.6423
2147.00,2.6283
2146.00,2.6115
2145.00,2.5934
2144.00,2.5746
2143.00,2.5552
2142.00,2.5352
2141.00,2.5153
2140.00,2.4955
2139.00,2.4743
2138.00,2.4504
2137.00,2.4239
2136.00,2.3959
2135.00,2.3673
2134.00,2.3380
2133.00,2.3074
2132.00,2.2750
2131.00,2.2403
2130.00,2.2035
2129.00,2.1647
2128.00,2.1240
2127.00,2.0810
2126.00,2.0353
2125.00,1.9866
2124.00,1.9354
2123.00,1.8819
2122.00,1.8266
2121.00,1.7699
2120.00,1.7126
2119.00,1.6555
2118.00,1.5996
2117.00,1.5462
2116.00,1.4965
2115.00,1.4516
2114.00,1.4126
2113.00,1.3800
2112.00,1.3548
2111.00,1.3376
2110.00,1.3290
2109.00,1.3292
2108.00,1.3382
2107.00,1.3557
2106.00,1.3808
2105.00,1.4127
2104.00,1.4503
2103.00,1.4924
2102.00,1.5379
2101.00,1.5860
2100.00,1.6360
2099.00,1.6870
2098.00,1.7385
2097.00,1.7900
2096.00,1.8413
2095.00,1.8921
2094.00,1.9421
2093.00,1.9911
2092.00,2.0389
2091.00,2.0853
2090.00,2.1303
2089.00,2.1738
2088.00,2.2157
2087.00,2.2560
2086.00,2.2944
2085.00,2.3310
2084.00,2.3658
2083.00,2.3989
2082.00,2.4302
2081.00,2.4592
2080.00,2.4855
2079.00,2.5098
2078.00,2.5333
2077.00,2.5570
2076.00,2.5806
2075.00,2.6033
2074.00,2.6242
2073.00,2.6434
2072.00,2.6614
2071.00,2.6781
2070.00,2.6932
2069.00,2.7073
2068.00,2.7212
2067.00,2.7348
2066.00,2.7471
2065.00,2.7577
2064.00,2.7680
2063.00,2.7794
2062.00,2.7918
2061.00,2.8044
2060.00,2.8171
2059.00,2.8303
2058.00,2.8430
2057.00,2.8532
2056.00,2.8603
2055.00,2.8656
2054.00,2.8703
2053.00,2.8744
2052.00,2.8773
2051.00,2.8800
2050.00,2.8837
2049.00,2.8890
2048.00,2.8953
2047.00,2.9018
2046.00,2.9081
2045.00,2.9134
2044.00,2.9170
2043.00,2.9181
2042.00,2.9163
2041.00,2.9122
2040.00,2.9077
2039.00,2.9053
2038.00,2.9063
2037.00,2.9098
2036.00,2.9137
2035.00,2.9156
2034.00,2.9149
2033.00,2.9126
2032.00,2.9105
2031.00,2.9091
2030.00,2.9062
2029.00,2.9003
2028.00,2.8931
2027.00,2.8875
2026.00,2.8840
2025.00,2.8803
2024.00,2.8747
2023.00,2.8681
2022.00,2.8609
2021.00,2.8518
2020.00,2.8404
2019.00,2.8295
2018.00,2.8220
2017.00,2.8170
2016.00,2.8110
2015.00,2.8016
2014.00,2.7892
2013.00,2.7741
2012.00,2.7563
2011.00,2.7372
2010.00,2.7194
2009.00,2.7043
2008.00,2.6903
2007.00,2.6750
2006.00,2.6572
2005.00,2.6372
2004.00,2.6154
2003.00,2.5926
2002.00,2.5696
2001.00,2.5470
2000.00,2.5239
1999.00,2.4990
1998.00,2.4718
1997.00,2.4426
1996.00,2.4110
1995.00,2.3770
1994.00,2.3414
1993.00,2.3051
1992.00,2.2676
1991.00,2.2279
1990.00,2.1850
1989.00,2.1394
1988.00,2.0915
1987.00,2.0412
1986.00,1.9886
1985.00,1.9339
1984.00,1.8778
1983.00,1.8208
1982.00,1.7634
1981.00,1.7068
1980.00,1.6525
1979.00,1.6016
1978.00,1.5551
1977.00,1.5140
1976.00,1.4791
1975.00,1.4512
1974.00,1.4313
1973.00,1.4202
1972.00,1.4182
1971.00,1.4246
1970.00,1.4390
1969.00,1.4616
1968.00,1.4928
1967.00,1.5316
1966.00,1.5757
1965.00,1.6229
1964.00,1.6720
1963.00,1.7229
1962.00,1.7751
1961.00,1.8282
1960.00,1.8816
1959.00,1.9349
1958.00,1.9880
1957.00,2.0403
1956.00,2.0915
1955.00,2.1414
1954.00,2.1893
1953.00,2.2350
1952.00,2.2787
1951.00,2.3206
1950.00,2.3608
1949.00,2.3993
1948.00,2.4359
1947.00,2.4702
1946.00,2.5009
1945.00,2.5283
1944.00,2.5547
1943.00,2.5826
1942.00,2.6119
1941.00,2.6402
1940.00,2.6652
1939.00,2.6867
1938.00,2.7052
1937.00,2.7210
1936.00,2.7355
1935.00,2.7508
1934.00,2.7675
1933.00,2.7841
1932.00,2.8000
1931.00,2.8162
1930.00,2.8345
1929.00,2.8542
1928.00,2.8722
1927.00,2.8864
1926.00,2.8968
1925.00,2.9061
1924.00,2.9176
1923.00,2.9307
1922.00,2.9414
1921.00,2.9468
1920.00,2.9492
1919.00,2.9542
1918.00,2.9646
1917.00,2.9778
1916.00,2.9899
1915.00,2.9990
1914.00,3.0046
1913.00,3.0059
1912.00,3.0044
1911.00,3.0030
1910.00,3.0048
1909.00,3.0101
1908.00,3.0165
1907.00,3.0213
1906.00,3.0233
1905.00,3.0234
1904.00,3.0243
1903.00,3.0273
1902.00,3.0312
1901.00,3.0335
1900.00,3.0334
1899.00,3.0320
1898.00,3.0303
1897.00,3.0285
1896.00,3.0267
1895.00,3.0251
1894.00,3.0221
1893.00,3.0165
1892.00,3.0101
1891.00,3.0069
1890.00,3.0075
1889.00,3.0072
1888.00,3.0014
1887.00,2.9904
1886.00,2.9777
1885.00,2.9662
1884.00,2.9563
1883.00,2.9474
1882.00,2.9387
1881.00,2.9293
1880.00,2.9178
1879.00,2.9042
1878.00,2.8894
1877.00,2.8750
1876.00,2.8633
1875.00,2.8550
1874.00,2.8476
1873.00,2.8368
1872.00,2.8209
1871.00,2.8030
1870.00,2.7865
1869.00,2.7709
1868.00,2.7536
1867.00,2.7329
1866.00,2.7090
1865.00,2.6826
1864.00,2.6548
1863.00,2.6262
1862.00,2.5970
1861.00,2.5673
1860.00,2.5374
1859.00,2.5072
1858.00,2.4753
1857.00,2.4401
1856.00,2.4012
1855.00,2.3592
1854.00,2.3153
1853.00,2.2695
1852.00,2.2208
1851.00,2.1689
1850.00,2.1154
1849.00,2.0611
1848.00,2.0045
1847.00,1.9439
1846.00,1.8812
1845.00,1.8212
1844.00,1.7673
1843.00,1.7194
1842.00,1.6760
1841.00,1.6374
1840.00,1.6061
1839.00,1.5837
1838.00,1.5700
1837.00,1.5649
1836.00,1.5695
1835.00,1.5841
1834.00,1.6074
1833.00,1.6373
1832.00,1.6737
1831.00,1.7180
1830.00,1.7691
1829.00,1.8212
1828.00,1.8686
1827.00,1.9121
1826.00,1.9587
1825.00,2.0119
1824.00,2.0676
1823.00,2.1204
1822.00,2.1693
1821.00,2.2165
1820.00,2.2630
1819.00,2.3093
1818.00,2.3558
1817.00,2.4028
1816.00,2.4490
1815.00,2.4916
1814.00,2.5303
1813.00,2.5663
1812.00,2.6003
1811.00,2.6323
1810.00,2.6623
1809.00,2.6910
1808.00,2.7189
1807.00,2.7450
1806.00,2.7680
1805.00,2.7879
1804.00,2.8051
1803.00,2.8212
1802.00,2.8389
1801.00,2.8587
1800.00,2.8791
1799.00,2.9000
1798.00,2.9228
1797.00,2.9472
1796.00,2.9682
1795.00,2.9808
1794.00,2.9864
1793.00,2.9908
1792.00,2.9989
1791.00,3.0106
1790.00,3.0223
1789.00,3.0297
1788.00,3.0313
1787.00,3.0314
1786.00,3.0381
1785.00,3.0558
1784.00,3.0792
1783.00,3.0998
1782.00,3.1167
1781.00,3.1320
1780.00,3.1438
1779.00,3.1486
1778.00,3.1496
1777.00,3.1537
1776.00,3.1598
1775.00,3.1610
1774.00,3.1564
1773.00,3.1501
1772.00,3.1442
1771.00,3.1378
1770.00,3.1318
1769.00,3.1310
1768.00,3.1392
1767.00,3.1503
1766.00,3.1543
1765.00,3.1486
1764.00,3.1391
1763.00,3.1317
1762.00,3.1260
1761.00,3.1172
1760.00,3.1044
1759.00,3.0917
1758.00,3.0855
1757.00,3.0871
1756.00,3.0889
1755.00,3.0821
1754.00,3.0670
1753.00,3.0513
1752.00,3.0424
1751.00,3.0393
1750.00,3.0353
1749.00,3.0266
1748.00,3.0140
1747.00,2.9995
1746.00,2.9861
1745.00,2.9749
1744.00,2.9651
1743.00,2.9536
1742.00,2.9375
1741.00,2.9191
1740.00,2.9051
1739.00,2.8945
1738.00,2.8767
1737.00,2.8432
1736.00,2.8002
1735.00,2.7627
1734.00,2.7366
1733.00,2.7153
1732.00,2.6917
1731.00,2.6647
1730.00,2.6392
1729.00,2.6198
1728.00,2.6067
1727.00,2.6005
1726.00,2.6045
1725.00,2.6211
1724.00,2.6526
1723.00,2.6986
1722.00,2.7544
1721.00,2.8154
1720.00,2.8838
1719.00,2.9701
1718.00,3.0794
1717.00,3.2026
1716.00,3.3226
1715.00,3.4358
1714.00,3.5567
1713.00,3.6887
1712.00,3.8093
1711.00,3.8976
1710.00,3.9656
1709.00,4.0216
1708.00,4.0487
1707.00,4.0304
1706.00,3.9665
1705.00,3.8667
1704.00,3.7427
1703.00,3.6188
1702.00,3.5146
1701.00,3.4262
1700.00,3.3419
1699.00,3.2588
1698.00,3.1740
1697.00,3.0860
1696.00,3.0013
1695.00,2.9260
1694.00,2.8571
1693.00,2.7860
1692.00,2.7106
1691.00,2.6336
1690.00,2.5575
1689.00,2.4808
1688.00,2.4011
1687.00,2.3207
1686.00,2.2466
1685.00,2.1826
1684.00,2.1285
1683.00,2.0863
1682.00,2.0578
1681.00,2.0441
1680.00,2.0456
1679.00,2.0555
1678.00,2.0669
1677.00,2.0828
1676.00,2.1126
1675.00,2.1583
1674.00,2.2099
1673.00,2.2562
1672.00,2.2967
1671.00,2.3379
1670.00,2.3841
1669.00,2.4362
1668.00,2.4912
1667.00,2.5424
1666.00,2.5850
1665.00,2.6209
1664.00,2.6569
1663.00,2.6953
1662.00,2.7346
1661.00,2.7727
1660.00,2.8094
1659.00,2.8461
1658.00,2.8810
1657.00,2.9075
1656.00,2.9226
1655.00,2.9370
1654.00,2.9598
1653.00,2.9945
1652.00,3.0415
1651.00,3.0838
1650.00,3.1085
1649.00,3.1225
1648.00,3.1346
1647.00,3.1451
1646.00,3.1513
1645.00,3.1558
1644.00,3.1618
1643.00,3.1687
1642.00,3.1781
1641.00,3.1932
1640.00,3.2114
1639.00,3.2253
1638.00,3.2320
1637.00,3.2367
1636.00,3.2448
1635.00,3.2561
1634.00,3.2636
1633.00,3.2652
1632.00,3.2671
1631.00,3.2717
1630.00,3.2752
1629.00,3.2755
1628.00,3.2777
1627.00,3.2866
1626.00,3.2995
1625.00,3.3082
1624.00,3.3064
1623.00,3.2968
1622.00,3.2885
1621.00,3.2849
1620.00,3.2817
1619.00,3.2765
1618.00,3.2737
1617.00,3.2774
1616.00,3.2830
1615.00,3.2783
1614.00,3.2602
1613.00,3.2415
1612.00,3.2355
1611.00,3.2432
1610.00,3.2568
1609.00,3.2693
1608.00,3.2769
1607.00,3.2777
1606.00,3.2723
1605.00,3.2642
1604.00,3.2557
1603.00,3.2442
1602.00,3.2256
1601.00,3.2022
1600.00,3.1824
1599.00,3.1717
1598.00,3.1681
1597.00,3.1640
1596.00,3.1550
1595.00,3.1421
1594.00,3.1288
1593.00,3.1160
1592.00,3.1022
1591.00,3.0867
1590.00,3.0702
1589.00,3.0524
1588.00,3.0310
1587.00,3.0053
1586.00,2.9797
1585.00,2.9596
1584.00,2.9430
1583.00,2.9245
1582.00,2.9025
1581.00,2.8793
1580.00,2.8541
1579.00,2.8247
1578.00,2.7923
1577.00,2.7590
1576.00,2.7249
1575.00,2.6897
1574.00,2.6531
1573.00,2.6153
1572.00,2.5781
1571.00,2.5412
1570.00,2.5007
1569.00,2.4563
1568.00,2.4120
1567.00,2.3700
1566.00,2.3312
1565.00,2.2962
1564.00,2.2624
1563.00,2.2269
1562.00,2.1928
1561.00,2.1753
1560.00,2.1772
1559.00,2.1808
1558.00,2.1830
1557.00,2.1862
1556.00,2.1887
1555.00,2.1988
1554.00,2.2221
1553.00,2.2516
1552.00,2.2791
1551.00,2.3091
1550.00,2.3479
1549.00,2.3924
1548.00,2.4331
1547.00,2.4685
1546.00,2.5069
1545.00,2.5537
1544.00,2.6049
1543.00,2.6547
1542.00,2.7003
1541.00,2.7377
1540.00,2.7690
1539.00,2.8051
1538.00,2.8451
1537.00,2.8774
1536.00,2.8997
1535.00,2.9206
1534.00,2.9486
1533.00,2.9819
1532.00,3.0145
1531.00,3.0432
1530.00,3.0685
1529.00,3.0919
1528.00,3.1140
1527.00,3.1366
1526.00,3.1610
1525.00,3.1842
1524.00,3.2015
1523.00,3.2139
1522.00,3.2269
1521.00,3.2432
1520.00,3.2581
1519.00,3.2676
1518.00,3.2746
1517.00,3.2841
1516.00,3.2970
1515.00,3.3090
1514.00,3.3168
1513.00,3.3212
1512.00,3.3256
1511.00,3.3332
1510.00,3.3467
1509.00,3.3682
1508.00,3.3917
1507.00,3.4009
1506.00,3.3970
1505.00,3.3970
1504.00,3.4048
1503.00,3.4151
1502.00,3.4249
1501.00,3.4333
1500.00,3.4373
1499.00,3.4328
1498.00,3.4175
1497.00,3.3954
1496.00,3.3798
1495.00,3.3828
1494.00,3.4028
1493.00,3.4266
1492.00,3.4399
1491.00,3.4406
1490.00,3.4422
1489.00,3.4555
1488.00,3.4756
1487.00,3.4886
1486.00,3.4874
1485.00,3.4762
1484.00,3.4622
1483.00,3.4542
1482.00,3.4587
1481.00,3.4736
1480.00,3.4881
1479.00,3.4901
1478.00,3.4781
1477.00,3.4636
1476.00,3.4545
1475.00,3.4465
1474.00,3.4355
1473.00,3.4235
1472.00,3.4163
1471.00,3.4155
1470.00,3.4148
1469.00,3.4108
1468.00,3.4068
1467.00,3.4057
1466.00,3.4064
1465.00,3.4070
1464.00,3.4102
1463.00,3.4237
1462.00,3.4497
1461.00,3.4795
1460.00,3.4976
1459.00,3.4969
1458.00,3.4891
1457.00,3.4969
1456.00,3.5292
1455.00,3.5750
1454.00,3.6265
1453.00,3.6844
1452.00,3.7366
1451.00,3.7580
1450.00,3.7479
1449.00,3.7355
1448.00,3.7377
1447.00,3.7432
1446.00,3.7371
1445.00,3.7249
1444.00,3.7219
1443.00,3.7291
1442.00,3.7320
1441.00,3.7181
1440.00,3.6856
1439.00,3.6443
1438.00,3.6065
1437.00,3.5800
1436.00,3.5703
1435.00,3.5801
1434.00,3.6038
1433.00,3.6290
1432.00,3.6440
1431.00,3.6468
1430.00,3.6458
1429.00,3.6510
1428.00,3.6611
1427.00,3.6635
1426.00,3.6521
1425.00,3.6343
1424.00,3.6195
1423.00,3.6097
1422.00,3.6008
1421.00,3.5902
1420.00,3.5767
1419.00,3.5577
1418.00,3.5344
1417.00,3.5113
1416.00,3.4911
1415.00,3.4737
1414.00,3.4564
1413.00,3.4340
1412.00,3.4044
1411.00,3.3730
1410.00,3.3475
1409.00,3.3320
1408.00,3.3253
1407.00,3.3215
1406.00,3.3144
1405.00,3.3016
1404.00,3.2835
1403.00,3.2598
1402.00,3.2300
1401.00,3.1979
1400.00,3.1727
1399.00,3.1602
1398.00,3.1558
1397.00,3.1493
1396.00,3.1370
1395.00,3.1245
1394.00,3.1198
1393.00,3.1233
1392.00,3.1295
1391.00,3.1343
1390.00,3.1398
1389.00,3.1528
1388.00,3.1810
1387.00,3.2268
1386.00,3.2836
1385.00,3.3417
1384.00,3.3974
1383.00,3.4556
1382.00,3.5219
1381.00,3.5978
1380.00,3.6802
1379.00,3.7605
1378.00,3.8206
1377.00,3.8369
1376.00,3.8012
1375.00,3.7335
1374.00,3.6563
1373.00,3.5736
1372.00,3.4850
1371.00,3.3962
1370.00,3.3165
1369.00,3.2520
1368.00,3.2039
1367.00,3.1716
1366.00,3.1548
1365.00,3.1532
1364.00,3.1645
1363.00,3.1834
1362.00,3.2038
1361.00,3.2216
1360.00,3.2357
1359.00,3.2479
1358.00,3.2615
1357.00,3.2804
1356.00,3.3064
1355.00,3.3397
1354.00,3.3799
1353.00,3.4239
1352.00,3.4631
1351.00,3.4870
1350.00,3.4923
1349.00,3.4869
1348.00,3.4828
1347.00,3.4862
1346.00,3.4951
1345.00,3.5046
1344.00,3.5149
1343.00,3.5334
1342.00,3.5637
1341.00,3.5916
1340.00,3.5903
1339.00,3.5541
1338.00,3.5123
1337.00,3.4949
1336.00,3.5085
1335.00,3.5420
1334.00,3.5809
1333.00,3.6147
1332.00,3.6377
1331.00,3.6474
1330.00,3.6413
1329.00,3.6226
1328.00,3.6009
1327.00,3.5859
1326.00,3.5831
1325.00,3.5894
1324.00,3.5946
1323.00,3.5912
1322.00,3.5864
1321.00,3.5953
1320.00,3.6236
1319.00,3.6561
1318.00,3.6675
1317.00,3.6513
1316.00,3.6255
1315.00,3.6067
1314.00,3.6021
1313.00,3.6110
1312.00,3.6266
1311.00,3.6442
1310.00,3.6613
1309.00,3.6702
1308.00,3.6635
1307.00,3.6448
1306.00,3.6256
1305.00,3.6137
1304.00,3.6075
1303.00,3.6021
1302.00,3.5975
1301.00,3.5973
1300.00,3.6008
1299.00,3.5993
1298.00,3.5849
1297.00,3.5598
1296.00,3.5325
1295.00,3.5088
1294.00,3.4885
1293.00,3.4657
1292.00,3.4362
1291.00,3.4031
1290.00,3.3731
1289.00,3.3495
1288.00,3.3309
1287.00,3.3126
1286.00,3.2916
1285.00,3.2678
1284.00,3.2415
1283.00,3.2127
1282.00,3.1814
1281.00,3.1491
1280.00,3.1174
1279.00,3.0864
1278.00,3.0564
1277.00,3.0272
1276.00,2.9981
1275.00,2.9667
1274.00,2.9307
1273.00,2.8890
1272.00,2.8424
1271.00,2.7933
1270.00,2.7444
1269.00,2.6971
1268.00,2.6502
1267.00,2.6011
1266.00,2.5485
1265.00,2.4939
1264.00,2.4407
1263.00,2.3925
1262.00,2.3524
1261.00,2.3224
1260.00,2.3044
1259.00,2.2991
1258.00,2.3066
1257.00,2.3262
1256.00,2.3573
1255.00,2.3992
1254.00,2.4505
1253.00,2.5088
1252.00,2.5710
1251.00,2.6350
1250.00,2.6992
1249.00,2.7620
1248.00,2.8209
1247.00,2.8745
1246.00,2.9235
1245.00,2.9703
1244.00,3.0168
1243.00,3.0639
1242.00,3.1129
1241.00,3.1644
1240.00,3.2158
1239.00,3.2623
1238.00,3.3028
1237.00,3.3424
1236.00,3.3841
1235.00,3.4223
1234.00,3.4500
1233.00,3.4721
1232.00,3.4950
1231.00,3.5094
1230.00,3.5074
1229.00,3.5009
1228.00,3.5088
1227.00,3.5399
1226.00,3.5830
1225.00,3.6113
1224.00,3.6119
1223.00,3.5999
1222.00,3.5827
1221.00,3.5548
1220.00,3.5177
1219.00,3.4824
1218.00,3.4650
1217.00,3.4766
1216.00,3.5149
1215.00,3.5635
1214.00,3.6029
1213.00,3.6290
1212.00,3.6553
1211.00,3.6922
1210.00,3.7344
1209.00,3.7703
1208.00,3.7898
1207.00,3.7859
1206.00,3.7625
1205.00,3.7326
1204.00,3.7166
1203.00,3.7207
1202.00,3.7360
1201.00,3.7575
1200.00,3.7722
1199.00,3.7658
1198.00,3.7544
1197.00,3.7602
1196.00,3.7877
1195.00,3.8352
1194.00,3.8718
1193.00,3.8508
1192.00,3.8189
1191.00,3.8099
1190.00,3.7956
1189.00,3.7703
1188.00,3.7487
1187.00,3.7271
1186.00,3.6971
1185.00,3.6697
1184.00,3.6720
1183.00,3.7206
1182.00,3.8051
1181.00,3.8939
1180.00,3.9620
1179.00,4.0130
1178.00,4.0508
1177.00,4.0600
1176.00,4.0343
1175.00,3.9915
1174.00,3.9493
1173.00,3.9169
1172.00,3.9052
1171.00,3.9171
1170.00,3.9233
1169.00,3.8624
1168.00,3.7556
1167.00,3.6867
1166.00,3.6766
1165.00,3.6998
1164.00,3.7207
1163.00,3.7225
1162.00,3.7094
1161.00,3.6879
1160.00,3.6650
1159.00,3.6510
1158.00,3.6499
1157.00,3.6494
1156.00,3.6315
1155.00,3.5956
1154.00,3.5536
1153.00,3.5192
1152.00,3.5044
1151.00,3.5118
1150.00,3.5287
1149.00,3.5328
1148.00,3.5100
1147.00,3.4635
1146.00,3.4045
1145.00,3.3442
1144.00,3.2926
1143.00,3.2539
1142.00,3.2227
1141.00,3.1869
1140.00,3.1397
1139.00,3.0865
1138.00,3.0367
1137.00,2.9919
1136.00,2.9478
1135.00,2.9027
1134.00,2.8604
1133.00,2.8258
1132.00,2.8023
1131.00,2.7916
1130.00,2.7942
1129.00,2.8092
1128.00,2.8348
1127.00,2.8697
1126.00,2.9143
1125.00,2.9704
1124.00,3.0379
1123.00,3.1113
1122.00,3.1773
1121.00,3.2181
1120.00,3.2233
1119.00,3.2009
1118.00,3.1694
1117.00,3.1417
1116.00,3.1222
1115.00,3.1137
1114.00,3.1218
1113.00,3.1497
1112.00,3.1917
1111.00,3.2344
1110.00,3.2697
1109.00,3.3051
1108.00,3.3544
1107.00,3.4237
1106.00,3.5057
1105.00,3.5841
1104.00,3.6398
1103.00,3.6612
1102.00,3.6568
1101.00,3.6533
1100.00,3.6738
1099.00,3.7181
1098.00,3.7622
1097.00,3.7845
1096.00,3.7915
1095.00,3.8018
1094.00,3.7996
1093.00,3.7759
1092.00,3.7815
1091.00,3.8530
1090.00,3.9673
1089.00,4.0227
1088.00,3.9534
1087.00,3.8350
1086.00,3.7390
1085.00,3.6964
1084.00,3.7229
1083.00,3.8261
1082.00,4.0102
1081.00,4.2351
1080.00,4.2364
1079.00,4.0790
1078.00,3.9563
1077.00,3.8946
1076.00,3.9119
1075.00,3.9969
1074.00,4.0147
1073.00,3.9220
1072.00,3.8563
1071.00,3.8341
1070.00,3.8412
1069.00,3.8802
1068.00,3.9757
1067.00,4.1847
1066.00,4.5546
1065.00,4.6798
1064.00,4.8945
1063.00,4.4743
1062.00,4.2268
1061.00,4.1587
1060.00,4.0814
1059.00,3.9631
1058.00,3.8909
1057.00,3.8770
1056.00,3.9001
1055.00,3.9495
1054.00,4.0367
1053.00,4.1126
1052.00,4.0676
1051.00,4.0416
1050.00,4.0937
1049.00,4.1373
1048.00,4.1463
1047.00,4.1817
1046.00,4.2629
1045.00,4.4155
1044.00,4.7752
1043.00,4.9450
1042.00,4.4577
1041.00,4.3043
1040.00,4.2752
1039.00,4.2552
1038.00,4.1486
1037.00,3.9934
1036.00,3.8877
1035.00,3.8692
1034.00,3.9582
1033.00,4.2117
1032.00,4.3578
1031.00,4.1372
1030.00,4.1448
1029.00,4.2888
1028.00,4.3765
1027.00,4.3538
1026.00,4.2686
1025.00,4.1128
1024.00,3.9525
1023.00,3.8628
1022.00,3.8643
1021.00,3.9585
1020.00,4.1606
1019.00,4.5606
1018.00,4.7567
1017.00,4.3876
1016.00,4.3415
1015.00,4.4808
1014.00,4.3258
1013.00,4.1101
1012.00,4.0411
1011.00,4.1014
1010.00,4.3031
1009.00,4.5577
1008.00,4.6758
1007.00,4.9970
1006.00,4.3683
1005.00,4.1409
1004.00,4.0983
1003.00,4.1928
1002.00,4.4229
1001.00,4.8185
1000.00,4.6529
999.00,4.4438
998.00,4.4019
997.00,4.3717
996.00,4.2671
995.00,4.1644
994.00,4.1436
993.00,4.1640
992.00,4.0796
991.00,3.9484
990.00,3.8517
989.00,3.7607
988.00,3.6662
987.00,3.5869
986.00,3.5290
985.00,3.4892
984.00,3.4642
983.00,3.4525
982.00,3.4494
981.00,3.4434
980.00,3.4271
979.00,3.4105
978.00,3.4164
977.00,3.4614
976.00,3.5397
975.00,3.6133
974.00,3.6337
973.00,3.6094
972.00,3.6000
971.00,3.6478
970.00,3.7517
969.00,3.8631
968.00,3.9419
967.00,3.9204
966.00,3.7796
965.00,3.6787
964.00,3.6671
963.00,3.7449
962.00,3.9159
961.00,4.1992
960.00,4.6241
959.00,4.7802
958.00,4.4441
957.00,4.2923
956.00,4.2664
955.00,4.2276
954.00,4.1333
953.00,4.0288
952.00,3.9271
951.00,3.8653
950.00,3.8699
949.00,3.9162
948.00,3.9245
947.00,3.8700
946.00,3.8194
945.00,3.8196
944.00,3.8821
943.00,4.0000
942.00,4.1305
941.00,4.1995
940.00,4.2168
939.00,4.2312
938.00,4.3292
937.00,4.5929
936.00,4.5821
935.00,4.4593
934.00,4.5158
933.00,4.5341
932.00,4.3672
931.00,4.1635
930.00,4.0436
929.00,3.9909
928.00,3.9537
927.00,3.9437
926.00,4.0204
925.00,4.2784
924.00,4.6543
923.00,4.3562
922.00,4.4015
921.00,5.1292
920.00,4.3354
919.00,4.1223
918.00,4.1020
917.00,4.1864
916.00,4.2406
915.00,4.2379
914.00,4.2129
913.00,4.1105
912.00,4.0567
911.00,4.1087
910.00,4.2189
909.00,4.2278
908.00,4.0702
907.00,3.9007
906.00,3.8091
905.00,3.7927
904.00,3.8221
903.00,3.8770
902.00,3.9505
901.00,4.0187
900.00,4.0457
899.00,4.0287
898.00,3.9925
897.00,3.9665
896.00,3.9778
895.00,4.0176
894.00,4.0252
893.00,4.0035
892.00,4.0328
891.00,4.1291
890.00,4.2463
889.00,4.4629
888.00,4.8242
887.00,4.9394
886.00,4.6150
885.00,4.1080
884.00,3.9321
883.00,4.0069
882.00,4.3246
881.00,4.1262
880.00,3.9192
879.00,3.9059
878.00,3.9727
877.00,4.0759
876.00,4.1981
875.00,4.2150
874.00,4.1169
873.00,4.0169
872.00,3.9317
871.00,3.8929
870.00,3.9278
869.00,4.0457
868.00,4.2191
867.00,4.3338
866.00,4.2711
865.00,4.1192
864.00,3.9883
863.00,3.9148
862.00,3.9119
861.00,3.9737
860.00,4.0623
859.00,4.1314
858.00,4.1961
857.00,4.2705
856.00,4.2054
855.00,4.0561
854.00,3.9984
853.00,4.0413
852.00,4.1519
851.00,4.2488
850.00,4.3930
849.00,4.6699
848.00,4.3180
847.00,4.0458
846.00,3.9181
845.00,3.8717
844.00,3.9137
843.00,4.0210
842.00,4.2242
841.00,4.6338
840.00,4.4710
839.00,4.3351
838.00,4.4834
837.00,4.4241
836.00,4.3075
835.00,4.2593
834.00,4.1390
833.00,4.0825
832.00,4.1665
831.00,4.3029
830.00,4.4525
829.00,4.8560
828.00,4.3415
827.00,4.0365
826.00,3.9722
825.00,4.1718
824.00,4.7680
823.00,4.1272
822.00,3.9440
821.00,3.9243
820.00,3.9953
819.00,4.1511
818.00,4.1767
817.00,4.0554
816.00,3.9195
815.00,3.8761
814.00,3.9706
813.00,4.2319
812.00,4.4641
811.00,4.1743
810.00,3.8786
809.00,3.7172
808.00,3.6924
807.00,3.8012
806.00,4.1092
805.00,4.6968
804.00,4.3111
803.00,4.0943
802.00,4.0164
801.00,4.0455
800.00,4.3413
799.00,4.3922
798.00,4.0603
797.00,4.1033
796.00,4.5704
795.00,4.4791
794.00,4.2710
793.00,4.5981
792.00,4.7601
791.00,4.3806
790.00,4.5620
789.00,4.4023
788.00,3.9701
787.00,3.8019
786.00,3.7899
785.00,3.9193
784.00,4.2047
783.00,4.4005
782.00,4.2034
781.00,4.0306
780.00,3.9872
779.00,4.0992
778.00,4.4105
777.00,4.7728
776.00,4.6800
775.00,4.4385
774.00,4.2489
773.00,4.1820
772.00,4.2113
771.00,4.2873
770.00,4.4432
769.00,4.4288
768.00,4.1605
767.00,4.0221
766.00,3.9714
765.00,3.9233
764.00,3.8579
763.00,3.7946
762.00,3.7693
761.00,3.8120
760.00,3.9423
759.00,4.1804
758.00,4.4608
757.00,4.4878
756.00,4.6045
755.00,4.5252
754.00,4.1613
753.00,4.0594
752.00,4.1154
751.00,4.2348
750.00,4.2189
749.00,4.0545
748.00,4.0061
747.00,4.1512
746.00,4.2719
745.00,4.0731
744.00,4.0027
743.00,4.0605
742.00,4.0753
741.00,4.0478
740.00,4.1123
739.00,4.3539
738.00,4.2902
737.00,3.9933
736.00,3.8459
735.00,3.8145
734.00,3.8787
733.00,4.1459
732.00,4.6094
731.00,4.2921
730.00,4.1920
729.00,4.1271
728.00,3.9982
727.00,4.0118
726.00,4.1286
725.00,4.0882
724.00,3.9563
723.00,3.9524
722.00,4.0376
721.00,4.1099
720.00,4.0506
719.00,3.9501
718.00,3.9438
717.00,4.0584
716.00,4.2152
715.00,4.2169
714.00,4.1519
713.00,4.1063
712.00,4.0509
711.00,4.0184
710.00,4.0984
709.00,4.4587
708.00,4.6216
707.00,4.2610
706.00,4.2109
705.00,4.3878
704.00,4.5693
703.00,4.4417
702.00,4.3941
701.00,4.6644
700.00,4.9471
