Created as New Dataset,Sample 032 By Administrator Date Wednesday, November 24 2021
cm-1,A
7502.00,0.8233
7501.00,0.8169
7500.00,0.8106
7499.00,0.8043
7498.00,0.7982
7497.00,0.7921
7496.00,0.7861
7495.00,0.7802
7494.00,0.7744
7493.00,0.7678
7492.00,0.7606
7491.00,0.7534
7490.00,0.7461
7489.00,0.7391
7488.00,0.7323
7487.00,0.7260
7486.00,0.7204
7485.00,0.7151
7484.00,0.7094
7483.00,0.7032
7482.00,0.6962
7481.00,0.6888
7480.00,0.6811
7479.00,0.6731
7478.00,0.6649
7477.00,0.6568
7476.00,0.6491
7475.00,0.6419
7474.00,0.6348
7473.00,0.6273
7472.00,0.6193
7471.00,0.6113
7470.00,0.6039
7469.00,0.5971
7468.00,0.5905
7467.00,0.5838
7466.00,0.5776
7465.00,0.5723
7464.00,0.5676
7463.00,0.5630
7462.00,0.5584
7461.00,0.5541
7460.00,0.5505
7459.00,0.5475
7458.00,0.5448
7457.00,0.5421
7456.00,0.5394
7455.00,0.5366
7454.00,0.5339
7453.00,0.5316
7452.00,0.5298
7451.00,0.5289
7450.00,0.5290
7449.00,0.5302
7448.00,0.5322
7447.00,0.5346
7446.00,0.5374
7445.00,0.5403
7444.00,0.5433
7443.00,0.5465
7442.00,0.5499
7441.00,0.5537
7440.00,0.5582
7439.00,0.5633
7438.00,0.5689
7437.00,0.5749
7436.00,0.5814
7435.00,0.5881
7434.00,0.5950
7433.00,0.6018
7432.00,0.6087
7431.00,0.6157
7430.00,0.6233
7429.00,0.6311
7428.00,0.6390
7427.00,0.6468
7426.00,0.6550
7425.00,0.6641
7424.00,0.6737
7423.00,0.6829
7422.00,0.6913
7421.00,0.6994
7420.00,0.7081
7419.00,0.7174
7418.00,0.7269
7417.00,0.7360
7416.00,0.7450
7415.00,0.7541
7414.00,0.7636
7413.00,0.7729
7412.00,0.7815
7411.00,0.7895
7410.00,0.7972
7409.00,0.8047
7408.00,0.8123
7407.00,0.8202
7406.00,0.8289
7405.00,0.8377
7404.00,0.8460
7403.00,0.8532
7402.00,0.8601
7401.00,0.8673
7400.00,0.8748
7399.00,0.8817
7398.00,0.8873
7397.00,0.8921
7396.00,0.8968
7395.00,0.9016
7394.00,0.9062
7393.00,0.9099
7392.00,0.9126
7391.00,0.9148
7390.00,0.9175
7389.00,0.9212
7388.00,0.9253
7387.00,0.9288
7386.00,0.9317
7385.00,0.9344
7384.00,0.9372
7383.00,0.9397
7382.00,0.9414
7381.00,0.9424
7380.00,0.9433
7379.00,0.9443
7378.00,0.9450
7377.00,0.9450
7376.00,0.9441
7375.00,0.9421
7374.00,0.9392
7373.00,0.9352
7372.00,0.9307
7371.00,0.9261
7370.00,0.9218
7369.00,0.9176
7368.00,0.9133
7367.00,0.9092
7366.00,0.9053
7365.00,0.9014
7364.00,0.8974
7363.00,0.8931
7362.00,0.8887
7361.00,0.8844
7360.00,0.8801
7359.00,0.8752
7358.00,0.8699
7357.00,0.8647
7356.00,0.8598
7355.00,0.8557
7354.00,0.8522
7353.00,0.8493
7352.00,0.8463
7351.00,0.8426
7350.00,0.8375
7349.00,0.8307
7348.00,0.8222
7347.00,0.8128
7346.00,0.8033
7345.00,0.7948
7344.00,0.7876
7343.00,0.7813
7342.00,0.7753
7341.00,0.7689
7340.00,0.7624
7339.00,0.7559
7338.00,0.7494
7337.00,0.7423
7336.00,0.7347
7335.00,0.7268
7334.00,0.7193
7333.00,0.7122
7332.00,0.7054
7331.00,0.6987
7330.00,0.6922
7329.00,0.6860
7328.00,0.6801
7327.00,0.6746
7326.00,0.6697
7325.00,0.6650
7324.00,0.6602
7323.00,0.6551
7322.00,0.6501
7321.00,0.6456
7320.00,0.6416
7319.00,0.6381
7318.00,0.6351
7317.00,0.6325
7316.00,0.6302
7315.00,0.6281
7314.00,0.6262
7313.00,0.6251
7312.00,0.6244
7311.00,0.6239
7310.00,0.6235
7309.00,0.6235
7308.00,0.6241
7307.00,0.6255
7306.00,0.6275
7305.00,0.6299
7304.00,0.6326
7303.00,0.6358
7302.00,0.6394
7301.00,0.6435
7300.00,0.6478
7299.00,0.6522
7298.00,0.6567
7297.00,0.6618
7296.00,0.6677
7295.00,0.6741
7294.00,0.6809
7293.00,0.6878
7292.00,0.6948
7291.00,0.7018
7290.00,0.7089
7289.00,0.7162
7288.00,0.7239
7287.00,0.7318
7286.00,0.7398
7285.00,0.7482
7284.00,0.7572
7283.00,0.7668
7282.00,0.7765
7281.00,0.7858
7280.00,0.7947
7279.00,0.8034
7278.00,0.8124
7277.00,0.8218
7276.00,0.8315
7275.00,0.8413
7274.00,0.8509
7273.00,0.8604
7272.00,0.8695
7271.00,0.8784
7270.00,0.8870
7269.00,0.8950
7268.00,0.9025
7267.00,0.9100
7266.00,0.9179
7265.00,0.9266
7264.00,0.9355
7263.00,0.9442
7262.00,0.9530
7261.00,0.9622
7260.00,0.9713
7259.00,0.9796
7258.00,0.9867
7257.00,0.9931
7256.00,0.9992
7255.00,1.0048
7254.00,1.0096
7253.00,1.0139
7252.00,1.0182
7251.00,1.0226
7250.00,1.0270
7249.00,1.0313
7248.00,1.0355
7247.00,1.0396
7246.00,1.0437
7245.00,1.0475
7244.00,1.0512
7243.00,1.0547
7242.00,1.0581
7241.00,1.0611
7240.00,1.0632
7239.00,1.0642
7238.00,1.0644
7237.00,1.0644
7236.00,1.0645
7235.00,1.0646
7234.00,1.0645
7233.00,1.0641
7232.00,1.0636
7231.00,1.0633
7230.00,1.0627
7229.00,1.0615
7228.00,1.0593
7227.00,1.0563
7226.00,1.0529
7225.00,1.0495
7224.00,1.0460
7223.00,1.0422
7222.00,1.0380
7221.00,1.0334
7220.00,1.0286
7219.00,1.0233
7218.00,1.0174
7217.00,1.0109
7216.00,1.0042
7215.00,0.9978
7214.00,0.9916
7213.00,0.9854
7212.00,0.9788
7211.00,0.9719
7210.00,0.9649
7209.00,0.9578
7208.00,0.9507
7207.00,0.9432
7206.00,0.9353
7205.00,0.9272
7204.00,0.9192
7203.00,0.9112
7202.00,0.9030
7201.00,0.8944
7200.00,0.8855
7199.00,0.8767
7198.00,0.8683
7197.00,0.8599
7196.00,0.8512
7195.00,0.8422
7194.00,0.8332
7193.00,0.8246
7192.00,0.8164
7191.00,0.8083
7190.00,0.8002
7189.00,0.7920
7188.00,0.7839
7187.00,0.7760
7186.00,0.7685
7185.00,0.7613
7184.00,0.7543
7183.00,0.7476
7182.00,0.7414
7181.00,0.7359
7180.00,0.7308
7179.00,0.7259
7178.00,0.7210
7177.00,0.7163
7176.00,0.7120
7175.00,0.7084
7174.00,0.7053
7173.00,0.7028
7172.00,0.7008
7171.00,0.6992
7170.00,0.6982
7169.00,0.6977
7168.00,0.6978
7167.00,0.6983
7166.00,0.6991
7165.00,0.7004
7164.00,0.7020
7163.00,0.7043
7162.00,0.7070
7161.00,0.7102
7160.00,0.7137
7159.00,0.7177
7158.00,0.7223
7157.00,0.7275
7156.00,0.7330
7155.00,0.7388
7154.00,0.7448
7153.00,0.7514
7152.00,0.7583
7151.00,0.7653
7150.00,0.7724
7149.00,0.7797
7148.00,0.7872
7147.00,0.7950
7146.00,0.8030
7145.00,0.8112
7144.00,0.8196
7143.00,0.8284
7142.00,0.8374
7141.00,0.8462
7140.00,0.8549
7139.00,0.8637
7138.00,0.8729
7137.00,0.8823
7136.00,0.8917
7135.00,0.9007
7134.00,0.9095
7133.00,0.9183
7132.00,0.9269
7131.00,0.9351
7130.00,0.9434
7129.00,0.9519
7128.00,0.9607
7127.00,0.9695
7126.00,0.9780
7125.00,0.9862
7124.00,0.9940
7123.00,1.0013
7122.00,1.0082
7121.00,1.0147
7120.00,1.0210
7119.00,1.0272
7118.00,1.0334
7117.00,1.0396
7116.00,1.0457
7115.00,1.0514
7114.00,1.0567
7113.00,1.0616
7112.00,1.0663
7111.00,1.0709
7110.00,1.0752
7109.00,1.0787
7108.00,1.0816
7107.00,1.0844
7106.00,1.0875
7105.00,1.0907
7104.00,1.0935
7103.00,1.0958
7102.00,1.0976
7101.00,1.0990
7100.00,1.0999
7099.00,1.1004
7098.00,1.1005
7097.00,1.1005
7096.00,1.1004
7095.00,1.1000
7094.00,1.0996
7093.00,1.0988
7092.00,1.0976
7091.00,1.0956
7090.00,1.0931
7089.00,1.0904
7088.00,1.0873
7087.00,1.0840
7086.00,1.0805
7085.00,1.0769
7084.00,1.0729
7083.00,1.0686
7082.00,1.0640
7081.00,1.0590
7080.00,1.0534
7079.00,1.0472
7078.00,1.0408
7077.00,1.0343
7076.00,1.0279
7075.00,1.0214
7074.00,1.0148
7073.00,1.0081
7072.00,1.0014
7071.00,0.9946
7070.00,0.9876
7069.00,0.9804
7068.00,0.9726
7067.00,0.9643
7066.00,0.9556
7065.00,0.9467
7064.00,0.9376
7063.00,0.9284
7062.00,0.9193
7061.00,0.9102
7060.00,0.9012
7059.00,0.8923
7058.00,0.8835
7057.00,0.8752
7056.00,0.8672
7055.00,0.8589
7054.00,0.8503
7053.00,0.8415
7052.00,0.8328
7051.00,0.8242
7050.00,0.8156
7049.00,0.8073
7048.00,0.7994
7047.00,0.7918
7046.00,0.7845
7045.00,0.7772
7044.00,0.7701
7043.00,0.7633
7042.00,0.7569
7041.00,0.7508
7040.00,0.7451
7039.00,0.7399
7038.00,0.7352
7037.00,0.7311
7036.00,0.7272
7035.00,0.7236
7034.00,0.7204
7033.00,0.7178
7032.00,0.7158
7031.00,0.7142
7030.00,0.7131
7029.00,0.7124
7028.00,0.7122
7027.00,0.7124
7026.00,0.7131
7025.00,0.7142
7024.00,0.7158
7023.00,0.7180
7022.00,0.7209
7021.00,0.7243
7020.00,0.7282
7019.00,0.7323
7018.00,0.7367
7017.00,0.7416
7016.00,0.7470
7015.00,0.7529
7014.00,0.7591
7013.00,0.7656
7012.00,0.7725
7011.00,0.7798
7010.00,0.7875
7009.00,0.7952
7008.00,0.8027
7007.00,0.8101
7006.00,0.8179
7005.00,0.8261
7004.00,0.8348
7003.00,0.8437
7002.00,0.8528
7001.00,0.8622
7000.00,0.8718
6999.00,0.8816
6998.00,0.8911
6997.00,0.9004
6996.00,0.9096
6995.00,0.9187
6994.00,0.9280
6993.00,0.9373
6992.00,0.9465
6991.00,0.9554
6990.00,0.9641
6989.00,0.9729
6988.00,0.9817
6987.00,0.9903
6986.00,0.9988
6985.00,1.0072
6984.00,1.0159
6983.00,1.0248
6982.00,1.0334
6981.00,1.0415
6980.00,1.0490
6979.00,1.0564
6978.00,1.0637
6977.00,1.0708
6976.00,1.0775
6975.00,1.0838
6974.00,1.0899
6973.00,1.0961
6972.00,1.1019
6971.00,1.1074
6970.00,1.1126
6969.00,1.1176
6968.00,1.1223
6967.00,1.1266
6966.00,1.1303
6965.00,1.1338
6964.00,1.1369
6963.00,1.1398
6962.00,1.1425
6961.00,1.1449
6960.00,1.1471
6959.00,1.1488
6958.00,1.1501
6957.00,1.1510
6956.00,1.1512
6955.00,1.1508
6954.00,1.1498
6953.00,1.1488
6952.00,1.1478
6951.00,1.1467
6950.00,1.1452
6949.00,1.1435
6948.00,1.1416
6947.00,1.1396
6946.00,1.1372
6945.00,1.1343
6944.00,1.1308
6943.00,1.1271
6942.00,1.1233
6941.00,1.1192
6940.00,1.1145
6939.00,1.1094
6938.00,1.1042
6937.00,1.0990
6936.00,1.0935
6935.00,1.0875
6934.00,1.0811
6933.00,1.0743
6932.00,1.0673
6931.00,1.0600
6930.00,1.0525
6929.00,1.0448
6928.00,1.0369
6927.00,1.0287
6926.00,1.0203
6925.00,1.0119
6924.00,1.0032
6923.00,0.9943
6922.00,0.9850
6921.00,0.9755
6920.00,0.9661
6919.00,0.9570
6918.00,0.9480
6917.00,0.9388
6916.00,0.9293
6915.00,0.9195
6914.00,0.9099
6913.00,0.9006
6912.00,0.8913
6911.00,0.8817
6910.00,0.8720
6909.00,0.8626
6908.00,0.8536
6907.00,0.8452
6906.00,0.8371
6905.00,0.8294
6904.00,0.8220
6903.00,0.8149
6902.00,0.8081
6901.00,0.8014
6900.00,0.7948
6899.00,0.7883
6898.00,0.7821
6897.00,0.7765
6896.00,0.7715
6895.00,0.7670
6894.00,0.7630
6893.00,0.7596
6892.00,0.7567
6891.00,0.7542
6890.00,0.7521
6889.00,0.7508
6888.00,0.7502
6887.00,0.7502
6886.00,0.7506
6885.00,0.7514
6884.00,0.7527
6883.00,0.7544
6882.00,0.7564
6881.00,0.7589
6880.00,0.7619
6879.00,0.7655
6878.00,0.7698
6877.00,0.7745
6876.00,0.7796
6875.00,0.7852
6874.00,0.7911
6873.00,0.7972
6872.00,0.8035
6871.00,0.8101
6870.00,0.8173
6869.00,0.8249
6868.00,0.8326
6867.00,0.8405
6866.00,0.8487
6865.00,0.8573
6864.00,0.8660
6863.00,0.8747
6862.00,0.8835
6861.00,0.8926
6860.00,0.9019
6859.00,0.9114
6858.00,0.9208
6857.00,0.9302
6856.00,0.9396
6855.00,0.9491
6854.00,0.9583
6853.00,0.9674
6852.00,0.9762
6851.00,0.9850
6850.00,0.9937
6849.00,1.0024
6848.00,1.0110
6847.00,1.0196
6846.00,1.0283
6845.00,1.0368
6844.00,1.0450
6843.00,1.0528
6842.00,1.0607
6841.00,1.0683
6840.00,1.0756
6839.00,1.0824
6838.00,1.0888
6837.00,1.0951
6836.00,1.1010
6835.00,1.1065
6834.00,1.1119
6833.00,1.1175
6832.00,1.1232
6831.00,1.1286
6830.00,1.1335
6829.00,1.1380
6828.00,1.1418
6827.00,1.1447
6826.00,1.1469
6825.00,1.1488
6824.00,1.1508
6823.00,1.1528
6822.00,1.1546
6821.00,1.1561
6820.00,1.1573
6819.00,1.1582
6818.00,1.1589
6817.00,1.1591
6816.00,1.1589
6815.00,1.1582
6814.00,1.1573
6813.00,1.1564
6812.00,1.1555
6811.00,1.1543
6810.00,1.1526
6809.00,1.1504
6808.00,1.1474
6807.00,1.1438
6806.00,1.1395
6805.00,1.1345
6804.00,1.1291
6803.00,1.1237
6802.00,1.1186
6801.00,1.1137
6800.00,1.1089
6799.00,1.1039
6798.00,1.0984
6797.00,1.0924
6796.00,1.0857
6795.00,1.0787
6794.00,1.0714
6793.00,1.0638
6792.00,1.0559
6791.00,1.0475
6790.00,1.0389
6789.00,1.0302
6788.00,1.0214
6787.00,1.0124
6786.00,1.0032
6785.00,0.9939
6784.00,0.9847
6783.00,0.9754
6782.00,0.9662
6781.00,0.9569
6780.00,0.9475
6779.00,0.9381
6778.00,0.9288
6777.00,0.9195
6776.00,0.9101
6775.00,0.9004
6774.00,0.8909
6773.00,0.8816
6772.00,0.8725
6771.00,0.8635
6770.00,0.8546
6769.00,0.8458
6768.00,0.8372
6767.00,0.8290
6766.00,0.8211
6765.00,0.8135
6764.00,0.8062
6763.00,0.7992
6762.00,0.7926
6761.00,0.7863
6760.00,0.7801
6759.00,0.7739
6758.00,0.7681
6757.00,0.7628
6756.00,0.7582
6755.00,0.7541
6754.00,0.7506
6753.00,0.7475
6752.00,0.7450
6751.00,0.7430
6750.00,0.7415
6749.00,0.7403
6748.00,0.7395
6747.00,0.7391
6746.00,0.7393
6745.00,0.7402
6744.00,0.7416
6743.00,0.7435
6742.00,0.7458
6741.00,0.7486
6740.00,0.7517
6739.00,0.7554
6738.00,0.7596
6737.00,0.7643
6736.00,0.7694
6735.00,0.7749
6734.00,0.7810
6733.00,0.7875
6732.00,0.7942
6731.00,0.8010
6730.00,0.8081
6729.00,0.8157
6728.00,0.8238
6727.00,0.8323
6726.00,0.8412
6725.00,0.8503
6724.00,0.8595
6723.00,0.8686
6722.00,0.8777
6721.00,0.8869
6720.00,0.8961
6719.00,0.9053
6718.00,0.9148
6717.00,0.9246
6716.00,0.9345
6715.00,0.9445
6714.00,0.9544
6713.00,0.9642
6712.00,0.9738
6711.00,0.9831
6710.00,0.9923
6709.00,1.0016
6708.00,1.0109
6707.00,1.0202
6706.00,1.0292
6705.00,1.0382
6704.00,1.0471
6703.00,1.0557
6702.00,1.0638
6701.00,1.0717
6700.00,1.0794
6699.00,1.0870
6698.00,1.0947
6697.00,1.1023
6696.00,1.1097
6695.00,1.1167
6694.00,1.1235
6693.00,1.1301
6692.00,1.1362
6691.00,1.1416
6690.00,1.1467
6689.00,1.1515
6688.00,1.1562
6687.00,1.1603
6686.00,1.1641
6685.00,1.1676
6684.00,1.1713
6683.00,1.1750
6682.00,1.1786
6681.00,1.1820
6680.00,1.1850
6679.00,1.1875
6678.00,1.1892
6677.00,1.1902
6676.00,1.1904
6675.00,1.1901
6674.00,1.1896
6673.00,1.1893
6672.00,1.1892
6671.00,1.1888
6670.00,1.1880
6669.00,1.1865
6668.00,1.1846
6667.00,1.1826
6666.00,1.1805
6665.00,1.1781
6664.00,1.1752
6663.00,1.1717
6662.00,1.1678
6661.00,1.1633
6660.00,1.1584
6659.00,1.1530
6658.00,1.1474
6657.00,1.1414
6656.00,1.1355
6655.00,1.1294
6654.00,1.1232
6653.00,1.1164
6652.00,1.1089
6651.00,1.1011
6650.00,1.0934
6649.00,1.0857
6648.00,1.0775
6647.00,1.0688
6646.00,1.0600
6645.00,1.0511
6644.00,1.0420
6643.00,1.0325
6642.00,1.0227
6641.00,1.0127
6640.00,1.0028
6639.00,0.9928
6638.00,0.9827
6637.00,0.9727
6636.00,0.9627
6635.00,0.9526
6634.00,0.9426
6633.00,0.9327
6632.00,0.9227
6631.00,0.9127
6630.00,0.9030
6629.00,0.8934
6628.00,0.8839
6627.00,0.8745
6626.00,0.8651
6625.00,0.8561
6624.00,0.8473
6623.00,0.8387
6622.00,0.8303
6621.00,0.8224
6620.00,0.8149
6619.00,0.8079
6618.00,0.8014
6617.00,0.7952
6616.00,0.7892
6615.00,0.7837
6614.00,0.7787
6613.00,0.7743
6612.00,0.7705
6611.00,0.7671
6610.00,0.7641
6609.00,0.7617
6608.00,0.7598
6607.00,0.7584
6606.00,0.7573
6605.00,0.7569
6604.00,0.7571
6603.00,0.7581
6602.00,0.7600
6601.00,0.7626
6600.00,0.7657
6599.00,0.7693
6598.00,0.7734
6597.00,0.7780
6596.00,0.7830
6595.00,0.7883
6594.00,0.7940
6593.00,0.8002
6592.00,0.8069
6591.00,0.8140
6590.00,0.8213
6589.00,0.8288
6588.00,0.8365
6587.00,0.8444
6586.00,0.8526
6585.00,0.8610
6584.00,0.8699
6583.00,0.8791
6582.00,0.8886
6581.00,0.8982
6580.00,0.9079
6579.00,0.9174
6578.00,0.9269
6577.00,0.9364
6576.00,0.9460
6575.00,0.9556
6574.00,0.9651
6573.00,0.9745
6572.00,0.9839
6571.00,0.9934
6570.00,1.0030
6569.00,1.0126
6568.00,1.0220
6567.00,1.0312
6566.00,1.0402
6565.00,1.0490
6564.00,1.0577
6563.00,1.0662
6562.00,1.0743
6561.00,1.0821
6560.00,1.0898
6559.00,1.0977
6558.00,1.1053
6557.00,1.1125
6556.00,1.1192
6555.00,1.1259
6554.00,1.1325
6553.00,1.1387
6552.00,1.1443
6551.00,1.1491
6550.00,1.1535
6549.00,1.1576
6548.00,1.1618
6547.00,1.1660
6546.00,1.1700
6545.00,1.1736
6544.00,1.1766
6543.00,1.1792
6542.00,1.1813
6541.00,1.1828
6540.00,1.1836
6539.00,1.1841
6538.00,1.1845
6537.00,1.1851
6536.00,1.1854
6535.00,1.1854
6534.00,1.1850
6533.00,1.1842
6532.00,1.1828
6531.00,1.1810
6530.00,1.1787
6529.00,1.1760
6528.00,1.1730
6527.00,1.1700
6526.00,1.1670
6525.00,1.1638
6524.00,1.1601
6523.00,1.1557
6522.00,1.1507
6521.00,1.1452
6520.00,1.1390
6519.00,1.1325
6518.00,1.1259
6517.00,1.1192
6516.00,1.1126
6515.00,1.1059
6514.00,1.0990
6513.00,1.0918
6512.00,1.0841
6511.00,1.0758
6510.00,1.0673
6509.00,1.0587
6508.00,1.0500
6507.00,1.0411
6506.00,1.0319
6505.00,1.0224
6504.00,1.0128
6503.00,1.0032
6502.00,0.9936
6501.00,0.9839
6500.00,0.9740
6499.00,0.9640
6498.00,0.9541
6497.00,0.9442
6496.00,0.9343
6495.00,0.9243
6494.00,0.9143
6493.00,0.9044
6492.00,0.8945
6491.00,0.8845
6490.00,0.8746
6489.00,0.8650
6488.00,0.8558
6487.00,0.8469
6486.00,0.8384
6485.00,0.8303
6484.00,0.8225
6483.00,0.8146
6482.00,0.8068
6481.00,0.7991
6480.00,0.7916
6479.00,0.7846
6478.00,0.7780
6477.00,0.7720
6476.00,0.7664
6475.00,0.7613
6474.00,0.7566
6473.00,0.7525
6472.00,0.7487
6471.00,0.7453
6470.00,0.7426
6469.00,0.7404
6468.00,0.7388
6467.00,0.7378
6466.00,0.7373
6465.00,0.7373
6464.00,0.7378
6463.00,0.7388
6462.00,0.7405
6461.00,0.7428
6460.00,0.7457
6459.00,0.7490
6458.00,0.7529
6457.00,0.7572
6456.00,0.7621
6455.00,0.7675
6454.00,0.7733
6453.00,0.7797
6452.00,0.7864
6451.00,0.7936
6450.00,0.8013
6449.00,0.8093
6448.00,0.8175
6447.00,0.8260
6446.00,0.8348
6445.00,0.8440
6444.00,0.8534
6443.00,0.8628
6442.00,0.8723
6441.00,0.8820
6440.00,0.8919
6439.00,0.9022
6438.00,0.9125
6437.00,0.9230
6436.00,0.9334
6435.00,0.9437
6434.00,0.9540
6433.00,0.9640
6432.00,0.9739
6431.00,0.9836
6430.00,0.9934
6429.00,1.0033
6428.00,1.0130
6427.00,1.0227
6426.00,1.0323
6425.00,1.0420
6424.00,1.0515
6423.00,1.0607
6422.00,1.0698
6421.00,1.0787
6420.00,1.0874
6419.00,1.0959
6418.00,1.1043
6417.00,1.1123
6416.00,1.1198
6415.00,1.1269
6414.00,1.1335
6413.00,1.1399
6412.00,1.1459
6411.00,1.1514
6410.00,1.1569
6409.00,1.1626
6408.00,1.1684
6407.00,1.1736
6406.00,1.1781
6405.00,1.1818
6404.00,1.1851
6403.00,1.1880
6402.00,1.1907
6401.00,1.1932
6400.00,1.1956
6399.00,1.1981
6398.00,1.2005
6397.00,1.2028
6396.00,1.2045
6395.00,1.2054
6394.00,1.2056
6393.00,1.2053
6392.00,1.2046
6391.00,1.2034
6390.00,1.2018
6389.00,1.1998
6388.00,1.1975
6387.00,1.1951
6386.00,1.1924
6385.00,1.1895
6384.00,1.1862
6383.00,1.1826
6382.00,1.1789
6381.00,1.1747
6380.00,1.1702
6379.00,1.1653
6378.00,1.1603
6377.00,1.1550
6376.00,1.1494
6375.00,1.1434
6374.00,1.1370
6373.00,1.1302
6372.00,1.1227
6371.00,1.1144
6370.00,1.1055
6369.00,1.0965
6368.00,1.0875
6367.00,1.0785
6366.00,1.0694
6365.00,1.0602
6364.00,1.0511
6363.00,1.0419
6362.00,1.0324
6361.00,1.0225
6360.00,1.0121
6359.00,1.0015
6358.00,0.9910
6357.00,0.9805
6356.00,0.9699
6355.00,0.9590
6354.00,0.9481
6353.00,0.9373
6352.00,0.9265
6351.00,0.9156
6350.00,0.9046
6349.00,0.8939
6348.00,0.8834
6347.00,0.8731
6346.00,0.8630
6345.00,0.8531
6344.00,0.8433
6343.00,0.8338
6342.00,0.8246
6341.00,0.8158
6340.00,0.8073
6339.00,0.7991
6338.00,0.7913
6337.00,0.7840
6336.00,0.7772
6335.00,0.7708
6334.00,0.7651
6333.00,0.7601
6332.00,0.7556
6331.00,0.7516
6330.00,0.7479
6329.00,0.7447
6328.00,0.7421
6327.00,0.7401
6326.00,0.7389
6325.00,0.7383
6324.00,0.7384
6323.00,0.7391
6322.00,0.7404
6321.00,0.7423
6320.00,0.7445
6319.00,0.7472
6318.00,0.7505
6317.00,0.7545
6316.00,0.7591
6315.00,0.7643
6314.00,0.7700
6313.00,0.7763
6312.00,0.7832
6311.00,0.7904
6310.00,0.7979
6309.00,0.8058
6308.00,0.8140
6307.00,0.8225
6306.00,0.8312
6305.00,0.8402
6304.00,0.8495
6303.00,0.8590
6302.00,0.8687
6301.00,0.8786
6300.00,0.8887
6299.00,0.8990
6298.00,0.9092
6297.00,0.9195
6296.00,0.9297
6295.00,0.9401
6294.00,0.9505
6293.00,0.9609
6292.00,0.9712
6291.00,0.9813
6290.00,0.9913
6289.00,1.0011
6288.00,1.0107
6287.00,1.0200
6286.00,1.0296
6285.00,1.0393
6284.00,1.0490
6283.00,1.0583
6282.00,1.0672
6281.00,1.0760
6280.00,1.0847
6279.00,1.0933
6278.00,1.1014
6277.00,1.1091
6276.00,1.1163
6275.00,1.1230
6274.00,1.1292
6273.00,1.1349
6272.00,1.1403
6271.00,1.1456
6270.00,1.1510
6269.00,1.1563
6268.00,1.1613
6267.00,1.1659
6266.00,1.1700
6265.00,1.1740
6264.00,1.1777
6263.00,1.1809
6262.00,1.1836
6261.00,1.1859
6260.00,1.1879
6259.00,1.1894
6258.00,1.1903
6257.00,1.1909
6256.00,1.1913
6255.00,1.1912
6254.00,1.1907
6253.00,1.1897
6252.00,1.1884
6251.00,1.1869
6250.00,1.1853
6249.00,1.1832
6248.00,1.1808
6247.00,1.1781
6246.00,1.1752
6245.00,1.1720
6244.00,1.1682
6243.00,1.1640
6242.00,1.1595
6241.00,1.1547
6240.00,1.1496
6239.00,1.1442
6238.00,1.1384
6237.00,1.1323
6236.00,1.1259
6235.00,1.1190
6234.00,1.1118
6233.00,1.1043
6232.00,1.0965
6231.00,1.0883
6230.00,1.0800
6229.00,1.0715
6228.00,1.0626
6227.00,1.0534
6226.00,1.0441
6225.00,1.0347
6224.00,1.0252
6223.00,1.0154
6222.00,1.0054
6221.00,0.9951
6220.00,0.9846
6219.00,0.9738
6218.00,0.9630
6217.00,0.9524
6216.00,0.9418
6215.00,0.9312
6214.00,0.9205
6213.00,0.9100
6212.00,0.8994
6211.00,0.8889
6210.00,0.8785
6209.00,0.8681
6208.00,0.8577
6207.00,0.8474
6206.00,0.8372
6205.00,0.8272
6204.00,0.8175
6203.00,0.8081
6202.00,0.7991
6201.00,0.7905
6200.00,0.7821
6199.00,0.7740
6198.00,0.7663
6197.00,0.7591
6196.00,0.7522
6195.00,0.7457
6194.00,0.7397
6193.00,0.7343
6192.00,0.7294
6191.00,0.7249
6190.00,0.7210
6189.00,0.7179
6188.00,0.7154
6187.00,0.7135
6186.00,0.7122
6185.00,0.7115
6184.00,0.7114
6183.00,0.7118
6182.00,0.7129
6181.00,0.7146
6180.00,0.7171
6179.00,0.7202
6178.00,0.7240
6177.00,0.7285
6176.00,0.7335
6175.00,0.7390
6174.00,0.7450
6173.00,0.7517
6172.00,0.7588
6171.00,0.7662
6170.00,0.7741
6169.00,0.7823
6168.00,0.7909
6167.00,0.7996
6166.00,0.8086
6165.00,0.8178
6164.00,0.8274
6163.00,0.8371
6162.00,0.8471
6161.00,0.8572
6160.00,0.8674
6159.00,0.8777
6158.00,0.8881
6157.00,0.8987
6156.00,0.9095
6155.00,0.9205
6154.00,0.9316
6153.00,0.9427
6152.00,0.9538
6151.00,0.9645
6150.00,0.9751
6149.00,0.9857
6148.00,0.9962
6147.00,1.0066
6146.00,1.0169
6145.00,1.0270
6144.00,1.0370
6143.00,1.0469
6142.00,1.0567
6141.00,1.0663
6140.00,1.0755
6139.00,1.0845
6138.00,1.0932
6137.00,1.1014
6136.00,1.1090
6135.00,1.1163
6134.00,1.1235
6133.00,1.1305
6132.00,1.1374
6131.00,1.1441
6130.00,1.1507
6129.00,1.1569
6128.00,1.1626
6127.00,1.1676
6126.00,1.1723
6125.00,1.1767
6124.00,1.1805
6123.00,1.1839
6122.00,1.1872
6121.00,1.1903
6120.00,1.1932
6119.00,1.1955
6118.00,1.1973
6117.00,1.1989
6116.00,1.2002
6115.00,1.2009
6114.00,1.2012
6113.00,1.2012
6112.00,1.2011
6111.00,1.2007
6110.00,1.1999
6109.00,1.1987
6108.00,1.1971
6107.00,1.1950
6106.00,1.1923
6105.00,1.1891
6104.00,1.1856
6103.00,1.1819
6102.00,1.1782
6101.00,1.1742
6100.00,1.1696
6099.00,1.1645
6098.00,1.1592
6097.00,1.1539
6096.00,1.1484
6095.00,1.1426
6094.00,1.1366
6093.00,1.1302
6092.00,1.1233
6091.00,1.1156
6090.00,1.1072
6089.00,1.0985
6088.00,1.0895
6087.00,1.0803
6086.00,1.0710
6085.00,1.0615
6084.00,1.0517
6083.00,1.0414
6082.00,1.0307
6081.00,1.0199
6080.00,1.0091
6079.00,0.9981
6078.00,0.9870
6077.00,0.9758
6076.00,0.9645
6075.00,0.9531
6074.00,0.9415
6073.00,0.9297
6072.00,0.9179
6071.00,0.9063
6070.00,0.8947
6069.00,0.8832
6068.00,0.8717
6067.00,0.8604
6066.00,0.8493
6065.00,0.8384
6064.00,0.8276
6063.00,0.8170
6062.00,0.8067
6061.00,0.7967
6060.00,0.7871
6059.00,0.7779
6058.00,0.7691
6057.00,0.7608
6056.00,0.7528
6055.00,0.7453
6054.00,0.7383
6053.00,0.7320
6052.00,0.7262
6051.00,0.7211
6050.00,0.7166
6049.00,0.7129
6048.00,0.7098
6047.00,0.7072
6046.00,0.7052
6045.00,0.7039
6044.00,0.7032
6043.00,0.7032
6042.00,0.7040
6041.00,0.7056
6040.00,0.7079
6039.00,0.7109
6038.00,0.7146
6037.00,0.7189
6036.00,0.7238
6035.00,0.7291
6034.00,0.7350
6033.00,0.7415
6032.00,0.7485
6031.00,0.7559
6030.00,0.7638
6029.00,0.7721
6028.00,0.7808
6027.00,0.7899
6026.00,0.7994
6025.00,0.8093
6024.00,0.8193
6023.00,0.8295
6022.00,0.8399
6021.00,0.8504
6020.00,0.8609
6019.00,0.8716
6018.00,0.8824
6017.00,0.8935
6016.00,0.9047
6015.00,0.9159
6014.00,0.9272
6013.00,0.9384
6012.00,0.9495
6011.00,0.9604
6010.00,0.9712
6009.00,0.9818
6008.00,0.9924
6007.00,1.0030
6006.00,1.0135
6005.00,1.0240
6004.00,1.0345
6003.00,1.0447
6002.00,1.0546
6001.00,1.0642
6000.00,1.0734
5999.00,1.0825
5998.00,1.0915
5997.00,1.1001
5996.00,1.1082
5995.00,1.1160
5994.00,1.1235
5993.00,1.1307
5992.00,1.1375
5991.00,1.1437
5990.00,1.1496
5989.00,1.1552
5988.00,1.1603
5987.00,1.1649
5986.00,1.1694
5985.00,1.1738
5984.00,1.1779
5983.00,1.1815
5982.00,1.1846
5981.00,1.1873
5980.00,1.1897
5979.00,1.1918
5978.00,1.1938
5977.00,1.1958
5976.00,1.1976
5975.00,1.1987
5974.00,1.1989
5973.00,1.1986
5972.00,1.1979
5971.00,1.1970
5970.00,1.1957
5969.00,1.1939
5968.00,1.1918
5967.00,1.1896
5966.00,1.1872
5965.00,1.1847
5964.00,1.1817
5963.00,1.1784
5962.00,1.1747
5961.00,1.1708
5960.00,1.1665
5959.00,1.1620
5958.00,1.1573
5957.00,1.1526
5956.00,1.1476
5955.00,1.1421
5954.00,1.1360
5953.00,1.1294
5952.00,1.1222
5951.00,1.1148
5950.00,1.1072
5949.00,1.0994
5948.00,1.0912
5947.00,1.0824
5946.00,1.0732
5945.00,1.0637
5944.00,1.0540
5943.00,1.0440
5942.00,1.0338
5941.00,1.0235
5940.00,1.0129
5939.00,1.0019
5938.00,0.9905
5937.00,0.9789
5936.00,0.9672
5935.00,0.9552
5934.00,0.9431
5933.00,0.9311
5932.00,0.9192
5931.00,0.9073
5930.00,0.8954
5929.00,0.8835
5928.00,0.8717
5927.00,0.8598
5926.00,0.8481
5925.00,0.8365
5924.00,0.8251
5923.00,0.8139
5922.00,0.8030
5921.00,0.7924
5920.00,0.7823
5919.00,0.7725
5918.00,0.7632
5917.00,0.7544
5916.00,0.7460
5915.00,0.7380
5914.00,0.7304
5913.00,0.7234
5912.00,0.7171
5911.00,0.7114
5910.00,0.7064
5909.00,0.7021
5908.00,0.6985
5907.00,0.6954
5906.00,0.6931
5905.00,0.6915
5904.00,0.6908
5903.00,0.6909
5902.00,0.6916
5901.00,0.6930
5900.00,0.6951
5899.00,0.6978
5898.00,0.7012
5897.00,0.7052
5896.00,0.7099
5895.00,0.7153
5894.00,0.7213
5893.00,0.7279
5892.00,0.7351
5891.00,0.7428
5890.00,0.7510
5889.00,0.7597
5888.00,0.7688
5887.00,0.7783
5886.00,0.7881
5885.00,0.7981
5884.00,0.8084
5883.00,0.8188
5882.00,0.8295
5881.00,0.8405
5880.00,0.8517
5879.00,0.8631
5878.00,0.8746
5877.00,0.8860
5876.00,0.8975
5875.00,0.9088
5874.00,0.9201
5873.00,0.9315
5872.00,0.9431
5871.00,0.9547
5870.00,0.9665
5869.00,0.9782
5868.00,0.9896
5867.00,1.0006
5866.00,1.0113
5865.00,1.0218
5864.00,1.0319
5863.00,1.0418
5862.00,1.0515
5861.00,1.0611
5860.00,1.0708
5859.00,1.0804
5858.00,1.0898
5857.00,1.0990
5856.00,1.1076
5855.00,1.1158
5854.00,1.1236
5853.00,1.1311
5852.00,1.1383
5851.00,1.1453
5850.00,1.1522
5849.00,1.1589
5848.00,1.1649
5847.00,1.1703
5846.00,1.1751
5845.00,1.1796
5844.00,1.1838
5843.00,1.1877
5842.00,1.1913
5841.00,1.1949
5840.00,1.1983
5839.00,1.2013
5838.00,1.2038
5837.00,1.2058
5836.00,1.2075
5835.00,1.2089
5834.00,1.2100
5833.00,1.2108
5832.00,1.2113
5831.00,1.2114
5830.00,1.2109
5829.00,1.2098
5828.00,1.2082
5827.00,1.2063
5826.00,1.2043
5825.00,1.2022
5824.00,1.1999
5823.00,1.1971
5822.00,1.1940
5821.00,1.1905
5820.00,1.1866
5819.00,1.1821
5818.00,1.1771
5817.00,1.1718
5816.00,1.1662
5815.00,1.1603
5814.00,1.1540
5813.00,1.1475
5812.00,1.1405
5811.00,1.1333
5810.00,1.1256
5809.00,1.1177
5808.00,1.1094
5807.00,1.1005
5806.00,1.0914
5805.00,1.0820
5804.00,1.0723
5803.00,1.0623
5802.00,1.0520
5801.00,1.0415
5800.00,1.0306
5799.00,1.0194
5798.00,1.0078
5797.00,0.9959
5796.00,0.9839
5795.00,0.9718
5794.00,0.9596
5793.00,0.9474
5792.00,0.9350
5791.00,0.9225
5790.00,0.9101
5789.00,0.8978
5788.00,0.8856
5787.00,0.8734
5786.00,0.8613
5785.00,0.8491
5784.00,0.8370
5783.00,0.8249
5782.00,0.8132
5781.00,0.8018
5780.00,0.7908
5779.00,0.7802
5778.00,0.7700
5777.00,0.7602
5776.00,0.7508
5775.00,0.7418
5774.00,0.7332
5773.00,0.7253
5772.00,0.7181
5771.00,0.7115
5770.00,0.7057
5769.00,0.7006
5768.00,0.6962
5767.00,0.6925
5766.00,0.6895
5765.00,0.6873
5764.00,0.6858
5763.00,0.6850
5762.00,0.6849
5761.00,0.6855
5760.00,0.6870
5759.00,0.6892
5758.00,0.6922
5757.00,0.6961
5756.00,0.7006
5755.00,0.7057
5754.00,0.7113
5753.00,0.7176
5752.00,0.7244
5751.00,0.7318
5750.00,0.7398
5749.00,0.7485
5748.00,0.7575
5747.00,0.7669
5746.00,0.7767
5745.00,0.7868
5744.00,0.7972
5743.00,0.8079
5742.00,0.8190
5741.00,0.8304
5740.00,0.8419
5739.00,0.8536
5738.00,0.8653
5737.00,0.8771
5736.00,0.8891
5735.00,0.9011
5734.00,0.9131
5733.00,0.9252
5732.00,0.9373
5731.00,0.9493
5730.00,0.9613
5729.00,0.9732
5728.00,0.9849
5727.00,0.9964
5726.00,1.0077
5725.00,1.0189
5724.00,1.0301
5723.00,1.0412
5722.00,1.0522
5721.00,1.0631
5720.00,1.0735
5719.00,1.0834
5718.00,1.0929
5717.00,1.1022
5716.00,1.1113
5715.00,1.1200
5714.00,1.1282
5713.00,1.1361
5712.00,1.1436
5711.00,1.1507
5710.00,1.1575
5709.00,1.1642
5708.00,1.1709
5707.00,1.1772
5706.00,1.1829
5705.00,1.1882
5704.00,1.1931
5703.00,1.1976
5702.00,1.2017
5701.00,1.2053
5700.00,1.2085
5699.00,1.2114
5698.00,1.2140
5697.00,1.2162
5696.00,1.2181
5695.00,1.2195
5694.00,1.2206
5693.00,1.2214
5692.00,1.2220
5691.00,1.2223
5690.00,1.2222
5689.00,1.2216
5688.00,1.2204
5687.00,1.2187
5686.00,1.2165
5685.00,1.2141
5684.00,1.2115
5683.00,1.2087
5682.00,1.2056
5681.00,1.2021
5680.00,1.1980
5679.00,1.1934
5678.00,1.1884
5677.00,1.1832
5676.00,1.1778
5675.00,1.1719
5674.00,1.1656
5673.00,1.1589
5672.00,1.1518
5671.00,1.1440
5670.00,1.1359
5669.00,1.1274
5668.00,1.1188
5667.00,1.1097
5666.00,1.1002
5665.00,1.0903
5664.00,1.0802
5663.00,1.0697
5662.00,1.0588
5661.00,1.0476
5660.00,1.0362
5659.00,1.0245
5658.00,1.0126
5657.00,1.0003
5656.00,0.9878
5655.00,0.9752
5654.00,0.9623
5653.00,0.9494
5652.00,0.9363
5651.00,0.9231
5650.00,0.9099
5649.00,0.8967
5648.00,0.8835
5647.00,0.8702
5646.00,0.8571
5645.00,0.8440
5644.00,0.8312
5643.00,0.8185
5642.00,0.8060
5641.00,0.7937
5640.00,0.7818
5639.00,0.7702
5638.00,0.7590
5637.00,0.7483
5636.00,0.7380
5635.00,0.7282
5634.00,0.7190
5633.00,0.7105
5632.00,0.7026
5631.00,0.6954
5630.00,0.6889
5629.00,0.6831
5628.00,0.6779
5627.00,0.6734
5626.00,0.6697
5625.00,0.6668
5624.00,0.6647
5623.00,0.6635
5622.00,0.6631
5621.00,0.6635
5620.00,0.6648
5619.00,0.6670
5618.00,0.6700
5617.00,0.6738
5616.00,0.6784
5615.00,0.6836
5614.00,0.6896
5613.00,0.6961
5612.00,0.7033
5611.00,0.7111
5610.00,0.7196
5609.00,0.7287
5608.00,0.7382
5607.00,0.7483
5606.00,0.7587
5605.00,0.7695
5604.00,0.7806
5603.00,0.7919
5602.00,0.8036
5601.00,0.8156
5600.00,0.8278
5599.00,0.8402
5598.00,0.8527
5597.00,0.8653
5596.00,0.8779
5595.00,0.8906
5594.00,0.9033
5593.00,0.9160
5592.00,0.9286
5591.00,0.9412
5590.00,0.9539
5589.00,0.9665
5588.00,0.9789
5587.00,0.9911
5586.00,1.0033
5585.00,1.0155
5584.00,1.0275
5583.00,1.0394
5582.00,1.0511
5581.00,1.0626
5580.00,1.0736
5579.00,1.0843
5578.00,1.0946
5577.00,1.1047
5576.00,1.1144
5575.00,1.1238
5574.00,1.1328
5573.00,1.1415
5572.00,1.1500
5571.00,1.1583
5570.00,1.1662
5569.00,1.1735
5568.00,1.1802
5567.00,1.1865
5566.00,1.1927
5565.00,1.1987
5564.00,1.2044
5563.00,1.2098
5562.00,1.2149
5561.00,1.2196
5560.00,1.2237
5559.00,1.2273
5558.00,1.2306
5557.00,1.2335
5556.00,1.2358
5555.00,1.2375
5554.00,1.2389
5553.00,1.2400
5552.00,1.2406
5551.00,1.2407
5550.00,1.2404
5549.00,1.2399
5548.00,1.2391
5547.00,1.2382
5546.00,1.2370
5545.00,1.2355
5544.00,1.2333
5543.00,1.2305
5542.00,1.2274
5541.00,1.2240
5540.00,1.2203
5539.00,1.2162
5538.00,1.2116
5537.00,1.2064
5536.00,1.2008
5535.00,1.1949
5534.00,1.1889
5533.00,1.1826
5532.00,1.1759
5531.00,1.1687
5530.00,1.1610
5529.00,1.1527
5528.00,1.1439
5527.00,1.1348
5526.00,1.1256
5525.00,1.1160
5524.00,1.1060
5523.00,1.0953
5522.00,1.0843
5521.00,1.0730
5520.00,1.0614
5519.00,1.0495
5518.00,1.0375
5517.00,1.0252
5516.00,1.0127
5515.00,0.9997
5514.00,0.9865
5513.00,0.9733
5512.00,0.9600
5511.00,0.9466
5510.00,0.9331
5509.00,0.9196
5508.00,0.9060
5507.00,0.8924
5506.00,0.8789
5505.00,0.8654
5504.00,0.8521
5503.00,0.8389
5502.00,0.8260
5501.00,0.8134
5500.00,0.8011
5499.00,0.7891
5498.00,0.7776
5497.00,0.7665
5496.00,0.7559
5495.00,0.7457
5494.00,0.7360
5493.00,0.7270
5492.00,0.7187
5491.00,0.7109
5490.00,0.7038
5489.00,0.6975
5488.00,0.6921
5487.00,0.6874
5486.00,0.6835
5485.00,0.6805
5484.00,0.6782
5483.00,0.6768
5482.00,0.6761
5481.00,0.6763
5480.00,0.6775
5479.00,0.6796
5478.00,0.6826
5477.00,0.6865
5476.00,0.6912
5475.00,0.6967
5474.00,0.7030
5473.00,0.7099
5472.00,0.7173
5471.00,0.7252
5470.00,0.7338
5469.00,0.7430
5468.00,0.7529
5467.00,0.7633
5466.00,0.7741
5465.00,0.7853
5464.00,0.7967
5463.00,0.8084
5462.00,0.8205
5461.00,0.8330
5460.00,0.8458
5459.00,0.8589
5458.00,0.8720
5457.00,0.8852
5456.00,0.8984
5455.00,0.9117
5454.00,0.9251
5453.00,0.9384
5452.00,0.9517
5451.00,0.9647
5450.00,0.9777
5449.00,0.9906
5448.00,1.0035
5447.00,1.0164
5446.00,1.0291
5445.00,1.0418
5444.00,1.0542
5443.00,1.0662
5442.00,1.0779
5441.00,1.0894
5440.00,1.1008
5439.00,1.1119
5438.00,1.1227
5437.00,1.1329
5436.00,1.1428
5435.00,1.1523
5434.00,1.1616
5433.00,1.1704
5432.00,1.1787
5431.00,1.1866
5430.00,1.1940
5429.00,1.2011
5428.00,1.2078
5427.00,1.2142
5426.00,1.2204
5425.00,1.2262
5424.00,1.2318
5423.00,1.2368
5422.00,1.2416
5421.00,1.2464
5420.00,1.2508
5419.00,1.2548
5418.00,1.2580
5417.00,1.2605
5416.00,1.2625
5415.00,1.2640
5414.00,1.2649
5413.00,1.2654
5412.00,1.2657
5411.00,1.2658
5410.00,1.2656
5409.00,1.2652
5408.00,1.2645
5407.00,1.2635
5406.00,1.2621
5405.00,1.2602
5404.00,1.2579
5403.00,1.2553
5402.00,1.2524
5401.00,1.2493
5400.00,1.2456
5399.00,1.2413
5398.00,1.2363
5397.00,1.2308
5396.00,1.2249
5395.00,1.2186
5394.00,1.2122
5393.00,1.2053
5392.00,1.1980
5391.00,1.1902
5390.00,1.1819
5389.00,1.1733
5388.00,1.1643
5387.00,1.1549
5386.00,1.1452
5385.00,1.1353
5384.00,1.1251
5383.00,1.1144
5382.00,1.1035
5381.00,1.0922
5380.00,1.0805
5379.00,1.0683
5378.00,1.0556
5377.00,1.0425
5376.00,1.0291
5375.00,1.0155
5374.00,1.0015
5373.00,0.9875
5372.00,0.9733
5371.00,0.9590
5370.00,0.9445
5369.00,0.9301
5368.00,0.9158
5367.00,0.9016
5366.00,0.8874
5365.00,0.8732
5364.00,0.8591
5363.00,0.8450
5362.00,0.8310
5361.00,0.8175
5360.00,0.8043
5359.00,0.7915
5358.00,0.7792
5357.00,0.7673
5356.00,0.7559
5355.00,0.7449
5354.00,0.7344
5353.00,0.7246
5352.00,0.7155
5351.00,0.7071
5350.00,0.6996
5349.00,0.6929
5348.00,0.6871
5347.00,0.6820
5346.00,0.6777
5345.00,0.6743
5344.00,0.6718
5343.00,0.6701
5342.00,0.6693
5341.00,0.6695
5340.00,0.6706
5339.00,0.6726
5338.00,0.6755
5337.00,0.6794
5336.00,0.6841
5335.00,0.6897
5334.00,0.6960
5333.00,0.7031
5332.00,0.7111
5331.00,0.7199
5330.00,0.7294
5329.00,0.7394
5328.00,0.7501
5327.00,0.7612
5326.00,0.7728
5325.00,0.7847
5324.00,0.7970
5323.00,0.8094
5322.00,0.8222
5321.00,0.8353
5320.00,0.8487
5319.00,0.8623
5318.00,0.8762
5317.00,0.8902
5316.00,0.9044
5315.00,0.9186
5314.00,0.9328
5313.00,0.9469
5312.00,0.9609
5311.00,0.9747
5310.00,0.9884
5309.00,1.0022
5308.00,1.0160
5307.00,1.0298
5306.00,1.0433
5305.00,1.0567
5304.00,1.0697
5303.00,1.0824
5302.00,1.0950
5301.00,1.1074
5300.00,1.1194
5299.00,1.1311
5298.00,1.1423
5297.00,1.1532
5296.00,1.1637
5295.00,1.1740
5294.00,1.1838
5293.00,1.1933
5292.00,1.2023
5291.00,1.2109
5290.00,1.2192
5289.00,1.2271
5288.00,1.2346
5287.00,1.2415
5286.00,1.2479
5285.00,1.2540
5284.00,1.2599
5283.00,1.2656
5282.00,1.2710
5281.00,1.2761
5280.00,1.2807
5279.00,1.2847
5278.00,1.2883
5277.00,1.2914
5276.00,1.2941
5275.00,1.2962
5274.00,1.2978
5273.00,1.2990
5272.00,1.3000
5271.00,1.3007
5270.00,1.3012
5269.00,1.3012
5268.00,1.3007
5267.00,1.2998
5266.00,1.2984
5265.00,1.2967
5264.00,1.2947
5263.00,1.2922
5262.00,1.2889
5261.00,1.2851
5260.00,1.2809
5259.00,1.2767
5258.00,1.2724
5257.00,1.2680
5256.00,1.2634
5255.00,1.2582
5254.00,1.2525
5253.00,1.2462
5252.00,1.2395
5251.00,1.2324
5250.00,1.2249
5249.00,1.2169
5248.00,1.2082
5247.00,1.1989
5246.00,1.1892
5245.00,1.1790
5244.00,1.1687
5243.00,1.1581
5242.00,1.1474
5241.00,1.1364
5240.00,1.1249
5239.00,1.1128
5238.00,1.1002
5237.00,1.0872
5236.00,1.0740
5235.00,1.0606
5234.00,1.0469
5233.00,1.0331
5232.00,1.0190
5231.00,1.0048
5230.00,0.9903
5229.00,0.9757
5228.00,0.9609
5227.00,0.9459
5226.00,0.9307
5225.00,0.9154
5224.00,0.9004
5223.00,0.8855
5222.00,0.8711
5221.00,0.8569
5220.00,0.8430
5219.00,0.8293
5218.00,0.8159
5217.00,0.8029
5216.00,0.7903
5215.00,0.7784
5214.00,0.7670
5213.00,0.7562
5212.00,0.7462
5211.00,0.7369
5210.00,0.7284
5209.00,0.7207
5208.00,0.7138
5207.00,0.7076
5206.00,0.7024
5205.00,0.6982
5204.00,0.6951
5203.00,0.6930
5202.00,0.6921
5201.00,0.6923
5200.00,0.6935
5199.00,0.6959
5198.00,0.6992
5197.00,0.7036
5196.00,0.7086
5195.00,0.7142
5194.00,0.7203
5193.00,0.7268
5192.00,0.7339
5191.00,0.7414
5190.00,0.7496
5189.00,0.7584
5188.00,0.7680
5187.00,0.7781
5186.00,0.7890
5185.00,0.8005
5184.00,0.8125
5183.00,0.8248
5182.00,0.8376
5181.00,0.8506
5180.00,0.8640
5179.00,0.8778
5178.00,0.8920
5177.00,0.9064
5176.00,0.9210
5175.00,0.9356
5174.00,0.9501
5173.00,0.9647
5172.00,0.9793
5171.00,0.9939
5170.00,1.0085
5169.00,1.0230
5168.00,1.0373
5167.00,1.0514
5166.00,1.0651
5165.00,1.0787
5164.00,1.0921
5163.00,1.1052
5162.00,1.1181
5161.00,1.1308
5160.00,1.1432
5159.00,1.1552
5158.00,1.1669
5157.00,1.1782
5156.00,1.1890
5155.00,1.1994
5154.00,1.2093
5153.00,1.2189
5152.00,1.2281
5151.00,1.2370
5150.00,1.2454
5149.00,1.2535
5148.00,1.2612
5147.00,1.2685
5146.00,1.2755
5145.00,1.2821
5144.00,1.2882
5143.00,1.2939
5142.00,1.2991
5141.00,1.3039
5140.00,1.3083
5139.00,1.3122
5138.00,1.3156
5137.00,1.3187
5136.00,1.3215
5135.00,1.3240
5134.00,1.3262
5133.00,1.3277
5132.00,1.3286
5131.00,1.3290
5130.00,1.3290
5129.00,1.3287
5128.00,1.3282
5127.00,1.3273
5126.00,1.3259
5125.00,1.3239
5124.00,1.3214
5123.00,1.3186
5122.00,1.3156
5121.00,1.3124
5120.00,1.3089
5119.00,1.3048
5118.00,1.3001
5117.00,1.2949
5116.00,1.2895
5115.00,1.2837
5114.00,1.2777
5113.00,1.2713
5112.00,1.2645
5111.00,1.2571
5110.00,1.2491
5109.00,1.2406
5108.00,1.2315
5107.00,1.2218
5106.00,1.2116
5105.00,1.2010
5104.00,1.1902
5103.00,1.1792
5102.00,1.1680
5101.00,1.1565
5100.00,1.1444
5099.00,1.1317
5098.00,1.1186
5097.00,1.1049
5096.00,1.0909
5095.00,1.0765
5094.00,1.0620
5093.00,1.0472
5092.00,1.0322
5091.00,1.0170
5090.00,1.0015
5089.00,0.9859
5088.00,0.9700
5087.00,0.9540
5086.00,0.9380
5085.00,0.9221
5084.00,0.9064
5083.00,0.8908
5082.00,0.8753
5081.00,0.8601
5080.00,0.8451
5079.00,0.8304
5078.00,0.8162
5077.00,0.8026
5076.00,0.7895
5075.00,0.7770
5074.00,0.7651
5073.00,0.7539
5072.00,0.7433
5071.00,0.7335
5070.00,0.7244
5069.00,0.7161
5068.00,0.7087
5067.00,0.7021
5066.00,0.6964
5065.00,0.6916
5064.00,0.6879
5063.00,0.6852
5062.00,0.6836
5061.00,0.6831
5060.00,0.6837
5059.00,0.6852
5058.00,0.6878
5057.00,0.6913
5056.00,0.6958
5055.00,0.7013
5054.00,0.7076
5053.00,0.7150
5052.00,0.7232
5051.00,0.7322
5050.00,0.7420
5049.00,0.7525
5048.00,0.7636
5047.00,0.7752
5046.00,0.7875
5045.00,0.8004
5044.00,0.8138
5043.00,0.8276
5042.00,0.8418
5041.00,0.8563
5040.00,0.8711
5039.00,0.8860
5038.00,0.9011
5037.00,0.9163
5036.00,0.9318
5035.00,0.9473
5034.00,0.9629
5033.00,0.9785
5032.00,0.9939
5031.00,1.0092
5030.00,1.0244
5029.00,1.0396
5028.00,1.0547
5027.00,1.0697
5026.00,1.0846
5025.00,1.0992
5024.00,1.1134
5023.00,1.1272
5022.00,1.1408
5021.00,1.1541
5020.00,1.1670
5019.00,1.1796
5018.00,1.1917
5017.00,1.2035
5016.00,1.2148
5015.00,1.2257
5014.00,1.2363
5013.00,1.2466
5012.00,1.2566
5011.00,1.2663
5010.00,1.2755
5009.00,1.2843
5008.00,1.2926
5007.00,1.3003
5006.00,1.3075
5005.00,1.3143
5004.00,1.3207
5003.00,1.3266
5002.00,1.3321
5001.00,1.3372
5000.00,1.3418
4999.00,1.3459
4998.00,1.3495
4997.00,1.3528
4996.00,1.3556
4995.00,1.3582
4994.00,1.3604
4993.00,1.3622
4992.00,1.3635
4991.00,1.3644
4990.00,1.3649
4989.00,1.3650
4988.00,1.3650
4987.00,1.3647
4986.00,1.3641
4985.00,1.3630
4984.00,1.3614
4983.00,1.3590
4982.00,1.3560
4981.00,1.3524
4980.00,1.3486
4979.00,1.3444
4978.00,1.3401
4977.00,1.3354
4976.00,1.3303
4975.00,1.3250
4974.00,1.3193
4973.00,1.3131
4972.00,1.3062
4971.00,1.2986
4970.00,1.2904
4969.00,1.2817
4968.00,1.2728
4967.00,1.2636
4966.00,1.2542
4965.00,1.2444
4964.00,1.2341
4963.00,1.2232
4962.00,1.2118
4961.00,1.2000
4960.00,1.1878
4959.00,1.1750
4958.00,1.1618
4957.00,1.1483
4956.00,1.1344
4955.00,1.1201
4954.00,1.1055
4953.00,1.0906
4952.00,1.0752
4951.00,1.0596
4950.00,1.0436
4949.00,1.0274
4948.00,1.0111
4947.00,0.9946
4946.00,0.9780
4945.00,0.9613
4944.00,0.9447
4943.00,0.9280
4942.00,0.9114
4941.00,0.8951
4940.00,0.8790
4939.00,0.8632
4938.00,0.8478
4937.00,0.8328
4936.00,0.8182
4935.00,0.8041
4934.00,0.7904
4933.00,0.7775
4932.00,0.7653
4931.00,0.7539
4930.00,0.7433
4929.00,0.7337
4928.00,0.7250
4927.00,0.7172
4926.00,0.7104
4925.00,0.7047
4924.00,0.7000
4923.00,0.6964
4922.00,0.6940
4921.00,0.6928
4920.00,0.6929
4919.00,0.6941
4918.00,0.6965
4917.00,0.6999
4916.00,0.7044
4915.00,0.7099
4914.00,0.7165
4913.00,0.7241
4912.00,0.7326
4911.00,0.7420
4910.00,0.7523
4909.00,0.7633
4908.00,0.7750
4907.00,0.7874
4906.00,0.8004
4905.00,0.8141
4904.00,0.8282
4903.00,0.8427
4902.00,0.8577
4901.00,0.8730
4900.00,0.8886
4899.00,0.9044
4898.00,0.9205
4897.00,0.9366
4896.00,0.9528
4895.00,0.9691
4894.00,0.9853
4893.00,1.0016
4892.00,1.0179
4891.00,1.0341
4890.00,1.0502
4889.00,1.0662
4888.00,1.0820
4887.00,1.0976
4886.00,1.1129
4885.00,1.1279
4884.00,1.1425
4883.00,1.1569
4882.00,1.1710
4881.00,1.1847
4880.00,1.1981
4879.00,1.2110
4878.00,1.2234
4877.00,1.2354
4876.00,1.2470
4875.00,1.2583
4874.00,1.2692
4873.00,1.2797
4872.00,1.2897
4871.00,1.2990
4870.00,1.3080
4869.00,1.3166
4868.00,1.3252
4867.00,1.3334
4866.00,1.3412
4865.00,1.3484
4864.00,1.3549
4863.00,1.3608
4862.00,1.3662
4861.00,1.3712
4860.00,1.3758
4859.00,1.3801
4858.00,1.3840
4857.00,1.3875
4856.00,1.3906
4855.00,1.3934
4854.00,1.3957
4853.00,1.3974
4852.00,1.3986
4851.00,1.3992
4850.00,1.3993
4849.00,1.3990
4848.00,1.3984
4847.00,1.3977
4846.00,1.3967
4845.00,1.3953
4844.00,1.3934
4843.00,1.3910
4842.00,1.3882
4841.00,1.3850
4840.00,1.3815
4839.00,1.3776
4838.00,1.3733
4837.00,1.3686
4836.00,1.3632
4835.00,1.3573
4834.00,1.3509
4833.00,1.3440
4832.00,1.3368
4831.00,1.3291
4830.00,1.3211
4829.00,1.3127
4828.00,1.3038
4827.00,1.2945
4826.00,1.2847
4825.00,1.2745
4824.00,1.2638
4823.00,1.2526
4822.00,1.2409
4821.00,1.2287
4820.00,1.2161
4819.00,1.2031
4818.00,1.1895
4817.00,1.1754
4816.00,1.1608
4815.00,1.1456
4814.00,1.1301
4813.00,1.1144
4812.00,1.0984
4811.00,1.0821
4810.00,1.0655
4809.00,1.0484
4808.00,1.0311
4807.00,1.0136
4806.00,0.9959
4805.00,0.9783
4804.00,0.9607
4803.00,0.9432
4802.00,0.9258
4801.00,0.9086
4800.00,0.8915
4799.00,0.8748
4798.00,0.8584
4797.00,0.8426
4796.00,0.8272
4795.00,0.8123
4794.00,0.7980
4793.00,0.7843
4792.00,0.7714
4791.00,0.7593
4790.00,0.7481
4789.00,0.7379
4788.00,0.7287
4787.00,0.7204
4786.00,0.7132
4785.00,0.7071
4784.00,0.7022
4783.00,0.6985
4782.00,0.6960
4781.00,0.6948
4780.00,0.6948
4779.00,0.6961
4778.00,0.6986
4777.00,0.7022
4776.00,0.7070
4775.00,0.7129
4774.00,0.7200
4773.00,0.7282
4772.00,0.7374
4771.00,0.7476
4770.00,0.7587
4769.00,0.7707
4768.00,0.7834
4767.00,0.7968
4766.00,0.8109
4765.00,0.8255
4764.00,0.8406
4763.00,0.8561
4762.00,0.8719
4761.00,0.8881
4760.00,0.9045
4759.00,0.9212
4758.00,0.9380
4757.00,0.9551
4756.00,0.9723
4755.00,0.9895
4754.00,1.0067
4753.00,1.0240
4752.00,1.0411
4751.00,1.0583
4750.00,1.0753
4749.00,1.0922
4748.00,1.1088
4747.00,1.1251
4746.00,1.1412
4745.00,1.1570
4744.00,1.1724
4743.00,1.1873
4742.00,1.2019
4741.00,1.2161
4740.00,1.2299
4739.00,1.2435
4738.00,1.2567
4737.00,1.2694
4736.00,1.2817
4735.00,1.2935
4734.00,1.3050
4733.00,1.3160
4732.00,1.3266
4731.00,1.3368
4730.00,1.3464
4729.00,1.3554
4728.00,1.3639
4727.00,1.3720
4726.00,1.3798
4725.00,1.3873
4724.00,1.3942
4723.00,1.4005
4722.00,1.4062
4721.00,1.4112
4720.00,1.4159
4719.00,1.4204
4718.00,1.4247
4717.00,1.4287
4716.00,1.4322
4715.00,1.4352
4714.00,1.4376
4713.00,1.4395
4712.00,1.4410
4711.00,1.4421
4710.00,1.4426
4709.00,1.4425
4708.00,1.4420
4707.00,1.4411
4706.00,1.4401
4705.00,1.4389
4704.00,1.4374
4703.00,1.4354
4702.00,1.4329
4701.00,1.4299
4700.00,1.4264
4699.00,1.4224
4698.00,1.4182
4697.00,1.4135
4696.00,1.4085
4695.00,1.4029
4694.00,1.3966
4693.00,1.3897
4692.00,1.3823
4691.00,1.3747
4690.00,1.3671
4689.00,1.3592
4688.00,1.3509
4687.00,1.3419
4686.00,1.3322
4685.00,1.3217
4684.00,1.3106
4683.00,1.2990
4682.00,1.2869
4681.00,1.2744
4680.00,1.2615
4679.00,1.2482
4678.00,1.2343
4677.00,1.2200
4676.00,1.2052
4675.00,1.1899
4674.00,1.1743
4673.00,1.1582
4672.00,1.1416
4671.00,1.1246
4670.00,1.1073
4669.00,1.0896
4668.00,1.0717
4667.00,1.0536
4666.00,1.0351
4665.00,1.0165
4664.00,0.9978
4663.00,0.9791
4662.00,0.9606
4661.00,0.9423
4660.00,0.9242
4659.00,0.9063
4658.00,0.8886
4657.00,0.8713
4656.00,0.8545
4655.00,0.8381
4654.00,0.8224
4653.00,0.8074
4652.00,0.7932
4651.00,0.7799
4650.00,0.7675
4649.00,0.7562
4648.00,0.7458
4647.00,0.7364
4646.00,0.7282
4645.00,0.7213
4644.00,0.7157
4643.00,0.7114
4642.00,0.7085
4641.00,0.7069
4640.00,0.7066
4639.00,0.7078
4638.00,0.7104
4637.00,0.7143
4636.00,0.7195
4635.00,0.7260
4634.00,0.7336
4633.00,0.7424
4632.00,0.7523
4631.00,0.7633
4630.00,0.7753
4629.00,0.7881
4628.00,0.8017
4627.00,0.8159
4626.00,0.8309
4625.00,0.8465
4624.00,0.8626
4623.00,0.8792
4622.00,0.8961
4621.00,0.9134
4620.00,0.9309
4619.00,0.9487
4618.00,0.9666
4617.00,0.9847
4616.00,1.0028
4615.00,1.0210
4614.00,1.0391
4613.00,1.0572
4612.00,1.0751
4611.00,1.0929
4610.00,1.1106
4609.00,1.1281
4608.00,1.1454
4607.00,1.1624
4606.00,1.1791
4605.00,1.1954
4604.00,1.2114
4603.00,1.2271
4602.00,1.2424
4601.00,1.2572
4600.00,1.2715
4599.00,1.2853
4598.00,1.2987
4597.00,1.3116
4596.00,1.3241
4595.00,1.3361
4594.00,1.3476
4593.00,1.3588
4592.00,1.3696
4591.00,1.3799
4590.00,1.3897
4589.00,1.3989
4588.00,1.4075
4587.00,1.4158
4586.00,1.4235
4585.00,1.4306
4584.00,1.4372
4583.00,1.4435
4582.00,1.4496
4581.00,1.4553
4580.00,1.4605
4579.00,1.4651
4578.00,1.4689
4577.00,1.4723
4576.00,1.4752
4575.00,1.4778
4574.00,1.4798
4573.00,1.4814
4572.00,1.4824
4571.00,1.4832
4570.00,1.4838
4569.00,1.4841
4568.00,1.4842
4567.00,1.4838
4566.00,1.4828
4565.00,1.4814
4564.00,1.4793
4563.00,1.4768
4562.00,1.4736
4561.00,1.4701
4560.00,1.4662
4559.00,1.4619
4558.00,1.4572
4557.00,1.4518
4556.00,1.4458
4555.00,1.4393
4554.00,1.4324
4553.00,1.4252
4552.00,1.4176
4551.00,1.4096
4550.00,1.4012
4549.00,1.3923
4548.00,1.3830
4547.00,1.3732
4546.00,1.3628
4545.00,1.3517
4544.00,1.3401
4543.00,1.3280
4542.00,1.3156
4541.00,1.3030
4540.00,1.2902
4539.00,1.2771
4538.00,1.2636
4537.00,1.2496
4536.00,1.2349
4535.00,1.2195
4534.00,1.2036
4533.00,1.1872
4532.00,1.1703
4531.00,1.1530
4530.00,1.1353
4529.00,1.1174
4528.00,1.0992
4527.00,1.0806
4526.00,1.0618
4525.00,1.0426
4524.00,1.0233
4523.00,1.0038
4522.00,0.9844
4521.00,0.9650
4520.00,0.9459
4519.00,0.9271
4518.00,0.9087
4517.00,0.8909
4516.00,0.8735
4515.00,0.8567
4514.00,0.8406
4513.00,0.8253
4512.00,0.8108
4511.00,0.7974
4510.00,0.7850
4509.00,0.7737
4508.00,0.7635
4507.00,0.7545
4506.00,0.7469
4505.00,0.7406
4504.00,0.7358
4503.00,0.7325
4502.00,0.7307
4501.00,0.7304
4500.00,0.7315
4499.00,0.7341
4498.00,0.7382
4497.00,0.7437
4496.00,0.7506
4495.00,0.7589
4494.00,0.7684
4493.00,0.7791
4492.00,0.7909
4491.00,0.8037
4490.00,0.8175
4489.00,0.8322
4488.00,0.8475
4487.00,0.8634
4486.00,0.8799
4485.00,0.8968
4484.00,0.9142
4483.00,0.9320
4482.00,0.9502
4481.00,0.9686
4480.00,0.9872
4479.00,1.0058
4478.00,1.0245
4477.00,1.0431
4476.00,1.0618
4475.00,1.0803
4474.00,1.0986
4473.00,1.1167
4472.00,1.1346
4471.00,1.1523
4470.00,1.1700
4469.00,1.1877
4468.00,1.2052
4467.00,1.2224
4466.00,1.2393
4465.00,1.2559
4464.00,1.2722
4463.00,1.2881
4462.00,1.3037
4461.00,1.3187
4460.00,1.3332
4459.00,1.3472
4458.00,1.3607
4457.00,1.3738
4456.00,1.3867
4455.00,1.3992
4454.00,1.4114
4453.00,1.4229
4452.00,1.4338
4451.00,1.4441
4450.00,1.4540
4449.00,1.4634
4448.00,1.4724
4447.00,1.4810
4446.00,1.4891
4445.00,1.4966
4444.00,1.5034
4443.00,1.5095
4442.00,1.5150
4441.00,1.5201
4440.00,1.5250
4439.00,1.5295
4438.00,1.5336
4437.00,1.5369
4436.00,1.5396
4435.00,1.5418
4434.00,1.5436
4433.00,1.5451
4432.00,1.5463
4431.00,1.5470
4430.00,1.5473
4429.00,1.5471
4428.00,1.5465
4427.00,1.5454
4426.00,1.5441
4425.00,1.5425
4424.00,1.5404
4423.00,1.5380
4422.00,1.5353
4421.00,1.5322
4420.00,1.5287
4419.00,1.5247
4418.00,1.5203
4417.00,1.5156
4416.00,1.5104
4415.00,1.5049
4414.00,1.4990
4413.00,1.4924
4412.00,1.4854
4411.00,1.4779
4410.00,1.4701
4409.00,1.4618
4408.00,1.4532
4407.00,1.4443
4406.00,1.4352
4405.00,1.4258
4404.00,1.4160
4403.00,1.4057
4402.00,1.3949
4401.00,1.3838
4400.00,1.3725
4399.00,1.3609
4398.00,1.3489
4397.00,1.3366
4396.00,1.3237
4395.00,1.3102
4394.00,1.2961
4393.00,1.2814
4392.00,1.2660
4391.00,1.2500
4390.00,1.2335
4389.00,1.2166
4388.00,1.1994
4387.00,1.1817
4386.00,1.1639
4385.00,1.1459
4384.00,1.1280
4383.00,1.1101
4382.00,1.0925
4381.00,1.0751
4380.00,1.0582
4379.00,1.0417
4378.00,1.0258
4377.00,1.0106
4376.00,0.9961
4375.00,0.9823
4374.00,0.9693
4373.00,0.9572
4372.00,0.9459
4371.00,0.9355
4370.00,0.9260
4369.00,0.9171
4368.00,0.9089
4367.00,0.9012
4366.00,0.8938
4365.00,0.8866
4364.00,0.8797
4363.00,0.8731
4362.00,0.8667
4361.00,0.8608
4360.00,0.8552
4359.00,0.8502
4358.00,0.8460
4357.00,0.8426
4356.00,0.8404
4355.00,0.8393
4354.00,0.8396
4353.00,0.8413
4352.00,0.8445
4351.00,0.8491
4350.00,0.8552
4349.00,0.8627
4348.00,0.8715
4347.00,0.8816
4346.00,0.8929
4345.00,0.9055
4344.00,0.9191
4343.00,0.9336
4342.00,0.9489
4341.00,0.9648
4340.00,0.9813
4339.00,0.9986
4338.00,1.0164
4337.00,1.0346
4336.00,1.0532
4335.00,1.0719
4334.00,1.0910
4333.00,1.1102
4332.00,1.1294
4331.00,1.1486
4330.00,1.1677
4329.00,1.1866
4328.00,1.2053
4327.00,1.2240
4326.00,1.2426
4325.00,1.2610
4324.00,1.2789
4323.00,1.2961
4322.00,1.3127
4321.00,1.3285
4320.00,1.3438
4319.00,1.3585
4318.00,1.3727
4317.00,1.3864
4316.00,1.3996
4315.00,1.4122
4314.00,1.4242
4313.00,1.4359
4312.00,1.4472
4311.00,1.4581
4310.00,1.4686
4309.00,1.4786
4308.00,1.4881
4307.00,1.4971
4306.00,1.5057
4305.00,1.5140
4304.00,1.5220
4303.00,1.5295
4302.00,1.5365
4301.00,1.5428
4300.00,1.5486
4299.00,1.5540
4298.00,1.5590
4297.00,1.5638
4296.00,1.5681
4295.00,1.5720
4294.00,1.5752
4293.00,1.5777
4292.00,1.5798
4291.00,1.5817
4290.00,1.5833
4289.00,1.5845
4288.00,1.5852
4287.00,1.5852
4286.00,1.5847
4285.00,1.5840
4284.00,1.5829
4283.00,1.5815
4282.00,1.5796
4281.00,1.5771
4280.00,1.5741
4279.00,1.5705
4278.00,1.5665
4277.00,1.5622
4276.00,1.5575
4275.00,1.5524
4274.00,1.5470
4273.00,1.5411
4272.00,1.5348
4271.00,1.5279
4270.00,1.5203
4269.00,1.5119
4268.00,1.5028
4267.00,1.4933
4266.00,1.4836
4265.00,1.4736
4264.00,1.4632
4263.00,1.4523
4262.00,1.4406
4261.00,1.4281
4260.00,1.4149
4259.00,1.4012
4258.00,1.3872
4257.00,1.3729
4256.00,1.3579
4255.00,1.3422
4254.00,1.3257
4253.00,1.3086
4252.00,1.2909
4251.00,1.2726
4250.00,1.2538
4249.00,1.2344
4248.00,1.2144
4247.00,1.1939
4246.00,1.1730
4245.00,1.1516
4244.00,1.1299
4243.00,1.1079
4242.00,1.0857
4241.00,1.0635
4240.00,1.0413
4239.00,1.0191
4238.00,0.9971
4237.00,0.9753
4236.00,0.9539
4235.00,0.9330
4234.00,0.9126
4233.00,0.8929
4232.00,0.8739
4231.00,0.8558
4230.00,0.8388
4229.00,0.8228
4228.00,0.8081
4227.00,0.7947
4226.00,0.7826
4225.00,0.7719
4224.00,0.7627
4223.00,0.7551
4222.00,0.7492
4221.00,0.7451
4220.00,0.7428
4219.00,0.7421
4218.00,0.7432
4217.00,0.7460
4216.00,0.7506
4215.00,0.7569
4214.00,0.7648
4213.00,0.7743
4212.00,0.7854
4211.00,0.7978
4210.00,0.8115
4209.00,0.8263
4208.00,0.8421
4207.00,0.8588
4206.00,0.8764
4205.00,0.8947
4204.00,0.9137
4203.00,0.9333
4202.00,0.9535
4201.00,0.9740
4200.00,0.9948
4199.00,1.0159
4198.00,1.0372
4197.00,1.0588
4196.00,1.0804
4195.00,1.1021
4194.00,1.1236
4193.00,1.1450
4192.00,1.1660
4191.00,1.1869
4190.00,1.2076
4189.00,1.2280
4188.00,1.2482
4187.00,1.2680
4186.00,1.2873
4185.00,1.3062
4184.00,1.3247
4183.00,1.3427
4182.00,1.3603
4181.00,1.3774
4180.00,1.3938
4179.00,1.4097
4178.00,1.4249
4177.00,1.4396
4176.00,1.4536
4175.00,1.4669
4174.00,1.4796
4173.00,1.4917
4172.00,1.5034
4171.00,1.5149
4170.00,1.5260
4169.00,1.5366
4168.00,1.5464
4167.00,1.5554
4166.00,1.5636
4165.00,1.5714
4164.00,1.5789
4163.00,1.5861
4162.00,1.5930
4161.00,1.5995
4160.00,1.6055
4159.00,1.6110
4158.00,1.6159
4157.00,1.6202
4156.00,1.6239
4155.00,1.6270
4154.00,1.6296
4153.00,1.6320
4152.00,1.6344
4151.00,1.6365
4150.00,1.6380
4149.00,1.6390
4148.00,1.6393
4147.00,1.6393
4146.00,1.6390
4145.00,1.6382
4144.00,1.6369
4143.00,1.6351
4142.00,1.6330
4141.00,1.6305
4140.00,1.6274
4139.00,1.6237
4138.00,1.6194
4137.00,1.6146
4136.00,1.6094
4135.00,1.6039
4134.00,1.5979
4133.00,1.5914
4132.00,1.5847
4131.00,1.5779
4130.00,1.5707
4129.00,1.5628
4128.00,1.5541
4127.00,1.5446
4126.00,1.5345
4125.00,1.5240
4124.00,1.5131
4123.00,1.5018
4122.00,1.4898
4121.00,1.4773
4120.00,1.4642
4119.00,1.4503
4118.00,1.4358
4117.00,1.4205
4116.00,1.4046
4115.00,1.3882
4114.00,1.3712
4113.00,1.3538
4112.00,1.3356
4111.00,1.3168
4110.00,1.2971
4109.00,1.2768
4108.00,1.2560
4107.00,1.2348
4106.00,1.2132
4105.00,1.1912
4104.00,1.1688
4103.00,1.1460
4102.00,1.1229
4101.00,1.0997
4100.00,1.0764
4099.00,1.0532
4098.00,1.0301
4097.00,1.0073
4096.00,0.9849
4095.00,0.9630
4094.00,0.9417
4093.00,0.9211
4092.00,0.9013
4091.00,0.8825
4090.00,0.8648
4089.00,0.8485
4088.00,0.8336
4087.00,0.8201
4086.00,0.8082
4085.00,0.7980
4084.00,0.7895
4083.00,0.7828
4082.00,0.7779
4081.00,0.7750
4080.00,0.7739
4079.00,0.7747
4078.00,0.7775
4077.00,0.7820
4076.00,0.7884
4075.00,0.7965
4074.00,0.8062
4073.00,0.8175
4072.00,0.8303
4071.00,0.8443
4070.00,0.8596
4069.00,0.8761
4068.00,0.8935
4067.00,0.9119
4066.00,0.9311
4065.00,0.9509
4064.00,0.9713
4063.00,0.9922
4062.00,1.0135
4061.00,1.0350
4060.00,1.0569
4059.00,1.0790
4058.00,1.1013
4057.00,1.1237
4056.00,1.1463
4055.00,1.1689
4054.00,1.1914
4053.00,1.2137
4052.00,1.2358
4051.00,1.2576
4050.00,1.2791
4049.00,1.3002
4048.00,1.3209
4047.00,1.3411
4046.00,1.3608
4045.00,1.3801
4044.00,1.3988
4043.00,1.4170
4042.00,1.4348
4041.00,1.4520
4040.00,1.4687
4039.00,1.4847
4038.00,1.5001
4037.00,1.5149
4036.00,1.5290
4035.00,1.5423
4034.00,1.5549
4033.00,1.5669
4032.00,1.5783
4031.00,1.5891
4030.00,1.5991
4029.00,1.6084
4028.00,1.6169
4027.00,1.6247
4026.00,1.6321
4025.00,1.6391
4024.00,1.6459
4023.00,1.6523
4022.00,1.6584
4021.00,1.6639
4020.00,1.6691
4019.00,1.6738
4018.00,1.6782
4017.00,1.6823
4016.00,1.6863
4015.00,1.6898
4014.00,1.6927
4013.00,1.6949
4012.00,1.6965
4011.00,1.6980
4010.00,1.6993
4009.00,1.7004
4008.00,1.7010
4007.00,1.7008
4006.00,1.7000
4005.00,1.6987
4004.00,1.6971
4003.00,1.6952
4002.00,1.6929
4001.00,1.6901
4000.00,1.6867
3999.00,1.6826
3998.00,1.6783
3997.00,1.6738
3996.00,1.6691
3995.00,1.6640
3994.00,1.6582
3993.00,1.6518
3992.00,1.6447
3991.00,1.6370
3990.00,1.6289
3989.00,1.6204
3988.00,1.6117
3987.00,1.6025
3986.00,1.5926
3985.00,1.5820
3984.00,1.5710
3983.00,1.5596
3982.00,1.5479
3981.00,1.5358
3980.00,1.5234
3979.00,1.5106
3978.00,1.4972
3977.00,1.4832
3976.00,1.4685
3975.00,1.4532
3974.00,1.4371
3973.00,1.4204
3972.00,1.4030
3971.00,1.3846
3970.00,1.3654
3969.00,1.3454
3968.00,1.3246
3967.00,1.3032
3966.00,1.2813
3965.00,1.2587
3964.00,1.2354
3963.00,1.2114
3962.00,1.1868
3961.00,1.1618
3960.00,1.1367
3959.00,1.1116
3958.00,1.0866
3957.00,1.0618
3956.00,1.0371
3955.00,1.0129
3954.00,0.9893
3953.00,0.9665
3952.00,0.9446
3951.00,0.9235
3950.00,0.9033
3949.00,0.8841
3948.00,0.8660
3947.00,0.8494
3946.00,0.8345
3945.00,0.8213
3944.00,0.8101
3943.00,0.8007
3942.00,0.7933
3941.00,0.7878
3940.00,0.7846
3939.00,0.7835
3938.00,0.7847
3937.00,0.7880
3936.00,0.7936
3935.00,0.8012
3934.00,0.8108
3933.00,0.8222
3932.00,0.8353
3931.00,0.8498
3930.00,0.8657
3929.00,0.8828
3928.00,0.9012
3927.00,0.9207
3926.00,0.9413
3925.00,0.9629
3924.00,0.9852
3923.00,1.0079
3922.00,1.0309
3921.00,1.0541
3920.00,1.0775
3919.00,1.1012
3918.00,1.1253
3917.00,1.1497
3916.00,1.1743
3915.00,1.1988
3914.00,1.2229
3913.00,1.2467
3912.00,1.2700
3911.00,1.2931
3910.00,1.3158
3909.00,1.3378
3908.00,1.3590
3907.00,1.3793
3906.00,1.3992
3905.00,1.4188
3904.00,1.4383
3903.00,1.4575
3902.00,1.4760
3901.00,1.4938
3900.00,1.5111
3899.00,1.5278
3898.00,1.5441
3897.00,1.5597
3896.00,1.5745
3895.00,1.5883
3894.00,1.6011
3893.00,1.6133
3892.00,1.6253
3891.00,1.6373
3890.00,1.6488
3889.00,1.6593
3888.00,1.6687
3887.00,1.6772
3886.00,1.6854
3885.00,1.6937
3884.00,1.7020
3883.00,1.7097
3882.00,1.7167
3881.00,1.7229
3880.00,1.7285
3879.00,1.7336
3878.00,1.7382
3877.00,1.7422
3876.00,1.7457
3875.00,1.7490
3874.00,1.7522
3873.00,1.7550
3872.00,1.7573
3871.00,1.7591
3870.00,1.7605
3869.00,1.7614
3868.00,1.7620
3867.00,1.7619
3866.00,1.7610
3865.00,1.7591
3864.00,1.7568
3863.00,1.7547
3862.00,1.7529
3861.00,1.7510
3860.00,1.7485
3859.00,1.7452
3858.00,1.7413
3857.00,1.7374
3856.00,1.7332
3855.00,1.7284
3854.00,1.7219
3853.00,1.7138
3852.00,1.7049
3851.00,1.6964
3850.00,1.6882
3849.00,1.6798
3848.00,1.6708
3847.00,1.6615
3846.00,1.6517
3845.00,1.6414
3844.00,1.6302
3843.00,1.6180
3842.00,1.6051
3841.00,1.5915
3840.00,1.5772
3839.00,1.5618
3838.00,1.5454
3837.00,1.5286
3836.00,1.5118
3835.00,1.4949
3834.00,1.4770
3833.00,1.4572
3832.00,1.4359
3831.00,1.4137
3830.00,1.3914
3829.00,1.3690
3828.00,1.3463
3827.00,1.3226
3826.00,1.2983
3825.00,1.2741
3824.00,1.2501
3823.00,1.2251
3822.00,1.1977
3821.00,1.1679
3820.00,1.1377
3819.00,1.1094
3818.00,1.0829
3817.00,1.0563
3816.00,1.0286
3815.00,1.0011
3814.00,0.9757
3813.00,0.9526
3812.00,0.9306
3811.00,0.9093
3810.00,0.8893
3809.00,0.8708
3808.00,0.8537
3807.00,0.8373
3806.00,0.8223
3805.00,0.8098
3804.00,0.8006
3803.00,0.7941
3802.00,0.7896
3801.00,0.7872
3800.00,0.7873
3799.00,0.7901
3798.00,0.7955
3797.00,0.8029
3796.00,0.8122
3795.00,0.8235
3794.00,0.8369
3793.00,0.8522
3792.00,0.8694
3791.00,0.8885
3790.00,0.9092
3789.00,0.9311
3788.00,0.9539
3787.00,0.9775
3786.00,1.0018
3785.00,1.0269
3784.00,1.0529
3783.00,1.0790
3782.00,1.1051
3781.00,1.1310
3780.00,1.1573
3779.00,1.1842
3778.00,1.2117
3777.00,1.2391
3776.00,1.2659
3775.00,1.2918
3774.00,1.3169
3773.00,1.3412
3772.00,1.3649
3771.00,1.3883
3770.00,1.4116
3769.00,1.4350
3768.00,1.4580
3767.00,1.4800
3766.00,1.5010
3765.00,1.5212
3764.00,1.5408
3763.00,1.5595
3762.00,1.5772
3761.00,1.5940
3760.00,1.6103
3759.00,1.6260
3758.00,1.6413
3757.00,1.6560
3756.00,1.6700
3755.00,1.6829
3754.00,1.6946
3753.00,1.7054
3752.00,1.7160
3751.00,1.7272
3750.00,1.7390
3749.00,1.7508
3748.00,1.7613
3747.00,1.7695
3746.00,1.7754
3745.00,1.7805
3744.00,1.7858
3743.00,1.7913
3742.00,1.7966
3741.00,1.8010
3740.00,1.8045
3739.00,1.8075
3738.00,1.8098
3737.00,1.8115
3736.00,1.8126
3735.00,1.8130
3734.00,1.8130
3733.00,1.8125
3732.00,1.8118
3731.00,1.8105
3730.00,1.8088
3729.00,1.8073
3728.00,1.8063
3727.00,1.8055
3726.00,1.8046
3725.00,1.8034
3724.00,1.8014
3723.00,1.7986
3722.00,1.7953
3721.00,1.7922
3720.00,1.7895
3719.00,1.7870
3718.00,1.7843
3717.00,1.7806
3716.00,1.7752
3715.00,1.7681
3714.00,1.7601
3713.00,1.7516
3712.00,1.7426
3711.00,1.7327
3710.00,1.7214
3709.00,1.7090
3708.00,1.6957
3707.00,1.6818
3706.00,1.6678
3705.00,1.6540
3704.00,1.6401
3703.00,1.6254
3702.00,1.6097
3701.00,1.5929
3700.00,1.5754
3699.00,1.5577
3698.00,1.5399
3697.00,1.5218
3696.00,1.5032
3695.00,1.4842
3694.00,1.4649
3693.00,1.4450
3692.00,1.4244
3691.00,1.4028
3690.00,1.3799
3689.00,1.3553
3688.00,1.3299
3687.00,1.3051
3686.00,1.2821
3685.00,1.2603
3684.00,1.2389
3683.00,1.2178
3682.00,1.1973
3681.00,1.1777
3680.00,1.1593
3679.00,1.1423
3678.00,1.1267
3677.00,1.1119
3676.00,1.0973
3675.00,1.0830
3674.00,1.0705
3673.00,1.0609
3672.00,1.0539
3671.00,1.0486
3670.00,1.0451
3669.00,1.0436
3668.00,1.0441
3667.00,1.0459
3666.00,1.0488
3665.00,1.0531
3664.00,1.0595
3663.00,1.0681
3662.00,1.0784
3661.00,1.0898
3660.00,1.1018
3659.00,1.1145
3658.00,1.1280
3657.00,1.1426
3656.00,1.1581
3655.00,1.1740
3654.00,1.1896
3653.00,1.2049
3652.00,1.2202
3651.00,1.2363
3650.00,1.2536
3649.00,1.2721
3648.00,1.2916
3647.00,1.3117
3646.00,1.3315
3645.00,1.3502
3644.00,1.3678
3643.00,1.3853
3642.00,1.4035
3641.00,1.4225
3640.00,1.4416
3639.00,1.4605
3638.00,1.4787
3637.00,1.4962
3636.00,1.5132
3635.00,1.5300
3634.00,1.5465
3633.00,1.5624
3632.00,1.5775
3631.00,1.5919
3630.00,1.6065
3629.00,1.6219
3628.00,1.6382
3627.00,1.6543
3626.00,1.6693
3625.00,1.6834
3624.00,1.6971
3623.00,1.7107
3622.00,1.7241
3621.00,1.7371
3620.00,1.7498
3619.00,1.7623
3618.00,1.7744
3617.00,1.7861
3616.00,1.7976
3615.00,1.8087
3614.00,1.8189
3613.00,1.8283
3612.00,1.8371
3611.00,1.8456
3610.00,1.8538
3609.00,1.8616
3608.00,1.8686
3607.00,1.8748
3606.00,1.8804
3605.00,1.8856
3604.00,1.8907
3603.00,1.8960
3602.00,1.9012
3601.00,1.9060
3600.00,1.9103
3599.00,1.9141
3598.00,1.9175
3597.00,1.9207
3596.00,1.9236
3595.00,1.9263
3594.00,1.9289
3593.00,1.9315
3592.00,1.9339
3591.00,1.9360
3590.00,1.9373
3589.00,1.9377
3588.00,1.9375
3587.00,1.9370
3586.00,1.9363
3585.00,1.9353
3584.00,1.9342
3583.00,1.9327
3582.00,1.9312
3581.00,1.9298
3580.00,1.9288
3579.00,1.9273
3578.00,1.9246
3577.00,1.9204
3576.00,1.9153
3575.00,1.9099
3574.00,1.9044
3573.00,1.8986
3572.00,1.8924
3571.00,1.8855
3570.00,1.8780
3569.00,1.8700
3568.00,1.8616
3567.00,1.8527
3566.00,1.8434
3565.00,1.8337
3564.00,1.8239
3563.00,1.8139
3562.00,1.8035
3561.00,1.7929
3560.00,1.7821
3559.00,1.7709
3558.00,1.7592
3557.00,1.7471
3556.00,1.7344
3555.00,1.7213
3554.00,1.7075
3553.00,1.6931
3552.00,1.6780
3551.00,1.6628
3550.00,1.6477
3549.00,1.6326
3548.00,1.6174
3547.00,1.6015
3546.00,1.5847
3545.00,1.5672
3544.00,1.5492
3543.00,1.5313
3542.00,1.5137
3541.00,1.4963
3540.00,1.4788
3539.00,1.4611
3538.00,1.4430
3537.00,1.4243
3536.00,1.4052
3535.00,1.3861
3534.00,1.3673
3533.00,1.3487
3532.00,1.3305
3531.00,1.3125
3530.00,1.2948
3529.00,1.2775
3528.00,1.2605
3527.00,1.2441
3526.00,1.2285
3525.00,1.2137
3524.00,1.1999
3523.00,1.1871
3522.00,1.1757
3521.00,1.1659
3520.00,1.1576
3519.00,1.1509
3518.00,1.1459
3517.00,1.1427
3516.00,1.1412
3515.00,1.1415
3514.00,1.1436
3513.00,1.1475
3512.00,1.1533
3511.00,1.1609
3510.00,1.1703
3509.00,1.1812
3508.00,1.1935
3507.00,1.2070
3506.00,1.2218
3505.00,1.2377
3504.00,1.2549
3503.00,1.2733
3502.00,1.2926
3501.00,1.3127
3500.00,1.3333
3499.00,1.3542
3498.00,1.3754
3497.00,1.3969
3496.00,1.4186
3495.00,1.4406
3494.00,1.4627
3493.00,1.4849
3492.00,1.5070
3491.00,1.5287
3490.00,1.5501
3489.00,1.5712
3488.00,1.5921
3487.00,1.6128
3486.00,1.6329
3485.00,1.6523
3484.00,1.6712
3483.00,1.6896
3482.00,1.7076
3481.00,1.7251
3480.00,1.7421
3479.00,1.7586
3478.00,1.7745
3477.00,1.7897
3476.00,1.8043
3475.00,1.8183
3474.00,1.8317
3473.00,1.8444
3472.00,1.8564
3471.00,1.8678
3470.00,1.8787
3469.00,1.8891
3468.00,1.8989
3467.00,1.9082
3466.00,1.9169
3465.00,1.9253
3464.00,1.9335
3463.00,1.9411
3462.00,1.9479
3461.00,1.9539
3460.00,1.9595
3459.00,1.9651
3458.00,1.9705
3457.00,1.9756
3456.00,1.9803
3455.00,1.9846
3454.00,1.9884
3453.00,1.9916
3452.00,1.9942
3451.00,1.9963
3450.00,1.9982
3449.00,1.9996
3448.00,2.0006
3447.00,2.0009
3446.00,2.0006
3445.00,1.9999
3444.00,1.9991
3443.00,1.9982
3442.00,1.9968
3441.00,1.9947
3440.00,1.9921
3439.00,1.9890
3438.00,1.9856
3437.00,1.9816
3436.00,1.9769
3435.00,1.9716
3434.00,1.9658
3433.00,1.9597
3432.00,1.9535
3431.00,1.9472
3430.00,1.9406
3429.00,1.9336
3428.00,1.9259
3427.00,1.9173
3426.00,1.9079
3425.00,1.8975
3424.00,1.8866
3423.00,1.8753
3422.00,1.8638
3421.00,1.8519
3420.00,1.8394
3419.00,1.8261
3418.00,1.8119
3417.00,1.7971
3416.00,1.7819
3415.00,1.7662
3414.00,1.7500
3413.00,1.7329
3412.00,1.7152
3411.00,1.6967
3410.00,1.6777
3409.00,1.6581
3408.00,1.6379
3407.00,1.6170
3406.00,1.5956
3405.00,1.5735
3404.00,1.5508
3403.00,1.5275
3402.00,1.5035
3401.00,1.4791
3400.00,1.4543
3399.00,1.4291
3398.00,1.4036
3397.00,1.3777
3396.00,1.3516
3395.00,1.3256
3394.00,1.2998
3393.00,1.2743
3392.00,1.2494
3391.00,1.2253
3390.00,1.2022
3389.00,1.1802
3388.00,1.1595
3387.00,1.1403
3386.00,1.1225
3385.00,1.1065
3384.00,1.0923
3383.00,1.0801
3382.00,1.0700
3381.00,1.0621
3380.00,1.0565
3379.00,1.0534
3378.00,1.0528
3377.00,1.0547
3376.00,1.0591
3375.00,1.0658
3374.00,1.0749
3373.00,1.0862
3372.00,1.0996
3371.00,1.1149
3370.00,1.1319
3369.00,1.1505
3368.00,1.1705
3367.00,1.1917
3366.00,1.2140
3365.00,1.2372
3364.00,1.2614
3363.00,1.2864
3362.00,1.3119
3361.00,1.3378
3360.00,1.3638
3359.00,1.3899
3358.00,1.4161
3357.00,1.4423
3356.00,1.4686
3355.00,1.4947
3354.00,1.5204
3353.00,1.5458
3352.00,1.5706
3351.00,1.5948
3350.00,1.6182
3349.00,1.6410
3348.00,1.6632
3347.00,1.6850
3346.00,1.7062
3345.00,1.7267
3344.00,1.7463
3343.00,1.7653
3342.00,1.7836
3341.00,1.8011
3340.00,1.8179
3339.00,1.8340
3338.00,1.8495
3337.00,1.8646
3336.00,1.8790
3335.00,1.8927
3334.00,1.9056
3333.00,1.9180
3332.00,1.9296
3331.00,1.9405
3330.00,1.9505
3329.00,1.9599
3328.00,1.9692
3327.00,1.9784
3326.00,1.9875
3325.00,1.9961
3324.00,2.0044
3323.00,2.0120
3322.00,2.0190
3321.00,2.0250
3320.00,2.0301
3319.00,2.0343
3318.00,2.0379
3317.00,2.0412
3316.00,2.0447
3315.00,2.0483
3314.00,2.0514
3313.00,2.0539
3312.00,2.0559
3311.00,2.0575
3310.00,2.0588
3309.00,2.0598
3308.00,2.0604
3307.00,2.0607
3306.00,2.0603
3305.00,2.0593
3304.00,2.0577
3303.00,2.0555
3302.00,2.0533
3301.00,2.0510
3300.00,2.0487
3299.00,2.0459
3298.00,2.0425
3297.00,2.0381
3296.00,2.0328
3295.00,2.0268
3294.00,2.0205
3293.00,2.0143
3292.00,2.0078
3291.00,2.0007
3290.00,1.9929
3289.00,1.9842
3288.00,1.9751
3287.00,1.9658
3286.00,1.9565
3285.00,1.9469
3284.00,1.9365
3283.00,1.9249
3282.00,1.9122
3281.00,1.8990
3280.00,1.8853
3279.00,1.8714
3278.00,1.8570
3277.00,1.8421
3276.00,1.8263
3275.00,1.8096
3274.00,1.7919
3273.00,1.7736
3272.00,1.7549
3271.00,1.7354
3270.00,1.7149
3269.00,1.6934
3268.00,1.6714
3267.00,1.6488
3266.00,1.6257
3265.00,1.6018
3264.00,1.5772
3263.00,1.5517
3262.00,1.5256
3261.00,1.4991
3260.00,1.4723
3259.00,1.4454
3258.00,1.4185
3257.00,1.3916
3256.00,1.3648
3255.00,1.3383
3254.00,1.3122
3253.00,1.2868
3252.00,1.2625
3251.00,1.2393
3250.00,1.2173
3249.00,1.1966
3248.00,1.1776
3247.00,1.1604
3246.00,1.1452
3245.00,1.1322
3244.00,1.1216
3243.00,1.1135
3242.00,1.1080
3241.00,1.1051
3240.00,1.1047
3239.00,1.1069
3238.00,1.1116
3237.00,1.1190
3236.00,1.1289
3235.00,1.1411
3234.00,1.1555
3233.00,1.1718
3232.00,1.1900
3231.00,1.2099
3230.00,1.2314
3229.00,1.2542
3228.00,1.2780
3227.00,1.3029
3226.00,1.3288
3225.00,1.3554
3224.00,1.3826
3223.00,1.4101
3222.00,1.4378
3221.00,1.4657
3220.00,1.4935
3219.00,1.5213
3218.00,1.5486
3217.00,1.5758
3216.00,1.6027
3215.00,1.6293
3214.00,1.6555
3213.00,1.6810
3212.00,1.7058
3211.00,1.7300
3210.00,1.7537
3209.00,1.7768
3208.00,1.7990
3207.00,1.8200
3206.00,1.8397
3205.00,1.8581
3204.00,1.8753
3203.00,1.8913
3202.00,1.9061
3201.00,1.9198
3200.00,1.9327
3199.00,1.9451
3198.00,1.9570
3197.00,1.9684
3196.00,1.9796
3195.00,1.9906
3194.00,2.0014
3193.00,2.0121
3192.00,2.0225
3191.00,2.0325
3190.00,2.0420
3189.00,2.0511
3188.00,2.0602
3187.00,2.0692
3186.00,2.0779
3185.00,2.0863
3184.00,2.0941
3183.00,2.1014
3182.00,2.1079
3181.00,2.1136
3180.00,2.1182
3179.00,2.1220
3178.00,2.1254
3177.00,2.1287
3176.00,2.1322
3175.00,2.1358
3174.00,2.1390
3173.00,2.1420
3172.00,2.1449
3171.00,2.1480
3170.00,2.1518
3169.00,2.1565
3168.00,2.1616
3167.00,2.1663
3166.00,2.1704
3165.00,2.1736
3164.00,2.1755
3163.00,2.1756
3162.00,2.1732
3161.00,2.1686
3160.00,2.1622
3159.00,2.1546
3158.00,2.1464
3157.00,2.1382
3156.00,2.1303
3155.00,2.1228
3154.00,2.1155
3153.00,2.1081
3152.00,2.1004
3151.00,2.0921
3150.00,2.0831
3149.00,2.0736
3148.00,2.0640
3147.00,2.0542
3146.00,2.0441
3145.00,2.0336
3144.00,2.0225
3143.00,2.0107
3142.00,1.9982
3141.00,1.9849
3140.00,1.9709
3139.00,1.9561
3138.00,1.9406
3137.00,1.9246
3136.00,1.9081
3135.00,1.8910
3134.00,1.8733
3133.00,1.8552
3132.00,1.8367
3131.00,1.8176
3130.00,1.7976
3129.00,1.7765
3128.00,1.7545
3127.00,1.7318
3126.00,1.7086
3125.00,1.6849
3124.00,1.6606
3123.00,1.6360
3122.00,1.6110
3121.00,1.5857
3120.00,1.5602
3119.00,1.5346
3118.00,1.5093
3117.00,1.4842
3116.00,1.4597
3115.00,1.4357
3114.00,1.4124
3113.00,1.3899
3112.00,1.3684
3111.00,1.3481
3110.00,1.3291
3109.00,1.3116
3108.00,1.2958
3107.00,1.2819
3106.00,1.2701
3105.00,1.2606
3104.00,1.2534
3103.00,1.2486
3102.00,1.2463
3101.00,1.2465
3100.00,1.2492
3099.00,1.2544
3098.00,1.2621
3097.00,1.2720
3096.00,1.2842
3095.00,1.2983
3094.00,1.3144
3093.00,1.3322
3092.00,1.3515
3091.00,1.3720
3090.00,1.3936
3089.00,1.4162
3088.00,1.4396
3087.00,1.4637
3086.00,1.4884
3085.00,1.5136
3084.00,1.5393
3083.00,1.5650
3082.00,1.5907
3081.00,1.6164
3080.00,1.6420
3079.00,1.6676
3078.00,1.6928
3077.00,1.7177
3076.00,1.7422
3075.00,1.7661
3074.00,1.7895
3073.00,1.8124
3072.00,1.8347
3071.00,1.8564
3070.00,1.8774
3069.00,1.8979
3068.00,1.9180
3067.00,1.9375
3066.00,1.9561
3065.00,1.9737
3064.00,1.9901
3063.00,2.0056
3062.00,2.0205
3061.00,2.0353
3060.00,2.0500
3059.00,2.0647
3058.00,2.0787
3057.00,2.0918
3056.00,2.1041
3055.00,2.1156
3054.00,2.1264
3053.00,2.1365
3052.00,2.1462
3051.00,2.1557
3050.00,2.1646
3049.00,2.1729
3048.00,2.1805
3047.00,2.1877
3046.00,2.1945
3045.00,2.2008
3044.00,2.2066
3043.00,2.2119
3042.00,2.2171
3041.00,2.2224
3040.00,2.2278
3039.00,2.2327
3038.00,2.2370
3037.00,2.2403
3036.00,2.2427
3035.00,2.2444
3034.00,2.2455
3033.00,2.2466
3032.00,2.2479
3031.00,2.2491
3030.00,2.2495
3029.00,2.2490
3028.00,2.2476
3027.00,2.2457
3026.00,2.2433
3025.00,2.2407
3024.00,2.2384
3023.00,2.2363
3022.00,2.2342
3021.00,2.2316
3020.00,2.2282
3019.00,2.2243
3018.00,2.2203
3017.00,2.2165
3016.00,2.2133
3015.00,2.2105
3014.00,2.2077
3013.00,2.2046
3012.00,2.2013
3011.00,2.1979
3010.00,2.1949
3009.00,2.1924
3008.00,2.1903
3007.00,2.1886
3006.00,2.1876
3005.00,2.1871
3004.00,2.1866
3003.00,2.1849
3002.00,2.1815
3001.00,2.1763
3000.00,2.1696
2999.00,2.1615
2998.00,2.1519
2997.00,2.1409
2996.00,2.1286
2995.00,2.1147
2994.00,2.0993
2993.00,2.0823
2992.00,2.0639
2991.00,2.0441
2990.00,2.0232
2989.00,2.0018
2988.00,1.9803
2987.00,1.9587
2986.00,1.9370
2985.00,1.9151
2984.00,1.8932
2983.00,1.8720
2982.00,1.8520
2981.00,1.8336
2980.00,1.8173
2979.00,1.8033
2978.00,1.7917
2977.00,1.7830
2976.00,1.7777
2975.00,1.7760
2974.00,1.7778
2973.00,1.7829
2972.00,1.7911
2971.00,1.8023
2970.00,1.8160
2969.00,1.8316
2968.00,1.8486
2967.00,1.8666
2966.00,1.8851
2965.00,1.9037
2964.00,1.9223
2963.00,1.9406
2962.00,1.9588
2961.00,1.9772
2960.00,1.9963
2959.00,2.0163
2958.00,2.0374
2957.00,2.0595
2956.00,2.0829
2955.00,2.1076
2954.00,2.1332
2953.00,2.1595
2952.00,2.1857
2951.00,2.2117
2950.00,2.2376
2949.00,2.2634
2948.00,2.2893
2947.00,2.3144
2946.00,2.3368
2945.00,2.3539
2944.00,2.3624
2943.00,2.3601
2942.00,2.3461
2941.00,2.3225
2940.00,2.2932
2939.00,2.2618
2938.00,2.2307
2937.00,2.2004
2936.00,2.1713
2935.00,2.1430
2934.00,2.1159
2933.00,2.0900
2932.00,2.0658
2931.00,2.0437
2930.00,2.0242
2929.00,2.0075
2928.00,1.9933
2927.00,1.9815
2926.00,1.9717
2925.00,1.9638
2924.00,1.9581
2923.00,1.9546
2922.00,1.9536
2921.00,1.9553
2920.00,1.9595
2919.00,1.9659
2918.00,1.9740
2917.00,1.9833
2916.00,1.9940
2915.00,2.0062
2914.00,2.0200
2913.00,2.0347
2912.00,2.0498
2911.00,2.0648
2910.00,2.0794
2909.00,2.0936
2908.00,2.1078
2907.00,2.1220
2906.00,2.1358
2905.00,2.1491
2904.00,2.1619
2903.00,2.1741
2902.00,2.1860
2901.00,2.1979
2900.00,2.2097
2899.00,2.2210
2898.00,2.2317
2897.00,2.2420
2896.00,2.2522
2895.00,2.2623
2894.00,2.2719
2893.00,2.2804
2892.00,2.2881
2891.00,2.2955
2890.00,2.3030
2889.00,2.3101
2888.00,2.3164
2887.00,2.3218
2886.00,2.3266
2885.00,2.3312
2884.00,2.3360
2883.00,2.3413
2882.00,2.3465
2881.00,2.3514
2880.00,2.3554
2879.00,2.3587
2878.00,2.3612
2877.00,2.3637
2876.00,2.3669
2875.00,2.3708
2874.00,2.3748
2873.00,2.3779
2872.00,2.3801
2871.00,2.3823
2870.00,2.3848
2869.00,2.3867
2868.00,2.3868
2867.00,2.3855
2866.00,2.3832
2865.00,2.3802
2864.00,2.3760
2863.00,2.3705
2862.00,2.3643
2861.00,2.3579
2860.00,2.3510
2859.00,2.3434
2858.00,2.3354
2857.00,2.3274
2856.00,2.3193
2855.00,2.3104
2854.00,2.2999
2853.00,2.2879
2852.00,2.2750
2851.00,2.2622
2850.00,2.2499
2849.00,2.2377
2848.00,2.2252
2847.00,2.2121
2846.00,2.1980
2845.00,2.1827
2844.00,2.1661
2843.00,2.1487
2842.00,2.1309
2841.00,2.1128
2840.00,2.0938
2839.00,2.0738
2838.00,2.0530
2837.00,2.0313
2836.00,2.0087
2835.00,1.9853
2834.00,1.9612
2833.00,1.9365
2832.00,1.9107
2831.00,1.8835
2830.00,1.8546
2829.00,1.8243
2828.00,1.7928
2827.00,1.7602
2826.00,1.7264
2825.00,1.6914
2824.00,1.6553
2823.00,1.6183
2822.00,1.5808
2821.00,1.5429
2820.00,1.5048
2819.00,1.4668
2818.00,1.4293
2817.00,1.3929
2816.00,1.3581
2815.00,1.3252
2814.00,1.2945
2813.00,1.2665
2812.00,1.2416
2811.00,1.2201
2810.00,1.2024
2809.00,1.1888
2808.00,1.1796
2807.00,1.1751
2806.00,1.1753
2805.00,1.1803
2804.00,1.1898
2803.00,1.2035
2802.00,1.2208
2801.00,1.2413
2800.00,1.2647
2799.00,1.2905
2798.00,1.3183
2797.00,1.3480
2796.00,1.3793
2795.00,1.4120
2794.00,1.4458
2793.00,1.4806
2792.00,1.5160
2791.00,1.5519
2790.00,1.5881
2789.00,1.6244
2788.00,1.6605
2787.00,1.6960
2786.00,1.7306
2785.00,1.7644
2784.00,1.7974
2783.00,1.8296
2782.00,1.8609
2781.00,1.8911
2780.00,1.9201
2779.00,1.9477
2778.00,1.9744
2777.00,2.0000
2776.00,2.0244
2775.00,2.0475
2774.00,2.0694
2773.00,2.0904
2772.00,2.1107
2771.00,2.1300
2770.00,2.1483
2769.00,2.1656
2768.00,2.1820
2767.00,2.1976
2766.00,2.2128
2765.00,2.2280
2764.00,2.2427
2763.00,2.2563
2762.00,2.2686
2761.00,2.2799
2760.00,2.2910
2759.00,2.3017
2758.00,2.3114
2757.00,2.3201
2756.00,2.3286
2755.00,2.3371
2754.00,2.3455
2753.00,2.3532
2752.00,2.3602
2751.00,2.3666
2750.00,2.3723
2749.00,2.3773
2748.00,2.3817
2747.00,2.3859
2746.00,2.3904
2745.00,2.3950
2744.00,2.3988
2743.00,2.4008
2742.00,2.4009
2741.00,2.4002
2740.00,2.4000
2739.00,2.4010
2738.00,2.4025
2737.00,2.4036
2736.00,2.4035
2735.00,2.4021
2734.00,2.3999
2733.00,2.3976
2732.00,2.3951
2731.00,2.3921
2730.00,2.3878
2729.00,2.3821
2728.00,2.3752
2727.00,2.3682
2726.00,2.3618
2725.00,2.3565
2724.00,2.3519
2723.00,2.3471
2722.00,2.3411
2721.00,2.3342
2720.00,2.3266
2719.00,2.3183
2718.00,2.3090
2717.00,2.2982
2716.00,2.2859
2715.00,2.2726
2714.00,2.2589
2713.00,2.2452
2712.00,2.2313
2711.00,2.2172
2710.00,2.2024
2709.00,2.1865
2708.00,2.1694
2707.00,2.1512
2706.00,2.1323
2705.00,2.1126
2704.00,2.0920
2703.00,2.0700
2702.00,2.0468
2701.00,2.0224
2700.00,1.9969
2699.00,1.9703
2698.00,1.9427
2697.00,1.9138
2696.00,1.8834
2695.00,1.8513
2694.00,1.8172
2693.00,1.7814
2692.00,1.7441
2691.00,1.7054
2690.00,1.6653
2689.00,1.6240
2688.00,1.5819
2687.00,1.5394
2686.00,1.4970
2685.00,1.4555
2684.00,1.4152
2683.00,1.3765
2682.00,1.3397
2681.00,1.3052
2680.00,1.2732
2679.00,1.2441
2678.00,1.2181
2677.00,1.1953
2676.00,1.1762
2675.00,1.1610
2674.00,1.1499
2673.00,1.1430
2672.00,1.1405
2671.00,1.1422
2670.00,1.1483
2669.00,1.1588
2668.00,1.1736
2667.00,1.1928
2666.00,1.2161
2665.00,1.2431
2664.00,1.2735
2663.00,1.3066
2662.00,1.3422
2661.00,1.3797
2660.00,1.4187
2659.00,1.4588
2658.00,1.4996
2657.00,1.5406
2656.00,1.5817
2655.00,1.6226
2654.00,1.6633
2653.00,1.7037
2652.00,1.7435
2651.00,1.7822
2650.00,1.8195
2649.00,1.8554
2648.00,1.8901
2647.00,1.9238
2646.00,1.9564
2645.00,1.9881
2644.00,2.0187
2643.00,2.0479
2642.00,2.0755
2641.00,2.1014
2640.00,2.1259
2639.00,2.1490
2638.00,2.1711
2637.00,2.1926
2636.00,2.2139
2635.00,2.2350
2634.00,2.2555
2633.00,2.2749
2632.00,2.2931
2631.00,2.3097
2630.00,2.3245
2629.00,2.3376
2628.00,2.3491
2627.00,2.3591
2626.00,2.3676
2625.00,2.3752
2624.00,2.3825
2623.00,2.3898
2622.00,2.3974
2621.00,2.4053
2620.00,2.4135
2619.00,2.4219
2618.00,2.4303
2617.00,2.4386
2616.00,2.4466
2615.00,2.4539
2614.00,2.4602
2613.00,2.4656
2612.00,2.4707
2611.00,2.4759
2610.00,2.4809
2609.00,2.4852
2608.00,2.4886
2607.00,2.4912
2606.00,2.4934
2605.00,2.4959
2604.00,2.4985
2603.00,2.5006
2602.00,2.5011
2601.00,2.4999
2600.00,2.4978
2599.00,2.4954
2598.00,2.4929
2597.00,2.4906
2596.00,2.4888
2595.00,2.4875
2594.00,2.4862
2593.00,2.4840
2592.00,2.4806
2591.00,2.4764
2590.00,2.4715
2589.00,2.4659
2588.00,2.4598
2587.00,2.4539
2586.00,2.4486
2585.00,2.4433
2584.00,2.4368
2583.00,2.4286
2582.00,2.4190
2581.00,2.4089
2580.00,2.3985
2579.00,2.3876
2578.00,2.3765
2577.00,2.3653
2576.00,2.3537
2575.00,2.3409
2574.00,2.3265
2573.00,2.3107
2572.00,2.2942
2571.00,2.2776
2570.00,2.2608
2569.00,2.2436
2568.00,2.2253
2567.00,2.2060
2566.00,2.1858
2565.00,2.1648
2564.00,2.1425
2563.00,2.1183
2562.00,2.0923
2561.00,2.0649
2560.00,2.0365
2559.00,2.0069
2558.00,1.9758
2557.00,1.9431
2556.00,1.9090
2555.00,1.8732
2554.00,1.8355
2553.00,1.7957
2552.00,1.7541
2551.00,1.7109
2550.00,1.6663
2549.00,1.6208
2548.00,1.5748
2547.00,1.5286
2546.00,1.4828
2545.00,1.4379
2544.00,1.3945
2543.00,1.3531
2542.00,1.3142
2541.00,1.2785
2540.00,1.2464
2539.00,1.2184
2538.00,1.1951
2537.00,1.1768
2536.00,1.1640
2535.00,1.1570
2534.00,1.1559
2533.00,1.1609
2532.00,1.1718
2531.00,1.1883
2530.00,1.2099
2529.00,1.2362
2528.00,1.2665
2527.00,1.3002
2526.00,1.3366
2525.00,1.3753
2524.00,1.4157
2523.00,1.4575
2522.00,1.5001
2521.00,1.5435
2520.00,1.5874
2519.00,1.6317
2518.00,1.6758
2517.00,1.7193
2516.00,1.7618
2515.00,1.8034
2514.00,1.8440
2513.00,1.8835
2512.00,1.9217
2511.00,1.9586
2510.00,1.9940
2509.00,2.0280
2508.00,2.0603
2507.00,2.0908
2506.00,2.1195
2505.00,2.1465
2504.00,2.1723
2503.00,2.1970
2502.00,2.2208
2501.00,2.2439
2500.00,2.2664
2499.00,2.2881
2498.00,2.3087
2497.00,2.3279
2496.00,2.3455
2495.00,2.3616
2494.00,2.3765
2493.00,2.3909
2492.00,2.4052
2491.00,2.4196
2490.00,2.4337
2489.00,2.4472
2488.00,2.4601
2487.00,2.4724
2486.00,2.4838
2485.00,2.4945
2484.00,2.5047
2483.00,2.5149
2482.00,2.5247
2481.00,2.5332
2480.00,2.5400
2479.00,2.5460
2478.00,2.5525
2477.00,2.5599
2476.00,2.5675
2475.00,2.5741
2474.00,2.5795
2473.00,2.5842
2472.00,2.5882
2471.00,2.5909
2470.00,2.5920
2469.00,2.5929
2468.00,2.5953
2467.00,2.5993
2466.00,2.6028
2465.00,2.6034
2464.00,2.6010
2463.00,2.5978
2462.00,2.5954
2461.00,2.5943
2460.00,2.5938
2459.00,2.5935
2458.00,2.5931
2457.00,2.5922
2456.00,2.5902
2455.00,2.5872
2454.00,2.5830
2453.00,2.5775
2452.00,2.5712
2451.00,2.5645
2450.00,2.5582
2449.00,2.5522
2448.00,2.5461
2447.00,2.5396
2446.00,2.5324
2445.00,2.5245
2444.00,2.5159
2443.00,2.5065
2442.00,2.4963
2441.00,2.4849
2440.00,2.4727
2439.00,2.4598
2438.00,2.4468
2437.00,2.4334
2436.00,2.4191
2435.00,2.4035
2434.00,2.3870
2433.00,2.3704
2432.00,2.3542
2431.00,2.3379
2430.00,2.3205
2429.00,2.3016
2428.00,2.2811
2427.00,2.2596
2426.00,2.2372
2425.00,2.2139
2424.00,2.1896
2423.00,2.1641
2422.00,2.1375
2421.00,2.1100
2420.00,2.0816
2419.00,2.0525
2418.00,2.0227
2417.00,1.9923
2416.00,1.9615
2415.00,1.9301
2414.00,1.8980
2413.00,1.8652
2412.00,1.8318
2411.00,1.7979
2410.00,1.7635
2409.00,1.7286
2408.00,1.6929
2407.00,1.6565
2406.00,1.6194
2405.00,1.5819
2404.00,1.5445
2403.00,1.5075
2402.00,1.4719
2401.00,1.4383
2400.00,1.4075
2399.00,1.3801
2398.00,1.3568
2397.00,1.3384
2396.00,1.3254
2395.00,1.3185
2394.00,1.3178
2393.00,1.3234
2392.00,1.3351
2391.00,1.3526
2390.00,1.3754
2389.00,1.4026
2388.00,1.4333
2387.00,1.4666
2386.00,1.5016
2385.00,1.5373
2384.00,1.5728
2383.00,1.6068
2382.00,1.6385
2381.00,1.6669
2380.00,1.6919
2379.00,1.7137
2378.00,1.7326
2377.00,1.7496
2376.00,1.7651
2375.00,1.7797
2374.00,1.7941
2373.00,1.8094
2372.00,1.8272
2371.00,1.8474
2370.00,1.8691
2369.00,1.8909
2368.00,1.9127
2367.00,1.9336
2366.00,1.9525
2365.00,1.9722
2364.00,1.9897
2363.00,2.0121
2362.00,2.0190
2361.00,2.0466
2360.00,2.0221
2359.00,2.3415
2358.00,2.5183
2357.00,2.4639
2356.00,2.5180
2355.00,2.5149
2354.00,2.5444
2353.00,2.5535
2352.00,2.5688
2351.00,2.5792
2350.00,2.5897
2349.00,2.5999
2348.00,2.6094
2347.00,2.6187
2346.00,2.6287
2345.00,2.6395
2344.00,2.6494
2343.00,2.6569
2342.00,2.6624
2341.00,2.6676
2340.00,2.6736
2339.00,2.6803
2338.00,2.6870
2337.00,2.6933
2336.00,2.6990
2335.00,2.7041
2334.00,2.7094
2333.00,2.7124
2332.00,2.7188
2331.00,2.7152
2330.00,2.7262
2329.00,2.7064
2328.00,2.7482
2327.00,2.4939
2326.00,2.4497
2325.00,2.4655
2324.00,2.4565
2323.00,2.4586
2322.00,2.4550
2321.00,2.4573
2320.00,2.4605
2319.00,2.4648
2318.00,2.4675
2317.00,2.4704
2316.00,2.4728
2315.00,2.4758
2314.00,2.4768
2313.00,2.4776
2312.00,2.4763
2311.00,2.4749
2310.00,2.4710
2309.00,2.4664
2308.00,2.4598
2307.00,2.4526
2306.00,2.4443
2305.00,2.4361
2304.00,2.4270
2303.00,2.4177
2302.00,2.4084
2301.00,2.4016
2300.00,2.3985
2299.00,2.4021
2298.00,2.4132
2297.00,2.4345
2296.00,2.4648
2295.00,2.5019
2294.00,2.5393
2293.00,2.5704
2292.00,2.5900
2291.00,2.5956
2290.00,2.5874
2289.00,2.5673
2288.00,2.5381
2287.00,2.5018
2286.00,2.4613
2285.00,2.4189
2284.00,2.3764
2283.00,2.3330
2282.00,2.2865
2281.00,2.2353
2280.00,2.1796
2279.00,2.1204
2278.00,2.0593
2277.00,1.9977
2276.00,1.9372
2275.00,1.8799
2274.00,1.8277
2273.00,1.7824
2272.00,1.7460
2271.00,1.7206
2270.00,1.7088
2269.00,1.7128
2268.00,1.7344
2267.00,1.7742
2266.00,1.8319
2265.00,1.9060
2264.00,1.9948
2263.00,2.0962
2262.00,2.2084
2261.00,2.3301
2260.00,2.4610
2259.00,2.6016
2258.00,2.7553
2257.00,2.9268
2256.00,3.1204
2255.00,3.3342
2254.00,3.5418
2253.00,3.6710
2252.00,3.6461
2251.00,3.5062
2250.00,3.3376
2249.00,3.1805
2248.00,3.0411
2247.00,2.9129
2246.00,2.7884
2245.00,2.6654
2244.00,2.5449
2243.00,2.4271
2242.00,2.3108
2241.00,2.1947
2240.00,2.0800
2239.00,1.9693
2238.00,1.8667
2237.00,1.7760
2236.00,1.7008
2235.00,1.6438
2234.00,1.6062
2233.00,1.5883
2232.00,1.5888
2231.00,1.6057
2230.00,1.6361
2229.00,1.6766
2228.00,1.7238
2227.00,1.7748
2226.00,1.8276
2225.00,1.8808
2224.00,1.9337
2223.00,1.9859
2222.00,2.0374
2221.00,2.0881
2220.00,2.1376
2219.00,2.1846
2218.00,2.2286
2217.00,2.2694
2216.00,2.3074
2215.00,2.3433
2214.00,2.3769
2213.00,2.4084
2212.00,2.4377
2211.00,2.4653
2210.00,2.4917
2209.00,2.5172
2208.00,2.5416
2207.00,2.5644
2206.00,2.5850
2205.00,2.6033
2204.00,2.6189
2203.00,2.6322
2202.00,2.6441
2201.00,2.6555
2200.00,2.6664
2199.00,2.6767
2198.00,2.6866
2197.00,2.6970
2196.00,2.7086
2195.00,2.7209
2194.00,2.7324
2193.00,2.7418
2192.00,2.7494
2191.00,2.7567
2190.00,2.7643
2189.00,2.7718
2188.00,2.7783
2187.00,2.7842
2186.00,2.7906
2185.00,2.7965
2184.00,2.7996
2183.00,2.7996
2182.00,2.7989
2181.00,2.8002
2180.00,2.8032
2179.00,2.8053
2178.00,2.8059
2177.00,2.8063
2176.00,2.8077
2175.00,2.8098
2174.00,2.8111
2173.00,2.8112
2172.00,2.8101
2171.00,2.8073
2170.00,2.8028
2169.00,2.7974
2168.00,2.7921
2167.00,2.7873
2166.00,2.7822
2165.00,2.7761
2164.00,2.7692
2163.00,2.7617
2162.00,2.7542
2161.00,2.7470
2160.00,2.7391
2159.00,2.7297
2158.00,2.7191
2157.00,2.7087
2156.00,2.6996
2155.00,2.6908
2154.00,2.6800
2153.00,2.6665
2152.00,2.6515
2151.00,2.6362
2150.00,2.6211
2149.00,2.6057
2148.00,2.5897
2147.00,2.5728
2146.00,2.5548
2145.00,2.5358
2144.00,2.5160
2143.00,2.4954
2142.00,2.4731
2141.00,2.4488
2140.00,2.4229
2139.00,2.3965
2138.00,2.3699
2137.00,2.3427
2136.00,2.3140
2135.00,2.2831
2134.00,2.2495
2133.00,2.2131
2132.00,2.1742
2131.00,2.1329
2130.00,2.0896
2129.00,2.0445
2128.00,1.9974
2127.00,1.9480
2126.00,1.8959
2125.00,1.8416
2124.00,1.7856
2123.00,1.7288
2122.00,1.6721
2121.00,1.6166
2120.00,1.5635
2119.00,1.5136
2118.00,1.4679
2117.00,1.4272
2116.00,1.3924
2115.00,1.3641
2114.00,1.3431
2113.00,1.3302
2112.00,1.3258
2111.00,1.3302
2110.00,1.3430
2109.00,1.3639
2108.00,1.3921
2107.00,1.4268
2106.00,1.4669
2105.00,1.5114
2104.00,1.5591
2103.00,1.6094
2102.00,1.6614
2101.00,1.7144
2100.00,1.7678
2099.00,1.8210
2098.00,1.8738
2097.00,1.9261
2096.00,1.9773
2095.00,2.0271
2094.00,2.0751
2093.00,2.1211
2092.00,2.1650
2091.00,2.2071
2090.00,2.2472
2089.00,2.2850
2088.00,2.3203
2087.00,2.3533
2086.00,2.3846
2085.00,2.4144
2084.00,2.4427
2083.00,2.4696
2082.00,2.4953
2081.00,2.5201
2080.00,2.5437
2079.00,2.5664
2078.00,2.5884
2077.00,2.6096
2076.00,2.6296
2075.00,2.6485
2074.00,2.6671
2073.00,2.6855
2072.00,2.7028
2071.00,2.7182
2070.00,2.7314
2069.00,2.7431
2068.00,2.7540
2067.00,2.7650
2066.00,2.7771
2065.00,2.7899
2064.00,2.8023
2063.00,2.8127
2062.00,2.8211
2061.00,2.8282
2060.00,2.8350
2059.00,2.8421
2058.00,2.8503
2057.00,2.8595
2056.00,2.8684
2055.00,2.8757
2054.00,2.8808
2053.00,2.8844
2052.00,2.8876
2051.00,2.8919
2050.00,2.8982
2049.00,2.9061
2048.00,2.9140
2047.00,2.9196
2046.00,2.9218
2045.00,2.9210
2044.00,2.9188
2043.00,2.9169
2042.00,2.9158
2041.00,2.9153
2040.00,2.9149
2039.00,2.9149
2038.00,2.9153
2037.00,2.9155
2036.00,2.9142
2035.00,2.9109
2034.00,2.9065
2033.00,2.9026
2032.00,2.9003
2031.00,2.8990
2030.00,2.8969
2029.00,2.8919
2028.00,2.8829
2027.00,2.8714
2026.00,2.8606
2025.00,2.8518
2024.00,2.8447
2023.00,2.8384
2022.00,2.8331
2021.00,2.8289
2020.00,2.8242
2019.00,2.8167
2018.00,2.8052
2017.00,2.7908
2016.00,2.7755
2015.00,2.7600
2014.00,2.7440
2013.00,2.7275
2012.00,2.7111
2011.00,2.6953
2010.00,2.6796
2009.00,2.6633
2008.00,2.6454
2007.00,2.6260
2006.00,2.6052
2005.00,2.5830
2004.00,2.5597
2003.00,2.5355
2002.00,2.5101
2001.00,2.4829
2000.00,2.4536
1999.00,2.4228
1998.00,2.3911
1997.00,2.3584
1996.00,2.3239
1995.00,2.2872
1994.00,2.2482
1993.00,2.2066
1992.00,2.1617
1991.00,2.1135
1990.00,2.0628
1989.00,2.0105
1988.00,1.9568
1987.00,1.9015
1986.00,1.8448
1985.00,1.7876
1984.00,1.7312
1983.00,1.6766
1982.00,1.6247
1981.00,1.5767
1980.00,1.5337
1979.00,1.4963
1978.00,1.4653
1977.00,1.4413
1976.00,1.4252
1975.00,1.4174
1974.00,1.4184
1973.00,1.4283
1972.00,1.4470
1971.00,1.4735
1970.00,1.5069
1969.00,1.5465
1968.00,1.5913
1967.00,1.6399
1966.00,1.6911
1965.00,1.7440
1964.00,1.7982
1963.00,1.8530
1962.00,1.9077
1961.00,1.9618
1960.00,2.0153
1959.00,2.0680
1958.00,2.1193
1957.00,2.1686
1956.00,2.2156
1955.00,2.2606
1954.00,2.3034
1953.00,2.3441
1952.00,2.3830
1951.00,2.4195
1950.00,2.4529
1949.00,2.4830
1948.00,2.5112
1947.00,2.5393
1946.00,2.5674
1945.00,2.5948
1944.00,2.6212
1943.00,2.6471
1942.00,2.6718
1941.00,2.6942
1940.00,2.7141
1939.00,2.7319
1938.00,2.7480
1937.00,2.7627
1936.00,2.7775
1935.00,2.7942
1934.00,2.8122
1933.00,2.8294
1932.00,2.8448
1931.00,2.8600
1930.00,2.8753
1929.00,2.8884
1928.00,2.8976
1927.00,2.9039
1926.00,2.9111
1925.00,2.9218
1924.00,2.9358
1923.00,2.9499
1922.00,2.9600
1921.00,2.9658
1920.00,2.9709
1919.00,2.9785
1918.00,2.9868
1917.00,2.9919
1916.00,2.9932
1915.00,2.9950
1914.00,2.9998
1913.00,3.0068
1912.00,3.0133
1911.00,3.0176
1910.00,3.0182
1909.00,3.0153
1908.00,3.0125
1907.00,3.0142
1906.00,3.0200
1905.00,3.0247
1904.00,3.0252
1903.00,3.0237
1902.00,3.0233
1901.00,3.0240
1900.00,3.0232
1899.00,3.0197
1898.00,3.0149
1897.00,3.0111
1896.00,3.0094
1895.00,3.0090
1894.00,3.0067
1893.00,3.0001
1892.00,2.9911
1891.00,2.9838
1890.00,2.9797
1889.00,2.9766
1888.00,2.9721
1887.00,2.9661
1886.00,2.9585
1885.00,2.9492
1884.00,2.9389
1883.00,2.9295
1882.00,2.9208
1881.00,2.9104
1880.00,2.8974
1879.00,2.8836
1878.00,2.8693
1877.00,2.8524
1876.00,2.8324
1875.00,2.8127
1874.00,2.7959
1873.00,2.7813
1872.00,2.7670
1871.00,2.7518
1870.00,2.7347
1869.00,2.7137
1868.00,2.6897
1867.00,2.6659
1866.00,2.6437
1865.00,2.6202
1864.00,2.5923
1863.00,2.5603
1862.00,2.5266
1861.00,2.4930
1860.00,2.4589
1859.00,2.4233
1858.00,2.3852
1857.00,2.3439
1856.00,2.2997
1855.00,2.2530
1854.00,2.2041
1853.00,2.1524
1852.00,2.0980
1851.00,2.0417
1850.00,1.9845
1849.00,1.9268
1848.00,1.8699
1847.00,1.8159
1846.00,1.7660
1845.00,1.7180
1844.00,1.6698
1843.00,1.6238
1842.00,1.5871
1841.00,1.5655
1840.00,1.5577
1839.00,1.5585
1838.00,1.5653
1837.00,1.5795
1836.00,1.6025
1835.00,1.6337
1834.00,1.6708
1833.00,1.7130
1832.00,1.7608
1831.00,1.8134
1830.00,1.8688
1829.00,1.9245
1828.00,1.9795
1827.00,2.0340
1826.00,2.0878
1825.00,2.1391
1824.00,2.1865
1823.00,2.2314
1822.00,2.2769
1821.00,2.3238
1820.00,2.3697
1819.00,2.4122
1818.00,2.4518
1817.00,2.4900
1816.00,2.5278
1815.00,2.5643
1814.00,2.5992
1813.00,2.6332
1812.00,2.6658
1811.00,2.6955
1810.00,2.7217
1809.00,2.7452
1808.00,2.7676
1807.00,2.7892
1806.00,2.8106
1805.00,2.8330
1804.00,2.8559
1803.00,2.8771
1802.00,2.8948
1801.00,2.9098
1800.00,2.9236
1799.00,2.9379
1798.00,2.9538
1797.00,2.9713
1796.00,2.9891
1795.00,3.0043
1794.00,3.0161
1793.00,3.0246
1792.00,3.0292
1791.00,3.0301
1790.00,3.0317
1789.00,3.0386
1788.00,3.0506
1787.00,3.0640
1786.00,3.0765
1785.00,3.0890
1784.00,3.1026
1783.00,3.1154
1782.00,3.1255
1781.00,3.1326
1780.00,3.1359
1779.00,3.1360
1778.00,3.1359
1777.00,3.1381
1776.00,3.1429
1775.00,3.1484
1774.00,3.1541
1773.00,3.1591
1772.00,3.1608
1771.00,3.1594
1770.00,3.1597
1769.00,3.1652
1768.00,3.1736
1767.00,3.1794
1766.00,3.1788
1765.00,3.1737
1764.00,3.1668
1763.00,3.1591
1762.00,3.1500
1761.00,3.1390
1760.00,3.1260
1759.00,3.1124
1758.00,3.0994
1757.00,3.0864
1756.00,3.0715
1755.00,3.0564
1754.00,3.0465
1753.00,3.0437
1752.00,3.0421
1751.00,3.0346
1750.00,3.0208
1749.00,3.0065
1748.00,2.9948
1747.00,2.9821
1746.00,2.9650
1745.00,2.9449
1744.00,2.9245
1743.00,2.9059
1742.00,2.8896
1741.00,2.8743
1740.00,2.8565
1739.00,2.8331
1738.00,2.8068
1737.00,2.7858
1736.00,2.7715
1735.00,2.7543
1734.00,2.7236
1733.00,2.6813
1732.00,2.6430
1731.00,2.6185
1730.00,2.6013
1729.00,2.5839
1728.00,2.5689
1727.00,2.5636
1726.00,2.5728
1725.00,2.5960
1724.00,2.6314
1723.00,2.6789
1722.00,2.7386
1721.00,2.8093
1720.00,2.8893
1719.00,2.9784
1718.00,3.0793
1717.00,3.1938
1716.00,3.3142
1715.00,3.4254
1714.00,3.5184
1713.00,3.5971
1712.00,3.6717
1711.00,3.7475
1710.00,3.8154
1709.00,3.8492
1708.00,3.8350
1707.00,3.8052
1706.00,3.7800
1705.00,3.7310
1704.00,3.6458
1703.00,3.5557
1702.00,3.4732
1701.00,3.3789
1700.00,3.2651
1699.00,3.1560
1698.00,3.0787
1697.00,3.0256
1696.00,2.9642
1695.00,2.8825
1694.00,2.7931
1693.00,2.7116
1692.00,2.6393
1691.00,2.5646
1690.00,2.4823
1689.00,2.3989
1688.00,2.3232
1687.00,2.2605
1686.00,2.2091
1685.00,2.1622
1684.00,2.1161
1683.00,2.0768
1682.00,2.0552
1681.00,2.0552
1680.00,2.0708
1679.00,2.0929
1678.00,2.1182
1677.00,2.1487
1676.00,2.1840
1675.00,2.2214
1674.00,2.2596
1673.00,2.3034
1672.00,2.3563
1671.00,2.4133
1670.00,2.4667
1669.00,2.5145
1668.00,2.5596
1667.00,2.6039
1666.00,2.6481
1665.00,2.6910
1664.00,2.7307
1663.00,2.7653
1662.00,2.7949
1661.00,2.8241
1660.00,2.8564
1659.00,2.8901
1658.00,2.9203
1657.00,2.9458
1656.00,2.9712
1655.00,3.0019
1654.00,3.0366
1653.00,3.0671
1652.00,3.0849
1651.00,3.0920
1650.00,3.1021
1649.00,3.1178
1648.00,3.1283
1647.00,3.1340
1646.00,3.1398
1645.00,3.1476
1644.00,3.1598
1643.00,3.1782
1642.00,3.1997
1641.00,3.2199
1640.00,3.2368
1639.00,3.2490
1638.00,3.2570
1637.00,3.2628
1636.00,3.2666
1635.00,3.2657
1634.00,3.2605
1633.00,3.2578
1632.00,3.2652
1631.00,3.2772
1630.00,3.2847
1629.00,3.2877
1628.00,3.2902
1627.00,3.2940
1626.00,3.2995
1625.00,3.3083
1624.00,3.3186
1623.00,3.3229
1622.00,3.3157
1621.00,3.3039
1620.00,3.2988
1619.00,3.3027
1618.00,3.3082
1617.00,3.3081
1616.00,3.3023
1615.00,3.2945
1614.00,3.2882
1613.00,3.2835
1612.00,3.2773
1611.00,3.2668
1610.00,3.2548
1609.00,3.2481
1608.00,3.2490
1607.00,3.2510
1606.00,3.2453
1605.00,3.2321
1604.00,3.2179
1603.00,3.2070
1602.00,3.1968
1601.00,3.1840
1600.00,3.1696
1599.00,3.1564
1598.00,3.1445
1597.00,3.1318
1596.00,3.1175
1595.00,3.1021
1594.00,3.0857
1593.00,3.0687
1592.00,3.0524
1591.00,3.0379
1590.00,3.0243
1589.00,3.0095
1588.00,2.9917
1587.00,2.9705
1586.00,2.9462
1585.00,2.9196
1584.00,2.8913
1583.00,2.8626
1582.00,2.8347
1581.00,2.8077
1580.00,2.7810
1579.00,2.7546
1578.00,2.7273
1577.00,2.6953
1576.00,2.6564
1575.00,2.6135
1574.00,2.5715
1573.00,2.5335
1572.00,2.4969
1571.00,2.4563
1570.00,2.4090
1569.00,2.3584
1568.00,2.3113
1567.00,2.2722
1566.00,2.2406
1565.00,2.2122
1564.00,2.1858
1563.00,2.1659
1562.00,2.1579
1561.00,2.1603
1560.00,2.1664
1559.00,2.1694
1558.00,2.1749
1557.00,2.1900
1556.00,2.2119
1555.00,2.2432
1554.00,2.2788
1553.00,2.3121
1552.00,2.3461
1551.00,2.3841
1550.00,2.4252
1549.00,2.4651
1548.00,2.5033
1547.00,2.5420
1546.00,2.5829
1545.00,2.6251
1544.00,2.6679
1543.00,2.7125
1542.00,2.7580
1541.00,2.8014
1540.00,2.8423
1539.00,2.8810
1538.00,2.9121
1537.00,2.9354
1536.00,2.9594
1535.00,2.9850
1534.00,3.0108
1533.00,3.0353
1532.00,3.0567
1531.00,3.0784
1530.00,3.1034
1529.00,3.1290
1528.00,3.1494
1527.00,3.1634
1526.00,3.1763
1525.00,3.1918
1524.00,3.2087
1523.00,3.2257
1522.00,3.2427
1521.00,3.2583
1520.00,3.2700
1519.00,3.2794
1518.00,3.2922
1517.00,3.3081
1516.00,3.3216
1515.00,3.3288
1514.00,3.3320
1513.00,3.3353
1512.00,3.3394
1511.00,3.3434
1510.00,3.3487
1509.00,3.3579
1508.00,3.3720
1507.00,3.3917
1506.00,3.4176
1505.00,3.4380
1504.00,3.4446
1503.00,3.4478
1502.00,3.4508
1501.00,3.4527
1500.00,3.4565
1499.00,3.4607
1498.00,3.4619
1497.00,3.4571
1496.00,3.4478
1495.00,3.4399
1494.00,3.4406
1493.00,3.4508
1492.00,3.4621
1491.00,3.4659
1490.00,3.4622
1489.00,3.4553
1488.00,3.4482
1487.00,3.4447
1486.00,3.4517
1485.00,3.4713
1484.00,3.4920
1483.00,3.4988
1482.00,3.4909
1481.00,3.4794
1480.00,3.4715
1479.00,3.4665
1478.00,3.4641
1477.00,3.4671
1476.00,3.4758
1475.00,3.4837
1474.00,3.4807
1473.00,3.4640
1472.00,3.4411
1471.00,3.4209
1470.00,3.4055
1469.00,3.3925
1468.00,3.3795
1467.00,3.3695
1466.00,3.3694
1465.00,3.3822
1464.00,3.4006
1463.00,3.4147
1462.00,3.4244
1461.00,3.4375
1460.00,3.4580
1459.00,3.4834
1458.00,3.5126
1457.00,3.5462
1456.00,3.5794
1455.00,3.6045
1454.00,3.6257
1453.00,3.6454
1452.00,3.6572
1451.00,3.6614
1450.00,3.6628
1449.00,3.6612
1448.00,3.6551
1447.00,3.6480
1446.00,3.6448
1445.00,3.6453
1444.00,3.6444
1443.00,3.6427
1442.00,3.6446
1441.00,3.6511
1440.00,3.6577
1439.00,3.6606
1438.00,3.6608
1437.00,3.6589
1436.00,3.6491
1435.00,3.6323
1434.00,3.6147
1433.00,3.5950
1432.00,3.5710
1431.00,3.5493
1430.00,3.5403
1429.00,3.5450
1428.00,3.5515
1427.00,3.5490
1426.00,3.5409
1425.00,3.5331
1424.00,3.5223
1423.00,3.5061
1422.00,3.4929
1421.00,3.4914
1420.00,3.4975
1419.00,3.4956
1418.00,3.4796
1417.00,3.4612
1416.00,3.4491
1415.00,3.4374
1414.00,3.4182
1413.00,3.3921
1412.00,3.3665
1411.00,3.3475
1410.00,3.3350
1409.00,3.3248
1408.00,3.3138
1407.00,3.2993
1406.00,3.2794
1405.00,3.2553
1404.00,3.2298
1403.00,3.2065
1402.00,3.1884
1401.00,3.1760
1400.00,3.1654
1399.00,3.1530
1398.00,3.1394
1397.00,3.1285
1396.00,3.1219
1395.00,3.1193
1394.00,3.1221
1393.00,3.1330
1392.00,3.1521
1391.00,3.1751
1390.00,3.1969
1389.00,3.2180
1388.00,3.2425
1387.00,3.2724
1386.00,3.3053
1385.00,3.3394
1384.00,3.3770
1383.00,3.4223
1382.00,3.4766
1381.00,3.5388
1380.00,3.6072
1379.00,3.6797
1378.00,3.7500
1377.00,3.8038
1376.00,3.8149
1375.00,3.7671
1374.00,3.6777
1373.00,3.5748
1372.00,3.4768
1371.00,3.3914
1370.00,3.3197
1369.00,3.2607
1368.00,3.2151
1367.00,3.1866
1366.00,3.1777
1365.00,3.1846
1364.00,3.1968
1363.00,3.2057
1362.00,3.2137
1361.00,3.2287
1360.00,3.2505
1359.00,3.2697
1358.00,3.2819
1357.00,3.2969
1356.00,3.3282
1355.00,3.3772
1354.00,3.4298
1353.00,3.4671
1352.00,3.4823
1351.00,3.4828
1350.00,3.4814
1349.00,3.4882
1348.00,3.5061
1347.00,3.5278
1346.00,3.5403
1345.00,3.5414
1344.00,3.5419
1343.00,3.5492
1342.00,3.5633
1341.00,3.5841
1340.00,3.6126
1339.00,3.6440
1338.00,3.6631
1337.00,3.6574
1336.00,3.6326
1335.00,3.6061
1334.00,3.5936
1333.00,3.6007
1332.00,3.6212
1331.00,3.6402
1330.00,3.6428
1329.00,3.6283
1328.00,3.6088
1327.00,3.5930
1326.00,3.5843
1325.00,3.5869
1324.00,3.6012
1323.00,3.6169
1322.00,3.6190
1321.00,3.6030
1320.00,3.5783
1319.00,3.5624
1318.00,3.5701
1317.00,3.6031
1316.00,3.6480
1315.00,3.6833
1314.00,3.6931
1313.00,3.6756
1312.00,3.6416
1311.00,3.6070
1310.00,3.5830
1309.00,3.5742
1308.00,3.5820
1307.00,3.6044
1306.00,3.6308
1305.00,3.6384
1304.00,3.6075
1303.00,3.5489
1302.00,3.4949
1301.00,3.4673
1300.00,3.4660
1299.00,3.4746
1298.00,3.4754
1297.00,3.4639
1296.00,3.4477
1295.00,3.4324
1294.00,3.4155
1293.00,3.3906
1292.00,3.3560
1291.00,3.3172
1290.00,3.2811
1289.00,3.2512
1288.00,3.2277
1287.00,3.2104
1286.00,3.1979
1285.00,3.1848
1284.00,3.1629
1283.00,3.1299
1282.00,3.0934
1281.00,3.0625
1280.00,3.0385
1279.00,3.0143
1278.00,2.9842
1277.00,2.9497
1276.00,2.9149
1275.00,2.8802
1274.00,2.8428
1273.00,2.8011
1272.00,2.7557
1271.00,2.7078
1270.00,2.6587
1269.00,2.6096
1268.00,2.5619
1267.00,2.5160
1266.00,2.4712
1265.00,2.4273
1264.00,2.3856
1263.00,2.3489
1262.00,2.3206
1261.00,2.3037
1260.00,2.2999
1259.00,2.3093
1258.00,2.3311
1257.00,2.3641
1256.00,2.4073
1255.00,2.4588
1254.00,2.5160
1253.00,2.5762
1252.00,2.6377
1251.00,2.6996
1250.00,2.7608
1249.00,2.8207
1248.00,2.8790
1247.00,2.9354
1246.00,2.9872
1245.00,3.0332
1244.00,3.0763
1243.00,3.1214
1242.00,3.1690
1241.00,3.2133
1240.00,3.2490
1239.00,3.2780
1238.00,3.3068
1237.00,3.3388
1236.00,3.3711
1235.00,3.3978
1234.00,3.4158
1233.00,3.4297
1232.00,3.4473
1231.00,3.4713
1230.00,3.4963
1229.00,3.5177
1228.00,3.5405
1227.00,3.5726
1226.00,3.6102
1225.00,3.6366
1224.00,3.6435
1223.00,3.6461
1222.00,3.6639
1221.00,3.6967
1220.00,3.7219
1219.00,3.7178
1218.00,3.6937
1217.00,3.6729
1216.00,3.6662
1215.00,3.6754
1214.00,3.7005
1213.00,3.7370
1212.00,3.7697
1211.00,3.7819
1210.00,3.7697
1209.00,3.7386
1208.00,3.6978
1207.00,3.6542
1206.00,3.6180
1205.00,3.6085
1204.00,3.6408
1203.00,3.7111
1202.00,3.7899
1201.00,3.8330
1200.00,3.8197
1199.00,3.7666
1198.00,3.7128
1197.00,3.6946
1196.00,3.7219
1195.00,3.7774
1194.00,3.8279
1193.00,3.8525
1192.00,3.8639
1191.00,3.8817
1190.00,3.9028
1189.00,3.9152
1188.00,3.9250
1187.00,3.9389
1186.00,3.9417
1185.00,3.9176
1184.00,3.8682
1183.00,3.8054
1182.00,3.7481
1181.00,3.7180
1180.00,3.7276
1179.00,3.7724
1178.00,3.8338
1177.00,3.8930
1176.00,3.9370
1175.00,3.9475
1174.00,3.9209
1173.00,3.8792
1172.00,3.8347
1171.00,3.7891
1170.00,3.7409
1169.00,3.6898
1168.00,3.6494
1167.00,3.6354
1166.00,3.6509
1165.00,3.6835
1164.00,3.7091
1163.00,3.7081
1162.00,3.6845
1161.00,3.6573
1160.00,3.6413
1159.00,3.6387
1158.00,3.6435
1157.00,3.6462
1156.00,3.6333
1155.00,3.5934
1154.00,3.5313
1153.00,3.4674
1152.00,3.4189
1151.00,3.3871
1150.00,3.3611
1149.00,3.3326
1148.00,3.3063
1147.00,3.2921
1146.00,3.2890
1145.00,3.2827
1144.00,3.2588
1143.00,3.2163
1142.00,3.1639
1141.00,3.1096
1140.00,3.0586
1139.00,3.0135
1138.00,2.9722
1137.00,2.9287
1136.00,2.8804
1135.00,2.8325
1134.00,2.7928
1133.00,2.7651
1132.00,2.7486
1131.00,2.7425
1130.00,2.7490
1129.00,2.7714
1128.00,2.8106
1127.00,2.8636
1126.00,2.9246
1125.00,2.9872
1124.00,3.0475
1123.00,3.1049
1122.00,3.1577
1121.00,3.1987
1120.00,3.2189
1119.00,3.2159
1118.00,3.1982
1117.00,3.1771
1116.00,3.1601
1115.00,3.1514
1114.00,3.1547
1113.00,3.1717
1112.00,3.1980
1111.00,3.2267
1110.00,3.2572
1109.00,3.2965
1108.00,3.3502
1107.00,3.4149
1106.00,3.4795
1105.00,3.5327
1104.00,3.5704
1103.00,3.5960
1102.00,3.6192
1101.00,3.6554
1100.00,3.7067
1099.00,3.7477
1098.00,3.7557
1097.00,3.7419
1096.00,3.7419
1095.00,3.7912
1094.00,3.8998
1093.00,4.0203
1092.00,4.0494
1091.00,3.9742
1090.00,3.9072
1089.00,3.9104
1088.00,3.9630
1087.00,3.9819
1086.00,3.9077
1085.00,3.8204
1084.00,3.7928
1083.00,3.8400
1082.00,3.9481
1081.00,4.0631
1080.00,4.0977
1079.00,4.0535
1078.00,4.0371
1077.00,4.1267
1076.00,4.3667
1075.00,4.8059
1074.00,4.9933
1073.00,4.5980
1072.00,4.2670
1071.00,4.0967
1070.00,4.0352
1069.00,4.0510
1068.00,4.1201
1067.00,4.2082
1066.00,4.2739
1065.00,4.1934
1064.00,4.0767
1063.00,4.0488
1062.00,4.1140
1061.00,4.2786
1060.00,4.6080
1059.00,5.1361
1058.00,4.4197
1057.00,4.1305
1056.00,3.9790
1055.00,3.9136
1054.00,3.9248
1053.00,3.9743
1052.00,3.9556
1051.00,3.8942
1050.00,3.8385
1049.00,3.7967
1048.00,3.8241
1047.00,3.9485
1046.00,4.1321
1045.00,4.2980
1044.00,4.4153
1043.00,4.3102
1042.00,4.1045
1041.00,3.9780
1040.00,3.9340
1039.00,3.9397
1038.00,3.9617
1037.00,4.0142
1036.00,4.1768
1035.00,4.7054
1034.00,4.4360
1033.00,4.2298
1032.00,4.2933
1031.00,4.5389
1030.00,4.9064
1029.00,4.7032
1028.00,4.5686
1027.00,4.4270
1026.00,4.2159
1025.00,4.1746
1024.00,4.1970
1023.00,4.0110
1022.00,3.8837
1021.00,3.8758
1020.00,3.9178
1019.00,3.9415
1018.00,3.9300
1017.00,3.9052
1016.00,3.9150
1015.00,3.9877
1014.00,4.1274
1013.00,4.2838
1012.00,4.2775
1011.00,4.1817
1010.00,4.1424
1009.00,4.1415
1008.00,4.1351
1007.00,4.1493
1006.00,4.2341
1005.00,4.3851
1004.00,4.4291
1003.00,4.2508
1002.00,4.0652
1001.00,3.9580
1000.00,3.9185
999.00,3.8997
998.00,3.8595
997.00,3.7965
996.00,3.7396
995.00,3.7171
994.00,3.7302
993.00,3.7405
992.00,3.6966
991.00,3.6090
990.00,3.5304
989.00,3.4825
988.00,3.4517
987.00,3.4179
986.00,3.3832
985.00,3.3636
984.00,3.3648
983.00,3.3732
982.00,3.3687
981.00,3.3500
980.00,3.3345
979.00,3.3350
978.00,3.3560
977.00,3.3965
976.00,3.4491
975.00,3.5124
974.00,3.6022
973.00,3.7351
972.00,3.8939
971.00,4.0064
970.00,4.0123
969.00,3.9522
968.00,3.8941
967.00,3.8620
966.00,3.8575
965.00,3.8783
964.00,3.9223
963.00,3.9918
962.00,4.0870
961.00,4.2046
960.00,4.3303
959.00,4.2792
958.00,4.1408
957.00,4.1555
956.00,4.3033
955.00,4.2156
954.00,4.0912
953.00,4.1518
952.00,4.3396
951.00,4.3766
950.00,4.3478
949.00,4.3297
948.00,4.2534
947.00,4.2012
946.00,4.1992
945.00,4.2224
944.00,4.2937
943.00,4.4175
942.00,4.3520
941.00,4.1844
940.00,4.1141
939.00,4.1115
938.00,4.0768
937.00,4.0068
936.00,4.0022
935.00,4.1272
934.00,4.4931
933.00,5.0251
932.00,4.4636
931.00,4.3710
930.00,4.2604
929.00,4.0869
928.00,3.9926
927.00,3.9908
926.00,4.0381
925.00,4.0870
924.00,4.1803
923.00,4.3543
922.00,4.3560
921.00,4.2265
920.00,4.2001
919.00,4.2321
918.00,4.2759
917.00,4.4747
916.00,4.9660
915.00,4.3984
914.00,4.1758
913.00,4.1057
912.00,4.1214
911.00,4.1642
910.00,4.2654
909.00,4.6502
908.00,4.9075
907.00,4.5517
906.00,4.5603
905.00,4.3899
904.00,4.1996
903.00,4.1490
902.00,4.2810
901.00,4.7786
900.00,4.7927
899.00,4.5140
898.00,4.3529
897.00,4.1909
896.00,4.1146
895.00,4.1525
894.00,4.2559
893.00,4.1823
892.00,4.0154
891.00,3.9264
890.00,3.9206
889.00,3.9942
888.00,4.1300
887.00,4.3000
886.00,4.4852
885.00,4.3925
884.00,4.2108
883.00,4.1936
882.00,4.4028
881.00,4.6141
880.00,4.4393
879.00,4.7174
878.00,4.7115
877.00,4.2681
876.00,4.1289
875.00,4.0153
874.00,3.9042
873.00,3.8318
872.00,3.8047
871.00,3.8374
870.00,3.9342
869.00,4.1542
868.00,4.5145
867.00,4.2767
866.00,4.2075
865.00,4.5211
864.00,4.5745
863.00,4.1993
862.00,4.1683
861.00,4.2306
860.00,4.2087
859.00,4.0876
858.00,3.9591
857.00,3.9040
856.00,3.9096
855.00,3.9235
854.00,3.9109
853.00,3.9144
852.00,3.9896
851.00,4.1482
850.00,4.3343
849.00,4.3846
848.00,4.3031
847.00,4.3042
846.00,4.3527
845.00,4.1912
844.00,4.0079
843.00,3.9257
842.00,3.8994
841.00,3.8946
840.00,3.9185
839.00,4.0223
838.00,4.2198
837.00,4.3448
836.00,4.4261
835.00,4.2375
834.00,3.9287
833.00,3.7887
832.00,3.7762
831.00,3.8470
830.00,3.9518
829.00,4.0194
828.00,3.9901
827.00,3.9250
826.00,3.8921
825.00,3.8926
824.00,3.9569
823.00,4.1580
822.00,4.6578
821.00,5.1757
820.00,4.4981
819.00,4.2270
818.00,4.1468
817.00,4.1504
816.00,4.1037
815.00,4.1227
814.00,4.4196
813.00,4.3249
812.00,3.9081
811.00,3.7358
810.00,3.6617
809.00,3.6507
808.00,3.7296
807.00,3.9402
806.00,4.3790
805.00,5.1795
804.00,4.7083
803.00,4.3440
802.00,4.1764
801.00,4.0802
800.00,4.0512
799.00,4.0395
798.00,3.9945
797.00,3.9697
796.00,4.0395
795.00,4.2878
794.00,4.5461
793.00,4.6494
792.00,4.9606
791.00,4.4308
790.00,4.3650
789.00,4.7936
788.00,4.7100
787.00,4.3130
786.00,4.1602
785.00,4.0962
784.00,4.1367
783.00,4.2972
782.00,4.4196
781.00,4.2606
780.00,4.0396
779.00,3.9533
778.00,4.0275
777.00,4.2259
776.00,4.3877
775.00,4.3740
774.00,4.4996
773.00,5.0078
772.00,4.7351
771.00,4.8071
770.00,4.5808
769.00,4.0981
768.00,3.9500
767.00,3.9314
766.00,3.9583
765.00,4.0215
764.00,4.1226
763.00,4.2292
762.00,4.2551
761.00,4.1880
760.00,4.0965
759.00,4.0387
758.00,4.0144
757.00,4.0242
756.00,4.1018
755.00,4.2807
754.00,4.5256
753.00,4.4219
752.00,4.0758
751.00,3.8574
750.00,3.7637
749.00,3.7397
748.00,3.7335
747.00,3.7367
746.00,3.7720
745.00,3.8396
744.00,3.9302
743.00,4.0899
742.00,4.3412
741.00,4.3718
740.00,4.1890
739.00,4.0493
738.00,3.9188
737.00,3.8073
736.00,3.7778
735.00,3.8472
734.00,4.0620
733.00,4.4589
732.00,4.4058
731.00,4.2851
730.00,4.3679
729.00,4.4399
728.00,4.4323
727.00,4.3782
726.00,4.3316
725.00,4.2649
724.00,4.1557
723.00,4.0925
722.00,4.1686
721.00,4.4288
720.00,4.5340
719.00,4.3157
718.00,4.1198
717.00,3.9693
716.00,3.9157
715.00,3.9679
714.00,4.0592
713.00,4.0673
712.00,4.0005
711.00,3.9090
710.00,3.8160
709.00,3.7547
708.00,3.7261
707.00,3.7060
706.00,3.6712
705.00,3.6301
704.00,3.6180
703.00,3.6488
702.00,3.6936
701.00,3.7276
700.00,3.7901
