Created as New Dataset,Sample 033 By Administrator Date Wednesday, November 24 2021
cm-1,A
7502.00,0.7327
7501.00,0.7254
7500.00,0.7182
7499.00,0.7112
7498.00,0.7043
7497.00,0.6975
7496.00,0.6908
7495.00,0.6839
7494.00,0.6765
7493.00,0.6683
7492.00,0.6596
7491.00,0.6505
7490.00,0.6415
7489.00,0.6330
7488.00,0.6250
7487.00,0.6177
7486.00,0.6107
7485.00,0.6040
7484.00,0.5976
7483.00,0.5914
7482.00,0.5854
7481.00,0.5794
7480.00,0.5733
7479.00,0.5671
7478.00,0.5611
7477.00,0.5553
7476.00,0.5497
7475.00,0.5444
7474.00,0.5396
7473.00,0.5354
7472.00,0.5312
7471.00,0.5270
7470.00,0.5234
7469.00,0.5207
7468.00,0.5189
7467.00,0.5173
7466.00,0.5159
7465.00,0.5148
7464.00,0.5145
7463.00,0.5147
7462.00,0.5153
7461.00,0.5164
7460.00,0.5181
7459.00,0.5203
7458.00,0.5229
7457.00,0.5259
7456.00,0.5292
7455.00,0.5328
7454.00,0.5366
7453.00,0.5406
7452.00,0.5449
7451.00,0.5495
7450.00,0.5547
7449.00,0.5606
7448.00,0.5671
7447.00,0.5741
7446.00,0.5814
7445.00,0.5892
7444.00,0.5974
7443.00,0.6057
7442.00,0.6141
7441.00,0.6226
7440.00,0.6312
7439.00,0.6398
7438.00,0.6480
7437.00,0.6558
7436.00,0.6638
7435.00,0.6721
7434.00,0.6807
7433.00,0.6893
7432.00,0.6978
7431.00,0.7067
7430.00,0.7163
7429.00,0.7260
7428.00,0.7353
7427.00,0.7440
7426.00,0.7525
7425.00,0.7610
7424.00,0.7695
7423.00,0.7779
7422.00,0.7861
7421.00,0.7943
7420.00,0.8026
7419.00,0.8112
7418.00,0.8199
7417.00,0.8280
7416.00,0.8354
7415.00,0.8420
7414.00,0.8485
7413.00,0.8548
7412.00,0.8605
7411.00,0.8657
7410.00,0.8710
7409.00,0.8769
7408.00,0.8832
7407.00,0.8893
7406.00,0.8946
7405.00,0.8995
7404.00,0.9043
7403.00,0.9089
7402.00,0.9126
7401.00,0.9151
7400.00,0.9167
7399.00,0.9182
7398.00,0.9203
7397.00,0.9228
7396.00,0.9249
7395.00,0.9262
7394.00,0.9271
7393.00,0.9280
7392.00,0.9287
7391.00,0.9286
7390.00,0.9273
7389.00,0.9253
7388.00,0.9235
7387.00,0.9221
7386.00,0.9211
7385.00,0.9204
7384.00,0.9198
7383.00,0.9193
7382.00,0.9183
7381.00,0.9164
7380.00,0.9136
7379.00,0.9102
7378.00,0.9065
7377.00,0.9024
7376.00,0.8974
7375.00,0.8915
7374.00,0.8850
7373.00,0.8781
7372.00,0.8708
7371.00,0.8632
7370.00,0.8557
7369.00,0.8487
7368.00,0.8420
7367.00,0.8354
7366.00,0.8290
7365.00,0.8229
7364.00,0.8171
7363.00,0.8113
7362.00,0.8054
7361.00,0.7996
7360.00,0.7939
7359.00,0.7884
7358.00,0.7828
7357.00,0.7769
7356.00,0.7707
7355.00,0.7648
7354.00,0.7596
7353.00,0.7551
7352.00,0.7507
7351.00,0.7458
7350.00,0.7403
7349.00,0.7341
7348.00,0.7270
7347.00,0.7190
7346.00,0.7105
7345.00,0.7024
7344.00,0.6953
7343.00,0.6889
7342.00,0.6831
7341.00,0.6775
7340.00,0.6722
7339.00,0.6669
7338.00,0.6612
7337.00,0.6550
7336.00,0.6487
7335.00,0.6430
7334.00,0.6382
7333.00,0.6342
7332.00,0.6305
7331.00,0.6270
7330.00,0.6237
7329.00,0.6208
7328.00,0.6183
7327.00,0.6162
7326.00,0.6146
7325.00,0.6135
7324.00,0.6129
7323.00,0.6127
7322.00,0.6128
7321.00,0.6132
7320.00,0.6143
7319.00,0.6158
7318.00,0.6176
7317.00,0.6197
7316.00,0.6223
7315.00,0.6258
7314.00,0.6302
7313.00,0.6351
7312.00,0.6399
7311.00,0.6445
7310.00,0.6491
7309.00,0.6542
7308.00,0.6599
7307.00,0.6660
7306.00,0.6726
7305.00,0.6799
7304.00,0.6878
7303.00,0.6961
7302.00,0.7047
7301.00,0.7135
7300.00,0.7222
7299.00,0.7305
7298.00,0.7383
7297.00,0.7461
7296.00,0.7544
7295.00,0.7631
7294.00,0.7720
7293.00,0.7808
7292.00,0.7895
7291.00,0.7981
7290.00,0.8067
7289.00,0.8152
7288.00,0.8238
7287.00,0.8324
7286.00,0.8412
7285.00,0.8502
7284.00,0.8593
7283.00,0.8685
7282.00,0.8778
7281.00,0.8871
7280.00,0.8961
7279.00,0.9046
7278.00,0.9124
7277.00,0.9199
7276.00,0.9273
7275.00,0.9348
7274.00,0.9421
7273.00,0.9492
7272.00,0.9565
7271.00,0.9642
7270.00,0.9723
7269.00,0.9798
7268.00,0.9862
7267.00,0.9917
7266.00,0.9970
7265.00,1.0023
7264.00,1.0076
7263.00,1.0128
7262.00,1.0183
7261.00,1.0243
7260.00,1.0303
7259.00,1.0357
7258.00,1.0404
7257.00,1.0443
7256.00,1.0478
7255.00,1.0507
7254.00,1.0528
7253.00,1.0541
7252.00,1.0546
7251.00,1.0548
7250.00,1.0553
7249.00,1.0560
7248.00,1.0568
7247.00,1.0572
7246.00,1.0574
7245.00,1.0573
7244.00,1.0572
7243.00,1.0567
7242.00,1.0557
7241.00,1.0542
7240.00,1.0522
7239.00,1.0499
7238.00,1.0476
7237.00,1.0451
7236.00,1.0420
7235.00,1.0383
7234.00,1.0343
7233.00,1.0301
7232.00,1.0256
7231.00,1.0210
7230.00,1.0161
7229.00,1.0112
7228.00,1.0057
7227.00,0.9995
7226.00,0.9924
7225.00,0.9851
7224.00,0.9778
7223.00,0.9708
7222.00,0.9636
7221.00,0.9560
7220.00,0.9483
7219.00,0.9408
7218.00,0.9334
7217.00,0.9257
7216.00,0.9173
7215.00,0.9083
7214.00,0.8993
7213.00,0.8909
7212.00,0.8826
7211.00,0.8741
7210.00,0.8653
7209.00,0.8564
7208.00,0.8475
7207.00,0.8388
7206.00,0.8299
7205.00,0.8211
7204.00,0.8123
7203.00,0.8037
7202.00,0.7954
7201.00,0.7873
7200.00,0.7795
7199.00,0.7720
7198.00,0.7647
7197.00,0.7574
7196.00,0.7500
7195.00,0.7428
7194.00,0.7363
7193.00,0.7305
7192.00,0.7251
7191.00,0.7199
7190.00,0.7150
7189.00,0.7107
7188.00,0.7069
7187.00,0.7035
7186.00,0.7004
7185.00,0.6978
7184.00,0.6959
7183.00,0.6947
7182.00,0.6942
7181.00,0.6940
7180.00,0.6938
7179.00,0.6938
7178.00,0.6943
7177.00,0.6954
7176.00,0.6971
7175.00,0.6992
7174.00,0.7019
7173.00,0.7052
7172.00,0.7090
7171.00,0.7131
7170.00,0.7175
7169.00,0.7223
7168.00,0.7276
7167.00,0.7334
7166.00,0.7398
7165.00,0.7467
7164.00,0.7537
7163.00,0.7608
7162.00,0.7681
7161.00,0.7759
7160.00,0.7840
7159.00,0.7922
7158.00,0.8002
7157.00,0.8078
7156.00,0.8152
7155.00,0.8228
7154.00,0.8313
7153.00,0.8406
7152.00,0.8501
7151.00,0.8592
7150.00,0.8682
7149.00,0.8772
7148.00,0.8861
7147.00,0.8944
7146.00,0.9023
7145.00,0.9101
7144.00,0.9180
7143.00,0.9260
7142.00,0.9341
7141.00,0.9424
7140.00,0.9507
7139.00,0.9592
7138.00,0.9678
7137.00,0.9763
7136.00,0.9847
7135.00,0.9926
7134.00,1.0002
7133.00,1.0075
7132.00,1.0142
7131.00,1.0201
7130.00,1.0253
7129.00,1.0305
7128.00,1.0358
7127.00,1.0411
7126.00,1.0461
7125.00,1.0510
7124.00,1.0559
7123.00,1.0610
7122.00,1.0658
7121.00,1.0701
7120.00,1.0742
7119.00,1.0779
7118.00,1.0811
7117.00,1.0836
7116.00,1.0853
7115.00,1.0865
7114.00,1.0876
7113.00,1.0888
7112.00,1.0898
7111.00,1.0905
7110.00,1.0912
7109.00,1.0921
7108.00,1.0930
7107.00,1.0933
7106.00,1.0931
7105.00,1.0925
7104.00,1.0915
7103.00,1.0903
7102.00,1.0885
7101.00,1.0860
7100.00,1.0826
7099.00,1.0788
7098.00,1.0750
7097.00,1.0714
7096.00,1.0679
7095.00,1.0642
7094.00,1.0603
7093.00,1.0561
7092.00,1.0515
7091.00,1.0464
7090.00,1.0408
7089.00,1.0347
7088.00,1.0283
7087.00,1.0215
7086.00,1.0147
7085.00,1.0082
7084.00,1.0015
7083.00,0.9942
7082.00,0.9864
7081.00,0.9783
7080.00,0.9702
7079.00,0.9621
7078.00,0.9537
7077.00,0.9451
7076.00,0.9365
7075.00,0.9279
7074.00,0.9192
7073.00,0.9104
7072.00,0.9015
7071.00,0.8925
7070.00,0.8837
7069.00,0.8750
7068.00,0.8663
7067.00,0.8574
7066.00,0.8484
7065.00,0.8396
7064.00,0.8310
7063.00,0.8226
7062.00,0.8142
7061.00,0.8060
7060.00,0.7981
7059.00,0.7905
7058.00,0.7833
7057.00,0.7762
7056.00,0.7691
7055.00,0.7620
7054.00,0.7552
7053.00,0.7491
7052.00,0.7436
7051.00,0.7384
7050.00,0.7335
7049.00,0.7289
7048.00,0.7249
7047.00,0.7213
7046.00,0.7182
7045.00,0.7155
7044.00,0.7131
7043.00,0.7111
7042.00,0.7098
7041.00,0.7091
7040.00,0.7090
7039.00,0.7092
7038.00,0.7098
7037.00,0.7110
7036.00,0.7128
7035.00,0.7151
7034.00,0.7179
7033.00,0.7212
7032.00,0.7250
7031.00,0.7292
7030.00,0.7337
7029.00,0.7384
7028.00,0.7435
7027.00,0.7490
7026.00,0.7550
7025.00,0.7613
7024.00,0.7679
7023.00,0.7747
7022.00,0.7819
7021.00,0.7893
7020.00,0.7970
7019.00,0.8049
7018.00,0.8130
7017.00,0.8214
7016.00,0.8299
7015.00,0.8384
7014.00,0.8469
7013.00,0.8555
7012.00,0.8643
7011.00,0.8731
7010.00,0.8821
7009.00,0.8912
7008.00,0.9005
7007.00,0.9099
7006.00,0.9193
7005.00,0.9287
7004.00,0.9380
7003.00,0.9472
7002.00,0.9563
7001.00,0.9654
7000.00,0.9743
6999.00,0.9828
6998.00,0.9910
6997.00,0.9993
6996.00,1.0074
6995.00,1.0151
6994.00,1.0224
6993.00,1.0297
6992.00,1.0371
6991.00,1.0442
6990.00,1.0510
6989.00,1.0578
6988.00,1.0648
6987.00,1.0719
6986.00,1.0787
6985.00,1.0852
6984.00,1.0915
6983.00,1.0974
6982.00,1.1026
6981.00,1.1070
6980.00,1.1110
6979.00,1.1148
6978.00,1.1186
6977.00,1.1224
6976.00,1.1262
6975.00,1.1299
6974.00,1.1332
6973.00,1.1360
6972.00,1.1383
6971.00,1.1401
6970.00,1.1414
6969.00,1.1426
6968.00,1.1436
6967.00,1.1445
6966.00,1.1455
6965.00,1.1466
6964.00,1.1474
6963.00,1.1475
6962.00,1.1467
6961.00,1.1452
6960.00,1.1433
6959.00,1.1408
6958.00,1.1376
6957.00,1.1338
6956.00,1.1300
6955.00,1.1264
6954.00,1.1231
6953.00,1.1198
6952.00,1.1163
6951.00,1.1122
6950.00,1.1074
6949.00,1.1022
6948.00,1.0965
6947.00,1.0905
6946.00,1.0843
6945.00,1.0779
6944.00,1.0714
6943.00,1.0645
6942.00,1.0572
6941.00,1.0493
6940.00,1.0410
6939.00,1.0325
6938.00,1.0240
6937.00,1.0155
6936.00,1.0070
6935.00,0.9981
6934.00,0.9891
6933.00,0.9799
6932.00,0.9706
6931.00,0.9612
6930.00,0.9515
6929.00,0.9419
6928.00,0.9324
6927.00,0.9228
6926.00,0.9131
6925.00,0.9035
6924.00,0.8940
6923.00,0.8846
6922.00,0.8750
6921.00,0.8657
6920.00,0.8567
6919.00,0.8482
6918.00,0.8399
6917.00,0.8317
6916.00,0.8236
6915.00,0.8159
6914.00,0.8085
6913.00,0.8013
6912.00,0.7944
6911.00,0.7879
6910.00,0.7820
6909.00,0.7767
6908.00,0.7717
6907.00,0.7672
6906.00,0.7630
6905.00,0.7594
6904.00,0.7561
6903.00,0.7533
6902.00,0.7510
6901.00,0.7495
6900.00,0.7487
6899.00,0.7484
6898.00,0.7483
6897.00,0.7486
6896.00,0.7493
6895.00,0.7506
6894.00,0.7524
6893.00,0.7548
6892.00,0.7579
6891.00,0.7616
6890.00,0.7659
6889.00,0.7706
6888.00,0.7756
6887.00,0.7810
6886.00,0.7867
6885.00,0.7925
6884.00,0.7988
6883.00,0.8054
6882.00,0.8125
6881.00,0.8198
6880.00,0.8272
6879.00,0.8349
6878.00,0.8432
6877.00,0.8517
6876.00,0.8603
6875.00,0.8687
6874.00,0.8772
6873.00,0.8861
6872.00,0.8952
6871.00,0.9041
6870.00,0.9128
6869.00,0.9215
6868.00,0.9305
6867.00,0.9396
6866.00,0.9487
6865.00,0.9579
6864.00,0.9670
6863.00,0.9759
6862.00,0.9845
6861.00,0.9930
6860.00,1.0011
6859.00,1.0090
6858.00,1.0169
6857.00,1.0251
6856.00,1.0335
6855.00,1.0419
6854.00,1.0499
6853.00,1.0574
6852.00,1.0646
6851.00,1.0712
6850.00,1.0774
6849.00,1.0833
6848.00,1.0893
6847.00,1.0953
6846.00,1.1013
6845.00,1.1069
6844.00,1.1119
6843.00,1.1166
6842.00,1.1211
6841.00,1.1255
6840.00,1.1299
6839.00,1.1341
6838.00,1.1380
6837.00,1.1415
6836.00,1.1446
6835.00,1.1475
6834.00,1.1499
6833.00,1.1518
6832.00,1.1532
6831.00,1.1541
6830.00,1.1548
6829.00,1.1553
6828.00,1.1555
6827.00,1.1554
6826.00,1.1552
6825.00,1.1547
6824.00,1.1536
6823.00,1.1518
6822.00,1.1494
6821.00,1.1466
6820.00,1.1435
6819.00,1.1403
6818.00,1.1369
6817.00,1.1334
6816.00,1.1298
6815.00,1.1256
6814.00,1.1211
6813.00,1.1163
6812.00,1.1114
6811.00,1.1061
6810.00,1.1004
6809.00,1.0943
6808.00,1.0880
6807.00,1.0816
6806.00,1.0751
6805.00,1.0681
6804.00,1.0606
6803.00,1.0527
6802.00,1.0446
6801.00,1.0366
6800.00,1.0285
6799.00,1.0201
6798.00,1.0112
6797.00,1.0021
6796.00,0.9930
6795.00,0.9841
6794.00,0.9749
6793.00,0.9652
6792.00,0.9553
6791.00,0.9456
6790.00,0.9363
6789.00,0.9271
6788.00,0.9177
6787.00,0.9082
6786.00,0.8987
6785.00,0.8891
6784.00,0.8795
6783.00,0.8699
6782.00,0.8606
6781.00,0.8515
6780.00,0.8426
6779.00,0.8338
6778.00,0.8255
6777.00,0.8175
6776.00,0.8098
6775.00,0.8023
6774.00,0.7951
6773.00,0.7884
6772.00,0.7820
6771.00,0.7760
6770.00,0.7703
6769.00,0.7651
6768.00,0.7603
6767.00,0.7558
6766.00,0.7516
6765.00,0.7479
6764.00,0.7448
6763.00,0.7422
6762.00,0.7401
6761.00,0.7385
6760.00,0.7376
6759.00,0.7373
6758.00,0.7376
6757.00,0.7382
6756.00,0.7391
6755.00,0.7404
6754.00,0.7421
6753.00,0.7444
6752.00,0.7471
6751.00,0.7503
6750.00,0.7540
6749.00,0.7583
6748.00,0.7631
6747.00,0.7684
6746.00,0.7742
6745.00,0.7803
6744.00,0.7868
6743.00,0.7938
6742.00,0.8013
6741.00,0.8091
6740.00,0.8171
6739.00,0.8252
6738.00,0.8335
6737.00,0.8422
6736.00,0.8508
6735.00,0.8595
6734.00,0.8682
6733.00,0.8772
6732.00,0.8865
6731.00,0.8957
6730.00,0.9049
6729.00,0.9141
6728.00,0.9234
6727.00,0.9329
6726.00,0.9424
6725.00,0.9521
6724.00,0.9618
6723.00,0.9715
6722.00,0.9811
6721.00,0.9903
6720.00,0.9993
6719.00,1.0083
6718.00,1.0171
6717.00,1.0258
6716.00,1.0342
6715.00,1.0425
6714.00,1.0507
6713.00,1.0589
6712.00,1.0668
6711.00,1.0746
6710.00,1.0824
6709.00,1.0903
6708.00,1.0978
6707.00,1.1049
6706.00,1.1118
6705.00,1.1184
6704.00,1.1246
6703.00,1.1306
6702.00,1.1365
6701.00,1.1422
6700.00,1.1475
6699.00,1.1520
6698.00,1.1562
6697.00,1.1603
6696.00,1.1641
6695.00,1.1677
6694.00,1.1713
6693.00,1.1749
6692.00,1.1781
6691.00,1.1807
6690.00,1.1827
6689.00,1.1843
6688.00,1.1856
6687.00,1.1865
6686.00,1.1871
6685.00,1.1874
6684.00,1.1875
6683.00,1.1873
6682.00,1.1866
6681.00,1.1857
6680.00,1.1844
6679.00,1.1828
6678.00,1.1808
6677.00,1.1784
6676.00,1.1754
6675.00,1.1717
6674.00,1.1680
6673.00,1.1647
6672.00,1.1614
6671.00,1.1575
6670.00,1.1528
6669.00,1.1478
6668.00,1.1425
6667.00,1.1367
6666.00,1.1301
6665.00,1.1229
6664.00,1.1156
6663.00,1.1085
6662.00,1.1014
6661.00,1.0940
6660.00,1.0863
6659.00,1.0781
6658.00,1.0696
6657.00,1.0611
6656.00,1.0523
6655.00,1.0432
6654.00,1.0338
6653.00,1.0242
6652.00,1.0146
6651.00,1.0047
6650.00,0.9947
6649.00,0.9844
6648.00,0.9743
6647.00,0.9642
6646.00,0.9541
6645.00,0.9440
6644.00,0.9338
6643.00,0.9235
6642.00,0.9131
6641.00,0.9027
6640.00,0.8924
6639.00,0.8824
6638.00,0.8729
6637.00,0.8638
6636.00,0.8548
6635.00,0.8461
6634.00,0.8376
6633.00,0.8293
6632.00,0.8212
6631.00,0.8134
6630.00,0.8061
6629.00,0.7992
6628.00,0.7928
6627.00,0.7869
6626.00,0.7815
6625.00,0.7768
6624.00,0.7726
6623.00,0.7688
6622.00,0.7655
6621.00,0.7626
6620.00,0.7603
6619.00,0.7586
6618.00,0.7574
6617.00,0.7569
6616.00,0.7569
6615.00,0.7577
6614.00,0.7590
6613.00,0.7610
6612.00,0.7634
6611.00,0.7663
6610.00,0.7698
6609.00,0.7737
6608.00,0.7781
6607.00,0.7828
6606.00,0.7881
6605.00,0.7939
6604.00,0.8002
6603.00,0.8069
6602.00,0.8141
6601.00,0.8216
6600.00,0.8292
6599.00,0.8369
6598.00,0.8447
6597.00,0.8527
6596.00,0.8609
6595.00,0.8694
6594.00,0.8784
6593.00,0.8879
6592.00,0.8976
6591.00,0.9072
6590.00,0.9167
6589.00,0.9261
6588.00,0.9354
6587.00,0.9446
6586.00,0.9537
6585.00,0.9628
6584.00,0.9721
6583.00,0.9814
6582.00,0.9907
6581.00,1.0000
6580.00,1.0092
6579.00,1.0184
6578.00,1.0274
6577.00,1.0364
6576.00,1.0451
6575.00,1.0535
6574.00,1.0617
6573.00,1.0694
6572.00,1.0768
6571.00,1.0838
6570.00,1.0908
6569.00,1.0979
6568.00,1.1048
6567.00,1.1116
6566.00,1.1182
6565.00,1.1248
6564.00,1.1312
6563.00,1.1372
6562.00,1.1428
6561.00,1.1478
6560.00,1.1522
6559.00,1.1562
6558.00,1.1601
6557.00,1.1642
6556.00,1.1679
6555.00,1.1709
6554.00,1.1733
6553.00,1.1755
6552.00,1.1776
6551.00,1.1791
6550.00,1.1800
6549.00,1.1806
6548.00,1.1814
6547.00,1.1822
6546.00,1.1827
6545.00,1.1826
6544.00,1.1820
6543.00,1.1812
6542.00,1.1798
6541.00,1.1778
6540.00,1.1751
6539.00,1.1719
6538.00,1.1687
6537.00,1.1653
6536.00,1.1619
6535.00,1.1585
6534.00,1.1550
6533.00,1.1513
6532.00,1.1471
6531.00,1.1420
6530.00,1.1361
6529.00,1.1297
6528.00,1.1230
6527.00,1.1161
6526.00,1.1089
6525.00,1.1014
6524.00,1.0938
6523.00,1.0861
6522.00,1.0783
6521.00,1.0701
6520.00,1.0616
6519.00,1.0530
6518.00,1.0442
6517.00,1.0353
6516.00,1.0260
6515.00,1.0164
6514.00,1.0066
6513.00,0.9970
6512.00,0.9873
6511.00,0.9775
6510.00,0.9675
6509.00,0.9575
6508.00,0.9475
6507.00,0.9374
6506.00,0.9273
6505.00,0.9171
6504.00,0.9069
6503.00,0.8969
6502.00,0.8871
6501.00,0.8775
6500.00,0.8681
6499.00,0.8587
6498.00,0.8495
6497.00,0.8405
6496.00,0.8319
6495.00,0.8235
6494.00,0.8151
6493.00,0.8068
6492.00,0.7989
6491.00,0.7915
6490.00,0.7845
6489.00,0.7781
6488.00,0.7720
6487.00,0.7664
6486.00,0.7613
6485.00,0.7565
6484.00,0.7521
6483.00,0.7480
6482.00,0.7446
6481.00,0.7419
6480.00,0.7400
6479.00,0.7387
6478.00,0.7378
6477.00,0.7374
6476.00,0.7376
6475.00,0.7382
6474.00,0.7393
6473.00,0.7409
6472.00,0.7431
6471.00,0.7458
6470.00,0.7489
6469.00,0.7526
6468.00,0.7568
6467.00,0.7614
6466.00,0.7666
6465.00,0.7724
6464.00,0.7786
6463.00,0.7852
6462.00,0.7923
6461.00,0.7998
6460.00,0.8078
6459.00,0.8159
6458.00,0.8243
6457.00,0.8330
6456.00,0.8418
6455.00,0.8507
6454.00,0.8597
6453.00,0.8691
6452.00,0.8787
6451.00,0.8887
6450.00,0.8987
6449.00,0.9086
6448.00,0.9183
6447.00,0.9280
6446.00,0.9376
6445.00,0.9473
6444.00,0.9571
6443.00,0.9671
6442.00,0.9773
6441.00,0.9878
6440.00,0.9981
6439.00,1.0080
6438.00,1.0176
6437.00,1.0268
6436.00,1.0358
6435.00,1.0446
6434.00,1.0534
6433.00,1.0623
6432.00,1.0710
6431.00,1.0796
6430.00,1.0881
6429.00,1.0964
6428.00,1.1045
6427.00,1.1121
6426.00,1.1194
6425.00,1.1266
6424.00,1.1337
6423.00,1.1403
6422.00,1.1462
6421.00,1.1517
6420.00,1.1571
6419.00,1.1624
6418.00,1.1675
6417.00,1.1724
6416.00,1.1770
6415.00,1.1813
6414.00,1.1850
6413.00,1.1882
6412.00,1.1908
6411.00,1.1933
6410.00,1.1957
6409.00,1.1980
6408.00,1.2002
6407.00,1.2023
6406.00,1.2039
6405.00,1.2048
6404.00,1.2049
6403.00,1.2044
6402.00,1.2036
6401.00,1.2025
6400.00,1.2010
6399.00,1.1993
6398.00,1.1973
6397.00,1.1950
6396.00,1.1923
6395.00,1.1891
6394.00,1.1857
6393.00,1.1819
6392.00,1.1780
6391.00,1.1739
6390.00,1.1697
6389.00,1.1650
6388.00,1.1597
6387.00,1.1537
6386.00,1.1472
6385.00,1.1404
6384.00,1.1334
6383.00,1.1260
6382.00,1.1185
6381.00,1.1110
6380.00,1.1037
6379.00,1.0960
6378.00,1.0877
6377.00,1.0787
6376.00,1.0691
6375.00,1.0592
6374.00,1.0491
6373.00,1.0387
6372.00,1.0282
6371.00,1.0179
6370.00,1.0079
6369.00,0.9979
6368.00,0.9876
6367.00,0.9770
6366.00,0.9663
6365.00,0.9556
6364.00,0.9446
6363.00,0.9335
6362.00,0.9225
6361.00,0.9116
6360.00,0.9007
6359.00,0.8897
6358.00,0.8787
6357.00,0.8679
6356.00,0.8574
6355.00,0.8471
6354.00,0.8372
6353.00,0.8278
6352.00,0.8189
6351.00,0.8104
6350.00,0.8023
6349.00,0.7946
6348.00,0.7871
6347.00,0.7801
6346.00,0.7734
6345.00,0.7674
6344.00,0.7619
6343.00,0.7570
6342.00,0.7527
6341.00,0.7490
6340.00,0.7459
6339.00,0.7433
6338.00,0.7411
6337.00,0.7397
6336.00,0.7389
6335.00,0.7386
6334.00,0.7390
6333.00,0.7400
6332.00,0.7417
6331.00,0.7440
6330.00,0.7469
6329.00,0.7504
6328.00,0.7544
6327.00,0.7591
6326.00,0.7643
6325.00,0.7699
6324.00,0.7758
6323.00,0.7820
6322.00,0.7888
6321.00,0.7960
6320.00,0.8036
6319.00,0.8116
6318.00,0.8200
6317.00,0.8286
6316.00,0.8373
6315.00,0.8461
6314.00,0.8550
6313.00,0.8643
6312.00,0.8740
6311.00,0.8840
6310.00,0.8940
6309.00,0.9040
6308.00,0.9139
6307.00,0.9237
6306.00,0.9334
6305.00,0.9432
6304.00,0.9532
6303.00,0.9632
6302.00,0.9734
6301.00,0.9835
6300.00,0.9934
6299.00,1.0030
6298.00,1.0126
6297.00,1.0221
6296.00,1.0314
6295.00,1.0405
6294.00,1.0493
6293.00,1.0579
6292.00,1.0664
6291.00,1.0745
6290.00,1.0824
6289.00,1.0901
6288.00,1.0976
6287.00,1.1053
6286.00,1.1129
6285.00,1.1205
6284.00,1.1278
6283.00,1.1345
6282.00,1.1405
6281.00,1.1460
6280.00,1.1510
6279.00,1.1554
6278.00,1.1596
6277.00,1.1637
6276.00,1.1678
6275.00,1.1717
6274.00,1.1753
6273.00,1.1785
6272.00,1.1812
6271.00,1.1834
6270.00,1.1851
6269.00,1.1865
6268.00,1.1877
6267.00,1.1885
6266.00,1.1888
6265.00,1.1889
6264.00,1.1888
6263.00,1.1886
6262.00,1.1881
6261.00,1.1872
6260.00,1.1859
6259.00,1.1842
6258.00,1.1819
6257.00,1.1791
6256.00,1.1756
6255.00,1.1717
6254.00,1.1675
6253.00,1.1630
6252.00,1.1584
6251.00,1.1536
6250.00,1.1487
6249.00,1.1433
6248.00,1.1374
6247.00,1.1311
6246.00,1.1243
6245.00,1.1172
6244.00,1.1099
6243.00,1.1024
6242.00,1.0946
6241.00,1.0864
6240.00,1.0781
6239.00,1.0696
6238.00,1.0609
6237.00,1.0520
6236.00,1.0428
6235.00,1.0334
6234.00,1.0239
6233.00,1.0141
6232.00,1.0038
6231.00,0.9932
6230.00,0.9826
6229.00,0.9720
6228.00,0.9615
6227.00,0.9509
6226.00,0.9402
6225.00,0.9294
6224.00,0.9186
6223.00,0.9077
6222.00,0.8968
6221.00,0.8860
6220.00,0.8753
6219.00,0.8647
6218.00,0.8542
6217.00,0.8440
6216.00,0.8340
6215.00,0.8241
6214.00,0.8146
6213.00,0.8052
6212.00,0.7961
6211.00,0.7872
6210.00,0.7786
6209.00,0.7704
6208.00,0.7627
6207.00,0.7555
6206.00,0.7489
6205.00,0.7428
6204.00,0.7372
6203.00,0.7321
6202.00,0.7276
6201.00,0.7235
6200.00,0.7200
6199.00,0.7170
6198.00,0.7148
6197.00,0.7133
6196.00,0.7124
6195.00,0.7120
6194.00,0.7121
6193.00,0.7130
6192.00,0.7145
6191.00,0.7165
6190.00,0.7192
6189.00,0.7226
6188.00,0.7265
6187.00,0.7309
6186.00,0.7358
6185.00,0.7412
6184.00,0.7470
6183.00,0.7534
6182.00,0.7603
6181.00,0.7679
6180.00,0.7760
6179.00,0.7843
6178.00,0.7929
6177.00,0.8018
6176.00,0.8109
6175.00,0.8203
6174.00,0.8300
6173.00,0.8398
6172.00,0.8497
6171.00,0.8597
6170.00,0.8698
6169.00,0.8802
6168.00,0.8907
6167.00,0.9013
6166.00,0.9120
6165.00,0.9227
6164.00,0.9333
6163.00,0.9437
6162.00,0.9538
6161.00,0.9639
6160.00,0.9740
6159.00,0.9841
6158.00,0.9944
6157.00,1.0048
6156.00,1.0151
6155.00,1.0252
6154.00,1.0350
6153.00,1.0445
6152.00,1.0536
6151.00,1.0624
6150.00,1.0712
6149.00,1.0798
6148.00,1.0883
6147.00,1.0967
6146.00,1.1050
6145.00,1.1129
6144.00,1.1203
6143.00,1.1272
6142.00,1.1339
6141.00,1.1404
6140.00,1.1466
6139.00,1.1523
6138.00,1.1576
6137.00,1.1625
6136.00,1.1669
6135.00,1.1708
6134.00,1.1747
6133.00,1.1786
6132.00,1.1824
6131.00,1.1859
6130.00,1.1889
6129.00,1.1918
6128.00,1.1942
6127.00,1.1962
6126.00,1.1975
6125.00,1.1986
6124.00,1.1993
6123.00,1.1996
6122.00,1.1994
6121.00,1.1988
6120.00,1.1978
6119.00,1.1967
6118.00,1.1953
6117.00,1.1937
6116.00,1.1917
6115.00,1.1891
6114.00,1.1861
6113.00,1.1827
6112.00,1.1790
6111.00,1.1749
6110.00,1.1703
6109.00,1.1655
6108.00,1.1604
6107.00,1.1548
6106.00,1.1486
6105.00,1.1419
6104.00,1.1351
6103.00,1.1283
6102.00,1.1214
6101.00,1.1143
6100.00,1.1069
6099.00,1.0990
6098.00,1.0905
6097.00,1.0814
6096.00,1.0720
6095.00,1.0622
6094.00,1.0522
6093.00,1.0422
6092.00,1.0322
6091.00,1.0219
6090.00,1.0113
6089.00,1.0003
6088.00,0.9892
6087.00,0.9779
6086.00,0.9664
6085.00,0.9547
6084.00,0.9428
6083.00,0.9307
6082.00,0.9185
6081.00,0.9065
6080.00,0.8945
6079.00,0.8827
6078.00,0.8711
6077.00,0.8598
6076.00,0.8487
6075.00,0.8377
6074.00,0.8269
6073.00,0.8163
6072.00,0.8060
6071.00,0.7959
6070.00,0.7862
6069.00,0.7769
6068.00,0.7681
6067.00,0.7599
6066.00,0.7521
6065.00,0.7449
6064.00,0.7381
6063.00,0.7318
6062.00,0.7260
6061.00,0.7209
6060.00,0.7164
6059.00,0.7126
6058.00,0.7094
6057.00,0.7069
6056.00,0.7051
6055.00,0.7040
6054.00,0.7035
6053.00,0.7039
6052.00,0.7050
6051.00,0.7068
6050.00,0.7093
6049.00,0.7123
6048.00,0.7159
6047.00,0.7202
6046.00,0.7250
6045.00,0.7305
6044.00,0.7365
6043.00,0.7429
6042.00,0.7498
6041.00,0.7572
6040.00,0.7650
6039.00,0.7732
6038.00,0.7817
6037.00,0.7907
6036.00,0.8000
6035.00,0.8094
6034.00,0.8190
6033.00,0.8290
6032.00,0.8392
6031.00,0.8497
6030.00,0.8603
6029.00,0.8711
6028.00,0.8819
6027.00,0.8926
6026.00,0.9032
6025.00,0.9138
6024.00,0.9244
6023.00,0.9350
6022.00,0.9458
6021.00,0.9565
6020.00,0.9672
6019.00,0.9778
6018.00,0.9883
6017.00,0.9986
6016.00,1.0087
6015.00,1.0188
6014.00,1.0288
6013.00,1.0387
6012.00,1.0486
6011.00,1.0582
6010.00,1.0676
6009.00,1.0766
6008.00,1.0851
6007.00,1.0933
6006.00,1.1012
6005.00,1.1090
6004.00,1.1164
6003.00,1.1233
6002.00,1.1300
6001.00,1.1363
6000.00,1.1422
5999.00,1.1479
5998.00,1.1534
5997.00,1.1592
5996.00,1.1649
5995.00,1.1703
5994.00,1.1750
5993.00,1.1789
5992.00,1.1818
5991.00,1.1840
5990.00,1.1858
5989.00,1.1877
5988.00,1.1896
5987.00,1.1915
5986.00,1.1932
5985.00,1.1945
5984.00,1.1954
5983.00,1.1955
5982.00,1.1951
5981.00,1.1944
5980.00,1.1935
5979.00,1.1922
5978.00,1.1905
5977.00,1.1886
5976.00,1.1866
5975.00,1.1843
5974.00,1.1815
5973.00,1.1780
5972.00,1.1740
5971.00,1.1699
5970.00,1.1654
5969.00,1.1605
5968.00,1.1551
5967.00,1.1495
5966.00,1.1436
5965.00,1.1373
5964.00,1.1306
5963.00,1.1236
5962.00,1.1164
5961.00,1.1092
5960.00,1.1021
5959.00,1.0949
5958.00,1.0875
5957.00,1.0799
5956.00,1.0720
5955.00,1.0640
5954.00,1.0556
5953.00,1.0466
5952.00,1.0373
5951.00,1.0277
5950.00,1.0178
5949.00,1.0074
5948.00,0.9965
5947.00,0.9852
5946.00,0.9738
5945.00,0.9622
5944.00,0.9503
5943.00,0.9384
5942.00,0.9265
5941.00,0.9146
5940.00,0.9025
5939.00,0.8901
5938.00,0.8776
5937.00,0.8651
5936.00,0.8526
5935.00,0.8404
5934.00,0.8284
5933.00,0.8168
5932.00,0.8057
5931.00,0.7949
5930.00,0.7846
5929.00,0.7746
5928.00,0.7650
5927.00,0.7558
5926.00,0.7470
5925.00,0.7387
5924.00,0.7310
5923.00,0.7239
5922.00,0.7176
5921.00,0.7118
5920.00,0.7067
5919.00,0.7022
5918.00,0.6984
5917.00,0.6954
5916.00,0.6929
5915.00,0.6913
5914.00,0.6904
5913.00,0.6904
5912.00,0.6911
5911.00,0.6925
5910.00,0.6945
5909.00,0.6973
5908.00,0.7007
5907.00,0.7047
5906.00,0.7094
5905.00,0.7146
5904.00,0.7204
5903.00,0.7268
5902.00,0.7337
5901.00,0.7412
5900.00,0.7490
5899.00,0.7573
5898.00,0.7661
5897.00,0.7752
5896.00,0.7847
5895.00,0.7944
5894.00,0.8044
5893.00,0.8147
5892.00,0.8252
5891.00,0.8361
5890.00,0.8470
5889.00,0.8581
5888.00,0.8692
5887.00,0.8804
5886.00,0.8918
5885.00,0.9033
5884.00,0.9147
5883.00,0.9260
5882.00,0.9374
5881.00,0.9486
5880.00,0.9598
5879.00,0.9707
5878.00,0.9816
5877.00,0.9925
5876.00,1.0032
5875.00,1.0138
5874.00,1.0241
5873.00,1.0344
5872.00,1.0444
5871.00,1.0542
5870.00,1.0636
5869.00,1.0727
5868.00,1.0814
5867.00,1.0897
5866.00,1.0979
5865.00,1.1061
5864.00,1.1143
5863.00,1.1222
5862.00,1.1299
5861.00,1.1374
5860.00,1.1445
5859.00,1.1512
5858.00,1.1574
5857.00,1.1632
5856.00,1.1688
5855.00,1.1741
5854.00,1.1789
5853.00,1.1833
5852.00,1.1872
5851.00,1.1910
5850.00,1.1943
5849.00,1.1973
5848.00,1.1997
5847.00,1.2019
5846.00,1.2039
5845.00,1.2056
5844.00,1.2069
5843.00,1.2077
5842.00,1.2080
5841.00,1.2079
5840.00,1.2075
5839.00,1.2069
5838.00,1.2061
5837.00,1.2052
5836.00,1.2039
5835.00,1.2024
5834.00,1.2002
5833.00,1.1975
5832.00,1.1942
5831.00,1.1905
5830.00,1.1868
5829.00,1.1828
5828.00,1.1784
5827.00,1.1737
5826.00,1.1686
5825.00,1.1633
5824.00,1.1575
5823.00,1.1512
5822.00,1.1447
5821.00,1.1379
5820.00,1.1306
5819.00,1.1227
5818.00,1.1143
5817.00,1.1055
5816.00,1.0963
5815.00,1.0868
5814.00,1.0770
5813.00,1.0669
5812.00,1.0566
5811.00,1.0462
5810.00,1.0356
5809.00,1.0248
5808.00,1.0138
5807.00,1.0024
5806.00,0.9907
5805.00,0.9787
5804.00,0.9664
5803.00,0.9540
5802.00,0.9416
5801.00,0.9294
5800.00,0.9172
5799.00,0.9049
5798.00,0.8927
5797.00,0.8804
5796.00,0.8679
5795.00,0.8554
5794.00,0.8431
5793.00,0.8311
5792.00,0.8194
5791.00,0.8080
5790.00,0.7969
5789.00,0.7861
5788.00,0.7756
5787.00,0.7654
5786.00,0.7556
5785.00,0.7464
5784.00,0.7378
5783.00,0.7297
5782.00,0.7222
5781.00,0.7153
5780.00,0.7091
5779.00,0.7034
5778.00,0.6986
5777.00,0.6945
5776.00,0.6911
5775.00,0.6885
5774.00,0.6866
5773.00,0.6855
5772.00,0.6851
5771.00,0.6855
5770.00,0.6867
5769.00,0.6887
5768.00,0.6915
5767.00,0.6950
5766.00,0.6993
5765.00,0.7043
5764.00,0.7098
5763.00,0.7158
5762.00,0.7224
5761.00,0.7296
5760.00,0.7372
5759.00,0.7453
5758.00,0.7538
5757.00,0.7629
5756.00,0.7724
5755.00,0.7823
5754.00,0.7925
5753.00,0.8031
5752.00,0.8139
5751.00,0.8248
5750.00,0.8358
5749.00,0.8471
5748.00,0.8584
5747.00,0.8699
5746.00,0.8815
5745.00,0.8932
5744.00,0.9049
5743.00,0.9165
5742.00,0.9281
5741.00,0.9396
5740.00,0.9512
5739.00,0.9627
5738.00,0.9741
5737.00,0.9856
5736.00,0.9969
5735.00,1.0081
5734.00,1.0190
5733.00,1.0298
5732.00,1.0405
5731.00,1.0510
5730.00,1.0613
5729.00,1.0714
5728.00,1.0813
5727.00,1.0908
5726.00,1.1000
5725.00,1.1088
5724.00,1.1174
5723.00,1.1257
5722.00,1.1338
5721.00,1.1415
5720.00,1.1488
5719.00,1.1557
5718.00,1.1622
5717.00,1.1684
5716.00,1.1742
5715.00,1.1797
5714.00,1.1850
5713.00,1.1899
5712.00,1.1945
5711.00,1.1988
5710.00,1.2026
5709.00,1.2060
5708.00,1.2090
5707.00,1.2115
5706.00,1.2136
5705.00,1.2154
5704.00,1.2169
5703.00,1.2181
5702.00,1.2191
5701.00,1.2196
5700.00,1.2198
5699.00,1.2195
5698.00,1.2187
5697.00,1.2176
5696.00,1.2159
5695.00,1.2139
5694.00,1.2116
5693.00,1.2088
5692.00,1.2058
5691.00,1.2025
5690.00,1.1988
5689.00,1.1948
5688.00,1.1904
5687.00,1.1857
5686.00,1.1807
5685.00,1.1753
5684.00,1.1694
5683.00,1.1630
5682.00,1.1562
5681.00,1.1488
5680.00,1.1410
5679.00,1.1328
5678.00,1.1244
5677.00,1.1158
5676.00,1.1068
5675.00,1.0973
5674.00,1.0874
5673.00,1.0773
5672.00,1.0669
5671.00,1.0561
5670.00,1.0451
5669.00,1.0336
5668.00,1.0219
5667.00,1.0098
5666.00,0.9975
5665.00,0.9850
5664.00,0.9722
5663.00,0.9594
5662.00,0.9464
5661.00,0.9334
5660.00,0.9201
5659.00,0.9067
5658.00,0.8932
5657.00,0.8798
5656.00,0.8664
5655.00,0.8532
5654.00,0.8401
5653.00,0.8272
5652.00,0.8145
5651.00,0.8020
5650.00,0.7898
5649.00,0.7780
5648.00,0.7665
5647.00,0.7555
5646.00,0.7449
5645.00,0.7346
5644.00,0.7249
5643.00,0.7157
5642.00,0.7073
5641.00,0.6996
5640.00,0.6926
5639.00,0.6862
5638.00,0.6805
5637.00,0.6756
5636.00,0.6713
5635.00,0.6679
5634.00,0.6655
5633.00,0.6640
5632.00,0.6633
5631.00,0.6634
5630.00,0.6642
5629.00,0.6660
5628.00,0.6685
5627.00,0.6717
5626.00,0.6758
5625.00,0.6806
5624.00,0.6860
5623.00,0.6920
5622.00,0.6986
5621.00,0.7058
5620.00,0.7136
5619.00,0.7221
5618.00,0.7311
5617.00,0.7407
5616.00,0.7507
5615.00,0.7611
5614.00,0.7718
5613.00,0.7828
5612.00,0.7940
5611.00,0.8053
5610.00,0.8169
5609.00,0.8288
5608.00,0.8409
5607.00,0.8531
5606.00,0.8655
5605.00,0.8780
5604.00,0.8906
5603.00,0.9031
5602.00,0.9155
5601.00,0.9279
5600.00,0.9402
5599.00,0.9522
5598.00,0.9641
5597.00,0.9759
5596.00,0.9878
5595.00,0.9996
5594.00,1.0114
5593.00,1.0231
5592.00,1.0346
5591.00,1.0460
5590.00,1.0571
5589.00,1.0681
5588.00,1.0787
5587.00,1.0889
5586.00,1.0988
5585.00,1.1084
5584.00,1.1178
5583.00,1.1269
5582.00,1.1358
5581.00,1.1443
5580.00,1.1526
5579.00,1.1604
5578.00,1.1677
5577.00,1.1745
5576.00,1.1809
5575.00,1.1870
5574.00,1.1928
5573.00,1.1983
5572.00,1.2036
5571.00,1.2086
5570.00,1.2131
5569.00,1.2171
5568.00,1.2207
5567.00,1.2240
5566.00,1.2271
5565.00,1.2302
5564.00,1.2329
5563.00,1.2350
5562.00,1.2364
5561.00,1.2370
5560.00,1.2371
5559.00,1.2370
5558.00,1.2366
5557.00,1.2361
5556.00,1.2353
5555.00,1.2342
5554.00,1.2326
5553.00,1.2304
5552.00,1.2276
5551.00,1.2244
5550.00,1.2207
5549.00,1.2167
5548.00,1.2126
5547.00,1.2083
5546.00,1.2038
5545.00,1.1990
5544.00,1.1939
5543.00,1.1882
5542.00,1.1818
5541.00,1.1749
5540.00,1.1674
5539.00,1.1595
5538.00,1.1512
5537.00,1.1425
5536.00,1.1335
5535.00,1.1241
5534.00,1.1144
5533.00,1.1045
5532.00,1.0943
5531.00,1.0838
5530.00,1.0730
5529.00,1.0620
5528.00,1.0505
5527.00,1.0385
5526.00,1.0262
5525.00,1.0136
5524.00,1.0009
5523.00,0.9879
5522.00,0.9746
5521.00,0.9610
5520.00,0.9471
5519.00,0.9330
5518.00,0.9188
5517.00,0.9049
5516.00,0.8911
5515.00,0.8775
5514.00,0.8641
5513.00,0.8507
5512.00,0.8375
5511.00,0.8244
5510.00,0.8116
5509.00,0.7992
5508.00,0.7871
5507.00,0.7753
5506.00,0.7640
5505.00,0.7531
5504.00,0.7427
5503.00,0.7331
5502.00,0.7242
5501.00,0.7160
5500.00,0.7085
5499.00,0.7017
5498.00,0.6956
5497.00,0.6902
5496.00,0.6855
5495.00,0.6816
5494.00,0.6786
5493.00,0.6766
5492.00,0.6755
5491.00,0.6752
5490.00,0.6758
5489.00,0.6774
5488.00,0.6799
5487.00,0.6832
5486.00,0.6872
5485.00,0.6920
5484.00,0.6973
5483.00,0.7033
5482.00,0.7101
5481.00,0.7175
5480.00,0.7254
5479.00,0.7339
5478.00,0.7430
5477.00,0.7527
5476.00,0.7631
5475.00,0.7742
5474.00,0.7857
5473.00,0.7975
5472.00,0.8093
5471.00,0.8211
5470.00,0.8333
5469.00,0.8456
5468.00,0.8580
5467.00,0.8705
5466.00,0.8831
5465.00,0.8959
5464.00,0.9087
5463.00,0.9215
5462.00,0.9344
5461.00,0.9475
5460.00,0.9607
5459.00,0.9739
5458.00,0.9870
5457.00,1.0000
5456.00,1.0126
5455.00,1.0250
5454.00,1.0369
5453.00,1.0483
5452.00,1.0594
5451.00,1.0707
5450.00,1.0820
5449.00,1.0933
5448.00,1.1043
5447.00,1.1150
5446.00,1.1254
5445.00,1.1352
5444.00,1.1445
5443.00,1.1535
5442.00,1.1622
5441.00,1.1707
5440.00,1.1790
5439.00,1.1870
5438.00,1.1945
5437.00,1.2017
5436.00,1.2086
5435.00,1.2153
5434.00,1.2216
5433.00,1.2272
5432.00,1.2321
5431.00,1.2365
5430.00,1.2406
5429.00,1.2445
5428.00,1.2481
5427.00,1.2513
5426.00,1.2542
5425.00,1.2569
5424.00,1.2592
5423.00,1.2612
5422.00,1.2625
5421.00,1.2632
5420.00,1.2634
5419.00,1.2633
5418.00,1.2632
5417.00,1.2628
5416.00,1.2618
5415.00,1.2603
5414.00,1.2584
5413.00,1.2561
5412.00,1.2534
5411.00,1.2503
5410.00,1.2468
5409.00,1.2428
5408.00,1.2383
5407.00,1.2333
5406.00,1.2280
5405.00,1.2226
5404.00,1.2172
5403.00,1.2115
5402.00,1.2052
5401.00,1.1984
5400.00,1.1909
5399.00,1.1827
5398.00,1.1741
5397.00,1.1652
5396.00,1.1558
5395.00,1.1460
5394.00,1.1359
5393.00,1.1255
5392.00,1.1148
5391.00,1.1040
5390.00,1.0929
5389.00,1.0816
5388.00,1.0699
5387.00,1.0578
5386.00,1.0451
5385.00,1.0319
5384.00,1.0183
5383.00,1.0045
5382.00,0.9906
5381.00,0.9766
5380.00,0.9626
5379.00,0.9482
5378.00,0.9336
5377.00,0.9187
5376.00,0.9037
5375.00,0.8888
5374.00,0.8740
5373.00,0.8596
5372.00,0.8454
5371.00,0.8315
5370.00,0.8179
5369.00,0.8045
5368.00,0.7914
5367.00,0.7789
5366.00,0.7668
5365.00,0.7553
5364.00,0.7444
5363.00,0.7339
5362.00,0.7242
5361.00,0.7151
5360.00,0.7068
5359.00,0.6993
5358.00,0.6927
5357.00,0.6870
5356.00,0.6819
5355.00,0.6777
5354.00,0.6744
5353.00,0.6720
5352.00,0.6704
5351.00,0.6697
5350.00,0.6698
5349.00,0.6710
5348.00,0.6731
5347.00,0.6760
5346.00,0.6796
5345.00,0.6842
5344.00,0.6899
5343.00,0.6964
5342.00,0.7035
5341.00,0.7110
5340.00,0.7192
5339.00,0.7282
5338.00,0.7379
5337.00,0.7481
5336.00,0.7585
5335.00,0.7691
5334.00,0.7803
5333.00,0.7921
5332.00,0.8043
5331.00,0.8169
5330.00,0.8297
5329.00,0.8428
5328.00,0.8562
5327.00,0.8698
5326.00,0.8836
5325.00,0.8975
5324.00,0.9114
5323.00,0.9252
5322.00,0.9391
5321.00,0.9529
5320.00,0.9665
5319.00,0.9801
5318.00,0.9936
5317.00,1.0071
5316.00,1.0204
5315.00,1.0334
5314.00,1.0462
5313.00,1.0588
5312.00,1.0712
5311.00,1.0834
5310.00,1.0954
5309.00,1.1071
5308.00,1.1184
5307.00,1.1294
5306.00,1.1403
5305.00,1.1510
5304.00,1.1616
5303.00,1.1719
5302.00,1.1817
5301.00,1.1909
5300.00,1.1995
5299.00,1.2076
5298.00,1.2156
5297.00,1.2236
5296.00,1.2315
5295.00,1.2392
5294.00,1.2464
5293.00,1.2528
5292.00,1.2585
5291.00,1.2635
5290.00,1.2682
5289.00,1.2725
5288.00,1.2763
5287.00,1.2798
5286.00,1.2831
5285.00,1.2861
5284.00,1.2887
5283.00,1.2908
5282.00,1.2927
5281.00,1.2942
5280.00,1.2955
5279.00,1.2963
5278.00,1.2967
5277.00,1.2965
5276.00,1.2959
5275.00,1.2949
5274.00,1.2937
5273.00,1.2921
5272.00,1.2902
5271.00,1.2877
5270.00,1.2846
5269.00,1.2810
5268.00,1.2772
5267.00,1.2731
5266.00,1.2686
5265.00,1.2634
5264.00,1.2577
5263.00,1.2517
5262.00,1.2454
5261.00,1.2389
5260.00,1.2323
5259.00,1.2253
5258.00,1.2179
5257.00,1.2099
5256.00,1.2012
5255.00,1.1921
5254.00,1.1828
5253.00,1.1732
5252.00,1.1633
5251.00,1.1528
5250.00,1.1419
5249.00,1.1305
5248.00,1.1186
5247.00,1.1061
5246.00,1.0932
5245.00,1.0801
5244.00,1.0668
5243.00,1.0533
5242.00,1.0396
5241.00,1.0257
5240.00,1.0115
5239.00,0.9971
5238.00,0.9825
5237.00,0.9675
5236.00,0.9523
5235.00,0.9370
5234.00,0.9220
5233.00,0.9071
5232.00,0.8923
5231.00,0.8775
5230.00,0.8628
5229.00,0.8483
5228.00,0.8341
5227.00,0.8204
5226.00,0.8070
5225.00,0.7942
5224.00,0.7819
5223.00,0.7701
5222.00,0.7591
5221.00,0.7488
5220.00,0.7393
5219.00,0.7304
5218.00,0.7222
5217.00,0.7147
5216.00,0.7081
5215.00,0.7025
5214.00,0.6979
5213.00,0.6943
5212.00,0.6916
5211.00,0.6900
5210.00,0.6894
5209.00,0.6899
5208.00,0.6914
5207.00,0.6940
5206.00,0.6976
5205.00,0.7021
5204.00,0.7075
5203.00,0.7138
5202.00,0.7209
5201.00,0.7290
5200.00,0.7377
5199.00,0.7470
5198.00,0.7569
5197.00,0.7674
5196.00,0.7783
5195.00,0.7895
5194.00,0.8009
5193.00,0.8125
5192.00,0.8242
5191.00,0.8362
5190.00,0.8485
5189.00,0.8610
5188.00,0.8738
5187.00,0.8868
5186.00,0.9001
5185.00,0.9137
5184.00,0.9275
5183.00,0.9414
5182.00,0.9555
5181.00,0.9696
5180.00,0.9838
5179.00,0.9978
5178.00,1.0117
5177.00,1.0255
5176.00,1.0390
5175.00,1.0525
5174.00,1.0658
5173.00,1.0789
5172.00,1.0919
5171.00,1.1047
5170.00,1.1172
5169.00,1.1295
5168.00,1.1413
5167.00,1.1528
5166.00,1.1642
5165.00,1.1754
5164.00,1.1863
5163.00,1.1968
5162.00,1.2069
5161.00,1.2164
5160.00,1.2253
5159.00,1.2340
5158.00,1.2425
5157.00,1.2508
5156.00,1.2587
5155.00,1.2660
5154.00,1.2726
5153.00,1.2786
5152.00,1.2843
5151.00,1.2896
5150.00,1.2947
5149.00,1.2996
5148.00,1.3040
5147.00,1.3080
5146.00,1.3114
5145.00,1.3145
5144.00,1.3172
5143.00,1.3196
5142.00,1.3217
5141.00,1.3232
5140.00,1.3243
5139.00,1.3248
5138.00,1.3250
5137.00,1.3250
5136.00,1.3247
5135.00,1.3241
5134.00,1.3230
5133.00,1.3212
5132.00,1.3188
5131.00,1.3160
5130.00,1.3129
5129.00,1.3095
5128.00,1.3058
5127.00,1.3017
5126.00,1.2972
5125.00,1.2921
5124.00,1.2865
5123.00,1.2805
5122.00,1.2742
5121.00,1.2675
5120.00,1.2605
5119.00,1.2531
5118.00,1.2453
5117.00,1.2370
5116.00,1.2280
5115.00,1.2183
5114.00,1.2083
5113.00,1.1980
5112.00,1.1873
5111.00,1.1762
5110.00,1.1647
5109.00,1.1527
5108.00,1.1401
5107.00,1.1270
5106.00,1.1135
5105.00,1.0999
5104.00,1.0860
5103.00,1.0717
5102.00,1.0571
5101.00,1.0421
5100.00,1.0269
5099.00,1.0115
5098.00,0.9960
5097.00,0.9803
5096.00,0.9644
5095.00,0.9483
5094.00,0.9322
5093.00,0.9162
5092.00,0.9002
5091.00,0.8845
5090.00,0.8689
5089.00,0.8536
5088.00,0.8386
5087.00,0.8239
5086.00,0.8096
5085.00,0.7959
5084.00,0.7827
5083.00,0.7702
5082.00,0.7584
5081.00,0.7473
5080.00,0.7370
5079.00,0.7275
5078.00,0.7189
5077.00,0.7110
5076.00,0.7040
5075.00,0.6979
5074.00,0.6928
5073.00,0.6887
5072.00,0.6857
5071.00,0.6836
5070.00,0.6826
5069.00,0.6826
5068.00,0.6835
5067.00,0.6855
5066.00,0.6886
5065.00,0.6927
5064.00,0.6977
5063.00,0.7037
5062.00,0.7106
5061.00,0.7184
5060.00,0.7269
5059.00,0.7362
5058.00,0.7463
5057.00,0.7570
5056.00,0.7683
5055.00,0.7800
5054.00,0.7923
5053.00,0.8050
5052.00,0.8182
5051.00,0.8318
5050.00,0.8457
5049.00,0.8599
5048.00,0.8744
5047.00,0.8890
5046.00,0.9038
5045.00,0.9187
5044.00,0.9338
5043.00,0.9489
5042.00,0.9641
5041.00,0.9792
5040.00,0.9942
5039.00,1.0090
5038.00,1.0238
5037.00,1.0385
5036.00,1.0530
5035.00,1.0675
5034.00,1.0818
5033.00,1.0958
5032.00,1.1096
5031.00,1.1230
5030.00,1.1361
5029.00,1.1490
5028.00,1.1615
5027.00,1.1738
5026.00,1.1860
5025.00,1.1980
5024.00,1.2095
5023.00,1.2205
5022.00,1.2308
5021.00,1.2406
5020.00,1.2501
5019.00,1.2593
5018.00,1.2684
5017.00,1.2771
5016.00,1.2856
5015.00,1.2936
5014.00,1.3013
5013.00,1.3085
5012.00,1.3152
5011.00,1.3213
5010.00,1.3267
5009.00,1.3318
5008.00,1.3365
5007.00,1.3410
5006.00,1.3451
5005.00,1.3486
5004.00,1.3515
5003.00,1.3541
5002.00,1.3564
5001.00,1.3586
5000.00,1.3605
4999.00,1.3620
4998.00,1.3631
4997.00,1.3635
4996.00,1.3634
4995.00,1.3627
4994.00,1.3615
4993.00,1.3598
4992.00,1.3576
4991.00,1.3552
4990.00,1.3523
4989.00,1.3491
4988.00,1.3456
4987.00,1.3418
4986.00,1.3377
4985.00,1.3332
4984.00,1.3283
4983.00,1.3228
4982.00,1.3168
4981.00,1.3103
4980.00,1.3034
4979.00,1.2962
4978.00,1.2887
4977.00,1.2808
4976.00,1.2723
4975.00,1.2632
4974.00,1.2536
4973.00,1.2433
4972.00,1.2326
4971.00,1.2216
4970.00,1.2102
4969.00,1.1984
4968.00,1.1862
4967.00,1.1735
4966.00,1.1603
4965.00,1.1468
4964.00,1.1329
4963.00,1.1186
4962.00,1.1040
4961.00,1.0890
4960.00,1.0736
4959.00,1.0579
4958.00,1.0418
4957.00,1.0255
4956.00,1.0090
4955.00,0.9924
4954.00,0.9757
4953.00,0.9590
4952.00,0.9423
4951.00,0.9255
4950.00,0.9088
4949.00,0.8923
4948.00,0.8761
4947.00,0.8601
4946.00,0.8445
4945.00,0.8292
4944.00,0.8145
4943.00,0.8003
4942.00,0.7868
4941.00,0.7741
4940.00,0.7621
4939.00,0.7510
4938.00,0.7406
4937.00,0.7311
4936.00,0.7226
4935.00,0.7150
4934.00,0.7085
4933.00,0.7031
4932.00,0.6987
4931.00,0.6955
4930.00,0.6935
4929.00,0.6927
4928.00,0.6931
4927.00,0.6946
4926.00,0.6972
4925.00,0.7009
4924.00,0.7057
4923.00,0.7115
4922.00,0.7183
4921.00,0.7260
4920.00,0.7345
4919.00,0.7440
4918.00,0.7542
4917.00,0.7652
4916.00,0.7769
4915.00,0.7893
4914.00,0.8022
4913.00,0.8156
4912.00,0.8295
4911.00,0.8438
4910.00,0.8584
4909.00,0.8733
4908.00,0.8884
4907.00,0.9038
4906.00,0.9194
4905.00,0.9350
4904.00,0.9507
4903.00,0.9665
4902.00,0.9823
4901.00,0.9981
4900.00,1.0139
4899.00,1.0296
4898.00,1.0452
4897.00,1.0608
4896.00,1.0761
4895.00,1.0913
4894.00,1.1062
4893.00,1.1208
4892.00,1.1350
4891.00,1.1489
4890.00,1.1626
4889.00,1.1761
4888.00,1.1893
4887.00,1.2022
4886.00,1.2147
4885.00,1.2268
4884.00,1.2386
4883.00,1.2501
4882.00,1.2613
4881.00,1.2723
4880.00,1.2827
4879.00,1.2925
4878.00,1.3018
4877.00,1.3105
4876.00,1.3188
4875.00,1.3266
4874.00,1.3341
4873.00,1.3411
4872.00,1.3476
4871.00,1.3537
4870.00,1.3593
4869.00,1.3647
4868.00,1.3696
4867.00,1.3740
4866.00,1.3778
4865.00,1.3813
4864.00,1.3846
4863.00,1.3877
4862.00,1.3906
4861.00,1.3930
4860.00,1.3947
4859.00,1.3956
4858.00,1.3957
4857.00,1.3954
4856.00,1.3948
4855.00,1.3940
4854.00,1.3930
4853.00,1.3917
4852.00,1.3901
4851.00,1.3881
4850.00,1.3856
4849.00,1.3827
4848.00,1.3792
4847.00,1.3752
4846.00,1.3707
4845.00,1.3657
4844.00,1.3602
4843.00,1.3544
4842.00,1.3482
4841.00,1.3417
4840.00,1.3348
4839.00,1.3276
4838.00,1.3199
4837.00,1.3117
4836.00,1.3029
4835.00,1.2935
4834.00,1.2836
4833.00,1.2732
4832.00,1.2624
4831.00,1.2513
4830.00,1.2398
4829.00,1.2280
4828.00,1.2156
4827.00,1.2027
4826.00,1.1894
4825.00,1.1756
4824.00,1.1614
4823.00,1.1466
4822.00,1.1314
4821.00,1.1159
4820.00,1.0999
4819.00,1.0837
4818.00,1.0672
4817.00,1.0504
4816.00,1.0333
4815.00,1.0159
4814.00,0.9983
4813.00,0.9805
4812.00,0.9627
4811.00,0.9450
4810.00,0.9273
4809.00,0.9099
4808.00,0.8926
4807.00,0.8757
4806.00,0.8590
4805.00,0.8428
4804.00,0.8271
4803.00,0.8119
4802.00,0.7975
4801.00,0.7837
4800.00,0.7707
4799.00,0.7584
4798.00,0.7471
4797.00,0.7367
4796.00,0.7274
4795.00,0.7191
4794.00,0.7120
4793.00,0.7061
4792.00,0.7013
4791.00,0.6976
4790.00,0.6952
4789.00,0.6941
4788.00,0.6941
4787.00,0.6954
4786.00,0.6980
4785.00,0.7017
4784.00,0.7066
4783.00,0.7125
4782.00,0.7196
4781.00,0.7278
4780.00,0.7370
4779.00,0.7470
4778.00,0.7579
4777.00,0.7697
4776.00,0.7821
4775.00,0.7952
4774.00,0.8089
4773.00,0.8230
4772.00,0.8377
4771.00,0.8527
4770.00,0.8680
4769.00,0.8836
4768.00,0.8995
4767.00,0.9157
4766.00,0.9322
4765.00,0.9489
4764.00,0.9657
4763.00,0.9825
4762.00,0.9992
4761.00,1.0159
4760.00,1.0324
4759.00,1.0489
4758.00,1.0652
4757.00,1.0815
4756.00,1.0975
4755.00,1.1134
4754.00,1.1292
4753.00,1.1447
4752.00,1.1600
4751.00,1.1750
4750.00,1.1897
4749.00,1.2041
4748.00,1.2181
4747.00,1.2317
4746.00,1.2449
4745.00,1.2575
4744.00,1.2696
4743.00,1.2813
4742.00,1.2928
4741.00,1.3040
4740.00,1.3149
4739.00,1.3255
4738.00,1.3354
4737.00,1.3448
4736.00,1.3535
4735.00,1.3619
4734.00,1.3698
4733.00,1.3774
4732.00,1.3846
4731.00,1.3914
4730.00,1.3976
4729.00,1.4032
4728.00,1.4084
4727.00,1.4132
4726.00,1.4176
4725.00,1.4217
4724.00,1.4253
4723.00,1.4284
4722.00,1.4311
4721.00,1.4334
4720.00,1.4353
4719.00,1.4369
4718.00,1.4380
4717.00,1.4386
4716.00,1.4387
4715.00,1.4384
4714.00,1.4375
4713.00,1.4362
4712.00,1.4345
4711.00,1.4325
4710.00,1.4303
4709.00,1.4278
4708.00,1.4247
4707.00,1.4212
4706.00,1.4170
4705.00,1.4125
4704.00,1.4075
4703.00,1.4021
4702.00,1.3962
4701.00,1.3896
4700.00,1.3826
4699.00,1.3754
4698.00,1.3680
4697.00,1.3601
4696.00,1.3516
4695.00,1.3424
4694.00,1.3328
4693.00,1.3227
4692.00,1.3123
4691.00,1.3014
4690.00,1.2898
4689.00,1.2778
4688.00,1.2653
4687.00,1.2523
4686.00,1.2390
4685.00,1.2250
4684.00,1.2104
4683.00,1.1953
4682.00,1.1797
4681.00,1.1637
4680.00,1.1473
4679.00,1.1305
4678.00,1.1134
4677.00,1.0960
4676.00,1.0782
4675.00,1.0601
4674.00,1.0417
4673.00,1.0231
4672.00,1.0044
4671.00,0.9857
4670.00,0.9670
4669.00,0.9484
4668.00,0.9299
4667.00,0.9115
4666.00,0.8934
4665.00,0.8757
4664.00,0.8584
4663.00,0.8418
4662.00,0.8258
4661.00,0.8104
4660.00,0.7959
4659.00,0.7821
4658.00,0.7694
4657.00,0.7577
4656.00,0.7472
4655.00,0.7377
4654.00,0.7294
4653.00,0.7222
4652.00,0.7164
4651.00,0.7118
4650.00,0.7085
4649.00,0.7066
4648.00,0.7060
4647.00,0.7068
4646.00,0.7090
4645.00,0.7127
4644.00,0.7176
4643.00,0.7237
4642.00,0.7310
4641.00,0.7395
4640.00,0.7491
4639.00,0.7596
4638.00,0.7710
4637.00,0.7833
4636.00,0.7963
4635.00,0.8101
4634.00,0.8247
4633.00,0.8398
4632.00,0.8554
4631.00,0.8714
4630.00,0.8877
4629.00,0.9043
4628.00,0.9212
4627.00,0.9383
4626.00,0.9556
4625.00,0.9731
4624.00,0.9907
4623.00,1.0083
4622.00,1.0260
4621.00,1.0436
4620.00,1.0612
4619.00,1.0788
4618.00,1.0961
4617.00,1.1131
4616.00,1.1299
4615.00,1.1463
4614.00,1.1626
4613.00,1.1787
4612.00,1.1946
4611.00,1.2101
4610.00,1.2254
4609.00,1.2404
4608.00,1.2550
4607.00,1.2693
4606.00,1.2830
4605.00,1.2962
4604.00,1.3089
4603.00,1.3212
4602.00,1.3331
4601.00,1.3445
4600.00,1.3553
4599.00,1.3655
4598.00,1.3751
4597.00,1.3843
4596.00,1.3933
4595.00,1.4019
4594.00,1.4101
4593.00,1.4180
4592.00,1.4254
4591.00,1.4326
4590.00,1.4393
4589.00,1.4456
4588.00,1.4512
4587.00,1.4562
4586.00,1.4607
4585.00,1.4648
4584.00,1.4686
4583.00,1.4719
4582.00,1.4747
4581.00,1.4768
4580.00,1.4785
4579.00,1.4797
4578.00,1.4806
4577.00,1.4811
4576.00,1.4812
4575.00,1.4809
4574.00,1.4799
4573.00,1.4783
4572.00,1.4762
4571.00,1.4738
4570.00,1.4712
4569.00,1.4686
4568.00,1.4657
4567.00,1.4624
4566.00,1.4586
4565.00,1.4540
4564.00,1.4488
4563.00,1.4428
4562.00,1.4363
4561.00,1.4292
4560.00,1.4217
4559.00,1.4138
4558.00,1.4056
4557.00,1.3969
4556.00,1.3878
4555.00,1.3784
4554.00,1.3685
4553.00,1.3580
4552.00,1.3471
4551.00,1.3356
4550.00,1.3235
4549.00,1.3110
4548.00,1.2980
4547.00,1.2845
4546.00,1.2707
4545.00,1.2564
4544.00,1.2419
4543.00,1.2269
4542.00,1.2114
4541.00,1.1954
4540.00,1.1788
4539.00,1.1619
4538.00,1.1445
4537.00,1.1269
4536.00,1.1088
4535.00,1.0904
4534.00,1.0716
4533.00,1.0526
4532.00,1.0334
4531.00,1.0140
4530.00,0.9945
4529.00,0.9750
4528.00,0.9556
4527.00,0.9365
4526.00,0.9176
4525.00,0.8991
4524.00,0.8812
4523.00,0.8637
4522.00,0.8470
4521.00,0.8310
4520.00,0.8159
4519.00,0.8017
4518.00,0.7885
4517.00,0.7763
4516.00,0.7654
4515.00,0.7556
4514.00,0.7472
4513.00,0.7402
4512.00,0.7346
4511.00,0.7304
4510.00,0.7277
4509.00,0.7266
4508.00,0.7269
4507.00,0.7287
4506.00,0.7320
4505.00,0.7367
4504.00,0.7428
4503.00,0.7503
4502.00,0.7589
4501.00,0.7688
4500.00,0.7797
4499.00,0.7917
4498.00,0.8047
4497.00,0.8186
4496.00,0.8332
4495.00,0.8486
4494.00,0.8645
4493.00,0.8810
4492.00,0.8979
4491.00,0.9153
4490.00,0.9330
4489.00,0.9511
4488.00,0.9694
4487.00,0.9878
4486.00,1.0063
4485.00,1.0246
4484.00,1.0429
4483.00,1.0611
4482.00,1.0793
4481.00,1.0973
4480.00,1.1151
4479.00,1.1327
4478.00,1.1500
4477.00,1.1671
4476.00,1.1839
4475.00,1.2005
4474.00,1.2168
4473.00,1.2330
4472.00,1.2487
4471.00,1.2641
4470.00,1.2791
4469.00,1.2938
4468.00,1.3082
4467.00,1.3223
4466.00,1.3362
4465.00,1.3497
4464.00,1.3629
4463.00,1.3758
4462.00,1.3882
4461.00,1.4002
4460.00,1.4117
4459.00,1.4227
4458.00,1.4332
4457.00,1.4431
4456.00,1.4526
4455.00,1.4618
4454.00,1.4706
4453.00,1.4790
4452.00,1.4869
4451.00,1.4941
4450.00,1.5005
4449.00,1.5064
4448.00,1.5119
4447.00,1.5172
4446.00,1.5223
4445.00,1.5269
4444.00,1.5310
4443.00,1.5346
4442.00,1.5377
4441.00,1.5405
4440.00,1.5429
4439.00,1.5448
4438.00,1.5463
4437.00,1.5472
4436.00,1.5477
4435.00,1.5480
4434.00,1.5479
4433.00,1.5471
4432.00,1.5455
4431.00,1.5432
4430.00,1.5405
4429.00,1.5375
4428.00,1.5343
4427.00,1.5305
4426.00,1.5262
4425.00,1.5214
4424.00,1.5162
4423.00,1.5107
4422.00,1.5048
4421.00,1.4983
4420.00,1.4913
4419.00,1.4839
4418.00,1.4761
4417.00,1.4680
4416.00,1.4595
4415.00,1.4506
4414.00,1.4413
4413.00,1.4314
4412.00,1.4212
4411.00,1.4104
4410.00,1.3992
4409.00,1.3875
4408.00,1.3755
4407.00,1.3632
4406.00,1.3506
4405.00,1.3378
4404.00,1.3246
4403.00,1.3113
4402.00,1.2977
4401.00,1.2839
4400.00,1.2698
4399.00,1.2553
4398.00,1.2404
4397.00,1.2250
4396.00,1.2092
4395.00,1.1929
4394.00,1.1763
4393.00,1.1592
4392.00,1.1418
4391.00,1.1241
4390.00,1.1060
4389.00,1.0876
4388.00,1.0691
4387.00,1.0508
4386.00,1.0328
4385.00,1.0153
4384.00,0.9982
4383.00,0.9817
4382.00,0.9658
4381.00,0.9508
4380.00,0.9368
4379.00,0.9239
4378.00,0.9122
4377.00,0.9018
4376.00,0.8927
4375.00,0.8848
4374.00,0.8782
4373.00,0.8729
4372.00,0.8687
4371.00,0.8655
4370.00,0.8634
4369.00,0.8620
4368.00,0.8613
4367.00,0.8613
4366.00,0.8617
4365.00,0.8626
4364.00,0.8639
4363.00,0.8656
4362.00,0.8676
4361.00,0.8701
4360.00,0.8731
4359.00,0.8767
4358.00,0.8810
4357.00,0.8863
4356.00,0.8925
4355.00,0.8997
4354.00,0.9079
4353.00,0.9172
4352.00,0.9274
4351.00,0.9388
4350.00,0.9510
4349.00,0.9642
4348.00,0.9782
4347.00,0.9930
4346.00,1.0084
4345.00,1.0244
4344.00,1.0407
4343.00,1.0575
4342.00,1.0745
4341.00,1.0919
4340.00,1.1094
4339.00,1.1273
4338.00,1.1452
4337.00,1.1631
4336.00,1.1808
4335.00,1.1985
4334.00,1.2162
4333.00,1.2339
4332.00,1.2515
4331.00,1.2688
4330.00,1.2857
4329.00,1.3022
4328.00,1.3184
4327.00,1.3343
4326.00,1.3498
4325.00,1.3649
4324.00,1.3794
4323.00,1.3934
4322.00,1.4067
4321.00,1.4195
4320.00,1.4316
4319.00,1.4432
4318.00,1.4542
4317.00,1.4647
4316.00,1.4746
4315.00,1.4839
4314.00,1.4929
4313.00,1.5015
4312.00,1.5097
4311.00,1.5174
4310.00,1.5246
4309.00,1.5313
4308.00,1.5377
4307.00,1.5437
4306.00,1.5492
4305.00,1.5542
4304.00,1.5586
4303.00,1.5627
4302.00,1.5667
4301.00,1.5705
4300.00,1.5739
4299.00,1.5767
4298.00,1.5787
4297.00,1.5803
4296.00,1.5814
4295.00,1.5821
4294.00,1.5824
4293.00,1.5821
4292.00,1.5813
4291.00,1.5800
4290.00,1.5784
4289.00,1.5764
4288.00,1.5742
4287.00,1.5717
4286.00,1.5688
4285.00,1.5655
4284.00,1.5616
4283.00,1.5570
4282.00,1.5517
4281.00,1.5460
4280.00,1.5398
4279.00,1.5334
4278.00,1.5266
4277.00,1.5194
4276.00,1.5116
4275.00,1.5032
4274.00,1.4943
4273.00,1.4850
4272.00,1.4752
4271.00,1.4650
4270.00,1.4541
4269.00,1.4424
4268.00,1.4300
4267.00,1.4170
4266.00,1.4036
4265.00,1.3897
4264.00,1.3752
4263.00,1.3600
4262.00,1.3443
4261.00,1.3281
4260.00,1.3114
4259.00,1.2940
4258.00,1.2760
4257.00,1.2573
4256.00,1.2381
4255.00,1.2183
4254.00,1.1981
4253.00,1.1773
4252.00,1.1561
4251.00,1.1345
4250.00,1.1126
4249.00,1.0903
4248.00,1.0679
4247.00,1.0453
4246.00,1.0228
4245.00,1.0004
4244.00,0.9781
4243.00,0.9562
4242.00,0.9347
4241.00,0.9137
4240.00,0.8936
4239.00,0.8744
4238.00,0.8561
4237.00,0.8387
4236.00,0.8225
4235.00,0.8075
4234.00,0.7938
4233.00,0.7816
4232.00,0.7709
4231.00,0.7617
4230.00,0.7543
4229.00,0.7485
4228.00,0.7445
4227.00,0.7422
4226.00,0.7417
4225.00,0.7430
4224.00,0.7460
4223.00,0.7506
4222.00,0.7569
4221.00,0.7648
4220.00,0.7742
4219.00,0.7850
4218.00,0.7973
4217.00,0.8108
4216.00,0.8254
4215.00,0.8411
4214.00,0.8576
4213.00,0.8749
4212.00,0.8928
4211.00,0.9114
4210.00,0.9304
4209.00,0.9500
4208.00,0.9699
4207.00,0.9900
4206.00,1.0104
4205.00,1.0310
4204.00,1.0518
4203.00,1.0726
4202.00,1.0936
4201.00,1.1144
4200.00,1.1351
4199.00,1.1556
4198.00,1.1759
4197.00,1.1961
4196.00,1.2160
4195.00,1.2356
4194.00,1.2550
4193.00,1.2740
4192.00,1.2927
4191.00,1.3111
4190.00,1.3290
4189.00,1.3465
4188.00,1.3636
4187.00,1.3801
4186.00,1.3962
4185.00,1.4118
4184.00,1.4269
4183.00,1.4415
4182.00,1.4555
4181.00,1.4687
4180.00,1.4812
4179.00,1.4933
4178.00,1.5051
4177.00,1.5164
4176.00,1.5271
4175.00,1.5370
4174.00,1.5462
4173.00,1.5551
4172.00,1.5637
4171.00,1.5719
4170.00,1.5794
4169.00,1.5861
4168.00,1.5923
4167.00,1.5982
4166.00,1.6040
4165.00,1.6094
4164.00,1.6143
4163.00,1.6187
4162.00,1.6225
4161.00,1.6259
4160.00,1.6287
4159.00,1.6308
4158.00,1.6322
4157.00,1.6334
4156.00,1.6346
4155.00,1.6358
4154.00,1.6365
4153.00,1.6365
4152.00,1.6358
4151.00,1.6345
4150.00,1.6328
4149.00,1.6306
4148.00,1.6281
4147.00,1.6254
4146.00,1.6223
4145.00,1.6188
4144.00,1.6148
4143.00,1.6101
4142.00,1.6048
4141.00,1.5990
4140.00,1.5929
4139.00,1.5865
4138.00,1.5794
4137.00,1.5718
4136.00,1.5636
4135.00,1.5549
4134.00,1.5459
4133.00,1.5365
4132.00,1.5267
4131.00,1.5165
4130.00,1.5057
4129.00,1.4943
4128.00,1.4820
4127.00,1.4688
4126.00,1.4548
4125.00,1.4403
4124.00,1.4254
4123.00,1.4102
4122.00,1.3945
4121.00,1.3781
4120.00,1.3609
4119.00,1.3427
4118.00,1.3237
4117.00,1.3041
4116.00,1.2841
4115.00,1.2636
4114.00,1.2426
4113.00,1.2212
4112.00,1.1992
4111.00,1.1768
4110.00,1.1540
4109.00,1.1309
4108.00,1.1075
4107.00,1.0840
4106.00,1.0604
4105.00,1.0370
4104.00,1.0139
4103.00,0.9911
4102.00,0.9689
4101.00,0.9472
4100.00,0.9261
4099.00,0.9058
4098.00,0.8865
4097.00,0.8682
4096.00,0.8512
4095.00,0.8356
4094.00,0.8213
4093.00,0.8086
4092.00,0.7975
4091.00,0.7882
4090.00,0.7808
4089.00,0.7753
4088.00,0.7718
4087.00,0.7702
4086.00,0.7707
4085.00,0.7731
4084.00,0.7774
4083.00,0.7836
4082.00,0.7915
4081.00,0.8011
4080.00,0.8122
4079.00,0.8248
4078.00,0.8387
4077.00,0.8537
4076.00,0.8699
4075.00,0.8870
4074.00,0.9049
4073.00,0.9236
4072.00,0.9429
4071.00,0.9628
4070.00,0.9830
4069.00,1.0037
4068.00,1.0248
4067.00,1.0461
4066.00,1.0678
4065.00,1.0895
4064.00,1.1113
4063.00,1.1329
4062.00,1.1545
4061.00,1.1759
4060.00,1.1973
4059.00,1.2186
4058.00,1.2397
4057.00,1.2606
4056.00,1.2812
4055.00,1.3014
4054.00,1.3213
4053.00,1.3410
4052.00,1.3603
4051.00,1.3794
4050.00,1.3980
4049.00,1.4160
4048.00,1.4335
4047.00,1.4503
4046.00,1.4666
4045.00,1.4823
4044.00,1.4974
4043.00,1.5118
4042.00,1.5257
4041.00,1.5390
4040.00,1.5518
4039.00,1.5640
4038.00,1.5759
4037.00,1.5873
4036.00,1.5980
4035.00,1.6079
4034.00,1.6170
4033.00,1.6253
4032.00,1.6331
4031.00,1.6406
4030.00,1.6479
4029.00,1.6548
4028.00,1.6612
4027.00,1.6668
4026.00,1.6719
4025.00,1.6765
4024.00,1.6806
4023.00,1.6844
4022.00,1.6878
4021.00,1.6908
4020.00,1.6935
4019.00,1.6957
4018.00,1.6975
4017.00,1.6989
4016.00,1.7000
4015.00,1.7007
4014.00,1.7007
4013.00,1.7000
4012.00,1.6988
4011.00,1.6974
4010.00,1.6958
4009.00,1.6938
4008.00,1.6914
4007.00,1.6887
4006.00,1.6855
4005.00,1.6819
4004.00,1.6776
4003.00,1.6725
4002.00,1.6667
4001.00,1.6606
4000.00,1.6542
3999.00,1.6476
3998.00,1.6405
3997.00,1.6330
3996.00,1.6251
3995.00,1.6167
3994.00,1.6076
3993.00,1.5978
3992.00,1.5874
3991.00,1.5765
3990.00,1.5651
3989.00,1.5533
3988.00,1.5409
3987.00,1.5279
3986.00,1.5145
3985.00,1.5007
3984.00,1.4864
3983.00,1.4715
3982.00,1.4559
3981.00,1.4397
3980.00,1.4231
3979.00,1.4061
3978.00,1.3887
3977.00,1.3708
3976.00,1.3522
3975.00,1.3329
3974.00,1.3130
3973.00,1.2924
3972.00,1.2714
3971.00,1.2497
3970.00,1.2274
3969.00,1.2042
3968.00,1.1804
3967.00,1.1560
3966.00,1.1314
3965.00,1.1067
3964.00,1.0819
3963.00,1.0570
3962.00,1.0322
3961.00,1.0077
3960.00,0.9837
3959.00,0.9605
3958.00,0.9382
3957.00,0.9171
3956.00,0.8971
3955.00,0.8784
3954.00,0.8612
3953.00,0.8454
3952.00,0.8314
3951.00,0.8192
3950.00,0.8087
3949.00,0.8000
3948.00,0.7932
3947.00,0.7885
3946.00,0.7861
3945.00,0.7861
3944.00,0.7884
3943.00,0.7929
3942.00,0.7993
3941.00,0.8077
3940.00,0.8179
3939.00,0.8299
3938.00,0.8435
3937.00,0.8586
3936.00,0.8750
3935.00,0.8925
3934.00,0.9110
3933.00,0.9304
3932.00,0.9508
3931.00,0.9721
3930.00,0.9939
3929.00,1.0160
3928.00,1.0384
3927.00,1.0609
3926.00,1.0836
3925.00,1.1069
3924.00,1.1305
3923.00,1.1541
3922.00,1.1774
3921.00,1.2003
3920.00,1.2230
3919.00,1.2457
3918.00,1.2684
3917.00,1.2912
3916.00,1.3139
3915.00,1.3363
3914.00,1.3583
3913.00,1.3794
3912.00,1.3998
3911.00,1.4194
3910.00,1.4385
3909.00,1.4570
3908.00,1.4748
3907.00,1.4917
3906.00,1.5080
3905.00,1.5238
3904.00,1.5394
3903.00,1.5549
3902.00,1.5700
3901.00,1.5845
3900.00,1.5981
3899.00,1.6111
3898.00,1.6236
3897.00,1.6356
3896.00,1.6470
3895.00,1.6576
3894.00,1.6672
3893.00,1.6760
3892.00,1.6843
3891.00,1.6925
3890.00,1.7005
3889.00,1.7082
3888.00,1.7151
3887.00,1.7212
3886.00,1.7267
3885.00,1.7321
3884.00,1.7372
3883.00,1.7417
3882.00,1.7452
3881.00,1.7481
3880.00,1.7507
3879.00,1.7533
3878.00,1.7556
3877.00,1.7575
3876.00,1.7587
3875.00,1.7592
3874.00,1.7591
3873.00,1.7588
3872.00,1.7580
3871.00,1.7568
3870.00,1.7553
3869.00,1.7535
3868.00,1.7518
3867.00,1.7495
3866.00,1.7463
3865.00,1.7420
3864.00,1.7371
3863.00,1.7322
3862.00,1.7273
3861.00,1.7222
3860.00,1.7166
3859.00,1.7107
3858.00,1.7046
3857.00,1.6980
3856.00,1.6909
3855.00,1.6827
3854.00,1.6729
3853.00,1.6618
3852.00,1.6502
3851.00,1.6388
3850.00,1.6268
3849.00,1.6140
3848.00,1.6008
3847.00,1.5875
3846.00,1.5741
3845.00,1.5601
3844.00,1.5450
3843.00,1.5290
3842.00,1.5123
3841.00,1.4951
3840.00,1.4767
3839.00,1.4569
3838.00,1.4355
3837.00,1.4132
3836.00,1.3908
3835.00,1.3683
3834.00,1.3452
3833.00,1.3210
3832.00,1.2957
3831.00,1.2698
3830.00,1.2438
3829.00,1.2177
3828.00,1.1911
3827.00,1.1637
3826.00,1.1360
3825.00,1.1092
3824.00,1.0832
3823.00,1.0572
3822.00,1.0298
3821.00,1.0013
3820.00,0.9739
3819.00,0.9493
3818.00,0.9267
3817.00,0.9047
3816.00,0.8827
3815.00,0.8620
3814.00,0.8441
3813.00,0.8290
3812.00,0.8159
3811.00,0.8047
3810.00,0.7960
3809.00,0.7902
3808.00,0.7871
3807.00,0.7864
3806.00,0.7877
3805.00,0.7909
3804.00,0.7960
3803.00,0.8033
3802.00,0.8137
3801.00,0.8274
3800.00,0.8435
3799.00,0.8602
3798.00,0.8769
3797.00,0.8945
3796.00,0.9140
3795.00,0.9355
3794.00,0.9583
3793.00,0.9815
3792.00,1.0050
3791.00,1.0289
3790.00,1.0534
3789.00,1.0783
3788.00,1.1035
3787.00,1.1287
3786.00,1.1541
3785.00,1.1798
3784.00,1.2057
3783.00,1.2314
3782.00,1.2564
3781.00,1.2809
3780.00,1.3054
3779.00,1.3304
3778.00,1.3556
3777.00,1.3805
3776.00,1.4045
3775.00,1.4275
3774.00,1.4493
3773.00,1.4701
3772.00,1.4899
3771.00,1.5092
3770.00,1.5285
3769.00,1.5482
3768.00,1.5676
3767.00,1.5861
3766.00,1.6034
3765.00,1.6196
3764.00,1.6350
3763.00,1.6492
3762.00,1.6624
3761.00,1.6749
3760.00,1.6874
3759.00,1.7000
3758.00,1.7123
3757.00,1.7238
3756.00,1.7344
3755.00,1.7438
3754.00,1.7521
3753.00,1.7596
3752.00,1.7669
3751.00,1.7744
3750.00,1.7823
3749.00,1.7903
3748.00,1.7976
3747.00,1.8035
3746.00,1.8077
3745.00,1.8111
3744.00,1.8149
3743.00,1.8195
3742.00,1.8241
3741.00,1.8273
3740.00,1.8284
3739.00,1.8282
3738.00,1.8279
3737.00,1.8279
3736.00,1.8280
3735.00,1.8275
3734.00,1.8261
3733.00,1.8241
3732.00,1.8219
3731.00,1.8203
3730.00,1.8189
3729.00,1.8167
3728.00,1.8128
3727.00,1.8074
3726.00,1.8013
3725.00,1.7952
3724.00,1.7893
3723.00,1.7836
3722.00,1.7780
3721.00,1.7722
3720.00,1.7658
3719.00,1.7583
3718.00,1.7498
3717.00,1.7404
3716.00,1.7304
3715.00,1.7198
3714.00,1.7089
3713.00,1.6976
3712.00,1.6855
3711.00,1.6723
3710.00,1.6580
3709.00,1.6428
3708.00,1.6268
3707.00,1.6102
3706.00,1.5933
3705.00,1.5761
3704.00,1.5581
3703.00,1.5388
3702.00,1.5184
3701.00,1.4972
3700.00,1.4755
3699.00,1.4534
3698.00,1.4308
3697.00,1.4075
3696.00,1.3838
3695.00,1.3599
3694.00,1.3361
3693.00,1.3120
3692.00,1.2876
3691.00,1.2629
3690.00,1.2376
3689.00,1.2116
3688.00,1.1854
3687.00,1.1605
3686.00,1.1377
3685.00,1.1169
3684.00,1.0974
3683.00,1.0793
3682.00,1.0631
3681.00,1.0490
3680.00,1.0369
3679.00,1.0268
3678.00,1.0189
3677.00,1.0128
3676.00,1.0084
3675.00,1.0057
3674.00,1.0050
3673.00,1.0063
3672.00,1.0095
3671.00,1.0149
3670.00,1.0228
3669.00,1.0330
3668.00,1.0446
3667.00,1.0567
3666.00,1.0695
3665.00,1.0833
3664.00,1.0987
3663.00,1.1154
3662.00,1.1331
3661.00,1.1513
3660.00,1.1698
3659.00,1.1884
3658.00,1.2072
3657.00,1.2267
3656.00,1.2472
3655.00,1.2682
3654.00,1.2882
3653.00,1.3067
3652.00,1.3240
3651.00,1.3416
3650.00,1.3607
3649.00,1.3815
3648.00,1.4032
3647.00,1.4246
3646.00,1.4448
3645.00,1.4637
3644.00,1.4816
3643.00,1.4989
3642.00,1.5162
3641.00,1.5336
3640.00,1.5510
3639.00,1.5684
3638.00,1.5856
3637.00,1.6022
3636.00,1.6184
3635.00,1.6342
3634.00,1.6494
3633.00,1.6640
3632.00,1.6777
3631.00,1.6908
3630.00,1.7041
3629.00,1.7187
3628.00,1.7345
3627.00,1.7499
3626.00,1.7635
3625.00,1.7748
3624.00,1.7851
3623.00,1.7952
3622.00,1.8054
3621.00,1.8154
3620.00,1.8249
3619.00,1.8341
3618.00,1.8427
3617.00,1.8507
3616.00,1.8583
3615.00,1.8654
3614.00,1.8719
3613.00,1.8778
3612.00,1.8835
3611.00,1.8897
3610.00,1.8964
3609.00,1.9032
3608.00,1.9093
3607.00,1.9146
3606.00,1.9191
3605.00,1.9228
3604.00,1.9263
3603.00,1.9294
3602.00,1.9322
3601.00,1.9347
3600.00,1.9374
3599.00,1.9400
3598.00,1.9417
3597.00,1.9422
3596.00,1.9418
3595.00,1.9411
3594.00,1.9407
3593.00,1.9405
3592.00,1.9403
3591.00,1.9399
3590.00,1.9390
3589.00,1.9373
3588.00,1.9350
3587.00,1.9322
3586.00,1.9290
3585.00,1.9255
3584.00,1.9219
3583.00,1.9180
3582.00,1.9136
3581.00,1.9086
3580.00,1.9033
3579.00,1.8979
3578.00,1.8923
3577.00,1.8862
3576.00,1.8795
3575.00,1.8721
3574.00,1.8641
3573.00,1.8555
3572.00,1.8465
3571.00,1.8371
3570.00,1.8271
3569.00,1.8163
3568.00,1.8046
3567.00,1.7922
3566.00,1.7792
3565.00,1.7659
3564.00,1.7526
3563.00,1.7397
3562.00,1.7268
3561.00,1.7138
3560.00,1.7002
3559.00,1.6859
3558.00,1.6710
3557.00,1.6558
3556.00,1.6404
3555.00,1.6249
3554.00,1.6087
3553.00,1.5919
3552.00,1.5746
3551.00,1.5572
3550.00,1.5401
3549.00,1.5230
3548.00,1.5057
3547.00,1.4880
3546.00,1.4698
3545.00,1.4513
3544.00,1.4329
3543.00,1.4149
3542.00,1.3973
3541.00,1.3802
3540.00,1.3634
3539.00,1.3467
3538.00,1.3300
3537.00,1.3134
3536.00,1.2969
3535.00,1.2809
3534.00,1.2655
3533.00,1.2509
3532.00,1.2373
3531.00,1.2244
3530.00,1.2124
3529.00,1.2011
3528.00,1.1907
3527.00,1.1817
3526.00,1.1740
3525.00,1.1677
3524.00,1.1628
3523.00,1.1595
3522.00,1.1577
3521.00,1.1577
3520.00,1.1596
3519.00,1.1631
3518.00,1.1683
3517.00,1.1750
3516.00,1.1832
3515.00,1.1929
3514.00,1.2041
3513.00,1.2165
3512.00,1.2301
3511.00,1.2448
3510.00,1.2606
3509.00,1.2773
3508.00,1.2948
3507.00,1.3130
3506.00,1.3318
3505.00,1.3511
3504.00,1.3710
3503.00,1.3915
3502.00,1.4123
3501.00,1.4334
3500.00,1.4545
3499.00,1.4756
3498.00,1.4966
3497.00,1.5172
3496.00,1.5378
3495.00,1.5584
3494.00,1.5789
3493.00,1.5991
3492.00,1.6189
3491.00,1.6382
3490.00,1.6571
3489.00,1.6756
3488.00,1.6939
3487.00,1.7119
3486.00,1.7292
3485.00,1.7455
3484.00,1.7611
3483.00,1.7760
3482.00,1.7906
3481.00,1.8048
3480.00,1.8184
3479.00,1.8314
3478.00,1.8436
3477.00,1.8554
3476.00,1.8670
3475.00,1.8785
3474.00,1.8897
3473.00,1.9001
3472.00,1.9097
3471.00,1.9184
3470.00,1.9263
3469.00,1.9336
3468.00,1.9406
3467.00,1.9474
3466.00,1.9537
3465.00,1.9594
3464.00,1.9644
3463.00,1.9689
3462.00,1.9733
3461.00,1.9775
3460.00,1.9813
3459.00,1.9845
3458.00,1.9871
3457.00,1.9894
3456.00,1.9916
3455.00,1.9938
3454.00,1.9955
3453.00,1.9967
3452.00,1.9973
3451.00,1.9972
3450.00,1.9960
3449.00,1.9941
3448.00,1.9919
3447.00,1.9897
3446.00,1.9877
3445.00,1.9854
3444.00,1.9826
3443.00,1.9793
3442.00,1.9755
3441.00,1.9712
3440.00,1.9665
3439.00,1.9615
3438.00,1.9560
3437.00,1.9500
3436.00,1.9431
3435.00,1.9355
3434.00,1.9270
3433.00,1.9179
3432.00,1.9085
3431.00,1.8990
3430.00,1.8893
3429.00,1.8792
3428.00,1.8682
3427.00,1.8563
3426.00,1.8436
3425.00,1.8305
3424.00,1.8168
3423.00,1.8025
3422.00,1.7873
3421.00,1.7712
3420.00,1.7545
3419.00,1.7374
3418.00,1.7200
3417.00,1.7022
3416.00,1.6837
3415.00,1.6645
3414.00,1.6444
3413.00,1.6236
3412.00,1.6022
3411.00,1.5802
3410.00,1.5576
3409.00,1.5344
3408.00,1.5107
3407.00,1.4866
3406.00,1.4620
3405.00,1.4372
3404.00,1.4121
3403.00,1.3869
3402.00,1.3616
3401.00,1.3362
3400.00,1.3109
3399.00,1.2858
3398.00,1.2609
3397.00,1.2366
3396.00,1.2130
3395.00,1.1904
3394.00,1.1690
3393.00,1.1488
3392.00,1.1301
3391.00,1.1132
3390.00,1.0984
3389.00,1.0856
3388.00,1.0751
3387.00,1.0668
3386.00,1.0607
3385.00,1.0570
3384.00,1.0556
3383.00,1.0566
3382.00,1.0599
3381.00,1.0655
3380.00,1.0734
3379.00,1.0834
3378.00,1.0955
3377.00,1.1094
3376.00,1.1250
3375.00,1.1422
3374.00,1.1608
3373.00,1.1808
3372.00,1.2019
3371.00,1.2241
3370.00,1.2470
3369.00,1.2707
3368.00,1.2948
3367.00,1.3192
3366.00,1.3438
3365.00,1.3686
3364.00,1.3936
3363.00,1.4190
3362.00,1.4443
3361.00,1.4695
3360.00,1.4944
3359.00,1.5190
3358.00,1.5433
3357.00,1.5674
3356.00,1.5912
3355.00,1.6147
3354.00,1.6377
3353.00,1.6602
3352.00,1.6822
3351.00,1.7034
3350.00,1.7237
3349.00,1.7429
3348.00,1.7614
3347.00,1.7792
3346.00,1.7966
3345.00,1.8132
3344.00,1.8291
3343.00,1.8445
3342.00,1.8595
3341.00,1.8743
3340.00,1.8886
3339.00,1.9021
3338.00,1.9144
3337.00,1.9258
3336.00,1.9368
3335.00,1.9476
3334.00,1.9580
3333.00,1.9679
3332.00,1.9770
3331.00,1.9855
3330.00,1.9933
3329.00,2.0005
3328.00,2.0072
3327.00,2.0133
3326.00,2.0192
3325.00,2.0247
3324.00,2.0299
3323.00,2.0345
3322.00,2.0385
3321.00,2.0419
3320.00,2.0451
3319.00,2.0481
3318.00,2.0505
3317.00,2.0520
3316.00,2.0525
3315.00,2.0527
3314.00,2.0533
3313.00,2.0544
3312.00,2.0553
3311.00,2.0553
3310.00,2.0540
3309.00,2.0519
3308.00,2.0496
3307.00,2.0476
3306.00,2.0456
3305.00,2.0433
3304.00,2.0402
3303.00,2.0362
3302.00,2.0315
3301.00,2.0260
3300.00,2.0200
3299.00,2.0133
3298.00,2.0063
3297.00,1.9993
3296.00,1.9925
3295.00,1.9857
3294.00,1.9781
3293.00,1.9695
3292.00,1.9601
3291.00,1.9502
3290.00,1.9401
3289.00,1.9293
3288.00,1.9176
3287.00,1.9050
3286.00,1.8916
3285.00,1.8777
3284.00,1.8634
3283.00,1.8486
3282.00,1.8332
3281.00,1.8172
3280.00,1.8007
3279.00,1.7836
3278.00,1.7656
3277.00,1.7468
3276.00,1.7270
3275.00,1.7064
3274.00,1.6852
3273.00,1.6633
3272.00,1.6406
3271.00,1.6169
3270.00,1.5924
3269.00,1.5672
3268.00,1.5415
3267.00,1.5155
3266.00,1.4891
3265.00,1.4625
3264.00,1.4355
3263.00,1.4084
3262.00,1.3811
3261.00,1.3539
3260.00,1.3272
3259.00,1.3010
3258.00,1.2757
3257.00,1.2512
3256.00,1.2280
3255.00,1.2062
3254.00,1.1861
3253.00,1.1677
3252.00,1.1513
3251.00,1.1369
3250.00,1.1247
3249.00,1.1147
3248.00,1.1074
3247.00,1.1026
3246.00,1.1004
3245.00,1.1008
3244.00,1.1037
3243.00,1.1092
3242.00,1.1172
3241.00,1.1276
3240.00,1.1402
3239.00,1.1550
3238.00,1.1716
3237.00,1.1898
3236.00,1.2095
3235.00,1.2305
3234.00,1.2526
3233.00,1.2759
3232.00,1.3002
3231.00,1.3253
3230.00,1.3510
3229.00,1.3771
3228.00,1.4035
3227.00,1.4302
3226.00,1.4570
3225.00,1.4841
3224.00,1.5110
3223.00,1.5377
3222.00,1.5640
3221.00,1.5899
3220.00,1.6156
3219.00,1.6410
3218.00,1.6660
3217.00,1.6903
3216.00,1.7140
3215.00,1.7373
3214.00,1.7601
3213.00,1.7825
3212.00,1.8041
3211.00,1.8247
3210.00,1.8443
3209.00,1.8632
3208.00,1.8816
3207.00,1.8992
3206.00,1.9158
3205.00,1.9310
3204.00,1.9451
3203.00,1.9580
3202.00,1.9699
3201.00,1.9810
3200.00,1.9913
3199.00,2.0010
3198.00,2.0102
3197.00,2.0192
3196.00,2.0285
3195.00,2.0381
3194.00,2.0474
3193.00,2.0558
3192.00,2.0633
3191.00,2.0701
3190.00,2.0769
3189.00,2.0838
3188.00,2.0908
3187.00,2.0974
3186.00,2.1032
3185.00,2.1084
3184.00,2.1130
3183.00,2.1173
3182.00,2.1212
3181.00,2.1248
3180.00,2.1278
3179.00,2.1300
3178.00,2.1314
3177.00,2.1323
3176.00,2.1335
3175.00,2.1351
3174.00,2.1371
3173.00,2.1387
3172.00,2.1398
3171.00,2.1404
3170.00,2.1411
3169.00,2.1428
3168.00,2.1457
3167.00,2.1495
3166.00,2.1534
3165.00,2.1564
3164.00,2.1581
3163.00,2.1577
3162.00,2.1544
3161.00,2.1482
3160.00,2.1399
3159.00,2.1305
3158.00,2.1205
3157.00,2.1102
3156.00,2.0996
3155.00,2.0889
3154.00,2.0783
3153.00,2.0679
3152.00,2.0573
3151.00,2.0463
3150.00,2.0349
3149.00,2.0227
3148.00,2.0100
3147.00,1.9969
3146.00,1.9838
3145.00,1.9707
3144.00,1.9571
3143.00,1.9425
3142.00,1.9269
3141.00,1.9102
3140.00,1.8927
3139.00,1.8745
3138.00,1.8556
3137.00,1.8363
3136.00,1.8166
3135.00,1.7963
3134.00,1.7752
3133.00,1.7533
3132.00,1.7305
3131.00,1.7071
3130.00,1.6828
3129.00,1.6578
3128.00,1.6325
3127.00,1.6070
3126.00,1.5815
3125.00,1.5557
3124.00,1.5296
3123.00,1.5034
3122.00,1.4774
3121.00,1.4519
3120.00,1.4271
3119.00,1.4032
3118.00,1.3801
3117.00,1.3582
3116.00,1.3379
3115.00,1.3192
3114.00,1.3023
3113.00,1.2871
3112.00,1.2737
3111.00,1.2620
3110.00,1.2523
3109.00,1.2448
3108.00,1.2397
3107.00,1.2371
3106.00,1.2371
3105.00,1.2398
3104.00,1.2450
3103.00,1.2526
3102.00,1.2624
3101.00,1.2744
3100.00,1.2884
3099.00,1.3041
3098.00,1.3214
3097.00,1.3403
3096.00,1.3606
3095.00,1.3822
3094.00,1.4046
3093.00,1.4278
3092.00,1.4516
3091.00,1.4760
3090.00,1.5008
3089.00,1.5260
3088.00,1.5514
3087.00,1.5768
3086.00,1.6021
3085.00,1.6273
3084.00,1.6523
3083.00,1.6771
3082.00,1.7017
3081.00,1.7259
3080.00,1.7496
3079.00,1.7729
3078.00,1.7955
3077.00,1.8176
3076.00,1.8393
3075.00,1.8604
3074.00,1.8810
3073.00,1.9011
3072.00,1.9205
3071.00,1.9391
3070.00,1.9567
3069.00,1.9735
3068.00,1.9898
3067.00,2.0058
3066.00,2.0214
3065.00,2.0367
3064.00,2.0517
3063.00,2.0660
3062.00,2.0794
3061.00,2.0919
3060.00,2.1037
3059.00,2.1146
3058.00,2.1246
3057.00,2.1341
3056.00,2.1437
3055.00,2.1533
3054.00,2.1628
3053.00,2.1714
3052.00,2.1789
3051.00,2.1853
3050.00,2.1907
3049.00,2.1956
3048.00,2.2007
3047.00,2.2061
3046.00,2.2118
3045.00,2.2172
3044.00,2.2221
3043.00,2.2260
3042.00,2.2288
3041.00,2.2312
3040.00,2.2337
3039.00,2.2361
3038.00,2.2376
3037.00,2.2379
3036.00,2.2376
3035.00,2.2373
3034.00,2.2371
3033.00,2.2365
3032.00,2.2351
3031.00,2.2331
3030.00,2.2310
3029.00,2.2293
3028.00,2.2279
3027.00,2.2260
3026.00,2.2231
3025.00,2.2189
3024.00,2.2140
3023.00,2.2088
3022.00,2.2035
3021.00,2.1981
3020.00,2.1924
3019.00,2.1867
3018.00,2.1811
3017.00,2.1756
3016.00,2.1702
3015.00,2.1648
3014.00,2.1597
3013.00,2.1549
3012.00,2.1506
3011.00,2.1471
3010.00,2.1444
3009.00,2.1423
3008.00,2.1403
3007.00,2.1382
3006.00,2.1358
3005.00,2.1330
3004.00,2.1297
3003.00,2.1257
3002.00,2.1209
3001.00,2.1153
3000.00,2.1085
2999.00,2.1000
2998.00,2.0896
2997.00,2.0774
2996.00,2.0637
2995.00,2.0483
2994.00,2.0308
2993.00,2.0114
2992.00,1.9906
2991.00,1.9690
2990.00,1.9467
2989.00,1.9239
2988.00,1.9009
2987.00,1.8777
2986.00,1.8547
2985.00,1.8323
2984.00,1.8108
2983.00,1.7908
2982.00,1.7728
2981.00,1.7570
2980.00,1.7439
2979.00,1.7339
2978.00,1.7274
2977.00,1.7244
2976.00,1.7250
2975.00,1.7294
2974.00,1.7374
2973.00,1.7489
2972.00,1.7636
2971.00,1.7809
2970.00,1.8002
2969.00,1.8210
2968.00,1.8429
2967.00,1.8652
2966.00,1.8877
2965.00,1.9097
2964.00,1.9313
2963.00,1.9524
2962.00,1.9734
2961.00,1.9944
2960.00,2.0156
2959.00,2.0372
2958.00,2.0592
2957.00,2.0818
2956.00,2.1054
2955.00,2.1299
2954.00,2.1554
2953.00,2.1813
2952.00,2.2072
2951.00,2.2330
2950.00,2.2588
2949.00,2.2845
2948.00,2.3096
2947.00,2.3330
2946.00,2.3529
2945.00,2.3678
2944.00,2.3756
2943.00,2.3740
2942.00,2.3612
2941.00,2.3380
2940.00,2.3079
2939.00,2.2757
2938.00,2.2446
2937.00,2.2157
2936.00,2.1889
2935.00,2.1634
2934.00,2.1392
2933.00,2.1165
2932.00,2.0957
2931.00,2.0772
2930.00,2.0612
2929.00,2.0476
2928.00,2.0365
2927.00,2.0279
2926.00,2.0218
2925.00,2.0180
2924.00,2.0161
2923.00,2.0160
2922.00,2.0178
2921.00,2.0215
2920.00,2.0270
2919.00,2.0339
2918.00,2.0422
2917.00,2.0518
2916.00,2.0626
2915.00,2.0744
2914.00,2.0870
2913.00,2.1000
2912.00,2.1134
2911.00,2.1270
2910.00,2.1407
2909.00,2.1542
2908.00,2.1670
2907.00,2.1790
2906.00,2.1903
2905.00,2.2013
2904.00,2.2121
2903.00,2.2224
2902.00,2.2320
2901.00,2.2412
2900.00,2.2506
2899.00,2.2603
2898.00,2.2700
2897.00,2.2789
2896.00,2.2868
2895.00,2.2937
2894.00,2.2997
2893.00,2.3051
2892.00,2.3100
2891.00,2.3146
2890.00,2.3191
2889.00,2.3240
2888.00,2.3295
2887.00,2.3350
2886.00,2.3394
2885.00,2.3421
2884.00,2.3436
2883.00,2.3447
2882.00,2.3463
2881.00,2.3481
2880.00,2.3494
2879.00,2.3502
2878.00,2.3510
2877.00,2.3525
2876.00,2.3544
2875.00,2.3563
2874.00,2.3579
2873.00,2.3594
2872.00,2.3613
2871.00,2.3633
2870.00,2.3647
2869.00,2.3648
2868.00,2.3632
2867.00,2.3606
2866.00,2.3577
2865.00,2.3546
2864.00,2.3508
2863.00,2.3459
2862.00,2.3398
2861.00,2.3330
2860.00,2.3256
2859.00,2.3170
2858.00,2.3068
2857.00,2.2951
2856.00,2.2826
2855.00,2.2698
2854.00,2.2566
2853.00,2.2433
2852.00,2.2300
2851.00,2.2164
2850.00,2.2018
2849.00,2.1856
2848.00,2.1682
2847.00,2.1501
2846.00,2.1316
2845.00,2.1126
2844.00,2.0929
2843.00,2.0726
2842.00,2.0517
2841.00,2.0302
2840.00,2.0077
2839.00,1.9839
2838.00,1.9588
2837.00,1.9329
2836.00,1.9062
2835.00,1.8786
2834.00,1.8499
2833.00,1.8201
2832.00,1.7892
2831.00,1.7573
2830.00,1.7243
2829.00,1.6901
2828.00,1.6547
2827.00,1.6183
2826.00,1.5812
2825.00,1.5436
2824.00,1.5058
2823.00,1.4683
2822.00,1.4313
2821.00,1.3953
2820.00,1.3607
2819.00,1.3280
2818.00,1.2977
2817.00,1.2703
2816.00,1.2463
2815.00,1.2258
2814.00,1.2094
2813.00,1.1971
2812.00,1.1891
2811.00,1.1856
2810.00,1.1865
2809.00,1.1919
2808.00,1.2017
2807.00,1.2157
2806.00,1.2335
2805.00,1.2547
2804.00,1.2788
2803.00,1.3054
2802.00,1.3339
2801.00,1.3640
2800.00,1.3952
2799.00,1.4273
2798.00,1.4601
2797.00,1.4934
2796.00,1.5270
2795.00,1.5608
2794.00,1.5948
2793.00,1.6288
2792.00,1.6628
2791.00,1.6966
2790.00,1.7301
2789.00,1.7631
2788.00,1.7954
2787.00,1.8269
2786.00,1.8575
2785.00,1.8873
2784.00,1.9163
2783.00,1.9445
2782.00,1.9713
2781.00,1.9965
2780.00,2.0202
2779.00,2.0429
2778.00,2.0651
2777.00,2.0865
2776.00,2.1070
2775.00,2.1265
2774.00,2.1454
2773.00,2.1634
2772.00,2.1803
2771.00,2.1963
2770.00,2.2117
2769.00,2.2266
2768.00,2.2404
2767.00,2.2531
2766.00,2.2650
2765.00,2.2768
2764.00,2.2881
2763.00,2.2986
2762.00,2.3080
2761.00,2.3165
2760.00,2.3245
2759.00,2.3323
2758.00,2.3399
2757.00,2.3475
2756.00,2.3548
2755.00,2.3619
2754.00,2.3687
2753.00,2.3752
2752.00,2.3806
2751.00,2.3842
2750.00,2.3867
2749.00,2.3892
2748.00,2.3922
2747.00,2.3955
2746.00,2.3986
2745.00,2.4008
2744.00,2.4019
2743.00,2.4021
2742.00,2.4017
2741.00,2.4011
2740.00,2.4002
2739.00,2.3987
2738.00,2.3964
2737.00,2.3938
2736.00,2.3911
2735.00,2.3882
2734.00,2.3850
2733.00,2.3813
2732.00,2.3770
2731.00,2.3720
2730.00,2.3667
2729.00,2.3609
2728.00,2.3547
2727.00,2.3474
2726.00,2.3391
2725.00,2.3297
2724.00,2.3196
2723.00,2.3089
2722.00,2.2980
2721.00,2.2871
2720.00,2.2763
2719.00,2.2650
2718.00,2.2529
2717.00,2.2396
2716.00,2.2255
2715.00,2.2108
2714.00,2.1956
2713.00,2.1800
2712.00,2.1638
2711.00,2.1463
2710.00,2.1271
2709.00,2.1065
2708.00,2.0850
2707.00,2.0630
2706.00,2.0402
2705.00,2.0162
2704.00,1.9909
2703.00,1.9640
2702.00,1.9357
2701.00,1.9058
2700.00,1.8745
2699.00,1.8417
2698.00,1.8075
2697.00,1.7719
2696.00,1.7346
2695.00,1.6957
2694.00,1.6553
2693.00,1.6135
2692.00,1.5709
2691.00,1.5278
2690.00,1.4845
2689.00,1.4414
2688.00,1.3991
2687.00,1.3582
2686.00,1.3196
2685.00,1.2838
2684.00,1.2513
2683.00,1.2224
2682.00,1.1975
2681.00,1.1768
2680.00,1.1605
2679.00,1.1487
2678.00,1.1412
2677.00,1.1383
2676.00,1.1399
2675.00,1.1461
2674.00,1.1565
2673.00,1.1710
2672.00,1.1891
2671.00,1.2105
2670.00,1.2346
2669.00,1.2615
2668.00,1.2907
2667.00,1.3222
2666.00,1.3557
2665.00,1.3908
2664.00,1.4273
2663.00,1.4648
2662.00,1.5030
2661.00,1.5420
2660.00,1.5814
2659.00,1.6209
2658.00,1.6601
2657.00,1.6988
2656.00,1.7371
2655.00,1.7747
2654.00,1.8113
2653.00,1.8468
2652.00,1.8813
2651.00,1.9148
2650.00,1.9474
2649.00,1.9790
2648.00,2.0092
2647.00,2.0379
2646.00,2.0649
2645.00,2.0908
2644.00,2.1159
2643.00,2.1405
2642.00,2.1641
2641.00,2.1864
2640.00,2.2075
2639.00,2.2277
2638.00,2.2473
2637.00,2.2664
2636.00,2.2847
2635.00,2.3019
2634.00,2.3178
2633.00,2.3325
2632.00,2.3461
2631.00,2.3590
2630.00,2.3713
2629.00,2.3825
2628.00,2.3922
2627.00,2.4004
2626.00,2.4075
2625.00,2.4146
2624.00,2.4219
2623.00,2.4289
2622.00,2.4351
2621.00,2.4404
2620.00,2.4453
2619.00,2.4504
2618.00,2.4559
2617.00,2.4620
2616.00,2.4681
2615.00,2.4737
2614.00,2.4785
2613.00,2.4824
2612.00,2.4855
2611.00,2.4879
2610.00,2.4897
2609.00,2.4911
2608.00,2.4927
2607.00,2.4943
2606.00,2.4959
2605.00,2.4972
2604.00,2.4979
2603.00,2.4975
2602.00,2.4957
2601.00,2.4931
2600.00,2.4908
2599.00,2.4888
2598.00,2.4867
2597.00,2.4835
2596.00,2.4793
2595.00,2.4742
2594.00,2.4684
2593.00,2.4623
2592.00,2.4562
2591.00,2.4501
2590.00,2.4435
2589.00,2.4362
2588.00,2.4284
2587.00,2.4204
2586.00,2.4115
2585.00,2.4013
2584.00,2.3901
2583.00,2.3787
2582.00,2.3679
2581.00,2.3574
2580.00,2.3468
2579.00,2.3354
2578.00,2.3227
2577.00,2.3085
2576.00,2.2932
2575.00,2.2771
2574.00,2.2601
2573.00,2.2421
2572.00,2.2227
2571.00,2.2022
2570.00,2.1808
2569.00,2.1588
2568.00,2.1363
2567.00,2.1131
2566.00,2.0891
2565.00,2.0636
2564.00,2.0362
2563.00,2.0068
2562.00,1.9756
2561.00,1.9427
2560.00,1.9080
2559.00,1.8715
2558.00,1.8334
2557.00,1.7937
2556.00,1.7524
2555.00,1.7094
2554.00,1.6649
2553.00,1.6193
2552.00,1.5729
2551.00,1.5261
2550.00,1.4795
2549.00,1.4338
2548.00,1.3894
2547.00,1.3472
2546.00,1.3078
2545.00,1.2717
2544.00,1.2396
2543.00,1.2120
2542.00,1.1892
2541.00,1.1718
2540.00,1.1599
2539.00,1.1539
2538.00,1.1539
2537.00,1.1599
2536.00,1.1718
2535.00,1.1891
2534.00,1.2114
2533.00,1.2380
2532.00,1.2684
2531.00,1.3017
2530.00,1.3375
2529.00,1.3754
2528.00,1.4150
2527.00,1.4558
2526.00,1.4973
2525.00,1.5391
2524.00,1.5812
2523.00,1.6235
2522.00,1.6657
2521.00,1.7078
2520.00,1.7494
2519.00,1.7903
2518.00,1.8301
2517.00,1.8687
2516.00,1.9066
2515.00,1.9437
2514.00,1.9798
2513.00,2.0144
2512.00,2.0473
2511.00,2.0783
2510.00,2.1077
2509.00,2.1358
2508.00,2.1627
2507.00,2.1883
2506.00,2.2129
2505.00,2.2364
2504.00,2.2590
2503.00,2.2805
2502.00,2.3003
2501.00,2.3184
2500.00,2.3354
2499.00,2.3521
2498.00,2.3692
2497.00,2.3866
2496.00,2.4034
2495.00,2.4192
2494.00,2.4338
2493.00,2.4477
2492.00,2.4607
2491.00,2.4724
2490.00,2.4827
2489.00,2.4924
2488.00,2.5023
2487.00,2.5124
2486.00,2.5218
2485.00,2.5298
2484.00,2.5371
2483.00,2.5446
2482.00,2.5523
2481.00,2.5588
2480.00,2.5635
2479.00,2.5670
2478.00,2.5711
2477.00,2.5767
2476.00,2.5834
2475.00,2.5893
2474.00,2.5934
2473.00,2.5957
2472.00,2.5971
2471.00,2.5986
2470.00,2.5999
2469.00,2.6006
2468.00,2.6003
2467.00,2.5998
2466.00,2.6000
2465.00,2.6002
2464.00,2.5989
2463.00,2.5951
2462.00,2.5902
2461.00,2.5861
2460.00,2.5835
2459.00,2.5809
2458.00,2.5772
2457.00,2.5726
2456.00,2.5680
2455.00,2.5639
2454.00,2.5591
2453.00,2.5526
2452.00,2.5446
2451.00,2.5363
2450.00,2.5286
2449.00,2.5212
2448.00,2.5128
2447.00,2.5028
2446.00,2.4917
2445.00,2.4811
2444.00,2.4712
2443.00,2.4613
2442.00,2.4499
2441.00,2.4366
2440.00,2.4219
2439.00,2.4062
2438.00,2.3900
2437.00,2.3733
2436.00,2.3560
2435.00,2.3381
2434.00,2.3196
2433.00,2.3004
2432.00,2.2801
2431.00,2.2585
2430.00,2.2358
2429.00,2.2124
2428.00,2.1883
2427.00,2.1634
2426.00,2.1372
2425.00,2.1096
2424.00,2.0806
2423.00,2.0504
2422.00,2.0189
2421.00,1.9865
2420.00,1.9535
2419.00,1.9199
2418.00,1.8858
2417.00,1.8515
2416.00,1.8171
2415.00,1.7828
2414.00,1.7487
2413.00,1.7150
2412.00,1.6816
2411.00,1.6484
2410.00,1.6155
2409.00,1.5828
2408.00,1.5505
2407.00,1.5188
2406.00,1.4880
2405.00,1.4587
2404.00,1.4313
2403.00,1.4066
2402.00,1.3850
2401.00,1.3673
2400.00,1.3540
2399.00,1.3457
2398.00,1.3429
2397.00,1.3459
2396.00,1.3546
2395.00,1.3688
2394.00,1.3882
2393.00,1.4123
2392.00,1.4406
2391.00,1.4722
2390.00,1.5066
2389.00,1.5433
2388.00,1.5820
2387.00,1.6220
2386.00,1.6629
2385.00,1.7037
2384.00,1.7441
2383.00,1.7834
2382.00,1.8213
2381.00,1.8574
2380.00,1.8913
2379.00,1.9227
2378.00,1.9509
2377.00,1.9759
2376.00,1.9980
2375.00,2.0180
2374.00,2.0372
2373.00,2.0566
2372.00,2.0772
2371.00,2.0994
2370.00,2.1230
2369.00,2.1477
2368.00,2.1728
2367.00,2.1972
2366.00,2.2202
2365.00,2.2420
2364.00,2.2626
2363.00,2.2809
2362.00,2.2974
2361.00,2.3140
2360.00,2.3284
2359.00,2.3473
2358.00,2.3575
2357.00,2.3826
2356.00,2.3784
2355.00,2.4516
2354.00,2.6053
2353.00,2.5792
2352.00,2.6059
2351.00,2.6045
2350.00,2.6190
2349.00,2.6253
2348.00,2.6356
2347.00,2.6434
2346.00,2.6515
2345.00,2.6590
2344.00,2.6690
2343.00,2.6722
2342.00,2.6833
2341.00,2.6748
2340.00,2.7038
2339.00,2.6463
2338.00,2.5593
2337.00,2.5878
2336.00,2.5820
2335.00,2.5900
2334.00,2.5881
2333.00,2.5911
2332.00,2.5928
2331.00,2.5963
2330.00,2.5984
2329.00,2.5991
2328.00,2.5948
2327.00,2.5886
2326.00,2.5816
2325.00,2.5777
2324.00,2.5761
2323.00,2.5743
2322.00,2.5716
2321.00,2.5677
2320.00,2.5648
2319.00,2.5620
2318.00,2.5586
2317.00,2.5543
2316.00,2.5499
2315.00,2.5465
2314.00,2.5433
2313.00,2.5391
2312.00,2.5325
2311.00,2.5245
2310.00,2.5151
2309.00,2.5047
2308.00,2.4917
2307.00,2.4760
2306.00,2.4579
2305.00,2.4387
2304.00,2.4192
2303.00,2.4008
2302.00,2.3849
2301.00,2.3736
2300.00,2.3684
2299.00,2.3711
2298.00,2.3825
2297.00,2.4041
2296.00,2.4349
2295.00,2.4726
2294.00,2.5115
2293.00,2.5446
2292.00,2.5649
2291.00,2.5688
2290.00,2.5564
2289.00,2.5303
2288.00,2.4944
2287.00,2.4521
2286.00,2.4058
2285.00,2.3566
2284.00,2.3051
2283.00,2.2518
2282.00,2.1963
2281.00,2.1380
2280.00,2.0769
2279.00,2.0136
2278.00,1.9501
2277.00,1.8887
2276.00,1.8317
2275.00,1.7816
2274.00,1.7406
2273.00,1.7106
2272.00,1.6931
2271.00,1.6892
2270.00,1.6998
2269.00,1.7261
2268.00,1.7684
2267.00,1.8264
2266.00,1.8985
2265.00,1.9827
2264.00,2.0768
2263.00,2.1787
2262.00,2.2876
2261.00,2.4030
2260.00,2.5260
2259.00,2.6586
2258.00,2.8046
2257.00,2.9692
2256.00,3.1577
2255.00,3.3710
2254.00,3.5849
2253.00,3.7173
2252.00,3.6818
2251.00,3.5278
2250.00,3.3451
2249.00,3.1719
2248.00,3.0168
2247.00,2.8762
2246.00,2.7439
2245.00,2.6155
2244.00,2.4887
2243.00,2.3627
2242.00,2.2379
2241.00,2.1162
2240.00,2.0009
2239.00,1.8963
2238.00,1.8062
2237.00,1.7339
2236.00,1.6819
2235.00,1.6510
2234.00,1.6407
2233.00,1.6490
2232.00,1.6729
2231.00,1.7090
2230.00,1.7538
2229.00,1.8042
2228.00,1.8572
2227.00,1.9107
2226.00,1.9638
2225.00,2.0158
2224.00,2.0667
2223.00,2.1157
2222.00,2.1627
2221.00,2.2074
2220.00,2.2497
2219.00,2.2893
2218.00,2.3263
2217.00,2.3608
2216.00,2.3929
2215.00,2.4227
2214.00,2.4511
2213.00,2.4790
2212.00,2.5064
2211.00,2.5321
2210.00,2.5549
2209.00,2.5751
2208.00,2.5937
2207.00,2.6117
2206.00,2.6294
2205.00,2.6464
2204.00,2.6620
2203.00,2.6755
2202.00,2.6865
2201.00,2.6958
2200.00,2.7045
2199.00,2.7138
2198.00,2.7239
2197.00,2.7342
2196.00,2.7440
2195.00,2.7533
2194.00,2.7613
2193.00,2.7669
2192.00,2.7699
2191.00,2.7723
2190.00,2.7770
2189.00,2.7852
2188.00,2.7952
2187.00,2.8031
2186.00,2.8070
2185.00,2.8079
2184.00,2.8086
2183.00,2.8104
2182.00,2.8121
2181.00,2.8113
2180.00,2.8073
2179.00,2.8016
2178.00,2.7973
2177.00,2.7962
2176.00,2.7979
2175.00,2.8002
2174.00,2.8006
2173.00,2.7974
2172.00,2.7907
2171.00,2.7826
2170.00,2.7753
2169.00,2.7702
2168.00,2.7669
2167.00,2.7641
2166.00,2.7606
2165.00,2.7557
2164.00,2.7491
2163.00,2.7409
2162.00,2.7312
2161.00,2.7202
2160.00,2.7085
2159.00,2.6961
2158.00,2.6832
2157.00,2.6700
2156.00,2.6569
2155.00,2.6444
2154.00,2.6319
2153.00,2.6181
2152.00,2.6022
2151.00,2.5845
2150.00,2.5658
2149.00,2.5472
2148.00,2.5290
2147.00,2.5108
2146.00,2.4913
2145.00,2.4694
2144.00,2.4447
2143.00,2.4183
2142.00,2.3913
2141.00,2.3638
2140.00,2.3353
2139.00,2.3050
2138.00,2.2728
2137.00,2.2385
2136.00,2.2019
2135.00,2.1631
2134.00,2.1219
2133.00,2.0785
2132.00,2.0326
2131.00,1.9841
2130.00,1.9330
2129.00,1.8796
2128.00,1.8245
2127.00,1.7681
2126.00,1.7110
2125.00,1.6543
2124.00,1.5988
2123.00,1.5458
2122.00,1.4964
2121.00,1.4515
2120.00,1.4121
2119.00,1.3790
2118.00,1.3531
2117.00,1.3350
2116.00,1.3252
2115.00,1.3240
2114.00,1.3315
2113.00,1.3475
2112.00,1.3714
2111.00,1.4023
2110.00,1.4390
2109.00,1.4803
2108.00,1.5250
2107.00,1.5723
2106.00,1.6216
2105.00,1.6723
2104.00,1.7239
2103.00,1.7759
2102.00,1.8277
2101.00,1.8791
2100.00,1.9298
2099.00,1.9797
2098.00,2.0285
2097.00,2.0761
2096.00,2.1217
2095.00,2.1647
2094.00,2.2054
2093.00,2.2443
2092.00,2.2822
2091.00,2.3187
2090.00,2.3531
2089.00,2.3849
2088.00,2.4143
2087.00,2.4419
2086.00,2.4681
2085.00,2.4932
2084.00,2.5175
2083.00,2.5414
2082.00,2.5646
2081.00,2.5868
2080.00,2.6079
2079.00,2.6281
2078.00,2.6482
2077.00,2.6682
2076.00,2.6870
2075.00,2.7040
2074.00,2.7193
2073.00,2.7333
2072.00,2.7460
2071.00,2.7571
2070.00,2.7671
2069.00,2.7764
2068.00,2.7857
2067.00,2.7949
2066.00,2.8036
2065.00,2.8118
2064.00,2.8200
2063.00,2.8293
2062.00,2.8402
2061.00,2.8514
2060.00,2.8609
2059.00,2.8677
2058.00,2.8729
2057.00,2.8778
2056.00,2.8826
2055.00,2.8872
2054.00,2.8915
2053.00,2.8953
2052.00,2.8982
2051.00,2.9006
2050.00,2.9031
2049.00,2.9059
2048.00,2.9081
2047.00,2.9093
2046.00,2.9095
2045.00,2.9089
2044.00,2.9076
2043.00,2.9058
2042.00,2.9045
2041.00,2.9042
2040.00,2.9038
2039.00,2.9015
2038.00,2.8972
2037.00,2.8927
2036.00,2.8896
2035.00,2.8879
2034.00,2.8865
2033.00,2.8842
2032.00,2.8804
2031.00,2.8746
2030.00,2.8667
2029.00,2.8576
2028.00,2.8485
2027.00,2.8397
2026.00,2.8307
2025.00,2.8216
2024.00,2.8133
2023.00,2.8064
2022.00,2.7998
2021.00,2.7906
2020.00,2.7775
2019.00,2.7620
2018.00,2.7470
2017.00,2.7337
2016.00,2.7213
2015.00,2.7084
2014.00,2.6933
2013.00,2.6753
2012.00,2.6548
2011.00,2.6338
2010.00,2.6141
2009.00,2.5951
2008.00,2.5753
2007.00,2.5535
2006.00,2.5298
2005.00,2.5041
2004.00,2.4759
2003.00,2.4452
2002.00,2.4133
2001.00,2.3811
2000.00,2.3486
1999.00,2.3146
1998.00,2.2783
1997.00,2.2393
1996.00,2.1974
1995.00,2.1527
1994.00,2.1053
1993.00,2.0551
1992.00,2.0019
1991.00,1.9462
1990.00,1.8893
1989.00,1.8321
1988.00,1.7752
1987.00,1.7189
1986.00,1.6640
1985.00,1.6119
1984.00,1.5641
1983.00,1.5215
1982.00,1.4850
1981.00,1.4556
1980.00,1.4339
1979.00,1.4205
1978.00,1.4156
1977.00,1.4195
1976.00,1.4321
1975.00,1.4526
1974.00,1.4804
1973.00,1.5144
1972.00,1.5536
1971.00,1.5971
1970.00,1.6441
1969.00,1.6937
1968.00,1.7455
1967.00,1.7987
1966.00,1.8526
1965.00,1.9063
1964.00,1.9592
1963.00,2.0113
1962.00,2.0624
1961.00,2.1120
1960.00,2.1603
1959.00,2.2072
1958.00,2.2528
1957.00,2.2969
1956.00,2.3392
1955.00,2.3792
1954.00,2.4160
1953.00,2.4497
1952.00,2.4808
1951.00,2.5102
1950.00,2.5382
1949.00,2.5650
1948.00,2.5909
1947.00,2.6167
1946.00,2.6423
1945.00,2.6663
1944.00,2.6875
1943.00,2.7059
1942.00,2.7231
1941.00,2.7409
1940.00,2.7601
1939.00,2.7799
1938.00,2.7989
1937.00,2.8160
1936.00,2.8317
1935.00,2.8472
1934.00,2.8624
1933.00,2.8757
1932.00,2.8865
1931.00,2.8951
1930.00,2.9022
1929.00,2.9086
1928.00,2.9165
1927.00,2.9273
1926.00,2.9389
1925.00,2.9480
1924.00,2.9538
1923.00,2.9592
1922.00,2.9668
1921.00,2.9756
1920.00,2.9836
1919.00,2.9902
1918.00,2.9951
1917.00,2.9975
1916.00,2.9984
1915.00,2.9998
1914.00,3.0033
1913.00,3.0085
1912.00,3.0147
1911.00,3.0221
1910.00,3.0290
1909.00,3.0320
1908.00,3.0302
1907.00,3.0268
1906.00,3.0243
1905.00,3.0224
1904.00,3.0195
1903.00,3.0157
1902.00,3.0121
1901.00,3.0088
1900.00,3.0054
1899.00,3.0027
1898.00,3.0007
1897.00,2.9986
1896.00,2.9956
1895.00,2.9922
1894.00,2.9884
1893.00,2.9828
1892.00,2.9755
1891.00,2.9686
1890.00,2.9636
1889.00,2.9584
1888.00,2.9499
1887.00,2.9370
1886.00,2.9217
1885.00,2.9070
1884.00,2.8942
1883.00,2.8831
1882.00,2.8718
1881.00,2.8585
1880.00,2.8438
1879.00,2.8304
1878.00,2.8183
1877.00,2.8054
1876.00,2.7900
1875.00,2.7726
1874.00,2.7536
1873.00,2.7331
1872.00,2.7118
1871.00,2.6902
1870.00,2.6670
1869.00,2.6413
1868.00,2.6154
1867.00,2.5916
1866.00,2.5669
1865.00,2.5375
1864.00,2.5027
1863.00,2.4644
1862.00,2.4248
1861.00,2.3845
1860.00,2.3434
1859.00,2.3012
1858.00,2.2567
1857.00,2.2087
1856.00,2.1575
1855.00,2.1038
1854.00,2.0482
1853.00,1.9905
1852.00,1.9316
1851.00,1.8726
1850.00,1.8148
1849.00,1.7588
1848.00,1.7070
1847.00,1.6615
1846.00,1.6226
1845.00,1.5885
1844.00,1.5591
1843.00,1.5381
1842.00,1.5299
1841.00,1.5365
1840.00,1.5563
1839.00,1.5847
1838.00,1.6189
1837.00,1.6585
1836.00,1.7030
1835.00,1.7501
1834.00,1.7983
1833.00,1.8475
1832.00,1.8987
1831.00,1.9525
1830.00,2.0102
1829.00,2.0717
1828.00,2.1319
1827.00,2.1841
1826.00,2.2281
1825.00,2.2681
1824.00,2.3078
1823.00,2.3488
1822.00,2.3911
1821.00,2.4343
1820.00,2.4769
1819.00,2.5162
1818.00,2.5509
1817.00,2.5825
1816.00,2.6136
1815.00,2.6453
1814.00,2.6767
1813.00,2.7074
1812.00,2.7366
1811.00,2.7632
1810.00,2.7869
1809.00,2.8082
1808.00,2.8279
1807.00,2.8458
1806.00,2.8619
1805.00,2.8775
1804.00,2.8931
1803.00,2.9074
1802.00,2.9199
1801.00,2.9330
1800.00,2.9487
1799.00,2.9653
1798.00,2.9802
1797.00,2.9945
1796.00,3.0105
1795.00,3.0267
1794.00,3.0385
1793.00,3.0434
1792.00,3.0448
1791.00,3.0474
1790.00,3.0525
1789.00,3.0600
1788.00,3.0702
1787.00,3.0803
1786.00,3.0865
1785.00,3.0887
1784.00,3.0914
1783.00,3.0995
1782.00,3.1141
1781.00,3.1303
1780.00,3.1418
1779.00,3.1461
1778.00,3.1462
1777.00,3.1457
1776.00,3.1450
1775.00,3.1436
1774.00,3.1436
1773.00,3.1474
1772.00,3.1536
1771.00,3.1568
1770.00,3.1514
1769.00,3.1386
1768.00,3.1247
1767.00,3.1116
1766.00,3.1016
1765.00,3.0991
1764.00,3.1027
1763.00,3.1045
1762.00,3.0994
1761.00,3.0903
1760.00,3.0824
1759.00,3.0761
1758.00,3.0676
1757.00,3.0540
1756.00,3.0367
1755.00,3.0208
1754.00,3.0098
1753.00,3.0013
1752.00,2.9900
1751.00,2.9746
1750.00,2.9611
1749.00,2.9545
1748.00,2.9504
1747.00,2.9395
1746.00,2.9188
1745.00,2.8933
1744.00,2.8699
1743.00,2.8515
1742.00,2.8361
1741.00,2.8202
1740.00,2.8008
1739.00,2.7778
1738.00,2.7535
1737.00,2.7297
1736.00,2.7033
1735.00,2.6680
1734.00,2.6235
1733.00,2.5828
1732.00,2.5555
1731.00,2.5398
1730.00,2.5311
1729.00,2.5245
1728.00,2.5208
1727.00,2.5254
1726.00,2.5427
1725.00,2.5732
1724.00,2.6162
1723.00,2.6717
1722.00,2.7387
1721.00,2.8148
1720.00,2.8973
1719.00,2.9874
1718.00,3.0919
1717.00,3.2148
1716.00,3.3413
1715.00,3.4507
1714.00,3.5437
1713.00,3.6308
1712.00,3.7171
1711.00,3.8047
1710.00,3.8875
1709.00,3.9447
1708.00,3.9613
1707.00,3.9478
1706.00,3.9096
1705.00,3.8340
1704.00,3.7248
1703.00,3.6081
1702.00,3.4940
1701.00,3.3685
1700.00,3.2329
1699.00,3.1226
1698.00,3.0531
1697.00,2.9997
1696.00,2.9317
1695.00,2.8409
1694.00,2.7397
1693.00,2.6454
1692.00,2.5640
1691.00,2.4857
1690.00,2.4047
1689.00,2.3252
1688.00,2.2546
1687.00,2.1973
1686.00,2.1529
1685.00,2.1189
1684.00,2.0982
1683.00,2.0957
1682.00,2.0983
1681.00,2.1057
1680.00,2.1302
1679.00,2.1653
1678.00,2.2021
1677.00,2.2385
1676.00,2.2750
1675.00,2.3139
1674.00,2.3580
1673.00,2.4086
1672.00,2.4638
1671.00,2.5201
1670.00,2.5738
1669.00,2.6241
1668.00,2.6668
1667.00,2.6987
1666.00,2.7260
1665.00,2.7557
1664.00,2.7887
1663.00,2.8234
1662.00,2.8582
1661.00,2.8907
1660.00,2.9187
1659.00,2.9442
1658.00,2.9685
1657.00,2.9923
1656.00,3.0159
1655.00,3.0387
1654.00,3.0598
1653.00,3.0861
1652.00,3.1174
1651.00,3.1291
1650.00,3.1341
1649.00,3.1549
1648.00,3.1800
1647.00,3.2031
1646.00,3.2196
1645.00,3.2222
1644.00,3.2165
1643.00,3.2185
1642.00,3.2293
1641.00,3.2420
1640.00,3.2527
1639.00,3.2572
1638.00,3.2532
1637.00,3.2455
1636.00,3.2426
1635.00,3.2476
1634.00,3.2487
1633.00,3.2417
1632.00,3.2397
1631.00,3.2433
1630.00,3.2472
1629.00,3.2531
1628.00,3.2628
1627.00,3.2706
1626.00,3.2699
1625.00,3.2651
1624.00,3.2648
1623.00,3.2694
1622.00,3.2731
1621.00,3.2733
1620.00,3.2741
1619.00,3.2779
1618.00,3.2813
1617.00,3.2836
1616.00,3.2869
1615.00,3.2843
1614.00,3.2710
1613.00,3.2577
1612.00,3.2543
1611.00,3.2569
1610.00,3.2559
1609.00,3.2479
1608.00,3.2378
1607.00,3.2302
1606.00,3.2258
1605.00,3.2235
1604.00,3.2210
1603.00,3.2130
1602.00,3.1950
1601.00,3.1699
1600.00,3.1462
1599.00,3.1284
1598.00,3.1147
1597.00,3.1006
1596.00,3.0844
1595.00,3.0673
1594.00,3.0501
1593.00,3.0324
1592.00,3.0137
1591.00,2.9942
1590.00,2.9751
1589.00,2.9567
1588.00,2.9384
1587.00,2.9181
1586.00,2.8938
1585.00,2.8653
1584.00,2.8332
1583.00,2.7983
1582.00,2.7621
1581.00,2.7277
1580.00,2.6979
1579.00,2.6732
1578.00,2.6500
1577.00,2.6228
1576.00,2.5888
1575.00,2.5475
1574.00,2.4977
1573.00,2.4463
1572.00,2.4001
1571.00,2.3562
1570.00,2.3127
1569.00,2.2733
1568.00,2.2386
1567.00,2.2062
1566.00,2.1800
1565.00,2.1623
1564.00,2.1515
1563.00,2.1469
1562.00,2.1477
1561.00,2.1508
1560.00,2.1559
1559.00,2.1749
1558.00,2.2275
1557.00,2.2710
1556.00,2.2845
1555.00,2.3095
1554.00,2.3449
1553.00,2.3818
1552.00,2.4199
1551.00,2.4598
1550.00,2.5003
1549.00,2.5406
1548.00,2.5812
1547.00,2.6220
1546.00,2.6613
1545.00,2.6982
1544.00,2.7364
1543.00,2.7800
1542.00,2.8275
1541.00,2.8772
1540.00,2.9312
1539.00,2.9810
1538.00,3.0020
1537.00,3.0032
1536.00,3.0109
1535.00,3.0254
1534.00,3.0439
1533.00,3.0696
1532.00,3.0987
1531.00,3.1220
1530.00,3.1416
1529.00,3.1630
1528.00,3.1853
1527.00,3.2050
1526.00,3.2200
1525.00,3.2316
1524.00,3.2426
1523.00,3.2534
1522.00,3.2625
1521.00,3.2716
1520.00,3.2803
1519.00,3.2872
1518.00,3.2961
1517.00,3.3060
1516.00,3.3147
1515.00,3.3225
1514.00,3.3327
1513.00,3.3482
1512.00,3.3632
1511.00,3.3705
1510.00,3.3698
1509.00,3.3654
1508.00,3.3641
1507.00,3.3751
1506.00,3.4013
1505.00,3.4168
1504.00,3.4199
1503.00,3.4325
1502.00,3.4405
1501.00,3.4316
1500.00,3.4160
1499.00,3.4117
1498.00,3.4280
1497.00,3.4564
1496.00,3.4758
1495.00,3.4722
1494.00,3.4568
1493.00,3.4482
1492.00,3.4507
1491.00,3.4586
1490.00,3.4683
1489.00,3.4759
1488.00,3.4734
1487.00,3.4605
1486.00,3.4453
1485.00,3.4332
1484.00,3.4250
1483.00,3.4173
1482.00,3.4058
1481.00,3.3929
1480.00,3.3881
1479.00,3.3968
1478.00,3.4117
1477.00,3.4160
1476.00,3.4001
1475.00,3.3739
1474.00,3.3540
1473.00,3.3492
1472.00,3.3573
1471.00,3.3666
1470.00,3.3694
1469.00,3.3684
1468.00,3.3643
1467.00,3.3560
1466.00,3.3477
1465.00,3.3445
1464.00,3.3476
1463.00,3.3548
1462.00,3.3662
1461.00,3.3848
1460.00,3.4102
1459.00,3.4412
1458.00,3.4781
1457.00,3.5176
1456.00,3.5397
1455.00,3.5348
1454.00,3.5334
1453.00,3.5574
1452.00,3.5995
1451.00,3.6452
1450.00,3.6818
1449.00,3.7058
1448.00,3.7173
1447.00,3.7148
1446.00,3.7028
1445.00,3.6913
1444.00,3.6836
1443.00,3.6731
1442.00,3.6569
1441.00,3.6430
1440.00,3.6349
1439.00,3.6210
1438.00,3.5912
1437.00,3.5567
1436.00,3.5397
1435.00,3.5448
1434.00,3.5573
1433.00,3.5667
1432.00,3.5711
1431.00,3.5706
1430.00,3.5634
1429.00,3.5481
1428.00,3.5289
1427.00,3.5141
1426.00,3.5108
1425.00,3.5188
1424.00,3.5325
1423.00,3.5449
1422.00,3.5504
1421.00,3.5440
1420.00,3.5183
1419.00,3.4736
1418.00,3.4301
1417.00,3.4080
1416.00,3.4065
1415.00,3.4102
1414.00,3.4039
1413.00,3.3878
1412.00,3.3736
1411.00,3.3666
1410.00,3.3586
1409.00,3.3402
1408.00,3.3121
1407.00,3.2799
1406.00,3.2487
1405.00,3.2231
1404.00,3.2065
1403.00,3.1982
1402.00,3.1927
1401.00,3.1827
1400.00,3.1639
1399.00,3.1403
1398.00,3.1217
1397.00,3.1146
1396.00,3.1172
1395.00,3.1217
1394.00,3.1218
1393.00,3.1212
1392.00,3.1302
1391.00,3.1522
1390.00,3.1781
1389.00,3.1975
1388.00,3.2108
1387.00,3.2286
1386.00,3.2608
1385.00,3.3100
1384.00,3.3732
1383.00,3.4444
1382.00,3.5145
1381.00,3.5744
1380.00,3.6211
1379.00,3.6561
1378.00,3.6847
1377.00,3.7163
1376.00,3.7507
1375.00,3.7631
1374.00,3.7256
1373.00,3.6407
1372.00,3.5346
1371.00,3.4323
1370.00,3.3461
1369.00,3.2788
1368.00,3.2318
1367.00,3.2056
1366.00,3.1973
1365.00,3.2006
1364.00,3.2084
1363.00,3.2169
1362.00,3.2266
1361.00,3.2398
1360.00,3.2591
1359.00,3.2846
1358.00,3.3137
1357.00,3.3454
1356.00,3.3817
1355.00,3.4197
1354.00,3.4468
1353.00,3.4515
1352.00,3.4398
1351.00,3.4309
1350.00,3.4379
1349.00,3.4604
1348.00,3.4887
1347.00,3.5130
1346.00,3.5282
1345.00,3.5332
1344.00,3.5337
1343.00,3.5386
1342.00,3.5515
1341.00,3.5663
1340.00,3.5726
1339.00,3.5669
1338.00,3.5553
1337.00,3.5472
1336.00,3.5493
1335.00,3.5626
1334.00,3.5828
1333.00,3.6012
1332.00,3.6089
1331.00,3.6036
1330.00,3.5902
1329.00,3.5722
1328.00,3.5511
1327.00,3.5326
1326.00,3.5250
1325.00,3.5306
1324.00,3.5415
1323.00,3.5458
1322.00,3.5416
1321.00,3.5392
1320.00,3.5469
1319.00,3.5638
1318.00,3.5829
1317.00,3.6008
1316.00,3.6216
1315.00,3.6478
1314.00,3.6712
1313.00,3.6786
1312.00,3.6670
1311.00,3.6470
1310.00,3.6288
1309.00,3.6148
1308.00,3.6024
1307.00,3.5886
1306.00,3.5749
1305.00,3.5649
1304.00,3.5575
1303.00,3.5475
1302.00,3.5335
1301.00,3.5182
1300.00,3.5008
1299.00,3.4764
1298.00,3.4431
1297.00,3.4085
1296.00,3.3836
1295.00,3.3737
1294.00,3.3737
1293.00,3.3722
1292.00,3.3607
1291.00,3.3409
1290.00,3.3191
1289.00,3.2981
1288.00,3.2753
1287.00,3.2466
1286.00,3.2111
1285.00,3.1718
1284.00,3.1320
1283.00,3.0933
1282.00,3.0551
1281.00,3.0174
1280.00,2.9805
1279.00,2.9450
1278.00,2.9114
1277.00,2.8790
1276.00,2.8460
1275.00,2.8099
1274.00,2.7689
1273.00,2.7224
1272.00,2.6714
1271.00,2.6189
1270.00,2.5683
1269.00,2.5222
1268.00,2.4805
1267.00,2.4421
1266.00,2.4061
1265.00,2.3732
1264.00,2.3453
1263.00,2.3252
1262.00,2.3157
1261.00,2.3190
1260.00,2.3357
1259.00,2.3650
1258.00,2.4050
1257.00,2.4533
1256.00,2.5069
1255.00,2.5628
1254.00,2.6189
1253.00,2.6747
1252.00,2.7313
1251.00,2.7886
1250.00,2.8458
1249.00,2.9017
1248.00,2.9563
1247.00,3.0089
1246.00,3.0574
1245.00,3.1008
1244.00,3.1402
1243.00,3.1771
1242.00,3.2121
1241.00,3.2449
1240.00,3.2768
1239.00,3.3089
1238.00,3.3405
1237.00,3.3679
1236.00,3.3848
1235.00,3.3922
1234.00,3.4020
1233.00,3.4278
1232.00,3.4705
1231.00,3.5134
1230.00,3.5375
1229.00,3.5474
1228.00,3.5629
1227.00,3.5890
1226.00,3.6110
1225.00,3.6160
1224.00,3.6109
1223.00,3.6089
1222.00,3.6146
1221.00,3.6279
1220.00,3.6456
1219.00,3.6623
1218.00,3.6759
1217.00,3.6874
1216.00,3.6945
1215.00,3.6862
1214.00,3.6570
1213.00,3.6235
1212.00,3.6070
1211.00,3.6081
1210.00,3.6107
1209.00,3.6082
1208.00,3.6105
1207.00,3.6217
1206.00,3.6271
1205.00,3.6158
1204.00,3.6022
1203.00,3.6087
1202.00,3.6415
1201.00,3.6876
1200.00,3.7253
1199.00,3.7396
1198.00,3.7357
1197.00,3.7308
1196.00,3.7426
1195.00,3.7728
1194.00,3.7929
1193.00,3.7781
1192.00,3.7531
1191.00,3.7559
1190.00,3.7951
1189.00,3.8434
1188.00,3.8571
1187.00,3.8382
1186.00,3.8280
1185.00,3.8409
1184.00,3.8612
1183.00,3.8669
1182.00,3.8478
1181.00,3.8084
1180.00,3.7594
1179.00,3.7129
1178.00,3.6782
1177.00,3.6615
1176.00,3.6679
1175.00,3.6963
1174.00,3.7325
1173.00,3.7538
1172.00,3.7517
1171.00,3.7434
1170.00,3.7412
1169.00,3.7344
1168.00,3.7111
1167.00,3.6749
1166.00,3.6379
1165.00,3.6117
1164.00,3.6003
1163.00,3.5955
1162.00,3.5853
1161.00,3.5704
1160.00,3.5674
1159.00,3.5917
1158.00,3.6310
1157.00,3.6480
1156.00,3.6306
1155.00,3.5922
1154.00,3.5393
1153.00,3.4802
1152.00,3.4260
1151.00,3.3843
1150.00,3.3521
1149.00,3.3186
1148.00,3.2790
1147.00,3.2411
1146.00,3.2138
1145.00,3.1939
1144.00,3.1696
1143.00,3.1326
1142.00,3.0838
1141.00,3.0285
1140.00,2.9703
1139.00,2.9119
1138.00,2.8567
1137.00,2.8079
1136.00,2.7681
1135.00,2.7391
1134.00,2.7215
1133.00,2.7149
1132.00,2.7185
1131.00,2.7318
1130.00,2.7550
1129.00,2.7895
1128.00,2.8368
1127.00,2.8962
1126.00,2.9629
1125.00,3.0297
1124.00,3.0923
1123.00,3.1506
1122.00,3.2003
1121.00,3.2314
1120.00,3.2396
1119.00,3.2343
1118.00,3.2275
1117.00,3.2207
1116.00,3.2109
1115.00,3.2011
1114.00,3.2009
1113.00,3.2158
1112.00,3.2445
1111.00,3.2848
1110.00,3.3373
1109.00,3.4007
1108.00,3.4656
1107.00,3.5189
1106.00,3.5571
1105.00,3.5852
1104.00,3.6067
1103.00,3.6236
1102.00,3.6435
1101.00,3.6738
1100.00,3.7051
1099.00,3.7156
1098.00,3.7102
1097.00,3.7159
1096.00,3.7372
1095.00,3.7584
1094.00,3.7632
1093.00,3.7407
1092.00,3.7012
1091.00,3.6641
1090.00,3.6414
1089.00,3.6327
1088.00,3.6323
1087.00,3.6489
1086.00,3.6884
1085.00,3.7283
1084.00,3.7483
1083.00,3.7663
1082.00,3.8037
1081.00,3.8556
1080.00,3.8930
1079.00,3.8966
1078.00,3.8822
1077.00,3.8774
1076.00,3.8855
1075.00,3.8790
1074.00,3.8611
1073.00,3.8805
1072.00,3.9441
1071.00,3.9878
1070.00,3.9968
1069.00,4.0598
1068.00,4.1403
1067.00,4.0323
1066.00,3.8691
1065.00,3.7671
1064.00,3.7164
1063.00,3.7054
1062.00,3.7244
1061.00,3.7641
1060.00,3.8221
1059.00,3.9054
1058.00,4.0079
1057.00,4.0880
1056.00,4.0960
1055.00,4.0404
1054.00,3.9618
1053.00,3.8997
1052.00,3.8923
1051.00,3.9626
1050.00,4.0953
1049.00,4.2016
1048.00,4.2090
1047.00,4.1293
1046.00,4.0473
1045.00,4.0428
1044.00,4.1076
1043.00,4.1583
1042.00,4.0870
1041.00,3.9699
1040.00,3.9140
1039.00,3.9336
1038.00,3.9909
1037.00,4.0238
1036.00,4.0055
1035.00,3.9078
1034.00,3.7758
1033.00,3.6984
1032.00,3.6997
1031.00,3.7632
1030.00,3.8473
1029.00,3.9101
1028.00,3.9643
1027.00,4.0586
1026.00,4.2198
1025.00,4.3815
1024.00,4.3816
1023.00,4.2739
1022.00,4.1608
1021.00,4.0584
1020.00,3.9710
1019.00,3.8983
1018.00,3.8392
1017.00,3.8045
1016.00,3.8140
1015.00,3.8788
1014.00,3.9711
1013.00,4.0275
1012.00,4.0032
1011.00,3.9042
1010.00,3.8130
1009.00,3.7881
1008.00,3.8280
1007.00,3.9043
1006.00,3.9802
1005.00,3.9925
1004.00,3.9290
1003.00,3.8808
1002.00,3.8845
1001.00,3.9179
1000.00,3.9391
999.00,3.9140
998.00,3.8476
997.00,3.7536
996.00,3.6584
995.00,3.6022
994.00,3.6026
993.00,3.6346
992.00,3.6397
991.00,3.5874
990.00,3.5138
989.00,3.4571
988.00,3.4245
987.00,3.4054
986.00,3.3855
985.00,3.3583
984.00,3.3280
983.00,3.3037
982.00,3.2944
981.00,3.3023
980.00,3.3209
979.00,3.3440
978.00,3.3743
977.00,3.4187
976.00,3.4763
975.00,3.5361
974.00,3.5896
973.00,3.6469
972.00,3.7238
971.00,3.8033
970.00,3.8274
969.00,3.7831
968.00,3.7355
967.00,3.7339
966.00,3.7809
965.00,3.8472
964.00,3.8911
963.00,3.8937
962.00,3.8722
961.00,3.8479
960.00,3.8294
959.00,3.8190
958.00,3.8097
957.00,3.7862
956.00,3.7482
955.00,3.7292
954.00,3.7635
953.00,3.8639
952.00,3.9530
951.00,3.9120
950.00,3.8515
949.00,3.8607
948.00,3.9180
947.00,3.9676
946.00,3.9735
945.00,3.9574
944.00,3.9509
943.00,3.9739
942.00,4.0520
941.00,4.1545
940.00,4.1562
939.00,4.1460
938.00,4.2439
937.00,4.4921
936.00,4.8596
935.00,4.8263
934.00,4.7068
933.00,4.4955
932.00,4.2278
931.00,4.0445
930.00,3.9388
929.00,3.9081
928.00,3.9380
927.00,3.9875
926.00,4.0108
925.00,4.0087
924.00,3.9824
923.00,3.9154
922.00,3.8473
921.00,3.8331
920.00,3.8977
919.00,4.0348
918.00,4.1886
917.00,4.2578
916.00,4.2786
915.00,4.3621
914.00,4.3412
913.00,4.1949
912.00,4.0716
911.00,3.9489
910.00,3.8896
909.00,3.9568
908.00,4.1595
907.00,4.5142
906.00,4.7803
905.00,4.4659
904.00,4.2302
903.00,4.1075
902.00,4.0476
901.00,4.0453
900.00,4.0907
899.00,4.1267
898.00,4.1190
897.00,4.1176
896.00,4.2483
895.00,4.5101
894.00,4.3460
893.00,4.1523
892.00,4.1039
891.00,4.1013
890.00,4.1308
889.00,4.1299
888.00,4.0627
887.00,4.0147
886.00,4.0945
885.00,4.2662
884.00,4.2480
883.00,4.1967
882.00,4.2291
881.00,4.2003
880.00,4.2123
879.00,4.5399
878.00,4.8699
877.00,4.5908
876.00,4.5446
875.00,4.3414
874.00,4.2599
873.00,4.2347
872.00,4.1211
871.00,4.0464
870.00,4.0009
869.00,3.9681
868.00,4.0191
867.00,4.1741
866.00,4.1798
865.00,4.0619
864.00,4.0391
863.00,4.1039
862.00,4.2266
861.00,4.2129
860.00,4.0581
859.00,3.9708
858.00,3.9145
857.00,3.8746
856.00,3.9305
855.00,4.0713
854.00,4.0755
853.00,3.9715
852.00,3.9637
851.00,4.0548
850.00,4.2339
849.00,4.4307
848.00,4.2421
847.00,3.9642
846.00,3.8054
845.00,3.7196
844.00,3.6751
843.00,3.6570
842.00,3.6742
841.00,3.7475
840.00,3.8814
839.00,4.0174
838.00,4.0410
837.00,3.9883
836.00,3.9926
835.00,4.0717
834.00,4.0785
833.00,3.9731
832.00,3.8531
831.00,3.7562
830.00,3.7178
829.00,3.7411
828.00,3.7940
827.00,3.8264
826.00,3.8099
825.00,3.7614
824.00,3.7161
823.00,3.7115
822.00,3.7645
821.00,3.8465
820.00,3.8705
819.00,3.8009
818.00,3.7181
817.00,3.6785
816.00,3.6796
815.00,3.6980
814.00,3.7218
813.00,3.7590
812.00,3.8057
811.00,3.8546
810.00,3.9174
809.00,4.0432
808.00,4.2675
807.00,4.2714
806.00,4.0444
805.00,3.8768
804.00,3.7462
803.00,3.6569
802.00,3.6236
801.00,3.6506
800.00,3.7525
799.00,3.9448
798.00,4.3047
797.00,4.5910
796.00,4.2560
795.00,4.0431
794.00,3.9237
793.00,3.8646
792.00,3.8624
791.00,3.8756
790.00,3.8747
789.00,3.8333
788.00,3.7542
787.00,3.6574
786.00,3.5836
785.00,3.5659
784.00,3.6183
783.00,3.7232
782.00,3.8217
781.00,3.8686
780.00,3.8939
779.00,3.9480
778.00,4.0002
777.00,3.9905
776.00,3.9585
775.00,3.9353
774.00,3.9221
773.00,3.9401
772.00,4.0138
771.00,4.1791
770.00,4.3901
769.00,4.4349
768.00,4.4889
767.00,4.5306
766.00,4.4162
765.00,4.3564
764.00,4.4221
763.00,4.6225
762.00,4.3832
761.00,4.0602
760.00,3.9483
759.00,3.9748
758.00,4.0785
757.00,4.1947
756.00,4.3048
755.00,4.3826
754.00,4.3750
753.00,4.2939
752.00,4.1860
751.00,4.0348
750.00,3.8970
749.00,3.8569
748.00,3.9711
747.00,4.2429
746.00,4.2794
745.00,4.1249
744.00,4.0615
743.00,4.1461
742.00,4.4915
741.00,4.5038
740.00,4.3246
739.00,4.2006
738.00,3.9669
737.00,3.8619
736.00,3.8948
735.00,4.0155
734.00,4.1724
733.00,4.3912
732.00,4.5406
731.00,4.3968
730.00,4.4228
729.00,4.5427
728.00,4.4755
727.00,4.6608
726.00,5.5218
725.00,4.6369
724.00,4.1974
723.00,4.0056
722.00,3.9009
721.00,3.8551
720.00,3.8653
719.00,3.9678
718.00,4.1167
717.00,4.0554
716.00,3.8890
715.00,3.8124
714.00,3.8169
713.00,3.8609
712.00,3.9348
711.00,4.0431
710.00,4.3118
709.00,4.4105
708.00,3.9749
707.00,3.7623
706.00,3.6538
705.00,3.5734
704.00,3.5385
703.00,3.5729
702.00,3.6995
701.00,3.8897
700.00,4.0430
