Created as New Dataset,Sample 034 By Administrator Date Wednesday, November 24 2021
cm-1,A
7502.00,0.6430
7501.00,0.6352
7500.00,0.6276
7499.00,0.6201
7498.00,0.6127
7497.00,0.6054
7496.00,0.5982
7495.00,0.5912
7494.00,0.5843
7493.00,0.5775
7492.00,0.5706
7491.00,0.5638
7490.00,0.5572
7489.00,0.5513
7488.00,0.5458
7487.00,0.5406
7486.00,0.5360
7485.00,0.5321
7484.00,0.5286
7483.00,0.5252
7482.00,0.5218
7481.00,0.5186
7480.00,0.5160
7479.00,0.5139
7478.00,0.5119
7477.00,0.5101
7476.00,0.5084
7475.00,0.5070
7474.00,0.5059
7473.00,0.5054
7472.00,0.5056
7471.00,0.5065
7470.00,0.5080
7469.00,0.5103
7468.00,0.5130
7467.00,0.5161
7466.00,0.5193
7465.00,0.5230
7464.00,0.5272
7463.00,0.5318
7462.00,0.5368
7461.00,0.5424
7460.00,0.5486
7459.00,0.5553
7458.00,0.5624
7457.00,0.5697
7456.00,0.5771
7455.00,0.5843
7454.00,0.5914
7453.00,0.5986
7452.00,0.6062
7451.00,0.6143
7450.00,0.6228
7449.00,0.6314
7448.00,0.6397
7447.00,0.6480
7446.00,0.6564
7445.00,0.6648
7444.00,0.6733
7443.00,0.6820
7442.00,0.6909
7441.00,0.7003
7440.00,0.7100
7439.00,0.7201
7438.00,0.7303
7437.00,0.7404
7436.00,0.7499
7435.00,0.7585
7434.00,0.7665
7433.00,0.7741
7432.00,0.7817
7431.00,0.7893
7430.00,0.7971
7429.00,0.8051
7428.00,0.8137
7427.00,0.8226
7426.00,0.8315
7425.00,0.8399
7424.00,0.8474
7423.00,0.8541
7422.00,0.8602
7421.00,0.8654
7420.00,0.8698
7419.00,0.8741
7418.00,0.8788
7417.00,0.8837
7416.00,0.8881
7415.00,0.8923
7414.00,0.8968
7413.00,0.9016
7412.00,0.9057
7411.00,0.9089
7410.00,0.9119
7409.00,0.9151
7408.00,0.9178
7407.00,0.9194
7406.00,0.9202
7405.00,0.9213
7404.00,0.9227
7403.00,0.9236
7402.00,0.9235
7401.00,0.9228
7400.00,0.9219
7399.00,0.9208
7398.00,0.9190
7397.00,0.9166
7396.00,0.9137
7395.00,0.9104
7394.00,0.9068
7393.00,0.9034
7392.00,0.9001
7391.00,0.8967
7390.00,0.8929
7389.00,0.8886
7388.00,0.8841
7387.00,0.8798
7386.00,0.8761
7385.00,0.8731
7384.00,0.8702
7383.00,0.8670
7382.00,0.8635
7381.00,0.8601
7380.00,0.8567
7379.00,0.8526
7378.00,0.8474
7377.00,0.8407
7376.00,0.8329
7375.00,0.8244
7374.00,0.8155
7373.00,0.8064
7372.00,0.7975
7371.00,0.7889
7370.00,0.7808
7369.00,0.7734
7368.00,0.7665
7367.00,0.7600
7366.00,0.7536
7365.00,0.7472
7364.00,0.7410
7363.00,0.7349
7362.00,0.7290
7361.00,0.7234
7360.00,0.7179
7359.00,0.7124
7358.00,0.7068
7357.00,0.7014
7356.00,0.6961
7355.00,0.6910
7354.00,0.6860
7353.00,0.6811
7352.00,0.6765
7351.00,0.6718
7350.00,0.6669
7349.00,0.6616
7348.00,0.6558
7347.00,0.6497
7346.00,0.6437
7345.00,0.6380
7344.00,0.6329
7343.00,0.6284
7342.00,0.6247
7341.00,0.6219
7340.00,0.6195
7339.00,0.6171
7338.00,0.6147
7337.00,0.6127
7336.00,0.6110
7335.00,0.6096
7334.00,0.6082
7333.00,0.6073
7332.00,0.6072
7331.00,0.6079
7330.00,0.6090
7329.00,0.6106
7328.00,0.6125
7327.00,0.6151
7326.00,0.6181
7325.00,0.6214
7324.00,0.6249
7323.00,0.6287
7322.00,0.6330
7321.00,0.6378
7320.00,0.6431
7319.00,0.6487
7318.00,0.6547
7317.00,0.6610
7316.00,0.6678
7315.00,0.6753
7314.00,0.6832
7313.00,0.6914
7312.00,0.6997
7311.00,0.7079
7310.00,0.7159
7309.00,0.7239
7308.00,0.7320
7307.00,0.7402
7306.00,0.7486
7305.00,0.7574
7304.00,0.7668
7303.00,0.7767
7302.00,0.7869
7301.00,0.7971
7300.00,0.8070
7299.00,0.8164
7298.00,0.8255
7297.00,0.8343
7296.00,0.8433
7295.00,0.8526
7294.00,0.8619
7293.00,0.8706
7292.00,0.8786
7291.00,0.8861
7290.00,0.8936
7289.00,0.9014
7288.00,0.9094
7287.00,0.9174
7286.00,0.9257
7285.00,0.9341
7284.00,0.9424
7283.00,0.9501
7282.00,0.9572
7281.00,0.9637
7280.00,0.9695
7279.00,0.9748
7278.00,0.9804
7277.00,0.9865
7276.00,0.9933
7275.00,0.9999
7274.00,1.0060
7273.00,1.0115
7272.00,1.0166
7271.00,1.0215
7270.00,1.0262
7269.00,1.0306
7268.00,1.0345
7267.00,1.0383
7266.00,1.0421
7265.00,1.0460
7264.00,1.0494
7263.00,1.0520
7262.00,1.0538
7261.00,1.0550
7260.00,1.0559
7259.00,1.0564
7258.00,1.0566
7257.00,1.0566
7256.00,1.0566
7255.00,1.0562
7254.00,1.0555
7253.00,1.0542
7252.00,1.0525
7251.00,1.0505
7250.00,1.0482
7249.00,1.0452
7248.00,1.0416
7247.00,1.0376
7246.00,1.0341
7245.00,1.0309
7244.00,1.0276
7243.00,1.0233
7242.00,1.0183
7241.00,1.0132
7240.00,1.0083
7239.00,1.0033
7238.00,0.9979
7237.00,0.9924
7236.00,0.9867
7235.00,0.9809
7234.00,0.9746
7233.00,0.9676
7232.00,0.9598
7231.00,0.9515
7230.00,0.9432
7229.00,0.9350
7228.00,0.9271
7227.00,0.9193
7226.00,0.9116
7225.00,0.9038
7224.00,0.8959
7223.00,0.8876
7222.00,0.8787
7221.00,0.8693
7220.00,0.8601
7219.00,0.8511
7218.00,0.8424
7217.00,0.8338
7216.00,0.8251
7215.00,0.8166
7214.00,0.8083
7213.00,0.8004
7212.00,0.7926
7211.00,0.7847
7210.00,0.7767
7209.00,0.7691
7208.00,0.7619
7207.00,0.7553
7206.00,0.7490
7205.00,0.7428
7204.00,0.7367
7203.00,0.7306
7202.00,0.7248
7201.00,0.7195
7200.00,0.7147
7199.00,0.7104
7198.00,0.7065
7197.00,0.7032
7196.00,0.7005
7195.00,0.6984
7194.00,0.6966
7193.00,0.6948
7192.00,0.6932
7191.00,0.6920
7190.00,0.6915
7189.00,0.6917
7188.00,0.6925
7187.00,0.6938
7186.00,0.6956
7185.00,0.6981
7184.00,0.7012
7183.00,0.7049
7182.00,0.7089
7181.00,0.7129
7180.00,0.7171
7179.00,0.7215
7178.00,0.7263
7177.00,0.7314
7176.00,0.7370
7175.00,0.7431
7174.00,0.7497
7173.00,0.7568
7172.00,0.7641
7171.00,0.7717
7170.00,0.7798
7169.00,0.7882
7168.00,0.7968
7167.00,0.8054
7166.00,0.8140
7165.00,0.8227
7164.00,0.8314
7163.00,0.8400
7162.00,0.8486
7161.00,0.8573
7160.00,0.8659
7159.00,0.8743
7158.00,0.8830
7157.00,0.8922
7156.00,0.9017
7155.00,0.9109
7154.00,0.9196
7153.00,0.9281
7152.00,0.9364
7151.00,0.9447
7150.00,0.9530
7149.00,0.9612
7148.00,0.9692
7147.00,0.9769
7146.00,0.9842
7145.00,0.9915
7144.00,0.9987
7143.00,1.0057
7142.00,1.0119
7141.00,1.0175
7140.00,1.0230
7139.00,1.0291
7138.00,1.0360
7137.00,1.0428
7136.00,1.0490
7135.00,1.0545
7134.00,1.0599
7133.00,1.0651
7132.00,1.0696
7131.00,1.0731
7130.00,1.0760
7129.00,1.0788
7128.00,1.0818
7127.00,1.0847
7126.00,1.0870
7125.00,1.0889
7124.00,1.0904
7123.00,1.0914
7122.00,1.0919
7121.00,1.0921
7120.00,1.0923
7119.00,1.0927
7118.00,1.0927
7117.00,1.0921
7116.00,1.0910
7115.00,1.0899
7114.00,1.0887
7113.00,1.0872
7112.00,1.0849
7111.00,1.0822
7110.00,1.0797
7109.00,1.0773
7108.00,1.0750
7107.00,1.0726
7106.00,1.0699
7105.00,1.0663
7104.00,1.0614
7103.00,1.0557
7102.00,1.0498
7101.00,1.0439
7100.00,1.0376
7099.00,1.0308
7098.00,1.0245
7097.00,1.0189
7096.00,1.0137
7095.00,1.0078
7094.00,1.0011
7093.00,0.9939
7092.00,0.9863
7091.00,0.9785
7090.00,0.9709
7089.00,0.9636
7088.00,0.9559
7087.00,0.9473
7086.00,0.9378
7085.00,0.9280
7084.00,0.9187
7083.00,0.9100
7082.00,0.9014
7081.00,0.8927
7080.00,0.8839
7079.00,0.8752
7078.00,0.8668
7077.00,0.8586
7076.00,0.8502
7075.00,0.8415
7074.00,0.8328
7073.00,0.8243
7072.00,0.8164
7071.00,0.8086
7070.00,0.8007
7069.00,0.7926
7068.00,0.7847
7067.00,0.7773
7066.00,0.7706
7065.00,0.7643
7064.00,0.7581
7063.00,0.7521
7062.00,0.7465
7061.00,0.7414
7060.00,0.7367
7059.00,0.7324
7058.00,0.7284
7057.00,0.7250
7056.00,0.7218
7055.00,0.7187
7054.00,0.7158
7053.00,0.7134
7052.00,0.7116
7051.00,0.7105
7050.00,0.7099
7049.00,0.7101
7048.00,0.7108
7047.00,0.7120
7046.00,0.7139
7045.00,0.7162
7044.00,0.7189
7043.00,0.7217
7042.00,0.7250
7041.00,0.7287
7040.00,0.7328
7039.00,0.7373
7038.00,0.7420
7037.00,0.7473
7036.00,0.7532
7035.00,0.7596
7034.00,0.7665
7033.00,0.7735
7032.00,0.7807
7031.00,0.7880
7030.00,0.7955
7029.00,0.8031
7028.00,0.8109
7027.00,0.8190
7026.00,0.8275
7025.00,0.8362
7024.00,0.8450
7023.00,0.8539
7022.00,0.8631
7021.00,0.8725
7020.00,0.8818
7019.00,0.8910
7018.00,0.9002
7017.00,0.9097
7016.00,0.9192
7015.00,0.9285
7014.00,0.9374
7013.00,0.9464
7012.00,0.9554
7011.00,0.9645
7010.00,0.9735
7009.00,0.9821
7008.00,0.9905
7007.00,0.9987
7006.00,1.0066
7005.00,1.0144
7004.00,1.0222
7003.00,1.0301
7002.00,1.0380
7001.00,1.0458
7000.00,1.0532
6999.00,1.0604
6998.00,1.0674
6997.00,1.0743
6996.00,1.0808
6995.00,1.0867
6994.00,1.0923
6993.00,1.0979
6992.00,1.1035
6991.00,1.1088
6990.00,1.1135
6989.00,1.1176
6988.00,1.1214
6987.00,1.1255
6986.00,1.1300
6985.00,1.1341
6984.00,1.1372
6983.00,1.1391
6982.00,1.1404
6981.00,1.1417
6980.00,1.1431
6979.00,1.1442
6978.00,1.1449
6977.00,1.1457
6976.00,1.1467
6975.00,1.1477
6974.00,1.1481
6973.00,1.1478
6972.00,1.1464
6971.00,1.1443
6970.00,1.1422
6969.00,1.1406
6968.00,1.1393
6967.00,1.1371
6966.00,1.1338
6965.00,1.1297
6964.00,1.1252
6963.00,1.1204
6962.00,1.1154
6961.00,1.1103
6960.00,1.1054
6959.00,1.1007
6958.00,1.0962
6957.00,1.0914
6956.00,1.0860
6955.00,1.0798
6954.00,1.0730
6953.00,1.0656
6952.00,1.0580
6951.00,1.0501
6950.00,1.0418
6949.00,1.0332
6948.00,1.0244
6947.00,1.0157
6946.00,1.0072
6945.00,0.9988
6944.00,0.9903
6943.00,0.9817
6942.00,0.9728
6941.00,0.9637
6940.00,0.9544
6939.00,0.9451
6938.00,0.9359
6937.00,0.9267
6936.00,0.9175
6935.00,0.9082
6934.00,0.8989
6933.00,0.8898
6932.00,0.8808
6931.00,0.8719
6930.00,0.8630
6929.00,0.8541
6928.00,0.8454
6927.00,0.8371
6926.00,0.8293
6925.00,0.8217
6924.00,0.8142
6923.00,0.8068
6922.00,0.7998
6921.00,0.7936
6920.00,0.7876
6919.00,0.7818
6918.00,0.7762
6917.00,0.7710
6916.00,0.7664
6915.00,0.7624
6914.00,0.7590
6913.00,0.7561
6912.00,0.7538
6911.00,0.7519
6910.00,0.7506
6909.00,0.7500
6908.00,0.7497
6907.00,0.7498
6906.00,0.7502
6905.00,0.7513
6904.00,0.7531
6903.00,0.7554
6902.00,0.7581
6901.00,0.7614
6900.00,0.7652
6899.00,0.7694
6898.00,0.7739
6897.00,0.7787
6896.00,0.7840
6895.00,0.7897
6894.00,0.7960
6893.00,0.8027
6892.00,0.8097
6891.00,0.8170
6890.00,0.8245
6889.00,0.8323
6888.00,0.8403
6887.00,0.8484
6886.00,0.8566
6885.00,0.8649
6884.00,0.8736
6883.00,0.8823
6882.00,0.8911
6881.00,0.9001
6880.00,0.9092
6879.00,0.9184
6878.00,0.9276
6877.00,0.9369
6876.00,0.9463
6875.00,0.9558
6874.00,0.9652
6873.00,0.9742
6872.00,0.9827
6871.00,0.9910
6870.00,0.9994
6869.00,1.0080
6868.00,1.0167
6867.00,1.0252
6866.00,1.0336
6865.00,1.0420
6864.00,1.0501
6863.00,1.0580
6862.00,1.0653
6861.00,1.0720
6860.00,1.0785
6859.00,1.0849
6858.00,1.0916
6857.00,1.0983
6856.00,1.1047
6855.00,1.1106
6854.00,1.1160
6853.00,1.1213
6852.00,1.1262
6851.00,1.1306
6850.00,1.1344
6849.00,1.1378
6848.00,1.1408
6847.00,1.1438
6846.00,1.1467
6845.00,1.1493
6844.00,1.1515
6843.00,1.1532
6842.00,1.1548
6841.00,1.1565
6840.00,1.1578
6839.00,1.1585
6838.00,1.1585
6837.00,1.1582
6836.00,1.1576
6835.00,1.1566
6834.00,1.1548
6833.00,1.1526
6832.00,1.1502
6831.00,1.1480
6830.00,1.1458
6829.00,1.1435
6828.00,1.1408
6827.00,1.1374
6826.00,1.1336
6825.00,1.1298
6824.00,1.1259
6823.00,1.1218
6822.00,1.1172
6821.00,1.1119
6820.00,1.1061
6819.00,1.0999
6818.00,1.0932
6817.00,1.0861
6816.00,1.0785
6815.00,1.0710
6814.00,1.0637
6813.00,1.0566
6812.00,1.0491
6811.00,1.0412
6810.00,1.0328
6809.00,1.0242
6808.00,1.0155
6807.00,1.0068
6806.00,0.9980
6805.00,0.9891
6804.00,0.9802
6803.00,0.9709
6802.00,0.9613
6801.00,0.9514
6800.00,0.9415
6799.00,0.9315
6798.00,0.9217
6797.00,0.9123
6796.00,0.9031
6795.00,0.8938
6794.00,0.8846
6793.00,0.8756
6792.00,0.8667
6791.00,0.8580
6790.00,0.8493
6789.00,0.8409
6788.00,0.8328
6787.00,0.8249
6786.00,0.8172
6785.00,0.8096
6784.00,0.8022
6783.00,0.7951
6782.00,0.7883
6781.00,0.7820
6780.00,0.7763
6779.00,0.7709
6778.00,0.7659
6777.00,0.7612
6776.00,0.7570
6775.00,0.7532
6774.00,0.7499
6773.00,0.7469
6772.00,0.7444
6771.00,0.7422
6770.00,0.7406
6769.00,0.7396
6768.00,0.7391
6767.00,0.7390
6766.00,0.7396
6765.00,0.7408
6764.00,0.7427
6763.00,0.7450
6762.00,0.7476
6761.00,0.7508
6760.00,0.7545
6759.00,0.7587
6758.00,0.7633
6757.00,0.7684
6756.00,0.7739
6755.00,0.7796
6754.00,0.7856
6753.00,0.7920
6752.00,0.7988
6751.00,0.8060
6750.00,0.8134
6749.00,0.8210
6748.00,0.8291
6747.00,0.8375
6746.00,0.8461
6745.00,0.8550
6744.00,0.8640
6743.00,0.8731
6742.00,0.8823
6741.00,0.8915
6740.00,0.9008
6739.00,0.9101
6738.00,0.9196
6737.00,0.9293
6736.00,0.9390
6735.00,0.9489
6734.00,0.9589
6733.00,0.9686
6732.00,0.9779
6731.00,0.9869
6730.00,0.9960
6729.00,1.0053
6728.00,1.0146
6727.00,1.0237
6726.00,1.0327
6725.00,1.0417
6724.00,1.0505
6723.00,1.0589
6722.00,1.0668
6721.00,1.0746
6720.00,1.0821
6719.00,1.0896
6718.00,1.0967
6717.00,1.1037
6716.00,1.1106
6715.00,1.1174
6714.00,1.1242
6713.00,1.1305
6712.00,1.1363
6711.00,1.1417
6710.00,1.1471
6709.00,1.1524
6708.00,1.1576
6707.00,1.1624
6706.00,1.1669
6705.00,1.1712
6704.00,1.1751
6703.00,1.1784
6702.00,1.1809
6701.00,1.1831
6700.00,1.1848
6699.00,1.1861
6698.00,1.1874
6697.00,1.1887
6696.00,1.1900
6695.00,1.1908
6694.00,1.1910
6693.00,1.1905
6692.00,1.1896
6691.00,1.1883
6690.00,1.1866
6689.00,1.1845
6688.00,1.1822
6687.00,1.1799
6686.00,1.1776
6685.00,1.1751
6684.00,1.1722
6683.00,1.1684
6682.00,1.1640
6681.00,1.1593
6680.00,1.1545
6679.00,1.1495
6678.00,1.1442
6677.00,1.1391
6676.00,1.1339
6675.00,1.1283
6674.00,1.1221
6673.00,1.1153
6672.00,1.1081
6671.00,1.1003
6670.00,1.0919
6669.00,1.0833
6668.00,1.0749
6667.00,1.0667
6666.00,1.0585
6665.00,1.0501
6664.00,1.0415
6663.00,1.0327
6662.00,1.0236
6661.00,1.0139
6660.00,1.0037
6659.00,0.9933
6658.00,0.9829
6657.00,0.9726
6656.00,0.9624
6655.00,0.9522
6654.00,0.9421
6653.00,0.9323
6652.00,0.9224
6651.00,0.9125
6650.00,0.9026
6649.00,0.8928
6648.00,0.8832
6647.00,0.8738
6646.00,0.8645
6645.00,0.8555
6644.00,0.8468
6643.00,0.8383
6642.00,0.8301
6641.00,0.8223
6640.00,0.8150
6639.00,0.8079
6638.00,0.8013
6637.00,0.7950
6636.00,0.7893
6635.00,0.7840
6634.00,0.7792
6633.00,0.7750
6632.00,0.7713
6631.00,0.7680
6630.00,0.7652
6629.00,0.7630
6628.00,0.7613
6627.00,0.7601
6626.00,0.7594
6625.00,0.7594
6624.00,0.7601
6623.00,0.7614
6622.00,0.7634
6621.00,0.7661
6620.00,0.7692
6619.00,0.7727
6618.00,0.7766
6617.00,0.7810
6616.00,0.7858
6615.00,0.7908
6614.00,0.7962
6613.00,0.8021
6612.00,0.8087
6611.00,0.8158
6610.00,0.8234
6609.00,0.8312
6608.00,0.8392
6607.00,0.8473
6606.00,0.8557
6605.00,0.8643
6604.00,0.8731
6603.00,0.8819
6602.00,0.8909
6601.00,0.9001
6600.00,0.9095
6599.00,0.9190
6598.00,0.9286
6597.00,0.9383
6596.00,0.9481
6595.00,0.9578
6594.00,0.9675
6593.00,0.9773
6592.00,0.9871
6591.00,0.9968
6590.00,1.0062
6589.00,1.0154
6588.00,1.0244
6587.00,1.0332
6586.00,1.0418
6585.00,1.0502
6584.00,1.0585
6583.00,1.0667
6582.00,1.0749
6581.00,1.0831
6580.00,1.0912
6579.00,1.0991
6578.00,1.1064
6577.00,1.1132
6576.00,1.1197
6575.00,1.1262
6574.00,1.1324
6573.00,1.1382
6572.00,1.1436
6571.00,1.1486
6570.00,1.1535
6569.00,1.1584
6568.00,1.1631
6567.00,1.1672
6566.00,1.1706
6565.00,1.1735
6564.00,1.1763
6563.00,1.1787
6562.00,1.1807
6561.00,1.1822
6560.00,1.1835
6559.00,1.1847
6558.00,1.1856
6557.00,1.1860
6556.00,1.1858
6555.00,1.1852
6554.00,1.1846
6553.00,1.1841
6552.00,1.1835
6551.00,1.1827
6550.00,1.1813
6549.00,1.1793
6548.00,1.1767
6547.00,1.1737
6546.00,1.1703
6545.00,1.1668
6544.00,1.1629
6543.00,1.1585
6542.00,1.1534
6541.00,1.1480
6540.00,1.1420
6539.00,1.1356
6538.00,1.1288
6537.00,1.1219
6536.00,1.1151
6535.00,1.1083
6534.00,1.1012
6533.00,1.0939
6532.00,1.0864
6531.00,1.0787
6530.00,1.0710
6529.00,1.0631
6528.00,1.0549
6527.00,1.0462
6526.00,1.0368
6525.00,1.0271
6524.00,1.0172
6523.00,1.0072
6522.00,0.9971
6521.00,0.9871
6520.00,0.9773
6519.00,0.9676
6518.00,0.9579
6517.00,0.9482
6516.00,0.9384
6515.00,0.9285
6514.00,0.9185
6513.00,0.9085
6512.00,0.8986
6511.00,0.8888
6510.00,0.8791
6509.00,0.8698
6508.00,0.8608
6507.00,0.8520
6506.00,0.8435
6505.00,0.8350
6504.00,0.8267
6503.00,0.8187
6502.00,0.8108
6501.00,0.8031
6500.00,0.7956
6499.00,0.7886
6498.00,0.7821
6497.00,0.7760
6496.00,0.7703
6495.00,0.7650
6494.00,0.7602
6493.00,0.7559
6492.00,0.7521
6491.00,0.7488
6490.00,0.7459
6489.00,0.7435
6488.00,0.7417
6487.00,0.7404
6486.00,0.7398
6485.00,0.7395
6484.00,0.7398
6483.00,0.7408
6482.00,0.7425
6481.00,0.7448
6480.00,0.7476
6479.00,0.7509
6478.00,0.7548
6477.00,0.7591
6476.00,0.7638
6475.00,0.7687
6474.00,0.7741
6473.00,0.7801
6472.00,0.7867
6471.00,0.7937
6470.00,0.8011
6469.00,0.8090
6468.00,0.8172
6467.00,0.8255
6466.00,0.8342
6465.00,0.8431
6464.00,0.8523
6463.00,0.8616
6462.00,0.8712
6461.00,0.8809
6460.00,0.8906
6459.00,0.9001
6458.00,0.9097
6457.00,0.9196
6456.00,0.9297
6455.00,0.9399
6454.00,0.9503
6453.00,0.9606
6452.00,0.9709
6451.00,0.9808
6450.00,0.9906
6449.00,1.0004
6448.00,1.0103
6447.00,1.0202
6446.00,1.0300
6445.00,1.0398
6444.00,1.0496
6443.00,1.0591
6442.00,1.0680
6441.00,1.0764
6440.00,1.0846
6439.00,1.0927
6438.00,1.1004
6437.00,1.1078
6436.00,1.1149
6435.00,1.1220
6434.00,1.1293
6433.00,1.1365
6432.00,1.1434
6431.00,1.1497
6430.00,1.1557
6429.00,1.1613
6428.00,1.1665
6427.00,1.1713
6426.00,1.1757
6425.00,1.1801
6424.00,1.1846
6423.00,1.1888
6422.00,1.1925
6421.00,1.1954
6420.00,1.1978
6419.00,1.1997
6418.00,1.2014
6417.00,1.2027
6416.00,1.2038
6415.00,1.2047
6414.00,1.2055
6413.00,1.2060
6412.00,1.2062
6411.00,1.2060
6410.00,1.2052
6409.00,1.2040
6408.00,1.2024
6407.00,1.2002
6406.00,1.1975
6405.00,1.1945
6404.00,1.1913
6403.00,1.1878
6402.00,1.1839
6401.00,1.1795
6400.00,1.1747
6399.00,1.1695
6398.00,1.1641
6397.00,1.1586
6396.00,1.1531
6395.00,1.1475
6394.00,1.1416
6393.00,1.1354
6392.00,1.1286
6391.00,1.1211
6390.00,1.1132
6389.00,1.1051
6388.00,1.0970
6387.00,1.0886
6386.00,1.0799
6385.00,1.0709
6384.00,1.0617
6383.00,1.0522
6382.00,1.0422
6381.00,1.0319
6380.00,1.0214
6379.00,1.0109
6378.00,1.0004
6377.00,0.9898
6376.00,0.9793
6375.00,0.9686
6374.00,0.9579
6373.00,0.9472
6372.00,0.9365
6371.00,0.9257
6370.00,0.9149
6369.00,0.9043
6368.00,0.8939
6367.00,0.8836
6366.00,0.8733
6365.00,0.8631
6364.00,0.8531
6363.00,0.8434
6362.00,0.8339
6361.00,0.8247
6360.00,0.8161
6359.00,0.8078
6358.00,0.7998
6357.00,0.7922
6356.00,0.7849
6355.00,0.7782
6354.00,0.7720
6353.00,0.7664
6352.00,0.7613
6351.00,0.7567
6350.00,0.7527
6349.00,0.7492
6348.00,0.7464
6347.00,0.7441
6346.00,0.7424
6345.00,0.7414
6344.00,0.7410
6343.00,0.7412
6342.00,0.7420
6341.00,0.7435
6340.00,0.7455
6339.00,0.7482
6338.00,0.7515
6337.00,0.7555
6336.00,0.7600
6335.00,0.7650
6334.00,0.7703
6333.00,0.7761
6332.00,0.7824
6331.00,0.7893
6330.00,0.7966
6329.00,0.8043
6328.00,0.8123
6327.00,0.8205
6326.00,0.8290
6325.00,0.8377
6324.00,0.8466
6323.00,0.8556
6322.00,0.8649
6321.00,0.8745
6320.00,0.8843
6319.00,0.8942
6318.00,0.9042
6317.00,0.9144
6316.00,0.9246
6315.00,0.9349
6314.00,0.9451
6313.00,0.9553
6312.00,0.9654
6311.00,0.9753
6310.00,0.9851
6309.00,0.9950
6308.00,1.0050
6307.00,1.0150
6306.00,1.0250
6305.00,1.0349
6304.00,1.0445
6303.00,1.0537
6302.00,1.0625
6301.00,1.0711
6300.00,1.0795
6299.00,1.0876
6298.00,1.0956
6297.00,1.1033
6296.00,1.1109
6295.00,1.1182
6294.00,1.1251
6293.00,1.1316
6292.00,1.1377
6291.00,1.1437
6290.00,1.1496
6289.00,1.1553
6288.00,1.1607
6287.00,1.1656
6286.00,1.1698
6285.00,1.1734
6284.00,1.1764
6283.00,1.1789
6282.00,1.1813
6281.00,1.1839
6280.00,1.1868
6279.00,1.1897
6278.00,1.1924
6277.00,1.1945
6276.00,1.1957
6275.00,1.1961
6274.00,1.1958
6273.00,1.1953
6272.00,1.1946
6271.00,1.1936
6270.00,1.1924
6269.00,1.1907
6268.00,1.1886
6267.00,1.1860
6266.00,1.1832
6265.00,1.1802
6264.00,1.1767
6263.00,1.1728
6262.00,1.1685
6261.00,1.1641
6260.00,1.1594
6259.00,1.1542
6258.00,1.1483
6257.00,1.1421
6256.00,1.1357
6255.00,1.1291
6254.00,1.1223
6253.00,1.1151
6252.00,1.1079
6251.00,1.1005
6250.00,1.0929
6249.00,1.0848
6248.00,1.0762
6247.00,1.0672
6246.00,1.0578
6245.00,1.0481
6244.00,1.0382
6243.00,1.0281
6242.00,1.0180
6241.00,1.0079
6240.00,0.9978
6239.00,0.9878
6238.00,0.9778
6237.00,0.9677
6236.00,0.9571
6235.00,0.9462
6234.00,0.9352
6233.00,0.9243
6232.00,0.9136
6231.00,0.9029
6230.00,0.8925
6229.00,0.8822
6228.00,0.8719
6227.00,0.8616
6226.00,0.8512
6225.00,0.8410
6224.00,0.8311
6223.00,0.8216
6222.00,0.8124
6221.00,0.8035
6220.00,0.7948
6219.00,0.7862
6218.00,0.7778
6217.00,0.7700
6216.00,0.7625
6215.00,0.7555
6214.00,0.7489
6213.00,0.7430
6212.00,0.7376
6211.00,0.7328
6210.00,0.7284
6209.00,0.7247
6208.00,0.7216
6207.00,0.7190
6206.00,0.7171
6205.00,0.7158
6204.00,0.7152
6203.00,0.7152
6202.00,0.7159
6201.00,0.7171
6200.00,0.7189
6199.00,0.7212
6198.00,0.7241
6197.00,0.7275
6196.00,0.7315
6195.00,0.7360
6194.00,0.7412
6193.00,0.7470
6192.00,0.7533
6191.00,0.7601
6190.00,0.7674
6189.00,0.7752
6188.00,0.7833
6187.00,0.7918
6186.00,0.8005
6185.00,0.8097
6184.00,0.8190
6183.00,0.8286
6182.00,0.8384
6181.00,0.8484
6180.00,0.8585
6179.00,0.8686
6178.00,0.8788
6177.00,0.8891
6176.00,0.8997
6175.00,0.9105
6174.00,0.9213
6173.00,0.9322
6172.00,0.9429
6171.00,0.9534
6170.00,0.9640
6169.00,0.9746
6168.00,0.9850
6167.00,0.9953
6166.00,1.0055
6165.00,1.0156
6164.00,1.0257
6163.00,1.0357
6162.00,1.0456
6161.00,1.0552
6160.00,1.0645
6159.00,1.0734
6158.00,1.0821
6157.00,1.0906
6156.00,1.0988
6155.00,1.1068
6154.00,1.1145
6153.00,1.1218
6152.00,1.1287
6151.00,1.1351
6150.00,1.1411
6149.00,1.1472
6148.00,1.1533
6147.00,1.1596
6146.00,1.1654
6145.00,1.1707
6144.00,1.1751
6143.00,1.1791
6142.00,1.1830
6141.00,1.1867
6140.00,1.1901
6139.00,1.1931
6138.00,1.1959
6137.00,1.1984
6136.00,1.2003
6135.00,1.2015
6134.00,1.2021
6133.00,1.2025
6132.00,1.2031
6131.00,1.2036
6130.00,1.2035
6129.00,1.2029
6128.00,1.2019
6127.00,1.2007
6126.00,1.1990
6125.00,1.1967
6124.00,1.1938
6123.00,1.1909
6122.00,1.1881
6121.00,1.1850
6120.00,1.1810
6119.00,1.1763
6118.00,1.1711
6117.00,1.1657
6116.00,1.1600
6115.00,1.1542
6114.00,1.1484
6113.00,1.1425
6112.00,1.1362
6111.00,1.1293
6110.00,1.1218
6109.00,1.1137
6108.00,1.1051
6107.00,1.0963
6106.00,1.0873
6105.00,1.0783
6104.00,1.0690
6103.00,1.0593
6102.00,1.0493
6101.00,1.0391
6100.00,1.0286
6099.00,1.0177
6098.00,1.0068
6097.00,0.9959
6096.00,0.9850
6095.00,0.9739
6094.00,0.9626
6093.00,0.9511
6092.00,0.9396
6091.00,0.9279
6090.00,0.9162
6089.00,0.9045
6088.00,0.8929
6087.00,0.8815
6086.00,0.8702
6085.00,0.8590
6084.00,0.8479
6083.00,0.8369
6082.00,0.8263
6081.00,0.8159
6080.00,0.8058
6079.00,0.7959
6078.00,0.7865
6077.00,0.7776
6076.00,0.7691
6075.00,0.7611
6074.00,0.7534
6073.00,0.7462
6072.00,0.7395
6071.00,0.7333
6070.00,0.7276
6069.00,0.7226
6068.00,0.7183
6067.00,0.7147
6066.00,0.7119
6065.00,0.7097
6064.00,0.7081
6063.00,0.7072
6062.00,0.7070
6061.00,0.7075
6060.00,0.7087
6059.00,0.7104
6058.00,0.7128
6057.00,0.7160
6056.00,0.7197
6055.00,0.7240
6054.00,0.7290
6053.00,0.7345
6052.00,0.7406
6051.00,0.7472
6050.00,0.7543
6049.00,0.7619
6048.00,0.7699
6047.00,0.7783
6046.00,0.7870
6045.00,0.7960
6044.00,0.8052
6043.00,0.8147
6042.00,0.8245
6041.00,0.8347
6040.00,0.8452
6039.00,0.8558
6038.00,0.8666
6037.00,0.8774
6036.00,0.8882
6035.00,0.8989
6034.00,0.9097
6033.00,0.9205
6032.00,0.9315
6031.00,0.9424
6030.00,0.9534
6029.00,0.9643
6028.00,0.9752
6027.00,0.9860
6026.00,0.9965
6025.00,1.0068
6024.00,1.0169
6023.00,1.0269
6022.00,1.0367
6021.00,1.0465
6020.00,1.0563
6019.00,1.0659
6018.00,1.0755
6017.00,1.0848
6016.00,1.0935
6015.00,1.1017
6014.00,1.1093
6013.00,1.1166
6012.00,1.1237
6011.00,1.1305
6010.00,1.1370
6009.00,1.1435
6008.00,1.1499
6007.00,1.1559
6006.00,1.1614
6005.00,1.1665
6004.00,1.1713
6003.00,1.1757
6002.00,1.1798
6001.00,1.1837
6000.00,1.1874
5999.00,1.1909
5998.00,1.1939
5997.00,1.1964
5996.00,1.1983
5995.00,1.1995
5994.00,1.2001
5993.00,1.2003
5992.00,1.2001
5991.00,1.1997
5990.00,1.1991
5989.00,1.1983
5988.00,1.1973
5987.00,1.1961
5986.00,1.1944
5985.00,1.1921
5984.00,1.1892
5983.00,1.1856
5982.00,1.1815
5981.00,1.1772
5980.00,1.1731
5979.00,1.1690
5978.00,1.1649
5977.00,1.1607
5976.00,1.1561
5975.00,1.1508
5974.00,1.1448
5973.00,1.1380
5972.00,1.1308
5971.00,1.1234
5970.00,1.1158
5969.00,1.1080
5968.00,1.0999
5967.00,1.0917
5966.00,1.0833
5965.00,1.0746
5964.00,1.0657
5963.00,1.0567
5962.00,1.0475
5961.00,1.0381
5960.00,1.0285
5959.00,1.0188
5958.00,1.0090
5957.00,0.9991
5956.00,0.9891
5955.00,0.9790
5954.00,0.9687
5953.00,0.9583
5952.00,0.9478
5951.00,0.9372
5950.00,0.9265
5949.00,0.9155
5948.00,0.9043
5947.00,0.8928
5946.00,0.8811
5945.00,0.8693
5944.00,0.8573
5943.00,0.8452
5942.00,0.8334
5941.00,0.8218
5940.00,0.8106
5939.00,0.7997
5938.00,0.7893
5937.00,0.7794
5936.00,0.7699
5935.00,0.7608
5934.00,0.7521
5933.00,0.7438
5932.00,0.7359
5931.00,0.7287
5930.00,0.7222
5929.00,0.7163
5928.00,0.7111
5927.00,0.7065
5926.00,0.7025
5925.00,0.6992
5924.00,0.6966
5923.00,0.6947
5922.00,0.6935
5921.00,0.6932
5920.00,0.6937
5919.00,0.6949
5918.00,0.6970
5917.00,0.6997
5916.00,0.7030
5915.00,0.7069
5914.00,0.7113
5913.00,0.7165
5912.00,0.7222
5911.00,0.7287
5910.00,0.7357
5909.00,0.7434
5908.00,0.7515
5907.00,0.7600
5906.00,0.7690
5905.00,0.7783
5904.00,0.7880
5903.00,0.7979
5902.00,0.8082
5901.00,0.8186
5900.00,0.8293
5899.00,0.8402
5898.00,0.8512
5897.00,0.8625
5896.00,0.8739
5895.00,0.8852
5894.00,0.8966
5893.00,0.9082
5892.00,0.9199
5891.00,0.9316
5890.00,0.9432
5889.00,0.9548
5888.00,0.9661
5887.00,0.9773
5886.00,0.9883
5885.00,0.9993
5884.00,1.0102
5883.00,1.0210
5882.00,1.0316
5881.00,1.0420
5880.00,1.0520
5879.00,1.0617
5878.00,1.0711
5877.00,1.0804
5876.00,1.0893
5875.00,1.0980
5874.00,1.1066
5873.00,1.1149
5872.00,1.1229
5871.00,1.1306
5870.00,1.1380
5869.00,1.1451
5868.00,1.1518
5867.00,1.1578
5866.00,1.1636
5865.00,1.1692
5864.00,1.1748
5863.00,1.1800
5862.00,1.1845
5861.00,1.1886
5860.00,1.1923
5859.00,1.1957
5858.00,1.1989
5857.00,1.2017
5856.00,1.2042
5855.00,1.2062
5854.00,1.2077
5853.00,1.2087
5852.00,1.2095
5851.00,1.2103
5850.00,1.2110
5849.00,1.2115
5848.00,1.2115
5847.00,1.2110
5846.00,1.2100
5845.00,1.2086
5844.00,1.2069
5843.00,1.2048
5842.00,1.2024
5841.00,1.1995
5840.00,1.1960
5839.00,1.1920
5838.00,1.1878
5837.00,1.1835
5836.00,1.1790
5835.00,1.1742
5834.00,1.1692
5833.00,1.1638
5832.00,1.1579
5831.00,1.1516
5830.00,1.1448
5829.00,1.1376
5828.00,1.1300
5827.00,1.1220
5826.00,1.1138
5825.00,1.1052
5824.00,1.0962
5823.00,1.0868
5822.00,1.0772
5821.00,1.0674
5820.00,1.0574
5819.00,1.0470
5818.00,1.0364
5817.00,1.0257
5816.00,1.0147
5815.00,1.0034
5814.00,0.9917
5813.00,0.9799
5812.00,0.9678
5811.00,0.9556
5810.00,0.9432
5809.00,0.9309
5808.00,0.9185
5807.00,0.9062
5806.00,0.8940
5805.00,0.8819
5804.00,0.8698
5803.00,0.8579
5802.00,0.8460
5801.00,0.8342
5800.00,0.8227
5799.00,0.8114
5798.00,0.8006
5797.00,0.7901
5796.00,0.7800
5795.00,0.7702
5794.00,0.7607
5793.00,0.7516
5792.00,0.7429
5791.00,0.7348
5790.00,0.7273
5789.00,0.7205
5788.00,0.7144
5787.00,0.7089
5786.00,0.7040
5785.00,0.6998
5784.00,0.6962
5783.00,0.6934
5782.00,0.6912
5781.00,0.6898
5780.00,0.6892
5779.00,0.6894
5778.00,0.6903
5777.00,0.6921
5776.00,0.6946
5775.00,0.6979
5774.00,0.7018
5773.00,0.7065
5772.00,0.7119
5771.00,0.7179
5770.00,0.7244
5769.00,0.7315
5768.00,0.7390
5767.00,0.7470
5766.00,0.7555
5765.00,0.7645
5764.00,0.7738
5763.00,0.7836
5762.00,0.7938
5761.00,0.8044
5760.00,0.8154
5759.00,0.8266
5758.00,0.8380
5757.00,0.8496
5756.00,0.8612
5755.00,0.8727
5754.00,0.8843
5753.00,0.8959
5752.00,0.9077
5751.00,0.9196
5750.00,0.9315
5749.00,0.9434
5748.00,0.9551
5747.00,0.9668
5746.00,0.9786
5745.00,0.9905
5744.00,1.0023
5743.00,1.0138
5742.00,1.0249
5741.00,1.0355
5740.00,1.0459
5739.00,1.0562
5738.00,1.0665
5737.00,1.0767
5736.00,1.0868
5735.00,1.0964
5734.00,1.1055
5733.00,1.1141
5732.00,1.1223
5731.00,1.1302
5730.00,1.1380
5729.00,1.1458
5728.00,1.1535
5727.00,1.1608
5726.00,1.1676
5725.00,1.1737
5724.00,1.1793
5723.00,1.1845
5722.00,1.1894
5721.00,1.1941
5720.00,1.1985
5719.00,1.2026
5718.00,1.2064
5717.00,1.2097
5716.00,1.2123
5715.00,1.2146
5714.00,1.2166
5713.00,1.2186
5712.00,1.2202
5711.00,1.2214
5710.00,1.2221
5709.00,1.2225
5708.00,1.2225
5707.00,1.2220
5706.00,1.2212
5705.00,1.2200
5704.00,1.2186
5703.00,1.2169
5702.00,1.2147
5701.00,1.2119
5700.00,1.2086
5699.00,1.2051
5698.00,1.2013
5697.00,1.1973
5696.00,1.1928
5695.00,1.1880
5694.00,1.1827
5693.00,1.1768
5692.00,1.1705
5691.00,1.1636
5690.00,1.1565
5689.00,1.1493
5688.00,1.1419
5687.00,1.1342
5686.00,1.1262
5685.00,1.1176
5684.00,1.1086
5683.00,1.0992
5682.00,1.0893
5681.00,1.0790
5680.00,1.0684
5679.00,1.0575
5678.00,1.0464
5677.00,1.0350
5676.00,1.0235
5675.00,1.0119
5674.00,1.0001
5673.00,0.9882
5672.00,0.9759
5671.00,0.9632
5670.00,0.9502
5669.00,0.9371
5668.00,0.9239
5667.00,0.9108
5666.00,0.8976
5665.00,0.8845
5664.00,0.8713
5663.00,0.8581
5662.00,0.8450
5661.00,0.8321
5660.00,0.8194
5659.00,0.8070
5658.00,0.7950
5657.00,0.7833
5656.00,0.7720
5655.00,0.7611
5654.00,0.7505
5653.00,0.7404
5652.00,0.7307
5651.00,0.7216
5650.00,0.7130
5649.00,0.7051
5648.00,0.6979
5647.00,0.6914
5646.00,0.6857
5645.00,0.6806
5644.00,0.6762
5643.00,0.6726
5642.00,0.6699
5641.00,0.6681
5640.00,0.6669
5639.00,0.6665
5638.00,0.6669
5637.00,0.6683
5636.00,0.6703
5635.00,0.6732
5634.00,0.6768
5633.00,0.6814
5632.00,0.6866
5631.00,0.6925
5630.00,0.6990
5629.00,0.7063
5628.00,0.7140
5627.00,0.7222
5626.00,0.7309
5625.00,0.7402
5624.00,0.7500
5623.00,0.7603
5622.00,0.7710
5621.00,0.7820
5620.00,0.7934
5619.00,0.8049
5618.00,0.8167
5617.00,0.8286
5616.00,0.8407
5615.00,0.8530
5614.00,0.8654
5613.00,0.8781
5612.00,0.8908
5611.00,0.9036
5610.00,0.9164
5609.00,0.9291
5608.00,0.9415
5607.00,0.9539
5606.00,0.9661
5605.00,0.9784
5604.00,0.9905
5603.00,1.0025
5602.00,1.0144
5601.00,1.0262
5600.00,1.0378
5599.00,1.0492
5598.00,1.0603
5597.00,1.0712
5596.00,1.0817
5595.00,1.0918
5594.00,1.1018
5593.00,1.1116
5592.00,1.1212
5591.00,1.1305
5590.00,1.1392
5589.00,1.1474
5588.00,1.1552
5587.00,1.1627
5586.00,1.1699
5585.00,1.1767
5584.00,1.1832
5583.00,1.1894
5582.00,1.1955
5581.00,1.2014
5580.00,1.2070
5579.00,1.2123
5578.00,1.2172
5577.00,1.2213
5576.00,1.2249
5575.00,1.2279
5574.00,1.2306
5573.00,1.2329
5572.00,1.2349
5571.00,1.2367
5570.00,1.2382
5569.00,1.2394
5568.00,1.2400
5567.00,1.2404
5566.00,1.2404
5565.00,1.2400
5564.00,1.2388
5563.00,1.2370
5562.00,1.2349
5561.00,1.2325
5560.00,1.2299
5559.00,1.2272
5558.00,1.2243
5557.00,1.2211
5556.00,1.2173
5555.00,1.2127
5554.00,1.2073
5553.00,1.2014
5552.00,1.1952
5551.00,1.1889
5550.00,1.1825
5549.00,1.1760
5548.00,1.1691
5547.00,1.1617
5546.00,1.1537
5545.00,1.1454
5544.00,1.1367
5543.00,1.1275
5542.00,1.1180
5541.00,1.1081
5540.00,1.0979
5539.00,1.0871
5538.00,1.0758
5537.00,1.0641
5536.00,1.0522
5535.00,1.0402
5534.00,1.0281
5533.00,1.0158
5532.00,1.0032
5531.00,0.9905
5530.00,0.9775
5529.00,0.9642
5528.00,0.9508
5527.00,0.9372
5526.00,0.9236
5525.00,0.9099
5524.00,0.8963
5523.00,0.8827
5522.00,0.8693
5521.00,0.8562
5520.00,0.8433
5519.00,0.8303
5518.00,0.8175
5517.00,0.8049
5516.00,0.7926
5515.00,0.7807
5514.00,0.7693
5513.00,0.7587
5512.00,0.7486
5511.00,0.7390
5510.00,0.7300
5509.00,0.7217
5508.00,0.7138
5507.00,0.7066
5506.00,0.7000
5505.00,0.6942
5504.00,0.6891
5503.00,0.6848
5502.00,0.6814
5501.00,0.6789
5500.00,0.6774
5499.00,0.6767
5498.00,0.6768
5497.00,0.6779
5496.00,0.6798
5495.00,0.6825
5494.00,0.6859
5493.00,0.6902
5492.00,0.6952
5491.00,0.7009
5490.00,0.7073
5489.00,0.7144
5488.00,0.7222
5487.00,0.7307
5486.00,0.7398
5485.00,0.7495
5484.00,0.7597
5483.00,0.7703
5482.00,0.7813
5481.00,0.7926
5480.00,0.8043
5479.00,0.8161
5478.00,0.8283
5477.00,0.8408
5476.00,0.8536
5475.00,0.8667
5474.00,0.8799
5473.00,0.8931
5472.00,0.9063
5471.00,0.9196
5470.00,0.9329
5469.00,0.9460
5468.00,0.9590
5467.00,0.9720
5466.00,0.9847
5465.00,0.9974
5464.00,1.0098
5463.00,1.0222
5462.00,1.0345
5461.00,1.0467
5460.00,1.0586
5459.00,1.0704
5458.00,1.0821
5457.00,1.0936
5456.00,1.1049
5455.00,1.1157
5454.00,1.1259
5453.00,1.1356
5452.00,1.1448
5451.00,1.1536
5450.00,1.1622
5449.00,1.1706
5448.00,1.1789
5447.00,1.1868
5446.00,1.1945
5445.00,1.2019
5444.00,1.2090
5443.00,1.2157
5442.00,1.2219
5441.00,1.2277
5440.00,1.2329
5439.00,1.2377
5438.00,1.2420
5437.00,1.2458
5436.00,1.2494
5435.00,1.2526
5434.00,1.2554
5433.00,1.2579
5432.00,1.2599
5431.00,1.2617
5430.00,1.2631
5429.00,1.2640
5428.00,1.2644
5427.00,1.2643
5426.00,1.2637
5425.00,1.2629
5424.00,1.2617
5423.00,1.2602
5422.00,1.2585
5421.00,1.2568
5420.00,1.2549
5419.00,1.2527
5418.00,1.2501
5417.00,1.2467
5416.00,1.2426
5415.00,1.2379
5414.00,1.2325
5413.00,1.2265
5412.00,1.2200
5411.00,1.2131
5410.00,1.2060
5409.00,1.1988
5408.00,1.1914
5407.00,1.1838
5406.00,1.1760
5405.00,1.1681
5404.00,1.1599
5403.00,1.1510
5402.00,1.1414
5401.00,1.1311
5400.00,1.1206
5399.00,1.1097
5398.00,1.0986
5397.00,1.0871
5396.00,1.0751
5395.00,1.0627
5394.00,1.0498
5393.00,1.0365
5392.00,1.0229
5391.00,1.0093
5390.00,0.9957
5389.00,0.9823
5388.00,0.9686
5387.00,0.9546
5386.00,0.9403
5385.00,0.9258
5384.00,0.9113
5383.00,0.8967
5382.00,0.8824
5381.00,0.8684
5380.00,0.8546
5379.00,0.8409
5378.00,0.8273
5377.00,0.8138
5376.00,0.8004
5375.00,0.7873
5374.00,0.7747
5373.00,0.7628
5372.00,0.7516
5371.00,0.7410
5370.00,0.7309
5369.00,0.7216
5368.00,0.7131
5367.00,0.7053
5366.00,0.6982
5365.00,0.6920
5364.00,0.6864
5363.00,0.6817
5362.00,0.6778
5361.00,0.6747
5360.00,0.6725
5359.00,0.6712
5358.00,0.6708
5357.00,0.6713
5356.00,0.6727
5355.00,0.6750
5354.00,0.6781
5353.00,0.6821
5352.00,0.6868
5351.00,0.6924
5350.00,0.6989
5349.00,0.7061
5348.00,0.7140
5347.00,0.7224
5346.00,0.7314
5345.00,0.7412
5344.00,0.7515
5343.00,0.7623
5342.00,0.7735
5341.00,0.7851
5340.00,0.7971
5339.00,0.8095
5338.00,0.8222
5337.00,0.8353
5336.00,0.8486
5335.00,0.8621
5334.00,0.8757
5333.00,0.8894
5332.00,0.9033
5331.00,0.9174
5330.00,0.9317
5329.00,0.9460
5328.00,0.9602
5327.00,0.9742
5326.00,0.9881
5325.00,1.0019
5324.00,1.0155
5323.00,1.0289
5322.00,1.0421
5321.00,1.0550
5320.00,1.0676
5319.00,1.0799
5318.00,1.0923
5317.00,1.1046
5316.00,1.1166
5315.00,1.1282
5314.00,1.1394
5313.00,1.1501
5312.00,1.1604
5311.00,1.1703
5310.00,1.1799
5309.00,1.1893
5308.00,1.1983
5307.00,1.2070
5306.00,1.2153
5305.00,1.2233
5304.00,1.2310
5303.00,1.2382
5302.00,1.2449
5301.00,1.2512
5300.00,1.2569
5299.00,1.2621
5298.00,1.2669
5297.00,1.2713
5296.00,1.2755
5295.00,1.2794
5294.00,1.2829
5293.00,1.2861
5292.00,1.2889
5291.00,1.2914
5290.00,1.2936
5289.00,1.2955
5288.00,1.2970
5287.00,1.2980
5286.00,1.2986
5285.00,1.2986
5284.00,1.2981
5283.00,1.2972
5282.00,1.2959
5281.00,1.2943
5280.00,1.2922
5279.00,1.2896
5278.00,1.2865
5277.00,1.2830
5276.00,1.2792
5275.00,1.2751
5274.00,1.2707
5273.00,1.2659
5272.00,1.2608
5271.00,1.2554
5270.00,1.2497
5269.00,1.2435
5268.00,1.2368
5267.00,1.2297
5266.00,1.2222
5265.00,1.2140
5264.00,1.2053
5263.00,1.1962
5262.00,1.1869
5261.00,1.1772
5260.00,1.1673
5259.00,1.1571
5258.00,1.1467
5257.00,1.1358
5256.00,1.1245
5255.00,1.1127
5254.00,1.1005
5253.00,1.0879
5252.00,1.0751
5251.00,1.0619
5250.00,1.0483
5249.00,1.0345
5248.00,1.0203
5247.00,1.0058
5246.00,0.9913
5245.00,0.9768
5244.00,0.9620
5243.00,0.9470
5242.00,0.9319
5241.00,0.9171
5240.00,0.9026
5239.00,0.8885
5238.00,0.8746
5237.00,0.8608
5236.00,0.8470
5235.00,0.8334
5234.00,0.8200
5233.00,0.8069
5232.00,0.7941
5231.00,0.7819
5230.00,0.7703
5229.00,0.7594
5228.00,0.7492
5227.00,0.7398
5226.00,0.7310
5225.00,0.7229
5224.00,0.7155
5223.00,0.7090
5222.00,0.7035
5221.00,0.6990
5220.00,0.6954
5219.00,0.6928
5218.00,0.6911
5217.00,0.6904
5216.00,0.6907
5215.00,0.6920
5214.00,0.6943
5213.00,0.6976
5212.00,0.7019
5211.00,0.7070
5210.00,0.7130
5209.00,0.7198
5208.00,0.7273
5207.00,0.7357
5206.00,0.7449
5205.00,0.7549
5204.00,0.7656
5203.00,0.7770
5202.00,0.7889
5201.00,0.8014
5200.00,0.8141
5199.00,0.8272
5198.00,0.8405
5197.00,0.8541
5196.00,0.8679
5195.00,0.8817
5194.00,0.8954
5193.00,0.9090
5192.00,0.9225
5191.00,0.9361
5190.00,0.9498
5189.00,0.9637
5188.00,0.9775
5187.00,0.9913
5186.00,1.0050
5185.00,1.0187
5184.00,1.0324
5183.00,1.0461
5182.00,1.0597
5181.00,1.0731
5180.00,1.0863
5179.00,1.0992
5178.00,1.1119
5177.00,1.1244
5176.00,1.1366
5175.00,1.1486
5174.00,1.1601
5173.00,1.1713
5172.00,1.1822
5171.00,1.1927
5170.00,1.2029
5169.00,1.2126
5168.00,1.2219
5167.00,1.2308
5166.00,1.2394
5165.00,1.2477
5164.00,1.2557
5163.00,1.2632
5162.00,1.2699
5161.00,1.2760
5160.00,1.2818
5159.00,1.2874
5158.00,1.2930
5157.00,1.2983
5156.00,1.3032
5155.00,1.3077
5154.00,1.3115
5153.00,1.3147
5152.00,1.3176
5151.00,1.3202
5150.00,1.3226
5149.00,1.3245
5148.00,1.3258
5147.00,1.3266
5146.00,1.3271
5145.00,1.3272
5144.00,1.3269
5143.00,1.3262
5142.00,1.3253
5141.00,1.3239
5140.00,1.3218
5139.00,1.3193
5138.00,1.3165
5137.00,1.3134
5136.00,1.3100
5135.00,1.3061
5134.00,1.3016
5133.00,1.2966
5132.00,1.2913
5131.00,1.2856
5130.00,1.2796
5129.00,1.2732
5128.00,1.2665
5127.00,1.2592
5126.00,1.2515
5125.00,1.2433
5124.00,1.2348
5123.00,1.2257
5122.00,1.2160
5121.00,1.2059
5120.00,1.1954
5119.00,1.1847
5118.00,1.1737
5117.00,1.1622
5116.00,1.1503
5115.00,1.1378
5114.00,1.1249
5113.00,1.1116
5112.00,1.0981
5111.00,1.0841
5110.00,1.0698
5109.00,1.0552
5108.00,1.0403
5107.00,1.0250
5106.00,1.0096
5105.00,0.9940
5104.00,0.9783
5103.00,0.9625
5102.00,0.9467
5101.00,0.9309
5100.00,0.9153
5099.00,0.8996
5098.00,0.8841
5097.00,0.8687
5096.00,0.8535
5095.00,0.8387
5094.00,0.8244
5093.00,0.8105
5092.00,0.7971
5091.00,0.7842
5090.00,0.7718
5089.00,0.7600
5088.00,0.7488
5087.00,0.7384
5086.00,0.7289
5085.00,0.7203
5084.00,0.7125
5083.00,0.7056
5082.00,0.6995
5081.00,0.6943
5080.00,0.6901
5079.00,0.6869
5078.00,0.6847
5077.00,0.6837
5076.00,0.6836
5075.00,0.6846
5074.00,0.6866
5073.00,0.6896
5072.00,0.6937
5071.00,0.6987
5070.00,0.7046
5069.00,0.7114
5068.00,0.7190
5067.00,0.7274
5066.00,0.7366
5065.00,0.7467
5064.00,0.7575
5063.00,0.7689
5062.00,0.7808
5061.00,0.7931
5060.00,0.8059
5059.00,0.8191
5058.00,0.8328
5057.00,0.8467
5056.00,0.8610
5055.00,0.8756
5054.00,0.8904
5053.00,0.9053
5052.00,0.9204
5051.00,0.9356
5050.00,0.9510
5049.00,0.9663
5048.00,0.9816
5047.00,0.9969
5046.00,1.0120
5045.00,1.0270
5044.00,1.0419
5043.00,1.0567
5042.00,1.0715
5041.00,1.0860
5040.00,1.1002
5039.00,1.1140
5038.00,1.1277
5037.00,1.1411
5036.00,1.1542
5035.00,1.1669
5034.00,1.1793
5033.00,1.1913
5032.00,1.2029
5031.00,1.2142
5030.00,1.2250
5029.00,1.2353
5028.00,1.2452
5027.00,1.2546
5026.00,1.2639
5025.00,1.2730
5024.00,1.2817
5023.00,1.2898
5022.00,1.2973
5021.00,1.3043
5020.00,1.3108
5019.00,1.3169
5018.00,1.3229
5017.00,1.3287
5016.00,1.3341
5015.00,1.3390
5014.00,1.3435
5013.00,1.3474
5012.00,1.3509
5011.00,1.3538
5010.00,1.3563
5009.00,1.3584
5008.00,1.3603
5007.00,1.3618
5006.00,1.3629
5005.00,1.3636
5004.00,1.3638
5003.00,1.3635
5002.00,1.3627
5001.00,1.3617
5000.00,1.3605
4999.00,1.3589
4998.00,1.3567
4997.00,1.3541
4996.00,1.3510
4995.00,1.3476
4994.00,1.3440
4993.00,1.3400
4992.00,1.3355
4991.00,1.3304
4990.00,1.3246
4989.00,1.3183
4988.00,1.3115
4987.00,1.3044
4986.00,1.2970
4985.00,1.2893
4984.00,1.2811
4983.00,1.2725
4982.00,1.2635
4981.00,1.2540
4980.00,1.2440
4979.00,1.2336
4978.00,1.2228
4977.00,1.2115
4976.00,1.1997
4975.00,1.1874
4974.00,1.1747
4973.00,1.1614
4972.00,1.1477
4971.00,1.1337
4970.00,1.1193
4969.00,1.1047
4968.00,1.0899
4967.00,1.0747
4966.00,1.0592
4965.00,1.0434
4964.00,1.0271
4963.00,1.0106
4962.00,0.9939
4961.00,0.9773
4960.00,0.9607
4959.00,0.9442
4958.00,0.9277
4957.00,0.9113
4956.00,0.8950
4955.00,0.8790
4954.00,0.8633
4953.00,0.8480
4952.00,0.8331
4951.00,0.8188
4950.00,0.8049
4949.00,0.7915
4948.00,0.7788
4947.00,0.7667
4946.00,0.7553
4945.00,0.7448
4944.00,0.7351
4943.00,0.7264
4942.00,0.7187
4941.00,0.7120
4940.00,0.7063
4939.00,0.7017
4938.00,0.6982
4937.00,0.6958
4936.00,0.6945
4935.00,0.6944
4934.00,0.6954
4933.00,0.6976
4932.00,0.7009
4931.00,0.7053
4930.00,0.7107
4929.00,0.7171
4928.00,0.7245
4927.00,0.7329
4926.00,0.7421
4925.00,0.7523
4924.00,0.7632
4923.00,0.7747
4922.00,0.7869
4921.00,0.7996
4920.00,0.8129
4919.00,0.8267
4918.00,0.8410
4917.00,0.8557
4916.00,0.8708
4915.00,0.8861
4914.00,0.9017
4913.00,0.9174
4912.00,0.9334
4911.00,0.9494
4910.00,0.9654
4909.00,0.9815
4908.00,0.9975
4907.00,1.0136
4906.00,1.0296
4905.00,1.0457
4904.00,1.0615
4903.00,1.0772
4902.00,1.0927
4901.00,1.1079
4900.00,1.1229
4899.00,1.1376
4898.00,1.1519
4897.00,1.1658
4896.00,1.1793
4895.00,1.1924
4894.00,1.2052
4893.00,1.2176
4892.00,1.2295
4891.00,1.2409
4890.00,1.2521
4889.00,1.2633
4888.00,1.2742
4887.00,1.2848
4886.00,1.2948
4885.00,1.3041
4884.00,1.3128
4883.00,1.3209
4882.00,1.3287
4881.00,1.3361
4880.00,1.3431
4879.00,1.3498
4878.00,1.3561
4877.00,1.3620
4876.00,1.3675
4875.00,1.3725
4874.00,1.3768
4873.00,1.3805
4872.00,1.3837
4871.00,1.3865
4870.00,1.3890
4869.00,1.3912
4868.00,1.3930
4867.00,1.3946
4866.00,1.3957
4865.00,1.3965
4864.00,1.3969
4863.00,1.3969
4862.00,1.3965
4861.00,1.3958
4860.00,1.3945
4859.00,1.3926
4858.00,1.3900
4857.00,1.3869
4856.00,1.3835
4855.00,1.3800
4854.00,1.3765
4853.00,1.3726
4852.00,1.3681
4851.00,1.3629
4850.00,1.3571
4849.00,1.3509
4848.00,1.3443
4847.00,1.3373
4846.00,1.3299
4845.00,1.3218
4844.00,1.3134
4843.00,1.3045
4842.00,1.2954
4841.00,1.2860
4840.00,1.2761
4839.00,1.2658
4838.00,1.2550
4837.00,1.2436
4836.00,1.2315
4835.00,1.2188
4834.00,1.2057
4833.00,1.1922
4832.00,1.1783
4831.00,1.1641
4830.00,1.1495
4829.00,1.1346
4828.00,1.1192
4827.00,1.1035
4826.00,1.0875
4825.00,1.0711
4824.00,1.0544
4823.00,1.0375
4822.00,1.0203
4821.00,1.0031
4820.00,0.9858
4819.00,0.9684
4818.00,0.9510
4817.00,0.9336
4816.00,0.9164
4815.00,0.8994
4814.00,0.8827
4813.00,0.8664
4812.00,0.8504
4811.00,0.8348
4810.00,0.8196
4809.00,0.8050
4808.00,0.7910
4807.00,0.7778
4806.00,0.7655
4805.00,0.7540
4804.00,0.7433
4803.00,0.7336
4802.00,0.7249
4801.00,0.7172
4800.00,0.7105
4799.00,0.7050
4798.00,0.7007
4797.00,0.6976
4796.00,0.6958
4795.00,0.6953
4794.00,0.6959
4793.00,0.6979
4792.00,0.7010
4791.00,0.7052
4790.00,0.7106
4789.00,0.7171
4788.00,0.7247
4787.00,0.7334
4786.00,0.7431
4785.00,0.7537
4784.00,0.7651
4783.00,0.7772
4782.00,0.7900
4781.00,0.8035
4780.00,0.8176
4779.00,0.8322
4778.00,0.8473
4777.00,0.8627
4776.00,0.8785
4775.00,0.8946
4774.00,0.9110
4773.00,0.9277
4772.00,0.9445
4771.00,0.9614
4770.00,0.9785
4769.00,0.9956
4768.00,1.0127
4767.00,1.0297
4766.00,1.0467
4765.00,1.0635
4764.00,1.0801
4763.00,1.0965
4762.00,1.1127
4761.00,1.1285
4760.00,1.1441
4759.00,1.1594
4758.00,1.1746
4757.00,1.1895
4756.00,1.2042
4755.00,1.2185
4754.00,1.2323
4753.00,1.2456
4752.00,1.2582
4751.00,1.2705
4750.00,1.2825
4749.00,1.2942
4748.00,1.3054
4747.00,1.3161
4746.00,1.3262
4745.00,1.3360
4744.00,1.3454
4743.00,1.3546
4742.00,1.3632
4741.00,1.3713
4740.00,1.3787
4739.00,1.3856
4738.00,1.3919
4737.00,1.3979
4736.00,1.4035
4735.00,1.4087
4734.00,1.4137
4733.00,1.4183
4732.00,1.4225
4731.00,1.4262
4730.00,1.4294
4729.00,1.4322
4728.00,1.4345
4727.00,1.4365
4726.00,1.4380
4725.00,1.4392
4724.00,1.4399
4723.00,1.4401
4722.00,1.4399
4721.00,1.4392
4720.00,1.4383
4719.00,1.4372
4718.00,1.4357
4717.00,1.4338
4716.00,1.4312
4715.00,1.4279
4714.00,1.4240
4713.00,1.4195
4712.00,1.4147
4711.00,1.4096
4710.00,1.4043
4709.00,1.3987
4708.00,1.3926
4707.00,1.3859
4706.00,1.3789
4705.00,1.3714
4704.00,1.3635
4703.00,1.3553
4702.00,1.3467
4701.00,1.3376
4700.00,1.3279
4699.00,1.3176
4698.00,1.3069
4697.00,1.2955
4696.00,1.2836
4695.00,1.2712
4694.00,1.2582
4693.00,1.2448
4692.00,1.2309
4691.00,1.2166
4690.00,1.2018
4689.00,1.1867
4688.00,1.1710
4687.00,1.1549
4686.00,1.1382
4685.00,1.1213
4684.00,1.1040
4683.00,1.0864
4682.00,1.0686
4681.00,1.0505
4680.00,1.0321
4679.00,1.0136
4678.00,0.9951
4677.00,0.9765
4676.00,0.9581
4675.00,0.9398
4674.00,0.9218
4673.00,0.9041
4672.00,0.8866
4671.00,0.8695
4670.00,0.8529
4669.00,0.8368
4668.00,0.8213
4667.00,0.8065
4666.00,0.7925
4665.00,0.7793
4664.00,0.7669
4663.00,0.7556
4662.00,0.7453
4661.00,0.7362
4660.00,0.7283
4659.00,0.7215
4658.00,0.7161
4657.00,0.7120
4656.00,0.7092
4655.00,0.7078
4654.00,0.7077
4653.00,0.7090
4652.00,0.7116
4651.00,0.7154
4650.00,0.7206
4649.00,0.7270
4648.00,0.7346
4647.00,0.7433
4646.00,0.7531
4645.00,0.7638
4644.00,0.7756
4643.00,0.7883
4642.00,0.8017
4641.00,0.8159
4640.00,0.8307
4639.00,0.8460
4638.00,0.8618
4637.00,0.8781
4636.00,0.8947
4635.00,0.9117
4634.00,0.9291
4633.00,0.9467
4632.00,0.9645
4631.00,0.9824
4630.00,1.0004
4629.00,1.0184
4628.00,1.0363
4627.00,1.0543
4626.00,1.0722
4625.00,1.0899
4624.00,1.1075
4623.00,1.1248
4622.00,1.1419
4621.00,1.1588
4620.00,1.1753
4619.00,1.1915
4618.00,1.2074
4617.00,1.2229
4616.00,1.2381
4615.00,1.2529
4614.00,1.2672
4613.00,1.2810
4612.00,1.2943
4611.00,1.3070
4610.00,1.3192
4609.00,1.3308
4608.00,1.3421
4607.00,1.3530
4606.00,1.3636
4605.00,1.3738
4604.00,1.3835
4603.00,1.3925
4602.00,1.4008
4601.00,1.4087
4600.00,1.4163
4599.00,1.4235
4598.00,1.4303
4597.00,1.4365
4596.00,1.4423
4595.00,1.4478
4594.00,1.4533
4593.00,1.4586
4592.00,1.4635
4591.00,1.4677
4590.00,1.4710
4589.00,1.4736
4588.00,1.4757
4587.00,1.4776
4586.00,1.4794
4585.00,1.4809
4584.00,1.4820
4583.00,1.4824
4582.00,1.4823
4581.00,1.4818
4580.00,1.4810
4579.00,1.4796
4578.00,1.4778
4577.00,1.4753
4576.00,1.4724
4575.00,1.4693
4574.00,1.4658
4573.00,1.4622
4572.00,1.4580
4571.00,1.4532
4570.00,1.4477
4569.00,1.4414
4568.00,1.4345
4567.00,1.4275
4566.00,1.4203
4565.00,1.4130
4564.00,1.4051
4563.00,1.3966
4562.00,1.3872
4561.00,1.3771
4560.00,1.3663
4559.00,1.3551
4558.00,1.3437
4557.00,1.3319
4556.00,1.3199
4555.00,1.3074
4554.00,1.2942
4553.00,1.2804
4552.00,1.2661
4551.00,1.2513
4550.00,1.2362
4549.00,1.2207
4548.00,1.2047
4547.00,1.1884
4546.00,1.1717
4545.00,1.1546
4544.00,1.1372
4543.00,1.1193
4542.00,1.1009
4541.00,1.0823
4540.00,1.0635
4539.00,1.0447
4538.00,1.0258
4537.00,1.0068
4536.00,0.9878
4535.00,0.9688
4534.00,0.9498
4533.00,0.9310
4532.00,0.9125
4531.00,0.8945
4530.00,0.8770
4529.00,0.8601
4528.00,0.8438
4527.00,0.8281
4526.00,0.8133
4525.00,0.7994
4524.00,0.7865
4523.00,0.7746
4522.00,0.7639
4521.00,0.7544
4520.00,0.7462
4519.00,0.7392
4518.00,0.7337
4517.00,0.7295
4516.00,0.7267
4515.00,0.7255
4514.00,0.7257
4513.00,0.7276
4512.00,0.7309
4511.00,0.7356
4510.00,0.7417
4509.00,0.7492
4508.00,0.7578
4507.00,0.7676
4506.00,0.7787
4505.00,0.7908
4504.00,0.8040
4503.00,0.8180
4502.00,0.8328
4501.00,0.8483
4500.00,0.8645
4499.00,0.8812
4498.00,0.8984
4497.00,0.9161
4496.00,0.9341
4495.00,0.9525
4494.00,0.9711
4493.00,0.9899
4492.00,1.0088
4491.00,1.0278
4490.00,1.0468
4489.00,1.0658
4488.00,1.0846
4487.00,1.1033
4486.00,1.1218
4485.00,1.1401
4484.00,1.1580
4483.00,1.1756
4482.00,1.1927
4481.00,1.2094
4480.00,1.2255
4479.00,1.2413
4478.00,1.2567
4477.00,1.2718
4476.00,1.2867
4475.00,1.3013
4474.00,1.3154
4473.00,1.3290
4472.00,1.3422
4471.00,1.3551
4470.00,1.3677
4469.00,1.3801
4468.00,1.3920
4467.00,1.4032
4466.00,1.4138
4465.00,1.4238
4464.00,1.4335
4463.00,1.4430
4462.00,1.4524
4461.00,1.4615
4460.00,1.4702
4459.00,1.4781
4458.00,1.4855
4457.00,1.4923
4456.00,1.4989
4455.00,1.5052
4454.00,1.5110
4453.00,1.5162
4452.00,1.5208
4451.00,1.5250
4450.00,1.5288
4449.00,1.5322
4448.00,1.5352
4447.00,1.5378
4446.00,1.5400
4445.00,1.5418
4444.00,1.5433
4443.00,1.5445
4442.00,1.5454
4441.00,1.5459
4440.00,1.5460
4439.00,1.5458
4438.00,1.5450
4437.00,1.5437
4436.00,1.5416
4435.00,1.5389
4434.00,1.5356
4433.00,1.5318
4432.00,1.5278
4431.00,1.5236
4430.00,1.5192
4429.00,1.5142
4428.00,1.5084
4427.00,1.5020
4426.00,1.4950
4425.00,1.4876
4424.00,1.4798
4423.00,1.4715
4422.00,1.4625
4421.00,1.4529
4420.00,1.4427
4419.00,1.4321
4418.00,1.4211
4417.00,1.4097
4416.00,1.3980
4415.00,1.3860
4414.00,1.3736
4413.00,1.3607
4412.00,1.3474
4411.00,1.3336
4410.00,1.3192
4409.00,1.3042
4408.00,1.2889
4407.00,1.2734
4406.00,1.2578
4405.00,1.2421
4404.00,1.2264
4403.00,1.2108
4402.00,1.1951
4401.00,1.1795
4400.00,1.1638
4399.00,1.1480
4398.00,1.1319
4397.00,1.1155
4396.00,1.0988
4395.00,1.0818
4394.00,1.0647
4393.00,1.0475
4392.00,1.0304
4391.00,1.0133
4390.00,0.9964
4389.00,0.9797
4388.00,0.9634
4387.00,0.9477
4386.00,0.9328
4385.00,0.9187
4384.00,0.9057
4383.00,0.8938
4382.00,0.8831
4381.00,0.8735
4380.00,0.8653
4379.00,0.8586
4378.00,0.8534
4377.00,0.8497
4376.00,0.8475
4375.00,0.8467
4374.00,0.8473
4373.00,0.8492
4372.00,0.8522
4371.00,0.8562
4370.00,0.8611
4369.00,0.8667
4368.00,0.8728
4367.00,0.8794
4366.00,0.8863
4365.00,0.8935
4364.00,0.9009
4363.00,0.9086
4362.00,0.9165
4361.00,0.9248
4360.00,0.9335
4359.00,0.9426
4358.00,0.9522
4357.00,0.9624
4356.00,0.9733
4355.00,0.9849
4354.00,0.9974
4353.00,1.0106
4352.00,1.0244
4351.00,1.0390
4350.00,1.0541
4349.00,1.0697
4348.00,1.0857
4347.00,1.1022
4346.00,1.1189
4345.00,1.1359
4344.00,1.1531
4343.00,1.1704
4342.00,1.1878
4341.00,1.2052
4340.00,1.2225
4339.00,1.2397
4338.00,1.2567
4337.00,1.2736
4336.00,1.2901
4335.00,1.3063
4334.00,1.3223
4333.00,1.3379
4332.00,1.3533
4331.00,1.3683
4330.00,1.3828
4329.00,1.3968
4328.00,1.4102
4327.00,1.4229
4326.00,1.4352
4325.00,1.4470
4324.00,1.4583
4323.00,1.4691
4322.00,1.4793
4321.00,1.4889
4320.00,1.4980
4319.00,1.5064
4318.00,1.5141
4317.00,1.5214
4316.00,1.5283
4315.00,1.5350
4314.00,1.5414
4313.00,1.5472
4312.00,1.5524
4311.00,1.5570
4310.00,1.5612
4309.00,1.5650
4308.00,1.5685
4307.00,1.5718
4306.00,1.5748
4305.00,1.5772
4304.00,1.5789
4303.00,1.5802
4302.00,1.5810
4301.00,1.5817
4300.00,1.5822
4299.00,1.5823
4298.00,1.5819
4297.00,1.5810
4296.00,1.5794
4295.00,1.5774
4294.00,1.5750
4293.00,1.5721
4292.00,1.5688
4291.00,1.5650
4290.00,1.5607
4289.00,1.5559
4288.00,1.5508
4287.00,1.5453
4286.00,1.5395
4285.00,1.5331
4284.00,1.5261
4283.00,1.5187
4282.00,1.5107
4281.00,1.5023
4280.00,1.4934
4279.00,1.4841
4278.00,1.4743
4277.00,1.4640
4276.00,1.4532
4275.00,1.4419
4274.00,1.4302
4273.00,1.4178
4272.00,1.4046
4271.00,1.3905
4270.00,1.3756
4269.00,1.3603
4268.00,1.3446
4267.00,1.3285
4266.00,1.3118
4265.00,1.2946
4264.00,1.2766
4263.00,1.2581
4262.00,1.2390
4261.00,1.2192
4260.00,1.1988
4259.00,1.1780
4258.00,1.1567
4257.00,1.1351
4256.00,1.1133
4255.00,1.0912
4254.00,1.0691
4253.00,1.0469
4252.00,1.0246
4251.00,1.0025
4250.00,0.9807
4249.00,0.9592
4248.00,0.9383
4247.00,0.9179
4246.00,0.8981
4245.00,0.8789
4244.00,0.8606
4243.00,0.8431
4242.00,0.8268
4241.00,0.8117
4240.00,0.7978
4239.00,0.7854
4238.00,0.7743
4237.00,0.7648
4236.00,0.7568
4235.00,0.7505
4234.00,0.7460
4233.00,0.7431
4232.00,0.7421
4231.00,0.7428
4230.00,0.7453
4229.00,0.7494
4228.00,0.7552
4227.00,0.7626
4226.00,0.7715
4225.00,0.7819
4224.00,0.7938
4223.00,0.8069
4222.00,0.8213
4221.00,0.8367
4220.00,0.8531
4219.00,0.8703
4218.00,0.8883
4217.00,0.9069
4216.00,0.9260
4215.00,0.9457
4214.00,0.9659
4213.00,0.9864
4212.00,1.0073
4211.00,1.0284
4210.00,1.0495
4209.00,1.0708
4208.00,1.0920
4207.00,1.1131
4206.00,1.1343
4205.00,1.1553
4204.00,1.1762
4203.00,1.1969
4202.00,1.2173
4201.00,1.2375
4200.00,1.2572
4199.00,1.2765
4198.00,1.2953
4197.00,1.3136
4196.00,1.3315
4195.00,1.3489
4194.00,1.3658
4193.00,1.3823
4192.00,1.3982
4191.00,1.4135
4190.00,1.4281
4189.00,1.4423
4188.00,1.4560
4187.00,1.4692
4186.00,1.4819
4185.00,1.4939
4184.00,1.5054
4183.00,1.5164
4182.00,1.5269
4181.00,1.5369
4180.00,1.5463
4179.00,1.5551
4178.00,1.5633
4177.00,1.5712
4176.00,1.5788
4175.00,1.5861
4174.00,1.5927
4173.00,1.5985
4172.00,1.6036
4171.00,1.6083
4170.00,1.6126
4169.00,1.6167
4168.00,1.6203
4167.00,1.6237
4166.00,1.6267
4165.00,1.6294
4164.00,1.6315
4163.00,1.6332
4162.00,1.6343
4161.00,1.6349
4160.00,1.6351
4159.00,1.6349
4158.00,1.6345
4157.00,1.6337
4156.00,1.6325
4155.00,1.6306
4154.00,1.6281
4153.00,1.6251
4152.00,1.6215
4151.00,1.6174
4150.00,1.6129
4149.00,1.6081
4148.00,1.6032
4147.00,1.5980
4146.00,1.5924
4145.00,1.5862
4144.00,1.5792
4143.00,1.5717
4142.00,1.5636
4141.00,1.5551
4140.00,1.5463
4139.00,1.5372
4138.00,1.5276
4137.00,1.5172
4136.00,1.5061
4135.00,1.4942
4134.00,1.4815
4133.00,1.4684
4132.00,1.4547
4131.00,1.4407
4130.00,1.4261
4129.00,1.4110
4128.00,1.3952
4127.00,1.3788
4126.00,1.3618
4125.00,1.3443
4124.00,1.3260
4123.00,1.3071
4122.00,1.2874
4121.00,1.2670
4120.00,1.2459
4119.00,1.2244
4118.00,1.2024
4117.00,1.1800
4116.00,1.1574
4115.00,1.1345
4114.00,1.1114
4113.00,1.0882
4112.00,1.0650
4111.00,1.0420
4110.00,1.0192
4109.00,0.9966
4108.00,0.9745
4107.00,0.9530
4106.00,0.9321
4105.00,0.9120
4104.00,0.8928
4103.00,0.8746
4102.00,0.8575
4101.00,0.8416
4100.00,0.8270
4099.00,0.8137
4098.00,0.8020
4097.00,0.7918
4096.00,0.7834
4095.00,0.7768
4094.00,0.7721
4093.00,0.7692
4092.00,0.7683
4091.00,0.7694
4090.00,0.7725
4089.00,0.7775
4088.00,0.7845
4087.00,0.7932
4086.00,0.8036
4085.00,0.8155
4084.00,0.8288
4083.00,0.8435
4082.00,0.8594
4081.00,0.8764
4080.00,0.8943
4079.00,0.9132
4078.00,0.9327
4077.00,0.9528
4076.00,0.9734
4075.00,0.9944
4074.00,1.0158
4073.00,1.0374
4072.00,1.0592
4071.00,1.0812
4070.00,1.1033
4069.00,1.1255
4068.00,1.1477
4067.00,1.1700
4066.00,1.1921
4065.00,1.2139
4064.00,1.2353
4063.00,1.2564
4062.00,1.2770
4061.00,1.2974
4060.00,1.3175
4059.00,1.3373
4058.00,1.3569
4057.00,1.3761
4056.00,1.3946
4055.00,1.4124
4054.00,1.4296
4053.00,1.4461
4052.00,1.4621
4051.00,1.4776
4050.00,1.4925
4049.00,1.5066
4048.00,1.5202
4047.00,1.5335
4046.00,1.5464
4045.00,1.5588
4044.00,1.5707
4043.00,1.5818
4042.00,1.5924
4041.00,1.6024
4040.00,1.6119
4039.00,1.6210
4038.00,1.6296
4037.00,1.6378
4036.00,1.6454
4035.00,1.6523
4034.00,1.6586
4033.00,1.6644
4032.00,1.6697
4031.00,1.6748
4030.00,1.6794
4029.00,1.6835
4028.00,1.6870
4027.00,1.6900
4026.00,1.6926
4025.00,1.6947
4024.00,1.6964
4023.00,1.6975
4022.00,1.6982
4021.00,1.6984
4020.00,1.6984
4019.00,1.6984
4018.00,1.6981
4017.00,1.6975
4016.00,1.6962
4015.00,1.6943
4014.00,1.6917
4013.00,1.6886
4012.00,1.6851
4011.00,1.6812
4010.00,1.6771
4009.00,1.6727
4008.00,1.6678
4007.00,1.6624
4006.00,1.6565
4005.00,1.6502
4004.00,1.6433
4003.00,1.6359
4002.00,1.6279
4001.00,1.6197
4000.00,1.6109
3999.00,1.6016
3998.00,1.5915
3997.00,1.5806
3996.00,1.5691
3995.00,1.5571
3994.00,1.5447
3993.00,1.5319
3992.00,1.5185
3991.00,1.5043
3990.00,1.4896
3989.00,1.4742
3988.00,1.4582
3987.00,1.4418
3986.00,1.4247
3985.00,1.4070
3984.00,1.3888
3983.00,1.3701
3982.00,1.3511
3981.00,1.3317
3980.00,1.3119
3979.00,1.2919
3978.00,1.2716
3977.00,1.2509
3976.00,1.2298
3975.00,1.2083
3974.00,1.1863
3973.00,1.1638
3972.00,1.1411
3971.00,1.1181
3970.00,1.0948
3969.00,1.0713
3968.00,1.0477
3967.00,1.0242
3966.00,1.0011
3965.00,0.9785
3964.00,0.9565
3963.00,0.9353
3962.00,0.9148
3961.00,0.8954
3960.00,0.8772
3959.00,0.8605
3958.00,0.8452
3957.00,0.8316
3956.00,0.8197
3955.00,0.8098
3954.00,0.8018
3953.00,0.7960
3952.00,0.7922
3951.00,0.7905
3950.00,0.7909
3949.00,0.7935
3948.00,0.7982
3947.00,0.8049
3946.00,0.8135
3945.00,0.8239
3944.00,0.8361
3943.00,0.8500
3942.00,0.8656
3941.00,0.8825
3940.00,0.9005
3939.00,0.9194
3938.00,0.9392
3937.00,0.9598
3936.00,0.9810
3935.00,1.0028
3934.00,1.0252
3933.00,1.0482
3932.00,1.0720
3931.00,1.0963
3930.00,1.1206
3929.00,1.1448
3928.00,1.1684
3927.00,1.1917
3926.00,1.2149
3925.00,1.2382
3924.00,1.2617
3923.00,1.2850
3922.00,1.3078
3921.00,1.3299
3920.00,1.3513
3919.00,1.3722
3918.00,1.3928
3917.00,1.4130
3916.00,1.4329
3915.00,1.4522
3914.00,1.4707
3913.00,1.4884
3912.00,1.5054
3911.00,1.5218
3910.00,1.5376
3909.00,1.5526
3908.00,1.5668
3907.00,1.5803
3906.00,1.5931
3905.00,1.6056
3904.00,1.6178
3903.00,1.6300
3902.00,1.6420
3901.00,1.6534
3900.00,1.6642
3899.00,1.6741
3898.00,1.6831
3897.00,1.6913
3896.00,1.6987
3895.00,1.7054
3894.00,1.7115
3893.00,1.7173
3892.00,1.7227
3891.00,1.7282
3890.00,1.7335
3889.00,1.7386
3888.00,1.7431
3887.00,1.7470
3886.00,1.7502
3885.00,1.7531
3884.00,1.7553
3883.00,1.7569
3882.00,1.7578
3881.00,1.7582
3880.00,1.7584
3879.00,1.7585
3878.00,1.7584
3877.00,1.7579
3876.00,1.7568
3875.00,1.7552
3874.00,1.7533
3873.00,1.7510
3872.00,1.7482
3871.00,1.7446
3870.00,1.7405
3869.00,1.7360
3868.00,1.7317
3867.00,1.7273
3866.00,1.7221
3865.00,1.7155
3864.00,1.7076
3863.00,1.6991
3862.00,1.6905
3861.00,1.6820
3860.00,1.6734
3859.00,1.6644
3858.00,1.6553
3857.00,1.6462
3856.00,1.6367
3855.00,1.6258
3854.00,1.6124
3853.00,1.5968
3852.00,1.5806
3851.00,1.5655
3850.00,1.5512
3849.00,1.5363
3848.00,1.5202
3847.00,1.5031
3846.00,1.4854
3845.00,1.4668
3844.00,1.4473
3843.00,1.4268
3842.00,1.4058
3841.00,1.3844
3840.00,1.3622
3839.00,1.3387
3838.00,1.3136
3837.00,1.2873
3836.00,1.2608
3835.00,1.2347
3834.00,1.2084
3833.00,1.1813
3832.00,1.1534
3831.00,1.1254
3830.00,1.0978
3829.00,1.0711
3828.00,1.0447
3827.00,1.0186
3826.00,0.9930
3825.00,0.9689
3824.00,0.9465
3823.00,0.9251
3822.00,0.9035
3821.00,0.8818
3820.00,0.8615
3819.00,0.8442
3818.00,0.8300
3817.00,0.8175
3816.00,0.8063
3815.00,0.7966
3814.00,0.7896
3813.00,0.7857
3812.00,0.7843
3811.00,0.7851
3810.00,0.7881
3809.00,0.7938
3808.00,0.8024
3807.00,0.8139
3806.00,0.8274
3805.00,0.8419
3804.00,0.8571
3803.00,0.8737
3802.00,0.8931
3801.00,0.9158
3800.00,0.9402
3799.00,0.9646
3798.00,0.9882
3797.00,1.0114
3796.00,1.0353
3795.00,1.0603
3794.00,1.0858
3793.00,1.1115
3792.00,1.1372
3791.00,1.1629
3790.00,1.1886
3789.00,1.2144
3788.00,1.2400
3787.00,1.2655
3786.00,1.2908
3785.00,1.3161
3784.00,1.3411
3783.00,1.3656
3782.00,1.3892
3781.00,1.4120
3780.00,1.4343
3779.00,1.4564
3778.00,1.4783
3777.00,1.4996
3776.00,1.5200
3775.00,1.5395
3774.00,1.5578
3773.00,1.5753
3772.00,1.5920
3771.00,1.6081
3770.00,1.6238
3769.00,1.6393
3768.00,1.6542
3767.00,1.6682
3766.00,1.6810
3765.00,1.6929
3764.00,1.7043
3763.00,1.7153
3762.00,1.7258
3761.00,1.7359
3760.00,1.7454
3759.00,1.7543
3758.00,1.7629
3757.00,1.7713
3756.00,1.7791
3755.00,1.7859
3754.00,1.7918
3753.00,1.7971
3752.00,1.8024
3751.00,1.8078
3750.00,1.8131
3749.00,1.8179
3748.00,1.8218
3747.00,1.8246
3746.00,1.8263
3745.00,1.8277
3744.00,1.8291
3743.00,1.8303
3742.00,1.8313
3741.00,1.8316
3740.00,1.8310
3739.00,1.8297
3738.00,1.8284
3737.00,1.8268
3736.00,1.8245
3735.00,1.8214
3734.00,1.8177
3733.00,1.8138
3732.00,1.8094
3731.00,1.8046
3730.00,1.7996
3729.00,1.7944
3728.00,1.7888
3727.00,1.7826
3726.00,1.7754
3725.00,1.7675
3724.00,1.7591
3723.00,1.7501
3722.00,1.7408
3721.00,1.7309
3720.00,1.7203
3719.00,1.7090
3718.00,1.6973
3717.00,1.6850
3716.00,1.6718
3715.00,1.6578
3714.00,1.6430
3713.00,1.6275
3712.00,1.6112
3711.00,1.5942
3710.00,1.5765
3709.00,1.5580
3708.00,1.5386
3707.00,1.5182
3706.00,1.4973
3705.00,1.4760
3704.00,1.4541
3703.00,1.4311
3702.00,1.4068
3701.00,1.3813
3700.00,1.3554
3699.00,1.3295
3698.00,1.3038
3697.00,1.2779
3696.00,1.2520
3695.00,1.2265
3694.00,1.2017
3693.00,1.1775
3692.00,1.1538
3691.00,1.1307
3690.00,1.1080
3689.00,1.0855
3688.00,1.0636
3687.00,1.0438
3686.00,1.0267
3685.00,1.0122
3684.00,0.9998
3683.00,0.9893
3682.00,0.9811
3681.00,0.9753
3680.00,0.9720
3679.00,0.9711
3678.00,0.9726
3677.00,0.9766
3676.00,0.9830
3675.00,0.9914
3674.00,1.0012
3673.00,1.0121
3672.00,1.0243
3671.00,1.0383
3670.00,1.0549
3669.00,1.0735
3668.00,1.0930
3667.00,1.1125
3666.00,1.1316
3665.00,1.1508
3664.00,1.1705
3663.00,1.1911
3662.00,1.2126
3661.00,1.2343
3660.00,1.2559
3659.00,1.2772
3658.00,1.2984
3657.00,1.3201
3656.00,1.3425
3655.00,1.3652
3654.00,1.3867
3653.00,1.4063
3652.00,1.4244
3651.00,1.4424
3650.00,1.4615
3649.00,1.4822
3648.00,1.5040
3647.00,1.5259
3646.00,1.5464
3645.00,1.5648
3644.00,1.5815
3643.00,1.5973
3642.00,1.6130
3641.00,1.6287
3640.00,1.6443
3639.00,1.6598
3638.00,1.6750
3637.00,1.6898
3636.00,1.7041
3635.00,1.7179
3634.00,1.7312
3633.00,1.7438
3632.00,1.7557
3631.00,1.7669
3630.00,1.7778
3629.00,1.7890
3628.00,1.8014
3627.00,1.8143
3626.00,1.8265
3625.00,1.8369
3624.00,1.8455
3623.00,1.8532
3622.00,1.8604
3621.00,1.8672
3620.00,1.8741
3619.00,1.8810
3618.00,1.8878
3617.00,1.8944
3616.00,1.9006
3615.00,1.9061
3614.00,1.9108
3613.00,1.9150
3612.00,1.9194
3611.00,1.9241
3610.00,1.9288
3609.00,1.9333
3608.00,1.9369
3607.00,1.9395
3606.00,1.9411
3605.00,1.9421
3604.00,1.9431
3603.00,1.9443
3602.00,1.9455
3601.00,1.9464
3600.00,1.9472
3599.00,1.9477
3598.00,1.9477
3597.00,1.9468
3596.00,1.9452
3595.00,1.9433
3594.00,1.9412
3593.00,1.9391
3592.00,1.9368
3591.00,1.9342
3590.00,1.9308
3589.00,1.9266
3588.00,1.9216
3587.00,1.9163
3586.00,1.9107
3585.00,1.9050
3584.00,1.8989
3583.00,1.8925
3582.00,1.8855
3581.00,1.8781
3580.00,1.8705
3579.00,1.8627
3578.00,1.8545
3577.00,1.8455
3576.00,1.8359
3575.00,1.8254
3574.00,1.8145
3573.00,1.8032
3572.00,1.7920
3571.00,1.7805
3570.00,1.7684
3569.00,1.7555
3568.00,1.7416
3567.00,1.7270
3566.00,1.7120
3565.00,1.6968
3564.00,1.6817
3563.00,1.6663
3562.00,1.6503
3561.00,1.6336
3560.00,1.6165
3559.00,1.5993
3558.00,1.5820
3557.00,1.5647
3556.00,1.5473
3555.00,1.5298
3554.00,1.5122
3553.00,1.4945
3552.00,1.4768
3551.00,1.4591
3550.00,1.4416
3549.00,1.4242
3548.00,1.4071
3547.00,1.3900
3546.00,1.3732
3545.00,1.3565
3544.00,1.3401
3543.00,1.3242
3542.00,1.3089
3541.00,1.2941
3540.00,1.2799
3539.00,1.2664
3538.00,1.2535
3537.00,1.2413
3536.00,1.2298
3535.00,1.2192
3534.00,1.2096
3533.00,1.2010
3532.00,1.1934
3531.00,1.1870
3530.00,1.1819
3529.00,1.1781
3528.00,1.1756
3527.00,1.1744
3526.00,1.1746
3525.00,1.1762
3524.00,1.1792
3523.00,1.1837
3522.00,1.1897
3521.00,1.1973
3520.00,1.2063
3519.00,1.2167
3518.00,1.2284
3517.00,1.2413
3516.00,1.2553
3515.00,1.2703
3514.00,1.2864
3513.00,1.3033
3512.00,1.3211
3511.00,1.3397
3510.00,1.3590
3509.00,1.3788
3508.00,1.3990
3507.00,1.4195
3506.00,1.4400
3505.00,1.4607
3504.00,1.4815
3503.00,1.5025
3502.00,1.5236
3501.00,1.5444
3500.00,1.5650
3499.00,1.5850
3498.00,1.6047
3497.00,1.6241
3496.00,1.6434
3495.00,1.6625
3494.00,1.6809
3493.00,1.6983
3492.00,1.7150
3491.00,1.7314
3490.00,1.7476
3489.00,1.7635
3488.00,1.7790
3487.00,1.7937
3486.00,1.8076
3485.00,1.8210
3484.00,1.8343
3483.00,1.8474
3482.00,1.8599
3481.00,1.8713
3480.00,1.8816
3479.00,1.8913
3478.00,1.9006
3477.00,1.9098
3476.00,1.9186
3475.00,1.9269
3474.00,1.9343
3473.00,1.9413
3472.00,1.9480
3471.00,1.9548
3470.00,1.9610
3469.00,1.9664
3468.00,1.9706
3467.00,1.9742
3466.00,1.9778
3465.00,1.9815
3464.00,1.9852
3463.00,1.9883
3462.00,1.9906
3461.00,1.9926
3460.00,1.9945
3459.00,1.9963
3458.00,1.9972
3457.00,1.9970
3456.00,1.9960
3455.00,1.9949
3454.00,1.9940
3453.00,1.9933
3452.00,1.9922
3451.00,1.9906
3450.00,1.9881
3449.00,1.9849
3448.00,1.9813
3447.00,1.9774
3446.00,1.9732
3445.00,1.9685
3444.00,1.9632
3443.00,1.9574
3442.00,1.9510
3441.00,1.9442
3440.00,1.9370
3439.00,1.9294
3438.00,1.9211
3437.00,1.9123
3436.00,1.9028
3435.00,1.8928
3434.00,1.8823
3433.00,1.8712
3432.00,1.8595
3431.00,1.8471
3430.00,1.8340
3429.00,1.8203
3428.00,1.8061
3427.00,1.7913
3426.00,1.7757
3425.00,1.7596
3424.00,1.7431
3423.00,1.7259
3422.00,1.7078
3421.00,1.6887
3420.00,1.6689
3419.00,1.6484
3418.00,1.6274
3417.00,1.6059
3416.00,1.5837
3415.00,1.5610
3414.00,1.5377
3413.00,1.5138
3412.00,1.4894
3411.00,1.4646
3410.00,1.4395
3409.00,1.4142
3408.00,1.3891
3407.00,1.3641
3406.00,1.3393
3405.00,1.3149
3404.00,1.2909
3403.00,1.2674
3402.00,1.2444
3401.00,1.2220
3400.00,1.2002
3399.00,1.1793
3398.00,1.1595
3397.00,1.1410
3396.00,1.1240
3395.00,1.1087
3394.00,1.0952
3393.00,1.0837
3392.00,1.0742
3391.00,1.0670
3390.00,1.0621
3389.00,1.0596
3388.00,1.0596
3387.00,1.0620
3386.00,1.0668
3385.00,1.0738
3384.00,1.0829
3383.00,1.0941
3382.00,1.1072
3381.00,1.1221
3380.00,1.1387
3379.00,1.1568
3378.00,1.1762
3377.00,1.1969
3376.00,1.2185
3375.00,1.2410
3374.00,1.2644
3373.00,1.2886
3372.00,1.3135
3371.00,1.3389
3370.00,1.3645
3369.00,1.3903
3368.00,1.4159
3367.00,1.4414
3366.00,1.4667
3365.00,1.4918
3364.00,1.5167
3363.00,1.5414
3362.00,1.5658
3361.00,1.5899
3360.00,1.6136
3359.00,1.6366
3358.00,1.6587
3357.00,1.6799
3356.00,1.7004
3355.00,1.7205
3354.00,1.7403
3353.00,1.7597
3352.00,1.7783
3351.00,1.7959
3350.00,1.8126
3349.00,1.8285
3348.00,1.8438
3347.00,1.8585
3346.00,1.8727
3345.00,1.8864
3344.00,1.8997
3343.00,1.9125
3342.00,1.9244
3341.00,1.9356
3340.00,1.9460
3339.00,1.9560
3338.00,1.9655
3337.00,1.9747
3336.00,1.9835
3335.00,1.9921
3334.00,2.0003
3333.00,2.0079
3332.00,2.0144
3331.00,2.0198
3330.00,2.0245
3329.00,2.0291
3328.00,2.0336
3327.00,2.0378
3326.00,2.0415
3325.00,2.0450
3324.00,2.0483
3323.00,2.0511
3322.00,2.0532
3321.00,2.0547
3320.00,2.0559
3319.00,2.0568
3318.00,2.0571
3317.00,2.0567
3316.00,2.0561
3315.00,2.0552
3314.00,2.0543
3313.00,2.0532
3312.00,2.0516
3311.00,2.0491
3310.00,2.0458
3309.00,2.0421
3308.00,2.0382
3307.00,2.0340
3306.00,2.0291
3305.00,2.0234
3304.00,2.0173
3303.00,2.0109
3302.00,2.0045
3301.00,1.9980
3300.00,1.9912
3299.00,1.9835
3298.00,1.9748
3297.00,1.9654
3296.00,1.9555
3295.00,1.9455
3294.00,1.9348
3293.00,1.9234
3292.00,1.9113
3291.00,1.8986
3290.00,1.8854
3289.00,1.8715
3288.00,1.8571
3287.00,1.8419
3286.00,1.8258
3285.00,1.8091
3284.00,1.7918
3283.00,1.7739
3282.00,1.7553
3281.00,1.7361
3280.00,1.7163
3279.00,1.6957
3278.00,1.6742
3277.00,1.6518
3276.00,1.6285
3275.00,1.6045
3274.00,1.5797
3273.00,1.5543
3272.00,1.5284
3271.00,1.5020
3270.00,1.4753
3269.00,1.4484
3268.00,1.4214
3267.00,1.3944
3266.00,1.3675
3265.00,1.3409
3264.00,1.3148
3263.00,1.2893
3262.00,1.2647
3261.00,1.2411
3260.00,1.2187
3259.00,1.1977
3258.00,1.1783
3257.00,1.1607
3256.00,1.1451
3255.00,1.1317
3254.00,1.1205
3253.00,1.1116
3252.00,1.1051
3251.00,1.1011
3250.00,1.0998
3249.00,1.1010
3248.00,1.1050
3247.00,1.1114
3246.00,1.1202
3245.00,1.1314
3244.00,1.1447
3243.00,1.1601
3242.00,1.1773
3241.00,1.1961
3240.00,1.2165
3239.00,1.2382
3238.00,1.2612
3237.00,1.2853
3236.00,1.3101
3235.00,1.3357
3234.00,1.3619
3233.00,1.3884
3232.00,1.4153
3231.00,1.4422
3230.00,1.4693
3229.00,1.4963
3228.00,1.5234
3227.00,1.5502
3226.00,1.5767
3225.00,1.6027
3224.00,1.6280
3223.00,1.6529
3222.00,1.6774
3221.00,1.7015
3220.00,1.7250
3219.00,1.7481
3218.00,1.7703
3217.00,1.7917
3216.00,1.8123
3215.00,1.8321
3214.00,1.8513
3213.00,1.8700
3212.00,1.8882
3211.00,1.9057
3210.00,1.9222
3209.00,1.9377
3208.00,1.9526
3207.00,1.9669
3206.00,1.9804
3205.00,1.9930
3204.00,2.0044
3203.00,2.0148
3202.00,2.0242
3201.00,2.0330
3200.00,2.0412
3199.00,2.0490
3198.00,2.0565
3197.00,2.0638
3196.00,2.0709
3195.00,2.0776
3194.00,2.0840
3193.00,2.0900
3192.00,2.0957
3191.00,2.1009
3190.00,2.1058
3189.00,2.1105
3188.00,2.1152
3187.00,2.1196
3186.00,2.1235
3185.00,2.1265
3184.00,2.1290
3183.00,2.1311
3182.00,2.1333
3181.00,2.1353
3180.00,2.1369
3179.00,2.1376
3178.00,2.1373
3177.00,2.1366
3176.00,2.1358
3175.00,2.1346
3174.00,2.1327
3173.00,2.1304
3172.00,2.1283
3171.00,2.1268
3170.00,2.1263
3169.00,2.1266
3168.00,2.1282
3167.00,2.1309
3166.00,2.1344
3165.00,2.1378
3164.00,2.1399
3163.00,2.1395
3162.00,2.1358
3161.00,2.1286
3160.00,2.1186
3159.00,2.1069
3158.00,2.0946
3157.00,2.0822
3156.00,2.0697
3155.00,2.0570
3154.00,2.0439
3153.00,2.0303
3152.00,2.0163
3151.00,2.0024
3150.00,1.9885
3149.00,1.9744
3148.00,1.9594
3147.00,1.9432
3146.00,1.9259
3145.00,1.9083
3144.00,1.8908
3143.00,1.8731
3142.00,1.8548
3141.00,1.8354
3140.00,1.8150
3139.00,1.7937
3138.00,1.7716
3137.00,1.7488
3136.00,1.7256
3135.00,1.7019
3134.00,1.6779
3133.00,1.6535
3132.00,1.6285
3131.00,1.6029
3130.00,1.5769
3129.00,1.5505
3128.00,1.5240
3127.00,1.4974
3126.00,1.4711
3125.00,1.4454
3124.00,1.4204
3123.00,1.3962
3122.00,1.3730
3121.00,1.3509
3120.00,1.3302
3119.00,1.3112
3118.00,1.2940
3117.00,1.2789
3116.00,1.2659
3115.00,1.2551
3114.00,1.2465
3113.00,1.2401
3112.00,1.2360
3111.00,1.2342
3110.00,1.2346
3109.00,1.2374
3108.00,1.2426
3107.00,1.2501
3106.00,1.2599
3105.00,1.2720
3104.00,1.2863
3103.00,1.3025
3102.00,1.3205
3101.00,1.3399
3100.00,1.3605
3099.00,1.3823
3098.00,1.4050
3097.00,1.4285
3096.00,1.4529
3095.00,1.4778
3094.00,1.5032
3093.00,1.5289
3092.00,1.5548
3091.00,1.5808
3090.00,1.6067
3089.00,1.6325
3088.00,1.6581
3087.00,1.6833
3086.00,1.7079
3085.00,1.7320
3084.00,1.7557
3083.00,1.7791
3082.00,1.8021
3081.00,1.8247
3080.00,1.8465
3079.00,1.8675
3078.00,1.8876
3077.00,1.9071
3076.00,1.9262
3075.00,1.9449
3074.00,1.9627
3073.00,1.9794
3072.00,1.9952
3071.00,2.0105
3070.00,2.0255
3069.00,2.0403
3068.00,2.0550
3067.00,2.0692
3066.00,2.0827
3065.00,2.0950
3064.00,2.1060
3063.00,2.1162
3062.00,2.1258
3061.00,2.1354
3060.00,2.1449
3059.00,2.1543
3058.00,2.1632
3057.00,2.1717
3056.00,2.1798
3055.00,2.1873
3054.00,2.1939
3053.00,2.1994
3052.00,2.2046
3051.00,2.2097
3050.00,2.2146
3049.00,2.2190
3048.00,2.2225
3047.00,2.2253
3046.00,2.2275
3045.00,2.2292
3044.00,2.2308
3043.00,2.2326
3042.00,2.2342
3041.00,2.2352
3040.00,2.2356
3039.00,2.2356
3038.00,2.2354
3037.00,2.2348
3036.00,2.2336
3035.00,2.2319
3034.00,2.2300
3033.00,2.2279
3032.00,2.2257
3031.00,2.2227
3030.00,2.2189
3029.00,2.2143
3028.00,2.2094
3027.00,2.2042
3026.00,2.1989
3025.00,2.1934
3024.00,2.1878
3023.00,2.1820
3022.00,2.1756
3021.00,2.1686
3020.00,2.1609
3019.00,2.1532
3018.00,2.1457
3017.00,2.1388
3016.00,2.1323
3015.00,2.1260
3014.00,2.1196
3013.00,2.1136
3012.00,2.1081
3011.00,2.1030
3010.00,2.0986
3009.00,2.0947
3008.00,2.0917
3007.00,2.0894
3006.00,2.0877
3005.00,2.0862
3004.00,2.0842
3003.00,2.0809
3002.00,2.0758
3001.00,2.0687
3000.00,2.0597
2999.00,2.0491
2998.00,2.0369
2997.00,2.0230
2996.00,2.0076
2995.00,1.9905
2994.00,1.9717
2993.00,1.9515
2992.00,1.9300
2991.00,1.9075
2990.00,1.8843
2989.00,1.8606
2988.00,1.8368
2987.00,1.8131
2986.00,1.7902
2985.00,1.7687
2984.00,1.7491
2983.00,1.7321
2982.00,1.7177
2981.00,1.7063
2980.00,1.6981
2979.00,1.6933
2978.00,1.6923
2977.00,1.6951
2976.00,1.7020
2975.00,1.7125
2974.00,1.7265
2973.00,1.7436
2972.00,1.7634
2971.00,1.7856
2970.00,1.8094
2969.00,1.8342
2968.00,1.8593
2967.00,1.8844
2966.00,1.9092
2965.00,1.9338
2964.00,1.9576
2963.00,1.9805
2962.00,2.0022
2961.00,2.0232
2960.00,2.0444
2959.00,2.0663
2958.00,2.0890
2957.00,2.1124
2956.00,2.1364
2955.00,2.1607
2954.00,2.1855
2953.00,2.2107
2952.00,2.2364
2951.00,2.2623
2950.00,2.2878
2949.00,2.3125
2948.00,2.3360
2947.00,2.3579
2946.00,2.3768
2945.00,2.3906
2944.00,2.3959
2943.00,2.3901
2942.00,2.3737
2941.00,2.3496
2940.00,2.3218
2939.00,2.2928
2938.00,2.2641
2937.00,2.2367
2936.00,2.2113
2935.00,2.1880
2934.00,2.1663
2933.00,2.1460
2932.00,2.1277
2931.00,2.1120
2930.00,2.0992
2929.00,2.0894
2928.00,2.0823
2927.00,2.0772
2926.00,2.0736
2925.00,2.0714
2924.00,2.0709
2923.00,2.0722
2922.00,2.0755
2921.00,2.0809
2920.00,2.0879
2919.00,2.0963
2918.00,2.1054
2917.00,2.1152
2916.00,2.1257
2915.00,2.1364
2914.00,2.1472
2913.00,2.1583
2912.00,2.1701
2911.00,2.1827
2910.00,2.1953
2909.00,2.2072
2908.00,2.2182
2907.00,2.2283
2906.00,2.2378
2905.00,2.2467
2904.00,2.2556
2903.00,2.2645
2902.00,2.2731
2901.00,2.2808
2900.00,2.2875
2899.00,2.2938
2898.00,2.2998
2897.00,2.3054
2896.00,2.3105
2895.00,2.3151
2894.00,2.3195
2893.00,2.3242
2892.00,2.3290
2891.00,2.3336
2890.00,2.3375
2889.00,2.3405
2888.00,2.3425
2887.00,2.3434
2886.00,2.3436
2885.00,2.3437
2884.00,2.3446
2883.00,2.3461
2882.00,2.3474
2881.00,2.3478
2880.00,2.3472
2879.00,2.3461
2878.00,2.3454
2877.00,2.3458
2876.00,2.3471
2875.00,2.3485
2874.00,2.3490
2873.00,2.3484
2872.00,2.3475
2871.00,2.3468
2870.00,2.3465
2869.00,2.3462
2868.00,2.3460
2867.00,2.3453
2866.00,2.3432
2865.00,2.3389
2864.00,2.3329
2863.00,2.3259
2862.00,2.3179
2861.00,2.3089
2860.00,2.2990
2859.00,2.2886
2858.00,2.2777
2857.00,2.2658
2856.00,2.2524
2855.00,2.2378
2854.00,2.2222
2853.00,2.2060
2852.00,2.1887
2851.00,2.1704
2850.00,2.1511
2849.00,2.1314
2848.00,2.1115
2847.00,2.0914
2846.00,2.0703
2845.00,2.0477
2844.00,2.0237
2843.00,1.9988
2842.00,1.9735
2841.00,1.9478
2840.00,1.9213
2839.00,1.8938
2838.00,1.8652
2837.00,1.8356
2836.00,1.8052
2835.00,1.7737
2834.00,1.7411
2833.00,1.7075
2832.00,1.6731
2831.00,1.6380
2830.00,1.6023
2829.00,1.5662
2828.00,1.5299
2827.00,1.4936
2826.00,1.4575
2825.00,1.4221
2824.00,1.3878
2823.00,1.3552
2822.00,1.3245
2821.00,1.2962
2820.00,1.2708
2819.00,1.2485
2818.00,1.2299
2817.00,1.2153
2816.00,1.2049
2815.00,1.1988
2814.00,1.1972
2813.00,1.2001
2812.00,1.2072
2811.00,1.2186
2810.00,1.2338
2809.00,1.2527
2808.00,1.2749
2807.00,1.3000
2806.00,1.3276
2805.00,1.3573
2804.00,1.3886
2803.00,1.4211
2802.00,1.4546
2801.00,1.4887
2800.00,1.5232
2799.00,1.5580
2798.00,1.5929
2797.00,1.6277
2796.00,1.6622
2795.00,1.6963
2794.00,1.7298
2793.00,1.7627
2792.00,1.7950
2791.00,1.8266
2790.00,1.8572
2789.00,1.8869
2788.00,1.9154
2787.00,1.9428
2786.00,1.9693
2785.00,1.9948
2784.00,2.0193
2783.00,2.0426
2782.00,2.0644
2781.00,2.0851
2780.00,2.1050
2779.00,2.1243
2778.00,2.1429
2777.00,2.1606
2776.00,2.1773
2775.00,2.1932
2774.00,2.2083
2773.00,2.2227
2772.00,2.2366
2771.00,2.2498
2770.00,2.2620
2769.00,2.2735
2768.00,2.2845
2767.00,2.2952
2766.00,2.3057
2765.00,2.3159
2764.00,2.3259
2763.00,2.3355
2762.00,2.3442
2761.00,2.3516
2760.00,2.3577
2759.00,2.3628
2758.00,2.3673
2757.00,2.3714
2756.00,2.3753
2755.00,2.3791
2754.00,2.3827
2753.00,2.3861
2752.00,2.3895
2751.00,2.3926
2750.00,2.3953
2749.00,2.3975
2748.00,2.3993
2747.00,2.4003
2746.00,2.4000
2745.00,2.3988
2744.00,2.3975
2743.00,2.3965
2742.00,2.3953
2741.00,2.3933
2740.00,2.3906
2739.00,2.3875
2738.00,2.3839
2737.00,2.3792
2736.00,2.3734
2735.00,2.3677
2734.00,2.3632
2733.00,2.3596
2732.00,2.3553
2731.00,2.3490
2730.00,2.3405
2729.00,2.3305
2728.00,2.3202
2727.00,2.3101
2726.00,2.3004
2725.00,2.2909
2724.00,2.2807
2723.00,2.2691
2722.00,2.2562
2721.00,2.2430
2720.00,2.2297
2719.00,2.2158
2718.00,2.2003
2717.00,2.1833
2716.00,2.1656
2715.00,2.1475
2714.00,2.1288
2713.00,2.1094
2712.00,2.0891
2711.00,2.0680
2710.00,2.0457
2709.00,2.0220
2708.00,1.9969
2707.00,1.9706
2706.00,1.9431
2705.00,1.9142
2704.00,1.8837
2703.00,1.8514
2702.00,1.8175
2701.00,1.7821
2700.00,1.7454
2699.00,1.7071
2698.00,1.6674
2697.00,1.6264
2696.00,1.5843
2695.00,1.5415
2694.00,1.4981
2693.00,1.4548
2692.00,1.4121
2691.00,1.3706
2690.00,1.3308
2689.00,1.2934
2688.00,1.2589
2687.00,1.2276
2686.00,1.2000
2685.00,1.1766
2684.00,1.1579
2683.00,1.1440
2682.00,1.1352
2681.00,1.1314
2680.00,1.1325
2679.00,1.1383
2678.00,1.1485
2677.00,1.1629
2676.00,1.1812
2675.00,1.2031
2674.00,1.2280
2673.00,1.2554
2672.00,1.2851
2671.00,1.3166
2670.00,1.3497
2669.00,1.3841
2668.00,1.4197
2667.00,1.4564
2666.00,1.4942
2665.00,1.5328
2664.00,1.5721
2663.00,1.6118
2662.00,1.6513
2661.00,1.6905
2660.00,1.7290
2659.00,1.7670
2658.00,1.8042
2657.00,1.8405
2656.00,1.8755
2655.00,1.9093
2654.00,1.9417
2653.00,1.9728
2652.00,2.0026
2651.00,2.0312
2650.00,2.0585
2649.00,2.0845
2648.00,2.1090
2647.00,2.1322
2646.00,2.1544
2645.00,2.1758
2644.00,2.1967
2643.00,2.2171
2642.00,2.2368
2641.00,2.2553
2640.00,2.2728
2639.00,2.2896
2638.00,2.3056
2637.00,2.3207
2636.00,2.3349
2635.00,2.3486
2634.00,2.3623
2633.00,2.3757
2632.00,2.3881
2631.00,2.3990
2630.00,2.4082
2629.00,2.4159
2628.00,2.4225
2627.00,2.4286
2626.00,2.4349
2625.00,2.4416
2624.00,2.4481
2623.00,2.4535
2622.00,2.4574
2621.00,2.4612
2620.00,2.4660
2619.00,2.4717
2618.00,2.4768
2617.00,2.4805
2616.00,2.4832
2615.00,2.4859
2614.00,2.4888
2613.00,2.4913
2612.00,2.4927
2611.00,2.4933
2610.00,2.4937
2609.00,2.4942
2608.00,2.4945
2607.00,2.4944
2606.00,2.4935
2605.00,2.4919
2604.00,2.4900
2603.00,2.4882
2602.00,2.4865
2601.00,2.4844
2600.00,2.4813
2599.00,2.4774
2598.00,2.4729
2597.00,2.4678
2596.00,2.4620
2595.00,2.4556
2594.00,2.4484
2593.00,2.4403
2592.00,2.4315
2591.00,2.4226
2590.00,2.4139
2589.00,2.4054
2588.00,2.3967
2587.00,2.3874
2586.00,2.3771
2585.00,2.3658
2584.00,2.3536
2583.00,2.3402
2582.00,2.3256
2581.00,2.3102
2580.00,2.2946
2579.00,2.2790
2578.00,2.2631
2577.00,2.2462
2576.00,2.2280
2575.00,2.2088
2574.00,2.1886
2573.00,2.1676
2572.00,2.1456
2571.00,2.1226
2570.00,2.0983
2569.00,2.0727
2568.00,2.0456
2567.00,2.0169
2566.00,1.9867
2565.00,1.9549
2564.00,1.9215
2563.00,1.8865
2562.00,1.8497
2561.00,1.8111
2560.00,1.7707
2559.00,1.7287
2558.00,1.6850
2557.00,1.6399
2556.00,1.5939
2555.00,1.5475
2554.00,1.5012
2553.00,1.4556
2552.00,1.4112
2551.00,1.3685
2550.00,1.3281
2549.00,1.2906
2548.00,1.2565
2547.00,1.2265
2546.00,1.2008
2545.00,1.1801
2544.00,1.1646
2543.00,1.1549
2542.00,1.1511
2541.00,1.1533
2540.00,1.1616
2539.00,1.1755
2538.00,1.1947
2537.00,1.2188
2536.00,1.2470
2535.00,1.2789
2534.00,1.3138
2533.00,1.3512
2532.00,1.3906
2531.00,1.4315
2530.00,1.4736
2529.00,1.5165
2528.00,1.5598
2527.00,1.6032
2526.00,1.6466
2525.00,1.6896
2524.00,1.7321
2523.00,1.7737
2522.00,1.8142
2521.00,1.8536
2520.00,1.8920
2519.00,1.9294
2518.00,1.9657
2517.00,2.0007
2516.00,2.0338
2515.00,2.0651
2514.00,2.0948
2513.00,2.1233
2512.00,2.1508
2511.00,2.1773
2510.00,2.2023
2509.00,2.2257
2508.00,2.2477
2507.00,2.2690
2506.00,2.2900
2505.00,2.3103
2504.00,2.3294
2503.00,2.3467
2502.00,2.3626
2501.00,2.3779
2500.00,2.3928
2499.00,2.4072
2498.00,2.4213
2497.00,2.4356
2496.00,2.4500
2495.00,2.4637
2494.00,2.4757
2493.00,2.4858
2492.00,2.4947
2491.00,2.5036
2490.00,2.5134
2489.00,2.5236
2488.00,2.5328
2487.00,2.5399
2486.00,2.5450
2485.00,2.5497
2484.00,2.5552
2483.00,2.5614
2482.00,2.5672
2481.00,2.5725
2480.00,2.5773
2479.00,2.5813
2478.00,2.5842
2477.00,2.5865
2476.00,2.5890
2475.00,2.5919
2474.00,2.5945
2473.00,2.5960
2472.00,2.5962
2471.00,2.5955
2470.00,2.5946
2469.00,2.5943
2468.00,2.5949
2467.00,2.5951
2466.00,2.5938
2465.00,2.5909
2464.00,2.5878
2463.00,2.5853
2462.00,2.5825
2461.00,2.5786
2460.00,2.5736
2459.00,2.5683
2458.00,2.5634
2457.00,2.5584
2456.00,2.5528
2455.00,2.5461
2454.00,2.5381
2453.00,2.5291
2452.00,2.5196
2451.00,2.5098
2450.00,2.4993
2449.00,2.4877
2448.00,2.4752
2447.00,2.4629
2446.00,2.4515
2445.00,2.4408
2444.00,2.4298
2443.00,2.4175
2442.00,2.4038
2441.00,2.3887
2440.00,2.3725
2439.00,2.3550
2438.00,2.3363
2437.00,2.3163
2436.00,2.2951
2435.00,2.2730
2434.00,2.2504
2433.00,2.2273
2432.00,2.2036
2431.00,2.1784
2430.00,2.1515
2429.00,2.1232
2428.00,2.0935
2427.00,2.0629
2426.00,2.0313
2425.00,1.9991
2424.00,1.9660
2423.00,1.9319
2422.00,1.8966
2421.00,1.8604
2420.00,1.8239
2419.00,1.7876
2418.00,1.7518
2417.00,1.7167
2416.00,1.6824
2415.00,1.6493
2414.00,1.6176
2413.00,1.5872
2412.00,1.5585
2411.00,1.5311
2410.00,1.5051
2409.00,1.4805
2408.00,1.4572
2407.00,1.4355
2406.00,1.4158
2405.00,1.3985
2404.00,1.3843
2403.00,1.3739
2402.00,1.3677
2401.00,1.3660
2400.00,1.3692
2399.00,1.3775
2398.00,1.3908
2397.00,1.4091
2396.00,1.4319
2395.00,1.4589
2394.00,1.4894
2393.00,1.5230
2392.00,1.5593
2391.00,1.5977
2390.00,1.6378
2389.00,1.6792
2388.00,1.7213
2387.00,1.7637
2386.00,1.8058
2385.00,1.8474
2384.00,1.8881
2383.00,1.9279
2382.00,1.9661
2381.00,2.0021
2380.00,2.0353
2379.00,2.0654
2378.00,2.0921
2377.00,2.1156
2376.00,2.1365
2375.00,2.1552
2374.00,2.1724
2373.00,2.1887
2372.00,2.2052
2371.00,2.2232
2370.00,2.2429
2369.00,2.2639
2368.00,2.2848
2367.00,2.3046
2366.00,2.3232
2365.00,2.3418
2364.00,2.3609
2363.00,2.3796
2362.00,2.3975
2361.00,2.4144
2360.00,2.4295
2359.00,2.4429
2358.00,2.4546
2357.00,2.4646
2356.00,2.4769
2355.00,2.4856
2354.00,2.5038
2353.00,2.5091
2352.00,2.6128
2351.00,2.6512
2350.00,2.6437
2349.00,2.6567
2348.00,2.6514
2347.00,2.6711
2346.00,2.5988
2345.00,2.5890
2344.00,2.5998
2343.00,2.5942
2342.00,2.5973
2341.00,2.6001
2340.00,2.6058
2339.00,2.6100
2338.00,2.6146
2337.00,2.6198
2336.00,2.6243
2335.00,2.6263
2334.00,2.6263
2333.00,2.6263
2332.00,2.6271
2331.00,2.6266
2330.00,2.6229
2329.00,2.6180
2328.00,2.6127
2327.00,2.6090
2326.00,2.6058
2325.00,2.6027
2324.00,2.5985
2323.00,2.5917
2322.00,2.5833
2321.00,2.5746
2320.00,2.5680
2319.00,2.5626
2318.00,2.5573
2317.00,2.5513
2316.00,2.5451
2315.00,2.5391
2314.00,2.5322
2313.00,2.5235
2312.00,2.5120
2311.00,2.4987
2310.00,2.4836
2309.00,2.4675
2308.00,2.4496
2307.00,2.4300
2306.00,2.4089
2305.00,2.3873
2304.00,2.3658
2303.00,2.3456
2302.00,2.3280
2301.00,2.3154
2300.00,2.3101
2299.00,2.3142
2298.00,2.3286
2297.00,2.3535
2296.00,2.3874
2295.00,2.4272
2294.00,2.4677
2293.00,2.5024
2292.00,2.5239
2291.00,2.5270
2290.00,2.5112
2289.00,2.4803
2288.00,2.4391
2287.00,2.3915
2286.00,2.3401
2285.00,2.2864
2284.00,2.2307
2283.00,2.1723
2282.00,2.1105
2281.00,2.0459
2280.00,1.9798
2279.00,1.9146
2278.00,1.8525
2277.00,1.7961
2276.00,1.7479
2275.00,1.7099
2274.00,1.6840
2273.00,1.6713
2272.00,1.6726
2271.00,1.6879
2270.00,1.7173
2269.00,1.7606
2268.00,1.8173
2267.00,1.8865
2266.00,1.9664
2265.00,2.0549
2264.00,2.1501
2263.00,2.2506
2262.00,2.3559
2261.00,2.4661
2260.00,2.5826
2259.00,2.7075
2258.00,2.8447
2257.00,2.9994
2256.00,3.1767
2255.00,3.3747
2254.00,3.5655
2253.00,3.6742
2252.00,3.6354
2251.00,3.4943
2250.00,3.3260
2249.00,3.1615
2248.00,3.0061
2247.00,2.8582
2246.00,2.7158
2245.00,2.5777
2244.00,2.4430
2243.00,2.3112
2242.00,2.1834
2241.00,2.0628
2240.00,1.9534
2239.00,1.8597
2238.00,1.7852
2237.00,1.7321
2236.00,1.7014
2235.00,1.6921
2234.00,1.7021
2233.00,1.7281
2232.00,1.7667
2231.00,1.8139
2230.00,1.8664
2229.00,1.9213
2228.00,1.9765
2227.00,2.0305
2226.00,2.0826
2225.00,2.1324
2224.00,2.1795
2223.00,2.2239
2222.00,2.2657
2221.00,2.3051
2220.00,2.3424
2219.00,2.3778
2218.00,2.4109
2217.00,2.4415
2216.00,2.4696
2215.00,2.4954
2214.00,2.5194
2213.00,2.5417
2212.00,2.5625
2211.00,2.5822
2210.00,2.6018
2209.00,2.6218
2208.00,2.6417
2207.00,2.6599
2206.00,2.6747
2205.00,2.6866
2204.00,2.6969
2203.00,2.7062
2202.00,2.7143
2201.00,2.7213
2200.00,2.7285
2199.00,2.7368
2198.00,2.7456
2197.00,2.7542
2196.00,2.7622
2195.00,2.7694
2194.00,2.7750
2193.00,2.7790
2192.00,2.7831
2191.00,2.7888
2190.00,2.7949
2189.00,2.7985
2188.00,2.7993
2187.00,2.7991
2186.00,2.7995
2185.00,2.7997
2184.00,2.7989
2183.00,2.7980
2182.00,2.7983
2181.00,2.8003
2180.00,2.8031
2179.00,2.8049
2178.00,2.8045
2177.00,2.8020
2176.00,2.7988
2175.00,2.7967
2174.00,2.7957
2173.00,2.7937
2172.00,2.7880
2171.00,2.7784
2170.00,2.7672
2169.00,2.7570
2168.00,2.7491
2167.00,2.7428
2166.00,2.7366
2165.00,2.7288
2164.00,2.7186
2163.00,2.7061
2162.00,2.6928
2161.00,2.6803
2160.00,2.6693
2159.00,2.6590
2158.00,2.6478
2157.00,2.6348
2156.00,2.6207
2155.00,2.6061
2154.00,2.5912
2153.00,2.5748
2152.00,2.5564
2151.00,2.5360
2150.00,2.5140
2149.00,2.4910
2148.00,2.4674
2147.00,2.4432
2146.00,2.4185
2145.00,2.3926
2144.00,2.3650
2143.00,2.3353
2142.00,2.3041
2141.00,2.2718
2140.00,2.2384
2139.00,2.2032
2138.00,2.1654
2137.00,2.1247
2136.00,2.0812
2135.00,2.0353
2134.00,1.9871
2133.00,1.9366
2132.00,1.8840
2131.00,1.8297
2130.00,1.7739
2129.00,1.7175
2128.00,1.6612
2127.00,1.6062
2126.00,1.5534
2125.00,1.5037
2124.00,1.4584
2123.00,1.4181
2122.00,1.3840
2121.00,1.3567
2120.00,1.3370
2119.00,1.3255
2118.00,1.3225
2117.00,1.3281
2116.00,1.3422
2115.00,1.3642
2114.00,1.3932
2113.00,1.4285
2112.00,1.4690
2111.00,1.5137
2110.00,1.5616
2109.00,1.6116
2108.00,1.6632
2107.00,1.7157
2106.00,1.7689
2105.00,1.8224
2104.00,1.8755
2103.00,1.9277
2102.00,1.9784
2101.00,2.0272
2100.00,2.0742
2099.00,2.1194
2098.00,2.1632
2097.00,2.2056
2096.00,2.2464
2095.00,2.2849
2094.00,2.3208
2093.00,2.3542
2092.00,2.3858
2091.00,2.4161
2090.00,2.4448
2089.00,2.4720
2088.00,2.4978
2087.00,2.5227
2086.00,2.5470
2085.00,2.5706
2084.00,2.5931
2083.00,2.6138
2082.00,2.6320
2081.00,2.6481
2080.00,2.6637
2079.00,2.6807
2078.00,2.6992
2077.00,2.7171
2076.00,2.7321
2075.00,2.7434
2074.00,2.7521
2073.00,2.7604
2072.00,2.7704
2071.00,2.7832
2070.00,2.7975
2069.00,2.8110
2068.00,2.8220
2067.00,2.8306
2066.00,2.8383
2065.00,2.8465
2064.00,2.8562
2063.00,2.8670
2062.00,2.8764
2061.00,2.8814
2060.00,2.8820
2059.00,2.8810
2058.00,2.8812
2057.00,2.8834
2056.00,2.8876
2055.00,2.8942
2054.00,2.9024
2053.00,2.9089
2052.00,2.9109
2051.00,2.9089
2050.00,2.9066
2049.00,2.9069
2048.00,2.9104
2047.00,2.9153
2046.00,2.9187
2045.00,2.9186
2044.00,2.9154
2043.00,2.9115
2042.00,2.9083
2041.00,2.9051
2040.00,2.9014
2039.00,2.8983
2038.00,2.8963
2037.00,2.8942
2036.00,2.8897
2035.00,2.8829
2034.00,2.8754
2033.00,2.8679
2032.00,2.8597
2031.00,2.8506
2030.00,2.8416
2029.00,2.8333
2028.00,2.8249
2027.00,2.8149
2026.00,2.8034
2025.00,2.7921
2024.00,2.7825
2023.00,2.7741
2022.00,2.7644
2021.00,2.7518
2020.00,2.7371
2019.00,2.7221
2018.00,2.7072
2017.00,2.6917
2016.00,2.6749
2015.00,2.6574
2014.00,2.6400
2013.00,2.6225
2012.00,2.6043
2011.00,2.5843
2010.00,2.5619
2009.00,2.5367
2008.00,2.5094
2007.00,2.4813
2006.00,2.4527
2005.00,2.4232
2004.00,2.3922
2003.00,2.3595
2002.00,2.3250
2001.00,2.2883
2000.00,2.2486
1999.00,2.2061
1998.00,2.1612
1997.00,2.1143
1996.00,2.0654
1995.00,2.0146
1994.00,1.9613
1993.00,1.9049
1992.00,1.8453
1991.00,1.7842
1990.00,1.7248
1989.00,1.6694
1988.00,1.6186
1987.00,1.5717
1986.00,1.5289
1985.00,1.4914
1984.00,1.4606
1983.00,1.4371
1982.00,1.4213
1981.00,1.4138
1980.00,1.4150
1979.00,1.4249
1978.00,1.4431
1977.00,1.4689
1976.00,1.5015
1975.00,1.5398
1974.00,1.5828
1973.00,1.6296
1972.00,1.6793
1971.00,1.7310
1970.00,1.7842
1969.00,1.8380
1968.00,1.8914
1967.00,1.9440
1966.00,1.9956
1965.00,2.0471
1964.00,2.0985
1963.00,2.1491
1962.00,2.1977
1961.00,2.2431
1960.00,2.2855
1959.00,2.3261
1958.00,2.3656
1957.00,2.4037
1956.00,2.4398
1955.00,2.4738
1954.00,2.5058
1953.00,2.5361
1952.00,2.5643
1951.00,2.5901
1950.00,2.6134
1949.00,2.6349
1948.00,2.6556
1947.00,2.6763
1946.00,2.6970
1945.00,2.7171
1944.00,2.7357
1943.00,2.7530
1942.00,2.7693
1941.00,2.7858
1940.00,2.8041
1939.00,2.8246
1938.00,2.8452
1937.00,2.8626
1936.00,2.8754
1935.00,2.8846
1934.00,2.8917
1933.00,2.8974
1932.00,2.9027
1931.00,2.9093
1930.00,2.9184
1929.00,2.9297
1928.00,2.9427
1927.00,2.9566
1926.00,2.9693
1925.00,2.9776
1924.00,2.9805
1923.00,2.9801
1922.00,2.9797
1921.00,2.9818
1920.00,2.9880
1919.00,2.9983
1918.00,3.0098
1917.00,3.0171
1916.00,3.0181
1915.00,3.0161
1914.00,3.0157
1913.00,3.0176
1912.00,3.0203
1911.00,3.0233
1910.00,3.0269
1909.00,3.0304
1908.00,3.0324
1907.00,3.0316
1906.00,3.0289
1905.00,3.0267
1904.00,3.0266
1903.00,3.0274
1902.00,3.0250
1901.00,3.0170
1900.00,3.0061
1899.00,2.9972
1898.00,2.9912
1897.00,2.9854
1896.00,2.9775
1895.00,2.9694
1894.00,2.9633
1893.00,2.9598
1892.00,2.9574
1891.00,2.9539
1890.00,2.9462
1889.00,2.9335
1888.00,2.9192
1887.00,2.9083
1886.00,2.9008
1885.00,2.8920
1884.00,2.8789
1883.00,2.8626
1882.00,2.8452
1881.00,2.8273
1880.00,2.8096
1879.00,2.7934
1878.00,2.7776
1877.00,2.7593
1876.00,2.7376
1875.00,2.7149
1874.00,2.6930
1873.00,2.6717
1872.00,2.6497
1871.00,2.6257
1870.00,2.5978
1869.00,2.5650
1868.00,2.5298
1867.00,2.4968
1866.00,2.4666
1865.00,2.4358
1864.00,2.4019
1863.00,2.3647
1862.00,2.3244
1861.00,2.2804
1860.00,2.2326
1859.00,2.1823
1858.00,2.1300
1857.00,2.0754
1856.00,2.0186
1855.00,1.9603
1854.00,1.9015
1853.00,1.8430
1852.00,1.7858
1851.00,1.7315
1850.00,1.6816
1849.00,1.6365
1848.00,1.5974
1847.00,1.5664
1846.00,1.5454
1845.00,1.5341
1844.00,1.5303
1843.00,1.5335
1842.00,1.5469
1841.00,1.5739
1840.00,1.6133
1839.00,1.6598
1838.00,1.7091
1837.00,1.7598
1836.00,1.8121
1835.00,1.8658
1834.00,1.9201
1833.00,1.9746
1832.00,2.0290
1831.00,2.0828
1830.00,2.1350
1829.00,2.1860
1828.00,2.2364
1827.00,2.2852
1826.00,2.3302
1825.00,2.3693
1824.00,2.4034
1823.00,2.4368
1822.00,2.4741
1821.00,2.5159
1820.00,2.5582
1819.00,2.5964
1818.00,2.6286
1817.00,2.6571
1816.00,2.6846
1815.00,2.7120
1814.00,2.7389
1813.00,2.7653
1812.00,2.7902
1811.00,2.8124
1810.00,2.8320
1809.00,2.8515
1808.00,2.8720
1807.00,2.8906
1806.00,2.9048
1805.00,2.9164
1804.00,2.9289
1803.00,2.9428
1802.00,2.9572
1801.00,2.9723
1800.00,2.9887
1799.00,3.0051
1798.00,3.0196
1797.00,3.0329
1796.00,3.0465
1795.00,3.0606
1794.00,3.0741
1793.00,3.0850
1792.00,3.0895
1791.00,3.0865
1790.00,3.0813
1789.00,3.0831
1788.00,3.0958
1787.00,3.1135
1786.00,3.1273
1785.00,3.1335
1784.00,3.1354
1783.00,3.1377
1782.00,3.1426
1781.00,3.1480
1780.00,3.1506
1779.00,3.1491
1778.00,3.1452
1777.00,3.1430
1776.00,3.1432
1775.00,3.1464
1774.00,3.1487
1773.00,3.1460
1772.00,3.1437
1771.00,3.1405
1770.00,3.1383
1769.00,3.1356
1768.00,3.1337
1767.00,3.1290
1766.00,3.1278
1765.00,3.1180
1764.00,3.1081
1763.00,3.1135
1762.00,3.1043
1761.00,3.0890
1760.00,3.0707
1759.00,3.0572
1758.00,3.0462
1757.00,3.0329
1756.00,3.0149
1755.00,2.9971
1754.00,2.9857
1753.00,2.9797
1752.00,2.9700
1751.00,2.9493
1750.00,2.9202
1749.00,2.8931
1748.00,2.8748
1747.00,2.8633
1746.00,2.8534
1745.00,2.8406
1744.00,2.8218
1743.00,2.7972
1742.00,2.7712
1741.00,2.7481
1740.00,2.7281
1739.00,2.7078
1738.00,2.6860
1737.00,2.6649
1736.00,2.6440
1735.00,2.6175
1734.00,2.5799
1733.00,2.5367
1732.00,2.5019
1731.00,2.4813
1730.00,2.4695
1729.00,2.4634
1728.00,2.4670
1727.00,2.4847
1726.00,2.5176
1725.00,2.5628
1724.00,2.6169
1723.00,2.6788
1722.00,2.7488
1721.00,2.8273
1720.00,2.9142
1719.00,3.0116
1718.00,3.1235
1717.00,3.2471
1716.00,3.3665
1715.00,3.4665
1714.00,3.5541
1713.00,3.6454
1712.00,3.7412
1711.00,3.8188
1710.00,3.8533
1709.00,3.8491
1708.00,3.8345
1707.00,3.8295
1706.00,3.8224
1705.00,3.7785
1704.00,3.6935
1703.00,3.5990
1702.00,3.5045
1701.00,3.3901
1700.00,3.2529
1699.00,3.1271
1698.00,3.0385
1697.00,2.9711
1696.00,2.8929
1695.00,2.7955
1694.00,2.6903
1693.00,2.5910
1692.00,2.5007
1691.00,2.4138
1690.00,2.3288
1689.00,2.2492
1688.00,2.1815
1687.00,2.1341
1686.00,2.1114
1685.00,2.1084
1684.00,2.1127
1683.00,2.1163
1682.00,2.1203
1681.00,2.1356
1680.00,2.1687
1679.00,2.2129
1678.00,2.2609
1677.00,2.3097
1676.00,2.3580
1675.00,2.4035
1674.00,2.4458
1673.00,2.4893
1672.00,2.5372
1671.00,2.5867
1670.00,2.6339
1669.00,2.6770
1668.00,2.7147
1667.00,2.7471
1666.00,2.7791
1665.00,2.8151
1664.00,2.8546
1663.00,2.8915
1662.00,2.9198
1661.00,2.9411
1660.00,2.9619
1659.00,2.9862
1658.00,3.0134
1657.00,3.0428
1656.00,3.0741
1655.00,3.1069
1654.00,3.1380
1653.00,3.1628
1652.00,3.1796
1651.00,3.1869
1650.00,3.1910
1649.00,3.1953
1648.00,3.1990
1647.00,3.2039
1646.00,3.2046
1645.00,3.2016
1644.00,3.2061
1643.00,3.2239
1642.00,3.2462
1641.00,3.2646
1640.00,3.2772
1639.00,3.2826
1638.00,3.2810
1637.00,3.2780
1636.00,3.2796
1635.00,3.2835
1634.00,3.2814
1633.00,3.2755
1632.00,3.2757
1631.00,3.2808
1630.00,3.2846
1629.00,3.2853
1628.00,3.2856
1627.00,3.2872
1626.00,3.2888
1625.00,3.2897
1624.00,3.2904
1623.00,3.2902
1622.00,3.2877
1621.00,3.2842
1620.00,3.2832
1619.00,3.2875
1618.00,3.2966
1617.00,3.3062
1616.00,3.3078
1615.00,3.2945
1614.00,3.2711
1613.00,3.2500
1612.00,3.2377
1611.00,3.2303
1610.00,3.2219
1609.00,3.2124
1608.00,3.2052
1607.00,3.2009
1606.00,3.1982
1605.00,3.1984
1604.00,3.2011
1603.00,3.1993
1602.00,3.1838
1601.00,3.1539
1600.00,3.1191
1599.00,3.0905
1598.00,3.0732
1597.00,3.0649
1596.00,3.0578
1595.00,3.0442
1594.00,3.0221
1593.00,2.9963
1592.00,2.9710
1591.00,2.9466
1590.00,2.9223
1589.00,2.8987
1588.00,2.8765
1587.00,2.8537
1586.00,2.8277
1585.00,2.7981
1584.00,2.7666
1583.00,2.7339
1582.00,2.6995
1581.00,2.6636
1580.00,2.6282
1579.00,2.5956
1578.00,2.5664
1577.00,2.5382
1576.00,2.5062
1575.00,2.4655
1574.00,2.4147
1573.00,2.3598
1572.00,2.3084
1571.00,2.2633
1570.00,2.2230
1569.00,2.1859
1568.00,2.1537
1567.00,2.1297
1566.00,2.1163
1565.00,2.1114
1564.00,2.1124
1563.00,2.1198
1562.00,2.1364
1561.00,2.1629
1560.00,2.1961
1559.00,2.2294
1558.00,2.2664
1557.00,2.3008
1556.00,2.3296
1555.00,2.3664
1554.00,2.4075
1553.00,2.4486
1552.00,2.4883
1551.00,2.5253
1550.00,2.5600
1549.00,2.5959
1548.00,2.6371
1547.00,2.6826
1546.00,2.7250
1545.00,2.7582
1544.00,2.7851
1543.00,2.8158
1542.00,2.8569
1541.00,2.9074
1540.00,2.9637
1539.00,3.0167
1538.00,3.0500
1537.00,3.0631
1536.00,3.0682
1535.00,3.0706
1534.00,3.0753
1533.00,3.0852
1532.00,3.1002
1531.00,3.1211
1530.00,3.1478
1529.00,3.1752
1528.00,3.1968
1527.00,3.2133
1526.00,3.2299
1525.00,3.2488
1524.00,3.2678
1523.00,3.2863
1522.00,3.3065
1521.00,3.3269
1520.00,3.3394
1519.00,3.3421
1518.00,3.3450
1517.00,3.3553
1516.00,3.3696
1515.00,3.3786
1514.00,3.3812
1513.00,3.3862
1512.00,3.3977
1511.00,3.4108
1510.00,3.4190
1509.00,3.4225
1508.00,3.4247
1507.00,3.4246
1506.00,3.4197
1505.00,3.4075
1504.00,3.4003
1503.00,3.4090
1502.00,3.4239
1501.00,3.4385
1500.00,3.4511
1499.00,3.4581
1498.00,3.4595
1497.00,3.4590
1496.00,3.4609
1495.00,3.4659
1494.00,3.4727
1493.00,3.4781
1492.00,3.4771
1491.00,3.4694
1490.00,3.4597
1489.00,3.4532
1488.00,3.4530
1487.00,3.4556
1486.00,3.4534
1485.00,3.4441
1484.00,3.4326
1483.00,3.4226
1482.00,3.4129
1481.00,3.4040
1480.00,3.3991
1479.00,3.3987
1478.00,3.3960
1477.00,3.3833
1476.00,3.3627
1475.00,3.3471
1474.00,3.3464
1473.00,3.3549
1472.00,3.3577
1471.00,3.3528
1470.00,3.3536
1469.00,3.3671
1468.00,3.3811
1467.00,3.3805
1466.00,3.3665
1465.00,3.3538
1464.00,3.3521
1463.00,3.3590
1462.00,3.3687
1461.00,3.3803
1460.00,3.3940
1459.00,3.4095
1458.00,3.4280
1457.00,3.4549
1456.00,3.4937
1455.00,3.5417
1454.00,3.5934
1453.00,3.6429
1452.00,3.6903
1451.00,3.7340
1450.00,3.7547
1449.00,3.7347
1448.00,3.6869
1447.00,3.6422
1446.00,3.6206
1445.00,3.6212
1444.00,3.6297
1443.00,3.6340
1442.00,3.6355
1441.00,3.6436
1440.00,3.6608
1439.00,3.6767
1438.00,3.6766
1437.00,3.6572
1436.00,3.6309
1435.00,3.6150
1434.00,3.6133
1433.00,3.6119
1432.00,3.5988
1431.00,3.5768
1430.00,3.5554
1429.00,3.5384
1428.00,3.5224
1427.00,3.5075
1426.00,3.5034
1425.00,3.5151
1424.00,3.5328
1423.00,3.5398
1422.00,3.5312
1421.00,3.5175
1420.00,3.5069
1419.00,3.4943
1418.00,3.4736
1417.00,3.4477
1416.00,3.4241
1415.00,3.4070
1414.00,3.3951
1413.00,3.3850
1412.00,3.3741
1411.00,3.3614
1410.00,3.3478
1409.00,3.3358
1408.00,3.3275
1407.00,3.3213
1406.00,3.3122
1405.00,3.2944
1404.00,3.2677
1403.00,3.2405
1402.00,3.2235
1401.00,3.2184
1400.00,3.2172
1399.00,3.2110
1398.00,3.1996
1397.00,3.1888
1396.00,3.1811
1395.00,3.1740
1394.00,3.1692
1393.00,3.1738
1392.00,3.1927
1391.00,3.2210
1390.00,3.2497
1389.00,3.2756
1388.00,3.3003
1387.00,3.3236
1386.00,3.3454
1385.00,3.3731
1384.00,3.4180
1383.00,3.4852
1382.00,3.5681
1381.00,3.6511
1380.00,3.7190
1379.00,3.7686
1378.00,3.8011
1377.00,3.8168
1376.00,3.8209
1375.00,3.8035
1374.00,3.7496
1373.00,3.6640
1372.00,3.5609
1371.00,3.4581
1370.00,3.3689
1369.00,3.2990
1368.00,3.2514
1367.00,3.2276
1366.00,3.2253
1365.00,3.2364
1364.00,3.2503
1363.00,3.2623
1362.00,3.2771
1361.00,3.3020
1360.00,3.3356
1359.00,3.3659
1358.00,3.3852
1357.00,3.3998
1356.00,3.4195
1355.00,3.4446
1354.00,3.4665
1353.00,3.4802
1352.00,3.4917
1351.00,3.5106
1350.00,3.5383
1349.00,3.5646
1348.00,3.5777
1347.00,3.5763
1346.00,3.5667
1345.00,3.5574
1344.00,3.5556
1343.00,3.5639
1342.00,3.5791
1341.00,3.5907
1340.00,3.5836
1339.00,3.5540
1338.00,3.5225
1337.00,3.5129
1336.00,3.5272
1335.00,3.5506
1334.00,3.5753
1333.00,3.6077
1332.00,3.6507
1331.00,3.6869
1330.00,3.6940
1329.00,3.6762
1328.00,3.6558
1327.00,3.6433
1326.00,3.6345
1325.00,3.6283
1324.00,3.6355
1323.00,3.6613
1322.00,3.6921
1321.00,3.7075
1320.00,3.6999
1319.00,3.6758
1318.00,3.6489
1317.00,3.6339
1316.00,3.6379
1315.00,3.6585
1314.00,3.6879
1313.00,3.7201
1312.00,3.7492
1311.00,3.7593
1310.00,3.7288
1309.00,3.6647
1308.00,3.6031
1307.00,3.5672
1306.00,3.5541
1305.00,3.5490
1304.00,3.5411
1303.00,3.5297
1302.00,3.5203
1301.00,3.5154
1300.00,3.5102
1299.00,3.4994
1298.00,3.4824
1297.00,3.4601
1296.00,3.4345
1295.00,3.4088
1294.00,3.3846
1293.00,3.3595
1292.00,3.3289
1291.00,3.2920
1290.00,3.2553
1289.00,3.2257
1288.00,3.2035
1287.00,3.1815
1286.00,3.1521
1285.00,3.1139
1284.00,3.0712
1283.00,3.0278
1282.00,2.9861
1281.00,2.9473
1280.00,2.9119
1279.00,2.8791
1278.00,2.8471
1277.00,2.8137
1276.00,2.7777
1275.00,2.7392
1274.00,2.6983
1273.00,2.6543
1272.00,2.6068
1271.00,2.5573
1270.00,2.5092
1269.00,2.4653
1268.00,2.4269
1267.00,2.3946
1266.00,2.3687
1265.00,2.3498
1264.00,2.3383
1263.00,2.3352
1262.00,2.3419
1261.00,2.3603
1260.00,2.3906
1259.00,2.4315
1258.00,2.4807
1257.00,2.5366
1256.00,2.5975
1255.00,2.6597
1254.00,2.7187
1253.00,2.7732
1252.00,2.8270
1251.00,2.8844
1250.00,2.9448
1249.00,3.0042
1248.00,3.0595
1247.00,3.1113
1246.00,3.1599
1245.00,3.2041
1244.00,3.2426
1243.00,3.2754
1242.00,3.3050
1241.00,3.3364
1240.00,3.3758
1239.00,3.4244
1238.00,3.4755
1237.00,3.5215
1236.00,3.5618
1235.00,3.6002
1234.00,3.6353
1233.00,3.6590
1232.00,3.6710
1231.00,3.6787
1230.00,3.6825
1229.00,3.6789
1228.00,3.6740
1227.00,3.6820
1226.00,3.7096
1225.00,3.7441
1224.00,3.7595
1223.00,3.7425
1222.00,3.7140
1221.00,3.7049
1220.00,3.7255
1219.00,3.7662
1218.00,3.8068
1217.00,3.8227
1216.00,3.8024
1215.00,3.7685
1214.00,3.7607
1213.00,3.8018
1212.00,3.8773
1211.00,3.9296
1210.00,3.9170
1209.00,3.8825
1208.00,3.8864
1207.00,3.9342
1206.00,3.9600
1205.00,3.9301
1204.00,3.8991
1203.00,3.8738
1202.00,3.8438
1201.00,3.8185
1200.00,3.7992
1199.00,3.7799
1198.00,3.7718
1197.00,3.7967
1196.00,3.8542
1195.00,3.9167
1194.00,3.9462
1193.00,3.9388
1192.00,3.9419
1191.00,3.9898
1190.00,4.0643
1189.00,4.0904
1188.00,4.0266
1187.00,3.9492
1186.00,3.9006
1185.00,3.8681
1184.00,3.8384
1183.00,3.8001
1182.00,3.7510
1181.00,3.7125
1180.00,3.7013
1179.00,3.7157
1178.00,3.7530
1177.00,3.8248
1176.00,3.9459
1175.00,4.0974
1174.00,4.1818
1173.00,4.1026
1172.00,3.9414
1171.00,3.7996
1170.00,3.7090
1169.00,3.6789
1168.00,3.7053
1167.00,3.7603
1166.00,3.7977
1165.00,3.7977
1164.00,3.7814
1163.00,3.7580
1162.00,3.7124
1161.00,3.6517
1160.00,3.6095
1159.00,3.6034
1158.00,3.6130
1157.00,3.5990
1156.00,3.5500
1155.00,3.4895
1154.00,3.4395
1153.00,3.4065
1152.00,3.3885
1151.00,3.3753
1150.00,3.3520
1149.00,3.3171
1148.00,3.2774
1147.00,3.2341
1146.00,3.1916
1145.00,3.1566
1144.00,3.1288
1143.00,3.0981
1142.00,3.0526
1141.00,2.9914
1140.00,2.9260
1139.00,2.8662
1138.00,2.8147
1137.00,2.7720
1136.00,2.7398
1135.00,2.7192
1134.00,2.7090
1133.00,2.7073
1132.00,2.7161
1131.00,2.7396
1130.00,2.7801
1129.00,2.8350
1128.00,2.8988
1127.00,2.9687
1126.00,3.0428
1125.00,3.1169
1124.00,3.1831
1123.00,3.2329
1122.00,3.2632
1121.00,3.2779
1120.00,3.2839
1119.00,3.2851
1118.00,3.2838
1117.00,3.2843
1116.00,3.2945
1115.00,3.3225
1114.00,3.3703
1113.00,3.4321
1112.00,3.5002
1111.00,3.5719
1110.00,3.6448
1109.00,3.7077
1108.00,3.7449
1107.00,3.7539
1106.00,3.7598
1105.00,3.8004
1104.00,3.9003
1103.00,4.0552
1102.00,4.2134
1101.00,4.2880
1100.00,4.2850
1099.00,4.3115
1098.00,4.4072
1097.00,4.4349
1096.00,4.2690
1095.00,4.0719
1094.00,3.9414
1093.00,3.8680
1092.00,3.8235
1091.00,3.8060
1090.00,3.8401
1089.00,3.9523
1088.00,4.1609
1087.00,4.4422
1086.00,4.5029
1085.00,4.3932
1084.00,4.3080
1083.00,4.2075
1082.00,4.0936
1081.00,4.0797
1080.00,4.2703
1079.00,4.4620
1078.00,4.3274
1077.00,4.4118
1076.00,4.3138
1075.00,4.1465
1074.00,4.1006
1073.00,4.1351
1072.00,4.2213
1071.00,4.3790
1070.00,4.4216
1069.00,4.0932
1068.00,3.8961
1067.00,3.8455
1066.00,3.9569
1065.00,4.3405
1064.00,4.4831
1063.00,4.0805
1062.00,4.0086
1061.00,4.0383
1060.00,4.1078
1059.00,4.2299
1058.00,4.4377
1057.00,4.4211
1056.00,4.2041
1055.00,4.1054
1054.00,4.1016
1053.00,4.1954
1052.00,4.4468
1051.00,4.7229
1050.00,4.5444
1049.00,4.4434
1048.00,4.3409
1047.00,4.3532
1046.00,4.4686
1045.00,4.6575
1044.00,4.9164
1043.00,4.3420
1042.00,4.1429
1041.00,4.0432
1040.00,3.9625
1039.00,3.9156
1038.00,3.9287
1037.00,4.0090
1036.00,4.1446
1035.00,4.3273
1034.00,4.5579
1033.00,4.7468
1032.00,4.7699
1031.00,4.7522
1030.00,4.6324
1029.00,4.4661
1028.00,4.4656
1027.00,4.4279
1026.00,4.2198
1025.00,4.1201
1024.00,4.1238
1023.00,4.1676
1022.00,4.1772
1021.00,4.1182
1020.00,4.0427
1019.00,4.0303
1018.00,4.1222
1017.00,4.2904
1016.00,4.3563
1015.00,4.3511
1014.00,4.3343
1013.00,4.2120
1012.00,4.1026
1011.00,4.0782
1010.00,4.1511
1009.00,4.3122
1008.00,4.3972
1007.00,4.2945
1006.00,4.1800
1005.00,4.0908
1004.00,4.0239
1003.00,3.9579
1002.00,3.8868
1001.00,3.8404
1000.00,3.8441
999.00,3.9048
998.00,4.0188
997.00,4.1465
996.00,4.1628
995.00,4.0201
994.00,3.8764
993.00,3.7888
992.00,3.7251
991.00,3.6647
990.00,3.6094
989.00,3.5534
988.00,3.4921
987.00,3.4344
986.00,3.3976
985.00,3.3931
984.00,3.4144
983.00,3.4439
982.00,3.4696
981.00,3.4872
980.00,3.4938
979.00,3.4898
978.00,3.4962
977.00,3.5465
976.00,3.6591
975.00,3.8249
974.00,4.0077
973.00,4.1589
972.00,4.2643
971.00,4.4639
970.00,4.6891
969.00,4.2952
968.00,4.1492
967.00,4.1738
966.00,4.2988
965.00,4.5015
964.00,4.8015
963.00,4.9494
962.00,4.8036
961.00,4.7576
960.00,4.7244
959.00,4.8101
958.00,4.8468
957.00,4.6121
956.00,4.3140
955.00,4.1823
954.00,4.2853
953.00,4.7446
952.00,4.5704
951.00,4.3249
950.00,4.2402
949.00,4.1490
948.00,4.0348
947.00,3.9372
946.00,3.8997
945.00,3.9519
944.00,4.1340
943.00,4.4806
942.00,4.5068
941.00,4.4065
940.00,4.4113
939.00,4.3343
938.00,4.2390
937.00,4.1485
936.00,4.0501
935.00,3.9610
934.00,3.9136
933.00,3.9467
932.00,4.0753
931.00,4.1328
930.00,4.0473
929.00,4.1119
928.00,4.4774
927.00,4.5561
926.00,4.2660
925.00,4.2563
924.00,4.4486
923.00,5.2682
922.00,4.4477
921.00,4.2269
920.00,4.1835
919.00,4.2380
918.00,4.2761
917.00,4.1901
916.00,4.1702
915.00,4.3758
914.00,4.9958
913.00,4.5057
912.00,4.5043
911.00,5.1093
910.00,4.6759
909.00,4.6568
908.00,5.2609
907.00,4.6084
906.00,4.3572
905.00,4.2897
904.00,4.3686
903.00,4.7052
902.00,5.0877
901.00,4.4545
900.00,4.2349
899.00,4.1130
898.00,4.0607
897.00,4.1883
896.00,4.4816
895.00,4.0792
894.00,3.8829
893.00,3.8718
892.00,3.9825
891.00,4.1686
890.00,4.3253
889.00,4.4925
888.00,4.5063
887.00,4.2805
886.00,4.1922
885.00,4.2135
884.00,4.2979
883.00,4.3605
882.00,4.2370
881.00,4.1218
880.00,4.0843
879.00,4.1008
878.00,4.1039
877.00,4.0640
876.00,4.0022
875.00,3.9563
874.00,4.0121
873.00,4.1463
872.00,4.1586
871.00,4.0489
870.00,3.9605
869.00,3.9537
868.00,4.0331
867.00,4.1499
866.00,4.1635
865.00,4.0694
864.00,4.0105
863.00,4.0265
862.00,4.1064
861.00,4.2721
860.00,4.4409
859.00,4.2594
858.00,4.1288
857.00,4.1535
856.00,4.3080
855.00,4.6005
854.00,5.0170
853.00,4.9825
852.00,4.7178
851.00,4.7906
850.00,4.7862
849.00,4.3360
848.00,4.0516
847.00,3.8904
846.00,3.8204
845.00,3.8433
844.00,4.0184
843.00,4.4631
842.00,5.0270
841.00,4.9588
840.00,4.1934
839.00,3.9012
838.00,3.8232
837.00,3.8846
836.00,4.0325
835.00,4.1426
834.00,4.2530
833.00,4.4770
832.00,4.4751
831.00,4.2769
830.00,4.1995
829.00,4.1958
828.00,4.3182
827.00,4.6108
826.00,4.3843
825.00,4.0469
824.00,3.8957
823.00,3.9287
822.00,4.1770
821.00,4.3766
820.00,4.1556
819.00,4.0193
818.00,3.9664
817.00,3.9788
816.00,4.0323
815.00,4.0706
814.00,4.0955
813.00,4.1203
812.00,4.1059
811.00,4.0488
810.00,4.0310
809.00,4.1323
808.00,4.3602
807.00,4.5916
806.00,4.5699
805.00,4.2883
804.00,4.1148
803.00,4.0010
802.00,3.9353
801.00,3.9609
800.00,4.0548
799.00,4.1585
798.00,4.2049
797.00,4.1275
796.00,3.9654
795.00,3.8358
794.00,3.7960
793.00,3.8358
792.00,3.9225
791.00,4.0460
790.00,4.2590
789.00,4.6502
788.00,5.0158
787.00,4.7367
786.00,4.3626
785.00,4.1262
784.00,3.9864
783.00,3.8998
782.00,3.8301
781.00,3.7671
780.00,3.7324
779.00,3.7409
778.00,3.7915
777.00,3.8782
776.00,3.9921
775.00,4.1342
774.00,4.2368
773.00,4.2058
772.00,4.1150
771.00,4.1921
770.00,4.4812
769.00,4.1499
768.00,3.8689
767.00,3.7787
766.00,3.7779
765.00,3.8375
764.00,3.9503
763.00,4.1752
762.00,4.6006
761.00,4.4904
760.00,4.1127
759.00,3.9153
758.00,3.8319
757.00,3.8570
756.00,4.0202
755.00,4.3794
754.00,4.6849
753.00,4.6940
752.00,4.8037
751.00,4.5994
750.00,4.2941
749.00,4.0895
748.00,4.0064
747.00,4.0658
746.00,4.1952
745.00,4.2510
744.00,4.2252
743.00,4.4004
742.00,4.8526
741.00,4.4611
740.00,4.2493
739.00,4.4459
738.00,4.8142
737.00,4.1135
736.00,3.8993
735.00,3.8950
734.00,4.0317
733.00,4.3604
732.00,4.4925
731.00,4.3482
730.00,4.3533
729.00,4.5588
728.00,4.5828
727.00,4.3341
726.00,4.1697
725.00,4.0800
724.00,4.0466
723.00,4.0343
722.00,4.0088
721.00,3.9935
720.00,4.0298
719.00,4.1580
718.00,4.2757
717.00,4.2576
716.00,4.2199
715.00,4.3355
714.00,4.6899
713.00,4.3918
712.00,4.0937
711.00,4.0030
710.00,4.0340
709.00,4.1483
708.00,4.1019
707.00,3.9437
706.00,3.8268
705.00,3.7527
704.00,3.7489
703.00,3.8814
702.00,4.3045
701.00,4.5557
700.00,4.1648
