Created as New Dataset,Sample 035 By Administrator Date Wednesday, November 24 2021
cm-1,A
7502.00,0.5146
7501.00,0.5123
7500.00,0.5100
7499.00,0.5077
7498.00,0.5055
7497.00,0.5032
7496.00,0.5010
7495.00,0.4988
7494.00,0.4966
7493.00,0.4943
7492.00,0.4920
7491.00,0.4898
7490.00,0.4879
7489.00,0.4863
7488.00,0.4854
7487.00,0.4854
7486.00,0.4867
7485.00,0.4891
7484.00,0.4920
7483.00,0.4951
7482.00,0.4985
7481.00,0.5022
7480.00,0.5064
7479.00,0.5109
7478.00,0.5154
7477.00,0.5199
7476.00,0.5244
7475.00,0.5292
7474.00,0.5347
7473.00,0.5411
7472.00,0.5481
7471.00,0.5553
7470.00,0.5627
7469.00,0.5703
7468.00,0.5783
7467.00,0.5864
7466.00,0.5945
7465.00,0.6024
7464.00,0.6103
7463.00,0.6181
7462.00,0.6261
7461.00,0.6347
7460.00,0.6436
7459.00,0.6526
7458.00,0.6614
7457.00,0.6702
7456.00,0.6796
7455.00,0.6895
7454.00,0.6997
7453.00,0.7094
7452.00,0.7187
7451.00,0.7276
7450.00,0.7363
7449.00,0.7447
7448.00,0.7526
7447.00,0.7602
7446.00,0.7682
7445.00,0.7768
7444.00,0.7859
7443.00,0.7945
7442.00,0.8023
7441.00,0.8095
7440.00,0.8166
7439.00,0.8239
7438.00,0.8309
7437.00,0.8372
7436.00,0.8426
7435.00,0.8476
7434.00,0.8530
7433.00,0.8585
7432.00,0.8637
7431.00,0.8682
7430.00,0.8722
7429.00,0.8762
7428.00,0.8807
7427.00,0.8857
7426.00,0.8911
7425.00,0.8964
7424.00,0.9008
7423.00,0.9044
7422.00,0.9074
7421.00,0.9100
7420.00,0.9120
7419.00,0.9128
7418.00,0.9125
7417.00,0.9116
7416.00,0.9106
7415.00,0.9095
7414.00,0.9083
7413.00,0.9068
7412.00,0.9052
7411.00,0.9034
7410.00,0.9014
7409.00,0.8993
7408.00,0.8969
7407.00,0.8943
7406.00,0.8912
7405.00,0.8876
7404.00,0.8836
7403.00,0.8797
7402.00,0.8758
7401.00,0.8716
7400.00,0.8668
7399.00,0.8614
7398.00,0.8558
7397.00,0.8502
7396.00,0.8443
7395.00,0.8378
7394.00,0.8310
7393.00,0.8243
7392.00,0.8178
7391.00,0.8112
7390.00,0.8048
7389.00,0.7985
7388.00,0.7922
7387.00,0.7859
7386.00,0.7797
7385.00,0.7736
7384.00,0.7675
7383.00,0.7612
7382.00,0.7547
7381.00,0.7488
7380.00,0.7437
7379.00,0.7392
7378.00,0.7349
7377.00,0.7302
7376.00,0.7250
7375.00,0.7189
7374.00,0.7121
7373.00,0.7044
7372.00,0.6963
7371.00,0.6884
7370.00,0.6809
7369.00,0.6739
7368.00,0.6674
7367.00,0.6613
7366.00,0.6557
7365.00,0.6506
7364.00,0.6457
7363.00,0.6407
7362.00,0.6358
7361.00,0.6314
7360.00,0.6274
7359.00,0.6236
7358.00,0.6198
7357.00,0.6161
7356.00,0.6127
7355.00,0.6096
7354.00,0.6073
7353.00,0.6056
7352.00,0.6043
7351.00,0.6033
7350.00,0.6022
7349.00,0.6012
7348.00,0.6003
7347.00,0.5994
7346.00,0.5987
7345.00,0.5984
7344.00,0.5989
7343.00,0.6006
7342.00,0.6032
7341.00,0.6065
7340.00,0.6102
7339.00,0.6139
7338.00,0.6179
7337.00,0.6222
7336.00,0.6265
7335.00,0.6307
7334.00,0.6350
7333.00,0.6398
7332.00,0.6456
7331.00,0.6522
7330.00,0.6593
7329.00,0.6668
7328.00,0.6744
7327.00,0.6823
7326.00,0.6906
7325.00,0.6990
7324.00,0.7070
7323.00,0.7145
7322.00,0.7219
7321.00,0.7296
7320.00,0.7378
7319.00,0.7465
7318.00,0.7557
7317.00,0.7651
7316.00,0.7747
7315.00,0.7842
7314.00,0.7936
7313.00,0.8029
7312.00,0.8119
7311.00,0.8206
7310.00,0.8293
7309.00,0.8381
7308.00,0.8471
7307.00,0.8560
7306.00,0.8647
7305.00,0.8735
7304.00,0.8827
7303.00,0.8919
7302.00,0.9009
7301.00,0.9095
7300.00,0.9176
7299.00,0.9254
7298.00,0.9332
7297.00,0.9410
7296.00,0.9489
7295.00,0.9563
7294.00,0.9628
7293.00,0.9687
7292.00,0.9745
7291.00,0.9801
7290.00,0.9850
7289.00,0.9891
7288.00,0.9929
7287.00,0.9973
7286.00,1.0026
7285.00,1.0082
7284.00,1.0132
7283.00,1.0175
7282.00,1.0214
7281.00,1.0254
7280.00,1.0294
7279.00,1.0329
7278.00,1.0358
7277.00,1.0383
7276.00,1.0408
7275.00,1.0431
7274.00,1.0451
7273.00,1.0462
7272.00,1.0464
7271.00,1.0460
7270.00,1.0457
7269.00,1.0456
7268.00,1.0455
7267.00,1.0449
7266.00,1.0437
7265.00,1.0425
7264.00,1.0418
7263.00,1.0410
7262.00,1.0395
7261.00,1.0367
7260.00,1.0332
7259.00,1.0294
7258.00,1.0253
7257.00,1.0207
7256.00,1.0155
7255.00,1.0099
7254.00,1.0045
7253.00,0.9991
7252.00,0.9936
7251.00,0.9879
7250.00,0.9819
7249.00,0.9756
7248.00,0.9690
7247.00,0.9624
7246.00,0.9559
7245.00,0.9493
7244.00,0.9425
7243.00,0.9354
7242.00,0.9280
7241.00,0.9204
7240.00,0.9122
7239.00,0.9033
7238.00,0.8943
7237.00,0.8855
7236.00,0.8771
7235.00,0.8686
7234.00,0.8598
7233.00,0.8507
7232.00,0.8415
7231.00,0.8325
7230.00,0.8236
7229.00,0.8148
7228.00,0.8061
7227.00,0.7976
7226.00,0.7892
7225.00,0.7812
7224.00,0.7734
7223.00,0.7659
7222.00,0.7585
7221.00,0.7513
7220.00,0.7443
7219.00,0.7376
7218.00,0.7315
7217.00,0.7259
7216.00,0.7207
7215.00,0.7157
7214.00,0.7108
7213.00,0.7062
7212.00,0.7019
7211.00,0.6979
7210.00,0.6945
7209.00,0.6919
7208.00,0.6900
7207.00,0.6887
7206.00,0.6880
7205.00,0.6879
7204.00,0.6883
7203.00,0.6891
7202.00,0.6900
7201.00,0.6910
7200.00,0.6921
7199.00,0.6937
7198.00,0.6961
7197.00,0.6992
7196.00,0.7028
7195.00,0.7067
7194.00,0.7110
7193.00,0.7160
7192.00,0.7216
7191.00,0.7276
7190.00,0.7337
7189.00,0.7401
7188.00,0.7466
7187.00,0.7533
7186.00,0.7602
7185.00,0.7672
7184.00,0.7744
7183.00,0.7820
7182.00,0.7902
7181.00,0.7986
7180.00,0.8070
7179.00,0.8155
7178.00,0.8239
7177.00,0.8324
7176.00,0.8409
7175.00,0.8493
7174.00,0.8580
7173.00,0.8667
7172.00,0.8753
7171.00,0.8835
7170.00,0.8916
7169.00,0.8997
7168.00,0.9077
7167.00,0.9156
7166.00,0.9237
7165.00,0.9323
7164.00,0.9410
7163.00,0.9493
7162.00,0.9571
7161.00,0.9647
7160.00,0.9726
7159.00,0.9802
7158.00,0.9873
7157.00,0.9941
7156.00,1.0010
7155.00,1.0080
7154.00,1.0146
7153.00,1.0205
7152.00,1.0260
7151.00,1.0315
7150.00,1.0369
7149.00,1.0420
7148.00,1.0467
7147.00,1.0511
7146.00,1.0557
7145.00,1.0602
7144.00,1.0642
7143.00,1.0676
7142.00,1.0706
7141.00,1.0735
7140.00,1.0763
7139.00,1.0789
7138.00,1.0814
7137.00,1.0839
7136.00,1.0863
7135.00,1.0884
7134.00,1.0900
7133.00,1.0908
7132.00,1.0906
7131.00,1.0894
7130.00,1.0875
7129.00,1.0855
7128.00,1.0836
7127.00,1.0819
7126.00,1.0801
7125.00,1.0778
7124.00,1.0753
7123.00,1.0729
7122.00,1.0704
7121.00,1.0674
7120.00,1.0635
7119.00,1.0590
7118.00,1.0545
7117.00,1.0501
7116.00,1.0456
7115.00,1.0404
7114.00,1.0346
7113.00,1.0282
7112.00,1.0217
7111.00,1.0153
7110.00,1.0091
7109.00,1.0029
7108.00,0.9965
7107.00,0.9896
7106.00,0.9825
7105.00,0.9757
7104.00,0.9688
7103.00,0.9614
7102.00,0.9530
7101.00,0.9442
7100.00,0.9358
7099.00,0.9280
7098.00,0.9202
7097.00,0.9120
7096.00,0.9034
7095.00,0.8947
7094.00,0.8863
7093.00,0.8781
7092.00,0.8698
7091.00,0.8611
7090.00,0.8523
7089.00,0.8436
7088.00,0.8351
7087.00,0.8266
7086.00,0.8182
7085.00,0.8097
7084.00,0.8014
7083.00,0.7933
7082.00,0.7856
7081.00,0.7781
7080.00,0.7708
7079.00,0.7638
7078.00,0.7575
7077.00,0.7518
7076.00,0.7465
7075.00,0.7414
7074.00,0.7362
7073.00,0.7312
7072.00,0.7267
7071.00,0.7228
7070.00,0.7193
7069.00,0.7163
7068.00,0.7137
7067.00,0.7118
7066.00,0.7106
7065.00,0.7098
7064.00,0.7093
7063.00,0.7090
7062.00,0.7091
7061.00,0.7098
7060.00,0.7110
7059.00,0.7127
7058.00,0.7150
7057.00,0.7180
7056.00,0.7214
7055.00,0.7251
7054.00,0.7293
7053.00,0.7338
7052.00,0.7387
7051.00,0.7438
7050.00,0.7493
7049.00,0.7552
7048.00,0.7618
7047.00,0.7688
7046.00,0.7760
7045.00,0.7832
7044.00,0.7904
7043.00,0.7977
7042.00,0.8053
7041.00,0.8131
7040.00,0.8211
7039.00,0.8295
7038.00,0.8384
7037.00,0.8475
7036.00,0.8564
7035.00,0.8652
7034.00,0.8738
7033.00,0.8826
7032.00,0.8912
7031.00,0.8997
7030.00,0.9083
7029.00,0.9171
7028.00,0.9260
7027.00,0.9349
7026.00,0.9439
7025.00,0.9531
7024.00,0.9622
7023.00,0.9711
7022.00,0.9797
7021.00,0.9882
7020.00,0.9965
7019.00,1.0044
7018.00,1.0124
7017.00,1.0207
7016.00,1.0291
7015.00,1.0374
7014.00,1.0451
7013.00,1.0525
7012.00,1.0594
7011.00,1.0658
7010.00,1.0714
7009.00,1.0766
7008.00,1.0819
7007.00,1.0875
7006.00,1.0931
7005.00,1.0984
7004.00,1.1034
7003.00,1.1082
7002.00,1.1128
7001.00,1.1170
7000.00,1.1207
6999.00,1.1242
6998.00,1.1277
6997.00,1.1315
6996.00,1.1351
6995.00,1.1379
6994.00,1.1398
6993.00,1.1409
6992.00,1.1417
6991.00,1.1421
6990.00,1.1421
6989.00,1.1418
6988.00,1.1415
6987.00,1.1418
6986.00,1.1422
6985.00,1.1423
6984.00,1.1416
6983.00,1.1401
6982.00,1.1378
6981.00,1.1349
6980.00,1.1315
6979.00,1.1277
6978.00,1.1237
6977.00,1.1198
6976.00,1.1159
6975.00,1.1122
6974.00,1.1085
6973.00,1.1046
6972.00,1.1002
6971.00,1.0952
6970.00,1.0896
6969.00,1.0835
6968.00,1.0767
6967.00,1.0695
6966.00,1.0621
6965.00,1.0547
6964.00,1.0473
6963.00,1.0396
6962.00,1.0314
6961.00,1.0230
6960.00,1.0146
6959.00,1.0062
6958.00,0.9976
6957.00,0.9887
6956.00,0.9797
6955.00,0.9706
6954.00,0.9615
6953.00,0.9523
6952.00,0.9428
6951.00,0.9329
6950.00,0.9230
6949.00,0.9131
6948.00,0.9035
6947.00,0.8942
6946.00,0.8851
6945.00,0.8760
6944.00,0.8671
6943.00,0.8582
6942.00,0.8496
6941.00,0.8411
6940.00,0.8329
6939.00,0.8251
6938.00,0.8177
6937.00,0.8106
6936.00,0.8035
6935.00,0.7965
6934.00,0.7899
6933.00,0.7838
6932.00,0.7780
6931.00,0.7726
6930.00,0.7677
6929.00,0.7636
6928.00,0.7600
6927.00,0.7568
6926.00,0.7540
6925.00,0.7519
6924.00,0.7502
6923.00,0.7490
6922.00,0.7482
6921.00,0.7481
6920.00,0.7486
6919.00,0.7496
6918.00,0.7509
6917.00,0.7528
6916.00,0.7553
6915.00,0.7583
6914.00,0.7618
6913.00,0.7658
6912.00,0.7700
6911.00,0.7745
6910.00,0.7795
6909.00,0.7849
6908.00,0.7905
6907.00,0.7963
6906.00,0.8025
6905.00,0.8093
6904.00,0.8164
6903.00,0.8238
6902.00,0.8314
6901.00,0.8394
6900.00,0.8478
6899.00,0.8564
6898.00,0.8650
6897.00,0.8738
6896.00,0.8827
6895.00,0.8918
6894.00,0.9008
6893.00,0.9098
6892.00,0.9187
6891.00,0.9276
6890.00,0.9365
6889.00,0.9455
6888.00,0.9546
6887.00,0.9635
6886.00,0.9723
6885.00,0.9807
6884.00,0.9888
6883.00,0.9967
6882.00,1.0046
6881.00,1.0127
6880.00,1.0208
6879.00,1.0290
6878.00,1.0374
6877.00,1.0457
6876.00,1.0535
6875.00,1.0606
6874.00,1.0673
6873.00,1.0737
6872.00,1.0801
6871.00,1.0864
6870.00,1.0927
6869.00,1.0990
6868.00,1.1050
6867.00,1.1104
6866.00,1.1152
6865.00,1.1197
6864.00,1.1240
6863.00,1.1281
6862.00,1.1320
6861.00,1.1356
6860.00,1.1389
6859.00,1.1422
6858.00,1.1452
6857.00,1.1478
6856.00,1.1494
6855.00,1.1504
6854.00,1.1511
6853.00,1.1518
6852.00,1.1523
6851.00,1.1524
6850.00,1.1524
6849.00,1.1527
6848.00,1.1530
6847.00,1.1529
6846.00,1.1520
6845.00,1.1504
6844.00,1.1485
6843.00,1.1463
6842.00,1.1438
6841.00,1.1405
6840.00,1.1367
6839.00,1.1329
6838.00,1.1292
6837.00,1.1251
6836.00,1.1202
6835.00,1.1144
6834.00,1.1084
6833.00,1.1026
6832.00,1.0971
6831.00,1.0914
6830.00,1.0852
6829.00,1.0786
6828.00,1.0715
6827.00,1.0641
6826.00,1.0566
6825.00,1.0487
6824.00,1.0405
6823.00,1.0320
6822.00,1.0234
6821.00,1.0148
6820.00,1.0060
6819.00,0.9969
6818.00,0.9875
6817.00,0.9780
6816.00,0.9685
6815.00,0.9590
6814.00,0.9498
6813.00,0.9408
6812.00,0.9317
6811.00,0.9221
6810.00,0.9124
6809.00,0.9029
6808.00,0.8936
6807.00,0.8844
6806.00,0.8752
6805.00,0.8662
6804.00,0.8573
6803.00,0.8487
6802.00,0.8403
6801.00,0.8321
6800.00,0.8242
6799.00,0.8165
6798.00,0.8091
6797.00,0.8020
6796.00,0.7951
6795.00,0.7884
6794.00,0.7821
6793.00,0.7760
6792.00,0.7703
6791.00,0.7651
6790.00,0.7604
6789.00,0.7563
6788.00,0.7527
6787.00,0.7493
6786.00,0.7464
6785.00,0.7441
6784.00,0.7424
6783.00,0.7411
6782.00,0.7403
6781.00,0.7399
6780.00,0.7401
6779.00,0.7405
6778.00,0.7414
6777.00,0.7428
6776.00,0.7448
6775.00,0.7473
6774.00,0.7504
6773.00,0.7539
6772.00,0.7579
6771.00,0.7624
6770.00,0.7673
6769.00,0.7725
6768.00,0.7781
6767.00,0.7841
6766.00,0.7907
6765.00,0.7978
6764.00,0.8051
6763.00,0.8125
6762.00,0.8203
6761.00,0.8285
6760.00,0.8369
6759.00,0.8453
6758.00,0.8538
6757.00,0.8625
6756.00,0.8713
6755.00,0.8802
6754.00,0.8890
6753.00,0.8980
6752.00,0.9073
6751.00,0.9167
6750.00,0.9261
6749.00,0.9354
6748.00,0.9448
6747.00,0.9541
6746.00,0.9633
6745.00,0.9725
6744.00,0.9816
6743.00,0.9908
6742.00,1.0001
6741.00,1.0094
6740.00,1.0185
6739.00,1.0273
6738.00,1.0361
6737.00,1.0448
6736.00,1.0531
6735.00,1.0611
6734.00,1.0690
6733.00,1.0769
6732.00,1.0848
6731.00,1.0923
6730.00,1.0992
6729.00,1.1057
6728.00,1.1123
6727.00,1.1191
6726.00,1.1258
6725.00,1.1318
6724.00,1.1373
6723.00,1.1425
6722.00,1.1474
6721.00,1.1518
6720.00,1.1556
6719.00,1.1591
6718.00,1.1628
6717.00,1.1666
6716.00,1.1701
6715.00,1.1732
6714.00,1.1760
6713.00,1.1786
6712.00,1.1808
6711.00,1.1823
6710.00,1.1834
6709.00,1.1842
6708.00,1.1849
6707.00,1.1852
6706.00,1.1850
6705.00,1.1843
6704.00,1.1836
6703.00,1.1828
6702.00,1.1817
6701.00,1.1801
6700.00,1.1781
6699.00,1.1759
6698.00,1.1735
6697.00,1.1707
6696.00,1.1676
6695.00,1.1641
6694.00,1.1604
6693.00,1.1564
6692.00,1.1520
6691.00,1.1471
6690.00,1.1419
6689.00,1.1365
6688.00,1.1307
6687.00,1.1246
6686.00,1.1180
6685.00,1.1108
6684.00,1.1030
6683.00,1.0950
6682.00,1.0870
6681.00,1.0788
6680.00,1.0703
6679.00,1.0615
6678.00,1.0527
6677.00,1.0440
6676.00,1.0350
6675.00,1.0256
6674.00,1.0159
6673.00,1.0060
6672.00,0.9959
6671.00,0.9858
6670.00,0.9758
6669.00,0.9658
6668.00,0.9558
6667.00,0.9458
6666.00,0.9358
6665.00,0.9260
6664.00,0.9162
6663.00,0.9064
6662.00,0.8967
6661.00,0.8872
6660.00,0.8776
6659.00,0.8681
6658.00,0.8588
6657.00,0.8497
6656.00,0.8410
6655.00,0.8325
6654.00,0.8244
6653.00,0.8169
6652.00,0.8100
6651.00,0.8035
6650.00,0.7973
6649.00,0.7915
6648.00,0.7862
6647.00,0.7812
6646.00,0.7767
6645.00,0.7727
6644.00,0.7692
6643.00,0.7662
6642.00,0.7637
6641.00,0.7619
6640.00,0.7607
6639.00,0.7601
6638.00,0.7602
6637.00,0.7611
6636.00,0.7627
6635.00,0.7648
6634.00,0.7672
6633.00,0.7700
6632.00,0.7732
6631.00,0.7768
6630.00,0.7809
6629.00,0.7855
6628.00,0.7906
6627.00,0.7962
6626.00,0.8023
6625.00,0.8089
6624.00,0.8158
6623.00,0.8229
6622.00,0.8302
6621.00,0.8376
6620.00,0.8453
6619.00,0.8533
6618.00,0.8616
6617.00,0.8701
6616.00,0.8787
6615.00,0.8875
6614.00,0.8967
6613.00,0.9062
6612.00,0.9156
6611.00,0.9248
6610.00,0.9340
6609.00,0.9435
6608.00,0.9531
6607.00,0.9625
6606.00,0.9717
6605.00,0.9809
6604.00,0.9902
6603.00,0.9995
6602.00,1.0087
6601.00,1.0177
6600.00,1.0266
6599.00,1.0354
6598.00,1.0441
6597.00,1.0524
6596.00,1.0604
6595.00,1.0682
6594.00,1.0761
6593.00,1.0840
6592.00,1.0915
6591.00,1.0986
6590.00,1.1055
6589.00,1.1121
6588.00,1.1185
6587.00,1.1249
6586.00,1.1312
6585.00,1.1371
6584.00,1.1425
6583.00,1.1477
6582.00,1.1526
6581.00,1.1570
6580.00,1.1609
6579.00,1.1643
6578.00,1.1675
6577.00,1.1707
6576.00,1.1736
6575.00,1.1761
6574.00,1.1782
6573.00,1.1797
6572.00,1.1809
6571.00,1.1820
6570.00,1.1832
6569.00,1.1840
6568.00,1.1839
6567.00,1.1831
6566.00,1.1821
6565.00,1.1811
6564.00,1.1798
6563.00,1.1779
6562.00,1.1754
6561.00,1.1727
6560.00,1.1701
6559.00,1.1674
6558.00,1.1645
6557.00,1.1611
6556.00,1.1572
6555.00,1.1530
6554.00,1.1486
6553.00,1.1440
6552.00,1.1384
6551.00,1.1320
6550.00,1.1254
6549.00,1.1191
6548.00,1.1129
6547.00,1.1064
6546.00,1.0994
6545.00,1.0922
6544.00,1.0845
6543.00,1.0763
6542.00,1.0676
6541.00,1.0588
6540.00,1.0499
6539.00,1.0410
6538.00,1.0321
6537.00,1.0232
6536.00,1.0142
6535.00,1.0047
6534.00,0.9949
6533.00,0.9851
6532.00,0.9754
6531.00,0.9655
6530.00,0.9554
6529.00,0.9454
6528.00,0.9353
6527.00,0.9251
6526.00,0.9148
6525.00,0.9046
6524.00,0.8946
6523.00,0.8848
6522.00,0.8752
6521.00,0.8658
6520.00,0.8566
6519.00,0.8475
6518.00,0.8387
6517.00,0.8303
6516.00,0.8221
6515.00,0.8142
6514.00,0.8065
6513.00,0.7992
6512.00,0.7923
6511.00,0.7857
6510.00,0.7795
6509.00,0.7736
6508.00,0.7681
6507.00,0.7630
6506.00,0.7584
6505.00,0.7543
6504.00,0.7507
6503.00,0.7476
6502.00,0.7451
6501.00,0.7431
6500.00,0.7416
6499.00,0.7406
6498.00,0.7402
6497.00,0.7404
6496.00,0.7412
6495.00,0.7427
6494.00,0.7448
6493.00,0.7474
6492.00,0.7506
6491.00,0.7541
6490.00,0.7580
6489.00,0.7626
6488.00,0.7676
6487.00,0.7732
6486.00,0.7791
6485.00,0.7856
6484.00,0.7924
6483.00,0.7994
6482.00,0.8066
6481.00,0.8139
6480.00,0.8215
6479.00,0.8296
6478.00,0.8379
6477.00,0.8465
6476.00,0.8555
6475.00,0.8648
6474.00,0.8743
6473.00,0.8839
6472.00,0.8936
6471.00,0.9035
6470.00,0.9136
6469.00,0.9238
6468.00,0.9338
6467.00,0.9437
6466.00,0.9536
6465.00,0.9635
6464.00,0.9734
6463.00,0.9832
6462.00,0.9928
6461.00,1.0022
6460.00,1.0114
6459.00,1.0206
6458.00,1.0299
6457.00,1.0392
6456.00,1.0484
6455.00,1.0574
6454.00,1.0662
6453.00,1.0747
6452.00,1.0829
6451.00,1.0909
6450.00,1.0986
6449.00,1.1063
6448.00,1.1140
6447.00,1.1217
6446.00,1.1291
6445.00,1.1360
6444.00,1.1422
6443.00,1.1482
6442.00,1.1543
6441.00,1.1604
6440.00,1.1659
6439.00,1.1706
6438.00,1.1748
6437.00,1.1787
6436.00,1.1824
6435.00,1.1858
6434.00,1.1891
6433.00,1.1922
6432.00,1.1954
6431.00,1.1982
6430.00,1.2007
6429.00,1.2025
6428.00,1.2037
6427.00,1.2044
6426.00,1.2046
6425.00,1.2046
6424.00,1.2043
6423.00,1.2038
6422.00,1.2030
6421.00,1.2019
6420.00,1.2004
6419.00,1.1984
6418.00,1.1962
6417.00,1.1937
6416.00,1.1908
6415.00,1.1875
6414.00,1.1838
6413.00,1.1797
6412.00,1.1753
6411.00,1.1705
6410.00,1.1653
6409.00,1.1599
6408.00,1.1543
6407.00,1.1484
6406.00,1.1422
6405.00,1.1354
6404.00,1.1284
6403.00,1.1212
6402.00,1.1138
6401.00,1.1063
6400.00,1.0984
6399.00,1.0901
6398.00,1.0813
6397.00,1.0718
6396.00,1.0619
6395.00,1.0517
6394.00,1.0416
6393.00,1.0316
6392.00,1.0217
6391.00,1.0118
6390.00,1.0017
6389.00,0.9913
6388.00,0.9805
6387.00,0.9695
6386.00,0.9584
6385.00,0.9473
6384.00,0.9363
6383.00,0.9254
6382.00,0.9146
6381.00,0.9039
6380.00,0.8931
6379.00,0.8823
6378.00,0.8718
6377.00,0.8614
6376.00,0.8514
6375.00,0.8418
6374.00,0.8328
6373.00,0.8242
6372.00,0.8159
6371.00,0.8077
6370.00,0.7999
6369.00,0.7924
6368.00,0.7853
6367.00,0.7786
6366.00,0.7725
6365.00,0.7671
6364.00,0.7623
6363.00,0.7579
6362.00,0.7542
6361.00,0.7510
6360.00,0.7484
6359.00,0.7462
6358.00,0.7446
6357.00,0.7437
6356.00,0.7434
6355.00,0.7437
6354.00,0.7446
6353.00,0.7461
6352.00,0.7482
6351.00,0.7508
6350.00,0.7541
6349.00,0.7580
6348.00,0.7624
6347.00,0.7673
6346.00,0.7728
6345.00,0.7789
6344.00,0.7856
6343.00,0.7925
6342.00,0.7997
6341.00,0.8070
6340.00,0.8146
6339.00,0.8224
6338.00,0.8305
6337.00,0.8392
6336.00,0.8483
6335.00,0.8577
6334.00,0.8673
6333.00,0.8770
6332.00,0.8867
6331.00,0.8964
6330.00,0.9061
6329.00,0.9160
6328.00,0.9260
6327.00,0.9359
6326.00,0.9458
6325.00,0.9556
6324.00,0.9656
6323.00,0.9754
6322.00,0.9852
6321.00,0.9950
6320.00,1.0047
6319.00,1.0143
6318.00,1.0235
6317.00,1.0326
6316.00,1.0415
6315.00,1.0504
6314.00,1.0594
6313.00,1.0682
6312.00,1.0768
6311.00,1.0849
6310.00,1.0926
6309.00,1.1002
6308.00,1.1077
6307.00,1.1149
6306.00,1.1219
6305.00,1.1285
6304.00,1.1350
6303.00,1.1413
6302.00,1.1473
6301.00,1.1527
6300.00,1.1575
6299.00,1.1619
6298.00,1.1660
6297.00,1.1699
6296.00,1.1734
6295.00,1.1766
6294.00,1.1795
6293.00,1.1821
6292.00,1.1845
6291.00,1.1865
6290.00,1.1881
6289.00,1.1894
6288.00,1.1904
6287.00,1.1911
6286.00,1.1914
6285.00,1.1912
6284.00,1.1905
6283.00,1.1896
6282.00,1.1886
6281.00,1.1873
6280.00,1.1856
6279.00,1.1835
6278.00,1.1809
6277.00,1.1781
6276.00,1.1749
6275.00,1.1714
6274.00,1.1675
6273.00,1.1634
6272.00,1.1588
6271.00,1.1537
6270.00,1.1481
6269.00,1.1420
6268.00,1.1357
6267.00,1.1293
6266.00,1.1229
6265.00,1.1162
6264.00,1.1090
6263.00,1.1013
6262.00,1.0935
6261.00,1.0855
6260.00,1.0771
6259.00,1.0684
6258.00,1.0593
6257.00,1.0501
6256.00,1.0406
6255.00,1.0308
6254.00,1.0206
6253.00,1.0102
6252.00,0.9999
6251.00,0.9895
6250.00,0.9792
6249.00,0.9689
6248.00,0.9585
6247.00,0.9480
6246.00,0.9373
6245.00,0.9267
6244.00,0.9160
6243.00,0.9053
6242.00,0.8947
6241.00,0.8841
6240.00,0.8736
6239.00,0.8632
6238.00,0.8529
6237.00,0.8427
6236.00,0.8328
6235.00,0.8231
6234.00,0.8137
6233.00,0.8048
6232.00,0.7961
6231.00,0.7876
6230.00,0.7795
6229.00,0.7718
6228.00,0.7644
6227.00,0.7574
6226.00,0.7509
6225.00,0.7449
6224.00,0.7394
6223.00,0.7346
6222.00,0.7303
6221.00,0.7268
6220.00,0.7239
6219.00,0.7215
6218.00,0.7197
6217.00,0.7185
6216.00,0.7177
6215.00,0.7175
6214.00,0.7178
6213.00,0.7188
6212.00,0.7206
6211.00,0.7231
6210.00,0.7261
6209.00,0.7297
6208.00,0.7338
6207.00,0.7384
6206.00,0.7433
6205.00,0.7487
6204.00,0.7547
6203.00,0.7613
6202.00,0.7684
6201.00,0.7759
6200.00,0.7837
6199.00,0.7918
6198.00,0.8002
6197.00,0.8090
6196.00,0.8181
6195.00,0.8275
6194.00,0.8370
6193.00,0.8468
6192.00,0.8567
6191.00,0.8669
6190.00,0.8771
6189.00,0.8874
6188.00,0.8978
6187.00,0.9084
6186.00,0.9189
6185.00,0.9294
6184.00,0.9398
6183.00,0.9502
6182.00,0.9608
6181.00,0.9714
6180.00,0.9819
6179.00,0.9922
6178.00,1.0023
6177.00,1.0122
6176.00,1.0219
6175.00,1.0314
6174.00,1.0406
6173.00,1.0494
6172.00,1.0580
6171.00,1.0664
6170.00,1.0747
6169.00,1.0833
6168.00,1.0920
6167.00,1.1005
6166.00,1.1089
6165.00,1.1168
6164.00,1.1241
6163.00,1.1308
6162.00,1.1370
6161.00,1.1430
6160.00,1.1491
6159.00,1.1551
6158.00,1.1611
6157.00,1.1666
6156.00,1.1716
6155.00,1.1760
6154.00,1.1801
6153.00,1.1838
6152.00,1.1873
6151.00,1.1905
6150.00,1.1935
6149.00,1.1960
6148.00,1.1979
6147.00,1.1991
6146.00,1.1997
6145.00,1.2001
6144.00,1.2006
6143.00,1.2010
6142.00,1.2014
6141.00,1.2016
6140.00,1.2015
6139.00,1.2009
6138.00,1.1994
6137.00,1.1971
6136.00,1.1944
6135.00,1.1914
6134.00,1.1884
6133.00,1.1850
6132.00,1.1815
6131.00,1.1779
6130.00,1.1740
6129.00,1.1695
6128.00,1.1644
6127.00,1.1588
6126.00,1.1528
6125.00,1.1465
6124.00,1.1397
6123.00,1.1324
6122.00,1.1250
6121.00,1.1171
6120.00,1.1088
6119.00,1.1003
6118.00,1.0918
6117.00,1.0834
6116.00,1.0745
6115.00,1.0649
6114.00,1.0548
6113.00,1.0445
6112.00,1.0341
6111.00,1.0234
6110.00,1.0124
6109.00,1.0014
6108.00,0.9905
6107.00,0.9795
6106.00,0.9681
6105.00,0.9566
6104.00,0.9449
6103.00,0.9332
6102.00,0.9216
6101.00,0.9100
6100.00,0.8983
6099.00,0.8867
6098.00,0.8754
6097.00,0.8641
6096.00,0.8529
6095.00,0.8417
6094.00,0.8309
6093.00,0.8203
6092.00,0.8101
6091.00,0.8002
6090.00,0.7908
6089.00,0.7820
6088.00,0.7735
6087.00,0.7652
6086.00,0.7574
6085.00,0.7500
6084.00,0.7432
6083.00,0.7370
6082.00,0.7314
6081.00,0.7266
6080.00,0.7224
6079.00,0.7186
6078.00,0.7154
6077.00,0.7129
6076.00,0.7110
6075.00,0.7098
6074.00,0.7093
6073.00,0.7096
6072.00,0.7105
6071.00,0.7121
6070.00,0.7143
6069.00,0.7172
6068.00,0.7207
6067.00,0.7248
6066.00,0.7295
6065.00,0.7348
6064.00,0.7407
6063.00,0.7470
6062.00,0.7538
6061.00,0.7610
6060.00,0.7687
6059.00,0.7767
6058.00,0.7850
6057.00,0.7937
6056.00,0.8028
6055.00,0.8121
6054.00,0.8217
6053.00,0.8315
6052.00,0.8413
6051.00,0.8512
6050.00,0.8612
6049.00,0.8715
6048.00,0.8819
6047.00,0.8925
6046.00,0.9032
6045.00,0.9142
6044.00,0.9252
6043.00,0.9360
6042.00,0.9466
6041.00,0.9571
6040.00,0.9675
6039.00,0.9778
6038.00,0.9880
6037.00,0.9982
6036.00,1.0084
6035.00,1.0186
6034.00,1.0285
6033.00,1.0382
6032.00,1.0477
6031.00,1.0571
6030.00,1.0664
6029.00,1.0754
6028.00,1.0840
6027.00,1.0921
6026.00,1.0998
6025.00,1.1072
6024.00,1.1142
6023.00,1.1212
6022.00,1.1282
6021.00,1.1350
6020.00,1.1416
6019.00,1.1476
6018.00,1.1533
6017.00,1.1586
6016.00,1.1637
6015.00,1.1685
6014.00,1.1733
6013.00,1.1778
6012.00,1.1818
6011.00,1.1852
6010.00,1.1880
6009.00,1.1906
6008.00,1.1927
6007.00,1.1944
6006.00,1.1956
6005.00,1.1965
6004.00,1.1972
6003.00,1.1976
6002.00,1.1976
6001.00,1.1971
6000.00,1.1963
5999.00,1.1952
5998.00,1.1937
5997.00,1.1918
5996.00,1.1894
5995.00,1.1868
5994.00,1.1840
5993.00,1.1810
5992.00,1.1775
5991.00,1.1736
5990.00,1.1693
5989.00,1.1646
5988.00,1.1596
5987.00,1.1542
5986.00,1.1484
5985.00,1.1422
5984.00,1.1356
5983.00,1.1288
5982.00,1.1217
5981.00,1.1144
5980.00,1.1067
5979.00,1.0985
5978.00,1.0900
5977.00,1.0812
5976.00,1.0720
5975.00,1.0624
5974.00,1.0526
5973.00,1.0427
5972.00,1.0325
5971.00,1.0220
5970.00,1.0113
5969.00,1.0005
5968.00,0.9896
5967.00,0.9785
5966.00,0.9674
5965.00,0.9562
5964.00,0.9451
5963.00,0.9342
5962.00,0.9233
5961.00,0.9127
5960.00,0.9023
5959.00,0.8921
5958.00,0.8820
5957.00,0.8721
5956.00,0.8623
5955.00,0.8525
5954.00,0.8427
5953.00,0.8329
5952.00,0.8231
5951.00,0.8133
5950.00,0.8037
5949.00,0.7942
5948.00,0.7848
5947.00,0.7756
5946.00,0.7666
5945.00,0.7578
5944.00,0.7494
5943.00,0.7414
5942.00,0.7339
5941.00,0.7270
5940.00,0.7208
5939.00,0.7152
5938.00,0.7103
5937.00,0.7062
5936.00,0.7029
5935.00,0.7003
5934.00,0.6984
5933.00,0.6974
5932.00,0.6971
5931.00,0.6975
5930.00,0.6988
5929.00,0.7009
5928.00,0.7036
5927.00,0.7070
5926.00,0.7110
5925.00,0.7157
5924.00,0.7209
5923.00,0.7266
5922.00,0.7329
5921.00,0.7399
5920.00,0.7474
5919.00,0.7553
5918.00,0.7635
5917.00,0.7723
5916.00,0.7815
5915.00,0.7910
5914.00,0.8009
5913.00,0.8110
5912.00,0.8213
5911.00,0.8316
5910.00,0.8421
5909.00,0.8528
5908.00,0.8638
5907.00,0.8749
5906.00,0.8862
5905.00,0.8975
5904.00,0.9087
5903.00,0.9197
5902.00,0.9307
5901.00,0.9418
5900.00,0.9530
5899.00,0.9641
5898.00,0.9751
5897.00,0.9862
5896.00,0.9972
5895.00,1.0083
5894.00,1.0193
5893.00,1.0301
5892.00,1.0404
5891.00,1.0503
5890.00,1.0598
5889.00,1.0691
5888.00,1.0782
5887.00,1.0872
5886.00,1.0963
5885.00,1.1053
5884.00,1.1138
5883.00,1.1217
5882.00,1.1289
5881.00,1.1357
5880.00,1.1422
5879.00,1.1486
5878.00,1.1549
5877.00,1.1610
5876.00,1.1667
5875.00,1.1717
5874.00,1.1763
5873.00,1.1806
5872.00,1.1847
5871.00,1.1885
5870.00,1.1920
5869.00,1.1954
5868.00,1.1987
5867.00,1.2017
5866.00,1.2042
5865.00,1.2062
5864.00,1.2078
5863.00,1.2089
5862.00,1.2095
5861.00,1.2095
5860.00,1.2090
5859.00,1.2083
5858.00,1.2076
5857.00,1.2070
5856.00,1.2060
5855.00,1.2045
5854.00,1.2024
5853.00,1.1999
5852.00,1.1970
5851.00,1.1936
5850.00,1.1900
5849.00,1.1862
5848.00,1.1822
5847.00,1.1778
5846.00,1.1728
5845.00,1.1671
5844.00,1.1609
5843.00,1.1545
5842.00,1.1479
5841.00,1.1411
5840.00,1.1340
5839.00,1.1265
5838.00,1.1186
5837.00,1.1105
5836.00,1.1024
5835.00,1.0941
5834.00,1.0854
5833.00,1.0763
5832.00,1.0667
5831.00,1.0569
5830.00,1.0467
5829.00,1.0362
5828.00,1.0255
5827.00,1.0145
5826.00,1.0033
5825.00,0.9918
5824.00,0.9799
5823.00,0.9679
5822.00,0.9558
5821.00,0.9438
5820.00,0.9318
5819.00,0.9197
5818.00,0.9074
5817.00,0.8951
5816.00,0.8828
5815.00,0.8706
5814.00,0.8584
5813.00,0.8464
5812.00,0.8346
5811.00,0.8232
5810.00,0.8121
5809.00,0.8014
5808.00,0.7911
5807.00,0.7811
5806.00,0.7715
5805.00,0.7623
5804.00,0.7535
5803.00,0.7452
5802.00,0.7373
5801.00,0.7300
5800.00,0.7233
5799.00,0.7172
5798.00,0.7117
5797.00,0.7070
5796.00,0.7030
5795.00,0.6997
5794.00,0.6972
5793.00,0.6953
5792.00,0.6941
5791.00,0.6935
5790.00,0.6937
5789.00,0.6946
5788.00,0.6963
5787.00,0.6987
5786.00,0.7020
5785.00,0.7060
5784.00,0.7106
5783.00,0.7156
5782.00,0.7213
5781.00,0.7276
5780.00,0.7344
5779.00,0.7418
5778.00,0.7497
5777.00,0.7580
5776.00,0.7668
5775.00,0.7758
5774.00,0.7852
5773.00,0.7950
5772.00,0.8052
5771.00,0.8159
5770.00,0.8268
5769.00,0.8379
5768.00,0.8492
5767.00,0.8604
5766.00,0.8716
5765.00,0.8828
5764.00,0.8941
5763.00,0.9055
5762.00,0.9170
5761.00,0.9285
5760.00,0.9399
5759.00,0.9512
5758.00,0.9625
5757.00,0.9739
5756.00,0.9852
5755.00,0.9964
5754.00,1.0075
5753.00,1.0186
5752.00,1.0294
5751.00,1.0399
5750.00,1.0501
5749.00,1.0601
5748.00,1.0699
5747.00,1.0798
5746.00,1.0895
5745.00,1.0989
5744.00,1.1078
5743.00,1.1164
5742.00,1.1247
5741.00,1.1324
5740.00,1.1397
5739.00,1.1468
5738.00,1.1538
5737.00,1.1605
5736.00,1.1667
5735.00,1.1724
5734.00,1.1781
5733.00,1.1837
5732.00,1.1890
5731.00,1.1938
5730.00,1.1983
5729.00,1.2025
5728.00,1.2061
5727.00,1.2091
5726.00,1.2117
5725.00,1.2141
5724.00,1.2163
5723.00,1.2183
5722.00,1.2199
5721.00,1.2211
5720.00,1.2219
5719.00,1.2222
5718.00,1.2217
5717.00,1.2206
5716.00,1.2193
5715.00,1.2179
5714.00,1.2164
5713.00,1.2146
5712.00,1.2123
5711.00,1.2094
5710.00,1.2058
5709.00,1.2014
5708.00,1.1966
5707.00,1.1918
5706.00,1.1871
5705.00,1.1824
5704.00,1.1773
5703.00,1.1716
5702.00,1.1654
5701.00,1.1586
5700.00,1.1514
5699.00,1.1438
5698.00,1.1360
5697.00,1.1278
5696.00,1.1191
5695.00,1.1098
5694.00,1.1003
5693.00,1.0906
5692.00,1.0807
5691.00,1.0706
5690.00,1.0602
5689.00,1.0496
5688.00,1.0387
5687.00,1.0272
5686.00,1.0153
5685.00,1.0031
5684.00,0.9907
5683.00,0.9781
5682.00,0.9653
5681.00,0.9525
5680.00,0.9397
5679.00,0.9269
5678.00,0.9139
5677.00,0.9008
5676.00,0.8876
5675.00,0.8744
5674.00,0.8613
5673.00,0.8486
5672.00,0.8360
5671.00,0.8235
5670.00,0.8113
5669.00,0.7993
5668.00,0.7877
5667.00,0.7764
5666.00,0.7654
5665.00,0.7548
5664.00,0.7446
5663.00,0.7348
5662.00,0.7254
5661.00,0.7167
5660.00,0.7086
5659.00,0.7013
5658.00,0.6947
5657.00,0.6888
5656.00,0.6836
5655.00,0.6791
5654.00,0.6754
5653.00,0.6725
5652.00,0.6704
5651.00,0.6691
5650.00,0.6686
5649.00,0.6689
5648.00,0.6701
5647.00,0.6720
5646.00,0.6746
5645.00,0.6780
5644.00,0.6820
5643.00,0.6868
5642.00,0.6924
5641.00,0.6988
5640.00,0.7059
5639.00,0.7136
5638.00,0.7218
5637.00,0.7304
5636.00,0.7393
5635.00,0.7486
5634.00,0.7584
5633.00,0.7686
5632.00,0.7791
5631.00,0.7900
5630.00,0.8012
5629.00,0.8127
5628.00,0.8243
5627.00,0.8360
5626.00,0.8480
5625.00,0.8602
5624.00,0.8723
5623.00,0.8844
5622.00,0.8966
5621.00,0.9090
5620.00,0.9214
5619.00,0.9336
5618.00,0.9457
5617.00,0.9576
5616.00,0.9694
5615.00,0.9810
5614.00,0.9926
5613.00,1.0042
5612.00,1.0160
5611.00,1.0276
5610.00,1.0390
5609.00,1.0502
5608.00,1.0609
5607.00,1.0713
5606.00,1.0815
5605.00,1.0915
5604.00,1.1013
5603.00,1.1107
5602.00,1.1199
5601.00,1.1288
5600.00,1.1374
5599.00,1.1456
5598.00,1.1537
5597.00,1.1614
5596.00,1.1688
5595.00,1.1757
5594.00,1.1821
5593.00,1.1881
5592.00,1.1938
5591.00,1.1992
5590.00,1.2044
5589.00,1.2093
5588.00,1.2138
5587.00,1.2178
5586.00,1.2214
5585.00,1.2245
5584.00,1.2271
5583.00,1.2293
5582.00,1.2311
5581.00,1.2327
5580.00,1.2341
5579.00,1.2354
5578.00,1.2365
5577.00,1.2372
5576.00,1.2371
5575.00,1.2362
5574.00,1.2349
5573.00,1.2332
5572.00,1.2313
5571.00,1.2291
5570.00,1.2267
5569.00,1.2238
5568.00,1.2205
5567.00,1.2166
5566.00,1.2122
5565.00,1.2074
5564.00,1.2023
5563.00,1.1968
5562.00,1.1910
5561.00,1.1849
5560.00,1.1783
5559.00,1.1713
5558.00,1.1638
5557.00,1.1560
5556.00,1.1478
5555.00,1.1395
5554.00,1.1309
5553.00,1.1220
5552.00,1.1126
5551.00,1.1026
5550.00,1.0920
5549.00,1.0810
5548.00,1.0698
5547.00,1.0583
5546.00,1.0467
5545.00,1.0347
5544.00,1.0225
5543.00,1.0098
5542.00,0.9970
5541.00,0.9839
5540.00,0.9707
5539.00,0.9575
5538.00,0.9442
5537.00,0.9308
5536.00,0.9171
5535.00,0.9033
5534.00,0.8895
5533.00,0.8759
5532.00,0.8625
5531.00,0.8493
5530.00,0.8364
5529.00,0.8236
5528.00,0.8110
5527.00,0.7988
5526.00,0.7869
5525.00,0.7756
5524.00,0.7646
5523.00,0.7540
5522.00,0.7440
5521.00,0.7345
5520.00,0.7256
5519.00,0.7174
5518.00,0.7100
5517.00,0.7034
5516.00,0.6974
5515.00,0.6920
5514.00,0.6875
5513.00,0.6839
5512.00,0.6811
5511.00,0.6792
5510.00,0.6782
5509.00,0.6781
5508.00,0.6789
5507.00,0.6803
5506.00,0.6826
5505.00,0.6856
5504.00,0.6894
5503.00,0.6939
5502.00,0.6992
5501.00,0.7053
5500.00,0.7122
5499.00,0.7197
5498.00,0.7278
5497.00,0.7364
5496.00,0.7454
5495.00,0.7549
5494.00,0.7650
5493.00,0.7755
5492.00,0.7865
5491.00,0.7978
5490.00,0.8093
5489.00,0.8211
5488.00,0.8331
5487.00,0.8454
5486.00,0.8580
5485.00,0.8708
5484.00,0.8837
5483.00,0.8966
5482.00,0.9095
5481.00,0.9224
5480.00,0.9351
5479.00,0.9477
5478.00,0.9602
5477.00,0.9729
5476.00,0.9855
5475.00,0.9981
5474.00,1.0105
5473.00,1.0227
5472.00,1.0346
5471.00,1.0464
5470.00,1.0581
5469.00,1.0699
5468.00,1.0814
5467.00,1.0926
5466.00,1.1032
5465.00,1.1132
5464.00,1.1228
5463.00,1.1322
5462.00,1.1416
5461.00,1.1510
5460.00,1.1601
5459.00,1.1687
5458.00,1.1769
5457.00,1.1849
5456.00,1.1925
5455.00,1.1998
5454.00,1.2068
5453.00,1.2133
5452.00,1.2192
5451.00,1.2244
5450.00,1.2292
5449.00,1.2337
5448.00,1.2378
5447.00,1.2418
5446.00,1.2454
5445.00,1.2489
5444.00,1.2520
5443.00,1.2548
5442.00,1.2571
5441.00,1.2589
5440.00,1.2600
5439.00,1.2607
5438.00,1.2611
5437.00,1.2612
5436.00,1.2609
5435.00,1.2602
5434.00,1.2592
5433.00,1.2578
5432.00,1.2560
5431.00,1.2538
5430.00,1.2512
5429.00,1.2485
5428.00,1.2454
5427.00,1.2419
5426.00,1.2379
5425.00,1.2336
5424.00,1.2288
5423.00,1.2235
5422.00,1.2176
5421.00,1.2114
5420.00,1.2047
5419.00,1.1975
5418.00,1.1900
5417.00,1.1823
5416.00,1.1744
5415.00,1.1659
5414.00,1.1569
5413.00,1.1472
5412.00,1.1371
5411.00,1.1266
5410.00,1.1158
5409.00,1.1048
5408.00,1.0934
5407.00,1.0817
5406.00,1.0697
5405.00,1.0575
5404.00,1.0451
5403.00,1.0326
5402.00,1.0198
5401.00,1.0067
5400.00,0.9933
5399.00,0.9795
5398.00,0.9654
5397.00,0.9512
5396.00,0.9369
5395.00,0.9223
5394.00,0.9075
5393.00,0.8926
5392.00,0.8779
5391.00,0.8633
5390.00,0.8492
5389.00,0.8356
5388.00,0.8223
5387.00,0.8092
5386.00,0.7963
5385.00,0.7837
5384.00,0.7716
5383.00,0.7598
5382.00,0.7487
5381.00,0.7383
5380.00,0.7285
5379.00,0.7194
5378.00,0.7110
5377.00,0.7032
5376.00,0.6962
5375.00,0.6899
5374.00,0.6844
5373.00,0.6798
5372.00,0.6760
5371.00,0.6732
5370.00,0.6715
5369.00,0.6708
5368.00,0.6712
5367.00,0.6723
5366.00,0.6743
5365.00,0.6771
5364.00,0.6806
5363.00,0.6849
5362.00,0.6900
5361.00,0.6958
5360.00,0.7024
5359.00,0.7097
5358.00,0.7176
5357.00,0.7262
5356.00,0.7353
5355.00,0.7450
5354.00,0.7551
5353.00,0.7657
5352.00,0.7769
5351.00,0.7885
5350.00,0.8004
5349.00,0.8126
5348.00,0.8248
5347.00,0.8371
5346.00,0.8497
5345.00,0.8628
5344.00,0.8761
5343.00,0.8898
5342.00,0.9035
5341.00,0.9171
5340.00,0.9305
5339.00,0.9438
5338.00,0.9573
5337.00,0.9709
5336.00,0.9844
5335.00,0.9977
5334.00,1.0108
5333.00,1.0238
5332.00,1.0368
5331.00,1.0496
5330.00,1.0621
5329.00,1.0743
5328.00,1.0862
5327.00,1.0980
5326.00,1.1098
5325.00,1.1214
5324.00,1.1325
5323.00,1.1432
5322.00,1.1535
5321.00,1.1635
5320.00,1.1731
5319.00,1.1824
5318.00,1.1913
5317.00,1.1999
5316.00,1.2082
5315.00,1.2162
5314.00,1.2239
5313.00,1.2313
5312.00,1.2381
5311.00,1.2445
5310.00,1.2504
5309.00,1.2561
5308.00,1.2614
5307.00,1.2664
5306.00,1.2709
5305.00,1.2750
5304.00,1.2785
5303.00,1.2815
5302.00,1.2839
5301.00,1.2860
5300.00,1.2877
5299.00,1.2893
5298.00,1.2907
5297.00,1.2919
5296.00,1.2930
5295.00,1.2936
5294.00,1.2938
5293.00,1.2934
5292.00,1.2922
5291.00,1.2905
5290.00,1.2883
5289.00,1.2858
5288.00,1.2829
5287.00,1.2797
5286.00,1.2762
5285.00,1.2725
5284.00,1.2683
5283.00,1.2638
5282.00,1.2589
5281.00,1.2536
5280.00,1.2478
5279.00,1.2414
5278.00,1.2346
5277.00,1.2275
5276.00,1.2199
5275.00,1.2120
5274.00,1.2037
5273.00,1.1952
5272.00,1.1862
5271.00,1.1766
5270.00,1.1666
5269.00,1.1562
5268.00,1.1455
5267.00,1.1344
5266.00,1.1229
5265.00,1.1109
5264.00,1.0983
5263.00,1.0852
5262.00,1.0719
5261.00,1.0586
5260.00,1.0455
5259.00,1.0322
5258.00,1.0188
5257.00,1.0051
5256.00,0.9911
5255.00,0.9768
5254.00,0.9623
5253.00,0.9479
5252.00,0.9335
5251.00,0.9192
5250.00,0.9048
5249.00,0.8904
5248.00,0.8760
5247.00,0.8617
5246.00,0.8476
5245.00,0.8338
5244.00,0.8203
5243.00,0.8072
5242.00,0.7946
5241.00,0.7825
5240.00,0.7711
5239.00,0.7605
5238.00,0.7506
5237.00,0.7414
5236.00,0.7329
5235.00,0.7251
5234.00,0.7180
5233.00,0.7117
5232.00,0.7062
5231.00,0.7016
5230.00,0.6979
5229.00,0.6953
5228.00,0.6936
5227.00,0.6929
5226.00,0.6931
5225.00,0.6943
5224.00,0.6966
5223.00,0.6997
5222.00,0.7038
5221.00,0.7088
5220.00,0.7146
5219.00,0.7214
5218.00,0.7289
5217.00,0.7372
5216.00,0.7459
5215.00,0.7552
5214.00,0.7651
5213.00,0.7756
5212.00,0.7866
5211.00,0.7981
5210.00,0.8100
5209.00,0.8224
5208.00,0.8352
5207.00,0.8485
5206.00,0.8622
5205.00,0.8763
5204.00,0.8906
5203.00,0.9049
5202.00,0.9191
5201.00,0.9333
5200.00,0.9474
5199.00,0.9616
5198.00,0.9757
5197.00,0.9897
5196.00,1.0036
5195.00,1.0172
5194.00,1.0306
5193.00,1.0437
5192.00,1.0565
5191.00,1.0691
5190.00,1.0818
5189.00,1.0942
5188.00,1.1064
5187.00,1.1183
5186.00,1.1300
5185.00,1.1416
5184.00,1.1529
5183.00,1.1641
5182.00,1.1749
5181.00,1.1853
5180.00,1.1953
5179.00,1.2049
5178.00,1.2143
5177.00,1.2235
5176.00,1.2324
5175.00,1.2409
5174.00,1.2490
5173.00,1.2567
5172.00,1.2639
5171.00,1.2706
5170.00,1.2768
5169.00,1.2826
5168.00,1.2881
5167.00,1.2932
5166.00,1.2980
5165.00,1.3024
5164.00,1.3064
5163.00,1.3101
5162.00,1.3135
5161.00,1.3165
5160.00,1.3191
5159.00,1.3209
5158.00,1.3221
5157.00,1.3228
5156.00,1.3232
5155.00,1.3233
5154.00,1.3233
5153.00,1.3230
5152.00,1.3223
5151.00,1.3209
5150.00,1.3191
5149.00,1.3168
5148.00,1.3143
5147.00,1.3116
5146.00,1.3086
5145.00,1.3053
5144.00,1.3013
5143.00,1.2966
5142.00,1.2912
5141.00,1.2853
5140.00,1.2789
5139.00,1.2723
5138.00,1.2656
5137.00,1.2588
5136.00,1.2517
5135.00,1.2442
5134.00,1.2362
5133.00,1.2275
5132.00,1.2183
5131.00,1.2086
5130.00,1.1985
5129.00,1.1879
5128.00,1.1769
5127.00,1.1654
5126.00,1.1536
5125.00,1.1414
5124.00,1.1289
5123.00,1.1160
5122.00,1.1027
5121.00,1.0889
5120.00,1.0747
5119.00,1.0602
5118.00,1.0453
5117.00,1.0302
5116.00,1.0149
5115.00,0.9994
5114.00,0.9838
5113.00,0.9681
5112.00,0.9521
5111.00,0.9361
5110.00,0.9201
5109.00,0.9043
5108.00,0.8886
5107.00,0.8731
5106.00,0.8578
5105.00,0.8428
5104.00,0.8281
5103.00,0.8137
5102.00,0.7999
5101.00,0.7867
5100.00,0.7742
5099.00,0.7624
5098.00,0.7513
5097.00,0.7408
5096.00,0.7312
5095.00,0.7223
5094.00,0.7143
5093.00,0.7071
5092.00,0.7009
5091.00,0.6956
5090.00,0.6913
5089.00,0.6880
5088.00,0.6857
5087.00,0.6844
5086.00,0.6842
5085.00,0.6849
5084.00,0.6867
5083.00,0.6894
5082.00,0.6931
5081.00,0.6978
5080.00,0.7035
5079.00,0.7100
5078.00,0.7174
5077.00,0.7257
5076.00,0.7347
5075.00,0.7444
5074.00,0.7547
5073.00,0.7656
5072.00,0.7771
5071.00,0.7892
5070.00,0.8018
5069.00,0.8148
5068.00,0.8281
5067.00,0.8418
5066.00,0.8557
5065.00,0.8698
5064.00,0.8841
5063.00,0.8986
5062.00,0.9132
5061.00,0.9279
5060.00,0.9427
5059.00,0.9576
5058.00,0.9725
5057.00,0.9875
5056.00,1.0024
5055.00,1.0172
5054.00,1.0318
5053.00,1.0463
5052.00,1.0606
5051.00,1.0747
5050.00,1.0886
5049.00,1.1023
5048.00,1.1157
5047.00,1.1288
5046.00,1.1417
5045.00,1.1544
5044.00,1.1667
5043.00,1.1785
5042.00,1.1900
5041.00,1.2011
5040.00,1.2121
5039.00,1.2228
5038.00,1.2332
5037.00,1.2434
5036.00,1.2531
5035.00,1.2623
5034.00,1.2711
5033.00,1.2796
5032.00,1.2876
5031.00,1.2953
5030.00,1.3027
5029.00,1.3095
5028.00,1.3158
5027.00,1.3216
5026.00,1.3268
5025.00,1.3316
5024.00,1.3361
5023.00,1.3402
5022.00,1.3439
5021.00,1.3474
5020.00,1.3505
5019.00,1.3532
5018.00,1.3554
5017.00,1.3573
5016.00,1.3588
5015.00,1.3599
5014.00,1.3605
5013.00,1.3607
5012.00,1.3604
5011.00,1.3596
5010.00,1.3585
5009.00,1.3569
5008.00,1.3547
5007.00,1.3521
5006.00,1.3490
5005.00,1.3454
5004.00,1.3415
5003.00,1.3375
5002.00,1.3333
5001.00,1.3289
5000.00,1.3242
4999.00,1.3189
4998.00,1.3132
4997.00,1.3071
4996.00,1.3004
4995.00,1.2930
4994.00,1.2850
4993.00,1.2765
4992.00,1.2676
4991.00,1.2584
4990.00,1.2489
4989.00,1.2391
4988.00,1.2288
4987.00,1.2179
4986.00,1.2064
4985.00,1.1942
4984.00,1.1817
4983.00,1.1689
4982.00,1.1559
4981.00,1.1424
4980.00,1.1286
4979.00,1.1143
4978.00,1.0994
4977.00,1.0841
4976.00,1.0684
4975.00,1.0525
4974.00,1.0365
4973.00,1.0204
4972.00,1.0041
4971.00,0.9877
4970.00,0.9711
4969.00,0.9544
4968.00,0.9376
4967.00,0.9209
4966.00,0.9044
4965.00,0.8882
4964.00,0.8722
4963.00,0.8565
4962.00,0.8412
4961.00,0.8263
4960.00,0.8119
4959.00,0.7981
4958.00,0.7849
4957.00,0.7724
4956.00,0.7608
4955.00,0.7500
4954.00,0.7401
4953.00,0.7311
4952.00,0.7231
4951.00,0.7160
4950.00,0.7099
4949.00,0.7049
4948.00,0.7009
4947.00,0.6981
4946.00,0.6963
4945.00,0.6957
4944.00,0.6962
4943.00,0.6979
4942.00,0.7006
4941.00,0.7044
4940.00,0.7093
4939.00,0.7152
4938.00,0.7221
4937.00,0.7298
4936.00,0.7384
4935.00,0.7478
4934.00,0.7580
4933.00,0.7689
4932.00,0.7805
4931.00,0.7927
4930.00,0.8055
4929.00,0.8187
4928.00,0.8324
4927.00,0.8465
4926.00,0.8609
4925.00,0.8758
4924.00,0.8909
4923.00,0.9062
4922.00,0.9216
4921.00,0.9370
4920.00,0.9525
4919.00,0.9681
4918.00,0.9838
4917.00,0.9995
4916.00,1.0152
4915.00,1.0308
4914.00,1.0462
4913.00,1.0614
4912.00,1.0765
4911.00,1.0915
4910.00,1.1062
4909.00,1.1205
4908.00,1.1346
4907.00,1.1484
4906.00,1.1620
4905.00,1.1755
4904.00,1.1887
4903.00,1.2015
4902.00,1.2139
4901.00,1.2259
4900.00,1.2376
4899.00,1.2491
4898.00,1.2601
4897.00,1.2707
4896.00,1.2806
4895.00,1.2899
4894.00,1.2988
4893.00,1.3076
4892.00,1.3161
4891.00,1.3241
4890.00,1.3317
4889.00,1.3387
4888.00,1.3452
4887.00,1.3514
4886.00,1.3572
4885.00,1.3625
4884.00,1.3673
4883.00,1.3717
4882.00,1.3758
4881.00,1.3797
4880.00,1.3831
4879.00,1.3860
4878.00,1.3884
4877.00,1.3902
4876.00,1.3916
4875.00,1.3927
4874.00,1.3933
4873.00,1.3935
4872.00,1.3932
4871.00,1.3924
4870.00,1.3913
4869.00,1.3898
4868.00,1.3880
4867.00,1.3860
4866.00,1.3835
4865.00,1.3805
4864.00,1.3770
4863.00,1.3731
4862.00,1.3688
4861.00,1.3641
4860.00,1.3589
4859.00,1.3533
4858.00,1.3471
4857.00,1.3405
4856.00,1.3335
4855.00,1.3262
4854.00,1.3187
4853.00,1.3108
4852.00,1.3023
4851.00,1.2932
4850.00,1.2834
4849.00,1.2731
4848.00,1.2622
4847.00,1.2511
4846.00,1.2396
4845.00,1.2277
4844.00,1.2152
4843.00,1.2022
4842.00,1.1886
4841.00,1.1746
4840.00,1.1602
4839.00,1.1456
4838.00,1.1306
4837.00,1.1154
4836.00,1.0997
4835.00,1.0835
4834.00,1.0670
4833.00,1.0503
4832.00,1.0335
4831.00,1.0166
4830.00,0.9996
4829.00,0.9825
4828.00,0.9652
4827.00,0.9478
4826.00,0.9305
4825.00,0.9133
4824.00,0.8964
4823.00,0.8796
4822.00,0.8632
4821.00,0.8472
4820.00,0.8317
4819.00,0.8167
4818.00,0.8023
4817.00,0.7886
4816.00,0.7756
4815.00,0.7633
4814.00,0.7519
4813.00,0.7414
4812.00,0.7319
4811.00,0.7234
4810.00,0.7160
4809.00,0.7097
4808.00,0.7047
4807.00,0.7008
4806.00,0.6981
4805.00,0.6966
4804.00,0.6963
4803.00,0.6973
4802.00,0.6994
4801.00,0.7027
4800.00,0.7071
4799.00,0.7127
4798.00,0.7194
4797.00,0.7271
4796.00,0.7359
4795.00,0.7455
4794.00,0.7559
4793.00,0.7672
4792.00,0.7792
4791.00,0.7919
4790.00,0.8053
4789.00,0.8193
4788.00,0.8337
4787.00,0.8484
4786.00,0.8636
4785.00,0.8791
4784.00,0.8948
4783.00,0.9108
4782.00,0.9270
4781.00,0.9432
4780.00,0.9596
4779.00,0.9760
4778.00,0.9925
4777.00,1.0090
4776.00,1.0255
4775.00,1.0420
4774.00,1.0583
4773.00,1.0745
4772.00,1.0906
4771.00,1.1065
4770.00,1.1222
4769.00,1.1377
4768.00,1.1529
4767.00,1.1678
4766.00,1.1824
4765.00,1.1966
4764.00,1.2105
4763.00,1.2240
4762.00,1.2371
4761.00,1.2499
4760.00,1.2623
4759.00,1.2745
4758.00,1.2863
4757.00,1.2976
4756.00,1.3084
4755.00,1.3187
4754.00,1.3286
4753.00,1.3379
4752.00,1.3467
4751.00,1.3551
4750.00,1.3631
4749.00,1.3708
4748.00,1.3783
4747.00,1.3855
4746.00,1.3923
4745.00,1.3985
4744.00,1.4040
4743.00,1.4089
4742.00,1.4135
4741.00,1.4178
4740.00,1.4217
4739.00,1.4251
4738.00,1.4280
4737.00,1.4302
4736.00,1.4318
4735.00,1.4331
4734.00,1.4341
4733.00,1.4349
4732.00,1.4353
4731.00,1.4353
4730.00,1.4350
4729.00,1.4343
4728.00,1.4331
4727.00,1.4313
4726.00,1.4290
4725.00,1.4263
4724.00,1.4233
4723.00,1.4199
4722.00,1.4164
4721.00,1.4124
4720.00,1.4079
4719.00,1.4028
4718.00,1.3970
4717.00,1.3907
4716.00,1.3840
4715.00,1.3771
4714.00,1.3699
4713.00,1.3624
4712.00,1.3543
4711.00,1.3457
4710.00,1.3366
4709.00,1.3270
4708.00,1.3169
4707.00,1.3062
4706.00,1.2950
4705.00,1.2833
4704.00,1.2712
4703.00,1.2587
4702.00,1.2457
4701.00,1.2320
4700.00,1.2177
4699.00,1.2028
4698.00,1.1874
4697.00,1.1716
4696.00,1.1555
4695.00,1.1390
4694.00,1.1222
4693.00,1.1050
4692.00,1.0876
4691.00,1.0700
4690.00,1.0520
4689.00,1.0338
4688.00,1.0154
4687.00,0.9967
4686.00,0.9780
4685.00,0.9595
4684.00,0.9411
4683.00,0.9230
4682.00,0.9051
4681.00,0.8876
4680.00,0.8704
4679.00,0.8536
4678.00,0.8374
4677.00,0.8219
4676.00,0.8071
4675.00,0.7931
4674.00,0.7800
4673.00,0.7678
4672.00,0.7566
4671.00,0.7464
4670.00,0.7373
4669.00,0.7294
4668.00,0.7227
4667.00,0.7173
4666.00,0.7131
4665.00,0.7103
4664.00,0.7088
4663.00,0.7086
4662.00,0.7099
4661.00,0.7125
4660.00,0.7163
4659.00,0.7214
4658.00,0.7277
4657.00,0.7351
4656.00,0.7436
4655.00,0.7532
4654.00,0.7637
4653.00,0.7751
4652.00,0.7873
4651.00,0.8004
4650.00,0.8141
4649.00,0.8285
4648.00,0.8434
4647.00,0.8588
4646.00,0.8746
4645.00,0.8909
4644.00,0.9073
4643.00,0.9241
4642.00,0.9411
4641.00,0.9582
4640.00,0.9756
4639.00,0.9930
4638.00,1.0103
4637.00,1.0277
4636.00,1.0449
4635.00,1.0621
4634.00,1.0793
4633.00,1.0965
4632.00,1.1136
4631.00,1.1303
4630.00,1.1468
4629.00,1.1630
4628.00,1.1789
4627.00,1.1945
4626.00,1.2099
4625.00,1.2249
4624.00,1.2396
4623.00,1.2539
4622.00,1.2677
4621.00,1.2810
4620.00,1.2938
4619.00,1.3062
4618.00,1.3182
4617.00,1.3301
4616.00,1.3415
4615.00,1.3526
4614.00,1.3631
4613.00,1.3731
4612.00,1.3825
4611.00,1.3914
4610.00,1.4000
4609.00,1.4082
4608.00,1.4160
4607.00,1.4233
4606.00,1.4299
4605.00,1.4359
4604.00,1.4412
4603.00,1.4461
4602.00,1.4508
4601.00,1.4552
4600.00,1.4592
4599.00,1.4629
4598.00,1.4661
4597.00,1.4688
4596.00,1.4710
4595.00,1.4728
4594.00,1.4741
4593.00,1.4749
4592.00,1.4755
4591.00,1.4758
4590.00,1.4760
4589.00,1.4761
4588.00,1.4757
4587.00,1.4747
4586.00,1.4730
4585.00,1.4706
4584.00,1.4676
4583.00,1.4642
4582.00,1.4605
4581.00,1.4565
4580.00,1.4523
4579.00,1.4476
4578.00,1.4423
4577.00,1.4362
4576.00,1.4294
4575.00,1.4221
4574.00,1.4145
4573.00,1.4066
4572.00,1.3983
4571.00,1.3895
4570.00,1.3801
4569.00,1.3702
4568.00,1.3598
4567.00,1.3491
4566.00,1.3380
4565.00,1.3262
4564.00,1.3138
4563.00,1.3008
4562.00,1.2873
4561.00,1.2732
4560.00,1.2586
4559.00,1.2435
4558.00,1.2279
4557.00,1.2119
4556.00,1.1956
4555.00,1.1789
4554.00,1.1618
4553.00,1.1442
4552.00,1.1263
4551.00,1.1080
4550.00,1.0894
4549.00,1.0707
4548.00,1.0517
4547.00,1.0325
4546.00,1.0133
4545.00,0.9941
4544.00,0.9750
4543.00,0.9559
4542.00,0.9369
4541.00,0.9182
4540.00,0.8998
4539.00,0.8819
4538.00,0.8645
4537.00,0.8479
4536.00,0.8319
4535.00,0.8168
4534.00,0.8026
4533.00,0.7894
4532.00,0.7772
4531.00,0.7661
4530.00,0.7562
4529.00,0.7475
4528.00,0.7400
4527.00,0.7340
4526.00,0.7293
4525.00,0.7261
4524.00,0.7243
4523.00,0.7240
4522.00,0.7252
4521.00,0.7278
4520.00,0.7319
4519.00,0.7373
4518.00,0.7441
4517.00,0.7521
4516.00,0.7613
4515.00,0.7717
4514.00,0.7831
4513.00,0.7956
4512.00,0.8089
4511.00,0.8231
4510.00,0.8381
4509.00,0.8536
4508.00,0.8697
4507.00,0.8862
4506.00,0.9032
4505.00,0.9205
4504.00,0.9381
4503.00,0.9560
4502.00,0.9742
4501.00,0.9924
4500.00,1.0108
4499.00,1.0293
4498.00,1.0479
4497.00,1.0665
4496.00,1.0850
4495.00,1.1034
4494.00,1.1216
4493.00,1.1395
4492.00,1.1571
4491.00,1.1745
4490.00,1.1918
4489.00,1.2088
4488.00,1.2254
4487.00,1.2415
4486.00,1.2571
4485.00,1.2720
4484.00,1.2864
4483.00,1.3003
4482.00,1.3138
4481.00,1.3270
4480.00,1.3399
4479.00,1.3524
4478.00,1.3646
4477.00,1.3764
4476.00,1.3876
4475.00,1.3984
4474.00,1.4088
4473.00,1.4188
4472.00,1.4284
4471.00,1.4378
4470.00,1.4468
4469.00,1.4554
4468.00,1.4634
4467.00,1.4711
4466.00,1.4785
4465.00,1.4855
4464.00,1.4918
4463.00,1.4976
4462.00,1.5027
4461.00,1.5074
4460.00,1.5116
4459.00,1.5155
4458.00,1.5191
4457.00,1.5224
4456.00,1.5254
4455.00,1.5279
4454.00,1.5300
4453.00,1.5317
4452.00,1.5331
4451.00,1.5343
4450.00,1.5350
4449.00,1.5353
4448.00,1.5349
4447.00,1.5342
4446.00,1.5332
4445.00,1.5319
4444.00,1.5303
4443.00,1.5284
4442.00,1.5262
4441.00,1.5238
4440.00,1.5211
4439.00,1.5181
4438.00,1.5147
4437.00,1.5106
4436.00,1.5059
4435.00,1.5003
4434.00,1.4941
4433.00,1.4873
4432.00,1.4799
4431.00,1.4719
4430.00,1.4634
4429.00,1.4544
4428.00,1.4446
4427.00,1.4343
4426.00,1.4234
4425.00,1.4121
4424.00,1.4002
4423.00,1.3879
4422.00,1.3750
4421.00,1.3616
4420.00,1.3476
4419.00,1.3331
4418.00,1.3180
4417.00,1.3024
4416.00,1.2863
4415.00,1.2697
4414.00,1.2527
4413.00,1.2353
4412.00,1.2177
4411.00,1.2000
4410.00,1.1822
4409.00,1.1643
4408.00,1.1464
4407.00,1.1284
4406.00,1.1105
4405.00,1.0929
4404.00,1.0757
4403.00,1.0591
4402.00,1.0430
4401.00,1.0274
4400.00,1.0123
4399.00,0.9974
4398.00,0.9828
4397.00,0.9683
4396.00,0.9540
4395.00,0.9399
4394.00,0.9263
4393.00,0.9131
4392.00,0.9005
4391.00,0.8885
4390.00,0.8772
4389.00,0.8669
4388.00,0.8577
4387.00,0.8497
4386.00,0.8431
4385.00,0.8380
4384.00,0.8345
4383.00,0.8324
4382.00,0.8320
4381.00,0.8330
4380.00,0.8356
4379.00,0.8397
4378.00,0.8452
4377.00,0.8521
4376.00,0.8603
4375.00,0.8697
4374.00,0.8801
4373.00,0.8912
4372.00,0.9031
4371.00,0.9154
4370.00,0.9281
4369.00,0.9411
4368.00,0.9542
4367.00,0.9673
4366.00,0.9804
4365.00,0.9934
4364.00,1.0062
4363.00,1.0188
4362.00,1.0314
4361.00,1.0440
4360.00,1.0566
4359.00,1.0695
4358.00,1.0825
4357.00,1.0958
4356.00,1.1094
4355.00,1.1232
4354.00,1.1373
4353.00,1.1517
4352.00,1.1665
4351.00,1.1815
4350.00,1.1968
4349.00,1.2123
4348.00,1.2279
4347.00,1.2433
4346.00,1.2587
4345.00,1.2739
4344.00,1.2890
4343.00,1.3041
4342.00,1.3191
4341.00,1.3339
4340.00,1.3485
4339.00,1.3628
4338.00,1.3768
4337.00,1.3904
4336.00,1.4036
4335.00,1.4164
4334.00,1.4289
4333.00,1.4410
4332.00,1.4526
4331.00,1.4634
4330.00,1.4736
4329.00,1.4833
4328.00,1.4926
4327.00,1.5015
4326.00,1.5098
4325.00,1.5175
4324.00,1.5248
4323.00,1.5320
4322.00,1.5388
4321.00,1.5452
4320.00,1.5510
4319.00,1.5562
4318.00,1.5608
4317.00,1.5646
4316.00,1.5677
4315.00,1.5702
4314.00,1.5725
4313.00,1.5746
4312.00,1.5766
4311.00,1.5783
4310.00,1.5794
4309.00,1.5801
4308.00,1.5802
4307.00,1.5799
4306.00,1.5792
4305.00,1.5781
4304.00,1.5767
4303.00,1.5750
4302.00,1.5729
4301.00,1.5703
4300.00,1.5671
4299.00,1.5633
4298.00,1.5590
4297.00,1.5543
4296.00,1.5493
4295.00,1.5438
4294.00,1.5378
4293.00,1.5313
4292.00,1.5244
4291.00,1.5171
4290.00,1.5094
4289.00,1.5012
4288.00,1.4926
4287.00,1.4835
4286.00,1.4737
4285.00,1.4634
4284.00,1.4524
4283.00,1.4408
4282.00,1.4288
4281.00,1.4162
4280.00,1.4031
4279.00,1.3894
4278.00,1.3751
4277.00,1.3602
4276.00,1.3448
4275.00,1.3288
4274.00,1.3122
4273.00,1.2950
4272.00,1.2772
4271.00,1.2588
4270.00,1.2397
4269.00,1.2200
4268.00,1.1999
4267.00,1.1794
4266.00,1.1585
4265.00,1.1371
4264.00,1.1154
4263.00,1.0935
4262.00,1.0714
4261.00,1.0491
4260.00,1.0267
4259.00,1.0043
4258.00,0.9822
4257.00,0.9604
4256.00,0.9391
4255.00,0.9183
4254.00,0.8983
4253.00,0.8791
4252.00,0.8607
4251.00,0.8433
4250.00,0.8270
4249.00,0.8119
4248.00,0.7980
4247.00,0.7856
4246.00,0.7747
4245.00,0.7653
4244.00,0.7576
4243.00,0.7515
4242.00,0.7472
4241.00,0.7445
4240.00,0.7435
4239.00,0.7443
4238.00,0.7468
4237.00,0.7511
4236.00,0.7570
4235.00,0.7645
4234.00,0.7735
4233.00,0.7839
4232.00,0.7956
4231.00,0.8086
4230.00,0.8226
4229.00,0.8377
4228.00,0.8537
4227.00,0.8705
4226.00,0.8881
4225.00,0.9063
4224.00,0.9251
4223.00,0.9444
4222.00,0.9640
4221.00,0.9839
4220.00,1.0040
4219.00,1.0244
4218.00,1.0448
4217.00,1.0655
4216.00,1.0861
4215.00,1.1068
4214.00,1.1274
4213.00,1.1479
4212.00,1.1680
4211.00,1.1880
4210.00,1.2077
4209.00,1.2272
4208.00,1.2466
4207.00,1.2658
4206.00,1.2845
4205.00,1.3028
4204.00,1.3206
4203.00,1.3380
4202.00,1.3551
4201.00,1.3719
4200.00,1.3880
4199.00,1.4037
4198.00,1.4188
4197.00,1.4333
4196.00,1.4473
4195.00,1.4607
4194.00,1.4735
4193.00,1.4860
4192.00,1.4981
4191.00,1.5097
4190.00,1.5206
4189.00,1.5307
4188.00,1.5401
4187.00,1.5490
4186.00,1.5572
4185.00,1.5649
4184.00,1.5723
4183.00,1.5794
4182.00,1.5862
4181.00,1.5926
4180.00,1.5983
4179.00,1.6035
4178.00,1.6082
4177.00,1.6125
4176.00,1.6164
4175.00,1.6198
4174.00,1.6229
4173.00,1.6258
4172.00,1.6285
4171.00,1.6305
4170.00,1.6319
4169.00,1.6326
4168.00,1.6328
4167.00,1.6326
4166.00,1.6321
4165.00,1.6310
4164.00,1.6295
4163.00,1.6276
4162.00,1.6256
4161.00,1.6233
4160.00,1.6206
4159.00,1.6171
4158.00,1.6129
4157.00,1.6081
4156.00,1.6030
4155.00,1.5977
4154.00,1.5923
4153.00,1.5863
4152.00,1.5798
4151.00,1.5725
4150.00,1.5645
4149.00,1.5560
4148.00,1.5473
4147.00,1.5383
4146.00,1.5287
4145.00,1.5185
4144.00,1.5076
4143.00,1.4961
4142.00,1.4840
4141.00,1.4715
4140.00,1.4584
4139.00,1.4447
4138.00,1.4303
4137.00,1.4153
4136.00,1.3996
4135.00,1.3833
4134.00,1.3663
4133.00,1.3487
4132.00,1.3305
4131.00,1.3117
4130.00,1.2924
4129.00,1.2724
4128.00,1.2517
4127.00,1.2305
4126.00,1.2087
4125.00,1.1867
4124.00,1.1643
4123.00,1.1415
4122.00,1.1184
4121.00,1.0951
4120.00,1.0716
4119.00,1.0482
4118.00,1.0249
4117.00,1.0018
4116.00,0.9792
4115.00,0.9572
4114.00,0.9359
4113.00,0.9154
4112.00,0.8957
4111.00,0.8771
4110.00,0.8597
4109.00,0.8435
4108.00,0.8287
4107.00,0.8154
4106.00,0.8037
4105.00,0.7935
4104.00,0.7851
4103.00,0.7785
4102.00,0.7737
4101.00,0.7707
4100.00,0.7695
4099.00,0.7701
4098.00,0.7726
4097.00,0.7770
4096.00,0.7832
4095.00,0.7912
4094.00,0.8008
4093.00,0.8119
4092.00,0.8245
4091.00,0.8385
4090.00,0.8537
4089.00,0.8700
4088.00,0.8874
4087.00,0.9057
4086.00,0.9247
4085.00,0.9442
4084.00,0.9643
4083.00,0.9848
4082.00,1.0057
4081.00,1.0270
4080.00,1.0486
4079.00,1.0704
4078.00,1.0922
4077.00,1.1139
4076.00,1.1355
4075.00,1.1570
4074.00,1.1784
4073.00,1.1997
4072.00,1.2209
4071.00,1.2420
4070.00,1.2627
4069.00,1.2832
4068.00,1.3031
4067.00,1.3225
4066.00,1.3416
4065.00,1.3603
4064.00,1.3786
4063.00,1.3965
4062.00,1.4139
4061.00,1.4310
4060.00,1.4476
4059.00,1.4638
4058.00,1.4793
4057.00,1.4941
4056.00,1.5083
4055.00,1.5219
4054.00,1.5349
4053.00,1.5473
4052.00,1.5591
4051.00,1.5704
4050.00,1.5813
4049.00,1.5918
4048.00,1.6018
4047.00,1.6113
4046.00,1.6202
4045.00,1.6288
4044.00,1.6369
4043.00,1.6444
4042.00,1.6511
4041.00,1.6570
4040.00,1.6623
4039.00,1.6673
4038.00,1.6721
4037.00,1.6767
4036.00,1.6809
4035.00,1.6847
4034.00,1.6883
4033.00,1.6915
4032.00,1.6944
4031.00,1.6966
4030.00,1.6981
4029.00,1.6989
4028.00,1.6992
4027.00,1.6991
4026.00,1.6988
4025.00,1.6980
4024.00,1.6968
4023.00,1.6952
4022.00,1.6931
4021.00,1.6905
4020.00,1.6874
4019.00,1.6838
4018.00,1.6797
4017.00,1.6752
4016.00,1.6703
4015.00,1.6651
4014.00,1.6595
4013.00,1.6534
4012.00,1.6466
4011.00,1.6393
4010.00,1.6317
4009.00,1.6238
4008.00,1.6154
4007.00,1.6065
4006.00,1.5969
4005.00,1.5867
4004.00,1.5760
4003.00,1.5645
4002.00,1.5523
4001.00,1.5395
4000.00,1.5261
3999.00,1.5123
3998.00,1.4980
3997.00,1.4830
3996.00,1.4673
3995.00,1.4508
3994.00,1.4336
3993.00,1.4159
3992.00,1.3975
3991.00,1.3784
3990.00,1.3587
3989.00,1.3385
3988.00,1.3179
3987.00,1.2968
3986.00,1.2753
3985.00,1.2535
3984.00,1.2315
3983.00,1.2092
3982.00,1.1867
3981.00,1.1642
3980.00,1.1419
3979.00,1.1198
3978.00,1.0979
3977.00,1.0763
3976.00,1.0549
3975.00,1.0337
3974.00,1.0127
3973.00,0.9920
3972.00,0.9717
3971.00,0.9518
3970.00,0.9324
3969.00,0.9137
3968.00,0.8957
3967.00,0.8788
3966.00,0.8630
3965.00,0.8488
3964.00,0.8361
3963.00,0.8251
3962.00,0.8160
3961.00,0.8088
3960.00,0.8035
3959.00,0.8003
3958.00,0.7992
3957.00,0.8002
3956.00,0.8033
3955.00,0.8085
3954.00,0.8157
3953.00,0.8248
3952.00,0.8356
3951.00,0.8481
3950.00,0.8621
3949.00,0.8776
3948.00,0.8944
3947.00,0.9124
3946.00,0.9311
3945.00,0.9506
3944.00,0.9708
3943.00,0.9918
3942.00,1.0136
3941.00,1.0360
3940.00,1.0586
3939.00,1.0812
3938.00,1.1039
3937.00,1.1266
3936.00,1.1491
3935.00,1.1716
3934.00,1.1941
3933.00,1.2169
3932.00,1.2400
3931.00,1.2632
3930.00,1.2861
3929.00,1.3084
3928.00,1.3300
3927.00,1.3510
3926.00,1.3715
3925.00,1.3917
3924.00,1.4118
3923.00,1.4313
3922.00,1.4502
3921.00,1.4682
3920.00,1.4854
3919.00,1.5021
3918.00,1.5186
3917.00,1.5348
3916.00,1.5508
3915.00,1.5662
3914.00,1.5806
3913.00,1.5940
3912.00,1.6067
3911.00,1.6188
3910.00,1.6303
3909.00,1.6413
3908.00,1.6515
3907.00,1.6610
3906.00,1.6699
3905.00,1.6783
3904.00,1.6864
3903.00,1.6943
3902.00,1.7017
3901.00,1.7087
3900.00,1.7155
3899.00,1.7220
3898.00,1.7282
3897.00,1.7337
3896.00,1.7381
3895.00,1.7417
3894.00,1.7448
3893.00,1.7477
3892.00,1.7505
3891.00,1.7528
3890.00,1.7546
3889.00,1.7555
3888.00,1.7559
3887.00,1.7560
3886.00,1.7559
3885.00,1.7554
3884.00,1.7544
3883.00,1.7528
3882.00,1.7511
3881.00,1.7492
3880.00,1.7469
3879.00,1.7441
3878.00,1.7406
3877.00,1.7366
3876.00,1.7324
3875.00,1.7278
3874.00,1.7228
3873.00,1.7174
3872.00,1.7113
3871.00,1.7042
3870.00,1.6961
3869.00,1.6875
3868.00,1.6788
3867.00,1.6700
3866.00,1.6609
3865.00,1.6512
3864.00,1.6408
3863.00,1.6293
3862.00,1.6172
3861.00,1.6046
3860.00,1.5918
3859.00,1.5789
3858.00,1.5659
3857.00,1.5528
3856.00,1.5389
3855.00,1.5229
3854.00,1.5037
3853.00,1.4815
3852.00,1.4586
3851.00,1.4369
3850.00,1.4165
3849.00,1.3965
3848.00,1.3763
3847.00,1.3553
3846.00,1.3332
3845.00,1.3098
3844.00,1.2852
3843.00,1.2597
3842.00,1.2339
3841.00,1.2081
3840.00,1.1820
3839.00,1.1547
3838.00,1.1260
3837.00,1.0964
3836.00,1.0670
3835.00,1.0391
3834.00,1.0127
3833.00,0.9873
3832.00,0.9626
3831.00,0.9387
3830.00,0.9160
3829.00,0.8948
3828.00,0.8752
3827.00,0.8572
3826.00,0.8409
3825.00,0.8267
3824.00,0.8150
3823.00,0.8056
3822.00,0.7981
3821.00,0.7922
3820.00,0.7881
3819.00,0.7863
3818.00,0.7872
3817.00,0.7914
3816.00,0.7988
3815.00,0.8083
3814.00,0.8190
3813.00,0.8308
3812.00,0.8443
3811.00,0.8599
3810.00,0.8769
3809.00,0.8952
3808.00,0.9154
3807.00,0.9380
3806.00,0.9621
3805.00,0.9857
3804.00,1.0078
3803.00,1.0297
3802.00,1.0538
3801.00,1.0811
3800.00,1.1097
3799.00,1.1372
3798.00,1.1627
3797.00,1.1873
3796.00,1.2123
3795.00,1.2377
3794.00,1.2626
3793.00,1.2869
3792.00,1.3108
3791.00,1.3342
3790.00,1.3574
3789.00,1.3802
3788.00,1.4026
3787.00,1.4247
3786.00,1.4463
3785.00,1.4676
3784.00,1.4886
3783.00,1.5089
3782.00,1.5283
3781.00,1.5469
3780.00,1.5649
3779.00,1.5825
3778.00,1.5996
3777.00,1.6161
3776.00,1.6318
3775.00,1.6466
3774.00,1.6606
3773.00,1.6736
3772.00,1.6857
3771.00,1.6971
3770.00,1.7084
3769.00,1.7197
3768.00,1.7307
3767.00,1.7412
3766.00,1.7509
3765.00,1.7598
3764.00,1.7677
3763.00,1.7746
3762.00,1.7808
3761.00,1.7866
3760.00,1.7922
3759.00,1.7974
3758.00,1.8023
3757.00,1.8070
3756.00,1.8113
3755.00,1.8150
3754.00,1.8180
3753.00,1.8204
3752.00,1.8226
3751.00,1.8243
3750.00,1.8255
3749.00,1.8263
3748.00,1.8267
3747.00,1.8266
3746.00,1.8260
3745.00,1.8253
3744.00,1.8242
3743.00,1.8225
3742.00,1.8202
3741.00,1.8172
3740.00,1.8138
3739.00,1.8099
3738.00,1.8053
3737.00,1.8001
3736.00,1.7943
3735.00,1.7882
3734.00,1.7819
3733.00,1.7750
3732.00,1.7673
3731.00,1.7592
3730.00,1.7509
3729.00,1.7422
3728.00,1.7326
3727.00,1.7223
3726.00,1.7112
3725.00,1.6997
3724.00,1.6875
3723.00,1.6748
3722.00,1.6613
3721.00,1.6469
3720.00,1.6315
3719.00,1.6152
3718.00,1.5983
3717.00,1.5811
3716.00,1.5634
3715.00,1.5452
3714.00,1.5261
3713.00,1.5056
3712.00,1.4832
3711.00,1.4593
3710.00,1.4347
3709.00,1.4100
3708.00,1.3852
3707.00,1.3604
3706.00,1.3354
3705.00,1.3100
3704.00,1.2837
3703.00,1.2565
3702.00,1.2284
3701.00,1.2000
3700.00,1.1721
3699.00,1.1453
3698.00,1.1194
3697.00,1.0944
3696.00,1.0704
3695.00,1.0479
3694.00,1.0270
3693.00,1.0081
3692.00,0.9911
3691.00,0.9761
3690.00,0.9629
3689.00,0.9513
3688.00,0.9415
3687.00,0.9341
3686.00,0.9296
3685.00,0.9282
3684.00,0.9300
3683.00,0.9346
3682.00,0.9418
3681.00,0.9511
3680.00,0.9625
3679.00,0.9756
3678.00,0.9903
3677.00,1.0070
3676.00,1.0265
3675.00,1.0483
3674.00,1.0705
3673.00,1.0913
3672.00,1.1115
3671.00,1.1331
3670.00,1.1573
3669.00,1.1831
3668.00,1.2084
3667.00,1.2325
3666.00,1.2556
3665.00,1.2782
3664.00,1.3008
3663.00,1.3235
3662.00,1.3461
3661.00,1.3685
3660.00,1.3904
3659.00,1.4117
3658.00,1.4326
3657.00,1.4536
3656.00,1.4751
3655.00,1.4965
3654.00,1.5167
3653.00,1.5348
3652.00,1.5516
3651.00,1.5682
3650.00,1.5855
3649.00,1.6036
3648.00,1.6225
3647.00,1.6413
3646.00,1.6590
3645.00,1.6749
3644.00,1.6893
3643.00,1.7028
3642.00,1.7160
3641.00,1.7291
3640.00,1.7423
3639.00,1.7551
3638.00,1.7674
3637.00,1.7789
3636.00,1.7898
3635.00,1.8005
3634.00,1.8108
3633.00,1.8206
3632.00,1.8298
3631.00,1.8386
3630.00,1.8472
3629.00,1.8562
3628.00,1.8655
3627.00,1.8747
3626.00,1.8832
3625.00,1.8907
3624.00,1.8974
3623.00,1.9034
3622.00,1.9085
3621.00,1.9131
3620.00,1.9178
3619.00,1.9226
3618.00,1.9272
3617.00,1.9310
3616.00,1.9341
3615.00,1.9368
3614.00,1.9391
3613.00,1.9409
3612.00,1.9426
3611.00,1.9442
3610.00,1.9458
3609.00,1.9470
3608.00,1.9478
3607.00,1.9481
3606.00,1.9477
3605.00,1.9469
3604.00,1.9462
3603.00,1.9453
3602.00,1.9441
3601.00,1.9423
3600.00,1.9396
3599.00,1.9364
3598.00,1.9326
3597.00,1.9287
3596.00,1.9248
3595.00,1.9208
3594.00,1.9166
3593.00,1.9120
3592.00,1.9071
3591.00,1.9019
3590.00,1.8962
3589.00,1.8895
3588.00,1.8819
3587.00,1.8732
3586.00,1.8639
3585.00,1.8544
3584.00,1.8451
3583.00,1.8359
3582.00,1.8265
3581.00,1.8164
3580.00,1.8056
3579.00,1.7939
3578.00,1.7817
3577.00,1.7689
3576.00,1.7558
3575.00,1.7423
3574.00,1.7281
3573.00,1.7134
3572.00,1.6985
3571.00,1.6834
3570.00,1.6678
3569.00,1.6512
3568.00,1.6337
3567.00,1.6156
3566.00,1.5972
3565.00,1.5788
3564.00,1.5604
3563.00,1.5420
3562.00,1.5235
3561.00,1.5050
3560.00,1.4863
3559.00,1.4676
3558.00,1.4487
3557.00,1.4299
3556.00,1.4115
3555.00,1.3936
3554.00,1.3761
3553.00,1.3591
3552.00,1.3425
3551.00,1.3265
3550.00,1.3113
3549.00,1.2969
3548.00,1.2835
3547.00,1.2709
3546.00,1.2590
3545.00,1.2477
3544.00,1.2372
3543.00,1.2276
3542.00,1.2191
3541.00,1.2117
3540.00,1.2053
3539.00,1.2001
3538.00,1.1959
3537.00,1.1928
3536.00,1.1907
3535.00,1.1898
3534.00,1.1901
3533.00,1.1915
3532.00,1.1942
3531.00,1.1980
3530.00,1.2030
3529.00,1.2092
3528.00,1.2166
3527.00,1.2252
3526.00,1.2349
3525.00,1.2456
3524.00,1.2574
3523.00,1.2703
3522.00,1.2842
3521.00,1.2989
3520.00,1.3142
3519.00,1.3303
3518.00,1.3470
3517.00,1.3645
3516.00,1.3824
3515.00,1.4008
3514.00,1.4194
3513.00,1.4381
3512.00,1.4571
3511.00,1.4764
3510.00,1.4961
3509.00,1.5160
3508.00,1.5359
3507.00,1.5556
3506.00,1.5748
3505.00,1.5937
3504.00,1.6124
3503.00,1.6310
3502.00,1.6495
3501.00,1.6679
3500.00,1.6861
3499.00,1.7038
3498.00,1.7205
3497.00,1.7364
3496.00,1.7515
3495.00,1.7663
3494.00,1.7809
3493.00,1.7953
3492.00,1.8092
3491.00,1.8224
3490.00,1.8350
3489.00,1.8472
3488.00,1.8592
3487.00,1.8709
3486.00,1.8820
3485.00,1.8925
3484.00,1.9022
3483.00,1.9111
3482.00,1.9191
3481.00,1.9267
3480.00,1.9341
3479.00,1.9413
3478.00,1.9480
3477.00,1.9543
3476.00,1.9602
3475.00,1.9656
3474.00,1.9705
3473.00,1.9746
3472.00,1.9783
3471.00,1.9817
3470.00,1.9850
3469.00,1.9883
3468.00,1.9911
3467.00,1.9933
3466.00,1.9944
3465.00,1.9950
3464.00,1.9954
3463.00,1.9957
3462.00,1.9956
3461.00,1.9948
3460.00,1.9934
3459.00,1.9912
3458.00,1.9885
3457.00,1.9857
3456.00,1.9829
3455.00,1.9799
3454.00,1.9762
3453.00,1.9719
3452.00,1.9672
3451.00,1.9622
3450.00,1.9569
3449.00,1.9513
3448.00,1.9453
3447.00,1.9387
3446.00,1.9314
3445.00,1.9233
3444.00,1.9147
3443.00,1.9057
3442.00,1.8960
3441.00,1.8858
3440.00,1.8751
3439.00,1.8639
3438.00,1.8523
3437.00,1.8401
3436.00,1.8274
3435.00,1.8141
3434.00,1.8000
3433.00,1.7851
3432.00,1.7693
3431.00,1.7528
3430.00,1.7356
3429.00,1.7177
3428.00,1.6992
3427.00,1.6801
3426.00,1.6604
3425.00,1.6398
3424.00,1.6186
3423.00,1.5965
3422.00,1.5736
3421.00,1.5499
3420.00,1.5258
3419.00,1.5012
3418.00,1.4762
3417.00,1.4508
3416.00,1.4252
3415.00,1.3993
3414.00,1.3734
3413.00,1.3476
3412.00,1.3221
3411.00,1.2971
3410.00,1.2728
3409.00,1.2493
3408.00,1.2267
3407.00,1.2052
3406.00,1.1848
3405.00,1.1657
3404.00,1.1479
3403.00,1.1316
3402.00,1.1168
3401.00,1.1035
3400.00,1.0920
3399.00,1.0823
3398.00,1.0746
3397.00,1.0689
3396.00,1.0653
3395.00,1.0640
3394.00,1.0649
3393.00,1.0681
3392.00,1.0737
3391.00,1.0815
3390.00,1.0914
3389.00,1.1033
3388.00,1.1170
3387.00,1.1323
3386.00,1.1491
3385.00,1.1673
3384.00,1.1867
3383.00,1.2073
3382.00,1.2287
3381.00,1.2509
3380.00,1.2738
3379.00,1.2971
3378.00,1.3208
3377.00,1.3448
3376.00,1.3689
3375.00,1.3933
3374.00,1.4178
3373.00,1.4424
3372.00,1.4669
3371.00,1.4914
3370.00,1.5158
3369.00,1.5400
3368.00,1.5640
3367.00,1.5874
3366.00,1.6101
3365.00,1.6323
3364.00,1.6540
3363.00,1.6752
3362.00,1.6958
3361.00,1.7159
3360.00,1.7353
3359.00,1.7542
3358.00,1.7724
3357.00,1.7900
3356.00,1.8069
3355.00,1.8232
3354.00,1.8387
3353.00,1.8539
3352.00,1.8687
3351.00,1.8830
3350.00,1.8966
3349.00,1.9090
3348.00,1.9204
3347.00,1.9311
3346.00,1.9413
3345.00,1.9514
3344.00,1.9613
3343.00,1.9709
3342.00,1.9801
3341.00,1.9886
3340.00,1.9964
3339.00,2.0035
3338.00,2.0095
3337.00,2.0148
3336.00,2.0196
3335.00,2.0243
3334.00,2.0292
3333.00,2.0340
3332.00,2.0386
3331.00,2.0426
3330.00,2.0458
3329.00,2.0482
3328.00,2.0500
3327.00,2.0514
3326.00,2.0528
3325.00,2.0541
3324.00,2.0547
3323.00,2.0543
3322.00,2.0531
3321.00,2.0517
3320.00,2.0503
3319.00,2.0485
3318.00,2.0461
3317.00,2.0434
3316.00,2.0408
3315.00,2.0380
3314.00,2.0348
3313.00,2.0309
3312.00,2.0264
3311.00,2.0213
3310.00,2.0155
3309.00,2.0090
3308.00,2.0020
3307.00,1.9945
3306.00,1.9866
3305.00,1.9782
3304.00,1.9695
3303.00,1.9603
3302.00,1.9505
3301.00,1.9399
3300.00,1.9286
3299.00,1.9167
3298.00,1.9045
3297.00,1.8920
3296.00,1.8793
3295.00,1.8660
3294.00,1.8519
3293.00,1.8370
3292.00,1.8213
3291.00,1.8047
3290.00,1.7873
3289.00,1.7691
3288.00,1.7503
3287.00,1.7310
3286.00,1.7109
3285.00,1.6900
3284.00,1.6683
3283.00,1.6458
3282.00,1.6226
3281.00,1.5987
3280.00,1.5741
3279.00,1.5488
3278.00,1.5229
3277.00,1.4966
3276.00,1.4700
3275.00,1.4430
3274.00,1.4157
3273.00,1.3883
3272.00,1.3611
3271.00,1.3343
3270.00,1.3080
3269.00,1.2825
3268.00,1.2579
3267.00,1.2343
3266.00,1.2120
3265.00,1.1911
3264.00,1.1719
3263.00,1.1546
3262.00,1.1393
3261.00,1.1262
3260.00,1.1152
3259.00,1.1067
3258.00,1.1007
3257.00,1.0972
3256.00,1.0963
3255.00,1.0980
3254.00,1.1023
3253.00,1.1090
3252.00,1.1181
3251.00,1.1295
3250.00,1.1430
3249.00,1.1583
3248.00,1.1754
3247.00,1.1940
3246.00,1.2141
3245.00,1.2355
3244.00,1.2579
3243.00,1.2812
3242.00,1.3053
3241.00,1.3301
3240.00,1.3554
3239.00,1.3811
3238.00,1.4071
3237.00,1.4333
3236.00,1.4597
3235.00,1.4859
3234.00,1.5120
3233.00,1.5378
3232.00,1.5633
3231.00,1.5887
3230.00,1.6137
3229.00,1.6384
3228.00,1.6626
3227.00,1.6864
3226.00,1.7095
3225.00,1.7320
3224.00,1.7540
3223.00,1.7755
3222.00,1.7965
3221.00,1.8168
3220.00,1.8362
3219.00,1.8546
3218.00,1.8722
3217.00,1.8893
3216.00,1.9062
3215.00,1.9223
3214.00,1.9375
3213.00,1.9516
3212.00,1.9650
3211.00,1.9784
3210.00,1.9917
3209.00,2.0049
3208.00,2.0175
3207.00,2.0290
3206.00,2.0391
3205.00,2.0480
3204.00,2.0563
3203.00,2.0639
3202.00,2.0711
3201.00,2.0777
3200.00,2.0839
3199.00,2.0897
3198.00,2.0950
3197.00,2.0998
3196.00,2.1040
3195.00,2.1074
3194.00,2.1105
3193.00,2.1137
3192.00,2.1172
3191.00,2.1205
3190.00,2.1232
3189.00,2.1249
3188.00,2.1260
3187.00,2.1267
3186.00,2.1273
3185.00,2.1279
3184.00,2.1283
3183.00,2.1281
3182.00,2.1274
3181.00,2.1262
3180.00,2.1245
3179.00,2.1221
3178.00,2.1192
3177.00,2.1162
3176.00,2.1133
3175.00,2.1101
3174.00,2.1061
3173.00,2.1015
3172.00,2.0968
3171.00,2.0928
3170.00,2.0895
3169.00,2.0871
3168.00,2.0860
3167.00,2.0865
3166.00,2.0888
3165.00,2.0923
3164.00,2.0954
3163.00,2.0961
3162.00,2.0926
3161.00,2.0846
3160.00,2.0728
3159.00,2.0583
3158.00,2.0422
3157.00,2.0253
3156.00,2.0081
3155.00,1.9910
3154.00,1.9741
3153.00,1.9573
3152.00,1.9401
3151.00,1.9221
3150.00,1.9034
3149.00,1.8843
3148.00,1.8646
3147.00,1.8443
3146.00,1.8232
3145.00,1.8017
3144.00,1.7798
3143.00,1.7576
3142.00,1.7346
3141.00,1.7107
3140.00,1.6860
3139.00,1.6606
3138.00,1.6347
3137.00,1.6084
3136.00,1.5817
3135.00,1.5549
3134.00,1.5280
3133.00,1.5011
3132.00,1.4745
3131.00,1.4482
3130.00,1.4222
3129.00,1.3968
3128.00,1.3725
3127.00,1.3493
3126.00,1.3276
3125.00,1.3074
3124.00,1.2889
3123.00,1.2723
3122.00,1.2580
3121.00,1.2459
3120.00,1.2363
3119.00,1.2292
3118.00,1.2248
3117.00,1.2229
3116.00,1.2237
3115.00,1.2269
3114.00,1.2324
3113.00,1.2402
3112.00,1.2499
3111.00,1.2615
3110.00,1.2749
3109.00,1.2900
3108.00,1.3068
3107.00,1.3252
3106.00,1.3449
3105.00,1.3659
3104.00,1.3881
3103.00,1.4113
3102.00,1.4352
3101.00,1.4598
3100.00,1.4847
3099.00,1.5100
3098.00,1.5352
3097.00,1.5605
3096.00,1.5857
3095.00,1.6109
3094.00,1.6361
3093.00,1.6612
3092.00,1.6860
3091.00,1.7104
3090.00,1.7343
3089.00,1.7577
3088.00,1.7808
3087.00,1.8036
3086.00,1.8257
3085.00,1.8470
3084.00,1.8675
3083.00,1.8873
3082.00,1.9064
3081.00,1.9248
3080.00,1.9427
3079.00,1.9602
3078.00,1.9776
3077.00,1.9944
3076.00,2.0105
3075.00,2.0256
3074.00,2.0398
3073.00,2.0532
3072.00,2.0662
3071.00,2.0791
3070.00,2.0917
3069.00,2.1035
3068.00,2.1143
3067.00,2.1240
3066.00,2.1330
3065.00,2.1417
3064.00,2.1503
3063.00,2.1586
3062.00,2.1665
3061.00,2.1740
3060.00,2.1814
3059.00,2.1884
3058.00,2.1946
3057.00,2.2000
3056.00,2.2048
3055.00,2.2095
3054.00,2.2142
3053.00,2.2185
3052.00,2.2221
3051.00,2.2242
3050.00,2.2249
3049.00,2.2249
3048.00,2.2250
3047.00,2.2259
3046.00,2.2272
3045.00,2.2284
3044.00,2.2292
3043.00,2.2295
3042.00,2.2291
3041.00,2.2276
3040.00,2.2253
3039.00,2.2222
3038.00,2.2186
3037.00,2.2145
3036.00,2.2101
3035.00,2.2056
3034.00,2.2010
3033.00,2.1959
3032.00,2.1905
3031.00,2.1851
3030.00,2.1799
3029.00,2.1747
3028.00,2.1686
3027.00,2.1610
3026.00,2.1521
3025.00,2.1428
3024.00,2.1335
3023.00,2.1245
3022.00,2.1157
3021.00,2.1067
3020.00,2.0974
3019.00,2.0879
3018.00,2.0785
3017.00,2.0697
3016.00,2.0616
3015.00,2.0541
3014.00,2.0472
3013.00,2.0408
3012.00,2.0351
3011.00,2.0299
3010.00,2.0251
3009.00,2.0208
3008.00,2.0172
3007.00,2.0142
3006.00,2.0117
3005.00,2.0094
3004.00,2.0069
3003.00,2.0034
3002.00,1.9983
3001.00,1.9913
3000.00,1.9825
2999.00,1.9718
2998.00,1.9591
2997.00,1.9441
2996.00,1.9268
2995.00,1.9074
2994.00,1.8864
2993.00,1.8644
2992.00,1.8418
2991.00,1.8189
2990.00,1.7959
2989.00,1.7730
2988.00,1.7508
2987.00,1.7297
2986.00,1.7105
2985.00,1.6936
2984.00,1.6795
2983.00,1.6687
2982.00,1.6613
2981.00,1.6577
2980.00,1.6581
2979.00,1.6626
2978.00,1.6710
2977.00,1.6831
2976.00,1.6986
2975.00,1.7172
2974.00,1.7384
2973.00,1.7618
2972.00,1.7871
2971.00,1.8139
2970.00,1.8416
2969.00,1.8696
2968.00,1.8972
2967.00,1.9240
2966.00,1.9501
2965.00,1.9755
2964.00,2.0002
2963.00,2.0240
2962.00,2.0469
2961.00,2.0689
2960.00,2.0903
2959.00,2.1118
2958.00,2.1342
2957.00,2.1576
2956.00,2.1815
2955.00,2.2053
2954.00,2.2287
2953.00,2.2521
2952.00,2.2759
2951.00,2.3001
2950.00,2.3242
2949.00,2.3478
2948.00,2.3703
2947.00,2.3911
2946.00,2.4088
2945.00,2.4215
2944.00,2.4271
2943.00,2.4235
2942.00,2.4100
2941.00,2.3880
2940.00,2.3607
2939.00,2.3318
2938.00,2.3037
2937.00,2.2774
2936.00,2.2530
2935.00,2.2305
2934.00,2.2100
2933.00,2.1920
2932.00,2.1768
2931.00,2.1645
2930.00,2.1548
2929.00,2.1473
2928.00,2.1418
2927.00,2.1381
2926.00,2.1363
2925.00,2.1364
2924.00,2.1379
2923.00,2.1406
2922.00,2.1445
2921.00,2.1498
2920.00,2.1565
2919.00,2.1642
2918.00,2.1722
2917.00,2.1805
2916.00,2.1889
2915.00,2.1977
2914.00,2.2069
2913.00,2.2164
2912.00,2.2262
2911.00,2.2359
2910.00,2.2454
2909.00,2.2546
2908.00,2.2634
2907.00,2.2719
2906.00,2.2801
2905.00,2.2879
2904.00,2.2947
2903.00,2.3005
2902.00,2.3055
2901.00,2.3104
2900.00,2.3153
2899.00,2.3200
2898.00,2.3240
2897.00,2.3271
2896.00,2.3289
2895.00,2.3298
2894.00,2.3309
2893.00,2.3330
2892.00,2.3360
2891.00,2.3387
2890.00,2.3406
2889.00,2.3416
2888.00,2.3418
2887.00,2.3408
2886.00,2.3390
2885.00,2.3374
2884.00,2.3366
2883.00,2.3360
2882.00,2.3344
2881.00,2.3317
2880.00,2.3282
2879.00,2.3246
2878.00,2.3213
2877.00,2.3186
2876.00,2.3169
2875.00,2.3158
2874.00,2.3154
2873.00,2.3155
2872.00,2.3162
2871.00,2.3170
2870.00,2.3171
2869.00,2.3158
2868.00,2.3130
2867.00,2.3088
2866.00,2.3035
2865.00,2.2974
2864.00,2.2906
2863.00,2.2827
2862.00,2.2733
2861.00,2.2625
2860.00,2.2508
2859.00,2.2385
2858.00,2.2250
2857.00,2.2099
2856.00,2.1932
2855.00,2.1749
2854.00,2.1552
2853.00,2.1345
2852.00,2.1127
2851.00,2.0900
2850.00,2.0665
2849.00,2.0426
2848.00,2.0182
2847.00,1.9929
2846.00,1.9662
2845.00,1.9382
2844.00,1.9093
2843.00,1.8798
2842.00,1.8497
2841.00,1.8189
2840.00,1.7873
2839.00,1.7547
2838.00,1.7211
2837.00,1.6868
2836.00,1.6518
2835.00,1.6163
2834.00,1.5806
2833.00,1.5449
2832.00,1.5094
2831.00,1.4745
2830.00,1.4402
2829.00,1.4070
2828.00,1.3751
2827.00,1.3452
2826.00,1.3176
2825.00,1.2925
2824.00,1.2704
2823.00,1.2516
2822.00,1.2366
2821.00,1.2256
2820.00,1.2189
2819.00,1.2166
2818.00,1.2185
2817.00,1.2247
2816.00,1.2349
2815.00,1.2489
2814.00,1.2663
2813.00,1.2869
2812.00,1.3102
2811.00,1.3359
2810.00,1.3637
2809.00,1.3931
2808.00,1.4239
2807.00,1.4558
2806.00,1.4887
2805.00,1.5222
2804.00,1.5562
2803.00,1.5903
2802.00,1.6242
2801.00,1.6576
2800.00,1.6905
2799.00,1.7231
2798.00,1.7552
2797.00,1.7868
2796.00,1.8177
2795.00,1.8478
2794.00,1.8768
2793.00,1.9049
2792.00,1.9322
2791.00,1.9587
2790.00,1.9845
2789.00,2.0093
2788.00,2.0331
2787.00,2.0559
2786.00,2.0777
2785.00,2.0982
2784.00,2.1176
2783.00,2.1358
2782.00,2.1532
2781.00,2.1700
2780.00,2.1863
2779.00,2.2022
2778.00,2.2173
2777.00,2.2316
2776.00,2.2452
2775.00,2.2585
2774.00,2.2713
2773.00,2.2828
2772.00,2.2926
2771.00,2.3009
2770.00,2.3085
2769.00,2.3163
2768.00,2.3244
2767.00,2.3327
2766.00,2.3408
2765.00,2.3482
2764.00,2.3548
2763.00,2.3605
2762.00,2.3658
2761.00,2.3708
2760.00,2.3754
2759.00,2.3794
2758.00,2.3827
2757.00,2.3854
2756.00,2.3876
2755.00,2.3893
2754.00,2.3902
2753.00,2.3907
2752.00,2.3910
2751.00,2.3914
2750.00,2.3920
2749.00,2.3925
2748.00,2.3924
2747.00,2.3911
2746.00,2.3888
2745.00,2.3860
2744.00,2.3831
2743.00,2.3801
2742.00,2.3768
2741.00,2.3726
2740.00,2.3675
2739.00,2.3616
2738.00,2.3553
2737.00,2.3487
2736.00,2.3418
2735.00,2.3343
2734.00,2.3265
2733.00,2.3182
2732.00,2.3093
2731.00,2.2995
2730.00,2.2889
2729.00,2.2780
2728.00,2.2669
2727.00,2.2552
2726.00,2.2424
2725.00,2.2289
2724.00,2.2149
2723.00,2.2004
2722.00,2.1848
2721.00,2.1679
2720.00,2.1497
2719.00,2.1307
2718.00,2.1110
2717.00,2.0905
2716.00,2.0691
2715.00,2.0466
2714.00,2.0230
2713.00,1.9979
2712.00,1.9713
2711.00,1.9433
2710.00,1.9142
2709.00,1.8840
2708.00,1.8525
2707.00,1.8193
2706.00,1.7844
2705.00,1.7477
2704.00,1.7094
2703.00,1.6695
2702.00,1.6284
2701.00,1.5864
2700.00,1.5437
2699.00,1.5005
2698.00,1.4570
2697.00,1.4138
2696.00,1.3714
2695.00,1.3305
2694.00,1.2918
2693.00,1.2558
2692.00,1.2232
2691.00,1.1942
2690.00,1.1693
2689.00,1.1490
2688.00,1.1337
2687.00,1.1238
2686.00,1.1194
2685.00,1.1207
2684.00,1.1274
2683.00,1.1392
2682.00,1.1557
2681.00,1.1763
2680.00,1.2003
2679.00,1.2271
2678.00,1.2563
2677.00,1.2874
2676.00,1.3201
2675.00,1.3540
2674.00,1.3888
2673.00,1.4243
2672.00,1.4602
2671.00,1.4963
2670.00,1.5327
2669.00,1.5694
2668.00,1.6062
2667.00,1.6430
2666.00,1.6794
2665.00,1.7157
2664.00,1.7516
2663.00,1.7872
2662.00,1.8223
2661.00,1.8569
2660.00,1.8907
2659.00,1.9236
2658.00,1.9554
2657.00,1.9860
2656.00,2.0153
2655.00,2.0434
2654.00,2.0703
2653.00,2.0961
2652.00,2.1209
2651.00,2.1443
2650.00,2.1661
2649.00,2.1865
2648.00,2.2057
2647.00,2.2240
2646.00,2.2416
2645.00,2.2590
2644.00,2.2761
2643.00,2.2925
2642.00,2.3076
2641.00,2.3217
2640.00,2.3354
2639.00,2.3492
2638.00,2.3628
2637.00,2.3761
2636.00,2.3890
2635.00,2.4014
2634.00,2.4125
2633.00,2.4217
2632.00,2.4293
2631.00,2.4365
2630.00,2.4444
2629.00,2.4532
2628.00,2.4611
2627.00,2.4664
2626.00,2.4687
2625.00,2.4701
2624.00,2.4725
2623.00,2.4764
2622.00,2.4804
2621.00,2.4834
2620.00,2.4851
2619.00,2.4861
2618.00,2.4871
2617.00,2.4887
2616.00,2.4910
2615.00,2.4939
2614.00,2.4969
2613.00,2.4992
2612.00,2.4998
2611.00,2.4978
2610.00,2.4939
2609.00,2.4899
2608.00,2.4874
2607.00,2.4863
2606.00,2.4847
2605.00,2.4814
2604.00,2.4765
2603.00,2.4712
2602.00,2.4663
2601.00,2.4616
2600.00,2.4565
2599.00,2.4505
2598.00,2.4436
2597.00,2.4362
2596.00,2.4283
2595.00,2.4202
2594.00,2.4119
2593.00,2.4031
2592.00,2.3935
2591.00,2.3825
2590.00,2.3702
2589.00,2.3570
2588.00,2.3430
2587.00,2.3281
2586.00,2.3127
2585.00,2.2977
2584.00,2.2834
2583.00,2.2689
2582.00,2.2530
2581.00,2.2351
2580.00,2.2156
2579.00,2.1948
2578.00,2.1730
2577.00,2.1505
2576.00,2.1272
2575.00,2.1032
2574.00,2.0780
2573.00,2.0512
2572.00,2.0229
2571.00,1.9932
2570.00,1.9623
2569.00,1.9301
2568.00,1.8960
2567.00,1.8597
2566.00,1.8214
2565.00,1.7814
2564.00,1.7401
2563.00,1.6972
2562.00,1.6528
2561.00,1.6072
2560.00,1.5607
2559.00,1.5140
2558.00,1.4676
2557.00,1.4221
2556.00,1.3783
2555.00,1.3366
2554.00,1.2977
2553.00,1.2623
2552.00,1.2308
2551.00,1.2038
2550.00,1.1819
2549.00,1.1653
2548.00,1.1545
2547.00,1.1496
2546.00,1.1508
2545.00,1.1579
2544.00,1.1706
2543.00,1.1887
2542.00,1.2115
2541.00,1.2385
2540.00,1.2693
2539.00,1.3030
2538.00,1.3390
2537.00,1.3770
2536.00,1.4164
2535.00,1.4569
2534.00,1.4981
2533.00,1.5397
2532.00,1.5816
2531.00,1.6238
2530.00,1.6659
2529.00,1.7078
2528.00,1.7491
2527.00,1.7895
2526.00,1.8290
2525.00,1.8674
2524.00,1.9047
2523.00,1.9406
2522.00,1.9754
2521.00,2.0090
2520.00,2.0417
2519.00,2.0732
2518.00,2.1031
2517.00,2.1314
2516.00,2.1584
2515.00,2.1845
2514.00,2.2097
2513.00,2.2337
2512.00,2.2562
2511.00,2.2771
2510.00,2.2970
2509.00,2.3161
2508.00,2.3344
2507.00,2.3518
2506.00,2.3685
2505.00,2.3854
2504.00,2.4027
2503.00,2.4194
2502.00,2.4339
2501.00,2.4459
2500.00,2.4561
2499.00,2.4658
2498.00,2.4753
2497.00,2.4847
2496.00,2.4942
2495.00,2.5041
2494.00,2.5145
2493.00,2.5247
2492.00,2.5340
2491.00,2.5420
2490.00,2.5485
2489.00,2.5539
2488.00,2.5590
2487.00,2.5641
2486.00,2.5688
2485.00,2.5729
2484.00,2.5764
2483.00,2.5794
2482.00,2.5822
2481.00,2.5846
2480.00,2.5867
2479.00,2.5890
2478.00,2.5918
2477.00,2.5943
2476.00,2.5956
2475.00,2.5953
2474.00,2.5946
2473.00,2.5944
2472.00,2.5946
2471.00,2.5947
2470.00,2.5947
2469.00,2.5945
2468.00,2.5935
2467.00,2.5904
2466.00,2.5845
2465.00,2.5770
2464.00,2.5695
2463.00,2.5630
2462.00,2.5571
2461.00,2.5515
2460.00,2.5458
2459.00,2.5394
2458.00,2.5317
2457.00,2.5227
2456.00,2.5127
2455.00,2.5022
2454.00,2.4916
2453.00,2.4811
2452.00,2.4708
2451.00,2.4601
2450.00,2.4484
2449.00,2.4353
2448.00,2.4212
2447.00,2.4067
2446.00,2.3919
2445.00,2.3763
2444.00,2.3597
2443.00,2.3420
2442.00,2.3235
2441.00,2.3043
2440.00,2.2840
2439.00,2.2626
2438.00,2.2399
2437.00,2.2160
2436.00,2.1909
2435.00,2.1643
2434.00,2.1364
2433.00,2.1075
2432.00,2.0776
2431.00,2.0463
2430.00,2.0136
2429.00,1.9795
2428.00,1.9441
2427.00,1.9076
2426.00,1.8700
2425.00,1.8316
2424.00,1.7926
2423.00,1.7536
2422.00,1.7149
2421.00,1.6770
2420.00,1.6404
2419.00,1.6056
2418.00,1.5729
2417.00,1.5428
2416.00,1.5156
2415.00,1.4914
2414.00,1.4700
2413.00,1.4515
2412.00,1.4358
2411.00,1.4228
2410.00,1.4124
2409.00,1.4046
2408.00,1.3993
2407.00,1.3966
2406.00,1.3969
2405.00,1.4002
2404.00,1.4070
2403.00,1.4176
2402.00,1.4319
2401.00,1.4500
2400.00,1.4716
2399.00,1.4965
2398.00,1.5244
2397.00,1.5548
2396.00,1.5878
2395.00,1.6230
2394.00,1.6599
2393.00,1.6982
2392.00,1.7372
2391.00,1.7768
2390.00,1.8165
2389.00,1.8562
2388.00,1.8952
2387.00,1.9334
2386.00,1.9708
2385.00,2.0072
2384.00,2.0423
2383.00,2.0759
2382.00,2.1076
2381.00,2.1373
2380.00,2.1648
2379.00,2.1903
2378.00,2.2138
2377.00,2.2355
2376.00,2.2552
2375.00,2.2726
2374.00,2.2885
2373.00,2.3046
2372.00,2.3220
2371.00,2.3408
2370.00,2.3601
2369.00,2.3792
2368.00,2.3980
2367.00,2.4164
2366.00,2.4345
2365.00,2.4518
2364.00,2.4680
2363.00,2.4828
2362.00,2.4970
2361.00,2.5115
2360.00,2.5260
2359.00,2.5387
2358.00,2.5485
2357.00,2.5561
2356.00,2.5638
2355.00,2.5722
2354.00,2.5814
2353.00,2.5914
2352.00,2.6020
2351.00,2.6115
2350.00,2.6182
2349.00,2.6236
2348.00,2.6300
2347.00,2.6382
2346.00,2.6463
2345.00,2.6514
2344.00,2.6530
2343.00,2.6524
2342.00,2.6529
2341.00,2.6551
2340.00,2.6575
2339.00,2.6595
2338.00,2.6609
2337.00,2.6610
2336.00,2.6586
2335.00,2.6535
2334.00,2.6471
2333.00,2.6419
2332.00,2.6380
2331.00,2.6350
2330.00,2.6310
2329.00,2.6274
2328.00,2.6234
2327.00,2.6181
2326.00,2.6099
2325.00,2.5988
2324.00,2.5874
2323.00,2.5766
2322.00,2.5667
2321.00,2.5569
2320.00,2.5471
2319.00,2.5377
2318.00,2.5280
2317.00,2.5174
2316.00,2.5048
2315.00,2.4910
2314.00,2.4760
2313.00,2.4607
2312.00,2.4444
2311.00,2.4270
2310.00,2.4077
2309.00,2.3866
2308.00,2.3633
2307.00,2.3382
2306.00,2.3114
2305.00,2.2842
2304.00,2.2576
2303.00,2.2335
2302.00,2.2140
2301.00,2.2021
2300.00,2.2001
2299.00,2.2097
2298.00,2.2314
2297.00,2.2646
2296.00,2.3072
2295.00,2.3549
2294.00,2.4010
2293.00,2.4378
2292.00,2.4584
2291.00,2.4590
2290.00,2.4397
2289.00,2.4042
2288.00,2.3575
2287.00,2.3034
2286.00,2.2444
2285.00,2.1818
2284.00,2.1167
2283.00,2.0501
2282.00,1.9829
2281.00,1.9162
2280.00,1.8518
2279.00,1.7923
2278.00,1.7408
2277.00,1.6999
2276.00,1.6717
2275.00,1.6572
2274.00,1.6569
2273.00,1.6707
2272.00,1.6977
2271.00,1.7369
2270.00,1.7868
2269.00,1.8462
2268.00,1.9139
2267.00,1.9890
2266.00,2.0701
2265.00,2.1564
2264.00,2.2470
2263.00,2.3412
2262.00,2.4390
2261.00,2.5400
2260.00,2.6448
2259.00,2.7551
2258.00,2.8762
2257.00,3.0154
2256.00,3.1784
2255.00,3.3641
2254.00,3.5502
2253.00,3.6695
2252.00,3.6393
2251.00,3.4876
2250.00,3.3047
2249.00,3.1311
2248.00,2.9706
2247.00,2.8175
2246.00,2.6682
2245.00,2.5225
2244.00,2.3814
2243.00,2.2470
2242.00,2.1225
2241.00,2.0123
2240.00,1.9203
2239.00,1.8497
2238.00,1.8018
2237.00,1.7767
2236.00,1.7730
2235.00,1.7877
2234.00,1.8175
2233.00,1.8585
2232.00,1.9070
2231.00,1.9597
2230.00,2.0140
2229.00,2.0682
2228.00,2.1209
2227.00,2.1709
2226.00,2.2173
2225.00,2.2603
2224.00,2.3007
2223.00,2.3391
2222.00,2.3754
2221.00,2.4093
2220.00,2.4406
2219.00,2.4697
2218.00,2.4963
2217.00,2.5206
2216.00,2.5432
2215.00,2.5644
2214.00,2.5844
2213.00,2.6034
2212.00,2.6219
2211.00,2.6402
2210.00,2.6572
2209.00,2.6720
2208.00,2.6850
2207.00,2.6976
2206.00,2.7104
2205.00,2.7231
2204.00,2.7347
2203.00,2.7444
2202.00,2.7522
2201.00,2.7585
2200.00,2.7639
2199.00,2.7685
2198.00,2.7723
2197.00,2.7756
2196.00,2.7793
2195.00,2.7841
2194.00,2.7901
2193.00,2.7972
2192.00,2.8047
2191.00,2.8108
2190.00,2.8132
2189.00,2.8121
2188.00,2.8100
2187.00,2.8092
2186.00,2.8093
2185.00,2.8095
2184.00,2.8101
2183.00,2.8112
2182.00,2.8112
2181.00,2.8079
2180.00,2.8018
2179.00,2.7953
2178.00,2.7899
2177.00,2.7851
2176.00,2.7800
2175.00,2.7743
2174.00,2.7678
2173.00,2.7604
2172.00,2.7521
2171.00,2.7433
2170.00,2.7339
2169.00,2.7241
2168.00,2.7147
2167.00,2.7062
2166.00,2.6978
2165.00,2.6879
2164.00,2.6760
2163.00,2.6626
2162.00,2.6489
2161.00,2.6350
2160.00,2.6207
2159.00,2.6054
2158.00,2.5890
2157.00,2.5713
2156.00,2.5523
2155.00,2.5327
2154.00,2.5134
2153.00,2.4942
2152.00,2.4743
2151.00,2.4524
2150.00,2.4277
2149.00,2.4006
2148.00,2.3719
2147.00,2.3421
2146.00,2.3110
2145.00,2.2782
2144.00,2.2436
2143.00,2.2071
2142.00,2.1686
2141.00,2.1283
2140.00,2.0859
2139.00,2.0412
2138.00,1.9938
2137.00,1.9439
2136.00,1.8917
2135.00,1.8374
2134.00,1.7817
2133.00,1.7250
2132.00,1.6683
2131.00,1.6125
2130.00,1.5588
2129.00,1.5082
2128.00,1.4619
2127.00,1.4208
2126.00,1.3858
2125.00,1.3579
2124.00,1.3376
2123.00,1.3255
2122.00,1.3219
2121.00,1.3270
2120.00,1.3404
2119.00,1.3617
2118.00,1.3900
2117.00,1.4243
2116.00,1.4635
2115.00,1.5067
2114.00,1.5528
2113.00,1.6012
2112.00,1.6513
2111.00,1.7024
2110.00,1.7540
2109.00,1.8055
2108.00,1.8566
2107.00,1.9069
2106.00,1.9565
2105.00,2.0053
2104.00,2.0534
2103.00,2.1004
2102.00,2.1455
2101.00,2.1880
2100.00,2.2278
2099.00,2.2656
2098.00,2.3020
2097.00,2.3372
2096.00,2.3707
2095.00,2.4024
2094.00,2.4322
2093.00,2.4601
2092.00,2.4863
2091.00,2.5112
2090.00,2.5349
2089.00,2.5579
2088.00,2.5806
2087.00,2.6033
2086.00,2.6255
2085.00,2.6458
2084.00,2.6631
2083.00,2.6779
2082.00,2.6924
2081.00,2.7078
2080.00,2.7240
2079.00,2.7397
2078.00,2.7540
2077.00,2.7667
2076.00,2.7793
2075.00,2.7928
2074.00,2.8068
2073.00,2.8190
2072.00,2.8280
2071.00,2.8345
2070.00,2.8402
2069.00,2.8463
2068.00,2.8527
2067.00,2.8585
2066.00,2.8630
2065.00,2.8666
2064.00,2.8705
2063.00,2.8759
2062.00,2.8822
2061.00,2.8874
2060.00,2.8904
2059.00,2.8916
2058.00,2.8922
2057.00,2.8938
2056.00,2.8974
2055.00,2.9030
2054.00,2.9090
2053.00,2.9132
2052.00,2.9154
2051.00,2.9173
2050.00,2.9191
2049.00,2.9187
2048.00,2.9145
2047.00,2.9073
2046.00,2.8999
2045.00,2.8939
2044.00,2.8905
2043.00,2.8900
2042.00,2.8920
2041.00,2.8940
2040.00,2.8932
2039.00,2.8887
2038.00,2.8813
2037.00,2.8723
2036.00,2.8629
2035.00,2.8549
2034.00,2.8488
2033.00,2.8431
2032.00,2.8358
2031.00,2.8260
2030.00,2.8147
2029.00,2.8029
2028.00,2.7916
2027.00,2.7805
2026.00,2.7686
2025.00,2.7544
2024.00,2.7384
2023.00,2.7223
2022.00,2.7074
2021.00,2.6932
2020.00,2.6784
2019.00,2.6622
2018.00,2.6446
2017.00,2.6258
2016.00,2.6060
2015.00,2.5853
2014.00,2.5631
2013.00,2.5386
2012.00,2.5118
2011.00,2.4839
2010.00,2.4561
2009.00,2.4283
2008.00,2.3997
2007.00,2.3692
2006.00,2.3363
2005.00,2.3004
2004.00,2.2614
2003.00,2.2198
2002.00,2.1758
2001.00,2.1297
2000.00,2.0813
1999.00,2.0306
1998.00,1.9778
1997.00,1.9229
1996.00,1.8664
1995.00,1.8089
1994.00,1.7508
1993.00,1.6934
1992.00,1.6383
1991.00,1.5876
1990.00,1.5423
1989.00,1.5026
1988.00,1.4686
1987.00,1.4415
1986.00,1.4225
1985.00,1.4124
1984.00,1.4112
1983.00,1.4189
1982.00,1.4352
1981.00,1.4595
1980.00,1.4905
1979.00,1.5271
1978.00,1.5682
1977.00,1.6130
1976.00,1.6606
1975.00,1.7102
1974.00,1.7611
1973.00,1.8128
1972.00,1.8649
1971.00,1.9171
1970.00,1.9688
1969.00,2.0196
1968.00,2.0695
1967.00,2.1195
1966.00,2.1698
1965.00,2.2193
1964.00,2.2660
1963.00,2.3086
1962.00,2.3474
1961.00,2.3836
1960.00,2.4185
1959.00,2.4522
1958.00,2.4841
1957.00,2.5140
1956.00,2.5416
1955.00,2.5673
1954.00,2.5918
1953.00,2.6161
1952.00,2.6412
1951.00,2.6666
1950.00,2.6906
1949.00,2.7112
1948.00,2.7286
1947.00,2.7449
1946.00,2.7623
1945.00,2.7812
1944.00,2.8001
1943.00,2.8175
1942.00,2.8324
1941.00,2.8449
1940.00,2.8564
1939.00,2.8679
1938.00,2.8793
1937.00,2.8900
1936.00,2.9007
1935.00,2.9128
1934.00,2.9259
1933.00,2.9386
1932.00,2.9508
1931.00,2.9642
1930.00,2.9783
1929.00,2.9891
1928.00,2.9934
1927.00,2.9932
1926.00,2.9930
1925.00,2.9954
1924.00,2.9996
1923.00,3.0049
1922.00,3.0109
1921.00,3.0160
1920.00,3.0182
1919.00,3.0166
1918.00,3.0127
1917.00,3.0092
1916.00,3.0093
1915.00,3.0134
1914.00,3.0191
1913.00,3.0227
1912.00,3.0233
1911.00,3.0229
1910.00,3.0225
1909.00,3.0215
1908.00,3.0191
1907.00,3.0163
1906.00,3.0140
1905.00,3.0119
1904.00,3.0105
1903.00,3.0108
1902.00,3.0113
1901.00,3.0077
1900.00,2.9981
1899.00,2.9861
1898.00,2.9764
1897.00,2.9691
1896.00,2.9618
1895.00,2.9535
1894.00,2.9447
1893.00,2.9354
1892.00,2.9242
1891.00,2.9115
1890.00,2.8989
1889.00,2.8874
1888.00,2.8767
1887.00,2.8656
1886.00,2.8524
1885.00,2.8366
1884.00,2.8190
1883.00,2.8008
1882.00,2.7820
1881.00,2.7626
1880.00,2.7439
1879.00,2.7273
1878.00,2.7109
1877.00,2.6914
1876.00,2.6680
1875.00,2.6428
1874.00,2.6171
1873.00,2.5901
1872.00,2.5608
1871.00,2.5290
1870.00,2.4949
1869.00,2.4594
1868.00,2.4249
1867.00,2.3924
1866.00,2.3587
1865.00,2.3191
1864.00,2.2732
1863.00,2.2229
1862.00,2.1701
1861.00,2.1150
1860.00,2.0576
1859.00,1.9988
1858.00,1.9393
1857.00,1.8798
1856.00,1.8211
1855.00,1.7645
1854.00,1.7109
1853.00,1.6618
1852.00,1.6188
1851.00,1.5831
1850.00,1.5555
1849.00,1.5369
1848.00,1.5283
1847.00,1.5299
1846.00,1.5399
1845.00,1.5574
1844.00,1.5841
1843.00,1.6224
1842.00,1.6708
1841.00,1.7233
1840.00,1.7753
1839.00,1.8262
1838.00,1.8777
1837.00,1.9314
1836.00,1.9873
1835.00,2.0430
1834.00,2.0967
1833.00,2.1481
1832.00,2.1970
1831.00,2.2437
1830.00,2.2898
1829.00,2.3383
1828.00,2.3888
1827.00,2.4354
1826.00,2.4742
1825.00,2.5077
1824.00,2.5401
1823.00,2.5720
1822.00,2.6018
1821.00,2.6296
1820.00,2.6570
1819.00,2.6840
1818.00,2.7092
1817.00,2.7334
1816.00,2.7584
1815.00,2.7846
1814.00,2.8103
1813.00,2.8344
1812.00,2.8567
1811.00,2.8777
1810.00,2.8982
1809.00,2.9186
1808.00,2.9375
1807.00,2.9514
1806.00,2.9596
1805.00,2.9646
1804.00,2.9705
1803.00,2.9793
1802.00,2.9918
1801.00,3.0083
1800.00,3.0272
1799.00,3.0441
1798.00,3.0564
1797.00,3.0659
1796.00,3.0744
1795.00,3.0805
1794.00,3.0819
1793.00,3.0803
1792.00,3.0825
1791.00,3.0929
1790.00,3.1080
1789.00,3.1196
1788.00,3.1240
1787.00,3.1243
1786.00,3.1257
1785.00,3.1308
1784.00,3.1374
1783.00,3.1418
1782.00,3.1429
1781.00,3.1426
1780.00,3.1431
1779.00,3.1452
1778.00,3.1475
1777.00,3.1484
1776.00,3.1473
1775.00,3.1439
1774.00,3.1373
1773.00,3.1282
1772.00,3.1200
1771.00,3.1174
1770.00,3.1192
1769.00,3.1191
1768.00,3.1147
1767.00,3.1090
1766.00,3.1044
1765.00,3.0993
1764.00,3.0888
1763.00,3.0717
1762.00,3.0534
1761.00,3.0403
1760.00,3.0318
1759.00,3.0219
1758.00,3.0079
1757.00,2.9927
1756.00,2.9799
1755.00,2.9693
1754.00,2.9576
1753.00,2.9407
1752.00,2.9173
1751.00,2.8909
1750.00,2.8689
1749.00,2.8556
1748.00,2.8461
1747.00,2.8326
1746.00,2.8116
1745.00,2.7856
1744.00,2.7588
1743.00,2.7335
1742.00,2.7085
1741.00,2.6808
1740.00,2.6492
1739.00,2.6176
1738.00,2.5917
1737.00,2.5697
1736.00,2.5421
1735.00,2.5034
1734.00,2.4602
1733.00,2.4308
1732.00,2.4234
1731.00,2.4258
1730.00,2.4284
1729.00,2.4341
1728.00,2.4487
1727.00,2.4745
1726.00,2.5111
1725.00,2.5589
1724.00,2.6190
1723.00,2.6908
1722.00,2.7699
1721.00,2.8500
1720.00,2.9282
1719.00,3.0091
1718.00,3.1034
1717.00,3.2178
1716.00,3.3420
1715.00,3.4576
1714.00,3.5616
1713.00,3.6632
1712.00,3.7628
1711.00,3.8399
1710.00,3.8752
1709.00,3.8818
1708.00,3.8897
1707.00,3.9069
1706.00,3.8925
1705.00,3.8079
1704.00,3.6935
1703.00,3.5874
1702.00,3.4749
1701.00,3.3311
1700.00,3.1745
1699.00,3.0528
1698.00,2.9711
1697.00,2.8916
1696.00,2.7912
1695.00,2.6825
1694.00,2.5853
1693.00,2.5009
1692.00,2.4196
1691.00,2.3374
1690.00,2.2594
1689.00,2.1949
1688.00,2.1490
1687.00,2.1190
1686.00,2.1000
1685.00,2.0927
1684.00,2.1057
1683.00,2.1482
1682.00,2.2081
1681.00,2.2626
1680.00,2.3097
1679.00,2.3542
1678.00,2.3960
1677.00,2.4338
1676.00,2.4693
1675.00,2.5078
1674.00,2.5533
1673.00,2.6027
1672.00,2.6480
1671.00,2.6858
1670.00,2.7204
1669.00,2.7588
1668.00,2.8015
1667.00,2.8410
1666.00,2.8721
1665.00,2.8972
1664.00,2.9193
1663.00,2.9403
1662.00,2.9627
1661.00,2.9883
1660.00,3.0139
1659.00,3.0348
1658.00,3.0504
1657.00,3.0644
1656.00,3.0783
1655.00,3.0886
1654.00,3.0932
1653.00,3.1006
1652.00,3.1253
1651.00,3.1571
1650.00,3.1739
1649.00,3.1783
1648.00,3.1809
1647.00,3.1912
1646.00,3.2136
1645.00,3.2388
1644.00,3.2518
1643.00,3.2509
1642.00,3.2465
1641.00,3.2487
1640.00,3.2601
1639.00,3.2731
1638.00,3.2780
1637.00,3.2740
1636.00,3.2695
1635.00,3.2733
1634.00,3.2845
1633.00,3.2957
1632.00,3.3035
1631.00,3.3060
1630.00,3.3002
1629.00,3.2878
1628.00,3.2746
1627.00,3.2653
1626.00,3.2610
1625.00,3.2622
1624.00,3.2699
1623.00,3.2827
1622.00,3.2957
1621.00,3.3035
1620.00,3.3038
1619.00,3.2958
1618.00,3.2795
1617.00,3.2587
1616.00,3.2430
1615.00,3.2369
1614.00,3.2330
1613.00,3.2244
1612.00,3.2137
1611.00,3.2050
1610.00,3.1987
1609.00,3.1916
1608.00,3.1826
1607.00,3.1738
1606.00,3.1658
1605.00,3.1555
1604.00,3.1402
1603.00,3.1217
1602.00,3.1037
1601.00,3.0885
1600.00,3.0758
1599.00,3.0627
1598.00,3.0463
1597.00,3.0252
1596.00,3.0003
1595.00,2.9747
1594.00,2.9506
1593.00,2.9279
1592.00,2.9046
1591.00,2.8787
1590.00,2.8499
1589.00,2.8196
1588.00,2.7892
1587.00,2.7589
1586.00,2.7278
1585.00,2.6945
1584.00,2.6589
1583.00,2.6220
1582.00,2.5842
1581.00,2.5460
1580.00,2.5081
1579.00,2.4697
1578.00,2.4273
1577.00,2.3783
1576.00,2.3270
1575.00,2.2843
1574.00,2.2526
1573.00,2.2231
1572.00,2.1893
1571.00,2.1520
1570.00,2.1178
1569.00,2.0965
1568.00,2.0910
1567.00,2.0944
1566.00,2.1010
1565.00,2.1117
1564.00,2.1287
1563.00,2.1508
1562.00,2.1728
1561.00,2.1898
1560.00,2.2051
1559.00,2.2332
1558.00,2.2952
1557.00,2.3757
1556.00,2.4351
1555.00,2.4781
1554.00,2.5187
1553.00,2.5597
1552.00,2.6006
1551.00,2.6386
1550.00,2.6754
1549.00,2.7132
1548.00,2.7506
1547.00,2.7833
1546.00,2.8113
1545.00,2.8391
1544.00,2.8700
1543.00,2.9009
1542.00,2.9269
1541.00,2.9505
1540.00,2.9816
1539.00,3.0260
1538.00,3.0717
1537.00,3.1043
1536.00,3.1234
1535.00,3.1326
1534.00,3.1395
1533.00,3.1559
1532.00,3.1839
1531.00,3.2111
1530.00,3.2291
1529.00,3.2429
1528.00,3.2569
1527.00,3.2694
1526.00,3.2796
1525.00,3.2927
1524.00,3.3121
1523.00,3.3328
1522.00,3.3477
1521.00,3.3569
1520.00,3.3629
1519.00,3.3608
1518.00,3.3484
1517.00,3.3365
1516.00,3.3393
1515.00,3.3588
1514.00,3.3837
1513.00,3.4035
1512.00,3.4145
1511.00,3.4173
1510.00,3.4156
1509.00,3.4134
1508.00,3.4122
1507.00,3.4126
1506.00,3.4183
1505.00,3.4250
1504.00,3.4272
1503.00,3.4298
1502.00,3.4313
1501.00,3.4297
1500.00,3.4306
1499.00,3.4367
1498.00,3.4431
1497.00,3.4457
1496.00,3.4506
1495.00,3.4616
1494.00,3.4686
1493.00,3.4575
1492.00,3.4296
1491.00,3.4046
1490.00,3.4014
1489.00,3.4199
1488.00,3.4416
1487.00,3.4529
1486.00,3.4583
1485.00,3.4626
1484.00,3.4592
1483.00,3.4427
1482.00,3.4201
1481.00,3.4032
1480.00,3.3952
1479.00,3.3892
1478.00,3.3789
1477.00,3.3654
1476.00,3.3538
1475.00,3.3476
1474.00,3.3467
1473.00,3.3482
1472.00,3.3493
1471.00,3.3492
1470.00,3.3507
1469.00,3.3561
1468.00,3.3604
1467.00,3.3528
1466.00,3.3318
1465.00,3.3102
1464.00,3.3017
1463.00,3.3080
1462.00,3.3230
1461.00,3.3424
1460.00,3.3632
1459.00,3.3813
1458.00,3.3983
1457.00,3.4275
1456.00,3.4799
1455.00,3.5425
1454.00,3.5932
1453.00,3.6257
1452.00,3.6422
1451.00,3.6446
1450.00,3.6382
1449.00,3.6319
1448.00,3.6302
1447.00,3.6293
1446.00,3.6242
1445.00,3.6173
1444.00,3.6149
1443.00,3.6164
1442.00,3.6140
1441.00,3.6048
1440.00,3.5939
1439.00,3.5825
1438.00,3.5693
1437.00,3.5600
1436.00,3.5613
1435.00,3.5689
1434.00,3.5738
1433.00,3.5755
1432.00,3.5793
1431.00,3.5860
1430.00,3.5900
1429.00,3.5869
1428.00,3.5785
1427.00,3.5700
1426.00,3.5664
1425.00,3.5688
1424.00,3.5718
1423.00,3.5650
1422.00,3.5424
1421.00,3.5077
1420.00,3.4711
1419.00,3.4449
1418.00,3.4372
1417.00,3.4417
1416.00,3.4427
1415.00,3.4328
1414.00,3.4158
1413.00,3.3969
1412.00,3.3770
1411.00,3.3555
1410.00,3.3355
1409.00,3.3218
1408.00,3.3128
1407.00,3.2997
1406.00,3.2780
1405.00,3.2543
1404.00,3.2381
1403.00,3.2289
1402.00,3.2187
1401.00,3.2037
1400.00,3.1886
1399.00,3.1815
1398.00,3.1850
1397.00,3.1937
1396.00,3.2006
1395.00,3.2049
1394.00,3.2115
1393.00,3.2253
1392.00,3.2464
1391.00,3.2708
1390.00,3.2933
1389.00,3.3118
1388.00,3.3287
1387.00,3.3484
1386.00,3.3731
1385.00,3.4018
1384.00,3.4343
1383.00,3.4724
1382.00,3.5186
1381.00,3.5728
1380.00,3.6282
1379.00,3.6770
1378.00,3.7223
1377.00,3.7734
1376.00,3.8224
1375.00,3.8298
1374.00,3.7642
1373.00,3.6559
1372.00,3.5470
1371.00,3.4504
1370.00,3.3685
1369.00,3.3075
1368.00,3.2731
1367.00,3.2637
1366.00,3.2699
1365.00,3.2815
1364.00,3.2946
1363.00,3.3128
1362.00,3.3402
1361.00,3.3729
1360.00,3.3988
1359.00,3.4096
1358.00,3.4122
1357.00,3.4238
1356.00,3.4551
1355.00,3.4989
1354.00,3.5345
1353.00,3.5481
1352.00,3.5457
1351.00,3.5423
1350.00,3.5471
1349.00,3.5608
1348.00,3.5767
1347.00,3.5863
1346.00,3.5866
1345.00,3.5847
1344.00,3.5879
1343.00,3.5943
1342.00,3.5966
1341.00,3.5933
1340.00,3.5902
1339.00,3.5970
1338.00,3.6154
1337.00,3.6352
1336.00,3.6509
1335.00,3.6658
1334.00,3.6763
1333.00,3.6696
1332.00,3.6425
1331.00,3.6115
1330.00,3.5938
1329.00,3.5898
1328.00,3.5867
1327.00,3.5776
1326.00,3.5733
1325.00,3.5883
1324.00,3.6224
1323.00,3.6595
1322.00,3.6815
1321.00,3.6819
1320.00,3.6635
1319.00,3.6358
1318.00,3.6153
1317.00,3.6157
1316.00,3.6339
1315.00,3.6493
1314.00,3.6438
1313.00,3.6224
1312.00,3.6043
1311.00,3.6029
1310.00,3.6186
1309.00,3.6396
1308.00,3.6426
1307.00,3.6086
1306.00,3.5514
1305.00,3.5041
1304.00,3.4831
1303.00,3.4801
1302.00,3.4776
1301.00,3.4679
1300.00,3.4548
1299.00,3.4421
1298.00,3.4298
1297.00,3.4165
1296.00,3.3999
1295.00,3.3756
1294.00,3.3426
1293.00,3.3069
1292.00,3.2739
1291.00,3.2425
1290.00,3.2090
1289.00,3.1744
1288.00,3.1431
1287.00,3.1157
1286.00,3.0873
1285.00,3.0534
1284.00,3.0127
1283.00,2.9660
1282.00,2.9154
1281.00,2.8648
1280.00,2.8178
1279.00,2.7753
1278.00,2.7360
1277.00,2.6984
1276.00,2.6615
1275.00,2.6244
1274.00,2.5858
1273.00,2.5453
1272.00,2.5045
1271.00,2.4655
1270.00,2.4310
1269.00,2.4026
1268.00,2.3814
1267.00,2.3672
1266.00,2.3593
1265.00,2.3576
1264.00,2.3633
1263.00,2.3784
1262.00,2.4038
1261.00,2.4393
1260.00,2.4839
1259.00,2.5357
1258.00,2.5921
1257.00,2.6509
1256.00,2.7105
1255.00,2.7699
1254.00,2.8266
1253.00,2.8782
1252.00,2.9254
1251.00,2.9727
1250.00,3.0237
1249.00,3.0776
1248.00,3.1309
1247.00,3.1815
1246.00,3.2293
1245.00,3.2738
1244.00,3.3118
1243.00,3.3391
1242.00,3.3546
1241.00,3.3632
1240.00,3.3744
1239.00,3.3975
1238.00,3.4365
1237.00,3.4874
1236.00,3.5383
1235.00,3.5774
1234.00,3.6013
1233.00,3.6153
1232.00,3.6225
1231.00,3.6227
1230.00,3.6189
1229.00,3.6145
1228.00,3.6144
1227.00,3.6247
1226.00,3.6456
1225.00,3.6630
1224.00,3.6559
1223.00,3.6210
1222.00,3.5807
1221.00,3.5642
1220.00,3.5879
1219.00,3.6525
1218.00,3.7508
1217.00,3.8682
1216.00,3.9516
1215.00,3.9598
1214.00,3.9478
1213.00,3.9400
1212.00,3.9143
1211.00,3.8637
1210.00,3.8071
1209.00,3.7639
1208.00,3.7425
1207.00,3.7445
1206.00,3.7653
1205.00,3.7931
1204.00,3.8196
1203.00,3.8526
1202.00,3.8938
1201.00,3.9107
1200.00,3.8772
1199.00,3.8250
1198.00,3.7999
1197.00,3.8238
1196.00,3.8945
1195.00,3.9875
1194.00,4.0647
1193.00,4.0951
1192.00,4.0674
1191.00,4.0031
1190.00,3.9569
1189.00,3.9590
1188.00,3.9941
1187.00,4.0049
1186.00,3.9447
1185.00,3.8563
1184.00,3.7988
1183.00,3.7824
1182.00,3.7864
1181.00,3.7870
1180.00,3.7737
1179.00,3.7595
1178.00,3.7523
1177.00,3.7279
1176.00,3.6810
1175.00,3.6433
1174.00,3.6380
1173.00,3.6669
1172.00,3.7221
1171.00,3.7799
1170.00,3.7995
1169.00,3.7732
1168.00,3.7350
1167.00,3.7141
1166.00,3.6918
1165.00,3.6456
1164.00,3.5961
1163.00,3.5652
1162.00,3.5565
1161.00,3.5577
1160.00,3.5512
1159.00,3.5270
1158.00,3.4845
1157.00,3.4317
1156.00,3.3849
1155.00,3.3594
1154.00,3.3613
1153.00,3.3818
1152.00,3.3968
1151.00,3.3850
1150.00,3.3474
1149.00,3.2997
1148.00,3.2486
1147.00,3.1892
1146.00,3.1219
1145.00,3.0548
1144.00,2.9939
1143.00,2.9391
1142.00,2.8877
1141.00,2.8396
1140.00,2.7967
1139.00,2.7596
1138.00,2.7271
1137.00,2.6995
1136.00,2.6804
1135.00,2.6742
1134.00,2.6828
1133.00,2.7054
1132.00,2.7403
1131.00,2.7851
1130.00,2.8369
1129.00,2.8935
1128.00,2.9571
1127.00,3.0349
1126.00,3.1294
1125.00,3.2260
1124.00,3.2952
1123.00,3.3265
1122.00,3.3407
1121.00,3.3545
1120.00,3.3594
1119.00,3.3451
1118.00,3.3278
1117.00,3.3317
1116.00,3.3577
1115.00,3.3798
1114.00,3.3792
1113.00,3.3714
1112.00,3.3866
1111.00,3.4379
1110.00,3.5127
1109.00,3.5828
1108.00,3.6173
1107.00,3.6249
1106.00,3.6510
1105.00,3.7032
1104.00,3.7552
1103.00,3.7957
1102.00,3.8327
1101.00,3.8625
1100.00,3.8635
1099.00,3.8253
1098.00,3.7778
1097.00,3.7651
1096.00,3.8127
1095.00,3.9084
1094.00,3.9714
1093.00,3.9472
1092.00,3.9260
1091.00,3.9679
1090.00,4.0203
1089.00,3.9712
1088.00,3.9075
1087.00,3.9228
1086.00,4.0463
1085.00,4.2786
1084.00,4.4673
1083.00,4.4400
1082.00,4.3286
1081.00,4.2041
1080.00,4.1115
1079.00,4.0340
1078.00,3.9562
1077.00,3.8953
1076.00,3.8669
1075.00,3.8727
1074.00,3.8906
1073.00,3.9088
1072.00,3.9296
1071.00,3.9452
1070.00,3.9727
1069.00,4.0501
1068.00,4.1850
1067.00,4.3096
1066.00,4.3466
1065.00,4.3687
1064.00,4.3579
1063.00,4.2581
1062.00,4.2254
1061.00,4.2713
1060.00,4.2558
1059.00,4.1568
1058.00,4.1194
1057.00,4.1951
1056.00,4.4007
1055.00,4.6651
1054.00,4.4523
1053.00,4.1845
1052.00,4.0375
1051.00,3.9884
1050.00,4.0153
1049.00,4.1234
1048.00,4.2409
1047.00,4.2517
1046.00,4.3095
1045.00,4.3792
1044.00,4.3271
1043.00,4.2555
1042.00,4.1974
1041.00,4.1247
1040.00,4.0747
1039.00,4.1028
1038.00,4.2564
1037.00,4.6613
1036.00,5.0029
1035.00,4.5527
1034.00,4.4610
1033.00,4.3192
1032.00,4.2064
1031.00,4.2058
1030.00,4.3098
1029.00,4.4929
1028.00,4.5527
1027.00,4.2881
1026.00,4.1176
1025.00,4.0472
1024.00,4.0193
1023.00,4.0128
1022.00,4.0410
1021.00,4.0951
1020.00,4.1264
1019.00,4.1429
1018.00,4.1630
1017.00,4.1201
1016.00,4.0017
1015.00,3.8745
1014.00,3.7877
1013.00,3.7675
1012.00,3.8228
1011.00,3.9451
1010.00,4.0770
1009.00,4.1021
1008.00,4.0004
1007.00,3.8580
1006.00,3.7538
1005.00,3.7149
1004.00,3.7330
1003.00,3.7725
1002.00,3.7804
1001.00,3.7439
1000.00,3.7030
999.00,3.6853
998.00,3.6867
997.00,3.6878
996.00,3.6762
995.00,3.6492
994.00,3.6128
993.00,3.5749
992.00,3.5339
991.00,3.4860
990.00,3.4348
989.00,3.3859
988.00,3.3415
987.00,3.3031
986.00,3.2760
985.00,3.2680
984.00,3.2805
983.00,3.3048
982.00,3.3282
981.00,3.3486
980.00,3.3769
979.00,3.4224
978.00,3.4820
977.00,3.5491
976.00,3.6300
975.00,3.7369
974.00,3.8628
973.00,3.9685
972.00,4.0273
971.00,4.0687
970.00,4.1069
969.00,4.1368
968.00,4.1560
967.00,4.1518
966.00,4.1510
965.00,4.1304
964.00,4.0931
963.00,4.1222
962.00,4.2348
961.00,4.4467
960.00,4.8160
959.00,4.3648
958.00,4.1324
957.00,4.0951
956.00,4.1184
955.00,4.1114
954.00,4.1350
953.00,4.2121
952.00,4.1811
951.00,4.0386
950.00,3.9490
949.00,3.9522
948.00,4.0422
947.00,4.1724
946.00,4.2275
945.00,4.2061
944.00,4.1921
943.00,4.1882
942.00,4.1849
941.00,4.1829
940.00,4.1676
939.00,4.1412
938.00,4.1494
937.00,4.2306
936.00,4.4096
935.00,4.6319
934.00,4.6105
933.00,4.5294
932.00,4.5620
931.00,4.7440
930.00,4.7539
929.00,4.5037
928.00,4.4645
927.00,4.5198
926.00,4.3305
925.00,4.1755
924.00,4.1512
923.00,4.1494
922.00,4.1344
921.00,4.1543
920.00,4.1514
919.00,4.0883
918.00,3.9877
917.00,3.8864
916.00,3.8224
915.00,3.7949
914.00,3.7873
913.00,3.8032
912.00,3.8712
911.00,4.0402
910.00,4.3581
909.00,4.5529
908.00,4.4366
907.00,4.2140
906.00,4.0016
905.00,3.9037
904.00,3.9179
903.00,4.0294
902.00,4.1754
901.00,4.1947
900.00,4.0838
899.00,3.9887
898.00,3.9560
897.00,3.9885
896.00,4.0885
895.00,4.2223
894.00,4.3309
893.00,4.5728
892.00,4.8943
891.00,4.8076
890.00,5.0278
889.00,4.3665
888.00,4.1126
887.00,4.0204
886.00,4.0149
885.00,4.0576
884.00,4.0137
883.00,3.8677
882.00,3.7601
881.00,3.7409
880.00,3.8196
879.00,3.9996
878.00,4.2344
877.00,4.3541
876.00,4.2903
875.00,4.1428
874.00,3.9843
873.00,3.8777
872.00,3.8496
871.00,3.8950
870.00,3.9977
869.00,4.1072
868.00,4.1021
867.00,4.1027
866.00,4.1862
865.00,4.1123
864.00,3.9403
863.00,3.8547
862.00,3.8880
861.00,4.0058
860.00,4.0636
859.00,4.0169
858.00,3.9612
857.00,3.9420
856.00,3.9718
855.00,4.0442
854.00,4.1584
853.00,4.3400
852.00,4.4621
851.00,4.2650
850.00,4.0713
849.00,3.9642
848.00,3.9322
847.00,3.9557
846.00,4.0080
845.00,4.0869
844.00,4.1953
843.00,4.3071
842.00,4.3389
841.00,4.2841
840.00,4.2553
839.00,4.2825
838.00,4.2749
837.00,4.2353
836.00,4.2218
835.00,4.3453
834.00,4.6049
833.00,4.1779
832.00,3.9385
831.00,3.8901
830.00,3.9971
829.00,4.2331
828.00,4.0916
827.00,3.8742
826.00,3.7974
825.00,3.8133
824.00,3.8931
823.00,3.9636
822.00,3.9544
821.00,3.9409
820.00,4.0244
819.00,4.2227
818.00,4.2175
817.00,4.0338
816.00,3.9719
815.00,4.0445
814.00,4.3940
813.00,4.5590
812.00,4.0334
811.00,3.9349
810.00,3.9977
809.00,4.1113
808.00,4.2444
807.00,4.2371
806.00,4.1551
805.00,4.1238
804.00,4.1330
803.00,4.2299
802.00,4.3004
801.00,4.1464
800.00,4.1735
799.00,4.6105
798.00,4.6822
797.00,4.3692
796.00,4.3104
795.00,4.1223
794.00,3.9922
793.00,3.9885
792.00,4.0697
791.00,4.1980
790.00,4.2817
789.00,4.3095
788.00,4.3191
787.00,4.3261
786.00,4.2694
785.00,4.3337
784.00,4.6773
783.00,4.2378
782.00,3.9905
781.00,3.9857
780.00,4.1501
779.00,4.3738
778.00,4.1751
777.00,3.9691
776.00,3.9001
775.00,3.9480
774.00,4.0683
773.00,4.1276
772.00,4.1234
771.00,4.1668
770.00,4.2647
769.00,4.3820
768.00,4.4279
767.00,4.2760
766.00,4.1356
765.00,4.0932
764.00,4.0516
763.00,3.9962
762.00,4.0311
761.00,4.2465
760.00,4.2714
759.00,4.0236
758.00,3.9639
757.00,4.2291
756.00,4.7933
755.00,4.2282
754.00,4.1447
753.00,4.3627
752.00,4.7109
751.00,4.2686
750.00,4.0178
749.00,3.9958
748.00,4.0056
747.00,3.9946
746.00,4.0271
745.00,4.1915
744.00,4.6476
743.00,4.6074
742.00,4.1236
741.00,3.9504
740.00,3.9292
739.00,3.9948
738.00,4.0646
737.00,4.0895
736.00,4.1151
735.00,4.1357
734.00,4.2310
733.00,4.5510
732.00,4.3270
731.00,3.9592
730.00,3.8447
729.00,3.8811
728.00,4.0264
727.00,4.1165
726.00,4.0683
725.00,4.1004
724.00,4.2645
723.00,4.4767
722.00,4.3931
721.00,4.0949
720.00,3.8723
719.00,3.7399
718.00,3.6911
717.00,3.7206
716.00,3.7918
715.00,3.8260
714.00,3.7902
713.00,3.7329
712.00,3.7204
711.00,3.7916
710.00,3.9239
709.00,4.0207
708.00,4.0183
707.00,3.9561
706.00,3.8867
705.00,3.8492
704.00,3.8454
703.00,3.8424
702.00,3.8230
701.00,3.7986
700.00,3.7822
